Ah_balance (normalized)	Ah_balance (mAh)	Voltage - fit (V)	Voltage -  interpolate (V)	dQ/dV (1/V)	Temperature (°C)	Temperature - diff (°C)	Current (C)	R_DC 0ms (mOhm)	R_DC 50ms (mOhm)	R_DC 50 ms PEC (mOhm)
0.0006	35.42	4.1660	4.1661	-0.1839	35.89	0.00	-0.750			
0.0012	77.79	4.1630	4.1629	-0.2535	35.89	0.00	-0.750			
0.0021	133.08	4.1600	4.1600	-0.3204	35.89	0.00	-0.750			
0.0032	201.75	4.1570	4.1571	-0.3839	35.89	0.00	-0.750			
0.0044	282.98	4.1540	4.1540	-0.4458	35.89	0.00	-0.750			
0.0059	377.29	4.1510	4.1509	-0.5004	35.89	0.00	-0.750			
0.0075	479.67	4.1480	4.1480	-0.5432	35.89	0.00	-0.750			
0.0092	590.91	4.1450	4.1450	-0.5859	35.89	0.00	-0.750			
0.0110	707.10	4.1420	4.1421	-0.6179	35.89	-0.00	-0.750			
0.0130	829.22	4.1390	4.1390	-0.6487	35.88	-0.01	-0.750			
0.0150	958.04	4.1360	4.1360	-0.6720	35.87	-0.02	-0.750			
0.0170	1090.83	4.1330	4.1330	-0.6911	35.86	-0.03	-0.750			
0.0192	1228.37	4.1300	4.1300	-0.7077	35.85	-0.04	-0.750	0.364	0.386	
0.0213	1365.50	4.1270	4.1271	-0.7150	35.84	-0.05	-0.750			
0.0235	1503.43	4.1240	4.1241	-0.7230	35.83	-0.06	-0.750			
0.0257	1641.80	4.1210	4.1210	-0.7294	35.83	-0.06	-0.750			
0.0278	1780.35	4.1180	4.1180	-0.7391	35.83	-0.06	-0.750			
0.0301	1925.78	4.1150	4.1149	-0.7500	35.83	-0.06	-0.750			
0.0323	2069.27	4.1120	4.1121	-0.7639	35.83	-0.06	-0.750			
0.0347	2218.95	4.1090	4.1090	-0.7696	35.83	-0.06	-0.750			
0.0370	2369.61	4.1060	4.1059	-0.7742	35.83	-0.06	-0.750			
0.0393	2517.50	4.1030	4.1029	-0.7798	35.83	-0.06	-0.750	0.357	0.383	
0.0417	2667.55	4.1000	4.1000	-0.7787	35.83	-0.06	-0.750			
0.0440	2817.20	4.0970	4.0969	-0.7753	35.82	-0.07	-0.750			
0.0464	2967.23	4.0940	4.0939	-0.7753	35.82	-0.07	-0.750			
0.0486	3113.58	4.0910	4.0912	-0.7752	35.82	-0.07	-0.750			
0.0510	3264.12	4.0880	4.0880	-0.7817	35.82	-0.07	-0.750			
0.0533	3413.85	4.0850	4.0849	-0.7911	35.82	-0.07	-0.750			
0.0557	3565.64	4.0820	4.0820	-0.7947	35.81	-0.08	-0.750			
0.0582	3721.65	4.0790	4.0789	-0.7970	35.81	-0.08	-0.750			
0.0605	3874.80	4.0760	4.0760	-0.7969	35.81	-0.08	-0.750	0.361	0.382	
0.0630	4029.00	4.0730	4.0730	-0.7966	35.81	-0.08	-0.750			
0.0653	4180.27	4.0700	4.0699	-0.7976	35.82	-0.07	-0.750			
0.0677	4331.50	4.0670	4.0670	-0.7971	35.82	-0.07	-0.750			
0.0701	4485.32	4.0640	4.0640	-0.8007	35.82	-0.07	-0.750			
0.0725	4641.67	4.0610	4.0610	-0.8083	35.83	-0.06	-0.750			
0.0750	4798.36	4.0580	4.0579	-0.8098	35.82	-0.07	-0.750			
0.0774	4953.37	4.0550	4.0550	-0.8094	35.82	-0.07	-0.750			
0.0798	5109.07	4.0520	4.0521	-0.8077	35.81	-0.08	-0.750	0.344	0.379	
0.0822	5263.21	4.0490	4.0488	-0.8026	35.80	-0.09	-0.750			
0.0846	5416.80	4.0460	4.0460	-0.8058	35.79	-0.10	-0.750			
0.0870	5571.09	4.0430	4.0430	-0.8055	35.78	-0.11	-0.750			
0.0895	5725.35	4.0400	4.0400	-0.8126	35.76	-0.13	-0.750			
0.0919	5882.26	4.0370	4.0370	-0.8232	35.75	-0.14	-0.750			
0.0944	6041.32	4.0340	4.0340	-0.8204	35.73	-0.16	-0.750			
0.0969	6200.68	4.0310	4.0309	-0.8216	35.71	-0.18	-0.750			
0.0994	6359.54	4.0280	4.0279	-0.8228	35.70	-0.19	-0.750	0.334	0.375	
0.1018	6516.04	4.0250	4.0250	-0.8245	35.69	-0.20	-0.750			
0.1043	6675.17	4.0220	4.0219	-0.8234	35.69	-0.20	-0.750			
0.1067	6830.60	4.0190	4.0190	-0.8184	35.69	-0.20	-0.750			
0.1092	6988.26	4.0160	4.0160	-0.8240	35.68	-0.21	-0.750			
0.1117	7147.00	4.0130	4.0132	-0.8342	35.68	-0.21	-0.750			
0.1142	7308.98	4.0100	4.0098	-0.8331	35.69	-0.20	-0.750			
0.1167	7469.30	4.0070	4.0070	-0.8306	35.69	-0.20	-0.750			
0.1192	7627.74	4.0040	4.0040	-0.8298	35.69	-0.20	-0.750	0.356	0.377	
0.1217	7788.22	4.0010	4.0010	-0.8347	35.70	-0.19	-0.750			
0.1242	7948.43	3.9980	3.9980	-0.8331	35.70	-0.19	-0.750			
0.1267	8106.66	3.9950	3.9949	-0.8352	35.71	-0.18	-0.750			
0.1292	8266.94	3.9920	3.9920	-0.8386	35.71	-0.18	-0.750			
0.1317	8428.15	3.9890	3.9890	-0.8480	35.71	-0.18	-0.750			
0.1343	8593.21	3.9860	3.9859	-0.8500	35.72	-0.17	-0.750			
0.1368	8757.58	3.9830	3.9830	-0.8490	35.72	-0.17	-0.750			
0.1394	8920.28	3.9800	3.9801	-0.8549	35.72	-0.17	-0.750	0.353	0.382	
0.1420	9085.00	3.9770	3.9769	-0.8578	35.72	-0.17	-0.750			
0.1445	9248.32	3.9740	3.9740	-0.8547	35.73	-0.16	-0.750			
0.1471	9413.38	3.9710	3.9709	-0.8625	35.73	-0.16	-0.750			
0.1497	9579.08	3.9680	3.9680	-0.8665	35.73	-0.16	-0.750			
0.1523	9747.49	3.9650	3.9650	-0.8742	35.74	-0.15	-0.750			
0.1550	9916.84	3.9620	3.9619	-0.8735	35.75	-0.14	-0.750			
0.1575	10082.85	3.9590	3.9590	-0.8706	35.75	-0.14	-0.750			
0.1602	10251.34	3.9560	3.9562	-0.8745	35.76	-0.13	-0.750	0.357	0.382	
0.1628	10419.52	3.9530	3.9529	-0.8750	35.77	-0.12	-0.750			
0.1654	10586.62	3.9500	3.9499	-0.8733	35.78	-0.11	-0.750			
0.1680	10754.10	3.9470	3.9470	-0.8729	35.79	-0.10	-0.750			
0.1706	10920.94	3.9440	3.9440	-0.8752	35.80	-0.09	-0.750			
0.1733	11090.79	3.9410	3.9411	-0.8834	35.81	-0.08	-0.750			
0.1759	11258.98	3.9380	3.9380	-0.8866	35.81	-0.08	-0.750			
0.1786	11430.30	3.9350	3.9349	-0.8881	35.82	-0.07	-0.750			
0.1813	11602.07	3.9320	3.9321	-0.8891	35.82	-0.07	-0.750	0.360	0.384	
0.1840	11773.61	3.9290	3.9289	-0.8911	35.83	-0.06	-0.750			
0.1866	11945.10	3.9260	3.9260	-0.8878	35.83	-0.06	-0.750			
0.1893	12113.47	3.9230	3.9230	-0.8888	35.83	-0.06	-0.750			
0.1920	12284.90	3.9200	3.9200	-0.8926	35.83	-0.06	-0.750			
0.1946	12454.76	3.9170	3.9170	-0.8922	35.84	-0.05	-0.750			
0.1973	12628.81	3.9140	3.9139	-0.8987	35.84	-0.05	-0.750			
0.2000	12802.42	3.9110	3.9111	-0.9014	35.85	-0.04	-0.750	0.359	0.378	
0.2027	12975.54	3.9080	3.9079	-0.9040	35.85	-0.04	-0.750			
0.2055	13149.75	3.9050	3.9050	-0.9076	35.86	-0.03	-0.750			
0.2082	13322.76	3.9020	3.9020	-0.9068	35.87	-0.02	-0.750			
0.2109	13497.36	3.8990	3.8992	-0.9079	35.88	-0.01	-0.750			
0.2136	13672.44	3.8960	3.8960	-0.9139	35.89	-0.00	-0.750			
0.2164	13849.09	3.8930	3.8930	-0.9144	35.89	0.00	-0.750			
0.2191	14024.72	3.8900	3.8899	-0.9135	35.90	0.01	-0.750	0.348	0.387	
0.2219	14201.34	3.8870	3.8870	-0.9144	35.91	0.02	-0.750			
0.2246	14375.56	3.8840	3.8840	-0.9122	35.91	0.02	-0.750			
0.2273	14550.29	3.8810	3.8810	-0.9162	35.92	0.03	-0.750			
0.2301	14724.14	3.8780	3.8780	-0.9180	35.93	0.04	-0.750			
0.2329	14902.52	3.8750	3.8749	-0.9264	35.94	0.05	-0.750			
0.2357	15083.14	3.8720	3.8721	-0.9289	35.95	0.06	-0.750			
0.2385	15262.31	3.8690	3.8690	-0.9311	35.96	0.07	-0.750			
0.2413	15441.38	3.8660	3.8662	-0.9289	35.96	0.07	-0.750	0.358	0.381	
0.2440	15618.78	3.8630	3.8629	-0.9252	35.97	0.08	-0.750			
0.2468	15796.25	3.8600	3.8600	-0.9241	35.98	0.09	-0.750			
0.2496	15972.17	3.8570	3.8570	-0.9206	35.98	0.09	-0.750			
0.2523	16149.83	3.8540	3.8540	-0.9302	35.99	0.10	-0.750			
0.2551	16329.36	3.8510	3.8509	-0.9316	36.00	0.11	-0.750			
0.2579	16508.77	3.8480	3.8479	-0.9311	36.00	0.11	-0.750			
0.2607	16687.77	3.8450	3.8451	-0.9341	36.01	0.12	-0.750	0.355	0.381	
0.2635	16866.52	3.8420	3.8420	-0.9384	36.02	0.13	-0.750			
0.2664	17047.56	3.8390	3.8389	-0.9389	36.03	0.14	-0.750			
0.2692	17226.88	3.8360	3.8359	-0.9384	36.04	0.15	-0.750			
0.2720	17408.35	3.8330	3.8330	-0.9455	36.05	0.16	-0.750			
0.2748	17590.29	3.8300	3.8300	-0.9451	36.06	0.17	-0.750			
0.2777	17773.48	3.8270	3.8269	-0.9421	36.06	0.17	-0.750			
0.2805	17952.49	3.8240	3.8242	-0.9367	36.07	0.18	-0.750	0.360	0.377	
0.2833	18130.77	3.8210	3.8210	-0.9330	36.08	0.19	-0.750			
0.2861	18310.31	3.8180	3.8179	-0.9369	36.09	0.20	-0.750			
0.2889	18486.87	3.8150	3.8150	-0.9427	36.10	0.21	-0.750			
0.2917	18669.41	3.8120	3.8120	-0.9489	36.11	0.22	-0.750			
0.2946	18855.40	3.8090	3.8089	-0.9534	36.12	0.23	-0.750			
0.2975	19041.29	3.8060	3.8060	-0.9517	36.13	0.24	-0.750			
0.3004	19223.42	3.8030	3.8030	-0.9492	36.14	0.25	-0.750	0.356	0.374	
0.3032	19404.64	3.8000	3.7999	-0.9457	36.14	0.25	-0.750			
0.3060	19584.46	3.7970	3.7969	-0.9423	36.15	0.26	-0.750			
0.3088	19760.67	3.7940	3.7940	-0.9436	36.16	0.27	-0.750			
0.3116	19944.16	3.7910	3.7911	-0.9505	36.16	0.27	-0.750			
0.3145	20129.58	3.7880	3.7879	-0.9549	36.17	0.28	-0.750			
0.3174	20313.79	3.7850	3.7849	-0.9513	36.18	0.29	-0.750			
0.3203	20496.21	3.7820	3.7821	-0.9462	36.19	0.30	-0.750	0.353	0.374	
0.3231	20678.32	3.7790	3.7790	-0.9429	36.20	0.31	-0.750			
0.3259	20856.41	3.7760	3.7760	-0.9425	36.21	0.32	-0.750			
0.3287	21036.66	3.7730	3.7729	-0.9410	36.21	0.32	-0.750			
0.3315	21217.39	3.7700	3.7700	-0.9459	36.22	0.33	-0.750			
0.3344	21401.01	3.7670	3.7669	-0.9483	36.23	0.34	-0.750			
0.3373	21584.46	3.7640	3.7639	-0.9481	36.23	0.34	-0.750			
0.3401	21767.16	3.7610	3.7610	-0.9470	36.24	0.35	-0.750	0.357	0.373	
0.3430	21949.10	3.7580	3.7579	-0.9433	36.25	0.36	-0.750			
0.3458	22128.56	3.7550	3.7549	-0.9365	36.25	0.36	-0.750			
0.3486	22308.90	3.7520	3.7521	-0.9370	36.26	0.37	-0.750			
0.3514	22488.59	3.7490	3.7490	-0.9331	36.27	0.38	-0.750			
0.3542	22666.43	3.7460	3.7460	-0.9331	36.27	0.38	-0.750			
0.3569	22844.21	3.7430	3.7430	-0.9342	36.28	0.39	-0.750			
0.3598	23024.69	3.7400	3.7401	-0.9409	36.29	0.40	-0.750	0.352	0.375	
0.3626	23204.43	3.7370	3.7370	-0.9430	36.30	0.41	-0.750			
0.3654	23386.57	3.7340	3.7340	-0.9479	36.31	0.42	-0.750			
0.3683	23569.04	3.7310	3.7310	-0.9520	36.31	0.42	-0.750			
0.3712	23754.01	3.7280	3.7279	-0.9689	36.32	0.43	-0.750			
0.3740	23938.73	3.7250	3.7250	-0.9666	36.33	0.44	-0.750			
0.3769	24124.18	3.7220	3.7219	-0.9775	36.34	0.45	-0.750			
0.3799	24312.83	3.7190	3.7191	-0.9867	36.34	0.45	-0.750	0.361	0.382	
0.3828	24501.84	3.7160	3.7160	-1.0003	36.35	0.46	-0.750			
0.3859	24695.20	3.7130	3.7131	-1.0217	36.35	0.46	-0.750			
0.3889	24891.50	3.7100	3.7099	-1.0384	36.36	0.47	-0.750			
0.3921	25091.80	3.7070	3.7070	-1.0596	36.37	0.48	-0.750			
0.3953	25297.65	3.7040	3.7041	-1.0851	36.37	0.48	-0.750			
0.3986	25508.73	3.7010	3.7010	-1.1092	36.38	0.49	-0.750			
0.4019	25724.26	3.6980	3.6983	-1.1311	36.38	0.49	-0.750	0.363	0.387	
0.4053	25942.05	3.6950	3.6951	-1.1511	36.39	0.50	-0.750			
0.4088	26163.75	3.6920	3.6920	-1.1912	36.39	0.50	-0.750			
0.4125	26398.18	3.6890	3.6889	-1.2175	36.39	0.50	-0.750			
0.4162	26635.11	3.6860	3.6859	-1.2388	36.39	0.50	-0.750			
0.4199	26876.30	3.6830	3.6829	-1.2684	36.39	0.50	-0.750	0.364	0.381	
0.4238	27122.73	3.6800	3.6801	-1.2951	36.39	0.50	-0.750			
0.4277	27373.01	3.6770	3.6770	-1.3340	36.39	0.50	-0.750			
0.4317	27628.69	3.6740	3.6739	-1.3616	36.39	0.50	-0.750			
0.4358	27892.60	3.6710	3.6709	-1.3995	36.39	0.50	-0.750			
0.4401	28169.44	3.6680	3.6682	-1.4473	36.39	0.50	-0.750	0.363	0.385	
0.4445	28449.72	3.6650	3.6649	-1.4801	36.40	0.51	-0.750			
0.4491	28739.93	3.6620	3.6620	-1.5224	36.40	0.51	-0.750			
0.4537	29034.13	3.6590	3.6590	-1.5579	36.40	0.51	-0.750			
0.4584	29334.77	3.6560	3.6560	-1.6072	36.39	0.50	-0.750	0.370	0.388	
0.4633	29649.30	3.6530	3.6530	-1.6512	36.39	0.50	-0.750			
0.4683	29973.05	3.6500	3.6499	-1.6929	36.39	0.50	-0.750			
0.4734	30299.89	3.6470	3.6470	-1.7328	36.39	0.50	-0.750			
0.4787	30635.28	3.6440	3.6439	-1.7846	36.38	0.49	-0.750	0.365	0.383	
0.4842	30986.24	3.6410	3.6408	-1.8336	36.37	0.48	-0.750			
0.4897	31340.41	3.6380	3.6379	-1.8767	36.37	0.48	-0.750			
0.4954	31702.71	3.6350	3.6351	-1.9328	36.37	0.48	-0.750			
0.5013	32080.17	3.6320	3.6323	-1.9814	36.37	0.48	-0.750	0.361	0.385	
0.5073	32468.54	3.6290	3.6290	-2.0246	36.36	0.47	-0.750			
0.5135	32861.20	3.6260	3.6260	-2.0755	36.36	0.47	-0.750			
0.5198	33266.19	3.6230	3.6229	-2.1198	36.35	0.46	-0.750	0.351	0.383	
0.5262	33679.35	3.6200	3.6199	-2.1715	36.34	0.45	-0.750			
0.5328	34096.44	3.6170	3.6170	-2.2045	36.33	0.44	-0.750			
0.5394	34522.33	3.6140	3.6140	-2.2549	36.33	0.44	-0.750	0.359	0.382	
0.5463	34960.36	3.6110	3.6110	-2.3168	36.33	0.44	-0.750			
0.5533	35410.76	3.6080	3.6080	-2.3720	36.33	0.44	-0.750			
0.5605	35869.23	3.6050	3.6052	-2.4310	36.32	0.43	-0.750	0.361	0.381	
0.5679	36344.85	3.6020	3.6021	-2.4874	36.31	0.42	-0.750			
0.5756	36835.81	3.5990	3.5989	-2.5101	36.31	0.42	-0.750			
0.5832	37324.27	3.5960	3.5959	-2.5080	36.31	0.42	-0.750	0.359	0.385	
0.5907	37804.87	3.5930	3.5932	-2.5103	36.31	0.42	-0.750			
0.5982	38281.64	3.5900	3.5903	-2.5279	36.31	0.42	-0.750	0.362	0.388	
0.6056	38760.76	3.5870	3.5869	-2.5547	36.31	0.42	-0.750			
0.6133	39248.09	3.5840	3.5839	-2.6058	36.31	0.42	-0.750			
0.6212	39759.39	3.5810	3.5811	-2.6698	36.30	0.41	-0.750	0.358	0.388	
0.6295	40288.16	3.5780	3.5780	-2.7122	36.31	0.42	-0.750			
0.6377	40811.58	3.5750	3.5751	-2.7354	36.31	0.42	-0.750			
0.6460	41343.69	3.5720	3.5720	-2.7465	36.31	0.42	-0.750			
0.6542	41867.56	3.5690	3.5691	-2.7163	36.32	0.43	-0.750			
0.6623	42389.08	3.5660	3.5660	-2.6930	36.33	0.44	-0.750	0.376	0.410	
0.6704	42907.75	3.5630	3.5629	-2.6682	36.34	0.45	-0.750			
0.6784	43418.16	3.5600	3.5599	-2.6219	36.35	0.46	-0.750	0.388	0.413	
0.6862	43919.52	3.5570	3.5570	-2.5732	36.37	0.48	-0.750			
0.6940	44413.86	3.5540	3.5542	-2.5090	36.38	0.49	-0.750			
0.7014	44889.61	3.5510	3.5512	-2.4269	36.40	0.51	-0.750	0.374	0.405	
0.7086	45349.91	3.5480	3.5480	-2.3405	36.41	0.52	-0.750			
0.7155	45791.82	3.5450	3.5450	-2.2412	36.43	0.54	-0.750			
0.7221	46213.71	3.5420	3.5422	-2.1456	36.47	0.58	-0.750	0.365	0.410	
0.7283	46612.92	3.5390	3.5389	-2.0571	36.49	0.60	-0.750			
0.7343	46992.19	3.5360	3.5359	-1.9675	36.51	0.62	-0.750			
0.7400	47358.53	3.5330	3.5330	-1.8986	36.53	0.64	-0.750	0.364	0.408	
0.7456	47717.85	3.5300	3.5299	-1.8396	36.56	0.67	-0.750			
0.7510	48065.14	3.5270	3.5268	-1.7809	36.59	0.70	-0.750			
0.7563	48405.02	3.5240	3.5238	-1.7206	36.61	0.72	-0.750			
0.7614	48727.16	3.5210	3.5212	-1.6504	36.64	0.75	-0.750	0.363	0.409	
0.7662	49037.64	3.5180	3.5178	-1.5892	36.67	0.78	-0.750			
0.7709	49337.41	3.5150	3.5152	-1.5320	36.70	0.81	-0.750			
0.7754	49627.01	3.5120	3.5119	-1.4746	36.72	0.83	-0.750			
0.7798	49905.37	3.5090	3.5089	-1.4263	36.74	0.85	-0.750	0.346	0.401	
0.7839	50170.67	3.5060	3.5060	-1.3724	36.76	0.87	-0.750			
0.7880	50428.97	3.5030	3.5029	-1.3250	36.78	0.89	-0.750			
0.7919	50678.59	3.5000	3.4999	-1.2522	36.81	0.92	-0.750			
0.7954	50906.41	3.4970	3.4970	-1.2093	36.83	0.94	-0.750			
0.7989	51132.22	3.4940	3.4942	-1.1720	36.85	0.96	-0.750	0.353	0.411	
0.8024	51354.88	3.4910	3.4904	-1.1386	36.87	0.98	-0.750			
0.8058	51569.75	3.4880	3.4881	-1.1027	36.88	0.99	-0.750			
0.8090	51776.05	3.4850	3.4852	-1.0720	36.90	1.01	-0.750			
0.8123	51984.17	3.4820	3.4821	-1.0516	36.92	1.03	-0.750			
0.8154	52183.98	3.4790	3.4789	-0.9980	36.93	1.04	-0.750			
0.8183	52372.32	3.4760	3.4759	-0.9636	36.95	1.06	-0.750			
0.8211	52553.51	3.4730	3.4730	-0.9334	36.96	1.07	-0.750	0.360	0.416	
0.8239	52728.98	3.4700	3.4699	-0.9101	36.98	1.09	-0.750			
0.8265	52897.56	3.4670	3.4669	-0.8954	36.99	1.10	-0.750			
0.8291	53063.76	3.4640	3.4640	-0.8900	37.00	1.11	-0.750			
0.8317	53229.91	3.4610	3.4610	-0.9017	37.01	1.12	-0.750			
0.8344	53400.01	3.4580	3.4581	-0.9530	37.03	1.14	-0.750			
0.8370	53568.58	3.4550	3.4551	-1.0457	37.04	1.15	-0.750			
0.8401	53769.59	3.4520	3.4521	-1.1936	37.05	1.16	-0.750	0.371	0.428	
0.8438	54004.58	3.4490	3.4489	-1.3410	37.07	1.18	-0.750			
0.8483	54293.52	3.4460	3.4458	-1.4796	37.09	1.20	-0.750			
0.8533	54613.38	3.4430	3.4429	-1.5947	37.11	1.22	-0.750			
0.8585	54942.72	3.4400	3.4401	-1.6416	37.12	1.23	-0.750	0.364	0.437	
0.8635	55267.18	3.4370	3.4369	-1.6377	37.14	1.25	-0.750			
0.8684	55576.62	3.4340	3.4339	-1.5881	37.16	1.27	-0.750			
0.8730	55874.88	3.4310	3.4311	-1.5332	37.18	1.29	-0.750			
0.8776	56167.12	3.4280	3.4279	-1.4910	37.20	1.31	-0.750			
0.8821	56451.55	3.4250	3.4250	-1.4445	37.22	1.33	-0.750	0.360	0.441	
0.8863	56723.18	3.4220	3.4219	-1.4040	37.23	1.34	-0.750			
0.8904	56988.21	3.4190	3.4190	-1.3667	37.25	1.36	-0.750			
0.8945	57246.43	3.4160	3.4159	-1.3136	37.27	1.38	-0.750			
0.8984	57499.17	3.4130	3.4131	-1.2732	37.28	1.39	-0.750			
0.9022	57740.23	3.4100	3.4100	-1.2189	37.30	1.41	-0.750	0.360	0.456	
0.9058	57969.21	3.4070	3.4069	-1.1588	37.32	1.43	-0.750			
0.9092	58185.66	3.4040	3.4040	-1.0930	37.33	1.44	-0.750			
0.9123	58386.74	3.4010	3.4009	-1.0297	37.35	1.46	-0.750			
0.9154	58583.95	3.3980	3.3979	-0.9718	37.36	1.47	-0.750			
0.9182	58763.45	3.3950	3.3950	-0.9015	37.37	1.48	-0.750			
0.9208	58929.75	3.3920	3.3925	-0.8322	37.38	1.49	-0.750	0.361	0.473	
0.9232	59083.98	3.3890	3.3889	-0.7669	37.39	1.50	-0.750			
0.9254	59223.70	3.3860	3.3859	-0.6979	37.40	1.51	-0.750			
0.9273	59347.96	3.3830	3.3830	-0.6346	37.42	1.53	-0.750			
0.9291	59462.36	3.3800	3.3800	-0.5788	37.43	1.54	-0.750			
0.9308	59568.74	3.3770	3.3770	-0.5341	37.43	1.54	-0.750			
0.9323	59664.76	3.3740	3.3740	-0.4868	37.44	1.55	-0.750			
0.9336	59752.60	3.3710	3.3709	-0.4462	37.45	1.56	-0.750			
0.9349	59834.10	3.3680	3.3680	-0.4108	37.46	1.57	-0.750			
0.9361	59908.53	3.3650	3.3650	-0.3800	37.47	1.58	-0.750			
0.9371	59976.88	3.3620	3.3620	-0.3542	37.47	1.58	-0.750			
0.9381	60040.78	3.3590	3.3590	-0.3308	37.48	1.59	-0.750			
0.9391	60102.01	3.3560	3.3559	-0.3108	37.49	1.60	-0.750			
0.9400	60160.01	3.3530	3.3529	-0.2947	37.49	1.60	-0.750			
0.9409	60215.04	3.3500	3.3503	-0.2807	37.50	1.61	-0.750	0.340	0.485	
0.9417	60266.98	3.3470	3.3469	-0.2687	37.51	1.62	-0.750			
0.9424	60316.80	3.3440	3.3440	-0.2580	37.51	1.62	-0.750			
0.9432	60364.57	3.3410	3.3409	-0.2474	37.52	1.63	-0.750			
0.9439	60409.90	3.3380	3.3380	-0.2400	37.52	1.63	-0.750			
0.9446	60455.89	3.3350	3.3350	-0.2355	37.53	1.64	-0.750			
0.9453	60500.02	3.3320	3.3320	-0.2291	37.53	1.64	-0.750			
0.9460	60543.50	3.3290	3.3290	-0.2241	37.54	1.65	-0.750			
0.9467	60585.99	3.3260	3.3260	-0.2191	37.54	1.65	-0.750			
0.9473	60627.40	3.3230	3.3230	-0.2140	37.55	1.66	-0.750			
0.9479	60667.96	3.3200	3.3200	-0.2107	37.55	1.66	-0.750			
0.9486	60707.91	3.3170	3.3171	-0.2076	37.56	1.67	-0.750			
0.9492	60747.19	3.3140	3.3139	-0.2042	37.56	1.67	-0.750			
0.9498	60785.75	3.3110	3.3109	-0.2019	37.57	1.68	-0.750			
0.9504	60824.57	3.3080	3.3080	-0.1983	37.57	1.68	-0.750			
0.9510	60862.38	3.3050	3.3050	-0.1963	37.58	1.69	-0.750			
0.9516	60900.03	3.3020	3.3020	-0.1939	37.58	1.69	-0.750			
0.9521	60936.96	3.2990	3.2991	-0.1906	37.59	1.70	-0.750			
0.9527	60973.01	3.2960	3.2959	-0.1875	37.59	1.70	-0.750			
0.9533	61008.55	3.2930	3.2931	-0.1849	37.60	1.71	-0.750			
0.9538	61043.84	3.2900	3.2900	-0.1827	37.60	1.71	-0.750			
0.9544	61078.55	3.2870	3.2870	-0.1804	37.61	1.72	-0.750			
0.9549	61113.24	3.2840	3.2840	-0.1790	37.61	1.72	-0.750			
0.9554	61147.17	3.2810	3.2810	-0.1759	37.62	1.73	-0.750			
0.9559	61180.77	3.2780	3.2780	-0.1741	37.62	1.73	-0.750			
0.9565	61214.33	3.2750	3.2750	-0.1718	37.63	1.74	-0.750			
0.9570	61246.74	3.2720	3.2721	-0.1707	37.63	1.74	-0.750			
0.9575	61279.33	3.2690	3.2689	-0.1687	37.64	1.75	-0.750			
0.9580	61311.58	3.2660	3.2660	-0.1673	37.64	1.75	-0.750			
0.9585	61343.65	3.2630	3.2629	-0.1648	37.65	1.76	-0.750			
0.9590	61374.89	3.2600	3.2603	-0.1639	37.65	1.76	-0.750			
0.9595	61406.40	3.2570	3.2570	-0.1629	37.65	1.76	-0.750			
0.9600	61437.80	3.2540	3.2540	-0.1604	37.66	1.77	-0.750			
0.9604	61468.55	3.2510	3.2508	-0.1582	37.66	1.77	-0.750			
0.9609	61498.45	3.2480	3.2484	-0.1553	37.67	1.78	-0.750	0.360	0.509	
0.9614	61528.31	3.2450	3.2452	-0.1540	37.67	1.78	-0.750			
0.9618	61557.62	3.2420	3.2418	-0.1513	37.67	1.78	-0.750			
0.9623	61586.38	3.2390	3.2390	-0.1496	37.68	1.79	-0.750			
0.9627	61614.32	3.2360	3.2360	-0.1476	37.68	1.79	-0.750			
0.9632	61642.52	3.2330	3.2331	-0.1462	37.69	1.80	-0.750			
0.9636	61670.50	3.2300	3.2300	-0.1453	37.69	1.80	-0.750			
0.9640	61698.70	3.2270	3.2270	-0.1436	37.70	1.81	-0.750			
0.9645	61725.99	3.2240	3.2241	-0.1426	37.70	1.81	-0.750			
0.9649	61753.21	3.2210	3.2210	-0.1410	37.70	1.81	-0.750			
0.9653	61780.16	3.2180	3.2179	-0.1397	37.71	1.82	-0.750			
0.9657	61806.71	3.2150	3.2150	-0.1387	37.71	1.82	-0.750			
0.9661	61833.26	3.2120	3.2121	-0.1371	37.71	1.82	-0.750			
0.9666	61859.67	3.2090	3.2090	-0.1360	37.72	1.83	-0.750			
0.9670	61885.62	3.2060	3.2060	-0.1344	37.72	1.83	-0.750			
0.9674	61911.44	3.2030	3.2030	-0.1330	37.73	1.84	-0.750			
0.9678	61936.58	3.2000	3.2000	-0.1310	37.73	1.84	-0.750			
0.9682	61961.67	3.1970	3.1970	-0.1297	37.73	1.84	-0.750			
0.9685	61986.25	3.1940	3.1940	-0.1288	37.74	1.85	-0.750			
0.9689	62010.57	3.1910	3.1911	-0.1276	37.74	1.85	-0.750			
0.9693	62035.16	3.1880	3.1879	-0.1264	37.74	1.85	-0.750			
0.9697	62059.34	3.1850	3.1850	-0.1254	37.75	1.86	-0.750			
0.9701	62083.37	3.1820	3.1821	-0.1240	37.75	1.86	-0.750			
0.9704	62107.14	3.1790	3.1790	-0.1229	37.75	1.86	-0.750			
0.9708	62130.60	3.1760	3.1761	-0.1215	37.76	1.87	-0.750			
0.9712	62153.75	3.1730	3.1730	-0.1204	37.76	1.87	-0.750			
0.9715	62176.48	3.1700	3.1700	-0.1187	37.76	1.87	-0.750			
0.9719	62199.32	3.1670	3.1670	-0.1175	37.76	1.87	-0.750			
0.9722	62221.87	3.1640	3.1640	-0.1166	37.77	1.88	-0.750			
0.9726	62244.10	3.1610	3.1609	-0.1154	37.77	1.88	-0.750			
0.9729	62266.19	3.1580	3.1580	-0.1143	37.77	1.88	-0.750			
0.9733	62288.05	3.1550	3.1550	-0.1130	37.77	1.88	-0.750			
0.9736	62309.64	3.1520	3.1520	-0.1117	37.78	1.89	-0.750			
0.9739	62330.88	3.1490	3.1490	-0.1107	37.78	1.89	-0.750			
0.9742	62351.91	3.1460	3.1460	-0.1094	37.78	1.89	-0.750			
0.9746	62372.87	3.1430	3.1430	-0.1083	37.79	1.90	-0.750			
0.9749	62393.62	3.1400	3.1400	-0.1074	37.79	1.90	-0.750			
0.9752	62414.13	3.1370	3.1369	-0.1062	37.79	1.90	-0.750			
0.9755	62434.36	3.1340	3.1341	-0.1050	37.80	1.91	-0.750			
0.9758	62454.35	3.1310	3.1311	-0.1043	37.80	1.91	-0.750			
0.9762	62474.30	3.1280	3.1280	-0.1034	37.80	1.91	-0.750			
0.9765	62494.14	3.1250	3.1249	-0.1023	37.80	1.91	-0.750			
0.9768	62513.61	3.1220	3.1219	-0.1011	37.81	1.92	-0.750			
0.9771	62532.90	3.1190	3.1190	-0.1003	37.81	1.92	-0.750			
0.9774	62552.11	3.1160	3.1161	-0.0995	37.81	1.92	-0.750			
0.9777	62571.18	3.1130	3.1130	-0.0984	37.82	1.93	-0.750			
0.9780	62590.03	3.1100	3.1099	-0.0974	37.82	1.93	-0.750			
0.9783	62608.57	3.1070	3.1070	-0.0965	37.82	1.93	-0.750			
0.9785	62626.88	3.1040	3.1040	-0.0953	37.82	1.93	-0.750			
0.9788	62645.14	3.1010	3.1010	-0.0944	37.83	1.94	-0.750			
0.9791	62663.29	3.0980	3.0980	-0.0937	37.83	1.94	-0.750			
0.9794	62680.90	3.0950	3.0950	-0.0936	37.83	1.94	-0.750			
0.9797	62698.51	3.0920	3.0921	-0.0928	37.83	1.94	-0.750			
0.9799	62716.55	3.0890	3.0890	-0.0923	37.84	1.95	-0.750			
0.9802	62734.29	3.0860	3.0857	-0.0920	37.84	1.95	-0.750			
0.9805	62752.26	3.0830	3.0829	-0.0906	37.84	1.95	-0.750			
0.9808	62769.85	3.0800	3.0800	-0.0899	37.84	1.95	-0.750	0.359	0.539	
0.9810	62786.96	3.0770	3.0773	-0.0883	37.85	1.96	-0.750			
0.9813	62804.01	3.0740	3.0740	-0.0875	37.85	1.96	-0.750			
0.9816	62820.62	3.0710	3.0710	-0.0855	37.85	1.96	-0.750			
0.9818	62836.26	3.0680	3.0680	-0.0841	37.85	1.96	-0.750			
0.9821	62852.32	3.0650	3.0649	-0.0833	37.86	1.97	-0.750			
0.9823	62867.93	3.0620	3.0621	-0.0823	37.86	1.97	-0.750			
0.9826	62883.80	3.0590	3.0589	-0.0817	37.86	1.97	-0.750			
0.9828	62899.60	3.0560	3.0560	-0.0815	37.86	1.97	-0.750			
0.9830	62915.15	3.0530	3.0531	-0.0808	37.87	1.98	-0.750			
0.9833	62930.61	3.0500	3.0500	-0.0801	37.87	1.98	-0.750			
0.9835	62945.95	3.0470	3.0469	-0.0795	37.87	1.98	-0.750			
0.9838	62961.14	3.0440	3.0440	-0.0788	37.87	1.98	-0.750			
0.9840	62976.17	3.0410	3.0410	-0.0781	37.87	1.98	-0.750			
0.9842	62991.11	3.0380	3.0380	-0.0775	37.87	1.98	-0.750			
0.9845	63006.04	3.0350	3.0350	-0.0762	37.88	1.99	-0.750			
0.9847	63020.76	3.0320	3.0320	-0.0754	37.88	1.99	-0.750			
0.9849	63034.89	3.0290	3.0290	-0.0749	37.88	1.99	-0.750			
0.9851	63049.20	3.0260	3.0261	-0.0742	37.88	1.99	-0.750			
0.9854	63063.21	3.0230	3.0228	-0.0734	37.88	1.99	-0.750			
0.9856	63077.31	3.0200	3.0199	-0.0727	37.88	1.99	-0.750			
0.9858	63091.07	3.0170	3.0170	-0.0719	37.88	1.99	-0.750			
0.9860	63104.84	3.0140	3.0141	-0.0715	37.88	1.99	-0.750			
0.9862	63118.52	3.0110	3.0112	-0.0710	37.89	2.00	-0.750			
0.9864	63132.44	3.0080	3.0079	-0.0694	37.89	2.00	-0.751			
0.9867	63145.62	3.0050	3.0050	-0.0679	37.89	2.00	-0.751			
