Ah_balance (normalized)	Ah_balance (mAh)	Voltage - fit (V)	Voltage -  interpolate (V)	dQ/dV (1/V)	Temperature (°C)	Temperature - diff (°C)	Current (C)	R_DC 0ms (mOhm)	R_DC 50ms (mOhm)	R_DC 50 ms PEC (mOhm)
0.0002	11.03	4.1660	4.1657	-0.1070	25.66	0.00	-0.750			
0.0006	39.37	4.1630	4.1627	-0.1709	25.66	0.00	-0.750			
0.0012	75.41	4.1600	4.1598	-0.2101	25.66	0.00	-0.750			
0.0019	118.94	4.1570	4.1571	-0.2529	25.66	0.00	-0.750			
0.0027	171.31	4.1540	4.1541	-0.2985	25.66	0.00	-0.750			
0.0036	232.97	4.1510	4.1509	-0.3441	25.66	0.00	-0.750			
0.0047	303.72	4.1480	4.1480	-0.3845	25.66	0.00	-0.750			
0.0060	381.97	4.1450	4.1450	-0.4262	25.66	0.00	-0.750			
0.0073	469.46	4.1420	4.1422	-0.4628	25.66	0.00	-0.750			
0.0088	562.13	4.1390	4.1390	-0.4989	25.66	0.00	-0.750			
0.0103	660.63	4.1360	4.1360	-0.5290	25.66	0.00	-0.750			
0.0119	764.60	4.1330	4.1330	-0.5629	25.66	0.00	-0.750			
0.0137	875.31	4.1300	4.1300	-0.6027	25.66	0.00	-0.750			
0.0156	997.10	4.1270	4.1266	-0.6311	25.66	0.00	-0.750			
0.0175	1123.07	4.1240	4.1240	-0.6574	25.66	0.00	-0.750			
0.0196	1254.28	4.1210	4.1214	-0.6730	25.66	0.00	-0.750			
0.0217	1387.21	4.1180	4.1180	-0.6885	25.66	0.00	-0.750			
0.0238	1520.87	4.1150	4.1149	-0.7017	25.66	0.00	-0.750			
0.0258	1652.31	4.1120	4.1120	-0.7076	25.66	0.00	-0.750			
0.0280	1790.66	4.1090	4.1089	-0.7197	25.66	0.00	-0.750			
0.0302	1930.06	4.1060	4.1061	-0.7290	25.66	0.00	-0.750			
0.0324	2071.37	4.1030	4.1030	-0.7392	25.66	0.00	-0.750			
0.0346	2214.68	4.1000	4.1000	-0.7467	25.66	0.00	-0.750			
0.0369	2359.06	4.0970	4.0970	-0.7497	25.66	0.00	-0.750			
0.0391	2503.23	4.0940	4.0939	-0.7540	25.67	0.01	-0.750			
0.0414	2648.35	4.0910	4.0911	-0.7592	25.67	0.01	-0.750			
0.0437	2795.79	4.0880	4.0880	-0.7629	25.67	0.01	-0.750			
0.0460	2941.94	4.0850	4.0849	-0.7669	25.67	0.01	-0.750			
0.0483	3088.46	4.0820	4.0819	-0.7738	25.68	0.02	-0.750			
0.0506	3237.16	4.0790	4.0792	-0.7793	25.68	0.02	-0.750			
0.0529	3388.58	4.0760	4.0759	-0.7830	25.68	0.02	-0.750			
0.0553	3540.94	4.0730	4.0729	-0.7858	25.69	0.03	-0.750			
0.0577	3692.09	4.0700	4.0701	-0.7873	25.69	0.03	-0.750			
0.0600	3842.89	4.0670	4.0671	-0.7909	25.69	0.03	-0.750			
0.0624	3992.89	4.0640	4.0639	-0.8004	25.69	0.03	-0.750			
0.0648	4149.54	4.0610	4.0609	-0.7929	25.70	0.04	-0.750			
0.0672	4303.83	4.0580	4.0579	-0.7905	25.70	0.04	-0.750			
0.0696	4456.27	4.0550	4.0553	-0.7957	25.70	0.04	-0.750			
0.0720	4607.84	4.0520	4.0520	-0.7894	25.70	0.04	-0.750			
0.0743	4756.35	4.0490	4.0488	-0.7831	25.71	0.05	-0.750			
0.0766	4904.78	4.0460	4.0460	-0.7823	25.71	0.05	-0.750			
0.0790	5054.53	4.0430	4.0432	-0.7906	25.72	0.06	-0.750			
0.0814	5208.30	4.0400	4.0400	-0.8040	25.72	0.06	-0.750			
0.0838	5362.51	4.0370	4.0369	-0.8145	25.72	0.06	-0.750			
0.0862	5519.62	4.0340	4.0339	-0.8227	25.73	0.07	-0.750			
0.0888	5680.88	4.0310	4.0310	-0.8311	25.74	0.08	-0.750			
0.0913	5842.99	4.0280	4.0280	-0.8316	25.74	0.08	-0.750			
0.0938	6005.23	4.0250	4.0251	-0.8328	25.75	0.09	-0.750			
0.0963	6163.75	4.0220	4.0220	-0.8301	25.75	0.09	-0.750			
0.0987	6319.67	4.0190	4.0190	-0.8278	25.76	0.10	-0.750			
0.1012	6478.44	4.0160	4.0159	-0.8276	25.77	0.11	-0.750			
0.1037	6638.10	4.0130	4.0130	-0.8267	25.77	0.11	-0.750			
0.1062	6799.23	4.0100	4.0100	-0.8313	25.78	0.12	-0.750			
0.1087	6958.72	4.0070	4.0071	-0.8255	25.78	0.12	-0.750			
0.1112	7116.50	4.0040	4.0040	-0.8233	25.79	0.13	-0.750			
0.1136	7272.92	4.0010	4.0010	-0.8254	25.79	0.13	-0.750			
0.1161	7429.79	3.9980	3.9979	-0.8260	25.79	0.13	-0.750			
0.1186	7590.79	3.9950	3.9949	-0.8326	25.80	0.14	-0.750			
0.1211	7751.24	3.9920	3.9922	-0.8336	25.80	0.14	-0.750			
0.1236	7912.26	3.9890	3.9890	-0.8405	25.81	0.15	-0.750			
0.1262	8075.70	3.9860	3.9860	-0.8398	25.82	0.16	-0.750			
0.1287	8233.77	3.9830	3.9829	-0.8408	25.82	0.16	-0.750			
0.1312	8395.39	3.9800	3.9800	-0.8447	25.83	0.17	-0.750			
0.1337	8557.25	3.9770	3.9769	-0.8548	25.83	0.17	-0.750			
0.1363	8722.36	3.9740	3.9739	-0.8608	25.84	0.18	-0.750			
0.1389	8889.17	3.9710	3.9711	-0.8633	25.85	0.19	-0.750			
0.1415	9055.09	3.9680	3.9680	-0.8647	25.85	0.19	-0.750			
0.1442	9225.98	3.9650	3.9652	-0.8709	25.86	0.20	-0.750			
0.1468	9392.69	3.9620	3.9619	-0.8592	25.86	0.20	-0.750			
0.1493	9556.19	3.9590	3.9590	-0.8644	25.87	0.21	-0.750			
0.1519	9721.94	3.9560	3.9560	-0.8593	25.87	0.21	-0.750			
0.1545	9886.04	3.9530	3.9529	-0.8577	25.88	0.22	-0.750			
0.1570	10050.90	3.9500	3.9504	-0.8662	25.88	0.22	-0.750			
0.1596	10215.73	3.9470	3.9471	-0.8731	25.89	0.23	-0.750			
0.1623	10385.21	3.9440	3.9438	-0.8754	25.89	0.23	-0.750			
0.1649	10554.50	3.9410	3.9409	-0.8785	25.90	0.24	-0.750			
0.1676	10724.75	3.9380	3.9381	-0.8779	25.91	0.25	-0.750			
0.1702	10894.07	3.9350	3.9351	-0.8730	25.91	0.25	-0.750			
0.1728	11060.04	3.9320	3.9320	-0.8746	25.92	0.26	-0.750			
0.1754	11225.66	3.9290	3.9290	-0.8736	25.92	0.26	-0.750			
0.1780	11390.01	3.9260	3.9259	-0.8768	25.92	0.26	-0.750			
0.1807	11561.86	3.9230	3.9230	-0.8828	25.93	0.27	-0.750			
0.1833	11732.86	3.9200	3.9199	-0.8846	25.93	0.27	-0.750			
0.1860	11904.49	3.9170	3.9171	-0.8934	25.94	0.28	-0.750			
0.1887	12076.41	3.9140	3.9139	-0.8923	25.95	0.29	-0.750			
0.1913	12244.23	3.9110	3.9110	-0.8951	25.95	0.29	-0.750			
0.1940	12417.69	3.9080	3.9080	-0.9069	25.96	0.30	-0.750			
0.1967	12590.64	3.9050	3.9050	-0.9154	25.96	0.30	-0.750			
0.1995	12770.65	3.9020	3.9020	-0.9215	25.97	0.31	-0.750			
0.2024	12950.41	3.8990	3.8989	-0.9216	25.97	0.31	-0.750			
0.2051	13125.85	3.8960	3.8960	-0.9230	25.98	0.32	-0.750			
0.2079	13305.14	3.8930	3.8931	-0.9224	25.98	0.32	-0.750			
0.2106	13479.79	3.8900	3.8899	-0.9214	25.99	0.33	-0.750			
0.2134	13656.49	3.8870	3.8870	-0.9186	25.99	0.33	-0.750			
0.2162	13833.60	3.8840	3.8841	-0.9101	25.99	0.33	-0.750			
0.2189	14008.87	3.8810	3.8811	-0.9135	26.00	0.34	-0.750			
0.2216	14185.15	3.8780	3.8781	-0.9085	26.00	0.34	-0.750			
0.2243	14356.51	3.8750	3.8749	-0.8994	26.01	0.35	-0.750			
0.2270	14526.97	3.8720	3.8720	-0.9043	26.01	0.35	-0.750			
0.2297	14698.51	3.8690	3.8691	-0.9111	26.02	0.36	-0.750			
0.2324	14876.14	3.8660	3.8660	-0.9209	26.02	0.36	-0.750			
0.2352	15055.86	3.8630	3.8629	-0.9289	26.03	0.37	-0.750			
0.2380	15234.57	3.8600	3.8601	-0.9310	26.04	0.38	-0.750			
0.2409	15415.24	3.8570	3.8570	-0.9415	26.05	0.39	-0.750			
0.2437	15596.01	3.8540	3.8540	-0.9452	26.06	0.40	-0.750			
0.2465	15776.93	3.8510	3.8508	-0.9441	26.06	0.40	-0.750			
0.2493	15957.97	3.8480	3.8480	-0.9439	26.06	0.40	-0.750			
0.2522	16139.99	3.8450	3.8450	-0.9490	26.07	0.41	-0.750			
0.2551	16323.68	3.8420	3.8419	-0.9418	26.07	0.41	-0.750			
0.2579	16505.22	3.8390	3.8391	-0.9415	26.07	0.41	-0.750			
0.2607	16682.77	3.8360	3.8360	-0.9444	26.08	0.42	-0.750			
0.2635	16863.52	3.8330	3.8330	-0.9480	26.08	0.42	-0.750			
0.2664	17047.01	3.8300	3.8299	-0.9421	26.08	0.42	-0.750			
0.2692	17229.05	3.8270	3.8271	-0.9463	26.09	0.43	-0.750			
0.2721	17411.24	3.8240	3.8241	-0.9515	26.10	0.44	-0.750			
0.2750	17597.50	3.8210	3.8208	-0.9495	26.10	0.44	-0.750			
0.2778	17776.86	3.8180	3.8180	-0.9438	26.11	0.45	-0.750			
0.2805	17954.52	3.8150	3.8150	-0.9508	26.12	0.46	-0.750			
0.2834	18137.15	3.8120	3.8120	-0.9657	26.12	0.46	-0.750			
0.2863	18325.81	3.8090	3.8088	-0.9780	26.12	0.46	-0.750			
0.2893	18516.29	3.8060	3.8060	-0.9711	26.13	0.47	-0.750			
0.2923	18704.29	3.8030	3.8030	-0.9684	26.13	0.47	-0.750			
0.2952	18892.69	3.8000	3.8001	-0.9617	26.13	0.47	-0.750			
0.2980	19074.72	3.7970	3.7969	-0.9514	26.14	0.48	-0.750			
0.3008	19253.33	3.7940	3.7940	-0.9440	26.15	0.49	-0.750			
0.3036	19430.17	3.7910	3.7910	-0.9454	26.15	0.49	-0.750			
0.3065	19614.31	3.7880	3.7881	-0.9585	26.16	0.50	-0.750			
0.3094	19799.03	3.7850	3.7849	-0.9735	26.16	0.50	-0.750			
0.3123	19988.42	3.7820	3.7819	-0.9780	26.17	0.51	-0.750			
0.3153	20179.03	3.7790	3.7790	-0.9815	26.17	0.51	-0.750			
0.3182	20366.69	3.7760	3.7760	-0.9864	26.18	0.52	-0.750			
0.3212	20558.73	3.7730	3.7730	-0.9878	26.18	0.52	-0.750			
0.3242	20747.27	3.7700	3.7699	-0.9911	26.18	0.52	-0.750			
0.3271	20936.82	3.7670	3.7669	-0.9890	26.19	0.53	-0.750			
0.3301	21124.46	3.7640	3.7641	-0.9938	26.19	0.53	-0.750			
0.3331	21318.17	3.7610	3.7610	-1.0137	26.19	0.53	-0.750			
0.3362	21514.41	3.7580	3.7580	-1.0102	26.20	0.54	-0.750			
0.3392	21710.54	3.7550	3.7549	-1.0081	26.20	0.54	-0.750			
0.3423	21904.52	3.7520	3.7520	-1.0087	26.21	0.55	-0.750			
0.3453	22096.93	3.7490	3.7492	-1.0152	26.21	0.55	-0.750			
0.3483	22291.04	3.7460	3.7459	-1.0242	26.21	0.55	-0.750			
0.3514	22486.89	3.7430	3.7429	-1.0234	26.21	0.55	-0.750			
0.3544	22683.21	3.7400	3.7399	-1.0324	26.21	0.55	-0.750			
0.3576	22884.59	3.7370	3.7372	-1.0492	26.21	0.55	-0.750			
0.3608	23088.64	3.7340	3.7338	-1.0559	26.22	0.56	-0.750			
0.3639	23290.60	3.7310	3.7310	-1.0548	26.22	0.56	-0.750			
0.3670	23490.90	3.7280	3.7279	-1.0540	26.23	0.57	-0.750			
0.3703	23697.67	3.7250	3.7252	-1.0691	26.23	0.57	-0.750			
0.3735	23903.69	3.7220	3.7219	-1.0668	26.23	0.57	-0.750			
0.3767	24107.03	3.7190	3.7190	-1.0648	26.24	0.58	-0.750			
0.3799	24310.44	3.7160	3.7160	-1.0701	26.24	0.58	-0.750			
0.3830	24513.07	3.7130	3.7131	-1.0873	26.24	0.58	-0.750			
0.3863	24721.94	3.7100	3.7100	-1.1006	26.24	0.58	-0.750			
0.3896	24934.77	3.7070	3.7069	-1.1179	26.23	0.57	-0.750			
0.3930	25154.48	3.7040	3.7039	-1.1304	26.23	0.57	-0.750			
0.3965	25373.33	3.7010	3.7011	-1.1521	26.23	0.57	-0.750			
0.3999	25593.00	3.6980	3.6980	-1.1731	26.23	0.57	-0.750			
0.4034	25819.65	3.6950	3.6949	-1.1910	26.24	0.58	-0.750			
0.4070	26046.67	3.6920	3.6921	-1.2037	26.24	0.58	-0.750			
0.4107	26283.73	3.6890	3.6890	-1.2165	26.24	0.58	-0.750			
0.4144	26521.59	3.6860	3.6862	-1.2360	26.23	0.57	-0.750			
0.4181	26758.69	3.6830	3.6831	-1.2606	26.23	0.57	-0.750			
0.4219	27000.02	3.6800	3.6798	-1.2699	26.23	0.57	-0.750			
0.4257	27243.76	3.6770	3.6770	-1.2942	26.23	0.57	-0.750			
0.4296	27493.74	3.6740	3.6740	-1.3306	26.22	0.56	-0.750			
0.4337	27754.45	3.6710	3.6710	-1.3636	26.22	0.56	-0.750			
0.4378	28017.45	3.6680	3.6679	-1.4151	26.22	0.56	-0.750			
0.4421	28292.31	3.6650	3.6650	-1.4352	26.21	0.55	-0.750			
0.4464	28572.63	3.6620	3.6620	-1.4631	26.21	0.55	-0.750			
0.4509	28859.59	3.6590	3.6590	-1.5038	26.20	0.54	-0.750			
0.4554	29145.69	3.6560	3.6558	-1.5516	26.19	0.53	-0.750			
0.4601	29447.97	3.6530	3.6529	-1.5819	26.19	0.53	-0.750			
0.4649	29751.63	3.6500	3.6500	-1.6385	26.18	0.52	-0.750			
0.4698	30064.88	3.6470	3.6472	-1.6962	26.17	0.51	-0.750			
0.4751	30405.93	3.6440	3.6437	-1.7460	26.16	0.50	-0.750			
0.4805	30753.19	3.6410	3.6407	-1.7881	26.15	0.49	-0.750			
0.4859	31096.95	3.6380	3.6383	-1.8166	26.14	0.48	-0.750	0.402	0.503	
0.4914	31447.55	3.6350	3.6351	-1.8500	26.13	0.47	-0.750			
0.4970	31808.31	3.6320	3.6319	-1.8921	26.12	0.46	-0.750			
0.5026	32168.34	3.6290	3.6289	-1.9361	26.11	0.45	-0.750			
0.5086	32547.35	3.6260	3.6261	-1.9985	26.11	0.45	-0.750			
0.5148	32944.52	3.6230	3.6229	-2.0513	26.09	0.43	-0.750			
0.5210	33342.24	3.6200	3.6202	-2.0827	26.07	0.41	-0.750			
0.5272	33743.29	3.6170	3.6170	-2.1294	26.06	0.40	-0.750			
0.5337	34155.88	3.6140	3.6139	-2.1653	26.05	0.39	-0.750			
0.5403	34576.90	3.6110	3.6110	-2.1918	26.04	0.38	-0.750			
0.5468	34997.69	3.6080	3.6079	-2.2123	26.02	0.36	-0.750			
0.5536	35432.64	3.6050	3.6052	-2.2633	26.01	0.35	-0.750			
0.5605	35873.12	3.6020	3.6021	-2.2939	25.99	0.33	-0.750			
0.5674	36312.29	3.5990	3.5989	-2.3274	25.98	0.32	-0.750			
0.5744	36762.19	3.5960	3.5961	-2.3179	25.98	0.32	-0.750			
0.5815	37215.48	3.5930	3.5929	-2.3572	25.97	0.31	-0.750			
0.5886	37670.18	3.5900	3.5902	-2.3816	25.96	0.30	-0.750			
0.5956	38119.60	3.5870	3.5869	-2.4353	25.95	0.29	-0.750			
0.6029	38585.85	3.5840	3.5839	-2.5045	25.94	0.28	-0.750			
0.6105	39072.20	3.5810	3.5810	-2.5605	25.93	0.27	-0.750			
0.6186	39589.74	3.5780	3.5781	-2.5928	25.92	0.26	-0.750			
0.6265	40092.82	3.5750	3.5750	-2.5784	25.91	0.25	-0.750			
0.6341	40584.63	3.5720	3.5721	-2.5593	25.91	0.25	-0.750			
0.6416	41061.75	3.5690	3.5690	-2.5405	25.90	0.24	-0.750			
0.6492	41548.83	3.5660	3.5660	-2.5543	25.90	0.24	-0.750			
0.6569	42044.52	3.5630	3.5629	-2.5437	25.89	0.23	-0.750			
0.6646	42537.16	3.5600	3.5601	-2.5387	25.88	0.22	-0.750			
0.6722	43020.78	3.5570	3.5570	-2.5265	25.88	0.22	-0.750			
0.6798	43504.63	3.5540	3.5540	-2.4925	25.89	0.23	-0.750			
0.6872	43978.51	3.5510	3.5507	-2.4803	25.89	0.23	-0.750			
0.6946	44453.15	3.5480	3.5482	-2.4634	25.89	0.23	-0.750			
0.7021	44932.64	3.5450	3.5448	-2.4580	25.89	0.23	-0.750			
0.7095	45405.70	3.5420	3.5420	-2.4176	25.89	0.23	-0.750			
0.7165	45855.99	3.5390	3.5390	-2.3557	25.89	0.23	-0.750			
0.7236	46312.62	3.5360	3.5361	-2.3437	25.89	0.23	-0.750			
0.7306	46761.43	3.5330	3.5330	-2.2788	25.90	0.24	-0.750			
0.7375	47199.93	3.5300	3.5299	-2.2141	25.90	0.24	-0.750			
0.7441	47623.39	3.5270	3.5271	-2.1487	25.91	0.25	-0.750			
0.7504	48027.81	3.5240	3.5242	-2.0819	25.92	0.26	-0.750			
0.7565	48416.57	3.5210	3.5211	-2.0168	25.94	0.28	-0.750			
0.7624	48792.45	3.5180	3.5181	-1.9482	25.95	0.29	-0.750			
0.7681	49160.98	3.5150	3.5150	-1.8801	25.96	0.30	-0.750			
0.7738	49526.34	3.5120	3.5119	-1.8326	25.97	0.31	-0.750			
0.7792	49868.78	3.5090	3.5091	-1.7596	25.98	0.32	-0.750			
0.7844	50199.35	3.5060	3.5058	-1.6814	26.00	0.34	-0.750			
0.7893	50515.21	3.5030	3.5029	-1.6050	26.01	0.35	-0.750			
0.7940	50817.02	3.5000	3.5002	-1.5366	26.03	0.37	-0.750			
0.7985	51105.47	3.4970	3.4970	-1.4745	26.05	0.39	-0.750			
0.8028	51377.22	3.4940	3.4940	-1.4219	26.06	0.40	-0.750			
0.8070	51646.06	3.4910	3.4909	-1.3843	26.08	0.42	-0.750			
0.8111	51907.54	3.4880	3.4879	-1.3432	26.09	0.43	-0.750			
0.8151	52163.71	3.4850	3.4850	-1.2896	26.11	0.45	-0.750			
0.8189	52408.63	3.4820	3.4822	-1.2472	26.12	0.46	-0.750			
0.8225	52642.66	3.4790	3.4790	-1.2046	26.13	0.47	-0.750			
0.8261	52868.00	3.4760	3.4757	-1.1535	26.15	0.49	-0.750			
0.8294	53082.20	3.4730	3.4729	-1.1066	26.16	0.50	-0.750			
0.8327	53289.68	3.4700	3.4702	-1.0633	26.17	0.51	-0.750			
0.8358	53493.35	3.4670	3.4669	-1.0338	26.19	0.53	-0.750			
0.8388	53686.34	3.4640	3.4640	-1.0016	26.20	0.54	-0.750			
0.8417	53869.65	3.4610	3.4610	-0.9656	26.22	0.56	-0.750			
0.8446	54052.32	3.4580	3.4581	-0.9495	26.23	0.57	-0.750			
0.8474	54232.21	3.4550	3.4550	-0.9375	26.24	0.58	-0.750			
0.8501	54407.64	3.4520	3.4520	-0.9346	26.25	0.59	-0.750			
0.8529	54585.30	3.4490	3.4489	-0.9434	26.26	0.60	-0.750			
0.8557	54762.32	3.4460	3.4460	-0.9611	26.27	0.61	-0.750			
0.8585	54947.09	3.4430	3.4431	-0.9920	26.28	0.62	-0.750			
0.8615	55135.88	3.4400	3.4400	-1.0426	26.29	0.63	-0.750			
0.8647	55339.85	3.4370	3.4369	-1.1026	26.30	0.64	-0.750			
0.8680	55553.90	3.4340	3.4340	-1.1674	26.31	0.65	-0.750			
0.8717	55791.56	3.4310	3.4309	-1.2089	26.33	0.67	-0.750			
0.8756	56039.23	3.4280	3.4280	-1.2392	26.33	0.67	-0.750			
0.8795	56286.17	3.4250	3.4249	-1.2361	26.34	0.68	-0.750			
0.8833	56530.61	3.4220	3.4220	-1.2194	26.35	0.69	-0.750			
0.8869	56762.28	3.4190	3.4190	-1.1739	26.37	0.71	-0.750			
0.8903	56982.25	3.4160	3.4160	-1.1280	26.38	0.72	-0.750			
0.8936	57190.66	3.4130	3.4130	-1.0735	26.39	0.73	-0.750			
0.8968	57395.57	3.4100	3.4099	-1.0430	26.40	0.74	-0.750			
0.8999	57593.12	3.4070	3.4070	-0.9954	26.40	0.74	-0.750			
0.9028	57777.42	3.4040	3.4040	-0.9444	26.41	0.75	-0.750			
0.9055	57954.92	3.4010	3.4011	-0.9032	26.42	0.76	-0.750			
0.9082	58125.05	3.3980	3.3979	-0.8601	26.42	0.76	-0.750			
0.9107	58282.86	3.3950	3.3949	-0.8247	26.43	0.77	-0.750			
0.9131	58435.42	3.3920	3.3920	-0.7902	26.44	0.78	-0.750			
0.9154	58583.93	3.3890	3.3890	-0.7628	26.45	0.79	-0.750			
0.9176	58729.27	3.3860	3.3859	-0.7403	26.45	0.79	-0.750			
0.9198	58869.27	3.3830	3.3831	-0.7105	26.46	0.80	-0.750			
0.9219	59003.76	3.3800	3.3800	-0.6790	26.47	0.81	-0.750			
0.9239	59131.96	3.3770	3.3770	-0.6484	26.48	0.82	-0.750			
0.9258	59251.90	3.3740	3.3740	-0.6141	26.49	0.83	-0.750			
0.9276	59365.70	3.3710	3.3711	-0.5867	26.49	0.83	-0.750			
0.9293	59474.90	3.3680	3.3679	-0.5590	26.50	0.84	-0.750			
0.9309	59578.18	3.3650	3.3650	-0.5325	26.51	0.85	-0.750			
0.9325	59678.26	3.3620	3.3621	-0.5125	26.51	0.85	-0.750			
0.9340	59774.79	3.3590	3.3590	-0.4925	26.52	0.86	-0.750			
0.9354	59867.04	3.3560	3.3559	-0.4729	26.53	0.87	-0.750			
0.9368	59955.84	3.3530	3.3530	-0.4513	26.53	0.87	-0.750			
0.9381	60040.80	3.3500	3.3500	-0.4302	26.54	0.88	-0.750			
0.9394	60121.54	3.3470	3.3471	-0.4120	26.55	0.89	-0.750			
0.9406	60198.67	3.3440	3.3440	-0.3908	26.55	0.89	-0.750			
0.9417	60270.04	3.3410	3.3411	-0.3732	26.56	0.90	-0.750			
0.9428	60339.91	3.3380	3.3380	-0.3585	26.56	0.90	-0.750			
0.9439	60406.98	3.3350	3.3348	-0.3442	26.57	0.91	-0.750			
0.9449	60472.34	3.3320	3.3321	-0.3310	26.57	0.91	-0.750			
0.9459	60534.87	3.3290	3.3290	-0.3147	26.58	0.92	-0.750			
0.9468	60593.86	3.3260	3.3260	-0.3006	26.58	0.92	-0.750			
0.9477	60649.84	3.3230	3.3231	-0.2863	26.59	0.93	-0.750			
0.9485	60702.66	3.3200	3.3200	-0.2715	26.59	0.93	-0.750			
0.9493	60753.23	3.3170	3.3169	-0.2604	26.59	0.93	-0.750			
0.9500	60801.94	3.3140	3.3141	-0.2504	26.60	0.94	-0.750			
0.9508	60849.03	3.3110	3.3110	-0.2427	26.60	0.94	-0.750			
0.9515	60894.98	3.3080	3.3080	-0.2346	26.60	0.94	-0.750			
0.9522	60939.26	3.3050	3.3049	-0.2262	26.61	0.95	-0.750			
0.9528	60981.56	3.3020	3.3019	-0.2166	26.61	0.95	-0.750			
0.9535	61022.69	3.2990	3.2991	-0.2085	26.61	0.95	-0.750			
0.9541	61061.86	3.2960	3.2960	-0.1995	26.62	0.96	-0.750			
0.9547	61099.24	3.2930	3.2931	-0.1922	26.62	0.96	-0.750			
0.9552	61135.24	3.2900	3.2900	-0.1842	26.62	0.96	-0.750			
0.9558	61169.35	3.2870	3.2870	-0.1758	26.62	0.96	-0.750			
0.9563	61202.30	3.2840	3.2840	-0.1705	26.63	0.97	-0.750			
0.9568	61234.09	3.2810	3.2810	-0.1652	26.63	0.97	-0.750			
0.9573	61265.25	3.2780	3.2780	-0.1601	26.63	0.97	-0.750			
0.9577	61295.50	3.2750	3.2749	-0.1553	26.64	0.98	-0.750			
0.9582	61324.72	3.2720	3.2721	-0.1519	26.64	0.98	-0.750			
0.9586	61353.27	3.2690	3.2690	-0.1474	26.65	0.99	-0.750			
0.9591	61381.52	3.2660	3.2659	-0.1441	26.65	0.99	-0.750			
0.9595	61408.78	3.2630	3.2630	-0.1399	26.65	0.99	-0.750			
0.9599	61435.05	3.2600	3.2601	-0.1357	26.66	1.00	-0.750			
0.9603	61460.79	3.2570	3.2570	-0.1321	26.66	1.00	-0.750			
0.9607	61485.86	3.2540	3.2539	-0.1283	26.67	1.01	-0.750			
0.9611	61509.82	3.2510	3.2510	-0.1252	26.67	1.01	-0.750			
0.9615	61533.09	3.2480	3.2480	-0.1214	26.67	1.01	-0.750			
0.9618	61556.23	3.2450	3.2450	-0.1185	26.68	1.02	-0.750			
0.9622	61578.66	3.2420	3.2419	-0.1156	26.68	1.02	-0.750			
0.9625	61600.43	3.2390	3.2390	-0.1133	26.68	1.02	-0.750			
0.9628	61621.90	3.2360	3.2361	-0.1109	26.69	1.03	-0.750			
0.9632	61643.10	3.2330	3.2331	-0.1083	26.69	1.03	-0.750			
0.9635	61663.78	3.2300	3.2299	-0.1060	26.69	1.03	-0.750			
0.9638	61683.78	3.2270	3.2270	-0.1035	26.70	1.04	-0.750			
0.9641	61703.25	3.2240	3.2241	-0.1008	26.70	1.04	-0.750			
0.9644	61722.30	3.2210	3.2210	-0.0989	26.70	1.04	-0.750			
0.9647	61741.15	3.2180	3.2179	-0.0969	26.71	1.05	-0.750			
0.9650	61759.47	3.2150	3.2150	-0.0950	26.71	1.05	-0.750			
0.9653	61777.21	3.2120	3.2120	-0.0926	26.71	1.05	-0.750			
0.9655	61794.87	3.2090	3.2091	-0.0911	26.71	1.05	-0.750			
0.9658	61812.31	3.2060	3.2060	-0.0897	26.72	1.06	-0.750			
0.9661	61829.35	3.2030	3.2030	-0.0882	26.72	1.06	-0.750			
0.9663	61846.10	3.2000	3.2000	-0.0865	26.72	1.06	-0.750			
0.9666	61862.57	3.1970	3.1970	-0.0850	26.72	1.06	-0.750			
0.9669	61878.64	3.1940	3.1940	-0.0835	26.73	1.07	-0.750			
0.9671	61894.55	3.1910	3.1911	-0.0822	26.73	1.07	-0.750			
0.9673	61910.16	3.1880	3.1879	-0.0809	26.73	1.07	-0.750			
0.9676	61925.57	3.1850	3.1851	-0.0796	26.73	1.07	-0.750			
0.9678	61940.66	3.1820	3.1821	-0.0782	26.74	1.08	-0.750			
0.9681	61955.52	3.1790	3.1790	-0.0771	26.74	1.08	-0.750			
0.9683	61970.20	3.1760	3.1759	-0.0759	26.74	1.08	-0.750			
0.9685	61984.67	3.1730	3.1730	-0.0749	26.74	1.08	-0.750			
0.9687	61998.92	3.1700	3.1700	-0.0739	26.74	1.08	-0.750			
0.9690	62012.96	3.1670	3.1669	-0.0728	26.75	1.09	-0.750			
0.9692	62026.91	3.1640	3.1640	-0.0717	26.75	1.09	-0.750			
0.9694	62040.59	3.1610	3.1610	-0.0707	26.75	1.09	-0.750			
0.9696	62054.12	3.1580	3.1581	-0.0697	26.75	1.09	-0.750			
0.9698	62067.36	3.1550	3.1550	-0.0687	26.75	1.09	-0.750			
0.9700	62080.44	3.1520	3.1520	-0.0676	26.75	1.09	-0.750			
0.9702	62093.32	3.1490	3.1491	-0.0666	26.75	1.09	-0.750			
0.9704	62105.94	3.1460	3.1460	-0.0658	26.75	1.09	-0.750			
0.9706	62118.38	3.1430	3.1430	-0.0648	26.75	1.09	-0.750			
0.9708	62130.75	3.1400	3.1401	-0.0640	26.75	1.09	-0.750			
0.9710	62142.98	3.1370	3.1370	-0.0633	26.75	1.09	-0.750			
0.9712	62155.06	3.1340	3.1340	-0.0626	26.75	1.09	-0.750			
0.9714	62167.00	3.1310	3.1309	-0.0618	26.75	1.09	-0.750			
0.9715	62178.76	3.1280	3.1280	-0.0612	26.75	1.09	-0.750			
0.9717	62190.43	3.1250	3.1250	-0.0605	26.75	1.09	-0.750			
0.9719	62201.98	3.1220	3.1220	-0.0598	26.75	1.09	-0.750			
0.9721	62213.43	3.1190	3.1190	-0.0591	26.75	1.09	-0.750			
0.9723	62224.71	3.1160	3.1160	-0.0584	26.75	1.09	-0.750			
0.9724	62235.85	3.1130	3.1130	-0.0577	26.75	1.09	-0.750			
0.9726	62246.86	3.1100	3.1102	-0.0570	26.75	1.09	-0.750			
0.9728	62257.65	3.1070	3.1070	-0.0565	26.75	1.09	-0.750			
0.9729	62268.45	3.1040	3.1039	-0.0560	26.75	1.09	-0.750			
0.9731	62279.14	3.1010	3.1009	-0.0554	26.75	1.09	-0.750			
0.9733	62289.67	3.0980	3.0980	-0.0547	26.75	1.09	-0.750			
0.9734	62300.13	3.0950	3.0951	-0.0542	26.75	1.09	-0.750			
0.9736	62310.49	3.0920	3.0920	-0.0537	26.75	1.09	-0.750			
0.9738	62320.91	3.0890	3.0891	-0.0533	26.75	1.09	-0.750			
0.9739	62330.99	3.0860	3.0861	-0.0528	26.75	1.09	-0.750			
0.9741	62341.09	3.0830	3.0830	-0.0523	26.75	1.09	-0.750			
0.9742	62351.08	3.0800	3.0801	-0.0518	26.75	1.09	-0.750			
0.9744	62360.90	3.0770	3.0771	-0.0512	26.75	1.09	-0.750			
0.9745	62370.70	3.0740	3.0739	-0.0508	26.75	1.09	-0.750			
0.9747	62380.41	3.0710	3.0711	-0.0504	26.75	1.09	-0.750			
0.9748	62390.09	3.0680	3.0681	-0.0500	26.75	1.09	-0.750			
0.9750	62399.60	3.0650	3.0649	-0.0495	26.75	1.09	-0.750			
0.9751	62409.07	3.0620	3.0621	-0.0491	26.75	1.09	-0.750			
0.9753	62418.45	3.0590	3.0589	-0.0487	26.75	1.09	-0.750			
0.9754	62427.71	3.0560	3.0559	-0.0482	26.75	1.09	-0.750			
0.9756	62436.94	3.0530	3.0531	-0.0478	26.75	1.09	-0.750			
0.9757	62446.08	3.0500	3.0500	-0.0474	26.75	1.09	-0.750			
0.9759	62455.15	3.0470	3.0470	-0.0470	26.75	1.09	-0.750			
0.9760	62464.13	3.0440	3.0441	-0.0466	26.75	1.09	-0.750			
0.9761	62472.99	3.0410	3.0410	-0.0463	26.75	1.09	-0.750			
0.9763	62481.84	3.0380	3.0380	-0.0459	26.75	1.09	-0.750			
0.9764	62490.56	3.0350	3.0352	-0.0455	26.75	1.09	-0.750			
0.9766	62499.26	3.0320	3.0320	-0.0452	26.75	1.09	-0.750			
0.9767	62507.94	3.0290	3.0289	-0.0447	26.75	1.09	-0.750			
0.9768	62516.50	3.0260	3.0260	-0.0444	26.75	1.09	-0.750			
0.9770	62525.04	3.0230	3.0230	-0.0441	26.75	1.09	-0.750			
0.9771	62533.45	3.0200	3.0200	-0.0436	26.75	1.09	-0.750			
0.9772	62541.75	3.0170	3.0171	-0.0434	26.75	1.09	-0.750			
0.9773	62550.04	3.0140	3.0139	-0.0430	26.75	1.09	-0.750			
0.9775	62558.18	3.0110	3.0111	-0.0427	26.75	1.09	-0.750			
0.9776	62566.35	3.0080	3.0081	-0.0425	26.75	1.09	-0.750			
0.9777	62574.49	3.0050	3.0049	-0.0423	26.75	1.09	-0.750			
0.9779	62582.59	3.0020	3.0020	-0.0421	26.75	1.09	-0.750			
