Ah_balance (normalized)	Ah_balance (mAh)	Voltage - fit (V)	Voltage -  interpolate (V)	dQ/dV (1/V)	Temperature (°C)	Temperature - diff (°C)	Current (C)	R_DC 0ms (mOhm)	R_DC 50ms (mOhm)	R_DC 50 ms PEC (mOhm)
0.0966	6184.01	4.1980	4.2000	0.4893	8.29	2.30	0.750			
0.0985	6301.44	4.1950	4.1972	0.6783	8.29	2.30	0.750			
0.1009	6454.77	4.1920	4.1935	0.7610	8.29	2.30	0.750			
0.1032	6606.92	4.1890	4.1900	0.7803	8.28	2.29	0.750			
0.1056	6758.82	4.1860	4.1866	0.7517	8.28	2.29	0.750			
0.1081	6920.40	4.1830	4.1830	0.7634	8.27	2.28	0.750			
0.1103	7060.59	4.1800	4.1800	0.7040	8.27	2.28	0.750			
0.1124	7194.90	4.1770	4.1771	0.7070	8.27	2.28	0.750			
0.1145	7328.97	4.1740	4.1740	0.7072	8.26	2.27	0.750			
0.1166	7465.36	4.1710	4.1708	0.7089	8.26	2.27	0.750			
0.1188	7600.19	4.1680	4.1680	0.7103	8.25	2.26	0.750			
0.1209	7738.60	4.1650	4.1651	0.7119	8.25	2.26	0.750			
0.1231	7877.59	4.1620	4.1620	0.7172	8.24	2.25	0.750			
0.1252	8014.02	4.1590	4.1589	0.7151	8.23	2.24	0.750			
0.1274	8150.73	4.1560	4.1560	0.7170	8.23	2.24	0.750			
0.1295	8288.41	4.1530	4.1530	0.7199	8.22	2.23	0.750			
0.1317	8427.94	4.1500	4.1500	0.7221	8.22	2.23	0.750			
0.1339	8567.97	4.1470	4.1470	0.7223	8.21	2.22	0.750			
0.1360	8706.46	4.1440	4.1442	0.7272	8.21	2.22	0.750			
0.1382	8845.76	4.1410	4.1409	0.7239	8.21	2.22	0.750			
0.1404	8984.50	4.1380	4.1380	0.7272	8.20	2.21	0.750			
0.1425	9123.13	4.1350	4.1351	0.7293	8.20	2.21	0.750			
0.1447	9263.75	4.1320	4.1320	0.7324	8.19	2.20	0.750			
0.1470	9408.02	4.1290	4.1289	0.7300	8.19	2.20	0.750			
0.1492	9545.89	4.1260	4.1260	0.7409	8.18	2.19	0.750			
0.1514	9687.60	4.1230	4.1231	0.7447	8.18	2.19	0.750			
0.1536	9831.81	4.1200	4.1198	0.7516	8.17	2.18	0.750			
0.1559	9975.49	4.1170	4.1170	0.7586	8.17	2.18	0.750			
0.1582	10123.24	4.1140	4.1142	0.7620	8.16	2.17	0.750			
0.1605	10270.19	4.1110	4.1109	0.7701	8.16	2.17	0.750			
0.1628	10420.06	4.1080	4.1081	0.7672	8.16	2.17	0.750			
0.1652	10570.16	4.1050	4.1051	0.7684	8.15	2.16	0.750			
0.1675	10717.60	4.1020	4.1019	0.7692	8.15	2.16	0.750			
0.1698	10864.24	4.0990	4.0992	0.7686	8.14	2.15	0.750			
0.1720	11009.15	4.0960	4.0959	0.7619	8.13	2.14	0.750			
0.1743	11154.38	4.0930	4.0930	0.7696	8.13	2.14	0.750			
0.1766	11300.54	4.0900	4.0901	0.7730	8.12	2.13	0.750			
0.1789	11452.02	4.0870	4.0867	0.7808	8.11	2.12	0.750			
0.1813	11604.19	4.0840	4.0841	0.7932	8.11	2.12	0.750			
0.1837	11757.55	4.0810	4.0811	0.7936	8.10	2.11	0.750			
0.1861	11910.72	4.0780	4.0779	0.7997	8.09	2.10	0.750			
0.1885	12065.49	4.0750	4.0750	0.8051	8.09	2.10	0.750			
0.1909	12217.58	4.0720	4.0720	0.7989	8.08	2.09	0.750			
0.1933	12371.37	4.0690	4.0691	0.8026	8.08	2.09	0.750			
0.1958	12529.08	4.0660	4.0660	0.8011	8.07	2.08	0.750			
0.1981	12679.95	4.0630	4.0631	0.8008	8.06	2.07	0.750			
0.2005	12832.26	4.0600	4.0599	0.8114	8.06	2.07	0.750			
0.2029	12986.53	4.0570	4.0572	0.8159	8.05	2.06	0.750			
0.2054	13143.55	4.0540	4.0540	0.8297	8.05	2.06	0.750			
0.2079	13307.06	4.0510	4.0510	0.8406	8.04	2.05	0.750			
0.2105	13470.69	4.0480	4.0480	0.8420	8.03	2.04	0.750			
0.2130	13632.66	4.0450	4.0450	0.8433	8.02	2.03	0.750			
0.2156	13796.33	4.0420	4.0423	0.8392	8.01	2.02	0.750			
0.2181	13956.86	4.0390	4.0389	0.8331	8.01	2.02	0.750			
0.2206	14115.74	4.0360	4.0361	0.8332	8.00	2.01	0.750			
0.2230	14273.16	4.0330	4.0330	0.8401	7.99	2.00	0.750			
0.2255	14434.90	4.0300	4.0299	0.8499	7.98	1.99	0.750			
0.2281	14598.53	4.0270	4.0269	0.8507	7.97	1.98	0.750			
0.2307	14762.74	4.0240	4.0241	0.8552	7.97	1.98	0.750			
0.2333	14929.85	4.0210	4.0211	0.8685	7.96	1.97	0.750			
0.2359	15097.86	4.0180	4.0180	0.8696	7.95	1.96	0.750			
0.2385	15262.46	4.0150	4.0149	0.8727	7.95	1.96	0.750			
0.2411	15431.31	4.0120	4.0120	0.8723	7.94	1.95	0.750			
0.2437	15599.85	4.0090	4.0091	0.8784	7.93	1.94	0.750			
0.2464	15770.05	4.0060	4.0060	0.8782	7.93	1.94	0.750			
0.2490	15939.03	4.0030	4.0031	0.8791	7.92	1.93	0.750			
0.2516	16105.49	4.0000	4.0000	0.8812	7.91	1.92	0.750			
0.2543	16274.54	3.9970	3.9968	0.8876	7.90	1.91	0.750			
0.2570	16445.27	3.9940	3.9940	0.8839	7.89	1.90	0.750			
0.2596	16616.34	3.9910	3.9910	0.8937	7.88	1.89	0.750			
0.2623	16787.57	3.9880	3.9881	0.9009	7.87	1.88	0.750			
0.2650	16961.13	3.9850	3.9849	0.9090	7.87	1.88	0.750			
0.2677	17134.39	3.9820	3.9820	0.9183	7.86	1.87	0.750			
0.2705	17313.78	3.9790	3.9790	0.9137	7.85	1.86	0.750			
0.2733	17491.31	3.9760	3.9759	0.9146	7.84	1.85	0.750			
0.2760	17666.51	3.9730	3.9732	0.9208	7.83	1.84	0.750			
0.2787	17839.53	3.9700	3.9700	0.9256	7.82	1.83	0.750			
0.2815	18016.65	3.9670	3.9669	0.9295	7.81	1.82	0.750			
0.2843	18196.62	3.9640	3.9639	0.9448	7.81	1.82	0.750			
0.2872	18378.76	3.9610	3.9610	0.9579	7.80	1.81	0.750			
0.2901	18567.76	3.9580	3.9582	0.9762	7.79	1.80	0.750			
0.2931	18759.25	3.9550	3.9550	0.9712	7.78	1.79	0.750			
0.2960	18943.40	3.9520	3.9520	0.9701	7.77	1.78	0.750			
0.2989	19129.49	3.9490	3.9491	0.9782	7.76	1.77	0.750			
0.3018	19316.17	3.9460	3.9460	0.9843	7.75	1.76	0.750			
0.3048	19504.44	3.9430	3.9428	0.9875	7.74	1.75	0.750			
0.3077	19694.87	3.9400	3.9401	0.9894	7.73	1.74	0.750			
0.3107	19887.37	3.9370	3.9371	0.9999	7.72	1.73	0.750			
0.3138	20080.54	3.9340	3.9340	1.0117	7.72	1.73	0.750			
0.3168	20275.67	3.9310	3.9308	1.0070	7.71	1.72	0.750			
0.3197	20463.02	3.9280	3.9280	1.0126	7.70	1.71	0.750			
0.3228	20659.52	3.9250	3.9250	1.0244	7.68	1.69	0.750			
0.3259	20857.08	3.9220	3.9222	1.0384	7.67	1.68	0.750			
0.3290	21059.16	3.9190	3.9187	1.0487	7.65	1.66	0.750			
0.3322	21260.31	3.9160	3.9162	1.0633	7.64	1.65	0.750			
0.3354	21465.65	3.9130	3.9130	1.0837	7.63	1.64	0.750			
0.3387	21677.38	3.9100	3.9100	1.1033	7.62	1.63	0.750			
0.3420	21890.69	3.9070	3.9068	1.0949	7.61	1.62	0.750			
0.3454	22103.03	3.9040	3.9041	1.1147	7.60	1.61	0.750			
0.3487	22317.06	3.9010	3.9011	1.1229	7.59	1.60	0.750			
0.3521	22533.40	3.8980	3.8981	1.1317	7.59	1.60	0.750			
0.3555	22750.11	3.8950	3.8950	1.1302	7.58	1.59	0.750			
0.3589	22966.48	3.8920	3.8921	1.1452	7.56	1.57	0.750			
0.3623	23187.33	3.8890	3.8891	1.1663	7.55	1.56	0.750			
0.3659	23418.43	3.8860	3.8859	1.1659	7.53	1.54	0.750			
0.3693	23638.12	3.8830	3.8830	1.1779	7.52	1.53	0.750			
0.3729	23865.34	3.8800	3.8802	1.2036	7.50	1.51	0.750			
0.3766	24100.10	3.8770	3.8771	1.2205	7.48	1.49	0.750			
0.3802	24334.64	3.8740	3.8738	1.2460	7.47	1.48	0.750			
0.3840	24576.20	3.8710	3.8713	1.2690	7.45	1.46	0.750			
0.3879	24822.93	3.8680	3.8682	1.2985	7.44	1.45	0.750			
0.3919	25078.88	3.8650	3.8651	1.3245	7.43	1.44	0.750	0.386	0.863	
0.3958	25332.23	3.8620	3.8621	1.3378	7.41	1.42	0.750			
0.3998	25588.60	3.8590	3.8590	1.3648	7.40	1.41	0.750			
0.4040	25856.16	3.8560	3.8560	1.3765	7.38	1.39	0.750			
0.4082	26123.71	3.8530	3.8530	1.3874	7.36	1.37	0.750			
0.4124	26391.62	3.8500	3.8501	1.4064	7.35	1.36	0.750			
0.4166	26660.91	3.8470	3.8469	1.4342	7.33	1.34	0.750			
0.4209	26938.50	3.8440	3.8441	1.4547	7.31	1.32	0.750			
0.4253	27219.99	3.8410	3.8410	1.4899	7.29	1.30	0.750			
0.4298	27509.47	3.8380	3.8379	1.5185	7.27	1.28	0.750			
0.4345	27808.60	3.8350	3.8349	1.5327	7.25	1.26	0.750			
0.4391	28105.57	3.8320	3.8323	1.5388	7.23	1.24	0.750			
0.4437	28399.67	3.8290	3.8291	1.5699	7.21	1.22	0.750			
0.4484	28700.52	3.8260	3.8256	1.5959	7.19	1.20	0.750			
0.4533	29009.01	3.8230	3.8229	1.6289	7.17	1.18	0.750			
0.4582	29323.74	3.8200	3.8205	1.6816	7.15	1.16	0.750			
0.4634	29658.69	3.8170	3.8171	1.7027	7.13	1.14	0.750			
0.4686	29987.99	3.8140	3.8139	1.7233	7.10	1.11	0.750			
0.4738	30321.61	3.8110	3.8109	1.7342	7.08	1.09	0.750			
0.4790	30653.42	3.8080	3.8078	1.7714	7.06	1.07	0.750			
0.4843	30994.93	3.8050	3.8049	1.7949	7.04	1.05	0.750			
0.4896	31337.46	3.8020	3.8020	1.8272	7.01	1.02	0.750			
0.4952	31690.33	3.7990	3.7991	1.8719	6.99	1.00	0.750			
0.5010	32066.44	3.7960	3.7959	1.8946	6.96	0.97	0.750			
0.5067	32429.13	3.7930	3.7930	1.9173	6.94	0.95	0.750			
0.5125	32799.91	3.7900	3.7901	1.9111	6.90	0.91	0.750			
0.5182	33164.95	3.7870	3.7869	1.9294	6.87	0.88	0.750			
0.5240	33535.87	3.7840	3.7841	1.9746	6.85	0.86	0.750			
0.5299	33913.51	3.7810	3.7808	2.0108	6.83	0.84	0.750			
0.5360	34304.81	3.7780	3.7781	2.0891	6.80	0.81	0.750			
0.5423	34708.20	3.7750	3.7750	2.1336	6.77	0.78	0.750			
0.5490	35138.22	3.7720	3.7720	2.1239	6.74	0.75	0.750			
0.5553	35538.89	3.7690	3.7691	2.1178	6.72	0.73	0.750			
0.5616	35943.48	3.7660	3.7661	2.1815	6.68	0.69	0.750			
0.5680	36354.46	3.7630	3.7628	2.2401	6.65	0.66	0.750			
0.5748	36787.03	3.7600	3.7601	2.3264	6.63	0.64	0.750			
0.5821	37256.85	3.7570	3.7570	2.4703	6.60	0.61	0.750			
0.5896	37734.85	3.7540	3.7539	2.5639	6.57	0.58	0.750			
0.5974	38234.77	3.7510	3.7511	2.5903	6.53	0.54	0.750			
0.6053	38740.53	3.7480	3.7482	2.7483	6.50	0.51	0.750			
0.6136	39271.58	3.7450	3.7449	2.9386	6.47	0.48	0.750			
0.6227	39851.38	3.7420	3.7423	3.0529	6.43	0.44	0.750			
0.6325	40476.97	3.7390	3.7392	3.1245	6.39	0.40	0.750			
0.6415	41056.51	3.7360	3.7363	3.0735	6.35	0.36	0.750			
0.6511	41667.60	3.7330	3.7328	2.9979	6.32	0.33	0.750			
0.6601	42246.73	3.7300	3.7301	2.8109	6.29	0.30	0.750			
0.6685	42781.76	3.7270	3.7268	2.5913	6.25	0.26	0.750			
0.6755	43231.40	3.7240	3.7241	2.2258	6.23	0.24	0.750			
0.6815	43614.16	3.7210	3.7212	1.9433	6.21	0.22	0.750			
0.6870	43966.59	3.7180	3.7179	1.7277	6.20	0.21	0.750			
0.6916	44261.42	3.7150	3.7147	1.5083	6.18	0.19	0.750			
0.6957	44527.76	3.7120	3.7121	1.3890	6.17	0.18	0.750			
0.6996	44773.14	3.7090	3.7090	1.2762	6.16	0.17	0.750			
0.7032	45007.94	3.7060	3.7058	1.1982	6.15	0.16	0.750			
0.7067	45228.18	3.7030	3.7033	1.1586	6.14	0.15	0.750			
0.7100	45437.85	3.7000	3.6998	1.1130	6.13	0.14	0.750			
0.7132	45647.87	3.6970	3.6969	1.0933	6.12	0.13	0.750			
0.7165	45853.72	3.6940	3.6940	1.0710	6.11	0.12	0.750			
0.7197	46059.39	3.6910	3.6910	1.0537	6.10	0.11	0.750			
0.7228	46262.40	3.6880	3.6880	1.0381	6.09	0.10	0.750			
0.7259	46457.94	3.6850	3.6851	1.0165	6.08	0.09	0.750			
0.7289	46649.23	3.6820	3.6819	0.9927	6.07	0.08	0.750			
0.7319	46839.45	3.6790	3.6791	0.9695	6.06	0.07	0.750			
0.7347	47022.79	3.6760	3.6759	0.9528	6.06	0.07	0.750			
0.7376	47203.97	3.6730	3.6731	0.9383	6.05	0.06	0.750			
0.7403	47380.02	3.6700	3.6701	0.9213	6.04	0.05	0.750			
0.7430	47554.28	3.6670	3.6670	0.9130	6.04	0.05	0.750			
0.7458	47728.01	3.6640	3.6640	0.9050	6.03	0.04	0.750			
0.7485	47903.08	3.6610	3.6609	0.9019	6.02	0.03	0.750			
0.7512	48077.48	3.6580	3.6580	0.8994	6.02	0.03	0.750			
0.7539	48247.25	3.6550	3.6549	0.8920	6.01	0.02	0.750			
0.7565	48417.71	3.6520	3.6521	0.8930	6.01	0.02	0.750			
0.7592	48588.73	3.6490	3.6489	0.8959	6.00	0.01	0.750			
0.7619	48760.10	3.6460	3.6460	0.8954	6.00	0.01	0.750			
0.7647	48938.67	3.6430	3.6430	0.8765	5.99	0.00	0.750			
0.7674	49112.63	3.6400	3.6399	0.8503	5.99	0.00	0.750			
0.7700	49278.03	3.6370	3.6371	0.7838	5.99	0.00	0.750			
0.7723	49429.60	3.6340	3.6342	0.7073	5.99	0.00	0.750			
0.7744	49558.49	3.6310	3.6309	0.6050	5.99	0.00	0.750			
0.7760	49665.49	3.6280	3.6280	0.4948	5.99	0.00	0.750			
0.7771	49736.75	3.6250	3.6255	0.4134	5.99	0.00	0.750			
0.7782	49807.33	3.6220	3.6220	0.3368	5.99	0.00	0.750			
0.7790	49858.16	3.6190	3.6185	0.2520	5.99	0.00	0.750			
0.7796	49895.62	3.6160	3.6148	0.1885	5.99	0.00	0.750			
0.7800	49917.20	3.6130	3.6081	0.1284	5.99	0.00	0.750			
0.7800	49921.45	3.5950	3.5999	-0.1110	5.99	0.00	0.750			
0.7802	49934.27	3.6100	3.4527	0.0843	5.99	0.00	0.743			
0.7803	49939.01	3.5980	3.3924	-0.0719	5.99	0.00	0.740			
0.7804	49946.70	3.6070	3.2945	0.0452	5.99	0.00	0.734			
0.7805	49949.08	3.6010	3.2644	-0.0329	5.99	0.00	0.733			
0.7805	49951.64	3.6040	3.2318	0.0062	5.99	0.00	0.731			
