Ah_balance (normalized)	Ah_balance (mAh)	Voltage - fit (V)	Voltage -  interpolate (V)	dQ/dV (1/V)	Temperature (°C)	Temperature - diff (°C)	Current (C)	R_DC 0ms (mOhm)	R_DC 50ms (mOhm)	R_DC 50 ms PEC (mOhm)
0.0963	6165.42	4.1970	4.1995	0.6120	8.42	2.16	0.750			
0.0986	6310.81	4.1940	4.1960	0.7550	8.42	2.16	0.750			
0.1010	6466.87	4.1910	4.1928	0.7930	8.41	2.15	0.750			
0.1035	6621.93	4.1880	4.1893	0.7797	8.40	2.14	0.750			
0.1062	6797.26	4.1850	4.1853	0.7976	8.39	2.13	0.750			
0.1085	6944.51	4.1820	4.1818	0.7742	8.39	2.13	0.750			
0.1105	7069.51	4.1790	4.1790	0.7064	8.38	2.12	0.750			
0.1126	7205.80	4.1760	4.1760	0.7132	8.37	2.11	0.750			
0.1148	7345.93	4.1730	4.1730	0.7187	8.37	2.11	0.750			
0.1170	7487.45	4.1700	4.1700	0.7266	8.36	2.10	0.750			
0.1192	7628.17	4.1670	4.1673	0.7184	8.36	2.10	0.750			
0.1214	7766.43	4.1640	4.1639	0.7162	8.35	2.09	0.750			
0.1234	7899.22	4.1610	4.1611	0.7056	8.35	2.09	0.750			
0.1255	8034.11	4.1580	4.1579	0.7074	8.34	2.08	0.750			
0.1277	8169.73	4.1550	4.1550	0.7115	8.33	2.07	0.750			
0.1298	8305.94	4.1520	4.1520	0.7162	8.33	2.07	0.750			
0.1319	8443.18	4.1490	4.1491	0.7256	8.32	2.06	0.750			
0.1341	8582.76	4.1460	4.1461	0.7365	8.31	2.05	0.750			
0.1364	8727.17	4.1430	4.1429	0.7446	8.31	2.05	0.750			
0.1386	8870.58	4.1400	4.1399	0.7502	8.30	2.04	0.750			
0.1409	9016.42	4.1370	4.1371	0.7567	8.29	2.03	0.750			
0.1432	9162.83	4.1340	4.1341	0.7601	8.28	2.02	0.750			
0.1455	9310.47	4.1310	4.1309	0.7584	8.28	2.02	0.750			
0.1478	9456.42	4.1280	4.1280	0.7521	8.27	2.01	0.750			
0.1500	9599.96	4.1250	4.1250	0.7462	8.26	2.00	0.750			
0.1522	9742.57	4.1220	4.1221	0.7479	8.26	2.00	0.750			
0.1544	9884.35	4.1190	4.1190	0.7498	8.25	1.99	0.750			
0.1567	10027.38	4.1160	4.1160	0.7548	8.24	1.98	0.750			
0.1589	10172.60	4.1130	4.1128	0.7575	8.23	1.97	0.750			
0.1613	10320.06	4.1100	4.1101	0.7604	8.23	1.97	0.750			
0.1636	10468.76	4.1070	4.1070	0.7646	8.22	1.96	0.750			
0.1659	10615.62	4.1040	4.1040	0.7582	8.21	1.95	0.750			
0.1681	10760.33	4.1010	4.1009	0.7479	8.21	1.95	0.750			
0.1703	10900.64	4.0980	4.0981	0.7560	8.20	1.94	0.750			
0.1726	11044.30	4.0950	4.0951	0.7661	8.20	1.94	0.750			
0.1749	11191.93	4.0920	4.0918	0.7762	8.19	1.93	0.750			
0.1772	11342.27	4.0890	4.0891	0.7865	8.19	1.93	0.750			
0.1796	11496.14	4.0860	4.0861	0.7893	8.18	1.92	0.750			
0.1820	11649.90	4.0830	4.0829	0.7919	8.17	1.91	0.750			
0.1844	11802.54	4.0800	4.0801	0.7948	8.16	1.90	0.750			
0.1867	11951.15	4.0770	4.0768	0.7993	8.16	1.90	0.750			
0.1891	12103.65	4.0740	4.0740	0.8067	8.15	1.89	0.750			
0.1916	12262.70	4.0710	4.0709	0.8089	8.14	1.88	0.750			
0.1941	12420.00	4.0680	4.0680	0.8130	8.13	1.87	0.750			
0.1965	12577.50	4.0650	4.0651	0.8146	8.12	1.86	0.750			
0.1989	12732.54	4.0620	4.0621	0.8181	8.12	1.86	0.750			
0.2014	12886.86	4.0590	4.0589	0.8187	8.11	1.85	0.750			
0.2038	13045.28	4.0560	4.0559	0.8207	8.10	1.84	0.750			
0.2063	13203.09	4.0530	4.0531	0.8305	8.10	1.84	0.750			
0.2088	13365.32	4.0500	4.0500	0.8375	8.09	1.83	0.750			
0.2114	13528.23	4.0470	4.0471	0.8402	8.08	1.82	0.750			
0.2139	13689.41	4.0440	4.0440	0.8412	8.08	1.82	0.750			
0.2164	13851.41	4.0410	4.0410	0.8379	8.07	1.81	0.750			
0.2189	14010.82	4.0380	4.0381	0.8410	8.06	1.80	0.750			
0.2215	14173.18	4.0350	4.0350	0.8463	8.05	1.79	0.750			
0.2240	14335.86	4.0320	4.0320	0.8446	8.04	1.78	0.750			
0.2266	14499.79	4.0290	4.0290	0.8451	8.03	1.77	0.750			
0.2291	14661.80	4.0260	4.0261	0.8425	8.02	1.76	0.750			
0.2316	14824.25	4.0230	4.0231	0.8463	8.01	1.75	0.750			
0.2341	14985.58	4.0200	4.0200	0.8548	8.00	1.74	0.750			
0.2367	15149.33	4.0170	4.0169	0.8543	8.00	1.74	0.750			
0.2393	15314.21	4.0140	4.0141	0.8583	7.99	1.73	0.750			
0.2419	15480.80	4.0110	4.0111	0.8593	7.98	1.72	0.750			
0.2445	15647.12	4.0080	4.0081	0.8654	7.97	1.71	0.750			
0.2471	15811.39	4.0050	4.0050	0.8716	7.96	1.70	0.750			
0.2496	15975.52	4.0020	4.0021	0.8831	7.95	1.69	0.750			
0.2523	16145.07	3.9990	3.9989	0.8945	7.95	1.69	0.750			
0.2550	16320.89	3.9960	3.9960	0.9063	7.94	1.68	0.750			
0.2577	16495.45	3.9930	3.9930	0.9202	7.93	1.67	0.750			
0.2606	16675.22	3.9900	3.9902	0.9341	7.92	1.66	0.750			
0.2634	16856.00	3.9870	3.9866	0.9315	7.91	1.65	0.750			
0.2662	17034.84	3.9840	3.9840	0.9313	7.90	1.64	0.750			
0.2690	17214.50	3.9810	3.9811	0.9333	7.89	1.63	0.750			
0.2718	17395.29	3.9780	3.9780	0.9361	7.88	1.62	0.750			
0.2746	17572.49	3.9750	3.9749	0.9279	7.87	1.61	0.750			
0.2773	17749.96	3.9720	3.9720	0.9343	7.87	1.61	0.750			
0.2801	17929.40	3.9690	3.9690	0.9294	7.86	1.60	0.750			
0.2829	18108.69	3.9660	3.9660	0.9321	7.85	1.59	0.750			
0.2857	18286.11	3.9630	3.9631	0.9351	7.84	1.58	0.750			
0.2885	18465.36	3.9600	3.9597	0.9410	7.83	1.57	0.750			
0.2913	18644.89	3.9570	3.9571	0.9533	7.82	1.56	0.750			
0.2942	18828.74	3.9540	3.9540	0.9690	7.81	1.55	0.750			
0.2971	19017.60	3.9510	3.9509	0.9791	7.80	1.54	0.750			
0.3001	19209.35	3.9480	3.9479	0.9833	7.79	1.53	0.750			
0.3031	19399.74	3.9450	3.9451	0.9936	7.78	1.52	0.750			
0.3061	19589.82	3.9420	3.9421	0.9994	7.77	1.51	0.750			
0.3091	19782.65	3.9390	3.9390	1.0009	7.76	1.50	0.750			
0.3121	19973.26	3.9360	3.9359	0.9987	7.75	1.49	0.750			
0.3151	20165.92	3.9330	3.9331	1.0084	7.74	1.48	0.750			
0.3181	20360.95	3.9300	3.9301	1.0196	7.73	1.47	0.750			
0.3212	20556.29	3.9270	3.9269	1.0257	7.72	1.46	0.750			
0.3243	20752.35	3.9240	3.9240	1.0334	7.71	1.45	0.750			
0.3274	20953.19	3.9210	3.9210	1.0418	7.70	1.44	0.750			
0.3305	21153.78	3.9180	3.9180	1.0618	7.69	1.43	0.750			
0.3337	21359.91	3.9150	3.9149	1.0706	7.67	1.41	0.750			
0.3369	21564.29	3.9120	3.9121	1.0841	7.66	1.40	0.750			
0.3402	21775.48	3.9090	3.9090	1.0892	7.65	1.39	0.750			
0.3435	21985.62	3.9060	3.9061	1.0990	7.64	1.38	0.750			
0.3468	22197.18	3.9030	3.9029	1.1079	7.63	1.37	0.750			
0.3502	22410.78	3.9000	3.8999	1.1197	7.61	1.35	0.750			
0.3535	22621.74	3.8970	3.8970	1.1301	7.60	1.34	0.750			
0.3569	22841.80	3.8940	3.8940	1.1549	7.59	1.33	0.750			
0.3604	23064.64	3.8910	3.8910	1.1767	7.58	1.32	0.750			
0.3640	23297.37	3.8880	3.8879	1.1845	7.57	1.31	0.750			
0.3676	23527.13	3.8850	3.8851	1.2048	7.56	1.30	0.750			
0.3713	23761.36	3.8820	3.8822	1.2129	7.54	1.28	0.750			
0.3749	23993.86	3.8790	3.8789	1.2066	7.53	1.27	0.750			
0.3784	24218.50	3.8760	3.8761	1.2304	7.52	1.26	0.750			
0.3821	24451.56	3.8730	3.8732	1.2539	7.51	1.25	0.750			
0.3859	24698.69	3.8700	3.8701	1.2675	7.49	1.23	0.750	0.378	0.830	
0.3898	24945.65	3.8670	3.8672	1.2977	7.47	1.21	0.750			
0.3937	25199.70	3.8640	3.8643	1.3266	7.46	1.20	0.750			
0.3979	25467.16	3.8610	3.8611	1.3459	7.44	1.18	0.750			
0.4019	25719.23	3.8580	3.8578	1.3398	7.43	1.17	0.750			
0.4059	25976.21	3.8550	3.8552	1.3634	7.41	1.15	0.750			
0.4100	26241.55	3.8520	3.8521	1.3878	7.40	1.14	0.750			
0.4142	26510.62	3.8490	3.8489	1.4260	7.39	1.13	0.750			
0.4186	26788.06	3.8460	3.8461	1.4349	7.37	1.11	0.750			
0.4230	27069.25	3.8430	3.8431	1.4579	7.34	1.08	0.750			
0.4274	27353.30	3.8400	3.8401	1.4873	7.33	1.07	0.750			
0.4319	27638.98	3.8370	3.8370	1.5086	7.31	1.05	0.750			
0.4364	27930.72	3.8340	3.8339	1.5241	7.30	1.04	0.750			
0.4410	28224.50	3.8310	3.8312	1.5489	7.28	1.02	0.750			
0.4457	28523.78	3.8280	3.8279	1.5649	7.26	1.00	0.750			
0.4504	28828.02	3.8250	3.8249	1.5955	7.23	0.97	0.750			
0.4552	29133.40	3.8220	3.8220	1.6089	7.21	0.95	0.750			
0.4601	29449.25	3.8190	3.8188	1.6445	7.19	0.93	0.750			
0.4652	29773.71	3.8160	3.8160	1.6509	7.17	0.91	0.750			
0.4702	30093.58	3.8130	3.8132	1.6941	7.15	0.89	0.750			
0.4753	30418.23	3.8100	3.8100	1.7197	7.13	0.87	0.750			
0.4805	30752.58	3.8070	3.8067	1.7436	7.11	0.85	0.750			
0.4857	31087.72	3.8040	3.8043	1.7452	7.09	0.83	0.750			
0.4911	31429.93	3.8010	3.8012	1.7704	7.07	0.81	0.750			
0.4965	31774.24	3.7980	3.7979	1.8007	7.05	0.79	0.750			
0.5018	32116.14	3.7950	3.7950	1.8119	7.03	0.77	0.750			
0.5072	32459.29	3.7920	3.7921	1.8206	7.00	0.74	0.750			
0.5127	32810.38	3.7890	3.7890	1.8546	6.98	0.72	0.750			
0.5183	33170.40	3.7860	3.7860	1.8602	6.96	0.70	0.750			
0.5239	33530.90	3.7830	3.7828	1.8988	6.94	0.68	0.750			
0.5296	33894.44	3.7800	3.7799	1.9346	6.92	0.66	0.750			
0.5354	34268.04	3.7770	3.7767	1.9850	6.90	0.64	0.750			
0.5414	34649.83	3.7740	3.7741	2.0525	6.88	0.62	0.750			
0.5477	35050.73	3.7710	3.7709	2.0931	6.85	0.59	0.750			
0.5541	35465.49	3.7680	3.7680	2.1335	6.82	0.56	0.750			
0.5605	35870.00	3.7650	3.7651	2.1539	6.79	0.53	0.750			
0.5669	36284.33	3.7620	3.7621	2.2762	6.77	0.51	0.750			
0.5738	36722.31	3.7590	3.7589	2.3658	6.75	0.49	0.750			
0.5811	37191.65	3.7560	3.7560	2.4583	6.72	0.46	0.750			
0.5887	37674.42	3.7530	3.7532	2.5621	6.69	0.43	0.750			
0.5965	38175.61	3.7500	3.7498	2.6234	6.66	0.40	0.750			
0.6042	38671.02	3.7470	3.7470	2.7404	6.63	0.37	0.750			
0.6129	39222.86	3.7440	3.7438	2.9564	6.60	0.34	0.750			
0.6219	39800.89	3.7410	3.7411	3.0297	6.57	0.31	0.750			
0.6314	40407.80	3.7380	3.7381	3.1585	6.54	0.28	0.750			
0.6407	41002.85	3.7350	3.7350	3.0716	6.51	0.25	0.750			
0.6502	41609.69	3.7320	3.7320	2.9226	6.49	0.23	0.750			
0.6586	42148.96	3.7290	3.7291	2.6265	6.47	0.21	0.750			
0.6658	42612.23	3.7260	3.7259	2.2811	6.44	0.18	0.750			
0.6719	43003.00	3.7230	3.7232	1.9658	6.43	0.17	0.750			
0.6775	43357.52	3.7200	3.7202	1.7271	6.41	0.15	0.750			
0.6819	43644.33	3.7170	3.7170	1.5377	6.40	0.14	0.750			
0.6861	43912.23	3.7140	3.7138	1.3857	6.39	0.13	0.750			
0.6900	44159.58	3.7110	3.7110	1.2898	6.38	0.12	0.750			
0.6937	44393.82	3.7080	3.7081	1.2155	6.37	0.11	0.750			
0.6972	44621.01	3.7050	3.7051	1.1647	6.36	0.10	0.750			
0.7006	44837.76	3.7020	3.7019	1.1191	6.35	0.09	0.750			
0.7038	45042.00	3.6990	3.6990	1.0773	6.35	0.09	0.750			
0.7069	45243.17	3.6960	3.6959	1.0540	6.34	0.08	0.750			
0.7100	45442.83	3.6930	3.6931	1.0408	6.34	0.08	0.750			
0.7131	45640.71	3.6900	3.6897	1.0299	6.33	0.07	0.750			
0.7162	45838.47	3.6870	3.6872	1.0132	6.32	0.06	0.750			
0.7193	46034.50	3.6840	3.6840	0.9891	6.32	0.06	0.750			
0.7223	46224.25	3.6810	3.6810	0.9650	6.31	0.05	0.750			
0.7251	46405.00	3.6780	3.6781	0.9378	6.30	0.04	0.750			
0.7278	46579.97	3.6750	3.6749	0.9151	6.30	0.04	0.750			
0.7305	46751.31	3.6720	3.6720	0.9015	6.29	0.03	0.750			
0.7331	46921.57	3.6690	3.6691	0.8901	6.29	0.03	0.750			
0.7358	47093.28	3.6660	3.6660	0.8875	6.28	0.02	0.750			
0.7385	47262.93	3.6630	3.6628	0.8826	6.28	0.02	0.750			
0.7411	47431.17	3.6600	3.6601	0.8796	6.28	0.02	0.750			
0.7437	47598.77	3.6570	3.6568	0.8872	6.27	0.01	0.750			
0.7464	47769.96	3.6540	3.6540	0.8915	6.27	0.01	0.750			
0.7491	47941.94	3.6510	3.6510	0.8968	6.26	0.00	0.750			
0.7518	48117.85	3.6480	3.6482	0.8927	6.26	0.00	0.750			
0.7546	48291.58	3.6450	3.6450	0.8771	6.26	0.00	0.750			
0.7573	48464.67	3.6420	3.6419	0.8444	6.26	0.00	0.750			
0.7598	48626.79	3.6390	3.6391	0.7893	6.26	0.00	0.750			
0.7622	48781.13	3.6360	3.6359	0.7166	6.26	0.00	0.750			
0.7643	48912.65	3.6330	3.6331	0.6226	6.26	0.00	0.750			
0.7660	49022.86	3.6300	3.6301	0.5253	6.26	0.00	0.750			
0.7671	49097.20	3.6270	3.6276	0.4426	6.26	0.00	0.750			
0.7683	49173.93	3.6240	3.6244	0.3527	6.26	0.00	0.750			
0.7693	49233.16	3.6210	3.6210	0.2820	6.26	0.00	0.750			
0.7699	49275.56	3.6180	3.6177	0.2113	6.26	0.00	0.750			
0.7705	49308.89	3.6150	3.6125	0.1608	6.26	0.00	0.750			
0.7707	49321.90	3.5940	3.5889	-0.1036	6.26	0.00	0.750			
0.7708	49329.45	3.6120	3.4837	0.1108	6.26	0.00	0.757			
0.7709	49338.53	3.5970	3.3520	-0.0695	6.26	0.00	0.766			
0.7709	49339.58	3.6090	3.3367	0.0668	6.26	0.00	0.767			
0.7711	49348.60	3.6000	3.2057	-0.0355	6.26	0.00	0.777			
0.7711	49349.13	3.6060	3.1980	0.0327	6.26	0.00	0.778			
0.7711	49352.14	3.6030	3.1543	-0.0014	6.26	0.00	0.781			
