Ah_balance (normalized)	Ah_balance (mAh)	Voltage - fit (V)	Voltage -  interpolate (V)	dQ/dV (1/V)	Temperature (°C)	Temperature - diff (°C)	Current (C)	R_DC 0ms (mOhm)	R_DC 50ms (mOhm)	R_DC 50 ms PEC (mOhm)
0.0951	6083.71	4.1980	4.1951	0.5837	8.30	2.31	0.750	0.376	0.825	
0.0973	6228.23	4.1950	4.1973	0.8056	8.30	2.31	0.750			
0.0999	6391.12	4.1920	4.1937	0.8329	8.29	2.30	0.750			
0.1025	6557.08	4.1890	4.1897	0.8128	8.28	2.29	0.750			
0.1051	6727.43	4.1860	4.1860	0.8009	8.28	2.29	0.750			
0.1076	6885.23	4.1830	4.1826	0.7880	8.27	2.28	0.750			
0.1093	6997.02	4.1800	4.1802	0.7010	8.27	2.28	0.750			
0.1114	7129.95	4.1770	4.1769	0.6983	8.26	2.27	0.750			
0.1135	7262.59	4.1740	4.1739	0.7072	8.26	2.27	0.750			
0.1156	7398.06	4.1710	4.1709	0.7098	8.25	2.26	0.750			
0.1178	7536.30	4.1680	4.1681	0.7143	8.24	2.25	0.750			
0.1199	7676.19	4.1650	4.1651	0.7216	8.24	2.25	0.750			
0.1221	7815.71	4.1620	4.1621	0.7242	8.23	2.24	0.750			
0.1243	7954.06	4.1590	4.1588	0.7212	8.22	2.23	0.750			
0.1264	8091.58	4.1560	4.1561	0.7210	8.22	2.23	0.750			
0.1286	8228.52	4.1530	4.1531	0.7216	8.21	2.22	0.750			
0.1308	8368.65	4.1500	4.1499	0.7310	8.21	2.22	0.750			
0.1329	8508.29	4.1470	4.1471	0.7294	8.20	2.21	0.750			
0.1352	8650.39	4.1440	4.1440	0.7310	8.19	2.20	0.750			
0.1374	8791.45	4.1410	4.1409	0.7355	8.19	2.20	0.750			
0.1396	8932.80	4.1380	4.1382	0.7414	8.18	2.19	0.750			
0.1418	9074.36	4.1350	4.1348	0.7415	8.18	2.19	0.750			
0.1440	9216.77	4.1320	4.1320	0.7476	8.17	2.18	0.750			
0.1463	9360.86	4.1290	4.1290	0.7465	8.16	2.17	0.750			
0.1486	9507.51	4.1260	4.1260	0.7530	8.15	2.16	0.750			
0.1508	9652.28	4.1230	4.1231	0.7542	8.15	2.16	0.750			
0.1531	9795.90	4.1200	4.1201	0.7498	8.14	2.15	0.750			
0.1553	9938.83	4.1170	4.1169	0.7497	8.14	2.15	0.750			
0.1575	10082.00	4.1140	4.1140	0.7521	8.13	2.14	0.750			
0.1598	10226.19	4.1110	4.1111	0.7558	8.13	2.14	0.750			
0.1621	10372.09	4.1080	4.1077	0.7610	8.12	2.13	0.750			
0.1644	10519.80	4.1050	4.1049	0.7644	8.11	2.12	0.750			
0.1667	10668.86	4.1020	4.1020	0.7595	8.11	2.12	0.750			
0.1690	10813.39	4.0990	4.0990	0.7701	8.10	2.11	0.750			
0.1712	10958.02	4.0960	4.0961	0.7757	8.09	2.10	0.750			
0.1736	11108.89	4.0930	4.0932	0.7810	8.08	2.09	0.750			
0.1759	11260.67	4.0900	4.0900	0.7857	8.08	2.09	0.750			
0.1783	11412.59	4.0870	4.0872	0.7946	8.07	2.08	0.750			
0.1807	11566.59	4.0840	4.0839	0.8039	8.06	2.07	0.750			
0.1832	11722.17	4.0810	4.0809	0.8070	8.05	2.06	0.750			
0.1856	11877.28	4.0780	4.0779	0.8006	8.05	2.06	0.750			
0.1880	12031.91	4.0750	4.0752	0.8023	8.04	2.05	0.750			
0.1905	12189.09	4.0720	4.0720	0.8038	8.03	2.04	0.750			
0.1929	12343.96	4.0690	4.0689	0.8009	8.02	2.03	0.750			
0.1952	12493.45	4.0660	4.0660	0.7997	8.01	2.02	0.750			
0.1976	12644.86	4.0630	4.0631	0.8002	8.01	2.02	0.750			
0.2000	12798.99	4.0600	4.0598	0.8104	8.00	2.01	0.750			
0.2024	12954.95	4.0570	4.0568	0.8228	7.99	2.00	0.750			
0.2049	13113.84	4.0540	4.0541	0.8232	7.99	2.00	0.750			
0.2074	13272.30	4.0510	4.0511	0.8316	7.98	1.99	0.750			
0.2099	13434.64	4.0480	4.0481	0.8363	7.98	1.99	0.750			
0.2124	13595.84	4.0450	4.0447	0.8383	7.97	1.98	0.750			
0.2149	13756.71	4.0420	4.0421	0.8387	7.96	1.97	0.750			
0.2174	13915.21	4.0390	4.0391	0.8462	7.95	1.96	0.750			
0.2200	14078.84	4.0360	4.0360	0.8531	7.94	1.95	0.750			
0.2226	14244.19	4.0330	4.0329	0.8529	7.93	1.94	0.750			
0.2251	14408.33	4.0300	4.0299	0.8551	7.92	1.93	0.750			
0.2277	14574.50	4.0270	4.0273	0.8565	7.91	1.92	0.750			
0.2303	14739.90	4.0240	4.0239	0.8603	7.91	1.92	0.750			
0.2329	14905.22	4.0210	4.0210	0.8567	7.90	1.91	0.750			
0.2354	15067.08	4.0180	4.0180	0.8539	7.89	1.90	0.750			
0.2380	15230.20	4.0150	4.0151	0.8614	7.89	1.90	0.750			
0.2406	15396.77	4.0120	4.0120	0.8641	7.88	1.89	0.750			
0.2431	15561.60	4.0090	4.0089	0.8713	7.87	1.88	0.750			
0.2458	15729.30	4.0060	4.0061	0.8777	7.86	1.87	0.750			
0.2484	15899.28	4.0030	4.0030	0.8806	7.85	1.86	0.750			
0.2511	16069.88	4.0000	4.0000	0.8894	7.85	1.86	0.750			
0.2538	16241.23	3.9970	3.9971	0.8845	7.84	1.85	0.750			
0.2564	16409.55	3.9940	3.9941	0.8924	7.83	1.84	0.750			
0.2591	16580.85	3.9910	3.9910	0.9034	7.82	1.83	0.750			
0.2618	16753.99	3.9880	3.9877	0.9090	7.81	1.82	0.750			
0.2646	16931.49	3.9850	3.9851	0.9098	7.80	1.81	0.750			
0.2673	17106.65	3.9820	3.9821	0.9162	7.79	1.80	0.750			
0.2701	17283.37	3.9790	3.9791	0.9251	7.79	1.80	0.750			
0.2729	17463.58	3.9760	3.9760	0.9306	7.78	1.79	0.750			
0.2756	17639.11	3.9730	3.9728	0.9182	7.77	1.78	0.750			
0.2784	17816.19	3.9700	3.9700	0.9195	7.76	1.77	0.750			
0.2811	17990.87	3.9670	3.9673	0.9344	7.74	1.75	0.750			
0.2839	18172.12	3.9640	3.9639	0.9408	7.73	1.74	0.750			
0.2867	18350.79	3.9610	3.9607	0.9496	7.72	1.73	0.750			
0.2896	18533.92	3.9580	3.9582	0.9522	7.71	1.72	0.750			
0.2925	18719.38	3.9550	3.9552	0.9656	7.70	1.71	0.750			
0.2955	18909.92	3.9520	3.9520	0.9788	7.69	1.70	0.750			
0.2984	19094.70	3.9490	3.9492	0.9732	7.68	1.69	0.750			
0.3013	19282.88	3.9460	3.9460	0.9794	7.68	1.69	0.750			
0.3043	19473.17	3.9430	3.9429	0.9944	7.67	1.68	0.750			
0.3072	19663.26	3.9400	3.9401	1.0018	7.66	1.67	0.750			
0.3103	19858.95	3.9370	3.9371	1.0163	7.65	1.66	0.750			
0.3134	20055.86	3.9340	3.9340	1.0079	7.64	1.65	0.750			
0.3164	20248.22	3.9310	3.9311	1.0202	7.63	1.64	0.750			
0.3194	20443.58	3.9280	3.9281	1.0243	7.62	1.63	0.750			
0.3225	20641.69	3.9250	3.9250	1.0267	7.62	1.63	0.750			
0.3256	20838.36	3.9220	3.9219	1.0327	7.61	1.62	0.750			
0.3287	21035.91	3.9190	3.9192	1.0504	7.59	1.60	0.750			
0.3319	21239.24	3.9160	3.9160	1.0652	7.58	1.59	0.750			
0.3351	21447.03	3.9130	3.9128	1.0842	7.56	1.57	0.750			
0.3384	21657.66	3.9100	3.9101	1.0761	7.55	1.56	0.750			
0.3417	21868.76	3.9070	3.9070	1.0940	7.54	1.55	0.750			
0.3450	22077.13	3.9040	3.9041	1.1040	7.53	1.54	0.750			
0.3483	22289.86	3.9010	3.9010	1.1089	7.51	1.52	0.750			
0.3515	22498.01	3.8980	3.8981	1.1150	7.50	1.51	0.750			
0.3549	22713.45	3.8950	3.8950	1.1307	7.49	1.50	0.750			
0.3583	22929.76	3.8920	3.8921	1.1561	7.48	1.49	0.750			
0.3618	23158.27	3.8890	3.8889	1.1877	7.47	1.48	0.750			
0.3654	23385.76	3.8860	3.8860	1.2043	7.46	1.47	0.750			
0.3691	23619.71	3.8830	3.8830	1.2272	7.44	1.45	0.750			
0.3729	23863.52	3.8800	3.8800	1.2381	7.43	1.44	0.750			
0.3767	24105.74	3.8770	3.8770	1.2288	7.41	1.42	0.750			
0.3803	24336.23	3.8740	3.8742	1.2493	7.40	1.41	0.750			
0.3840	24574.21	3.8710	3.8711	1.2560	7.39	1.40	0.750			
0.3877	24812.11	3.8680	3.8679	1.2800	7.38	1.39	0.750	0.388	0.859	
0.3916	25060.48	3.8650	3.8652	1.3030	7.36	1.37	0.750			
0.3955	25313.17	3.8620	3.8621	1.3371	7.35	1.36	0.750			
0.3997	25577.89	3.8590	3.8589	1.3596	7.33	1.34	0.750			
0.4038	25845.55	3.8560	3.8559	1.3780	7.32	1.33	0.750			
0.4079	26103.45	3.8530	3.8531	1.3905	7.30	1.31	0.750			
0.4121	26375.04	3.8500	3.8499	1.4073	7.29	1.30	0.750			
0.4163	26643.71	3.8470	3.8471	1.4191	7.27	1.28	0.750			
0.4206	26919.44	3.8440	3.8440	1.4439	7.25	1.26	0.750			
0.4249	27195.28	3.8410	3.8408	1.4656	7.23	1.24	0.750			
0.4293	27478.20	3.8380	3.8382	1.4935	7.21	1.22	0.750			
0.4338	27765.36	3.8350	3.8351	1.5351	7.19	1.20	0.750			
0.4385	28062.90	3.8320	3.8319	1.5547	7.17	1.18	0.750			
0.4433	28371.69	3.8290	3.8288	1.5781	7.16	1.17	0.750			
0.4481	28676.12	3.8260	3.8260	1.6053	7.14	1.15	0.750			
0.4529	28984.30	3.8230	3.8230	1.6409	7.11	1.12	0.750			
0.4578	29301.56	3.8200	3.8201	1.6600	7.09	1.10	0.750			
0.4629	29623.24	3.8170	3.8166	1.7017	7.07	1.08	0.750			
0.4681	29955.24	3.8140	3.8139	1.7274	7.05	1.06	0.750			
0.4732	30282.99	3.8110	3.8111	1.7602	7.03	1.04	0.750			
0.4785	30625.07	3.8080	3.8079	1.8056	7.00	1.01	0.750			
0.4840	30975.71	3.8050	3.8048	1.8163	6.98	0.99	0.750			
0.4895	31326.49	3.8020	3.8020	1.8505	6.96	0.97	0.750			
0.4953	31697.16	3.7990	3.7991	1.8831	6.93	0.94	0.750			
0.5009	32059.01	3.7960	3.7958	1.8821	6.91	0.92	0.750			
0.5066	32423.59	3.7930	3.7933	1.9026	6.88	0.89	0.750			
0.5122	32781.44	3.7900	3.7903	1.9129	6.86	0.87	0.750			
0.5181	33157.28	3.7870	3.7868	1.9370	6.83	0.84	0.750			
0.5238	33520.04	3.7840	3.7841	1.9488	6.80	0.81	0.750			
0.5298	33906.40	3.7810	3.7811	1.9952	6.78	0.79	0.750			
0.5359	34298.64	3.7780	3.7779	2.0401	6.75	0.76	0.750			
0.5420	34685.65	3.7750	3.7750	2.0603	6.72	0.73	0.750			
0.5482	35082.89	3.7720	3.7720	2.1084	6.70	0.71	0.750			
0.5547	35501.31	3.7690	3.7690	2.1520	6.67	0.68	0.750			
0.5611	35908.10	3.7660	3.7660	2.1733	6.64	0.65	0.750			
0.5677	36331.64	3.7630	3.7632	2.2496	6.61	0.62	0.750			
0.5744	36760.82	3.7600	3.7598	2.3324	6.58	0.59	0.750			
0.5815	37214.74	3.7570	3.7570	2.4468	6.55	0.56	0.750			
0.5889	37692.69	3.7540	3.7542	2.6105	6.51	0.52	0.750			
0.5971	38211.22	3.7510	3.7510	2.7387	6.49	0.50	0.750			
0.6054	38746.50	3.7480	3.7480	2.8615	6.45	0.46	0.750			
0.6143	39314.85	3.7450	3.7449	2.9715	6.41	0.42	0.750			
0.6234	39898.68	3.7420	3.7420	2.9620	6.38	0.39	0.750			
0.6323	40468.17	3.7390	3.7391	3.0298	6.34	0.35	0.750			
0.6414	41051.80	3.7360	3.7360	3.0332	6.31	0.32	0.750			
0.6506	41640.86	3.7330	3.7331	2.9295	6.28	0.29	0.750			
0.6596	42212.43	3.7300	3.7299	2.7865	6.25	0.26	0.750			
0.6676	42728.13	3.7270	3.7269	2.5042	6.22	0.23	0.750			
0.6747	43178.61	3.7240	3.7242	2.2330	6.20	0.21	0.750			
0.6809	43577.34	3.7210	3.7210	1.9694	6.19	0.20	0.750			
0.6864	43931.37	3.7180	3.7178	1.7184	6.17	0.18	0.750			
0.6909	44216.01	3.7150	3.7152	1.5186	6.16	0.17	0.750			
0.6950	44482.41	3.7120	3.7120	1.3753	6.15	0.16	0.750			
0.6988	44720.08	3.7090	3.7088	1.2640	6.14	0.15	0.750			
0.7024	44951.98	3.7060	3.7060	1.2017	6.13	0.14	0.750			
0.7058	45170.79	3.7030	3.7030	1.1443	6.13	0.14	0.750			
0.7092	45388.38	3.7000	3.7001	1.1224	6.12	0.13	0.750			
0.7125	45599.06	3.6970	3.6970	1.0889	6.11	0.12	0.750			
0.7157	45806.44	3.6940	3.6939	1.0604	6.10	0.11	0.750			
0.7188	46006.18	3.6910	3.6912	1.0340	6.09	0.10	0.750			
0.7219	46202.71	3.6880	3.6880	1.0157	6.08	0.09	0.750			
0.7249	46395.08	3.6850	3.6848	0.9976	6.07	0.08	0.750			
0.7279	46583.99	3.6820	3.6820	0.9786	6.06	0.07	0.750			
0.7307	46766.45	3.6790	3.6791	0.9651	6.06	0.07	0.750			
0.7336	46952.23	3.6760	3.6760	0.9600	6.06	0.07	0.750			
0.7365	47137.62	3.6730	3.6729	0.9361	6.05	0.06	0.750			
0.7393	47317.37	3.6700	3.6699	0.9213	6.04	0.05	0.750			
0.7421	47492.34	3.6670	3.6672	0.8995	6.04	0.05	0.750			
0.7447	47659.43	3.6640	3.6640	0.8897	6.03	0.04	0.750			
0.7473	47828.30	3.6610	3.6610	0.8824	6.03	0.04	0.750			
0.7499	47994.30	3.6580	3.6576	0.8816	6.02	0.03	0.750			
0.7525	48160.89	3.6550	3.6552	0.8889	6.02	0.03	0.750			
0.7552	48334.86	3.6520	3.6521	0.9010	6.01	0.02	0.750			
0.7580	48510.42	3.6490	3.6489	0.9072	6.01	0.02	0.750			
0.7607	48687.27	3.6460	3.6460	0.8953	6.00	0.01	0.750			
0.7635	48862.70	3.6430	3.6430	0.8693	6.00	0.01	0.750			
0.7662	49034.74	3.6400	3.6401	0.8388	6.00	0.01	0.750			
0.7687	49196.59	3.6370	3.6370	0.7666	5.99	0.00	0.750			
0.7710	49341.43	3.6340	3.6339	0.6846	5.99	0.00	0.750			
0.7729	49466.21	3.6310	3.6311	0.5885	5.99	0.00	0.750			
0.7745	49568.57	3.6280	3.6280	0.4883	5.99	0.00	0.750			
0.7756	49639.85	3.6250	3.6255	0.4133	5.99	-0.00	0.750			
0.7767	49710.22	3.6220	3.6222	0.3350	5.99	-0.00	0.750			
0.7775	49760.22	3.6190	3.6191	0.2491	5.99	-0.00	0.750			
0.7781	49799.44	3.6160	3.6152	0.1908	5.99	-0.00	0.750			
0.7785	49823.65	3.6130	3.6096	0.1317	5.99	-0.00	0.750			
0.7786	49833.45	3.5950	3.5724	-0.0979	5.99	-0.00	0.751			
0.7787	49839.54	3.6100	3.4955	0.0852	5.99	-0.00	0.759			
0.7789	49848.74	3.5980	3.3792	-0.0613	5.99	-0.00	0.771			
0.7789	49852.39	3.6070	3.3331	0.0486	5.99	-0.00	0.775			
0.7790	49856.99	3.6010	3.2749	-0.0247	5.99	-0.00	0.781			
0.7790	49858.21	3.6040	3.2596	0.0120	5.99	-0.00	0.783			
