Ah_balance (normalized)	Ah_balance (mAh)	Voltage - fit (V)	Voltage -  interpolate (V)	dQ/dV (1/V)	Temperature (°C)	Temperature - diff (°C)	Current (C)	R_DC 0ms (mOhm)	R_DC 50ms (mOhm)	R_DC 50 ms PEC (mOhm)
0.0964	6166.51	4.1970	4.1993	0.6781	8.21	2.23	0.750			
0.0986	6312.17	4.1940	4.1960	0.7713	8.21	2.23	0.750			
0.1011	6473.51	4.1910	4.1924	0.7969	8.20	2.22	0.750			
0.1035	6625.53	4.1880	4.1890	0.7920	8.19	2.21	0.750			
0.1062	6794.02	4.1850	4.1852	0.7728	8.18	2.20	0.750			
0.1088	6966.18	4.1820	4.1815	0.7914	8.17	2.19	0.750			
0.1106	7075.85	4.1790	4.1791	0.7052	8.17	2.19	0.750			
0.1127	7212.23	4.1760	4.1760	0.7026	8.16	2.18	0.750			
0.1148	7344.34	4.1730	4.1729	0.6969	8.16	2.18	0.750			
0.1168	7476.55	4.1700	4.1701	0.7000	8.15	2.17	0.750			
0.1189	7610.16	4.1670	4.1671	0.7005	8.15	2.17	0.750			
0.1210	7745.83	4.1640	4.1639	0.7115	8.14	2.16	0.750			
0.1232	7883.11	4.1610	4.1610	0.7161	8.14	2.16	0.750			
0.1253	8020.93	4.1580	4.1579	0.7170	8.13	2.15	0.750			
0.1275	8161.16	4.1550	4.1550	0.7245	8.13	2.15	0.750			
0.1297	8301.16	4.1520	4.1521	0.7248	8.12	2.14	0.750			
0.1319	8439.24	4.1490	4.1490	0.7254	8.12	2.14	0.750			
0.1340	8577.86	4.1460	4.1460	0.7262	8.11	2.13	0.750			
0.1362	8717.85	4.1430	4.1431	0.7281	8.10	2.12	0.750			
0.1384	8857.83	4.1400	4.1399	0.7331	8.10	2.12	0.750			
0.1406	8998.90	4.1370	4.1371	0.7377	8.09	2.11	0.750			
0.1428	9141.53	4.1340	4.1339	0.7386	8.09	2.11	0.750			
0.1451	9283.76	4.1310	4.1310	0.7392	8.08	2.10	0.750			
0.1473	9425.26	4.1280	4.1281	0.7431	8.07	2.09	0.750			
0.1495	9567.16	4.1250	4.1251	0.7477	8.06	2.08	0.750			
0.1518	9712.90	4.1220	4.1219	0.7489	8.06	2.08	0.750			
0.1540	9856.88	4.1190	4.1189	0.7458	8.05	2.07	0.750			
0.1562	9999.48	4.1160	4.1162	0.7472	8.05	2.07	0.750			
0.1585	10143.91	4.1130	4.1132	0.7525	8.04	2.06	0.750			
0.1607	10286.09	4.1100	4.1099	0.7598	8.04	2.06	0.750			
0.1630	10431.18	4.1070	4.1068	0.7698	8.03	2.05	0.750			
0.1653	10578.69	4.1040	4.1041	0.7791	8.02	2.04	0.750			
0.1677	10732.53	4.1010	4.1010	0.7861	8.02	2.04	0.750			
0.1701	10887.31	4.0980	4.0980	0.7953	8.01	2.03	0.750			
0.1725	11040.51	4.0950	4.0951	0.7919	8.01	2.03	0.750			
0.1749	11191.46	4.0920	4.0920	0.7899	8.00	2.02	0.750			
0.1772	11342.67	4.0890	4.0889	0.7865	7.99	2.01	0.750			
0.1796	11494.75	4.0860	4.0860	0.7765	7.99	2.01	0.750			
0.1819	11640.08	4.0830	4.0831	0.7816	7.98	2.00	0.750			
0.1842	11790.33	4.0800	4.0801	0.7872	7.97	1.99	0.750			
0.1866	11939.47	4.0770	4.0770	0.7902	7.97	1.99	0.750			
0.1889	12091.88	4.0740	4.0737	0.7957	7.96	1.98	0.750			
0.1914	12247.53	4.0710	4.0713	0.7928	7.95	1.97	0.750			
0.1938	12401.67	4.0680	4.0681	0.8034	7.94	1.96	0.750			
0.1962	12556.25	4.0650	4.0651	0.8074	7.93	1.95	0.750			
0.1986	12708.96	4.0620	4.0620	0.8069	7.93	1.95	0.750			
0.2010	12862.55	4.0590	4.0588	0.8123	7.92	1.94	0.750			
0.2035	13021.33	4.0560	4.0560	0.8156	7.91	1.93	0.750			
0.2059	13180.32	4.0530	4.0531	0.8252	7.91	1.93	0.750			
0.2084	13338.67	4.0500	4.0500	0.8302	7.90	1.92	0.750			
0.2109	13496.12	4.0470	4.0471	0.8318	7.90	1.92	0.750			
0.2134	13656.66	4.0440	4.0438	0.8363	7.89	1.91	0.750			
0.2159	13819.34	4.0410	4.0410	0.8384	7.88	1.90	0.750			
0.2185	13982.57	4.0380	4.0381	0.8411	7.88	1.90	0.750			
0.2210	14144.72	4.0350	4.0350	0.8409	7.87	1.89	0.750			
0.2235	14304.63	4.0320	4.0320	0.8415	7.87	1.89	0.750			
0.2260	14462.97	4.0290	4.0290	0.8428	7.86	1.88	0.750			
0.2285	14626.32	4.0260	4.0259	0.8419	7.85	1.87	0.750			
0.2311	14788.06	4.0230	4.0229	0.8526	7.84	1.86	0.750			
0.2336	14953.03	4.0200	4.0202	0.8595	7.83	1.85	0.750			
0.2362	15119.03	4.0170	4.0168	0.8680	7.83	1.85	0.750			
0.2389	15287.59	4.0140	4.0140	0.8673	7.82	1.84	0.750			
0.2415	15454.40	4.0110	4.0111	0.8697	7.81	1.83	0.750			
0.2441	15620.46	4.0080	4.0080	0.8741	7.81	1.83	0.750			
0.2467	15789.70	4.0050	4.0049	0.8837	7.80	1.82	0.750			
0.2493	15957.03	4.0020	4.0019	0.8785	7.79	1.81	0.750			
0.2520	16127.15	3.9990	3.9990	0.8852	7.79	1.81	0.750			
0.2546	16296.50	3.9960	3.9961	0.8930	7.78	1.80	0.750			
0.2573	16469.63	3.9930	3.9930	0.9055	7.77	1.79	0.750			
0.2600	16643.10	3.9900	3.9899	0.9118	7.77	1.79	0.750			
0.2628	16820.54	3.9870	3.9868	0.9125	7.76	1.78	0.750			
0.2656	16997.60	3.9840	3.9842	0.9148	7.75	1.77	0.750			
0.2684	17174.82	3.9810	3.9811	0.9168	7.74	1.76	0.750			
0.2711	17351.65	3.9780	3.9779	0.9124	7.73	1.75	0.750			
0.2738	17524.21	3.9750	3.9751	0.9106	7.73	1.75	0.750			
0.2765	17695.34	3.9720	3.9719	0.9100	7.72	1.74	0.750			
0.2792	17870.40	3.9690	3.9691	0.9140	7.71	1.73	0.750			
0.2820	18045.76	3.9660	3.9660	0.9308	7.70	1.72	0.750			
0.2847	18223.76	3.9630	3.9630	0.9416	7.70	1.72	0.750			
0.2876	18408.36	3.9600	3.9598	0.9500	7.69	1.71	0.750			
0.2905	18592.55	3.9570	3.9571	0.9605	7.68	1.70	0.750			
0.2934	18777.17	3.9540	3.9541	0.9738	7.67	1.69	0.750			
0.2964	18967.00	3.9510	3.9509	0.9804	7.66	1.68	0.750			
0.2993	19154.33	3.9480	3.9479	0.9859	7.65	1.67	0.750			
0.3023	19346.26	3.9450	3.9451	0.9803	7.64	1.66	0.750			
0.3052	19535.47	3.9420	3.9420	0.9901	7.64	1.66	0.750			
0.3082	19725.46	3.9390	3.9391	0.9938	7.63	1.65	0.750			
0.3112	19914.57	3.9360	3.9360	0.9929	7.62	1.64	0.750			
0.3142	20107.35	3.9330	3.9330	0.9924	7.61	1.63	0.750			
0.3172	20297.94	3.9300	3.9300	0.9966	7.60	1.62	0.750			
0.3201	20488.05	3.9270	3.9271	1.0010	7.59	1.61	0.750			
0.3231	20681.18	3.9240	3.9241	1.0194	7.59	1.61	0.750			
0.3262	20874.75	3.9210	3.9208	1.0244	7.58	1.60	0.750			
0.3293	21072.90	3.9180	3.9180	1.0519	7.57	1.59	0.750			
0.3324	21276.34	3.9150	3.9150	1.0742	7.56	1.58	0.750			
0.3357	21487.49	3.9120	3.9121	1.0875	7.55	1.57	0.750			
0.3391	21700.16	3.9090	3.9089	1.0972	7.54	1.56	0.750			
0.3423	21909.52	3.9060	3.9062	1.1250	7.53	1.55	0.750			
0.3457	22124.57	3.9030	3.9028	1.1365	7.52	1.54	0.750			
0.3492	22346.58	3.9000	3.8999	1.1567	7.50	1.52	0.750			
0.3527	22573.09	3.8970	3.8971	1.1458	7.49	1.51	0.750			
0.3562	22797.92	3.8940	3.8941	1.1517	7.47	1.49	0.750			
0.3597	23019.45	3.8910	3.8911	1.1508	7.46	1.48	0.750			
0.3631	23236.68	3.8880	3.8877	1.1448	7.44	1.46	0.750			
0.3664	23448.21	3.8850	3.8850	1.1401	7.43	1.45	0.750			
0.3698	23668.83	3.8820	3.8821	1.1669	7.42	1.44	0.750			
0.3733	23892.36	3.8790	3.8791	1.1969	7.42	1.44	0.750			
0.3770	24127.82	3.8760	3.8759	1.2204	7.40	1.42	0.750			
0.3807	24363.79	3.8730	3.8730	1.2572	7.39	1.41	0.750			
0.3845	24609.28	3.8700	3.8701	1.2843	7.37	1.39	0.750			
0.3885	24863.06	3.8670	3.8668	1.2956	7.36	1.38	0.750	0.393	0.850	
0.3924	25112.83	3.8640	3.8642	1.3263	7.34	1.36	0.750			
0.3964	25367.22	3.8610	3.8611	1.3441	7.33	1.35	0.750			
0.4004	25628.03	3.8580	3.8577	1.3562	7.31	1.33	0.750			
0.4046	25891.47	3.8550	3.8552	1.3622	7.29	1.31	0.750			
0.4087	26153.83	3.8520	3.8521	1.3890	7.28	1.30	0.750			
0.4129	26425.50	3.8490	3.8489	1.4092	7.26	1.28	0.750			
0.4171	26695.12	3.8460	3.8461	1.4202	7.24	1.26	0.750			
0.4214	26967.12	3.8430	3.8429	1.4378	7.23	1.25	0.750			
0.4257	27247.77	3.8400	3.8398	1.4719	7.21	1.23	0.750			
0.4301	27528.90	3.8370	3.8371	1.5195	7.19	1.21	0.750			
0.4348	27827.36	3.8340	3.8341	1.5528	7.17	1.19	0.750			
0.4395	28130.33	3.8310	3.8310	1.5727	7.15	1.17	0.750			
0.4443	28437.16	3.8280	3.8282	1.5942	7.14	1.16	0.750			
0.4492	28745.92	3.8250	3.8251	1.6214	7.12	1.14	0.750			
0.4540	29058.64	3.8220	3.8217	1.6550	7.09	1.11	0.750			
0.4590	29378.79	3.8190	3.8190	1.6748	7.07	1.09	0.750			
0.4641	29701.68	3.8160	3.8160	1.6860	7.05	1.07	0.750			
0.4693	30037.45	3.8130	3.8133	1.7193	7.02	1.04	0.750			
0.4745	30365.42	3.8100	3.8099	1.7278	7.00	1.02	0.750			
0.4797	30699.65	3.8070	3.8071	1.7511	6.98	1.00	0.750			
0.4848	31024.86	3.8040	3.8040	1.8030	6.96	0.98	0.750			
0.4903	31381.11	3.8010	3.8010	1.8373	6.94	0.96	0.750			
0.4959	31740.01	3.7980	3.7979	1.8592	6.91	0.93	0.750			
0.5017	32106.31	3.7950	3.7952	1.8752	6.89	0.91	0.750			
0.5073	32465.48	3.7920	3.7919	1.8983	6.86	0.88	0.750			
0.5129	32828.70	3.7890	3.7889	1.9159	6.84	0.86	0.750			
0.5186	33188.38	3.7860	3.7860	1.9512	6.81	0.83	0.750			
0.5246	33572.56	3.7830	3.7831	2.0272	6.79	0.81	0.750			
0.5309	33976.55	3.7800	3.7798	2.0542	6.75	0.77	0.750			
0.5370	34371.18	3.7770	3.7771	2.0579	6.73	0.75	0.750			
0.5432	34767.77	3.7740	3.7742	2.0770	6.70	0.72	0.750			
0.5495	35165.86	3.7710	3.7709	2.0816	6.67	0.69	0.750			
0.5556	35557.29	3.7680	3.7681	2.1434	6.64	0.66	0.750			
0.5620	35971.11	3.7650	3.7650	2.2123	6.61	0.63	0.750			
0.5689	36407.18	3.7620	3.7618	2.3067	6.57	0.59	0.750			
0.5759	36859.87	3.7590	3.7592	2.4148	6.54	0.56	0.750			
0.5834	37337.06	3.7560	3.7559	2.5053	6.51	0.53	0.750			
0.5910	37822.62	3.7530	3.7530	2.5956	6.48	0.50	0.750			
0.5990	38335.67	3.7500	3.7499	2.6963	6.44	0.46	0.750			
0.6072	38861.11	3.7470	3.7471	2.8103	6.40	0.42	0.750			
0.6158	39413.50	3.7440	3.7439	2.8874	6.37	0.39	0.750			
0.6246	39975.06	3.7410	3.7411	2.9951	6.33	0.35	0.750			
0.6338	40561.87	3.7380	3.7379	3.1299	6.30	0.32	0.750			
0.6435	41185.55	3.7350	3.7349	3.1078	6.26	0.28	0.750			
0.6530	41791.05	3.7320	3.7322	3.0053	6.23	0.25	0.750			
0.6617	42348.12	3.7290	3.7288	2.7580	6.20	0.22	0.750			
0.6695	42845.98	3.7260	3.7259	2.4365	6.18	0.20	0.750			
0.6763	43285.60	3.7230	3.7230	2.1623	6.17	0.19	0.750			
0.6822	43662.65	3.7200	3.7200	1.8908	6.15	0.17	0.750			
0.6875	43997.85	3.7170	3.7170	1.6444	6.14	0.16	0.750			
0.6919	44279.13	3.7140	3.7139	1.4728	6.13	0.15	0.750			
0.6957	44527.88	3.7110	3.7109	1.3340	6.12	0.14	0.750			
0.6995	44766.57	3.7080	3.7079	1.2415	6.10	0.12	0.750			
0.7031	44999.75	3.7050	3.7051	1.1969	6.09	0.11	0.750			
0.7066	45222.35	3.7020	3.7021	1.1488	6.09	0.11	0.750			
0.7100	45437.48	3.6990	3.6989	1.1126	6.08	0.10	0.750			
0.7132	45645.87	3.6960	3.6959	1.0785	6.07	0.09	0.750			
0.7163	45846.04	3.6930	3.6931	1.0507	6.06	0.08	0.750			
0.7195	46045.41	3.6900	3.6901	1.0367	6.05	0.07	0.750			
0.7226	46244.18	3.6870	3.6869	1.0151	6.05	0.07	0.750			
0.7256	46437.10	3.6840	3.6839	0.9911	6.04	0.06	0.750			
0.7285	46626.43	3.6810	3.6810	0.9668	6.03	0.05	0.750			
0.7314	46808.74	3.6780	3.6783	0.9488	6.03	0.05	0.750			
0.7342	46989.16	3.6750	3.6749	0.9294	6.02	0.04	0.750			
0.7369	47163.38	3.6720	3.6720	0.9080	6.01	0.03	0.750			
0.7396	47335.54	3.6690	3.6691	0.8978	6.01	0.03	0.750			
0.7423	47506.17	3.6660	3.6660	0.8928	6.01	0.03	0.750			
0.7449	47674.52	3.6630	3.6630	0.8932	6.00	0.02	0.750			
0.7476	47846.14	3.6600	3.6599	0.8928	6.00	0.02	0.750			
0.7503	48016.39	3.6570	3.6568	0.8907	6.00	0.02	0.750			
0.7530	48188.91	3.6540	3.6541	0.8995	6.00	0.02	0.750			
0.7557	48362.43	3.6510	3.6511	0.9059	6.00	0.02	0.750			
0.7584	48538.12	3.6480	3.6479	0.9064	5.99	0.01	0.750			
0.7612	48714.19	3.6450	3.6450	0.9006	5.99	0.01	0.750			
0.7639	48888.23	3.6420	3.6420	0.8784	5.99	0.01	0.750			
0.7666	49062.90	3.6390	3.6390	0.8308	5.99	0.01	0.750			
0.7692	49227.57	3.6360	3.6360	0.7716	5.99	0.01	0.750			
0.7714	49371.08	3.6330	3.6333	0.6808	5.98	0.00	0.750			
0.7734	49496.61	3.6300	3.6300	0.5821	5.98	0.00	0.750			
0.7750	49597.50	3.6270	3.6270	0.4812	5.98	0.00	0.750			
0.7760	49664.65	3.6240	3.6245	0.4013	5.98	-0.00	0.750			
0.7771	49731.32	3.6210	3.6213	0.3163	5.98	-0.00	0.750			
0.7779	49783.74	3.6180	3.6179	0.2508	5.98	-0.00	0.750			
0.7785	49822.17	3.6150	3.6139	0.1893	5.98	-0.00	0.750			
0.7788	49844.63	3.6120	3.6068	0.1278	5.98	-0.00	0.750			
0.7789	49849.24	3.5940	3.5949	-0.1070	5.98	-0.00	0.750			
0.7791	49860.99	3.6090	3.4482	0.0826	5.98	-0.00	0.750			
0.7792	49866.15	3.5970	3.3794	-0.0691	5.98	-0.00	0.750			
0.7793	49873.21	3.6060	3.2853	0.0446	5.98	-0.00	0.750			
0.7793	49875.79	3.6000	3.2508	-0.0312	5.98	-0.00	0.750			
0.7793	49878.14	3.6030	3.2195	0.0067	5.98	-0.00	0.750			
