Ah_balance (normalized)	Ah_balance (mAh)	Voltage - fit (V)	Voltage -  interpolate (V)	dQ/dV (1/V)	Temperature (°C)	Temperature - diff (°C)	Current (C)	R_DC 0ms (mOhm)	R_DC 50ms (mOhm)	R_DC 50 ms PEC (mOhm)
0.0921	5897.35	4.1990	4.1964	0.5132	8.52	2.46	0.750	0.402	0.847	
0.0941	6022.69	4.1960	4.1983	0.7319	8.51	2.45	0.750			
0.0966	6183.81	4.1930	4.1943	0.8041	8.50	2.44	0.750			
0.0991	6342.72	4.1900	4.1909	0.8086	8.49	2.43	0.750			
0.1018	6513.98	4.1870	4.1872	0.8057	8.49	2.43	0.750			
0.1042	6667.18	4.1840	4.1838	0.7572	8.48	2.42	0.750			
0.1062	6796.32	4.1810	4.1811	0.7058	8.47	2.41	0.750			
0.1083	6930.64	4.1780	4.1781	0.7001	8.47	2.41	0.750			
0.1104	7064.74	4.1750	4.1749	0.7020	8.46	2.40	0.750			
0.1125	7197.66	4.1720	4.1719	0.7042	8.45	2.39	0.750			
0.1146	7334.01	4.1690	4.1691	0.7004	8.45	2.39	0.750			
0.1167	7468.40	4.1660	4.1659	0.7053	8.44	2.38	0.750			
0.1188	7605.03	4.1630	4.1631	0.7094	8.44	2.38	0.750			
0.1209	7738.81	4.1600	4.1601	0.7216	8.43	2.37	0.750			
0.1231	7877.80	4.1570	4.1568	0.7289	8.43	2.37	0.750			
0.1253	8019.56	4.1540	4.1540	0.7296	8.42	2.36	0.750			
0.1275	8162.48	4.1510	4.1510	0.7273	8.42	2.36	0.750			
0.1298	8304.80	4.1480	4.1482	0.7291	8.41	2.35	0.750			
0.1319	8444.17	4.1450	4.1450	0.7243	8.41	2.35	0.750			
0.1341	8579.21	4.1420	4.1419	0.7251	8.40	2.34	0.750			
0.1362	8716.28	4.1390	4.1392	0.7284	8.40	2.34	0.750			
0.1384	8856.16	4.1360	4.1358	0.7372	8.39	2.33	0.750			
0.1406	8999.09	4.1330	4.1330	0.7439	8.38	2.32	0.750			
0.1429	9142.69	4.1300	4.1302	0.7519	8.37	2.31	0.750			
0.1452	9290.78	4.1270	4.1270	0.7604	8.37	2.31	0.750			
0.1475	9437.88	4.1240	4.1239	0.7612	8.36	2.30	0.750			
0.1498	9584.63	4.1210	4.1210	0.7595	8.35	2.29	0.750			
0.1520	9731.09	4.1180	4.1181	0.7497	8.35	2.29	0.750			
0.1543	9876.44	4.1150	4.1150	0.7490	8.34	2.28	0.750			
0.1565	10017.59	4.1120	4.1120	0.7439	8.34	2.28	0.750			
0.1587	10155.39	4.1090	4.1092	0.7482	8.33	2.27	0.750			
0.1609	10299.39	4.1060	4.1059	0.7635	8.33	2.27	0.750			
0.1632	10447.47	4.1030	4.1029	0.7706	8.32	2.26	0.750			
0.1656	10597.89	4.1000	4.1001	0.7824	8.32	2.26	0.750			
0.1680	10753.45	4.0970	4.0971	0.7947	8.31	2.25	0.750			
0.1704	10905.96	4.0940	4.0939	0.7882	8.30	2.24	0.750			
0.1728	11056.46	4.0910	4.0911	0.7862	8.30	2.24	0.750			
0.1751	11206.71	4.0880	4.0880	0.7813	8.29	2.23	0.750			
0.1774	11354.71	4.0850	4.0851	0.7834	8.29	2.23	0.750			
0.1798	11505.94	4.0820	4.0819	0.7867	8.28	2.22	0.750			
0.1821	11654.94	4.0790	4.0791	0.7903	8.28	2.22	0.750			
0.1845	11805.85	4.0760	4.0759	0.8048	8.27	2.21	0.750			
0.1869	11962.03	4.0730	4.0730	0.8184	8.26	2.20	0.750			
0.1894	12122.05	4.0700	4.0699	0.8180	8.26	2.20	0.750			
0.1919	12281.75	4.0670	4.0670	0.8254	8.25	2.19	0.750			
0.1944	12441.66	4.0640	4.0642	0.8188	8.24	2.18	0.750			
0.1969	12600.42	4.0610	4.0608	0.8145	8.23	2.17	0.750			
0.1993	12752.29	4.0580	4.0581	0.8072	8.23	2.17	0.750			
0.2017	12906.19	4.0550	4.0551	0.8003	8.22	2.16	0.750			
0.2040	13058.53	4.0520	4.0519	0.8103	8.21	2.15	0.750			
0.2065	13215.08	4.0490	4.0490	0.8217	8.21	2.15	0.750			
0.2089	13371.15	4.0460	4.0460	0.8232	8.20	2.14	0.750			
0.2114	13531.47	4.0430	4.0431	0.8361	8.20	2.14	0.750			
0.2140	13694.59	4.0400	4.0400	0.8441	8.19	2.13	0.750			
0.2165	13856.13	4.0370	4.0370	0.8549	8.18	2.12	0.750			
0.2191	14020.77	4.0340	4.0341	0.8606	8.18	2.12	0.750			
0.2217	14188.86	4.0310	4.0309	0.8650	8.17	2.11	0.750			
0.2243	14355.57	4.0280	4.0279	0.8707	8.16	2.10	0.750			
0.2270	14525.60	4.0250	4.0251	0.8706	8.16	2.10	0.750			
0.2296	14692.30	4.0220	4.0220	0.8702	8.15	2.09	0.750			
0.2322	14860.26	4.0190	4.0190	0.8621	8.14	2.08	0.750			
0.2348	15024.11	4.0160	4.0161	0.8563	8.13	2.07	0.750			
0.2373	15187.43	4.0130	4.0129	0.8511	8.12	2.06	0.750			
0.2398	15349.08	4.0100	4.0101	0.8540	8.11	2.05	0.750			
0.2423	15509.75	4.0070	4.0069	0.8574	8.11	2.05	0.750			
0.2449	15675.11	4.0040	4.0040	0.8696	8.10	2.04	0.750			
0.2475	15843.02	4.0010	4.0008	0.8754	8.09	2.03	0.750			
0.2502	16015.16	3.9980	3.9980	0.8855	8.08	2.02	0.750			
0.2529	16187.61	3.9950	3.9950	0.8910	8.07	2.01	0.750			
0.2556	16359.66	3.9920	3.9921	0.8948	8.06	2.00	0.750			
0.2582	16527.80	3.9890	3.9889	0.8962	8.06	2.00	0.750			
0.2609	16700.77	3.9860	3.9861	0.9056	8.05	1.99	0.750			
0.2637	16874.32	3.9830	3.9829	0.9078	8.04	1.98	0.750			
0.2664	17049.40	3.9800	3.9800	0.9185	8.03	1.97	0.750			
0.2692	17229.79	3.9770	3.9771	0.9258	8.02	1.96	0.750			
0.2720	17406.25	3.9740	3.9739	0.9327	8.01	1.95	0.750			
0.2748	17589.35	3.9710	3.9710	0.9232	8.00	1.94	0.750			
0.2776	17764.61	3.9680	3.9681	0.9226	8.00	1.94	0.750			
0.2803	17940.70	3.9650	3.9651	0.9277	7.99	1.93	0.750			
0.2831	18117.29	3.9620	3.9619	0.9421	7.98	1.92	0.750			
0.2859	18295.91	3.9590	3.9589	0.9484	7.98	1.92	0.750			
0.2888	18480.41	3.9560	3.9560	0.9529	7.97	1.91	0.750			
0.2917	18665.62	3.9530	3.9531	0.9624	7.96	1.90	0.750			
0.2946	18854.52	3.9500	3.9501	0.9743	7.95	1.89	0.750			
0.2975	19040.91	3.9470	3.9467	0.9730	7.94	1.88	0.750			
0.3004	19225.93	3.9440	3.9440	0.9718	7.93	1.87	0.750			
0.3033	19412.86	3.9410	3.9410	0.9740	7.92	1.86	0.750			
0.3063	19602.13	3.9380	3.9381	0.9806	7.91	1.85	0.750			
0.3092	19787.97	3.9350	3.9349	0.9904	7.90	1.84	0.750			
0.3122	19979.49	3.9320	3.9321	0.9980	7.89	1.83	0.750			
0.3152	20171.39	3.9290	3.9289	1.0130	7.88	1.82	0.750			
0.3182	20367.79	3.9260	3.9260	1.0301	7.87	1.81	0.750			
0.3214	20568.73	3.9230	3.9230	1.0429	7.86	1.80	0.750			
0.3245	20769.30	3.9200	3.9201	1.0515	7.85	1.79	0.750			
0.3277	20974.62	3.9170	3.9170	1.0579	7.84	1.78	0.750			
0.3309	21177.17	3.9140	3.9140	1.0612	7.83	1.77	0.750			
0.3341	21382.64	3.9110	3.9109	1.0685	7.81	1.75	0.750			
0.3373	21585.54	3.9080	3.9081	1.0720	7.80	1.74	0.750			
0.3405	21789.55	3.9050	3.9050	1.0865	7.79	1.73	0.750			
0.3438	22000.11	3.9020	3.9020	1.1032	7.78	1.72	0.750			
0.3471	22216.69	3.8990	3.8988	1.1055	7.77	1.71	0.750			
0.3505	22431.15	3.8960	3.8961	1.1205	7.76	1.70	0.750			
0.3538	22643.85	3.8930	3.8931	1.1359	7.75	1.69	0.750			
0.3572	22862.31	3.8900	3.8901	1.1501	7.74	1.68	0.750			
0.3607	23081.90	3.8870	3.8870	1.1600	7.73	1.67	0.750			
0.3642	23308.20	3.8840	3.8840	1.1780	7.71	1.65	0.750			
0.3678	23538.54	3.8810	3.8811	1.2009	7.69	1.63	0.750			
0.3715	23773.21	3.8780	3.8779	1.2141	7.67	1.61	0.750			
0.3751	24004.92	3.8750	3.8752	1.2348	7.66	1.60	0.750			
0.3788	24242.86	3.8720	3.8719	1.2506	7.64	1.58	0.750			
0.3826	24488.24	3.8690	3.8689	1.2594	7.63	1.57	0.750			
0.3864	24726.54	3.8660	3.8661	1.2823	7.62	1.56	0.750			
0.3902	24975.31	3.8630	3.8632	1.3152	7.60	1.54	0.750			
0.3943	25232.18	3.8600	3.8596	1.3412	7.59	1.53	0.750	0.377	0.881	
0.3983	25492.77	3.8570	3.8570	1.3692	7.58	1.52	0.750			
0.4025	25757.80	3.8540	3.8541	1.3784	7.56	1.50	0.750			
0.4067	26029.88	3.8510	3.8512	1.4084	7.54	1.48	0.750			
0.4110	26306.20	3.8480	3.8480	1.4404	7.52	1.46	0.750			
0.4153	26580.78	3.8450	3.8449	1.4399	7.50	1.44	0.750			
0.4197	26860.64	3.8420	3.8422	1.4526	7.48	1.42	0.750			
0.4240	27137.81	3.8390	3.8392	1.4740	7.46	1.40	0.750			
0.4285	27424.69	3.8360	3.8361	1.4845	7.45	1.39	0.750			
0.4330	27710.01	3.8330	3.8329	1.5228	7.43	1.37	0.750			
0.4375	27998.38	3.8300	3.8301	1.5614	7.41	1.35	0.750			
0.4422	28303.95	3.8270	3.8270	1.5976	7.39	1.33	0.750			
0.4471	28615.63	3.8240	3.8239	1.6482	7.37	1.31	0.750			
0.4522	28940.86	3.8210	3.8210	1.6870	7.35	1.29	0.750			
0.4573	29267.06	3.8180	3.8180	1.7111	7.32	1.26	0.750			
0.4627	29611.04	3.8150	3.8147	1.7306	7.30	1.24	0.750			
0.4678	29940.18	3.8120	3.8121	1.7497	7.27	1.21	0.750			
0.4730	30274.49	3.8090	3.8093	1.7532	7.25	1.19	0.750			
0.4784	30615.12	3.8060	3.8060	1.7901	7.22	1.16	0.750			
0.4836	30948.79	3.8030	3.8031	1.7980	7.20	1.14	0.750			
0.4891	31300.72	3.8000	3.7999	1.8576	7.17	1.11	0.750			
0.4947	31663.55	3.7970	3.7970	1.9132	7.14	1.08	0.750			
0.5005	32033.51	3.7940	3.7939	1.9731	7.11	1.05	0.750			
0.5066	32421.25	3.7910	3.7910	2.0057	7.09	1.03	0.750			
0.5127	32813.11	3.7880	3.7879	2.0410	7.06	1.00	0.750			
0.5190	33214.33	3.7850	3.7851	2.0538	7.03	0.97	0.750			
0.5251	33606.80	3.7820	3.7819	2.0486	6.99	0.93	0.750			
0.5311	33992.68	3.7790	3.7790	2.0787	6.96	0.90	0.750			
0.5374	34391.67	3.7760	3.7759	2.0935	6.93	0.87	0.750			
0.5437	34799.12	3.7730	3.7729	2.1460	6.90	0.84	0.750			
0.5503	35221.85	3.7700	3.7702	2.2162	6.87	0.81	0.750			
0.5571	35652.92	3.7670	3.7668	2.2671	6.83	0.77	0.750			
0.5639	36087.30	3.7640	3.7639	2.3016	6.80	0.74	0.750			
0.5708	36533.08	3.7610	3.7609	2.3326	6.77	0.71	0.750			
0.5778	36981.67	3.7580	3.7582	2.3983	6.73	0.67	0.750			
0.5852	37453.97	3.7550	3.7549	2.5050	6.70	0.64	0.750			
0.5929	37946.80	3.7520	3.7519	2.5557	6.66	0.60	0.750			
0.6007	38446.73	3.7490	3.7493	2.6986	6.62	0.56	0.750			
0.6089	38967.14	3.7460	3.7458	2.8470	6.58	0.52	0.750			
0.6176	39528.75	3.7430	3.7430	3.0072	6.55	0.49	0.750			
0.6274	40152.37	3.7400	3.7400	3.1914	6.51	0.45	0.750			
0.6369	40763.63	3.7370	3.7369	3.1976	6.46	0.40	0.750			
0.6465	41375.34	3.7340	3.7339	3.1560	6.43	0.37	0.750			
0.6560	41985.47	3.7310	3.7309	3.0893	6.40	0.34	0.750			
0.6651	42568.44	3.7280	3.7281	2.8791	6.36	0.30	0.750			
0.6735	43106.57	3.7250	3.7252	2.6204	6.33	0.27	0.750			
0.6808	43573.31	3.7220	3.7221	2.2943	6.30	0.24	0.750			
0.6871	43971.20	3.7190	3.7193	2.0158	6.28	0.22	0.750			
0.6928	44336.11	3.7160	3.7159	1.7853	6.27	0.21	0.750			
0.6975	44641.65	3.7130	3.7128	1.5779	6.26	0.20	0.750			
0.7018	44912.91	3.7100	3.7100	1.4222	6.25	0.19	0.750			
0.7057	45163.54	3.7070	3.7071	1.2991	6.23	0.17	0.750			
0.7093	45397.42	3.7040	3.7039	1.2237	6.22	0.16	0.750			
0.7128	45618.61	3.7010	3.7011	1.1572	6.21	0.15	0.750			
0.7161	45832.82	3.6980	3.6979	1.1364	6.20	0.14	0.750			
0.7195	46045.18	3.6950	3.6951	1.1144	6.20	0.14	0.750			
0.7228	46262.09	3.6920	3.6918	1.0910	6.19	0.13	0.750			
0.7261	46469.86	3.6890	3.6891	1.0793	6.18	0.12	0.750			
0.7293	46678.15	3.6860	3.6861	1.0585	6.17	0.11	0.750			
0.7325	46878.78	3.6830	3.6831	1.0336	6.16	0.10	0.750			
0.7355	47075.11	3.6800	3.6798	1.0048	6.15	0.09	0.750			
0.7385	47262.72	3.6770	3.6772	0.9778	6.14	0.08	0.750			
0.7414	47448.31	3.6740	3.6740	0.9616	6.13	0.07	0.750			
0.7442	47630.98	3.6710	3.6711	0.9482	6.13	0.07	0.750			
0.7470	47810.56	3.6680	3.6677	0.9271	6.12	0.06	0.750			
0.7498	47989.06	3.6650	3.6651	0.9168	6.12	0.06	0.750			
0.7525	48160.82	3.6620	3.6621	0.9125	6.11	0.05	0.750			
0.7552	48334.36	3.6590	3.6590	0.9119	6.11	0.05	0.750			
0.7579	48507.70	3.6560	3.6560	0.9174	6.10	0.04	0.750			
0.7606	48680.87	3.6530	3.6529	0.9216	6.10	0.04	0.750			
0.7634	48859.91	3.6500	3.6501	0.9266	6.09	0.03	0.750			
0.7663	49041.27	3.6470	3.6470	0.9396	6.08	0.02	0.750			
0.7691	49222.45	3.6440	3.6440	0.9429	6.08	0.02	0.750			
0.7720	49405.25	3.6410	3.6407	0.9342	6.07	0.01	0.750			
0.7748	49588.08	3.6380	3.6380	0.9165	6.07	0.01	0.750			
0.7776	49767.35	3.6350	3.6350	0.8659	6.07	0.01	0.750			
0.7803	49942.24	3.6320	3.6320	0.7988	6.06	0.00	0.750			
0.7827	50090.49	3.6290	3.6291	0.6959	6.06	0.00	0.750			
0.7846	50215.15	3.6260	3.6260	0.5890	6.06	0.00	0.750			
0.7859	50299.65	3.6230	3.6236	0.4882	6.06	-0.00	0.750			
0.7873	50384.39	3.6200	3.6203	0.3996	6.06	-0.00	0.750			
0.7883	50448.32	3.6170	3.6170	0.3070	6.06	-0.00	0.750			
0.7890	50494.18	3.6140	3.6136	0.2265	6.06	-0.00	0.750			
0.7895	50529.44	3.6110	3.6094	0.1682	6.06	-0.00	0.750			
0.7898	50548.08	3.6080	3.5960	0.1093	6.06	-0.00	0.750			
0.7898	50548.78	3.5930	3.5931	-0.1018	6.06	-0.00	0.750			
0.7900	50562.88	3.6050	3.4319	0.0651	6.06	-0.00	0.732			
0.7901	50564.32	3.5960	3.4150	-0.0601	6.06	-0.00	0.730			
0.7902	50571.37	3.6020	3.3316	0.0233	6.06	-0.00	0.720			
0.7902	50571.85	3.5990	3.3259	-0.0184	6.06	-0.00	0.720			
