Ah_balance (normalized)	Ah_balance (mAh)	Voltage - fit (V)	Voltage -  interpolate (V)	dQ/dV (1/V)	Temperature (°C)	Temperature - diff (°C)	Current (C)	R_DC 0ms (mOhm)	R_DC 50ms (mOhm)	R_DC 50 ms PEC (mOhm)
0.0931	5955.26	4.1980	4.1941	1.0811	7.98	1.98	0.750	0.405	0.923	
0.0961	6147.30	4.1950	4.1962	0.9513	7.98	1.98	0.750			
0.0988	6320.36	4.1920	4.1924	0.8709	7.97	1.97	0.750			
0.1012	6475.55	4.1890	4.1890	0.8148	7.96	1.96	0.750			
0.1034	6620.02	4.1860	4.1858	0.7615	7.96	1.96	0.750			
0.1056	6755.29	4.1830	4.1832	0.7272	7.95	1.95	0.750			
0.1077	6895.87	4.1800	4.1800	0.7271	7.95	1.95	0.750			
0.1099	7034.76	4.1770	4.1771	0.7277	7.95	1.95	0.750			
0.1121	7175.02	4.1740	4.1738	0.7234	7.94	1.94	0.750			
0.1142	7311.47	4.1710	4.1711	0.7260	7.94	1.94	0.750			
0.1164	7450.51	4.1680	4.1681	0.7324	7.93	1.93	0.750			
0.1186	7592.45	4.1650	4.1649	0.7389	7.93	1.93	0.750			
0.1209	7735.02	4.1620	4.1619	0.7433	7.93	1.93	0.750			
0.1231	7878.98	4.1590	4.1590	0.7456	7.92	1.92	0.750			
0.1254	8023.56	4.1560	4.1560	0.7421	7.92	1.92	0.750			
0.1276	8168.45	4.1530	4.1530	0.7451	7.92	1.92	0.750			
0.1298	8308.10	4.1500	4.1501	0.7440	7.91	1.91	0.750			
0.1320	8449.60	4.1470	4.1470	0.7417	7.91	1.91	0.750			
0.1342	8591.50	4.1440	4.1439	0.7505	7.91	1.91	0.750			
0.1365	8734.96	4.1410	4.1411	0.7567	7.90	1.90	0.750			
0.1388	8882.11	4.1380	4.1380	0.7648	7.90	1.90	0.750			
0.1411	9031.35	4.1350	4.1349	0.7735	7.90	1.90	0.750			
0.1435	9181.05	4.1320	4.1321	0.7720	7.89	1.89	0.750			
0.1458	9329.80	4.1290	4.1290	0.7690	7.89	1.89	0.750			
0.1481	9479.62	4.1260	4.1261	0.7661	7.89	1.89	0.750			
0.1504	9625.07	4.1230	4.1230	0.7541	7.89	1.89	0.750			
0.1526	9765.48	4.1200	4.1200	0.7542	7.88	1.88	0.750			
0.1549	9910.51	4.1170	4.1171	0.7556	7.88	1.88	0.750			
0.1571	10053.04	4.1140	4.1138	0.7633	7.88	1.88	0.750			
0.1594	10200.65	4.1110	4.1110	0.7745	7.87	1.87	0.750			
0.1617	10351.55	4.1080	4.1081	0.7776	7.87	1.87	0.750			
0.1641	10503.65	4.1050	4.1049	0.7861	7.86	1.86	0.750			
0.1665	10655.26	4.1020	4.1021	0.7887	7.86	1.86	0.750			
0.1689	10806.59	4.0990	4.0989	0.7880	7.85	1.85	0.750			
0.1712	10957.88	4.0960	4.0960	0.7929	7.85	1.85	0.750			
0.1736	11109.07	4.0930	4.0931	0.7908	7.84	1.84	0.750			
0.1760	11261.77	4.0900	4.0899	0.7966	7.84	1.84	0.750			
0.1784	11414.64	4.0870	4.0869	0.8046	7.84	1.84	0.750			
0.1808	11568.31	4.0840	4.0841	0.8059	7.83	1.83	0.750			
0.1832	11724.02	4.0810	4.0811	0.8076	7.83	1.83	0.750			
0.1857	11882.45	4.0780	4.0779	0.8103	7.83	1.83	0.750			
0.1881	12037.55	4.0750	4.0751	0.8121	7.83	1.83	0.750			
0.1905	12193.69	4.0720	4.0719	0.8151	7.82	1.82	0.750			
0.1930	12349.22	4.0690	4.0691	0.8171	7.82	1.82	0.750			
0.1954	12504.38	4.0660	4.0661	0.8238	7.82	1.82	0.750			
0.1979	12664.12	4.0630	4.0631	0.8305	7.81	1.81	0.750			
0.2004	12823.58	4.0600	4.0598	0.8388	7.81	1.81	0.750			
0.2029	12986.66	4.0570	4.0570	0.8366	7.81	1.81	0.750			
0.2054	13148.62	4.0540	4.0541	0.8382	7.80	1.80	0.750			
0.2080	13309.19	4.0510	4.0509	0.8355	7.80	1.80	0.750			
0.2105	13470.42	4.0480	4.0481	0.8310	7.79	1.79	0.750			
0.2129	13627.24	4.0450	4.0450	0.8340	7.79	1.79	0.750			
0.2154	13787.61	4.0420	4.0420	0.8375	7.79	1.79	0.750			
0.2179	13944.88	4.0390	4.0391	0.8388	7.78	1.78	0.750			
0.2205	14109.61	4.0360	4.0360	0.8561	7.78	1.78	0.750			
0.2231	14276.07	4.0330	4.0329	0.8589	7.77	1.77	0.750			
0.2257	14442.80	4.0300	4.0300	0.8627	7.77	1.77	0.750			
0.2283	14610.26	4.0270	4.0271	0.8640	7.76	1.76	0.750			
0.2308	14773.80	4.0240	4.0241	0.8636	7.75	1.75	0.750			
0.2335	14941.02	4.0210	4.0209	0.8705	7.75	1.75	0.750			
0.2360	15105.94	4.0180	4.0180	0.8668	7.74	1.74	0.750			
0.2386	15273.27	4.0150	4.0151	0.8725	7.74	1.74	0.750			
0.2413	15442.89	4.0120	4.0120	0.8831	7.74	1.74	0.750			
0.2439	15611.54	4.0090	4.0089	0.8857	7.73	1.73	0.750			
0.2466	15782.86	4.0060	4.0059	0.8865	7.72	1.72	0.750			
0.2492	15951.97	4.0030	4.0030	0.8886	7.72	1.72	0.750			
0.2520	16125.20	4.0000	4.0000	0.8897	7.71	1.71	0.750			
0.2546	16296.20	3.9970	3.9970	0.8926	7.71	1.71	0.750			
0.2573	16467.07	3.9940	3.9940	0.8936	7.70	1.70	0.750			
0.2600	16639.80	3.9910	3.9910	0.8870	7.70	1.70	0.750			
0.2626	16807.83	3.9880	3.9879	0.8944	7.69	1.69	0.750			
0.2653	16978.55	3.9850	3.9851	0.9092	7.69	1.69	0.750			
0.2680	17153.57	3.9820	3.9820	0.9162	7.68	1.68	0.750			
0.2708	17331.65	3.9790	3.9790	0.9304	7.68	1.68	0.750			
0.2736	17513.10	3.9760	3.9760	0.9281	7.67	1.67	0.750			
0.2764	17692.38	3.9730	3.9731	0.9334	7.67	1.67	0.750			
0.2793	17873.66	3.9700	3.9700	0.9398	7.66	1.66	0.750			
0.2820	18049.73	3.9670	3.9667	0.9404	7.66	1.66	0.750			
0.2848	18229.41	3.9640	3.9640	0.9391	7.65	1.65	0.750			
0.2877	18410.95	3.9610	3.9611	0.9547	7.65	1.65	0.750			
0.2906	18597.96	3.9580	3.9580	0.9581	7.64	1.64	0.750			
0.2935	18784.09	3.9550	3.9550	0.9519	7.63	1.63	0.750			
0.2964	18968.02	3.9520	3.9521	0.9478	7.63	1.63	0.750			
0.2992	19147.28	3.9490	3.9490	0.9534	7.62	1.62	0.750			
0.3020	19328.18	3.9460	3.9460	0.9658	7.61	1.61	0.750			
0.3049	19513.40	3.9430	3.9429	0.9788	7.60	1.60	0.750			
0.3079	19703.78	3.9400	3.9401	0.9785	7.60	1.60	0.750			
0.3109	19895.17	3.9370	3.9371	0.9924	7.59	1.59	0.750			
0.3139	20089.68	3.9340	3.9340	1.0018	7.59	1.59	0.750			
0.3169	20281.56	3.9310	3.9311	1.0023	7.58	1.58	0.750			
0.3199	20470.88	3.9280	3.9279	1.0014	7.58	1.58	0.750			
0.3229	20662.80	3.9250	3.9250	0.9973	7.57	1.57	0.750			
0.3258	20853.40	3.9220	3.9222	1.0088	7.56	1.56	0.750			
0.3289	21047.02	3.9190	3.9190	1.0279	7.56	1.56	0.750			
0.3320	21246.38	3.9160	3.9155	1.0391	7.55	1.55	0.750			
0.3351	21445.89	3.9130	3.9130	1.0567	7.54	1.54	0.750			
0.3383	21651.95	3.9100	3.9100	1.0755	7.53	1.53	0.750			
0.3416	21864.70	3.9070	3.9072	1.0916	7.53	1.53	0.750			
0.3450	22077.75	3.9040	3.9038	1.0896	7.52	1.52	0.750			
0.3482	22286.07	3.9010	3.9011	1.1009	7.51	1.51	0.750			
0.3515	22493.30	3.8980	3.8981	1.1083	7.50	1.50	0.750			
0.3548	22708.59	3.8950	3.8951	1.1236	7.50	1.50	0.750			
0.3582	22926.38	3.8920	3.8919	1.1295	7.49	1.49	0.750			
0.3616	23143.24	3.8890	3.8891	1.1495	7.48	1.48	0.750			
0.3651	23367.44	3.8860	3.8862	1.1720	7.46	1.46	0.750			
0.3687	23594.35	3.8830	3.8828	1.1894	7.45	1.45	0.750			
0.3722	23823.45	3.8800	3.8799	1.1967	7.45	1.45	0.750			
0.3759	24057.35	3.8770	3.8772	1.2126	7.44	1.44	0.750			
0.3796	24291.65	3.8740	3.8739	1.2230	7.43	1.43	0.750			
0.3833	24530.07	3.8710	3.8710	1.2428	7.43	1.43	0.750			
0.3869	24762.84	3.8680	3.8681	1.2516	7.41	1.41	0.750			
0.3907	25006.35	3.8650	3.8649	1.2714	7.40	1.40	0.750			
0.3946	25254.06	3.8620	3.8619	1.2898	7.39	1.39	0.750			
0.3985	25501.80	3.8590	3.8591	1.3137	7.38	1.38	0.750			
0.4024	25754.08	3.8560	3.8561	1.3441	7.37	1.37	0.750			
0.4064	26012.55	3.8530	3.8528	1.3814	7.36	1.36	0.750			
0.4106	26280.70	3.8500	3.8500	1.4071	7.35	1.35	0.750	0.426	0.929	
0.4150	26558.02	3.8470	3.8471	1.4363	7.33	1.33	0.750			
0.4194	26843.70	3.8440	3.8438	1.4721	7.32	1.32	0.750			
0.4239	27131.64	3.8410	3.8410	1.4682	7.30	1.30	0.750			
0.4283	27413.12	3.8380	3.8380	1.5108	7.28	1.28	0.750			
0.4328	27696.28	3.8350	3.8351	1.5422	7.27	1.27	0.750			
0.4374	27993.55	3.8320	3.8317	1.5749	7.25	1.25	0.750			
0.4423	28307.36	3.8290	3.8291	1.6018	7.24	1.24	0.750			
0.4471	28616.26	3.8260	3.8262	1.6221	7.22	1.22	0.750			
0.4521	28932.39	3.8230	3.8231	1.6420	7.21	1.21	0.750			
0.4570	29251.17	3.8200	3.8197	1.6729	7.19	1.19	0.750			
0.4619	29562.31	3.8170	3.8169	1.6991	7.17	1.17	0.750			
0.4670	29888.27	3.8140	3.8142	1.7634	7.16	1.16	0.750			
0.4724	30235.39	3.8110	3.8110	1.8298	7.14	1.14	0.750			
0.4781	30597.53	3.8080	3.8080	1.8788	7.12	1.12	0.750			
0.4839	30966.51	3.8050	3.8051	1.9185	7.10	1.10	0.750			
0.4897	31341.22	3.8020	3.8020	1.9657	7.07	1.07	0.750			
0.4957	31722.07	3.7990	3.7991	1.9976	7.05	1.05	0.750			
0.5017	32105.88	3.7960	3.7960	2.0254	7.03	1.03	0.750			
0.5077	32494.42	3.7930	3.7930	2.0845	7.01	1.01	0.750			
0.5140	32898.80	3.7900	3.7900	2.1373	6.98	0.98	0.750			
0.5206	33318.21	3.7870	3.7869	2.1778	6.96	0.96	0.750			
0.5272	33742.10	3.7840	3.7839	2.2040	6.93	0.93	0.750			
0.5340	34174.49	3.7810	3.7811	2.2328	6.90	0.90	0.750			
0.5406	34596.94	3.7780	3.7780	2.2712	6.88	0.88	0.750			
0.5475	35039.75	3.7750	3.7753	2.3195	6.85	0.85	0.750			
0.5545	35485.35	3.7720	3.7719	2.4044	6.82	0.82	0.750			
0.5618	35955.20	3.7690	3.7691	2.4694	6.79	0.79	0.750			
0.5695	36450.60	3.7660	3.7661	2.5387	6.76	0.76	0.750			
0.5770	36928.73	3.7630	3.7631	2.5537	6.73	0.73	0.750			
0.5849	37431.09	3.7600	3.7599	2.5347	6.70	0.70	0.750			
0.5923	37905.83	3.7570	3.7571	2.5683	6.66	0.66	0.750			
0.6000	38399.86	3.7540	3.7537	2.6384	6.63	0.63	0.750			
0.6080	38914.18	3.7510	3.7511	2.6821	6.61	0.61	0.750			
0.6163	39444.55	3.7480	3.7481	2.7663	6.57	0.57	0.750			
0.6246	39972.05	3.7450	3.7449	2.8133	6.54	0.54	0.750			
0.6332	40524.97	3.7420	3.7419	2.9605	6.50	0.50	0.750			
0.6424	41114.73	3.7390	3.7389	3.1581	6.47	0.47	0.750			
0.6521	41737.43	3.7360	3.7360	3.2358	6.43	0.43	0.750			
0.6621	42371.65	3.7330	3.7328	3.3171	6.39	0.39	0.750			
0.6719	43001.76	3.7300	3.7301	3.3138	6.36	0.36	0.750			
0.6821	43656.32	3.7270	3.7270	3.3215	6.32	0.32	0.750			
0.6920	44285.76	3.7240	3.7241	3.1586	6.30	0.30	0.750			
0.7013	44881.99	3.7210	3.7210	2.8869	6.26	0.26	0.750			
0.7095	45405.48	3.7180	3.7180	2.5971	6.23	0.23	0.750			
0.7168	45874.65	3.7150	3.7148	2.3344	6.21	0.21	0.750			
0.7234	46297.58	3.7120	3.7120	2.0726	6.19	0.19	0.750			
0.7292	46669.84	3.7090	3.7090	1.8329	6.17	0.17	0.750			
0.7344	46998.90	3.7060	3.7061	1.6394	6.15	0.15	0.750			
0.7387	47279.29	3.7030	3.7029	1.4625	6.14	0.14	0.750			
0.7427	47532.82	3.7000	3.6998	1.3176	6.13	0.13	0.750			
0.7463	47762.03	3.6970	3.6973	1.2156	6.13	0.13	0.750			
0.7497	47981.86	3.6940	3.6940	1.1568	6.12	0.12	0.750			
0.7531	48197.89	3.6910	3.6910	1.1244	6.11	0.11	0.750			
0.7563	48405.65	3.6880	3.6878	1.0922	6.10	0.10	0.750			
0.7596	48613.52	3.6850	3.6849	1.0694	6.09	0.09	0.750			
0.7627	48815.56	3.6820	3.6821	1.0549	6.09	0.09	0.750			
0.7659	49017.61	3.6790	3.6790	1.0399	6.08	0.08	0.750			
0.7690	49217.24	3.6760	3.6758	1.0149	6.07	0.07	0.750			
0.7720	49408.08	3.6730	3.6730	0.9863	6.06	0.06	0.750			
0.7749	49596.58	3.6700	3.6702	0.9706	6.06	0.06	0.750			
0.7778	49780.75	3.6670	3.6669	0.9505	6.05	0.05	0.750			
0.7806	49959.27	3.6640	3.6639	0.9262	6.04	0.04	0.750			
0.7834	50135.22	3.6610	3.6611	0.9066	6.04	0.04	0.750			
0.7861	50308.81	3.6580	3.6580	0.8886	6.03	0.03	0.750			
0.7887	50477.66	3.6550	3.6549	0.8749	6.03	0.03	0.750			
0.7913	50640.84	3.6520	3.6523	0.8594	6.03	0.03	0.750			
0.7938	50803.33	3.6490	3.6489	0.8484	6.02	0.02	0.750			
0.7964	50966.93	3.6460	3.6460	0.8369	6.02	0.02	0.750			
0.7989	51129.04	3.6430	3.6428	0.8197	6.01	0.01	0.750			
0.8013	51285.68	3.6400	3.6402	0.8105	6.00	0.00	0.750			
0.8037	51438.98	3.6370	3.6371	0.7951	6.00	-0.00	0.750			
0.8061	51590.58	3.6340	3.6338	0.7664	5.99	-0.01	0.750			
0.8084	51739.53	3.6310	3.6309	0.7277	5.99	-0.01	0.750			
0.8106	51879.05	3.6280	3.6280	0.6842	5.99	-0.01	0.750			
0.8127	52009.70	3.6250	3.6253	0.6218	5.99	-0.01	0.750			
0.8145	52128.58	3.6220	3.6219	0.5554	6.00	-0.00	0.750			
0.8160	52225.11	3.6190	3.6189	0.4708	6.00	-0.00	0.750			
0.8173	52306.64	3.6160	3.6160	0.3934	6.00	-0.00	0.750			
0.8183	52370.68	3.6130	3.6132	0.3305	6.00	-0.00	0.750			
0.8192	52426.83	3.6100	3.6100	0.2645	6.00	-0.00	0.750			
0.8198	52469.24	3.6070	3.6069	0.2001	6.00	0.00	0.750			
0.8203	52501.17	3.6040	3.6036	0.1451	6.00	0.00	0.750			
0.8207	52522.03	3.6010	3.5999	0.0927	6.00	0.00	0.750			
0.8208	52532.68	3.5980	3.5880	0.0451	6.00	0.00	0.750			
0.8208	52532.75	3.5920	3.5877	-0.0448	6.00	0.00	0.750			
0.8209	52537.03	3.5950	3.5603	0.0002	6.00	0.00	0.755			
