Ah_balance (normalized)	Ah_balance (mAh)	Voltage - fit (V)	Voltage -  interpolate (V)	dQ/dV (1/V)	Temperature (°C)	Temperature - diff (°C)	Current (C)	R_DC 0ms (mOhm)	R_DC 50ms (mOhm)	R_DC 50 ms PEC (mOhm)
0.0926	5929.46	4.1980	4.1907	0.7216	8.32	2.33	0.750	0.438	0.842	
0.0950	6080.13	4.1950	4.1970	0.8056	8.31	2.32	0.750			
0.0976	6244.77	4.1920	4.1931	0.8136	8.30	2.31	0.750			
0.1000	6399.77	4.1890	4.1894	0.7879	8.29	2.30	0.750			
0.1026	6565.77	4.1860	4.1858	0.8035	8.28	2.29	0.750			
0.1049	6712.12	4.1830	4.1826	0.7616	8.27	2.28	0.750			
0.1066	6824.35	4.1800	4.1800	0.7089	8.27	2.28	0.750			
0.1087	6959.79	4.1770	4.1769	0.7152	8.26	2.27	0.750			
0.1109	7095.55	4.1740	4.1741	0.7199	8.25	2.26	0.750			
0.1131	7235.77	4.1710	4.1707	0.7231	8.24	2.25	0.750			
0.1153	7377.03	4.1680	4.1681	0.7245	8.23	2.24	0.750			
0.1175	7517.81	4.1650	4.1651	0.7228	8.23	2.24	0.750			
0.1197	7657.66	4.1620	4.1619	0.7220	8.22	2.23	0.750			
0.1218	7793.32	4.1590	4.1591	0.7113	8.22	2.23	0.750			
0.1239	7929.43	4.1560	4.1561	0.7188	8.21	2.22	0.750			
0.1260	8066.24	4.1530	4.1530	0.7231	8.21	2.22	0.750			
0.1282	8205.89	4.1500	4.1499	0.7365	8.20	2.21	0.750			
0.1305	8348.98	4.1470	4.1471	0.7401	8.19	2.20	0.750			
0.1327	8492.12	4.1440	4.1439	0.7482	8.18	2.19	0.750			
0.1350	8638.10	4.1410	4.1411	0.7518	8.17	2.18	0.750			
0.1373	8784.61	4.1380	4.1379	0.7516	8.16	2.17	0.750			
0.1395	8928.48	4.1350	4.1351	0.7437	8.16	2.17	0.750			
0.1417	9070.39	4.1320	4.1320	0.7415	8.15	2.16	0.750			
0.1439	9209.90	4.1290	4.1290	0.7446	8.15	2.16	0.750			
0.1461	9351.45	4.1260	4.1261	0.7454	8.15	2.16	0.750			
0.1484	9496.05	4.1230	4.1229	0.7587	8.14	2.15	0.750			
0.1507	9644.88	4.1200	4.1199	0.7666	8.14	2.15	0.750			
0.1530	9794.78	4.1170	4.1171	0.7703	8.13	2.14	0.750			
0.1554	9945.37	4.1140	4.1139	0.7768	8.12	2.13	0.750			
0.1577	10094.60	4.1110	4.1111	0.7675	8.11	2.12	0.750			
0.1600	10237.50	4.1080	4.1079	0.7653	8.10	2.11	0.750			
0.1622	10383.82	4.1050	4.1050	0.7724	8.09	2.10	0.750			
0.1646	10531.53	4.1020	4.1020	0.7754	8.09	2.10	0.750			
0.1669	10682.15	4.0990	4.0990	0.7829	8.08	2.09	0.750			
0.1693	10835.38	4.0960	4.0960	0.7890	8.07	2.08	0.750			
0.1717	10986.38	4.0930	4.0931	0.7920	8.07	2.08	0.750			
0.1741	11141.54	4.0900	4.0900	0.7925	8.06	2.07	0.750			
0.1764	11290.89	4.0870	4.0869	0.7865	8.06	2.07	0.750			
0.1788	11441.03	4.0840	4.0841	0.7880	8.05	2.06	0.750			
0.1811	11591.75	4.0810	4.0810	0.7958	8.04	2.05	0.750			
0.1835	11744.94	4.0780	4.0780	0.8048	8.03	2.04	0.750			
0.1859	11900.14	4.0750	4.0751	0.8138	8.03	2.04	0.750			
0.1884	12057.78	4.0720	4.0719	0.8184	8.02	2.03	0.750			
0.1909	12218.98	4.0690	4.0691	0.8230	8.01	2.02	0.750			
0.1934	12376.34	4.0660	4.0660	0.8233	8.00	2.01	0.750			
0.1958	12533.69	4.0630	4.0631	0.8241	7.99	2.00	0.750			
0.1983	12691.59	4.0600	4.0600	0.8249	7.99	2.00	0.750			
0.2008	12848.41	4.0570	4.0568	0.8259	7.98	1.99	0.750			
0.2033	13008.57	4.0540	4.0541	0.8247	7.97	1.98	0.750			
0.2057	13167.73	4.0510	4.0510	0.8327	7.96	1.97	0.750			
0.2082	13326.48	4.0480	4.0481	0.8364	7.96	1.97	0.750			
0.2108	13488.78	4.0450	4.0449	0.8344	7.95	1.96	0.750			
0.2133	13648.05	4.0420	4.0419	0.8372	7.94	1.95	0.750			
0.2158	13810.16	4.0390	4.0390	0.8384	7.93	1.94	0.750			
0.2183	13971.14	4.0360	4.0360	0.8416	7.92	1.93	0.750			
0.2208	14134.28	4.0330	4.0329	0.8422	7.91	1.92	0.750			
0.2233	14293.45	4.0300	4.0300	0.8402	7.91	1.92	0.750			
0.2258	14454.03	4.0270	4.0270	0.8451	7.90	1.91	0.750			
0.2284	14618.07	4.0240	4.0240	0.8536	7.89	1.90	0.750			
0.2309	14780.53	4.0210	4.0209	0.8622	7.89	1.90	0.750			
0.2336	14949.38	4.0180	4.0180	0.8715	7.88	1.89	0.750			
0.2362	15118.22	4.0150	4.0150	0.8764	7.87	1.88	0.750			
0.2389	15289.10	4.0120	4.0122	0.8760	7.87	1.88	0.750			
0.2415	15458.35	4.0090	4.0090	0.8661	7.86	1.87	0.750			
0.2441	15620.95	4.0060	4.0060	0.8737	7.85	1.86	0.750			
0.2467	15786.94	4.0030	4.0030	0.8822	7.84	1.85	0.750			
0.2493	15954.17	4.0000	4.0000	0.8936	7.82	1.83	0.750			
0.2520	16129.28	3.9970	3.9970	0.9000	7.82	1.83	0.750			
0.2548	16307.11	3.9940	3.9941	0.9056	7.81	1.82	0.750			
0.2576	16483.33	3.9910	3.9912	0.9060	7.80	1.81	0.750			
0.2603	16657.26	3.9880	3.9879	0.9050	7.80	1.81	0.750			
0.2629	16824.55	3.9850	3.9850	0.9059	7.79	1.80	0.750			
0.2656	16997.21	3.9820	3.9820	0.9040	7.78	1.79	0.750			
0.2683	17171.84	3.9790	3.9789	0.9121	7.77	1.78	0.750			
0.2711	17352.52	3.9760	3.9761	0.9265	7.76	1.77	0.750			
0.2739	17532.11	3.9730	3.9731	0.9263	7.75	1.76	0.750			
0.2767	17709.28	3.9700	3.9701	0.9276	7.74	1.75	0.750			
0.2795	17885.08	3.9670	3.9669	0.9225	7.73	1.74	0.750			
0.2822	18059.41	3.9640	3.9641	0.9301	7.72	1.73	0.750			
0.2850	18238.43	3.9610	3.9609	0.9484	7.71	1.72	0.750			
0.2878	18420.39	3.9580	3.9578	0.9588	7.70	1.71	0.750			
0.2908	18609.89	3.9550	3.9549	0.9608	7.69	1.70	0.750			
0.2937	18795.50	3.9520	3.9521	0.9701	7.68	1.69	0.750			
0.2966	18983.80	3.9490	3.9491	0.9750	7.67	1.68	0.750			
0.2995	19169.78	3.9460	3.9461	0.9754	7.66	1.67	0.750			
0.3025	19358.11	3.9430	3.9429	0.9778	7.65	1.66	0.750			
0.3054	19543.26	3.9400	3.9402	0.9812	7.64	1.65	0.750			
0.3083	19734.02	3.9370	3.9370	0.9917	7.63	1.64	0.750			
0.3113	19925.26	3.9340	3.9341	1.0041	7.62	1.63	0.750			
0.3144	20121.63	3.9310	3.9310	1.0080	7.61	1.62	0.750			
0.3174	20314.42	3.9280	3.9280	1.0163	7.60	1.61	0.750			
0.3205	20510.59	3.9250	3.9251	1.0227	7.59	1.60	0.750			
0.3235	20707.08	3.9220	3.9220	1.0345	7.58	1.59	0.750			
0.3266	20905.47	3.9190	3.9190	1.0464	7.57	1.58	0.750			
0.3298	21106.56	3.9160	3.9160	1.0646	7.55	1.56	0.750			
0.3330	21312.90	3.9130	3.9130	1.0702	7.54	1.55	0.750			
0.3363	21524.53	3.9100	3.9099	1.0749	7.53	1.54	0.750			
0.3396	21734.93	3.9070	3.9071	1.0640	7.51	1.52	0.750			
0.3428	21937.26	3.9040	3.9042	1.0729	7.50	1.51	0.750			
0.3459	22135.70	3.9010	3.9011	1.0932	7.49	1.50	0.750			
0.3491	22342.22	3.8980	3.8979	1.1086	7.48	1.49	0.750			
0.3525	22557.88	3.8950	3.8950	1.1255	7.46	1.47	0.750			
0.3559	22778.62	3.8920	3.8922	1.1660	7.45	1.46	0.750			
0.3595	23008.85	3.8890	3.8892	1.1849	7.44	1.45	0.750			
0.3632	23243.18	3.8860	3.8855	1.2021	7.43	1.44	0.750			
0.3667	23469.65	3.8830	3.8832	1.2073	7.42	1.43	0.750			
0.3704	23704.28	3.8800	3.8802	1.2139	7.40	1.41	0.750			
0.3741	23944.09	3.8770	3.8768	1.2249	7.39	1.40	0.750			
0.3778	24179.99	3.8740	3.8741	1.2381	7.37	1.38	0.750			
0.3814	24408.76	3.8710	3.8711	1.2401	7.36	1.37	0.750			
0.3851	24649.49	3.8680	3.8680	1.2637	7.34	1.35	0.750			
0.3890	24893.03	3.8650	3.8650	1.2809	7.33	1.34	0.750			
0.3928	25138.09	3.8620	3.8620	1.3076	7.31	1.32	0.750			
0.3968	25396.12	3.8590	3.8591	1.3413	7.29	1.30	0.750			
0.4009	25654.46	3.8560	3.8559	1.3647	7.28	1.29	0.750	0.417	0.914	
0.4050	25918.27	3.8530	3.8530	1.3891	7.26	1.27	0.750			
0.4092	26190.38	3.8500	3.8501	1.4075	7.24	1.25	0.750			
0.4135	26466.87	3.8470	3.8469	1.4193	7.22	1.23	0.750			
0.4178	26738.07	3.8440	3.8441	1.4530	7.20	1.21	0.750			
0.4221	27016.60	3.8410	3.8411	1.4667	7.18	1.19	0.750			
0.4266	27302.39	3.8380	3.8380	1.4965	7.17	1.18	0.750			
0.4311	27593.00	3.8350	3.8350	1.5171	7.15	1.16	0.750			
0.4357	27882.29	3.8320	3.8322	1.5576	7.13	1.14	0.750			
0.4404	28188.50	3.8290	3.8290	1.5860	7.11	1.12	0.750			
0.4452	28493.17	3.8260	3.8260	1.6378	7.09	1.10	0.750			
0.4501	28805.76	3.8230	3.8230	1.6576	7.07	1.08	0.750			
0.4552	29135.01	3.8200	3.8201	1.6896	7.05	1.06	0.750			
0.4604	29467.97	3.8170	3.8171	1.7290	7.02	1.03	0.750			
0.4656	29799.55	3.8140	3.8140	1.7615	7.00	1.01	0.750			
0.4709	30139.82	3.8110	3.8111	1.7744	6.98	0.99	0.750			
0.4764	30488.40	3.8080	3.8078	1.8028	6.96	0.97	0.750			
0.4818	30836.29	3.8050	3.8051	1.8395	6.93	0.94	0.750			
0.4872	31181.03	3.8020	3.8021	1.8681	6.91	0.92	0.750			
0.4930	31551.29	3.7990	3.7988	1.8976	6.89	0.90	0.750			
0.4987	31914.59	3.7960	3.7960	1.9154	6.86	0.87	0.750			
0.5045	32287.69	3.7930	3.7931	1.9707	6.83	0.84	0.750			
0.5105	32674.69	3.7900	3.7898	2.0186	6.81	0.82	0.750			
0.5166	33061.51	3.7870	3.7868	2.0413	6.79	0.80	0.750			
0.5228	33457.26	3.7840	3.7838	2.0748	6.76	0.77	0.750			
0.5292	33868.16	3.7810	3.7811	2.1293	6.73	0.74	0.750			
0.5355	34275.10	3.7780	3.7778	2.1397	6.70	0.71	0.750			
0.5421	34693.85	3.7750	3.7751	2.1913	6.67	0.68	0.750			
0.5486	35113.34	3.7720	3.7719	2.2004	6.65	0.66	0.750			
0.5553	35538.83	3.7690	3.7690	2.2241	6.62	0.63	0.750			
0.5619	35959.58	3.7660	3.7662	2.2480	6.59	0.60	0.750			
0.5687	36395.79	3.7630	3.7629	2.3398	6.57	0.58	0.750			
0.5758	36850.39	3.7600	3.7601	2.3883	6.54	0.55	0.750			
0.5831	37321.54	3.7570	3.7571	2.5048	6.51	0.52	0.750			
0.5907	37804.85	3.7540	3.7538	2.5909	6.48	0.49	0.750			
0.5986	38308.31	3.7510	3.7510	2.7165	6.45	0.46	0.750			
0.6068	38837.82	3.7480	3.7480	2.7872	6.41	0.42	0.750			
0.6154	39387.83	3.7450	3.7451	2.8864	6.38	0.39	0.750			
0.6242	39946.51	3.7420	3.7420	2.9592	6.35	0.36	0.750			
0.6332	40521.99	3.7390	3.7390	3.0686	6.32	0.33	0.750			
0.6425	41122.63	3.7360	3.7360	3.1957	6.29	0.30	0.750			
0.6523	41747.28	3.7330	3.7329	3.1417	6.26	0.27	0.750			
0.6617	42349.85	3.7300	3.7300	3.0984	6.23	0.24	0.750			
0.6709	42935.73	3.7270	3.7269	2.9385	6.20	0.21	0.750			
0.6794	43484.76	3.7240	3.7242	2.6728	6.18	0.19	0.750			
0.6870	43967.34	3.7210	3.7212	2.3842	6.17	0.18	0.750			
0.6936	44393.02	3.7180	3.7178	2.0858	6.15	0.16	0.750			
0.6994	44760.03	3.7150	3.7150	1.8514	6.12	0.13	0.750			
0.7046	45094.99	3.7120	3.7121	1.6502	6.12	0.13	0.750			
0.7092	45385.86	3.7090	3.7092	1.4963	6.11	0.12	0.750			
0.7132	45644.64	3.7060	3.7057	1.3378	6.11	0.12	0.750			
0.7169	45882.86	3.7030	3.7030	1.2490	6.10	0.11	0.750			
0.7204	46108.43	3.7000	3.6999	1.1897	6.09	0.10	0.750			
0.7239	46326.75	3.6970	3.6970	1.1497	6.08	0.09	0.750			
0.7273	46544.90	3.6940	3.6940	1.1099	6.07	0.08	0.750			
0.7306	46758.05	3.6910	3.6911	1.0874	6.06	0.07	0.750			
0.7338	46963.26	3.6880	3.6880	1.0606	6.06	0.07	0.750			
0.7369	47164.42	3.6850	3.6850	1.0357	6.05	0.06	0.750			
0.7400	47359.07	3.6820	3.6820	1.0063	6.05	0.06	0.750			
0.7429	47547.27	3.6790	3.6790	0.9936	6.04	0.05	0.750			
0.7459	47737.55	3.6760	3.6760	0.9850	6.04	0.05	0.750			
0.7489	47926.81	3.6730	3.6730	0.9666	6.03	0.04	0.750			
0.7517	48111.62	3.6700	3.6701	0.9533	6.03	0.04	0.750			
0.7546	48292.34	3.6670	3.6671	0.9374	6.02	0.03	0.750			
0.7573	48470.07	3.6640	3.6640	0.9304	6.02	0.03	0.750			
0.7601	48646.50	3.6610	3.6610	0.9241	6.01	0.02	0.750			
0.7628	48819.89	3.6580	3.6579	0.9156	6.01	0.02	0.750			
0.7656	48999.35	3.6550	3.6550	0.9099	6.01	0.02	0.750			
0.7683	49173.63	3.6520	3.6520	0.9114	6.00	0.01	0.750			
0.7710	49344.13	3.6490	3.6491	0.9170	6.00	0.01	0.750			
0.7737	49519.35	3.6460	3.6461	0.9290	5.99	0.00	0.750			
0.7765	49696.70	3.6430	3.6429	0.9312	5.99	0.00	0.750			
0.7794	49878.42	3.6400	3.6400	0.9397	5.99	0.00	0.750			
0.7823	50066.90	3.6370	3.6371	0.9281	5.99	0.00	0.750			
0.7852	50250.27	3.6340	3.6340	0.8968	5.99	0.00	0.750			
0.7880	50430.21	3.6310	3.6310	0.8351	5.99	0.00	0.750			
0.7904	50587.03	3.6280	3.6280	0.7459	5.99	0.00	0.750			
0.7925	50722.27	3.6250	3.6251	0.6393	5.99	0.00	0.750			
0.7943	50837.58	3.6220	3.6219	0.5380	5.99	0.00	0.750			
0.7955	50913.60	3.6190	3.6196	0.4385	5.99	0.00	0.750			
0.7967	50989.42	3.6160	3.6161	0.3581	5.99	0.00	0.750			
0.7976	51045.49	3.6130	3.6130	0.2704	5.99	0.00	0.750			
0.7983	51089.30	3.6100	3.6093	0.2075	5.99	0.00	0.750			
0.7987	51116.91	3.6070	3.6057	0.1444	5.99	0.00	0.750			
0.7990	51136.85	3.5920	3.5648	-0.0768	5.99	0.00	0.750			
0.7990	51137.09	3.6040	3.5624	0.0936	5.99	0.00	0.750			
0.7991	51145.27	3.6010	3.4780	0.0475	5.99	0.00	0.748			
0.7992	51147.61	3.5950	3.4539	-0.0353	5.99	0.00	0.747			
0.7992	51150.42	3.5980	3.4250	0.0061	5.99	0.00	0.746			
