Ah_balance (normalized)	Ah_balance (mAh)	Voltage - fit (V)	Voltage -  interpolate (V)	dQ/dV (1/V)	Temperature (°C)	Temperature - diff (°C)	Current (C)	R_DC 0ms (mOhm)	R_DC 50ms (mOhm)	R_DC 50 ms PEC (mOhm)
0.0959	6136.14	4.1990	4.1961	0.7828	8.74	2.35	0.750	0.373	0.774	
0.0979	6268.29	4.1960	4.1982	0.6452	8.73	2.34	0.750			
0.1000	6402.68	4.1930	4.1953	0.7256	8.73	2.34	0.750			
0.1024	6552.33	4.1900	4.1918	0.7746	8.72	2.33	0.750			
0.1047	6701.00	4.1870	4.1884	0.7596	8.72	2.33	0.750			
0.1070	6847.99	4.1840	4.1851	0.7578	8.71	2.32	0.750			
0.1098	7027.76	4.1810	4.1811	0.7876	8.71	2.32	0.750			
0.1119	7162.03	4.1780	4.1777	0.6947	8.70	2.31	0.750			
0.1140	7296.60	4.1750	4.1751	0.6985	8.70	2.31	0.750			
0.1161	7430.90	4.1720	4.1719	0.6983	8.69	2.30	0.750			
0.1182	7566.87	4.1690	4.1690	0.6988	8.69	2.30	0.750			
0.1203	7701.04	4.1660	4.1661	0.7037	8.68	2.29	0.750			
0.1224	7833.27	4.1630	4.1630	0.7060	8.68	2.29	0.750			
0.1245	7969.67	4.1600	4.1597	0.7123	8.67	2.28	0.750			
0.1267	8105.85	4.1570	4.1572	0.7172	8.67	2.28	0.750			
0.1288	8244.38	4.1540	4.1540	0.7201	8.66	2.27	0.750			
0.1310	8384.67	4.1510	4.1510	0.7313	8.66	2.27	0.750			
0.1332	8524.84	4.1480	4.1480	0.7311	8.66	2.27	0.750			
0.1354	8666.18	4.1450	4.1448	0.7381	8.65	2.26	0.750			
0.1377	8810.00	4.1420	4.1420	0.7381	8.65	2.26	0.750			
0.1399	8953.61	4.1390	4.1390	0.7361	8.64	2.25	0.750			
0.1421	9096.96	4.1360	4.1362	0.7297	8.63	2.24	0.750			
0.1443	9235.64	4.1330	4.1329	0.7331	8.63	2.24	0.750			
0.1465	9373.28	4.1300	4.1300	0.7291	8.62	2.23	0.750			
0.1486	9511.54	4.1270	4.1268	0.7362	8.61	2.22	0.750			
0.1508	9652.08	4.1240	4.1242	0.7445	8.61	2.22	0.750			
0.1531	9799.91	4.1210	4.1208	0.7530	8.60	2.21	0.750			
0.1554	9944.96	4.1180	4.1181	0.7567	8.60	2.21	0.750			
0.1577	10090.51	4.1150	4.1150	0.7576	8.59	2.20	0.750			
0.1599	10236.80	4.1120	4.1120	0.7664	8.58	2.19	0.750			
0.1623	10384.47	4.1090	4.1091	0.7723	8.58	2.19	0.750			
0.1646	10532.89	4.1060	4.1060	0.7754	8.57	2.18	0.750			
0.1670	10685.40	4.1030	4.1029	0.7775	8.57	2.18	0.750			
0.1693	10836.47	4.1000	4.1001	0.7783	8.56	2.17	0.750			
0.1716	10984.18	4.0970	4.0970	0.7759	8.56	2.17	0.750			
0.1739	11131.61	4.0940	4.0939	0.7757	8.55	2.16	0.750			
0.1762	11279.03	4.0910	4.0910	0.7735	8.55	2.16	0.750			
0.1786	11428.23	4.0880	4.0880	0.7752	8.54	2.15	0.750			
0.1809	11579.15	4.0850	4.0850	0.7856	8.53	2.14	0.750			
0.1833	11731.92	4.0820	4.0820	0.7874	8.53	2.14	0.750			
0.1856	11881.40	4.0790	4.0790	0.7908	8.52	2.13	0.750			
0.1880	12032.42	4.0760	4.0761	0.7971	8.52	2.13	0.750			
0.1904	12187.33	4.0730	4.0729	0.7943	8.51	2.12	0.750			
0.1928	12339.03	4.0700	4.0699	0.8019	8.51	2.12	0.750			
0.1952	12492.55	4.0670	4.0672	0.8114	8.51	2.12	0.750			
0.1976	12648.76	4.0640	4.0641	0.8142	8.50	2.11	0.750			
0.2001	12808.34	4.0610	4.0608	0.8208	8.50	2.11	0.750			
0.2026	12967.00	4.0580	4.0581	0.8160	8.49	2.10	0.750			
0.2050	13122.05	4.0550	4.0551	0.8231	8.48	2.09	0.750			
0.2075	13281.65	4.0520	4.0520	0.8308	8.47	2.08	0.750			
0.2100	13439.55	4.0490	4.0490	0.8367	8.47	2.08	0.750			
0.2125	13598.12	4.0460	4.0459	0.8459	8.46	2.07	0.750			
0.2151	13766.52	4.0430	4.0430	0.8472	8.46	2.07	0.750			
0.2177	13933.02	4.0400	4.0401	0.8561	8.45	2.06	0.750			
0.2203	14097.50	4.0370	4.0370	0.8503	8.45	2.06	0.750			
0.2228	14257.99	4.0340	4.0341	0.8448	8.44	2.05	0.750			
0.2253	14418.47	4.0310	4.0312	0.8430	8.44	2.05	0.750			
0.2278	14579.25	4.0280	4.0279	0.8420	8.43	2.04	0.750			
0.2303	14739.79	4.0250	4.0250	0.8487	8.42	2.03	0.750			
0.2329	14904.52	4.0220	4.0220	0.8650	8.41	2.02	0.750			
0.2355	15072.06	4.0190	4.0190	0.8725	8.40	2.01	0.750			
0.2382	15242.46	4.0160	4.0159	0.8784	8.39	2.00	0.750			
0.2408	15411.85	4.0130	4.0131	0.8790	8.38	1.99	0.750			
0.2435	15582.86	4.0100	4.0100	0.8825	8.38	1.99	0.750			
0.2461	15753.10	4.0070	4.0071	0.8792	8.38	1.99	0.750			
0.2487	15918.50	4.0040	4.0038	0.8746	8.37	1.98	0.750			
0.2513	16084.71	4.0010	4.0011	0.8769	8.36	1.97	0.750			
0.2540	16253.54	3.9980	3.9980	0.8761	8.35	1.96	0.750			
0.2566	16421.26	3.9950	3.9949	0.8765	8.34	1.95	0.750			
0.2592	16589.34	3.9920	3.9921	0.8866	8.33	1.94	0.750			
0.2619	16758.82	3.9890	3.9889	0.8992	8.32	1.93	0.750			
0.2646	16932.44	3.9860	3.9859	0.9124	8.31	1.92	0.750			
0.2673	17109.44	3.9830	3.9829	0.9223	8.30	1.91	0.750			
0.2701	17287.72	3.9800	3.9801	0.9361	8.29	1.90	0.750			
0.2730	17472.64	3.9770	3.9770	0.9376	8.28	1.89	0.750			
0.2758	17652.73	3.9740	3.9741	0.9426	8.28	1.89	0.750			
0.2786	17833.03	3.9710	3.9710	0.9319	8.27	1.88	0.750			
0.2814	18011.03	3.9680	3.9679	0.9322	8.26	1.87	0.750			
0.2842	18185.84	3.9650	3.9651	0.9423	8.25	1.86	0.750			
0.2870	18367.22	3.9620	3.9619	0.9552	8.24	1.85	0.750			
0.2899	18551.54	3.9590	3.9589	0.9596	8.23	1.84	0.750			
0.2928	18740.22	3.9560	3.9560	0.9634	8.22	1.83	0.750			
0.2957	18926.52	3.9530	3.9532	0.9648	8.21	1.82	0.750			
0.2987	19114.04	3.9500	3.9500	0.9747	8.20	1.81	0.750			
0.3015	19298.56	3.9470	3.9468	0.9716	8.19	1.80	0.750			
0.3044	19482.10	3.9440	3.9440	0.9817	8.18	1.79	0.750			
0.3073	19669.69	3.9410	3.9412	1.0008	8.17	1.78	0.750			
0.3104	19866.92	3.9380	3.9378	1.0186	8.17	1.78	0.750			
0.3136	20068.28	3.9350	3.9349	1.0263	8.15	1.76	0.750			
0.3166	20265.55	3.9320	3.9320	1.0340	8.14	1.75	0.750			
0.3198	20465.02	3.9290	3.9291	1.0316	8.13	1.74	0.750			
0.3228	20662.20	3.9260	3.9260	1.0473	8.12	1.73	0.750			
0.3260	20862.42	3.9230	3.9230	1.0544	8.11	1.72	0.750			
0.3291	21063.45	3.9200	3.9199	1.0684	8.10	1.71	0.750			
0.3324	21274.17	3.9170	3.9170	1.0831	8.08	1.69	0.750			
0.3357	21487.69	3.9140	3.9140	1.0977	8.07	1.68	0.750			
0.3390	21697.43	3.9110	3.9112	1.0950	8.06	1.67	0.750			
0.3423	21910.25	3.9080	3.9080	1.1054	8.05	1.66	0.750			
0.3456	22120.99	3.9050	3.9049	1.0959	8.04	1.65	0.750			
0.3489	22331.02	3.9020	3.9019	1.1010	8.02	1.63	0.750			
0.3522	22539.78	3.8990	3.8992	1.1161	8.01	1.62	0.750			
0.3555	22753.30	3.8960	3.8960	1.1368	8.00	1.61	0.750			
0.3589	22971.57	3.8930	3.8929	1.1637	7.99	1.60	0.750			
0.3625	23199.10	3.8900	3.8900	1.1752	7.98	1.59	0.750			
0.3661	23428.65	3.8870	3.8871	1.1925	7.96	1.57	0.750			
0.3698	23665.30	3.8840	3.8841	1.2175	7.94	1.55	0.750			
0.3734	23899.25	3.8810	3.8809	1.2214	7.93	1.54	0.750			
0.3771	24131.89	3.8780	3.8776	1.2283	7.91	1.52	0.750	0.384	0.783	
0.3807	24366.71	3.8750	3.8751	1.2398	7.90	1.51	0.750			
0.3845	24606.44	3.8720	3.8722	1.2604	7.89	1.50	0.750			
0.3883	24852.54	3.8690	3.8689	1.2930	7.87	1.48	0.750			
0.3922	25102.18	3.8660	3.8660	1.3144	7.85	1.46	0.750			
0.3962	25355.62	3.8630	3.8631	1.3254	7.84	1.45	0.750			
0.4002	25612.13	3.8600	3.8599	1.3513	7.82	1.43	0.750			
0.4043	25876.35	3.8570	3.8571	1.3691	7.80	1.41	0.750			
0.4085	26145.27	3.8540	3.8539	1.3710	7.78	1.39	0.750			
0.4126	26406.50	3.8510	3.8509	1.3823	7.77	1.38	0.750			
0.4167	26669.26	3.8480	3.8482	1.4032	7.75	1.36	0.750			
0.4210	26941.35	3.8450	3.8450	1.4235	7.73	1.34	0.750			
0.4253	27217.77	3.8420	3.8419	1.4461	7.71	1.32	0.750			
0.4296	27496.41	3.8390	3.8390	1.4562	7.69	1.30	0.750			
0.4341	27782.87	3.8360	3.8362	1.4784	7.67	1.28	0.750			
0.4386	28068.25	3.8330	3.8332	1.5017	7.65	1.26	0.750			
0.4430	28352.49	3.8300	3.8298	1.5168	7.63	1.24	0.750			
0.4476	28643.94	3.8270	3.8271	1.5285	7.61	1.22	0.750			
0.4523	28945.92	3.8240	3.8240	1.5430	7.59	1.20	0.750			
0.4571	29251.71	3.8210	3.8210	1.5650	7.56	1.17	0.750			
0.4617	29551.42	3.8180	3.8178	1.5705	7.54	1.15	0.750			
0.4664	29846.55	3.8150	3.8151	1.5742	7.52	1.13	0.750			
0.4711	30151.46	3.8120	3.8120	1.5960	7.50	1.11	0.750			
0.4758	30452.46	3.8090	3.8089	1.6090	7.47	1.08	0.750			
0.4807	30762.59	3.8060	3.8060	1.6431	7.45	1.06	0.750			
0.4859	31095.11	3.8030	3.8029	1.6685	7.43	1.04	0.750			
0.4908	31410.89	3.8000	3.8000	1.6769	7.40	1.01	0.750			
0.4959	31734.42	3.7970	3.7971	1.6902	7.38	0.99	0.750			
0.5008	32050.52	3.7940	3.7941	1.7296	7.35	0.96	0.750			
0.5061	32387.75	3.7910	3.7909	1.7763	7.33	0.94	0.750			
0.5114	32731.60	3.7880	3.7878	1.7979	7.30	0.91	0.750			
0.5169	33081.10	3.7850	3.7851	1.8428	7.27	0.88	0.750			
0.5227	33451.68	3.7820	3.7822	1.8841	7.24	0.85	0.750			
0.5282	33807.82	3.7790	3.7789	1.9330	7.21	0.82	0.750			
0.5340	34176.97	3.7760	3.7759	1.9833	7.18	0.79	0.750			
0.5400	34558.04	3.7730	3.7728	2.0603	7.16	0.77	0.750			
0.5464	34970.21	3.7700	3.7701	2.1652	7.12	0.73	0.750			
0.5530	35393.09	3.7670	3.7670	2.2314	7.10	0.71	0.750			
0.5598	35830.23	3.7640	3.7640	2.3097	7.07	0.68	0.750			
0.5668	36274.84	3.7610	3.7610	2.4318	7.03	0.64	0.750			
0.5743	36754.71	3.7580	3.7578	2.5206	6.99	0.60	0.750			
0.5819	37243.39	3.7550	3.7552	2.6551	6.96	0.57	0.750			
0.5902	37773.99	3.7520	3.7517	2.7335	6.93	0.54	0.750			
0.5983	38294.19	3.7490	3.7491	2.8577	6.89	0.50	0.750			
0.6073	38865.02	3.7460	3.7458	3.0164	6.86	0.47	0.750			
0.6165	39453.95	3.7430	3.7432	2.9877	6.82	0.43	0.750			
0.6259	40055.20	3.7400	3.7400	2.9862	6.78	0.39	0.750			
0.6345	40607.57	3.7370	3.7370	2.7145	6.75	0.36	0.750			
0.6423	41110.27	3.7340	3.7340	2.4780	6.72	0.33	0.750			
0.6494	41560.69	3.7310	3.7312	2.2000	6.70	0.31	0.750			
0.6555	41950.59	3.7280	3.7280	1.9319	6.68	0.29	0.750			
0.6609	42295.80	3.7250	3.7250	1.6881	6.66	0.27	0.750			
0.6654	42583.50	3.7220	3.7221	1.5223	6.65	0.26	0.750			
0.6694	42842.35	3.7190	3.7190	1.3716	6.63	0.24	0.750			
0.6732	43082.36	3.7160	3.7160	1.2656	6.62	0.23	0.750			
0.6768	43316.16	3.7130	3.7130	1.2280	6.60	0.21	0.750			
0.6804	43545.54	3.7100	3.7102	1.1917	6.59	0.20	0.750			
0.6840	43774.19	3.7070	3.7070	1.1681	6.58	0.19	0.750			
0.6875	43999.10	3.7040	3.7038	1.1286	6.57	0.18	0.750			
0.6908	44212.42	3.7010	3.7010	1.1029	6.55	0.16	0.750			
0.6941	44420.08	3.6980	3.6980	1.0771	6.54	0.15	0.750			
0.6973	44624.29	3.6950	3.6951	1.0546	6.53	0.14	0.750			
0.7003	44821.32	3.6920	3.6921	1.0207	6.52	0.13	0.750			
0.7034	45017.67	3.6890	3.6890	1.0078	6.51	0.12	0.750			
0.7064	45207.95	3.6860	3.6861	0.9916	6.50	0.11	0.750			
0.7093	45397.19	3.6830	3.6830	0.9739	6.49	0.10	0.750			
0.7122	45582.16	3.6800	3.6799	0.9613	6.48	0.09	0.750			
0.7151	45766.23	3.6770	3.6770	0.9451	6.47	0.08	0.750			
0.7179	45946.71	3.6740	3.6740	0.9317	6.46	0.07	0.750			
0.7207	46123.43	3.6710	3.6711	0.9221	6.45	0.06	0.750			
0.7234	46297.17	3.6680	3.6680	0.9164	6.44	0.05	0.750			
0.7261	46472.02	3.6650	3.6652	0.9099	6.44	0.05	0.750			
0.7288	46643.65	3.6620	3.6618	0.9140	6.43	0.04	0.750			
0.7315	46817.43	3.6590	3.6591	0.9210	6.42	0.03	0.750			
0.7343	46997.94	3.6560	3.6560	0.9235	6.42	0.03	0.750			
0.7372	47180.67	3.6530	3.6528	0.9177	6.41	0.02	0.750			
0.7399	47356.32	3.6500	3.6502	0.8932	6.41	0.02	0.750			
0.7427	47531.05	3.6470	3.6470	0.8464	6.40	0.01	0.750			
0.7453	47696.40	3.6440	3.6439	0.7785	6.40	0.01	0.750			
0.7475	47841.03	3.6410	3.6411	0.6886	6.39	0.00	0.750			
0.7495	47967.19	3.6380	3.6379	0.5934	6.39	-0.00	0.750			
0.7511	48072.09	3.6350	3.6351	0.4953	6.39	-0.00	0.750			
0.7522	48138.14	3.6320	3.6326	0.4237	6.39	-0.00	0.750			
0.7532	48207.41	3.6290	3.6293	0.3299	6.38	-0.01	0.750			
0.7540	48258.72	3.6260	3.6262	0.2506	6.38	-0.01	0.750			
0.7547	48298.60	3.6230	3.6223	0.1977	6.38	-0.01	0.750			
0.7551	48324.51	3.6200	3.6172	0.1432	6.38	-0.01	0.750			
0.7552	48334.03	3.5960	3.6046	-0.1103	6.38	-0.01	0.750			
0.7553	48341.46	3.6170	3.5222	0.0992	6.38	-0.01	0.746			
0.7555	48352.34	3.5990	3.3665	-0.0804	6.38	-0.01	0.735			
0.7556	48357.64	3.6140	3.2905	0.0693	6.38	-0.01	0.729			
0.7557	48364.89	3.6020	3.1867	-0.0504	6.38	-0.01	0.721			
0.7558	48368.08	3.6110	3.1411	0.0394	6.38	-0.01	0.718			
0.7558	48371.70	3.6050	3.0892	-0.0205	6.38	-0.01	0.714			
0.7558	48372.76	3.6080	3.0740	0.0094	6.38	-0.01	0.713			
