Ah_balance (normalized)	Ah_balance (mAh)	Voltage - fit (V)	Voltage -  interpolate (V)	dQ/dV (1/V)	Temperature (°C)	Temperature - diff (°C)	Current (C)	R_DC 0ms (mOhm)	R_DC 50ms (mOhm)	R_DC 50 ms PEC (mOhm)
0.0000	0.00	4.1020	4.1262	0.0000	5.99	0.00	-0.750			
0.0002	12.55	4.0990	4.0977	-0.0370	5.99	0.00	-0.750			
0.0003	22.27	4.0960	4.0952	-0.0643	5.99	0.00	-0.750			
0.0006	37.00	4.0930	4.0927	-0.0922	5.99	0.00	-0.750			
0.0009	57.89	4.0900	4.0899	-0.1187	5.99	0.00	-0.750			
0.0013	83.98	4.0870	4.0868	-0.1426	5.99	0.00	-0.750			
0.0018	113.83	4.0840	4.0841	-0.1681	5.99	0.00	-0.750			
0.0023	148.53	4.0810	4.0811	-0.1942	5.99	0.00	-0.750			
0.0030	189.61	4.0780	4.0780	-0.2162	5.99	0.00	-0.750			
0.0036	233.47	4.0750	4.0749	-0.2388	5.99	0.00	-0.750			
0.0044	281.23	4.0720	4.0720	-0.2599	5.99	0.00	-0.750			
0.0052	333.31	4.0690	4.0691	-0.2799	5.99	-0.00	-0.750			
0.0061	389.35	4.0660	4.0660	-0.3000	5.99	-0.00	-0.750			
0.0070	449.23	4.0630	4.0630	-0.3194	5.99	-0.00	-0.750			
0.0080	510.77	4.0600	4.0602	-0.3413	5.99	-0.00	-0.750			
0.0090	578.35	4.0570	4.0570	-0.3670	5.99	-0.00	-0.750			
0.0102	650.72	4.0540	4.0540	-0.3887	5.99	-0.00	-0.750			
0.0114	728.40	4.0510	4.0509	-0.4113	5.98	-0.01	-0.750			
0.0127	810.02	4.0480	4.0481	-0.4361	5.98	-0.01	-0.750			
0.0140	896.92	4.0450	4.0450	-0.4525	5.98	-0.01	-0.750			
0.0154	985.76	4.0420	4.0420	-0.4722	5.98	-0.01	-0.750			
0.0168	1076.94	4.0390	4.0390	-0.4892	5.98	-0.01	-0.750			
0.0183	1172.04	4.0360	4.0359	-0.5096	5.98	-0.01	-0.750			
0.0199	1272.07	4.0330	4.0330	-0.5286	5.98	-0.01	-0.750			
0.0215	1374.94	4.0300	4.0300	-0.5487	5.99	-0.00	-0.750			
0.0232	1482.51	4.0270	4.0271	-0.5665	5.99	-0.00	-0.750			
0.0249	1594.55	4.0240	4.0238	-0.5843	5.99	0.00	-0.750			
0.0267	1709.13	4.0210	4.0211	-0.5952	5.99	0.00	-0.750			
0.0285	1826.13	4.0180	4.0180	-0.6027	6.00	0.01	-0.750			
0.0303	1942.17	4.0150	4.0151	-0.6151	6.00	0.01	-0.750			
0.0322	2061.75	4.0120	4.0121	-0.6233	6.01	0.02	-0.750			
0.0341	2180.78	4.0090	4.0088	-0.6266	6.01	0.02	-0.750			
0.0360	2301.24	4.0060	4.0060	-0.6398	6.01	0.02	-0.750			
0.0379	2424.67	4.0030	4.0032	-0.6508	6.02	0.03	-0.750			
0.0399	2550.72	4.0000	3.9999	-0.6630	6.02	0.03	-0.750			
0.0419	2680.74	3.9970	3.9970	-0.6762	6.03	0.04	-0.750			
0.0439	2811.80	3.9940	3.9939	-0.6797	6.03	0.04	-0.750			
0.0460	2944.49	3.9910	3.9909	-0.6894	6.04	0.05	-0.750			
0.0481	3079.20	3.9880	3.9881	-0.6882	6.04	0.05	-0.750			
0.0502	3210.08	3.9850	3.9851	-0.6852	6.05	0.06	-0.750			
0.0522	3341.91	3.9820	3.9819	-0.6892	6.05	0.06	-0.750			
0.0543	3473.16	3.9790	3.9790	-0.6915	6.06	0.07	-0.750			
0.0563	3603.92	3.9760	3.9758	-0.6970	6.06	0.07	-0.750			
0.0584	3738.39	3.9730	3.9730	-0.7078	6.07	0.08	-0.750			
0.0606	3876.57	3.9700	3.9700	-0.7169	6.08	0.09	-0.750			
0.0628	4017.24	3.9670	3.9669	-0.7244	6.08	0.09	-0.750			
0.0650	4159.10	3.9640	3.9640	-0.7246	6.09	0.10	-0.750			
0.0672	4298.33	3.9610	3.9613	-0.7225	6.10	0.11	-0.750			
0.0693	4436.88	3.9580	3.9579	-0.7192	6.11	0.12	-0.750			
0.0715	4573.37	3.9550	3.9550	-0.7175	6.11	0.12	-0.750			
0.0736	4707.47	3.9520	3.9520	-0.7202	6.12	0.13	-0.750			
0.0757	4846.43	3.9490	3.9490	-0.7281	6.13	0.14	-0.750			
0.0780	4989.04	3.9460	3.9459	-0.7375	6.13	0.14	-0.750			
0.0802	5132.40	3.9430	3.9430	-0.7394	6.14	0.15	-0.750			
0.0825	5277.26	3.9400	3.9401	-0.7373	6.15	0.16	-0.750			
0.0847	5418.42	3.9370	3.9370	-0.7409	6.15	0.16	-0.750			
0.0869	5560.08	3.9340	3.9340	-0.7398	6.16	0.17	-0.750			
0.0891	5699.87	3.9310	3.9311	-0.7399	6.17	0.18	-0.750			
0.0913	5842.19	3.9280	3.9279	-0.7464	6.18	0.19	-0.750			
0.0935	5986.01	3.9250	3.9251	-0.7554	6.18	0.19	-0.750			
0.0958	6133.09	3.9220	3.9219	-0.7611	6.19	0.20	-0.750			
0.0981	6280.97	3.9190	3.9190	-0.7686	6.20	0.21	-0.750			
0.1004	6426.47	3.9160	3.9160	-0.7651	6.21	0.22	-0.750			
0.1028	6576.14	3.9130	3.9129	-0.7667	6.22	0.23	-0.750			
0.1050	6723.14	3.9100	3.9101	-0.7651	6.23	0.24	-0.750			
0.1074	6870.81	3.9070	3.9070	-0.7605	6.24	0.25	-0.750			
0.1096	7014.66	3.9040	3.9042	-0.7662	6.24	0.25	-0.750			
0.1119	7162.78	3.9010	3.9009	-0.7688	6.25	0.26	-0.750			
0.1142	7309.69	3.8980	3.8980	-0.7679	6.26	0.27	-0.750			
0.1166	7459.55	3.8950	3.8949	-0.7654	6.27	0.28	-0.750			
0.1189	7606.88	3.8920	3.8921	-0.7711	6.28	0.29	-0.750			
0.1211	7752.85	3.8890	3.8890	-0.7713	6.28	0.29	-0.750			
0.1234	7900.80	3.8860	3.8861	-0.7681	6.29	0.30	-0.750			
0.1257	8046.51	3.8830	3.8829	-0.7614	6.30	0.31	-0.750			
0.1280	8194.56	3.8800	3.8800	-0.7695	6.31	0.32	-0.750			
0.1304	8342.44	3.8770	3.8772	-0.7745	6.32	0.33	-0.750			
0.1327	8492.96	3.8740	3.8739	-0.7794	6.33	0.34	-0.750			
0.1350	8640.49	3.8710	3.8709	-0.7806	6.34	0.35	-0.750			
0.1374	8792.45	3.8680	3.8681	-0.7768	6.34	0.35	-0.750			
0.1397	8943.95	3.8650	3.8649	-0.7799	6.35	0.36	-0.750			
0.1421	9092.62	3.8620	3.8620	-0.7782	6.36	0.37	-0.750			
0.1444	9239.45	3.8590	3.8589	-0.7786	6.37	0.38	-0.750			
0.1467	9388.21	3.8560	3.8560	-0.7872	6.37	0.38	-0.750			
0.1491	9540.20	3.8530	3.8530	-0.7918	6.38	0.39	-0.750			
0.1515	9694.32	3.8500	3.8500	-0.8055	6.39	0.40	-0.750			
0.1539	9851.44	3.8470	3.8470	-0.8120	6.40	0.41	-0.750			
0.1564	10008.05	3.8440	3.8439	-0.8044	6.41	0.42	-0.750			
0.1588	10161.92	3.8410	3.8410	-0.8043	6.42	0.43	-0.750			
0.1612	10316.10	3.8380	3.8381	-0.8031	6.43	0.44	-0.750			
0.1636	10468.27	3.8350	3.8350	-0.8009	6.44	0.45	-0.750			
0.1660	10624.00	3.8320	3.8318	-0.7978	6.45	0.46	-0.750			
0.1684	10775.95	3.8290	3.8292	-0.7905	6.46	0.47	-0.750			
0.1707	10926.55	3.8260	3.8261	-0.7998	6.47	0.48	-0.750			
0.1732	11082.24	3.8230	3.8227	-0.7986	6.48	0.49	-0.750			
0.1755	11232.20	3.8200	3.8200	-0.7975	6.49	0.50	-0.750			
0.1779	11386.92	3.8170	3.8171	-0.8016	6.49	0.50	-0.750			
0.1803	11542.03	3.8140	3.8142	-0.8051	6.50	0.51	-0.750			
0.1828	11698.46	3.8110	3.8110	-0.8080	6.51	0.52	-0.750			
0.1852	11851.93	3.8080	3.8080	-0.8118	6.52	0.53	-0.750			
0.1876	12006.39	3.8050	3.8050	-0.8114	6.53	0.54	-0.750			
0.1901	12166.30	3.8020	3.8019	-0.8159	6.54	0.55	-0.750			
0.1925	12321.58	3.7990	3.7992	-0.8122	6.55	0.56	-0.750			
0.1950	12478.19	3.7960	3.7960	-0.8159	6.56	0.57	-0.750			
0.1974	12633.66	3.7930	3.7932	-0.8176	6.57	0.58	-0.750			
0.1998	12789.88	3.7900	3.7899	-0.8159	6.57	0.58	-0.750			
0.2023	12947.73	3.7870	3.7869	-0.8169	6.58	0.59	-0.750			
0.2047	13103.65	3.7840	3.7841	-0.8251	6.59	0.60	-0.750			
0.2073	13264.01	3.7810	3.7810	-0.8297	6.60	0.61	-0.750			
0.2097	13422.94	3.7780	3.7780	-0.8305	6.61	0.62	-0.750			
0.2122	13582.69	3.7750	3.7749	-0.8294	6.62	0.63	-0.750			
0.2147	13743.38	3.7720	3.7720	-0.8209	6.63	0.64	-0.750			
0.2172	13902.10	3.7690	3.7691	-0.8188	6.64	0.65	-0.750			
0.2196	14057.02	3.7660	3.7660	-0.8167	6.65	0.66	-0.750			
0.2220	14208.95	3.7630	3.7629	-0.8191	6.65	0.66	-0.750			
0.2245	14367.23	3.7600	3.7600	-0.8331	6.66	0.67	-0.750			
0.2270	14527.95	3.7570	3.7570	-0.8388	6.67	0.68	-0.750			
0.2296	14693.42	3.7540	3.7541	-0.8501	6.68	0.69	-0.750			
0.2322	14859.33	3.7510	3.7510	-0.8553	6.69	0.70	-0.750			
0.2348	15024.78	3.7480	3.7480	-0.8553	6.70	0.71	-0.750			
0.2373	15188.80	3.7450	3.7449	-0.8489	6.71	0.72	-0.750			
0.2398	15349.36	3.7420	3.7420	-0.8426	6.72	0.73	-0.750			
0.2424	15511.11	3.7390	3.7392	-0.8482	6.73	0.74	-0.750			
0.2449	15673.86	3.7360	3.7358	-0.8518	6.74	0.75	-0.750			
0.2475	15837.23	3.7330	3.7330	-0.8570	6.75	0.76	-0.750			
0.2501	16003.67	3.7300	3.7300	-0.8558	6.75	0.76	-0.750			
0.2527	16172.13	3.7270	3.7269	-0.8611	6.76	0.77	-0.750			
0.2553	16336.16	3.7240	3.7241	-0.8594	6.77	0.78	-0.750			
0.2578	16498.12	3.7210	3.7211	-0.8551	6.78	0.79	-0.750			
0.2603	16660.67	3.7180	3.7179	-0.8637	6.79	0.80	-0.750			
0.2629	16827.04	3.7150	3.7149	-0.8705	6.80	0.81	-0.750			
0.2656	16996.22	3.7120	3.7119	-0.8819	6.81	0.82	-0.750			
0.2682	17167.40	3.7090	3.7092	-0.8891	6.82	0.83	-0.750			
0.2709	17340.46	3.7060	3.7059	-0.8973	6.83	0.84	-0.750			
0.2736	17511.75	3.7030	3.7029	-0.8995	6.83	0.84	-0.750			
0.2763	17682.59	3.7000	3.7001	-0.8990	6.84	0.85	-0.750			
0.2790	17857.76	3.6970	3.6968	-0.9119	6.85	0.86	-0.750			
0.2818	18033.08	3.6940	3.6940	-0.9257	6.85	0.86	-0.750			
0.2846	18212.85	3.6910	3.6910	-0.9315	6.86	0.87	-0.750			
0.2874	18395.25	3.6880	3.6879	-0.9282	6.87	0.88	-0.750			
0.2902	18573.61	3.6850	3.6850	-0.9207	6.87	0.88	-0.750			
0.2930	18749.05	3.6820	3.6822	-0.9188	6.88	0.89	-0.750			
0.2957	18924.03	3.6790	3.6789	-0.9161	6.89	0.90	-0.750			
0.2984	19097.02	3.6760	3.6759	-0.9173	6.90	0.91	-0.750			
0.3011	19271.06	3.6730	3.6730	-0.9289	6.91	0.92	-0.750			
0.3039	19451.42	3.6700	3.6700	-0.9493	6.92	0.93	-0.750			
0.3068	19636.34	3.6670	3.6671	-0.9655	6.92	0.93	-0.750			
0.3098	19825.26	3.6640	3.6639	-0.9786	6.93	0.94	-0.750			
0.3127	20015.56	3.6610	3.6610	-0.9836	6.94	0.95	-0.750			
0.3157	20205.56	3.6580	3.6580	-0.9890	6.95	0.96	-0.750			
0.3187	20396.68	3.6550	3.6550	-0.9956	6.95	0.96	-0.750			
0.3217	20586.82	3.6520	3.6520	-0.9964	6.96	0.97	-0.750			
0.3246	20777.48	3.6490	3.6489	-1.0010	6.97	0.98	-0.750			
0.3276	20967.98	3.6460	3.6461	-1.0086	6.97	0.98	-0.750			
0.3307	21164.24	3.6430	3.6431	-1.0209	6.98	0.99	-0.750			
0.3338	21362.31	3.6400	3.6398	-1.0286	6.99	1.00	-0.750			
0.3369	21559.62	3.6370	3.6371	-1.0392	7.00	1.01	-0.750			
0.3400	21758.95	3.6340	3.6339	-1.0435	7.00	1.01	-0.750			
0.3431	21961.47	3.6310	3.6312	-1.0695	7.01	1.02	-0.750			
0.3464	22168.30	3.6280	3.6281	-1.0729	7.02	1.03	-0.750			
0.3496	22375.23	3.6250	3.6249	-1.0784	7.03	1.04	-0.750			
0.3529	22585.30	3.6220	3.6221	-1.0788	7.03	1.04	-0.750			
0.3561	22792.25	3.6190	3.6191	-1.0849	7.04	1.05	-0.750			
0.3594	22998.64	3.6160	3.6160	-1.0866	7.05	1.06	-0.750			
0.3626	23206.65	3.6130	3.6129	-1.0969	7.06	1.07	-0.750			
0.3658	23414.05	3.6100	3.6100	-1.1071	7.07	1.08	-0.750			
0.3692	23631.19	3.6070	3.6069	-1.1318	7.08	1.09	-0.750			
0.3727	23854.07	3.6040	3.6039	-1.1407	7.09	1.10	-0.750			
0.3762	24074.38	3.6010	3.6010	-1.1533	7.09	1.10	-0.750			
0.3796	24293.65	3.5980	3.5982	-1.1644	7.10	1.11	-0.750			
0.3831	24521.28	3.5950	3.5948	-1.1706	7.11	1.12	-0.750			
0.3866	24745.36	3.5920	3.5918	-1.1700	7.11	1.12	-0.750	0.422	0.882	
0.3902	24970.41	3.5890	3.5890	-1.1746	7.12	1.13	-0.750			
0.3937	25195.94	3.5860	3.5861	-1.1838	7.12	1.13	-0.750			
0.3973	25427.24	3.5830	3.5829	-1.1997	7.13	1.14	-0.750			
0.4009	25654.46	3.5800	3.5799	-1.2050	7.14	1.15	-0.750			
0.4045	25885.79	3.5770	3.5770	-1.2145	7.15	1.16	-0.750			
0.4082	26122.77	3.5740	3.5740	-1.2342	7.16	1.17	-0.750			
0.4119	26362.32	3.5710	3.5710	-1.2425	7.17	1.18	-0.750			
0.4156	26597.90	3.5680	3.5680	-1.2643	7.18	1.19	-0.750			
0.4194	26842.32	3.5650	3.5650	-1.2693	7.18	1.19	-0.750			
0.4233	27089.64	3.5620	3.5620	-1.2782	7.19	1.20	-0.750			
0.4272	27338.14	3.5590	3.5590	-1.2871	7.20	1.21	-0.750			
0.4311	27587.79	3.5560	3.5561	-1.2942	7.20	1.21	-0.750			
0.4349	27835.68	3.5530	3.5530	-1.2960	7.22	1.23	-0.750			
0.4388	28082.93	3.5500	3.5500	-1.3005	7.23	1.24	-0.750			
0.4426	28328.92	3.5470	3.5471	-1.3053	7.24	1.25	-0.750			
0.4466	28585.60	3.5440	3.5440	-1.3243	7.24	1.25	-0.750			
0.4507	28841.76	3.5410	3.5409	-1.3336	7.25	1.26	-0.750			
0.4546	29097.44	3.5380	3.5382	-1.3450	7.25	1.26	-0.750			
0.4587	29356.87	3.5350	3.5349	-1.3574	7.26	1.27	-0.750			
0.4628	29619.58	3.5320	3.5320	-1.3574	7.28	1.29	-0.750			
0.4669	29879.45	3.5290	3.5291	-1.3628	7.29	1.30	-0.750			
0.4710	30141.72	3.5260	3.5260	-1.3680	7.30	1.31	-0.750			
0.4751	30407.94	3.5230	3.5228	-1.3716	7.31	1.32	-0.750			
0.4792	30670.98	3.5200	3.5201	-1.3691	7.32	1.33	-0.750			
0.4833	30933.29	3.5170	3.5170	-1.3638	7.33	1.34	-0.750			
0.4875	31196.85	3.5140	3.5140	-1.3644	7.34	1.35	-0.750			
0.4916	31459.40	3.5110	3.5110	-1.3657	7.35	1.36	-0.750			
0.4956	31717.77	3.5080	3.5080	-1.3569	7.36	1.37	-0.750			
0.4997	31979.38	3.5050	3.5050	-1.3614	7.37	1.38	-0.750			
0.5038	32240.19	3.5020	3.5020	-1.3722	7.38	1.39	-0.750			
0.5079	32505.96	3.4990	3.4989	-1.3695	7.39	1.40	-0.750			
0.5120	32769.40	3.4960	3.4960	-1.3759	7.40	1.41	-0.750			
0.5162	33034.05	3.4930	3.4930	-1.3791	7.41	1.42	-0.750			
0.5203	33299.56	3.4900	3.4900	-1.3779	7.42	1.43	-0.750			
0.5245	33566.94	3.4870	3.4868	-1.3692	7.43	1.44	-0.750			
0.5285	33826.09	3.4840	3.4841	-1.3655	7.44	1.45	-0.750			
0.5326	34089.34	3.4810	3.4810	-1.3396	7.45	1.46	-0.750			
0.5367	34351.93	3.4780	3.4778	-1.3331	7.46	1.47	-0.750			
0.5406	34598.79	3.4750	3.4751	-1.3283	7.47	1.48	-0.750			
0.5445	34851.10	3.4720	3.4719	-1.3152	7.49	1.50	-0.750			
0.5485	35105.03	3.4690	3.4688	-1.3136	7.50	1.51	-0.750			
0.5525	35358.25	3.4660	3.4660	-1.3065	7.51	1.52	-0.750			
0.5563	35606.21	3.4630	3.4631	-1.2918	7.52	1.53	-0.750			
0.5603	35857.28	3.4600	3.4600	-1.2967	7.54	1.55	-0.750			
0.5641	36103.47	3.4570	3.4570	-1.2810	7.55	1.56	-0.750			
0.5679	36343.40	3.4540	3.4542	-1.2834	7.56	1.57	-0.750			
0.5718	36595.70	3.4510	3.4509	-1.2867	7.58	1.59	-0.750			
0.5757	36844.67	3.4480	3.4479	-1.2745	7.59	1.60	-0.750			
0.5795	37087.67	3.4450	3.4453	-1.2762	7.61	1.62	-0.750			
0.5833	37334.25	3.4420	3.4419	-1.2518	7.62	1.63	-0.750			
0.5871	37571.79	3.4390	3.4388	-1.2267	7.64	1.65	-0.750			
0.5907	37802.71	3.4360	3.4359	-1.2094	7.65	1.66	-0.750			
0.5943	38033.48	3.4330	3.4329	-1.2052	7.67	1.68	-0.750			
0.5979	38266.55	3.4300	3.4299	-1.1914	7.68	1.69	-0.750			
0.6015	38493.49	3.4270	3.4268	-1.1709	7.69	1.70	-0.750			
0.6049	38716.07	3.4240	3.4244	-1.1608	7.70	1.71	-0.750			
0.6084	38936.09	3.4210	3.4210	-1.1427	7.71	1.72	-0.750			
0.6118	39152.96	3.4180	3.4179	-1.1223	7.73	1.74	-0.750			
0.6151	39364.65	3.4150	3.4148	-1.1060	7.74	1.75	-0.750			
0.6184	39574.82	3.4120	3.4121	-1.0975	7.75	1.76	-0.750			
0.6217	39786.15	3.4090	3.4090	-1.0721	7.77	1.78	-0.750			
0.6249	39993.22	3.4060	3.4060	-1.0481	7.79	1.80	-0.750			
0.6280	40189.72	3.4030	3.4029	-1.0153	7.80	1.81	-0.750			
0.6310	40383.20	3.4000	3.4001	-0.9942	7.81	1.82	-0.750			
0.6339	40571.89	3.3970	3.3969	-0.9674	7.83	1.84	-0.750			
0.6368	40753.04	3.3940	3.3940	-0.9442	7.84	1.85	-0.750			
0.6396	40931.79	3.3910	3.3910	-0.9206	7.86	1.87	-0.750			
0.6423	41109.33	3.3880	3.3881	-0.9093	7.87	1.88	-0.750			
0.6450	41282.03	3.3850	3.3849	-0.8918	7.88	1.89	-0.750			
0.6477	41450.59	3.3820	3.3822	-0.8693	7.90	1.91	-0.750			
0.6503	41616.65	3.3790	3.3789	-0.8484	7.91	1.92	-0.750			
0.6528	41776.59	3.3760	3.3761	-0.8336	7.93	1.94	-0.750			
0.6552	41934.91	3.3730	3.3730	-0.8108	7.94	1.95	-0.750			
0.6576	42088.11	3.3700	3.3700	-0.7972	7.95	1.96	-0.750			
0.6600	42240.74	3.3670	3.3669	-0.7779	7.97	1.98	-0.750			
0.6623	42388.45	3.3640	3.3641	-0.7624	7.98	1.99	-0.750			
0.6646	42534.72	3.3610	3.3609	-0.7467	7.99	2.00	-0.750			
0.6668	42677.12	3.3580	3.3580	-0.7241	8.01	2.02	-0.750			
0.6689	42812.47	3.3550	3.3550	-0.7034	8.02	2.03	-0.750			
0.6710	42947.18	3.3520	3.3520	-0.6879	8.04	2.05	-0.750			
0.6730	43075.15	3.3490	3.3491	-0.6707	8.05	2.06	-0.750			
0.6751	43203.53	3.3460	3.3459	-0.6587	8.06	2.07	-0.750			
0.6770	43328.16	3.3430	3.3430	-0.6426	8.08	2.09	-0.750			
0.6789	43451.66	3.3400	3.3400	-0.6265	8.09	2.10	-0.750			
0.6808	43570.60	3.3370	3.3371	-0.6110	8.11	2.12	-0.750			
0.6826	43685.96	3.3340	3.3340	-0.5947	8.12	2.13	-0.750			
0.6844	43798.86	3.3310	3.3309	-0.5799	8.13	2.14	-0.750			
0.6860	43906.17	3.3280	3.3280	-0.5665	8.14	2.15	-0.750			
0.6877	44014.60	3.3250	3.3251	-0.5569	8.16	2.17	-0.750			
0.6894	44120.95	3.3220	3.3219	-0.5490	8.17	2.18	-0.750			
0.6910	44226.37	3.3190	3.3190	-0.5370	8.18	2.19	-0.750			
0.6926	44328.48	3.3160	3.3162	-0.5231	8.19	2.20	-0.750			
0.6942	44427.61	3.3130	3.3131	-0.5115	8.20	2.21	-0.750			
0.6957	44524.06	3.3100	3.3101	-0.5015	8.22	2.23	-0.750			
0.6972	44618.05	3.3070	3.3070	-0.4919	8.23	2.24	-0.750			
0.6986	44712.56	3.3040	3.3039	-0.4814	8.24	2.25	-0.750			
0.7001	44803.63	3.3010	3.3010	-0.4707	8.25	2.26	-0.750			
0.7015	44894.15	3.2980	3.2981	-0.4637	8.26	2.27	-0.750			
0.7028	44981.79	3.2950	3.2950	-0.4529	8.27	2.28	-0.750			
0.7042	45066.89	3.2920	3.2919	-0.4429	8.28	2.29	-0.750			
0.7055	45150.57	3.2890	3.2889	-0.4358	8.29	2.30	-0.750			
0.7068	45233.19	3.2860	3.2861	-0.4281	8.31	2.32	-0.750			
0.7081	45316.12	3.2830	3.2830	-0.4217	8.32	2.33	-0.750			
0.7093	45397.02	3.2800	3.2799	-0.4129	8.33	2.34	-0.750			
0.7106	45475.33	3.2770	3.2771	-0.4036	8.34	2.35	-0.750			
0.7117	45550.97	3.2740	3.2740	-0.3948	8.35	2.36	-0.750			
0.7129	45625.08	3.2710	3.2710	-0.3904	8.36	2.37	-0.750			
0.7141	45699.23	3.2680	3.2679	-0.3821	8.38	2.39	-0.750			
0.7152	45772.70	3.2650	3.2650	-0.3773	8.39	2.40	-0.750			
0.7163	45845.80	3.2620	3.2621	-0.3736	8.40	2.41	-0.750			
0.7174	45916.49	3.2590	3.2593	-0.3669	8.40	2.41	-0.750			
0.7185	45985.94	3.2560	3.2560	-0.3600	8.41	2.42	-0.750			
0.7196	46053.95	3.2530	3.2529	-0.3542	8.42	2.43	-0.750			
0.7206	46121.54	3.2500	3.2500	-0.3478	8.43	2.44	-0.750			
0.7217	46188.82	3.2470	3.2470	-0.3441	8.44	2.45	-0.750			
0.7227	46253.77	3.2440	3.2440	-0.3367	8.46	2.47	-0.750			
0.7237	46318.07	3.2410	3.2411	-0.3305	8.47	2.48	-0.750			
0.7247	46380.45	3.2380	3.2380	-0.3245	8.48	2.49	-0.750			
0.7257	46441.61	3.2350	3.2350	-0.3184	8.49	2.50	-0.750			
0.7266	46501.99	3.2320	3.2320	-0.3155	8.50	2.51	-0.750			
0.7275	46562.79	3.2290	3.2290	-0.3121	8.51	2.52	-0.750			
0.7285	46622.34	3.2260	3.2260	-0.3065	8.52	2.53	-0.750			
0.7294	46680.59	3.2230	3.2230	-0.3037	8.52	2.53	-0.750			
0.7303	46738.82	3.2200	3.2201	-0.3000	8.53	2.54	-0.750			
0.7312	46795.78	3.2170	3.2169	-0.2957	8.54	2.55	-0.750			
0.7321	46851.74	3.2140	3.2139	-0.2926	8.56	2.57	-0.750			
0.7329	46907.48	3.2110	3.2112	-0.2884	8.57	2.58	-0.750			
0.7338	46963.09	3.2080	3.2080	-0.2858	8.58	2.59	-0.750			
0.7347	47017.91	3.2050	3.2049	-0.2839	8.59	2.60	-0.750			
0.7355	47071.79	3.2020	3.2020	-0.2796	8.60	2.61	-0.750			
0.7363	47125.04	3.1990	3.1990	-0.2770	8.61	2.62	-0.750			
0.7372	47178.00	3.1960	3.1960	-0.2726	8.62	2.63	-0.750			
0.7380	47230.23	3.1930	3.1930	-0.2680	8.63	2.64	-0.750			
0.7388	47281.73	3.1900	3.1900	-0.2641	8.64	2.65	-0.750			
0.7396	47331.39	3.1870	3.1870	-0.2600	8.64	2.65	-0.750			
0.7403	47380.53	3.1840	3.1840	-0.2554	8.65	2.66	-0.750			
0.7411	47429.35	3.1810	3.1809	-0.2530	8.66	2.67	-0.750			
0.7418	47477.51	3.1780	3.1780	-0.2494	8.66	2.67	-0.750			
0.7426	47524.97	3.1750	3.1751	-0.2465	8.67	2.68	-0.750			
0.7433	47572.60	3.1720	3.1719	-0.2447	8.68	2.69	-0.750			
0.7440	47619.14	3.1690	3.1691	-0.2424	8.69	2.70	-0.750			
0.7448	47664.72	3.1660	3.1660	-0.2399	8.70	2.71	-0.750			
0.7455	47711.06	3.1630	3.1629	-0.2379	8.71	2.72	-0.750			
0.7462	47757.16	3.1600	3.1601	-0.2355	8.72	2.73	-0.750			
0.7469	47802.29	3.1570	3.1569	-0.2326	8.73	2.74	-0.750			
0.7476	47847.21	3.1540	3.1540	-0.2297	8.74	2.75	-0.750			
0.7483	47890.60	3.1510	3.1510	-0.2255	8.75	2.76	-0.750			
0.7489	47932.69	3.1480	3.1480	-0.2225	8.76	2.77	-0.750			
0.7496	47975.24	3.1450	3.1449	-0.2206	8.77	2.78	-0.750			
0.7503	48016.72	3.1420	3.1421	-0.2188	8.78	2.79	-0.750			
0.7509	48058.82	3.1390	3.1389	-0.2175	8.79	2.80	-0.750			
0.7516	48100.85	3.1360	3.1361	-0.2165	8.80	2.81	-0.750			
0.7522	48142.24	3.1330	3.1330	-0.2147	8.80	2.81	-0.750			
0.7529	48183.36	3.1300	3.1301	-0.2143	8.81	2.82	-0.750			
0.7535	48224.68	3.1270	3.1269	-0.2121	8.82	2.83	-0.750			
0.7541	48264.87	3.1240	3.1239	-0.2094	8.83	2.84	-0.750			
0.7548	48305.13	3.1210	3.1211	-0.2070	8.84	2.85	-0.750			
0.7554	48344.90	3.1180	3.1179	-0.2050	8.85	2.86	-0.750			
0.7560	48384.04	3.1150	3.1150	-0.2038	8.86	2.87	-0.750			
0.7566	48422.71	3.1120	3.1121	-0.2017	8.86	2.87	-0.750			
0.7572	48461.00	3.1090	3.1089	-0.1990	8.87	2.88	-0.750			
0.7578	48499.13	3.1060	3.1060	-0.1981	8.88	2.89	-0.750			
0.7584	48537.34	3.1030	3.1030	-0.1972	8.89	2.90	-0.750			
0.7590	48574.82	3.1000	3.1000	-0.1960	8.90	2.91	-0.750			
0.7596	48612.39	3.0970	3.0970	-0.1957	8.91	2.92	-0.750			
0.7602	48649.87	3.0940	3.0940	-0.1948	8.92	2.93	-0.750			
0.7607	48687.06	3.0910	3.0910	-0.1923	8.93	2.94	-0.750			
0.7613	48724.16	3.0880	3.0880	-0.1908	8.94	2.95	-0.750			
0.7619	48760.59	3.0850	3.0851	-0.1898	8.94	2.95	-0.750			
0.7624	48796.62	3.0820	3.0821	-0.1887	8.95	2.96	-0.750			
0.7630	48832.58	3.0790	3.0788	-0.1873	8.96	2.97	-0.750			
0.7636	48868.22	3.0760	3.0759	-0.1854	8.97	2.98	-0.750			
0.7641	48903.84	3.0730	3.0730	-0.1839	8.98	2.99	-0.750			
0.7647	48939.56	3.0700	3.0700	-0.1837	8.99	3.00	-0.750			
0.7652	48974.47	3.0670	3.0671	-0.1824	9.00	3.01	-0.750			
0.7658	49009.42	3.0640	3.0640	-0.1809	9.00	3.01	-0.750			
0.7663	49043.97	3.0610	3.0609	-0.1786	9.01	3.02	-0.750			
0.7668	49078.07	3.0580	3.0579	-0.1767	9.02	3.03	-0.750			
0.7674	49111.63	3.0550	3.0550	-0.1756	9.03	3.04	-0.750			
0.7679	49145.31	3.0520	3.0520	-0.1750	9.04	3.05	-0.750			
0.7684	49178.66	3.0490	3.0490	-0.1739	9.05	3.06	-0.750			
0.7689	49211.98	3.0460	3.0459	-0.1731	9.06	3.07	-0.750			
0.7695	49244.96	3.0430	3.0430	-0.1715	9.06	3.07	-0.750			
0.7700	49278.00	3.0400	3.0400	-0.1708	9.07	3.08	-0.750			
0.7705	49310.73	3.0370	3.0371	-0.1705	9.08	3.09	-0.750			
0.7710	49343.35	3.0340	3.0340	-0.1693	9.09	3.10	-0.750			
0.7715	49375.38	3.0310	3.0310	-0.1691	9.10	3.11	-0.750			
0.7720	49408.04	3.0280	3.0279	-0.1673	9.11	3.12	-0.750			
0.7725	49439.93	3.0250	3.0250	-0.1669	9.12	3.13	-0.750			
0.7730	49471.91	3.0220	3.0221	-0.1663	9.12	3.13	-0.750			
0.7735	49504.14	3.0190	3.0190	-0.1649	9.13	3.14	-0.750			
0.7740	49535.75	3.0160	3.0159	-0.1632	9.14	3.15	-0.750			
0.7745	49566.78	3.0130	3.0129	-0.1613	9.15	3.16	-0.750			
0.7750	49597.59	3.0100	3.0102	-0.1597	9.16	3.17	-0.750			
0.7754	49627.95	3.0070	3.0070	-0.1583	9.17	3.18	-0.750			
0.7759	49658.67	3.0040	3.0039	-0.1549	9.17	3.18	-0.750			
0.7764	49688.16	3.0010	3.0010	-0.1582	9.18	3.19	-0.750			
