Ah_balance (normalized)	Ah_balance (mAh)	Voltage - fit (V)	Voltage -  interpolate (V)	dQ/dV (1/V)	Temperature (°C)	Temperature - diff (°C)	Current (C)	R_DC 0ms (mOhm)	R_DC 50ms (mOhm)	R_DC 50 ms PEC (mOhm)
0.0958	6129.39	4.1960	4.1978	0.7662	8.08	2.09	0.750			
0.0982	6285.30	4.1930	4.1946	0.7998	8.08	2.09	0.750			
0.1007	6444.91	4.1900	4.1909	0.7846	8.07	2.08	0.750			
0.1029	6587.65	4.1870	4.1875	0.7560	8.07	2.08	0.750			
0.1054	6746.13	4.1840	4.1839	0.7524	8.07	2.08	0.750			
0.1074	6875.46	4.1810	4.1810	0.7020	8.06	2.07	0.750			
0.1096	7012.26	4.1780	4.1780	0.7106	8.06	2.07	0.750			
0.1117	7151.64	4.1750	4.1751	0.7152	8.05	2.06	0.750			
0.1139	7290.94	4.1720	4.1719	0.7155	8.05	2.06	0.750			
0.1161	7428.26	4.1690	4.1692	0.7162	8.04	2.05	0.750			
0.1182	7562.86	4.1660	4.1660	0.7163	8.04	2.05	0.750			
0.1203	7700.87	4.1630	4.1630	0.7203	8.03	2.04	0.750			
0.1225	7840.22	4.1600	4.1599	0.7214	8.03	2.04	0.750			
0.1247	7980.38	4.1570	4.1571	0.7240	8.02	2.03	0.750			
0.1269	8119.73	4.1540	4.1541	0.7219	8.02	2.03	0.750			
0.1290	8257.08	4.1510	4.1511	0.7285	8.01	2.02	0.750			
0.1312	8393.64	4.1480	4.1480	0.7277	8.01	2.02	0.750			
0.1334	8535.05	4.1450	4.1448	0.7309	8.00	2.01	0.750			
0.1356	8677.43	4.1420	4.1420	0.7365	8.00	2.01	0.750			
0.1378	8821.40	4.1390	4.1391	0.7355	7.99	2.00	0.750			
0.1401	8964.11	4.1360	4.1360	0.7398	7.99	2.00	0.750			
0.1422	9101.96	4.1330	4.1331	0.7375	7.99	2.00	0.750			
0.1444	9241.87	4.1300	4.1300	0.7422	7.98	1.99	0.750			
0.1466	9384.56	4.1270	4.1268	0.7474	7.98	1.99	0.750			
0.1489	9531.51	4.1240	4.1241	0.7538	7.97	1.98	0.750			
0.1512	9679.94	4.1210	4.1210	0.7558	7.97	1.98	0.750			
0.1535	9825.56	4.1180	4.1181	0.7518	7.96	1.97	0.750			
0.1558	9968.51	4.1150	4.1150	0.7471	7.96	1.97	0.750			
0.1579	10108.07	4.1120	4.1120	0.7413	7.95	1.96	0.750			
0.1602	10249.89	4.1090	4.1091	0.7504	7.95	1.96	0.750			
0.1624	10393.62	4.1060	4.1059	0.7560	7.94	1.95	0.750			
0.1647	10538.53	4.1030	4.1030	0.7696	7.93	1.94	0.750			
0.1670	10689.24	4.1000	4.1000	0.7812	7.92	1.93	0.750			
0.1694	10840.51	4.0970	4.0970	0.7859	7.92	1.93	0.750			
0.1718	10993.78	4.0940	4.0940	0.7885	7.91	1.92	0.750			
0.1742	11146.40	4.0910	4.0911	0.7917	7.90	1.91	0.750			
0.1765	11296.69	4.0880	4.0880	0.7878	7.90	1.91	0.750			
0.1789	11447.74	4.0850	4.0849	0.7927	7.89	1.90	0.750			
0.1812	11597.99	4.0820	4.0820	0.7909	7.89	1.90	0.750			
0.1836	11751.53	4.0790	4.0788	0.7973	7.88	1.89	0.750			
0.1861	11907.72	4.0760	4.0761	0.7981	7.87	1.88	0.750			
0.1885	12061.46	4.0730	4.0730	0.7950	7.87	1.88	0.750			
0.1908	12213.04	4.0700	4.0700	0.8000	7.86	1.87	0.750			
0.1932	12366.03	4.0670	4.0671	0.8060	7.86	1.87	0.750			
0.1956	12518.27	4.0640	4.0638	0.8068	7.85	1.86	0.750			
0.1980	12674.20	4.0610	4.0611	0.8159	7.85	1.86	0.750			
0.2005	12834.69	4.0580	4.0580	0.8138	7.84	1.85	0.750			
0.2030	12991.03	4.0550	4.0550	0.8225	7.84	1.85	0.750			
0.2055	13149.99	4.0520	4.0520	0.8277	7.84	1.85	0.750			
0.2079	13308.75	4.0490	4.0491	0.8274	7.83	1.84	0.750			
0.2104	13466.92	4.0460	4.0461	0.8327	7.83	1.84	0.750			
0.2129	13628.00	4.0430	4.0432	0.8358	7.82	1.83	0.750			
0.2154	13788.79	4.0400	4.0399	0.8419	7.81	1.82	0.750			
0.2180	13953.19	4.0370	4.0369	0.8474	7.81	1.82	0.750			
0.2205	14113.27	4.0340	4.0340	0.8436	7.80	1.81	0.750			
0.2231	14276.07	4.0310	4.0311	0.8467	7.80	1.81	0.750			
0.2256	14441.11	4.0280	4.0280	0.8511	7.79	1.80	0.750			
0.2282	14602.57	4.0250	4.0250	0.8549	7.78	1.79	0.750			
0.2307	14767.58	4.0220	4.0220	0.8579	7.78	1.79	0.750			
0.2333	14932.23	4.0190	4.0189	0.8565	7.77	1.78	0.750			
0.2359	15097.14	4.0160	4.0159	0.8674	7.77	1.78	0.750			
0.2385	15264.23	4.0130	4.0131	0.8701	7.76	1.77	0.750			
0.2411	15433.52	4.0100	4.0098	0.8711	7.75	1.76	0.750			
0.2438	15600.78	4.0070	4.0070	0.8682	7.75	1.76	0.750			
0.2463	15764.07	4.0040	4.0041	0.8711	7.74	1.75	0.750			
0.2490	15933.72	4.0010	4.0010	0.8781	7.73	1.74	0.750			
0.2516	16102.62	3.9980	3.9979	0.8832	7.73	1.74	0.750			
0.2542	16270.48	3.9950	3.9950	0.8907	7.72	1.73	0.750			
0.2569	16444.43	3.9920	3.9921	0.9031	7.71	1.72	0.750			
0.2597	16621.26	3.9890	3.9889	0.9109	7.71	1.72	0.750			
0.2625	16797.94	3.9860	3.9861	0.9041	7.70	1.71	0.750			
0.2651	16969.38	3.9830	3.9830	0.9053	7.69	1.70	0.750			
0.2679	17143.66	3.9800	3.9801	0.9131	7.68	1.69	0.750			
0.2706	17318.37	3.9770	3.9769	0.9128	7.67	1.68	0.750			
0.2733	17494.29	3.9740	3.9741	0.9098	7.66	1.67	0.750			
0.2761	17669.49	3.9710	3.9710	0.9207	7.66	1.67	0.750			
0.2788	17846.33	3.9680	3.9681	0.9301	7.65	1.66	0.750			
0.2817	18028.10	3.9650	3.9649	0.9390	7.64	1.65	0.750			
0.2845	18207.08	3.9620	3.9619	0.9415	7.63	1.64	0.750			
0.2873	18388.79	3.9590	3.9590	0.9451	7.62	1.63	0.750			
0.2902	18572.50	3.9560	3.9562	0.9517	7.61	1.62	0.750			
0.2931	18755.58	3.9530	3.9529	0.9536	7.61	1.62	0.750			
0.2959	18936.24	3.9500	3.9500	0.9532	7.60	1.61	0.750			
0.2987	19119.17	3.9470	3.9470	0.9593	7.59	1.60	0.750			
0.3016	19304.98	3.9440	3.9440	0.9685	7.59	1.60	0.750			
0.3046	19491.68	3.9410	3.9411	0.9850	7.58	1.59	0.750			
0.3075	19683.09	3.9380	3.9379	0.9932	7.57	1.58	0.750			
0.3106	19876.30	3.9350	3.9349	1.0004	7.56	1.57	0.750			
0.3136	20068.89	3.9320	3.9321	1.0095	7.56	1.57	0.750			
0.3166	20262.33	3.9290	3.9290	1.0206	7.55	1.56	0.750			
0.3197	20459.41	3.9260	3.9261	1.0274	7.54	1.55	0.750			
0.3228	20658.30	3.9230	3.9230	1.0357	7.53	1.54	0.750			
0.3259	20855.38	3.9200	3.9200	1.0429	7.52	1.53	0.750			
0.3291	21060.15	3.9170	3.9170	1.0528	7.51	1.52	0.750			
0.3322	21262.66	3.9140	3.9140	1.0572	7.50	1.51	0.750			
0.3354	21468.09	3.9110	3.9111	1.0534	7.49	1.50	0.750			
0.3386	21668.25	3.9080	3.9081	1.0632	7.48	1.49	0.750			
0.3418	21872.97	3.9050	3.9051	1.0782	7.46	1.47	0.750			
0.3450	22078.36	3.9020	3.9019	1.0903	7.45	1.46	0.750			
0.3483	22289.01	3.8990	3.8992	1.0995	7.44	1.45	0.750			
0.3516	22502.25	3.8960	3.8961	1.1222	7.43	1.44	0.750			
0.3550	22718.89	3.8930	3.8930	1.1375	7.42	1.43	0.750			
0.3585	22941.98	3.8900	3.8898	1.1529	7.41	1.42	0.750			
0.3619	23161.69	3.8870	3.8870	1.1686	7.40	1.41	0.750			
0.3654	23387.68	3.8840	3.8841	1.1850	7.39	1.40	0.750			
0.3690	23616.42	3.8810	3.8810	1.2073	7.38	1.39	0.750			
0.3727	23850.24	3.8780	3.8781	1.2136	7.37	1.38	0.750			
0.3763	24085.32	3.8750	3.8750	1.2350	7.35	1.36	0.750			
0.3801	24325.00	3.8720	3.8721	1.2531	7.34	1.35	0.750			
0.3838	24566.18	3.8690	3.8686	1.2665	7.32	1.33	0.750			
0.3876	24807.75	3.8660	3.8662	1.2861	7.31	1.32	0.750			
0.3915	25055.95	3.8630	3.8630	1.3191	7.30	1.31	0.750			
0.3955	25311.94	3.8600	3.8602	1.3363	7.28	1.29	0.750	0.393	0.904	
0.3995	25569.82	3.8570	3.8572	1.3570	7.27	1.28	0.750			
0.4037	25834.93	3.8540	3.8541	1.3798	7.25	1.26	0.750			
0.4079	26104.24	3.8510	3.8510	1.4039	7.23	1.24	0.750			
0.4120	26370.21	3.8480	3.8481	1.4139	7.22	1.23	0.750			
0.4164	26646.95	3.8450	3.8447	1.4376	7.20	1.21	0.750			
0.4207	26927.02	3.8420	3.8418	1.4546	7.18	1.19	0.750			
0.4251	27207.50	3.8390	3.8392	1.4976	7.17	1.18	0.750			
0.4296	27497.02	3.8360	3.8361	1.5226	7.15	1.16	0.750			
0.4342	27791.20	3.8330	3.8330	1.5380	7.13	1.14	0.750			
0.4389	28090.60	3.8300	3.8300	1.5809	7.11	1.12	0.750			
0.4436	28391.50	3.8270	3.8272	1.6037	7.08	1.09	0.750			
0.4485	28706.38	3.8240	3.8239	1.6368	7.06	1.07	0.750			
0.4535	29023.87	3.8210	3.8209	1.6734	7.04	1.05	0.750			
0.4586	29347.38	3.8180	3.8178	1.6929	7.02	1.03	0.750			
0.4638	29683.94	3.8150	3.8150	1.7307	7.00	1.01	0.750			
0.4690	30016.92	3.8120	3.8123	1.7416	6.99	1.00	0.750			
0.4743	30356.86	3.8090	3.8091	1.7621	6.97	0.98	0.750			
0.4796	30692.63	3.8060	3.8060	1.7790	6.94	0.95	0.750			
0.4849	31035.81	3.8030	3.8030	1.8219	6.92	0.93	0.750			
0.4904	31384.38	3.8000	3.8003	1.8851	6.89	0.90	0.750			
0.4961	31752.96	3.7970	3.7969	1.9253	6.87	0.88	0.750			
0.5020	32126.87	3.7940	3.7941	1.9680	6.85	0.86	0.750			
0.5080	32510.47	3.7910	3.7911	2.0028	6.82	0.83	0.750			
0.5142	32908.50	3.7880	3.7879	2.0214	6.79	0.80	0.750			
0.5201	33289.58	3.7850	3.7851	2.0401	6.77	0.78	0.750			
0.5263	33686.21	3.7820	3.7820	2.0430	6.74	0.75	0.750			
0.5326	34084.07	3.7790	3.7789	2.0741	6.72	0.73	0.750			
0.5387	34473.66	3.7760	3.7762	2.0957	6.69	0.70	0.750			
0.5451	34884.36	3.7730	3.7728	2.1570	6.67	0.68	0.750			
0.5517	35308.25	3.7700	3.7699	2.1938	6.64	0.65	0.750			
0.5582	35726.38	3.7670	3.7671	2.2359	6.61	0.62	0.750			
0.5651	36165.51	3.7640	3.7641	2.3204	6.59	0.60	0.750			
0.5722	36618.61	3.7610	3.7608	2.3368	6.56	0.57	0.750			
0.5791	37065.55	3.7580	3.7582	2.4202	6.53	0.54	0.750			
0.5865	37537.81	3.7550	3.7549	2.5198	6.50	0.51	0.750			
0.5941	38022.10	3.7520	3.7519	2.6327	6.47	0.48	0.750			
0.6023	38544.74	3.7490	3.7491	2.7618	6.44	0.45	0.750			
0.6109	39100.32	3.7460	3.7460	2.8660	6.40	0.41	0.750			
0.6195	39650.49	3.7430	3.7429	2.8940	6.37	0.38	0.750			
0.6283	40208.49	3.7400	3.7400	3.0369	6.34	0.35	0.750			
0.6375	40801.10	3.7370	3.7369	3.1455	6.31	0.32	0.750			
0.6473	41424.59	3.7340	3.7343	3.1532	6.28	0.29	0.750			
0.6568	42037.55	3.7310	3.7311	3.0307	6.24	0.25	0.750			
0.6655	42594.65	3.7280	3.7280	2.8387	6.21	0.22	0.750			
0.6741	43143.20	3.7250	3.7249	2.6273	6.19	0.20	0.750			
0.6817	43629.25	3.7220	3.7220	2.3585	6.17	0.18	0.750			
0.6881	44040.59	3.7190	3.7192	2.0806	6.15	0.16	0.750			
0.6938	44403.36	3.7160	3.7160	1.8289	6.14	0.15	0.750			
0.6989	44729.13	3.7130	3.7129	1.6389	6.12	0.13	0.750			
0.7035	45022.01	3.7100	3.7101	1.4773	6.11	0.12	0.750			
0.7076	45286.82	3.7070	3.7071	1.3672	6.10	0.11	0.750			
0.7114	45532.43	3.7040	3.7039	1.2667	6.09	0.10	0.750			
0.7150	45757.12	3.7010	3.7009	1.1744	6.09	0.10	0.750			
0.7183	45969.81	3.6980	3.6980	1.1150	6.08	0.09	0.750			
0.7216	46179.38	3.6950	3.6950	1.0807	6.07	0.08	0.750			
0.7247	46382.62	3.6920	3.6920	1.0516	6.06	0.07	0.750			
0.7278	46577.74	3.6890	3.6891	1.0348	6.06	0.07	0.750			
0.7308	46771.27	3.6860	3.6859	1.0206	6.05	0.06	0.750			
0.7339	46966.75	3.6830	3.6828	1.0134	6.05	0.06	0.750			
0.7369	47163.62	3.6800	3.6801	0.9943	6.04	0.05	0.750			
0.7399	47354.06	3.6770	3.6771	0.9839	6.04	0.05	0.750			
0.7429	47543.77	3.6740	3.6740	0.9678	6.03	0.04	0.750			
0.7457	47726.48	3.6710	3.6709	0.9434	6.02	0.03	0.750			
0.7485	47904.00	3.6680	3.6682	0.9288	6.02	0.03	0.750			
0.7512	48078.74	3.6650	3.6651	0.9191	6.02	0.03	0.750			
0.7540	48254.55	3.6620	3.6620	0.9141	6.01	0.02	0.750			
0.7567	48430.84	3.6590	3.6590	0.9135	6.01	0.02	0.750			
0.7595	48604.99	3.6560	3.6560	0.9018	6.01	0.02	0.750			
0.7622	48779.24	3.6530	3.6530	0.8889	6.00	0.01	0.750			
0.7648	48949.30	3.6500	3.6500	0.8848	6.00	0.01	0.750			
0.7674	49113.98	3.6470	3.6471	0.8865	6.00	0.01	0.750			
0.7700	49280.48	3.6440	3.6440	0.8901	5.99	0.00	0.750			
0.7727	49455.30	3.6410	3.6410	0.8856	5.99	0.00	0.750			
0.7755	49629.44	3.6380	3.6379	0.8733	5.99	0.00	0.750			
0.7782	49802.56	3.6350	3.6352	0.8381	5.99	0.00	0.750			
0.7808	49971.56	3.6320	3.6319	0.7787	5.99	0.00	0.750			
0.7831	50116.21	3.6290	3.6290	0.6926	5.99	0.00	0.750			
0.7850	50240.94	3.6260	3.6260	0.5923	5.99	0.00	0.750			
0.7864	50332.61	3.6230	3.6234	0.5002	5.99	0.00	0.750			
0.7878	50421.02	3.6200	3.6202	0.4229	5.99	0.00	0.750			
0.7889	50490.57	3.6170	3.6170	0.3344	5.99	0.00	0.750			
0.7897	50540.90	3.6140	3.6135	0.2487	5.99	0.00	0.750			
0.7903	50579.34	3.6110	3.6098	0.1849	5.99	0.00	0.750			
0.7906	50598.90	3.6080	3.6045	0.1199	5.99	0.00	0.750			
0.7907	50603.67	3.5930	3.5990	-0.0967	5.99	0.00	0.750			
0.7908	50613.06	3.6050	3.5127	0.0723	5.99	0.00	0.759			
0.7909	50618.18	3.5960	3.4539	-0.0545	5.99	0.00	0.767			
0.7910	50622.88	3.6020	3.4000	0.0300	5.99	0.00	0.774			
0.7910	50624.59	3.5990	3.3805	-0.0122	5.99	0.00	0.777			
