Ah_balance (normalized)	Ah_balance (mAh)	Voltage - fit (V)	Voltage -  interpolate (V)	dQ/dV (1/V)	Temperature (°C)	Temperature - diff (°C)	Current (C)	R_DC 0ms (mOhm)	R_DC 50ms (mOhm)	R_DC 50 ms PEC (mOhm)
0.0003	19.44	4.1010	4.1006	-0.0814	5.99	-0.01	-0.750			
0.0006	37.77	4.0980	4.0978	-0.1095	5.99	-0.01	-0.750			
0.0010	62.17	4.0950	4.0948	-0.1365	5.99	-0.01	-0.750			
0.0014	91.31	4.0920	4.0920	-0.1609	5.99	-0.01	-0.750			
0.0019	124.54	4.0890	4.0891	-0.1851	5.99	-0.01	-0.750			
0.0025	162.57	4.0860	4.0860	-0.2079	5.99	-0.01	-0.750			
0.0032	205.54	4.0830	4.0830	-0.2321	5.99	-0.01	-0.750			
0.0039	250.57	4.0800	4.0801	-0.2577	5.99	-0.01	-0.750			
0.0047	302.94	4.0770	4.0770	-0.2809	6.00	-0.00	-0.750			
0.0056	359.64	4.0740	4.0739	-0.3042	6.00	-0.00	-0.750			
0.0066	420.41	4.0710	4.0709	-0.3286	6.00	-0.00	-0.750			
0.0076	486.01	4.0680	4.0683	-0.3539	6.00	0.00	-0.750			
0.0087	556.45	4.0650	4.0649	-0.3775	6.00	0.00	-0.750			
0.0099	631.23	4.0620	4.0619	-0.4000	6.00	0.00	-0.750			
0.0111	710.12	4.0590	4.0591	-0.4228	6.01	0.01	-0.750			
0.0124	793.94	4.0560	4.0560	-0.4483	6.01	0.01	-0.750			
0.0138	881.04	4.0530	4.0530	-0.4747	6.01	0.01	-0.750			
0.0152	974.29	4.0500	4.0500	-0.5010	6.01	0.01	-0.750			
0.0168	1073.71	4.0470	4.0469	-0.5247	6.01	0.01	-0.750			
0.0184	1178.41	4.0440	4.0439	-0.5495	6.02	0.02	-0.750			
0.0201	1286.14	4.0410	4.0413	-0.5712	6.02	0.02	-0.750			
0.0219	1398.51	4.0380	4.0379	-0.5918	6.02	0.02	-0.750			
0.0236	1513.18	4.0350	4.0350	-0.6110	6.03	0.03	-0.750			
0.0255	1629.22	4.0320	4.0320	-0.6328	6.03	0.03	-0.750			
0.0274	1756.78	4.0290	4.0291	-0.6539	6.04	0.04	-0.750			
0.0295	1885.59	4.0260	4.0258	-0.6634	6.04	0.04	-0.750			
0.0315	2014.91	4.0230	4.0231	-0.6763	6.05	0.05	-0.750			
0.0335	2145.68	4.0200	4.0201	-0.6838	6.05	0.05	-0.750			
0.0356	2277.15	4.0170	4.0169	-0.6920	6.06	0.06	-0.750			
0.0377	2409.76	4.0140	4.0139	-0.6997	6.07	0.07	-0.750			
0.0397	2541.86	4.0110	4.0112	-0.7111	6.07	0.07	-0.750			
0.0419	2682.31	4.0080	4.0080	-0.7255	6.08	0.08	-0.750			
0.0442	2825.72	4.0050	4.0048	-0.7328	6.09	0.09	-0.750			
0.0463	2966.11	4.0020	4.0021	-0.7362	6.10	0.10	-0.750			
0.0486	3108.05	3.9990	3.9991	-0.7436	6.11	0.11	-0.750			
0.0508	3251.01	3.9960	3.9959	-0.7466	6.12	0.12	-0.750			
0.0530	3394.82	3.9930	3.9930	-0.7453	6.13	0.13	-0.750			
0.0553	3537.99	3.9900	3.9901	-0.7445	6.14	0.14	-0.750			
0.0575	3682.71	3.9870	3.9869	-0.7486	6.15	0.15	-0.750			
0.0598	3826.43	3.9840	3.9840	-0.7488	6.16	0.16	-0.750			
0.0620	3968.25	3.9810	3.9810	-0.7489	6.17	0.17	-0.750			
0.0642	4111.30	3.9780	3.9780	-0.7560	6.18	0.18	-0.750			
0.0665	4257.47	3.9750	3.9751	-0.7656	6.19	0.19	-0.750			
0.0688	4405.38	3.9720	3.9719	-0.7707	6.20	0.20	-0.750			
0.0712	4553.60	3.9690	3.9690	-0.7754	6.21	0.21	-0.750			
0.0735	4701.87	3.9660	3.9661	-0.7870	6.22	0.22	-0.750			
0.0759	4854.99	3.9630	3.9629	-0.7908	6.23	0.23	-0.750			
0.0782	5007.74	3.9600	3.9600	-0.7966	6.24	0.24	-0.750			
0.0806	5161.52	3.9570	3.9570	-0.8007	6.25	0.25	-0.750			
0.0831	5317.30	3.9540	3.9540	-0.8025	6.26	0.26	-0.750			
0.0855	5472.64	3.9510	3.9510	-0.8035	6.27	0.27	-0.750			
0.0879	5625.46	3.9480	3.9480	-0.8068	6.28	0.28	-0.750			
0.0903	5781.66	3.9450	3.9450	-0.7951	6.29	0.29	-0.750			
0.0927	5935.06	3.9420	3.9419	-0.7970	6.30	0.30	-0.750			
0.0951	6086.09	3.9390	3.9393	-0.7920	6.31	0.31	-0.750			
0.0975	6237.60	3.9360	3.9358	-0.7915	6.32	0.32	-0.750			
0.0998	6389.28	3.9330	3.9329	-0.7971	6.33	0.33	-0.750			
0.1022	6541.93	3.9300	3.9301	-0.7930	6.34	0.34	-0.750			
0.1046	6696.32	3.9270	3.9269	-0.7981	6.36	0.36	-0.750			
0.1071	6851.60	3.9240	3.9243	-0.7977	6.37	0.37	-0.750			
0.1094	7000.85	3.9210	3.9209	-0.7987	6.38	0.38	-0.750			
0.1118	7153.74	3.9180	3.9180	-0.8124	6.39	0.39	-0.750			
0.1142	7311.14	3.9150	3.9149	-0.8108	6.40	0.40	-0.750			
0.1167	7467.73	3.9120	3.9121	-0.8136	6.41	0.41	-0.750			
0.1192	7629.82	3.9090	3.9092	-0.8214	6.43	0.43	-0.750			
0.1217	7787.14	3.9060	3.9059	-0.8138	6.44	0.44	-0.750			
0.1241	7941.73	3.9030	3.9029	-0.8145	6.45	0.45	-0.750			
0.1265	8095.50	3.9000	3.9001	-0.8123	6.46	0.46	-0.750			
0.1289	8248.65	3.8970	3.8970	-0.8163	6.47	0.47	-0.750			
0.1314	8410.82	3.8940	3.8939	-0.8281	6.48	0.48	-0.750			
0.1339	8568.01	3.8910	3.8911	-0.8320	6.49	0.49	-0.750			
0.1364	8730.21	3.8880	3.8880	-0.8412	6.50	0.50	-0.750			
0.1390	8893.40	3.8850	3.8849	-0.8439	6.51	0.51	-0.750			
0.1415	9055.45	3.8820	3.8820	-0.8376	6.52	0.52	-0.750			
0.1440	9217.24	3.8790	3.8789	-0.8427	6.54	0.54	-0.750			
0.1465	9379.14	3.8760	3.8759	-0.8425	6.55	0.55	-0.750			
0.1491	9541.48	3.8730	3.8729	-0.8457	6.56	0.56	-0.750			
0.1516	9702.82	3.8700	3.8698	-0.8394	6.57	0.57	-0.750			
0.1541	9862.60	3.8670	3.8671	-0.8395	6.58	0.58	-0.750			
0.1567	10025.67	3.8640	3.8640	-0.8500	6.60	0.60	-0.750			
0.1592	10189.20	3.8610	3.8609	-0.8513	6.61	0.61	-0.750			
0.1617	10350.97	3.8580	3.8578	-0.8520	6.62	0.62	-0.750			
0.1643	10516.46	3.8550	3.8551	-0.8560	6.64	0.64	-0.750			
0.1669	10681.71	3.8520	3.8520	-0.8540	6.65	0.65	-0.750			
0.1695	10848.90	3.8490	3.8491	-0.8634	6.67	0.67	-0.750			
0.1721	11012.00	3.8460	3.8460	-0.8668	6.68	0.68	-0.750			
0.1746	11175.57	3.8430	3.8428	-0.8694	6.69	0.69	-0.750			
0.1773	11345.60	3.8400	3.8400	-0.8746	6.70	0.70	-0.750			
0.1799	11512.80	3.8370	3.8371	-0.8801	6.71	0.71	-0.750			
0.1826	11686.20	3.8340	3.8341	-0.8901	6.72	0.72	-0.750			
0.1853	11857.97	3.8310	3.8309	-0.8888	6.73	0.73	-0.750			
0.1879	12027.86	3.8280	3.8279	-0.8808	6.74	0.74	-0.750			
0.1906	12196.81	3.8250	3.8250	-0.8767	6.75	0.75	-0.750			
0.1932	12362.48	3.8220	3.8221	-0.8802	6.76	0.76	-0.750			
0.1958	12531.12	3.8190	3.8192	-0.8869	6.77	0.77	-0.750			
0.1984	12699.53	3.8160	3.8159	-0.8856	6.79	0.79	-0.750			
0.2011	12871.55	3.8130	3.8128	-0.8917	6.80	0.80	-0.750			
0.2038	13046.24	3.8100	3.8102	-0.8979	6.81	0.81	-0.750			
0.2066	13219.83	3.8070	3.8068	-0.8999	6.83	0.83	-0.750			
0.2093	13392.50	3.8040	3.8040	-0.9045	6.84	0.84	-0.750			
0.2120	13565.42	3.8010	3.8010	-0.9015	6.85	0.85	-0.750			
0.2146	13737.60	3.7980	3.7978	-0.8966	6.86	0.86	-0.750			
0.2174	13910.72	3.7950	3.7950	-0.8973	6.87	0.87	-0.750			
0.2200	14082.80	3.7920	3.7921	-0.9000	6.88	0.88	-0.750			
0.2227	14252.77	3.7890	3.7890	-0.9061	6.89	0.89	-0.750			
0.2254	14427.86	3.7860	3.7859	-0.9047	6.91	0.91	-0.750			
0.2281	14601.32	3.7830	3.7830	-0.9091	6.92	0.92	-0.750			
0.2309	14777.41	3.7800	3.7799	-0.9187	6.93	0.93	-0.750			
0.2337	14956.07	3.7770	3.7769	-0.9195	6.94	0.94	-0.750			
0.2365	15132.86	3.7740	3.7740	-0.9219	6.96	0.96	-0.750			
0.2392	15309.11	3.7710	3.7710	-0.9207	6.97	0.97	-0.750			
0.2420	15484.82	3.7680	3.7681	-0.9162	6.98	0.98	-0.750			
0.2447	15662.93	3.7650	3.7651	-0.9261	6.99	0.99	-0.750			
0.2475	15839.65	3.7620	3.7620	-0.9261	7.00	1.00	-0.750			
0.2503	16017.54	3.7590	3.7589	-0.9276	7.01	1.01	-0.750			
0.2531	16197.70	3.7560	3.7560	-0.9294	7.02	1.02	-0.750			
0.2559	16374.82	3.7530	3.7531	-0.9286	7.03	1.03	-0.750			
0.2586	16553.17	3.7500	3.7499	-0.9360	7.04	1.04	-0.750			
0.2615	16733.00	3.7470	3.7471	-0.9494	7.06	1.06	-0.750			
0.2643	16915.63	3.7440	3.7439	-0.9474	7.07	1.07	-0.750			
0.2672	17101.19	3.7410	3.7408	-0.9556	7.08	1.08	-0.750			
0.2701	17285.71	3.7380	3.7383	-0.9560	7.09	1.09	-0.750			
0.2730	17470.90	3.7350	3.7349	-0.9571	7.10	1.10	-0.750			
0.2758	17651.60	3.7320	3.7319	-0.9538	7.11	1.11	-0.750			
0.2786	17831.52	3.7290	3.7291	-0.9474	7.12	1.12	-0.750			
0.2815	18015.70	3.7260	3.7259	-0.9526	7.14	1.14	-0.750			
0.2844	18199.04	3.7230	3.7230	-0.9553	7.15	1.15	-0.750			
0.2872	18381.99	3.7200	3.7200	-0.9705	7.16	1.16	-0.750			
0.2902	18569.89	3.7170	3.7169	-0.9737	7.17	1.17	-0.750			
0.2931	18758.31	3.7140	3.7138	-0.9841	7.18	1.18	-0.750			
0.2961	18948.04	3.7110	3.7112	-0.9939	7.19	1.19	-0.750			
0.2991	19142.45	3.7080	3.7079	-1.0058	7.21	1.21	-0.750			
0.3021	19336.86	3.7050	3.7049	-1.0074	7.22	1.22	-0.750			
0.3051	19528.79	3.7020	3.7020	-1.0007	7.23	1.23	-0.750			
0.3082	19722.71	3.6990	3.6991	-1.0171	7.24	1.24	-0.750			
0.3112	19919.33	3.6960	3.6960	-1.0249	7.25	1.25	-0.750			
0.3143	20114.54	3.6930	3.6929	-1.0201	7.26	1.26	-0.750			
0.3173	20308.20	3.6900	3.6900	-1.0232	7.27	1.27	-0.750			
0.3205	20509.92	3.6870	3.6872	-1.0358	7.28	1.28	-0.750			
0.3236	20709.83	3.6840	3.6839	-1.0352	7.29	1.29	-0.750			
0.3267	20907.29	3.6810	3.6810	-1.0384	7.30	1.30	-0.750			
0.3298	21105.14	3.6780	3.6780	-1.0404	7.31	1.31	-0.750			
0.3329	21303.91	3.6750	3.6752	-1.0476	7.32	1.32	-0.750			
0.3361	21507.36	3.6720	3.6720	-1.0539	7.33	1.33	-0.750			
0.3392	21707.98	3.6690	3.6690	-1.0621	7.34	1.34	-0.750			
0.3424	21912.96	3.6660	3.6659	-1.0786	7.35	1.35	-0.750			
0.3456	22120.53	3.6630	3.6632	-1.0902	7.36	1.36	-0.750			
0.3489	22330.79	3.6600	3.6600	-1.0989	7.37	1.37	-0.750			
0.3523	22546.01	3.6570	3.6570	-1.1066	7.38	1.38	-0.750			
0.3556	22759.25	3.6540	3.6538	-1.1175	7.39	1.39	-0.750			
0.3590	22974.54	3.6510	3.6511	-1.1291	7.40	1.40	-0.750			
0.3623	23190.19	3.6480	3.6479	-1.1375	7.42	1.42	-0.750			
0.3658	23408.87	3.6450	3.6450	-1.1490	7.43	1.43	-0.750			
0.3692	23630.11	3.6420	3.6421	-1.1595	7.44	1.44	-0.750			
0.3728	23856.81	3.6390	3.6389	-1.1766	7.45	1.45	-0.750			
0.3764	24087.82	3.6360	3.6360	-1.1825	7.46	1.46	-0.750			
0.3799	24313.92	3.6330	3.6330	-1.1775	7.46	1.46	-0.750			
0.3834	24538.77	3.6300	3.6301	-1.1922	7.47	1.47	-0.750			
0.3870	24768.20	3.6270	3.6269	-1.1989	7.48	1.48	-0.750			
0.3906	24995.93	3.6240	3.6239	-1.2266	7.50	1.50	-0.750			
0.3943	25232.58	3.6210	3.6210	-1.2526	7.51	1.51	-0.750			
0.3981	25477.72	3.6180	3.6179	-1.2877	7.51	1.51	-0.750			
0.4020	25731.20	3.6150	3.6150	-1.3088	7.52	1.52	-0.750			
0.4061	25988.14	3.6120	3.6120	-1.3239	7.53	1.53	-0.750			
0.4101	26243.97	3.6090	3.6089	-1.3249	7.53	1.53	-0.750			
0.4141	26502.26	3.6060	3.6062	-1.3315	7.54	1.54	-0.750	0.431	1.097	
0.4180	26752.59	3.6030	3.6029	-1.3400	7.55	1.55	-0.750			
0.4220	27005.21	3.6000	3.6000	-1.3616	7.56	1.56	-0.750			
0.4261	27267.24	3.5970	3.5970	-1.3795	7.57	1.57	-0.750			
0.4303	27539.41	3.5940	3.5939	-1.4114	7.58	1.58	-0.750			
0.4346	27814.51	3.5910	3.5909	-1.4121	7.59	1.59	-0.750			
0.4389	28089.82	3.5880	3.5882	-1.4202	7.60	1.60	-0.750			
0.4431	28361.07	3.5850	3.5849	-1.4466	7.61	1.61	-0.750			
0.4475	28637.74	3.5820	3.5818	-1.4527	7.61	1.61	-0.750			
0.4518	28917.93	3.5790	3.5788	-1.4808	7.62	1.62	-0.750			
0.4564	29207.38	3.5760	3.5762	-1.5064	7.63	1.63	-0.750			
0.4609	29499.40	3.5730	3.5729	-1.5152	7.64	1.64	-0.750			
0.4656	29797.06	3.5700	3.5702	-1.5260	7.65	1.65	-0.750			
0.4701	30084.19	3.5670	3.5673	-1.5470	7.66	1.66	-0.750			
0.4747	30382.07	3.5640	3.5637	-1.5541	7.67	1.67	-0.750			
0.4794	30682.35	3.5610	3.5610	-1.5723	7.68	1.68	-0.750			
0.4841	30981.89	3.5580	3.5580	-1.5977	7.68	1.68	-0.750			
0.4890	31298.72	3.5550	3.5552	-1.6305	7.69	1.69	-0.750			
0.4940	31613.95	3.5520	3.5521	-1.6444	7.70	1.70	-0.750			
0.4989	31928.34	3.5490	3.5489	-1.6517	7.71	1.71	-0.750			
0.5038	32244.68	3.5460	3.5460	-1.6834	7.71	1.71	-0.750			
0.5089	32571.86	3.5430	3.5430	-1.7072	7.72	1.72	-0.750			
0.5141	32900.45	3.5400	3.5399	-1.7280	7.74	1.74	-0.750			
0.5193	33235.49	3.5370	3.5369	-1.7208	7.75	1.75	-0.750			
0.5245	33568.62	3.5340	3.5340	-1.7368	7.76	1.76	-0.750			
0.5298	33905.63	3.5310	3.5311	-1.7305	7.77	1.77	-0.750			
0.5350	34237.41	3.5280	3.5278	-1.7360	7.77	1.77	-0.750			
0.5401	34564.94	3.5250	3.5250	-1.7400	7.78	1.78	-0.750			
0.5454	34903.57	3.5220	3.5221	-1.7643	7.79	1.79	-0.750			
0.5507	35245.48	3.5190	3.5191	-1.7663	7.80	1.80	-0.750			
0.5561	35587.87	3.5160	3.5160	-1.7827	7.81	1.81	-0.750			
0.5614	35927.04	3.5130	3.5130	-1.7904	7.82	1.82	-0.750			
0.5669	36279.10	3.5100	3.5100	-1.7878	7.83	1.83	-0.750			
0.5722	36620.64	3.5070	3.5070	-1.7813	7.84	1.84	-0.750			
0.5775	36957.24	3.5040	3.5041	-1.7844	7.85	1.85	-0.750			
0.5829	37304.85	3.5010	3.5011	-1.7800	7.86	1.86	-0.750			
0.5882	37646.43	3.4980	3.4981	-1.7916	7.87	1.87	-0.750			
0.5935	37986.76	3.4950	3.4953	-1.7969	7.88	1.88	-0.750			
0.5990	38334.50	3.4920	3.4919	-1.8031	7.89	1.89	-0.750			
0.6046	38693.17	3.4890	3.4889	-1.8040	7.90	1.90	-0.750			
0.6099	39035.89	3.4860	3.4863	-1.7892	7.91	1.91	-0.750			
0.6153	39377.70	3.4830	3.4831	-1.7549	7.92	1.92	-0.750			
0.6206	39717.60	3.4800	3.4799	-1.7411	7.93	1.93	-0.750			
0.6256	40039.71	3.4770	3.4769	-1.7067	7.94	1.94	-0.750			
0.6307	40363.26	3.4740	3.4741	-1.6956	7.96	1.96	-0.750			
0.6358	40691.41	3.4710	3.4708	-1.6794	7.97	1.97	-0.750			
0.6409	41019.18	3.4680	3.4678	-1.6744	7.98	1.98	-0.750			
0.6459	41337.75	3.4650	3.4651	-1.6394	7.99	1.99	-0.750			
0.6508	41652.91	3.4620	3.4621	-1.6245	8.00	2.00	-0.750			
0.6557	41963.99	3.4590	3.4590	-1.5960	8.02	2.02	-0.750			
0.6604	42266.97	3.4560	3.4558	-1.5519	8.03	2.03	-0.750			
0.6651	42564.02	3.4530	3.4531	-1.5377	8.04	2.04	-0.750			
0.6696	42856.57	3.4500	3.4501	-1.5123	8.05	2.05	-0.750			
0.6741	43144.78	3.4470	3.4468	-1.4808	8.06	2.06	-0.750			
0.6786	43428.69	3.4440	3.4442	-1.4557	8.07	2.07	-0.750			
0.6828	43699.87	3.4410	3.4413	-1.4304	8.08	2.08	-0.750			
0.6871	43975.73	3.4380	3.4379	-1.4024	8.10	2.10	-0.750			
0.6914	44247.23	3.4350	3.4349	-1.3688	8.12	2.12	-0.750			
0.6954	44505.78	3.4320	3.4322	-1.3354	8.13	2.13	-0.750			
0.6994	44763.51	3.4290	3.4289	-1.3053	8.14	2.14	-0.750			
0.7032	45007.58	3.4260	3.4259	-1.2638	8.15	2.15	-0.750			
0.7069	45242.17	3.4230	3.4232	-1.2232	8.16	2.16	-0.750			
0.7105	45474.67	3.4200	3.4199	-1.1917	8.17	2.17	-0.750			
0.7141	45702.50	3.4170	3.4169	-1.1578	8.18	2.18	-0.750			
0.7175	45922.46	3.4140	3.4140	-1.1230	8.19	2.19	-0.750			
0.7208	46132.53	3.4110	3.4111	-1.0827	8.20	2.20	-0.750			
0.7241	46340.58	3.4080	3.4079	-1.0443	8.22	2.22	-0.750			
0.7271	46536.51	3.4050	3.4049	-1.0000	8.23	2.23	-0.750			
0.7300	46720.71	3.4020	3.4021	-0.9592	8.24	2.24	-0.750			
0.7328	46901.70	3.3990	3.3991	-0.9373	8.25	2.25	-0.750			
0.7356	47076.80	3.3960	3.3960	-0.9157	8.26	2.26	-0.750			
0.7383	47248.42	3.3930	3.3929	-0.8848	8.27	2.27	-0.750			
0.7409	47416.82	3.3900	3.3900	-0.8615	8.28	2.28	-0.750			
0.7435	47584.00	3.3870	3.3870	-0.8395	8.29	2.29	-0.750			
0.7460	47742.50	3.3840	3.3839	-0.8112	8.30	2.30	-0.750			
0.7484	47894.97	3.3810	3.3810	-0.7785	8.32	2.32	-0.750			
0.7506	48041.13	3.3780	3.3780	-0.7493	8.33	2.33	-0.750			
0.7528	48180.36	3.3750	3.3750	-0.7204	8.34	2.34	-0.750			
0.7550	48318.12	3.3720	3.3720	-0.6974	8.35	2.35	-0.750			
0.7570	48448.80	3.3690	3.3690	-0.6708	8.36	2.36	-0.750			
0.7590	48574.89	3.3660	3.3659	-0.6425	8.37	2.37	-0.750			
0.7609	48694.97	3.3630	3.3630	-0.6168	8.38	2.38	-0.750			
0.7627	48811.58	3.3600	3.3600	-0.5939	8.39	2.39	-0.750			
0.7644	48922.12	3.3570	3.3570	-0.5703	8.40	2.40	-0.750			
0.7661	49028.39	3.3540	3.3540	-0.5516	8.41	2.41	-0.750			
0.7677	49132.72	3.3510	3.3511	-0.5351	8.42	2.42	-0.750			
0.7693	49233.09	3.3480	3.3479	-0.5192	8.43	2.43	-0.750			
0.7708	49331.90	3.3450	3.3449	-0.5057	8.44	2.44	-0.750			
0.7723	49427.47	3.3420	3.3421	-0.4908	8.44	2.44	-0.750			
0.7738	49520.84	3.3390	3.3390	-0.4781	8.45	2.45	-0.750			
0.7752	49611.63	3.3360	3.3360	-0.4630	8.46	2.46	-0.750			
0.7765	49698.98	3.3330	3.3331	-0.4485	8.47	2.47	-0.750			
0.7779	49783.21	3.3300	3.3299	-0.4358	8.48	2.48	-0.750			
0.7792	49865.67	3.3270	3.3269	-0.4197	8.49	2.49	-0.750			
0.7804	49944.89	3.3240	3.3240	-0.4048	8.50	2.50	-0.750			
0.7816	50020.84	3.3210	3.3210	-0.3901	8.50	2.50	-0.750			
0.7827	50094.34	3.3180	3.3181	-0.3785	8.51	2.51	-0.750			
0.7838	50165.93	3.3150	3.3149	-0.3659	8.52	2.52	-0.750			
0.7849	50233.77	3.3120	3.3120	-0.3553	8.53	2.53	-0.750			
0.7859	50300.79	3.3090	3.3091	-0.3474	8.53	2.53	-0.750			
0.7870	50367.51	3.3060	3.3060	-0.3395	8.54	2.54	-0.750			
0.7880	50431.49	3.3030	3.3030	-0.3306	8.55	2.55	-0.750			
0.7890	50494.08	3.3000	3.3001	-0.3225	8.55	2.55	-0.750			
0.7899	50555.22	3.2970	3.2969	-0.3135	8.56	2.56	-0.750			
0.7909	50614.96	3.2940	3.2940	-0.3059	8.56	2.56	-0.750			
0.7918	50672.06	3.2910	3.2911	-0.2977	8.57	2.57	-0.750			
0.7926	50728.74	3.2880	3.2880	-0.2893	8.58	2.58	-0.750			
0.7935	50784.02	3.2850	3.2849	-0.2810	8.58	2.58	-0.750			
0.7943	50836.35	3.2820	3.2821	-0.2732	8.59	2.59	-0.750			
0.7951	50887.83	3.2790	3.2793	-0.2678	8.59	2.59	-0.750			
0.7959	50939.01	3.2760	3.2759	-0.2613	8.60	2.60	-0.750			
0.7967	50988.66	3.2730	3.2729	-0.2532	8.61	2.61	-0.750			
0.7974	51036.44	3.2700	3.2701	-0.2464	8.61	2.61	-0.750			
0.7982	51082.77	3.2670	3.2671	-0.2393	8.62	2.62	-0.750			
0.7989	51129.02	3.2640	3.2640	-0.2342	8.63	2.63	-0.750			
0.7996	51172.19	3.2610	3.2609	-0.2263	8.63	2.63	-0.750			
0.8002	51214.63	3.2580	3.2580	-0.2214	8.64	2.64	-0.750			
0.8009	51256.84	3.2550	3.2551	-0.2182	8.64	2.64	-0.750			
0.8015	51298.61	3.2520	3.2520	-0.2137	8.65	2.65	-0.750			
0.8022	51339.65	3.2490	3.2489	-0.2096	8.66	2.66	-0.750			
0.8028	51379.29	3.2460	3.2461	-0.2044	8.66	2.66	-0.750			
0.8034	51418.08	3.2430	3.2430	-0.1996	8.67	2.67	-0.750			
0.8040	51455.96	3.2400	3.2400	-0.1957	8.67	2.67	-0.750			
0.8046	51492.80	3.2370	3.2370	-0.1922	8.68	2.68	-0.750			
0.8051	51529.20	3.2340	3.2339	-0.1874	8.68	2.68	-0.750			
0.8057	51564.87	3.2310	3.2310	-0.1842	8.69	2.69	-0.750			
0.8063	51600.08	3.2280	3.2280	-0.1810	8.69	2.69	-0.750			
0.8068	51634.77	3.2250	3.2251	-0.1770	8.70	2.70	-0.750			
0.8073	51668.62	3.2220	3.2219	-0.1730	8.70	2.70	-0.750			
0.8078	51701.27	3.2190	3.2190	-0.1688	8.70	2.70	-0.750			
0.8083	51732.90	3.2160	3.2161	-0.1656	8.71	2.71	-0.750			
0.8088	51763.92	3.2130	3.2129	-0.1623	8.71	2.71	-0.750			
0.8093	51794.81	3.2100	3.2100	-0.1600	8.72	2.72	-0.750			
0.8098	51825.43	3.2070	3.2070	-0.1571	8.73	2.73	-0.750			
0.8102	51855.28	3.2040	3.2040	-0.1540	8.73	2.73	-0.750			
0.8107	51884.98	3.2010	3.2011	-0.1517	8.74	2.74	-0.750			
0.8112	51913.77	3.1980	3.1980	-0.1482	8.74	2.74	-0.750			
0.8116	51941.86	3.1950	3.1950	-0.1458	8.75	2.75	-0.750			
0.8120	51969.44	3.1920	3.1920	-0.1422	8.75	2.75	-0.750			
0.8124	51996.32	3.1890	3.1889	-0.1394	8.75	2.75	-0.750			
0.8129	52022.85	3.1860	3.1861	-0.1370	8.76	2.76	-0.750			
0.8133	52048.89	3.1830	3.1832	-0.1350	8.76	2.76	-0.750			
0.8137	52074.50	3.1800	3.1799	-0.1327	8.77	2.77	-0.750			
0.8141	52099.64	3.1770	3.1771	-0.1307	8.77	2.77	-0.750			
0.8144	52124.52	3.1740	3.1739	-0.1293	8.78	2.78	-0.750			
0.8148	52148.91	3.1710	3.1710	-0.1277	8.78	2.78	-0.750			
0.8152	52173.80	3.1680	3.1680	-0.1257	8.79	2.79	-0.750			
0.8156	52197.70	3.1650	3.1649	-0.1233	8.79	2.79	-0.750			
0.8160	52221.23	3.1620	3.1621	-0.1212	8.79	2.79	-0.750			
0.8163	52244.36	3.1590	3.1590	-0.1188	8.80	2.80	-0.750			
0.8167	52266.82	3.1560	3.1559	-0.1168	8.80	2.80	-0.750			
0.8170	52288.95	3.1530	3.1530	-0.1146	8.81	2.81	-0.750			
0.8174	52310.45	3.1500	3.1500	-0.1124	8.81	2.81	-0.750			
0.8177	52331.91	3.1470	3.1471	-0.1111	8.81	2.81	-0.750			
0.8180	52353.24	3.1440	3.1440	-0.1097	8.81	2.81	-0.750			
0.8183	52374.14	3.1410	3.1411	-0.1080	8.82	2.82	-0.750			
0.8187	52394.60	3.1380	3.1380	-0.1066	8.82	2.82	-0.750			
0.8190	52414.87	3.1350	3.1349	-0.1054	8.82	2.82	-0.750			
0.8193	52434.93	3.1320	3.1320	-0.1041	8.82	2.82	-0.750			
0.8196	52454.96	3.1290	3.1289	-0.1027	8.83	2.83	-0.750			
0.8199	52474.60	3.1260	3.1260	-0.1014	8.83	2.83	-0.750			
0.8202	52493.93	3.1230	3.1229	-0.1000	8.83	2.83	-0.750			
0.8205	52513.09	3.1200	3.1200	-0.0987	8.84	2.84	-0.750			
0.8208	52531.87	3.1170	3.1171	-0.0971	8.84	2.84	-0.750			
0.8211	52550.36	3.1140	3.1140	-0.0955	8.85	2.85	-0.750			
0.8214	52568.48	3.1110	3.1109	-0.0942	8.85	2.85	-0.750			
0.8217	52586.30	3.1080	3.1080	-0.0926	8.85	2.85	-0.750			
0.8219	52603.90	3.1050	3.1051	-0.0915	8.86	2.86	-0.750			
0.8222	52621.38	3.1020	3.1020	-0.0904	8.86	2.86	-0.750			
0.8225	52638.55	3.0990	3.0990	-0.0896	8.86	2.86	-0.750			
0.8227	52655.53	3.0960	3.0961	-0.0884	8.87	2.87	-0.750			
0.8230	52672.43	3.0930	3.0930	-0.0877	8.87	2.87	-0.750			
0.8233	52689.23	3.0900	3.0900	-0.0868	8.88	2.88	-0.750			
0.8235	52705.82	3.0870	3.0870	-0.0860	8.88	2.88	-0.750			
0.8238	52722.43	3.0840	3.0839	-0.0850	8.88	2.88	-0.750			
0.8240	52738.65	3.0810	3.0810	-0.0839	8.89	2.89	-0.750			
0.8243	52754.76	3.0780	3.0780	-0.0828	8.89	2.89	-0.750			
0.8245	52770.45	3.0750	3.0750	-0.0818	8.89	2.89	-0.750			
0.8248	52786.01	3.0720	3.0720	-0.0806	8.90	2.90	-0.750			
0.8250	52801.37	3.0690	3.0690	-0.0794	8.90	2.90	-0.750			
0.8253	52816.49	3.0660	3.0660	-0.0785	8.90	2.90	-0.750			
0.8255	52831.33	3.0630	3.0630	-0.0773	8.91	2.91	-0.750			
0.8257	52845.98	3.0600	3.0600	-0.0767	8.91	2.91	-0.750			
0.8259	52860.64	3.0570	3.0571	-0.0760	8.91	2.91	-0.750			
0.8262	52875.11	3.0540	3.0540	-0.0753	8.92	2.92	-0.750			
0.8264	52889.56	3.0510	3.0509	-0.0746	8.92	2.92	-0.750			
0.8266	52903.79	3.0480	3.0480	-0.0739	8.92	2.92	-0.750			
0.8268	52917.91	3.0450	3.0450	-0.0733	8.93	2.93	-0.750			
0.8271	52932.02	3.0420	3.0420	-0.0723	8.93	2.93	-0.750			
0.8273	52946.03	3.0390	3.0391	-0.0717	8.93	2.93	-0.750			
0.8275	52959.70	3.0360	3.0360	-0.0706	8.93	2.93	-0.750			
0.8277	52973.00	3.0330	3.0330	-0.0704	8.94	2.94	-0.750			
0.8279	52986.24	3.0300	3.0301	-0.0695	8.94	2.94	-0.750			
0.8281	52999.64	3.0270	3.0269	-0.0688	8.94	2.94	-0.750			
0.8283	53012.79	3.0240	3.0239	-0.0682	8.95	2.95	-0.750			
0.8285	53025.79	3.0210	3.0210	-0.0676	8.95	2.95	-0.750			
0.8287	53038.79	3.0180	3.0181	-0.0668	8.95	2.95	-0.750			
0.8289	53051.78	3.0150	3.0150	-0.0664	8.95	2.95	-0.750			
0.8291	53064.43	3.0120	3.0120	-0.0653	8.96	2.96	-0.750			
0.8293	53076.87	3.0090	3.0090	-0.0642	8.96	2.96	-0.750			
0.8295	53089.00	3.0060	3.0060	-0.0636	8.96	2.96	-0.750			
0.8297	53101.14	3.0030	3.0030	-0.0629	8.97	2.97	-0.750			
