Ah_balance (normalized)	Ah_balance (mAh)	Voltage - fit (V)	Voltage -  interpolate (V)	dQ/dV (1/V)	Temperature (°C)	Temperature - diff (°C)	Current (C)	R_DC 0ms (mOhm)	R_DC 50ms (mOhm)	R_DC 50 ms PEC (mOhm)
0.0918	5872.98	4.1980	4.1949	0.8765	8.29	2.20	0.750	0.396	0.874	
0.0945	6047.05	4.1950	4.1966	0.9076	8.29	2.20	0.750			
0.0972	6221.19	4.1920	4.1929	0.8710	8.29	2.20	0.750			
0.0998	6385.17	4.1890	4.1894	0.8154	8.29	2.20	0.750			
0.1021	6534.69	4.1860	4.1861	0.7690	8.28	2.19	0.750			
0.1042	6671.07	4.1830	4.1831	0.7094	8.28	2.19	0.750			
0.1063	6805.98	4.1800	4.1800	0.7130	8.28	2.19	0.750			
0.1085	6942.88	4.1770	4.1770	0.7206	8.28	2.19	0.750			
0.1107	7083.65	4.1740	4.1741	0.7242	8.27	2.18	0.750			
0.1129	7224.95	4.1710	4.1710	0.7172	8.27	2.18	0.750			
0.1151	7366.28	4.1680	4.1680	0.7211	8.27	2.18	0.750			
0.1172	7500.03	4.1650	4.1650	0.7169	8.26	2.17	0.750			
0.1193	7636.32	4.1620	4.1619	0.7184	8.26	2.17	0.750			
0.1215	7773.97	4.1590	4.1590	0.7231	8.26	2.17	0.750			
0.1236	7912.45	4.1560	4.1561	0.7295	8.25	2.16	0.750			
0.1259	8054.76	4.1530	4.1530	0.7329	8.25	2.16	0.750			
0.1281	8197.82	4.1500	4.1501	0.7402	8.24	2.15	0.750			
0.1303	8338.42	4.1470	4.1470	0.7398	8.24	2.15	0.750			
0.1325	8480.70	4.1440	4.1438	0.7409	8.23	2.14	0.750			
0.1347	8623.91	4.1410	4.1410	0.7418	8.23	2.14	0.750			
0.1370	8766.70	4.1380	4.1381	0.7406	8.23	2.14	0.750			
0.1392	8910.28	4.1350	4.1350	0.7409	8.22	2.13	0.750			
0.1414	9050.57	4.1320	4.1321	0.7416	8.22	2.13	0.750			
0.1436	9191.21	4.1290	4.1290	0.7496	8.22	2.13	0.750			
0.1459	9335.70	4.1260	4.1260	0.7582	8.22	2.13	0.750			
0.1482	9482.38	4.1230	4.1229	0.7693	8.21	2.12	0.750			
0.1505	9632.00	4.1200	4.1201	0.7751	8.21	2.12	0.750			
0.1529	9784.88	4.1170	4.1168	0.7835	8.20	2.11	0.750			
0.1552	9935.56	4.1140	4.1140	0.7838	8.20	2.11	0.750			
0.1576	10086.02	4.1110	4.1110	0.7823	8.19	2.10	0.750			
0.1599	10236.28	4.1080	4.1081	0.7762	8.19	2.10	0.750			
0.1623	10386.36	4.1050	4.1048	0.7717	8.18	2.09	0.750			
0.1646	10532.25	4.1020	4.1020	0.7694	8.18	2.09	0.750			
0.1668	10676.42	4.0990	4.0992	0.7724	8.17	2.08	0.750			
0.1691	10823.25	4.0960	4.0960	0.7853	8.17	2.08	0.750			
0.1715	10976.28	4.0930	4.0929	0.7915	8.17	2.08	0.750			
0.1739	11132.01	4.0900	4.0899	0.7969	8.16	2.07	0.750			
0.1763	11286.36	4.0870	4.0871	0.8043	8.15	2.06	0.750			
0.1788	11443.10	4.0840	4.0841	0.8129	8.15	2.06	0.750			
0.1812	11598.41	4.0810	4.0809	0.8114	8.14	2.05	0.750			
0.1837	11753.74	4.0780	4.0780	0.8159	8.14	2.05	0.750			
0.1861	11909.72	4.0750	4.0751	0.8142	8.13	2.04	0.750			
0.1886	12069.80	4.0720	4.0720	0.8143	8.13	2.04	0.750			
0.1910	12226.38	4.0690	4.0691	0.8179	8.13	2.04	0.750			
0.1934	12380.46	4.0660	4.0661	0.8109	8.12	2.03	0.750			
0.1959	12535.39	4.0630	4.0629	0.8122	8.12	2.03	0.750			
0.1983	12690.74	4.0600	4.0598	0.8145	8.11	2.02	0.750			
0.2007	12847.14	4.0570	4.0572	0.8186	8.11	2.02	0.750			
0.2032	13006.28	4.0540	4.0540	0.8328	8.11	2.02	0.750			
0.2057	13167.67	4.0510	4.0510	0.8387	8.10	2.01	0.750			
0.2083	13328.18	4.0480	4.0480	0.8432	8.10	2.01	0.750			
0.2108	13489.60	4.0450	4.0450	0.8427	8.09	2.00	0.750			
0.2133	13653.10	4.0420	4.0421	0.8591	8.09	2.00	0.750			
0.2159	13819.82	4.0390	4.0390	0.8630	8.08	1.99	0.750			
0.2186	13987.44	4.0360	4.0360	0.8672	8.07	1.98	0.750			
0.2212	14154.18	4.0330	4.0332	0.8608	8.07	1.98	0.750			
0.2238	14321.19	4.0300	4.0300	0.8606	8.06	1.97	0.750			
0.2263	14483.69	4.0270	4.0270	0.8657	8.05	1.96	0.750			
0.2289	14649.31	4.0240	4.0239	0.8658	8.05	1.96	0.750			
0.2315	14816.53	4.0210	4.0209	0.8582	8.04	1.95	0.750			
0.2341	14982.59	4.0180	4.0180	0.8579	8.04	1.95	0.750			
0.2367	15146.97	4.0150	4.0152	0.8628	8.03	1.94	0.750			
0.2393	15312.40	4.0120	4.0120	0.8671	8.02	1.93	0.750			
0.2418	15474.84	4.0090	4.0088	0.8699	8.02	1.93	0.750			
0.2444	15643.44	4.0060	4.0059	0.8817	8.01	1.92	0.750			
0.2471	15817.14	4.0030	4.0030	0.8879	8.01	1.92	0.750			
0.2498	15989.06	4.0000	4.0001	0.8965	8.00	1.91	0.750			
0.2525	16161.61	3.9970	3.9970	0.9039	8.00	1.91	0.750			
0.2552	16335.14	3.9940	3.9940	0.9027	7.99	1.90	0.750			
0.2579	16508.51	3.9910	3.9908	0.8977	7.99	1.90	0.750			
0.2607	16681.90	3.9880	3.9880	0.8906	7.98	1.89	0.750			
0.2633	16852.74	3.9850	3.9852	0.9006	7.97	1.88	0.750			
0.2660	17025.34	3.9820	3.9820	0.9036	7.96	1.87	0.750			
0.2687	17196.31	3.9790	3.9789	0.9056	7.95	1.86	0.750			
0.2714	17371.13	3.9760	3.9761	0.9149	7.95	1.86	0.750			
0.2742	17548.72	3.9730	3.9731	0.9252	7.94	1.85	0.750			
0.2770	17727.21	3.9700	3.9702	0.9387	7.94	1.85	0.750			
0.2798	17907.99	3.9670	3.9670	0.9532	7.93	1.84	0.750			
0.2827	18091.93	3.9640	3.9637	0.9504	7.93	1.84	0.750			
0.2856	18278.16	3.9610	3.9611	0.9447	7.92	1.83	0.750			
0.2884	18457.65	3.9580	3.9582	0.9572	7.92	1.83	0.750			
0.2913	18642.99	3.9550	3.9551	0.9653	7.91	1.82	0.750			
0.2942	18827.08	3.9520	3.9517	0.9568	7.90	1.81	0.750			
0.2971	19012.13	3.9490	3.9490	0.9596	7.89	1.80	0.750			
0.2999	19195.08	3.9460	3.9463	0.9684	7.88	1.79	0.750			
0.3029	19383.87	3.9430	3.9431	0.9827	7.87	1.78	0.750			
0.3058	19571.76	3.9400	3.9399	0.9810	7.87	1.78	0.750			
0.3088	19761.82	3.9370	3.9370	0.9970	7.86	1.77	0.750			
0.3118	19955.60	3.9340	3.9341	1.0030	7.85	1.76	0.750			
0.3148	20150.34	3.9310	3.9310	1.0159	7.84	1.75	0.750			
0.3179	20347.43	3.9280	3.9280	1.0234	7.83	1.74	0.750			
0.3210	20542.44	3.9250	3.9251	1.0243	7.83	1.74	0.750			
0.3240	20738.29	3.9220	3.9219	1.0363	7.82	1.73	0.750			
0.3272	20939.05	3.9190	3.9190	1.0465	7.81	1.72	0.750			
0.3303	21139.91	3.9160	3.9160	1.0521	7.80	1.71	0.750			
0.3335	21345.09	3.9130	3.9130	1.0595	7.79	1.70	0.750			
0.3367	21547.12	3.9100	3.9101	1.0708	7.78	1.69	0.750			
0.3399	21754.48	3.9070	3.9068	1.0821	7.78	1.69	0.750			
0.3432	21962.71	3.9040	3.9041	1.0956	7.77	1.68	0.750			
0.3465	22174.65	3.9010	3.9012	1.0930	7.76	1.67	0.750			
0.3498	22385.33	3.8980	3.8980	1.1195	7.75	1.66	0.750			
0.3531	22601.17	3.8950	3.8950	1.1369	7.74	1.65	0.750			
0.3566	22820.83	3.8920	3.8918	1.1442	7.73	1.64	0.750			
0.3600	23040.42	3.8890	3.8890	1.1508	7.72	1.63	0.750			
0.3635	23263.56	3.8860	3.8862	1.1734	7.71	1.62	0.750			
0.3670	23489.53	3.8830	3.8831	1.1919	7.69	1.60	0.750			
0.3706	23720.15	3.8800	3.8800	1.2013	7.68	1.59	0.750			
0.3743	23952.66	3.8770	3.8769	1.2201	7.67	1.58	0.750			
0.3779	24188.45	3.8740	3.8742	1.2390	7.65	1.56	0.750			
0.3817	24431.91	3.8710	3.8709	1.2530	7.64	1.55	0.750			
0.3855	24673.16	3.8680	3.8679	1.2711	7.63	1.54	0.750			
0.3893	24917.64	3.8650	3.8649	1.2772	7.62	1.53	0.750			
0.3932	25162.24	3.8620	3.8621	1.2967	7.61	1.52	0.750			
0.3971	25412.27	3.8590	3.8590	1.3269	7.59	1.50	0.750			
0.4011	25669.40	3.8560	3.8561	1.3515	7.58	1.49	0.750	0.394	0.910	
0.4052	25933.20	3.8530	3.8532	1.3700	7.56	1.47	0.750			
0.4093	26197.02	3.8500	3.8501	1.3982	7.54	1.45	0.750			
0.4135	26467.15	3.8470	3.8470	1.4286	7.53	1.44	0.750			
0.4179	26743.27	3.8440	3.8440	1.4638	7.52	1.43	0.750			
0.4223	27026.94	3.8410	3.8409	1.4890	7.50	1.41	0.750			
0.4268	27318.00	3.8380	3.8381	1.5106	7.48	1.39	0.750			
0.4314	27610.32	3.8350	3.8351	1.5473	7.46	1.37	0.750			
0.4362	27913.61	3.8320	3.8316	1.5632	7.44	1.35	0.750			
0.4409	28216.43	3.8290	3.8292	1.5807	7.42	1.33	0.750			
0.4456	28517.09	3.8260	3.8258	1.6086	7.40	1.31	0.750			
0.4505	28829.05	3.8230	3.8231	1.6320	7.38	1.29	0.750			
0.4553	29141.53	3.8200	3.8199	1.6493	7.36	1.27	0.750			
0.4603	29460.61	3.8170	3.8171	1.7209	7.34	1.25	0.750			
0.4656	29797.21	3.8140	3.8139	1.7466	7.32	1.23	0.750			
0.4709	30139.52	3.8110	3.8109	1.8130	7.29	1.20	0.750			
0.4764	30492.44	3.8080	3.8084	1.8460	7.27	1.18	0.750			
0.4821	30853.97	3.8050	3.8046	1.8737	7.24	1.15	0.750			
0.4878	31219.31	3.8020	3.8021	1.8970	7.21	1.12	0.750			
0.4934	31577.90	3.7990	3.7990	1.9016	7.19	1.10	0.750			
0.4993	31953.40	3.7960	3.7959	1.9450	7.16	1.07	0.750			
0.5052	32330.53	3.7930	3.7931	1.9501	7.14	1.05	0.750			
0.5111	32708.01	3.7900	3.7899	1.9886	7.11	1.02	0.750			
0.5170	33087.34	3.7870	3.7870	2.0245	7.08	0.99	0.750			
0.5230	33471.38	3.7840	3.7838	2.0693	7.05	0.96	0.750			
0.5293	33872.68	3.7810	3.7810	2.1480	7.02	0.93	0.750			
0.5359	34296.04	3.7780	3.7781	2.1934	7.00	0.91	0.750			
0.5427	34730.75	3.7750	3.7750	2.2143	6.97	0.88	0.750			
0.5493	35157.91	3.7720	3.7722	2.2676	6.93	0.84	0.750			
0.5561	35591.17	3.7690	3.7689	2.2925	6.90	0.81	0.750			
0.5630	36029.59	3.7660	3.7660	2.3314	6.87	0.78	0.750			
0.5701	36486.05	3.7630	3.7629	2.4026	6.84	0.75	0.750			
0.5774	36955.83	3.7600	3.7600	2.4712	6.80	0.71	0.750			
0.5847	37422.10	3.7570	3.7571	2.5276	6.77	0.68	0.750			
0.5925	37921.73	3.7540	3.7541	2.6453	6.74	0.65	0.750			
0.6006	38440.77	3.7510	3.7510	2.7100	6.70	0.61	0.750			
0.6088	38960.00	3.7480	3.7481	2.8419	6.66	0.57	0.750			
0.6175	39519.99	3.7450	3.7449	3.0272	6.63	0.54	0.750			
0.6268	40117.17	3.7420	3.7420	3.0580	6.59	0.50	0.750			
0.6363	40723.02	3.7390	3.7392	3.2094	6.55	0.46	0.750			
0.6459	41337.73	3.7360	3.7358	3.1969	6.51	0.42	0.750			
0.6557	41967.22	3.7330	3.7332	3.3102	6.47	0.38	0.750			
0.6659	42614.66	3.7300	3.7299	3.1582	6.43	0.34	0.750			
0.6751	43209.21	3.7270	3.7271	2.9610	6.40	0.31	0.750			
0.6836	43751.76	3.7240	3.7239	2.6474	6.37	0.28	0.750			
0.6909	44214.46	3.7210	3.7209	2.3311	6.35	0.26	0.750			
0.6974	44632.45	3.7180	3.7181	2.0844	6.33	0.24	0.750			
0.7033	45010.54	3.7150	3.7151	1.8588	6.31	0.22	0.750			
0.7084	45340.78	3.7120	3.7119	1.6616	6.29	0.20	0.750			
0.7129	45624.93	3.7090	3.7090	1.4747	6.28	0.19	0.750			
0.7170	45889.09	3.7060	3.7060	1.3633	6.27	0.18	0.750			
0.7207	46127.69	3.7030	3.7030	1.2552	6.26	0.17	0.750			
0.7243	46357.87	3.7000	3.7000	1.1986	6.25	0.16	0.750			
0.7278	46576.40	3.6970	3.6970	1.1502	6.24	0.15	0.750			
0.7312	46793.67	3.6940	3.6939	1.1212	6.23	0.14	0.750			
0.7344	47003.90	3.6910	3.6911	1.0905	6.23	0.14	0.750			
0.7377	47210.28	3.6880	3.6880	1.0758	6.22	0.13	0.750			
0.7409	47416.58	3.6850	3.6850	1.0593	6.21	0.12	0.750			
0.7440	47617.63	3.6820	3.6819	1.0440	6.20	0.11	0.750			
0.7471	47816.97	3.6790	3.6790	1.0265	6.19	0.10	0.750			
0.7502	48013.14	3.6760	3.6760	1.0112	6.18	0.09	0.750			
0.7532	48207.15	3.6730	3.6730	0.9922	6.17	0.08	0.750			
0.7562	48395.77	3.6700	3.6700	0.9697	6.16	0.07	0.750			
0.7590	48579.03	3.6670	3.6671	0.9479	6.16	0.07	0.750			
0.7619	48758.44	3.6640	3.6640	0.9360	6.15	0.06	0.750			
0.7646	48932.69	3.6610	3.6610	0.9333	6.14	0.05	0.750			
0.7673	49110.33	3.6580	3.6580	0.9267	6.14	0.05	0.750			
0.7701	49287.77	3.6550	3.6548	0.9303	6.13	0.04	0.750			
0.7729	49468.05	3.6520	3.6521	0.9295	6.13	0.04	0.750			
0.7757	49646.31	3.6490	3.6491	0.9367	6.12	0.03	0.750			
0.7785	49824.80	3.6460	3.6460	0.9439	6.12	0.03	0.750			
0.7813	50002.80	3.6430	3.6430	0.9536	6.11	0.02	0.750			
0.7842	50187.02	3.6400	3.6400	0.9727	6.11	0.02	0.750			
0.7872	50382.17	3.6370	3.6369	0.9815	6.10	0.01	0.750			
0.7902	50575.88	3.6340	3.6340	0.9611	6.10	0.01	0.750			
0.7934	50775.85	3.6310	3.6309	0.9110	6.09	0.00	0.750			
0.7961	50949.47	3.6280	3.6283	0.8179	6.09	-0.00	0.750			
0.7985	51103.98	3.6250	3.6251	0.7092	6.08	-0.01	0.750			
0.8004	51226.15	3.6220	3.6220	0.5831	6.08	-0.01	0.750			
0.8017	51307.11	3.6190	3.6194	0.4745	6.08	-0.01	0.750			
0.8029	51387.92	3.6160	3.6162	0.3806	6.08	-0.01	0.750			
0.8039	51447.90	3.6130	3.6128	0.2894	6.08	-0.01	0.750			
0.8046	51493.13	3.6100	3.6095	0.2182	6.07	-0.02	0.750			
0.8050	51522.16	3.6070	3.6058	0.1509	6.07	-0.02	0.750			
0.8054	51542.59	3.6040	3.5849	0.0971	6.07	-0.02	0.750			
0.8054	51542.63	3.5920	3.5845	-0.0969	6.07	-0.02	0.750			
0.8056	51556.53	3.6010	3.4277	0.0486	6.07	-0.02	0.756			
0.8056	51556.58	3.5950	3.4272	-0.0484	6.07	-0.02	0.756			
0.8056	51561.21	3.5980	3.3744	0.0001	6.07	-0.02	0.759			
