Ah_balance (normalized)	Ah_balance (mAh)	Voltage - fit (V)	Voltage -  interpolate (V)	dQ/dV (1/V)	Temperature (°C)	Temperature - diff (°C)	Current (C)	R_DC 0ms (mOhm)	R_DC 50ms (mOhm)	R_DC 50 ms PEC (mOhm)
0.0915	5858.29	4.1980	4.1998	0.7586	8.37	2.38	0.750			
0.0940	6018.65	4.1950	4.1964	0.8350	8.36	2.37	0.750			
0.0966	6181.33	4.1920	4.1930	0.8264	8.35	2.36	0.750			
0.0992	6349.13	4.1890	4.1892	0.8242	8.34	2.35	0.750			
0.1017	6509.92	4.1860	4.1859	0.7944	8.34	2.35	0.750			
0.1036	6632.03	4.1830	4.1830	0.7095	8.33	2.34	0.750			
0.1058	6769.43	4.1800	4.1799	0.7084	8.32	2.33	0.750			
0.1079	6905.82	4.1770	4.1770	0.7127	8.32	2.33	0.750			
0.1100	7039.98	4.1740	4.1741	0.7120	8.31	2.32	0.750			
0.1121	7176.94	4.1710	4.1709	0.7169	8.30	2.31	0.750			
0.1143	7315.61	4.1680	4.1680	0.7233	8.30	2.31	0.750			
0.1165	7455.03	4.1650	4.1650	0.7277	8.29	2.30	0.750			
0.1187	7596.67	4.1620	4.1620	0.7223	8.29	2.30	0.750			
0.1209	7736.02	4.1590	4.1590	0.7271	8.29	2.30	0.750			
0.1230	7872.82	4.1560	4.1561	0.7267	8.28	2.29	0.750			
0.1252	8013.35	4.1530	4.1528	0.7301	8.28	2.29	0.750			
0.1274	8153.84	4.1500	4.1500	0.7283	8.28	2.29	0.750			
0.1296	8293.47	4.1470	4.1471	0.7317	8.27	2.28	0.750			
0.1318	8434.94	4.1440	4.1442	0.7394	8.27	2.28	0.750			
0.1340	8575.80	4.1410	4.1409	0.7472	8.27	2.28	0.750			
0.1362	8719.74	4.1380	4.1379	0.7496	8.26	2.27	0.750			
0.1385	8865.00	4.1350	4.1351	0.7528	8.26	2.27	0.750			
0.1408	9011.76	4.1320	4.1321	0.7578	8.25	2.26	0.750			
0.1431	9159.90	4.1290	4.1292	0.7627	8.25	2.26	0.750			
0.1454	9306.05	4.1260	4.1260	0.7547	8.24	2.25	0.750			
0.1476	9447.20	4.1230	4.1230	0.7542	8.24	2.25	0.750			
0.1499	9590.55	4.1200	4.1199	0.7595	8.23	2.24	0.750			
0.1522	9738.42	4.1170	4.1171	0.7675	8.23	2.24	0.750			
0.1545	9886.36	4.1140	4.1139	0.7690	8.22	2.23	0.750			
0.1568	10036.11	4.1110	4.1110	0.7746	8.22	2.23	0.750			
0.1591	10185.38	4.1080	4.1081	0.7788	8.22	2.23	0.750			
0.1615	10335.73	4.1050	4.1049	0.7833	8.21	2.22	0.750			
0.1638	10484.66	4.1020	4.1020	0.7809	8.21	2.22	0.750			
0.1662	10634.59	4.0990	4.0991	0.7807	8.20	2.21	0.750			
0.1685	10785.77	4.0960	4.0960	0.7775	8.19	2.20	0.750			
0.1708	10933.82	4.0930	4.0932	0.7862	8.18	2.19	0.750			
0.1732	11083.05	4.0900	4.0900	0.7892	8.18	2.19	0.750			
0.1756	11235.43	4.0870	4.0866	0.7907	8.17	2.18	0.750			
0.1779	11387.53	4.0840	4.0841	0.7951	8.17	2.18	0.750			
0.1803	11542.38	4.0810	4.0811	0.7931	8.16	2.17	0.750			
0.1828	11697.81	4.0780	4.0780	0.7971	8.16	2.17	0.750			
0.1851	11847.76	4.0750	4.0750	0.7948	8.15	2.16	0.750			
0.1875	11999.15	4.0720	4.0719	0.7989	8.15	2.16	0.750			
0.1899	12153.38	4.0690	4.0690	0.8030	8.15	2.16	0.750			
0.1924	12310.42	4.0660	4.0661	0.8034	8.14	2.15	0.750			
0.1947	12463.14	4.0630	4.0631	0.8153	8.13	2.14	0.750			
0.1972	12619.79	4.0600	4.0601	0.8291	8.13	2.14	0.750			
0.1997	12779.56	4.0570	4.0568	0.8253	8.12	2.13	0.750			
0.2022	12938.43	4.0540	4.0540	0.8304	8.12	2.13	0.750			
0.2047	13100.45	4.0510	4.0512	0.8351	8.11	2.12	0.750			
0.2072	13260.85	4.0480	4.0481	0.8462	8.10	2.11	0.750			
0.2097	13423.54	4.0450	4.0449	0.8473	8.10	2.11	0.750			
0.2123	13587.12	4.0420	4.0419	0.8483	8.09	2.10	0.750			
0.2149	13750.43	4.0390	4.0390	0.8507	8.09	2.10	0.750			
0.2175	13917.76	4.0360	4.0361	0.8564	8.08	2.09	0.750			
0.2201	14083.71	4.0330	4.0331	0.8471	8.08	2.09	0.750			
0.2226	14243.79	4.0300	4.0299	0.8433	8.07	2.08	0.750			
0.2250	14402.95	4.0270	4.0271	0.8413	8.07	2.08	0.750			
0.2275	14562.20	4.0240	4.0239	0.8462	8.06	2.07	0.750			
0.2301	14724.66	4.0210	4.0210	0.8514	8.06	2.07	0.750			
0.2326	14888.70	4.0180	4.0181	0.8596	8.05	2.06	0.750			
0.2352	15055.48	4.0150	4.0150	0.8687	8.05	2.06	0.750			
0.2379	15223.90	4.0120	4.0118	0.8748	8.04	2.05	0.750			
0.2405	15390.10	4.0090	4.0091	0.8746	8.03	2.04	0.750			
0.2431	15559.34	4.0060	4.0059	0.8831	8.02	2.03	0.750			
0.2458	15728.04	4.0030	4.0031	0.8920	8.01	2.02	0.750			
0.2485	15901.22	4.0000	3.9999	0.9033	8.01	2.02	0.750			
0.2512	16075.68	3.9970	3.9970	0.9040	8.00	2.01	0.750			
0.2539	16252.64	3.9940	3.9939	0.8973	7.99	2.00	0.750			
0.2566	16425.37	3.9910	3.9912	0.8995	7.98	1.99	0.750			
0.2593	16598.09	3.9880	3.9880	0.8935	7.98	1.99	0.750			
0.2620	16766.80	3.9850	3.9849	0.8917	7.97	1.98	0.750			
0.2646	16936.02	3.9820	3.9821	0.8948	7.97	1.98	0.750			
0.2673	17107.05	3.9790	3.9790	0.8933	7.96	1.97	0.750			
0.2700	17278.83	3.9760	3.9760	0.9037	7.96	1.97	0.750			
0.2727	17454.04	3.9730	3.9731	0.9132	7.95	1.96	0.750			
0.2754	17628.11	3.9700	3.9698	0.9141	7.95	1.96	0.750			
0.2782	17807.65	3.9670	3.9669	0.9141	7.94	1.95	0.750			
0.2810	17981.07	3.9640	3.9642	0.9223	7.93	1.94	0.750			
0.2837	18157.86	3.9610	3.9611	0.9333	7.92	1.93	0.750			
0.2865	18337.74	3.9580	3.9580	0.9424	7.91	1.92	0.750			
0.2894	18521.49	3.9550	3.9549	0.9471	7.91	1.92	0.750			
0.2923	18704.48	3.9520	3.9522	0.9577	7.90	1.91	0.750			
0.2951	18889.20	3.9490	3.9490	0.9692	7.89	1.90	0.750			
0.2981	19077.31	3.9460	3.9462	0.9855	7.89	1.90	0.750			
0.3010	19262.96	3.9430	3.9429	0.9822	7.88	1.89	0.750			
0.3040	19454.70	3.9400	3.9400	0.9824	7.87	1.88	0.750			
0.3069	19644.42	3.9370	3.9370	0.9905	7.86	1.87	0.750			
0.3099	19835.26	3.9340	3.9342	0.9952	7.86	1.87	0.750			
0.3129	20026.28	3.9310	3.9306	1.0031	7.85	1.86	0.750			
0.3159	20217.18	3.9280	3.9280	1.0056	7.84	1.85	0.750			
0.3189	20410.75	3.9250	3.9250	1.0206	7.84	1.85	0.750			
0.3221	20611.65	3.9220	3.9220	1.0288	7.83	1.84	0.750			
0.3252	20812.55	3.9190	3.9187	1.0416	7.82	1.83	0.750			
0.3283	21010.20	3.9160	3.9161	1.0372	7.81	1.82	0.750			
0.3314	21208.48	3.9130	3.9131	1.0484	7.80	1.81	0.750			
0.3345	21406.46	3.9100	3.9099	1.0584	7.79	1.80	0.750			
0.3377	21612.86	3.9070	3.9069	1.0756	7.78	1.79	0.750			
0.3409	21818.07	3.9040	3.9040	1.0932	7.77	1.78	0.750			
0.3443	22032.76	3.9010	3.9010	1.1123	7.76	1.77	0.750			
0.3477	22249.83	3.8980	3.8981	1.1268	7.75	1.76	0.750			
0.3511	22471.17	3.8950	3.8949	1.1306	7.74	1.75	0.750			
0.3545	22687.63	3.8920	3.8920	1.1310	7.73	1.74	0.750			
0.3579	22902.85	3.8890	3.8890	1.1322	7.72	1.73	0.750			
0.3612	23117.99	3.8860	3.8862	1.1494	7.71	1.72	0.750			
0.3646	23336.41	3.8830	3.8830	1.1670	7.69	1.70	0.750			
0.3682	23563.48	3.8800	3.8800	1.1933	7.68	1.69	0.750			
0.3718	23795.80	3.8770	3.8770	1.2179	7.67	1.68	0.750			
0.3756	24039.00	3.8740	3.8740	1.2360	7.66	1.67	0.750			
0.3793	24276.25	3.8710	3.8710	1.2486	7.64	1.65	0.750			
0.3831	24516.94	3.8680	3.8682	1.2594	7.62	1.63	0.750			
0.3869	24758.55	3.8650	3.8648	1.2628	7.60	1.61	0.750			
0.3906	24998.77	3.8620	3.8621	1.2882	7.59	1.60	0.750			
0.3945	25245.61	3.8590	3.8591	1.3189	7.57	1.58	0.750			
0.3984	25500.18	3.8560	3.8558	1.3556	7.56	1.57	0.750			
0.4026	25767.33	3.8530	3.8531	1.3875	7.54	1.55	0.750	0.388	0.897	
0.4069	26038.57	3.8500	3.8500	1.4008	7.52	1.53	0.750			
0.4110	26306.64	3.8470	3.8471	1.4412	7.51	1.52	0.750			
0.4154	26587.90	3.8440	3.8440	1.4695	7.49	1.50	0.750			
0.4199	26872.20	3.8410	3.8410	1.4872	7.47	1.48	0.750			
0.4244	27159.80	3.8380	3.8379	1.5072	7.44	1.45	0.750			
0.4289	27451.54	3.8350	3.8352	1.5338	7.42	1.43	0.750			
0.4336	27749.69	3.8320	3.8319	1.5514	7.39	1.40	0.750			
0.4383	28050.51	3.8290	3.8289	1.5761	7.37	1.38	0.750			
0.4429	28347.40	3.8260	3.8262	1.6010	7.34	1.35	0.750			
0.4478	28661.34	3.8230	3.8233	1.6371	7.31	1.32	0.750			
0.4528	28979.53	3.8200	3.8199	1.6790	7.29	1.30	0.750			
0.4579	29305.64	3.8170	3.8170	1.7153	7.26	1.27	0.750			
0.4630	29629.06	3.8140	3.8140	1.7725	7.23	1.24	0.750			
0.4684	29978.90	3.8110	3.8111	1.8280	7.19	1.20	0.750			
0.4739	30332.38	3.8080	3.8079	1.8538	7.16	1.17	0.750			
0.4796	30694.99	3.8050	3.8051	1.8772	7.13	1.14	0.750			
0.4854	31062.94	3.8020	3.8019	1.9236	7.09	1.10	0.750			
0.4912	31435.96	3.7990	3.7988	1.9603	7.06	1.07	0.750			
0.4970	31806.08	3.7960	3.7959	1.9707	7.02	1.03	0.750			
0.5030	32193.02	3.7930	3.7931	2.0300	6.98	0.99	0.750			
0.5093	32594.05	3.7900	3.7900	2.0635	6.94	0.95	0.750			
0.5155	32990.77	3.7870	3.7870	2.0694	6.90	0.91	0.750			
0.5216	33382.39	3.7840	3.7841	2.1092	6.86	0.87	0.750			
0.5280	33789.66	3.7810	3.7809	2.1614	6.83	0.84	0.750			
0.5344	34204.62	3.7780	3.7779	2.2303	6.79	0.80	0.750			
0.5413	34645.94	3.7750	3.7750	2.2684	6.75	0.76	0.750			
0.5483	35094.10	3.7720	3.7720	2.2965	6.70	0.71	0.750			
0.5551	35525.03	3.7690	3.7691	2.3235	6.67	0.68	0.750			
0.5623	35984.14	3.7660	3.7659	2.3557	6.63	0.64	0.750			
0.5694	36442.19	3.7630	3.7631	2.3519	6.60	0.61	0.750			
0.5766	36899.23	3.7600	3.7601	2.4204	6.56	0.57	0.750			
0.5837	37356.27	3.7570	3.7569	2.4523	6.53	0.54	0.750			
0.5911	37831.09	3.7540	3.7541	2.5379	6.49	0.50	0.750			
0.5990	38334.43	3.7510	3.7510	2.6740	6.46	0.47	0.750			
0.6071	38855.94	3.7480	3.7481	2.7906	6.42	0.43	0.750			
0.6156	39396.58	3.7450	3.7449	2.8832	6.39	0.40	0.750			
0.6243	39954.72	3.7420	3.7421	3.0886	6.35	0.36	0.750			
0.6339	40570.58	3.7390	3.7389	3.2446	6.32	0.33	0.750			
0.6441	41221.54	3.7360	3.7363	3.2385	6.29	0.30	0.750			
0.6537	41836.90	3.7330	3.7332	3.1239	6.25	0.26	0.750			
0.6625	42401.49	3.7300	3.7299	2.9947	6.23	0.24	0.750			
0.6716	42981.75	3.7270	3.7269	2.8988	6.20	0.21	0.750			
0.6804	43547.01	3.7240	3.7240	2.7602	6.17	0.18	0.750			
0.6882	44045.51	3.7210	3.7212	2.4452	6.15	0.16	0.750			
0.6950	44479.76	3.7180	3.7180	2.1397	6.13	0.14	0.750			
0.7009	44856.30	3.7150	3.7150	1.8906	6.12	0.13	0.750			
0.7061	45191.19	3.7120	3.7120	1.6720	6.11	0.12	0.750			
0.7106	45476.69	3.7090	3.7091	1.5018	6.10	0.11	0.750			
0.7147	45739.63	3.7060	3.7058	1.3677	6.09	0.10	0.750			
0.7184	45978.09	3.7030	3.7031	1.2659	6.08	0.09	0.750			
0.7220	46211.06	3.7000	3.7000	1.2014	6.08	0.09	0.750			
0.7256	46438.00	3.6970	3.6969	1.1562	6.07	0.08	0.750			
0.7289	46651.02	3.6940	3.6940	1.1186	6.06	0.07	0.750			
0.7322	46858.60	3.6910	3.6910	1.0899	6.05	0.06	0.750			
0.7354	47063.77	3.6880	3.6880	1.0707	6.05	0.06	0.750			
0.7386	47268.34	3.6850	3.6850	1.0478	6.04	0.05	0.750			
0.7417	47469.07	3.6820	3.6821	1.0208	6.03	0.04	0.750			
0.7447	47662.54	3.6790	3.6793	1.0104	6.03	0.04	0.750			
0.7477	47853.62	3.6760	3.6760	0.9953	6.02	0.03	0.750			
0.7506	48040.88	3.6730	3.6727	0.9662	6.02	0.03	0.750			
0.7535	48225.73	3.6700	3.6701	0.9522	6.02	0.03	0.750			
0.7564	48407.22	3.6670	3.6672	0.9382	6.02	0.03	0.750			
0.7592	48590.88	3.6640	3.6640	0.9287	6.01	0.02	0.750			
0.7619	48762.94	3.6610	3.6609	0.9149	6.01	0.02	0.750			
0.7646	48935.49	3.6580	3.6579	0.9077	6.01	0.02	0.750			
0.7673	49108.52	3.6550	3.6550	0.8992	6.00	0.01	0.750			
0.7700	49281.94	3.6520	3.6519	0.9022	6.00	0.01	0.750			
0.7727	49455.62	3.6490	3.6492	0.9031	5.99	0.00	0.750			
0.7754	49627.38	3.6460	3.6458	0.9083	5.99	0.00	0.750			
0.7781	49800.92	3.6430	3.6430	0.9125	5.99	0.00	0.750			
0.7809	49975.90	3.6400	3.6400	0.9237	5.99	0.00	0.750			
0.7837	50159.52	3.6370	3.6369	0.9182	5.99	0.00	0.750			
0.7866	50340.94	3.6340	3.6339	0.9020	5.99	0.00	0.750			
0.7894	50520.36	3.6310	3.6311	0.8425	5.99	0.00	0.750			
0.7920	50687.19	3.6280	3.6280	0.7779	5.99	0.00	0.750			
0.7942	50831.49	3.6250	3.6250	0.6755	5.99	0.00	0.750			
0.7961	50951.31	3.6220	3.6221	0.5679	5.99	0.00	0.750			
0.7974	51033.38	3.6190	3.6193	0.4648	5.99	0.00	0.750			
0.7987	51113.88	3.6160	3.6162	0.3794	5.99	0.00	0.750			
0.7996	51173.16	3.6130	3.6130	0.2842	5.99	0.00	0.750			
0.8003	51220.01	3.6100	3.6094	0.2205	5.99	0.00	0.750			
0.8008	51249.27	3.6070	3.6063	0.1523	5.99	0.00	0.750			
0.8011	51270.49	3.6040	3.5976	0.1002	5.99	0.00	0.750			
0.8012	51275.50	3.5920	3.5670	-0.0835	5.99	0.00	0.750			
0.8013	51284.15	3.6010	3.4762	0.0535	5.99	0.00	0.750			
0.8014	51287.15	3.5950	3.4447	-0.0378	5.99	0.00	0.750			
0.8014	51290.03	3.5980	3.4145	0.0078	5.99	0.00	0.750			
