Ah_balance (normalized)	Ah_balance (mAh)	Voltage - fit (V)	Voltage -  interpolate (V)	dQ/dV (1/V)	Temperature (°C)	Temperature - diff (°C)	Current (C)	R_DC 0ms (mOhm)	R_DC 50ms (mOhm)	R_DC 50 ms PEC (mOhm)
0.0970	6210.51	4.1970	4.1994	0.5338	8.39	2.40	0.750			
0.0991	6344.66	4.1940	4.1965	0.7233	8.38	2.39	0.750			
0.1015	6498.45	4.1910	4.1931	0.7869	8.38	2.39	0.750			
0.1040	6656.50	4.1880	4.1895	0.7756	8.37	2.38	0.750			
0.1067	6830.25	4.1850	4.1855	0.8095	8.37	2.38	0.750			
0.1091	6981.07	4.1820	4.1821	0.7782	8.37	2.38	0.750			
0.1112	7116.30	4.1790	4.1789	0.6946	8.36	2.37	0.750			
0.1133	7249.71	4.1760	4.1759	0.6959	8.36	2.37	0.750			
0.1154	7384.17	4.1730	4.1731	0.6988	8.35	2.36	0.750			
0.1175	7519.43	4.1700	4.1701	0.7060	8.35	2.36	0.750			
0.1196	7654.75	4.1670	4.1669	0.7081	8.34	2.35	0.750			
0.1217	7788.10	4.1640	4.1640	0.7104	8.34	2.35	0.750			
0.1238	7925.93	4.1610	4.1609	0.7095	8.33	2.34	0.750			
0.1260	8063.98	4.1580	4.1580	0.7166	8.33	2.34	0.750			
0.1282	8202.87	4.1550	4.1551	0.7215	8.32	2.33	0.750			
0.1303	8342.14	4.1520	4.1520	0.7170	8.32	2.33	0.750			
0.1325	8478.31	4.1490	4.1489	0.7220	8.31	2.32	0.750			
0.1346	8617.02	4.1460	4.1461	0.7304	8.31	2.32	0.750			
0.1368	8756.70	4.1430	4.1429	0.7327	8.30	2.31	0.750			
0.1391	8900.38	4.1400	4.1401	0.7370	8.30	2.31	0.750			
0.1413	9042.85	4.1370	4.1370	0.7346	8.29	2.30	0.750			
0.1435	9183.17	4.1340	4.1341	0.7353	8.28	2.29	0.750			
0.1457	9324.34	4.1310	4.1310	0.7382	8.27	2.28	0.750			
0.1479	9463.71	4.1280	4.1280	0.7381	8.27	2.28	0.750			
0.1501	9605.34	4.1250	4.1248	0.7412	8.26	2.27	0.750			
0.1523	9749.35	4.1220	4.1221	0.7464	8.26	2.27	0.750			
0.1546	9893.70	4.1190	4.1190	0.7500	8.25	2.26	0.750			
0.1569	10038.89	4.1160	4.1161	0.7559	8.24	2.25	0.750			
0.1591	10183.34	4.1130	4.1130	0.7636	8.24	2.25	0.750			
0.1614	10329.01	4.1100	4.1100	0.7684	8.23	2.24	0.750			
0.1637	10479.93	4.1070	4.1069	0.7667	8.23	2.24	0.750			
0.1661	10629.53	4.1040	4.1042	0.7665	8.22	2.23	0.750			
0.1684	10775.57	4.1010	4.1010	0.7611	8.22	2.23	0.750			
0.1706	10920.28	4.0980	4.0979	0.7576	8.21	2.22	0.750			
0.1728	11062.14	4.0950	4.0950	0.7568	8.21	2.22	0.750			
0.1751	11206.11	4.0920	4.0918	0.7601	8.20	2.21	0.750			
0.1774	11352.48	4.0890	4.0891	0.7767	8.19	2.20	0.750			
0.1798	11505.56	4.0860	4.0861	0.7869	8.18	2.19	0.750			
0.1822	11657.85	4.0830	4.0829	0.8014	8.17	2.18	0.750			
0.1846	11813.81	4.0800	4.0801	0.8077	8.16	2.17	0.750			
0.1870	11969.37	4.0770	4.0770	0.8107	8.15	2.16	0.750			
0.1895	12126.62	4.0740	4.0741	0.8104	8.15	2.16	0.750			
0.1919	12283.93	4.0710	4.0710	0.8114	8.14	2.15	0.750			
0.1943	12437.50	4.0680	4.0680	0.8136	8.13	2.14	0.750			
0.1968	12595.19	4.0650	4.0650	0.8166	8.13	2.14	0.750			
0.1992	12751.36	4.0620	4.0618	0.8127	8.12	2.13	0.750			
0.2017	12907.58	4.0590	4.0592	0.8160	8.12	2.13	0.750			
0.2042	13068.64	4.0560	4.0559	0.8095	8.11	2.12	0.750			
0.2066	13221.88	4.0530	4.0531	0.8092	8.10	2.11	0.750			
0.2090	13373.49	4.0500	4.0500	0.8108	8.09	2.10	0.750			
0.2114	13528.00	4.0470	4.0472	0.8155	8.08	2.09	0.750			
0.2138	13684.69	4.0440	4.0440	0.8270	8.08	2.09	0.750			
0.2163	13845.29	4.0410	4.0411	0.8344	8.07	2.08	0.750			
0.2189	14007.75	4.0380	4.0380	0.8398	8.07	2.08	0.750			
0.2214	14172.03	4.0350	4.0350	0.8448	8.06	2.07	0.750			
0.2240	14332.96	4.0320	4.0322	0.8468	8.05	2.06	0.750			
0.2265	14495.37	4.0290	4.0290	0.8556	8.05	2.06	0.750			
0.2291	14661.18	4.0260	4.0260	0.8594	8.04	2.05	0.750			
0.2317	14827.65	4.0230	4.0230	0.8632	8.03	2.04	0.750			
0.2343	14996.54	4.0200	4.0200	0.8702	8.03	2.04	0.750			
0.2369	15164.39	4.0170	4.0170	0.8647	8.02	2.03	0.750			
0.2395	15329.26	4.0140	4.0140	0.8591	8.01	2.02	0.750			
0.2420	15490.52	4.0110	4.0110	0.8575	8.00	2.01	0.750			
0.2446	15654.39	4.0080	4.0081	0.8647	7.99	2.00	0.750			
0.2471	15817.40	4.0050	4.0049	0.8769	7.98	1.99	0.750			
0.2498	15988.35	4.0020	4.0019	0.8946	7.97	1.98	0.750			
0.2526	16164.67	3.9990	3.9990	0.9038	7.96	1.97	0.750			
0.2553	16340.63	3.9960	3.9961	0.9124	7.96	1.97	0.750			
0.2581	16519.93	3.9930	3.9931	0.9140	7.95	1.96	0.750			
0.2609	16695.59	3.9900	3.9900	0.9077	7.94	1.95	0.750			
0.2635	16866.98	3.9870	3.9871	0.9016	7.94	1.95	0.750			
0.2662	17039.79	3.9840	3.9840	0.8886	7.93	1.94	0.750			
0.2689	17208.36	3.9810	3.9810	0.8942	7.93	1.94	0.750			
0.2715	17377.60	3.9780	3.9780	0.9054	7.92	1.93	0.750			
0.2742	17549.74	3.9750	3.9751	0.9150	7.91	1.92	0.750			
0.2770	17728.81	3.9720	3.9720	0.9253	7.90	1.91	0.750			
0.2798	17908.48	3.9690	3.9690	0.9430	7.90	1.91	0.750			
0.2827	18092.47	3.9660	3.9661	0.9544	7.89	1.90	0.750			
0.2856	18280.22	3.9630	3.9630	0.9639	7.88	1.89	0.750			
0.2885	18463.26	3.9600	3.9600	0.9595	7.87	1.88	0.750			
0.2914	18646.63	3.9570	3.9571	0.9606	7.86	1.87	0.750			
0.2942	18830.48	3.9540	3.9540	0.9654	7.84	1.85	0.750			
0.2971	19014.84	3.9510	3.9510	0.9786	7.83	1.84	0.750			
0.3000	19200.91	3.9480	3.9477	0.9861	7.82	1.83	0.750			
0.3030	19392.72	3.9450	3.9452	1.0042	7.81	1.82	0.750			
0.3061	19589.96	3.9420	3.9420	1.0151	7.80	1.81	0.750			
0.3092	19790.68	3.9390	3.9390	1.0215	7.79	1.80	0.750			
0.3123	19988.43	3.9360	3.9360	1.0170	7.78	1.79	0.750			
0.3154	20183.88	3.9330	3.9331	0.9989	7.77	1.78	0.750			
0.3183	20370.70	3.9300	3.9300	1.0024	7.76	1.77	0.750			
0.3212	20555.86	3.9270	3.9271	1.0162	7.75	1.76	0.750			
0.3242	20748.77	3.9240	3.9239	1.0353	7.74	1.75	0.750			
0.3274	20951.38	3.9210	3.9210	1.0524	7.73	1.74	0.750			
0.3307	21161.64	3.9180	3.9181	1.0719	7.72	1.73	0.750			
0.3339	21369.43	3.9150	3.9151	1.0868	7.71	1.72	0.750			
0.3372	21583.54	3.9120	3.9119	1.0982	7.69	1.70	0.750			
0.3405	21790.68	3.9090	3.9089	1.0860	7.68	1.69	0.750			
0.3437	21998.37	3.9060	3.9060	1.0897	7.67	1.68	0.750			
0.3470	22207.58	3.9030	3.9031	1.1006	7.65	1.66	0.750			
0.3503	22420.60	3.9000	3.9000	1.1114	7.64	1.65	0.750			
0.3536	22632.91	3.8970	3.8971	1.1331	7.63	1.64	0.750			
0.3570	22847.73	3.8940	3.8940	1.1495	7.61	1.62	0.750			
0.3605	23071.46	3.8910	3.8910	1.1879	7.60	1.61	0.750			
0.3642	23307.63	3.8880	3.8881	1.2005	7.59	1.60	0.750			
0.3678	23540.86	3.8850	3.8850	1.2078	7.57	1.58	0.750			
0.3715	23774.27	3.8820	3.8821	1.2179	7.56	1.57	0.750			
0.3751	24009.50	3.8790	3.8789	1.2223	7.55	1.56	0.750			
0.3788	24240.36	3.8760	3.8760	1.2245	7.54	1.55	0.750			
0.3824	24475.83	3.8730	3.8731	1.2448	7.52	1.53	0.750	0.386	0.796	
0.3862	24714.51	3.8700	3.8702	1.2551	7.51	1.52	0.750			
0.3900	24957.89	3.8670	3.8671	1.2986	7.49	1.50	0.750			
0.3939	25210.12	3.8640	3.8640	1.3269	7.48	1.49	0.750			
0.3979	25464.65	3.8610	3.8610	1.3489	7.46	1.47	0.750			
0.4020	25730.31	3.8580	3.8580	1.3888	7.44	1.45	0.750			
0.4063	26005.14	3.8550	3.8551	1.4020	7.43	1.44	0.750			
0.4106	26275.95	3.8520	3.8520	1.4062	7.41	1.42	0.750			
0.4148	26549.52	3.8490	3.8492	1.4135	7.39	1.40	0.750			
0.4189	26809.98	3.8460	3.8458	1.4375	7.37	1.38	0.750			
0.4233	27094.00	3.8430	3.8431	1.4667	7.35	1.36	0.750			
0.4277	27375.61	3.8400	3.8399	1.4896	7.33	1.34	0.750			
0.4324	27671.17	3.8370	3.8373	1.5221	7.31	1.32	0.750			
0.4370	27970.90	3.8340	3.8340	1.5457	7.29	1.30	0.750			
0.4417	28269.72	3.8310	3.8308	1.5424	7.27	1.28	0.750			
0.4463	28562.00	3.8280	3.8280	1.5552	7.25	1.26	0.750			
0.4508	28851.62	3.8250	3.8251	1.5753	7.23	1.24	0.750			
0.4556	29160.63	3.8220	3.8220	1.5987	7.20	1.21	0.750			
0.4604	29464.02	3.8190	3.8187	1.6372	7.18	1.19	0.750			
0.4654	29784.27	3.8160	3.8159	1.6719	7.16	1.17	0.750			
0.4705	30110.90	3.8130	3.8131	1.6914	7.13	1.14	0.750			
0.4757	30446.67	3.8100	3.8100	1.7205	7.11	1.12	0.750			
0.4809	30780.29	3.8070	3.8070	1.7410	7.08	1.09	0.750			
0.4862	31114.76	3.8040	3.8040	1.7349	7.06	1.07	0.750			
0.4915	31453.40	3.8010	3.8012	1.7474	7.03	1.04	0.750			
0.4966	31781.29	3.7980	3.7982	1.7549	7.01	1.02	0.750			
0.5019	32122.07	3.7950	3.7950	1.7890	6.98	0.99	0.750			
0.5073	32464.32	3.7920	3.7921	1.7935	6.95	0.96	0.750			
0.5126	32807.19	3.7890	3.7893	1.8378	6.92	0.93	0.750			
0.5182	33163.07	3.7860	3.7862	1.8661	6.90	0.91	0.750			
0.5239	33528.50	3.7830	3.7828	1.9035	6.88	0.89	0.750			
0.5296	33894.84	3.7800	3.7801	1.9592	6.85	0.86	0.750			
0.5355	34272.04	3.7770	3.7767	1.9735	6.82	0.83	0.750			
0.5415	34656.71	3.7740	3.7739	2.0391	6.79	0.80	0.750			
0.5476	35046.34	3.7710	3.7712	2.0877	6.76	0.77	0.750			
0.5540	35455.52	3.7680	3.7680	2.1669	6.72	0.73	0.750			
0.5605	35872.36	3.7650	3.7652	2.2445	6.69	0.70	0.750			
0.5674	36312.26	3.7620	3.7620	2.3222	6.66	0.67	0.750			
0.5744	36764.49	3.7590	3.7590	2.4379	6.62	0.63	0.750			
0.5819	37241.95	3.7560	3.7559	2.5623	6.59	0.60	0.750			
0.5898	37749.39	3.7530	3.7530	2.7006	6.55	0.56	0.750			
0.5982	38283.41	3.7500	3.7500	2.7837	6.52	0.53	0.750			
0.6067	38830.02	3.7470	3.7469	2.9209	6.48	0.49	0.750			
0.6157	39402.18	3.7440	3.7440	3.0096	6.44	0.45	0.750			
0.6249	39994.97	3.7410	3.7410	3.0576	6.39	0.40	0.750			
0.6340	40573.37	3.7380	3.7381	3.0315	6.36	0.37	0.750			
0.6434	41177.72	3.7350	3.7349	2.9497	6.32	0.33	0.750			
0.6521	41736.31	3.7320	3.7321	2.7351	6.28	0.29	0.750			
0.6599	42234.32	3.7290	3.7291	2.4091	6.26	0.27	0.750			
0.6662	42638.92	3.7260	3.7264	2.0504	6.24	0.25	0.750			
0.6719	43000.76	3.7230	3.7230	1.7920	6.21	0.22	0.750			
0.6765	43296.67	3.7200	3.7198	1.5644	6.20	0.21	0.750			
0.6806	43557.75	3.7170	3.7171	1.3862	6.18	0.19	0.750			
0.6844	43802.08	3.7140	3.7140	1.2903	6.17	0.18	0.750			
0.6881	44039.87	3.7110	3.7108	1.2201	6.16	0.17	0.750			
0.6916	44263.94	3.7080	3.7081	1.1617	6.14	0.15	0.750			
0.6950	44482.50	3.7050	3.7050	1.1302	6.13	0.14	0.750			
0.6984	44695.25	3.7020	3.7021	1.0991	6.12	0.13	0.750			
0.7016	44903.16	3.6990	3.6989	1.0669	6.11	0.12	0.750			
0.7047	45101.40	3.6960	3.6960	1.0436	6.10	0.11	0.750			
0.7078	45299.89	3.6930	3.6931	1.0339	6.09	0.10	0.750			
0.7109	45498.27	3.6900	3.6900	1.0178	6.08	0.09	0.750			
0.7139	45692.08	3.6870	3.6869	0.9946	6.08	0.09	0.750			
0.7169	45880.91	3.6840	3.6841	0.9754	6.07	0.08	0.750			
0.7198	46067.28	3.6810	3.6810	0.9532	6.06	0.07	0.750			
0.7226	46248.19	3.6780	3.6780	0.9325	6.06	0.07	0.750			
0.7254	46424.11	3.6750	3.6749	0.9090	6.05	0.06	0.750			
0.7280	46594.24	3.6720	3.6721	0.8887	6.04	0.05	0.750			
0.7307	46763.02	3.6690	3.6689	0.8845	6.03	0.04	0.750			
0.7333	46929.84	3.6660	3.6661	0.8817	6.02	0.03	0.750			
0.7359	47096.26	3.6630	3.6629	0.8886	6.02	0.03	0.750			
0.7385	47267.08	3.6600	3.6600	0.8960	6.01	0.02	0.750			
0.7413	47440.83	3.6570	3.6570	0.8983	6.01	0.02	0.750			
0.7440	47617.74	3.6540	3.6540	0.8931	6.01	0.02	0.750			
0.7468	47792.32	3.6510	3.6509	0.8717	6.00	0.01	0.750			
0.7494	47960.17	3.6480	3.6481	0.8392	6.00	0.01	0.750			
0.7519	48122.12	3.6450	3.6450	0.7890	6.00	0.01	0.750			
0.7542	48271.20	3.6420	3.6420	0.7265	6.00	0.01	0.750			
0.7564	48408.86	3.6390	3.6390	0.6477	6.00	0.01	0.750			
0.7583	48529.28	3.6360	3.6361	0.5636	5.99	0.00	0.750			
0.7598	48629.71	3.6330	3.6329	0.4697	5.99	0.00	0.750			
0.7609	48697.66	3.6300	3.6305	0.4062	5.99	0.00	0.750			
0.7620	48765.42	3.6270	3.6271	0.3214	5.99	0.00	0.750			
0.7628	48818.09	3.6240	3.6235	0.2562	5.99	0.00	0.750			
0.7633	48853.18	3.6210	3.6198	0.1875	5.99	-0.00	0.750			
0.7637	48879.27	3.6180	3.6049	0.1372	5.99	-0.00	0.750			
0.7638	48881.29	3.5970	3.5947	-0.1046	5.99	-0.00	0.750			
0.7639	48890.79	3.6150	3.4651	0.0881	5.99	-0.00	0.747			
0.7640	48898.29	3.6000	3.3569	-0.0725	5.99	-0.00	0.745			
0.7641	48904.62	3.6120	3.2655	0.0560	5.99	-0.00	0.742			
0.7642	48909.13	3.6030	3.2006	-0.0404	5.99	-0.00	0.741			
0.7643	48912.29	3.6090	3.1549	0.0239	5.99	-0.00	0.740			
0.7643	48913.79	3.6060	3.1333	-0.0082	5.99	-0.00	0.739			
