Ah_balance (normalized)	Ah_balance (mAh)	Voltage - fit (V)	Voltage -  interpolate (V)	dQ/dV (1/V)	Temperature (°C)	Temperature - diff (°C)	Current (C)	R_DC 0ms (mOhm)	R_DC 50ms (mOhm)	R_DC 50 ms PEC (mOhm)
0.1001	6408.26	4.1960	4.1981	0.5216	8.11	2.11	0.750			
0.1020	6528.82	4.1930	4.1952	0.6698	8.10	2.10	0.750			
0.1044	6679.64	4.1900	4.1920	0.7436	8.09	2.09	0.750			
0.1069	6840.21	4.1870	4.1883	0.7828	8.09	2.09	0.750			
0.1091	6980.26	4.1840	4.1852	0.7606	8.08	2.08	0.750			
0.1117	7145.75	4.1810	4.1812	0.7793	8.08	2.08	0.750			
0.1140	7297.60	4.1780	4.1780	0.7113	8.07	2.07	0.750			
0.1162	7434.79	4.1750	4.1751	0.7188	8.07	2.07	0.750			
0.1184	7577.68	4.1720	4.1720	0.7204	8.06	2.06	0.750			
0.1206	7719.07	4.1690	4.1690	0.7061	8.05	2.05	0.750			
0.1227	7852.30	4.1660	4.1661	0.7091	8.04	2.04	0.750			
0.1247	7982.98	4.1630	4.1632	0.6962	8.04	2.04	0.750			
0.1268	8115.81	4.1600	4.1597	0.7029	8.03	2.03	0.750			
0.1289	8247.87	4.1570	4.1570	0.7062	8.03	2.03	0.750			
0.1310	8386.14	4.1540	4.1542	0.7135	8.02	2.02	0.750			
0.1332	8525.74	4.1510	4.1510	0.7214	8.02	2.02	0.750			
0.1354	8666.94	4.1480	4.1481	0.7271	8.01	2.01	0.750			
0.1376	8806.77	4.1450	4.1450	0.7268	8.01	2.01	0.750			
0.1398	8946.32	4.1420	4.1420	0.7319	8.00	2.00	0.750			
0.1420	9087.11	4.1390	4.1390	0.7315	7.99	1.99	0.750			
0.1442	9227.44	4.1360	4.1360	0.7334	7.99	1.99	0.750			
0.1464	9369.57	4.1330	4.1330	0.7389	7.98	1.98	0.750			
0.1486	9511.05	4.1300	4.1300	0.7419	7.98	1.98	0.750			
0.1508	9652.13	4.1270	4.1269	0.7452	7.97	1.97	0.750			
0.1531	9796.95	4.1240	4.1240	0.7527	7.97	1.97	0.750			
0.1553	9941.64	4.1210	4.1210	0.7533	7.96	1.96	0.750			
0.1576	10087.61	4.1180	4.1180	0.7555	7.96	1.96	0.750			
0.1599	10232.88	4.1150	4.1151	0.7562	7.95	1.95	0.750			
0.1622	10378.05	4.1120	4.1120	0.7557	7.95	1.95	0.750			
0.1644	10522.35	4.1090	4.1088	0.7568	7.94	1.94	0.750			
0.1667	10665.86	4.1060	4.1061	0.7569	7.94	1.94	0.750			
0.1689	10812.79	4.1030	4.1030	0.7589	7.93	1.93	0.750			
0.1713	10960.12	4.1000	4.1000	0.7652	7.92	1.92	0.750			
0.1735	11106.53	4.0970	4.0970	0.7691	7.92	1.92	0.750			
0.1758	11251.87	4.0940	4.0942	0.7776	7.91	1.91	0.750			
0.1782	11402.67	4.0910	4.0909	0.7871	7.91	1.91	0.750			
0.1806	11555.87	4.0880	4.0879	0.7883	7.90	1.90	0.750			
0.1830	11708.84	4.0850	4.0851	0.7928	7.89	1.89	0.750			
0.1854	11862.62	4.0820	4.0821	0.7987	7.88	1.88	0.750			
0.1877	12013.52	4.0790	4.0790	0.8006	7.88	1.88	0.750			
0.1901	12166.50	4.0760	4.0761	0.7980	7.87	1.87	0.750			
0.1925	12319.90	4.0730	4.0729	0.7987	7.86	1.86	0.750			
0.1949	12476.67	4.0700	4.0700	0.7962	7.85	1.85	0.750			
0.1973	12627.75	4.0670	4.0671	0.8037	7.85	1.85	0.750			
0.1997	12780.52	4.0640	4.0641	0.8070	7.84	1.84	0.750			
0.2021	12935.83	4.0610	4.0605	0.8119	7.83	1.83	0.750			
0.2045	13089.73	4.0580	4.0582	0.8157	7.83	1.83	0.750			
0.2070	13249.23	4.0550	4.0551	0.8252	7.82	1.82	0.750			
0.2096	13411.38	4.0520	4.0521	0.8346	7.82	1.82	0.750			
0.2120	13569.85	4.0490	4.0489	0.8321	7.81	1.81	0.750			
0.2145	13729.32	4.0460	4.0458	0.8367	7.81	1.81	0.750			
0.2170	13890.44	4.0430	4.0431	0.8464	7.80	1.80	0.750			
0.2196	14055.40	4.0400	4.0400	0.8470	7.79	1.79	0.750			
0.2222	14221.19	4.0370	4.0370	0.8470	7.79	1.79	0.750			
0.2247	14383.74	4.0340	4.0341	0.8400	7.78	1.78	0.750			
0.2273	14544.75	4.0310	4.0309	0.8412	7.77	1.77	0.750			
0.2298	14704.45	4.0280	4.0280	0.8409	7.76	1.76	0.750			
0.2323	14864.73	4.0250	4.0250	0.8424	7.76	1.76	0.750			
0.2348	15024.62	4.0220	4.0219	0.8478	7.75	1.75	0.750			
0.2373	15188.93	4.0190	4.0191	0.8582	7.75	1.75	0.750			
0.2400	15357.51	4.0160	4.0159	0.8678	7.74	1.74	0.750			
0.2426	15525.47	4.0130	4.0129	0.8674	7.73	1.73	0.750			
0.2452	15691.52	4.0100	4.0102	0.8692	7.73	1.73	0.750			
0.2478	15857.61	4.0070	4.0070	0.8747	7.72	1.72	0.750			
0.2504	16027.13	4.0040	4.0040	0.8795	7.71	1.71	0.750			
0.2530	16193.69	4.0010	4.0011	0.8843	7.71	1.71	0.750			
0.2557	16365.58	3.9980	3.9979	0.8833	7.70	1.70	0.750			
0.2584	16537.57	3.9950	3.9951	0.8919	7.70	1.70	0.750			
0.2610	16707.09	3.9920	3.9922	0.8996	7.69	1.69	0.750			
0.2637	16878.84	3.9890	3.9890	0.9051	7.68	1.68	0.750			
0.2665	17055.48	3.9860	3.9859	0.9110	7.67	1.67	0.750			
0.2692	17229.20	3.9830	3.9830	0.9245	7.67	1.67	0.750			
0.2720	17407.73	3.9800	3.9802	0.9349	7.66	1.66	0.750			
0.2749	17593.61	3.9770	3.9771	0.9475	7.65	1.65	0.750			
0.2777	17773.79	3.9740	3.9738	0.9483	7.64	1.64	0.750			
0.2806	17958.45	3.9710	3.9711	0.9388	7.63	1.63	0.750			
0.2834	18136.07	3.9680	3.9681	0.9472	7.63	1.63	0.750			
0.2862	18316.99	3.9650	3.9650	0.9541	7.62	1.62	0.750			
0.2890	18499.04	3.9620	3.9619	0.9568	7.61	1.61	0.750			
0.2920	18687.27	3.9590	3.9590	0.9536	7.61	1.61	0.750			
0.2949	18871.08	3.9560	3.9561	0.9584	7.60	1.60	0.750			
0.2977	19055.93	3.9530	3.9531	0.9626	7.60	1.60	0.750			
0.3006	19240.66	3.9500	3.9500	0.9571	7.59	1.59	0.750			
0.3035	19424.12	3.9470	3.9472	0.9602	7.59	1.59	0.750			
0.3063	19606.00	3.9440	3.9441	0.9619	7.58	1.58	0.750			
0.3092	19791.35	3.9410	3.9410	0.9787	7.57	1.57	0.750			
0.3122	19981.11	3.9380	3.9380	0.9956	7.56	1.56	0.750			
0.3152	20173.69	3.9350	3.9350	1.0086	7.55	1.55	0.750			
0.3182	20367.29	3.9320	3.9320	1.0263	7.54	1.54	0.750			
0.3214	20567.95	3.9290	3.9290	1.0456	7.53	1.53	0.750			
0.3246	20772.45	3.9260	3.9261	1.0521	7.53	1.53	0.750			
0.3278	20977.18	3.9230	3.9228	1.0536	7.52	1.52	0.750			
0.3309	21176.38	3.9200	3.9201	1.0596	7.51	1.51	0.750			
0.3340	21378.77	3.9170	3.9172	1.0672	7.50	1.50	0.750			
0.3372	21582.64	3.9140	3.9140	1.0832	7.50	1.50	0.750			
0.3405	21793.39	3.9110	3.9108	1.0855	7.49	1.49	0.750			
0.3438	22003.65	3.9080	3.9082	1.1007	7.48	1.48	0.750			
0.3472	22219.13	3.9050	3.9051	1.1196	7.47	1.47	0.750			
0.3505	22434.87	3.9020	3.9022	1.1256	7.46	1.46	0.750			
0.3539	22651.47	3.8990	3.8989	1.1219	7.45	1.45	0.750			
0.3572	22861.01	3.8960	3.8961	1.1386	7.44	1.44	0.750			
0.3606	23079.67	3.8930	3.8931	1.1625	7.43	1.43	0.750			
0.3642	23307.96	3.8900	3.8898	1.1900	7.42	1.42	0.750			
0.3678	23536.10	3.8870	3.8870	1.1884	7.41	1.41	0.750			
0.3714	23767.08	3.8840	3.8842	1.2067	7.40	1.40	0.750			
0.3751	24004.16	3.8810	3.8812	1.2233	7.40	1.40	0.750	0.370	0.803	
0.3787	24237.37	3.8780	3.8782	1.2365	7.39	1.39	0.750			
0.3824	24474.39	3.8750	3.8749	1.2466	7.37	1.37	0.750			
0.3861	24713.18	3.8720	3.8721	1.2724	7.36	1.36	0.750			
0.3901	24964.94	3.8690	3.8688	1.3117	7.35	1.35	0.750			
0.3939	25211.69	3.8660	3.8660	1.3208	7.34	1.34	0.750			
0.3980	25472.17	3.8630	3.8629	1.3430	7.32	1.32	0.750			
0.4021	25732.90	3.8600	3.8600	1.3552	7.31	1.31	0.750			
0.4061	25993.00	3.8570	3.8571	1.3652	7.30	1.30	0.750			
0.4103	26259.79	3.8540	3.8540	1.3854	7.28	1.28	0.750			
0.4145	26528.25	3.8510	3.8508	1.3718	7.27	1.27	0.750			
0.4186	26788.24	3.8480	3.8482	1.3948	7.25	1.25	0.750			
0.4227	27055.27	3.8450	3.8451	1.4193	7.24	1.24	0.750			
0.4270	27330.06	3.8420	3.8418	1.4538	7.22	1.22	0.750			
0.4314	27611.39	3.8390	3.8392	1.4651	7.21	1.21	0.750			
0.4359	27897.95	3.8360	3.8360	1.4913	7.19	1.19	0.750			
0.4405	28194.55	3.8330	3.8331	1.5163	7.18	1.18	0.750			
0.4451	28489.00	3.8300	3.8299	1.5281	7.15	1.15	0.750			
0.4497	28778.60	3.8270	3.8272	1.5329	7.13	1.13	0.750			
0.4542	29071.99	3.8240	3.8241	1.5578	7.11	1.11	0.750			
0.4589	29371.27	3.8210	3.8208	1.5891	7.09	1.09	0.750			
0.4638	29682.81	3.8180	3.8178	1.6225	7.07	1.07	0.750			
0.4687	29999.46	3.8150	3.8152	1.6345	7.05	1.05	0.750			
0.4738	30320.00	3.8120	3.8122	1.6528	7.02	1.02	0.750			
0.4787	30636.82	3.8090	3.8090	1.6729	6.99	0.99	0.750			
0.4837	30958.01	3.8060	3.8060	1.6655	6.97	0.97	0.750			
0.4886	31270.75	3.8030	3.8031	1.6906	6.95	0.95	0.750			
0.4936	31591.16	3.8000	3.8001	1.7317	6.93	0.93	0.750			
0.4989	31928.64	3.7970	3.7968	1.7681	6.90	0.90	0.750			
0.5044	32281.72	3.7940	3.7939	1.7917	6.87	0.87	0.750			
0.5098	32628.93	3.7910	3.7912	1.8126	6.84	0.84	0.750			
0.5153	32976.64	3.7880	3.7880	1.8394	6.82	0.82	0.750			
0.5209	33336.80	3.7850	3.7848	1.8650	6.79	0.79	0.750			
0.5263	33685.12	3.7820	3.7820	1.9016	6.76	0.76	0.750			
0.5322	34058.97	3.7790	3.7790	1.9673	6.73	0.73	0.750			
0.5381	34438.54	3.7760	3.7760	2.0253	6.70	0.70	0.750			
0.5443	34833.63	3.7730	3.7731	2.1024	6.66	0.66	0.750			
0.5507	35243.01	3.7700	3.7700	2.1888	6.63	0.63	0.750			
0.5574	35674.00	3.7670	3.7669	2.3060	6.59	0.59	0.750			
0.5644	36123.68	3.7640	3.7640	2.3958	6.55	0.55	0.750			
0.5718	36597.65	3.7610	3.7610	2.4907	6.51	0.51	0.750			
0.5794	37080.96	3.7580	3.7581	2.6183	6.47	0.47	0.750			
0.5875	37598.91	3.7550	3.7549	2.7294	6.42	0.42	0.750			
0.5958	38133.29	3.7520	3.7521	2.8178	6.38	0.38	0.750			
0.6044	38683.79	3.7490	3.7490	2.9825	6.34	0.34	0.750			
0.6136	39267.45	3.7460	3.7459	3.0686	6.29	0.29	0.750			
0.6232	39885.59	3.7430	3.7431	3.1609	6.24	0.24	0.750			
0.6328	40498.42	3.7400	3.7400	3.0263	6.20	0.20	0.750			
0.6416	41062.55	3.7370	3.7370	2.7579	6.16	0.16	0.750			
0.6495	41568.22	3.7340	3.7340	2.4208	6.13	0.13	0.750			
0.6560	41981.17	3.7310	3.7310	2.0747	6.11	0.11	0.750			
0.6616	42345.13	3.7280	3.7282	1.8236	6.10	0.10	0.750			
0.6664	42652.19	3.7250	3.7247	1.5973	6.08	0.08	0.750			
0.6707	42927.61	3.7220	3.7221	1.4194	6.07	0.07	0.750			
0.6746	43173.15	3.7190	3.7191	1.3129	6.06	0.06	0.750			
0.6783	43413.35	3.7160	3.7159	1.2359	6.05	0.05	0.750			
0.6819	43640.80	3.7130	3.7130	1.1906	6.05	0.05	0.750			
0.6853	43859.36	3.7100	3.7101	1.1460	6.04	0.04	0.750			
0.6887	44077.86	3.7070	3.7068	1.1119	6.04	0.04	0.750			
0.6920	44289.82	3.7040	3.7041	1.0690	6.03	0.03	0.750			
0.6952	44491.19	3.7010	3.7010	1.0475	6.03	0.03	0.750			
0.6982	44685.74	3.6980	3.6980	1.0171	6.02	0.02	0.750			
0.7012	44879.18	3.6950	3.6948	0.9918	6.01	0.01	0.750			
0.7041	45065.50	3.6920	3.6921	0.9616	6.01	0.01	0.750			
0.7070	45249.57	3.6890	3.6891	0.9415	6.01	0.01	0.750			
0.7098	45427.36	3.6860	3.6861	0.9259	6.00	0.00	0.750			
0.7125	45603.00	3.6830	3.6830	0.9110	6.00	0.00	0.750			
0.7152	45770.95	3.6800	3.6800	0.8931	6.00	-0.00	0.750			
0.7178	45942.39	3.6770	3.6770	0.8864	5.99	-0.01	0.750			
0.7205	46112.92	3.6740	3.6741	0.8802	5.99	-0.01	0.750			
0.7232	46281.84	3.6710	3.6709	0.8732	5.99	-0.01	0.750			
0.7258	46449.25	3.6680	3.6682	0.8669	5.98	-0.02	0.750			
0.7283	46612.49	3.6650	3.6650	0.8660	5.98	-0.02	0.750			
0.7309	46779.44	3.6620	3.6620	0.8560	5.98	-0.02	0.750			
0.7335	46945.60	3.6590	3.6589	0.8530	5.97	-0.03	0.750			
0.7361	47112.69	3.6560	3.6559	0.8376	5.97	-0.03	0.750			
0.7387	47275.41	3.6530	3.6531	0.8077	5.97	-0.03	0.750			
0.7411	47428.98	3.6500	3.6502	0.7646	5.97	-0.03	0.750			
0.7434	47575.92	3.6470	3.6470	0.7069	5.98	-0.02	0.750			
0.7454	47706.96	3.6440	3.6439	0.6340	5.98	-0.02	0.750			
0.7473	47824.02	3.6410	3.6411	0.5512	5.99	-0.01	0.750			
0.7488	47923.89	3.6380	3.6381	0.4711	5.99	-0.01	0.750			
0.7499	47993.03	3.6350	3.6355	0.4022	5.99	-0.01	0.750			
0.7510	48063.79	3.6320	3.6322	0.3360	6.00	-0.00	0.750			
0.7518	48117.48	3.6290	3.6292	0.2604	6.00	-0.00	0.750			
0.7525	48159.86	3.6260	3.6252	0.2081	6.00	0.00	0.750			
0.7529	48188.35	3.6230	3.6203	0.1539	6.00	0.00	0.750			
0.7532	48204.30	3.5990	3.5763	-0.0953	6.00	0.00	0.750			
0.7532	48207.36	3.6200	3.5311	0.1095	6.00	0.00	0.751			
0.7534	48217.67	3.6170	3.3787	0.0721	6.00	0.00	0.755			
0.7534	48219.93	3.6020	3.3454	-0.0674	6.00	0.00	0.755			
0.7536	48228.84	3.6140	3.2136	0.0442	6.00	0.00	0.759			
0.7536	48230.19	3.6050	3.1936	-0.0395	6.00	0.00	0.759			
0.7537	48234.65	3.6110	3.1277	0.0163	6.00	0.00	0.761			
0.7537	48235.10	3.6080	3.1210	-0.0116	6.00	0.00	0.761			
