Ah_balance (normalized)	Ah_balance (mAh)	Voltage - fit (V)	Voltage -  interpolate (V)	dQ/dV (1/V)	Temperature (°C)	Temperature - diff (°C)	Current (C)	R_DC 0ms (mOhm)	R_DC 50ms (mOhm)	R_DC 50 ms PEC (mOhm)
0.0917	5870.35	4.1980	4.1958	0.8375	8.46	2.48	0.750	0.413	0.859	
0.0945	6044.93	4.1950	4.1970	0.9157	8.46	2.48	0.750			
0.0973	6224.42	4.1920	4.1932	0.8878	8.45	2.47	0.750			
0.0999	6390.72	4.1890	4.1895	0.8342	8.44	2.46	0.750			
0.1024	6556.33	4.1860	4.1859	0.8165	8.44	2.46	0.750			
0.1044	6683.50	4.1830	4.1831	0.7081	8.43	2.45	0.750			
0.1066	6821.06	4.1800	4.1799	0.7055	8.43	2.45	0.750			
0.1087	6957.61	4.1770	4.1769	0.6997	8.42	2.44	0.750			
0.1108	7088.32	4.1740	4.1741	0.6979	8.42	2.44	0.750			
0.1128	7222.06	4.1710	4.1711	0.7015	8.41	2.43	0.750			
0.1149	7356.14	4.1680	4.1679	0.7075	8.41	2.43	0.750			
0.1170	7489.90	4.1650	4.1651	0.7200	8.40	2.42	0.750			
0.1192	7629.76	4.1620	4.1620	0.7245	8.40	2.42	0.750			
0.1214	7772.18	4.1590	4.1588	0.7340	8.40	2.42	0.750			
0.1237	7915.01	4.1560	4.1561	0.7416	8.39	2.41	0.750			
0.1259	8057.61	4.1530	4.1528	0.7376	8.39	2.41	0.750			
0.1281	8201.50	4.1500	4.1499	0.7336	8.38	2.40	0.750			
0.1303	8341.95	4.1470	4.1470	0.7270	8.38	2.40	0.750			
0.1325	8477.75	4.1440	4.1441	0.7222	8.37	2.39	0.750			
0.1346	8617.57	4.1410	4.1410	0.7188	8.36	2.38	0.750			
0.1368	8752.50	4.1380	4.1380	0.7303	8.36	2.38	0.750			
0.1389	8891.59	4.1350	4.1350	0.7347	8.35	2.37	0.750			
0.1412	9034.95	4.1320	4.1320	0.7451	8.35	2.37	0.750			
0.1435	9181.77	4.1290	4.1290	0.7522	8.34	2.36	0.750			
0.1457	9326.22	4.1260	4.1261	0.7575	8.34	2.36	0.750			
0.1480	9472.76	4.1230	4.1230	0.7599	8.33	2.35	0.750			
0.1503	9618.90	4.1200	4.1199	0.7645	8.33	2.35	0.750			
0.1526	9763.66	4.1170	4.1171	0.7632	8.33	2.35	0.750			
0.1549	9913.74	4.1140	4.1139	0.7623	8.32	2.34	0.750			
0.1572	10059.53	4.1110	4.1109	0.7592	8.32	2.34	0.750			
0.1595	10204.93	4.1080	4.1082	0.7626	8.31	2.33	0.750			
0.1617	10349.48	4.1050	4.1050	0.7587	8.30	2.32	0.750			
0.1640	10495.54	4.1020	4.1020	0.7607	8.30	2.32	0.750			
0.1663	10640.43	4.0990	4.0990	0.7661	8.29	2.31	0.750			
0.1686	10788.38	4.0960	4.0960	0.7667	8.29	2.31	0.750			
0.1709	10934.80	4.0930	4.0930	0.7804	8.28	2.30	0.750			
0.1732	11084.18	4.0900	4.0900	0.7853	8.28	2.30	0.750			
0.1756	11235.63	4.0870	4.0868	0.7954	8.27	2.29	0.750			
0.1780	11390.72	4.0840	4.0841	0.8055	8.27	2.29	0.750			
0.1804	11547.49	4.0810	4.0811	0.8087	8.26	2.28	0.750			
0.1829	11704.90	4.0780	4.0780	0.8079	8.25	2.27	0.750			
0.1853	11859.31	4.0750	4.0751	0.8027	8.25	2.27	0.750			
0.1877	12012.51	4.0720	4.0720	0.7996	8.24	2.26	0.750			
0.1901	12166.85	4.0690	4.0689	0.8000	8.24	2.26	0.750			
0.1925	12320.23	4.0660	4.0661	0.7966	8.23	2.25	0.750			
0.1949	12473.14	4.0630	4.0630	0.8016	8.23	2.25	0.750			
0.1973	12627.35	4.0600	4.0600	0.8103	8.23	2.25	0.750			
0.1997	12781.52	4.0570	4.0569	0.8121	8.22	2.24	0.750			
0.2022	12938.31	4.0540	4.0543	0.8207	8.22	2.24	0.750			
0.2047	13098.78	4.0510	4.0510	0.8264	8.21	2.23	0.750			
0.2072	13258.24	4.0480	4.0480	0.8321	8.21	2.23	0.750			
0.2097	13419.41	4.0450	4.0450	0.8348	8.20	2.22	0.750			
0.2122	13580.00	4.0420	4.0420	0.8425	8.19	2.21	0.750			
0.2147	13740.08	4.0390	4.0391	0.8402	8.19	2.21	0.750			
0.2172	13902.65	4.0360	4.0361	0.8401	8.18	2.20	0.750			
0.2198	14064.90	4.0330	4.0329	0.8377	8.18	2.20	0.750			
0.2223	14226.64	4.0300	4.0300	0.8403	8.18	2.20	0.750			
0.2248	14386.75	4.0270	4.0271	0.8384	8.17	2.19	0.750			
0.2273	14546.67	4.0240	4.0240	0.8434	8.17	2.19	0.750			
0.2298	14707.96	4.0210	4.0211	0.8440	8.16	2.18	0.750			
0.2324	14870.99	4.0180	4.0179	0.8552	8.15	2.17	0.750			
0.2349	15035.59	4.0150	4.0151	0.8668	8.14	2.16	0.750			
0.2376	15204.58	4.0120	4.0119	0.8716	8.13	2.15	0.750			
0.2402	15371.60	4.0090	4.0090	0.8739	8.13	2.15	0.750			
0.2428	15540.02	4.0060	4.0061	0.8772	8.12	2.14	0.750			
0.2454	15708.11	4.0030	4.0031	0.8811	8.12	2.14	0.750			
0.2481	15877.59	4.0000	4.0000	0.8835	8.11	2.13	0.750			
0.2508	16048.32	3.9970	3.9966	0.8872	8.11	2.13	0.750			
0.2534	16218.95	3.9940	3.9941	0.8887	8.10	2.12	0.750			
0.2561	16390.87	3.9910	3.9909	0.8969	8.10	2.12	0.750			
0.2588	16563.22	3.9880	3.9881	0.9027	8.09	2.11	0.750			
0.2615	16736.83	3.9850	3.9851	0.9108	8.08	2.10	0.750			
0.2643	16912.84	3.9820	3.9819	0.9067	8.08	2.10	0.750			
0.2670	17088.49	3.9790	3.9789	0.9028	8.07	2.09	0.750			
0.2697	17262.23	3.9760	3.9761	0.9065	8.07	2.09	0.750			
0.2724	17434.29	3.9730	3.9731	0.9075	8.07	2.09	0.750			
0.2751	17606.95	3.9700	3.9698	0.9102	8.06	2.08	0.750			
0.2779	17783.13	3.9670	3.9671	0.9155	8.06	2.08	0.750			
0.2806	17959.08	3.9640	3.9640	0.9205	8.05	2.07	0.750			
0.2834	18137.46	3.9610	3.9610	0.9349	8.05	2.07	0.750			
0.2862	18318.70	3.9580	3.9582	0.9440	8.04	2.06	0.750			
0.2891	18500.78	3.9550	3.9550	0.9496	8.04	2.06	0.750			
0.2919	18682.67	3.9520	3.9519	0.9557	8.03	2.05	0.750			
0.2948	18865.60	3.9490	3.9491	0.9606	8.02	2.04	0.750			
0.2977	19052.05	3.9460	3.9460	0.9671	8.02	2.04	0.750			
0.3006	19238.70	3.9430	3.9430	0.9717	8.01	2.03	0.750			
0.3035	19424.74	3.9400	3.9400	0.9746	8.00	2.02	0.750			
0.3064	19611.79	3.9370	3.9371	0.9930	7.99	2.01	0.750			
0.3094	19804.25	3.9340	3.9338	1.0016	7.98	2.00	0.750			
0.3125	19998.35	3.9310	3.9310	1.0073	7.97	1.99	0.750			
0.3155	20193.46	3.9280	3.9280	1.0132	7.97	1.99	0.750			
0.3186	20388.30	3.9250	3.9252	1.0273	7.96	1.98	0.750			
0.3217	20586.15	3.9220	3.9219	1.0331	7.96	1.98	0.750			
0.3248	20784.15	3.9190	3.9189	1.0334	7.95	1.97	0.750			
0.3278	20982.19	3.9160	3.9160	1.0351	7.95	1.97	0.750			
0.3310	21183.62	3.9130	3.9131	1.0492	7.94	1.96	0.750			
0.3342	21386.12	3.9100	3.9099	1.0481	7.93	1.95	0.750			
0.3373	21586.03	3.9070	3.9070	1.0526	7.92	1.94	0.750			
0.3404	21787.88	3.9040	3.9040	1.0515	7.91	1.93	0.750			
0.3436	21988.45	3.9010	3.9010	1.0786	7.90	1.92	0.750			
0.3468	22196.40	3.8980	3.8980	1.1021	7.89	1.91	0.750			
0.3502	22412.49	3.8950	3.8948	1.1107	7.88	1.90	0.750			
0.3536	22627.37	3.8920	3.8922	1.1296	7.87	1.89	0.750			
0.3570	22848.59	3.8890	3.8890	1.1532	7.86	1.88	0.750			
0.3605	23069.05	3.8860	3.8861	1.1786	7.85	1.87	0.750			
0.3640	23295.48	3.8830	3.8830	1.1825	7.84	1.86	0.750			
0.3676	23526.13	3.8800	3.8799	1.2051	7.82	1.84	0.750			
0.3713	23761.38	3.8770	3.8771	1.2215	7.81	1.83	0.750			
0.3750	24001.34	3.8740	3.8739	1.2334	7.79	1.81	0.750			
0.3787	24237.23	3.8710	3.8710	1.2372	7.78	1.80	0.750			
0.3825	24477.59	3.8680	3.8680	1.2448	7.77	1.79	0.750			
0.3862	24714.46	3.8650	3.8650	1.2698	7.76	1.78	0.750			
0.3900	24958.53	3.8620	3.8620	1.3029	7.75	1.77	0.750			
0.3939	25208.29	3.8590	3.8591	1.3281	7.73	1.75	0.750			
0.3980	25471.10	3.8560	3.8561	1.3449	7.72	1.74	0.750	0.387	0.896	
0.4021	25734.06	3.8530	3.8530	1.3745	7.70	1.72	0.750			
0.4063	26001.32	3.8500	3.8501	1.3856	7.68	1.70	0.750			
0.4104	26267.38	3.8470	3.8470	1.4036	7.66	1.68	0.750			
0.4146	26532.89	3.8440	3.8440	1.4292	7.64	1.66	0.750			
0.4190	26815.27	3.8410	3.8409	1.4434	7.62	1.64	0.750			
0.4233	27092.49	3.8380	3.8381	1.4848	7.60	1.62	0.750			
0.4278	27380.35	3.8350	3.8352	1.5263	7.58	1.60	0.750			
0.4325	27679.65	3.8320	3.8320	1.5453	7.56	1.58	0.750			
0.4372	27980.58	3.8290	3.8288	1.5729	7.54	1.56	0.750			
0.4419	28281.00	3.8260	3.8260	1.5995	7.51	1.53	0.750			
0.4468	28592.47	3.8230	3.8233	1.6162	7.49	1.51	0.750			
0.4516	28904.30	3.8200	3.8197	1.6602	7.47	1.49	0.750			
0.4566	29219.53	3.8170	3.8171	1.6782	7.44	1.46	0.750			
0.4617	29547.40	3.8140	3.8142	1.7159	7.42	1.44	0.750			
0.4669	29883.67	3.8110	3.8110	1.7743	7.39	1.41	0.750			
0.4723	30226.92	3.8080	3.8080	1.8118	7.36	1.38	0.750			
0.4779	30585.82	3.8050	3.8050	1.8397	7.33	1.35	0.750			
0.4835	30945.72	3.8020	3.8018	1.8710	7.30	1.32	0.750			
0.4891	31304.16	3.7990	3.7991	1.8977	7.27	1.29	0.750			
0.4949	31673.55	3.7960	3.7957	1.9420	7.23	1.25	0.750			
0.5008	32048.70	3.7930	3.7928	2.0005	7.19	1.21	0.750			
0.5067	32430.56	3.7900	3.7899	2.0509	7.15	1.17	0.750			
0.5132	32845.77	3.7870	3.7868	2.0760	7.11	1.13	0.750			
0.5194	33242.51	3.7840	3.7840	2.0722	7.07	1.09	0.750			
0.5256	33637.96	3.7810	3.7812	2.1171	7.03	1.05	0.750			
0.5320	34046.70	3.7780	3.7777	2.1365	6.99	1.01	0.750			
0.5383	34453.71	3.7750	3.7748	2.1521	6.95	0.97	0.750			
0.5448	34868.24	3.7720	3.7723	2.2034	6.91	0.93	0.750			
0.5516	35304.54	3.7690	3.7687	2.2693	6.87	0.89	0.750			
0.5584	35736.67	3.7660	3.7660	2.3148	6.83	0.85	0.750			
0.5654	36186.59	3.7630	3.7629	2.3483	6.79	0.81	0.750			
0.5727	36655.66	3.7600	3.7600	2.3735	6.74	0.76	0.750			
0.5797	37103.06	3.7570	3.7571	2.4419	6.70	0.72	0.750			
0.5870	37570.12	3.7540	3.7539	2.5620	6.66	0.68	0.750			
0.5947	38061.97	3.7510	3.7511	2.7969	6.61	0.63	0.750			
0.6038	38640.01	3.7480	3.7479	2.9556	6.54	0.56	0.750			
0.6129	39228.03	3.7450	3.7452	3.0138	6.48	0.50	0.750			
0.6219	39803.61	3.7420	3.7419	3.0402	6.43	0.45	0.750			
0.6310	40386.39	3.7390	3.7390	3.1159	6.38	0.40	0.750			
0.6410	41021.29	3.7360	3.7361	3.2116	6.33	0.35	0.750			
0.6506	41636.15	3.7330	3.7329	3.1812	6.29	0.31	0.750			
0.6597	42220.48	3.7300	3.7299	2.9613	6.26	0.28	0.750			
0.6687	42796.48	3.7270	3.7272	2.8706	6.22	0.24	0.750			
0.6772	43341.12	3.7240	3.7240	2.6563	6.20	0.22	0.750			
0.6847	43817.76	3.7210	3.7211	2.3408	6.17	0.19	0.750			
0.6911	44227.72	3.7180	3.7181	2.0777	6.15	0.17	0.750			
0.6968	44594.92	3.7150	3.7150	1.8218	6.14	0.16	0.750			
0.7017	44908.57	3.7120	3.7118	1.6169	6.13	0.15	0.750			
0.7062	45193.83	3.7090	3.7090	1.4607	6.12	0.14	0.750			
0.7102	45454.17	3.7060	3.7060	1.3350	6.12	0.14	0.750			
0.7140	45693.41	3.7030	3.7028	1.2425	6.11	0.13	0.750			
0.7175	45917.59	3.7000	3.7000	1.1665	6.10	0.12	0.750			
0.7208	46131.42	3.6970	3.6970	1.1271	6.09	0.11	0.750			
0.7241	46341.09	3.6940	3.6939	1.0995	6.08	0.10	0.750			
0.7273	46550.33	3.6910	3.6910	1.0646	6.07	0.09	0.750			
0.7305	46753.40	3.6880	3.6880	1.0513	6.06	0.08	0.750			
0.7337	46953.68	3.6850	3.6851	1.0356	6.06	0.08	0.750			
0.7367	47150.62	3.6820	3.6820	1.0196	6.05	0.07	0.750			
0.7397	47342.43	3.6790	3.6791	1.0036	6.05	0.07	0.750			
0.7427	47532.99	3.6760	3.6759	0.9919	6.04	0.06	0.750			
0.7457	47724.67	3.6730	3.6730	0.9730	6.04	0.06	0.750			
0.7486	47913.09	3.6700	3.6701	0.9534	6.03	0.05	0.750			
0.7515	48095.53	3.6670	3.6670	0.9303	6.03	0.05	0.750			
0.7542	48271.87	3.6640	3.6641	0.9039	6.02	0.04	0.750			
0.7568	48437.30	3.6610	3.6609	0.8903	6.02	0.04	0.750			
0.7594	48604.35	3.6580	3.6580	0.8838	6.01	0.03	0.750			
0.7620	48770.13	3.6550	3.6549	0.8903	6.00	0.02	0.750			
0.7647	48943.11	3.6520	3.6522	0.9043	6.00	0.02	0.750			
0.7675	49119.85	3.6490	3.6489	0.9139	6.00	0.02	0.750			
0.7702	49295.81	3.6460	3.6461	0.9255	5.99	0.01	0.750			
0.7731	49475.50	3.6430	3.6430	0.9330	5.99	0.01	0.750			
0.7759	49655.97	3.6400	3.6399	0.9235	5.99	0.01	0.750			
0.7787	49838.38	3.6370	3.6369	0.9096	5.99	0.01	0.750			
0.7815	50014.94	3.6340	3.6341	0.8574	5.99	0.01	0.750			
0.7842	50187.59	3.6310	3.6311	0.7943	5.98	0.00	0.750			
0.7865	50336.49	3.6280	3.6280	0.7022	5.98	0.00	0.750			
0.7885	50462.66	3.6250	3.6248	0.5955	5.98	0.00	0.750			
0.7901	50565.24	3.6220	3.6221	0.4885	5.98	-0.00	0.750			
0.7912	50636.71	3.6190	3.6194	0.4115	5.98	-0.00	0.750			
0.7923	50704.67	3.6160	3.6161	0.3229	5.98	-0.00	0.750			
0.7931	50755.84	3.6130	3.6127	0.2447	5.98	-0.00	0.750			
0.7936	50792.74	3.6100	3.6088	0.1800	5.98	-0.00	0.750			
0.7940	50814.21	3.6070	3.6026	0.1190	5.98	-0.00	0.750			
0.7941	50819.93	3.5920	3.5861	-0.0892	5.98	-0.00	0.750			
0.7942	50830.62	3.6040	3.4633	0.0730	5.98	-0.00	0.747			
0.7943	50833.23	3.5950	3.4329	-0.0493	5.98	-0.00	0.746			
0.7943	50836.84	3.6010	3.3909	0.0305	5.98	-0.00	0.744			
0.7944	50838.87	3.5980	3.3672	-0.0094	5.98	-0.00	0.744			
