Ah_balance (normalized)	Ah_balance (mAh)	Voltage - fit (V)	Voltage -  interpolate (V)	dQ/dV (1/V)	Temperature (°C)	Temperature - diff (°C)	Current (C)	R_DC 0ms (mOhm)	R_DC 50ms (mOhm)	R_DC 50 ms PEC (mOhm)
0.0958	6132.67	4.1960	4.1981	0.9543	8.20	2.21	0.750			
0.0987	6316.73	4.1930	4.1940	0.9088	8.19	2.20	0.750			
0.1013	6480.44	4.1900	4.1905	0.8418	8.18	2.19	0.750			
0.1038	6640.07	4.1870	4.1870	0.8113	8.18	2.19	0.750			
0.1061	6787.48	4.1840	4.1837	0.7915	8.17	2.18	0.750			
0.1080	6910.82	4.1810	4.1810	0.7262	8.17	2.18	0.750			
0.1102	7051.06	4.1780	4.1781	0.7314	8.17	2.18	0.750			
0.1124	7196.46	4.1750	4.1748	0.7346	8.16	2.17	0.750			
0.1146	7335.74	4.1720	4.1722	0.7467	8.16	2.17	0.750			
0.1169	7478.53	4.1690	4.1691	0.7497	8.15	2.16	0.750			
0.1191	7624.15	4.1660	4.1658	0.7467	8.15	2.16	0.750			
0.1214	7769.13	4.1630	4.1630	0.7507	8.15	2.16	0.750			
0.1237	7914.23	4.1600	4.1603	0.7505	8.14	2.15	0.750			
0.1259	8058.25	4.1570	4.1570	0.7485	8.14	2.15	0.750			
0.1281	8200.93	4.1540	4.1539	0.7415	8.14	2.15	0.750			
0.1303	8341.27	4.1510	4.1511	0.7458	8.13	2.14	0.750			
0.1326	8484.58	4.1480	4.1480	0.7509	8.13	2.14	0.750			
0.1349	8630.86	4.1450	4.1450	0.7583	8.13	2.14	0.750			
0.1371	8776.75	4.1420	4.1419	0.7602	8.12	2.13	0.750			
0.1394	8923.33	4.1390	4.1391	0.7678	8.12	2.13	0.750			
0.1417	9070.90	4.1360	4.1361	0.7752	8.11	2.12	0.750			
0.1441	9221.23	4.1330	4.1328	0.7802	8.11	2.12	0.750			
0.1464	9372.22	4.1300	4.1300	0.7807	8.11	2.12	0.750			
0.1488	9525.03	4.1270	4.1270	0.7744	8.10	2.11	0.750			
0.1511	9671.01	4.1240	4.1242	0.7728	8.10	2.11	0.750			
0.1534	9818.56	4.1210	4.1210	0.7715	8.10	2.11	0.750			
0.1557	9964.93	4.1180	4.1179	0.7690	8.09	2.10	0.750			
0.1580	10109.55	4.1150	4.1149	0.7745	8.09	2.10	0.750			
0.1603	10259.15	4.1120	4.1122	0.7872	8.08	2.09	0.750			
0.1627	10414.36	4.1090	4.1089	0.7912	8.08	2.09	0.750			
0.1651	10568.66	4.1060	4.1060	0.7907	8.07	2.08	0.750			
0.1675	10718.72	4.1030	4.1031	0.7932	8.07	2.08	0.750			
0.1698	10869.21	4.1000	4.0999	0.7968	8.06	2.07	0.750			
0.1722	11023.79	4.0970	4.0969	0.8002	8.06	2.07	0.750			
0.1746	11176.57	4.0940	4.0939	0.8002	8.05	2.06	0.750			
0.1770	11330.43	4.0910	4.0911	0.8096	8.05	2.06	0.750			
0.1795	11488.74	4.0880	4.0881	0.8074	8.04	2.05	0.750			
0.1819	11644.47	4.0850	4.0848	0.8076	8.04	2.05	0.750			
0.1843	11796.12	4.0820	4.0822	0.8058	8.04	2.05	0.750			
0.1868	11953.35	4.0790	4.0788	0.8047	8.03	2.04	0.750			
0.1892	12106.40	4.0760	4.0760	0.8230	8.02	2.03	0.750			
0.1916	12265.14	4.0730	4.0730	0.8302	8.02	2.03	0.750			
0.1942	12425.90	4.0700	4.0698	0.8326	8.01	2.02	0.750			
0.1967	12588.58	4.0670	4.0671	0.8427	8.01	2.02	0.750			
0.1992	12751.02	4.0640	4.0642	0.8416	8.00	2.01	0.750			
0.2017	12911.92	4.0610	4.0610	0.8438	7.99	2.00	0.750			
0.2043	13073.06	4.0580	4.0579	0.8363	7.99	2.00	0.750			
0.2068	13234.94	4.0550	4.0549	0.8467	7.98	1.99	0.750			
0.2094	13398.81	4.0520	4.0520	0.8499	7.98	1.99	0.750			
0.2119	13564.11	4.0490	4.0490	0.8430	7.97	1.98	0.750			
0.2145	13725.61	4.0460	4.0462	0.8429	7.96	1.97	0.750			
0.2170	13885.51	4.0430	4.0430	0.8404	7.96	1.97	0.750			
0.2195	14045.11	4.0400	4.0398	0.8453	7.95	1.96	0.750			
0.2219	14204.68	4.0370	4.0369	0.8513	7.95	1.96	0.750			
0.2245	14368.20	4.0340	4.0340	0.8566	7.94	1.95	0.750			
0.2272	14537.99	4.0310	4.0310	0.8714	7.94	1.95	0.750			
0.2298	14707.94	4.0280	4.0281	0.8783	7.93	1.94	0.750			
0.2324	14876.58	4.0250	4.0249	0.8756	7.93	1.94	0.750			
0.2351	15046.64	4.0220	4.0220	0.8769	7.92	1.93	0.750			
0.2377	15212.60	4.0190	4.0191	0.8775	7.92	1.93	0.750			
0.2403	15381.95	4.0160	4.0159	0.8760	7.91	1.92	0.750			
0.2430	15551.03	4.0130	4.0131	0.8732	7.90	1.91	0.750			
0.2456	15717.22	4.0100	4.0100	0.8754	7.90	1.91	0.750			
0.2482	15883.86	4.0070	4.0071	0.8798	7.89	1.90	0.750			
0.2508	16053.38	4.0040	4.0039	0.8834	7.89	1.90	0.750			
0.2535	16221.55	4.0010	4.0010	0.8938	7.88	1.89	0.750			
0.2562	16393.78	3.9980	3.9981	0.8972	7.87	1.88	0.750			
0.2589	16569.86	3.9950	3.9949	0.9033	7.87	1.88	0.750			
0.2617	16746.14	3.9920	3.9920	0.8995	7.86	1.87	0.750			
0.2643	16915.45	3.9890	3.9891	0.9044	7.86	1.87	0.750			
0.2670	17087.39	3.9860	3.9862	0.9093	7.85	1.86	0.750			
0.2697	17263.39	3.9830	3.9825	0.9177	7.85	1.86	0.750			
0.2725	17439.40	3.9800	3.9801	0.9150	7.84	1.85	0.750			
0.2753	17618.18	3.9770	3.9771	0.9231	7.83	1.84	0.750			
0.2781	17796.70	3.9740	3.9742	0.9365	7.82	1.83	0.750			
0.2808	17974.21	3.9710	3.9710	0.9321	7.81	1.82	0.750			
0.2836	18153.25	3.9680	3.9680	0.9371	7.81	1.82	0.750			
0.2864	18332.68	3.9650	3.9650	0.9408	7.80	1.81	0.750			
0.2893	18515.49	3.9620	3.9622	0.9475	7.79	1.80	0.750			
0.2922	18700.79	3.9590	3.9590	0.9604	7.79	1.80	0.750			
0.2950	18882.86	3.9560	3.9558	0.9651	7.78	1.79	0.750			
0.2979	19067.19	3.9530	3.9531	0.9752	7.77	1.78	0.750			
0.3009	19256.79	3.9500	3.9500	0.9801	7.77	1.78	0.750			
0.3039	19447.97	3.9470	3.9470	0.9949	7.76	1.77	0.750			
0.3069	19640.93	3.9440	3.9440	1.0001	7.75	1.76	0.750			
0.3099	19834.78	3.9410	3.9410	0.9999	7.74	1.75	0.750			
0.3129	20024.56	3.9380	3.9380	0.9993	7.73	1.74	0.750			
0.3159	20214.50	3.9350	3.9351	1.0021	7.72	1.73	0.750			
0.3189	20407.80	3.9320	3.9319	1.0026	7.71	1.72	0.750			
0.3219	20601.94	3.9290	3.9289	1.0063	7.70	1.71	0.750			
0.3249	20792.17	3.9260	3.9262	1.0175	7.70	1.71	0.750			
0.3280	20989.55	3.9230	3.9230	1.0303	7.69	1.70	0.750			
0.3311	21189.86	3.9200	3.9198	1.0422	7.68	1.69	0.750			
0.3343	21392.29	3.9170	3.9171	1.0373	7.67	1.68	0.750			
0.3374	21590.43	3.9140	3.9141	1.0514	7.66	1.67	0.750			
0.3405	21791.90	3.9110	3.9110	1.0795	7.65	1.66	0.750			
0.3437	21999.33	3.9080	3.9080	1.0916	7.64	1.65	0.750			
0.3470	22209.57	3.9050	3.9050	1.1016	7.63	1.64	0.750			
0.3504	22425.96	3.9020	3.9023	1.1258	7.63	1.64	0.750			
0.3538	22645.54	3.8990	3.8990	1.1385	7.62	1.63	0.750			
0.3573	22869.54	3.8960	3.8958	1.1442	7.61	1.62	0.750			
0.3607	23083.11	3.8930	3.8930	1.1539	7.60	1.61	0.750			
0.3642	23307.24	3.8900	3.8900	1.1522	7.59	1.60	0.750			
0.3677	23533.43	3.8870	3.8869	1.1625	7.58	1.59	0.750			
0.3712	23754.53	3.8840	3.8842	1.1691	7.57	1.58	0.750			
0.3747	23978.86	3.8810	3.8810	1.1815	7.55	1.56	0.750			
0.3782	24202.81	3.8780	3.8779	1.2108	7.54	1.55	0.750			
0.3819	24439.20	3.8750	3.8749	1.2244	7.53	1.54	0.750			
0.3855	24673.01	3.8720	3.8720	1.2553	7.52	1.53	0.750			
0.3894	24923.05	3.8690	3.8691	1.2879	7.50	1.51	0.750			
0.3934	25176.31	3.8660	3.8660	1.3018	7.49	1.50	0.750			
0.3973	25425.25	3.8630	3.8633	1.3273	7.47	1.48	0.750			
0.4012	25675.28	3.8600	3.8601	1.3434	7.46	1.47	0.750			
0.4053	25937.63	3.8570	3.8570	1.3553	7.45	1.46	0.750			
0.4094	26201.14	3.8540	3.8540	1.3905	7.44	1.45	0.750			
0.4136	26472.10	3.8510	3.8511	1.4041	7.43	1.44	0.750	0.398	0.991	
0.4178	26741.72	3.8480	3.8484	1.4408	7.42	1.43	0.750			
0.4223	27026.25	3.8450	3.8450	1.4651	7.40	1.41	0.750			
0.4266	27305.41	3.8420	3.8421	1.4964	7.38	1.39	0.750			
0.4312	27593.77	3.8390	3.8389	1.5168	7.36	1.37	0.750			
0.4358	27889.32	3.8360	3.8362	1.5653	7.35	1.36	0.750			
0.4405	28190.58	3.8330	3.8329	1.5886	7.33	1.34	0.750			
0.4453	28497.90	3.8300	3.8301	1.6439	7.31	1.32	0.750			
0.4503	28819.54	3.8270	3.8269	1.6572	7.29	1.30	0.750			
0.4554	29143.42	3.8240	3.8241	1.6959	7.27	1.28	0.750			
0.4605	29471.68	3.8210	3.8212	1.7315	7.25	1.26	0.750			
0.4658	29809.47	3.8180	3.8179	1.7817	7.23	1.24	0.750			
0.4711	30153.23	3.8150	3.8149	1.8141	7.21	1.22	0.750			
0.4766	30504.61	3.8120	3.8122	1.8510	7.19	1.20	0.750			
0.4822	30858.07	3.8090	3.8090	1.9132	7.17	1.18	0.750			
0.4881	31237.65	3.8060	3.8060	1.9545	7.14	1.15	0.750			
0.4939	31611.98	3.8030	3.8029	2.0008	7.10	1.11	0.750			
0.5001	32006.79	3.8000	3.8000	2.0542	7.08	1.09	0.750			
0.5064	32408.86	3.7970	3.7969	2.1141	7.06	1.07	0.750			
0.5128	32816.67	3.7940	3.7940	2.1702	7.03	1.04	0.750			
0.5193	33234.46	3.7910	3.7909	2.2121	6.99	1.00	0.750			
0.5261	33672.34	3.7880	3.7878	2.2594	6.97	0.98	0.750			
0.5329	34105.22	3.7850	3.7851	2.2809	6.95	0.96	0.750			
0.5398	34545.55	3.7820	3.7819	2.3448	6.91	0.92	0.750			
0.5468	34994.83	3.7790	3.7789	2.4023	6.88	0.89	0.750			
0.5542	35467.52	3.7760	3.7761	2.4716	6.85	0.86	0.750			
0.5619	35959.48	3.7730	3.7730	2.4904	6.82	0.83	0.750			
0.5692	36431.31	3.7700	3.7701	2.4988	6.78	0.79	0.750			
0.5767	36908.36	3.7670	3.7669	2.5354	6.75	0.76	0.750			
0.5843	37394.34	3.7640	3.7640	2.5724	6.71	0.72	0.750			
0.5921	37895.19	3.7610	3.7610	2.7004	6.69	0.70	0.750			
0.6005	38431.43	3.7580	3.7578	2.7130	6.65	0.66	0.750			
0.6086	38953.09	3.7550	3.7552	2.7659	6.60	0.61	0.750			
0.6169	39481.05	3.7520	3.7520	2.8445	6.57	0.58	0.750			
0.6254	40022.77	3.7490	3.7489	2.9343	6.53	0.54	0.750			
0.6346	40615.49	3.7460	3.7461	3.1081	6.49	0.50	0.750			
0.6441	41221.17	3.7430	3.7430	3.1455	6.44	0.45	0.750			
0.6534	41817.17	3.7400	3.7401	3.1977	6.41	0.42	0.750			
0.6634	42455.76	3.7370	3.7371	3.3200	6.37	0.38	0.750			
0.6736	43113.54	3.7340	3.7341	3.3271	6.32	0.33	0.750			
0.6836	43750.20	3.7310	3.7309	3.3213	6.29	0.30	0.750			
0.6936	44391.31	3.7280	3.7281	3.2134	6.25	0.26	0.750			
0.7036	45029.61	3.7250	3.7250	3.1028	6.21	0.22	0.750			
0.7123	45584.61	3.7220	3.7219	2.6939	6.19	0.20	0.750			
0.7198	46065.83	3.7190	3.7191	2.3959	6.17	0.18	0.750			
0.7263	46483.78	3.7160	3.7160	2.1034	6.15	0.16	0.750			
0.7321	46854.43	3.7130	3.7130	1.8853	6.13	0.14	0.750			
0.7374	47194.31	3.7100	3.7102	1.6961	6.11	0.12	0.750			
0.7422	47501.33	3.7070	3.7072	1.5539	6.10	0.11	0.750			
0.7466	47779.37	3.7040	3.7039	1.4179	6.09	0.10	0.750			
0.7505	48032.67	3.7010	3.7010	1.3163	6.08	0.09	0.750			
0.7543	48272.26	3.6980	3.6980	1.2340	6.07	0.08	0.750			
0.7578	48497.77	3.6950	3.6949	1.1646	6.07	0.08	0.750			
0.7611	48711.10	3.6920	3.6919	1.1078	6.06	0.07	0.750			
0.7642	48911.91	3.6890	3.6892	1.0749	6.05	0.06	0.750			
0.7674	49114.60	3.6860	3.6860	1.0523	6.05	0.06	0.750			
0.7705	49314.00	3.6830	3.6829	1.0291	6.04	0.05	0.750			
0.7736	49510.17	3.6800	3.6800	1.0078	6.03	0.04	0.750			
0.7766	49702.96	3.6770	3.6772	0.9926	6.03	0.04	0.750			
0.7796	49892.91	3.6740	3.6740	0.9752	6.02	0.03	0.750			
0.7824	50075.68	3.6710	3.6708	0.9493	6.02	0.03	0.750			
0.7852	50254.98	3.6680	3.6680	0.9258	6.02	0.03	0.750			
0.7880	50432.32	3.6650	3.6650	0.9058	6.01	0.02	0.750			
0.7907	50607.55	3.6620	3.6619	0.8863	6.01	0.02	0.750			
0.7933	50772.81	3.6590	3.6592	0.8641	6.00	0.01	0.750			
0.7959	50937.45	3.6560	3.6559	0.8428	6.00	0.01	0.750			
0.7984	51095.49	3.6530	3.6530	0.8233	6.00	0.01	0.750			
0.8008	51252.04	3.6500	3.6500	0.8092	6.00	0.01	0.750			
0.8032	51406.65	3.6470	3.6470	0.7930	5.99	0.00	0.750			
0.8056	51558.03	3.6440	3.6438	0.7721	5.99	0.00	0.750			
0.8079	51706.28	3.6410	3.6411	0.7470	5.99	0.00	0.750			
0.8101	51847.78	3.6380	3.6381	0.7152	5.99	0.00	0.750			
0.8123	51987.19	3.6350	3.6349	0.6770	5.99	0.00	0.750			
0.8143	52114.22	3.6320	3.6320	0.6234	5.99	0.00	0.750			
0.8161	52229.79	3.6290	3.6290	0.5667	5.99	0.00	0.750			
0.8177	52333.42	3.6260	3.6261	0.5037	5.99	0.00	0.750			
0.8191	52424.29	3.6230	3.6230	0.4406	5.99	0.00	0.750			
0.8203	52501.89	3.6200	3.6200	0.3744	5.99	0.00	0.750			
0.8213	52565.27	3.6170	3.6170	0.3144	5.99	0.00	0.750			
0.8222	52620.11	3.6140	3.6141	0.2587	5.99	0.00	0.750			
0.8229	52664.13	3.6110	3.6109	0.2035	5.99	0.00	0.750			
0.8234	52696.25	3.6080	3.6079	0.1473	5.99	0.00	0.750			
0.8238	52720.22	3.6050	3.6033	0.0958	5.99	0.00	0.750			
0.8239	52729.44	3.5960	3.5921	-0.0528	5.99	0.00	0.750			
0.8239	52730.98	3.6020	3.5811	0.0448	5.99	0.00	0.750			
0.8240	52734.90	3.5990	3.5513	-0.0040	5.99	0.00	0.750			
