Ah_balance (normalized)	Ah_balance (mAh)	Voltage - fit (V)	Voltage -  interpolate (V)	dQ/dV (1/V)	Temperature (°C)	Temperature - diff (°C)	Current (C)	R_DC 0ms (mOhm)	R_DC 50ms (mOhm)	R_DC 50 ms PEC (mOhm)
0.0972	6223.98	4.1970	4.1988	0.5167	8.73	2.32	0.750			
0.0989	6332.31	4.1940	4.1963	0.6330	8.73	2.32	0.750			
0.1012	6475.45	4.1910	4.1931	0.7394	8.72	2.31	0.750			
0.1037	6638.33	4.1880	4.1895	0.8013	8.71	2.30	0.750			
0.1062	6799.68	4.1850	4.1859	0.8129	8.71	2.30	0.750			
0.1087	6955.85	4.1820	4.1827	0.8036	8.70	2.29	0.750			
0.1116	7141.93	4.1790	4.1784	0.8502	8.70	2.29	0.750			
0.1134	7255.03	4.1760	4.1760	0.7179	8.69	2.28	0.750			
0.1155	7393.33	4.1730	4.1731	0.7085	8.69	2.28	0.750			
0.1177	7530.43	4.1700	4.1700	0.7105	8.68	2.27	0.750			
0.1197	7661.96	4.1670	4.1671	0.7023	8.68	2.27	0.750			
0.1218	7795.51	4.1640	4.1638	0.7046	8.67	2.26	0.750			
0.1239	7929.64	4.1610	4.1611	0.7122	8.67	2.26	0.750			
0.1260	8066.91	4.1580	4.1581	0.7227	8.66	2.25	0.750			
0.1283	8210.09	4.1550	4.1549	0.7229	8.66	2.25	0.750			
0.1305	8350.08	4.1520	4.1518	0.7231	8.65	2.24	0.750			
0.1326	8485.74	4.1490	4.1493	0.7204	8.65	2.24	0.750			
0.1348	8624.59	4.1460	4.1456	0.7250	8.64	2.23	0.750			
0.1369	8763.25	4.1430	4.1430	0.7238	8.63	2.22	0.750			
0.1391	8902.84	4.1400	4.1400	0.7227	8.63	2.22	0.750			
0.1413	9041.06	4.1370	4.1370	0.7289	8.62	2.21	0.750			
0.1434	9180.51	4.1340	4.1341	0.7370	8.62	2.21	0.750			
0.1457	9323.73	4.1310	4.1310	0.7424	8.61	2.20	0.750			
0.1479	9466.25	4.1280	4.1279	0.7463	8.61	2.20	0.750			
0.1502	9611.07	4.1250	4.1251	0.7540	8.60	2.19	0.750			
0.1525	9758.99	4.1220	4.1221	0.7557	8.59	2.18	0.750			
0.1547	9903.37	4.1190	4.1190	0.7582	8.59	2.18	0.750			
0.1570	10047.11	4.1160	4.1160	0.7554	8.58	2.17	0.750			
0.1593	10192.30	4.1130	4.1129	0.7555	8.57	2.16	0.750			
0.1615	10338.49	4.1100	4.1099	0.7613	8.57	2.16	0.750			
0.1638	10483.58	4.1070	4.1071	0.7629	8.56	2.15	0.750			
0.1661	10629.94	4.1040	4.1041	0.7704	8.56	2.15	0.750			
0.1684	10779.38	4.1010	4.1009	0.7781	8.56	2.15	0.750			
0.1708	10929.36	4.0980	4.0980	0.7737	8.55	2.14	0.750			
0.1731	11078.51	4.0950	4.0950	0.7823	8.55	2.14	0.750			
0.1755	11231.14	4.0920	4.0921	0.7824	8.54	2.13	0.750			
0.1778	11379.84	4.0890	4.0890	0.7808	8.53	2.12	0.750			
0.1801	11527.71	4.0860	4.0859	0.7864	8.52	2.11	0.750			
0.1825	11679.09	4.0830	4.0830	0.7908	8.52	2.11	0.750			
0.1849	11831.71	4.0800	4.0798	0.7949	8.51	2.10	0.750			
0.1873	11985.32	4.0770	4.0772	0.8038	8.50	2.09	0.750			
0.1897	12139.92	4.0740	4.0740	0.8031	8.50	2.09	0.750			
0.1921	12296.65	4.0710	4.0709	0.8087	8.49	2.08	0.750			
0.1945	12448.97	4.0680	4.0681	0.8044	8.49	2.08	0.750			
0.1969	12603.44	4.0650	4.0650	0.8108	8.48	2.07	0.750			
0.1994	12762.55	4.0620	4.0619	0.8140	8.47	2.06	0.750			
0.2019	12919.45	4.0590	4.0589	0.8104	8.47	2.06	0.750			
0.2043	13072.42	4.0560	4.0561	0.8123	8.46	2.05	0.750			
0.2067	13228.15	4.0530	4.0531	0.8179	8.46	2.05	0.750			
0.2091	13384.73	4.0500	4.0498	0.8279	8.45	2.04	0.750			
0.2116	13542.68	4.0470	4.0470	0.8331	8.44	2.03	0.750			
0.2141	13704.64	4.0440	4.0441	0.8403	8.44	2.03	0.750			
0.2168	13872.52	4.0410	4.0410	0.8493	8.43	2.02	0.750			
0.2193	14033.47	4.0380	4.0381	0.8492	8.42	2.01	0.750			
0.2218	14196.80	4.0350	4.0349	0.8467	8.41	2.00	0.750			
0.2243	14358.31	4.0320	4.0319	0.8452	8.40	1.99	0.750			
0.2269	14519.72	4.0290	4.0291	0.8527	8.40	1.99	0.750			
0.2294	14683.37	4.0260	4.0259	0.8615	8.39	1.98	0.750			
0.2321	14851.66	4.0230	4.0229	0.8635	8.38	1.97	0.750			
0.2347	15018.26	4.0200	4.0199	0.8688	8.37	1.96	0.750			
0.2373	15186.14	4.0170	4.0170	0.8638	8.36	1.95	0.750			
0.2399	15353.01	4.0140	4.0141	0.8720	8.36	1.95	0.750			
0.2425	15518.60	4.0110	4.0109	0.8746	8.35	1.94	0.750			
0.2451	15684.86	4.0080	4.0080	0.8729	8.35	1.94	0.750			
0.2477	15853.79	4.0050	4.0049	0.8818	8.34	1.93	0.750			
0.2504	16024.70	4.0020	4.0021	0.8922	8.33	1.92	0.750			
0.2531	16196.77	3.9990	3.9990	0.8977	8.32	1.91	0.750			
0.2558	16370.83	3.9960	3.9960	0.9068	8.31	1.90	0.750			
0.2585	16544.25	3.9930	3.9930	0.9023	8.30	1.89	0.750			
0.2612	16719.47	3.9900	3.9900	0.9096	8.30	1.89	0.750			
0.2640	16895.38	3.9870	3.9871	0.9120	8.29	1.88	0.750			
0.2667	17067.85	3.9840	3.9841	0.9154	8.28	1.87	0.750			
0.2694	17243.10	3.9810	3.9810	0.9205	8.27	1.86	0.750			
0.2722	17421.83	3.9780	3.9776	0.9207	8.26	1.85	0.750			
0.2750	17599.65	3.9750	3.9750	0.9202	8.25	1.84	0.750			
0.2778	17776.55	3.9720	3.9722	0.9279	8.24	1.83	0.750			
0.2805	17954.13	3.9690	3.9690	0.9359	8.23	1.82	0.750			
0.2833	18130.78	3.9660	3.9660	0.9379	8.22	1.81	0.750			
0.2862	18316.52	3.9630	3.9629	0.9430	8.22	1.81	0.750			
0.2890	18496.43	3.9600	3.9601	0.9572	8.21	1.80	0.750			
0.2919	18683.30	3.9570	3.9571	0.9671	8.20	1.79	0.750			
0.2949	18870.49	3.9540	3.9541	0.9725	8.19	1.78	0.750			
0.2977	19054.80	3.9510	3.9510	0.9759	8.18	1.77	0.750			
0.3007	19243.30	3.9480	3.9482	0.9843	8.16	1.75	0.750			
0.3036	19433.14	3.9450	3.9450	0.9918	8.15	1.74	0.750			
0.3067	19626.90	3.9420	3.9420	1.0019	8.13	1.72	0.750			
0.3097	19817.73	3.9390	3.9390	1.0076	8.12	1.71	0.750			
0.3127	20013.15	3.9360	3.9360	1.0143	8.11	1.70	0.750			
0.3158	20209.15	3.9330	3.9330	1.0142	8.10	1.69	0.750			
0.3188	20401.51	3.9300	3.9301	1.0267	8.09	1.68	0.750			
0.3219	20600.09	3.9270	3.9269	1.0385	8.08	1.67	0.750			
0.3250	20800.30	3.9240	3.9239	1.0481	8.07	1.66	0.750			
0.3281	21001.29	3.9210	3.9211	1.0609	8.06	1.65	0.750			
0.3313	21205.93	3.9180	3.9181	1.0724	8.05	1.64	0.750			
0.3347	21418.44	3.9150	3.9149	1.0819	8.04	1.63	0.750			
0.3379	21625.78	3.9120	3.9119	1.0952	8.03	1.62	0.750			
0.3412	21834.93	3.9090	3.9092	1.0986	8.01	1.60	0.750			
0.3445	22046.99	3.9060	3.9061	1.1128	8.00	1.59	0.750			
0.3478	22260.05	3.9030	3.9029	1.1235	7.99	1.58	0.750			
0.3512	22478.33	3.9000	3.9001	1.1297	7.97	1.56	0.750			
0.3546	22695.03	3.8970	3.8969	1.1450	7.96	1.55	0.750			
0.3581	22916.42	3.8940	3.8941	1.1577	7.95	1.54	0.750			
0.3616	23140.76	3.8910	3.8909	1.1635	7.93	1.52	0.750			
0.3651	23367.44	3.8880	3.8880	1.1734	7.92	1.51	0.750			
0.3686	23589.12	3.8850	3.8851	1.2010	7.90	1.49	0.750			
0.3722	23820.17	3.8820	3.8819	1.2183	7.89	1.48	0.750			
0.3759	24057.30	3.8790	3.8790	1.2517	7.88	1.47	0.750	0.399	0.786	
0.3797	24299.72	3.8760	3.8762	1.2660	7.86	1.45	0.750			
0.3836	24548.81	3.8730	3.8730	1.2858	7.84	1.43	0.750			
0.3875	24799.67	3.8700	3.8701	1.3025	7.83	1.42	0.750			
0.3914	25052.46	3.8670	3.8670	1.3100	7.81	1.40	0.750			
0.3954	25303.15	3.8640	3.8639	1.3099	7.80	1.39	0.750			
0.3993	25554.88	3.8610	3.8611	1.3180	7.78	1.37	0.750			
0.4032	25803.86	3.8580	3.8580	1.3285	7.77	1.36	0.750			
0.4072	26059.96	3.8550	3.8552	1.3499	7.75	1.34	0.750			
0.4112	26319.38	3.8520	3.8519	1.3792	7.73	1.32	0.750			
0.4154	26585.95	3.8490	3.8490	1.4041	7.72	1.31	0.750			
0.4197	26861.38	3.8460	3.8459	1.4274	7.70	1.29	0.750			
0.4240	27137.21	3.8430	3.8432	1.4552	7.68	1.27	0.750			
0.4285	27421.17	3.8400	3.8400	1.4727	7.66	1.25	0.750			
0.4330	27709.94	3.8370	3.8369	1.4652	7.64	1.23	0.750			
0.4373	27989.10	3.8340	3.8340	1.4692	7.62	1.21	0.750			
0.4417	28266.76	3.8310	3.8312	1.4892	7.60	1.19	0.750			
0.4461	28550.51	3.8280	3.8279	1.5175	7.58	1.17	0.750			
0.4507	28842.39	3.8250	3.8247	1.5411	7.55	1.14	0.750			
0.4553	29138.46	3.8220	3.8221	1.5565	7.53	1.12	0.750			
0.4601	29447.53	3.8190	3.8190	1.5809	7.51	1.10	0.750			
0.4650	29761.14	3.8160	3.8161	1.6067	7.48	1.07	0.750			
0.4698	30064.88	3.8130	3.8132	1.6108	7.46	1.05	0.750			
0.4747	30378.00	3.8100	3.8101	1.6223	7.44	1.03	0.750			
0.4795	30686.61	3.8070	3.8069	1.6330	7.42	1.01	0.750			
0.4845	31007.66	3.8040	3.8040	1.6591	7.40	0.99	0.750			
0.4895	31329.62	3.8010	3.8010	1.6787	7.38	0.97	0.750			
0.4945	31648.25	3.7980	3.7981	1.6856	7.35	0.94	0.750			
0.4996	31972.26	3.7950	3.7951	1.7110	7.33	0.92	0.750			
0.5048	32305.16	3.7920	3.7920	1.7292	7.30	0.89	0.750			
0.5099	32635.84	3.7890	3.7889	1.7766	7.27	0.86	0.750			
0.5153	32977.74	3.7860	3.7859	1.8177	7.24	0.83	0.750			
0.5208	33328.93	3.7830	3.7831	1.8852	7.22	0.81	0.750			
0.5265	33695.35	3.7800	3.7801	1.9471	7.19	0.78	0.750			
0.5325	34077.97	3.7770	3.7770	2.0107	7.17	0.76	0.750			
0.5386	34471.64	3.7740	3.7741	2.0417	7.14	0.73	0.750			
0.5449	34873.84	3.7710	3.7710	2.0834	7.11	0.70	0.750			
0.5512	35274.46	3.7680	3.7680	2.1765	7.08	0.67	0.750			
0.5577	35690.71	3.7650	3.7649	2.2696	7.06	0.65	0.750			
0.5646	36132.60	3.7620	3.7620	2.3683	7.02	0.61	0.750			
0.5720	36606.92	3.7590	3.7590	2.5070	6.98	0.57	0.750			
0.5797	37101.61	3.7560	3.7559	2.6161	6.95	0.54	0.750			
0.5876	37606.59	3.7530	3.7531	2.6977	6.92	0.51	0.750			
0.5959	38137.60	3.7500	3.7500	2.8229	6.89	0.48	0.750			
0.6045	38686.24	3.7470	3.7470	2.9574	6.84	0.43	0.750			
0.6136	39271.28	3.7440	3.7440	3.1179	6.80	0.39	0.750			
0.6233	39893.20	3.7410	3.7409	3.0593	6.77	0.36	0.750			
0.6326	40485.28	3.7380	3.7380	2.8463	6.74	0.33	0.750			
0.6408	41008.95	3.7350	3.7349	2.5602	6.71	0.30	0.750			
0.6477	41455.39	3.7320	3.7319	2.2036	6.69	0.28	0.750			
0.6537	41839.70	3.7290	3.7292	1.9488	6.66	0.25	0.750			
0.6591	42182.95	3.7260	3.7259	1.7192	6.64	0.23	0.750			
0.6637	42478.44	3.7230	3.7230	1.5354	6.63	0.22	0.750			
0.6680	42749.49	3.7200	3.7198	1.3964	6.61	0.20	0.750			
0.6719	42999.57	3.7170	3.7169	1.2973	6.60	0.19	0.750			
0.6755	43234.78	3.7140	3.7141	1.2432	6.59	0.18	0.750			
0.6791	43465.57	3.7110	3.7109	1.2068	6.58	0.17	0.750			
0.6826	43687.64	3.7080	3.7081	1.1668	6.57	0.16	0.750			
0.6861	43911.28	3.7050	3.7052	1.1445	6.56	0.15	0.750			
0.6896	44133.62	3.7020	3.7021	1.1202	6.54	0.13	0.750			
0.6930	44349.69	3.6990	3.6989	1.0900	6.53	0.12	0.750			
0.6962	44554.45	3.6960	3.6960	1.0546	6.52	0.11	0.750			
0.6992	44751.69	3.6930	3.6931	1.0115	6.52	0.11	0.750			
0.7022	44941.40	3.6900	3.6899	0.9850	6.51	0.10	0.750			
0.7051	45124.45	3.6870	3.6870	0.9645	6.50	0.09	0.750			
0.7079	45304.98	3.6840	3.6841	0.9587	6.49	0.08	0.750			
0.7108	45489.00	3.6810	3.6810	0.9582	6.49	0.08	0.750			
0.7137	45675.82	3.6780	3.6779	0.9474	6.48	0.07	0.750			
0.7165	45856.08	3.6750	3.6752	0.9423	6.47	0.06	0.750			
0.7194	46038.85	3.6720	3.6721	0.9372	6.46	0.05	0.750			
0.7221	46215.22	3.6690	3.6688	0.9296	6.45	0.04	0.750			
0.7249	46390.69	3.6660	3.6659	0.9178	6.44	0.03	0.750			
0.7276	46564.83	3.6630	3.6632	0.9201	6.44	0.03	0.750			
0.7304	46742.78	3.6600	3.6600	0.9271	6.43	0.02	0.750			
0.7332	46922.63	3.6570	3.6570	0.9293	6.42	0.01	0.750			
0.7360	47102.02	3.6540	3.6540	0.9231	6.42	0.01	0.750			
0.7388	47284.66	3.6510	3.6510	0.9065	6.42	0.01	0.750			
0.7416	47461.60	3.6480	3.6480	0.8599	6.41	0.00	0.750			
0.7442	47630.85	3.6450	3.6451	0.8059	6.41	0.00	0.750			
0.7466	47781.06	3.6420	3.6419	0.7134	6.41	0.00	0.750			
0.7486	47911.70	3.6390	3.6390	0.6188	6.41	-0.00	0.750			
0.7503	48018.90	3.6360	3.6362	0.5160	6.41	-0.00	0.750			
0.7514	48089.61	3.6330	3.6336	0.4398	6.41	-0.00	0.750			
0.7526	48164.07	3.6300	3.6303	0.3451	6.41	-0.00	0.750			
0.7535	48221.37	3.6270	3.6271	0.2770	6.40	-0.01	0.750			
0.7541	48262.42	3.6240	3.6237	0.2099	6.40	-0.01	0.750			
0.7546	48293.32	3.6210	3.6188	0.1584	6.40	-0.01	0.750			
0.7548	48308.01	3.5970	3.5983	-0.1129	6.40	-0.01	0.750			
0.7550	48317.81	3.6180	3.4763	0.1182	6.40	-0.01	0.754			
0.7551	48326.66	3.6000	3.3582	-0.0814	6.40	-0.01	0.758			
0.7551	48329.10	3.6150	3.3257	0.0763	6.40	-0.01	0.759			
0.7553	48339.26	3.6030	3.1901	-0.0498	6.40	-0.01	0.764			
0.7553	48340.72	3.6120	3.1706	0.0448	6.40	-0.01	0.764			
0.7554	48345.80	3.6060	3.1028	-0.0183	6.40	-0.01	0.767			
0.7554	48346.29	3.6090	3.0963	0.0132	6.40	-0.01	0.767			
