Ah_balance (normalized)	Ah_balance (mAh)	Voltage - fit (V)	Voltage -  interpolate (V)	dQ/dV (1/V)	Temperature (°C)	Temperature - diff (°C)	Current (C)	R_DC 0ms (mOhm)	R_DC 50ms (mOhm)	R_DC 50 ms PEC (mOhm)
0.0003	17.69	4.1050	4.1040	-0.0603	5.98	-0.01	-0.750			
0.0005	32.09	4.1020	4.1016	-0.0897	5.98	-0.01	-0.750			
0.0008	52.84	4.0990	4.0988	-0.1178	5.98	-0.01	-0.750			
0.0012	78.48	4.0960	4.0961	-0.1439	5.98	-0.01	-0.750			
0.0017	108.71	4.0930	4.0931	-0.1700	5.98	-0.01	-0.750			
0.0022	143.85	4.0900	4.0901	-0.1961	5.98	-0.01	-0.750			
0.0029	185.06	4.0870	4.0870	-0.2203	5.99	-0.00	-0.750			
0.0036	230.13	4.0840	4.0839	-0.2413	5.99	-0.00	-0.750			
0.0044	279.17	4.0810	4.0811	-0.2628	5.99	-0.00	-0.750			
0.0052	330.98	4.0780	4.0780	-0.2849	5.99	-0.00	-0.750			
0.0061	388.01	4.0750	4.0750	-0.3052	5.99	-0.00	-0.750			
0.0070	448.17	4.0720	4.0720	-0.3269	5.99	-0.00	-0.750			
0.0080	512.52	4.0690	4.0690	-0.3477	5.99	-0.00	-0.750			
0.0091	581.52	4.0660	4.0661	-0.3714	5.99	0.00	-0.750			
0.0102	655.18	4.0630	4.0630	-0.3944	5.99	0.00	-0.750			
0.0114	732.61	4.0600	4.0600	-0.4182	5.99	0.00	-0.750			
0.0127	815.55	4.0570	4.0570	-0.4386	5.99	0.00	-0.750			
0.0141	902.86	4.0540	4.0539	-0.4603	5.99	0.00	-0.750			
0.0155	992.27	4.0510	4.0511	-0.4830	6.00	0.01	-0.750			
0.0170	1087.83	4.0480	4.0480	-0.5048	6.00	0.01	-0.750			
0.0185	1186.64	4.0450	4.0449	-0.5260	6.00	0.01	-0.750			
0.0202	1290.17	4.0420	4.0419	-0.5466	6.00	0.01	-0.750			
0.0218	1396.56	4.0390	4.0391	-0.5673	6.00	0.01	-0.750			
0.0236	1509.49	4.0360	4.0359	-0.5858	6.01	0.02	-0.750			
0.0254	1623.88	4.0330	4.0330	-0.6029	6.01	0.02	-0.750			
0.0272	1740.61	4.0300	4.0300	-0.6144	6.01	0.02	-0.750			
0.0291	1861.75	4.0270	4.0271	-0.6280	6.02	0.03	-0.750			
0.0310	1983.60	4.0240	4.0239	-0.6385	6.02	0.03	-0.750			
0.0329	2107.69	4.0210	4.0210	-0.6456	6.03	0.04	-0.750			
0.0349	2232.50	4.0180	4.0180	-0.6510	6.03	0.04	-0.750			
0.0369	2358.96	4.0150	4.0150	-0.6573	6.04	0.05	-0.750			
0.0388	2484.51	4.0120	4.0121	-0.6628	6.04	0.05	-0.750			
0.0408	2613.87	4.0090	4.0089	-0.6747	6.05	0.06	-0.750			
0.0429	2746.00	4.0060	4.0060	-0.6810	6.05	0.06	-0.750			
0.0449	2876.65	4.0030	4.0029	-0.6867	6.06	0.07	-0.750			
0.0470	3008.94	4.0000	4.0001	-0.6957	6.06	0.07	-0.750			
0.0491	3143.53	3.9970	3.9969	-0.7046	6.07	0.08	-0.750			
0.0512	3278.26	3.9940	3.9940	-0.7162	6.08	0.09	-0.750			
0.0534	3416.16	3.9910	3.9909	-0.7157	6.08	0.09	-0.750			
0.0556	3557.51	3.9880	3.9881	-0.7273	6.09	0.10	-0.750			
0.0578	3698.20	3.9850	3.9850	-0.7347	6.10	0.11	-0.750			
0.0600	3838.97	3.9820	3.9820	-0.7334	6.10	0.11	-0.750			
0.0622	3979.41	3.9790	3.9789	-0.7363	6.11	0.12	-0.750			
0.0644	4121.81	3.9760	3.9760	-0.7406	6.12	0.13	-0.750			
0.0666	4265.11	3.9730	3.9730	-0.7404	6.13	0.14	-0.750			
0.0689	4408.51	3.9700	3.9700	-0.7474	6.14	0.15	-0.750			
0.0711	4552.50	3.9670	3.9672	-0.7434	6.15	0.16	-0.750			
0.0734	4695.29	3.9640	3.9639	-0.7349	6.16	0.17	-0.750			
0.0756	4835.65	3.9610	3.9610	-0.7361	6.16	0.17	-0.750			
0.0777	4975.77	3.9580	3.9581	-0.7364	6.17	0.18	-0.750			
0.0800	5119.08	3.9550	3.9548	-0.7369	6.18	0.19	-0.750			
0.0822	5259.16	3.9520	3.9520	-0.7350	6.19	0.20	-0.750			
0.0843	5397.79	3.9490	3.9492	-0.7432	6.19	0.20	-0.750			
0.0866	5542.67	3.9460	3.9459	-0.7580	6.20	0.21	-0.750			
0.0889	5688.83	3.9430	3.9428	-0.7716	6.21	0.22	-0.750			
0.0912	5836.87	3.9400	3.9400	-0.7731	6.22	0.23	-0.750			
0.0936	5987.82	3.9370	3.9370	-0.7803	6.23	0.24	-0.750			
0.0960	6141.18	3.9340	3.9341	-0.7810	6.24	0.25	-0.750			
0.0983	6291.43	3.9310	3.9310	-0.7747	6.25	0.26	-0.750			
0.1006	6437.73	3.9280	3.9279	-0.7721	6.25	0.26	-0.750			
0.1029	6584.19	3.9250	3.9252	-0.7681	6.26	0.27	-0.750			
0.1052	6730.38	3.9220	3.9220	-0.7714	6.27	0.28	-0.750			
0.1075	6880.69	3.9190	3.9189	-0.7788	6.28	0.29	-0.750			
0.1098	7030.08	3.9160	3.9158	-0.7749	6.29	0.30	-0.750			
0.1122	7178.52	3.9130	3.9131	-0.7858	6.30	0.31	-0.750			
0.1145	7329.79	3.9100	3.9100	-0.7894	6.31	0.32	-0.750			
0.1169	7481.42	3.9070	3.9069	-0.7910	6.32	0.33	-0.750			
0.1193	7635.21	3.9040	3.9041	-0.7959	6.33	0.34	-0.750			
0.1217	7788.59	3.9010	3.9011	-0.7898	6.34	0.35	-0.750			
0.1241	7940.26	3.8980	3.8980	-0.7908	6.35	0.36	-0.750			
0.1264	8092.47	3.8950	3.8951	-0.7972	6.36	0.37	-0.750			
0.1288	8242.99	3.8920	3.8919	-0.7968	6.36	0.37	-0.750			
0.1312	8398.15	3.8890	3.8888	-0.7988	6.37	0.38	-0.750			
0.1336	8552.36	3.8860	3.8863	-0.7980	6.38	0.39	-0.750			
0.1361	8707.22	3.8830	3.8830	-0.7972	6.39	0.40	-0.750			
0.1384	8860.13	3.8800	3.8801	-0.8007	6.40	0.41	-0.750			
0.1408	9011.57	3.8770	3.8769	-0.7932	6.41	0.42	-0.750			
0.1432	9162.11	3.8740	3.8740	-0.8036	6.43	0.44	-0.750			
0.1456	9315.70	3.8710	3.8711	-0.8107	6.44	0.45	-0.750			
0.1480	9475.08	3.8680	3.8679	-0.8176	6.45	0.46	-0.750			
0.1505	9633.04	3.8650	3.8649	-0.8206	6.46	0.47	-0.750			
0.1530	9792.07	3.8620	3.8621	-0.8243	6.47	0.48	-0.750			
0.1555	9950.30	3.8590	3.8590	-0.8176	6.48	0.49	-0.750			
0.1580	10109.18	3.8560	3.8560	-0.8180	6.49	0.50	-0.750			
0.1604	10263.03	3.8530	3.8529	-0.8134	6.50	0.51	-0.750			
0.1628	10417.46	3.8500	3.8500	-0.8165	6.51	0.52	-0.750			
0.1652	10575.97	3.8470	3.8469	-0.8168	6.52	0.53	-0.750			
0.1677	10731.13	3.8440	3.8440	-0.8179	6.53	0.54	-0.750			
0.1701	10889.24	3.8410	3.8411	-0.8223	6.54	0.55	-0.750			
0.1726	11047.93	3.8380	3.8380	-0.8299	6.54	0.55	-0.750			
0.1751	11206.86	3.8350	3.8350	-0.8308	6.55	0.56	-0.750			
0.1776	11367.38	3.8320	3.8318	-0.8301	6.56	0.57	-0.750			
0.1801	11526.64	3.8290	3.8291	-0.8315	6.57	0.58	-0.750			
0.1826	11688.11	3.8260	3.8259	-0.8312	6.58	0.59	-0.750			
0.1851	11846.74	3.8230	3.8230	-0.8302	6.58	0.59	-0.750			
0.1876	12005.51	3.8200	3.8200	-0.8368	6.59	0.60	-0.750			
0.1901	12166.15	3.8170	3.8168	-0.8276	6.60	0.61	-0.750			
0.1926	12323.92	3.8140	3.8140	-0.8323	6.61	0.62	-0.750			
0.1951	12485.37	3.8110	3.8111	-0.8368	6.62	0.63	-0.750			
0.1976	12645.62	3.8080	3.8077	-0.8408	6.63	0.64	-0.750			
0.2001	12808.54	3.8050	3.8049	-0.8482	6.64	0.65	-0.750			
0.2026	12969.05	3.8020	3.8020	-0.8515	6.65	0.66	-0.750			
0.2052	13134.98	3.7990	3.7989	-0.8604	6.66	0.67	-0.750			
0.2079	13303.74	3.7960	3.7959	-0.8653	6.68	0.69	-0.750			
0.2105	13469.38	3.7930	3.7928	-0.8536	6.69	0.70	-0.750			
0.2130	13634.61	3.7900	3.7901	-0.8537	6.69	0.70	-0.750			
0.2156	13797.04	3.7870	3.7870	-0.8476	6.70	0.71	-0.750			
0.2181	13957.65	3.7840	3.7840	-0.8461	6.71	0.72	-0.750			
0.2206	14119.93	3.7810	3.7810	-0.8445	6.72	0.73	-0.750			
0.2232	14282.32	3.7780	3.7779	-0.8477	6.73	0.74	-0.750			
0.2257	14446.60	3.7750	3.7751	-0.8587	6.73	0.74	-0.750			
0.2283	14613.94	3.7720	3.7719	-0.8587	6.74	0.75	-0.750			
0.2309	14778.13	3.7690	3.7690	-0.8545	6.75	0.76	-0.750			
0.2335	14944.23	3.7660	3.7662	-0.8534	6.76	0.77	-0.750			
0.2360	15107.00	3.7630	3.7630	-0.8538	6.77	0.78	-0.750			
0.2386	15270.43	3.7600	3.7600	-0.8555	6.78	0.79	-0.750			
0.2411	15433.11	3.7570	3.7570	-0.8581	6.79	0.80	-0.750			
0.2437	15597.71	3.7540	3.7540	-0.8661	6.80	0.81	-0.750			
0.2463	15766.14	3.7510	3.7510	-0.8716	6.81	0.82	-0.750			
0.2490	15934.33	3.7480	3.7480	-0.8770	6.82	0.83	-0.750			
0.2516	16103.75	3.7450	3.7450	-0.8771	6.83	0.84	-0.750			
0.2543	16272.31	3.7420	3.7420	-0.8746	6.84	0.85	-0.750			
0.2569	16438.86	3.7390	3.7390	-0.8751	6.84	0.85	-0.750			
0.2595	16607.29	3.7360	3.7361	-0.8748	6.85	0.86	-0.750			
0.2621	16773.14	3.7330	3.7331	-0.8779	6.86	0.87	-0.750			
0.2647	16943.53	3.7300	3.7299	-0.8777	6.87	0.88	-0.750			
0.2674	17112.16	3.7270	3.7272	-0.8815	6.88	0.89	-0.750			
0.2700	17281.57	3.7240	3.7240	-0.8901	6.89	0.90	-0.750			
0.2727	17451.62	3.7210	3.7210	-0.8992	6.89	0.90	-0.750			
0.2754	17624.33	3.7180	3.7179	-0.9136	6.90	0.91	-0.750			
0.2782	17802.39	3.7150	3.7149	-0.9142	6.91	0.92	-0.750			
0.2810	17981.22	3.7120	3.7120	-0.9211	6.91	0.92	-0.750			
0.2838	18161.00	3.7090	3.7092	-0.9248	6.92	0.93	-0.750			
0.2865	18338.15	3.7060	3.7060	-0.9281	6.93	0.94	-0.750			
0.2893	18516.93	3.7030	3.7028	-0.9243	6.94	0.95	-0.750			
0.2920	18690.62	3.7000	3.7000	-0.9234	6.95	0.96	-0.750			
0.2948	18868.24	3.6970	3.6969	-0.9294	6.96	0.97	-0.750			
0.2976	19047.81	3.6940	3.6941	-0.9358	6.96	0.97	-0.750			
0.3004	19227.16	3.6910	3.6909	-0.9444	6.97	0.98	-0.750			
0.3032	19407.89	3.6880	3.6879	-0.9547	6.98	0.99	-0.750			
0.3061	19590.48	3.6850	3.6850	-0.9663	6.98	0.99	-0.750			
0.3091	19780.36	3.6820	3.6821	-0.9801	6.99	1.00	-0.750			
0.3121	19971.84	3.6790	3.6789	-0.9888	7.00	1.01	-0.750			
0.3151	20164.80	3.6760	3.6760	-0.9940	7.01	1.02	-0.750			
0.3181	20357.75	3.6730	3.6729	-0.9900	7.01	1.02	-0.750			
0.3210	20547.19	3.6700	3.6702	-0.9916	7.02	1.03	-0.750			
0.3240	20736.25	3.6670	3.6670	-0.9946	7.03	1.04	-0.750			
0.3269	20924.33	3.6640	3.6640	-0.9948	7.03	1.04	-0.750			
0.3299	21116.19	3.6610	3.6609	-1.0010	7.04	1.05	-0.750			
0.3330	21310.01	3.6580	3.6579	-1.0132	7.05	1.06	-0.750			
0.3360	21502.39	3.6550	3.6550	-1.0324	7.05	1.06	-0.750			
0.3391	21703.42	3.6520	3.6519	-1.0505	7.06	1.07	-0.750			
0.3423	21905.74	3.6490	3.6489	-1.0572	7.06	1.07	-0.750			
0.3455	22110.73	3.6460	3.6461	-1.0610	7.07	1.08	-0.750			
0.3487	22319.39	3.6430	3.6430	-1.0824	7.07	1.08	-0.750			
0.3520	22530.23	3.6400	3.6399	-1.0809	7.08	1.09	-0.750			
0.3553	22737.07	3.6370	3.6369	-1.0763	7.08	1.09	-0.750			
0.3584	22939.24	3.6340	3.6342	-1.0801	7.09	1.10	-0.750			
0.3617	23147.65	3.6310	3.6310	-1.1068	7.09	1.10	-0.750			
0.3650	23362.61	3.6280	3.6279	-1.1204	7.10	1.11	-0.750			
0.3684	23579.57	3.6250	3.6249	-1.1338	7.11	1.12	-0.750			
0.3718	23797.37	3.6220	3.6222	-1.1459	7.11	1.12	-0.750			
0.3754	24025.29	3.6190	3.6189	-1.1676	7.12	1.13	-0.750			
0.3789	24249.41	3.6160	3.6159	-1.1754	7.12	1.13	-0.750			
0.3824	24473.94	3.6130	3.6129	-1.1746	7.13	1.14	-0.750			
0.3859	24700.25	3.6100	3.6100	-1.1942	7.13	1.14	-0.750			
0.3896	24932.48	3.6070	3.6070	-1.2046	7.13	1.14	-0.750			
0.3932	25166.56	3.6040	3.6039	-1.2055	7.14	1.15	-0.750			
0.3968	25396.51	3.6010	3.6012	-1.2147	7.14	1.15	-0.750	0.470	0.936	
0.4005	25633.47	3.5980	3.5979	-1.2267	7.15	1.16	-0.750			
0.4042	25869.25	3.5950	3.5949	-1.2259	7.15	1.16	-0.750			
0.4079	26105.02	3.5920	3.5921	-1.2294	7.16	1.17	-0.750			
0.4116	26340.38	3.5890	3.5890	-1.2390	7.16	1.17	-0.750			
0.4153	26581.36	3.5860	3.5859	-1.2542	7.17	1.18	-0.750			
0.4191	26819.53	3.5830	3.5829	-1.2770	7.18	1.19	-0.750			
0.4229	27062.89	3.5800	3.5802	-1.2883	7.18	1.19	-0.750			
0.4268	27315.16	3.5770	3.5769	-1.3203	7.18	1.19	-0.750			
0.4308	27571.78	3.5740	3.5739	-1.3429	7.18	1.19	-0.750			
0.4349	27834.55	3.5710	3.5710	-1.3465	7.18	1.19	-0.750			
0.4390	28097.26	3.5680	3.5681	-1.3603	7.19	1.20	-0.750			
0.4432	28362.35	3.5650	3.5649	-1.3622	7.20	1.21	-0.750			
0.4472	28619.77	3.5620	3.5622	-1.3608	7.20	1.21	-0.750			
0.4513	28882.32	3.5590	3.5589	-1.3843	7.20	1.21	-0.750			
0.4554	29144.84	3.5560	3.5560	-1.3909	7.21	1.22	-0.750			
0.4596	29413.95	3.5530	3.5530	-1.4052	7.21	1.22	-0.750			
0.4639	29691.32	3.5500	3.5500	-1.4259	7.22	1.23	-0.750			
0.4682	29966.67	3.5470	3.5470	-1.4360	7.23	1.24	-0.750			
0.4726	30243.98	3.5440	3.5440	-1.4437	7.23	1.24	-0.750			
0.4768	30517.56	3.5410	3.5410	-1.4616	7.23	1.24	-0.750			
0.4812	30796.89	3.5380	3.5380	-1.4776	7.24	1.25	-0.750			
0.4857	31083.86	3.5350	3.5349	-1.4928	7.24	1.25	-0.750			
0.4903	31377.63	3.5320	3.5319	-1.5057	7.25	1.26	-0.750			
0.4948	31670.12	3.5290	3.5289	-1.4966	7.26	1.27	-0.750			
0.4994	31963.22	3.5260	3.5262	-1.4812	7.26	1.27	-0.750			
0.5038	32244.02	3.5230	3.5230	-1.4818	7.27	1.28	-0.750			
0.5081	32519.51	3.5200	3.5201	-1.4797	7.27	1.28	-0.750			
0.5125	32801.08	3.5170	3.5168	-1.4949	7.28	1.29	-0.750			
0.5171	33091.61	3.5140	3.5142	-1.5074	7.28	1.29	-0.750			
0.5217	33386.39	3.5110	3.5112	-1.5084	7.29	1.30	-0.750			
0.5263	33682.81	3.5080	3.5079	-1.5055	7.30	1.31	-0.750			
0.5308	33973.22	3.5050	3.5051	-1.5098	7.31	1.32	-0.750			
0.5352	34255.94	3.5020	3.5020	-1.4956	7.31	1.32	-0.750			
0.5397	34541.30	3.4990	3.4989	-1.4909	7.32	1.33	-0.750			
0.5442	34826.74	3.4960	3.4960	-1.4870	7.33	1.34	-0.750			
0.5487	35113.88	3.4930	3.4929	-1.4854	7.34	1.35	-0.750			
0.5531	35398.69	3.4900	3.4901	-1.4952	7.35	1.36	-0.750			
0.5576	35687.08	3.4870	3.4870	-1.4927	7.36	1.37	-0.750			
0.5621	35972.09	3.4840	3.4839	-1.4805	7.36	1.37	-0.750			
0.5665	36257.78	3.4810	3.4808	-1.4718	7.37	1.38	-0.750			
0.5709	36538.44	3.4780	3.4783	-1.4717	7.37	1.38	-0.750			
0.5753	36821.17	3.4750	3.4749	-1.4641	7.38	1.39	-0.750			
0.5798	37104.09	3.4720	3.4718	-1.4560	7.40	1.41	-0.750			
0.5841	37380.85	3.4690	3.4692	-1.4460	7.41	1.42	-0.750			
0.5884	37657.93	3.4660	3.4661	-1.4491	7.42	1.43	-0.750			
0.5928	37938.22	3.4630	3.4629	-1.4505	7.42	1.43	-0.750			
0.5972	38220.68	3.4600	3.4599	-1.4156	7.43	1.44	-0.750			
0.6015	38492.84	3.4570	3.4573	-1.3920	7.44	1.45	-0.750			
0.6056	38756.16	3.4540	3.4540	-1.3683	7.45	1.46	-0.750			
0.6096	39015.69	3.4510	3.4511	-1.3566	7.46	1.47	-0.750			
0.6136	39271.88	3.4480	3.4477	-1.3317	7.48	1.49	-0.750			
0.6176	39525.67	3.4450	3.4449	-1.3179	7.49	1.50	-0.750			
0.6215	39775.85	3.4420	3.4424	-1.2968	7.50	1.51	-0.750			
0.6255	40030.37	3.4390	3.4389	-1.2909	7.51	1.52	-0.750			
0.6293	40274.81	3.4360	3.4360	-1.2710	7.52	1.53	-0.750			
0.6330	40509.48	3.4330	3.4329	-1.2408	7.53	1.54	-0.750			
0.6367	40750.99	3.4300	3.4300	-1.2219	7.54	1.55	-0.750			
0.6404	40983.55	3.4270	3.4271	-1.1954	7.55	1.56	-0.750			
0.6439	41209.21	3.4240	3.4240	-1.1764	7.56	1.57	-0.750			
0.6474	41431.96	3.4210	3.4209	-1.1558	7.57	1.58	-0.750			
0.6508	41650.30	3.4180	3.4180	-1.1326	7.59	1.60	-0.750			
0.6542	41865.63	3.4150	3.4150	-1.1093	7.60	1.61	-0.750			
0.6575	42079.30	3.4120	3.4120	-1.0940	7.62	1.63	-0.750			
0.6608	42290.26	3.4090	3.4090	-1.0722	7.63	1.64	-0.750			
0.6639	42491.82	3.4060	3.4059	-1.0382	7.64	1.65	-0.750			
0.6670	42686.95	3.4030	3.4031	-1.0068	7.65	1.66	-0.750			
0.6700	42877.51	3.4000	3.4001	-0.9761	7.66	1.67	-0.750			
0.6728	43062.13	3.3970	3.3968	-0.9502	7.68	1.69	-0.750			
0.6756	43241.22	3.3940	3.3941	-0.9303	7.69	1.70	-0.750			
0.6784	43416.77	3.3910	3.3909	-0.9039	7.70	1.71	-0.750			
0.6811	43589.41	3.3880	3.3879	-0.8839	7.71	1.72	-0.750			
0.6837	43757.80	3.3850	3.3852	-0.8607	7.72	1.73	-0.750			
0.6863	43920.60	3.3820	3.3820	-0.8356	7.73	1.74	-0.750			
0.6887	44078.09	3.3790	3.3790	-0.8186	7.74	1.75	-0.750			
0.6911	44231.08	3.3760	3.3760	-0.7935	7.76	1.77	-0.750			
0.6935	44382.83	3.3730	3.3729	-0.7726	7.77	1.78	-0.750			
0.6958	44530.11	3.3700	3.3701	-0.7478	7.78	1.79	-0.750			
0.6980	44671.66	3.3670	3.3670	-0.7266	7.79	1.80	-0.750			
0.7001	44808.28	3.3640	3.3640	-0.7045	7.80	1.81	-0.750			
0.7022	44938.92	3.3610	3.3609	-0.6836	7.81	1.82	-0.750			
0.7042	45066.45	3.3580	3.3581	-0.6673	7.82	1.83	-0.750			
0.7062	45195.29	3.3550	3.3549	-0.6523	7.84	1.85	-0.750			
0.7081	45319.77	3.3520	3.3519	-0.6360	7.85	1.86	-0.750			
0.7100	45440.43	3.3490	3.3490	-0.6235	7.86	1.87	-0.750			
0.7118	45557.74	3.3460	3.3461	-0.6060	7.87	1.88	-0.750			
0.7136	45672.95	3.3430	3.3429	-0.5867	7.88	1.89	-0.750			
0.7154	45783.69	3.3400	3.3400	-0.5710	7.89	1.90	-0.750			
0.7171	45891.76	3.3370	3.3372	-0.5529	7.90	1.91	-0.750			
0.7187	45997.54	3.3340	3.3339	-0.5371	7.91	1.92	-0.750			
0.7203	46097.94	3.3310	3.3310	-0.5217	7.91	1.92	-0.750			
0.7218	46195.53	3.3280	3.3280	-0.5056	7.92	1.93	-0.750			
0.7233	46290.70	3.3250	3.3250	-0.4942	7.93	1.94	-0.750			
0.7248	46385.32	3.3220	3.3220	-0.4827	7.95	1.96	-0.750			
0.7262	46476.52	3.3190	3.3190	-0.4699	7.96	1.97	-0.750			
0.7276	46566.09	3.3160	3.3160	-0.4606	7.97	1.98	-0.750			
0.7290	46652.85	3.3130	3.3131	-0.4512	7.98	1.99	-0.750			
0.7303	46738.59	3.3100	3.3100	-0.4377	7.99	2.00	-0.750			
0.7316	46822.20	3.3070	3.3068	-0.4267	7.99	2.00	-0.750			
0.7328	46902.15	3.3040	3.3041	-0.4156	8.00	2.01	-0.750			
0.7341	46980.97	3.3010	3.3011	-0.4066	8.01	2.02	-0.750			
0.7353	47057.05	3.2980	3.2979	-0.3972	8.02	2.03	-0.750			
0.7364	47131.39	3.2950	3.2948	-0.3892	8.03	2.04	-0.750			
0.7376	47205.63	3.2920	3.2922	-0.3828	8.04	2.05	-0.750			
0.7387	47279.65	3.2890	3.2890	-0.3802	8.05	2.06	-0.750			
0.7399	47353.11	3.2860	3.2860	-0.3744	8.07	2.08	-0.750			
0.7410	47424.55	3.2830	3.2829	-0.3661	8.08	2.09	-0.750			
0.7421	47493.14	3.2800	3.2801	-0.3587	8.08	2.09	-0.750			
0.7431	47561.48	3.2770	3.2770	-0.3527	8.09	2.10	-0.750			
0.7442	47628.70	3.2740	3.2740	-0.3447	8.10	2.11	-0.750			
0.7452	47694.83	3.2710	3.2708	-0.3368	8.11	2.12	-0.750			
0.7462	47757.97	3.2680	3.2683	-0.3300	8.12	2.13	-0.750			
0.7472	47820.46	3.2650	3.2650	-0.3244	8.13	2.14	-0.750			
0.7482	47882.02	3.2620	3.2619	-0.3176	8.14	2.15	-0.750			
0.7491	47942.00	3.2590	3.2589	-0.3087	8.15	2.16	-0.750			
0.7500	48001.45	3.2560	3.2561	-0.3064	8.16	2.17	-0.750			
0.7509	48059.48	3.2530	3.2531	-0.2999	8.16	2.17	-0.750			
0.7518	48116.33	3.2500	3.2500	-0.2951	8.17	2.18	-0.750			
0.7527	48172.02	3.2470	3.2470	-0.2885	8.18	2.19	-0.750			
0.7535	48226.50	3.2440	3.2440	-0.2833	8.19	2.20	-0.750			
0.7544	48281.05	3.2410	3.2410	-0.2784	8.20	2.21	-0.750			
0.7552	48334.47	3.2380	3.2381	-0.2757	8.20	2.21	-0.750			
0.7560	48386.11	3.2350	3.2350	-0.2696	8.21	2.22	-0.750			
0.7568	48437.85	3.2320	3.2319	-0.2654	8.22	2.23	-0.750			
0.7576	48488.56	3.2290	3.2289	-0.2601	8.23	2.24	-0.750			
0.7584	48537.96	3.2260	3.2261	-0.2557	8.23	2.24	-0.750			
0.7592	48586.60	3.2230	3.2230	-0.2522	8.24	2.25	-0.750			
0.7599	48634.10	3.2200	3.2200	-0.2489	8.24	2.25	-0.750			
0.7606	48680.87	3.2170	3.2169	-0.2445	8.25	2.26	-0.750			
0.7614	48727.88	3.2140	3.2140	-0.2431	8.26	2.27	-0.750			
0.7621	48775.09	3.2110	3.2109	-0.2399	8.27	2.28	-0.750			
0.7628	48821.14	3.2080	3.2081	-0.2367	8.28	2.29	-0.750			
0.7635	48866.66	3.2050	3.2050	-0.2336	8.28	2.29	-0.750			
0.7642	48910.94	3.2020	3.2021	-0.2293	8.29	2.30	-0.750			
0.7649	48954.06	3.1990	3.1989	-0.2256	8.30	2.31	-0.750			
0.7656	48996.50	3.1960	3.1960	-0.2219	8.31	2.32	-0.750			
0.7662	49038.84	3.1930	3.1930	-0.2191	8.31	2.32	-0.750			
0.7669	49080.57	3.1900	3.1900	-0.2165	8.32	2.33	-0.750			
0.7675	49122.42	3.1870	3.1871	-0.2149	8.33	2.34	-0.750			
0.7682	49163.38	3.1840	3.1840	-0.2117	8.34	2.35	-0.750			
0.7688	49203.61	3.1810	3.1810	-0.2084	8.34	2.35	-0.750			
0.7694	49243.67	3.1780	3.1780	-0.2049	8.35	2.36	-0.750			
0.7700	49282.39	3.1750	3.1750	-0.2015	8.36	2.37	-0.750			
0.7706	49320.57	3.1720	3.1720	-0.1991	8.37	2.38	-0.750			
0.7712	49358.49	3.1690	3.1691	-0.1964	8.38	2.39	-0.750			
0.7718	49395.51	3.1660	3.1660	-0.1942	8.39	2.40	-0.750			
0.7724	49432.53	3.1630	3.1629	-0.1925	8.39	2.40	-0.750			
0.7730	49469.46	3.1600	3.1601	-0.1913	8.40	2.41	-0.750			
0.7735	49506.09	3.1570	3.1571	-0.1902	8.41	2.42	-0.750			
0.7741	49543.06	3.1540	3.1540	-0.1878	8.41	2.42	-0.750			
0.7747	49578.88	3.1510	3.1509	-0.1855	8.42	2.43	-0.750			
0.7752	49614.31	3.1480	3.1481	-0.1828	8.43	2.44	-0.750			
0.7758	49649.13	3.1450	3.1450	-0.1797	8.43	2.44	-0.750			
0.7763	49683.11	3.1420	3.1419	-0.1776	8.44	2.45	-0.750			
0.7768	49716.57	3.1390	3.1391	-0.1758	8.45	2.46	-0.750			
0.7773	49750.23	3.1360	3.1360	-0.1748	8.45	2.46	-0.750			
0.7779	49783.32	3.1330	3.1330	-0.1738	8.46	2.47	-0.750			
0.7784	49816.94	3.1300	3.1300	-0.1729	8.46	2.47	-0.750			
0.7789	49850.12	3.1270	3.1271	-0.1712	8.47	2.48	-0.750			
0.7794	49882.84	3.1240	3.1240	-0.1697	8.48	2.49	-0.750			
0.7799	49915.65	3.1210	3.1210	-0.1683	8.48	2.49	-0.750			
0.7804	49947.73	3.1180	3.1180	-0.1662	8.49	2.50	-0.750			
0.7809	49979.27	3.1150	3.1150	-0.1641	8.49	2.50	-0.750			
0.7814	50010.62	3.1120	3.1120	-0.1625	8.50	2.51	-0.750			
0.7819	50041.53	3.1090	3.1089	-0.1610	8.51	2.52	-0.750			
0.7824	50072.41	3.1060	3.1060	-0.1594	8.51	2.52	-0.750			
0.7829	50102.93	3.1030	3.1030	-0.1579	8.52	2.53	-0.750			
0.7833	50133.13	3.1000	3.1001	-0.1556	8.53	2.54	-0.750			
0.7838	50162.57	3.0970	3.0971	-0.1546	8.53	2.54	-0.750			
0.7843	50192.01	3.0940	3.0941	-0.1536	8.54	2.55	-0.750			
0.7847	50221.21	3.0910	3.0909	-0.1524	8.55	2.56	-0.750			
0.7852	50250.40	3.0880	3.0879	-0.1519	8.55	2.56	-0.750			
0.7856	50279.55	3.0850	3.0850	-0.1504	8.56	2.57	-0.750			
0.7861	50308.77	3.0820	3.0820	-0.1494	8.57	2.58	-0.750			
0.7865	50337.28	3.0790	3.0790	-0.1476	8.57	2.58	-0.750			
0.7870	50365.70	3.0760	3.0761	-0.1464	8.58	2.59	-0.750			
0.7874	50393.18	3.0730	3.0731	-0.1447	8.59	2.60	-0.750			
0.7878	50420.74	3.0700	3.0699	-0.1435	8.59	2.60	-0.750			
0.7883	50448.21	3.0670	3.0670	-0.1427	8.60	2.61	-0.750			
0.7887	50475.36	3.0640	3.0640	-0.1416	8.61	2.62	-0.750			
0.7891	50502.58	3.0610	3.0610	-0.1413	8.61	2.62	-0.750			
0.7895	50529.95	3.0580	3.0580	-0.1405	8.62	2.63	-0.750			
0.7899	50556.79	3.0550	3.0550	-0.1391	8.63	2.64	-0.750			
0.7904	50583.46	3.0520	3.0519	-0.1372	8.63	2.64	-0.750			
0.7908	50609.42	3.0490	3.0491	-0.1362	8.64	2.65	-0.750			
0.7912	50635.46	3.0460	3.0461	-0.1350	8.65	2.66	-0.750			
0.7916	50661.15	3.0430	3.0429	-0.1348	8.65	2.66	-0.750			
0.7920	50686.76	3.0400	3.0399	-0.1341	8.66	2.67	-0.750			
0.7924	50712.33	3.0370	3.0370	-0.1334	8.66	2.67	-0.750			
0.7928	50737.96	3.0340	3.0341	-0.1336	8.67	2.68	-0.750			
0.7932	50763.98	3.0310	3.0310	-0.1326	8.68	2.69	-0.750			
0.7936	50789.78	3.0280	3.0280	-0.1315	8.68	2.69	-0.750			
0.7940	50814.83	3.0250	3.0250	-0.1295	8.69	2.70	-0.750			
0.7944	50839.38	3.0220	3.0220	-0.1283	8.69	2.70	-0.750			
0.7947	50863.81	3.0190	3.0190	-0.1269	8.70	2.71	-0.750			
0.7951	50887.75	3.0160	3.0160	-0.1265	8.70	2.71	-0.750			
0.7955	50911.60	3.0130	3.0129	-0.1259	8.71	2.72	-0.750			
0.7959	50935.83	3.0100	3.0100	-0.1264	8.71	2.72	-0.750			
0.7963	50960.06	3.0070	3.0069	-0.1274	8.72	2.73	-0.750			
0.7966	50984.60	3.0040	3.0040	-0.1281	8.73	2.74	-0.750			
