Ah_balance (normalized)	Ah_balance (mAh)	Voltage - fit (V)	Voltage -  interpolate (V)	dQ/dV (1/V)	Temperature (°C)	Temperature - diff (°C)	Current (C)	R_DC 0ms (mOhm)	R_DC 50ms (mOhm)	R_DC 50 ms PEC (mOhm)
0.0000	0.00	4.1050	4.1266	0.0000	5.99	0.00	-0.750			
0.0001	7.41	4.1020	4.1015	-0.0149	5.99	0.00	-0.750			
0.0002	13.53	4.0990	4.0988	-0.0489	5.99	0.00	-0.750			
0.0005	28.96	4.0960	4.0955	-0.0797	5.99	0.00	-0.750			
0.0007	47.66	4.0930	4.0927	-0.1067	5.99	0.00	-0.750			
0.0011	71.34	4.0900	4.0900	-0.1321	5.99	0.00	-0.750			
0.0016	99.21	4.0870	4.0872	-0.1582	5.99	0.00	-0.750			
0.0021	132.06	4.0840	4.0841	-0.1810	5.99	0.00	-0.750			
0.0027	171.18	4.0810	4.0809	-0.2055	5.99	0.00	-0.750			
0.0033	212.86	4.0780	4.0781	-0.2247	5.99	0.00	-0.750			
0.0040	257.61	4.0750	4.0750	-0.2470	5.99	0.00	-0.750			
0.0048	307.13	4.0720	4.0720	-0.2692	5.99	0.00	-0.750			
0.0056	360.60	4.0690	4.0690	-0.2911	5.99	0.00	-0.750			
0.0065	418.74	4.0660	4.0660	-0.3126	5.99	0.00	-0.750			
0.0075	480.85	4.0630	4.0630	-0.3356	5.99	0.00	-0.750			
0.0086	547.57	4.0600	4.0601	-0.3582	5.99	0.00	-0.750			
0.0097	619.24	4.0570	4.0569	-0.3790	5.99	0.00	-0.750			
0.0108	693.28	4.0540	4.0540	-0.4000	5.99	0.00	-0.750			
0.0121	772.24	4.0510	4.0511	-0.4234	5.99	0.00	-0.750			
0.0134	856.14	4.0480	4.0479	-0.4451	5.99	0.00	-0.750			
0.0148	944.50	4.0450	4.0449	-0.4658	5.99	0.00	-0.750			
0.0162	1036.09	4.0420	4.0422	-0.4814	5.99	0.00	-0.750			
0.0177	1130.93	4.0390	4.0390	-0.4997	5.99	0.00	-0.750			
0.0192	1228.19	4.0360	4.0360	-0.5171	5.99	0.00	-0.750			
0.0207	1327.43	4.0330	4.0329	-0.5319	5.99	0.00	-0.750			
0.0224	1430.62	4.0300	4.0300	-0.5518	6.00	0.01	-0.750			
0.0240	1538.83	4.0270	4.0270	-0.5726	6.00	0.01	-0.750			
0.0258	1653.45	4.0240	4.0240	-0.5872	6.00	0.01	-0.750			
0.0276	1768.58	4.0210	4.0210	-0.5998	6.01	0.02	-0.750			
0.0295	1885.04	4.0180	4.0180	-0.6123	6.01	0.02	-0.750			
0.0313	2004.03	4.0150	4.0151	-0.6200	6.01	0.02	-0.750			
0.0332	2123.49	4.0120	4.0119	-0.6273	6.02	0.03	-0.750			
0.0351	2244.55	4.0090	4.0090	-0.6325	6.02	0.03	-0.750			
0.0370	2367.01	4.0060	4.0060	-0.6444	6.03	0.04	-0.750			
0.0390	2493.07	4.0030	4.0030	-0.6486	6.03	0.04	-0.750			
0.0409	2618.09	4.0000	3.9999	-0.6544	6.04	0.05	-0.750			
0.0429	2743.86	3.9970	3.9974	-0.6593	6.04	0.05	-0.750			
0.0449	2870.76	3.9940	3.9938	-0.6680	6.05	0.06	-0.750			
0.0468	2998.28	3.9910	3.9910	-0.6816	6.05	0.06	-0.750			
0.0489	3130.64	3.9880	3.9880	-0.6880	6.06	0.07	-0.750			
0.0511	3267.52	3.9850	3.9848	-0.6946	6.07	0.08	-0.750			
0.0531	3401.13	3.9820	3.9822	-0.7004	6.07	0.08	-0.750			
0.0552	3534.79	3.9790	3.9791	-0.7037	6.08	0.09	-0.750			
0.0573	3669.98	3.9760	3.9758	-0.7124	6.09	0.10	-0.750			
0.0595	3805.46	3.9730	3.9731	-0.7131	6.09	0.10	-0.750			
0.0616	3943.53	3.9700	3.9700	-0.7153	6.10	0.11	-0.750			
0.0638	4084.01	3.9670	3.9672	-0.7188	6.11	0.12	-0.750			
0.0660	4225.13	3.9640	3.9640	-0.7204	6.11	0.12	-0.750			
0.0681	4359.46	3.9610	3.9611	-0.7213	6.12	0.13	-0.750			
0.0703	4496.21	3.9580	3.9579	-0.7250	6.13	0.14	-0.750			
0.0724	4634.82	3.9550	3.9550	-0.7342	6.14	0.15	-0.750			
0.0747	4778.46	3.9520	3.9520	-0.7392	6.15	0.16	-0.750			
0.0769	4922.60	3.9490	3.9491	-0.7508	6.16	0.17	-0.750			
0.0792	5068.78	3.9460	3.9459	-0.7484	6.17	0.18	-0.750			
0.0814	5212.55	3.9430	3.9429	-0.7501	6.17	0.18	-0.750			
0.0837	5354.42	3.9400	3.9400	-0.7527	6.18	0.19	-0.750			
0.0859	5498.97	3.9370	3.9370	-0.7559	6.19	0.20	-0.750			
0.0882	5645.91	3.9340	3.9338	-0.7520	6.20	0.21	-0.750			
0.0905	5792.94	3.9310	3.9310	-0.7550	6.21	0.22	-0.750			
0.0928	5936.67	3.9280	3.9282	-0.7542	6.22	0.23	-0.750			
0.0950	6082.57	3.9250	3.9249	-0.7537	6.23	0.24	-0.750			
0.0973	6225.17	3.9220	3.9219	-0.7487	6.23	0.24	-0.750			
0.0995	6369.12	3.9190	3.9190	-0.7453	6.24	0.25	-0.750			
0.1018	6512.96	3.9160	3.9160	-0.7510	6.25	0.26	-0.750			
0.1040	6655.89	3.9130	3.9130	-0.7513	6.26	0.27	-0.750			
0.1062	6798.09	3.9100	3.9099	-0.7532	6.26	0.27	-0.750			
0.1085	6941.59	3.9070	3.9070	-0.7590	6.27	0.28	-0.750			
0.1108	7088.36	3.9040	3.9039	-0.7697	6.29	0.30	-0.750			
0.1131	7238.51	3.9010	3.9011	-0.7779	6.30	0.31	-0.750			
0.1155	7392.38	3.8980	3.8979	-0.7843	6.31	0.32	-0.750			
0.1179	7543.43	3.8950	3.8951	-0.7814	6.32	0.33	-0.750			
0.1202	7694.39	3.8920	3.8920	-0.7771	6.33	0.34	-0.750			
0.1225	7839.62	3.8890	3.8891	-0.7777	6.33	0.34	-0.750			
0.1248	7989.48	3.8860	3.8859	-0.7783	6.34	0.35	-0.750			
0.1271	8137.10	3.8830	3.8829	-0.7772	6.35	0.36	-0.750			
0.1295	8287.63	3.8800	3.8801	-0.7791	6.36	0.37	-0.750			
0.1318	8438.20	3.8770	3.8770	-0.7848	6.37	0.38	-0.750			
0.1342	8588.06	3.8740	3.8739	-0.7863	6.38	0.39	-0.750			
0.1366	8739.45	3.8710	3.8711	-0.7821	6.39	0.40	-0.750			
0.1389	8888.01	3.8680	3.8679	-0.7778	6.40	0.41	-0.750			
0.1412	9039.47	3.8650	3.8651	-0.7840	6.41	0.42	-0.750			
0.1436	9189.99	3.8620	3.8621	-0.7822	6.42	0.43	-0.750			
0.1459	9339.24	3.8590	3.8590	-0.7857	6.43	0.44	-0.750			
0.1483	9489.15	3.8560	3.8560	-0.7866	6.44	0.45	-0.750			
0.1506	9638.98	3.8530	3.8531	-0.7906	6.45	0.46	-0.750			
0.1530	9792.86	3.8500	3.8500	-0.8002	6.46	0.47	-0.750			
0.1554	9946.69	3.8470	3.8471	-0.8053	6.47	0.48	-0.750			
0.1578	10102.07	3.8440	3.8440	-0.8063	6.48	0.49	-0.750			
0.1603	10259.20	3.8410	3.8410	-0.8099	6.49	0.50	-0.750			
0.1627	10414.81	3.8380	3.8380	-0.8057	6.51	0.52	-0.750			
0.1651	10569.53	3.8350	3.8349	-0.8038	6.52	0.53	-0.750			
0.1675	10722.70	3.8320	3.8322	-0.8019	6.53	0.54	-0.750			
0.1699	10875.94	3.8290	3.8289	-0.8051	6.54	0.55	-0.750			
0.1723	11029.50	3.8260	3.8260	-0.8088	6.55	0.56	-0.750			
0.1748	11185.60	3.8230	3.8229	-0.8142	6.56	0.57	-0.750			
0.1772	11342.62	3.8200	3.8200	-0.8127	6.57	0.58	-0.750			
0.1797	11501.82	3.8170	3.8171	-0.8160	6.58	0.59	-0.750			
0.1822	11658.83	3.8140	3.8140	-0.8116	6.59	0.60	-0.750			
0.1846	11813.28	3.8110	3.8110	-0.8122	6.60	0.61	-0.750			
0.1870	11968.00	3.8080	3.8079	-0.8150	6.61	0.62	-0.750			
0.1894	12123.54	3.8050	3.8050	-0.8130	6.62	0.63	-0.750			
0.1919	12281.92	3.8020	3.8019	-0.8087	6.64	0.65	-0.750			
0.1943	12436.86	3.7990	3.7991	-0.8106	6.65	0.66	-0.750			
0.1967	12591.41	3.7960	3.7961	-0.8148	6.66	0.67	-0.750			
0.1992	12746.33	3.7930	3.7928	-0.8188	6.67	0.68	-0.750			
0.2016	12901.02	3.7900	3.7900	-0.8241	6.67	0.68	-0.750			
0.2041	13062.48	3.7870	3.7871	-0.8335	6.68	0.69	-0.750			
0.2067	13227.13	3.7840	3.7838	-0.8405	6.70	0.71	-0.750			
0.2092	13390.36	3.7810	3.7811	-0.8376	6.71	0.72	-0.750			
0.2117	13550.86	3.7780	3.7781	-0.8258	6.72	0.73	-0.750			
0.2142	13708.48	3.7750	3.7750	-0.8211	6.73	0.74	-0.750			
0.2166	13863.96	3.7720	3.7718	-0.8232	6.73	0.74	-0.750			
0.2190	14016.87	3.7690	3.7689	-0.8231	6.75	0.76	-0.750			
0.2215	14175.08	3.7660	3.7660	-0.8376	6.76	0.77	-0.750			
0.2241	14339.49	3.7630	3.7631	-0.8460	6.77	0.78	-0.750			
0.2266	14503.27	3.7600	3.7600	-0.8506	6.78	0.79	-0.750			
0.2292	14670.18	3.7570	3.7569	-0.8535	6.79	0.80	-0.750			
0.2318	14833.59	3.7540	3.7539	-0.8487	6.81	0.82	-0.750			
0.2343	14995.70	3.7510	3.7510	-0.8514	6.82	0.83	-0.750			
0.2368	15158.19	3.7480	3.7479	-0.8493	6.83	0.84	-0.750			
0.2394	15322.26	3.7450	3.7449	-0.8440	6.84	0.85	-0.750			
0.2420	15485.69	3.7420	3.7421	-0.8503	6.85	0.86	-0.750			
0.2445	15648.75	3.7390	3.7389	-0.8504	6.86	0.87	-0.750			
0.2471	15811.66	3.7360	3.7360	-0.8582	6.87	0.88	-0.750			
0.2496	15975.71	3.7330	3.7328	-0.8568	6.88	0.89	-0.750			
0.2522	16139.96	3.7300	3.7300	-0.8610	6.89	0.90	-0.750			
0.2548	16307.45	3.7270	3.7269	-0.8675	6.90	0.91	-0.750			
0.2574	16475.39	3.7240	3.7239	-0.8709	6.91	0.92	-0.750			
0.2600	16642.88	3.7210	3.7209	-0.8786	6.91	0.92	-0.750			
0.2627	16811.50	3.7180	3.7180	-0.8772	6.92	0.93	-0.750			
0.2653	16978.35	3.7150	3.7151	-0.8790	6.93	0.94	-0.750			
0.2680	17150.83	3.7120	3.7123	-0.8873	6.94	0.95	-0.750			
0.2706	17319.90	3.7090	3.7090	-0.8888	6.95	0.96	-0.750			
0.2733	17491.05	3.7060	3.7059	-0.8864	6.96	0.97	-0.750			
0.2759	17660.29	3.7030	3.7030	-0.8871	6.97	0.98	-0.750			
0.2786	17829.96	3.7000	3.7001	-0.8963	6.98	0.99	-0.750			
0.2813	18001.65	3.6970	3.6971	-0.9061	6.99	1.00	-0.750			
0.2840	18174.40	3.6940	3.6940	-0.9174	7.00	1.01	-0.750			
0.2868	18353.88	3.6910	3.6909	-0.9297	7.01	1.02	-0.750			
0.2896	18534.55	3.6880	3.6880	-0.9341	7.01	1.02	-0.750			
0.2925	18717.01	3.6850	3.6851	-0.9418	7.02	1.03	-0.750			
0.2953	18897.96	3.6820	3.6820	-0.9426	7.03	1.04	-0.750			
0.2981	19077.73	3.6790	3.6788	-0.9401	7.04	1.05	-0.750			
0.3009	19255.32	3.6760	3.6761	-0.9389	7.05	1.06	-0.750			
0.3037	19436.18	3.6730	3.6729	-0.9436	7.05	1.06	-0.750			
0.3066	19619.21	3.6700	3.6699	-0.9563	7.06	1.07	-0.750			
0.3094	19802.50	3.6670	3.6670	-0.9752	7.07	1.08	-0.750			
0.3124	19990.81	3.6640	3.6640	-0.9819	7.08	1.09	-0.750			
0.3153	20180.89	3.6610	3.6608	-0.9921	7.08	1.09	-0.750			
0.3184	20375.38	3.6580	3.6582	-0.9977	7.09	1.10	-0.750			
0.3214	20568.87	3.6550	3.6549	-1.0039	7.10	1.11	-0.750			
0.3244	20760.44	3.6520	3.6520	-1.0083	7.11	1.12	-0.750			
0.3274	20952.82	3.6490	3.6490	-1.0052	7.12	1.13	-0.750			
0.3304	21144.63	3.6460	3.6464	-1.0135	7.13	1.14	-0.750			
0.3335	21340.92	3.6430	3.6429	-1.0231	7.14	1.15	-0.750			
0.3365	21537.24	3.6400	3.6401	-1.0234	7.14	1.15	-0.750			
0.3396	21734.46	3.6370	3.6368	-1.0311	7.15	1.16	-0.750			
0.3427	21933.09	3.6340	3.6343	-1.0463	7.16	1.17	-0.750			
0.3458	22133.09	3.6310	3.6309	-1.0510	7.16	1.17	-0.750			
0.3490	22335.13	3.6280	3.6280	-1.0660	7.17	1.18	-0.750			
0.3522	22541.38	3.6250	3.6250	-1.0739	7.17	1.18	-0.750			
0.3554	22745.91	3.6220	3.6222	-1.0977	7.18	1.19	-0.750			
0.3588	22962.20	3.6190	3.6189	-1.1086	7.19	1.20	-0.750			
0.3621	23176.01	3.6160	3.6160	-1.1166	7.20	1.21	-0.750			
0.3655	23392.65	3.6130	3.6129	-1.1193	7.20	1.21	-0.750			
0.3689	23609.21	3.6100	3.6101	-1.1287	7.21	1.22	-0.750			
0.3723	23825.22	3.6070	3.6069	-1.1302	7.22	1.23	-0.750			
0.3757	24041.87	3.6040	3.6040	-1.1340	7.22	1.23	-0.750			
0.3790	24256.86	3.6010	3.6010	-1.1488	7.23	1.24	-0.750			
0.3826	24484.08	3.5980	3.5978	-1.1714	7.23	1.24	-0.750			
0.3861	24711.68	3.5950	3.5948	-1.1778	7.24	1.25	-0.750			
0.3897	24939.57	3.5920	3.5921	-1.1840	7.24	1.25	-0.750	0.431	0.870	
0.3932	25167.01	3.5890	3.5892	-1.1884	7.25	1.26	-0.750			
0.3968	25397.37	3.5860	3.5859	-1.1884	7.26	1.27	-0.750			
0.4003	25619.76	3.5830	3.5830	-1.1896	7.27	1.28	-0.750			
0.4039	25850.03	3.5800	3.5800	-1.2121	7.28	1.29	-0.750			
0.4076	26086.18	3.5770	3.5769	-1.2303	7.28	1.29	-0.750			
0.4113	26323.76	3.5740	3.5739	-1.2301	7.29	1.30	-0.750			
0.4150	26561.40	3.5710	3.5710	-1.2374	7.30	1.31	-0.750			
0.4187	26797.29	3.5680	3.5682	-1.2613	7.30	1.31	-0.750			
0.4226	27043.34	3.5650	3.5649	-1.2799	7.31	1.32	-0.750			
0.4264	27290.07	3.5620	3.5618	-1.2824	7.31	1.32	-0.750			
0.4303	27537.55	3.5590	3.5593	-1.2971	7.32	1.33	-0.750			
0.4342	27791.21	3.5560	3.5559	-1.3111	7.33	1.34	-0.750			
0.4382	28045.49	3.5530	3.5531	-1.3181	7.33	1.34	-0.750			
0.4421	28297.51	3.5500	3.5500	-1.3257	7.34	1.35	-0.750			
0.4462	28554.29	3.5470	3.5469	-1.3296	7.35	1.36	-0.750			
0.4502	28811.47	3.5440	3.5440	-1.3261	7.35	1.36	-0.750			
0.4541	29065.02	3.5410	3.5411	-1.3343	7.36	1.37	-0.750			
0.4581	29318.80	3.5380	3.5379	-1.3295	7.36	1.37	-0.750			
0.4621	29573.40	3.5350	3.5348	-1.3400	7.37	1.38	-0.750			
0.4661	29828.94	3.5320	3.5320	-1.3503	7.38	1.39	-0.750			
0.4701	30088.74	3.5290	3.5290	-1.3529	7.38	1.39	-0.750			
0.4743	30356.75	3.5260	3.5260	-1.3754	7.39	1.40	-0.750			
0.4784	30620.32	3.5230	3.5230	-1.3860	7.40	1.41	-0.750			
0.4826	30885.81	3.5200	3.5201	-1.3784	7.40	1.41	-0.750			
0.4868	31154.33	3.5170	3.5169	-1.3798	7.41	1.42	-0.750			
0.4909	31415.71	3.5140	3.5140	-1.3843	7.42	1.43	-0.750			
0.4950	31682.25	3.5110	3.5109	-1.3873	7.42	1.43	-0.750			
0.4992	31949.98	3.5080	3.5079	-1.3919	7.43	1.44	-0.750			
0.5034	32218.28	3.5050	3.5048	-1.3806	7.44	1.45	-0.750			
0.5076	32483.26	3.5020	3.5021	-1.3712	7.45	1.46	-0.750			
0.5117	32750.28	3.4990	3.4990	-1.3671	7.46	1.47	-0.750			
0.5157	33007.97	3.4960	3.4960	-1.3671	7.46	1.47	-0.750			
0.5198	33266.57	3.4930	3.4929	-1.3481	7.47	1.48	-0.750			
0.5239	33528.80	3.4900	3.4900	-1.3473	7.48	1.49	-0.750			
0.5279	33786.61	3.4870	3.4870	-1.3494	7.49	1.50	-0.750			
0.5320	34046.22	3.4840	3.4841	-1.3551	7.49	1.50	-0.750			
0.5360	34306.37	3.4810	3.4809	-1.3553	7.50	1.51	-0.750			
0.5401	34565.24	3.4780	3.4779	-1.3514	7.51	1.52	-0.750			
0.5442	34827.05	3.4750	3.4750	-1.3434	7.52	1.53	-0.750			
0.5483	35092.18	3.4720	3.4719	-1.3355	7.53	1.54	-0.750			
0.5524	35350.50	3.4690	3.4689	-1.3213	7.54	1.55	-0.750			
0.5562	35599.59	3.4660	3.4662	-1.2976	7.55	1.56	-0.750			
0.5600	35843.00	3.4630	3.4629	-1.2814	7.56	1.57	-0.750			
0.5638	36085.88	3.4600	3.4599	-1.2742	7.57	1.58	-0.750			
0.5675	36322.16	3.4570	3.4570	-1.2712	7.58	1.59	-0.750			
0.5715	36574.95	3.4540	3.4539	-1.2831	7.59	1.60	-0.750			
0.5754	36824.42	3.4510	3.4509	-1.2711	7.60	1.61	-0.750			
0.5792	37068.63	3.4480	3.4482	-1.2560	7.61	1.62	-0.750			
0.5830	37309.91	3.4450	3.4451	-1.2583	7.62	1.63	-0.750			
0.5867	37547.24	3.4420	3.4418	-1.2442	7.63	1.64	-0.750			
0.5904	37785.53	3.4390	3.4389	-1.2266	7.64	1.65	-0.750			
0.5940	38016.55	3.4360	3.4361	-1.2125	7.65	1.66	-0.750			
0.5978	38257.38	3.4330	3.4330	-1.2124	7.67	1.68	-0.750			
0.6014	38488.21	3.4300	3.4299	-1.1899	7.68	1.69	-0.750			
0.6049	38712.35	3.4270	3.4270	-1.1588	7.69	1.70	-0.750			
0.6083	38932.58	3.4240	3.4240	-1.1473	7.70	1.71	-0.750			
0.6118	39152.64	3.4210	3.4209	-1.1234	7.71	1.72	-0.750			
0.6151	39368.25	3.4180	3.4179	-1.1019	7.72	1.73	-0.750			
0.6184	39574.60	3.4150	3.4152	-1.0733	7.73	1.74	-0.750			
0.6216	39781.75	3.4120	3.4120	-1.0528	7.74	1.75	-0.750			
0.6247	39977.87	3.4090	3.4090	-1.0374	7.75	1.76	-0.750			
0.6277	40172.14	3.4060	3.4058	-1.0182	7.76	1.77	-0.750			
0.6307	40366.31	3.4030	3.4032	-1.0069	7.77	1.78	-0.750			
0.6338	40560.97	3.4000	3.3999	-0.9982	7.78	1.79	-0.750			
0.6368	40754.74	3.3970	3.3971	-0.9821	7.80	1.81	-0.750			
0.6397	40943.65	3.3940	3.3940	-0.9563	7.81	1.82	-0.750			
0.6426	41125.32	3.3910	3.3912	-0.9317	7.82	1.83	-0.750			
0.6453	41299.48	3.3880	3.3879	-0.9025	7.83	1.84	-0.750			
0.6480	41469.19	3.3850	3.3850	-0.8787	7.84	1.85	-0.750			
0.6505	41632.94	3.3820	3.3820	-0.8587	7.86	1.87	-0.750			
0.6530	41795.07	3.3790	3.3790	-0.8391	7.87	1.88	-0.750			
0.6556	41956.91	3.3760	3.3761	-0.8216	7.88	1.89	-0.750			
0.6580	42112.75	3.3730	3.3730	-0.8016	7.89	1.90	-0.750			
0.6604	42264.55	3.3700	3.3701	-0.7852	7.90	1.91	-0.750			
0.6627	42414.11	3.3670	3.3669	-0.7671	7.92	1.93	-0.750			
0.6650	42560.69	3.3640	3.3640	-0.7465	7.93	1.94	-0.750			
0.6672	42701.20	3.3610	3.3610	-0.7233	7.94	1.95	-0.750			
0.6693	42837.89	3.3580	3.3580	-0.7113	7.95	1.96	-0.750			
0.6714	42972.58	3.3550	3.3550	-0.6953	7.96	1.97	-0.750			
0.6735	43102.20	3.3520	3.3519	-0.6766	7.97	1.98	-0.750			
0.6755	43230.80	3.3490	3.3490	-0.6591	7.98	1.99	-0.750			
0.6775	43357.89	3.3460	3.3461	-0.6472	7.99	2.00	-0.750			
0.6794	43480.48	3.3430	3.3429	-0.6349	8.00	2.01	-0.750			
0.6813	43600.77	3.3400	3.3399	-0.6190	8.02	2.03	-0.750			
0.6831	43717.14	3.3370	3.3370	-0.6032	8.03	2.04	-0.750			
0.6849	43831.93	3.3340	3.3340	-0.5907	8.04	2.05	-0.750			
0.6866	43944.43	3.3310	3.3310	-0.5744	8.05	2.06	-0.750			
0.6884	44054.93	3.3280	3.3280	-0.5613	8.06	2.07	-0.750			
0.6900	44160.47	3.3250	3.3250	-0.5455	8.07	2.08	-0.750			
0.6916	44262.56	3.3220	3.3220	-0.5318	8.08	2.09	-0.750			
0.6932	44362.03	3.3190	3.3190	-0.5245	8.09	2.10	-0.750			
0.6947	44461.92	3.3160	3.3160	-0.5163	8.10	2.11	-0.750			
0.6963	44560.85	3.3130	3.3129	-0.5070	8.11	2.12	-0.750			
0.6978	44658.40	3.3100	3.3100	-0.4968	8.12	2.13	-0.750			
0.6993	44753.89	3.3070	3.3071	-0.4848	8.13	2.14	-0.750			
0.7007	44845.26	3.3040	3.3040	-0.4725	8.14	2.15	-0.750			
0.7021	44933.62	3.3010	3.3010	-0.4594	8.15	2.16	-0.750			
0.7034	45020.08	3.2980	3.2979	-0.4482	8.16	2.17	-0.750			
0.7048	45105.15	3.2950	3.2950	-0.4408	8.17	2.18	-0.750			
0.7061	45189.18	3.2920	3.2920	-0.4317	8.18	2.19	-0.750			
0.7074	45271.20	3.2890	3.2890	-0.4262	8.19	2.20	-0.750			
0.7086	45352.30	3.2860	3.2861	-0.4182	8.20	2.21	-0.750			
0.7099	45430.81	3.2830	3.2830	-0.4107	8.21	2.22	-0.750			
0.7111	45509.73	3.2800	3.2800	-0.4050	8.22	2.23	-0.750			
0.7123	45587.13	3.2770	3.2770	-0.3983	8.23	2.24	-0.750			
0.7135	45662.52	3.2740	3.2740	-0.3937	8.24	2.25	-0.750			
0.7147	45738.37	3.2710	3.2710	-0.3882	8.26	2.27	-0.750			
0.7158	45812.05	3.2680	3.2680	-0.3798	8.27	2.28	-0.750			
0.7169	45884.62	3.2650	3.2650	-0.3735	8.28	2.29	-0.750			
0.7180	45955.06	3.2620	3.2620	-0.3669	8.29	2.30	-0.750			
0.7191	46024.70	3.2590	3.2590	-0.3624	8.30	2.31	-0.750			
0.7202	46093.44	3.2560	3.2560	-0.3565	8.31	2.32	-0.750			
0.7213	46160.86	3.2530	3.2529	-0.3496	8.32	2.33	-0.750			
0.7223	46228.62	3.2500	3.2501	-0.3475	8.33	2.34	-0.750			
0.7234	46295.10	3.2470	3.2470	-0.3423	8.34	2.35	-0.750			
0.7244	46360.92	3.2440	3.2439	-0.3354	8.35	2.36	-0.750			
0.7254	46424.59	3.2410	3.2410	-0.3277	8.36	2.37	-0.750			
0.7263	46485.73	3.2380	3.2380	-0.3209	8.37	2.38	-0.750			
0.7273	46546.89	3.2350	3.2351	-0.3158	8.37	2.38	-0.750			
0.7282	46606.64	3.2320	3.2319	-0.3105	8.38	2.39	-0.750			
0.7291	46665.32	3.2290	3.2290	-0.3044	8.39	2.40	-0.750			
0.7301	46724.07	3.2260	3.2260	-0.2997	8.40	2.41	-0.750			
0.7310	46780.99	3.2230	3.2230	-0.2965	8.40	2.41	-0.750			
0.7318	46837.59	3.2200	3.2200	-0.2918	8.41	2.42	-0.750			
0.7327	46893.08	3.2170	3.2170	-0.2868	8.42	2.43	-0.750			
0.7336	46947.39	3.2140	3.2140	-0.2827	8.43	2.44	-0.750			
0.7344	47001.40	3.2110	3.2111	-0.2793	8.44	2.45	-0.750			
0.7352	47055.06	3.2080	3.2080	-0.2758	8.45	2.46	-0.750			
0.7361	47107.67	3.2050	3.2051	-0.2732	8.46	2.47	-0.750			
0.7369	47159.25	3.2020	3.2020	-0.2683	8.46	2.47	-0.750			
0.7377	47210.41	3.1990	3.1990	-0.2662	8.47	2.48	-0.750			
0.7385	47261.34	3.1960	3.1960	-0.2637	8.48	2.49	-0.750			
0.7392	47311.18	3.1930	3.1931	-0.2621	8.49	2.50	-0.750			
0.7400	47361.28	3.1900	3.1902	-0.2610	8.50	2.51	-0.750			
0.7408	47411.59	3.1870	3.1869	-0.2579	8.51	2.52	-0.750			
0.7416	47461.18	3.1840	3.1839	-0.2537	8.51	2.52	-0.750			
0.7423	47510.31	3.1810	3.1811	-0.2509	8.52	2.53	-0.750			
0.7431	47558.11	3.1780	3.1781	-0.2457	8.52	2.53	-0.750			
0.7438	47604.39	3.1750	3.1750	-0.2429	8.53	2.54	-0.750			
0.7445	47650.40	3.1720	3.1719	-0.2396	8.54	2.55	-0.750			
0.7452	47695.15	3.1690	3.1691	-0.2356	8.55	2.56	-0.750			
0.7459	47740.33	3.1660	3.1660	-0.2351	8.56	2.57	-0.750			
0.7467	47786.03	3.1630	3.1630	-0.2319	8.57	2.58	-0.750			
0.7474	47830.54	3.1600	3.1600	-0.2298	8.58	2.59	-0.750			
0.7480	47874.19	3.1570	3.1571	-0.2276	8.59	2.60	-0.750			
0.7487	47917.54	3.1540	3.1540	-0.2252	8.60	2.61	-0.750			
0.7494	47960.13	3.1510	3.1509	-0.2224	8.61	2.62	-0.750			
0.7500	48002.70	3.1480	3.1480	-0.2205	8.62	2.63	-0.750			
0.7507	48044.71	3.1450	3.1450	-0.2182	8.63	2.64	-0.750			
0.7514	48086.47	3.1420	3.1420	-0.2167	8.64	2.65	-0.750			
0.7520	48128.39	3.1390	3.1389	-0.2152	8.64	2.65	-0.750			
0.7526	48169.24	3.1360	3.1360	-0.2128	8.65	2.66	-0.750			
0.7533	48209.93	3.1330	3.1330	-0.2104	8.66	2.67	-0.750			
0.7539	48250.12	3.1300	3.1300	-0.2084	8.66	2.67	-0.750			
0.7545	48290.03	3.1270	3.1270	-0.2067	8.67	2.68	-0.750			
0.7552	48329.69	3.1240	3.1240	-0.2041	8.68	2.69	-0.750			
0.7558	48368.37	3.1210	3.1209	-0.2021	8.69	2.70	-0.750			
0.7564	48406.99	3.1180	3.1181	-0.2002	8.69	2.70	-0.750			
0.7570	48444.97	3.1150	3.1150	-0.1993	8.70	2.71	-0.750			
0.7576	48483.29	3.1120	3.1119	-0.1969	8.71	2.72	-0.750			
0.7581	48520.82	3.1090	3.1090	-0.1960	8.72	2.73	-0.750			
0.7587	48558.33	3.1060	3.1061	-0.1947	8.73	2.74	-0.750			
0.7593	48595.40	3.1030	3.1031	-0.1941	8.73	2.74	-0.750			
0.7599	48633.02	3.1000	3.0998	-0.1927	8.74	2.75	-0.750			
0.7605	48669.86	3.0970	3.0969	-0.1903	8.75	2.76	-0.750			
0.7610	48706.20	3.0940	3.0941	-0.1883	8.76	2.77	-0.750			
0.7616	48742.10	3.0910	3.0911	-0.1873	8.76	2.77	-0.750			
0.7622	48778.30	3.0880	3.0880	-0.1864	8.77	2.78	-0.750			
0.7627	48813.27	3.0850	3.0849	-0.1841	8.78	2.79	-0.750			
0.7633	48848.57	3.0820	3.0820	-0.1835	8.79	2.80	-0.750			
0.7638	48883.60	3.0790	3.0790	-0.1819	8.79	2.80	-0.750			
0.7644	48918.85	3.0760	3.0760	-0.1812	8.80	2.81	-0.750			
0.7649	48953.59	3.0730	3.0730	-0.1801	8.81	2.82	-0.750			
0.7654	48988.01	3.0700	3.0700	-0.1784	8.82	2.83	-0.750			
0.7660	49021.83	3.0670	3.0670	-0.1772	8.83	2.84	-0.750			
0.7665	49055.97	3.0640	3.0640	-0.1757	8.84	2.85	-0.750			
0.7670	49089.21	3.0610	3.0610	-0.1743	8.85	2.86	-0.750			
0.7675	49122.61	3.0580	3.0579	-0.1736	8.85	2.86	-0.750			
0.7681	49156.03	3.0550	3.0551	-0.1726	8.86	2.87	-0.750			
0.7686	49189.02	3.0520	3.0519	-0.1715	8.87	2.88	-0.750			
0.7691	49221.68	3.0490	3.0490	-0.1705	8.88	2.89	-0.750			
0.7696	49254.35	3.0460	3.0461	-0.1698	8.89	2.90	-0.750			
0.7701	49286.64	3.0430	3.0430	-0.1698	8.89	2.90	-0.750			
0.7706	49319.63	3.0400	3.0400	-0.1692	8.90	2.91	-0.750			
0.7711	49351.83	3.0370	3.0370	-0.1680	8.91	2.92	-0.750			
0.7716	49384.10	3.0340	3.0340	-0.1669	8.92	2.93	-0.750			
0.7721	49416.46	3.0310	3.0311	-0.1657	8.92	2.93	-0.750			
0.7726	49448.04	3.0280	3.0280	-0.1647	8.93	2.94	-0.750			
0.7731	49479.38	3.0250	3.0250	-0.1629	8.94	2.95	-0.750			
0.7736	49510.48	3.0220	3.0219	-0.1622	8.95	2.96	-0.750			
0.7741	49541.22	3.0190	3.0189	-0.1610	8.95	2.96	-0.750			
0.7746	49572.29	3.0160	3.0160	-0.1609	8.96	2.97	-0.750			
0.7750	49603.17	3.0130	3.0131	-0.1600	8.97	2.98	-0.750			
0.7755	49633.81	3.0100	3.0099	-0.1592	8.98	2.99	-0.750			
0.7760	49664.52	3.0070	3.0070	-0.1581	8.98	2.99	-0.750			
0.7765	49694.66	3.0040	3.0040	-0.1569	8.99	3.00	-0.750			
0.7769	49724.68	3.0010	3.0010	-0.1558	9.00	3.01	-0.750			
