Ah_balance (normalized)	Ah_balance (mAh)	Voltage - fit (V)	Voltage -  interpolate (V)	dQ/dV (1/V)	Temperature (°C)	Temperature - diff (°C)	Current (C)	R_DC 0ms (mOhm)	R_DC 50ms (mOhm)	R_DC 50 ms PEC (mOhm)
0.0943	6032.61	4.1990	4.1966	0.8324	8.03	2.04	0.750	0.431	0.923	
0.0969	6198.49	4.1960	4.1976	0.8761	8.03	2.04	0.750			
0.0995	6371.16	4.1930	4.1939	0.8585	8.02	2.03	0.750			
0.1020	6530.29	4.1900	4.1902	0.8171	8.02	2.03	0.750			
0.1044	6679.65	4.1870	4.1873	0.7737	8.02	2.03	0.750			
0.1069	6839.24	4.1840	4.1837	0.8023	8.01	2.02	0.750			
0.1088	6964.41	4.1810	4.1808	0.7368	8.01	2.02	0.750			
0.1110	7106.18	4.1780	4.1780	0.7380	8.01	2.02	0.750			
0.1133	7249.76	4.1750	4.1750	0.7404	8.00	2.01	0.750			
0.1155	7394.05	4.1720	4.1720	0.7399	8.00	2.01	0.750			
0.1177	7535.14	4.1690	4.1690	0.7333	8.00	2.01	0.750			
0.1199	7674.93	4.1660	4.1661	0.7287	7.99	2.00	0.750			
0.1221	7812.97	4.1630	4.1631	0.7321	7.99	2.00	0.750			
0.1243	7952.31	4.1600	4.1599	0.7309	7.99	2.00	0.750			
0.1265	8093.49	4.1570	4.1570	0.7376	7.99	2.00	0.750			
0.1287	8234.67	4.1540	4.1540	0.7491	7.98	1.99	0.750			
0.1309	8379.71	4.1510	4.1511	0.7582	7.98	1.99	0.750			
0.1332	8526.35	4.1480	4.1480	0.7670	7.98	1.99	0.750			
0.1355	8674.63	4.1450	4.1449	0.7722	7.98	1.99	0.750			
0.1379	8826.02	4.1420	4.1420	0.7646	7.98	1.99	0.750			
0.1402	8974.84	4.1390	4.1390	0.7661	7.97	1.98	0.750			
0.1425	9120.07	4.1360	4.1361	0.7584	7.97	1.98	0.750			
0.1447	9260.03	4.1330	4.1331	0.7567	7.97	1.98	0.750			
0.1470	9406.05	4.1300	4.1299	0.7622	7.97	1.98	0.750			
0.1492	9551.47	4.1270	4.1269	0.7722	7.96	1.97	0.750			
0.1516	9701.46	4.1240	4.1240	0.7817	7.96	1.97	0.750			
0.1540	9854.88	4.1210	4.1211	0.7917	7.96	1.97	0.750			
0.1564	10010.07	4.1180	4.1180	0.7925	7.95	1.96	0.750			
0.1588	10162.79	4.1150	4.1151	0.7938	7.95	1.96	0.750			
0.1612	10315.14	4.1120	4.1121	0.7873	7.95	1.96	0.750			
0.1635	10465.20	4.1090	4.1089	0.7887	7.94	1.95	0.750			
0.1658	10614.17	4.1060	4.1060	0.7863	7.94	1.95	0.750			
0.1682	10765.26	4.1030	4.1030	0.7903	7.93	1.94	0.750			
0.1706	10916.13	4.1000	4.0999	0.7935	7.93	1.94	0.750			
0.1730	11071.82	4.0970	4.0971	0.7995	7.93	1.94	0.750			
0.1754	11226.32	4.0940	4.0941	0.7933	7.92	1.93	0.750			
0.1778	11379.78	4.0910	4.0910	0.8025	7.92	1.93	0.750			
0.1802	11531.99	4.0880	4.0880	0.8022	7.92	1.93	0.750			
0.1826	11684.04	4.0850	4.0850	0.8043	7.91	1.92	0.750			
0.1850	11839.26	4.0820	4.0821	0.8058	7.91	1.92	0.750			
0.1874	11995.27	4.0790	4.0790	0.8087	7.90	1.91	0.750			
0.1898	12150.21	4.0760	4.0761	0.8260	7.90	1.91	0.750			
0.1924	12310.57	4.0730	4.0729	0.8402	7.90	1.91	0.750			
0.1949	12473.00	4.0700	4.0699	0.8420	7.89	1.90	0.750			
0.1975	12637.90	4.0670	4.0672	0.8401	7.89	1.90	0.750			
0.2000	12801.99	4.0640	4.0643	0.8401	7.88	1.89	0.750			
0.2025	12963.18	4.0610	4.0609	0.8356	7.88	1.89	0.750			
0.2050	13120.04	4.0580	4.0579	0.8256	7.88	1.89	0.750			
0.2074	13273.94	4.0550	4.0550	0.8199	7.87	1.88	0.750			
0.2098	13429.66	4.0520	4.0520	0.8312	7.87	1.88	0.750			
0.2124	13593.68	4.0490	4.0490	0.8410	7.87	1.88	0.750			
0.2149	13756.19	4.0460	4.0459	0.8485	7.86	1.87	0.750			
0.2175	13920.73	4.0430	4.0430	0.8536	7.86	1.87	0.750			
0.2201	14085.34	4.0400	4.0401	0.8521	7.86	1.87	0.750			
0.2227	14250.14	4.0370	4.0370	0.8593	7.86	1.87	0.750			
0.2252	14414.76	4.0340	4.0341	0.8551	7.85	1.86	0.750			
0.2278	14576.98	4.0310	4.0310	0.8588	7.84	1.85	0.750			
0.2304	14742.82	4.0280	4.0281	0.8570	7.84	1.85	0.750			
0.2329	14908.02	4.0250	4.0249	0.8615	7.83	1.84	0.750			
0.2355	15072.54	4.0220	4.0220	0.8683	7.83	1.84	0.750			
0.2381	15241.14	4.0190	4.0191	0.8677	7.83	1.84	0.750			
0.2407	15406.01	4.0160	4.0159	0.8724	7.82	1.83	0.750			
0.2434	15574.51	4.0130	4.0131	0.8830	7.82	1.83	0.750			
0.2460	15744.26	4.0100	4.0098	0.8868	7.82	1.83	0.750			
0.2487	15917.55	4.0070	4.0069	0.8931	7.82	1.83	0.750			
0.2514	16086.86	4.0040	4.0041	0.8997	7.81	1.82	0.750			
0.2541	16260.16	4.0010	4.0010	0.9014	7.81	1.82	0.750			
0.2568	16436.37	3.9980	3.9980	0.9029	7.80	1.81	0.750			
0.2595	16607.66	3.9950	3.9949	0.8999	7.80	1.81	0.750			
0.2622	16779.83	3.9920	3.9923	0.9041	7.79	1.80	0.750			
0.2649	16954.03	3.9890	3.9890	0.9090	7.78	1.79	0.750			
0.2676	17129.41	3.9860	3.9859	0.9068	7.78	1.79	0.750			
0.2704	17302.64	3.9830	3.9830	0.9066	7.77	1.78	0.750			
0.2731	17479.32	3.9800	3.9801	0.9125	7.77	1.78	0.750			
0.2758	17652.84	3.9770	3.9770	0.9163	7.77	1.78	0.750			
0.2786	17827.40	3.9740	3.9739	0.9164	7.76	1.77	0.750			
0.2813	18003.12	3.9710	3.9711	0.9260	7.76	1.77	0.750			
0.2841	18181.90	3.9680	3.9679	0.9314	7.76	1.77	0.750			
0.2869	18362.19	3.9650	3.9651	0.9412	7.75	1.76	0.750			
0.2897	18543.93	3.9620	3.9620	0.9472	7.75	1.76	0.750			
0.2926	18727.96	3.9590	3.9590	0.9501	7.74	1.75	0.750			
0.2955	18909.69	3.9560	3.9559	0.9554	7.73	1.74	0.750			
0.2984	19095.15	3.9530	3.9531	0.9554	7.73	1.74	0.750			
0.3012	19277.38	3.9500	3.9500	0.9655	7.72	1.73	0.750			
0.3041	19465.11	3.9470	3.9470	0.9717	7.72	1.73	0.750			
0.3070	19650.72	3.9440	3.9440	0.9711	7.71	1.72	0.750			
0.3100	19838.35	3.9410	3.9412	0.9726	7.71	1.72	0.750			
0.3129	20026.56	3.9380	3.9380	0.9823	7.70	1.71	0.750			
0.3158	20212.92	3.9350	3.9350	0.9882	7.70	1.71	0.750			
0.3188	20402.16	3.9320	3.9318	1.0052	7.69	1.70	0.750			
0.3219	20598.91	3.9290	3.9292	1.0074	7.69	1.70	0.750			
0.3249	20793.41	3.9260	3.9260	1.0238	7.68	1.69	0.750			
0.3280	20990.78	3.9230	3.9230	1.0492	7.67	1.68	0.750			
0.3312	21195.30	3.9200	3.9201	1.0606	7.67	1.68	0.750			
0.3344	21402.38	3.9170	3.9167	1.0618	7.66	1.67	0.750			
0.3376	21604.70	3.9140	3.9143	1.0648	7.65	1.66	0.750			
0.3408	21809.94	3.9110	3.9111	1.0690	7.64	1.65	0.750			
0.3440	22016.36	3.9080	3.9079	1.0808	7.64	1.65	0.750			
0.3472	22223.38	3.9050	3.9049	1.0648	7.63	1.64	0.750			
0.3504	22425.38	3.9020	3.9021	1.0847	7.62	1.63	0.750			
0.3537	22636.52	3.8990	3.8991	1.1123	7.61	1.62	0.750			
0.3571	22851.23	3.8960	3.8961	1.1379	7.60	1.61	0.750			
0.3605	23070.28	3.8930	3.8931	1.1501	7.59	1.60	0.750			
0.3640	23293.63	3.8900	3.8901	1.1761	7.58	1.59	0.750			
0.3675	23523.01	3.8870	3.8871	1.1948	7.57	1.58	0.750			
0.3712	23758.61	3.8840	3.8838	1.2124	7.56	1.57	0.750			
0.3749	23992.04	3.8810	3.8810	1.2070	7.55	1.56	0.750			
0.3785	24224.07	3.8780	3.8780	1.2136	7.55	1.56	0.750			
0.3822	24459.64	3.8750	3.8751	1.2157	7.54	1.55	0.750			
0.3858	24689.49	3.8720	3.8720	1.2415	7.53	1.54	0.750			
0.3894	24922.11	3.8690	3.8689	1.2588	7.52	1.53	0.750			
0.3932	25167.97	3.8660	3.8660	1.2852	7.51	1.52	0.750			
0.3972	25419.59	3.8630	3.8629	1.3038	7.50	1.51	0.750			
0.4011	25671.67	3.8600	3.8602	1.3387	7.48	1.49	0.750			
0.4052	25931.28	3.8570	3.8572	1.3650	7.47	1.48	0.750			
0.4093	26196.42	3.8540	3.8538	1.3972	7.46	1.47	0.750			
0.4135	26465.29	3.8510	3.8511	1.4106	7.45	1.46	0.750	0.408	1.003	
0.4178	26742.18	3.8480	3.8479	1.4355	7.44	1.45	0.750			
0.4222	27022.02	3.8450	3.8452	1.4743	7.43	1.44	0.750			
0.4267	27309.25	3.8420	3.8420	1.5129	7.41	1.42	0.750			
0.4312	27599.84	3.8390	3.8389	1.5205	7.40	1.41	0.750			
0.4359	27897.38	3.8360	3.8361	1.5442	7.38	1.39	0.750			
0.4405	28192.75	3.8330	3.8329	1.5846	7.37	1.38	0.750			
0.4453	28499.25	3.8300	3.8300	1.6100	7.35	1.36	0.750			
0.4501	28805.90	3.8270	3.8268	1.6266	7.34	1.35	0.750			
0.4551	29125.97	3.8240	3.8240	1.6575	7.32	1.33	0.750			
0.4600	29442.87	3.8210	3.8213	1.7063	7.31	1.32	0.750			
0.4653	29778.96	3.8180	3.8177	1.7507	7.29	1.30	0.750			
0.4707	30125.68	3.8150	3.8149	1.7943	7.27	1.28	0.750			
0.4761	30470.84	3.8120	3.8119	1.8521	7.25	1.26	0.750			
0.4817	30827.90	3.8090	3.8091	1.8793	7.23	1.24	0.750			
0.4873	31190.10	3.8060	3.8064	1.9300	7.21	1.22	0.750			
0.4932	31566.42	3.8030	3.8031	2.0162	7.19	1.20	0.750			
0.4993	31955.68	3.8000	3.7998	2.0455	7.17	1.18	0.750			
0.5056	32356.33	3.7970	3.7971	2.0944	7.15	1.16	0.750			
0.5120	32769.38	3.7940	3.7944	2.1362	7.12	1.13	0.750			
0.5186	33187.28	3.7910	3.7909	2.1854	7.09	1.10	0.750			
0.5250	33600.18	3.7880	3.7881	2.2338	7.06	1.07	0.750			
0.5317	34031.65	3.7850	3.7850	2.2591	7.04	1.05	0.750			
0.5386	34473.38	3.7820	3.7821	2.3324	7.01	1.02	0.750			
0.5457	34926.35	3.7790	3.7788	2.3924	6.99	1.00	0.750			
0.5530	35394.23	3.7760	3.7759	2.4215	6.96	0.97	0.750			
0.5604	35867.98	3.7730	3.7732	2.4424	6.93	0.94	0.750			
0.5677	36334.74	3.7700	3.7700	2.4935	6.90	0.91	0.750			
0.5751	36805.82	3.7670	3.7670	2.5654	6.87	0.88	0.750			
0.5830	37310.17	3.7640	3.7640	2.6247	6.84	0.85	0.750			
0.5910	37825.71	3.7610	3.7611	2.7230	6.80	0.81	0.750			
0.5994	38358.50	3.7580	3.7577	2.7009	6.77	0.78	0.750			
0.6073	38865.14	3.7550	3.7552	2.7031	6.74	0.75	0.750			
0.6154	39385.46	3.7520	3.7520	2.7680	6.70	0.71	0.750			
0.6236	39913.58	3.7490	3.7489	2.7909	6.67	0.68	0.750			
0.6322	40459.26	3.7460	3.7461	2.9341	6.63	0.64	0.750			
0.6411	41032.96	3.7430	3.7429	3.1369	6.59	0.60	0.750			
0.6510	41661.28	3.7400	3.7400	3.2341	6.55	0.56	0.750			
0.6610	42303.84	3.7370	3.7371	3.3972	6.50	0.51	0.750			
0.6710	42945.77	3.7340	3.7338	3.4265	6.46	0.47	0.750			
0.6817	43626.09	3.7310	3.7309	3.4179	6.42	0.43	0.750			
0.6919	44283.37	3.7280	3.7282	3.2299	6.37	0.38	0.750			
0.7013	44883.92	3.7250	3.7249	3.0823	6.33	0.34	0.750			
0.7104	45466.18	3.7220	3.7219	2.8246	6.30	0.31	0.750			
0.7188	46001.40	3.7190	3.7191	2.5862	6.28	0.29	0.750			
0.7257	46447.51	3.7160	3.7160	2.2395	6.25	0.26	0.750			
0.7318	46833.66	3.7130	3.7130	1.9593	6.23	0.24	0.750			
0.7371	47177.18	3.7100	3.7097	1.7259	6.21	0.22	0.750			
0.7419	47479.77	3.7070	3.7071	1.5531	6.19	0.20	0.750			
0.7462	47757.12	3.7040	3.7039	1.4149	6.17	0.18	0.750			
0.7501	48005.79	3.7010	3.7010	1.3047	6.16	0.17	0.750			
0.7538	48243.82	3.6980	3.6980	1.2334	6.15	0.16	0.750			
0.7572	48462.76	3.6950	3.6950	1.1649	6.14	0.15	0.750			
0.7606	48679.95	3.6920	3.6920	1.1222	6.13	0.14	0.750			
0.7639	48889.38	3.6890	3.6889	1.0945	6.12	0.13	0.750			
0.7671	49095.09	3.6860	3.6860	1.0774	6.11	0.12	0.750			
0.7703	49299.56	3.6830	3.6829	1.0567	6.09	0.10	0.750			
0.7735	49503.68	3.6800	3.6800	1.0408	6.08	0.09	0.750			
0.7766	49702.01	3.6770	3.6770	1.0212	6.08	0.09	0.750			
0.7796	49895.95	3.6740	3.6741	0.9936	6.07	0.08	0.750			
0.7826	50086.27	3.6710	3.6708	0.9675	6.06	0.07	0.750			
0.7854	50267.19	3.6680	3.6681	0.9400	6.05	0.06	0.750			
0.7882	50443.18	3.6650	3.6650	0.9081	6.05	0.06	0.750			
0.7909	50615.26	3.6620	3.6619	0.8880	6.04	0.05	0.750			
0.7935	50782.26	3.6590	3.6591	0.8681	6.03	0.04	0.750			
0.7960	50945.24	3.6560	3.6558	0.8530	6.02	0.03	0.750			
0.7986	51108.79	3.6530	3.6530	0.8425	6.02	0.03	0.750			
0.8011	51271.11	3.6500	3.6499	0.8180	6.01	0.02	0.750			
0.8035	51426.50	3.6470	3.6470	0.7968	6.01	0.02	0.750			
0.8059	51578.40	3.6440	3.6442	0.7754	6.00	0.01	0.750			
0.8082	51726.49	3.6410	3.6408	0.7488	6.00	0.01	0.750			
0.8104	51868.31	3.6380	3.6379	0.7127	6.00	0.01	0.750			
0.8125	52003.12	3.6350	3.6351	0.6723	6.00	0.01	0.750			
0.8146	52132.39	3.6320	3.6320	0.6259	6.00	0.01	0.750			
0.8164	52250.74	3.6290	3.6290	0.5682	5.99	0.00	0.750			
0.8180	52353.00	3.6260	3.6260	0.5027	5.99	0.00	0.750			
0.8194	52442.49	3.6230	3.6230	0.4368	5.99	0.00	0.750			
0.8206	52520.43	3.6200	3.6200	0.3725	5.99	0.00	0.750			
0.8216	52583.40	3.6170	3.6172	0.3149	5.99	-0.00	0.750			
0.8225	52637.52	3.6140	3.6139	0.2560	5.99	-0.00	0.750			
0.8231	52680.65	3.6110	3.6109	0.2003	5.99	-0.00	0.750			
0.8236	52712.46	3.6080	3.6078	0.1459	5.99	-0.00	0.750			
0.8239	52731.60	3.6050	3.6049	0.0929	5.99	-0.00	0.750			
0.8241	52745.37	3.5960	3.5969	-0.0556	5.99	-0.00	0.750			
0.8242	52747.46	3.6020	3.5876	0.0447	5.99	-0.00	0.750			
0.8242	52751.23	3.5990	3.5616	-0.0054	5.99	-0.00	0.752			
