Ah_balance (normalized)	Ah_balance (mAh)	Voltage - fit (V)	Voltage -  interpolate (V)	dQ/dV (1/V)	Temperature (°C)	Temperature - diff (°C)	Current (C)	R_DC 0ms (mOhm)	R_DC 50ms (mOhm)	R_DC 50 ms PEC (mOhm)
0.0953	6100.75	4.1980	4.1951	0.7045	8.14	2.04	0.750	0.393	0.829	
0.0978	6259.84	4.1950	4.1973	0.8448	8.13	2.03	0.750			
0.1004	6426.58	4.1920	4.1935	0.8493	8.12	2.02	0.750			
0.1030	6594.25	4.1890	4.1895	0.8108	8.12	2.02	0.750			
0.1056	6759.16	4.1860	4.1861	0.8024	8.11	2.01	0.750			
0.1077	6891.55	4.1830	4.1831	0.6978	8.10	2.00	0.750			
0.1098	7025.56	4.1800	4.1799	0.7023	8.09	1.99	0.750			
0.1118	7157.76	4.1770	4.1769	0.6996	8.09	1.99	0.750			
0.1139	7292.00	4.1740	4.1741	0.7030	8.08	1.98	0.750			
0.1161	7427.83	4.1710	4.1711	0.7104	8.08	1.98	0.750			
0.1183	7568.39	4.1680	4.1680	0.7198	8.07	1.97	0.750			
0.1204	7705.74	4.1650	4.1649	0.7182	8.07	1.97	0.750			
0.1226	7843.49	4.1620	4.1620	0.7249	8.06	1.96	0.750			
0.1247	7983.59	4.1590	4.1592	0.7275	8.06	1.96	0.750			
0.1269	8124.79	4.1560	4.1559	0.7290	8.05	1.95	0.750			
0.1291	8264.98	4.1530	4.1529	0.7291	8.05	1.95	0.750			
0.1313	8402.93	4.1500	4.1501	0.7324	8.04	1.94	0.750			
0.1335	8545.54	4.1470	4.1469	0.7361	8.04	1.94	0.750			
0.1357	8686.86	4.1440	4.1439	0.7302	8.03	1.93	0.750			
0.1379	8825.63	4.1410	4.1411	0.7301	8.02	1.92	0.750			
0.1401	8966.27	4.1380	4.1381	0.7395	8.02	1.92	0.750			
0.1423	9110.06	4.1350	4.1349	0.7424	8.01	1.91	0.750			
0.1446	9251.95	4.1320	4.1319	0.7412	8.00	1.90	0.750			
0.1468	9393.94	4.1290	4.1292	0.7462	8.00	1.90	0.750			
0.1491	9539.24	4.1260	4.1260	0.7561	7.99	1.89	0.750			
0.1513	9685.98	4.1230	4.1228	0.7548	7.99	1.89	0.750			
0.1536	9830.24	4.1200	4.1200	0.7476	7.98	1.88	0.750			
0.1558	9973.94	4.1170	4.1170	0.7445	7.98	1.88	0.750			
0.1581	10118.22	4.1140	4.1141	0.7457	7.97	1.87	0.750			
0.1603	10259.51	4.1110	4.1108	0.7448	7.97	1.87	0.750			
0.1625	10399.54	4.1080	4.1082	0.7511	7.97	1.87	0.750			
0.1647	10543.00	4.1050	4.1049	0.7565	7.96	1.86	0.750			
0.1670	10690.94	4.1020	4.1019	0.7657	7.96	1.86	0.750			
0.1694	10841.39	4.0990	4.0990	0.7714	7.95	1.85	0.750			
0.1717	10989.94	4.0960	4.0961	0.7715	7.94	1.84	0.750			
0.1740	11138.67	4.0930	4.0930	0.7752	7.94	1.84	0.750			
0.1764	11286.54	4.0900	4.0900	0.7810	7.93	1.83	0.750			
0.1786	11433.23	4.0870	4.0870	0.7838	7.93	1.83	0.750			
0.1810	11586.10	4.0840	4.0839	0.7957	7.92	1.82	0.750			
0.1835	11741.70	4.0810	4.0810	0.8032	7.92	1.82	0.750			
0.1859	11897.12	4.0780	4.0780	0.8047	7.91	1.81	0.750			
0.1883	12053.35	4.0750	4.0750	0.8076	7.90	1.80	0.750			
0.1908	12209.05	4.0720	4.0720	0.7996	7.90	1.80	0.750			
0.1931	12359.46	4.0690	4.0690	0.8007	7.89	1.79	0.750			
0.1955	12512.02	4.0660	4.0660	0.8087	7.89	1.79	0.750			
0.1979	12667.08	4.0630	4.0630	0.8152	7.88	1.78	0.750			
0.2004	12825.07	4.0600	4.0600	0.8177	7.88	1.78	0.750			
0.2029	12985.13	4.0570	4.0569	0.8173	7.87	1.77	0.750			
0.2053	13141.94	4.0540	4.0542	0.8245	7.86	1.76	0.750			
0.2078	13300.95	4.0510	4.0510	0.8329	7.86	1.76	0.750			
0.2103	13458.40	4.0480	4.0479	0.8346	7.85	1.75	0.750			
0.2128	13620.82	4.0450	4.0451	0.8290	7.85	1.75	0.750			
0.2153	13781.93	4.0420	4.0421	0.8259	7.84	1.74	0.750			
0.2178	13939.72	4.0390	4.0391	0.8302	7.83	1.73	0.750			
0.2203	14098.18	4.0360	4.0359	0.8319	7.83	1.73	0.750			
0.2227	14253.83	4.0330	4.0329	0.8353	7.82	1.72	0.750			
0.2252	14414.95	4.0300	4.0301	0.8412	7.82	1.72	0.750			
0.2278	14578.71	4.0270	4.0269	0.8463	7.81	1.71	0.750			
0.2304	14744.52	4.0240	4.0241	0.8581	7.80	1.70	0.750			
0.2329	14908.41	4.0210	4.0212	0.8593	7.80	1.70	0.750			
0.2355	15072.83	4.0180	4.0179	0.8625	7.79	1.69	0.750			
0.2381	15238.82	4.0150	4.0151	0.8700	7.79	1.69	0.750			
0.2407	15406.60	4.0120	4.0120	0.8791	7.78	1.68	0.750			
0.2434	15579.97	4.0090	4.0091	0.8883	7.78	1.68	0.750			
0.2461	15751.50	4.0060	4.0060	0.8867	7.77	1.67	0.750			
0.2488	15920.42	4.0030	4.0030	0.8865	7.77	1.67	0.750			
0.2514	16091.19	4.0000	4.0000	0.8850	7.76	1.66	0.750			
0.2540	16258.43	3.9970	3.9970	0.8879	7.75	1.65	0.750			
0.2567	16427.48	3.9940	3.9940	0.8905	7.74	1.64	0.750			
0.2594	16600.45	3.9910	3.9910	0.8933	7.74	1.64	0.750			
0.2621	16773.43	3.9880	3.9880	0.8999	7.73	1.63	0.750			
0.2648	16947.11	3.9850	3.9849	0.8956	7.72	1.62	0.750			
0.2675	17118.16	3.9820	3.9821	0.9011	7.71	1.61	0.750			
0.2702	17290.87	3.9790	3.9790	0.9108	7.71	1.61	0.750			
0.2729	17463.10	3.9760	3.9760	0.9208	7.70	1.60	0.750			
0.2757	17644.00	3.9730	3.9730	0.9251	7.70	1.60	0.750			
0.2785	17823.97	3.9700	3.9699	0.9325	7.69	1.59	0.750			
0.2813	18002.76	3.9670	3.9671	0.9350	7.68	1.58	0.750			
0.2841	18183.41	3.9640	3.9640	0.9407	7.68	1.58	0.750			
0.2869	18362.56	3.9610	3.9610	0.9405	7.67	1.57	0.750			
0.2897	18541.03	3.9580	3.9580	0.9446	7.66	1.56	0.750			
0.2925	18720.95	3.9550	3.9549	0.9490	7.65	1.55	0.750			
0.2954	18906.14	3.9520	3.9522	0.9641	7.65	1.55	0.750			
0.2983	19091.79	3.9490	3.9487	0.9695	7.64	1.54	0.750			
0.3012	19279.17	3.9460	3.9462	0.9800	7.63	1.53	0.750			
0.3042	19468.42	3.9430	3.9430	0.9952	7.63	1.53	0.750			
0.3072	19659.13	3.9400	3.9399	1.0087	7.62	1.52	0.750			
0.3102	19854.19	3.9370	3.9369	1.0045	7.61	1.51	0.750			
0.3133	20050.19	3.9340	3.9340	1.0102	7.60	1.50	0.750			
0.3164	20248.27	3.9310	3.9311	1.0096	7.59	1.49	0.750			
0.3194	20442.06	3.9280	3.9280	1.0075	7.58	1.48	0.750			
0.3224	20630.89	3.9250	3.9250	1.0134	7.57	1.47	0.750			
0.3254	20825.08	3.9220	3.9219	1.0146	7.57	1.47	0.750			
0.3284	21015.99	3.9190	3.9190	1.0369	7.56	1.46	0.750			
0.3316	21220.59	3.9160	3.9160	1.0601	7.55	1.45	0.750			
0.3348	21427.95	3.9130	3.9129	1.0792	7.54	1.44	0.750			
0.3381	21639.14	3.9100	3.9101	1.0854	7.53	1.43	0.750			
0.3414	21847.14	3.9070	3.9072	1.0958	7.52	1.42	0.750			
0.3446	22057.38	3.9040	3.9039	1.1032	7.51	1.41	0.750			
0.3480	22272.28	3.9010	3.9008	1.1050	7.50	1.40	0.750			
0.3512	22478.94	3.8980	3.8980	1.1073	7.49	1.39	0.750			
0.3545	22691.17	3.8950	3.8952	1.1326	7.48	1.38	0.750			
0.3580	22912.48	3.8920	3.8920	1.1543	7.46	1.36	0.750			
0.3615	23137.43	3.8890	3.8889	1.1648	7.45	1.35	0.750			
0.3650	23362.16	3.8860	3.8861	1.1848	7.44	1.34	0.750			
0.3686	23592.45	3.8830	3.8832	1.1991	7.43	1.33	0.750			
0.3723	23827.31	3.8800	3.8799	1.2253	7.42	1.32	0.750			
0.3760	24061.37	3.8770	3.8770	1.2140	7.41	1.31	0.750			
0.3796	24292.67	3.8740	3.8741	1.2207	7.40	1.30	0.750			
0.3832	24527.40	3.8710	3.8711	1.2458	7.38	1.28	0.750			
0.3870	24765.43	3.8680	3.8683	1.2669	7.37	1.27	0.750			
0.3908	25011.48	3.8650	3.8649	1.2954	7.36	1.26	0.750	0.389	0.850	
0.3948	25265.83	3.8620	3.8622	1.3195	7.34	1.24	0.750			
0.3987	25519.65	3.8590	3.8590	1.3449	7.33	1.23	0.750			
0.4028	25781.98	3.8560	3.8561	1.3826	7.31	1.21	0.750			
0.4070	26049.12	3.8530	3.8529	1.3883	7.30	1.20	0.750			
0.4113	26320.52	3.8500	3.8497	1.4146	7.28	1.18	0.750			
0.4156	26598.01	3.8470	3.8472	1.4229	7.26	1.16	0.750			
0.4199	26875.00	3.8440	3.8442	1.4477	7.25	1.15	0.750			
0.4243	27155.49	3.8410	3.8409	1.4761	7.23	1.13	0.750			
0.4286	27431.33	3.8380	3.8381	1.4893	7.21	1.11	0.750			
0.4331	27715.68	3.8350	3.8352	1.5184	7.20	1.10	0.750			
0.4377	28013.85	3.8320	3.8319	1.5639	7.18	1.08	0.750			
0.4425	28322.60	3.8290	3.8288	1.6026	7.16	1.06	0.750			
0.4475	28640.71	3.8260	3.8260	1.6293	7.14	1.04	0.750			
0.4524	28951.12	3.8230	3.8229	1.6508	7.13	1.03	0.750			
0.4574	29272.97	3.8200	3.8202	1.6775	7.11	1.01	0.750			
0.4624	29596.21	3.8170	3.8170	1.7027	7.08	0.98	0.750			
0.4677	29929.84	3.8140	3.8142	1.7109	7.06	0.96	0.750			
0.4728	30258.39	3.8110	3.8111	1.7262	7.03	0.93	0.750			
0.4780	30592.71	3.8080	3.8079	1.7434	7.01	0.91	0.750			
0.4833	30931.55	3.8050	3.8047	1.7693	6.98	0.88	0.750			
0.4885	31266.66	3.8020	3.8018	1.7895	6.96	0.86	0.750			
0.4939	31611.85	3.7990	3.7991	1.8367	6.94	0.84	0.750			
0.4995	31965.72	3.7960	3.7963	1.8767	6.92	0.82	0.750			
0.5052	32330.96	3.7930	3.7930	1.9444	6.89	0.79	0.750			
0.5111	32710.92	3.7900	3.7899	1.9561	6.87	0.77	0.750			
0.5172	33099.89	3.7870	3.7869	1.9796	6.85	0.75	0.750			
0.5232	33487.74	3.7840	3.7839	1.9811	6.82	0.72	0.750			
0.5290	33854.13	3.7810	3.7810	2.0108	6.79	0.69	0.750			
0.5349	34233.76	3.7780	3.7780	2.0375	6.77	0.67	0.750			
0.5411	34629.58	3.7750	3.7748	2.0879	6.74	0.64	0.750			
0.5476	35044.64	3.7720	3.7722	2.1214	6.71	0.61	0.750			
0.5541	35460.50	3.7690	3.7691	2.1840	6.69	0.59	0.750			
0.5605	35875.05	3.7660	3.7659	2.2064	6.66	0.56	0.750			
0.5670	36288.39	3.7630	3.7631	2.2534	6.64	0.54	0.750			
0.5740	36738.20	3.7600	3.7601	2.3675	6.61	0.51	0.750			
0.5813	37206.29	3.7570	3.7569	2.4612	6.58	0.48	0.750			
0.5888	37686.08	3.7540	3.7542	2.5425	6.55	0.45	0.750			
0.5966	38183.07	3.7510	3.7510	2.6443	6.52	0.42	0.750			
0.6046	38694.65	3.7480	3.7480	2.7324	6.49	0.39	0.750			
0.6131	39237.52	3.7450	3.7450	2.8629	6.45	0.35	0.750			
0.6219	39803.78	3.7420	3.7419	2.9711	6.43	0.33	0.750			
0.6310	40385.63	3.7390	3.7392	3.0529	6.40	0.30	0.750			
0.6403	40980.64	3.7360	3.7359	3.0293	6.37	0.27	0.750			
0.6494	41559.44	3.7330	3.7330	3.0089	6.34	0.24	0.750			
0.6586	42152.07	3.7300	3.7299	2.9128	6.31	0.21	0.750			
0.6673	42707.48	3.7270	3.7269	2.6967	6.29	0.19	0.750			
0.6749	43196.49	3.7240	3.7240	2.3838	6.27	0.17	0.750			
0.6813	43602.99	3.7210	3.7212	2.0642	6.25	0.15	0.750			
0.6871	43974.59	3.7180	3.7180	1.8067	6.24	0.14	0.750			
0.6919	44283.48	3.7150	3.7149	1.5699	6.23	0.13	0.750			
0.6961	44547.93	3.7120	3.7120	1.4093	6.22	0.12	0.750			
0.6999	44793.69	3.7090	3.7091	1.2792	6.22	0.12	0.750			
0.7035	45022.41	3.7060	3.7060	1.2053	6.21	0.11	0.750			
0.7069	45242.78	3.7030	3.7030	1.1532	6.20	0.10	0.750			
0.7102	45455.30	3.7000	3.6999	1.1227	6.19	0.09	0.750			
0.7135	45665.19	3.6970	3.6970	1.0883	6.18	0.08	0.750			
0.7168	45872.59	3.6940	3.6941	1.0711	6.18	0.08	0.750			
0.7199	46076.80	3.6910	3.6909	1.0520	6.17	0.07	0.750			
0.7231	46278.97	3.6880	3.6880	1.0343	6.16	0.06	0.750			
0.7262	46474.47	3.6850	3.6850	1.0030	6.16	0.06	0.750			
0.7291	46663.90	3.6820	3.6820	0.9916	6.15	0.05	0.750			
0.7320	46850.14	3.6790	3.6791	0.9716	6.15	0.05	0.750			
0.7350	47038.24	3.6760	3.6759	0.9547	6.14	0.04	0.750			
0.7378	47219.83	3.6730	3.6731	0.9355	6.14	0.04	0.750			
0.7406	47398.59	3.6700	3.6701	0.9192	6.14	0.04	0.750			
0.7433	47573.27	3.6670	3.6670	0.9019	6.13	0.03	0.750			
0.7460	47743.99	3.6640	3.6639	0.8918	6.13	0.03	0.750			
0.7486	47910.13	3.6610	3.6609	0.8782	6.13	0.03	0.750			
0.7512	48078.05	3.6580	3.6579	0.8766	6.13	0.03	0.750			
0.7538	48244.63	3.6550	3.6551	0.8866	6.12	0.02	0.750			
0.7565	48414.25	3.6520	3.6520	0.8945	6.12	0.02	0.750			
0.7592	48587.93	3.6490	3.6490	0.9009	6.11	0.01	0.750			
0.7620	48765.29	3.6460	3.6460	0.8961	6.11	0.01	0.750			
0.7647	48939.97	3.6430	3.6431	0.8793	6.11	0.01	0.750			
0.7674	49114.04	3.6400	3.6401	0.8548	6.11	0.01	0.750			
0.7700	49278.12	3.6370	3.6369	0.8039	6.10	0.00	0.750			
0.7724	49432.02	3.6340	3.6341	0.7308	6.10	0.00	0.750			
0.7745	49567.47	3.6310	3.6310	0.6478	6.10	-0.00	0.750			
0.7763	49686.27	3.6280	3.6281	0.5579	6.10	-0.00	0.750			
0.7777	49771.62	3.6250	3.6254	0.4761	6.10	-0.00	0.750			
0.7790	49853.95	3.6220	3.6222	0.3893	6.10	-0.00	0.750			
0.7800	49919.86	3.6190	3.6189	0.3136	6.09	-0.01	0.750			
0.7807	49966.38	3.6160	3.6154	0.2347	6.09	-0.01	0.750			
0.7813	50001.97	3.6130	3.6108	0.1734	6.09	-0.01	0.750			
0.7816	50020.11	3.5950	3.5642	-0.1035	6.09	-0.01	0.748			
0.7816	50021.68	3.6100	3.5430	0.1139	6.09	-0.01	0.745			
0.7818	50034.41	3.6070	3.3709	0.0663	6.09	-0.01	0.723			
0.7818	50035.91	3.5980	3.3506	-0.0611	6.09	-0.01	0.720			
0.7819	50043.06	3.6040	3.2540	0.0238	6.09	-0.01	0.708			
0.7819	50043.56	3.6010	3.2472	-0.0186	6.09	-0.01	0.707			
