Ah_balance (normalized)	Ah_balance (mAh)	Voltage - fit (V)	Voltage -  interpolate (V)	dQ/dV (1/V)	Temperature (°C)	Temperature - diff (°C)	Current (C)	R_DC 0ms (mOhm)	R_DC 50ms (mOhm)	R_DC 50 ms PEC (mOhm)
0.0985	6300.88	4.1990	4.1932	0.5205	8.16	2.18	0.750	0.393	0.792	
0.1000	6399.61	4.1960	4.1980	0.5434	8.16	2.18	0.750			
0.1020	6527.81	4.1930	4.1953	0.6817	8.15	2.17	0.750			
0.1043	6673.16	4.1900	4.1919	0.7502	8.14	2.16	0.750			
0.1067	6828.81	4.1870	4.1883	0.7635	8.13	2.15	0.750			
0.1090	6973.72	4.1840	4.1852	0.7632	8.12	2.14	0.750			
0.1118	7155.92	4.1810	4.1810	0.8031	8.11	2.13	0.750			
0.1139	7291.42	4.1780	4.1778	0.7043	8.10	2.12	0.750			
0.1160	7425.55	4.1750	4.1751	0.7086	8.10	2.12	0.750			
0.1182	7563.27	4.1720	4.1721	0.7129	8.09	2.11	0.750			
0.1203	7702.14	4.1690	4.1689	0.7136	8.09	2.11	0.750			
0.1225	7838.37	4.1660	4.1659	0.7146	8.08	2.10	0.750			
0.1246	7974.39	4.1630	4.1632	0.7122	8.08	2.10	0.750			
0.1267	8110.94	4.1600	4.1598	0.7206	8.07	2.09	0.750			
0.1289	8249.34	4.1570	4.1570	0.7245	8.06	2.08	0.750			
0.1311	8389.86	4.1540	4.1540	0.7240	8.05	2.07	0.750			
0.1333	8530.53	4.1510	4.1510	0.7291	8.04	2.06	0.750			
0.1355	8670.60	4.1480	4.1481	0.7260	8.04	2.06	0.750			
0.1377	8809.67	4.1450	4.1451	0.7291	8.03	2.05	0.750			
0.1398	8948.30	4.1420	4.1420	0.7363	8.02	2.04	0.750			
0.1420	9088.95	4.1390	4.1390	0.7349	8.01	2.03	0.750			
0.1442	9230.89	4.1360	4.1361	0.7405	8.00	2.02	0.750			
0.1465	9374.03	4.1330	4.1331	0.7461	7.99	2.01	0.750			
0.1487	9518.11	4.1300	4.1298	0.7499	7.98	2.00	0.750			
0.1510	9662.59	4.1270	4.1270	0.7529	7.97	1.99	0.750			
0.1532	9806.92	4.1240	4.1239	0.7533	7.97	1.99	0.750			
0.1555	9952.57	4.1210	4.1211	0.7496	7.96	1.98	0.750			
0.1578	10097.80	4.1180	4.1180	0.7556	7.95	1.97	0.750			
0.1600	10242.02	4.1150	4.1151	0.7524	7.94	1.96	0.750			
0.1623	10384.95	4.1120	4.1119	0.7555	7.94	1.96	0.750			
0.1645	10530.08	4.1090	4.1089	0.7531	7.93	1.95	0.750			
0.1668	10675.05	4.1060	4.1061	0.7579	7.92	1.94	0.750			
0.1691	10822.00	4.1030	4.1030	0.7602	7.91	1.93	0.750			
0.1714	10966.88	4.1000	4.1000	0.7724	7.91	1.93	0.750			
0.1737	11114.67	4.0970	4.0971	0.7797	7.90	1.92	0.750			
0.1760	11263.90	4.0940	4.0939	0.7924	7.89	1.91	0.750			
0.1784	11418.82	4.0910	4.0911	0.7956	7.89	1.91	0.750			
0.1809	11576.62	4.0880	4.0880	0.7998	7.88	1.90	0.750			
0.1833	11728.51	4.0850	4.0850	0.7981	7.87	1.89	0.750			
0.1857	11883.97	4.0820	4.0821	0.7962	7.86	1.88	0.750			
0.1880	12032.46	4.0790	4.0790	0.7926	7.85	1.87	0.750			
0.1904	12183.77	4.0760	4.0759	0.7983	7.85	1.87	0.750			
0.1928	12337.07	4.0730	4.0731	0.7974	7.84	1.86	0.750			
0.1952	12492.96	4.0700	4.0699	0.8089	7.83	1.85	0.750			
0.1977	12650.68	4.0670	4.0671	0.8186	7.82	1.84	0.750			
0.2001	12807.39	4.0640	4.0641	0.8141	7.82	1.84	0.750			
0.2026	12964.53	4.0610	4.0610	0.8179	7.81	1.83	0.750			
0.2050	13120.85	4.0580	4.0580	0.8175	7.80	1.82	0.750			
0.2074	13276.06	4.0550	4.0549	0.8196	7.79	1.81	0.750			
0.2099	13434.46	4.0520	4.0520	0.8241	7.78	1.80	0.750			
0.2124	13592.38	4.0490	4.0490	0.8266	7.78	1.80	0.750			
0.2149	13752.13	4.0460	4.0460	0.8313	7.77	1.79	0.750			
0.2174	13913.88	4.0430	4.0430	0.8395	7.76	1.78	0.750			
0.2199	14073.54	4.0400	4.0399	0.8449	7.75	1.77	0.750			
0.2224	14236.10	4.0370	4.0370	0.8553	7.74	1.76	0.750			
0.2250	14401.32	4.0340	4.0341	0.8609	7.73	1.75	0.750			
0.2276	14569.56	4.0310	4.0309	0.8662	7.72	1.74	0.750			
0.2303	14737.15	4.0280	4.0281	0.8643	7.71	1.73	0.750			
0.2329	14902.41	4.0250	4.0251	0.8723	7.70	1.72	0.750			
0.2355	15069.41	4.0220	4.0220	0.8744	7.69	1.71	0.750			
0.2381	15235.25	4.0190	4.0189	0.8777	7.68	1.70	0.750			
0.2407	15405.73	4.0160	4.0160	0.8835	7.67	1.69	0.750			
0.2434	15579.53	4.0130	4.0130	0.8859	7.66	1.68	0.750			
0.2461	15748.79	4.0100	4.0101	0.8900	7.65	1.67	0.750			
0.2488	15921.38	4.0070	4.0071	0.8883	7.64	1.66	0.750			
0.2514	16089.43	4.0040	4.0039	0.8807	7.63	1.65	0.750			
0.2540	16258.08	4.0010	4.0009	0.8801	7.62	1.64	0.750			
0.2566	16425.19	3.9980	3.9981	0.8828	7.61	1.63	0.750			
0.2593	16596.07	3.9950	3.9950	0.8943	7.61	1.63	0.750			
0.2620	16769.28	3.9920	3.9919	0.8948	7.60	1.62	0.750			
0.2647	16938.16	3.9890	3.9890	0.8984	7.59	1.61	0.750			
0.2674	17115.42	3.9860	3.9861	0.9034	7.58	1.60	0.750			
0.2701	17287.70	3.9830	3.9830	0.9123	7.57	1.59	0.750			
0.2729	17463.65	3.9800	3.9799	0.9200	7.56	1.58	0.750			
0.2756	17638.72	3.9770	3.9772	0.9250	7.55	1.57	0.750			
0.2784	17817.50	3.9740	3.9740	0.9373	7.53	1.55	0.750			
0.2813	18002.38	3.9710	3.9712	0.9510	7.52	1.54	0.750			
0.2842	18185.85	3.9680	3.9678	0.9498	7.51	1.53	0.750			
0.2870	18368.34	3.9650	3.9651	0.9649	7.50	1.52	0.750			
0.2899	18550.57	3.9620	3.9621	0.9622	7.49	1.51	0.750			
0.2928	18738.36	3.9590	3.9589	0.9600	7.48	1.50	0.750			
0.2956	18921.55	3.9560	3.9560	0.9700	7.47	1.49	0.750			
0.2986	19107.64	3.9530	3.9533	0.9793	7.46	1.48	0.750			
0.3015	19296.28	3.9500	3.9497	0.9902	7.45	1.47	0.750			
0.3045	19490.10	3.9470	3.9470	0.9915	7.44	1.46	0.750			
0.3075	19679.01	3.9440	3.9441	0.9936	7.43	1.45	0.750			
0.3105	19874.07	3.9410	3.9409	1.0005	7.42	1.44	0.750			
0.3135	20064.56	3.9380	3.9380	1.0027	7.41	1.43	0.750			
0.3165	20255.54	3.9350	3.9351	1.0058	7.40	1.42	0.750			
0.3195	20446.16	3.9320	3.9320	1.0290	7.39	1.41	0.750			
0.3226	20646.24	3.9290	3.9290	1.0473	7.37	1.39	0.750			
0.3258	20852.46	3.9260	3.9259	1.0643	7.35	1.37	0.750			
0.3290	21056.68	3.9230	3.9231	1.0704	7.34	1.36	0.750			
0.3323	21266.31	3.9200	3.9201	1.0866	7.33	1.35	0.750			
0.3356	21476.06	3.9170	3.9170	1.0876	7.32	1.34	0.750			
0.3389	21686.49	3.9140	3.9138	1.0856	7.30	1.32	0.750			
0.3421	21891.51	3.9110	3.9111	1.0838	7.29	1.31	0.750			
0.3453	22098.19	3.9080	3.9082	1.1017	7.29	1.31	0.750			
0.3486	22309.98	3.9050	3.9049	1.1204	7.28	1.30	0.750			
0.3520	22526.22	3.9020	3.9018	1.1326	7.27	1.29	0.750			
0.3554	22742.43	3.8990	3.8990	1.1510	7.26	1.28	0.750			
0.3589	22968.83	3.8960	3.8962	1.1698	7.24	1.26	0.750			
0.3625	23199.60	3.8930	3.8929	1.1874	7.23	1.25	0.750			
0.3661	23427.59	3.8900	3.8899	1.1897	7.21	1.23	0.750			
0.3696	23651.45	3.8870	3.8873	1.1925	7.20	1.22	0.750			
0.3731	23880.80	3.8840	3.8840	1.2177	7.18	1.20	0.750			
0.3768	24117.95	3.8810	3.8810	1.2348	7.16	1.18	0.750			
0.3806	24356.95	3.8780	3.8781	1.2398	7.15	1.17	0.750	0.400	0.819	
0.3844	24598.67	3.8750	3.8751	1.2565	7.14	1.16	0.750			
0.3882	24842.98	3.8720	3.8721	1.2559	7.12	1.14	0.750			
0.3919	25082.16	3.8690	3.8690	1.2751	7.11	1.13	0.750			
0.3956	25318.05	3.8660	3.8661	1.3014	7.10	1.12	0.750			
0.3995	25569.75	3.8630	3.8631	1.3318	7.08	1.10	0.750			
0.4036	25832.11	3.8600	3.8598	1.3638	7.06	1.08	0.750			
0.4078	26098.07	3.8570	3.8572	1.4061	7.05	1.07	0.750			
0.4121	26376.06	3.8540	3.8541	1.4332	7.04	1.06	0.750			
0.4165	26654.92	3.8510	3.8510	1.4528	7.02	1.04	0.750			
0.4208	26930.60	3.8480	3.8482	1.4524	7.00	1.02	0.750			
0.4252	27211.73	3.8450	3.8450	1.4735	6.98	1.00	0.750			
0.4297	27498.70	3.8420	3.8420	1.5007	6.96	0.98	0.750			
0.4343	27793.59	3.8390	3.8387	1.5016	6.95	0.97	0.750			
0.4387	28077.46	3.8360	3.8360	1.4993	6.93	0.95	0.750			
0.4433	28371.03	3.8330	3.8331	1.5171	6.91	0.93	0.750			
0.4478	28658.76	3.8300	3.8301	1.5393	6.90	0.92	0.750			
0.4524	28953.61	3.8270	3.8268	1.5563	6.88	0.90	0.750			
0.4571	29255.80	3.8240	3.8240	1.5866	6.86	0.88	0.750			
0.4620	29568.04	3.8210	3.8214	1.6141	6.84	0.86	0.750			
0.4670	29887.33	3.8180	3.8181	1.6208	6.82	0.84	0.750			
0.4718	30196.91	3.8150	3.8149	1.6450	6.81	0.83	0.750			
0.4767	30506.91	3.8120	3.8119	1.6750	6.79	0.81	0.750			
0.4818	30833.83	3.8090	3.8088	1.7014	6.77	0.79	0.750			
0.4870	31167.53	3.8060	3.8060	1.7065	6.74	0.76	0.750			
0.4922	31500.05	3.8030	3.8033	1.7344	6.72	0.74	0.750			
0.4975	31840.80	3.8000	3.8001	1.7480	6.70	0.72	0.750			
0.5027	32174.24	3.7970	3.7969	1.7545	6.68	0.70	0.750			
0.5078	32500.59	3.7940	3.7940	1.7480	6.66	0.68	0.750			
0.5130	32834.68	3.7910	3.7910	1.7823	6.64	0.66	0.750			
0.5184	33179.05	3.7880	3.7880	1.8182	6.62	0.64	0.750			
0.5240	33533.53	3.7850	3.7849	1.8744	6.60	0.62	0.750			
0.5296	33892.51	3.7820	3.7819	1.9120	6.58	0.60	0.750			
0.5354	34268.10	3.7790	3.7790	1.9690	6.56	0.58	0.750			
0.5415	34653.78	3.7760	3.7761	2.0150	6.53	0.55	0.750			
0.5476	35046.58	3.7730	3.7730	2.0382	6.51	0.53	0.750			
0.5536	35429.69	3.7700	3.7701	2.1093	6.48	0.50	0.750			
0.5599	35832.18	3.7670	3.7670	2.1858	6.46	0.48	0.750			
0.5666	36265.35	3.7640	3.7637	2.2900	6.43	0.45	0.750			
0.5737	36716.57	3.7610	3.7613	2.3899	6.41	0.43	0.750			
0.5811	37189.62	3.7580	3.7579	2.5314	6.39	0.41	0.750			
0.5887	37677.86	3.7550	3.7550	2.6570	6.36	0.38	0.750			
0.5970	38207.77	3.7520	3.7521	2.8324	6.33	0.35	0.750			
0.6058	38772.41	3.7490	3.7490	2.9592	6.30	0.32	0.750			
0.6150	39358.29	3.7460	3.7460	2.9828	6.27	0.29	0.750			
0.6240	39937.91	3.7430	3.7429	2.9664	6.23	0.25	0.750			
0.6328	40498.18	3.7400	3.7399	2.9189	6.21	0.23	0.750			
0.6416	41065.46	3.7370	3.7369	2.8107	6.18	0.20	0.750			
0.6500	41598.31	3.7340	3.7340	2.5548	6.16	0.18	0.750			
0.6572	42059.42	3.7310	3.7310	2.2660	6.14	0.16	0.750			
0.6633	42448.83	3.7280	3.7280	1.9537	6.12	0.14	0.750			
0.6688	42801.64	3.7250	3.7253	1.7215	6.11	0.13	0.750			
0.6734	43095.79	3.7220	3.7220	1.5254	6.10	0.12	0.750			
0.6775	43359.49	3.7190	3.7189	1.3539	6.09	0.11	0.750			
0.6812	43596.87	3.7160	3.7161	1.2573	6.08	0.10	0.750			
0.6847	43820.25	3.7130	3.7130	1.1838	6.08	0.10	0.750			
0.6881	44038.61	3.7100	3.7098	1.1480	6.07	0.09	0.750			
0.6915	44254.40	3.7070	3.7069	1.1027	6.06	0.08	0.750			
0.6947	44463.17	3.7040	3.7041	1.0850	6.06	0.08	0.750			
0.6980	44670.10	3.7010	3.7011	1.0659	6.05	0.07	0.750			
0.7012	44873.98	3.6980	3.6978	1.0451	6.04	0.06	0.750			
0.7042	45067.84	3.6950	3.6950	1.0112	6.04	0.06	0.750			
0.7072	45261.47	3.6920	3.6921	0.9930	6.03	0.05	0.750			
0.7102	45450.46	3.6890	3.6890	0.9714	6.03	0.05	0.750			
0.7131	45636.26	3.6860	3.6860	0.9468	6.02	0.04	0.750			
0.7159	45815.60	3.6830	3.6830	0.9298	6.02	0.04	0.750			
0.7186	45990.28	3.6800	3.6800	0.9115	6.01	0.03	0.750			
0.7213	46162.96	3.6770	3.6770	0.9036	6.01	0.03	0.750			
0.7240	46334.85	3.6740	3.6740	0.8951	6.00	0.02	0.750			
0.7267	46506.17	3.6710	3.6708	0.8892	6.00	0.02	0.750			
0.7293	46676.19	3.6680	3.6680	0.8836	6.00	0.02	0.750			
0.7320	46845.80	3.6650	3.6651	0.8755	5.99	0.01	0.750			
0.7346	47013.02	3.6620	3.6620	0.8640	5.99	0.01	0.750			
0.7371	47177.48	3.6590	3.6589	0.8608	5.98	0.00	0.750			
0.7397	47341.77	3.6560	3.6561	0.8429	5.98	0.00	0.750			
0.7423	47504.08	3.6530	3.6528	0.8296	5.98	0.00	0.750			
0.7448	47667.38	3.6500	3.6500	0.7999	5.98	0.00	0.750			
0.7472	47821.24	3.6470	3.6470	0.7570	5.98	0.00	0.750			
0.7495	47968.61	3.6440	3.6439	0.7007	5.98	0.00	0.750			
0.7516	48099.50	3.6410	3.6410	0.6245	5.98	0.00	0.750			
0.7533	48212.28	3.6380	3.6380	0.5367	5.98	0.00	0.750			
0.7546	48293.69	3.6350	3.6355	0.4690	5.98	0.00	0.750			
0.7559	48376.01	3.6320	3.6324	0.3851	5.98	0.00	0.750			
0.7569	48442.49	3.6290	3.6289	0.3198	5.98	0.00	0.750			
0.7577	48490.98	3.6260	3.6256	0.2446	5.98	0.00	0.750			
0.7582	48527.46	3.6230	3.6216	0.1870	5.98	0.00	0.750			
0.7586	48552.41	3.6200	3.6015	0.1358	5.98	0.00	0.750			
0.7587	48555.13	3.5990	3.5770	-0.1250	5.98	0.00	0.750			
0.7589	48572.17	3.6170	3.3449	0.0954	5.98	0.00	0.736			
0.7590	48575.60	3.6020	3.2982	-0.0882	5.98	0.00	0.733			
0.7592	48586.96	3.6140	3.1435	0.0586	5.98	0.00	0.724			
0.7592	48589.01	3.6050	3.1155	-0.0515	5.98	0.00	0.722			
0.7593	48594.69	3.6110	3.0381	0.0219	5.98	0.00	0.717			
0.7593	48595.38	3.6080	3.0288	-0.0148	5.98	0.00	0.717			
