Ah_balance (normalized)	Ah_balance (mAh)	Voltage - fit (V)	Voltage -  interpolate (V)	dQ/dV (1/V)	Temperature (°C)	Temperature - diff (°C)	Current (C)	R_DC 0ms (mOhm)	R_DC 50ms (mOhm)	R_DC 50 ms PEC (mOhm)
0.0000	0.00	4.0990	4.1241	0.0000	5.99	-0.00	-0.751			
0.0001	8.31	4.0960	4.0949	-0.0245	5.99	-0.00	-0.750			
0.0003	17.13	4.0930	4.0921	-0.0546	5.99	-0.00	-0.750			
0.0005	30.26	4.0900	4.0896	-0.0821	5.99	-0.00	-0.750			
0.0008	48.85	4.0870	4.0868	-0.1091	5.99	-0.00	-0.750			
0.0011	72.67	4.0840	4.0840	-0.1348	5.99	0.00	-0.750			
0.0016	101.11	4.0810	4.0811	-0.1609	5.99	0.00	-0.750			
0.0021	134.54	4.0780	4.0780	-0.1869	5.99	0.00	-0.750			
0.0027	174.19	4.0750	4.0750	-0.2105	5.99	0.00	-0.750			
0.0034	217.60	4.0720	4.0719	-0.2319	5.99	0.00	-0.750			
0.0041	264.58	4.0690	4.0690	-0.2537	5.99	0.00	-0.750			
0.0049	314.63	4.0660	4.0661	-0.2750	5.99	0.00	-0.750			
0.0058	369.30	4.0630	4.0630	-0.2962	5.99	0.00	-0.750			
0.0067	427.66	4.0600	4.0600	-0.3201	5.99	0.00	-0.750			
0.0077	490.72	4.0570	4.0569	-0.3442	6.00	0.01	-0.750			
0.0087	558.97	4.0540	4.0541	-0.3723	6.00	0.01	-0.750			
0.0099	634.45	4.0510	4.0510	-0.3947	6.00	0.01	-0.750			
0.0111	713.57	4.0480	4.0479	-0.4179	6.00	0.01	-0.750			
0.0124	796.02	4.0450	4.0450	-0.4386	6.00	0.01	-0.750			
0.0138	882.59	4.0420	4.0421	-0.4568	6.00	0.01	-0.750			
0.0152	970.82	4.0390	4.0389	-0.4773	6.00	0.01	-0.750			
0.0166	1063.69	4.0360	4.0360	-0.4979	6.01	0.02	-0.750			
0.0182	1161.89	4.0330	4.0330	-0.5137	6.01	0.02	-0.750			
0.0197	1263.20	4.0300	4.0300	-0.5374	6.01	0.02	-0.750			
0.0214	1369.41	4.0270	4.0270	-0.5519	6.01	0.02	-0.750			
0.0231	1476.93	4.0240	4.0240	-0.5668	6.02	0.03	-0.750			
0.0248	1587.43	4.0210	4.0210	-0.5826	6.02	0.03	-0.750			
0.0265	1698.91	4.0180	4.0180	-0.5977	6.02	0.03	-0.750			
0.0284	1816.09	4.0150	4.0150	-0.6106	6.03	0.04	-0.750			
0.0303	1936.24	4.0120	4.0120	-0.6237	6.03	0.04	-0.750			
0.0321	2055.99	4.0090	4.0090	-0.6383	6.04	0.05	-0.750			
0.0341	2181.98	4.0060	4.0059	-0.6504	6.05	0.06	-0.750			
0.0361	2307.43	4.0030	4.0030	-0.6595	6.05	0.06	-0.750			
0.0380	2435.05	4.0000	4.0002	-0.6673	6.06	0.07	-0.750			
0.0401	2564.15	3.9970	3.9970	-0.6722	6.07	0.08	-0.750			
0.0421	2694.90	3.9940	3.9939	-0.6821	6.07	0.08	-0.750			
0.0441	2825.33	3.9910	3.9911	-0.6888	6.08	0.09	-0.750			
0.0462	2957.74	3.9880	3.9879	-0.6904	6.09	0.10	-0.750			
0.0483	3094.07	3.9850	3.9850	-0.6951	6.09	0.10	-0.750			
0.0504	3227.06	3.9820	3.9821	-0.6956	6.10	0.11	-0.750			
0.0525	3361.38	3.9790	3.9790	-0.6966	6.11	0.12	-0.750			
0.0546	3494.26	3.9760	3.9759	-0.7001	6.11	0.12	-0.750			
0.0566	3625.16	3.9730	3.9730	-0.7109	6.12	0.13	-0.750			
0.0588	3765.20	3.9700	3.9699	-0.7124	6.13	0.14	-0.750			
0.0610	3905.75	3.9670	3.9668	-0.7201	6.13	0.14	-0.750			
0.0632	4043.65	3.9640	3.9643	-0.7260	6.14	0.15	-0.750			
0.0654	4184.54	3.9610	3.9611	-0.7263	6.15	0.16	-0.750			
0.0676	4324.85	3.9580	3.9577	-0.7234	6.16	0.17	-0.750			
0.0697	4461.24	3.9550	3.9550	-0.7281	6.17	0.18	-0.750			
0.0719	4601.72	3.9520	3.9521	-0.7342	6.17	0.18	-0.750			
0.0742	4746.05	3.9490	3.9488	-0.7374	6.18	0.19	-0.750			
0.0764	4886.61	3.9460	3.9462	-0.7401	6.19	0.20	-0.750			
0.0786	5027.84	3.9430	3.9430	-0.7393	6.20	0.21	-0.750			
0.0808	5171.42	3.9400	3.9399	-0.7455	6.21	0.22	-0.750			
0.0830	5311.81	3.9370	3.9370	-0.7439	6.22	0.23	-0.750			
0.0853	5459.65	3.9340	3.9340	-0.7473	6.23	0.24	-0.750			
0.0876	5603.62	3.9310	3.9310	-0.7509	6.24	0.25	-0.750			
0.0898	5748.44	3.9280	3.9279	-0.7552	6.25	0.26	-0.750			
0.0920	5891.13	3.9250	3.9251	-0.7610	6.26	0.27	-0.750			
0.0943	6036.43	3.9220	3.9218	-0.7712	6.27	0.28	-0.750			
0.0967	6185.92	3.9190	3.9190	-0.7697	6.28	0.29	-0.750			
0.0990	6335.69	3.9160	3.9160	-0.7724	6.29	0.30	-0.750			
0.1014	6487.62	3.9130	3.9132	-0.7700	6.30	0.31	-0.750			
0.1037	6635.49	3.9100	3.9098	-0.7610	6.31	0.32	-0.750			
0.1059	6776.26	3.9070	3.9071	-0.7653	6.32	0.33	-0.750			
0.1082	6922.87	3.9040	3.9039	-0.7644	6.34	0.35	-0.750			
0.1105	7069.69	3.9010	3.9008	-0.7618	6.35	0.36	-0.750			
0.1128	7217.43	3.8980	3.8981	-0.7702	6.36	0.37	-0.750			
0.1151	7365.62	3.8950	3.8951	-0.7740	6.37	0.38	-0.750			
0.1174	7514.43	3.8920	3.8920	-0.7812	6.38	0.39	-0.750			
0.1198	7664.26	3.8890	3.8889	-0.7799	6.39	0.40	-0.750			
0.1221	7812.39	3.8860	3.8861	-0.7809	6.40	0.41	-0.750			
0.1245	7967.92	3.8830	3.8829	-0.7831	6.40	0.41	-0.750			
0.1268	8116.81	3.8800	3.8801	-0.7837	6.41	0.42	-0.750			
0.1291	8264.89	3.8770	3.8770	-0.7824	6.43	0.44	-0.750			
0.1315	8415.69	3.8740	3.8740	-0.7844	6.44	0.45	-0.750			
0.1338	8565.94	3.8710	3.8709	-0.7793	6.45	0.46	-0.750			
0.1362	8716.81	3.8680	3.8680	-0.7825	6.46	0.47	-0.750			
0.1386	8867.94	3.8650	3.8652	-0.7829	6.47	0.48	-0.750			
0.1409	9018.90	3.8620	3.8620	-0.7834	6.48	0.49	-0.750			
0.1432	9164.79	3.8590	3.8590	-0.7852	6.49	0.50	-0.750			
0.1456	9317.45	3.8560	3.8560	-0.7924	6.50	0.51	-0.750			
0.1480	9471.33	3.8530	3.8529	-0.7978	6.51	0.52	-0.750			
0.1504	9625.82	3.8500	3.8499	-0.8012	6.52	0.53	-0.750			
0.1528	9780.33	3.8470	3.8471	-0.8059	6.53	0.54	-0.750			
0.1553	9937.18	3.8440	3.8440	-0.8069	6.54	0.55	-0.750			
0.1577	10093.31	3.8410	3.8408	-0.8013	6.55	0.56	-0.750			
0.1601	10244.53	3.8380	3.8381	-0.7976	6.56	0.57	-0.750			
0.1625	10398.42	3.8350	3.8352	-0.7987	6.57	0.58	-0.750			
0.1648	10550.22	3.8320	3.8318	-0.7956	6.58	0.59	-0.750			
0.1672	10700.98	3.8290	3.8289	-0.7971	6.59	0.60	-0.750			
0.1696	10854.09	3.8260	3.8262	-0.7944	6.60	0.61	-0.750			
0.1720	11006.05	3.8230	3.8230	-0.8013	6.61	0.62	-0.750			
0.1744	11163.83	3.8200	3.8200	-0.8094	6.62	0.63	-0.750			
0.1769	11318.95	3.8170	3.8169	-0.8088	6.63	0.64	-0.750			
0.1793	11473.27	3.8140	3.8140	-0.8132	6.65	0.66	-0.750			
0.1817	11630.85	3.8110	3.8111	-0.8146	6.66	0.67	-0.750			
0.1842	11786.67	3.8080	3.8080	-0.8148	6.67	0.68	-0.750			
0.1866	11944.62	3.8050	3.8048	-0.8205	6.68	0.69	-0.750			
0.1891	12100.34	3.8020	3.8022	-0.8172	6.69	0.70	-0.750			
0.1915	12257.01	3.7990	3.7989	-0.8276	6.70	0.71	-0.750			
0.1940	12416.92	3.7960	3.7960	-0.8328	6.71	0.72	-0.750			
0.1965	12577.09	3.7930	3.7930	-0.8275	6.72	0.73	-0.750			
0.1990	12738.24	3.7900	3.7900	-0.8336	6.73	0.74	-0.750			
0.2016	12900.03	3.7870	3.7871	-0.8280	6.74	0.75	-0.750			
0.2040	13058.36	3.7840	3.7838	-0.8220	6.75	0.76	-0.750			
0.2065	13213.97	3.7810	3.7811	-0.8232	6.76	0.77	-0.750			
0.2089	13371.96	3.7780	3.7779	-0.8160	6.77	0.78	-0.750			
0.2114	13529.38	3.7750	3.7749	-0.8182	6.78	0.79	-0.750			
0.2138	13686.31	3.7720	3.7722	-0.8243	6.79	0.80	-0.750			
0.2163	13843.95	3.7690	3.7689	-0.8227	6.80	0.81	-0.750			
0.2188	14002.61	3.7660	3.7659	-0.8282	6.81	0.82	-0.750			
0.2213	14161.53	3.7630	3.7631	-0.8260	6.82	0.83	-0.750			
0.2238	14321.49	3.7600	3.7599	-0.8266	6.83	0.84	-0.750			
0.2263	14480.99	3.7570	3.7570	-0.8255	6.84	0.85	-0.750			
0.2287	14636.98	3.7540	3.7541	-0.8238	6.85	0.86	-0.750			
0.2311	14792.66	3.7510	3.7510	-0.8352	6.86	0.87	-0.750			
0.2337	14954.48	3.7480	3.7478	-0.8433	6.87	0.88	-0.750			
0.2362	15115.71	3.7450	3.7450	-0.8534	6.88	0.89	-0.750			
0.2388	15281.95	3.7420	3.7421	-0.8693	6.89	0.90	-0.750			
0.2414	15452.59	3.7390	3.7390	-0.8852	6.90	0.91	-0.750			
0.2441	15625.51	3.7360	3.7359	-0.8849	6.91	0.92	-0.750			
0.2468	15794.79	3.7330	3.7330	-0.8817	6.92	0.93	-0.750			
0.2495	15966.20	3.7300	3.7300	-0.8747	6.93	0.94	-0.750			
0.2521	16135.30	3.7270	3.7269	-0.8653	6.93	0.94	-0.750			
0.2547	16297.90	3.7240	3.7240	-0.8599	6.94	0.95	-0.750			
0.2572	16460.23	3.7210	3.7211	-0.8573	6.95	0.96	-0.750			
0.2597	16621.95	3.7180	3.7179	-0.8614	6.96	0.97	-0.750			
0.2623	16788.12	3.7150	3.7149	-0.8743	6.97	0.98	-0.750			
0.2649	16955.68	3.7120	3.7119	-0.8848	6.98	0.99	-0.750			
0.2676	17128.37	3.7090	3.7090	-0.8981	6.99	1.00	-0.750			
0.2704	17306.13	3.7060	3.7059	-0.8993	7.00	1.01	-0.750			
0.2731	17478.97	3.7030	3.7030	-0.8947	7.01	1.02	-0.750			
0.2758	17651.04	3.7000	3.7000	-0.8942	7.02	1.03	-0.750			
0.2784	17820.45	3.6970	3.6971	-0.8943	7.03	1.04	-0.750			
0.2811	17990.77	3.6940	3.6939	-0.8980	7.04	1.05	-0.750			
0.2838	18160.15	3.6910	3.6909	-0.9046	7.05	1.06	-0.750			
0.2865	18335.98	3.6880	3.6881	-0.9160	7.05	1.06	-0.750			
0.2893	18515.42	3.6850	3.6851	-0.9263	7.06	1.07	-0.750			
0.2921	18694.41	3.6820	3.6820	-0.9459	7.07	1.08	-0.750			
0.2950	18877.76	3.6790	3.6791	-0.9520	7.08	1.09	-0.750			
0.2978	19058.86	3.6760	3.6759	-0.9593	7.08	1.09	-0.750			
0.3007	19246.87	3.6730	3.6732	-0.9625	7.09	1.10	-0.750			
0.3036	19432.43	3.6700	3.6699	-0.9658	7.10	1.11	-0.750			
0.3065	19617.97	3.6670	3.6671	-0.9714	7.10	1.11	-0.750			
0.3094	19804.39	3.6640	3.6641	-0.9724	7.11	1.12	-0.750			
0.3123	19990.21	3.6610	3.6609	-0.9753	7.12	1.13	-0.750			
0.3153	20178.37	3.6580	3.6579	-0.9843	7.12	1.13	-0.750			
0.3182	20366.58	3.6550	3.6550	-0.9962	7.13	1.14	-0.750			
0.3213	20562.59	3.6520	3.6520	-1.0058	7.14	1.15	-0.750			
0.3243	20756.32	3.6490	3.6489	-1.0064	7.15	1.16	-0.750			
0.3273	20949.91	3.6460	3.6462	-1.0157	7.15	1.16	-0.750			
0.3304	21145.85	3.6430	3.6429	-1.0262	7.16	1.17	-0.750			
0.3335	21341.58	3.6400	3.6398	-1.0248	7.17	1.18	-0.750			
0.3365	21536.46	3.6370	3.6370	-1.0270	7.18	1.19	-0.750			
0.3396	21735.37	3.6340	3.6342	-1.0519	7.19	1.20	-0.750			
0.3428	21941.63	3.6310	3.6310	-1.0646	7.20	1.21	-0.750			
0.3460	22146.95	3.6280	3.6278	-1.0717	7.21	1.22	-0.750			
0.3493	22352.15	3.6250	3.6250	-1.0717	7.22	1.23	-0.750			
0.3525	22560.50	3.6220	3.6221	-1.0802	7.22	1.23	-0.750			
0.3558	22771.37	3.6190	3.6190	-1.0880	7.23	1.24	-0.750			
0.3591	22979.32	3.6160	3.6159	-1.0810	7.23	1.24	-0.750			
0.3622	23182.56	3.6130	3.6131	-1.0761	7.24	1.25	-0.750			
0.3655	23389.73	3.6100	3.6100	-1.0978	7.24	1.25	-0.750			
0.3687	23598.74	3.6070	3.6070	-1.1147	7.25	1.26	-0.750			
0.3721	23815.23	3.6040	3.6038	-1.1348	7.25	1.26	-0.750			
0.3755	24034.59	3.6010	3.6011	-1.1486	7.26	1.27	-0.750			
0.3791	24261.23	3.5980	3.5980	-1.1654	7.27	1.28	-0.750			
0.3826	24488.76	3.5950	3.5951	-1.1707	7.27	1.28	-0.750			
0.3861	24712.48	3.5920	3.5920	-1.1677	7.28	1.29	-0.750			
0.3896	24934.44	3.5890	3.5892	-1.1723	7.28	1.29	-0.750	0.397	0.857	
0.3931	25158.72	3.5860	3.5860	-1.1796	7.28	1.29	-0.750			
0.3967	25386.00	3.5830	3.5829	-1.1978	7.29	1.30	-0.750			
0.4003	25617.89	3.5800	3.5801	-1.2140	7.29	1.30	-0.750			
0.4039	25852.62	3.5770	3.5769	-1.2246	7.30	1.31	-0.750			
0.4077	26093.74	3.5740	3.5741	-1.2357	7.30	1.31	-0.750			
0.4114	26331.32	3.5710	3.5709	-1.2367	7.31	1.32	-0.750			
0.4151	26567.81	3.5680	3.5681	-1.2321	7.31	1.32	-0.750			
0.4189	26806.90	3.5650	3.5650	-1.2268	7.32	1.33	-0.750			
0.4225	27038.33	3.5620	3.5619	-1.2304	7.32	1.33	-0.750			
0.4261	27272.68	3.5590	3.5593	-1.2443	7.33	1.34	-0.750			
0.4299	27510.83	3.5560	3.5560	-1.2684	7.34	1.35	-0.750			
0.4337	27756.73	3.5530	3.5528	-1.2928	7.34	1.35	-0.750			
0.4377	28009.99	3.5500	3.5500	-1.3080	7.35	1.36	-0.750			
0.4417	28268.41	3.5470	3.5469	-1.3222	7.36	1.37	-0.750			
0.4457	28524.13	3.5440	3.5441	-1.3272	7.36	1.37	-0.750			
0.4496	28777.37	3.5410	3.5410	-1.3272	7.37	1.38	-0.750			
0.4536	29032.34	3.5380	3.5380	-1.3306	7.37	1.38	-0.750			
0.4576	29286.84	3.5350	3.5349	-1.3191	7.38	1.39	-0.750			
0.4616	29539.48	3.5320	3.5320	-1.3343	7.39	1.40	-0.750			
0.4656	29798.87	3.5290	3.5291	-1.3441	7.39	1.40	-0.750			
0.4697	30060.31	3.5260	3.5258	-1.3490	7.40	1.41	-0.750			
0.4737	30315.39	3.5230	3.5232	-1.3544	7.41	1.42	-0.750			
0.4778	30576.06	3.5200	3.5200	-1.3526	7.41	1.42	-0.750			
0.4819	30839.24	3.5170	3.5169	-1.3556	7.42	1.43	-0.750			
0.4859	31100.63	3.5140	3.5139	-1.3672	7.43	1.44	-0.750			
0.4901	31364.49	3.5110	3.5111	-1.3557	7.43	1.44	-0.750			
0.4941	31621.56	3.5080	3.5079	-1.3624	7.44	1.45	-0.750			
0.4982	31882.33	3.5050	3.5050	-1.3633	7.45	1.46	-0.750			
0.5022	32143.60	3.5020	3.5020	-1.3509	7.45	1.46	-0.750			
0.5064	32407.85	3.4990	3.4988	-1.3495	7.46	1.47	-0.750			
0.5104	32664.17	3.4960	3.4960	-1.3593	7.47	1.48	-0.750			
0.5144	32924.50	3.4930	3.4931	-1.3470	7.48	1.49	-0.750			
0.5186	33187.75	3.4900	3.4899	-1.3430	7.49	1.50	-0.750			
0.5225	33440.64	3.4870	3.4870	-1.3220	7.50	1.51	-0.750			
0.5265	33694.69	3.4840	3.4842	-1.3296	7.51	1.52	-0.750			
0.5305	33954.47	3.4810	3.4809	-1.3247	7.52	1.53	-0.750			
0.5345	34207.58	3.4780	3.4779	-1.3114	7.52	1.53	-0.750			
0.5383	34452.90	3.4750	3.4754	-1.3086	7.53	1.54	-0.750			
0.5423	34709.38	3.4720	3.4718	-1.3180	7.54	1.55	-0.750			
0.5463	34960.83	3.4690	3.4689	-1.3105	7.55	1.56	-0.750			
0.5502	35210.39	3.4660	3.4662	-1.3080	7.56	1.57	-0.750			
0.5542	35465.95	3.4630	3.4630	-1.3061	7.57	1.58	-0.750			
0.5581	35719.17	3.4600	3.4599	-1.2925	7.58	1.59	-0.750			
0.5619	35963.59	3.4570	3.4571	-1.2735	7.59	1.60	-0.750			
0.5657	36203.26	3.4540	3.4541	-1.2566	7.60	1.61	-0.750			
0.5695	36446.29	3.4510	3.4509	-1.2425	7.60	1.61	-0.750			
0.5731	36680.18	3.4480	3.4479	-1.2390	7.61	1.62	-0.750			
0.5768	36913.31	3.4450	3.4452	-1.2373	7.62	1.63	-0.750			
0.5806	37155.72	3.4420	3.4419	-1.2479	7.64	1.65	-0.750			
0.5843	37396.82	3.4390	3.4389	-1.2392	7.65	1.66	-0.750			
0.5881	37637.23	3.4360	3.4361	-1.2240	7.66	1.67	-0.750			
0.5918	37872.92	3.4330	3.4330	-1.2044	7.67	1.68	-0.750			
0.5954	38103.03	3.4300	3.4301	-1.1818	7.69	1.70	-0.750			
0.5988	38322.47	3.4270	3.4269	-1.1540	7.70	1.71	-0.750			
0.6022	38542.80	3.4240	3.4240	-1.1410	7.71	1.72	-0.750			
0.6056	38758.01	3.4210	3.4210	-1.1223	7.73	1.74	-0.750			
0.6090	38975.77	3.4180	3.4180	-1.1124	7.74	1.75	-0.750			
0.6123	39186.55	3.4150	3.4150	-1.0943	7.75	1.76	-0.750			
0.6156	39396.93	3.4120	3.4119	-1.0881	7.76	1.77	-0.750			
0.6188	39605.54	3.4090	3.4090	-1.0655	7.77	1.78	-0.750			
0.6220	39809.01	3.4060	3.4058	-1.0421	7.78	1.79	-0.750			
0.6251	40008.56	3.4030	3.4032	-1.0150	7.80	1.81	-0.750			
0.6281	40200.73	3.4000	3.4000	-0.9938	7.81	1.82	-0.750			
0.6311	40388.28	3.3970	3.3970	-0.9677	7.82	1.83	-0.750			
0.6339	40567.67	3.3940	3.3940	-0.9417	7.83	1.84	-0.750			
0.6367	40747.01	3.3910	3.3909	-0.9238	7.84	1.85	-0.750			
0.6395	40925.53	3.3880	3.3880	-0.9166	7.86	1.87	-0.750			
0.6422	41099.73	3.3850	3.3850	-0.8997	7.87	1.88	-0.750			
0.6449	41272.57	3.3820	3.3820	-0.8855	7.89	1.90	-0.750			
0.6475	41439.95	3.3790	3.3789	-0.8609	7.90	1.91	-0.750			
0.6501	41605.06	3.3760	3.3760	-0.8462	7.92	1.93	-0.750			
0.6526	41765.24	3.3730	3.3729	-0.8193	7.93	1.94	-0.750			
0.6550	41920.75	3.3700	3.3699	-0.7975	7.94	1.95	-0.750			
0.6573	42069.64	3.3670	3.3671	-0.7738	7.95	1.96	-0.750			
0.6596	42216.49	3.3640	3.3640	-0.7546	7.96	1.97	-0.750			
0.6619	42359.98	3.3610	3.3610	-0.7358	7.97	1.98	-0.750			
0.6641	42500.22	3.3580	3.3580	-0.7159	7.98	1.99	-0.750			
0.6662	42634.01	3.3550	3.3551	-0.6975	8.00	2.01	-0.750			
0.6682	42766.55	3.3520	3.3520	-0.6859	8.01	2.02	-0.750			
0.6702	42894.29	3.3490	3.3491	-0.6727	8.02	2.03	-0.750			
0.6722	43023.37	3.3460	3.3459	-0.6590	8.04	2.05	-0.750			
0.6742	43150.50	3.3430	3.3429	-0.6460	8.05	2.06	-0.750			
0.6761	43272.91	3.3400	3.3401	-0.6336	8.06	2.07	-0.750			
0.6780	43394.02	3.3370	3.3371	-0.6220	8.08	2.09	-0.750			
0.6799	43510.92	3.3340	3.3338	-0.6046	8.09	2.10	-0.750			
0.6816	43624.82	3.3310	3.3309	-0.5886	8.10	2.11	-0.750			
0.6834	43736.00	3.3280	3.3281	-0.5730	8.11	2.12	-0.750			
0.6851	43845.97	3.3250	3.3250	-0.5627	8.13	2.14	-0.750			
0.6868	43953.61	3.3220	3.3220	-0.5514	8.14	2.15	-0.750			
0.6884	44056.65	3.3190	3.3192	-0.5374	8.15	2.16	-0.750			
0.6900	44157.94	3.3160	3.3160	-0.5267	8.16	2.17	-0.750			
0.6915	44258.55	3.3130	3.3129	-0.5172	8.18	2.19	-0.750			
0.6931	44357.04	3.3100	3.3100	-0.5044	8.19	2.20	-0.750			
0.6946	44453.76	3.3070	3.3070	-0.4959	8.20	2.21	-0.750			
0.6960	44546.21	3.3040	3.3041	-0.4819	8.21	2.22	-0.750			
0.6975	44637.65	3.3010	3.3011	-0.4719	8.22	2.23	-0.750			
0.6989	44726.97	3.2980	3.2979	-0.4639	8.23	2.24	-0.750			
0.7002	44814.27	3.2950	3.2951	-0.4573	8.25	2.26	-0.750			
0.7016	44902.32	3.2920	3.2920	-0.4507	8.26	2.27	-0.750			
0.7030	44989.69	3.2890	3.2889	-0.4455	8.27	2.28	-0.750			
0.7043	45074.11	3.2860	3.2861	-0.4361	8.28	2.29	-0.750			
0.7056	45156.61	3.2830	3.2830	-0.4244	8.29	2.30	-0.750			
0.7068	45237.23	3.2800	3.2801	-0.4148	8.30	2.31	-0.750			
0.7080	45314.81	3.2770	3.2770	-0.4068	8.31	2.32	-0.750			
0.7092	45391.47	3.2740	3.2738	-0.4011	8.32	2.33	-0.750			
0.7104	45468.78	3.2710	3.2710	-0.3920	8.33	2.34	-0.750			
0.7116	45542.89	3.2680	3.2680	-0.3832	8.34	2.35	-0.750			
0.7127	45615.78	3.2650	3.2652	-0.3790	8.35	2.36	-0.750			
0.7139	45688.62	3.2620	3.2618	-0.3731	8.36	2.37	-0.750			
0.7150	45758.67	3.2590	3.2589	-0.3655	8.37	2.38	-0.750			
0.7161	45827.75	3.2560	3.2560	-0.3605	8.38	2.39	-0.750			
0.7171	45896.78	3.2530	3.2531	-0.3540	8.39	2.40	-0.750			
0.7182	45965.19	3.2500	3.2500	-0.3502	8.40	2.41	-0.750			
0.7192	46031.47	3.2470	3.2470	-0.3419	8.41	2.42	-0.750			
0.7202	46095.62	3.2440	3.2439	-0.3365	8.42	2.43	-0.750			
0.7212	46159.25	3.2410	3.2410	-0.3338	8.43	2.44	-0.750			
0.7222	46222.62	3.2380	3.2379	-0.3311	8.44	2.45	-0.750			
0.7232	46286.20	3.2350	3.2349	-0.3265	8.45	2.46	-0.750			
0.7242	46349.45	3.2320	3.2321	-0.3233	8.46	2.47	-0.750			
0.7252	46411.36	3.2290	3.2290	-0.3187	8.47	2.48	-0.750			
0.7261	46472.40	3.2260	3.2261	-0.3142	8.47	2.48	-0.750			
0.7271	46531.90	3.2230	3.2229	-0.3056	8.48	2.49	-0.750			
0.7280	46589.51	3.2200	3.2200	-0.3005	8.49	2.50	-0.750			
0.7288	46646.11	3.2170	3.2170	-0.2965	8.50	2.51	-0.750			
0.7297	46703.01	3.2140	3.2140	-0.2940	8.52	2.53	-0.750			
0.7306	46759.20	3.2110	3.2108	-0.2896	8.53	2.54	-0.750			
0.7315	46814.23	3.2080	3.2081	-0.2868	8.54	2.55	-0.750			
0.7323	46868.92	3.2050	3.2050	-0.2856	8.54	2.55	-0.750			
0.7332	46924.20	3.2020	3.2019	-0.2826	8.55	2.56	-0.750			
0.7340	46978.27	3.1990	3.1990	-0.2795	8.56	2.57	-0.750			
0.7349	47031.05	3.1960	3.1961	-0.2750	8.57	2.58	-0.750			
0.7357	47083.90	3.1930	3.1930	-0.2717	8.58	2.59	-0.750			
0.7365	47136.09	3.1900	3.1900	-0.2678	8.59	2.60	-0.750			
0.7373	47186.67	3.1870	3.1871	-0.2624	8.60	2.61	-0.750			
0.7381	47236.89	3.1840	3.1839	-0.2567	8.61	2.62	-0.750			
0.7388	47285.29	3.1810	3.1810	-0.2546	8.62	2.63	-0.750			
0.7396	47332.95	3.1780	3.1781	-0.2504	8.63	2.64	-0.750			
0.7403	47380.62	3.1750	3.1751	-0.2484	8.64	2.65	-0.750			
0.7411	47427.94	3.1720	3.1718	-0.2468	8.64	2.65	-0.750			
0.7418	47475.80	3.1690	3.1691	-0.2452	8.65	2.66	-0.750			
0.7426	47523.33	3.1660	3.1661	-0.2429	8.66	2.67	-0.750			
0.7433	47570.45	3.1630	3.1630	-0.2404	8.67	2.68	-0.750			
0.7440	47616.67	3.1600	3.1600	-0.2388	8.68	2.69	-0.750			
0.7447	47661.11	3.1570	3.1569	-0.2332	8.69	2.70	-0.750			
0.7454	47705.41	3.1540	3.1540	-0.2314	8.70	2.71	-0.750			
0.7461	47749.82	3.1510	3.1511	-0.2291	8.71	2.72	-0.750			
0.7468	47793.39	3.1480	3.1480	-0.2267	8.72	2.73	-0.750			
0.7475	47837.24	3.1450	3.1448	-0.2246	8.72	2.73	-0.750			
0.7481	47879.90	3.1420	3.1421	-0.2231	8.73	2.74	-0.750			
0.7488	47922.07	3.1390	3.1391	-0.2200	8.74	2.75	-0.750			
0.7494	47964.58	3.1360	3.1359	-0.2189	8.75	2.76	-0.750			
0.7501	48006.38	3.1330	3.1328	-0.2166	8.75	2.76	-0.750			
0.7507	48047.44	3.1300	3.1301	-0.2145	8.76	2.77	-0.750			
0.7514	48088.80	3.1270	3.1270	-0.2131	8.77	2.78	-0.750			
0.7520	48129.34	3.1240	3.1239	-0.2115	8.78	2.79	-0.750			
0.7527	48169.74	3.1210	3.1210	-0.2097	8.79	2.80	-0.750			
0.7533	48209.47	3.1180	3.1179	-0.2075	8.80	2.81	-0.750			
0.7539	48249.57	3.1150	3.1149	-0.2057	8.81	2.82	-0.750			
0.7545	48288.63	3.1120	3.1121	-0.2047	8.82	2.83	-0.750			
0.7551	48327.79	3.1090	3.1090	-0.2032	8.83	2.84	-0.750			
0.7557	48366.34	3.1060	3.1060	-0.2028	8.83	2.84	-0.750			
0.7563	48405.33	3.1030	3.1029	-0.2014	8.84	2.85	-0.750			
0.7569	48443.82	3.1000	3.0999	-0.2000	8.85	2.86	-0.750			
0.7575	48482.38	3.0970	3.0971	-0.1985	8.86	2.87	-0.750			
0.7581	48520.75	3.0940	3.0941	-0.1975	8.87	2.88	-0.750			
0.7587	48559.04	3.0910	3.0910	-0.1951	8.88	2.89	-0.750			
0.7593	48595.61	3.0880	3.0881	-0.1926	8.89	2.90	-0.750			
0.7599	48632.42	3.0850	3.0850	-0.1900	8.89	2.90	-0.750			
0.7604	48668.71	3.0820	3.0821	-0.1881	8.90	2.91	-0.750			
0.7610	48704.58	3.0790	3.0789	-0.1874	8.91	2.92	-0.750			
0.7616	48739.99	3.0760	3.0761	-0.1861	8.92	2.93	-0.750			
0.7621	48775.50	3.0730	3.0730	-0.1861	8.92	2.93	-0.750			
0.7627	48811.25	3.0700	3.0699	-0.1864	8.93	2.94	-0.750			
0.7632	48847.18	3.0670	3.0670	-0.1861	8.94	2.95	-0.750			
0.7638	48883.22	3.0640	3.0640	-0.1838	8.95	2.96	-0.750			
0.7644	48918.71	3.0610	3.0610	-0.1841	8.96	2.97	-0.750			
0.7649	48953.84	3.0580	3.0581	-0.1818	8.97	2.98	-0.750			
0.7654	48988.41	3.0550	3.0551	-0.1798	8.98	2.99	-0.750			
0.7660	49022.66	3.0520	3.0518	-0.1781	8.99	3.00	-0.750			
0.7665	49056.42	3.0490	3.0490	-0.1759	8.99	3.00	-0.750			
0.7670	49090.10	3.0460	3.0460	-0.1750	9.00	3.01	-0.750			
0.7676	49123.57	3.0430	3.0430	-0.1742	9.01	3.02	-0.750			
0.7681	49157.31	3.0400	3.0400	-0.1737	9.02	3.03	-0.750			
0.7686	49190.02	3.0370	3.0370	-0.1717	9.03	3.04	-0.750			
0.7691	49222.93	3.0340	3.0340	-0.1712	9.04	3.05	-0.750			
0.7696	49255.91	3.0310	3.0310	-0.1704	9.05	3.06	-0.750			
0.7701	49288.65	3.0280	3.0279	-0.1694	9.06	3.07	-0.750			
0.7706	49321.02	3.0250	3.0250	-0.1685	9.07	3.08	-0.750			
0.7711	49353.27	3.0220	3.0221	-0.1674	9.07	3.08	-0.750			
0.7716	49385.21	3.0190	3.0190	-0.1665	9.08	3.09	-0.750			
0.7721	49417.14	3.0160	3.0160	-0.1658	9.09	3.10	-0.750			
0.7726	49448.66	3.0130	3.0130	-0.1648	9.10	3.11	-0.750			
0.7731	49480.28	3.0100	3.0101	-0.1646	9.11	3.12	-0.750			
0.7736	49511.89	3.0070	3.0070	-0.1643	9.12	3.13	-0.750			
0.7741	49543.43	3.0040	3.0041	-0.1638	9.12	3.13	-0.750			
0.7746	49574.83	3.0010	3.0009	-0.1649	9.13	3.14	-0.750			
