Ah_balance (normalized)	Ah_balance (mAh)	Voltage - fit (V)	Voltage -  interpolate (V)	dQ/dV (1/V)	Temperature (°C)	Temperature - diff (°C)	Current (C)	R_DC 0ms (mOhm)	R_DC 50ms (mOhm)	R_DC 50 ms PEC (mOhm)
0.0000	0.00	4.0940	4.1320	0.0000	5.98	-0.01	-0.749			
0.0000	0.00	4.0970	4.1320	0.0000	5.98	-0.01	-0.749			
0.0002	12.30	4.0910	4.0906	-0.0482	5.98	-0.01	-0.750			
0.0004	26.46	4.0880	4.0873	-0.0750	5.98	-0.01	-0.750			
0.0007	43.35	4.0850	4.0847	-0.1009	5.98	-0.01	-0.750			
0.0010	65.72	4.0820	4.0818	-0.1248	5.98	-0.01	-0.750			
0.0014	92.23	4.0790	4.0791	-0.1489	5.98	-0.01	-0.750			
0.0019	123.20	4.0760	4.0762	-0.1735	5.98	-0.01	-0.750			
0.0025	159.78	4.0730	4.0729	-0.1980	5.98	-0.01	-0.750			
0.0031	199.94	4.0700	4.0700	-0.2205	5.98	-0.01	-0.750			
0.0038	243.74	4.0670	4.0670	-0.2445	5.98	-0.01	-0.750			
0.0046	293.70	4.0640	4.0640	-0.2657	5.98	-0.01	-0.750			
0.0054	346.88	4.0610	4.0610	-0.2860	5.98	-0.01	-0.750			
0.0063	403.63	4.0580	4.0581	-0.3115	5.99	-0.00	-0.750			
0.0073	466.29	4.0550	4.0548	-0.3311	5.99	-0.00	-0.750			
0.0083	532.20	4.0520	4.0519	-0.3510	5.99	-0.00	-0.750			
0.0094	601.01	4.0490	4.0492	-0.3724	5.99	0.00	-0.750			
0.0105	674.36	4.0460	4.0461	-0.3923	5.99	0.00	-0.750			
0.0117	751.93	4.0430	4.0429	-0.4153	5.99	0.00	-0.750			
0.0130	832.46	4.0400	4.0399	-0.4366	6.00	0.01	-0.750			
0.0144	918.60	4.0370	4.0371	-0.4556	6.00	0.01	-0.750			
0.0158	1008.52	4.0340	4.0340	-0.4807	6.00	0.01	-0.750			
0.0172	1103.89	4.0310	4.0311	-0.5005	6.00	0.01	-0.750			
0.0188	1201.55	4.0280	4.0280	-0.5185	6.01	0.02	-0.750			
0.0204	1303.15	4.0250	4.0249	-0.5377	6.01	0.02	-0.750			
0.0220	1408.95	4.0220	4.0221	-0.5516	6.01	0.02	-0.750			
0.0237	1515.89	4.0190	4.0189	-0.5685	6.01	0.02	-0.750			
0.0254	1627.30	4.0160	4.0161	-0.5844	6.02	0.03	-0.750			
0.0272	1740.57	4.0130	4.0131	-0.5961	6.02	0.03	-0.750			
0.0290	1857.40	4.0100	4.0099	-0.6105	6.03	0.04	-0.750			
0.0309	1975.53	4.0070	4.0070	-0.6190	6.03	0.04	-0.750			
0.0327	2095.94	4.0040	4.0040	-0.6259	6.04	0.05	-0.750			
0.0346	2216.69	4.0010	4.0012	-0.6348	6.04	0.05	-0.750			
0.0365	2338.38	3.9980	3.9978	-0.6411	6.05	0.06	-0.750			
0.0385	2462.42	3.9950	3.9951	-0.6527	6.05	0.06	-0.750			
0.0404	2588.35	3.9920	3.9920	-0.6620	6.06	0.07	-0.750			
0.0425	2718.16	3.9890	3.9890	-0.6748	6.07	0.08	-0.750			
0.0445	2848.69	3.9860	3.9860	-0.6827	6.07	0.08	-0.750			
0.0466	2981.18	3.9830	3.9830	-0.6904	6.08	0.09	-0.750			
0.0486	3113.14	3.9800	3.9799	-0.6992	6.09	0.10	-0.750			
0.0508	3248.73	3.9770	3.9770	-0.7018	6.10	0.11	-0.750			
0.0529	3384.89	3.9740	3.9739	-0.7058	6.10	0.11	-0.750			
0.0550	3521.87	3.9710	3.9711	-0.7055	6.11	0.12	-0.750			
0.0572	3658.87	3.9680	3.9680	-0.7044	6.12	0.13	-0.750			
0.0593	3792.76	3.9650	3.9653	-0.7015	6.13	0.14	-0.750			
0.0613	3926.03	3.9620	3.9619	-0.7002	6.14	0.15	-0.750			
0.0634	4056.48	3.9590	3.9591	-0.7097	6.15	0.16	-0.750			
0.0655	4193.14	3.9560	3.9559	-0.7203	6.15	0.16	-0.750			
0.0677	4335.91	3.9530	3.9529	-0.7245	6.16	0.17	-0.750			
0.0699	4475.48	3.9500	3.9499	-0.7267	6.17	0.18	-0.750			
0.0721	4616.52	3.9470	3.9474	-0.7327	6.18	0.19	-0.750			
0.0743	4757.09	3.9440	3.9439	-0.7327	6.19	0.20	-0.750			
0.0765	4895.21	3.9410	3.9409	-0.7308	6.20	0.21	-0.750			
0.0787	5034.33	3.9380	3.9380	-0.7337	6.21	0.22	-0.750			
0.0809	5176.64	3.9350	3.9351	-0.7426	6.22	0.23	-0.750			
0.0832	5321.64	3.9320	3.9319	-0.7459	6.23	0.24	-0.750			
0.0854	5465.12	3.9290	3.9290	-0.7446	6.24	0.25	-0.750			
0.0876	5607.08	3.9260	3.9261	-0.7518	6.25	0.26	-0.750			
0.0899	5752.88	3.9230	3.9231	-0.7500	6.26	0.27	-0.750			
0.0921	5897.13	3.9200	3.9198	-0.7457	6.27	0.28	-0.750			
0.0944	6039.42	3.9170	3.9171	-0.7474	6.28	0.29	-0.750			
0.0966	6183.43	3.9140	3.9142	-0.7457	6.29	0.30	-0.750			
0.0988	6326.40	3.9110	3.9108	-0.7445	6.30	0.31	-0.750			
0.1011	6467.65	3.9080	3.9080	-0.7487	6.31	0.32	-0.750			
0.1033	6611.52	3.9050	3.9052	-0.7461	6.32	0.33	-0.750			
0.1056	6757.48	3.9020	3.9018	-0.7562	6.33	0.34	-0.750			
0.1078	6902.30	3.8990	3.8990	-0.7535	6.34	0.35	-0.750			
0.1101	7044.85	3.8960	3.8960	-0.7508	6.35	0.36	-0.750			
0.1123	7189.67	3.8930	3.8930	-0.7575	6.36	0.37	-0.750			
0.1146	7334.01	3.8900	3.8900	-0.7620	6.37	0.38	-0.750			
0.1169	7478.74	3.8870	3.8871	-0.7727	6.38	0.39	-0.750			
0.1193	7632.68	3.8840	3.8839	-0.7784	6.39	0.40	-0.750			
0.1216	7783.00	3.8810	3.8809	-0.7801	6.40	0.41	-0.750			
0.1240	7935.85	3.8780	3.8781	-0.7734	6.41	0.42	-0.750			
0.1263	8083.50	3.8750	3.8750	-0.7670	6.42	0.43	-0.750			
0.1286	8228.72	3.8720	3.8720	-0.7599	6.43	0.44	-0.750			
0.1308	8372.25	3.8690	3.8690	-0.7554	6.44	0.45	-0.750			
0.1330	8513.09	3.8660	3.8659	-0.7568	6.45	0.46	-0.750			
0.1353	8660.43	3.8630	3.8631	-0.7668	6.46	0.47	-0.750			
0.1376	8807.75	3.8600	3.8599	-0.7722	6.48	0.49	-0.750			
0.1400	8958.09	3.8570	3.8571	-0.7812	6.49	0.50	-0.750			
0.1423	9109.28	3.8540	3.8540	-0.7811	6.50	0.51	-0.750			
0.1447	9260.37	3.8510	3.8509	-0.7835	6.51	0.52	-0.750			
0.1470	9409.86	3.8480	3.8483	-0.7869	6.52	0.53	-0.750			
0.1494	9560.09	3.8450	3.8450	-0.7922	6.53	0.54	-0.750			
0.1518	9716.34	3.8420	3.8419	-0.7975	6.54	0.55	-0.750			
0.1542	9871.46	3.8390	3.8390	-0.7934	6.55	0.56	-0.750			
0.1566	10025.46	3.8360	3.8359	-0.7881	6.56	0.57	-0.750			
0.1590	10176.16	3.8330	3.8334	-0.7812	6.57	0.58	-0.750			
0.1613	10322.68	3.8300	3.8299	-0.7744	6.58	0.59	-0.750			
0.1636	10467.36	3.8270	3.8270	-0.7752	6.59	0.60	-0.750			
0.1658	10613.25	3.8240	3.8240	-0.7754	6.60	0.61	-0.750			
0.1682	10767.37	3.8210	3.8209	-0.7922	6.61	0.62	-0.750			
0.1706	10918.50	3.8180	3.8181	-0.7922	6.62	0.63	-0.750			
0.1730	11073.52	3.8150	3.8150	-0.8013	6.64	0.65	-0.750			
0.1754	11227.39	3.8120	3.8120	-0.7980	6.65	0.66	-0.750			
0.1778	11379.08	3.8090	3.8090	-0.7921	6.66	0.67	-0.750			
0.1802	11530.46	3.8060	3.8061	-0.7957	6.67	0.68	-0.750			
0.1826	11684.42	3.8030	3.8029	-0.8008	6.68	0.69	-0.750			
0.1850	11839.26	3.8000	3.8001	-0.8017	6.69	0.70	-0.750			
0.1874	11992.79	3.7970	3.7969	-0.8006	6.70	0.71	-0.750			
0.1898	12147.06	3.7940	3.7941	-0.8060	6.72	0.73	-0.750			
0.1923	12305.19	3.7910	3.7909	-0.7981	6.73	0.74	-0.750			
0.1947	12457.93	3.7880	3.7879	-0.7916	6.74	0.75	-0.750			
0.1970	12606.20	3.7850	3.7854	-0.7877	6.75	0.76	-0.750			
0.1993	12756.05	3.7820	3.7820	-0.7917	6.76	0.77	-0.750			
0.2017	12908.29	3.7790	3.7788	-0.8014	6.77	0.78	-0.750			
0.2041	13061.30	3.7760	3.7759	-0.8012	6.78	0.79	-0.750			
0.2065	13218.66	3.7730	3.7731	-0.8119	6.80	0.81	-0.750			
0.2090	13377.07	3.7700	3.7702	-0.8127	6.81	0.82	-0.750			
0.2114	13532.08	3.7670	3.7669	-0.8185	6.82	0.83	-0.750			
0.2139	13689.07	3.7640	3.7640	-0.8178	6.83	0.84	-0.750			
0.2163	13843.19	3.7610	3.7609	-0.8185	6.84	0.85	-0.750			
0.2188	14002.89	3.7580	3.7581	-0.8160	6.85	0.86	-0.750			
0.2213	14163.41	3.7550	3.7550	-0.8182	6.86	0.87	-0.750			
0.2237	14317.14	3.7520	3.7520	-0.8229	6.87	0.88	-0.750			
0.2262	14475.32	3.7490	3.7491	-0.8316	6.88	0.89	-0.750			
0.2287	14634.21	3.7460	3.7458	-0.8343	6.89	0.90	-0.750			
0.2312	14797.42	3.7430	3.7429	-0.8384	6.90	0.91	-0.750			
0.2337	14959.42	3.7400	3.7401	-0.8422	6.92	0.93	-0.750			
0.2363	15122.91	3.7370	3.7369	-0.8504	6.93	0.94	-0.750			
0.2388	15285.63	3.7340	3.7340	-0.8510	6.94	0.95	-0.750			
0.2414	15446.70	3.7310	3.7309	-0.8468	6.95	0.96	-0.750			
0.2439	15609.07	3.7280	3.7281	-0.8504	6.96	0.97	-0.750			
0.2465	15775.52	3.7250	3.7250	-0.8616	6.97	0.98	-0.750			
0.2491	15940.71	3.7220	3.7220	-0.8672	6.98	0.99	-0.750			
0.2517	16107.77	3.7190	3.7190	-0.8688	6.99	1.00	-0.750			
0.2543	16275.61	3.7160	3.7160	-0.8648	7.01	1.02	-0.750			
0.2569	16442.73	3.7130	3.7130	-0.8643	7.02	1.03	-0.750			
0.2595	16609.48	3.7100	3.7102	-0.8687	7.03	1.04	-0.750			
0.2621	16774.04	3.7070	3.7069	-0.8687	7.04	1.05	-0.750			
0.2647	16938.91	3.7040	3.7040	-0.8716	7.05	1.06	-0.750			
0.2673	17107.84	3.7010	3.7010	-0.8755	7.06	1.07	-0.750			
0.2699	17274.89	3.6980	3.6980	-0.8924	7.07	1.08	-0.750			
0.2726	17447.84	3.6950	3.6951	-0.9075	7.08	1.09	-0.750			
0.2754	17623.19	3.6920	3.6921	-0.9184	7.09	1.10	-0.750			
0.2782	17802.02	3.6890	3.6889	-0.9240	7.10	1.11	-0.750			
0.2810	17983.71	3.6860	3.6861	-0.9261	7.11	1.12	-0.750			
0.2838	18162.30	3.6830	3.6831	-0.9276	7.12	1.13	-0.750			
0.2866	18339.80	3.6800	3.6800	-0.9296	7.13	1.14	-0.750			
0.2893	18514.07	3.6770	3.6770	-0.9233	7.14	1.15	-0.750			
0.2920	18688.85	3.6740	3.6740	-0.9281	7.15	1.16	-0.750			
0.2948	18869.19	3.6710	3.6707	-0.9348	7.16	1.17	-0.750			
0.2977	19051.57	3.6680	3.6682	-0.9477	7.17	1.18	-0.750			
0.3005	19234.07	3.6650	3.6650	-0.9575	7.18	1.19	-0.750			
0.3034	19419.17	3.6620	3.6620	-0.9629	7.19	1.20	-0.750			
0.3063	19603.45	3.6590	3.6589	-0.9632	7.20	1.21	-0.750			
0.3092	19791.80	3.6560	3.6561	-0.9753	7.21	1.22	-0.750			
0.3122	19979.36	3.6530	3.6530	-0.9778	7.22	1.23	-0.750			
0.3151	20167.51	3.6500	3.6501	-0.9864	7.22	1.23	-0.750			
0.3181	20355.33	3.6470	3.6470	-0.9910	7.23	1.24	-0.750			
0.3210	20546.46	3.6440	3.6438	-1.0014	7.24	1.25	-0.750			
0.3241	20739.36	3.6410	3.6410	-1.0149	7.25	1.26	-0.750			
0.3271	20935.69	3.6380	3.6380	-1.0239	7.26	1.27	-0.750			
0.3302	21135.60	3.6350	3.6350	-1.0358	7.27	1.28	-0.750			
0.3334	21335.67	3.6320	3.6320	-1.0373	7.28	1.29	-0.750			
0.3365	21536.14	3.6290	3.6290	-1.0467	7.29	1.30	-0.750			
0.3397	21738.86	3.6260	3.6260	-1.0499	7.29	1.30	-0.750			
0.3428	21938.77	3.6230	3.6230	-1.0531	7.30	1.31	-0.750			
0.3459	22139.60	3.6200	3.6200	-1.0603	7.31	1.32	-0.750			
0.3491	22345.55	3.6170	3.6170	-1.0770	7.32	1.33	-0.750			
0.3524	22552.94	3.6140	3.6139	-1.0816	7.32	1.33	-0.750			
0.3557	22762.73	3.6110	3.6110	-1.0930	7.33	1.34	-0.750			
0.3590	22973.49	3.6080	3.6083	-1.0935	7.34	1.35	-0.750			
0.3623	23186.14	3.6050	3.6048	-1.1101	7.35	1.36	-0.750			
0.3656	23398.71	3.6020	3.6021	-1.1132	7.35	1.36	-0.750			
0.3689	23609.68	3.5990	3.5989	-1.1176	7.36	1.37	-0.750			
0.3723	23827.66	3.5960	3.5961	-1.1492	7.37	1.38	-0.750			
0.3758	24052.05	3.5930	3.5928	-1.1516	7.38	1.39	-0.750			
0.3792	24271.83	3.5900	3.5899	-1.1522	7.38	1.39	-0.750			
0.3828	24497.47	3.5870	3.5871	-1.1553	7.39	1.40	-0.750	0.422	0.847	
0.3863	24720.67	3.5840	3.5839	-1.1612	7.39	1.40	-0.750			
0.3897	24941.83	3.5810	3.5809	-1.1634	7.40	1.41	-0.750			
0.3931	25160.07	3.5780	3.5779	-1.1565	7.41	1.42	-0.750			
0.3966	25383.53	3.5750	3.5753	-1.1829	7.42	1.43	-0.750			
0.4002	25611.98	3.5720	3.5719	-1.2106	7.43	1.44	-0.750			
0.4038	25846.09	3.5690	3.5690	-1.2264	7.44	1.45	-0.750			
0.4076	26084.36	3.5660	3.5659	-1.2436	7.45	1.46	-0.750			
0.4114	26331.27	3.5630	3.5630	-1.2559	7.45	1.46	-0.750			
0.4152	26571.73	3.5600	3.5601	-1.2487	7.46	1.47	-0.750			
0.4189	26811.74	3.5570	3.5569	-1.2465	7.47	1.48	-0.750			
0.4226	27045.67	3.5540	3.5541	-1.2563	7.47	1.48	-0.750			
0.4264	27287.71	3.5510	3.5509	-1.2651	7.48	1.49	-0.750			
0.4302	27533.77	3.5480	3.5479	-1.2748	7.48	1.49	-0.750			
0.4341	27781.36	3.5450	3.5453	-1.2737	7.49	1.50	-0.750			
0.4380	28031.68	3.5420	3.5419	-1.2811	7.50	1.51	-0.750			
0.4418	28273.83	3.5390	3.5391	-1.2819	7.51	1.52	-0.750			
0.4455	28514.41	3.5360	3.5360	-1.2832	7.52	1.53	-0.750			
0.4494	28761.11	3.5330	3.5329	-1.2940	7.53	1.54	-0.750			
0.4533	29010.66	3.5300	3.5300	-1.3048	7.54	1.55	-0.750			
0.4572	29263.80	3.5270	3.5269	-1.3143	7.54	1.55	-0.750			
0.4612	29517.39	3.5240	3.5241	-1.3172	7.55	1.56	-0.750			
0.4652	29771.35	3.5210	3.5210	-1.3185	7.56	1.57	-0.750			
0.4691	30022.36	3.5180	3.5179	-1.3138	7.57	1.58	-0.750			
0.4730	30274.37	3.5150	3.5150	-1.3202	7.57	1.58	-0.750			
0.4771	30531.98	3.5120	3.5120	-1.3166	7.58	1.59	-0.750			
0.4810	30785.57	3.5090	3.5090	-1.3158	7.59	1.60	-0.750			
0.4850	31037.39	3.5060	3.5062	-1.3172	7.60	1.61	-0.750			
0.4890	31294.19	3.5030	3.5028	-1.3089	7.61	1.62	-0.750			
0.4929	31543.19	3.5000	3.4999	-1.2980	7.62	1.63	-0.750			
0.4967	31789.47	3.4970	3.4974	-1.2982	7.63	1.64	-0.750			
0.5006	32038.24	3.4940	3.4940	-1.2992	7.64	1.65	-0.750			
0.5045	32289.33	3.4910	3.4908	-1.2949	7.65	1.66	-0.750			
0.5083	32531.46	3.4880	3.4880	-1.2964	7.66	1.67	-0.750			
0.5123	32787.18	3.4850	3.4851	-1.2934	7.67	1.68	-0.750			
0.5162	33036.51	3.4820	3.4820	-1.2839	7.68	1.69	-0.750			
0.5200	33279.80	3.4790	3.4790	-1.2755	7.69	1.70	-0.750			
0.5238	33523.07	3.4760	3.4759	-1.2636	7.70	1.71	-0.750			
0.5276	33764.76	3.4730	3.4729	-1.2484	7.71	1.72	-0.750			
0.5313	34001.67	3.4700	3.4700	-1.2462	7.72	1.73	-0.750			
0.5350	34237.08	3.4670	3.4672	-1.2425	7.73	1.74	-0.750			
0.5388	34480.85	3.4640	3.4638	-1.2504	7.74	1.75	-0.750			
0.5425	34718.74	3.4610	3.4610	-1.2424	7.75	1.76	-0.750			
0.5462	34957.15	3.4580	3.4580	-1.2385	7.76	1.77	-0.750			
0.5500	35197.70	3.4550	3.4550	-1.2346	7.77	1.78	-0.750			
0.5537	35435.05	3.4520	3.4518	-1.2233	7.78	1.79	-0.750			
0.5573	35664.06	3.4490	3.4491	-1.2064	7.79	1.80	-0.750			
0.5609	35894.59	3.4460	3.4458	-1.2014	7.80	1.81	-0.750			
0.5645	36126.43	3.4430	3.4431	-1.1945	7.82	1.83	-0.750			
0.5680	36354.75	3.4400	3.4400	-1.1876	7.83	1.84	-0.750			
0.5716	36581.67	3.4370	3.4370	-1.1809	7.84	1.85	-0.750			
0.5752	36810.78	3.4340	3.4340	-1.1748	7.85	1.86	-0.750			
0.5787	37034.37	3.4310	3.4309	-1.1598	7.87	1.88	-0.750			
0.5821	37255.68	3.4280	3.4280	-1.1461	7.88	1.89	-0.750			
0.5855	37472.76	3.4250	3.4251	-1.1409	7.89	1.90	-0.750			
0.5889	37691.65	3.4220	3.4219	-1.1285	7.91	1.92	-0.750			
0.5923	37907.90	3.4190	3.4189	-1.1058	7.92	1.93	-0.750			
0.5956	38120.15	3.4160	3.4159	-1.0818	7.94	1.95	-0.750			
0.5989	38326.63	3.4130	3.4132	-1.0577	7.95	1.96	-0.750			
0.6020	38527.32	3.4100	3.4099	-1.0328	7.96	1.97	-0.750			
0.6050	38721.03	3.4070	3.4069	-1.0050	7.97	1.98	-0.750			
0.6079	38906.82	3.4040	3.4040	-0.9842	7.98	1.99	-0.750			
0.6109	39094.44	3.4010	3.4010	-0.9727	7.99	2.00	-0.750			
0.6138	39282.64	3.3980	3.3980	-0.9752	8.00	2.01	-0.750			
0.6167	39470.86	3.3950	3.3949	-0.9533	8.02	2.03	-0.750			
0.6196	39653.22	3.3920	3.3920	-0.9406	8.03	2.04	-0.750			
0.6224	39833.52	3.3890	3.3893	-0.9224	8.04	2.05	-0.750			
0.6251	40009.09	3.3860	3.3858	-0.9046	8.06	2.07	-0.750			
0.6278	40178.82	3.3830	3.3830	-0.8878	8.07	2.08	-0.750			
0.6304	40345.88	3.3800	3.3801	-0.8686	8.08	2.09	-0.750			
0.6330	40512.96	3.3770	3.3769	-0.8531	8.09	2.10	-0.750			
0.6356	40676.65	3.3740	3.3740	-0.8348	8.11	2.12	-0.750			
0.6380	40833.39	3.3710	3.3711	-0.8112	8.12	2.13	-0.750			
0.6404	40988.28	3.3680	3.3679	-0.7899	8.13	2.14	-0.750			
0.6428	41136.42	3.3650	3.3651	-0.7680	8.15	2.16	-0.750			
0.6450	41281.95	3.3620	3.3620	-0.7468	8.16	2.17	-0.750			
0.6472	41422.38	3.3590	3.3591	-0.7348	8.17	2.18	-0.750			
0.6494	41560.91	3.3560	3.3559	-0.7256	8.18	2.19	-0.750			
0.6515	41697.95	3.3530	3.3531	-0.7135	8.20	2.21	-0.750			
0.6537	41834.96	3.3500	3.3500	-0.7031	8.21	2.22	-0.750			
0.6558	41972.18	3.3470	3.3470	-0.6846	8.22	2.23	-0.750			
0.6579	42102.62	3.3440	3.3439	-0.6616	8.23	2.24	-0.750			
0.6598	42227.07	3.3410	3.3412	-0.6478	8.24	2.25	-0.750			
0.6617	42347.93	3.3380	3.3379	-0.6241	8.25	2.26	-0.750			
0.6635	42463.06	3.3350	3.3349	-0.6084	8.27	2.28	-0.750			
0.6653	42579.06	3.3320	3.3321	-0.5998	8.28	2.29	-0.750			
0.6671	42694.02	3.3290	3.3290	-0.5921	8.29	2.30	-0.750			
0.6689	42807.92	3.3260	3.3260	-0.5829	8.30	2.31	-0.750			
0.6706	42919.21	3.3230	3.3229	-0.5707	8.31	2.32	-0.750			
0.6723	43026.93	3.3200	3.3201	-0.5567	8.32	2.33	-0.750			
0.6740	43133.58	3.3170	3.3169	-0.5473	8.33	2.34	-0.750			
0.6756	43236.04	3.3140	3.3140	-0.5337	8.34	2.35	-0.750			
0.6771	43336.54	3.3110	3.3110	-0.5189	8.35	2.36	-0.750			
0.6787	43436.35	3.3080	3.3080	-0.5134	8.36	2.37	-0.750			
0.6802	43533.79	3.3050	3.3049	-0.5017	8.37	2.38	-0.750			
0.6817	43628.99	3.3020	3.3020	-0.4933	8.38	2.39	-0.750			
0.6832	43722.65	3.2990	3.2990	-0.4847	8.39	2.40	-0.750			
0.6846	43814.65	3.2960	3.2961	-0.4760	8.40	2.41	-0.750			
0.6860	43905.33	3.2930	3.2931	-0.4709	8.41	2.42	-0.750			
0.6874	43995.58	3.2900	3.2899	-0.4606	8.42	2.43	-0.750			
0.6888	44082.65	3.2870	3.2870	-0.4496	8.44	2.45	-0.750			
0.6901	44168.49	3.2840	3.2840	-0.4422	8.45	2.46	-0.750			
0.6914	44252.05	3.2810	3.2809	-0.4316	8.46	2.47	-0.750			
0.6927	44333.71	3.2780	3.2780	-0.4253	8.47	2.48	-0.750			
0.6940	44414.28	3.2750	3.2750	-0.4195	8.48	2.49	-0.750			
0.6952	44494.27	3.2720	3.2719	-0.4112	8.49	2.50	-0.750			
0.6965	44573.53	3.2690	3.2689	-0.4082	8.50	2.51	-0.750			
0.6977	44650.93	3.2660	3.2660	-0.4002	8.51	2.52	-0.750			
0.6989	44727.11	3.2630	3.2630	-0.3924	8.52	2.53	-0.750			
0.7000	44802.26	3.2600	3.2599	-0.3851	8.53	2.54	-0.750			
0.7012	44874.49	3.2570	3.2570	-0.3775	8.54	2.55	-0.750			
0.7023	44946.61	3.2540	3.2541	-0.3709	8.55	2.56	-0.750			
0.7034	45017.23	3.2510	3.2510	-0.3663	8.56	2.57	-0.750			
0.7045	45086.24	3.2480	3.2479	-0.3606	8.57	2.58	-0.750			
0.7056	45155.35	3.2450	3.2450	-0.3588	8.59	2.60	-0.750			
0.7066	45224.36	3.2420	3.2419	-0.3531	8.60	2.61	-0.750			
0.7077	45291.98	3.2390	3.2390	-0.3467	8.61	2.62	-0.750			
0.7087	45357.67	3.2360	3.2359	-0.3415	8.61	2.62	-0.750			
0.7097	45422.59	3.2330	3.2330	-0.3383	8.61	2.62	-0.750			
0.7107	45486.23	3.2300	3.2299	-0.3316	8.63	2.64	-0.750			
0.7117	45549.47	3.2270	3.2269	-0.3277	8.64	2.65	-0.750			
0.7127	45612.49	3.2240	3.2241	-0.3237	8.65	2.66	-0.750			
0.7137	45675.12	3.2210	3.2210	-0.3206	8.66	2.67	-0.750			
0.7146	45736.63	3.2180	3.2181	-0.3160	8.67	2.68	-0.750			
0.7156	45795.83	3.2150	3.2150	-0.3111	8.68	2.69	-0.750			
0.7165	45854.77	3.2120	3.2120	-0.3051	8.69	2.70	-0.750			
0.7174	45913.31	3.2090	3.2090	-0.3025	8.70	2.71	-0.750			
0.7183	45970.59	3.2060	3.2059	-0.2993	8.71	2.72	-0.750			
0.7192	46028.08	3.2030	3.2032	-0.2945	8.72	2.73	-0.750			
0.7201	46084.01	3.2000	3.2000	-0.2926	8.73	2.74	-0.750			
0.7209	46139.85	3.1970	3.1970	-0.2894	8.73	2.74	-0.750			
0.7218	46195.39	3.1940	3.1942	-0.2866	8.74	2.75	-0.750			
0.7227	46250.52	3.1910	3.1909	-0.2835	8.75	2.76	-0.750			
0.7235	46304.37	3.1880	3.1880	-0.2785	8.76	2.77	-0.750			
0.7243	46357.38	3.1850	3.1851	-0.2746	8.77	2.78	-0.750			
0.7252	46410.09	3.1820	3.1819	-0.2711	8.78	2.79	-0.750			
0.7259	46460.67	3.1790	3.1790	-0.2662	8.79	2.80	-0.750			
0.7267	46511.23	3.1760	3.1760	-0.2641	8.80	2.81	-0.750			
0.7275	46561.52	3.1730	3.1730	-0.2625	8.81	2.82	-0.750			
0.7283	46612.12	3.1700	3.1699	-0.2622	8.82	2.83	-0.750			
0.7291	46662.38	3.1670	3.1670	-0.2604	8.83	2.84	-0.750			
0.7299	46712.54	3.1640	3.1640	-0.2576	8.83	2.84	-0.750			
0.7307	46762.50	3.1610	3.1610	-0.2547	8.84	2.85	-0.750			
0.7314	46811.11	3.1580	3.1581	-0.2509	8.85	2.86	-0.750			
0.7322	46858.38	3.1550	3.1549	-0.2474	8.86	2.87	-0.750			
0.7329	46905.26	3.1520	3.1520	-0.2441	8.87	2.88	-0.750			
0.7336	46951.42	3.1490	3.1489	-0.2408	8.87	2.88	-0.750			
0.7343	46997.47	3.1460	3.1460	-0.2398	8.88	2.89	-0.750			
0.7351	47043.29	3.1430	3.1431	-0.2380	8.89	2.90	-0.750			
0.7358	47089.25	3.1400	3.1401	-0.2361	8.90	2.91	-0.750			
0.7365	47134.64	3.1370	3.1369	-0.2341	8.91	2.92	-0.750			
0.7372	47179.22	3.1340	3.1341	-0.2325	8.92	2.93	-0.750			
0.7379	47223.40	3.1310	3.1310	-0.2306	8.93	2.94	-0.750			
0.7386	47267.47	3.1280	3.1279	-0.2297	8.94	2.95	-0.750			
0.7392	47311.47	3.1250	3.1249	-0.2286	8.94	2.95	-0.750			
0.7399	47355.03	3.1220	3.1221	-0.2267	8.95	2.96	-0.750			
0.7406	47398.86	3.1190	3.1190	-0.2248	8.96	2.97	-0.750			
0.7413	47442.32	3.1160	3.1161	-0.2229	8.97	2.98	-0.750			
0.7419	47484.79	3.1130	3.1130	-0.2195	8.98	2.99	-0.750			
0.7426	47526.70	3.1100	3.1099	-0.2161	8.99	3.00	-0.750			
0.7432	47567.46	3.1070	3.1070	-0.2146	9.00	3.01	-0.750			
0.7439	47607.69	3.1040	3.1039	-0.2127	9.01	3.02	-0.750			
0.7445	47648.53	3.1010	3.1011	-0.2127	9.02	3.03	-0.750			
0.7451	47689.18	3.0980	3.0979	-0.2110	9.03	3.04	-0.750			
0.7458	47730.01	3.0950	3.0950	-0.2094	9.03	3.04	-0.750			
0.7464	47770.29	3.0920	3.0920	-0.2086	9.04	3.05	-0.750			
0.7470	47810.09	3.0890	3.0892	-0.2068	9.05	3.06	-0.750			
0.7477	47849.93	3.0860	3.0858	-0.2052	9.06	3.07	-0.750			
0.7483	47888.69	3.0830	3.0829	-0.2024	9.07	3.08	-0.750			
0.7489	47927.17	3.0800	3.0799	-0.2005	9.08	3.09	-0.750			
0.7495	47965.50	3.0770	3.0771	-0.2005	9.09	3.10	-0.750			
0.7501	48003.91	3.0740	3.0741	-0.1997	9.10	3.11	-0.750			
0.7507	48042.38	3.0710	3.0709	-0.1976	9.10	3.11	-0.750			
0.7512	48079.76	3.0680	3.0680	-0.1964	9.11	3.12	-0.750			
0.7518	48117.40	3.0650	3.0651	-0.1957	9.12	3.13	-0.750			
0.7524	48154.93	3.0620	3.0621	-0.1949	9.13	3.14	-0.750			
0.7530	48192.45	3.0590	3.0589	-0.1941	9.14	3.15	-0.750			
0.7536	48229.51	3.0560	3.0561	-0.1929	9.15	3.16	-0.750			
0.7542	48266.23	3.0530	3.0530	-0.1915	9.15	3.16	-0.750			
0.7547	48302.97	3.0500	3.0500	-0.1912	9.16	3.17	-0.750			
0.7553	48340.14	3.0470	3.0470	-0.1904	9.17	3.18	-0.750			
0.7559	48376.30	3.0440	3.0440	-0.1882	9.18	3.19	-0.750			
0.7564	48412.21	3.0410	3.0411	-0.1877	9.19	3.20	-0.750			
0.7570	48448.16	3.0380	3.0380	-0.1868	9.20	3.21	-0.750			
0.7576	48483.75	3.0350	3.0350	-0.1871	9.20	3.21	-0.750			
0.7581	48519.61	3.0320	3.0319	-0.1862	9.21	3.22	-0.750			
0.7587	48555.61	3.0290	3.0289	-0.1848	9.22	3.23	-0.750			
0.7592	48591.03	3.0260	3.0261	-0.1836	9.23	3.24	-0.750			
0.7598	48626.54	3.0230	3.0231	-0.1827	9.24	3.25	-0.750			
0.7603	48661.73	3.0200	3.0200	-0.1810	9.24	3.25	-0.750			
0.7609	48695.93	3.0170	3.0169	-0.1788	9.25	3.26	-0.750			
0.7614	48729.81	3.0140	3.0141	-0.1767	9.26	3.27	-0.750			
0.7619	48763.65	3.0110	3.0110	-0.1758	9.27	3.28	-0.750			
0.7625	48797.38	3.0080	3.0080	-0.1748	9.28	3.29	-0.750			
0.7630	48830.96	3.0050	3.0050	-0.1732	9.28	3.29	-0.750			
0.7635	48864.09	3.0020	3.0020	-0.1740	9.29	3.30	-0.750			
