Ah_balance (normalized)	Ah_balance (mAh)	Voltage - fit (V)	Voltage -  interpolate (V)	dQ/dV (1/V)	Temperature (°C)	Temperature - diff (°C)	Current (C)	R_DC 0ms (mOhm)	R_DC 50ms (mOhm)	R_DC 50 ms PEC (mOhm)
0.0988	6322.70	4.1960	4.1980	0.5565	8.35	2.37	0.750			
0.1007	6446.58	4.1930	4.1953	0.6848	8.35	2.37	0.750			
0.1031	6600.24	4.1900	4.1918	0.7496	8.34	2.36	0.750			
0.1056	6759.91	4.1870	4.1882	0.7863	8.33	2.35	0.750			
0.1079	6902.58	4.1840	4.1850	0.7648	8.32	2.34	0.750			
0.1105	7069.35	4.1810	4.1814	0.7747	8.32	2.34	0.750			
0.1127	7215.94	4.1780	4.1779	0.7008	8.31	2.33	0.750			
0.1149	7351.04	4.1750	4.1750	0.7008	8.30	2.32	0.750			
0.1170	7485.40	4.1720	4.1720	0.6979	8.30	2.32	0.750			
0.1190	7618.56	4.1690	4.1690	0.7026	8.29	2.31	0.750			
0.1212	7753.85	4.1660	4.1661	0.7011	8.29	2.31	0.750			
0.1233	7888.85	4.1630	4.1628	0.7100	8.28	2.30	0.750			
0.1254	8025.38	4.1600	4.1601	0.7145	8.28	2.30	0.750			
0.1275	8161.82	4.1570	4.1570	0.7160	8.27	2.29	0.750			
0.1297	8301.76	4.1540	4.1540	0.7170	8.27	2.29	0.750			
0.1319	8440.27	4.1510	4.1511	0.7250	8.26	2.28	0.750			
0.1340	8577.50	4.1480	4.1480	0.7334	8.26	2.28	0.750			
0.1363	8721.33	4.1450	4.1450	0.7377	8.25	2.27	0.750			
0.1385	8862.06	4.1420	4.1420	0.7436	8.25	2.27	0.750			
0.1407	9007.38	4.1390	4.1391	0.7461	8.24	2.26	0.750			
0.1430	9152.45	4.1360	4.1360	0.7389	8.23	2.25	0.750			
0.1452	9294.39	4.1330	4.1330	0.7370	8.22	2.24	0.750			
0.1474	9431.00	4.1300	4.1303	0.7336	8.22	2.24	0.750			
0.1495	9570.42	4.1270	4.1266	0.7387	8.21	2.23	0.750			
0.1518	9712.99	4.1240	4.1239	0.7455	8.20	2.22	0.750			
0.1540	9856.40	4.1210	4.1211	0.7441	8.20	2.22	0.750			
0.1563	10003.12	4.1180	4.1180	0.7573	8.19	2.21	0.750			
0.1586	10147.79	4.1150	4.1150	0.7583	8.18	2.20	0.750			
0.1608	10294.32	4.1120	4.1121	0.7567	8.17	2.19	0.750			
0.1631	10439.61	4.1090	4.1090	0.7556	8.17	2.19	0.750			
0.1654	10585.18	4.1060	4.1061	0.7564	8.16	2.18	0.750			
0.1677	10730.95	4.1030	4.1031	0.7556	8.15	2.17	0.750			
0.1699	10872.83	4.1000	4.1000	0.7632	8.14	2.16	0.750			
0.1721	11016.12	4.0970	4.0971	0.7671	8.14	2.16	0.750			
0.1744	11164.77	4.0940	4.0936	0.7821	8.13	2.15	0.750			
0.1769	11318.47	4.0910	4.0910	0.7968	8.12	2.14	0.750			
0.1793	11473.96	4.0880	4.0881	0.7994	8.11	2.13	0.750			
0.1817	11630.96	4.0850	4.0851	0.8093	8.11	2.13	0.750			
0.1842	11787.15	4.0820	4.0820	0.7979	8.10	2.12	0.750			
0.1866	11940.92	4.0790	4.0788	0.7914	8.09	2.11	0.750			
0.1889	12088.47	4.0760	4.0762	0.7909	8.09	2.11	0.750			
0.1913	12240.12	4.0730	4.0731	0.7901	8.08	2.10	0.750			
0.1936	12391.92	4.0700	4.0699	0.7976	8.07	2.09	0.750			
0.1960	12545.41	4.0670	4.0669	0.8046	8.07	2.09	0.750			
0.1984	12698.41	4.0640	4.0642	0.8104	8.06	2.08	0.750			
0.2009	12857.40	4.0610	4.0610	0.8192	8.05	2.07	0.750			
0.2034	13016.98	4.0580	4.0580	0.8229	8.04	2.06	0.750			
0.2058	13173.75	4.0550	4.0550	0.8222	8.03	2.05	0.750			
0.2083	13332.86	4.0520	4.0520	0.8252	8.02	2.04	0.750			
0.2108	13489.83	4.0490	4.0490	0.8222	8.02	2.04	0.750			
0.2132	13646.96	4.0460	4.0460	0.8280	8.01	2.03	0.750			
0.2157	13806.92	4.0430	4.0430	0.8285	8.00	2.02	0.750			
0.2182	13966.93	4.0400	4.0400	0.8333	7.99	2.01	0.750			
0.2207	14127.30	4.0370	4.0370	0.8396	7.98	2.00	0.750			
0.2232	14287.91	4.0340	4.0341	0.8424	7.97	1.99	0.750			
0.2258	14450.56	4.0310	4.0310	0.8503	7.97	1.99	0.750			
0.2283	14613.07	4.0280	4.0281	0.8565	7.96	1.98	0.750			
0.2309	14776.64	4.0250	4.0250	0.8701	7.95	1.97	0.750			
0.2335	14946.59	4.0220	4.0219	0.8867	7.94	1.96	0.750			
0.2362	15119.52	4.0190	4.0189	0.8855	7.93	1.95	0.750			
0.2389	15291.33	4.0160	4.0160	0.8851	7.92	1.94	0.750			
0.2416	15462.35	4.0130	4.0132	0.8892	7.92	1.94	0.750			
0.2443	15633.12	4.0100	4.0100	0.8864	7.91	1.93	0.750			
0.2469	15800.91	4.0070	4.0069	0.8848	7.90	1.92	0.750			
0.2495	15968.90	4.0040	4.0037	0.8886	7.89	1.91	0.750			
0.2522	16141.76	4.0010	4.0011	0.8856	7.88	1.90	0.750			
0.2549	16313.35	3.9980	3.9980	0.8884	7.87	1.89	0.750			
0.2576	16484.06	3.9950	3.9951	0.8898	7.86	1.88	0.750			
0.2602	16651.15	3.9920	3.9921	0.8991	7.85	1.87	0.750			
0.2629	16822.72	3.9890	3.9889	0.9066	7.84	1.86	0.750			
0.2656	16998.00	3.9860	3.9859	0.9105	7.83	1.85	0.750			
0.2683	17173.64	3.9830	3.9830	0.9186	7.81	1.83	0.750			
0.2712	17353.83	3.9800	3.9802	0.9253	7.80	1.82	0.750			
0.2740	17533.66	3.9770	3.9769	0.9234	7.79	1.81	0.750			
0.2767	17711.23	3.9740	3.9740	0.9170	7.78	1.80	0.750			
0.2794	17882.55	3.9710	3.9711	0.9238	7.77	1.79	0.750			
0.2822	18059.56	3.9680	3.9681	0.9339	7.77	1.79	0.750			
0.2850	18239.19	3.9650	3.9650	0.9539	7.76	1.78	0.750			
0.2879	18423.53	3.9620	3.9619	0.9607	7.75	1.77	0.750			
0.2908	18611.28	3.9590	3.9591	0.9615	7.74	1.76	0.750			
0.2937	18799.22	3.9560	3.9561	0.9714	7.73	1.75	0.750			
0.2966	18984.19	3.9530	3.9532	0.9755	7.72	1.74	0.750			
0.2995	19167.64	3.9500	3.9496	0.9816	7.71	1.73	0.750			
0.3024	19355.95	3.9470	3.9470	0.9903	7.70	1.72	0.750			
0.3054	19546.21	3.9440	3.9440	1.0043	7.69	1.71	0.750			
0.3086	19747.57	3.9410	3.9409	1.0206	7.67	1.69	0.750			
0.3116	19943.87	3.9380	3.9378	1.0173	7.66	1.68	0.750			
0.3147	20140.19	3.9350	3.9351	1.0230	7.65	1.67	0.750			
0.3178	20336.31	3.9320	3.9321	1.0250	7.63	1.65	0.750			
0.3208	20530.04	3.9290	3.9290	1.0249	7.62	1.64	0.750			
0.3239	20729.09	3.9260	3.9258	1.0361	7.60	1.62	0.750			
0.3270	20926.67	3.9230	3.9232	1.0439	7.59	1.61	0.750			
0.3301	21129.11	3.9200	3.9200	1.0574	7.58	1.60	0.750			
0.3333	21333.96	3.9170	3.9170	1.0724	7.57	1.59	0.750			
0.3366	21541.62	3.9140	3.9139	1.0809	7.56	1.58	0.750			
0.3398	21747.20	3.9110	3.9110	1.0909	7.55	1.57	0.750			
0.3431	21957.78	3.9080	3.9081	1.1045	7.53	1.55	0.750			
0.3464	22171.05	3.9050	3.9050	1.1175	7.52	1.54	0.750			
0.3498	22387.72	3.9020	3.9017	1.1243	7.50	1.52	0.750			
0.3532	22604.20	3.8990	3.8992	1.1381	7.49	1.51	0.750			
0.3566	22821.59	3.8960	3.8961	1.1599	7.48	1.50	0.750			
0.3601	23049.09	3.8930	3.8930	1.1732	7.47	1.49	0.750			
0.3637	23274.26	3.8900	3.8900	1.1721	7.45	1.47	0.750			
0.3672	23497.89	3.8870	3.8871	1.1857	7.44	1.46	0.750			
0.3707	23723.00	3.8840	3.8843	1.2113	7.42	1.44	0.750			
0.3743	23955.31	3.8810	3.8810	1.2427	7.40	1.42	0.750			
0.3781	24196.71	3.8780	3.8779	1.2617	7.38	1.40	0.750	0.391	0.797	
0.3819	24443.02	3.8750	3.8752	1.2805	7.36	1.38	0.750			
0.3860	24701.21	3.8720	3.8720	1.3015	7.35	1.37	0.750			
0.3899	24952.66	3.8690	3.8692	1.3265	7.33	1.35	0.750			
0.3938	25202.05	3.8660	3.8659	1.3227	7.31	1.33	0.750			
0.3978	25458.76	3.8630	3.8630	1.3246	7.30	1.32	0.750			
0.4018	25714.05	3.8600	3.8602	1.3566	7.28	1.30	0.750			
0.4059	25978.31	3.8570	3.8571	1.3917	7.26	1.28	0.750			
0.4102	26250.37	3.8540	3.8540	1.3962	7.24	1.26	0.750			
0.4144	26519.43	3.8510	3.8511	1.4229	7.22	1.24	0.750			
0.4186	26791.54	3.8480	3.8481	1.4287	7.20	1.22	0.750			
0.4230	27070.27	3.8450	3.8450	1.4450	7.18	1.20	0.750			
0.4274	27352.24	3.8420	3.8421	1.4565	7.16	1.18	0.750			
0.4317	27626.44	3.8390	3.8391	1.4684	7.14	1.16	0.750			
0.4361	27910.25	3.8360	3.8359	1.4906	7.11	1.13	0.750			
0.4406	28197.23	3.8330	3.8330	1.5163	7.09	1.11	0.750			
0.4452	28492.33	3.8300	3.8300	1.5418	7.07	1.09	0.750			
0.4499	28795.29	3.8270	3.8270	1.5831	7.05	1.07	0.750			
0.4547	29099.92	3.8240	3.8240	1.6041	7.03	1.05	0.750			
0.4596	29415.36	3.8210	3.8210	1.6170	7.00	1.02	0.750			
0.4644	29723.88	3.8180	3.8182	1.6344	6.98	1.00	0.750			
0.4694	30042.45	3.8150	3.8148	1.6400	6.95	0.97	0.750			
0.4744	30360.57	3.8120	3.8119	1.6410	6.93	0.95	0.750			
0.4793	30678.11	3.8090	3.8090	1.6623	6.91	0.93	0.750			
0.4843	30994.36	3.8060	3.8061	1.6945	6.88	0.90	0.750			
0.4894	31319.02	3.8030	3.8029	1.6928	6.86	0.88	0.750			
0.4945	31649.01	3.8000	3.8002	1.7417	6.83	0.85	0.750			
0.4998	31984.03	3.7970	3.7971	1.7548	6.81	0.83	0.750			
0.5052	32330.35	3.7940	3.7937	1.7830	6.79	0.81	0.750			
0.5106	32677.45	3.7910	3.7910	1.7848	6.77	0.79	0.750			
0.5160	33024.53	3.7880	3.7880	1.8032	6.74	0.76	0.750			
0.5212	33358.75	3.7850	3.7853	1.8589	6.72	0.74	0.750			
0.5268	33717.55	3.7820	3.7821	1.8951	6.69	0.71	0.750			
0.5326	34085.15	3.7790	3.7787	1.9619	6.66	0.68	0.750			
0.5386	34470.74	3.7760	3.7762	2.0437	6.63	0.65	0.750			
0.5450	34878.03	3.7730	3.7729	2.1113	6.60	0.62	0.750			
0.5514	35290.30	3.7700	3.7701	2.1456	6.57	0.59	0.750			
0.5577	35689.79	3.7670	3.7672	2.2349	6.54	0.56	0.750			
0.5646	36135.77	3.7640	3.7638	2.3408	6.51	0.53	0.750			
0.5717	36590.99	3.7610	3.7610	2.4290	6.47	0.49	0.750			
0.5793	37075.29	3.7580	3.7581	2.5990	6.44	0.46	0.750			
0.5872	37583.60	3.7550	3.7548	2.6984	6.41	0.43	0.750			
0.5954	38102.91	3.7520	3.7521	2.8210	6.38	0.40	0.750			
0.6041	38665.07	3.7490	3.7490	2.9675	6.34	0.36	0.750			
0.6132	39243.82	3.7460	3.7461	2.9594	6.31	0.33	0.750			
0.6222	39822.04	3.7430	3.7432	3.0630	6.27	0.29	0.750			
0.6316	40419.86	3.7400	3.7399	2.9559	6.24	0.26	0.750			
0.6405	40991.85	3.7370	3.7371	2.7527	6.21	0.23	0.750			
0.6485	41502.21	3.7340	3.7339	2.4694	6.17	0.19	0.750			
0.6552	41934.07	3.7310	3.7312	2.1298	6.16	0.18	0.750			
0.6609	42297.40	3.7280	3.7281	1.8547	6.14	0.16	0.750			
0.6662	42633.81	3.7250	3.7251	1.6495	6.13	0.15	0.750			
0.6705	42911.43	3.7220	3.7221	1.4723	6.11	0.13	0.750			
0.6746	43175.77	3.7190	3.7186	1.3428	6.10	0.12	0.750			
0.6783	43411.48	3.7160	3.7162	1.2495	6.09	0.11	0.750			
0.6819	43641.07	3.7130	3.7131	1.1869	6.08	0.10	0.750			
0.6854	43863.60	3.7100	3.7100	1.1511	6.07	0.09	0.750			
0.6887	44074.75	3.7070	3.7071	1.1093	6.07	0.09	0.750			
0.6919	44282.34	3.7040	3.7040	1.0882	6.06	0.08	0.750			
0.6951	44489.57	3.7010	3.7010	1.0694	6.05	0.07	0.750			
0.6984	44698.89	3.6980	3.6980	1.0520	6.04	0.06	0.750			
0.7015	44896.85	3.6950	3.6950	1.0175	6.04	0.06	0.750			
0.7046	45092.55	3.6920	3.6921	0.9955	6.03	0.05	0.750			
0.7075	45279.24	3.6890	3.6890	0.9677	6.03	0.05	0.750			
0.7103	45458.18	3.6860	3.6859	0.9432	6.02	0.04	0.750			
0.7131	45635.53	3.6830	3.6829	0.9295	6.02	0.04	0.750			
0.7158	45812.90	3.6800	3.6800	0.9139	6.01	0.03	0.750			
0.7186	45987.66	3.6770	3.6770	0.9046	6.00	0.02	0.750			
0.7213	46161.29	3.6740	3.6741	0.8991	6.00	0.02	0.750			
0.7239	46332.04	3.6710	3.6710	0.8934	5.99	0.01	0.750			
0.7266	46500.95	3.6680	3.6679	0.8875	5.99	0.01	0.750			
0.7292	46671.67	3.6650	3.6650	0.8811	5.99	0.01	0.750			
0.7319	46839.60	3.6620	3.6621	0.8791	5.98	0.00	0.750			
0.7346	47011.53	3.6590	3.6590	0.8721	5.98	0.00	0.750			
0.7372	47178.43	3.6560	3.6557	0.8562	5.98	0.00	0.750			
0.7398	47344.47	3.6530	3.6530	0.8280	5.98	0.00	0.750			
0.7423	47504.34	3.6500	3.6500	0.7875	5.98	0.00	0.750			
0.7446	47657.42	3.6470	3.6470	0.7368	5.98	0.00	0.750			
0.7468	47797.04	3.6440	3.6441	0.6688	5.98	0.00	0.750			
0.7487	47919.71	3.6410	3.6410	0.5865	5.98	0.00	0.750			
0.7504	48025.26	3.6380	3.6380	0.5023	5.98	0.00	0.750			
0.7517	48111.94	3.6350	3.6351	0.4108	5.98	0.00	0.750			
0.7527	48173.03	3.6320	3.6324	0.3558	5.98	0.00	0.750			
0.7536	48232.27	3.6290	3.6292	0.2869	5.98	0.00	0.750			
0.7544	48278.58	3.6260	3.6253	0.2280	5.98	0.00	0.750			
0.7548	48309.08	3.6230	3.6210	0.1678	5.98	0.00	0.750			
0.7552	48329.86	3.5990	3.5584	-0.1002	5.98	0.00	0.750			
0.7552	48332.35	3.6200	3.5214	0.1223	5.98	0.00	0.749			
0.7553	48342.30	3.6170	3.3733	0.0786	5.98	0.00	0.747			
0.7554	48346.23	3.6020	3.3148	-0.0704	5.98	0.00	0.746			
0.7555	48354.53	3.6140	3.1914	0.0488	5.98	0.00	0.744			
0.7556	48356.89	3.6050	3.1563	-0.0406	5.98	0.00	0.743			
0.7556	48361.03	3.6110	3.0946	0.0190	5.98	0.00	0.742			
0.7557	48361.82	3.6080	3.0829	-0.0108	5.98	0.00	0.742			
