Ah_balance (normalized)	Ah_balance (mAh)	Voltage - fit (V)	Voltage -  interpolate (V)	dQ/dV (1/V)	Temperature (°C)	Temperature - diff (°C)	Current (C)	R_DC 0ms (mOhm)	R_DC 50ms (mOhm)	R_DC 50 ms PEC (mOhm)
0.0000	0.00	4.0950	4.1306	0.0000	5.99	0.00	-0.749			
0.0000	0.00	4.0980	4.1306	0.0000	5.99	0.00	-0.749			
0.0002	15.25	4.0920	4.0913	-0.0487	5.99	0.00	-0.750			
0.0004	27.49	4.0890	4.0885	-0.0757	5.99	0.00	-0.750			
0.0007	44.83	4.0860	4.0857	-0.1022	5.99	0.00	-0.750			
0.0010	67.02	4.0830	4.0831	-0.1289	5.99	0.00	-0.750			
0.0015	94.46	4.0800	4.0800	-0.1536	5.99	0.00	-0.750			
0.0020	126.41	4.0770	4.0770	-0.1782	5.99	0.00	-0.750			
0.0026	163.82	4.0740	4.0741	-0.2028	5.99	0.00	-0.750			
0.0032	204.75	4.0710	4.0710	-0.2274	5.99	0.00	-0.750			
0.0039	251.15	4.0680	4.0680	-0.2485	5.99	-0.00	-0.750			
0.0047	301.18	4.0650	4.0649	-0.2702	5.99	-0.00	-0.750			
0.0056	355.27	4.0620	4.0621	-0.2930	5.99	-0.00	-0.750			
0.0065	413.74	4.0590	4.0590	-0.3156	5.99	-0.00	-0.750			
0.0074	476.31	4.0560	4.0559	-0.3375	5.99	-0.00	-0.750			
0.0085	543.10	4.0530	4.0531	-0.3597	5.99	-0.00	-0.750			
0.0096	614.28	4.0500	4.0500	-0.3801	5.99	-0.00	-0.750			
0.0108	690.05	4.0470	4.0469	-0.4016	5.98	-0.01	-0.750			
0.0120	769.52	4.0440	4.0440	-0.4215	5.98	-0.01	-0.750			
0.0133	852.16	4.0410	4.0411	-0.4398	5.98	-0.01	-0.750			
0.0147	938.56	4.0380	4.0379	-0.4601	5.98	-0.01	-0.750			
0.0161	1028.18	4.0350	4.0351	-0.4829	5.98	-0.01	-0.750			
0.0175	1122.54	4.0320	4.0319	-0.5019	5.98	-0.01	-0.750			
0.0191	1221.09	4.0290	4.0289	-0.5234	5.98	-0.01	-0.750			
0.0207	1325.12	4.0260	4.0260	-0.5375	5.99	-0.00	-0.750			
0.0223	1429.66	4.0230	4.0230	-0.5545	5.99	-0.00	-0.750			
0.0240	1538.40	4.0200	4.0201	-0.5710	5.99	0.00	-0.750			
0.0258	1648.69	4.0170	4.0169	-0.5865	6.00	0.01	-0.750			
0.0275	1762.85	4.0140	4.0139	-0.5954	6.00	0.01	-0.750			
0.0294	1879.48	4.0110	4.0110	-0.6091	6.00	0.01	-0.750			
0.0312	1997.71	4.0080	4.0081	-0.6233	6.01	0.02	-0.750			
0.0331	2118.43	4.0050	4.0051	-0.6406	6.01	0.02	-0.750			
0.0350	2241.59	4.0020	4.0019	-0.6574	6.02	0.03	-0.750			
0.0371	2372.46	3.9990	3.9989	-0.6662	6.02	0.03	-0.750			
0.0391	2503.31	3.9960	3.9958	-0.6730	6.02	0.03	-0.750			
0.0412	2634.39	3.9930	3.9936	-0.6789	6.03	0.04	-0.750			
0.0432	2765.81	3.9900	3.9899	-0.6789	6.03	0.04	-0.750			
0.0452	2893.77	3.9870	3.9869	-0.6791	6.04	0.05	-0.750			
0.0472	3021.21	3.9840	3.9840	-0.6749	6.04	0.05	-0.750			
0.0493	3153.64	3.9810	3.9810	-0.6899	6.05	0.06	-0.750			
0.0513	3286.28	3.9780	3.9780	-0.6929	6.05	0.06	-0.750			
0.0535	3420.96	3.9750	3.9750	-0.6948	6.06	0.07	-0.750			
0.0555	3553.44	3.9720	3.9719	-0.6964	6.07	0.08	-0.750			
0.0576	3687.77	3.9690	3.9689	-0.6969	6.07	0.08	-0.750			
0.0597	3820.31	3.9660	3.9661	-0.7076	6.08	0.09	-0.750			
0.0618	3957.16	3.9630	3.9629	-0.7131	6.09	0.10	-0.750			
0.0640	4094.74	3.9600	3.9600	-0.7185	6.09	0.10	-0.750			
0.0662	4234.95	3.9570	3.9573	-0.7260	6.10	0.11	-0.750			
0.0684	4376.09	3.9540	3.9539	-0.7317	6.11	0.12	-0.750			
0.0706	4515.49	3.9510	3.9511	-0.7371	6.12	0.13	-0.750			
0.0728	4658.22	3.9480	3.9480	-0.7367	6.13	0.14	-0.750			
0.0750	4800.05	3.9450	3.9449	-0.7381	6.14	0.15	-0.750			
0.0772	4942.39	3.9420	3.9420	-0.7376	6.14	0.15	-0.750			
0.0794	5083.32	3.9390	3.9390	-0.7351	6.15	0.16	-0.750			
0.0816	5223.31	3.9360	3.9360	-0.7346	6.16	0.17	-0.750			
0.0838	5363.24	3.9330	3.9330	-0.7375	6.17	0.18	-0.750			
0.0860	5504.65	3.9300	3.9299	-0.7395	6.17	0.18	-0.750			
0.0883	5649.22	3.9270	3.9269	-0.7432	6.18	0.19	-0.750			
0.0905	5790.33	3.9240	3.9240	-0.7506	6.19	0.20	-0.750			
0.0927	5935.94	3.9210	3.9210	-0.7521	6.19	0.20	-0.750			
0.0950	6081.82	3.9180	3.9179	-0.7525	6.20	0.21	-0.750			
0.0973	6226.15	3.9150	3.9149	-0.7545	6.21	0.22	-0.750			
0.0995	6370.69	3.9120	3.9121	-0.7540	6.22	0.23	-0.750			
0.1018	6517.64	3.9090	3.9089	-0.7583	6.22	0.23	-0.750			
0.1041	6662.94	3.9060	3.9061	-0.7576	6.23	0.24	-0.750			
0.1063	6805.74	3.9030	3.9031	-0.7509	6.24	0.25	-0.750			
0.1086	6952.23	3.9000	3.8999	-0.7586	6.25	0.26	-0.750			
0.1109	7098.26	3.8970	3.8970	-0.7559	6.26	0.27	-0.750			
0.1132	7243.14	3.8940	3.8939	-0.7550	6.27	0.28	-0.750			
0.1154	7387.85	3.8910	3.8908	-0.7509	6.28	0.29	-0.750			
0.1177	7531.16	3.8880	3.8880	-0.7596	6.29	0.30	-0.750			
0.1200	7677.23	3.8850	3.8849	-0.7624	6.29	0.30	-0.750			
0.1223	7824.36	3.8820	3.8819	-0.7636	6.30	0.31	-0.750			
0.1245	7969.26	3.8790	3.8792	-0.7673	6.31	0.32	-0.750			
0.1269	8119.93	3.8760	3.8760	-0.7810	6.32	0.33	-0.750			
0.1292	8270.75	3.8730	3.8729	-0.7811	6.33	0.34	-0.750			
0.1316	8421.08	3.8700	3.8699	-0.7806	6.34	0.35	-0.750			
0.1339	8568.94	3.8670	3.8672	-0.7794	6.35	0.36	-0.750			
0.1363	8722.08	3.8640	3.8640	-0.7866	6.36	0.37	-0.750			
0.1387	8873.64	3.8610	3.8609	-0.7847	6.37	0.38	-0.750			
0.1410	9022.91	3.8580	3.8581	-0.7793	6.38	0.39	-0.750			
0.1433	9171.86	3.8550	3.8550	-0.7745	6.39	0.40	-0.750			
0.1456	9319.68	3.8520	3.8520	-0.7832	6.40	0.41	-0.750			
0.1480	9469.73	3.8490	3.8490	-0.7801	6.41	0.42	-0.750			
0.1503	9617.98	3.8460	3.8457	-0.7855	6.42	0.43	-0.750			
0.1527	9770.60	3.8430	3.8431	-0.7852	6.43	0.44	-0.750			
0.1550	9922.58	3.8400	3.8399	-0.7888	6.44	0.45	-0.750			
0.1574	10074.06	3.8370	3.8370	-0.7980	6.44	0.45	-0.750			
0.1598	10228.49	3.8340	3.8340	-0.7985	6.45	0.46	-0.750			
0.1622	10379.04	3.8310	3.8309	-0.7925	6.46	0.47	-0.750			
0.1646	10533.86	3.8280	3.8280	-0.7982	6.47	0.48	-0.750			
0.1670	10685.78	3.8250	3.8251	-0.7978	6.48	0.49	-0.750			
0.1694	10840.37	3.8220	3.8220	-0.7998	6.49	0.50	-0.750			
0.1718	10994.07	3.8190	3.8189	-0.7934	6.50	0.51	-0.750			
0.1741	11144.04	3.8160	3.8161	-0.7926	6.51	0.52	-0.750			
0.1765	11298.63	3.8130	3.8130	-0.7963	6.52	0.53	-0.750			
0.1789	11451.24	3.8100	3.8101	-0.7984	6.53	0.54	-0.750			
0.1813	11603.69	3.8070	3.8070	-0.7992	6.54	0.55	-0.750			
0.1837	11756.70	3.8040	3.8041	-0.8023	6.55	0.56	-0.750			
0.1861	11912.74	3.8010	3.8010	-0.8057	6.56	0.57	-0.750			
0.1886	12068.79	3.7980	3.7979	-0.8062	6.57	0.58	-0.750			
0.1910	12221.20	3.7950	3.7952	-0.8068	6.58	0.59	-0.750			
0.1934	12376.88	3.7920	3.7920	-0.8096	6.59	0.60	-0.750			
0.1958	12531.13	3.7890	3.7889	-0.8171	6.60	0.61	-0.750			
0.1983	12688.90	3.7860	3.7860	-0.8197	6.61	0.62	-0.750			
0.2008	12848.64	3.7830	3.7829	-0.8144	6.63	0.64	-0.750			
0.2033	13008.49	3.7800	3.7802	-0.8123	6.64	0.65	-0.750			
0.2057	13163.59	3.7770	3.7770	-0.8020	6.65	0.66	-0.750			
0.2080	13312.73	3.7740	3.7740	-0.8000	6.65	0.66	-0.750			
0.2104	13465.19	3.7710	3.7710	-0.8034	6.66	0.67	-0.750			
0.2127	13615.95	3.7680	3.7678	-0.8045	6.67	0.68	-0.750			
0.2152	13774.48	3.7650	3.7649	-0.8161	6.68	0.69	-0.750			
0.2177	13933.23	3.7620	3.7620	-0.8253	6.69	0.70	-0.750			
0.2202	14094.98	3.7590	3.7590	-0.8329	6.70	0.71	-0.750			
0.2227	14255.89	3.7560	3.7559	-0.8330	6.71	0.72	-0.750			
0.2252	14412.93	3.7530	3.7530	-0.8303	6.72	0.73	-0.750			
0.2277	14574.46	3.7500	3.7500	-0.8304	6.73	0.74	-0.750			
0.2302	14733.37	3.7470	3.7468	-0.8310	6.74	0.75	-0.750			
0.2327	14890.98	3.7440	3.7441	-0.8382	6.75	0.76	-0.750			
0.2352	15052.31	3.7410	3.7410	-0.8379	6.76	0.77	-0.750			
0.2377	15214.30	3.7380	3.7379	-0.8400	6.77	0.78	-0.750			
0.2403	15376.74	3.7350	3.7349	-0.8476	6.78	0.79	-0.750			
0.2428	15539.52	3.7320	3.7322	-0.8535	6.79	0.80	-0.750			
0.2454	15705.42	3.7290	3.7288	-0.8567	6.80	0.81	-0.750			
0.2480	15869.86	3.7260	3.7260	-0.8560	6.81	0.82	-0.750			
0.2505	16033.47	3.7230	3.7231	-0.8528	6.82	0.83	-0.750			
0.2531	16200.09	3.7200	3.7200	-0.8632	6.83	0.84	-0.750			
0.2557	16364.83	3.7170	3.7169	-0.8610	6.84	0.85	-0.750			
0.2583	16528.43	3.7140	3.7139	-0.8635	6.84	0.85	-0.750			
0.2608	16693.40	3.7110	3.7111	-0.8685	6.85	0.86	-0.750			
0.2635	16861.67	3.7080	3.7081	-0.8741	6.86	0.87	-0.750			
0.2661	17031.43	3.7050	3.7051	-0.8823	6.87	0.88	-0.750			
0.2688	17200.24	3.7020	3.7020	-0.8968	6.88	0.89	-0.750			
0.2715	17373.57	3.6990	3.6990	-0.8972	6.89	0.90	-0.750			
0.2742	17546.48	3.6960	3.6959	-0.9043	6.90	0.91	-0.750			
0.2769	17722.46	3.6930	3.6930	-0.9104	6.90	0.91	-0.750			
0.2796	17897.40	3.6900	3.6901	-0.9119	6.91	0.92	-0.750			
0.2824	18072.62	3.6870	3.6869	-0.9189	6.92	0.93	-0.750			
0.2851	18248.55	3.6840	3.6840	-0.9183	6.94	0.95	-0.750			
0.2879	18423.42	3.6810	3.6810	-0.9208	6.95	0.96	-0.750			
0.2907	18602.71	3.6780	3.6781	-0.9337	6.96	0.97	-0.750			
0.2935	18781.12	3.6750	3.6750	-0.9389	6.97	0.98	-0.750			
0.2963	18962.81	3.6720	3.6720	-0.9470	6.97	0.98	-0.750			
0.2992	19145.62	3.6690	3.6690	-0.9520	6.98	0.99	-0.750			
0.3020	19328.28	3.6660	3.6660	-0.9606	6.99	1.00	-0.750			
0.3049	19515.79	3.6630	3.6630	-0.9693	6.99	1.00	-0.750			
0.3078	19701.64	3.6600	3.6600	-0.9791	7.00	1.01	-0.750			
0.3108	19892.36	3.6570	3.6570	-0.9745	7.01	1.02	-0.750			
0.3137	20078.86	3.6540	3.6540	-0.9758	7.01	1.02	-0.750			
0.3167	20266.82	3.6510	3.6512	-0.9847	7.02	1.03	-0.750			
0.3196	20454.83	3.6480	3.6478	-0.9953	7.03	1.04	-0.750			
0.3226	20647.16	3.6450	3.6449	-0.9994	7.04	1.05	-0.750			
0.3256	20840.42	3.6420	3.6420	-1.0070	7.05	1.06	-0.750			
0.3287	21036.35	3.6390	3.6393	-1.0148	7.06	1.07	-0.750			
0.3318	21234.37	3.6360	3.6360	-1.0239	7.07	1.08	-0.750			
0.3348	21428.82	3.6330	3.6328	-1.0187	7.07	1.08	-0.750			
0.3378	21622.03	3.6300	3.6300	-1.0312	7.08	1.09	-0.750			
0.3409	21819.52	3.6270	3.6271	-1.0468	7.09	1.10	-0.750			
0.3441	22022.65	3.6240	3.6239	-1.0612	7.10	1.11	-0.750			
0.3473	22227.95	3.6210	3.6211	-1.0776	7.10	1.11	-0.750			
0.3506	22436.78	3.6180	3.6180	-1.0927	7.11	1.12	-0.750			
0.3539	22647.91	3.6150	3.6152	-1.1008	7.12	1.13	-0.750			
0.3573	22864.97	3.6120	3.6119	-1.1100	7.13	1.14	-0.750			
0.3606	23077.73	3.6090	3.6091	-1.1087	7.14	1.15	-0.750			
0.3639	23291.05	3.6060	3.6060	-1.1099	7.14	1.15	-0.750			
0.3673	23505.62	3.6030	3.6031	-1.1203	7.15	1.16	-0.750			
0.3706	23719.16	3.6000	3.5999	-1.1129	7.16	1.17	-0.750			
0.3739	23931.05	3.5970	3.5969	-1.1224	7.16	1.17	-0.750			
0.3773	24147.37	3.5940	3.5940	-1.1261	7.17	1.18	-0.750			
0.3807	24364.89	3.5910	3.5909	-1.1424	7.17	1.18	-0.750			
0.3842	24586.39	3.5880	3.5894	-1.1525	7.18	1.19	-0.750	0.413	0.856	
0.3876	24808.82	3.5850	3.5849	-1.1588	7.19	1.20	-0.750			
0.3911	25031.09	3.5820	3.5821	-1.1621	7.20	1.21	-0.750			
0.3946	25256.92	3.5790	3.5790	-1.1806	7.21	1.22	-0.750			
0.3982	25482.69	3.5760	3.5760	-1.1919	7.22	1.23	-0.750			
0.4018	25712.71	3.5730	3.5729	-1.2004	7.23	1.24	-0.750			
0.4054	25943.56	3.5700	3.5701	-1.2139	7.23	1.24	-0.750			
0.4090	26178.73	3.5670	3.5670	-1.2202	7.24	1.25	-0.750			
0.4127	26413.30	3.5640	3.5639	-1.2277	7.24	1.25	-0.750			
0.4163	26645.77	3.5610	3.5612	-1.2395	7.25	1.26	-0.750			
0.4201	26886.89	3.5580	3.5579	-1.2580	7.26	1.27	-0.750			
0.4239	27132.00	3.5550	3.5550	-1.2634	7.27	1.28	-0.750			
0.4277	27375.63	3.5520	3.5519	-1.2858	7.28	1.29	-0.750			
0.4317	27625.97	3.5490	3.5492	-1.2924	7.28	1.29	-0.750			
0.4356	27878.12	3.5460	3.5458	-1.2954	7.29	1.30	-0.750			
0.4394	28123.54	3.5430	3.5430	-1.3009	7.30	1.31	-0.750			
0.4433	28374.02	3.5400	3.5400	-1.2987	7.30	1.31	-0.750			
0.4473	28625.01	3.5370	3.5369	-1.3044	7.31	1.32	-0.750			
0.4512	28874.87	3.5340	3.5339	-1.3073	7.32	1.33	-0.750			
0.4550	29119.81	3.5310	3.5312	-1.3034	7.32	1.33	-0.750			
0.4590	29377.39	3.5280	3.5279	-1.3202	7.33	1.34	-0.750			
0.4630	29629.33	3.5250	3.5250	-1.3222	7.34	1.35	-0.750			
0.4669	29880.37	3.5220	3.5221	-1.3250	7.35	1.36	-0.750			
0.4710	30142.36	3.5190	3.5189	-1.3266	7.36	1.37	-0.750			
0.4750	30398.81	3.5160	3.5159	-1.3241	7.37	1.38	-0.750			
0.4789	30651.10	3.5130	3.5133	-1.3304	7.38	1.39	-0.750			
0.4829	30906.34	3.5100	3.5099	-1.3298	7.39	1.40	-0.750			
0.4869	31162.05	3.5070	3.5068	-1.3306	7.40	1.41	-0.750			
0.4908	31414.21	3.5040	3.5043	-1.3310	7.41	1.42	-0.750			
0.4949	31674.01	3.5010	3.5010	-1.3422	7.42	1.43	-0.750			
0.4990	31933.56	3.4980	3.4979	-1.3352	7.43	1.44	-0.750			
0.5029	32188.12	3.4950	3.4950	-1.3240	7.44	1.45	-0.750			
0.5069	32442.85	3.4920	3.4921	-1.3195	7.45	1.46	-0.750			
0.5108	32693.47	3.4890	3.4888	-1.3104	7.46	1.47	-0.750			
0.5147	32943.38	3.4860	3.4861	-1.3155	7.47	1.48	-0.750			
0.5187	33194.74	3.4830	3.4829	-1.3033	7.48	1.49	-0.750			
0.5226	33445.13	3.4800	3.4799	-1.3083	7.49	1.50	-0.750			
0.5265	33697.13	3.4770	3.4770	-1.3095	7.49	1.50	-0.750			
0.5304	33945.98	3.4740	3.4741	-1.3048	7.51	1.52	-0.750			
0.5344	34201.24	3.4710	3.4709	-1.3010	7.53	1.54	-0.750			
0.5383	34449.11	3.4680	3.4680	-1.2917	7.55	1.56	-0.750			
0.5421	34695.29	3.4650	3.4651	-1.2688	7.56	1.57	-0.750			
0.5460	34941.13	3.4620	3.4620	-1.2614	7.58	1.59	-0.750			
0.5497	35178.66	3.4590	3.4590	-1.2484	7.59	1.60	-0.750			
0.5534	35416.43	3.4560	3.4559	-1.2464	7.60	1.61	-0.750			
0.5571	35654.62	3.4530	3.4529	-1.2371	7.61	1.62	-0.750			
0.5608	35892.12	3.4500	3.4500	-1.2336	7.62	1.63	-0.750			
0.5645	36129.82	3.4470	3.4470	-1.2215	7.63	1.64	-0.750			
0.5682	36365.08	3.4440	3.4440	-1.2214	7.64	1.65	-0.750			
0.5719	36598.46	3.4410	3.4410	-1.2101	7.65	1.66	-0.750			
0.5755	36829.24	3.4380	3.4380	-1.1987	7.67	1.68	-0.750			
0.5790	37057.24	3.4350	3.4351	-1.1933	7.68	1.69	-0.750			
0.5826	37287.28	3.4320	3.4321	-1.1874	7.70	1.71	-0.750			
0.5862	37515.11	3.4290	3.4289	-1.1754	7.72	1.73	-0.750			
0.5897	37740.51	3.4260	3.4259	-1.1589	7.73	1.74	-0.750			
0.5932	37962.40	3.4230	3.4229	-1.1369	7.75	1.76	-0.750			
0.5966	38179.43	3.4200	3.4201	-1.1183	7.76	1.77	-0.750			
0.5999	38392.44	3.4170	3.4169	-1.0963	7.77	1.78	-0.750			
0.6031	38598.63	3.4140	3.4141	-1.0707	7.79	1.80	-0.750			
0.6063	38803.30	3.4110	3.4109	-1.0679	7.80	1.81	-0.750			
0.6095	39005.57	3.4080	3.4079	-1.0552	7.81	1.82	-0.750			
0.6126	39208.98	3.4050	3.4049	-1.0340	7.83	1.84	-0.750			
0.6157	39406.49	3.4020	3.4022	-1.0156	7.84	1.85	-0.750			
0.6188	39601.91	3.3990	3.3990	-0.9969	7.86	1.87	-0.750			
0.6217	39790.89	3.3960	3.3959	-0.9773	7.88	1.89	-0.750			
0.6246	39973.59	3.3930	3.3929	-0.9498	7.89	1.90	-0.750			
0.6274	40151.83	3.3900	3.3900	-0.9306	7.91	1.92	-0.750			
0.6302	40331.25	3.3870	3.3870	-0.9176	7.93	1.94	-0.750			
0.6329	40507.17	3.3840	3.3840	-0.9032	7.94	1.95	-0.750			
0.6356	40678.93	3.3810	3.3810	-0.8848	7.95	1.96	-0.750			
0.6382	40847.03	3.3780	3.3779	-0.8585	7.97	1.98	-0.750			
0.6408	41009.29	3.3750	3.3750	-0.8417	7.98	1.99	-0.750			
0.6433	41169.45	3.3720	3.3720	-0.8219	7.99	2.00	-0.750			
0.6457	41322.92	3.3690	3.3687	-0.8079	8.00	2.01	-0.750			
0.6481	41477.13	3.3660	3.3660	-0.7886	8.02	2.03	-0.750			
0.6504	41626.59	3.3630	3.3630	-0.7721	8.03	2.04	-0.750			
0.6527	41775.56	3.3600	3.3600	-0.7554	8.04	2.05	-0.750			
0.6550	41920.44	3.3570	3.3569	-0.7359	8.06	2.07	-0.750			
0.6571	42056.78	3.3540	3.3540	-0.7180	8.07	2.08	-0.750			
0.6593	42193.94	3.3510	3.3510	-0.7020	8.09	2.10	-0.750			
0.6613	42324.81	3.3480	3.3479	-0.6809	8.10	2.11	-0.750			
0.6634	42455.75	3.3450	3.3452	-0.6709	8.12	2.13	-0.750			
0.6654	42582.75	3.3420	3.3420	-0.6551	8.13	2.14	-0.750			
0.6673	42707.38	3.3390	3.3388	-0.6410	8.15	2.16	-0.750			
0.6692	42828.34	3.3360	3.3361	-0.6275	8.16	2.17	-0.750			
0.6710	42946.37	3.3330	3.3331	-0.6149	8.17	2.18	-0.750			
0.6729	43064.89	3.3300	3.3299	-0.6072	8.19	2.20	-0.750			
0.6747	43180.91	3.3270	3.3270	-0.5937	8.20	2.21	-0.750			
0.6765	43292.98	3.3240	3.3240	-0.5774	8.21	2.22	-0.750			
0.6782	43402.57	3.3210	3.3210	-0.5659	8.23	2.24	-0.750			
0.6799	43510.55	3.3180	3.3181	-0.5517	8.24	2.25	-0.750			
0.6815	43614.35	3.3150	3.3149	-0.5382	8.25	2.26	-0.750			
0.6831	43715.73	3.3120	3.3120	-0.5267	8.26	2.27	-0.750			
0.6846	43815.75	3.3090	3.3091	-0.5163	8.28	2.29	-0.750			
0.6862	43914.39	3.3060	3.3059	-0.5097	8.29	2.30	-0.750			
0.6877	44011.41	3.3030	3.3031	-0.5008	8.30	2.31	-0.750			
0.6892	44106.25	3.3000	3.2999	-0.4887	8.31	2.32	-0.750			
0.6906	44199.54	3.2970	3.2970	-0.4824	8.33	2.34	-0.750			
0.6920	44290.81	3.2940	3.2941	-0.4725	8.34	2.35	-0.750			
0.6935	44381.60	3.2910	3.2909	-0.4598	8.35	2.36	-0.750			
0.6948	44469.52	3.2880	3.2880	-0.4504	8.36	2.37	-0.750			
0.6962	44554.12	3.2850	3.2851	-0.4398	8.38	2.39	-0.750			
0.6975	44637.57	3.2820	3.2820	-0.4313	8.39	2.40	-0.750			
0.6987	44718.90	3.2790	3.2789	-0.4249	8.40	2.41	-0.750			
0.7000	44799.05	3.2760	3.2760	-0.4165	8.41	2.42	-0.750			
0.7012	44878.78	3.2730	3.2730	-0.4111	8.43	2.44	-0.750			
0.7025	44958.01	3.2700	3.2699	-0.4058	8.44	2.45	-0.750			
0.7037	45034.99	3.2670	3.2672	-0.3984	8.44	2.45	-0.750			
0.7049	45111.09	3.2640	3.2640	-0.3915	8.45	2.46	-0.750			
0.7060	45185.44	3.2610	3.2610	-0.3846	8.46	2.47	-0.750			
0.7072	45258.18	3.2580	3.2580	-0.3792	8.48	2.49	-0.750			
0.7083	45330.17	3.2550	3.2551	-0.3750	8.49	2.50	-0.750			
0.7094	45401.74	3.2520	3.2520	-0.3683	8.50	2.51	-0.750			
0.7105	45472.18	3.2490	3.2490	-0.3647	8.51	2.52	-0.750			
0.7116	45541.68	3.2460	3.2461	-0.3595	8.52	2.53	-0.750			
0.7127	45609.98	3.2430	3.2429	-0.3555	8.53	2.54	-0.750			
0.7137	45678.25	3.2400	3.2399	-0.3503	8.54	2.55	-0.750			
0.7148	45745.16	3.2370	3.2370	-0.3439	8.55	2.56	-0.750			
0.7158	45810.63	3.2340	3.2340	-0.3387	8.57	2.58	-0.750			
0.7168	45875.42	3.2310	3.2311	-0.3341	8.58	2.59	-0.750			
0.7178	45938.52	3.2280	3.2279	-0.3267	8.59	2.60	-0.750			
0.7188	46000.70	3.2250	3.2249	-0.3222	8.60	2.61	-0.750			
0.7197	46061.43	3.2220	3.2221	-0.3167	8.61	2.62	-0.750			
0.7207	46122.12	3.2190	3.2190	-0.3132	8.62	2.63	-0.750			
0.7216	46182.29	3.2160	3.2160	-0.3088	8.63	2.64	-0.750			
0.7225	46240.66	3.2130	3.2130	-0.3047	8.64	2.65	-0.750			
0.7234	46298.56	3.2100	3.2100	-0.3011	8.65	2.66	-0.750			
0.7243	46356.26	3.2070	3.2070	-0.2981	8.66	2.67	-0.750			
0.7252	46412.78	3.2040	3.2040	-0.2942	8.67	2.68	-0.750			
0.7261	46469.41	3.2010	3.2010	-0.2902	8.68	2.69	-0.750			
0.7270	46524.96	3.1980	3.1980	-0.2859	8.69	2.70	-0.750			
0.7278	46579.09	3.1950	3.1951	-0.2831	8.70	2.71	-0.750			
0.7286	46633.02	3.1920	3.1921	-0.2798	8.71	2.72	-0.750			
0.7295	46685.81	3.1890	3.1889	-0.2763	8.72	2.73	-0.750			
0.7303	46738.38	3.1860	3.1860	-0.2747	8.73	2.74	-0.750			
0.7311	46790.89	3.1830	3.1831	-0.2725	8.74	2.75	-0.750			
0.7319	46843.34	3.1800	3.1800	-0.2704	8.75	2.76	-0.750			
0.7327	46895.60	3.1770	3.1770	-0.2687	8.76	2.77	-0.750			
0.7335	46946.89	3.1740	3.1740	-0.2651	8.77	2.78	-0.750			
0.7343	46997.38	3.1710	3.1710	-0.2620	8.78	2.79	-0.750			
0.7351	47047.57	3.1680	3.1681	-0.2594	8.79	2.80	-0.750			
0.7359	47097.11	3.1650	3.1650	-0.2555	8.80	2.81	-0.750			
0.7367	47145.74	3.1620	3.1620	-0.2516	8.81	2.82	-0.750			
0.7374	47193.70	3.1590	3.1591	-0.2495	8.81	2.82	-0.750			
0.7381	47240.81	3.1560	3.1561	-0.2462	8.82	2.83	-0.750			
0.7389	47287.88	3.1530	3.1531	-0.2444	8.83	2.84	-0.750			
0.7396	47334.48	3.1500	3.1499	-0.2423	8.84	2.85	-0.750			
0.7403	47381.01	3.1470	3.1471	-0.2394	8.85	2.86	-0.750			
0.7410	47426.95	3.1440	3.1440	-0.2375	8.86	2.87	-0.750			
0.7418	47472.88	3.1410	3.1410	-0.2356	8.87	2.88	-0.750			
0.7425	47518.08	3.1380	3.1380	-0.2316	8.88	2.89	-0.750			
0.7432	47561.62	3.1350	3.1349	-0.2276	8.89	2.90	-0.750			
0.7438	47604.36	3.1320	3.1321	-0.2253	8.90	2.91	-0.750			
0.7445	47647.49	3.1290	3.1291	-0.2239	8.91	2.92	-0.750			
0.7452	47690.14	3.1260	3.1258	-0.2217	8.91	2.92	-0.750			
0.7458	47732.62	3.1230	3.1229	-0.2204	8.92	2.93	-0.750			
0.7465	47774.70	3.1200	3.1201	-0.2186	8.93	2.94	-0.750			
0.7471	47816.58	3.1170	3.1171	-0.2176	8.94	2.95	-0.750			
0.7478	47859.02	3.1140	3.1139	-0.2149	8.95	2.96	-0.750			
0.7484	47899.41	3.1110	3.1111	-0.2141	8.96	2.97	-0.750			
0.7491	47940.20	3.1080	3.1081	-0.2114	8.97	2.98	-0.750			
0.7497	47980.70	3.1050	3.1049	-0.2105	8.98	2.99	-0.750			
0.7503	48021.06	3.1020	3.1018	-0.2105	8.99	3.00	-0.750			
0.7510	48061.20	3.0990	3.0992	-0.2094	9.00	3.01	-0.750			
0.7516	48101.69	3.0960	3.0960	-0.2087	9.01	3.02	-0.750			
0.7522	48141.65	3.0930	3.0929	-0.2076	9.02	3.03	-0.750			
0.7528	48182.01	3.0900	3.0900	-0.2060	9.03	3.04	-0.750			
0.7535	48221.08	3.0870	3.0870	-0.2026	9.04	3.05	-0.750			
0.7541	48259.99	3.0840	3.0841	-0.2022	9.05	3.06	-0.750			
0.7547	48298.56	3.0810	3.0809	-0.1996	9.06	3.07	-0.750			
0.7553	48336.19	3.0780	3.0781	-0.1975	9.06	3.07	-0.750			
0.7558	48373.90	3.0750	3.0749	-0.1956	9.07	3.08	-0.750			
0.7564	48411.39	3.0720	3.0720	-0.1943	9.08	3.09	-0.750			
0.7570	48448.56	3.0690	3.0691	-0.1929	9.09	3.10	-0.750			
0.7576	48485.30	3.0660	3.0661	-0.1929	9.10	3.11	-0.750			
0.7582	48522.49	3.0630	3.0630	-0.1917	9.11	3.12	-0.750			
0.7587	48558.96	3.0600	3.0599	-0.1898	9.12	3.13	-0.750			
0.7593	48595.11	3.0570	3.0570	-0.1898	9.13	3.14	-0.750			
0.7599	48631.53	3.0540	3.0542	-0.1896	9.14	3.15	-0.750			
0.7604	48668.09	3.0510	3.0509	-0.1889	9.15	3.16	-0.750			
0.7610	48704.27	3.0480	3.0478	-0.1879	9.16	3.17	-0.750			
0.7616	48740.47	3.0450	3.0451	-0.1864	9.16	3.17	-0.750			
0.7621	48776.01	3.0420	3.0421	-0.1850	9.17	3.18	-0.750			
0.7627	48811.84	3.0390	3.0390	-0.1846	9.18	3.19	-0.750			
0.7632	48847.20	3.0360	3.0360	-0.1827	9.19	3.20	-0.750			
0.7638	48881.41	3.0330	3.0330	-0.1805	9.20	3.21	-0.750			
0.7643	48916.02	3.0300	3.0300	-0.1800	9.20	3.21	-0.750			
0.7649	48950.50	3.0270	3.0271	-0.1796	9.21	3.22	-0.750			
0.7654	48985.05	3.0240	3.0241	-0.1782	9.22	3.23	-0.750			
0.7659	49019.47	3.0210	3.0209	-0.1778	9.23	3.24	-0.750			
0.7665	49053.48	3.0180	3.0180	-0.1762	9.23	3.24	-0.750			
0.7670	49087.14	3.0150	3.0151	-0.1747	9.24	3.25	-0.750			
0.7675	49120.87	3.0120	3.0119	-0.1735	9.25	3.26	-0.750			
0.7680	49153.96	3.0090	3.0089	-0.1712	9.26	3.27	-0.750			
0.7685	49186.36	3.0060	3.0060	-0.1703	9.26	3.27	-0.750			
0.7690	49219.02	3.0030	3.0031	-0.1718	9.27	3.28	-0.750			
