Ah_balance (normalized)	Ah_balance (mAh)	Voltage - fit (V)	Voltage -  interpolate (V)	dQ/dV (1/V)	Temperature (°C)	Temperature - diff (°C)	Current (C)	R_DC 0ms (mOhm)	R_DC 50ms (mOhm)	R_DC 50 ms PEC (mOhm)
0.0002	10.81	4.1080	4.1071	-0.0307	5.99	0.00	-0.750			
0.0003	22.20	4.1050	4.1045	-0.0714	5.99	0.00	-0.750			
0.0006	40.23	4.1020	4.1016	-0.1019	5.99	-0.00	-0.750			
0.0010	62.43	4.0990	4.0989	-0.1293	5.99	-0.00	-0.750			
0.0014	90.46	4.0960	4.0961	-0.1531	5.99	-0.00	-0.750			
0.0019	122.46	4.0930	4.0931	-0.1764	5.99	-0.00	-0.750			
0.0025	159.96	4.0900	4.0901	-0.2029	5.99	-0.00	-0.750			
0.0031	201.32	4.0870	4.0869	-0.2235	5.99	-0.00	-0.750			
0.0038	245.63	4.0840	4.0839	-0.2455	5.99	-0.00	-0.750			
0.0046	295.48	4.0810	4.0810	-0.2664	5.99	-0.00	-0.750			
0.0055	349.05	4.0780	4.0781	-0.2875	5.99	-0.00	-0.750			
0.0063	405.71	4.0750	4.0750	-0.3095	5.99	-0.00	-0.750			
0.0073	467.17	4.0720	4.0721	-0.3319	5.98	-0.01	-0.750			
0.0083	532.31	4.0690	4.0689	-0.3556	5.98	-0.01	-0.750			
0.0094	602.14	4.0660	4.0659	-0.3804	5.98	-0.01	-0.750			
0.0106	678.55	4.0630	4.0630	-0.4011	5.98	-0.01	-0.750			
0.0119	758.75	4.0600	4.0600	-0.4215	5.98	-0.01	-0.750			
0.0132	842.04	4.0570	4.0571	-0.4446	5.98	-0.01	-0.750			
0.0145	929.00	4.0540	4.0540	-0.4647	5.98	-0.01	-0.750			
0.0159	1018.99	4.0510	4.0509	-0.4856	5.98	-0.01	-0.750			
0.0174	1114.29	4.0480	4.0480	-0.5057	5.98	-0.01	-0.750			
0.0189	1212.73	4.0450	4.0451	-0.5313	5.98	-0.01	-0.750			
0.0206	1318.80	4.0420	4.0420	-0.5531	5.99	-0.00	-0.750			
0.0223	1429.12	4.0390	4.0389	-0.5700	5.99	-0.00	-0.750			
0.0241	1540.42	4.0360	4.0360	-0.5791	5.99	-0.00	-0.750			
0.0258	1653.76	4.0330	4.0331	-0.5900	5.99	0.00	-0.750			
0.0276	1767.68	4.0300	4.0301	-0.5984	5.99	0.00	-0.750			
0.0294	1881.64	4.0270	4.0270	-0.6128	6.00	0.01	-0.750			
0.0312	1998.93	4.0240	4.0240	-0.6244	6.00	0.01	-0.750			
0.0331	2121.49	4.0210	4.0209	-0.6367	6.00	0.01	-0.750			
0.0351	2245.09	4.0180	4.0181	-0.6472	6.01	0.02	-0.750			
0.0371	2371.62	4.0150	4.0150	-0.6649	6.01	0.02	-0.750			
0.0391	2501.44	4.0120	4.0118	-0.6676	6.01	0.02	-0.750			
0.0411	2629.59	4.0090	4.0089	-0.6779	6.02	0.03	-0.750			
0.0431	2759.35	4.0060	4.0062	-0.6932	6.02	0.03	-0.750			
0.0452	2894.70	4.0030	4.0029	-0.7063	6.02	0.03	-0.750			
0.0474	3034.39	4.0000	3.9999	-0.7047	6.03	0.04	-0.750			
0.0495	3170.17	3.9970	3.9971	-0.7083	6.03	0.04	-0.750			
0.0517	3306.35	3.9940	3.9941	-0.7055	6.03	0.04	-0.750			
0.0538	3444.84	3.9910	3.9908	-0.7090	6.04	0.05	-0.750			
0.0559	3577.14	3.9880	3.9879	-0.7078	6.05	0.06	-0.750			
0.0580	3709.07	3.9850	3.9851	-0.7093	6.05	0.06	-0.750			
0.0602	3849.63	3.9820	3.9818	-0.7174	6.06	0.07	-0.750			
0.0623	3989.87	3.9790	3.9791	-0.7215	6.07	0.08	-0.750			
0.0645	4126.11	3.9760	3.9759	-0.7232	6.07	0.08	-0.750			
0.0667	4266.13	3.9730	3.9731	-0.7298	6.08	0.09	-0.750			
0.0688	4406.01	3.9700	3.9699	-0.7328	6.08	0.09	-0.750			
0.0711	4547.93	3.9670	3.9670	-0.7312	6.09	0.10	-0.750			
0.0733	4690.36	3.9640	3.9641	-0.7351	6.09	0.10	-0.750			
0.0755	4832.46	3.9610	3.9612	-0.7384	6.10	0.11	-0.750			
0.0777	4973.54	3.9580	3.9580	-0.7420	6.11	0.12	-0.750			
0.0799	5113.67	3.9550	3.9549	-0.7475	6.11	0.12	-0.750			
0.0822	5258.33	3.9520	3.9520	-0.7481	6.12	0.13	-0.750			
0.0844	5403.68	3.9490	3.9489	-0.7582	6.12	0.13	-0.750			
0.0867	5550.34	3.9460	3.9460	-0.7645	6.13	0.14	-0.750			
0.0890	5698.54	3.9430	3.9429	-0.7666	6.13	0.14	-0.750			
0.0913	5845.40	3.9400	3.9399	-0.7658	6.14	0.15	-0.750			
0.0936	5991.08	3.9370	3.9372	-0.7627	6.15	0.16	-0.750			
0.0959	6137.99	3.9340	3.9340	-0.7613	6.16	0.17	-0.750			
0.0982	6285.57	3.9310	3.9308	-0.7653	6.17	0.18	-0.750			
0.1005	6429.17	3.9280	3.9282	-0.7647	6.18	0.19	-0.750			
0.1028	6576.83	3.9250	3.9249	-0.7660	6.19	0.20	-0.750			
0.1051	6725.51	3.9220	3.9220	-0.7748	6.19	0.20	-0.750			
0.1074	6875.19	3.9190	3.9190	-0.7789	6.20	0.21	-0.750			
0.1098	7025.56	3.9160	3.9161	-0.7814	6.20	0.21	-0.750			
0.1121	7176.60	3.9130	3.9128	-0.7819	6.21	0.22	-0.750			
0.1144	7324.71	3.9100	3.9100	-0.7836	6.22	0.23	-0.750			
0.1168	7474.51	3.9070	3.9070	-0.7893	6.23	0.24	-0.750			
0.1192	7628.13	3.9040	3.9039	-0.7911	6.24	0.25	-0.750			
0.1216	7779.45	3.9010	3.9010	-0.7862	6.24	0.25	-0.750			
0.1239	7931.28	3.8980	3.8981	-0.7929	6.25	0.26	-0.750			
0.1263	8084.27	3.8950	3.8950	-0.7930	6.26	0.27	-0.750			
0.1287	8235.03	3.8920	3.8919	-0.7961	6.27	0.28	-0.750			
0.1311	8387.40	3.8890	3.8890	-0.7961	6.28	0.29	-0.750			
0.1334	8540.54	3.8860	3.8860	-0.7960	6.29	0.30	-0.750			
0.1359	8695.46	3.8830	3.8829	-0.7995	6.29	0.30	-0.750			
0.1383	8850.34	3.8800	3.8801	-0.7948	6.30	0.31	-0.750			
0.1406	9000.59	3.8770	3.8770	-0.7896	6.31	0.32	-0.750			
0.1430	9152.18	3.8740	3.8741	-0.7936	6.32	0.33	-0.750			
0.1454	9304.00	3.8710	3.8709	-0.7922	6.32	0.33	-0.750			
0.1478	9456.17	3.8680	3.8679	-0.7950	6.33	0.34	-0.750			
0.1501	9608.76	3.8650	3.8649	-0.7965	6.34	0.35	-0.750			
0.1525	9762.08	3.8620	3.8620	-0.7997	6.35	0.36	-0.750			
0.1549	9916.21	3.8590	3.8589	-0.8085	6.36	0.37	-0.750			
0.1574	10071.08	3.8560	3.8559	-0.8063	6.37	0.38	-0.750			
0.1598	10226.56	3.8530	3.8530	-0.8144	6.38	0.39	-0.750			
0.1622	10383.54	3.8500	3.8502	-0.8196	6.39	0.40	-0.750			
0.1647	10542.67	3.8470	3.8469	-0.8203	6.40	0.41	-0.750			
0.1672	10701.13	3.8440	3.8440	-0.8222	6.40	0.41	-0.750			
0.1697	10857.82	3.8410	3.8410	-0.8212	6.41	0.42	-0.750			
0.1721	11013.69	3.8380	3.8379	-0.8234	6.42	0.43	-0.750			
0.1746	11174.38	3.8350	3.8351	-0.8316	6.43	0.44	-0.750			
0.1771	11332.97	3.8320	3.8318	-0.8328	6.44	0.45	-0.750			
0.1796	11494.80	3.8290	3.8290	-0.8377	6.44	0.45	-0.750			
0.1821	11656.99	3.8260	3.8260	-0.8409	6.45	0.46	-0.750			
0.1846	11817.31	3.8230	3.8230	-0.8380	6.46	0.47	-0.750			
0.1872	11980.34	3.8200	3.8200	-0.8406	6.47	0.48	-0.750			
0.1897	12141.73	3.8170	3.8169	-0.8354	6.48	0.49	-0.750			
0.1922	12301.55	3.8140	3.8140	-0.8348	6.49	0.50	-0.750			
0.1947	12461.85	3.8110	3.8110	-0.8314	6.50	0.51	-0.750			
0.1972	12621.46	3.8080	3.8080	-0.8288	6.51	0.52	-0.750			
0.1997	12780.20	3.8050	3.8050	-0.8282	6.52	0.53	-0.750			
0.2022	12937.75	3.8020	3.8020	-0.8322	6.53	0.54	-0.750			
0.2047	13097.83	3.7990	3.7990	-0.8371	6.53	0.54	-0.750			
0.2072	13259.50	3.7960	3.7959	-0.8454	6.54	0.55	-0.750			
0.2097	13421.55	3.7930	3.7929	-0.8487	6.55	0.56	-0.750			
0.2123	13588.36	3.7900	3.7901	-0.8538	6.56	0.57	-0.750			
0.2149	13752.24	3.7870	3.7869	-0.8569	6.57	0.58	-0.750			
0.2175	13917.32	3.7840	3.7839	-0.8552	6.57	0.58	-0.750			
0.2200	14081.56	3.7810	3.7810	-0.8502	6.58	0.59	-0.750			
0.2226	14243.50	3.7780	3.7781	-0.8419	6.59	0.60	-0.750			
0.2251	14405.69	3.7750	3.7751	-0.8431	6.60	0.61	-0.750			
0.2276	14565.55	3.7720	3.7720	-0.8509	6.61	0.62	-0.750			
0.2301	14727.45	3.7690	3.7688	-0.8569	6.62	0.63	-0.750			
0.2327	14891.84	3.7660	3.7660	-0.8619	6.63	0.64	-0.750			
0.2353	15060.84	3.7630	3.7630	-0.8674	6.64	0.65	-0.750			
0.2380	15231.24	3.7600	3.7603	-0.8725	6.65	0.66	-0.750			
0.2406	15399.74	3.7570	3.7571	-0.8682	6.66	0.67	-0.750			
0.2432	15563.45	3.7540	3.7540	-0.8659	6.66	0.67	-0.750			
0.2458	15729.21	3.7510	3.7508	-0.8672	6.67	0.68	-0.750			
0.2484	15894.49	3.7480	3.7481	-0.8674	6.68	0.69	-0.750			
0.2510	16060.80	3.7450	3.7451	-0.8758	6.68	0.69	-0.750			
0.2536	16231.30	3.7420	3.7422	-0.8909	6.69	0.70	-0.750			
0.2563	16404.22	3.7390	3.7388	-0.8840	6.70	0.71	-0.750			
0.2590	16574.14	3.7360	3.7359	-0.8787	6.71	0.72	-0.750			
0.2616	16741.79	3.7330	3.7331	-0.8753	6.72	0.73	-0.750			
0.2642	16909.17	3.7300	3.7299	-0.8737	6.73	0.74	-0.750			
0.2668	17075.31	3.7270	3.7269	-0.8798	6.74	0.75	-0.750			
0.2694	17241.89	3.7240	3.7240	-0.8869	6.75	0.76	-0.750			
0.2721	17412.33	3.7210	3.7210	-0.8950	6.75	0.76	-0.750			
0.2748	17588.20	3.7180	3.7179	-0.9105	6.76	0.77	-0.750			
0.2776	17763.84	3.7150	3.7150	-0.9225	6.77	0.78	-0.750			
0.2804	17944.89	3.7120	3.7120	-0.9197	6.78	0.79	-0.750			
0.2831	18120.59	3.7090	3.7090	-0.9212	6.79	0.80	-0.750			
0.2859	18296.42	3.7060	3.7059	-0.9200	6.80	0.81	-0.750			
0.2886	18472.03	3.7030	3.7031	-0.9232	6.81	0.82	-0.750			
0.2914	18651.15	3.7000	3.6998	-0.9306	6.82	0.83	-0.750			
0.2942	18829.92	3.6970	3.6970	-0.9346	6.82	0.83	-0.750			
0.2970	19009.48	3.6940	3.6939	-0.9327	6.82	0.83	-0.750			
0.2999	19193.80	3.6910	3.6913	-0.9424	6.83	0.84	-0.750			
0.3027	19371.53	3.6880	3.6879	-0.9363	6.84	0.85	-0.750			
0.3055	19551.91	3.6850	3.6850	-0.9355	6.85	0.86	-0.750			
0.3083	19728.43	3.6820	3.6820	-0.9329	6.86	0.87	-0.750			
0.3110	19905.66	3.6790	3.6788	-0.9488	6.86	0.87	-0.750			
0.3139	20088.73	3.6760	3.6760	-0.9662	6.87	0.88	-0.750			
0.3169	20278.41	3.6730	3.6729	-0.9915	6.88	0.89	-0.750			
0.3199	20473.33	3.6700	3.6699	-1.0091	6.88	0.89	-0.750			
0.3230	20672.44	3.6670	3.6669	-1.0110	6.89	0.90	-0.750			
0.3261	20869.73	3.6640	3.6642	-1.0202	6.89	0.90	-0.750			
0.3291	21065.31	3.6610	3.6610	-1.0270	6.90	0.91	-0.750			
0.3322	21260.45	3.6580	3.6579	-1.0232	6.91	0.92	-0.750			
0.3352	21452.88	3.6550	3.6548	-1.0198	6.91	0.92	-0.750			
0.3383	21653.67	3.6520	3.6523	-1.0363	6.92	0.93	-0.750			
0.3415	21855.41	3.6490	3.6489	-1.0390	6.93	0.94	-0.750			
0.3446	22053.46	3.6460	3.6460	-1.0501	6.94	0.95	-0.750			
0.3477	22250.18	3.6430	3.6431	-1.0553	6.94	0.95	-0.750			
0.3509	22455.92	3.6400	3.6400	-1.0716	6.95	0.96	-0.750			
0.3541	22663.71	3.6370	3.6369	-1.0885	6.96	0.97	-0.750			
0.3574	22873.41	3.6340	3.6341	-1.1028	6.97	0.98	-0.750			
0.3608	23088.92	3.6310	3.6310	-1.1102	6.97	0.98	-0.750			
0.3641	23304.34	3.6280	3.6280	-1.1304	6.98	0.99	-0.750			
0.3675	23520.58	3.6250	3.6250	-1.1337	6.99	1.00	-0.750			
0.3709	23739.09	3.6220	3.6219	-1.1408	6.99	1.00	-0.750			
0.3744	23961.43	3.6190	3.6189	-1.1427	7.00	1.01	-0.750			
0.3778	24179.76	3.6160	3.6161	-1.1473	7.00	1.01	-0.750			
0.3812	24399.36	3.6130	3.6130	-1.1592	7.01	1.02	-0.750			
0.3847	24622.39	3.6100	3.6101	-1.1743	7.01	1.02	-0.750			
0.3882	24846.24	3.6070	3.6070	-1.1879	7.02	1.03	-0.750			
0.3919	25080.38	3.6040	3.6040	-1.2092	7.03	1.04	-0.750			
0.3956	25315.43	3.6010	3.6009	-1.2222	7.03	1.04	-0.750			
0.3993	25553.28	3.5980	3.5983	-1.2417	7.04	1.05	-0.750	0.419	0.946	
0.4030	25790.91	3.5950	3.5950	-1.2488	7.04	1.05	-0.750			
0.4068	26032.27	3.5920	3.5919	-1.2520	7.05	1.06	-0.750			
0.4105	26270.19	3.5890	3.5890	-1.2618	7.06	1.07	-0.750			
0.4143	26516.21	3.5860	3.5862	-1.2812	7.06	1.07	-0.750			
0.4182	26763.71	3.5830	3.5829	-1.2913	7.07	1.08	-0.750			
0.4221	27011.44	3.5800	3.5799	-1.2965	7.08	1.09	-0.750			
0.4259	27258.51	3.5770	3.5771	-1.3096	7.09	1.10	-0.750			
0.4299	27513.67	3.5740	3.5739	-1.3194	7.09	1.10	-0.750			
0.4339	27771.98	3.5710	3.5710	-1.3340	7.10	1.11	-0.750			
0.4379	28025.21	3.5680	3.5683	-1.3491	7.10	1.11	-0.750			
0.4420	28285.62	3.5650	3.5649	-1.3653	7.11	1.12	-0.750			
0.4461	28549.87	3.5620	3.5619	-1.3828	7.12	1.13	-0.750			
0.4503	28816.24	3.5590	3.5591	-1.3998	7.13	1.14	-0.750			
0.4545	29090.57	3.5560	3.5560	-1.4196	7.14	1.15	-0.750			
0.4588	29365.08	3.5530	3.5529	-1.4307	7.14	1.15	-0.750			
0.4631	29640.29	3.5500	3.5502	-1.4395	7.15	1.16	-0.750			
0.4675	29919.32	3.5470	3.5469	-1.4390	7.16	1.17	-0.750			
0.4718	30195.82	3.5440	3.5439	-1.4384	7.16	1.17	-0.750			
0.4761	30472.76	3.5410	3.5412	-1.4435	7.17	1.18	-0.750			
0.4805	30752.95	3.5380	3.5379	-1.4492	7.18	1.19	-0.750			
0.4848	31025.44	3.5350	3.5349	-1.4660	7.19	1.20	-0.750			
0.4891	31301.72	3.5320	3.5322	-1.4816	7.19	1.20	-0.750			
0.4936	31593.53	3.5290	3.5288	-1.5007	7.20	1.21	-0.750			
0.4982	31886.34	3.5260	3.5260	-1.5011	7.21	1.22	-0.750			
0.5028	32176.93	3.5230	3.5228	-1.4987	7.21	1.22	-0.750			
0.5073	32468.12	3.5200	3.5201	-1.4992	7.22	1.23	-0.750			
0.5118	32754.06	3.5170	3.5171	-1.4854	7.22	1.23	-0.750			
0.5161	33033.05	3.5140	3.5139	-1.4720	7.23	1.24	-0.750			
0.5204	33308.23	3.5110	3.5109	-1.4718	7.24	1.25	-0.750			
0.5250	33598.89	3.5080	3.5081	-1.4842	7.25	1.26	-0.750			
0.5294	33883.66	3.5050	3.5050	-1.4987	7.26	1.27	-0.750			
0.5339	34172.52	3.5020	3.5019	-1.5105	7.26	1.27	-0.750			
0.5385	34466.92	3.4990	3.4991	-1.5108	7.27	1.28	-0.750			
0.5431	34756.73	3.4960	3.4961	-1.5085	7.28	1.29	-0.750			
0.5476	35047.32	3.4930	3.4930	-1.5065	7.29	1.30	-0.750			
0.5522	35337.95	3.4900	3.4900	-1.4857	7.29	1.30	-0.750			
0.5566	35625.06	3.4870	3.4869	-1.4734	7.31	1.32	-0.750			
0.5609	35897.84	3.4840	3.4840	-1.4686	7.32	1.33	-0.750			
0.5653	36178.60	3.4810	3.4809	-1.4587	7.32	1.33	-0.750			
0.5697	36460.48	3.4780	3.4778	-1.4775	7.33	1.34	-0.750			
0.5741	36744.79	3.4750	3.4749	-1.4769	7.34	1.35	-0.750			
0.5786	37031.39	3.4720	3.4721	-1.4762	7.35	1.36	-0.750			
0.5831	37321.54	3.4690	3.4692	-1.4584	7.36	1.37	-0.750			
0.5875	37603.13	3.4660	3.4660	-1.4328	7.37	1.38	-0.750			
0.5918	37872.46	3.4630	3.4630	-1.3913	7.38	1.39	-0.750			
0.5958	38128.87	3.4600	3.4600	-1.3935	7.40	1.41	-0.750			
0.5999	38392.94	3.4570	3.4571	-1.3869	7.41	1.42	-0.750			
0.6041	38664.17	3.4540	3.4537	-1.3798	7.42	1.43	-0.750			
0.6084	38934.41	3.4510	3.4508	-1.3684	7.44	1.45	-0.750			
0.6125	39198.92	3.4480	3.4485	-1.3552	7.45	1.46	-0.750			
0.6166	39459.98	3.4450	3.4448	-1.3274	7.46	1.47	-0.750			
0.6205	39712.33	3.4420	3.4420	-1.3021	7.47	1.48	-0.750			
0.6242	39946.63	3.4390	3.4392	-1.2642	7.48	1.49	-0.750			
0.6281	40197.11	3.4360	3.4359	-1.2681	7.49	1.50	-0.750			
0.6318	40436.55	3.4330	3.4329	-1.2420	7.51	1.52	-0.750			
0.6355	40674.99	3.4300	3.4300	-1.2205	7.52	1.53	-0.750			
0.6391	40904.04	3.4270	3.4272	-1.1970	7.53	1.54	-0.750			
0.6428	41136.61	3.4240	3.4240	-1.1839	7.54	1.55	-0.750			
0.6463	41360.23	3.4210	3.4209	-1.1610	7.55	1.56	-0.750			
0.6497	41581.31	3.4180	3.4180	-1.1254	7.56	1.57	-0.750			
0.6531	41795.76	3.4150	3.4150	-1.1095	7.57	1.58	-0.750			
0.6564	42007.34	3.4120	3.4121	-1.0827	7.58	1.59	-0.750			
0.6596	42213.06	3.4090	3.4089	-1.0504	7.60	1.61	-0.750			
0.6626	42408.88	3.4060	3.4060	-1.0224	7.61	1.62	-0.750			
0.6657	42602.54	3.4030	3.4031	-1.0018	7.62	1.63	-0.750			
0.6686	42792.83	3.4000	3.3999	-0.9813	7.64	1.65	-0.750			
0.6716	42982.45	3.3970	3.3969	-0.9638	7.65	1.66	-0.750			
0.6744	43161.91	3.3940	3.3941	-0.9363	7.67	1.68	-0.750			
0.6772	43342.50	3.3910	3.3909	-0.9149	7.68	1.69	-0.750			
0.6799	43516.00	3.3880	3.3879	-0.8942	7.69	1.70	-0.750			
0.6825	43682.76	3.3850	3.3850	-0.8655	7.70	1.71	-0.750			
0.6851	43848.18	3.3820	3.3820	-0.8410	7.71	1.72	-0.750			
0.6876	44009.23	3.3790	3.3791	-0.8140	7.72	1.73	-0.750			
0.6900	44162.29	3.3760	3.3760	-0.7878	7.73	1.74	-0.750			
0.6923	44308.07	3.3730	3.3731	-0.7629	7.74	1.75	-0.750			
0.6946	44451.95	3.3700	3.3699	-0.7481	7.76	1.77	-0.750			
0.6967	44591.62	3.3670	3.3670	-0.7295	7.77	1.78	-0.750			
0.6989	44731.55	3.3640	3.3639	-0.7122	7.78	1.79	-0.750			
0.7011	44868.09	3.3610	3.3611	-0.6943	7.79	1.80	-0.750			
0.7032	45001.92	3.3580	3.3581	-0.6779	7.81	1.82	-0.750			
0.7051	45129.02	3.3550	3.3550	-0.6578	7.82	1.83	-0.750			
0.7071	45252.30	3.3520	3.3520	-0.6366	7.83	1.84	-0.750			
0.7090	45373.22	3.3490	3.3489	-0.6176	7.84	1.85	-0.750			
0.7108	45490.12	3.3460	3.3460	-0.5991	7.85	1.86	-0.750			
0.7126	45604.23	3.3430	3.3432	-0.5801	7.86	1.87	-0.750			
0.7143	45712.47	3.3400	3.3399	-0.5656	7.87	1.88	-0.750			
0.7159	45818.24	3.3370	3.3369	-0.5481	7.88	1.89	-0.750			
0.7175	45922.12	3.3340	3.3340	-0.5307	7.89	1.90	-0.750			
0.7191	46021.77	3.3310	3.3311	-0.5175	7.90	1.91	-0.750			
0.7206	46121.21	3.3280	3.3281	-0.5069	7.91	1.92	-0.750			
0.7221	46217.04	3.3250	3.3249	-0.4934	7.92	1.93	-0.750			
0.7236	46309.60	3.3220	3.3219	-0.4807	7.93	1.94	-0.750			
0.7250	46399.28	3.3190	3.3190	-0.4718	7.94	1.95	-0.750			
0.7264	46489.80	3.3160	3.3161	-0.4643	7.95	1.96	-0.750			
0.7278	46578.70	3.3130	3.3129	-0.4564	7.96	1.97	-0.750			
0.7291	46665.28	3.3100	3.3101	-0.4461	7.97	1.98	-0.750			
0.7305	46750.83	3.3070	3.3070	-0.4358	7.98	1.99	-0.750			
0.7318	46832.89	3.3040	3.3040	-0.4255	7.99	2.00	-0.750			
0.7330	46913.00	3.3010	3.3010	-0.4190	7.99	2.00	-0.750			
0.7343	46992.14	3.2980	3.2979	-0.4118	8.00	2.01	-0.750			
0.7355	47071.59	3.2950	3.2949	-0.4019	8.01	2.02	-0.750			
0.7367	47147.90	3.2920	3.2921	-0.3918	8.02	2.03	-0.750			
0.7379	47223.25	3.2890	3.2892	-0.3819	8.03	2.04	-0.750			
0.7390	47295.53	3.2860	3.2859	-0.3712	8.04	2.05	-0.750			
0.7401	47364.52	3.2830	3.2830	-0.3593	8.05	2.06	-0.750			
0.7411	47432.01	3.2800	3.2800	-0.3492	8.06	2.07	-0.750			
0.7422	47497.76	3.2770	3.2770	-0.3426	8.07	2.08	-0.750			
0.7432	47563.41	3.2740	3.2740	-0.3389	8.08	2.09	-0.750			
0.7442	47627.07	3.2710	3.2710	-0.3336	8.09	2.10	-0.750			
0.7452	47691.21	3.2680	3.2679	-0.3285	8.10	2.11	-0.750			
0.7461	47753.52	3.2650	3.2651	-0.3234	8.11	2.12	-0.750			
0.7471	47815.65	3.2620	3.2620	-0.3179	8.12	2.13	-0.750			
0.7481	47876.58	3.2590	3.2590	-0.3110	8.12	2.13	-0.750			
0.7490	47935.06	3.2560	3.2560	-0.3048	8.13	2.14	-0.750			
0.7499	47992.99	3.2530	3.2530	-0.2987	8.14	2.15	-0.750			
0.7508	48049.55	3.2500	3.2500	-0.2924	8.14	2.15	-0.750			
0.7516	48105.05	3.2470	3.2470	-0.2892	8.15	2.16	-0.750			
0.7525	48159.68	3.2440	3.2441	-0.2847	8.16	2.17	-0.750			
0.7533	48214.27	3.2410	3.2409	-0.2828	8.17	2.18	-0.750			
0.7542	48268.40	3.2380	3.2380	-0.2794	8.18	2.19	-0.750			
0.7550	48321.51	3.2350	3.2351	-0.2743	8.19	2.20	-0.750			
0.7559	48374.54	3.2320	3.2320	-0.2709	8.20	2.21	-0.750			
0.7567	48426.44	3.2290	3.2290	-0.2669	8.21	2.22	-0.750			
0.7575	48476.99	3.2260	3.2260	-0.2608	8.21	2.22	-0.750			
0.7582	48526.33	3.2230	3.2230	-0.2574	8.22	2.23	-0.750			
0.7590	48575.23	3.2200	3.2201	-0.2525	8.23	2.24	-0.750			
0.7597	48623.31	3.2170	3.2170	-0.2487	8.24	2.25	-0.750			
0.7605	48670.57	3.2140	3.2140	-0.2456	8.24	2.25	-0.750			
0.7612	48717.68	3.2110	3.2111	-0.2412	8.25	2.26	-0.750			
0.7619	48763.39	3.2080	3.2080	-0.2369	8.25	2.26	-0.750			
0.7626	48808.34	3.2050	3.2051	-0.2339	8.26	2.27	-0.750			
0.7633	48852.36	3.2020	3.2019	-0.2296	8.27	2.28	-0.750			
0.7640	48896.60	3.1990	3.1989	-0.2274	8.27	2.28	-0.750			
0.7647	48939.63	3.1960	3.1959	-0.2242	8.28	2.29	-0.750			
0.7653	48982.38	3.1930	3.1930	-0.2210	8.29	2.30	-0.750			
0.7660	49024.60	3.1900	3.1901	-0.2188	8.30	2.31	-0.750			
0.7667	49066.86	3.1870	3.1870	-0.2167	8.31	2.32	-0.750			
0.7673	49108.14	3.1840	3.1840	-0.2134	8.31	2.32	-0.750			
0.7680	49148.84	3.1810	3.1810	-0.2099	8.32	2.33	-0.750			
0.7686	49188.82	3.1780	3.1779	-0.2066	8.33	2.34	-0.750			
0.7692	49228.23	3.1750	3.1750	-0.2041	8.34	2.35	-0.750			
0.7698	49266.78	3.1720	3.1720	-0.2013	8.34	2.35	-0.750			
0.7704	49304.84	3.1690	3.1690	-0.1993	8.35	2.36	-0.750			
0.7710	49342.98	3.1660	3.1660	-0.1980	8.36	2.37	-0.750			
0.7716	49380.70	3.1630	3.1630	-0.1958	8.36	2.37	-0.750			
0.7722	49418.28	3.1600	3.1600	-0.1944	8.37	2.38	-0.750			
0.7727	49455.61	3.1570	3.1571	-0.1923	8.38	2.39	-0.750			
0.7733	49492.68	3.1540	3.1540	-0.1904	8.38	2.39	-0.750			
0.7739	49529.16	3.1510	3.1510	-0.1875	8.39	2.40	-0.750			
0.7745	49564.90	3.1480	3.1480	-0.1845	8.39	2.40	-0.750			
0.7750	49599.64	3.1450	3.1449	-0.1820	8.40	2.41	-0.750			
0.7755	49634.36	3.1420	3.1421	-0.1800	8.40	2.41	-0.750			
0.7761	49668.69	3.1390	3.1390	-0.1780	8.41	2.42	-0.750			
0.7766	49702.55	3.1360	3.1359	-0.1754	8.42	2.43	-0.750			
0.7771	49736.01	3.1330	3.1330	-0.1742	8.42	2.43	-0.750			
0.7776	49769.37	3.1300	3.1301	-0.1727	8.43	2.44	-0.750			
0.7782	49802.34	3.1270	3.1270	-0.1712	8.44	2.45	-0.750			
0.7787	49834.98	3.1240	3.1239	-0.1701	8.45	2.46	-0.750			
0.7792	49867.34	3.1210	3.1209	-0.1682	8.45	2.46	-0.750			
0.7797	49899.56	3.1180	3.1181	-0.1674	8.46	2.47	-0.750			
0.7802	49931.82	3.1150	3.1149	-0.1655	8.47	2.48	-0.750			
0.7807	49963.65	3.1120	3.1120	-0.1643	8.48	2.49	-0.750			
0.7812	49994.82	3.1090	3.1090	-0.1623	8.48	2.49	-0.750			
0.7817	50025.85	3.1060	3.1059	-0.1605	8.49	2.50	-0.750			
0.7821	50056.53	3.1030	3.1030	-0.1587	8.50	2.51	-0.750			
0.7826	50086.65	3.1000	3.1000	-0.1571	8.50	2.51	-0.750			
0.7831	50116.87	3.0970	3.0971	-0.1554	8.51	2.52	-0.750			
0.7835	50146.53	3.0940	3.0939	-0.1535	8.52	2.53	-0.750			
0.7840	50175.85	3.0910	3.0910	-0.1527	8.52	2.53	-0.750			
0.7845	50204.87	3.0880	3.0880	-0.1511	8.53	2.54	-0.750			
0.7849	50233.64	3.0850	3.0849	-0.1499	8.53	2.54	-0.750			
0.7853	50262.35	3.0820	3.0820	-0.1491	8.54	2.55	-0.750			
0.7858	50290.92	3.0790	3.0791	-0.1480	8.54	2.55	-0.750			
0.7862	50319.19	3.0760	3.0760	-0.1470	8.55	2.56	-0.750			
0.7867	50347.47	3.0730	3.0730	-0.1465	8.55	2.56	-0.750			
0.7871	50375.48	3.0700	3.0700	-0.1453	8.56	2.57	-0.750			
0.7875	50403.13	3.0670	3.0670	-0.1437	8.57	2.58	-0.750			
0.7880	50430.83	3.0640	3.0641	-0.1426	8.57	2.58	-0.750			
0.7884	50457.84	3.0610	3.0611	-0.1416	8.58	2.59	-0.750			
0.7888	50484.95	3.0580	3.0580	-0.1408	8.59	2.60	-0.750			
0.7892	50511.85	3.0550	3.0550	-0.1400	8.59	2.60	-0.750			
0.7897	50538.67	3.0520	3.0519	-0.1386	8.60	2.61	-0.750			
0.7901	50565.03	3.0490	3.0490	-0.1379	8.61	2.62	-0.750			
0.7905	50591.47	3.0460	3.0461	-0.1374	8.61	2.62	-0.750			
0.7909	50618.03	3.0430	3.0430	-0.1361	8.62	2.63	-0.750			
0.7913	50644.01	3.0400	3.0399	-0.1353	8.63	2.64	-0.750			
0.7917	50669.44	3.0370	3.0370	-0.1345	8.64	2.65	-0.750			
0.7921	50695.26	3.0340	3.0342	-0.1345	8.64	2.65	-0.750			
0.7925	50721.16	3.0310	3.0308	-0.1334	8.65	2.66	-0.750			
0.7929	50746.95	3.0280	3.0279	-0.1327	8.66	2.67	-0.750			
0.7933	50772.26	3.0250	3.0251	-0.1316	8.66	2.67	-0.750			
0.7937	50797.54	3.0220	3.0221	-0.1300	8.67	2.68	-0.750			
0.7941	50822.44	3.0190	3.0189	-0.1297	8.68	2.69	-0.750			
0.7945	50847.02	3.0160	3.0160	-0.1281	8.68	2.69	-0.750			
0.7949	50871.07	3.0130	3.0131	-0.1266	8.69	2.70	-0.750			
0.7952	50895.39	3.0100	3.0100	-0.1267	8.70	2.71	-0.750			
0.7956	50919.69	3.0070	3.0068	-0.1269	8.70	2.71	-0.750			
0.7960	50944.00	3.0040	3.0041	-0.1304	8.71	2.72	-0.750			
