Ah_balance (normalized)	Ah_balance (mAh)	Voltage - fit (V)	Voltage -  interpolate (V)	dQ/dV (1/V)	Temperature (°C)	Temperature - diff (°C)	Current (C)	R_DC 0ms (mOhm)	R_DC 50ms (mOhm)	R_DC 50 ms PEC (mOhm)
0.0000	0.00	4.0980	4.1337	0.0000	5.99	0.00	-0.744			
0.0000	0.00	4.1010	4.1337	0.0000	5.99	0.00	-0.744			
0.0001	7.06	4.0950	4.0973	-0.0297	5.99	0.00	-0.750			
0.0002	15.21	4.0920	4.0919	-0.0552	5.99	0.00	-0.750			
0.0004	28.08	4.0890	4.0887	-0.0810	5.99	0.00	-0.750			
0.0007	45.86	4.0860	4.0860	-0.1072	5.99	0.00	-0.750			
0.0011	68.94	4.0830	4.0829	-0.1332	5.99	0.00	-0.750			
0.0015	97.32	4.0800	4.0800	-0.1546	5.99	0.00	-0.750			
0.0020	129.34	4.0770	4.0770	-0.1768	5.99	0.00	-0.750			
0.0026	166.90	4.0740	4.0741	-0.2012	5.99	0.00	-0.750			
0.0032	207.42	4.0710	4.0712	-0.2234	5.99	-0.00	-0.750			
0.0039	252.60	4.0680	4.0678	-0.2450	5.99	-0.00	-0.750			
0.0047	301.46	4.0650	4.0650	-0.2654	5.99	-0.00	-0.750			
0.0055	353.97	4.0620	4.0620	-0.2879	5.99	-0.00	-0.750			
0.0064	411.77	4.0590	4.0591	-0.3112	5.98	-0.01	-0.750			
0.0074	474.25	4.0560	4.0558	-0.3336	5.98	-0.01	-0.750			
0.0084	540.22	4.0530	4.0530	-0.3552	5.98	-0.01	-0.750			
0.0095	610.71	4.0500	4.0502	-0.3780	5.98	-0.01	-0.750			
0.0107	685.61	4.0470	4.0469	-0.4004	5.98	-0.01	-0.750			
0.0119	764.39	4.0440	4.0440	-0.4234	5.98	-0.01	-0.750			
0.0132	847.04	4.0410	4.0410	-0.4421	5.97	-0.02	-0.750			
0.0146	934.81	4.0380	4.0380	-0.4603	5.97	-0.02	-0.750			
0.0160	1025.98	4.0350	4.0351	-0.4800	5.97	-0.02	-0.750			
0.0175	1119.44	4.0320	4.0319	-0.4990	5.97	-0.02	-0.750			
0.0190	1217.19	4.0290	4.0290	-0.5153	5.97	-0.02	-0.750			
0.0206	1318.37	4.0260	4.0260	-0.5288	5.97	-0.02	-0.750			
0.0222	1420.74	4.0230	4.0231	-0.5449	5.97	-0.02	-0.750			
0.0239	1527.76	4.0200	4.0200	-0.5608	5.97	-0.02	-0.750			
0.0256	1636.94	4.0170	4.0169	-0.5760	5.97	-0.02	-0.750			
0.0273	1748.85	4.0140	4.0139	-0.5846	5.97	-0.02	-0.750			
0.0291	1862.33	4.0110	4.0110	-0.5948	5.97	-0.02	-0.750			
0.0309	1978.29	4.0080	4.0080	-0.6059	5.97	-0.02	-0.750			
0.0328	2096.87	4.0050	4.0050	-0.6139	5.98	-0.01	-0.750			
0.0346	2213.30	4.0020	4.0019	-0.6198	5.98	-0.01	-0.750			
0.0365	2333.56	3.9990	3.9990	-0.6307	5.98	-0.01	-0.750			
0.0384	2455.42	3.9960	3.9960	-0.6359	5.99	-0.00	-0.750			
0.0403	2578.96	3.9930	3.9929	-0.6437	5.99	-0.00	-0.750			
0.0422	2703.73	3.9900	3.9901	-0.6498	5.99	0.00	-0.750			
0.0442	2828.70	3.9870	3.9869	-0.6567	6.00	0.01	-0.750			
0.0462	2955.91	3.9840	3.9840	-0.6625	6.00	0.01	-0.750			
0.0482	3082.89	3.9810	3.9810	-0.6675	6.00	0.01	-0.750			
0.0502	3211.64	3.9780	3.9780	-0.6750	6.01	0.02	-0.750			
0.0522	3343.06	3.9750	3.9750	-0.6812	6.01	0.02	-0.750			
0.0543	3474.66	3.9720	3.9719	-0.6834	6.01	0.02	-0.750			
0.0564	3606.52	3.9690	3.9690	-0.6822	6.02	0.03	-0.750			
0.0584	3736.58	3.9660	3.9661	-0.6848	6.02	0.03	-0.750			
0.0604	3868.34	3.9630	3.9630	-0.6885	6.02	0.03	-0.750			
0.0625	4001.05	3.9600	3.9599	-0.6898	6.03	0.04	-0.750			
0.0646	4132.35	3.9570	3.9570	-0.6908	6.03	0.04	-0.750			
0.0666	4265.58	3.9540	3.9541	-0.6945	6.03	0.04	-0.750			
0.0688	4400.61	3.9510	3.9510	-0.7003	6.04	0.05	-0.750			
0.0709	4534.86	3.9480	3.9479	-0.7058	6.04	0.05	-0.750			
0.0730	4669.61	3.9450	3.9450	-0.7049	6.04	0.05	-0.750			
0.0751	4806.02	3.9420	3.9421	-0.7105	6.05	0.06	-0.750			
0.0773	4944.81	3.9390	3.9390	-0.7122	6.05	0.06	-0.750			
0.0794	5081.17	3.9360	3.9360	-0.7130	6.06	0.07	-0.750			
0.0815	5217.93	3.9330	3.9330	-0.7121	6.06	0.07	-0.750			
0.0837	5353.76	3.9300	3.9301	-0.7145	6.07	0.08	-0.750			
0.0858	5490.45	3.9270	3.9270	-0.7158	6.08	0.09	-0.750			
0.0880	5629.29	3.9240	3.9239	-0.7196	6.09	0.10	-0.750			
0.0901	5767.27	3.9210	3.9211	-0.7219	6.10	0.11	-0.750			
0.0923	5906.57	3.9180	3.9180	-0.7240	6.10	0.11	-0.750			
0.0945	6046.17	3.9150	3.9150	-0.7240	6.11	0.12	-0.750			
0.0967	6185.80	3.9120	3.9120	-0.7299	6.11	0.12	-0.750			
0.0988	6325.33	3.9090	3.9090	-0.7263	6.12	0.13	-0.750			
0.1010	6465.88	3.9060	3.9060	-0.7289	6.13	0.14	-0.750			
0.1032	6605.54	3.9030	3.9032	-0.7314	6.13	0.14	-0.750			
0.1054	6746.14	3.9000	3.8999	-0.7314	6.14	0.15	-0.750			
0.1076	6885.88	3.8970	3.8970	-0.7376	6.14	0.15	-0.750			
0.1098	7027.61	3.8940	3.8940	-0.7376	6.15	0.16	-0.750			
0.1120	7170.53	3.8910	3.8910	-0.7434	6.16	0.17	-0.750			
0.1143	7314.22	3.8880	3.8879	-0.7453	6.17	0.18	-0.750			
0.1165	7457.04	3.8850	3.8850	-0.7437	6.17	0.18	-0.750			
0.1188	7600.50	3.8820	3.8820	-0.7392	6.18	0.19	-0.750			
0.1210	7741.32	3.8790	3.8790	-0.7426	6.19	0.20	-0.750			
0.1231	7881.53	3.8760	3.8761	-0.7417	6.20	0.21	-0.750			
0.1254	8026.10	3.8730	3.8729	-0.7457	6.21	0.22	-0.750			
0.1276	8169.02	3.8700	3.8700	-0.7449	6.22	0.23	-0.750			
0.1299	8312.90	3.8670	3.8671	-0.7443	6.22	0.23	-0.750			
0.1322	8457.78	3.8640	3.8639	-0.7424	6.23	0.24	-0.750			
0.1344	8599.32	3.8610	3.8610	-0.7456	6.23	0.24	-0.750			
0.1366	8739.87	3.8580	3.8580	-0.7443	6.23	0.24	-0.750			
0.1388	8883.30	3.8550	3.8549	-0.7485	6.24	0.25	-0.750			
0.1411	9029.00	3.8520	3.8521	-0.7495	6.24	0.25	-0.750			
0.1433	9173.53	3.8490	3.8490	-0.7500	6.25	0.26	-0.750			
0.1456	9317.95	3.8460	3.8461	-0.7514	6.26	0.27	-0.750			
0.1479	9462.53	3.8430	3.8430	-0.7508	6.27	0.28	-0.750			
0.1501	9605.60	3.8400	3.8399	-0.7471	6.28	0.29	-0.750			
0.1523	9748.98	3.8370	3.8370	-0.7473	6.29	0.30	-0.750			
0.1546	9892.40	3.8340	3.8339	-0.7490	6.30	0.31	-0.750			
0.1568	10036.26	3.8310	3.8310	-0.7511	6.30	0.31	-0.750			
0.1591	10179.92	3.8280	3.8279	-0.7534	6.31	0.32	-0.750			
0.1613	10325.73	3.8250	3.8250	-0.7503	6.32	0.33	-0.750			
0.1636	10471.61	3.8220	3.8219	-0.7505	6.33	0.34	-0.750			
0.1659	10615.56	3.8190	3.8191	-0.7500	6.34	0.35	-0.750			
0.1681	10759.00	3.8160	3.8160	-0.7482	6.35	0.36	-0.750			
0.1703	10901.33	3.8130	3.8129	-0.7498	6.36	0.37	-0.750			
0.1726	11044.13	3.8100	3.8100	-0.7496	6.36	0.37	-0.750			
0.1748	11189.65	3.8070	3.8070	-0.7536	6.37	0.38	-0.750			
0.1771	11335.85	3.8040	3.8040	-0.7530	6.38	0.39	-0.750			
0.1794	11480.93	3.8010	3.8010	-0.7533	6.38	0.39	-0.750			
0.1816	11624.17	3.7980	3.7980	-0.7515	6.39	0.40	-0.750			
0.1839	11767.69	3.7950	3.7951	-0.7501	6.40	0.41	-0.750			
0.1861	11910.83	3.7920	3.7920	-0.7504	6.41	0.42	-0.750			
0.1884	12055.36	3.7890	3.7888	-0.7549	6.41	0.42	-0.750			
0.1906	12201.03	3.7860	3.7863	-0.7573	6.42	0.43	-0.750			
0.1929	12346.79	3.7830	3.7830	-0.7592	6.43	0.44	-0.750			
0.1952	12493.08	3.7800	3.7800	-0.7616	6.43	0.44	-0.750			
0.1975	12640.11	3.7770	3.7770	-0.7647	6.44	0.45	-0.750			
0.1998	12786.30	3.7740	3.7740	-0.7656	6.45	0.46	-0.750			
0.2021	12933.98	3.7710	3.7709	-0.7640	6.46	0.47	-0.750			
0.2044	13080.93	3.7680	3.7680	-0.7634	6.46	0.47	-0.750			
0.2067	13226.17	3.7650	3.7651	-0.7695	6.47	0.48	-0.750			
0.2090	13374.18	3.7620	3.7620	-0.7680	6.48	0.49	-0.750			
0.2113	13521.30	3.7590	3.7589	-0.7698	6.49	0.50	-0.750			
0.2136	13669.45	3.7560	3.7560	-0.7723	6.49	0.50	-0.750			
0.2159	13818.03	3.7530	3.7532	-0.7758	6.50	0.51	-0.750			
0.2183	13968.08	3.7500	3.7500	-0.7763	6.51	0.52	-0.750			
0.2206	14116.24	3.7470	3.7470	-0.7807	6.52	0.53	-0.750			
0.2229	14265.27	3.7440	3.7440	-0.7848	6.52	0.53	-0.750			
0.2253	14418.56	3.7410	3.7410	-0.7878	6.53	0.54	-0.750			
0.2276	14569.12	3.7380	3.7379	-0.7883	6.54	0.55	-0.750			
0.2300	14720.53	3.7350	3.7351	-0.7924	6.55	0.56	-0.750			
0.2324	14872.56	3.7320	3.7320	-0.7968	6.56	0.57	-0.750			
0.2348	15025.65	3.7290	3.7289	-0.8006	6.57	0.58	-0.750			
0.2372	15178.72	3.7260	3.7259	-0.8022	6.58	0.59	-0.750			
0.2396	15333.61	3.7230	3.7231	-0.8107	6.60	0.61	-0.750			
0.2420	15491.09	3.7200	3.7200	-0.8186	6.60	0.61	-0.750			
0.2445	15647.90	3.7170	3.7170	-0.8255	6.61	0.62	-0.750			
0.2470	15808.25	3.7140	3.7141	-0.8271	6.61	0.62	-0.750			
0.2495	15967.18	3.7110	3.7109	-0.8291	6.61	0.62	-0.750			
0.2520	16126.05	3.7080	3.7081	-0.8394	6.62	0.63	-0.750			
0.2545	16287.45	3.7050	3.7049	-0.8444	6.62	0.63	-0.750			
0.2570	16449.71	3.7020	3.7019	-0.8491	6.63	0.64	-0.750			
0.2596	16614.56	3.6990	3.6990	-0.8543	6.64	0.65	-0.750			
0.2622	16780.21	3.6960	3.6961	-0.8576	6.65	0.66	-0.750			
0.2648	16946.36	3.6930	3.6930	-0.8620	6.66	0.67	-0.750			
0.2673	17110.04	3.6900	3.6900	-0.8668	6.66	0.67	-0.750			
0.2699	17275.12	3.6870	3.6870	-0.8714	6.67	0.68	-0.750			
0.2725	17442.46	3.6840	3.6839	-0.8785	6.68	0.69	-0.750			
0.2752	17611.22	3.6810	3.6810	-0.8879	6.68	0.69	-0.750			
0.2779	17785.08	3.6780	3.6781	-0.8981	6.69	0.70	-0.750			
0.2806	17957.92	3.6750	3.6750	-0.9066	6.69	0.70	-0.750			
0.2834	18134.56	3.6720	3.6720	-0.9093	6.69	0.70	-0.750			
0.2861	18307.72	3.6690	3.6690	-0.9166	6.70	0.71	-0.750			
0.2888	18483.55	3.6660	3.6660	-0.9229	6.70	0.71	-0.750			
0.2916	18662.64	3.6630	3.6630	-0.9317	6.70	0.71	-0.750			
0.2944	18842.57	3.6600	3.6598	-0.9381	6.71	0.72	-0.750			
0.2973	19024.16	3.6570	3.6571	-0.9474	6.71	0.72	-0.750			
0.3001	19206.65	3.6540	3.6540	-0.9511	6.72	0.73	-0.750			
0.3030	19390.99	3.6510	3.6512	-0.9575	6.72	0.73	-0.750			
0.3058	19573.07	3.6480	3.6480	-0.9594	6.72	0.73	-0.750			
0.3087	19759.35	3.6450	3.6450	-0.9669	6.73	0.74	-0.750			
0.3116	19944.66	3.6420	3.6420	-0.9732	6.73	0.74	-0.750			
0.3146	20133.46	3.6390	3.6389	-0.9847	6.74	0.75	-0.750			
0.3175	20321.06	3.6360	3.6360	-0.9895	6.74	0.75	-0.750			
0.3205	20514.04	3.6330	3.6329	-0.9964	6.75	0.76	-0.750			
0.3235	20705.31	3.6300	3.6300	-1.0015	6.75	0.76	-0.750			
0.3265	20896.83	3.6270	3.6270	-1.0073	6.76	0.77	-0.750			
0.3296	21091.97	3.6240	3.6241	-1.0242	6.76	0.77	-0.750			
0.3327	21289.72	3.6210	3.6209	-1.0280	6.77	0.78	-0.750			
0.3357	21486.89	3.6180	3.6180	-1.0375	6.77	0.78	-0.750			
0.3389	21686.50	3.6150	3.6150	-1.0470	6.78	0.79	-0.750			
0.3420	21889.44	3.6120	3.6120	-1.0640	6.78	0.79	-0.750			
0.3453	22096.43	3.6090	3.6089	-1.0674	6.79	0.80	-0.750			
0.3485	22302.35	3.6060	3.6060	-1.0716	6.79	0.80	-0.750			
0.3517	22508.27	3.6030	3.6031	-1.0728	6.80	0.81	-0.750			
0.3549	22715.35	3.6000	3.6000	-1.0860	6.80	0.81	-0.750			
0.3582	22922.58	3.5970	3.5970	-1.0889	6.81	0.82	-0.750			
0.3614	23132.35	3.5940	3.5939	-1.0955	6.81	0.82	-0.750			
0.3647	23340.67	3.5910	3.5911	-1.1108	6.82	0.83	-0.750			
0.3681	23558.14	3.5880	3.5880	-1.1209	6.82	0.83	-0.750			
0.3715	23776.47	3.5850	3.5849	-1.1263	6.82	0.83	-0.750			
0.3749	23993.62	3.5820	3.5820	-1.1293	6.83	0.84	-0.750	0.461	0.905	
0.3783	24208.44	3.5790	3.5792	-1.1349	6.83	0.84	-0.750			
0.3817	24427.32	3.5760	3.5760	-1.1445	6.84	0.85	-0.750			
0.3851	24647.81	3.5730	3.5729	-1.1501	6.85	0.86	-0.750			
0.3885	24867.19	3.5700	3.5700	-1.1537	6.86	0.87	-0.750			
0.3921	25092.92	3.5670	3.5670	-1.1754	6.86	0.87	-0.750			
0.3956	25320.24	3.5640	3.5640	-1.1826	6.86	0.87	-0.750			
0.3992	25547.90	3.5610	3.5609	-1.1907	6.87	0.88	-0.750			
0.4028	25776.09	3.5580	3.5582	-1.1965	6.87	0.88	-0.750			
0.4064	26008.64	3.5550	3.5549	-1.2038	6.87	0.88	-0.750			
0.4100	26241.39	3.5520	3.5520	-1.2100	6.88	0.89	-0.750			
0.4136	26471.99	3.5490	3.5490	-1.2176	6.88	0.89	-0.750			
0.4173	26707.84	3.5460	3.5460	-1.2296	6.88	0.89	-0.750			
0.4210	26943.86	3.5430	3.5429	-1.2337	6.89	0.90	-0.750			
0.4247	27180.44	3.5400	3.5400	-1.2359	6.90	0.91	-0.750			
0.4284	27417.35	3.5370	3.5371	-1.2425	6.91	0.92	-0.750			
0.4322	27658.24	3.5340	3.5340	-1.2538	6.92	0.93	-0.750			
0.4359	27900.46	3.5310	3.5309	-1.2556	6.92	0.93	-0.750			
0.4397	28142.19	3.5280	3.5280	-1.2536	6.93	0.94	-0.750			
0.4435	28383.17	3.5250	3.5251	-1.2626	6.93	0.94	-0.750			
0.4473	28625.96	3.5220	3.5221	-1.2630	6.94	0.95	-0.750			
0.4510	28866.62	3.5190	3.5190	-1.2757	6.95	0.96	-0.750			
0.4549	29111.99	3.5160	3.5160	-1.2792	6.95	0.96	-0.750			
0.4588	29360.51	3.5130	3.5130	-1.2771	6.95	0.96	-0.750			
0.4626	29607.27	3.5100	3.5099	-1.2772	6.96	0.97	-0.750			
0.4665	29854.64	3.5070	3.5071	-1.2793	6.96	0.97	-0.750			
0.4703	30097.20	3.5040	3.5040	-1.2729	6.97	0.98	-0.750			
0.4741	30341.40	3.5010	3.5009	-1.2710	6.98	0.99	-0.750			
0.4779	30583.33	3.4980	3.4980	-1.2708	6.99	1.00	-0.750			
0.4817	30830.09	3.4950	3.4949	-1.2763	7.00	1.01	-0.750			
0.4856	31076.67	3.4920	3.4920	-1.2682	7.01	1.02	-0.750			
0.4894	31319.10	3.4890	3.4891	-1.2641	7.03	1.04	-0.750			
0.4932	31562.54	3.4860	3.4860	-1.2597	7.03	1.04	-0.750			
0.4969	31802.56	3.4830	3.4829	-1.2470	7.04	1.05	-0.750			
0.5006	32039.08	3.4800	3.4800	-1.2375	7.05	1.06	-0.750			
0.5043	32274.81	3.4770	3.4771	-1.2314	7.05	1.06	-0.750			
0.5080	32513.61	3.4740	3.4740	-1.2300	7.07	1.08	-0.750			
0.5117	32750.64	3.4710	3.4709	-1.2199	7.08	1.09	-0.750			
0.5153	32981.00	3.4680	3.4681	-1.2122	7.09	1.10	-0.750			
0.5190	33214.96	3.4650	3.4650	-1.2079	7.10	1.11	-0.750			
0.5226	33447.66	3.4620	3.4620	-1.1973	7.10	1.11	-0.750			
0.5262	33675.44	3.4590	3.4589	-1.1882	7.11	1.12	-0.750			
0.5297	33901.81	3.4560	3.4561	-1.1811	7.12	1.13	-0.750			
0.5333	34129.00	3.4530	3.4530	-1.1756	7.13	1.14	-0.750			
0.5368	34353.65	3.4500	3.4499	-1.1684	7.14	1.15	-0.750			
0.5403	34576.02	3.4470	3.4472	-1.1575	7.16	1.17	-0.750			
0.5438	34800.87	3.4440	3.4439	-1.1521	7.17	1.18	-0.750			
0.5472	35022.76	3.4410	3.4409	-1.1436	7.18	1.19	-0.750			
0.5506	35240.38	3.4380	3.4380	-1.1264	7.19	1.20	-0.750			
0.5540	35453.22	3.4350	3.4351	-1.1202	7.20	1.21	-0.750			
0.5573	35669.33	3.4320	3.4319	-1.1086	7.22	1.23	-0.750			
0.5607	35881.80	3.4290	3.4289	-1.0909	7.23	1.24	-0.750			
0.5639	36088.58	3.4260	3.4260	-1.0726	7.24	1.25	-0.750			
0.5671	36294.51	3.4230	3.4230	-1.0659	7.25	1.26	-0.750			
0.5703	36498.53	3.4200	3.4200	-1.0516	7.27	1.28	-0.750			
0.5734	36697.63	3.4170	3.4169	-1.0349	7.28	1.29	-0.750			
0.5764	36891.94	3.4140	3.4140	-1.0193	7.28	1.29	-0.750			
0.5795	37089.39	3.4110	3.4111	-1.0153	7.30	1.31	-0.750			
0.5826	37285.34	3.4080	3.4079	-1.0084	7.32	1.33	-0.750			
0.5856	37477.48	3.4050	3.4050	-0.9926	7.33	1.34	-0.750			
0.5885	37666.26	3.4020	3.4020	-0.9761	7.35	1.36	-0.750			
0.5915	37853.25	3.3990	3.3991	-0.9638	7.36	1.37	-0.750			
0.5943	38037.38	3.3960	3.3960	-0.9514	7.38	1.39	-0.750			
0.5972	38218.05	3.3930	3.3930	-0.9349	7.39	1.40	-0.750			
0.5999	38395.74	3.3900	3.3900	-0.9155	7.40	1.41	-0.750			
0.6027	38571.88	3.3870	3.3871	-0.9037	7.41	1.42	-0.750			
0.6054	38742.97	3.3840	3.3840	-0.8909	7.42	1.43	-0.750			
0.6080	38912.59	3.3810	3.3809	-0.8748	7.44	1.45	-0.750			
0.6106	39078.05	3.3780	3.3780	-0.8605	7.45	1.46	-0.750			
0.6132	39241.80	3.3750	3.3751	-0.8478	7.47	1.48	-0.750			
0.6157	39405.77	3.3720	3.3721	-0.8354	7.48	1.49	-0.750			
0.6182	39565.19	3.3690	3.3690	-0.8200	7.50	1.51	-0.750			
0.6206	39720.87	3.3660	3.3660	-0.8029	7.52	1.53	-0.750			
0.6230	39872.77	3.3630	3.3630	-0.7858	7.53	1.54	-0.750			
0.6254	40022.66	3.3600	3.3600	-0.7713	7.55	1.56	-0.750			
0.6276	40168.80	3.3570	3.3570	-0.7519	7.57	1.58	-0.750			
0.6299	40311.73	3.3540	3.3540	-0.7360	7.58	1.59	-0.750			
0.6321	40451.41	3.3510	3.3510	-0.7200	7.59	1.60	-0.750			
0.6342	40586.66	3.3480	3.3480	-0.7078	7.60	1.61	-0.750			
0.6363	40721.33	3.3450	3.3449	-0.6955	7.61	1.62	-0.750			
0.6383	40853.80	3.3420	3.3420	-0.6831	7.62	1.63	-0.750			
0.6404	40984.22	3.3390	3.3391	-0.6720	7.63	1.64	-0.750			
0.6424	41112.99	3.3360	3.3360	-0.6626	7.65	1.66	-0.750			
0.6444	41238.83	3.3330	3.3330	-0.6497	7.67	1.68	-0.750			
0.6463	41361.91	3.3300	3.3299	-0.6354	7.68	1.69	-0.750			
0.6482	41481.81	3.3270	3.3270	-0.6236	7.70	1.71	-0.750			
0.6500	41600.97	3.3240	3.3241	-0.6121	7.72	1.73	-0.750			
0.6518	41717.04	3.3210	3.3210	-0.6003	7.73	1.74	-0.750			
0.6536	41831.34	3.3180	3.3180	-0.5900	7.74	1.75	-0.750			
0.6554	41943.85	3.3150	3.3149	-0.5764	7.76	1.77	-0.750			
0.6571	42053.01	3.3120	3.3120	-0.5664	7.77	1.78	-0.750			
0.6588	42160.87	3.3090	3.3091	-0.5562	7.79	1.80	-0.750			
0.6604	42266.45	3.3060	3.3059	-0.5455	7.80	1.81	-0.750			
0.6620	42370.71	3.3030	3.3030	-0.5358	7.81	1.82	-0.750			
0.6636	42471.78	3.3000	3.3000	-0.5257	7.83	1.84	-0.750			
0.6652	42571.80	3.2970	3.2970	-0.5163	7.84	1.85	-0.750			
0.6667	42670.73	3.2940	3.2939	-0.5081	7.85	1.86	-0.750			
0.6682	42766.59	3.2910	3.2910	-0.4967	7.86	1.87	-0.750			
0.6697	42860.78	3.2880	3.2880	-0.4877	7.88	1.89	-0.750			
0.6711	42953.38	3.2850	3.2850	-0.4796	7.89	1.90	-0.750			
0.6726	43044.68	3.2820	3.2820	-0.4735	7.90	1.91	-0.750			
0.6740	43134.92	3.2790	3.2790	-0.4696	7.92	1.93	-0.750			
0.6754	43225.18	3.2760	3.2759	-0.4635	7.93	1.94	-0.750			
0.6768	43314.46	3.2730	3.2730	-0.4545	7.94	1.95	-0.750			
0.6781	43401.25	3.2700	3.2703	-0.4469	7.96	1.97	-0.750			
0.6795	43485.96	3.2670	3.2670	-0.4374	7.97	1.98	-0.750			
0.6808	43568.03	3.2640	3.2640	-0.4297	7.98	1.99	-0.750			
0.6820	43648.97	3.2610	3.2609	-0.4220	7.99	2.00	-0.750			
0.6833	43730.46	3.2580	3.2580	-0.4166	8.01	2.02	-0.750			
0.6845	43809.42	3.2550	3.2551	-0.4103	8.02	2.03	-0.750			
0.6858	43888.44	3.2520	3.2520	-0.4059	8.03	2.04	-0.750			
0.6870	43965.45	3.2490	3.2490	-0.3970	8.04	2.05	-0.750			
0.6881	44040.30	3.2460	3.2459	-0.3903	8.05	2.06	-0.750			
0.6893	44114.17	3.2430	3.2430	-0.3856	8.06	2.07	-0.750			
0.6904	44187.92	3.2400	3.2400	-0.3816	8.08	2.09	-0.750			
0.6916	44260.93	3.2370	3.2369	-0.3774	8.09	2.10	-0.750			
0.6927	44332.32	3.2340	3.2341	-0.3733	8.10	2.11	-0.750			
0.6938	44404.19	3.2310	3.2310	-0.3698	8.12	2.13	-0.750			
0.6949	44475.30	3.2280	3.2280	-0.3641	8.13	2.14	-0.750			
0.6960	44544.73	3.2250	3.2250	-0.3583	8.14	2.15	-0.750			
0.6971	44612.95	3.2220	3.2221	-0.3527	8.15	2.16	-0.750			
0.6981	44680.25	3.2190	3.2190	-0.3479	8.16	2.17	-0.750			
0.6992	44745.99	3.2160	3.2159	-0.3442	8.18	2.19	-0.750			
0.7002	44811.06	3.2130	3.2130	-0.3390	8.19	2.20	-0.750			
0.7012	44876.44	3.2100	3.2100	-0.3354	8.19	2.20	-0.750			
0.7022	44941.02	3.2070	3.2070	-0.3327	8.20	2.21	-0.750			
0.7032	45004.33	3.2040	3.2042	-0.3276	8.21	2.22	-0.750			
0.7042	45066.73	3.2010	3.2009	-0.3228	8.22	2.23	-0.750			
0.7051	45127.98	3.1980	3.1980	-0.3189	8.24	2.25	-0.750			
0.7061	45188.73	3.1950	3.1951	-0.3146	8.25	2.26	-0.750			
0.7070	45249.16	3.1920	3.1919	-0.3109	8.26	2.27	-0.750			
0.7079	45308.20	3.1890	3.1890	-0.3080	8.27	2.28	-0.750			
0.7089	45366.76	3.1860	3.1860	-0.3048	8.28	2.29	-0.750			
0.7098	45424.97	3.1830	3.1830	-0.3028	8.29	2.30	-0.750			
0.7107	45483.09	3.1800	3.1799	-0.2994	8.30	2.31	-0.750			
0.7116	45540.15	3.1770	3.1772	-0.2966	8.31	2.32	-0.750			
0.7125	45597.24	3.1740	3.1739	-0.2941	8.32	2.33	-0.750			
0.7133	45653.26	3.1710	3.1709	-0.2903	8.33	2.34	-0.750			
0.7142	45708.21	3.1680	3.1680	-0.2858	8.34	2.35	-0.750			
0.7150	45762.87	3.1650	3.1650	-0.2836	8.35	2.36	-0.750			
0.7159	45817.39	3.1620	3.1620	-0.2805	8.36	2.37	-0.750			
0.7167	45870.89	3.1590	3.1590	-0.2783	8.38	2.39	-0.750			
0.7176	45923.65	3.1560	3.1561	-0.2752	8.39	2.40	-0.750			
0.7184	45976.52	3.1530	3.1530	-0.2727	8.40	2.41	-0.750			
0.7192	46028.58	3.1500	3.1499	-0.2710	8.41	2.42	-0.750			
0.7200	46079.97	3.1470	3.1472	-0.2693	8.42	2.43	-0.750			
0.7208	46131.66	3.1440	3.1440	-0.2665	8.43	2.44	-0.750			
0.7216	46183.10	3.1410	3.1408	-0.2657	8.45	2.46	-0.750			
0.7224	46233.80	3.1380	3.1381	-0.2631	8.46	2.47	-0.750			
0.7232	46283.83	3.1350	3.1349	-0.2608	8.47	2.48	-0.750			
0.7240	46333.68	3.1320	3.1320	-0.2591	8.48	2.49	-0.750			
0.7247	46383.07	3.1290	3.1291	-0.2561	8.49	2.50	-0.750			
0.7255	46432.22	3.1260	3.1260	-0.2537	8.50	2.51	-0.750			
0.7263	46481.03	3.1230	3.1230	-0.2524	8.51	2.52	-0.750			
0.7270	46528.85	3.1200	3.1200	-0.2496	8.52	2.53	-0.750			
0.7278	46576.49	3.1170	3.1171	-0.2475	8.53	2.54	-0.750			
0.7285	46623.87	3.1140	3.1139	-0.2452	8.54	2.55	-0.750			
0.7292	46670.53	3.1110	3.1110	-0.2434	8.55	2.56	-0.750			
0.7300	46716.90	3.1080	3.1080	-0.2422	8.56	2.57	-0.750			
0.7307	46763.65	3.1050	3.1050	-0.2403	8.57	2.58	-0.750			
0.7314	46809.60	3.1020	3.1020	-0.2391	8.58	2.59	-0.750			
0.7321	46855.10	3.0990	3.0990	-0.2370	8.59	2.60	-0.750			
0.7328	46900.53	3.0960	3.0961	-0.2353	8.60	2.61	-0.750			
0.7335	46945.64	3.0930	3.0929	-0.2339	8.61	2.62	-0.750			
0.7342	46990.26	3.0900	3.0900	-0.2318	8.62	2.63	-0.750			
0.7349	47034.69	3.0870	3.0870	-0.2300	8.63	2.64	-0.750			
0.7356	47078.65	3.0840	3.0840	-0.2282	8.64	2.65	-0.750			
0.7363	47122.46	3.0810	3.0810	-0.2274	8.65	2.66	-0.750			
0.7370	47165.45	3.0780	3.0780	-0.2257	8.66	2.67	-0.750			
0.7376	47208.67	3.0750	3.0750	-0.2251	8.67	2.68	-0.750			
0.7383	47251.95	3.0720	3.0719	-0.2238	8.68	2.69	-0.750			
0.7390	47294.81	3.0690	3.0690	-0.2227	8.69	2.70	-0.750			
0.7397	47337.78	3.0660	3.0660	-0.2215	8.70	2.71	-0.750			
0.7403	47380.15	3.0630	3.0630	-0.2198	8.71	2.72	-0.750			
0.7410	47422.50	3.0600	3.0600	-0.2178	8.72	2.73	-0.750			
0.7416	47463.69	3.0570	3.0571	-0.2168	8.73	2.74	-0.750			
0.7423	47505.05	3.0540	3.0539	-0.2151	8.74	2.75	-0.750			
0.7429	47546.26	3.0510	3.0510	-0.2142	8.75	2.76	-0.750			
0.7436	47587.21	3.0480	3.0479	-0.2142	8.77	2.78	-0.750			
0.7442	47628.22	3.0450	3.0451	-0.2131	8.78	2.79	-0.750			
0.7448	47669.35	3.0420	3.0419	-0.2128	8.79	2.80	-0.750			
0.7455	47710.26	3.0390	3.0390	-0.2113	8.80	2.81	-0.750			
0.7461	47750.94	3.0360	3.0360	-0.2100	8.81	2.82	-0.750			
0.7467	47790.94	3.0330	3.0330	-0.2082	8.82	2.83	-0.750			
0.7474	47831.01	3.0300	3.0300	-0.2070	8.83	2.84	-0.750			
0.7480	47870.02	3.0270	3.0270	-0.2052	8.84	2.85	-0.750			
0.7486	47909.35	3.0240	3.0240	-0.2045	8.85	2.86	-0.750			
0.7492	47948.54	3.0210	3.0210	-0.2037	8.86	2.87	-0.750			
0.7498	47987.65	3.0180	3.0179	-0.2018	8.87	2.88	-0.750			
0.7504	48026.73	3.0150	3.0150	-0.2005	8.88	2.89	-0.750			
0.7510	48065.00	3.0120	3.0120	-0.1981	8.89	2.90	-0.750			
0.7516	48103.08	3.0090	3.0091	-0.1954	8.90	2.91	-0.750			
0.7522	48140.58	3.0060	3.0060	-0.1910	8.91	2.92	-0.751			
0.7528	48176.85	3.0030	3.0030	-0.1885	8.92	2.93	-0.751			
