Ah_balance (normalized)	Ah_balance (mAh)	Voltage - fit (V)	Voltage -  interpolate (V)	dQ/dV (1/V)	Temperature (°C)	Temperature - diff (°C)	Current (C)	R_DC 0ms (mOhm)	R_DC 50ms (mOhm)	R_DC 50 ms PEC (mOhm)
0.0000	0.00	4.1040	4.1286	0.0000	5.98	-0.01	-0.751			
0.0002	15.49	4.1010	4.0998	-0.0460	5.98	-0.01	-0.750			
0.0004	27.06	4.0980	4.0972	-0.0745	5.98	-0.01	-0.750			
0.0007	44.86	4.0950	4.0947	-0.1015	5.98	-0.01	-0.750			
0.0011	67.47	4.0920	4.0918	-0.1271	5.99	-0.00	-0.750			
0.0015	94.89	4.0890	4.0891	-0.1513	5.99	-0.00	-0.750			
0.0020	126.36	4.0860	4.0860	-0.1765	5.99	-0.00	-0.750			
0.0025	162.53	4.0830	4.0831	-0.1994	5.99	-0.00	-0.750			
0.0032	204.47	4.0800	4.0800	-0.2222	5.99	-0.00	-0.750			
0.0039	248.26	4.0770	4.0771	-0.2459	5.99	-0.00	-0.750			
0.0047	298.38	4.0740	4.0740	-0.2669	5.99	-0.00	-0.750			
0.0055	351.95	4.0710	4.0709	-0.2872	5.99	-0.00	-0.750			
0.0064	409.20	4.0680	4.0680	-0.3084	5.99	-0.00	-0.750			
0.0074	470.59	4.0650	4.0653	-0.3293	5.99	0.00	-0.750			
0.0084	535.86	4.0620	4.0619	-0.3495	5.99	0.00	-0.750			
0.0094	604.73	4.0590	4.0590	-0.3703	5.99	0.00	-0.750			
0.0106	677.09	4.0560	4.0560	-0.3889	5.99	0.00	-0.750			
0.0118	754.32	4.0530	4.0530	-0.4138	5.99	0.00	-0.750			
0.0131	835.76	4.0500	4.0501	-0.4348	5.99	0.00	-0.750			
0.0144	920.95	4.0470	4.0470	-0.4568	6.00	0.01	-0.750			
0.0158	1011.52	4.0440	4.0440	-0.4786	6.00	0.01	-0.750			
0.0173	1105.55	4.0410	4.0410	-0.5002	6.00	0.01	-0.750			
0.0188	1204.30	4.0380	4.0379	-0.5169	6.00	0.01	-0.750			
0.0204	1305.13	4.0350	4.0352	-0.5392	6.00	0.01	-0.750			
0.0220	1410.48	4.0320	4.0319	-0.5553	6.00	0.01	-0.750			
0.0237	1519.65	4.0290	4.0289	-0.5717	6.01	0.02	-0.750			
0.0255	1630.23	4.0260	4.0259	-0.5853	6.01	0.02	-0.750			
0.0273	1744.95	4.0230	4.0231	-0.5997	6.01	0.02	-0.750			
0.0291	1862.68	4.0200	4.0200	-0.6128	6.01	0.02	-0.750			
0.0310	1982.47	4.0170	4.0169	-0.6211	6.02	0.03	-0.750			
0.0328	2100.86	4.0140	4.0141	-0.6264	6.02	0.03	-0.750			
0.0347	2223.27	4.0110	4.0111	-0.6376	6.03	0.04	-0.750			
0.0367	2346.58	4.0080	4.0080	-0.6456	6.03	0.04	-0.750			
0.0386	2470.36	4.0050	4.0050	-0.6524	6.04	0.05	-0.750			
0.0406	2598.66	4.0020	4.0020	-0.6582	6.04	0.05	-0.750			
0.0426	2725.64	3.9990	3.9990	-0.6611	6.04	0.05	-0.750			
0.0446	2854.62	3.9960	3.9962	-0.6642	6.05	0.06	-0.750			
0.0466	2980.83	3.9930	3.9929	-0.6676	6.06	0.07	-0.750			
0.0486	3107.31	3.9900	3.9901	-0.6755	6.06	0.07	-0.750			
0.0506	3236.24	3.9870	3.9870	-0.6924	6.07	0.08	-0.750			
0.0527	3369.81	3.9840	3.9839	-0.7013	6.08	0.09	-0.750			
0.0548	3509.81	3.9810	3.9810	-0.7103	6.08	0.09	-0.750			
0.0570	3646.79	3.9780	3.9782	-0.7153	6.09	0.10	-0.750			
0.0592	3787.51	3.9750	3.9750	-0.7192	6.10	0.11	-0.750			
0.0613	3924.93	3.9720	3.9719	-0.7183	6.11	0.12	-0.750			
0.0634	4059.51	3.9690	3.9690	-0.7239	6.11	0.12	-0.750			
0.0656	4199.83	3.9660	3.9660	-0.7241	6.12	0.13	-0.750			
0.0679	4342.65	3.9630	3.9628	-0.7286	6.13	0.14	-0.750			
0.0700	4482.05	3.9600	3.9603	-0.7289	6.14	0.15	-0.750			
0.0722	4621.65	3.9570	3.9570	-0.7281	6.15	0.16	-0.750			
0.0744	4760.89	3.9540	3.9539	-0.7326	6.15	0.16	-0.750			
0.0766	4900.65	3.9510	3.9510	-0.7295	6.16	0.17	-0.750			
0.0788	5041.18	3.9480	3.9480	-0.7365	6.17	0.18	-0.750			
0.0810	5183.96	3.9450	3.9450	-0.7401	6.18	0.19	-0.750			
0.0832	5326.11	3.9420	3.9420	-0.7453	6.18	0.19	-0.750			
0.0854	5468.24	3.9390	3.9389	-0.7483	6.19	0.20	-0.750			
0.0877	5612.68	3.9360	3.9360	-0.7510	6.20	0.21	-0.750			
0.0900	5758.06	3.9330	3.9330	-0.7489	6.21	0.22	-0.750			
0.0922	5903.31	3.9300	3.9300	-0.7509	6.22	0.23	-0.750			
0.0945	6047.80	3.9270	3.9271	-0.7465	6.23	0.24	-0.750			
0.0967	6190.95	3.9240	3.9239	-0.7423	6.24	0.25	-0.750			
0.0989	6330.89	3.9210	3.9210	-0.7363	6.25	0.26	-0.750			
0.1011	6471.73	3.9180	3.9181	-0.7522	6.26	0.27	-0.750			
0.1034	6616.80	3.9150	3.9148	-0.7592	6.26	0.27	-0.750			
0.1057	6765.42	3.9120	3.9118	-0.7691	6.27	0.28	-0.750			
0.1080	6913.49	3.9090	3.9093	-0.7737	6.28	0.29	-0.750			
0.1104	7064.64	3.9060	3.9060	-0.7796	6.29	0.30	-0.750			
0.1127	7215.73	3.9030	3.9030	-0.7758	6.31	0.32	-0.750			
0.1150	7361.61	3.9000	3.9000	-0.7628	6.32	0.33	-0.750			
0.1173	7510.21	3.8970	3.8969	-0.7675	6.33	0.34	-0.750			
0.1196	7656.87	3.8940	3.8942	-0.7687	6.34	0.35	-0.750			
0.1219	7803.52	3.8910	3.8910	-0.7669	6.35	0.36	-0.750			
0.1242	7950.92	3.8880	3.8879	-0.7700	6.36	0.37	-0.750			
0.1266	8100.28	3.8850	3.8850	-0.7705	6.37	0.38	-0.750			
0.1289	8247.74	3.8820	3.8820	-0.7785	6.38	0.39	-0.750			
0.1312	8397.07	3.8790	3.8790	-0.7802	6.39	0.40	-0.750			
0.1335	8546.61	3.8760	3.8760	-0.7862	6.40	0.41	-0.750			
0.1359	8696.96	3.8730	3.8730	-0.7930	6.41	0.42	-0.750			
0.1383	8851.43	3.8700	3.8700	-0.7982	6.42	0.43	-0.750			
0.1407	9005.02	3.8670	3.8670	-0.8027	6.43	0.44	-0.750			
0.1432	9161.92	3.8640	3.8638	-0.8032	6.44	0.45	-0.750			
0.1456	9317.54	3.8610	3.8611	-0.7919	6.45	0.46	-0.750			
0.1480	9469.21	3.8580	3.8580	-0.7872	6.46	0.47	-0.750			
0.1503	9619.32	3.8550	3.8550	-0.7750	6.47	0.48	-0.750			
0.1525	9763.06	3.8520	3.8522	-0.7698	6.47	0.48	-0.750			
0.1549	9910.73	3.8490	3.8488	-0.7777	6.48	0.49	-0.750			
0.1572	10059.61	3.8460	3.8462	-0.7807	6.49	0.50	-0.750			
0.1595	10210.60	3.8430	3.8430	-0.7966	6.50	0.51	-0.750			
0.1620	10367.55	3.8400	3.8400	-0.8129	6.51	0.52	-0.750			
0.1644	10524.04	3.8370	3.8370	-0.8174	6.52	0.53	-0.750			
0.1669	10682.81	3.8340	3.8338	-0.8239	6.54	0.55	-0.750			
0.1694	10840.19	3.8310	3.8311	-0.8222	6.55	0.56	-0.750			
0.1719	10999.13	3.8280	3.8279	-0.8224	6.56	0.57	-0.750			
0.1743	11158.23	3.8250	3.8250	-0.8214	6.57	0.58	-0.750			
0.1768	11316.62	3.8220	3.8220	-0.8102	6.58	0.59	-0.750			
0.1792	11471.13	3.8190	3.8189	-0.8082	6.60	0.61	-0.750			
0.1817	11626.23	3.8160	3.8162	-0.8049	6.61	0.62	-0.750			
0.1841	11779.48	3.8130	3.8128	-0.8014	6.62	0.63	-0.750			
0.1864	11930.90	3.8100	3.8100	-0.8026	6.62	0.63	-0.750			
0.1888	12083.44	3.8070	3.8071	-0.8117	6.63	0.64	-0.750			
0.1912	12238.37	3.8040	3.8039	-0.8208	6.64	0.65	-0.750			
0.1938	12400.51	3.8010	3.8010	-0.8326	6.65	0.66	-0.750			
0.1963	12560.62	3.7980	3.7979	-0.8344	6.66	0.67	-0.750			
0.1988	12724.58	3.7950	3.7951	-0.8352	6.67	0.68	-0.750			
0.2013	12885.99	3.7920	3.7920	-0.8291	6.68	0.69	-0.750			
0.2038	13043.44	3.7890	3.7890	-0.8194	6.69	0.70	-0.750			
0.2062	13199.83	3.7860	3.7859	-0.8108	6.71	0.72	-0.750			
0.2086	13353.03	3.7830	3.7829	-0.8046	6.72	0.73	-0.750			
0.2110	13504.93	3.7800	3.7801	-0.8100	6.72	0.73	-0.750			
0.2134	13658.13	3.7770	3.7769	-0.8200	6.73	0.74	-0.750			
0.2159	13816.06	3.7740	3.7740	-0.8319	6.74	0.75	-0.750			
0.2184	13978.91	3.7710	3.7709	-0.8389	6.75	0.76	-0.750			
0.2210	14142.65	3.7680	3.7680	-0.8461	6.76	0.77	-0.750			
0.2235	14307.14	3.7650	3.7651	-0.8494	6.78	0.79	-0.750			
0.2261	14471.64	3.7620	3.7619	-0.8431	6.79	0.80	-0.750			
0.2286	14630.74	3.7590	3.7590	-0.8348	6.80	0.81	-0.750			
0.2311	14790.34	3.7560	3.7559	-0.8396	6.81	0.82	-0.750			
0.2336	14950.77	3.7530	3.7528	-0.8406	6.82	0.83	-0.750			
0.2361	15113.31	3.7500	3.7499	-0.8494	6.83	0.84	-0.750			
0.2387	15277.79	3.7470	3.7470	-0.8509	6.84	0.85	-0.750			
0.2413	15440.77	3.7440	3.7440	-0.8516	6.85	0.86	-0.750			
0.2439	15607.09	3.7410	3.7411	-0.8576	6.86	0.87	-0.750			
0.2464	15770.88	3.7380	3.7379	-0.8530	6.87	0.88	-0.750			
0.2490	15934.64	3.7350	3.7349	-0.8508	6.87	0.88	-0.750			
0.2515	16097.20	3.7320	3.7321	-0.8519	6.88	0.89	-0.750			
0.2541	16259.80	3.7290	3.7290	-0.8551	6.89	0.90	-0.750			
0.2566	16424.53	3.7260	3.7260	-0.8650	6.90	0.91	-0.750			
0.2592	16589.09	3.7230	3.7229	-0.8728	6.91	0.92	-0.750			
0.2619	16758.45	3.7200	3.7200	-0.8806	6.91	0.92	-0.750			
0.2645	16929.16	3.7170	3.7169	-0.8882	6.92	0.93	-0.750			
0.2672	17100.67	3.7140	3.7140	-0.8914	6.93	0.94	-0.750			
0.2699	17274.80	3.7110	3.7113	-0.8902	6.94	0.95	-0.750			
0.2726	17445.00	3.7080	3.7079	-0.8922	6.95	0.96	-0.750			
0.2753	17616.10	3.7050	3.7051	-0.8874	6.96	0.97	-0.750			
0.2779	17786.25	3.7020	3.7020	-0.8895	6.97	0.98	-0.750			
0.2806	17956.18	3.6990	3.6989	-0.9001	6.97	0.98	-0.750			
0.2832	18127.90	3.6960	3.6961	-0.9074	6.98	0.99	-0.750			
0.2860	18302.71	3.6930	3.6929	-0.9175	6.99	1.00	-0.750			
0.2888	18481.44	3.6900	3.6901	-0.9228	7.00	1.01	-0.750			
0.2916	18660.94	3.6870	3.6870	-0.9229	7.01	1.02	-0.750			
0.2944	18839.90	3.6840	3.6840	-0.9263	7.02	1.03	-0.750			
0.2971	19016.69	3.6810	3.6810	-0.9268	7.03	1.04	-0.750			
0.2999	19193.50	3.6780	3.6780	-0.9228	7.04	1.05	-0.750			
0.3026	19368.25	3.6750	3.6749	-0.9289	7.05	1.06	-0.750			
0.3054	19546.78	3.6720	3.6721	-0.9407	7.05	1.06	-0.750			
0.3083	19728.04	3.6690	3.6689	-0.9573	7.06	1.07	-0.750			
0.3111	19912.90	3.6660	3.6659	-0.9727	7.07	1.08	-0.750			
0.3141	20102.65	3.6630	3.6630	-0.9818	7.08	1.09	-0.750			
0.3171	20293.24	3.6600	3.6600	-0.9997	7.08	1.09	-0.750			
0.3201	20488.78	3.6570	3.6571	-1.0037	7.09	1.10	-0.750			
0.3231	20678.96	3.6540	3.6539	-1.0087	7.10	1.11	-0.750			
0.3262	20875.08	3.6510	3.6510	-1.0158	7.11	1.12	-0.750			
0.3292	21069.88	3.6480	3.6479	-1.0171	7.11	1.12	-0.750			
0.3323	21266.61	3.6450	3.6452	-1.0272	7.12	1.13	-0.750			
0.3354	21464.72	3.6420	3.6421	-1.0303	7.12	1.13	-0.750			
0.3385	21661.91	3.6390	3.6389	-1.0263	7.13	1.14	-0.750			
0.3416	21859.79	3.6360	3.6360	-1.0327	7.13	1.14	-0.750			
0.3446	22052.47	3.6330	3.6331	-1.0396	7.14	1.15	-0.750			
0.3477	22254.07	3.6300	3.6300	-1.0544	7.15	1.16	-0.750			
0.3509	22458.78	3.6270	3.6269	-1.0623	7.15	1.16	-0.750			
0.3541	22662.86	3.6240	3.6240	-1.0760	7.16	1.17	-0.750			
0.3574	22872.88	3.6210	3.6213	-1.0890	7.17	1.18	-0.750			
0.3607	23084.66	3.6180	3.6179	-1.0967	7.18	1.19	-0.750			
0.3639	23292.79	3.6150	3.6150	-1.1041	7.18	1.19	-0.750			
0.3673	23505.16	3.6120	3.6120	-1.1145	7.19	1.20	-0.750			
0.3706	23720.00	3.6090	3.6090	-1.1338	7.19	1.20	-0.750			
0.3741	23941.15	3.6060	3.6060	-1.1441	7.20	1.21	-0.750			
0.3776	24163.63	3.6030	3.6030	-1.1454	7.20	1.21	-0.750			
0.3810	24385.39	3.6000	3.5999	-1.1484	7.21	1.22	-0.750			
0.3845	24605.55	3.5970	3.5970	-1.1502	7.21	1.22	-0.750			
0.3879	24824.03	3.5940	3.5938	-1.1551	7.22	1.23	-0.750	0.391	0.879	
0.3913	25041.79	3.5910	3.5909	-1.1727	7.22	1.23	-0.750			
0.3948	25267.56	3.5880	3.5880	-1.1893	7.23	1.24	-0.750			
0.3985	25505.76	3.5850	3.5849	-1.2129	7.23	1.24	-0.750			
0.4022	25743.94	3.5820	3.5820	-1.2248	7.24	1.25	-0.750			
0.4059	25978.09	3.5790	3.5793	-1.2276	7.24	1.25	-0.750			
0.4096	26213.57	3.5760	3.5758	-1.2406	7.24	1.25	-0.750			
0.4133	26449.99	3.5730	3.5728	-1.2474	7.25	1.26	-0.750			
0.4170	26689.32	3.5700	3.5699	-1.2552	7.26	1.27	-0.750			
0.4208	26931.72	3.5670	3.5672	-1.2568	7.26	1.27	-0.750			
0.4247	27180.85	3.5640	3.5640	-1.2770	7.27	1.28	-0.750			
0.4285	27424.46	3.5610	3.5610	-1.2794	7.27	1.28	-0.750			
0.4323	27665.35	3.5580	3.5583	-1.2734	7.28	1.29	-0.750			
0.4361	27913.32	3.5550	3.5549	-1.2976	7.28	1.29	-0.750			
0.4400	28162.70	3.5520	3.5520	-1.3058	7.29	1.30	-0.750			
0.4440	28416.34	3.5490	3.5491	-1.3269	7.29	1.30	-0.750			
0.4481	28676.31	3.5460	3.5458	-1.3414	7.30	1.31	-0.750			
0.4521	28933.53	3.5430	3.5429	-1.3361	7.30	1.31	-0.750			
0.4561	29189.44	3.5400	3.5401	-1.3455	7.31	1.32	-0.750			
0.4601	29448.13	3.5370	3.5370	-1.3548	7.31	1.32	-0.750			
0.4642	29710.57	3.5340	3.5339	-1.3519	7.32	1.33	-0.750			
0.4683	29970.95	3.5310	3.5310	-1.3604	7.32	1.33	-0.750			
0.4724	30230.78	3.5280	3.5280	-1.3597	7.32	1.33	-0.750			
0.4765	30497.97	3.5250	3.5250	-1.3664	7.33	1.34	-0.750			
0.4806	30756.73	3.5220	3.5219	-1.3749	7.34	1.35	-0.750			
0.4847	31018.28	3.5190	3.5189	-1.3703	7.34	1.35	-0.750			
0.4888	31283.91	3.5160	3.5159	-1.3762	7.35	1.36	-0.750			
0.4930	31550.43	3.5130	3.5128	-1.3873	7.36	1.37	-0.750			
0.4972	31817.97	3.5100	3.5101	-1.3825	7.36	1.37	-0.750			
0.5014	32089.63	3.5070	3.5069	-1.3837	7.37	1.38	-0.750			
0.5055	32353.45	3.5040	3.5040	-1.3782	7.38	1.39	-0.750			
0.5096	32612.04	3.5010	3.5010	-1.3649	7.39	1.40	-0.750			
0.5137	32878.70	3.4980	3.4979	-1.3673	7.40	1.41	-0.750			
0.5178	33137.74	3.4950	3.4949	-1.3657	7.41	1.42	-0.750			
0.5219	33400.02	3.4920	3.4921	-1.3517	7.41	1.42	-0.750			
0.5260	33663.35	3.4890	3.4890	-1.3521	7.42	1.43	-0.750			
0.5300	33922.95	3.4860	3.4859	-1.3419	7.43	1.44	-0.750			
0.5340	34177.42	3.4830	3.4830	-1.3232	7.43	1.44	-0.750			
0.5380	34430.16	3.4800	3.4799	-1.3166	7.44	1.45	-0.750			
0.5419	34681.79	3.4770	3.4770	-1.3100	7.45	1.46	-0.750			
0.5457	34927.29	3.4740	3.4741	-1.3111	7.45	1.46	-0.750			
0.5497	35183.50	3.4710	3.4709	-1.3153	7.46	1.47	-0.750			
0.5537	35436.65	3.4680	3.4680	-1.3101	7.47	1.48	-0.750			
0.5576	35688.58	3.4650	3.4651	-1.3206	7.48	1.49	-0.750			
0.5617	35945.75	3.4620	3.4619	-1.3175	7.49	1.50	-0.750			
0.5656	36199.04	3.4590	3.4589	-1.3068	7.50	1.51	-0.750			
0.5695	36448.74	3.4560	3.4563	-1.2977	7.51	1.52	-0.750			
0.5734	36697.47	3.4530	3.4530	-1.2813	7.52	1.53	-0.750			
0.5772	36943.78	3.4500	3.4499	-1.2673	7.53	1.54	-0.750			
0.5810	37182.74	3.4470	3.4470	-1.2470	7.54	1.55	-0.750			
0.5847	37419.26	3.4440	3.4440	-1.2394	7.55	1.56	-0.750			
0.5884	37656.60	3.4410	3.4409	-1.2289	7.55	1.56	-0.750			
0.5921	37892.07	3.4380	3.4380	-1.2106	7.56	1.57	-0.750			
0.5957	38123.58	3.4350	3.4351	-1.1940	7.57	1.58	-0.750			
0.5993	38356.15	3.4320	3.4320	-1.1811	7.59	1.60	-0.750			
0.6028	38580.63	3.4290	3.4289	-1.1543	7.60	1.61	-0.750			
0.6062	38798.03	3.4260	3.4260	-1.1240	7.62	1.63	-0.750			
0.6095	39009.85	3.4230	3.4230	-1.1092	7.63	1.64	-0.750			
0.6128	39219.50	3.4200	3.4200	-1.0991	7.63	1.64	-0.750			
0.6161	39429.12	3.4170	3.4169	-1.0920	7.64	1.65	-0.750			
0.6193	39636.89	3.4140	3.4142	-1.0843	7.65	1.66	-0.750			
0.6226	39848.32	3.4110	3.4109	-1.0768	7.66	1.67	-0.750			
0.6259	40055.88	3.4080	3.4081	-1.0553	7.67	1.68	-0.750			
0.6290	40258.41	3.4050	3.4049	-1.0318	7.69	1.70	-0.750			
0.6321	40451.70	3.4020	3.4022	-1.0012	7.70	1.71	-0.750			
0.6350	40640.67	3.3990	3.3990	-0.9763	7.71	1.72	-0.750			
0.6379	40825.56	3.3960	3.3960	-0.9534	7.72	1.73	-0.750			
0.6407	41007.42	3.3930	3.3930	-0.9247	7.73	1.74	-0.750			
0.6435	41181.38	3.3900	3.3899	-0.9097	7.74	1.75	-0.750			
0.6462	41355.23	3.3870	3.3871	-0.8962	7.76	1.77	-0.750			
0.6488	41524.60	3.3840	3.3839	-0.8830	7.77	1.78	-0.750			
0.6514	41691.98	3.3810	3.3810	-0.8684	7.78	1.79	-0.750			
0.6540	41858.43	3.3780	3.3780	-0.8475	7.79	1.80	-0.750			
0.6566	42022.43	3.3750	3.3750	-0.8329	7.80	1.81	-0.750			
0.6591	42184.65	3.3720	3.3719	-0.8103	7.81	1.82	-0.750			
0.6615	42333.95	3.3690	3.3691	-0.7830	7.82	1.83	-0.750			
0.6637	42479.63	3.3660	3.3659	-0.7607	7.84	1.85	-0.750			
0.6660	42622.53	3.3630	3.3629	-0.7418	7.85	1.86	-0.750			
0.6682	42763.58	3.3600	3.3599	-0.7232	7.86	1.87	-0.750			
0.6703	42900.63	3.3570	3.3572	-0.7098	7.87	1.88	-0.750			
0.6725	43038.00	3.3540	3.3541	-0.6914	7.89	1.90	-0.750			
0.6745	43169.35	3.3510	3.3509	-0.6748	7.90	1.91	-0.750			
0.6765	43293.99	3.3480	3.3480	-0.6552	7.91	1.92	-0.750			
0.6784	43419.46	3.3450	3.3450	-0.6421	7.92	1.93	-0.750			
0.6803	43540.59	3.3420	3.3419	-0.6292	7.93	1.94	-0.750			
0.6822	43660.71	3.3390	3.3391	-0.6159	7.94	1.95	-0.750			
0.6840	43778.16	3.3360	3.3360	-0.5999	7.95	1.96	-0.750			
0.6858	43893.68	3.3330	3.3329	-0.5854	7.96	1.97	-0.750			
0.6875	44003.07	3.3300	3.3300	-0.5649	7.97	1.98	-0.750			
0.6892	44109.56	3.3270	3.3271	-0.5505	7.98	1.99	-0.750			
0.6908	44212.95	3.3240	3.3239	-0.5378	7.99	2.00	-0.750			
0.6924	44313.64	3.3210	3.3210	-0.5275	8.00	2.01	-0.750			
0.6940	44412.89	3.3180	3.3179	-0.5193	8.01	2.02	-0.750			
0.6955	44512.05	3.3150	3.3149	-0.5115	8.02	2.03	-0.750			
0.6970	44610.57	3.3120	3.3120	-0.5036	8.03	2.04	-0.750			
0.6985	44706.43	3.3090	3.3091	-0.4972	8.04	2.05	-0.750			
0.7000	44801.90	3.3060	3.3060	-0.4865	8.05	2.06	-0.750			
0.7015	44894.92	3.3030	3.3029	-0.4752	8.06	2.07	-0.750			
0.7029	44984.21	3.3000	3.3000	-0.4629	8.07	2.08	-0.750			
0.7043	45072.31	3.2970	3.2970	-0.4524	8.08	2.09	-0.750			
0.7056	45158.39	3.2940	3.2940	-0.4435	8.09	2.10	-0.750			
0.7069	45242.45	3.2910	3.2909	-0.4302	8.10	2.11	-0.750			
0.7082	45322.46	3.2880	3.2880	-0.4218	8.11	2.12	-0.750			
0.7094	45403.44	3.2850	3.2851	-0.4154	8.12	2.13	-0.750			
0.7107	45481.67	3.2820	3.2819	-0.4089	8.13	2.14	-0.750			
0.7119	45559.61	3.2790	3.2790	-0.4011	8.14	2.15	-0.750			
0.7131	45636.09	3.2760	3.2761	-0.3955	8.15	2.16	-0.750			
0.7142	45711.21	3.2730	3.2730	-0.3904	8.16	2.17	-0.750			
0.7154	45786.67	3.2700	3.2701	-0.3856	8.17	2.18	-0.750			
0.7166	45859.42	3.2670	3.2669	-0.3770	8.18	2.19	-0.750			
0.7177	45931.80	3.2640	3.2640	-0.3712	8.19	2.20	-0.750			
0.7188	46002.00	3.2610	3.2610	-0.3640	8.20	2.21	-0.750			
0.7199	46071.87	3.2580	3.2580	-0.3589	8.22	2.23	-0.750			
0.7209	46139.61	3.2550	3.2549	-0.3501	8.23	2.24	-0.750			
0.7220	46205.45	3.2520	3.2520	-0.3432	8.24	2.25	-0.750			
0.7230	46270.96	3.2490	3.2491	-0.3380	8.25	2.26	-0.750			
0.7240	46335.58	3.2460	3.2459	-0.3330	8.26	2.27	-0.750			
0.7250	46398.45	3.2430	3.2430	-0.3273	8.27	2.28	-0.750			
0.7259	46460.07	3.2400	3.2401	-0.3220	8.28	2.29	-0.750			
0.7269	46521.78	3.2370	3.2370	-0.3179	8.29	2.30	-0.750			
0.7279	46582.83	3.2340	3.2340	-0.3148	8.30	2.31	-0.750			
0.7288	46642.90	3.2310	3.2310	-0.3101	8.31	2.32	-0.750			
0.7297	46702.56	3.2280	3.2280	-0.3046	8.32	2.33	-0.750			
0.7306	46760.58	3.2250	3.2250	-0.2982	8.33	2.34	-0.750			
0.7315	46816.58	3.2220	3.2220	-0.2923	8.33	2.34	-0.750			
0.7324	46871.69	3.2190	3.2191	-0.2891	8.34	2.35	-0.750			
0.7332	46926.46	3.2160	3.2159	-0.2859	8.35	2.36	-0.750			
0.7341	46981.01	3.2130	3.2130	-0.2821	8.36	2.37	-0.750			
0.7349	47035.27	3.2100	3.2100	-0.2810	8.37	2.38	-0.750			
0.7358	47089.52	3.2070	3.2071	-0.2793	8.38	2.39	-0.750			
0.7366	47142.97	3.2040	3.2039	-0.2754	8.39	2.40	-0.750			
0.7374	47194.91	3.2010	3.2009	-0.2715	8.40	2.41	-0.750			
0.7382	47246.77	3.1980	3.1980	-0.2686	8.40	2.41	-0.750			
0.7390	47298.11	3.1950	3.1950	-0.2652	8.41	2.42	-0.750			
0.7398	47348.88	3.1920	3.1919	-0.2621	8.42	2.43	-0.750			
0.7406	47399.04	3.1890	3.1890	-0.2581	8.43	2.44	-0.750			
0.7414	47448.16	3.1860	3.1860	-0.2556	8.44	2.45	-0.750			
0.7421	47496.58	3.1830	3.1830	-0.2533	8.45	2.46	-0.750			
0.7429	47545.36	3.1800	3.1799	-0.2499	8.46	2.47	-0.750			
0.7436	47593.09	3.1770	3.1770	-0.2466	8.47	2.48	-0.750			
0.7444	47640.37	3.1740	3.1740	-0.2435	8.48	2.49	-0.750			
0.7451	47686.57	3.1710	3.1710	-0.2406	8.48	2.49	-0.750			
0.7458	47732.54	3.1680	3.1679	-0.2369	8.49	2.50	-0.750			
0.7465	47777.69	3.1650	3.1649	-0.2336	8.50	2.51	-0.750			
0.7472	47821.71	3.1620	3.1620	-0.2297	8.51	2.52	-0.750			
0.7479	47865.24	3.1590	3.1591	-0.2274	8.52	2.53	-0.750			
0.7486	47909.03	3.1560	3.1559	-0.2258	8.53	2.54	-0.750			
0.7492	47951.93	3.1530	3.1530	-0.2232	8.54	2.55	-0.750			
0.7499	47994.58	3.1500	3.1499	-0.2211	8.54	2.55	-0.750			
0.7506	48036.40	3.1470	3.1470	-0.2195	8.55	2.56	-0.750			
0.7512	48078.60	3.1440	3.1440	-0.2188	8.56	2.57	-0.750			
0.7519	48120.56	3.1410	3.1410	-0.2171	8.57	2.58	-0.750			
0.7525	48162.10	3.1380	3.1379	-0.2156	8.58	2.59	-0.750			
0.7532	48203.40	3.1350	3.1350	-0.2133	8.58	2.59	-0.750			
0.7538	48244.50	3.1320	3.1321	-0.2112	8.59	2.60	-0.750			
0.7545	48284.94	3.1290	3.1290	-0.2089	8.60	2.61	-0.750			
0.7551	48324.75	3.1260	3.1260	-0.2058	8.61	2.62	-0.750			
0.7557	48363.73	3.1230	3.1230	-0.2038	8.61	2.62	-0.750			
0.7563	48402.35	3.1200	3.1200	-0.2021	8.62	2.63	-0.750			
0.7569	48441.22	3.1170	3.1169	-0.1998	8.63	2.64	-0.750			
0.7575	48479.25	3.1140	3.1141	-0.1984	8.63	2.64	-0.750			
0.7581	48517.22	3.1110	3.1110	-0.1969	8.64	2.65	-0.750			
0.7587	48554.86	3.1080	3.1081	-0.1958	8.65	2.66	-0.750			
0.7593	48592.56	3.1050	3.1048	-0.1938	8.66	2.67	-0.750			
0.7598	48629.48	3.1020	3.1020	-0.1916	8.67	2.68	-0.750			
0.7604	48666.20	3.0990	3.0990	-0.1889	8.68	2.69	-0.750			
0.7610	48702.20	3.0960	3.0961	-0.1873	8.69	2.70	-0.750			
0.7615	48737.85	3.0930	3.0931	-0.1867	8.70	2.71	-0.750			
0.7621	48772.91	3.0900	3.0899	-0.1843	8.70	2.71	-0.750			
0.7626	48808.65	3.0870	3.0869	-0.1849	8.71	2.72	-0.750			
0.7632	48843.90	3.0840	3.0839	-0.1847	8.72	2.73	-0.750			
0.7638	48880.25	3.0810	3.0809	-0.1833	8.73	2.74	-0.750			
0.7643	48915.19	3.0780	3.0783	-0.1811	8.74	2.75	-0.750			
0.7648	48950.18	3.0750	3.0751	-0.1796	8.75	2.76	-0.750			
0.7654	48984.50	3.0720	3.0719	-0.1767	8.76	2.77	-0.750			
0.7659	49017.39	3.0690	3.0689	-0.1747	8.76	2.77	-0.750			
0.7664	49050.19	3.0660	3.0661	-0.1730	8.77	2.78	-0.750			
0.7669	49083.55	3.0630	3.0629	-0.1737	8.78	2.79	-0.750			
0.7675	49116.95	3.0600	3.0601	-0.1740	8.79	2.80	-0.750			
0.7680	49150.50	3.0570	3.0570	-0.1744	8.79	2.80	-0.750			
0.7685	49184.14	3.0540	3.0540	-0.1735	8.80	2.81	-0.750			
0.7690	49217.78	3.0510	3.0510	-0.1734	8.81	2.82	-0.750			
0.7695	49250.93	3.0480	3.0479	-0.1719	8.82	2.83	-0.750			
0.7701	49284.00	3.0450	3.0450	-0.1696	8.83	2.84	-0.750			
0.7706	49316.18	3.0420	3.0420	-0.1686	8.83	2.84	-0.750			
0.7711	49348.39	3.0390	3.0390	-0.1671	8.84	2.85	-0.750			
0.7716	49380.13	3.0360	3.0360	-0.1655	8.85	2.86	-0.750			
0.7721	49411.59	3.0330	3.0330	-0.1647	8.86	2.87	-0.750			
0.7726	49443.23	3.0300	3.0301	-0.1639	8.87	2.88	-0.750			
0.7730	49474.60	3.0270	3.0270	-0.1631	8.88	2.89	-0.750			
0.7735	49505.84	3.0240	3.0240	-0.1624	8.88	2.89	-0.750			
0.7740	49537.28	3.0210	3.0210	-0.1611	8.89	2.90	-0.750			
0.7745	49567.71	3.0180	3.0180	-0.1599	8.90	2.91	-0.750			
0.7750	49598.58	3.0150	3.0151	-0.1592	8.91	2.92	-0.750			
0.7755	49629.03	3.0120	3.0119	-0.1579	8.92	2.93	-0.750			
0.7759	49659.13	3.0090	3.0090	-0.1568	8.93	2.94	-0.750			
0.7764	49689.17	3.0060	3.0060	-0.1555	8.93	2.94	-0.750			
0.7769	49718.93	3.0030	3.0030	-0.1550	8.94	2.95	-0.750			
