Ah_balance (normalized)	Ah_balance (mAh)	Voltage - fit (V)	Voltage -  interpolate (V)	dQ/dV (1/V)	Temperature (°C)	Temperature - diff (°C)	Current (C)	R_DC 0ms (mOhm)	R_DC 50ms (mOhm)	R_DC 50 ms PEC (mOhm)
0.0000	0.00	4.0940	4.1278	0.0000	5.98	-0.01	-0.749			
0.0000	0.00	4.0970	4.1278	0.0000	5.98	-0.01	-0.749			
0.0002	11.87	4.0910	4.0903	-0.0391	5.98	-0.01	-0.750			
0.0003	21.94	4.0880	4.0874	-0.0658	5.98	-0.01	-0.750			
0.0006	35.86	4.0850	4.0851	-0.0946	5.98	-0.01	-0.750			
0.0009	57.88	4.0820	4.0819	-0.1201	5.98	-0.01	-0.750			
0.0013	83.51	4.0790	4.0789	-0.1469	5.98	-0.01	-0.750			
0.0018	114.44	4.0760	4.0759	-0.1701	5.98	-0.01	-0.750			
0.0023	149.51	4.0730	4.0732	-0.1939	5.98	-0.01	-0.750			
0.0030	191.04	4.0700	4.0701	-0.2169	5.98	-0.01	-0.750			
0.0037	234.81	4.0670	4.0669	-0.2375	5.98	-0.01	-0.750			
0.0044	282.37	4.0640	4.0640	-0.2603	5.98	-0.01	-0.750			
0.0052	333.85	4.0610	4.0610	-0.2810	5.99	-0.00	-0.750			
0.0061	389.78	4.0580	4.0580	-0.3042	5.99	-0.00	-0.750			
0.0070	450.35	4.0550	4.0549	-0.3282	5.99	-0.00	-0.750			
0.0080	515.17	4.0520	4.0522	-0.3527	5.99	0.00	-0.750			
0.0091	585.51	4.0490	4.0489	-0.3763	5.99	0.00	-0.750			
0.0103	659.97	4.0460	4.0460	-0.3989	5.99	0.00	-0.750			
0.0115	739.03	4.0430	4.0430	-0.4209	6.00	0.01	-0.750			
0.0129	823.16	4.0400	4.0400	-0.4419	6.00	0.01	-0.750			
0.0142	910.16	4.0370	4.0369	-0.4598	6.00	0.01	-0.750			
0.0156	1000.27	4.0340	4.0341	-0.4800	6.00	0.01	-0.750			
0.0171	1094.25	4.0310	4.0311	-0.4984	6.00	0.01	-0.750			
0.0186	1192.18	4.0280	4.0279	-0.5158	6.01	0.02	-0.750			
0.0202	1293.38	4.0250	4.0251	-0.5279	6.01	0.02	-0.750			
0.0218	1395.61	4.0220	4.0220	-0.5464	6.01	0.02	-0.750			
0.0235	1501.37	4.0190	4.0190	-0.5656	6.01	0.02	-0.750			
0.0252	1611.54	4.0160	4.0159	-0.5801	6.02	0.03	-0.750			
0.0269	1724.12	4.0130	4.0131	-0.5989	6.02	0.03	-0.750			
0.0288	1842.32	4.0100	4.0100	-0.6166	6.02	0.03	-0.750			
0.0307	1963.39	4.0070	4.0068	-0.6296	6.03	0.04	-0.750			
0.0326	2087.32	4.0040	4.0041	-0.6412	6.03	0.04	-0.750			
0.0346	2211.23	4.0010	4.0010	-0.6419	6.04	0.05	-0.750			
0.0365	2335.96	3.9980	3.9979	-0.6460	6.04	0.05	-0.750			
0.0384	2460.70	3.9950	3.9951	-0.6506	6.05	0.06	-0.750			
0.0404	2582.72	3.9920	3.9921	-0.6569	6.06	0.07	-0.750			
0.0423	2709.20	3.9890	3.9889	-0.6679	6.07	0.08	-0.750			
0.0444	2839.21	3.9860	3.9859	-0.6727	6.08	0.09	-0.750			
0.0464	2969.10	3.9830	3.9830	-0.6825	6.08	0.09	-0.750			
0.0485	3101.44	3.9800	3.9801	-0.6944	6.09	0.10	-0.750			
0.0506	3236.43	3.9770	3.9769	-0.7046	6.10	0.11	-0.750			
0.0527	3374.99	3.9740	3.9738	-0.6992	6.10	0.11	-0.750			
0.0548	3508.59	3.9710	3.9711	-0.6980	6.11	0.12	-0.750			
0.0569	3642.21	3.9680	3.9681	-0.7037	6.12	0.13	-0.750			
0.0590	3778.24	3.9650	3.9649	-0.7070	6.12	0.13	-0.750			
0.0611	3911.09	3.9620	3.9619	-0.7069	6.13	0.14	-0.750			
0.0632	4046.29	3.9590	3.9591	-0.7174	6.14	0.15	-0.750			
0.0654	4186.64	3.9560	3.9560	-0.7280	6.15	0.16	-0.750			
0.0677	4330.73	3.9530	3.9529	-0.7305	6.16	0.17	-0.750			
0.0699	4471.56	3.9500	3.9501	-0.7271	6.17	0.18	-0.750			
0.0720	4610.34	3.9470	3.9470	-0.7268	6.18	0.19	-0.750			
0.0742	4749.60	3.9440	3.9439	-0.7263	6.19	0.20	-0.750			
0.0764	4887.69	3.9410	3.9410	-0.7271	6.19	0.20	-0.750			
0.0785	5025.23	3.9380	3.9380	-0.7283	6.20	0.21	-0.750			
0.0807	5167.40	3.9350	3.9350	-0.7381	6.21	0.22	-0.750			
0.0830	5311.38	3.9320	3.9320	-0.7402	6.22	0.23	-0.750			
0.0852	5454.01	3.9290	3.9290	-0.7406	6.23	0.24	-0.750			
0.0874	5595.48	3.9260	3.9261	-0.7421	6.24	0.25	-0.750			
0.0897	5737.72	3.9230	3.9230	-0.7427	6.25	0.26	-0.750			
0.0919	5879.17	3.9200	3.9199	-0.7470	6.26	0.27	-0.750			
0.0941	6021.82	3.9170	3.9170	-0.7525	6.26	0.27	-0.750			
0.0964	6166.48	3.9140	3.9140	-0.7600	6.27	0.28	-0.750			
0.0987	6314.93	3.9110	3.9110	-0.7680	6.29	0.30	-0.750			
0.1010	6465.63	3.9080	3.9079	-0.7689	6.30	0.31	-0.750			
0.1033	6613.93	3.9050	3.9051	-0.7661	6.31	0.32	-0.750			
0.1056	6761.58	3.9020	3.9021	-0.7630	6.32	0.33	-0.750			
0.1079	6905.92	3.8990	3.8991	-0.7571	6.33	0.34	-0.750			
0.1102	7050.50	3.8960	3.8959	-0.7550	6.34	0.35	-0.750			
0.1124	7193.20	3.8930	3.8930	-0.7540	6.35	0.36	-0.750			
0.1147	7338.42	3.8900	3.8900	-0.7559	6.36	0.37	-0.750			
0.1170	7486.11	3.8870	3.8870	-0.7613	6.37	0.38	-0.750			
0.1192	7631.12	3.8840	3.8840	-0.7618	6.38	0.39	-0.750			
0.1215	7777.77	3.8810	3.8809	-0.7641	6.38	0.39	-0.750			
0.1238	7925.42	3.8780	3.8779	-0.7638	6.39	0.40	-0.750			
0.1261	8071.61	3.8750	3.8750	-0.7661	6.40	0.41	-0.750			
0.1284	8219.38	3.8720	3.8720	-0.7662	6.41	0.42	-0.750			
0.1308	8368.80	3.8690	3.8691	-0.7666	6.42	0.43	-0.750			
0.1330	8514.77	3.8660	3.8662	-0.7695	6.43	0.44	-0.750			
0.1353	8661.07	3.8630	3.8631	-0.7758	6.44	0.45	-0.750			
0.1377	8810.02	3.8600	3.8599	-0.7788	6.45	0.46	-0.750			
0.1400	8960.03	3.8570	3.8570	-0.7851	6.46	0.47	-0.750			
0.1424	9113.35	3.8540	3.8540	-0.7887	6.48	0.49	-0.750			
0.1448	9265.34	3.8510	3.8511	-0.7897	6.49	0.50	-0.750			
0.1472	9419.08	3.8480	3.8479	-0.7910	6.50	0.51	-0.750			
0.1495	9567.98	3.8450	3.8450	-0.7898	6.51	0.52	-0.750			
0.1519	9719.98	3.8420	3.8420	-0.7820	6.52	0.53	-0.750			
0.1542	9871.08	3.8390	3.8390	-0.7832	6.53	0.54	-0.750			
0.1566	10020.90	3.8360	3.8360	-0.7842	6.53	0.54	-0.750			
0.1589	10171.50	3.8330	3.8331	-0.7861	6.54	0.55	-0.750			
0.1613	10320.63	3.8300	3.8299	-0.7890	6.56	0.57	-0.750			
0.1636	10472.68	3.8270	3.8270	-0.7924	6.57	0.58	-0.750			
0.1660	10624.65	3.8240	3.8241	-0.7961	6.58	0.59	-0.750			
0.1685	10781.47	3.8210	3.8210	-0.8005	6.59	0.60	-0.750			
0.1709	10936.39	3.8180	3.8181	-0.7981	6.60	0.61	-0.750			
0.1733	11090.19	3.8150	3.8151	-0.7884	6.61	0.62	-0.750			
0.1756	11240.08	3.8120	3.8120	-0.7871	6.63	0.64	-0.750			
0.1780	11389.57	3.8090	3.8090	-0.7851	6.64	0.65	-0.750			
0.1803	11539.18	3.8060	3.8059	-0.7878	6.65	0.66	-0.750			
0.1826	11688.99	3.8030	3.8029	-0.7929	6.66	0.67	-0.750			
0.1850	11842.85	3.8000	3.8000	-0.8024	6.67	0.68	-0.750			
0.1875	11997.95	3.7970	3.7971	-0.8111	6.68	0.69	-0.750			
0.1900	12157.83	3.7940	3.7939	-0.8139	6.69	0.70	-0.750			
0.1924	12314.26	3.7910	3.7909	-0.8047	6.71	0.72	-0.750			
0.1948	12470.18	3.7880	3.7882	-0.8008	6.72	0.73	-0.750			
0.1972	12622.48	3.7850	3.7850	-0.7968	6.73	0.74	-0.750			
0.1996	12772.28	3.7820	3.7820	-0.7980	6.74	0.75	-0.750			
0.2020	12925.12	3.7790	3.7789	-0.8000	6.75	0.76	-0.750			
0.2043	13076.12	3.7760	3.7760	-0.8048	6.76	0.77	-0.750			
0.2068	13235.66	3.7730	3.7730	-0.8122	6.77	0.78	-0.750			
0.2093	13392.70	3.7700	3.7701	-0.8087	6.78	0.79	-0.750			
0.2117	13546.60	3.7670	3.7670	-0.8209	6.79	0.80	-0.750			
0.2141	13705.03	3.7640	3.7639	-0.8201	6.79	0.80	-0.750			
0.2166	13860.44	3.7610	3.7609	-0.8197	6.80	0.81	-0.750			
0.2191	14020.35	3.7580	3.7580	-0.8264	6.81	0.82	-0.750			
0.2216	14180.12	3.7550	3.7549	-0.8314	6.82	0.83	-0.750			
0.2241	14340.95	3.7520	3.7519	-0.8349	6.83	0.84	-0.750			
0.2266	14502.46	3.7490	3.7490	-0.8316	6.84	0.85	-0.750			
0.2290	14657.57	3.7460	3.7460	-0.8314	6.85	0.86	-0.750			
0.2316	14820.67	3.7430	3.7429	-0.8385	6.86	0.87	-0.750			
0.2341	14981.60	3.7400	3.7400	-0.8346	6.87	0.88	-0.750			
0.2366	15140.81	3.7370	3.7370	-0.8434	6.88	0.89	-0.750			
0.2391	15304.02	3.7340	3.7340	-0.8452	6.89	0.90	-0.750			
0.2417	15467.25	3.7310	3.7309	-0.8451	6.90	0.91	-0.750			
0.2442	15631.10	3.7280	3.7278	-0.8484	6.91	0.92	-0.750			
0.2468	15792.38	3.7250	3.7250	-0.8464	6.92	0.93	-0.750			
0.2493	15956.37	3.7220	3.7219	-0.8551	6.93	0.94	-0.750			
0.2519	16121.43	3.7190	3.7190	-0.8531	6.94	0.95	-0.750			
0.2544	16282.85	3.7160	3.7160	-0.8458	6.95	0.96	-0.750			
0.2570	16449.57	3.7130	3.7130	-0.8568	6.96	0.97	-0.750			
0.2595	16609.89	3.7100	3.7100	-0.8686	6.97	0.98	-0.750			
0.2621	16775.16	3.7070	3.7069	-0.8683	6.97	0.98	-0.750			
0.2647	16942.44	3.7040	3.7039	-0.8766	6.98	0.99	-0.750			
0.2674	17112.55	3.7010	3.7010	-0.8838	6.99	1.00	-0.750			
0.2701	17287.60	3.6980	3.6981	-0.8960	7.00	1.01	-0.750			
0.2728	17458.87	3.6950	3.6950	-0.9039	7.01	1.02	-0.750			
0.2755	17632.70	3.6920	3.6921	-0.9057	7.02	1.03	-0.750			
0.2782	17805.64	3.6890	3.6889	-0.9079	7.03	1.04	-0.750			
0.2810	17981.33	3.6860	3.6860	-0.9110	7.03	1.04	-0.750			
0.2837	18156.74	3.6830	3.6831	-0.9144	7.04	1.05	-0.750			
0.2864	18331.98	3.6800	3.6800	-0.9265	7.05	1.06	-0.750			
0.2892	18509.78	3.6770	3.6770	-0.9309	7.06	1.07	-0.750			
0.2920	18687.35	3.6740	3.6739	-0.9355	7.07	1.08	-0.750			
0.2948	18869.12	3.6710	3.6711	-0.9484	7.08	1.09	-0.750			
0.2977	19052.18	3.6680	3.6680	-0.9599	7.09	1.10	-0.750			
0.3006	19238.93	3.6650	3.6649	-0.9653	7.09	1.10	-0.750			
0.3035	19424.51	3.6620	3.6620	-0.9672	7.10	1.11	-0.750			
0.3064	19609.53	3.6590	3.6590	-0.9661	7.11	1.12	-0.750			
0.3093	19798.05	3.6560	3.6559	-0.9709	7.11	1.12	-0.750			
0.3123	19985.06	3.6530	3.6530	-0.9831	7.12	1.13	-0.750			
0.3152	20173.30	3.6500	3.6500	-0.9871	7.13	1.14	-0.750			
0.3182	20365.16	3.6470	3.6468	-0.9884	7.14	1.15	-0.750			
0.3212	20556.23	3.6440	3.6442	-0.9967	7.15	1.16	-0.750			
0.3242	20747.84	3.6410	3.6409	-0.9983	7.16	1.17	-0.750			
0.3272	20937.65	3.6380	3.6381	-1.0012	7.16	1.17	-0.750			
0.3301	21124.12	3.6350	3.6349	-1.0033	7.17	1.18	-0.750			
0.3331	21321.59	3.6320	3.6321	-1.0282	7.17	1.18	-0.750			
0.3363	21520.30	3.6290	3.6288	-1.0396	7.18	1.19	-0.750			
0.3394	21723.68	3.6260	3.6261	-1.0459	7.19	1.20	-0.750			
0.3426	21926.71	3.6230	3.6231	-1.0550	7.19	1.20	-0.750			
0.3458	22129.43	3.6200	3.6203	-1.0800	7.20	1.21	-0.750			
0.3491	22340.11	3.6170	3.6167	-1.0791	7.21	1.22	-0.750			
0.3523	22545.24	3.6140	3.6139	-1.0735	7.21	1.22	-0.750			
0.3555	22751.18	3.6110	3.6111	-1.0896	7.22	1.23	-0.750			
0.3588	22962.63	3.6080	3.6081	-1.1051	7.22	1.23	-0.750			
0.3621	23175.59	3.6050	3.6049	-1.1150	7.23	1.24	-0.750			
0.3654	23386.88	3.6020	3.6019	-1.1167	7.24	1.25	-0.750			
0.3688	23601.26	3.5990	3.5992	-1.1262	7.25	1.26	-0.750			
0.3723	23824.10	3.5960	3.5960	-1.1446	7.25	1.26	-0.750			
0.3757	24046.81	3.5930	3.5930	-1.1446	7.26	1.27	-0.750			
0.3791	24264.72	3.5900	3.5898	-1.1335	7.26	1.27	-0.750			
0.3825	24481.65	3.5870	3.5871	-1.1300	7.27	1.28	-0.750	0.389	0.848	
0.3859	24697.89	3.5840	3.5840	-1.1381	7.28	1.29	-0.750			
0.3893	24913.42	3.5810	3.5809	-1.1504	7.29	1.30	-0.750			
0.3927	25133.34	3.5780	3.5780	-1.1681	7.29	1.30	-0.750			
0.3962	25357.70	3.5750	3.5750	-1.1830	7.30	1.31	-0.750			
0.3999	25591.21	3.5720	3.5720	-1.2058	7.30	1.31	-0.750			
0.4035	25825.35	3.5690	3.5690	-1.2178	7.31	1.32	-0.750			
0.4072	26061.55	3.5660	3.5657	-1.2225	7.31	1.32	-0.750			
0.4109	26297.46	3.5630	3.5630	-1.2235	7.31	1.32	-0.750			
0.4146	26531.64	3.5600	3.5599	-1.2277	7.32	1.33	-0.750			
0.4182	26767.27	3.5570	3.5571	-1.2312	7.33	1.34	-0.750			
0.4220	27005.19	3.5540	3.5540	-1.2461	7.33	1.34	-0.750			
0.4257	27242.41	3.5510	3.5509	-1.2469	7.34	1.35	-0.750			
0.4294	27482.46	3.5480	3.5480	-1.2520	7.34	1.35	-0.750			
0.4331	27720.72	3.5450	3.5451	-1.2649	7.35	1.36	-0.750			
0.4370	27967.82	3.5420	3.5420	-1.2778	7.35	1.36	-0.750			
0.4408	28212.65	3.5390	3.5390	-1.2815	7.36	1.37	-0.750			
0.4447	28460.35	3.5360	3.5360	-1.2945	7.36	1.37	-0.750			
0.4486	28710.31	3.5330	3.5332	-1.2984	7.37	1.38	-0.750			
0.4526	28963.86	3.5300	3.5299	-1.2964	7.38	1.39	-0.750			
0.4564	29211.50	3.5270	3.5271	-1.3059	7.39	1.40	-0.750			
0.4603	29461.41	3.5240	3.5241	-1.3003	7.39	1.40	-0.750			
0.4643	29713.96	3.5210	3.5208	-1.2963	7.40	1.41	-0.750			
0.4681	29957.52	3.5180	3.5180	-1.3064	7.41	1.42	-0.750			
0.4720	30206.88	3.5150	3.5150	-1.3056	7.41	1.42	-0.750			
0.4760	30461.40	3.5120	3.5119	-1.3165	7.42	1.43	-0.750			
0.4799	30712.62	3.5090	3.5089	-1.3309	7.43	1.44	-0.750			
0.4839	30966.56	3.5060	3.5062	-1.3293	7.44	1.45	-0.750			
0.4880	31229.70	3.5030	3.5030	-1.3334	7.45	1.46	-0.750			
0.4920	31490.86	3.5000	3.4999	-1.3208	7.45	1.46	-0.750			
0.4959	31738.39	3.4970	3.4972	-1.3004	7.46	1.47	-0.750			
0.4998	31990.13	3.4940	3.4941	-1.2965	7.47	1.48	-0.750			
0.5037	32234.59	3.4910	3.4909	-1.2794	7.48	1.49	-0.750			
0.5074	32475.54	3.4880	3.4879	-1.2673	7.49	1.50	-0.750			
0.5112	32718.76	3.4850	3.4850	-1.2677	7.50	1.51	-0.750			
0.5150	32960.95	3.4820	3.4820	-1.2680	7.51	1.52	-0.750			
0.5188	33204.74	3.4790	3.4789	-1.2760	7.52	1.53	-0.750			
0.5226	33447.56	3.4760	3.4760	-1.2769	7.53	1.54	-0.750			
0.5265	33694.50	3.4730	3.4730	-1.2806	7.53	1.54	-0.750			
0.5304	33943.50	3.4700	3.4699	-1.2774	7.54	1.55	-0.750			
0.5343	34193.16	3.4670	3.4670	-1.2759	7.55	1.56	-0.750			
0.5380	34435.07	3.4640	3.4641	-1.2599	7.57	1.58	-0.750			
0.5418	34675.99	3.4610	3.4609	-1.2446	7.58	1.59	-0.750			
0.5455	34909.61	3.4580	3.4582	-1.2300	7.59	1.60	-0.750			
0.5491	35144.68	3.4550	3.4550	-1.2292	7.60	1.61	-0.750			
0.5528	35382.27	3.4520	3.4519	-1.2240	7.61	1.62	-0.750			
0.5565	35616.27	3.4490	3.4489	-1.2212	7.63	1.64	-0.750			
0.5602	35851.14	3.4460	3.4460	-1.2137	7.64	1.65	-0.750			
0.5638	36083.33	3.4430	3.4430	-1.1986	7.64	1.65	-0.750			
0.5674	36314.03	3.4400	3.4399	-1.1893	7.65	1.66	-0.750			
0.5709	36538.40	3.4370	3.4371	-1.1722	7.66	1.67	-0.750			
0.5744	36764.47	3.4340	3.4340	-1.1574	7.68	1.69	-0.750			
0.5779	36986.72	3.4310	3.4310	-1.1429	7.69	1.70	-0.750			
0.5813	37204.04	3.4280	3.4280	-1.1204	7.70	1.71	-0.750			
0.5846	37416.57	3.4250	3.4250	-1.1135	7.72	1.73	-0.750			
0.5879	37628.31	3.4220	3.4220	-1.1009	7.73	1.74	-0.750			
0.5912	37836.38	3.4190	3.4188	-1.0903	7.74	1.75	-0.750			
0.5944	38044.39	3.4160	3.4161	-1.0860	7.75	1.76	-0.750			
0.5977	38255.56	3.4130	3.4129	-1.0832	7.76	1.77	-0.750			
0.6010	38466.87	3.4100	3.4100	-1.0673	7.78	1.79	-0.750			
0.6042	38671.32	3.4070	3.4069	-1.0450	7.79	1.80	-0.750			
0.6073	38866.92	3.4040	3.4042	-1.0168	7.81	1.82	-0.750			
0.6103	39061.19	3.4010	3.4010	-1.0018	7.82	1.83	-0.750			
0.6133	39251.78	3.3980	3.3979	-0.9729	7.83	1.84	-0.750			
0.6162	39433.98	3.3950	3.3950	-0.9498	7.84	1.85	-0.750			
0.6190	39614.48	3.3920	3.3920	-0.9338	7.85	1.86	-0.750			
0.6218	39795.80	3.3890	3.3890	-0.9191	7.87	1.88	-0.750			
0.6245	39968.06	3.3860	3.3859	-0.9020	7.88	1.89	-0.750			
0.6271	40136.94	3.3830	3.3830	-0.8881	7.89	1.90	-0.750			
0.6298	40305.90	3.3800	3.3800	-0.8717	7.91	1.92	-0.750			
0.6324	40476.39	3.3770	3.3768	-0.8609	7.92	1.93	-0.750			
0.6350	40640.94	3.3740	3.3740	-0.8367	7.93	1.94	-0.750			
0.6375	40800.25	3.3710	3.3712	-0.8154	7.94	1.95	-0.750			
0.6399	40955.77	3.3680	3.3679	-0.7923	7.95	1.96	-0.750			
0.6422	41103.04	3.3650	3.3649	-0.7676	7.96	1.97	-0.750			
0.6445	41246.02	3.3620	3.3621	-0.7480	7.98	1.99	-0.750			
0.6467	41387.67	3.3590	3.3589	-0.7383	7.99	2.00	-0.750			
0.6489	41530.27	3.3560	3.3559	-0.7247	8.00	2.01	-0.750			
0.6511	41668.57	3.3530	3.3532	-0.7117	8.02	2.03	-0.750			
0.6532	41804.04	3.3500	3.3499	-0.6966	8.03	2.04	-0.750			
0.6553	41936.58	3.3470	3.3470	-0.6835	8.04	2.05	-0.750			
0.6573	42065.52	3.3440	3.3441	-0.6638	8.06	2.07	-0.750			
0.6592	42190.89	3.3410	3.3409	-0.6498	8.07	2.08	-0.750			
0.6612	42314.12	3.3380	3.3380	-0.6356	8.08	2.09	-0.750			
0.6631	42435.48	3.3350	3.3351	-0.6245	8.09	2.10	-0.750			
0.6649	42552.94	3.3320	3.3320	-0.6099	8.10	2.11	-0.750			
0.6667	42670.09	3.3290	3.3290	-0.6001	8.12	2.13	-0.750			
0.6685	42783.67	3.3260	3.3260	-0.5877	8.13	2.14	-0.750			
0.6703	42896.05	3.3230	3.3230	-0.5771	8.14	2.15	-0.750			
0.6719	43004.45	3.3200	3.3200	-0.5666	8.15	2.16	-0.750			
0.6736	43112.09	3.3170	3.3168	-0.5577	8.16	2.17	-0.750			
0.6753	43219.09	3.3140	3.3140	-0.5452	8.18	2.19	-0.750			
0.6769	43323.20	3.3110	3.3110	-0.5320	8.19	2.20	-0.750			
0.6785	43424.78	3.3080	3.3081	-0.5197	8.20	2.21	-0.750			
0.6801	43523.32	3.3050	3.3050	-0.5055	8.21	2.22	-0.750			
0.6815	43617.53	3.3020	3.3020	-0.4931	8.22	2.23	-0.750			
0.6830	43710.12	3.2990	3.2990	-0.4819	8.23	2.24	-0.750			
0.6844	43800.83	3.2960	3.2959	-0.4727	8.24	2.25	-0.750			
0.6858	43891.32	3.2930	3.2930	-0.4658	8.25	2.26	-0.750			
0.6872	43979.99	3.2900	3.2901	-0.4596	8.26	2.27	-0.750			
0.6886	44067.30	3.2870	3.2870	-0.4539	8.28	2.29	-0.750			
0.6899	44154.72	3.2840	3.2839	-0.4482	8.29	2.30	-0.750			
0.6912	44239.48	3.2810	3.2810	-0.4393	8.30	2.31	-0.750			
0.6926	44323.79	3.2780	3.2780	-0.4341	8.31	2.32	-0.750			
0.6939	44407.18	3.2750	3.2751	-0.4259	8.32	2.33	-0.750			
0.6951	44488.09	3.2720	3.2720	-0.4172	8.33	2.34	-0.750			
0.6964	44566.70	3.2690	3.2689	-0.4070	8.34	2.35	-0.750			
0.6976	44643.30	3.2660	3.2660	-0.3981	8.35	2.36	-0.750			
0.6987	44718.23	3.2630	3.2630	-0.3948	8.36	2.37	-0.750			
0.6999	44792.98	3.2600	3.2599	-0.3907	8.37	2.38	-0.750			
0.7011	44868.22	3.2570	3.2570	-0.3854	8.38	2.39	-0.750			
0.7022	44942.48	3.2540	3.2540	-0.3817	8.40	2.41	-0.750			
0.7034	45015.77	3.2510	3.2511	-0.3779	8.41	2.42	-0.750			
0.7045	45088.61	3.2480	3.2480	-0.3719	8.42	2.43	-0.750			
0.7056	45159.16	3.2450	3.2449	-0.3641	8.43	2.44	-0.750			
0.7067	45227.86	3.2420	3.2421	-0.3555	8.44	2.45	-0.750			
0.7077	45295.71	3.2390	3.2391	-0.3479	8.44	2.45	-0.750			
0.7088	45361.32	3.2360	3.2360	-0.3443	8.45	2.46	-0.750			
0.7098	45426.13	3.2330	3.2330	-0.3384	8.46	2.47	-0.750			
0.7108	45490.46	3.2300	3.2299	-0.3335	8.47	2.48	-0.750			
0.7118	45554.73	3.2270	3.2270	-0.3290	8.48	2.49	-0.750			
0.7128	45617.58	3.2240	3.2241	-0.3257	8.49	2.50	-0.750			
0.7138	45680.19	3.2210	3.2210	-0.3203	8.50	2.51	-0.750			
0.7147	45741.24	3.2180	3.2180	-0.3160	8.52	2.53	-0.750			
0.7156	45800.92	3.2150	3.2150	-0.3089	8.53	2.54	-0.750			
0.7166	45859.60	3.2120	3.2120	-0.3053	8.54	2.55	-0.750			
0.7175	45917.78	3.2090	3.2089	-0.3026	8.55	2.56	-0.750			
0.7184	45975.56	3.2060	3.2060	-0.2996	8.56	2.57	-0.750			
0.7193	46032.53	3.2030	3.2029	-0.2940	8.57	2.58	-0.750			
0.7201	46088.84	3.2000	3.2001	-0.2930	8.58	2.59	-0.750			
0.7210	46144.11	3.1970	3.1970	-0.2915	8.59	2.60	-0.750			
0.7219	46200.15	3.1940	3.1939	-0.2899	8.60	2.61	-0.750			
0.7227	46255.75	3.1910	3.1909	-0.2861	8.61	2.62	-0.750			
0.7236	46310.79	3.1880	3.1881	-0.2834	8.62	2.63	-0.750			
0.7245	46365.84	3.1850	3.1851	-0.2815	8.63	2.64	-0.750			
0.7253	46419.92	3.1820	3.1820	-0.2772	8.64	2.65	-0.750			
0.7261	46471.59	3.1790	3.1791	-0.2706	8.65	2.66	-0.750			
0.7269	46522.83	3.1760	3.1760	-0.2670	8.66	2.67	-0.750			
0.7277	46573.93	3.1730	3.1730	-0.2640	8.66	2.67	-0.750			
0.7285	46624.18	3.1700	3.1700	-0.2609	8.67	2.68	-0.750			
0.7293	46673.72	3.1670	3.1670	-0.2590	8.68	2.69	-0.750			
0.7300	46723.01	3.1640	3.1641	-0.2577	8.69	2.70	-0.750			
0.7308	46772.58	3.1610	3.1610	-0.2558	8.70	2.71	-0.750			
0.7316	46821.98	3.1580	3.1579	-0.2530	8.71	2.72	-0.750			
0.7323	46870.13	3.1550	3.1551	-0.2503	8.71	2.72	-0.750			
0.7331	46918.56	3.1520	3.1521	-0.2483	8.72	2.73	-0.750			
0.7338	46965.35	3.1490	3.1491	-0.2454	8.73	2.74	-0.750			
0.7346	47012.18	3.1460	3.1459	-0.2422	8.74	2.75	-0.750			
0.7353	47057.98	3.1430	3.1431	-0.2389	8.75	2.76	-0.750			
0.7360	47103.71	3.1400	3.1399	-0.2355	8.76	2.77	-0.750			
0.7367	47148.74	3.1370	3.1371	-0.2345	8.77	2.78	-0.750			
0.7374	47193.87	3.1340	3.1341	-0.2325	8.78	2.79	-0.750			
0.7381	47237.70	3.1310	3.1310	-0.2297	8.79	2.80	-0.750			
0.7388	47281.24	3.1280	3.1279	-0.2297	8.80	2.81	-0.750			
0.7395	47325.08	3.1250	3.1251	-0.2279	8.81	2.82	-0.750			
0.7401	47369.36	3.1220	3.1219	-0.2263	8.82	2.83	-0.750			
0.7408	47413.28	3.1190	3.1189	-0.2255	8.82	2.83	-0.750			
0.7415	47457.05	3.1160	3.1159	-0.2232	8.83	2.84	-0.750			
0.7422	47499.13	3.1130	3.1130	-0.2205	8.84	2.85	-0.750			
0.7428	47541.17	3.1100	3.1100	-0.2183	8.85	2.86	-0.750			
0.7435	47582.86	3.1070	3.1070	-0.2161	8.86	2.87	-0.750			
0.7441	47623.54	3.1040	3.1039	-0.2133	8.86	2.87	-0.750			
0.7448	47664.40	3.1010	3.1011	-0.2123	8.87	2.88	-0.750			
0.7454	47705.10	3.0980	3.0980	-0.2119	8.88	2.89	-0.750			
0.7460	47745.66	3.0950	3.0950	-0.2107	8.89	2.90	-0.750			
0.7467	47786.02	3.0920	3.0920	-0.2091	8.90	2.91	-0.750			
0.7473	47825.78	3.0890	3.0890	-0.2075	8.91	2.92	-0.750			
0.7479	47866.00	3.0860	3.0859	-0.2060	8.92	2.93	-0.750			
0.7485	47905.70	3.0830	3.0831	-0.2044	8.93	2.94	-0.750			
0.7491	47944.51	3.0800	3.0799	-0.2027	8.93	2.94	-0.750			
0.7497	47982.96	3.0770	3.0771	-0.2011	8.94	2.95	-0.750			
0.7503	48021.19	3.0740	3.0739	-0.1995	8.95	2.96	-0.750			
0.7509	48059.41	3.0710	3.0710	-0.1987	8.96	2.97	-0.750			
0.7515	48097.51	3.0680	3.0679	-0.1975	8.97	2.98	-0.750			
0.7521	48135.31	3.0650	3.0650	-0.1962	8.98	2.99	-0.750			
0.7527	48172.96	3.0620	3.0619	-0.1961	8.99	3.00	-0.750			
0.7533	48210.50	3.0590	3.0589	-0.1949	9.00	3.01	-0.750			
0.7539	48247.81	3.0560	3.0560	-0.1927	9.01	3.02	-0.750			
0.7544	48284.69	3.0530	3.0529	-0.1913	9.02	3.03	-0.750			
0.7550	48321.05	3.0500	3.0501	-0.1904	9.02	3.03	-0.750			
0.7556	48357.51	3.0470	3.0471	-0.1894	9.03	3.04	-0.750			
0.7561	48393.57	3.0440	3.0439	-0.1891	9.04	3.05	-0.750			
0.7567	48430.04	3.0410	3.0410	-0.1876	9.05	3.06	-0.750			
0.7573	48465.80	3.0380	3.0380	-0.1865	9.06	3.07	-0.750			
0.7578	48501.57	3.0350	3.0350	-0.1858	9.07	3.08	-0.750			
0.7584	48537.53	3.0320	3.0321	-0.1860	9.08	3.09	-0.750			
0.7590	48573.14	3.0290	3.0289	-0.1847	9.09	3.10	-0.750			
0.7595	48608.48	3.0260	3.0259	-0.1835	9.10	3.11	-0.750			
0.7601	48643.24	3.0230	3.0230	-0.1831	9.11	3.12	-0.750			
0.7606	48678.45	3.0200	3.0201	-0.1818	9.12	3.13	-0.750			
0.7612	48713.84	3.0170	3.0170	-0.1815	9.13	3.14	-0.750			
0.7617	48748.51	3.0140	3.0140	-0.1796	9.14	3.15	-0.750			
0.7622	48782.59	3.0110	3.0111	-0.1803	9.15	3.16	-0.750			
0.7628	48816.84	3.0080	3.0080	-0.1803	9.16	3.17	-0.750			
0.7633	48851.43	3.0050	3.0048	-0.1816	9.17	3.18	-0.750			
0.7639	48886.42	3.0020	3.0020	-0.1829	9.18	3.19	-0.750			
