Ah_balance (normalized)	Ah_balance (mAh)	Voltage - fit (V)	Voltage -  interpolate (V)	dQ/dV (1/V)	Temperature (°C)	Temperature - diff (°C)	Current (C)	R_DC 0ms (mOhm)	R_DC 50ms (mOhm)	R_DC 50 ms PEC (mOhm)
0.0000	0.00	4.0970	4.1276	0.0000	5.99	-0.00	-0.750			
0.0000	0.00	4.1000	4.1276	0.0000	5.99	-0.00	-0.750			
0.0001	7.31	4.0940	4.0951	-0.0315	5.99	-0.00	-0.750			
0.0003	16.09	4.0910	4.0909	-0.0600	5.99	-0.00	-0.750			
0.0005	31.35	4.0880	4.0878	-0.0867	5.99	-0.00	-0.750			
0.0008	50.97	4.0850	4.0848	-0.1126	5.99	-0.00	-0.750			
0.0012	75.43	4.0820	4.0820	-0.1376	5.99	-0.00	-0.750			
0.0016	104.36	4.0790	4.0790	-0.1630	5.99	-0.00	-0.750			
0.0022	138.27	4.0760	4.0761	-0.1856	5.99	-0.00	-0.750			
0.0028	177.87	4.0730	4.0730	-0.2102	5.99	-0.00	-0.750			
0.0034	220.41	4.0700	4.0700	-0.2324	5.99	-0.00	-0.750			
0.0042	267.29	4.0670	4.0670	-0.2538	5.99	-0.00	-0.750			
0.0050	318.02	4.0640	4.0639	-0.2764	5.99	0.00	-0.750			
0.0058	373.26	4.0610	4.0610	-0.2961	5.99	0.00	-0.750			
0.0068	432.13	4.0580	4.0581	-0.3170	5.99	0.00	-0.750			
0.0077	494.32	4.0550	4.0550	-0.3422	5.99	0.00	-0.750			
0.0088	562.41	4.0520	4.0519	-0.3669	5.99	0.00	-0.750			
0.0099	635.01	4.0490	4.0489	-0.3874	5.99	0.00	-0.750			
0.0111	711.70	4.0460	4.0461	-0.4105	6.00	0.01	-0.750			
0.0124	793.38	4.0430	4.0431	-0.4337	6.00	0.01	-0.750			
0.0137	879.63	4.0400	4.0398	-0.4551	6.00	0.01	-0.750			
0.0151	969.20	4.0370	4.0370	-0.4735	6.00	0.01	-0.750			
0.0166	1061.50	4.0340	4.0340	-0.4903	6.00	0.01	-0.750			
0.0181	1157.43	4.0310	4.0310	-0.5131	6.00	0.01	-0.750			
0.0197	1258.12	4.0280	4.0281	-0.5342	6.00	0.01	-0.750			
0.0213	1362.04	4.0250	4.0249	-0.5511	6.01	0.02	-0.750			
0.0230	1469.03	4.0220	4.0220	-0.5734	6.01	0.02	-0.750			
0.0247	1583.73	4.0190	4.0190	-0.5883	6.01	0.02	-0.750			
0.0265	1698.93	4.0160	4.0160	-0.6004	6.02	0.03	-0.750			
0.0284	1816.09	4.0130	4.0129	-0.6136	6.02	0.03	-0.750			
0.0302	1934.52	4.0100	4.0101	-0.6197	6.02	0.03	-0.750			
0.0321	2054.14	4.0070	4.0069	-0.6288	6.03	0.04	-0.750			
0.0340	2175.90	4.0040	4.0039	-0.6362	6.03	0.04	-0.750			
0.0359	2297.68	4.0010	4.0011	-0.6508	6.04	0.05	-0.750			
0.0379	2425.97	3.9980	3.9980	-0.6656	6.04	0.05	-0.750			
0.0399	2555.14	3.9950	3.9948	-0.6754	6.04	0.05	-0.750			
0.0420	2686.06	3.9920	3.9923	-0.6824	6.05	0.06	-0.750			
0.0441	2819.45	3.9890	3.9890	-0.6896	6.06	0.07	-0.750			
0.0461	2951.75	3.9860	3.9860	-0.6910	6.07	0.08	-0.750			
0.0482	3084.67	3.9830	3.9830	-0.6922	6.07	0.08	-0.750			
0.0503	3218.66	3.9800	3.9800	-0.6922	6.08	0.09	-0.750			
0.0523	3349.56	3.9770	3.9769	-0.6949	6.09	0.10	-0.750			
0.0544	3481.56	3.9740	3.9741	-0.7018	6.10	0.11	-0.750			
0.0565	3616.93	3.9710	3.9709	-0.7115	6.11	0.12	-0.750			
0.0587	3755.93	3.9680	3.9678	-0.7163	6.11	0.12	-0.750			
0.0609	3894.77	3.9650	3.9651	-0.7213	6.12	0.13	-0.750			
0.0630	4034.90	3.9620	3.9621	-0.7268	6.13	0.14	-0.750			
0.0653	4176.01	3.9590	3.9589	-0.7252	6.13	0.14	-0.750			
0.0674	4314.10	3.9560	3.9560	-0.7180	6.14	0.15	-0.750			
0.0695	4449.16	3.9530	3.9531	-0.7160	6.15	0.16	-0.750			
0.0716	4585.39	3.9500	3.9501	-0.7268	6.15	0.16	-0.750			
0.0739	4726.53	3.9470	3.9469	-0.7295	6.16	0.17	-0.750			
0.0760	4866.80	3.9440	3.9439	-0.7319	6.17	0.18	-0.750			
0.0782	5006.78	3.9410	3.9411	-0.7383	6.18	0.19	-0.750			
0.0805	5150.21	3.9380	3.9380	-0.7498	6.18	0.19	-0.750			
0.0827	5295.73	3.9350	3.9349	-0.7509	6.20	0.21	-0.750			
0.0850	5439.06	3.9320	3.9319	-0.7490	6.21	0.22	-0.750			
0.0872	5583.50	3.9290	3.9291	-0.7530	6.22	0.23	-0.750			
0.0895	5731.02	3.9260	3.9260	-0.7494	6.23	0.24	-0.750			
0.0918	5874.70	3.9230	3.9230	-0.7437	6.24	0.25	-0.750			
0.0940	6014.12	3.9200	3.9200	-0.7461	6.25	0.26	-0.750			
0.0962	6154.00	3.9170	3.9169	-0.7479	6.26	0.27	-0.750			
0.0984	6298.74	3.9140	3.9139	-0.7590	6.27	0.28	-0.750			
0.1007	6445.56	3.9110	3.9110	-0.7635	6.28	0.29	-0.750			
0.1031	6597.06	3.9080	3.9080	-0.7651	6.29	0.30	-0.750			
0.1054	6745.45	3.9050	3.9050	-0.7680	6.30	0.31	-0.750			
0.1077	6891.82	3.9020	3.9021	-0.7655	6.31	0.32	-0.750			
0.1100	7037.74	3.8990	3.8989	-0.7578	6.32	0.33	-0.750			
0.1122	7181.87	3.8960	3.8958	-0.7545	6.32	0.33	-0.750			
0.1145	7324.97	3.8930	3.8931	-0.7591	6.33	0.34	-0.750			
0.1168	7472.38	3.8900	3.8900	-0.7643	6.34	0.35	-0.750			
0.1190	7619.12	3.8870	3.8869	-0.7658	6.35	0.36	-0.750			
0.1213	7763.54	3.8840	3.8841	-0.7702	6.36	0.37	-0.750			
0.1237	7914.02	3.8810	3.8811	-0.7739	6.37	0.38	-0.750			
0.1260	8062.63	3.8780	3.8778	-0.7845	6.38	0.39	-0.750			
0.1284	8216.48	3.8750	3.8750	-0.7805	6.39	0.40	-0.750			
0.1307	8366.71	3.8720	3.8719	-0.7756	6.41	0.42	-0.750			
0.1331	8515.76	3.8690	3.8691	-0.7838	6.42	0.43	-0.750			
0.1354	8666.08	3.8660	3.8661	-0.7807	6.43	0.44	-0.750			
0.1377	8812.19	3.8630	3.8628	-0.7799	6.44	0.45	-0.750			
0.1401	8963.26	3.8600	3.8600	-0.7892	6.45	0.46	-0.750			
0.1424	9112.51	3.8570	3.8572	-0.7914	6.46	0.47	-0.750			
0.1448	9268.34	3.8540	3.8539	-0.8014	6.47	0.48	-0.750			
0.1473	9425.45	3.8510	3.8510	-0.7975	6.48	0.49	-0.750			
0.1497	9577.65	3.8480	3.8480	-0.7902	6.49	0.50	-0.750			
0.1520	9730.80	3.8450	3.8451	-0.7855	6.50	0.51	-0.750			
0.1544	9879.31	3.8420	3.8418	-0.7784	6.51	0.52	-0.750			
0.1566	10025.29	3.8390	3.8390	-0.7735	6.52	0.53	-0.750			
0.1589	10171.92	3.8360	3.8358	-0.7809	6.53	0.54	-0.750			
0.1613	10322.31	3.8330	3.8331	-0.7859	6.54	0.55	-0.750			
0.1637	10474.25	3.8300	3.8300	-0.7971	6.55	0.56	-0.750			
0.1661	10630.10	3.8270	3.8270	-0.8012	6.56	0.57	-0.750			
0.1685	10785.39	3.8240	3.8241	-0.8059	6.57	0.58	-0.750			
0.1709	10939.05	3.8210	3.8210	-0.8048	6.58	0.59	-0.750			
0.1733	11094.28	3.8180	3.8180	-0.8054	6.59	0.60	-0.750			
0.1758	11248.63	3.8150	3.8150	-0.7958	6.60	0.61	-0.750			
0.1781	11400.78	3.8120	3.8118	-0.7990	6.61	0.62	-0.750			
0.1805	11553.32	3.8090	3.8092	-0.7959	6.62	0.63	-0.750			
0.1829	11705.71	3.8060	3.8060	-0.8026	6.64	0.65	-0.750			
0.1853	11858.85	3.8030	3.8029	-0.8049	6.65	0.66	-0.750			
0.1877	12014.04	3.8000	3.8001	-0.8021	6.66	0.67	-0.750			
0.1902	12170.53	3.7970	3.7970	-0.8068	6.67	0.68	-0.750			
0.1926	12328.06	3.7940	3.7941	-0.8128	6.68	0.69	-0.750			
0.1950	12482.03	3.7910	3.7910	-0.8080	6.69	0.70	-0.750			
0.1974	12636.64	3.7880	3.7879	-0.8118	6.70	0.71	-0.750			
0.1999	12791.56	3.7850	3.7850	-0.8139	6.71	0.72	-0.750			
0.2023	12948.76	3.7820	3.7820	-0.8178	6.72	0.73	-0.750			
0.2048	13107.17	3.7790	3.7791	-0.8182	6.73	0.74	-0.750			
0.2073	13264.85	3.7760	3.7760	-0.8201	6.74	0.75	-0.750			
0.2097	13421.95	3.7730	3.7730	-0.8235	6.75	0.76	-0.750			
0.2122	13581.31	3.7700	3.7699	-0.8177	6.76	0.77	-0.750			
0.2147	13739.36	3.7670	3.7669	-0.8176	6.77	0.78	-0.750			
0.2171	13893.88	3.7640	3.7643	-0.8184	6.78	0.79	-0.750			
0.2195	14050.61	3.7610	3.7610	-0.8227	6.79	0.80	-0.750			
0.2220	14208.31	3.7580	3.7578	-0.8317	6.80	0.81	-0.750			
0.2245	14367.42	3.7550	3.7549	-0.8327	6.81	0.82	-0.750			
0.2271	14531.63	3.7520	3.7520	-0.8411	6.82	0.83	-0.750			
0.2296	14693.58	3.7490	3.7493	-0.8409	6.83	0.84	-0.750			
0.2321	14855.02	3.7460	3.7461	-0.8416	6.84	0.85	-0.750			
0.2346	15013.99	3.7430	3.7430	-0.8496	6.85	0.86	-0.750			
0.2371	15177.49	3.7400	3.7397	-0.8444	6.86	0.87	-0.750			
0.2397	15340.90	3.7370	3.7370	-0.8538	6.87	0.88	-0.750			
0.2423	15506.18	3.7340	3.7343	-0.8508	6.88	0.89	-0.750			
0.2449	15672.86	3.7310	3.7309	-0.8555	6.89	0.90	-0.750			
0.2474	15836.28	3.7280	3.7279	-0.8524	6.90	0.91	-0.750			
0.2499	15994.38	3.7250	3.7250	-0.8502	6.91	0.92	-0.750			
0.2525	16159.79	3.7220	3.7219	-0.8533	6.92	0.93	-0.750			
0.2551	16325.05	3.7190	3.7191	-0.8596	6.93	0.94	-0.750			
0.2576	16489.23	3.7160	3.7160	-0.8578	6.94	0.95	-0.750			
0.2602	16654.76	3.7130	3.7130	-0.8660	6.95	0.96	-0.750			
0.2628	16818.80	3.7100	3.7100	-0.8694	6.96	0.97	-0.750			
0.2654	16987.35	3.7070	3.7070	-0.8825	6.96	0.97	-0.750			
0.2681	17157.11	3.7040	3.7039	-0.8867	6.97	0.98	-0.750			
0.2708	17331.05	3.7010	3.7010	-0.8989	6.98	0.99	-0.750			
0.2735	17504.16	3.6980	3.6981	-0.8983	7.00	1.01	-0.750			
0.2762	17677.16	3.6950	3.6949	-0.9030	7.01	1.02	-0.750			
0.2789	17850.89	3.6920	3.6921	-0.9105	7.02	1.03	-0.750			
0.2816	18021.31	3.6890	3.6889	-0.9202	7.03	1.04	-0.750			
0.2844	18200.46	3.6860	3.6859	-0.9283	7.04	1.05	-0.750			
0.2872	18381.95	3.6830	3.6830	-0.9410	7.04	1.05	-0.750			
0.2901	18564.82	3.6800	3.6800	-0.9416	7.05	1.06	-0.750			
0.2930	18750.83	3.6770	3.6770	-0.9476	7.06	1.07	-0.750			
0.2958	18930.82	3.6740	3.6740	-0.9500	7.07	1.08	-0.750			
0.2986	19110.90	3.6710	3.6710	-0.9480	7.09	1.10	-0.750			
0.3014	19291.11	3.6680	3.6680	-0.9499	7.10	1.11	-0.750			
0.3043	19476.91	3.6650	3.6651	-0.9572	7.11	1.12	-0.750			
0.3072	19660.76	3.6620	3.6620	-0.9684	7.12	1.13	-0.750			
0.3101	19848.29	3.6590	3.6589	-0.9771	7.13	1.14	-0.750			
0.3131	20036.23	3.6560	3.6559	-0.9802	7.14	1.15	-0.750			
0.3160	20223.52	3.6530	3.6529	-0.9841	7.15	1.16	-0.750			
0.3190	20414.08	3.6500	3.6499	-0.9975	7.16	1.17	-0.750			
0.3220	20605.99	3.6470	3.6469	-1.0069	7.17	1.18	-0.750			
0.3250	20800.57	3.6440	3.6440	-1.0128	7.18	1.19	-0.750			
0.3280	20993.09	3.6410	3.6410	-1.0160	7.19	1.20	-0.750			
0.3311	21192.65	3.6380	3.6380	-1.0342	7.19	1.20	-0.750			
0.3343	21393.59	3.6350	3.6350	-1.0392	7.20	1.21	-0.750			
0.3374	21591.33	3.6320	3.6320	-1.0473	7.21	1.22	-0.750			
0.3405	21791.88	3.6290	3.6290	-1.0551	7.22	1.23	-0.750			
0.3437	21998.11	3.6260	3.6260	-1.0641	7.22	1.23	-0.750			
0.3470	22205.02	3.6230	3.6229	-1.0692	7.23	1.24	-0.750			
0.3501	22408.93	3.6200	3.6201	-1.0743	7.24	1.25	-0.750			
0.3534	22614.85	3.6170	3.6170	-1.0792	7.25	1.26	-0.750			
0.3566	22825.04	3.6140	3.6139	-1.0797	7.26	1.27	-0.750			
0.3599	23030.97	3.6110	3.6110	-1.0750	7.27	1.28	-0.750			
0.3631	23236.71	3.6080	3.6080	-1.0837	7.28	1.29	-0.750			
0.3663	23445.72	3.6050	3.6051	-1.0968	7.29	1.30	-0.750			
0.3696	23655.54	3.6020	3.6019	-1.1267	7.29	1.30	-0.750			
0.3729	23868.13	3.5990	3.5989	-1.1496	7.30	1.31	-0.750			
0.3765	24096.70	3.5960	3.5958	-1.1676	7.31	1.32	-0.750			
0.3801	24327.07	3.5930	3.5933	-1.1890	7.31	1.32	-0.750			
0.3838	24561.13	3.5900	3.5898	-1.2005	7.32	1.33	-0.750			
0.3874	24791.74	3.5870	3.5869	-1.1925	7.33	1.34	-0.750	0.397	0.851	
0.3909	25017.70	3.5840	3.5840	-1.1820	7.34	1.35	-0.750			
0.3945	25245.41	3.5810	3.5810	-1.1858	7.35	1.36	-0.750			
0.3979	25467.46	3.5780	3.5779	-1.1792	7.35	1.36	-0.750			
0.4015	25698.18	3.5750	3.5750	-1.1882	7.36	1.37	-0.750			
0.4051	25924.38	3.5720	3.5721	-1.1878	7.37	1.38	-0.750			
0.4086	26153.20	3.5690	3.5690	-1.2039	7.37	1.38	-0.750			
0.4122	26383.38	3.5660	3.5661	-1.2221	7.38	1.39	-0.750			
0.4159	26615.96	3.5630	3.5630	-1.2414	7.38	1.39	-0.750			
0.4197	26859.57	3.5600	3.5598	-1.2512	7.39	1.40	-0.750			
0.4235	27103.93	3.5570	3.5569	-1.2572	7.40	1.41	-0.750			
0.4273	27348.01	3.5540	3.5542	-1.2716	7.41	1.42	-0.750			
0.4311	27592.73	3.5510	3.5510	-1.2671	7.42	1.43	-0.750			
0.4349	27831.61	3.5480	3.5479	-1.2730	7.43	1.44	-0.750			
0.4387	28074.73	3.5450	3.5449	-1.2927	7.43	1.44	-0.750			
0.4425	28321.27	3.5420	3.5421	-1.3107	7.44	1.45	-0.750			
0.4466	28582.83	3.5390	3.5389	-1.3233	7.45	1.46	-0.750			
0.4507	28841.91	3.5360	3.5360	-1.3358	7.45	1.46	-0.750			
0.4547	29098.32	3.5330	3.5332	-1.3359	7.46	1.47	-0.750			
0.4587	29358.37	3.5300	3.5299	-1.3362	7.47	1.48	-0.750			
0.4627	29611.83	3.5270	3.5269	-1.3248	7.48	1.49	-0.750			
0.4666	29862.05	3.5240	3.5242	-1.3276	7.49	1.50	-0.750			
0.4706	30119.33	3.5210	3.5209	-1.3378	7.50	1.51	-0.750			
0.4746	30377.31	3.5180	3.5180	-1.3471	7.51	1.52	-0.750			
0.4787	30635.44	3.5150	3.5152	-1.3501	7.53	1.54	-0.750			
0.4828	30896.55	3.5120	3.5119	-1.3512	7.54	1.55	-0.750			
0.4869	31162.15	3.5090	3.5090	-1.3484	7.55	1.56	-0.750			
0.4909	31419.54	3.5060	3.5062	-1.3450	7.56	1.57	-0.750			
0.4949	31675.55	3.5030	3.5029	-1.3290	7.56	1.57	-0.750			
0.4989	31931.79	3.5000	3.5000	-1.3300	7.57	1.58	-0.750			
0.5029	32182.69	3.4970	3.4970	-1.3347	7.58	1.59	-0.750			
0.5069	32438.42	3.4940	3.4939	-1.3275	7.59	1.60	-0.750			
0.5109	32700.06	3.4910	3.4909	-1.3285	7.60	1.61	-0.750			
0.5149	32953.93	3.4880	3.4879	-1.3206	7.60	1.61	-0.750			
0.5188	33205.42	3.4850	3.4851	-1.3065	7.62	1.63	-0.750			
0.5228	33456.32	3.4820	3.4820	-1.3158	7.63	1.64	-0.750			
0.5267	33706.95	3.4790	3.4789	-1.3037	7.64	1.65	-0.750			
0.5306	33955.84	3.4760	3.4760	-1.2989	7.65	1.66	-0.750			
0.5345	34210.89	3.4730	3.4730	-1.3004	7.66	1.67	-0.750			
0.5385	34461.63	3.4700	3.4701	-1.3028	7.67	1.68	-0.750			
0.5423	34709.96	3.4670	3.4671	-1.2993	7.68	1.69	-0.750			
0.5462	34958.07	3.4640	3.4639	-1.2942	7.70	1.71	-0.750			
0.5501	35206.89	3.4610	3.4609	-1.2711	7.71	1.72	-0.750			
0.5539	35451.40	3.4580	3.4581	-1.2741	7.73	1.74	-0.750			
0.5578	35696.61	3.4550	3.4550	-1.2515	7.74	1.75	-0.750			
0.5614	35932.80	3.4520	3.4520	-1.2292	7.75	1.76	-0.750			
0.5650	36162.42	3.4490	3.4488	-1.2113	7.76	1.77	-0.750			
0.5686	36393.16	3.4460	3.4461	-1.2100	7.78	1.79	-0.750			
0.5723	36626.53	3.4430	3.4429	-1.2032	7.79	1.80	-0.750			
0.5759	36858.08	3.4400	3.4400	-1.2055	7.80	1.81	-0.750			
0.5795	37089.06	3.4370	3.4371	-1.2169	7.81	1.82	-0.750			
0.5832	37322.17	3.4340	3.4339	-1.1975	7.83	1.84	-0.750			
0.5868	37553.35	3.4310	3.4308	-1.1849	7.84	1.85	-0.750			
0.5903	37780.33	3.4280	3.4281	-1.1627	7.86	1.87	-0.750			
0.5938	38002.27	3.4250	3.4251	-1.1522	7.88	1.89	-0.750			
0.5972	38222.93	3.4220	3.4219	-1.1321	7.89	1.90	-0.750			
0.6005	38434.57	3.4190	3.4188	-1.1189	7.90	1.91	-0.750			
0.6038	38643.50	3.4160	3.4162	-1.1029	7.91	1.92	-0.750			
0.6072	38858.59	3.4130	3.4129	-1.0948	7.92	1.93	-0.750			
0.6105	39070.95	3.4100	3.4099	-1.0749	7.94	1.95	-0.750			
0.6137	39278.54	3.4070	3.4071	-1.0413	7.95	1.96	-0.750			
0.6168	39473.75	3.4040	3.4041	-1.0091	7.97	1.98	-0.750			
0.6198	39665.06	3.4010	3.4010	-0.9958	7.98	1.99	-0.750			
0.6227	39850.74	3.3980	3.3980	-0.9701	8.00	2.01	-0.750			
0.6255	40032.01	3.3950	3.3948	-0.9517	8.01	2.02	-0.750			
0.6283	40213.65	3.3920	3.3920	-0.9433	8.02	2.03	-0.750			
0.6312	40395.64	3.3890	3.3889	-0.9385	8.04	2.05	-0.750			
0.6340	40576.43	3.3860	3.3859	-0.9196	8.05	2.06	-0.750			
0.6368	40753.72	3.3830	3.3830	-0.8923	8.07	2.08	-0.750			
0.6394	40921.70	3.3800	3.3801	-0.8663	8.09	2.10	-0.750			
0.6420	41087.88	3.3770	3.3769	-0.8473	8.10	2.11	-0.750			
0.6445	41245.29	3.3740	3.3740	-0.8257	8.11	2.12	-0.750			
0.6469	41399.34	3.3710	3.3708	-0.8109	8.13	2.14	-0.750			
0.6493	41552.54	3.3680	3.3680	-0.7937	8.14	2.15	-0.750			
0.6517	41706.11	3.3650	3.3648	-0.7824	8.15	2.16	-0.750			
0.6540	41856.84	3.3620	3.3621	-0.7653	8.17	2.18	-0.750			
0.6563	42003.39	3.3590	3.3590	-0.7430	8.18	2.19	-0.750			
0.6585	42142.84	3.3560	3.3560	-0.7203	8.20	2.21	-0.750			
0.6606	42277.84	3.3530	3.3530	-0.7031	8.21	2.22	-0.750			
0.6626	42408.08	3.3500	3.3500	-0.6822	8.22	2.23	-0.750			
0.6647	42539.24	3.3470	3.3469	-0.6655	8.23	2.24	-0.750			
0.6666	42664.42	3.3440	3.3440	-0.6487	8.25	2.26	-0.750			
0.6686	42787.50	3.3410	3.3411	-0.6387	8.26	2.27	-0.750			
0.6704	42908.13	3.3380	3.3380	-0.6269	8.27	2.28	-0.750			
0.6723	43025.42	3.3350	3.3349	-0.6137	8.29	2.30	-0.750			
0.6741	43142.93	3.3320	3.3320	-0.6047	8.30	2.31	-0.750			
0.6759	43260.14	3.3290	3.3290	-0.5929	8.31	2.32	-0.750			
0.6777	43372.84	3.3260	3.3260	-0.5829	8.33	2.34	-0.750			
0.6794	43483.00	3.3230	3.3232	-0.5690	8.34	2.35	-0.750			
0.6811	43590.54	3.3200	3.3199	-0.5572	8.35	2.36	-0.750			
0.6828	43696.50	3.3170	3.3169	-0.5422	8.36	2.37	-0.750			
0.6844	43799.74	3.3140	3.3141	-0.5304	8.37	2.38	-0.750			
0.6860	43901.20	3.3110	3.3110	-0.5201	8.39	2.40	-0.750			
0.6875	44000.01	3.3080	3.3080	-0.5070	8.40	2.41	-0.750			
0.6890	44093.56	3.3050	3.3049	-0.4911	8.41	2.42	-0.750			
0.6904	44186.64	3.3020	3.3020	-0.4851	8.42	2.43	-0.750			
0.6919	44278.71	3.2990	3.2990	-0.4750	8.43	2.44	-0.750			
0.6933	44369.10	3.2960	3.2959	-0.4719	8.44	2.45	-0.750			
0.6947	44459.23	3.2930	3.2931	-0.4658	8.45	2.46	-0.750			
0.6961	44549.05	3.2900	3.2900	-0.4580	8.47	2.48	-0.750			
0.6975	44636.80	3.2870	3.2870	-0.4505	8.48	2.49	-0.750			
0.6988	44723.11	3.2840	3.2841	-0.4371	8.49	2.50	-0.750			
0.7001	44805.33	3.2810	3.2811	-0.4283	8.50	2.51	-0.750			
0.7014	44886.87	3.2780	3.2780	-0.4189	8.51	2.52	-0.750			
0.7026	44965.16	3.2750	3.2748	-0.4064	8.52	2.53	-0.750			
0.7038	45041.18	3.2720	3.2720	-0.4012	8.53	2.54	-0.750			
0.7050	45117.69	3.2690	3.2691	-0.3965	8.54	2.55	-0.750			
0.7061	45193.40	3.2660	3.2660	-0.3924	8.56	2.57	-0.750			
0.7073	45269.57	3.2630	3.2629	-0.3875	8.57	2.58	-0.750			
0.7085	45342.49	3.2600	3.2601	-0.3789	8.58	2.59	-0.750			
0.7096	45415.62	3.2570	3.2570	-0.3748	8.59	2.60	-0.750			
0.7107	45486.65	3.2540	3.2541	-0.3696	8.60	2.61	-0.750			
0.7118	45556.43	3.2510	3.2509	-0.3617	8.61	2.62	-0.750			
0.7129	45625.72	3.2480	3.2480	-0.3546	8.62	2.63	-0.750			
0.7139	45692.54	3.2450	3.2451	-0.3514	8.63	2.64	-0.750			
0.7150	45760.22	3.2420	3.2421	-0.3487	8.64	2.65	-0.750			
0.7160	45826.12	3.2390	3.2389	-0.3445	8.65	2.66	-0.750			
0.7171	45891.95	3.2360	3.2361	-0.3387	8.66	2.67	-0.750			
0.7181	45956.60	3.2330	3.2331	-0.3341	8.67	2.68	-0.750			
0.7191	46020.76	3.2300	3.2299	-0.3295	8.68	2.69	-0.750			
0.7201	46084.48	3.2270	3.2270	-0.3241	8.69	2.70	-0.750			
0.7210	46145.18	3.2240	3.2240	-0.3162	8.70	2.71	-0.750			
0.7220	46205.41	3.2210	3.2210	-0.3107	8.71	2.72	-0.750			
0.7229	46264.18	3.2180	3.2181	-0.3046	8.72	2.73	-0.750			
0.7238	46322.31	3.2150	3.2150	-0.3024	8.73	2.74	-0.750			
0.7247	46379.68	3.2120	3.2121	-0.2986	8.74	2.75	-0.750			
0.7256	46436.64	3.2090	3.2089	-0.2939	8.75	2.76	-0.750			
0.7264	46492.70	3.2060	3.2061	-0.2906	8.76	2.77	-0.750			
0.7273	46548.37	3.2030	3.2032	-0.2867	8.77	2.78	-0.750			
0.7282	46602.71	3.2000	3.2000	-0.2844	8.78	2.79	-0.750			
0.7290	46656.84	3.1970	3.1969	-0.2814	8.79	2.80	-0.750			
0.7299	46710.55	3.1940	3.1940	-0.2779	8.79	2.80	-0.750			
0.7307	46764.03	3.1910	3.1910	-0.2755	8.80	2.81	-0.750			
0.7315	46816.95	3.1880	3.1881	-0.2731	8.81	2.82	-0.750			
0.7323	46869.11	3.1850	3.1850	-0.2693	8.82	2.83	-0.750			
0.7331	46920.57	3.1820	3.1819	-0.2656	8.83	2.84	-0.750			
0.7339	46970.33	3.1790	3.1790	-0.2611	8.84	2.85	-0.750			
0.7347	47020.37	3.1760	3.1760	-0.2596	8.85	2.86	-0.750			
0.7355	47070.25	3.1730	3.1730	-0.2573	8.86	2.87	-0.750			
0.7362	47119.00	3.1700	3.1699	-0.2553	8.87	2.88	-0.750			
0.7370	47167.78	3.1670	3.1671	-0.2528	8.88	2.89	-0.750			
0.7378	47216.30	3.1640	3.1640	-0.2515	8.89	2.90	-0.750			
0.7385	47264.55	3.1610	3.1609	-0.2499	8.90	2.91	-0.750			
0.7393	47312.63	3.1580	3.1580	-0.2465	8.91	2.92	-0.750			
0.7400	47359.71	3.1550	3.1550	-0.2432	8.92	2.93	-0.750			
0.7407	47406.39	3.1520	3.1520	-0.2399	8.92	2.93	-0.750			
0.7414	47451.60	3.1490	3.1491	-0.2362	8.93	2.94	-0.750			
0.7421	47496.41	3.1460	3.1460	-0.2341	8.94	2.95	-0.750			
0.7428	47540.47	3.1430	3.1430	-0.2312	8.95	2.96	-0.750			
0.7435	47584.79	3.1400	3.1399	-0.2305	8.96	2.97	-0.750			
0.7442	47628.91	3.1370	3.1370	-0.2275	8.97	2.98	-0.750			
0.7449	47673.30	3.1340	3.1340	-0.2255	8.98	2.99	-0.750			
0.7456	47715.98	3.1310	3.1312	-0.2239	8.99	3.00	-0.750			
0.7462	47758.71	3.1280	3.1280	-0.2212	9.00	3.01	-0.750			
0.7469	47800.74	3.1250	3.1250	-0.2189	9.00	3.01	-0.750			
0.7475	47841.98	3.1220	3.1219	-0.2172	9.01	3.02	-0.750			
0.7482	47883.61	3.1190	3.1190	-0.2150	9.02	3.03	-0.750			
0.7488	47924.83	3.1160	3.1162	-0.2144	9.03	3.04	-0.750			
0.7495	47966.42	3.1130	3.1129	-0.2133	9.04	3.05	-0.750			
0.7501	48007.24	3.1100	3.1100	-0.2129	9.05	3.06	-0.750			
0.7507	48047.54	3.1070	3.1070	-0.2103	9.06	3.07	-0.750			
0.7514	48087.86	3.1040	3.1039	-0.2097	9.06	3.07	-0.750			
0.7520	48128.16	3.1010	3.1010	-0.2091	9.07	3.08	-0.750			
0.7526	48168.25	3.0980	3.0981	-0.2071	9.08	3.09	-0.750			
0.7533	48208.38	3.0950	3.0948	-0.2064	9.09	3.10	-0.750			
0.7539	48247.78	3.0920	3.0921	-0.2040	9.10	3.11	-0.750			
0.7545	48286.83	3.0890	3.0890	-0.2016	9.11	3.12	-0.750			
0.7551	48325.03	3.0860	3.0860	-0.1994	9.12	3.13	-0.750			
0.7557	48362.96	3.0830	3.0831	-0.1981	9.13	3.14	-0.750			
0.7563	48400.85	3.0800	3.0800	-0.1967	9.14	3.15	-0.750			
0.7568	48438.12	3.0770	3.0770	-0.1954	9.15	3.16	-0.750			
0.7574	48475.71	3.0740	3.0740	-0.1945	9.16	3.17	-0.750			
0.7580	48513.06	3.0710	3.0710	-0.1932	9.17	3.18	-0.750			
0.7586	48550.03	3.0680	3.0680	-0.1919	9.18	3.19	-0.750			
0.7592	48586.98	3.0650	3.0650	-0.1908	9.19	3.20	-0.750			
0.7597	48623.64	3.0620	3.0620	-0.1886	9.20	3.21	-0.750			
0.7603	48659.41	3.0590	3.0590	-0.1869	9.20	3.21	-0.750			
0.7609	48695.15	3.0560	3.0559	-0.1854	9.21	3.22	-0.750			
0.7614	48730.35	3.0530	3.0531	-0.1848	9.22	3.23	-0.750			
0.7620	48765.78	3.0500	3.0499	-0.1833	9.23	3.24	-0.750			
0.7625	48800.93	3.0470	3.0469	-0.1822	9.24	3.25	-0.750			
0.7631	48835.82	3.0440	3.0441	-0.1812	9.25	3.26	-0.750			
0.7636	48870.49	3.0410	3.0411	-0.1802	9.26	3.27	-0.750			
0.7641	48905.13	3.0380	3.0380	-0.1800	9.27	3.28	-0.750			
0.7647	48939.31	3.0350	3.0350	-0.1784	9.27	3.28	-0.750			
0.7652	48973.52	3.0320	3.0320	-0.1779	9.28	3.29	-0.750			
0.7657	49007.58	3.0290	3.0290	-0.1765	9.29	3.30	-0.750			
0.7663	49041.65	3.0260	3.0261	-0.1763	9.30	3.31	-0.750			
0.7668	49075.44	3.0230	3.0230	-0.1752	9.31	3.32	-0.750			
0.7673	49108.85	3.0200	3.0200	-0.1744	9.31	3.32	-0.750			
0.7678	49141.95	3.0170	3.0170	-0.1742	9.32	3.33	-0.750			
0.7684	49175.22	3.0140	3.0140	-0.1734	9.33	3.34	-0.750			
0.7689	49208.49	3.0110	3.0110	-0.1736	9.34	3.35	-0.750			
0.7694	49241.86	3.0080	3.0080	-0.1740	9.35	3.36	-0.750			
0.7699	49275.46	3.0050	3.0051	-0.1733	9.35	3.36	-0.750			
0.7704	49308.64	3.0020	3.0020	-0.1714	9.36	3.37	-0.750			
