Ah_balance (normalized)	Ah_balance (mAh)	Voltage - fit (V)	Voltage -  interpolate (V)	dQ/dV (1/V)	Temperature (°C)	Temperature - diff (°C)	Current (C)	R_DC 0ms (mOhm)	R_DC 50ms (mOhm)	R_DC 50 ms PEC (mOhm)
0.0157	1005.38	4.1970	4.1971	0.8249	25.38	-0.21	0.250			
0.0182	1162.54	4.1940	4.1940	0.8146	25.38	-0.21	0.250	0.320	0.518	
0.0206	1317.56	4.1910	4.1909	0.8082	25.38	-0.21	0.250			
0.0230	1470.42	4.1880	4.1881	0.8034	25.38	-0.21	0.250			
0.0254	1625.04	4.1850	4.1850	0.8045	25.38	-0.21	0.250			
0.0278	1778.70	4.1820	4.1820	0.8121	25.38	-0.21	0.250			
0.0302	1933.02	4.1790	4.1791	0.8156	25.38	-0.21	0.250			
0.0327	2093.37	4.1760	4.1758	0.8211	25.38	-0.21	0.250			
0.0352	2252.31	4.1730	4.1729	0.8208	25.38	-0.21	0.250			
0.0377	2409.82	4.1700	4.1700	0.8231	25.38	-0.21	0.250			
0.0401	2568.24	4.1670	4.1671	0.8261	25.38	-0.21	0.250	0.360	0.523	
0.0426	2726.15	4.1640	4.1638	0.8236	25.37	-0.22	0.250			
0.0450	2882.29	4.1610	4.1610	0.8175	25.37	-0.22	0.250			
0.0475	3040.15	4.1580	4.1580	0.8269	25.36	-0.23	0.250			
0.0500	3201.85	4.1550	4.1549	0.8287	25.37	-0.22	0.250			
0.0525	3360.81	4.1520	4.1518	0.8205	25.38	-0.21	0.250			
0.0549	3516.32	4.1490	4.1492	0.8252	25.37	-0.22	0.250			
0.0574	3676.43	4.1460	4.1459	0.8239	25.37	-0.22	0.250			
0.0599	3834.43	4.1430	4.1428	0.8199	25.36	-0.23	0.250	0.403	0.505	
0.0623	3990.39	4.1400	4.1402	0.8185	25.37	-0.22	0.250			
0.0648	4147.61	4.1370	4.1370	0.8206	25.37	-0.22	0.250			
0.0673	4307.37	4.1340	4.1338	0.8230	25.37	-0.22	0.250			
0.0697	4463.57	4.1310	4.1310	0.8229	25.37	-0.22	0.250			
0.0722	4621.72	4.1280	4.1281	0.8277	25.36	-0.23	0.250			
0.0747	4781.72	4.1250	4.1250	0.8400	25.36	-0.23	0.250			
0.0772	4942.65	4.1220	4.1220	0.8429	25.36	-0.23	0.250			
0.0798	5104.70	4.1190	4.1194	0.8493	25.37	-0.22	0.250	0.355	0.516	
0.0824	5270.93	4.1160	4.1160	0.8540	25.37	-0.22	0.250			
0.0850	5436.95	4.1130	4.1130	0.8523	25.36	-0.23	0.250			
0.0875	5600.06	4.1100	4.1101	0.8488	25.36	-0.23	0.250			
0.0900	5760.14	4.1070	4.1071	0.8509	25.36	-0.23	0.250			
0.0925	5921.44	4.1040	4.1040	0.8523	25.35	-0.24	0.250			
0.0951	6087.35	4.1010	4.1008	0.8544	25.35	-0.24	0.250			
0.0977	6252.06	4.0980	4.0979	0.8508	25.35	-0.24	0.250			
0.1003	6416.75	4.0950	4.0951	0.8521	25.35	-0.24	0.250	0.258	0.511	
0.1028	6579.73	4.0920	4.0920	0.8501	25.35	-0.24	0.250			
0.1053	6739.81	4.0890	4.0888	0.8511	25.35	-0.24	0.250			
0.1078	6901.75	4.0860	4.0860	0.8469	25.35	-0.24	0.250			
0.1104	7067.90	4.0830	4.0831	0.8528	25.35	-0.24	0.250			
0.1130	7232.96	4.0800	4.0801	0.8572	25.35	-0.24	0.250			
0.1156	7398.05	4.0770	4.0770	0.8536	25.35	-0.24	0.250			
0.1181	7560.38	4.0740	4.0740	0.8501	25.35	-0.24	0.250	0.371	0.542	
0.1206	7721.23	4.0710	4.0711	0.8632	25.34	-0.25	0.250			
0.1232	7885.64	4.0680	4.0681	0.8732	25.34	-0.25	0.250			
0.1259	8056.57	4.0650	4.0648	0.8858	25.35	-0.24	0.250			
0.1286	8229.34	4.0620	4.0621	0.8961	25.35	-0.24	0.250			
0.1313	8405.54	4.0590	4.0589	0.8945	25.35	-0.24	0.250			
0.1340	8578.94	4.0560	4.0559	0.8945	25.35	-0.24	0.250			
0.1367	8750.06	4.0530	4.0531	0.8729	25.35	-0.24	0.250			
0.1393	8913.13	4.0500	4.0498	0.8647	25.35	-0.24	0.250	0.329	0.499	
0.1418	9075.76	4.0470	4.0472	0.8704	25.36	-0.23	0.250			
0.1444	9242.05	4.0440	4.0438	0.8714	25.37	-0.22	0.250			
0.1470	9410.17	4.0410	4.0409	0.8886	25.36	-0.23	0.250			
0.1497	9582.95	4.0380	4.0380	0.8976	25.36	-0.23	0.250			
0.1525	9758.27	4.0350	4.0348	0.9078	25.36	-0.23	0.250			
0.1553	9936.31	4.0320	4.0321	0.9124	25.37	-0.22	0.250			
0.1580	10109.52	4.0290	4.0291	0.9064	25.37	-0.22	0.250	0.352	0.525	
0.1607	10284.10	4.0260	4.0262	0.9111	25.37	-0.22	0.250			
0.1634	10457.61	4.0230	4.0232	0.9112	25.37	-0.22	0.250			
0.1662	10634.75	4.0200	4.0199	0.9137	25.37	-0.22	0.250			
0.1689	10810.95	4.0170	4.0171	0.9160	25.37	-0.22	0.250			
0.1717	10986.82	4.0140	4.0140	0.9208	25.37	-0.22	0.250			
0.1744	11163.96	4.0110	4.0108	0.9277	25.38	-0.21	0.250			
0.1772	11341.46	4.0080	4.0081	0.9262	25.39	-0.20	0.250			
0.1800	11520.71	4.0050	4.0049	0.9308	25.38	-0.21	0.250	0.287	0.507	
0.1828	11699.90	4.0020	4.0020	0.9313	25.39	-0.20	0.250			
0.1856	11879.33	3.9990	3.9991	0.9343	25.40	-0.19	0.250			
0.1884	12060.45	3.9960	3.9960	0.9337	25.40	-0.19	0.250			
0.1912	12237.96	3.9930	3.9930	0.9304	25.40	-0.19	0.250			
0.1940	12415.82	3.9900	3.9899	0.9347	25.40	-0.19	0.250			
0.1968	12596.92	3.9870	3.9868	0.9372	25.41	-0.18	0.250			
0.1996	12777.23	3.9840	3.9840	0.9417	25.41	-0.18	0.250	0.340	0.521	
0.2025	12956.99	3.9810	3.9811	0.9503	25.41	-0.18	0.250			
0.2053	13138.97	3.9780	3.9780	0.9532	25.42	-0.17	0.250			
0.2082	13324.37	3.9750	3.9751	0.9563	25.42	-0.17	0.250			
0.2111	13510.42	3.9720	3.9721	0.9611	25.42	-0.17	0.250			
0.2140	13695.12	3.9690	3.9690	0.9600	25.42	-0.17	0.250			
0.2169	13879.19	3.9660	3.9658	0.9623	25.43	-0.16	0.250			
0.2197	14063.53	3.9630	3.9629	0.9582	25.43	-0.16	0.250	0.354	0.525	
0.2226	14245.55	3.9600	3.9600	0.9610	25.43	-0.16	0.250			
0.2255	14430.37	3.9570	3.9571	0.9740	25.43	-0.16	0.250			
0.2284	14619.09	3.9540	3.9538	0.9773	25.44	-0.15	0.250			
0.2314	14808.50	3.9510	3.9509	0.9833	25.45	-0.14	0.250			
0.2343	14998.26	3.9480	3.9481	0.9860	25.44	-0.15	0.250			
0.2373	15189.54	3.9450	3.9449	0.9871	25.44	-0.15	0.250			
0.2403	15378.33	3.9420	3.9420	0.9810	25.44	-0.15	0.250	0.274	0.515	
0.2432	15563.70	3.9390	3.9390	0.9829	25.44	-0.15	0.250			
0.2462	15753.65	3.9360	3.9359	0.9865	25.44	-0.15	0.250			
0.2491	15942.75	3.9330	3.9330	0.9934	25.44	-0.15	0.250			
0.2521	16134.96	3.9300	3.9300	0.9989	25.44	-0.15	0.250			
0.2551	16328.05	3.9270	3.9270	0.9991	25.44	-0.15	0.250			
0.2581	16518.85	3.9240	3.9240	1.0122	25.45	-0.14	0.250	0.380	0.496	
0.2612	16715.19	3.9210	3.9210	1.0152	25.45	-0.14	0.250			
0.2642	16911.22	3.9180	3.9179	1.0135	25.46	-0.13	0.250			
0.2673	17107.81	3.9150	3.9152	1.0187	25.45	-0.14	0.250			
0.2704	17302.74	3.9120	3.9121	1.0199	25.45	-0.14	0.250			
0.2734	17498.84	3.9090	3.9089	1.0190	25.45	-0.14	0.250			
0.2764	17691.10	3.9060	3.9062	1.0270	25.46	-0.13	0.250			
0.2795	17889.31	3.9030	3.9031	1.0315	25.46	-0.13	0.250	0.324	0.522	
0.2827	18091.32	3.9000	3.9000	1.0408	25.47	-0.12	0.250			
0.2858	18292.96	3.8970	3.8971	1.0357	25.47	-0.12	0.250			
0.2889	18491.91	3.8940	3.8939	1.0357	25.48	-0.11	0.250			
0.2920	18687.83	3.8910	3.8911	1.0382	25.48	-0.11	0.250			
0.2951	18885.10	3.8880	3.8880	1.0364	25.48	-0.11	0.250			
0.2982	19084.16	3.8850	3.8849	1.0436	25.48	-0.11	0.250	0.300	0.526	
0.3013	19285.34	3.8820	3.8820	1.0546	25.49	-0.10	0.250			
0.3046	19492.94	3.8790	3.8791	1.0617	25.48	-0.11	0.250			
0.3078	19697.39	3.8760	3.8758	1.0643	25.50	-0.09	0.250			
0.3109	19899.80	3.8730	3.8732	1.0677	25.51	-0.08	0.250			
0.3141	20103.47	3.8700	3.8700	1.0682	25.51	-0.08	0.250			
0.3174	20310.50	3.8670	3.8670	1.0782	25.52	-0.07	0.250			
0.3206	20515.34	3.8640	3.8640	1.0858	25.53	-0.06	0.250	0.389	0.534	
0.3239	20728.61	3.8610	3.8609	1.0992	25.53	-0.06	0.250			
0.3272	20940.32	3.8580	3.8579	1.1009	25.54	-0.05	0.250			
0.3305	21153.33	3.8550	3.8550	1.0982	25.54	-0.05	0.250			
0.3338	21363.60	3.8520	3.8519	1.0957	25.55	-0.04	0.250			
0.3371	21575.54	3.8490	3.8489	1.0884	25.56	-0.03	0.250			
0.3403	21780.16	3.8460	3.8458	1.0862	25.57	-0.02	0.250	0.335	0.518	
0.3436	21988.79	3.8430	3.8430	1.0921	25.58	-0.01	0.250			
0.3469	22201.14	3.8400	3.8399	1.0887	25.58	-0.01	0.250			
0.3502	22411.75	3.8370	3.8368	1.0742	25.58	-0.01	0.250			
0.3534	22619.35	3.8340	3.8343	1.0507	25.59	0.00	0.250			
0.3566	22821.76	3.8310	3.8311	1.0227	25.60	0.01	0.250			
0.3596	23015.41	3.8280	3.8278	0.9925	25.60	0.01	0.250	0.333	0.541	
0.3624	23196.03	3.8250	3.8251	0.9565	25.61	0.02	0.250			
0.3653	23377.93	3.8220	3.8219	0.9395	25.62	0.03	0.250			
0.3681	23557.70	3.8190	3.8189	0.9229	25.61	0.02	0.250			
0.3708	23733.47	3.8160	3.8162	0.9041	25.61	0.02	0.250			
0.3735	23905.93	3.8130	3.8130	0.8880	25.61	0.02	0.250			
0.3761	24072.06	3.8100	3.8100	0.8726	25.61	0.02	0.250			
0.3787	24236.54	3.8070	3.8069	0.8686	25.61	0.02	0.250	0.352	0.540	
0.3813	24400.02	3.8040	3.8040	0.8731	25.61	0.02	0.250			
0.3839	24567.47	3.8010	3.8009	0.8771	25.61	0.02	0.250			
0.3865	24736.09	3.7980	3.7981	0.8984	25.61	0.02	0.250			
0.3892	24910.75	3.7950	3.7950	0.9158	25.61	0.02	0.250			
0.3920	25088.05	3.7920	3.7918	0.9421	25.61	0.02	0.250			
0.3948	25267.81	3.7890	3.7891	0.9691	25.61	0.02	0.250			
0.3978	25457.70	3.7860	3.7859	1.0037	25.61	0.02	0.250	0.362	0.539	
0.4009	25654.83	3.7830	3.7829	1.0365	25.60	0.01	0.250			
0.4040	25857.83	3.7800	3.7801	1.0656	25.59	0.00	0.250			
0.4073	26065.00	3.7770	3.7769	1.0944	25.59	-0.00	0.250			
0.4106	26279.53	3.7740	3.7740	1.1255	25.58	-0.01	0.250			
0.4140	26495.95	3.7710	3.7710	1.1542	25.58	-0.01	0.250			
0.4175	26719.62	3.7680	3.7680	1.1906	25.56	-0.03	0.250	0.318	0.514	
0.4211	26953.10	3.7650	3.7650	1.2207	25.56	-0.03	0.250			
0.4249	27193.30	3.7620	3.7620	1.2496	25.56	-0.03	0.250			
0.4287	27435.35	3.7590	3.7590	1.2816	25.55	-0.04	0.250			
0.4325	27680.43	3.7560	3.7561	1.3163	25.53	-0.06	0.250			
0.4365	27936.38	3.7530	3.7531	1.3525	25.53	-0.06	0.250			
0.4406	28198.74	3.7500	3.7500	1.3981	25.52	-0.07	0.250	0.383	0.539	
0.4449	28471.12	3.7470	3.7471	1.4410	25.52	-0.07	0.250			
0.4493	28757.27	3.7440	3.7440	1.4873	25.51	-0.08	0.250			
0.4538	29045.84	3.7410	3.7410	1.5187	25.50	-0.09	0.250			
0.4584	29339.91	3.7380	3.7380	1.5554	25.49	-0.10	0.250	0.317	0.512	
0.4631	29637.07	3.7350	3.7351	1.6073	25.48	-0.11	0.250			
0.4680	29950.48	3.7320	3.7318	1.6577	25.47	-0.12	0.250			
0.4731	30277.29	3.7290	3.7289	1.7102	25.47	-0.12	0.250			
0.4783	30611.06	3.7260	3.7262	1.7515	25.45	-0.14	0.250	0.409	0.505	
0.4837	30954.79	3.7230	3.7229	1.8016	25.44	-0.15	0.250			
0.4891	31302.22	3.7200	3.7200	1.8418	25.44	-0.15	0.250			
0.4946	31655.40	3.7170	3.7169	1.8888	25.43	-0.16	0.250			
0.5003	32022.30	3.7140	3.7140	1.9586	25.41	-0.18	0.250	0.337	0.543	
0.5063	32403.29	3.7110	3.7110	2.0299	25.41	-0.18	0.250			
0.5125	32798.74	3.7080	3.7080	2.1191	25.40	-0.19	0.250			
0.5190	33213.68	3.7050	3.7050	2.1865	25.39	-0.20	0.250	0.332	0.522	
0.5257	33646.59	3.7020	3.7021	2.2516	25.38	-0.21	0.250			
0.5325	34083.13	3.6990	3.6991	2.3257	25.37	-0.22	0.250			
0.5396	34535.03	3.6960	3.6960	2.3975	25.36	-0.23	0.250	0.312	0.545	
0.5469	34999.00	3.6930	3.6930	2.5028	25.36	-0.23	0.250			
0.5544	35484.07	3.6900	3.6900	2.6043	25.34	-0.25	0.250			
0.5625	36000.03	3.6870	3.6869	2.7165	25.33	-0.26	0.250	0.343	0.566	
0.5708	36533.79	3.6840	3.6841	2.8260	25.30	-0.29	0.250			
0.5794	37084.74	3.6810	3.6812	2.9028	25.28	-0.31	0.250	0.345	0.562	
0.5883	37648.35	3.6780	3.6779	3.0182	25.26	-0.33	0.250			
0.5974	38235.49	3.6750	3.6750	3.1044	25.24	-0.35	0.250	0.324	0.552	
0.6069	38844.67	3.6720	3.6720	3.1974	25.21	-0.38	0.250			
0.6167	39466.08	3.6690	3.6690	3.2581	25.19	-0.40	0.250	0.352	0.553	
0.6265	40097.91	3.6660	3.6660	3.3671	25.16	-0.43	0.250			
0.6368	40755.99	3.6630	3.6629	3.4426	25.14	-0.45	0.250	0.318	0.560	
0.6474	41430.41	3.6600	3.6600	3.5068	25.12	-0.47	0.250			
0.6580	42111.58	3.6570	3.6570	3.5354	25.08	-0.51	0.250	0.348	0.584	
0.6686	42793.44	3.6540	3.6540	3.5088	25.07	-0.52	0.250			
0.6793	43474.83	3.6510	3.6512	3.4635	25.05	-0.54	0.250	0.367	0.586	
0.6896	44137.11	3.6480	3.6479	3.2738	25.03	-0.56	0.250			
0.6993	44752.08	3.6450	3.6448	3.0177	25.04	-0.55	0.250	0.413	0.586	
0.7077	45294.17	3.6420	3.6420	2.7165	25.05	-0.54	0.250			
0.7153	45782.38	3.6390	3.6390	2.4417	25.05	-0.54	0.250			
0.7222	46221.31	3.6360	3.6358	2.1828	25.07	-0.52	0.250	0.438	0.599	
0.7284	46615.19	3.6330	3.6332	1.9484	25.08	-0.51	0.250			
0.7339	46967.95	3.6300	3.6300	1.7295	25.09	-0.50	0.250			
0.7387	47277.27	3.6270	3.6270	1.5473	25.09	-0.50	0.250	0.399	0.571	
0.7428	47540.68	3.6240	3.6239	1.3865	25.09	-0.50	0.250			
0.7466	47781.38	3.6210	3.6209	1.2966	25.10	-0.49	0.250			
0.7502	48010.69	3.6180	3.6180	1.2518	25.10	-0.49	0.250			
0.7538	48242.52	3.6150	3.6150	1.2489	25.10	-0.49	0.250			
0.7575	48482.93	3.6120	3.6119	1.2706	25.11	-0.48	0.250			
0.7614	48732.29	3.6090	3.6091	1.2881	25.11	-0.48	0.250	0.376	0.584	
0.7653	48980.71	3.6060	3.6059	1.3010	25.11	-0.48	0.250			
0.7693	49235.03	3.6030	3.6031	1.3105	25.11	-0.48	0.250			
0.7733	49490.26	3.6000	3.5998	1.2931	25.11	-0.48	0.250			
0.7772	49742.06	3.5970	3.5971	1.2698	25.12	-0.47	0.250			
0.7810	49982.77	3.5940	3.5940	1.2283	25.13	-0.46	0.250	0.336	0.591	
0.7846	50215.36	3.5910	3.5908	1.1877	25.13	-0.46	0.250			
0.7881	50435.37	3.5880	3.5881	1.1515	25.13	-0.46	0.250			
0.7914	50648.24	3.5850	3.5850	1.1373	25.14	-0.45	0.250			
0.7948	50864.69	3.5820	3.5819	1.1262	25.14	-0.45	0.250			
0.7981	51079.16	3.5790	3.5789	1.1258	25.15	-0.44	0.250	0.312	0.606	
0.8015	51296.44	3.5760	3.5763	1.1366	25.16	-0.43	0.250			
0.8049	51515.47	3.5730	3.5729	1.1380	25.16	-0.43	0.250			
0.8084	51734.49	3.5700	3.5700	1.1382	25.17	-0.42	0.250			
0.8118	51952.91	3.5670	3.5669	1.1369	25.18	-0.41	0.250			
0.8152	52172.33	3.5640	3.5639	1.1494	25.18	-0.41	0.250			
0.8186	52391.34	3.5610	3.5611	1.1604	25.19	-0.40	0.250	0.313	0.625	
0.8221	52612.11	3.5580	3.5580	1.1807	25.20	-0.39	0.250			
0.8256	52838.93	3.5550	3.5551	1.2085	25.20	-0.39	0.250			
0.8293	53072.79	3.5520	3.5521	1.2490	25.21	-0.38	0.250			
0.8331	53319.27	3.5490	3.5492	1.2988	25.22	-0.37	0.250			
0.8370	53568.36	3.5460	3.5460	1.3569	25.22	-0.37	0.250			
0.8411	53829.47	3.5430	3.5430	1.4322	25.23	-0.36	0.250	0.362	0.609	
0.8454	54106.90	3.5400	3.5400	1.5236	25.23	-0.36	0.250			
0.8501	54405.00	3.5370	3.5371	1.6519	25.24	-0.35	0.250			
0.8552	54735.24	3.5340	3.5339	1.7765	25.24	-0.35	0.250			
0.8608	55090.93	3.5310	3.5309	1.9007	25.25	-0.34	0.250	0.392	0.630	
0.8667	55471.56	3.5280	3.5282	2.0222	25.25	-0.34	0.250			
0.8730	55873.67	3.5250	3.5247	2.1158	25.25	-0.34	0.250			
0.8796	56293.68	3.5220	3.5219	2.1881	25.25	-0.34	0.250	0.335	0.602	
0.8863	56724.74	3.5190	3.5191	2.2285	25.24	-0.35	0.250			
0.8933	57171.18	3.5160	3.5159	2.2130	25.25	-0.34	0.250			
0.9002	57614.77	3.5130	3.5129	2.0901	25.25	-0.34	0.250	0.384	0.640	
0.9066	58019.28	3.5100	3.5101	1.8456	25.24	-0.35	0.250			
0.9120	58367.50	3.5070	3.5073	1.5357	25.25	-0.34	0.250			
0.9162	58634.95	3.5040	3.5041	1.1970	25.26	-0.33	0.250			
0.9188	58804.94	3.5010	3.5007	0.8917	25.26	-0.33	0.250	0.344	0.636	
0.9205	58914.74	3.4980	3.4977	0.6377	25.27	-0.32	0.250			
0.9218	58997.64	3.4950	3.4947	0.4998	25.27	-0.32	0.250			
0.9230	59075.15	3.4920	3.4920	0.4199	25.27	-0.32	0.250			
0.9242	59146.98	3.4890	3.4890	0.3816	25.28	-0.31	0.250			
0.9252	59214.43	3.4860	3.4860	0.3528	25.28	-0.31	0.250			
0.9262	59278.79	3.4830	3.4829	0.3338	25.28	-0.31	0.250			
0.9272	59340.92	3.4800	3.4799	0.3200	25.29	-0.30	0.250			
0.9281	59401.04	3.4770	3.4771	0.3092	25.29	-0.30	0.250			
0.9290	59459.13	3.4740	3.4740	0.3007	25.29	-0.30	0.250			
0.9299	59515.47	3.4710	3.4710	0.2921	25.30	-0.29	0.250			
0.9308	59570.90	3.4680	3.4680	0.2852	25.30	-0.29	0.250			
0.9316	59624.40	3.4650	3.4650	0.2786	25.31	-0.28	0.250			
0.9325	59677.17	3.4620	3.4621	0.2739	25.32	-0.27	0.250			
0.9333	59729.40	3.4590	3.4590	0.2694	25.32	-0.27	0.250			
0.9341	59780.52	3.4560	3.4559	0.2647	25.33	-0.26	0.250			
0.9349	59830.77	3.4530	3.4531	0.2602	25.33	-0.26	0.250			
0.9356	59880.56	3.4500	3.4500	0.2555	25.34	-0.25	0.250			
0.9364	59929.46	3.4470	3.4470	0.2510	25.34	-0.25	0.250			
0.9371	59976.85	3.4440	3.4440	0.2474	25.34	-0.25	0.250			
0.9379	60024.00	3.4410	3.4411	0.2435	25.35	-0.24	0.250			
0.9386	60070.18	3.4380	3.4376	0.2396	25.35	-0.24	0.250			
0.9393	60115.78	3.4350	3.4350	0.2365	25.35	-0.24	0.250			
0.9400	60160.89	3.4320	3.4319	0.2328	25.36	-0.23	0.250	0.363	0.653	
0.9407	60205.34	3.4290	3.4290	0.2296	25.36	-0.23	0.250			
0.9414	60249.35	3.4260	3.4260	0.2271	25.36	-0.23	0.250			
0.9421	60291.91	3.4230	3.4230	0.2236	25.37	-0.22	0.250			
0.9427	60334.81	3.4200	3.4199	0.2217	25.37	-0.22	0.250			
0.9434	60377.16	3.4170	3.4170	0.2194	25.37	-0.22	0.250			
0.9441	60419.24	3.4140	3.4139	0.2153	25.38	-0.21	0.250			
0.9447	60460.31	3.4110	3.4110	0.2122	25.38	-0.21	0.250			
0.9453	60500.87	3.4080	3.4080	0.2097	25.39	-0.20	0.250			
0.9459	60540.32	3.4050	3.4051	0.2062	25.39	-0.20	0.250			
0.9466	60579.68	3.4020	3.4019	0.2038	25.40	-0.19	0.250			
0.9472	60618.23	3.3990	3.3990	0.2011	25.40	-0.19	0.250			
0.9478	60656.64	3.3960	3.3960	0.1990	25.40	-0.19	0.250			
0.9484	60694.90	3.3930	3.3930	0.1965	25.40	-0.19	0.250			
0.9490	60732.88	3.3900	3.3900	0.1945	25.40	-0.19	0.250			
0.9495	60769.81	3.3870	3.3870	0.1923	25.41	-0.18	0.250			
0.9501	60806.57	3.3840	3.3839	0.1895	25.41	-0.18	0.250			
0.9507	60842.54	3.3810	3.3812	0.1868	25.41	-0.18	0.250			
0.9512	60878.03	3.3780	3.3779	0.1850	25.41	-0.18	0.250			
0.9518	60913.27	3.3750	3.3750	0.1829	25.41	-0.18	0.250			
0.9523	60948.04	3.3720	3.3720	0.1812	25.42	-0.17	0.250			
0.9529	60983.02	3.3690	3.3689	0.1793	25.42	-0.17	0.250			
0.9534	61017.08	3.3660	3.3660	0.1769	25.43	-0.16	0.250			
0.9539	61050.89	3.3630	3.3631	0.1749	25.43	-0.16	0.250			
0.9544	61084.63	3.3600	3.3601	0.1731	25.43	-0.16	0.250			
0.9550	61117.58	3.3570	3.3570	0.1707	25.44	-0.15	0.250			
0.9555	61149.80	3.3540	3.3540	0.1681	25.44	-0.15	0.250			
0.9560	61181.91	3.3510	3.3511	0.1664	25.45	-0.14	0.250			
0.9565	61213.65	3.3480	3.3480	0.1643	25.45	-0.14	0.250			
0.9570	61245.23	3.3450	3.3449	0.1627	25.46	-0.13	0.250			
0.9574	61276.49	3.3420	3.3420	0.1600	25.46	-0.13	0.250			
0.9579	61306.93	3.3390	3.3390	0.1572	25.47	-0.12	0.250			
0.9584	61336.72	3.3360	3.3360	0.1558	25.47	-0.12	0.250			
0.9588	61366.08	3.3330	3.3330	0.1542	25.47	-0.12	0.250			
0.9593	61395.14	3.3300	3.3301	0.1523	25.48	-0.11	0.250			
0.9598	61424.48	3.3270	3.3270	0.1514	25.48	-0.11	0.250	0.307	0.689	
0.9602	61453.69	3.3240	3.3240	0.1496	25.49	-0.10	0.250			
0.9607	61482.42	3.3210	3.3211	0.1483	25.49	-0.10	0.250			
0.9611	61510.73	3.3180	3.3181	0.1466	25.49	-0.10	0.250			
0.9615	61539.18	3.3150	3.3150	0.1453	25.50	-0.09	0.250			
0.9620	61566.46	3.3120	3.3119	0.1426	25.50	-0.09	0.250			
0.9624	61593.40	3.3090	3.3090	0.1408	25.50	-0.09	0.250			
0.9628	61620.33	3.3060	3.3060	0.1397	25.50	-0.09	0.250			
0.9632	61647.12	3.3030	3.3030	0.1381	25.51	-0.08	0.250			
0.9637	61673.65	3.3000	3.3000	0.1369	25.51	-0.08	0.250			
0.9641	61699.54	3.2970	3.2971	0.1354	25.51	-0.08	0.250			
0.9645	61725.43	3.2940	3.2940	0.1343	25.52	-0.07	0.250			
0.9649	61751.16	3.2910	3.2909	0.1330	25.52	-0.07	0.250			
0.9653	61776.56	3.2880	3.2880	0.1317	25.52	-0.07	0.250			
0.9657	61801.77	3.2850	3.2851	0.1301	25.52	-0.07	0.250			
0.9660	61826.62	3.2820	3.2820	0.1287	25.53	-0.06	0.250			
0.9664	61851.46	3.2790	3.2790	0.1275	25.53	-0.06	0.250			
0.9668	61875.81	3.2760	3.2760	0.1257	25.53	-0.06	0.250			
0.9672	61899.62	3.2730	3.2730	0.1243	25.54	-0.05	0.250			
0.9675	61923.13	3.2700	3.2701	0.1226	25.54	-0.05	0.250			
0.9679	61946.54	3.2670	3.2670	0.1214	25.54	-0.05	0.250			
0.9683	61969.69	3.2640	3.2640	0.1202	25.54	-0.05	0.250			
0.9686	61992.73	3.2610	3.2610	0.1186	25.55	-0.04	0.250			
0.9690	62015.48	3.2580	3.2580	0.1172	25.55	-0.04	0.250			
0.9693	62037.83	3.2550	3.2551	0.1160	25.55	-0.04	0.250			
0.9697	62059.96	3.2520	3.2520	0.1145	25.55	-0.04	0.250			
0.9700	62081.69	3.2490	3.2490	0.1131	25.56	-0.03	0.250			
0.9704	62103.29	3.2460	3.2460	0.1119	25.56	-0.03	0.250			
0.9707	62124.56	3.2430	3.2430	0.1105	25.56	-0.03	0.250			
0.9710	62145.73	3.2400	3.2400	0.1093	25.56	-0.03	0.250			
0.9714	62166.70	3.2370	3.2370	0.1083	25.57	-0.02	0.250			
0.9717	62187.31	3.2340	3.2340	0.1071	25.57	-0.02	0.250			
0.9720	62207.71	3.2310	3.2309	0.1057	25.57	-0.02	0.250			
0.9723	62227.84	3.2280	3.2281	0.1047	25.57	-0.02	0.250			
0.9726	62247.76	3.2250	3.2250	0.1035	25.57	-0.02	0.250			
0.9729	62267.72	3.2220	3.2219	0.1021	25.57	-0.02	0.250			
0.9732	62287.28	3.2190	3.2189	0.1010	25.58	-0.01	0.250			
0.9735	62306.49	3.2160	3.2161	0.0996	25.58	-0.01	0.250			
0.9738	62325.56	3.2130	3.2130	0.0984	25.58	-0.01	0.250			
0.9741	62344.38	3.2100	3.2101	0.0966	25.58	-0.01	0.250			
0.9744	62362.83	3.2070	3.2069	0.0951	25.58	-0.01	0.250			
0.9747	62380.78	3.2040	3.2040	0.0937	25.58	-0.01	0.250			
0.9750	62398.48	3.2010	3.2010	0.0920	25.58	-0.01	0.250			
0.9752	62415.97	3.1980	3.1982	0.0909	25.59	-0.00	0.250			
0.9755	62433.32	3.1950	3.1950	0.0898	25.59	-0.00	0.250			
0.9758	62450.60	3.1920	3.1919	0.0884	25.59	-0.00	0.250			
0.9761	62467.39	3.1890	3.1889	0.0869	25.59	-0.00	0.250			
0.9763	62483.95	3.1860	3.1860	0.0856	25.59	0.00	0.250			
0.9766	62500.55	3.1830	3.1831	0.0844	25.59	0.00	0.250			
0.9768	62516.57	3.1800	3.1800	0.0825	25.59	0.00	0.250			
0.9771	62532.21	3.1770	3.1769	0.0806	25.59	0.00	0.250			
0.9773	62547.52	3.1740	3.1740	0.0788	25.60	0.01	0.250			
0.9775	62562.36	3.1710	3.1711	0.0768	25.60	0.01	0.250			
0.9778	62577.12	3.1680	3.1679	0.0746	25.60	0.01	0.250			
0.9780	62591.41	3.1650	3.1651	0.0730	25.60	0.01	0.250			
0.9782	62605.20	3.1620	3.1620	0.0707	25.60	0.01	0.250			
0.9784	62619.64	3.1590	3.1587	0.0656	25.60	0.01	0.250			
0.9786	62632.47	3.1560	3.1559	0.0636	25.60	0.01	0.250			
0.9788	62644.23	3.1530	3.1530	0.0588	25.60	0.01	0.250			
0.9790	62655.06	3.1500	3.1503	0.0541	25.60	0.01	0.250			
0.9792	62666.06	3.1470	3.1474	0.0500	25.60	0.01	0.250			
0.9793	62675.10	3.1440	3.1447	0.0442	25.61	0.02	0.250			
0.9794	62683.03	3.1410	3.1420	0.0384	25.61	0.02	0.250			
0.9795	62689.85	3.1380	3.1396	0.0326	25.61	0.02	0.250			
0.9796	62695.54	3.1350	3.1370	0.0268	25.61	0.02	0.250			
