Ah_balance (normalized)	Ah_balance (mAh)	Voltage - fit (V)	Voltage -  interpolate (V)	dQ/dV (1/V)	Temperature (°C)	Temperature - diff (°C)	Current (C)	R_DC 0ms (mOhm)	R_DC 50ms (mOhm)	R_DC 50 ms PEC (mOhm)
0.0002	15.69	4.1110	4.1103	-0.0635	5.99	0.00	-0.750			
0.0005	30.80	4.1080	4.1078	-0.0938	5.99	0.00	-0.750			
0.0008	52.34	4.1050	4.1049	-0.1229	5.99	0.00	-0.750			
0.0012	79.61	4.1020	4.1019	-0.1479	5.99	0.00	-0.750			
0.0017	110.63	4.0990	4.0991	-0.1721	5.99	0.00	-0.750			
0.0023	146.04	4.0960	4.0961	-0.1967	5.99	0.00	-0.750			
0.0029	187.62	4.0930	4.0931	-0.2198	5.99	0.00	-0.750			
0.0036	231.51	4.0900	4.0900	-0.2422	5.99	0.00	-0.750			
0.0044	279.75	4.0870	4.0870	-0.2645	5.99	0.00	-0.750			
0.0052	332.85	4.0840	4.0841	-0.2871	5.99	-0.00	-0.750			
0.0061	390.06	4.0810	4.0809	-0.3097	5.99	-0.00	-0.750			
0.0071	452.15	4.0780	4.0781	-0.3322	5.99	-0.00	-0.750			
0.0081	518.15	4.0750	4.0750	-0.3537	5.99	-0.00	-0.750			
0.0092	588.45	4.0720	4.0720	-0.3767	5.99	-0.00	-0.750			
0.0103	661.85	4.0690	4.0690	-0.4016	5.99	-0.00	-0.750			
0.0116	741.47	4.0660	4.0660	-0.4224	5.98	-0.01	-0.750			
0.0129	825.21	4.0630	4.0629	-0.4450	5.98	-0.01	-0.750			
0.0143	912.90	4.0600	4.0600	-0.4654	5.98	-0.01	-0.750			
0.0157	1004.62	4.0570	4.0571	-0.4867	5.98	-0.01	-0.750			
0.0172	1100.17	4.0540	4.0539	-0.5050	5.98	-0.01	-0.750			
0.0187	1199.42	4.0510	4.0509	-0.5216	5.98	-0.01	-0.750			
0.0203	1300.92	4.0480	4.0479	-0.5388	5.98	-0.01	-0.750			
0.0220	1406.85	4.0450	4.0451	-0.5573	5.99	-0.00	-0.750			
0.0236	1512.89	4.0420	4.0421	-0.5780	5.99	-0.00	-0.750			
0.0254	1627.54	4.0390	4.0389	-0.5945	5.99	0.00	-0.750			
0.0273	1744.53	4.0360	4.0359	-0.6062	6.00	0.01	-0.750			
0.0291	1862.51	4.0330	4.0330	-0.6210	6.00	0.01	-0.750			
0.0310	1983.00	4.0300	4.0300	-0.6325	6.00	0.01	-0.750			
0.0329	2105.46	4.0270	4.0270	-0.6457	6.01	0.02	-0.750			
0.0348	2229.95	4.0240	4.0239	-0.6589	6.01	0.02	-0.750			
0.0368	2355.40	4.0210	4.0211	-0.6706	6.02	0.03	-0.750			
0.0389	2489.26	4.0180	4.0181	-0.6892	6.02	0.03	-0.750			
0.0410	2624.37	4.0150	4.0149	-0.7035	6.03	0.04	-0.750			
0.0431	2759.83	4.0120	4.0120	-0.7109	6.03	0.04	-0.750			
0.0453	2898.41	4.0090	4.0091	-0.7146	6.04	0.05	-0.750			
0.0474	3035.91	4.0060	4.0059	-0.7155	6.04	0.05	-0.750			
0.0496	3173.59	4.0030	4.0030	-0.7155	6.05	0.06	-0.750			
0.0517	3311.39	4.0000	4.0001	-0.7145	6.05	0.06	-0.750			
0.0539	3447.83	3.9970	3.9969	-0.7137	6.06	0.07	-0.750			
0.0560	3585.07	3.9940	3.9939	-0.7108	6.06	0.07	-0.750			
0.0581	3720.77	3.9910	3.9912	-0.7147	6.07	0.08	-0.750			
0.0603	3858.45	3.9880	3.9880	-0.7225	6.07	0.08	-0.750			
0.0624	3995.24	3.9850	3.9850	-0.7330	6.08	0.09	-0.750			
0.0647	4138.02	3.9820	3.9819	-0.7457	6.08	0.09	-0.750			
0.0669	4283.54	3.9790	3.9789	-0.7515	6.09	0.10	-0.750			
0.0692	4429.69	3.9760	3.9762	-0.7524	6.09	0.10	-0.750			
0.0715	4577.02	3.9730	3.9730	-0.7541	6.10	0.11	-0.750			
0.0738	4720.05	3.9700	3.9701	-0.7458	6.10	0.11	-0.750			
0.0759	4860.56	3.9670	3.9670	-0.7427	6.11	0.12	-0.750			
0.0781	5000.83	3.9640	3.9638	-0.7462	6.12	0.13	-0.750			
0.0804	5143.34	3.9610	3.9613	-0.7566	6.12	0.13	-0.750			
0.0827	5289.70	3.9580	3.9580	-0.7684	6.13	0.14	-0.750			
0.0850	5440.92	3.9550	3.9549	-0.7756	6.14	0.15	-0.750			
0.0874	5591.13	3.9520	3.9520	-0.7808	6.15	0.16	-0.750			
0.0897	5743.33	3.9490	3.9491	-0.7767	6.17	0.18	-0.750			
0.0921	5891.99	3.9460	3.9459	-0.7712	6.18	0.19	-0.750			
0.0943	6037.06	3.9430	3.9431	-0.7729	6.19	0.20	-0.750			
0.0966	6184.67	3.9400	3.9399	-0.7748	6.19	0.20	-0.750			
0.0990	6333.56	3.9370	3.9369	-0.7717	6.20	0.21	-0.750			
0.1013	6482.19	3.9340	3.9340	-0.7761	6.21	0.22	-0.750			
0.1036	6632.17	3.9310	3.9312	-0.7783	6.21	0.22	-0.750			
0.1060	6783.66	3.9280	3.9279	-0.7805	6.22	0.23	-0.750			
0.1083	6929.86	3.9250	3.9250	-0.7797	6.23	0.24	-0.750			
0.1106	7077.87	3.9220	3.9221	-0.7835	6.24	0.25	-0.750			
0.1130	7229.97	3.9190	3.9190	-0.7941	6.24	0.25	-0.750			
0.1154	7385.92	3.9160	3.9159	-0.7975	6.25	0.26	-0.750			
0.1178	7538.83	3.9130	3.9132	-0.7960	6.26	0.27	-0.750			
0.1202	7691.70	3.9100	3.9101	-0.8010	6.27	0.28	-0.750			
0.1226	7846.58	3.9070	3.9070	-0.8066	6.28	0.29	-0.750			
0.1250	8000.91	3.9040	3.9038	-0.8052	6.29	0.30	-0.750			
0.1274	8155.88	3.9010	3.9009	-0.8013	6.30	0.31	-0.750			
0.1299	8310.42	3.8980	3.8983	-0.7985	6.31	0.32	-0.750			
0.1323	8465.57	3.8950	3.8949	-0.8035	6.32	0.33	-0.750			
0.1346	8616.93	3.8920	3.8920	-0.8003	6.32	0.33	-0.750			
0.1370	8765.54	3.8890	3.8890	-0.7982	6.33	0.34	-0.750			
0.1394	8919.95	3.8860	3.8860	-0.8066	6.34	0.35	-0.750			
0.1418	9078.25	3.8830	3.8829	-0.8162	6.35	0.36	-0.750			
0.1443	9237.21	3.8800	3.8800	-0.8178	6.36	0.37	-0.750			
0.1468	9395.79	3.8770	3.8771	-0.8236	6.37	0.38	-0.750			
0.1493	9553.32	3.8740	3.8741	-0.8233	6.38	0.39	-0.750			
0.1517	9710.83	3.8710	3.8709	-0.8232	6.39	0.40	-0.750			
0.1542	9867.89	3.8680	3.8680	-0.8218	6.40	0.41	-0.750			
0.1567	10026.27	3.8650	3.8649	-0.8270	6.41	0.42	-0.750			
0.1592	10186.05	3.8620	3.8620	-0.8315	6.42	0.43	-0.750			
0.1617	10346.47	3.8590	3.8590	-0.8302	6.43	0.44	-0.750			
0.1641	10505.33	3.8560	3.8560	-0.8253	6.44	0.45	-0.750			
0.1666	10664.26	3.8530	3.8530	-0.8290	6.45	0.46	-0.750			
0.1691	10822.76	3.8500	3.8499	-0.8288	6.45	0.46	-0.750			
0.1716	10981.25	3.8470	3.8470	-0.8329	6.46	0.47	-0.750			
0.1741	11140.79	3.8440	3.8440	-0.8332	6.47	0.48	-0.750			
0.1766	11301.45	3.8410	3.8410	-0.8375	6.48	0.49	-0.750			
0.1791	11463.99	3.8380	3.8380	-0.8405	6.49	0.50	-0.750			
0.1816	11625.17	3.8350	3.8350	-0.8434	6.49	0.50	-0.750			
0.1842	11786.81	3.8320	3.8320	-0.8470	6.50	0.51	-0.750			
0.1867	11951.03	3.8290	3.8290	-0.8468	6.51	0.52	-0.750			
0.1893	12113.38	3.8260	3.8259	-0.8465	6.52	0.53	-0.750			
0.1918	12277.35	3.8230	3.8232	-0.8454	6.53	0.54	-0.750			
0.1944	12439.41	3.8200	3.8199	-0.8412	6.54	0.55	-0.750			
0.1969	12598.63	3.8170	3.8170	-0.8438	6.55	0.56	-0.750			
0.1993	12757.73	3.8140	3.8141	-0.8438	6.56	0.57	-0.750			
0.2019	12920.20	3.8110	3.8109	-0.8494	6.57	0.58	-0.750			
0.2045	13085.64	3.8080	3.8079	-0.8626	6.58	0.59	-0.750			
0.2071	13252.88	3.8050	3.8051	-0.8666	6.59	0.60	-0.750			
0.2097	13422.37	3.8020	3.8020	-0.8745	6.60	0.61	-0.750			
0.2124	13591.81	3.7990	3.7989	-0.8700	6.61	0.62	-0.750			
0.2149	13755.52	3.7960	3.7961	-0.8712	6.62	0.63	-0.750			
0.2175	13921.57	3.7930	3.7930	-0.8754	6.63	0.64	-0.750			
0.2202	14091.52	3.7900	3.7899	-0.8769	6.64	0.65	-0.750			
0.2228	14259.63	3.7870	3.7869	-0.8776	6.65	0.66	-0.750			
0.2255	14430.41	3.7840	3.7841	-0.8758	6.65	0.66	-0.750			
0.2281	14600.12	3.7810	3.7811	-0.8739	6.66	0.67	-0.750			
0.2308	14768.22	3.7780	3.7780	-0.8705	6.67	0.68	-0.750			
0.2333	14931.99	3.7750	3.7750	-0.8650	6.68	0.69	-0.750			
0.2359	15095.96	3.7720	3.7720	-0.8585	6.69	0.70	-0.750			
0.2384	15259.80	3.7690	3.7690	-0.8655	6.70	0.71	-0.750			
0.2410	15426.50	3.7660	3.7660	-0.8709	6.70	0.71	-0.750			
0.2437	15594.88	3.7630	3.7630	-0.8803	6.71	0.72	-0.750			
0.2463	15764.57	3.7600	3.7599	-0.8880	6.72	0.73	-0.750			
0.2490	15937.26	3.7570	3.7571	-0.8917	6.74	0.75	-0.750			
0.2517	16109.29	3.7540	3.7539	-0.8962	6.75	0.76	-0.750			
0.2544	16283.30	3.7510	3.7510	-0.8999	6.76	0.77	-0.750			
0.2571	16453.50	3.7480	3.7480	-0.8943	6.77	0.78	-0.750			
0.2598	16625.56	3.7450	3.7450	-0.8973	6.77	0.78	-0.750			
0.2625	16798.46	3.7420	3.7420	-0.8946	6.78	0.79	-0.750			
0.2652	16970.18	3.7390	3.7389	-0.8940	6.79	0.80	-0.750			
0.2679	17143.80	3.7360	3.7361	-0.8949	6.80	0.81	-0.750			
0.2705	17313.14	3.7330	3.7330	-0.8949	6.81	0.82	-0.750			
0.2732	17483.85	3.7300	3.7300	-0.9000	6.82	0.83	-0.750			
0.2759	17656.53	3.7270	3.7270	-0.9087	6.83	0.84	-0.750			
0.2786	17830.84	3.7240	3.7239	-0.9148	6.83	0.84	-0.750			
0.2814	18008.26	3.7210	3.7210	-0.9264	6.84	0.85	-0.750			
0.2842	18188.01	3.7180	3.7180	-0.9380	6.85	0.86	-0.750			
0.2871	18372.46	3.7150	3.7149	-0.9343	6.86	0.87	-0.750			
0.2899	18550.85	3.7120	3.7120	-0.9318	6.87	0.88	-0.750			
0.2927	18729.64	3.7090	3.7092	-0.9328	6.88	0.89	-0.750			
0.2954	18906.93	3.7060	3.7060	-0.9335	6.89	0.90	-0.750			
0.2982	19086.23	3.7030	3.7028	-0.9388	6.89	0.90	-0.750			
0.3010	19263.88	3.7000	3.7000	-0.9442	6.90	0.91	-0.750			
0.3039	19448.80	3.6970	3.6969	-0.9500	6.91	0.92	-0.750			
0.3068	19632.83	3.6940	3.6941	-0.9610	6.92	0.93	-0.750			
0.3096	19816.89	3.6910	3.6910	-0.9723	6.93	0.94	-0.750			
0.3126	20004.81	3.6880	3.6879	-0.9845	6.94	0.95	-0.750			
0.3156	20195.35	3.6850	3.6848	-0.9885	6.95	0.96	-0.750			
0.3186	20387.85	3.6820	3.6822	-0.9921	6.96	0.97	-0.750			
0.3216	20581.82	3.6790	3.6789	-0.9952	6.97	0.98	-0.750			
0.3246	20771.24	3.6760	3.6761	-1.0011	6.97	0.98	-0.750			
0.3275	20957.69	3.6730	3.6731	-0.9954	6.98	0.99	-0.750			
0.3305	21148.89	3.6700	3.6701	-1.0205	6.98	0.99	-0.750			
0.3335	21345.88	3.6670	3.6668	-1.0334	6.99	1.00	-0.750			
0.3367	21549.52	3.6640	3.6641	-1.0437	7.00	1.01	-0.750			
0.3399	21755.67	3.6610	3.6610	-1.0536	7.01	1.02	-0.750			
0.3431	21958.83	3.6580	3.6582	-1.0620	7.02	1.03	-0.750			
0.3463	22161.85	3.6550	3.6549	-1.0590	7.03	1.04	-0.750			
0.3494	22360.91	3.6520	3.6520	-1.0615	7.04	1.05	-0.750			
0.3525	22562.64	3.6490	3.6490	-1.0745	7.05	1.06	-0.750			
0.3558	22768.96	3.6460	3.6462	-1.1037	7.06	1.07	-0.750			
0.3591	22985.37	3.6430	3.6428	-1.1181	7.07	1.08	-0.750			
0.3626	23203.26	3.6400	3.6400	-1.1345	7.07	1.08	-0.750			
0.3660	23422.35	3.6370	3.6371	-1.1475	7.08	1.09	-0.750			
0.3695	23645.75	3.6340	3.6340	-1.1615	7.09	1.10	-0.750			
0.3730	23869.79	3.6310	3.6309	-1.1682	7.10	1.11	-0.750			
0.3764	24091.65	3.6280	3.6280	-1.1749	7.11	1.12	-0.750			
0.3800	24318.28	3.6250	3.6250	-1.1808	7.12	1.13	-0.750			
0.3836	24548.28	3.6220	3.6220	-1.1973	7.13	1.14	-0.750			
0.3872	24779.06	3.6190	3.6190	-1.2032	7.13	1.14	-0.750			
0.3908	25008.99	3.6160	3.6160	-1.2180	7.14	1.15	-0.750			
0.3945	25245.28	3.6130	3.6130	-1.2293	7.14	1.15	-0.750			
0.3982	25483.10	3.6100	3.6099	-1.2361	7.15	1.16	-0.750			
0.4019	25720.92	3.6070	3.6070	-1.2452	7.16	1.17	-0.750			
0.4057	25961.70	3.6040	3.6042	-1.2652	7.17	1.18	-0.750	0.442	0.926	
0.4094	26204.11	3.6010	3.6008	-1.2755	7.18	1.19	-0.750			
0.4133	26450.39	3.5980	3.5979	-1.2903	7.19	1.20	-0.750			
0.4171	26697.18	3.5950	3.5952	-1.3109	7.20	1.21	-0.750			
0.4212	26955.63	3.5920	3.5919	-1.3374	7.21	1.22	-0.750			
0.4252	27213.58	3.5890	3.5889	-1.3485	7.21	1.22	-0.750			
0.4293	27473.32	3.5860	3.5860	-1.3616	7.22	1.23	-0.750			
0.4334	27736.77	3.5830	3.5830	-1.3670	7.23	1.24	-0.750			
0.4376	28004.26	3.5800	3.5800	-1.3781	7.23	1.24	-0.750			
0.4417	28268.10	3.5770	3.5771	-1.3987	7.24	1.25	-0.750			
0.4459	28535.60	3.5740	3.5739	-1.4064	7.25	1.26	-0.750			
0.4501	28808.27	3.5710	3.5709	-1.4245	7.25	1.26	-0.750			
0.4544	29081.74	3.5680	3.5682	-1.4465	7.26	1.27	-0.750			
0.4588	29363.09	3.5650	3.5649	-1.4636	7.27	1.28	-0.750			
0.4633	29653.23	3.5620	3.5619	-1.4796	7.28	1.29	-0.750			
0.4678	29937.39	3.5590	3.5592	-1.4930	7.29	1.30	-0.750			
0.4722	30222.71	3.5560	3.5561	-1.4943	7.30	1.31	-0.750			
0.4768	30515.79	3.5530	3.5528	-1.5123	7.30	1.31	-0.750			
0.4813	30805.99	3.5500	3.5501	-1.5136	7.31	1.32	-0.750			
0.4857	31087.37	3.5470	3.5471	-1.5478	7.32	1.33	-0.750			
0.4904	31388.10	3.5440	3.5439	-1.5667	7.33	1.34	-0.750			
0.4952	31692.99	3.5410	3.5410	-1.5808	7.33	1.34	-0.750			
0.5001	32007.16	3.5380	3.5379	-1.6089	7.34	1.35	-0.750			
0.5050	32321.06	3.5350	3.5354	-1.6207	7.35	1.36	-0.750			
0.5099	32633.55	3.5320	3.5320	-1.6150	7.37	1.38	-0.750			
0.5148	32944.65	3.5290	3.5289	-1.6195	7.38	1.39	-0.750			
0.5196	33252.48	3.5260	3.5259	-1.5936	7.39	1.40	-0.750			
0.5244	33562.92	3.5230	3.5230	-1.6010	7.40	1.41	-0.750			
0.5292	33866.65	3.5200	3.5202	-1.6000	7.40	1.41	-0.750			
0.5339	34171.27	3.5170	3.5169	-1.6086	7.41	1.42	-0.750			
0.5388	34481.48	3.5140	3.5143	-1.6379	7.41	1.42	-0.750			
0.5437	34795.80	3.5110	3.5110	-1.6395	7.42	1.43	-0.750			
0.5487	35114.82	3.5080	3.5082	-1.6519	7.43	1.44	-0.750			
0.5538	35443.50	3.5050	3.5051	-1.6455	7.45	1.46	-0.750			
0.5588	35760.02	3.5020	3.5021	-1.6360	7.46	1.47	-0.750			
0.5636	36068.64	3.4990	3.4992	-1.6093	7.46	1.47	-0.750			
0.5683	36372.31	3.4960	3.4959	-1.6006	7.47	1.48	-0.750			
0.5731	36676.93	3.4930	3.4931	-1.5775	7.48	1.49	-0.750			
0.5778	36978.34	3.4900	3.4899	-1.6019	7.49	1.50	-0.750			
0.5826	37287.02	3.4870	3.4869	-1.5993	7.50	1.51	-0.750			
0.5875	37600.23	3.4840	3.4838	-1.6104	7.51	1.52	-0.750			
0.5923	37908.77	3.4810	3.4813	-1.5941	7.52	1.53	-0.750			
0.5972	38218.88	3.4780	3.4780	-1.5795	7.53	1.54	-0.750			
0.6019	38523.07	3.4750	3.4749	-1.5607	7.54	1.55	-0.750			
0.6066	38819.61	3.4720	3.4720	-1.5331	7.55	1.56	-0.750			
0.6111	39108.56	3.4690	3.4691	-1.5103	7.56	1.57	-0.750			
0.6155	39392.27	3.4660	3.4659	-1.4971	7.57	1.58	-0.750			
0.6199	39676.45	3.4630	3.4631	-1.4866	7.59	1.60	-0.750			
0.6245	39964.90	3.4600	3.4599	-1.4797	7.60	1.61	-0.750			
0.6289	40250.68	3.4570	3.4568	-1.4674	7.62	1.63	-0.750			
0.6333	40532.33	3.4540	3.4541	-1.4345	7.63	1.64	-0.750			
0.6376	40807.37	3.4510	3.4511	-1.4175	7.64	1.65	-0.750			
0.6418	41076.91	3.4480	3.4480	-1.4004	7.65	1.66	-0.750			
0.6459	41340.64	3.4450	3.4448	-1.3663	7.66	1.67	-0.750			
0.6500	41599.73	3.4420	3.4419	-1.3491	7.67	1.68	-0.750			
0.6540	41858.29	3.4390	3.4392	-1.3319	7.69	1.70	-0.750			
0.6580	42114.29	3.4360	3.4359	-1.3091	7.70	1.71	-0.750			
0.6620	42370.53	3.4330	3.4329	-1.2864	7.71	1.72	-0.750			
0.6658	42610.10	3.4300	3.4301	-1.2512	7.72	1.73	-0.750			
0.6694	42844.42	3.4270	3.4271	-1.2243	7.74	1.75	-0.750			
0.6732	43082.60	3.4240	3.4239	-1.1994	7.75	1.76	-0.750			
0.6767	43307.77	3.4210	3.4209	-1.1687	7.76	1.77	-0.750			
0.6802	43530.21	3.4180	3.4184	-1.1394	7.77	1.78	-0.750			
0.6835	43746.25	3.4150	3.4148	-1.1067	7.78	1.79	-0.750			
0.6868	43956.58	3.4120	3.4120	-1.0782	7.80	1.81	-0.750			
0.6900	44158.25	3.4090	3.4091	-1.0451	7.81	1.82	-0.750			
0.6931	44357.75	3.4060	3.4060	-1.0260	7.82	1.83	-0.750			
0.6961	44551.00	3.4030	3.4030	-0.9968	7.84	1.85	-0.750			
0.6990	44737.21	3.4000	3.4000	-0.9635	7.85	1.86	-0.750			
0.7019	44922.73	3.3970	3.3971	-0.9334	7.86	1.87	-0.750			
0.7047	45099.74	3.3940	3.3939	-0.9046	7.88	1.89	-0.750			
0.7073	45269.20	3.3910	3.3911	-0.8727	7.89	1.90	-0.750			
0.7099	45433.19	3.3880	3.3881	-0.8431	7.90	1.91	-0.750			
0.7124	45590.99	3.3850	3.3848	-0.8160	7.91	1.92	-0.750			
0.7148	45745.21	3.3820	3.3820	-0.7911	7.92	1.93	-0.750			
0.7171	45895.19	3.3790	3.3791	-0.7689	7.93	1.94	-0.750			
0.7194	46039.95	3.3760	3.3759	-0.7507	7.94	1.95	-0.750			
0.7216	46181.72	3.3730	3.3730	-0.7269	7.95	1.96	-0.750			
0.7237	46319.81	3.3700	3.3700	-0.7075	7.96	1.97	-0.750			
0.7258	46453.15	3.3670	3.3671	-0.6864	7.97	1.98	-0.750			
0.7279	46584.46	3.3640	3.3640	-0.6689	7.98	1.99	-0.750			
0.7299	46711.11	3.3610	3.3609	-0.6500	7.99	2.00	-0.750			
0.7318	46833.79	3.3580	3.3579	-0.6291	8.00	2.01	-0.750			
0.7336	46951.84	3.3550	3.3550	-0.6083	8.01	2.02	-0.750			
0.7354	47067.81	3.3520	3.3520	-0.5911	8.02	2.03	-0.750			
0.7372	47178.72	3.3490	3.3491	-0.5739	8.03	2.04	-0.750			
0.7389	47287.38	3.3460	3.3459	-0.5562	8.04	2.05	-0.750			
0.7405	47392.60	3.3430	3.3429	-0.5363	8.05	2.06	-0.750			
0.7421	47493.50	3.3400	3.3401	-0.5188	8.06	2.07	-0.750			
0.7436	47591.59	3.3370	3.3370	-0.5021	8.07	2.08	-0.750			
0.7451	47686.45	3.3340	3.3340	-0.4852	8.08	2.09	-0.750			
0.7465	47777.38	3.3310	3.3309	-0.4703	8.09	2.10	-0.750			
0.7479	47864.31	3.3280	3.3281	-0.4554	8.10	2.11	-0.750			
0.7492	47951.14	3.3250	3.3249	-0.4461	8.11	2.12	-0.750			
0.7506	48035.37	3.3220	3.3220	-0.4398	8.12	2.13	-0.750			
0.7519	48118.98	3.3190	3.3190	-0.4300	8.13	2.14	-0.750			
0.7532	48201.79	3.3160	3.3159	-0.4206	8.14	2.15	-0.750			
0.7544	48281.97	3.3130	3.3130	-0.4121	8.15	2.16	-0.750			
0.7556	48360.07	3.3100	3.3101	-0.4015	8.16	2.17	-0.750			
0.7568	48436.64	3.3070	3.3070	-0.3903	8.17	2.18	-0.750			
0.7580	48510.37	3.3040	3.3040	-0.3778	8.18	2.19	-0.750			
0.7591	48580.99	3.3010	3.3010	-0.3656	8.18	2.19	-0.750			
0.7602	48650.22	3.2980	3.2980	-0.3575	8.19	2.20	-0.750			
0.7612	48717.89	3.2950	3.2949	-0.3491	8.20	2.21	-0.750			
0.7622	48783.17	3.2920	3.2920	-0.3392	8.21	2.22	-0.750			
0.7632	48847.74	3.2890	3.2889	-0.3320	8.21	2.22	-0.750			
0.7642	48910.87	3.2860	3.2861	-0.3258	8.22	2.23	-0.750			
0.7652	48972.64	3.2830	3.2830	-0.3194	8.22	2.23	-0.750			
0.7661	49033.12	3.2800	3.2800	-0.3132	8.23	2.24	-0.750			
0.7671	49092.54	3.2770	3.2770	-0.3052	8.24	2.25	-0.750			
0.7680	49150.79	3.2740	3.2740	-0.2998	8.24	2.25	-0.750			
0.7689	49207.92	3.2710	3.2712	-0.2950	8.25	2.26	-0.750			
0.7698	49264.25	3.2680	3.2680	-0.2885	8.26	2.27	-0.750			
0.7706	49318.98	3.2650	3.2648	-0.2815	8.27	2.28	-0.750			
0.7714	49372.08	3.2620	3.2620	-0.2758	8.28	2.29	-0.750			
0.7723	49424.10	3.2590	3.2591	-0.2694	8.28	2.29	-0.750			
0.7731	49475.47	3.2560	3.2560	-0.2648	8.29	2.30	-0.750			
0.7738	49525.12	3.2530	3.2530	-0.2585	8.30	2.31	-0.750			
0.7746	49573.90	3.2500	3.2500	-0.2542	8.31	2.32	-0.750			
0.7754	49623.07	3.2470	3.2470	-0.2507	8.32	2.33	-0.750			
0.7761	49670.59	3.2440	3.2440	-0.2464	8.32	2.33	-0.750			
0.7768	49717.46	3.2410	3.2410	-0.2425	8.33	2.34	-0.750			
0.7776	49763.29	3.2380	3.2381	-0.2375	8.34	2.35	-0.750			
0.7783	49808.66	3.2350	3.2349	-0.2329	8.34	2.35	-0.750			
0.7790	49853.11	3.2320	3.2320	-0.2286	8.35	2.36	-0.750			
0.7796	49896.39	3.2290	3.2290	-0.2244	8.36	2.37	-0.750			
0.7803	49938.93	3.2260	3.2261	-0.2201	8.36	2.37	-0.750			
0.7810	49980.97	3.2230	3.2230	-0.2169	8.37	2.38	-0.750			
0.7816	50022.24	3.2200	3.2200	-0.2113	8.38	2.39	-0.750			
0.7822	50062.00	3.2170	3.2169	-0.2080	8.38	2.39	-0.750			
0.7828	50101.64	3.2140	3.2142	-0.2048	8.39	2.40	-0.750			
0.7834	50140.52	3.2110	3.2110	-0.2033	8.40	2.41	-0.750			
0.7841	50179.31	3.2080	3.2078	-0.1997	8.40	2.41	-0.750			
0.7846	50217.11	3.2050	3.2050	-0.1970	8.41	2.42	-0.750			
0.7852	50254.76	3.2020	3.2021	-0.1952	8.41	2.42	-0.750			
0.7858	50292.16	3.1990	3.1992	-0.1929	8.42	2.43	-0.750			
0.7864	50329.62	3.1960	3.1958	-0.1909	8.43	2.44	-0.750			
0.7870	50365.83	3.1930	3.1930	-0.1863	8.43	2.44	-0.750			
0.7875	50401.25	3.1900	3.1900	-0.1828	8.44	2.45	-0.750			
0.7881	50435.72	3.1870	3.1871	-0.1806	8.44	2.45	-0.750			
0.7886	50470.31	3.1840	3.1841	-0.1790	8.45	2.46	-0.750			
0.7891	50503.87	3.1810	3.1809	-0.1757	8.46	2.47	-0.750			
0.7896	50537.58	3.1780	3.1779	-0.1735	8.46	2.47	-0.750			
0.7902	50570.75	3.1750	3.1749	-0.1711	8.47	2.48	-0.750			
0.7907	50603.47	3.1720	3.1721	-0.1694	8.47	2.48	-0.750			
0.7912	50636.01	3.1690	3.1689	-0.1678	8.48	2.49	-0.750			
0.7917	50667.97	3.1660	3.1660	-0.1651	8.48	2.49	-0.750			
0.7922	50699.01	3.1630	3.1630	-0.1624	8.49	2.50	-0.750			
0.7927	50730.13	3.1600	3.1602	-0.1600	8.49	2.50	-0.750			
0.7931	50760.55	3.1570	3.1569	-0.1580	8.50	2.51	-0.750			
0.7936	50790.81	3.1540	3.1540	-0.1560	8.50	2.51	-0.750			
0.7941	50820.57	3.1510	3.1510	-0.1539	8.51	2.52	-0.750			
0.7945	50849.68	3.1480	3.1480	-0.1516	8.51	2.52	-0.750			
0.7950	50878.58	3.1450	3.1450	-0.1498	8.52	2.53	-0.750			
0.7954	50907.24	3.1420	3.1420	-0.1479	8.52	2.53	-0.750			
0.7959	50935.30	3.1390	3.1390	-0.1467	8.53	2.54	-0.750			
0.7963	50963.61	3.1360	3.1359	-0.1449	8.53	2.54	-0.750			
0.7967	50991.14	3.1330	3.1331	-0.1427	8.54	2.55	-0.750			
0.7972	51018.37	3.1300	3.1299	-0.1409	8.55	2.56	-0.750			
0.7976	51045.20	3.1270	3.1271	-0.1398	8.55	2.56	-0.750			
0.7980	51071.75	3.1240	3.1239	-0.1383	8.56	2.57	-0.750			
0.7984	51098.18	3.1210	3.1210	-0.1371	8.56	2.57	-0.750			
0.7988	51124.41	3.1180	3.1179	-0.1355	8.57	2.58	-0.750			
0.7992	51150.19	3.1150	3.1151	-0.1337	8.57	2.58	-0.750			
0.7996	51176.03	3.1120	3.1119	-0.1330	8.58	2.59	-0.750			
0.8000	51201.39	3.1090	3.1091	-0.1311	8.58	2.59	-0.750			
0.8004	51226.33	3.1060	3.1060	-0.1296	8.59	2.60	-0.750			
0.8008	51250.81	3.1030	3.1030	-0.1281	8.59	2.60	-0.750			
0.8012	51275.18	3.1000	3.1000	-0.1268	8.59	2.60	-0.750			
0.8016	51299.50	3.0970	3.0970	-0.1258	8.60	2.61	-0.750			
0.8019	51323.60	3.0940	3.0940	-0.1249	8.60	2.61	-0.750			
0.8023	51347.48	3.0910	3.0911	-0.1239	8.61	2.62	-0.750			
0.8027	51371.17	3.0880	3.0879	-0.1228	8.61	2.62	-0.750			
0.8030	51394.52	3.0850	3.0850	-0.1222	8.62	2.63	-0.750			
0.8034	51417.83	3.0820	3.0821	-0.1214	8.62	2.63	-0.750			
0.8038	51441.12	3.0790	3.0790	-0.1206	8.62	2.63	-0.750			
0.8041	51464.13	3.0760	3.0760	-0.1199	8.63	2.64	-0.750			
0.8045	51487.20	3.0730	3.0730	-0.1189	8.63	2.64	-0.750			
0.8048	51510.09	3.0700	3.0700	-0.1181	8.64	2.65	-0.750			
0.8052	51532.74	3.0670	3.0670	-0.1165	8.64	2.65	-0.750			
0.8056	51555.20	3.0640	3.0640	-0.1153	8.65	2.66	-0.750			
0.8059	51577.13	3.0610	3.0609	-0.1139	8.65	2.66	-0.750			
0.8062	51598.79	3.0580	3.0581	-0.1123	8.66	2.67	-0.750			
0.8066	51620.08	3.0550	3.0550	-0.1110	8.66	2.67	-0.750			
0.8069	51641.29	3.0520	3.0520	-0.1099	8.67	2.68	-0.750			
0.8072	51661.95	3.0490	3.0490	-0.1092	8.68	2.69	-0.750			
0.8075	51682.89	3.0460	3.0460	-0.1090	8.68	2.69	-0.750			
0.8079	51703.86	3.0430	3.0431	-0.1082	8.69	2.70	-0.750			
0.8082	51724.59	3.0400	3.0398	-0.1077	8.69	2.70	-0.750			
0.8085	51745.48	3.0370	3.0371	-0.1070	8.70	2.71	-0.750			
0.8088	51765.91	3.0340	3.0340	-0.1058	8.70	2.71	-0.750			
0.8092	51786.08	3.0310	3.0310	-0.1054	8.71	2.72	-0.750			
0.8095	51806.23	3.0280	3.0280	-0.1045	8.72	2.73	-0.750			
0.8098	51825.99	3.0250	3.0249	-0.1032	8.72	2.73	-0.750			
0.8101	51845.75	3.0220	3.0220	-0.1027	8.73	2.74	-0.750			
0.8104	51865.46	3.0190	3.0190	-0.1021	8.73	2.74	-0.750			
0.8107	51885.04	3.0160	3.0161	-0.1015	8.74	2.75	-0.750			
0.8110	51904.36	3.0130	3.0131	-0.1019	8.74	2.75	-0.750			
0.8113	51923.86	3.0100	3.0099	-0.1017	8.75	2.76	-0.750			
0.8116	51943.38	3.0070	3.0069	-0.1016	8.75	2.76	-0.750			
0.8119	51962.66	3.0040	3.0039	-0.1033	8.76	2.77	-0.750			
0.8122	51982.61	3.0010	3.0010	-0.1045	8.76	2.77	-0.750			
