Ah_balance (normalized)	Ah_balance (mAh)	Voltage - fit (V)	Voltage -  interpolate (V)	dQ/dV (1/V)	Temperature (°C)	Temperature - diff (°C)	Current (C)	R_DC 0ms (mOhm)	R_DC 50ms (mOhm)	R_DC 50 ms PEC (mOhm)
0.0000	0.00	4.0950	4.1306	0.0000	5.98	-0.01	-0.750			
0.0000	0.00	4.0980	4.1306	0.0000	5.98	-0.01	-0.750			
0.0001	9.59	4.0920	4.0920	-0.0337	5.98	-0.01	-0.750			
0.0003	20.52	4.0890	4.0887	-0.0634	5.98	-0.01	-0.750			
0.0006	35.39	4.0860	4.0859	-0.0915	5.98	-0.01	-0.750			
0.0009	56.10	4.0830	4.0829	-0.1181	5.98	-0.01	-0.750			
0.0013	81.89	4.0800	4.0800	-0.1428	5.98	-0.01	-0.750			
0.0017	111.98	4.0770	4.0771	-0.1676	5.98	-0.01	-0.750			
0.0023	146.63	4.0740	4.0741	-0.1919	5.98	-0.01	-0.750			
0.0029	187.50	4.0710	4.0711	-0.2173	5.98	-0.01	-0.750			
0.0036	231.56	4.0680	4.0680	-0.2389	5.98	-0.01	-0.750			
0.0044	279.70	4.0650	4.0650	-0.2604	5.98	-0.01	-0.750			
0.0052	331.69	4.0620	4.0620	-0.2820	5.98	-0.01	-0.750			
0.0061	387.45	4.0590	4.0591	-0.3059	5.99	-0.00	-0.750			
0.0070	447.94	4.0560	4.0560	-0.3306	5.99	-0.00	-0.750			
0.0080	513.60	4.0530	4.0530	-0.3557	5.99	-0.00	-0.750			
0.0091	585.29	4.0500	4.0499	-0.3764	5.99	-0.00	-0.750			
0.0103	659.59	4.0470	4.0471	-0.4031	5.99	-0.00	-0.750			
0.0116	739.44	4.0440	4.0440	-0.4263	5.99	-0.00	-0.750			
0.0129	823.68	4.0410	4.0408	-0.4487	5.99	0.00	-0.750			
0.0143	912.69	4.0380	4.0380	-0.4644	5.99	0.00	-0.750			
0.0157	1003.38	4.0350	4.0351	-0.4830	5.99	0.00	-0.750			
0.0172	1098.89	4.0320	4.0321	-0.5030	5.99	0.00	-0.750			
0.0187	1197.39	4.0290	4.0289	-0.5192	6.00	0.01	-0.750			
0.0203	1297.14	4.0260	4.0259	-0.5310	6.00	0.01	-0.750			
0.0219	1400.17	4.0230	4.0231	-0.5481	6.00	0.01	-0.750			
0.0235	1506.86	4.0200	4.0199	-0.5662	6.00	0.01	-0.750			
0.0253	1618.75	4.0170	4.0170	-0.5851	6.00	0.01	-0.750			
0.0271	1731.69	4.0140	4.0140	-0.5965	6.01	0.02	-0.750			
0.0289	1848.37	4.0110	4.0110	-0.6082	6.02	0.03	-0.750			
0.0307	1966.34	4.0080	4.0081	-0.6236	6.02	0.03	-0.750			
0.0326	2088.37	4.0050	4.0049	-0.6353	6.03	0.04	-0.750			
0.0345	2210.71	4.0020	4.0020	-0.6481	6.03	0.04	-0.750			
0.0365	2337.13	3.9990	3.9991	-0.6545	6.04	0.05	-0.750			
0.0385	2465.15	3.9960	3.9959	-0.6618	6.05	0.06	-0.750			
0.0405	2592.87	3.9930	3.9931	-0.6701	6.05	0.06	-0.750			
0.0425	2722.23	3.9900	3.9900	-0.6758	6.06	0.07	-0.750			
0.0446	2851.37	3.9870	3.9870	-0.6772	6.07	0.08	-0.750			
0.0466	2982.97	3.9840	3.9840	-0.6783	6.07	0.08	-0.750			
0.0486	3112.31	3.9810	3.9810	-0.6803	6.08	0.09	-0.750			
0.0507	3244.16	3.9780	3.9780	-0.6924	6.08	0.09	-0.750			
0.0527	3375.83	3.9750	3.9748	-0.6993	6.09	0.10	-0.750			
0.0548	3509.94	3.9720	3.9720	-0.7056	6.09	0.10	-0.750			
0.0570	3648.02	3.9690	3.9691	-0.7142	6.10	0.11	-0.750			
0.0592	3787.97	3.9660	3.9659	-0.7209	6.10	0.11	-0.750			
0.0614	3928.45	3.9630	3.9632	-0.7188	6.11	0.12	-0.750			
0.0635	4064.58	3.9600	3.9599	-0.7164	6.12	0.13	-0.750			
0.0656	4199.80	3.9570	3.9568	-0.7186	6.13	0.14	-0.750			
0.0678	4337.17	3.9540	3.9541	-0.7212	6.13	0.14	-0.750			
0.0700	4477.11	3.9510	3.9509	-0.7254	6.14	0.15	-0.750			
0.0722	4618.64	3.9480	3.9480	-0.7334	6.15	0.16	-0.750			
0.0744	4759.90	3.9450	3.9451	-0.7379	6.16	0.17	-0.750			
0.0766	4902.51	3.9420	3.9419	-0.7433	6.17	0.18	-0.750			
0.0788	5044.60	3.9390	3.9390	-0.7442	6.18	0.19	-0.750			
0.0810	5187.07	3.9360	3.9360	-0.7442	6.19	0.20	-0.750			
0.0833	5332.69	3.9330	3.9330	-0.7495	6.20	0.21	-0.750			
0.0856	5476.13	3.9300	3.9300	-0.7495	6.21	0.22	-0.750			
0.0878	5619.53	3.9270	3.9271	-0.7477	6.22	0.23	-0.750			
0.0901	5763.59	3.9240	3.9239	-0.7435	6.23	0.24	-0.750			
0.0923	5904.79	3.9210	3.9210	-0.7459	6.24	0.25	-0.750			
0.0945	6048.06	3.9180	3.9180	-0.7467	6.25	0.26	-0.750			
0.0967	6191.50	3.9150	3.9149	-0.7462	6.26	0.27	-0.750			
0.0990	6335.03	3.9120	3.9120	-0.7500	6.27	0.28	-0.750			
0.1012	6478.12	3.9090	3.9091	-0.7633	6.28	0.29	-0.750			
0.1035	6625.48	3.9060	3.9059	-0.7742	6.29	0.30	-0.750			
0.1059	6777.87	3.9030	3.9028	-0.7736	6.30	0.31	-0.750			
0.1082	6927.12	3.9000	3.9002	-0.7669	6.31	0.32	-0.750			
0.1106	7076.73	3.8970	3.8970	-0.7698	6.32	0.33	-0.750			
0.1129	7224.30	3.8940	3.8940	-0.7617	6.32	0.33	-0.750			
0.1151	7366.54	3.8910	3.8909	-0.7557	6.33	0.34	-0.750			
0.1173	7507.98	3.8880	3.8880	-0.7578	6.34	0.35	-0.750			
0.1196	7654.86	3.8850	3.8851	-0.7641	6.35	0.36	-0.750			
0.1219	7804.39	3.8820	3.8819	-0.7693	6.36	0.37	-0.750			
0.1243	7952.66	3.8790	3.8790	-0.7809	6.37	0.38	-0.750			
0.1266	8103.44	3.8760	3.8761	-0.7801	6.38	0.39	-0.750			
0.1290	8254.75	3.8730	3.8729	-0.7833	6.39	0.40	-0.750			
0.1313	8404.70	3.8700	3.8700	-0.7826	6.40	0.41	-0.750			
0.1337	8554.25	3.8670	3.8672	-0.7768	6.41	0.42	-0.750			
0.1360	8702.85	3.8640	3.8638	-0.7813	6.42	0.43	-0.750			
0.1383	8853.61	3.8610	3.8611	-0.7790	6.43	0.44	-0.750			
0.1406	8999.76	3.8580	3.8579	-0.7789	6.44	0.45	-0.750			
0.1430	9153.94	3.8550	3.8550	-0.7811	6.45	0.46	-0.750			
0.1454	9302.76	3.8520	3.8520	-0.7772	6.46	0.47	-0.750			
0.1477	9451.32	3.8490	3.8490	-0.7765	6.47	0.48	-0.750			
0.1500	9600.77	3.8460	3.8460	-0.7767	6.48	0.49	-0.750			
0.1523	9746.01	3.8430	3.8429	-0.7776	6.50	0.51	-0.750			
0.1546	9897.58	3.8400	3.8399	-0.7849	6.51	0.52	-0.750			
0.1570	10047.60	3.8370	3.8370	-0.7868	6.52	0.53	-0.750			
0.1594	10202.07	3.8340	3.8341	-0.7961	6.53	0.54	-0.750			
0.1618	10355.45	3.8310	3.8311	-0.7971	6.54	0.55	-0.750			
0.1642	10508.90	3.8280	3.8280	-0.7992	6.55	0.56	-0.750			
0.1666	10660.77	3.8250	3.8250	-0.8025	6.56	0.57	-0.750			
0.1690	10814.56	3.8220	3.8220	-0.8031	6.57	0.58	-0.750			
0.1714	10971.99	3.8190	3.8189	-0.8042	6.58	0.59	-0.750			
0.1739	11126.46	3.8160	3.8161	-0.7975	6.59	0.60	-0.750			
0.1762	11279.89	3.8130	3.8130	-0.7955	6.60	0.61	-0.750			
0.1786	11430.66	3.8100	3.8099	-0.7961	6.61	0.62	-0.750			
0.1810	11581.73	3.8070	3.8070	-0.7932	6.62	0.63	-0.750			
0.1833	11733.70	3.8040	3.8040	-0.7949	6.63	0.64	-0.750			
0.1857	11887.63	3.8010	3.8010	-0.8027	6.64	0.65	-0.750			
0.1882	12042.94	3.7980	3.7980	-0.8061	6.65	0.66	-0.750			
0.1906	12197.67	3.7950	3.7950	-0.8146	6.66	0.67	-0.750			
0.1930	12354.91	3.7920	3.7920	-0.8151	6.67	0.68	-0.750			
0.1955	12511.33	3.7890	3.7890	-0.8133	6.68	0.69	-0.750			
0.1980	12670.74	3.7860	3.7859	-0.8144	6.69	0.70	-0.750			
0.2004	12827.12	3.7830	3.7831	-0.8084	6.70	0.71	-0.750			
0.2028	12978.83	3.7800	3.7800	-0.8138	6.70	0.71	-0.750			
0.2053	13136.28	3.7770	3.7770	-0.8124	6.71	0.72	-0.750			
0.2077	13290.75	3.7740	3.7739	-0.8082	6.72	0.73	-0.750			
0.2101	13447.62	3.7710	3.7711	-0.8126	6.73	0.74	-0.750			
0.2126	13605.41	3.7680	3.7681	-0.8160	6.74	0.75	-0.750			
0.2150	13760.47	3.7650	3.7649	-0.8245	6.76	0.77	-0.750			
0.2175	13918.62	3.7620	3.7619	-0.8252	6.77	0.78	-0.750			
0.2199	14075.96	3.7590	3.7590	-0.8271	6.78	0.79	-0.750			
0.2225	14238.88	3.7560	3.7559	-0.8308	6.79	0.80	-0.750			
0.2250	14399.47	3.7530	3.7531	-0.8337	6.80	0.81	-0.750			
0.2275	14558.14	3.7500	3.7500	-0.8355	6.81	0.82	-0.750			
0.2300	14718.61	3.7470	3.7468	-0.8306	6.82	0.83	-0.750			
0.2324	14875.37	3.7440	3.7440	-0.8273	6.83	0.84	-0.750			
0.2349	15035.46	3.7410	3.7410	-0.8414	6.84	0.85	-0.750			
0.2375	15198.74	3.7380	3.7380	-0.8464	6.85	0.86	-0.750			
0.2400	15361.72	3.7350	3.7348	-0.8570	6.86	0.87	-0.750			
0.2426	15525.91	3.7320	3.7320	-0.8564	6.87	0.88	-0.750			
0.2452	15693.44	3.7290	3.7290	-0.8541	6.88	0.89	-0.750			
0.2478	15858.38	3.7260	3.7259	-0.8588	6.89	0.90	-0.750			
0.2503	16021.26	3.7230	3.7230	-0.8559	6.89	0.90	-0.750			
0.2529	16182.92	3.7200	3.7200	-0.8622	6.90	0.91	-0.750			
0.2555	16349.11	3.7170	3.7169	-0.8699	6.92	0.93	-0.750			
0.2581	16517.55	3.7140	3.7140	-0.8692	6.93	0.94	-0.750			
0.2608	16689.07	3.7110	3.7109	-0.8745	6.94	0.95	-0.750			
0.2634	16860.49	3.7080	3.7081	-0.8773	6.95	0.96	-0.750			
0.2660	17025.40	3.7050	3.7050	-0.8771	6.95	0.96	-0.750			
0.2686	17191.84	3.7020	3.7020	-0.8745	6.96	0.97	-0.750			
0.2712	17357.88	3.6990	3.6989	-0.8791	6.97	0.98	-0.750			
0.2739	17527.61	3.6960	3.6960	-0.8921	6.98	0.99	-0.750			
0.2765	17699.12	3.6930	3.6931	-0.9076	6.99	1.00	-0.750			
0.2793	17877.65	3.6900	3.6901	-0.9180	7.00	1.01	-0.750			
0.2821	18053.13	3.6870	3.6869	-0.9242	7.01	1.02	-0.750			
0.2849	18231.28	3.6840	3.6838	-0.9289	7.01	1.02	-0.750			
0.2877	18412.10	3.6810	3.6810	-0.9339	7.02	1.03	-0.750			
0.2905	18591.56	3.6780	3.6780	-0.9375	7.03	1.04	-0.750			
0.2933	18772.31	3.6750	3.6749	-0.9447	7.04	1.05	-0.750			
0.2961	18951.83	3.6720	3.6721	-0.9451	7.05	1.06	-0.750			
0.2990	19137.65	3.6690	3.6692	-0.9575	7.06	1.07	-0.750			
0.3019	19321.56	3.6660	3.6660	-0.9601	7.07	1.08	-0.750			
0.3048	19507.03	3.6630	3.6630	-0.9680	7.08	1.09	-0.750			
0.3077	19693.12	3.6600	3.6600	-0.9700	7.09	1.10	-0.750			
0.3106	19878.95	3.6570	3.6570	-0.9802	7.11	1.12	-0.750			
0.3135	20064.71	3.6540	3.6539	-0.9863	7.11	1.12	-0.750			
0.3165	20254.81	3.6510	3.6510	-0.9957	7.12	1.13	-0.750			
0.3195	20448.62	3.6480	3.6479	-1.0053	7.12	1.13	-0.750			
0.3226	20643.73	3.6450	3.6450	-1.0057	7.13	1.14	-0.750			
0.3256	20838.89	3.6420	3.6420	-1.0118	7.13	1.14	-0.750			
0.3287	21034.19	3.6390	3.6391	-1.0145	7.14	1.15	-0.750			
0.3316	21224.78	3.6360	3.6359	-1.0133	7.15	1.16	-0.750			
0.3347	21419.53	3.6330	3.6330	-1.0209	7.16	1.17	-0.750			
0.3377	21615.84	3.6300	3.6301	-1.0393	7.17	1.18	-0.750			
0.3409	21817.31	3.6270	3.6269	-1.0535	7.18	1.19	-0.750			
0.3441	22021.57	3.6240	3.6240	-1.0679	7.19	1.20	-0.750			
0.3473	22228.14	3.6210	3.6209	-1.0767	7.20	1.21	-0.750			
0.3506	22437.17	3.6180	3.6181	-1.0856	7.20	1.21	-0.750			
0.3539	22646.68	3.6150	3.6150	-1.0890	7.21	1.22	-0.750			
0.3571	22857.00	3.6120	3.6120	-1.0923	7.22	1.23	-0.750			
0.3604	23064.61	3.6090	3.6090	-1.0941	7.23	1.24	-0.750			
0.3637	23274.42	3.6060	3.6061	-1.1118	7.23	1.24	-0.750			
0.3670	23486.75	3.6030	3.6030	-1.1250	7.24	1.25	-0.750			
0.3704	23703.08	3.6000	3.5999	-1.1478	7.24	1.25	-0.750			
0.3739	23928.00	3.5970	3.5970	-1.1567	7.25	1.26	-0.750			
0.3774	24156.75	3.5940	3.5940	-1.1563	7.26	1.27	-0.750			
0.3810	24384.45	3.5910	3.5907	-1.1555	7.27	1.28	-0.750			
0.3844	24604.52	3.5880	3.5879	-1.1445	7.27	1.28	-0.750	0.433	0.862	
0.3878	24819.31	3.5850	3.5849	-1.1449	7.28	1.29	-0.750			
0.3912	25035.51	3.5820	3.5819	-1.1414	7.29	1.30	-0.750			
0.3945	25247.84	3.5790	3.5789	-1.1424	7.30	1.31	-0.750			
0.3980	25471.80	3.5760	3.5761	-1.1648	7.31	1.32	-0.750			
0.4016	25702.60	3.5730	3.5730	-1.2073	7.31	1.32	-0.750			
0.4052	25933.93	3.5700	3.5698	-1.2306	7.32	1.33	-0.750			
0.4090	26175.29	3.5670	3.5670	-1.2444	7.33	1.34	-0.750			
0.4127	26415.50	3.5640	3.5641	-1.2517	7.33	1.34	-0.750			
0.4167	26666.07	3.5610	3.5610	-1.2632	7.34	1.35	-0.750			
0.4204	26907.73	3.5580	3.5581	-1.2573	7.35	1.36	-0.750			
0.4241	27142.71	3.5550	3.5551	-1.2487	7.36	1.37	-0.750			
0.4279	27382.44	3.5520	3.5520	-1.2587	7.37	1.38	-0.750			
0.4315	27619.00	3.5490	3.5489	-1.2691	7.37	1.38	-0.750			
0.4354	27866.79	3.5460	3.5460	-1.2973	7.38	1.39	-0.750			
0.4394	28121.82	3.5430	3.5430	-1.3100	7.39	1.40	-0.750			
0.4434	28377.57	3.5400	3.5399	-1.3168	7.40	1.41	-0.750			
0.4473	28630.16	3.5370	3.5372	-1.3265	7.41	1.42	-0.750			
0.4514	28887.30	3.5340	3.5340	-1.3244	7.42	1.43	-0.750			
0.4554	29142.59	3.5310	3.5309	-1.3172	7.42	1.43	-0.750			
0.4592	29391.43	3.5280	3.5280	-1.3177	7.43	1.44	-0.750			
0.4632	29644.71	3.5250	3.5251	-1.3191	7.44	1.45	-0.750			
0.4672	29898.70	3.5220	3.5219	-1.3249	7.45	1.46	-0.750			
0.4711	30152.77	3.5190	3.5189	-1.3240	7.46	1.47	-0.750			
0.4751	30405.64	3.5160	3.5161	-1.3275	7.47	1.48	-0.750			
0.4792	30666.46	3.5130	3.5130	-1.3258	7.49	1.50	-0.750			
0.4832	30923.16	3.5100	3.5099	-1.3229	7.50	1.51	-0.750			
0.4871	31172.75	3.5070	3.5073	-1.3271	7.51	1.52	-0.750			
0.4911	31427.63	3.5040	3.5038	-1.3269	7.52	1.53	-0.750			
0.4950	31680.18	3.5010	3.5009	-1.3293	7.52	1.53	-0.750			
0.4990	31937.40	3.4980	3.4982	-1.3262	7.53	1.54	-0.750			
0.5031	32197.25	3.4950	3.4950	-1.3298	7.54	1.55	-0.750			
0.5070	32450.52	3.4920	3.4920	-1.3281	7.56	1.57	-0.750			
0.5110	32701.12	3.4890	3.4891	-1.3225	7.57	1.58	-0.750			
0.5149	32956.19	3.4860	3.4859	-1.3181	7.58	1.59	-0.750			
0.5189	33209.65	3.4830	3.4829	-1.3118	7.59	1.60	-0.750			
0.5228	33457.27	3.4800	3.4801	-1.3176	7.60	1.61	-0.750			
0.5268	33714.17	3.4770	3.4771	-1.3169	7.61	1.62	-0.750			
0.5308	33968.92	3.4740	3.4738	-1.3118	7.62	1.63	-0.750			
0.5347	34218.37	3.4710	3.4710	-1.3028	7.63	1.64	-0.750			
0.5386	34468.84	3.4680	3.4681	-1.2892	7.65	1.66	-0.750			
0.5425	34720.74	3.4650	3.4649	-1.2843	7.66	1.67	-0.750			
0.5463	34963.54	3.4620	3.4620	-1.2614	7.68	1.69	-0.750			
0.5499	35195.79	3.4590	3.4591	-1.2557	7.69	1.70	-0.750			
0.5537	35439.99	3.4560	3.4560	-1.2657	7.70	1.71	-0.750			
0.5576	35684.76	3.4530	3.4528	-1.2529	7.71	1.72	-0.750			
0.5613	35925.96	3.4500	3.4502	-1.2402	7.72	1.73	-0.750			
0.5651	36168.43	3.4470	3.4471	-1.2338	7.73	1.74	-0.750			
0.5688	36403.62	3.4440	3.4440	-1.2084	7.74	1.75	-0.750			
0.5724	36633.14	3.4410	3.4409	-1.1838	7.75	1.76	-0.750			
0.5758	36854.36	3.4380	3.4381	-1.1652	7.77	1.78	-0.750			
0.5793	37075.15	3.4350	3.4350	-1.1601	7.78	1.79	-0.750			
0.5828	37297.05	3.4320	3.4320	-1.1587	7.79	1.80	-0.750			
0.5862	37517.66	3.4290	3.4290	-1.1518	7.81	1.82	-0.750			
0.5897	37740.19	3.4260	3.4260	-1.1527	7.82	1.83	-0.750			
0.5932	37965.90	3.4230	3.4229	-1.1423	7.84	1.85	-0.750			
0.5966	38185.59	3.4200	3.4200	-1.1194	7.85	1.86	-0.750			
0.6000	38397.54	3.4170	3.4171	-1.1008	7.86	1.87	-0.750			
0.6032	38606.31	3.4140	3.4139	-1.0805	7.88	1.89	-0.750			
0.6064	38812.61	3.4110	3.4109	-1.0613	7.90	1.91	-0.750			
0.6096	39011.87	3.4080	3.4079	-1.0393	7.92	1.93	-0.750			
0.6127	39213.18	3.4050	3.4051	-1.0279	7.93	1.94	-0.750			
0.6158	39409.20	3.4020	3.4020	-1.0120	7.95	1.96	-0.750			
0.6188	39601.15	3.3990	3.3989	-0.9960	7.96	1.97	-0.750			
0.6217	39788.79	3.3960	3.3961	-0.9706	7.97	1.98	-0.750			
0.6246	39975.46	3.3930	3.3931	-0.9552	7.98	1.99	-0.750			
0.6275	40157.50	3.3900	3.3900	-0.9407	8.00	2.01	-0.750			
0.6302	40335.98	3.3870	3.3871	-0.9183	8.01	2.02	-0.750			
0.6330	40510.51	3.3840	3.3840	-0.8972	8.02	2.03	-0.750			
0.6356	40680.07	3.3810	3.3810	-0.8805	8.04	2.05	-0.750			
0.6382	40846.92	3.3780	3.3779	-0.8639	8.05	2.06	-0.750			
0.6408	41011.06	3.3750	3.3749	-0.8478	8.07	2.08	-0.750			
0.6433	41172.49	3.3720	3.3720	-0.8235	8.08	2.09	-0.750			
0.6458	41328.65	3.3690	3.3690	-0.8028	8.10	2.11	-0.750			
0.6482	41481.97	3.3660	3.3659	-0.7847	8.11	2.12	-0.750			
0.6505	41630.68	3.3630	3.3628	-0.7608	8.13	2.14	-0.750			
0.6527	41772.45	3.3600	3.3600	-0.7463	8.14	2.15	-0.750			
0.6549	41913.86	3.3570	3.3570	-0.7284	8.16	2.17	-0.750			
0.6571	42051.75	3.3540	3.3539	-0.7146	8.17	2.18	-0.750			
0.6592	42189.82	3.3510	3.3510	-0.7007	8.18	2.19	-0.750			
0.6613	42322.01	3.3480	3.3481	-0.6845	8.20	2.21	-0.750			
0.6633	42452.28	3.3450	3.3449	-0.6687	8.21	2.22	-0.750			
0.6653	42578.96	3.3420	3.3420	-0.6554	8.22	2.23	-0.750			
0.6672	42701.70	3.3390	3.3390	-0.6380	8.24	2.25	-0.750			
0.6691	42823.63	3.3360	3.3360	-0.6248	8.25	2.26	-0.750			
0.6710	42942.40	3.3330	3.3330	-0.6081	8.26	2.27	-0.750			
0.6728	43058.29	3.3300	3.3300	-0.5945	8.27	2.28	-0.750			
0.6745	43170.19	3.3270	3.3271	-0.5809	8.28	2.29	-0.750			
0.6763	43280.80	3.3240	3.3239	-0.5676	8.30	2.31	-0.750			
0.6779	43387.28	3.3210	3.3210	-0.5523	8.31	2.32	-0.750			
0.6796	43492.56	3.3180	3.3181	-0.5434	8.32	2.33	-0.750			
0.6812	43594.82	3.3150	3.3150	-0.5369	8.34	2.35	-0.750			
0.6828	43696.91	3.3120	3.3118	-0.5297	8.35	2.36	-0.750			
0.6843	43797.78	3.3090	3.3090	-0.5187	8.36	2.37	-0.750			
0.6859	43897.25	3.3060	3.3059	-0.5067	8.37	2.38	-0.750			
0.6874	43994.82	3.3030	3.3031	-0.5013	8.39	2.40	-0.750			
0.6889	44090.55	3.3000	3.3000	-0.4881	8.40	2.41	-0.750			
0.6903	44181.73	3.2970	3.2969	-0.4754	8.41	2.42	-0.750			
0.6917	44270.36	3.2940	3.2940	-0.4647	8.43	2.44	-0.750			
0.6931	44359.58	3.2910	3.2910	-0.4592	8.44	2.45	-0.750			
0.6945	44448.10	3.2880	3.2879	-0.4516	8.45	2.46	-0.750			
0.6958	44533.56	3.2850	3.2850	-0.4426	8.46	2.47	-0.750			
0.6971	44616.88	3.2820	3.2821	-0.4323	8.47	2.48	-0.750			
0.6984	44700.06	3.2790	3.2789	-0.4264	8.49	2.50	-0.750			
0.6997	44780.29	3.2760	3.2760	-0.4178	8.50	2.51	-0.750			
0.7009	44859.41	3.2730	3.2730	-0.4125	8.51	2.52	-0.750			
0.7022	44938.01	3.2700	3.2700	-0.4081	8.52	2.53	-0.750			
0.7034	45016.73	3.2670	3.2669	-0.4015	8.53	2.54	-0.750			
0.7046	45093.38	3.2640	3.2640	-0.3937	8.54	2.55	-0.750			
0.7058	45168.59	3.2610	3.2611	-0.3886	8.55	2.56	-0.750			
0.7069	45242.20	3.2580	3.2580	-0.3823	8.56	2.57	-0.750			
0.7080	45314.86	3.2550	3.2549	-0.3738	8.57	2.58	-0.750			
0.7092	45385.91	3.2520	3.2519	-0.3671	8.58	2.59	-0.750			
0.7102	45455.95	3.2490	3.2490	-0.3610	8.59	2.60	-0.750			
0.7113	45525.40	3.2460	3.2460	-0.3539	8.61	2.62	-0.750			
0.7124	45592.29	3.2430	3.2429	-0.3486	8.62	2.63	-0.750			
0.7134	45657.86	3.2400	3.2400	-0.3417	8.63	2.64	-0.750			
0.7144	45722.08	3.2370	3.2370	-0.3376	8.64	2.65	-0.750			
0.7154	45787.07	3.2340	3.2340	-0.3348	8.65	2.66	-0.750			
0.7164	45851.52	3.2310	3.2309	-0.3305	8.66	2.67	-0.750			
0.7174	45914.74	3.2280	3.2280	-0.3263	8.67	2.68	-0.750			
0.7184	45976.99	3.2250	3.2251	-0.3240	8.68	2.69	-0.750			
0.7193	46038.10	3.2220	3.2220	-0.3187	8.69	2.70	-0.750			
0.7203	46099.28	3.2190	3.2189	-0.3149	8.70	2.71	-0.750			
0.7212	46159.24	3.2160	3.2160	-0.3103	8.71	2.72	-0.750			
0.7222	46218.92	3.2130	3.2130	-0.3082	8.72	2.73	-0.750			
0.7231	46277.78	3.2100	3.2100	-0.3043	8.73	2.74	-0.750			
0.7240	46336.21	3.2070	3.2069	-0.2992	8.74	2.75	-0.750			
0.7249	46393.11	3.2040	3.2040	-0.2931	8.75	2.76	-0.750			
0.7258	46448.56	3.2010	3.2011	-0.2875	8.76	2.77	-0.750			
0.7266	46503.87	3.1980	3.1980	-0.2840	8.77	2.78	-0.750			
0.7275	46557.38	3.1950	3.1949	-0.2793	8.78	2.79	-0.750			
0.7283	46609.67	3.1920	3.1920	-0.2752	8.79	2.80	-0.750			
0.7291	46662.18	3.1890	3.1890	-0.2734	8.80	2.81	-0.750			
0.7299	46714.73	3.1860	3.1859	-0.2725	8.81	2.82	-0.750			
0.7307	46767.10	3.1830	3.1830	-0.2711	8.82	2.83	-0.750			
0.7316	46819.33	3.1800	3.1799	-0.2683	8.83	2.84	-0.750			
0.7324	46870.68	3.1770	3.1770	-0.2653	8.84	2.85	-0.750			
0.7331	46921.24	3.1740	3.1740	-0.2623	8.85	2.86	-0.750			
0.7339	46971.30	3.1710	3.1710	-0.2593	8.86	2.87	-0.750			
0.7347	47020.58	3.1680	3.1679	-0.2561	8.87	2.88	-0.750			
0.7355	47069.54	3.1650	3.1650	-0.2530	8.88	2.89	-0.750			
0.7362	47117.98	3.1620	3.1620	-0.2507	8.89	2.90	-0.750			
0.7370	47165.86	3.1590	3.1590	-0.2481	8.89	2.90	-0.750			
0.7377	47213.61	3.1560	3.1560	-0.2453	8.90	2.91	-0.750			
0.7384	47259.94	3.1530	3.1530	-0.2427	8.91	2.92	-0.750			
0.7392	47305.98	3.1500	3.1500	-0.2401	8.92	2.93	-0.750			
0.7399	47351.78	3.1470	3.1470	-0.2381	8.93	2.94	-0.750			
0.7406	47397.43	3.1440	3.1439	-0.2357	8.94	2.95	-0.750			
0.7413	47442.59	3.1410	3.1410	-0.2341	8.95	2.96	-0.750			
0.7420	47487.34	3.1380	3.1381	-0.2320	8.96	2.97	-0.750			
0.7427	47531.65	3.1350	3.1350	-0.2301	8.97	2.98	-0.750			
0.7434	47576.18	3.1320	3.1319	-0.2275	8.98	2.99	-0.750			
0.7440	47618.78	3.1290	3.1290	-0.2247	8.99	3.00	-0.750			
0.7447	47661.78	3.1260	3.1260	-0.2232	8.99	3.00	-0.750			
0.7454	47704.41	3.1230	3.1231	-0.2221	9.00	3.01	-0.750			
0.7460	47747.18	3.1200	3.1198	-0.2202	9.01	3.02	-0.750			
0.7467	47789.01	3.1170	3.1170	-0.2184	9.02	3.03	-0.750			
0.7474	47830.93	3.1140	3.1141	-0.2171	9.03	3.04	-0.750			
0.7480	47872.54	3.1110	3.1111	-0.2158	9.04	3.05	-0.750			
0.7487	47914.58	3.1080	3.1078	-0.2131	9.04	3.05	-0.750			
0.7493	47954.62	3.1050	3.1051	-0.2098	9.05	3.06	-0.750			
0.7499	47994.50	3.1020	3.1021	-0.2084	9.06	3.07	-0.750			
0.7505	48034.23	3.0990	3.0990	-0.2068	9.07	3.08	-0.750			
0.7512	48073.77	3.0960	3.0959	-0.2056	9.09	3.10	-0.750			
0.7518	48112.86	3.0930	3.0930	-0.2039	9.10	3.11	-0.750			
0.7524	48152.07	3.0900	3.0899	-0.2031	9.11	3.12	-0.750			
0.7530	48190.98	3.0870	3.0872	-0.2022	9.12	3.13	-0.750			
0.7536	48230.11	3.0840	3.0840	-0.2024	9.13	3.14	-0.750			
0.7542	48268.64	3.0810	3.0810	-0.2011	9.14	3.15	-0.750			
0.7548	48307.35	3.0780	3.0779	-0.1991	9.15	3.16	-0.750			
0.7554	48345.43	3.0750	3.0751	-0.1976	9.16	3.17	-0.750			
0.7560	48383.55	3.0720	3.0720	-0.1959	9.17	3.18	-0.750			
0.7566	48421.19	3.0690	3.0691	-0.1939	9.18	3.19	-0.750			
0.7572	48457.77	3.0660	3.0660	-0.1930	9.19	3.20	-0.750			
0.7577	48494.22	3.0630	3.0631	-0.1916	9.19	3.20	-0.750			
0.7583	48531.10	3.0600	3.0599	-0.1909	9.20	3.21	-0.750			
0.7589	48567.75	3.0570	3.0569	-0.1908	9.21	3.22	-0.750			
0.7594	48604.63	3.0540	3.0540	-0.1902	9.22	3.23	-0.750			
0.7600	48641.08	3.0510	3.0510	-0.1895	9.23	3.24	-0.750			
0.7606	48678.11	3.0480	3.0480	-0.1884	9.24	3.25	-0.750			
0.7612	48713.71	3.0450	3.0449	-0.1865	9.24	3.25	-0.750			
0.7617	48749.07	3.0420	3.0420	-0.1842	9.25	3.26	-0.750			
0.7623	48784.24	3.0390	3.0391	-0.1826	9.26	3.27	-0.750			
0.7628	48819.38	3.0360	3.0359	-0.1807	9.27	3.28	-0.750			
0.7633	48853.54	3.0330	3.0330	-0.1797	9.28	3.29	-0.750			
0.7639	48887.72	3.0300	3.0301	-0.1783	9.29	3.30	-0.750			
0.7644	48921.56	3.0270	3.0271	-0.1780	9.30	3.31	-0.750			
0.7649	48956.01	3.0240	3.0238	-0.1778	9.31	3.32	-0.750			
0.7655	48989.66	3.0210	3.0210	-0.1767	9.32	3.33	-0.750			
0.7660	49023.62	3.0180	3.0181	-0.1771	9.33	3.34	-0.750			
0.7665	49058.03	3.0150	3.0150	-0.1763	9.34	3.35	-0.750			
0.7671	49092.30	3.0120	3.0120	-0.1758	9.35	3.36	-0.750			
0.7676	49125.68	3.0090	3.0090	-0.1740	9.35	3.36	-0.750			
0.7681	49158.96	3.0060	3.0060	-0.1726	9.36	3.37	-0.750			
0.7686	49191.96	3.0030	3.0029	-0.1707	9.37	3.38	-0.750			
