Ah_balance (normalized)	Ah_balance (mAh)	Voltage - fit (V)	Voltage -  interpolate (V)	dQ/dV (1/V)	Temperature (°C)	Temperature - diff (°C)	Current (C)	R_DC 0ms (mOhm)	R_DC 50ms (mOhm)	R_DC 50 ms PEC (mOhm)
0.0000	0.00	4.0920	4.1285	0.0000	5.99	0.00	-0.751			
0.0000	0.00	4.0950	4.1285	0.0000	5.99	0.00	-0.751			
0.0000	0.00	4.0980	4.1285	0.0000	5.99	0.00	-0.751			
0.0002	15.50	4.0890	4.0886	-0.0535	5.99	0.00	-0.750			
0.0004	28.56	4.0860	4.0856	-0.0795	5.99	0.00	-0.750			
0.0007	46.32	4.0830	4.0829	-0.1054	5.99	0.00	-0.750			
0.0011	69.20	4.0800	4.0800	-0.1307	5.99	0.00	-0.750			
0.0015	97.24	4.0770	4.0769	-0.1522	5.99	0.00	-0.750			
0.0020	128.79	4.0740	4.0741	-0.1762	5.99	0.00	-0.750			
0.0026	165.65	4.0710	4.0711	-0.2011	5.99	0.00	-0.750			
0.0032	206.03	4.0680	4.0682	-0.2255	5.99	0.00	-0.750			
0.0039	251.14	4.0650	4.0649	-0.2491	5.99	0.00	-0.750			
0.0047	301.41	4.0620	4.0620	-0.2721	5.99	0.00	-0.750			
0.0056	355.84	4.0590	4.0590	-0.2978	5.99	0.00	-0.750			
0.0065	415.62	4.0560	4.0560	-0.3218	5.99	0.00	-0.750			
0.0075	480.99	4.0530	4.0530	-0.3428	5.99	0.00	-0.750			
0.0086	548.38	4.0500	4.0500	-0.3656	5.99	0.00	-0.750			
0.0097	620.35	4.0470	4.0471	-0.3870	5.99	0.00	-0.750			
0.0109	697.15	4.0440	4.0439	-0.4095	5.99	0.00	-0.750			
0.0122	777.94	4.0410	4.0409	-0.4303	5.99	0.00	-0.750			
0.0135	861.80	4.0380	4.0381	-0.4520	5.99	0.00	-0.750			
0.0149	951.44	4.0350	4.0350	-0.4753	5.99	0.00	-0.750			
0.0163	1044.98	4.0320	4.0319	-0.4958	5.99	0.00	-0.750			
0.0178	1142.20	4.0290	4.0290	-0.5113	5.99	0.00	-0.750			
0.0194	1242.97	4.0260	4.0260	-0.5275	5.99	0.00	-0.750			
0.0210	1345.98	4.0230	4.0229	-0.5402	5.99	0.00	-0.750			
0.0227	1451.63	4.0200	4.0202	-0.5538	5.99	0.00	-0.750			
0.0243	1557.60	4.0170	4.0170	-0.5695	5.99	0.00	-0.750			
0.0260	1667.16	4.0140	4.0139	-0.5862	6.00	0.01	-0.750			
0.0278	1781.32	4.0110	4.0110	-0.6035	6.00	0.01	-0.750			
0.0297	1899.53	4.0080	4.0080	-0.6211	6.00	0.01	-0.750			
0.0316	2023.60	4.0050	4.0050	-0.6358	6.00	0.01	-0.750			
0.0335	2146.64	4.0020	4.0020	-0.6486	6.01	0.02	-0.750			
0.0355	2272.40	3.9990	3.9990	-0.6567	6.01	0.02	-0.750			
0.0375	2398.12	3.9960	3.9960	-0.6638	6.02	0.03	-0.750			
0.0395	2525.25	3.9930	3.9930	-0.6717	6.02	0.03	-0.750			
0.0415	2655.11	3.9900	3.9901	-0.6795	6.03	0.04	-0.750			
0.0436	2789.12	3.9870	3.9869	-0.6854	6.04	0.05	-0.750			
0.0457	2923.47	3.9840	3.9840	-0.6895	6.04	0.05	-0.750			
0.0477	3054.20	3.9810	3.9811	-0.6834	6.05	0.06	-0.750			
0.0498	3186.26	3.9780	3.9781	-0.6837	6.06	0.07	-0.750			
0.0518	3314.93	3.9750	3.9749	-0.6881	6.06	0.07	-0.750			
0.0538	3445.26	3.9720	3.9718	-0.6955	6.07	0.08	-0.750			
0.0559	3579.32	3.9690	3.9690	-0.7012	6.08	0.09	-0.750			
0.0581	3715.73	3.9660	3.9660	-0.7082	6.08	0.09	-0.750			
0.0602	3854.79	3.9630	3.9632	-0.7147	6.09	0.10	-0.750			
0.0624	3992.87	3.9600	3.9601	-0.7191	6.10	0.11	-0.750			
0.0645	4129.25	3.9570	3.9570	-0.7243	6.11	0.12	-0.750			
0.0667	4267.85	3.9540	3.9539	-0.7282	6.11	0.12	-0.750			
0.0689	4407.73	3.9510	3.9510	-0.7335	6.12	0.13	-0.750			
0.0711	4550.94	3.9480	3.9479	-0.7367	6.13	0.14	-0.750			
0.0734	4695.51	3.9450	3.9451	-0.7375	6.14	0.15	-0.750			
0.0756	4837.86	3.9420	3.9420	-0.7293	6.15	0.16	-0.750			
0.0777	4975.24	3.9390	3.9390	-0.7291	6.16	0.17	-0.750			
0.0799	5112.95	3.9360	3.9361	-0.7247	6.17	0.18	-0.750			
0.0821	5251.94	3.9330	3.9330	-0.7327	6.18	0.19	-0.750			
0.0842	5391.85	3.9300	3.9300	-0.7407	6.19	0.20	-0.750			
0.0865	5536.02	3.9270	3.9270	-0.7450	6.20	0.21	-0.750			
0.0888	5681.37	3.9240	3.9240	-0.7521	6.21	0.22	-0.750			
0.0910	5827.17	3.9210	3.9210	-0.7506	6.22	0.23	-0.750			
0.0933	5969.71	3.9180	3.9179	-0.7479	6.22	0.23	-0.750			
0.0955	6114.61	3.9150	3.9151	-0.7509	6.23	0.24	-0.750			
0.0978	6257.53	3.9120	3.9120	-0.7516	6.24	0.25	-0.750			
0.1000	6400.49	3.9090	3.9090	-0.7567	6.25	0.26	-0.750			
0.1023	6547.88	3.9060	3.9060	-0.7631	6.26	0.27	-0.750			
0.1046	6693.93	3.9030	3.9030	-0.7684	6.28	0.29	-0.750			
0.1069	6843.61	3.9000	3.9000	-0.7724	6.29	0.30	-0.750			
0.1093	6992.82	3.8970	3.8969	-0.7673	6.30	0.31	-0.750			
0.1116	7140.81	3.8940	3.8940	-0.7658	6.31	0.32	-0.750			
0.1138	7286.03	3.8910	3.8910	-0.7669	6.31	0.32	-0.750			
0.1161	7431.22	3.8880	3.8881	-0.7630	6.32	0.33	-0.750			
0.1184	7577.51	3.8850	3.8849	-0.7690	6.33	0.34	-0.750			
0.1207	7725.22	3.8820	3.8820	-0.7665	6.33	0.34	-0.750			
0.1230	7874.12	3.8790	3.8790	-0.7696	6.34	0.35	-0.750			
0.1254	8023.14	3.8760	3.8761	-0.7731	6.36	0.37	-0.750			
0.1277	8170.10	3.8730	3.8730	-0.7705	6.37	0.38	-0.750			
0.1299	8315.96	3.8700	3.8701	-0.7682	6.38	0.39	-0.750			
0.1323	8464.52	3.8670	3.8669	-0.7762	6.40	0.41	-0.750			
0.1346	8611.79	3.8640	3.8641	-0.7781	6.41	0.42	-0.750			
0.1369	8764.25	3.8610	3.8610	-0.7830	6.42	0.43	-0.750			
0.1393	8914.87	3.8580	3.8580	-0.7877	6.42	0.43	-0.750			
0.1417	9066.68	3.8550	3.8550	-0.7888	6.43	0.44	-0.750			
0.1440	9218.91	3.8520	3.8520	-0.7844	6.44	0.45	-0.750			
0.1464	9369.75	3.8490	3.8489	-0.7799	6.45	0.46	-0.750			
0.1487	9518.70	3.8460	3.8461	-0.7752	6.46	0.47	-0.750			
0.1510	9666.58	3.8430	3.8430	-0.7728	6.47	0.48	-0.750			
0.1533	9813.77	3.8400	3.8399	-0.7732	6.48	0.49	-0.750			
0.1556	9960.11	3.8370	3.8370	-0.7746	6.50	0.51	-0.750			
0.1579	10108.75	3.8340	3.8340	-0.7814	6.51	0.52	-0.750			
0.1603	10259.79	3.8310	3.8310	-0.7954	6.52	0.53	-0.750			
0.1627	10414.36	3.8280	3.8280	-0.8048	6.53	0.54	-0.750			
0.1652	10571.13	3.8250	3.8249	-0.8070	6.54	0.55	-0.750			
0.1676	10728.10	3.8220	3.8221	-0.8029	6.55	0.56	-0.750			
0.1700	10882.81	3.8190	3.8191	-0.7992	6.56	0.57	-0.750			
0.1724	11035.09	3.8160	3.8161	-0.7981	6.57	0.58	-0.750			
0.1748	11186.87	3.8130	3.8128	-0.7921	6.58	0.59	-0.750			
0.1771	11337.03	3.8100	3.8100	-0.7979	6.59	0.60	-0.750			
0.1796	11492.16	3.8070	3.8070	-0.8005	6.60	0.61	-0.750			
0.1820	11650.21	3.8040	3.8038	-0.8022	6.62	0.63	-0.750			
0.1844	11804.15	3.8010	3.8013	-0.8004	6.63	0.64	-0.750			
0.1868	11955.64	3.7980	3.7980	-0.7991	6.64	0.65	-0.750			
0.1892	12107.00	3.7950	3.7950	-0.8014	6.65	0.66	-0.750			
0.1915	12258.62	3.7920	3.7919	-0.8046	6.67	0.68	-0.750			
0.1940	12415.57	3.7890	3.7890	-0.8140	6.68	0.69	-0.750			
0.1965	12573.90	3.7860	3.7860	-0.8130	6.70	0.71	-0.750			
0.1989	12732.28	3.7830	3.7830	-0.8125	6.71	0.72	-0.750			
0.2014	12887.35	3.7800	3.7801	-0.8111	6.72	0.73	-0.750			
0.2038	13043.49	3.7770	3.7771	-0.8057	6.73	0.74	-0.750			
0.2062	13196.90	3.7740	3.7739	-0.7969	6.74	0.75	-0.750			
0.2086	13348.48	3.7710	3.7709	-0.7969	6.75	0.76	-0.750			
0.2110	13501.36	3.7680	3.7680	-0.8028	6.75	0.76	-0.750			
0.2133	13654.29	3.7650	3.7649	-0.8166	6.76	0.77	-0.750			
0.2158	13811.89	3.7620	3.7620	-0.8217	6.77	0.78	-0.750			
0.2183	13970.26	3.7590	3.7589	-0.8290	6.78	0.79	-0.750			
0.2208	14133.80	3.7560	3.7560	-0.8346	6.79	0.80	-0.750			
0.2234	14297.24	3.7530	3.7531	-0.8347	6.81	0.82	-0.750			
0.2259	14454.96	3.7500	3.7500	-0.8352	6.82	0.83	-0.750			
0.2283	14613.07	3.7470	3.7469	-0.8353	6.83	0.84	-0.750			
0.2308	14771.71	3.7440	3.7440	-0.8372	6.84	0.85	-0.750			
0.2334	14935.37	3.7410	3.7408	-0.8405	6.85	0.86	-0.750			
0.2359	15097.99	3.7380	3.7380	-0.8453	6.86	0.87	-0.750			
0.2385	15261.32	3.7350	3.7351	-0.8499	6.87	0.88	-0.750			
0.2410	15425.09	3.7320	3.7319	-0.8467	6.88	0.89	-0.750			
0.2435	15584.81	3.7290	3.7290	-0.8386	6.89	0.90	-0.750			
0.2460	15746.39	3.7260	3.7260	-0.8460	6.91	0.92	-0.750			
0.2486	15907.60	3.7230	3.7227	-0.8531	6.91	0.92	-0.750			
0.2511	16072.22	3.7200	3.7200	-0.8659	6.92	0.93	-0.750			
0.2537	16238.50	3.7170	3.7169	-0.8722	6.93	0.94	-0.750			
0.2564	16407.80	3.7140	3.7140	-0.8811	6.94	0.95	-0.750			
0.2591	16581.90	3.7110	3.7108	-0.8867	6.95	0.96	-0.750			
0.2618	16752.05	3.7080	3.7080	-0.8896	6.96	0.97	-0.750			
0.2644	16922.22	3.7050	3.7050	-0.8891	6.97	0.98	-0.750			
0.2671	17091.52	3.7020	3.7021	-0.8882	6.98	0.99	-0.750			
0.2697	17259.66	3.6990	3.6989	-0.8940	7.00	1.01	-0.750			
0.2724	17434.46	3.6960	3.6963	-0.9024	7.01	1.02	-0.750			
0.2751	17606.97	3.6930	3.6931	-0.9158	7.02	1.03	-0.750			
0.2779	17788.06	3.6900	3.6898	-0.9259	7.03	1.04	-0.750			
0.2807	17965.96	3.6870	3.6870	-0.9243	7.04	1.05	-0.750			
0.2835	18144.14	3.6840	3.6840	-0.9292	7.05	1.06	-0.750			
0.2863	18322.57	3.6810	3.6811	-0.9320	7.07	1.08	-0.750			
0.2891	18500.56	3.6780	3.6779	-0.9364	7.08	1.09	-0.750			
0.2919	18683.52	3.6750	3.6750	-0.9367	7.09	1.10	-0.750			
0.2947	18861.23	3.6720	3.6720	-0.9342	7.10	1.11	-0.750			
0.2976	19044.76	3.6690	3.6692	-0.9402	7.11	1.12	-0.750			
0.3004	19224.01	3.6660	3.6660	-0.9466	7.12	1.13	-0.750			
0.3032	19404.88	3.6630	3.6629	-0.9475	7.12	1.13	-0.750			
0.3060	19584.19	3.6600	3.6601	-0.9529	7.13	1.14	-0.750			
0.3089	19768.97	3.6570	3.6569	-0.9695	7.14	1.15	-0.750			
0.3118	19955.49	3.6540	3.6542	-0.9850	7.15	1.16	-0.750			
0.3148	20147.76	3.6510	3.6509	-0.9903	7.16	1.17	-0.750			
0.3178	20339.19	3.6480	3.6480	-1.0016	7.17	1.18	-0.750			
0.3208	20533.15	3.6450	3.6450	-1.0044	7.18	1.19	-0.750			
0.3239	20729.75	3.6420	3.6420	-1.0101	7.19	1.20	-0.750			
0.3269	20922.07	3.6390	3.6389	-1.0134	7.20	1.21	-0.750			
0.3299	21115.41	3.6360	3.6361	-1.0145	7.20	1.21	-0.750			
0.3329	21308.56	3.6330	3.6329	-1.0244	7.21	1.22	-0.750			
0.3360	21505.55	3.6300	3.6301	-1.0475	7.21	1.22	-0.750			
0.3392	21708.44	3.6270	3.6270	-1.0470	7.22	1.23	-0.750			
0.3424	21911.71	3.6240	3.6239	-1.0604	7.23	1.24	-0.750			
0.3456	22118.57	3.6210	3.6211	-1.0676	7.24	1.25	-0.750			
0.3488	22325.56	3.6180	3.6178	-1.0760	7.25	1.26	-0.750			
0.3521	22531.46	3.6150	3.6149	-1.0820	7.26	1.27	-0.750			
0.3553	22737.26	3.6120	3.6121	-1.0911	7.27	1.28	-0.750			
0.3585	22944.25	3.6090	3.6089	-1.1030	7.28	1.29	-0.750			
0.3619	23163.93	3.6060	3.6058	-1.1225	7.28	1.29	-0.750			
0.3653	23379.29	3.6030	3.6030	-1.1271	7.29	1.30	-0.750			
0.3687	23597.69	3.6000	3.6000	-1.1356	7.29	1.30	-0.750			
0.3722	23817.64	3.5970	3.5973	-1.1495	7.30	1.31	-0.750			
0.3756	24039.35	3.5940	3.5938	-1.1464	7.31	1.32	-0.750			
0.3791	24260.49	3.5910	3.5910	-1.1478	7.32	1.33	-0.750			
0.3825	24478.20	3.5880	3.5896	-1.1547	7.32	1.33	-0.750	0.417	0.850	
0.3860	24705.12	3.5850	3.5849	-1.1789	7.33	1.34	-0.750			
0.3895	24930.75	3.5820	3.5819	-1.1740	7.34	1.35	-0.750			
0.3930	25154.01	3.5790	3.5789	-1.1872	7.35	1.36	-0.750			
0.3966	25383.21	3.5760	3.5761	-1.1996	7.36	1.37	-0.750			
0.4003	25620.88	3.5730	3.5727	-1.2062	7.37	1.38	-0.750			
0.4040	25853.52	3.5700	3.5700	-1.2054	7.38	1.39	-0.750			
0.4075	26080.13	3.5670	3.5671	-1.2111	7.38	1.39	-0.750			
0.4111	26311.38	3.5640	3.5640	-1.2161	7.39	1.40	-0.750			
0.4148	26547.92	3.5610	3.5608	-1.2263	7.40	1.41	-0.750			
0.4184	26780.27	3.5580	3.5580	-1.2281	7.40	1.41	-0.750			
0.4222	27017.84	3.5550	3.5552	-1.2422	7.41	1.42	-0.750			
0.4260	27261.66	3.5520	3.5519	-1.2621	7.42	1.43	-0.750			
0.4297	27502.17	3.5490	3.5490	-1.2714	7.43	1.44	-0.750			
0.4335	27746.72	3.5460	3.5460	-1.2808	7.45	1.46	-0.750			
0.4374	27996.30	3.5430	3.5429	-1.2929	7.45	1.46	-0.750			
0.4414	28247.16	3.5400	3.5400	-1.2967	7.46	1.47	-0.750			
0.4452	28494.76	3.5370	3.5371	-1.3066	7.47	1.48	-0.750			
0.4492	28746.76	3.5340	3.5339	-1.3034	7.47	1.48	-0.750			
0.4531	28998.77	3.5310	3.5310	-1.3000	7.48	1.49	-0.750			
0.4569	29243.51	3.5280	3.5280	-1.3102	7.49	1.50	-0.750			
0.4609	29497.53	3.5250	3.5251	-1.3175	7.50	1.51	-0.750			
0.4649	29752.68	3.5220	3.5219	-1.3188	7.51	1.52	-0.750			
0.4688	30005.12	3.5190	3.5188	-1.3276	7.52	1.53	-0.750			
0.4728	30259.21	3.5160	3.5163	-1.3312	7.53	1.54	-0.750			
0.4769	30521.23	3.5130	3.5130	-1.3366	7.54	1.55	-0.750			
0.4809	30780.04	3.5100	3.5099	-1.3314	7.55	1.56	-0.750			
0.4849	31030.47	3.5070	3.5072	-1.3366	7.56	1.57	-0.750			
0.4889	31288.47	3.5040	3.5039	-1.3415	7.57	1.58	-0.750			
0.4929	31546.40	3.5010	3.5009	-1.3359	7.58	1.59	-0.750			
0.4969	31803.41	3.4980	3.4982	-1.3275	7.59	1.60	-0.750			
0.5010	32063.37	3.4950	3.4950	-1.3263	7.60	1.61	-0.750			
0.5050	32317.78	3.4920	3.4920	-1.3090	7.61	1.62	-0.750			
0.5088	32564.54	3.4890	3.4892	-1.2900	7.62	1.63	-0.750			
0.5126	32806.30	3.4860	3.4859	-1.2834	7.63	1.64	-0.750			
0.5164	33051.47	3.4830	3.4830	-1.2797	7.64	1.65	-0.750			
0.5202	33292.52	3.4800	3.4799	-1.2864	7.65	1.66	-0.750			
0.5241	33542.74	3.4770	3.4770	-1.2847	7.66	1.67	-0.750			
0.5281	33796.90	3.4740	3.4740	-1.2873	7.67	1.68	-0.750			
0.5319	34043.90	3.4710	3.4710	-1.2821	7.68	1.69	-0.750			
0.5358	34290.56	3.4680	3.4681	-1.2740	7.69	1.70	-0.750			
0.5396	34533.84	3.4650	3.4650	-1.2647	7.71	1.72	-0.750			
0.5434	34774.74	3.4620	3.4619	-1.2533	7.72	1.73	-0.750			
0.5471	35012.19	3.4590	3.4592	-1.2428	7.73	1.74	-0.750			
0.5508	35254.24	3.4560	3.4559	-1.2404	7.74	1.75	-0.750			
0.5545	35490.42	3.4530	3.4530	-1.2303	7.75	1.76	-0.750			
0.5582	35724.18	3.4500	3.4500	-1.2157	7.76	1.77	-0.750			
0.5619	35960.18	3.4470	3.4469	-1.2145	7.78	1.79	-0.750			
0.5655	36190.14	3.4440	3.4439	-1.1985	7.79	1.80	-0.750			
0.5690	36417.99	3.4410	3.4411	-1.1878	7.80	1.81	-0.750			
0.5726	36643.78	3.4380	3.4381	-1.1834	7.81	1.82	-0.750			
0.5761	36873.19	3.4350	3.4349	-1.1803	7.82	1.83	-0.750			
0.5797	37099.24	3.4320	3.4320	-1.1677	7.83	1.84	-0.750			
0.5832	37321.98	3.4290	3.4291	-1.1539	7.84	1.85	-0.750			
0.5866	37544.58	3.4260	3.4260	-1.1475	7.86	1.87	-0.750			
0.5901	37764.19	3.4230	3.4230	-1.1270	7.87	1.88	-0.750			
0.5934	37978.08	3.4200	3.4199	-1.1072	7.88	1.89	-0.750			
0.5967	38187.94	3.4170	3.4171	-1.0939	7.90	1.91	-0.750			
0.6000	38396.88	3.4140	3.4140	-1.0768	7.91	1.92	-0.750			
0.6032	38603.05	3.4110	3.4110	-1.0593	7.92	1.93	-0.750			
0.6063	38803.40	3.4080	3.4080	-1.0438	7.94	1.95	-0.750			
0.6094	39001.39	3.4050	3.4049	-1.0267	7.95	1.96	-0.750			
0.6125	39199.60	3.4020	3.4020	-1.0138	7.96	1.97	-0.750			
0.6155	39392.59	3.3990	3.3990	-0.9897	7.98	1.99	-0.750			
0.6185	39581.42	3.3960	3.3960	-0.9662	7.99	2.00	-0.750			
0.6213	39766.16	3.3930	3.3930	-0.9425	8.01	2.02	-0.750			
0.6241	39943.11	3.3900	3.3899	-0.9211	8.02	2.03	-0.750			
0.6268	40115.85	3.3870	3.3870	-0.8978	8.03	2.04	-0.750			
0.6294	40283.84	3.3840	3.3840	-0.8799	8.04	2.05	-0.750			
0.6320	40450.35	3.3810	3.3809	-0.8660	8.06	2.07	-0.750			
0.6347	40618.38	3.3780	3.3782	-0.8557	8.07	2.08	-0.750			
0.6372	40782.17	3.3750	3.3750	-0.8376	8.08	2.09	-0.750			
0.6397	40942.33	3.3720	3.3720	-0.8270	8.10	2.11	-0.750			
0.6422	41099.65	3.3690	3.3690	-0.8057	8.11	2.12	-0.750			
0.6446	41251.94	3.3660	3.3659	-0.7884	8.12	2.13	-0.750			
0.6469	41401.24	3.3630	3.3631	-0.7701	8.14	2.15	-0.750			
0.6492	41547.63	3.3600	3.3600	-0.7503	8.15	2.16	-0.750			
0.6514	41690.55	3.3570	3.3570	-0.7275	8.17	2.18	-0.750			
0.6536	41828.30	3.3540	3.3540	-0.7120	8.18	2.19	-0.750			
0.6556	41960.76	3.3510	3.3511	-0.6949	8.19	2.20	-0.750			
0.6577	42093.78	3.3480	3.3479	-0.6827	8.21	2.22	-0.750			
0.6597	42222.36	3.3450	3.3451	-0.6680	8.22	2.23	-0.750			
0.6617	42350.12	3.3420	3.3420	-0.6530	8.23	2.24	-0.750			
0.6637	42475.01	3.3390	3.3391	-0.6391	8.25	2.26	-0.750			
0.6656	42596.99	3.3360	3.3360	-0.6279	8.26	2.27	-0.750			
0.6674	42715.14	3.3330	3.3331	-0.6109	8.27	2.28	-0.750			
0.6692	42830.68	3.3300	3.3299	-0.5942	8.28	2.29	-0.750			
0.6710	42942.73	3.3270	3.3270	-0.5837	8.29	2.30	-0.750			
0.6727	43053.43	3.3240	3.3241	-0.5722	8.30	2.31	-0.750			
0.6744	43161.51	3.3210	3.3210	-0.5631	8.32	2.33	-0.750			
0.6761	43269.01	3.3180	3.3180	-0.5535	8.33	2.34	-0.750			
0.6777	43374.47	3.3150	3.3149	-0.5417	8.34	2.35	-0.750			
0.6793	43478.29	3.3120	3.3120	-0.5335	8.35	2.36	-0.750			
0.6809	43579.52	3.3090	3.3090	-0.5213	8.36	2.37	-0.750			
0.6825	43677.91	3.3060	3.3060	-0.5097	8.37	2.38	-0.750			
0.6840	43775.47	3.3030	3.3029	-0.4991	8.38	2.39	-0.750			
0.6855	43869.57	3.3000	3.3000	-0.4866	8.40	2.41	-0.750			
0.6869	43962.03	3.2970	3.2970	-0.4776	8.41	2.42	-0.750			
0.6883	44053.27	3.2940	3.2940	-0.4682	8.42	2.43	-0.750			
0.6897	44140.66	3.2910	3.2910	-0.4581	8.44	2.45	-0.750			
0.6911	44228.52	3.2880	3.2879	-0.4510	8.45	2.46	-0.750			
0.6924	44313.07	3.2850	3.2851	-0.4437	8.46	2.47	-0.750			
0.6937	44397.89	3.2820	3.2820	-0.4393	8.47	2.48	-0.750			
0.6950	44481.96	3.2790	3.2790	-0.4325	8.49	2.50	-0.750			
0.6963	44564.36	3.2760	3.2758	-0.4261	8.50	2.51	-0.750			
0.6976	44646.22	3.2730	3.2731	-0.4182	8.49	2.50	-0.750			
0.6988	44725.79	3.2700	3.2699	-0.4084	8.51	2.52	-0.750			
0.7001	44804.72	3.2670	3.2670	-0.3976	8.52	2.53	-0.750			
0.7012	44879.06	3.2640	3.2641	-0.3872	8.53	2.54	-0.750			
0.7024	44950.76	3.2610	3.2610	-0.3817	8.54	2.55	-0.750			
0.7035	45023.06	3.2580	3.2579	-0.3780	8.55	2.56	-0.750			
0.7046	45093.80	3.2550	3.2549	-0.3743	8.56	2.57	-0.750			
0.7057	45166.14	3.2520	3.2520	-0.3717	8.58	2.59	-0.750			
0.7069	45238.58	3.2490	3.2491	-0.3688	8.59	2.60	-0.750			
0.7080	45309.35	3.2460	3.2460	-0.3646	8.60	2.61	-0.750			
0.7090	45378.39	3.2430	3.2430	-0.3578	8.61	2.62	-0.750			
0.7101	45446.73	3.2400	3.2399	-0.3515	8.61	2.62	-0.750			
0.7111	45513.28	3.2370	3.2369	-0.3447	8.62	2.63	-0.750			
0.7122	45578.83	3.2340	3.2341	-0.3403	8.64	2.65	-0.750			
0.7132	45644.10	3.2310	3.2310	-0.3373	8.65	2.66	-0.750			
0.7142	45707.94	3.2280	3.2279	-0.3311	8.66	2.67	-0.750			
0.7152	45770.94	3.2250	3.2251	-0.3256	8.67	2.68	-0.750			
0.7161	45832.44	3.2220	3.2221	-0.3218	8.68	2.69	-0.750			
0.7171	45894.12	3.2190	3.2187	-0.3182	8.69	2.70	-0.750			
0.7180	45954.95	3.2160	3.2161	-0.3140	8.70	2.71	-0.750			
0.7190	46014.35	3.2130	3.2130	-0.3094	8.71	2.72	-0.750			
0.7199	46073.95	3.2100	3.2100	-0.3053	8.72	2.73	-0.750			
0.7208	46132.55	3.2070	3.2070	-0.3018	8.73	2.74	-0.750			
0.7217	46189.79	3.2040	3.2039	-0.2964	8.74	2.75	-0.750			
0.7226	46246.04	3.2010	3.2011	-0.2906	8.74	2.75	-0.750			
0.7235	46301.14	3.1980	3.1979	-0.2878	8.75	2.76	-0.750			
0.7243	46355.91	3.1950	3.1951	-0.2841	8.76	2.77	-0.750			
0.7252	46409.68	3.1920	3.1919	-0.2792	8.77	2.78	-0.750			
0.7260	46463.42	3.1890	3.1890	-0.2764	8.78	2.79	-0.750			
0.7268	46516.16	3.1860	3.1861	-0.2734	8.79	2.80	-0.750			
0.7276	46568.65	3.1830	3.1830	-0.2708	8.80	2.81	-0.750			
0.7284	46620.09	3.1800	3.1799	-0.2685	8.81	2.82	-0.750			
0.7292	46671.18	3.1770	3.1770	-0.2653	8.82	2.83	-0.750			
0.7300	46722.05	3.1740	3.1740	-0.2635	8.83	2.84	-0.750			
0.7308	46772.64	3.1710	3.1710	-0.2618	8.84	2.85	-0.750			
0.7316	46823.05	3.1680	3.1681	-0.2575	8.85	2.86	-0.750			
0.7324	46871.87	3.1650	3.1649	-0.2558	8.86	2.87	-0.750			
0.7331	46921.03	3.1620	3.1621	-0.2528	8.86	2.87	-0.750			
0.7339	46969.09	3.1590	3.1589	-0.2492	8.87	2.88	-0.750			
0.7346	47016.63	3.1560	3.1561	-0.2468	8.88	2.89	-0.750			
0.7354	47063.66	3.1530	3.1530	-0.2453	8.89	2.90	-0.750			
0.7361	47110.84	3.1500	3.1499	-0.2425	8.90	2.91	-0.750			
0.7368	47157.39	3.1470	3.1469	-0.2399	8.91	2.92	-0.750			
0.7375	47202.30	3.1440	3.1440	-0.2366	8.92	2.93	-0.750			
0.7383	47248.11	3.1410	3.1411	-0.2359	8.93	2.94	-0.750			
0.7390	47293.23	3.1380	3.1379	-0.2341	8.94	2.95	-0.750			
0.7397	47337.96	3.1350	3.1349	-0.2318	8.95	2.96	-0.750			
0.7403	47382.05	3.1320	3.1320	-0.2290	8.96	2.97	-0.750			
0.7410	47425.37	3.1290	3.1291	-0.2275	8.96	2.97	-0.750			
0.7417	47469.36	3.1260	3.1260	-0.2270	8.97	2.98	-0.750			
0.7424	47512.73	3.1230	3.1230	-0.2252	8.98	2.99	-0.750			
0.7431	47555.56	3.1200	3.1200	-0.2233	8.99	3.00	-0.750			
0.7437	47598.29	3.1170	3.1170	-0.2219	9.00	3.01	-0.750			
0.7444	47641.18	3.1140	3.1140	-0.2198	9.01	3.02	-0.750			
0.7450	47683.11	3.1110	3.1110	-0.2185	9.02	3.03	-0.750			
0.7457	47724.84	3.1080	3.1081	-0.2162	9.03	3.04	-0.750			
0.7463	47765.67	3.1050	3.1050	-0.2147	9.04	3.05	-0.750			
0.7470	47807.12	3.1020	3.1020	-0.2123	9.05	3.06	-0.750			
0.7476	47847.38	3.0990	3.0989	-0.2108	9.06	3.07	-0.750			
0.7482	47887.71	3.0960	3.0961	-0.2094	9.06	3.07	-0.750			
0.7489	47927.76	3.0930	3.0931	-0.2077	9.07	3.08	-0.750			
0.7495	47968.04	3.0900	3.0899	-0.2058	9.08	3.09	-0.750			
0.7501	48006.59	3.0870	3.0869	-0.2035	9.09	3.10	-0.750			
0.7507	48045.57	3.0840	3.0842	-0.2025	9.10	3.11	-0.750			
0.7513	48084.20	3.0810	3.0810	-0.2011	9.11	3.12	-0.750			
0.7519	48122.95	3.0780	3.0778	-0.2009	9.12	3.13	-0.750			
0.7525	48161.23	3.0750	3.0750	-0.1984	9.13	3.14	-0.750			
0.7531	48199.24	3.0720	3.0721	-0.1976	9.14	3.15	-0.750			
0.7537	48237.41	3.0690	3.0690	-0.1963	9.15	3.16	-0.750			
0.7543	48275.24	3.0660	3.0659	-0.1954	9.16	3.17	-0.750			
0.7549	48311.89	3.0630	3.0631	-0.1933	9.16	3.17	-0.750			
0.7555	48348.95	3.0600	3.0599	-0.1928	9.17	3.18	-0.750			
0.7560	48385.86	3.0570	3.0571	-0.1923	9.18	3.19	-0.750			
0.7566	48422.86	3.0540	3.0540	-0.1904	9.19	3.20	-0.750			
0.7572	48459.40	3.0510	3.0511	-0.1905	9.20	3.21	-0.750			
0.7577	48495.96	3.0480	3.0480	-0.1891	9.21	3.22	-0.750			
0.7583	48532.24	3.0450	3.0450	-0.1878	9.22	3.23	-0.750			
0.7589	48568.17	3.0420	3.0419	-0.1863	9.23	3.24	-0.750			
0.7594	48603.58	3.0390	3.0390	-0.1846	9.23	3.24	-0.750			
0.7600	48638.83	3.0360	3.0360	-0.1840	9.24	3.25	-0.750			
0.7605	48674.03	3.0330	3.0331	-0.1832	9.25	3.26	-0.750			
0.7611	48709.46	3.0300	3.0299	-0.1822	9.26	3.27	-0.750			
0.7616	48744.20	3.0270	3.0269	-0.1797	9.27	3.28	-0.750			
0.7622	48778.30	3.0240	3.0240	-0.1798	9.28	3.29	-0.750			
0.7627	48812.76	3.0210	3.0212	-0.1792	9.29	3.30	-0.750			
0.7632	48846.89	3.0180	3.0180	-0.1788	9.30	3.31	-0.750			
0.7638	48881.05	3.0150	3.0148	-0.1783	9.31	3.32	-0.750			
0.7643	48915.00	3.0120	3.0120	-0.1781	9.32	3.33	-0.750			
0.7648	48949.28	3.0090	3.0091	-0.1790	9.33	3.34	-0.750			
0.7654	48983.96	3.0060	3.0060	-0.1790	9.34	3.35	-0.750			
0.7659	49018.30	3.0030	3.0030	-0.1720	9.35	3.36	-0.750			
