Ah_balance (normalized)	Ah_balance (mAh)	Voltage - fit (V)	Voltage -  interpolate (V)	dQ/dV (1/V)	Temperature (°C)	Temperature - diff (°C)	Current (C)	R_DC 0ms (mOhm)	R_DC 50ms (mOhm)	R_DC 50 ms PEC (mOhm)
0.0001	9.36	4.1090	4.1082	-0.0473	5.98	-0.01	-0.750			
0.0003	22.36	4.1060	4.1054	-0.0826	5.98	-0.01	-0.750			
0.0007	42.05	4.1030	4.1028	-0.1117	5.98	-0.01	-0.750			
0.0010	65.94	4.1000	4.0999	-0.1372	5.98	-0.01	-0.750			
0.0015	94.90	4.0970	4.0971	-0.1615	5.98	-0.01	-0.750			
0.0020	128.24	4.0940	4.0942	-0.1865	5.98	-0.01	-0.750			
0.0026	166.83	4.0910	4.0909	-0.2123	5.99	-0.00	-0.750			
0.0033	210.17	4.0880	4.0880	-0.2331	5.99	-0.00	-0.750			
0.0040	257.30	4.0850	4.0851	-0.2538	5.99	-0.00	-0.750			
0.0048	307.65	4.0820	4.0821	-0.2779	5.99	-0.00	-0.750			
0.0057	363.36	4.0790	4.0790	-0.3009	5.99	0.00	-0.750			
0.0066	422.55	4.0760	4.0761	-0.3251	5.99	0.00	-0.750			
0.0076	487.11	4.0730	4.0730	-0.3482	5.99	0.00	-0.750			
0.0087	556.55	4.0700	4.0701	-0.3733	6.00	0.01	-0.750			
0.0099	631.54	4.0670	4.0670	-0.3991	6.00	0.01	-0.750			
0.0111	710.53	4.0640	4.0641	-0.4227	6.00	0.01	-0.750			
0.0124	793.00	4.0610	4.0610	-0.4461	6.00	0.01	-0.750			
0.0138	882.18	4.0580	4.0579	-0.4659	6.00	0.01	-0.750			
0.0152	973.17	4.0550	4.0549	-0.4870	6.01	0.02	-0.750			
0.0167	1068.76	4.0520	4.0521	-0.5095	6.01	0.02	-0.750			
0.0182	1167.73	4.0490	4.0491	-0.5357	6.01	0.02	-0.750			
0.0199	1272.58	4.0460	4.0460	-0.5624	6.01	0.02	-0.750			
0.0216	1384.14	4.0430	4.0429	-0.5853	6.02	0.03	-0.750			
0.0234	1498.77	4.0400	4.0401	-0.6067	6.02	0.03	-0.750			
0.0253	1622.17	4.0370	4.0369	-0.6223	6.02	0.03	-0.750			
0.0272	1742.91	4.0340	4.0340	-0.6282	6.02	0.03	-0.750			
0.0291	1864.37	4.0310	4.0310	-0.6378	6.03	0.04	-0.750			
0.0310	1986.07	4.0280	4.0281	-0.6441	6.03	0.04	-0.750			
0.0330	2109.18	4.0250	4.0249	-0.6537	6.04	0.05	-0.750			
0.0349	2236.03	4.0220	4.0220	-0.6648	6.04	0.05	-0.750			
0.0369	2364.66	4.0190	4.0190	-0.6738	6.05	0.06	-0.750			
0.0390	2497.34	4.0160	4.0160	-0.6823	6.05	0.06	-0.750			
0.0411	2628.25	4.0130	4.0131	-0.6941	6.06	0.07	-0.750			
0.0432	2761.88	4.0100	4.0099	-0.7004	6.06	0.07	-0.750			
0.0453	2896.66	4.0070	4.0070	-0.7083	6.07	0.08	-0.750			
0.0474	3032.84	4.0040	4.0039	-0.7194	6.08	0.09	-0.750			
0.0496	3172.98	4.0010	4.0011	-0.7318	6.09	0.10	-0.750			
0.0518	3314.87	3.9980	3.9980	-0.7409	6.10	0.11	-0.750			
0.0541	3459.86	3.9950	3.9948	-0.7459	6.10	0.11	-0.750			
0.0563	3602.45	3.9920	3.9921	-0.7476	6.11	0.12	-0.750			
0.0586	3749.05	3.9890	3.9890	-0.7491	6.12	0.13	-0.750			
0.0608	3893.75	3.9860	3.9860	-0.7484	6.12	0.13	-0.750			
0.0631	4035.48	3.9830	3.9829	-0.7393	6.13	0.14	-0.750			
0.0653	4176.73	3.9800	3.9800	-0.7417	6.13	0.14	-0.750			
0.0675	4318.04	3.9770	3.9771	-0.7432	6.14	0.15	-0.750			
0.0697	4460.63	3.9740	3.9739	-0.7509	6.15	0.16	-0.750			
0.0719	4604.74	3.9710	3.9707	-0.7535	6.15	0.16	-0.750			
0.0742	4751.56	3.9680	3.9681	-0.7623	6.16	0.17	-0.750			
0.0765	4897.58	3.9650	3.9652	-0.7670	6.17	0.18	-0.750			
0.0789	5048.68	3.9620	3.9619	-0.7766	6.18	0.19	-0.750			
0.0812	5198.68	3.9590	3.9589	-0.7766	6.18	0.19	-0.750			
0.0835	5345.92	3.9560	3.9561	-0.7780	6.19	0.20	-0.750			
0.0859	5495.55	3.9530	3.9531	-0.7775	6.20	0.21	-0.750			
0.0882	5646.30	3.9500	3.9499	-0.7770	6.21	0.22	-0.750			
0.0906	5797.31	3.9470	3.9470	-0.7731	6.21	0.22	-0.750			
0.0929	5943.43	3.9440	3.9440	-0.7674	6.22	0.23	-0.750			
0.0951	6087.88	3.9410	3.9411	-0.7750	6.23	0.24	-0.750			
0.0975	6238.17	3.9380	3.9379	-0.7848	6.23	0.24	-0.750			
0.0998	6387.84	3.9350	3.9349	-0.7878	6.24	0.25	-0.750			
0.1022	6542.61	3.9320	3.9320	-0.7908	6.25	0.26	-0.750			
0.1047	6697.60	3.9290	3.9291	-0.7916	6.26	0.27	-0.750			
0.1070	6849.54	3.9260	3.9260	-0.7919	6.27	0.28	-0.750			
0.1094	6999.26	3.9230	3.9231	-0.7929	6.27	0.28	-0.750			
0.1117	7151.01	3.9200	3.9198	-0.7857	6.28	0.29	-0.750			
0.1141	7300.52	3.9170	3.9169	-0.7851	6.29	0.30	-0.750			
0.1164	7451.37	3.9140	3.9141	-0.7883	6.30	0.31	-0.750			
0.1188	7603.51	3.9110	3.9110	-0.7911	6.30	0.31	-0.750			
0.1212	7755.00	3.9080	3.9079	-0.8023	6.31	0.32	-0.750			
0.1236	7908.38	3.9050	3.9049	-0.8059	6.32	0.33	-0.750			
0.1260	8063.39	3.9020	3.9021	-0.8060	6.33	0.34	-0.750			
0.1285	8222.45	3.8990	3.8990	-0.8154	6.34	0.35	-0.750			
0.1309	8379.25	3.8960	3.8961	-0.8200	6.35	0.36	-0.750			
0.1334	8536.72	3.8930	3.8930	-0.8232	6.36	0.37	-0.750			
0.1358	8693.57	3.8900	3.8899	-0.8251	6.36	0.37	-0.750			
0.1383	8852.27	3.8870	3.8870	-0.8210	6.37	0.38	-0.750			
0.1408	9011.82	3.8840	3.8840	-0.8248	6.37	0.38	-0.750			
0.1433	9170.77	3.8810	3.8810	-0.8225	6.38	0.39	-0.750			
0.1458	9329.74	3.8780	3.8779	-0.8150	6.39	0.40	-0.750			
0.1482	9484.82	3.8750	3.8750	-0.8138	6.40	0.41	-0.750			
0.1506	9639.09	3.8720	3.8721	-0.8157	6.41	0.42	-0.750			
0.1531	9795.62	3.8690	3.8689	-0.8180	6.42	0.43	-0.750			
0.1555	9953.33	3.8660	3.8663	-0.8236	6.43	0.44	-0.750			
0.1580	10111.85	3.8630	3.8630	-0.8235	6.44	0.45	-0.750			
0.1605	10271.01	3.8600	3.8600	-0.8244	6.45	0.46	-0.750			
0.1630	10430.32	3.8570	3.8569	-0.8262	6.45	0.46	-0.750			
0.1654	10588.42	3.8540	3.8541	-0.8290	6.46	0.47	-0.750			
0.1679	10746.14	3.8510	3.8510	-0.8252	6.47	0.48	-0.750			
0.1704	10904.97	3.8480	3.8480	-0.8294	6.48	0.49	-0.750			
0.1729	11063.79	3.8450	3.8449	-0.8396	6.49	0.50	-0.750			
0.1754	11227.39	3.8420	3.8420	-0.8416	6.49	0.50	-0.750			
0.1780	11389.93	3.8390	3.8389	-0.8442	6.50	0.51	-0.750			
0.1805	11550.29	3.8360	3.8363	-0.8510	6.51	0.52	-0.750			
0.1830	11713.91	3.8330	3.8330	-0.8568	6.52	0.53	-0.750			
0.1857	11882.10	3.8300	3.8298	-0.8657	6.53	0.54	-0.750			
0.1883	12049.20	3.8270	3.8269	-0.8655	6.54	0.55	-0.750			
0.1909	12217.71	3.8240	3.8240	-0.8656	6.55	0.56	-0.750			
0.1935	12384.54	3.8210	3.8212	-0.8625	6.56	0.57	-0.750			
0.1961	12548.70	3.8180	3.8179	-0.8555	6.57	0.58	-0.750			
0.1986	12708.67	3.8150	3.8149	-0.8557	6.58	0.59	-0.750			
0.2011	12868.75	3.8120	3.8120	-0.8567	6.59	0.60	-0.750			
0.2037	13038.58	3.8090	3.8090	-0.8708	6.59	0.60	-0.750			
0.2064	13208.97	3.8060	3.8060	-0.8737	6.60	0.61	-0.750			
0.2090	13377.74	3.8030	3.8030	-0.8751	6.61	0.62	-0.750			
0.2117	13546.01	3.8000	3.8001	-0.8683	6.62	0.63	-0.750			
0.2142	13711.99	3.7970	3.7970	-0.8586	6.63	0.64	-0.750			
0.2168	13874.64	3.7940	3.7939	-0.8589	6.64	0.65	-0.750			
0.2193	14036.30	3.7910	3.7909	-0.8558	6.64	0.65	-0.750			
0.2219	14202.50	3.7880	3.7880	-0.8622	6.65	0.66	-0.750			
0.2245	14368.43	3.7850	3.7850	-0.8705	6.66	0.67	-0.750			
0.2271	14536.97	3.7820	3.7820	-0.8724	6.67	0.68	-0.750			
0.2298	14706.40	3.7790	3.7791	-0.8787	6.68	0.69	-0.750			
0.2324	14873.96	3.7760	3.7759	-0.8836	6.69	0.70	-0.750			
0.2350	15042.92	3.7730	3.7731	-0.8850	6.69	0.70	-0.750			
0.2377	15212.67	3.7700	3.7699	-0.8899	6.70	0.71	-0.750			
0.2404	15384.52	3.7670	3.7668	-0.8916	6.71	0.72	-0.750			
0.2431	15556.33	3.7640	3.7644	-0.8964	6.72	0.73	-0.750			
0.2458	15730.62	3.7610	3.7610	-0.8991	6.73	0.74	-0.750			
0.2485	15904.47	3.7580	3.7580	-0.8957	6.74	0.75	-0.750			
0.2512	16076.07	3.7550	3.7550	-0.8938	6.75	0.76	-0.750			
0.2538	16244.24	3.7520	3.7521	-0.9015	6.75	0.76	-0.750			
0.2565	16416.40	3.7490	3.7489	-0.9100	6.76	0.77	-0.750			
0.2593	16592.92	3.7460	3.7459	-0.9199	6.77	0.78	-0.750			
0.2621	16771.31	3.7430	3.7430	-0.9199	6.78	0.79	-0.750			
0.2649	16954.08	3.7400	3.7400	-0.9216	6.79	0.80	-0.750			
0.2677	17132.05	3.7370	3.7372	-0.9111	6.80	0.81	-0.750			
0.2704	17302.77	3.7340	3.7339	-0.9118	6.81	0.82	-0.750			
0.2731	17475.45	3.7310	3.7312	-0.9074	6.82	0.83	-0.750			
0.2757	17647.75	3.7280	3.7278	-0.9051	6.83	0.84	-0.750			
0.2785	17823.98	3.7250	3.7251	-0.9169	6.83	0.84	-0.750			
0.2813	18000.30	3.7220	3.7222	-0.9212	6.84	0.85	-0.750			
0.2840	18176.23	3.7190	3.7189	-0.9332	6.85	0.86	-0.750			
0.2868	18356.41	3.7160	3.7159	-0.9421	6.86	0.87	-0.750			
0.2897	18538.28	3.7130	3.7129	-0.9438	6.86	0.87	-0.750			
0.2925	18721.52	3.7100	3.7102	-0.9525	6.87	0.88	-0.750			
0.2954	18907.59	3.7070	3.7070	-0.9609	6.88	0.89	-0.750			
0.2983	19092.97	3.7040	3.7040	-0.9546	6.89	0.90	-0.750			
0.3012	19275.96	3.7010	3.7009	-0.9448	6.90	0.91	-0.750			
0.3040	19454.50	3.6980	3.6981	-0.9442	6.91	0.92	-0.750			
0.3068	19634.98	3.6950	3.6950	-0.9532	6.91	0.92	-0.750			
0.3097	19817.89	3.6920	3.6919	-0.9681	6.92	0.93	-0.750			
0.3125	20003.06	3.6890	3.6890	-0.9774	6.92	0.93	-0.750			
0.3155	20192.96	3.6860	3.6859	-0.9909	6.93	0.94	-0.750			
0.3185	20386.25	3.6830	3.6831	-1.0068	6.93	0.94	-0.750			
0.3216	20583.10	3.6800	3.6800	-1.0164	6.94	0.95	-0.750			
0.3247	20778.04	3.6770	3.6770	-1.0150	6.95	0.96	-0.750			
0.3277	20972.09	3.6740	3.6739	-1.0176	6.95	0.96	-0.750			
0.3308	21169.37	3.6710	3.6713	-1.0216	6.96	0.97	-0.750			
0.3338	21365.52	3.6680	3.6680	-1.0312	6.97	0.98	-0.750			
0.3369	21562.98	3.6650	3.6650	-1.0433	6.98	0.99	-0.750			
0.3400	21763.03	3.6620	3.6620	-1.0558	6.98	0.99	-0.750			
0.3432	21966.03	3.6590	3.6591	-1.0747	6.99	1.00	-0.750			
0.3465	22176.04	3.6560	3.6560	-1.0826	7.00	1.01	-0.750			
0.3498	22387.79	3.6530	3.6529	-1.0862	7.01	1.02	-0.750			
0.3531	22597.43	3.6500	3.6500	-1.0906	7.01	1.02	-0.750			
0.3563	22805.31	3.6470	3.6471	-1.1062	7.02	1.03	-0.750			
0.3596	23017.33	3.6440	3.6440	-1.1098	7.03	1.04	-0.750			
0.3630	23230.71	3.6410	3.6409	-1.1147	7.03	1.04	-0.750			
0.3663	23445.78	3.6380	3.6381	-1.1228	7.04	1.05	-0.750			
0.3697	23663.94	3.6350	3.6349	-1.1464	7.04	1.05	-0.750			
0.3732	23882.47	3.6320	3.6320	-1.1650	7.05	1.06	-0.750			
0.3767	24105.98	3.6290	3.6289	-1.1791	7.05	1.06	-0.750			
0.3802	24333.53	3.6260	3.6261	-1.2003	7.06	1.07	-0.750			
0.3839	24571.66	3.6230	3.6230	-1.2107	7.07	1.08	-0.750			
0.3876	24808.59	3.6200	3.6201	-1.2227	7.07	1.08	-0.750			
0.3913	25044.40	3.6170	3.6170	-1.2174	7.08	1.09	-0.750			
0.3949	25273.05	3.6140	3.6141	-1.2282	7.08	1.09	-0.750			
0.3986	25507.37	3.6110	3.6109	-1.2339	7.09	1.10	-0.750			
0.4022	25743.57	3.6080	3.6079	-1.2557	7.09	1.10	-0.750			
0.4060	25986.18	3.6050	3.6051	-1.2846	7.10	1.11	-0.750			
0.4100	26239.27	3.6020	3.6018	-1.2982	7.11	1.12	-0.750	0.420	0.989	
0.4140	26493.93	3.5990	3.5990	-1.3119	7.11	1.12	-0.750			
0.4179	26748.67	3.5960	3.5964	-1.3276	7.12	1.13	-0.750			
0.4219	27003.24	3.5930	3.5929	-1.3275	7.13	1.14	-0.750			
0.4259	27260.39	3.5900	3.5899	-1.3351	7.13	1.14	-0.750			
0.4299	27511.22	3.5870	3.5872	-1.3384	7.14	1.15	-0.750			
0.4339	27772.62	3.5840	3.5840	-1.3595	7.14	1.15	-0.750			
0.4380	28032.66	3.5810	3.5809	-1.3917	7.15	1.16	-0.750			
0.4422	28302.40	3.5780	3.5780	-1.4084	7.15	1.16	-0.750			
0.4465	28576.73	3.5750	3.5748	-1.4176	7.15	1.16	-0.750			
0.4508	28853.91	3.5720	3.5723	-1.4486	7.16	1.17	-0.750			
0.4552	29135.60	3.5690	3.5693	-1.4536	7.16	1.17	-0.750			
0.4596	29414.80	3.5660	3.5658	-1.4650	7.17	1.18	-0.750			
0.4640	29693.38	3.5630	3.5629	-1.4856	7.17	1.18	-0.750			
0.4685	29982.88	3.5600	3.5600	-1.4964	7.18	1.19	-0.750			
0.4731	30276.16	3.5570	3.5572	-1.5231	7.19	1.20	-0.750			
0.4776	30565.71	3.5540	3.5540	-1.5487	7.20	1.21	-0.750			
0.4822	30863.24	3.5510	3.5510	-1.5556	7.20	1.21	-0.750			
0.4870	31168.46	3.5480	3.5478	-1.5865	7.21	1.22	-0.750			
0.4918	31474.28	3.5450	3.5452	-1.5833	7.21	1.22	-0.750			
0.4966	31783.50	3.5420	3.5419	-1.5972	7.22	1.23	-0.750			
0.5015	32094.90	3.5390	3.5392	-1.5948	7.22	1.23	-0.750			
0.5062	32394.85	3.5360	3.5360	-1.5962	7.23	1.24	-0.750			
0.5109	32698.73	3.5330	3.5331	-1.5998	7.24	1.25	-0.750			
0.5158	33009.36	3.5300	3.5299	-1.6098	7.25	1.26	-0.750			
0.5206	33320.60	3.5270	3.5269	-1.6192	7.25	1.26	-0.750			
0.5255	33634.14	3.5240	3.5239	-1.6299	7.26	1.27	-0.750			
0.5304	33944.62	3.5210	3.5212	-1.6279	7.26	1.27	-0.750			
0.5353	34256.70	3.5180	3.5180	-1.6367	7.27	1.28	-0.750			
0.5402	34573.42	3.5150	3.5149	-1.6357	7.28	1.29	-0.750			
0.5452	34891.30	3.5120	3.5120	-1.6312	7.29	1.30	-0.750			
0.5501	35204.38	3.5090	3.5090	-1.6499	7.30	1.31	-0.750			
0.5550	35519.07	3.5060	3.5060	-1.6489	7.30	1.31	-0.750			
0.5600	35838.40	3.5030	3.5028	-1.6520	7.31	1.32	-0.750			
0.5650	36157.75	3.5000	3.5000	-1.6443	7.32	1.33	-0.750			
0.5699	36475.08	3.4970	3.4971	-1.6402	7.32	1.33	-0.750			
0.5749	36792.61	3.4940	3.4940	-1.6362	7.34	1.35	-0.750			
0.5798	37108.43	3.4910	3.4909	-1.6332	7.35	1.36	-0.750			
0.5846	37411.58	3.4880	3.4880	-1.6259	7.36	1.37	-0.750			
0.5895	37727.16	3.4850	3.4849	-1.6183	7.36	1.37	-0.750			
0.5943	38036.65	3.4820	3.4821	-1.6166	7.37	1.38	-0.750			
0.5992	38351.61	3.4790	3.4789	-1.6114	7.38	1.39	-0.750			
0.6041	38660.85	3.4760	3.4759	-1.6015	7.39	1.40	-0.750			
0.6088	38966.07	3.4730	3.4729	-1.5801	7.40	1.41	-0.750			
0.6137	39274.05	3.4700	3.4698	-1.5628	7.41	1.42	-0.750			
0.6183	39569.11	3.4670	3.4672	-1.5383	7.42	1.43	-0.750			
0.6229	39866.52	3.4640	3.4638	-1.5240	7.44	1.45	-0.750			
0.6274	40156.51	3.4610	3.4611	-1.5075	7.45	1.46	-0.750			
0.6319	40444.50	3.4580	3.4581	-1.4936	7.46	1.47	-0.750			
0.6364	40729.71	3.4550	3.4549	-1.4769	7.47	1.48	-0.750			
0.6408	41012.05	3.4520	3.4520	-1.4675	7.49	1.50	-0.750			
0.6452	41292.17	3.4490	3.4490	-1.4425	7.50	1.51	-0.750			
0.6496	41573.15	3.4460	3.4459	-1.4239	7.51	1.52	-0.750			
0.6538	41844.11	3.4430	3.4431	-1.4008	7.52	1.53	-0.750			
0.6580	42108.96	3.4400	3.4400	-1.3687	7.54	1.55	-0.750			
0.6620	42371.05	3.4370	3.4369	-1.3323	7.55	1.56	-0.750			
0.6660	42620.93	3.4340	3.4339	-1.3057	7.56	1.57	-0.750			
0.6698	42866.79	3.4310	3.4310	-1.2789	7.58	1.59	-0.750			
0.6736	43112.39	3.4280	3.4280	-1.2562	7.59	1.60	-0.750			
0.6774	43350.83	3.4250	3.4249	-1.2256	7.60	1.61	-0.750			
0.6810	43581.71	3.4220	3.4222	-1.1942	7.61	1.62	-0.750			
0.6846	43811.97	3.4190	3.4191	-1.1678	7.62	1.63	-0.750			
0.6881	44035.63	3.4160	3.4159	-1.1391	7.63	1.64	-0.750			
0.6914	44248.86	3.4130	3.4128	-1.0992	7.65	1.66	-0.750			
0.6946	44456.33	3.4100	3.4100	-1.0636	7.66	1.67	-0.750			
0.6978	44656.96	3.4070	3.4070	-1.0361	7.67	1.68	-0.750			
0.7008	44854.25	3.4040	3.4041	-1.0042	7.69	1.70	-0.750			
0.7038	45041.84	3.4010	3.4009	-0.9696	7.70	1.71	-0.750			
0.7067	45226.45	3.3980	3.3980	-0.9467	7.72	1.73	-0.750			
0.7095	45405.39	3.3950	3.3950	-0.9218	7.73	1.74	-0.750			
0.7122	45580.34	3.3920	3.3919	-0.8949	7.74	1.75	-0.750			
0.7148	45748.79	3.3890	3.3890	-0.8683	7.76	1.77	-0.750			
0.7174	45915.71	3.3860	3.3863	-0.8420	7.77	1.78	-0.750			
0.7199	46076.19	3.3830	3.3828	-0.8138	7.78	1.79	-0.750			
0.7223	46227.59	3.3800	3.3800	-0.7857	7.79	1.80	-0.750			
0.7246	46373.79	3.3770	3.3771	-0.7543	7.80	1.81	-0.750			
0.7268	46514.95	3.3740	3.3740	-0.7313	7.81	1.82	-0.750			
0.7290	46655.00	3.3710	3.3709	-0.7099	7.82	1.83	-0.750			
0.7311	46788.04	3.3680	3.3680	-0.6874	7.83	1.84	-0.750			
0.7331	46918.09	3.3650	3.3650	-0.6727	7.85	1.86	-0.750			
0.7351	47045.29	3.3620	3.3620	-0.6498	7.86	1.87	-0.750			
0.7370	47167.42	3.3590	3.3590	-0.6311	7.87	1.88	-0.750			
0.7389	47288.87	3.3560	3.3559	-0.6143	7.88	1.89	-0.750			
0.7407	47404.15	3.3530	3.3532	-0.5938	7.90	1.91	-0.750			
0.7424	47516.76	3.3500	3.3501	-0.5760	7.91	1.92	-0.750			
0.7441	47625.24	3.3470	3.3469	-0.5564	7.92	1.93	-0.750			
0.7458	47729.91	3.3440	3.3439	-0.5372	7.93	1.94	-0.750			
0.7473	47830.28	3.3410	3.3410	-0.5207	7.94	1.95	-0.750			
0.7489	47927.02	3.3380	3.3381	-0.5046	7.95	1.96	-0.750			
0.7504	48023.58	3.3350	3.3350	-0.4933	7.96	1.97	-0.750			
0.7518	48116.81	3.3320	3.3318	-0.4777	7.97	1.98	-0.750			
0.7532	48207.31	3.3290	3.3291	-0.4637	7.98	1.99	-0.750			
0.7546	48294.77	3.3260	3.3261	-0.4541	7.99	2.00	-0.750			
0.7560	48381.50	3.3230	3.3230	-0.4421	7.99	2.00	-0.750			
0.7573	48465.43	3.3200	3.3199	-0.4272	8.00	2.01	-0.750			
0.7585	48544.96	3.3170	3.3171	-0.4125	8.01	2.02	-0.750			
0.7597	48622.85	3.3140	3.3141	-0.4026	8.02	2.03	-0.750			
0.7609	48699.49	3.3110	3.3109	-0.3909	8.03	2.04	-0.750			
0.7621	48772.27	3.3080	3.3080	-0.3812	8.04	2.05	-0.750			
0.7632	48843.49	3.3050	3.3051	-0.3726	8.05	2.06	-0.750			
0.7643	48915.61	3.3020	3.3020	-0.3667	8.05	2.06	-0.750			
0.7654	48985.85	3.2990	3.2990	-0.3583	8.06	2.07	-0.750			
0.7665	49053.11	3.2960	3.2960	-0.3499	8.07	2.08	-0.750			
0.7675	49119.76	3.2930	3.2930	-0.3404	8.08	2.09	-0.750			
0.7685	49184.89	3.2900	3.2899	-0.3315	8.09	2.10	-0.750			
0.7695	49246.52	3.2870	3.2870	-0.3221	8.10	2.11	-0.750			
0.7704	49307.40	3.2840	3.2842	-0.3138	8.10	2.11	-0.750			
0.7714	49367.21	3.2810	3.2809	-0.3067	8.11	2.12	-0.750			
0.7723	49425.69	3.2780	3.2780	-0.2990	8.12	2.13	-0.750			
0.7731	49481.37	3.2750	3.2750	-0.2941	8.13	2.14	-0.750			
0.7740	49537.50	3.2720	3.2720	-0.2898	8.14	2.15	-0.750			
0.7749	49592.61	3.2690	3.2689	-0.2833	8.15	2.16	-0.750			
0.7757	49646.49	3.2660	3.2660	-0.2770	8.15	2.16	-0.750			
0.7766	49699.70	3.2630	3.2631	-0.2722	8.16	2.17	-0.750			
0.7774	49751.68	3.2600	3.2599	-0.2659	8.17	2.18	-0.750			
0.7782	49802.49	3.2570	3.2570	-0.2589	8.18	2.19	-0.750			
0.7789	49850.83	3.2540	3.2540	-0.2512	8.18	2.19	-0.750			
0.7797	49898.32	3.2510	3.2512	-0.2471	8.19	2.20	-0.750			
0.7804	49945.15	3.2480	3.2480	-0.2421	8.19	2.20	-0.750			
0.7811	49990.55	3.2450	3.2449	-0.2382	8.20	2.21	-0.750			
0.7818	50035.58	3.2420	3.2421	-0.2347	8.20	2.21	-0.750			
0.7825	50080.11	3.2390	3.2390	-0.2322	8.21	2.22	-0.750			
0.7832	50125.48	3.2360	3.2359	-0.2286	8.22	2.23	-0.750			
0.7839	50169.25	3.2330	3.2330	-0.2238	8.23	2.24	-0.750			
0.7846	50211.37	3.2300	3.2301	-0.2189	8.23	2.24	-0.750			
0.7852	50252.96	3.2270	3.2271	-0.2143	8.24	2.25	-0.750			
0.7858	50293.74	3.2240	3.2239	-0.2113	8.25	2.26	-0.750			
0.7865	50333.19	3.2210	3.2209	-0.2071	8.25	2.26	-0.750			
0.7871	50372.68	3.2180	3.2179	-0.2034	8.26	2.27	-0.750			
0.7877	50411.49	3.2150	3.2150	-0.2009	8.27	2.28	-0.750			
0.7883	50450.33	3.2120	3.2121	-0.1973	8.27	2.28	-0.750			
0.7889	50487.95	3.2090	3.2091	-0.1943	8.28	2.29	-0.750			
0.7894	50524.42	3.2060	3.2060	-0.1910	8.28	2.29	-0.750			
0.7900	50560.83	3.2030	3.2030	-0.1883	8.29	2.30	-0.750			
0.7906	50596.31	3.2000	3.1998	-0.1858	8.30	2.31	-0.750			
0.7911	50632.07	3.1970	3.1971	-0.1822	8.30	2.31	-0.750			
0.7917	50667.29	3.1940	3.1940	-0.1794	8.31	2.32	-0.750			
0.7922	50701.35	3.1910	3.1910	-0.1753	8.31	2.32	-0.750			
0.7927	50734.72	3.1880	3.1881	-0.1730	8.32	2.33	-0.750			
0.7932	50766.98	3.1850	3.1850	-0.1706	8.32	2.33	-0.750			
0.7937	50799.20	3.1820	3.1819	-0.1673	8.33	2.34	-0.750			
0.7942	50831.20	3.1790	3.1789	-0.1660	8.34	2.35	-0.750			
0.7947	50862.92	3.1760	3.1760	-0.1631	8.34	2.35	-0.750			
0.7952	50894.43	3.1730	3.1732	-0.1625	8.35	2.36	-0.750			
0.7957	50925.48	3.1700	3.1700	-0.1605	8.35	2.36	-0.750			
0.7962	50956.05	3.1670	3.1670	-0.1579	8.36	2.37	-0.750			
0.7967	50985.88	3.1640	3.1639	-0.1551	8.37	2.38	-0.750			
0.7971	51015.21	3.1610	3.1611	-0.1526	8.37	2.38	-0.750			
0.7976	51044.45	3.1580	3.1581	-0.1515	8.38	2.39	-0.750			
0.7980	51073.36	3.1550	3.1549	-0.1497	8.38	2.39	-0.750			
0.7985	51102.15	3.1520	3.1519	-0.1474	8.39	2.40	-0.750			
0.7989	51129.79	3.1490	3.1489	-0.1450	8.39	2.40	-0.750			
0.7993	51157.55	3.1460	3.1461	-0.1436	8.40	2.41	-0.750			
0.7998	51184.96	3.1430	3.1431	-0.1421	8.40	2.41	-0.750			
0.8002	51212.15	3.1400	3.1399	-0.1406	8.41	2.42	-0.750			
0.8006	51239.05	3.1370	3.1370	-0.1385	8.41	2.42	-0.750			
0.8010	51265.45	3.1340	3.1341	-0.1366	8.42	2.43	-0.750			
0.8014	51291.45	3.1310	3.1310	-0.1349	8.42	2.43	-0.750			
0.8018	51317.44	3.1280	3.1281	-0.1334	8.43	2.44	-0.750			
0.8022	51342.51	3.1250	3.1250	-0.1312	8.43	2.44	-0.750			
0.8026	51367.56	3.1220	3.1219	-0.1297	8.44	2.45	-0.750			
0.8030	51392.26	3.1190	3.1190	-0.1281	8.44	2.45	-0.750			
0.8034	51416.67	3.1160	3.1160	-0.1266	8.45	2.46	-0.750			
0.8038	51440.66	3.1130	3.1130	-0.1260	8.45	2.46	-0.750			
0.8041	51464.78	3.1100	3.1101	-0.1253	8.46	2.47	-0.750			
0.8045	51488.87	3.1070	3.1070	-0.1236	8.46	2.47	-0.750			
0.8049	51512.66	3.1040	3.1038	-0.1227	8.46	2.47	-0.750			
0.8053	51536.16	3.1010	3.1011	-0.1211	8.47	2.48	-0.750			
0.8056	51559.36	3.0980	3.0980	-0.1196	8.47	2.48	-0.750			
0.8060	51581.98	3.0950	3.0951	-0.1185	8.48	2.49	-0.750			
0.8063	51604.69	3.0920	3.0919	-0.1172	8.49	2.50	-0.750			
0.8067	51627.08	3.0890	3.0889	-0.1156	8.49	2.50	-0.750			
0.8070	51648.73	3.0860	3.0860	-0.1136	8.50	2.51	-0.750			
0.8073	51670.40	3.0830	3.0830	-0.1130	8.50	2.51	-0.750			
0.8077	51692.14	3.0800	3.0801	-0.1123	8.51	2.52	-0.750			
0.8080	51713.55	3.0770	3.0771	-0.1115	8.51	2.52	-0.750			
0.8084	51734.83	3.0740	3.0740	-0.1105	8.52	2.53	-0.750			
0.8087	51756.02	3.0710	3.0708	-0.1096	8.52	2.53	-0.750			
0.8090	51776.80	3.0680	3.0681	-0.1085	8.53	2.54	-0.750			
0.8093	51797.63	3.0650	3.0650	-0.1076	8.53	2.54	-0.750			
0.8097	51818.50	3.0620	3.0620	-0.1071	8.54	2.55	-0.750			
0.8100	51838.87	3.0590	3.0591	-0.1060	8.54	2.55	-0.750			
0.8103	51858.99	3.0560	3.0561	-0.1047	8.55	2.56	-0.750			
0.8106	51879.04	3.0530	3.0529	-0.1036	8.55	2.56	-0.750			
0.8109	51898.83	3.0500	3.0500	-0.1026	8.56	2.57	-0.750			
0.8112	51918.35	3.0470	3.0470	-0.1018	8.56	2.57	-0.750			
0.8115	51937.81	3.0440	3.0441	-0.1010	8.57	2.58	-0.750			
0.8118	51957.11	3.0410	3.0410	-0.1001	8.57	2.58	-0.750			
0.8121	51976.25	3.0380	3.0380	-0.0990	8.58	2.59	-0.750			
0.8124	51995.16	3.0350	3.0349	-0.0980	8.58	2.59	-0.750			
0.8127	52013.75	3.0320	3.0321	-0.0976	8.59	2.60	-0.750			
0.8130	52032.44	3.0290	3.0291	-0.0971	8.59	2.60	-0.750			
0.8133	52050.97	3.0260	3.0260	-0.0967	8.60	2.61	-0.750			
0.8136	52069.51	3.0230	3.0229	-0.0964	8.60	2.61	-0.750			
0.8139	52088.03	3.0200	3.0201	-0.0954	8.61	2.62	-0.750			
0.8142	52106.29	3.0170	3.0169	-0.0948	8.61	2.62	-0.750			
0.8144	52124.77	3.0140	3.0140	-0.0942	8.62	2.63	-0.750			
0.8147	52142.72	3.0110	3.0111	-0.0928	8.62	2.63	-0.750			
0.8150	52160.42	3.0080	3.0081	-0.0914	8.62	2.63	-0.750			
0.8153	52177.83	3.0050	3.0050	-0.0900	8.63	2.64	-0.750			
0.8155	52195.00	3.0020	3.0020	-0.0900	8.63	2.64	-0.750			
