Ah_balance (normalized)	Ah_balance (mAh)	Voltage - fit (V)	Voltage -  interpolate (V)	dQ/dV (1/V)	Temperature (°C)	Temperature - diff (°C)	Current (C)	R_DC 0ms (mOhm)	R_DC 50ms (mOhm)	R_DC 50 ms PEC (mOhm)
0.0941	6022.09	4.1980	4.1946	0.7248	8.09	2.09	0.750	0.381	0.864	
0.0965	6175.49	4.1950	4.1970	0.8173	8.09	2.09	0.750			
0.0991	6342.06	4.1920	4.1934	0.8299	8.09	2.09	0.750			
0.1016	6503.22	4.1890	4.1897	0.8040	8.08	2.08	0.750			
0.1041	6665.58	4.1860	4.1860	0.7950	8.08	2.08	0.750			
0.1066	6820.28	4.1830	4.1827	0.7955	8.07	2.07	0.750			
0.1084	6940.53	4.1800	4.1800	0.7114	8.07	2.07	0.750			
0.1106	7076.90	4.1770	4.1771	0.7140	8.07	2.07	0.750			
0.1127	7215.51	4.1740	4.1740	0.7168	8.06	2.06	0.750			
0.1149	7353.36	4.1710	4.1711	0.7135	8.06	2.06	0.750			
0.1171	7492.60	4.1680	4.1680	0.7168	8.05	2.05	0.750			
0.1192	7627.66	4.1650	4.1650	0.7134	8.05	2.05	0.750			
0.1213	7764.41	4.1620	4.1620	0.7176	8.04	2.04	0.750			
0.1235	7901.66	4.1590	4.1590	0.7215	8.04	2.04	0.750			
0.1257	8041.83	4.1560	4.1561	0.7217	8.04	2.04	0.750			
0.1278	8181.53	4.1530	4.1529	0.7195	8.04	2.04	0.750			
0.1300	8320.01	4.1500	4.1501	0.7205	8.03	2.03	0.750			
0.1321	8455.65	4.1470	4.1471	0.7207	8.03	2.03	0.750			
0.1343	8593.58	4.1440	4.1439	0.7231	8.03	2.03	0.750			
0.1364	8730.93	4.1410	4.1409	0.7280	8.02	2.02	0.750			
0.1386	8873.33	4.1380	4.1380	0.7317	8.02	2.02	0.750			
0.1409	9017.38	4.1350	4.1350	0.7415	8.01	2.01	0.750			
0.1431	9159.47	4.1320	4.1320	0.7408	8.00	2.00	0.750			
0.1453	9300.79	4.1290	4.1292	0.7473	8.00	2.00	0.750			
0.1475	9441.47	4.1260	4.1260	0.7537	7.99	1.99	0.750			
0.1498	9587.44	4.1230	4.1229	0.7683	7.98	1.98	0.750			
0.1521	9735.45	4.1200	4.1200	0.7722	7.98	1.98	0.750			
0.1545	9887.67	4.1170	4.1171	0.7781	7.97	1.97	0.750			
0.1569	10039.82	4.1140	4.1141	0.7816	7.97	1.97	0.750			
0.1592	10191.19	4.1110	4.1108	0.7757	7.96	1.96	0.750			
0.1615	10337.92	4.1080	4.1079	0.7648	7.96	1.96	0.750			
0.1638	10484.90	4.1050	4.1050	0.7608	7.96	1.96	0.750			
0.1661	10629.51	4.1020	4.1020	0.7584	7.95	1.95	0.750			
0.1683	10773.79	4.0990	4.0990	0.7581	7.95	1.95	0.750			
0.1706	10920.16	4.0960	4.0962	0.7660	7.95	1.95	0.750			
0.1729	11066.35	4.0930	4.0929	0.7698	7.95	1.95	0.750			
0.1752	11215.23	4.0900	4.0901	0.7801	7.94	1.94	0.750			
0.1776	11365.95	4.0870	4.0870	0.7783	7.94	1.94	0.750			
0.1799	11514.36	4.0840	4.0841	0.7867	7.93	1.93	0.750			
0.1823	11664.83	4.0810	4.0811	0.8009	7.93	1.93	0.750			
0.1847	11820.55	4.0780	4.0777	0.8096	7.92	1.92	0.750			
0.1871	11977.42	4.0750	4.0750	0.8163	7.92	1.92	0.750			
0.1896	12136.05	4.0720	4.0721	0.8174	7.91	1.91	0.750			
0.1921	12295.75	4.0690	4.0692	0.8187	7.91	1.91	0.750			
0.1946	12452.31	4.0660	4.0660	0.8146	7.90	1.90	0.750			
0.1970	12608.89	4.0630	4.0626	0.8063	7.90	1.90	0.750			
0.1994	12759.88	4.0600	4.0601	0.8002	7.89	1.89	0.750			
0.2018	12915.87	4.0570	4.0571	0.7976	7.89	1.89	0.750			
0.2042	13067.54	4.0540	4.0541	0.8067	7.88	1.88	0.750			
0.2065	13218.41	4.0510	4.0510	0.8089	7.88	1.88	0.750			
0.2090	13377.31	4.0480	4.0478	0.8250	7.87	1.87	0.750			
0.2115	13535.44	4.0450	4.0451	0.8354	7.87	1.87	0.750			
0.2141	13700.32	4.0420	4.0420	0.8450	7.86	1.86	0.750			
0.2167	13865.84	4.0390	4.0391	0.8469	7.85	1.85	0.750			
0.2192	14028.38	4.0360	4.0360	0.8455	7.85	1.85	0.750			
0.2217	14188.76	4.0330	4.0329	0.8445	7.84	1.84	0.750			
0.2242	14349.21	4.0300	4.0299	0.8499	7.83	1.83	0.750			
0.2268	14513.16	4.0270	4.0270	0.8561	7.83	1.83	0.750			
0.2294	14678.99	4.0240	4.0240	0.8604	7.82	1.82	0.750			
0.2320	14846.04	4.0210	4.0210	0.8604	7.82	1.82	0.750			
0.2346	15012.38	4.0180	4.0178	0.8645	7.81	1.81	0.750			
0.2372	15178.36	4.0150	4.0151	0.8621	7.81	1.81	0.750			
0.2397	15343.39	4.0120	4.0119	0.8664	7.80	1.80	0.750			
0.2423	15508.72	4.0090	4.0090	0.8686	7.80	1.80	0.750			
0.2449	15675.26	4.0060	4.0061	0.8747	7.79	1.79	0.750			
0.2476	15846.50	4.0030	4.0029	0.8794	7.79	1.79	0.750			
0.2503	16016.30	4.0000	4.0001	0.8773	7.78	1.78	0.750			
0.2529	16182.96	3.9970	3.9970	0.8819	7.77	1.77	0.750			
0.2555	16352.13	3.9940	3.9940	0.8883	7.76	1.76	0.750			
0.2582	16521.90	3.9910	3.9909	0.8893	7.75	1.75	0.750			
0.2608	16693.97	3.9880	3.9880	0.8973	7.75	1.75	0.750			
0.2636	16868.09	3.9850	3.9850	0.8981	7.74	1.74	0.750			
0.2663	17041.14	3.9820	3.9821	0.9078	7.74	1.74	0.750			
0.2690	17214.54	3.9790	3.9790	0.9133	7.73	1.73	0.750			
0.2717	17387.07	3.9760	3.9757	0.9219	7.73	1.73	0.750			
0.2745	17566.81	3.9730	3.9730	0.9243	7.72	1.72	0.750			
0.2773	17746.45	3.9700	3.9701	0.9308	7.71	1.71	0.750			
0.2801	17929.00	3.9670	3.9670	0.9375	7.70	1.70	0.750			
0.2829	18107.27	3.9640	3.9643	0.9326	7.70	1.70	0.750			
0.2857	18286.51	3.9610	3.9610	0.9393	7.69	1.69	0.750			
0.2885	18464.93	3.9580	3.9580	0.9389	7.68	1.68	0.750			
0.2914	18646.89	3.9550	3.9549	0.9424	7.67	1.67	0.750			
0.2942	18828.13	3.9520	3.9521	0.9619	7.67	1.67	0.750			
0.2971	19011.86	3.9490	3.9489	0.9678	7.66	1.66	0.750			
0.3000	19199.95	3.9460	3.9460	0.9723	7.65	1.65	0.750			
0.3029	19385.62	3.9430	3.9430	0.9862	7.64	1.64	0.750			
0.3059	19575.19	3.9400	3.9402	0.9985	7.63	1.63	0.750			
0.3089	19769.65	3.9370	3.9368	1.0058	7.62	1.62	0.750			
0.3120	19968.05	3.9340	3.9340	1.0083	7.61	1.61	0.750			
0.3150	20159.00	3.9310	3.9311	1.0091	7.61	1.61	0.750			
0.3180	20353.68	3.9280	3.9281	1.0199	7.60	1.60	0.750			
0.3211	20549.44	3.9250	3.9248	1.0190	7.59	1.59	0.750			
0.3241	20744.97	3.9220	3.9221	1.0216	7.58	1.58	0.750			
0.3272	20942.77	3.9190	3.9190	1.0283	7.58	1.58	0.750			
0.3303	21140.44	3.9160	3.9161	1.0361	7.57	1.57	0.750			
0.3335	21341.53	3.9130	3.9129	1.0475	7.56	1.56	0.750			
0.3366	21539.89	3.9100	3.9101	1.0500	7.56	1.56	0.750			
0.3397	21738.21	3.9070	3.9069	1.0710	7.55	1.55	0.750			
0.3429	21947.56	3.9040	3.9041	1.0904	7.54	1.54	0.750			
0.3463	22160.40	3.9010	3.9009	1.1077	7.53	1.53	0.750			
0.3496	22377.59	3.8980	3.8980	1.1184	7.52	1.52	0.750			
0.3530	22591.71	3.8950	3.8951	1.1264	7.51	1.51	0.750			
0.3563	22805.08	3.8920	3.8921	1.1459	7.49	1.49	0.750			
0.3598	23027.00	3.8890	3.8888	1.1618	7.48	1.48	0.750			
0.3633	23248.10	3.8860	3.8860	1.1699	7.47	1.47	0.750			
0.3668	23478.03	3.8830	3.8830	1.1947	7.46	1.46	0.750			
0.3705	23714.63	3.8800	3.8801	1.2096	7.44	1.44	0.750			
0.3742	23946.84	3.8770	3.8770	1.2146	7.43	1.43	0.750			
0.3778	24177.88	3.8740	3.8741	1.2371	7.42	1.42	0.750			
0.3815	24417.10	3.8710	3.8711	1.2505	7.41	1.41	0.750			
0.3853	24659.30	3.8680	3.8678	1.2724	7.40	1.40	0.750			
0.3891	24904.49	3.8650	3.8650	1.2903	7.39	1.39	0.750			
0.3930	25153.69	3.8620	3.8622	1.3134	7.37	1.37	0.750			
0.3970	25410.11	3.8590	3.8586	1.3205	7.36	1.36	0.750	0.419	0.894	
0.4010	25662.05	3.8560	3.8559	1.3469	7.35	1.35	0.750			
0.4050	25921.23	3.8530	3.8532	1.3724	7.33	1.33	0.750			
0.4092	26189.43	3.8500	3.8497	1.3892	7.32	1.32	0.750			
0.4134	26455.84	3.8470	3.8471	1.4235	7.31	1.31	0.750			
0.4178	26736.83	3.8440	3.8441	1.4365	7.29	1.29	0.750			
0.4222	27017.67	3.8410	3.8408	1.4608	7.28	1.28	0.750			
0.4265	27296.09	3.8380	3.8383	1.4883	7.27	1.27	0.750			
0.4310	27581.40	3.8350	3.8351	1.5217	7.25	1.25	0.750			
0.4356	27878.19	3.8320	3.8322	1.5646	7.24	1.24	0.750			
0.4404	28185.65	3.8290	3.8291	1.5801	7.22	1.22	0.750			
0.4452	28493.81	3.8260	3.8260	1.6196	7.20	1.20	0.750			
0.4502	28811.15	3.8230	3.8230	1.6477	7.18	1.18	0.750			
0.4552	29132.70	3.8200	3.8198	1.6648	7.16	1.16	0.750			
0.4601	29447.57	3.8170	3.8172	1.6622	7.14	1.14	0.750			
0.4651	29763.57	3.8140	3.8142	1.7040	7.12	1.12	0.750			
0.4702	30094.09	3.8110	3.8109	1.7661	7.10	1.10	0.750			
0.4755	30434.51	3.8080	3.8077	1.8231	7.08	1.08	0.750			
0.4811	30790.43	3.8050	3.8051	1.8514	7.05	1.05	0.750			
0.4869	31162.98	3.8020	3.8021	1.8767	7.03	1.03	0.750			
0.4926	31525.43	3.7990	3.7991	1.8942	7.01	1.01	0.750			
0.4981	31879.01	3.7960	3.7958	1.8865	6.99	0.99	0.750			
0.5036	32232.36	3.7930	3.7927	1.9119	6.96	0.96	0.750			
0.5094	32599.12	3.7900	3.7900	1.9576	6.94	0.94	0.750			
0.5154	32986.31	3.7870	3.7871	2.0217	6.91	0.91	0.750			
0.5217	33389.70	3.7840	3.7840	2.0513	6.88	0.88	0.750			
0.5278	33777.23	3.7810	3.7810	2.0714	6.86	0.86	0.750			
0.5339	34172.28	3.7780	3.7781	2.0962	6.84	0.84	0.750			
0.5402	34572.72	3.7750	3.7748	2.1652	6.82	0.82	0.750			
0.5469	34999.33	3.7720	3.7721	2.1980	6.79	0.79	0.750			
0.5536	35432.49	3.7690	3.7691	2.2381	6.76	0.76	0.750			
0.5605	35871.67	3.7660	3.7661	2.2677	6.73	0.73	0.750			
0.5671	36296.39	3.7630	3.7629	2.2826	6.70	0.70	0.750			
0.5739	36731.40	3.7600	3.7600	2.3245	6.67	0.67	0.750			
0.5811	37190.44	3.7570	3.7570	2.4274	6.65	0.65	0.750			
0.5885	37661.73	3.7540	3.7541	2.5586	6.62	0.62	0.750			
0.5962	38159.36	3.7510	3.7510	2.6789	6.59	0.59	0.750			
0.6045	38689.76	3.7480	3.7481	2.8003	6.55	0.55	0.750			
0.6132	39245.20	3.7450	3.7450	2.8781	6.52	0.52	0.750			
0.6219	39800.33	3.7420	3.7420	2.8777	6.48	0.48	0.750			
0.6305	40351.86	3.7390	3.7391	3.0205	6.45	0.45	0.750			
0.6399	40954.71	3.7360	3.7358	3.1498	6.41	0.41	0.750			
0.6498	41589.70	3.7330	3.7330	3.1735	6.38	0.38	0.750			
0.6593	42194.94	3.7300	3.7300	3.1013	6.35	0.35	0.750			
0.6684	42779.63	3.7270	3.7267	2.8717	6.31	0.31	0.750			
0.6768	43317.96	3.7240	3.7242	2.6317	6.28	0.28	0.750			
0.6842	43787.10	3.7210	3.7209	2.3391	6.26	0.26	0.750			
0.6907	44206.34	3.7180	3.7180	2.0554	6.24	0.24	0.750			
0.6965	44574.74	3.7150	3.7150	1.8484	6.22	0.22	0.750			
0.7018	44914.33	3.7120	3.7121	1.6640	6.21	0.21	0.750			
0.7063	45203.11	3.7090	3.7090	1.4872	6.20	0.20	0.750			
0.7105	45470.06	3.7060	3.7060	1.3440	6.19	0.19	0.750			
0.7142	45708.63	3.7030	3.7031	1.2426	6.17	0.17	0.750			
0.7176	45924.49	3.7000	3.7000	1.1724	6.16	0.16	0.750			
0.7209	46139.40	3.6970	3.6969	1.1350	6.15	0.15	0.750			
0.7242	46349.10	3.6940	3.6941	1.0982	6.14	0.14	0.750			
0.7275	46557.53	3.6910	3.6909	1.0873	6.13	0.13	0.750			
0.7307	46765.34	3.6880	3.6881	1.0698	6.12	0.12	0.750			
0.7339	46972.34	3.6850	3.6848	1.0564	6.11	0.11	0.750			
0.7371	47175.50	3.6820	3.6820	1.0298	6.10	0.10	0.750			
0.7401	47367.42	3.6790	3.6790	1.0053	6.09	0.09	0.750			
0.7431	47557.46	3.6760	3.6761	0.9831	6.08	0.08	0.750			
0.7460	47743.57	3.6730	3.6729	0.9608	6.07	0.07	0.750			
0.7489	47927.13	3.6700	3.6701	0.9447	6.07	0.07	0.750			
0.7517	48106.24	3.6670	3.6670	0.9324	6.06	0.06	0.750			
0.7544	48283.37	3.6640	3.6640	0.9190	6.06	0.06	0.750			
0.7572	48461.07	3.6610	3.6610	0.9088	6.05	0.05	0.750			
0.7598	48629.96	3.6580	3.6579	0.9057	6.05	0.05	0.750			
0.7626	48804.96	3.6550	3.6551	0.9005	6.04	0.04	0.750			
0.7652	48973.13	3.6520	3.6519	0.9073	6.04	0.04	0.750			
0.7679	49148.05	3.6490	3.6491	0.9158	6.03	0.03	0.750			
0.7707	49324.56	3.6460	3.6460	0.9233	6.02	0.02	0.750			
0.7735	49506.16	3.6430	3.6430	0.9263	6.02	0.02	0.750			
0.7764	49686.93	3.6400	3.6400	0.9308	6.01	0.01	0.750			
0.7792	49869.31	3.6370	3.6371	0.9036	6.01	0.01	0.750			
0.7820	50050.89	3.6340	3.6339	0.8712	6.00	0.00	0.750			
0.7847	50218.33	3.6310	3.6309	0.7947	6.00	-0.00	0.750			
0.7870	50368.68	3.6280	3.6282	0.7077	6.00	-0.00	0.750			
0.7890	50497.78	3.6250	3.6249	0.6049	5.99	-0.01	0.750			
0.7906	50601.55	3.6220	3.6220	0.4945	5.99	-0.01	0.750			
0.7917	50670.59	3.6190	3.6195	0.4005	5.99	-0.01	0.750			
0.7928	50739.21	3.6160	3.6161	0.3239	5.99	-0.01	0.750			
0.7936	50789.44	3.6130	3.6128	0.2421	5.99	-0.01	0.750			
0.7942	50826.87	3.6100	3.6090	0.1798	5.98	-0.02	0.750			
0.7945	50849.22	3.6070	3.6036	0.1199	5.98	-0.02	0.750			
0.7946	50855.86	3.5920	3.5894	-0.0819	5.98	-0.02	0.750			
0.7948	50865.20	3.6040	3.4877	0.0734	5.98	-0.02	0.742			
0.7948	50867.94	3.5950	3.4568	-0.0440	5.98	-0.02	0.740			
0.7948	50870.27	3.6010	3.4304	0.0318	5.98	-0.02	0.738			
0.7949	50872.75	3.5980	3.4025	-0.0061	5.98	-0.02	0.735			
