Ah_balance (normalized)	Ah_balance (mAh)	Voltage - fit (V)	Voltage -  interpolate (V)	dQ/dV (1/V)	Temperature (°C)	Temperature - diff (°C)	Current (C)	R_DC 0ms (mOhm)	R_DC 50ms (mOhm)	R_DC 50 ms PEC (mOhm)
0.0954	6106.53	4.1960	4.1988	0.7267	8.28	2.14	0.750			
0.0979	6266.65	4.1930	4.1953	0.8380	8.27	2.13	0.750			
0.1006	6440.50	4.1900	4.1914	0.8470	8.27	2.13	0.750			
0.1031	6599.92	4.1870	4.1877	0.8171	8.26	2.12	0.750			
0.1060	6783.57	4.1840	4.1837	0.8314	8.26	2.12	0.750			
0.1079	6904.90	4.1810	4.1812	0.7083	8.25	2.11	0.750			
0.1100	7041.78	4.1780	4.1781	0.7138	8.25	2.11	0.750			
0.1122	7181.08	4.1750	4.1749	0.7175	8.24	2.10	0.750			
0.1143	7317.30	4.1720	4.1719	0.7100	8.24	2.10	0.750			
0.1165	7454.58	4.1690	4.1691	0.7129	8.23	2.09	0.750			
0.1186	7591.84	4.1660	4.1661	0.7157	8.23	2.09	0.750			
0.1208	7730.13	4.1630	4.1629	0.7187	8.22	2.08	0.750			
0.1229	7864.01	4.1600	4.1600	0.7162	8.22	2.08	0.750			
0.1250	8003.20	4.1570	4.1570	0.7240	8.21	2.07	0.750			
0.1272	8143.21	4.1540	4.1540	0.7326	8.21	2.07	0.750			
0.1295	8286.07	4.1510	4.1510	0.7319	8.20	2.06	0.750			
0.1317	8427.83	4.1480	4.1480	0.7296	8.20	2.06	0.750			
0.1339	8567.73	4.1450	4.1450	0.7250	8.19	2.05	0.750			
0.1360	8705.28	4.1420	4.1420	0.7253	8.19	2.05	0.750			
0.1382	8841.87	4.1390	4.1390	0.7276	8.19	2.05	0.750			
0.1404	8982.76	4.1360	4.1358	0.7293	8.18	2.04	0.750			
0.1425	9122.29	4.1330	4.1330	0.7347	8.18	2.04	0.750			
0.1448	9265.51	4.1300	4.1301	0.7431	8.17	2.03	0.750			
0.1470	9410.44	4.1270	4.1270	0.7464	8.17	2.03	0.750			
0.1493	9554.49	4.1240	4.1239	0.7536	8.16	2.02	0.750			
0.1515	9698.96	4.1210	4.1210	0.7502	8.16	2.02	0.750			
0.1538	9844.14	4.1180	4.1179	0.7509	8.15	2.01	0.750			
0.1561	9988.79	4.1150	4.1152	0.7569	8.15	2.01	0.750			
0.1583	10132.90	4.1120	4.1120	0.7578	8.14	2.00	0.750			
0.1606	10278.33	4.1090	4.1090	0.7615	8.14	2.00	0.750			
0.1629	10423.09	4.1060	4.1059	0.7588	8.14	2.00	0.750			
0.1652	10570.95	4.1030	4.1031	0.7714	8.13	1.99	0.750			
0.1675	10721.52	4.1000	4.1001	0.7783	8.13	1.99	0.750			
0.1699	10870.67	4.0970	4.0969	0.7794	8.12	1.98	0.750			
0.1722	11019.96	4.0940	4.0940	0.7796	8.12	1.98	0.750			
0.1745	11170.09	4.0910	4.0911	0.7897	8.11	1.97	0.750			
0.1769	11322.69	4.0880	4.0879	0.7956	8.11	1.97	0.750			
0.1793	11476.17	4.0850	4.0848	0.8003	8.10	1.96	0.750			
0.1817	11629.34	4.0820	4.0822	0.8016	8.10	1.96	0.750			
0.1841	11784.93	4.0790	4.0790	0.8049	8.09	1.95	0.750			
0.1866	11941.85	4.0760	4.0759	0.8062	8.08	1.94	0.750			
0.1890	12094.99	4.0730	4.0731	0.7983	8.08	1.94	0.750			
0.1914	12248.69	4.0700	4.0700	0.7975	8.07	1.93	0.750			
0.1938	12400.30	4.0670	4.0670	0.8041	8.07	1.93	0.750			
0.1962	12555.46	4.0640	4.0641	0.8042	8.06	1.92	0.750			
0.1986	12708.31	4.0610	4.0609	0.8120	8.05	1.91	0.750			
0.2010	12864.22	4.0580	4.0579	0.8256	8.05	1.91	0.750			
0.2035	13025.29	4.0550	4.0552	0.8286	8.04	1.90	0.750			
0.2060	13186.90	4.0520	4.0520	0.8280	8.04	1.90	0.750			
0.2086	13351.50	4.0490	4.0490	0.8208	8.03	1.89	0.750			
0.2110	13505.67	4.0460	4.0461	0.8177	8.02	1.88	0.750			
0.2134	13659.00	4.0430	4.0430	0.8239	8.02	1.88	0.750			
0.2159	13815.22	4.0400	4.0401	0.8232	8.01	1.87	0.750			
0.2183	13970.91	4.0370	4.0371	0.8313	8.01	1.87	0.750			
0.2208	14133.68	4.0340	4.0341	0.8435	8.00	1.86	0.750			
0.2235	14301.23	4.0310	4.0310	0.8550	7.99	1.85	0.750			
0.2260	14466.27	4.0280	4.0281	0.8575	7.99	1.85	0.750			
0.2286	14630.07	4.0250	4.0250	0.8522	7.98	1.84	0.750			
0.2311	14793.53	4.0220	4.0221	0.8586	7.98	1.84	0.750			
0.2337	14957.87	4.0190	4.0189	0.8644	7.97	1.83	0.750			
0.2363	15123.01	4.0160	4.0159	0.8669	7.96	1.82	0.750			
0.2389	15291.19	4.0130	4.0130	0.8704	7.96	1.82	0.750			
0.2416	15459.36	4.0100	4.0099	0.8804	7.95	1.81	0.750			
0.2442	15630.41	4.0070	4.0071	0.8879	7.95	1.81	0.750			
0.2469	15801.75	4.0040	4.0039	0.8955	7.94	1.80	0.750			
0.2496	15973.44	4.0010	4.0009	0.8923	7.94	1.80	0.750			
0.2523	16146.05	3.9980	3.9981	0.8958	7.93	1.79	0.750			
0.2550	16319.72	3.9950	3.9951	0.8983	7.93	1.79	0.750			
0.2577	16492.13	3.9920	3.9919	0.8926	7.92	1.78	0.750			
0.2603	16658.74	3.9890	3.9890	0.8955	7.91	1.77	0.750			
0.2630	16830.88	3.9860	3.9861	0.9022	7.90	1.76	0.750			
0.2657	17005.96	3.9830	3.9829	0.9065	7.89	1.75	0.750			
0.2685	17182.54	3.9800	3.9800	0.9123	7.88	1.74	0.750			
0.2712	17357.89	3.9770	3.9771	0.9177	7.87	1.73	0.750			
0.2740	17533.65	3.9740	3.9742	0.9265	7.87	1.73	0.750			
0.2767	17711.74	3.9710	3.9709	0.9353	7.86	1.72	0.750			
0.2796	17891.49	3.9680	3.9680	0.9403	7.86	1.72	0.750			
0.2824	18075.80	3.9650	3.9649	0.9406	7.85	1.71	0.750			
0.2853	18257.58	3.9620	3.9621	0.9398	7.84	1.70	0.750			
0.2881	18438.40	3.9590	3.9592	0.9471	7.83	1.69	0.750			
0.2909	18618.14	3.9560	3.9560	0.9490	7.82	1.68	0.750			
0.2937	18799.79	3.9530	3.9530	0.9529	7.81	1.67	0.750			
0.2966	18980.80	3.9500	3.9500	0.9582	7.81	1.67	0.750			
0.2995	19167.01	3.9470	3.9471	0.9672	7.80	1.66	0.750			
0.3025	19357.59	3.9440	3.9441	0.9859	7.79	1.65	0.750			
0.3054	19546.20	3.9410	3.9410	0.9897	7.78	1.64	0.750			
0.3084	19735.76	3.9380	3.9379	0.9935	7.77	1.63	0.750			
0.3113	19926.34	3.9350	3.9351	1.0007	7.76	1.62	0.750			
0.3144	20119.37	3.9320	3.9321	1.0129	7.75	1.61	0.750			
0.3175	20317.45	3.9290	3.9291	1.0213	7.74	1.60	0.750			
0.3205	20513.55	3.9260	3.9260	1.0335	7.73	1.59	0.750			
0.3236	20710.94	3.9230	3.9230	1.0425	7.72	1.58	0.750			
0.3268	20913.25	3.9200	3.9200	1.0593	7.71	1.57	0.750			
0.3300	21121.13	3.9170	3.9168	1.0610	7.70	1.56	0.750			
0.3332	21325.09	3.9140	3.9142	1.0610	7.69	1.55	0.750			
0.3364	21528.54	3.9110	3.9110	1.0635	7.68	1.54	0.750			
0.3395	21730.43	3.9080	3.9080	1.0741	7.68	1.54	0.750			
0.3427	21933.81	3.9050	3.9049	1.0743	7.67	1.53	0.750			
0.3459	22140.14	3.9020	3.9020	1.0974	7.66	1.52	0.750			
0.3493	22353.55	3.8990	3.8990	1.1213	7.65	1.51	0.750			
0.3527	22575.75	3.8960	3.8960	1.1400	7.64	1.50	0.750			
0.3562	22796.45	3.8930	3.8931	1.1503	7.62	1.48	0.750			
0.3596	23017.27	3.8900	3.8901	1.1633	7.61	1.47	0.750			
0.3631	23240.47	3.8870	3.8871	1.1832	7.60	1.46	0.750			
0.3667	23471.81	3.8840	3.8837	1.1887	7.58	1.44	0.750			
0.3703	23697.92	3.8810	3.8811	1.2069	7.57	1.43	0.750			
0.3739	23930.51	3.8780	3.8782	1.2319	7.55	1.41	0.750			
0.3777	24173.58	3.8750	3.8750	1.2572	7.54	1.40	0.750			
0.3815	24415.09	3.8720	3.8719	1.2633	7.52	1.38	0.750			
0.3853	24656.96	3.8690	3.8691	1.2791	7.51	1.37	0.750			
0.3892	24907.45	3.8660	3.8660	1.2920	7.50	1.36	0.750			
0.3932	25162.07	3.8630	3.8625	1.3171	7.49	1.35	0.750	0.417	0.869	
0.3970	25409.53	3.8600	3.8600	1.3252	7.47	1.33	0.750			
0.4010	25663.81	3.8570	3.8571	1.3409	7.45	1.31	0.750			
0.4051	25926.66	3.8540	3.8538	1.3420	7.44	1.30	0.750			
0.4091	26183.03	3.8510	3.8509	1.3609	7.42	1.28	0.750			
0.4132	26444.79	3.8480	3.8483	1.3997	7.41	1.27	0.750			
0.4175	26717.33	3.8450	3.8447	1.4368	7.39	1.25	0.750			
0.4218	26993.98	3.8420	3.8422	1.4732	7.37	1.23	0.750			
0.4263	27282.85	3.8390	3.8392	1.5092	7.35	1.21	0.750			
0.4310	27582.03	3.8360	3.8360	1.5374	7.33	1.19	0.750			
0.4356	27879.61	3.8330	3.8329	1.5664	7.32	1.18	0.750			
0.4403	28182.20	3.8300	3.8301	1.5898	7.30	1.16	0.750			
0.4451	28488.61	3.8270	3.8271	1.5986	7.28	1.14	0.750			
0.4500	28801.08	3.8240	3.8238	1.6237	7.25	1.11	0.750			
0.4549	29113.15	3.8210	3.8212	1.6476	7.23	1.09	0.750			
0.4599	29432.89	3.8180	3.8180	1.6829	7.21	1.07	0.750			
0.4650	29757.94	3.8150	3.8148	1.7014	7.19	1.05	0.750			
0.4701	30084.08	3.8120	3.8121	1.7424	7.17	1.03	0.750			
0.4754	30422.59	3.8090	3.8091	1.7995	7.15	1.01	0.750			
0.4809	30777.77	3.8060	3.8057	1.8102	7.12	0.98	0.750			
0.4864	31127.74	3.8030	3.8035	1.8432	7.10	0.96	0.750			
0.4920	31487.04	3.8000	3.7999	1.8618	7.07	0.93	0.750			
0.4976	31846.51	3.7970	3.7967	1.8737	7.04	0.90	0.750			
0.5030	32189.49	3.7940	3.7942	1.8821	7.02	0.88	0.750			
0.5089	32567.02	3.7910	3.7910	1.9401	6.99	0.85	0.750			
0.5147	32942.75	3.7880	3.7878	1.9658	6.97	0.83	0.750			
0.5207	33324.92	3.7850	3.7849	1.9847	6.95	0.81	0.750			
0.5267	33711.29	3.7820	3.7819	2.0301	6.92	0.78	0.750			
0.5329	34105.90	3.7790	3.7788	2.0386	6.89	0.75	0.750			
0.5389	34492.10	3.7760	3.7760	2.0634	6.87	0.73	0.750			
0.5452	34892.95	3.7730	3.7732	2.1175	6.84	0.70	0.750			
0.5516	35304.52	3.7700	3.7698	2.1658	6.81	0.67	0.750			
0.5581	35718.21	3.7670	3.7669	2.2196	6.79	0.65	0.750			
0.5648	36148.77	3.7640	3.7641	2.2884	6.76	0.62	0.750			
0.5719	36599.65	3.7610	3.7609	2.3504	6.73	0.59	0.750			
0.5790	37055.75	3.7580	3.7582	2.4536	6.70	0.56	0.750			
0.5865	37536.25	3.7550	3.7549	2.5279	6.67	0.53	0.750			
0.5942	38027.06	3.7520	3.7520	2.5900	6.63	0.49	0.750			
0.6022	38543.19	3.7490	3.7489	2.7095	6.60	0.46	0.750			
0.6104	39062.93	3.7460	3.7459	2.8234	6.57	0.43	0.750			
0.6191	39623.82	3.7430	3.7429	2.9339	6.53	0.39	0.750			
0.6281	40197.87	3.7400	3.7401	3.0351	6.50	0.36	0.750			
0.6371	40775.11	3.7370	3.7371	3.1676	6.47	0.33	0.750			
0.6469	41401.25	3.7340	3.7340	3.1362	6.43	0.29	0.750			
0.6566	42022.66	3.7310	3.7312	3.0256	6.41	0.27	0.750			
0.6650	42558.18	3.7280	3.7278	2.7299	6.39	0.25	0.750			
0.6729	43064.63	3.7250	3.7248	2.4090	6.36	0.22	0.750			
0.6798	43504.80	3.7220	3.7221	2.1857	6.33	0.19	0.750			
0.6858	43891.29	3.7190	3.7192	1.9344	6.32	0.18	0.750			
0.6911	44229.96	3.7160	3.7159	1.6976	6.31	0.17	0.750			
0.6956	44519.95	3.7130	3.7130	1.5136	6.30	0.16	0.750			
0.6997	44778.56	3.7100	3.7101	1.3608	6.29	0.15	0.750			
0.7036	45029.73	3.7070	3.7069	1.2900	6.28	0.14	0.750			
0.7072	45262.27	3.7040	3.7041	1.2119	6.27	0.13	0.750			
0.7108	45489.87	3.7010	3.7009	1.1744	6.27	0.13	0.750			
0.7142	45709.72	3.6980	3.6980	1.1364	6.26	0.12	0.750			
0.7176	45923.92	3.6950	3.6950	1.0967	6.25	0.11	0.750			
0.7208	46131.85	3.6920	3.6920	1.0782	6.24	0.10	0.750			
0.7240	46333.33	3.6890	3.6891	1.0609	6.24	0.10	0.750			
0.7271	46536.55	3.6860	3.6860	1.0395	6.23	0.09	0.750			
0.7302	46734.49	3.6830	3.6829	1.0153	6.23	0.09	0.750			
0.7333	46929.18	3.6800	3.6801	0.9938	6.22	0.08	0.750			
0.7362	47118.04	3.6770	3.6772	0.9793	6.22	0.08	0.750			
0.7391	47304.51	3.6740	3.6739	0.9565	6.21	0.07	0.750			
0.7419	47483.36	3.6710	3.6709	0.9378	6.21	0.07	0.750			
0.7447	47659.66	3.6680	3.6681	0.9169	6.20	0.06	0.750			
0.7475	47836.95	3.6650	3.6650	0.9109	6.20	0.06	0.750			
0.7502	48010.39	3.6620	3.6620	0.9102	6.19	0.05	0.750			
0.7529	48183.52	3.6590	3.6591	0.9077	6.18	0.04	0.750			
0.7555	48354.13	3.6560	3.6559	0.9034	6.18	0.04	0.750			
0.7583	48528.79	3.6530	3.6529	0.9125	6.17	0.03	0.750			
0.7609	48700.50	3.6500	3.6502	0.9254	6.17	0.03	0.750			
0.7638	48880.40	3.6470	3.6469	0.9495	6.17	0.03	0.750			
0.7667	49067.12	3.6440	3.6437	0.9585	6.16	0.02	0.750			
0.7696	49254.42	3.6410	3.6411	0.9564	6.16	0.02	0.750			
0.7726	49446.43	3.6380	3.6380	0.9383	6.15	0.01	0.750			
0.7756	49641.09	3.6350	3.6349	0.8863	6.15	0.01	0.750			
0.7782	49807.29	3.6320	3.6320	0.7915	6.14	0.00	0.750			
0.7805	49952.37	3.6290	3.6294	0.6845	6.14	-0.00	0.750			
0.7824	50073.17	3.6260	3.6259	0.5703	6.14	-0.00	0.750			
0.7837	50154.83	3.6230	3.6233	0.4803	6.13	-0.01	0.750			
0.7849	50235.46	3.6200	3.6203	0.3789	6.13	-0.01	0.750			
0.7859	50298.14	3.6170	3.6168	0.2993	6.13	-0.01	0.750			
0.7866	50345.49	3.6140	3.6131	0.2295	6.13	-0.01	0.750			
0.7871	50372.11	3.6110	3.6092	0.1551	6.13	-0.01	0.750			
0.7873	50389.24	3.5930	3.5838	-0.1046	6.13	-0.01	0.750			
0.7874	50392.06	3.6080	3.5493	0.1039	6.13	-0.01	0.749			
0.7876	50405.36	3.5960	3.3825	-0.0633	6.13	-0.01	0.746			
0.7876	50406.09	3.6050	3.3733	0.0607	6.13	-0.01	0.746			
0.7877	50413.54	3.5990	3.2799	-0.0219	6.13	-0.01	0.744			
0.7877	50413.78	3.6020	3.2768	0.0194	6.13	-0.01	0.744			
