Ah_balance (normalized)	Ah_balance (mAh)	Voltage - fit (V)	Voltage -  interpolate (V)	dQ/dV (1/V)	Temperature (°C)	Temperature - diff (°C)	Current (C)	R_DC 0ms (mOhm)	R_DC 50ms (mOhm)	R_DC 50 ms PEC (mOhm)
0.0000	0.00	4.0980	4.1306	0.0000	5.98	-0.01	-0.749			
0.0001	7.94	4.0950	4.0954	-0.0311	5.98	-0.01	-0.750			
0.0003	16.72	4.0920	4.0918	-0.0604	5.98	-0.01	-0.750			
0.0005	32.67	4.0890	4.0886	-0.0871	5.98	-0.01	-0.750			
0.0008	52.49	4.0860	4.0857	-0.1127	5.99	-0.00	-0.750			
0.0012	76.64	4.0830	4.0829	-0.1389	5.99	-0.00	-0.750			
0.0017	105.89	4.0800	4.0802	-0.1622	5.99	-0.00	-0.750			
0.0022	139.47	4.0770	4.0771	-0.1876	5.99	-0.00	-0.750			
0.0028	178.73	4.0740	4.0740	-0.2124	5.99	-0.00	-0.750			
0.0035	221.49	4.0710	4.0710	-0.2347	5.99	-0.00	-0.750			
0.0042	268.69	4.0680	4.0681	-0.2567	5.99	-0.00	-0.750			
0.0050	320.11	4.0650	4.0650	-0.2806	5.99	-0.00	-0.750			
0.0059	375.93	4.0620	4.0618	-0.3045	5.99	-0.00	-0.750			
0.0068	436.95	4.0590	4.0592	-0.3279	5.99	-0.00	-0.750			
0.0078	502.31	4.0560	4.0560	-0.3493	5.99	0.00	-0.750			
0.0089	571.95	4.0530	4.0530	-0.3720	5.99	0.00	-0.750			
0.0101	645.83	4.0500	4.0500	-0.3920	5.99	0.00	-0.750			
0.0113	722.66	4.0470	4.0471	-0.4132	5.99	0.00	-0.750			
0.0125	802.95	4.0440	4.0440	-0.4363	5.99	0.00	-0.750			
0.0139	888.20	4.0410	4.0408	-0.4587	6.00	0.01	-0.750			
0.0153	980.21	4.0380	4.0380	-0.4769	6.00	0.01	-0.750			
0.0168	1074.32	4.0350	4.0351	-0.4994	6.00	0.01	-0.750			
0.0183	1171.79	4.0320	4.0320	-0.5183	6.00	0.01	-0.750			
0.0199	1273.90	4.0290	4.0290	-0.5354	6.00	0.01	-0.750			
0.0215	1377.62	4.0260	4.0259	-0.5489	6.01	0.02	-0.750			
0.0232	1483.50	4.0230	4.0231	-0.5681	6.01	0.02	-0.750			
0.0249	1594.39	4.0200	4.0201	-0.5877	6.01	0.02	-0.750			
0.0267	1710.55	4.0170	4.0169	-0.6050	6.02	0.03	-0.750			
0.0286	1828.25	4.0140	4.0139	-0.6134	6.02	0.03	-0.750			
0.0304	1947.81	4.0110	4.0111	-0.6259	6.03	0.04	-0.750			
0.0324	2070.67	4.0080	4.0080	-0.6364	6.03	0.04	-0.750			
0.0343	2192.90	4.0050	4.0048	-0.6451	6.04	0.05	-0.750			
0.0362	2315.90	4.0020	4.0020	-0.6484	6.05	0.06	-0.750			
0.0382	2442.67	3.9990	3.9991	-0.6609	6.06	0.07	-0.750			
0.0402	2572.65	3.9960	3.9959	-0.6681	6.06	0.07	-0.750			
0.0422	2701.64	3.9930	3.9929	-0.6727	6.07	0.08	-0.750			
0.0442	2830.17	3.9900	3.9904	-0.6778	6.08	0.09	-0.750			
0.0463	2960.86	3.9870	3.9869	-0.6825	6.09	0.10	-0.750			
0.0483	3091.01	3.9840	3.9839	-0.6847	6.10	0.11	-0.750			
0.0504	3224.17	3.9810	3.9810	-0.6879	6.10	0.11	-0.750			
0.0525	3357.51	3.9780	3.9781	-0.7002	6.11	0.12	-0.750			
0.0545	3491.12	3.9750	3.9749	-0.7046	6.12	0.13	-0.750			
0.0567	3626.66	3.9720	3.9721	-0.7069	6.13	0.14	-0.750			
0.0588	3763.31	3.9690	3.9689	-0.7087	6.14	0.15	-0.750			
0.0609	3900.39	3.9660	3.9661	-0.7150	6.14	0.15	-0.750			
0.0631	4038.26	3.9630	3.9630	-0.7233	6.15	0.16	-0.750			
0.0653	4176.62	3.9600	3.9599	-0.7264	6.16	0.17	-0.750			
0.0674	4316.30	3.9570	3.9570	-0.7286	6.16	0.17	-0.750			
0.0697	4458.12	3.9540	3.9542	-0.7300	6.17	0.18	-0.750			
0.0719	4599.49	3.9510	3.9509	-0.7380	6.18	0.19	-0.750			
0.0741	4741.14	3.9480	3.9481	-0.7402	6.19	0.20	-0.750			
0.0763	4881.89	3.9450	3.9450	-0.7389	6.20	0.21	-0.750			
0.0785	5023.60	3.9420	3.9420	-0.7495	6.21	0.22	-0.750			
0.0808	5168.95	3.9390	3.9390	-0.7503	6.22	0.23	-0.750			
0.0830	5314.14	3.9360	3.9359	-0.7540	6.22	0.23	-0.750			
0.0853	5459.73	3.9330	3.9330	-0.7542	6.23	0.24	-0.750			
0.0876	5603.77	3.9300	3.9301	-0.7521	6.24	0.25	-0.750			
0.0898	5748.69	3.9270	3.9269	-0.7522	6.25	0.26	-0.750			
0.0921	5893.07	3.9240	3.9240	-0.7554	6.26	0.27	-0.750			
0.0943	6035.54	3.9210	3.9210	-0.7530	6.27	0.28	-0.750			
0.0966	6181.65	3.9180	3.9180	-0.7598	6.28	0.29	-0.750			
0.0989	6328.05	3.9150	3.9150	-0.7631	6.29	0.30	-0.750			
0.1012	6475.15	3.9120	3.9120	-0.7676	6.30	0.31	-0.750			
0.1035	6623.93	3.9090	3.9089	-0.7664	6.31	0.32	-0.750			
0.1058	6771.88	3.9060	3.9060	-0.7652	6.32	0.33	-0.750			
0.1081	6918.26	3.9030	3.9031	-0.7643	6.33	0.34	-0.750			
0.1104	7065.17	3.9000	3.9000	-0.7649	6.34	0.35	-0.750			
0.1127	7211.68	3.8970	3.8969	-0.7617	6.35	0.36	-0.750			
0.1150	7356.87	3.8940	3.8940	-0.7589	6.36	0.37	-0.750			
0.1172	7501.12	3.8910	3.8911	-0.7636	6.37	0.38	-0.750			
0.1195	7647.97	3.8880	3.8881	-0.7755	6.38	0.39	-0.750			
0.1218	7797.20	3.8850	3.8849	-0.7802	6.39	0.40	-0.750			
0.1242	7948.55	3.8820	3.8819	-0.7814	6.40	0.41	-0.750			
0.1266	8100.26	3.8790	3.8791	-0.7850	6.41	0.42	-0.750			
0.1290	8254.28	3.8760	3.8761	-0.7879	6.42	0.43	-0.750			
0.1313	8405.16	3.8730	3.8730	-0.7826	6.43	0.44	-0.750			
0.1336	8552.08	3.8700	3.8699	-0.7747	6.44	0.45	-0.750			
0.1359	8699.97	3.8670	3.8670	-0.7741	6.45	0.46	-0.750			
0.1383	8848.85	3.8640	3.8640	-0.7770	6.46	0.47	-0.750			
0.1406	8998.38	3.8610	3.8610	-0.7778	6.47	0.48	-0.750			
0.1429	9148.29	3.8580	3.8580	-0.7806	6.48	0.49	-0.750			
0.1453	9298.36	3.8550	3.8551	-0.7831	6.49	0.50	-0.750			
0.1476	9447.54	3.8520	3.8520	-0.7881	6.51	0.52	-0.750			
0.1500	9599.45	3.8490	3.8490	-0.7925	6.52	0.53	-0.750			
0.1524	9752.36	3.8460	3.8460	-0.7965	6.53	0.54	-0.750			
0.1548	9905.88	3.8430	3.8429	-0.8011	6.54	0.55	-0.750			
0.1572	10061.67	3.8400	3.8402	-0.8022	6.55	0.56	-0.750			
0.1596	10216.06	3.8370	3.8371	-0.7975	6.56	0.57	-0.750			
0.1620	10369.02	3.8340	3.8340	-0.8018	6.57	0.58	-0.750			
0.1644	10521.86	3.8310	3.8309	-0.8030	6.57	0.58	-0.750			
0.1668	10674.97	3.8280	3.8280	-0.8058	6.58	0.59	-0.750			
0.1692	10829.90	3.8250	3.8252	-0.8073	6.59	0.60	-0.750			
0.1717	10987.12	3.8220	3.8220	-0.8082	6.60	0.61	-0.750			
0.1741	11143.19	3.8190	3.8190	-0.8120	6.61	0.62	-0.750			
0.1766	11300.64	3.8160	3.8160	-0.8041	6.62	0.63	-0.750			
0.1790	11453.48	3.8130	3.8130	-0.8010	6.64	0.65	-0.750			
0.1813	11605.84	3.8100	3.8101	-0.7955	6.65	0.66	-0.750			
0.1837	11756.80	3.8070	3.8070	-0.7924	6.66	0.67	-0.750			
0.1861	11908.04	3.8040	3.8039	-0.7986	6.67	0.68	-0.750			
0.1884	12060.80	3.8010	3.8010	-0.8035	6.68	0.69	-0.750			
0.1909	12215.01	3.7980	3.7979	-0.8055	6.69	0.70	-0.750			
0.1933	12374.21	3.7950	3.7950	-0.8120	6.70	0.71	-0.750			
0.1958	12528.95	3.7920	3.7920	-0.8089	6.71	0.72	-0.750			
0.1982	12684.66	3.7890	3.7890	-0.8095	6.72	0.73	-0.750			
0.2006	12840.38	3.7860	3.7859	-0.8054	6.73	0.74	-0.750			
0.2030	12991.59	3.7830	3.7830	-0.8015	6.74	0.75	-0.750			
0.2054	13146.32	3.7800	3.7800	-0.8125	6.75	0.76	-0.750			
0.2079	13303.43	3.7770	3.7770	-0.8135	6.76	0.77	-0.750			
0.2103	13459.06	3.7740	3.7739	-0.8178	6.77	0.78	-0.750			
0.2127	13615.33	3.7710	3.7711	-0.8227	6.78	0.79	-0.750			
0.2152	13773.93	3.7680	3.7681	-0.8297	6.79	0.80	-0.750			
0.2177	13934.23	3.7650	3.7648	-0.8382	6.80	0.81	-0.750			
0.2202	14094.91	3.7620	3.7620	-0.8409	6.81	0.82	-0.750			
0.2228	14257.52	3.7590	3.7591	-0.8438	6.82	0.83	-0.750			
0.2254	14424.03	3.7560	3.7559	-0.8487	6.83	0.84	-0.750			
0.2279	14585.55	3.7530	3.7531	-0.8389	6.84	0.85	-0.750			
0.2304	14747.88	3.7500	3.7500	-0.8327	6.85	0.86	-0.750			
0.2329	14905.52	3.7470	3.7470	-0.8286	6.86	0.87	-0.750			
0.2354	15062.43	3.7440	3.7441	-0.8292	6.87	0.88	-0.750			
0.2378	15219.39	3.7410	3.7410	-0.8320	6.88	0.89	-0.750			
0.2403	15379.65	3.7380	3.7379	-0.8380	6.89	0.90	-0.750			
0.2429	15542.50	3.7350	3.7349	-0.8475	6.90	0.91	-0.750			
0.2454	15707.01	3.7320	3.7321	-0.8548	6.91	0.92	-0.750			
0.2480	15872.31	3.7290	3.7290	-0.8615	6.92	0.93	-0.750			
0.2506	16038.04	3.7260	3.7260	-0.8579	6.93	0.94	-0.750			
0.2532	16202.46	3.7230	3.7230	-0.8557	6.94	0.95	-0.750			
0.2557	16366.65	3.7200	3.7199	-0.8711	6.95	0.96	-0.750			
0.2584	16534.80	3.7170	3.7170	-0.8767	6.95	0.96	-0.750			
0.2610	16703.16	3.7140	3.7138	-0.8881	6.96	0.97	-0.750			
0.2637	16875.59	3.7110	3.7112	-0.8965	6.97	0.98	-0.750			
0.2664	17049.78	3.7080	3.7079	-0.8916	6.98	0.99	-0.750			
0.2691	17224.79	3.7050	3.7050	-0.8893	6.99	1.00	-0.750			
0.2718	17394.16	3.7020	3.7021	-0.8876	7.00	1.01	-0.750			
0.2744	17560.39	3.6990	3.6990	-0.8892	7.01	1.02	-0.750			
0.2770	17730.94	3.6960	3.6959	-0.8951	7.02	1.03	-0.750			
0.2797	17901.40	3.6930	3.6929	-0.9012	7.03	1.04	-0.750			
0.2824	18076.12	3.6900	3.6902	-0.9137	7.04	1.05	-0.750			
0.2852	18255.18	3.6870	3.6870	-0.9221	7.05	1.06	-0.750			
0.2881	18435.47	3.6840	3.6840	-0.9285	7.06	1.07	-0.750			
0.2908	18612.20	3.6810	3.6810	-0.9292	7.08	1.09	-0.750			
0.2936	18788.89	3.6780	3.6781	-0.9325	7.09	1.10	-0.750			
0.2964	18968.08	3.6750	3.6749	-0.9496	7.10	1.11	-0.750			
0.2993	19152.33	3.6720	3.6718	-0.9526	7.11	1.12	-0.750			
0.3021	19336.57	3.6690	3.6690	-0.9565	7.11	1.12	-0.750			
0.3050	19520.98	3.6660	3.6661	-0.9662	7.12	1.13	-0.750			
0.3080	19709.45	3.6630	3.6631	-0.9726	7.13	1.14	-0.750			
0.3109	19895.75	3.6600	3.6599	-0.9835	7.14	1.15	-0.750			
0.3138	20082.60	3.6570	3.6569	-0.9847	7.15	1.16	-0.750			
0.3168	20273.30	3.6540	3.6540	-0.9898	7.15	1.16	-0.750			
0.3198	20466.57	3.6510	3.6512	-0.9977	7.16	1.17	-0.750			
0.3228	20658.58	3.6480	3.6480	-1.0060	7.17	1.18	-0.750			
0.3258	20850.41	3.6450	3.6449	-1.0096	7.18	1.19	-0.750			
0.3288	21042.56	3.6420	3.6420	-1.0177	7.19	1.20	-0.750			
0.3319	21239.45	3.6390	3.6391	-1.0280	7.20	1.21	-0.750			
0.3350	21438.55	3.6360	3.6361	-1.0393	7.21	1.22	-0.750			
0.3382	21641.76	3.6330	3.6329	-1.0458	7.22	1.23	-0.750			
0.3413	21841.97	3.6300	3.6301	-1.0486	7.22	1.23	-0.750			
0.3444	22041.38	3.6270	3.6271	-1.0559	7.23	1.24	-0.750			
0.3476	22244.75	3.6240	3.6239	-1.0662	7.24	1.25	-0.750			
0.3508	22448.42	3.6210	3.6210	-1.0768	7.24	1.25	-0.750			
0.3540	22658.22	3.6180	3.6180	-1.0907	7.25	1.26	-0.750			
0.3574	22870.41	3.6150	3.6150	-1.1051	7.25	1.26	-0.750			
0.3607	23087.30	3.6120	3.6119	-1.1081	7.26	1.27	-0.750			
0.3640	23299.12	3.6090	3.6091	-1.1095	7.26	1.27	-0.750			
0.3673	23509.77	3.6060	3.6061	-1.1176	7.27	1.28	-0.750			
0.3707	23723.75	3.6030	3.6030	-1.1287	7.27	1.28	-0.750			
0.3741	23941.67	3.6000	3.5998	-1.1360	7.29	1.30	-0.750			
0.3775	24162.89	3.5970	3.5969	-1.1523	7.30	1.31	-0.750			
0.3810	24387.19	3.5940	3.5940	-1.1596	7.31	1.32	-0.750			
0.3846	24613.12	3.5910	3.5909	-1.1570	7.32	1.33	-0.750			
0.3880	24833.69	3.5880	3.5880	-1.1545	7.32	1.33	-0.750	0.402	0.852	
0.3915	25053.10	3.5850	3.5849	-1.1554	7.33	1.34	-0.750			
0.3949	25271.26	3.5820	3.5821	-1.1741	7.34	1.35	-0.750			
0.3984	25495.39	3.5790	3.5790	-1.1899	7.35	1.36	-0.750			
0.4021	25731.31	3.5760	3.5759	-1.2194	7.35	1.36	-0.750			
0.4058	25968.74	3.5730	3.5729	-1.2320	7.36	1.37	-0.750			
0.4096	26211.67	3.5700	3.5698	-1.2480	7.36	1.37	-0.750			
0.4133	26451.34	3.5670	3.5670	-1.2451	7.37	1.38	-0.750			
0.4170	26688.62	3.5640	3.5640	-1.2452	7.37	1.38	-0.750			
0.4208	26928.80	3.5610	3.5611	-1.2537	7.37	1.38	-0.750			
0.4245	27164.83	3.5580	3.5579	-1.2594	7.38	1.39	-0.750			
0.4282	27406.65	3.5550	3.5549	-1.2709	7.39	1.40	-0.750			
0.4321	27652.76	3.5520	3.5523	-1.2798	7.40	1.41	-0.750			
0.4360	27904.40	3.5490	3.5490	-1.2904	7.41	1.42	-0.750			
0.4399	28155.84	3.5460	3.5460	-1.2907	7.41	1.42	-0.750			
0.4437	28399.86	3.5430	3.5432	-1.3000	7.42	1.43	-0.750			
0.4476	28648.62	3.5400	3.5399	-1.2989	7.43	1.44	-0.750			
0.4515	28896.25	3.5370	3.5369	-1.3017	7.44	1.45	-0.750			
0.4554	29144.51	3.5340	3.5340	-1.3183	7.45	1.46	-0.750			
0.4594	29400.19	3.5310	3.5312	-1.3254	7.45	1.46	-0.750			
0.4635	29660.97	3.5280	3.5279	-1.3392	7.46	1.47	-0.750			
0.4675	29919.11	3.5250	3.5249	-1.3343	7.46	1.47	-0.750			
0.4714	30171.64	3.5220	3.5219	-1.3304	7.47	1.48	-0.750			
0.4754	30428.68	3.5190	3.5191	-1.3416	7.47	1.48	-0.750			
0.4794	30683.31	3.5160	3.5159	-1.3485	7.48	1.49	-0.750			
0.4835	30942.60	3.5130	3.5130	-1.3504	7.49	1.50	-0.750			
0.4876	31206.70	3.5100	3.5100	-1.3618	7.50	1.51	-0.750			
0.4918	31472.47	3.5070	3.5069	-1.3518	7.51	1.52	-0.750			
0.4958	31731.95	3.5040	3.5041	-1.3470	7.52	1.53	-0.750			
0.4998	31988.28	3.5010	3.5010	-1.3446	7.53	1.54	-0.750			
0.5038	32241.09	3.4980	3.4979	-1.3392	7.54	1.55	-0.750			
0.5078	32496.70	3.4950	3.4949	-1.3412	7.55	1.56	-0.750			
0.5119	32761.81	3.4920	3.4920	-1.3359	7.56	1.57	-0.750			
0.5160	33021.84	3.4890	3.4890	-1.3347	7.56	1.57	-0.750			
0.5200	33279.11	3.4860	3.4862	-1.3215	7.57	1.58	-0.750			
0.5239	33528.28	3.4830	3.4830	-1.2953	7.58	1.59	-0.750			
0.5277	33772.26	3.4800	3.4799	-1.2845	7.59	1.60	-0.750			
0.5314	34012.40	3.4770	3.4769	-1.2736	7.60	1.61	-0.750			
0.5353	34257.64	3.4740	3.4740	-1.2853	7.61	1.62	-0.750			
0.5391	34504.47	3.4710	3.4708	-1.2858	7.62	1.63	-0.750			
0.5429	34747.99	3.4680	3.4681	-1.2988	7.63	1.64	-0.750			
0.5469	35001.94	3.4650	3.4649	-1.3049	7.64	1.65	-0.750			
0.5509	35257.25	3.4620	3.4620	-1.3055	7.65	1.66	-0.750			
0.5548	35510.23	3.4590	3.4589	-1.2899	7.66	1.67	-0.750			
0.5587	35758.98	3.4560	3.4560	-1.2732	7.67	1.68	-0.750			
0.5625	36000.64	3.4530	3.4530	-1.2571	7.68	1.69	-0.750			
0.5662	36237.74	3.4500	3.4499	-1.2413	7.69	1.70	-0.750			
0.5698	36470.03	3.4470	3.4470	-1.2193	7.70	1.71	-0.750			
0.5735	36706.71	3.4440	3.4440	-1.2141	7.71	1.72	-0.750			
0.5772	36939.90	3.4410	3.4410	-1.2086	7.73	1.74	-0.750			
0.5808	37172.04	3.4380	3.4381	-1.1942	7.74	1.75	-0.750			
0.5844	37401.00	3.4350	3.4348	-1.1833	7.75	1.76	-0.750			
0.5879	37626.10	3.4320	3.4320	-1.1637	7.76	1.77	-0.750			
0.5913	37846.05	3.4290	3.4290	-1.1521	7.78	1.79	-0.750			
0.5948	38065.64	3.4260	3.4262	-1.1465	7.79	1.80	-0.750			
0.5982	38286.91	3.4230	3.4229	-1.1353	7.80	1.81	-0.750			
0.6016	38503.30	3.4200	3.4199	-1.1192	7.81	1.82	-0.750			
0.6050	38717.95	3.4170	3.4169	-1.1062	7.82	1.83	-0.750			
0.6083	38930.08	3.4140	3.4141	-1.0970	7.83	1.84	-0.750			
0.6116	39139.36	3.4110	3.4110	-1.0743	7.84	1.85	-0.750			
0.6147	39341.27	3.4080	3.4079	-1.0535	7.86	1.87	-0.750			
0.6178	39542.08	3.4050	3.4051	-1.0259	7.87	1.88	-0.750			
0.6210	39740.98	3.4020	3.4019	-1.0035	7.89	1.90	-0.750			
0.6239	39931.94	3.3990	3.3990	-0.9851	7.89	1.90	-0.750			
0.6268	40117.50	3.3960	3.3958	-0.9592	7.90	1.91	-0.750			
0.6296	40296.25	3.3930	3.3930	-0.9379	7.91	1.92	-0.750			
0.6324	40474.87	3.3900	3.3901	-0.9243	7.92	1.93	-0.750			
0.6351	40649.15	3.3870	3.3869	-0.9055	7.94	1.95	-0.750			
0.6379	40824.68	3.3840	3.3840	-0.8868	7.95	1.96	-0.750			
0.6405	40993.52	3.3810	3.3809	-0.8647	7.97	1.98	-0.750			
0.6431	41156.21	3.3780	3.3781	-0.8486	7.98	1.99	-0.750			
0.6456	41317.64	3.3750	3.3750	-0.8288	8.00	2.01	-0.750			
0.6480	41471.44	3.3720	3.3719	-0.8122	8.01	2.02	-0.750			
0.6504	41626.45	3.3690	3.3690	-0.7991	8.02	2.03	-0.750			
0.6528	41780.26	3.3660	3.3660	-0.7774	8.04	2.05	-0.750			
0.6551	41928.29	3.3630	3.3630	-0.7612	8.05	2.06	-0.750			
0.6574	42073.21	3.3600	3.3601	-0.7413	8.06	2.07	-0.750			
0.6596	42212.42	3.3570	3.3568	-0.7184	8.08	2.09	-0.750			
0.6617	42347.65	3.3540	3.3540	-0.7025	8.09	2.10	-0.750			
0.6637	42479.26	3.3510	3.3512	-0.6871	8.10	2.11	-0.750			
0.6658	42610.04	3.3480	3.3479	-0.6769	8.12	2.13	-0.750			
0.6678	42739.69	3.3450	3.3449	-0.6661	8.13	2.14	-0.750			
0.6698	42864.82	3.3420	3.3421	-0.6490	8.14	2.15	-0.750			
0.6717	42989.35	3.3390	3.3390	-0.6375	8.16	2.17	-0.750			
0.6736	43112.20	3.3360	3.3360	-0.6233	8.17	2.18	-0.750			
0.6755	43230.16	3.3330	3.3330	-0.6059	8.18	2.19	-0.750			
0.6773	43344.07	3.3300	3.3300	-0.5909	8.19	2.20	-0.750			
0.6790	43455.72	3.3270	3.3270	-0.5783	8.20	2.21	-0.750			
0.6807	43565.23	3.3240	3.3239	-0.5631	8.21	2.22	-0.750			
0.6824	43672.31	3.3210	3.3210	-0.5504	8.22	2.23	-0.750			
0.6840	43776.57	3.3180	3.3180	-0.5390	8.24	2.25	-0.750			
0.6856	43878.28	3.3150	3.3150	-0.5310	8.25	2.26	-0.750			
0.6872	43978.74	3.3120	3.3120	-0.5217	8.26	2.27	-0.750			
0.6887	44078.20	3.3090	3.3089	-0.5106	8.28	2.29	-0.750			
0.6903	44176.25	3.3060	3.3060	-0.4987	8.29	2.30	-0.750			
0.6917	44271.85	3.3030	3.3031	-0.4897	8.30	2.31	-0.750			
0.6932	44364.28	3.3000	3.3000	-0.4764	8.31	2.32	-0.750			
0.6946	44453.79	3.2970	3.2970	-0.4656	8.32	2.33	-0.750			
0.6960	44541.38	3.2940	3.2939	-0.4569	8.33	2.34	-0.750			
0.6973	44628.16	3.2910	3.2911	-0.4470	8.34	2.35	-0.750			
0.6987	44713.96	3.2880	3.2880	-0.4387	8.35	2.36	-0.750			
0.7000	44798.06	3.2850	3.2850	-0.4324	8.37	2.38	-0.750			
0.7012	44879.73	3.2820	3.2820	-0.4211	8.38	2.39	-0.750			
0.7025	44958.53	3.2790	3.2790	-0.4156	8.39	2.40	-0.750			
0.7037	45037.42	3.2760	3.2760	-0.4087	8.39	2.40	-0.750			
0.7049	45115.51	3.2730	3.2730	-0.4017	8.40	2.41	-0.750			
0.7061	45192.52	3.2700	3.2700	-0.3978	8.41	2.42	-0.750			
0.7073	45269.23	3.2670	3.2671	-0.3906	8.42	2.43	-0.750			
0.7085	45342.76	3.2640	3.2640	-0.3836	8.44	2.45	-0.750			
0.7096	45415.56	3.2610	3.2610	-0.3778	8.45	2.46	-0.750			
0.7107	45486.51	3.2580	3.2581	-0.3718	8.46	2.47	-0.750			
0.7118	45558.34	3.2550	3.2549	-0.3680	8.47	2.48	-0.750			
0.7129	45628.66	3.2520	3.2520	-0.3644	8.48	2.49	-0.750			
0.7140	45697.77	3.2490	3.2491	-0.3591	8.49	2.50	-0.750			
0.7151	45767.50	3.2460	3.2459	-0.3550	8.50	2.51	-0.750			
0.7162	45834.53	3.2430	3.2429	-0.3490	8.51	2.52	-0.750			
0.7172	45900.43	3.2400	3.2401	-0.3434	8.52	2.53	-0.750			
0.7182	45966.01	3.2370	3.2369	-0.3381	8.53	2.54	-0.750			
0.7192	46031.59	3.2340	3.2340	-0.3335	8.53	2.54	-0.750			
0.7202	46094.65	3.2310	3.2310	-0.3256	8.54	2.55	-0.750			
0.7212	46156.47	3.2280	3.2281	-0.3195	8.55	2.56	-0.750			
0.7221	46216.89	3.2250	3.2250	-0.3163	8.56	2.57	-0.750			
0.7231	46276.81	3.2220	3.2218	-0.3106	8.57	2.58	-0.750			
0.7240	46335.78	3.2190	3.2190	-0.3062	8.58	2.59	-0.750			
0.7249	46394.31	3.2160	3.2162	-0.3029	8.59	2.60	-0.750			
0.7258	46452.98	3.2130	3.2129	-0.2990	8.60	2.61	-0.750			
0.7267	46509.95	3.2100	3.2100	-0.2940	8.61	2.62	-0.750			
0.7276	46565.16	3.2070	3.2070	-0.2886	8.62	2.63	-0.750			
0.7284	46619.24	3.2040	3.2040	-0.2851	8.63	2.64	-0.750			
0.7293	46674.27	3.2010	3.2010	-0.2829	8.64	2.65	-0.750			
0.7301	46728.11	3.1980	3.1980	-0.2797	8.65	2.66	-0.750			
0.7310	46781.55	3.1950	3.1950	-0.2778	8.65	2.66	-0.750			
0.7318	46835.03	3.1920	3.1922	-0.2758	8.66	2.67	-0.750			
0.7326	46887.83	3.1890	3.1890	-0.2729	8.67	2.68	-0.750			
0.7334	46939.85	3.1860	3.1860	-0.2691	8.68	2.69	-0.750			
0.7342	46991.43	3.1830	3.1830	-0.2648	8.69	2.70	-0.750			
0.7350	47042.08	3.1800	3.1800	-0.2616	8.70	2.71	-0.750			
0.7358	47091.84	3.1770	3.1770	-0.2565	8.71	2.72	-0.750			
0.7366	47139.78	3.1740	3.1740	-0.2535	8.72	2.73	-0.750			
0.7373	47188.08	3.1710	3.1710	-0.2515	8.73	2.74	-0.750			
0.7381	47235.67	3.1680	3.1680	-0.2493	8.74	2.75	-0.750			
0.7388	47283.59	3.1650	3.1650	-0.2481	8.75	2.76	-0.750			
0.7396	47331.68	3.1620	3.1621	-0.2459	8.76	2.77	-0.750			
0.7403	47378.60	3.1590	3.1590	-0.2437	8.77	2.78	-0.750			
0.7410	47425.36	3.1560	3.1561	-0.2417	8.78	2.79	-0.750			
0.7417	47470.82	3.1530	3.1530	-0.2392	8.79	2.80	-0.750			
0.7424	47516.73	3.1500	3.1500	-0.2363	8.79	2.80	-0.750			
0.7432	47562.16	3.1470	3.1470	-0.2342	8.80	2.81	-0.750			
0.7439	47607.13	3.1440	3.1440	-0.2321	8.81	2.82	-0.750			
0.7446	47651.71	3.1410	3.1411	-0.2300	8.82	2.83	-0.750			
0.7452	47695.16	3.1380	3.1379	-0.2266	8.83	2.84	-0.750			
0.7459	47738.47	3.1350	3.1351	-0.2237	8.84	2.85	-0.750			
0.7466	47781.13	3.1320	3.1319	-0.2209	8.85	2.86	-0.750			
0.7472	47822.67	3.1290	3.1290	-0.2193	8.86	2.87	-0.750			
0.7479	47865.04	3.1260	3.1260	-0.2181	8.87	2.88	-0.750			
0.7485	47906.61	3.1230	3.1230	-0.2161	8.88	2.89	-0.750			
0.7492	47947.94	3.1200	3.1199	-0.2145	8.89	2.90	-0.750			
0.7498	47988.91	3.1170	3.1171	-0.2128	8.89	2.90	-0.750			
0.7505	48029.45	3.1140	3.1140	-0.2120	8.90	2.91	-0.750			
0.7511	48070.22	3.1110	3.1110	-0.2111	8.91	2.92	-0.750			
0.7517	48110.63	3.1080	3.1079	-0.2098	8.92	2.93	-0.750			
0.7524	48150.58	3.1050	3.1050	-0.2074	8.93	2.94	-0.750			
0.7530	48190.90	3.1020	3.1020	-0.2056	8.94	2.95	-0.750			
0.7536	48230.03	3.0990	3.0990	-0.2036	8.95	2.96	-0.750			
0.7542	48268.86	3.0960	3.0961	-0.2009	8.95	2.96	-0.750			
0.7548	48307.04	3.0930	3.0930	-0.1992	8.96	2.97	-0.750			
0.7554	48344.87	3.0900	3.0899	-0.1962	8.97	2.98	-0.750			
0.7560	48382.10	3.0870	3.0870	-0.1949	8.98	2.99	-0.750			
0.7566	48419.43	3.0840	3.0841	-0.1939	8.99	3.00	-0.750			
0.7571	48456.42	3.0810	3.0810	-0.1938	8.99	3.00	-0.750			
0.7577	48493.72	3.0780	3.0779	-0.1931	9.00	3.01	-0.750			
0.7583	48530.70	3.0750	3.0750	-0.1914	9.01	3.02	-0.750			
0.7589	48567.36	3.0720	3.0720	-0.1905	9.02	3.03	-0.750			
0.7594	48604.07	3.0690	3.0691	-0.1891	9.03	3.04	-0.750			
0.7600	48640.57	3.0660	3.0660	-0.1886	9.04	3.05	-0.750			
0.7606	48676.25	3.0630	3.0630	-0.1865	9.05	3.06	-0.750			
0.7611	48711.94	3.0600	3.0599	-0.1853	9.05	3.06	-0.750			
0.7617	48747.09	3.0570	3.0570	-0.1843	9.06	3.07	-0.750			
0.7622	48782.35	3.0540	3.0540	-0.1842	9.07	3.08	-0.750			
0.7628	48818.02	3.0510	3.0510	-0.1833	9.08	3.09	-0.750			
0.7633	48853.31	3.0480	3.0480	-0.1814	9.09	3.10	-0.750			
0.7639	48888.22	3.0450	3.0449	-0.1799	9.10	3.11	-0.750			
0.7644	48922.53	3.0420	3.0420	-0.1786	9.10	3.11	-0.750			
0.7649	48956.61	3.0390	3.0390	-0.1773	9.11	3.12	-0.750			
0.7655	48990.25	3.0360	3.0360	-0.1767	9.12	3.13	-0.750			
0.7660	49023.68	3.0330	3.0330	-0.1757	9.13	3.14	-0.750			
0.7665	49057.22	3.0300	3.0300	-0.1747	9.14	3.15	-0.750			
0.7670	49090.72	3.0270	3.0270	-0.1754	9.15	3.16	-0.750			
0.7676	49124.57	3.0240	3.0240	-0.1757	9.16	3.17	-0.750			
0.7681	49158.30	3.0210	3.0211	-0.1757	9.17	3.18	-0.750			
0.7686	49192.18	3.0180	3.0179	-0.1739	9.18	3.19	-0.750			
0.7692	49225.74	3.0150	3.0151	-0.1730	9.19	3.20	-0.750			
0.7697	49258.87	3.0120	3.0121	-0.1714	9.20	3.21	-0.750			
0.7702	49291.59	3.0090	3.0089	-0.1695	9.20	3.21	-0.750			
0.7707	49324.21	3.0060	3.0060	-0.1655	9.21	3.22	-0.750			
0.7712	49355.92	3.0030	3.0030	-0.1673	9.22	3.23	-0.750			
