Ah_balance (normalized)	Ah_balance (mAh)	Voltage - fit (V)	Voltage -  interpolate (V)	dQ/dV (1/V)	Temperature (°C)	Temperature - diff (°C)	Current (C)	R_DC 0ms (mOhm)	R_DC 50ms (mOhm)	R_DC 50 ms PEC (mOhm)
0.0980	6272.24	4.1960	4.1983	0.6039	8.31	2.33	0.750			
0.1001	6403.47	4.1930	4.1952	0.7096	8.30	2.32	0.750			
0.1024	6554.63	4.1900	4.1916	0.7599	8.29	2.31	0.750			
0.1047	6703.73	4.1870	4.1882	0.7548	8.29	2.31	0.750			
0.1072	6858.03	4.1840	4.1849	0.7708	8.28	2.30	0.750			
0.1097	7023.51	4.1810	4.1810	0.7899	8.27	2.29	0.750			
0.1120	7165.61	4.1780	4.1781	0.7142	8.27	2.29	0.750			
0.1141	7303.84	4.1750	4.1749	0.7137	8.26	2.28	0.750			
0.1163	7442.14	4.1720	4.1720	0.7227	8.26	2.28	0.750			
0.1185	7581.21	4.1690	4.1692	0.7214	8.25	2.27	0.750			
0.1206	7720.88	4.1660	4.1659	0.7225	8.24	2.26	0.750			
0.1228	7860.45	4.1630	4.1629	0.7186	8.24	2.26	0.750			
0.1249	7996.53	4.1600	4.1600	0.7189	8.23	2.25	0.750			
0.1271	8136.43	4.1570	4.1570	0.7195	8.23	2.25	0.750			
0.1293	8272.63	4.1540	4.1540	0.7258	8.22	2.24	0.750			
0.1314	8409.98	4.1510	4.1509	0.7241	8.21	2.23	0.750			
0.1336	8551.20	4.1480	4.1481	0.7304	8.21	2.23	0.750			
0.1358	8692.39	4.1450	4.1449	0.7343	8.20	2.22	0.750			
0.1380	8834.95	4.1420	4.1421	0.7316	8.19	2.21	0.750			
0.1402	8975.91	4.1390	4.1390	0.7257	8.19	2.21	0.750			
0.1424	9114.51	4.1360	4.1360	0.7297	8.18	2.20	0.750			
0.1446	9252.40	4.1330	4.1331	0.7259	8.18	2.20	0.750			
0.1467	9390.40	4.1300	4.1299	0.7362	8.17	2.19	0.750			
0.1490	9532.86	4.1270	4.1270	0.7407	8.17	2.19	0.750			
0.1512	9677.19	4.1240	4.1240	0.7480	8.16	2.18	0.750			
0.1535	9822.21	4.1210	4.1210	0.7563	8.15	2.17	0.750			
0.1558	9968.81	4.1180	4.1181	0.7645	8.14	2.16	0.750			
0.1581	10115.61	4.1150	4.1149	0.7625	8.14	2.16	0.750			
0.1604	10262.71	4.1120	4.1118	0.7646	8.13	2.15	0.750			
0.1626	10409.45	4.1090	4.1091	0.7626	8.12	2.14	0.750			
0.1650	10560.18	4.1060	4.1060	0.7608	8.12	2.14	0.750			
0.1672	10701.77	4.1030	4.1030	0.7622	8.11	2.13	0.750			
0.1695	10848.18	4.1000	4.1001	0.7632	8.11	2.13	0.750			
0.1717	10990.93	4.0970	4.0969	0.7681	8.10	2.12	0.750			
0.1741	11140.48	4.0940	4.0940	0.7766	8.10	2.12	0.750			
0.1764	11291.38	4.0910	4.0911	0.7829	8.09	2.11	0.750			
0.1788	11444.26	4.0880	4.0879	0.7883	8.08	2.10	0.750			
0.1812	11598.92	4.0850	4.0850	0.7960	8.07	2.09	0.750			
0.1836	11747.85	4.0820	4.0822	0.7954	8.07	2.09	0.750			
0.1860	11901.76	4.0790	4.0790	0.8008	8.06	2.08	0.750			
0.1884	12055.48	4.0760	4.0758	0.7991	8.05	2.07	0.750			
0.1908	12209.11	4.0730	4.0730	0.7995	8.05	2.07	0.750			
0.1931	12360.89	4.0700	4.0702	0.8023	8.05	2.07	0.750			
0.1956	12516.03	4.0670	4.0670	0.8053	8.04	2.06	0.750			
0.1980	12670.87	4.0640	4.0637	0.8062	8.04	2.06	0.750			
0.2004	12825.76	4.0610	4.0610	0.8092	8.03	2.05	0.750			
0.2028	12981.28	4.0580	4.0581	0.8100	8.02	2.04	0.750			
0.2053	13138.49	4.0550	4.0551	0.8232	8.02	2.04	0.750			
0.2077	13294.40	4.0520	4.0520	0.8217	8.01	2.03	0.750			
0.2102	13454.58	4.0490	4.0488	0.8270	8.00	2.02	0.750			
0.2127	13613.77	4.0460	4.0461	0.8348	7.99	2.01	0.750			
0.2152	13775.62	4.0430	4.0431	0.8314	7.98	2.00	0.750			
0.2177	13934.66	4.0400	4.0399	0.8402	7.97	1.99	0.750			
0.2202	14094.44	4.0370	4.0371	0.8447	7.96	1.98	0.750			
0.2228	14257.95	4.0340	4.0336	0.8481	7.95	1.97	0.750			
0.2254	14423.84	4.0310	4.0309	0.8510	7.94	1.96	0.750			
0.2279	14588.27	4.0280	4.0283	0.8531	7.94	1.96	0.750			
0.2305	14751.65	4.0250	4.0250	0.8584	7.93	1.95	0.750			
0.2330	14914.95	4.0220	4.0219	0.8605	7.93	1.95	0.750			
0.2356	15077.26	4.0190	4.0190	0.8632	7.92	1.94	0.750			
0.2382	15246.93	4.0160	4.0160	0.8735	7.91	1.93	0.750			
0.2409	15420.71	4.0130	4.0129	0.8853	7.91	1.93	0.750			
0.2436	15590.22	4.0100	4.0101	0.8869	7.90	1.92	0.750			
0.2463	15761.18	4.0070	4.0071	0.8809	7.89	1.91	0.750			
0.2489	15928.19	4.0040	4.0040	0.8798	7.89	1.91	0.750			
0.2515	16097.93	4.0010	4.0009	0.8664	7.88	1.90	0.750			
0.2541	16260.53	3.9980	3.9982	0.8803	7.87	1.89	0.750			
0.2567	16429.43	3.9950	3.9951	0.8982	7.86	1.88	0.750			
0.2594	16602.40	3.9920	3.9919	0.9088	7.85	1.87	0.750			
0.2622	16780.53	3.9890	3.9890	0.9141	7.84	1.86	0.750			
0.2650	16959.66	3.9860	3.9860	0.9217	7.83	1.85	0.750			
0.2678	17136.22	3.9830	3.9832	0.9255	7.83	1.85	0.750			
0.2706	17316.24	3.9800	3.9801	0.9337	7.82	1.84	0.750			
0.2733	17489.54	3.9770	3.9768	0.9252	7.81	1.83	0.750			
0.2761	17668.13	3.9740	3.9740	0.9316	7.80	1.82	0.750			
0.2789	17846.55	3.9710	3.9710	0.9431	7.79	1.81	0.750			
0.2817	18031.93	3.9680	3.9681	0.9395	7.78	1.80	0.750			
0.2846	18215.09	3.9650	3.9648	0.9400	7.77	1.79	0.750			
0.2874	18393.07	3.9620	3.9622	0.9370	7.76	1.78	0.750			
0.2902	18572.67	3.9590	3.9589	0.9424	7.76	1.78	0.750			
0.2930	18750.48	3.9560	3.9559	0.9554	7.75	1.77	0.750			
0.2959	18934.98	3.9530	3.9531	0.9741	7.74	1.76	0.750			
0.2988	19123.79	3.9500	3.9500	0.9803	7.74	1.76	0.750			
0.3018	19316.28	3.9470	3.9472	0.9954	7.73	1.75	0.750			
0.3048	19509.24	3.9440	3.9440	0.9991	7.72	1.74	0.750			
0.3078	19700.49	3.9410	3.9409	1.0075	7.72	1.74	0.750			
0.3108	19893.99	3.9380	3.9379	1.0069	7.71	1.73	0.750			
0.3139	20086.96	3.9350	3.9350	0.9975	7.70	1.72	0.750			
0.3168	20278.27	3.9320	3.9322	1.0115	7.69	1.71	0.750			
0.3199	20473.07	3.9290	3.9291	1.0271	7.68	1.70	0.750			
0.3230	20670.47	3.9260	3.9256	1.0363	7.67	1.69	0.750			
0.3261	20868.69	3.9230	3.9231	1.0509	7.66	1.68	0.750			
0.3292	21071.20	3.9200	3.9201	1.0678	7.65	1.67	0.750			
0.3326	21283.30	3.9170	3.9171	1.0869	7.64	1.66	0.750			
0.3359	21496.09	3.9140	3.9138	1.0750	7.63	1.65	0.750			
0.3391	21700.12	3.9110	3.9111	1.0775	7.62	1.64	0.750			
0.3423	21904.67	3.9080	3.9082	1.0874	7.61	1.63	0.750			
0.3455	22113.85	3.9050	3.9049	1.1062	7.61	1.63	0.750			
0.3489	22326.86	3.9020	3.9020	1.1109	7.60	1.62	0.750			
0.3522	22541.32	3.8990	3.8990	1.1236	7.58	1.60	0.750			
0.3557	22761.79	3.8960	3.8962	1.1414	7.57	1.59	0.750			
0.3591	22984.32	3.8930	3.8929	1.1484	7.55	1.57	0.750			
0.3625	23202.32	3.8900	3.8900	1.1520	7.54	1.56	0.750			
0.3660	23423.95	3.8870	3.8870	1.1507	7.53	1.55	0.750			
0.3694	23642.06	3.8840	3.8840	1.1863	7.52	1.54	0.750			
0.3730	23872.08	3.8810	3.8810	1.2141	7.51	1.53	0.750			
0.3767	24106.30	3.8780	3.8780	1.2465	7.50	1.52	0.750	0.379	0.815	
0.3805	24353.93	3.8750	3.8751	1.2671	7.49	1.51	0.750			
0.3844	24603.01	3.8720	3.8721	1.2774	7.48	1.50	0.750			
0.3883	24849.09	3.8690	3.8691	1.2838	7.47	1.49	0.750			
0.3921	25094.64	3.8660	3.8661	1.3062	7.46	1.48	0.750			
0.3959	25339.37	3.8630	3.8630	1.3050	7.45	1.47	0.750			
0.3999	25591.76	3.8600	3.8596	1.3403	7.43	1.45	0.750			
0.4039	25850.57	3.8570	3.8572	1.3661	7.43	1.45	0.750			
0.4081	26121.16	3.8540	3.8540	1.3969	7.41	1.43	0.750			
0.4125	26397.12	3.8510	3.8511	1.4168	7.40	1.42	0.750			
0.4167	26665.75	3.8480	3.8479	1.4090	7.39	1.41	0.750			
0.4210	26941.80	3.8450	3.8451	1.4146	7.38	1.40	0.750			
0.4252	27214.26	3.8420	3.8420	1.4432	7.36	1.38	0.750			
0.4295	27488.80	3.8390	3.8391	1.4644	7.34	1.36	0.750			
0.4339	27772.54	3.8360	3.8358	1.4838	7.33	1.35	0.750			
0.4384	28058.40	3.8330	3.8332	1.5112	7.31	1.33	0.750			
0.4430	28352.01	3.8300	3.8299	1.5346	7.29	1.31	0.750			
0.4477	28651.24	3.8270	3.8267	1.5636	7.27	1.29	0.750			
0.4524	28954.46	3.8240	3.8240	1.5681	7.25	1.27	0.750			
0.4572	29258.81	3.8210	3.8212	1.5716	7.24	1.26	0.750			
0.4619	29561.51	3.8180	3.8182	1.6017	7.22	1.24	0.750			
0.4667	29871.18	3.8150	3.8147	1.6181	7.20	1.22	0.750			
0.4716	30183.11	3.8120	3.8120	1.6347	7.18	1.20	0.750			
0.4765	30498.91	3.8090	3.8093	1.6677	7.15	1.17	0.750			
0.4817	30826.73	3.8060	3.8062	1.7092	7.13	1.15	0.750			
0.4869	31162.65	3.8030	3.8028	1.7225	7.10	1.12	0.750			
0.4922	31498.17	3.8000	3.8001	1.7318	7.08	1.10	0.750			
0.4973	31824.21	3.7970	3.7970	1.7657	7.05	1.07	0.750			
0.5026	32166.59	3.7940	3.7941	1.7882	7.03	1.05	0.750			
0.5080	32514.70	3.7910	3.7906	1.8180	7.00	1.02	0.750			
0.5136	32867.25	3.7880	3.7880	1.8417	6.97	0.99	0.750			
0.5191	33224.39	3.7850	3.7849	1.8712	6.95	0.97	0.750			
0.5248	33590.22	3.7820	3.7820	1.9162	6.92	0.94	0.750			
0.5305	33951.70	3.7790	3.7790	1.9393	6.89	0.91	0.750			
0.5362	34317.49	3.7760	3.7760	1.9837	6.85	0.87	0.750			
0.5423	34704.32	3.7730	3.7730	2.0556	6.82	0.84	0.750			
0.5486	35107.27	3.7700	3.7701	2.1401	6.79	0.81	0.750			
0.5552	35531.21	3.7670	3.7670	2.2230	6.75	0.77	0.750			
0.5620	35964.97	3.7640	3.7639	2.3286	6.71	0.73	0.750			
0.5691	36419.63	3.7610	3.7611	2.3867	6.67	0.69	0.750			
0.5763	36883.11	3.7580	3.7582	2.4620	6.63	0.65	0.750			
0.5838	37362.08	3.7550	3.7549	2.6716	6.59	0.61	0.750			
0.5920	37889.16	3.7520	3.7518	2.7780	6.54	0.56	0.750			
0.6007	38447.52	3.7490	3.7492	3.0172	6.49	0.51	0.750			
0.6099	39034.53	3.7460	3.7457	3.1527	6.44	0.46	0.750			
0.6195	39648.82	3.7430	3.7433	3.1797	6.40	0.42	0.750			
0.6295	40286.74	3.7400	3.7402	3.2331	6.34	0.36	0.750			
0.6389	40891.76	3.7370	3.7370	2.9721	6.29	0.31	0.750			
0.6477	41453.64	3.7340	3.7341	2.6981	6.24	0.26	0.750			
0.6554	41944.76	3.7310	3.7309	2.3667	6.21	0.23	0.750			
0.6617	42347.36	3.7280	3.7280	2.0142	6.18	0.20	0.750			
0.6672	42703.00	3.7250	3.7251	1.7477	6.16	0.18	0.750			
0.6719	43003.47	3.7220	3.7218	1.5371	6.14	0.16	0.750			
0.6760	43261.99	3.7190	3.7191	1.3781	6.13	0.15	0.750			
0.6796	43493.42	3.7160	3.7160	1.2747	6.12	0.14	0.750			
0.6831	43720.51	3.7130	3.7130	1.2049	6.11	0.13	0.750			
0.6867	43946.42	3.7100	3.7100	1.1595	6.10	0.12	0.750			
0.6901	44165.48	3.7070	3.7071	1.1338	6.08	0.10	0.750			
0.6935	44385.01	3.7040	3.7042	1.1137	6.07	0.09	0.750			
0.6968	44595.69	3.7010	3.7009	1.0854	6.06	0.08	0.750			
0.7000	44799.25	3.6980	3.6979	1.0420	6.06	0.08	0.750			
0.7031	44997.08	3.6950	3.6951	1.0091	6.05	0.07	0.750			
0.7061	45189.49	3.6920	3.6921	0.9876	6.05	0.07	0.750			
0.7090	45375.37	3.6890	3.6890	0.9594	6.04	0.06	0.750			
0.7118	45555.59	3.6860	3.6860	0.9299	6.04	0.06	0.750			
0.7145	45729.77	3.6830	3.6829	0.9063	6.04	0.06	0.750			
0.7172	45899.98	3.6800	3.6801	0.8919	6.03	0.05	0.750			
0.7198	46069.92	3.6770	3.6770	0.8864	6.03	0.05	0.750			
0.7225	46237.77	3.6740	3.6739	0.8779	6.03	0.05	0.750			
0.7250	46402.69	3.6710	3.6710	0.8737	6.02	0.04	0.750			
0.7277	46570.05	3.6680	3.6681	0.8736	6.02	0.04	0.750			
0.7303	46738.43	3.6650	3.6650	0.8790	6.01	0.03	0.750			
0.7329	46907.62	3.6620	3.6620	0.8753	6.01	0.03	0.750			
0.7356	47076.88	3.6590	3.6586	0.8687	6.00	0.02	0.750			
0.7382	47244.54	3.6560	3.6562	0.8563	6.00	0.02	0.750			
0.7408	47411.69	3.6530	3.6530	0.8245	5.99	0.01	0.750			
0.7433	47572.33	3.6500	3.6500	0.7890	5.99	0.01	0.750			
0.7456	47721.29	3.6470	3.6471	0.7308	5.98	0.00	0.750			
0.7478	47857.95	3.6440	3.6438	0.6698	5.98	-0.00	0.750			
0.7498	47986.70	3.6410	3.6410	0.6002	5.98	-0.00	0.750			
0.7515	48095.32	3.6380	3.6381	0.5175	5.97	-0.01	0.750			
0.7529	48188.37	3.6350	3.6350	0.4356	5.97	-0.01	0.750			
0.7540	48253.25	3.6320	3.6324	0.3804	5.97	-0.01	0.750			
0.7549	48315.30	3.6290	3.6294	0.2988	5.97	-0.01	0.750			
0.7557	48363.56	3.6260	3.6257	0.2370	5.97	-0.01	0.750			
0.7562	48396.92	3.6230	3.6218	0.1755	5.97	-0.01	0.750			
0.7566	48422.34	3.6200	3.5864	0.1293	5.97	-0.01	0.750			
0.7566	48423.70	3.5990	3.5678	-0.1034	5.97	-0.01	0.750			
0.7568	48434.63	3.6170	3.4091	0.0844	5.97	-0.01	0.750			
0.7569	48440.54	3.6020	3.3233	-0.0721	5.97	-0.01	0.750			
0.7570	48447.83	3.6140	3.2175	0.0531	5.97	-0.01	0.750			
0.7571	48451.38	3.6050	3.1660	-0.0408	5.97	-0.01	0.750			
0.7571	48455.02	3.6110	3.1131	0.0218	5.96	-0.02	0.750			
0.7571	48456.20	3.6080	3.0960	-0.0095	5.96	-0.02	0.750			
