Ah_balance (normalized)	Ah_balance (mAh)	Voltage - fit (V)	Voltage -  interpolate (V)	dQ/dV (1/V)	Temperature (°C)	Temperature - diff (°C)	Current (C)	R_DC 0ms (mOhm)	R_DC 50ms (mOhm)	R_DC 50 ms PEC (mOhm)
0.0922	5901.56	4.1980	4.1913	0.6268	8.24	2.25	0.750	0.399	0.869	
0.0944	6044.08	4.1950	4.1967	0.7954	8.24	2.25	0.750			
0.0971	6211.40	4.1920	4.1931	0.8225	8.24	2.25	0.750			
0.0995	6369.49	4.1890	4.1897	0.7970	8.23	2.24	0.750			
0.1022	6540.79	4.1860	4.1858	0.8036	8.23	2.24	0.750			
0.1044	6679.93	4.1830	4.1826	0.7723	8.22	2.23	0.750			
0.1062	6797.83	4.1800	4.1800	0.7031	8.22	2.23	0.750			
0.1083	6932.66	4.1770	4.1770	0.7069	8.22	2.23	0.750			
0.1105	7070.35	4.1740	4.1740	0.7134	8.21	2.22	0.750			
0.1126	7207.40	4.1710	4.1712	0.7176	8.21	2.22	0.750			
0.1148	7346.24	4.1680	4.1679	0.7212	8.21	2.22	0.750			
0.1169	7484.19	4.1650	4.1650	0.7241	8.20	2.21	0.750			
0.1191	7624.14	4.1620	4.1618	0.7268	8.20	2.21	0.750			
0.1213	7764.91	4.1590	4.1591	0.7310	8.20	2.21	0.750			
0.1235	7906.20	4.1560	4.1559	0.7277	8.19	2.20	0.750			
0.1257	8046.36	4.1530	4.1531	0.7296	8.19	2.20	0.750			
0.1279	8184.34	4.1500	4.1499	0.7216	8.19	2.20	0.750			
0.1301	8323.22	4.1470	4.1470	0.7270	8.18	2.19	0.750			
0.1322	8461.91	4.1440	4.1439	0.7272	8.18	2.19	0.750			
0.1344	8600.91	4.1410	4.1410	0.7382	8.18	2.19	0.750			
0.1366	8743.83	4.1380	4.1380	0.7459	8.17	2.18	0.750			
0.1389	8888.76	4.1350	4.1350	0.7526	8.17	2.18	0.750			
0.1412	9034.08	4.1320	4.1320	0.7578	8.17	2.18	0.750			
0.1435	9182.69	4.1290	4.1290	0.7604	8.16	2.17	0.750			
0.1457	9327.51	4.1260	4.1261	0.7634	8.16	2.17	0.750			
0.1480	9474.52	4.1230	4.1231	0.7603	8.15	2.16	0.750			
0.1503	9619.68	4.1200	4.1198	0.7569	8.15	2.16	0.750			
0.1526	9765.28	4.1170	4.1171	0.7617	8.15	2.16	0.750			
0.1549	9910.47	4.1140	4.1141	0.7665	8.14	2.15	0.750			
0.1572	10057.74	4.1110	4.1111	0.7717	8.14	2.15	0.750			
0.1595	10207.56	4.1080	4.1080	0.7786	8.13	2.14	0.750			
0.1618	10356.99	4.1050	4.1049	0.7759	8.13	2.14	0.750			
0.1642	10508.26	4.1020	4.1021	0.7829	8.12	2.13	0.750			
0.1665	10657.49	4.0990	4.0990	0.7845	8.12	2.13	0.750			
0.1689	10807.23	4.0960	4.0960	0.7835	8.11	2.12	0.750			
0.1712	10956.17	4.0930	4.0929	0.7816	8.11	2.12	0.750			
0.1736	11108.52	4.0900	4.0899	0.7812	8.10	2.11	0.750			
0.1759	11256.55	4.0870	4.0872	0.7903	8.10	2.11	0.750			
0.1783	11409.17	4.0840	4.0840	0.7982	8.10	2.11	0.750			
0.1807	11561.76	4.0810	4.0812	0.8032	8.09	2.10	0.750			
0.1831	11717.51	4.0780	4.0779	0.8116	8.09	2.10	0.750			
0.1856	11877.82	4.0750	4.0751	0.8128	8.08	2.09	0.750			
0.1880	12033.54	4.0720	4.0719	0.8145	8.08	2.09	0.750			
0.1905	12188.94	4.0690	4.0692	0.8118	8.07	2.08	0.750			
0.1929	12343.60	4.0660	4.0662	0.8100	8.06	2.07	0.750			
0.1953	12498.67	4.0630	4.0628	0.8110	8.06	2.07	0.750			
0.1977	12654.76	4.0600	4.0602	0.8137	8.05	2.06	0.750			
0.2002	12810.28	4.0570	4.0570	0.8167	8.05	2.06	0.750			
0.2026	12968.40	4.0540	4.0541	0.8208	8.05	2.06	0.750			
0.2051	13126.25	4.0510	4.0511	0.8279	8.04	2.05	0.750			
0.2076	13284.39	4.0480	4.0479	0.8334	8.04	2.05	0.750			
0.2101	13448.02	4.0450	4.0450	0.8299	8.03	2.04	0.750			
0.2126	13606.63	4.0420	4.0420	0.8361	8.03	2.04	0.750			
0.2151	13766.13	4.0390	4.0392	0.8395	8.02	2.03	0.750			
0.2177	13929.61	4.0360	4.0361	0.8400	8.01	2.02	0.750			
0.2202	14089.74	4.0330	4.0330	0.8418	8.01	2.02	0.750			
0.2227	14250.49	4.0300	4.0301	0.8426	8.00	2.01	0.750			
0.2252	14412.36	4.0270	4.0272	0.8524	8.00	2.01	0.750			
0.2278	14578.47	4.0240	4.0239	0.8590	8.00	2.01	0.750			
0.2303	14741.63	4.0210	4.0210	0.8609	7.99	2.00	0.750			
0.2330	14909.40	4.0180	4.0181	0.8697	7.99	2.00	0.750			
0.2356	15078.02	4.0150	4.0151	0.8690	7.98	1.99	0.750			
0.2382	15245.02	4.0120	4.0120	0.8789	7.98	1.99	0.750			
0.2409	15415.08	4.0090	4.0090	0.8822	7.97	1.98	0.750			
0.2435	15583.52	4.0060	4.0060	0.8798	7.96	1.97	0.750			
0.2461	15752.86	4.0030	4.0031	0.8863	7.96	1.97	0.750			
0.2488	15922.79	4.0000	4.0001	0.8877	7.95	1.96	0.750			
0.2515	16095.53	3.9970	3.9968	0.8880	7.94	1.95	0.750			
0.2542	16266.50	3.9940	3.9941	0.8906	7.94	1.95	0.750			
0.2568	16434.25	3.9910	3.9910	0.8919	7.93	1.94	0.750			
0.2595	16606.37	3.9880	3.9880	0.9039	7.92	1.93	0.750			
0.2622	16782.15	3.9850	3.9849	0.9078	7.92	1.93	0.750			
0.2649	16954.78	3.9820	3.9820	0.9124	7.91	1.92	0.750			
0.2677	17132.56	3.9790	3.9791	0.9170	7.90	1.91	0.750			
0.2705	17310.25	3.9760	3.9761	0.9235	7.90	1.91	0.750			
0.2733	17489.61	3.9730	3.9728	0.9108	7.89	1.90	0.750			
0.2760	17660.86	3.9700	3.9700	0.9157	7.88	1.89	0.750			
0.2786	17833.18	3.9670	3.9671	0.9182	7.88	1.89	0.750			
0.2814	18010.77	3.9640	3.9639	0.9315	7.87	1.88	0.750			
0.2842	18190.48	3.9610	3.9610	0.9403	7.86	1.87	0.750			
0.2871	18374.82	3.9580	3.9580	0.9494	7.86	1.87	0.750			
0.2900	18557.89	3.9550	3.9551	0.9543	7.85	1.86	0.750			
0.2929	18744.17	3.9520	3.9520	0.9587	7.84	1.85	0.750			
0.2957	18927.90	3.9490	3.9490	0.9594	7.84	1.85	0.750			
0.2986	19110.43	3.9460	3.9460	0.9604	7.83	1.84	0.750			
0.3015	19295.10	3.9430	3.9430	0.9656	7.82	1.83	0.750			
0.3044	19480.86	3.9400	3.9400	0.9781	7.81	1.82	0.750			
0.3073	19669.18	3.9370	3.9370	0.9923	7.80	1.81	0.750			
0.3103	19860.14	3.9340	3.9340	0.9961	7.79	1.80	0.750			
0.3133	20053.18	3.9310	3.9311	1.0082	7.78	1.79	0.750			
0.3164	20249.65	3.9280	3.9280	1.0152	7.77	1.78	0.750			
0.3194	20444.68	3.9250	3.9247	1.0232	7.76	1.77	0.750			
0.3225	20642.16	3.9220	3.9221	1.0199	7.75	1.76	0.750			
0.3256	20835.54	3.9190	3.9191	1.0269	7.75	1.76	0.750			
0.3286	21032.08	3.9160	3.9160	1.0397	7.74	1.75	0.750			
0.3318	21232.36	3.9130	3.9127	1.0511	7.73	1.74	0.750			
0.3349	21434.55	3.9100	3.9101	1.0599	7.72	1.73	0.750			
0.3381	21638.93	3.9070	3.9071	1.0799	7.71	1.72	0.750			
0.3414	21847.79	3.9040	3.9041	1.0973	7.70	1.71	0.750			
0.3447	22063.24	3.9010	3.9008	1.1134	7.69	1.70	0.750			
0.3481	22275.84	3.8980	3.8981	1.1175	7.68	1.69	0.750			
0.3515	22493.84	3.8950	3.8950	1.1289	7.66	1.67	0.750			
0.3549	22714.27	3.8920	3.8922	1.1383	7.65	1.66	0.750			
0.3583	22930.62	3.8890	3.8892	1.1464	7.64	1.65	0.750			
0.3617	23145.72	3.8860	3.8860	1.1635	7.63	1.64	0.750			
0.3652	23371.88	3.8830	3.8830	1.1884	7.62	1.63	0.750			
0.3688	23604.83	3.8800	3.8797	1.2018	7.61	1.62	0.750			
0.3725	23839.74	3.8770	3.8770	1.2273	7.60	1.61	0.750			
0.3762	24077.70	3.8740	3.8742	1.2337	7.58	1.59	0.750			
0.3800	24318.03	3.8710	3.8711	1.2469	7.57	1.58	0.750			
0.3836	24552.88	3.8680	3.8679	1.2626	7.55	1.56	0.750			
0.3874	24791.97	3.8650	3.8651	1.2628	7.54	1.55	0.750			
0.3912	25037.49	3.8620	3.8620	1.2982	7.52	1.53	0.750			
0.3952	25293.41	3.8590	3.8589	1.3195	7.51	1.52	0.750			
0.3992	25545.88	3.8560	3.8561	1.3323	7.49	1.50	0.750	0.389	0.912	
0.4032	25806.24	3.8530	3.8531	1.3605	7.48	1.49	0.750			
0.4073	26065.17	3.8500	3.8498	1.3946	7.46	1.47	0.750			
0.4115	26333.31	3.8470	3.8471	1.4189	7.44	1.45	0.750			
0.4159	26614.48	3.8440	3.8440	1.4469	7.42	1.43	0.750			
0.4202	26894.01	3.8410	3.8411	1.4757	7.41	1.42	0.750			
0.4247	27179.79	3.8380	3.8382	1.5052	7.39	1.40	0.750			
0.4293	27473.77	3.8350	3.8351	1.5165	7.37	1.38	0.750			
0.4338	27764.37	3.8320	3.8319	1.5437	7.35	1.36	0.750			
0.4385	28063.99	3.8290	3.8289	1.5645	7.32	1.33	0.750			
0.4432	28367.65	3.8260	3.8261	1.6072	7.30	1.31	0.750			
0.4482	28683.31	3.8230	3.8232	1.6328	7.28	1.29	0.750			
0.4530	28990.99	3.8200	3.8201	1.6599	7.26	1.27	0.750			
0.4580	29314.96	3.8170	3.8170	1.6911	7.23	1.24	0.750			
0.4632	29646.95	3.8140	3.8138	1.7443	7.21	1.22	0.750			
0.4685	29981.38	3.8110	3.8110	1.7898	7.18	1.19	0.750			
0.4739	30331.38	3.8080	3.8081	1.8234	7.16	1.17	0.750			
0.4795	30685.99	3.8050	3.8054	1.8586	7.13	1.14	0.750			
0.4851	31048.09	3.8020	3.8018	1.9004	7.10	1.11	0.750			
0.4908	31413.91	3.7990	3.7990	1.9125	7.08	1.09	0.750			
0.4966	31783.43	3.7960	3.7960	1.9411	7.05	1.06	0.750			
0.5026	32166.78	3.7930	3.7931	1.9635	7.02	1.03	0.750			
0.5084	32539.55	3.7900	3.7899	1.9785	6.99	1.00	0.750			
0.5145	32928.69	3.7870	3.7871	2.0121	6.96	0.97	0.750			
0.5205	33312.11	3.7840	3.7839	2.0859	6.94	0.95	0.750			
0.5268	33717.77	3.7810	3.7810	2.1591	6.90	0.91	0.750			
0.5334	34138.34	3.7780	3.7780	2.1603	6.87	0.88	0.750			
0.5400	34561.51	3.7750	3.7751	2.2263	6.84	0.85	0.750			
0.5467	34986.85	3.7720	3.7720	2.2671	6.81	0.82	0.750			
0.5534	35418.23	3.7690	3.7690	2.3098	6.78	0.79	0.750			
0.5605	35874.78	3.7660	3.7663	2.3538	6.75	0.76	0.750			
0.5679	36344.69	3.7630	3.7630	2.3911	6.72	0.73	0.750			
0.5749	36792.45	3.7600	3.7599	2.3844	6.68	0.69	0.750			
0.5819	37243.65	3.7570	3.7567	2.4390	6.64	0.65	0.750			
0.5893	37713.64	3.7540	3.7539	2.5382	6.61	0.62	0.750			
0.5971	38211.83	3.7510	3.7510	2.6612	6.58	0.59	0.750			
0.6052	38735.78	3.7480	3.7480	2.8009	6.53	0.54	0.750			
0.6139	39292.15	3.7450	3.7450	2.9147	6.50	0.51	0.750			
0.6229	39865.02	3.7420	3.7420	2.9905	6.47	0.48	0.750			
0.6320	40445.39	3.7390	3.7391	3.0664	6.43	0.44	0.750			
0.6412	41037.33	3.7360	3.7360	3.1776	6.39	0.40	0.750			
0.6509	41657.36	3.7330	3.7331	3.2441	6.35	0.36	0.750			
0.6610	42304.97	3.7300	3.7300	3.1535	6.31	0.32	0.750			
0.6703	42897.34	3.7270	3.7271	3.0117	6.28	0.29	0.750			
0.6790	43455.86	3.7240	3.7237	2.7711	6.25	0.26	0.750			
0.6871	43977.49	3.7210	3.7211	2.5102	6.22	0.23	0.750			
0.6941	44421.67	3.7180	3.7179	2.2246	6.20	0.21	0.750			
0.7001	44803.73	3.7150	3.7151	1.9154	6.18	0.19	0.750			
0.7055	45151.76	3.7120	3.7119	1.7100	6.16	0.17	0.750			
0.7101	45447.86	3.7090	3.7089	1.5328	6.14	0.15	0.750			
0.7143	45713.90	3.7060	3.7061	1.3843	6.14	0.15	0.750			
0.7183	45969.57	3.7030	3.7030	1.2905	6.13	0.14	0.750			
0.7219	46202.69	3.7000	3.7000	1.2049	6.12	0.13	0.750			
0.7252	46413.74	3.6970	3.6971	1.1513	6.12	0.13	0.750			
0.7285	46625.07	3.6940	3.6940	1.1138	6.11	0.12	0.750			
0.7318	46833.60	3.6910	3.6906	1.0969	6.10	0.11	0.750			
0.7351	47043.48	3.6880	3.6880	1.0794	6.09	0.10	0.750			
0.7383	47250.40	3.6850	3.6852	1.0690	6.08	0.09	0.750			
0.7415	47458.23	3.6820	3.6821	1.0556	6.08	0.09	0.750			
0.7447	47658.98	3.6790	3.6789	1.0232	6.07	0.08	0.750			
0.7477	47851.02	3.6760	3.6760	0.9967	6.06	0.07	0.750			
0.7506	48040.11	3.6730	3.6730	0.9783	6.06	0.07	0.750			
0.7535	48223.44	3.6700	3.6702	0.9605	6.05	0.06	0.750			
0.7564	48407.32	3.6670	3.6668	0.9482	6.04	0.05	0.750			
0.7592	48587.65	3.6640	3.6641	0.9238	6.03	0.04	0.750			
0.7619	48763.68	3.6610	3.6610	0.9158	6.03	0.04	0.750			
0.7647	48938.98	3.6580	3.6581	0.9079	6.02	0.03	0.750			
0.7673	49110.34	3.6550	3.6550	0.9001	6.02	0.03	0.750			
0.7700	49278.46	3.6520	3.6519	0.8999	6.01	0.02	0.750			
0.7727	49451.43	3.6490	3.6490	0.9023	6.01	0.02	0.750			
0.7754	49623.14	3.6460	3.6460	0.9190	6.01	0.02	0.750			
0.7782	49801.89	3.6430	3.6431	0.9371	6.01	0.02	0.750			
0.7810	49983.15	3.6400	3.6399	0.9437	6.01	0.02	0.750			
0.7839	50171.61	3.6370	3.6370	0.9369	6.01	0.02	0.750			
0.7868	50357.93	3.6340	3.6340	0.9158	6.00	0.01	0.750			
0.7896	50536.36	3.6310	3.6311	0.8663	6.00	0.01	0.750			
0.7923	50709.16	3.6280	3.6280	0.7899	5.99	0.00	0.750			
0.7946	50855.20	3.6250	3.6251	0.6866	5.99	-0.00	0.750			
0.7965	50975.59	3.6220	3.6221	0.5774	5.99	-0.00	0.750			
0.7978	51060.89	3.6190	3.6194	0.4786	5.98	-0.01	0.750			
0.7991	51143.92	3.6160	3.6164	0.3903	5.98	-0.01	0.750			
0.8001	51208.25	3.6130	3.6128	0.3073	5.98	-0.01	0.750			
0.8008	51253.23	3.6100	3.6097	0.2255	5.98	-0.01	0.750			
0.8014	51287.76	3.6070	3.6056	0.1638	5.98	-0.01	0.750			
0.8017	51311.37	3.6040	3.5792	0.1085	5.98	-0.01	0.750			
0.8018	51313.32	3.5920	3.5673	-0.0955	5.98	-0.01	0.749			
0.8019	51324.79	3.6010	3.4969	0.0557	5.98	-0.01	0.747			
0.8020	51326.83	3.5950	3.4844	-0.0451	5.98	-0.01	0.746			
0.8020	51330.65	3.5980	3.4609	0.0053	5.98	-0.01	0.745			
