Ah_balance (normalized)	Ah_balance (mAh)	Voltage - fit (V)	Voltage -  interpolate (V)	dQ/dV (1/V)	Temperature (°C)	Temperature - diff (°C)	Current (C)	R_DC 0ms (mOhm)	R_DC 50ms (mOhm)	R_DC 50 ms PEC (mOhm)
0.0000	0.00	4.0910	4.1281	0.0000	6.00	0.00	-0.751			
0.0000	0.00	4.0940	4.1281	0.0000	6.00	0.00	-0.751			
0.0002	10.15	4.0880	4.0881	-0.0377	6.00	0.00	-0.750			
0.0003	19.45	4.0850	4.0849	-0.0653	6.00	0.00	-0.750			
0.0005	34.67	4.0820	4.0819	-0.0932	6.00	0.00	-0.750			
0.0009	55.86	4.0790	4.0790	-0.1189	6.00	0.00	-0.750			
0.0013	81.70	4.0760	4.0759	-0.1431	6.00	0.00	-0.750			
0.0017	111.93	4.0730	4.0730	-0.1656	6.00	0.00	-0.750			
0.0023	146.09	4.0700	4.0703	-0.1898	6.00	0.00	-0.750			
0.0029	186.67	4.0670	4.0671	-0.2144	6.00	0.00	-0.750			
0.0036	229.29	4.0640	4.0641	-0.2381	6.00	0.00	-0.750			
0.0043	276.95	4.0610	4.0609	-0.2601	6.00	0.00	-0.750			
0.0051	329.53	4.0580	4.0580	-0.2828	6.00	0.00	-0.750			
0.0060	386.17	4.0550	4.0550	-0.3040	6.00	0.00	-0.750			
0.0070	446.84	4.0520	4.0520	-0.3272	6.00	0.00	-0.750			
0.0080	511.91	4.0490	4.0490	-0.3499	6.00	0.00	-0.750			
0.0091	580.46	4.0460	4.0459	-0.3709	6.00	0.00	-0.750			
0.0102	653.90	4.0430	4.0430	-0.3928	6.00	0.00	-0.750			
0.0114	731.37	4.0400	4.0400	-0.4158	6.00	0.00	-0.750			
0.0127	815.24	4.0370	4.0370	-0.4365	6.00	0.00	-0.750			
0.0141	900.95	4.0340	4.0340	-0.4557	6.00	0.00	-0.750			
0.0155	989.75	4.0310	4.0310	-0.4735	6.00	0.00	-0.750			
0.0169	1082.80	4.0280	4.0280	-0.4916	6.00	0.00	-0.750			
0.0184	1177.93	4.0250	4.0249	-0.5108	6.00	0.00	-0.750			
0.0200	1277.61	4.0220	4.0221	-0.5328	6.00	0.00	-0.750			
0.0216	1382.03	4.0190	4.0190	-0.5522	6.00	0.00	-0.750			
0.0233	1491.31	4.0160	4.0159	-0.5710	6.01	0.01	-0.750			
0.0250	1603.10	4.0130	4.0131	-0.5893	6.01	0.01	-0.750			
0.0268	1717.43	4.0100	4.0100	-0.6111	6.02	0.02	-0.750			
0.0287	1838.40	4.0070	4.0069	-0.6233	6.02	0.02	-0.750			
0.0306	1959.17	4.0040	4.0039	-0.6355	6.03	0.03	-0.750			
0.0326	2083.49	4.0010	4.0012	-0.6410	6.03	0.03	-0.750			
0.0345	2208.45	3.9980	3.9980	-0.6538	6.04	0.04	-0.750			
0.0365	2334.66	3.9950	3.9949	-0.6561	6.04	0.04	-0.750			
0.0384	2459.29	3.9920	3.9919	-0.6619	6.05	0.05	-0.750			
0.0404	2586.90	3.9890	3.9890	-0.6703	6.06	0.06	-0.750			
0.0425	2716.91	3.9860	3.9859	-0.6777	6.06	0.06	-0.750			
0.0445	2847.44	3.9830	3.9832	-0.6851	6.07	0.07	-0.750			
0.0466	2982.36	3.9800	3.9799	-0.6848	6.08	0.08	-0.750			
0.0486	3113.44	3.9770	3.9767	-0.6808	6.08	0.08	-0.750			
0.0507	3244.56	3.9740	3.9742	-0.6868	6.09	0.09	-0.750			
0.0527	3374.13	3.9710	3.9711	-0.6869	6.10	0.10	-0.750			
0.0548	3506.55	3.9680	3.9678	-0.6928	6.10	0.10	-0.750			
0.0569	3640.06	3.9650	3.9649	-0.6982	6.11	0.11	-0.750			
0.0589	3771.62	3.9620	3.9621	-0.7099	6.12	0.12	-0.750			
0.0611	3911.09	3.9590	3.9589	-0.7221	6.13	0.13	-0.750			
0.0633	4051.50	3.9560	3.9560	-0.7321	6.13	0.13	-0.750			
0.0655	4194.12	3.9530	3.9530	-0.7299	6.14	0.14	-0.750			
0.0678	4337.18	3.9500	3.9500	-0.7327	6.15	0.15	-0.750			
0.0700	4478.11	3.9470	3.9472	-0.7304	6.16	0.16	-0.750			
0.0721	4616.95	3.9440	3.9439	-0.7270	6.17	0.17	-0.750			
0.0743	4752.59	3.9410	3.9410	-0.7322	6.18	0.18	-0.750			
0.0765	4893.98	3.9380	3.9379	-0.7324	6.19	0.19	-0.750			
0.0787	5035.21	3.9350	3.9349	-0.7394	6.20	0.20	-0.750			
0.0809	5179.36	3.9320	3.9320	-0.7440	6.21	0.21	-0.750			
0.0832	5322.64	3.9290	3.9290	-0.7482	6.22	0.22	-0.750			
0.0854	5466.30	3.9260	3.9259	-0.7497	6.23	0.23	-0.750			
0.0876	5609.14	3.9230	3.9230	-0.7518	6.24	0.24	-0.750			
0.0899	5752.37	3.9200	3.9200	-0.7548	6.25	0.25	-0.750			
0.0922	5901.66	3.9170	3.9169	-0.7609	6.26	0.26	-0.750			
0.0945	6048.27	3.9140	3.9141	-0.7555	6.27	0.27	-0.750			
0.0968	6193.09	3.9110	3.9110	-0.7534	6.28	0.28	-0.750			
0.0990	6337.61	3.9080	3.9081	-0.7475	6.29	0.29	-0.750			
0.1013	6480.76	3.9050	3.9049	-0.7514	6.30	0.30	-0.750			
0.1035	6622.96	3.9020	3.9019	-0.7502	6.30	0.30	-0.750			
0.1057	6766.84	3.8990	3.8990	-0.7575	6.31	0.31	-0.750			
0.1080	6913.15	3.8960	3.8962	-0.7668	6.32	0.32	-0.750			
0.1103	7061.87	3.8930	3.8928	-0.7777	6.33	0.33	-0.750			
0.1127	7212.62	3.8900	3.8900	-0.7783	6.35	0.35	-0.750			
0.1150	7361.61	3.8870	3.8870	-0.7774	6.36	0.36	-0.750			
0.1174	7512.77	3.8840	3.8840	-0.7849	6.37	0.37	-0.750			
0.1198	7665.30	3.8810	3.8813	-0.7821	6.38	0.38	-0.750			
0.1221	7814.71	3.8780	3.8778	-0.7767	6.39	0.39	-0.750			
0.1244	7963.29	3.8750	3.8751	-0.7750	6.40	0.40	-0.750			
0.1268	8112.42	3.8720	3.8721	-0.7707	6.41	0.41	-0.750			
0.1291	8261.72	3.8690	3.8689	-0.7719	6.42	0.42	-0.750			
0.1314	8407.84	3.8660	3.8659	-0.7644	6.43	0.43	-0.750			
0.1336	8552.33	3.8630	3.8630	-0.7616	6.44	0.44	-0.750			
0.1359	8698.34	3.8600	3.8600	-0.7687	6.45	0.45	-0.750			
0.1382	8845.86	3.8570	3.8569	-0.7697	6.46	0.46	-0.750			
0.1405	8993.87	3.8540	3.8540	-0.7725	6.48	0.48	-0.750			
0.1429	9144.66	3.8510	3.8511	-0.7769	6.49	0.49	-0.750			
0.1452	9292.90	3.8480	3.8482	-0.7762	6.50	0.50	-0.750			
0.1476	9443.37	3.8450	3.8450	-0.7767	6.51	0.51	-0.750			
0.1498	9590.07	3.8420	3.8420	-0.7784	6.52	0.52	-0.750			
0.1522	9738.48	3.8390	3.8388	-0.7844	6.53	0.53	-0.750			
0.1545	9890.69	3.8360	3.8361	-0.7878	6.54	0.54	-0.750			
0.1569	10043.14	3.8330	3.8329	-0.7877	6.55	0.55	-0.750			
0.1593	10196.71	3.8300	3.8301	-0.7901	6.56	0.56	-0.750			
0.1617	10347.60	3.8270	3.8271	-0.7940	6.57	0.57	-0.750			
0.1641	10501.33	3.8240	3.8239	-0.7883	6.58	0.58	-0.750			
0.1664	10650.93	3.8210	3.8209	-0.7820	6.59	0.59	-0.750			
0.1687	10798.52	3.8180	3.8181	-0.7811	6.60	0.60	-0.750			
0.1711	10949.01	3.8150	3.8151	-0.7849	6.62	0.62	-0.750			
0.1734	11098.17	3.8120	3.8118	-0.7977	6.63	0.63	-0.750			
0.1758	11252.61	3.8090	3.8090	-0.7974	6.64	0.64	-0.750			
0.1782	11404.60	3.8060	3.8060	-0.8015	6.65	0.65	-0.750			
0.1807	11564.57	3.8030	3.8030	-0.8183	6.66	0.66	-0.750			
0.1832	11722.33	3.8000	3.7999	-0.8124	6.67	0.67	-0.750			
0.1856	11876.43	3.7970	3.7969	-0.8071	6.68	0.68	-0.750			
0.1880	12032.76	3.7940	3.7940	-0.7986	6.69	0.69	-0.750			
0.1904	12183.23	3.7910	3.7911	-0.7916	6.70	0.70	-0.750			
0.1928	12337.00	3.7880	3.7880	-0.7906	6.71	0.71	-0.750			
0.1951	12484.56	3.7850	3.7851	-0.7859	6.72	0.72	-0.750			
0.1974	12633.63	3.7820	3.7819	-0.7927	6.73	0.73	-0.750			
0.1998	12785.62	3.7790	3.7791	-0.8101	6.74	0.74	-0.750			
0.2022	12943.86	3.7760	3.7759	-0.8171	6.76	0.76	-0.750			
0.2048	13105.76	3.7730	3.7728	-0.8304	6.77	0.77	-0.750			
0.2073	13267.22	3.7700	3.7704	-0.8230	6.78	0.78	-0.750			
0.2098	13426.55	3.7670	3.7669	-0.8221	6.79	0.79	-0.750			
0.2122	13584.00	3.7640	3.7640	-0.8104	6.80	0.80	-0.750			
0.2146	13735.88	3.7610	3.7610	-0.7970	6.81	0.81	-0.750			
0.2170	13887.28	3.7580	3.7579	-0.8017	6.82	0.82	-0.750			
0.2194	14039.85	3.7550	3.7552	-0.8023	6.83	0.83	-0.750			
0.2218	14192.30	3.7520	3.7518	-0.8073	6.84	0.84	-0.750			
0.2242	14348.95	3.7490	3.7490	-0.8171	6.85	0.85	-0.750			
0.2267	14506.36	3.7460	3.7461	-0.8208	6.86	0.86	-0.750			
0.2292	14666.04	3.7430	3.7430	-0.8264	6.87	0.87	-0.750			
0.2317	14826.85	3.7400	3.7401	-0.8329	6.88	0.88	-0.750			
0.2342	14986.40	3.7370	3.7369	-0.8355	6.89	0.89	-0.750			
0.2367	15146.04	3.7340	3.7339	-0.8432	6.90	0.90	-0.750			
0.2392	15308.65	3.7310	3.7310	-0.8477	6.91	0.91	-0.750			
0.2418	15472.94	3.7280	3.7280	-0.8493	6.93	0.93	-0.750			
0.2444	15639.10	3.7250	3.7250	-0.8547	6.94	0.94	-0.750			
0.2469	15803.17	3.7220	3.7220	-0.8536	6.95	0.95	-0.750			
0.2495	15965.34	3.7190	3.7191	-0.8525	6.96	0.96	-0.750			
0.2520	16127.63	3.7160	3.7159	-0.8592	6.97	0.97	-0.750			
0.2546	16291.75	3.7130	3.7130	-0.8627	6.98	0.98	-0.750			
0.2572	16459.38	3.7100	3.7100	-0.8724	6.99	0.99	-0.750			
0.2598	16628.00	3.7070	3.7070	-0.8732	7.00	1.00	-0.750			
0.2625	16798.53	3.7040	3.7041	-0.8737	7.01	1.01	-0.750			
0.2651	16965.41	3.7010	3.7010	-0.8789	7.02	1.02	-0.750			
0.2677	17133.96	3.6980	3.6979	-0.8775	7.03	1.03	-0.750			
0.2703	17300.04	3.6950	3.6951	-0.8812	7.04	1.04	-0.750			
0.2730	17470.57	3.6920	3.6921	-0.8937	7.05	1.05	-0.750			
0.2757	17643.08	3.6890	3.6890	-0.9056	7.06	1.06	-0.750			
0.2784	17819.30	3.6860	3.6860	-0.9174	7.07	1.07	-0.750			
0.2812	17997.19	3.6830	3.6830	-0.9267	7.08	1.08	-0.750			
0.2840	18174.93	3.6800	3.6799	-0.9316	7.09	1.09	-0.750			
0.2868	18358.07	3.6770	3.6770	-0.9480	7.10	1.10	-0.750			
0.2897	18541.09	3.6740	3.6739	-0.9478	7.11	1.11	-0.750			
0.2926	18724.56	3.6710	3.6709	-0.9434	7.12	1.12	-0.750			
0.2954	18906.83	3.6680	3.6683	-0.9440	7.13	1.13	-0.750			
0.2982	19087.01	3.6650	3.6650	-0.9432	7.14	1.14	-0.750			
0.3011	19267.93	3.6620	3.6619	-0.9422	7.15	1.15	-0.750			
0.3038	19442.94	3.6590	3.6590	-0.9375	7.16	1.16	-0.750			
0.3067	19626.29	3.6560	3.6561	-0.9576	7.17	1.17	-0.750			
0.3095	19810.63	3.6530	3.6530	-0.9830	7.18	1.18	-0.750			
0.3125	20002.44	3.6500	3.6500	-0.9995	7.19	1.19	-0.750			
0.3156	20198.77	3.6470	3.6468	-1.0008	7.20	1.20	-0.750			
0.3186	20392.26	3.6440	3.6440	-1.0074	7.22	1.22	-0.750			
0.3217	20587.72	3.6410	3.6411	-1.0172	7.22	1.22	-0.750			
0.3247	20781.47	3.6380	3.6379	-1.0207	7.23	1.23	-0.750			
0.3277	20975.44	3.6350	3.6349	-1.0214	7.24	1.24	-0.750			
0.3308	21170.67	3.6320	3.6320	-1.0247	7.25	1.25	-0.750			
0.3340	21373.18	3.6290	3.6291	-1.0380	7.25	1.25	-0.750			
0.3371	21574.11	3.6260	3.6260	-1.0452	7.26	1.26	-0.750			
0.3402	21773.96	3.6230	3.6230	-1.0431	7.27	1.27	-0.750			
0.3433	21973.17	3.6200	3.6199	-1.0450	7.28	1.28	-0.750			
0.3465	22173.67	3.6170	3.6171	-1.0598	7.28	1.28	-0.750			
0.3497	22378.35	3.6140	3.6140	-1.0694	7.29	1.29	-0.750			
0.3529	22586.01	3.6110	3.6110	-1.0739	7.30	1.30	-0.750			
0.3561	22792.95	3.6080	3.6080	-1.0869	7.31	1.31	-0.750			
0.3594	23001.55	3.6050	3.6050	-1.0992	7.32	1.32	-0.750			
0.3627	23214.56	3.6020	3.6019	-1.1099	7.33	1.33	-0.750			
0.3661	23427.69	3.5990	3.5989	-1.1224	7.34	1.34	-0.750			
0.3694	23643.51	3.5960	3.5962	-1.1277	7.35	1.35	-0.750			
0.3729	23865.31	3.5930	3.5929	-1.1424	7.36	1.36	-0.750			
0.3763	24085.17	3.5900	3.5901	-1.1502	7.37	1.37	-0.750			
0.3798	24304.01	3.5870	3.5870	-1.1489	7.37	1.37	-0.750			
0.3832	24525.56	3.5840	3.5841	-1.1627	7.38	1.38	-0.750	0.378	0.818	
0.3868	24752.88	3.5810	3.5809	-1.1663	7.39	1.39	-0.750			
0.3902	24975.54	3.5780	3.5780	-1.1761	7.40	1.40	-0.750			
0.3938	25204.01	3.5750	3.5751	-1.1868	7.41	1.41	-0.750			
0.3974	25432.21	3.5720	3.5718	-1.1984	7.42	1.42	-0.750			
0.4010	25661.79	3.5690	3.5690	-1.2065	7.42	1.42	-0.750			
0.4046	25895.14	3.5660	3.5660	-1.2147	7.43	1.43	-0.750			
0.4082	26127.67	3.5630	3.5631	-1.2234	7.44	1.44	-0.750			
0.4120	26369.16	3.5600	3.5600	-1.2391	7.45	1.45	-0.750			
0.4157	26605.52	3.5570	3.5569	-1.2381	7.46	1.46	-0.750			
0.4194	26842.67	3.5540	3.5540	-1.2430	7.47	1.47	-0.750			
0.4232	27085.58	3.5510	3.5510	-1.2480	7.48	1.48	-0.750			
0.4270	27325.50	3.5480	3.5481	-1.2527	7.49	1.49	-0.750			
0.4307	27562.92	3.5450	3.5450	-1.2747	7.50	1.50	-0.750			
0.4345	27806.54	3.5420	3.5419	-1.2820	7.51	1.51	-0.750			
0.4383	28054.04	3.5390	3.5389	-1.3022	7.51	1.51	-0.750			
0.4423	28307.15	3.5360	3.5359	-1.3181	7.52	1.52	-0.750			
0.4464	28566.76	3.5330	3.5331	-1.3255	7.53	1.53	-0.750			
0.4504	28825.95	3.5300	3.5299	-1.3207	7.54	1.54	-0.750			
0.4544	29080.59	3.5270	3.5271	-1.3076	7.55	1.55	-0.750			
0.4582	29323.66	3.5240	3.5240	-1.3021	7.56	1.56	-0.750			
0.4621	29575.32	3.5210	3.5210	-1.3148	7.58	1.58	-0.750			
0.4660	29824.39	3.5180	3.5179	-1.3146	7.59	1.59	-0.750			
0.4700	30078.74	3.5150	3.5151	-1.3291	7.60	1.60	-0.750			
0.4741	30340.90	3.5120	3.5120	-1.3387	7.61	1.61	-0.750			
0.4781	30598.15	3.5090	3.5090	-1.3416	7.62	1.62	-0.750			
0.4822	30857.82	3.5060	3.5062	-1.3414	7.63	1.63	-0.750			
0.4862	31114.29	3.5030	3.5029	-1.3296	7.64	1.64	-0.750			
0.4901	31369.21	3.5000	3.5000	-1.3233	7.66	1.66	-0.750			
0.4941	31621.62	3.4970	3.4971	-1.3239	7.67	1.67	-0.750			
0.4981	31880.24	3.4940	3.4939	-1.3210	7.68	1.68	-0.750			
0.5021	32132.37	3.4910	3.4909	-1.3110	7.69	1.69	-0.750			
0.5059	32380.50	3.4880	3.4881	-1.2999	7.71	1.71	-0.750			
0.5099	32630.54	3.4850	3.4849	-1.2922	7.72	1.72	-0.750			
0.5137	32877.75	3.4820	3.4820	-1.2907	7.73	1.73	-0.750			
0.5175	33120.65	3.4790	3.4790	-1.2903	7.73	1.73	-0.750			
0.5213	33363.61	3.4760	3.4760	-1.2897	7.74	1.74	-0.750			
0.5253	33619.43	3.4730	3.4729	-1.2973	7.76	1.76	-0.750			
0.5292	33867.27	3.4700	3.4699	-1.2922	7.77	1.77	-0.750			
0.5331	34118.97	3.4670	3.4671	-1.2901	7.78	1.78	-0.750			
0.5370	34367.15	3.4640	3.4639	-1.2839	7.80	1.80	-0.750			
0.5408	34611.54	3.4610	3.4610	-1.2685	7.81	1.81	-0.750			
0.5446	34854.11	3.4580	3.4582	-1.2584	7.83	1.83	-0.750			
0.5483	35093.54	3.4550	3.4549	-1.2471	7.84	1.84	-0.750			
0.5521	35332.66	3.4520	3.4521	-1.2343	7.85	1.85	-0.750			
0.5557	35565.78	3.4490	3.4490	-1.2268	7.87	1.87	-0.750			
0.5594	35802.40	3.4460	3.4459	-1.2304	7.88	1.88	-0.750			
0.5631	36038.44	3.4430	3.4430	-1.2090	7.89	1.89	-0.750			
0.5667	36269.72	3.4400	3.4400	-1.1988	7.91	1.91	-0.750			
0.5703	36498.47	3.4370	3.4371	-1.1970	7.92	1.92	-0.750			
0.5739	36728.89	3.4340	3.4339	-1.1871	7.94	1.94	-0.750			
0.5774	36954.71	3.4310	3.4308	-1.1780	7.96	1.96	-0.750			
0.5809	37178.68	3.4280	3.4280	-1.1668	7.97	1.97	-0.750			
0.5844	37403.39	3.4250	3.4249	-1.1574	7.99	1.99	-0.750			
0.5879	37627.56	3.4220	3.4219	-1.1454	8.00	2.00	-0.750			
0.5913	37845.53	3.4190	3.4191	-1.1204	8.02	2.02	-0.750			
0.5946	38055.78	3.4160	3.4162	-1.1004	8.03	2.03	-0.750			
0.5980	38269.55	3.4130	3.4129	-1.0877	8.05	2.05	-0.750			
0.6012	38474.94	3.4100	3.4100	-1.0638	8.06	2.06	-0.750			
0.6043	38674.20	3.4070	3.4070	-1.0471	8.08	2.08	-0.750			
0.6074	38875.50	3.4040	3.4042	-1.0394	8.09	2.09	-0.750			
0.6105	39074.15	3.4010	3.4008	-1.0247	8.11	2.11	-0.750			
0.6136	39271.92	3.3980	3.3980	-1.0091	8.13	2.13	-0.750			
0.6166	39464.81	3.3950	3.3951	-0.9785	8.14	2.14	-0.750			
0.6196	39652.06	3.3920	3.3921	-0.9580	8.16	2.16	-0.750			
0.6224	39831.72	3.3890	3.3890	-0.9427	8.17	2.17	-0.750			
0.6251	40006.12	3.3860	3.3859	-0.9162	8.19	2.19	-0.750			
0.6278	40179.47	3.3830	3.3829	-0.9053	8.21	2.21	-0.750			
0.6305	40353.07	3.3800	3.3801	-0.8906	8.22	2.22	-0.750			
0.6332	40526.44	3.3770	3.3771	-0.8814	8.24	2.24	-0.750			
0.6359	40695.25	3.3740	3.3739	-0.8649	8.25	2.25	-0.750			
0.6384	40859.05	3.3710	3.3710	-0.8399	8.27	2.27	-0.750			
0.6409	41017.15	3.3680	3.3680	-0.8165	8.29	2.29	-0.750			
0.6433	41172.23	3.3650	3.3650	-0.8005	8.30	2.30	-0.750			
0.6457	41323.05	3.3620	3.3619	-0.7806	8.32	2.32	-0.750			
0.6480	41472.20	3.3590	3.3590	-0.7638	8.33	2.33	-0.750			
0.6503	41617.22	3.3560	3.3560	-0.7465	8.35	2.35	-0.750			
0.6525	41758.10	3.3530	3.3530	-0.7298	8.37	2.37	-0.750			
0.6547	41897.67	3.3500	3.3500	-0.7211	8.38	2.38	-0.750			
0.6568	42032.98	3.3470	3.3469	-0.7065	8.40	2.40	-0.750			
0.6589	42167.55	3.3440	3.3439	-0.6923	8.41	2.41	-0.750			
0.6609	42299.62	3.3410	3.3410	-0.6816	8.42	2.42	-0.750			
0.6630	42430.54	3.3380	3.3381	-0.6685	8.44	2.44	-0.750			
0.6650	42558.34	3.3350	3.3350	-0.6524	8.45	2.45	-0.750			
0.6669	42681.66	3.3320	3.3320	-0.6365	8.46	2.46	-0.750			
0.6688	42802.09	3.3290	3.3290	-0.6191	8.47	2.47	-0.750			
0.6706	42918.38	3.3260	3.3260	-0.6038	8.49	2.49	-0.750			
0.6724	43032.72	3.3230	3.3230	-0.5925	8.50	2.50	-0.750			
0.6741	43144.77	3.3200	3.3199	-0.5782	8.52	2.52	-0.750			
0.6759	43254.94	3.3170	3.3170	-0.5685	8.53	2.53	-0.750			
0.6776	43363.48	3.3140	3.3140	-0.5552	8.55	2.55	-0.750			
0.6792	43468.51	3.3110	3.3111	-0.5453	8.56	2.56	-0.750			
0.6808	43572.39	3.3080	3.3080	-0.5382	8.58	2.58	-0.750			
0.6824	43673.88	3.3050	3.3051	-0.5260	8.59	2.59	-0.750			
0.6840	43774.17	3.3020	3.3020	-0.5171	8.61	2.61	-0.750			
0.6855	43872.95	3.2990	3.2990	-0.5105	8.62	2.62	-0.750			
0.6870	43969.89	3.2960	3.2960	-0.5024	8.63	2.63	-0.750			
0.6885	44066.55	3.2930	3.2929	-0.4928	8.65	2.65	-0.750			
0.6900	44158.96	3.2900	3.2901	-0.4825	8.66	2.66	-0.750			
0.6914	44250.81	3.2870	3.2870	-0.4723	8.67	2.67	-0.750			
0.6928	44341.23	3.2840	3.2839	-0.4645	8.68	2.68	-0.750			
0.6942	44428.81	3.2810	3.2810	-0.4552	8.70	2.70	-0.750			
0.6955	44514.91	3.2780	3.2781	-0.4460	8.71	2.71	-0.750			
0.6969	44600.17	3.2750	3.2750	-0.4381	8.72	2.72	-0.750			
0.6982	44684.14	3.2720	3.2719	-0.4307	8.73	2.73	-0.750			
0.6995	44765.17	3.2690	3.2691	-0.4198	8.74	2.74	-0.750			
0.7007	44845.63	3.2660	3.2659	-0.4119	8.75	2.75	-0.750			
0.7019	44923.78	3.2630	3.2630	-0.4052	8.77	2.77	-0.750			
0.7031	45000.57	3.2600	3.2600	-0.3994	8.78	2.78	-0.750			
0.7043	45076.98	3.2570	3.2569	-0.3914	8.79	2.79	-0.750			
0.7055	45151.01	3.2540	3.2541	-0.3868	8.80	2.80	-0.750			
0.7066	45224.15	3.2510	3.2511	-0.3831	8.81	2.81	-0.750			
0.7078	45297.55	3.2480	3.2480	-0.3790	8.82	2.82	-0.750			
0.7089	45370.19	3.2450	3.2448	-0.3725	8.83	2.83	-0.750			
0.7100	45440.95	3.2420	3.2420	-0.3655	8.84	2.84	-0.750			
0.7111	45510.66	3.2390	3.2392	-0.3616	8.85	2.85	-0.750			
0.7122	45580.34	3.2360	3.2359	-0.3581	8.86	2.86	-0.750			
0.7132	45647.91	3.2330	3.2329	-0.3501	8.87	2.87	-0.750			
0.7143	45714.64	3.2300	3.2300	-0.3468	8.89	2.89	-0.750			
0.7153	45781.07	3.2270	3.2270	-0.3436	8.90	2.90	-0.750			
0.7164	45847.14	3.2240	3.2240	-0.3383	8.91	2.91	-0.750			
0.7174	45911.41	3.2210	3.2209	-0.3331	8.92	2.92	-0.750			
0.7184	45974.54	3.2180	3.2181	-0.3255	8.93	2.93	-0.750			
0.7193	46036.46	3.2150	3.2149	-0.3221	8.94	2.94	-0.750			
0.7203	46097.81	3.2120	3.2120	-0.3176	8.95	2.95	-0.750			
0.7212	46158.03	3.2090	3.2090	-0.3147	8.96	2.96	-0.750			
0.7221	46217.49	3.2060	3.2060	-0.3117	8.97	2.97	-0.750			
0.7231	46277.56	3.2030	3.2030	-0.3094	8.98	2.98	-0.750			
0.7240	46336.80	3.2000	3.1999	-0.3069	8.99	2.99	-0.750			
0.7249	46396.12	3.1970	3.1971	-0.3036	9.00	3.00	-0.750			
0.7258	46453.68	3.1940	3.1941	-0.2983	9.01	3.01	-0.750			
0.7267	46511.08	3.1910	3.1910	-0.2940	9.03	3.03	-0.750			
0.7276	46566.64	3.1880	3.1880	-0.2899	9.04	3.04	-0.750			
0.7285	46621.11	3.1850	3.1850	-0.2859	9.05	3.05	-0.750			
0.7293	46675.44	3.1820	3.1820	-0.2850	9.06	3.06	-0.750			
0.7302	46730.24	3.1790	3.1790	-0.2810	9.07	3.07	-0.750			
0.7310	46784.58	3.1760	3.1759	-0.2778	9.08	3.08	-0.750			
0.7318	46837.47	3.1730	3.1731	-0.2738	9.09	3.09	-0.750			
0.7326	46889.56	3.1700	3.1700	-0.2709	9.10	3.10	-0.750			
0.7334	46940.60	3.1670	3.1670	-0.2666	9.11	3.11	-0.750			
0.7342	46991.11	3.1640	3.1639	-0.2643	9.12	3.12	-0.750			
0.7350	47041.65	3.1610	3.1611	-0.2613	9.13	3.13	-0.750			
0.7358	47092.48	3.1580	3.1580	-0.2588	9.14	3.14	-0.750			
0.7366	47142.41	3.1550	3.1550	-0.2560	9.15	3.15	-0.750			
0.7374	47190.93	3.1520	3.1520	-0.2534	9.16	3.16	-0.750			
0.7381	47238.85	3.1490	3.1489	-0.2492	9.17	3.17	-0.750			
0.7388	47286.36	3.1460	3.1460	-0.2451	9.18	3.18	-0.750			
0.7396	47332.76	3.1430	3.1430	-0.2428	9.19	3.19	-0.750			
0.7403	47378.96	3.1400	3.1402	-0.2425	9.20	3.20	-0.750			
0.7410	47425.33	3.1370	3.1369	-0.2410	9.21	3.21	-0.750			
0.7417	47471.18	3.1340	3.1339	-0.2394	9.22	3.22	-0.750			
0.7425	47516.96	3.1310	3.1310	-0.2371	9.23	3.23	-0.750			
0.7432	47562.66	3.1280	3.1281	-0.2355	9.24	3.24	-0.750			
0.7439	47608.43	3.1250	3.1250	-0.2345	9.25	3.25	-0.750			
0.7446	47653.68	3.1220	3.1220	-0.2321	9.26	3.26	-0.750			
0.7453	47697.65	3.1190	3.1188	-0.2284	9.27	3.27	-0.750			
0.7459	47740.72	3.1160	3.1160	-0.2260	9.28	3.28	-0.750			
0.7466	47783.78	3.1130	3.1131	-0.2249	9.29	3.29	-0.750			
0.7473	47826.93	3.1100	3.1100	-0.2238	9.30	3.30	-0.750			
0.7480	47869.78	3.1070	3.1068	-0.2225	9.31	3.31	-0.750			
0.7486	47912.28	3.1040	3.1040	-0.2209	9.32	3.32	-0.750			
0.7493	47954.61	3.1010	3.1011	-0.2196	9.33	3.33	-0.750			
0.7500	47997.18	3.0980	3.0980	-0.2187	9.34	3.34	-0.750			
0.7506	48038.92	3.0950	3.0949	-0.2161	9.35	3.35	-0.750			
0.7513	48080.44	3.0920	3.0920	-0.2122	9.36	3.36	-0.750			
0.7519	48120.51	3.0890	3.0890	-0.2100	9.36	3.36	-0.750			
0.7525	48160.35	3.0860	3.0861	-0.2080	9.37	3.37	-0.750			
0.7531	48200.10	3.0830	3.0830	-0.2061	9.38	3.38	-0.750			
0.7537	48238.98	3.0800	3.0799	-0.2053	9.39	3.39	-0.750			
0.7543	48278.17	3.0770	3.0770	-0.2038	9.40	3.40	-0.750			
0.7550	48317.51	3.0740	3.0741	-0.2036	9.41	3.41	-0.750			
0.7556	48356.69	3.0710	3.0710	-0.2026	9.42	3.42	-0.750			
0.7562	48396.05	3.0680	3.0680	-0.2020	9.43	3.43	-0.750			
0.7568	48434.42	3.0650	3.0649	-0.2001	9.44	3.44	-0.750			
0.7574	48472.81	3.0620	3.0619	-0.1986	9.45	3.45	-0.750			
0.7580	48510.69	3.0590	3.0591	-0.1971	9.46	3.46	-0.750			
0.7586	48548.17	3.0560	3.0560	-0.1954	9.47	3.47	-0.750			
0.7592	48585.74	3.0530	3.0530	-0.1941	9.48	3.48	-0.750			
0.7597	48622.65	3.0500	3.0500	-0.1929	9.49	3.49	-0.750			
0.7603	48659.60	3.0470	3.0470	-0.1916	9.50	3.50	-0.750			
0.7609	48696.28	3.0440	3.0440	-0.1905	9.51	3.51	-0.750			
0.7614	48732.72	3.0410	3.0410	-0.1895	9.52	3.52	-0.750			
0.7620	48769.00	3.0380	3.0380	-0.1888	9.53	3.53	-0.750			
0.7626	48805.03	3.0350	3.0350	-0.1879	9.54	3.54	-0.750			
0.7631	48841.07	3.0320	3.0320	-0.1874	9.55	3.55	-0.750			
0.7637	48877.21	3.0290	3.0290	-0.1859	9.56	3.56	-0.750			
0.7643	48912.73	3.0260	3.0260	-0.1847	9.57	3.57	-0.750			
0.7648	48948.15	3.0230	3.0230	-0.1840	9.58	3.58	-0.750			
0.7654	48983.35	3.0200	3.0201	-0.1827	9.59	3.59	-0.750			
0.7659	49018.22	3.0170	3.0169	-0.1815	9.60	3.60	-0.750			
0.7664	49052.48	3.0140	3.0140	-0.1813	9.61	3.61	-0.750			
0.7670	49086.94	3.0110	3.0111	-0.1813	9.62	3.62	-0.750			
0.7675	49121.87	3.0080	3.0079	-0.1826	9.63	3.63	-0.750			
0.7681	49157.09	3.0050	3.0049	-0.1838	9.64	3.64	-0.750			
0.7686	49192.75	3.0020	3.0020	-0.1897	9.65	3.65	-0.750			
