Ah_balance (normalized)	Ah_balance (mAh)	Voltage - fit (V)	Voltage -  interpolate (V)	dQ/dV (1/V)	Temperature (°C)	Temperature - diff (°C)	Current (C)	R_DC 0ms (mOhm)	R_DC 50ms (mOhm)	R_DC 50 ms PEC (mOhm)
0.0002	11.35	4.1100	4.1092	-0.0527	5.99	0.00	-0.750			
0.0004	25.07	4.1070	4.1064	-0.0842	5.99	0.00	-0.750			
0.0007	43.77	4.1040	4.1038	-0.1107	5.99	0.00	-0.750			
0.0011	67.74	4.1010	4.1008	-0.1368	5.99	0.00	-0.750			
0.0015	97.13	4.0980	4.0980	-0.1598	5.99	0.00	-0.750			
0.0020	130.03	4.0950	4.0950	-0.1846	5.99	0.00	-0.750			
0.0026	168.44	4.0920	4.0921	-0.2085	5.99	0.00	-0.750			
0.0033	210.79	4.0890	4.0890	-0.2303	5.99	0.00	-0.750			
0.0040	257.30	4.0860	4.0859	-0.2525	5.99	0.00	-0.750			
0.0048	308.03	4.0830	4.0830	-0.2744	5.99	0.00	-0.750			
0.0057	362.98	4.0800	4.0800	-0.2935	5.99	0.00	-0.750			
0.0066	421.52	4.0770	4.0771	-0.3158	5.99	0.00	-0.750			
0.0076	484.01	4.0740	4.0740	-0.3371	5.99	0.00	-0.750			
0.0086	550.34	4.0710	4.0710	-0.3623	5.99	0.00	-0.750			
0.0097	621.56	4.0680	4.0681	-0.3862	5.99	0.00	-0.750			
0.0109	697.86	4.0650	4.0649	-0.4099	5.99	0.00	-0.750			
0.0122	779.76	4.0620	4.0620	-0.4353	5.99	0.00	-0.750			
0.0135	866.59	4.0590	4.0590	-0.4595	5.99	0.00	-0.750			
0.0150	956.95	4.0560	4.0559	-0.4783	5.99	0.00	-0.750			
0.0164	1050.79	4.0530	4.0531	-0.5036	5.99	0.00	-0.750			
0.0180	1150.03	4.0500	4.0501	-0.5202	5.99	0.00	-0.750			
0.0196	1251.88	4.0470	4.0469	-0.5420	5.99	0.00	-0.750			
0.0212	1358.74	4.0440	4.0440	-0.5565	5.99	0.00	-0.750			
0.0229	1467.05	4.0410	4.0409	-0.5734	6.00	0.01	-0.750			
0.0246	1577.38	4.0380	4.0381	-0.5946	6.00	0.01	-0.750			
0.0265	1694.19	4.0350	4.0349	-0.6118	6.00	0.01	-0.750			
0.0283	1812.71	4.0320	4.0319	-0.6241	6.00	0.01	-0.750			
0.0303	1936.29	4.0290	4.0290	-0.6398	6.01	0.02	-0.750			
0.0322	2059.76	4.0260	4.0264	-0.6559	6.01	0.02	-0.750			
0.0342	2189.08	4.0230	4.0230	-0.6673	6.02	0.03	-0.750			
0.0362	2317.83	4.0200	4.0199	-0.6719	6.02	0.03	-0.750			
0.0382	2447.35	4.0170	4.0171	-0.6775	6.02	0.03	-0.750			
0.0403	2579.04	4.0140	4.0141	-0.6871	6.03	0.04	-0.750			
0.0424	2712.04	4.0110	4.0108	-0.6890	6.03	0.04	-0.750			
0.0445	2844.81	4.0080	4.0081	-0.6919	6.04	0.05	-0.750			
0.0465	2976.18	4.0050	4.0050	-0.6935	6.04	0.05	-0.750			
0.0486	3111.33	4.0020	4.0021	-0.7005	6.05	0.06	-0.750			
0.0507	3245.36	3.9990	3.9989	-0.7078	6.05	0.06	-0.750			
0.0528	3381.16	3.9960	3.9959	-0.7099	6.06	0.07	-0.750			
0.0550	3518.17	3.9930	3.9930	-0.7148	6.06	0.07	-0.750			
0.0571	3655.79	3.9900	3.9901	-0.7240	6.07	0.08	-0.750			
0.0593	3795.81	3.9870	3.9871	-0.7316	6.08	0.09	-0.750			
0.0615	3936.81	3.9840	3.9839	-0.7391	6.08	0.09	-0.750			
0.0637	4079.00	3.9810	3.9809	-0.7432	6.09	0.10	-0.750			
0.0660	4222.81	3.9780	3.9781	-0.7484	6.10	0.11	-0.750			
0.0682	4367.32	3.9750	3.9749	-0.7523	6.11	0.12	-0.750			
0.0705	4512.92	3.9720	3.9720	-0.7546	6.11	0.12	-0.750			
0.0728	4657.87	3.9690	3.9690	-0.7509	6.12	0.13	-0.750			
0.0750	4801.32	3.9660	3.9659	-0.7506	6.13	0.14	-0.750			
0.0773	4945.02	3.9630	3.9632	-0.7467	6.13	0.14	-0.750			
0.0795	5088.37	3.9600	3.9600	-0.7557	6.14	0.15	-0.750			
0.0818	5233.97	3.9570	3.9570	-0.7559	6.15	0.16	-0.750			
0.0841	5379.91	3.9540	3.9539	-0.7538	6.16	0.17	-0.750			
0.0863	5522.82	3.9510	3.9511	-0.7615	6.17	0.18	-0.750			
0.0886	5669.64	3.9480	3.9481	-0.7708	6.18	0.19	-0.750			
0.0909	5817.86	3.9450	3.9449	-0.7764	6.19	0.20	-0.750			
0.0933	5968.11	3.9420	3.9418	-0.7818	6.19	0.20	-0.750			
0.0956	6118.57	3.9390	3.9392	-0.7833	6.20	0.21	-0.750			
0.0980	6271.26	3.9360	3.9360	-0.7946	6.21	0.22	-0.750			
0.1004	6425.22	3.9330	3.9329	-0.7900	6.22	0.23	-0.750			
0.1027	6574.21	3.9300	3.9300	-0.7818	6.23	0.24	-0.750			
0.1051	6725.84	3.9270	3.9269	-0.7783	6.23	0.24	-0.750			
0.1074	6875.16	3.9240	3.9242	-0.7783	6.24	0.25	-0.750			
0.1097	7023.31	3.9210	3.9209	-0.7799	6.25	0.26	-0.750			
0.1121	7172.41	3.9180	3.9180	-0.7833	6.26	0.27	-0.750			
0.1144	7322.72	3.9150	3.9149	-0.7833	6.27	0.28	-0.750			
0.1168	7475.71	3.9120	3.9120	-0.7890	6.28	0.29	-0.750			
0.1192	7626.81	3.9090	3.9090	-0.7897	6.29	0.30	-0.750			
0.1216	7779.33	3.9060	3.9059	-0.7962	6.30	0.31	-0.750			
0.1239	7930.77	3.9030	3.9031	-0.7968	6.30	0.31	-0.750			
0.1263	8082.09	3.9000	3.8999	-0.7956	6.31	0.32	-0.750			
0.1287	8236.59	3.8970	3.8970	-0.7993	6.32	0.33	-0.750			
0.1311	8392.81	3.8940	3.8940	-0.8032	6.33	0.34	-0.750			
0.1335	8546.88	3.8910	3.8909	-0.7991	6.33	0.34	-0.750			
0.1359	8699.29	3.8880	3.8881	-0.8018	6.34	0.35	-0.750			
0.1383	8852.16	3.8850	3.8849	-0.8076	6.35	0.36	-0.750			
0.1407	9007.10	3.8820	3.8819	-0.8109	6.36	0.37	-0.750			
0.1432	9163.07	3.8790	3.8789	-0.8173	6.37	0.38	-0.750			
0.1457	9322.51	3.8760	3.8761	-0.8204	6.38	0.39	-0.750			
0.1482	9482.41	3.8730	3.8730	-0.8253	6.39	0.40	-0.750			
0.1507	9642.83	3.8700	3.8700	-0.8213	6.40	0.41	-0.750			
0.1531	9796.93	3.8670	3.8671	-0.8150	6.41	0.42	-0.750			
0.1555	9953.06	3.8640	3.8640	-0.8196	6.42	0.43	-0.750			
0.1580	10110.59	3.8610	3.8610	-0.8189	6.43	0.44	-0.750			
0.1604	10265.02	3.8580	3.8579	-0.8302	6.44	0.45	-0.750			
0.1630	10428.96	3.8550	3.8550	-0.8373	6.45	0.46	-0.750			
0.1655	10590.67	3.8520	3.8520	-0.8370	6.46	0.47	-0.750			
0.1680	10752.06	3.8490	3.8489	-0.8457	6.46	0.47	-0.750			
0.1705	10913.93	3.8460	3.8461	-0.8429	6.47	0.48	-0.750			
0.1731	11076.56	3.8430	3.8429	-0.8425	6.48	0.49	-0.750			
0.1756	11239.82	3.8400	3.8399	-0.8365	6.49	0.50	-0.750			
0.1781	11396.78	3.8370	3.8372	-0.8262	6.50	0.51	-0.750			
0.1806	11557.73	3.8340	3.8339	-0.8301	6.51	0.52	-0.750			
0.1831	11716.20	3.8310	3.8310	-0.8264	6.52	0.53	-0.750			
0.1855	11871.51	3.8280	3.8280	-0.8284	6.53	0.54	-0.750			
0.1880	12030.19	3.8250	3.8250	-0.8344	6.54	0.55	-0.750			
0.1905	12190.94	3.8220	3.8220	-0.8391	6.55	0.56	-0.750			
0.1930	12354.81	3.8190	3.8190	-0.8482	6.56	0.57	-0.750			
0.1956	12518.42	3.8160	3.8160	-0.8512	6.56	0.57	-0.750			
0.1982	12682.24	3.8130	3.8131	-0.8581	6.57	0.58	-0.750			
0.2008	12848.07	3.8100	3.8099	-0.8580	6.58	0.59	-0.750			
0.2033	13013.82	3.8070	3.8070	-0.8511	6.59	0.60	-0.750			
0.2059	13177.81	3.8040	3.8039	-0.8503	6.60	0.61	-0.750			
0.2085	13341.36	3.8010	3.8011	-0.8450	6.61	0.62	-0.750			
0.2110	13501.96	3.7980	3.7979	-0.8408	6.62	0.63	-0.750			
0.2134	13659.32	3.7950	3.7950	-0.8423	6.63	0.64	-0.750			
0.2159	13818.86	3.7920	3.7921	-0.8473	6.64	0.65	-0.750			
0.2185	13984.80	3.7890	3.7888	-0.8543	6.65	0.66	-0.750			
0.2211	14150.96	3.7860	3.7861	-0.8663	6.65	0.66	-0.750			
0.2237	14317.45	3.7830	3.7831	-0.8728	6.66	0.67	-0.750			
0.2264	14487.13	3.7800	3.7799	-0.8804	6.67	0.68	-0.750			
0.2290	14655.23	3.7770	3.7770	-0.8768	6.68	0.69	-0.750			
0.2316	14824.25	3.7740	3.7739	-0.8789	6.69	0.70	-0.750			
0.2343	14993.39	3.7710	3.7710	-0.8830	6.70	0.71	-0.750			
0.2370	15165.25	3.7680	3.7677	-0.8786	6.71	0.72	-0.750			
0.2396	15331.44	3.7650	3.7651	-0.8748	6.71	0.72	-0.750			
0.2422	15498.69	3.7620	3.7620	-0.8788	6.72	0.73	-0.750			
0.2448	15668.92	3.7590	3.7591	-0.8820	6.73	0.74	-0.750			
0.2475	15839.07	3.7560	3.7559	-0.8850	6.74	0.75	-0.750			
0.2501	16008.96	3.7530	3.7530	-0.8795	6.75	0.76	-0.750			
0.2528	16177.10	3.7500	3.7501	-0.8803	6.76	0.77	-0.750			
0.2554	16347.63	3.7470	3.7469	-0.8860	6.76	0.77	-0.750			
0.2580	16514.90	3.7440	3.7441	-0.8851	6.77	0.78	-0.750			
0.2607	16682.94	3.7410	3.7409	-0.8872	6.78	0.79	-0.750			
0.2633	16854.23	3.7380	3.7380	-0.8973	6.79	0.80	-0.750			
0.2661	17029.04	3.7350	3.7349	-0.9010	6.80	0.81	-0.750			
0.2688	17204.30	3.7320	3.7319	-0.9049	6.81	0.82	-0.750			
0.2715	17373.85	3.7290	3.7291	-0.9177	6.82	0.83	-0.750			
0.2743	17552.91	3.7260	3.7259	-0.9272	6.83	0.84	-0.750			
0.2771	17732.76	3.7230	3.7229	-0.9292	6.83	0.84	-0.750			
0.2799	17914.56	3.7200	3.7199	-0.9267	6.84	0.85	-0.750			
0.2827	18094.90	3.7170	3.7173	-0.9279	6.85	0.86	-0.750			
0.2855	18273.58	3.7140	3.7140	-0.9277	6.86	0.87	-0.750			
0.2883	18448.07	3.7110	3.7109	-0.9218	6.86	0.87	-0.750			
0.2909	18619.89	3.7080	3.7079	-0.9076	6.87	0.88	-0.750			
0.2937	18796.64	3.7050	3.7052	-0.9222	6.88	0.89	-0.750			
0.2965	18975.14	3.7020	3.7019	-0.9332	6.89	0.90	-0.750			
0.2993	19154.83	3.6990	3.6989	-0.9392	6.90	0.91	-0.750			
0.3021	19334.43	3.6960	3.6960	-0.9445	6.90	0.91	-0.750			
0.3049	19515.83	3.6930	3.6930	-0.9552	6.91	0.92	-0.750			
0.3079	19702.41	3.6900	3.6900	-0.9625	6.92	0.93	-0.750			
0.3108	19890.49	3.6870	3.6871	-0.9744	6.93	0.94	-0.750			
0.3137	20076.80	3.6840	3.6840	-0.9751	6.94	0.95	-0.750			
0.3166	20265.05	3.6810	3.6809	-0.9782	6.94	0.95	-0.750			
0.3195	20450.70	3.6780	3.6783	-0.9911	6.95	0.96	-0.750			
0.3225	20640.70	3.6750	3.6748	-1.0037	6.95	0.96	-0.750			
0.3255	20834.05	3.6720	3.6721	-1.0146	6.96	0.97	-0.750			
0.3286	21032.21	3.6690	3.6689	-1.0229	6.96	0.97	-0.750			
0.3318	21232.27	3.6660	3.6661	-1.0386	6.97	0.98	-0.750			
0.3349	21432.72	3.6630	3.6630	-1.0520	6.98	0.99	-0.750			
0.3381	21635.54	3.6600	3.6600	-1.0557	6.98	0.99	-0.750			
0.3412	21837.92	3.6570	3.6569	-1.0522	6.99	1.00	-0.750			
0.3443	22038.06	3.6540	3.6544	-1.0608	7.00	1.01	-0.750			
0.3476	22243.30	3.6510	3.6509	-1.0728	7.00	1.01	-0.750			
0.3508	22449.26	3.6480	3.6480	-1.0827	7.01	1.02	-0.750			
0.3540	22656.32	3.6450	3.6449	-1.0867	7.02	1.03	-0.750			
0.3573	22869.55	3.6420	3.6421	-1.0991	7.02	1.03	-0.750			
0.3607	23082.03	3.6390	3.6390	-1.0977	7.03	1.04	-0.750			
0.3639	23292.00	3.6360	3.6361	-1.1052	7.04	1.05	-0.750			
0.3672	23501.51	3.6330	3.6330	-1.1085	7.04	1.05	-0.750			
0.3705	23712.11	3.6300	3.6300	-1.1210	7.05	1.06	-0.750			
0.3739	23928.86	3.6270	3.6268	-1.1378	7.06	1.07	-0.750			
0.3774	24150.76	3.6240	3.6241	-1.1563	7.07	1.08	-0.750			
0.3809	24375.52	3.6210	3.6210	-1.1720	7.08	1.09	-0.750			
0.3844	24603.75	3.6180	3.6179	-1.1953	7.08	1.09	-0.750			
0.3880	24832.93	3.6150	3.6149	-1.2115	7.09	1.10	-0.750			
0.3916	25065.19	3.6120	3.6120	-1.2282	7.10	1.11	-0.750			
0.3954	25304.68	3.6090	3.6091	-1.2456	7.10	1.11	-0.750			
0.3992	25550.91	3.6060	3.6059	-1.2581	7.10	1.11	-0.750			
0.4030	25793.72	3.6030	3.6031	-1.2595	7.11	1.12	-0.750	0.415	0.941	
0.4068	26034.17	3.6000	3.6003	-1.2668	7.11	1.12	-0.750			
0.4106	26278.25	3.5970	3.5969	-1.2727	7.12	1.13	-0.750			
0.4144	26518.84	3.5940	3.5939	-1.2856	7.12	1.13	-0.750			
0.4181	26761.53	3.5910	3.5910	-1.3042	7.13	1.14	-0.750			
0.4222	27019.78	3.5880	3.5879	-1.3232	7.13	1.14	-0.750			
0.4262	27273.81	3.5850	3.5849	-1.3367	7.14	1.15	-0.750			
0.4302	27532.21	3.5820	3.5821	-1.3610	7.15	1.16	-0.750			
0.4343	27796.23	3.5790	3.5789	-1.3727	7.15	1.16	-0.750			
0.4385	28066.59	3.5760	3.5758	-1.3813	7.16	1.17	-0.750			
0.4427	28329.73	3.5730	3.5730	-1.3919	7.17	1.18	-0.750			
0.4468	28598.06	3.5700	3.5699	-1.3995	7.17	1.18	-0.750			
0.4511	28870.42	3.5670	3.5669	-1.4061	7.18	1.19	-0.750			
0.4553	29137.15	3.5640	3.5639	-1.4066	7.18	1.19	-0.750			
0.4595	29405.07	3.5610	3.5610	-1.4094	7.18	1.19	-0.750			
0.4638	29681.87	3.5580	3.5580	-1.4355	7.19	1.20	-0.750			
0.4681	29957.43	3.5550	3.5549	-1.4525	7.20	1.21	-0.750			
0.4724	30234.39	3.5520	3.5518	-1.4679	7.20	1.21	-0.750			
0.4770	30525.16	3.5490	3.5490	-1.4898	7.21	1.22	-0.750			
0.4815	30813.17	3.5460	3.5460	-1.5069	7.21	1.22	-0.750			
0.4860	31102.93	3.5430	3.5431	-1.5133	7.22	1.23	-0.750			
0.4906	31398.38	3.5400	3.5399	-1.5218	7.22	1.23	-0.750			
0.4951	31688.34	3.5370	3.5371	-1.5524	7.23	1.24	-0.750			
0.4998	31985.93	3.5340	3.5338	-1.5652	7.23	1.24	-0.750			
0.5045	32289.47	3.5310	3.5309	-1.5802	7.24	1.25	-0.750			
0.5094	32603.87	3.5280	3.5284	-1.5975	7.25	1.26	-0.750			
0.5142	32911.98	3.5250	3.5247	-1.5986	7.26	1.27	-0.750			
0.5191	33221.21	3.5220	3.5221	-1.5831	7.27	1.28	-0.750			
0.5237	33514.67	3.5190	3.5190	-1.5696	7.28	1.29	-0.750			
0.5284	33820.01	3.5160	3.5157	-1.5849	7.28	1.29	-0.750			
0.5332	34124.71	3.5130	3.5131	-1.5713	7.29	1.30	-0.750			
0.5379	34423.75	3.5100	3.5098	-1.5730	7.30	1.31	-0.750			
0.5427	34730.33	3.5070	3.5070	-1.5819	7.31	1.32	-0.750			
0.5474	35032.67	3.5040	3.5040	-1.5684	7.31	1.32	-0.750			
0.5522	35339.36	3.5010	3.5009	-1.5635	7.32	1.33	-0.750			
0.5567	35629.32	3.4980	3.4982	-1.5704	7.33	1.34	-0.750			
0.5615	35934.35	3.4950	3.4951	-1.5832	7.34	1.35	-0.750			
0.5663	36244.23	3.4920	3.4917	-1.5754	7.34	1.35	-0.750			
0.5710	36546.40	3.4890	3.4891	-1.5580	7.35	1.36	-0.750			
0.5758	36852.46	3.4860	3.4863	-1.5497	7.37	1.38	-0.750			
0.5804	37144.52	3.4830	3.4830	-1.5461	7.38	1.39	-0.750			
0.5849	37433.63	3.4800	3.4799	-1.5283	7.38	1.39	-0.750			
0.5895	37728.53	3.4770	3.4768	-1.5280	7.39	1.40	-0.750			
0.5942	38026.00	3.4740	3.4742	-1.5267	7.40	1.41	-0.750			
0.5988	38322.43	3.4710	3.4708	-1.5095	7.41	1.42	-0.750			
0.6034	38617.29	3.4680	3.4683	-1.4928	7.41	1.42	-0.750			
0.6078	38897.13	3.4650	3.4651	-1.4775	7.42	1.43	-0.750			
0.6121	39172.80	3.4620	3.4619	-1.4735	7.44	1.45	-0.750			
0.6165	39453.64	3.4590	3.4589	-1.4522	7.45	1.46	-0.750			
0.6209	39736.29	3.4560	3.4560	-1.4331	7.46	1.47	-0.750			
0.6253	40016.41	3.4530	3.4529	-1.4147	7.47	1.48	-0.750			
0.6294	40281.34	3.4500	3.4501	-1.3903	7.48	1.49	-0.750			
0.6334	40538.72	3.4470	3.4470	-1.3573	7.49	1.50	-0.750			
0.6375	40797.64	3.4440	3.4439	-1.3501	7.51	1.52	-0.750			
0.6414	41050.62	3.4410	3.4408	-1.3251	7.52	1.53	-0.750			
0.6455	41310.48	3.4380	3.4382	-1.3220	7.53	1.54	-0.750			
0.6495	41568.09	3.4350	3.4351	-1.3068	7.55	1.56	-0.750			
0.6534	41820.27	3.4320	3.4319	-1.2806	7.56	1.57	-0.750			
0.6571	42056.91	3.4290	3.4291	-1.2414	7.57	1.58	-0.750			
0.6609	42296.54	3.4260	3.4260	-1.2226	7.58	1.59	-0.750			
0.6645	42527.54	3.4230	3.4230	-1.1943	7.59	1.60	-0.750			
0.6681	42757.57	3.4200	3.4199	-1.1689	7.60	1.61	-0.750			
0.6715	42977.10	3.4170	3.4169	-1.1401	7.61	1.62	-0.750			
0.6749	43194.06	3.4140	3.4139	-1.1174	7.62	1.63	-0.750			
0.6782	43406.87	3.4110	3.4111	-1.0825	7.63	1.64	-0.750			
0.6814	43609.68	3.4080	3.4081	-1.0445	7.65	1.66	-0.750			
0.6846	43812.24	3.4050	3.4050	-1.0195	7.66	1.67	-0.750			
0.6876	44004.66	3.4020	3.4020	-0.9802	7.67	1.68	-0.750			
0.6904	44188.04	3.3990	3.3989	-0.9444	7.68	1.69	-0.750			
0.6932	44362.41	3.3960	3.3960	-0.9127	7.69	1.70	-0.750			
0.6958	44534.24	3.3930	3.3931	-0.8863	7.71	1.72	-0.750			
0.6985	44702.95	3.3900	3.3898	-0.8698	7.72	1.73	-0.750			
0.7010	44866.34	3.3870	3.3870	-0.8500	7.73	1.74	-0.750			
0.7036	45027.65	3.3840	3.3840	-0.8332	7.74	1.75	-0.750			
0.7061	45187.72	3.3810	3.3811	-0.8122	7.76	1.77	-0.750			
0.7085	45343.20	3.3780	3.3779	-0.7907	7.77	1.78	-0.750			
0.7108	45493.53	3.3750	3.3750	-0.7640	7.78	1.79	-0.750			
0.7131	45637.22	3.3720	3.3720	-0.7438	7.79	1.80	-0.750			
0.7153	45777.03	3.3690	3.3690	-0.7165	7.80	1.81	-0.750			
0.7174	45913.32	3.3660	3.3660	-0.6949	7.81	1.82	-0.750			
0.7194	46043.51	3.3630	3.3632	-0.6708	7.82	1.83	-0.750			
0.7214	46170.30	3.3600	3.3599	-0.6493	7.83	1.84	-0.750			
0.7233	46292.64	3.3570	3.3570	-0.6255	7.84	1.85	-0.750			
0.7252	46409.78	3.3540	3.3540	-0.6071	7.85	1.86	-0.750			
0.7269	46523.25	3.3510	3.3510	-0.5927	7.86	1.87	-0.750			
0.7287	46636.31	3.3480	3.3479	-0.5778	7.87	1.88	-0.750			
0.7304	46745.48	3.3450	3.3448	-0.5608	7.88	1.89	-0.750			
0.7321	46851.83	3.3420	3.3423	-0.5449	7.89	1.90	-0.750			
0.7337	46955.23	3.3390	3.3389	-0.5306	7.90	1.91	-0.750			
0.7352	47055.35	3.3360	3.3361	-0.5164	7.91	1.92	-0.750			
0.7368	47152.34	3.3330	3.3329	-0.5017	7.92	1.93	-0.750			
0.7382	47246.61	3.3300	3.3300	-0.4887	7.92	1.93	-0.750			
0.7397	47339.63	3.3270	3.3270	-0.4750	7.93	1.94	-0.750			
0.7411	47429.06	3.3240	3.3240	-0.4642	7.94	1.95	-0.750			
0.7425	47516.85	3.3210	3.3210	-0.4516	7.95	1.96	-0.750			
0.7438	47601.30	3.3180	3.3180	-0.4401	7.96	1.97	-0.750			
0.7451	47684.63	3.3150	3.3149	-0.4315	7.96	1.97	-0.750			
0.7464	47766.47	3.3120	3.3121	-0.4229	7.97	1.98	-0.750			
0.7476	47847.59	3.3090	3.3090	-0.4146	7.98	1.99	-0.750			
0.7489	47927.01	3.3060	3.3060	-0.4058	7.99	2.00	-0.750			
0.7501	48003.70	3.3030	3.3030	-0.3950	8.00	2.01	-0.750			
0.7512	48078.83	3.3000	3.3000	-0.3852	8.01	2.02	-0.750			
0.7524	48151.41	3.2970	3.2969	-0.3737	8.02	2.03	-0.750			
0.7535	48221.52	3.2940	3.2941	-0.3647	8.03	2.04	-0.750			
0.7545	48290.65	3.2910	3.2910	-0.3565	8.04	2.05	-0.750			
0.7556	48358.36	3.2880	3.2879	-0.3482	8.05	2.06	-0.750			
0.7566	48424.54	3.2850	3.2850	-0.3382	8.06	2.07	-0.750			
0.7576	48488.49	3.2820	3.2821	-0.3298	8.06	2.07	-0.750			
0.7586	48550.98	3.2790	3.2790	-0.3240	8.07	2.08	-0.750			
0.7596	48612.42	3.2760	3.2758	-0.3171	8.08	2.09	-0.750			
0.7605	48671.82	3.2730	3.2730	-0.3098	8.09	2.10	-0.750			
0.7614	48731.00	3.2700	3.2701	-0.3055	8.09	2.10	-0.750			
0.7623	48789.67	3.2670	3.2670	-0.2997	8.10	2.11	-0.750			
0.7632	48847.05	3.2640	3.2640	-0.2931	8.11	2.12	-0.750			
0.7641	48902.08	3.2610	3.2610	-0.2870	8.12	2.13	-0.750			
0.7649	48956.45	3.2580	3.2579	-0.2804	8.12	2.13	-0.750			
0.7658	49009.83	3.2550	3.2550	-0.2754	8.13	2.14	-0.750			
0.7666	49061.87	3.2520	3.2521	-0.2709	8.14	2.15	-0.750			
0.7674	49113.68	3.2490	3.2490	-0.2648	8.14	2.15	-0.750			
0.7682	49163.71	3.2460	3.2459	-0.2613	8.15	2.16	-0.750			
0.7690	49212.91	3.2430	3.2431	-0.2569	8.16	2.17	-0.750			
0.7697	49261.51	3.2400	3.2400	-0.2531	8.16	2.17	-0.750			
0.7705	49310.26	3.2370	3.2369	-0.2489	8.17	2.18	-0.750			
0.7712	49357.96	3.2340	3.2341	-0.2441	8.18	2.19	-0.750			
0.7719	49404.20	3.2310	3.2312	-0.2400	8.19	2.20	-0.750			
0.7727	49450.71	3.2280	3.2280	-0.2365	8.19	2.20	-0.750			
0.7734	49495.07	3.2250	3.2249	-0.2313	8.20	2.21	-0.750			
0.7740	49538.10	3.2220	3.2219	-0.2261	8.21	2.22	-0.750			
0.7747	49581.32	3.2190	3.2190	-0.2229	8.22	2.23	-0.750			
0.7754	49623.85	3.2160	3.2161	-0.2201	8.22	2.23	-0.750			
0.7760	49666.00	3.2130	3.2130	-0.2182	8.23	2.24	-0.750			
0.7767	49707.94	3.2100	3.2101	-0.2144	8.24	2.25	-0.750			
0.7773	49748.31	3.2070	3.2069	-0.2109	8.24	2.25	-0.750			
0.7780	49788.89	3.2040	3.2040	-0.2072	8.25	2.26	-0.750			
0.7786	49828.62	3.2010	3.2011	-0.2039	8.26	2.27	-0.750			
0.7792	49867.37	3.1980	3.1979	-0.2006	8.26	2.27	-0.750			
0.7798	49905.28	3.1950	3.1952	-0.1978	8.27	2.28	-0.750			
0.7804	49942.81	3.1920	3.1919	-0.1955	8.28	2.29	-0.750			
0.7809	49979.57	3.1890	3.1890	-0.1927	8.28	2.29	-0.750			
0.7815	50016.51	3.1860	3.1860	-0.1915	8.29	2.30	-0.750			
0.7821	50053.18	3.1830	3.1831	-0.1881	8.29	2.30	-0.750			
0.7827	50089.85	3.1800	3.1799	-0.1871	8.30	2.31	-0.750			
0.7832	50125.40	3.1770	3.1771	-0.1833	8.30	2.31	-0.750			
0.7838	50160.34	3.1740	3.1741	-0.1799	8.31	2.32	-0.750			
0.7843	50194.21	3.1710	3.1709	-0.1770	8.32	2.33	-0.750			
0.7848	50227.35	3.1680	3.1681	-0.1742	8.32	2.33	-0.750			
0.7853	50260.66	3.1650	3.1649	-0.1727	8.33	2.34	-0.750			
0.7858	50293.25	3.1620	3.1619	-0.1709	8.33	2.34	-0.750			
0.7863	50326.38	3.1590	3.1590	-0.1696	8.34	2.35	-0.750			
0.7869	50358.80	3.1560	3.1560	-0.1682	8.35	2.36	-0.750			
0.7874	50390.93	3.1530	3.1531	-0.1665	8.35	2.36	-0.750			
0.7879	50422.87	3.1500	3.1500	-0.1650	8.36	2.37	-0.750			
0.7884	50454.52	3.1470	3.1469	-0.1623	8.36	2.37	-0.750			
0.7888	50485.39	3.1440	3.1440	-0.1598	8.37	2.38	-0.750			
0.7893	50515.72	3.1410	3.1411	-0.1584	8.38	2.39	-0.750			
0.7898	50545.99	3.1380	3.1381	-0.1565	8.38	2.39	-0.750			
0.7903	50576.04	3.1350	3.1349	-0.1546	8.39	2.40	-0.750			
0.7907	50605.18	3.1320	3.1320	-0.1523	8.39	2.40	-0.750			
0.7912	50634.28	3.1290	3.1290	-0.1508	8.40	2.41	-0.750			
0.7916	50663.15	3.1260	3.1260	-0.1488	8.40	2.41	-0.750			
0.7921	50691.67	3.1230	3.1229	-0.1478	8.41	2.42	-0.750			
0.7925	50719.82	3.1200	3.1201	-0.1460	8.41	2.42	-0.750			
0.7929	50747.37	3.1170	3.1170	-0.1441	8.42	2.43	-0.750			
0.7934	50774.97	3.1140	3.1140	-0.1429	8.42	2.43	-0.750			
0.7938	50802.33	3.1110	3.1110	-0.1415	8.43	2.44	-0.750			
0.7942	50829.16	3.1080	3.1080	-0.1399	8.44	2.45	-0.750			
0.7946	50855.94	3.1050	3.1050	-0.1390	8.44	2.45	-0.750			
0.7950	50882.60	3.1020	3.1020	-0.1383	8.45	2.46	-0.750			
0.7955	50908.93	3.0990	3.0989	-0.1369	8.45	2.46	-0.750			
0.7959	50935.06	3.0960	3.0960	-0.1363	8.46	2.47	-0.750			
0.7963	50961.17	3.0930	3.0930	-0.1357	8.47	2.48	-0.750			
0.7967	50987.26	3.0900	3.0900	-0.1343	8.47	2.48	-0.750			
0.7971	51013.22	3.0870	3.0869	-0.1330	8.48	2.49	-0.750			
0.7975	51038.69	3.0840	3.0840	-0.1314	8.48	2.49	-0.750			
0.7979	51063.64	3.0810	3.0811	-0.1298	8.49	2.50	-0.750			
0.7983	51088.44	3.0780	3.0780	-0.1281	8.50	2.51	-0.750			
0.7986	51112.89	3.0750	3.0749	-0.1266	8.50	2.51	-0.750			
0.7990	51136.75	3.0720	3.0720	-0.1244	8.51	2.52	-0.750			
0.7994	51160.42	3.0690	3.0691	-0.1239	8.51	2.52	-0.750			
0.7998	51184.05	3.0660	3.0660	-0.1231	8.52	2.53	-0.750			
0.8001	51207.74	3.0630	3.0629	-0.1217	8.52	2.53	-0.750			
0.8005	51231.14	3.0600	3.0599	-0.1208	8.53	2.54	-0.750			
0.8008	51254.11	3.0570	3.0570	-0.1197	8.53	2.54	-0.750			
0.8012	51276.98	3.0540	3.0541	-0.1188	8.54	2.55	-0.750			
0.8016	51299.80	3.0510	3.0510	-0.1180	8.55	2.56	-0.750			
0.8019	51322.17	3.0480	3.0480	-0.1174	8.55	2.56	-0.750			
0.8023	51344.32	3.0450	3.0450	-0.1161	8.56	2.57	-0.750			
0.8026	51366.58	3.0420	3.0421	-0.1160	8.56	2.57	-0.750			
0.8030	51388.89	3.0390	3.0390	-0.1160	8.57	2.58	-0.750			
0.8033	51411.30	3.0360	3.0359	-0.1154	8.58	2.59	-0.750			
0.8036	51433.44	3.0330	3.0330	-0.1150	8.58	2.59	-0.750			
0.8040	51455.63	3.0300	3.0300	-0.1139	8.59	2.60	-0.750			
0.8043	51477.71	3.0270	3.0270	-0.1134	8.59	2.60	-0.750			
0.8047	51499.26	3.0240	3.0241	-0.1124	8.60	2.61	-0.750			
0.8050	51520.74	3.0210	3.0211	-0.1113	8.60	2.61	-0.750			
0.8053	51541.94	3.0180	3.0179	-0.1103	8.61	2.62	-0.750			
0.8057	51562.85	3.0150	3.0150	-0.1090	8.62	2.63	-0.750			
0.8060	51583.71	3.0120	3.0121	-0.1083	8.62	2.63	-0.750			
0.8063	51604.39	3.0090	3.0091	-0.1076	8.63	2.64	-0.750			
0.8066	51624.98	3.0060	3.0060	-0.1069	8.63	2.64	-0.750			
0.8070	51645.44	3.0030	3.0029	-0.1050	8.64	2.65	-0.750			
