Ah_balance (normalized)	Ah_balance (mAh)	Voltage - fit (V)	Voltage -  interpolate (V)	dQ/dV (1/V)	Temperature (°C)	Temperature - diff (°C)	Current (C)	R_DC 0ms (mOhm)	R_DC 50ms (mOhm)	R_DC 50 ms PEC (mOhm)
0.0000	0.00	4.1020	4.1279	0.0000	5.98	-0.01	-0.749			
0.0001	8.27	4.0990	4.0981	-0.0182	5.98	-0.01	-0.750			
0.0002	14.71	4.0960	4.0954	-0.0488	5.98	-0.01	-0.750			
0.0004	28.28	4.0930	4.0925	-0.0785	5.98	-0.01	-0.750			
0.0007	46.08	4.0900	4.0898	-0.1069	5.99	-0.00	-0.750			
0.0011	70.04	4.0870	4.0868	-0.1318	5.99	-0.00	-0.750			
0.0015	98.03	4.0840	4.0841	-0.1577	5.99	-0.00	-0.750			
0.0020	130.95	4.0810	4.0809	-0.1816	5.99	-0.00	-0.750			
0.0027	169.84	4.0780	4.0781	-0.2072	5.99	-0.00	-0.750			
0.0033	211.68	4.0750	4.0749	-0.2300	5.99	-0.00	-0.750			
0.0040	258.17	4.0720	4.0721	-0.2511	5.99	-0.00	-0.750			
0.0048	308.93	4.0690	4.0689	-0.2721	5.99	-0.00	-0.750			
0.0057	362.81	4.0660	4.0661	-0.2943	5.99	-0.00	-0.750			
0.0066	421.66	4.0630	4.0629	-0.3149	5.99	-0.00	-0.750			
0.0076	484.34	4.0600	4.0600	-0.3342	5.99	0.00	-0.750			
0.0086	550.02	4.0570	4.0570	-0.3572	5.99	0.00	-0.750			
0.0097	620.54	4.0540	4.0541	-0.3773	5.99	0.00	-0.750			
0.0109	694.83	4.0510	4.0510	-0.4023	5.99	0.00	-0.750			
0.0121	775.05	4.0480	4.0478	-0.4213	5.99	0.00	-0.750			
0.0134	856.33	4.0450	4.0451	-0.4455	6.00	0.01	-0.750			
0.0148	944.84	4.0420	4.0421	-0.4684	6.00	0.01	-0.750			
0.0162	1038.00	4.0390	4.0389	-0.4853	6.00	0.01	-0.750			
0.0177	1132.62	4.0360	4.0359	-0.5030	6.00	0.01	-0.750			
0.0192	1231.07	4.0330	4.0334	-0.5245	6.00	0.01	-0.750			
0.0208	1333.06	4.0300	4.0300	-0.5425	6.00	0.01	-0.750			
0.0225	1439.60	4.0270	4.0269	-0.5650	6.01	0.02	-0.750			
0.0242	1547.79	4.0240	4.0240	-0.5864	6.01	0.02	-0.750			
0.0260	1664.67	4.0210	4.0210	-0.6050	6.02	0.03	-0.750			
0.0279	1785.33	4.0180	4.0179	-0.6143	6.02	0.03	-0.750			
0.0298	1906.25	4.0150	4.0150	-0.6182	6.03	0.04	-0.750			
0.0316	2024.99	4.0120	4.0123	-0.6209	6.03	0.04	-0.750			
0.0335	2143.70	4.0090	4.0088	-0.6264	6.04	0.05	-0.750			
0.0353	2262.28	4.0060	4.0059	-0.6311	6.04	0.05	-0.750			
0.0372	2378.78	4.0030	4.0031	-0.6439	6.05	0.06	-0.750			
0.0392	2506.86	4.0000	4.0001	-0.6646	6.05	0.06	-0.750			
0.0413	2640.26	3.9970	3.9968	-0.6780	6.06	0.07	-0.750			
0.0433	2772.10	3.9940	3.9940	-0.6788	6.07	0.08	-0.750			
0.0454	2903.55	3.9910	3.9911	-0.6817	6.07	0.08	-0.750			
0.0474	3033.60	3.9880	3.9881	-0.6891	6.08	0.09	-0.750			
0.0495	3164.85	3.9850	3.9848	-0.6926	6.09	0.10	-0.750			
0.0515	3297.03	3.9820	3.9820	-0.6931	6.09	0.10	-0.750			
0.0536	3432.62	3.9790	3.9790	-0.7007	6.10	0.11	-0.750			
0.0558	3569.91	3.9760	3.9761	-0.7111	6.11	0.12	-0.750			
0.0579	3706.60	3.9730	3.9730	-0.7151	6.11	0.12	-0.750			
0.0601	3843.64	3.9700	3.9699	-0.7134	6.12	0.13	-0.750			
0.0622	3979.09	3.9670	3.9669	-0.7180	6.13	0.14	-0.750			
0.0643	4117.14	3.9640	3.9641	-0.7232	6.14	0.15	-0.750			
0.0665	4257.50	3.9610	3.9610	-0.7285	6.15	0.16	-0.750			
0.0687	4399.16	3.9580	3.9579	-0.7316	6.16	0.17	-0.750			
0.0709	4539.30	3.9550	3.9551	-0.7315	6.17	0.18	-0.750			
0.0731	4679.53	3.9520	3.9520	-0.7342	6.18	0.19	-0.750			
0.0753	4821.75	3.9490	3.9490	-0.7416	6.18	0.19	-0.750			
0.0776	4963.33	3.9460	3.9460	-0.7420	6.19	0.20	-0.750			
0.0798	5106.37	3.9430	3.9429	-0.7488	6.20	0.21	-0.750			
0.0821	5251.49	3.9400	3.9402	-0.7508	6.21	0.22	-0.750			
0.0843	5397.54	3.9370	3.9369	-0.7525	6.22	0.23	-0.750			
0.0866	5541.43	3.9340	3.9340	-0.7494	6.23	0.24	-0.750			
0.0888	5684.69	3.9310	3.9311	-0.7424	6.24	0.25	-0.750			
0.0911	5828.62	3.9280	3.9279	-0.7387	6.25	0.26	-0.750			
0.0932	5967.33	3.9250	3.9250	-0.7379	6.26	0.27	-0.750			
0.0954	6105.97	3.9220	3.9220	-0.7412	6.26	0.27	-0.750			
0.0976	6247.74	3.9190	3.9190	-0.7563	6.27	0.28	-0.750			
0.0999	6394.01	3.9160	3.9159	-0.7673	6.28	0.29	-0.750			
0.1023	6544.99	3.9130	3.9130	-0.7691	6.29	0.30	-0.750			
0.1046	6694.70	3.9100	3.9101	-0.7796	6.30	0.31	-0.750			
0.1070	6847.78	3.9070	3.9072	-0.7792	6.31	0.32	-0.750			
0.1093	6996.38	3.9040	3.9037	-0.7691	6.32	0.33	-0.750			
0.1116	7141.49	3.9010	3.9010	-0.7651	6.33	0.34	-0.750			
0.1139	7287.87	3.8980	3.8981	-0.7633	6.34	0.35	-0.750			
0.1162	7435.44	3.8950	3.8949	-0.7674	6.35	0.36	-0.750			
0.1185	7583.15	3.8920	3.8920	-0.7689	6.37	0.38	-0.750			
0.1207	7725.98	3.8890	3.8889	-0.7710	6.37	0.38	-0.750			
0.1231	7876.54	3.8860	3.8860	-0.7831	6.38	0.39	-0.750			
0.1255	8028.88	3.8830	3.8829	-0.7827	6.39	0.40	-0.750			
0.1278	8179.12	3.8800	3.8800	-0.7811	6.40	0.41	-0.750			
0.1302	8332.95	3.8770	3.8771	-0.7831	6.40	0.41	-0.750			
0.1325	8482.93	3.8740	3.8740	-0.7762	6.41	0.42	-0.750			
0.1348	8629.56	3.8710	3.8710	-0.7747	6.42	0.43	-0.750			
0.1371	8776.32	3.8680	3.8680	-0.7782	6.44	0.45	-0.750			
0.1395	8927.91	3.8650	3.8649	-0.7787	6.45	0.46	-0.750			
0.1418	9077.84	3.8620	3.8620	-0.7859	6.46	0.47	-0.750			
0.1442	9228.92	3.8590	3.8591	-0.7912	6.47	0.48	-0.750			
0.1466	9382.63	3.8560	3.8560	-0.7926	6.48	0.49	-0.750			
0.1490	9534.82	3.8530	3.8528	-0.7948	6.49	0.50	-0.750			
0.1513	9685.63	3.8500	3.8501	-0.7904	6.50	0.51	-0.750			
0.1537	9838.15	3.8470	3.8471	-0.8018	6.51	0.52	-0.750			
0.1561	9992.78	3.8440	3.8439	-0.8048	6.53	0.54	-0.750			
0.1585	10146.78	3.8410	3.8410	-0.8050	6.54	0.55	-0.750			
0.1610	10303.22	3.8380	3.8380	-0.8081	6.55	0.56	-0.750			
0.1635	10461.08	3.8350	3.8350	-0.8113	6.56	0.57	-0.750			
0.1659	10615.17	3.8320	3.8321	-0.8101	6.57	0.58	-0.750			
0.1683	10772.33	3.8290	3.8290	-0.8049	6.58	0.59	-0.750			
0.1707	10924.78	3.8260	3.8259	-0.7975	6.59	0.60	-0.750			
0.1731	11076.16	3.8230	3.8231	-0.8030	6.59	0.60	-0.750			
0.1755	11230.48	3.8200	3.8201	-0.8026	6.60	0.61	-0.750			
0.1779	11386.19	3.8170	3.8168	-0.8085	6.61	0.62	-0.750			
0.1803	11541.03	3.8140	3.8140	-0.8107	6.62	0.63	-0.750			
0.1828	11696.64	3.8110	3.8110	-0.8108	6.63	0.64	-0.750			
0.1852	11854.56	3.8080	3.8080	-0.8164	6.65	0.66	-0.750			
0.1877	12011.95	3.8050	3.8050	-0.8129	6.66	0.67	-0.750			
0.1901	12166.73	3.8020	3.8020	-0.8093	6.67	0.68	-0.750			
0.1926	12323.63	3.7990	3.7990	-0.8115	6.68	0.69	-0.750			
0.1950	12477.75	3.7960	3.7960	-0.8102	6.69	0.70	-0.750			
0.1974	12632.68	3.7930	3.7930	-0.8117	6.70	0.71	-0.750			
0.1998	12789.28	3.7900	3.7900	-0.8149	6.71	0.72	-0.750			
0.2023	12945.45	3.7870	3.7870	-0.8184	6.72	0.73	-0.750			
0.2048	13104.52	3.7840	3.7840	-0.8223	6.73	0.74	-0.750			
0.2072	13262.09	3.7810	3.7810	-0.8239	6.74	0.75	-0.750			
0.2097	13421.37	3.7780	3.7780	-0.8239	6.75	0.76	-0.750			
0.2122	13578.53	3.7750	3.7750	-0.8304	6.76	0.77	-0.750			
0.2147	13738.50	3.7720	3.7719	-0.8300	6.77	0.78	-0.750			
0.2172	13898.79	3.7690	3.7690	-0.8318	6.78	0.79	-0.750			
0.2197	14058.81	3.7660	3.7661	-0.8276	6.79	0.80	-0.750			
0.2222	14218.55	3.7630	3.7630	-0.8311	6.80	0.81	-0.750			
0.2247	14377.96	3.7600	3.7600	-0.8293	6.81	0.82	-0.750			
0.2271	14535.89	3.7570	3.7570	-0.8293	6.82	0.83	-0.750			
0.2296	14694.04	3.7540	3.7539	-0.8288	6.83	0.84	-0.750			
0.2321	14853.26	3.7510	3.7511	-0.8372	6.84	0.85	-0.750			
0.2346	15012.80	3.7480	3.7480	-0.8454	6.85	0.86	-0.750			
0.2371	15176.06	3.7450	3.7450	-0.8547	6.86	0.87	-0.750			
0.2397	15340.06	3.7420	3.7419	-0.8586	6.87	0.88	-0.750			
0.2423	15509.61	3.7390	3.7391	-0.8673	6.87	0.88	-0.750			
0.2449	15675.98	3.7360	3.7361	-0.8731	6.88	0.89	-0.750			
0.2476	15844.24	3.7330	3.7329	-0.8800	6.89	0.90	-0.750			
0.2502	16014.54	3.7300	3.7299	-0.8755	6.90	0.91	-0.750			
0.2528	16181.60	3.7270	3.7271	-0.8725	6.91	0.92	-0.750			
0.2555	16350.23	3.7240	3.7239	-0.8712	6.92	0.93	-0.750			
0.2581	16517.26	3.7210	3.7210	-0.8683	6.93	0.94	-0.750			
0.2607	16682.14	3.7180	3.7179	-0.8745	6.94	0.95	-0.750			
0.2633	16848.28	3.7150	3.7149	-0.8718	6.95	0.96	-0.750			
0.2659	17016.99	3.7120	3.7119	-0.8715	6.96	0.97	-0.750			
0.2685	17186.17	3.7090	3.7091	-0.8763	6.97	0.98	-0.750			
0.2711	17353.48	3.7060	3.7060	-0.8818	6.98	0.99	-0.750			
0.2738	17522.65	3.7030	3.7029	-0.8886	6.99	1.00	-0.750			
0.2764	17691.20	3.7000	3.7000	-0.8944	7.00	1.01	-0.750			
0.2791	17862.87	3.6970	3.6969	-0.9034	7.01	1.02	-0.750			
0.2819	18041.40	3.6940	3.6943	-0.9184	7.02	1.03	-0.750			
0.2847	18218.46	3.6910	3.6911	-0.9332	7.03	1.04	-0.750			
0.2875	18399.72	3.6880	3.6879	-0.9405	7.03	1.04	-0.750			
0.2903	18581.87	3.6850	3.6849	-0.9424	7.04	1.05	-0.750			
0.2932	18762.67	3.6820	3.6820	-0.9465	7.05	1.06	-0.750			
0.2960	18945.12	3.6790	3.6790	-0.9476	7.06	1.07	-0.750			
0.2989	19128.38	3.6760	3.6760	-0.9520	7.06	1.07	-0.750			
0.3017	19310.52	3.6730	3.6729	-0.9497	7.07	1.08	-0.750			
0.3045	19490.52	3.6700	3.6700	-0.9461	7.08	1.09	-0.750			
0.3074	19673.50	3.6670	3.6671	-0.9621	7.09	1.10	-0.750			
0.3103	19858.96	3.6640	3.6640	-0.9772	7.10	1.11	-0.750			
0.3133	20049.24	3.6610	3.6608	-0.9822	7.11	1.12	-0.750			
0.3163	20240.43	3.6580	3.6579	-0.9844	7.11	1.12	-0.750			
0.3192	20431.83	3.6550	3.6554	-0.9875	7.12	1.13	-0.750			
0.3222	20620.61	3.6520	3.6519	-0.9933	7.13	1.14	-0.750			
0.3251	20809.43	3.6490	3.6490	-0.9935	7.13	1.14	-0.750			
0.3281	20997.06	3.6460	3.6460	-1.0029	7.14	1.15	-0.750			
0.3311	21190.80	3.6430	3.6429	-1.0217	7.15	1.16	-0.750			
0.3342	21390.02	3.6400	3.6400	-1.0301	7.16	1.17	-0.750			
0.3374	21592.48	3.6370	3.6370	-1.0395	7.16	1.17	-0.750			
0.3405	21790.89	3.6340	3.6340	-1.0456	7.17	1.18	-0.750			
0.3436	21990.54	3.6310	3.6310	-1.0484	7.18	1.19	-0.750			
0.3468	22192.50	3.6280	3.6279	-1.0654	7.18	1.19	-0.750			
0.3500	22398.27	3.6250	3.6250	-1.0707	7.19	1.20	-0.750			
0.3532	22605.20	3.6220	3.6219	-1.0854	7.19	1.20	-0.750			
0.3565	22815.97	3.6190	3.6193	-1.0963	7.20	1.21	-0.750			
0.3598	23030.31	3.6160	3.6158	-1.1019	7.20	1.21	-0.750			
0.3631	23239.04	3.6130	3.6130	-1.1079	7.21	1.22	-0.750			
0.3664	23451.25	3.6100	3.6100	-1.1138	7.22	1.23	-0.750			
0.3698	23666.20	3.6070	3.6071	-1.1372	7.22	1.23	-0.750			
0.3733	23888.89	3.6040	3.6039	-1.1366	7.23	1.24	-0.750			
0.3767	24106.35	3.6010	3.6011	-1.1437	7.23	1.24	-0.750			
0.3801	24328.77	3.5980	3.5980	-1.1496	7.24	1.25	-0.750			
0.3836	24551.18	3.5950	3.5949	-1.1564	7.24	1.25	-0.750			
0.3871	24771.30	3.5920	3.5934	-1.1570	7.25	1.26	-0.750	0.402	0.884	
0.3905	24992.93	3.5890	3.5890	-1.1627	7.25	1.26	-0.750			
0.3940	25214.51	3.5860	3.5862	-1.1687	7.26	1.27	-0.750			
0.3976	25444.53	3.5830	3.5829	-1.1863	7.27	1.28	-0.750			
0.4011	25671.04	3.5800	3.5801	-1.1978	7.27	1.28	-0.750			
0.4047	25902.38	3.5770	3.5769	-1.2085	7.28	1.29	-0.750			
0.4084	26135.15	3.5740	3.5741	-1.2149	7.28	1.29	-0.750			
0.4120	26370.61	3.5710	3.5709	-1.2239	7.28	1.29	-0.750			
0.4157	26606.50	3.5680	3.5680	-1.2336	7.29	1.30	-0.750			
0.4194	26843.22	3.5650	3.5652	-1.2439	7.29	1.30	-0.750			
0.4232	27084.20	3.5620	3.5620	-1.2638	7.30	1.31	-0.750			
0.4270	27328.75	3.5590	3.5589	-1.2700	7.30	1.31	-0.750			
0.4309	27574.80	3.5560	3.5560	-1.2925	7.31	1.32	-0.750			
0.4348	27826.83	3.5530	3.5529	-1.3055	7.31	1.32	-0.750			
0.4388	28080.13	3.5500	3.5500	-1.3039	7.32	1.33	-0.750			
0.4427	28330.37	3.5470	3.5470	-1.3113	7.33	1.34	-0.750			
0.4466	28580.98	3.5440	3.5440	-1.3110	7.33	1.34	-0.750			
0.4505	28832.84	3.5410	3.5409	-1.3125	7.33	1.34	-0.750			
0.4544	29082.71	3.5380	3.5379	-1.3268	7.34	1.35	-0.750			
0.4584	29335.89	3.5350	3.5350	-1.3249	7.34	1.35	-0.750			
0.4625	29598.78	3.5320	3.5320	-1.3385	7.34	1.35	-0.750			
0.4665	29854.90	3.5290	3.5289	-1.3585	7.35	1.36	-0.750			
0.4706	30116.32	3.5260	3.5261	-1.3579	7.35	1.36	-0.750			
0.4747	30382.46	3.5230	3.5229	-1.3586	7.36	1.37	-0.750			
0.4788	30645.03	3.5200	3.5202	-1.3503	7.37	1.38	-0.750			
0.4828	30899.65	3.5170	3.5170	-1.3387	7.38	1.39	-0.750			
0.4868	31157.87	3.5140	3.5141	-1.3489	7.38	1.39	-0.750			
0.4908	31414.31	3.5110	3.5109	-1.3405	7.39	1.40	-0.750			
0.4948	31667.28	3.5080	3.5081	-1.3372	7.39	1.40	-0.750			
0.4989	31931.52	3.5050	3.5048	-1.3415	7.40	1.41	-0.750			
0.5030	32189.04	3.5020	3.5022	-1.3375	7.41	1.42	-0.750			
0.5070	32445.61	3.4990	3.4992	-1.3471	7.42	1.43	-0.750			
0.5110	32703.17	3.4960	3.4959	-1.3478	7.42	1.43	-0.750			
0.5150	32961.99	3.4930	3.4929	-1.3473	7.42	1.43	-0.750			
0.5191	33219.89	3.4900	3.4902	-1.3533	7.42	1.43	-0.750			
0.5232	33483.08	3.4870	3.4870	-1.3587	7.43	1.44	-0.750			
0.5273	33745.47	3.4840	3.4840	-1.3529	7.45	1.46	-0.750			
0.5313	34004.94	3.4810	3.4810	-1.3346	7.46	1.47	-0.750			
0.5353	34261.39	3.4780	3.4780	-1.3206	7.47	1.48	-0.750			
0.5393	34512.19	3.4750	3.4750	-1.3053	7.47	1.48	-0.750			
0.5431	34757.81	3.4720	3.4721	-1.2975	7.48	1.49	-0.750			
0.5469	35003.25	3.4690	3.4689	-1.2887	7.49	1.50	-0.750			
0.5508	35249.00	3.4660	3.4659	-1.2909	7.50	1.51	-0.750			
0.5546	35496.24	3.4630	3.4630	-1.2957	7.50	1.51	-0.750			
0.5586	35748.55	3.4600	3.4600	-1.2927	7.51	1.52	-0.750			
0.5625	36000.37	3.4570	3.4570	-1.2878	7.52	1.53	-0.750			
0.5663	36246.19	3.4540	3.4540	-1.2722	7.53	1.54	-0.750			
0.5701	36486.95	3.4510	3.4511	-1.2578	7.54	1.55	-0.750			
0.5739	36729.98	3.4480	3.4479	-1.2479	7.55	1.56	-0.750			
0.5776	36967.91	3.4450	3.4450	-1.2226	7.56	1.57	-0.750			
0.5813	37200.25	3.4420	3.4420	-1.2115	7.57	1.58	-0.750			
0.5849	37433.17	3.4390	3.4390	-1.2083	7.58	1.59	-0.750			
0.5885	37661.79	3.4360	3.4359	-1.1928	7.59	1.60	-0.750			
0.5920	37887.93	3.4330	3.4329	-1.1832	7.59	1.60	-0.750			
0.5956	38115.34	3.4300	3.4300	-1.1725	7.60	1.61	-0.750			
0.5991	38344.81	3.4270	3.4270	-1.1618	7.62	1.63	-0.750			
0.6026	38567.14	3.4240	3.4241	-1.1412	7.63	1.64	-0.750			
0.6060	38781.79	3.4210	3.4210	-1.1175	7.64	1.65	-0.750			
0.6093	38995.86	3.4180	3.4179	-1.1131	7.65	1.66	-0.750			
0.6126	39204.83	3.4150	3.4148	-1.0899	7.66	1.67	-0.750			
0.6158	39414.27	3.4120	3.4120	-1.0682	7.67	1.68	-0.750			
0.6190	39618.74	3.4090	3.4093	-1.0584	7.68	1.69	-0.750			
0.6223	39825.10	3.4060	3.4060	-1.0431	7.69	1.70	-0.750			
0.6254	40023.22	3.4030	3.4030	-1.0121	7.71	1.72	-0.750			
0.6283	40210.49	3.4000	3.3999	-0.9838	7.72	1.73	-0.750			
0.6312	40397.42	3.3970	3.3971	-0.9668	7.74	1.75	-0.750			
0.6341	40579.37	3.3940	3.3939	-0.9529	7.75	1.76	-0.750			
0.6369	40763.58	3.3910	3.3909	-0.9338	7.76	1.77	-0.750			
0.6396	40937.54	3.3880	3.3880	-0.9092	7.77	1.78	-0.750			
0.6424	41110.89	3.3850	3.3850	-0.8912	7.78	1.79	-0.750			
0.6451	41283.93	3.3820	3.3820	-0.8744	7.79	1.80	-0.750			
0.6476	41448.60	3.3790	3.3789	-0.8514	7.81	1.82	-0.750			
0.6502	41610.08	3.3760	3.3760	-0.8308	7.82	1.83	-0.750			
0.6526	41767.75	3.3730	3.3730	-0.8040	7.83	1.84	-0.750			
0.6550	41921.12	3.3700	3.3699	-0.7915	7.84	1.85	-0.750			
0.6573	42068.79	3.3670	3.3671	-0.7698	7.85	1.86	-0.750			
0.6596	42215.19	3.3640	3.3638	-0.7570	7.87	1.88	-0.750			
0.6618	42357.93	3.3610	3.3610	-0.7477	7.88	1.89	-0.750			
0.6641	42501.39	3.3580	3.3582	-0.7268	7.89	1.90	-0.750			
0.6663	42642.49	3.3550	3.3549	-0.7168	7.90	1.91	-0.750			
0.6684	42778.98	3.3520	3.3520	-0.6906	7.91	1.92	-0.750			
0.6704	42907.73	3.3490	3.3490	-0.6638	7.93	1.94	-0.750			
0.6724	43032.55	3.3460	3.3460	-0.6466	7.94	1.95	-0.750			
0.6743	43153.57	3.3430	3.3430	-0.6268	7.95	1.96	-0.750			
0.6761	43270.80	3.3400	3.3399	-0.6136	7.96	1.97	-0.750			
0.6780	43389.19	3.3370	3.3370	-0.6028	7.98	1.99	-0.750			
0.6797	43503.21	3.3340	3.3340	-0.5887	7.99	2.00	-0.750			
0.6815	43616.89	3.3310	3.3309	-0.5758	8.00	2.01	-0.750			
0.6832	43725.59	3.3280	3.3280	-0.5627	8.01	2.02	-0.750			
0.6849	43831.74	3.3250	3.3251	-0.5495	8.02	2.03	-0.750			
0.6865	43935.01	3.3220	3.3219	-0.5391	8.03	2.04	-0.750			
0.6881	44036.96	3.3190	3.3190	-0.5288	8.04	2.05	-0.750			
0.6897	44138.26	3.3160	3.3160	-0.5240	8.05	2.06	-0.750			
0.6912	44238.58	3.3130	3.3131	-0.5130	8.06	2.07	-0.750			
0.6928	44337.70	3.3100	3.3099	-0.5060	8.07	2.08	-0.750			
0.6943	44433.25	3.3070	3.3072	-0.4949	8.08	2.09	-0.750			
0.6957	44527.01	3.3040	3.3040	-0.4849	8.09	2.10	-0.750			
0.6972	44618.76	3.3010	3.3009	-0.4751	8.10	2.11	-0.750			
0.6986	44708.94	3.2980	3.2980	-0.4650	8.11	2.12	-0.750			
0.7000	44797.27	3.2950	3.2950	-0.4587	8.12	2.13	-0.750			
0.7013	44884.73	3.2920	3.2920	-0.4512	8.14	2.15	-0.750			
0.7027	44970.31	3.2890	3.2889	-0.4433	8.15	2.16	-0.750			
0.7040	45055.47	3.2860	3.2860	-0.4339	8.16	2.17	-0.750			
0.7053	45138.23	3.2830	3.2830	-0.4256	8.17	2.18	-0.750			
0.7066	45219.38	3.2800	3.2801	-0.4156	8.18	2.19	-0.750			
0.7078	45297.63	3.2770	3.2770	-0.4094	8.19	2.20	-0.750			
0.7090	45374.30	3.2740	3.2740	-0.4008	8.20	2.21	-0.750			
0.7102	45451.05	3.2710	3.2709	-0.3925	8.21	2.22	-0.750			
0.7113	45525.50	3.2680	3.2680	-0.3845	8.23	2.24	-0.750			
0.7125	45599.91	3.2650	3.2651	-0.3798	8.24	2.25	-0.750			
0.7136	45671.35	3.2620	3.2621	-0.3712	8.25	2.26	-0.750			
0.7147	45741.72	3.2590	3.2589	-0.3650	8.26	2.27	-0.750			
0.7158	45810.63	3.2560	3.2560	-0.3578	8.27	2.28	-0.750			
0.7169	45879.21	3.2530	3.2529	-0.3523	8.28	2.29	-0.750			
0.7179	45946.69	3.2500	3.2500	-0.3473	8.29	2.30	-0.750			
0.7189	46012.76	3.2470	3.2471	-0.3429	8.30	2.31	-0.750			
0.7200	46078.05	3.2440	3.2439	-0.3363	8.31	2.32	-0.750			
0.7210	46141.77	3.2410	3.2409	-0.3309	8.32	2.33	-0.750			
0.7219	46204.76	3.2380	3.2381	-0.3261	8.33	2.34	-0.750			
0.7229	46266.57	3.2350	3.2350	-0.3212	8.34	2.35	-0.750			
0.7239	46328.60	3.2320	3.2320	-0.3173	8.35	2.36	-0.750			
0.7248	46388.41	3.2290	3.2290	-0.3129	8.36	2.37	-0.750			
0.7258	46448.03	3.2260	3.2259	-0.3085	8.37	2.38	-0.750			
0.7267	46506.92	3.2230	3.2230	-0.3061	8.38	2.39	-0.750			
0.7276	46565.14	3.2200	3.2201	-0.3018	8.39	2.40	-0.750			
0.7285	46622.87	3.2170	3.2170	-0.2991	8.39	2.40	-0.750			
0.7294	46680.34	3.2140	3.2139	-0.2943	8.40	2.41	-0.750			
0.7302	46735.96	3.2110	3.2110	-0.2914	8.41	2.42	-0.750			
0.7311	46791.39	3.2080	3.2081	-0.2875	8.42	2.43	-0.750			
0.7320	46846.84	3.2050	3.2051	-0.2841	8.43	2.44	-0.750			
0.7328	46900.58	3.2020	3.2020	-0.2786	8.44	2.45	-0.750			
0.7337	46954.19	3.1990	3.1991	-0.2757	8.45	2.46	-0.750			
0.7345	47006.31	3.1960	3.1960	-0.2715	8.46	2.47	-0.750			
0.7353	47058.64	3.1930	3.1930	-0.2681	8.47	2.48	-0.750			
0.7361	47109.16	3.1900	3.1900	-0.2629	8.48	2.49	-0.750			
0.7369	47158.87	3.1870	3.1870	-0.2613	8.49	2.50	-0.750			
0.7376	47208.61	3.1840	3.1840	-0.2595	8.50	2.51	-0.750			
0.7384	47258.30	3.1810	3.1809	-0.2571	8.51	2.52	-0.750			
0.7392	47307.82	3.1780	3.1778	-0.2541	8.52	2.53	-0.750			
0.7399	47356.51	3.1750	3.1751	-0.2516	8.53	2.54	-0.750			
0.7407	47405.45	3.1720	3.1720	-0.2465	8.53	2.54	-0.750			
0.7414	47451.88	3.1690	3.1690	-0.2420	8.54	2.55	-0.750			
0.7422	47497.88	3.1660	3.1660	-0.2384	8.55	2.56	-0.750			
0.7428	47542.30	3.1630	3.1630	-0.2343	8.56	2.57	-0.750			
0.7435	47586.61	3.1600	3.1601	-0.2329	8.57	2.58	-0.750			
0.7442	47631.19	3.1570	3.1570	-0.2306	8.58	2.59	-0.750			
0.7449	47675.27	3.1540	3.1540	-0.2301	8.59	2.60	-0.750			
0.7456	47719.83	3.1510	3.1511	-0.2297	8.60	2.61	-0.750			
0.7463	47763.28	3.1480	3.1479	-0.2270	8.60	2.61	-0.750			
0.7470	47807.31	3.1450	3.1449	-0.2245	8.61	2.62	-0.750			
0.7477	47850.37	3.1420	3.1420	-0.2221	8.62	2.63	-0.750			
0.7483	47892.26	3.1390	3.1391	-0.2192	8.63	2.64	-0.750			
0.7490	47934.12	3.1360	3.1360	-0.2168	8.64	2.65	-0.750			
0.7496	47975.60	3.1330	3.1329	-0.2154	8.65	2.66	-0.750			
0.7503	48016.07	3.1300	3.1301	-0.2125	8.65	2.66	-0.750			
0.7509	48056.84	3.1270	3.1270	-0.2115	8.66	2.67	-0.750			
0.7515	48097.37	3.1240	3.1240	-0.2107	8.67	2.68	-0.750			
0.7522	48138.01	3.1210	3.1210	-0.2102	8.68	2.69	-0.750			
0.7528	48178.16	3.1180	3.1180	-0.2091	8.69	2.70	-0.750			
0.7534	48218.24	3.1150	3.1150	-0.2073	8.69	2.70	-0.750			
0.7540	48257.92	3.1120	3.1120	-0.2061	8.70	2.71	-0.750			
0.7547	48297.65	3.1090	3.1090	-0.2039	8.71	2.72	-0.750			
0.7553	48336.91	3.1060	3.1060	-0.2017	8.72	2.73	-0.750			
0.7559	48375.11	3.1030	3.1031	-0.1996	8.73	2.74	-0.750			
0.7565	48413.21	3.1000	3.1000	-0.1973	8.73	2.74	-0.750			
0.7570	48450.75	3.0970	3.0969	-0.1944	8.74	2.75	-0.750			
0.7576	48487.63	3.0940	3.0939	-0.1921	8.75	2.76	-0.750			
0.7582	48524.37	3.0910	3.0910	-0.1904	8.76	2.77	-0.750			
0.7588	48560.64	3.0880	3.0881	-0.1896	8.77	2.78	-0.750			
0.7593	48596.81	3.0850	3.0849	-0.1889	8.78	2.79	-0.750			
0.7599	48632.63	3.0820	3.0820	-0.1886	8.78	2.79	-0.750			
0.7604	48668.38	3.0790	3.0790	-0.1881	8.79	2.80	-0.750			
0.7610	48704.89	3.0760	3.0759	-0.1876	8.80	2.81	-0.750			
0.7616	48741.63	3.0730	3.0729	-0.1866	8.81	2.82	-0.750			
0.7621	48777.41	3.0700	3.0701	-0.1856	8.82	2.83	-0.750			
0.7627	48812.86	3.0670	3.0670	-0.1836	8.83	2.84	-0.750			
0.7633	48848.16	3.0640	3.0640	-0.1806	8.83	2.84	-0.750			
0.7638	48882.44	3.0610	3.0609	-0.1786	8.84	2.85	-0.750			
0.7643	48915.96	3.0580	3.0581	-0.1766	8.85	2.86	-0.750			
0.7648	48949.77	3.0550	3.0551	-0.1757	8.86	2.87	-0.750			
0.7654	48983.31	3.0520	3.0518	-0.1753	8.87	2.88	-0.750			
0.7659	49016.88	3.0490	3.0490	-0.1744	8.87	2.88	-0.750			
0.7664	49050.16	3.0460	3.0459	-0.1734	8.88	2.89	-0.750			
0.7669	49083.44	3.0430	3.0431	-0.1733	8.89	2.90	-0.750			
0.7675	49117.21	3.0400	3.0400	-0.1725	8.90	2.91	-0.750			
0.7680	49149.98	3.0370	3.0370	-0.1718	8.91	2.92	-0.750			
0.7685	49182.73	3.0340	3.0340	-0.1708	8.92	2.93	-0.750			
0.7690	49215.49	3.0310	3.0310	-0.1702	8.92	2.93	-0.750			
0.7695	49248.19	3.0280	3.0279	-0.1689	8.93	2.94	-0.750			
0.7700	49280.88	3.0250	3.0250	-0.1676	8.94	2.95	-0.750			
0.7705	49313.07	3.0220	3.0220	-0.1660	8.95	2.96	-0.750			
0.7710	49344.73	3.0190	3.0190	-0.1640	8.96	2.97	-0.750			
0.7715	49375.94	3.0160	3.0160	-0.1633	8.96	2.97	-0.750			
0.7720	49406.57	3.0130	3.0131	-0.1619	8.97	2.98	-0.750			
0.7725	49437.65	3.0100	3.0099	-0.1618	8.98	2.99	-0.750			
0.7729	49468.35	3.0070	3.0070	-0.1623	8.99	3.00	-0.750			
0.7734	49499.45	3.0040	3.0040	-0.1643	9.00	3.01	-0.750			
0.7739	49531.19	3.0010	3.0010	-0.1665	9.00	3.01	-0.750			
