Ah_balance (normalized)	Ah_balance (mAh)	Voltage - fit (V)	Voltage -  interpolate (V)	dQ/dV (1/V)	Temperature (°C)	Temperature - diff (°C)	Current (C)	R_DC 0ms (mOhm)	R_DC 50ms (mOhm)	R_DC 50 ms PEC (mOhm)
0.0959	6136.91	4.1960	4.1980	0.8598	8.30	2.18	0.750			
0.0985	6304.28	4.1930	4.1944	0.8509	8.29	2.17	0.750			
0.1011	6467.71	4.1900	4.1905	0.8119	8.29	2.17	0.750			
0.1033	6613.30	4.1870	4.1873	0.7710	8.28	2.16	0.750			
0.1056	6760.30	4.1840	4.1841	0.7052	8.28	2.16	0.750			
0.1078	6896.18	4.1810	4.1809	0.7171	8.27	2.15	0.750			
0.1099	7035.43	4.1780	4.1781	0.7188	8.27	2.15	0.750			
0.1121	7174.99	4.1750	4.1749	0.7201	8.26	2.14	0.750			
0.1143	7316.38	4.1720	4.1721	0.7189	8.26	2.14	0.750			
0.1165	7453.20	4.1690	4.1690	0.7178	8.25	2.13	0.750			
0.1186	7588.46	4.1660	4.1660	0.7096	8.25	2.13	0.750			
0.1207	7724.50	4.1630	4.1629	0.7039	8.24	2.12	0.750			
0.1228	7857.17	4.1600	4.1600	0.6997	8.24	2.12	0.750			
0.1249	7992.71	4.1570	4.1572	0.7024	8.23	2.11	0.750			
0.1270	8125.62	4.1540	4.1540	0.7121	8.23	2.11	0.750			
0.1291	8260.85	4.1510	4.1510	0.7200	8.23	2.11	0.750			
0.1312	8399.93	4.1480	4.1480	0.7314	8.22	2.10	0.750			
0.1335	8542.98	4.1450	4.1448	0.7457	8.22	2.10	0.750			
0.1358	8689.68	4.1420	4.1421	0.7510	8.21	2.09	0.750			
0.1381	8837.72	4.1390	4.1390	0.7493	8.21	2.09	0.750			
0.1403	8981.58	4.1360	4.1360	0.7430	8.20	2.08	0.750			
0.1425	9121.51	4.1330	4.1330	0.7347	8.20	2.08	0.750			
0.1447	9260.58	4.1300	4.1301	0.7310	8.19	2.07	0.750			
0.1469	9399.72	4.1270	4.1270	0.7320	8.19	2.07	0.750			
0.1491	9539.50	4.1240	4.1240	0.7374	8.18	2.06	0.750			
0.1513	9682.47	4.1210	4.1210	0.7437	8.18	2.06	0.750			
0.1535	9825.75	4.1180	4.1180	0.7566	8.18	2.06	0.750			
0.1558	9970.30	4.1150	4.1150	0.7624	8.17	2.05	0.750			
0.1581	10118.83	4.1120	4.1120	0.7686	8.17	2.05	0.750			
0.1605	10269.19	4.1090	4.1089	0.7707	8.16	2.04	0.750			
0.1628	10418.08	4.1060	4.1060	0.7697	8.16	2.04	0.750			
0.1651	10566.17	4.1030	4.1031	0.7668	8.15	2.03	0.750			
0.1674	10712.15	4.1000	4.1001	0.7692	8.15	2.03	0.750			
0.1696	10855.83	4.0970	4.0970	0.7755	8.14	2.02	0.750			
0.1720	11006.34	4.0940	4.0939	0.7855	8.14	2.02	0.750			
0.1744	11160.36	4.0910	4.0909	0.7884	8.13	2.01	0.750			
0.1768	11312.33	4.0880	4.0881	0.7917	8.13	2.01	0.750			
0.1792	11466.11	4.0850	4.0851	0.7985	8.12	2.00	0.750			
0.1816	11620.49	4.0820	4.0820	0.7960	8.11	1.99	0.750			
0.1839	11771.62	4.0790	4.0789	0.7872	8.11	1.99	0.750			
0.1863	11921.64	4.0760	4.0761	0.7869	8.10	1.98	0.750			
0.1886	12073.45	4.0730	4.0732	0.7936	8.10	1.98	0.750			
0.1910	12225.75	4.0700	4.0699	0.8007	8.09	1.97	0.750			
0.1934	12379.52	4.0670	4.0669	0.8000	8.09	1.97	0.750			
0.1958	12531.95	4.0640	4.0640	0.8021	8.08	1.96	0.750			
0.1983	12688.22	4.0610	4.0612	0.8100	8.07	1.95	0.750			
0.2007	12846.58	4.0580	4.0579	0.8109	8.07	1.95	0.750			
0.2031	12998.89	4.0550	4.0549	0.8190	8.06	1.94	0.750			
0.2056	13155.33	4.0520	4.0522	0.8195	8.06	1.94	0.750			
0.2080	13313.71	4.0490	4.0488	0.8243	8.05	1.93	0.750			
0.2105	13474.62	4.0460	4.0462	0.8371	8.04	1.92	0.750			
0.2131	13635.71	4.0430	4.0430	0.8399	8.04	1.92	0.750			
0.2156	13797.30	4.0400	4.0399	0.8462	8.03	1.91	0.750			
0.2181	13959.85	4.0370	4.0370	0.8445	8.03	1.91	0.750			
0.2206	14120.51	4.0340	4.0339	0.8506	8.02	1.90	0.750			
0.2233	14288.37	4.0310	4.0310	0.8584	8.01	1.89	0.750			
0.2258	14453.79	4.0280	4.0279	0.8582	8.01	1.89	0.750			
0.2284	14616.25	4.0250	4.0250	0.8634	8.00	1.88	0.750			
0.2310	14784.40	4.0220	4.0221	0.8603	8.00	1.88	0.750			
0.2336	14950.64	4.0190	4.0189	0.8587	7.99	1.87	0.750			
0.2362	15117.28	4.0160	4.0159	0.8499	7.99	1.87	0.750			
0.2387	15277.14	4.0130	4.0131	0.8445	7.98	1.86	0.750			
0.2412	15436.94	4.0100	4.0100	0.8565	7.98	1.86	0.750			
0.2438	15600.11	4.0070	4.0070	0.8623	7.97	1.85	0.750			
0.2463	15763.60	4.0040	4.0038	0.8699	7.97	1.85	0.750			
0.2490	15934.88	4.0010	4.0011	0.8925	7.96	1.84	0.750			
0.2517	16110.29	3.9980	3.9980	0.9033	7.95	1.83	0.750			
0.2545	16287.07	3.9950	3.9949	0.9069	7.94	1.82	0.750			
0.2572	16460.27	3.9920	3.9921	0.9058	7.93	1.81	0.750			
0.2599	16634.04	3.9890	3.9890	0.9120	7.93	1.81	0.750			
0.2627	16811.54	3.9860	3.9859	0.9067	7.92	1.80	0.750			
0.2654	16984.64	3.9830	3.9830	0.9084	7.92	1.80	0.750			
0.2681	17158.30	3.9800	3.9801	0.9082	7.91	1.79	0.750			
0.2708	17331.61	3.9770	3.9768	0.9151	7.91	1.79	0.750			
0.2736	17508.28	3.9740	3.9741	0.9147	7.90	1.78	0.750			
0.2763	17681.56	3.9710	3.9709	0.9229	7.89	1.77	0.750			
0.2791	17859.20	3.9680	3.9679	0.9309	7.88	1.76	0.750			
0.2819	18040.21	3.9650	3.9652	0.9312	7.87	1.75	0.750			
0.2847	18219.55	3.9620	3.9620	0.9284	7.87	1.75	0.750			
0.2875	18399.31	3.9590	3.9592	0.9314	7.86	1.74	0.750			
0.2902	18574.67	3.9560	3.9559	0.9391	7.85	1.73	0.750			
0.2930	18753.13	3.9530	3.9531	0.9495	7.85	1.73	0.750			
0.2959	18934.76	3.9500	3.9497	0.9608	7.84	1.72	0.750			
0.2988	19122.04	3.9470	3.9470	0.9708	7.83	1.71	0.750			
0.3017	19311.18	3.9440	3.9441	0.9870	7.82	1.70	0.750			
0.3048	19505.01	3.9410	3.9411	0.9973	7.81	1.69	0.750			
0.3077	19695.95	3.9380	3.9378	0.9931	7.80	1.68	0.750			
0.3107	19885.34	3.9350	3.9350	0.9933	7.79	1.67	0.750			
0.3137	20077.70	3.9320	3.9321	1.0029	7.79	1.67	0.750			
0.3167	20268.74	3.9290	3.9290	1.0121	7.78	1.66	0.750			
0.3198	20465.36	3.9260	3.9259	1.0191	7.77	1.65	0.750			
0.3228	20660.63	3.9230	3.9229	1.0153	7.76	1.64	0.750			
0.3259	20855.30	3.9200	3.9201	1.0275	7.75	1.63	0.750			
0.3289	21052.07	3.9170	3.9171	1.0402	7.74	1.62	0.750			
0.3320	21250.32	3.9140	3.9140	1.0580	7.73	1.61	0.750			
0.3352	21454.78	3.9110	3.9109	1.0720	7.72	1.60	0.750			
0.3385	21661.02	3.9080	3.9080	1.0917	7.71	1.59	0.750			
0.3418	21876.76	3.9050	3.9050	1.1100	7.70	1.58	0.750			
0.3452	22095.10	3.9020	3.9018	1.1259	7.69	1.57	0.750			
0.3486	22309.92	3.8990	3.8992	1.1252	7.68	1.56	0.750			
0.3520	22526.96	3.8960	3.8960	1.1373	7.68	1.56	0.750			
0.3553	22742.13	3.8930	3.8930	1.1486	7.67	1.55	0.750			
0.3588	22965.52	3.8900	3.8899	1.1470	7.66	1.54	0.750			
0.3623	23188.51	3.8870	3.8870	1.1607	7.64	1.52	0.750			
0.3659	23416.31	3.8840	3.8841	1.1765	7.63	1.51	0.750			
0.3694	23641.19	3.8810	3.8811	1.1856	7.62	1.50	0.750			
0.3730	23869.35	3.8780	3.8781	1.1970	7.60	1.48	0.750			
0.3765	24096.60	3.8750	3.8749	1.2099	7.60	1.48	0.750			
0.3802	24330.33	3.8720	3.8720	1.2316	7.59	1.47	0.750			
0.3839	24569.93	3.8690	3.8691	1.2499	7.58	1.46	0.750			
0.3876	24809.01	3.8660	3.8661	1.2828	7.56	1.44	0.750			
0.3915	25057.34	3.8630	3.8630	1.3157	7.55	1.43	0.750			
0.3955	25314.69	3.8600	3.8600	1.3350	7.53	1.41	0.750	0.379	0.888	
0.3996	25577.53	3.8570	3.8570	1.3543	7.51	1.39	0.750			
0.4037	25838.61	3.8540	3.8542	1.3796	7.50	1.38	0.750			
0.4080	26109.31	3.8510	3.8508	1.4005	7.48	1.36	0.750			
0.4122	26377.75	3.8480	3.8481	1.4068	7.46	1.34	0.750			
0.4164	26649.26	3.8450	3.8449	1.4295	7.45	1.33	0.750			
0.4208	26928.66	3.8420	3.8420	1.4448	7.43	1.31	0.750			
0.4251	27206.35	3.8390	3.8389	1.4679	7.42	1.30	0.750			
0.4295	27488.71	3.8360	3.8362	1.4965	7.40	1.28	0.750			
0.4340	27774.03	3.8330	3.8331	1.5356	7.39	1.27	0.750			
0.4387	28076.20	3.8300	3.8299	1.5711	7.37	1.25	0.750			
0.4434	28379.81	3.8270	3.8270	1.6044	7.35	1.23	0.750			
0.4484	28694.49	3.8240	3.8242	1.6136	7.33	1.21	0.750			
0.4533	29008.83	3.8210	3.8211	1.6571	7.31	1.19	0.750			
0.4583	29329.67	3.8180	3.8180	1.6601	7.29	1.17	0.750			
0.4632	29644.74	3.8150	3.8151	1.6832	7.27	1.15	0.750			
0.4682	29965.25	3.8120	3.8121	1.7419	7.25	1.13	0.750			
0.4735	30305.52	3.8090	3.8088	1.7918	7.23	1.11	0.750			
0.4790	30656.63	3.8060	3.8059	1.8279	7.21	1.09	0.750			
0.4847	31021.61	3.8030	3.8031	1.8493	7.18	1.06	0.750			
0.4904	31384.05	3.8000	3.8000	1.8852	7.16	1.04	0.750			
0.4960	31741.09	3.7970	3.7973	1.8925	7.14	1.02	0.750			
0.5016	32099.52	3.7940	3.7939	1.8912	7.11	0.99	0.750			
0.5071	32453.78	3.7910	3.7910	1.9735	7.09	0.97	0.750			
0.5132	32842.95	3.7880	3.7880	2.0149	7.06	0.94	0.750			
0.5195	33245.72	3.7850	3.7847	2.0401	7.04	0.92	0.750			
0.5257	33642.29	3.7820	3.7824	2.0438	7.01	0.89	0.750			
0.5317	34031.59	3.7790	3.7790	2.0575	6.98	0.86	0.750			
0.5380	34429.28	3.7760	3.7758	2.0884	6.95	0.83	0.750			
0.5440	34816.87	3.7730	3.7729	2.1201	6.93	0.81	0.750			
0.5507	35244.23	3.7700	3.7700	2.1913	6.90	0.78	0.750			
0.5574	35674.18	3.7670	3.7670	2.2594	6.86	0.74	0.750			
0.5642	36107.69	3.7640	3.7642	2.2692	6.84	0.72	0.750			
0.5711	36548.33	3.7610	3.7607	2.3380	6.81	0.69	0.750			
0.5781	36997.88	3.7580	3.7579	2.3992	6.77	0.65	0.750			
0.5854	37462.72	3.7550	3.7551	2.4779	6.74	0.62	0.750			
0.5928	37939.80	3.7520	3.7521	2.5602	6.71	0.59	0.750			
0.6007	38443.45	3.7490	3.7489	2.6850	6.68	0.56	0.750			
0.6090	38974.12	3.7460	3.7460	2.8215	6.65	0.53	0.750			
0.6177	39532.21	3.7430	3.7429	3.0093	6.61	0.49	0.750			
0.6269	40122.50	3.7400	3.7400	3.1166	6.57	0.45	0.750			
0.6365	40736.96	3.7370	3.7371	3.2033	6.53	0.41	0.750			
0.6463	41362.97	3.7340	3.7340	3.1986	6.49	0.37	0.750			
0.6559	41978.18	3.7310	3.7310	3.0741	6.46	0.34	0.750			
0.6650	42559.15	3.7280	3.7278	2.8101	6.42	0.30	0.750			
0.6728	43058.86	3.7250	3.7251	2.5427	6.40	0.28	0.750			
0.6801	43526.62	3.7220	3.7218	2.2742	6.38	0.26	0.750			
0.6865	43938.34	3.7190	3.7190	2.0528	6.36	0.24	0.750			
0.6924	44311.27	3.7160	3.7163	1.8333	6.34	0.22	0.750			
0.6974	44634.77	3.7130	3.7129	1.6417	6.32	0.20	0.750			
0.7018	44917.39	3.7100	3.7101	1.4692	6.31	0.19	0.750			
0.7059	45175.80	3.7070	3.7072	1.3436	6.30	0.18	0.750			
0.7097	45421.16	3.7040	3.7040	1.2602	6.29	0.17	0.750			
0.7133	45653.56	3.7010	3.7010	1.1932	6.28	0.16	0.750			
0.7167	45871.29	3.6980	3.6980	1.1445	6.27	0.15	0.750			
0.7201	46085.53	3.6950	3.6949	1.1093	6.26	0.14	0.750			
0.7233	46292.48	3.6920	3.6919	1.0714	6.25	0.13	0.750			
0.7265	46494.08	3.6890	3.6891	1.0598	6.24	0.12	0.750			
0.7296	46693.57	3.6860	3.6861	1.0457	6.23	0.11	0.750			
0.7328	46896.52	3.6830	3.6828	1.0353	6.22	0.10	0.750			
0.7359	47095.72	3.6800	3.6800	1.0071	6.21	0.09	0.750			
0.7389	47288.14	3.6770	3.6771	0.9894	6.21	0.09	0.750			
0.7418	47476.10	3.6740	3.6742	0.9726	6.20	0.08	0.750			
0.7447	47657.72	3.6710	3.6709	0.9483	6.19	0.07	0.750			
0.7475	47837.10	3.6680	3.6681	0.9276	6.18	0.06	0.750			
0.7502	48012.47	3.6650	3.6650	0.9114	6.18	0.06	0.750			
0.7529	48185.85	3.6620	3.6621	0.9119	6.17	0.05	0.750			
0.7556	48361.48	3.6590	3.6590	0.9176	6.16	0.04	0.750			
0.7584	48534.95	3.6560	3.6559	0.9116	6.15	0.03	0.750			
0.7611	48710.56	3.6530	3.6530	0.9105	6.15	0.03	0.750			
0.7638	48881.81	3.6500	3.6501	0.9275	6.14	0.02	0.750			
0.7666	49063.28	3.6470	3.6471	0.9458	6.14	0.02	0.750			
0.7695	49245.58	3.6440	3.6439	0.9572	6.13	0.01	0.750			
0.7724	49431.18	3.6410	3.6410	0.9558	6.13	0.01	0.750			
0.7754	49622.51	3.6380	3.6381	0.9319	6.13	0.01	0.750			
0.7783	49808.03	3.6350	3.6351	0.8851	6.12	0.00	0.750			
0.7810	49982.62	3.6320	3.6321	0.8168	6.12	0.00	0.750			
0.7833	50131.25	3.6290	3.6288	0.7066	6.12	-0.00	0.750			
0.7853	50260.20	3.6260	3.6261	0.6016	6.12	-0.00	0.750			
0.7869	50363.08	3.6230	3.6231	0.4899	6.12	-0.00	0.750			
0.7880	50434.65	3.6200	3.6203	0.4153	6.12	-0.00	0.750			
0.7891	50503.09	3.6170	3.6170	0.3218	6.12	-0.00	0.750			
0.7899	50554.52	3.6140	3.6136	0.2487	6.11	-0.01	0.750			
0.7904	50588.70	3.6110	3.6102	0.1785	6.11	-0.01	0.750			
0.7909	50615.37	3.6080	3.5942	0.1254	6.11	-0.01	0.750			
0.7909	50619.37	3.5930	3.5563	-0.1011	6.11	-0.01	0.748			
0.7911	50629.44	3.6050	3.4381	0.0749	6.11	-0.01	0.739			
0.7912	50634.56	3.5960	3.3780	-0.0571	6.11	-0.01	0.734			
0.7912	50639.60	3.6020	3.3189	0.0309	6.11	-0.01	0.729			
0.7913	50641.30	3.5990	3.2988	-0.0131	6.11	-0.01	0.728			
