Ah_balance (normalized)	Ah_balance (mAh)	Voltage - fit (V)	Voltage -  interpolate (V)	dQ/dV (1/V)	Temperature (°C)	Temperature - diff (°C)	Current (C)	R_DC 0ms (mOhm)	R_DC 50ms (mOhm)	R_DC 50 ms PEC (mOhm)
0.0003	20.29	4.1070	4.1064	-0.0759	6.00	0.00	-0.750			
0.0006	39.64	4.1040	4.1036	-0.1094	6.00	0.00	-0.750			
0.0010	64.70	4.1010	4.1008	-0.1358	6.00	0.00	-0.750			
0.0015	93.14	4.0980	4.0980	-0.1605	6.00	0.00	-0.750			
0.0020	126.43	4.0950	4.0952	-0.1825	6.00	0.00	-0.750			
0.0026	165.45	4.0920	4.0920	-0.2064	6.00	-0.00	-0.750			
0.0032	206.66	4.0890	4.0890	-0.2269	6.00	-0.00	-0.750			
0.0039	251.58	4.0860	4.0859	-0.2486	6.00	-0.00	-0.750			
0.0047	300.69	4.0830	4.0831	-0.2710	6.00	-0.00	-0.750			
0.0055	354.95	4.0800	4.0800	-0.2953	6.00	-0.00	-0.750			
0.0065	413.73	4.0770	4.0770	-0.3208	6.00	-0.00	-0.750			
0.0075	477.88	4.0740	4.0740	-0.3452	6.00	-0.00	-0.750			
0.0085	546.81	4.0710	4.0710	-0.3682	5.99	-0.01	-0.750			
0.0097	618.98	4.0680	4.0681	-0.3976	5.99	-0.01	-0.750			
0.0109	698.24	4.0650	4.0650	-0.4242	5.99	-0.01	-0.750			
0.0122	782.21	4.0620	4.0619	-0.4499	5.99	-0.01	-0.750			
0.0136	872.11	4.0590	4.0589	-0.4724	5.99	-0.01	-0.750			
0.0151	966.47	4.0560	4.0561	-0.4929	5.99	-0.01	-0.750			
0.0166	1063.27	4.0530	4.0530	-0.5134	5.99	-0.01	-0.750			
0.0182	1164.72	4.0500	4.0500	-0.5293	5.99	-0.01	-0.750			
0.0198	1266.57	4.0470	4.0470	-0.5392	5.99	-0.01	-0.750			
0.0214	1371.82	4.0440	4.0439	-0.5571	6.00	-0.00	-0.750			
0.0231	1480.87	4.0410	4.0412	-0.5696	6.00	-0.00	-0.750			
0.0249	1591.26	4.0380	4.0380	-0.5841	6.00	-0.00	-0.750			
0.0266	1704.75	4.0350	4.0350	-0.5998	6.00	-0.00	-0.750			
0.0284	1820.21	4.0320	4.0321	-0.6146	6.00	0.00	-0.750			
0.0303	1939.43	4.0290	4.0289	-0.6342	6.01	0.01	-0.750			
0.0322	2061.61	4.0260	4.0261	-0.6582	6.01	0.01	-0.750			
0.0343	2192.74	4.0230	4.0229	-0.6685	6.01	0.01	-0.750			
0.0363	2325.08	4.0200	4.0199	-0.6857	6.01	0.01	-0.750			
0.0384	2457.17	4.0170	4.0171	-0.6972	6.02	0.02	-0.750			
0.0405	2593.14	4.0140	4.0139	-0.7032	6.02	0.02	-0.750			
0.0426	2728.77	4.0110	4.0108	-0.7062	6.03	0.03	-0.750			
0.0447	2863.69	4.0080	4.0081	-0.7095	6.03	0.03	-0.750			
0.0469	2999.96	4.0050	4.0051	-0.7152	6.04	0.04	-0.750			
0.0491	3140.12	4.0020	4.0019	-0.7251	6.04	0.04	-0.750			
0.0512	3277.00	3.9990	3.9991	-0.7284	6.05	0.05	-0.750			
0.0534	3419.37	3.9960	3.9958	-0.7271	6.05	0.05	-0.750			
0.0557	3561.82	3.9930	3.9930	-0.7346	6.06	0.06	-0.750			
0.0579	3702.51	3.9900	3.9900	-0.7365	6.06	0.06	-0.750			
0.0601	3843.65	3.9870	3.9872	-0.7316	6.07	0.07	-0.750			
0.0623	3985.37	3.9840	3.9837	-0.7313	6.07	0.07	-0.750			
0.0645	4124.91	3.9810	3.9812	-0.7294	6.08	0.08	-0.750			
0.0666	4262.00	3.9780	3.9780	-0.7331	6.09	0.09	-0.750			
0.0688	4404.99	3.9750	3.9749	-0.7430	6.09	0.09	-0.750			
0.0711	4548.71	3.9720	3.9719	-0.7459	6.10	0.10	-0.750			
0.0733	4694.32	3.9690	3.9690	-0.7573	6.11	0.11	-0.750			
0.0756	4841.06	3.9660	3.9660	-0.7614	6.12	0.12	-0.750			
0.0779	4987.95	3.9630	3.9630	-0.7620	6.12	0.12	-0.750			
0.0802	5134.20	3.9600	3.9599	-0.7621	6.13	0.13	-0.750			
0.0825	5278.63	3.9570	3.9571	-0.7656	6.14	0.14	-0.750			
0.0847	5423.40	3.9540	3.9540	-0.7703	6.15	0.15	-0.750			
0.0871	5575.95	3.9510	3.9510	-0.7802	6.16	0.16	-0.750			
0.0895	5725.28	3.9480	3.9480	-0.7830	6.17	0.17	-0.750			
0.0918	5877.41	3.9450	3.9451	-0.7826	6.18	0.18	-0.750			
0.0942	6030.20	3.9420	3.9421	-0.7865	6.18	0.18	-0.750			
0.0966	6181.84	3.9390	3.9389	-0.7790	6.19	0.19	-0.750			
0.0989	6328.93	3.9360	3.9360	-0.7770	6.20	0.20	-0.750			
0.1012	6476.61	3.9330	3.9331	-0.7742	6.21	0.21	-0.750			
0.1035	6624.33	3.9300	3.9299	-0.7810	6.21	0.21	-0.750			
0.1058	6772.76	3.9270	3.9269	-0.7894	6.22	0.22	-0.750			
0.1082	6927.25	3.9240	3.9241	-0.7944	6.23	0.23	-0.750			
0.1106	7080.05	3.9210	3.9210	-0.7988	6.24	0.24	-0.750			
0.1131	7238.59	3.9180	3.9180	-0.8058	6.25	0.25	-0.750			
0.1155	7392.81	3.9150	3.9151	-0.7990	6.25	0.25	-0.750			
0.1179	7543.71	3.9120	3.9120	-0.8043	6.26	0.26	-0.750			
0.1203	7698.23	3.9090	3.9089	-0.7976	6.27	0.27	-0.750			
0.1227	7851.13	3.9060	3.9060	-0.7888	6.28	0.28	-0.750			
0.1251	8003.31	3.9030	3.9030	-0.7918	6.29	0.29	-0.750			
0.1274	8153.92	3.9000	3.9003	-0.7957	6.30	0.30	-0.750			
0.1298	8306.79	3.8970	3.8968	-0.8007	6.31	0.31	-0.750			
0.1322	8460.12	3.8940	3.8939	-0.8004	6.32	0.32	-0.750			
0.1346	8612.37	3.8910	3.8911	-0.8067	6.32	0.32	-0.750			
0.1371	8771.87	3.8880	3.8880	-0.8164	6.33	0.33	-0.750			
0.1395	8929.13	3.8850	3.8849	-0.8143	6.34	0.34	-0.750			
0.1419	9082.63	3.8820	3.8820	-0.8192	6.35	0.35	-0.750			
0.1444	9240.30	3.8790	3.8790	-0.8256	6.36	0.36	-0.750			
0.1469	9399.92	3.8760	3.8759	-0.8315	6.37	0.37	-0.750			
0.1494	9560.96	3.8730	3.8730	-0.8355	6.38	0.38	-0.750			
0.1519	9722.05	3.8700	3.8701	-0.8333	6.39	0.39	-0.750			
0.1544	9883.21	3.8670	3.8670	-0.8314	6.40	0.40	-0.750			
0.1569	10043.29	3.8640	3.8639	-0.8292	6.41	0.41	-0.750			
0.1594	10201.02	3.8610	3.8610	-0.8204	6.41	0.41	-0.750			
0.1618	10358.12	3.8580	3.8578	-0.8174	6.42	0.42	-0.750			
0.1643	10514.11	3.8550	3.8551	-0.8199	6.43	0.43	-0.750			
0.1667	10671.67	3.8520	3.8519	-0.8194	6.44	0.44	-0.750			
0.1692	10829.14	3.8490	3.8490	-0.8261	6.44	0.44	-0.750			
0.1717	10987.40	3.8460	3.8459	-0.8299	6.45	0.45	-0.750			
0.1742	11146.36	3.8430	3.8431	-0.8309	6.46	0.46	-0.750			
0.1767	11307.98	3.8400	3.8401	-0.8380	6.47	0.47	-0.750			
0.1792	11467.90	3.8370	3.8370	-0.8420	6.48	0.48	-0.750			
0.1817	11627.77	3.8340	3.8340	-0.8458	6.49	0.49	-0.750			
0.1842	11791.88	3.8310	3.8310	-0.8552	6.50	0.50	-0.750			
0.1868	11956.31	3.8280	3.8280	-0.8561	6.51	0.51	-0.750			
0.1894	12123.37	3.8250	3.8249	-0.8619	6.52	0.52	-0.750			
0.1920	12290.72	3.8220	3.8221	-0.8594	6.53	0.53	-0.750			
0.1946	12455.77	3.8190	3.8189	-0.8558	6.54	0.54	-0.750			
0.1972	12619.99	3.8160	3.8161	-0.8505	6.54	0.54	-0.750			
0.1997	12782.03	3.8130	3.8129	-0.8474	6.55	0.55	-0.750			
0.2022	12943.21	3.8100	3.8101	-0.8448	6.56	0.56	-0.750			
0.2047	13103.82	3.8070	3.8070	-0.8501	6.57	0.57	-0.750			
0.2073	13266.62	3.8040	3.8039	-0.8510	6.57	0.57	-0.750			
0.2098	13430.29	3.8010	3.8010	-0.8591	6.58	0.58	-0.750			
0.2124	13595.37	3.7980	3.7979	-0.8633	6.58	0.58	-0.750			
0.2150	13762.15	3.7950	3.7952	-0.8706	6.59	0.59	-0.750			
0.2176	13929.26	3.7920	3.7920	-0.8790	6.60	0.60	-0.750			
0.2203	14102.14	3.7890	3.7889	-0.8739	6.61	0.61	-0.750			
0.2230	14270.90	3.7860	3.7860	-0.8677	6.62	0.62	-0.750			
0.2256	14436.50	3.7830	3.7830	-0.8677	6.63	0.63	-0.750			
0.2281	14600.36	3.7800	3.7801	-0.8657	6.64	0.64	-0.750			
0.2307	14765.51	3.7770	3.7768	-0.8665	6.65	0.65	-0.750			
0.2333	14930.37	3.7740	3.7738	-0.8703	6.65	0.65	-0.750			
0.2359	15097.21	3.7710	3.7711	-0.8767	6.66	0.66	-0.750			
0.2386	15269.20	3.7680	3.7679	-0.8889	6.67	0.67	-0.750			
0.2413	15441.85	3.7650	3.7648	-0.8955	6.68	0.68	-0.750			
0.2440	15615.11	3.7620	3.7620	-0.8915	6.69	0.69	-0.750			
0.2466	15785.18	3.7590	3.7590	-0.8906	6.70	0.70	-0.750			
0.2493	15955.38	3.7560	3.7561	-0.8895	6.71	0.71	-0.750			
0.2520	16128.09	3.7530	3.7531	-0.8858	6.72	0.72	-0.750			
0.2546	16294.97	3.7500	3.7500	-0.8964	6.73	0.73	-0.750			
0.2573	16468.31	3.7470	3.7470	-0.8977	6.74	0.74	-0.750			
0.2600	16642.41	3.7440	3.7439	-0.8976	6.75	0.75	-0.750			
0.2628	16817.79	3.7410	3.7410	-0.9068	6.75	0.75	-0.750			
0.2655	16990.67	3.7380	3.7382	-0.9021	6.76	0.76	-0.750			
0.2682	17162.84	3.7350	3.7349	-0.9128	6.77	0.77	-0.750			
0.2709	17338.74	3.7320	3.7319	-0.9169	6.77	0.77	-0.750			
0.2736	17512.91	3.7290	3.7289	-0.9101	6.77	0.77	-0.750			
0.2764	17690.84	3.7260	3.7262	-0.9194	6.78	0.78	-0.750			
0.2792	17868.51	3.7230	3.7230	-0.9263	6.79	0.79	-0.750			
0.2819	18044.49	3.7200	3.7199	-0.9258	6.80	0.80	-0.750			
0.2847	18222.40	3.7170	3.7170	-0.9206	6.80	0.80	-0.750			
0.2875	18397.83	3.7140	3.7139	-0.9173	6.81	0.81	-0.750			
0.2903	18576.96	3.7110	3.7112	-0.9239	6.82	0.82	-0.750			
0.2930	18754.34	3.7080	3.7079	-0.9281	6.83	0.83	-0.750			
0.2958	18929.58	3.7050	3.7050	-0.9310	6.83	0.83	-0.750			
0.2986	19108.71	3.7020	3.7019	-0.9355	6.84	0.84	-0.750			
0.3014	19288.20	3.6990	3.6991	-0.9443	6.85	0.85	-0.750			
0.3042	19470.94	3.6960	3.6960	-0.9600	6.86	0.86	-0.750			
0.3071	19657.39	3.6930	3.6930	-0.9682	6.86	0.86	-0.750			
0.3101	19844.57	3.6900	3.6899	-0.9719	6.87	0.87	-0.750			
0.3130	20030.41	3.6870	3.6869	-0.9795	6.88	0.88	-0.750			
0.3159	20219.40	3.6840	3.6841	-0.9879	6.88	0.88	-0.750			
0.3189	20410.51	3.6810	3.6809	-1.0025	6.89	0.89	-0.750			
0.3219	20602.83	3.6780	3.6779	-1.0087	6.90	0.90	-0.750			
0.3250	20797.11	3.6750	3.6750	-1.0115	6.90	0.90	-0.750			
0.3280	20994.68	3.6720	3.6720	-1.0273	6.91	0.91	-0.750			
0.3312	21194.72	3.6690	3.6691	-1.0346	6.92	0.92	-0.750			
0.3343	21393.33	3.6660	3.6660	-1.0362	6.92	0.92	-0.750			
0.3374	21591.07	3.6630	3.6630	-1.0395	6.93	0.93	-0.750			
0.3405	21792.05	3.6600	3.6600	-1.0465	6.93	0.93	-0.750			
0.3436	21991.96	3.6570	3.6571	-1.0550	6.94	0.94	-0.750			
0.3468	22195.48	3.6540	3.6540	-1.0613	6.95	0.95	-0.750			
0.3500	22399.70	3.6510	3.6509	-1.0743	6.96	0.96	-0.750			
0.3532	22606.60	3.6480	3.6480	-1.0859	6.96	0.96	-0.750			
0.3565	22816.45	3.6450	3.6451	-1.0955	6.97	0.97	-0.750			
0.3598	23029.59	3.6420	3.6420	-1.1011	6.98	0.98	-0.750			
0.3631	23240.37	3.6390	3.6389	-1.1202	6.99	0.99	-0.750			
0.3665	23457.04	3.6360	3.6360	-1.1354	6.99	0.99	-0.750			
0.3700	23676.99	3.6330	3.6329	-1.1471	7.00	1.00	-0.750			
0.3734	23898.80	3.6300	3.6301	-1.1524	7.00	1.00	-0.750			
0.3769	24123.30	3.6270	3.6271	-1.1664	7.01	1.01	-0.750			
0.3804	24348.01	3.6240	3.6239	-1.1791	7.02	1.02	-0.750			
0.3840	24574.55	3.6210	3.6210	-1.1883	7.03	1.03	-0.750			
0.3875	24800.76	3.6180	3.6179	-1.1926	7.04	1.04	-0.750			
0.3911	25032.13	3.6150	3.6150	-1.2033	7.04	1.04	-0.750			
0.3948	25266.61	3.6120	3.6120	-1.2205	7.05	1.05	-0.750			
0.3984	25500.77	3.6090	3.6090	-1.2350	7.05	1.05	-0.750			
0.4021	25737.02	3.6060	3.6062	-1.2541	7.06	1.06	-0.750			
0.4059	25980.55	3.6030	3.6034	-1.2742	7.07	1.07	-0.750	0.439	0.985	
0.4098	26229.17	3.6000	3.6000	-1.2828	7.07	1.07	-0.750			
0.4137	26477.34	3.5970	3.5971	-1.2987	7.08	1.08	-0.750			
0.4177	26730.22	3.5940	3.5940	-1.3058	7.08	1.08	-0.750			
0.4216	26981.95	3.5910	3.5908	-1.3104	7.09	1.09	-0.750			
0.4254	27228.64	3.5880	3.5880	-1.3341	7.10	1.10	-0.750			
0.4294	27484.40	3.5850	3.5851	-1.3438	7.10	1.10	-0.750			
0.4335	27745.93	3.5820	3.5818	-1.3704	7.11	1.11	-0.750			
0.4377	28012.71	3.5790	3.5790	-1.3973	7.11	1.11	-0.750			
0.4419	28282.96	3.5760	3.5759	-1.4102	7.12	1.12	-0.750			
0.4462	28558.37	3.5730	3.5729	-1.4178	7.13	1.13	-0.750			
0.4505	28833.48	3.5700	3.5700	-1.4251	7.14	1.14	-0.750			
0.4548	29104.81	3.5670	3.5670	-1.4227	7.14	1.14	-0.750			
0.4591	29380.09	3.5640	3.5637	-1.4393	7.15	1.15	-0.750			
0.4633	29648.04	3.5610	3.5613	-1.4591	7.16	1.16	-0.750			
0.4677	29930.88	3.5580	3.5579	-1.4733	7.16	1.16	-0.750			
0.4722	30220.79	3.5550	3.5549	-1.5081	7.17	1.17	-0.750			
0.4769	30518.74	3.5520	3.5519	-1.5228	7.17	1.17	-0.750			
0.4814	30809.88	3.5490	3.5492	-1.5380	7.18	1.18	-0.750			
0.4861	31109.13	3.5460	3.5459	-1.5590	7.18	1.18	-0.750			
0.4908	31409.49	3.5430	3.5430	-1.5596	7.19	1.19	-0.750			
0.4954	31705.48	3.5400	3.5398	-1.5487	7.20	1.20	-0.750			
0.5001	32008.28	3.5370	3.5371	-1.5684	7.22	1.22	-0.750			
0.5048	32304.61	3.5340	3.5341	-1.5740	7.22	1.22	-0.750			
0.5096	32613.76	3.5310	3.5309	-1.5920	7.23	1.23	-0.750			
0.5143	32914.42	3.5280	3.5281	-1.5912	7.24	1.24	-0.750			
0.5191	33223.32	3.5250	3.5249	-1.6048	7.25	1.25	-0.750			
0.5240	33536.68	3.5220	3.5222	-1.6182	7.26	1.26	-0.750			
0.5289	33851.60	3.5190	3.5189	-1.6305	7.26	1.26	-0.750			
0.5338	34162.20	3.5160	3.5160	-1.6350	7.27	1.27	-0.750			
0.5387	34480.00	3.5130	3.5131	-1.6300	7.28	1.28	-0.750			
0.5436	34792.06	3.5100	3.5100	-1.6306	7.29	1.29	-0.750			
0.5486	35107.40	3.5070	3.5068	-1.6323	7.30	1.30	-0.750			
0.5534	35420.49	3.5040	3.5040	-1.6214	7.31	1.31	-0.750			
0.5583	35729.92	3.5010	3.5008	-1.6129	7.32	1.32	-0.750			
0.5631	36037.34	3.4980	3.4980	-1.6093	7.33	1.33	-0.750			
0.5679	36347.71	3.4950	3.4949	-1.6164	7.34	1.34	-0.750			
0.5728	36661.27	3.4920	3.4920	-1.6096	7.35	1.35	-0.750			
0.5777	36971.71	3.4890	3.4891	-1.5906	7.36	1.36	-0.750			
0.5825	37277.19	3.4860	3.4862	-1.5789	7.37	1.37	-0.750			
0.5872	37579.78	3.4830	3.4830	-1.5732	7.38	1.38	-0.750			
0.5918	37876.20	3.4800	3.4798	-1.5690	7.40	1.40	-0.750			
0.5965	38173.77	3.4770	3.4770	-1.5670	7.41	1.41	-0.750			
0.6011	38473.20	3.4740	3.4739	-1.5786	7.42	1.42	-0.750			
0.6060	38784.90	3.4710	3.4710	-1.5797	7.43	1.43	-0.750			
0.6108	39093.57	3.4680	3.4679	-1.5639	7.45	1.45	-0.750			
0.6155	39394.28	3.4650	3.4651	-1.5335	7.46	1.46	-0.750			
0.6200	39683.05	3.4620	3.4619	-1.4967	7.47	1.47	-0.750			
0.6244	39964.48	3.4590	3.4591	-1.4788	7.48	1.48	-0.750			
0.6288	40245.72	3.4560	3.4559	-1.4524	7.50	1.50	-0.750			
0.6332	40525.57	3.4530	3.4529	-1.4269	7.51	1.51	-0.750			
0.6374	40796.76	3.4500	3.4500	-1.4240	7.52	1.52	-0.750			
0.6417	41070.10	3.4470	3.4470	-1.4049	7.54	1.54	-0.750			
0.6459	41339.57	3.4440	3.4438	-1.3886	7.55	1.55	-0.750			
0.6500	41598.05	3.4410	3.4412	-1.3780	7.56	1.56	-0.750			
0.6541	41864.94	3.4380	3.4380	-1.3494	7.58	1.58	-0.750			
0.6582	42127.97	3.4350	3.4349	-1.3308	7.59	1.59	-0.750			
0.6623	42384.69	3.4320	3.4319	-1.2970	7.61	1.61	-0.750			
0.6661	42627.51	3.4290	3.4290	-1.2585	7.63	1.63	-0.750			
0.6698	42865.27	3.4260	3.4259	-1.2314	7.64	1.64	-0.750			
0.6733	43094.29	3.4230	3.4229	-1.1954	7.66	1.66	-0.750			
0.6768	43317.06	3.4200	3.4202	-1.1626	7.67	1.67	-0.750			
0.6804	43544.75	3.4170	3.4169	-1.1522	7.68	1.68	-0.750			
0.6838	43766.25	3.4140	3.4140	-1.1140	7.69	1.69	-0.750			
0.6871	43977.28	3.4110	3.4110	-1.0809	7.70	1.70	-0.750			
0.6903	44181.72	3.4080	3.4081	-1.0526	7.71	1.71	-0.750			
0.6934	44377.86	3.4050	3.4049	-1.0179	7.73	1.73	-0.750			
0.6964	44569.52	3.4020	3.4019	-0.9818	7.74	1.74	-0.750			
0.6993	44754.73	3.3990	3.3990	-0.9546	7.76	1.76	-0.750			
0.7021	44935.49	3.3960	3.3962	-0.9336	7.77	1.77	-0.750			
0.7049	45112.94	3.3930	3.3929	-0.9114	7.78	1.78	-0.750			
0.7076	45283.49	3.3900	3.3899	-0.8812	7.80	1.80	-0.750			
0.7102	45450.67	3.3870	3.3870	-0.8569	7.81	1.81	-0.750			
0.7127	45614.81	3.3840	3.3840	-0.8353	7.82	1.82	-0.750			
0.7152	45773.61	3.3810	3.3810	-0.8055	7.83	1.83	-0.750			
0.7176	45923.89	3.3780	3.3780	-0.7733	7.85	1.85	-0.750			
0.7198	46067.59	3.3750	3.3751	-0.7521	7.86	1.86	-0.750			
0.7220	46208.80	3.3720	3.3719	-0.7290	7.87	1.87	-0.750			
0.7242	46347.84	3.3690	3.3689	-0.7092	7.88	1.88	-0.750			
0.7263	46482.31	3.3660	3.3660	-0.6857	7.90	1.90	-0.750			
0.7283	46612.22	3.3630	3.3630	-0.6682	7.91	1.91	-0.750			
0.7303	46738.92	3.3600	3.3600	-0.6479	7.92	1.92	-0.750			
0.7322	46860.00	3.3570	3.3570	-0.6243	7.93	1.93	-0.750			
0.7340	46976.35	3.3540	3.3539	-0.6035	7.94	1.94	-0.750			
0.7358	47091.39	3.3510	3.3511	-0.5890	7.95	1.95	-0.750			
0.7376	47203.25	3.3480	3.3480	-0.5706	7.96	1.96	-0.750			
0.7393	47312.09	3.3450	3.3449	-0.5522	7.97	1.97	-0.750			
0.7409	47415.04	3.3420	3.3420	-0.5329	7.98	1.98	-0.750			
0.7424	47514.86	3.3390	3.3389	-0.5152	7.99	1.99	-0.750			
0.7439	47611.86	3.3360	3.3360	-0.5041	8.00	2.00	-0.750			
0.7454	47706.67	3.3330	3.3331	-0.4905	8.01	2.01	-0.750			
0.7469	47799.45	3.3300	3.3299	-0.4782	8.02	2.02	-0.750			
0.7483	47891.10	3.3270	3.3270	-0.4664	8.03	2.03	-0.750			
0.7497	47979.68	3.3240	3.3240	-0.4540	8.04	2.04	-0.750			
0.7510	48064.85	3.3210	3.3210	-0.4409	8.05	2.05	-0.750			
0.7523	48147.89	3.3180	3.3181	-0.4318	8.06	2.06	-0.750			
0.7536	48229.35	3.3150	3.3149	-0.4202	8.07	2.07	-0.750			
0.7548	48309.99	3.3120	3.3120	-0.4086	8.08	2.08	-0.750			
0.7561	48387.48	3.3090	3.3091	-0.3976	8.09	2.09	-0.750			
0.7572	48462.64	3.3060	3.3061	-0.3899	8.10	2.10	-0.750			
0.7584	48536.20	3.3030	3.3029	-0.3794	8.11	2.11	-0.750			
0.7595	48607.43	3.3000	3.2999	-0.3676	8.12	2.12	-0.750			
0.7606	48676.53	3.2970	3.2970	-0.3602	8.13	2.13	-0.750			
0.7617	48745.61	3.2940	3.2941	-0.3557	8.14	2.14	-0.750			
0.7627	48814.00	3.2910	3.2910	-0.3460	8.15	2.15	-0.750			
0.7637	48879.12	3.2880	3.2878	-0.3367	8.15	2.15	-0.750			
0.7647	48942.70	3.2850	3.2852	-0.3277	8.16	2.16	-0.750			
0.7657	49004.89	3.2820	3.2821	-0.3207	8.17	2.17	-0.750			
0.7667	49065.75	3.2790	3.2789	-0.3125	8.18	2.18	-0.750			
0.7676	49124.14	3.2760	3.2760	-0.3033	8.19	2.19	-0.750			
0.7685	49181.60	3.2730	3.2730	-0.2978	8.20	2.20	-0.750			
0.7694	49238.58	3.2700	3.2700	-0.2932	8.20	2.20	-0.750			
0.7702	49294.26	3.2670	3.2669	-0.2870	8.21	2.21	-0.750			
0.7711	49348.86	3.2640	3.2640	-0.2827	8.22	2.22	-0.750			
0.7719	49402.76	3.2610	3.2610	-0.2771	8.23	2.23	-0.750			
0.7727	49455.84	3.2580	3.2580	-0.2721	8.23	2.23	-0.750			
0.7736	49507.69	3.2550	3.2549	-0.2662	8.24	2.24	-0.750			
0.7743	49558.39	3.2520	3.2520	-0.2605	8.25	2.25	-0.750			
0.7751	49607.79	3.2490	3.2490	-0.2542	8.26	2.26	-0.750			
0.7759	49655.68	3.2460	3.2460	-0.2491	8.26	2.26	-0.750			
0.7766	49702.86	3.2430	3.2430	-0.2456	8.27	2.27	-0.750			
0.7773	49748.87	3.2400	3.2400	-0.2411	8.27	2.27	-0.750			
0.7780	49794.93	3.2370	3.2369	-0.2386	8.28	2.28	-0.750			
0.7788	49840.57	3.2340	3.2340	-0.2342	8.29	2.29	-0.750			
0.7795	49885.64	3.2310	3.2310	-0.2295	8.30	2.30	-0.750			
0.7802	49929.86	3.2280	3.2281	-0.2269	8.30	2.30	-0.750			
0.7808	49972.84	3.2250	3.2250	-0.2208	8.31	2.31	-0.750			
0.7815	50014.26	3.2220	3.2220	-0.2168	8.32	2.32	-0.750			
0.7821	50054.98	3.2190	3.2189	-0.2121	8.32	2.32	-0.750			
0.7827	50095.08	3.2160	3.2160	-0.2078	8.33	2.33	-0.750			
0.7834	50134.72	3.2130	3.2131	-0.2052	8.34	2.34	-0.750			
0.7840	50174.10	3.2100	3.2101	-0.2025	8.34	2.34	-0.750			
0.7846	50212.74	3.2070	3.2070	-0.2002	8.35	2.35	-0.750			
0.7852	50250.71	3.2040	3.2040	-0.1968	8.36	2.36	-0.750			
0.7858	50288.23	3.2010	3.2009	-0.1941	8.36	2.36	-0.750			
0.7863	50325.03	3.1980	3.1980	-0.1911	8.37	2.37	-0.750			
0.7869	50361.78	3.1950	3.1949	-0.1885	8.38	2.38	-0.750			
0.7875	50397.84	3.1920	3.1920	-0.1857	8.38	2.38	-0.750			
0.7880	50433.20	3.1890	3.1890	-0.1819	8.39	2.39	-0.750			
0.7886	50467.54	3.1860	3.1861	-0.1796	8.39	2.39	-0.750			
0.7891	50501.37	3.1830	3.1831	-0.1769	8.40	2.40	-0.750			
0.7896	50534.98	3.1800	3.1802	-0.1748	8.40	2.40	-0.750			
0.7901	50568.63	3.1770	3.1769	-0.1720	8.41	2.41	-0.750			
0.7906	50601.30	3.1740	3.1740	-0.1700	8.41	2.41	-0.750			
0.7912	50633.79	3.1710	3.1711	-0.1684	8.42	2.42	-0.750			
0.7917	50665.93	3.1680	3.1681	-0.1664	8.43	2.43	-0.750			
0.7922	50697.83	3.1650	3.1648	-0.1645	8.43	2.43	-0.750			
0.7926	50728.99	3.1620	3.1620	-0.1616	8.44	2.44	-0.750			
0.7931	50759.83	3.1590	3.1590	-0.1598	8.45	2.45	-0.750			
0.7936	50790.33	3.1560	3.1561	-0.1579	8.45	2.45	-0.750			
0.7941	50820.77	3.1530	3.1530	-0.1563	8.46	2.46	-0.750			
0.7945	50850.09	3.1500	3.1500	-0.1543	8.47	2.47	-0.750			
0.7950	50879.56	3.1470	3.1471	-0.1525	8.47	2.47	-0.750			
0.7954	50908.72	3.1440	3.1439	-0.1513	8.48	2.48	-0.750			
0.7959	50937.67	3.1410	3.1410	-0.1499	8.48	2.48	-0.750			
0.7964	50966.72	3.1380	3.1380	-0.1480	8.49	2.49	-0.750			
0.7968	50995.03	3.1350	3.1351	-0.1458	8.50	2.50	-0.750			
0.7972	51022.66	3.1320	3.1319	-0.1439	8.50	2.50	-0.750			
0.7977	51050.22	3.1290	3.1290	-0.1416	8.51	2.51	-0.750			
0.7981	51076.65	3.1260	3.1259	-0.1398	8.51	2.51	-0.750			
0.7985	51103.27	3.1230	3.1231	-0.1385	8.52	2.52	-0.750			
0.7989	51129.86	3.1200	3.1201	-0.1370	8.52	2.52	-0.750			
0.7993	51155.77	3.1170	3.1169	-0.1360	8.52	2.52	-0.750			
0.7997	51182.15	3.1140	3.1140	-0.1353	8.53	2.53	-0.750			
0.8001	51207.98	3.1110	3.1111	-0.1339	8.53	2.53	-0.750			
0.8005	51233.40	3.1080	3.1079	-0.1329	8.54	2.54	-0.750			
0.8009	51259.12	3.1050	3.1050	-0.1319	8.54	2.54	-0.750			
0.8013	51284.06	3.1020	3.1020	-0.1300	8.54	2.54	-0.750			
0.8017	51308.94	3.0990	3.0989	-0.1287	8.55	2.55	-0.750			
0.8021	51333.77	3.0960	3.0962	-0.1275	8.55	2.55	-0.750			
0.8025	51357.95	3.0930	3.0929	-0.1257	8.56	2.56	-0.750			
0.8028	51382.03	3.0900	3.0900	-0.1247	8.56	2.56	-0.750			
0.8032	51405.71	3.0870	3.0870	-0.1236	8.57	2.57	-0.750			
0.8036	51429.04	3.0840	3.0842	-0.1221	8.58	2.58	-0.750			
0.8039	51452.68	3.0810	3.0808	-0.1210	8.58	2.58	-0.750			
0.8043	51475.79	3.0780	3.0780	-0.1197	8.59	2.59	-0.750			
0.8047	51498.54	3.0750	3.0752	-0.1188	8.59	2.59	-0.750			
0.8050	51521.28	3.0720	3.0720	-0.1178	8.60	2.60	-0.750			
0.8054	51543.85	3.0690	3.0690	-0.1166	8.61	2.61	-0.750			
0.8057	51566.08	3.0660	3.0659	-0.1153	8.61	2.61	-0.750			
0.8061	51587.93	3.0630	3.0631	-0.1149	8.62	2.62	-0.750			
0.8064	51609.71	3.0600	3.0601	-0.1140	8.62	2.62	-0.750			
0.8067	51631.71	3.0570	3.0570	-0.1130	8.63	2.63	-0.750			
0.8071	51653.55	3.0540	3.0539	-0.1125	8.64	2.64	-0.750			
0.8074	51675.05	3.0510	3.0510	-0.1114	8.64	2.64	-0.750			
0.8078	51696.26	3.0480	3.0481	-0.1103	8.65	2.65	-0.750			
0.8081	51717.34	3.0450	3.0449	-0.1095	8.65	2.65	-0.750			
0.8084	51738.49	3.0420	3.0420	-0.1088	8.66	2.66	-0.750			
0.8087	51759.22	3.0390	3.0390	-0.1078	8.66	2.66	-0.750			
0.8091	51779.53	3.0360	3.0360	-0.1065	8.67	2.67	-0.750			
0.8094	51799.92	3.0330	3.0330	-0.1059	8.67	2.67	-0.750			
0.8097	51820.30	3.0300	3.0301	-0.1054	8.68	2.68	-0.750			
0.8100	51840.48	3.0270	3.0269	-0.1045	8.69	2.69	-0.750			
0.8103	51860.45	3.0240	3.0240	-0.1036	8.69	2.69	-0.750			
0.8106	51880.17	3.0210	3.0210	-0.1029	8.70	2.70	-0.750			
0.8109	51899.86	3.0180	3.0180	-0.1023	8.70	2.70	-0.750			
0.8112	51919.18	3.0150	3.0149	-0.1024	8.71	2.71	-0.750			
0.8115	51938.85	3.0120	3.0120	-0.1025	8.71	2.71	-0.750			
0.8118	51958.16	3.0090	3.0089	-0.1029	8.72	2.72	-0.750			
0.8122	51978.03	3.0060	3.0060	-0.1040	8.72	2.72	-0.750			
0.8125	51998.10	3.0030	3.0031	-0.1069	8.73	2.73	-0.750			
