Ah_balance (normalized)	Ah_balance (mAh)	Voltage - fit (V)	Voltage -  interpolate (V)	dQ/dV (1/V)	Temperature (°C)	Temperature - diff (°C)	Current (C)	R_DC 0ms (mOhm)	R_DC 50ms (mOhm)	R_DC 50 ms PEC (mOhm)
0.0975	6241.31	4.1980	4.1941	0.6955	8.28	2.30	0.750	0.383	0.791	
0.0996	6374.71	4.1950	4.1976	0.7245	8.27	2.29	0.750			
0.1020	6525.42	4.1920	4.1942	0.7839	8.27	2.29	0.750			
0.1045	6686.62	4.1890	4.1904	0.7894	8.27	2.29	0.750			
0.1069	6844.75	4.1860	4.1870	0.7968	8.26	2.28	0.750			
0.1092	6989.39	4.1830	4.1835	0.7650	8.26	2.28	0.750			
0.1121	7172.96	4.1800	4.1793	0.8061	8.26	2.28	0.750			
0.1137	7278.83	4.1770	4.1769	0.6882	8.26	2.28	0.750			
0.1158	7412.26	4.1740	4.1741	0.6926	8.25	2.27	0.750			
0.1179	7546.42	4.1710	4.1711	0.7002	8.25	2.27	0.750			
0.1200	7681.16	4.1680	4.1679	0.7023	8.25	2.27	0.750			
0.1221	7814.16	4.1650	4.1649	0.7045	8.25	2.27	0.750			
0.1242	7949.83	4.1620	4.1622	0.7131	8.24	2.26	0.750			
0.1264	8089.62	4.1590	4.1589	0.7185	8.24	2.26	0.750			
0.1286	8228.62	4.1560	4.1561	0.7231	8.23	2.25	0.750			
0.1307	8366.10	4.1530	4.1530	0.7243	8.23	2.25	0.750			
0.1329	8505.41	4.1500	4.1498	0.7261	8.22	2.24	0.750			
0.1351	8646.36	4.1470	4.1470	0.7298	8.21	2.23	0.750			
0.1373	8787.66	4.1440	4.1440	0.7223	8.21	2.23	0.750			
0.1395	8927.33	4.1410	4.1411	0.7223	8.20	2.22	0.750			
0.1416	9064.66	4.1380	4.1380	0.7185	8.19	2.21	0.750			
0.1438	9201.69	4.1350	4.1350	0.7195	8.19	2.21	0.750			
0.1459	9337.40	4.1320	4.1320	0.7229	8.18	2.20	0.750			
0.1481	9476.29	4.1290	4.1291	0.7324	8.18	2.20	0.750			
0.1503	9619.20	4.1260	4.1260	0.7379	8.17	2.19	0.750			
0.1525	9762.17	4.1230	4.1230	0.7489	8.17	2.19	0.750			
0.1548	9906.12	4.1200	4.1201	0.7566	8.16	2.18	0.750			
0.1571	10053.80	4.1170	4.1169	0.7547	8.16	2.18	0.750			
0.1593	10198.12	4.1140	4.1139	0.7636	8.16	2.18	0.750			
0.1616	10345.10	4.1110	4.1112	0.7608	8.15	2.17	0.750			
0.1640	10492.96	4.1080	4.1078	0.7590	8.15	2.17	0.750			
0.1662	10639.34	4.1050	4.1049	0.7662	8.14	2.16	0.750			
0.1685	10784.05	4.1020	4.1021	0.7660	8.13	2.15	0.750			
0.1708	10930.48	4.0990	4.0990	0.7690	8.13	2.15	0.750			
0.1731	11079.02	4.0960	4.0960	0.7817	8.12	2.14	0.750			
0.1754	11227.61	4.0930	4.0930	0.7768	8.12	2.14	0.750			
0.1778	11380.19	4.0900	4.0899	0.7870	8.11	2.13	0.750			
0.1802	11532.81	4.0870	4.0870	0.7901	8.11	2.13	0.750			
0.1826	11683.58	4.0840	4.0839	0.7841	8.10	2.12	0.750			
0.1849	11834.17	4.0810	4.0810	0.7857	8.10	2.12	0.750			
0.1873	11986.55	4.0780	4.0779	0.7803	8.09	2.11	0.750			
0.1896	12133.01	4.0750	4.0751	0.7815	8.09	2.11	0.750			
0.1919	12283.73	4.0720	4.0720	0.7947	8.09	2.11	0.750			
0.1943	12433.84	4.0690	4.0691	0.8033	8.08	2.10	0.750			
0.1967	12591.04	4.0660	4.0660	0.8125	8.08	2.10	0.750			
0.1993	12752.00	4.0630	4.0630	0.8162	8.07	2.09	0.750			
0.2017	12908.12	4.0600	4.0600	0.8210	8.06	2.08	0.750			
0.2042	13069.01	4.0570	4.0571	0.8235	8.06	2.08	0.750			
0.2066	13224.38	4.0540	4.0540	0.8173	8.05	2.07	0.750			
0.2091	13379.33	4.0510	4.0510	0.8191	8.05	2.07	0.750			
0.2115	13537.80	4.0480	4.0481	0.8124	8.04	2.06	0.750			
0.2140	13693.77	4.0450	4.0451	0.8225	8.04	2.06	0.750			
0.2164	13852.76	4.0420	4.0420	0.8324	8.03	2.05	0.750			
0.2189	14010.89	4.0390	4.0391	0.8313	8.02	2.04	0.750			
0.2214	14170.66	4.0360	4.0361	0.8419	8.02	2.04	0.750			
0.2240	14333.62	4.0330	4.0330	0.8451	8.01	2.03	0.750			
0.2265	14496.53	4.0300	4.0301	0.8577	8.01	2.03	0.750			
0.2291	14665.09	4.0270	4.0269	0.8587	8.00	2.02	0.750			
0.2317	14829.69	4.0240	4.0240	0.8571	7.99	2.01	0.750			
0.2343	14994.48	4.0210	4.0212	0.8617	7.99	2.01	0.750			
0.2369	15161.40	4.0180	4.0178	0.8561	7.98	2.00	0.750			
0.2394	15323.87	4.0150	4.0150	0.8567	7.97	1.99	0.750			
0.2420	15486.79	4.0120	4.0119	0.8629	7.96	1.98	0.750			
0.2446	15652.23	4.0090	4.0091	0.8672	7.95	1.97	0.750			
0.2472	15821.26	4.0060	4.0060	0.8717	7.95	1.97	0.750			
0.2498	15985.97	4.0030	4.0030	0.8831	7.94	1.96	0.750			
0.2524	16156.55	4.0000	4.0001	0.8951	7.93	1.95	0.750			
0.2552	16331.61	3.9970	3.9969	0.9060	7.93	1.95	0.750			
0.2579	16504.31	3.9940	3.9939	0.9155	7.92	1.94	0.750			
0.2607	16682.53	3.9910	3.9910	0.9187	7.91	1.93	0.750			
0.2635	16860.98	3.9880	3.9881	0.9201	7.91	1.93	0.750			
0.2663	17041.39	3.9850	3.9850	0.9193	7.90	1.92	0.750			
0.2690	17213.33	3.9820	3.9822	0.9157	7.89	1.91	0.750			
0.2717	17389.58	3.9790	3.9790	0.9224	7.89	1.91	0.750			
0.2745	17567.14	3.9760	3.9759	0.9144	7.88	1.90	0.750			
0.2772	17738.65	3.9730	3.9730	0.9179	7.87	1.89	0.750			
0.2800	17918.05	3.9700	3.9702	0.9278	7.86	1.88	0.750			
0.2827	18095.31	3.9670	3.9667	0.9323	7.85	1.87	0.750			
0.2856	18276.45	3.9640	3.9640	0.9334	7.84	1.86	0.750			
0.2884	18454.70	3.9610	3.9611	0.9362	7.83	1.85	0.750			
0.2911	18633.09	3.9580	3.9581	0.9511	7.82	1.84	0.750			
0.2940	18816.84	3.9550	3.9551	0.9593	7.81	1.83	0.750			
0.2969	19002.15	3.9520	3.9520	0.9600	7.80	1.82	0.750			
0.2998	19188.03	3.9490	3.9490	0.9765	7.79	1.81	0.750			
0.3028	19376.96	3.9460	3.9462	0.9817	7.78	1.80	0.750			
0.3057	19567.83	3.9430	3.9429	0.9925	7.77	1.79	0.750			
0.3087	19757.71	3.9400	3.9401	0.9982	7.76	1.78	0.750			
0.3117	19948.14	3.9370	3.9370	1.0075	7.75	1.77	0.750			
0.3147	20142.54	3.9340	3.9340	1.0225	7.74	1.76	0.750			
0.3178	20341.46	3.9310	3.9310	1.0345	7.74	1.76	0.750			
0.3210	20542.22	3.9280	3.9282	1.0390	7.73	1.75	0.750			
0.3241	20744.07	3.9250	3.9250	1.0462	7.71	1.73	0.750			
0.3273	20944.31	3.9220	3.9220	1.0494	7.70	1.72	0.750			
0.3304	21145.14	3.9190	3.9191	1.0539	7.69	1.71	0.750			
0.3336	21348.41	3.9160	3.9159	1.0519	7.68	1.70	0.750			
0.3367	21547.58	3.9130	3.9130	1.0708	7.67	1.69	0.750			
0.3399	21752.65	3.9100	3.9101	1.0899	7.66	1.68	0.750			
0.3432	21965.18	3.9070	3.9070	1.1063	7.65	1.67	0.750			
0.3466	22181.92	3.9040	3.9039	1.1132	7.64	1.66	0.750			
0.3499	22396.62	3.9010	3.9012	1.1300	7.62	1.64	0.750			
0.3534	22615.32	3.8980	3.8981	1.1439	7.61	1.63	0.750			
0.3569	22839.22	3.8950	3.8948	1.1465	7.59	1.61	0.750			
0.3603	23056.81	3.8920	3.8920	1.1555	7.58	1.60	0.750			
0.3637	23278.32	3.8890	3.8891	1.1703	7.56	1.58	0.750			
0.3673	23504.99	3.8860	3.8861	1.1831	7.54	1.56	0.750			
0.3708	23732.33	3.8830	3.8829	1.1932	7.53	1.55	0.750			
0.3744	23963.56	3.8800	3.8800	1.2137	7.51	1.53	0.750			
0.3781	24196.26	3.8770	3.8772	1.2384	7.50	1.52	0.750	0.384	0.806	
0.3819	24439.10	3.8740	3.8739	1.2570	7.48	1.50	0.750			
0.3856	24678.48	3.8710	3.8711	1.2819	7.47	1.49	0.750			
0.3896	24932.13	3.8680	3.8681	1.3112	7.45	1.47	0.750			
0.3936	25188.89	3.8650	3.8649	1.3219	7.44	1.46	0.750			
0.3976	25445.28	3.8620	3.8620	1.3367	7.42	1.44	0.750			
0.4016	25699.64	3.8590	3.8592	1.3517	7.40	1.42	0.750			
0.4056	25960.83	3.8560	3.8561	1.3584	7.38	1.40	0.750			
0.4098	26224.12	3.8530	3.8529	1.3852	7.36	1.38	0.750			
0.4139	26488.23	3.8500	3.8500	1.3882	7.34	1.36	0.750			
0.4181	26758.56	3.8470	3.8471	1.4133	7.32	1.34	0.750			
0.4224	27035.45	3.8440	3.8441	1.4501	7.30	1.32	0.750			
0.4267	27310.29	3.8410	3.8410	1.4742	7.27	1.29	0.750			
0.4312	27596.11	3.8380	3.8379	1.5001	7.25	1.27	0.750			
0.4358	27888.08	3.8350	3.8351	1.5328	7.23	1.25	0.750			
0.4405	28189.49	3.8320	3.8319	1.5384	7.21	1.23	0.750			
0.4452	28490.88	3.8290	3.8288	1.5477	7.19	1.21	0.750			
0.4497	28781.81	3.8260	3.8264	1.5667	7.17	1.19	0.750			
0.4544	29083.62	3.8230	3.8231	1.6010	7.14	1.16	0.750			
0.4592	29390.46	3.8200	3.8200	1.6208	7.11	1.13	0.750			
0.4643	29712.01	3.8170	3.8170	1.6283	7.09	1.11	0.750			
0.4692	30028.70	3.8140	3.8140	1.6508	7.07	1.09	0.750			
0.4742	30348.75	3.8110	3.8109	1.6691	7.04	1.06	0.750			
0.4792	30671.47	3.8080	3.8081	1.6784	7.02	1.04	0.750			
0.4841	30985.36	3.8050	3.8049	1.6635	6.99	1.01	0.750			
0.4891	31305.05	3.8020	3.8020	1.6732	6.97	0.99	0.750			
0.4941	31623.80	3.7990	3.7991	1.7056	6.95	0.97	0.750			
0.4993	31957.43	3.7960	3.7957	1.7449	6.92	0.94	0.750			
0.5045	32289.98	3.7930	3.7927	1.7754	6.90	0.92	0.750			
0.5099	32636.04	3.7900	3.7900	1.7965	6.87	0.89	0.750			
0.5156	32995.75	3.7870	3.7871	1.8434	6.84	0.86	0.750			
0.5210	33342.82	3.7840	3.7839	1.8640	6.81	0.83	0.750			
0.5265	33699.05	3.7810	3.7808	1.8963	6.79	0.81	0.750			
0.5322	34059.97	3.7780	3.7779	1.9395	6.76	0.78	0.750			
0.5381	34440.18	3.7750	3.7752	2.0149	6.73	0.75	0.750			
0.5443	34836.84	3.7720	3.7720	2.1106	6.70	0.72	0.750			
0.5508	35250.76	3.7690	3.7689	2.1798	6.67	0.69	0.750			
0.5573	35666.46	3.7660	3.7660	2.2650	6.63	0.65	0.750			
0.5643	36117.21	3.7630	3.7631	2.3246	6.60	0.62	0.750			
0.5715	36574.51	3.7600	3.7600	2.4271	6.57	0.59	0.750			
0.5788	37040.93	3.7570	3.7569	2.5604	6.54	0.56	0.750			
0.5867	37546.19	3.7540	3.7541	2.6780	6.50	0.52	0.750			
0.5949	38075.78	3.7510	3.7510	2.8360	6.46	0.48	0.750			
0.6038	38640.37	3.7480	3.7479	2.9333	6.42	0.44	0.750			
0.6126	39208.68	3.7450	3.7450	3.0208	6.38	0.40	0.750			
0.6220	39806.08	3.7420	3.7419	3.0978	6.34	0.36	0.750			
0.6314	40409.09	3.7390	3.7392	3.0163	6.31	0.33	0.750			
0.6404	40983.85	3.7360	3.7359	2.8094	6.28	0.30	0.750			
0.6481	41479.68	3.7330	3.7332	2.4678	6.25	0.27	0.750			
0.6552	41930.17	3.7300	3.7299	2.2059	6.22	0.24	0.750			
0.6613	42321.94	3.7270	3.7269	1.9485	6.20	0.22	0.750			
0.6667	42668.42	3.7240	3.7242	1.6972	6.18	0.20	0.750			
0.6713	42963.06	3.7210	3.7211	1.5124	6.17	0.19	0.750			
0.6753	43218.45	3.7180	3.7180	1.3672	6.15	0.17	0.750			
0.6789	43451.84	3.7150	3.7149	1.2492	6.14	0.16	0.750			
0.6825	43680.93	3.7120	3.7119	1.1865	6.13	0.15	0.750			
0.6860	43903.58	3.7090	3.7091	1.1497	6.12	0.14	0.750			
0.6894	44121.12	3.7060	3.7060	1.1295	6.11	0.13	0.750			
0.6927	44335.98	3.7030	3.7029	1.0954	6.10	0.12	0.750			
0.6960	44542.70	3.7000	3.6999	1.0578	6.09	0.11	0.750			
0.6991	44743.12	3.6970	3.6971	1.0344	6.08	0.10	0.750			
0.7022	44940.09	3.6940	3.6941	1.0037	6.07	0.09	0.750			
0.7052	45131.72	3.6910	3.6908	0.9755	6.07	0.09	0.750			
0.7080	45309.36	3.6880	3.6881	0.9510	6.06	0.08	0.750			
0.7108	45488.40	3.6850	3.6851	0.9342	6.05	0.07	0.750			
0.7136	45669.49	3.6820	3.6818	0.9335	6.04	0.06	0.750			
0.7164	45847.43	3.6790	3.6788	0.9234	6.03	0.05	0.750			
0.7191	46023.86	3.6760	3.6762	0.9065	6.02	0.04	0.750			
0.7219	46198.81	3.6730	3.6731	0.8950	6.02	0.04	0.750			
0.7246	46371.73	3.6700	3.6699	0.8751	6.01	0.03	0.750			
0.7271	46533.48	3.6670	3.6670	0.8670	6.01	0.03	0.750			
0.7296	46694.55	3.6640	3.6639	0.8541	6.01	0.03	0.750			
0.7322	46859.51	3.6610	3.6609	0.8544	6.00	0.02	0.750			
0.7348	47025.07	3.6580	3.6580	0.8504	6.00	0.02	0.750			
0.7374	47191.46	3.6550	3.6550	0.8402	5.99	0.01	0.750			
0.7399	47352.88	3.6520	3.6520	0.8174	5.99	0.01	0.750			
0.7424	47512.73	3.6490	3.6491	0.7784	5.98	0.00	0.750			
0.7447	47661.20	3.6460	3.6459	0.7288	5.98	0.00	0.750			
0.7469	47800.23	3.6430	3.6430	0.6637	5.98	-0.00	0.750			
0.7488	47923.47	3.6400	3.6400	0.5835	5.97	-0.01	0.750			
0.7504	48028.13	3.6370	3.6370	0.4961	5.97	-0.01	0.750			
0.7516	48101.65	3.6340	3.6345	0.4292	5.97	-0.01	0.750			
0.7527	48175.19	3.6310	3.6315	0.3472	5.97	-0.01	0.750			
0.7537	48233.90	3.6280	3.6278	0.2848	5.97	-0.01	0.750			
0.7543	48274.76	3.6250	3.6245	0.2136	5.97	-0.01	0.750			
0.7548	48306.17	3.6220	3.6201	0.1621	5.96	-0.02	0.750			
0.7550	48322.64	3.5980	3.6048	-0.1198	5.96	-0.02	0.750			
0.7551	48327.82	3.6190	3.5512	0.1174	5.96	-0.02	0.749			
0.7554	48342.42	3.6010	3.3357	-0.0863	5.96	-0.02	0.739			
0.7554	48344.83	3.6160	3.3001	0.0813	5.96	-0.02	0.737			
0.7556	48355.77	3.6040	3.1386	-0.0528	5.96	-0.02	0.729			
0.7556	48357.21	3.6130	3.1172	0.0477	5.96	-0.02	0.728			
0.7557	48362.68	3.6070	3.0365	-0.0193	5.96	-0.02	0.724			
0.7557	48363.16	3.6100	3.0294	0.0142	5.96	-0.02	0.724			
