Ah_balance (normalized)	Ah_balance (mAh)	Voltage - fit (V)	Voltage -  interpolate (V)	dQ/dV (1/V)	Temperature (°C)	Temperature - diff (°C)	Current (C)	R_DC 0ms (mOhm)	R_DC 50ms (mOhm)	R_DC 50 ms PEC (mOhm)
0.0001	9.51	4.1060	4.1046	-0.0246	5.99	-0.00	-0.750			
0.0003	18.33	4.1030	4.1023	-0.0605	5.99	-0.00	-0.750			
0.0005	33.03	4.1000	4.0998	-0.0926	5.99	-0.00	-0.750			
0.0009	55.30	4.0970	4.0968	-0.1205	5.99	-0.00	-0.750			
0.0013	82.03	4.0940	4.0940	-0.1446	5.99	-0.00	-0.750			
0.0018	112.31	4.0910	4.0912	-0.1695	5.99	-0.00	-0.750			
0.0023	147.30	4.0880	4.0883	-0.1937	5.99	-0.00	-0.750			
0.0029	188.56	4.0850	4.0849	-0.2181	5.99	-0.00	-0.750			
0.0036	231.90	4.0820	4.0819	-0.2411	5.99	-0.00	-0.750			
0.0044	279.89	4.0790	4.0790	-0.2637	5.99	-0.00	-0.750			
0.0052	333.27	4.0760	4.0760	-0.2868	5.99	-0.00	-0.750			
0.0061	391.18	4.0730	4.0730	-0.3095	5.99	0.00	-0.750			
0.0071	453.06	4.0700	4.0700	-0.3329	5.99	0.00	-0.750			
0.0081	518.90	4.0670	4.0671	-0.3550	5.99	0.00	-0.750			
0.0092	589.12	4.0640	4.0640	-0.3781	5.99	0.00	-0.750			
0.0104	662.93	4.0610	4.0610	-0.4012	5.99	0.00	-0.750			
0.0116	742.55	4.0580	4.0580	-0.4255	5.99	0.00	-0.750			
0.0129	827.23	4.0550	4.0549	-0.4486	6.00	0.01	-0.750			
0.0143	916.04	4.0520	4.0520	-0.4733	6.00	0.01	-0.750			
0.0158	1010.75	4.0490	4.0491	-0.4895	6.00	0.01	-0.750			
0.0173	1106.90	4.0460	4.0459	-0.5053	6.00	0.01	-0.750			
0.0188	1205.75	4.0430	4.0432	-0.5195	6.00	0.01	-0.750			
0.0204	1306.53	4.0400	4.0399	-0.5317	6.00	0.01	-0.750			
0.0220	1407.76	4.0370	4.0370	-0.5497	6.01	0.02	-0.750			
0.0236	1513.33	4.0340	4.0340	-0.5645	6.01	0.02	-0.750			
0.0254	1627.06	4.0310	4.0309	-0.5896	6.01	0.02	-0.750			
0.0272	1742.63	4.0280	4.0280	-0.6037	6.01	0.02	-0.750			
0.0291	1861.16	4.0250	4.0250	-0.6173	6.02	0.03	-0.750			
0.0310	1981.43	4.0220	4.0223	-0.6287	6.02	0.03	-0.750			
0.0329	2102.63	4.0190	4.0188	-0.6404	6.02	0.03	-0.750			
0.0348	2225.19	4.0160	4.0161	-0.6510	6.03	0.04	-0.750			
0.0367	2350.59	4.0130	4.0130	-0.6647	6.03	0.04	-0.750			
0.0388	2481.10	4.0100	4.0100	-0.6824	6.04	0.05	-0.750			
0.0409	2614.50	4.0070	4.0069	-0.6870	6.04	0.05	-0.750			
0.0429	2747.73	4.0040	4.0040	-0.6962	6.05	0.06	-0.750			
0.0450	2883.13	4.0010	4.0011	-0.6957	6.05	0.06	-0.750			
0.0471	3016.47	3.9980	3.9980	-0.6961	6.06	0.07	-0.750			
0.0492	3148.96	3.9950	3.9950	-0.7041	6.07	0.08	-0.750			
0.0513	3283.07	3.9920	3.9921	-0.7079	6.07	0.08	-0.750			
0.0534	3420.21	3.9890	3.9888	-0.7152	6.08	0.09	-0.750			
0.0556	3559.89	3.9860	3.9861	-0.7198	6.09	0.10	-0.750			
0.0578	3698.25	3.9830	3.9830	-0.7243	6.09	0.10	-0.750			
0.0600	3838.80	3.9800	3.9801	-0.7301	6.10	0.11	-0.750			
0.0622	3978.78	3.9770	3.9769	-0.7343	6.10	0.11	-0.750			
0.0644	4119.15	3.9740	3.9739	-0.7381	6.11	0.12	-0.750			
0.0666	4262.33	3.9710	3.9710	-0.7454	6.12	0.13	-0.750			
0.0689	4406.93	3.9680	3.9682	-0.7423	6.12	0.13	-0.750			
0.0711	4551.46	3.9650	3.9649	-0.7476	6.13	0.14	-0.750			
0.0733	4693.12	3.9620	3.9621	-0.7471	6.14	0.15	-0.750			
0.0756	4836.07	3.9590	3.9588	-0.7411	6.15	0.16	-0.750			
0.0778	4981.13	3.9560	3.9559	-0.7422	6.16	0.17	-0.750			
0.0800	5121.08	3.9530	3.9530	-0.7403	6.17	0.18	-0.750			
0.0822	5262.54	3.9500	3.9500	-0.7416	6.17	0.18	-0.750			
0.0845	5405.15	3.9470	3.9469	-0.7494	6.18	0.19	-0.750			
0.0867	5545.96	3.9440	3.9440	-0.7550	6.19	0.20	-0.750			
0.0890	5695.28	3.9410	3.9410	-0.7560	6.20	0.21	-0.750			
0.0913	5842.32	3.9380	3.9380	-0.7655	6.20	0.21	-0.750			
0.0936	5991.21	3.9350	3.9352	-0.7674	6.21	0.22	-0.750			
0.0959	6137.69	3.9320	3.9320	-0.7651	6.22	0.23	-0.750			
0.0982	6282.71	3.9290	3.9288	-0.7699	6.23	0.24	-0.750			
0.1005	6429.44	3.9260	3.9261	-0.7748	6.24	0.25	-0.750			
0.1028	6579.31	3.9230	3.9229	-0.7825	6.25	0.26	-0.750			
0.1052	6732.35	3.9200	3.9199	-0.7874	6.26	0.27	-0.750			
0.1076	6883.96	3.9170	3.9170	-0.7843	6.27	0.28	-0.750			
0.1099	7035.24	3.9140	3.9141	-0.7894	6.28	0.29	-0.750			
0.1123	7186.42	3.9110	3.9110	-0.7871	6.29	0.30	-0.750			
0.1146	7337.51	3.9080	3.9079	-0.7808	6.29	0.30	-0.750			
0.1170	7487.44	3.9050	3.9049	-0.7809	6.30	0.31	-0.750			
0.1193	7637.89	3.9020	3.9021	-0.7762	6.31	0.32	-0.750			
0.1217	7785.77	3.8990	3.8991	-0.7816	6.32	0.33	-0.750			
0.1240	7934.99	3.8960	3.8960	-0.7817	6.33	0.34	-0.750			
0.1263	8084.19	3.8930	3.8930	-0.7795	6.33	0.34	-0.750			
0.1287	8235.81	3.8900	3.8899	-0.7829	6.34	0.35	-0.750			
0.1311	8387.30	3.8870	3.8874	-0.7919	6.35	0.36	-0.750			
0.1334	8538.05	3.8840	3.8841	-0.7950	6.36	0.37	-0.750			
0.1358	8692.01	3.8810	3.8808	-0.8057	6.37	0.38	-0.750			
0.1382	8846.64	3.8780	3.8780	-0.8048	6.38	0.39	-0.750			
0.1407	9002.88	3.8750	3.8749	-0.8056	6.39	0.40	-0.750			
0.1431	9158.89	3.8720	3.8722	-0.8017	6.40	0.41	-0.750			
0.1455	9312.20	3.8690	3.8690	-0.8077	6.41	0.42	-0.750			
0.1479	9465.28	3.8660	3.8659	-0.8042	6.42	0.43	-0.750			
0.1503	9617.58	3.8630	3.8629	-0.7998	6.43	0.44	-0.750			
0.1527	9770.18	3.8600	3.8601	-0.8098	6.44	0.45	-0.750			
0.1551	9929.36	3.8570	3.8572	-0.8176	6.45	0.46	-0.750			
0.1576	10087.40	3.8540	3.8537	-0.8194	6.45	0.46	-0.750			
0.1601	10244.85	3.8510	3.8511	-0.8261	6.46	0.47	-0.750			
0.1626	10403.23	3.8480	3.8480	-0.8247	6.47	0.48	-0.750			
0.1651	10564.89	3.8450	3.8449	-0.8237	6.47	0.48	-0.750			
0.1676	10723.42	3.8420	3.8418	-0.8189	6.48	0.49	-0.750			
0.1700	10878.09	3.8390	3.8391	-0.8088	6.49	0.50	-0.750			
0.1724	11031.97	3.8360	3.8360	-0.8206	6.50	0.51	-0.750			
0.1748	11188.28	3.8330	3.8330	-0.8211	6.51	0.52	-0.750			
0.1773	11344.37	3.8300	3.8299	-0.8210	6.52	0.53	-0.750			
0.1798	11505.48	3.8270	3.8270	-0.8315	6.53	0.54	-0.750			
0.1823	11666.60	3.8240	3.8239	-0.8365	6.54	0.55	-0.750			
0.1848	11826.90	3.8210	3.8210	-0.8433	6.55	0.56	-0.750			
0.1873	11989.80	3.8180	3.8178	-0.8455	6.56	0.57	-0.750			
0.1899	12151.72	3.8150	3.8150	-0.8388	6.57	0.58	-0.750			
0.1924	12315.71	3.8120	3.8119	-0.8429	6.58	0.59	-0.750			
0.1950	12477.70	3.8090	3.8089	-0.8432	6.58	0.59	-0.750			
0.1975	12637.67	3.8060	3.8060	-0.8450	6.59	0.60	-0.750			
0.2000	12798.52	3.8030	3.8029	-0.8394	6.60	0.61	-0.750			
0.2025	12958.37	3.8000	3.7999	-0.8350	6.61	0.62	-0.750			
0.2050	13121.76	3.7970	3.7970	-0.8426	6.62	0.63	-0.750			
0.2076	13284.37	3.7940	3.7941	-0.8422	6.62	0.63	-0.750			
0.2101	13445.45	3.7910	3.7909	-0.8404	6.63	0.64	-0.750			
0.2126	13605.97	3.7880	3.7880	-0.8374	6.64	0.65	-0.750			
0.2151	13763.74	3.7850	3.7851	-0.8393	6.64	0.65	-0.750			
0.2176	13927.83	3.7820	3.7819	-0.8471	6.65	0.66	-0.750			
0.2202	14090.37	3.7790	3.7789	-0.8453	6.66	0.67	-0.750			
0.2227	14252.12	3.7760	3.7760	-0.8482	6.67	0.68	-0.750			
0.2252	14415.82	3.7730	3.7729	-0.8507	6.68	0.69	-0.750			
0.2278	14579.31	3.7700	3.7700	-0.8494	6.69	0.70	-0.750			
0.2304	14743.61	3.7670	3.7669	-0.8484	6.70	0.71	-0.750			
0.2329	14905.34	3.7640	3.7640	-0.8435	6.71	0.72	-0.750			
0.2354	15067.47	3.7610	3.7609	-0.8486	6.71	0.72	-0.750			
0.2379	15228.35	3.7580	3.7581	-0.8524	6.72	0.73	-0.750			
0.2405	15390.69	3.7550	3.7549	-0.8585	6.73	0.74	-0.750			
0.2431	15557.93	3.7520	3.7520	-0.8696	6.74	0.75	-0.750			
0.2457	15727.63	3.7490	3.7489	-0.8752	6.75	0.76	-0.750			
0.2484	15898.91	3.7460	3.7461	-0.8792	6.76	0.77	-0.750			
0.2510	16066.82	3.7430	3.7430	-0.8787	6.76	0.77	-0.750			
0.2536	16232.97	3.7400	3.7401	-0.8779	6.77	0.78	-0.750			
0.2563	16401.20	3.7370	3.7369	-0.8776	6.78	0.79	-0.750			
0.2589	16568.14	3.7340	3.7339	-0.8875	6.79	0.80	-0.750			
0.2616	16741.95	3.7310	3.7311	-0.8882	6.79	0.80	-0.750			
0.2643	16914.11	3.7280	3.7281	-0.8873	6.80	0.81	-0.750			
0.2670	17085.49	3.7250	3.7249	-0.8963	6.81	0.82	-0.750			
0.2696	17256.20	3.7220	3.7221	-0.8979	6.81	0.82	-0.750			
0.2723	17426.48	3.7190	3.7189	-0.9018	6.82	0.83	-0.750			
0.2750	17603.10	3.7160	3.7159	-0.9007	6.83	0.84	-0.750			
0.2778	17776.00	3.7130	3.7131	-0.9023	6.84	0.85	-0.750			
0.2805	17952.59	3.7100	3.7102	-0.9069	6.85	0.86	-0.750			
0.2832	18125.29	3.7070	3.7069	-0.9146	6.86	0.87	-0.750			
0.2859	18298.52	3.7040	3.7040	-0.9160	6.87	0.88	-0.750			
0.2886	18472.65	3.7010	3.7010	-0.9241	6.88	0.89	-0.750			
0.2914	18651.76	3.6980	3.6980	-0.9357	6.89	0.90	-0.750			
0.2943	18838.39	3.6950	3.6950	-0.9491	6.90	0.91	-0.750			
0.2972	19019.30	3.6920	3.6921	-0.9477	6.91	0.92	-0.750			
0.3000	19202.97	3.6890	3.6890	-0.9538	6.92	0.93	-0.750			
0.3029	19384.98	3.6860	3.6861	-0.9541	6.93	0.94	-0.750			
0.3057	19567.85	3.6830	3.6830	-0.9598	6.94	0.95	-0.750			
0.3086	19751.65	3.6800	3.6800	-0.9687	6.95	0.96	-0.750			
0.3116	19939.64	3.6770	3.6770	-0.9776	6.96	0.97	-0.750			
0.3145	20128.42	3.6740	3.6739	-0.9838	6.97	0.98	-0.750			
0.3175	20318.00	3.6710	3.6710	-0.9941	6.99	1.00	-0.750			
0.3205	20509.73	3.6680	3.6680	-1.0075	7.00	1.01	-0.750			
0.3235	20706.28	3.6650	3.6649	-1.0122	7.01	1.02	-0.750			
0.3266	20900.86	3.6620	3.6619	-1.0201	7.02	1.03	-0.750			
0.3296	21097.44	3.6590	3.6591	-1.0265	7.03	1.04	-0.750			
0.3328	21296.72	3.6560	3.6559	-1.0372	7.05	1.06	-0.750			
0.3359	21495.83	3.6530	3.6530	-1.0430	7.06	1.07	-0.750			
0.3390	21694.01	3.6500	3.6500	-1.0457	7.07	1.08	-0.750			
0.3421	21894.65	3.6470	3.6470	-1.0575	7.08	1.09	-0.750			
0.3454	22103.90	3.6440	3.6441	-1.0785	7.09	1.10	-0.750			
0.3486	22310.14	3.6410	3.6409	-1.0830	7.10	1.11	-0.750			
0.3519	22522.40	3.6380	3.6379	-1.0913	7.12	1.13	-0.750			
0.3552	22732.15	3.6350	3.6352	-1.0951	7.14	1.15	-0.750			
0.3585	22942.76	3.6320	3.6319	-1.1140	7.15	1.16	-0.750			
0.3618	23157.79	3.6290	3.6291	-1.1234	7.16	1.17	-0.750			
0.3652	23373.70	3.6260	3.6258	-1.1347	7.17	1.18	-0.750			
0.3686	23590.52	3.6230	3.6234	-1.1484	7.18	1.19	-0.750			
0.3721	23816.88	3.6200	3.6200	-1.1595	7.19	1.20	-0.750			
0.3757	24041.83	3.6170	3.6169	-1.1626	7.20	1.21	-0.750			
0.3791	24262.46	3.6140	3.6140	-1.1710	7.21	1.22	-0.750			
0.3826	24486.95	3.6110	3.6111	-1.1888	7.23	1.24	-0.750			
0.3862	24715.68	3.6080	3.6079	-1.2065	7.24	1.25	-0.750			
0.3898	24949.50	3.6050	3.6047	-1.2149	7.25	1.26	-0.750			
0.3935	25185.54	3.6020	3.6024	-1.2325	7.26	1.27	-0.750			
0.3973	25427.23	3.5990	3.5991	-1.2473	7.27	1.28	-0.750	0.425	0.932	
0.4011	25670.89	3.5960	3.5959	-1.2547	7.28	1.29	-0.750			
0.4048	25908.49	3.5930	3.5930	-1.2610	7.30	1.31	-0.750			
0.4086	26148.46	3.5900	3.5899	-1.2574	7.31	1.32	-0.750			
0.4124	26391.46	3.5870	3.5869	-1.2704	7.32	1.33	-0.750			
0.4161	26633.05	3.5840	3.5840	-1.2887	7.32	1.33	-0.750			
0.4200	26881.03	3.5810	3.5811	-1.2940	7.33	1.34	-0.750			
0.4240	27135.45	3.5780	3.5778	-1.3082	7.34	1.35	-0.750			
0.4279	27387.63	3.5750	3.5749	-1.3159	7.35	1.36	-0.750			
0.4318	27638.03	3.5720	3.5722	-1.3326	7.36	1.37	-0.750			
0.4360	27900.99	3.5690	3.5690	-1.3447	7.38	1.39	-0.750			
0.4400	28156.93	3.5660	3.5659	-1.3612	7.39	1.40	-0.750			
0.4441	28420.04	3.5630	3.5633	-1.3824	7.40	1.41	-0.750			
0.4483	28690.05	3.5600	3.5598	-1.4113	7.41	1.42	-0.750			
0.4526	28963.80	3.5570	3.5569	-1.4102	7.41	1.42	-0.750			
0.4568	29234.85	3.5540	3.5541	-1.4230	7.42	1.43	-0.750			
0.4611	29508.13	3.5510	3.5513	-1.4569	7.43	1.44	-0.750			
0.4655	29791.15	3.5480	3.5477	-1.4584	7.44	1.45	-0.750			
0.4698	30069.53	3.5450	3.5450	-1.4474	7.45	1.46	-0.750			
0.4742	30351.11	3.5420	3.5420	-1.4670	7.46	1.47	-0.750			
0.4787	30636.40	3.5390	3.5391	-1.4782	7.47	1.48	-0.750			
0.4831	30921.19	3.5360	3.5359	-1.4742	7.47	1.48	-0.750			
0.4874	31196.35	3.5330	3.5329	-1.4711	7.48	1.49	-0.750			
0.4919	31479.18	3.5300	3.5299	-1.4628	7.49	1.50	-0.750			
0.4963	31766.17	3.5270	3.5268	-1.4736	7.49	1.50	-0.750			
0.5008	32050.46	3.5240	3.5241	-1.4730	7.50	1.51	-0.750			
0.5051	32327.63	3.5210	3.5211	-1.4707	7.50	1.51	-0.750			
0.5095	32610.27	3.5180	3.5180	-1.4694	7.51	1.52	-0.750			
0.5140	32893.33	3.5150	3.5150	-1.4886	7.52	1.53	-0.750			
0.5185	33184.18	3.5120	3.5120	-1.4907	7.53	1.54	-0.750			
0.5231	33477.96	3.5090	3.5089	-1.4987	7.53	1.54	-0.750			
0.5276	33768.22	3.5060	3.5063	-1.4870	7.54	1.55	-0.750			
0.5320	34050.61	3.5030	3.5031	-1.4819	7.54	1.55	-0.750			
0.5364	34331.69	3.5000	3.4999	-1.4668	7.55	1.56	-0.750			
0.5408	34608.83	3.4970	3.4969	-1.4669	7.56	1.57	-0.750			
0.5451	34887.67	3.4940	3.4940	-1.4611	7.56	1.57	-0.750			
0.5496	35174.26	3.4910	3.4910	-1.4734	7.57	1.58	-0.750			
0.5540	35458.67	3.4880	3.4880	-1.4684	7.58	1.59	-0.750			
0.5584	35739.63	3.4850	3.4850	-1.4585	7.58	1.59	-0.750			
0.5628	36019.78	3.4820	3.4820	-1.4515	7.59	1.60	-0.750			
0.5671	36297.08	3.4790	3.4790	-1.4441	7.60	1.61	-0.750			
0.5714	36571.52	3.4760	3.4759	-1.4355	7.61	1.62	-0.750			
0.5758	36848.69	3.4730	3.4729	-1.4310	7.62	1.63	-0.750			
0.5801	37124.66	3.4700	3.4700	-1.4220	7.63	1.64	-0.750			
0.5843	37398.33	3.4670	3.4669	-1.4065	7.64	1.65	-0.750			
0.5886	37667.78	3.4640	3.4640	-1.3934	7.64	1.65	-0.750			
0.5927	37932.88	3.4610	3.4611	-1.3815	7.65	1.66	-0.750			
0.5968	38195.34	3.4580	3.4579	-1.3568	7.66	1.67	-0.750			
0.6008	38452.29	3.4550	3.4549	-1.3468	7.67	1.68	-0.750			
0.6048	38709.10	3.4520	3.4521	-1.3482	7.68	1.69	-0.750			
0.6089	38969.15	3.4490	3.4490	-1.3390	7.69	1.70	-0.750			
0.6130	39231.71	3.4460	3.4459	-1.3283	7.70	1.71	-0.750			
0.6169	39484.19	3.4430	3.4430	-1.3107	7.71	1.72	-0.750			
0.6208	39733.73	3.4400	3.4400	-1.2910	7.72	1.73	-0.750			
0.6247	39982.07	3.4370	3.4369	-1.2792	7.72	1.73	-0.750			
0.6285	40222.20	3.4340	3.4339	-1.2530	7.73	1.74	-0.750			
0.6322	40457.88	3.4310	3.4311	-1.2350	7.74	1.75	-0.750			
0.6360	40701.10	3.4280	3.4280	-1.2273	7.76	1.77	-0.750			
0.6396	40935.92	3.4250	3.4250	-1.1970	7.77	1.78	-0.750			
0.6432	41163.60	3.4220	3.4220	-1.1654	7.78	1.79	-0.750			
0.6467	41385.67	3.4190	3.4190	-1.1394	7.79	1.80	-0.750			
0.6500	41599.34	3.4160	3.4159	-1.1048	7.81	1.82	-0.750			
0.6533	41808.02	3.4130	3.4129	-1.0773	7.82	1.83	-0.750			
0.6564	42011.39	3.4100	3.4102	-1.0463	7.83	1.84	-0.750			
0.6596	42211.46	3.4070	3.4070	-1.0254	7.84	1.85	-0.750			
0.6626	42405.16	3.4040	3.4040	-0.9993	7.85	1.86	-0.750			
0.6655	42592.69	3.4010	3.4009	-0.9761	7.86	1.87	-0.750			
0.6684	42778.73	3.3980	3.3981	-0.9583	7.87	1.88	-0.750			
0.6712	42958.60	3.3950	3.3950	-0.9443	7.88	1.89	-0.750			
0.6740	43138.97	3.3920	3.3920	-0.9275	7.89	1.90	-0.750			
0.6768	43317.49	3.3890	3.3889	-0.9086	7.90	1.91	-0.750			
0.6796	43491.50	3.3860	3.3858	-0.8870	7.91	1.92	-0.750			
0.6822	43660.36	3.3830	3.3831	-0.8555	7.93	1.94	-0.750			
0.6847	43821.82	3.3800	3.3800	-0.8235	7.94	1.95	-0.750			
0.6871	43976.13	3.3770	3.3770	-0.7953	7.95	1.96	-0.750			
0.6894	44121.48	3.3740	3.3741	-0.7639	7.96	1.97	-0.750			
0.6917	44266.72	3.3710	3.3709	-0.7513	7.97	1.98	-0.750			
0.6939	44409.21	3.3680	3.3681	-0.7334	7.98	1.99	-0.750			
0.6961	44548.68	3.3650	3.3650	-0.7160	7.99	2.00	-0.750			
0.6982	44686.00	3.3620	3.3620	-0.7032	8.01	2.02	-0.750			
0.7003	44819.36	3.3590	3.3590	-0.6835	8.02	2.03	-0.750			
0.7023	44948.18	3.3560	3.3559	-0.6566	8.03	2.04	-0.750			
0.7042	45071.95	3.3530	3.3530	-0.6387	8.04	2.05	-0.750			
0.7061	45191.43	3.3500	3.3503	-0.6198	8.05	2.06	-0.750			
0.7080	45309.16	3.3470	3.3468	-0.6040	8.06	2.07	-0.750			
0.7097	45422.61	3.3440	3.3440	-0.5890	8.07	2.08	-0.750			
0.7115	45533.38	3.3410	3.3411	-0.5768	8.08	2.09	-0.750			
0.7132	45643.85	3.3380	3.3380	-0.5653	8.10	2.11	-0.750			
0.7149	45752.30	3.3350	3.3349	-0.5538	8.11	2.12	-0.750			
0.7165	45855.88	3.3320	3.3320	-0.5353	8.12	2.13	-0.750			
0.7181	45957.75	3.3290	3.3289	-0.5224	8.13	2.14	-0.750			
0.7196	46056.52	3.3260	3.3260	-0.5096	8.14	2.15	-0.750			
0.7211	46152.55	3.3230	3.3229	-0.4952	8.15	2.16	-0.750			
0.7226	46246.03	3.3200	3.3200	-0.4791	8.16	2.17	-0.750			
0.7240	46337.42	3.3170	3.3169	-0.4663	8.17	2.18	-0.750			
0.7254	46424.17	3.3140	3.3142	-0.4568	8.18	2.19	-0.750			
0.7267	46511.46	3.3110	3.3109	-0.4464	8.19	2.20	-0.750			
0.7281	46595.47	3.3080	3.3079	-0.4338	8.20	2.21	-0.750			
0.7293	46677.39	3.3050	3.3050	-0.4260	8.21	2.22	-0.750			
0.7306	46758.45	3.3020	3.3021	-0.4181	8.22	2.23	-0.750			
0.7318	46838.22	3.2990	3.2989	-0.4108	8.23	2.24	-0.750			
0.7331	46915.39	3.2960	3.2960	-0.4029	8.24	2.25	-0.750			
0.7342	46991.64	3.2930	3.2931	-0.3928	8.25	2.26	-0.750			
0.7354	47066.25	3.2900	3.2899	-0.3860	8.26	2.27	-0.750			
0.7366	47140.51	3.2870	3.2871	-0.3820	8.26	2.27	-0.750			
0.7377	47212.98	3.2840	3.2840	-0.3736	8.27	2.28	-0.750			
0.7388	47284.68	3.2810	3.2809	-0.3665	8.28	2.29	-0.750			
0.7399	47354.12	3.2780	3.2781	-0.3586	8.29	2.30	-0.750			
0.7410	47421.55	3.2750	3.2751	-0.3503	8.30	2.31	-0.750			
0.7420	47488.70	3.2720	3.2719	-0.3440	8.31	2.32	-0.750			
0.7430	47553.31	3.2690	3.2690	-0.3355	8.32	2.33	-0.750			
0.7440	47617.03	3.2660	3.2660	-0.3270	8.32	2.33	-0.750			
0.7450	47679.56	3.2630	3.2630	-0.3214	8.33	2.34	-0.750			
0.7459	47740.42	3.2600	3.2600	-0.3144	8.34	2.35	-0.750			
0.7469	47798.95	3.2570	3.2571	-0.3091	8.35	2.36	-0.750			
0.7478	47857.89	3.2540	3.2538	-0.3052	8.36	2.37	-0.750			
0.7487	47916.16	3.2510	3.2511	-0.3001	8.37	2.38	-0.750			
0.7496	47973.63	3.2480	3.2480	-0.2956	8.38	2.39	-0.750			
0.7505	48030.91	3.2450	3.2450	-0.2923	8.39	2.40	-0.750			
0.7513	48086.34	3.2420	3.2420	-0.2860	8.39	2.40	-0.750			
0.7522	48139.82	3.2390	3.2389	-0.2814	8.40	2.41	-0.750			
0.7530	48192.82	3.2360	3.2361	-0.2781	8.41	2.42	-0.750			
0.7538	48246.03	3.2330	3.2329	-0.2747	8.42	2.43	-0.750			
0.7547	48298.83	3.2300	3.2299	-0.2707	8.43	2.44	-0.750			
0.7555	48351.13	3.2270	3.2270	-0.2664	8.43	2.44	-0.750			
0.7563	48401.83	3.2240	3.2241	-0.2612	8.43	2.44	-0.750			
0.7571	48451.40	3.2210	3.2210	-0.2558	8.44	2.45	-0.750			
0.7578	48498.96	3.2180	3.2181	-0.2507	8.45	2.46	-0.750			
0.7585	48546.69	3.2150	3.2149	-0.2463	8.46	2.47	-0.750			
0.7593	48593.47	3.2120	3.2120	-0.2436	8.47	2.48	-0.750			
0.7600	48640.00	3.2090	3.2090	-0.2412	8.47	2.48	-0.750			
0.7607	48686.16	3.2060	3.2061	-0.2387	8.48	2.49	-0.750			
0.7614	48731.82	3.2030	3.2029	-0.2358	8.49	2.50	-0.750			
0.7621	48776.90	3.2000	3.2000	-0.2331	8.50	2.51	-0.750			
0.7628	48821.40	3.1970	3.1971	-0.2301	8.51	2.52	-0.750			
0.7635	48864.89	3.1940	3.1940	-0.2271	8.51	2.52	-0.750			
0.7642	48908.94	3.1910	3.1910	-0.2245	8.52	2.53	-0.750			
0.7649	48951.17	3.1880	3.1880	-0.2209	8.53	2.54	-0.750			
0.7655	48993.35	3.1850	3.1851	-0.2184	8.54	2.55	-0.750			
0.7662	49035.05	3.1820	3.1820	-0.2159	8.54	2.55	-0.750			
0.7668	49076.30	3.1790	3.1789	-0.2132	8.55	2.56	-0.750			
0.7675	49116.87	3.1760	3.1761	-0.2104	8.56	2.57	-0.750			
0.7681	49157.34	3.1730	3.1730	-0.2067	8.57	2.58	-0.750			
0.7687	49196.81	3.1700	3.1699	-0.2034	8.57	2.58	-0.750			
0.7693	49235.79	3.1670	3.1671	-0.2012	8.58	2.59	-0.750			
0.7699	49273.45	3.1640	3.1641	-0.1981	8.59	2.60	-0.750			
0.7705	49310.90	3.1610	3.1609	-0.1964	8.59	2.60	-0.750			
0.7711	49348.51	3.1580	3.1579	-0.1954	8.60	2.61	-0.750			
0.7717	49385.86	3.1550	3.1550	-0.1930	8.61	2.62	-0.750			
0.7722	49422.87	3.1520	3.1520	-0.1911	8.61	2.62	-0.750			
0.7728	49459.99	3.1490	3.1491	-0.1900	8.62	2.63	-0.750			
0.7734	49496.16	3.1460	3.1460	-0.1868	8.63	2.64	-0.750			
0.7739	49531.54	3.1430	3.1430	-0.1848	8.64	2.65	-0.750			
0.7745	49566.63	3.1400	3.1400	-0.1825	8.64	2.65	-0.750			
0.7750	49601.49	3.1370	3.1369	-0.1798	8.65	2.66	-0.750			
0.7756	49635.82	3.1340	3.1340	-0.1779	8.65	2.66	-0.750			
0.7761	49670.09	3.1310	3.1310	-0.1760	8.66	2.67	-0.750			
0.7766	49703.35	3.1280	3.1281	-0.1743	8.67	2.68	-0.750			
0.7771	49736.60	3.1250	3.1249	-0.1725	8.67	2.68	-0.750			
0.7776	49769.53	3.1220	3.1220	-0.1712	8.68	2.69	-0.750			
0.7782	49801.80	3.1190	3.1190	-0.1703	8.69	2.70	-0.750			
0.7787	49834.54	3.1160	3.1161	-0.1693	8.69	2.70	-0.750			
0.7792	49867.23	3.1130	3.1130	-0.1691	8.70	2.71	-0.750			
0.7797	49899.72	3.1100	3.1099	-0.1669	8.71	2.72	-0.750			
0.7802	49931.95	3.1070	3.1071	-0.1647	8.72	2.73	-0.750			
0.7807	49963.08	3.1040	3.1040	-0.1626	8.72	2.73	-0.750			
0.7812	49994.10	3.1010	3.1011	-0.1605	8.73	2.74	-0.750			
0.7816	50024.62	3.0980	3.0979	-0.1595	8.74	2.75	-0.750			
0.7821	50054.71	3.0950	3.0949	-0.1575	8.75	2.76	-0.750			
0.7826	50084.86	3.0920	3.0920	-0.1566	8.75	2.76	-0.750			
0.7830	50115.00	3.0890	3.0890	-0.1561	8.76	2.77	-0.750			
0.7835	50144.80	3.0860	3.0861	-0.1556	8.76	2.77	-0.750			
0.7840	50174.87	3.0830	3.0830	-0.1542	8.77	2.78	-0.750			
0.7844	50204.18	3.0800	3.0799	-0.1528	8.78	2.79	-0.750			
0.7849	50233.40	3.0770	3.0771	-0.1517	8.78	2.79	-0.750			
0.7853	50262.32	3.0740	3.0741	-0.1510	8.79	2.80	-0.750			
0.7858	50291.51	3.0710	3.0709	-0.1495	8.80	2.81	-0.750			
0.7862	50319.93	3.0680	3.0680	-0.1481	8.80	2.81	-0.750			
0.7867	50348.25	3.0650	3.0650	-0.1469	8.81	2.82	-0.750			
0.7871	50376.18	3.0620	3.0621	-0.1458	8.82	2.83	-0.750			
0.7876	50404.35	3.0590	3.0589	-0.1448	8.82	2.83	-0.750			
0.7880	50431.64	3.0560	3.0560	-0.1436	8.83	2.84	-0.750			
0.7884	50459.15	3.0530	3.0530	-0.1430	8.83	2.84	-0.750			
0.7889	50486.52	3.0500	3.0500	-0.1414	8.84	2.85	-0.750			
0.7893	50513.84	3.0470	3.0469	-0.1409	8.85	2.86	-0.750			
0.7897	50540.46	3.0440	3.0442	-0.1397	8.85	2.86	-0.750			
0.7901	50567.22	3.0410	3.0410	-0.1391	8.86	2.87	-0.750			
0.7905	50593.78	3.0380	3.0379	-0.1384	8.86	2.87	-0.750			
0.7909	50620.35	3.0350	3.0350	-0.1379	8.87	2.88	-0.750			
0.7914	50646.85	3.0320	3.0321	-0.1365	8.88	2.89	-0.750			
0.7918	50672.99	3.0290	3.0289	-0.1357	8.88	2.89	-0.750			
0.7922	50699.28	3.0260	3.0260	-0.1353	8.89	2.90	-0.750			
0.7926	50725.14	3.0230	3.0230	-0.1339	8.90	2.91	-0.750			
0.7930	50750.49	3.0200	3.0200	-0.1329	8.90	2.91	-0.750			
0.7934	50775.97	3.0170	3.0169	-0.1321	8.91	2.92	-0.750			
0.7938	50801.23	3.0140	3.0141	-0.1313	8.91	2.92	-0.750			
0.7942	50826.32	3.0110	3.0110	-0.1306	8.92	2.93	-0.750			
0.7946	50851.35	3.0080	3.0080	-0.1301	8.93	2.94	-0.750			
0.7949	50876.42	3.0050	3.0050	-0.1285	8.93	2.94	-0.750			
0.7953	50900.97	3.0020	3.0020	-0.1273	8.94	2.95	-0.750			
