Ah_balance (normalized)	Ah_balance (mAh)	Voltage - fit (V)	Voltage -  interpolate (V)	dQ/dV (1/V)	Temperature (°C)	Temperature - diff (°C)	Current (C)	R_DC 0ms (mOhm)	R_DC 50ms (mOhm)	R_DC 50 ms PEC (mOhm)
0.0003	20.36	4.1110	4.1104	-0.0775	5.99	0.00	-0.750			
0.0006	37.89	4.1080	4.1076	-0.1049	5.99	0.00	-0.750			
0.0010	61.36	4.1050	4.1049	-0.1314	5.99	0.00	-0.750			
0.0014	89.06	4.1020	4.1022	-0.1568	5.99	0.00	-0.750			
0.0019	121.61	4.0990	4.0989	-0.1822	5.99	0.00	-0.750			
0.0025	160.03	4.0960	4.0960	-0.2061	5.99	-0.00	-0.750			
0.0031	201.55	4.0930	4.0930	-0.2271	5.99	-0.00	-0.750			
0.0039	246.82	4.0900	4.0902	-0.2500	5.99	-0.00	-0.750			
0.0046	296.65	4.0870	4.0871	-0.2747	5.99	-0.00	-0.750			
0.0055	351.45	4.0840	4.0838	-0.2976	5.99	-0.00	-0.750			
0.0064	411.35	4.0810	4.0810	-0.3199	5.99	-0.00	-0.750			
0.0074	474.96	4.0780	4.0780	-0.3424	5.99	-0.00	-0.750			
0.0085	543.60	4.0750	4.0751	-0.3638	5.99	-0.00	-0.750			
0.0096	615.60	4.0720	4.0719	-0.3850	5.98	-0.01	-0.750			
0.0108	691.79	4.0690	4.0690	-0.4020	5.98	-0.01	-0.750			
0.0120	770.88	4.0660	4.0659	-0.4198	5.98	-0.01	-0.750			
0.0133	852.60	4.0630	4.0631	-0.4436	5.98	-0.01	-0.750			
0.0147	939.09	4.0600	4.0600	-0.4682	5.98	-0.01	-0.750			
0.0161	1029.82	4.0570	4.0568	-0.4940	5.98	-0.01	-0.750			
0.0176	1127.69	4.0540	4.0540	-0.5200	5.98	-0.01	-0.750			
0.0192	1230.62	4.0510	4.0510	-0.5416	5.99	-0.00	-0.750			
0.0209	1337.91	4.0480	4.0481	-0.5657	5.99	-0.00	-0.750			
0.0227	1450.96	4.0450	4.0450	-0.5818	5.99	0.00	-0.750			
0.0244	1563.47	4.0420	4.0419	-0.5947	6.00	0.01	-0.750			
0.0262	1678.71	4.0390	4.0391	-0.6069	6.00	0.01	-0.750			
0.0281	1796.31	4.0360	4.0361	-0.6211	6.00	0.01	-0.750			
0.0300	1917.59	4.0330	4.0330	-0.6361	6.01	0.02	-0.750			
0.0319	2041.00	4.0300	4.0300	-0.6492	6.01	0.02	-0.750			
0.0339	2167.42	4.0270	4.0270	-0.6583	6.02	0.03	-0.750			
0.0359	2296.80	4.0240	4.0240	-0.6664	6.02	0.03	-0.750			
0.0379	2424.61	4.0210	4.0210	-0.6762	6.02	0.03	-0.750			
0.0399	2555.98	4.0180	4.0181	-0.6799	6.03	0.04	-0.750			
0.0420	2684.95	4.0150	4.0149	-0.6853	6.03	0.04	-0.750			
0.0440	2816.75	4.0120	4.0121	-0.6933	6.04	0.05	-0.750			
0.0461	2951.71	4.0090	4.0090	-0.7010	6.04	0.05	-0.750			
0.0483	3088.53	4.0060	4.0058	-0.7084	6.05	0.06	-0.750			
0.0504	3224.53	4.0030	4.0031	-0.7105	6.05	0.06	-0.750			
0.0525	3359.94	4.0000	4.0002	-0.7149	6.06	0.07	-0.750			
0.0547	3498.52	3.9970	3.9969	-0.7247	6.07	0.08	-0.750			
0.0568	3636.30	3.9940	3.9940	-0.7350	6.07	0.08	-0.750			
0.0590	3778.41	3.9910	3.9909	-0.7398	6.08	0.09	-0.750			
0.0613	3924.43	3.9880	3.9879	-0.7484	6.09	0.10	-0.750			
0.0636	4069.02	3.9850	3.9850	-0.7480	6.10	0.11	-0.750			
0.0658	4212.79	3.9820	3.9821	-0.7486	6.10	0.11	-0.750			
0.0680	4354.59	3.9790	3.9790	-0.7486	6.11	0.12	-0.750			
0.0702	4495.48	3.9760	3.9760	-0.7473	6.12	0.13	-0.750			
0.0725	4638.45	3.9730	3.9730	-0.7534	6.12	0.13	-0.750			
0.0748	4785.37	3.9700	3.9700	-0.7601	6.13	0.14	-0.750			
0.0771	4933.53	3.9670	3.9671	-0.7676	6.14	0.15	-0.750			
0.0794	5081.93	3.9640	3.9640	-0.7660	6.15	0.16	-0.750			
0.0817	5228.66	3.9610	3.9610	-0.7676	6.16	0.17	-0.750			
0.0840	5375.63	3.9580	3.9580	-0.7685	6.17	0.18	-0.750			
0.0863	5522.55	3.9550	3.9550	-0.7645	6.18	0.19	-0.750			
0.0886	5669.99	3.9520	3.9519	-0.7636	6.18	0.19	-0.750			
0.0909	5816.62	3.9490	3.9490	-0.7624	6.19	0.20	-0.750			
0.0932	5961.65	3.9460	3.9462	-0.7626	6.20	0.21	-0.750			
0.0955	6109.31	3.9430	3.9429	-0.7604	6.21	0.22	-0.750			
0.0977	6253.09	3.9400	3.9400	-0.7622	6.22	0.23	-0.750			
0.1000	6399.64	3.9370	3.9370	-0.7719	6.23	0.24	-0.750			
0.1023	6547.64	3.9340	3.9341	-0.7819	6.24	0.25	-0.750			
0.1047	6698.52	3.9310	3.9309	-0.7897	6.25	0.26	-0.750			
0.1071	6852.59	3.9280	3.9280	-0.7976	6.25	0.26	-0.750			
0.1095	7006.99	3.9250	3.9250	-0.8041	6.26	0.27	-0.750			
0.1120	7165.22	3.9220	3.9219	-0.8059	6.27	0.28	-0.750			
0.1143	7317.44	3.9190	3.9191	-0.7997	6.28	0.29	-0.750			
0.1167	7471.12	3.9160	3.9159	-0.7956	6.29	0.30	-0.750			
0.1191	7623.08	3.9130	3.9130	-0.7909	6.30	0.31	-0.750			
0.1215	7773.49	3.9100	3.9099	-0.7914	6.31	0.32	-0.750			
0.1238	7923.37	3.9070	3.9070	-0.7914	6.32	0.33	-0.750			
0.1262	8075.57	3.9040	3.9040	-0.7951	6.32	0.33	-0.750			
0.1286	8229.32	3.9010	3.9010	-0.8038	6.33	0.34	-0.750			
0.1309	8380.61	3.8980	3.8981	-0.8177	6.34	0.35	-0.750			
0.1335	8544.33	3.8950	3.8949	-0.8206	6.35	0.36	-0.750			
0.1360	8705.56	3.8920	3.8919	-0.8181	6.36	0.37	-0.750			
0.1385	8862.33	3.8890	3.8890	-0.8107	6.37	0.38	-0.750			
0.1409	9018.88	3.8860	3.8861	-0.8030	6.38	0.39	-0.750			
0.1433	9169.64	3.8830	3.8828	-0.7974	6.39	0.40	-0.750			
0.1456	9316.83	3.8800	3.8800	-0.7894	6.40	0.41	-0.750			
0.1479	9465.15	3.8770	3.8771	-0.7886	6.41	0.42	-0.750			
0.1503	9620.34	3.8740	3.8739	-0.8109	6.41	0.42	-0.750			
0.1528	9777.47	3.8710	3.8712	-0.8205	6.42	0.43	-0.750			
0.1553	9936.19	3.8680	3.8679	-0.8271	6.43	0.44	-0.750			
0.1578	10097.82	3.8650	3.8650	-0.8401	6.44	0.45	-0.750			
0.1603	10260.67	3.8620	3.8619	-0.8435	6.45	0.46	-0.750			
0.1629	10422.89	3.8590	3.8591	-0.8512	6.46	0.47	-0.750			
0.1654	10586.95	3.8560	3.8562	-0.8557	6.47	0.48	-0.750			
0.1680	10750.57	3.8530	3.8530	-0.8542	6.48	0.49	-0.750			
0.1706	10917.05	3.8500	3.8500	-0.8554	6.49	0.50	-0.750			
0.1732	11082.01	3.8470	3.8470	-0.8494	6.50	0.51	-0.750			
0.1757	11247.23	3.8440	3.8440	-0.8420	6.50	0.51	-0.750			
0.1782	11405.90	3.8410	3.8411	-0.8383	6.51	0.52	-0.750			
0.1807	11564.99	3.8380	3.8381	-0.8252	6.52	0.53	-0.750			
0.1832	11724.27	3.8350	3.8348	-0.8326	6.53	0.54	-0.750			
0.1857	11883.45	3.8320	3.8320	-0.8295	6.54	0.55	-0.750			
0.1882	12044.35	3.8290	3.8288	-0.8332	6.55	0.56	-0.750			
0.1907	12203.93	3.8260	3.8262	-0.8428	6.56	0.57	-0.750			
0.1932	12364.32	3.8230	3.8229	-0.8521	6.57	0.58	-0.750			
0.1957	12527.84	3.8200	3.8200	-0.8558	6.58	0.59	-0.750			
0.1983	12690.51	3.8170	3.8169	-0.8601	6.59	0.60	-0.750			
0.2010	12863.77	3.8140	3.8141	-0.8702	6.60	0.61	-0.750			
0.2036	13033.30	3.8110	3.8111	-0.8721	6.61	0.62	-0.750			
0.2063	13200.09	3.8080	3.8079	-0.8636	6.62	0.63	-0.750			
0.2088	13362.90	3.8050	3.8051	-0.8551	6.63	0.64	-0.750			
0.2113	13526.38	3.8020	3.8019	-0.8522	6.64	0.65	-0.750			
0.2139	13689.12	3.7990	3.7990	-0.8614	6.65	0.66	-0.750			
0.2165	13854.39	3.7960	3.7960	-0.8605	6.65	0.66	-0.750			
0.2191	14021.93	3.7930	3.7929	-0.8676	6.66	0.67	-0.750			
0.2217	14190.27	3.7900	3.7901	-0.8673	6.67	0.68	-0.750			
0.2243	14356.80	3.7870	3.7870	-0.8701	6.68	0.69	-0.750			
0.2269	14523.59	3.7840	3.7840	-0.8690	6.69	0.70	-0.750			
0.2295	14688.19	3.7810	3.7810	-0.8747	6.70	0.71	-0.750			
0.2321	14855.22	3.7780	3.7779	-0.8771	6.70	0.71	-0.750			
0.2348	15027.93	3.7750	3.7750	-0.8789	6.71	0.72	-0.750			
0.2374	15196.11	3.7720	3.7720	-0.8777	6.72	0.73	-0.750			
0.2401	15367.87	3.7690	3.7692	-0.8778	6.73	0.74	-0.750			
0.2427	15534.02	3.7660	3.7660	-0.8761	6.74	0.75	-0.750			
0.2453	15700.71	3.7630	3.7629	-0.8748	6.75	0.76	-0.750			
0.2479	15868.14	3.7600	3.7600	-0.8704	6.76	0.77	-0.750			
0.2505	16034.39	3.7570	3.7569	-0.8789	6.76	0.77	-0.750			
0.2532	16204.38	3.7540	3.7542	-0.8834	6.77	0.78	-0.750			
0.2559	16374.42	3.7510	3.7510	-0.8852	6.78	0.79	-0.750			
0.2585	16545.39	3.7480	3.7480	-0.8887	6.79	0.80	-0.750			
0.2612	16715.04	3.7450	3.7451	-0.8888	6.80	0.81	-0.750			
0.2639	16887.16	3.7420	3.7419	-0.8976	6.81	0.82	-0.750			
0.2666	17060.61	3.7390	3.7389	-0.9031	6.82	0.83	-0.750			
0.2693	17232.90	3.7360	3.7360	-0.9053	6.82	0.83	-0.750			
0.2720	17409.20	3.7330	3.7330	-0.9091	6.83	0.84	-0.750			
0.2747	17582.90	3.7300	3.7300	-0.9139	6.84	0.85	-0.750			
0.2775	17758.81	3.7270	3.7272	-0.9179	6.85	0.86	-0.750			
0.2802	17933.04	3.7240	3.7239	-0.9296	6.86	0.87	-0.750			
0.2830	18114.64	3.7210	3.7210	-0.9257	6.86	0.87	-0.750			
0.2858	18293.43	3.7180	3.7179	-0.9284	6.87	0.88	-0.750			
0.2887	18474.67	3.7150	3.7150	-0.9339	6.88	0.89	-0.750			
0.2915	18653.41	3.7120	3.7120	-0.9311	6.88	0.89	-0.750			
0.2942	18828.71	3.7090	3.7089	-0.9288	6.89	0.90	-0.750			
0.2970	19007.82	3.7060	3.7060	-0.9295	6.90	0.91	-0.750			
0.2997	19182.47	3.7030	3.7030	-0.9309	6.91	0.92	-0.750			
0.3026	19364.95	3.7000	3.7001	-0.9439	6.92	0.93	-0.750			
0.3054	19545.07	3.6970	3.6970	-0.9528	6.92	0.93	-0.750			
0.3083	19729.73	3.6940	3.6939	-0.9612	6.93	0.94	-0.750			
0.3112	19916.03	3.6910	3.6909	-0.9626	6.93	0.94	-0.750			
0.3141	20102.87	3.6880	3.6880	-0.9725	6.94	0.95	-0.750			
0.3170	20289.54	3.6850	3.6851	-0.9823	6.94	0.95	-0.750			
0.3199	20476.43	3.6820	3.6820	-0.9861	6.95	0.96	-0.750			
0.3229	20667.11	3.6790	3.6789	-0.9959	6.96	0.97	-0.750			
0.3259	20856.67	3.6760	3.6760	-1.0071	6.97	0.98	-0.750			
0.3290	21054.17	3.6730	3.6730	-1.0244	6.97	0.98	-0.750			
0.3321	21253.38	3.6700	3.6700	-1.0310	6.98	0.99	-0.750			
0.3352	21452.78	3.6670	3.6670	-1.0335	6.99	1.00	-0.750			
0.3383	21650.56	3.6640	3.6640	-1.0384	7.00	1.01	-0.750			
0.3414	21850.56	3.6610	3.6610	-1.0517	7.00	1.01	-0.750			
0.3446	22053.03	3.6580	3.6579	-1.0545	7.01	1.02	-0.750			
0.3477	22255.48	3.6550	3.6550	-1.0571	7.02	1.03	-0.750			
0.3509	22459.33	3.6520	3.6520	-1.0706	7.03	1.04	-0.750			
0.3542	22665.61	3.6490	3.6491	-1.0836	7.03	1.04	-0.750			
0.3574	22875.26	3.6460	3.6459	-1.0905	7.03	1.04	-0.750			
0.3607	23083.19	3.6430	3.6429	-1.1019	7.04	1.05	-0.750			
0.3640	23293.93	3.6400	3.6402	-1.1211	7.04	1.05	-0.750			
0.3674	23514.05	3.6370	3.6369	-1.1367	7.05	1.06	-0.750			
0.3709	23736.21	3.6340	3.6339	-1.1463	7.05	1.06	-0.750			
0.3743	23956.51	3.6310	3.6310	-1.1514	7.06	1.07	-0.750			
0.3778	24177.02	3.6280	3.6280	-1.1608	7.07	1.08	-0.750			
0.3813	24401.92	3.6250	3.6250	-1.1748	7.08	1.09	-0.750			
0.3848	24625.19	3.6220	3.6220	-1.1860	7.08	1.09	-0.750			
0.3883	24852.64	3.6190	3.6189	-1.1938	7.09	1.10	-0.750			
0.3920	25086.27	3.6160	3.6159	-1.2111	7.09	1.10	-0.750			
0.3956	25320.12	3.6130	3.6131	-1.2417	7.09	1.10	-0.750			
0.3994	25563.70	3.6100	3.6098	-1.2492	7.10	1.11	-0.750			
0.4032	25804.94	3.6070	3.6069	-1.2560	7.10	1.11	-0.750			
0.4070	26049.63	3.6040	3.6042	-1.2620	7.11	1.12	-0.750	0.420	0.953	
0.4108	26292.86	3.6010	3.6009	-1.2603	7.11	1.12	-0.750			
0.4146	26531.50	3.5980	3.5981	-1.2833	7.12	1.13	-0.750			
0.4183	26771.39	3.5950	3.5950	-1.2990	7.13	1.14	-0.750			
0.4222	27023.74	3.5920	3.5919	-1.3210	7.13	1.14	-0.750			
0.4263	27282.70	3.5890	3.5889	-1.3492	7.14	1.15	-0.750			
0.4304	27545.89	3.5860	3.5861	-1.3641	7.15	1.16	-0.750			
0.4346	27817.14	3.5830	3.5830	-1.3783	7.16	1.17	-0.750			
0.4388	28081.03	3.5800	3.5800	-1.3895	7.17	1.18	-0.750			
0.4429	28342.90	3.5770	3.5769	-1.3868	7.17	1.18	-0.750			
0.4470	28608.72	3.5740	3.5739	-1.3936	7.16	1.17	-0.750			
0.4512	28879.53	3.5710	3.5710	-1.4195	7.16	1.17	-0.750			
0.4555	29152.62	3.5680	3.5680	-1.4299	7.17	1.18	-0.750			
0.4599	29433.26	3.5650	3.5649	-1.4669	7.18	1.19	-0.750			
0.4644	29718.93	3.5620	3.5621	-1.4793	7.19	1.20	-0.750			
0.4688	30001.57	3.5590	3.5588	-1.4838	7.19	1.20	-0.750			
0.4733	30291.22	3.5560	3.5563	-1.4966	7.20	1.21	-0.750			
0.4778	30579.36	3.5530	3.5532	-1.5071	7.20	1.21	-0.750			
0.4823	30864.51	3.5500	3.5498	-1.5184	7.21	1.22	-0.750			
0.4869	31159.35	3.5470	3.5471	-1.5362	7.22	1.23	-0.750			
0.4914	31450.69	3.5440	3.5441	-1.5694	7.22	1.23	-0.750			
0.4963	31764.29	3.5410	3.5408	-1.5837	7.23	1.24	-0.750			
0.5011	32069.52	3.5380	3.5379	-1.5938	7.23	1.24	-0.750			
0.5059	32378.31	3.5350	3.5349	-1.6050	7.24	1.25	-0.750			
0.5107	32683.89	3.5320	3.5318	-1.6192	7.24	1.25	-0.750			
0.5156	32998.43	3.5290	3.5292	-1.6107	7.25	1.26	-0.750			
0.5205	33309.91	3.5260	3.5262	-1.5994	7.25	1.26	-0.750			
0.5252	33611.78	3.5230	3.5231	-1.6164	7.26	1.27	-0.750			
0.5302	33931.13	3.5200	3.5199	-1.6234	7.26	1.27	-0.750			
0.5350	34240.93	3.5170	3.5167	-1.6212	7.27	1.28	-0.750			
0.5398	34549.23	3.5140	3.5141	-1.6289	7.27	1.28	-0.750			
0.5447	34861.17	3.5110	3.5111	-1.6215	7.28	1.29	-0.750			
0.5497	35180.55	3.5080	3.5078	-1.6368	7.29	1.30	-0.750			
0.5546	35492.97	3.5050	3.5049	-1.6416	7.30	1.31	-0.750			
0.5594	35800.98	3.5020	3.5021	-1.6483	7.31	1.32	-0.750			
0.5645	36125.92	3.4990	3.4992	-1.6459	7.32	1.33	-0.750			
0.5694	36444.70	3.4960	3.4960	-1.6299	7.32	1.33	-0.750			
0.5743	36754.79	3.4930	3.4929	-1.6314	7.33	1.34	-0.750			
0.5792	37070.54	3.4900	3.4898	-1.6137	7.33	1.34	-0.750			
0.5840	37378.70	3.4870	3.4869	-1.6020	7.34	1.35	-0.750			
0.5888	37681.77	3.4840	3.4842	-1.5790	7.35	1.36	-0.750			
0.5936	37990.81	3.4810	3.4809	-1.5735	7.36	1.37	-0.750			
0.5983	38289.36	3.4780	3.4781	-1.5433	7.36	1.37	-0.750			
0.6028	38579.11	3.4750	3.4752	-1.5269	7.37	1.38	-0.750			
0.6072	38863.76	3.4720	3.4720	-1.5202	7.38	1.39	-0.750			
0.6119	39158.83	3.4690	3.4689	-1.5123	7.39	1.40	-0.750			
0.6163	39445.23	3.4660	3.4661	-1.5001	7.40	1.41	-0.750			
0.6209	39736.95	3.4630	3.4630	-1.5071	7.42	1.43	-0.750			
0.6254	40026.90	3.4600	3.4600	-1.4903	7.43	1.44	-0.750			
0.6298	40310.32	3.4570	3.4570	-1.4718	7.44	1.45	-0.750			
0.6343	40594.62	3.4540	3.4540	-1.4546	7.45	1.46	-0.750			
0.6386	40870.62	3.4510	3.4510	-1.4316	7.46	1.47	-0.750			
0.6430	41148.84	3.4480	3.4479	-1.4115	7.47	1.48	-0.750			
0.6471	41416.13	3.4450	3.4450	-1.3814	7.48	1.49	-0.750			
0.6512	41676.36	3.4420	3.4420	-1.3591	7.50	1.51	-0.750			
0.6552	41934.44	3.4390	3.4389	-1.3380	7.51	1.52	-0.750			
0.6592	42188.15	3.4360	3.4358	-1.3111	7.52	1.53	-0.750			
0.6631	42439.29	3.4330	3.4330	-1.2886	7.53	1.54	-0.750			
0.6669	42682.34	3.4300	3.4300	-1.2629	7.54	1.55	-0.750			
0.6708	42930.26	3.4270	3.4271	-1.2373	7.55	1.56	-0.750			
0.6744	43164.33	3.4240	3.4238	-1.1966	7.56	1.57	-0.750			
0.6779	43386.40	3.4210	3.4213	-1.1618	7.57	1.58	-0.750			
0.6814	43607.17	3.4180	3.4179	-1.1358	7.59	1.60	-0.750			
0.6847	43822.00	3.4150	3.4149	-1.1069	7.60	1.61	-0.750			
0.6880	44032.18	3.4120	3.4120	-1.0752	7.61	1.62	-0.750			
0.6912	44234.87	3.4090	3.4090	-1.0459	7.62	1.63	-0.750			
0.6943	44434.43	3.4060	3.4060	-1.0219	7.63	1.64	-0.750			
0.6973	44626.31	3.4030	3.4031	-0.9956	7.64	1.65	-0.750			
0.7002	44813.15	3.4000	3.3998	-0.9678	7.65	1.66	-0.750			
0.7031	44997.44	3.3970	3.3970	-0.9444	7.66	1.67	-0.750			
0.7059	45175.49	3.3940	3.3940	-0.9267	7.68	1.69	-0.750			
0.7087	45354.32	3.3910	3.3910	-0.8905	7.69	1.70	-0.750			
0.7113	45524.26	3.3880	3.3880	-0.8610	7.70	1.71	-0.750			
0.7138	45685.09	3.3850	3.3851	-0.8274	7.71	1.72	-0.750			
0.7163	45840.34	3.3820	3.3818	-0.7961	7.73	1.74	-0.750			
0.7186	45988.39	3.3790	3.3790	-0.7666	7.73	1.74	-0.750			
0.7208	46130.85	3.3760	3.3760	-0.7477	7.74	1.75	-0.750			
0.7230	46271.68	3.3730	3.3730	-0.7250	7.75	1.76	-0.750			
0.7252	46412.05	3.3700	3.3699	-0.7110	7.76	1.77	-0.750			
0.7273	46544.96	3.3670	3.3672	-0.6901	7.77	1.78	-0.750			
0.7293	46676.66	3.3640	3.3640	-0.6697	7.78	1.79	-0.750			
0.7313	46804.13	3.3610	3.3609	-0.6478	7.79	1.80	-0.750			
0.7332	46926.30	3.3580	3.3580	-0.6263	7.80	1.81	-0.750			
0.7350	47042.49	3.3550	3.3551	-0.6038	7.81	1.82	-0.750			
0.7368	47158.19	3.3520	3.3519	-0.5901	7.82	1.83	-0.750			
0.7386	47268.56	3.3490	3.3490	-0.5702	7.83	1.84	-0.750			
0.7402	47375.15	3.3460	3.3461	-0.5528	7.84	1.85	-0.750			
0.7419	47480.36	3.3430	3.3431	-0.5391	7.85	1.86	-0.750			
0.7435	47583.07	3.3400	3.3399	-0.5219	7.86	1.87	-0.750			
0.7450	47681.02	3.3370	3.3369	-0.5060	7.87	1.88	-0.750			
0.7465	47775.95	3.3340	3.3341	-0.4904	7.88	1.89	-0.750			
0.7479	47868.59	3.3310	3.3309	-0.4790	7.89	1.90	-0.750			
0.7494	47960.25	3.3280	3.3279	-0.4666	7.90	1.91	-0.750			
0.7508	48048.73	3.3250	3.3249	-0.4529	7.91	1.92	-0.750			
0.7521	48134.42	3.3220	3.3221	-0.4406	7.92	1.93	-0.750			
0.7534	48218.10	3.3190	3.3189	-0.4294	7.93	1.94	-0.750			
0.7547	48298.17	3.3160	3.3159	-0.4149	7.93	1.94	-0.750			
0.7559	48376.17	3.3130	3.3130	-0.4058	7.94	1.95	-0.750			
0.7571	48451.86	3.3100	3.3101	-0.3953	7.95	1.96	-0.750			
0.7583	48528.92	3.3070	3.3069	-0.3871	7.96	1.97	-0.750			
0.7594	48602.51	3.3040	3.3040	-0.3754	7.96	1.97	-0.750			
0.7605	48672.55	3.3010	3.3011	-0.3661	7.97	1.98	-0.750			
0.7616	48741.77	3.2980	3.2980	-0.3569	7.98	1.99	-0.750			
0.7626	48808.97	3.2950	3.2950	-0.3495	7.99	2.00	-0.750			
0.7637	48875.06	3.2920	3.2919	-0.3420	7.99	2.00	-0.750			
0.7647	48940.61	3.2890	3.2891	-0.3353	8.00	2.01	-0.750			
0.7657	49005.03	3.2860	3.2859	-0.3277	8.01	2.02	-0.750			
0.7667	49067.26	3.2830	3.2831	-0.3213	8.02	2.03	-0.750			
0.7676	49127.86	3.2800	3.2800	-0.3119	8.02	2.03	-0.750			
0.7685	49186.25	3.2770	3.2769	-0.3036	8.03	2.04	-0.750			
0.7694	49243.30	3.2740	3.2740	-0.2970	8.04	2.05	-0.750			
0.7703	49300.00	3.2710	3.2711	-0.2922	8.05	2.06	-0.750			
0.7712	49355.70	3.2680	3.2679	-0.2884	8.05	2.06	-0.750			
0.7720	49410.61	3.2650	3.2650	-0.2830	8.06	2.07	-0.750			
0.7729	49464.25	3.2620	3.2621	-0.2759	8.07	2.08	-0.750			
0.7737	49517.44	3.2590	3.2590	-0.2702	8.08	2.09	-0.750			
0.7745	49568.68	3.2560	3.2561	-0.2644	8.08	2.09	-0.750			
0.7753	49618.64	3.2530	3.2530	-0.2582	8.09	2.10	-0.750			
0.7761	49667.23	3.2500	3.2498	-0.2523	8.10	2.11	-0.750			
0.7768	49714.75	3.2470	3.2471	-0.2468	8.10	2.11	-0.750			
0.7775	49761.60	3.2440	3.2440	-0.2428	8.11	2.12	-0.750			
0.7782	49807.99	3.2410	3.2410	-0.2396	8.12	2.13	-0.750			
0.7790	49853.64	3.2380	3.2380	-0.2352	8.13	2.14	-0.750			
0.7797	49898.22	3.2350	3.2349	-0.2297	8.13	2.14	-0.750			
0.7803	49941.94	3.2320	3.2320	-0.2257	8.14	2.15	-0.750			
0.7810	49985.04	3.2290	3.2291	-0.2225	8.15	2.16	-0.750			
0.7817	50027.16	3.2260	3.2261	-0.2191	8.15	2.16	-0.750			
0.7823	50068.96	3.2230	3.2230	-0.2149	8.16	2.17	-0.750			
0.7830	50109.88	3.2200	3.2199	-0.2114	8.17	2.18	-0.750			
0.7836	50149.97	3.2170	3.2170	-0.2078	8.17	2.18	-0.750			
0.7842	50189.43	3.2140	3.2141	-0.2056	8.18	2.19	-0.750			
0.7848	50228.67	3.2110	3.2110	-0.2028	8.19	2.20	-0.750			
0.7854	50267.44	3.2080	3.2080	-0.1992	8.19	2.20	-0.750			
0.7860	50305.02	3.2050	3.2050	-0.1964	8.20	2.21	-0.750			
0.7866	50342.47	3.2020	3.2021	-0.1935	8.20	2.21	-0.750			
0.7872	50379.91	3.1990	3.1990	-0.1913	8.21	2.22	-0.750			
0.7878	50416.27	3.1960	3.1959	-0.1875	8.22	2.23	-0.750			
0.7883	50452.01	3.1930	3.1930	-0.1836	8.22	2.23	-0.750			
0.7889	50486.57	3.1900	3.1902	-0.1798	8.22	2.23	-0.750			
0.7894	50520.77	3.1870	3.1869	-0.1765	8.23	2.24	-0.750			
0.7899	50554.39	3.1840	3.1840	-0.1744	8.23	2.24	-0.750			
0.7904	50587.07	3.1810	3.1810	-0.1715	8.24	2.25	-0.750			
0.7909	50619.76	3.1780	3.1779	-0.1694	8.24	2.25	-0.750			
0.7914	50652.12	3.1750	3.1751	-0.1678	8.25	2.26	-0.750			
0.7919	50684.37	3.1720	3.1720	-0.1656	8.25	2.26	-0.750			
0.7924	50716.02	3.1690	3.1690	-0.1641	8.26	2.27	-0.750			
0.7929	50747.31	3.1660	3.1659	-0.1617	8.27	2.28	-0.750			
0.7934	50778.15	3.1630	3.1630	-0.1595	8.27	2.28	-0.750			
0.7939	50808.45	3.1600	3.1600	-0.1575	8.28	2.29	-0.750			
0.7944	50838.61	3.1570	3.1571	-0.1553	8.29	2.30	-0.750			
0.7948	50868.14	3.1540	3.1540	-0.1535	8.29	2.30	-0.750			
0.7953	50897.42	3.1510	3.1509	-0.1515	8.30	2.31	-0.750			
0.7957	50926.23	3.1480	3.1481	-0.1503	8.30	2.31	-0.750			
0.7962	50954.68	3.1450	3.1450	-0.1484	8.31	2.32	-0.750			
0.7966	50983.47	3.1420	3.1418	-0.1467	8.31	2.32	-0.750			
0.7971	51011.45	3.1390	3.1391	-0.1447	8.32	2.33	-0.750			
0.7975	51039.23	3.1360	3.1360	-0.1422	8.32	2.33	-0.750			
0.7979	51066.35	3.1330	3.1331	-0.1406	8.33	2.34	-0.750			
0.7983	51092.72	3.1300	3.1300	-0.1383	8.34	2.35	-0.750			
0.7987	51119.11	3.1270	3.1270	-0.1367	8.34	2.35	-0.750			
0.7991	51144.80	3.1240	3.1239	-0.1353	8.34	2.35	-0.750			
0.7995	51170.58	3.1210	3.1212	-0.1342	8.35	2.36	-0.750			
0.7999	51196.54	3.1180	3.1180	-0.1339	8.35	2.36	-0.750			
0.8003	51222.15	3.1150	3.1149	-0.1329	8.36	2.37	-0.750			
0.8007	51247.71	3.1120	3.1120	-0.1319	8.36	2.37	-0.750			
0.8011	51272.94	3.1090	3.1090	-0.1302	8.37	2.38	-0.750			
0.8015	51297.87	3.1060	3.1060	-0.1289	8.37	2.38	-0.750			
0.8019	51322.43	3.1030	3.1030	-0.1273	8.37	2.38	-0.750			
0.8023	51346.73	3.1000	3.1000	-0.1257	8.38	2.39	-0.750			
0.8027	51370.55	3.0970	3.0970	-0.1244	8.38	2.39	-0.750			
0.8030	51394.21	3.0940	3.0940	-0.1230	8.39	2.40	-0.750			
0.8034	51417.84	3.0910	3.0909	-0.1217	8.39	2.40	-0.750			
0.8038	51441.02	3.0880	3.0881	-0.1204	8.40	2.41	-0.750			
0.8041	51464.11	3.0850	3.0850	-0.1189	8.41	2.42	-0.750			
0.8045	51486.97	3.0820	3.0820	-0.1177	8.41	2.42	-0.750			
0.8048	51509.28	3.0790	3.0791	-0.1168	8.42	2.43	-0.750			
0.8052	51531.53	3.0760	3.0760	-0.1155	8.42	2.43	-0.750			
0.8055	51553.60	3.0730	3.0730	-0.1144	8.43	2.44	-0.750			
0.8059	51575.23	3.0700	3.0699	-0.1131	8.43	2.44	-0.750			
0.8062	51596.80	3.0670	3.0670	-0.1125	8.44	2.45	-0.750			
0.8065	51618.33	3.0640	3.0642	-0.1118	8.45	2.46	-0.750			
0.8069	51639.82	3.0610	3.0609	-0.1108	8.45	2.46	-0.750			
0.8072	51661.12	3.0580	3.0579	-0.1101	8.46	2.47	-0.750			
0.8075	51682.10	3.0550	3.0550	-0.1093	8.46	2.47	-0.750			
0.8079	51702.89	3.0520	3.0520	-0.1083	8.47	2.48	-0.750			
0.8082	51723.64	3.0490	3.0490	-0.1074	8.47	2.48	-0.750			
0.8085	51744.32	3.0460	3.0460	-0.1067	8.48	2.49	-0.750			
0.8088	51764.63	3.0430	3.0430	-0.1060	8.48	2.49	-0.750			
0.8091	51784.71	3.0400	3.0402	-0.1050	8.49	2.50	-0.750			
0.8095	51804.85	3.0370	3.0371	-0.1042	8.49	2.50	-0.750			
0.8098	51824.88	3.0340	3.0340	-0.1036	8.50	2.51	-0.750			
0.8101	51844.69	3.0310	3.0310	-0.1029	8.50	2.51	-0.750			
0.8104	51864.32	3.0280	3.0280	-0.1020	8.51	2.52	-0.750			
0.8107	51883.84	3.0250	3.0249	-0.1013	8.51	2.52	-0.750			
0.8110	51903.28	3.0220	3.0221	-0.1007	8.52	2.53	-0.750			
0.8113	51922.57	3.0190	3.0190	-0.0998	8.52	2.53	-0.750			
0.8116	51941.62	3.0160	3.0161	-0.0989	8.53	2.54	-0.750			
0.8119	51960.54	3.0130	3.0129	-0.0981	8.53	2.54	-0.750			
0.8122	51979.36	3.0100	3.0101	-0.0972	8.54	2.55	-0.750			
0.8125	51997.92	3.0070	3.0070	-0.0962	8.54	2.55	-0.750			
0.8128	52016.26	3.0040	3.0041	-0.0945	8.54	2.55	-0.750			
