Ah_balance (normalized)	Ah_balance (mAh)	Voltage - fit (V)	Voltage -  interpolate (V)	dQ/dV (1/V)	Temperature (°C)	Temperature - diff (°C)	Current (C)	R_DC 0ms (mOhm)	R_DC 50ms (mOhm)	R_DC 50 ms PEC (mOhm)
0.0955	6113.28	4.1980	4.1997	0.4524	8.04	2.06	0.750			
0.0976	6244.92	4.1950	4.1968	0.7344	8.03	2.05	0.750			
0.1000	6400.80	4.1920	4.1934	0.7855	8.03	2.05	0.750			
0.1024	6556.76	4.1890	4.1901	0.7940	8.02	2.04	0.750			
0.1052	6730.91	4.1860	4.1862	0.8190	8.01	2.03	0.750			
0.1077	6892.96	4.1830	4.1825	0.8311	8.01	2.03	0.750			
0.1095	7007.85	4.1800	4.1800	0.7202	8.00	2.02	0.750			
0.1117	7149.37	4.1770	4.1770	0.7237	7.99	2.01	0.750			
0.1139	7289.59	4.1740	4.1740	0.7270	7.99	2.01	0.750			
0.1161	7430.96	4.1710	4.1709	0.7217	7.98	2.00	0.750			
0.1183	7569.81	4.1680	4.1683	0.7193	7.97	1.99	0.750			
0.1204	7707.40	4.1650	4.1651	0.7149	7.97	1.99	0.750			
0.1226	7843.69	4.1620	4.1619	0.7076	7.96	1.98	0.750			
0.1247	7978.79	4.1590	4.1590	0.7018	7.96	1.98	0.750			
0.1267	8110.52	4.1560	4.1561	0.7053	7.95	1.97	0.750			
0.1288	8245.10	4.1530	4.1532	0.7122	7.95	1.97	0.750			
0.1310	8383.76	4.1500	4.1498	0.7233	7.94	1.96	0.750			
0.1332	8523.41	4.1470	4.1470	0.7274	7.94	1.96	0.750			
0.1354	8664.92	4.1440	4.1441	0.7340	7.93	1.95	0.750			
0.1376	8808.20	4.1410	4.1410	0.7357	7.93	1.95	0.750			
0.1399	8950.46	4.1380	4.1380	0.7388	7.92	1.94	0.750			
0.1420	9089.08	4.1350	4.1351	0.7391	7.92	1.94	0.750			
0.1442	9230.88	4.1320	4.1317	0.7457	7.91	1.93	0.750			
0.1465	9374.88	4.1290	4.1289	0.7509	7.90	1.92	0.750			
0.1488	9520.30	4.1260	4.1261	0.7588	7.90	1.92	0.750			
0.1511	9668.15	4.1230	4.1231	0.7650	7.89	1.91	0.750			
0.1534	9817.01	4.1200	4.1199	0.7638	7.88	1.90	0.750			
0.1557	9963.20	4.1170	4.1171	0.7591	7.87	1.89	0.750			
0.1579	10107.48	4.1140	4.1142	0.7613	7.87	1.89	0.750			
0.1602	10252.65	4.1110	4.1111	0.7619	7.86	1.88	0.750			
0.1625	10398.79	4.1080	4.1079	0.7661	7.86	1.88	0.750			
0.1648	10544.00	4.1050	4.1050	0.7698	7.85	1.87	0.750			
0.1671	10693.36	4.1020	4.1020	0.7747	7.85	1.87	0.750			
0.1695	10845.66	4.0990	4.0991	0.7813	7.84	1.86	0.750			
0.1718	10995.01	4.0960	4.0960	0.7846	7.83	1.85	0.750			
0.1742	11146.63	4.0930	4.0929	0.7773	7.83	1.85	0.750			
0.1765	11295.95	4.0900	4.0900	0.7888	7.82	1.84	0.750			
0.1788	11445.16	4.0870	4.0871	0.7956	7.82	1.84	0.750			
0.1812	11598.99	4.0840	4.0838	0.8022	7.81	1.83	0.750			
0.1837	11755.72	4.0810	4.0812	0.8033	7.80	1.82	0.750			
0.1861	11911.36	4.0780	4.0781	0.8051	7.80	1.82	0.750			
0.1885	12064.41	4.0750	4.0751	0.8082	7.79	1.81	0.750			
0.1910	12221.21	4.0720	4.0720	0.8148	7.78	1.80	0.750			
0.1934	12375.98	4.0690	4.0689	0.8110	7.77	1.79	0.750			
0.1958	12531.91	4.0660	4.0660	0.8074	7.77	1.79	0.750			
0.1983	12690.06	4.0630	4.0631	0.8064	7.76	1.78	0.750			
0.2007	12844.32	4.0600	4.0601	0.8081	7.76	1.78	0.750			
0.2031	12996.48	4.0570	4.0570	0.8093	7.75	1.77	0.750			
0.2055	13149.24	4.0540	4.0539	0.8103	7.74	1.76	0.750			
0.2079	13304.59	4.0510	4.0512	0.8260	7.74	1.76	0.750			
0.2104	13466.04	4.0480	4.0480	0.8403	7.73	1.75	0.750			
0.2130	13631.92	4.0450	4.0450	0.8480	7.73	1.75	0.750			
0.2156	13795.88	4.0420	4.0420	0.8497	7.72	1.74	0.750			
0.2181	13959.17	4.0390	4.0392	0.8551	7.71	1.73	0.750			
0.2207	14124.49	4.0360	4.0359	0.8525	7.71	1.73	0.750			
0.2233	14289.44	4.0330	4.0329	0.8434	7.70	1.72	0.750			
0.2257	14447.66	4.0300	4.0300	0.8470	7.69	1.71	0.750			
0.2283	14610.10	4.0270	4.0272	0.8531	7.68	1.70	0.750			
0.2309	14774.49	4.0240	4.0238	0.8539	7.67	1.69	0.750			
0.2334	14938.01	4.0210	4.0211	0.8563	7.67	1.69	0.750			
0.2360	15101.88	4.0180	4.0181	0.8572	7.66	1.68	0.750			
0.2386	15268.18	4.0150	4.0151	0.8668	7.65	1.67	0.750			
0.2412	15433.94	4.0120	4.0120	0.8713	7.65	1.67	0.750			
0.2438	15601.57	4.0090	4.0089	0.8779	7.64	1.66	0.750			
0.2464	15772.51	4.0060	4.0059	0.8837	7.63	1.65	0.750			
0.2491	15944.12	4.0030	4.0031	0.8860	7.63	1.65	0.750			
0.2518	16114.01	4.0000	3.9999	0.8922	7.62	1.64	0.750			
0.2545	16286.30	3.9970	3.9970	0.8943	7.61	1.63	0.750			
0.2571	16454.92	3.9940	3.9938	0.9092	7.60	1.62	0.750			
0.2598	16630.23	3.9910	3.9910	0.9076	7.59	1.61	0.750			
0.2626	16807.59	3.9880	3.9880	0.9155	7.59	1.61	0.750			
0.2654	16986.06	3.9850	3.9851	0.9242	7.58	1.60	0.750			
0.2682	17163.37	3.9820	3.9823	0.9198	7.57	1.59	0.750			
0.2709	17339.94	3.9790	3.9790	0.9210	7.57	1.59	0.750			
0.2737	17516.03	3.9760	3.9760	0.9210	7.56	1.58	0.750			
0.2764	17690.50	3.9730	3.9731	0.9199	7.55	1.57	0.750			
0.2793	17872.27	3.9700	3.9699	0.9318	7.54	1.56	0.750			
0.2820	18048.62	3.9670	3.9669	0.9274	7.53	1.55	0.750			
0.2848	18227.54	3.9640	3.9641	0.9215	7.52	1.54	0.750			
0.2876	18403.74	3.9610	3.9610	0.9282	7.52	1.54	0.750			
0.2903	18580.13	3.9580	3.9580	0.9377	7.51	1.53	0.750			
0.2931	18759.37	3.9550	3.9552	0.9444	7.50	1.52	0.750			
0.2960	18942.93	3.9520	3.9520	0.9596	7.50	1.52	0.750			
0.2989	19130.80	3.9490	3.9491	0.9781	7.49	1.51	0.750			
0.3019	19319.83	3.9460	3.9460	0.9932	7.48	1.50	0.750			
0.3049	19514.38	3.9430	3.9431	1.0042	7.48	1.50	0.750			
0.3079	19706.80	3.9400	3.9401	1.0033	7.47	1.49	0.750			
0.3109	19900.03	3.9370	3.9369	1.0124	7.46	1.48	0.750			
0.3140	20097.28	3.9340	3.9342	1.0143	7.45	1.47	0.750			
0.3170	20291.13	3.9310	3.9311	1.0137	7.44	1.46	0.750			
0.3201	20488.78	3.9280	3.9279	1.0163	7.43	1.45	0.750			
0.3231	20680.80	3.9250	3.9251	1.0167	7.42	1.44	0.750			
0.3261	20873.59	3.9220	3.9219	1.0317	7.41	1.43	0.750			
0.3292	21071.37	3.9190	3.9190	1.0441	7.41	1.43	0.750			
0.3324	21272.83	3.9160	3.9159	1.0579	7.40	1.42	0.750			
0.3356	21479.74	3.9130	3.9132	1.0835	7.39	1.41	0.750			
0.3389	21692.10	3.9100	3.9099	1.1007	7.38	1.40	0.750			
0.3423	21906.79	3.9070	3.9069	1.1070	7.37	1.39	0.750			
0.3456	22119.55	3.9040	3.9041	1.1041	7.36	1.38	0.750			
0.3489	22330.03	3.9010	3.9010	1.1186	7.35	1.37	0.750			
0.3523	22545.65	3.8980	3.8979	1.1311	7.34	1.36	0.750			
0.3557	22762.60	3.8950	3.8950	1.1430	7.32	1.34	0.750			
0.3591	22981.83	3.8920	3.8920	1.1518	7.31	1.33	0.750			
0.3626	23208.20	3.8890	3.8891	1.1685	7.30	1.32	0.750			
0.3661	23433.36	3.8860	3.8860	1.1922	7.29	1.31	0.750			
0.3697	23663.64	3.8830	3.8830	1.1989	7.28	1.30	0.750			
0.3734	23894.74	3.8800	3.8799	1.2147	7.27	1.29	0.750			
0.3770	24130.05	3.8770	3.8770	1.2323	7.26	1.28	0.750			
0.3808	24371.14	3.8740	3.8740	1.2366	7.25	1.27	0.750			
0.3845	24607.47	3.8710	3.8711	1.2527	7.24	1.26	0.750			
0.3883	24848.02	3.8680	3.8681	1.2677	7.23	1.25	0.750			
0.3921	25091.88	3.8650	3.8645	1.2783	7.22	1.24	0.750	0.416	0.875	
0.3959	25335.84	3.8620	3.8619	1.3051	7.21	1.23	0.750			
0.3999	25590.43	3.8590	3.8591	1.3420	7.19	1.21	0.750			
0.4040	25854.36	3.8560	3.8561	1.3671	7.18	1.20	0.750			
0.4081	26118.87	3.8530	3.8530	1.4110	7.17	1.19	0.750			
0.4124	26392.00	3.8500	3.8500	1.4285	7.15	1.17	0.750			
0.4168	26673.04	3.8470	3.8470	1.4438	7.14	1.16	0.750			
0.4211	26951.54	3.8440	3.8442	1.4678	7.12	1.14	0.750			
0.4255	27233.83	3.8410	3.8410	1.4791	7.11	1.13	0.750			
0.4300	27518.62	3.8380	3.8381	1.4959	7.09	1.11	0.750			
0.4345	27805.95	3.8350	3.8351	1.5198	7.07	1.09	0.750			
0.4390	28098.23	3.8320	3.8321	1.5310	7.05	1.07	0.750			
0.4437	28395.54	3.8290	3.8287	1.5717	7.03	1.05	0.750			
0.4484	28695.89	3.8260	3.8263	1.6028	7.02	1.04	0.750			
0.4533	29011.99	3.8230	3.8229	1.6384	7.00	1.02	0.750			
0.4583	29330.23	3.8200	3.8198	1.6874	6.98	1.00	0.750			
0.4635	29665.08	3.8170	3.8169	1.7012	6.96	0.98	0.750			
0.4686	29990.44	3.8140	3.8140	1.7263	6.94	0.96	0.750			
0.4739	30327.09	3.8110	3.8108	1.7405	6.92	0.94	0.750			
0.4790	30653.87	3.8080	3.8079	1.7721	6.90	0.92	0.750			
0.4843	30995.38	3.8050	3.8049	1.7889	6.88	0.90	0.750			
0.4897	31340.73	3.8020	3.8020	1.8306	6.86	0.88	0.750			
0.4953	31699.46	3.7990	3.7992	1.8847	6.84	0.86	0.750			
0.5012	32079.28	3.7960	3.7958	1.9224	6.82	0.84	0.750			
0.5070	32447.70	3.7930	3.7930	1.9438	6.80	0.82	0.750			
0.5129	32823.63	3.7900	3.7900	1.9650	6.78	0.80	0.750			
0.5189	33211.09	3.7870	3.7867	1.9695	6.75	0.77	0.750			
0.5246	33577.49	3.7840	3.7841	1.9586	6.73	0.75	0.750			
0.5305	33951.91	3.7810	3.7812	1.9971	6.71	0.73	0.750			
0.5366	34339.41	3.7780	3.7778	2.0466	6.68	0.70	0.750			
0.5428	34736.80	3.7750	3.7751	2.0988	6.65	0.67	0.750			
0.5492	35147.42	3.7720	3.7721	2.1644	6.63	0.65	0.750			
0.5558	35572.17	3.7690	3.7689	2.2147	6.60	0.62	0.750			
0.5626	36003.77	3.7660	3.7661	2.2660	6.57	0.59	0.750			
0.5694	36440.15	3.7630	3.7631	2.3099	6.54	0.56	0.750			
0.5764	36890.15	3.7600	3.7600	2.3561	6.51	0.53	0.750			
0.5835	37340.87	3.7570	3.7570	2.4570	6.48	0.50	0.750			
0.5909	37819.52	3.7540	3.7540	2.5535	6.45	0.47	0.750			
0.5988	38320.44	3.7510	3.7510	2.7218	6.42	0.44	0.750			
0.6071	38857.34	3.7480	3.7480	2.8459	6.39	0.41	0.750			
0.6160	39422.33	3.7450	3.7452	2.9086	6.36	0.38	0.750			
0.6248	39988.93	3.7420	3.7421	3.0091	6.33	0.35	0.750			
0.6337	40559.32	3.7390	3.7390	3.0773	6.29	0.31	0.750			
0.6434	41178.66	3.7360	3.7360	3.1224	6.26	0.28	0.750			
0.6528	41778.73	3.7330	3.7332	3.0450	6.23	0.25	0.750			
0.6618	42355.78	3.7300	3.7299	2.8211	6.20	0.22	0.750			
0.6699	42871.41	3.7270	3.7271	2.5484	6.18	0.20	0.750			
0.6771	43336.73	3.7240	3.7239	2.3046	6.16	0.18	0.750			
0.6835	43741.19	3.7210	3.7208	2.0233	6.15	0.17	0.750			
0.6891	44104.29	3.7180	3.7182	1.8044	6.13	0.15	0.750			
0.6942	44426.17	3.7150	3.7151	1.5960	6.12	0.14	0.750			
0.6986	44712.35	3.7120	3.7120	1.4465	6.11	0.13	0.750			
0.7025	44957.50	3.7090	3.7090	1.3146	6.10	0.12	0.750			
0.7061	45189.38	3.7060	3.7058	1.2121	6.09	0.11	0.750			
0.7095	45406.25	3.7030	3.7031	1.1539	6.08	0.10	0.750			
0.7128	45618.52	3.7000	3.7000	1.1175	6.08	0.10	0.750			
0.7161	45829.09	3.6970	3.6970	1.0974	6.07	0.09	0.750			
0.7194	46038.53	3.6940	3.6936	1.0780	6.06	0.08	0.750			
0.7225	46241.87	3.6910	3.6911	1.0580	6.06	0.08	0.750			
0.7257	46444.47	3.6880	3.6881	1.0362	6.05	0.07	0.750			
0.7288	46643.09	3.6850	3.6850	1.0211	6.05	0.07	0.750			
0.7318	46836.31	3.6820	3.6817	0.9962	6.04	0.06	0.750			
0.7347	47023.25	3.6790	3.6789	0.9731	6.04	0.06	0.750			
0.7376	47208.35	3.6760	3.6760	0.9576	6.03	0.05	0.750			
0.7405	47391.12	3.6730	3.6731	0.9448	6.03	0.05	0.750			
0.7433	47569.53	3.6700	3.6699	0.9217	6.02	0.04	0.750			
0.7461	47747.35	3.6670	3.6670	0.9145	6.02	0.04	0.750			
0.7487	47919.21	3.6640	3.6640	0.8956	6.01	0.03	0.750			
0.7514	48089.71	3.6610	3.6610	0.8893	6.00	0.02	0.750			
0.7540	48257.29	3.6580	3.6580	0.8854	6.00	0.02	0.750			
0.7566	48425.52	3.6550	3.6548	0.8890	5.99	0.01	0.750			
0.7593	48596.01	3.6520	3.6520	0.8930	5.99	0.01	0.750			
0.7620	48768.92	3.6490	3.6490	0.9064	5.99	0.01	0.750			
0.7648	48944.32	3.6460	3.6460	0.9163	5.98	0.00	0.750			
0.7676	49126.45	3.6430	3.6429	0.9091	5.98	0.00	0.750			
0.7704	49304.15	3.6400	3.6399	0.8865	5.98	0.00	0.750			
0.7731	49479.15	3.6370	3.6370	0.8292	5.98	0.00	0.750			
0.7757	49642.06	3.6340	3.6341	0.7643	5.98	0.00	0.750			
0.7779	49784.86	3.6310	3.6311	0.6683	5.98	0.00	0.750			
0.7798	49904.21	3.6280	3.6280	0.5639	5.98	0.00	0.750			
0.7811	49987.68	3.6250	3.6255	0.4697	5.98	0.00	0.750			
0.7823	50069.82	3.6220	3.6222	0.3897	5.98	0.00	0.750			
0.7833	50132.44	3.6190	3.6190	0.3013	5.98	0.00	0.750			
0.7841	50181.71	3.6160	3.6153	0.2355	5.98	0.00	0.750			
0.7846	50212.23	3.6130	3.6114	0.1652	5.98	0.00	0.750			
0.7849	50232.86	3.5950	3.5690	-0.1020	5.98	0.00	0.749			
0.7849	50236.31	3.6100	3.5362	0.1137	5.98	0.00	0.745			
0.7851	50247.08	3.6070	3.4339	0.0649	5.98	0.00	0.734			
0.7851	50248.43	3.5980	3.4211	-0.0602	5.98	0.00	0.732			
0.7852	50255.54	3.6040	3.3535	0.0232	5.98	0.00	0.725			
0.7852	50255.99	3.6010	3.3492	-0.0185	5.98	0.00	0.724			
