Ah_balance (normalized)	Ah_balance (mAh)	Voltage - fit (V)	Voltage -  interpolate (V)	dQ/dV (1/V)	Temperature (°C)	Temperature - diff (°C)	Current (C)	R_DC 0ms (mOhm)	R_DC 50ms (mOhm)	R_DC 50 ms PEC (mOhm)
0.0002	9.95	4.1040	4.1023	-0.0184	5.99	0.00	-0.750			
0.0003	16.72	4.1010	4.1004	-0.0521	5.99	0.00	-0.750			
0.0005	31.75	4.0980	4.0974	-0.0844	5.99	0.00	-0.750			
0.0008	51.34	4.0950	4.0948	-0.1123	5.99	0.00	-0.750			
0.0012	75.97	4.0920	4.0920	-0.1390	5.99	0.00	-0.750			
0.0016	105.25	4.0890	4.0891	-0.1660	5.99	0.00	-0.750			
0.0022	139.63	4.0860	4.0861	-0.1867	5.99	0.00	-0.750			
0.0028	180.18	4.0830	4.0830	-0.2106	5.99	0.00	-0.750			
0.0035	222.52	4.0800	4.0802	-0.2314	5.99	0.00	-0.750			
0.0042	268.50	4.0770	4.0770	-0.2533	5.99	-0.00	-0.750			
0.0050	318.68	4.0740	4.0741	-0.2766	5.99	-0.00	-0.750			
0.0058	373.53	4.0710	4.0710	-0.2986	5.99	-0.00	-0.750			
0.0068	433.46	4.0680	4.0679	-0.3191	5.99	-0.00	-0.750			
0.0078	496.61	4.0650	4.0651	-0.3483	5.99	-0.00	-0.750			
0.0089	566.45	4.0620	4.0621	-0.3707	5.99	-0.00	-0.750			
0.0100	640.24	4.0590	4.0588	-0.3904	5.99	-0.00	-0.750			
0.0112	717.52	4.0560	4.0562	-0.4106	5.98	-0.01	-0.750			
0.0125	797.60	4.0530	4.0531	-0.4403	5.98	-0.01	-0.750			
0.0138	885.26	4.0500	4.0498	-0.4588	5.98	-0.01	-0.750			
0.0152	975.78	4.0470	4.0468	-0.4829	5.98	-0.01	-0.750			
0.0167	1069.86	4.0440	4.0443	-0.4991	5.98	-0.01	-0.750			
0.0183	1170.35	4.0410	4.0408	-0.5208	5.98	-0.01	-0.750			
0.0199	1271.25	4.0380	4.0380	-0.5400	5.99	-0.00	-0.750			
0.0215	1374.80	4.0350	4.0350	-0.5582	5.99	-0.00	-0.750			
0.0232	1484.75	4.0320	4.0319	-0.5736	5.99	0.00	-0.750			
0.0250	1598.27	4.0290	4.0289	-0.5892	5.99	0.00	-0.750			
0.0268	1713.22	4.0260	4.0261	-0.5967	6.00	0.01	-0.750			
0.0286	1829.80	4.0230	4.0229	-0.6074	6.00	0.01	-0.750			
0.0304	1947.02	4.0200	4.0200	-0.6179	6.00	0.01	-0.750			
0.0323	2065.01	4.0170	4.0170	-0.6272	6.01	0.02	-0.750			
0.0341	2183.59	4.0140	4.0140	-0.6412	6.01	0.02	-0.750			
0.0361	2310.95	4.0110	4.0110	-0.6512	6.02	0.03	-0.750			
0.0381	2438.06	4.0080	4.0080	-0.6641	6.02	0.03	-0.750			
0.0401	2567.02	4.0050	4.0049	-0.6722	6.03	0.04	-0.750			
0.0421	2696.72	4.0020	4.0021	-0.6790	6.03	0.04	-0.750			
0.0442	2827.49	3.9990	3.9989	-0.6849	6.04	0.05	-0.750			
0.0462	2958.69	3.9960	3.9959	-0.6908	6.04	0.05	-0.750			
0.0483	3091.90	3.9930	3.9931	-0.6933	6.05	0.06	-0.750			
0.0504	3228.15	3.9900	3.9900	-0.7072	6.05	0.06	-0.750			
0.0526	3363.35	3.9870	3.9870	-0.7129	6.06	0.07	-0.750			
0.0547	3501.85	3.9840	3.9841	-0.7203	6.06	0.07	-0.750			
0.0569	3640.65	3.9810	3.9809	-0.7241	6.07	0.08	-0.750			
0.0591	3781.38	3.9780	3.9780	-0.7285	6.08	0.09	-0.750			
0.0613	3922.28	3.9750	3.9750	-0.7300	6.08	0.09	-0.750			
0.0635	4063.75	3.9720	3.9719	-0.7276	6.09	0.10	-0.750			
0.0657	4202.29	3.9690	3.9690	-0.7248	6.10	0.11	-0.750			
0.0678	4340.22	3.9660	3.9659	-0.7260	6.10	0.11	-0.750			
0.0700	4479.53	3.9630	3.9630	-0.7267	6.11	0.12	-0.750			
0.0722	4618.61	3.9600	3.9598	-0.7320	6.12	0.13	-0.750			
0.0744	4759.05	3.9570	3.9570	-0.7360	6.13	0.14	-0.750			
0.0766	4902.58	3.9540	3.9540	-0.7430	6.13	0.14	-0.750			
0.0788	5046.15	3.9510	3.9512	-0.7474	6.14	0.15	-0.750			
0.0811	5190.05	3.9480	3.9480	-0.7482	6.15	0.16	-0.750			
0.0834	5334.94	3.9450	3.9450	-0.7469	6.15	0.16	-0.750			
0.0856	5477.62	3.9420	3.9420	-0.7513	6.16	0.17	-0.750			
0.0878	5621.40	3.9390	3.9390	-0.7569	6.17	0.18	-0.750			
0.0901	5767.25	3.9360	3.9359	-0.7561	6.18	0.19	-0.750			
0.0924	5912.87	3.9330	3.9330	-0.7581	6.18	0.19	-0.750			
0.0947	6057.93	3.9300	3.9301	-0.7610	6.19	0.20	-0.750			
0.0970	6204.93	3.9270	3.9270	-0.7652	6.20	0.21	-0.750			
0.0992	6351.33	3.9240	3.9240	-0.7635	6.20	0.21	-0.750			
0.1015	6498.36	3.9210	3.9210	-0.7689	6.21	0.22	-0.750			
0.1039	6646.61	3.9180	3.9182	-0.7651	6.22	0.23	-0.750			
0.1061	6793.38	3.9150	3.9149	-0.7733	6.23	0.24	-0.750			
0.1085	6941.39	3.9120	3.9122	-0.7755	6.23	0.24	-0.750			
0.1108	7090.77	3.9090	3.9089	-0.7773	6.24	0.25	-0.750			
0.1131	7241.00	3.9060	3.9059	-0.7813	6.25	0.26	-0.750			
0.1155	7391.97	3.9030	3.9030	-0.7848	6.26	0.27	-0.750			
0.1178	7542.26	3.9000	3.9000	-0.7882	6.27	0.28	-0.750			
0.1202	7694.77	3.8970	3.8970	-0.7931	6.28	0.29	-0.750			
0.1226	7844.72	3.8940	3.8940	-0.7830	6.29	0.30	-0.750			
0.1250	7996.82	3.8910	3.8910	-0.7848	6.30	0.31	-0.750			
0.1273	8146.75	3.8880	3.8880	-0.7897	6.31	0.32	-0.750			
0.1296	8296.67	3.8850	3.8850	-0.7944	6.32	0.33	-0.750			
0.1320	8449.54	3.8820	3.8820	-0.7945	6.33	0.34	-0.750			
0.1344	8603.45	3.8790	3.8789	-0.7984	6.34	0.35	-0.750			
0.1369	8759.49	3.8760	3.8760	-0.7972	6.35	0.36	-0.750			
0.1393	8913.28	3.8730	3.8730	-0.8014	6.36	0.37	-0.750			
0.1417	9065.74	3.8700	3.8702	-0.8017	6.37	0.38	-0.750			
0.1440	9217.85	3.8670	3.8668	-0.7991	6.38	0.39	-0.750			
0.1464	9371.16	3.8640	3.8639	-0.8051	6.39	0.40	-0.750			
0.1489	9528.29	3.8610	3.8611	-0.8070	6.39	0.40	-0.750			
0.1513	9686.03	3.8580	3.8579	-0.8105	6.40	0.41	-0.750			
0.1538	9841.15	3.8550	3.8552	-0.8060	6.41	0.42	-0.750			
0.1561	9993.00	3.8520	3.8520	-0.8007	6.42	0.43	-0.750			
0.1585	10145.92	3.8490	3.8489	-0.8086	6.42	0.43	-0.750			
0.1610	10301.15	3.8460	3.8460	-0.8079	6.43	0.44	-0.750			
0.1634	10457.93	3.8430	3.8429	-0.8127	6.44	0.45	-0.750			
0.1658	10613.64	3.8400	3.8402	-0.8167	6.45	0.46	-0.750			
0.1683	10771.70	3.8370	3.8370	-0.8228	6.46	0.47	-0.750			
0.1708	10929.73	3.8340	3.8339	-0.8234	6.47	0.48	-0.750			
0.1733	11088.58	3.8310	3.8310	-0.8229	6.48	0.49	-0.750			
0.1757	11245.47	3.8280	3.8281	-0.8173	6.49	0.50	-0.750			
0.1782	11406.10	3.8250	3.8251	-0.8231	6.51	0.52	-0.750			
0.1807	11563.01	3.8220	3.8219	-0.8195	6.52	0.53	-0.750			
0.1831	11716.39	3.8190	3.8189	-0.8207	6.52	0.53	-0.750			
0.1855	11874.42	3.8160	3.8160	-0.8254	6.53	0.54	-0.750			
0.1880	12033.39	3.8130	3.8130	-0.8277	6.54	0.55	-0.750			
0.1906	12195.97	3.8100	3.8099	-0.8341	6.55	0.56	-0.750			
0.1931	12356.48	3.8070	3.8070	-0.8337	6.56	0.57	-0.750			
0.1956	12515.67	3.8040	3.8039	-0.8323	6.57	0.58	-0.750			
0.1981	12675.42	3.8010	3.8011	-0.8293	6.58	0.59	-0.750			
0.2005	12831.75	3.7980	3.7980	-0.8284	6.59	0.60	-0.750			
0.2030	12994.14	3.7950	3.7950	-0.8316	6.60	0.61	-0.750			
0.2055	13153.81	3.7920	3.7920	-0.8309	6.61	0.62	-0.750			
0.2080	13314.55	3.7890	3.7890	-0.8254	6.62	0.63	-0.750			
0.2105	13471.44	3.7860	3.7861	-0.8215	6.63	0.64	-0.750			
0.2129	13626.33	3.7830	3.7830	-0.8230	6.64	0.65	-0.750			
0.2154	13784.05	3.7800	3.7798	-0.8289	6.65	0.66	-0.750			
0.2178	13941.31	3.7770	3.7770	-0.8302	6.66	0.67	-0.750			
0.2203	14101.87	3.7740	3.7740	-0.8476	6.67	0.68	-0.750			
0.2229	14267.32	3.7710	3.7710	-0.8576	6.68	0.69	-0.750			
0.2255	14434.09	3.7680	3.7679	-0.8677	6.69	0.70	-0.750			
0.2282	14602.46	3.7650	3.7650	-0.8711	6.70	0.71	-0.750			
0.2308	14769.98	3.7620	3.7620	-0.8747	6.71	0.72	-0.750			
0.2334	14940.26	3.7590	3.7589	-0.8766	6.71	0.72	-0.750			
0.2361	15109.86	3.7560	3.7560	-0.8706	6.72	0.73	-0.750			
0.2387	15274.42	3.7530	3.7531	-0.8627	6.73	0.74	-0.750			
0.2413	15442.19	3.7500	3.7501	-0.8598	6.74	0.75	-0.750			
0.2438	15604.28	3.7470	3.7470	-0.8542	6.75	0.76	-0.750			
0.2464	15767.01	3.7440	3.7439	-0.8544	6.76	0.77	-0.750			
0.2489	15929.76	3.7410	3.7410	-0.8558	6.77	0.78	-0.750			
0.2515	16094.58	3.7380	3.7379	-0.8646	6.78	0.79	-0.750			
0.2541	16261.96	3.7350	3.7351	-0.8732	6.79	0.80	-0.750			
0.2567	16429.75	3.7320	3.7321	-0.8803	6.80	0.81	-0.750			
0.2594	16601.88	3.7290	3.7289	-0.8820	6.81	0.82	-0.750			
0.2620	16770.93	3.7260	3.7260	-0.8842	6.82	0.83	-0.750			
0.2647	16941.76	3.7230	3.7230	-0.8847	6.82	0.83	-0.750			
0.2673	17109.27	3.7200	3.7202	-0.8846	6.83	0.84	-0.750			
0.2700	17277.01	3.7170	3.7169	-0.8933	6.84	0.85	-0.750			
0.2726	17448.78	3.7140	3.7140	-0.9059	6.85	0.86	-0.750			
0.2754	17625.40	3.7110	3.7108	-0.9084	6.87	0.88	-0.750			
0.2782	17802.74	3.7080	3.7080	-0.9159	6.88	0.89	-0.750			
0.2809	17979.73	3.7050	3.7051	-0.9210	6.88	0.89	-0.750			
0.2837	18158.05	3.7020	3.7020	-0.9250	6.89	0.90	-0.750			
0.2864	18332.30	3.6990	3.6989	-0.9234	6.90	0.91	-0.750			
0.2892	18509.89	3.6960	3.6960	-0.9242	6.90	0.91	-0.750			
0.2920	18688.05	3.6930	3.6930	-0.9287	6.91	0.92	-0.750			
0.2948	18868.64	3.6900	3.6900	-0.9405	6.92	0.93	-0.750			
0.2976	19049.45	3.6870	3.6871	-0.9447	6.93	0.94	-0.750			
0.3005	19230.87	3.6840	3.6839	-0.9490	6.95	0.96	-0.750			
0.3033	19413.30	3.6810	3.6811	-0.9577	6.96	0.97	-0.750			
0.3062	19597.57	3.6780	3.6779	-0.9690	6.97	0.98	-0.750			
0.3092	19785.84	3.6750	3.6750	-0.9792	6.97	0.98	-0.750			
0.3121	19973.83	3.6720	3.6719	-0.9843	6.98	0.99	-0.750			
0.3150	20162.61	3.6690	3.6690	-0.9868	6.99	1.00	-0.750			
0.3181	20355.49	3.6660	3.6660	-0.9959	7.00	1.01	-0.750			
0.3211	20549.46	3.6630	3.6629	-1.0011	7.00	1.01	-0.750			
0.3241	20741.15	3.6600	3.6600	-1.0042	7.01	1.02	-0.750			
0.3271	20933.42	3.6570	3.6569	-1.0082	7.02	1.03	-0.750			
0.3301	21128.22	3.6540	3.6541	-1.0158	7.03	1.04	-0.750			
0.3332	21322.00	3.6510	3.6508	-1.0268	7.04	1.05	-0.750			
0.3362	21519.88	3.6480	3.6480	-1.0363	7.05	1.06	-0.750			
0.3394	21718.48	3.6450	3.6450	-1.0432	7.05	1.06	-0.750			
0.3425	21922.07	3.6420	3.6421	-1.0644	7.06	1.07	-0.750			
0.3458	22128.94	3.6390	3.6391	-1.0708	7.07	1.08	-0.750			
0.3490	22336.68	3.6360	3.6359	-1.0786	7.08	1.09	-0.750			
0.3523	22544.54	3.6330	3.6330	-1.0877	7.09	1.10	-0.750			
0.3555	22753.85	3.6300	3.6301	-1.0911	7.10	1.11	-0.750			
0.3588	22965.53	3.6270	3.6269	-1.0965	7.11	1.12	-0.750			
0.3621	23174.95	3.6240	3.6240	-1.0960	7.12	1.13	-0.750			
0.3654	23382.89	3.6210	3.6211	-1.1026	7.13	1.14	-0.750			
0.3687	23596.31	3.6180	3.6180	-1.1179	7.14	1.15	-0.750			
0.3721	23811.75	3.6150	3.6148	-1.1319	7.14	1.15	-0.750			
0.3755	24030.26	3.6120	3.6120	-1.1443	7.15	1.16	-0.750			
0.3789	24250.88	3.6090	3.6092	-1.1673	7.16	1.17	-0.750			
0.3824	24476.67	3.6060	3.6061	-1.1974	7.17	1.18	-0.750			
0.3861	24712.42	3.6030	3.6028	-1.2023	7.18	1.19	-0.750			
0.3897	24941.75	3.6000	3.6000	-1.2072	7.19	1.20	-0.750			
0.3934	25177.38	3.5970	3.5970	-1.2195	7.19	1.20	-0.750			
0.3971	25411.79	3.5940	3.5938	-1.2107	7.20	1.21	-0.750	0.408	0.922	
0.4007	25645.06	3.5910	3.5909	-1.2135	7.21	1.22	-0.750			
0.4043	25872.87	3.5880	3.5883	-1.2202	7.22	1.23	-0.750			
0.4079	26103.27	3.5850	3.5849	-1.2355	7.23	1.24	-0.750			
0.4117	26345.77	3.5820	3.5819	-1.2577	7.23	1.24	-0.750			
0.4155	26589.61	3.5790	3.5790	-1.2803	7.24	1.25	-0.750			
0.4194	26840.66	3.5760	3.5760	-1.3040	7.25	1.26	-0.750			
0.4234	27096.11	3.5730	3.5728	-1.3148	7.26	1.27	-0.750			
0.4273	27349.85	3.5700	3.5701	-1.3156	7.27	1.28	-0.750			
0.4313	27601.20	3.5670	3.5669	-1.3191	7.28	1.29	-0.750			
0.4352	27852.75	3.5640	3.5640	-1.3235	7.29	1.30	-0.750			
0.4392	28106.47	3.5610	3.5610	-1.3413	7.29	1.30	-0.750			
0.4432	28362.42	3.5580	3.5579	-1.3460	7.30	1.31	-0.750			
0.4473	28626.43	3.5550	3.5550	-1.3670	7.31	1.32	-0.750			
0.4514	28890.72	3.5520	3.5520	-1.3811	7.32	1.33	-0.750			
0.4556	29160.22	3.5490	3.5491	-1.3896	7.32	1.33	-0.750			
0.4598	29426.73	3.5460	3.5459	-1.3928	7.33	1.34	-0.750			
0.4639	29690.02	3.5430	3.5430	-1.4026	7.34	1.35	-0.750			
0.4680	29953.88	3.5400	3.5401	-1.4223	7.35	1.36	-0.750			
0.4724	30236.59	3.5370	3.5369	-1.4346	7.36	1.37	-0.750			
0.4768	30516.43	3.5340	3.5339	-1.4513	7.37	1.38	-0.750			
0.4812	30797.85	3.5310	3.5309	-1.4586	7.39	1.40	-0.750			
0.4857	31083.25	3.5280	3.5281	-1.4593	7.40	1.41	-0.750			
0.4900	31362.80	3.5250	3.5249	-1.4539	7.41	1.42	-0.750			
0.4944	31638.75	3.5220	3.5219	-1.4351	7.42	1.43	-0.750			
0.4986	31908.16	3.5190	3.5191	-1.4290	7.43	1.44	-0.750			
0.5029	32188.71	3.5160	3.5160	-1.4432	7.44	1.45	-0.750			
0.5072	32460.65	3.5130	3.5130	-1.4368	7.45	1.46	-0.750			
0.5115	32734.93	3.5100	3.5099	-1.4569	7.45	1.46	-0.750			
0.5159	33017.87	3.5070	3.5071	-1.4710	7.46	1.47	-0.750			
0.5203	33302.26	3.5040	3.5039	-1.4757	7.47	1.48	-0.750			
0.5249	33592.92	3.5010	3.5008	-1.4827	7.49	1.50	-0.750			
0.5294	33879.72	3.4980	3.4980	-1.4586	7.50	1.51	-0.750			
0.5337	34156.76	3.4950	3.4948	-1.4613	7.51	1.52	-0.750			
0.5381	34435.71	3.4920	3.4922	-1.4455	7.52	1.53	-0.750			
0.5423	34705.98	3.4890	3.4889	-1.4248	7.53	1.54	-0.750			
0.5466	34984.88	3.4860	3.4861	-1.4267	7.54	1.55	-0.750			
0.5509	35256.55	3.4830	3.4831	-1.4251	7.55	1.56	-0.750			
0.5552	35530.12	3.4800	3.4800	-1.4326	7.56	1.57	-0.750			
0.5595	35806.86	3.4770	3.4769	-1.4254	7.58	1.59	-0.750			
0.5637	36075.60	3.4740	3.4740	-1.4170	7.59	1.60	-0.750			
0.5680	36353.30	3.4710	3.4711	-1.4123	7.61	1.62	-0.750			
0.5723	36625.07	3.4680	3.4680	-1.4038	7.62	1.63	-0.750			
0.5764	36892.49	3.4650	3.4649	-1.3914	7.63	1.64	-0.750			
0.5806	37155.40	3.4620	3.4620	-1.3682	7.65	1.66	-0.750			
0.5846	37417.06	3.4590	3.4589	-1.3576	7.66	1.67	-0.750			
0.5887	37675.17	3.4560	3.4560	-1.3614	7.67	1.68	-0.750			
0.5927	37933.50	3.4530	3.4530	-1.3530	7.68	1.69	-0.750			
0.5968	38197.54	3.4500	3.4499	-1.3473	7.70	1.71	-0.750			
0.6009	38456.69	3.4470	3.4470	-1.3312	7.71	1.72	-0.750			
0.6049	38712.08	3.4440	3.4442	-1.3233	7.72	1.73	-0.750			
0.6089	38966.43	3.4410	3.4409	-1.3110	7.74	1.75	-0.750			
0.6127	39215.65	3.4380	3.4379	-1.2852	7.75	1.76	-0.750			
0.6165	39458.38	3.4350	3.4352	-1.2644	7.76	1.77	-0.750			
0.6204	39702.76	3.4320	3.4319	-1.2476	7.78	1.79	-0.750			
0.6241	39941.62	3.4290	3.4291	-1.2209	7.79	1.80	-0.750			
0.6277	40173.97	3.4260	3.4259	-1.1902	7.81	1.82	-0.750			
0.6312	40398.38	3.4230	3.4230	-1.1666	7.82	1.83	-0.750			
0.6347	40617.89	3.4200	3.4199	-1.1451	7.83	1.84	-0.750			
0.6380	40833.37	3.4170	3.4170	-1.1241	7.85	1.86	-0.750			
0.6413	41045.75	3.4140	3.4141	-1.1069	7.86	1.87	-0.750			
0.6447	41260.74	3.4110	3.4110	-1.0934	7.88	1.89	-0.750			
0.6480	41470.54	3.4080	3.4080	-1.0659	7.89	1.90	-0.750			
0.6512	41674.66	3.4050	3.4050	-1.0358	7.91	1.92	-0.750			
0.6542	41869.47	3.4020	3.4021	-1.0060	7.92	1.93	-0.750			
0.6571	42057.30	3.3990	3.3989	-0.9772	7.94	1.95	-0.750			
0.6600	42240.66	3.3960	3.3961	-0.9553	7.95	1.96	-0.750			
0.6628	42419.29	3.3930	3.3929	-0.9339	7.96	1.97	-0.750			
0.6656	42598.81	3.3900	3.3900	-0.9204	7.98	1.99	-0.750			
0.6684	42775.97	3.3870	3.3869	-0.8951	7.99	2.00	-0.750			
0.6711	42947.31	3.3840	3.3840	-0.8751	8.00	2.01	-0.750			
0.6736	43111.97	3.3810	3.3811	-0.8464	8.01	2.02	-0.750			
0.6761	43268.84	3.3780	3.3780	-0.8279	8.03	2.04	-0.750			
0.6785	43425.90	3.3750	3.3750	-0.8025	8.04	2.05	-0.750			
0.6809	43578.57	3.3720	3.3719	-0.7826	8.05	2.06	-0.750			
0.6833	43728.38	3.3690	3.3691	-0.7630	8.06	2.07	-0.750			
0.6855	43873.54	3.3660	3.3661	-0.7433	8.08	2.09	-0.750			
0.6877	44013.41	3.3630	3.3629	-0.7145	8.09	2.10	-0.750			
0.6898	44147.97	3.3600	3.3600	-0.6936	8.10	2.11	-0.750			
0.6918	44277.94	3.3570	3.3571	-0.6706	8.11	2.12	-0.750			
0.6939	44406.45	3.3540	3.3538	-0.6561	8.13	2.14	-0.750			
0.6958	44529.49	3.3510	3.3510	-0.6372	8.14	2.15	-0.750			
0.6976	44648.45	3.3480	3.3481	-0.6257	8.15	2.16	-0.750			
0.6995	44767.76	3.3450	3.3449	-0.6141	8.16	2.17	-0.750			
0.7013	44885.36	3.3420	3.3420	-0.6021	8.17	2.18	-0.750			
0.7031	44999.33	3.3390	3.3389	-0.5832	8.18	2.19	-0.750			
0.7048	45110.25	3.3360	3.3361	-0.5732	8.20	2.21	-0.750			
0.7065	45218.77	3.3330	3.3330	-0.5592	8.21	2.22	-0.750			
0.7082	45324.95	3.3300	3.3299	-0.5424	8.22	2.23	-0.750			
0.7098	45426.21	3.3270	3.3270	-0.5279	8.23	2.24	-0.750			
0.7114	45528.26	3.3240	3.3240	-0.5168	8.24	2.25	-0.750			
0.7129	45626.90	3.3210	3.3210	-0.5039	8.25	2.26	-0.750			
0.7144	45722.44	3.3180	3.3180	-0.4907	8.27	2.28	-0.750			
0.7158	45813.38	3.3150	3.3152	-0.4782	8.28	2.29	-0.750			
0.7173	45904.59	3.3120	3.3118	-0.4714	8.29	2.30	-0.750			
0.7187	45994.51	3.3090	3.3089	-0.4605	8.30	2.31	-0.750			
0.7200	46080.83	3.3060	3.3060	-0.4495	8.31	2.32	-0.750			
0.7213	46166.01	3.3030	3.3031	-0.4428	8.32	2.33	-0.750			
0.7227	46251.73	3.3000	3.2998	-0.4374	8.33	2.34	-0.750			
0.7240	46333.64	3.2970	3.2970	-0.4269	8.34	2.35	-0.750			
0.7252	46414.89	3.2940	3.2939	-0.4183	8.35	2.36	-0.750			
0.7265	46494.87	3.2910	3.2911	-0.4103	8.36	2.37	-0.750			
0.7277	46573.55	3.2880	3.2880	-0.4032	8.37	2.38	-0.750			
0.7289	46650.10	3.2850	3.2851	-0.3920	8.38	2.39	-0.750			
0.7301	46724.08	3.2820	3.2820	-0.3828	8.39	2.40	-0.750			
0.7312	46795.85	3.2790	3.2790	-0.3747	8.40	2.41	-0.750			
0.7323	46867.02	3.2760	3.2760	-0.3687	8.41	2.42	-0.750			
0.7334	46937.49	3.2730	3.2730	-0.3600	8.42	2.43	-0.750			
0.7345	47005.23	3.2700	3.2700	-0.3542	8.43	2.44	-0.750			
0.7355	47072.66	3.2670	3.2671	-0.3492	8.44	2.45	-0.750			
0.7366	47139.27	3.2640	3.2639	-0.3437	8.45	2.46	-0.750			
0.7376	47204.25	3.2610	3.2609	-0.3381	8.46	2.47	-0.750			
0.7386	47268.80	3.2580	3.2581	-0.3308	8.47	2.48	-0.750			
0.7396	47331.94	3.2550	3.2550	-0.3256	8.48	2.49	-0.750			
0.7405	47394.81	3.2520	3.2519	-0.3210	8.48	2.49	-0.750			
0.7415	47455.22	3.2490	3.2490	-0.3124	8.48	2.49	-0.750			
0.7424	47514.19	3.2460	3.2460	-0.3064	8.49	2.50	-0.750			
0.7433	47572.20	3.2430	3.2430	-0.3015	8.50	2.51	-0.750			
0.7442	47629.02	3.2400	3.2400	-0.2959	8.51	2.52	-0.750			
0.7451	47685.77	3.2370	3.2370	-0.2927	8.52	2.53	-0.750			
0.7460	47740.85	3.2340	3.2340	-0.2882	8.53	2.54	-0.750			
0.7468	47796.13	3.2310	3.2311	-0.2856	8.54	2.55	-0.750			
0.7477	47850.99	3.2280	3.2279	-0.2830	8.55	2.56	-0.750			
0.7485	47904.82	3.2250	3.2249	-0.2789	8.56	2.57	-0.750			
0.7494	47958.67	3.2220	3.2220	-0.2733	8.57	2.58	-0.750			
0.7502	48010.49	3.2190	3.2190	-0.2671	8.57	2.58	-0.750			
0.7510	48061.43	3.2160	3.2161	-0.2646	8.58	2.59	-0.750			
0.7517	48111.27	3.2130	3.2131	-0.2588	8.59	2.60	-0.750			
0.7525	48160.49	3.2100	3.2100	-0.2550	8.60	2.61	-0.750			
0.7533	48208.57	3.2070	3.2069	-0.2516	8.61	2.62	-0.750			
0.7540	48256.84	3.2040	3.2043	-0.2497	8.62	2.63	-0.750			
0.7548	48305.01	3.2010	3.2009	-0.2486	8.63	2.64	-0.750			
0.7555	48352.23	3.1980	3.1980	-0.2450	8.64	2.65	-0.750			
0.7562	48398.74	3.1950	3.1950	-0.2400	8.65	2.66	-0.750			
0.7569	48444.52	3.1920	3.1921	-0.2375	8.65	2.66	-0.750			
0.7577	48490.20	3.1890	3.1890	-0.2361	8.66	2.67	-0.750			
0.7584	48535.13	3.1860	3.1860	-0.2331	8.67	2.68	-0.750			
0.7591	48579.38	3.1830	3.1829	-0.2299	8.68	2.69	-0.750			
0.7597	48623.61	3.1800	3.1799	-0.2260	8.69	2.70	-0.750			
0.7604	48666.87	3.1770	3.1771	-0.2228	8.69	2.70	-0.750			
0.7611	48709.29	3.1740	3.1740	-0.2189	8.70	2.71	-0.750			
0.7617	48751.52	3.1710	3.1710	-0.2154	8.71	2.72	-0.750			
0.7624	48791.61	3.1680	3.1679	-0.2127	8.71	2.72	-0.750			
0.7630	48831.54	3.1650	3.1650	-0.2098	8.72	2.73	-0.750			
0.7636	48871.86	3.1620	3.1620	-0.2088	8.73	2.74	-0.750			
0.7642	48911.70	3.1590	3.1590	-0.2079	8.73	2.74	-0.750			
0.7649	48951.87	3.1560	3.1561	-0.2072	8.74	2.75	-0.750			
0.7655	48991.97	3.1530	3.1530	-0.2047	8.74	2.75	-0.750			
0.7661	49031.10	3.1500	3.1500	-0.2027	8.75	2.76	-0.750			
0.7667	49069.66	3.1470	3.1470	-0.1998	8.75	2.76	-0.750			
0.7673	49107.56	3.1440	3.1440	-0.1968	8.76	2.77	-0.750			
0.7679	49144.89	3.1410	3.1410	-0.1952	8.77	2.78	-0.750			
0.7685	49182.08	3.1380	3.1381	-0.1930	8.78	2.79	-0.750			
0.7690	49218.93	3.1350	3.1350	-0.1910	8.79	2.80	-0.750			
0.7696	49255.47	3.1320	3.1320	-0.1896	8.80	2.81	-0.750			
0.7702	49292.24	3.1290	3.1291	-0.1872	8.80	2.81	-0.750			
0.7707	49327.79	3.1260	3.1260	-0.1849	8.81	2.82	-0.750			
0.7713	49362.69	3.1230	3.1231	-0.1835	8.82	2.83	-0.750			
0.7718	49397.78	3.1200	3.1200	-0.1820	8.83	2.84	-0.750			
0.7724	49432.02	3.1170	3.1170	-0.1811	8.83	2.84	-0.750			
0.7729	49466.68	3.1140	3.1139	-0.1804	8.84	2.85	-0.750			
0.7735	49501.46	3.1110	3.1110	-0.1798	8.85	2.86	-0.750			
0.7740	49536.29	3.1080	3.1081	-0.1781	8.86	2.87	-0.750			
0.7745	49570.93	3.1050	3.1049	-0.1772	8.87	2.88	-0.750			
0.7751	49605.00	3.1020	3.1020	-0.1747	8.87	2.88	-0.750			
0.7756	49637.86	3.0990	3.0991	-0.1722	8.88	2.89	-0.750			
0.7761	49670.42	3.0960	3.0959	-0.1701	8.89	2.90	-0.750			
0.7766	49702.94	3.0930	3.0931	-0.1686	8.90	2.91	-0.750			
0.7771	49734.81	3.0900	3.0899	-0.1677	8.90	2.91	-0.750			
0.7776	49766.95	3.0870	3.0870	-0.1660	8.91	2.92	-0.750			
0.7781	49798.86	3.0840	3.0840	-0.1660	8.92	2.93	-0.750			
0.7786	49830.63	3.0810	3.0810	-0.1650	8.93	2.94	-0.750			
0.7791	49862.30	3.0780	3.0781	-0.1641	8.93	2.94	-0.750			
0.7796	49893.74	3.0750	3.0749	-0.1624	8.94	2.95	-0.750			
0.7801	49924.85	3.0720	3.0719	-0.1611	8.95	2.96	-0.750			
0.7806	49955.65	3.0690	3.0691	-0.1594	8.96	2.97	-0.750			
0.7810	49985.94	3.0660	3.0661	-0.1584	8.96	2.97	-0.750			
0.7815	50016.52	3.0630	3.0630	-0.1573	8.97	2.98	-0.750			
0.7820	50046.26	3.0600	3.0599	-0.1551	8.98	2.99	-0.750			
0.7824	50076.10	3.0570	3.0569	-0.1528	8.98	2.99	-0.750			
0.7829	50105.13	3.0540	3.0541	-0.1520	8.99	3.00	-0.750			
0.7833	50134.09	3.0510	3.0511	-0.1513	9.00	3.01	-0.750			
0.7838	50163.04	3.0480	3.0479	-0.1503	9.01	3.02	-0.750			
0.7842	50191.50	3.0450	3.0448	-0.1503	9.01	3.02	-0.750			
0.7847	50220.07	3.0420	3.0421	-0.1495	9.02	3.03	-0.750			
0.7851	50249.30	3.0390	3.0391	-0.1492	9.03	3.04	-0.750			
0.7856	50277.90	3.0360	3.0360	-0.1482	9.03	3.04	-0.750			
0.7860	50306.69	3.0330	3.0331	-0.1474	9.04	3.05	-0.750			
0.7865	50334.68	3.0300	3.0300	-0.1458	9.05	3.06	-0.750			
0.7869	50362.38	3.0270	3.0270	-0.1449	9.05	3.06	-0.750			
0.7873	50389.98	3.0240	3.0240	-0.1433	9.06	3.07	-0.750			
0.7878	50417.43	3.0210	3.0210	-0.1426	9.07	3.08	-0.750			
0.7882	50444.88	3.0180	3.0180	-0.1415	9.07	3.08	-0.750			
0.7886	50471.73	3.0150	3.0151	-0.1418	9.08	3.09	-0.750			
0.7890	50498.69	3.0120	3.0121	-0.1412	9.09	3.10	-0.750			
0.7895	50525.83	3.0090	3.0090	-0.1415	9.09	3.10	-0.750			
0.7899	50552.85	3.0060	3.0059	-0.1426	9.10	3.11	-0.750			
0.7903	50580.36	3.0030	3.0032	-0.1487	9.11	3.12	-0.750			
