Ah_balance (normalized)	Ah_balance (mAh)	Voltage - fit (V)	Voltage -  interpolate (V)	dQ/dV (1/V)	Temperature (°C)	Temperature - diff (°C)	Current (C)	R_DC 0ms (mOhm)	R_DC 50ms (mOhm)	R_DC 50 ms PEC (mOhm)
0.0000	0.00	4.0960	4.1252	0.0000	5.98	-0.01	-0.750			
0.0001	8.60	4.0930	4.0933	-0.0331	5.98	-0.01	-0.750			
0.0003	19.31	4.0900	4.0896	-0.0637	5.98	-0.01	-0.750			
0.0006	35.41	4.0870	4.0866	-0.0912	5.98	-0.01	-0.750			
0.0009	55.54	4.0840	4.0839	-0.1185	5.98	-0.01	-0.750			
0.0013	81.43	4.0810	4.0811	-0.1421	5.98	-0.01	-0.750			
0.0017	111.22	4.0780	4.0782	-0.1671	5.98	-0.01	-0.750			
0.0023	147.35	4.0750	4.0750	-0.1932	5.99	-0.00	-0.750			
0.0029	186.95	4.0720	4.0720	-0.2133	5.99	-0.00	-0.750			
0.0036	229.82	4.0690	4.0689	-0.2345	5.99	-0.00	-0.750			
0.0043	276.98	4.0660	4.0661	-0.2551	5.99	-0.00	-0.750			
0.0051	327.75	4.0630	4.0630	-0.2786	5.99	-0.00	-0.750			
0.0060	383.49	4.0600	4.0599	-0.3004	5.99	-0.00	-0.750			
0.0069	443.25	4.0570	4.0569	-0.3234	5.99	-0.00	-0.750			
0.0079	507.51	4.0540	4.0540	-0.3451	5.99	-0.00	-0.750			
0.0090	576.47	4.0510	4.0509	-0.3653	5.99	0.00	-0.750			
0.0101	648.16	4.0480	4.0481	-0.3871	5.99	0.00	-0.750			
0.0113	723.98	4.0450	4.0451	-0.4113	5.99	0.00	-0.750			
0.0126	803.89	4.0420	4.0418	-0.4385	5.99	0.00	-0.750			
0.0139	891.15	4.0390	4.0390	-0.4636	5.99	0.00	-0.750			
0.0154	983.13	4.0360	4.0361	-0.4884	6.00	0.01	-0.750			
0.0169	1081.73	4.0330	4.0329	-0.5115	6.00	0.01	-0.750			
0.0185	1182.83	4.0300	4.0300	-0.5292	6.00	0.01	-0.750			
0.0201	1286.09	4.0270	4.0270	-0.5438	6.00	0.01	-0.750			
0.0218	1392.63	4.0240	4.0240	-0.5548	6.00	0.01	-0.750			
0.0234	1500.09	4.0210	4.0209	-0.5659	6.00	0.01	-0.750			
0.0251	1609.27	4.0180	4.0181	-0.5826	6.01	0.02	-0.750			
0.0269	1721.99	4.0150	4.0151	-0.5948	6.01	0.02	-0.750			
0.0287	1839.11	4.0120	4.0118	-0.6093	6.01	0.02	-0.750			
0.0306	1958.04	4.0090	4.0089	-0.6158	6.02	0.03	-0.750			
0.0325	2076.83	4.0060	4.0062	-0.6282	6.02	0.03	-0.750			
0.0344	2198.45	4.0030	4.0030	-0.6399	6.02	0.03	-0.750			
0.0363	2320.86	4.0000	4.0000	-0.6522	6.03	0.04	-0.750			
0.0382	2447.03	3.9970	3.9968	-0.6637	6.03	0.04	-0.750			
0.0403	2577.63	3.9940	3.9940	-0.6803	6.04	0.05	-0.750			
0.0424	2712.68	3.9910	3.9909	-0.6923	6.04	0.05	-0.750			
0.0445	2847.02	3.9880	3.9879	-0.6946	6.05	0.06	-0.750			
0.0466	2980.03	3.9850	3.9850	-0.6939	6.05	0.06	-0.750			
0.0486	3113.32	3.9820	3.9820	-0.6960	6.06	0.07	-0.750			
0.0507	3245.07	3.9790	3.9789	-0.7047	6.07	0.08	-0.750			
0.0528	3379.48	3.9760	3.9761	-0.7019	6.07	0.08	-0.750			
0.0550	3518.14	3.9730	3.9730	-0.7109	6.08	0.09	-0.750			
0.0571	3656.09	3.9700	3.9700	-0.7130	6.09	0.10	-0.750			
0.0593	3792.78	3.9670	3.9670	-0.7158	6.09	0.10	-0.750			
0.0614	3929.17	3.9640	3.9639	-0.7159	6.10	0.11	-0.750			
0.0635	4066.11	3.9610	3.9609	-0.7181	6.11	0.12	-0.750			
0.0657	4202.01	3.9580	3.9581	-0.7190	6.12	0.13	-0.750			
0.0678	4342.28	3.9550	3.9550	-0.7298	6.13	0.14	-0.750			
0.0701	4484.52	3.9520	3.9519	-0.7309	6.14	0.15	-0.750			
0.0723	4625.41	3.9490	3.9490	-0.7323	6.15	0.16	-0.750			
0.0744	4764.34	3.9460	3.9460	-0.7362	6.15	0.16	-0.750			
0.0767	4907.05	3.9430	3.9432	-0.7409	6.16	0.17	-0.750			
0.0789	5049.74	3.9400	3.9399	-0.7432	6.17	0.18	-0.750			
0.0811	5192.01	3.9370	3.9369	-0.7448	6.17	0.18	-0.750			
0.0834	5335.43	3.9340	3.9342	-0.7492	6.18	0.19	-0.750			
0.0857	5481.72	3.9310	3.9310	-0.7532	6.19	0.20	-0.750			
0.0879	5624.23	3.9280	3.9280	-0.7545	6.20	0.21	-0.750			
0.0901	5769.59	3.9250	3.9250	-0.7559	6.21	0.22	-0.750			
0.0924	5915.37	3.9220	3.9220	-0.7543	6.22	0.23	-0.750			
0.0947	6059.51	3.9190	3.9190	-0.7565	6.24	0.25	-0.750			
0.0969	6204.37	3.9160	3.9159	-0.7591	6.24	0.25	-0.750			
0.0992	6350.17	3.9130	3.9130	-0.7634	6.25	0.26	-0.750			
0.1015	6497.38	3.9100	3.9099	-0.7679	6.26	0.27	-0.750			
0.1038	6644.88	3.9070	3.9070	-0.7650	6.27	0.28	-0.750			
0.1062	6794.36	3.9040	3.9041	-0.7649	6.27	0.28	-0.750			
0.1085	6941.94	3.9010	3.9011	-0.7652	6.28	0.29	-0.750			
0.1107	7086.16	3.8980	3.8980	-0.7644	6.29	0.30	-0.750			
0.1130	7230.04	3.8950	3.8950	-0.7688	6.30	0.31	-0.750			
0.1153	7377.89	3.8920	3.8919	-0.7754	6.31	0.32	-0.750			
0.1177	7529.70	3.8890	3.8890	-0.7752	6.33	0.34	-0.750			
0.1200	7679.88	3.8860	3.8859	-0.7794	6.34	0.35	-0.750			
0.1224	7832.55	3.8830	3.8831	-0.7794	6.35	0.36	-0.750			
0.1247	7980.69	3.8800	3.8799	-0.7739	6.36	0.37	-0.750			
0.1270	8126.32	3.8770	3.8769	-0.7680	6.37	0.38	-0.750			
0.1293	8272.83	3.8740	3.8741	-0.7706	6.37	0.38	-0.750			
0.1316	8420.47	3.8710	3.8709	-0.7761	6.38	0.39	-0.750			
0.1339	8569.88	3.8680	3.8682	-0.7852	6.39	0.40	-0.750			
0.1363	8721.61	3.8650	3.8649	-0.7852	6.40	0.41	-0.750			
0.1387	8874.20	3.8620	3.8619	-0.7900	6.41	0.42	-0.750			
0.1410	9026.79	3.8590	3.8591	-0.7909	6.42	0.43	-0.750			
0.1434	9178.87	3.8560	3.8561	-0.7927	6.43	0.44	-0.750			
0.1458	9331.67	3.8530	3.8529	-0.7913	6.44	0.45	-0.750			
0.1482	9483.67	3.8500	3.8500	-0.7895	6.45	0.46	-0.750			
0.1505	9632.77	3.8470	3.8470	-0.7918	6.46	0.47	-0.750			
0.1529	9787.08	3.8440	3.8440	-0.7939	6.48	0.49	-0.750			
0.1553	9939.23	3.8410	3.8409	-0.7968	6.49	0.50	-0.750			
0.1577	10092.31	3.8380	3.8381	-0.7979	6.50	0.51	-0.750			
0.1601	10247.66	3.8350	3.8350	-0.7932	6.51	0.52	-0.750			
0.1625	10399.34	3.8320	3.8321	-0.7960	6.52	0.53	-0.750			
0.1649	10551.45	3.8290	3.8290	-0.7953	6.53	0.54	-0.750			
0.1672	10702.17	3.8260	3.8259	-0.7984	6.54	0.55	-0.750			
0.1696	10856.13	3.8230	3.8230	-0.8063	6.55	0.56	-0.750			
0.1720	11010.10	3.8200	3.8199	-0.8106	6.56	0.57	-0.750			
0.1745	11168.00	3.8170	3.8170	-0.8159	6.57	0.58	-0.750			
0.1770	11327.30	3.8140	3.8140	-0.8144	6.58	0.59	-0.750			
0.1794	11482.15	3.8110	3.8111	-0.8094	6.59	0.60	-0.750			
0.1819	11639.57	3.8080	3.8078	-0.8081	6.60	0.61	-0.750			
0.1843	11793.24	3.8050	3.8050	-0.8044	6.60	0.61	-0.750			
0.1867	11946.51	3.8020	3.8020	-0.8026	6.61	0.62	-0.750			
0.1891	12100.58	3.7990	3.7991	-0.8007	6.62	0.63	-0.750			
0.1915	12253.06	3.7960	3.7959	-0.7987	6.63	0.64	-0.750			
0.1939	12407.88	3.7930	3.7929	-0.8040	6.64	0.65	-0.750			
0.1963	12560.10	3.7900	3.7901	-0.8080	6.65	0.66	-0.750			
0.1987	12715.52	3.7870	3.7870	-0.8179	6.66	0.67	-0.750			
0.2012	12874.19	3.7840	3.7840	-0.8240	6.68	0.69	-0.750			
0.2037	13035.01	3.7810	3.7809	-0.8213	6.69	0.70	-0.750			
0.2062	13194.14	3.7780	3.7781	-0.8267	6.70	0.71	-0.750			
0.2086	13352.41	3.7750	3.7751	-0.8256	6.71	0.72	-0.750			
0.2111	13510.63	3.7720	3.7718	-0.8247	6.72	0.73	-0.750			
0.2136	13667.43	3.7690	3.7690	-0.8346	6.74	0.75	-0.750			
0.2161	13827.80	3.7660	3.7659	-0.8324	6.75	0.76	-0.750			
0.2186	13990.78	3.7630	3.7629	-0.8390	6.76	0.77	-0.750			
0.2211	14152.45	3.7600	3.7602	-0.8325	6.77	0.78	-0.750			
0.2236	14310.81	3.7570	3.7570	-0.8287	6.78	0.79	-0.750			
0.2261	14469.88	3.7540	3.7540	-0.8340	6.79	0.80	-0.750			
0.2286	14628.00	3.7510	3.7507	-0.8321	6.80	0.81	-0.750			
0.2311	14787.89	3.7480	3.7480	-0.8371	6.81	0.82	-0.750			
0.2336	14951.52	3.7450	3.7451	-0.8367	6.82	0.83	-0.750			
0.2362	15114.21	3.7420	3.7421	-0.8355	6.83	0.84	-0.750			
0.2387	15274.37	3.7390	3.7389	-0.8433	6.84	0.85	-0.750			
0.2411	15431.41	3.7360	3.7361	-0.8467	6.85	0.86	-0.750			
0.2437	15595.02	3.7330	3.7328	-0.8568	6.86	0.87	-0.750			
0.2463	15760.25	3.7300	3.7301	-0.8659	6.87	0.88	-0.750			
0.2489	15928.59	3.7270	3.7271	-0.8761	6.88	0.89	-0.750			
0.2516	16101.00	3.7240	3.7239	-0.8718	6.89	0.90	-0.750			
0.2542	16270.83	3.7210	3.7210	-0.8643	6.90	0.91	-0.750			
0.2568	16432.87	3.7180	3.7181	-0.8649	6.91	0.92	-0.750			
0.2593	16598.22	3.7150	3.7150	-0.8641	6.92	0.93	-0.750			
0.2619	16763.05	3.7120	3.7118	-0.8664	6.93	0.94	-0.750			
0.2645	16927.97	3.7090	3.7091	-0.8730	6.94	0.95	-0.750			
0.2671	17095.97	3.7060	3.7061	-0.8854	6.95	0.96	-0.750			
0.2698	17269.55	3.7030	3.7030	-0.8982	6.96	0.97	-0.750			
0.2726	17443.74	3.7000	3.6999	-0.9064	6.97	0.98	-0.750			
0.2753	17617.90	3.6970	3.6971	-0.9119	6.98	0.99	-0.750			
0.2781	17796.45	3.6940	3.6940	-0.9170	6.99	1.00	-0.750			
0.2808	17972.78	3.6910	3.6909	-0.9163	7.00	1.01	-0.750			
0.2836	18147.95	3.6880	3.6882	-0.9147	7.01	1.02	-0.750			
0.2863	18321.92	3.6850	3.6850	-0.9258	7.02	1.03	-0.750			
0.2891	18500.74	3.6820	3.6820	-0.9316	7.03	1.04	-0.750			
0.2919	18679.98	3.6790	3.6788	-0.9339	7.05	1.06	-0.750			
0.2947	18862.56	3.6760	3.6762	-0.9432	7.06	1.07	-0.750			
0.2975	19042.20	3.6730	3.6730	-0.9573	7.07	1.08	-0.750			
0.3004	19226.70	3.6700	3.6698	-0.9644	7.08	1.09	-0.750			
0.3033	19411.58	3.6670	3.6670	-0.9758	7.08	1.09	-0.750			
0.3062	19597.69	3.6640	3.6640	-0.9763	7.09	1.10	-0.750			
0.3092	19791.66	3.6610	3.6610	-0.9950	7.10	1.11	-0.750			
0.3123	19985.16	3.6580	3.6580	-1.0000	7.11	1.12	-0.750			
0.3153	20179.39	3.6550	3.6549	-0.9929	7.12	1.13	-0.750			
0.3182	20367.72	3.6520	3.6520	-0.9858	7.13	1.14	-0.750			
0.3212	20556.69	3.6490	3.6492	-0.9907	7.14	1.15	-0.750			
0.3241	20742.65	3.6460	3.6460	-0.9966	7.15	1.16	-0.750			
0.3271	20934.37	3.6430	3.6429	-1.0119	7.16	1.17	-0.750			
0.3301	21127.43	3.6400	3.6400	-1.0233	7.17	1.18	-0.750			
0.3333	21329.80	3.6370	3.6371	-1.0411	7.18	1.19	-0.750			
0.3364	21531.95	3.6340	3.6340	-1.0494	7.19	1.20	-0.750			
0.3396	21736.70	3.6310	3.6310	-1.0491	7.20	1.21	-0.750			
0.3427	21935.96	3.6280	3.6280	-1.0561	7.20	1.21	-0.750			
0.3459	22134.64	3.6250	3.6251	-1.0663	7.21	1.22	-0.750			
0.3491	22341.71	3.6220	3.6219	-1.0765	7.22	1.23	-0.750			
0.3523	22549.28	3.6190	3.6189	-1.0907	7.23	1.24	-0.750			
0.3557	22761.66	3.6160	3.6161	-1.1021	7.24	1.25	-0.750			
0.3590	22975.49	3.6130	3.6130	-1.1196	7.25	1.26	-0.750			
0.3624	23192.08	3.6100	3.6100	-1.1326	7.26	1.27	-0.750			
0.3657	23406.67	3.6070	3.6070	-1.1360	7.27	1.28	-0.750			
0.3692	23628.52	3.6040	3.6039	-1.1414	7.28	1.29	-0.750			
0.3727	23851.47	3.6010	3.6009	-1.1606	7.28	1.29	-0.750			
0.3762	24076.00	3.5980	3.5980	-1.1618	7.29	1.30	-0.750			
0.3797	24301.02	3.5950	3.5948	-1.1634	7.30	1.31	-0.750			
0.3831	24520.76	3.5920	3.5923	-1.1641	7.31	1.32	-0.750			
0.3867	24746.70	3.5890	3.5890	-1.1653	7.32	1.33	-0.750	0.420	0.862	
0.3902	24971.08	3.5860	3.5858	-1.1660	7.33	1.34	-0.750			
0.3936	25193.37	3.5830	3.5830	-1.1749	7.34	1.35	-0.750			
0.3971	25415.70	3.5800	3.5800	-1.1883	7.34	1.35	-0.750			
0.4008	25650.27	3.5770	3.5769	-1.2049	7.35	1.36	-0.750			
0.4044	25880.94	3.5740	3.5739	-1.2082	7.36	1.37	-0.750			
0.4080	26110.12	3.5710	3.5713	-1.2248	7.37	1.38	-0.750			
0.4117	26349.95	3.5680	3.5680	-1.2483	7.38	1.39	-0.750			
0.4155	26591.91	3.5650	3.5648	-1.2562	7.39	1.40	-0.750			
0.4192	26831.13	3.5620	3.5620	-1.2734	7.40	1.41	-0.750			
0.4231	27079.86	3.5590	3.5591	-1.2870	7.41	1.42	-0.750			
0.4270	27331.17	3.5560	3.5559	-1.2906	7.42	1.43	-0.750			
0.4309	27577.96	3.5530	3.5529	-1.2935	7.42	1.43	-0.750			
0.4348	27824.15	3.5500	3.5501	-1.2931	7.43	1.44	-0.750			
0.4387	28074.44	3.5470	3.5469	-1.2977	7.44	1.45	-0.750			
0.4425	28323.14	3.5440	3.5439	-1.3043	7.45	1.46	-0.750			
0.4464	28571.89	3.5410	3.5411	-1.3001	7.46	1.47	-0.750			
0.4504	28823.20	3.5380	3.5380	-1.3186	7.47	1.48	-0.750			
0.4544	29079.20	3.5350	3.5350	-1.3266	7.48	1.49	-0.750			
0.4583	29332.51	3.5320	3.5321	-1.3405	7.49	1.50	-0.750			
0.4624	29593.15	3.5290	3.5289	-1.3442	7.50	1.51	-0.750			
0.4665	29853.24	3.5260	3.5261	-1.3491	7.52	1.53	-0.750			
0.4705	30111.25	3.5230	3.5233	-1.3648	7.53	1.54	-0.750			
0.4746	30377.47	3.5200	3.5199	-1.3822	7.54	1.55	-0.750			
0.4788	30641.94	3.5170	3.5168	-1.3778	7.54	1.55	-0.750			
0.4830	30909.05	3.5140	3.5142	-1.3766	7.55	1.56	-0.750			
0.4871	31177.04	3.5110	3.5110	-1.3726	7.56	1.57	-0.750			
0.4912	31439.74	3.5080	3.5080	-1.3607	7.58	1.59	-0.750			
0.4953	31696.80	3.5050	3.5051	-1.3418	7.59	1.60	-0.750			
0.4992	31950.39	3.5020	3.5019	-1.3325	7.60	1.61	-0.750			
0.5031	32198.67	3.4990	3.4989	-1.3479	7.61	1.62	-0.750			
0.5071	32457.31	3.4960	3.4961	-1.3710	7.62	1.63	-0.750			
0.5113	32726.26	3.4930	3.4928	-1.3853	7.63	1.64	-0.750			
0.5157	33003.99	3.4900	3.4898	-1.3736	7.64	1.65	-0.750			
0.5198	33268.29	3.4870	3.4873	-1.3628	7.66	1.67	-0.750			
0.5239	33531.30	3.4840	3.4840	-1.3436	7.67	1.68	-0.750			
0.5279	33784.46	3.4810	3.4808	-1.3201	7.68	1.69	-0.750			
0.5317	34027.58	3.4780	3.4780	-1.3081	7.69	1.70	-0.750			
0.5355	34274.60	3.4750	3.4750	-1.2973	7.70	1.71	-0.750			
0.5395	34528.74	3.4720	3.4720	-1.3076	7.71	1.72	-0.750			
0.5434	34778.28	3.4690	3.4689	-1.3172	7.72	1.73	-0.750			
0.5474	35032.93	3.4660	3.4660	-1.2996	7.73	1.74	-0.750			
0.5514	35287.65	3.4630	3.4629	-1.2967	7.74	1.75	-0.750			
0.5552	35532.68	3.4600	3.4599	-1.2851	7.75	1.76	-0.750			
0.5590	35776.49	3.4570	3.4572	-1.2664	7.76	1.77	-0.750			
0.5628	36021.84	3.4540	3.4538	-1.2643	7.78	1.79	-0.750			
0.5666	36260.53	3.4510	3.4509	-1.2451	7.79	1.80	-0.750			
0.5702	36495.04	3.4480	3.4481	-1.2289	7.81	1.82	-0.750			
0.5740	36738.43	3.4450	3.4450	-1.2352	7.82	1.83	-0.750			
0.5777	36974.63	3.4420	3.4419	-1.2234	7.83	1.84	-0.750			
0.5814	37207.00	3.4390	3.4389	-1.2054	7.84	1.85	-0.750			
0.5850	37436.95	3.4360	3.4361	-1.1982	7.86	1.87	-0.750			
0.5886	37667.70	3.4330	3.4329	-1.1859	7.87	1.88	-0.750			
0.5921	37895.28	3.4300	3.4298	-1.1737	7.89	1.90	-0.750			
0.5955	38114.96	3.4270	3.4273	-1.1611	7.90	1.91	-0.750			
0.5991	38342.20	3.4240	3.4240	-1.1496	7.91	1.92	-0.750			
0.6025	38562.02	3.4210	3.4209	-1.1317	7.93	1.94	-0.750			
0.6059	38777.19	3.4180	3.4178	-1.1193	7.94	1.95	-0.750			
0.6092	38989.96	3.4150	3.4152	-1.1038	7.95	1.96	-0.750			
0.6125	39200.38	3.4120	3.4118	-1.0818	7.97	1.98	-0.750			
0.6157	39406.77	3.4090	3.4090	-1.0594	7.98	1.99	-0.750			
0.6188	39605.44	3.4060	3.4062	-1.0268	7.99	2.00	-0.750			
0.6220	39806.06	3.4030	3.4029	-1.0166	8.01	2.02	-0.750			
0.6250	39997.20	3.4000	3.4001	-0.9992	8.02	2.03	-0.750			
0.6279	40187.46	3.3970	3.3969	-0.9755	8.04	2.05	-0.750			
0.6308	40373.93	3.3940	3.3939	-0.9548	8.05	2.06	-0.750			
0.6337	40554.87	3.3910	3.3912	-0.9387	8.06	2.07	-0.750			
0.6364	40732.48	3.3880	3.3880	-0.9231	8.08	2.09	-0.750			
0.6392	40908.43	3.3850	3.3849	-0.9026	8.09	2.10	-0.750			
0.6419	41078.50	3.3820	3.3819	-0.8799	8.11	2.12	-0.750			
0.6445	41246.17	3.3790	3.3791	-0.8602	8.12	2.13	-0.750			
0.6470	41410.21	3.3760	3.3760	-0.8479	8.14	2.15	-0.750			
0.6495	41570.85	3.3730	3.3730	-0.8298	8.15	2.16	-0.750			
0.6520	41727.52	3.3700	3.3699	-0.8077	8.17	2.18	-0.750			
0.6544	41880.35	3.3670	3.3670	-0.7871	8.18	2.19	-0.750			
0.6567	42031.11	3.3640	3.3638	-0.7685	8.19	2.20	-0.750			
0.6590	42178.09	3.3610	3.3611	-0.7470	8.21	2.22	-0.750			
0.6612	42317.98	3.3580	3.3580	-0.7290	8.22	2.23	-0.750			
0.6633	42453.61	3.3550	3.3549	-0.7054	8.23	2.24	-0.750			
0.6654	42586.74	3.3520	3.3521	-0.6876	8.25	2.26	-0.750			
0.6675	42718.90	3.3490	3.3490	-0.6764	8.26	2.27	-0.750			
0.6695	42847.39	3.3460	3.3461	-0.6666	8.27	2.28	-0.750			
0.6715	42974.06	3.3430	3.3430	-0.6548	8.29	2.30	-0.750			
0.6734	43097.84	3.3400	3.3400	-0.6425	8.30	2.31	-0.750			
0.6753	43219.38	3.3370	3.3370	-0.6297	8.31	2.32	-0.750			
0.6772	43342.12	3.3340	3.3340	-0.6159	8.33	2.34	-0.750			
0.6790	43458.79	3.3310	3.3309	-0.5975	8.34	2.35	-0.750			
0.6808	43571.83	3.3280	3.3281	-0.5829	8.35	2.36	-0.750			
0.6825	43681.14	3.3250	3.3250	-0.5640	8.37	2.38	-0.750			
0.6842	43787.18	3.3220	3.3218	-0.5491	8.38	2.39	-0.750			
0.6858	43890.63	3.3190	3.3190	-0.5373	8.39	2.40	-0.750			
0.6874	43991.80	3.3160	3.3160	-0.5264	8.40	2.41	-0.750			
0.6889	44092.50	3.3130	3.3130	-0.5194	8.42	2.43	-0.750			
0.6905	44191.11	3.3100	3.3100	-0.5102	8.43	2.44	-0.750			
0.6920	44287.85	3.3070	3.3071	-0.5013	8.44	2.45	-0.750			
0.6935	44384.74	3.3040	3.3039	-0.4924	8.45	2.46	-0.750			
0.6950	44478.38	3.3010	3.3010	-0.4805	8.47	2.48	-0.750			
0.6964	44569.59	3.2980	3.2979	-0.4682	8.48	2.49	-0.750			
0.6978	44658.43	3.2950	3.2951	-0.4578	8.49	2.50	-0.750			
0.6991	44744.61	3.2920	3.2920	-0.4476	8.50	2.51	-0.750			
0.7005	44828.99	3.2890	3.2890	-0.4408	8.51	2.52	-0.750			
0.7018	44912.86	3.2860	3.2861	-0.4349	8.52	2.53	-0.750			
0.7031	44996.02	3.2830	3.2829	-0.4299	8.53	2.54	-0.750			
0.7043	45077.86	3.2800	3.2800	-0.4230	8.54	2.55	-0.750			
0.7056	45159.50	3.2770	3.2770	-0.4157	8.55	2.56	-0.750			
0.7069	45238.54	3.2740	3.2740	-0.4065	8.56	2.57	-0.750			
0.7081	45316.07	3.2710	3.2711	-0.3980	8.57	2.58	-0.750			
0.7092	45391.21	3.2680	3.2681	-0.3902	8.58	2.59	-0.750			
0.7104	45465.28	3.2650	3.2648	-0.3808	8.59	2.60	-0.750			
0.7115	45537.17	3.2620	3.2620	-0.3740	8.60	2.61	-0.750			
0.7126	45607.78	3.2590	3.2590	-0.3683	8.62	2.63	-0.750			
0.7137	45677.99	3.2560	3.2560	-0.3646	8.63	2.64	-0.750			
0.7148	45748.03	3.2530	3.2529	-0.3623	8.64	2.65	-0.750			
0.7159	45816.89	3.2500	3.2500	-0.3565	8.65	2.66	-0.750			
0.7170	45885.24	3.2470	3.2471	-0.3529	8.66	2.67	-0.750			
0.7180	45953.46	3.2440	3.2440	-0.3467	8.67	2.68	-0.750			
0.7190	46019.10	3.2410	3.2410	-0.3395	8.68	2.69	-0.750			
0.7200	46083.13	3.2380	3.2379	-0.3333	8.69	2.70	-0.750			
0.7210	46146.33	3.2350	3.2349	-0.3279	8.70	2.71	-0.750			
0.7220	46208.39	3.2320	3.2320	-0.3224	8.71	2.72	-0.750			
0.7230	46270.46	3.2290	3.2290	-0.3189	8.72	2.73	-0.750			
0.7239	46330.64	3.2260	3.2260	-0.3136	8.73	2.74	-0.750			
0.7249	46390.79	3.2230	3.2230	-0.3105	8.74	2.75	-0.750			
0.7258	46449.50	3.2200	3.2200	-0.3040	8.75	2.76	-0.750			
0.7267	46507.06	3.2170	3.2169	-0.3011	8.76	2.77	-0.750			
0.7276	46564.61	3.2140	3.2142	-0.2970	8.77	2.78	-0.750			
0.7285	46621.34	3.2110	3.2109	-0.2943	8.78	2.79	-0.750			
0.7293	46677.78	3.2080	3.2080	-0.2920	8.79	2.80	-0.750			
0.7302	46733.39	3.2050	3.2052	-0.2894	8.80	2.81	-0.750			
0.7311	46788.35	3.2020	3.2020	-0.2868	8.81	2.82	-0.750			
0.7319	46843.80	3.1990	3.1989	-0.2834	8.82	2.83	-0.750			
0.7328	46897.49	3.1960	3.1959	-0.2779	8.83	2.84	-0.750			
0.7336	46951.05	3.1930	3.1932	-0.2740	8.84	2.85	-0.750			
0.7344	47002.57	3.1900	3.1900	-0.2689	8.85	2.86	-0.750			
0.7352	47053.45	3.1870	3.1870	-0.2647	8.85	2.86	-0.750			
0.7360	47103.53	3.1840	3.1840	-0.2621	8.86	2.87	-0.750			
0.7368	47153.41	3.1810	3.1809	-0.2592	8.87	2.88	-0.750			
0.7376	47203.26	3.1780	3.1781	-0.2577	8.88	2.89	-0.750			
0.7383	47252.66	3.1750	3.1749	-0.2557	8.89	2.90	-0.750			
0.7391	47301.80	3.1720	3.1721	-0.2538	8.90	2.91	-0.750			
0.7399	47350.54	3.1690	3.1690	-0.2503	8.91	2.92	-0.750			
0.7406	47397.89	3.1660	3.1660	-0.2475	8.92	2.93	-0.750			
0.7413	47445.44	3.1630	3.1629	-0.2441	8.92	2.93	-0.750			
0.7421	47491.89	3.1600	3.1601	-0.2406	8.93	2.94	-0.750			
0.7428	47538.01	3.1570	3.1569	-0.2376	8.94	2.95	-0.750			
0.7435	47583.16	3.1540	3.1541	-0.2352	8.95	2.96	-0.750			
0.7442	47627.86	3.1510	3.1510	-0.2322	8.96	2.97	-0.750			
0.7449	47671.78	3.1480	3.1480	-0.2314	8.97	2.98	-0.750			
0.7456	47716.43	3.1450	3.1450	-0.2288	8.98	2.99	-0.750			
0.7462	47759.82	3.1420	3.1420	-0.2265	8.99	3.00	-0.750			
0.7469	47803.46	3.1390	3.1392	-0.2261	9.00	3.01	-0.750			
0.7476	47846.62	3.1360	3.1360	-0.2242	9.01	3.02	-0.750			
0.7483	47889.45	3.1330	3.1329	-0.2213	9.02	3.03	-0.750			
0.7489	47931.80	3.1300	3.1300	-0.2199	9.02	3.03	-0.750			
0.7496	47973.80	3.1270	3.1271	-0.2169	9.03	3.04	-0.750			
0.7502	48015.26	3.1240	3.1240	-0.2150	9.04	3.05	-0.750			
0.7509	48056.88	3.1210	3.1209	-0.2135	9.05	3.06	-0.750			
0.7515	48097.48	3.1180	3.1181	-0.2103	9.06	3.07	-0.750			
0.7521	48137.33	3.1150	3.1150	-0.2077	9.07	3.08	-0.750			
0.7528	48177.02	3.1120	3.1120	-0.2057	9.07	3.08	-0.750			
0.7534	48216.23	3.1090	3.1091	-0.2053	9.08	3.09	-0.750			
0.7540	48255.20	3.1060	3.1060	-0.2034	9.09	3.10	-0.750			
0.7546	48294.27	3.1030	3.1029	-0.2027	9.10	3.11	-0.750			
0.7552	48333.12	3.1000	3.1000	-0.2019	9.11	3.12	-0.750			
0.7558	48371.52	3.0970	3.0971	-0.2019	9.12	3.13	-0.750			
0.7564	48410.71	3.0940	3.0940	-0.2012	9.13	3.14	-0.750			
0.7570	48449.29	3.0910	3.0909	-0.2002	9.13	3.14	-0.750			
0.7576	48487.72	3.0880	3.0880	-0.1978	9.14	3.15	-0.750			
0.7582	48525.49	3.0850	3.0852	-0.1959	9.15	3.16	-0.750			
0.7588	48563.25	3.0820	3.0820	-0.1946	9.16	3.17	-0.750			
0.7594	48600.32	3.0790	3.0789	-0.1920	9.17	3.18	-0.750			
0.7600	48636.85	3.0760	3.0760	-0.1904	9.18	3.19	-0.750			
0.7605	48672.76	3.0730	3.0730	-0.1885	9.19	3.20	-0.750			
0.7611	48709.01	3.0700	3.0700	-0.1875	9.20	3.21	-0.750			
0.7616	48744.91	3.0670	3.0670	-0.1864	9.21	3.22	-0.750			
0.7622	48780.59	3.0640	3.0640	-0.1859	9.22	3.23	-0.750			
0.7628	48816.05	3.0610	3.0610	-0.1850	9.22	3.23	-0.750			
0.7633	48851.31	3.0580	3.0579	-0.1847	9.23	3.24	-0.750			
0.7639	48886.77	3.0550	3.0551	-0.1846	9.24	3.25	-0.750			
0.7644	48922.35	3.0520	3.0519	-0.1829	9.25	3.26	-0.750			
0.7650	48957.63	3.0490	3.0490	-0.1818	9.26	3.27	-0.750			
0.7655	48992.72	3.0460	3.0460	-0.1806	9.27	3.28	-0.750			
0.7660	49027.15	3.0430	3.0431	-0.1786	9.28	3.29	-0.750			
0.7666	49061.29	3.0400	3.0399	-0.1763	9.28	3.29	-0.750			
0.7671	49094.47	3.0370	3.0370	-0.1754	9.29	3.30	-0.750			
0.7676	49128.04	3.0340	3.0340	-0.1743	9.30	3.31	-0.750			
0.7681	49160.85	3.0310	3.0310	-0.1737	9.31	3.32	-0.750			
0.7687	49194.37	3.0280	3.0279	-0.1737	9.31	3.32	-0.750			
0.7692	49227.92	3.0250	3.0251	-0.1723	9.32	3.33	-0.750			
0.7697	49260.92	3.0220	3.0220	-0.1714	9.33	3.34	-0.750			
0.7702	49293.91	3.0190	3.0190	-0.1714	9.33	3.34	-0.750			
0.7707	49326.91	3.0160	3.0161	-0.1711	9.34	3.35	-0.750			
0.7712	49359.22	3.0130	3.0128	-0.1695	9.35	3.36	-0.750			
0.7717	49391.75	3.0100	3.0100	-0.1694	9.36	3.37	-0.750			
0.7723	49424.18	3.0070	3.0071	-0.1694	9.36	3.37	-0.750			
0.7728	49456.69	3.0040	3.0040	-0.1699	9.37	3.38	-0.750			
0.7733	49488.95	3.0010	3.0010	-0.1631	9.38	3.39	-0.750			
