Ah_balance (normalized)	Ah_balance (mAh)	Voltage - fit (V)	Voltage -  interpolate (V)	dQ/dV (1/V)	Temperature (°C)	Temperature - diff (°C)	Current (C)	R_DC 0ms (mOhm)	R_DC 50ms (mOhm)	R_DC 50 ms PEC (mOhm)
0.0968	6195.01	4.1960	4.1974	1.0733	8.12	2.13	0.750			
0.0996	6377.11	4.1930	4.1936	0.9234	8.11	2.12	0.750			
0.1022	6541.39	4.1900	4.1900	0.8392	8.11	2.12	0.750			
0.1045	6686.77	4.1870	4.1868	0.7810	8.10	2.11	0.750			
0.1066	6820.42	4.1840	4.1840	0.7292	8.09	2.10	0.750			
0.1087	6959.18	4.1810	4.1810	0.7351	8.08	2.09	0.750			
0.1110	7102.01	4.1780	4.1783	0.7360	8.08	2.09	0.750			
0.1132	7244.27	4.1750	4.1749	0.7410	8.08	2.09	0.750			
0.1154	7386.58	4.1720	4.1719	0.7390	8.07	2.08	0.750			
0.1176	7528.95	4.1690	4.1692	0.7393	8.07	2.08	0.750			
0.1199	7671.59	4.1660	4.1658	0.7434	8.06	2.07	0.750			
0.1221	7813.08	4.1630	4.1629	0.7367	8.06	2.07	0.750			
0.1243	7952.30	4.1600	4.1601	0.7336	8.06	2.07	0.750			
0.1265	8094.46	4.1570	4.1570	0.7403	8.05	2.06	0.750			
0.1287	8236.15	4.1540	4.1540	0.7434	8.05	2.06	0.750			
0.1309	8379.03	4.1510	4.1510	0.7476	8.05	2.06	0.750			
0.1332	8523.38	4.1480	4.1481	0.7569	8.04	2.05	0.750			
0.1355	8670.52	4.1450	4.1450	0.7624	8.04	2.05	0.750			
0.1378	8818.18	4.1420	4.1420	0.7712	8.03	2.04	0.750			
0.1401	8967.38	4.1390	4.1390	0.7683	8.03	2.04	0.750			
0.1424	9116.09	4.1360	4.1360	0.7682	8.02	2.03	0.750			
0.1448	9264.03	4.1330	4.1330	0.7661	8.02	2.03	0.750			
0.1470	9410.20	4.1300	4.1300	0.7663	8.01	2.02	0.750			
0.1493	9556.17	4.1270	4.1270	0.7641	8.01	2.02	0.750			
0.1516	9704.43	4.1240	4.1239	0.7628	8.00	2.01	0.750			
0.1539	9848.97	4.1210	4.1211	0.7641	8.00	2.01	0.750			
0.1562	9994.90	4.1180	4.1181	0.7716	7.99	2.00	0.750			
0.1585	10143.11	4.1150	4.1152	0.7883	7.98	1.99	0.750			
0.1609	10294.50	4.1120	4.1118	0.7979	7.98	1.99	0.750			
0.1633	10451.78	4.1090	4.1089	0.7984	7.97	1.98	0.750			
0.1658	10608.50	4.1060	4.1061	0.8050	7.97	1.98	0.750			
0.1682	10763.58	4.1030	4.1032	0.8076	7.96	1.97	0.750			
0.1706	10919.89	4.1000	4.1000	0.8026	7.95	1.96	0.750			
0.1730	11070.88	4.0970	4.0968	0.7965	7.95	1.96	0.750			
0.1754	11222.68	4.0940	4.0940	0.7977	7.95	1.96	0.750			
0.1777	11375.61	4.0910	4.0911	0.8068	7.95	1.96	0.750			
0.1802	11533.15	4.0880	4.0880	0.8131	7.94	1.95	0.750			
0.1826	11688.53	4.0850	4.0850	0.8179	7.94	1.95	0.750			
0.1851	11845.87	4.0820	4.0820	0.8230	7.94	1.95	0.750			
0.1876	12005.98	4.0790	4.0790	0.8294	7.93	1.94	0.750			
0.1901	12166.79	4.0760	4.0759	0.8219	7.93	1.94	0.750			
0.1925	12322.96	4.0730	4.0731	0.8276	7.92	1.93	0.750			
0.1950	12480.37	4.0700	4.0702	0.8278	7.92	1.93	0.750			
0.1975	12640.80	4.0670	4.0665	0.8340	7.91	1.92	0.750			
0.2000	12800.51	4.0640	4.0641	0.8311	7.90	1.91	0.750			
0.2025	12961.56	4.0610	4.0611	0.8320	7.90	1.91	0.750			
0.2050	13122.98	4.0580	4.0581	0.8364	7.89	1.90	0.750			
0.2075	13281.99	4.0550	4.0550	0.8272	7.89	1.90	0.750			
0.2100	13440.43	4.0520	4.0518	0.8255	7.88	1.89	0.750			
0.2125	13598.31	4.0490	4.0490	0.8284	7.88	1.89	0.750			
0.2150	13757.07	4.0460	4.0461	0.8317	7.87	1.88	0.750			
0.2175	13917.61	4.0430	4.0429	0.8412	7.87	1.88	0.750			
0.2200	14077.14	4.0400	4.0400	0.8428	7.86	1.87	0.750			
0.2225	14240.80	4.0370	4.0368	0.8549	7.86	1.87	0.750			
0.2251	14406.68	4.0340	4.0340	0.8649	7.85	1.86	0.750			
0.2277	14573.82	4.0310	4.0309	0.8759	7.85	1.86	0.750			
0.2304	14743.97	4.0280	4.0281	0.8782	7.84	1.85	0.750			
0.2330	14914.17	4.0250	4.0250	0.8811	7.84	1.85	0.750			
0.2357	15082.68	4.0220	4.0221	0.8829	7.83	1.84	0.750			
0.2383	15254.26	4.0190	4.0190	0.8805	7.82	1.83	0.750			
0.2410	15421.40	4.0160	4.0160	0.8807	7.82	1.83	0.750			
0.2436	15590.25	4.0130	4.0130	0.8786	7.82	1.83	0.750			
0.2462	15756.71	4.0100	4.0101	0.8813	7.81	1.82	0.750			
0.2489	15927.79	4.0070	4.0070	0.8875	7.81	1.82	0.750			
0.2515	16098.98	4.0040	4.0040	0.8840	7.80	1.81	0.750			
0.2542	16267.54	4.0010	4.0010	0.8876	7.79	1.80	0.750			
0.2569	16439.53	3.9980	3.9982	0.8955	7.79	1.80	0.750			
0.2595	16609.94	3.9950	3.9949	0.8964	7.78	1.79	0.750			
0.2622	16783.42	3.9920	3.9920	0.8985	7.78	1.79	0.750			
0.2649	16955.29	3.9890	3.9890	0.8997	7.77	1.78	0.750			
0.2676	17129.15	3.9860	3.9860	0.9077	7.77	1.78	0.750			
0.2704	17303.42	3.9830	3.9830	0.9157	7.76	1.77	0.750			
0.2731	17477.27	3.9800	3.9799	0.9132	7.76	1.77	0.750			
0.2759	17654.94	3.9770	3.9768	0.9146	7.75	1.76	0.750			
0.2786	17830.78	3.9740	3.9741	0.9213	7.75	1.76	0.750			
0.2814	18006.69	3.9710	3.9710	0.9370	7.75	1.76	0.750			
0.2842	18186.95	3.9680	3.9679	0.9461	7.74	1.75	0.750			
0.2870	18371.05	3.9650	3.9649	0.9465	7.73	1.74	0.750			
0.2899	18552.41	3.9620	3.9621	0.9517	7.72	1.73	0.750			
0.2928	18737.87	3.9590	3.9592	0.9603	7.72	1.73	0.750			
0.2957	18924.41	3.9560	3.9559	0.9676	7.71	1.72	0.750			
0.2986	19108.18	3.9530	3.9530	0.9672	7.70	1.71	0.750			
0.3014	19292.29	3.9500	3.9500	0.9678	7.69	1.70	0.750			
0.3044	19479.91	3.9470	3.9472	0.9750	7.68	1.69	0.750			
0.3073	19669.55	3.9440	3.9440	0.9759	7.68	1.69	0.750			
0.3102	19855.87	3.9410	3.9408	0.9754	7.67	1.68	0.750			
0.3131	20040.64	3.9380	3.9382	0.9832	7.67	1.68	0.750			
0.3161	20229.78	3.9350	3.9350	0.9902	7.66	1.67	0.750			
0.3191	20421.27	3.9320	3.9319	1.0033	7.66	1.67	0.750			
0.3221	20614.32	3.9290	3.9289	1.0141	7.65	1.66	0.750			
0.3252	20813.46	3.9260	3.9261	1.0221	7.64	1.65	0.750			
0.3283	21010.08	3.9230	3.9231	1.0324	7.63	1.64	0.750			
0.3314	21207.84	3.9200	3.9200	1.0439	7.62	1.63	0.750			
0.3345	21408.72	3.9170	3.9169	1.0535	7.61	1.62	0.750			
0.3377	21612.23	3.9140	3.9139	1.0578	7.60	1.61	0.750			
0.3408	21813.88	3.9110	3.9112	1.0667	7.60	1.61	0.750			
0.3441	22021.83	3.9080	3.9080	1.0813	7.59	1.60	0.750			
0.3474	22232.78	3.9050	3.9046	1.0898	7.58	1.59	0.750			
0.3506	22436.80	3.9020	3.9021	1.0949	7.57	1.58	0.750			
0.3539	22648.91	3.8990	3.8991	1.1082	7.57	1.58	0.750			
0.3572	22863.34	3.8960	3.8960	1.1314	7.56	1.57	0.750			
0.3606	23080.75	3.8930	3.8929	1.1427	7.55	1.56	0.750			
0.3641	23302.93	3.8900	3.8901	1.1675	7.54	1.55	0.750			
0.3677	23531.10	3.8870	3.8869	1.1888	7.53	1.54	0.750			
0.3713	23764.88	3.8840	3.8840	1.1986	7.52	1.53	0.750			
0.3749	23995.58	3.8810	3.8811	1.2098	7.51	1.52	0.750			
0.3786	24230.29	3.8780	3.8780	1.2276	7.50	1.51	0.750			
0.3823	24465.48	3.8750	3.8750	1.2327	7.49	1.50	0.750			
0.3860	24701.70	3.8720	3.8721	1.2383	7.48	1.49	0.750			
0.3896	24934.24	3.8690	3.8692	1.2627	7.47	1.48	0.750			
0.3934	25179.78	3.8660	3.8661	1.2940	7.45	1.46	0.750			
0.3974	25434.75	3.8630	3.8628	1.3041	7.44	1.45	0.750			
0.4013	25685.92	3.8600	3.8600	1.3225	7.43	1.44	0.750			
0.4054	25942.55	3.8570	3.8573	1.3474	7.42	1.43	0.750			
0.4094	26202.51	3.8540	3.8539	1.3796	7.40	1.41	0.750			
0.4136	26467.71	3.8510	3.8511	1.3974	7.39	1.40	0.750	0.390	0.982	
0.4178	26737.27	3.8480	3.8480	1.4297	7.38	1.39	0.750			
0.4221	27016.75	3.8450	3.8448	1.4750	7.36	1.37	0.750			
0.4267	27308.28	3.8420	3.8421	1.5053	7.35	1.36	0.750			
0.4312	27599.15	3.8390	3.8391	1.5268	7.34	1.35	0.750			
0.4359	27898.92	3.8360	3.8357	1.5506	7.33	1.34	0.750			
0.4405	28191.58	3.8330	3.8331	1.5779	7.31	1.32	0.750			
0.4453	28497.39	3.8300	3.8299	1.6125	7.29	1.30	0.750			
0.4502	28809.77	3.8270	3.8269	1.6531	7.27	1.28	0.750			
0.4552	29133.08	3.8240	3.8238	1.6986	7.25	1.26	0.750			
0.4603	29462.30	3.8210	3.8208	1.7660	7.23	1.24	0.750			
0.4658	29809.86	3.8180	3.8182	1.8052	7.21	1.22	0.750			
0.4713	30164.41	3.8150	3.8148	1.8183	7.19	1.20	0.750			
0.4769	30518.67	3.8120	3.8121	1.8342	7.17	1.18	0.750			
0.4824	30873.14	3.8090	3.8090	1.8598	7.15	1.16	0.750			
0.4880	31233.89	3.8060	3.8061	1.9219	7.13	1.14	0.750			
0.4936	31589.80	3.8030	3.8029	1.9664	7.10	1.11	0.750			
0.4996	31976.77	3.8000	3.8000	2.0486	7.07	1.08	0.750			
0.5060	32383.46	3.7970	3.7970	2.1243	7.05	1.06	0.750			
0.5126	32806.77	3.7940	3.7941	2.1804	7.02	1.03	0.750			
0.5192	33227.54	3.7910	3.7909	2.1990	6.99	1.00	0.750			
0.5258	33649.33	3.7880	3.7880	2.2311	6.97	0.98	0.750			
0.5324	34076.72	3.7850	3.7849	2.2528	6.94	0.95	0.750			
0.5393	34514.92	3.7820	3.7821	2.3042	6.91	0.92	0.750			
0.5462	34956.83	3.7790	3.7791	2.3662	6.88	0.89	0.750			
0.5535	35424.30	3.7760	3.7758	2.4304	6.84	0.85	0.750			
0.5608	35894.28	3.7730	3.7731	2.4873	6.81	0.82	0.750			
0.5684	36380.11	3.7700	3.7700	2.5423	6.78	0.79	0.750			
0.5760	36866.07	3.7670	3.7670	2.5772	6.74	0.75	0.750			
0.5839	37370.22	3.7640	3.7640	2.6329	6.71	0.72	0.750			
0.5919	37881.04	3.7610	3.7609	2.6714	6.67	0.68	0.750			
0.6000	38396.93	3.7580	3.7580	2.6910	6.64	0.65	0.750			
0.6080	38913.23	3.7550	3.7549	2.7081	6.60	0.61	0.750			
0.6162	39435.52	3.7520	3.7519	2.7840	6.57	0.58	0.750			
0.6247	39978.73	3.7490	3.7489	2.8574	6.53	0.54	0.750			
0.6333	40532.08	3.7460	3.7460	2.9878	6.50	0.51	0.750			
0.6424	41113.16	3.7430	3.7429	3.1744	6.46	0.47	0.750			
0.6522	41739.93	3.7400	3.7400	3.3795	6.41	0.42	0.750			
0.6628	42420.17	3.7370	3.7369	3.3952	6.37	0.38	0.750			
0.6728	43062.25	3.7340	3.7341	3.2972	6.33	0.34	0.750			
0.6823	43669.15	3.7310	3.7310	3.2839	6.30	0.31	0.750			
0.6923	44310.24	3.7280	3.7280	3.2567	6.27	0.28	0.750			
0.7025	44961.97	3.7250	3.7250	3.1542	6.23	0.24	0.750			
0.7113	45523.05	3.7220	3.7219	2.7314	6.20	0.21	0.750			
0.7187	45998.15	3.7190	3.7193	2.3936	6.18	0.19	0.750			
0.7253	46418.30	3.7160	3.7158	2.1202	6.16	0.17	0.750			
0.7313	46805.00	3.7130	3.7132	1.9080	6.14	0.15	0.750			
0.7366	47140.39	3.7100	3.7100	1.7118	6.13	0.14	0.750			
0.7414	47447.67	3.7070	3.7070	1.5606	6.12	0.13	0.750			
0.7457	47723.67	3.7040	3.7041	1.4098	6.11	0.12	0.750			
0.7497	47979.59	3.7010	3.7010	1.2978	6.10	0.11	0.750			
0.7534	48216.87	3.6980	3.6980	1.2092	6.09	0.10	0.750			
0.7567	48431.15	3.6950	3.6951	1.1409	6.08	0.09	0.750			
0.7601	48643.29	3.6920	3.6917	1.1060	6.07	0.08	0.750			
0.7632	48845.80	3.6890	3.6890	1.0687	6.06	0.07	0.750			
0.7664	49049.03	3.6860	3.6861	1.0500	6.06	0.07	0.750			
0.7695	49247.48	3.6830	3.6830	1.0420	6.05	0.06	0.750			
0.7727	49449.95	3.6800	3.6799	1.0307	6.04	0.05	0.750			
0.7757	49645.15	3.6770	3.6770	1.0050	6.04	0.05	0.750			
0.7787	49836.89	3.6740	3.6740	0.9866	6.03	0.04	0.750			
0.7816	50025.08	3.6710	3.6712	0.9632	6.03	0.04	0.750			
0.7845	50208.91	3.6680	3.6678	0.9414	6.02	0.03	0.750			
0.7873	50387.11	3.6650	3.6649	0.9153	6.02	0.03	0.750			
0.7900	50558.59	3.6620	3.6620	0.8890	6.02	0.03	0.750			
0.7926	50729.53	3.6590	3.6590	0.8700	6.01	0.02	0.750			
0.7952	50893.47	3.6560	3.6560	0.8445	6.01	0.02	0.750			
0.7977	51052.32	3.6530	3.6530	0.8181	6.01	0.02	0.750			
0.8001	51206.21	3.6500	3.6500	0.8014	6.00	0.01	0.750			
0.8025	51357.90	3.6470	3.6469	0.7778	6.00	0.01	0.750			
0.8048	51505.76	3.6440	3.6440	0.7585	5.99	0.00	0.750			
0.8070	51649.05	3.6410	3.6410	0.7352	5.99	-0.00	0.750			
0.8093	51793.34	3.6380	3.6380	0.7078	5.98	-0.01	0.750			
0.8114	51927.37	3.6350	3.6350	0.6687	5.98	-0.01	0.750			
0.8134	52054.69	3.6320	3.6321	0.6219	5.98	-0.01	0.750			
0.8152	52169.68	3.6290	3.6291	0.5658	5.98	-0.01	0.750			
0.8168	52275.70	3.6260	3.6259	0.5082	5.99	-0.00	0.750			
0.8182	52365.62	3.6230	3.6230	0.4412	5.99	-0.00	0.750			
0.8194	52443.55	3.6200	3.6200	0.3758	5.99	-0.00	0.750			
0.8204	52507.76	3.6170	3.6170	0.3187	5.99	-0.00	0.750			
0.8213	52562.04	3.6140	3.6140	0.2564	5.99	-0.00	0.750			
0.8220	52605.29	3.6110	3.6109	0.2008	5.99	-0.00	0.750			
0.8225	52637.11	3.6080	3.6081	0.1459	5.99	-0.00	0.750			
0.8228	52661.40	3.6050	3.6038	0.0957	5.99	0.00	0.750			
0.8230	52671.23	3.5960	3.5967	-0.0594	5.99	0.00	0.750			
0.8230	52674.24	3.6020	3.5794	0.0437	5.99	0.00	0.749			
0.8231	52677.68	3.5990	3.5512	-0.0078	5.99	0.00	0.745			
