Ah_balance (normalized)	Ah_balance (mAh)	Voltage - fit (V)	Voltage -  interpolate (V)	dQ/dV (1/V)	Temperature (°C)	Temperature - diff (°C)	Current (C)	R_DC 0ms (mOhm)	R_DC 50ms (mOhm)	R_DC 50 ms PEC (mOhm)
0.0952	6092.75	4.1990	4.1973	0.6091	8.26	2.26	0.750			
0.0974	6230.61	4.1960	4.1985	0.7980	8.26	2.26	0.750	0.387	0.834	
0.1000	6401.46	4.1930	4.1947	0.8495	8.26	2.26	0.750			
0.1026	6566.21	4.1900	4.1910	0.8235	8.25	2.25	0.750			
0.1052	6735.44	4.1870	4.1871	0.8187	8.25	2.25	0.750			
0.1077	6894.82	4.1840	4.1836	0.7788	8.24	2.24	0.750			
0.1095	7005.93	4.1810	4.1809	0.6856	8.24	2.24	0.750			
0.1115	7136.49	4.1780	4.1780	0.6909	8.24	2.24	0.750			
0.1136	7269.17	4.1750	4.1751	0.6945	8.23	2.23	0.750			
0.1157	7404.47	4.1720	4.1719	0.6924	8.22	2.22	0.750			
0.1178	7537.95	4.1690	4.1690	0.7003	8.22	2.22	0.750			
0.1199	7670.49	4.1660	4.1662	0.7103	8.21	2.21	0.750			
0.1220	7807.60	4.1630	4.1628	0.7180	8.20	2.20	0.750			
0.1242	7946.76	4.1600	4.1599	0.7246	8.20	2.20	0.750			
0.1263	8085.95	4.1570	4.1572	0.7257	8.19	2.19	0.750			
0.1286	8228.19	4.1540	4.1541	0.7260	8.19	2.19	0.750			
0.1308	8371.65	4.1510	4.1510	0.7291	8.18	2.18	0.750			
0.1329	8506.59	4.1480	4.1481	0.7198	8.18	2.18	0.750			
0.1351	8644.37	4.1450	4.1448	0.7229	8.17	2.17	0.750			
0.1372	8783.42	4.1420	4.1421	0.7271	8.17	2.17	0.750			
0.1394	8924.22	4.1390	4.1389	0.7256	8.16	2.16	0.750			
0.1416	9065.49	4.1360	4.1361	0.7297	8.16	2.16	0.750			
0.1438	9204.60	4.1330	4.1330	0.7272	8.16	2.16	0.750			
0.1460	9343.69	4.1300	4.1301	0.7308	8.15	2.15	0.750			
0.1482	9483.12	4.1270	4.1269	0.7294	8.15	2.15	0.750			
0.1504	9623.67	4.1240	4.1240	0.7340	8.14	2.14	0.750			
0.1526	9766.41	4.1210	4.1211	0.7374	8.13	2.13	0.750			
0.1548	9907.89	4.1180	4.1180	0.7460	8.13	2.13	0.750			
0.1571	10051.45	4.1150	4.1151	0.7522	8.12	2.12	0.750			
0.1593	10195.62	4.1120	4.1119	0.7598	8.11	2.11	0.750			
0.1616	10342.60	4.1090	4.1090	0.7685	8.11	2.11	0.750			
0.1640	10496.29	4.1060	4.1059	0.7687	8.10	2.10	0.750			
0.1663	10643.54	4.1030	4.1031	0.7674	8.10	2.10	0.750			
0.1686	10791.41	4.1000	4.0999	0.7737	8.09	2.09	0.750			
0.1709	10937.68	4.0970	4.0971	0.7708	8.08	2.08	0.750			
0.1732	11083.97	4.0940	4.0936	0.7697	8.08	2.08	0.750			
0.1755	11231.20	4.0910	4.0911	0.7739	8.07	2.07	0.750			
0.1778	11382.35	4.0880	4.0880	0.7778	8.07	2.07	0.750			
0.1802	11532.64	4.0850	4.0851	0.7847	8.06	2.06	0.750			
0.1826	11683.37	4.0820	4.0820	0.7827	8.06	2.06	0.750			
0.1849	11833.18	4.0790	4.0789	0.7870	8.05	2.05	0.750			
0.1873	11984.40	4.0760	4.0761	0.7946	8.05	2.05	0.750			
0.1897	12138.18	4.0730	4.0730	0.8006	8.04	2.04	0.750			
0.1921	12293.10	4.0700	4.0700	0.8086	8.03	2.03	0.750			
0.1945	12449.76	4.0670	4.0670	0.8109	8.03	2.03	0.750			
0.1970	12606.99	4.0640	4.0640	0.8107	8.02	2.02	0.750			
0.1994	12763.96	4.0610	4.0610	0.8147	8.02	2.02	0.750			
0.2019	12920.33	4.0580	4.0581	0.8102	8.01	2.01	0.750			
0.2043	13074.31	4.0550	4.0550	0.8142	8.00	2.00	0.750			
0.2067	13231.39	4.0520	4.0521	0.8187	8.00	2.00	0.750			
0.2092	13386.56	4.0490	4.0489	0.8275	7.99	1.99	0.750			
0.2117	13547.47	4.0460	4.0461	0.8333	7.99	1.99	0.750			
0.2142	13711.13	4.0430	4.0430	0.8350	7.98	1.98	0.750			
0.2167	13870.38	4.0400	4.0400	0.8359	7.97	1.97	0.750			
0.2192	14031.93	4.0370	4.0371	0.8420	7.97	1.97	0.750			
0.2218	14193.44	4.0340	4.0339	0.8425	7.96	1.96	0.750			
0.2243	14354.20	4.0310	4.0310	0.8457	7.96	1.96	0.750			
0.2268	14515.86	4.0280	4.0282	0.8423	7.95	1.95	0.750			
0.2294	14679.29	4.0250	4.0250	0.8549	7.94	1.94	0.750			
0.2319	14843.96	4.0220	4.0220	0.8703	7.93	1.93	0.750			
0.2346	15011.66	4.0190	4.0188	0.8628	7.92	1.92	0.750			
0.2372	15178.52	4.0160	4.0161	0.8622	7.92	1.92	0.750			
0.2398	15346.26	4.0130	4.0131	0.8649	7.91	1.91	0.750			
0.2424	15510.92	4.0100	4.0099	0.8670	7.90	1.90	0.750			
0.2449	15675.78	4.0070	4.0070	0.8725	7.90	1.90	0.750			
0.2475	15840.38	4.0040	4.0039	0.8764	7.89	1.89	0.750			
0.2502	16010.04	4.0010	4.0011	0.8796	7.88	1.88	0.750			
0.2529	16182.80	3.9980	3.9979	0.8961	7.88	1.88	0.750			
0.2556	16356.12	3.9950	3.9951	0.9030	7.87	1.87	0.750			
0.2583	16529.43	3.9920	3.9921	0.9078	7.86	1.86	0.750			
0.2610	16703.61	3.9890	3.9888	0.9061	7.86	1.86	0.750			
0.2637	16879.95	3.9860	3.9862	0.9053	7.85	1.85	0.750			
0.2665	17054.90	3.9830	3.9830	0.8998	7.84	1.84	0.750			
0.2691	17225.38	3.9800	3.9801	0.9067	7.83	1.83	0.750			
0.2718	17398.08	3.9770	3.9770	0.9114	7.82	1.82	0.750			
0.2746	17572.12	3.9740	3.9738	0.9090	7.81	1.81	0.750			
0.2773	17745.68	3.9710	3.9710	0.9200	7.81	1.81	0.750			
0.2801	17925.55	3.9680	3.9681	0.9335	7.80	1.80	0.750			
0.2829	18107.30	3.9650	3.9650	0.9348	7.79	1.79	0.750			
0.2857	18287.60	3.9620	3.9619	0.9464	7.78	1.78	0.750			
0.2886	18469.04	3.9590	3.9591	0.9349	7.77	1.77	0.750			
0.2914	18647.53	3.9560	3.9559	0.9512	7.76	1.76	0.750			
0.2942	18831.11	3.9530	3.9531	0.9685	7.75	1.75	0.750			
0.2971	19017.43	3.9500	3.9498	0.9724	7.74	1.74	0.750			
0.3001	19208.48	3.9470	3.9470	0.9826	7.73	1.73	0.750			
0.3031	19398.45	3.9440	3.9440	0.9910	7.72	1.72	0.750			
0.3061	19587.89	3.9410	3.9412	0.9920	7.71	1.71	0.750			
0.3090	19778.04	3.9380	3.9379	0.9943	7.70	1.70	0.750			
0.3120	19970.90	3.9350	3.9351	1.0036	7.69	1.69	0.750			
0.3150	20161.52	3.9320	3.9320	1.0100	7.68	1.68	0.750			
0.3181	20358.61	3.9290	3.9290	1.0239	7.67	1.67	0.750			
0.3212	20557.31	3.9260	3.9260	1.0395	7.66	1.66	0.750			
0.3243	20758.33	3.9230	3.9230	1.0356	7.65	1.65	0.750			
0.3274	20956.58	3.9200	3.9201	1.0538	7.64	1.64	0.750			
0.3306	21160.38	3.9170	3.9170	1.0592	7.63	1.63	0.750			
0.3338	21365.16	3.9140	3.9141	1.0706	7.62	1.62	0.750			
0.3371	21573.28	3.9110	3.9110	1.0639	7.61	1.61	0.750			
0.3402	21775.98	3.9080	3.9082	1.0832	7.60	1.60	0.750			
0.3435	21983.85	3.9050	3.9051	1.0932	7.59	1.59	0.750			
0.3468	22196.31	3.9020	3.9018	1.1078	7.57	1.57	0.750			
0.3501	22405.66	3.8990	3.8991	1.1187	7.56	1.56	0.750			
0.3535	22622.13	3.8960	3.8961	1.1473	7.55	1.55	0.750			
0.3570	22845.51	3.8930	3.8930	1.1628	7.54	1.54	0.750			
0.3606	23075.85	3.8900	3.8899	1.1629	7.53	1.53	0.750			
0.3641	23301.20	3.8870	3.8870	1.1682	7.51	1.51	0.750			
0.3676	23526.46	3.8840	3.8842	1.1821	7.50	1.50	0.750			
0.3711	23752.13	3.8810	3.8811	1.1916	7.49	1.49	0.750			
0.3746	23976.82	3.8780	3.8779	1.1979	7.47	1.47	0.750			
0.3782	24204.51	3.8750	3.8750	1.2209	7.46	1.46	0.750			
0.3819	24443.08	3.8720	3.8721	1.2624	7.45	1.45	0.750			
0.3859	24695.80	3.8690	3.8689	1.2912	7.44	1.44	0.750	0.373	0.858	
0.3897	24942.42	3.8660	3.8662	1.2993	7.42	1.42	0.750			
0.3936	25190.87	3.8630	3.8631	1.3175	7.41	1.41	0.750			
0.3976	25445.15	3.8600	3.8599	1.3481	7.39	1.39	0.750			
0.4017	25705.66	3.8570	3.8566	1.3668	7.37	1.37	0.750			
0.4058	25969.09	3.8540	3.8542	1.3941	7.36	1.36	0.750			
0.4100	26242.55	3.8510	3.8510	1.4140	7.34	1.34	0.750			
0.4143	26517.35	3.8480	3.8482	1.4465	7.32	1.32	0.750			
0.4187	26799.99	3.8450	3.8450	1.4645	7.31	1.31	0.750			
0.4231	27077.52	3.8420	3.8419	1.4783	7.29	1.29	0.750			
0.4275	27362.12	3.8390	3.8391	1.4984	7.27	1.27	0.750			
0.4321	27652.88	3.8360	3.8360	1.5162	7.25	1.25	0.750			
0.4367	27947.79	3.8330	3.8328	1.5399	7.23	1.23	0.750			
0.4413	28243.36	3.8300	3.8299	1.5616	7.22	1.22	0.750			
0.4460	28546.14	3.8270	3.8271	1.5800	7.20	1.20	0.750			
0.4508	28852.33	3.8240	3.8240	1.6254	7.18	1.18	0.750			
0.4557	29161.96	3.8210	3.8211	1.6571	7.15	1.15	0.750			
0.4608	29490.45	3.8180	3.8181	1.6772	7.13	1.13	0.750			
0.4659	29818.03	3.8150	3.8149	1.6982	7.11	1.11	0.750			
0.4710	30144.30	3.8120	3.8121	1.7108	7.09	1.09	0.750			
0.4761	30471.59	3.8090	3.8089	1.7492	7.06	1.06	0.750			
0.4814	30809.00	3.8060	3.8061	1.7903	7.04	1.04	0.750			
0.4868	31153.92	3.8030	3.8028	1.8084	7.01	1.01	0.750			
0.4923	31507.87	3.8000	3.8001	1.8519	6.99	0.99	0.750			
0.4980	31870.61	3.7970	3.7969	1.8654	6.97	0.97	0.750			
0.5036	32232.97	3.7940	3.7938	1.8993	6.94	0.94	0.750			
0.5093	32595.31	3.7910	3.7911	1.8854	6.91	0.91	0.750			
0.5150	32958.36	3.7880	3.7880	1.8846	6.89	0.89	0.750			
0.5206	33319.67	3.7850	3.7851	1.9265	6.86	0.86	0.750			
0.5264	33687.83	3.7820	3.7819	1.9772	6.83	0.83	0.750			
0.5324	34071.53	3.7790	3.7787	2.0076	6.80	0.80	0.750			
0.5385	34463.12	3.7760	3.7761	2.0387	6.77	0.77	0.750			
0.5448	34866.91	3.7730	3.7732	2.0894	6.74	0.74	0.750			
0.5510	35265.48	3.7700	3.7699	2.1498	6.71	0.71	0.750			
0.5575	35679.67	3.7670	3.7669	2.1483	6.68	0.68	0.750			
0.5640	36093.54	3.7640	3.7639	2.1971	6.66	0.66	0.750			
0.5708	36528.42	3.7610	3.7612	2.2662	6.63	0.63	0.750			
0.5776	36964.60	3.7580	3.7579	2.3640	6.59	0.59	0.750			
0.5846	37415.32	3.7550	3.7551	2.5327	6.55	0.55	0.750			
0.5926	37928.25	3.7520	3.7520	2.7139	6.51	0.51	0.750			
0.6010	38466.03	3.7490	3.7490	2.8309	6.48	0.48	0.750			
0.6098	39026.95	3.7460	3.7460	2.9182	6.44	0.44	0.750			
0.6186	39587.37	3.7430	3.7430	3.0285	6.41	0.41	0.750			
0.6278	40178.49	3.7400	3.7399	3.1624	6.38	0.38	0.750			
0.6379	40822.50	3.7370	3.7371	3.1167	6.33	0.33	0.750			
0.6472	41419.86	3.7340	3.7342	3.0294	6.29	0.29	0.750			
0.6556	41957.59	3.7310	3.7307	2.7607	6.26	0.26	0.750			
0.6636	42471.89	3.7280	3.7282	2.5200	6.24	0.24	0.750			
0.6712	42956.76	3.7250	3.7251	2.3555	6.21	0.21	0.750			
0.6776	43364.04	3.7220	3.7220	2.0092	6.19	0.19	0.750			
0.6832	43726.43	3.7190	3.7190	1.7657	6.17	0.17	0.750			
0.6881	44038.11	3.7160	3.7160	1.5652	6.16	0.16	0.750			
0.6921	44294.69	3.7130	3.7130	1.4075	6.15	0.15	0.750			
0.6959	44540.11	3.7100	3.7100	1.2876	6.14	0.14	0.750			
0.6995	44766.08	3.7070	3.7069	1.2024	6.14	0.14	0.750			
0.7030	44989.21	3.7040	3.7041	1.1559	6.13	0.13	0.750			
0.7064	45207.00	3.7010	3.7010	1.1187	6.12	0.12	0.750			
0.7097	45420.50	3.6980	3.6978	1.0912	6.11	0.11	0.750			
0.7128	45621.89	3.6950	3.6950	1.0497	6.10	0.10	0.750			
0.7159	45817.30	3.6920	3.6920	1.0254	6.09	0.09	0.750			
0.7189	46012.53	3.6890	3.6890	1.0173	6.08	0.08	0.750			
0.7220	46206.96	3.6860	3.6859	1.0014	6.07	0.07	0.750			
0.7250	46399.05	3.6830	3.6830	0.9746	6.06	0.06	0.750			
0.7279	46585.21	3.6800	3.6801	0.9568	6.06	0.06	0.750			
0.7307	46767.07	3.6770	3.6771	0.9386	6.05	0.05	0.750			
0.7335	46944.05	3.6740	3.6738	0.9247	6.04	0.04	0.750			
0.7362	47115.58	3.6710	3.6711	0.9090	6.04	0.04	0.750			
0.7389	47288.70	3.6680	3.6680	0.8991	6.03	0.03	0.750			
0.7416	47464.03	3.6650	3.6650	0.8921	6.02	0.02	0.750			
0.7443	47635.74	3.6620	3.6621	0.8828	6.02	0.02	0.750			
0.7469	47801.87	3.6590	3.6589	0.8737	6.01	0.01	0.750			
0.7495	47967.96	3.6560	3.6560	0.8707	6.01	0.01	0.750			
0.7520	48130.83	3.6530	3.6530	0.8703	6.00	0.00	0.750			
0.7547	48299.76	3.6500	3.6500	0.8746	6.00	-0.00	0.750			
0.7574	48471.73	3.6470	3.6469	0.8750	5.99	-0.01	0.750			
0.7601	48644.21	3.6440	3.6441	0.8490	5.99	-0.01	0.750			
0.7627	48811.61	3.6410	3.6410	0.8171	5.99	-0.01	0.750			
0.7652	48970.18	3.6380	3.6380	0.7503	5.99	-0.01	0.750			
0.7674	49114.35	3.6350	3.6351	0.6736	6.00	-0.00	0.750			
0.7693	49238.06	3.6320	3.6319	0.5811	6.00	-0.00	0.750			
0.7709	49339.24	3.6290	3.6291	0.4796	6.00	-0.00	0.750			
0.7720	49408.89	3.6260	3.6264	0.4028	6.00	-0.00	0.750			
0.7731	49477.74	3.6230	3.6232	0.3281	6.00	0.00	0.750			
0.7739	49527.80	3.6200	3.6198	0.2463	6.00	0.00	0.750			
0.7745	49566.48	3.6170	3.6160	0.1884	6.00	0.00	0.750			
0.7749	49595.99	3.6140	3.5959	0.1388	6.00	0.00	0.750			
0.7750	49597.21	3.5960	3.5872	-0.1012	6.00	0.00	0.750			
0.7751	49605.46	3.6110	3.5104	0.0840	6.00	0.00	0.752			
0.7752	49613.08	3.5990	3.4407	-0.0642	6.00	0.00	0.754			
0.7753	49618.04	3.6080	3.3955	0.0470	6.00	0.00	0.755			
0.7753	49621.85	3.6020	3.3606	-0.0271	6.00	0.00	0.756			
0.7754	49623.50	3.6050	3.3456	0.0099	6.00	0.00	0.756			
