Ah_balance (normalized)	Ah_balance (mAh)	Voltage - fit (V)	Voltage -  interpolate (V)	dQ/dV (1/V)	Temperature (°C)	Temperature - diff (°C)	Current (C)	R_DC 0ms (mOhm)	R_DC 50ms (mOhm)	R_DC 50 ms PEC (mOhm)
0.0002	11.55	4.1000	4.0986	-0.0297	5.99	-0.01	-0.750			
0.0003	21.20	4.0970	4.0965	-0.0637	5.99	-0.01	-0.750			
0.0006	36.46	4.0940	4.0938	-0.0953	5.99	-0.01	-0.750			
0.0009	58.69	4.0910	4.0908	-0.1239	5.99	-0.01	-0.750			
0.0013	86.14	4.0880	4.0880	-0.1489	5.99	-0.01	-0.750			
0.0018	117.75	4.0850	4.0851	-0.1719	5.99	-0.01	-0.750			
0.0024	153.16	4.0820	4.0822	-0.1962	5.99	-0.01	-0.750			
0.0030	195.16	4.0790	4.0791	-0.2221	5.99	-0.01	-0.750			
0.0037	239.14	4.0760	4.0761	-0.2452	5.99	-0.01	-0.750			
0.0045	288.10	4.0730	4.0729	-0.2696	5.99	-0.01	-0.750			
0.0054	342.65	4.0700	4.0700	-0.2945	6.00	-0.00	-0.750			
0.0063	402.15	4.0670	4.0669	-0.3165	6.00	-0.00	-0.750			
0.0073	465.76	4.0640	4.0641	-0.3413	6.00	-0.00	-0.750			
0.0083	534.19	4.0610	4.0609	-0.3635	6.00	0.00	-0.750			
0.0095	605.31	4.0580	4.0580	-0.3841	6.00	0.00	-0.750			
0.0106	680.65	4.0550	4.0549	-0.4094	6.00	0.00	-0.750			
0.0119	761.24	4.0520	4.0521	-0.4278	6.01	0.01	-0.750			
0.0132	846.46	4.0490	4.0489	-0.4531	6.01	0.01	-0.750			
0.0146	935.30	4.0460	4.0461	-0.4755	6.01	0.01	-0.750			
0.0161	1029.37	4.0430	4.0430	-0.4923	6.01	0.01	-0.750			
0.0176	1125.13	4.0400	4.0400	-0.5151	6.02	0.02	-0.750			
0.0192	1226.29	4.0370	4.0369	-0.5327	6.02	0.02	-0.750			
0.0208	1330.22	4.0340	4.0340	-0.5523	6.02	0.02	-0.750			
0.0225	1439.61	4.0310	4.0309	-0.5716	6.03	0.03	-0.750			
0.0242	1550.72	4.0280	4.0281	-0.5889	6.03	0.03	-0.750			
0.0260	1666.75	4.0250	4.0249	-0.6039	6.03	0.03	-0.750			
0.0279	1786.10	4.0220	4.0220	-0.6198	6.04	0.04	-0.750			
0.0298	1904.89	4.0190	4.0190	-0.6286	6.04	0.04	-0.750			
0.0317	2028.22	4.0160	4.0161	-0.6406	6.05	0.05	-0.750			
0.0336	2152.60	4.0130	4.0129	-0.6488	6.05	0.05	-0.750			
0.0356	2277.52	4.0100	4.0100	-0.6563	6.06	0.06	-0.750			
0.0375	2402.59	4.0070	4.0071	-0.6640	6.07	0.07	-0.750			
0.0396	2531.93	4.0040	4.0040	-0.6766	6.07	0.07	-0.750			
0.0416	2664.74	4.0010	4.0008	-0.6885	6.08	0.08	-0.750			
0.0437	2797.70	3.9980	3.9980	-0.6931	6.09	0.09	-0.750			
0.0458	2932.04	3.9950	3.9951	-0.7008	6.09	0.09	-0.750			
0.0480	3068.86	3.9920	3.9920	-0.7047	6.10	0.10	-0.750			
0.0501	3203.51	3.9890	3.9889	-0.7138	6.11	0.11	-0.750			
0.0522	3338.64	3.9860	3.9861	-0.7170	6.12	0.12	-0.750			
0.0543	3477.67	3.9830	3.9829	-0.7312	6.13	0.13	-0.750			
0.0566	3620.59	3.9800	3.9800	-0.7385	6.14	0.14	-0.750			
0.0588	3764.22	3.9770	3.9770	-0.7422	6.14	0.14	-0.750			
0.0611	3907.26	3.9740	3.9740	-0.7431	6.15	0.15	-0.750			
0.0633	4052.75	3.9710	3.9711	-0.7442	6.16	0.16	-0.750			
0.0655	4193.91	3.9680	3.9679	-0.7375	6.17	0.17	-0.750			
0.0677	4335.00	3.9650	3.9650	-0.7386	6.18	0.18	-0.750			
0.0699	4475.29	3.9620	3.9621	-0.7369	6.19	0.19	-0.750			
0.0722	4617.81	3.9590	3.9589	-0.7385	6.20	0.20	-0.750			
0.0744	4759.55	3.9560	3.9560	-0.7423	6.21	0.21	-0.750			
0.0766	4903.68	3.9530	3.9530	-0.7479	6.22	0.22	-0.750			
0.0789	5047.69	3.9500	3.9500	-0.7545	6.23	0.23	-0.750			
0.0812	5194.49	3.9470	3.9469	-0.7568	6.24	0.24	-0.750			
0.0834	5339.41	3.9440	3.9442	-0.7601	6.25	0.25	-0.750			
0.0857	5485.31	3.9410	3.9408	-0.7632	6.26	0.26	-0.750			
0.0880	5632.57	3.9380	3.9380	-0.7641	6.27	0.27	-0.750			
0.0903	5777.74	3.9350	3.9350	-0.7577	6.28	0.28	-0.750			
0.0926	5925.22	3.9320	3.9321	-0.7761	6.29	0.29	-0.750			
0.0949	6074.23	3.9290	3.9291	-0.7775	6.30	0.30	-0.750			
0.0973	6224.98	3.9260	3.9258	-0.7836	6.31	0.31	-0.750			
0.0996	6376.54	3.9230	3.9232	-0.7862	6.32	0.32	-0.750			
0.1020	6529.66	3.9200	3.9200	-0.7880	6.34	0.34	-0.750			
0.1044	6682.36	3.9170	3.9169	-0.7814	6.35	0.35	-0.750			
0.1068	6832.86	3.9140	3.9141	-0.7783	6.36	0.36	-0.750			
0.1090	6977.10	3.9110	3.9109	-0.7755	6.38	0.38	-0.750			
0.1113	7125.43	3.9080	3.9080	-0.7850	6.39	0.39	-0.750			
0.1137	7277.64	3.9050	3.9048	-0.7822	6.40	0.40	-0.750			
0.1160	7426.20	3.9020	3.9020	-0.7869	6.41	0.41	-0.750			
0.1185	7583.18	3.8990	3.8991	-0.7941	6.42	0.42	-0.750			
0.1209	7736.70	3.8960	3.8960	-0.7916	6.43	0.43	-0.750			
0.1232	7884.31	3.8930	3.8929	-0.7946	6.44	0.44	-0.750			
0.1256	8036.76	3.8900	3.8902	-0.7952	6.45	0.45	-0.750			
0.1280	8189.50	3.8870	3.8868	-0.7927	6.46	0.46	-0.750			
0.1304	8344.67	3.8840	3.8839	-0.7996	6.47	0.47	-0.750			
0.1328	8496.19	3.8810	3.8814	-0.8015	6.48	0.48	-0.750			
0.1352	8651.59	3.8780	3.8779	-0.8076	6.49	0.49	-0.750			
0.1376	8808.11	3.8750	3.8749	-0.8080	6.51	0.51	-0.750			
0.1400	8962.03	3.8720	3.8721	-0.8055	6.52	0.52	-0.750			
0.1425	9118.63	3.8690	3.8690	-0.8138	6.53	0.53	-0.750			
0.1449	9274.98	3.8660	3.8660	-0.8148	6.55	0.55	-0.750			
0.1474	9432.41	3.8630	3.8629	-0.8051	6.56	0.56	-0.750			
0.1498	9584.66	3.8600	3.8601	-0.8025	6.57	0.57	-0.750			
0.1522	9739.77	3.8570	3.8570	-0.8007	6.58	0.58	-0.750			
0.1546	9892.99	3.8540	3.8540	-0.7973	6.60	0.60	-0.750			
0.1569	10044.01	3.8510	3.8509	-0.7980	6.61	0.61	-0.750			
0.1593	10195.86	3.8480	3.8481	-0.8036	6.62	0.62	-0.750			
0.1617	10349.51	3.8450	3.8449	-0.8173	6.63	0.63	-0.750			
0.1642	10509.27	3.8420	3.8419	-0.8326	6.64	0.64	-0.750			
0.1667	10671.74	3.8390	3.8390	-0.8329	6.65	0.65	-0.750			
0.1693	10836.78	3.8360	3.8359	-0.8406	6.66	0.66	-0.750			
0.1719	10998.88	3.8330	3.8330	-0.8331	6.67	0.67	-0.750			
0.1743	11155.92	3.8300	3.8301	-0.8295	6.68	0.68	-0.750			
0.1768	11314.14	3.8270	3.8269	-0.8252	6.69	0.69	-0.750			
0.1792	11469.72	3.8240	3.8239	-0.8204	6.70	0.70	-0.750			
0.1817	11629.32	3.8210	3.8210	-0.8226	6.72	0.72	-0.750			
0.1842	11787.98	3.8180	3.8180	-0.8257	6.73	0.73	-0.750			
0.1867	11946.43	3.8150	3.8150	-0.8350	6.74	0.74	-0.750			
0.1892	12106.26	3.8120	3.8121	-0.8401	6.76	0.76	-0.750			
0.1917	12267.34	3.8090	3.8089	-0.8321	6.77	0.77	-0.750			
0.1942	12431.41	3.8060	3.8060	-0.8409	6.78	0.78	-0.750			
0.1968	12592.51	3.8030	3.8030	-0.8421	6.80	0.80	-0.750			
0.1993	12755.83	3.8000	3.7999	-0.8460	6.81	0.81	-0.750			
0.2018	12916.06	3.7970	3.7969	-0.8430	6.82	0.82	-0.750			
0.2043	13075.72	3.7940	3.7940	-0.8356	6.83	0.83	-0.750			
0.2068	13237.71	3.7910	3.7910	-0.8439	6.84	0.84	-0.750			
0.2094	13401.84	3.7880	3.7878	-0.8486	6.85	0.85	-0.750			
0.2119	13562.66	3.7850	3.7849	-0.8502	6.86	0.86	-0.750			
0.2145	13725.23	3.7820	3.7820	-0.8550	6.87	0.87	-0.750			
0.2170	13890.95	3.7790	3.7791	-0.8550	6.88	0.88	-0.750			
0.2197	14059.13	3.7760	3.7759	-0.8563	6.90	0.90	-0.750			
0.2222	14223.58	3.7730	3.7731	-0.8580	6.91	0.91	-0.750			
0.2248	14385.39	3.7700	3.7701	-0.8549	6.92	0.92	-0.750			
0.2274	14550.76	3.7670	3.7669	-0.8519	6.93	0.93	-0.750			
0.2299	14712.63	3.7640	3.7639	-0.8490	6.94	0.94	-0.750			
0.2324	14876.63	3.7610	3.7611	-0.8465	6.95	0.95	-0.750			
0.2350	15039.20	3.7580	3.7580	-0.8518	6.96	0.96	-0.750			
0.2375	15203.04	3.7550	3.7549	-0.8603	6.97	0.97	-0.750			
0.2401	15367.56	3.7520	3.7520	-0.8622	6.98	0.98	-0.750			
0.2427	15531.91	3.7490	3.7490	-0.8725	6.99	0.99	-0.750			
0.2454	15704.20	3.7460	3.7461	-0.8758	7.00	1.00	-0.750			
0.2480	15871.42	3.7430	3.7430	-0.8803	7.01	1.01	-0.750			
0.2507	16042.62	3.7400	3.7400	-0.8822	7.02	1.02	-0.750			
0.2533	16210.07	3.7370	3.7370	-0.8780	7.03	1.03	-0.750			
0.2559	16379.03	3.7340	3.7339	-0.8780	7.04	1.04	-0.750			
0.2586	16547.27	3.7310	3.7312	-0.8780	7.05	1.05	-0.750			
0.2612	16713.67	3.7280	3.7280	-0.8825	7.07	1.07	-0.750			
0.2638	16885.65	3.7250	3.7250	-0.8923	7.08	1.08	-0.750			
0.2665	17056.48	3.7220	3.7219	-0.8866	7.09	1.09	-0.750			
0.2692	17229.22	3.7190	3.7189	-0.8910	7.11	1.11	-0.750			
0.2719	17399.45	3.7160	3.7161	-0.8998	7.12	1.12	-0.750			
0.2746	17572.13	3.7130	3.7130	-0.9068	7.13	1.13	-0.750			
0.2773	17746.63	3.7100	3.7099	-0.9035	7.14	1.14	-0.750			
0.2800	17918.37	3.7070	3.7070	-0.9035	7.15	1.15	-0.750			
0.2827	18094.59	3.7040	3.7042	-0.9203	7.16	1.16	-0.750			
0.2855	18272.88	3.7010	3.7009	-0.9343	7.17	1.17	-0.750			
0.2883	18453.41	3.6980	3.6979	-0.9395	7.18	1.18	-0.750			
0.2912	18633.74	3.6950	3.6950	-0.9426	7.19	1.19	-0.750			
0.2940	18817.25	3.6920	3.6920	-0.9526	7.21	1.21	-0.750			
0.2969	19003.37	3.6890	3.6889	-0.9563	7.22	1.22	-0.750			
0.2998	19186.36	3.6860	3.6860	-0.9591	7.22	1.22	-0.750			
0.3026	19368.97	3.6830	3.6829	-0.9593	7.23	1.23	-0.750			
0.3055	19552.93	3.6800	3.6799	-0.9598	7.24	1.24	-0.750			
0.3084	19739.26	3.6770	3.6771	-0.9708	7.25	1.25	-0.750			
0.3113	19924.62	3.6740	3.6740	-0.9809	7.26	1.26	-0.750			
0.3143	20114.59	3.6710	3.6710	-0.9883	7.28	1.28	-0.750			
0.3173	20304.03	3.6680	3.6679	-0.9890	7.29	1.29	-0.750			
0.3203	20496.38	3.6650	3.6652	-1.0086	7.30	1.30	-0.750			
0.3233	20690.74	3.6620	3.6619	-1.0145	7.31	1.31	-0.750			
0.3264	20887.12	3.6590	3.6590	-1.0232	7.31	1.31	-0.750			
0.3294	21083.97	3.6560	3.6560	-1.0308	7.32	1.32	-0.750			
0.3325	21280.99	3.6530	3.6531	-1.0429	7.33	1.33	-0.750			
0.3357	21484.02	3.6500	3.6500	-1.0518	7.34	1.34	-0.750			
0.3389	21687.10	3.6470	3.6469	-1.0541	7.35	1.35	-0.750			
0.3420	21887.85	3.6440	3.6440	-1.0567	7.36	1.36	-0.750			
0.3452	22091.02	3.6410	3.6414	-1.0680	7.37	1.37	-0.750			
0.3484	22295.47	3.6380	3.6379	-1.0782	7.38	1.38	-0.750			
0.3516	22503.87	3.6350	3.6350	-1.0878	7.39	1.39	-0.750			
0.3549	22713.99	3.6320	3.6320	-1.0998	7.39	1.39	-0.750			
0.3582	22926.94	3.6290	3.6292	-1.1181	7.40	1.40	-0.750			
0.3617	23145.87	3.6260	3.6260	-1.1203	7.41	1.41	-0.750			
0.3650	23362.44	3.6230	3.6229	-1.1182	7.42	1.42	-0.750			
0.3684	23575.22	3.6200	3.6200	-1.1287	7.43	1.43	-0.750			
0.3717	23791.14	3.6170	3.6171	-1.1347	7.43	1.43	-0.750			
0.3752	24011.16	3.6140	3.6138	-1.1374	7.44	1.44	-0.750			
0.3786	24229.25	3.6110	3.6110	-1.1425	7.45	1.45	-0.750			
0.3820	24449.09	3.6080	3.6081	-1.1475	7.46	1.46	-0.750			
0.3855	24671.32	3.6050	3.6050	-1.1771	7.47	1.47	-0.750			
0.3890	24898.69	3.6020	3.6019	-1.1830	7.48	1.48	-0.750			
0.3926	25124.29	3.5990	3.5989	-1.1951	7.48	1.48	-0.750			
0.3962	25356.28	3.5960	3.5963	-1.2271	7.49	1.49	-0.750	0.401	0.908	
0.4000	25599.09	3.5930	3.5927	-1.2440	7.50	1.50	-0.750			
0.4038	25840.17	3.5900	3.5899	-1.2420	7.51	1.51	-0.750			
0.4074	26076.47	3.5870	3.5874	-1.2455	7.52	1.52	-0.750			
0.4112	26319.65	3.5840	3.5839	-1.2634	7.53	1.53	-0.750			
0.4151	26563.52	3.5810	3.5809	-1.2718	7.54	1.54	-0.750			
0.4188	26800.00	3.5780	3.5779	-1.2806	7.55	1.55	-0.750			
0.4227	27051.67	3.5750	3.5750	-1.2954	7.55	1.55	-0.750			
0.4266	27301.48	3.5720	3.5720	-1.3127	7.56	1.56	-0.750			
0.4305	27554.52	3.5690	3.5691	-1.3346	7.57	1.57	-0.750			
0.4345	27810.91	3.5660	3.5659	-1.3406	7.57	1.57	-0.750			
0.4386	28071.41	3.5630	3.5629	-1.3517	7.58	1.58	-0.750			
0.4427	28330.39	3.5600	3.5599	-1.3687	7.59	1.59	-0.750			
0.4469	28599.74	3.5570	3.5571	-1.3658	7.60	1.60	-0.750			
0.4510	28864.02	3.5540	3.5539	-1.3669	7.61	1.61	-0.750			
0.4550	29117.71	3.5510	3.5510	-1.3818	7.62	1.62	-0.750			
0.4591	29381.92	3.5480	3.5479	-1.3887	7.63	1.63	-0.750			
0.4633	29653.49	3.5450	3.5448	-1.4116	7.64	1.64	-0.750			
0.4676	29926.10	3.5420	3.5420	-1.4343	7.65	1.65	-0.750			
0.4720	30206.50	3.5390	3.5391	-1.4424	7.65	1.65	-0.750			
0.4765	30494.80	3.5360	3.5359	-1.4418	7.67	1.67	-0.750			
0.4807	30767.82	3.5330	3.5329	-1.4307	7.68	1.68	-0.750			
0.4849	31036.71	3.5300	3.5301	-1.4106	7.69	1.69	-0.750			
0.4892	31307.21	3.5270	3.5269	-1.4331	7.70	1.70	-0.750			
0.4934	31579.00	3.5240	3.5239	-1.4384	7.71	1.71	-0.750			
0.4977	31854.69	3.5210	3.5208	-1.4437	7.72	1.72	-0.750			
0.5022	32139.74	3.5180	3.5181	-1.4478	7.73	1.73	-0.750			
0.5066	32424.21	3.5150	3.5150	-1.4661	7.74	1.74	-0.750			
0.5110	32701.43	3.5120	3.5120	-1.4585	7.75	1.75	-0.750			
0.5154	32984.40	3.5090	3.5088	-1.4578	7.76	1.76	-0.750			
0.5196	33257.16	3.5060	3.5061	-1.4498	7.77	1.77	-0.750			
0.5240	33537.38	3.5030	3.5031	-1.4598	7.78	1.78	-0.750			
0.5285	33822.74	3.5000	3.4999	-1.4671	7.79	1.79	-0.750			
0.5329	34104.77	3.4970	3.4971	-1.4703	7.80	1.80	-0.750			
0.5373	34384.98	3.4940	3.4940	-1.4550	7.81	1.81	-0.750			
0.5417	34667.89	3.4910	3.4911	-1.4540	7.82	1.82	-0.750			
0.5461	34947.20	3.4880	3.4881	-1.4611	7.83	1.83	-0.750			
0.5504	35227.23	3.4850	3.4849	-1.4553	7.84	1.84	-0.750			
0.5548	35505.62	3.4820	3.4819	-1.4429	7.85	1.85	-0.750			
0.5592	35785.72	3.4790	3.4791	-1.4243	7.86	1.86	-0.750			
0.5634	36058.29	3.4760	3.4760	-1.4125	7.87	1.87	-0.750			
0.5676	36325.41	3.4730	3.4730	-1.4106	7.88	1.88	-0.750			
0.5717	36590.28	3.4700	3.4699	-1.3882	7.89	1.89	-0.750			
0.5759	36857.97	3.4670	3.4668	-1.3868	7.91	1.91	-0.750			
0.5801	37124.01	3.4640	3.4640	-1.3925	7.92	1.92	-0.750			
0.5843	37394.42	3.4610	3.4612	-1.3897	7.94	1.94	-0.750			
0.5885	37663.29	3.4580	3.4579	-1.3881	7.95	1.95	-0.750			
0.5926	37927.67	3.4550	3.4549	-1.3636	7.96	1.96	-0.750			
0.5967	38186.16	3.4520	3.4520	-1.3418	7.97	1.97	-0.750			
0.6007	38444.37	3.4490	3.4491	-1.3424	7.98	1.98	-0.750			
0.6047	38702.15	3.4460	3.4461	-1.3265	7.99	1.99	-0.750			
0.6086	38952.84	3.4430	3.4429	-1.3106	8.00	2.00	-0.750			
0.6126	39208.28	3.4400	3.4399	-1.2932	8.02	2.02	-0.750			
0.6165	39453.85	3.4370	3.4371	-1.2734	8.04	2.04	-0.750			
0.6203	39697.23	3.4340	3.4342	-1.2656	8.06	2.06	-0.750			
0.6241	39939.25	3.4310	3.4309	-1.2437	8.07	2.07	-0.750			
0.6277	40174.87	3.4280	3.4279	-1.2187	8.08	2.08	-0.750			
0.6314	40407.45	3.4250	3.4249	-1.2002	8.10	2.10	-0.750			
0.6350	40638.44	3.4220	3.4220	-1.1840	8.11	2.11	-0.750			
0.6385	40865.39	3.4190	3.4188	-1.1567	8.12	2.12	-0.750			
0.6419	41082.05	3.4160	3.4160	-1.1211	8.14	2.14	-0.750			
0.6452	41295.41	3.4130	3.4132	-1.1016	8.15	2.15	-0.750			
0.6485	41503.25	3.4100	3.4100	-1.0721	8.17	2.17	-0.750			
0.6516	41704.81	3.4070	3.4069	-1.0473	8.18	2.18	-0.750			
0.6547	41901.26	3.4040	3.4040	-1.0184	8.20	2.20	-0.750			
0.6578	42096.88	3.4010	3.4010	-0.9982	8.21	2.21	-0.750			
0.6607	42285.41	3.3980	3.3980	-0.9728	8.22	2.22	-0.750			
0.6636	42468.09	3.3950	3.3951	-0.9532	8.24	2.24	-0.750			
0.6664	42649.13	3.3920	3.3919	-0.9340	8.25	2.25	-0.750			
0.6692	42826.66	3.3890	3.3890	-0.9133	8.27	2.27	-0.750			
0.6719	43001.91	3.3860	3.3858	-0.8896	8.28	2.28	-0.750			
0.6746	43173.91	3.3830	3.3831	-0.8728	8.29	2.29	-0.750			
0.6772	43339.35	3.3800	3.3799	-0.8437	8.31	2.31	-0.750			
0.6796	43495.88	3.3770	3.3770	-0.8128	8.32	2.32	-0.750			
0.6820	43646.90	3.3740	3.3739	-0.7861	8.34	2.34	-0.750			
0.6843	43795.71	3.3710	3.3709	-0.7729	8.35	2.35	-0.750			
0.6866	43942.87	3.3680	3.3679	-0.7547	8.36	2.36	-0.750			
0.6888	44086.31	3.3650	3.3650	-0.7406	8.37	2.37	-0.750			
0.6911	44228.78	3.3620	3.3621	-0.7198	8.39	2.39	-0.750			
0.6932	44367.97	3.3590	3.3590	-0.7022	8.40	2.40	-0.750			
0.6953	44500.30	3.3560	3.3561	-0.6794	8.41	2.41	-0.750			
0.6973	44627.01	3.3530	3.3530	-0.6506	8.42	2.42	-0.750			
0.6992	44748.51	3.3500	3.3500	-0.6328	8.44	2.44	-0.750			
0.7010	44866.77	3.3470	3.3470	-0.6202	8.45	2.45	-0.750			
0.7029	44984.32	3.3440	3.3440	-0.6016	8.46	2.46	-0.750			
0.7047	45099.45	3.3410	3.3410	-0.5868	8.47	2.47	-0.750			
0.7064	45210.93	3.3380	3.3380	-0.5743	8.48	2.48	-0.750			
0.7081	45319.73	3.3350	3.3351	-0.5603	8.49	2.49	-0.750			
0.7098	45425.02	3.3320	3.3320	-0.5514	8.50	2.50	-0.750			
0.7114	45528.92	3.3290	3.3290	-0.5369	8.51	2.51	-0.750			
0.7130	45631.14	3.3260	3.3260	-0.5227	8.52	2.52	-0.750			
0.7146	45731.93	3.3230	3.3231	-0.5178	8.53	2.53	-0.750			
0.7161	45830.66	3.3200	3.3201	-0.5055	8.54	2.54	-0.750			
0.7176	45925.36	3.3170	3.3169	-0.4943	8.55	2.55	-0.750			
0.7190	46018.68	3.3140	3.3139	-0.4834	8.56	2.56	-0.750			
0.7205	46110.16	3.3110	3.3112	-0.4723	8.57	2.57	-0.750			
0.7219	46201.86	3.3080	3.3080	-0.4648	8.59	2.59	-0.750			
0.7233	46290.46	3.3050	3.3050	-0.4509	8.60	2.60	-0.750			
0.7246	46375.43	3.3020	3.3020	-0.4341	8.61	2.61	-0.750			
0.7259	46457.02	3.2990	3.2990	-0.4252	8.62	2.62	-0.750			
0.7271	46536.48	3.2960	3.2961	-0.4141	8.63	2.63	-0.750			
0.7283	46614.11	3.2930	3.2929	-0.4060	8.64	2.64	-0.750			
0.7296	46691.86	3.2900	3.2900	-0.3972	8.65	2.65	-0.750			
0.7307	46767.68	3.2870	3.2870	-0.3898	8.66	2.66	-0.750			
0.7319	46841.54	3.2840	3.2840	-0.3844	8.67	2.67	-0.750			
0.7331	46915.49	3.2810	3.2810	-0.3771	8.68	2.68	-0.750			
0.7342	46986.11	3.2780	3.2778	-0.3690	8.69	2.69	-0.750			
0.7353	47056.01	3.2750	3.2750	-0.3626	8.70	2.70	-0.750			
0.7363	47124.67	3.2720	3.2721	-0.3566	8.71	2.71	-0.750			
0.7374	47193.18	3.2690	3.2689	-0.3530	8.72	2.72	-0.750			
0.7384	47260.72	3.2660	3.2660	-0.3454	8.73	2.73	-0.750			
0.7395	47326.15	3.2630	3.2630	-0.3386	8.73	2.73	-0.750			
0.7405	47391.42	3.2600	3.2601	-0.3342	8.74	2.74	-0.750			
0.7415	47454.20	3.2570	3.2570	-0.3281	8.75	2.75	-0.750			
0.7424	47516.60	3.2540	3.2541	-0.3217	8.76	2.76	-0.750			
0.7434	47577.28	3.2510	3.2510	-0.3174	8.77	2.77	-0.750			
0.7443	47637.52	3.2480	3.2480	-0.3129	8.77	2.77	-0.750			
0.7453	47698.18	3.2450	3.2451	-0.3082	8.78	2.78	-0.750			
0.7462	47756.67	3.2420	3.2419	-0.3015	8.79	2.79	-0.750			
0.7471	47814.25	3.2390	3.2391	-0.2964	8.80	2.80	-0.750			
0.7480	47870.46	3.2360	3.2361	-0.2907	8.81	2.81	-0.750			
0.7488	47925.66	3.2330	3.2329	-0.2859	8.82	2.82	-0.750			
0.7497	47979.63	3.2300	3.2299	-0.2798	8.83	2.83	-0.750			
0.7505	48032.55	3.2270	3.2271	-0.2759	8.84	2.84	-0.750			
0.7513	48085.27	3.2240	3.2241	-0.2723	8.85	2.85	-0.750			
0.7521	48137.20	3.2210	3.2209	-0.2690	8.86	2.86	-0.750			
0.7529	48188.42	3.2180	3.2180	-0.2651	8.86	2.86	-0.750			
0.7537	48238.70	3.2150	3.2150	-0.2619	8.87	2.87	-0.750			
0.7545	48288.70	3.2120	3.2120	-0.2594	8.88	2.88	-0.750			
0.7553	48338.36	3.2090	3.2091	-0.2576	8.89	2.89	-0.750			
0.7561	48387.67	3.2060	3.2059	-0.2532	8.89	2.89	-0.750			
0.7568	48436.71	3.2030	3.2030	-0.2492	8.90	2.90	-0.750			
0.7576	48483.82	3.2000	3.2001	-0.2456	8.90	2.90	-0.750			
0.7583	48530.17	3.1970	3.1970	-0.2414	8.91	2.91	-0.750			
0.7590	48576.19	3.1940	3.1940	-0.2383	8.92	2.92	-0.750			
0.7597	48621.07	3.1910	3.1910	-0.2342	8.93	2.93	-0.750			
0.7604	48665.38	3.1880	3.1881	-0.2323	8.93	2.93	-0.750			
0.7611	48710.09	3.1850	3.1850	-0.2304	8.94	2.94	-0.750			
0.7618	48754.56	3.1820	3.1819	-0.2290	8.95	2.95	-0.750			
0.7625	48798.48	3.1790	3.1790	-0.2269	8.96	2.96	-0.750			
0.7632	48841.61	3.1760	3.1761	-0.2231	8.97	2.97	-0.750			
0.7638	48884.46	3.1730	3.1730	-0.2213	8.98	2.98	-0.750			
0.7645	48926.78	3.1700	3.1700	-0.2185	8.99	2.99	-0.750			
0.7651	48968.60	3.1670	3.1671	-0.2146	8.99	2.99	-0.750			
0.7658	49009.33	3.1640	3.1639	-0.2109	9.00	3.00	-0.750			
0.7664	49049.77	3.1610	3.1611	-0.2075	9.01	3.01	-0.750			
0.7670	49088.66	3.1580	3.1581	-0.2049	9.02	3.02	-0.750			
0.7676	49127.50	3.1550	3.1550	-0.2043	9.03	3.03	-0.750			
0.7682	49166.26	3.1520	3.1520	-0.2033	9.03	3.03	-0.750			
0.7688	49205.01	3.1490	3.1488	-0.2017	9.04	3.04	-0.750			
0.7694	49243.73	3.1460	3.1460	-0.2017	9.05	3.05	-0.750			
0.7700	49283.19	3.1430	3.1430	-0.2006	9.06	3.06	-0.750			
0.7706	49321.52	3.1400	3.1401	-0.1980	9.07	3.07	-0.750			
0.7712	49359.79	3.1370	3.1369	-0.1958	9.07	3.07	-0.750			
0.7718	49396.96	3.1340	3.1341	-0.1922	9.08	3.08	-0.750			
0.7724	49433.09	3.1310	3.1310	-0.1898	9.09	3.09	-0.750			
0.7730	49469.57	3.1280	3.1280	-0.1868	9.10	3.10	-0.750			
0.7735	49505.14	3.1250	3.1249	-0.1845	9.10	3.10	-0.750			
0.7741	49540.32	3.1220	3.1220	-0.1819	9.11	3.11	-0.750			
0.7746	49574.95	3.1190	3.1191	-0.1803	9.12	3.12	-0.750			
0.7751	49609.02	3.1160	3.1159	-0.1787	9.12	3.12	-0.750			
0.7757	49643.06	3.1130	3.1130	-0.1773	9.13	3.13	-0.750			
0.7762	49677.02	3.1100	3.1099	-0.1765	9.14	3.14	-0.750			
0.7767	49710.48	3.1070	3.1070	-0.1758	9.14	3.14	-0.750			
0.7773	49744.63	3.1040	3.1040	-0.1758	9.15	3.15	-0.750			
0.7778	49778.27	3.1010	3.1010	-0.1748	9.16	3.16	-0.750			
0.7783	49811.84	3.0980	3.0979	-0.1731	9.16	3.16	-0.750			
0.7788	49844.97	3.0950	3.0952	-0.1721	9.17	3.17	-0.750			
0.7793	49878.02	3.0920	3.0921	-0.1704	9.18	3.18	-0.750			
0.7799	49910.72	3.0890	3.0889	-0.1689	9.19	3.19	-0.750			
0.7804	49942.91	3.0860	3.0860	-0.1669	9.19	3.19	-0.750			
0.7809	49974.50	3.0830	3.0830	-0.1655	9.20	3.20	-0.750			
0.7813	50006.17	3.0800	3.0799	-0.1640	9.21	3.21	-0.750			
0.7818	50037.54	3.0770	3.0770	-0.1628	9.22	3.22	-0.750			
0.7823	50068.74	3.0740	3.0740	-0.1614	9.22	3.22	-0.750			
0.7828	50099.33	3.0710	3.0711	-0.1603	9.23	3.23	-0.750			
0.7833	50130.28	3.0680	3.0680	-0.1595	9.24	3.24	-0.750			
0.7838	50160.78	3.0650	3.0649	-0.1582	9.25	3.25	-0.750			
0.7842	50190.99	3.0620	3.0620	-0.1572	9.25	3.25	-0.750			
0.7847	50220.87	3.0590	3.0591	-0.1560	9.26	3.26	-0.750			
0.7852	50250.89	3.0560	3.0559	-0.1555	9.27	3.27	-0.750			
0.7856	50280.65	3.0530	3.0530	-0.1545	9.28	3.28	-0.750			
0.7861	50310.19	3.0500	3.0501	-0.1536	9.28	3.28	-0.750			
0.7866	50339.66	3.0470	3.0470	-0.1520	9.29	3.29	-0.750			
0.7870	50369.04	3.0440	3.0439	-0.1509	9.30	3.30	-0.750			
0.7875	50397.82	3.0410	3.0411	-0.1489	9.31	3.31	-0.750			
0.7879	50426.01	3.0380	3.0381	-0.1485	9.31	3.31	-0.750			
0.7883	50454.38	3.0350	3.0350	-0.1470	9.32	3.32	-0.750			
0.7888	50482.39	3.0320	3.0319	-0.1459	9.33	3.33	-0.750			
0.7892	50510.28	3.0290	3.0290	-0.1456	9.33	3.33	-0.750			
0.7897	50538.22	3.0260	3.0261	-0.1443	9.34	3.34	-0.750			
0.7901	50566.08	3.0230	3.0230	-0.1439	9.35	3.35	-0.750			
0.7905	50593.73	3.0200	3.0200	-0.1428	9.36	3.36	-0.750			
0.7910	50620.92	3.0170	3.0170	-0.1420	9.36	3.36	-0.750			
0.7914	50647.68	3.0140	3.0140	-0.1412	9.37	3.37	-0.750			
0.7918	50674.88	3.0110	3.0110	-0.1411	9.38	3.38	-0.750			
0.7922	50701.94	3.0080	3.0080	-0.1407	9.38	3.38	-0.750			
0.7926	50728.73	3.0050	3.0050	-0.1420	9.39	3.39	-0.750			
0.7931	50755.97	3.0020	3.0020	-0.1408	9.40	3.40	-0.750			
