Ah_balance (normalized)	Ah_balance (mAh)	Voltage - fit (V)	Voltage -  interpolate (V)	dQ/dV (1/V)	Temperature (°C)	Temperature - diff (°C)	Current (C)	R_DC 0ms (mOhm)	R_DC 50ms (mOhm)	R_DC 50 ms PEC (mOhm)
0.0963	6161.41	4.1980	4.1999	0.4673	8.23	2.24	0.750			
0.0981	6276.73	4.1950	4.1972	0.6846	8.22	2.23	0.750			
0.1005	6434.81	4.1920	4.1938	0.7806	8.21	2.22	0.750			
0.1030	6594.42	4.1890	4.1902	0.7884	8.20	2.21	0.750			
0.1057	6764.09	4.1860	4.1864	0.8231	8.19	2.20	0.750			
0.1079	6904.15	4.1830	4.1831	0.7617	8.18	2.19	0.750			
0.1101	7045.94	4.1800	4.1799	0.6970	8.17	2.18	0.750			
0.1122	7179.34	4.1770	4.1771	0.7035	8.16	2.17	0.750			
0.1143	7315.12	4.1740	4.1740	0.7054	8.16	2.17	0.750			
0.1164	7452.67	4.1710	4.1709	0.7100	8.15	2.16	0.750			
0.1186	7589.36	4.1680	4.1680	0.7112	8.14	2.15	0.750			
0.1207	7724.16	4.1650	4.1651	0.7170	8.13	2.14	0.750			
0.1229	7862.92	4.1620	4.1621	0.7208	8.12	2.13	0.750			
0.1250	8003.01	4.1590	4.1589	0.7196	8.12	2.13	0.750			
0.1272	8141.43	4.1560	4.1559	0.7162	8.11	2.12	0.750			
0.1294	8280.21	4.1530	4.1532	0.7173	8.10	2.11	0.750			
0.1315	8415.56	4.1500	4.1500	0.7195	8.10	2.11	0.750			
0.1336	8552.76	4.1470	4.1470	0.7237	8.09	2.10	0.750			
0.1358	8691.32	4.1440	4.1439	0.7282	8.09	2.10	0.750			
0.1380	8832.81	4.1410	4.1410	0.7340	8.08	2.09	0.750			
0.1402	8975.73	4.1380	4.1380	0.7401	8.08	2.09	0.750			
0.1425	9118.14	4.1350	4.1351	0.7457	8.08	2.09	0.750			
0.1447	9261.47	4.1320	4.1320	0.7497	8.07	2.08	0.750			
0.1470	9406.46	4.1290	4.1291	0.7457	8.07	2.08	0.750			
0.1492	9549.14	4.1260	4.1259	0.7473	8.06	2.07	0.750			
0.1515	9693.96	4.1230	4.1231	0.7448	8.05	2.06	0.750			
0.1537	9836.99	4.1200	4.1201	0.7473	8.04	2.05	0.750			
0.1559	9979.78	4.1170	4.1169	0.7494	8.03	2.04	0.750			
0.1582	10122.24	4.1140	4.1138	0.7480	8.02	2.03	0.750			
0.1604	10264.67	4.1110	4.1110	0.7512	8.01	2.02	0.750			
0.1627	10410.05	4.1080	4.1081	0.7611	8.01	2.02	0.750			
0.1649	10556.48	4.1050	4.1050	0.7645	8.00	2.01	0.750			
0.1673	10705.31	4.1020	4.1019	0.7711	8.00	2.01	0.750			
0.1696	10852.97	4.0990	4.0990	0.7711	7.99	2.00	0.750			
0.1719	11002.35	4.0960	4.0960	0.7757	7.99	2.00	0.750			
0.1742	11151.63	4.0930	4.0931	0.7802	7.98	1.99	0.750			
0.1766	11299.86	4.0900	4.0900	0.7894	7.97	1.98	0.750			
0.1789	11452.07	4.0870	4.0870	0.7899	7.96	1.97	0.750			
0.1813	11605.81	4.0840	4.0839	0.7936	7.96	1.97	0.750			
0.1837	11758.95	4.0810	4.0813	0.7958	7.95	1.96	0.750			
0.1861	11911.58	4.0780	4.0781	0.7985	7.94	1.95	0.750			
0.1885	12065.66	4.0750	4.0749	0.7950	7.94	1.95	0.750			
0.1909	12215.97	4.0720	4.0719	0.8013	7.93	1.94	0.750			
0.1932	12367.09	4.0690	4.0691	0.8026	7.93	1.94	0.750			
0.1957	12525.36	4.0660	4.0657	0.8089	7.92	1.93	0.750			
0.1982	12682.10	4.0630	4.0631	0.8149	7.91	1.92	0.750			
0.2006	12839.36	4.0600	4.0600	0.8113	7.90	1.91	0.750			
0.2030	12993.58	4.0570	4.0570	0.8171	7.90	1.91	0.750			
0.2055	13149.96	4.0540	4.0540	0.8155	7.89	1.90	0.750			
0.2079	13307.08	4.0510	4.0508	0.8122	7.88	1.89	0.750			
0.2104	13464.35	4.0480	4.0482	0.8209	7.87	1.88	0.750			
0.2128	13622.21	4.0450	4.0451	0.8309	7.87	1.88	0.750			
0.2153	13781.10	4.0420	4.0420	0.8383	7.86	1.87	0.750			
0.2178	13941.85	4.0390	4.0389	0.8456	7.86	1.87	0.750			
0.2204	14105.31	4.0360	4.0360	0.8577	7.85	1.86	0.750			
0.2230	14274.48	4.0330	4.0330	0.8691	7.84	1.85	0.750			
0.2257	14444.58	4.0300	4.0300	0.8632	7.83	1.84	0.750			
0.2283	14610.89	4.0270	4.0271	0.8561	7.82	1.83	0.750			
0.2308	14771.76	4.0240	4.0241	0.8543	7.81	1.82	0.750			
0.2334	14935.15	4.0210	4.0207	0.8561	7.80	1.81	0.750			
0.2359	15097.10	4.0180	4.0180	0.8542	7.79	1.80	0.750			
0.2385	15260.87	4.0150	4.0150	0.8607	7.79	1.80	0.750			
0.2411	15429.97	4.0120	4.0121	0.8677	7.78	1.79	0.750			
0.2437	15598.18	4.0090	4.0090	0.8719	7.77	1.78	0.750			
0.2463	15764.01	4.0060	4.0062	0.8797	7.77	1.78	0.750			
0.2490	15933.26	4.0030	4.0030	0.8815	7.76	1.77	0.750			
0.2516	16101.57	4.0000	3.9999	0.8915	7.75	1.76	0.750			
0.2543	16274.90	3.9970	3.9972	0.8977	7.74	1.75	0.750			
0.2570	16450.18	3.9940	3.9938	0.8985	7.73	1.74	0.750			
0.2598	16624.36	3.9910	3.9910	0.8951	7.73	1.74	0.750			
0.2624	16793.70	3.9880	3.9882	0.8899	7.72	1.73	0.750			
0.2650	16960.82	3.9850	3.9851	0.8929	7.71	1.72	0.750			
0.2677	17133.20	3.9820	3.9819	0.9039	7.70	1.71	0.750			
0.2704	17305.15	3.9790	3.9788	0.9150	7.69	1.70	0.750			
0.2732	17486.52	3.9760	3.9761	0.9174	7.68	1.69	0.750			
0.2760	17662.57	3.9730	3.9732	0.9322	7.67	1.68	0.750			
0.2788	17845.17	3.9700	3.9700	0.9415	7.66	1.67	0.750			
0.2816	18024.30	3.9670	3.9669	0.9475	7.66	1.67	0.750			
0.2844	18203.27	3.9640	3.9641	0.9502	7.65	1.66	0.750			
0.2873	18388.23	3.9610	3.9611	0.9474	7.64	1.65	0.750			
0.2902	18570.79	3.9580	3.9579	0.9559	7.63	1.64	0.750			
0.2931	18756.62	3.9550	3.9552	0.9607	7.63	1.64	0.750			
0.2959	18938.10	3.9520	3.9518	0.9592	7.62	1.63	0.750			
0.2988	19123.10	3.9490	3.9490	0.9693	7.61	1.62	0.750			
0.3017	19308.32	3.9460	3.9461	0.9821	7.60	1.61	0.750			
0.3046	19497.57	3.9430	3.9430	0.9955	7.58	1.59	0.750			
0.3077	19691.95	3.9400	3.9399	1.0023	7.57	1.58	0.750			
0.3107	19886.03	3.9370	3.9369	1.0026	7.56	1.57	0.750			
0.3138	20080.17	3.9340	3.9342	1.0090	7.55	1.56	0.750			
0.3168	20273.17	3.9310	3.9310	1.0117	7.54	1.55	0.750			
0.3198	20464.93	3.9280	3.9279	1.0151	7.53	1.54	0.750			
0.3229	20663.24	3.9250	3.9249	1.0141	7.52	1.53	0.750			
0.3259	20857.16	3.9220	3.9221	1.0220	7.51	1.52	0.750			
0.3290	21052.91	3.9190	3.9191	1.0386	7.50	1.51	0.750			
0.3321	21253.07	3.9160	3.9161	1.0586	7.48	1.49	0.750			
0.3353	21456.41	3.9130	3.9129	1.0728	7.47	1.48	0.750			
0.3385	21663.08	3.9100	3.9101	1.0868	7.46	1.47	0.750			
0.3418	21875.92	3.9070	3.9070	1.1028	7.45	1.46	0.750			
0.3452	22095.38	3.9040	3.9039	1.1198	7.44	1.45	0.750			
0.3486	22307.65	3.9010	3.9010	1.1267	7.43	1.44	0.750			
0.3519	22521.95	3.8980	3.8980	1.1408	7.42	1.43	0.750			
0.3553	22741.45	3.8950	3.8950	1.1560	7.41	1.42	0.750			
0.3589	22966.65	3.8920	3.8920	1.1692	7.40	1.41	0.750			
0.3624	23192.88	3.8890	3.8891	1.1886	7.38	1.39	0.750			
0.3660	23423.27	3.8860	3.8862	1.2124	7.37	1.38	0.750			
0.3697	23660.82	3.8830	3.8828	1.2083	7.35	1.36	0.750			
0.3733	23892.08	3.8800	3.8799	1.2107	7.34	1.35	0.750			
0.3770	24128.53	3.8770	3.8771	1.2006	7.33	1.34	0.750			
0.3806	24356.74	3.8740	3.8741	1.2304	7.31	1.32	0.750			
0.3842	24591.58	3.8710	3.8710	1.2446	7.30	1.31	0.750			
0.3880	24830.57	3.8680	3.8676	1.2783	7.28	1.29	0.750	0.387	0.862	
0.3918	25074.61	3.8650	3.8653	1.3118	7.27	1.28	0.750			
0.3959	25338.55	3.8620	3.8618	1.3245	7.26	1.27	0.750			
0.3999	25593.56	3.8590	3.8591	1.3615	7.24	1.25	0.750			
0.4041	25861.52	3.8560	3.8561	1.3890	7.22	1.23	0.750			
0.4082	26127.65	3.8530	3.8527	1.4058	7.20	1.21	0.750			
0.4125	26397.86	3.8500	3.8502	1.4282	7.18	1.19	0.750			
0.4168	26673.75	3.8470	3.8472	1.4552	7.17	1.18	0.750			
0.4212	26958.08	3.8440	3.8440	1.4790	7.15	1.16	0.750			
0.4257	27245.58	3.8410	3.8409	1.5019	7.13	1.14	0.750			
0.4301	27528.61	3.8380	3.8380	1.5209	7.11	1.12	0.750			
0.4348	27829.05	3.8350	3.8351	1.5405	7.09	1.10	0.750			
0.4395	28127.35	3.8320	3.8318	1.5603	7.08	1.09	0.750			
0.4442	28431.01	3.8290	3.8291	1.5797	7.06	1.07	0.750			
0.4490	28737.30	3.8260	3.8261	1.6016	7.03	1.04	0.750			
0.4538	29043.15	3.8230	3.8229	1.6224	7.01	1.02	0.750			
0.4586	29352.43	3.8200	3.8201	1.6567	6.99	1.00	0.750			
0.4637	29676.29	3.8170	3.8170	1.6903	6.96	0.97	0.750			
0.4689	30008.29	3.8140	3.8139	1.7258	6.94	0.95	0.750			
0.4741	30341.53	3.8110	3.8109	1.7538	6.92	0.93	0.750			
0.4795	30685.37	3.8080	3.8079	1.7675	6.90	0.91	0.750			
0.4848	31024.88	3.8050	3.8048	1.7832	6.87	0.88	0.750			
0.4901	31366.61	3.8020	3.8017	1.8079	6.85	0.86	0.750			
0.4956	31716.03	3.7990	3.7988	1.8373	6.83	0.84	0.750			
0.5012	32075.57	3.7960	3.7959	1.8742	6.80	0.81	0.750			
0.5069	32440.33	3.7930	3.7930	1.8954	6.78	0.79	0.750			
0.5125	32801.05	3.7900	3.7900	1.9048	6.75	0.76	0.750			
0.5184	33174.68	3.7870	3.7870	1.9562	6.73	0.74	0.750			
0.5242	33548.65	3.7840	3.7841	1.9797	6.71	0.72	0.750			
0.5302	33935.16	3.7810	3.7809	2.0128	6.68	0.69	0.750			
0.5363	34326.23	3.7780	3.7781	2.0294	6.66	0.67	0.750			
0.5425	34718.70	3.7750	3.7751	2.0630	6.63	0.64	0.750			
0.5487	35118.44	3.7720	3.7720	2.0814	6.61	0.62	0.750			
0.5549	35515.65	3.7690	3.7689	2.1224	6.58	0.59	0.750			
0.5613	35922.71	3.7660	3.7661	2.2027	6.55	0.56	0.750			
0.5680	36353.31	3.7630	3.7628	2.2710	6.53	0.54	0.750			
0.5750	36800.04	3.7600	3.7600	2.3265	6.50	0.51	0.750			
0.5821	37252.47	3.7570	3.7570	2.4492	6.47	0.48	0.750			
0.5896	37733.98	3.7540	3.7539	2.5146	6.44	0.45	0.750			
0.5973	38224.65	3.7510	3.7512	2.6085	6.42	0.43	0.750			
0.6053	38737.44	3.7480	3.7479	2.7404	6.39	0.40	0.750			
0.6135	39266.07	3.7450	3.7451	2.8809	6.36	0.37	0.750			
0.6226	39846.47	3.7420	3.7420	3.0336	6.33	0.34	0.750			
0.6319	40444.03	3.7390	3.7390	3.1201	6.30	0.31	0.750			
0.6415	41054.42	3.7360	3.7360	3.0920	6.26	0.27	0.750			
0.6507	41646.50	3.7330	3.7330	2.9923	6.23	0.24	0.750			
0.6596	42213.44	3.7300	3.7298	2.7430	6.21	0.22	0.750			
0.6673	42707.21	3.7270	3.7270	2.4121	6.19	0.20	0.750			
0.6740	43137.46	3.7240	3.7240	2.1475	6.17	0.18	0.750			
0.6801	43524.73	3.7210	3.7209	1.9029	6.15	0.16	0.750			
0.6852	43854.40	3.7180	3.7178	1.6732	6.14	0.15	0.750			
0.6898	44146.43	3.7150	3.7152	1.5071	6.12	0.13	0.750			
0.6940	44416.45	3.7120	3.7119	1.3769	6.11	0.12	0.750			
0.6978	44658.52	3.7090	3.7090	1.2730	6.11	0.12	0.750			
0.7013	44885.51	3.7060	3.7061	1.1942	6.10	0.11	0.750			
0.7048	45109.20	3.7030	3.7030	1.1489	6.10	0.11	0.750			
0.7083	45328.95	3.7000	3.6998	1.1117	6.09	0.10	0.750			
0.7115	45533.58	3.6970	3.6971	1.0783	6.08	0.09	0.750			
0.7146	45737.08	3.6940	3.6939	1.0530	6.07	0.08	0.750			
0.7178	45936.20	3.6910	3.6909	1.0265	6.06	0.07	0.750			
0.7208	46131.22	3.6880	3.6879	1.0062	6.05	0.06	0.750			
0.7238	46321.72	3.6850	3.6850	0.9831	6.05	0.06	0.750			
0.7267	46509.45	3.6820	3.6820	0.9739	6.04	0.05	0.750			
0.7296	46693.81	3.6790	3.6789	0.9605	6.04	0.05	0.750			
0.7324	46874.49	3.6760	3.6759	0.9419	6.03	0.04	0.750			
0.7353	47057.25	3.6730	3.6730	0.9297	6.03	0.04	0.750			
0.7380	47234.38	3.6700	3.6701	0.9189	6.02	0.03	0.750			
0.7408	47409.70	3.6670	3.6670	0.9074	6.02	0.03	0.750			
0.7435	47581.75	3.6640	3.6639	0.8969	6.01	0.02	0.750			
0.7461	47749.89	3.6610	3.6611	0.8870	6.01	0.02	0.750			
0.7487	47919.44	3.6580	3.6581	0.8850	6.01	0.02	0.750			
0.7514	48090.26	3.6550	3.6549	0.8857	6.00	0.01	0.750			
0.7540	48258.92	3.6520	3.6521	0.8950	6.00	0.01	0.750			
0.7567	48429.29	3.6490	3.6490	0.8969	5.99	0.00	0.750			
0.7595	48606.11	3.6460	3.6459	0.8915	5.99	0.00	0.750			
0.7622	48782.42	3.6430	3.6430	0.8761	5.99	0.00	0.750			
0.7649	48954.11	3.6400	3.6400	0.8361	5.99	0.00	0.750			
0.7675	49122.44	3.6370	3.6370	0.7713	5.99	0.00	0.750			
0.7698	49266.70	3.6340	3.6339	0.6833	5.99	0.00	0.750			
0.7717	49387.15	3.6310	3.6312	0.5801	5.99	0.00	0.750			
0.7730	49473.61	3.6280	3.6287	0.4873	5.99	0.00	0.750			
0.7744	49559.53	3.6250	3.6252	0.4085	5.99	0.00	0.750			
0.7754	49626.61	3.6220	3.6220	0.3209	5.99	0.00	0.750			
0.7762	49675.43	3.6190	3.6189	0.2417	5.99	0.00	0.750			
0.7768	49715.13	3.6160	3.6143	0.1879	5.99	0.00	0.750			
0.7772	49737.76	3.5950	3.5943	-0.1280	5.99	0.00	0.750			
0.7772	49740.57	3.6130	3.5606	0.1317	5.99	0.00	0.750			
0.7775	49758.25	3.5980	3.2838	-0.0854	5.99	0.00	0.759			
0.7775	49758.48	3.6100	3.2803	0.0849	5.99	0.00	0.759			
0.7777	49770.57	3.6010	3.0909	-0.0429	5.99	0.00	0.764			
0.7777	49770.68	3.6070	3.0892	0.0423	5.99	0.00	0.765			
0.7777	49774.71	3.6040	3.0260	-0.0003	5.99	0.00	0.766			
