Ah_balance (normalized)	Ah_balance (mAh)	Voltage - fit (V)	Voltage -  interpolate (V)	dQ/dV (1/V)	Temperature (°C)	Temperature - diff (°C)	Current (C)	R_DC 0ms (mOhm)	R_DC 50ms (mOhm)	R_DC 50 ms PEC (mOhm)
0.0913	5841.55	4.1990	4.1975	0.8818	8.30	2.18	0.750	0.415	0.875	
0.0940	6017.38	4.1960	4.1976	0.9232	8.30	2.18	0.750			
0.0967	6189.73	4.1930	4.1940	0.8754	8.29	2.17	0.750			
0.0993	6354.22	4.1900	4.1901	0.8240	8.29	2.17	0.750			
0.1018	6515.07	4.1870	4.1868	0.8037	8.29	2.17	0.750			
0.1038	6644.89	4.1840	4.1840	0.7098	8.28	2.16	0.750			
0.1059	6780.46	4.1810	4.1810	0.7106	8.28	2.16	0.750			
0.1081	6916.45	4.1780	4.1780	0.7119	8.28	2.16	0.750			
0.1102	7052.02	4.1750	4.1751	0.7111	8.27	2.15	0.750			
0.1123	7188.43	4.1720	4.1719	0.7099	8.27	2.15	0.750			
0.1145	7326.34	4.1690	4.1690	0.7188	8.27	2.15	0.750			
0.1166	7464.72	4.1660	4.1660	0.7138	8.26	2.14	0.750			
0.1188	7602.49	4.1630	4.1631	0.7208	8.26	2.14	0.750			
0.1209	7739.64	4.1600	4.1600	0.7215	8.26	2.14	0.750			
0.1231	7878.17	4.1570	4.1571	0.7243	8.25	2.13	0.750			
0.1253	8018.52	4.1540	4.1540	0.7295	8.25	2.13	0.750			
0.1275	8159.27	4.1510	4.1510	0.7318	8.24	2.12	0.750			
0.1297	8298.77	4.1480	4.1481	0.7322	8.24	2.12	0.750			
0.1319	8440.28	4.1450	4.1449	0.7409	8.23	2.11	0.750			
0.1341	8582.09	4.1420	4.1421	0.7412	8.23	2.11	0.750			
0.1363	8726.35	4.1390	4.1389	0.7441	8.22	2.10	0.750			
0.1386	8869.64	4.1360	4.1361	0.7503	8.22	2.10	0.750			
0.1409	9016.22	4.1330	4.1330	0.7456	8.21	2.09	0.750			
0.1431	9159.68	4.1300	4.1300	0.7439	8.20	2.08	0.750			
0.1453	9299.33	4.1270	4.1270	0.7405	8.20	2.08	0.750			
0.1475	9440.35	4.1240	4.1241	0.7419	8.19	2.07	0.750			
0.1497	9582.49	4.1210	4.1208	0.7524	8.19	2.07	0.750			
0.1520	9727.10	4.1180	4.1181	0.7633	8.18	2.06	0.750			
0.1543	9874.73	4.1150	4.1149	0.7685	8.18	2.06	0.750			
0.1567	10025.62	4.1120	4.1120	0.7818	8.17	2.05	0.750			
0.1590	10178.72	4.1090	4.1089	0.7810	8.17	2.05	0.750			
0.1614	10328.31	4.1060	4.1058	0.7807	8.16	2.04	0.750			
0.1637	10477.98	4.1030	4.1031	0.7825	8.16	2.04	0.750			
0.1661	10628.02	4.1000	4.1001	0.7763	8.15	2.03	0.750			
0.1684	10776.08	4.0970	4.0969	0.7799	8.15	2.03	0.750			
0.1707	10927.13	4.0940	4.0940	0.7814	8.15	2.03	0.750			
0.1731	11075.22	4.0910	4.0911	0.7837	8.14	2.02	0.750			
0.1754	11226.74	4.0880	4.0880	0.7903	8.14	2.02	0.750			
0.1778	11379.70	4.0850	4.0851	0.7880	8.13	2.01	0.750			
0.1802	11530.83	4.0820	4.0819	0.7934	8.13	2.01	0.750			
0.1826	11684.66	4.0790	4.0791	0.8036	8.13	2.01	0.750			
0.1849	11836.64	4.0760	4.0760	0.8122	8.12	2.00	0.750			
0.1874	11994.53	4.0730	4.0729	0.8198	8.12	2.00	0.750			
0.1899	12152.64	4.0700	4.0701	0.8221	8.11	1.99	0.750			
0.1924	12313.07	4.0670	4.0670	0.8170	8.11	1.99	0.750			
0.1948	12469.66	4.0640	4.0641	0.8187	8.10	1.98	0.750			
0.1973	12625.19	4.0610	4.0611	0.8133	8.10	1.98	0.750			
0.1997	12780.95	4.0580	4.0576	0.8128	8.09	1.97	0.750			
0.2021	12934.25	4.0550	4.0551	0.8147	8.08	1.96	0.750			
0.2046	13092.91	4.0520	4.0520	0.8158	8.08	1.96	0.750			
0.2070	13250.32	4.0490	4.0491	0.8243	8.07	1.95	0.750			
0.2095	13406.23	4.0460	4.0460	0.8286	8.07	1.95	0.750			
0.2120	13566.60	4.0430	4.0427	0.8402	8.06	1.94	0.750			
0.2146	13732.07	4.0400	4.0399	0.8401	8.06	1.94	0.750			
0.2171	13893.99	4.0370	4.0371	0.8429	8.05	1.93	0.750			
0.2197	14058.93	4.0340	4.0341	0.8415	8.05	1.93	0.750			
0.2222	14219.07	4.0310	4.0311	0.8395	8.04	1.92	0.750			
0.2246	14376.59	4.0280	4.0279	0.8412	8.04	1.92	0.750			
0.2272	14538.82	4.0250	4.0250	0.8481	8.03	1.91	0.750			
0.2297	14703.08	4.0220	4.0220	0.8608	8.02	1.90	0.750			
0.2324	14872.28	4.0190	4.0190	0.8676	8.01	1.89	0.750			
0.2350	15040.28	4.0160	4.0162	0.8701	8.01	1.89	0.750			
0.2376	15208.95	4.0130	4.0129	0.8774	8.00	1.88	0.750			
0.2403	15377.45	4.0100	4.0100	0.8711	7.99	1.87	0.750			
0.2429	15542.43	4.0070	4.0070	0.8694	7.99	1.87	0.750			
0.2455	15709.83	4.0040	4.0041	0.8756	7.99	1.87	0.750			
0.2481	15877.62	4.0010	4.0010	0.8821	7.98	1.86	0.750			
0.2507	16047.75	3.9980	3.9981	0.8926	7.98	1.86	0.750			
0.2534	16219.65	3.9950	3.9949	0.8916	7.97	1.85	0.750			
0.2561	16391.42	3.9920	3.9920	0.8965	7.96	1.84	0.750			
0.2589	16568.38	3.9890	3.9891	0.8983	7.96	1.84	0.750			
0.2615	16738.44	3.9860	3.9858	0.8940	7.95	1.83	0.750			
0.2642	16911.46	3.9830	3.9831	0.8926	7.94	1.82	0.750			
0.2669	17079.88	3.9800	3.9801	0.9009	7.94	1.82	0.750			
0.2696	17252.08	3.9770	3.9769	0.9059	7.93	1.81	0.750			
0.2723	17428.23	3.9740	3.9741	0.9163	7.92	1.80	0.750			
0.2751	17604.10	3.9710	3.9709	0.9204	7.92	1.80	0.750			
0.2779	17782.56	3.9680	3.9681	0.9273	7.91	1.79	0.750			
0.2806	17959.79	3.9650	3.9650	0.9323	7.90	1.78	0.750			
0.2834	18138.23	3.9620	3.9621	0.9453	7.90	1.78	0.750			
0.2862	18319.83	3.9590	3.9589	0.9502	7.89	1.77	0.750			
0.2892	18508.19	3.9560	3.9559	0.9579	7.88	1.76	0.750			
0.2921	18693.11	3.9530	3.9530	0.9591	7.88	1.76	0.750			
0.2950	18879.97	3.9500	3.9502	0.9602	7.87	1.75	0.750			
0.2978	19061.34	3.9470	3.9471	0.9570	7.86	1.74	0.750			
0.3007	19243.08	3.9440	3.9440	0.9640	7.86	1.74	0.750			
0.3035	19423.70	3.9410	3.9410	0.9697	7.85	1.73	0.750			
0.3065	19613.11	3.9380	3.9379	0.9863	7.84	1.72	0.750			
0.3095	19809.55	3.9350	3.9350	1.0010	7.83	1.71	0.750			
0.3125	20002.59	3.9320	3.9321	1.0014	7.82	1.70	0.750			
0.3156	20196.13	3.9290	3.9291	1.0042	7.81	1.69	0.750			
0.3185	20384.20	3.9260	3.9262	1.0146	7.81	1.69	0.750			
0.3216	20580.22	3.9230	3.9229	1.0239	7.80	1.68	0.750			
0.3247	20778.33	3.9200	3.9200	1.0208	7.80	1.68	0.750			
0.3277	20975.80	3.9170	3.9170	1.0326	7.79	1.67	0.750			
0.3309	21177.36	3.9140	3.9143	1.0470	7.77	1.65	0.750			
0.3340	21376.60	3.9110	3.9109	1.0571	7.76	1.64	0.750			
0.3372	21580.44	3.9080	3.9079	1.0529	7.75	1.63	0.750			
0.3403	21777.95	3.9050	3.9051	1.0701	7.74	1.62	0.750			
0.3436	21987.28	3.9020	3.9020	1.0934	7.73	1.61	0.750			
0.3469	22200.50	3.8990	3.8990	1.1103	7.73	1.61	0.750			
0.3502	22414.49	3.8960	3.8959	1.1143	7.72	1.60	0.750			
0.3536	22629.87	3.8930	3.8932	1.1283	7.71	1.59	0.750			
0.3570	22845.75	3.8900	3.8901	1.1478	7.70	1.58	0.750			
0.3605	23070.85	3.8870	3.8869	1.1668	7.68	1.56	0.750			
0.3640	23292.94	3.8840	3.8840	1.1682	7.67	1.55	0.750			
0.3675	23519.15	3.8810	3.8812	1.1916	7.67	1.55	0.750			
0.3711	23748.96	3.8780	3.8781	1.2108	7.66	1.54	0.750			
0.3747	23983.08	3.8750	3.8750	1.2253	7.65	1.53	0.750			
0.3784	24220.55	3.8720	3.8719	1.2379	7.64	1.52	0.750			
0.3822	24457.81	3.8690	3.8692	1.2612	7.63	1.51	0.750			
0.3861	24709.36	3.8660	3.8657	1.2698	7.61	1.49	0.750			
0.3899	24956.11	3.8630	3.8630	1.2733	7.60	1.48	0.750			
0.3937	25194.83	3.8600	3.8601	1.2936	7.59	1.47	0.750			
0.3975	25441.66	3.8570	3.8573	1.3092	7.58	1.46	0.750			
0.4015	25695.51	3.8540	3.8540	1.3392	7.56	1.44	0.750			
0.4055	25953.43	3.8510	3.8509	1.3759	7.55	1.43	0.750	0.414	0.914	
0.4097	26220.50	3.8480	3.8483	1.4055	7.53	1.41	0.750			
0.4141	26499.44	3.8450	3.8451	1.4508	7.51	1.39	0.750			
0.4184	26774.92	3.8420	3.8422	1.4724	7.49	1.37	0.750			
0.4229	27065.14	3.8390	3.8389	1.5043	7.48	1.36	0.750			
0.4274	27355.32	3.8360	3.8358	1.5319	7.46	1.34	0.750			
0.4321	27657.05	3.8330	3.8332	1.5560	7.45	1.33	0.750			
0.4368	27953.93	3.8300	3.8299	1.5779	7.43	1.31	0.750			
0.4416	28262.34	3.8270	3.8270	1.6169	7.41	1.29	0.750			
0.4464	28572.67	3.8240	3.8240	1.6349	7.39	1.27	0.750			
0.4514	28889.92	3.8210	3.8209	1.6443	7.37	1.25	0.750			
0.4564	29208.03	3.8180	3.8180	1.6723	7.36	1.24	0.750			
0.4614	29528.29	3.8150	3.8150	1.7154	7.34	1.22	0.750			
0.4666	29862.56	3.8120	3.8121	1.7510	7.32	1.20	0.750			
0.4718	30196.89	3.8090	3.8091	1.7807	7.29	1.17	0.750			
0.4772	30542.82	3.8060	3.8059	1.8047	7.27	1.15	0.750			
0.4828	30898.41	3.8030	3.8031	1.8337	7.25	1.13	0.750			
0.4883	31249.95	3.8000	3.8001	1.8633	7.22	1.10	0.750			
0.4939	31609.04	3.7970	3.7968	1.9196	7.20	1.08	0.750			
0.4995	31970.43	3.7940	3.7938	1.9745	7.18	1.06	0.750			
0.5056	32359.33	3.7910	3.7910	2.0412	7.15	1.03	0.750			
0.5119	32764.20	3.7880	3.7882	2.0945	7.12	1.00	0.750			
0.5184	33177.70	3.7850	3.7851	2.1023	7.09	0.97	0.750			
0.5246	33577.12	3.7820	3.7820	2.1117	7.07	0.95	0.750			
0.5309	33978.27	3.7790	3.7793	2.1373	7.04	0.92	0.750			
0.5373	34387.24	3.7760	3.7761	2.2083	7.02	0.90	0.750			
0.5441	34824.99	3.7730	3.7729	2.2494	6.98	0.86	0.750			
0.5511	35270.68	3.7700	3.7700	2.2776	6.95	0.83	0.750			
0.5577	35691.89	3.7670	3.7671	2.2692	6.93	0.81	0.750			
0.5644	36121.04	3.7640	3.7639	2.3119	6.90	0.78	0.750			
0.5713	36564.34	3.7610	3.7608	2.4041	6.87	0.75	0.750			
0.5788	37043.89	3.7580	3.7581	2.4660	6.84	0.72	0.750			
0.5865	37537.03	3.7550	3.7552	2.5291	6.80	0.68	0.750			
0.5940	38017.17	3.7520	3.7519	2.5563	6.77	0.65	0.750			
0.6016	38502.49	3.7490	3.7490	2.6347	6.73	0.61	0.750			
0.6097	39018.81	3.7460	3.7461	2.7909	6.70	0.58	0.750			
0.6182	39563.51	3.7430	3.7432	2.9177	6.66	0.54	0.750			
0.6273	40148.21	3.7400	3.7400	3.1246	6.63	0.51	0.750			
0.6370	40768.40	3.7370	3.7370	3.2297	6.60	0.48	0.750			
0.6470	41409.35	3.7340	3.7338	3.2119	6.55	0.43	0.750			
0.6564	42009.18	3.7310	3.7310	3.1967	6.51	0.39	0.750			
0.6661	42629.88	3.7280	3.7280	3.2320	6.48	0.36	0.750			
0.6762	43279.27	3.7250	3.7249	3.1537	6.44	0.32	0.750			
0.6849	43835.28	3.7220	3.7221	2.7460	6.41	0.29	0.750			
0.6925	44319.09	3.7190	3.7190	2.4064	6.38	0.26	0.750			
0.6990	44734.92	3.7160	3.7159	2.0934	6.36	0.24	0.750			
0.7047	45101.59	3.7130	3.7131	1.8510	6.35	0.23	0.750			
0.7100	45440.89	3.7100	3.7101	1.6800	6.33	0.21	0.750			
0.7147	45741.38	3.7070	3.7068	1.5283	6.32	0.20	0.750			
0.7189	46008.67	3.7040	3.7040	1.3907	6.31	0.19	0.750			
0.7229	46262.82	3.7010	3.7011	1.3022	6.29	0.17	0.750			
0.7266	46500.63	3.6980	3.6980	1.2266	6.28	0.16	0.750			
0.7300	46721.36	3.6950	3.6950	1.1653	6.27	0.15	0.750			
0.7334	46936.76	3.6920	3.6920	1.1310	6.26	0.14	0.750			
0.7367	47147.58	3.6890	3.6887	1.1129	6.25	0.13	0.750			
0.7400	47358.63	3.6860	3.6860	1.0876	6.24	0.12	0.750			
0.7432	47567.65	3.6830	3.6830	1.0734	6.23	0.11	0.750			
0.7465	47774.64	3.6800	3.6801	1.0533	6.23	0.11	0.750			
0.7496	47976.11	3.6770	3.6770	1.0232	6.22	0.10	0.750			
0.7527	48171.99	3.6740	3.6739	0.9879	6.21	0.09	0.750			
0.7556	48355.71	3.6710	3.6710	0.9576	6.21	0.09	0.750			
0.7583	48533.64	3.6680	3.6682	0.9416	6.20	0.08	0.750			
0.7611	48711.62	3.6650	3.6649	0.9336	6.19	0.07	0.750			
0.7639	48887.24	3.6620	3.6620	0.9218	6.19	0.07	0.750			
0.7666	49063.44	3.6590	3.6590	0.9251	6.18	0.06	0.750			
0.7694	49240.61	3.6560	3.6561	0.9328	6.17	0.05	0.750			
0.7722	49423.47	3.6530	3.6531	0.9373	6.17	0.05	0.750			
0.7750	49602.67	3.6500	3.6499	0.9375	6.16	0.04	0.750			
0.7778	49781.41	3.6470	3.6471	0.9412	6.15	0.03	0.750			
0.7806	49961.00	3.6440	3.6440	0.9473	6.14	0.02	0.750			
0.7835	50143.54	3.6410	3.6410	0.9607	6.14	0.02	0.750			
0.7864	50330.31	3.6380	3.6378	0.9639	6.13	0.01	0.750			
0.7894	50518.73	3.6350	3.6350	0.9614	6.13	0.01	0.750			
0.7923	50708.98	3.6320	3.6320	0.9373	6.13	0.01	0.750			
0.7953	50898.01	3.6290	3.6290	0.8791	6.12	0.00	0.750			
0.7979	51065.21	3.6260	3.6261	0.7943	6.12	0.00	0.750			
0.8002	51213.00	3.6230	3.6231	0.6895	6.12	-0.00	0.750			
0.8021	51332.95	3.6200	3.6201	0.5769	6.12	-0.00	0.750			
0.8036	51431.94	3.6170	3.6169	0.4623	6.12	-0.00	0.750			
0.8047	51498.51	3.6140	3.6143	0.3763	6.12	-0.00	0.750			
0.8056	51561.57	3.6110	3.6110	0.2991	6.11	-0.01	0.750			
0.8064	51608.29	3.6080	3.6075	0.2264	6.11	-0.01	0.750			
0.8068	51637.40	3.6050	3.6044	0.1557	6.11	-0.01	0.750			
0.8072	51660.45	3.6020	3.5980	0.1043	6.11	-0.01	0.750			
0.8073	51666.75	3.5900	3.5761	-0.0772	6.11	-0.01	0.750			
0.8074	51672.77	3.5990	3.5178	0.0564	6.11	-0.01	0.745			
0.8075	51677.31	3.5930	3.4738	-0.0327	6.11	-0.01	0.741			
0.8075	51679.31	3.5960	3.4544	0.0118	6.11	-0.01	0.739			
