Ah_balance (normalized)	Ah_balance (mAh)	Voltage - fit (V)	Voltage -  interpolate (V)	dQ/dV (1/V)	Temperature (°C)	Temperature - diff (°C)	Current (C)	R_DC 0ms (mOhm)	R_DC 50ms (mOhm)	R_DC 50 ms PEC (mOhm)
0.0001	7.72	4.1020	4.0999	-0.0032	5.97	-0.01	-0.750			
0.0002	11.62	4.0990	4.0983	-0.0374	5.97	-0.01	-0.750			
0.0004	24.10	4.0960	4.0952	-0.0709	5.97	-0.01	-0.750			
0.0006	41.18	4.0930	4.0927	-0.0995	5.97	-0.01	-0.750			
0.0010	62.98	4.0900	4.0900	-0.1277	5.97	-0.01	-0.750			
0.0014	90.34	4.0870	4.0872	-0.1544	5.97	-0.01	-0.750			
0.0019	122.66	4.0840	4.0840	-0.1799	5.98	-0.00	-0.750			
0.0025	161.00	4.0810	4.0810	-0.2067	5.98	-0.00	-0.750			
0.0032	203.37	4.0780	4.0780	-0.2278	5.98	-0.00	-0.750			
0.0039	249.42	4.0750	4.0750	-0.2498	5.98	-0.00	-0.750			
0.0047	299.73	4.0720	4.0721	-0.2725	5.98	-0.00	-0.750			
0.0055	354.12	4.0690	4.0689	-0.2937	5.98	-0.00	-0.750			
0.0064	412.35	4.0660	4.0660	-0.3173	5.98	-0.00	-0.750			
0.0074	475.32	4.0630	4.0629	-0.3390	5.98	-0.00	-0.750			
0.0085	542.42	4.0600	4.0600	-0.3617	5.98	0.00	-0.750			
0.0096	614.26	4.0570	4.0570	-0.3860	5.98	0.00	-0.750			
0.0108	690.15	4.0540	4.0541	-0.4100	5.98	0.00	-0.750			
0.0121	772.10	4.0510	4.0509	-0.4297	5.98	0.00	-0.750			
0.0134	856.83	4.0480	4.0480	-0.4515	5.98	0.00	-0.750			
0.0148	944.53	4.0450	4.0451	-0.4752	5.99	0.01	-0.750			
0.0162	1039.82	4.0420	4.0420	-0.4937	5.99	0.01	-0.750			
0.0178	1136.82	4.0390	4.0388	-0.5130	5.99	0.01	-0.750			
0.0193	1237.06	4.0360	4.0360	-0.5317	5.99	0.01	-0.750			
0.0210	1341.31	4.0330	4.0331	-0.5477	5.99	0.01	-0.750			
0.0226	1449.48	4.0300	4.0298	-0.5617	5.99	0.01	-0.750			
0.0243	1558.28	4.0270	4.0271	-0.5731	6.00	0.02	-0.750			
0.0261	1668.42	4.0240	4.0241	-0.5859	6.00	0.02	-0.750			
0.0279	1783.25	4.0210	4.0210	-0.6011	6.00	0.02	-0.750			
0.0297	1898.22	4.0180	4.0179	-0.6129	6.00	0.02	-0.750			
0.0315	2017.72	4.0150	4.0149	-0.6269	6.01	0.03	-0.750			
0.0335	2140.99	4.0120	4.0121	-0.6421	6.01	0.03	-0.750			
0.0354	2266.25	4.0090	4.0090	-0.6513	6.02	0.04	-0.750			
0.0374	2393.00	4.0060	4.0061	-0.6576	6.02	0.04	-0.750			
0.0393	2517.51	4.0030	4.0031	-0.6703	6.03	0.05	-0.750			
0.0414	2649.04	4.0000	3.9999	-0.6814	6.03	0.05	-0.750			
0.0434	2780.79	3.9970	3.9967	-0.6854	6.04	0.06	-0.750			
0.0455	2913.17	3.9940	3.9943	-0.6992	6.04	0.06	-0.750			
0.0476	3049.32	3.9910	3.9910	-0.7057	6.05	0.07	-0.750			
0.0498	3187.70	3.9880	3.9880	-0.7106	6.05	0.07	-0.750			
0.0519	3324.32	3.9850	3.9850	-0.7110	6.06	0.08	-0.750			
0.0541	3459.64	3.9820	3.9822	-0.7107	6.07	0.09	-0.750			
0.0562	3597.70	3.9790	3.9789	-0.7137	6.07	0.09	-0.750			
0.0583	3734.36	3.9760	3.9760	-0.7153	6.08	0.10	-0.750			
0.0605	3869.78	3.9730	3.9731	-0.7135	6.09	0.11	-0.750			
0.0626	4006.32	3.9700	3.9700	-0.7283	6.10	0.12	-0.750			
0.0648	4148.02	3.9670	3.9670	-0.7289	6.11	0.13	-0.750			
0.0670	4288.41	3.9640	3.9639	-0.7328	6.12	0.14	-0.750			
0.0692	4429.81	3.9610	3.9610	-0.7357	6.13	0.15	-0.750			
0.0714	4572.53	3.9580	3.9578	-0.7363	6.13	0.15	-0.750			
0.0737	4713.70	3.9550	3.9550	-0.7356	6.14	0.16	-0.750			
0.0759	4854.45	3.9520	3.9519	-0.7378	6.15	0.17	-0.750			
0.0781	4995.41	3.9490	3.9490	-0.7345	6.15	0.17	-0.750			
0.0803	5138.53	3.9460	3.9460	-0.7449	6.16	0.18	-0.750			
0.0825	5280.33	3.9430	3.9431	-0.7466	6.17	0.19	-0.750			
0.0848	5424.34	3.9400	3.9399	-0.7510	6.18	0.20	-0.750			
0.0870	5568.08	3.9370	3.9370	-0.7600	6.19	0.21	-0.750			
0.0893	5715.10	3.9340	3.9340	-0.7615	6.20	0.22	-0.750			
0.0916	5863.05	3.9310	3.9310	-0.7559	6.20	0.22	-0.750			
0.0939	6010.25	3.9280	3.9279	-0.7639	6.21	0.23	-0.750			
0.0962	6155.01	3.9250	3.9252	-0.7616	6.22	0.24	-0.750			
0.0985	6301.53	3.9220	3.9219	-0.7593	6.23	0.25	-0.750			
0.1007	6446.55	3.9190	3.9189	-0.7635	6.24	0.26	-0.750			
0.1030	6592.15	3.9160	3.9161	-0.7627	6.25	0.27	-0.750			
0.1053	6741.23	3.9130	3.9130	-0.7669	6.26	0.28	-0.750			
0.1077	6890.24	3.9100	3.9101	-0.7744	6.27	0.29	-0.750			
0.1099	7035.59	3.9070	3.9070	-0.7759	6.28	0.30	-0.750			
0.1123	7185.01	3.9040	3.9040	-0.7842	6.29	0.31	-0.750			
0.1147	7338.25	3.9010	3.9009	-0.7880	6.30	0.32	-0.750			
0.1170	7489.99	3.8980	3.8979	-0.7871	6.31	0.33	-0.750			
0.1195	7645.49	3.8950	3.8952	-0.7887	6.32	0.34	-0.750			
0.1218	7795.74	3.8920	3.8919	-0.7858	6.33	0.35	-0.750			
0.1241	7944.67	3.8890	3.8890	-0.7809	6.33	0.35	-0.750			
0.1265	8094.08	3.8860	3.8861	-0.7768	6.34	0.36	-0.750			
0.1287	8239.39	3.8830	3.8830	-0.7809	6.35	0.37	-0.750			
0.1311	8392.85	3.8800	3.8800	-0.7878	6.36	0.38	-0.750			
0.1335	8544.71	3.8770	3.8770	-0.7854	6.37	0.39	-0.750			
0.1359	8697.10	3.8740	3.8740	-0.7901	6.38	0.40	-0.750			
0.1382	8847.37	3.8710	3.8711	-0.7973	6.39	0.41	-0.750			
0.1407	9001.63	3.8680	3.8680	-0.7979	6.40	0.42	-0.750			
0.1431	9156.44	3.8650	3.8648	-0.8001	6.41	0.43	-0.750			
0.1454	9308.46	3.8620	3.8624	-0.8012	6.42	0.44	-0.750			
0.1479	9463.31	3.8590	3.8590	-0.8089	6.43	0.45	-0.750			
0.1503	9619.83	3.8560	3.8559	-0.8043	6.44	0.46	-0.750			
0.1527	9773.23	3.8530	3.8530	-0.7986	6.46	0.48	-0.750			
0.1551	9927.80	3.8500	3.8501	-0.8010	6.47	0.49	-0.750			
0.1575	10080.49	3.8470	3.8471	-0.8007	6.48	0.50	-0.750			
0.1599	10233.64	3.8440	3.8439	-0.7983	6.49	0.51	-0.750			
0.1623	10384.73	3.8410	3.8410	-0.8058	6.49	0.51	-0.750			
0.1647	10539.80	3.8380	3.8380	-0.8088	6.50	0.52	-0.750			
0.1672	10697.86	3.8350	3.8350	-0.8161	6.51	0.53	-0.750			
0.1696	10856.99	3.8320	3.8320	-0.8161	6.52	0.54	-0.750			
0.1721	11013.01	3.8290	3.8290	-0.8179	6.53	0.55	-0.750			
0.1745	11168.58	3.8260	3.8260	-0.8190	6.54	0.56	-0.750			
0.1770	11326.88	3.8230	3.8229	-0.8184	6.55	0.57	-0.750			
0.1794	11481.97	3.8200	3.8200	-0.8105	6.56	0.58	-0.750			
0.1819	11642.39	3.8170	3.8170	-0.8120	6.57	0.59	-0.750			
0.1843	11796.28	3.8140	3.8140	-0.8103	6.58	0.60	-0.750			
0.1867	11951.56	3.8110	3.8110	-0.8215	6.59	0.61	-0.750			
0.1892	12108.64	3.8080	3.8080	-0.8212	6.60	0.62	-0.750			
0.1917	12266.56	3.8050	3.8049	-0.8238	6.61	0.63	-0.750			
0.1942	12426.91	3.8020	3.8021	-0.8308	6.62	0.64	-0.750			
0.1967	12589.97	3.7990	3.7988	-0.8287	6.62	0.64	-0.750			
0.1992	12747.15	3.7960	3.7959	-0.8303	6.63	0.65	-0.750			
0.2016	12903.34	3.7930	3.7931	-0.8271	6.64	0.66	-0.750			
0.2041	13061.65	3.7900	3.7899	-0.8246	6.65	0.67	-0.750			
0.2066	13224.02	3.7870	3.7868	-0.8314	6.66	0.68	-0.750			
0.2091	13383.28	3.7840	3.7841	-0.8302	6.66	0.68	-0.750			
0.2116	13541.15	3.7810	3.7810	-0.8381	6.67	0.69	-0.750			
0.2141	13704.63	3.7780	3.7780	-0.8396	6.68	0.70	-0.750			
0.2166	13862.83	3.7750	3.7749	-0.8322	6.69	0.71	-0.750			
0.2191	14025.60	3.7720	3.7718	-0.8327	6.70	0.72	-0.750			
0.2217	14187.67	3.7690	3.7691	-0.8331	6.72	0.74	-0.750			
0.2241	14344.54	3.7660	3.7660	-0.8373	6.72	0.74	-0.750			
0.2266	14503.67	3.7630	3.7629	-0.8381	6.73	0.75	-0.750			
0.2291	14661.80	3.7600	3.7600	-0.8405	6.74	0.76	-0.750			
0.2317	14827.46	3.7570	3.7569	-0.8566	6.76	0.78	-0.750			
0.2343	14994.96	3.7540	3.7540	-0.8614	6.76	0.78	-0.750			
0.2369	15161.72	3.7510	3.7510	-0.8680	6.77	0.79	-0.750			
0.2395	15329.78	3.7480	3.7481	-0.8672	6.78	0.80	-0.750			
0.2421	15495.61	3.7450	3.7449	-0.8568	6.79	0.81	-0.750			
0.2447	15661.49	3.7420	3.7421	-0.8563	6.80	0.82	-0.750			
0.2472	15823.97	3.7390	3.7390	-0.8510	6.81	0.83	-0.750			
0.2498	15985.16	3.7360	3.7359	-0.8511	6.82	0.84	-0.750			
0.2523	16147.42	3.7330	3.7330	-0.8570	6.83	0.85	-0.750			
0.2548	16310.00	3.7300	3.7300	-0.8659	6.84	0.86	-0.750			
0.2575	16479.59	3.7270	3.7269	-0.8779	6.85	0.87	-0.750			
0.2602	16650.37	3.7240	3.7240	-0.8896	6.86	0.88	-0.750			
0.2629	16822.98	3.7210	3.7211	-0.8951	6.87	0.89	-0.750			
0.2656	16997.78	3.7180	3.7180	-0.8898	6.87	0.89	-0.750			
0.2683	17168.88	3.7150	3.7150	-0.8838	6.88	0.90	-0.750			
0.2709	17336.54	3.7120	3.7121	-0.8747	6.89	0.91	-0.750			
0.2735	17501.62	3.7090	3.7090	-0.8760	6.90	0.92	-0.750			
0.2761	17667.82	3.7060	3.7060	-0.8831	6.90	0.92	-0.750			
0.2787	17836.21	3.7030	3.7028	-0.8890	6.91	0.93	-0.750			
0.2814	18009.18	3.7000	3.7000	-0.9008	6.92	0.94	-0.750			
0.2841	18183.40	3.6970	3.6972	-0.9206	6.92	0.94	-0.750			
0.2869	18360.29	3.6940	3.6940	-0.9492	6.93	0.95	-0.750			
0.2898	18548.24	3.6910	3.6908	-0.9594	6.94	0.96	-0.750			
0.2927	18732.66	3.6880	3.6879	-0.9668	6.94	0.96	-0.750			
0.2957	18922.39	3.6850	3.6854	-0.9664	6.95	0.97	-0.750			
0.2986	19112.90	3.6820	3.6819	-0.9722	6.96	0.98	-0.750			
0.3015	19298.58	3.6790	3.6790	-0.9618	6.96	0.98	-0.750			
0.3043	19477.46	3.6760	3.6759	-0.9471	6.97	0.99	-0.750			
0.3072	19658.52	3.6730	3.6731	-0.9492	6.98	1.00	-0.750			
0.3100	19840.26	3.6700	3.6699	-0.9595	6.99	1.01	-0.750			
0.3129	20023.04	3.6670	3.6670	-0.9596	7.00	1.02	-0.750			
0.3158	20209.37	3.6640	3.6639	-0.9661	7.01	1.03	-0.750			
0.3186	20393.14	3.6610	3.6609	-0.9721	7.01	1.03	-0.750			
0.3216	20582.46	3.6580	3.6580	-0.9831	7.02	1.04	-0.750			
0.3246	20772.00	3.6550	3.6550	-0.9986	7.03	1.05	-0.750			
0.3276	20963.33	3.6520	3.6519	-1.0043	7.03	1.05	-0.750			
0.3306	21156.60	3.6490	3.6491	-1.0102	7.04	1.06	-0.750			
0.3337	21353.64	3.6460	3.6461	-1.0305	7.04	1.06	-0.750			
0.3368	21552.62	3.6430	3.6428	-1.0417	7.05	1.07	-0.750			
0.3399	21753.43	3.6400	3.6400	-1.0421	7.05	1.07	-0.750			
0.3430	21952.14	3.6370	3.6369	-1.0529	7.06	1.08	-0.750			
0.3462	22154.40	3.6340	3.6342	-1.0679	7.06	1.08	-0.750			
0.3494	22363.02	3.6310	3.6308	-1.0758	7.07	1.09	-0.750			
0.3527	22569.91	3.6280	3.6280	-1.0850	7.08	1.10	-0.750			
0.3559	22779.76	3.6250	3.6249	-1.0831	7.09	1.11	-0.750			
0.3592	22988.40	3.6220	3.6221	-1.0951	7.09	1.11	-0.750			
0.3625	23199.94	3.6190	3.6190	-1.0991	7.10	1.12	-0.750			
0.3657	23406.50	3.6160	3.6160	-1.1039	7.10	1.12	-0.750			
0.3690	23617.83	3.6130	3.6130	-1.1098	7.11	1.13	-0.750			
0.3724	23835.05	3.6100	3.6098	-1.1274	7.11	1.13	-0.750			
0.3758	24052.19	3.6070	3.6071	-1.1397	7.12	1.14	-0.750			
0.3793	24272.75	3.6040	3.6039	-1.1598	7.12	1.14	-0.750			
0.3828	24496.12	3.6010	3.6011	-1.1663	7.13	1.15	-0.750			
0.3863	24724.69	3.5980	3.5979	-1.1804	7.13	1.15	-0.750			
0.3899	24951.52	3.5950	3.5948	-1.1851	7.14	1.16	-0.750	0.429	0.911	
0.3934	25178.56	3.5920	3.5920	-1.2073	7.14	1.16	-0.750			
0.3971	25411.27	3.5890	3.5889	-1.2129	7.14	1.16	-0.750			
0.4007	25644.33	3.5860	3.5859	-1.2267	7.14	1.16	-0.750			
0.4044	25878.71	3.5830	3.5830	-1.2338	7.15	1.17	-0.750			
0.4082	26123.70	3.5800	3.5803	-1.2342	7.15	1.17	-0.750			
0.4119	26364.74	3.5770	3.5770	-1.2355	7.16	1.18	-0.750			
0.4156	26601.48	3.5740	3.5741	-1.2275	7.16	1.18	-0.750			
0.4192	26831.12	3.5710	3.5710	-1.2361	7.17	1.19	-0.750			
0.4229	27065.90	3.5680	3.5680	-1.2536	7.17	1.19	-0.750			
0.4266	27304.98	3.5650	3.5649	-1.2669	7.18	1.20	-0.750			
0.4305	27549.63	3.5620	3.5620	-1.2973	7.18	1.20	-0.750			
0.4345	27805.34	3.5590	3.5590	-1.3188	7.18	1.20	-0.750			
0.4385	28064.37	3.5560	3.5560	-1.3312	7.19	1.21	-0.750			
0.4425	28321.07	3.5530	3.5530	-1.3327	7.20	1.22	-0.750			
0.4465	28574.63	3.5500	3.5501	-1.3352	7.20	1.22	-0.750			
0.4505	28834.53	3.5470	3.5468	-1.3325	7.21	1.23	-0.750			
0.4545	29087.02	3.5440	3.5440	-1.3434	7.21	1.23	-0.750			
0.4585	29344.09	3.5410	3.5411	-1.3567	7.22	1.24	-0.750			
0.4627	29609.95	3.5380	3.5378	-1.3698	7.22	1.24	-0.750			
0.4668	29874.63	3.5350	3.5349	-1.3706	7.23	1.25	-0.750			
0.4709	30137.85	3.5320	3.5322	-1.3882	7.23	1.25	-0.750			
0.4751	30406.67	3.5290	3.5290	-1.4006	7.23	1.25	-0.750			
0.4794	30678.65	3.5260	3.5258	-1.4026	7.24	1.26	-0.750			
0.4835	30943.35	3.5230	3.5233	-1.4034	7.24	1.26	-0.750			
0.4878	31221.21	3.5200	3.5200	-1.4061	7.25	1.27	-0.750			
0.4920	31490.26	3.5170	3.5170	-1.3977	7.25	1.27	-0.750			
0.4962	31757.00	3.5140	3.5142	-1.4017	7.26	1.28	-0.750			
0.5004	32026.86	3.5110	3.5109	-1.3980	7.27	1.29	-0.750			
0.5046	32293.01	3.5080	3.5079	-1.3923	7.27	1.29	-0.750			
0.5087	32558.55	3.5050	3.5052	-1.4075	7.28	1.30	-0.750			
0.5130	32831.56	3.5020	3.5019	-1.4151	7.29	1.31	-0.750			
0.5173	33104.70	3.4990	3.4989	-1.4212	7.29	1.31	-0.750			
0.5215	33377.98	3.4960	3.4960	-1.4137	7.30	1.32	-0.750			
0.5258	33648.67	3.4930	3.4932	-1.4318	7.31	1.33	-0.750			
0.5301	33925.95	3.4900	3.4899	-1.4255	7.32	1.34	-0.750			
0.5344	34198.56	3.4870	3.4870	-1.4013	7.33	1.35	-0.750			
0.5387	34473.66	3.4840	3.4839	-1.3936	7.34	1.36	-0.750			
0.5428	34737.63	3.4810	3.4809	-1.3795	7.35	1.37	-0.750			
0.5468	34997.68	3.4780	3.4780	-1.3595	7.35	1.37	-0.750			
0.5509	35256.15	3.4750	3.4750	-1.3515	7.37	1.39	-0.750			
0.5548	35507.78	3.4720	3.4719	-1.3362	7.38	1.40	-0.750			
0.5589	35766.86	3.4690	3.4691	-1.3431	7.39	1.41	-0.750			
0.5630	36031.10	3.4660	3.4660	-1.3488	7.40	1.42	-0.750			
0.5671	36292.30	3.4630	3.4629	-1.3441	7.41	1.43	-0.750			
0.5711	36548.52	3.4600	3.4600	-1.3396	7.42	1.44	-0.750			
0.5751	36805.81	3.4570	3.4571	-1.3268	7.43	1.45	-0.750			
0.5791	37060.72	3.4540	3.4538	-1.3122	7.44	1.46	-0.750			
0.5830	37310.40	3.4510	3.4513	-1.3090	7.45	1.47	-0.750			
0.5869	37560.85	3.4480	3.4479	-1.2946	7.47	1.49	-0.750			
0.5908	37808.97	3.4450	3.4449	-1.2811	7.48	1.50	-0.750			
0.5946	38054.77	3.4420	3.4422	-1.2625	7.50	1.52	-0.750			
0.5984	38299.15	3.4390	3.4389	-1.2548	7.51	1.53	-0.750			
0.6022	38541.00	3.4360	3.4359	-1.2209	7.52	1.54	-0.750			
0.6058	38769.46	3.4330	3.4330	-1.1948	7.53	1.55	-0.750			
0.6093	38992.86	3.4300	3.4301	-1.1748	7.54	1.56	-0.750			
0.6128	39218.05	3.4270	3.4270	-1.1670	7.55	1.57	-0.750			
0.6162	39438.93	3.4240	3.4238	-1.1559	7.56	1.58	-0.750			
0.6196	39657.08	3.4210	3.4211	-1.1441	7.57	1.59	-0.750			
0.6232	39882.31	3.4180	3.4180	-1.1436	7.58	1.60	-0.750			
0.6267	40107.07	3.4150	3.4150	-1.1325	7.60	1.62	-0.750			
0.6300	40320.76	3.4120	3.4119	-1.1000	7.62	1.64	-0.750			
0.6332	40526.42	3.4090	3.4092	-1.0772	7.63	1.65	-0.750			
0.6364	40731.40	3.4060	3.4060	-1.0536	7.64	1.66	-0.750			
0.6395	40931.05	3.4030	3.4029	-1.0318	7.66	1.68	-0.750			
0.6426	41125.65	3.4000	3.3999	-1.0083	7.67	1.69	-0.750			
0.6456	41321.49	3.3970	3.3973	-0.9916	7.68	1.70	-0.750			
0.6486	41508.32	3.3940	3.3940	-0.9647	7.70	1.72	-0.750			
0.6514	41692.74	3.3910	3.3910	-0.9364	7.71	1.73	-0.750			
0.6542	41868.81	3.3880	3.3880	-0.9061	7.72	1.74	-0.750			
0.6569	42040.13	3.3850	3.3850	-0.8788	7.74	1.76	-0.750			
0.6595	42206.19	3.3820	3.3819	-0.8455	7.75	1.77	-0.750			
0.6619	42363.02	3.3790	3.3791	-0.8263	7.76	1.78	-0.750			
0.6643	42518.34	3.3760	3.3761	-0.8062	7.78	1.80	-0.750			
0.6667	42669.64	3.3730	3.3729	-0.7907	7.79	1.81	-0.750			
0.6691	42821.47	3.3700	3.3700	-0.7748	7.80	1.82	-0.750			
0.6714	42967.53	3.3670	3.3670	-0.7614	7.82	1.84	-0.750			
0.6737	43113.71	3.3640	3.3641	-0.7473	7.83	1.85	-0.750			
0.6759	43258.25	3.3610	3.3609	-0.7349	7.84	1.86	-0.750			
0.6781	43395.96	3.3580	3.3580	-0.7129	7.85	1.87	-0.750			
0.6802	43532.78	3.3550	3.3550	-0.7001	7.86	1.88	-0.750			
0.6823	43664.82	3.3520	3.3520	-0.6810	7.88	1.90	-0.750			
0.6843	43794.73	3.3490	3.3488	-0.6653	7.89	1.91	-0.750			
0.6862	43919.21	3.3460	3.3461	-0.6439	7.90	1.92	-0.750			
0.6881	44040.55	3.3430	3.3429	-0.6315	7.91	1.93	-0.750			
0.6900	44159.83	3.3400	3.3400	-0.6140	7.92	1.94	-0.750			
0.6918	44277.76	3.3370	3.3370	-0.5984	7.93	1.95	-0.750			
0.6936	44390.92	3.3340	3.3340	-0.5804	7.94	1.96	-0.750			
0.6953	44501.36	3.3310	3.3312	-0.5674	7.95	1.97	-0.750			
0.6970	44608.57	3.3280	3.3280	-0.5521	7.96	1.98	-0.750			
0.6986	44713.22	3.3250	3.3249	-0.5353	7.97	1.99	-0.750			
0.7002	44813.23	3.3220	3.3220	-0.5212	7.98	2.00	-0.750			
0.7017	44911.90	3.3190	3.3191	-0.5119	8.00	2.02	-0.750			
0.7033	45009.18	3.3160	3.3160	-0.4994	8.01	2.03	-0.750			
0.7047	45103.47	3.3130	3.3128	-0.4904	8.02	2.04	-0.750			
0.7062	45196.26	3.3100	3.3100	-0.4794	8.03	2.05	-0.750			
0.7076	45287.26	3.3070	3.3070	-0.4718	8.04	2.06	-0.750			
0.7090	45377.54	3.3040	3.3039	-0.4644	8.05	2.07	-0.750			
0.7104	45465.58	3.3010	3.3010	-0.4547	8.06	2.08	-0.750			
0.7118	45552.57	3.2980	3.2980	-0.4477	8.07	2.09	-0.750			
0.7131	45637.91	3.2950	3.2950	-0.4368	8.08	2.10	-0.750			
0.7144	45720.82	3.2920	3.2920	-0.4274	8.09	2.11	-0.750			
0.7157	45802.28	3.2890	3.2890	-0.4202	8.10	2.12	-0.750			
0.7169	45881.37	3.2860	3.2860	-0.4108	8.11	2.13	-0.750			
0.7181	45959.56	3.2830	3.2829	-0.4027	8.12	2.14	-0.750			
0.7193	46035.73	3.2800	3.2800	-0.3958	8.13	2.15	-0.750			
0.7205	46111.37	3.2770	3.2771	-0.3877	8.14	2.16	-0.750			
0.7217	46185.73	3.2740	3.2740	-0.3820	8.15	2.17	-0.750			
0.7228	46257.56	3.2710	3.2710	-0.3741	8.16	2.18	-0.750			
0.7239	46328.41	3.2680	3.2679	-0.3674	8.18	2.20	-0.750			
0.7250	46398.16	3.2650	3.2650	-0.3613	8.19	2.21	-0.750			
0.7260	46466.84	3.2620	3.2620	-0.3567	8.20	2.22	-0.750			
0.7271	46534.86	3.2590	3.2590	-0.3511	8.21	2.23	-0.750			
0.7282	46602.51	3.2560	3.2560	-0.3465	8.22	2.24	-0.750			
0.7292	46668.01	3.2530	3.2530	-0.3406	8.23	2.25	-0.750			
0.7302	46733.27	3.2500	3.2500	-0.3331	8.24	2.26	-0.750			
0.7312	46796.96	3.2470	3.2470	-0.3254	8.25	2.27	-0.750			
0.7322	46858.82	3.2440	3.2439	-0.3164	8.26	2.28	-0.750			
0.7331	46917.33	3.2410	3.2412	-0.3115	8.26	2.28	-0.750			
0.7340	46976.77	3.2380	3.2380	-0.3064	8.27	2.29	-0.750			
0.7349	47035.02	3.2350	3.2349	-0.3020	8.28	2.30	-0.750			
0.7358	47091.96	3.2320	3.2321	-0.2987	8.29	2.31	-0.750			
0.7367	47149.70	3.2290	3.2291	-0.2971	8.30	2.32	-0.750			
0.7376	47206.36	3.2260	3.2260	-0.2947	8.31	2.33	-0.750			
0.7385	47262.96	3.2230	3.2230	-0.2908	8.32	2.34	-0.750			
0.7393	47317.95	3.2200	3.2200	-0.2862	8.33	2.35	-0.750			
0.7402	47373.49	3.2170	3.2170	-0.2830	8.34	2.36	-0.750			
0.7410	47427.11	3.2140	3.2139	-0.2781	8.35	2.37	-0.750			
0.7419	47479.55	3.2110	3.2110	-0.2734	8.36	2.38	-0.750			
0.7427	47531.85	3.2080	3.2079	-0.2692	8.37	2.39	-0.750			
0.7435	47582.87	3.2050	3.2050	-0.2649	8.38	2.40	-0.750			
0.7443	47633.76	3.2020	3.2020	-0.2611	8.39	2.41	-0.750			
0.7450	47683.17	3.1990	3.1990	-0.2582	8.40	2.42	-0.750			
0.7458	47732.47	3.1960	3.1960	-0.2551	8.41	2.43	-0.750			
0.7466	47781.20	3.1930	3.1929	-0.2519	8.41	2.43	-0.750			
0.7473	47828.84	3.1900	3.1900	-0.2494	8.42	2.44	-0.750			
0.7481	47876.19	3.1870	3.1871	-0.2481	8.43	2.45	-0.750			
0.7488	47924.44	3.1840	3.1840	-0.2458	8.44	2.46	-0.750			
0.7496	47971.55	3.1810	3.1809	-0.2425	8.45	2.47	-0.750			
0.7503	48017.87	3.1780	3.1781	-0.2383	8.46	2.48	-0.750			
0.7510	48063.55	3.1750	3.1751	-0.2346	8.47	2.49	-0.750			
0.7517	48108.37	3.1720	3.1719	-0.2308	8.47	2.49	-0.750			
0.7524	48151.44	3.1690	3.1690	-0.2272	8.48	2.50	-0.750			
0.7530	48194.49	3.1660	3.1660	-0.2238	8.49	2.51	-0.750			
0.7537	48237.29	3.1630	3.1629	-0.2220	8.50	2.52	-0.750			
0.7544	48279.79	3.1600	3.1600	-0.2203	8.51	2.53	-0.750			
0.7550	48321.77	3.1570	3.1571	-0.2184	8.51	2.53	-0.750			
0.7557	48363.85	3.1540	3.1540	-0.2168	8.52	2.54	-0.750			
0.7563	48405.15	3.1510	3.1510	-0.2148	8.53	2.55	-0.750			
0.7570	48446.20	3.1480	3.1479	-0.2128	8.53	2.55	-0.750			
0.7576	48486.62	3.1450	3.1450	-0.2105	8.54	2.56	-0.750			
0.7582	48527.17	3.1420	3.1419	-0.2087	8.54	2.56	-0.750			
0.7589	48566.87	3.1390	3.1390	-0.2065	8.55	2.57	-0.750			
0.7595	48606.28	3.1360	3.1360	-0.2047	8.56	2.58	-0.750			
0.7601	48645.33	3.1330	3.1330	-0.2028	8.57	2.59	-0.750			
0.7607	48684.32	3.1300	3.1300	-0.2003	8.58	2.60	-0.750			
0.7613	48722.55	3.1270	3.1270	-0.1975	8.59	2.61	-0.750			
0.7619	48760.07	3.1240	3.1240	-0.1958	8.60	2.62	-0.750			
0.7625	48797.46	3.1210	3.1211	-0.1937	8.60	2.62	-0.750			
0.7630	48834.32	3.1180	3.1180	-0.1923	8.61	2.63	-0.750			
0.7636	48870.77	3.1150	3.1150	-0.1904	8.62	2.64	-0.750			
0.7642	48907.02	3.1120	3.1121	-0.1893	8.63	2.65	-0.750			
0.7647	48943.33	3.1090	3.1090	-0.1889	8.64	2.66	-0.750			
0.7653	48979.90	3.1060	3.1060	-0.1877	8.64	2.66	-0.750			
0.7659	49016.03	3.1030	3.1029	-0.1863	8.65	2.67	-0.750			
0.7664	49051.44	3.1000	3.1000	-0.1844	8.66	2.68	-0.750			
0.7670	49086.70	3.0970	3.0971	-0.1829	8.67	2.69	-0.750			
0.7675	49121.60	3.0940	3.0940	-0.1819	8.68	2.70	-0.750			
0.7681	49156.47	3.0910	3.0911	-0.1802	8.68	2.70	-0.750			
0.7686	49190.78	3.0880	3.0879	-0.1783	8.69	2.71	-0.750			
0.7691	49224.90	3.0850	3.0851	-0.1771	8.70	2.72	-0.750			
0.7697	49259.00	3.0820	3.0820	-0.1759	8.71	2.73	-0.750			
0.7702	49292.57	3.0790	3.0789	-0.1748	8.72	2.74	-0.750			
0.7707	49325.99	3.0760	3.0760	-0.1728	8.72	2.74	-0.750			
0.7712	49359.03	3.0730	3.0729	-0.1714	8.73	2.75	-0.750			
0.7717	49391.76	3.0700	3.0700	-0.1696	8.74	2.76	-0.750			
0.7723	49424.28	3.0670	3.0670	-0.1686	8.75	2.77	-0.750			
0.7728	49456.44	3.0640	3.0639	-0.1670	8.75	2.77	-0.750			
0.7733	49488.36	3.0610	3.0610	-0.1655	8.76	2.78	-0.750			
0.7737	49519.79	3.0580	3.0581	-0.1651	8.77	2.79	-0.750			
0.7742	49551.16	3.0550	3.0550	-0.1642	8.78	2.80	-0.750			
0.7747	49582.86	3.0520	3.0520	-0.1639	8.78	2.80	-0.750			
0.7752	49614.28	3.0490	3.0490	-0.1633	8.79	2.81	-0.750			
0.7757	49645.66	3.0460	3.0460	-0.1625	8.80	2.82	-0.750			
0.7762	49676.85	3.0430	3.0430	-0.1614	8.81	2.83	-0.750			
0.7767	49708.19	3.0400	3.0399	-0.1598	8.81	2.83	-0.750			
0.7772	49738.32	3.0370	3.0370	-0.1586	8.82	2.84	-0.750			
0.7776	49768.44	3.0340	3.0341	-0.1570	8.83	2.85	-0.750			
0.7781	49798.34	3.0310	3.0310	-0.1560	8.83	2.85	-0.750			
0.7786	49827.93	3.0280	3.0279	-0.1555	8.84	2.86	-0.750			
0.7790	49857.96	3.0250	3.0250	-0.1551	8.85	2.87	-0.750			
0.7795	49887.57	3.0220	3.0220	-0.1547	8.85	2.87	-0.750			
0.7800	49917.43	3.0190	3.0190	-0.1541	8.86	2.88	-0.750			
0.7804	49947.32	3.0160	3.0160	-0.1539	8.87	2.89	-0.750			
0.7809	49976.66	3.0130	3.0131	-0.1519	8.87	2.89	-0.750			
0.7813	50005.69	3.0100	3.0098	-0.1506	8.88	2.90	-0.750			
0.7818	50034.67	3.0070	3.0070	-0.1490	8.89	2.91	-0.750			
0.7822	50062.97	3.0040	3.0041	-0.1478	8.89	2.91	-0.750			
0.7827	50091.16	3.0010	3.0010	-0.1430	8.90	2.92	-0.750			
