Ah_balance (normalized)	Ah_balance (mAh)	Voltage - fit (V)	Voltage -  interpolate (V)	dQ/dV (1/V)	Temperature (°C)	Temperature - diff (°C)	Current (C)	R_DC 0ms (mOhm)	R_DC 50ms (mOhm)	R_DC 50 ms PEC (mOhm)
0.0905	5791.61	4.1990	4.1979	0.8764	8.12	2.12	0.750			
0.0933	5968.01	4.1960	4.1981	0.9234	8.11	2.11	0.750	0.432	0.893	
0.0959	6140.59	4.1930	4.1942	0.8712	8.11	2.11	0.750			
0.0985	6302.48	4.1900	4.1906	0.8187	8.10	2.10	0.750			
0.1010	6461.01	4.1870	4.1867	0.8115	8.09	2.09	0.750			
0.1029	6586.29	4.1840	4.1841	0.7123	8.09	2.09	0.750			
0.1051	6727.64	4.1810	4.1810	0.7193	8.08	2.08	0.750			
0.1074	6870.58	4.1780	4.1778	0.7376	8.08	2.08	0.750			
0.1096	7013.83	4.1750	4.1751	0.7381	8.07	2.07	0.750			
0.1118	7157.20	4.1720	4.1721	0.7343	8.06	2.06	0.750			
0.1140	7298.30	4.1690	4.1688	0.7282	8.06	2.06	0.750			
0.1161	7433.29	4.1660	4.1661	0.7236	8.05	2.05	0.750			
0.1183	7570.16	4.1630	4.1631	0.7256	8.04	2.04	0.750			
0.1205	7711.65	4.1600	4.1599	0.7386	8.04	2.04	0.750			
0.1227	7852.73	4.1570	4.1570	0.7433	8.03	2.03	0.750			
0.1250	7998.64	4.1540	4.1540	0.7489	8.03	2.03	0.750			
0.1273	8144.24	4.1510	4.1511	0.7485	8.02	2.02	0.750			
0.1295	8290.23	4.1480	4.1480	0.7481	8.02	2.02	0.750			
0.1318	8432.73	4.1450	4.1449	0.7417	8.01	2.01	0.750			
0.1340	8573.14	4.1420	4.1420	0.7412	8.01	2.01	0.750			
0.1362	8715.31	4.1390	4.1390	0.7380	8.00	2.00	0.750			
0.1384	8855.63	4.1360	4.1360	0.7431	7.99	1.99	0.750			
0.1406	8998.60	4.1330	4.1330	0.7486	7.99	1.99	0.750			
0.1429	9143.82	4.1300	4.1301	0.7556	7.98	1.98	0.750			
0.1451	9289.16	4.1270	4.1270	0.7622	7.98	1.98	0.750			
0.1474	9436.75	4.1240	4.1241	0.7664	7.97	1.97	0.750			
0.1498	9584.28	4.1210	4.1210	0.7649	7.97	1.97	0.750			
0.1521	9732.40	4.1180	4.1179	0.7704	7.96	1.96	0.750			
0.1544	9878.63	4.1150	4.1152	0.7686	7.96	1.96	0.750			
0.1567	10027.17	4.1120	4.1119	0.7727	7.95	1.95	0.750			
0.1590	10176.83	4.1090	4.1089	0.7754	7.95	1.95	0.750			
0.1614	10326.97	4.1060	4.1059	0.7708	7.94	1.94	0.750			
0.1636	10473.55	4.1030	4.1031	0.7799	7.93	1.93	0.750			
0.1660	10623.34	4.1000	4.1000	0.7842	7.93	1.93	0.750			
0.1683	10774.37	4.0970	4.0969	0.7834	7.92	1.92	0.750			
0.1707	10925.06	4.0940	4.0941	0.7887	7.92	1.92	0.750			
0.1731	11077.92	4.0910	4.0910	0.7913	7.91	1.91	0.750			
0.1755	11230.03	4.0880	4.0880	0.7931	7.91	1.91	0.750			
0.1779	11382.91	4.0850	4.0849	0.7966	7.90	1.90	0.750			
0.1802	11532.92	4.0820	4.0821	0.7962	7.89	1.89	0.750			
0.1826	11687.26	4.0790	4.0789	0.8026	7.89	1.89	0.750			
0.1850	11842.58	4.0760	4.0760	0.8069	7.88	1.88	0.750			
0.1875	11997.63	4.0730	4.0731	0.8057	7.87	1.87	0.750			
0.1899	12151.58	4.0700	4.0700	0.8155	7.87	1.87	0.750			
0.1923	12309.18	4.0670	4.0670	0.8192	7.86	1.86	0.750			
0.1948	12465.50	4.0640	4.0638	0.8254	7.85	1.85	0.750			
0.1973	12624.98	4.0610	4.0610	0.8335	7.85	1.85	0.750			
0.1998	12786.95	4.0580	4.0581	0.8347	7.84	1.84	0.750			
0.2023	12949.75	4.0550	4.0551	0.8375	7.84	1.84	0.750			
0.2048	13109.49	4.0520	4.0521	0.8338	7.83	1.83	0.750			
0.2073	13270.14	4.0490	4.0487	0.8318	7.83	1.83	0.750			
0.2098	13430.24	4.0460	4.0462	0.8312	7.82	1.82	0.750			
0.2123	13588.28	4.0430	4.0431	0.8343	7.81	1.81	0.750			
0.2148	13749.64	4.0400	4.0400	0.8427	7.81	1.81	0.750			
0.2173	13910.14	4.0370	4.0370	0.8437	7.80	1.80	0.750			
0.2199	14072.97	4.0340	4.0340	0.8577	7.79	1.79	0.750			
0.2225	14239.59	4.0310	4.0310	0.8567	7.78	1.78	0.750			
0.2251	14406.54	4.0280	4.0280	0.8692	7.78	1.78	0.750			
0.2277	14573.08	4.0250	4.0251	0.8718	7.77	1.77	0.750			
0.2303	14740.20	4.0220	4.0218	0.8731	7.76	1.76	0.750			
0.2330	14909.63	4.0190	4.0192	0.8736	7.76	1.76	0.750			
0.2356	15079.07	4.0160	4.0160	0.8683	7.75	1.75	0.750			
0.2382	15244.44	4.0130	4.0131	0.8774	7.75	1.75	0.750			
0.2409	15415.02	4.0100	4.0100	0.8794	7.74	1.74	0.750			
0.2435	15582.10	4.0070	4.0069	0.8782	7.73	1.73	0.750			
0.2461	15750.89	4.0040	4.0041	0.8811	7.73	1.73	0.750			
0.2488	15922.22	4.0010	4.0011	0.8755	7.72	1.72	0.750			
0.2514	16090.45	3.9980	3.9980	0.8759	7.71	1.71	0.750			
0.2540	16254.34	3.9950	3.9951	0.8763	7.71	1.71	0.750			
0.2566	16423.71	3.9920	3.9918	0.8816	7.70	1.70	0.750			
0.2593	16593.44	3.9890	3.9890	0.8958	7.69	1.69	0.750			
0.2620	16765.52	3.9860	3.9861	0.9084	7.69	1.69	0.750			
0.2648	16944.40	3.9830	3.9830	0.9208	7.68	1.68	0.750			
0.2676	17125.87	3.9800	3.9800	0.9230	7.67	1.67	0.750			
0.2703	17301.93	3.9770	3.9771	0.9172	7.67	1.67	0.750			
0.2731	17479.37	3.9740	3.9741	0.9058	7.66	1.66	0.750			
0.2758	17651.19	3.9710	3.9710	0.9199	7.65	1.65	0.750			
0.2785	17823.79	3.9680	3.9681	0.9247	7.64	1.64	0.750			
0.2812	17999.85	3.9650	3.9648	0.9298	7.63	1.63	0.750			
0.2841	18180.06	3.9620	3.9621	0.9445	7.62	1.62	0.750			
0.2870	18365.35	3.9590	3.9591	0.9634	7.61	1.61	0.750			
0.2899	18552.75	3.9560	3.9559	0.9691	7.60	1.60	0.750			
0.2928	18741.30	3.9530	3.9531	0.9708	7.60	1.60	0.750			
0.2958	18930.11	3.9500	3.9501	0.9689	7.59	1.59	0.750			
0.2987	19116.34	3.9470	3.9470	0.9706	7.58	1.58	0.750			
0.3016	19303.51	3.9440	3.9440	0.9714	7.57	1.57	0.750			
0.3045	19485.94	3.9410	3.9410	0.9739	7.56	1.56	0.750			
0.3074	19672.31	3.9380	3.9380	0.9820	7.55	1.55	0.750			
0.3103	19861.71	3.9350	3.9349	0.9886	7.54	1.54	0.750			
0.3133	20051.96	3.9320	3.9320	0.9986	7.53	1.53	0.750			
0.3163	20245.27	3.9290	3.9290	1.0116	7.53	1.53	0.750			
0.3194	20439.22	3.9260	3.9257	1.0213	7.52	1.52	0.750			
0.3225	20637.96	3.9230	3.9230	1.0235	7.51	1.51	0.750			
0.3255	20833.27	3.9200	3.9200	1.0352	7.50	1.50	0.750			
0.3286	21033.55	3.9170	3.9171	1.0457	7.49	1.49	0.750			
0.3318	21236.70	3.9140	3.9137	1.0549	7.48	1.48	0.750			
0.3350	21437.94	3.9110	3.9111	1.0618	7.47	1.47	0.750			
0.3381	21641.04	3.9080	3.9080	1.0780	7.46	1.46	0.750			
0.3414	21850.10	3.9050	3.9050	1.0896	7.45	1.45	0.750			
0.3447	22063.92	3.9020	3.9018	1.0971	7.44	1.44	0.750			
0.3480	22271.30	3.8990	3.8990	1.1037	7.43	1.43	0.750			
0.3513	22485.79	3.8960	3.8962	1.1177	7.42	1.42	0.750			
0.3547	22702.45	3.8930	3.8930	1.1300	7.41	1.41	0.750			
0.3581	22917.96	3.8900	3.8900	1.1352	7.40	1.40	0.750			
0.3615	23137.07	3.8870	3.8870	1.1536	7.39	1.39	0.750			
0.3650	23361.05	3.8840	3.8841	1.1689	7.37	1.37	0.750			
0.3685	23584.75	3.8810	3.8809	1.1896	7.36	1.36	0.750			
0.3721	23813.37	3.8780	3.8780	1.2056	7.35	1.35	0.750			
0.3757	24046.50	3.8750	3.8750	1.2339	7.35	1.35	0.750			
0.3795	24286.56	3.8720	3.8719	1.2566	7.34	1.34	0.750			
0.3833	24532.67	3.8690	3.8691	1.2658	7.32	1.32	0.750			
0.3872	24780.54	3.8660	3.8661	1.2736	7.31	1.31	0.750			
0.3911	25029.56	3.8630	3.8630	1.2719	7.29	1.29	0.750			
0.3948	25268.70	3.8600	3.8598	1.2801	7.28	1.28	0.750			
0.3985	25506.30	3.8570	3.8572	1.3126	7.27	1.27	0.750			
0.4024	25756.54	3.8540	3.8541	1.3535	7.25	1.25	0.750			
0.4066	26020.69	3.8510	3.8507	1.3832	7.24	1.24	0.750	0.413	0.934	
0.4108	26291.18	3.8480	3.8483	1.4187	7.23	1.23	0.750			
0.4152	26574.16	3.8450	3.8451	1.4702	7.21	1.21	0.750			
0.4197	26859.54	3.8420	3.8416	1.4983	7.20	1.20	0.750			
0.4242	27150.92	3.8390	3.8390	1.4899	7.18	1.18	0.750			
0.4287	27438.27	3.8360	3.8362	1.5160	7.16	1.16	0.750			
0.4334	27737.22	3.8330	3.8329	1.5485	7.15	1.15	0.750			
0.4380	28034.50	3.8300	3.8300	1.5680	7.13	1.13	0.750			
0.4428	28338.88	3.8270	3.8268	1.5896	7.12	1.12	0.750			
0.4475	28641.14	3.8240	3.8242	1.6270	7.10	1.10	0.750			
0.4524	28956.13	3.8210	3.8210	1.6604	7.08	1.08	0.750			
0.4575	29282.33	3.8180	3.8181	1.7027	7.07	1.07	0.750			
0.4626	29608.56	3.8150	3.8150	1.7264	7.05	1.05	0.750			
0.4679	29946.85	3.8120	3.8121	1.7678	7.03	1.03	0.750			
0.4732	30286.90	3.8090	3.8088	1.8318	7.01	1.01	0.750			
0.4788	30644.39	3.8060	3.8058	1.8712	6.98	0.98	0.750			
0.4845	31009.27	3.8030	3.8030	1.8853	6.96	0.96	0.750			
0.4903	31381.47	3.8000	3.8002	1.9246	6.94	0.94	0.750			
0.4961	31747.57	3.7970	3.7970	1.9349	6.92	0.92	0.750			
0.5019	32123.37	3.7940	3.7938	2.0044	6.90	0.90	0.750			
0.5080	32510.70	3.7910	3.7906	2.0117	6.88	0.88	0.750			
0.5141	32904.33	3.7880	3.7880	2.0642	6.85	0.85	0.750			
0.5205	33314.60	3.7850	3.7849	2.1245	6.83	0.83	0.750			
0.5270	33726.73	3.7820	3.7817	2.1334	6.80	0.80	0.750			
0.5333	34131.24	3.7790	3.7792	2.1446	6.77	0.77	0.750			
0.5399	34551.29	3.7760	3.7760	2.2175	6.75	0.75	0.750			
0.5466	34979.93	3.7730	3.7728	2.2915	6.72	0.72	0.750			
0.5534	35415.66	3.7700	3.7698	2.3235	6.70	0.70	0.750			
0.5605	35874.70	3.7670	3.7671	2.3807	6.67	0.67	0.750			
0.5680	36349.12	3.7640	3.7639	2.3745	6.64	0.64	0.750			
0.5749	36792.03	3.7610	3.7612	2.3878	6.61	0.61	0.750			
0.5821	37253.30	3.7580	3.7578	2.4806	6.58	0.58	0.750			
0.5897	37739.58	3.7550	3.7550	2.5392	6.55	0.55	0.750			
0.5975	38241.16	3.7520	3.7520	2.6333	6.52	0.52	0.750			
0.6055	38754.09	3.7490	3.7489	2.6781	6.49	0.49	0.750			
0.6135	39264.86	3.7460	3.7462	2.7863	6.46	0.46	0.750			
0.6221	39811.20	3.7430	3.7429	2.8944	6.43	0.43	0.750			
0.6309	40380.73	3.7400	3.7401	3.0683	6.39	0.39	0.750			
0.6406	40996.16	3.7370	3.7368	3.2232	6.36	0.36	0.750			
0.6505	41634.67	3.7340	3.7339	3.3143	6.33	0.33	0.750			
0.6605	42272.15	3.7310	3.7310	3.2717	6.29	0.29	0.750			
0.6704	42902.75	3.7280	3.7279	3.2475	6.25	0.25	0.750			
0.6800	43517.29	3.7250	3.7250	3.0257	6.23	0.23	0.750			
0.6889	44092.18	3.7220	3.7219	2.7912	6.20	0.20	0.750			
0.6967	44586.51	3.7190	3.7190	2.4612	6.18	0.18	0.750			
0.7035	45022.87	3.7160	3.7162	2.1783	6.16	0.16	0.750			
0.7096	45414.40	3.7130	3.7130	1.9693	6.15	0.15	0.750			
0.7152	45773.08	3.7100	3.7099	1.7670	6.14	0.14	0.750			
0.7200	46079.22	3.7070	3.7070	1.5671	6.13	0.13	0.750			
0.7244	46360.53	3.7040	3.7039	1.4397	6.11	0.11	0.750			
0.7284	46616.71	3.7010	3.7010	1.3168	6.10	0.10	0.750			
0.7320	46847.72	3.6980	3.6978	1.2218	6.09	0.09	0.750			
0.7355	47070.90	3.6950	3.6950	1.1593	6.08	0.08	0.750			
0.7389	47287.48	3.6920	3.6921	1.1193	6.08	0.08	0.750			
0.7421	47492.76	3.6890	3.6889	1.0849	6.07	0.07	0.750			
0.7453	47699.96	3.6860	3.6860	1.0675	6.07	0.07	0.750			
0.7485	47901.81	3.6830	3.6830	1.0471	6.06	0.06	0.750			
0.7516	48101.90	3.6800	3.6799	1.0330	6.05	0.05	0.750			
0.7547	48300.23	3.6770	3.6771	1.0130	6.05	0.05	0.750			
0.7577	48491.83	3.6740	3.6740	0.9942	6.04	0.04	0.750			
0.7606	48681.24	3.6710	3.6710	0.9743	6.03	0.03	0.750			
0.7635	48864.08	3.6680	3.6680	0.9510	6.03	0.03	0.750			
0.7663	49044.99	3.6650	3.6650	0.9324	6.03	0.03	0.750			
0.7691	49223.01	3.6620	3.6619	0.9178	6.02	0.02	0.750			
0.7718	49396.71	3.6590	3.6590	0.9069	6.02	0.02	0.750			
0.7745	49568.46	3.6560	3.6560	0.9031	6.02	0.02	0.750			
0.7772	49738.61	3.6530	3.6530	0.8982	6.01	0.01	0.750			
0.7799	49912.22	3.6500	3.6500	0.9000	6.01	0.01	0.750			
0.7826	50087.27	3.6470	3.6470	0.8937	6.01	0.01	0.750			
0.7853	50259.92	3.6440	3.6440	0.8875	6.00	0.00	0.750			
0.7880	50430.66	3.6410	3.6411	0.8823	6.00	0.00	0.750			
0.7906	50598.24	3.6380	3.6380	0.8751	6.00	-0.00	0.750			
0.7932	50764.77	3.6350	3.6349	0.8611	5.99	-0.01	0.750			
0.7958	50932.55	3.6320	3.6320	0.8341	5.99	-0.01	0.750			
0.7984	51095.74	3.6290	3.6291	0.8016	5.99	-0.01	0.750			
0.8008	51252.69	3.6260	3.6260	0.7275	6.00	-0.00	0.750			
0.8030	51391.02	3.6230	3.6230	0.6455	6.00	-0.00	0.750			
0.8048	51505.84	3.6200	3.6202	0.5549	6.00	-0.00	0.750			
0.8063	51601.86	3.6170	3.6169	0.4534	6.00	-0.00	0.750			
0.8073	51670.17	3.6140	3.6141	0.3755	6.00	0.00	0.750			
0.8083	51733.22	3.6110	3.6111	0.3003	6.00	0.00	0.750			
0.8090	51778.43	3.6080	3.6080	0.2242	6.00	0.00	0.750			
0.8096	51816.24	3.6050	3.6042	0.1692	6.00	0.00	0.750			
0.8100	51837.20	3.6020	3.6003	0.1085	6.00	0.00	0.750			
0.8101	51846.10	3.5900	3.5910	-0.0779	6.00	0.00	0.750			
0.8102	51851.29	3.5990	3.5448	0.0599	6.00	0.00	0.741			
0.8103	51856.65	3.5930	3.4890	-0.0320	6.00	0.00	0.727			
0.8103	51858.38	3.5960	3.4711	0.0140	6.00	0.00	0.723			
