Ah_balance (normalized)	Ah_balance (mAh)	Voltage - fit (V)	Voltage -  interpolate (V)	dQ/dV (1/V)	Temperature (°C)	Temperature - diff (°C)	Current (C)	R_DC 0ms (mOhm)	R_DC 50ms (mOhm)	R_DC 50 ms PEC (mOhm)
0.0929	5946.65	4.1970	4.1996	0.9524	8.09	2.10	0.750			
0.0958	6129.67	4.1940	4.1957	0.9232	8.08	2.09	0.750			
0.0985	6302.21	4.1910	4.1917	0.8609	8.07	2.08	0.750			
0.1009	6460.43	4.1880	4.1881	0.8018	8.07	2.08	0.750			
0.1033	6608.63	4.1850	4.1849	0.7536	8.06	2.07	0.750			
0.1053	6736.50	4.1820	4.1819	0.7007	8.06	2.07	0.750			
0.1074	6871.17	4.1790	4.1790	0.7051	8.05	2.06	0.750			
0.1095	7006.14	4.1760	4.1760	0.7072	8.05	2.06	0.750			
0.1116	7142.84	4.1730	4.1730	0.7052	8.04	2.05	0.750			
0.1137	7277.75	4.1700	4.1701	0.7108	8.04	2.05	0.750			
0.1158	7413.09	4.1670	4.1671	0.7186	8.03	2.04	0.750			
0.1180	7552.06	4.1640	4.1640	0.7210	8.03	2.04	0.750			
0.1202	7691.45	4.1610	4.1609	0.7261	8.02	2.03	0.750			
0.1224	7831.50	4.1580	4.1581	0.7302	8.02	2.03	0.750			
0.1246	7973.44	4.1550	4.1549	0.7292	8.01	2.02	0.750			
0.1268	8115.58	4.1520	4.1521	0.7314	8.01	2.02	0.750			
0.1290	8254.15	4.1490	4.1489	0.7250	8.00	2.01	0.750			
0.1311	8389.78	4.1460	4.1461	0.7280	7.99	2.00	0.750			
0.1333	8529.13	4.1430	4.1430	0.7365	7.99	2.00	0.750			
0.1355	8671.48	4.1400	4.1400	0.7420	7.98	1.99	0.750			
0.1377	8815.63	4.1370	4.1370	0.7512	7.98	1.99	0.750			
0.1400	8962.07	4.1340	4.1341	0.7583	7.98	1.99	0.750			
0.1424	9111.09	4.1310	4.1310	0.7576	7.97	1.98	0.750			
0.1446	9256.12	4.1280	4.1280	0.7578	7.97	1.98	0.750			
0.1469	9400.04	4.1250	4.1251	0.7527	7.96	1.97	0.750			
0.1491	9542.95	4.1220	4.1219	0.7573	7.96	1.97	0.750			
0.1514	9690.11	4.1190	4.1190	0.7577	7.96	1.97	0.750			
0.1537	9837.00	4.1160	4.1159	0.7517	7.95	1.96	0.750			
0.1559	9979.71	4.1130	4.1131	0.7568	7.95	1.96	0.750			
0.1582	10125.45	4.1100	4.1102	0.7684	7.94	1.95	0.750			
0.1605	10271.37	4.1070	4.1069	0.7719	7.93	1.94	0.750			
0.1628	10418.92	4.1040	4.1038	0.7838	7.93	1.94	0.750			
0.1652	10571.82	4.1010	4.1011	0.7898	7.93	1.94	0.750			
0.1676	10729.47	4.0980	4.0980	0.7960	7.92	1.93	0.750			
0.1700	10883.03	4.0950	4.0951	0.7894	7.92	1.93	0.750			
0.1724	11030.58	4.0920	4.0922	0.7845	7.91	1.92	0.750			
0.1747	11181.76	4.0890	4.0887	0.7822	7.91	1.92	0.750			
0.1770	11329.45	4.0860	4.0860	0.7847	7.90	1.91	0.750			
0.1794	11480.00	4.0830	4.0830	0.7834	7.90	1.91	0.750			
0.1818	11633.28	4.0800	4.0800	0.8038	7.89	1.90	0.750			
0.1842	11789.28	4.0770	4.0770	0.8068	7.89	1.90	0.750			
0.1866	11944.27	4.0740	4.0738	0.8094	7.88	1.89	0.750			
0.1891	12099.41	4.0710	4.0712	0.8134	7.88	1.89	0.750			
0.1915	12257.53	4.0680	4.0680	0.8189	7.87	1.88	0.750			
0.1940	12413.91	4.0650	4.0649	0.8174	7.87	1.88	0.750			
0.1964	12571.96	4.0620	4.0620	0.8200	7.87	1.88	0.750			
0.1989	12728.56	4.0590	4.0590	0.8187	7.86	1.87	0.750			
0.2013	12885.99	4.0560	4.0560	0.8246	7.86	1.87	0.750			
0.2038	13044.32	4.0530	4.0531	0.8263	7.85	1.86	0.750			
0.2063	13203.03	4.0500	4.0499	0.8296	7.84	1.85	0.750			
0.2088	13364.09	4.0470	4.0470	0.8268	7.84	1.85	0.750			
0.2113	13523.06	4.0440	4.0440	0.8264	7.83	1.84	0.750			
0.2138	13680.76	4.0410	4.0411	0.8315	7.83	1.84	0.750			
0.2163	13840.56	4.0380	4.0379	0.8360	7.82	1.83	0.750			
0.2187	13999.97	4.0350	4.0349	0.8428	7.81	1.82	0.750			
0.2213	14161.15	4.0320	4.0321	0.8530	7.81	1.82	0.750			
0.2239	14328.73	4.0290	4.0289	0.8603	7.80	1.81	0.750			
0.2265	14494.84	4.0260	4.0260	0.8694	7.80	1.81	0.750			
0.2291	14662.00	4.0230	4.0230	0.8737	7.79	1.80	0.750			
0.2317	14830.88	4.0200	4.0200	0.8735	7.78	1.79	0.750			
0.2344	15000.12	4.0170	4.0169	0.8761	7.78	1.79	0.750			
0.2370	15168.37	4.0140	4.0140	0.8755	7.77	1.78	0.750			
0.2396	15336.72	4.0110	4.0110	0.8756	7.76	1.77	0.750			
0.2423	15504.72	4.0080	4.0080	0.8748	7.75	1.76	0.750			
0.2448	15670.03	4.0050	4.0050	0.8730	7.75	1.76	0.750			
0.2475	15838.47	4.0020	4.0020	0.8735	7.74	1.75	0.750			
0.2501	16006.91	3.9990	3.9989	0.8861	7.73	1.74	0.750			
0.2528	16178.10	3.9960	3.9961	0.8842	7.72	1.73	0.750			
0.2555	16350.23	3.9930	3.9929	0.8838	7.72	1.73	0.750			
0.2581	16519.77	3.9900	3.9901	0.8867	7.71	1.72	0.750			
0.2607	16686.57	3.9870	3.9871	0.8900	7.70	1.71	0.750			
0.2634	16857.79	3.9840	3.9839	0.9024	7.70	1.71	0.750			
0.2661	17031.91	3.9810	3.9809	0.9067	7.69	1.70	0.750			
0.2688	17204.98	3.9780	3.9780	0.9136	7.68	1.69	0.750			
0.2717	17387.83	3.9750	3.9751	0.9306	7.68	1.69	0.750			
0.2745	17567.54	3.9720	3.9719	0.9265	7.67	1.68	0.750			
0.2773	17745.67	3.9690	3.9690	0.9189	7.66	1.67	0.750			
0.2800	17920.66	3.9660	3.9662	0.9182	7.65	1.66	0.750			
0.2827	18095.51	3.9630	3.9630	0.9177	7.64	1.65	0.750			
0.2855	18270.70	3.9600	3.9600	0.9213	7.64	1.65	0.750			
0.2882	18446.78	3.9570	3.9570	0.9304	7.63	1.64	0.750			
0.2910	18625.00	3.9540	3.9540	0.9383	7.62	1.63	0.750			
0.2939	18807.16	3.9510	3.9512	0.9574	7.61	1.62	0.750			
0.2968	18992.39	3.9480	3.9480	0.9701	7.61	1.62	0.750			
0.2997	19179.55	3.9450	3.9448	0.9805	7.60	1.61	0.750			
0.3026	19369.52	3.9420	3.9421	0.9938	7.59	1.60	0.750			
0.3056	19560.55	3.9390	3.9391	0.9912	7.58	1.59	0.750			
0.3086	19752.22	3.9360	3.9361	1.0031	7.57	1.58	0.750			
0.3116	19945.35	3.9330	3.9328	1.0022	7.56	1.57	0.750			
0.3146	20137.39	3.9300	3.9300	1.0040	7.55	1.56	0.750			
0.3177	20331.25	3.9270	3.9271	1.0107	7.54	1.55	0.750			
0.3207	20525.87	3.9240	3.9240	1.0146	7.53	1.54	0.750			
0.3238	20722.20	3.9210	3.9209	1.0365	7.52	1.53	0.750			
0.3269	20918.83	3.9180	3.9179	1.0342	7.51	1.52	0.750			
0.3299	21115.09	3.9150	3.9150	1.0496	7.50	1.51	0.750			
0.3331	21320.85	3.9120	3.9120	1.0707	7.49	1.50	0.750			
0.3364	21530.25	3.9090	3.9090	1.0826	7.48	1.49	0.750			
0.3397	21742.72	3.9060	3.9060	1.0787	7.47	1.48	0.750			
0.3429	21945.72	3.9030	3.9032	1.0924	7.47	1.48	0.750			
0.3461	22153.27	3.9000	3.9001	1.1056	7.46	1.47	0.750			
0.3495	22369.11	3.8970	3.8966	1.1107	7.45	1.46	0.750			
0.3528	22580.04	3.8940	3.8941	1.1144	7.44	1.45	0.750			
0.3561	22793.47	3.8910	3.8912	1.1382	7.42	1.43	0.750			
0.3596	23017.17	3.8880	3.8881	1.1667	7.41	1.42	0.750			
0.3631	23241.59	3.8850	3.8850	1.1746	7.40	1.41	0.750			
0.3667	23467.15	3.8820	3.8820	1.1897	7.39	1.40	0.750			
0.3703	23700.54	3.8790	3.8792	1.2081	7.38	1.39	0.750			
0.3740	23938.68	3.8760	3.8759	1.2195	7.37	1.38	0.750			
0.3777	24173.04	3.8730	3.8730	1.2396	7.36	1.37	0.750			
0.3814	24409.68	3.8700	3.8700	1.2495	7.34	1.35	0.750			
0.3852	24650.47	3.8670	3.8669	1.2708	7.33	1.34	0.750			
0.3890	24895.20	3.8640	3.8641	1.2898	7.31	1.32	0.750			
0.3929	25146.38	3.8610	3.8610	1.3182	7.30	1.31	0.750			
0.3970	25405.49	3.8580	3.8581	1.3332	7.29	1.30	0.750			
0.4010	25661.96	3.8550	3.8547	1.3614	7.28	1.29	0.750	0.382	0.931	
0.4050	25922.06	3.8520	3.8521	1.3749	7.26	1.27	0.750			
0.4093	26192.62	3.8490	3.8490	1.3934	7.24	1.25	0.750			
0.4134	26458.58	3.8460	3.8461	1.4182	7.23	1.24	0.750			
0.4178	26736.05	3.8430	3.8431	1.4420	7.21	1.22	0.750			
0.4221	27014.28	3.8400	3.8400	1.4631	7.19	1.20	0.750			
0.4265	27297.44	3.8370	3.8369	1.4965	7.17	1.18	0.750			
0.4310	27584.89	3.8340	3.8343	1.5282	7.16	1.17	0.750			
0.4357	27885.31	3.8310	3.8309	1.5696	7.14	1.15	0.750			
0.4405	28192.22	3.8280	3.8280	1.6030	7.12	1.13	0.750			
0.4453	28501.93	3.8250	3.8250	1.6180	7.10	1.11	0.750			
0.4503	28819.16	3.8220	3.8221	1.6584	7.08	1.09	0.750			
0.4553	29141.50	3.8190	3.8191	1.6942	7.06	1.07	0.750			
0.4604	29468.72	3.8160	3.8158	1.7096	7.04	1.05	0.750			
0.4656	29798.60	3.8130	3.8132	1.7387	7.01	1.02	0.750			
0.4709	30137.76	3.8100	3.8100	1.7771	6.99	1.00	0.750			
0.4762	30477.89	3.8070	3.8071	1.8162	6.96	0.97	0.750			
0.4817	30830.24	3.8040	3.8042	1.8746	6.94	0.95	0.750			
0.4875	31198.07	3.8010	3.8010	1.9260	6.92	0.93	0.750			
0.4933	31571.46	3.7980	3.7980	1.9574	6.90	0.91	0.750			
0.4993	31955.32	3.7950	3.7951	1.9990	6.87	0.88	0.750			
0.5055	32349.91	3.7920	3.7918	2.0206	6.85	0.86	0.750			
0.5115	32733.72	3.7890	3.7890	2.0398	6.82	0.83	0.750			
0.5176	33125.69	3.7860	3.7861	2.0582	6.79	0.80	0.750			
0.5240	33537.49	3.7830	3.7828	2.1226	6.76	0.77	0.750			
0.5303	33936.47	3.7800	3.7801	2.1304	6.74	0.75	0.750			
0.5368	34353.72	3.7770	3.7769	2.1868	6.71	0.72	0.750			
0.5434	34779.60	3.7740	3.7737	2.2288	6.69	0.70	0.750			
0.5501	35203.93	3.7710	3.7712	2.2701	6.66	0.67	0.750			
0.5571	35651.60	3.7680	3.7679	2.2977	6.63	0.64	0.750			
0.5641	36102.09	3.7650	3.7648	2.3270	6.59	0.60	0.750			
0.5709	36538.90	3.7620	3.7621	2.3645	6.57	0.58	0.750			
0.5781	36997.76	3.7590	3.7590	2.4193	6.54	0.55	0.750			
0.5854	37466.60	3.7560	3.7561	2.5328	6.51	0.52	0.750			
0.5933	37968.96	3.7530	3.7529	2.6082	6.48	0.49	0.750			
0.6011	38472.45	3.7500	3.7502	2.6828	6.44	0.45	0.750			
0.6093	38997.57	3.7470	3.7470	2.7808	6.41	0.42	0.750			
0.6178	39536.95	3.7440	3.7440	2.8757	6.38	0.39	0.750			
0.6266	40101.74	3.7410	3.7410	3.0737	6.34	0.35	0.750			
0.6363	40725.20	3.7380	3.7379	3.1566	6.31	0.32	0.750			
0.6460	41343.12	3.7350	3.7352	3.1568	6.28	0.29	0.750			
0.6552	41933.54	3.7320	3.7318	3.1351	6.24	0.25	0.750			
0.6646	42533.58	3.7290	3.7288	3.0524	6.21	0.22	0.750			
0.6740	43137.90	3.7260	3.7261	3.0183	6.19	0.20	0.750			
0.6827	43689.61	3.7230	3.7229	2.7810	6.17	0.18	0.750			
0.6906	44195.67	3.7200	3.7202	2.4388	6.15	0.16	0.750			
0.6977	44652.39	3.7170	3.7170	2.2078	6.13	0.14	0.750			
0.7036	45031.98	3.7140	3.7142	1.9477	6.11	0.12	0.750			
0.7091	45382.85	3.7110	3.7109	1.7304	6.11	0.12	0.750			
0.7136	45671.61	3.7080	3.7078	1.5259	6.10	0.11	0.750			
0.7178	45940.61	3.7050	3.7052	1.3947	6.09	0.10	0.750			
0.7217	46187.21	3.7020	3.7022	1.2955	6.08	0.09	0.750			
0.7253	46421.62	3.6990	3.6987	1.2181	6.07	0.08	0.750			
0.7288	46640.76	3.6960	3.6960	1.1643	6.06	0.07	0.750			
0.7321	46856.86	3.6930	3.6931	1.1285	6.06	0.07	0.750			
0.7355	47073.55	3.6900	3.6899	1.1036	6.05	0.06	0.750			
0.7388	47286.08	3.6870	3.6870	1.0708	6.05	0.06	0.750			
0.7420	47487.75	3.6840	3.6841	1.0432	6.04	0.05	0.750			
0.7450	47682.55	3.6810	3.6811	1.0290	6.04	0.05	0.750			
0.7481	47875.21	3.6780	3.6780	1.0096	6.03	0.04	0.750			
0.7511	48068.01	3.6750	3.6750	0.9916	6.03	0.04	0.750			
0.7540	48257.87	3.6720	3.6720	0.9828	6.02	0.03	0.750			
0.7570	48448.79	3.6690	3.6691	0.9650	6.02	0.03	0.750			
0.7599	48635.88	3.6660	3.6659	0.9470	6.01	0.02	0.750			
0.7627	48813.02	3.6630	3.6631	0.9193	6.01	0.02	0.750			
0.7654	48984.37	3.6600	3.6601	0.8962	6.01	0.02	0.750			
0.7680	49150.27	3.6570	3.6569	0.8867	6.00	0.01	0.750			
0.7706	49319.25	3.6540	3.6540	0.8870	6.00	0.01	0.750			
0.7732	49486.20	3.6510	3.6510	0.8857	5.99	0.00	0.750			
0.7759	49658.90	3.6480	3.6479	0.8919	5.99	-0.00	0.750			
0.7787	49834.44	3.6450	3.6450	0.8902	5.99	-0.00	0.750			
0.7813	50003.08	3.6420	3.6421	0.9021	5.98	-0.01	0.750			
0.7840	50176.61	3.6390	3.6391	0.9019	5.98	-0.01	0.750			
0.7868	50353.17	3.6360	3.6357	0.8843	5.98	-0.01	0.750			
0.7894	50524.68	3.6330	3.6331	0.8648	5.98	-0.01	0.750			
0.7921	50694.28	3.6300	3.6302	0.8151	5.98	-0.01	0.750			
0.7947	50857.77	3.6270	3.6269	0.7563	5.99	-0.00	0.750			
0.7968	50996.31	3.6240	3.6239	0.6544	5.99	-0.00	0.750			
0.7986	51111.13	3.6210	3.6212	0.5542	5.99	-0.00	0.750			
0.8001	51208.83	3.6180	3.6180	0.4551	5.99	0.00	0.750			
0.8012	51277.92	3.6150	3.6152	0.3872	5.99	0.00	0.750			
0.8022	51337.96	3.6120	3.6120	0.2923	5.99	0.00	0.750			
0.8029	51384.91	3.6090	3.6089	0.2257	5.99	0.00	0.750			
0.8034	51419.03	3.6060	3.6053	0.1646	5.99	0.00	0.750			
0.8038	51442.26	3.6030	3.6005	0.1100	5.99	0.00	0.750			
0.8039	51451.82	3.5910	3.5743	-0.0779	5.99	0.00	0.750			
0.8040	51456.61	3.6000	3.5313	0.0613	5.99	0.00	0.752			
0.8041	51462.33	3.5940	3.4799	-0.0315	5.99	0.00	0.754			
0.8041	51463.92	3.5970	3.4656	0.0149	5.99	0.00	0.754			
