Ah_balance (normalized)	Ah_balance (mAh)	Voltage - fit (V)	Voltage -  interpolate (V)	dQ/dV (1/V)	Temperature (°C)	Temperature - diff (°C)	Current (C)	R_DC 0ms (mOhm)	R_DC 50ms (mOhm)	R_DC 50 ms PEC (mOhm)
0.0002	11.09	4.1060	4.1047	-0.0229	6.00	0.00	-0.750			
0.0003	21.69	4.1030	4.1021	-0.0632	6.00	0.00	-0.750			
0.0006	36.63	4.1000	4.0993	-0.0924	6.00	0.00	-0.750			
0.0009	57.81	4.0970	4.0968	-0.1198	6.00	0.00	-0.750			
0.0013	83.84	4.0940	4.0942	-0.1457	6.00	-0.00	-0.750			
0.0018	114.37	4.0910	4.0910	-0.1720	6.00	-0.00	-0.750			
0.0023	149.97	4.0880	4.0881	-0.1969	6.00	-0.00	-0.750			
0.0030	192.00	4.0850	4.0850	-0.2205	6.00	-0.00	-0.750			
0.0037	236.74	4.0820	4.0819	-0.2407	6.00	-0.00	-0.750			
0.0045	284.84	4.0790	4.0791	-0.2641	6.00	-0.00	-0.750			
0.0053	337.81	4.0760	4.0760	-0.2828	6.00	-0.00	-0.750			
0.0062	393.92	4.0730	4.0730	-0.3045	6.00	-0.00	-0.750			
0.0071	454.34	4.0700	4.0700	-0.3240	6.00	-0.00	-0.750			
0.0081	518.20	4.0670	4.0669	-0.3442	5.99	-0.01	-0.750			
0.0092	585.80	4.0640	4.0641	-0.3680	5.99	-0.01	-0.750			
0.0103	659.03	4.0610	4.0610	-0.3889	5.99	-0.01	-0.750			
0.0115	735.86	4.0580	4.0579	-0.4082	5.99	-0.01	-0.750			
0.0128	817.29	4.0550	4.0548	-0.4299	5.99	-0.01	-0.750			
0.0141	900.69	4.0520	4.0523	-0.4513	5.99	-0.01	-0.750			
0.0155	989.46	4.0490	4.0489	-0.4741	5.99	-0.01	-0.750			
0.0169	1081.97	4.0460	4.0460	-0.4957	6.00	-0.00	-0.750			
0.0184	1176.85	4.0430	4.0429	-0.5182	6.00	-0.00	-0.750			
0.0200	1281.27	4.0400	4.0400	-0.5425	6.00	0.00	-0.750			
0.0217	1390.73	4.0370	4.0370	-0.5596	6.00	0.00	-0.750			
0.0234	1499.72	4.0340	4.0341	-0.5723	6.01	0.01	-0.750			
0.0252	1611.14	4.0310	4.0309	-0.5830	6.01	0.01	-0.750			
0.0269	1724.58	4.0280	4.0280	-0.5936	6.01	0.01	-0.750			
0.0287	1838.67	4.0250	4.0249	-0.5993	6.01	0.01	-0.750			
0.0305	1953.09	4.0220	4.0220	-0.6090	6.02	0.02	-0.750			
0.0324	2071.03	4.0190	4.0191	-0.6245	6.02	0.02	-0.750			
0.0343	2192.57	4.0160	4.0160	-0.6432	6.02	0.02	-0.750			
0.0362	2316.69	4.0130	4.0129	-0.6583	6.03	0.03	-0.750			
0.0382	2445.19	4.0100	4.0101	-0.6775	6.03	0.03	-0.750			
0.0403	2580.57	4.0070	4.0069	-0.6843	6.04	0.04	-0.750			
0.0424	2713.99	4.0040	4.0040	-0.6891	6.04	0.04	-0.750			
0.0445	2845.42	4.0010	4.0011	-0.6964	6.05	0.05	-0.750			
0.0466	2980.27	3.9980	3.9979	-0.6943	6.06	0.06	-0.750			
0.0486	3112.79	3.9950	3.9948	-0.6926	6.06	0.06	-0.750			
0.0507	3245.82	3.9920	3.9921	-0.6925	6.07	0.07	-0.750			
0.0528	3377.25	3.9890	3.9892	-0.7016	6.07	0.07	-0.750			
0.0549	3514.74	3.9860	3.9858	-0.7096	6.08	0.08	-0.750			
0.0570	3649.34	3.9830	3.9830	-0.7110	6.09	0.09	-0.750			
0.0592	3786.43	3.9800	3.9800	-0.7136	6.10	0.10	-0.750			
0.0614	3928.75	3.9770	3.9771	-0.7208	6.10	0.10	-0.750			
0.0635	4066.50	3.9740	3.9740	-0.7178	6.11	0.11	-0.750			
0.0657	4202.94	3.9710	3.9710	-0.7201	6.12	0.12	-0.750			
0.0678	4339.38	3.9680	3.9680	-0.7187	6.12	0.12	-0.750			
0.0700	4477.34	3.9650	3.9649	-0.7310	6.13	0.13	-0.750			
0.0722	4620.32	3.9620	3.9620	-0.7291	6.14	0.14	-0.750			
0.0744	4762.24	3.9590	3.9589	-0.7363	6.14	0.14	-0.750			
0.0766	4903.22	3.9560	3.9562	-0.7446	6.15	0.15	-0.750			
0.0789	5046.71	3.9530	3.9530	-0.7458	6.16	0.16	-0.750			
0.0811	5190.12	3.9500	3.9498	-0.7459	6.17	0.17	-0.750			
0.0833	5331.88	3.9470	3.9472	-0.7520	6.17	0.17	-0.750			
0.0856	5476.99	3.9440	3.9440	-0.7611	6.18	0.18	-0.750			
0.0879	5625.75	3.9410	3.9409	-0.7575	6.19	0.19	-0.750			
0.0902	5769.75	3.9380	3.9380	-0.7585	6.20	0.20	-0.750			
0.0924	5914.34	3.9350	3.9352	-0.7636	6.20	0.20	-0.750			
0.0947	6063.86	3.9320	3.9318	-0.7700	6.21	0.21	-0.750			
0.0971	6212.91	3.9290	3.9289	-0.7629	6.22	0.22	-0.750			
0.0993	6357.98	3.9260	3.9260	-0.7611	6.23	0.23	-0.750			
0.1016	6504.33	3.9230	3.9233	-0.7654	6.24	0.24	-0.750			
0.1040	6653.36	3.9200	3.9198	-0.7645	6.25	0.25	-0.750			
0.1062	6795.86	3.9170	3.9170	-0.7646	6.26	0.26	-0.750			
0.1085	6943.19	3.9140	3.9141	-0.7727	6.27	0.27	-0.750			
0.1108	7093.64	3.9110	3.9109	-0.7722	6.28	0.28	-0.750			
0.1132	7242.45	3.9080	3.9080	-0.7782	6.29	0.29	-0.750			
0.1155	7391.17	3.9050	3.9051	-0.7786	6.30	0.30	-0.750			
0.1178	7540.10	3.9020	3.9017	-0.7868	6.31	0.31	-0.750			
0.1202	7692.86	3.8990	3.8990	-0.7893	6.32	0.32	-0.750			
0.1226	7843.95	3.8960	3.8961	-0.7868	6.33	0.33	-0.750			
0.1250	7998.41	3.8930	3.8929	-0.7861	6.33	0.33	-0.750			
0.1273	8150.32	3.8900	3.8900	-0.7845	6.34	0.34	-0.750			
0.1296	8294.23	3.8870	3.8871	-0.7847	6.35	0.35	-0.750			
0.1320	8445.18	3.8840	3.8839	-0.7908	6.36	0.36	-0.750			
0.1343	8596.74	3.8810	3.8809	-0.7917	6.37	0.37	-0.750			
0.1367	8751.35	3.8780	3.8780	-0.8017	6.38	0.38	-0.750			
0.1392	8907.95	3.8750	3.8751	-0.8059	6.39	0.39	-0.750			
0.1416	9063.63	3.8720	3.8719	-0.8064	6.40	0.40	-0.750			
0.1440	9217.04	3.8690	3.8690	-0.8087	6.41	0.41	-0.750			
0.1465	9374.05	3.8660	3.8658	-0.8006	6.41	0.41	-0.750			
0.1489	9529.33	3.8630	3.8629	-0.7998	6.42	0.42	-0.750			
0.1513	9681.82	3.8600	3.8604	-0.7964	6.43	0.43	-0.750			
0.1537	9833.73	3.8570	3.8571	-0.7931	6.44	0.44	-0.750			
0.1560	9984.14	3.8540	3.8538	-0.8000	6.46	0.46	-0.750			
0.1583	10134.10	3.8510	3.8510	-0.8006	6.47	0.47	-0.750			
0.1608	10290.38	3.8480	3.8479	-0.8092	6.48	0.48	-0.750			
0.1632	10447.05	3.8450	3.8451	-0.8174	6.50	0.50	-0.750			
0.1657	10606.88	3.8420	3.8420	-0.8201	6.51	0.51	-0.750			
0.1682	10764.03	3.8390	3.8390	-0.8255	6.51	0.51	-0.750			
0.1707	10922.75	3.8360	3.8360	-0.8241	6.52	0.52	-0.750			
0.1731	11081.21	3.8330	3.8330	-0.8208	6.53	0.53	-0.750			
0.1756	11239.53	3.8300	3.8301	-0.8294	6.54	0.54	-0.750			
0.1781	11399.04	3.8270	3.8270	-0.8303	6.55	0.55	-0.750			
0.1806	11558.56	3.8240	3.8240	-0.8278	6.56	0.56	-0.750			
0.1831	11718.99	3.8210	3.8209	-0.8233	6.57	0.57	-0.750			
0.1856	11875.73	3.8180	3.8181	-0.8203	6.58	0.58	-0.750			
0.1881	12035.60	3.8150	3.8151	-0.8218	6.59	0.59	-0.750			
0.1905	12191.11	3.8120	3.8119	-0.8224	6.60	0.60	-0.750			
0.1929	12345.33	3.8090	3.8090	-0.8246	6.61	0.61	-0.750			
0.1954	12505.37	3.8060	3.8059	-0.8382	6.62	0.62	-0.750			
0.1980	12668.81	3.8030	3.8029	-0.8416	6.63	0.63	-0.750			
0.2005	12834.05	3.8000	3.8000	-0.8484	6.64	0.64	-0.750			
0.2031	12996.17	3.7970	3.7970	-0.8445	6.65	0.65	-0.750			
0.2056	13159.65	3.7940	3.7940	-0.8494	6.66	0.66	-0.750			
0.2081	13320.71	3.7910	3.7910	-0.8471	6.67	0.67	-0.750			
0.2107	13482.37	3.7880	3.7879	-0.8404	6.68	0.68	-0.750			
0.2132	13645.20	3.7850	3.7851	-0.8454	6.69	0.69	-0.750			
0.2158	13808.78	3.7820	3.7820	-0.8477	6.70	0.70	-0.750			
0.2183	13973.54	3.7790	3.7789	-0.8428	6.71	0.71	-0.750			
0.2208	14133.91	3.7760	3.7759	-0.8374	6.72	0.72	-0.750			
0.2233	14292.64	3.7730	3.7731	-0.8303	6.73	0.73	-0.750			
0.2258	14453.27	3.7700	3.7701	-0.8273	6.74	0.74	-0.750			
0.2283	14611.87	3.7670	3.7668	-0.8272	6.75	0.75	-0.750			
0.2307	14767.13	3.7640	3.7640	-0.8303	6.75	0.75	-0.750			
0.2332	14926.52	3.7610	3.7610	-0.8394	6.76	0.76	-0.750			
0.2358	15088.47	3.7580	3.7580	-0.8519	6.77	0.77	-0.750			
0.2383	15252.64	3.7550	3.7551	-0.8629	6.78	0.78	-0.750			
0.2410	15420.99	3.7520	3.7520	-0.8727	6.79	0.79	-0.750			
0.2436	15592.24	3.7490	3.7489	-0.8762	6.79	0.79	-0.750			
0.2463	15761.22	3.7460	3.7461	-0.8704	6.80	0.80	-0.750			
0.2489	15927.19	3.7430	3.7430	-0.8648	6.80	0.80	-0.750			
0.2515	16094.50	3.7400	3.7402	-0.8665	6.81	0.81	-0.750			
0.2540	16258.48	3.7370	3.7370	-0.8684	6.82	0.82	-0.750			
0.2566	16423.00	3.7340	3.7339	-0.8680	6.83	0.83	-0.750			
0.2592	16590.05	3.7310	3.7310	-0.8774	6.84	0.84	-0.750			
0.2619	16762.05	3.7280	3.7279	-0.8824	6.85	0.85	-0.750			
0.2646	16932.17	3.7250	3.7251	-0.8821	6.86	0.86	-0.750			
0.2672	17102.79	3.7220	3.7220	-0.8816	6.87	0.87	-0.750			
0.2698	17270.31	3.7190	3.7191	-0.8872	6.87	0.87	-0.750			
0.2725	17437.70	3.7160	3.7159	-0.8906	6.88	0.88	-0.750			
0.2752	17610.96	3.7130	3.7129	-0.8998	6.89	0.89	-0.750			
0.2779	17783.43	3.7100	3.7100	-0.9051	6.89	0.89	-0.750			
0.2806	17960.26	3.7070	3.7071	-0.9154	6.90	0.90	-0.750			
0.2834	18139.75	3.7040	3.7040	-0.9180	6.91	0.91	-0.750			
0.2862	18315.52	3.7010	3.7009	-0.9167	6.91	0.91	-0.750			
0.2889	18491.33	3.6980	3.6981	-0.9100	6.92	0.92	-0.750			
0.2916	18663.51	3.6950	3.6950	-0.9119	6.93	0.93	-0.750			
0.2943	18837.69	3.6920	3.6920	-0.9214	6.94	0.94	-0.750			
0.2971	19014.18	3.6890	3.6890	-0.9260	6.95	0.95	-0.750			
0.2999	19193.69	3.6860	3.6858	-0.9340	6.96	0.96	-0.750			
0.3027	19374.50	3.6830	3.6831	-0.9407	6.96	0.96	-0.750			
0.3056	19556.36	3.6800	3.6801	-0.9511	6.97	0.97	-0.750			
0.3084	19740.42	3.6770	3.6769	-0.9605	6.97	0.97	-0.750			
0.3113	19922.75	3.6740	3.6740	-0.9648	6.98	0.98	-0.750			
0.3142	20109.67	3.6710	3.6711	-0.9784	6.98	0.98	-0.750			
0.3172	20300.28	3.6680	3.6680	-0.9917	6.99	0.99	-0.750			
0.3202	20492.45	3.6650	3.6650	-0.9978	7.00	1.00	-0.750			
0.3232	20686.00	3.6620	3.6620	-1.0004	7.00	1.00	-0.750			
0.3262	20877.32	3.6590	3.6591	-1.0100	7.01	1.01	-0.750			
0.3292	21070.65	3.6560	3.6560	-1.0157	7.01	1.01	-0.750			
0.3323	21264.10	3.6530	3.6530	-1.0247	7.02	1.02	-0.750			
0.3354	21463.63	3.6500	3.6498	-1.0302	7.02	1.02	-0.750			
0.3385	21662.56	3.6470	3.6471	-1.0443	7.03	1.03	-0.750			
0.3416	21865.14	3.6440	3.6441	-1.0479	7.03	1.03	-0.750			
0.3448	22070.03	3.6410	3.6410	-1.0496	7.04	1.04	-0.750			
0.3479	22268.57	3.6380	3.6378	-1.0471	7.04	1.04	-0.750			
0.3510	22462.23	3.6350	3.6352	-1.0602	7.05	1.05	-0.750			
0.3542	22667.53	3.6320	3.6320	-1.0727	7.05	1.05	-0.750			
0.3575	22877.60	3.6290	3.6288	-1.0929	7.06	1.06	-0.750			
0.3607	23087.43	3.6260	3.6259	-1.1054	7.07	1.07	-0.750			
0.3641	23302.35	3.6230	3.6234	-1.1298	7.07	1.07	-0.750			
0.3675	23523.14	3.6200	3.6199	-1.1383	7.08	1.08	-0.750			
0.3710	23742.12	3.6170	3.6170	-1.1420	7.09	1.09	-0.750			
0.3744	23961.52	3.6140	3.6140	-1.1488	7.10	1.10	-0.750			
0.3779	24187.03	3.6110	3.6110	-1.1605	7.10	1.10	-0.750			
0.3814	24409.71	3.6080	3.6079	-1.1542	7.10	1.10	-0.750			
0.3849	24631.45	3.6050	3.6050	-1.1535	7.11	1.11	-0.750			
0.3883	24849.79	3.6020	3.6022	-1.1553	7.11	1.11	-0.750			
0.3918	25073.48	3.5990	3.5988	-1.1752	7.11	1.11	-0.750			
0.3953	25296.49	3.5960	3.5963	-1.1877	7.12	1.12	-0.750	0.412	0.924	
0.3988	25525.93	3.5930	3.5929	-1.2022	7.13	1.13	-0.750			
0.4025	25758.57	3.5900	3.5901	-1.2240	7.13	1.13	-0.750			
0.4062	25999.26	3.5870	3.5870	-1.2377	7.13	1.13	-0.750			
0.4100	26238.94	3.5840	3.5839	-1.2505	7.14	1.14	-0.750			
0.4137	26477.59	3.5810	3.5811	-1.2584	7.14	1.14	-0.750			
0.4176	26725.76	3.5780	3.5779	-1.2727	7.15	1.15	-0.750			
0.4214	26967.42	3.5750	3.5750	-1.2836	7.15	1.15	-0.750			
0.4253	27216.08	3.5720	3.5722	-1.3080	7.16	1.16	-0.750			
0.4292	27469.73	3.5690	3.5688	-1.3141	7.16	1.16	-0.750			
0.4332	27725.97	3.5660	3.5659	-1.3215	7.17	1.17	-0.750			
0.4372	27978.10	3.5630	3.5632	-1.3262	7.17	1.17	-0.750			
0.4412	28233.92	3.5600	3.5600	-1.3202	7.17	1.17	-0.750			
0.4452	28490.23	3.5570	3.5569	-1.3314	7.18	1.18	-0.750			
0.4491	28740.97	3.5540	3.5540	-1.3345	7.18	1.18	-0.750			
0.4530	28993.69	3.5510	3.5509	-1.3412	7.18	1.18	-0.750			
0.4572	29259.80	3.5480	3.5479	-1.3592	7.19	1.19	-0.750			
0.4612	29518.42	3.5450	3.5450	-1.3748	7.20	1.20	-0.750			
0.4653	29780.96	3.5420	3.5421	-1.3917	7.20	1.20	-0.750			
0.4696	30052.60	3.5390	3.5390	-1.4177	7.20	1.20	-0.750			
0.4738	30323.90	3.5360	3.5359	-1.4195	7.21	1.21	-0.750			
0.4782	30601.69	3.5330	3.5328	-1.4194	7.21	1.21	-0.750			
0.4825	30878.65	3.5300	3.5302	-1.4146	7.22	1.22	-0.750			
0.4867	31151.74	3.5270	3.5269	-1.4402	7.23	1.23	-0.750			
0.4910	31424.56	3.5240	3.5239	-1.4275	7.23	1.23	-0.750			
0.4953	31700.20	3.5210	3.5207	-1.4335	7.24	1.24	-0.750			
0.4996	31973.12	3.5180	3.5183	-1.4407	7.25	1.25	-0.750			
0.5040	32253.62	3.5150	3.5149	-1.4443	7.25	1.25	-0.750			
0.5083	32534.18	3.5120	3.5119	-1.4585	7.26	1.26	-0.750			
0.5127	32814.73	3.5090	3.5090	-1.4472	7.26	1.26	-0.750			
0.5170	33089.96	3.5060	3.5060	-1.4348	7.27	1.27	-0.750			
0.5214	33369.83	3.5030	3.5033	-1.4384	7.28	1.28	-0.750			
0.5257	33643.38	3.5000	3.4999	-1.4290	7.29	1.29	-0.750			
0.5299	33914.43	3.4970	3.4970	-1.4143	7.29	1.29	-0.750			
0.5341	34183.61	3.4940	3.4939	-1.4159	7.30	1.30	-0.750			
0.5383	34452.40	3.4910	3.4912	-1.4237	7.30	1.30	-0.750			
0.5427	34734.37	3.4880	3.4879	-1.4286	7.31	1.31	-0.750			
0.5470	35009.39	3.4850	3.4850	-1.4277	7.32	1.32	-0.750			
0.5513	35282.03	3.4820	3.4823	-1.4259	7.33	1.33	-0.750			
0.5556	35557.06	3.4790	3.4789	-1.4047	7.34	1.34	-0.750			
0.5598	35829.46	3.4760	3.4759	-1.3933	7.35	1.35	-0.750			
0.5639	36091.77	3.4730	3.4732	-1.3800	7.36	1.36	-0.750			
0.5680	36351.09	3.4700	3.4699	-1.3838	7.37	1.37	-0.750			
0.5721	36616.93	3.4670	3.4669	-1.3855	7.37	1.37	-0.750			
0.5763	36880.08	3.4640	3.4641	-1.3810	7.38	1.38	-0.750			
0.5805	37151.51	3.4610	3.4609	-1.3819	7.39	1.39	-0.750			
0.5847	37421.02	3.4580	3.4581	-1.3788	7.40	1.40	-0.750			
0.5888	37684.63	3.4550	3.4551	-1.3635	7.41	1.41	-0.750			
0.5929	37945.97	3.4520	3.4519	-1.3385	7.42	1.42	-0.750			
0.5968	38198.27	3.4490	3.4490	-1.3111	7.42	1.42	-0.750			
0.6007	38447.17	3.4460	3.4462	-1.3019	7.43	1.43	-0.750			
0.6046	38697.08	3.4430	3.4429	-1.2844	7.44	1.44	-0.750			
0.6085	38942.49	3.4400	3.4399	-1.2625	7.45	1.45	-0.750			
0.6122	39180.67	3.4370	3.4371	-1.2401	7.47	1.47	-0.750			
0.6159	39416.12	3.4340	3.4340	-1.2261	7.48	1.48	-0.750			
0.6196	39653.09	3.4310	3.4309	-1.2093	7.49	1.49	-0.750			
0.6232	39882.37	3.4280	3.4279	-1.1820	7.50	1.50	-0.750			
0.6266	40103.87	3.4250	3.4251	-1.1586	7.51	1.51	-0.750			
0.6301	40329.44	3.4220	3.4219	-1.1483	7.52	1.52	-0.750			
0.6336	40547.86	3.4190	3.4190	-1.1244	7.53	1.53	-0.750			
0.6369	40759.59	3.4160	3.4159	-1.0999	7.54	1.54	-0.750			
0.6401	40967.01	3.4130	3.4131	-1.0927	7.55	1.55	-0.750			
0.6434	41179.33	3.4100	3.4100	-1.0691	7.57	1.57	-0.750			
0.6466	41384.09	3.4070	3.4069	-1.0439	7.58	1.58	-0.750			
0.6497	41581.02	3.4040	3.4040	-1.0132	7.59	1.59	-0.750			
0.6527	41773.87	3.4010	3.4010	-0.9882	7.60	1.60	-0.750			
0.6556	41960.88	3.3980	3.3979	-0.9687	7.61	1.61	-0.750			
0.6585	42142.86	3.3950	3.3949	-0.9444	7.62	1.62	-0.750			
0.6612	42318.69	3.3920	3.3920	-0.9192	7.63	1.63	-0.750			
0.6640	42498.68	3.3890	3.3892	-0.9005	7.64	1.64	-0.750			
0.6667	42670.27	3.3860	3.3860	-0.8778	7.65	1.65	-0.750			
0.6693	42836.38	3.3830	3.3830	-0.8547	7.66	1.66	-0.750			
0.6718	42996.33	3.3800	3.3799	-0.8252	7.67	1.67	-0.750			
0.6743	43153.26	3.3770	3.3769	-0.8070	7.68	1.68	-0.750			
0.6766	43304.59	3.3740	3.3742	-0.7838	7.69	1.69	-0.750			
0.6789	43452.09	3.3710	3.3708	-0.7673	7.71	1.71	-0.750			
0.6812	43597.88	3.3680	3.3680	-0.7538	7.72	1.72	-0.750			
0.6834	43740.00	3.3650	3.3650	-0.7289	7.73	1.73	-0.750			
0.6856	43880.95	3.3620	3.3620	-0.7150	7.74	1.74	-0.750			
0.6878	44016.20	3.3590	3.3590	-0.6981	7.75	1.75	-0.750			
0.6898	44147.48	3.3560	3.3558	-0.6769	7.77	1.77	-0.750			
0.6918	44275.40	3.3530	3.3529	-0.6566	7.77	1.77	-0.750			
0.6937	44398.04	3.3500	3.3502	-0.6356	7.78	1.78	-0.750			
0.6956	44518.97	3.3470	3.3470	-0.6271	7.79	1.79	-0.750			
0.6975	44639.50	3.3440	3.3437	-0.6167	7.80	1.80	-0.750			
0.6993	44756.36	3.3410	3.3409	-0.5968	7.81	1.81	-0.750			
0.7011	44868.92	3.3380	3.3385	-0.5800	7.82	1.82	-0.750			
0.7028	44980.56	3.3350	3.3349	-0.5671	7.83	1.83	-0.750			
0.7045	45087.60	3.3320	3.3321	-0.5522	7.84	1.84	-0.750			
0.7061	45189.08	3.3290	3.3289	-0.5353	7.85	1.85	-0.750			
0.7077	45291.60	3.3260	3.3260	-0.5278	7.86	1.86	-0.750			
0.7092	45390.60	3.3230	3.3230	-0.5140	7.87	1.87	-0.750			
0.7108	45490.16	3.3200	3.3199	-0.5039	7.88	1.88	-0.750			
0.7123	45584.68	3.3170	3.3171	-0.4899	7.89	1.89	-0.750			
0.7137	45677.41	3.3140	3.3140	-0.4773	7.90	1.90	-0.750			
0.7151	45767.69	3.3110	3.3110	-0.4650	7.91	1.91	-0.750			
0.7165	45855.36	3.3080	3.3080	-0.4509	7.92	1.92	-0.750			
0.7178	45940.26	3.3050	3.3051	-0.4438	7.93	1.93	-0.750			
0.7191	46024.69	3.3020	3.3021	-0.4372	7.93	1.93	-0.750			
0.7204	46107.67	3.2990	3.2989	-0.4298	7.94	1.94	-0.750			
0.7217	46189.21	3.2960	3.2960	-0.4213	7.95	1.95	-0.750			
0.7230	46269.28	3.2930	3.2931	-0.4155	7.96	1.96	-0.750			
0.7242	46349.08	3.2900	3.2899	-0.4050	7.97	1.97	-0.750			
0.7254	46427.10	3.2870	3.2870	-0.3961	7.97	1.97	-0.750			
0.7266	46501.23	3.2840	3.2841	-0.3859	7.98	1.98	-0.750			
0.7277	46574.14	3.2810	3.2810	-0.3768	7.99	1.99	-0.750			
0.7288	46645.43	3.2780	3.2779	-0.3698	8.00	2.00	-0.750			
0.7299	46714.78	3.2750	3.2750	-0.3632	8.01	2.01	-0.750			
0.7310	46783.47	3.2720	3.2720	-0.3571	8.02	2.02	-0.750			
0.7321	46852.15	3.2690	3.2689	-0.3534	8.03	2.03	-0.750			
0.7331	46919.57	3.2660	3.2660	-0.3465	8.04	2.04	-0.750			
0.7341	46985.43	3.2630	3.2629	-0.3419	8.05	2.05	-0.750			
0.7352	47050.57	3.2600	3.2601	-0.3384	8.06	2.06	-0.750			
0.7362	47115.42	3.2570	3.2569	-0.3315	8.07	2.07	-0.750			
0.7372	47178.16	3.2540	3.2540	-0.3260	8.08	2.08	-0.750			
0.7381	47240.88	3.2510	3.2510	-0.3199	8.09	2.09	-0.750			
0.7391	47301.34	3.2480	3.2480	-0.3149	8.09	2.09	-0.750			
0.7400	47361.21	3.2450	3.2450	-0.3100	8.10	2.10	-0.750			
0.7409	47419.65	3.2420	3.2421	-0.3030	8.11	2.11	-0.750			
0.7418	47477.73	3.2390	3.2389	-0.2965	8.12	2.12	-0.750			
0.7427	47534.75	3.2360	3.2360	-0.2910	8.13	2.13	-0.750			
0.7436	47589.25	3.2330	3.2331	-0.2850	8.14	2.14	-0.750			
0.7444	47643.42	3.2300	3.2300	-0.2812	8.15	2.15	-0.750			
0.7452	47695.99	3.2270	3.2268	-0.2751	8.16	2.16	-0.750			
0.7461	47748.74	3.2240	3.2240	-0.2727	8.17	2.17	-0.750			
0.7469	47800.92	3.2210	3.2210	-0.2710	8.17	2.17	-0.750			
0.7477	47853.19	3.2180	3.2180	-0.2684	8.18	2.18	-0.750			
0.7485	47904.33	3.2150	3.2150	-0.2641	8.19	2.19	-0.750			
0.7493	47954.44	3.2120	3.2120	-0.2590	8.20	2.20	-0.750			
0.7501	48004.26	3.2090	3.2090	-0.2541	8.20	2.20	-0.750			
0.7508	48052.54	3.2060	3.2059	-0.2497	8.21	2.21	-0.750			
0.7516	48099.49	3.2030	3.2030	-0.2458	8.21	2.21	-0.750			
0.7523	48145.52	3.2000	3.2001	-0.2437	8.22	2.22	-0.750			
0.7530	48191.97	3.1970	3.1969	-0.2404	8.23	2.23	-0.750			
0.7537	48237.85	3.1940	3.1940	-0.2386	8.24	2.24	-0.750			
0.7544	48283.51	3.1910	3.1910	-0.2359	8.25	2.25	-0.750			
0.7551	48329.08	3.1880	3.1881	-0.2341	8.26	2.26	-0.750			
0.7558	48374.20	3.1850	3.1850	-0.2323	8.27	2.27	-0.750			
0.7565	48418.14	3.1820	3.1819	-0.2283	8.27	2.27	-0.750			
0.7572	48461.57	3.1790	3.1790	-0.2246	8.28	2.28	-0.750			
0.7579	48504.18	3.1760	3.1760	-0.2210	8.29	2.29	-0.750			
0.7585	48546.76	3.1730	3.1731	-0.2194	8.30	2.30	-0.750			
0.7592	48588.55	3.1700	3.1700	-0.2159	8.31	2.31	-0.750			
0.7598	48629.43	3.1670	3.1670	-0.2135	8.31	2.31	-0.750			
0.7605	48669.96	3.1640	3.1639	-0.2105	8.32	2.32	-0.750			
0.7611	48709.93	3.1610	3.1609	-0.2082	8.33	2.33	-0.750			
0.7617	48749.75	3.1580	3.1581	-0.2067	8.33	2.33	-0.750			
0.7623	48789.41	3.1550	3.1550	-0.2052	8.34	2.34	-0.750			
0.7629	48828.54	3.1520	3.1520	-0.2037	8.34	2.34	-0.750			
0.7636	48867.53	3.1490	3.1490	-0.2020	8.35	2.35	-0.750			
0.7642	48906.18	3.1460	3.1460	-0.2005	8.36	2.36	-0.750			
0.7648	48944.76	3.1430	3.1429	-0.1973	8.36	2.36	-0.750			
0.7654	48982.51	3.1400	3.1401	-0.1958	8.37	2.37	-0.750			
0.7659	49019.49	3.1370	3.1371	-0.1937	8.38	2.38	-0.750			
0.7665	49056.52	3.1340	3.1340	-0.1920	8.39	2.39	-0.750			
0.7671	49093.16	3.1310	3.1309	-0.1894	8.40	2.40	-0.750			
0.7676	49129.21	3.1280	3.1280	-0.1871	8.41	2.41	-0.750			
0.7682	49165.12	3.1250	3.1251	-0.1856	8.41	2.41	-0.750			
0.7688	49200.57	3.1220	3.1220	-0.1837	8.42	2.42	-0.750			
0.7693	49235.98	3.1190	3.1189	-0.1824	8.43	2.43	-0.750			
0.7698	49270.32	3.1160	3.1160	-0.1799	8.44	2.44	-0.750			
0.7704	49304.46	3.1130	3.1130	-0.1780	8.45	2.45	-0.750			
0.7709	49338.54	3.1100	3.1100	-0.1775	8.45	2.45	-0.750			
0.7714	49372.70	3.1070	3.1071	-0.1769	8.46	2.46	-0.750			
0.7720	49406.73	3.1040	3.1039	-0.1754	8.47	2.47	-0.750			
0.7725	49440.40	3.1010	3.1010	-0.1743	8.47	2.47	-0.750			
0.7730	49473.71	3.0980	3.0980	-0.1725	8.48	2.48	-0.750			
0.7735	49506.93	3.0950	3.0951	-0.1704	8.49	2.49	-0.750			
0.7741	49539.41	3.0920	3.0920	-0.1687	8.49	2.49	-0.750			
0.7746	49571.58	3.0890	3.0889	-0.1664	8.50	2.50	-0.750			
0.7750	49602.95	3.0860	3.0861	-0.1650	8.51	2.51	-0.750			
0.7755	49634.21	3.0830	3.0830	-0.1638	8.51	2.51	-0.750			
0.7760	49665.52	3.0800	3.0799	-0.1632	8.52	2.52	-0.750			
0.7765	49696.97	3.0770	3.0770	-0.1617	8.52	2.52	-0.750			
0.7770	49728.01	3.0740	3.0740	-0.1602	8.53	2.53	-0.750			
0.7775	49758.65	3.0710	3.0711	-0.1600	8.54	2.54	-0.750			
0.7780	49789.13	3.0680	3.0680	-0.1586	8.55	2.55	-0.750			
0.7784	49819.48	3.0650	3.0649	-0.1579	8.56	2.56	-0.750			
0.7789	49849.70	3.0620	3.0619	-0.1562	8.56	2.56	-0.750			
0.7794	49879.49	3.0590	3.0591	-0.1553	8.57	2.57	-0.750			
0.7798	49909.24	3.0560	3.0561	-0.1546	8.58	2.58	-0.750			
0.7803	49939.30	3.0530	3.0531	-0.1527	8.59	2.59	-0.750			
0.7808	49968.34	3.0500	3.0499	-0.1517	8.59	2.59	-0.750			
0.7812	49996.91	3.0470	3.0471	-0.1498	8.60	2.60	-0.750			
0.7817	50025.62	3.0440	3.0440	-0.1492	8.61	2.61	-0.750			
0.7821	50054.14	3.0410	3.0410	-0.1485	8.61	2.61	-0.750			
0.7825	50082.77	3.0380	3.0380	-0.1477	8.62	2.62	-0.750			
0.7830	50110.84	3.0350	3.0351	-0.1465	8.63	2.63	-0.750			
0.7834	50138.91	3.0320	3.0320	-0.1459	8.64	2.64	-0.750			
0.7839	50167.29	3.0290	3.0290	-0.1449	8.64	2.64	-0.750			
0.7843	50194.57	3.0260	3.0261	-0.1439	8.65	2.65	-0.750			
0.7847	50222.04	3.0230	3.0230	-0.1434	8.66	2.66	-0.750			
0.7851	50249.54	3.0200	3.0201	-0.1431	8.66	2.66	-0.750			
0.7856	50277.04	3.0170	3.0169	-0.1418	8.67	2.67	-0.750			
0.7860	50304.34	3.0140	3.0140	-0.1412	8.68	2.68	-0.750			
0.7864	50331.38	3.0110	3.0111	-0.1401	8.68	2.68	-0.750			
0.7868	50358.17	3.0080	3.0080	-0.1390	8.69	2.69	-0.750			
0.7873	50385.00	3.0050	3.0049	-0.1366	8.70	2.70	-0.750			
0.7877	50411.01	3.0020	3.0020	-0.1362	8.70	2.70	-0.750			
