Ah_balance (normalized)	Ah_balance (mAh)	Voltage - fit (V)	Voltage -  interpolate (V)	dQ/dV (1/V)	Temperature (°C)	Temperature - diff (°C)	Current (C)	R_DC 0ms (mOhm)	R_DC 50ms (mOhm)	R_DC 50 ms PEC (mOhm)
0.0002	14.74	4.1060	4.1051	-0.0502	6.00	0.00	-0.750			
0.0004	28.74	4.1030	4.1024	-0.0859	6.00	0.00	-0.750			
0.0008	49.45	4.1000	4.0997	-0.1159	6.00	0.00	-0.750			
0.0012	74.34	4.0970	4.0969	-0.1435	6.00	0.00	-0.750			
0.0016	105.37	4.0940	4.0941	-0.1680	6.00	0.00	-0.750			
0.0022	140.29	4.0910	4.0911	-0.1911	6.00	0.00	-0.750			
0.0028	180.75	4.0880	4.0879	-0.2171	6.00	0.00	-0.750			
0.0035	224.71	4.0850	4.0852	-0.2380	6.00	0.00	-0.750			
0.0043	272.15	4.0820	4.0819	-0.2608	6.00	0.00	-0.750			
0.0051	323.68	4.0790	4.0790	-0.2870	6.00	0.00	-0.750			
0.0060	381.48	4.0760	4.0760	-0.3104	6.00	0.00	-0.750			
0.0069	443.71	4.0730	4.0729	-0.3317	6.00	0.00	-0.750			
0.0080	510.90	4.0700	4.0701	-0.3515	6.00	0.00	-0.750			
0.0091	580.88	4.0670	4.0671	-0.3692	6.00	0.00	-0.750			
0.0102	653.16	4.0640	4.0641	-0.3900	6.00	0.00	-0.750			
0.0114	728.25	4.0610	4.0610	-0.4095	6.00	0.00	-0.750			
0.0126	806.81	4.0580	4.0581	-0.4345	6.00	0.00	-0.750			
0.0140	893.34	4.0550	4.0550	-0.4587	6.00	0.00	-0.750			
0.0154	985.10	4.0520	4.0519	-0.4840	6.00	0.00	-0.750			
0.0169	1080.91	4.0490	4.0491	-0.5077	6.00	0.00	-0.750			
0.0185	1181.01	4.0460	4.0458	-0.5316	6.00	0.00	-0.750			
0.0201	1284.67	4.0430	4.0430	-0.5514	6.00	0.00	-0.750			
0.0218	1393.18	4.0400	4.0400	-0.5683	6.00	0.00	-0.750			
0.0235	1504.27	4.0370	4.0371	-0.5871	6.01	0.01	-0.750			
0.0253	1620.07	4.0340	4.0340	-0.6036	6.01	0.01	-0.750			
0.0271	1737.21	4.0310	4.0311	-0.6191	6.02	0.02	-0.750			
0.0290	1857.61	4.0280	4.0279	-0.6284	6.02	0.02	-0.750			
0.0309	1979.30	4.0250	4.0249	-0.6370	6.03	0.03	-0.750			
0.0329	2102.84	4.0220	4.0221	-0.6464	6.04	0.04	-0.750			
0.0348	2228.22	4.0190	4.0189	-0.6539	6.04	0.04	-0.750			
0.0368	2353.92	4.0160	4.0160	-0.6661	6.05	0.05	-0.750			
0.0388	2482.69	4.0130	4.0130	-0.6786	6.05	0.05	-0.750			
0.0409	2614.44	4.0100	4.0099	-0.6821	6.06	0.06	-0.750			
0.0429	2747.65	4.0070	4.0070	-0.6902	6.06	0.06	-0.750			
0.0450	2881.72	4.0040	4.0041	-0.6963	6.07	0.07	-0.750			
0.0471	3015.81	4.0010	4.0010	-0.6985	6.07	0.07	-0.750			
0.0492	3148.48	3.9980	3.9979	-0.7072	6.08	0.08	-0.750			
0.0513	3283.13	3.9950	3.9951	-0.7146	6.09	0.09	-0.750			
0.0535	3422.11	3.9920	3.9919	-0.7194	6.09	0.09	-0.750			
0.0557	3562.75	3.9890	3.9890	-0.7264	6.10	0.10	-0.750			
0.0579	3704.28	3.9860	3.9861	-0.7263	6.11	0.11	-0.750			
0.0601	3843.54	3.9830	3.9830	-0.7266	6.11	0.11	-0.750			
0.0622	3983.20	3.9800	3.9800	-0.7253	6.12	0.12	-0.750			
0.0644	4120.40	3.9770	3.9771	-0.7251	6.13	0.13	-0.750			
0.0665	4259.11	3.9740	3.9740	-0.7277	6.14	0.14	-0.750			
0.0687	4399.83	3.9710	3.9710	-0.7317	6.14	0.14	-0.750			
0.0709	4539.48	3.9680	3.9681	-0.7403	6.15	0.15	-0.750			
0.0731	4681.27	3.9650	3.9650	-0.7542	6.16	0.16	-0.750			
0.0754	4825.99	3.9620	3.9619	-0.7656	6.16	0.16	-0.750			
0.0778	4976.76	3.9590	3.9589	-0.7715	6.17	0.17	-0.750			
0.0801	5126.91	3.9560	3.9560	-0.7735	6.18	0.18	-0.750			
0.0825	5279.13	3.9530	3.9531	-0.7747	6.19	0.19	-0.750			
0.0848	5428.50	3.9500	3.9500	-0.7656	6.19	0.19	-0.750			
0.0870	5570.83	3.9470	3.9470	-0.7617	6.20	0.20	-0.750			
0.0893	5715.70	3.9440	3.9440	-0.7626	6.21	0.21	-0.750			
0.0916	5860.59	3.9410	3.9410	-0.7625	6.22	0.22	-0.750			
0.0939	6008.06	3.9380	3.9379	-0.7703	6.22	0.22	-0.750			
0.0962	6158.00	3.9350	3.9353	-0.7743	6.23	0.23	-0.750			
0.0986	6308.50	3.9320	3.9319	-0.7710	6.24	0.24	-0.750			
0.1009	6457.79	3.9290	3.9290	-0.7744	6.25	0.25	-0.750			
0.1032	6604.18	3.9260	3.9261	-0.7725	6.26	0.26	-0.750			
0.1055	6751.92	3.9230	3.9229	-0.7717	6.27	0.27	-0.750			
0.1078	6899.39	3.9200	3.9199	-0.7766	6.29	0.29	-0.750			
0.1101	7047.45	3.9170	3.9169	-0.7744	6.29	0.29	-0.750			
0.1124	7196.42	3.9140	3.9141	-0.7816	6.30	0.30	-0.750			
0.1148	7348.87	3.9110	3.9109	-0.7889	6.30	0.30	-0.750			
0.1172	7498.25	3.9080	3.9080	-0.7920	6.31	0.31	-0.750			
0.1196	7651.70	3.9050	3.9050	-0.7954	6.32	0.32	-0.750			
0.1220	7807.81	3.9020	3.9021	-0.7931	6.32	0.32	-0.750			
0.1244	7960.00	3.8990	3.8989	-0.7907	6.34	0.34	-0.750			
0.1268	8112.87	3.8960	3.8961	-0.7960	6.35	0.35	-0.750			
0.1291	8263.36	3.8930	3.8929	-0.7907	6.36	0.36	-0.750			
0.1315	8415.06	3.8900	3.8899	-0.7917	6.37	0.37	-0.750			
0.1339	8567.58	3.8870	3.8872	-0.7951	6.38	0.38	-0.750			
0.1363	8720.72	3.8840	3.8840	-0.7983	6.39	0.39	-0.750			
0.1387	8874.61	3.8810	3.8809	-0.8057	6.40	0.40	-0.750			
0.1411	9028.25	3.8780	3.8780	-0.8058	6.40	0.40	-0.750			
0.1435	9185.38	3.8750	3.8749	-0.8081	6.41	0.41	-0.750			
0.1459	9340.40	3.8720	3.8722	-0.8045	6.42	0.42	-0.750			
0.1483	9493.46	3.8690	3.8690	-0.8131	6.43	0.43	-0.750			
0.1508	9650.56	3.8660	3.8659	-0.8134	6.44	0.44	-0.750			
0.1532	9805.90	3.8630	3.8629	-0.8166	6.45	0.45	-0.750			
0.1557	9963.58	3.8600	3.8601	-0.8160	6.46	0.46	-0.750			
0.1582	10122.79	3.8570	3.8571	-0.8249	6.47	0.47	-0.750			
0.1607	10282.04	3.8540	3.8539	-0.8281	6.48	0.48	-0.750			
0.1631	10440.97	3.8510	3.8510	-0.8266	6.48	0.48	-0.750			
0.1656	10598.62	3.8480	3.8479	-0.8221	6.49	0.49	-0.750			
0.1681	10757.77	3.8450	3.8451	-0.8253	6.50	0.50	-0.750			
0.1706	10916.25	3.8420	3.8420	-0.8216	6.51	0.51	-0.750			
0.1730	11074.02	3.8390	3.8390	-0.8221	6.52	0.52	-0.750			
0.1755	11229.38	3.8360	3.8360	-0.8200	6.52	0.52	-0.750			
0.1779	11387.02	3.8330	3.8331	-0.8252	6.53	0.53	-0.750			
0.1804	11547.13	3.8300	3.8300	-0.8276	6.54	0.54	-0.750			
0.1829	11706.57	3.8270	3.8270	-0.8351	6.55	0.55	-0.750			
0.1854	11866.56	3.8240	3.8240	-0.8399	6.56	0.56	-0.750			
0.1880	12029.20	3.8210	3.8210	-0.8458	6.56	0.56	-0.750			
0.1905	12192.37	3.8180	3.8178	-0.8470	6.57	0.57	-0.750			
0.1931	12355.25	3.8150	3.8151	-0.8463	6.58	0.58	-0.750			
0.1956	12518.89	3.8120	3.8119	-0.8464	6.59	0.59	-0.750			
0.1981	12681.33	3.8090	3.8090	-0.8449	6.60	0.60	-0.750			
0.2007	12843.45	3.8060	3.8059	-0.8494	6.61	0.61	-0.750			
0.2032	13004.05	3.8030	3.8030	-0.8471	6.62	0.62	-0.750			
0.2057	13166.16	3.8000	3.8000	-0.8491	6.63	0.63	-0.750			
0.2083	13331.88	3.7970	3.7971	-0.8540	6.64	0.64	-0.750			
0.2109	13497.02	3.7940	3.7940	-0.8476	6.65	0.65	-0.750			
0.2134	13660.44	3.7910	3.7910	-0.8463	6.66	0.66	-0.750			
0.2160	13822.07	3.7880	3.7881	-0.8377	6.66	0.66	-0.750			
0.2184	13979.24	3.7850	3.7849	-0.8369	6.67	0.67	-0.750			
0.2209	14140.12	3.7820	3.7821	-0.8393	6.68	0.68	-0.750			
0.2234	14300.60	3.7790	3.7789	-0.8480	6.69	0.69	-0.750			
0.2260	14465.64	3.7760	3.7759	-0.8591	6.70	0.70	-0.750			
0.2287	14633.84	3.7730	3.7729	-0.8611	6.70	0.70	-0.750			
0.2313	14800.59	3.7700	3.7701	-0.8565	6.71	0.71	-0.750			
0.2339	14966.60	3.7670	3.7673	-0.8585	6.72	0.72	-0.750			
0.2364	15128.53	3.7640	3.7639	-0.8585	6.73	0.73	-0.750			
0.2389	15289.04	3.7610	3.7610	-0.8696	6.74	0.74	-0.750			
0.2415	15457.09	3.7580	3.7579	-0.8713	6.74	0.74	-0.750			
0.2442	15629.58	3.7550	3.7549	-0.8840	6.75	0.75	-0.750			
0.2469	15800.53	3.7520	3.7522	-0.8799	6.76	0.76	-0.750			
0.2496	15972.42	3.7490	3.7490	-0.8814	6.77	0.77	-0.750			
0.2522	16139.49	3.7460	3.7459	-0.8722	6.78	0.78	-0.750			
0.2547	16301.53	3.7430	3.7430	-0.8657	6.79	0.79	-0.750			
0.2573	16466.58	3.7400	3.7400	-0.8701	6.80	0.80	-0.750			
0.2599	16636.55	3.7370	3.7370	-0.8749	6.80	0.80	-0.750			
0.2625	16802.54	3.7340	3.7340	-0.8871	6.81	0.81	-0.750			
0.2652	16973.80	3.7310	3.7311	-0.8985	6.82	0.82	-0.750			
0.2680	17149.02	3.7280	3.7280	-0.9025	6.82	0.82	-0.750			
0.2707	17324.08	3.7250	3.7249	-0.9098	6.83	0.83	-0.750			
0.2734	17498.33	3.7220	3.7222	-0.9134	6.84	0.84	-0.750			
0.2762	17677.45	3.7190	3.7190	-0.9071	6.84	0.84	-0.750			
0.2789	17852.10	3.7160	3.7159	-0.9056	6.85	0.85	-0.750			
0.2816	18022.30	3.7130	3.7130	-0.8963	6.85	0.85	-0.750			
0.2842	18191.74	3.7100	3.7101	-0.9027	6.86	0.86	-0.750			
0.2870	18364.83	3.7070	3.7068	-0.9175	6.87	0.87	-0.750			
0.2897	18540.51	3.7040	3.7040	-0.9255	6.87	0.87	-0.750			
0.2925	18721.69	3.7010	3.7009	-0.9356	6.88	0.88	-0.750			
0.2954	18906.80	3.6980	3.6981	-0.9530	6.89	0.89	-0.750			
0.2983	19088.47	3.6950	3.6949	-0.9578	6.89	0.89	-0.750			
0.3012	19275.04	3.6920	3.6919	-0.9528	6.90	0.90	-0.750			
0.3040	19458.33	3.6890	3.6889	-0.9411	6.91	0.91	-0.750			
0.3068	19635.77	3.6860	3.6860	-0.9358	6.92	0.92	-0.750			
0.3096	19815.21	3.6830	3.6831	-0.9429	6.92	0.92	-0.750			
0.3124	19994.16	3.6800	3.6799	-0.9633	6.93	0.93	-0.750			
0.3153	20178.35	3.6770	3.6768	-0.9735	6.94	0.94	-0.750			
0.3183	20368.36	3.6740	3.6739	-0.9881	6.94	0.94	-0.750			
0.3213	20565.09	3.6710	3.6714	-1.0055	6.95	0.95	-0.750			
0.3244	20764.07	3.6680	3.6680	-1.0188	6.96	0.96	-0.750			
0.3275	20957.74	3.6650	3.6649	-1.0130	6.96	0.96	-0.750			
0.3304	21147.31	3.6620	3.6620	-1.0072	6.97	0.97	-0.750			
0.3335	21341.75	3.6590	3.6592	-1.0166	6.98	0.98	-0.750			
0.3365	21536.25	3.6560	3.6559	-1.0327	6.98	0.98	-0.750			
0.3396	21737.16	3.6530	3.6529	-1.0425	6.98	0.98	-0.750			
0.3428	21936.80	3.6500	3.6500	-1.0543	6.99	0.99	-0.750			
0.3459	22140.52	3.6470	3.6471	-1.0818	6.99	0.99	-0.750			
0.3492	22350.64	3.6440	3.6439	-1.0898	7.00	1.00	-0.750			
0.3526	22563.64	3.6410	3.6409	-1.0881	7.01	1.01	-0.750			
0.3558	22772.95	3.6380	3.6380	-1.0906	7.01	1.01	-0.750			
0.3591	22982.73	3.6350	3.6353	-1.1001	7.02	1.02	-0.750			
0.3624	23194.39	3.6320	3.6319	-1.0978	7.02	1.02	-0.750			
0.3656	23400.92	3.6290	3.6289	-1.0951	7.03	1.03	-0.750			
0.3689	23607.91	3.6260	3.6260	-1.1104	7.03	1.03	-0.750			
0.3722	23821.40	3.6230	3.6232	-1.1410	7.03	1.03	-0.750			
0.3757	24043.90	3.6200	3.6198	-1.1623	7.04	1.04	-0.750			
0.3792	24270.67	3.6170	3.6169	-1.1767	7.04	1.04	-0.750			
0.3828	24500.78	3.6140	3.6141	-1.1899	7.05	1.05	-0.750			
0.3865	24735.10	3.6110	3.6111	-1.1967	7.05	1.05	-0.750			
0.3901	24965.27	3.6080	3.6080	-1.2008	7.06	1.06	-0.750			
0.3936	25193.20	3.6050	3.6050	-1.2010	7.07	1.07	-0.750			
0.3972	25419.96	3.6020	3.6019	-1.2122	7.07	1.07	-0.750			
0.4008	25654.06	3.5990	3.5991	-1.2280	7.07	1.07	-0.750	0.411	0.919	
0.4045	25889.86	3.5960	3.5959	-1.2489	7.08	1.08	-0.750			
0.4083	26134.16	3.5930	3.5932	-1.2748	7.08	1.08	-0.750			
0.4122	26382.55	3.5900	3.5899	-1.2935	7.08	1.08	-0.750			
0.4162	26636.33	3.5870	3.5869	-1.2969	7.09	1.09	-0.750			
0.4201	26885.84	3.5840	3.5841	-1.3025	7.09	1.09	-0.750			
0.4240	27134.85	3.5810	3.5810	-1.2936	7.09	1.09	-0.750			
0.4279	27385.67	3.5780	3.5779	-1.2988	7.10	1.10	-0.750			
0.4317	27629.15	3.5750	3.5750	-1.3156	7.11	1.11	-0.750			
0.4356	27880.01	3.5720	3.5720	-1.3223	7.11	1.11	-0.750			
0.4396	28136.88	3.5690	3.5689	-1.3449	7.11	1.11	-0.750			
0.4437	28398.40	3.5660	3.5660	-1.3664	7.12	1.12	-0.750			
0.4479	28663.27	3.5630	3.5630	-1.3737	7.12	1.12	-0.750			
0.4520	28931.20	3.5600	3.5599	-1.3897	7.12	1.12	-0.750			
0.4562	29194.77	3.5570	3.5570	-1.4083	7.13	1.13	-0.750			
0.4603	29461.21	3.5540	3.5540	-1.4317	7.13	1.13	-0.750			
0.4647	29742.61	3.5510	3.5509	-1.4626	7.14	1.14	-0.750			
0.4692	30030.62	3.5480	3.5480	-1.4725	7.15	1.15	-0.750			
0.4737	30319.40	3.5450	3.5449	-1.4743	7.15	1.15	-0.750			
0.4782	30607.28	3.5420	3.5421	-1.4733	7.16	1.16	-0.750			
0.4826	30888.21	3.5390	3.5393	-1.4702	7.16	1.16	-0.750			
0.4869	31162.65	3.5360	3.5359	-1.4768	7.16	1.16	-0.750			
0.4912	31438.62	3.5330	3.5329	-1.4865	7.17	1.17	-0.750			
0.4958	31730.58	3.5300	3.5300	-1.5247	7.17	1.17	-0.750			
0.5005	32032.90	3.5270	3.5271	-1.5215	7.18	1.18	-0.750			
0.5052	32330.86	3.5240	3.5239	-1.5451	7.18	1.18	-0.750			
0.5098	32628.11	3.5210	3.5211	-1.5281	7.19	1.19	-0.750			
0.5143	32916.17	3.5180	3.5177	-1.5170	7.19	1.19	-0.750			
0.5188	33205.10	3.5150	3.5150	-1.5037	7.20	1.20	-0.750			
0.5233	33491.71	3.5120	3.5120	-1.5161	7.20	1.20	-0.750			
0.5279	33784.44	3.5090	3.5090	-1.5286	7.21	1.21	-0.750			
0.5326	34083.72	3.5060	3.5058	-1.5347	7.22	1.22	-0.750			
0.5371	34376.54	3.5030	3.5029	-1.5298	7.23	1.23	-0.750			
0.5418	34675.51	3.5000	3.4998	-1.5258	7.23	1.23	-0.750			
0.5463	34965.95	3.4970	3.4971	-1.5182	7.24	1.24	-0.750			
0.5509	35256.40	3.4940	3.4941	-1.5107	7.25	1.25	-0.750			
0.5553	35541.40	3.4910	3.4909	-1.5116	7.25	1.25	-0.750			
0.5599	35833.33	3.4880	3.4880	-1.4883	7.26	1.26	-0.750			
0.5644	36123.64	3.4850	3.4850	-1.4997	7.27	1.27	-0.750			
0.5689	36410.44	3.4820	3.4819	-1.4900	7.28	1.28	-0.750			
0.5734	36697.94	3.4790	3.4788	-1.4933	7.29	1.29	-0.750			
0.5778	36982.08	3.4760	3.4760	-1.4810	7.30	1.30	-0.750			
0.5823	37267.28	3.4730	3.4729	-1.4763	7.31	1.31	-0.750			
0.5868	37553.70	3.4700	3.4698	-1.4714	7.32	1.32	-0.750			
0.5912	37835.61	3.4670	3.4669	-1.4498	7.33	1.33	-0.750			
0.5954	38108.02	3.4640	3.4641	-1.4235	7.34	1.34	-0.750			
0.5997	38381.61	3.4610	3.4609	-1.4017	7.35	1.35	-0.750			
0.6039	38646.83	3.4580	3.4580	-1.3952	7.36	1.36	-0.750			
0.6081	38916.00	3.4550	3.4550	-1.3899	7.37	1.37	-0.750			
0.6122	39181.70	3.4520	3.4519	-1.3723	7.38	1.38	-0.750			
0.6164	39450.29	3.4490	3.4492	-1.3561	7.39	1.39	-0.750			
0.6204	39707.80	3.4460	3.4461	-1.3371	7.41	1.41	-0.750			
0.6244	39960.76	3.4430	3.4430	-1.3198	7.42	1.42	-0.750			
0.6283	40210.64	3.4400	3.4399	-1.2995	7.43	1.43	-0.750			
0.6321	40454.41	3.4370	3.4370	-1.2788	7.44	1.44	-0.750			
0.6360	40702.05	3.4340	3.4340	-1.2679	7.45	1.45	-0.750			
0.6398	40948.79	3.4310	3.4310	-1.2539	7.46	1.46	-0.750			
0.6436	41187.93	3.4280	3.4279	-1.2271	7.47	1.47	-0.750			
0.6472	41419.08	3.4250	3.4251	-1.1963	7.48	1.48	-0.750			
0.6507	41645.71	3.4220	3.4220	-1.1802	7.49	1.49	-0.750			
0.6542	41870.64	3.4190	3.4190	-1.1563	7.51	1.51	-0.750			
0.6577	42091.26	3.4160	3.4158	-1.1296	7.52	1.52	-0.750			
0.6611	42307.44	3.4130	3.4129	-1.1052	7.53	1.53	-0.750			
0.6643	42517.82	3.4100	3.4101	-1.0745	7.54	1.54	-0.750			
0.6675	42722.99	3.4070	3.4070	-1.0412	7.56	1.56	-0.750			
0.6706	42917.25	3.4040	3.4041	-1.0004	7.57	1.57	-0.750			
0.6735	43103.93	3.4010	3.4010	-0.9699	7.58	1.58	-0.750			
0.6764	43288.41	3.3980	3.3979	-0.9481	7.59	1.59	-0.750			
0.6792	43466.90	3.3950	3.3950	-0.9227	7.61	1.61	-0.750			
0.6819	43640.54	3.3920	3.3919	-0.9023	7.62	1.62	-0.750			
0.6846	43813.08	3.3890	3.3891	-0.8895	7.63	1.63	-0.750			
0.6872	43983.04	3.3860	3.3859	-0.8733	7.65	1.65	-0.750			
0.6898	44149.30	3.3830	3.3830	-0.8526	7.66	1.66	-0.750			
0.6924	44311.33	3.3800	3.3800	-0.8268	7.67	1.67	-0.750			
0.6948	44468.96	3.3770	3.3771	-0.8091	7.68	1.68	-0.750			
0.6972	44622.57	3.3740	3.3740	-0.7862	7.69	1.69	-0.750			
0.6995	44770.86	3.3710	3.3710	-0.7594	7.71	1.71	-0.750			
0.7018	44913.98	3.3680	3.3679	-0.7392	7.72	1.72	-0.750			
0.7040	45053.61	3.3650	3.3651	-0.7170	7.73	1.73	-0.750			
0.7061	45190.08	3.3620	3.3620	-0.6929	7.74	1.74	-0.750			
0.7081	45321.34	3.3590	3.3589	-0.6715	7.75	1.75	-0.750			
0.7101	45445.53	3.3560	3.3560	-0.6519	7.76	1.76	-0.750			
0.7120	45567.94	3.3530	3.3529	-0.6346	7.77	1.77	-0.750			
0.7139	45688.89	3.3500	3.3499	-0.6174	7.78	1.78	-0.750			
0.7157	45804.94	3.3470	3.3470	-0.6006	7.79	1.79	-0.750			
0.7175	45921.91	3.3440	3.3441	-0.5874	7.81	1.81	-0.750			
0.7193	46032.98	3.3410	3.3410	-0.5719	7.82	1.82	-0.750			
0.7209	46140.32	3.3380	3.3380	-0.5521	7.83	1.83	-0.750			
0.7226	46243.41	3.3350	3.3350	-0.5366	7.84	1.84	-0.750			
0.7241	46344.45	3.3320	3.3320	-0.5243	7.85	1.85	-0.750			
0.7257	46444.23	3.3290	3.3290	-0.5111	7.86	1.86	-0.750			
0.7272	46540.72	3.3260	3.3260	-0.4987	7.87	1.87	-0.750			
0.7287	46636.56	3.3230	3.3230	-0.4897	7.88	1.88	-0.750			
0.7301	46729.34	3.3200	3.3199	-0.4739	7.89	1.89	-0.750			
0.7316	46819.22	3.3170	3.3170	-0.4623	7.90	1.90	-0.750			
0.7329	46906.40	3.3140	3.3141	-0.4487	7.90	1.90	-0.750			
0.7342	46991.08	3.3110	3.3110	-0.4372	7.91	1.91	-0.750			
0.7355	47074.06	3.3080	3.3079	-0.4271	7.92	1.92	-0.750			
0.7368	47153.41	3.3050	3.3051	-0.4162	7.93	1.93	-0.750			
0.7380	47232.84	3.3020	3.3020	-0.4087	7.94	1.94	-0.750			
0.7392	47310.94	3.2990	3.2990	-0.4007	7.95	1.95	-0.750			
0.7404	47386.52	3.2960	3.2960	-0.3906	7.96	1.96	-0.750			
0.7416	47460.58	3.2930	3.2931	-0.3846	7.97	1.97	-0.750			
0.7427	47534.02	3.2900	3.2900	-0.3749	7.98	1.98	-0.750			
0.7438	47605.62	3.2870	3.2869	-0.3656	7.99	1.99	-0.750			
0.7449	47673.87	3.2840	3.2841	-0.3577	8.00	2.00	-0.750			
0.7460	47742.36	3.2810	3.2811	-0.3505	8.01	2.01	-0.750			
0.7470	47808.54	3.2780	3.2779	-0.3446	8.02	2.02	-0.750			
0.7480	47874.09	3.2750	3.2749	-0.3377	8.03	2.03	-0.750			
0.7490	47937.54	3.2720	3.2722	-0.3305	8.04	2.04	-0.750			
0.7500	48001.43	3.2690	3.2690	-0.3262	8.04	2.04	-0.750			
0.7510	48064.02	3.2660	3.2660	-0.3214	8.05	2.05	-0.750			
0.7520	48124.87	3.2630	3.2630	-0.3130	8.06	2.06	-0.750			
0.7529	48184.34	3.2600	3.2600	-0.3077	8.07	2.07	-0.750			
0.7538	48242.39	3.2570	3.2571	-0.2996	8.08	2.08	-0.750			
0.7547	48298.87	3.2540	3.2540	-0.2958	8.09	2.09	-0.750			
0.7555	48354.79	3.2510	3.2510	-0.2912	8.09	2.09	-0.750			
0.7564	48410.05	3.2480	3.2480	-0.2868	8.10	2.10	-0.750			
0.7573	48465.01	3.2450	3.2448	-0.2801	8.11	2.11	-0.750			
0.7581	48519.71	3.2420	3.2420	-0.2753	8.12	2.12	-0.750			
0.7589	48571.09	3.2390	3.2391	-0.2706	8.12	2.12	-0.750			
0.7597	48622.55	3.2360	3.2360	-0.2668	8.13	2.13	-0.750			
0.7605	48673.02	3.2330	3.2328	-0.2628	8.14	2.14	-0.750			
0.7613	48722.26	3.2300	3.2300	-0.2574	8.15	2.15	-0.750			
0.7621	48772.05	3.2270	3.2271	-0.2543	8.16	2.16	-0.750			
0.7628	48820.94	3.2240	3.2241	-0.2511	8.17	2.17	-0.750			
0.7636	48869.17	3.2210	3.2210	-0.2463	8.17	2.17	-0.750			
0.7643	48914.96	3.2180	3.2179	-0.2426	8.18	2.18	-0.750			
0.7650	48960.74	3.2150	3.2150	-0.2386	8.19	2.19	-0.750			
0.7657	49006.19	3.2120	3.2119	-0.2363	8.20	2.20	-0.750			
0.7664	49051.78	3.2090	3.2090	-0.2332	8.20	2.20	-0.750			
0.7671	49096.74	3.2060	3.2061	-0.2304	8.21	2.21	-0.750			
0.7678	49140.96	3.2030	3.2030	-0.2270	8.22	2.22	-0.750			
0.7685	49183.95	3.2000	3.1999	-0.2236	8.23	2.23	-0.750			
0.7692	49226.49	3.1970	3.1969	-0.2200	8.23	2.23	-0.750			
0.7698	49267.96	3.1940	3.1940	-0.2166	8.24	2.24	-0.750			
0.7705	49309.26	3.1910	3.1910	-0.2139	8.24	2.24	-0.750			
0.7711	49350.10	3.1880	3.1880	-0.2096	8.25	2.25	-0.750			
0.7717	49390.09	3.1850	3.1850	-0.2080	8.26	2.26	-0.750			
0.7723	49429.77	3.1820	3.1821	-0.2044	8.26	2.26	-0.750			
0.7729	49468.71	3.1790	3.1790	-0.2012	8.27	2.27	-0.750			
0.7735	49506.78	3.1760	3.1759	-0.1986	8.28	2.28	-0.750			
0.7741	49544.63	3.1730	3.1730	-0.1962	8.29	2.29	-0.750			
0.7747	49581.65	3.1700	3.1701	-0.1940	8.29	2.29	-0.750			
0.7753	49618.78	3.1670	3.1669	-0.1928	8.30	2.30	-0.750			
0.7759	49655.98	3.1640	3.1640	-0.1908	8.31	2.31	-0.750			
0.7764	49692.23	3.1610	3.1609	-0.1876	8.32	2.32	-0.750			
0.7770	49728.32	3.1580	3.1580	-0.1868	8.32	2.32	-0.750			
0.7776	49763.94	3.1550	3.1552	-0.1842	8.33	2.33	-0.750			
0.7781	49799.01	3.1520	3.1520	-0.1815	8.34	2.34	-0.750			
0.7787	49833.76	3.1490	3.1489	-0.1788	8.34	2.34	-0.750			
0.7792	49867.44	3.1460	3.1460	-0.1758	8.35	2.35	-0.750			
0.7797	49901.00	3.1430	3.1431	-0.1738	8.36	2.36	-0.750			
0.7802	49934.25	3.1400	3.1400	-0.1725	8.36	2.36	-0.750			
0.7807	49967.12	3.1370	3.1369	-0.1707	8.37	2.37	-0.750			
0.7812	49999.50	3.1340	3.1339	-0.1684	8.38	2.38	-0.750			
0.7817	50031.73	3.1310	3.1311	-0.1673	8.38	2.38	-0.750			
0.7823	50064.04	3.1280	3.1281	-0.1654	8.39	2.39	-0.750			
0.7827	50095.67	3.1250	3.1251	-0.1644	8.40	2.40	-0.750			
0.7832	50126.89	3.1220	3.1219	-0.1624	8.40	2.40	-0.750			
0.7837	50157.93	3.1190	3.1191	-0.1609	8.41	2.41	-0.750			
0.7842	50188.44	3.1160	3.1159	-0.1598	8.42	2.42	-0.750			
0.7847	50219.17	3.1130	3.1130	-0.1582	8.42	2.42	-0.750			
0.7851	50249.42	3.1100	3.1101	-0.1569	8.43	2.43	-0.750			
0.7856	50279.51	3.1070	3.1069	-0.1554	8.44	2.44	-0.750			
0.7861	50309.43	3.1040	3.1041	-0.1540	8.44	2.44	-0.750			
0.7865	50338.58	3.1010	3.1009	-0.1520	8.45	2.45	-0.750			
0.7870	50367.65	3.0980	3.0980	-0.1505	8.46	2.46	-0.750			
0.7874	50396.32	3.0950	3.0951	-0.1496	8.46	2.46	-0.750			
0.7879	50424.64	3.0920	3.0920	-0.1485	8.47	2.47	-0.750			
0.7883	50453.50	3.0890	3.0889	-0.1474	8.48	2.48	-0.750			
0.7888	50481.66	3.0860	3.0859	-0.1459	8.48	2.48	-0.750			
0.7892	50509.60	3.0830	3.0831	-0.1442	8.49	2.49	-0.750			
0.7896	50537.06	3.0800	3.0801	-0.1435	8.50	2.50	-0.750			
0.7901	50564.39	3.0770	3.0769	-0.1422	8.50	2.50	-0.750			
0.7905	50591.52	3.0740	3.0740	-0.1415	8.51	2.51	-0.750			
0.7909	50618.35	3.0710	3.0709	-0.1404	8.52	2.52	-0.750			
0.7913	50645.28	3.0680	3.0682	-0.1391	8.52	2.52	-0.750			
0.7918	50672.54	3.0650	3.0649	-0.1381	8.53	2.53	-0.750			
0.7922	50698.56	3.0620	3.0621	-0.1367	8.54	2.54	-0.750			
0.7926	50724.70	3.0590	3.0591	-0.1351	8.54	2.54	-0.750			
0.7930	50750.17	3.0560	3.0560	-0.1337	8.55	2.55	-0.750			
0.7934	50775.65	3.0530	3.0529	-0.1327	8.55	2.55	-0.750			
0.7938	50800.86	3.0500	3.0499	-0.1315	8.56	2.56	-0.750			
0.7942	50826.02	3.0470	3.0472	-0.1314	8.57	2.57	-0.750			
0.7946	50851.31	3.0440	3.0441	-0.1314	8.57	2.57	-0.750			
0.7950	50876.99	3.0410	3.0408	-0.1308	8.58	2.58	-0.750			
0.7953	50901.97	3.0380	3.0379	-0.1294	8.59	2.59	-0.750			
0.7957	50926.51	3.0350	3.0352	-0.1279	8.59	2.59	-0.750			
0.7961	50950.88	3.0320	3.0321	-0.1277	8.60	2.60	-0.750			
0.7965	50975.31	3.0290	3.0291	-0.1269	8.60	2.60	-0.750			
0.7969	50999.61	3.0260	3.0259	-0.1258	8.61	2.61	-0.750			
0.7972	51023.42	3.0230	3.0229	-0.1244	8.62	2.62	-0.750			
0.7976	51047.39	3.0200	3.0201	-0.1239	8.62	2.62	-0.750			
0.7980	51071.43	3.0170	3.0170	-0.1239	8.63	2.63	-0.750			
0.7984	51095.08	3.0140	3.0140	-0.1229	8.63	2.63	-0.750			
0.7987	51118.69	3.0110	3.0110	-0.1220	8.64	2.64	-0.750			
0.7991	51142.00	3.0080	3.0079	-0.1208	8.65	2.65	-0.750			
0.7994	51164.80	3.0050	3.0050	-0.1208	8.65	2.65	-0.750			
0.7998	51187.99	3.0020	3.0020	-0.1208	8.66	2.66	-0.750			
