Ah_balance (normalized)	Ah_balance (mAh)	Voltage - fit (V)	Voltage -  interpolate (V)	dQ/dV (1/V)	Temperature (°C)	Temperature - diff (°C)	Current (C)	R_DC 0ms (mOhm)	R_DC 50ms (mOhm)	R_DC 50 ms PEC (mOhm)
0.0003	20.72	4.1100	4.1093	-0.0796	5.96	-0.02	-0.750			
0.0006	39.93	4.1070	4.1067	-0.1101	5.96	-0.02	-0.750			
0.0010	63.57	4.1040	4.1040	-0.1362	5.96	-0.02	-0.750			
0.0014	92.79	4.1010	4.1009	-0.1599	5.96	-0.02	-0.750			
0.0020	125.79	4.0980	4.0982	-0.1841	5.96	-0.02	-0.750			
0.0026	164.35	4.0950	4.0950	-0.2087	5.96	-0.02	-0.750			
0.0032	206.61	4.0920	4.0920	-0.2307	5.97	-0.01	-0.750			
0.0040	253.34	4.0890	4.0888	-0.2520	5.97	-0.01	-0.750			
0.0047	302.98	4.0860	4.0861	-0.2748	5.97	-0.01	-0.750			
0.0056	358.02	4.0830	4.0831	-0.2985	5.97	-0.01	-0.750			
0.0065	417.28	4.0800	4.0800	-0.3249	5.97	-0.01	-0.750			
0.0075	481.78	4.0770	4.0770	-0.3501	5.97	-0.01	-0.750			
0.0086	551.65	4.0740	4.0740	-0.3766	5.97	-0.01	-0.750			
0.0098	627.83	4.0710	4.0710	-0.3986	5.98	-0.00	-0.750			
0.0110	706.88	4.0680	4.0680	-0.4244	5.98	-0.00	-0.750			
0.0123	790.35	4.0650	4.0653	-0.4438	5.98	-0.00	-0.750			
0.0137	877.59	4.0620	4.0618	-0.4639	5.98	0.00	-0.750			
0.0151	967.19	4.0590	4.0590	-0.4854	5.98	0.00	-0.750			
0.0166	1062.17	4.0560	4.0561	-0.5064	5.99	0.01	-0.750			
0.0182	1163.59	4.0530	4.0530	-0.5305	5.99	0.01	-0.750			
0.0198	1267.36	4.0500	4.0500	-0.5476	5.99	0.01	-0.750			
0.0215	1373.39	4.0470	4.0472	-0.5639	5.99	0.01	-0.750			
0.0232	1484.42	4.0440	4.0440	-0.5848	6.00	0.02	-0.750			
0.0250	1597.65	4.0410	4.0410	-0.6012	6.00	0.02	-0.750			
0.0268	1715.00	4.0380	4.0380	-0.6150	6.00	0.02	-0.750			
0.0287	1834.71	4.0350	4.0351	-0.6353	6.01	0.03	-0.750			
0.0306	1958.71	4.0320	4.0320	-0.6506	6.01	0.03	-0.750			
0.0326	2085.46	4.0290	4.0290	-0.6608	6.02	0.04	-0.750			
0.0346	2214.11	4.0260	4.0260	-0.6686	6.02	0.04	-0.750			
0.0366	2342.92	4.0230	4.0230	-0.6822	6.03	0.05	-0.750			
0.0387	2475.87	4.0200	4.0199	-0.6892	6.03	0.05	-0.750			
0.0408	2609.46	4.0170	4.0169	-0.6948	6.04	0.06	-0.750			
0.0429	2742.77	4.0140	4.0141	-0.6982	6.04	0.06	-0.750			
0.0450	2876.93	4.0110	4.0111	-0.7099	6.05	0.07	-0.750			
0.0471	3015.05	4.0080	4.0080	-0.7200	6.05	0.07	-0.750			
0.0493	3153.90	4.0050	4.0049	-0.7240	6.06	0.08	-0.750			
0.0514	3292.46	4.0020	4.0021	-0.7274	6.07	0.09	-0.750			
0.0537	3434.90	3.9990	3.9991	-0.7355	6.07	0.09	-0.750			
0.0559	3575.90	3.9960	3.9960	-0.7388	6.08	0.10	-0.750			
0.0581	3718.25	3.9930	3.9930	-0.7383	6.09	0.11	-0.750			
0.0603	3858.51	3.9900	3.9899	-0.7411	6.10	0.12	-0.750			
0.0625	4002.23	3.9870	3.9871	-0.7481	6.11	0.13	-0.750			
0.0648	4147.37	3.9840	3.9840	-0.7508	6.12	0.14	-0.750			
0.0671	4291.97	3.9810	3.9809	-0.7552	6.12	0.14	-0.750			
0.0693	4437.25	3.9780	3.9781	-0.7583	6.13	0.15	-0.750			
0.0716	4583.48	3.9750	3.9749	-0.7562	6.13	0.15	-0.750			
0.0739	4729.71	3.9720	3.9719	-0.7532	6.14	0.16	-0.750			
0.0761	4871.44	3.9690	3.9691	-0.7507	6.14	0.16	-0.750			
0.0783	5014.25	3.9660	3.9661	-0.7565	6.15	0.17	-0.750			
0.0806	5161.15	3.9630	3.9629	-0.7601	6.16	0.18	-0.750			
0.0829	5305.55	3.9600	3.9600	-0.7671	6.17	0.19	-0.750			
0.0852	5454.09	3.9570	3.9570	-0.7773	6.18	0.20	-0.750			
0.0876	5606.96	3.9540	3.9541	-0.7860	6.19	0.21	-0.750			
0.0900	5758.52	3.9510	3.9510	-0.7892	6.20	0.22	-0.750			
0.0924	5910.60	3.9480	3.9481	-0.7878	6.21	0.23	-0.750			
0.0947	6062.52	3.9450	3.9449	-0.7901	6.21	0.23	-0.750			
0.0971	6216.00	3.9420	3.9420	-0.7886	6.22	0.24	-0.750			
0.0995	6365.80	3.9390	3.9391	-0.7805	6.23	0.25	-0.750			
0.1018	6514.45	3.9360	3.9359	-0.7822	6.24	0.26	-0.750			
0.1041	6664.17	3.9330	3.9330	-0.7829	6.25	0.27	-0.750			
0.1064	6811.58	3.9300	3.9300	-0.7833	6.26	0.28	-0.750			
0.1088	6962.66	3.9270	3.9270	-0.7890	6.27	0.29	-0.750			
0.1112	7115.24	3.9240	3.9241	-0.7975	6.27	0.29	-0.750			
0.1136	7271.08	3.9210	3.9209	-0.8030	6.28	0.30	-0.750			
0.1160	7425.76	3.9180	3.9181	-0.8120	6.29	0.31	-0.750			
0.1185	7583.37	3.9150	3.9150	-0.8111	6.30	0.32	-0.750			
0.1209	7739.59	3.9120	3.9120	-0.8135	6.31	0.33	-0.750			
0.1234	7896.56	3.9090	3.9090	-0.8120	6.32	0.34	-0.750			
0.1258	8052.25	3.9060	3.9060	-0.8111	6.33	0.35	-0.750			
0.1282	8205.54	3.9030	3.9029	-0.8112	6.34	0.36	-0.750			
0.1306	8361.24	3.9000	3.9001	-0.8163	6.35	0.37	-0.750			
0.1331	8519.58	3.8970	3.8968	-0.8080	6.36	0.38	-0.750			
0.1356	8675.57	3.8940	3.8939	-0.8100	6.37	0.39	-0.750			
0.1380	8830.39	3.8910	3.8913	-0.8067	6.38	0.40	-0.750			
0.1404	8984.63	3.8880	3.8880	-0.8079	6.39	0.41	-0.750			
0.1428	9137.75	3.8850	3.8849	-0.8117	6.40	0.42	-0.750			
0.1452	9292.67	3.8820	3.8819	-0.8209	6.41	0.43	-0.750			
0.1477	9450.21	3.8790	3.8790	-0.8326	6.42	0.44	-0.750			
0.1502	9614.84	3.8760	3.8760	-0.8414	6.43	0.45	-0.750			
0.1528	9779.74	3.8730	3.8730	-0.8399	6.44	0.46	-0.750			
0.1554	9943.06	3.8700	3.8701	-0.8369	6.46	0.48	-0.750			
0.1579	10103.02	3.8670	3.8671	-0.8312	6.47	0.49	-0.750			
0.1603	10260.15	3.8640	3.8640	-0.8257	6.48	0.50	-0.750			
0.1628	10416.71	3.8610	3.8611	-0.8273	6.49	0.51	-0.750			
0.1652	10572.94	3.8580	3.8580	-0.8297	6.50	0.52	-0.750			
0.1677	10733.26	3.8550	3.8550	-0.8431	6.51	0.53	-0.750			
0.1703	10900.42	3.8520	3.8520	-0.8469	6.52	0.54	-0.750			
0.1729	11063.51	3.8490	3.8489	-0.8536	6.52	0.54	-0.750			
0.1754	11227.89	3.8460	3.8461	-0.8539	6.53	0.55	-0.750			
0.1780	11391.59	3.8430	3.8430	-0.8520	6.54	0.56	-0.750			
0.1806	11556.24	3.8400	3.8399	-0.8563	6.55	0.57	-0.750			
0.1831	11720.72	3.8370	3.8371	-0.8541	6.56	0.58	-0.750			
0.1857	11885.71	3.8340	3.8339	-0.8543	6.57	0.59	-0.750			
0.1883	12050.56	3.8310	3.8312	-0.8509	6.58	0.60	-0.750			
0.1908	12210.44	3.8280	3.8280	-0.8499	6.59	0.61	-0.750			
0.1933	12373.23	3.8250	3.8249	-0.8562	6.60	0.62	-0.750			
0.1959	12534.95	3.8220	3.8221	-0.8574	6.61	0.63	-0.750			
0.1985	12704.31	3.8190	3.8188	-0.8654	6.62	0.64	-0.750			
0.2011	12872.77	3.8160	3.8161	-0.8695	6.63	0.65	-0.750			
0.2037	13039.69	3.8130	3.8131	-0.8746	6.65	0.67	-0.750			
0.2064	13209.93	3.8100	3.8098	-0.8701	6.66	0.68	-0.750			
0.2090	13374.29	3.8070	3.8070	-0.8569	6.67	0.69	-0.750			
0.2116	13539.59	3.8040	3.8039	-0.8571	6.68	0.70	-0.750			
0.2141	13702.83	3.8010	3.8012	-0.8570	6.68	0.70	-0.750			
0.2167	13867.36	3.7980	3.7978	-0.8604	6.69	0.71	-0.750			
0.2192	14030.07	3.7950	3.7951	-0.8577	6.70	0.72	-0.750			
0.2218	14193.17	3.7920	3.7920	-0.8601	6.70	0.72	-0.750			
0.2244	14362.42	3.7890	3.7891	-0.8807	6.71	0.73	-0.750			
0.2271	14532.27	3.7860	3.7860	-0.8849	6.72	0.74	-0.750			
0.2297	14702.22	3.7830	3.7829	-0.8878	6.73	0.75	-0.750			
0.2324	14873.09	3.7800	3.7800	-0.8911	6.74	0.76	-0.750			
0.2351	15044.36	3.7770	3.7771	-0.8956	6.75	0.77	-0.750			
0.2378	15218.40	3.7740	3.7739	-0.8998	6.76	0.78	-0.750			
0.2405	15389.74	3.7710	3.7709	-0.9010	6.77	0.79	-0.750			
0.2432	15563.26	3.7680	3.7681	-0.8919	6.77	0.79	-0.750			
0.2459	15735.33	3.7650	3.7650	-0.8918	6.78	0.80	-0.750			
0.2485	15906.75	3.7620	3.7621	-0.8927	6.79	0.81	-0.750			
0.2512	16076.50	3.7590	3.7589	-0.8931	6.79	0.81	-0.750			
0.2538	16245.02	3.7560	3.7560	-0.8952	6.80	0.82	-0.750			
0.2565	16416.91	3.7530	3.7530	-0.9069	6.81	0.83	-0.750			
0.2593	16592.72	3.7500	3.7500	-0.9104	6.81	0.83	-0.750			
0.2621	16771.45	3.7470	3.7469	-0.9192	6.82	0.84	-0.750			
0.2648	16948.60	3.7440	3.7441	-0.9200	6.83	0.85	-0.750			
0.2676	17126.01	3.7410	3.7410	-0.9169	6.84	0.86	-0.750			
0.2703	17300.80	3.7380	3.7379	-0.9086	6.85	0.87	-0.750			
0.2730	17473.63	3.7350	3.7350	-0.9103	6.86	0.88	-0.750			
0.2757	17646.77	3.7320	3.7321	-0.9045	6.87	0.89	-0.750			
0.2785	17820.87	3.7290	3.7287	-0.9145	6.88	0.90	-0.750			
0.2812	17997.08	3.7260	3.7261	-0.9163	6.88	0.90	-0.750			
0.2839	18171.16	3.7230	3.7230	-0.9325	6.89	0.91	-0.750			
0.2867	18351.50	3.7200	3.7201	-0.9504	6.90	0.92	-0.750			
0.2896	18536.74	3.7170	3.7168	-0.9618	6.91	0.93	-0.750			
0.2925	18722.40	3.7140	3.7139	-0.9631	6.91	0.93	-0.750			
0.2955	18911.33	3.7110	3.7111	-0.9665	6.92	0.94	-0.750			
0.2984	19097.93	3.7080	3.7081	-0.9572	6.93	0.95	-0.750			
0.3013	19283.39	3.7050	3.7050	-0.9589	6.93	0.95	-0.750			
0.3041	19464.01	3.7020	3.7019	-0.9560	6.94	0.96	-0.750			
0.3070	19646.23	3.6990	3.6989	-0.9530	6.94	0.96	-0.750			
0.3098	19830.20	3.6960	3.6959	-0.9567	6.95	0.97	-0.750			
0.3127	20015.38	3.6930	3.6933	-0.9570	6.95	0.97	-0.750			
0.3156	20198.47	3.6900	3.6901	-0.9710	6.96	0.98	-0.750			
0.3185	20385.27	3.6870	3.6869	-0.9763	6.96	0.98	-0.750			
0.3214	20567.56	3.6840	3.6840	-0.9851	6.97	0.99	-0.750			
0.3244	20760.44	3.6810	3.6810	-1.0123	6.98	1.00	-0.750			
0.3275	20957.37	3.6780	3.6780	-1.0195	6.99	1.01	-0.750			
0.3306	21156.65	3.6750	3.6749	-1.0341	6.99	1.01	-0.750			
0.3337	21356.22	3.6720	3.6721	-1.0440	7.00	1.02	-0.750			
0.3368	21556.97	3.6690	3.6688	-1.0438	7.01	1.03	-0.750			
0.3400	21760.73	3.6660	3.6659	-1.0550	7.01	1.03	-0.750			
0.3432	21962.84	3.6630	3.6630	-1.0528	7.02	1.04	-0.750			
0.3463	22164.23	3.6600	3.6601	-1.0553	7.02	1.04	-0.750			
0.3495	22367.78	3.6570	3.6571	-1.0635	7.03	1.05	-0.750			
0.3526	22568.73	3.6540	3.6540	-1.0827	7.03	1.05	-0.750			
0.3559	22779.14	3.6510	3.6507	-1.0930	7.04	1.06	-0.750			
0.3593	22992.89	3.6480	3.6479	-1.1036	7.04	1.06	-0.750			
0.3626	23203.56	3.6450	3.6455	-1.1234	7.05	1.07	-0.750			
0.3660	23424.35	3.6420	3.6418	-1.1375	7.06	1.08	-0.750			
0.3694	23642.11	3.6390	3.6390	-1.1518	7.06	1.08	-0.750			
0.3728	23862.38	3.6360	3.6359	-1.1533	7.07	1.09	-0.750			
0.3764	24087.55	3.6330	3.6329	-1.1743	7.07	1.09	-0.750			
0.3800	24316.95	3.6300	3.6300	-1.1810	7.07	1.09	-0.750			
0.3835	24544.27	3.6270	3.6271	-1.1862	7.08	1.10	-0.750			
0.3870	24768.63	3.6240	3.6241	-1.1831	7.08	1.10	-0.750			
0.3906	24999.93	3.6210	3.6209	-1.2137	7.09	1.11	-0.750			
0.3942	25231.95	3.6180	3.6178	-1.2121	7.09	1.11	-0.750			
0.3979	25465.49	3.6150	3.6149	-1.2422	7.10	1.12	-0.750			
0.4017	25706.12	3.6120	3.6122	-1.2544	7.10	1.12	-0.750			
0.4055	25954.06	3.6090	3.6088	-1.2688	7.10	1.12	-0.750			
0.4094	26198.41	3.6060	3.6059	-1.2729	7.11	1.13	-0.750	0.412	1.007	
0.4131	26437.41	3.6030	3.6032	-1.2832	7.11	1.13	-0.750			
0.4170	26689.10	3.6000	3.6000	-1.3100	7.11	1.13	-0.750			
0.4210	26943.47	3.5970	3.5968	-1.3276	7.12	1.14	-0.750			
0.4249	27195.84	3.5940	3.5942	-1.3438	7.12	1.14	-0.750			
0.4291	27460.57	3.5910	3.5909	-1.3717	7.12	1.14	-0.750			
0.4333	27728.39	3.5880	3.5880	-1.3780	7.13	1.15	-0.750			
0.4374	27996.28	3.5850	3.5852	-1.3844	7.13	1.15	-0.750			
0.4416	28263.50	3.5820	3.5820	-1.3896	7.13	1.15	-0.750			
0.4457	28527.04	3.5790	3.5791	-1.4177	7.14	1.16	-0.750			
0.4500	28797.51	3.5760	3.5760	-1.4328	7.14	1.16	-0.750			
0.4544	29079.06	3.5730	3.5728	-1.4480	7.14	1.16	-0.750			
0.4587	29359.84	3.5700	3.5703	-1.4529	7.14	1.16	-0.750			
0.4631	29639.55	3.5670	3.5671	-1.4919	7.14	1.16	-0.750			
0.4676	29927.70	3.5640	3.5640	-1.4963	7.15	1.17	-0.750			
0.4721	30214.39	3.5610	3.5608	-1.5198	7.16	1.18	-0.750			
0.4767	30507.83	3.5580	3.5580	-1.5439	7.16	1.18	-0.750			
0.4815	30813.05	3.5550	3.5552	-1.5644	7.17	1.19	-0.750			
0.4862	31114.41	3.5520	3.5521	-1.5890	7.17	1.19	-0.750			
0.4910	31424.57	3.5490	3.5489	-1.5806	7.17	1.19	-0.750			
0.4957	31725.30	3.5460	3.5459	-1.5979	7.18	1.20	-0.750			
0.5006	32038.32	3.5430	3.5431	-1.5934	7.18	1.20	-0.750			
0.5053	32340.96	3.5400	3.5399	-1.5848	7.18	1.20	-0.750			
0.5101	32644.47	3.5370	3.5370	-1.5931	7.18	1.20	-0.750			
0.5149	32954.74	3.5340	3.5339	-1.5927	7.18	1.20	-0.750			
0.5196	33255.01	3.5310	3.5309	-1.5950	7.19	1.21	-0.750			
0.5244	33563.73	3.5280	3.5279	-1.6285	7.20	1.22	-0.750			
0.5293	33874.36	3.5250	3.5250	-1.6461	7.20	1.22	-0.750			
0.5343	34195.18	3.5220	3.5221	-1.6953	7.21	1.23	-0.750			
0.5395	34526.08	3.5190	3.5189	-1.6994	7.21	1.23	-0.750			
0.5447	34859.38	3.5160	3.5160	-1.6925	7.22	1.24	-0.750			
0.5498	35189.32	3.5130	3.5131	-1.7054	7.23	1.25	-0.750			
0.5549	35514.41	3.5100	3.5099	-1.6845	7.23	1.25	-0.750			
0.5600	35840.06	3.5070	3.5069	-1.6742	7.24	1.26	-0.750			
0.5649	36152.89	3.5040	3.5040	-1.6629	7.24	1.26	-0.750			
0.5698	36466.90	3.5010	3.5012	-1.6676	7.25	1.27	-0.750			
0.5749	36792.11	3.4980	3.4981	-1.6751	7.25	1.27	-0.750			
0.5799	37112.33	3.4950	3.4948	-1.6640	7.26	1.28	-0.750			
0.5849	37434.55	3.4920	3.4921	-1.6643	7.27	1.29	-0.750			
0.5900	37759.42	3.4890	3.4887	-1.6526	7.27	1.29	-0.750			
0.5949	38073.01	3.4860	3.4862	-1.6560	7.28	1.30	-0.750			
0.5999	38392.06	3.4830	3.4830	-1.6252	7.29	1.31	-0.750			
0.6047	38699.27	3.4800	3.4798	-1.6078	7.29	1.31	-0.750			
0.6094	39004.61	3.4770	3.4771	-1.5953	7.30	1.32	-0.750			
0.6143	39314.26	3.4740	3.4740	-1.5888	7.30	1.32	-0.750			
0.6190	39618.99	3.4710	3.4709	-1.5745	7.31	1.33	-0.750			
0.6238	39924.29	3.4680	3.4681	-1.5612	7.32	1.34	-0.750			
0.6285	40222.15	3.4650	3.4649	-1.5503	7.33	1.35	-0.750			
0.6331	40515.54	3.4620	3.4618	-1.5187	7.34	1.36	-0.750			
0.6375	40799.99	3.4590	3.4592	-1.4917	7.35	1.37	-0.750			
0.6419	41083.08	3.4560	3.4559	-1.4802	7.36	1.38	-0.750			
0.6464	41369.13	3.4530	3.4530	-1.4731	7.36	1.38	-0.750			
0.6508	41650.21	3.4500	3.4499	-1.4546	7.37	1.39	-0.750			
0.6552	41933.56	3.4470	3.4470	-1.4338	7.38	1.40	-0.750			
0.6595	42205.49	3.4440	3.4440	-1.3994	7.39	1.41	-0.750			
0.6636	42473.16	3.4410	3.4410	-1.3740	7.40	1.42	-0.750			
0.6677	42731.62	3.4380	3.4380	-1.3326	7.41	1.43	-0.750			
0.6716	42983.05	3.4350	3.4349	-1.2997	7.42	1.44	-0.750			
0.6754	43227.44	3.4320	3.4322	-1.2702	7.43	1.45	-0.750			
0.6792	43469.98	3.4290	3.4289	-1.2456	7.44	1.46	-0.750			
0.6829	43705.97	3.4260	3.4260	-1.2207	7.46	1.48	-0.750			
0.6865	43935.53	3.4230	3.4230	-1.1941	7.47	1.49	-0.750			
0.6901	44165.80	3.4200	3.4200	-1.1723	7.48	1.50	-0.750			
0.6936	44389.16	3.4170	3.4170	-1.1396	7.48	1.50	-0.750			
0.6969	44604.79	3.4140	3.4140	-1.1057	7.49	1.51	-0.750			
0.7002	44813.21	3.4110	3.4110	-1.0749	7.50	1.52	-0.750			
0.7034	45017.18	3.4080	3.4079	-1.0400	7.51	1.53	-0.750			
0.7064	45211.71	3.4050	3.4051	-1.0090	7.53	1.55	-0.750			
0.7094	45402.22	3.4020	3.4020	-0.9771	7.54	1.56	-0.750			
0.7123	45589.26	3.3990	3.3991	-0.9501	7.55	1.57	-0.750			
0.7151	45768.24	3.3960	3.3960	-0.9218	7.56	1.58	-0.750			
0.7178	45941.28	3.3930	3.3931	-0.8902	7.57	1.59	-0.750			
0.7205	46108.97	3.3900	3.3899	-0.8612	7.58	1.60	-0.750			
0.7230	46272.25	3.3870	3.3869	-0.8325	7.58	1.60	-0.750			
0.7254	46427.42	3.3840	3.3841	-0.8023	7.59	1.61	-0.750			
0.7278	46579.77	3.3810	3.3810	-0.7761	7.60	1.62	-0.750			
0.7301	46725.63	3.3780	3.3780	-0.7547	7.61	1.63	-0.750			
0.7323	46867.61	3.3750	3.3750	-0.7308	7.63	1.65	-0.750			
0.7345	47004.91	3.3720	3.3720	-0.7107	7.64	1.66	-0.750			
0.7366	47139.90	3.3690	3.3688	-0.6868	7.65	1.67	-0.750			
0.7386	47271.09	3.3660	3.3660	-0.6655	7.66	1.68	-0.750			
0.7406	47396.73	3.3630	3.3630	-0.6378	7.66	1.68	-0.750			
0.7425	47518.06	3.3600	3.3600	-0.6107	7.67	1.69	-0.750			
0.7442	47628.61	3.3570	3.3571	-0.5902	7.68	1.70	-0.750			
0.7460	47742.13	3.3540	3.3540	-0.5728	7.69	1.71	-0.750			
0.7476	47849.10	3.3510	3.3508	-0.5550	7.70	1.72	-0.750			
0.7493	47954.76	3.3480	3.3480	-0.5394	7.71	1.73	-0.750			
0.7509	48056.93	3.3450	3.3451	-0.5246	7.72	1.74	-0.750			
0.7524	48156.69	3.3420	3.3419	-0.5078	7.72	1.74	-0.750			
0.7539	48252.63	3.3390	3.3389	-0.4900	7.73	1.75	-0.750			
0.7554	48342.56	3.3360	3.3361	-0.4737	7.74	1.76	-0.750			
0.7568	48434.43	3.3330	3.3329	-0.4630	7.75	1.77	-0.750			
0.7581	48519.76	3.3300	3.3300	-0.4498	7.76	1.78	-0.750			
0.7595	48605.83	3.3270	3.3270	-0.4396	7.76	1.78	-0.750			
0.7608	48688.57	3.3240	3.3240	-0.4274	7.77	1.79	-0.750			
0.7620	48770.34	3.3210	3.3209	-0.4171	7.78	1.80	-0.750			
0.7633	48849.36	3.3180	3.3181	-0.4052	7.79	1.81	-0.750			
0.7645	48925.65	3.3150	3.3149	-0.3941	7.79	1.81	-0.750			
0.7656	49000.68	3.3120	3.3121	-0.3845	7.80	1.82	-0.750			
0.7668	49072.92	3.3090	3.3089	-0.3713	7.81	1.83	-0.750			
0.7679	49143.32	3.3060	3.3060	-0.3642	7.82	1.84	-0.750			
0.7689	49212.06	3.3030	3.3031	-0.3550	7.83	1.85	-0.750			
0.7700	49278.84	3.3000	3.2999	-0.3470	7.83	1.85	-0.750			
0.7710	49344.44	3.2970	3.2970	-0.3397	7.84	1.86	-0.750			
0.7720	49408.46	3.2940	3.2940	-0.3306	7.85	1.87	-0.750			
0.7730	49471.54	3.2910	3.2910	-0.3236	7.86	1.88	-0.750			
0.7740	49534.68	3.2880	3.2880	-0.3147	7.86	1.88	-0.750			
0.7749	49593.15	3.2850	3.2851	-0.3043	7.87	1.89	-0.750			
0.7758	49650.17	3.2820	3.2820	-0.2976	7.88	1.90	-0.750			
0.7767	49706.26	3.2790	3.2790	-0.2912	7.88	1.90	-0.750			
0.7775	49761.25	3.2760	3.2759	-0.2848	7.89	1.91	-0.750			
0.7784	49815.21	3.2730	3.2731	-0.2797	7.89	1.91	-0.750			
0.7792	49869.03	3.2700	3.2700	-0.2744	7.90	1.92	-0.750			
0.7800	49921.78	3.2670	3.2670	-0.2678	7.91	1.93	-0.750			
0.7808	49972.25	3.2640	3.2639	-0.2593	7.91	1.93	-0.750			
0.7816	50021.02	3.2610	3.2611	-0.2527	7.92	1.94	-0.750			
0.7823	50068.76	3.2580	3.2579	-0.2460	7.92	1.94	-0.750			
0.7830	50115.03	3.2550	3.2550	-0.2414	7.93	1.95	-0.750			
0.7838	50160.65	3.2520	3.2519	-0.2355	7.93	1.95	-0.750			
0.7845	50205.20	3.2490	3.2490	-0.2321	7.94	1.96	-0.750			
0.7852	50249.75	3.2460	3.2460	-0.2278	7.94	1.96	-0.750			
0.7858	50293.28	3.2430	3.2431	-0.2238	7.95	1.97	-0.750			
0.7865	50336.05	3.2400	3.2399	-0.2196	7.95	1.97	-0.750			
0.7871	50377.41	3.2370	3.2370	-0.2155	7.96	1.98	-0.750			
0.7878	50418.30	3.2340	3.2340	-0.2121	7.96	1.98	-0.750			
0.7884	50458.36	3.2310	3.2310	-0.2084	7.97	1.99	-0.750			
0.7890	50498.42	3.2280	3.2279	-0.2042	7.98	2.00	-0.750			
0.7896	50537.00	3.2250	3.2250	-0.1994	7.98	2.00	-0.750			
0.7902	50575.22	3.2220	3.2221	-0.1969	7.99	2.01	-0.750			
0.7908	50612.59	3.2190	3.2190	-0.1924	8.00	2.02	-0.750			
0.7914	50648.93	3.2160	3.2159	-0.1889	8.00	2.02	-0.750			
0.7919	50684.26	3.2130	3.2130	-0.1856	8.01	2.03	-0.750			
0.7925	50719.48	3.2100	3.2100	-0.1828	8.02	2.04	-0.750			
0.7930	50754.41	3.2070	3.2070	-0.1810	8.02	2.04	-0.750			
0.7936	50789.25	3.2040	3.2040	-0.1789	8.03	2.05	-0.750			
0.7941	50823.48	3.2010	3.2010	-0.1763	8.03	2.05	-0.750			
0.7946	50857.33	3.1980	3.1981	-0.1733	8.04	2.06	-0.750			
0.7952	50890.27	3.1950	3.1949	-0.1699	8.04	2.06	-0.750			
0.7957	50922.68	3.1920	3.1920	-0.1669	8.05	2.07	-0.750			
0.7962	50954.20	3.1890	3.1890	-0.1638	8.06	2.08	-0.750			
0.7966	50985.31	3.1860	3.1860	-0.1607	8.06	2.08	-0.750			
0.7971	51015.85	3.1830	3.1830	-0.1583	8.07	2.09	-0.750			
0.7976	51045.69	3.1800	3.1800	-0.1562	8.07	2.09	-0.750			
0.7981	51075.41	3.1770	3.1770	-0.1540	8.07	2.09	-0.750			
0.7985	51104.95	3.1740	3.1740	-0.1525	8.08	2.10	-0.750			
0.7990	51134.06	3.1710	3.1709	-0.1505	8.08	2.10	-0.750			
0.7994	51162.83	3.1680	3.1681	-0.1480	8.09	2.11	-0.750			
0.7999	51191.04	3.1650	3.1649	-0.1462	8.09	2.11	-0.750			
0.8003	51218.89	3.1620	3.1620	-0.1440	8.09	2.11	-0.750			
0.8007	51246.39	3.1590	3.1590	-0.1414	8.10	2.12	-0.750			
0.8011	51273.15	3.1560	3.1559	-0.1391	8.11	2.13	-0.750			
0.8016	51299.38	3.1530	3.1530	-0.1375	8.11	2.13	-0.750			
0.8020	51325.65	3.1500	3.1502	-0.1361	8.12	2.14	-0.750			
0.8024	51351.53	3.1470	3.1469	-0.1343	8.12	2.14	-0.750			
0.8028	51377.38	3.1440	3.1439	-0.1326	8.13	2.15	-0.750			
0.8032	51402.45	3.1410	3.1410	-0.1310	8.13	2.15	-0.750			
0.8036	51427.47	3.1380	3.1382	-0.1297	8.14	2.16	-0.750			
0.8039	51452.47	3.1350	3.1350	-0.1283	8.14	2.16	-0.750			
0.8043	51476.87	3.1320	3.1319	-0.1264	8.15	2.17	-0.750			
0.8047	51500.80	3.1290	3.1290	-0.1243	8.15	2.17	-0.750			
0.8051	51524.53	3.1260	3.1261	-0.1230	8.16	2.18	-0.750			
0.8054	51548.22	3.1230	3.1230	-0.1215	8.16	2.18	-0.750			
0.8058	51571.56	3.1200	3.1199	-0.1198	8.17	2.19	-0.750			
0.8062	51593.97	3.1170	3.1171	-0.1178	8.17	2.19	-0.750			
0.8065	51616.47	3.1140	3.1140	-0.1166	8.17	2.19	-0.750			
0.8069	51638.62	3.1110	3.1110	-0.1160	8.18	2.20	-0.750			
0.8072	51660.85	3.1080	3.1080	-0.1152	8.18	2.20	-0.750			
0.8075	51682.77	3.1050	3.1050	-0.1142	8.19	2.21	-0.750			
0.8079	51704.95	3.1020	3.1019	-0.1128	8.19	2.21	-0.750			
0.8082	51726.76	3.0990	3.0990	-0.1120	8.20	2.22	-0.750			
0.8086	51747.96	3.0960	3.0961	-0.1107	8.20	2.22	-0.750			
0.8089	51769.18	3.0930	3.0931	-0.1095	8.20	2.22	-0.750			
0.8092	51789.96	3.0900	3.0899	-0.1082	8.21	2.23	-0.750			
0.8095	51810.39	3.0870	3.0869	-0.1066	8.21	2.23	-0.750			
0.8099	51830.82	3.0840	3.0840	-0.1055	8.22	2.24	-0.750			
0.8102	51850.90	3.0810	3.0811	-0.1043	8.22	2.24	-0.750			
0.8105	51870.93	3.0780	3.0780	-0.1031	8.22	2.24	-0.750			
0.8108	51890.89	3.0750	3.0750	-0.1023	8.23	2.25	-0.750			
0.8111	51910.19	3.0720	3.0720	-0.1014	8.23	2.25	-0.750			
0.8114	51929.35	3.0690	3.0690	-0.1001	8.24	2.26	-0.750			
0.8117	51948.59	3.0660	3.0661	-0.0990	8.24	2.26	-0.750			
0.8120	51967.49	3.0630	3.0629	-0.0980	8.24	2.26	-0.750			
0.8123	51986.23	3.0600	3.0600	-0.0970	8.25	2.27	-0.750			
0.8126	52004.83	3.0570	3.0571	-0.0962	8.25	2.27	-0.750			
0.8129	52023.03	3.0540	3.0541	-0.0956	8.25	2.27	-0.750			
0.8131	52041.29	3.0510	3.0510	-0.0948	8.26	2.28	-0.750			
0.8134	52059.43	3.0480	3.0480	-0.0942	8.26	2.28	-0.750			
0.8137	52077.23	3.0450	3.0450	-0.0932	8.27	2.29	-0.750			
0.8140	52095.23	3.0420	3.0419	-0.0926	8.27	2.29	-0.750			
0.8143	52113.13	3.0390	3.0391	-0.0923	8.27	2.29	-0.750			
0.8145	52130.78	3.0360	3.0360	-0.0914	8.28	2.30	-0.750			
0.8148	52148.37	3.0330	3.0330	-0.0908	8.28	2.30	-0.750			
0.8151	52165.66	3.0300	3.0299	-0.0898	8.28	2.30	-0.750			
0.8154	52182.71	3.0270	3.0270	-0.0887	8.29	2.31	-0.750			
0.8156	52199.65	3.0240	3.0241	-0.0879	8.29	2.31	-0.750			
0.8159	52216.45	3.0210	3.0210	-0.0871	8.29	2.31	-0.750			
0.8161	52233.01	3.0180	3.0181	-0.0864	8.30	2.32	-0.750			
0.8164	52249.49	3.0150	3.0150	-0.0857	8.30	2.32	-0.750			
0.8167	52265.89	3.0120	3.0120	-0.0851	8.30	2.32	-0.750			
0.8169	52282.07	3.0090	3.0090	-0.0846	8.31	2.33	-0.750			
0.8172	52298.29	3.0060	3.0060	-0.0843	8.31	2.33	-0.750			
0.8174	52314.44	3.0030	3.0031	-0.0845	8.31	2.33	-0.750			
