Ah_balance (normalized)	Ah_balance (mAh)	Voltage - fit (V)	Voltage -  interpolate (V)	dQ/dV (1/V)	Temperature (°C)	Temperature - diff (°C)	Current (C)	R_DC 0ms (mOhm)	R_DC 50ms (mOhm)	R_DC 50 ms PEC (mOhm)
0.0965	6173.48	4.1960	4.1981	0.6822	8.48	2.42	0.750			
0.0988	6324.20	4.1930	4.1949	0.7891	8.47	2.41	0.750			
0.1014	6491.55	4.1900	4.1913	0.8067	8.46	2.40	0.750			
0.1040	6659.02	4.1870	4.1876	0.8080	8.46	2.40	0.750			
0.1064	6809.19	4.1840	4.1844	0.7701	8.45	2.39	0.750			
0.1091	6981.89	4.1810	4.1804	0.7839	8.45	2.39	0.750			
0.1106	7078.51	4.1780	4.1780	0.6795	8.44	2.38	0.750			
0.1126	7208.37	4.1750	4.1749	0.6841	8.44	2.38	0.750			
0.1147	7338.50	4.1720	4.1721	0.6975	8.43	2.37	0.750			
0.1168	7474.65	4.1690	4.1689	0.7066	8.42	2.36	0.750			
0.1190	7614.56	4.1660	4.1659	0.7170	8.42	2.36	0.750			
0.1211	7751.29	4.1630	4.1632	0.7185	8.41	2.35	0.750			
0.1233	7891.06	4.1600	4.1600	0.7211	8.40	2.34	0.750			
0.1255	8029.84	4.1570	4.1570	0.7212	8.40	2.34	0.750			
0.1276	8167.41	4.1540	4.1540	0.7166	8.39	2.33	0.750			
0.1297	8303.58	4.1510	4.1512	0.7132	8.39	2.33	0.750			
0.1319	8440.49	4.1480	4.1479	0.7235	8.38	2.32	0.750			
0.1340	8578.32	4.1450	4.1451	0.7269	8.38	2.32	0.750			
0.1362	8718.92	4.1420	4.1419	0.7324	8.37	2.31	0.750			
0.1385	8861.01	4.1390	4.1391	0.7419	8.36	2.30	0.750			
0.1407	9005.76	4.1360	4.1360	0.7410	8.36	2.30	0.750			
0.1430	9148.84	4.1330	4.1330	0.7461	8.35	2.29	0.750			
0.1451	9289.26	4.1300	4.1300	0.7473	8.34	2.28	0.750			
0.1474	9432.25	4.1270	4.1270	0.7546	8.34	2.28	0.750			
0.1497	9579.55	4.1240	4.1239	0.7556	8.33	2.27	0.750			
0.1520	9725.47	4.1210	4.1210	0.7583	8.32	2.26	0.750			
0.1543	9874.23	4.1180	4.1182	0.7554	8.32	2.26	0.750			
0.1565	10018.92	4.1150	4.1149	0.7560	8.31	2.25	0.750			
0.1588	10161.97	4.1120	4.1120	0.7507	8.31	2.25	0.750			
0.1610	10300.91	4.1090	4.1090	0.7505	8.30	2.24	0.750			
0.1632	10446.29	4.1060	4.1060	0.7576	8.30	2.24	0.750			
0.1656	10596.35	4.1030	4.1029	0.7670	8.29	2.23	0.750			
0.1679	10742.55	4.1000	4.1000	0.7688	8.28	2.22	0.750			
0.1702	10892.45	4.0970	4.0972	0.7782	8.27	2.21	0.750			
0.1725	11039.70	4.0940	4.0941	0.7822	8.27	2.21	0.750			
0.1749	11191.35	4.0910	4.0910	0.7841	8.26	2.20	0.750			
0.1772	11341.72	4.0880	4.0880	0.7903	8.25	2.19	0.750			
0.1796	11495.29	4.0850	4.0850	0.7906	8.24	2.18	0.750			
0.1820	11644.95	4.0820	4.0821	0.7956	8.24	2.18	0.750			
0.1844	11798.93	4.0790	4.0790	0.7953	8.23	2.17	0.750			
0.1867	11950.78	4.0760	4.0756	0.8022	8.22	2.16	0.750			
0.1891	12104.22	4.0730	4.0731	0.8037	8.21	2.15	0.750			
0.1916	12260.88	4.0700	4.0702	0.8078	8.20	2.14	0.750			
0.1940	12417.71	4.0670	4.0670	0.8094	8.20	2.14	0.750			
0.1965	12573.11	4.0640	4.0641	0.8043	8.19	2.13	0.750			
0.1989	12727.15	4.0610	4.0608	0.8085	8.18	2.12	0.750			
0.2013	12882.27	4.0580	4.0581	0.8158	8.18	2.12	0.750			
0.2037	13036.78	4.0550	4.0549	0.8219	8.17	2.11	0.750			
0.2062	13197.10	4.0520	4.0520	0.8311	8.16	2.10	0.750			
0.2087	13357.37	4.0490	4.0489	0.8311	8.16	2.10	0.750			
0.2113	13520.68	4.0460	4.0459	0.8323	8.15	2.09	0.750			
0.2138	13681.78	4.0430	4.0431	0.8346	8.14	2.08	0.750			
0.2163	13840.70	4.0400	4.0400	0.8315	8.13	2.07	0.750			
0.2187	13998.39	4.0370	4.0370	0.8281	8.12	2.06	0.750			
0.2212	14154.51	4.0340	4.0340	0.8335	8.11	2.05	0.750			
0.2237	14315.94	4.0310	4.0311	0.8455	8.10	2.04	0.750			
0.2262	14479.31	4.0280	4.0279	0.8593	8.09	2.03	0.750			
0.2289	14647.09	4.0250	4.0250	0.8663	8.09	2.03	0.750			
0.2315	14813.44	4.0220	4.0219	0.8760	8.08	2.02	0.750			
0.2341	14984.77	4.0190	4.0190	0.8839	8.07	2.01	0.750			
0.2368	15156.67	4.0160	4.0159	0.8862	8.06	2.00	0.750			
0.2395	15326.38	4.0130	4.0130	0.8864	8.05	1.99	0.750			
0.2421	15497.38	4.0100	4.0101	0.8903	8.04	1.98	0.750			
0.2448	15669.03	4.0070	4.0069	0.8820	8.03	1.97	0.750			
0.2475	15838.84	4.0040	4.0041	0.8770	8.02	1.96	0.750			
0.2501	16003.78	4.0010	4.0011	0.8796	8.01	1.95	0.750			
0.2527	16173.55	3.9980	3.9980	0.8801	8.00	1.94	0.750			
0.2553	16341.75	3.9950	3.9949	0.8905	7.99	1.93	0.750			
0.2580	16512.46	3.9920	3.9921	0.8975	7.97	1.91	0.750			
0.2607	16685.89	3.9890	3.9890	0.9089	7.96	1.90	0.750			
0.2635	16865.79	3.9860	3.9861	0.9132	7.96	1.90	0.750			
0.2663	17042.99	3.9830	3.9829	0.9125	7.95	1.89	0.750			
0.2690	17214.80	3.9800	3.9801	0.9191	7.94	1.88	0.750			
0.2718	17392.37	3.9770	3.9771	0.9273	7.94	1.88	0.750			
0.2745	17569.76	3.9740	3.9737	0.9268	7.93	1.87	0.750			
0.2774	17750.44	3.9710	3.9710	0.9206	7.92	1.86	0.750			
0.2801	17926.78	3.9680	3.9682	0.9264	7.91	1.85	0.750			
0.2829	18105.18	3.9650	3.9650	0.9343	7.90	1.84	0.750			
0.2857	18282.98	3.9620	3.9620	0.9411	7.88	1.82	0.750			
0.2885	18462.67	3.9590	3.9590	0.9499	7.87	1.81	0.750			
0.2913	18645.86	3.9560	3.9561	0.9675	7.87	1.81	0.750			
0.2943	18835.83	3.9530	3.9530	0.9843	7.86	1.80	0.750			
0.2973	19029.93	3.9500	3.9501	0.9957	7.85	1.79	0.750			
0.3003	19221.15	3.9470	3.9470	0.9898	7.84	1.78	0.750			
0.3033	19411.50	3.9440	3.9441	0.9905	7.82	1.76	0.750			
0.3063	19600.75	3.9410	3.9411	0.9888	7.81	1.75	0.750			
0.3092	19790.18	3.9380	3.9379	0.9945	7.80	1.74	0.750			
0.3122	19979.05	3.9350	3.9350	0.9980	7.79	1.73	0.750			
0.3152	20171.30	3.9320	3.9320	1.0038	7.78	1.72	0.750			
0.3182	20366.35	3.9290	3.9291	1.0175	7.76	1.70	0.750			
0.3213	20562.47	3.9260	3.9260	1.0300	7.75	1.69	0.750			
0.3244	20761.00	3.9230	3.9228	1.0382	7.74	1.68	0.750			
0.3275	20960.17	3.9200	3.9201	1.0508	7.73	1.67	0.750			
0.3307	21162.35	3.9170	3.9170	1.0693	7.71	1.65	0.750			
0.3339	21369.00	3.9140	3.9140	1.0891	7.70	1.64	0.750			
0.3372	21583.61	3.9110	3.9109	1.0875	7.69	1.63	0.750			
0.3405	21792.45	3.9080	3.9081	1.1008	7.67	1.61	0.750			
0.3438	22006.04	3.9050	3.9051	1.1072	7.66	1.60	0.750			
0.3472	22217.67	3.9020	3.9021	1.1238	7.65	1.59	0.750			
0.3505	22434.42	3.8990	3.8989	1.1192	7.64	1.58	0.750			
0.3539	22648.25	3.8960	3.8961	1.1345	7.63	1.57	0.750			
0.3573	22866.88	3.8930	3.8931	1.1508	7.61	1.55	0.750			
0.3608	23093.40	3.8900	3.8899	1.1655	7.60	1.54	0.750			
0.3643	23315.65	3.8870	3.8871	1.1826	7.59	1.53	0.750			
0.3679	23543.65	3.8840	3.8840	1.2019	7.58	1.52	0.750			
0.3715	23776.67	3.8810	3.8811	1.2160	7.56	1.50	0.750			
0.3752	24014.12	3.8780	3.8779	1.2355	7.54	1.48	0.750			
0.3790	24253.66	3.8750	3.8751	1.2463	7.52	1.46	0.750			
0.3827	24492.83	3.8720	3.8722	1.2739	7.50	1.44	0.750			
0.3866	24739.84	3.8690	3.8689	1.2909	7.48	1.42	0.750	0.401	0.826	
0.3904	24988.07	3.8660	3.8660	1.3113	7.47	1.41	0.750			
0.3944	25239.48	3.8630	3.8629	1.3444	7.45	1.39	0.750			
0.3985	25504.40	3.8600	3.8600	1.3653	7.43	1.37	0.750			
0.4026	25768.51	3.8570	3.8570	1.3853	7.42	1.36	0.750			
0.4068	26036.97	3.8540	3.8541	1.4016	7.40	1.34	0.750			
0.4110	26305.12	3.8510	3.8509	1.4074	7.38	1.32	0.750			
0.4153	26577.56	3.8480	3.8480	1.4284	7.37	1.31	0.750			
0.4196	26853.76	3.8450	3.8450	1.4418	7.35	1.29	0.750			
0.4239	27128.49	3.8420	3.8418	1.4606	7.33	1.27	0.750			
0.4283	27414.35	3.8390	3.8391	1.4758	7.31	1.25	0.750			
0.4328	27697.23	3.8360	3.8361	1.5137	7.29	1.23	0.750			
0.4373	27987.03	3.8330	3.8329	1.5357	7.27	1.21	0.750			
0.4419	28282.61	3.8300	3.8302	1.5657	7.25	1.19	0.750			
0.4467	28586.96	3.8270	3.8271	1.6002	7.23	1.17	0.750			
0.4516	28903.14	3.8240	3.8239	1.6251	7.21	1.15	0.750			
0.4566	29220.39	3.8210	3.8212	1.6462	7.18	1.12	0.750			
0.4616	29539.74	3.8180	3.8182	1.6781	7.15	1.09	0.750			
0.4667	29866.54	3.8150	3.8149	1.6941	7.13	1.07	0.750			
0.4716	30182.91	3.8120	3.8121	1.7119	7.10	1.04	0.750			
0.4767	30510.96	3.8090	3.8091	1.7305	7.08	1.02	0.750			
0.4820	30849.32	3.8060	3.8060	1.7644	7.06	1.00	0.750			
0.4873	31188.75	3.8030	3.8030	1.8104	7.04	0.98	0.750			
0.4929	31544.81	3.8000	3.7998	1.8053	7.01	0.95	0.750			
0.4984	31894.45	3.7970	3.7969	1.8124	6.98	0.92	0.750			
0.5038	32245.38	3.7940	3.7942	1.8137	6.96	0.90	0.750			
0.5092	32587.14	3.7910	3.7908	1.8214	6.93	0.87	0.750			
0.5147	32937.78	3.7880	3.7882	1.8520	6.90	0.84	0.750			
0.5202	33291.23	3.7850	3.7849	1.8715	6.87	0.81	0.750			
0.5260	33664.91	3.7820	3.7819	1.9308	6.84	0.78	0.750			
0.5317	34031.88	3.7790	3.7792	1.9731	6.83	0.77	0.750			
0.5378	34416.33	3.7760	3.7762	2.0364	6.80	0.74	0.750			
0.5438	34804.85	3.7730	3.7729	2.1002	6.77	0.71	0.750			
0.5502	35214.17	3.7700	3.7701	2.1215	6.74	0.68	0.750			
0.5569	35641.09	3.7670	3.7672	2.2093	6.71	0.65	0.750			
0.5635	36064.67	3.7640	3.7638	2.2141	6.68	0.62	0.750			
0.5700	36477.24	3.7610	3.7611	2.3109	6.66	0.60	0.750			
0.5770	36924.92	3.7580	3.7579	2.4107	6.63	0.57	0.750			
0.5846	37411.92	3.7550	3.7549	2.5117	6.60	0.54	0.750			
0.5922	37898.99	3.7520	3.7521	2.6471	6.56	0.50	0.750			
0.6004	38424.10	3.7490	3.7489	2.7596	6.53	0.47	0.750			
0.6086	38952.55	3.7460	3.7459	2.9644	6.50	0.44	0.750			
0.6180	39551.70	3.7430	3.7429	3.0843	6.46	0.40	0.750			
0.6275	40157.35	3.7400	3.7401	3.1590	6.42	0.36	0.750			
0.6370	40768.70	3.7370	3.7370	3.0879	6.39	0.33	0.750			
0.6463	41364.14	3.7340	3.7343	2.9239	6.36	0.30	0.750			
0.6548	41909.63	3.7310	3.7310	2.6569	6.33	0.27	0.750			
0.6622	42380.14	3.7280	3.7281	2.3436	6.31	0.25	0.750			
0.6687	42795.99	3.7250	3.7250	2.0640	6.29	0.23	0.750			
0.6743	43152.84	3.7220	3.7219	1.8256	6.27	0.21	0.750			
0.6794	43483.07	3.7190	3.7191	1.6353	6.25	0.19	0.750			
0.6839	43771.21	3.7160	3.7161	1.4696	6.24	0.18	0.750			
0.6880	44032.58	3.7130	3.7131	1.3228	6.23	0.17	0.750			
0.6918	44272.80	3.7100	3.7101	1.2329	6.22	0.16	0.750			
0.6951	44484.69	3.7070	3.7070	1.1666	6.21	0.15	0.750			
0.6984	44699.78	3.7040	3.7038	1.1345	6.20	0.14	0.750			
0.7017	44908.82	3.7010	3.7010	1.1082	6.19	0.13	0.750			
0.7050	45122.86	3.6980	3.6980	1.0851	6.18	0.12	0.750			
0.7083	45334.12	3.6950	3.6951	1.0710	6.17	0.11	0.750			
0.7116	45541.56	3.6920	3.6920	1.0535	6.16	0.10	0.750			
0.7147	45739.12	3.6890	3.6889	1.0088	6.15	0.09	0.750			
0.7176	45928.06	3.6860	3.6859	0.9913	6.15	0.09	0.750			
0.7205	46112.92	3.6830	3.6831	0.9662	6.14	0.08	0.750			
0.7234	46294.46	3.6800	3.6800	0.9550	6.13	0.07	0.750			
0.7263	46480.39	3.6770	3.6771	0.9379	6.12	0.06	0.750			
0.7290	46657.60	3.6740	3.6739	0.9178	6.11	0.05	0.750			
0.7318	46832.36	3.6710	3.6711	0.9071	6.11	0.05	0.750			
0.7345	47007.25	3.6680	3.6681	0.8986	6.10	0.04	0.750			
0.7371	47173.84	3.6650	3.6650	0.8875	6.09	0.03	0.750			
0.7398	47344.34	3.6620	3.6621	0.8815	6.09	0.03	0.750			
0.7423	47508.98	3.6590	3.6589	0.8782	6.08	0.02	0.750			
0.7450	47679.39	3.6560	3.6559	0.8930	6.08	0.02	0.750			
0.7477	47850.05	3.6530	3.6531	0.8954	6.07	0.01	0.750			
0.7504	48025.02	3.6500	3.6501	0.8917	6.07	0.01	0.750			
0.7532	48202.84	3.6470	3.6469	0.8823	6.07	0.01	0.750			
0.7559	48374.41	3.6440	3.6441	0.8493	6.06	0.00	0.750			
0.7585	48542.12	3.6410	3.6411	0.7956	6.06	0.00	0.750			
0.7608	48692.63	3.6380	3.6379	0.7208	6.06	0.00	0.750			
0.7629	48823.96	3.6350	3.6351	0.6249	6.06	-0.00	0.750			
0.7646	48935.86	3.6320	3.6320	0.5285	6.06	-0.00	0.750			
0.7659	49014.83	3.6290	3.6297	0.4552	6.06	-0.00	0.750			
0.7671	49092.27	3.6260	3.6262	0.3719	6.06	-0.00	0.750			
0.7680	49150.81	3.6230	3.6228	0.2875	6.06	-0.00	0.750			
0.7687	49196.19	3.6200	3.6194	0.2245	6.05	-0.01	0.750			
0.7692	49225.68	3.6170	3.6150	0.1626	6.05	-0.01	0.750			
0.7694	49241.44	3.5960	3.5944	-0.1241	6.05	-0.01	0.750			
0.7695	49247.49	3.6140	3.5167	0.1136	6.05	-0.01	0.757			
0.7697	49261.47	3.5990	3.3227	-0.0845	6.05	-0.01	0.778			
0.7698	49265.50	3.6110	3.2668	0.0740	6.05	-0.01	0.784			
0.7699	49273.89	3.6020	3.1504	-0.0449	6.05	-0.01	0.797			
0.7699	49275.91	3.6080	3.1224	0.0344	6.05	-0.01	0.800			
0.7700	49278.70	3.6050	3.0836	-0.0053	6.05	-0.01	0.804			
