Ah_balance (normalized)	Ah_balance (mAh)	Voltage - fit (V)	Voltage -  interpolate (V)	dQ/dV (1/V)	Temperature (°C)	Temperature - diff (°C)	Current (C)	R_DC 0ms (mOhm)	R_DC 50ms (mOhm)	R_DC 50 ms PEC (mOhm)
0.0931	5957.94	4.1970	4.1996	0.9926	8.23	2.24	0.750			
0.0960	6146.08	4.1940	4.1956	0.9439	8.22	2.23	0.750			
0.0987	6319.43	4.1910	4.1913	0.8763	8.22	2.23	0.750			
0.1012	6479.76	4.1880	4.1879	0.8220	8.22	2.23	0.750			
0.1038	6642.86	4.1850	4.1845	0.7986	8.21	2.22	0.750			
0.1056	6761.22	4.1820	4.1821	0.7183	8.21	2.22	0.750			
0.1078	6899.69	4.1790	4.1791	0.7174	8.21	2.22	0.750			
0.1100	7037.21	4.1760	4.1759	0.7184	8.20	2.21	0.750			
0.1121	7175.09	4.1730	4.1731	0.7228	8.20	2.21	0.750			
0.1143	7312.11	4.1700	4.1700	0.7273	8.20	2.21	0.750			
0.1165	7453.87	4.1670	4.1670	0.7327	8.19	2.20	0.750			
0.1187	7596.40	4.1640	4.1641	0.7392	8.19	2.20	0.750			
0.1209	7738.96	4.1610	4.1609	0.7405	8.18	2.19	0.750			
0.1232	7881.66	4.1580	4.1579	0.7404	8.18	2.19	0.750			
0.1253	8022.14	4.1550	4.1550	0.7410	8.18	2.19	0.750			
0.1276	8166.08	4.1520	4.1521	0.7360	8.17	2.18	0.750			
0.1298	8306.82	4.1490	4.1490	0.7398	8.17	2.18	0.750			
0.1320	8448.95	4.1460	4.1460	0.7394	8.17	2.18	0.750			
0.1342	8590.47	4.1430	4.1431	0.7507	8.16	2.17	0.750			
0.1365	8736.02	4.1400	4.1399	0.7533	8.16	2.17	0.750			
0.1388	8881.49	4.1370	4.1370	0.7548	8.16	2.17	0.750			
0.1410	9027.07	4.1340	4.1342	0.7556	8.15	2.16	0.750			
0.1433	9173.17	4.1310	4.1310	0.7634	8.15	2.16	0.750			
0.1456	9317.18	4.1280	4.1280	0.7654	8.14	2.15	0.750			
0.1479	9464.38	4.1250	4.1248	0.7730	8.14	2.15	0.750			
0.1502	9613.60	4.1220	4.1220	0.7731	8.14	2.15	0.750			
0.1526	9768.30	4.1190	4.1190	0.7761	8.13	2.14	0.750			
0.1549	9916.41	4.1160	4.1161	0.7725	8.12	2.13	0.750			
0.1573	10064.24	4.1130	4.1130	0.7759	8.12	2.13	0.750			
0.1596	10211.28	4.1100	4.1100	0.7754	8.11	2.12	0.750			
0.1618	10357.30	4.1070	4.1069	0.7781	8.11	2.12	0.750			
0.1642	10508.14	4.1040	4.1041	0.7842	8.10	2.11	0.750			
0.1666	10662.09	4.1010	4.1010	0.7917	8.10	2.11	0.750			
0.1690	10814.07	4.0980	4.0981	0.7940	8.09	2.10	0.750			
0.1714	10967.02	4.0950	4.0950	0.7907	8.09	2.10	0.750			
0.1737	11117.32	4.0920	4.0918	0.7991	8.08	2.09	0.750			
0.1761	11271.73	4.0890	4.0892	0.8006	8.08	2.09	0.750			
0.1785	11426.17	4.0860	4.0859	0.7997	8.07	2.08	0.750			
0.1809	11579.71	4.0830	4.0830	0.8101	8.07	2.08	0.750			
0.1833	11734.16	4.0800	4.0803	0.8062	8.06	2.07	0.750			
0.1858	11890.45	4.0770	4.0768	0.8147	8.06	2.07	0.750			
0.1883	12048.56	4.0740	4.0740	0.8215	8.05	2.06	0.750			
0.1907	12206.02	4.0710	4.0712	0.8196	8.05	2.06	0.750			
0.1932	12367.39	4.0680	4.0680	0.8263	8.04	2.05	0.750			
0.1957	12524.18	4.0650	4.0650	0.8208	8.03	2.04	0.750			
0.1982	12682.20	4.0620	4.0620	0.8158	8.02	2.03	0.750			
0.2006	12838.22	4.0590	4.0590	0.8227	8.02	2.03	0.750			
0.2031	12995.78	4.0560	4.0560	0.8164	8.01	2.02	0.750			
0.2055	13152.23	4.0530	4.0530	0.8211	8.01	2.02	0.750			
0.2080	13309.03	4.0500	4.0502	0.8324	8.01	2.02	0.750			
0.2104	13468.29	4.0470	4.0469	0.8418	8.00	2.01	0.750			
0.2130	13630.72	4.0440	4.0439	0.8536	8.00	2.01	0.750			
0.2156	13798.58	4.0410	4.0410	0.8590	7.99	2.00	0.750			
0.2182	13963.41	4.0380	4.0381	0.8608	7.98	1.99	0.750			
0.2208	14133.03	4.0350	4.0350	0.8690	7.98	1.99	0.750			
0.2234	14297.39	4.0320	4.0318	0.8667	7.97	1.98	0.750			
0.2260	14462.60	4.0290	4.0289	0.8593	7.96	1.97	0.750			
0.2286	14627.22	4.0260	4.0260	0.8648	7.96	1.97	0.750			
0.2311	14792.32	4.0230	4.0230	0.8729	7.95	1.96	0.750			
0.2338	14962.35	4.0200	4.0201	0.8682	7.95	1.96	0.750			
0.2364	15131.23	4.0170	4.0168	0.8700	7.94	1.95	0.750			
0.2390	15298.78	4.0140	4.0141	0.8688	7.94	1.95	0.750			
0.2416	15464.27	4.0110	4.0110	0.8647	7.93	1.94	0.750			
0.2442	15629.71	4.0080	4.0080	0.8753	7.93	1.94	0.750			
0.2468	15797.52	4.0050	4.0051	0.8727	7.92	1.93	0.750			
0.2494	15963.97	4.0020	4.0019	0.8795	7.92	1.93	0.750			
0.2521	16137.41	3.9990	3.9991	0.8837	7.91	1.92	0.750			
0.2548	16306.97	3.9960	3.9960	0.8902	7.90	1.91	0.750			
0.2574	16476.58	3.9930	3.9931	0.8966	7.89	1.90	0.750			
0.2601	16648.72	3.9900	3.9899	0.9028	7.88	1.89	0.750			
0.2629	16822.86	3.9870	3.9871	0.9058	7.88	1.89	0.750			
0.2656	16999.94	3.9840	3.9839	0.9163	7.87	1.88	0.750			
0.2684	17175.13	3.9810	3.9811	0.9235	7.86	1.87	0.750			
0.2712	17357.03	3.9780	3.9781	0.9305	7.86	1.87	0.750			
0.2740	17535.12	3.9750	3.9748	0.9308	7.85	1.86	0.750			
0.2768	17713.79	3.9720	3.9722	0.9284	7.84	1.85	0.750			
0.2795	17890.47	3.9690	3.9690	0.9349	7.84	1.85	0.750			
0.2824	18071.00	3.9660	3.9661	0.9374	7.83	1.84	0.750			
0.2852	18250.05	3.9630	3.9629	0.9438	7.82	1.83	0.750			
0.2880	18432.84	3.9600	3.9601	0.9394	7.81	1.82	0.750			
0.2909	18615.57	3.9570	3.9569	0.9489	7.80	1.81	0.750			
0.2937	18797.23	3.9540	3.9540	0.9512	7.80	1.81	0.750			
0.2966	18981.05	3.9510	3.9511	0.9503	7.79	1.80	0.750			
0.2994	19160.94	3.9480	3.9480	0.9566	7.78	1.79	0.750			
0.3023	19345.41	3.9450	3.9450	0.9630	7.77	1.78	0.750			
0.3051	19526.22	3.9420	3.9419	0.9726	7.76	1.77	0.750			
0.3081	19717.51	3.9390	3.9390	0.9879	7.76	1.77	0.750			
0.3111	19908.69	3.9360	3.9357	0.9917	7.75	1.76	0.750			
0.3141	20101.94	3.9330	3.9330	1.0028	7.74	1.75	0.750			
0.3171	20296.20	3.9300	3.9302	1.0126	7.73	1.74	0.750			
0.3201	20487.61	3.9270	3.9270	1.0225	7.71	1.72	0.750			
0.3232	20685.15	3.9240	3.9237	1.0299	7.70	1.71	0.750			
0.3263	20885.57	3.9210	3.9210	1.0255	7.69	1.70	0.750			
0.3295	21085.03	3.9180	3.9181	1.0338	7.69	1.70	0.750			
0.3326	21285.62	3.9150	3.9152	1.0439	7.68	1.69	0.750			
0.3357	21483.50	3.9120	3.9119	1.0493	7.67	1.68	0.750			
0.3388	21680.63	3.9090	3.9090	1.0551	7.66	1.67	0.750			
0.3419	21884.70	3.9060	3.9059	1.0697	7.65	1.66	0.750			
0.3452	22093.20	3.9030	3.9031	1.0955	7.64	1.65	0.750			
0.3486	22309.45	3.9000	3.8998	1.1046	7.63	1.64	0.750			
0.3519	22520.30	3.8970	3.8971	1.1236	7.62	1.63	0.750			
0.3552	22735.65	3.8940	3.8940	1.1444	7.60	1.61	0.750			
0.3587	22955.68	3.8910	3.8909	1.1590	7.59	1.60	0.750			
0.3622	23181.41	3.8880	3.8882	1.1678	7.58	1.59	0.750			
0.3658	23409.46	3.8850	3.8850	1.1781	7.57	1.58	0.750			
0.3693	23638.02	3.8820	3.8823	1.1895	7.56	1.57	0.750			
0.3730	23869.89	3.8790	3.8789	1.1897	7.55	1.56	0.750			
0.3765	24093.23	3.8760	3.8760	1.1961	7.54	1.55	0.750			
0.3800	24321.01	3.8730	3.8731	1.2194	7.52	1.53	0.750			
0.3837	24555.85	3.8700	3.8700	1.2449	7.51	1.52	0.750			
0.3875	24797.08	3.8670	3.8669	1.2713	7.50	1.51	0.750			
0.3914	25047.57	3.8640	3.8640	1.2916	7.48	1.49	0.750			
0.3953	25300.55	3.8610	3.8611	1.3130	7.47	1.48	0.750			
0.3993	25557.53	3.8580	3.8579	1.3401	7.46	1.47	0.750			
0.4033	25811.52	3.8550	3.8550	1.3622	7.44	1.45	0.750			
0.4074	26074.18	3.8520	3.8521	1.3838	7.42	1.43	0.750			
0.4116	26345.45	3.8490	3.8491	1.4103	7.41	1.42	0.750	0.423	0.959	
0.4159	26618.25	3.8460	3.8458	1.4488	7.39	1.40	0.750			
0.4203	26899.87	3.8430	3.8432	1.4906	7.37	1.38	0.750			
0.4248	27188.13	3.8400	3.8400	1.5031	7.36	1.37	0.750			
0.4294	27478.70	3.8370	3.8370	1.5305	7.34	1.35	0.750			
0.4341	27779.64	3.8340	3.8340	1.5360	7.32	1.33	0.750			
0.4387	28077.56	3.8310	3.8312	1.5638	7.30	1.31	0.750			
0.4434	28378.67	3.8280	3.8280	1.5918	7.28	1.29	0.750			
0.4481	28678.07	3.8250	3.8250	1.6306	7.26	1.27	0.750			
0.4530	28994.60	3.8220	3.8218	1.6864	7.24	1.25	0.750			
0.4581	29318.04	3.8190	3.8188	1.7459	7.21	1.22	0.750			
0.4635	29661.68	3.8160	3.8161	1.8028	7.19	1.20	0.750			
0.4692	30029.74	3.8130	3.8129	1.8531	7.17	1.18	0.750			
0.4747	30381.69	3.8100	3.8100	1.8623	7.15	1.16	0.750			
0.4804	30744.63	3.8070	3.8071	1.8573	7.12	1.13	0.750			
0.4859	31098.07	3.8040	3.8038	1.8775	7.10	1.11	0.750			
0.4914	31448.82	3.8010	3.8012	1.9248	7.07	1.08	0.750			
0.4972	31819.35	3.7980	3.7978	2.0012	7.05	1.06	0.750			
0.5034	32215.60	3.7950	3.7949	2.0786	7.02	1.03	0.750			
0.5098	32627.73	3.7920	3.7921	2.1157	6.99	1.00	0.750			
0.5163	33043.87	3.7890	3.7893	2.1620	6.96	0.97	0.750			
0.5227	33453.54	3.7860	3.7858	2.1873	6.93	0.94	0.750			
0.5293	33878.01	3.7830	3.7829	2.2250	6.90	0.91	0.750			
0.5361	34308.04	3.7800	3.7800	2.2698	6.87	0.88	0.750			
0.5431	34759.44	3.7770	3.7770	2.3471	6.84	0.85	0.750			
0.5502	35213.02	3.7740	3.7739	2.3509	6.81	0.82	0.750			
0.5572	35658.94	3.7710	3.7710	2.3892	6.77	0.78	0.750			
0.5644	36122.85	3.7680	3.7681	2.4809	6.74	0.75	0.750			
0.5719	36601.28	3.7650	3.7649	2.5551	6.71	0.72	0.750			
0.5798	37107.01	3.7620	3.7620	2.5659	6.67	0.68	0.750			
0.5877	37613.99	3.7590	3.7590	2.6130	6.63	0.64	0.750			
0.5953	38102.11	3.7560	3.7559	2.5879	6.60	0.61	0.750			
0.6031	38600.79	3.7530	3.7530	2.5996	6.56	0.57	0.750			
0.6110	39105.48	3.7500	3.7501	2.7070	6.52	0.53	0.750			
0.6194	39639.47	3.7470	3.7468	2.8280	6.49	0.50	0.750			
0.6279	40184.17	3.7440	3.7439	2.9494	6.45	0.46	0.750			
0.6370	40768.23	3.7410	3.7410	3.1449	6.42	0.43	0.750			
0.6467	41391.52	3.7380	3.7381	3.2396	6.38	0.39	0.750			
0.6566	42025.35	3.7350	3.7350	3.3234	6.34	0.35	0.750			
0.6665	42657.50	3.7320	3.7320	3.3062	6.30	0.31	0.750			
0.6765	43295.05	3.7290	3.7291	3.3137	6.27	0.28	0.750			
0.6864	43931.92	3.7260	3.7262	3.2045	6.23	0.24	0.750			
0.6960	44545.40	3.7230	3.7232	3.0038	6.20	0.21	0.750			
0.7047	45098.43	3.7200	3.7200	2.7105	6.17	0.18	0.750			
0.7124	45596.49	3.7170	3.7169	2.4087	6.15	0.16	0.750			
0.7190	46013.45	3.7140	3.7143	2.1254	6.13	0.14	0.750			
0.7249	46394.32	3.7110	3.7111	1.9044	6.12	0.13	0.750			
0.7302	46731.37	3.7080	3.7076	1.6988	6.10	0.11	0.750			
0.7348	47028.93	3.7050	3.7049	1.5246	6.09	0.10	0.750			
0.7390	47296.99	3.7020	3.7021	1.3880	6.08	0.09	0.750			
0.7429	47548.64	3.6990	3.6991	1.2887	6.07	0.08	0.750			
0.7466	47781.75	3.6960	3.6961	1.2235	6.06	0.07	0.750			
0.7500	47999.15	3.6930	3.6927	1.1490	6.06	0.07	0.750			
0.7533	48210.73	3.6900	3.6900	1.1105	6.06	0.07	0.750			
0.7566	48420.88	3.6870	3.6870	1.0829	6.05	0.06	0.750			
0.7598	48627.02	3.6840	3.6841	1.0623	6.05	0.06	0.750			
0.7630	48831.61	3.6810	3.6810	1.0351	6.05	0.06	0.750			
0.7660	49024.09	3.6780	3.6781	1.0050	6.04	0.05	0.750			
0.7690	49214.56	3.6750	3.6750	0.9897	6.03	0.04	0.750			
0.7719	49399.58	3.6720	3.6722	0.9733	6.02	0.03	0.750			
0.7748	49586.44	3.6690	3.6689	0.9648	6.02	0.03	0.750			
0.7777	49770.58	3.6660	3.6660	0.9456	6.02	0.03	0.750			
0.7805	49951.85	3.6630	3.6630	0.9246	6.01	0.02	0.750			
0.7833	50130.07	3.6600	3.6601	0.9080	6.01	0.02	0.750			
0.7859	50300.79	3.6570	3.6568	0.8804	6.01	0.02	0.750			
0.7885	50464.87	3.6540	3.6542	0.8590	6.00	0.01	0.750			
0.7910	50626.31	3.6510	3.6509	0.8537	6.00	0.01	0.750			
0.7935	50786.92	3.6480	3.6480	0.8481	5.99	0.00	0.750			
0.7961	50949.90	3.6450	3.6450	0.8428	5.99	-0.00	0.750			
0.7987	51115.12	3.6420	3.6419	0.8409	5.98	-0.01	0.750			
0.8012	51277.72	3.6390	3.6390	0.8206	5.98	-0.01	0.750			
0.8037	51435.24	3.6360	3.6360	0.7915	5.98	-0.01	0.750			
0.8060	51586.94	3.6330	3.6330	0.7597	5.99	-0.00	0.750			
0.8083	51731.18	3.6300	3.6299	0.7145	5.99	-0.00	0.750			
0.8104	51866.85	3.6270	3.6269	0.6639	5.99	-0.00	0.750			
0.8124	51991.25	3.6240	3.6242	0.5988	5.99	0.00	0.750			
0.8141	52103.89	3.6210	3.6210	0.5326	5.99	0.00	0.750			
0.8156	52199.04	3.6180	3.6181	0.4576	5.99	0.00	0.750			
0.8168	52273.37	3.6150	3.6152	0.3881	5.99	0.00	0.750			
0.8178	52339.58	3.6120	3.6122	0.3136	6.00	0.01	0.750			
0.8186	52391.94	3.6090	3.6088	0.2476	6.00	0.01	0.750			
0.8192	52431.07	3.6060	3.6060	0.1854	6.00	0.01	0.750			
0.8197	52459.45	3.6030	3.6026	0.1302	6.00	0.01	0.750			
0.8200	52478.51	3.6000	3.5968	0.0798	6.00	0.01	0.750			
0.8200	52482.47	3.5910	3.5899	-0.0711	6.00	0.01	0.750			
0.8202	52490.37	3.5970	3.5252	0.0300	6.00	0.01	0.755			
0.8202	52491.28	3.5940	3.5174	-0.0206	6.00	0.01	0.755			
