Ah_balance (normalized)	Ah_balance (mAh)	Voltage - fit (V)	Voltage -  interpolate (V)	dQ/dV (1/V)	Temperature (°C)	Temperature - diff (°C)	Current (C)	R_DC 0ms (mOhm)	R_DC 50ms (mOhm)	R_DC 50 ms PEC (mOhm)
0.0000	0.00	4.1020	4.1235	0.0000	6.00	0.00	-0.750			
0.0002	12.26	4.0990	4.0975	-0.0323	6.00	0.00	-0.750			
0.0003	21.51	4.0960	4.0955	-0.0640	6.00	0.00	-0.750			
0.0006	37.99	4.0930	4.0926	-0.0941	6.00	0.00	-0.750			
0.0009	60.28	4.0900	4.0898	-0.1199	6.00	-0.00	-0.750			
0.0014	86.47	4.0870	4.0870	-0.1444	6.00	-0.00	-0.750			
0.0018	116.62	4.0840	4.0841	-0.1697	6.00	-0.00	-0.750			
0.0024	151.55	4.0810	4.0813	-0.1929	6.00	-0.00	-0.750			
0.0030	192.49	4.0780	4.0779	-0.2170	6.00	-0.00	-0.750			
0.0037	235.82	4.0750	4.0751	-0.2383	6.00	-0.00	-0.750			
0.0044	284.01	4.0720	4.0719	-0.2592	6.00	-0.00	-0.750			
0.0052	335.64	4.0690	4.0690	-0.2814	6.00	-0.00	-0.750			
0.0061	391.64	4.0660	4.0661	-0.3048	6.00	-0.00	-0.750			
0.0071	452.06	4.0630	4.0630	-0.3277	6.00	-0.00	-0.750			
0.0081	517.43	4.0600	4.0600	-0.3498	5.99	-0.01	-0.750			
0.0092	587.00	4.0570	4.0570	-0.3724	5.99	-0.01	-0.750			
0.0103	661.88	4.0540	4.0540	-0.3929	5.99	-0.01	-0.750			
0.0116	739.34	4.0510	4.0510	-0.4140	5.99	-0.01	-0.750			
0.0128	819.74	4.0480	4.0481	-0.4353	5.99	-0.01	-0.750			
0.0141	905.43	4.0450	4.0449	-0.4553	5.99	-0.01	-0.750			
0.0155	994.13	4.0420	4.0420	-0.4796	5.99	-0.01	-0.750			
0.0170	1089.54	4.0390	4.0389	-0.4985	5.99	-0.01	-0.750			
0.0186	1188.29	4.0360	4.0360	-0.5145	5.99	-0.01	-0.750			
0.0202	1291.15	4.0330	4.0332	-0.5332	6.00	-0.00	-0.750			
0.0218	1392.42	4.0300	4.0300	-0.5479	6.00	-0.00	-0.750			
0.0234	1499.11	4.0270	4.0271	-0.5637	6.00	-0.00	-0.750			
0.0251	1607.93	4.0240	4.0238	-0.5797	6.00	-0.00	-0.750			
0.0269	1720.34	4.0210	4.0208	-0.5927	6.00	0.00	-0.750			
0.0287	1838.35	4.0180	4.0181	-0.6101	6.01	0.01	-0.750			
0.0306	1956.70	4.0150	4.0151	-0.6201	6.01	0.01	-0.750			
0.0325	2077.86	4.0120	4.0119	-0.6284	6.02	0.02	-0.750			
0.0344	2198.98	4.0090	4.0090	-0.6356	6.02	0.02	-0.750			
0.0363	2320.66	4.0060	4.0061	-0.6451	6.03	0.03	-0.750			
0.0382	2445.75	4.0030	4.0029	-0.6500	6.03	0.03	-0.750			
0.0402	2571.57	4.0000	4.0000	-0.6637	6.04	0.04	-0.750			
0.0422	2698.94	3.9970	3.9971	-0.6743	6.04	0.04	-0.750			
0.0442	2829.37	3.9940	3.9939	-0.6898	6.05	0.05	-0.750			
0.0463	2964.42	3.9910	3.9910	-0.6984	6.06	0.06	-0.750			
0.0485	3101.35	3.9880	3.9880	-0.7020	6.06	0.06	-0.750			
0.0506	3237.27	3.9850	3.9852	-0.7041	6.07	0.07	-0.750			
0.0527	3374.24	3.9820	3.9819	-0.7119	6.07	0.07	-0.750			
0.0548	3509.25	3.9790	3.9791	-0.7079	6.08	0.08	-0.750			
0.0569	3644.35	3.9760	3.9759	-0.7073	6.08	0.08	-0.750			
0.0591	3779.46	3.9730	3.9731	-0.7080	6.09	0.09	-0.750			
0.0612	3917.54	3.9700	3.9700	-0.7139	6.09	0.09	-0.750			
0.0633	4054.08	3.9670	3.9672	-0.7165	6.10	0.10	-0.750			
0.0655	4192.53	3.9640	3.9638	-0.7159	6.11	0.11	-0.750			
0.0676	4328.86	3.9610	3.9611	-0.7195	6.11	0.11	-0.750			
0.0698	4467.19	3.9580	3.9581	-0.7278	6.12	0.12	-0.750			
0.0720	4609.82	3.9550	3.9550	-0.7306	6.13	0.13	-0.750			
0.0742	4750.64	3.9520	3.9519	-0.7263	6.13	0.13	-0.750			
0.0764	4887.93	3.9490	3.9491	-0.7318	6.14	0.14	-0.750			
0.0786	5028.43	3.9460	3.9460	-0.7345	6.15	0.15	-0.750			
0.0808	5171.28	3.9430	3.9428	-0.7359	6.16	0.16	-0.750			
0.0830	5311.01	3.9400	3.9400	-0.7346	6.17	0.17	-0.750			
0.0852	5451.51	3.9370	3.9372	-0.7381	6.18	0.18	-0.750			
0.0874	5593.83	3.9340	3.9340	-0.7531	6.19	0.19	-0.750			
0.0897	5739.15	3.9310	3.9308	-0.7583	6.19	0.19	-0.750			
0.0920	5885.01	3.9280	3.9280	-0.7573	6.20	0.20	-0.750			
0.0943	6033.16	3.9250	3.9251	-0.7645	6.21	0.21	-0.750			
0.0966	6182.21	3.9220	3.9221	-0.7653	6.22	0.22	-0.750			
0.0989	6329.04	3.9190	3.9190	-0.7583	6.22	0.22	-0.750			
0.1011	6471.45	3.9160	3.9159	-0.7548	6.23	0.23	-0.750			
0.1033	6613.79	3.9130	3.9130	-0.7556	6.24	0.24	-0.750			
0.1056	6759.69	3.9100	3.9100	-0.7616	6.25	0.25	-0.750			
0.1079	6906.09	3.9070	3.9069	-0.7682	6.26	0.26	-0.750			
0.1102	7055.71	3.9040	3.9040	-0.7702	6.27	0.27	-0.750			
0.1126	7205.87	3.9010	3.9010	-0.7710	6.28	0.28	-0.750			
0.1149	7354.42	3.8980	3.8980	-0.7736	6.29	0.29	-0.750			
0.1172	7501.39	3.8950	3.8951	-0.7733	6.30	0.30	-0.750			
0.1195	7648.54	3.8920	3.8919	-0.7716	6.30	0.30	-0.750			
0.1218	7797.48	3.8890	3.8890	-0.7704	6.31	0.31	-0.750			
0.1241	7945.59	3.8860	3.8860	-0.7678	6.32	0.32	-0.750			
0.1265	8093.00	3.8830	3.8831	-0.7720	6.33	0.33	-0.750			
0.1288	8241.20	3.8800	3.8799	-0.7750	6.34	0.34	-0.750			
0.1311	8387.46	3.8770	3.8770	-0.7813	6.35	0.35	-0.750			
0.1334	8539.18	3.8740	3.8740	-0.7858	6.36	0.36	-0.750			
0.1358	8691.88	3.8710	3.8710	-0.7908	6.37	0.37	-0.750			
0.1382	8845.77	3.8680	3.8681	-0.7909	6.38	0.38	-0.750			
0.1406	8998.98	3.8650	3.8650	-0.7873	6.39	0.39	-0.750			
0.1430	9149.32	3.8620	3.8620	-0.7822	6.40	0.40	-0.750			
0.1453	9298.15	3.8590	3.8590	-0.7753	6.41	0.41	-0.750			
0.1476	9444.46	3.8560	3.8558	-0.7778	6.42	0.42	-0.750			
0.1499	9593.91	3.8530	3.8532	-0.7835	6.43	0.43	-0.750			
0.1522	9742.92	3.8500	3.8498	-0.7924	6.44	0.44	-0.750			
0.1546	9894.40	3.8470	3.8470	-0.8129	6.45	0.45	-0.750			
0.1571	10055.48	3.8440	3.8439	-0.8109	6.46	0.46	-0.750			
0.1596	10212.94	3.8410	3.8410	-0.8097	6.47	0.47	-0.750			
0.1621	10371.27	3.8380	3.8380	-0.8142	6.47	0.47	-0.750			
0.1645	10526.71	3.8350	3.8349	-0.8033	6.48	0.48	-0.750			
0.1668	10675.61	3.8320	3.8319	-0.8071	6.49	0.49	-0.750			
0.1692	10831.43	3.8290	3.8289	-0.8019	6.50	0.50	-0.750			
0.1716	10983.99	3.8260	3.8260	-0.8044	6.51	0.51	-0.750			
0.1741	11143.52	3.8230	3.8228	-0.8128	6.51	0.51	-0.750			
0.1766	11300.92	3.8200	3.8203	-0.8101	6.52	0.52	-0.750			
0.1790	11454.24	3.8170	3.8168	-0.8091	6.53	0.53	-0.750			
0.1814	11608.45	3.8140	3.8140	-0.8131	6.54	0.54	-0.750			
0.1838	11761.08	3.8110	3.8111	-0.8051	6.55	0.55	-0.750			
0.1863	11920.39	3.8080	3.8078	-0.8203	6.56	0.56	-0.750			
0.1887	12079.34	3.8050	3.8051	-0.8201	6.57	0.57	-0.750			
0.1912	12237.65	3.8020	3.8021	-0.8258	6.58	0.58	-0.750			
0.1937	12398.21	3.7990	3.7989	-0.8249	6.59	0.59	-0.750			
0.1962	12555.07	3.7960	3.7960	-0.8227	6.60	0.60	-0.750			
0.1986	12711.28	3.7930	3.7930	-0.8198	6.61	0.61	-0.750			
0.2011	12869.09	3.7900	3.7900	-0.8217	6.62	0.62	-0.750			
0.2035	13026.61	3.7870	3.7870	-0.8219	6.63	0.63	-0.750			
0.2060	13186.02	3.7840	3.7840	-0.8207	6.64	0.64	-0.750			
0.2085	13342.23	3.7810	3.7810	-0.8205	6.65	0.65	-0.750			
0.2110	13501.47	3.7780	3.7780	-0.8258	6.66	0.66	-0.750			
0.2134	13659.26	3.7750	3.7752	-0.8210	6.67	0.67	-0.750			
0.2159	13816.34	3.7720	3.7719	-0.8235	6.68	0.68	-0.750			
0.2184	13975.66	3.7690	3.7691	-0.8269	6.69	0.69	-0.750			
0.2208	14134.33	3.7660	3.7660	-0.8257	6.69	0.69	-0.750			
0.2233	14294.07	3.7630	3.7629	-0.8377	6.70	0.70	-0.750			
0.2258	14452.17	3.7600	3.7605	-0.8405	6.71	0.71	-0.750			
0.2283	14613.10	3.7570	3.7569	-0.8485	6.72	0.72	-0.750			
0.2309	14778.09	3.7540	3.7539	-0.8562	6.73	0.73	-0.750			
0.2335	14945.59	3.7510	3.7509	-0.8477	6.74	0.74	-0.750			
0.2361	15112.82	3.7480	3.7481	-0.8554	6.75	0.75	-0.750			
0.2387	15274.25	3.7450	3.7451	-0.8447	6.76	0.76	-0.750			
0.2411	15433.01	3.7420	3.7420	-0.8326	6.77	0.77	-0.750			
0.2436	15590.96	3.7390	3.7389	-0.8382	6.77	0.77	-0.750			
0.2461	15747.85	3.7360	3.7360	-0.8458	6.78	0.78	-0.750			
0.2486	15912.85	3.7330	3.7330	-0.8609	6.78	0.78	-0.750			
0.2513	16080.92	3.7300	3.7301	-0.8673	6.79	0.79	-0.750			
0.2539	16249.45	3.7270	3.7270	-0.8694	6.80	0.80	-0.750			
0.2565	16418.07	3.7240	3.7241	-0.8705	6.81	0.81	-0.750			
0.2592	16586.07	3.7210	3.7209	-0.8655	6.82	0.82	-0.750			
0.2617	16749.29	3.7180	3.7181	-0.8675	6.82	0.82	-0.750			
0.2643	16914.78	3.7150	3.7150	-0.8686	6.83	0.83	-0.750			
0.2669	17081.99	3.7120	3.7120	-0.8759	6.84	0.84	-0.750			
0.2696	17251.37	3.7090	3.7090	-0.8825	6.85	0.85	-0.750			
0.2722	17422.01	3.7060	3.7060	-0.8879	6.86	0.86	-0.750			
0.2749	17592.73	3.7030	3.7030	-0.8922	6.87	0.87	-0.750			
0.2776	17764.21	3.7000	3.6999	-0.8978	6.87	0.87	-0.750			
0.2802	17935.52	3.6970	3.6970	-0.8968	6.88	0.88	-0.750			
0.2829	18107.12	3.6940	3.6940	-0.9062	6.88	0.88	-0.750			
0.2856	18280.84	3.6910	3.6910	-0.9162	6.89	0.89	-0.750			
0.2884	18459.47	3.6880	3.6881	-0.9247	6.89	0.89	-0.750			
0.2912	18638.95	3.6850	3.6849	-0.9335	6.90	0.90	-0.750			
0.2941	18821.09	3.6820	3.6821	-0.9372	6.91	0.91	-0.750			
0.2969	19001.92	3.6790	3.6790	-0.9398	6.92	0.92	-0.750			
0.2997	19182.12	3.6760	3.6760	-0.9489	6.93	0.93	-0.750			
0.3026	19363.58	3.6730	3.6729	-0.9482	6.93	0.93	-0.750			
0.3054	19545.33	3.6700	3.6699	-0.9578	6.94	0.94	-0.750			
0.3083	19730.76	3.6670	3.6671	-0.9674	6.95	0.95	-0.750			
0.3112	19917.27	3.6640	3.6639	-0.9758	6.95	0.95	-0.750			
0.3142	20108.15	3.6610	3.6611	-0.9834	6.96	0.96	-0.750			
0.3172	20298.51	3.6580	3.6579	-0.9919	6.97	0.97	-0.750			
0.3202	20489.82	3.6550	3.6550	-0.9898	6.97	0.97	-0.750			
0.3231	20680.38	3.6520	3.6519	-0.9876	6.98	0.98	-0.750			
0.3261	20870.19	3.6490	3.6494	-1.0015	6.98	0.98	-0.750			
0.3291	21062.00	3.6460	3.6459	-1.0015	6.99	0.99	-0.750			
0.3321	21253.27	3.6430	3.6429	-1.0075	6.99	0.99	-0.750			
0.3351	21445.90	3.6400	3.6401	-1.0197	6.99	0.99	-0.750			
0.3382	21645.90	3.6370	3.6371	-1.0435	7.00	1.00	-0.750			
0.3414	21846.52	3.6340	3.6339	-1.0629	7.00	1.00	-0.750			
0.3446	22053.04	3.6310	3.6309	-1.0688	7.01	1.01	-0.750			
0.3478	22258.38	3.6280	3.6280	-1.0815	7.02	1.02	-0.750			
0.3511	22470.12	3.6250	3.6252	-1.0904	7.02	1.02	-0.750			
0.3544	22683.50	3.6220	3.6218	-1.0884	7.03	1.03	-0.750			
0.3577	22892.03	3.6190	3.6190	-1.0848	7.03	1.03	-0.750			
0.3609	23098.08	3.6160	3.6161	-1.0801	7.04	1.04	-0.750			
0.3641	23303.49	3.6130	3.6130	-1.0903	7.04	1.04	-0.750			
0.3674	23512.45	3.6100	3.6100	-1.1032	7.05	1.05	-0.750			
0.3707	23721.95	3.6070	3.6069	-1.1063	7.05	1.05	-0.750			
0.3740	23937.80	3.6040	3.6039	-1.1201	7.06	1.06	-0.750			
0.3774	24153.86	3.6010	3.6011	-1.1501	7.06	1.06	-0.750			
0.3809	24378.34	3.5980	3.5980	-1.1553	7.07	1.07	-0.750			
0.3844	24602.40	3.5950	3.5949	-1.1684	7.07	1.07	-0.750			
0.3879	24825.06	3.5920	3.5921	-1.1807	7.08	1.08	-0.750	0.397	0.895	
0.3915	25056.10	3.5890	3.5891	-1.1903	7.08	1.08	-0.750			
0.3951	25287.94	3.5860	3.5859	-1.2010	7.09	1.09	-0.750			
0.3987	25515.01	3.5830	3.5831	-1.2175	7.09	1.09	-0.750			
0.4023	25748.36	3.5800	3.5799	-1.2155	7.09	1.09	-0.750			
0.4061	25990.23	3.5770	3.5769	-1.2189	7.10	1.10	-0.750			
0.4097	26221.76	3.5740	3.5740	-1.2141	7.10	1.10	-0.750			
0.4133	26451.91	3.5710	3.5714	-1.2240	7.11	1.11	-0.750			
0.4170	26689.02	3.5680	3.5679	-1.2341	7.11	1.11	-0.750			
0.4206	26920.33	3.5650	3.5648	-1.2424	7.12	1.12	-0.750			
0.4243	27156.21	3.5620	3.5620	-1.2764	7.12	1.12	-0.750			
0.4283	27410.23	3.5590	3.5590	-1.2958	7.12	1.12	-0.750			
0.4323	27664.71	3.5560	3.5559	-1.3058	7.13	1.13	-0.750			
0.4362	27917.65	3.5530	3.5529	-1.3078	7.13	1.13	-0.750			
0.4401	28168.57	3.5500	3.5500	-1.3045	7.13	1.13	-0.750			
0.4440	28418.03	3.5470	3.5469	-1.3157	7.14	1.14	-0.750			
0.4479	28667.39	3.5440	3.5440	-1.3166	7.15	1.15	-0.750			
0.4518	28916.94	3.5410	3.5411	-1.3271	7.15	1.15	-0.750			
0.4559	29179.81	3.5380	3.5380	-1.3502	7.16	1.16	-0.750			
0.4600	29442.29	3.5350	3.5350	-1.3598	7.16	1.16	-0.750			
0.4641	29704.33	3.5320	3.5320	-1.3769	7.17	1.17	-0.750			
0.4683	29973.40	3.5290	3.5290	-1.3755	7.18	1.18	-0.750			
0.4725	30237.17	3.5260	3.5259	-1.3744	7.18	1.18	-0.750			
0.4766	30502.27	3.5230	3.5232	-1.3806	7.19	1.19	-0.750			
0.4808	30768.68	3.5200	3.5199	-1.3754	7.20	1.20	-0.750			
0.4849	31032.47	3.5170	3.5169	-1.3646	7.20	1.20	-0.750			
0.4890	31292.94	3.5140	3.5141	-1.3600	7.21	1.21	-0.750			
0.4930	31554.52	3.5110	3.5111	-1.3609	7.22	1.22	-0.750			
0.4971	31816.51	3.5080	3.5079	-1.3488	7.23	1.23	-0.750			
0.5011	32071.10	3.5050	3.5052	-1.3508	7.24	1.24	-0.750			
0.5052	32329.98	3.5020	3.5020	-1.3612	7.25	1.25	-0.750			
0.5092	32590.85	3.4990	3.4990	-1.3730	7.25	1.25	-0.750			
0.5134	32857.00	3.4960	3.4962	-1.3851	7.26	1.26	-0.750			
0.5176	33129.27	3.4930	3.4930	-1.3859	7.27	1.27	-0.750			
0.5218	33396.82	3.4900	3.4899	-1.3734	7.28	1.28	-0.750			
0.5259	33660.79	3.4870	3.4873	-1.3725	7.29	1.29	-0.750			
0.5300	33920.07	3.4840	3.4839	-1.3633	7.30	1.30	-0.750			
0.5340	34179.11	3.4810	3.4809	-1.3512	7.31	1.31	-0.750			
0.5380	34434.24	3.4780	3.4780	-1.3476	7.32	1.32	-0.750			
0.5422	34697.82	3.4750	3.4751	-1.3601	7.33	1.33	-0.750			
0.5463	34960.35	3.4720	3.4719	-1.3519	7.35	1.35	-0.750			
0.5503	35218.51	3.4690	3.4691	-1.3551	7.36	1.36	-0.750			
0.5543	35477.33	3.4660	3.4660	-1.3458	7.37	1.37	-0.750			
0.5584	35738.71	3.4630	3.4628	-1.3273	7.38	1.38	-0.750			
0.5624	35994.43	3.4600	3.4600	-1.3103	7.40	1.40	-0.750			
0.5663	36242.95	3.4570	3.4571	-1.2846	7.41	1.41	-0.750			
0.5701	36488.39	3.4540	3.4540	-1.2692	7.42	1.42	-0.750			
0.5739	36726.96	3.4510	3.4509	-1.2606	7.43	1.43	-0.750			
0.5775	36960.54	3.4480	3.4479	-1.2495	7.45	1.45	-0.750			
0.5813	37201.63	3.4450	3.4450	-1.2548	7.46	1.46	-0.750			
0.5851	37445.74	3.4420	3.4420	-1.2564	7.48	1.48	-0.750			
0.5889	37692.05	3.4390	3.4391	-1.2451	7.49	1.49	-0.750			
0.5927	37931.88	3.4360	3.4360	-1.2291	7.50	1.50	-0.750			
0.5963	38162.94	3.4330	3.4331	-1.2128	7.52	1.52	-0.750			
0.5999	38392.66	3.4300	3.4298	-1.2003	7.53	1.53	-0.750			
0.6034	38620.39	3.4270	3.4269	-1.1856	7.54	1.54	-0.750			
0.6070	38848.93	3.4240	3.4238	-1.1652	7.56	1.56	-0.750			
0.6105	39074.36	3.4210	3.4211	-1.1510	7.58	1.58	-0.750			
0.6139	39292.02	3.4180	3.4182	-1.1299	7.59	1.59	-0.750			
0.6173	39509.51	3.4150	3.4148	-1.1048	7.61	1.61	-0.750			
0.6206	39717.82	3.4120	3.4120	-1.0762	7.62	1.62	-0.750			
0.6237	39916.57	3.4090	3.4089	-1.0562	7.63	1.63	-0.750			
0.6269	40121.21	3.4060	3.4060	-1.0498	7.65	1.65	-0.750			
0.6300	40321.58	3.4030	3.4029	-1.0308	7.66	1.66	-0.750			
0.6331	40517.98	3.4000	3.3999	-1.0052	7.67	1.67	-0.750			
0.6361	40708.77	3.3970	3.3971	-0.9803	7.69	1.69	-0.750			
0.6390	40897.44	3.3940	3.3941	-0.9703	7.70	1.70	-0.750			
0.6419	41079.63	3.3910	3.3909	-0.9466	7.72	1.72	-0.750			
0.6447	41259.13	3.3880	3.3879	-0.9179	7.74	1.74	-0.750			
0.6474	41433.50	3.3850	3.3850	-0.8935	7.75	1.75	-0.750			
0.6501	41606.00	3.3820	3.3821	-0.8744	7.77	1.77	-0.750			
0.6527	41770.28	3.3790	3.3791	-0.8465	7.78	1.78	-0.750			
0.6551	41927.72	3.3760	3.3760	-0.8224	7.79	1.79	-0.750			
0.6575	42081.50	3.3730	3.3729	-0.7988	7.80	1.80	-0.750			
0.6599	42230.95	3.3700	3.3700	-0.7841	7.81	1.81	-0.750			
0.6622	42381.61	3.3670	3.3670	-0.7740	7.82	1.82	-0.750			
0.6645	42528.41	3.3640	3.3639	-0.7545	7.84	1.84	-0.750			
0.6668	42673.07	3.3610	3.3610	-0.7403	7.85	1.85	-0.750			
0.6690	42814.29	3.3580	3.3580	-0.7244	7.87	1.87	-0.750			
0.6711	42951.76	3.3550	3.3550	-0.7031	7.88	1.88	-0.750			
0.6732	43086.11	3.3520	3.3520	-0.6901	7.89	1.89	-0.750			
0.6752	43215.60	3.3490	3.3491	-0.6679	7.91	1.91	-0.750			
0.6772	43342.46	3.3460	3.3458	-0.6506	7.92	1.92	-0.750			
0.6791	43465.49	3.3430	3.3431	-0.6347	7.93	1.93	-0.750			
0.6810	43583.62	3.3400	3.3400	-0.6201	7.94	1.94	-0.750			
0.6828	43700.49	3.3370	3.3370	-0.6066	7.95	1.95	-0.750			
0.6846	43817.19	3.3340	3.3340	-0.5950	7.97	1.97	-0.750			
0.6864	43929.32	3.3310	3.3310	-0.5819	7.98	1.98	-0.750			
0.6882	44042.91	3.3280	3.3281	-0.5691	7.99	1.99	-0.750			
0.6899	44150.58	3.3250	3.3250	-0.5547	8.00	2.00	-0.750			
0.6915	44254.41	3.3220	3.3221	-0.5409	8.02	2.02	-0.750			
0.6931	44356.20	3.3190	3.3189	-0.5316	8.03	2.03	-0.750			
0.6946	44456.78	3.3160	3.3160	-0.5214	8.04	2.04	-0.750			
0.6962	44556.54	3.3130	3.3129	-0.5117	8.05	2.05	-0.750			
0.6977	44653.32	3.3100	3.3101	-0.5041	8.07	2.07	-0.750			
0.6992	44750.91	3.3070	3.3070	-0.4972	8.08	2.08	-0.750			
0.7007	44844.71	3.3040	3.3039	-0.4844	8.09	2.09	-0.750			
0.7021	44936.32	3.3010	3.3010	-0.4718	8.10	2.10	-0.750			
0.7035	45025.98	3.2980	3.2980	-0.4612	8.11	2.11	-0.750			
0.7049	45113.94	3.2950	3.2950	-0.4519	8.12	2.12	-0.750			
0.7062	45199.33	3.2920	3.2919	-0.4417	8.13	2.13	-0.750			
0.7075	45282.14	3.2890	3.2891	-0.4314	8.14	2.14	-0.750			
0.7088	45364.53	3.2860	3.2860	-0.4247	8.15	2.15	-0.750			
0.7101	45446.51	3.2830	3.2830	-0.4154	8.16	2.16	-0.750			
0.7113	45525.18	3.2800	3.2800	-0.4073	8.17	2.17	-0.750			
0.7125	45602.20	3.2770	3.2769	-0.3985	8.18	2.18	-0.750			
0.7137	45678.07	3.2740	3.2742	-0.3877	8.19	2.19	-0.750			
0.7149	45750.48	3.2710	3.2708	-0.3794	8.21	2.21	-0.750			
0.7160	45822.01	3.2680	3.2681	-0.3733	8.22	2.22	-0.750			
0.7171	45892.57	3.2650	3.2651	-0.3683	8.23	2.23	-0.750			
0.7182	45963.28	3.2620	3.2619	-0.3639	8.24	2.24	-0.750			
0.7193	46032.58	3.2590	3.2591	-0.3588	8.25	2.25	-0.750			
0.7203	46102.00	3.2560	3.2561	-0.3557	8.26	2.26	-0.750			
0.7214	46170.97	3.2530	3.2529	-0.3511	8.28	2.28	-0.750			
0.7225	46237.50	3.2500	3.2499	-0.3418	8.29	2.29	-0.750			
0.7235	46301.80	3.2470	3.2471	-0.3336	8.30	2.30	-0.750			
0.7244	46364.49	3.2440	3.2441	-0.3291	8.30	2.30	-0.750			
0.7254	46427.64	3.2410	3.2410	-0.3231	8.31	2.31	-0.750			
0.7264	46488.03	3.2380	3.2379	-0.3187	8.32	2.32	-0.750			
0.7273	46548.73	3.2350	3.2351	-0.3153	8.33	2.33	-0.750			
0.7283	46609.13	3.2320	3.2320	-0.3141	8.34	2.34	-0.750			
0.7292	46669.72	3.2290	3.2289	-0.3098	8.35	2.35	-0.750			
0.7301	46729.41	3.2260	3.2259	-0.3044	8.36	2.36	-0.750			
0.7310	46786.58	3.2230	3.2231	-0.2993	8.37	2.37	-0.750			
0.7319	46844.15	3.2200	3.2200	-0.2964	8.39	2.39	-0.750			
0.7328	46900.04	3.2170	3.2169	-0.2900	8.40	2.40	-0.750			
0.7337	46955.68	3.2140	3.2139	-0.2859	8.41	2.41	-0.750			
0.7345	47009.55	3.2110	3.2111	-0.2815	8.42	2.42	-0.750			
0.7354	47063.50	3.2080	3.2080	-0.2798	8.43	2.43	-0.750			
0.7362	47117.14	3.2050	3.2049	-0.2768	8.43	2.43	-0.750			
0.7370	47169.66	3.2020	3.2020	-0.2717	8.44	2.44	-0.750			
0.7378	47221.12	3.1990	3.1990	-0.2686	8.45	2.45	-0.750			
0.7386	47272.60	3.1960	3.1960	-0.2664	8.45	2.45	-0.750			
0.7394	47323.70	3.1930	3.1930	-0.2637	8.46	2.46	-0.750			
0.7402	47373.76	3.1900	3.1898	-0.2590	8.48	2.48	-0.750			
0.7410	47423.11	3.1870	3.1871	-0.2565	8.49	2.49	-0.750			
0.7418	47472.05	3.1840	3.1841	-0.2520	8.50	2.50	-0.750			
0.7425	47520.25	3.1810	3.1810	-0.2498	8.51	2.51	-0.750			
0.7433	47568.09	3.1780	3.1780	-0.2470	8.52	2.52	-0.750			
0.7440	47614.75	3.1750	3.1751	-0.2429	8.52	2.52	-0.750			
0.7447	47660.96	3.1720	3.1718	-0.2398	8.53	2.53	-0.750			
0.7454	47706.90	3.1690	3.1691	-0.2376	8.54	2.54	-0.750			
0.7461	47751.79	3.1660	3.1660	-0.2353	8.55	2.55	-0.750			
0.7468	47796.95	3.1630	3.1630	-0.2334	8.56	2.56	-0.750			
0.7475	47841.92	3.1600	3.1599	-0.2318	8.57	2.57	-0.750			
0.7482	47885.88	3.1570	3.1570	-0.2290	8.58	2.58	-0.750			
0.7489	47930.01	3.1540	3.1540	-0.2268	8.58	2.58	-0.750			
0.7496	47973.27	3.1510	3.1510	-0.2240	8.59	2.59	-0.750			
0.7503	48016.07	3.1480	3.1480	-0.2217	8.59	2.59	-0.750			
0.7509	48058.31	3.1450	3.1450	-0.2189	8.60	2.60	-0.750			
0.7516	48099.63	3.1420	3.1420	-0.2173	8.61	2.61	-0.750			
0.7522	48141.34	3.1390	3.1390	-0.2152	8.62	2.62	-0.750			
0.7528	48182.40	3.1360	3.1359	-0.2135	8.63	2.63	-0.750			
0.7535	48223.24	3.1330	3.1331	-0.2119	8.64	2.64	-0.750			
0.7541	48263.83	3.1300	3.1301	-0.2109	8.65	2.65	-0.750			
0.7548	48304.28	3.1270	3.1269	-0.2090	8.66	2.66	-0.750			
0.7554	48344.01	3.1240	3.1239	-0.2076	8.67	2.67	-0.750			
0.7560	48383.76	3.1210	3.1211	-0.2064	8.68	2.68	-0.750			
0.7566	48423.30	3.1180	3.1180	-0.2036	8.69	2.69	-0.750			
0.7572	48462.47	3.1150	3.1149	-0.2026	8.70	2.70	-0.750			
0.7578	48501.03	3.1120	3.1121	-0.2003	8.71	2.71	-0.750			
0.7584	48539.31	3.1090	3.1090	-0.1984	8.72	2.72	-0.750			
0.7590	48576.92	3.1060	3.1059	-0.1977	8.72	2.72	-0.750			
0.7596	48615.16	3.1030	3.1030	-0.1954	8.73	2.73	-0.750			
0.7602	48652.33	3.1000	3.1000	-0.1932	8.74	2.74	-0.750			
0.7608	48689.27	3.0970	3.0970	-0.1916	8.75	2.75	-0.750			
0.7613	48726.40	3.0940	3.0941	-0.1897	8.75	2.75	-0.750			
0.7619	48762.31	3.0910	3.0909	-0.1873	8.76	2.76	-0.750			
0.7625	48797.77	3.0880	3.0879	-0.1858	8.77	2.77	-0.750			
0.7630	48833.33	3.0850	3.0850	-0.1846	8.78	2.78	-0.750			
0.7636	48868.22	3.0820	3.0820	-0.1827	8.78	2.78	-0.750			
0.7641	48903.73	3.0790	3.0790	-0.1818	8.79	2.79	-0.750			
0.7647	48938.32	3.0760	3.0760	-0.1799	8.80	2.80	-0.750			
0.7652	48972.73	3.0730	3.0731	-0.1785	8.81	2.81	-0.750			
0.7657	49007.07	3.0700	3.0700	-0.1768	8.82	2.82	-0.750			
0.7663	49040.56	3.0670	3.0670	-0.1758	8.83	2.83	-0.750			
0.7668	49073.84	3.0640	3.0640	-0.1742	8.84	2.84	-0.750			
0.7673	49107.27	3.0610	3.0610	-0.1740	8.85	2.85	-0.750			
0.7678	49140.54	3.0580	3.0579	-0.1744	8.86	2.86	-0.750			
0.7683	49174.24	3.0550	3.0550	-0.1734	8.87	2.87	-0.750			
0.7689	49207.58	3.0520	3.0520	-0.1730	8.88	2.88	-0.750			
0.7694	49240.93	3.0490	3.0490	-0.1716	8.89	2.89	-0.750			
0.7699	49274.11	3.0460	3.0460	-0.1705	8.90	2.90	-0.750			
0.7704	49306.66	3.0430	3.0429	-0.1685	8.90	2.90	-0.750			
0.7709	49338.72	3.0400	3.0400	-0.1670	8.91	2.91	-0.750			
0.7714	49370.13	3.0370	3.0371	-0.1652	8.92	2.92	-0.750			
0.7719	49401.81	3.0340	3.0340	-0.1648	8.92	2.92	-0.750			
0.7724	49433.37	3.0310	3.0310	-0.1645	8.93	2.93	-0.750			
0.7729	49464.83	3.0280	3.0279	-0.1631	8.94	2.94	-0.750			
0.7734	49496.29	3.0250	3.0250	-0.1634	8.95	2.95	-0.750			
0.7739	49527.60	3.0220	3.0220	-0.1627	8.95	2.95	-0.750			
0.7744	49559.06	3.0190	3.0190	-0.1615	8.96	2.96	-0.750			
0.7748	49589.99	3.0160	3.0159	-0.1601	8.97	2.97	-0.750			
0.7753	49620.19	3.0130	3.0130	-0.1589	8.97	2.97	-0.750			
0.7758	49650.64	3.0100	3.0102	-0.1583	8.98	2.98	-0.750			
0.7763	49680.83	3.0070	3.0070	-0.1578	8.99	2.99	-0.750			
0.7767	49711.10	3.0040	3.0040	-0.1577	8.99	2.99	-0.750			
0.7772	49741.38	3.0010	3.0009	-0.1639	9.00	3.00	-0.750			
