Ah_balance (normalized)	Ah_balance (mAh)	Voltage - fit (V)	Voltage -  interpolate (V)	dQ/dV (1/V)	Temperature (°C)	Temperature - diff (°C)	Current (C)	R_DC 0ms (mOhm)	R_DC 50ms (mOhm)	R_DC 50 ms PEC (mOhm)
0.0000	0.00	4.1040	4.1231	0.0000	5.97	-0.02	-0.749			
0.0002	11.41	4.1010	4.1000	-0.0341	5.97	-0.02	-0.750			
0.0004	22.43	4.0980	4.0973	-0.0662	5.97	-0.02	-0.750			
0.0006	37.93	4.0950	4.0947	-0.0947	5.97	-0.02	-0.750			
0.0009	58.85	4.0920	4.0920	-0.1232	5.97	-0.02	-0.750			
0.0013	85.63	4.0890	4.0891	-0.1487	5.97	-0.02	-0.750			
0.0018	116.82	4.0860	4.0860	-0.1747	5.97	-0.02	-0.750			
0.0024	153.80	4.0830	4.0830	-0.2022	5.98	-0.01	-0.750			
0.0031	195.86	4.0800	4.0800	-0.2238	5.98	-0.01	-0.750			
0.0038	241.52	4.0770	4.0768	-0.2456	5.98	-0.01	-0.750			
0.0045	290.80	4.0740	4.0740	-0.2684	5.98	-0.01	-0.750			
0.0054	344.56	4.0710	4.0711	-0.2881	5.98	-0.01	-0.750			
0.0063	401.44	4.0680	4.0679	-0.3109	5.98	-0.01	-0.750			
0.0072	462.46	4.0650	4.0650	-0.3369	5.98	-0.01	-0.750			
0.0083	529.34	4.0620	4.0620	-0.3563	5.98	-0.01	-0.750			
0.0094	600.48	4.0590	4.0589	-0.3806	5.99	-0.00	-0.750			
0.0106	677.39	4.0560	4.0560	-0.3985	5.99	-0.00	-0.750			
0.0118	755.16	4.0530	4.0532	-0.4180	5.99	0.00	-0.750			
0.0131	836.79	4.0500	4.0500	-0.4411	5.99	0.00	-0.750			
0.0144	922.28	4.0470	4.0469	-0.4617	5.99	0.00	-0.750			
0.0158	1011.85	4.0440	4.0439	-0.4823	6.00	0.01	-0.750			
0.0173	1108.05	4.0410	4.0411	-0.5107	6.00	0.01	-0.750			
0.0189	1210.21	4.0380	4.0380	-0.5322	6.00	0.01	-0.750			
0.0206	1316.36	4.0350	4.0350	-0.5514	6.00	0.01	-0.750			
0.0222	1423.30	4.0320	4.0320	-0.5649	6.01	0.02	-0.750			
0.0240	1533.36	4.0290	4.0292	-0.5785	6.01	0.02	-0.750			
0.0257	1646.69	4.0260	4.0259	-0.5887	6.02	0.03	-0.750			
0.0275	1760.38	4.0230	4.0230	-0.5984	6.02	0.03	-0.750			
0.0293	1874.89	4.0200	4.0201	-0.6097	6.03	0.04	-0.750			
0.0312	1994.13	4.0170	4.0170	-0.6269	6.03	0.04	-0.750			
0.0330	2114.61	4.0140	4.0139	-0.6370	6.04	0.05	-0.750			
0.0350	2237.92	4.0110	4.0109	-0.6482	6.05	0.06	-0.750			
0.0370	2364.83	4.0080	4.0081	-0.6575	6.05	0.06	-0.750			
0.0390	2493.67	4.0050	4.0050	-0.6709	6.06	0.07	-0.750			
0.0410	2621.40	4.0020	4.0021	-0.6827	6.06	0.07	-0.750			
0.0430	2752.86	3.9990	3.9989	-0.6883	6.07	0.08	-0.750			
0.0451	2887.32	3.9960	3.9959	-0.6940	6.08	0.09	-0.750			
0.0472	3022.13	3.9930	3.9931	-0.6994	6.08	0.09	-0.750			
0.0494	3158.79	3.9900	3.9902	-0.6992	6.09	0.10	-0.750			
0.0514	3292.77	3.9870	3.9869	-0.7004	6.10	0.11	-0.750			
0.0535	3423.95	3.9840	3.9841	-0.7070	6.11	0.12	-0.750			
0.0556	3559.95	3.9810	3.9808	-0.7131	6.12	0.13	-0.750			
0.0578	3699.20	3.9780	3.9779	-0.7207	6.13	0.14	-0.750			
0.0600	3839.01	3.9750	3.9751	-0.7228	6.13	0.14	-0.750			
0.0622	3979.43	3.9720	3.9721	-0.7281	6.14	0.15	-0.750			
0.0644	4119.57	3.9690	3.9690	-0.7346	6.15	0.16	-0.750			
0.0665	4258.34	3.9660	3.9659	-0.7378	6.16	0.17	-0.750			
0.0688	4401.69	3.9630	3.9629	-0.7373	6.16	0.17	-0.750			
0.0710	4545.19	3.9600	3.9600	-0.7391	6.17	0.18	-0.750			
0.0733	4689.16	3.9570	3.9570	-0.7428	6.18	0.19	-0.750			
0.0755	4831.34	3.9540	3.9540	-0.7369	6.19	0.20	-0.750			
0.0776	4969.55	3.9510	3.9509	-0.7333	6.20	0.21	-0.750			
0.0798	5107.78	3.9480	3.9481	-0.7418	6.21	0.22	-0.750			
0.0820	5251.01	3.9450	3.9450	-0.7474	6.22	0.23	-0.750			
0.0844	5400.92	3.9420	3.9418	-0.7561	6.23	0.24	-0.750			
0.0866	5545.45	3.9390	3.9392	-0.7542	6.24	0.25	-0.750			
0.0889	5691.56	3.9360	3.9361	-0.7542	6.25	0.26	-0.750			
0.0912	5836.36	3.9330	3.9329	-0.7534	6.26	0.27	-0.750			
0.0934	5977.39	3.9300	3.9299	-0.7473	6.26	0.27	-0.750			
0.0956	6120.22	3.9270	3.9271	-0.7529	6.27	0.28	-0.750			
0.0979	6265.17	3.9240	3.9241	-0.7560	6.28	0.29	-0.750			
0.1002	6412.48	3.9210	3.9208	-0.7671	6.29	0.30	-0.750			
0.1025	6558.49	3.9180	3.9181	-0.7710	6.29	0.30	-0.750			
0.1048	6707.71	3.9150	3.9149	-0.7764	6.30	0.31	-0.750			
0.1072	6858.14	3.9120	3.9120	-0.7783	6.31	0.32	-0.750			
0.1095	7008.79	3.9090	3.9090	-0.7853	6.32	0.33	-0.750			
0.1119	7159.59	3.9060	3.9061	-0.7852	6.33	0.34	-0.750			
0.1143	7312.04	3.9030	3.9030	-0.7824	6.34	0.35	-0.750			
0.1166	7461.19	3.9000	3.9000	-0.7759	6.35	0.36	-0.750			
0.1189	7610.20	3.8970	3.8971	-0.7720	6.36	0.37	-0.750			
0.1212	7756.95	3.8940	3.8940	-0.7721	6.37	0.38	-0.750			
0.1235	7903.31	3.8910	3.8908	-0.7740	6.38	0.39	-0.750			
0.1258	8049.78	3.8880	3.8881	-0.7742	6.39	0.40	-0.750			
0.1281	8199.29	3.8850	3.8850	-0.7865	6.40	0.41	-0.750			
0.1305	8353.79	3.8820	3.8820	-0.7919	6.41	0.42	-0.750			
0.1329	8506.81	3.8790	3.8790	-0.7939	6.42	0.43	-0.750			
0.1353	8659.28	3.8760	3.8760	-0.7994	6.43	0.44	-0.750			
0.1377	8812.48	3.8730	3.8730	-0.8012	6.44	0.45	-0.750			
0.1401	8964.33	3.8700	3.8700	-0.8055	6.45	0.46	-0.750			
0.1425	9122.53	3.8670	3.8669	-0.8064	6.46	0.47	-0.750			
0.1450	9278.92	3.8640	3.8640	-0.8021	6.47	0.48	-0.750			
0.1474	9433.90	3.8610	3.8610	-0.8009	6.48	0.49	-0.750			
0.1498	9587.41	3.8580	3.8582	-0.7952	6.48	0.49	-0.750			
0.1521	9736.44	3.8550	3.8549	-0.7962	6.50	0.51	-0.750			
0.1545	9887.14	3.8520	3.8520	-0.7925	6.51	0.52	-0.750			
0.1569	10038.65	3.8490	3.8490	-0.7935	6.52	0.53	-0.750			
0.1593	10192.29	3.8460	3.8460	-0.8074	6.53	0.54	-0.750			
0.1617	10351.75	3.8430	3.8431	-0.8099	6.54	0.55	-0.750			
0.1642	10507.45	3.8400	3.8400	-0.8036	6.55	0.56	-0.750			
0.1666	10662.64	3.8370	3.8370	-0.8018	6.56	0.57	-0.750			
0.1690	10814.52	3.8340	3.8341	-0.7990	6.57	0.58	-0.750			
0.1713	10966.39	3.8310	3.8309	-0.8068	6.58	0.59	-0.750			
0.1737	11119.88	3.8280	3.8280	-0.8104	6.59	0.60	-0.750			
0.1762	11274.99	3.8250	3.8249	-0.8139	6.60	0.61	-0.750			
0.1787	11435.32	3.8220	3.8221	-0.8257	6.61	0.62	-0.750			
0.1812	11597.64	3.8190	3.8190	-0.8284	6.62	0.63	-0.750			
0.1837	11755.64	3.8160	3.8161	-0.8257	6.63	0.64	-0.750			
0.1862	11914.36	3.8130	3.8131	-0.8209	6.64	0.65	-0.750			
0.1886	12071.43	3.8100	3.8099	-0.8190	6.65	0.66	-0.750			
0.1910	12226.98	3.8070	3.8069	-0.8223	6.65	0.66	-0.750			
0.1935	12384.52	3.8040	3.8041	-0.8251	6.66	0.67	-0.750			
0.1960	12542.78	3.8010	3.8011	-0.8324	6.67	0.68	-0.750			
0.1985	12705.75	3.7980	3.7980	-0.8386	6.68	0.69	-0.750			
0.2011	12868.20	3.7950	3.7950	-0.8325	6.69	0.70	-0.750			
0.2036	13029.13	3.7920	3.7920	-0.8318	6.70	0.71	-0.750			
0.2061	13189.01	3.7890	3.7891	-0.8201	6.71	0.72	-0.750			
0.2085	13344.74	3.7860	3.7860	-0.8152	6.72	0.73	-0.750			
0.2109	13499.91	3.7830	3.7831	-0.8135	6.73	0.74	-0.750			
0.2133	13653.08	3.7800	3.7799	-0.8186	6.74	0.75	-0.750			
0.2158	13810.05	3.7770	3.7770	-0.8290	6.74	0.75	-0.750			
0.2183	13971.22	3.7740	3.7739	-0.8376	6.75	0.76	-0.750			
0.2208	14134.17	3.7710	3.7710	-0.8368	6.76	0.77	-0.750			
0.2234	14298.57	3.7680	3.7681	-0.8463	6.77	0.78	-0.750			
0.2259	14459.64	3.7650	3.7650	-0.8432	6.78	0.79	-0.750			
0.2284	14620.37	3.7620	3.7619	-0.8480	6.79	0.80	-0.750			
0.2310	14783.60	3.7590	3.7589	-0.8470	6.80	0.81	-0.750			
0.2335	14945.45	3.7560	3.7560	-0.8486	6.81	0.82	-0.750			
0.2361	15110.86	3.7530	3.7531	-0.8554	6.82	0.83	-0.750			
0.2387	15275.13	3.7500	3.7500	-0.8580	6.83	0.84	-0.750			
0.2412	15438.87	3.7470	3.7469	-0.8561	6.84	0.85	-0.750			
0.2438	15603.20	3.7440	3.7441	-0.8622	6.84	0.85	-0.750			
0.2464	15767.18	3.7410	3.7410	-0.8649	6.85	0.86	-0.750			
0.2490	15937.12	3.7380	3.7380	-0.8758	6.86	0.87	-0.750			
0.2516	16104.11	3.7350	3.7350	-0.8818	6.87	0.88	-0.750			
0.2543	16275.47	3.7320	3.7320	-0.8810	6.88	0.89	-0.750			
0.2570	16446.22	3.7290	3.7290	-0.8769	6.89	0.90	-0.750			
0.2596	16615.73	3.7260	3.7260	-0.8748	6.89	0.90	-0.750			
0.2622	16781.82	3.7230	3.7232	-0.8677	6.90	0.91	-0.750			
0.2648	16946.49	3.7200	3.7200	-0.8671	6.91	0.92	-0.750			
0.2674	17111.41	3.7170	3.7170	-0.8699	6.92	0.93	-0.750			
0.2699	17276.12	3.7140	3.7139	-0.8737	6.93	0.94	-0.750			
0.2726	17445.61	3.7110	3.7109	-0.8898	6.94	0.95	-0.750			
0.2753	17617.66	3.7080	3.7081	-0.9027	6.94	0.95	-0.750			
0.2780	17792.21	3.7050	3.7050	-0.9171	6.95	0.96	-0.750			
0.2808	17974.14	3.7020	3.7017	-0.9199	6.96	0.97	-0.750			
0.2836	18151.29	3.6990	3.6991	-0.9176	6.96	0.97	-0.750			
0.2864	18328.59	3.6960	3.6963	-0.9203	6.97	0.98	-0.750			
0.2891	18504.59	3.6930	3.6930	-0.9258	6.98	0.99	-0.750			
0.2919	18681.78	3.6900	3.6898	-0.9218	6.99	1.00	-0.750			
0.2946	18856.14	3.6870	3.6869	-0.9157	7.00	1.01	-0.750			
0.2974	19032.48	3.6840	3.6841	-0.9262	7.01	1.02	-0.750			
0.3002	19210.56	3.6810	3.6809	-0.9340	7.01	1.02	-0.750			
0.3030	19389.99	3.6780	3.6780	-0.9425	7.02	1.03	-0.750			
0.3058	19571.93	3.6750	3.6749	-0.9488	7.03	1.04	-0.750			
0.3087	19753.62	3.6720	3.6720	-0.9542	7.03	1.04	-0.750			
0.3116	19941.34	3.6690	3.6691	-0.9680	7.04	1.05	-0.750			
0.3145	20127.45	3.6660	3.6660	-0.9783	7.04	1.05	-0.750			
0.3174	20314.66	3.6630	3.6630	-0.9803	7.05	1.06	-0.750			
0.3203	20501.28	3.6600	3.6600	-0.9876	7.05	1.06	-0.750			
0.3233	20692.90	3.6570	3.6570	-0.9995	7.06	1.07	-0.750			
0.3263	20885.02	3.6540	3.6541	-1.0141	7.07	1.08	-0.750			
0.3294	21080.88	3.6510	3.6509	-1.0273	7.07	1.08	-0.750			
0.3325	21279.37	3.6480	3.6480	-1.0417	7.08	1.09	-0.750			
0.3356	21481.48	3.6450	3.6450	-1.0508	7.09	1.10	-0.750			
0.3388	21686.11	3.6420	3.6420	-1.0704	7.09	1.10	-0.750			
0.3421	21894.61	3.6390	3.6390	-1.0699	7.10	1.11	-0.750			
0.3453	22102.12	3.6360	3.6359	-1.0646	7.10	1.11	-0.750			
0.3485	22304.88	3.6330	3.6332	-1.0551	7.11	1.12	-0.750			
0.3517	22505.61	3.6300	3.6300	-1.0656	7.12	1.13	-0.750			
0.3548	22707.97	3.6270	3.6267	-1.0735	7.12	1.13	-0.750			
0.3580	22913.42	3.6240	3.6240	-1.0820	7.13	1.14	-0.750			
0.3612	23120.00	3.6210	3.6214	-1.1032	7.14	1.15	-0.750			
0.3647	23343.21	3.6180	3.6179	-1.1202	7.14	1.15	-0.750			
0.3681	23560.82	3.6150	3.6149	-1.1224	7.15	1.16	-0.750			
0.3715	23775.75	3.6120	3.6120	-1.1203	7.15	1.16	-0.750			
0.3749	23991.54	3.6090	3.6091	-1.1260	7.15	1.16	-0.750			
0.3782	24203.71	3.6060	3.6058	-1.1253	7.16	1.17	-0.750			
0.3815	24414.53	3.6030	3.6031	-1.1374	7.16	1.17	-0.750			
0.3848	24629.25	3.6000	3.6000	-1.1595	7.17	1.18	-0.750			
0.3884	24858.97	3.5970	3.5967	-1.1923	7.17	1.18	-0.750			
0.3921	25093.69	3.5940	3.5940	-1.2082	7.18	1.19	-0.750	0.398	0.898	
0.3958	25329.00	3.5910	3.5910	-1.2226	7.18	1.19	-0.750			
0.3995	25567.65	3.5880	3.5882	-1.2333	7.19	1.20	-0.750			
0.4032	25807.11	3.5850	3.5849	-1.2351	7.20	1.21	-0.750			
0.4069	26041.59	3.5820	3.5820	-1.2295	7.20	1.21	-0.750			
0.4106	26276.01	3.5790	3.5789	-1.2316	7.21	1.22	-0.750			
0.4143	26512.57	3.5760	3.5760	-1.2417	7.21	1.22	-0.750			
0.4180	26751.03	3.5730	3.5730	-1.2449	7.22	1.23	-0.750			
0.4217	26985.91	3.5700	3.5700	-1.2604	7.22	1.23	-0.750			
0.4255	27229.18	3.5670	3.5670	-1.2776	7.22	1.23	-0.750			
0.4294	27478.72	3.5640	3.5641	-1.2917	7.23	1.24	-0.750			
0.4333	27728.76	3.5610	3.5610	-1.3072	7.23	1.24	-0.750			
0.4372	27983.04	3.5580	3.5581	-1.3226	7.24	1.25	-0.750			
0.4412	28239.38	3.5550	3.5550	-1.3359	7.24	1.25	-0.750			
0.4453	28496.71	3.5520	3.5519	-1.3436	7.25	1.26	-0.750			
0.4493	28753.02	3.5490	3.5491	-1.3500	7.25	1.26	-0.750			
0.4534	29016.00	3.5460	3.5460	-1.3586	7.26	1.27	-0.750			
0.4575	29277.81	3.5430	3.5429	-1.3609	7.26	1.27	-0.750			
0.4615	29538.30	3.5400	3.5400	-1.3635	7.27	1.28	-0.750			
0.4657	29801.75	3.5370	3.5370	-1.3715	7.28	1.29	-0.750			
0.4697	30063.38	3.5340	3.5339	-1.3728	7.28	1.29	-0.750			
0.4739	30327.07	3.5310	3.5311	-1.3927	7.29	1.30	-0.750			
0.4781	30595.89	3.5280	3.5280	-1.3999	7.30	1.31	-0.750			
0.4823	30868.94	3.5250	3.5249	-1.4071	7.30	1.31	-0.750			
0.4866	31142.80	3.5220	3.5223	-1.4153	7.31	1.32	-0.750			
0.4909	31414.94	3.5190	3.5189	-1.4278	7.32	1.33	-0.750			
0.4952	31691.90	3.5160	3.5160	-1.4162	7.32	1.33	-0.750			
0.4994	31962.61	3.5130	3.5131	-1.4108	7.33	1.34	-0.750			
0.5037	32234.09	3.5100	3.5102	-1.4045	7.34	1.35	-0.750			
0.5078	32501.11	3.5070	3.5069	-1.3989	7.34	1.35	-0.750			
0.5120	32765.21	3.5040	3.5041	-1.3985	7.35	1.36	-0.750			
0.5162	33033.73	3.5010	3.5009	-1.3987	7.36	1.37	-0.750			
0.5203	33300.39	3.4980	3.4980	-1.3880	7.36	1.37	-0.750			
0.5246	33574.04	3.4950	3.4950	-1.4041	7.37	1.38	-0.750			
0.5288	33842.70	3.4920	3.4920	-1.3987	7.38	1.39	-0.750			
0.5330	34112.01	3.4890	3.4889	-1.3958	7.38	1.39	-0.750			
0.5371	34377.40	3.4860	3.4862	-1.3873	7.39	1.40	-0.750			
0.5413	34641.24	3.4830	3.4830	-1.3887	7.40	1.41	-0.750			
0.5455	34909.41	3.4800	3.4800	-1.3907	7.41	1.42	-0.750			
0.5496	35176.58	3.4770	3.4771	-1.3940	7.42	1.43	-0.750			
0.5539	35448.58	3.4740	3.4737	-1.3819	7.43	1.44	-0.750			
0.5580	35713.68	3.4710	3.4711	-1.3629	7.43	1.44	-0.750			
0.5621	35973.85	3.4680	3.4682	-1.3507	7.44	1.45	-0.750			
0.5661	36230.71	3.4650	3.4650	-1.3477	7.45	1.46	-0.750			
0.5701	36485.94	3.4620	3.4619	-1.3316	7.46	1.47	-0.750			
0.5740	36737.93	3.4590	3.4590	-1.3193	7.47	1.48	-0.750			
0.5780	36993.13	3.4560	3.4560	-1.3141	7.48	1.49	-0.750			
0.5820	37246.25	3.4530	3.4531	-1.3058	7.50	1.51	-0.750			
0.5859	37496.20	3.4500	3.4501	-1.2966	7.51	1.52	-0.750			
0.5897	37743.79	3.4470	3.4469	-1.2738	7.52	1.53	-0.750			
0.5935	37985.21	3.4440	3.4440	-1.2595	7.53	1.54	-0.750			
0.5973	38227.13	3.4410	3.4410	-1.2381	7.54	1.55	-0.750			
0.6010	38464.57	3.4380	3.4381	-1.2305	7.55	1.56	-0.750			
0.6047	38699.19	3.4350	3.4349	-1.2190	7.56	1.57	-0.750			
0.6083	38930.81	3.4320	3.4319	-1.2035	7.57	1.58	-0.750			
0.6119	39159.04	3.4290	3.4293	-1.1912	7.58	1.59	-0.750			
0.6155	39390.10	3.4260	3.4260	-1.1736	7.59	1.60	-0.750			
0.6190	39614.53	3.4230	3.4230	-1.1543	7.60	1.61	-0.750			
0.6224	39835.57	3.4200	3.4199	-1.1375	7.62	1.63	-0.750			
0.6258	40052.45	3.4170	3.4169	-1.1222	7.63	1.64	-0.750			
0.6291	40264.65	3.4140	3.4139	-1.1012	7.64	1.65	-0.750			
0.6324	40475.91	3.4110	3.4110	-1.0767	7.65	1.66	-0.750			
0.6356	40679.89	3.4080	3.4081	-1.0503	7.67	1.68	-0.750			
0.6388	40882.43	3.4050	3.4049	-1.0299	7.68	1.69	-0.750			
0.6418	41075.25	3.4020	3.4020	-1.0005	7.69	1.70	-0.750			
0.6447	41262.97	3.3990	3.3989	-0.9783	7.70	1.71	-0.750			
0.6476	41448.16	3.3960	3.3959	-0.9462	7.71	1.72	-0.750			
0.6505	41628.96	3.3930	3.3930	-0.9265	7.73	1.74	-0.750			
0.6532	41805.37	3.3900	3.3901	-0.9082	7.74	1.75	-0.750			
0.6559	41977.45	3.3870	3.3869	-0.8854	7.75	1.76	-0.750			
0.6585	42144.79	3.3840	3.3839	-0.8603	7.76	1.77	-0.750			
0.6611	42307.82	3.3810	3.3811	-0.8445	7.77	1.78	-0.750			
0.6636	42467.78	3.3780	3.3780	-0.8247	7.78	1.79	-0.750			
0.6660	42625.18	3.3750	3.3749	-0.8141	7.79	1.80	-0.750			
0.6684	42778.81	3.3720	3.3720	-0.7921	7.80	1.81	-0.750			
0.6708	42929.51	3.3690	3.3691	-0.7762	7.81	1.82	-0.750			
0.6731	43079.16	3.3660	3.3659	-0.7584	7.83	1.84	-0.750			
0.6754	43223.05	3.3630	3.3631	-0.7397	7.84	1.85	-0.750			
0.6775	43361.96	3.3600	3.3600	-0.7150	7.85	1.86	-0.750			
0.6796	43497.31	3.3570	3.3570	-0.6972	7.86	1.87	-0.750			
0.6817	43628.56	3.3540	3.3540	-0.6756	7.87	1.88	-0.750			
0.6837	43757.40	3.3510	3.3510	-0.6604	7.88	1.89	-0.750			
0.6857	43882.07	3.3480	3.3479	-0.6400	7.90	1.91	-0.750			
0.6875	44002.80	3.3450	3.3450	-0.6258	7.91	1.92	-0.750			
0.6894	44120.86	3.3420	3.3420	-0.6098	7.92	1.93	-0.750			
0.6912	44237.15	3.3390	3.3390	-0.5968	7.93	1.94	-0.750			
0.6930	44348.93	3.3360	3.3360	-0.5859	7.94	1.95	-0.750			
0.6947	44460.79	3.3330	3.3331	-0.5756	7.95	1.96	-0.750			
0.6964	44570.41	3.3300	3.3299	-0.5646	7.96	1.97	-0.750			
0.6981	44678.47	3.3270	3.3270	-0.5502	7.97	1.98	-0.750			
0.6997	44782.42	3.3240	3.3240	-0.5361	7.98	1.99	-0.750			
0.7013	44884.74	3.3210	3.3211	-0.5212	7.99	2.00	-0.750			
0.7029	44983.33	3.3180	3.3179	-0.5068	8.00	2.01	-0.750			
0.7043	45077.84	3.3150	3.3151	-0.4930	8.01	2.02	-0.750			
0.7058	45171.52	3.3120	3.3119	-0.4836	8.02	2.03	-0.750			
0.7072	45262.53	3.3090	3.3090	-0.4763	8.03	2.04	-0.750			
0.7087	45353.75	3.3060	3.3060	-0.4689	8.04	2.05	-0.750			
0.7100	45443.19	3.3030	3.3029	-0.4587	8.05	2.06	-0.750			
0.7114	45530.90	3.3000	3.3002	-0.4507	8.06	2.07	-0.750			
0.7127	45615.96	3.2970	3.2970	-0.4401	8.07	2.08	-0.750			
0.7141	45699.38	3.2940	3.2941	-0.4304	8.08	2.09	-0.750			
0.7153	45780.73	3.2910	3.2909	-0.4195	8.09	2.10	-0.750			
0.7166	45860.38	3.2880	3.2881	-0.4111	8.10	2.11	-0.750			
0.7178	45938.68	3.2850	3.2850	-0.4020	8.11	2.12	-0.750			
0.7190	46015.19	3.2820	3.2820	-0.3950	8.11	2.12	-0.750			
0.7201	46089.38	3.2790	3.2790	-0.3877	8.12	2.13	-0.750			
0.7213	46162.92	3.2760	3.2760	-0.3790	8.13	2.14	-0.750			
0.7224	46235.23	3.2730	3.2730	-0.3712	8.14	2.15	-0.750			
0.7235	46305.69	3.2700	3.2700	-0.3643	8.15	2.16	-0.750			
0.7246	46374.75	3.2670	3.2671	-0.3586	8.16	2.17	-0.750			
0.7257	46443.00	3.2640	3.2639	-0.3524	8.17	2.18	-0.750			
0.7267	46509.34	3.2610	3.2610	-0.3456	8.18	2.19	-0.750			
0.7277	46574.72	3.2580	3.2581	-0.3424	8.19	2.20	-0.750			
0.7288	46641.16	3.2550	3.2550	-0.3404	8.20	2.21	-0.750			
0.7298	46706.18	3.2520	3.2519	-0.3354	8.21	2.22	-0.750			
0.7308	46770.02	3.2490	3.2489	-0.3286	8.22	2.23	-0.750			
0.7318	46832.75	3.2460	3.2461	-0.3232	8.23	2.24	-0.750			
0.7327	46894.18	3.2430	3.2430	-0.3201	8.24	2.25	-0.750			
0.7337	46954.96	3.2400	3.2399	-0.3148	8.25	2.26	-0.750			
0.7346	47014.47	3.2370	3.2369	-0.3073	8.26	2.27	-0.750			
0.7355	47073.45	3.2340	3.2339	-0.3031	8.26	2.27	-0.750			
0.7364	47131.18	3.2310	3.2314	-0.3001	8.26	2.27	-0.750			
0.7373	47188.46	3.2280	3.2279	-0.2963	8.27	2.28	-0.750			
0.7382	47244.98	3.2250	3.2249	-0.2892	8.28	2.29	-0.750			
0.7391	47300.20	3.2220	3.2220	-0.2842	8.29	2.30	-0.750			
0.7399	47353.99	3.2190	3.2191	-0.2799	8.30	2.31	-0.750			
0.7407	47407.04	3.2160	3.2160	-0.2764	8.31	2.32	-0.750			
0.7415	47458.77	3.2130	3.2129	-0.2719	8.32	2.33	-0.750			
0.7423	47510.07	3.2100	3.2100	-0.2691	8.33	2.34	-0.750			
0.7432	47561.99	3.2070	3.2070	-0.2666	8.34	2.35	-0.750			
0.7440	47613.61	3.2040	3.2040	-0.2649	8.34	2.35	-0.750			
0.7448	47664.58	3.2010	3.2011	-0.2613	8.35	2.36	-0.750			
0.7455	47714.33	3.1980	3.1980	-0.2578	8.36	2.37	-0.750			
0.7463	47763.36	3.1950	3.1949	-0.2533	8.37	2.38	-0.750			
0.7470	47811.03	3.1920	3.1920	-0.2493	8.38	2.39	-0.750			
0.7478	47858.48	3.1890	3.1890	-0.2459	8.39	2.40	-0.750			
0.7485	47905.64	3.1860	3.1859	-0.2420	8.40	2.41	-0.750			
0.7492	47951.72	3.1830	3.1831	-0.2400	8.40	2.41	-0.750			
0.7500	47997.18	3.1800	3.1800	-0.2365	8.41	2.42	-0.750			
0.7507	48042.30	3.1770	3.1770	-0.2344	8.42	2.43	-0.750			
0.7514	48086.87	3.1740	3.1739	-0.2311	8.43	2.44	-0.750			
0.7521	48131.22	3.1710	3.1710	-0.2289	8.44	2.45	-0.750			
0.7527	48174.94	3.1680	3.1681	-0.2265	8.45	2.46	-0.750			
0.7534	48218.47	3.1650	3.1650	-0.2238	8.46	2.47	-0.750			
0.7541	48261.18	3.1620	3.1620	-0.2223	8.46	2.47	-0.750			
0.7547	48302.79	3.1590	3.1590	-0.2192	8.47	2.48	-0.750			
0.7554	48344.81	3.1560	3.1561	-0.2184	8.48	2.49	-0.750			
0.7560	48386.66	3.1530	3.1529	-0.2164	8.49	2.50	-0.750			
0.7567	48428.38	3.1500	3.1501	-0.2145	8.50	2.51	-0.750			
0.7573	48469.81	3.1470	3.1469	-0.2124	8.50	2.51	-0.750			
0.7580	48510.27	3.1440	3.1442	-0.2091	8.51	2.52	-0.750			
0.7586	48550.41	3.1410	3.1409	-0.2066	8.52	2.53	-0.750			
0.7592	48589.23	3.1380	3.1380	-0.2039	8.52	2.53	-0.750			
0.7598	48627.89	3.1350	3.1351	-0.2010	8.53	2.54	-0.750			
0.7604	48666.29	3.1320	3.1318	-0.1996	8.54	2.55	-0.750			
0.7610	48704.47	3.1290	3.1290	-0.1981	8.55	2.56	-0.750			
0.7616	48742.35	3.1260	3.1261	-0.1963	8.55	2.56	-0.750			
0.7622	48780.05	3.1230	3.1230	-0.1951	8.56	2.57	-0.750			
0.7628	48817.34	3.1200	3.1200	-0.1933	8.57	2.58	-0.750			
0.7633	48854.19	3.1170	3.1170	-0.1918	8.58	2.59	-0.750			
0.7639	48890.80	3.1140	3.1140	-0.1897	8.59	2.60	-0.750			
0.7645	48927.24	3.1110	3.1110	-0.1884	8.59	2.60	-0.750			
0.7651	48963.22	3.1080	3.1080	-0.1864	8.60	2.61	-0.750			
0.7656	48998.64	3.1050	3.1051	-0.1854	8.61	2.62	-0.750			
0.7662	49034.22	3.1020	3.1020	-0.1837	8.62	2.63	-0.750			
0.7667	49069.31	3.0990	3.0989	-0.1820	8.63	2.64	-0.750			
0.7673	49104.09	3.0960	3.0961	-0.1804	8.63	2.64	-0.750			
0.7678	49138.56	3.0930	3.0931	-0.1789	8.64	2.65	-0.750			
0.7683	49172.94	3.0900	3.0900	-0.1772	8.65	2.66	-0.750			
0.7689	49206.58	3.0870	3.0870	-0.1758	8.66	2.67	-0.750			
0.7694	49240.10	3.0840	3.0840	-0.1749	8.66	2.67	-0.750			
0.7699	49273.27	3.0810	3.0811	-0.1737	8.67	2.68	-0.750			
0.7704	49306.72	3.0780	3.0779	-0.1727	8.68	2.69	-0.750			
0.7709	49339.96	3.0750	3.0749	-0.1712	8.68	2.69	-0.750			
0.7715	49372.80	3.0720	3.0720	-0.1700	8.69	2.70	-0.750			
0.7720	49405.27	3.0690	3.0691	-0.1682	8.70	2.71	-0.750			
0.7725	49437.56	3.0660	3.0660	-0.1668	8.70	2.71	-0.750			
0.7730	49469.14	3.0630	3.0630	-0.1650	8.71	2.72	-0.750			
0.7734	49500.45	3.0600	3.0600	-0.1634	8.71	2.72	-0.750			
0.7739	49531.75	3.0570	3.0571	-0.1626	8.72	2.73	-0.750			
0.7744	49562.71	3.0540	3.0540	-0.1626	8.73	2.74	-0.750			
0.7749	49593.91	3.0510	3.0510	-0.1623	8.74	2.75	-0.750			
0.7754	49625.47	3.0480	3.0479	-0.1607	8.74	2.75	-0.750			
0.7759	49656.41	3.0450	3.0449	-0.1597	8.75	2.76	-0.750			
0.7764	49686.93	3.0420	3.0421	-0.1595	8.76	2.77	-0.750			
0.7768	49717.59	3.0390	3.0392	-0.1583	8.77	2.78	-0.750			
0.7773	49747.85	3.0360	3.0359	-0.1568	8.77	2.78	-0.750			
0.7778	49777.72	3.0330	3.0328	-0.1559	8.78	2.79	-0.750			
0.7782	49807.24	3.0300	3.0301	-0.1544	8.79	2.80	-0.750			
0.7787	49836.87	3.0270	3.0270	-0.1538	8.80	2.81	-0.750			
0.7792	49866.92	3.0240	3.0239	-0.1537	8.80	2.81	-0.750			
0.7796	49896.22	3.0210	3.0210	-0.1515	8.81	2.82	-0.750			
0.7801	49924.48	3.0180	3.0180	-0.1510	8.82	2.83	-0.750			
0.7805	49953.70	3.0150	3.0149	-0.1503	8.83	2.84	-0.750			
0.7810	49982.48	3.0120	3.0120	-0.1495	8.83	2.84	-0.750			
0.7814	50010.94	3.0090	3.0089	-0.1488	8.84	2.85	-0.750			
0.7819	50039.50	3.0060	3.0061	-0.1481	8.85	2.86	-0.750			
0.7823	50067.88	3.0030	3.0030	-0.1472	8.85	2.86	-0.750			
