Ah_balance (normalized)	Ah_balance (mAh)	Voltage - fit (V)	Voltage -  interpolate (V)	dQ/dV (1/V)	Temperature (°C)	Temperature - diff (°C)	Current (C)	R_DC 0ms (mOhm)	R_DC 50ms (mOhm)	R_DC 50 ms PEC (mOhm)
0.0002	9.85	4.1120	4.1112	-0.0526	5.99	0.00	-0.750			
0.0004	23.80	4.1090	4.1084	-0.0872	5.99	0.00	-0.750			
0.0007	43.66	4.1060	4.1058	-0.1151	5.99	0.00	-0.750			
0.0011	68.28	4.1030	4.1030	-0.1414	5.99	0.00	-0.750			
0.0015	98.18	4.1000	4.1000	-0.1662	5.99	0.00	-0.750			
0.0021	132.87	4.0970	4.0970	-0.1895	5.99	0.00	-0.750			
0.0027	172.84	4.0940	4.0940	-0.2133	5.99	0.00	-0.750			
0.0034	215.66	4.0910	4.0910	-0.2351	5.99	0.00	-0.750			
0.0041	262.98	4.0880	4.0880	-0.2561	5.99	0.00	-0.750			
0.0049	314.16	4.0850	4.0850	-0.2778	5.99	0.00	-0.750			
0.0058	369.71	4.0820	4.0819	-0.2976	5.99	0.00	-0.750			
0.0067	428.90	4.0790	4.0790	-0.3183	5.99	0.00	-0.750			
0.0077	491.69	4.0760	4.0760	-0.3400	5.99	0.00	-0.750			
0.0087	558.20	4.0730	4.0730	-0.3668	5.99	0.00	-0.750			
0.0099	630.91	4.0700	4.0700	-0.3903	5.99	0.00	-0.750			
0.0111	707.79	4.0670	4.0669	-0.4175	5.99	0.00	-0.750			
0.0123	790.16	4.0640	4.0640	-0.4468	5.99	0.00	-0.750			
0.0137	879.83	4.0610	4.0610	-0.4725	5.99	0.00	-0.750			
0.0152	973.76	4.0580	4.0580	-0.4940	5.99	0.00	-0.750			
0.0167	1071.60	4.0550	4.0550	-0.5148	5.99	0.00	-0.750			
0.0183	1172.43	4.0520	4.0521	-0.5332	5.99	0.00	-0.750			
0.0200	1278.11	4.0490	4.0490	-0.5497	5.99	0.00	-0.750			
0.0216	1384.28	4.0460	4.0459	-0.5621	6.00	0.01	-0.750			
0.0233	1492.98	4.0430	4.0431	-0.5752	6.00	0.01	-0.750			
0.0251	1604.94	4.0400	4.0401	-0.5933	6.00	0.01	-0.750			
0.0269	1719.59	4.0370	4.0370	-0.6116	6.00	0.01	-0.750			
0.0287	1838.21	4.0340	4.0339	-0.6281	6.01	0.02	-0.750			
0.0306	1960.68	4.0310	4.0311	-0.6446	6.01	0.02	-0.750			
0.0326	2087.50	4.0280	4.0279	-0.6593	6.02	0.03	-0.750			
0.0346	2215.99	4.0250	4.0251	-0.6741	6.02	0.03	-0.750			
0.0367	2347.27	4.0220	4.0220	-0.6841	6.03	0.04	-0.750			
0.0387	2479.46	4.0190	4.0190	-0.6925	6.03	0.04	-0.750			
0.0408	2613.68	4.0160	4.0158	-0.7013	6.04	0.05	-0.750			
0.0430	2749.29	4.0130	4.0132	-0.7083	6.04	0.05	-0.750			
0.0451	2887.14	4.0100	4.0101	-0.7084	6.05	0.06	-0.750			
0.0472	3022.61	4.0070	4.0069	-0.7199	6.05	0.06	-0.750			
0.0494	3160.61	4.0040	4.0040	-0.7262	6.06	0.07	-0.750			
0.0516	3300.58	4.0010	4.0010	-0.7293	6.07	0.08	-0.750			
0.0538	3441.07	3.9980	3.9978	-0.7309	6.08	0.09	-0.750			
0.0560	3583.94	3.9950	3.9953	-0.7348	6.08	0.09	-0.750			
0.0582	3725.75	3.9920	3.9920	-0.7354	6.09	0.10	-0.750			
0.0604	3866.94	3.9890	3.9888	-0.7392	6.10	0.11	-0.750			
0.0626	4003.62	3.9860	3.9861	-0.7325	6.10	0.11	-0.750			
0.0648	4147.18	3.9830	3.9830	-0.7396	6.11	0.12	-0.750			
0.0671	4291.88	3.9800	3.9800	-0.7459	6.12	0.13	-0.750			
0.0693	4434.83	3.9770	3.9770	-0.7505	6.13	0.14	-0.750			
0.0715	4578.87	3.9740	3.9739	-0.7553	6.13	0.14	-0.750			
0.0738	4724.10	3.9710	3.9710	-0.7591	6.14	0.15	-0.750			
0.0761	4869.46	3.9680	3.9680	-0.7615	6.15	0.16	-0.750			
0.0784	5015.86	3.9650	3.9649	-0.7709	6.15	0.16	-0.750			
0.0807	5166.60	3.9620	3.9620	-0.7743	6.16	0.17	-0.750			
0.0830	5314.97	3.9590	3.9590	-0.7773	6.17	0.18	-0.750			
0.0854	5464.47	3.9560	3.9560	-0.7755	6.18	0.19	-0.750			
0.0877	5615.13	3.9530	3.9529	-0.7761	6.19	0.20	-0.750			
0.0901	5763.74	3.9500	3.9500	-0.7781	6.20	0.21	-0.750			
0.0924	5913.17	3.9470	3.9470	-0.7757	6.21	0.22	-0.750			
0.0947	6061.67	3.9440	3.9439	-0.7700	6.22	0.23	-0.750			
0.0970	6209.84	3.9410	3.9411	-0.7736	6.22	0.23	-0.750			
0.0993	6356.67	3.9380	3.9380	-0.7685	6.23	0.24	-0.750			
0.1016	6504.18	3.9350	3.9349	-0.7705	6.24	0.25	-0.750			
0.1039	6651.28	3.9320	3.9320	-0.7771	6.25	0.26	-0.750			
0.1062	6799.81	3.9290	3.9289	-0.7833	6.25	0.26	-0.750			
0.1086	6951.40	3.9260	3.9260	-0.7957	6.26	0.27	-0.750			
0.1111	7108.17	3.9230	3.9231	-0.7974	6.27	0.28	-0.750			
0.1135	7262.16	3.9200	3.9199	-0.7986	6.28	0.29	-0.750			
0.1159	7418.08	3.9170	3.9169	-0.7958	6.28	0.29	-0.750			
0.1183	7569.13	3.9140	3.9142	-0.7917	6.29	0.30	-0.750			
0.1206	7718.66	3.9110	3.9108	-0.7904	6.30	0.31	-0.750			
0.1230	7869.44	3.9080	3.9080	-0.7967	6.31	0.32	-0.750			
0.1253	8021.28	3.9050	3.9049	-0.7973	6.32	0.33	-0.750			
0.1278	8177.15	3.9020	3.9020	-0.8135	6.33	0.34	-0.750			
0.1303	8336.82	3.8990	3.8992	-0.8208	6.34	0.35	-0.750			
0.1327	8495.91	3.8960	3.8959	-0.8258	6.35	0.36	-0.750			
0.1352	8655.17	3.8930	3.8930	-0.8238	6.36	0.37	-0.750			
0.1377	8812.33	3.8900	3.8901	-0.8198	6.36	0.37	-0.750			
0.1402	8971.39	3.8870	3.8869	-0.8212	6.37	0.38	-0.750			
0.1426	9127.77	3.8840	3.8841	-0.8143	6.38	0.39	-0.750			
0.1450	9281.92	3.8810	3.8810	-0.8078	6.39	0.40	-0.750			
0.1475	9436.92	3.8780	3.8780	-0.8092	6.40	0.41	-0.750			
0.1499	9591.97	3.8750	3.8750	-0.8083	6.41	0.42	-0.750			
0.1523	9746.35	3.8720	3.8720	-0.8164	6.42	0.43	-0.750			
0.1547	9903.94	3.8690	3.8691	-0.8202	6.43	0.44	-0.750			
0.1572	10062.27	3.8660	3.8659	-0.8264	6.44	0.45	-0.750			
0.1597	10220.72	3.8630	3.8630	-0.8365	6.44	0.45	-0.750			
0.1622	10381.99	3.8600	3.8601	-0.8469	6.45	0.46	-0.750			
0.1648	10546.19	3.8570	3.8570	-0.8487	6.46	0.47	-0.750			
0.1674	10712.86	3.8540	3.8540	-0.8493	6.47	0.48	-0.750			
0.1699	10875.41	3.8510	3.8511	-0.8455	6.48	0.49	-0.750			
0.1725	11039.80	3.8480	3.8481	-0.8467	6.49	0.50	-0.750			
0.1750	11201.19	3.8450	3.8449	-0.8389	6.50	0.51	-0.750			
0.1775	11359.87	3.8420	3.8419	-0.8353	6.51	0.52	-0.750			
0.1800	11519.01	3.8390	3.8392	-0.8336	6.52	0.53	-0.750			
0.1825	11679.09	3.8360	3.8360	-0.8399	6.53	0.54	-0.750			
0.1850	11840.91	3.8330	3.8329	-0.8485	6.54	0.55	-0.750			
0.1876	12004.01	3.8300	3.8300	-0.8505	6.54	0.55	-0.750			
0.1902	12170.31	3.8270	3.8269	-0.8595	6.55	0.56	-0.750			
0.1927	12334.49	3.8240	3.8242	-0.8594	6.56	0.57	-0.750			
0.1953	12499.00	3.8210	3.8210	-0.8626	6.57	0.58	-0.750			
0.1979	12665.93	3.8180	3.8179	-0.8659	6.58	0.59	-0.750			
0.2005	12830.52	3.8150	3.8149	-0.8609	6.58	0.59	-0.750			
0.2031	12996.19	3.8120	3.8120	-0.8689	6.59	0.60	-0.750			
0.2057	13164.05	3.8090	3.8092	-0.8708	6.60	0.61	-0.750			
0.2083	13333.71	3.8060	3.8059	-0.8696	6.61	0.62	-0.750			
0.2109	13498.92	3.8030	3.8030	-0.8732	6.62	0.63	-0.750			
0.2135	13666.75	3.8000	3.8001	-0.8711	6.63	0.64	-0.750			
0.2162	13835.35	3.7970	3.7969	-0.8708	6.64	0.65	-0.750			
0.2188	14002.55	3.7940	3.7941	-0.8681	6.65	0.66	-0.750			
0.2214	14167.44	3.7910	3.7911	-0.8629	6.66	0.67	-0.750			
0.2240	14333.14	3.7880	3.7880	-0.8647	6.67	0.68	-0.750			
0.2265	14497.71	3.7850	3.7850	-0.8591	6.68	0.69	-0.750			
0.2291	14663.00	3.7820	3.7820	-0.8654	6.69	0.70	-0.750			
0.2317	14829.91	3.7790	3.7790	-0.8727	6.69	0.70	-0.750			
0.2343	14997.98	3.7760	3.7760	-0.8834	6.70	0.71	-0.750			
0.2370	15169.15	3.7730	3.7730	-0.8869	6.71	0.72	-0.750			
0.2397	15340.44	3.7700	3.7699	-0.8950	6.72	0.73	-0.750			
0.2424	15513.49	3.7670	3.7673	-0.8972	6.73	0.74	-0.750			
0.2451	15686.98	3.7640	3.7639	-0.9009	6.74	0.75	-0.750			
0.2478	15858.61	3.7610	3.7611	-0.9044	6.75	0.76	-0.750			
0.2505	16030.72	3.7580	3.7580	-0.9079	6.75	0.76	-0.750			
0.2532	16204.84	3.7550	3.7549	-0.9128	6.76	0.77	-0.750			
0.2560	16384.70	3.7520	3.7521	-0.9158	6.77	0.78	-0.750			
0.2587	16559.33	3.7490	3.7490	-0.9185	6.78	0.79	-0.750			
0.2616	16740.18	3.7460	3.7460	-0.9153	6.79	0.80	-0.750			
0.2643	16915.10	3.7430	3.7430	-0.9081	6.80	0.81	-0.750			
0.2670	17087.36	3.7400	3.7401	-0.9005	6.81	0.82	-0.750			
0.2697	17258.70	3.7370	3.7371	-0.9016	6.81	0.82	-0.750			
0.2723	17429.97	3.7340	3.7339	-0.9035	6.82	0.83	-0.750			
0.2751	17603.70	3.7310	3.7310	-0.9072	6.83	0.84	-0.750			
0.2778	17776.62	3.7280	3.7280	-0.9106	6.83	0.84	-0.750			
0.2806	17957.48	3.7250	3.7251	-0.9191	6.84	0.85	-0.750			
0.2833	18132.63	3.7220	3.7221	-0.9228	6.85	0.86	-0.750			
0.2861	18309.80	3.7190	3.7189	-0.9253	6.86	0.87	-0.750			
0.2889	18486.45	3.7160	3.7160	-0.9301	6.87	0.88	-0.750			
0.2916	18663.92	3.7130	3.7130	-0.9356	6.88	0.89	-0.750			
0.2944	18843.88	3.7100	3.7099	-0.9489	6.88	0.89	-0.750			
0.2973	19029.56	3.7070	3.7069	-0.9514	6.89	0.90	-0.750			
0.3002	19213.23	3.7040	3.7040	-0.9569	6.90	0.91	-0.750			
0.3030	19395.07	3.7010	3.7011	-0.9591	6.90	0.91	-0.750			
0.3060	19582.53	3.6980	3.6980	-0.9663	6.91	0.92	-0.750			
0.3089	19768.54	3.6950	3.6950	-0.9803	6.92	0.93	-0.750			
0.3118	19956.79	3.6920	3.6920	-0.9855	6.93	0.94	-0.750			
0.3148	20148.20	3.6890	3.6888	-0.9940	6.93	0.94	-0.750			
0.3179	20343.81	3.6860	3.6864	-0.9941	6.94	0.95	-0.750			
0.3208	20532.78	3.6830	3.6830	-0.9944	6.95	0.96	-0.750			
0.3238	20722.72	3.6800	3.6800	-0.9963	6.96	0.97	-0.750			
0.3268	20912.71	3.6770	3.6769	-1.0055	6.97	0.98	-0.750			
0.3298	21105.56	3.6740	3.6741	-1.0143	6.98	0.99	-0.750			
0.3328	21299.63	3.6710	3.6710	-1.0286	6.98	0.99	-0.750			
0.3360	21501.15	3.6680	3.6680	-1.0382	6.99	1.00	-0.750			
0.3391	21702.89	3.6650	3.6649	-1.0448	6.99	1.00	-0.750			
0.3422	21899.08	3.6620	3.6620	-1.0571	7.00	1.01	-0.750			
0.3454	22104.66	3.6590	3.6590	-1.0711	7.01	1.02	-0.750			
0.3486	22313.33	3.6560	3.6559	-1.0734	7.01	1.02	-0.750			
0.3519	22521.30	3.6530	3.6529	-1.0801	7.02	1.03	-0.750			
0.3551	22729.34	3.6500	3.6502	-1.0929	7.03	1.04	-0.750			
0.3585	22941.09	3.6470	3.6469	-1.0963	7.04	1.05	-0.750			
0.3617	23149.00	3.6440	3.6439	-1.1016	7.04	1.05	-0.750			
0.3650	23357.45	3.6410	3.6411	-1.1128	7.05	1.06	-0.750			
0.3683	23573.05	3.6380	3.6380	-1.1403	7.05	1.06	-0.750			
0.3718	23795.92	3.6350	3.6349	-1.1612	7.06	1.07	-0.750			
0.3753	24020.73	3.6320	3.6319	-1.1773	7.07	1.08	-0.750			
0.3789	24247.62	3.6290	3.6292	-1.1990	7.08	1.09	-0.750			
0.3826	24486.28	3.6260	3.6259	-1.2093	7.08	1.09	-0.750			
0.3862	24717.93	3.6230	3.6229	-1.2137	7.09	1.10	-0.750			
0.3899	24951.64	3.6200	3.6200	-1.2112	7.10	1.11	-0.750			
0.3935	25182.48	3.6170	3.6173	-1.2215	7.10	1.11	-0.750			
0.3972	25419.79	3.6140	3.6138	-1.2314	7.10	1.11	-0.750			
0.4008	25652.30	3.6110	3.6110	-1.2476	7.11	1.12	-0.750			
0.4046	25892.12	3.6080	3.6080	-1.2658	7.11	1.12	-0.750			
0.4085	26141.06	3.6050	3.6051	-1.2930	7.12	1.13	-0.750	0.417	0.996	
0.4124	26393.28	3.6020	3.6019	-1.3055	7.12	1.13	-0.750			
0.4163	26646.20	3.5990	3.5991	-1.3265	7.13	1.14	-0.750			
0.4203	26900.79	3.5960	3.5959	-1.3260	7.13	1.14	-0.750			
0.4244	27161.78	3.5930	3.5929	-1.3373	7.14	1.15	-0.750			
0.4283	27413.39	3.5900	3.5900	-1.3364	7.15	1.16	-0.750			
0.4323	27668.50	3.5870	3.5870	-1.3483	7.15	1.16	-0.750			
0.4364	27927.58	3.5840	3.5840	-1.3803	7.15	1.16	-0.750			
0.4405	28193.99	3.5810	3.5809	-1.4041	7.16	1.17	-0.750			
0.4448	28465.54	3.5780	3.5780	-1.4247	7.16	1.17	-0.750			
0.4492	28747.25	3.5750	3.5750	-1.4483	7.17	1.18	-0.750			
0.4536	29030.22	3.5720	3.5719	-1.4630	7.18	1.19	-0.750			
0.4580	29311.36	3.5690	3.5691	-1.4699	7.18	1.19	-0.750			
0.4624	29594.02	3.5660	3.5659	-1.4768	7.19	1.20	-0.750			
0.4668	29873.00	3.5630	3.5629	-1.4873	7.20	1.21	-0.750			
0.4713	30164.55	3.5600	3.5600	-1.4957	7.20	1.21	-0.750			
0.4758	30452.74	3.5570	3.5570	-1.5170	7.21	1.22	-0.750			
0.4805	30750.12	3.5540	3.5542	-1.5308	7.21	1.22	-0.750			
0.4850	31041.27	3.5510	3.5510	-1.5478	7.22	1.23	-0.750			
0.4897	31341.14	3.5480	3.5479	-1.5618	7.23	1.24	-0.750			
0.4944	31641.88	3.5450	3.5450	-1.5821	7.23	1.24	-0.750			
0.4992	31946.09	3.5420	3.5419	-1.5979	7.24	1.25	-0.750			
0.5040	32257.99	3.5390	3.5389	-1.6048	7.24	1.25	-0.750			
0.5089	32566.58	3.5360	3.5359	-1.6143	7.24	1.25	-0.750			
0.5137	32877.68	3.5330	3.5327	-1.6387	7.25	1.26	-0.750			
0.5186	33192.35	3.5300	3.5299	-1.6376	7.25	1.26	-0.750			
0.5236	33510.32	3.5270	3.5272	-1.6476	7.26	1.27	-0.750			
0.5286	33832.87	3.5240	3.5239	-1.6376	7.27	1.28	-0.750			
0.5335	34145.83	3.5210	3.5210	-1.6344	7.28	1.29	-0.750			
0.5384	34458.61	3.5180	3.5180	-1.6592	7.28	1.29	-0.750			
0.5434	34775.92	3.5150	3.5150	-1.6585	7.29	1.30	-0.750			
0.5484	35097.56	3.5120	3.5121	-1.6521	7.30	1.31	-0.750			
0.5535	35424.96	3.5090	3.5090	-1.6616	7.31	1.32	-0.750			
0.5585	35742.29	3.5060	3.5060	-1.6539	7.32	1.33	-0.750			
0.5635	36060.95	3.5030	3.5031	-1.6621	7.32	1.33	-0.750			
0.5683	36372.49	3.5000	3.5000	-1.6449	7.33	1.34	-0.750			
0.5732	36684.06	3.4970	3.4972	-1.6324	7.34	1.35	-0.750			
0.5782	37004.57	3.4940	3.4941	-1.6354	7.35	1.36	-0.750			
0.5831	37315.32	3.4910	3.4909	-1.6317	7.35	1.36	-0.750			
0.5880	37633.05	3.4880	3.4879	-1.6264	7.36	1.37	-0.750			
0.5928	37941.34	3.4850	3.4852	-1.6108	7.36	1.37	-0.750			
0.5976	38245.15	3.4820	3.4819	-1.6166	7.37	1.38	-0.750			
0.6025	38558.45	3.4790	3.4791	-1.6025	7.38	1.39	-0.750			
0.6073	38868.27	3.4760	3.4759	-1.6014	7.39	1.40	-0.750			
0.6122	39178.10	3.4730	3.4730	-1.5905	7.40	1.41	-0.750			
0.6169	39480.56	3.4700	3.4699	-1.5777	7.41	1.42	-0.750			
0.6216	39784.11	3.4670	3.4669	-1.5649	7.42	1.43	-0.750			
0.6263	40083.19	3.4640	3.4639	-1.5385	7.43	1.44	-0.750			
0.6308	40373.70	3.4610	3.4612	-1.5125	7.44	1.45	-0.750			
0.6354	40665.10	3.4580	3.4580	-1.4931	7.45	1.46	-0.750			
0.6398	40948.81	3.4550	3.4550	-1.4743	7.46	1.47	-0.750			
0.6443	41232.67	3.4520	3.4520	-1.4510	7.47	1.48	-0.750			
0.6486	41509.31	3.4490	3.4489	-1.4300	7.48	1.49	-0.750			
0.6528	41779.06	3.4460	3.4460	-1.4126	7.49	1.50	-0.750			
0.6570	42049.30	3.4430	3.4430	-1.3806	7.50	1.51	-0.750			
0.6612	42316.49	3.4400	3.4399	-1.3545	7.51	1.52	-0.750			
0.6652	42571.03	3.4370	3.4371	-1.3302	7.52	1.53	-0.750			
0.6691	42824.19	3.4340	3.4340	-1.2967	7.54	1.55	-0.750			
0.6730	43071.70	3.4310	3.4309	-1.2678	7.55	1.56	-0.750			
0.6767	43309.98	3.4280	3.4280	-1.2299	7.57	1.58	-0.750			
0.6803	43540.48	3.4250	3.4253	-1.2033	7.58	1.59	-0.750			
0.6839	43771.21	3.4220	3.4219	-1.1864	7.59	1.60	-0.750			
0.6874	43996.03	3.4190	3.4190	-1.1618	7.60	1.61	-0.750			
0.6909	44215.43	3.4160	3.4159	-1.1336	7.61	1.62	-0.750			
0.6943	44434.58	3.4130	3.4130	-1.1218	7.63	1.64	-0.750			
0.6976	44649.00	3.4100	3.4100	-1.0896	7.64	1.65	-0.750			
0.7009	44859.02	3.4070	3.4070	-1.0523	7.65	1.66	-0.750			
0.7040	45056.81	3.4040	3.4040	-1.0021	7.66	1.67	-0.750			
0.7069	45242.52	3.4010	3.4010	-0.9743	7.67	1.68	-0.750			
0.7097	45423.42	3.3980	3.3980	-0.9350	7.68	1.69	-0.750			
0.7125	45598.18	3.3950	3.3949	-0.9016	7.69	1.70	-0.750			
0.7151	45765.21	3.3920	3.3919	-0.8739	7.70	1.71	-0.750			
0.7177	45935.55	3.3890	3.3894	-0.8539	7.71	1.72	-0.750			
0.7203	46098.12	3.3860	3.3858	-0.8265	7.72	1.73	-0.750			
0.7227	46254.35	3.3830	3.3830	-0.7988	7.73	1.74	-0.750			
0.7250	46401.42	3.3800	3.3800	-0.7681	7.75	1.76	-0.750			
0.7273	46547.14	3.3770	3.3770	-0.7497	7.76	1.77	-0.750			
0.7295	46688.12	3.3740	3.3739	-0.7290	7.77	1.78	-0.750			
0.7316	46824.04	3.3710	3.3709	-0.7057	7.78	1.79	-0.750			
0.7337	46959.27	3.3680	3.3681	-0.6896	7.79	1.80	-0.750			
0.7358	47090.54	3.3650	3.3649	-0.6677	7.80	1.81	-0.750			
0.7378	47217.11	3.3620	3.3620	-0.6420	7.81	1.82	-0.750			
0.7397	47337.97	3.3590	3.3591	-0.6156	7.82	1.83	-0.750			
0.7415	47453.16	3.3560	3.3560	-0.5951	7.83	1.84	-0.750			
0.7432	47564.11	3.3530	3.3530	-0.5729	7.84	1.85	-0.750			
0.7449	47671.91	3.3500	3.3500	-0.5581	7.85	1.86	-0.750			
0.7465	47776.54	3.3470	3.3470	-0.5416	7.86	1.87	-0.750			
0.7481	47879.38	3.3440	3.3440	-0.5282	7.87	1.88	-0.750			
0.7497	47980.27	3.3410	3.3410	-0.5185	7.88	1.89	-0.750			
0.7512	48078.31	3.3380	3.3378	-0.5018	7.89	1.90	-0.750			
0.7527	48173.13	3.3350	3.3350	-0.4860	7.90	1.91	-0.750			
0.7541	48265.28	3.3320	3.3321	-0.4748	7.90	1.91	-0.750			
0.7555	48355.06	3.3290	3.3291	-0.4602	7.91	1.92	-0.750			
0.7569	48442.91	3.3260	3.3259	-0.4459	7.92	1.93	-0.750			
0.7582	48526.29	3.3230	3.3230	-0.4308	7.93	1.94	-0.750			
0.7595	48606.88	3.3200	3.3201	-0.4195	7.94	1.95	-0.750			
0.7607	48686.61	3.3170	3.3170	-0.4104	7.95	1.96	-0.750			
0.7619	48763.85	3.3140	3.3139	-0.3993	7.96	1.97	-0.750			
0.7631	48839.63	3.3110	3.3110	-0.3877	7.97	1.98	-0.750			
0.7643	48913.39	3.3080	3.3081	-0.3784	7.98	1.99	-0.750			
0.7654	48986.21	3.3050	3.3050	-0.3689	7.98	1.99	-0.750			
0.7665	49055.24	3.3020	3.3021	-0.3605	7.99	2.00	-0.750			
0.7675	49122.67	3.2990	3.2989	-0.3488	8.00	2.01	-0.750			
0.7686	49189.00	3.2960	3.2960	-0.3411	8.01	2.02	-0.750			
0.7696	49253.51	3.2930	3.2930	-0.3336	8.01	2.02	-0.750			
0.7706	49317.15	3.2900	3.2901	-0.3258	8.02	2.03	-0.750			
0.7716	49379.39	3.2870	3.2870	-0.3183	8.03	2.04	-0.750			
0.7725	49439.50	3.2840	3.2839	-0.3100	8.03	2.04	-0.750			
0.7734	49497.67	3.2810	3.2810	-0.3019	8.04	2.05	-0.750			
0.7743	49555.49	3.2780	3.2779	-0.2951	8.05	2.06	-0.750			
0.7752	49610.89	3.2750	3.2750	-0.2870	8.05	2.06	-0.750			
0.7760	49665.09	3.2720	3.2720	-0.2803	8.06	2.07	-0.750			
0.7768	49718.21	3.2690	3.2690	-0.2754	8.07	2.08	-0.750			
0.7777	49770.41	3.2660	3.2659	-0.2691	8.07	2.08	-0.750			
0.7785	49821.64	3.2630	3.2629	-0.2632	8.08	2.09	-0.750			
0.7792	49871.53	3.2600	3.2600	-0.2583	8.08	2.09	-0.750			
0.7800	49920.70	3.2570	3.2572	-0.2542	8.09	2.10	-0.750			
0.7808	49969.21	3.2540	3.2540	-0.2496	8.10	2.11	-0.750			
0.7815	50016.26	3.2510	3.2508	-0.2447	8.10	2.11	-0.750			
0.7822	50062.57	3.2480	3.2480	-0.2402	8.11	2.12	-0.750			
0.7829	50108.43	3.2450	3.2450	-0.2354	8.12	2.13	-0.750			
0.7837	50153.72	3.2420	3.2420	-0.2315	8.13	2.14	-0.750			
0.7843	50197.91	3.2390	3.2390	-0.2269	8.13	2.14	-0.750			
0.7850	50240.59	3.2360	3.2361	-0.2220	8.14	2.15	-0.750			
0.7857	50282.68	3.2330	3.2330	-0.2172	8.15	2.16	-0.750			
0.7863	50323.98	3.2300	3.2299	-0.2130	8.15	2.16	-0.750			
0.7869	50364.25	3.2270	3.2270	-0.2092	8.16	2.17	-0.750			
0.7876	50403.91	3.2240	3.2242	-0.2054	8.17	2.18	-0.750			
0.7882	50443.07	3.2210	3.2210	-0.2025	8.17	2.18	-0.750			
0.7888	50481.64	3.2180	3.2180	-0.1992	8.18	2.19	-0.750			
0.7894	50519.32	3.2150	3.2150	-0.1964	8.19	2.20	-0.750			
0.7899	50556.61	3.2120	3.2120	-0.1935	8.19	2.20	-0.750			
0.7905	50593.63	3.2090	3.2090	-0.1914	8.20	2.21	-0.750			
0.7911	50630.23	3.2060	3.2058	-0.1882	8.20	2.21	-0.750			
0.7917	50666.12	3.2030	3.2030	-0.1852	8.20	2.21	-0.750			
0.7922	50701.59	3.2000	3.2000	-0.1823	8.21	2.22	-0.750			
0.7928	50736.32	3.1970	3.1970	-0.1789	8.21	2.22	-0.750			
0.7933	50770.36	3.1940	3.1940	-0.1751	8.22	2.23	-0.750			
0.7938	50803.57	3.1910	3.1910	-0.1713	8.22	2.23	-0.750			
0.7943	50835.81	3.1880	3.1880	-0.1682	8.23	2.24	-0.750			
0.7948	50867.83	3.1850	3.1850	-0.1653	8.24	2.25	-0.750			
0.7953	50899.30	3.1820	3.1820	-0.1622	8.24	2.25	-0.750			
0.7958	50929.91	3.1790	3.1790	-0.1593	8.25	2.26	-0.750			
0.7962	50959.79	3.1760	3.1761	-0.1576	8.25	2.26	-0.750			
0.7967	50989.95	3.1730	3.1730	-0.1565	8.26	2.27	-0.750			
0.7972	51019.83	3.1700	3.1699	-0.1552	8.26	2.27	-0.750			
0.7976	51049.47	3.1670	3.1669	-0.1539	8.27	2.28	-0.750			
0.7981	51079.17	3.1640	3.1640	-0.1520	8.28	2.29	-0.750			
0.7986	51108.20	3.1610	3.1611	-0.1504	8.28	2.29	-0.750			
0.7990	51137.47	3.1580	3.1580	-0.1485	8.29	2.30	-0.750			
0.7995	51166.00	3.1550	3.1550	-0.1456	8.29	2.30	-0.750			
0.7999	51193.20	3.1520	3.1521	-0.1421	8.30	2.31	-0.750			
0.8003	51220.24	3.1490	3.1489	-0.1395	8.30	2.31	-0.750			
0.8007	51246.64	3.1460	3.1461	-0.1375	8.31	2.32	-0.750			
0.8011	51272.50	3.1430	3.1429	-0.1350	8.31	2.32	-0.750			
0.8015	51298.17	3.1400	3.1399	-0.1339	8.32	2.33	-0.750			
0.8019	51323.77	3.1370	3.1371	-0.1330	8.32	2.33	-0.750			
0.8023	51349.04	3.1340	3.1340	-0.1320	8.33	2.34	-0.750			
0.8027	51374.67	3.1310	3.1310	-0.1306	8.33	2.34	-0.750			
0.8031	51399.47	3.1280	3.1280	-0.1294	8.34	2.35	-0.750			
0.8035	51424.12	3.1250	3.1252	-0.1280	8.34	2.35	-0.750			
0.8039	51448.39	3.1220	3.1220	-0.1274	8.34	2.35	-0.750			
0.8043	51473.09	3.1190	3.1189	-0.1258	8.35	2.36	-0.750			
0.8046	51497.08	3.1160	3.1159	-0.1244	8.35	2.36	-0.750			
0.8050	51520.96	3.1130	3.1131	-0.1231	8.36	2.37	-0.750			
0.8054	51544.43	3.1100	3.1102	-0.1215	8.36	2.37	-0.750			
0.8057	51567.77	3.1070	3.1069	-0.1206	8.37	2.38	-0.750			
0.8061	51590.51	3.1040	3.1040	-0.1184	8.37	2.38	-0.750			
0.8065	51613.15	3.1010	3.1010	-0.1170	8.38	2.39	-0.750			
0.8068	51635.20	3.0980	3.0980	-0.1153	8.38	2.39	-0.750			
0.8071	51657.19	3.0950	3.0950	-0.1146	8.39	2.40	-0.750			
0.8075	51679.29	3.0920	3.0921	-0.1140	8.39	2.40	-0.750			
0.8078	51701.10	3.0890	3.0889	-0.1130	8.40	2.41	-0.750			
0.8082	51722.62	3.0860	3.0859	-0.1119	8.40	2.41	-0.750			
0.8085	51744.08	3.0830	3.0830	-0.1108	8.41	2.42	-0.750			
0.8088	51765.23	3.0800	3.0799	-0.1097	8.41	2.42	-0.750			
0.8092	51786.31	3.0770	3.0771	-0.1083	8.42	2.43	-0.750			
0.8095	51807.27	3.0740	3.0741	-0.1074	8.42	2.43	-0.750			
0.8098	51827.59	3.0710	3.0709	-0.1061	8.43	2.44	-0.750			
0.8101	51847.67	3.0680	3.0680	-0.1045	8.43	2.44	-0.750			
0.8104	51867.51	3.0650	3.0651	-0.1038	8.44	2.45	-0.750			
0.8107	51887.20	3.0620	3.0620	-0.1027	8.44	2.45	-0.750			
0.8110	51906.82	3.0590	3.0590	-0.1022	8.45	2.46	-0.750			
0.8113	51926.24	3.0560	3.0560	-0.1014	8.45	2.46	-0.750			
0.8117	51945.73	3.0530	3.0530	-0.1010	8.45	2.46	-0.750			
0.8120	51965.14	3.0500	3.0499	-0.1006	8.46	2.47	-0.750			
0.8123	51984.41	3.0470	3.0471	-0.1001	8.46	2.47	-0.750			
0.8126	52003.68	3.0440	3.0439	-0.0993	8.47	2.48	-0.750			
0.8129	52022.66	3.0410	3.0409	-0.0984	8.47	2.48	-0.750			
0.8131	52041.50	3.0380	3.0380	-0.0976	8.48	2.49	-0.750			
0.8134	52060.16	3.0350	3.0351	-0.0967	8.48	2.49	-0.750			
0.8137	52078.69	3.0320	3.0320	-0.0957	8.49	2.50	-0.750			
0.8140	52096.96	3.0290	3.0289	-0.0947	8.49	2.50	-0.750			
0.8143	52114.89	3.0260	3.0260	-0.0941	8.49	2.50	-0.750			
0.8146	52132.91	3.0230	3.0231	-0.0935	8.50	2.51	-0.750			
0.8149	52150.89	3.0200	3.0199	-0.0925	8.50	2.51	-0.750			
0.8151	52168.57	3.0170	3.0169	-0.0916	8.51	2.52	-0.750			
0.8154	52186.05	3.0140	3.0141	-0.0909	8.51	2.52	-0.750			
0.8157	52203.43	3.0110	3.0111	-0.0902	8.51	2.52	-0.750			
0.8160	52220.81	3.0080	3.0079	-0.0893	8.52	2.53	-0.750			
0.8162	52237.84	3.0050	3.0049	-0.0881	8.52	2.53	-0.750			
0.8165	52254.75	3.0020	3.0020	-0.0901	8.53	2.54	-0.750			
