Ah_balance (normalized)	Ah_balance (mAh)	Voltage - fit (V)	Voltage -  interpolate (V)	dQ/dV (1/V)	Temperature (°C)	Temperature - diff (°C)	Current (C)	R_DC 0ms (mOhm)	R_DC 50ms (mOhm)	R_DC 50 ms PEC (mOhm)
0.0002	14.95	4.1540	4.1536	-0.0968	26.00	0.00	-0.750			
0.0006	37.47	4.1510	4.1510	-0.1424	26.00	0.00	-0.750			
0.0011	71.01	4.1480	4.1480	-0.1903	26.00	-0.00	-0.750			
0.0018	112.29	4.1450	4.1449	-0.2333	26.00	-0.00	-0.750			
0.0025	161.21	4.1420	4.1420	-0.2755	26.00	-0.00	-0.750			
0.0034	218.86	4.1390	4.1391	-0.3157	26.00	-0.00	-0.750			
0.0044	283.76	4.1360	4.1360	-0.3551	26.00	-0.00	-0.750			
0.0056	355.96	4.1330	4.1330	-0.3913	26.00	-0.00	-0.750			
0.0068	434.85	4.1300	4.1299	-0.4254	26.00	-0.00	-0.750			
0.0081	520.78	4.1270	4.1271	-0.4619	25.99	-0.01	-0.750			
0.0096	612.66	4.1240	4.1241	-0.4930	25.99	-0.01	-0.750			
0.0111	711.74	4.1210	4.1209	-0.5214	25.99	-0.01	-0.750			
0.0127	815.22	4.1180	4.1180	-0.5480	25.99	-0.01	-0.750			
0.0144	923.30	4.1150	4.1150	-0.5723	25.99	-0.01	-0.750			
0.0162	1036.98	4.1120	4.1120	-0.5881	25.99	-0.01	-0.750			
0.0180	1152.93	4.1090	4.1090	-0.6034	25.99	-0.01	-0.750			
0.0198	1269.18	4.1060	4.1061	-0.6190	26.00	-0.00	-0.750	0.306	0.528	
0.0217	1390.04	4.1030	4.1029	-0.6337	26.00	-0.00	-0.750			
0.0236	1512.74	4.1000	4.0999	-0.6484	26.00	-0.00	-0.750			
0.0256	1638.41	4.0970	4.0971	-0.6580	26.00	-0.00	-0.750			
0.0276	1766.87	4.0940	4.0940	-0.6760	26.00	0.00	-0.750			
0.0297	1898.99	4.0910	4.0910	-0.6850	26.00	0.00	-0.750			
0.0317	2030.06	4.0880	4.0880	-0.6964	26.00	0.00	-0.750			
0.0338	2165.05	4.0850	4.0851	-0.7066	26.00	0.00	-0.750			
0.0360	2303.44	4.0820	4.0819	-0.7169	26.00	0.00	-0.750			
0.0382	2442.82	4.0790	4.0789	-0.7176	26.00	0.00	-0.750			
0.0404	2583.45	4.0760	4.0764	-0.7183	26.00	0.00	-0.750	0.313	0.514	
0.0425	2719.36	4.0730	4.0730	-0.7160	26.01	0.01	-0.750			
0.0446	2857.14	4.0700	4.0699	-0.7172	26.01	0.01	-0.750			
0.0468	2993.03	4.0670	4.0670	-0.7167	26.01	0.01	-0.750			
0.0489	3128.90	4.0640	4.0639	-0.7191	26.02	0.02	-0.750			
0.0510	3266.69	4.0610	4.0612	-0.7335	26.02	0.02	-0.750			
0.0533	3410.95	4.0580	4.0581	-0.7418	26.03	0.03	-0.750			
0.0555	3554.63	4.0550	4.0548	-0.7516	26.03	0.03	-0.750			
0.0578	3700.84	4.0520	4.0519	-0.7480	26.04	0.04	-0.750			
0.0601	3845.97	4.0490	4.0495	-0.7455	26.04	0.04	-0.750	0.338	0.522	
0.0623	3988.64	4.0460	4.0459	-0.7407	26.05	0.05	-0.750			
0.0645	4129.56	4.0430	4.0430	-0.7396	26.05	0.05	-0.750			
0.0667	4269.46	4.0400	4.0399	-0.7375	26.06	0.06	-0.750			
0.0689	4409.85	4.0370	4.0369	-0.7461	26.06	0.06	-0.750			
0.0711	4552.47	4.0340	4.0341	-0.7544	26.07	0.07	-0.750			
0.0734	4700.08	4.0310	4.0311	-0.7696	26.07	0.07	-0.750			
0.0758	4851.60	4.0280	4.0281	-0.7742	26.08	0.08	-0.750			
0.0781	5001.57	4.0250	4.0249	-0.7705	26.08	0.08	-0.750			
0.0805	5149.25	4.0220	4.0223	-0.7665	26.09	0.09	-0.750	0.340	0.526	
0.0828	5296.33	4.0190	4.0190	-0.7661	26.09	0.09	-0.750			
0.0850	5441.48	4.0160	4.0159	-0.7622	26.09	0.09	-0.750			
0.0873	5585.56	4.0130	4.0130	-0.7645	26.10	0.10	-0.750			
0.0896	5731.87	4.0100	4.0099	-0.7685	26.10	0.10	-0.750			
0.0919	5881.55	4.0070	4.0071	-0.7857	26.11	0.11	-0.750			
0.0943	6035.28	4.0040	4.0040	-0.7886	26.11	0.11	-0.750			
0.0967	6189.11	4.0010	4.0008	-0.7896	26.12	0.12	-0.750			
0.0991	6341.49	3.9980	3.9980	-0.7857	26.13	0.13	-0.750	0.343	0.520	
0.1015	6493.10	3.9950	3.9951	-0.7783	26.13	0.13	-0.750			
0.1037	6639.87	3.9920	3.9920	-0.7771	26.14	0.14	-0.750			
0.1061	6787.29	3.9890	3.9890	-0.7721	26.14	0.14	-0.750			
0.1083	6932.11	3.9860	3.9860	-0.7716	26.15	0.15	-0.750			
0.1107	7082.12	3.9830	3.9829	-0.7800	26.15	0.15	-0.750			
0.1130	7232.74	3.9800	3.9800	-0.7928	26.16	0.16	-0.750			
0.1154	7388.07	3.9770	3.9769	-0.7951	26.17	0.17	-0.750			
0.1179	7543.31	3.9740	3.9739	-0.7985	26.17	0.17	-0.750			
0.1202	7695.73	3.9710	3.9712	-0.7900	26.18	0.18	-0.750	0.355	0.525	
0.1226	7847.70	3.9680	3.9679	-0.7817	26.18	0.18	-0.750			
0.1249	7996.28	3.9650	3.9650	-0.7793	26.19	0.19	-0.750			
0.1272	8142.40	3.9620	3.9620	-0.7830	26.19	0.19	-0.750			
0.1295	8288.80	3.9590	3.9590	-0.7908	26.20	0.20	-0.750			
0.1319	8441.90	3.9560	3.9559	-0.8107	26.21	0.21	-0.750			
0.1344	8602.67	3.9530	3.9530	-0.8146	26.22	0.22	-0.750			
0.1370	8766.31	3.9500	3.9498	-0.8198	26.23	0.23	-0.750			
0.1395	8925.11	3.9470	3.9468	-0.8080	26.23	0.23	-0.750	0.370	0.525	
0.1418	9077.27	3.9440	3.9440	-0.7958	26.24	0.24	-0.750			
0.1442	9228.01	3.9410	3.9409	-0.7929	26.25	0.25	-0.750			
0.1465	9375.33	3.9380	3.9378	-0.7849	26.26	0.26	-0.750			
0.1488	9525.28	3.9350	3.9349	-0.7933	26.26	0.26	-0.750			
0.1512	9679.02	3.9320	3.9322	-0.8099	26.27	0.27	-0.750			
0.1537	9838.10	3.9290	3.9290	-0.8237	26.28	0.28	-0.750			
0.1562	9998.88	3.9260	3.9258	-0.8213	26.29	0.29	-0.750			
0.1587	10155.70	3.9230	3.9229	-0.8133	26.30	0.30	-0.750			
0.1612	10314.39	3.9200	3.9203	-0.8143	26.30	0.30	-0.750	0.335	0.524	
0.1636	10469.19	3.9170	3.9170	-0.8117	26.31	0.31	-0.750			
0.1660	10622.58	3.9140	3.9138	-0.8035	26.32	0.32	-0.750			
0.1683	10771.76	3.9110	3.9111	-0.8036	26.32	0.32	-0.750			
0.1708	10929.24	3.9080	3.9080	-0.8162	26.33	0.33	-0.750			
0.1733	11088.12	3.9050	3.9050	-0.8279	26.33	0.33	-0.750			
0.1758	11248.67	3.9020	3.9020	-0.8290	26.34	0.34	-0.750			
0.1783	11408.91	3.8990	3.8990	-0.8327	26.35	0.35	-0.750			
0.1808	11570.16	3.8960	3.8962	-0.8264	26.36	0.36	-0.750	0.328	0.519	
0.1833	11729.94	3.8930	3.8929	-0.8220	26.36	0.36	-0.750			
0.1857	11886.32	3.8900	3.8900	-0.8087	26.37	0.37	-0.750			
0.1881	12039.48	3.8870	3.8872	-0.8021	26.38	0.38	-0.750			
0.1905	12192.28	3.8840	3.8839	-0.8028	26.39	0.39	-0.750			
0.1929	12344.31	3.8810	3.8810	-0.8051	26.40	0.40	-0.750			
0.1953	12498.18	3.8780	3.8779	-0.8052	26.41	0.41	-0.750			
0.1978	12656.69	3.8750	3.8749	-0.8114	26.42	0.42	-0.750			
0.2002	12811.69	3.8720	3.8724	-0.8069	26.43	0.43	-0.750	0.347	0.512	
0.2026	12967.62	3.8690	3.8690	-0.8038	26.44	0.44	-0.750			
0.2050	13120.84	3.8660	3.8660	-0.8012	26.44	0.44	-0.750			
0.2074	13275.18	3.8630	3.8629	-0.7933	26.45	0.45	-0.750			
0.2098	13426.59	3.8600	3.8600	-0.7879	26.46	0.46	-0.750			
0.2121	13575.59	3.8570	3.8570	-0.7998	26.47	0.47	-0.750			
0.2146	13731.67	3.8540	3.8539	-0.7979	26.47	0.47	-0.750			
0.2170	13885.20	3.8510	3.8507	-0.7968	26.48	0.48	-0.750			
0.2194	14038.85	3.8480	3.8480	-0.7908	26.49	0.49	-0.750	0.345	0.517	
0.2217	14190.05	3.8450	3.8451	-0.7818	26.50	0.50	-0.750			
0.2241	14342.55	3.8420	3.8419	-0.7820	26.50	0.50	-0.750			
0.2264	14488.94	3.8390	3.8389	-0.7734	26.51	0.51	-0.750			
0.2287	14634.49	3.8360	3.8361	-0.7659	26.52	0.52	-0.750			
0.2310	14781.98	3.8330	3.8330	-0.7739	26.53	0.53	-0.750			
0.2333	14931.75	3.8300	3.8299	-0.7766	26.53	0.53	-0.750			
0.2357	15083.33	3.8270	3.8269	-0.7775	26.54	0.54	-0.750			
0.2380	15231.91	3.8240	3.8240	-0.7696	26.55	0.55	-0.750			
0.2403	15380.22	3.8210	3.8214	-0.7666	26.56	0.56	-0.750	0.327	0.518	
0.2426	15527.05	3.8180	3.8179	-0.7697	26.56	0.56	-0.750			
0.2449	15674.49	3.8150	3.8148	-0.7658	26.57	0.57	-0.750			
0.2472	15818.33	3.8120	3.8120	-0.7641	26.58	0.58	-0.750			
0.2495	15965.25	3.8090	3.8090	-0.7671	26.59	0.59	-0.750			
0.2518	16112.20	3.8060	3.8062	-0.7817	26.59	0.59	-0.750			
0.2541	16264.21	3.8030	3.8029	-0.7841	26.60	0.60	-0.750			
0.2565	16415.95	3.8000	3.7997	-0.7835	26.60	0.60	-0.750			
0.2589	16566.84	3.7970	3.7969	-0.7791	26.61	0.61	-0.750			
0.2612	16718.30	3.7940	3.7942	-0.7784	26.62	0.62	-0.750	0.357	0.521	
0.2635	16866.55	3.7910	3.7911	-0.7804	26.62	0.62	-0.750			
0.2659	17015.37	3.7880	3.7878	-0.7812	26.63	0.63	-0.750			
0.2681	17159.96	3.7850	3.7850	-0.7842	26.63	0.63	-0.750			
0.2705	17314.90	3.7820	3.7819	-0.7978	26.64	0.64	-0.750			
0.2730	17472.15	3.7790	3.7790	-0.8102	26.64	0.64	-0.750			
0.2755	17628.92	3.7760	3.7762	-0.8103	26.65	0.65	-0.750			
0.2779	17784.89	3.7730	3.7729	-0.8138	26.65	0.65	-0.750			
0.2803	17939.99	3.7700	3.7704	-0.8164	26.66	0.66	-0.750	0.338	0.523	
0.2827	18095.89	3.7670	3.7668	-0.8164	26.66	0.66	-0.750			
0.2852	18252.16	3.7640	3.7639	-0.8183	26.67	0.67	-0.750			
0.2877	18410.33	3.7610	3.7611	-0.8261	26.67	0.67	-0.750			
0.2901	18567.50	3.7580	3.7580	-0.8401	26.67	0.67	-0.750			
0.2927	18730.88	3.7550	3.7549	-0.8535	26.68	0.68	-0.750			
0.2953	18897.02	3.7520	3.7519	-0.8580	26.68	0.68	-0.750			
0.2978	19061.49	3.7490	3.7489	-0.8680	26.69	0.69	-0.750			
0.3005	19232.12	3.7460	3.7462	-0.8809	26.69	0.69	-0.750	0.364	0.523	
0.3031	19400.25	3.7430	3.7429	-0.8949	26.69	0.69	-0.750			
0.3058	19571.74	3.7400	3.7399	-0.9007	26.69	0.69	-0.750			
0.3085	19746.11	3.7370	3.7370	-0.9075	26.70	0.70	-0.750			
0.3113	19920.26	3.7340	3.7339	-0.9292	26.70	0.70	-0.750			
0.3142	20105.85	3.7310	3.7310	-0.9439	26.70	0.70	-0.750			
0.3170	20287.00	3.7280	3.7279	-0.9496	26.70	0.70	-0.750			
0.3199	20470.96	3.7250	3.7252	-0.9571	26.71	0.71	-0.750	0.353	0.513	
0.3227	20653.90	3.7220	3.7221	-0.9539	26.71	0.71	-0.750			
0.3256	20839.53	3.7190	3.7192	-0.9707	26.71	0.71	-0.750			
0.3285	21022.83	3.7160	3.7159	-0.9839	26.71	0.71	-0.750			
0.3314	21210.87	3.7130	3.7130	-1.0036	26.71	0.71	-0.750			
0.3345	21407.92	3.7100	3.7100	-1.0202	26.71	0.71	-0.750			
0.3376	21608.99	3.7070	3.7068	-1.0313	26.71	0.71	-0.750			
0.3407	21807.81	3.7040	3.7041	-1.0483	26.71	0.71	-0.750	0.350	0.515	
0.3439	22010.14	3.7010	3.7009	-1.0609	26.71	0.71	-0.750			
0.3471	22212.83	3.6980	3.6978	-1.0647	26.72	0.72	-0.750			
0.3503	22418.13	3.6950	3.6953	-1.0804	26.72	0.72	-0.750			
0.3536	22627.75	3.6920	3.6919	-1.0958	26.72	0.72	-0.750			
0.3570	22845.65	3.6890	3.6890	-1.1071	26.71	0.71	-0.750			
0.3603	23058.12	3.6860	3.6863	-1.1106	26.71	0.71	-0.750	0.359	0.520	
0.3636	23270.60	3.6830	3.6830	-1.1253	26.71	0.71	-0.750			
0.3669	23484.77	3.6800	3.6800	-1.1311	26.71	0.71	-0.750			
0.3703	23698.68	3.6770	3.6769	-1.1501	26.70	0.70	-0.750			
0.3738	23923.93	3.6740	3.6739	-1.1602	26.70	0.70	-0.750			
0.3774	24152.97	3.6710	3.6709	-1.1728	26.70	0.70	-0.750			
0.3809	24379.59	3.6680	3.6683	-1.1820	26.70	0.70	-0.750	0.345	0.519	
0.3845	24607.43	3.6650	3.6650	-1.1841	26.71	0.71	-0.750			
0.3880	24828.97	3.6620	3.6621	-1.2046	26.71	0.71	-0.750			
0.3916	25062.92	3.6590	3.6589	-1.2330	26.71	0.71	-0.750			
0.3953	25299.69	3.6560	3.6559	-1.2560	26.70	0.70	-0.750			
0.3992	25547.53	3.6530	3.6529	-1.2747	26.70	0.70	-0.750	0.357	0.517	
0.4031	25795.22	3.6500	3.6501	-1.2908	26.70	0.70	-0.750			
0.4069	26044.53	3.6470	3.6470	-1.3158	26.70	0.70	-0.750			
0.4109	26297.62	3.6440	3.6438	-1.3403	26.70	0.70	-0.750			
0.4149	26555.97	3.6410	3.6409	-1.3308	26.70	0.70	-0.750			
0.4190	26816.29	3.6380	3.6380	-1.3488	26.70	0.70	-0.750	0.333	0.524	
0.4231	27077.82	3.6350	3.6350	-1.3696	26.69	0.69	-0.750			
0.4272	27340.63	3.6320	3.6319	-1.3936	26.69	0.69	-0.750			
0.4313	27605.88	3.6290	3.6289	-1.4266	26.69	0.69	-0.750			
0.4357	27883.31	3.6260	3.6257	-1.4312	26.69	0.69	-0.750			
0.4400	28161.29	3.6230	3.6230	-1.4640	26.69	0.69	-0.750	0.355	0.528	
0.4445	28448.55	3.6200	3.6200	-1.5168	26.68	0.68	-0.750			
0.4491	28742.02	3.6170	3.6167	-1.5365	26.68	0.68	-0.750			
0.4537	29036.78	3.6140	3.6137	-1.5448	26.68	0.68	-0.750			
0.4584	29335.84	3.6110	3.6109	-1.5867	26.68	0.68	-0.750	0.354	0.527	
0.4632	29641.63	3.6080	3.6081	-1.6273	26.68	0.68	-0.750			
0.4681	29961.30	3.6050	3.6048	-1.6629	26.68	0.68	-0.750			
0.4732	30286.29	3.6020	3.6020	-1.6774	26.68	0.68	-0.750			
0.4783	30610.93	3.5990	3.5986	-1.6992	26.68	0.68	-0.750	0.350	0.523	
0.4835	30942.11	3.5960	3.5960	-1.7530	26.68	0.68	-0.750			
0.4888	31280.80	3.5930	3.5929	-1.7744	26.68	0.68	-0.750			
0.4941	31620.89	3.5900	3.5898	-1.7990	26.68	0.68	-0.750			
0.4995	31968.68	3.5870	3.5869	-1.8251	26.68	0.68	-0.750	0.361	0.531	
0.5052	32334.96	3.5840	3.5840	-1.8351	26.68	0.68	-0.750			
0.5108	32688.92	3.5810	3.5812	-1.8630	26.68	0.68	-0.750			
0.5162	33036.25	3.5780	3.5778	-1.8661	26.68	0.68	-0.750			
0.5217	33391.60	3.5750	3.5749	-1.9016	26.69	0.69	-0.750	0.340	0.543	
0.5274	33756.73	3.5720	3.5720	-1.9280	26.69	0.69	-0.750			
0.5333	34132.80	3.5690	3.5690	-1.9604	26.69	0.69	-0.750			
0.5394	34522.23	3.5660	3.5659	-1.9888	26.69	0.69	-0.750	0.355	0.532	
0.5456	34915.69	3.5630	3.5631	-2.0094	26.69	0.69	-0.750			
0.5515	35294.02	3.5600	3.5600	-2.0135	26.69	0.69	-0.750			
0.5575	35678.90	3.5570	3.5570	-2.0367	26.70	0.70	-0.750	0.360	0.551	
0.5637	36075.99	3.5540	3.5541	-2.0315	26.70	0.70	-0.750			
0.5699	36472.34	3.5510	3.5510	-2.0347	26.70	0.70	-0.750			
0.5761	36868.06	3.5480	3.5481	-2.0216	26.70	0.70	-0.750			
0.5821	37252.22	3.5450	3.5452	-2.0012	26.72	0.72	-0.750	0.347	0.540	
0.5881	37636.27	3.5420	3.5419	-1.9869	26.73	0.73	-0.750			
0.5938	38005.52	3.5390	3.5388	-1.9546	26.73	0.73	-0.750			
0.5997	38378.72	3.5360	3.5362	-1.9506	26.73	0.73	-0.750	0.357	0.555	
0.6056	38757.49	3.5330	3.5330	-1.9530	26.74	0.74	-0.750			
0.6116	39142.92	3.5300	3.5298	-1.9200	26.74	0.74	-0.750			
0.6173	39508.55	3.5270	3.5270	-1.8703	26.75	0.75	-0.750			
0.6228	39861.96	3.5240	3.5241	-1.8326	26.76	0.76	-0.750	0.344	0.554	
0.6283	40212.62	3.5210	3.5210	-1.7826	26.76	0.76	-0.750			
0.6336	40549.32	3.5180	3.5179	-1.7325	26.77	0.77	-0.750			
0.6386	40871.92	3.5150	3.5150	-1.6829	26.78	0.78	-0.750	0.349	0.554	
0.6437	41194.80	3.5120	3.5120	-1.6480	26.79	0.79	-0.750			
0.6486	41511.50	3.5090	3.5089	-1.6148	26.81	0.81	-0.750			
0.6534	41818.83	3.5060	3.5059	-1.5583	26.82	0.82	-0.750			
0.6580	42112.10	3.5030	3.5029	-1.5080	26.83	0.83	-0.750			
0.6625	42398.82	3.5000	3.5000	-1.4684	26.85	0.85	-0.750	0.357	0.564	
0.6667	42671.19	3.4970	3.4969	-1.4343	26.86	0.86	-0.750			
0.6710	42942.82	3.4940	3.4939	-1.3996	26.87	0.87	-0.750			
0.6751	43207.23	3.4910	3.4910	-1.3524	26.88	0.88	-0.750			
0.6792	43470.49	3.4880	3.4878	-1.3151	26.90	0.90	-0.750	0.334	0.560	
0.6832	43723.84	3.4850	3.4850	-1.2744	26.91	0.91	-0.750			
0.6869	43962.00	3.4820	3.4821	-1.2157	26.93	0.93	-0.750			
0.6904	44184.89	3.4790	3.4789	-1.1925	26.94	0.94	-0.750			
0.6938	44405.16	3.4760	3.4758	-1.1546	26.95	0.95	-0.750			
0.6973	44626.94	3.4730	3.4728	-1.1309	26.96	0.96	-0.750			
0.7007	44842.85	3.4700	3.4706	-1.1085	26.97	0.97	-0.750	0.356	0.564	
0.7040	45058.19	3.4670	3.4669	-1.1029	26.98	0.98	-0.750			
0.7073	45264.06	3.4640	3.4640	-1.0819	26.99	0.99	-0.750			
0.7104	45463.09	3.4610	3.4609	-1.0792	27.00	1.00	-0.750			
0.7136	45667.59	3.4580	3.4582	-1.0932	27.01	1.01	-0.750			
0.7169	45883.51	3.4550	3.4549	-1.1058	27.03	1.03	-0.750			
0.7203	46096.92	3.4520	3.4521	-1.1113	27.04	1.04	-0.750	0.346	0.566	
0.7236	46313.06	3.4490	3.4489	-1.1122	27.05	1.05	-0.750			
0.7269	46523.67	3.4460	3.4461	-1.1321	27.06	1.06	-0.750			
0.7304	46742.73	3.4430	3.4429	-1.1375	27.07	1.07	-0.750			
0.7337	46959.86	3.4400	3.4399	-1.1406	27.08	1.08	-0.750			
0.7372	47180.94	3.4370	3.4368	-1.1402	27.09	1.09	-0.750			
0.7407	47404.03	3.4340	3.4347	-1.1418	27.10	1.10	-0.750	0.342	0.562	
0.7442	47626.75	3.4310	3.4309	-1.1353	27.11	1.11	-0.750			
0.7476	47844.39	3.4280	3.4278	-1.1175	27.12	1.12	-0.750			
0.7508	48052.63	3.4250	3.4253	-1.1062	27.13	1.13	-0.750			
0.7542	48266.13	3.4220	3.4220	-1.0942	27.14	1.14	-0.750			
0.7575	48477.71	3.4190	3.4189	-1.0773	27.15	1.15	-0.750			
0.7607	48683.77	3.4160	3.4170	-1.0506	27.16	1.16	-0.750	0.334	0.572	
0.7638	48883.63	3.4130	3.4129	-1.0323	27.17	1.17	-0.750			
0.7669	49078.84	3.4100	3.4100	-1.0060	27.18	1.18	-0.750			
0.7698	49264.78	3.4070	3.4070	-0.9869	27.19	1.19	-0.750			
0.7727	49453.86	3.4040	3.4041	-0.9726	27.19	1.19	-0.750			
0.7757	49642.32	3.4010	3.4010	-0.9490	27.20	1.20	-0.750			
0.7785	49821.26	3.3980	3.3978	-0.9238	27.21	1.21	-0.750			
0.7812	49998.76	3.3950	3.3953	-0.8971	27.21	1.21	-0.750	0.335	0.560	
0.7839	50167.46	3.3920	3.3918	-0.8604	27.22	1.22	-0.750			
0.7864	50329.62	3.3890	3.3890	-0.8319	27.23	1.23	-0.750			
0.7888	50481.77	3.3860	3.3860	-0.7902	27.23	1.23	-0.750			
0.7912	50635.40	3.3830	3.3830	-0.7766	27.24	1.24	-0.750			
0.7934	50779.56	3.3800	3.3800	-0.7576	27.25	1.25	-0.750			
0.7957	50922.19	3.3770	3.3770	-0.7269	27.26	1.26	-0.750			
0.7979	51063.42	3.3740	3.3738	-0.6936	27.27	1.27	-0.750			
0.7999	51195.28	3.3710	3.3709	-0.6602	27.28	1.28	-0.750	0.337	0.578	
0.8018	51316.90	3.3680	3.3680	-0.6246	27.29	1.29	-0.750			
0.8036	51433.41	3.3650	3.3648	-0.5904	27.29	1.29	-0.750			
0.8053	51539.94	3.3620	3.3619	-0.5603	27.30	1.30	-0.750			
0.8069	51642.40	3.3590	3.3590	-0.5363	27.31	1.31	-0.750			
0.8085	51745.11	3.3560	3.3560	-0.5192	27.31	1.31	-0.750			
0.8100	51843.13	3.3530	3.3530	-0.4951	27.32	1.32	-0.750			
0.8115	51936.20	3.3500	3.3499	-0.4714	27.32	1.32	-0.750			
0.8129	52023.86	3.3470	3.3472	-0.4493	27.33	1.33	-0.750			
0.8142	52107.54	3.3440	3.3439	-0.4284	27.34	1.34	-0.750			
0.8154	52186.95	3.3410	3.3410	-0.4087	27.34	1.34	-0.750			
0.8166	52261.30	3.3380	3.3381	-0.3973	27.35	1.35	-0.750			
0.8178	52338.05	3.3350	3.3349	-0.3814	27.35	1.35	-0.750			
0.8189	52410.57	3.3320	3.3318	-0.3650	27.36	1.36	-0.750			
0.8200	52479.41	3.3290	3.3287	-0.3504	27.36	1.36	-0.750			
0.8210	52544.72	3.3260	3.3263	-0.3343	27.37	1.37	-0.750	0.339	0.581	
0.8220	52606.65	3.3230	3.3228	-0.3203	27.37	1.37	-0.750			
0.8229	52666.15	3.3200	3.3199	-0.3069	27.38	1.38	-0.750			
0.8238	52721.04	3.3170	3.3170	-0.2927	27.38	1.38	-0.750			
0.8247	52778.83	3.3140	3.3141	-0.2917	27.39	1.39	-0.750			
0.8255	52834.39	3.3110	3.3110	-0.2845	27.39	1.39	-0.750			
0.8264	52887.93	3.3080	3.3080	-0.2767	27.40	1.40	-0.750			
0.8272	52940.43	3.3050	3.3050	-0.2703	27.40	1.40	-0.750			
0.8280	52991.59	3.3020	3.3020	-0.2645	27.40	1.40	-0.750			
0.8288	53042.58	3.2990	3.2990	-0.2586	27.41	1.41	-0.750			
0.8295	53091.03	3.2960	3.2959	-0.2520	27.41	1.41	-0.750			
0.8303	53138.95	3.2930	3.2930	-0.2467	27.42	1.42	-0.750			
0.8310	53185.42	3.2900	3.2901	-0.2405	27.42	1.42	-0.750			
0.8317	53231.19	3.2870	3.2869	-0.2353	27.43	1.43	-0.750			
0.8324	53275.81	3.2840	3.2840	-0.2301	27.43	1.43	-0.750			
0.8331	53319.20	3.2810	3.2811	-0.2252	27.43	1.43	-0.750			
0.8338	53362.01	3.2780	3.2780	-0.2203	27.44	1.44	-0.750			
0.8344	53404.23	3.2750	3.2750	-0.2160	27.44	1.44	-0.750			
0.8351	53444.58	3.2720	3.2720	-0.2119	27.44	1.44	-0.750			
0.8357	53484.80	3.2690	3.2691	-0.2084	27.45	1.45	-0.750			
0.8363	53524.51	3.2660	3.2660	-0.2051	27.45	1.45	-0.750			
0.8369	53563.65	3.2630	3.2629	-0.2017	27.45	1.45	-0.750			
0.8375	53602.05	3.2600	3.2600	-0.1984	27.46	1.46	-0.750			
0.8381	53639.93	3.2570	3.2570	-0.1948	27.46	1.46	-0.750			
0.8387	53677.68	3.2540	3.2539	-0.1958	27.47	1.47	-0.750			
0.8393	53715.05	3.2510	3.2509	-0.1935	27.47	1.47	-0.750			
0.8399	53752.46	3.2480	3.2476	-0.1887	27.48	1.48	-0.750			
0.8404	53788.64	3.2450	3.2447	-0.1854	27.48	1.48	-0.750	0.353	0.588	
0.8410	53824.39	3.2420	3.2424	-0.1814	27.49	1.49	-0.750			
0.8415	53858.38	3.2390	3.2388	-0.1781	27.49	1.49	-0.750			
0.8421	53891.80	3.2360	3.2357	-0.1749	27.49	1.49	-0.750			
0.8425	53922.65	3.2330	3.2331	-0.1683	27.50	1.50	-0.750			
0.8431	53955.42	3.2300	3.2300	-0.1684	27.50	1.50	-0.750			
0.8436	53988.99	3.2270	3.2271	-0.1686	27.51	1.51	-0.750			
0.8441	54021.51	3.2240	3.2239	-0.1674	27.51	1.51	-0.750			
0.8446	54053.43	3.2210	3.2210	-0.1651	27.51	1.51	-0.750			
0.8451	54084.98	3.2180	3.2180	-0.1624	27.52	1.52	-0.750			
0.8456	54115.60	3.2150	3.2150	-0.1606	27.52	1.52	-0.750			
0.8460	54146.37	3.2120	3.2119	-0.1591	27.53	1.53	-0.750			
0.8465	54176.74	3.2090	3.2091	-0.1573	27.53	1.53	-0.750			
0.8470	54206.61	3.2060	3.2059	-0.1558	27.53	1.53	-0.750			
0.8474	54236.42	3.2030	3.2030	-0.1540	27.54	1.54	-0.750			
0.8479	54265.99	3.2000	3.1999	-0.1523	27.54	1.54	-0.750			
0.8484	54295.04	3.1970	3.1970	-0.1504	27.54	1.54	-0.750			
0.8488	54323.89	3.1940	3.1940	-0.1492	27.55	1.55	-0.750			
0.8493	54352.17	3.1910	3.1910	-0.1470	27.55	1.55	-0.750			
0.8497	54380.24	3.1880	3.1879	-0.1456	27.55	1.55	-0.750			
0.8501	54408.05	3.1850	3.1850	-0.1441	27.56	1.56	-0.750			
0.8506	54435.40	3.1820	3.1820	-0.1428	27.56	1.56	-0.750			
0.8510	54462.62	3.1790	3.1790	-0.1423	27.57	1.57	-0.750			
0.8514	54489.89	3.1760	3.1760	-0.1413	27.57	1.57	-0.750			
0.8518	54516.94	3.1730	3.1730	-0.1405	27.58	1.58	-0.750			
0.8522	54543.81	3.1700	3.1698	-0.1388	27.58	1.58	-0.750			
0.8527	54570.60	3.1670	3.1671	-0.1380	27.58	1.58	-0.750			
0.8531	54597.06	3.1640	3.1640	-0.1364	27.59	1.59	-0.750			
0.8535	54623.08	3.1610	3.1610	-0.1345	27.59	1.59	-0.750			
0.8539	54648.70	3.1580	3.1579	-0.1331	27.60	1.60	-0.750			
0.8543	54673.91	3.1550	3.1551	-0.1313	27.60	1.60	-0.750			
0.8547	54698.79	3.1520	3.1520	-0.1304	27.60	1.60	-0.750			
0.8551	54723.76	3.1490	3.1490	-0.1297	27.61	1.61	-0.750			
0.8554	54748.74	3.1460	3.1460	-0.1284	27.61	1.61	-0.750			
0.8558	54773.19	3.1430	3.1430	-0.1271	27.62	1.62	-0.750			
0.8562	54797.61	3.1400	3.1401	-0.1265	27.62	1.62	-0.750			
0.8566	54821.78	3.1370	3.1370	-0.1253	27.62	1.62	-0.750			
0.8570	54845.72	3.1340	3.1341	-0.1242	27.63	1.63	-0.750			
0.8573	54869.52	3.1310	3.1309	-0.1231	27.63	1.63	-0.750			
0.8577	54893.03	3.1280	3.1279	-0.1217	27.63	1.63	-0.750			
0.8581	54916.04	3.1250	3.1251	-0.1202	27.64	1.64	-0.750			
0.8584	54938.95	3.1220	3.1220	-0.1195	27.64	1.64	-0.750			
0.8588	54961.98	3.1190	3.1190	-0.1189	27.65	1.65	-0.750			
0.8591	54984.01	3.1160	3.1161	-0.1232	27.65	1.65	-0.750			
0.8595	55008.94	3.1130	3.1127	-0.1204	27.65	1.65	-0.750			
0.8599	55032.00	3.1100	3.1097	-0.1198	27.66	1.66	-0.750			
0.8603	55056.05	3.1070	3.1064	-0.1183	27.66	1.66	-0.750			
0.8606	55078.47	3.1040	3.1033	-0.1152	27.66	1.66	-0.750	0.356	0.577	
0.8610	55101.82	3.1010	3.1015	-0.1129	27.67	1.67	-0.750			
0.8613	55122.60	3.0980	3.0977	-0.1112	27.67	1.67	-0.750			
0.8616	55142.47	3.0950	3.0946	-0.1089	27.67	1.67	-0.750			
0.8619	55161.47	3.0920	3.0919	-0.1041	27.67	1.67	-0.750			
0.8622	55182.13	3.0890	3.0891	-0.1045	27.68	1.68	-0.750			
0.8625	55203.07	3.0860	3.0861	-0.1064	27.68	1.68	-0.750			
0.8629	55223.55	3.0830	3.0830	-0.1055	27.68	1.68	-0.750			
0.8632	55244.00	3.0800	3.0800	-0.1051	27.68	1.68	-0.750			
0.8635	55263.89	3.0770	3.0770	-0.1044	27.68	1.68	-0.750			
0.8638	55283.68	3.0740	3.0740	-0.1033	27.69	1.69	-0.750			
0.8641	55303.34	3.0710	3.0710	-0.1030	27.69	1.69	-0.750			
0.8644	55322.93	3.0680	3.0680	-0.1024	27.69	1.69	-0.750			
0.8647	55342.70	3.0650	3.0650	-0.1020	27.69	1.69	-0.750			
0.8650	55362.25	3.0620	3.0620	-0.1017	27.69	1.69	-0.750			
0.8653	55381.88	3.0590	3.0589	-0.1010	27.70	1.70	-0.750			
0.8656	55401.44	3.0560	3.0561	-0.1007	27.70	1.70	-0.750			
0.8659	55420.60	3.0530	3.0530	-0.0999	27.70	1.70	-0.750			
0.8662	55439.71	3.0500	3.0500	-0.0991	27.70	1.70	-0.750			
0.8665	55458.65	3.0470	3.0470	-0.0982	27.70	1.70	-0.750			
0.8668	55477.29	3.0440	3.0440	-0.0974	27.70	1.70	-0.750			
0.8671	55495.93	3.0410	3.0409	-0.0968	27.71	1.71	-0.750			
0.8674	55514.56	3.0380	3.0380	-0.0959	27.71	1.71	-0.750			
0.8677	55532.88	3.0350	3.0351	-0.0950	27.71	1.71	-0.750			
0.8680	55551.05	3.0320	3.0320	-0.0945	27.71	1.71	-0.750			
0.8683	55569.11	3.0290	3.0290	-0.0936	27.71	1.71	-0.750			
0.8685	55586.87	3.0260	3.0260	-0.0930	27.71	1.71	-0.750			
0.8688	55604.68	3.0230	3.0229	-0.0925	27.72	1.72	-0.750			
0.8691	55622.35	3.0200	3.0201	-0.0918	27.72	1.72	-0.750			
0.8694	55639.93	3.0170	3.0169	-0.0914	27.72	1.72	-0.750			
0.8696	55657.50	3.0140	3.0141	-0.0912	27.72	1.72	-0.750			
0.8699	55674.95	3.0110	3.0109	-0.0907	27.72	1.72	-0.750			
0.8702	55692.21	3.0080	3.0080	-0.0903	27.72	1.72	-0.750			
0.8705	55709.52	3.0050	3.0049	-0.0900	27.73	1.73	-0.750			
0.8707	55726.82	3.0020	3.0020	-0.0910	27.73	1.73	-0.750			
