Ah_balance (normalized)	Ah_balance (mAh)	Voltage - fit (V)	Voltage -  interpolate (V)	dQ/dV (1/V)	Temperature (°C)	Temperature - diff (°C)	Current (C)	R_DC 0ms (mOhm)	R_DC 50ms (mOhm)	R_DC 50 ms PEC (mOhm)
0.0002	9.65	4.1010	4.0992	-0.0190	5.98	-0.01	-0.750			
0.0003	16.55	4.0980	4.0972	-0.0529	5.98	-0.01	-0.750			
0.0005	31.16	4.0950	4.0944	-0.0858	5.98	-0.01	-0.750			
0.0008	52.07	4.0920	4.0917	-0.1136	5.98	-0.01	-0.750			
0.0012	76.34	4.0890	4.0890	-0.1417	5.99	-0.00	-0.750			
0.0017	106.84	4.0860	4.0862	-0.1666	5.99	-0.00	-0.750			
0.0022	141.36	4.0830	4.0831	-0.1930	5.99	-0.00	-0.750			
0.0029	182.65	4.0800	4.0798	-0.2171	5.99	-0.00	-0.750			
0.0035	226.53	4.0770	4.0771	-0.2378	5.99	-0.00	-0.750			
0.0043	274.49	4.0740	4.0741	-0.2572	5.99	0.00	-0.750			
0.0051	325.92	4.0710	4.0709	-0.2787	5.99	0.00	-0.750			
0.0060	381.16	4.0680	4.0679	-0.3008	5.99	0.00	-0.750			
0.0069	439.96	4.0650	4.0651	-0.3240	5.99	0.00	-0.750			
0.0079	505.15	4.0620	4.0620	-0.3469	6.00	0.01	-0.750			
0.0090	574.22	4.0590	4.0589	-0.3710	6.00	0.01	-0.750			
0.0101	648.05	4.0560	4.0562	-0.3949	6.00	0.01	-0.750			
0.0113	725.75	4.0530	4.0530	-0.4205	6.00	0.01	-0.750			
0.0126	809.47	4.0500	4.0500	-0.4393	6.00	0.01	-0.750			
0.0140	895.42	4.0470	4.0469	-0.4607	6.01	0.02	-0.750			
0.0154	985.95	4.0440	4.0439	-0.4830	6.01	0.02	-0.750			
0.0169	1081.70	4.0410	4.0411	-0.5070	6.01	0.02	-0.750			
0.0184	1180.39	4.0380	4.0379	-0.5254	6.01	0.02	-0.750			
0.0200	1282.89	4.0350	4.0351	-0.5491	6.02	0.03	-0.750			
0.0217	1388.83	4.0320	4.0320	-0.5715	6.02	0.03	-0.750			
0.0235	1504.27	4.0290	4.0289	-0.5930	6.02	0.03	-0.750			
0.0253	1621.71	4.0260	4.0259	-0.6031	6.02	0.03	-0.750			
0.0272	1739.84	4.0230	4.0230	-0.6115	6.03	0.04	-0.750			
0.0290	1858.95	4.0200	4.0204	-0.6226	6.03	0.04	-0.750			
0.0309	1978.57	4.0170	4.0169	-0.6306	6.04	0.05	-0.750			
0.0327	2095.88	4.0140	4.0140	-0.6391	6.05	0.06	-0.750			
0.0347	2220.67	4.0110	4.0110	-0.6573	6.05	0.06	-0.750			
0.0367	2350.57	4.0080	4.0079	-0.6764	6.06	0.07	-0.750			
0.0388	2483.17	4.0050	4.0049	-0.6826	6.07	0.08	-0.750			
0.0409	2617.85	4.0020	4.0021	-0.6894	6.08	0.09	-0.750			
0.0430	2749.83	3.9990	3.9989	-0.6905	6.08	0.09	-0.750			
0.0450	2881.89	3.9960	3.9960	-0.6914	6.09	0.10	-0.750			
0.0471	3013.50	3.9930	3.9930	-0.6942	6.10	0.11	-0.750			
0.0491	3145.58	3.9900	3.9900	-0.6969	6.10	0.11	-0.750			
0.0513	3280.63	3.9870	3.9870	-0.7076	6.11	0.12	-0.750			
0.0534	3417.88	3.9840	3.9840	-0.7151	6.12	0.13	-0.750			
0.0556	3556.16	3.9810	3.9810	-0.7234	6.13	0.14	-0.750			
0.0578	3696.45	3.9780	3.9780	-0.7245	6.14	0.15	-0.750			
0.0599	3835.21	3.9750	3.9751	-0.7316	6.14	0.15	-0.750			
0.0621	3976.62	3.9720	3.9720	-0.7374	6.15	0.16	-0.750			
0.0643	4118.18	3.9690	3.9691	-0.7441	6.16	0.17	-0.750			
0.0666	4261.57	3.9660	3.9660	-0.7457	6.17	0.18	-0.750			
0.0689	4406.45	3.9630	3.9631	-0.7520	6.18	0.19	-0.750			
0.0711	4551.39	3.9600	3.9599	-0.7535	6.19	0.20	-0.750			
0.0734	4696.76	3.9570	3.9570	-0.7559	6.20	0.21	-0.750			
0.0756	4840.43	3.9540	3.9540	-0.7507	6.21	0.22	-0.750			
0.0779	4984.79	3.9510	3.9510	-0.7522	6.22	0.23	-0.750			
0.0801	5128.55	3.9480	3.9478	-0.7517	6.23	0.24	-0.750			
0.0824	5272.31	3.9450	3.9451	-0.7611	6.24	0.25	-0.750			
0.0847	5417.89	3.9420	3.9421	-0.7673	6.25	0.26	-0.750			
0.0870	5567.05	3.9390	3.9389	-0.7728	6.26	0.27	-0.750			
0.0893	5717.08	3.9360	3.9359	-0.7772	6.27	0.28	-0.750			
0.0917	5868.30	3.9330	3.9332	-0.7772	6.28	0.29	-0.750			
0.0940	6016.88	3.9300	3.9300	-0.7773	6.29	0.30	-0.750			
0.0964	6166.47	3.9270	3.9270	-0.7758	6.30	0.31	-0.750			
0.0987	6313.84	3.9240	3.9240	-0.7739	6.31	0.32	-0.750			
0.1010	6461.20	3.9210	3.9209	-0.7724	6.33	0.34	-0.750			
0.1033	6609.51	3.9180	3.9180	-0.7768	6.34	0.35	-0.750			
0.1056	6759.15	3.9150	3.9150	-0.7789	6.35	0.36	-0.750			
0.1080	6908.82	3.9120	3.9119	-0.7831	6.36	0.37	-0.750			
0.1103	7059.37	3.9090	3.9090	-0.7806	6.37	0.38	-0.750			
0.1127	7210.82	3.9060	3.9060	-0.7825	6.37	0.38	-0.750			
0.1150	7359.41	3.9030	3.9030	-0.7884	6.38	0.39	-0.750			
0.1174	7512.24	3.9000	3.9000	-0.7915	6.39	0.40	-0.750			
0.1197	7660.36	3.8970	3.8970	-0.7998	6.40	0.41	-0.750			
0.1221	7817.54	3.8940	3.8940	-0.8065	6.41	0.42	-0.750			
0.1246	7974.97	3.8910	3.8910	-0.8092	6.42	0.43	-0.750			
0.1271	8133.22	3.8880	3.8879	-0.8066	6.43	0.44	-0.750			
0.1295	8290.06	3.8850	3.8852	-0.7975	6.44	0.45	-0.750			
0.1319	8438.65	3.8820	3.8821	-0.7880	6.45	0.46	-0.750			
0.1342	8588.25	3.8790	3.8790	-0.7817	6.47	0.48	-0.750			
0.1364	8731.16	3.8760	3.8761	-0.7775	6.48	0.49	-0.750			
0.1388	8883.93	3.8730	3.8729	-0.7908	6.49	0.50	-0.750			
0.1412	9035.99	3.8700	3.8700	-0.8026	6.50	0.51	-0.750			
0.1436	9193.58	3.8670	3.8670	-0.8037	6.51	0.52	-0.750			
0.1461	9349.29	3.8640	3.8640	-0.8181	6.53	0.54	-0.750			
0.1485	9506.50	3.8610	3.8610	-0.8159	6.54	0.55	-0.750			
0.1510	9663.90	3.8580	3.8579	-0.8084	6.55	0.56	-0.750			
0.1534	9818.13	3.8550	3.8550	-0.8090	6.57	0.58	-0.750			
0.1558	9974.23	3.8520	3.8522	-0.8117	6.58	0.59	-0.750			
0.1583	10129.80	3.8490	3.8490	-0.8085	6.59	0.60	-0.750			
0.1607	10285.64	3.8460	3.8458	-0.8134	6.60	0.61	-0.750			
0.1631	10438.06	3.8430	3.8431	-0.8172	6.61	0.62	-0.750			
0.1656	10597.65	3.8400	3.8399	-0.8257	6.63	0.64	-0.750			
0.1681	10757.21	3.8370	3.8371	-0.8312	6.64	0.65	-0.750			
0.1706	10918.17	3.8340	3.8340	-0.8301	6.64	0.65	-0.750			
0.1731	11079.24	3.8310	3.8310	-0.8325	6.65	0.66	-0.750			
0.1756	11239.97	3.8280	3.8280	-0.8337	6.66	0.67	-0.750			
0.1781	11397.82	3.8250	3.8252	-0.8318	6.67	0.68	-0.750			
0.1806	11556.19	3.8220	3.8218	-0.8305	6.68	0.69	-0.750			
0.1831	11716.11	3.8190	3.8189	-0.8407	6.69	0.70	-0.750			
0.1856	11878.03	3.8160	3.8160	-0.8400	6.70	0.71	-0.750			
0.1881	12040.98	3.8130	3.8130	-0.8400	6.71	0.72	-0.750			
0.1907	12205.08	3.8100	3.8100	-0.8436	6.73	0.74	-0.750			
0.1932	12367.01	3.8070	3.8070	-0.8385	6.74	0.75	-0.750			
0.1957	12525.03	3.8040	3.8040	-0.8365	6.75	0.76	-0.750			
0.1982	12685.32	3.8010	3.8010	-0.8377	6.76	0.77	-0.750			
0.2007	12846.44	3.7980	3.7979	-0.8281	6.77	0.78	-0.750			
0.2032	13007.85	3.7950	3.7950	-0.8331	6.79	0.80	-0.750			
0.2057	13166.49	3.7920	3.7921	-0.8297	6.80	0.81	-0.750			
0.2082	13324.72	3.7890	3.7890	-0.8317	6.81	0.82	-0.750			
0.2107	13484.76	3.7860	3.7858	-0.8335	6.82	0.83	-0.750			
0.2132	13643.85	3.7830	3.7830	-0.8302	6.83	0.84	-0.750			
0.2157	13804.02	3.7800	3.7800	-0.8382	6.84	0.85	-0.750			
0.2182	13966.82	3.7770	3.7770	-0.8451	6.85	0.86	-0.750			
0.2208	14128.81	3.7740	3.7740	-0.8472	6.86	0.87	-0.750			
0.2233	14293.05	3.7710	3.7708	-0.8457	6.87	0.88	-0.750			
0.2258	14453.54	3.7680	3.7681	-0.8515	6.89	0.90	-0.750			
0.2284	14618.74	3.7650	3.7650	-0.8607	6.90	0.91	-0.750			
0.2310	14785.46	3.7620	3.7618	-0.8585	6.91	0.92	-0.750			
0.2336	14949.96	3.7590	3.7591	-0.8605	6.92	0.93	-0.750			
0.2362	15114.45	3.7560	3.7561	-0.8680	6.93	0.94	-0.750			
0.2388	15282.87	3.7530	3.7529	-0.8683	6.94	0.95	-0.750			
0.2414	15451.67	3.7500	3.7501	-0.8759	6.95	0.96	-0.750			
0.2440	15617.31	3.7470	3.7471	-0.8764	6.96	0.97	-0.750			
0.2467	15788.06	3.7440	3.7441	-0.8790	6.97	0.98	-0.750			
0.2494	15959.09	3.7410	3.7409	-0.8782	6.98	0.99	-0.750			
0.2520	16126.74	3.7380	3.7380	-0.8775	6.98	0.99	-0.750			
0.2546	16294.14	3.7350	3.7352	-0.8721	6.99	1.00	-0.750			
0.2572	16462.34	3.7320	3.7320	-0.8788	7.01	1.02	-0.750			
0.2598	16629.10	3.7290	3.7290	-0.8741	7.02	1.03	-0.750			
0.2624	16795.80	3.7260	3.7260	-0.8749	7.03	1.04	-0.750			
0.2651	16965.32	3.7230	3.7230	-0.8835	7.04	1.05	-0.750			
0.2677	17135.55	3.7200	3.7199	-0.8907	7.05	1.06	-0.750			
0.2704	17305.09	3.7170	3.7170	-0.9032	7.06	1.07	-0.750			
0.2731	17479.14	3.7140	3.7141	-0.9167	7.07	1.08	-0.750			
0.2759	17657.59	3.7110	3.7109	-0.9216	7.08	1.09	-0.750			
0.2787	17837.63	3.7080	3.7080	-0.9312	7.09	1.10	-0.750			
0.2815	18017.18	3.7050	3.7051	-0.9364	7.10	1.11	-0.750			
0.2843	18198.31	3.7020	3.7020	-0.9332	7.11	1.12	-0.750			
0.2871	18377.44	3.6990	3.6989	-0.9308	7.12	1.13	-0.750			
0.2899	18555.12	3.6960	3.6959	-0.9294	7.13	1.14	-0.750			
0.2927	18733.53	3.6930	3.6930	-0.9318	7.14	1.15	-0.750			
0.2955	18911.80	3.6900	3.6899	-0.9475	7.15	1.16	-0.750			
0.2983	19093.75	3.6870	3.6871	-0.9521	7.16	1.17	-0.750			
0.3012	19277.33	3.6840	3.6838	-0.9565	7.17	1.18	-0.750			
0.3041	19465.26	3.6810	3.6811	-0.9633	7.18	1.19	-0.750			
0.3070	19651.02	3.6780	3.6780	-0.9672	7.19	1.20	-0.750			
0.3100	19837.39	3.6750	3.6750	-0.9652	7.20	1.21	-0.750			
0.3128	20020.18	3.6720	3.6720	-0.9711	7.22	1.23	-0.750			
0.3157	20203.26	3.6690	3.6690	-0.9820	7.23	1.24	-0.750			
0.3187	20396.19	3.6660	3.6660	-0.9916	7.24	1.25	-0.750			
0.3217	20588.02	3.6630	3.6629	-1.0050	7.25	1.26	-0.750			
0.3247	20782.75	3.6600	3.6600	-1.0134	7.26	1.27	-0.750			
0.3278	20977.22	3.6570	3.6571	-1.0266	7.27	1.28	-0.750			
0.3309	21176.87	3.6540	3.6538	-1.0421	7.27	1.28	-0.750			
0.3340	21377.10	3.6510	3.6510	-1.0457	7.28	1.29	-0.750			
0.3372	21580.68	3.6480	3.6479	-1.0454	7.29	1.30	-0.750			
0.3404	21785.05	3.6450	3.6452	-1.0525	7.30	1.31	-0.750			
0.3435	21986.94	3.6420	3.6419	-1.0553	7.31	1.32	-0.750			
0.3467	22187.05	3.6390	3.6390	-1.0583	7.31	1.32	-0.750			
0.3498	22387.24	3.6360	3.6359	-1.0675	7.32	1.33	-0.750			
0.3530	22589.41	3.6330	3.6330	-1.0771	7.33	1.34	-0.750			
0.3563	22800.72	3.6300	3.6299	-1.1018	7.33	1.34	-0.750			
0.3596	23015.27	3.6270	3.6270	-1.1176	7.34	1.35	-0.750			
0.3630	23232.61	3.6240	3.6240	-1.1305	7.34	1.35	-0.750			
0.3664	23449.54	3.6210	3.6212	-1.1462	7.35	1.36	-0.750			
0.3699	23674.10	3.6180	3.6179	-1.1472	7.36	1.37	-0.750			
0.3734	23896.72	3.6150	3.6150	-1.1468	7.37	1.38	-0.750			
0.3768	24115.87	3.6120	3.6120	-1.1504	7.38	1.39	-0.750			
0.3802	24335.81	3.6090	3.6091	-1.1618	7.39	1.40	-0.750			
0.3837	24558.01	3.6060	3.6059	-1.1687	7.40	1.41	-0.750			
0.3872	24780.49	3.6030	3.6029	-1.1796	7.40	1.41	-0.750			
0.3908	25008.37	3.6000	3.6001	-1.1974	7.41	1.42	-0.750			
0.3945	25246.51	3.5970	3.5969	-1.2187	7.42	1.43	-0.750			
0.3982	25482.76	3.5940	3.5940	-1.2353	7.43	1.44	-0.750	0.424	0.904	
0.4019	25720.23	3.5910	3.5909	-1.2386	7.44	1.45	-0.750			
0.4056	25957.27	3.5880	3.5879	-1.2465	7.44	1.45	-0.750			
0.4094	26200.72	3.5850	3.5849	-1.2460	7.45	1.46	-0.750			
0.4131	26439.62	3.5820	3.5820	-1.2502	7.46	1.47	-0.750			
0.4168	26677.46	3.5790	3.5792	-1.2536	7.47	1.48	-0.750			
0.4207	26923.43	3.5760	3.5759	-1.2753	7.48	1.49	-0.750			
0.4245	27165.00	3.5730	3.5729	-1.2785	7.49	1.50	-0.750			
0.4283	27412.03	3.5700	3.5700	-1.3028	7.50	1.51	-0.750			
0.4323	27665.97	3.5670	3.5669	-1.3246	7.51	1.52	-0.750			
0.4363	27924.77	3.5640	3.5641	-1.3291	7.51	1.52	-0.750			
0.4403	28177.96	3.5610	3.5610	-1.3430	7.52	1.53	-0.750			
0.4443	28436.16	3.5580	3.5581	-1.3572	7.53	1.54	-0.750			
0.4484	28697.65	3.5550	3.5549	-1.3677	7.54	1.55	-0.750			
0.4525	28961.47	3.5520	3.5519	-1.3871	7.55	1.56	-0.750			
0.4567	29229.75	3.5490	3.5490	-1.3993	7.55	1.56	-0.750			
0.4610	29506.39	3.5460	3.5459	-1.4097	7.56	1.57	-0.750			
0.4653	29778.46	3.5430	3.5430	-1.4235	7.57	1.58	-0.750			
0.4695	30049.53	3.5400	3.5400	-1.4165	7.58	1.59	-0.750			
0.4738	30321.33	3.5370	3.5369	-1.4286	7.59	1.60	-0.750			
0.4781	30598.63	3.5340	3.5341	-1.4281	7.60	1.61	-0.750			
0.4823	30869.73	3.5310	3.5309	-1.4378	7.61	1.62	-0.750			
0.4867	31150.01	3.5280	3.5278	-1.4489	7.62	1.63	-0.750			
0.4911	31429.90	3.5250	3.5251	-1.4549	7.63	1.64	-0.750			
0.4954	31703.90	3.5220	3.5221	-1.4600	7.64	1.65	-0.750			
0.4999	31992.73	3.5190	3.5189	-1.4653	7.64	1.65	-0.750			
0.5043	32272.73	3.5160	3.5161	-1.4482	7.65	1.66	-0.750			
0.5087	32554.05	3.5130	3.5127	-1.4424	7.67	1.68	-0.750			
0.5129	32824.86	3.5100	3.5105	-1.4403	7.68	1.69	-0.750			
0.5173	33104.28	3.5070	3.5070	-1.4441	7.69	1.70	-0.750			
0.5216	33380.70	3.5040	3.5038	-1.4415	7.70	1.71	-0.750			
0.5259	33655.71	3.5010	3.5010	-1.4434	7.71	1.72	-0.750			
0.5303	33940.66	3.4980	3.4980	-1.4519	7.72	1.73	-0.750			
0.5347	34219.88	3.4950	3.4949	-1.4649	7.73	1.74	-0.750			
0.5391	34500.05	3.4920	3.4919	-1.4562	7.74	1.75	-0.750			
0.5434	34774.82	3.4890	3.4890	-1.4474	7.75	1.76	-0.750			
0.5478	35057.28	3.4860	3.4859	-1.4452	7.77	1.78	-0.750			
0.5521	35334.03	3.4830	3.4831	-1.4294	7.78	1.79	-0.750			
0.5563	35602.93	3.4800	3.4801	-1.4153	7.79	1.80	-0.750			
0.5606	35879.40	3.4770	3.4770	-1.4214	7.80	1.81	-0.750			
0.5648	36146.24	3.4740	3.4739	-1.4162	7.81	1.82	-0.750			
0.5691	36421.89	3.4710	3.4709	-1.4152	7.82	1.83	-0.750			
0.5734	36696.48	3.4680	3.4680	-1.3993	7.83	1.84	-0.750			
0.5776	36968.28	3.4650	3.4651	-1.3995	7.85	1.86	-0.750			
0.5818	37234.73	3.4620	3.4620	-1.3789	7.86	1.87	-0.750			
0.5859	37496.60	3.4590	3.4589	-1.3628	7.87	1.88	-0.750			
0.5899	37751.27	3.4560	3.4559	-1.3497	7.88	1.89	-0.750			
0.5939	38009.82	3.4530	3.4530	-1.3368	7.90	1.91	-0.750			
0.5980	38271.15	3.4500	3.4500	-1.3349	7.91	1.92	-0.750			
0.6019	38524.54	3.4470	3.4470	-1.3217	7.92	1.93	-0.750			
0.6059	38774.99	3.4440	3.4440	-1.3050	7.94	1.95	-0.750			
0.6098	39025.16	3.4410	3.4410	-1.3023	7.95	1.96	-0.750			
0.6136	39273.04	3.4380	3.4379	-1.2901	7.96	1.97	-0.750			
0.6175	39522.98	3.4350	3.4350	-1.2750	7.97	1.98	-0.750			
0.6214	39771.88	3.4320	3.4319	-1.2484	7.99	2.00	-0.750			
0.6252	40011.59	3.4290	3.4290	-1.2198	8.01	2.02	-0.750			
0.6287	40239.75	3.4260	3.4263	-1.1946	8.02	2.03	-0.750			
0.6322	40463.24	3.4230	3.4229	-1.1668	8.03	2.04	-0.750			
0.6357	40682.80	3.4200	3.4198	-1.1424	8.04	2.05	-0.750			
0.6390	40898.78	3.4170	3.4170	-1.1208	8.05	2.06	-0.750			
0.6424	41114.88	3.4140	3.4141	-1.1183	8.06	2.07	-0.750			
0.6458	41328.87	3.4110	3.4110	-1.0947	8.08	2.09	-0.750			
0.6490	41537.98	3.4080	3.4080	-1.0675	8.10	2.11	-0.750			
0.6522	41738.63	3.4050	3.4049	-1.0397	8.11	2.12	-0.750			
0.6553	41937.23	3.4020	3.4021	-1.0202	8.13	2.14	-0.750			
0.6583	42131.21	3.3990	3.3989	-0.9943	8.14	2.15	-0.750			
0.6612	42319.52	3.3960	3.3959	-0.9642	8.15	2.16	-0.750			
0.6641	42501.00	3.3930	3.3930	-0.9346	8.16	2.17	-0.750			
0.6669	42678.98	3.3900	3.3901	-0.9141	8.17	2.18	-0.750			
0.6696	42851.23	3.3870	3.3869	-0.8927	8.19	2.20	-0.750			
0.6722	43019.20	3.3840	3.3840	-0.8687	8.20	2.21	-0.750			
0.6747	43183.63	3.3810	3.3810	-0.8447	8.22	2.23	-0.750			
0.6773	43345.76	3.3780	3.3780	-0.8282	8.23	2.24	-0.750			
0.6797	43503.11	3.3750	3.3751	-0.8032	8.24	2.25	-0.750			
0.6821	43653.43	3.3720	3.3721	-0.7817	8.26	2.27	-0.750			
0.6844	43801.18	3.3690	3.3689	-0.7583	8.27	2.28	-0.750			
0.6866	43943.06	3.3660	3.3661	-0.7351	8.28	2.29	-0.750			
0.6888	44082.63	3.3630	3.3630	-0.7208	8.30	2.31	-0.750			
0.6909	44219.38	3.3600	3.3601	-0.7062	8.31	2.32	-0.750			
0.6930	44352.87	3.3570	3.3569	-0.6891	8.32	2.33	-0.750			
0.6951	44484.70	3.3540	3.3539	-0.6736	8.33	2.34	-0.750			
0.6971	44611.30	3.3510	3.3511	-0.6591	8.35	2.36	-0.750			
0.6990	44737.43	3.3480	3.3480	-0.6399	8.36	2.37	-0.750			
0.7009	44859.88	3.3450	3.3449	-0.6241	8.37	2.38	-0.750			
0.7028	44977.56	3.3420	3.3420	-0.6048	8.38	2.39	-0.750			
0.7045	45090.87	3.3390	3.3391	-0.5876	8.39	2.40	-0.750			
0.7063	45201.93	3.3360	3.3359	-0.5719	8.41	2.42	-0.750			
0.7080	45309.84	3.3330	3.3330	-0.5568	8.42	2.43	-0.750			
0.7096	45414.18	3.3300	3.3300	-0.5420	8.43	2.44	-0.750			
0.7112	45517.97	3.3270	3.3270	-0.5333	8.44	2.45	-0.750			
0.7128	45618.56	3.3240	3.3240	-0.5194	8.45	2.46	-0.750			
0.7143	45717.86	3.3210	3.3210	-0.5060	8.46	2.47	-0.750			
0.7158	45813.73	3.3180	3.3180	-0.4901	8.48	2.49	-0.750			
0.7173	45906.63	3.3150	3.3149	-0.4786	8.49	2.50	-0.750			
0.7187	45996.52	3.3120	3.3121	-0.4667	8.50	2.51	-0.750			
0.7201	46084.68	3.3090	3.3089	-0.4557	8.51	2.52	-0.750			
0.7214	46170.12	3.3060	3.3060	-0.4474	8.52	2.53	-0.750			
0.7227	46255.62	3.3030	3.3031	-0.4415	8.53	2.54	-0.750			
0.7241	46340.19	3.3000	3.2999	-0.4351	8.54	2.55	-0.750			
0.7254	46423.18	3.2970	3.2970	-0.4265	8.54	2.55	-0.750			
0.7266	46504.00	3.2940	3.2940	-0.4155	8.55	2.56	-0.750			
0.7279	46582.90	3.2910	3.2910	-0.4080	8.56	2.57	-0.750			
0.7291	46660.58	3.2880	3.2881	-0.3999	8.57	2.58	-0.750			
0.7302	46735.91	3.2850	3.2849	-0.3920	8.58	2.59	-0.750			
0.7314	46810.31	3.2820	3.2820	-0.3837	8.59	2.60	-0.750			
0.7326	46883.47	3.2790	3.2791	-0.3761	8.60	2.61	-0.750			
0.7337	46955.72	3.2760	3.2759	-0.3679	8.61	2.62	-0.750			
0.7348	47025.55	3.2730	3.2730	-0.3597	8.62	2.63	-0.750			
0.7358	47092.72	3.2700	3.2700	-0.3508	8.63	2.64	-0.750			
0.7369	47158.95	3.2670	3.2670	-0.3459	8.64	2.65	-0.750			
0.7379	47223.68	3.2640	3.2640	-0.3428	8.65	2.66	-0.750			
0.7389	47289.99	3.2610	3.2610	-0.3389	8.66	2.67	-0.750			
0.7399	47355.31	3.2580	3.2579	-0.3346	8.67	2.68	-0.750			
0.7409	47419.26	3.2550	3.2552	-0.3302	8.68	2.69	-0.750			
0.7419	47482.59	3.2520	3.2520	-0.3237	8.69	2.70	-0.750			
0.7429	47544.08	3.2490	3.2489	-0.3166	8.70	2.71	-0.750			
0.7438	47604.14	3.2460	3.2459	-0.3099	8.71	2.72	-0.750			
0.7447	47661.91	3.2430	3.2431	-0.3027	8.71	2.72	-0.750			
0.7456	47720.01	3.2400	3.2399	-0.2999	8.72	2.73	-0.750			
0.7465	47777.01	3.2370	3.2370	-0.2947	8.73	2.74	-0.750			
0.7474	47832.80	3.2340	3.2340	-0.2898	8.74	2.75	-0.750			
0.7483	47888.21	3.2310	3.2310	-0.2866	8.75	2.76	-0.750			
0.7491	47943.01	3.2280	3.2279	-0.2817	8.76	2.77	-0.750			
0.7499	47996.41	3.2250	3.2250	-0.2771	8.77	2.78	-0.750			
0.7508	48049.01	3.2220	3.2220	-0.2734	8.78	2.79	-0.750			
0.7516	48100.98	3.2190	3.2190	-0.2691	8.79	2.80	-0.750			
0.7524	48152.75	3.2160	3.2160	-0.2657	8.79	2.80	-0.750			
0.7532	48203.26	3.2130	3.2129	-0.2611	8.80	2.81	-0.750			
0.7540	48253.01	3.2100	3.2101	-0.2569	8.80	2.81	-0.750			
0.7547	48301.85	3.2070	3.2070	-0.2537	8.81	2.82	-0.750			
0.7555	48350.29	3.2040	3.2040	-0.2509	8.82	2.83	-0.750			
0.7562	48397.48	3.2010	3.2010	-0.2469	8.83	2.84	-0.750			
0.7569	48444.26	3.1980	3.1979	-0.2442	8.84	2.85	-0.750			
0.7577	48491.14	3.1950	3.1950	-0.2425	8.85	2.86	-0.750			
0.7584	48537.91	3.1920	3.1920	-0.2402	8.86	2.87	-0.750			
0.7591	48583.96	3.1890	3.1890	-0.2378	8.86	2.87	-0.750			
0.7598	48629.28	3.1860	3.1860	-0.2344	8.87	2.88	-0.750			
0.7605	48673.91	3.1830	3.1830	-0.2312	8.88	2.89	-0.750			
0.7612	48718.28	3.1800	3.1799	-0.2274	8.89	2.90	-0.750			
0.7619	48760.83	3.1770	3.1770	-0.2247	8.90	2.91	-0.750			
0.7626	48803.79	3.1740	3.1741	-0.2227	8.91	2.92	-0.750			
0.7632	48846.09	3.1710	3.1710	-0.2205	8.91	2.92	-0.750			
0.7639	48888.43	3.1680	3.1678	-0.2180	8.92	2.93	-0.750			
0.7645	48930.25	3.1650	3.1650	-0.2154	8.93	2.94	-0.750			
0.7652	48971.41	3.1620	3.1622	-0.2126	8.94	2.95	-0.750			
0.7658	49012.17	3.1590	3.1591	-0.2099	8.94	2.95	-0.750			
0.7664	49052.56	3.1560	3.1561	-0.2071	8.95	2.96	-0.750			
0.7670	49091.07	3.1530	3.1530	-0.2034	8.96	2.97	-0.750			
0.7677	49129.90	3.1500	3.1501	-0.2022	8.97	2.98	-0.750			
0.7683	49168.65	3.1470	3.1470	-0.2003	8.97	2.98	-0.750			
0.7689	49207.02	3.1440	3.1438	-0.1988	8.98	2.99	-0.750			
0.7695	49245.13	3.1410	3.1410	-0.1968	8.99	3.00	-0.750			
0.7700	49282.64	3.1380	3.1380	-0.1956	9.00	3.01	-0.750			
0.7706	49320.15	3.1350	3.1351	-0.1941	9.01	3.02	-0.750			
0.7712	49357.27	3.1320	3.1319	-0.1920	9.01	3.02	-0.750			
0.7718	49393.72	3.1290	3.1289	-0.1900	9.02	3.03	-0.750			
0.7723	49430.17	3.1260	3.1262	-0.1878	9.03	3.04	-0.750			
0.7729	49466.04	3.1230	3.1229	-0.1868	9.04	3.05	-0.750			
0.7735	49501.73	3.1200	3.1201	-0.1849	9.05	3.06	-0.750			
0.7740	49536.99	3.1170	3.1170	-0.1833	9.05	3.06	-0.750			
0.7746	49571.72	3.1140	3.1140	-0.1813	9.06	3.07	-0.750			
0.7751	49606.45	3.1110	3.1110	-0.1804	9.07	3.08	-0.750			
0.7756	49641.16	3.1080	3.1081	-0.1787	9.07	3.08	-0.750			
0.7762	49675.29	3.1050	3.1050	-0.1773	9.08	3.09	-0.750			
0.7767	49709.15	3.1020	3.1020	-0.1767	9.09	3.10	-0.750			
0.7772	49742.95	3.0990	3.0990	-0.1754	9.10	3.11	-0.750			
0.7778	49776.43	3.0960	3.0960	-0.1725	9.10	3.11	-0.750			
0.7783	49809.55	3.0930	3.0930	-0.1709	9.11	3.12	-0.750			
0.7788	49842.00	3.0900	3.0901	-0.1695	9.12	3.13	-0.750			
0.7793	49874.39	3.0870	3.0870	-0.1680	9.13	3.14	-0.750			
0.7798	49906.63	3.0840	3.0839	-0.1661	9.13	3.14	-0.750			
0.7803	49938.18	3.0810	3.0809	-0.1641	9.14	3.15	-0.750			
0.7808	49969.19	3.0780	3.0781	-0.1624	9.15	3.16	-0.750			
0.7813	50000.30	3.0750	3.0750	-0.1617	9.16	3.17	-0.750			
0.7817	50031.50	3.0720	3.0720	-0.1615	9.17	3.18	-0.750			
0.7822	50062.10	3.0690	3.0689	-0.1606	9.17	3.18	-0.750			
0.7827	50092.76	3.0660	3.0660	-0.1595	9.18	3.19	-0.750			
0.7832	50123.39	3.0630	3.0630	-0.1596	9.19	3.20	-0.750			
0.7837	50154.36	3.0600	3.0600	-0.1591	9.20	3.21	-0.750			
0.7841	50185.07	3.0570	3.0571	-0.1582	9.21	3.22	-0.750			
0.7846	50215.26	3.0540	3.0540	-0.1569	9.21	3.22	-0.750			
0.7851	50245.24	3.0510	3.0510	-0.1555	9.22	3.23	-0.750			
0.7855	50274.89	3.0480	3.0480	-0.1545	9.23	3.24	-0.750			
0.7860	50304.38	3.0450	3.0450	-0.1532	9.24	3.25	-0.750			
0.7865	50333.76	3.0420	3.0420	-0.1521	9.24	3.25	-0.750			
0.7869	50362.85	3.0390	3.0390	-0.1510	9.25	3.26	-0.750			
0.7874	50391.83	3.0360	3.0360	-0.1496	9.26	3.27	-0.750			
0.7878	50420.45	3.0330	3.0330	-0.1485	9.27	3.28	-0.750			
0.7883	50448.88	3.0300	3.0300	-0.1469	9.28	3.29	-0.750			
0.7887	50476.93	3.0270	3.0270	-0.1453	9.28	3.29	-0.750			
0.7891	50504.45	3.0240	3.0240	-0.1449	9.29	3.30	-0.750			
0.7896	50532.19	3.0210	3.0211	-0.1439	9.30	3.31	-0.750			
0.7900	50559.69	3.0180	3.0180	-0.1431	9.31	3.32	-0.750			
0.7904	50587.05	3.0150	3.0149	-0.1430	9.31	3.32	-0.750			
0.7909	50614.41	3.0120	3.0121	-0.1427	9.32	3.33	-0.750			
0.7913	50641.71	3.0090	3.0090	-0.1426	9.33	3.34	-0.750			
0.7917	50669.29	3.0060	3.0059	-0.1417	9.33	3.34	-0.750			
0.7921	50696.38	3.0030	3.0030	-0.1406	9.34	3.35	-0.750			
