Ah_balance (normalized)	Ah_balance (mAh)	Voltage - fit (V)	Voltage -  interpolate (V)	dQ/dV (1/V)	Temperature (°C)	Temperature - diff (°C)	Current (C)	R_DC 0ms (mOhm)	R_DC 50ms (mOhm)	R_DC 50 ms PEC (mOhm)
0.0000	0.00	4.1030	4.1256	0.0000	6.00	0.00	-0.751			
0.0002	14.92	4.1000	4.0990	-0.0424	6.00	0.00	-0.750			
0.0005	29.42	4.0970	4.0960	-0.0750	6.00	0.00	-0.750			
0.0007	46.38	4.0940	4.0936	-0.1017	6.00	0.00	-0.750			
0.0011	68.19	4.0910	4.0910	-0.1294	6.00	0.00	-0.750			
0.0015	95.87	4.0880	4.0883	-0.1556	6.00	-0.00	-0.750			
0.0020	128.56	4.0850	4.0851	-0.1798	6.00	-0.00	-0.750			
0.0026	167.35	4.0820	4.0818	-0.2053	6.00	-0.00	-0.750			
0.0033	208.87	4.0790	4.0790	-0.2270	6.00	-0.00	-0.750			
0.0040	254.05	4.0760	4.0762	-0.2509	6.00	-0.00	-0.750			
0.0048	304.43	4.0730	4.0730	-0.2757	6.00	-0.00	-0.750			
0.0056	359.88	4.0700	4.0699	-0.2984	6.00	-0.00	-0.750			
0.0066	419.31	4.0670	4.0670	-0.3187	6.00	-0.00	-0.750			
0.0075	483.18	4.0640	4.0640	-0.3398	6.00	-0.00	-0.750			
0.0086	550.78	4.0610	4.0611	-0.3622	5.99	-0.01	-0.750			
0.0097	621.54	4.0580	4.0580	-0.3841	5.99	-0.01	-0.750			
0.0109	696.94	4.0550	4.0549	-0.4053	5.99	-0.01	-0.750			
0.0121	776.91	4.0520	4.0520	-0.4254	5.99	-0.01	-0.750			
0.0135	861.81	4.0490	4.0489	-0.4454	5.99	-0.01	-0.750			
0.0148	950.05	4.0460	4.0461	-0.4687	5.99	-0.01	-0.750			
0.0163	1042.52	4.0430	4.0430	-0.4822	6.00	-0.00	-0.750			
0.0177	1135.52	4.0400	4.0401	-0.5002	6.00	-0.00	-0.750			
0.0193	1232.61	4.0370	4.0370	-0.5206	6.00	0.00	-0.750			
0.0208	1334.25	4.0340	4.0339	-0.5398	6.01	0.01	-0.750			
0.0225	1440.13	4.0310	4.0310	-0.5607	6.01	0.01	-0.750			
0.0242	1549.95	4.0280	4.0280	-0.5803	6.01	0.01	-0.750			
0.0260	1664.43	4.0250	4.0250	-0.5954	6.02	0.02	-0.750			
0.0278	1781.80	4.0220	4.0220	-0.6117	6.02	0.02	-0.750			
0.0297	1899.30	4.0190	4.0191	-0.6249	6.03	0.03	-0.750			
0.0316	2021.24	4.0160	4.0160	-0.6378	6.03	0.03	-0.750			
0.0335	2145.81	4.0130	4.0129	-0.6458	6.03	0.03	-0.750			
0.0355	2270.77	4.0100	4.0100	-0.6542	6.03	0.03	-0.750			
0.0375	2397.62	4.0070	4.0071	-0.6594	6.04	0.04	-0.750			
0.0395	2527.71	4.0040	4.0039	-0.6637	6.04	0.04	-0.750			
0.0415	2653.34	4.0010	4.0011	-0.6665	6.05	0.05	-0.750			
0.0434	2779.20	3.9980	3.9980	-0.6705	6.05	0.05	-0.750			
0.0455	2909.04	3.9950	3.9950	-0.6816	6.06	0.06	-0.750			
0.0475	3041.33	3.9920	3.9919	-0.6873	6.07	0.07	-0.750			
0.0496	3173.51	3.9890	3.9890	-0.6900	6.07	0.07	-0.750			
0.0517	3307.59	3.9860	3.9863	-0.6992	6.08	0.08	-0.750			
0.0538	3442.28	3.9830	3.9830	-0.7053	6.09	0.09	-0.750			
0.0559	3577.39	3.9800	3.9800	-0.7051	6.09	0.09	-0.750			
0.0580	3713.79	3.9770	3.9769	-0.7120	6.10	0.10	-0.750			
0.0602	3851.19	3.9740	3.9741	-0.7165	6.11	0.11	-0.750			
0.0623	3990.02	3.9710	3.9711	-0.7228	6.11	0.11	-0.750			
0.0645	4130.36	3.9680	3.9680	-0.7244	6.12	0.12	-0.750			
0.0667	4268.82	3.9650	3.9651	-0.7236	6.13	0.13	-0.750			
0.0688	4405.81	3.9620	3.9620	-0.7286	6.14	0.14	-0.750			
0.0711	4547.67	3.9590	3.9590	-0.7306	6.14	0.14	-0.750			
0.0733	4688.47	3.9560	3.9559	-0.7297	6.15	0.15	-0.750			
0.0754	4827.93	3.9530	3.9529	-0.7316	6.16	0.16	-0.750			
0.0776	4968.27	3.9500	3.9502	-0.7365	6.16	0.16	-0.750			
0.0798	5110.10	3.9470	3.9469	-0.7423	6.17	0.17	-0.750			
0.0820	5250.88	3.9440	3.9438	-0.7484	6.18	0.18	-0.750			
0.0843	5393.64	3.9410	3.9412	-0.7556	6.19	0.19	-0.750			
0.0866	5543.46	3.9380	3.9379	-0.7611	6.20	0.20	-0.750			
0.0890	5693.23	3.9350	3.9350	-0.7616	6.21	0.21	-0.750			
0.0912	5839.46	3.9320	3.9321	-0.7587	6.22	0.22	-0.750			
0.0935	5983.89	3.9290	3.9291	-0.7551	6.23	0.23	-0.750			
0.0957	6127.97	3.9260	3.9259	-0.7569	6.24	0.24	-0.750			
0.0980	6270.83	3.9230	3.9230	-0.7585	6.25	0.25	-0.750			
0.1002	6415.93	3.9200	3.9199	-0.7610	6.26	0.26	-0.750			
0.1026	6563.42	3.9170	3.9170	-0.7676	6.26	0.26	-0.750			
0.1049	6712.37	3.9140	3.9140	-0.7739	6.27	0.27	-0.750			
0.1072	6861.98	3.9110	3.9110	-0.7702	6.28	0.28	-0.750			
0.1095	7010.76	3.9080	3.9080	-0.7691	6.29	0.29	-0.750			
0.1118	7157.14	3.9050	3.9050	-0.7704	6.30	0.30	-0.750			
0.1141	7303.00	3.9020	3.9023	-0.7767	6.31	0.31	-0.750			
0.1165	7453.69	3.8990	3.8989	-0.7817	6.32	0.32	-0.750			
0.1188	7603.19	3.8960	3.8959	-0.7891	6.33	0.33	-0.750			
0.1212	7756.89	3.8930	3.8931	-0.7923	6.33	0.33	-0.750			
0.1236	7912.93	3.8900	3.8900	-0.7961	6.34	0.34	-0.750			
0.1260	8065.59	3.8870	3.8869	-0.7864	6.35	0.35	-0.750			
0.1284	8214.55	3.8840	3.8841	-0.7787	6.36	0.36	-0.750			
0.1307	8361.89	3.8810	3.8810	-0.7784	6.37	0.37	-0.750			
0.1330	8511.70	3.8780	3.8780	-0.7754	6.38	0.38	-0.750			
0.1353	8657.95	3.8750	3.8750	-0.7765	6.39	0.39	-0.750			
0.1376	8807.51	3.8720	3.8720	-0.7891	6.40	0.40	-0.750			
0.1400	8959.90	3.8690	3.8689	-0.7944	6.41	0.41	-0.750			
0.1424	9112.54	3.8660	3.8659	-0.8081	6.42	0.42	-0.750			
0.1449	9270.56	3.8630	3.8630	-0.8083	6.43	0.43	-0.750			
0.1473	9428.87	3.8600	3.8599	-0.8052	6.44	0.44	-0.750			
0.1498	9584.17	3.8570	3.8570	-0.8056	6.45	0.45	-0.750			
0.1521	9736.97	3.8540	3.8541	-0.7966	6.46	0.46	-0.750			
0.1545	9886.31	3.8510	3.8510	-0.8011	6.47	0.47	-0.750			
0.1569	10039.96	3.8480	3.8479	-0.7985	6.49	0.49	-0.750			
0.1592	10191.62	3.8450	3.8451	-0.7966	6.50	0.50	-0.750			
0.1617	10348.09	3.8420	3.8419	-0.8043	6.51	0.51	-0.750			
0.1641	10504.64	3.8390	3.8393	-0.8117	6.52	0.52	-0.750			
0.1666	10659.64	3.8360	3.8359	-0.8051	6.53	0.53	-0.750			
0.1690	10813.31	3.8330	3.8330	-0.8067	6.54	0.54	-0.750			
0.1714	10967.49	3.8300	3.8301	-0.8041	6.54	0.54	-0.750			
0.1738	11123.20	3.8270	3.8269	-0.8099	6.55	0.55	-0.750			
0.1762	11277.67	3.8240	3.8241	-0.8068	6.56	0.56	-0.750			
0.1786	11431.28	3.8210	3.8210	-0.8095	6.57	0.57	-0.750			
0.1810	11586.31	3.8180	3.8179	-0.8118	6.58	0.58	-0.750			
0.1835	11744.63	3.8150	3.8150	-0.8138	6.59	0.59	-0.750			
0.1859	11900.70	3.8120	3.8120	-0.8099	6.60	0.60	-0.750			
0.1884	12057.06	3.8090	3.8091	-0.8179	6.61	0.61	-0.750			
0.1908	12214.00	3.8060	3.8060	-0.8186	6.62	0.62	-0.750			
0.1933	12369.36	3.8030	3.8029	-0.8237	6.63	0.63	-0.750			
0.1957	12527.82	3.8000	3.7999	-0.8270	6.64	0.64	-0.750			
0.1982	12687.96	3.7970	3.7971	-0.8269	6.65	0.65	-0.750			
0.2008	12850.65	3.7940	3.7940	-0.8298	6.66	0.66	-0.750			
0.2032	13007.72	3.7910	3.7910	-0.8330	6.67	0.67	-0.750			
0.2057	13165.46	3.7880	3.7879	-0.8315	6.67	0.67	-0.750			
0.2082	13327.45	3.7850	3.7849	-0.8346	6.68	0.68	-0.750			
0.2108	13488.24	3.7820	3.7819	-0.8282	6.69	0.69	-0.750			
0.2133	13650.69	3.7790	3.7791	-0.8297	6.70	0.70	-0.750			
0.2158	13808.97	3.7760	3.7759	-0.8262	6.71	0.71	-0.750			
0.2182	13965.36	3.7730	3.7730	-0.8251	6.72	0.72	-0.750			
0.2206	14120.43	3.7700	3.7699	-0.8216	6.73	0.73	-0.750			
0.2231	14276.34	3.7670	3.7670	-0.8291	6.74	0.74	-0.750			
0.2256	14438.77	3.7640	3.7641	-0.8413	6.75	0.75	-0.750			
0.2282	14601.65	3.7610	3.7609	-0.8493	6.76	0.76	-0.750			
0.2307	14767.65	3.7580	3.7579	-0.8562	6.77	0.77	-0.750			
0.2333	14933.55	3.7550	3.7551	-0.8527	6.78	0.78	-0.750			
0.2359	15096.45	3.7520	3.7521	-0.8490	6.79	0.79	-0.750			
0.2385	15260.83	3.7490	3.7490	-0.8522	6.80	0.80	-0.750			
0.2410	15421.25	3.7460	3.7460	-0.8561	6.81	0.81	-0.750			
0.2435	15583.62	3.7430	3.7429	-0.8605	6.81	0.81	-0.750			
0.2461	15750.28	3.7400	3.7400	-0.8656	6.82	0.82	-0.750			
0.2487	15918.53	3.7370	3.7369	-0.8752	6.83	0.83	-0.750			
0.2514	16091.67	3.7340	3.7342	-0.8789	6.84	0.84	-0.750			
0.2541	16260.48	3.7310	3.7310	-0.8712	6.85	0.85	-0.750			
0.2567	16426.94	3.7280	3.7279	-0.8665	6.86	0.86	-0.750			
0.2592	16591.03	3.7250	3.7249	-0.8633	6.86	0.86	-0.750			
0.2618	16753.78	3.7220	3.7221	-0.8634	6.87	0.87	-0.750			
0.2644	16919.74	3.7190	3.7191	-0.8693	6.88	0.88	-0.750			
0.2670	17086.28	3.7160	3.7159	-0.8788	6.89	0.89	-0.750			
0.2697	17258.30	3.7130	3.7130	-0.8894	6.90	0.90	-0.750			
0.2723	17430.28	3.7100	3.7100	-0.8943	6.91	0.91	-0.750			
0.2751	17603.28	3.7070	3.7069	-0.8995	6.92	0.92	-0.750			
0.2778	17776.26	3.7040	3.7042	-0.9025	6.92	0.92	-0.750			
0.2805	17948.84	3.7010	3.7009	-0.9059	6.93	0.93	-0.750			
0.2832	18124.09	3.6980	3.6979	-0.9049	6.94	0.94	-0.750			
0.2859	18297.01	3.6950	3.6950	-0.9053	6.95	0.95	-0.750			
0.2886	18472.53	3.6920	3.6922	-0.9038	6.96	0.96	-0.750			
0.2913	18645.20	3.6890	3.6889	-0.9164	6.96	0.96	-0.750			
0.2941	18820.19	3.6860	3.6860	-0.9253	6.97	0.97	-0.750			
0.2968	18995.70	3.6830	3.6829	-0.9347	6.97	0.97	-0.750			
0.2997	19178.39	3.6800	3.6800	-0.9422	6.98	0.98	-0.750			
0.3026	19363.50	3.6770	3.6771	-0.9578	6.98	0.98	-0.750			
0.3054	19547.58	3.6740	3.6740	-0.9713	6.99	0.99	-0.750			
0.3084	19738.57	3.6710	3.6710	-0.9775	7.00	1.00	-0.750			
0.3113	19922.84	3.6680	3.6679	-0.9794	7.01	1.01	-0.750			
0.3143	20112.77	3.6650	3.6652	-0.9899	7.02	1.02	-0.750			
0.3173	20304.78	3.6620	3.6620	-0.9960	7.03	1.03	-0.750			
0.3203	20498.52	3.6590	3.6589	-0.9983	7.04	1.04	-0.750			
0.3232	20686.79	3.6560	3.6561	-1.0056	7.04	1.04	-0.750			
0.3263	20882.49	3.6530	3.6531	-1.0077	7.05	1.05	-0.750			
0.3293	21076.89	3.6500	3.6498	-1.0158	7.05	1.05	-0.750			
0.3324	21270.90	3.6470	3.6470	-1.0142	7.06	1.06	-0.750			
0.3354	21466.43	3.6440	3.6441	-1.0197	7.06	1.06	-0.750			
0.3385	21661.96	3.6410	3.6410	-1.0295	7.07	1.07	-0.750			
0.3416	21860.86	3.6380	3.6380	-1.0362	7.07	1.07	-0.750			
0.3447	22058.21	3.6350	3.6349	-1.0447	7.08	1.08	-0.750			
0.3478	22261.07	3.6320	3.6321	-1.0605	7.08	1.08	-0.750			
0.3510	22462.69	3.6290	3.6288	-1.0746	7.09	1.09	-0.750			
0.3543	22673.23	3.6260	3.6260	-1.0922	7.09	1.09	-0.750			
0.3576	22885.54	3.6230	3.6230	-1.1000	7.10	1.10	-0.750			
0.3609	23098.33	3.6200	3.6200	-1.1049	7.11	1.11	-0.750			
0.3642	23311.07	3.6170	3.6171	-1.1193	7.11	1.11	-0.750			
0.3676	23528.62	3.6140	3.6140	-1.1137	7.12	1.12	-0.750			
0.3710	23741.62	3.6110	3.6110	-1.1157	7.12	1.12	-0.750			
0.3743	23952.37	3.6080	3.6079	-1.1205	7.13	1.13	-0.750			
0.3776	24168.73	3.6050	3.6050	-1.1370	7.13	1.13	-0.750			
0.3811	24387.77	3.6020	3.6019	-1.1571	7.14	1.14	-0.750			
0.3846	24612.09	3.5990	3.5988	-1.1712	7.14	1.14	-0.750			
0.3880	24835.06	3.5960	3.5962	-1.1866	7.15	1.15	-0.750			
0.3918	25073.52	3.5930	3.5939	-1.2026	7.15	1.15	-0.750	0.406	0.897	
0.3954	25306.63	3.5900	3.5899	-1.2014	7.16	1.16	-0.750			
0.3990	25537.64	3.5870	3.5869	-1.1964	7.17	1.17	-0.750			
0.4025	25763.19	3.5840	3.5841	-1.2014	7.17	1.17	-0.750			
0.4061	25993.54	3.5810	3.5810	-1.2044	7.18	1.18	-0.750			
0.4098	26224.47	3.5780	3.5779	-1.2183	7.18	1.18	-0.750			
0.4134	26454.60	3.5750	3.5751	-1.2328	7.19	1.19	-0.750			
0.4172	26698.04	3.5720	3.5720	-1.2573	7.19	1.19	-0.750			
0.4210	26943.08	3.5690	3.5688	-1.2744	7.20	1.20	-0.750			
0.4248	27188.53	3.5660	3.5660	-1.2912	7.20	1.20	-0.750			
0.4287	27434.83	3.5630	3.5629	-1.3023	7.20	1.20	-0.750			
0.4327	27693.10	3.5600	3.5601	-1.3183	7.21	1.21	-0.750			
0.4367	27946.67	3.5570	3.5568	-1.3247	7.22	1.22	-0.750			
0.4406	28201.05	3.5540	3.5540	-1.3293	7.22	1.22	-0.750			
0.4446	28457.38	3.5510	3.5511	-1.3253	7.22	1.22	-0.750			
0.4486	28710.23	3.5480	3.5480	-1.3376	7.23	1.23	-0.750			
0.4526	28966.23	3.5450	3.5451	-1.3527	7.23	1.23	-0.750			
0.4567	29230.31	3.5420	3.5418	-1.3616	7.24	1.24	-0.750			
0.4609	29497.09	3.5390	3.5389	-1.3688	7.25	1.25	-0.750			
0.4650	29759.86	3.5360	3.5361	-1.3770	7.25	1.25	-0.750			
0.4692	30027.54	3.5330	3.5330	-1.3782	7.26	1.26	-0.750			
0.4733	30291.76	3.5300	3.5298	-1.3811	7.27	1.27	-0.750			
0.4774	30551.27	3.5270	3.5272	-1.3819	7.27	1.27	-0.750			
0.4816	30819.48	3.5240	3.5239	-1.3869	7.27	1.27	-0.750			
0.4857	31086.94	3.5210	3.5210	-1.3900	7.28	1.28	-0.750			
0.4900	31356.85	3.5180	3.5181	-1.3978	7.28	1.28	-0.750			
0.4942	31627.20	3.5150	3.5149	-1.4015	7.29	1.29	-0.750			
0.4984	31894.65	3.5120	3.5119	-1.4033	7.30	1.30	-0.750			
0.5025	32162.95	3.5090	3.5090	-1.3921	7.31	1.31	-0.750			
0.5068	32432.78	3.5060	3.5060	-1.3913	7.32	1.32	-0.750			
0.5109	32697.99	3.5030	3.5029	-1.3898	7.33	1.33	-0.750			
0.5150	32961.34	3.5000	3.5002	-1.3739	7.33	1.33	-0.750			
0.5192	33229.51	3.4970	3.4970	-1.3937	7.34	1.34	-0.750			
0.5233	33493.25	3.4940	3.4939	-1.3888	7.35	1.35	-0.750			
0.5275	33759.06	3.4910	3.4910	-1.3802	7.35	1.35	-0.750			
0.5317	34029.84	3.4880	3.4882	-1.3905	7.36	1.36	-0.750			
0.5359	34298.38	3.4850	3.4849	-1.3845	7.37	1.37	-0.750			
0.5400	34562.77	3.4820	3.4820	-1.3843	7.38	1.38	-0.750			
0.5442	34829.05	3.4790	3.4791	-1.3715	7.39	1.39	-0.750			
0.5483	35090.20	3.4760	3.4759	-1.3650	7.40	1.40	-0.750			
0.5524	35352.14	3.4730	3.4732	-1.3560	7.41	1.41	-0.750			
0.5565	35612.93	3.4700	3.4698	-1.3460	7.42	1.42	-0.750			
0.5604	35867.74	3.4670	3.4670	-1.3325	7.43	1.43	-0.750			
0.5644	36123.35	3.4640	3.4641	-1.3229	7.44	1.44	-0.750			
0.5684	36377.52	3.4610	3.4610	-1.3184	7.45	1.45	-0.750			
0.5723	36629.17	3.4580	3.4579	-1.3124	7.46	1.46	-0.750			
0.5762	36876.59	3.4550	3.4552	-1.3029	7.47	1.47	-0.750			
0.5801	37128.32	3.4520	3.4519	-1.3032	7.48	1.48	-0.750			
0.5841	37380.02	3.4490	3.4490	-1.2859	7.49	1.49	-0.750			
0.5879	37626.04	3.4460	3.4461	-1.2762	7.50	1.50	-0.750			
0.5918	37875.60	3.4430	3.4429	-1.2575	7.51	1.51	-0.750			
0.5955	38111.37	3.4400	3.4400	-1.2306	7.52	1.52	-0.750			
0.5991	38341.86	3.4370	3.4369	-1.2110	7.53	1.53	-0.750			
0.6026	38567.96	3.4340	3.4340	-1.2052	7.54	1.54	-0.750			
0.6062	38799.26	3.4310	3.4309	-1.1950	7.56	1.56	-0.750			
0.6099	39030.85	3.4280	3.4280	-1.1823	7.57	1.57	-0.750			
0.6134	39258.13	3.4250	3.4251	-1.1702	7.58	1.58	-0.750			
0.6170	39486.86	3.4220	3.4220	-1.1494	7.59	1.59	-0.750			
0.6203	39701.41	3.4190	3.4189	-1.1207	7.61	1.61	-0.750			
0.6237	39914.40	3.4160	3.4160	-1.0943	7.62	1.62	-0.750			
0.6268	40117.61	3.4130	3.4130	-1.0707	7.63	1.63	-0.750			
0.6301	40324.19	3.4100	3.4100	-1.0591	7.64	1.64	-0.750			
0.6332	40525.84	3.4070	3.4070	-1.0388	7.65	1.65	-0.750			
0.6363	40723.13	3.4040	3.4039	-1.0196	7.66	1.66	-0.750			
0.6394	40920.63	3.4010	3.4011	-0.9978	7.67	1.67	-0.750			
0.6423	41108.21	3.3980	3.3981	-0.9724	7.69	1.69	-0.750			
0.6452	41293.34	3.3950	3.3949	-0.9514	7.70	1.70	-0.750			
0.6480	41471.34	3.3920	3.3919	-0.9274	7.71	1.71	-0.750			
0.6507	41645.56	3.3890	3.3891	-0.9077	7.73	1.73	-0.750			
0.6534	41818.25	3.3860	3.3859	-0.8882	7.74	1.74	-0.750			
0.6561	41989.59	3.3830	3.3829	-0.8700	7.75	1.75	-0.750			
0.6587	42155.29	3.3800	3.3800	-0.8517	7.76	1.76	-0.750			
0.6612	42314.58	3.3770	3.3771	-0.8302	7.78	1.78	-0.750			
0.6637	42473.69	3.3740	3.3740	-0.8118	7.79	1.79	-0.750			
0.6661	42628.41	3.3710	3.3709	-0.7889	7.80	1.80	-0.750			
0.6684	42776.75	3.3680	3.3680	-0.7676	7.81	1.81	-0.750			
0.6707	42922.67	3.3650	3.3651	-0.7484	7.82	1.82	-0.750			
0.6729	43063.88	3.3620	3.3620	-0.7310	7.83	1.83	-0.750			
0.6750	43202.31	3.3590	3.3589	-0.7067	7.83	1.83	-0.750			
0.6771	43336.05	3.3560	3.3561	-0.6882	7.84	1.84	-0.750			
0.6792	43466.52	3.3530	3.3530	-0.6729	7.86	1.86	-0.750			
0.6812	43594.11	3.3500	3.3501	-0.6569	7.87	1.87	-0.750			
0.6831	43718.23	3.3470	3.3469	-0.6397	7.88	1.88	-0.750			
0.6850	43839.56	3.3440	3.3440	-0.6254	7.89	1.89	-0.750			
0.6869	43958.46	3.3410	3.3411	-0.6066	7.90	1.90	-0.750			
0.6887	44074.87	3.3380	3.3381	-0.5918	7.91	1.91	-0.750			
0.6904	44186.04	3.3350	3.3350	-0.5771	7.92	1.92	-0.750			
0.6921	44292.97	3.3320	3.3319	-0.5614	7.93	1.93	-0.750			
0.6937	44399.63	3.3290	3.3290	-0.5488	7.94	1.94	-0.750			
0.6954	44503.32	3.3260	3.3259	-0.5367	7.95	1.95	-0.750			
0.6970	44606.03	3.3230	3.3231	-0.5305	7.96	1.96	-0.750			
0.6986	44707.83	3.3200	3.3201	-0.5218	7.96	1.96	-0.750			
0.7001	44807.21	3.3170	3.3168	-0.5114	7.97	1.97	-0.750			
0.7016	44904.02	3.3140	3.3142	-0.4991	7.98	1.98	-0.750			
0.7031	44998.59	3.3110	3.3109	-0.4870	7.99	1.99	-0.750			
0.7046	45091.26	3.3080	3.3081	-0.4766	8.01	2.01	-0.750			
0.7060	45180.88	3.3050	3.3050	-0.4663	8.02	2.02	-0.750			
0.7073	45269.60	3.3020	3.3020	-0.4574	8.03	2.03	-0.750			
0.7087	45356.79	3.2990	3.2988	-0.4475	8.04	2.04	-0.750			
0.7100	45441.31	3.2960	3.2961	-0.4405	8.05	2.05	-0.750			
0.7113	45525.48	3.2930	3.2931	-0.4324	8.06	2.06	-0.750			
0.7126	45608.80	3.2900	3.2898	-0.4229	8.07	2.07	-0.750			
0.7139	45688.80	3.2870	3.2871	-0.4124	8.08	2.08	-0.750			
0.7151	45765.70	3.2840	3.2841	-0.4034	8.09	2.09	-0.750			
0.7163	45842.50	3.2810	3.2811	-0.3972	8.10	2.10	-0.750			
0.7175	45917.81	3.2780	3.2779	-0.3913	8.11	2.11	-0.750			
0.7186	45991.93	3.2750	3.2750	-0.3840	8.12	2.12	-0.750			
0.7198	46065.92	3.2720	3.2720	-0.3771	8.13	2.13	-0.750			
0.7209	46137.70	3.2690	3.2690	-0.3711	8.14	2.14	-0.750			
0.7220	46208.81	3.2660	3.2660	-0.3630	8.15	2.15	-0.750			
0.7231	46277.56	3.2630	3.2629	-0.3573	8.16	2.16	-0.750			
0.7241	46345.30	3.2600	3.2600	-0.3504	8.17	2.17	-0.750			
0.7252	46411.76	3.2570	3.2570	-0.3452	8.18	2.18	-0.750			
0.7262	46477.83	3.2540	3.2541	-0.3409	8.19	2.19	-0.750			
0.7272	46542.64	3.2510	3.2509	-0.3350	8.20	2.20	-0.750			
0.7282	46605.91	3.2480	3.2480	-0.3288	8.21	2.21	-0.750			
0.7292	46668.90	3.2450	3.2450	-0.3242	8.22	2.22	-0.750			
0.7302	46730.19	3.2420	3.2419	-0.3172	8.23	2.23	-0.750			
0.7311	46791.51	3.2390	3.2391	-0.3126	8.23	2.23	-0.750			
0.7320	46850.53	3.2360	3.2361	-0.3078	8.24	2.24	-0.750			
0.7330	46909.29	3.2330	3.2329	-0.3025	8.25	2.25	-0.750			
0.7339	46966.66	3.2300	3.2299	-0.2995	8.26	2.26	-0.750			
0.7347	47023.03	3.2270	3.2270	-0.2953	8.27	2.27	-0.750			
0.7356	47079.61	3.2240	3.2240	-0.2920	8.28	2.28	-0.750			
0.7365	47136.19	3.2210	3.2209	-0.2891	8.29	2.29	-0.750			
0.7374	47191.31	3.2180	3.2180	-0.2837	8.29	2.29	-0.750			
0.7382	47245.18	3.2150	3.2151	-0.2780	8.30	2.30	-0.750			
0.7390	47297.97	3.2120	3.2120	-0.2751	8.31	2.31	-0.750			
0.7398	47349.64	3.2090	3.2090	-0.2698	8.32	2.32	-0.750			
0.7406	47401.38	3.2060	3.2060	-0.2672	8.33	2.33	-0.750			
0.7414	47452.44	3.2030	3.2030	-0.2636	8.34	2.34	-0.750			
0.7422	47502.88	3.2000	3.2001	-0.2614	8.35	2.35	-0.750			
0.7430	47552.69	3.1970	3.1970	-0.2595	8.35	2.35	-0.750			
0.7438	47602.18	3.1940	3.1940	-0.2569	8.36	2.36	-0.750			
0.7446	47651.48	3.1910	3.1909	-0.2525	8.37	2.37	-0.750			
0.7453	47700.06	3.1880	3.1880	-0.2499	8.38	2.38	-0.750			
0.7461	47747.84	3.1850	3.1851	-0.2465	8.39	2.39	-0.750			
0.7468	47795.00	3.1820	3.1821	-0.2425	8.40	2.40	-0.750			
0.7475	47840.73	3.1790	3.1790	-0.2401	8.40	2.40	-0.750			
0.7482	47886.09	3.1760	3.1759	-0.2357	8.41	2.41	-0.750			
0.7489	47930.61	3.1730	3.1732	-0.2325	8.42	2.42	-0.750			
0.7496	47975.08	3.1700	3.1699	-0.2301	8.43	2.43	-0.750			
0.7503	48019.48	3.1670	3.1671	-0.2294	8.44	2.44	-0.750			
0.7510	48063.23	3.1640	3.1641	-0.2267	8.44	2.44	-0.750			
0.7517	48106.31	3.1610	3.1609	-0.2239	8.45	2.45	-0.750			
0.7523	48149.12	3.1580	3.1579	-0.2221	8.46	2.46	-0.750			
0.7530	48190.99	3.1550	3.1551	-0.2196	8.47	2.47	-0.750			
0.7536	48233.51	3.1520	3.1520	-0.2190	8.48	2.48	-0.750			
0.7543	48275.36	3.1490	3.1490	-0.2170	8.49	2.49	-0.750			
0.7550	48316.92	3.1460	3.1460	-0.2142	8.49	2.49	-0.750			
0.7556	48358.12	3.1430	3.1430	-0.2104	8.50	2.50	-0.750			
0.7562	48398.38	3.1400	3.1401	-0.2078	8.51	2.51	-0.750			
0.7568	48437.89	3.1370	3.1370	-0.2038	8.52	2.52	-0.750			
0.7574	48476.27	3.1340	3.1340	-0.2023	8.52	2.52	-0.750			
0.7580	48514.47	3.1310	3.1309	-0.1998	8.53	2.53	-0.750			
0.7586	48552.47	3.1280	3.1279	-0.1978	8.54	2.54	-0.750			
0.7592	48590.37	3.1250	3.1250	-0.1970	8.55	2.55	-0.750			
0.7598	48628.14	3.1220	3.1221	-0.1960	8.55	2.55	-0.750			
0.7604	48665.95	3.1190	3.1190	-0.1958	8.56	2.56	-0.750			
0.7610	48703.31	3.1160	3.1160	-0.1943	8.57	2.57	-0.750			
0.7616	48740.51	3.1130	3.1129	-0.1932	8.57	2.57	-0.750			
0.7621	48777.34	3.1100	3.1100	-0.1912	8.58	2.58	-0.750			
0.7627	48814.44	3.1070	3.1070	-0.1898	8.59	2.59	-0.750			
0.7633	48850.94	3.1040	3.1040	-0.1879	8.59	2.59	-0.750			
0.7639	48886.62	3.1010	3.1010	-0.1857	8.60	2.60	-0.750			
0.7644	48921.98	3.0980	3.0980	-0.1837	8.61	2.61	-0.750			
0.7650	48956.82	3.0950	3.0948	-0.1814	8.62	2.62	-0.750			
0.7655	48991.49	3.0920	3.0921	-0.1797	8.62	2.62	-0.750			
0.7660	49025.77	3.0890	3.0890	-0.1780	8.63	2.63	-0.750			
0.7666	49059.80	3.0860	3.0860	-0.1767	8.64	2.64	-0.750			
0.7671	49093.31	3.0830	3.0829	-0.1760	8.65	2.65	-0.750			
0.7676	49127.04	3.0800	3.0801	-0.1753	8.66	2.66	-0.750			
0.7681	49160.44	3.0770	3.0769	-0.1740	8.66	2.66	-0.750			
0.7687	49193.96	3.0740	3.0740	-0.1727	8.67	2.67	-0.750			
0.7692	49226.95	3.0710	3.0710	-0.1723	8.68	2.68	-0.750			
0.7697	49260.04	3.0680	3.0681	-0.1712	8.69	2.69	-0.750			
0.7702	49292.95	3.0650	3.0650	-0.1702	8.69	2.69	-0.750			
0.7707	49325.43	3.0620	3.0619	-0.1692	8.70	2.70	-0.750			
0.7712	49357.56	3.0590	3.0592	-0.1677	8.71	2.71	-0.750			
0.7717	49389.85	3.0560	3.0561	-0.1667	8.72	2.72	-0.750			
0.7722	49422.01	3.0530	3.0528	-0.1660	8.73	2.73	-0.750			
0.7727	49453.83	3.0500	3.0500	-0.1652	8.73	2.73	-0.750			
0.7732	49485.32	3.0470	3.0470	-0.1633	8.74	2.74	-0.750			
0.7737	49516.63	3.0440	3.0440	-0.1626	8.75	2.75	-0.750			
0.7742	49547.73	3.0410	3.0410	-0.1613	8.76	2.76	-0.750			
0.7747	49578.46	3.0380	3.0381	-0.1601	8.76	2.76	-0.750			
0.7751	49609.03	3.0350	3.0349	-0.1591	8.77	2.77	-0.750			
0.7756	49639.54	3.0320	3.0320	-0.1584	8.78	2.78	-0.750			
0.7761	49669.85	3.0290	3.0290	-0.1574	8.78	2.78	-0.750			
0.7766	49699.89	3.0260	3.0260	-0.1563	8.79	2.79	-0.750			
0.7770	49729.89	3.0230	3.0230	-0.1560	8.80	2.80	-0.750			
0.7775	49759.77	3.0200	3.0200	-0.1552	8.81	2.81	-0.750			
0.7780	49789.48	3.0170	3.0170	-0.1535	8.81	2.81	-0.750			
0.7784	49818.90	3.0140	3.0140	-0.1524	8.82	2.82	-0.750			
0.7789	49848.09	3.0110	3.0110	-0.1512	8.83	2.83	-0.750			
0.7793	49876.99	3.0080	3.0081	-0.1498	8.83	2.83	-0.750			
0.7798	49905.66	3.0050	3.0049	-0.1480	8.84	2.84	-0.750			
0.7802	49933.88	3.0020	3.0020	-0.1456	8.85	2.85	-0.750			
