Ah_balance (normalized)	Ah_balance (mAh)	Voltage - fit (V)	Voltage -  interpolate (V)	dQ/dV (1/V)	Temperature (°C)	Temperature - diff (°C)	Current (C)	R_DC 0ms (mOhm)	R_DC 50ms (mOhm)	R_DC 50 ms PEC (mOhm)
0.0001	8.48	4.1090	4.1071	-0.0161	5.98	0.00	-0.750			
0.0002	15.72	4.1060	4.1053	-0.0516	5.98	0.00	-0.750			
0.0004	28.50	4.1030	4.1027	-0.0816	5.98	0.00	-0.750			
0.0008	48.24	4.1000	4.0998	-0.1089	5.98	0.00	-0.750			
0.0011	71.99	4.0970	4.0971	-0.1348	5.98	0.00	-0.750			
0.0016	100.90	4.0940	4.0941	-0.1581	5.98	0.00	-0.750			
0.0021	133.66	4.0910	4.0911	-0.1819	5.98	0.00	-0.750			
0.0027	173.06	4.0880	4.0879	-0.2045	5.98	0.00	-0.750			
0.0033	213.91	4.0850	4.0851	-0.2256	5.98	0.00	-0.750			
0.0040	259.00	4.0820	4.0820	-0.2465	5.98	0.00	-0.750			
0.0048	308.35	4.0790	4.0791	-0.2687	5.98	0.00	-0.750			
0.0057	361.89	4.0760	4.0760	-0.2910	5.98	0.00	-0.750			
0.0066	419.47	4.0730	4.0730	-0.3134	5.98	0.00	-0.750			
0.0075	482.87	4.0700	4.0700	-0.3342	5.98	0.00	-0.750			
0.0086	549.18	4.0670	4.0672	-0.3567	5.98	0.00	-0.750			
0.0097	619.65	4.0640	4.0641	-0.3756	5.98	0.00	-0.750			
0.0108	692.86	4.0610	4.0611	-0.3982	5.98	0.00	-0.750			
0.0120	770.90	4.0580	4.0580	-0.4217	5.98	0.00	-0.750			
0.0133	853.46	4.0550	4.0550	-0.4450	5.98	0.00	-0.750			
0.0147	941.91	4.0520	4.0520	-0.4683	5.98	0.00	-0.750			
0.0162	1036.29	4.0490	4.0490	-0.4927	5.98	0.00	-0.750			
0.0177	1133.26	4.0460	4.0459	-0.5078	5.98	0.00	-0.750			
0.0193	1234.14	4.0430	4.0431	-0.5235	5.98	0.00	-0.750			
0.0209	1335.55	4.0400	4.0402	-0.5324	5.98	0.00	-0.750			
0.0225	1437.87	4.0370	4.0369	-0.5490	5.98	0.00	-0.750			
0.0241	1544.05	4.0340	4.0340	-0.5652	5.98	0.00	-0.750			
0.0258	1653.44	4.0310	4.0309	-0.5822	5.99	0.01	-0.750			
0.0276	1767.51	4.0280	4.0281	-0.5970	5.99	0.01	-0.750			
0.0295	1886.46	4.0250	4.0250	-0.6133	5.99	0.01	-0.750			
0.0313	2006.23	4.0220	4.0221	-0.6219	6.00	0.02	-0.750			
0.0332	2127.04	4.0190	4.0190	-0.6331	6.00	0.02	-0.750			
0.0351	2247.95	4.0160	4.0160	-0.6416	6.00	0.02	-0.750			
0.0371	2371.35	4.0130	4.0130	-0.6516	6.00	0.02	-0.750			
0.0390	2497.33	4.0100	4.0099	-0.6630	6.00	0.02	-0.750			
0.0410	2626.40	4.0070	4.0070	-0.6763	6.01	0.03	-0.750			
0.0431	2759.20	4.0040	4.0040	-0.6849	6.01	0.03	-0.750			
0.0452	2892.63	4.0010	4.0010	-0.6885	6.01	0.03	-0.750			
0.0473	3025.59	3.9980	3.9980	-0.6907	6.01	0.03	-0.750			
0.0494	3158.43	3.9950	3.9951	-0.6910	6.02	0.04	-0.750			
0.0514	3289.33	3.9920	3.9921	-0.6986	6.02	0.04	-0.750			
0.0535	3424.32	3.9890	3.9889	-0.7007	6.03	0.05	-0.750			
0.0556	3559.49	3.9860	3.9857	-0.7054	6.03	0.05	-0.750			
0.0578	3696.18	3.9830	3.9831	-0.7133	6.04	0.06	-0.750			
0.0599	3834.26	3.9800	3.9800	-0.7135	6.04	0.06	-0.750			
0.0621	3972.35	3.9770	3.9770	-0.7181	6.05	0.07	-0.750			
0.0642	4109.85	3.9740	3.9739	-0.7205	6.06	0.08	-0.750			
0.0663	4245.06	3.9710	3.9711	-0.7179	6.06	0.08	-0.750			
0.0685	4385.94	3.9680	3.9679	-0.7274	6.07	0.09	-0.750			
0.0707	4524.32	3.9650	3.9650	-0.7313	6.08	0.10	-0.750			
0.0729	4665.72	3.9620	3.9621	-0.7373	6.09	0.11	-0.750			
0.0751	4808.80	3.9590	3.9590	-0.7447	6.09	0.11	-0.750			
0.0774	4953.15	3.9560	3.9559	-0.7428	6.10	0.12	-0.750			
0.0796	5096.61	3.9530	3.9530	-0.7438	6.11	0.13	-0.750			
0.0819	5238.93	3.9500	3.9500	-0.7460	6.11	0.13	-0.750			
0.0841	5380.14	3.9470	3.9470	-0.7504	6.12	0.14	-0.750			
0.0863	5522.28	3.9440	3.9440	-0.7569	6.13	0.15	-0.750			
0.0886	5670.24	3.9410	3.9410	-0.7608	6.13	0.15	-0.750			
0.0909	5818.83	3.9380	3.9379	-0.7656	6.14	0.16	-0.750			
0.0933	5969.31	3.9350	3.9351	-0.7633	6.14	0.16	-0.750			
0.0955	6115.20	3.9320	3.9320	-0.7542	6.15	0.17	-0.750			
0.0978	6257.71	3.9290	3.9291	-0.7531	6.16	0.18	-0.750			
0.1000	6399.63	3.9260	3.9260	-0.7571	6.16	0.18	-0.750			
0.1022	6542.43	3.9230	3.9229	-0.7576	6.17	0.19	-0.750			
0.1045	6690.69	3.9200	3.9200	-0.7648	6.18	0.20	-0.750			
0.1069	6840.60	3.9170	3.9169	-0.7703	6.18	0.20	-0.750			
0.1092	6989.54	3.9140	3.9142	-0.7728	6.19	0.21	-0.750			
0.1115	7138.26	3.9110	3.9110	-0.7725	6.20	0.22	-0.750			
0.1138	7284.27	3.9080	3.9080	-0.7731	6.21	0.23	-0.750			
0.1161	7431.84	3.9050	3.9049	-0.7686	6.21	0.23	-0.750			
0.1185	7582.33	3.9020	3.9020	-0.7678	6.22	0.24	-0.750			
0.1208	7730.55	3.8990	3.8990	-0.7717	6.23	0.25	-0.750			
0.1231	7876.84	3.8960	3.8961	-0.7728	6.24	0.26	-0.750			
0.1254	8024.05	3.8930	3.8930	-0.7744	6.24	0.26	-0.750			
0.1277	8173.01	3.8900	3.8899	-0.7799	6.25	0.27	-0.750			
0.1300	8322.79	3.8870	3.8871	-0.7893	6.26	0.28	-0.750			
0.1325	8476.83	3.8840	3.8839	-0.8025	6.27	0.29	-0.750			
0.1349	8632.59	3.8810	3.8810	-0.8057	6.28	0.30	-0.750			
0.1373	8787.16	3.8780	3.8780	-0.8081	6.29	0.31	-0.750			
0.1398	8944.38	3.8750	3.8751	-0.8080	6.29	0.31	-0.750			
0.1422	9100.34	3.8720	3.8720	-0.8079	6.30	0.32	-0.750			
0.1446	9255.11	3.8690	3.8689	-0.8067	6.31	0.33	-0.750			
0.1470	9410.27	3.8660	3.8661	-0.7972	6.32	0.34	-0.750			
0.1494	9561.24	3.8630	3.8629	-0.7992	6.33	0.35	-0.750			
0.1518	9715.52	3.8600	3.8600	-0.8009	6.34	0.36	-0.750			
0.1542	9868.19	3.8570	3.8570	-0.7933	6.35	0.37	-0.750			
0.1566	10021.91	3.8540	3.8539	-0.7959	6.35	0.37	-0.750			
0.1590	10174.50	3.8510	3.8511	-0.7956	6.36	0.38	-0.750			
0.1614	10326.69	3.8480	3.8481	-0.7997	6.37	0.39	-0.750			
0.1638	10480.57	3.8450	3.8449	-0.8111	6.38	0.40	-0.750			
0.1662	10635.99	3.8420	3.8419	-0.8068	6.39	0.41	-0.750			
0.1686	10791.57	3.8390	3.8390	-0.8153	6.40	0.42	-0.750			
0.1711	10949.35	3.8360	3.8362	-0.8176	6.41	0.43	-0.750			
0.1736	11107.24	3.8330	3.8329	-0.8202	6.42	0.44	-0.750			
0.1760	11264.65	3.8300	3.8300	-0.8243	6.43	0.45	-0.750			
0.1785	11421.49	3.8270	3.8269	-0.8246	6.43	0.45	-0.750			
0.1810	11581.14	3.8240	3.8241	-0.8323	6.44	0.46	-0.750			
0.1835	11742.89	3.8210	3.8212	-0.8366	6.45	0.47	-0.750			
0.1860	11903.50	3.8180	3.8179	-0.8343	6.46	0.48	-0.750			
0.1885	12065.62	3.8150	3.8150	-0.8348	6.47	0.49	-0.750			
0.1910	12223.33	3.8120	3.8120	-0.8310	6.47	0.49	-0.750			
0.1935	12383.11	3.8090	3.8091	-0.8315	6.48	0.50	-0.750			
0.1960	12541.73	3.8060	3.8061	-0.8279	6.49	0.51	-0.750			
0.1984	12699.38	3.8030	3.8030	-0.8315	6.50	0.52	-0.750			
0.2009	12860.74	3.8000	3.7998	-0.8390	6.51	0.53	-0.750			
0.2035	13023.01	3.7970	3.7970	-0.8407	6.51	0.53	-0.750			
0.2060	13186.51	3.7940	3.7940	-0.8429	6.52	0.54	-0.750			
0.2086	13347.89	3.7910	3.7915	-0.8412	6.53	0.55	-0.750			
0.2111	13510.30	3.7880	3.7879	-0.8382	6.54	0.56	-0.750			
0.2136	13669.33	3.7850	3.7850	-0.8383	6.55	0.57	-0.750			
0.2161	13829.57	3.7820	3.7821	-0.8333	6.56	0.58	-0.750			
0.2186	13991.02	3.7790	3.7789	-0.8424	6.57	0.59	-0.750			
0.2211	14151.00	3.7760	3.7762	-0.8400	6.58	0.60	-0.750			
0.2236	14311.71	3.7730	3.7730	-0.8419	6.59	0.61	-0.750			
0.2261	14472.70	3.7700	3.7699	-0.8462	6.60	0.62	-0.750			
0.2287	14637.89	3.7670	3.7670	-0.8459	6.60	0.62	-0.750			
0.2313	14800.16	3.7640	3.7640	-0.8518	6.61	0.63	-0.750			
0.2338	14964.02	3.7610	3.7612	-0.8567	6.62	0.64	-0.750			
0.2364	15127.83	3.7580	3.7579	-0.8559	6.63	0.65	-0.750			
0.2390	15292.85	3.7550	3.7549	-0.8601	6.64	0.66	-0.750			
0.2415	15458.02	3.7520	3.7521	-0.8612	6.65	0.67	-0.750			
0.2441	15624.61	3.7490	3.7490	-0.8694	6.66	0.68	-0.750			
0.2468	15792.44	3.7460	3.7460	-0.8697	6.67	0.69	-0.750			
0.2493	15956.61	3.7430	3.7430	-0.8736	6.68	0.70	-0.750			
0.2520	16126.21	3.7400	3.7400	-0.8713	6.68	0.70	-0.750			
0.2546	16294.97	3.7370	3.7370	-0.8729	6.69	0.71	-0.750			
0.2572	16461.88	3.7340	3.7340	-0.8726	6.70	0.72	-0.750			
0.2599	16630.44	3.7310	3.7308	-0.8661	6.71	0.73	-0.750			
0.2624	16793.82	3.7280	3.7281	-0.8728	6.72	0.74	-0.750			
0.2650	16962.35	3.7250	3.7249	-0.8772	6.73	0.75	-0.750			
0.2676	17129.24	3.7220	3.7220	-0.8805	6.74	0.76	-0.750			
0.2703	17301.09	3.7190	3.7189	-0.8959	6.75	0.77	-0.750			
0.2730	17472.79	3.7160	3.7160	-0.9031	6.75	0.77	-0.750			
0.2757	17647.79	3.7130	3.7129	-0.9123	6.76	0.78	-0.750			
0.2785	17827.05	3.7100	3.7099	-0.9135	6.77	0.79	-0.750			
0.2812	17999.07	3.7070	3.7071	-0.9110	6.77	0.79	-0.750			
0.2840	18178.09	3.7040	3.7042	-0.9180	6.78	0.80	-0.750			
0.2868	18352.85	3.7010	3.7010	-0.9190	6.79	0.81	-0.750			
0.2895	18527.55	3.6980	3.6979	-0.9186	6.80	0.82	-0.750			
0.2923	18704.52	3.6950	3.6950	-0.9232	6.81	0.83	-0.750			
0.2950	18882.27	3.6920	3.6920	-0.9286	6.82	0.84	-0.750			
0.2978	19060.50	3.6890	3.6890	-0.9440	6.82	0.84	-0.750			
0.3007	19243.73	3.6860	3.6860	-0.9559	6.83	0.85	-0.750			
0.3036	19430.84	3.6830	3.6828	-0.9634	6.83	0.85	-0.750			
0.3065	19617.69	3.6800	3.6800	-0.9667	6.84	0.86	-0.750			
0.3095	19806.39	3.6770	3.6772	-0.9727	6.84	0.86	-0.750			
0.3124	19994.28	3.6740	3.6739	-0.9705	6.85	0.87	-0.750			
0.3153	20178.16	3.6710	3.6709	-0.9717	6.86	0.88	-0.750			
0.3181	20359.09	3.6680	3.6681	-0.9654	6.87	0.89	-0.750			
0.3211	20547.88	3.6650	3.6652	-0.9797	6.88	0.90	-0.750			
0.3240	20735.86	3.6620	3.6619	-0.9967	6.88	0.90	-0.750			
0.3270	20929.42	3.6590	3.6590	-1.0004	6.89	0.91	-0.750			
0.3301	21124.08	3.6560	3.6559	-1.0026	6.89	0.91	-0.750			
0.3331	21318.01	3.6530	3.6530	-1.0200	6.90	0.92	-0.750			
0.3361	21511.50	3.6500	3.6501	-1.0258	6.91	0.93	-0.750			
0.3392	21707.30	3.6470	3.6469	-1.0396	6.91	0.93	-0.750			
0.3423	21908.21	3.6440	3.6439	-1.0488	6.92	0.94	-0.750			
0.3455	22108.94	3.6410	3.6409	-1.0616	6.93	0.95	-0.750			
0.3488	22320.26	3.6380	3.6380	-1.0856	6.93	0.95	-0.750			
0.3520	22530.93	3.6350	3.6349	-1.0842	6.94	0.96	-0.750			
0.3553	22738.29	3.6320	3.6320	-1.0829	6.94	0.96	-0.750			
0.3585	22946.66	3.6290	3.6292	-1.0939	6.95	0.97	-0.750			
0.3618	23156.66	3.6260	3.6260	-1.0937	6.96	0.98	-0.750			
0.3651	23366.24	3.6230	3.6229	-1.1099	6.96	0.98	-0.750			
0.3684	23576.57	3.6200	3.6201	-1.1191	6.97	0.99	-0.750			
0.3718	23794.72	3.6170	3.6170	-1.1441	6.97	0.99	-0.750			
0.3753	24018.82	3.6140	3.6139	-1.1603	6.98	1.00	-0.750			
0.3788	24245.40	3.6110	3.6110	-1.1613	6.98	1.00	-0.750			
0.3823	24467.12	3.6080	3.6079	-1.1709	6.99	1.01	-0.750			
0.3859	24695.12	3.6050	3.6049	-1.1859	6.99	1.01	-0.750			
0.3894	24920.72	3.6020	3.6017	-1.1872	7.00	1.02	-0.750			
0.3929	25147.45	3.5990	3.5990	-1.1933	7.01	1.03	-0.750			
0.3965	25375.84	3.5960	3.5962	-1.1925	7.01	1.03	-0.750	0.405	0.934	
0.4002	25610.76	3.5930	3.5929	-1.2152	7.02	1.04	-0.750			
0.4038	25843.20	3.5900	3.5901	-1.2303	7.02	1.04	-0.750			
0.4074	26072.28	3.5870	3.5868	-1.2436	7.03	1.05	-0.750			
0.4112	26317.44	3.5840	3.5840	-1.2681	7.03	1.05	-0.750			
0.4151	26563.21	3.5810	3.5810	-1.2883	7.04	1.06	-0.750			
0.4190	26817.41	3.5780	3.5780	-1.2953	7.04	1.06	-0.750			
0.4229	27066.00	3.5750	3.5750	-1.3045	7.04	1.06	-0.750			
0.4268	27317.50	3.5720	3.5720	-1.3101	7.05	1.07	-0.750			
0.4308	27569.27	3.5690	3.5689	-1.3131	7.06	1.08	-0.750			
0.4347	27819.55	3.5660	3.5660	-1.3162	7.06	1.08	-0.750			
0.4387	28075.09	3.5630	3.5631	-1.3282	7.07	1.09	-0.750			
0.4427	28330.42	3.5600	3.5600	-1.3353	7.07	1.09	-0.750			
0.4467	28587.05	3.5570	3.5571	-1.3596	7.08	1.10	-0.750			
0.4507	28845.71	3.5540	3.5539	-1.3644	7.08	1.10	-0.750			
0.4549	29111.98	3.5510	3.5510	-1.3838	7.09	1.11	-0.750			
0.4591	29382.26	3.5480	3.5481	-1.4072	7.09	1.11	-0.750			
0.4634	29659.45	3.5450	3.5449	-1.4171	7.10	1.12	-0.750			
0.4677	29932.70	3.5420	3.5419	-1.4130	7.10	1.12	-0.750			
0.4720	30204.91	3.5390	3.5392	-1.4048	7.11	1.13	-0.750			
0.4761	30468.87	3.5360	3.5361	-1.4053	7.11	1.13	-0.750			
0.4803	30738.21	3.5330	3.5329	-1.4181	7.12	1.14	-0.750			
0.4845	31008.97	3.5300	3.5300	-1.4180	7.12	1.14	-0.750			
0.4889	31290.06	3.5270	3.5269	-1.4414	7.13	1.15	-0.750			
0.4933	31569.59	3.5240	3.5240	-1.4650	7.14	1.16	-0.750			
0.4977	31852.47	3.5210	3.5211	-1.4628	7.14	1.16	-0.750			
0.5021	32133.94	3.5180	3.5178	-1.4635	7.15	1.17	-0.750			
0.5065	32412.86	3.5150	3.5149	-1.4502	7.16	1.18	-0.750			
0.5107	32686.42	3.5120	3.5120	-1.4452	7.16	1.18	-0.750			
0.5152	32970.05	3.5090	3.5090	-1.4588	7.17	1.19	-0.750			
0.5195	33248.92	3.5060	3.5058	-1.4600	7.18	1.20	-0.750			
0.5239	33527.02	3.5030	3.5031	-1.4528	7.18	1.20	-0.750			
0.5283	33810.93	3.5000	3.5000	-1.4586	7.19	1.21	-0.750			
0.5327	34091.70	3.4970	3.4970	-1.4582	7.20	1.22	-0.750			
0.5371	34371.41	3.4940	3.4939	-1.4504	7.21	1.23	-0.750			
0.5413	34645.81	3.4910	3.4910	-1.4604	7.21	1.23	-0.750			
0.5457	34925.42	3.4880	3.4880	-1.4575	7.22	1.24	-0.750			
0.5501	35205.78	3.4850	3.4850	-1.4541	7.23	1.25	-0.750			
0.5546	35492.44	3.4820	3.4819	-1.4550	7.24	1.26	-0.750			
0.5589	35772.44	3.4790	3.4790	-1.4402	7.25	1.27	-0.750			
0.5633	36050.34	3.4760	3.4759	-1.4216	7.26	1.28	-0.750			
0.5675	36322.59	3.4730	3.4730	-1.3999	7.26	1.28	-0.750			
0.5716	36583.89	3.4700	3.4701	-1.3791	7.27	1.29	-0.750			
0.5758	36850.54	3.4670	3.4670	-1.3665	7.28	1.30	-0.750			
0.5798	37108.15	3.4640	3.4639	-1.3556	7.29	1.31	-0.750			
0.5838	37366.05	3.4610	3.4612	-1.3575	7.30	1.32	-0.750			
0.5879	37628.29	3.4580	3.4578	-1.3550	7.31	1.33	-0.750			
0.5920	37886.91	3.4550	3.4549	-1.3488	7.31	1.33	-0.750			
0.5961	38147.92	3.4520	3.4522	-1.3399	7.32	1.34	-0.750			
0.6001	38407.63	3.4490	3.4489	-1.3346	7.33	1.35	-0.750			
0.6041	38662.40	3.4460	3.4460	-1.3260	7.35	1.37	-0.750			
0.6080	38910.62	3.4430	3.4431	-1.3054	7.36	1.38	-0.750			
0.6120	39165.19	3.4400	3.4399	-1.2899	7.37	1.39	-0.750			
0.6158	39412.04	3.4370	3.4370	-1.2645	7.38	1.40	-0.750			
0.6196	39651.60	3.4340	3.4341	-1.2450	7.39	1.41	-0.750			
0.6233	39889.20	3.4310	3.4310	-1.2261	7.40	1.42	-0.750			
0.6269	40124.06	3.4280	3.4278	-1.1941	7.41	1.43	-0.750			
0.6305	40349.92	3.4250	3.4250	-1.1617	7.42	1.44	-0.750			
0.6339	40569.10	3.4220	3.4222	-1.1405	7.43	1.45	-0.750			
0.6373	40786.09	3.4190	3.4189	-1.1181	7.44	1.46	-0.750			
0.6406	40996.84	3.4160	3.4159	-1.0928	7.45	1.47	-0.750			
0.6438	41202.08	3.4130	3.4129	-1.0745	7.46	1.48	-0.750			
0.6470	41409.07	3.4100	3.4100	-1.0580	7.47	1.49	-0.750			
0.6502	41612.77	3.4070	3.4070	-1.0402	7.49	1.51	-0.750			
0.6533	41812.22	3.4040	3.4040	-1.0154	7.50	1.52	-0.750			
0.6563	42002.05	3.4010	3.4010	-0.9877	7.51	1.53	-0.750			
0.6592	42190.57	3.3980	3.3981	-0.9692	7.52	1.54	-0.750			
0.6621	42372.36	3.3950	3.3950	-0.9450	7.53	1.55	-0.750			
0.6649	42551.58	3.3920	3.3919	-0.9222	7.55	1.57	-0.750			
0.6676	42728.91	3.3890	3.3890	-0.8941	7.56	1.58	-0.750			
0.6703	42901.11	3.3860	3.3862	-0.8765	7.57	1.59	-0.750			
0.6729	43066.15	3.3830	3.3829	-0.8476	7.58	1.60	-0.750			
0.6754	43223.48	3.3800	3.3799	-0.8217	7.59	1.61	-0.750			
0.6778	43377.11	3.3770	3.3770	-0.7999	7.60	1.62	-0.750			
0.6801	43527.02	3.3740	3.3739	-0.7794	7.61	1.63	-0.750			
0.6825	43677.52	3.3710	3.3710	-0.7672	7.62	1.64	-0.750			
0.6847	43823.57	3.3680	3.3680	-0.7507	7.64	1.66	-0.750			
0.6870	43966.35	3.3650	3.3649	-0.7292	7.65	1.67	-0.750			
0.6891	44105.58	3.3620	3.3620	-0.7105	7.66	1.68	-0.750			
0.6912	44237.98	3.3590	3.3590	-0.6881	7.67	1.69	-0.750			
0.6933	44369.22	3.3560	3.3560	-0.6707	7.68	1.70	-0.750			
0.6952	44495.99	3.3530	3.3530	-0.6504	7.70	1.72	-0.750			
0.6972	44617.87	3.3500	3.3500	-0.6314	7.71	1.73	-0.750			
0.6990	44737.72	3.3470	3.3470	-0.6137	7.71	1.73	-0.750			
0.7008	44854.21	3.3440	3.3439	-0.5978	7.72	1.74	-0.750			
0.7026	44965.50	3.3410	3.3410	-0.5863	7.73	1.75	-0.750			
0.7043	45077.38	3.3380	3.3380	-0.5737	7.74	1.76	-0.750			
0.7060	45186.83	3.3350	3.3349	-0.5616	7.75	1.77	-0.750			
0.7077	45294.08	3.3320	3.3319	-0.5477	7.76	1.78	-0.750			
0.7093	45397.87	3.3290	3.3292	-0.5340	7.77	1.79	-0.750			
0.7109	45499.30	3.3260	3.3259	-0.5218	7.78	1.80	-0.750			
0.7125	45597.75	3.3230	3.3230	-0.5071	7.79	1.81	-0.750			
0.7139	45692.26	3.3200	3.3200	-0.4910	7.79	1.81	-0.750			
0.7154	45786.75	3.3170	3.3171	-0.4816	7.80	1.82	-0.750			
0.7169	45878.43	3.3140	3.3140	-0.4755	7.81	1.83	-0.750			
0.7183	45969.78	3.3110	3.3109	-0.4604	7.82	1.84	-0.750			
0.7196	46056.93	3.3080	3.3079	-0.4478	7.83	1.85	-0.750			
0.7210	46141.48	3.3050	3.3054	-0.4354	7.84	1.86	-0.750			
0.7222	46223.49	3.3020	3.3019	-0.4258	7.85	1.87	-0.750			
0.7235	46303.56	3.2990	3.2989	-0.4159	7.86	1.88	-0.750			
0.7247	46381.02	3.2960	3.2960	-0.4064	7.87	1.89	-0.750			
0.7259	46458.87	3.2930	3.2930	-0.4013	7.88	1.90	-0.750			
0.7271	46535.93	3.2900	3.2900	-0.3967	7.88	1.90	-0.750			
0.7283	46610.73	3.2870	3.2871	-0.3892	7.89	1.91	-0.750			
0.7294	46684.61	3.2840	3.2840	-0.3856	7.90	1.92	-0.750			
0.7306	46758.27	3.2810	3.2810	-0.3778	7.91	1.93	-0.750			
0.7317	46831.13	3.2780	3.2780	-0.3728	7.92	1.94	-0.750			
0.7328	46901.99	3.2750	3.2750	-0.3653	7.93	1.95	-0.750			
0.7339	46971.76	3.2720	3.2721	-0.3577	7.93	1.95	-0.750			
0.7350	47039.51	3.2690	3.2689	-0.3476	7.94	1.96	-0.750			
0.7360	47105.21	3.2660	3.2659	-0.3385	7.95	1.97	-0.750			
0.7370	47167.90	3.2630	3.2632	-0.3309	7.96	1.98	-0.750			
0.7380	47231.46	3.2600	3.2599	-0.3265	7.97	1.99	-0.750			
0.7390	47293.05	3.2570	3.2570	-0.3218	7.98	2.00	-0.750			
0.7399	47354.82	3.2540	3.2540	-0.3166	7.99	2.01	-0.750			
0.7409	47415.63	3.2510	3.2511	-0.3119	8.00	2.02	-0.750			
0.7418	47475.22	3.2480	3.2480	-0.3075	8.01	2.03	-0.750			
0.7427	47533.51	3.2450	3.2451	-0.3016	8.02	2.04	-0.750			
0.7436	47590.60	3.2420	3.2420	-0.2947	8.03	2.05	-0.750			
0.7445	47646.69	3.2390	3.2389	-0.2898	8.03	2.05	-0.750			
0.7453	47701.54	3.2360	3.2361	-0.2833	8.04	2.06	-0.750			
0.7462	47755.53	3.2330	3.2330	-0.2809	8.04	2.06	-0.750			
0.7470	47808.64	3.2300	3.2300	-0.2759	8.05	2.07	-0.750			
0.7478	47861.34	3.2270	3.2269	-0.2726	8.06	2.08	-0.750			
0.7486	47912.95	3.2240	3.2241	-0.2684	8.07	2.09	-0.750			
0.7494	47964.37	3.2210	3.2210	-0.2653	8.08	2.10	-0.750			
0.7502	48015.02	3.2180	3.2180	-0.2612	8.09	2.11	-0.750			
0.7510	48065.00	3.2150	3.2150	-0.2574	8.09	2.11	-0.750			
0.7518	48113.56	3.2120	3.2120	-0.2528	8.10	2.12	-0.750			
0.7525	48162.20	3.2090	3.2091	-0.2495	8.11	2.13	-0.750			
0.7533	48209.53	3.2060	3.2060	-0.2455	8.12	2.14	-0.750			
0.7540	48256.36	3.2030	3.2029	-0.2418	8.13	2.15	-0.750			
0.7547	48302.25	3.2000	3.2000	-0.2384	8.13	2.15	-0.750			
0.7554	48347.49	3.1970	3.1969	-0.2349	8.14	2.16	-0.750			
0.7561	48392.49	3.1940	3.1940	-0.2319	8.15	2.17	-0.750			
0.7568	48436.70	3.1910	3.1910	-0.2286	8.16	2.18	-0.750			
0.7575	48479.99	3.1880	3.1881	-0.2263	8.16	2.18	-0.750			
0.7582	48523.17	3.1850	3.1850	-0.2244	8.17	2.19	-0.750			
0.7588	48565.88	3.1820	3.1819	-0.2219	8.17	2.19	-0.750			
0.7595	48608.30	3.1790	3.1790	-0.2201	8.18	2.20	-0.750			
0.7602	48650.54	3.1760	3.1760	-0.2168	8.19	2.21	-0.750			
0.7608	48692.19	3.1730	3.1730	-0.2144	8.20	2.22	-0.750			
0.7615	48733.07	3.1700	3.1701	-0.2121	8.21	2.23	-0.750			
0.7621	48773.48	3.1670	3.1670	-0.2089	8.21	2.23	-0.750			
0.7627	48812.95	3.1640	3.1640	-0.2060	8.22	2.24	-0.750			
0.7633	48851.74	3.1610	3.1610	-0.2046	8.23	2.25	-0.750			
0.7639	48891.05	3.1580	3.1580	-0.2024	8.24	2.26	-0.750			
0.7645	48929.79	3.1550	3.1550	-0.2012	8.24	2.26	-0.750			
0.7651	48968.65	3.1520	3.1519	-0.1995	8.25	2.27	-0.750			
0.7657	49006.74	3.1490	3.1491	-0.1976	8.26	2.28	-0.750			
0.7663	49044.77	3.1460	3.1459	-0.1950	8.27	2.29	-0.750			
0.7669	49081.92	3.1430	3.1430	-0.1920	8.27	2.29	-0.750			
0.7675	49118.56	3.1400	3.1399	-0.1900	8.28	2.30	-0.750			
0.7680	49154.39	3.1370	3.1371	-0.1870	8.29	2.31	-0.750			
0.7686	49190.26	3.1340	3.1339	-0.1858	8.30	2.32	-0.750			
0.7691	49225.55	3.1310	3.1310	-0.1844	8.30	2.32	-0.750			
0.7697	49260.52	3.1280	3.1280	-0.1827	8.31	2.33	-0.750			
0.7702	49295.61	3.1250	3.1250	-0.1798	8.32	2.34	-0.750			
0.7708	49330.14	3.1220	3.1220	-0.1790	8.33	2.35	-0.750			
0.7713	49364.25	3.1190	3.1190	-0.1770	8.33	2.35	-0.750			
0.7718	49397.90	3.1160	3.1161	-0.1749	8.34	2.36	-0.750			
0.7724	49431.33	3.1130	3.1128	-0.1734	8.35	2.37	-0.750			
0.7729	49464.25	3.1100	3.1101	-0.1715	8.36	2.38	-0.750			
0.7734	49497.00	3.1070	3.1070	-0.1698	8.36	2.38	-0.750			
0.7739	49529.49	3.1040	3.1040	-0.1686	8.37	2.39	-0.750			
0.7744	49562.20	3.1010	3.1009	-0.1673	8.38	2.40	-0.750			
0.7749	49593.62	3.0980	3.0980	-0.1660	8.38	2.40	-0.750			
0.7754	49625.54	3.0950	3.0950	-0.1649	8.39	2.41	-0.750			
0.7759	49657.10	3.0920	3.0920	-0.1638	8.40	2.42	-0.750			
0.7764	49688.47	3.0890	3.0889	-0.1622	8.40	2.42	-0.750			
0.7769	49719.60	3.0860	3.0862	-0.1608	8.41	2.43	-0.750			
0.7774	49750.67	3.0830	3.0831	-0.1591	8.42	2.44	-0.750			
0.7778	49780.80	3.0800	3.0799	-0.1571	8.42	2.44	-0.750			
0.7783	49810.84	3.0770	3.0770	-0.1551	8.43	2.45	-0.750			
0.7788	49840.00	3.0740	3.0740	-0.1531	8.44	2.46	-0.750			
0.7792	49869.05	3.0710	3.0710	-0.1525	8.44	2.46	-0.750			
0.7797	49898.29	3.0680	3.0679	-0.1521	8.45	2.47	-0.750			
0.7801	49927.10	3.0650	3.0651	-0.1526	8.46	2.48	-0.750			
0.7806	49956.63	3.0620	3.0619	-0.1515	8.46	2.48	-0.750			
0.7810	49986.13	3.0590	3.0589	-0.1513	8.47	2.49	-0.750			
0.7815	50015.23	3.0560	3.0560	-0.1503	8.47	2.49	-0.750			
0.7819	50043.90	3.0530	3.0532	-0.1488	8.48	2.50	-0.750			
0.7824	50072.62	3.0500	3.0499	-0.1471	8.49	2.51	-0.750			
0.7828	50100.41	3.0470	3.0470	-0.1449	8.49	2.51	-0.750			
0.7833	50128.05	3.0440	3.0440	-0.1431	8.50	2.52	-0.750			
0.7837	50154.93	3.0410	3.0411	-0.1422	8.50	2.52	-0.750			
0.7841	50182.17	3.0380	3.0380	-0.1423	8.51	2.53	-0.750			
0.7845	50209.10	3.0350	3.0350	-0.1415	8.51	2.53	-0.750			
0.7849	50236.31	3.0320	3.0319	-0.1419	8.52	2.54	-0.750			
0.7854	50263.51	3.0290	3.0290	-0.1418	8.52	2.54	-0.750			
0.7858	50291.51	3.0260	3.0259	-0.1408	8.53	2.55	-0.750			
0.7862	50318.70	3.0230	3.0231	-0.1398	8.54	2.56	-0.750			
0.7866	50345.30	3.0200	3.0200	-0.1373	8.54	2.56	-0.750			
0.7871	50371.26	3.0170	3.0172	-0.1364	8.55	2.57	-0.750			
0.7875	50396.96	3.0140	3.0139	-0.1352	8.55	2.57	-0.750			
0.7879	50422.43	3.0110	3.0108	-0.1340	8.56	2.58	-0.750			
0.7883	50448.20	3.0080	3.0081	-0.1344	8.56	2.58	-0.750			
0.7887	50473.72	3.0050	3.0051	-0.1365	8.57	2.59	-0.750			
0.7891	50500.07	3.0020	3.0020	-0.1347	8.57	2.59	-0.750			
