Ah_balance (normalized)	Ah_balance (mAh)	Voltage - fit (V)	Voltage -  interpolate (V)	dQ/dV (1/V)	Temperature (°C)	Temperature - diff (°C)	Current (C)	R_DC 0ms (mOhm)	R_DC 50ms (mOhm)	R_DC 50 ms PEC (mOhm)
0.0000	0.00	4.0880	4.1365	0.0000	4.91	-0.00	-0.741			
0.0000	0.00	4.0910	4.1365	0.0000	4.91	-0.00	-0.741			
0.0000	0.00	4.0940	4.1365	0.0000	4.91	-0.00	-0.741			
0.0000	1.38	4.0850	4.1197	-0.0340	4.91	-0.00	-0.746			
0.0002	10.08	4.0820	4.0846	-0.0567	4.91	-0.00	-0.750			
0.0004	23.09	4.0790	4.0794	-0.0795	4.91	0.00	-0.750			
0.0006	40.29	4.0760	4.0760	-0.1029	4.91	0.00	-0.750			
0.0010	62.25	4.0730	4.0730	-0.1259	4.91	0.00	-0.750			
0.0014	88.63	4.0700	4.0699	-0.1486	4.91	0.00	-0.750			
0.0019	119.32	4.0670	4.0670	-0.1699	4.91	0.00	-0.750			
0.0024	154.97	4.0640	4.0640	-0.1915	4.92	0.01	-0.750			
0.0030	193.50	4.0610	4.0610	-0.2133	4.92	0.01	-0.750			
0.0037	236.58	4.0580	4.0581	-0.2353	4.92	0.01	-0.750			
0.0044	283.49	4.0550	4.0550	-0.2575	4.92	0.01	-0.750			
0.0052	335.00	4.0520	4.0519	-0.2785	4.92	0.01	-0.750			
0.0061	390.70	4.0490	4.0490	-0.3005	4.92	0.01	-0.750			
0.0070	450.54	4.0460	4.0460	-0.3223	4.93	0.02	-0.750			
0.0080	514.45	4.0430	4.0430	-0.3466	4.93	0.02	-0.750			
0.0091	583.14	4.0400	4.0400	-0.3698	4.93	0.02	-0.750			
0.0103	656.59	4.0370	4.0369	-0.3900	4.93	0.02	-0.750			
0.0115	734.10	4.0340	4.0340	-0.4098	4.94	0.03	-0.750			
0.0127	815.48	4.0310	4.0312	-0.4308	4.94	0.03	-0.750			
0.0141	899.85	4.0280	4.0280	-0.4492	4.94	0.03	-0.750			
0.0154	987.02	4.0250	4.0250	-0.4784	4.95	0.04	-0.750			
0.0169	1082.71	4.0220	4.0219	-0.4934	4.95	0.04	-0.750			
0.0184	1180.51	4.0190	4.0188	-0.5114	4.96	0.05	-0.750			
0.0200	1281.00	4.0160	4.0160	-0.5263	4.96	0.05	-0.750	0.474	0.933	
0.0216	1384.45	4.0130	4.0128	-0.5404	4.97	0.06	-0.750			
0.0233	1488.42	4.0100	4.0099	-0.5503	4.97	0.06	-0.750			
0.0249	1592.18	4.0070	4.0070	-0.5602	4.98	0.07	-0.750			
0.0266	1702.84	4.0040	4.0040	-0.5770	4.99	0.08	-0.750			
0.0284	1816.06	4.0010	4.0010	-0.5907	5.00	0.09	-0.750			
0.0302	1930.44	3.9980	3.9979	-0.6025	5.00	0.09	-0.750			
0.0320	2047.64	3.9950	3.9950	-0.6120	5.01	0.10	-0.750			
0.0338	2165.18	3.9920	3.9920	-0.6308	5.02	0.11	-0.750			
0.0358	2290.08	3.9890	3.9889	-0.6369	5.03	0.12	-0.750			
0.0377	2414.39	3.9860	3.9860	-0.6431	5.04	0.13	-0.750			
0.0397	2539.09	3.9830	3.9829	-0.6472	5.05	0.14	-0.750	0.477	0.941	
0.0416	2664.16	3.9800	3.9799	-0.6510	5.06	0.15	-0.750			
0.0436	2787.93	3.9770	3.9769	-0.6551	5.07	0.16	-0.750			
0.0455	2911.87	3.9740	3.9739	-0.6567	5.08	0.17	-0.750			
0.0475	3039.00	3.9710	3.9710	-0.6668	5.09	0.18	-0.750			
0.0495	3168.55	3.9680	3.9679	-0.6746	5.10	0.19	-0.750			
0.0515	3295.70	3.9650	3.9651	-0.6884	5.11	0.20	-0.750			
0.0536	3430.04	3.9620	3.9619	-0.6982	5.12	0.21	-0.750			
0.0558	3568.27	3.9590	3.9589	-0.6962	5.14	0.23	-0.750			
0.0579	3703.36	3.9560	3.9557	-0.6944	5.15	0.24	-0.750			
0.0600	3837.45	3.9530	3.9530	-0.6973	5.16	0.25	-0.750	0.466	0.936	
0.0620	3970.32	3.9500	3.9498	-0.6946	5.18	0.27	-0.750			
0.0641	4101.21	3.9470	3.9469	-0.6910	5.19	0.28	-0.750			
0.0661	4231.57	3.9440	3.9439	-0.6925	5.20	0.29	-0.750			
0.0682	4366.07	3.9410	3.9410	-0.7045	5.21	0.30	-0.750			
0.0703	4501.83	3.9380	3.9380	-0.7082	5.22	0.31	-0.750			
0.0725	4638.38	3.9350	3.9350	-0.7191	5.23	0.32	-0.750			
0.0747	4778.53	3.9320	3.9320	-0.7180	5.24	0.33	-0.750			
0.0768	4916.75	3.9290	3.9289	-0.7177	5.25	0.34	-0.750			
0.0790	5055.39	3.9260	3.9258	-0.7182	5.26	0.35	-0.750			
0.0811	5193.06	3.9230	3.9230	-0.7206	5.28	0.37	-0.750	0.466	0.939	
0.0833	5330.87	3.9200	3.9199	-0.7172	5.29	0.38	-0.750			
0.0854	5467.71	3.9170	3.9170	-0.7164	5.31	0.40	-0.750			
0.0875	5602.93	3.9140	3.9142	-0.7151	5.32	0.41	-0.750			
0.0898	5745.21	3.9110	3.9110	-0.7295	5.34	0.43	-0.750			
0.0919	5883.82	3.9080	3.9080	-0.7307	5.35	0.44	-0.750			
0.0942	6025.78	3.9050	3.9049	-0.7429	5.37	0.46	-0.750			
0.0965	6172.85	3.9020	3.9019	-0.7441	5.38	0.47	-0.750			
0.0987	6316.73	3.8990	3.8989	-0.7417	5.40	0.49	-0.750			
0.1009	6458.50	3.8960	3.8959	-0.7359	5.41	0.50	-0.750	0.470	0.939	
0.1031	6599.13	3.8930	3.8929	-0.7314	5.43	0.52	-0.750			
0.1053	6736.37	3.8900	3.8899	-0.7324	5.44	0.53	-0.750			
0.1074	6871.60	3.8870	3.8871	-0.7267	5.45	0.54	-0.750			
0.1096	7016.71	3.8840	3.8839	-0.7416	5.46	0.55	-0.750			
0.1118	7157.58	3.8810	3.8810	-0.7580	5.48	0.57	-0.750			
0.1142	7306.24	3.8780	3.8780	-0.7595	5.49	0.58	-0.750			
0.1165	7454.39	3.8750	3.8749	-0.7563	5.51	0.60	-0.750			
0.1188	7600.64	3.8720	3.8718	-0.7517	5.52	0.61	-0.750			
0.1210	7743.80	3.8690	3.8690	-0.7462	5.54	0.63	-0.750	0.467	0.943	
0.1232	7887.38	3.8660	3.8658	-0.7419	5.56	0.65	-0.750			
0.1254	8028.61	3.8630	3.8631	-0.7262	5.57	0.66	-0.750			
0.1275	8162.50	3.8600	3.8601	-0.7157	5.59	0.68	-0.750			
0.1297	8302.28	3.8570	3.8571	-0.7256	5.60	0.69	-0.750			
0.1318	8438.38	3.8540	3.8538	-0.7350	5.61	0.70	-0.750			
0.1340	8578.23	3.8510	3.8509	-0.7405	5.63	0.72	-0.750			
0.1363	8723.58	3.8480	3.8479	-0.7448	5.64	0.73	-0.750			
0.1386	8869.67	3.8450	3.8449	-0.7539	5.66	0.75	-0.750			
0.1409	9016.42	3.8420	3.8421	-0.7590	5.67	0.76	-0.750	0.475	0.947	
0.1431	9160.77	3.8390	3.8390	-0.7556	5.69	0.78	-0.750			
0.1454	9304.08	3.8360	3.8359	-0.7514	5.70	0.79	-0.750			
0.1476	9446.21	3.8330	3.8329	-0.7484	5.71	0.80	-0.750			
0.1499	9593.65	3.8300	3.8301	-0.7574	5.73	0.82	-0.750			
0.1522	9737.96	3.8270	3.8271	-0.7686	5.74	0.83	-0.750			
0.1545	9886.71	3.8240	3.8240	-0.7730	5.76	0.85	-0.750			
0.1568	10037.26	3.8210	3.8208	-0.7726	5.77	0.86	-0.750			
0.1591	10185.06	3.8180	3.8179	-0.7704	5.79	0.88	-0.750	0.480	0.947	
0.1615	10335.11	3.8150	3.8150	-0.7695	5.80	0.89	-0.750			
0.1638	10482.17	3.8120	3.8119	-0.7665	5.82	0.91	-0.750			
0.1661	10628.31	3.8090	3.8090	-0.7642	5.83	0.92	-0.750			
0.1683	10773.49	3.8060	3.8060	-0.7569	5.85	0.94	-0.750			
0.1706	10916.14	3.8030	3.8030	-0.7619	5.86	0.95	-0.750			
0.1729	11065.46	3.8000	3.8000	-0.7743	5.88	0.97	-0.750			
0.1752	11215.72	3.7970	3.7970	-0.7744	5.89	0.98	-0.750			
0.1776	11367.15	3.7940	3.7938	-0.7691	5.91	1.00	-0.750			
0.1799	11514.81	3.7910	3.7909	-0.7681	5.92	1.01	-0.750	0.459	0.938	
0.1822	11663.06	3.7880	3.7879	-0.7613	5.94	1.03	-0.750			
0.1845	11808.52	3.7850	3.7849	-0.7580	5.95	1.04	-0.750			
0.1867	11948.89	3.7820	3.7819	-0.7499	5.96	1.05	-0.750			
0.1889	12091.10	3.7790	3.7791	-0.7553	5.98	1.07	-0.750			
0.1912	12234.69	3.7760	3.7760	-0.7723	6.00	1.09	-0.750			
0.1936	12387.22	3.7730	3.7729	-0.7707	6.01	1.10	-0.750			
0.1959	12536.18	3.7700	3.7700	-0.7696	6.03	1.12	-0.750			
0.1982	12687.77	3.7670	3.7669	-0.7733	6.05	1.14	-0.750			
0.2005	12835.12	3.7640	3.7641	-0.7640	6.06	1.15	-0.750	0.474	0.945	
0.2028	12980.64	3.7610	3.7608	-0.7600	6.08	1.17	-0.750			
0.2050	13122.80	3.7580	3.7580	-0.7559	6.09	1.18	-0.750			
0.2073	13264.41	3.7550	3.7551	-0.7539	6.11	1.20	-0.750			
0.2096	13412.52	3.7520	3.7519	-0.7633	6.12	1.21	-0.750			
0.2118	13557.31	3.7490	3.7491	-0.7779	6.14	1.23	-0.750			
0.2142	13710.11	3.7460	3.7459	-0.7659	6.15	1.24	-0.750			
0.2165	13856.42	3.7430	3.7429	-0.7734	6.16	1.25	-0.750			
0.2188	14005.43	3.7400	3.7400	-0.7747	6.17	1.26	-0.750			
0.2211	14153.36	3.7370	3.7370	-0.7760	6.19	1.28	-0.750	0.470	0.936	
0.2235	14303.78	3.7340	3.7340	-0.7768	6.20	1.29	-0.750			
0.2258	14452.29	3.7310	3.7312	-0.7782	6.21	1.30	-0.750			
0.2281	14599.09	3.7280	3.7280	-0.7830	6.23	1.32	-0.750			
0.2305	14754.12	3.7250	3.7250	-0.7844	6.24	1.33	-0.750			
0.2329	14905.58	3.7220	3.7218	-0.7940	6.25	1.34	-0.750			
0.2353	15061.53	3.7190	3.7190	-0.8008	6.27	1.36	-0.750			
0.2378	15216.68	3.7160	3.7160	-0.8046	6.28	1.37	-0.750			
0.2402	15371.96	3.7130	3.7131	-0.8050	6.30	1.39	-0.750	0.467	0.934	
0.2426	15525.97	3.7100	3.7098	-0.8024	6.31	1.40	-0.750			
0.2450	15678.17	3.7070	3.7070	-0.8028	6.33	1.42	-0.750			
0.2474	15832.26	3.7040	3.7040	-0.8059	6.34	1.43	-0.750			
0.2498	15987.40	3.7010	3.7011	-0.8127	6.36	1.45	-0.750			
0.2522	16143.57	3.6980	3.6980	-0.8346	6.37	1.46	-0.750			
0.2548	16307.14	3.6950	3.6949	-0.8353	6.39	1.48	-0.750			
0.2574	16470.59	3.6920	3.6918	-0.8395	6.41	1.50	-0.750			
0.2599	16631.74	3.6890	3.6888	-0.8381	6.42	1.51	-0.750	0.474	0.943	
0.2624	16793.14	3.6860	3.6859	-0.8410	6.44	1.53	-0.750			
0.2649	16952.67	3.6830	3.6829	-0.8477	6.45	1.54	-0.750			
0.2674	17111.94	3.6800	3.6799	-0.8462	6.46	1.55	-0.750			
0.2699	17273.42	3.6770	3.6771	-0.8729	6.48	1.57	-0.750			
0.2726	17445.25	3.6740	3.6739	-0.8832	6.49	1.58	-0.750			
0.2753	17619.20	3.6710	3.6711	-0.8902	6.50	1.59	-0.750			
0.2780	17791.77	3.6680	3.6679	-0.8876	6.51	1.60	-0.750			
0.2807	17962.33	3.6650	3.6651	-0.8873	6.52	1.61	-0.750	0.471	0.936	
0.2833	18132.87	3.6620	3.6619	-0.8843	6.53	1.62	-0.750			
0.2859	18299.70	3.6590	3.6588	-0.8850	6.53	1.62	-0.750			
0.2885	18466.22	3.6560	3.6561	-0.8873	6.54	1.63	-0.750			
0.2912	18635.93	3.6530	3.6530	-0.9212	6.56	1.65	-0.750			
0.2940	18818.70	3.6500	3.6498	-0.9277	6.57	1.66	-0.750			
0.2969	18999.43	3.6470	3.6468	-0.9313	6.58	1.67	-0.750			
0.2997	19180.49	3.6440	3.6439	-0.9348	6.60	1.69	-0.750	0.472	0.938	
0.3025	19361.72	3.6410	3.6410	-0.9436	6.61	1.70	-0.750			
0.3053	19541.26	3.6380	3.6378	-0.9414	6.62	1.71	-0.750			
0.3081	19716.30	3.6350	3.6349	-0.9376	6.63	1.72	-0.750			
0.3109	19899.03	3.6320	3.6320	-0.9617	6.63	1.72	-0.750			
0.3139	20088.44	3.6290	3.6289	-0.9723	6.65	1.74	-0.750			
0.3168	20277.99	3.6260	3.6258	-0.9801	6.67	1.76	-0.750			
0.3198	20466.18	3.6230	3.6229	-0.9849	6.69	1.78	-0.750	0.470	0.932	
0.3227	20654.69	3.6200	3.6199	-0.9870	6.71	1.80	-0.750			
0.3257	20845.22	3.6170	3.6169	-0.9963	6.72	1.81	-0.750			
0.3287	21033.62	3.6140	3.6140	-0.9951	6.73	1.82	-0.750			
0.3317	21227.26	3.6110	3.6110	-1.0213	6.75	1.84	-0.750			
0.3348	21429.39	3.6080	3.6079	-1.0269	6.76	1.85	-0.750			
0.3380	21628.83	3.6050	3.6049	-1.0240	6.77	1.86	-0.750			
0.3410	21825.28	3.6020	3.6021	-1.0285	6.79	1.88	-0.750	0.471	0.939	
0.3441	22022.23	3.5990	3.5990	-1.0331	6.81	1.90	-0.750			
0.3472	22218.43	3.5960	3.5958	-1.0393	6.82	1.91	-0.750			
0.3502	22412.84	3.5930	3.5932	-1.0536	6.84	1.93	-0.750			
0.3535	22624.41	3.5900	3.5899	-1.0840	6.86	1.95	-0.750			
0.3568	22837.21	3.5870	3.5868	-1.0886	6.87	1.96	-0.750			
0.3602	23050.23	3.5840	3.5841	-1.0931	6.89	1.98	-0.750	0.477	0.944	
0.3634	23260.28	3.5810	3.5809	-1.0991	6.90	1.99	-0.750			
0.3666	23463.67	3.5780	3.5780	-1.1176	6.92	2.01	-0.750			
0.3700	23676.85	3.5750	3.5749	-1.1137	6.93	2.02	-0.750			
0.3734	23896.21	3.5720	3.5719	-1.1272	6.94	2.03	-0.750			
0.3768	24117.06	3.5690	3.5689	-1.1430	6.96	2.05	-0.750			
0.3803	24338.17	3.5660	3.5660	-1.1454	6.98	2.07	-0.750	0.474	0.941	
0.3838	24560.06	3.5630	3.5628	-1.1510	6.99	2.08	-0.750			
0.3872	24779.31	3.5600	3.5602	-1.1454	7.01	2.10	-0.750			
0.3906	24999.71	3.5570	3.5569	-1.1703	7.02	2.11	-0.750			
0.3942	25228.43	3.5540	3.5540	-1.1774	7.03	2.12	-0.750			
0.3978	25458.39	3.5510	3.5507	-1.1825	7.04	2.13	-0.750			
0.4013	25686.35	3.5480	3.5481	-1.1908	7.05	2.14	-0.750	0.476	0.939	
0.4049	25912.78	3.5450	3.5449	-1.1874	7.06	2.15	-0.750			
0.4085	26140.96	3.5420	3.5419	-1.1954	7.06	2.15	-0.750			
0.4119	26362.03	3.5390	3.5389	-1.1965	7.07	2.16	-0.750			
0.4157	26603.00	3.5360	3.5359	-1.2285	7.08	2.17	-0.750			
0.4194	26839.90	3.5330	3.5329	-1.2294	7.09	2.18	-0.750	0.466	0.931	
0.4231	27077.58	3.5300	3.5298	-1.2330	7.10	2.19	-0.750			
0.4267	27309.93	3.5270	3.5271	-1.2618	7.12	2.21	-0.750			
0.4305	27553.26	3.5240	3.5239	-1.2708	7.13	2.22	-0.750			
0.4345	27808.99	3.5210	3.5207	-1.2771	7.14	2.23	-0.750			
0.4383	28049.14	3.5180	3.5178	-1.2596	7.15	2.24	-0.750			
0.4421	28295.06	3.5150	3.5150	-1.2572	7.17	2.26	-0.750	0.465	0.937	
0.4458	28533.38	3.5120	3.5118	-1.2736	7.18	2.27	-0.750			
0.4496	28777.30	3.5090	3.5090	-1.2698	7.20	2.29	-0.750			
0.4534	29017.39	3.5060	3.5058	-1.2722	7.21	2.30	-0.750			
0.4573	29268.02	3.5030	3.5026	-1.2723	7.22	2.31	-0.750			
0.4611	29511.51	3.5000	3.5001	-1.2603	7.23	2.32	-0.750	0.469	0.935	
0.4649	29751.00	3.4970	3.4969	-1.2537	7.24	2.33	-0.750			
0.4686	29991.61	3.4940	3.4939	-1.2725	7.26	2.35	-0.750			
0.4723	30227.93	3.4910	3.4908	-1.2554	7.28	2.37	-0.750			
0.4763	30481.19	3.4880	3.4878	-1.2725	7.29	2.38	-0.750			
0.4801	30729.23	3.4850	3.4849	-1.2769	7.31	2.40	-0.750	0.455	0.923	
0.4840	30973.95	3.4820	3.4818	-1.2658	7.32	2.41	-0.750			
0.4877	31213.46	3.4790	3.4791	-1.2753	7.33	2.42	-0.750			
0.4915	31454.91	3.4760	3.4759	-1.2532	7.34	2.43	-0.750			
0.4953	31698.42	3.4730	3.4729	-1.2548	7.36	2.45	-0.750			
0.4991	31942.86	3.4700	3.4698	-1.2497	7.37	2.46	-0.750	0.456	0.927	
0.5028	32180.88	3.4670	3.4669	-1.2415	7.38	2.47	-0.750			
0.5064	32409.63	3.4640	3.4639	-1.2488	7.39	2.48	-0.750			
0.5101	32646.32	3.4610	3.4609	-1.2270	7.40	2.49	-0.750			
0.5139	32887.66	3.4580	3.4578	-1.2288	7.42	2.51	-0.750			
0.5176	33125.95	3.4550	3.4549	-1.2163	7.43	2.52	-0.750			
0.5212	33359.53	3.4520	3.4521	-1.2028	7.45	2.54	-0.750	0.467	0.931	
0.5248	33587.50	3.4490	3.4490	-1.1818	7.46	2.55	-0.750			
0.5282	33807.81	3.4460	3.4459	-1.1988	7.47	2.56	-0.750			
0.5319	34040.66	3.4430	3.4428	-1.1980	7.49	2.58	-0.750			
0.5355	34274.43	3.4400	3.4397	-1.1878	7.50	2.59	-0.750			
0.5391	34500.94	3.4370	3.4368	-1.1708	7.51	2.60	-0.750	0.470	0.935	
0.5426	34727.83	3.4340	3.4339	-1.1586	7.52	2.61	-0.750			
0.5460	34945.97	3.4310	3.4308	-1.1433	7.52	2.61	-0.750			
0.5492	35151.15	3.4280	3.4279	-1.1415	7.53	2.62	-0.750			
0.5528	35377.38	3.4250	3.4249	-1.1448	7.55	2.64	-0.750			
0.5563	35604.78	3.4220	3.4218	-1.1318	7.57	2.66	-0.750			
0.5597	35823.98	3.4190	3.4189	-1.1191	7.59	2.68	-0.750	0.472	0.937	
0.5630	36033.70	3.4160	3.4160	-1.1058	7.60	2.69	-0.750			
0.5663	36242.20	3.4130	3.4128	-1.0840	7.62	2.71	-0.750			
0.5694	36443.50	3.4100	3.4099	-1.0894	7.63	2.72	-0.750			
0.5728	36657.16	3.4070	3.4069	-1.0791	7.64	2.73	-0.750			
0.5761	36868.48	3.4040	3.4038	-1.0708	7.66	2.75	-0.750			
0.5793	37073.85	3.4010	3.4008	-1.0470	7.67	2.76	-0.750	0.474	0.939	
0.5824	37271.47	3.3980	3.3979	-1.0245	7.69	2.78	-0.750			
0.5853	37461.63	3.3950	3.3949	-0.9969	7.70	2.79	-0.750			
0.5883	37650.31	3.3920	3.3920	-0.9899	7.71	2.80	-0.750			
0.5913	37840.63	3.3890	3.3889	-0.9979	7.73	2.82	-0.750			
0.5943	38036.77	3.3860	3.3858	-0.9898	7.74	2.83	-0.750			
0.5973	38229.35	3.3830	3.3828	-0.9711	7.75	2.84	-0.750			
0.6002	38413.50	3.3800	3.3800	-0.9475	7.76	2.85	-0.750	0.466	0.937	
0.6030	38592.60	3.3770	3.3767	-0.9280	7.78	2.87	-0.750			
0.6057	38765.71	3.3740	3.3739	-0.9052	7.79	2.88	-0.750			
0.6083	38932.92	3.3710	3.3708	-0.8923	7.81	2.90	-0.750			
0.6111	39107.26	3.3680	3.3680	-0.8928	7.82	2.91	-0.750			
0.6138	39282.46	3.3650	3.3649	-0.8858	7.84	2.93	-0.750			
0.6164	39451.81	3.3620	3.3618	-0.8689	7.85	2.94	-0.750			
0.6190	39617.91	3.3590	3.3588	-0.8465	7.87	2.96	-0.750			
0.6215	39776.95	3.3560	3.3561	-0.8239	7.88	2.97	-0.750	0.465	0.931	
0.6240	39933.04	3.3530	3.3530	-0.8075	7.90	2.99	-0.750			
0.6263	40081.18	3.3500	3.3499	-0.7844	7.91	3.00	-0.750			
0.6285	40220.95	3.3470	3.3472	-0.8208	7.92	3.01	-0.750			
0.6312	40396.96	3.3440	3.3436	-0.8224	7.94	3.03	-0.750			
0.6338	40563.45	3.3410	3.3402	-0.7886	7.96	3.05	-0.750			
0.6363	40720.55	3.3380	3.3370	-0.7650	7.97	3.06	-0.750			
0.6385	40862.14	3.3350	3.3340	-0.7178	7.99	3.08	-0.750			
0.6404	40988.12	3.3320	3.3313	-0.6809	8.00	3.09	-0.750	0.474	0.936	
0.6423	41106.84	3.3290	3.3287	-0.6496	8.01	3.10	-0.750			
0.6438	41205.72	3.3260	3.3265	-0.6225	8.02	3.11	-0.750			
0.6462	41358.06	3.3230	3.3230	-0.6687	8.04	3.13	-0.750			
0.6482	41483.12	3.3200	3.3199	-0.6537	8.05	3.14	-0.750			
0.6501	41609.26	3.3170	3.3172	-0.6473	8.06	3.15	-0.750			
0.6521	41731.62	3.3140	3.3140	-0.6365	8.07	3.16	-0.750			
0.6539	41850.78	3.3110	3.3110	-0.6443	8.09	3.18	-0.750			
0.6559	41975.75	3.3080	3.3078	-0.6360	8.10	3.19	-0.750			
0.6579	42102.50	3.3050	3.3047	-0.6199	8.11	3.20	-0.750			
0.6597	42221.07	3.3020	3.3017	-0.6002	8.12	3.21	-0.750	0.452	0.924	
0.6615	42334.90	3.2990	3.2991	-0.5851	8.13	3.22	-0.750			
0.6632	42444.38	3.2960	3.2958	-0.5649	8.15	3.24	-0.750			
0.6648	42545.11	3.2930	3.2929	-0.5461	8.16	3.25	-0.750			
0.6664	42648.50	3.2900	3.2899	-0.5450	8.18	3.27	-0.750			
0.6680	42752.93	3.2870	3.2871	-0.5420	8.19	3.28	-0.750			
0.6696	42857.59	3.2840	3.2840	-0.5332	8.21	3.30	-0.750			
0.6713	42960.02	3.2810	3.2809	-0.5225	8.22	3.31	-0.750			
0.6728	43058.75	3.2780	3.2782	-0.5131	8.24	3.33	-0.750			
0.6743	43155.63	3.2750	3.2749	-0.5035	8.24	3.33	-0.750			
0.6758	43250.31	3.2720	3.2719	-0.5159	8.25	3.34	-0.750			
0.6774	43352.16	3.2690	3.2688	-0.5010	8.26	3.35	-0.750			
0.6789	43450.85	3.2660	3.2656	-0.4937	8.28	3.37	-0.750			
0.6804	43544.05	3.2630	3.2625	-0.4793	8.29	3.38	-0.750	0.460	0.916	
0.6818	43636.03	3.2600	3.2598	-0.4653	8.30	3.39	-0.750			
0.6831	43720.86	3.2570	3.2567	-0.4504	8.32	3.41	-0.750			
0.6844	43800.40	3.2540	3.2540	-0.4333	8.33	3.42	-0.750			
0.6857	43884.34	3.2510	3.2513	-0.4335	8.34	3.43	-0.750			
0.6870	43969.17	3.2480	3.2480	-0.4354	8.34	3.43	-0.750			
0.6883	44052.82	3.2450	3.2450	-0.4298	8.35	3.44	-0.750			
0.6896	44134.61	3.2420	3.2420	-0.4237	8.36	3.45	-0.750			
0.6909	44215.70	3.2390	3.2390	-0.4187	8.38	3.47	-0.750			
0.6921	44295.20	3.2360	3.2360	-0.4120	8.39	3.48	-0.750			
0.6933	44374.37	3.2330	3.2329	-0.4052	8.40	3.49	-0.750			
0.6945	44451.11	3.2300	3.2300	-0.3991	8.42	3.51	-0.750			
0.6957	44526.76	3.2270	3.2270	-0.3921	8.43	3.52	-0.750			
0.6969	44601.94	3.2240	3.2241	-0.4062	8.44	3.53	-0.750			
0.6982	44683.61	3.2210	3.2207	-0.3945	8.45	3.54	-0.750			
0.6994	44759.96	3.2180	3.2175	-0.3838	8.46	3.55	-0.750			
0.7005	44833.02	3.2150	3.2144	-0.3724	8.47	3.56	-0.750	0.464	0.914	
0.7016	44904.16	3.2120	3.2119	-0.3623	8.48	3.57	-0.750			
0.7026	44969.56	3.2090	3.2088	-0.3532	8.49	3.58	-0.750			
0.7036	45029.55	3.2060	3.2060	-0.3306	8.50	3.59	-0.750			
0.7047	45097.78	3.2030	3.2031	-0.3450	8.52	3.61	-0.750			
0.7057	45166.86	3.2000	3.2000	-0.3451	8.53	3.62	-0.750			
0.7068	45233.56	3.1970	3.1970	-0.3430	8.54	3.63	-0.750			
0.7078	45298.78	3.1940	3.1940	-0.3385	8.55	3.64	-0.750			
0.7088	45362.06	3.1910	3.1911	-0.3343	8.56	3.65	-0.750			
0.7098	45426.08	3.1880	3.1879	-0.3307	8.57	3.66	-0.750			
0.7108	45489.33	3.1850	3.1850	-0.3276	8.58	3.67	-0.750			
0.7118	45552.61	3.1820	3.1820	-0.3229	8.59	3.68	-0.750			
0.7127	45614.53	3.1790	3.1791	-0.3187	8.61	3.70	-0.750			
0.7137	45675.06	3.1760	3.1760	-0.3139	8.62	3.71	-0.750			
0.7146	45734.94	3.1730	3.1730	-0.3088	8.63	3.72	-0.750			
0.7153	45782.08	3.1700	3.1705	-0.3608	8.64	3.73	-0.750			
0.7166	45859.44	3.1670	3.1667	-0.3354	8.66	3.75	-0.750			
0.7177	45930.52	3.1640	3.1628	-0.3214	8.67	3.76	-0.750			
0.7186	45991.39	3.1610	3.1597	-0.3128	8.69	3.78	-0.750			
0.7196	46053.32	3.1580	3.1567	-0.2985	8.70	3.79	-0.750			
0.7204	46107.17	3.1550	3.1536	-0.2819	8.71	3.80	-0.750	0.460	0.907	
0.7211	46149.78	3.1520	3.1527	-0.2589	8.72	3.81	-0.750			
0.7218	46198.38	3.1490	3.1491	-0.2879	8.73	3.82	-0.750			
0.7227	46252.08	3.1460	3.1459	-0.2804	8.74	3.83	-0.750			
0.7235	46305.04	3.1430	3.1429	-0.2760	8.75	3.84	-0.750			
0.7243	46356.12	3.1400	3.1400	-0.2699	8.75	3.84	-0.750			
0.7251	46408.15	3.1370	3.1371	-0.2706	8.76	3.85	-0.750			
0.7260	46461.10	3.1340	3.1340	-0.2704	8.77	3.86	-0.750			
0.7268	46512.86	3.1310	3.1309	-0.2684	8.78	3.87	-0.750			
0.7276	46564.08	3.1280	3.1281	-0.2666	8.79	3.88	-0.750			
0.7284	46615.74	3.1250	3.1250	-0.2652	8.80	3.89	-0.750			
0.7292	46666.36	3.1220	3.1220	-0.2624	8.81	3.90	-0.750			
0.7299	46716.51	3.1190	3.1190	-0.2603	8.82	3.91	-0.750			
0.7307	46766.02	3.1160	3.1160	-0.2584	8.83	3.92	-0.750			
0.7315	46815.49	3.1130	3.1129	-0.2562	8.84	3.93	-0.750			
0.7323	46864.37	3.1100	3.1100	-0.2539	8.85	3.94	-0.750			
0.7330	46912.90	3.1070	3.1071	-0.2520	8.85	3.94	-0.750			
0.7338	46961.25	3.1040	3.1040	-0.2497	8.86	3.95	-0.750			
0.7345	47009.25	3.1010	3.1010	-0.2477	8.87	3.96	-0.750			
0.7353	47056.23	3.0980	3.0980	-0.2458	8.88	3.97	-0.750			
0.7360	47103.31	3.0950	3.0950	-0.2439	8.89	3.98	-0.750			
0.7367	47150.22	3.0920	3.0920	-0.2422	8.90	3.99	-0.750			
0.7374	47196.35	3.0890	3.0890	-0.2398	8.91	4.00	-0.750			
0.7382	47243.46	3.0860	3.0859	-0.2511	8.93	4.02	-0.750			
0.7390	47295.86	3.0830	3.0825	-0.2471	8.94	4.03	-0.750			
0.7398	47344.38	3.0800	3.0792	-0.2450	8.95	4.04	-0.750			
0.7405	47390.36	3.0770	3.0761	-0.2352	8.96	4.05	-0.750	0.462	0.901	
0.7412	47435.33	3.0740	3.0745	-0.2305	8.97	4.06	-0.750			
0.7419	47479.65	3.0710	3.0704	-0.2210	8.99	4.08	-0.750			
0.7424	47516.74	3.0680	3.0678	-0.2157	9.00	4.09	-0.750			
0.7431	47555.44	3.0650	3.0650	-0.2094	9.01	4.10	-0.750			
0.7437	47598.05	3.0620	3.0621	-0.2147	9.02	4.11	-0.750			
0.7444	47639.52	3.0590	3.0591	-0.2173	9.02	4.11	-0.750			
0.7451	47683.40	3.0560	3.0561	-0.2175	9.03	4.12	-0.750			
0.7457	47724.72	3.0530	3.0530	-0.2169	9.04	4.13	-0.750			
0.7463	47766.00	3.0500	3.0500	-0.2155	9.05	4.14	-0.750			
0.7470	47807.33	3.0470	3.0470	-0.2149	9.06	4.15	-0.750			
0.7476	47848.06	3.0440	3.0439	-0.2152	9.06	4.15	-0.750			
0.7483	47890.03	3.0410	3.0410	-0.2133	9.07	4.16	-0.750			
0.7489	47931.05	3.0380	3.0379	-0.2125	9.08	4.17	-0.750			
0.7496	47971.54	3.0350	3.0352	-0.2112	9.09	4.18	-0.750			
0.7502	48012.20	3.0320	3.0319	-0.2098	9.10	4.19	-0.750			
0.7508	48051.80	3.0290	3.0289	-0.2086	9.11	4.20	-0.750			
0.7514	48092.23	3.0260	3.0259	-0.2062	9.12	4.21	-0.750			
0.7521	48131.36	3.0230	3.0230	-0.2043	9.13	4.22	-0.750			
0.7527	48170.46	3.0200	3.0201	-0.2031	9.14	4.23	-0.750			
0.7533	48210.24	3.0170	3.0171	-0.2007	9.15	4.24	-0.750			
0.7539	48248.34	3.0140	3.0138	-0.1973	9.16	4.25	-0.750			
0.7545	48285.82	3.0110	3.0110	-0.1939	9.17	4.26	-0.750			
0.7550	48322.74	3.0080	3.0081	-0.1908	9.18	4.27	-0.750			
0.7556	48358.91	3.0050	3.0050	-0.1889	9.19	4.28	-0.751			
0.7562	48394.49	3.0020	3.0020	-0.1770	9.20	4.29	-0.751			
