Ah_balance (normalized)	Ah_balance (mAh)	Voltage - fit (V)	Voltage -  interpolate (V)	dQ/dV (1/V)	Temperature (°C)	Temperature - diff (°C)	Current (C)	R_DC 0ms (mOhm)	R_DC 50ms (mOhm)	R_DC 50 ms PEC (mOhm)
0.0979	6262.67	4.1970	4.1992	0.5795	8.35	2.35	0.750			
0.1000	6396.81	4.1940	4.1963	0.7407	8.34	2.34	0.750			
0.1025	6557.54	4.1910	4.1926	0.7971	8.34	2.34	0.750			
0.1049	6715.81	4.1880	4.1893	0.8030	8.33	2.33	0.750			
0.1077	6895.59	4.1850	4.1849	0.8276	8.33	2.33	0.750			
0.1099	7032.96	4.1820	4.1820	0.7558	8.33	2.33	0.750			
0.1120	7167.01	4.1790	4.1791	0.6896	8.32	2.32	0.750			
0.1141	7300.50	4.1760	4.1758	0.6919	8.32	2.32	0.750			
0.1161	7432.55	4.1730	4.1730	0.6894	8.31	2.31	0.750			
0.1182	7562.95	4.1700	4.1701	0.6883	8.31	2.31	0.750			
0.1202	7695.33	4.1670	4.1669	0.6894	8.30	2.30	0.750			
0.1223	7827.25	4.1640	4.1641	0.6992	8.29	2.29	0.750			
0.1244	7960.37	4.1610	4.1610	0.7034	8.29	2.29	0.750			
0.1265	8096.90	4.1580	4.1579	0.7127	8.28	2.28	0.750			
0.1287	8234.25	4.1550	4.1550	0.7200	8.28	2.28	0.750			
0.1309	8375.28	4.1520	4.1521	0.7264	8.27	2.27	0.750			
0.1331	8516.67	4.1490	4.1490	0.7331	8.27	2.27	0.750			
0.1353	8657.14	4.1460	4.1460	0.7387	8.27	2.27	0.750			
0.1375	8799.71	4.1430	4.1431	0.7367	8.26	2.26	0.750			
0.1397	8943.11	4.1400	4.1399	0.7345	8.26	2.26	0.750			
0.1419	9083.35	4.1370	4.1371	0.7322	8.25	2.25	0.750			
0.1441	9223.97	4.1340	4.1341	0.7272	8.24	2.24	0.750			
0.1463	9361.44	4.1310	4.1310	0.7357	8.24	2.24	0.750			
0.1485	9501.17	4.1280	4.1280	0.7423	8.23	2.23	0.750			
0.1507	9643.91	4.1250	4.1249	0.7448	8.22	2.22	0.750			
0.1530	9790.30	4.1220	4.1221	0.7540	8.22	2.22	0.750			
0.1553	9938.80	4.1190	4.1190	0.7591	8.21	2.21	0.750			
0.1576	10084.33	4.1160	4.1160	0.7547	8.21	2.21	0.750			
0.1598	10228.69	4.1130	4.1131	0.7455	8.20	2.20	0.750			
0.1620	10370.73	4.1100	4.1100	0.7485	8.20	2.20	0.750			
0.1643	10512.31	4.1070	4.1070	0.7470	8.19	2.19	0.750			
0.1665	10656.04	4.1040	4.1040	0.7564	8.18	2.18	0.750			
0.1688	10801.92	4.1010	4.1010	0.7623	8.18	2.18	0.750			
0.1711	10948.95	4.0980	4.0980	0.7679	8.17	2.17	0.750			
0.1734	11097.02	4.0950	4.0950	0.7780	8.17	2.17	0.750			
0.1757	11247.28	4.0920	4.0921	0.7871	8.16	2.16	0.750			
0.1781	11399.24	4.0890	4.0890	0.7902	8.16	2.16	0.750			
0.1805	11554.97	4.0860	4.0859	0.7846	8.15	2.15	0.750			
0.1829	11703.93	4.0830	4.0831	0.7850	8.15	2.15	0.750			
0.1852	11853.83	4.0800	4.0801	0.7880	8.14	2.14	0.750			
0.1876	12003.56	4.0770	4.0769	0.7900	8.13	2.13	0.750			
0.1899	12152.53	4.0740	4.0739	0.7918	8.13	2.13	0.750			
0.1923	12306.54	4.0710	4.0711	0.7960	8.12	2.12	0.750			
0.1947	12461.35	4.0680	4.0680	0.8103	8.12	2.12	0.750			
0.1972	12617.74	4.0650	4.0651	0.8233	8.11	2.11	0.750			
0.1996	12776.03	4.0620	4.0620	0.8227	8.10	2.10	0.750			
0.2021	12935.21	4.0590	4.0589	0.8261	8.10	2.10	0.750			
0.2046	13096.41	4.0560	4.0560	0.8256	8.09	2.09	0.750			
0.2071	13254.84	4.0530	4.0530	0.8276	8.08	2.08	0.750			
0.2096	13415.65	4.0500	4.0500	0.8202	8.07	2.07	0.750			
0.2120	13569.96	4.0470	4.0470	0.8146	8.06	2.06	0.750			
0.2144	13723.84	4.0440	4.0440	0.8136	8.05	2.05	0.750			
0.2169	13882.27	4.0410	4.0411	0.8213	8.04	2.04	0.750			
0.2193	14038.30	4.0380	4.0379	0.8321	8.04	2.04	0.750			
0.2219	14199.06	4.0350	4.0349	0.8418	8.03	2.03	0.750			
0.2244	14360.76	4.0320	4.0321	0.8534	8.03	2.03	0.750			
0.2270	14528.62	4.0290	4.0290	0.8690	8.02	2.02	0.750			
0.2296	14696.24	4.0260	4.0260	0.8643	8.01	2.01	0.750			
0.2322	14863.23	4.0230	4.0230	0.8671	8.00	2.00	0.750			
0.2348	15029.95	4.0200	4.0201	0.8707	7.99	1.99	0.750			
0.2374	15195.78	4.0170	4.0169	0.8711	7.99	1.99	0.750			
0.2401	15364.31	4.0140	4.0139	0.8762	7.98	1.98	0.750			
0.2427	15532.46	4.0110	4.0111	0.8755	7.97	1.97	0.750			
0.2453	15701.60	4.0080	4.0080	0.8801	7.96	1.96	0.750			
0.2480	15871.51	4.0050	4.0049	0.8839	7.95	1.95	0.750			
0.2506	16039.44	4.0020	4.0020	0.8867	7.94	1.94	0.750			
0.2533	16210.32	3.9990	3.9990	0.8879	7.93	1.93	0.750			
0.2560	16382.02	3.9960	3.9960	0.8882	7.93	1.93	0.750			
0.2586	16552.34	3.9930	3.9931	0.8973	7.92	1.92	0.750			
0.2613	16724.06	3.9900	3.9901	0.9075	7.91	1.91	0.750			
0.2640	16898.60	3.9870	3.9868	0.9129	7.90	1.90	0.750			
0.2668	17075.01	3.9840	3.9840	0.9157	7.89	1.89	0.750			
0.2696	17251.40	3.9810	3.9810	0.9229	7.88	1.88	0.750			
0.2724	17432.13	3.9780	3.9781	0.9326	7.87	1.87	0.750			
0.2752	17610.99	3.9750	3.9750	0.9291	7.86	1.86	0.750			
0.2779	17788.35	3.9720	3.9720	0.9292	7.86	1.86	0.750			
0.2807	17966.51	3.9690	3.9691	0.9269	7.85	1.85	0.750			
0.2835	18145.47	3.9660	3.9660	0.9317	7.84	1.84	0.750			
0.2863	18324.76	3.9630	3.9630	0.9354	7.83	1.83	0.750			
0.2891	18502.41	3.9600	3.9598	0.9404	7.82	1.82	0.750			
0.2919	18683.82	3.9570	3.9570	0.9411	7.81	1.81	0.750			
0.2948	18865.19	3.9540	3.9540	0.9510	7.80	1.80	0.750			
0.2976	19048.25	3.9510	3.9510	0.9584	7.79	1.79	0.750			
0.3005	19232.62	3.9480	3.9480	0.9649	7.78	1.78	0.750			
0.3034	19418.33	3.9450	3.9450	0.9781	7.77	1.77	0.750			
0.3063	19604.83	3.9420	3.9420	0.9957	7.76	1.76	0.750			
0.3093	19797.44	3.9390	3.9390	1.0154	7.75	1.75	0.750			
0.3125	19998.80	3.9360	3.9358	1.0316	7.74	1.74	0.750			
0.3156	20199.36	3.9330	3.9330	1.0292	7.73	1.73	0.750			
0.3187	20399.44	3.9300	3.9301	1.0411	7.72	1.72	0.750			
0.3219	20599.27	3.9270	3.9271	1.0426	7.71	1.71	0.750			
0.3250	20797.51	3.9240	3.9239	1.0413	7.70	1.70	0.750			
0.3281	20996.59	3.9210	3.9210	1.0410	7.68	1.68	0.750			
0.3312	21194.44	3.9180	3.9181	1.0506	7.67	1.67	0.750			
0.3343	21398.21	3.9150	3.9150	1.0675	7.66	1.66	0.750			
0.3376	21606.11	3.9120	3.9120	1.0865	7.65	1.65	0.750			
0.3408	21813.79	3.9090	3.9090	1.0916	7.63	1.63	0.750			
0.3441	22024.73	3.9060	3.9061	1.1115	7.62	1.62	0.750			
0.3475	22240.50	3.9030	3.9029	1.1303	7.61	1.61	0.750			
0.3510	22462.48	3.9000	3.8998	1.1361	7.59	1.59	0.750			
0.3544	22679.36	3.8970	3.8970	1.1425	7.58	1.58	0.750			
0.3578	22898.46	3.8940	3.8942	1.1546	7.57	1.57	0.750			
0.3613	23120.51	3.8910	3.8911	1.1705	7.55	1.55	0.750			
0.3648	23344.43	3.8880	3.8880	1.1815	7.54	1.54	0.750			
0.3683	23572.95	3.8850	3.8850	1.2047	7.53	1.53	0.750			
0.3720	23810.01	3.8820	3.8820	1.2100	7.51	1.51	0.750			
0.3757	24047.06	3.8790	3.8789	1.2170	7.50	1.50	0.750			
0.3793	24277.68	3.8760	3.8762	1.2247	7.49	1.49	0.750			
0.3830	24510.97	3.8730	3.8729	1.2449	7.47	1.47	0.750	0.376	0.812	
0.3867	24746.58	3.8700	3.8700	1.2650	7.46	1.46	0.750			
0.3905	24992.41	3.8670	3.8669	1.2997	7.44	1.44	0.750			
0.3945	25247.47	3.8640	3.8641	1.3333	7.42	1.42	0.750			
0.3986	25511.14	3.8610	3.8611	1.3569	7.40	1.40	0.750			
0.4027	25774.75	3.8580	3.8580	1.3760	7.39	1.39	0.750			
0.4069	26039.87	3.8550	3.8550	1.3932	7.37	1.37	0.750			
0.4110	26306.89	3.8520	3.8520	1.4021	7.35	1.35	0.750			
0.4153	26577.33	3.8490	3.8490	1.4127	7.34	1.34	0.750			
0.4195	26848.15	3.8460	3.8461	1.4369	7.32	1.32	0.750			
0.4238	27124.50	3.8430	3.8431	1.4664	7.30	1.30	0.750			
0.4282	27407.10	3.8400	3.8398	1.5017	7.28	1.28	0.750			
0.4328	27696.19	3.8370	3.8369	1.5317	7.26	1.26	0.750			
0.4375	28000.41	3.8340	3.8340	1.5405	7.24	1.24	0.750			
0.4423	28305.94	3.8310	3.8311	1.5650	7.21	1.21	0.750			
0.4469	28602.39	3.8280	3.8281	1.5627	7.19	1.19	0.750			
0.4516	28900.48	3.8250	3.8246	1.6022	7.17	1.17	0.750			
0.4563	29203.27	3.8220	3.8219	1.6211	7.15	1.15	0.750			
0.4612	29518.66	3.8190	3.8188	1.6339	7.13	1.13	0.750			
0.4663	29841.19	3.8160	3.8161	1.6635	7.11	1.11	0.750			
0.4714	30167.62	3.8130	3.8132	1.6947	7.09	1.09	0.750			
0.4765	30493.95	3.8100	3.8097	1.7040	7.06	1.06	0.750			
0.4815	30815.83	3.8070	3.8070	1.7166	7.04	1.04	0.750			
0.4867	31150.18	3.8040	3.8041	1.7572	7.01	1.01	0.750			
0.4921	31491.26	3.8010	3.8011	1.7862	6.99	0.99	0.750			
0.4975	31842.57	3.7980	3.7981	1.7885	6.96	0.96	0.750			
0.5029	32186.33	3.7950	3.7949	1.8109	6.93	0.93	0.750			
0.5084	32535.86	3.7920	3.7917	1.8139	6.91	0.91	0.750			
0.5138	32882.32	3.7890	3.7888	1.8242	6.88	0.88	0.750			
0.5192	33225.82	3.7860	3.7861	1.8562	6.86	0.86	0.750			
0.5247	33581.05	3.7830	3.7828	1.9072	6.83	0.83	0.750			
0.5305	33949.81	3.7800	3.7798	1.9525	6.80	0.80	0.750			
0.5365	34338.41	3.7770	3.7771	1.9951	6.78	0.78	0.750			
0.5427	34731.17	3.7740	3.7741	2.0479	6.75	0.75	0.750			
0.5488	35122.44	3.7710	3.7710	2.1019	6.72	0.72	0.750			
0.5551	35523.43	3.7680	3.7679	2.1400	6.69	0.69	0.750			
0.5616	35941.61	3.7650	3.7649	2.2090	6.66	0.66	0.750			
0.5683	36372.86	3.7620	3.7622	2.3082	6.63	0.63	0.750			
0.5754	36822.54	3.7590	3.7590	2.4085	6.60	0.60	0.750			
0.5827	37294.24	3.7560	3.7560	2.5250	6.56	0.56	0.750			
0.5906	37795.70	3.7530	3.7530	2.6443	6.52	0.52	0.750			
0.5987	38314.26	3.7500	3.7500	2.8460	6.49	0.49	0.750			
0.6074	38875.94	3.7470	3.7468	2.9551	6.45	0.45	0.750			
0.6167	39467.65	3.7440	3.7441	3.0752	6.41	0.41	0.750			
0.6260	40066.88	3.7410	3.7409	3.1601	6.38	0.38	0.750			
0.6357	40681.93	3.7380	3.7378	3.1037	6.34	0.34	0.750			
0.6451	41286.18	3.7350	3.7351	2.9543	6.30	0.30	0.750			
0.6535	41826.19	3.7320	3.7319	2.6651	6.27	0.27	0.750			
0.6609	42298.25	3.7290	3.7291	2.3035	6.24	0.24	0.750			
0.6673	42704.29	3.7260	3.7262	2.0111	6.22	0.22	0.750			
0.6728	43061.63	3.7230	3.7230	1.7719	6.21	0.21	0.750			
0.6776	43365.93	3.7200	3.7198	1.5534	6.20	0.20	0.750			
0.6817	43625.75	3.7170	3.7171	1.3967	6.18	0.18	0.750			
0.6855	43874.44	3.7140	3.7140	1.2961	6.16	0.16	0.750			
0.6892	44107.50	3.7110	3.7105	1.2088	6.15	0.15	0.750			
0.6926	44327.06	3.7080	3.7081	1.1607	6.14	0.14	0.750			
0.6960	44542.63	3.7050	3.7052	1.1348	6.13	0.13	0.750			
0.6993	44757.16	3.7020	3.7019	1.1111	6.12	0.12	0.750			
0.7026	44968.34	3.6990	3.6988	1.0840	6.11	0.11	0.750			
0.7059	45176.26	3.6960	3.6961	1.0651	6.10	0.10	0.750			
0.7091	45381.79	3.6930	3.6931	1.0488	6.09	0.09	0.750			
0.7122	45583.89	3.6900	3.6900	1.0253	6.08	0.08	0.750			
0.7152	45774.39	3.6870	3.6870	0.9962	6.08	0.08	0.750			
0.7181	45960.06	3.6840	3.6841	0.9700	6.07	0.07	0.750			
0.7210	46146.19	3.6810	3.6809	0.9569	6.06	0.06	0.750			
0.7239	46328.43	3.6780	3.6781	0.9460	6.06	0.06	0.750			
0.7267	46509.44	3.6750	3.6748	0.9268	6.05	0.05	0.750			
0.7295	46686.97	3.6720	3.6720	0.9036	6.04	0.04	0.750			
0.7322	46857.93	3.6690	3.6692	0.8894	6.04	0.04	0.750			
0.7347	47022.86	3.6660	3.6661	0.8816	6.03	0.03	0.750			
0.7374	47191.42	3.6630	3.6627	0.8804	6.02	0.02	0.750			
0.7400	47357.76	3.6600	3.6600	0.8753	6.02	0.02	0.750			
0.7426	47527.12	3.6570	3.6571	0.8679	6.01	0.01	0.750			
0.7453	47697.47	3.6540	3.6540	0.8790	6.01	0.01	0.750			
0.7479	47867.22	3.6510	3.6511	0.8722	6.01	0.01	0.750			
0.7506	48035.44	3.6480	3.6478	0.8458	6.00	0.00	0.750			
0.7531	48198.40	3.6450	3.6451	0.8127	6.00	0.00	0.750			
0.7556	48357.43	3.6420	3.6421	0.7695	6.00	0.00	0.750			
0.7579	48505.90	3.6390	3.6391	0.6881	6.00	0.00	0.750			
0.7599	48636.73	3.6360	3.6360	0.5943	6.00	0.00	0.750			
0.7616	48741.69	3.6330	3.6330	0.4934	6.00	0.00	0.750			
0.7627	48812.82	3.6300	3.6304	0.4148	6.00	0.00	0.750			
0.7638	48884.30	3.6270	3.6270	0.3413	6.00	0.00	0.750			
0.7647	48939.93	3.6240	3.6235	0.2726	6.00	0.00	0.750			
0.7652	48975.67	3.6210	3.6198	0.1983	6.00	0.00	0.750			
0.7657	49005.80	3.5970	3.5940	-0.1279	6.00	0.00	0.750			
0.7657	49006.62	3.6180	3.5852	0.1500	6.00	0.00	0.750			
0.7660	49022.15	3.6150	3.3710	0.0995	6.00	0.00	0.745			
0.7660	49026.72	3.6000	3.3075	-0.0900	6.00	0.00	0.743			
0.7662	49037.62	3.6120	3.1562	0.0616	6.00	0.00	0.739			
0.7663	49040.36	3.6030	3.1181	-0.0521	6.00	0.00	0.738			
0.7663	49045.81	3.6090	3.0424	0.0237	6.00	0.00	0.736			
0.7664	49046.72	3.6060	3.0297	-0.0142	6.00	0.00	0.736			
