Ah_balance (normalized)	Ah_balance (mAh)	Voltage - fit (V)	Voltage -  interpolate (V)	dQ/dV (1/V)	Temperature (°C)	Temperature - diff (°C)	Current (C)	R_DC 0ms (mOhm)	R_DC 50ms (mOhm)	R_DC 50 ms PEC (mOhm)
0.0970	6208.46	4.1970	4.1992	0.6906	8.82	2.48	0.750			
0.0989	6330.95	4.1940	4.1964	0.7042	8.82	2.48	0.750			
0.1012	6477.09	4.1910	4.1931	0.7729	8.81	2.47	0.750			
0.1036	6632.82	4.1880	4.1897	0.7799	8.81	2.47	0.750			
0.1062	6799.38	4.1850	4.1856	0.8228	8.80	2.46	0.750			
0.1085	6944.19	4.1820	4.1829	0.7739	8.79	2.45	0.750			
0.1118	7153.97	4.1790	4.1780	0.8445	8.79	2.45	0.750			
0.1133	7249.57	4.1760	4.1760	0.7057	8.78	2.44	0.750			
0.1153	7380.92	4.1730	4.1730	0.6989	8.78	2.44	0.750			
0.1174	7514.28	4.1700	4.1701	0.7035	8.77	2.43	0.750			
0.1195	7650.85	4.1670	4.1670	0.7066	8.77	2.43	0.750			
0.1217	7785.85	4.1640	4.1640	0.7127	8.76	2.42	0.750			
0.1238	7924.96	4.1610	4.1609	0.7119	8.76	2.42	0.750			
0.1260	8061.02	4.1580	4.1580	0.7181	8.75	2.41	0.750			
0.1281	8198.67	4.1550	4.1551	0.7227	8.75	2.41	0.750			
0.1303	8337.63	4.1520	4.1519	0.7242	8.74	2.40	0.750			
0.1324	8476.23	4.1490	4.1490	0.7355	8.74	2.40	0.750			
0.1347	8618.84	4.1460	4.1461	0.7386	8.73	2.39	0.750			
0.1369	8760.28	4.1430	4.1430	0.7424	8.73	2.39	0.750			
0.1392	8906.69	4.1400	4.1400	0.7431	8.72	2.38	0.750			
0.1414	9050.27	4.1370	4.1371	0.7383	8.71	2.37	0.750			
0.1436	9191.58	4.1340	4.1340	0.7365	8.71	2.37	0.750			
0.1458	9330.88	4.1310	4.1312	0.7405	8.70	2.36	0.750			
0.1480	9469.65	4.1280	4.1280	0.7355	8.70	2.36	0.750			
0.1502	9612.17	4.1250	4.1249	0.7476	8.69	2.35	0.750			
0.1525	9756.85	4.1220	4.1219	0.7521	8.69	2.35	0.750			
0.1548	9904.85	4.1190	4.1191	0.7574	8.68	2.34	0.750			
0.1571	10051.26	4.1160	4.1160	0.7500	8.68	2.34	0.750			
0.1593	10194.82	4.1130	4.1132	0.7471	8.67	2.33	0.750			
0.1615	10336.60	4.1100	4.1100	0.7435	8.67	2.33	0.750			
0.1637	10477.42	4.1070	4.1068	0.7446	8.66	2.32	0.750			
0.1659	10615.97	4.1040	4.1040	0.7528	8.66	2.32	0.750			
0.1682	10761.67	4.1010	4.1010	0.7724	8.65	2.31	0.750			
0.1705	10914.33	4.0980	4.0979	0.7883	8.64	2.30	0.750			
0.1730	11069.33	4.0950	4.0951	0.7924	8.64	2.30	0.750			
0.1754	11222.81	4.0920	4.0920	0.8010	8.63	2.29	0.750			
0.1778	11379.90	4.0890	4.0890	0.7993	8.62	2.28	0.750			
0.1802	11532.43	4.0860	4.0859	0.7949	8.61	2.27	0.750			
0.1825	11682.88	4.0830	4.0832	0.7915	8.61	2.27	0.750			
0.1849	11834.50	4.0800	4.0800	0.7892	8.60	2.26	0.750			
0.1873	11985.72	4.0770	4.0769	0.7906	8.59	2.25	0.750			
0.1897	12137.70	4.0740	4.0740	0.7934	8.59	2.25	0.750			
0.1920	12286.81	4.0710	4.0711	0.8018	8.58	2.24	0.750			
0.1944	12442.34	4.0680	4.0679	0.8139	8.58	2.24	0.750			
0.1969	12602.47	4.0650	4.0649	0.8095	8.57	2.23	0.750			
0.1993	12757.67	4.0620	4.0620	0.8152	8.56	2.22	0.750			
0.2018	12915.55	4.0590	4.0592	0.8199	8.55	2.21	0.750			
0.2043	13072.62	4.0560	4.0561	0.8224	8.55	2.21	0.750			
0.2067	13229.73	4.0530	4.0529	0.8219	8.54	2.20	0.750			
0.2092	13387.63	4.0500	4.0501	0.8187	8.53	2.19	0.750			
0.2116	13545.23	4.0470	4.0471	0.8245	8.52	2.18	0.750			
0.2141	13703.23	4.0440	4.0440	0.8351	8.51	2.17	0.750			
0.2166	13862.40	4.0410	4.0411	0.8391	8.51	2.17	0.750			
0.2191	14022.89	4.0380	4.0380	0.8453	8.50	2.16	0.750			
0.2217	14187.10	4.0350	4.0350	0.8513	8.49	2.15	0.750			
0.2243	14352.86	4.0320	4.0321	0.8630	8.49	2.15	0.750			
0.2269	14520.60	4.0290	4.0289	0.8640	8.48	2.14	0.750			
0.2295	14688.03	4.0260	4.0262	0.8617	8.47	2.13	0.750			
0.2321	14852.57	4.0230	4.0230	0.8578	8.47	2.13	0.750			
0.2346	15016.87	4.0200	4.0199	0.8572	8.46	2.12	0.750			
0.2372	15179.45	4.0170	4.0170	0.8653	8.45	2.11	0.750			
0.2397	15343.67	4.0140	4.0140	0.8688	8.44	2.10	0.750			
0.2424	15511.42	4.0110	4.0109	0.8755	8.43	2.09	0.750			
0.2450	15682.18	4.0080	4.0078	0.8858	8.42	2.08	0.750			
0.2477	15854.69	4.0050	4.0051	0.8893	8.42	2.08	0.750			
0.2504	16026.20	4.0020	4.0021	0.8885	8.41	2.07	0.750			
0.2531	16196.87	3.9990	3.9990	0.8898	8.40	2.06	0.750			
0.2557	16365.15	3.9960	3.9959	0.8989	8.39	2.05	0.750			
0.2584	16537.14	3.9930	3.9929	0.8991	8.38	2.04	0.750			
0.2611	16710.88	3.9900	3.9899	0.8996	8.37	2.03	0.750			
0.2639	16886.47	3.9870	3.9871	0.9048	8.36	2.02	0.750			
0.2666	17060.58	3.9840	3.9841	0.9085	8.36	2.02	0.750			
0.2693	17235.35	3.9810	3.9809	0.9104	8.35	2.01	0.750			
0.2720	17405.18	3.9780	3.9780	0.9166	8.34	2.00	0.750			
0.2747	17582.25	3.9750	3.9750	0.9241	8.32	1.98	0.750			
0.2776	17764.78	3.9720	3.9719	0.9341	8.31	1.97	0.750			
0.2804	17945.69	3.9690	3.9691	0.9463	8.30	1.96	0.750			
0.2833	18129.82	3.9660	3.9660	0.9476	8.29	1.95	0.750			
0.2861	18311.31	3.9630	3.9630	0.9546	8.28	1.94	0.750			
0.2890	18493.34	3.9600	3.9600	0.9625	8.27	1.93	0.750			
0.2918	18677.72	3.9570	3.9570	0.9681	8.26	1.92	0.750			
0.2948	18867.30	3.9540	3.9540	0.9777	8.25	1.91	0.750			
0.2977	19055.64	3.9510	3.9511	0.9937	8.24	1.90	0.750			
0.3008	19248.05	3.9480	3.9480	0.9894	8.22	1.88	0.750			
0.3038	19440.19	3.9450	3.9451	0.9983	8.21	1.87	0.750			
0.3067	19631.83	3.9420	3.9421	0.9950	8.20	1.86	0.750			
0.3097	19821.84	3.9390	3.9390	1.0007	8.19	1.85	0.750			
0.3127	20013.35	3.9360	3.9359	1.0120	8.18	1.84	0.750			
0.3158	20208.07	3.9330	3.9331	1.0171	8.17	1.83	0.750			
0.3188	20403.92	3.9300	3.9298	1.0262	8.16	1.82	0.750			
0.3219	20604.59	3.9270	3.9271	1.0455	8.15	1.81	0.750			
0.3251	20803.90	3.9240	3.9240	1.0535	8.13	1.79	0.750			
0.3283	21009.74	3.9210	3.9211	1.0640	8.12	1.78	0.750			
0.3315	21214.70	3.9180	3.9179	1.0695	8.11	1.77	0.750			
0.3347	21421.08	3.9150	3.9150	1.0803	8.09	1.75	0.750			
0.3380	21630.49	3.9120	3.9121	1.0950	8.08	1.74	0.750			
0.3412	21838.87	3.9090	3.9089	1.1071	8.06	1.72	0.750			
0.3446	22054.18	3.9060	3.9059	1.1135	8.05	1.71	0.750			
0.3479	22267.79	3.9030	3.9030	1.1251	8.03	1.69	0.750			
0.3513	22486.09	3.9000	3.9000	1.1412	8.02	1.68	0.750			
0.3548	22708.96	3.8970	3.8970	1.1460	8.00	1.66	0.750			
0.3583	22929.25	3.8940	3.8940	1.1530	7.99	1.65	0.750			
0.3617	23149.74	3.8910	3.8911	1.1606	7.98	1.64	0.750			
0.3652	23374.53	3.8880	3.8880	1.1669	7.96	1.62	0.750			
0.3687	23596.06	3.8850	3.8849	1.1891	7.95	1.61	0.750			
0.3723	23824.52	3.8820	3.8820	1.2097	7.93	1.59	0.750			
0.3759	24059.45	3.8790	3.8790	1.2327	7.92	1.58	0.750	0.382	0.787	
0.3797	24302.04	3.8760	3.8760	1.2527	7.90	1.56	0.750			
0.3835	24544.03	3.8730	3.8731	1.2789	7.89	1.55	0.750			
0.3874	24793.18	3.8700	3.8701	1.3034	7.87	1.53	0.750			
0.3914	25051.09	3.8670	3.8668	1.3112	7.85	1.51	0.750			
0.3953	25297.92	3.8640	3.8641	1.3186	7.83	1.49	0.750			
0.3993	25552.21	3.8610	3.8611	1.3368	7.82	1.48	0.750			
0.4033	25812.66	3.8580	3.8580	1.3433	7.80	1.46	0.750			
0.4073	26069.95	3.8550	3.8550	1.3707	7.78	1.44	0.750			
0.4114	26330.89	3.8520	3.8521	1.3925	7.76	1.42	0.750			
0.4157	26603.65	3.8490	3.8490	1.4119	7.74	1.40	0.750			
0.4200	26880.31	3.8460	3.8460	1.4301	7.72	1.38	0.750			
0.4243	27154.20	3.8430	3.8432	1.4403	7.70	1.36	0.750			
0.4286	27432.48	3.8400	3.8401	1.4681	7.67	1.33	0.750			
0.4331	27715.91	3.8370	3.8370	1.4910	7.65	1.31	0.750			
0.4375	27998.68	3.8340	3.8337	1.4945	7.63	1.29	0.750			
0.4421	28293.46	3.8310	3.8310	1.5089	7.62	1.28	0.750			
0.4467	28586.93	3.8280	3.8280	1.5440	7.59	1.25	0.750			
0.4514	28886.93	3.8250	3.8251	1.5557	7.57	1.23	0.750			
0.4560	29181.77	3.8220	3.8218	1.5536	7.54	1.20	0.750			
0.4606	29479.91	3.8190	3.8190	1.5701	7.52	1.18	0.750			
0.4654	29788.50	3.8160	3.8161	1.5882	7.49	1.15	0.750			
0.4702	30093.42	3.8130	3.8130	1.6165	7.47	1.13	0.750			
0.4751	30406.96	3.8100	3.8099	1.6186	7.45	1.11	0.750			
0.4799	30716.73	3.8070	3.8070	1.6385	7.42	1.08	0.750			
0.4849	31035.86	3.8040	3.8040	1.6754	7.40	1.06	0.750			
0.4899	31356.08	3.8010	3.8011	1.6880	7.37	1.03	0.750			
0.4951	31688.50	3.7980	3.7980	1.7047	7.34	1.00	0.750			
0.5003	32016.69	3.7950	3.7949	1.7471	7.32	0.98	0.750			
0.5055	32352.18	3.7920	3.7919	1.7539	7.29	0.95	0.750			
0.5108	32694.35	3.7890	3.7889	1.8008	7.27	0.93	0.750			
0.5162	33038.33	3.7860	3.7862	1.8211	7.24	0.90	0.750			
0.5218	33392.04	3.7830	3.7828	1.8555	7.21	0.87	0.750			
0.5274	33756.53	3.7800	3.7802	1.8899	7.18	0.84	0.750			
0.5331	34118.46	3.7770	3.7770	1.9176	7.15	0.81	0.750			
0.5389	34488.70	3.7740	3.7740	2.0177	7.12	0.78	0.750			
0.5449	34875.11	3.7710	3.7711	2.1418	7.08	0.74	0.750			
0.5515	35294.27	3.7680	3.7678	2.2261	7.06	0.72	0.750			
0.5583	35730.58	3.7650	3.7652	2.3293	7.03	0.69	0.750			
0.5657	36206.31	3.7620	3.7618	2.4271	6.98	0.64	0.750			
0.5730	36669.14	3.7590	3.7590	2.4642	6.95	0.61	0.750			
0.5802	37130.94	3.7560	3.7560	2.6186	6.92	0.58	0.750			
0.5884	37655.10	3.7530	3.7529	2.8017	6.88	0.54	0.750			
0.5970	38205.88	3.7500	3.7501	2.9181	6.84	0.50	0.750			
0.6062	38794.28	3.7470	3.7469	3.0003	6.80	0.46	0.750			
0.6151	39366.99	3.7440	3.7442	3.0454	6.76	0.42	0.750			
0.6245	39968.89	3.7410	3.7409	3.0274	6.73	0.39	0.750			
0.6335	40546.29	3.7380	3.7380	2.8446	6.69	0.35	0.750			
0.6420	41087.06	3.7350	3.7350	2.5757	6.66	0.32	0.750			
0.6491	41539.63	3.7320	3.7322	2.2449	6.63	0.29	0.750			
0.6551	41927.82	3.7290	3.7289	1.9571	6.61	0.27	0.750			
0.6604	42267.05	3.7260	3.7259	1.7213	6.59	0.25	0.750			
0.6651	42563.26	3.7230	3.7231	1.5248	6.57	0.23	0.750			
0.6693	42834.71	3.7200	3.7199	1.3932	6.56	0.22	0.750			
0.6732	43083.52	3.7170	3.7170	1.3025	6.54	0.20	0.750			
0.6769	43320.47	3.7140	3.7143	1.2279	6.53	0.19	0.750			
0.6805	43549.08	3.7110	3.7108	1.1876	6.52	0.18	0.750			
0.6839	43770.76	3.7080	3.7080	1.1425	6.51	0.17	0.750			
0.6873	43986.75	3.7050	3.7050	1.1075	6.50	0.16	0.750			
0.6906	44198.81	3.7020	3.7021	1.0867	6.49	0.15	0.750			
0.6938	44401.32	3.6990	3.6990	1.0563	6.48	0.14	0.750			
0.6968	44597.73	3.6960	3.6960	1.0393	6.47	0.13	0.750			
0.6999	44793.33	3.6930	3.6929	1.0269	6.45	0.11	0.750			
0.7030	44990.77	3.6900	3.6900	1.0132	6.44	0.10	0.750			
0.7061	45187.95	3.6870	3.6869	1.0083	6.43	0.09	0.750			
0.7091	45381.18	3.6840	3.6841	0.9906	6.42	0.08	0.750			
0.7120	45569.46	3.6810	3.6811	0.9757	6.42	0.08	0.750			
0.7149	45754.08	3.6780	3.6780	0.9633	6.41	0.07	0.750			
0.7177	45935.57	3.6750	3.6749	0.9489	6.40	0.06	0.750			
0.7206	46118.88	3.6720	3.6720	0.9327	6.39	0.05	0.750			
0.7234	46296.45	3.6690	3.6691	0.9285	6.38	0.04	0.750			
0.7262	46473.79	3.6660	3.6660	0.9226	6.38	0.04	0.750			
0.7289	46649.72	3.6630	3.6630	0.9186	6.37	0.03	0.750			
0.7316	46821.52	3.6600	3.6599	0.9119	6.36	0.02	0.750			
0.7343	46997.58	3.6570	3.6570	0.9096	6.35	0.01	0.750			
0.7371	47176.36	3.6540	3.6540	0.9041	6.35	0.01	0.750			
0.7399	47353.24	3.6510	3.6509	0.8861	6.35	0.01	0.750			
0.7426	47526.50	3.6480	3.6479	0.8379	6.34	0.00	0.750			
0.7451	47689.22	3.6450	3.6451	0.7856	6.34	-0.00	0.750			
0.7475	47837.49	3.6420	3.6420	0.7012	6.33	-0.01	0.750			
0.7495	47966.37	3.6390	3.6391	0.6075	6.33	-0.01	0.750			
0.7512	48073.71	3.6360	3.6360	0.5073	6.33	-0.01	0.750			
0.7522	48143.61	3.6330	3.6336	0.4305	6.33	-0.01	0.750			
0.7534	48216.92	3.6300	3.6305	0.3427	6.32	-0.02	0.750			
0.7543	48274.38	3.6270	3.6271	0.2783	6.32	-0.02	0.750			
0.7549	48314.06	3.6240	3.6234	0.2068	6.32	-0.02	0.750			
0.7554	48345.65	3.6210	3.6159	0.1587	6.32	-0.02	0.750			
0.7556	48357.46	3.5970	3.5384	-0.1021	6.32	-0.02	0.752			
0.7557	48366.43	3.6180	3.3928	0.1137	6.32	-0.02	0.758			
0.7558	48374.28	3.6000	3.2656	-0.0731	6.32	-0.02	0.763			
0.7559	48374.86	3.6150	3.2562	0.0719	6.32	-0.02	0.764			
0.7560	48385.53	3.6030	3.0830	-0.0441	6.32	-0.02	0.771			
0.7560	48385.88	3.6120	3.0774	0.0429	6.32	-0.02	0.772			
0.7561	48391.21	3.6060	2.9908	-0.0151	6.32	-0.02	0.775			
0.7561	48391.33	3.6090	2.9889	0.0139	6.32	-0.02	0.775			
