Ah_balance (normalized)	Ah_balance (mAh)	Voltage - fit (V)	Voltage -  interpolate (V)	dQ/dV (1/V)	Temperature (°C)	Temperature - diff (°C)	Current (C)	R_DC 0ms (mOhm)	R_DC 50ms (mOhm)	R_DC 50 ms PEC (mOhm)
0.0974	6235.63	4.1980	4.1947	0.6303	8.24	2.23	0.750	0.371	0.792	
0.0996	6371.49	4.1950	4.1977	0.7503	8.23	2.22	0.750			
0.1020	6528.26	4.1920	4.1935	0.8094	8.23	2.22	0.750			
0.1046	6692.37	4.1890	4.1901	0.8092	8.23	2.22	0.750			
0.1072	6860.00	4.1860	4.1866	0.8091	8.22	2.21	0.750			
0.1096	7011.95	4.1830	4.1832	0.7764	8.22	2.21	0.750			
0.1118	7152.37	4.1800	4.1800	0.7055	8.21	2.20	0.750			
0.1139	7286.62	4.1770	4.1769	0.7048	8.21	2.20	0.750			
0.1160	7422.08	4.1740	4.1741	0.7081	8.21	2.20	0.750			
0.1181	7559.81	4.1710	4.1711	0.7111	8.20	2.19	0.750			
0.1203	7697.03	4.1680	4.1680	0.7121	8.20	2.19	0.750			
0.1224	7835.46	4.1650	4.1649	0.7125	8.19	2.18	0.750			
0.1245	7970.38	4.1620	4.1620	0.7095	8.19	2.18	0.750			
0.1266	8105.46	4.1590	4.1591	0.7104	8.18	2.17	0.750			
0.1288	8242.83	4.1560	4.1560	0.7135	8.18	2.17	0.750			
0.1309	8379.40	4.1530	4.1529	0.7181	8.17	2.16	0.750			
0.1331	8517.82	4.1500	4.1500	0.7177	8.17	2.16	0.750			
0.1352	8655.65	4.1470	4.1472	0.7206	8.16	2.15	0.750			
0.1374	8793.81	4.1440	4.1440	0.7253	8.15	2.14	0.750			
0.1396	8934.28	4.1410	4.1408	0.7254	8.15	2.14	0.750			
0.1418	9072.29	4.1380	4.1380	0.7269	8.14	2.13	0.750			
0.1439	9212.14	4.1350	4.1352	0.7308	8.14	2.13	0.750			
0.1461	9353.00	4.1320	4.1319	0.7378	8.13	2.12	0.750			
0.1484	9495.40	4.1290	4.1289	0.7424	8.13	2.12	0.750			
0.1506	9638.12	4.1260	4.1260	0.7455	8.12	2.11	0.750			
0.1529	9782.80	4.1230	4.1230	0.7476	8.12	2.11	0.750			
0.1552	9930.04	4.1200	4.1200	0.7541	8.11	2.10	0.750			
0.1574	10074.47	4.1170	4.1170	0.7467	8.11	2.10	0.750			
0.1596	10216.62	4.1140	4.1141	0.7455	8.11	2.10	0.750			
0.1618	10357.12	4.1110	4.1109	0.7451	8.10	2.09	0.750			
0.1641	10500.17	4.1080	4.1079	0.7481	8.10	2.09	0.750			
0.1663	10642.80	4.1050	4.1049	0.7548	8.09	2.08	0.750			
0.1686	10789.60	4.1020	4.1020	0.7600	8.09	2.08	0.750			
0.1709	10936.67	4.0990	4.0991	0.7725	8.08	2.07	0.750			
0.1732	11087.30	4.0960	4.0960	0.7788	8.07	2.06	0.750			
0.1756	11236.97	4.0930	4.0932	0.7806	8.06	2.05	0.750			
0.1779	11387.46	4.0900	4.0899	0.7873	8.06	2.05	0.750			
0.1803	11539.88	4.0870	4.0871	0.7871	8.05	2.04	0.750			
0.1827	11691.61	4.0840	4.0840	0.7867	8.05	2.04	0.750			
0.1850	11842.19	4.0810	4.0810	0.7886	8.05	2.04	0.750			
0.1874	11992.13	4.0780	4.0781	0.7948	8.04	2.03	0.750			
0.1898	12145.47	4.0750	4.0749	0.8010	8.04	2.03	0.750			
0.1922	12299.66	4.0720	4.0718	0.8031	8.03	2.02	0.750			
0.1946	12454.35	4.0690	4.0691	0.8047	8.02	2.01	0.750			
0.1970	12609.48	4.0660	4.0660	0.8179	8.02	2.01	0.750			
0.1995	12768.93	4.0630	4.0630	0.8212	8.01	2.00	0.750			
0.2020	12926.65	4.0600	4.0597	0.8209	8.00	1.99	0.750			
0.2044	13081.92	4.0570	4.0573	0.8234	7.99	1.98	0.750			
0.2069	13242.85	4.0540	4.0540	0.8246	7.99	1.98	0.750			
0.2094	13402.20	4.0510	4.0508	0.8272	7.98	1.97	0.750			
0.2119	13559.38	4.0480	4.0481	0.8185	7.98	1.97	0.750			
0.2143	13716.10	4.0450	4.0450	0.8158	7.97	1.96	0.750			
0.2168	13875.46	4.0420	4.0420	0.8186	7.96	1.95	0.750			
0.2192	14031.51	4.0390	4.0391	0.8161	7.96	1.95	0.750			
0.2216	14182.67	4.0360	4.0361	0.8266	7.95	1.94	0.750			
0.2241	14341.31	4.0330	4.0330	0.8419	7.95	1.94	0.750			
0.2266	14505.03	4.0300	4.0297	0.8531	7.94	1.93	0.750			
0.2293	14672.69	4.0270	4.0271	0.8633	7.93	1.92	0.750			
0.2319	14840.99	4.0240	4.0242	0.8619	7.93	1.92	0.750			
0.2345	15009.98	4.0210	4.0209	0.8644	7.92	1.91	0.750			
0.2371	15171.43	4.0180	4.0181	0.8593	7.92	1.91	0.750			
0.2396	15335.11	4.0150	4.0149	0.8648	7.91	1.90	0.750			
0.2422	15501.44	4.0120	4.0120	0.8679	7.90	1.89	0.750			
0.2448	15668.48	4.0090	4.0090	0.8846	7.90	1.89	0.750			
0.2475	15841.86	4.0060	4.0060	0.8952	7.89	1.88	0.750			
0.2502	16015.24	4.0030	4.0030	0.8984	7.88	1.87	0.750			
0.2529	16188.75	4.0000	4.0001	0.8951	7.88	1.87	0.750			
0.2557	16362.59	3.9970	3.9970	0.8806	7.87	1.86	0.750			
0.2583	16529.25	3.9940	3.9941	0.8874	7.86	1.85	0.750			
0.2609	16698.01	3.9910	3.9911	0.8932	7.86	1.85	0.750			
0.2636	16867.30	3.9880	3.9878	0.8886	7.85	1.84	0.750			
0.2662	17039.56	3.9850	3.9851	0.8979	7.85	1.84	0.750			
0.2690	17213.04	3.9820	3.9822	0.9001	7.84	1.83	0.750			
0.2717	17386.30	3.9790	3.9791	0.9090	7.83	1.82	0.750			
0.2744	17562.53	3.9760	3.9760	0.9210	7.83	1.82	0.750			
0.2771	17734.02	3.9730	3.9728	0.9197	7.82	1.81	0.750			
0.2799	17912.57	3.9700	3.9701	0.9366	7.81	1.80	0.750			
0.2828	18096.34	3.9670	3.9671	0.9528	7.80	1.79	0.750			
0.2857	18282.29	3.9640	3.9639	0.9652	7.79	1.78	0.750			
0.2886	18468.61	3.9610	3.9611	0.9707	7.77	1.76	0.750			
0.2915	18655.70	3.9580	3.9579	0.9722	7.76	1.75	0.750			
0.2944	18843.75	3.9550	3.9551	0.9734	7.75	1.74	0.750			
0.2974	19032.73	3.9520	3.9519	0.9639	7.74	1.73	0.750			
0.3003	19216.67	3.9490	3.9492	0.9660	7.74	1.73	0.750			
0.3031	19397.96	3.9460	3.9461	0.9772	7.73	1.72	0.750			
0.3060	19581.17	3.9430	3.9429	0.9908	7.72	1.71	0.750			
0.3090	19775.30	3.9400	3.9399	1.0050	7.71	1.70	0.750			
0.3120	19969.26	3.9370	3.9370	1.0145	7.71	1.70	0.750			
0.3152	20170.40	3.9340	3.9342	1.0358	7.70	1.69	0.750			
0.3183	20373.60	3.9310	3.9310	1.0391	7.68	1.67	0.750			
0.3214	20571.20	3.9280	3.9279	1.0391	7.67	1.66	0.750			
0.3245	20770.18	3.9250	3.9251	1.0413	7.66	1.65	0.750			
0.3277	20970.47	3.9220	3.9221	1.0333	7.65	1.64	0.750			
0.3307	21167.72	3.9190	3.9190	1.0470	7.64	1.63	0.750			
0.3339	21368.24	3.9160	3.9161	1.0548	7.63	1.62	0.750			
0.3370	21568.09	3.9130	3.9129	1.0729	7.62	1.61	0.750			
0.3403	21777.15	3.9100	3.9099	1.0902	7.61	1.60	0.750			
0.3436	21987.67	3.9070	3.9071	1.1061	7.60	1.59	0.750			
0.3469	22203.60	3.9040	3.9041	1.1265	7.59	1.58	0.750			
0.3504	22424.36	3.9010	3.9010	1.1388	7.58	1.57	0.750			
0.3538	22640.97	3.8980	3.8980	1.1392	7.56	1.55	0.750			
0.3572	22858.99	3.8950	3.8949	1.1520	7.55	1.54	0.750			
0.3606	23080.50	3.8920	3.8922	1.1644	7.54	1.53	0.750			
0.3642	23308.30	3.8890	3.8887	1.1762	7.52	1.51	0.750			
0.3677	23534.87	3.8860	3.8861	1.1890	7.51	1.50	0.750			
0.3713	23762.58	3.8830	3.8832	1.2061	7.50	1.49	0.750			
0.3750	23997.02	3.8800	3.8799	1.2212	7.49	1.48	0.750			
0.3786	24228.40	3.8770	3.8770	1.2436	7.47	1.46	0.750			
0.3823	24467.65	3.8740	3.8733	1.2639	7.46	1.45	0.750	0.372	0.812	
0.3862	24714.78	3.8710	3.8711	1.2901	7.44	1.43	0.750			
0.3902	24970.04	3.8680	3.8679	1.3027	7.43	1.42	0.750			
0.3940	25218.76	3.8650	3.8651	1.3108	7.41	1.40	0.750			
0.3979	25467.66	3.8620	3.8622	1.3268	7.40	1.39	0.750			
0.4020	25725.66	3.8590	3.8585	1.3534	7.38	1.37	0.750			
0.4060	25981.06	3.8560	3.8561	1.3685	7.36	1.35	0.750			
0.4102	26253.55	3.8530	3.8530	1.3939	7.35	1.34	0.750			
0.4145	26527.78	3.8500	3.8500	1.4235	7.33	1.32	0.750			
0.4188	26804.54	3.8470	3.8470	1.4219	7.31	1.30	0.750			
0.4231	27078.67	3.8440	3.8441	1.4414	7.30	1.29	0.750			
0.4274	27354.03	3.8410	3.8409	1.4581	7.28	1.27	0.750			
0.4318	27634.17	3.8380	3.8379	1.4923	7.26	1.25	0.750			
0.4363	27921.00	3.8350	3.8351	1.5083	7.25	1.24	0.750			
0.4409	28218.10	3.8320	3.8318	1.5479	7.23	1.22	0.750			
0.4456	28518.24	3.8290	3.8291	1.5814	7.21	1.20	0.750			
0.4505	28829.88	3.8260	3.8259	1.6147	7.19	1.18	0.750			
0.4553	29139.32	3.8230	3.8231	1.6380	7.17	1.16	0.750			
0.4603	29460.34	3.8200	3.8200	1.6463	7.15	1.14	0.750			
0.4653	29777.44	3.8170	3.8171	1.6552	7.13	1.12	0.750			
0.4703	30097.07	3.8140	3.8142	1.6674	7.10	1.09	0.750			
0.4753	30420.71	3.8110	3.8110	1.6801	7.08	1.07	0.750			
0.4803	30737.88	3.8080	3.8080	1.7027	7.05	1.04	0.750			
0.4854	31068.78	3.8050	3.8051	1.7246	7.03	1.02	0.750			
0.4906	31401.38	3.8020	3.8021	1.7471	7.01	1.00	0.750			
0.4960	31746.12	3.7990	3.7990	1.7790	6.98	0.97	0.750			
0.5013	32082.92	3.7960	3.7960	1.8111	6.96	0.95	0.750			
0.5068	32438.02	3.7930	3.7929	1.8335	6.93	0.92	0.750			
0.5124	32794.30	3.7900	3.7898	1.8402	6.90	0.89	0.750			
0.5179	33144.14	3.7870	3.7872	1.8528	6.88	0.87	0.750			
0.5235	33505.81	3.7840	3.7839	1.9000	6.85	0.84	0.750			
0.5292	33871.32	3.7810	3.7808	1.9139	6.83	0.82	0.750			
0.5349	34232.84	3.7780	3.7780	1.9395	6.80	0.79	0.750			
0.5408	34611.62	3.7750	3.7753	2.0168	6.77	0.76	0.750			
0.5469	35001.98	3.7720	3.7719	2.0890	6.75	0.74	0.750			
0.5533	35408.93	3.7690	3.7689	2.1305	6.72	0.71	0.750			
0.5597	35822.63	3.7660	3.7661	2.2242	6.69	0.68	0.750			
0.5665	36258.10	3.7630	3.7629	2.3130	6.66	0.65	0.750			
0.5735	36702.68	3.7600	3.7600	2.4167	6.63	0.62	0.750			
0.5809	37178.09	3.7570	3.7570	2.5071	6.59	0.58	0.750			
0.5887	37676.95	3.7540	3.7541	2.6284	6.55	0.54	0.750			
0.5967	38187.12	3.7510	3.7509	2.7587	6.52	0.51	0.750			
0.6051	38726.03	3.7480	3.7478	2.8771	6.49	0.48	0.750			
0.6140	39297.72	3.7450	3.7450	2.9978	6.45	0.44	0.750			
0.6232	39885.36	3.7420	3.7421	3.0858	6.41	0.40	0.750			
0.6326	40483.75	3.7390	3.7390	3.1645	6.38	0.37	0.750			
0.6423	41106.38	3.7360	3.7358	3.0394	6.34	0.33	0.750			
0.6513	41683.96	3.7330	3.7331	2.7819	6.30	0.29	0.750			
0.6592	42186.86	3.7300	3.7300	2.4353	6.28	0.27	0.750			
0.6655	42594.94	3.7270	3.7273	2.0359	6.27	0.26	0.750			
0.6712	42957.41	3.7240	3.7242	1.8033	6.24	0.23	0.750			
0.6762	43273.82	3.7210	3.7207	1.5856	6.22	0.21	0.750			
0.6804	43544.55	3.7180	3.7181	1.4344	6.21	0.20	0.750			
0.6842	43789.80	3.7150	3.7150	1.3302	6.19	0.18	0.750			
0.6880	44030.83	3.7120	3.7119	1.2499	6.18	0.17	0.750			
0.6917	44266.35	3.7090	3.7090	1.1971	6.16	0.15	0.750			
0.6951	44488.94	3.7060	3.7061	1.1495	6.16	0.15	0.750			
0.6985	44700.84	3.7030	3.7032	1.1180	6.15	0.14	0.750			
0.7017	44911.40	3.7000	3.6998	1.0949	6.14	0.13	0.750			
0.7049	45115.00	3.6970	3.6969	1.0527	6.13	0.12	0.750			
0.7080	45314.58	3.6940	3.6940	1.0347	6.12	0.11	0.750			
0.7112	45515.61	3.6910	3.6912	1.0180	6.11	0.10	0.750			
0.7142	45708.40	3.6880	3.6877	0.9946	6.10	0.09	0.750			
0.7171	45895.92	3.6850	3.6850	0.9652	6.09	0.08	0.750			
0.7199	46075.41	3.6820	3.6822	0.9481	6.08	0.07	0.750			
0.7227	46254.79	3.6790	3.6789	0.9337	6.07	0.06	0.750			
0.7255	46433.43	3.6760	3.6760	0.9193	6.06	0.05	0.750			
0.7283	46608.43	3.6730	3.6731	0.9136	6.06	0.05	0.750			
0.7310	46785.94	3.6700	3.6700	0.9043	6.05	0.04	0.750			
0.7337	46957.12	3.6670	3.6670	0.8927	6.05	0.04	0.750			
0.7364	47126.61	3.6640	3.6640	0.8879	6.04	0.03	0.750			
0.7390	47293.97	3.6610	3.6609	0.8817	6.04	0.03	0.750			
0.7416	47463.43	3.6580	3.6579	0.8815	6.03	0.02	0.750			
0.7442	47631.90	3.6550	3.6551	0.8821	6.03	0.02	0.750			
0.7469	47802.34	3.6520	3.6519	0.8807	6.02	0.01	0.750			
0.7496	47976.03	3.6490	3.6489	0.8700	6.02	0.01	0.750			
0.7523	48147.84	3.6460	3.6459	0.8284	6.01	0.00	0.750			
0.7548	48306.99	3.6430	3.6431	0.7729	6.01	0.00	0.750			
0.7572	48458.61	3.6400	3.6401	0.6975	6.01	0.00	0.750			
0.7592	48585.91	3.6370	3.6370	0.6026	6.01	0.00	0.750			
0.7608	48690.23	3.6340	3.6340	0.5018	6.01	0.00	0.750			
0.7619	48761.68	3.6310	3.6315	0.4255	6.01	0.00	0.750			
0.7630	48833.97	3.6280	3.6283	0.3419	6.01	0.00	0.750			
0.7639	48891.04	3.6250	3.6249	0.2757	6.01	0.00	0.750			
0.7645	48930.82	3.6220	3.6216	0.2055	6.01	0.00	0.750			
0.7651	48963.85	3.6190	3.6155	0.1581	6.01	0.00	0.750			
0.7653	48977.49	3.5980	3.5625	-0.1145	6.01	0.00	0.749			
0.7654	48986.02	3.6160	3.4554	0.1117	6.01	0.00	0.741			
0.7656	48995.93	3.6010	3.3311	-0.0776	6.01	0.00	0.731			
0.7656	48999.00	3.6130	3.2926	0.0696	6.01	0.00	0.729			
0.7657	49007.30	3.6040	3.1884	-0.0408	6.01	0.00	0.721			
0.7658	49008.83	3.6100	3.1692	0.0328	6.01	0.00	0.719			
0.7658	49011.60	3.6070	3.1344	-0.0040	6.01	0.00	0.717			
