Ah_balance (normalized)	Ah_balance (mAh)	Voltage - fit (V)	Voltage -  interpolate (V)	dQ/dV (1/V)	Temperature (°C)	Temperature - diff (°C)	Current (C)	R_DC 0ms (mOhm)	R_DC 50ms (mOhm)	R_DC 50 ms PEC (mOhm)
0.0975	6238.69	4.1960	4.1983	0.5891	8.47	2.49	0.750			
0.0995	6370.60	4.1930	4.1948	0.7166	8.47	2.49	0.750			
0.1020	6527.97	4.1900	4.1916	0.7654	8.47	2.49	0.750			
0.1043	6674.68	4.1870	4.1882	0.7607	8.46	2.48	0.750			
0.1068	6835.65	4.1840	4.1845	0.7654	8.46	2.48	0.750			
0.1093	6993.87	4.1810	4.1811	0.7641	8.45	2.47	0.750			
0.1113	7126.13	4.1780	4.1779	0.7054	8.45	2.47	0.750			
0.1135	7262.11	4.1750	4.1750	0.7135	8.44	2.46	0.750			
0.1156	7400.58	4.1720	4.1721	0.7147	8.44	2.46	0.750			
0.1178	7540.56	4.1690	4.1690	0.7160	8.43	2.45	0.750			
0.1200	7680.58	4.1660	4.1662	0.7185	8.42	2.44	0.750			
0.1221	7815.35	4.1630	4.1630	0.7090	8.41	2.43	0.750			
0.1242	7949.89	4.1600	4.1599	0.7167	8.40	2.42	0.750			
0.1263	8085.02	4.1570	4.1570	0.7193	8.39	2.41	0.750			
0.1285	8226.21	4.1540	4.1540	0.7205	8.39	2.41	0.750			
0.1307	8367.93	4.1510	4.1509	0.7323	8.38	2.40	0.750			
0.1329	8508.36	4.1480	4.1482	0.7336	8.37	2.39	0.750			
0.1351	8649.44	4.1450	4.1451	0.7362	8.37	2.39	0.750			
0.1374	8790.79	4.1420	4.1418	0.7347	8.36	2.38	0.750			
0.1396	8931.39	4.1390	4.1390	0.7287	8.35	2.37	0.750			
0.1417	9071.34	4.1360	4.1360	0.7291	8.35	2.37	0.750			
0.1439	9210.47	4.1330	4.1332	0.7364	8.34	2.36	0.750			
0.1461	9350.45	4.1300	4.1300	0.7372	8.34	2.36	0.750			
0.1483	9491.42	4.1270	4.1269	0.7428	8.33	2.35	0.750			
0.1506	9635.46	4.1240	4.1240	0.7520	8.33	2.35	0.750			
0.1528	9782.38	4.1210	4.1211	0.7602	8.32	2.34	0.750			
0.1552	9930.27	4.1180	4.1179	0.7635	8.31	2.33	0.750			
0.1575	10077.36	4.1150	4.1151	0.7649	8.30	2.32	0.750			
0.1597	10223.75	4.1120	4.1120	0.7659	8.30	2.32	0.750			
0.1621	10371.39	4.1090	4.1089	0.7665	8.29	2.31	0.750			
0.1643	10518.33	4.1060	4.1059	0.7658	8.28	2.30	0.750			
0.1666	10665.20	4.1030	4.1032	0.7647	8.28	2.30	0.750			
0.1689	10811.21	4.1000	4.1000	0.7689	8.27	2.29	0.750			
0.1712	10958.24	4.0970	4.0969	0.7753	8.26	2.28	0.750			
0.1736	11107.53	4.0940	4.0939	0.7721	8.25	2.27	0.750			
0.1759	11255.54	4.0910	4.0911	0.7776	8.25	2.27	0.750			
0.1783	11408.33	4.0880	4.0880	0.7809	8.24	2.26	0.750			
0.1806	11556.99	4.0850	4.0850	0.7845	8.23	2.25	0.750			
0.1829	11707.10	4.0820	4.0819	0.7863	8.22	2.24	0.750			
0.1853	11857.12	4.0790	4.0791	0.7898	8.22	2.24	0.750			
0.1876	12008.87	4.0760	4.0759	0.7954	8.21	2.23	0.750			
0.1901	12163.97	4.0730	4.0731	0.8033	8.20	2.22	0.750			
0.1925	12317.49	4.0700	4.0700	0.8098	8.19	2.21	0.750			
0.1949	12475.13	4.0670	4.0670	0.8173	8.18	2.20	0.750			
0.1974	12633.08	4.0640	4.0639	0.8195	8.18	2.20	0.750			
0.1999	12791.00	4.0610	4.0610	0.8216	8.17	2.19	0.750			
0.2023	12948.52	4.0580	4.0581	0.8242	8.16	2.18	0.750			
0.2048	13108.20	4.0550	4.0550	0.8187	8.15	2.17	0.750			
0.2072	13263.03	4.0520	4.0519	0.8205	8.15	2.17	0.750			
0.2097	13418.26	4.0490	4.0492	0.8231	8.14	2.16	0.750			
0.2122	13577.77	4.0460	4.0458	0.8309	8.13	2.15	0.750			
0.2147	13738.64	4.0430	4.0429	0.8331	8.12	2.14	0.750			
0.2172	13899.04	4.0400	4.0402	0.8387	8.12	2.14	0.750			
0.2197	14060.98	4.0370	4.0370	0.8436	8.11	2.13	0.750			
0.2222	14222.88	4.0340	4.0339	0.8535	8.11	2.13	0.750			
0.2248	14384.03	4.0310	4.0310	0.8622	8.10	2.12	0.750			
0.2274	14555.20	4.0280	4.0279	0.8622	8.09	2.11	0.750			
0.2301	14724.69	4.0250	4.0251	0.8688	8.08	2.10	0.750			
0.2327	14890.86	4.0220	4.0221	0.8703	8.07	2.09	0.750			
0.2353	15056.87	4.0190	4.0190	0.8663	8.06	2.08	0.750			
0.2379	15222.64	4.0160	4.0160	0.8584	8.05	2.07	0.750			
0.2404	15385.92	4.0130	4.0130	0.8486	8.04	2.06	0.750			
0.2429	15545.73	4.0100	4.0102	0.8588	8.03	2.05	0.750			
0.2455	15712.46	4.0070	4.0070	0.8735	8.02	2.04	0.750			
0.2481	15879.03	4.0040	4.0039	0.8811	8.01	2.03	0.750			
0.2508	16048.89	4.0010	4.0009	0.8963	8.00	2.02	0.750			
0.2535	16226.13	3.9980	3.9981	0.9024	7.99	2.01	0.750			
0.2563	16401.88	3.9950	3.9951	0.9119	7.98	2.00	0.750			
0.2590	16578.62	3.9920	3.9920	0.9131	7.97	1.99	0.750			
0.2617	16750.01	3.9890	3.9888	0.9095	7.96	1.98	0.750			
0.2645	16925.16	3.9860	3.9860	0.9067	7.95	1.97	0.750			
0.2672	17098.36	3.9830	3.9829	0.9115	7.94	1.96	0.750			
0.2699	17273.62	3.9800	3.9801	0.9196	7.93	1.95	0.750			
0.2727	17451.73	3.9770	3.9770	0.9321	7.93	1.95	0.750			
0.2755	17629.12	3.9740	3.9740	0.9340	7.92	1.94	0.750			
0.2783	17810.94	3.9710	3.9710	0.9410	7.91	1.93	0.750			
0.2811	17991.75	3.9680	3.9680	0.9444	7.90	1.92	0.750			
0.2840	18176.07	3.9650	3.9650	0.9459	7.89	1.91	0.750			
0.2868	18357.40	3.9620	3.9620	0.9465	7.88	1.90	0.750			
0.2897	18537.97	3.9590	3.9590	0.9485	7.87	1.89	0.750			
0.2925	18719.64	3.9560	3.9560	0.9580	7.86	1.88	0.750			
0.2954	18904.07	3.9530	3.9530	0.9667	7.85	1.87	0.750			
0.2983	19090.92	3.9500	3.9499	0.9736	7.83	1.85	0.750			
0.3013	19280.60	3.9470	3.9470	0.9701	7.82	1.84	0.750			
0.3042	19467.37	3.9440	3.9441	0.9791	7.81	1.83	0.750			
0.3070	19651.20	3.9410	3.9411	0.9930	7.81	1.83	0.750			
0.3100	19840.38	3.9380	3.9380	1.0053	7.80	1.82	0.750			
0.3130	20033.96	3.9350	3.9348	1.0210	7.79	1.81	0.750			
0.3162	20234.81	3.9320	3.9320	1.0293	7.77	1.79	0.750			
0.3193	20436.70	3.9290	3.9292	1.0490	7.75	1.77	0.750			
0.3225	20641.91	3.9260	3.9260	1.0534	7.74	1.76	0.750			
0.3257	20844.94	3.9230	3.9229	1.0498	7.73	1.75	0.750			
0.3288	21040.87	3.9200	3.9200	1.0510	7.72	1.74	0.750			
0.3320	21246.21	3.9170	3.9171	1.0641	7.71	1.73	0.750			
0.3352	21450.63	3.9140	3.9139	1.0739	7.70	1.72	0.750			
0.3384	21659.39	3.9110	3.9112	1.0803	7.68	1.70	0.750			
0.3416	21864.64	3.9080	3.9080	1.0951	7.67	1.69	0.750			
0.3450	22078.58	3.9050	3.9049	1.1123	7.65	1.67	0.750			
0.3483	22293.96	3.9020	3.9019	1.1194	7.64	1.66	0.750			
0.3517	22506.69	3.8990	3.8992	1.1346	7.62	1.64	0.750			
0.3551	22728.83	3.8960	3.8961	1.1561	7.61	1.63	0.750			
0.3586	22952.85	3.8930	3.8929	1.1649	7.59	1.61	0.750			
0.3621	23176.82	3.8900	3.8899	1.1642	7.58	1.60	0.750			
0.3656	23401.59	3.8870	3.8873	1.1894	7.57	1.59	0.750			
0.3693	23633.17	3.8840	3.8840	1.2090	7.55	1.57	0.750			
0.3729	23868.22	3.8810	3.8809	1.2160	7.54	1.56	0.750			
0.3765	24098.01	3.8780	3.8781	1.2314	7.52	1.54	0.750			
0.3802	24334.69	3.8750	3.8752	1.2554	7.51	1.53	0.750			
0.3840	24578.30	3.8720	3.8707	1.2844	7.49	1.51	0.750	0.388	0.783	
0.3879	24826.88	3.8690	3.8689	1.2984	7.48	1.50	0.750			
0.3918	25076.79	3.8660	3.8661	1.3177	7.46	1.48	0.750			
0.3959	25337.79	3.8630	3.8631	1.3215	7.44	1.46	0.750			
0.3999	25592.62	3.8600	3.8598	1.3410	7.42	1.44	0.750			
0.4039	25850.11	3.8570	3.8573	1.3478	7.40	1.42	0.750			
0.4079	26108.45	3.8540	3.8538	1.3719	7.39	1.41	0.750			
0.4120	26368.70	3.8510	3.8513	1.4108	7.37	1.39	0.750			
0.4163	26642.47	3.8480	3.8476	1.4322	7.35	1.37	0.750			
0.4207	26924.78	3.8450	3.8451	1.4632	7.32	1.34	0.750			
0.4253	27216.74	3.8420	3.8421	1.5022	7.30	1.32	0.750			
0.4298	27506.50	3.8390	3.8390	1.5199	7.28	1.30	0.750			
0.4343	27795.08	3.8360	3.8361	1.5282	7.26	1.28	0.750			
0.4389	28090.52	3.8330	3.8331	1.5618	7.24	1.26	0.750			
0.4436	28392.09	3.8300	3.8298	1.5732	7.22	1.24	0.750			
0.4485	28703.65	3.8270	3.8269	1.5883	7.19	1.21	0.750			
0.4532	29004.04	3.8240	3.8240	1.6237	7.17	1.19	0.750			
0.4581	29320.57	3.8210	3.8211	1.6397	7.14	1.16	0.750			
0.4630	29633.70	3.8180	3.8180	1.6629	7.11	1.13	0.750			
0.4681	29957.21	3.8150	3.8153	1.6833	7.09	1.11	0.750			
0.4733	30288.93	3.8120	3.8119	1.7089	7.07	1.09	0.750			
0.4785	30623.20	3.8090	3.8092	1.7389	7.04	1.06	0.750			
0.4837	30957.69	3.8060	3.8061	1.7312	7.01	1.03	0.750			
0.4888	31282.99	3.8030	3.8031	1.7649	6.98	1.00	0.750			
0.4942	31625.93	3.8000	3.7999	1.7802	6.96	0.98	0.750			
0.4995	31966.84	3.7970	3.7969	1.8089	6.93	0.95	0.750			
0.5050	32319.75	3.7940	3.7940	1.8389	6.90	0.92	0.750			
0.5106	32675.67	3.7910	3.7912	1.8594	6.87	0.89	0.750			
0.5161	33029.02	3.7880	3.7880	1.8933	6.84	0.86	0.750			
0.5219	33401.98	3.7850	3.7848	1.9114	6.82	0.84	0.750			
0.5276	33765.45	3.7820	3.7818	1.9295	6.80	0.82	0.750			
0.5335	34143.52	3.7790	3.7793	1.9740	6.77	0.79	0.750			
0.5395	34524.89	3.7760	3.7759	2.0144	6.74	0.76	0.750			
0.5455	34910.35	3.7730	3.7730	2.0568	6.71	0.73	0.750			
0.5515	35294.30	3.7700	3.7702	2.1392	6.68	0.70	0.750			
0.5584	35734.67	3.7670	3.7669	2.2007	6.65	0.67	0.750			
0.5649	36155.18	3.7640	3.7640	2.2466	6.62	0.64	0.750			
0.5717	36586.28	3.7610	3.7615	2.3189	6.58	0.60	0.750			
0.5787	37039.59	3.7580	3.7577	2.4061	6.55	0.57	0.750			
0.5859	37497.48	3.7550	3.7550	2.5292	6.52	0.54	0.750			
0.5939	38010.21	3.7520	3.7519	2.7186	6.48	0.50	0.750			
0.6021	38536.39	3.7490	3.7489	2.8397	6.45	0.47	0.750			
0.6111	39112.78	3.7460	3.7460	2.9913	6.40	0.42	0.750			
0.6204	39703.17	3.7430	3.7430	3.1041	6.36	0.38	0.750			
0.6297	40302.89	3.7400	3.7399	3.0750	6.32	0.34	0.750			
0.6391	40902.58	3.7370	3.7370	3.0397	6.28	0.30	0.750			
0.6483	41492.40	3.7340	3.7339	2.8886	6.26	0.28	0.750			
0.6568	42033.51	3.7310	3.7310	2.6341	6.23	0.25	0.750			
0.6640	42497.93	3.7280	3.7281	2.3024	6.21	0.23	0.750			
0.6703	42897.30	3.7250	3.7252	1.9786	6.19	0.21	0.750			
0.6758	43248.23	3.7220	3.7220	1.7451	6.18	0.20	0.750			
0.6805	43548.82	3.7190	3.7189	1.5346	6.16	0.18	0.750			
0.6846	43812.06	3.7160	3.7160	1.3876	6.15	0.17	0.750			
0.6884	44055.05	3.7130	3.7129	1.2580	6.14	0.16	0.750			
0.6919	44278.87	3.7100	3.7101	1.1855	6.13	0.15	0.750			
0.6952	44492.01	3.7070	3.7071	1.1472	6.12	0.14	0.750			
0.6985	44703.69	3.7040	3.7039	1.1201	6.11	0.13	0.750			
0.7018	44918.34	3.7010	3.7010	1.0967	6.10	0.12	0.750			
0.7051	45128.20	3.6980	3.6980	1.0783	6.09	0.11	0.750			
0.7084	45335.97	3.6950	3.6952	1.0610	6.08	0.10	0.750			
0.7116	45540.71	3.6920	3.6918	1.0498	6.07	0.09	0.750			
0.7146	45736.82	3.6890	3.6891	1.0109	6.06	0.08	0.750			
0.7176	45926.82	3.6860	3.6859	0.9883	6.06	0.08	0.750			
0.7205	46113.01	3.6830	3.6832	0.9744	6.05	0.07	0.750			
0.7234	46298.96	3.6800	3.6800	0.9541	6.04	0.06	0.750			
0.7263	46480.37	3.6770	3.6768	0.9414	6.04	0.06	0.750			
0.7290	46659.15	3.6740	3.6741	0.9212	6.03	0.05	0.750			
0.7318	46833.54	3.6710	3.6709	0.9088	6.02	0.04	0.750			
0.7345	47010.06	3.6680	3.6681	0.9040	6.02	0.04	0.750			
0.7372	47180.80	3.6650	3.6648	0.8894	6.01	0.03	0.750			
0.7398	47348.36	3.6620	3.6621	0.8786	6.01	0.03	0.750			
0.7425	47517.47	3.6590	3.6591	0.8769	6.01	0.03	0.750			
0.7451	47683.79	3.6560	3.6560	0.8748	6.00	0.02	0.750			
0.7477	47852.33	3.6530	3.6531	0.8788	6.00	0.02	0.750			
0.7503	48018.70	3.6500	3.6500	0.8765	6.00	0.02	0.750			
0.7530	48190.97	3.6470	3.6469	0.8530	5.99	0.01	0.750			
0.7556	48360.34	3.6440	3.6441	0.8259	5.99	0.01	0.750			
0.7582	48523.24	3.6410	3.6410	0.7634	5.99	0.01	0.750			
0.7605	48669.91	3.6380	3.6379	0.6868	5.98	0.00	0.750			
0.7625	48798.02	3.6350	3.6351	0.5928	5.98	-0.00	0.750			
0.7641	48901.42	3.6320	3.6321	0.4913	5.98	-0.00	0.750			
0.7651	48969.34	3.6290	3.6296	0.4084	5.97	-0.01	0.750			
0.7663	49040.00	3.6260	3.6262	0.3399	5.97	-0.01	0.750			
0.7670	49088.84	3.6230	3.6230	0.2452	5.97	-0.01	0.750			
0.7676	49126.84	3.6200	3.6194	0.1885	5.97	-0.01	0.750			
0.7680	49151.91	3.6170	3.6140	0.1344	5.97	-0.01	0.750			
0.7682	49163.19	3.5960	3.5808	-0.1053	5.97	-0.01	0.750			
0.7683	49174.27	3.6140	3.4252	0.0985	5.97	-0.01	0.737			
0.7684	49180.23	3.5990	3.3413	-0.0722	5.97	-0.01	0.730			
0.7685	49184.85	3.6110	3.2764	0.0602	5.97	-0.01	0.725			
0.7686	49190.92	3.6020	3.1909	-0.0391	5.97	-0.01	0.718			
0.7686	49193.23	3.6080	3.1585	0.0271	5.97	-0.01	0.715			
0.7687	49195.25	3.6050	3.1300	-0.0060	5.97	-0.01	0.713			
