Ah_balance (normalized)	Ah_balance (mAh)	Voltage - fit (V)	Voltage -  interpolate (V)	dQ/dV (1/V)	Temperature (°C)	Temperature - diff (°C)	Current (C)	R_DC 0ms (mOhm)	R_DC 50ms (mOhm)	R_DC 50 ms PEC (mOhm)
0.0932	5962.86	4.1970	4.1990	1.0290	8.17	2.19	0.750			
0.0961	6149.40	4.1940	4.1950	0.9329	8.16	2.18	0.750			
0.0988	6320.84	4.1910	4.1914	0.8555	8.16	2.18	0.750			
0.1011	6473.55	4.1880	4.1880	0.8010	8.15	2.17	0.750			
0.1035	6622.10	4.1850	4.1847	0.7809	8.15	2.17	0.750			
0.1054	6747.76	4.1820	4.1822	0.7221	8.14	2.16	0.750			
0.1076	6888.31	4.1790	4.1790	0.7278	8.14	2.16	0.750			
0.1098	7029.36	4.1760	4.1760	0.7279	8.13	2.15	0.750			
0.1120	7169.89	4.1730	4.1730	0.7220	8.13	2.15	0.750			
0.1142	7309.10	4.1700	4.1700	0.7239	8.12	2.14	0.750			
0.1163	7444.53	4.1670	4.1671	0.7213	8.12	2.14	0.750			
0.1185	7583.16	4.1640	4.1639	0.7247	8.11	2.13	0.750			
0.1206	7720.93	4.1610	4.1610	0.7275	8.11	2.13	0.750			
0.1228	7861.70	4.1580	4.1581	0.7336	8.10	2.12	0.750			
0.1251	8005.69	4.1550	4.1550	0.7360	8.10	2.12	0.750			
0.1273	8146.94	4.1520	4.1520	0.7355	8.09	2.11	0.750			
0.1295	8286.21	4.1490	4.1491	0.7325	8.08	2.10	0.750			
0.1317	8426.50	4.1460	4.1459	0.7393	8.08	2.10	0.750			
0.1339	8568.71	4.1430	4.1430	0.7438	8.08	2.10	0.750			
0.1361	8711.90	4.1400	4.1399	0.7484	8.07	2.09	0.750			
0.1384	8857.40	4.1370	4.1370	0.7549	8.07	2.09	0.750			
0.1407	9002.91	4.1340	4.1342	0.7528	8.07	2.09	0.750			
0.1430	9150.38	4.1310	4.1309	0.7549	8.06	2.08	0.750			
0.1452	9294.96	4.1280	4.1280	0.7548	8.06	2.08	0.750			
0.1475	9437.05	4.1250	4.1251	0.7547	8.05	2.07	0.750			
0.1497	9581.74	4.1220	4.1220	0.7621	8.05	2.07	0.750			
0.1520	9728.76	4.1190	4.1188	0.7655	8.04	2.06	0.750			
0.1543	9877.23	4.1160	4.1161	0.7775	8.04	2.06	0.750			
0.1567	10027.86	4.1130	4.1131	0.7840	8.03	2.05	0.750			
0.1591	10179.53	4.1100	4.1100	0.7867	8.02	2.04	0.750			
0.1614	10331.48	4.1070	4.1069	0.7838	8.02	2.04	0.750			
0.1638	10481.70	4.1040	4.1040	0.7821	8.01	2.03	0.750			
0.1661	10631.55	4.1010	4.1011	0.7812	8.01	2.03	0.750			
0.1685	10781.27	4.0980	4.0979	0.7827	8.00	2.02	0.750			
0.1708	10930.07	4.0950	4.0951	0.7842	8.00	2.02	0.750			
0.1731	11081.55	4.0920	4.0919	0.7916	7.99	2.01	0.750			
0.1755	11233.91	4.0890	4.0890	0.7999	7.98	2.00	0.750			
0.1779	11388.72	4.0860	4.0860	0.8093	7.98	2.00	0.750			
0.1804	11544.67	4.0830	4.0830	0.8161	7.97	1.99	0.750			
0.1829	11703.88	4.0800	4.0800	0.8137	7.97	1.99	0.750			
0.1853	11860.83	4.0770	4.0771	0.8133	7.96	1.98	0.750			
0.1878	12016.33	4.0740	4.0740	0.8149	7.95	1.97	0.750			
0.1902	12172.23	4.0710	4.0710	0.8164	7.95	1.97	0.750			
0.1926	12328.18	4.0680	4.0679	0.8145	7.94	1.96	0.750			
0.1951	12484.02	4.0650	4.0651	0.8171	7.94	1.96	0.750			
0.1975	12642.03	4.0620	4.0620	0.8227	7.93	1.95	0.750			
0.2000	12802.11	4.0590	4.0590	0.8283	7.93	1.95	0.750			
0.2025	12961.04	4.0560	4.0559	0.8268	7.92	1.94	0.750			
0.2050	13119.61	4.0530	4.0530	0.8282	7.91	1.93	0.750			
0.2075	13277.73	4.0500	4.0501	0.8361	7.91	1.93	0.750			
0.2100	13439.44	4.0470	4.0469	0.8399	7.90	1.92	0.750			
0.2125	13599.56	4.0440	4.0440	0.8480	7.90	1.92	0.750			
0.2150	13762.84	4.0410	4.0410	0.8539	7.89	1.91	0.750			
0.2176	13929.60	4.0380	4.0380	0.8599	7.88	1.90	0.750			
0.2202	14095.53	4.0350	4.0350	0.8585	7.88	1.90	0.750			
0.2228	14261.75	4.0320	4.0319	0.8527	7.87	1.89	0.750			
0.2253	14421.55	4.0290	4.0292	0.8626	7.86	1.88	0.750			
0.2279	14587.17	4.0260	4.0259	0.8700	7.86	1.88	0.750			
0.2305	14753.94	4.0230	4.0229	0.8694	7.85	1.87	0.750			
0.2332	14924.20	4.0200	4.0201	0.8730	7.85	1.87	0.750			
0.2359	15094.96	4.0170	4.0171	0.8753	7.84	1.86	0.750			
0.2385	15263.33	4.0140	4.0140	0.8700	7.84	1.86	0.750			
0.2411	15428.96	4.0110	4.0110	0.8699	7.83	1.85	0.750			
0.2436	15591.71	4.0080	4.0079	0.8602	7.83	1.85	0.750			
0.2462	15756.82	4.0050	4.0050	0.8642	7.82	1.84	0.750			
0.2488	15922.72	4.0020	4.0021	0.8721	7.81	1.83	0.750			
0.2514	16090.80	3.9990	3.9990	0.8834	7.81	1.83	0.750			
0.2541	16259.95	3.9960	3.9959	0.8933	7.80	1.82	0.750			
0.2567	16431.78	3.9930	3.9930	0.9038	7.79	1.81	0.750			
0.2595	16608.28	3.9900	3.9900	0.9065	7.78	1.80	0.750			
0.2623	16787.20	3.9870	3.9870	0.9126	7.78	1.80	0.750			
0.2650	16962.45	3.9840	3.9841	0.9093	7.77	1.79	0.750			
0.2677	17135.59	3.9810	3.9811	0.9047	7.76	1.78	0.750			
0.2704	17307.96	3.9780	3.9780	0.9047	7.76	1.78	0.750			
0.2731	17477.78	3.9750	3.9750	0.9093	7.75	1.77	0.750			
0.2758	17652.92	3.9720	3.9719	0.9231	7.74	1.76	0.750			
0.2787	17833.94	3.9690	3.9690	0.9391	7.74	1.76	0.750			
0.2815	18016.64	3.9660	3.9659	0.9369	7.73	1.75	0.750			
0.2844	18200.97	3.9630	3.9631	0.9338	7.72	1.74	0.750			
0.2872	18380.25	3.9600	3.9600	0.9347	7.72	1.74	0.750			
0.2899	18556.79	3.9570	3.9571	0.9353	7.71	1.73	0.750			
0.2927	18732.06	3.9540	3.9539	0.9337	7.70	1.72	0.750			
0.2955	18913.03	3.9510	3.9510	0.9396	7.69	1.71	0.750			
0.2983	19093.66	3.9480	3.9481	0.9567	7.69	1.71	0.750			
0.3012	19279.50	3.9450	3.9450	0.9741	7.68	1.70	0.750			
0.3042	19469.66	3.9420	3.9420	0.9903	7.67	1.69	0.750			
0.3072	19661.24	3.9390	3.9390	0.9925	7.66	1.68	0.750			
0.3102	19852.00	3.9360	3.9361	1.0065	7.65	1.67	0.750			
0.3132	20047.01	3.9330	3.9331	1.0142	7.64	1.66	0.750			
0.3163	20244.48	3.9300	3.9300	1.0190	7.63	1.65	0.750			
0.3194	20439.05	3.9270	3.9269	1.0219	7.62	1.64	0.750			
0.3224	20635.85	3.9240	3.9241	1.0221	7.61	1.63	0.750			
0.3255	20829.35	3.9210	3.9211	1.0366	7.60	1.62	0.750			
0.3286	21029.15	3.9180	3.9180	1.0539	7.59	1.61	0.750			
0.3318	21234.98	3.9150	3.9146	1.0595	7.58	1.60	0.750			
0.3350	21439.97	3.9120	3.9121	1.0684	7.57	1.59	0.750			
0.3382	21646.70	3.9090	3.9091	1.0746	7.56	1.58	0.750			
0.3415	21854.01	3.9060	3.9062	1.0881	7.55	1.57	0.750			
0.3447	22063.35	3.9030	3.9029	1.0785	7.54	1.56	0.750			
0.3480	22269.49	3.9000	3.9000	1.0912	7.53	1.55	0.750			
0.3512	22479.47	3.8970	3.8970	1.1021	7.52	1.54	0.750			
0.3546	22693.89	3.8940	3.8942	1.1161	7.51	1.53	0.750			
0.3580	22910.92	3.8910	3.8910	1.1208	7.50	1.52	0.750			
0.3613	23124.23	3.8880	3.8881	1.1374	7.49	1.51	0.750			
0.3647	23341.47	3.8850	3.8850	1.1584	7.48	1.50	0.750			
0.3683	23569.55	3.8820	3.8818	1.1723	7.46	1.48	0.750			
0.3718	23792.36	3.8790	3.8791	1.1918	7.45	1.47	0.750			
0.3754	24023.46	3.8760	3.8761	1.2186	7.44	1.46	0.750			
0.3791	24264.08	3.8730	3.8729	1.2457	7.43	1.45	0.750			
0.3829	24504.08	3.8700	3.8699	1.2602	7.41	1.43	0.750			
0.3867	24748.40	3.8670	3.8670	1.2833	7.40	1.42	0.750			
0.3906	24999.34	3.8640	3.8641	1.3035	7.38	1.40	0.750			
0.3946	25255.11	3.8610	3.8608	1.3114	7.37	1.39	0.750			
0.3985	25505.16	3.8580	3.8582	1.3327	7.36	1.38	0.750			
0.4025	25762.51	3.8550	3.8549	1.3512	7.34	1.36	0.750			
0.4066	26021.99	3.8520	3.8518	1.3681	7.33	1.35	0.750	0.404	0.934	
0.4108	26288.59	3.8490	3.8491	1.3814	7.31	1.33	0.750			
0.4149	26551.72	3.8460	3.8461	1.4280	7.30	1.32	0.750			
0.4192	26827.39	3.8430	3.8426	1.4864	7.28	1.30	0.750			
0.4237	27117.72	3.8400	3.8400	1.5101	7.26	1.28	0.750			
0.4285	27421.90	3.8370	3.8371	1.5325	7.24	1.26	0.750			
0.4332	27726.80	3.8340	3.8342	1.5592	7.22	1.24	0.750			
0.4378	28022.11	3.8310	3.8311	1.5783	7.20	1.22	0.750			
0.4426	28328.90	3.8280	3.8278	1.6018	7.19	1.21	0.750			
0.4473	28627.50	3.8250	3.8250	1.6282	7.17	1.19	0.750			
0.4522	28939.91	3.8220	3.8221	1.6851	7.15	1.17	0.750			
0.4574	29274.12	3.8190	3.8191	1.7372	7.13	1.15	0.750			
0.4629	29622.84	3.8160	3.8162	1.7849	7.10	1.12	0.750			
0.4683	29968.48	3.8130	3.8129	1.7968	7.08	1.10	0.750			
0.4736	30309.98	3.8100	3.8102	1.8187	7.06	1.08	0.750			
0.4792	30665.83	3.8070	3.8070	1.8428	7.04	1.06	0.750			
0.4847	31017.67	3.8040	3.8038	1.8835	7.01	1.03	0.750			
0.4902	31375.10	3.8010	3.8012	1.9318	6.99	1.01	0.750			
0.4963	31761.59	3.7980	3.7978	1.9821	6.96	0.98	0.750			
0.5024	32152.70	3.7950	3.7949	2.0450	6.94	0.96	0.750			
0.5086	32549.03	3.7920	3.7921	2.0770	6.91	0.93	0.750			
0.5149	32954.57	3.7890	3.7888	2.1231	6.89	0.91	0.750			
0.5212	33357.19	3.7860	3.7860	2.1317	6.86	0.88	0.750			
0.5277	33770.02	3.7830	3.7829	2.2040	6.83	0.85	0.750			
0.5344	34199.53	3.7800	3.7800	2.2955	6.80	0.82	0.750			
0.5413	34644.57	3.7770	3.7769	2.3207	6.77	0.79	0.750			
0.5485	35103.56	3.7740	3.7742	2.3785	6.74	0.76	0.750			
0.5558	35569.33	3.7710	3.7710	2.3926	6.70	0.72	0.750			
0.5628	36016.99	3.7680	3.7679	2.3811	6.67	0.69	0.750			
0.5698	36467.95	3.7650	3.7651	2.3898	6.65	0.67	0.750			
0.5771	36934.99	3.7620	3.7619	2.4533	6.62	0.64	0.750			
0.5844	37404.35	3.7590	3.7589	2.5013	6.59	0.61	0.750			
0.5922	37898.37	3.7560	3.7559	2.5592	6.55	0.57	0.750			
0.5998	38385.77	3.7530	3.7532	2.6167	6.52	0.54	0.750			
0.6078	38897.02	3.7500	3.7500	2.7678	6.48	0.50	0.750			
0.6162	39435.46	3.7470	3.7470	2.8880	6.45	0.47	0.750			
0.6253	40018.53	3.7440	3.7442	2.9933	6.41	0.43	0.750			
0.6343	40594.47	3.7410	3.7410	3.0598	6.38	0.40	0.750			
0.6434	41174.91	3.7380	3.7380	3.2512	6.35	0.37	0.750			
0.6537	41834.50	3.7350	3.7351	3.3499	6.30	0.32	0.750			
0.6640	42499.13	3.7320	3.7320	3.3139	6.27	0.29	0.750			
0.6736	43108.51	3.7290	3.7290	3.1823	6.24	0.26	0.750			
0.6830	43712.31	3.7260	3.7260	3.0846	6.21	0.23	0.750			
0.6922	44300.00	3.7230	3.7231	2.8734	6.18	0.20	0.750			
0.7005	44831.26	3.7200	3.7199	2.5956	6.16	0.18	0.750			
0.7077	45291.74	3.7170	3.7170	2.3126	6.14	0.16	0.750			
0.7142	45708.95	3.7140	3.7140	2.0548	6.12	0.14	0.750			
0.7198	46065.74	3.7110	3.7108	1.8205	6.11	0.13	0.750			
0.7248	46388.68	3.7080	3.7082	1.6354	6.10	0.12	0.750			
0.7295	46687.55	3.7050	3.7051	1.4935	6.08	0.10	0.750			
0.7336	46953.03	3.7020	3.7020	1.3544	6.08	0.10	0.750			
0.7374	47190.97	3.6990	3.6992	1.2479	6.07	0.09	0.750			
0.7410	47422.26	3.6960	3.6962	1.1823	6.06	0.08	0.750			
0.7444	47638.41	3.6930	3.6927	1.1258	6.06	0.08	0.750			
0.7476	47847.16	3.6900	3.6900	1.0944	6.05	0.07	0.750			
0.7508	48051.95	3.6870	3.6871	1.0670	6.05	0.07	0.750			
0.7540	48254.99	3.6840	3.6841	1.0560	6.04	0.06	0.750			
0.7572	48459.38	3.6810	3.6810	1.0380	6.04	0.06	0.750			
0.7603	48656.10	3.6780	3.6780	1.0191	6.03	0.05	0.750			
0.7633	48851.82	3.6750	3.6750	1.0053	6.02	0.04	0.750			
0.7663	49042.77	3.6720	3.6720	0.9800	6.02	0.04	0.750			
0.7692	49229.83	3.6690	3.6689	0.9570	6.01	0.03	0.750			
0.7721	49413.02	3.6660	3.6660	0.9327	6.01	0.03	0.750			
0.7748	49586.08	3.6630	3.6630	0.9177	6.01	0.03	0.750			
0.7775	49760.20	3.6600	3.6600	0.9097	6.01	0.03	0.750			
0.7802	49932.51	3.6570	3.6569	0.8980	6.01	0.03	0.750			
0.7829	50104.74	3.6540	3.6541	0.8906	6.01	0.03	0.750			
0.7856	50277.34	3.6510	3.6509	0.8864	6.00	0.02	0.750			
0.7882	50445.50	3.6480	3.6481	0.8824	6.00	0.02	0.750			
0.7908	50612.56	3.6450	3.6450	0.8724	5.99	0.01	0.750			
0.7934	50780.66	3.6420	3.6417	0.8722	5.99	0.01	0.750			
0.7961	50947.94	3.6390	3.6392	0.8692	5.99	0.01	0.750			
0.7987	51117.73	3.6360	3.6360	0.8539	5.99	0.01	0.750			
0.8014	51288.69	3.6330	3.6329	0.8305	5.98	0.00	0.750			
0.8039	51446.47	3.6300	3.6300	0.7754	5.98	0.00	0.750			
0.8062	51595.02	3.6270	3.6269	0.7104	5.98	0.00	0.750			
0.8083	51728.75	3.6240	3.6241	0.6382	5.98	-0.00	0.750			
0.8101	51843.95	3.6210	3.6210	0.5522	5.98	-0.00	0.750			
0.8116	51940.87	3.6180	3.6180	0.4653	5.98	-0.00	0.750			
0.8127	52015.43	3.6150	3.6152	0.3903	5.97	-0.01	0.750			
0.8138	52082.83	3.6120	3.6120	0.3194	5.97	-0.01	0.750			
0.8146	52135.15	3.6090	3.6088	0.2489	5.97	-0.01	0.750			
0.8152	52174.54	3.6060	3.6057	0.1856	5.97	-0.01	0.750			
0.8156	52200.41	3.6030	3.6023	0.1260	5.97	-0.01	0.750			
0.8159	52218.65	3.5910	3.5941	-0.0632	5.97	-0.01	0.750			
0.8159	52219.26	3.6000	3.5929	0.0750	5.97	-0.01	0.750			
0.8160	52225.40	3.5970	3.5481	0.0281	5.97	-0.01	0.751			
0.8160	52226.41	3.5940	3.5391	-0.0176	5.97	-0.01	0.751			
