Ah_balance (normalized)	Ah_balance (mAh)	Voltage - fit (V)	Voltage -  interpolate (V)	dQ/dV (1/V)	Temperature (°C)	Temperature - diff (°C)	Current (C)	R_DC 0ms (mOhm)	R_DC 50ms (mOhm)	R_DC 50 ms PEC (mOhm)
0.0000	0.00	4.1010	4.1236	0.0000	5.97	-0.02	-0.750			
0.0002	12.46	4.0980	4.0970	-0.0377	5.97	-0.02	-0.750			
0.0004	24.00	4.0950	4.0943	-0.0687	5.97	-0.02	-0.750			
0.0006	40.90	4.0920	4.0914	-0.0965	5.98	-0.01	-0.750			
0.0010	62.04	4.0890	4.0891	-0.1238	5.98	-0.01	-0.750			
0.0014	88.83	4.0860	4.0861	-0.1483	5.98	-0.01	-0.750			
0.0019	120.01	4.0830	4.0830	-0.1713	5.98	-0.01	-0.750			
0.0025	157.32	4.0800	4.0800	-0.1971	5.98	-0.01	-0.750			
0.0031	196.83	4.0770	4.0771	-0.2191	5.98	-0.01	-0.750			
0.0038	240.07	4.0740	4.0741	-0.2439	5.98	-0.01	-0.750			
0.0045	288.90	4.0710	4.0709	-0.2677	5.98	-0.01	-0.750			
0.0054	342.75	4.0680	4.0680	-0.2920	5.98	-0.01	-0.750			
0.0063	401.39	4.0650	4.0650	-0.3169	5.98	-0.01	-0.750			
0.0073	465.36	4.0620	4.0620	-0.3376	5.99	-0.00	-0.750			
0.0083	533.39	4.0590	4.0590	-0.3570	5.99	-0.00	-0.750			
0.0094	602.82	4.0560	4.0561	-0.3786	5.99	-0.00	-0.750			
0.0106	676.80	4.0530	4.0530	-0.4012	5.99	0.00	-0.750			
0.0118	755.85	4.0500	4.0500	-0.4211	5.99	0.00	-0.750			
0.0131	838.57	4.0470	4.0469	-0.4431	5.99	0.00	-0.750			
0.0145	926.13	4.0440	4.0442	-0.4642	6.00	0.01	-0.750			
0.0159	1017.83	4.0410	4.0410	-0.4873	6.00	0.01	-0.750			
0.0174	1114.90	4.0380	4.0379	-0.5040	6.00	0.01	-0.750			
0.0190	1213.05	4.0350	4.0349	-0.5167	6.00	0.01	-0.750			
0.0205	1312.59	4.0320	4.0321	-0.5357	6.01	0.02	-0.750			
0.0222	1418.03	4.0290	4.0291	-0.5527	6.01	0.02	-0.750			
0.0238	1525.37	4.0260	4.0259	-0.5692	6.01	0.02	-0.750			
0.0256	1636.71	4.0230	4.0230	-0.5846	6.01	0.02	-0.750			
0.0273	1749.73	4.0200	4.0201	-0.6016	6.02	0.03	-0.750			
0.0292	1868.49	4.0170	4.0170	-0.6183	6.02	0.03	-0.750			
0.0311	1989.18	4.0140	4.0139	-0.6320	6.02	0.03	-0.750			
0.0330	2111.19	4.0110	4.0110	-0.6412	6.03	0.04	-0.750			
0.0350	2237.34	4.0080	4.0081	-0.6524	6.03	0.04	-0.750			
0.0369	2362.58	4.0050	4.0050	-0.6599	6.04	0.05	-0.750			
0.0389	2490.16	4.0020	4.0020	-0.6692	6.05	0.06	-0.750			
0.0409	2619.08	3.9990	3.9990	-0.6738	6.06	0.07	-0.750			
0.0430	2750.13	3.9960	3.9959	-0.6818	6.07	0.08	-0.750			
0.0450	2881.29	3.9930	3.9930	-0.6832	6.08	0.09	-0.750			
0.0471	3013.85	3.9900	3.9901	-0.6881	6.09	0.10	-0.750			
0.0491	3144.96	3.9870	3.9870	-0.6943	6.09	0.10	-0.750			
0.0512	3277.52	3.9840	3.9839	-0.6985	6.10	0.11	-0.750			
0.0533	3413.67	3.9810	3.9810	-0.7013	6.10	0.11	-0.750			
0.0555	3549.17	3.9780	3.9779	-0.6999	6.11	0.12	-0.750			
0.0576	3684.32	3.9750	3.9752	-0.7069	6.11	0.12	-0.750			
0.0597	3819.79	3.9720	3.9720	-0.7146	6.12	0.13	-0.750			
0.0618	3956.39	3.9690	3.9689	-0.7185	6.13	0.14	-0.750			
0.0640	4094.51	3.9660	3.9658	-0.7236	6.14	0.15	-0.750			
0.0662	4233.81	3.9630	3.9631	-0.7334	6.14	0.15	-0.750			
0.0684	4376.77	3.9600	3.9602	-0.7439	6.15	0.16	-0.750			
0.0707	4522.73	3.9570	3.9568	-0.7487	6.16	0.17	-0.750			
0.0729	4665.30	3.9540	3.9540	-0.7473	6.17	0.18	-0.750			
0.0751	4808.37	3.9510	3.9510	-0.7416	6.18	0.19	-0.750			
0.0774	4951.27	3.9480	3.9481	-0.7447	6.19	0.20	-0.750			
0.0796	5095.11	3.9450	3.9450	-0.7445	6.20	0.21	-0.750			
0.0818	5237.00	3.9420	3.9421	-0.7410	6.21	0.22	-0.750			
0.0840	5378.53	3.9390	3.9389	-0.7413	6.22	0.23	-0.750			
0.0863	5522.01	3.9360	3.9360	-0.7428	6.23	0.24	-0.750			
0.0885	5663.60	3.9330	3.9330	-0.7433	6.24	0.25	-0.750			
0.0907	5806.44	3.9300	3.9300	-0.7516	6.25	0.26	-0.750			
0.0930	5950.42	3.9270	3.9270	-0.7484	6.26	0.27	-0.750			
0.0952	6094.82	3.9240	3.9239	-0.7560	6.27	0.28	-0.750			
0.0975	6240.68	3.9210	3.9212	-0.7609	6.28	0.29	-0.750			
0.0998	6386.17	3.9180	3.9179	-0.7648	6.29	0.30	-0.750			
0.1021	6533.52	3.9150	3.9150	-0.7742	6.30	0.31	-0.750			
0.1044	6682.96	3.9120	3.9120	-0.7744	6.31	0.32	-0.750			
0.1068	6834.45	3.9090	3.9090	-0.7794	6.32	0.33	-0.750			
0.1091	6985.48	3.9060	3.9059	-0.7797	6.33	0.34	-0.750			
0.1115	7133.80	3.9030	3.9031	-0.7762	6.34	0.35	-0.750			
0.1138	7281.54	3.9000	3.9000	-0.7815	6.35	0.36	-0.750			
0.1161	7431.07	3.8970	3.8969	-0.7743	6.35	0.36	-0.750			
0.1184	7579.34	3.8940	3.8940	-0.7746	6.36	0.37	-0.750			
0.1208	7730.09	3.8910	3.8910	-0.7798	6.37	0.38	-0.750			
0.1231	7879.44	3.8880	3.8881	-0.7761	6.38	0.39	-0.750			
0.1254	8026.17	3.8850	3.8850	-0.7794	6.39	0.40	-0.750			
0.1277	8175.35	3.8820	3.8820	-0.7831	6.40	0.41	-0.750			
0.1301	8326.59	3.8790	3.8791	-0.7799	6.41	0.42	-0.750			
0.1325	8479.73	3.8760	3.8758	-0.7868	6.42	0.43	-0.750			
0.1349	8631.49	3.8730	3.8732	-0.7849	6.43	0.44	-0.750			
0.1372	8781.80	3.8700	3.8701	-0.7836	6.44	0.45	-0.750			
0.1396	8931.40	3.8670	3.8668	-0.7835	6.45	0.46	-0.750			
0.1419	9081.04	3.8640	3.8639	-0.7771	6.46	0.47	-0.750			
0.1442	9227.03	3.8610	3.8610	-0.7817	6.47	0.48	-0.750			
0.1465	9377.10	3.8580	3.8581	-0.7924	6.49	0.50	-0.750			
0.1489	9530.74	3.8550	3.8549	-0.8006	6.50	0.51	-0.750			
0.1513	9684.50	3.8520	3.8519	-0.8149	6.51	0.52	-0.750			
0.1538	9843.46	3.8490	3.8490	-0.8175	6.52	0.53	-0.750			
0.1563	10002.50	3.8460	3.8460	-0.8234	6.53	0.54	-0.750			
0.1588	10166.02	3.8430	3.8429	-0.8204	6.54	0.55	-0.750			
0.1613	10321.49	3.8400	3.8400	-0.8045	6.56	0.57	-0.750			
0.1636	10473.06	3.8370	3.8371	-0.7968	6.56	0.57	-0.750			
0.1660	10624.98	3.8340	3.8340	-0.7888	6.57	0.58	-0.750			
0.1683	10772.42	3.8310	3.8309	-0.7849	6.58	0.59	-0.750			
0.1707	10923.07	3.8280	3.8280	-0.7974	6.59	0.60	-0.750			
0.1731	11075.86	3.8250	3.8250	-0.8025	6.60	0.61	-0.750			
0.1755	11232.29	3.8220	3.8219	-0.8140	6.61	0.62	-0.750			
0.1780	11391.20	3.8190	3.8190	-0.8204	6.62	0.63	-0.750			
0.1805	11551.14	3.8160	3.8161	-0.8166	6.63	0.64	-0.750			
0.1830	11710.81	3.8130	3.8129	-0.8133	6.64	0.65	-0.750			
0.1854	11864.46	3.8100	3.8102	-0.8108	6.65	0.66	-0.750			
0.1878	12016.29	3.8070	3.8070	-0.8067	6.66	0.67	-0.750			
0.1902	12171.17	3.8040	3.8039	-0.8165	6.67	0.68	-0.750			
0.1926	12327.18	3.8010	3.8010	-0.8223	6.68	0.69	-0.750			
0.1951	12488.95	3.7980	3.7979	-0.8322	6.69	0.70	-0.750			
0.1977	12650.13	3.7950	3.7952	-0.8325	6.70	0.71	-0.750			
0.2002	12812.84	3.7920	3.7920	-0.8323	6.71	0.72	-0.750			
0.2027	12971.54	3.7890	3.7890	-0.8258	6.72	0.73	-0.750			
0.2051	13128.96	3.7860	3.7859	-0.8171	6.73	0.74	-0.750			
0.2076	13285.09	3.7830	3.7830	-0.8134	6.74	0.75	-0.750			
0.2100	13439.10	3.7800	3.7802	-0.8123	6.75	0.76	-0.750			
0.2124	13595.23	3.7770	3.7769	-0.8164	6.76	0.77	-0.750			
0.2149	13750.54	3.7740	3.7740	-0.8232	6.77	0.78	-0.750			
0.2173	13908.19	3.7710	3.7711	-0.8308	6.79	0.80	-0.750			
0.2198	14070.09	3.7680	3.7679	-0.8449	6.80	0.81	-0.750			
0.2224	14234.49	3.7650	3.7650	-0.8483	6.81	0.82	-0.750			
0.2250	14396.97	3.7620	3.7620	-0.8552	6.82	0.83	-0.750			
0.2275	14562.07	3.7590	3.7591	-0.8559	6.83	0.84	-0.750			
0.2301	14728.07	3.7560	3.7559	-0.8557	6.84	0.85	-0.750			
0.2327	14891.64	3.7530	3.7530	-0.8548	6.85	0.86	-0.750			
0.2352	15055.51	3.7500	3.7501	-0.8583	6.86	0.87	-0.750			
0.2378	15220.64	3.7470	3.7469	-0.8552	6.87	0.88	-0.750			
0.2404	15387.02	3.7440	3.7439	-0.8577	6.88	0.89	-0.750			
0.2430	15550.21	3.7410	3.7411	-0.8520	6.89	0.90	-0.750			
0.2455	15714.65	3.7380	3.7380	-0.8551	6.89	0.90	-0.750			
0.2481	15878.62	3.7350	3.7351	-0.8527	6.90	0.91	-0.750			
0.2506	16039.00	3.7320	3.7319	-0.8561	6.91	0.92	-0.750			
0.2532	16203.62	3.7290	3.7290	-0.8573	6.92	0.93	-0.750			
0.2558	16369.18	3.7260	3.7261	-0.8672	6.93	0.94	-0.750			
0.2584	16537.56	3.7230	3.7229	-0.8771	6.94	0.95	-0.750			
0.2610	16705.93	3.7200	3.7200	-0.8842	6.95	0.96	-0.750			
0.2637	16876.22	3.7170	3.7170	-0.8864	6.96	0.97	-0.750			
0.2664	17048.14	3.7140	3.7140	-0.8885	6.97	0.98	-0.750			
0.2691	17220.05	3.7110	3.7110	-0.8811	6.98	0.99	-0.750			
0.2717	17390.54	3.7080	3.7079	-0.8832	6.99	1.00	-0.750			
0.2743	17555.62	3.7050	3.7051	-0.8822	7.00	1.01	-0.750			
0.2769	17723.84	3.7020	3.7019	-0.8897	7.00	1.01	-0.750			
0.2796	17893.25	3.6990	3.6990	-0.8978	7.01	1.02	-0.750			
0.2823	18068.22	3.6960	3.6960	-0.9123	7.02	1.03	-0.750			
0.2851	18246.12	3.6930	3.6931	-0.9269	7.03	1.04	-0.750			
0.2879	18426.39	3.6900	3.6901	-0.9388	7.04	1.05	-0.750			
0.2907	18607.63	3.6870	3.6870	-0.9399	7.05	1.06	-0.750			
0.2936	18789.25	3.6840	3.6838	-0.9403	7.06	1.07	-0.750			
0.2964	18969.48	3.6810	3.6812	-0.9385	7.07	1.08	-0.750			
0.2992	19149.56	3.6780	3.6780	-0.9381	7.07	1.08	-0.750			
0.3020	19330.28	3.6750	3.6750	-0.9439	7.08	1.09	-0.750			
0.3049	19510.41	3.6720	3.6719	-0.9475	7.09	1.10	-0.750			
0.3077	19690.36	3.6690	3.6690	-0.9537	7.09	1.10	-0.750			
0.3105	19874.58	3.6660	3.6661	-0.9709	7.10	1.11	-0.750			
0.3135	20062.68	3.6630	3.6630	-0.9903	7.11	1.12	-0.750			
0.3165	20255.41	3.6600	3.6599	-1.0009	7.12	1.13	-0.750			
0.3195	20450.04	3.6570	3.6570	-1.0088	7.13	1.14	-0.750			
0.3226	20645.29	3.6540	3.6543	-1.0178	7.14	1.15	-0.750			
0.3257	20842.91	3.6510	3.6509	-1.0138	7.15	1.16	-0.750			
0.3287	21037.61	3.6480	3.6481	-1.0112	7.15	1.16	-0.750			
0.3317	21227.96	3.6450	3.6450	-1.0212	7.16	1.17	-0.750			
0.3348	21424.98	3.6420	3.6422	-1.0286	7.17	1.18	-0.750			
0.3379	21624.05	3.6390	3.6388	-1.0335	7.17	1.18	-0.750			
0.3410	21824.28	3.6360	3.6361	-1.0360	7.18	1.19	-0.750			
0.3441	22022.31	3.6330	3.6331	-1.0446	7.18	1.19	-0.750			
0.3472	22222.82	3.6300	3.6300	-1.0517	7.19	1.20	-0.750			
0.3504	22424.79	3.6270	3.6269	-1.0667	7.20	1.21	-0.750			
0.3536	22630.12	3.6240	3.6240	-1.0753	7.20	1.21	-0.750			
0.3569	22839.60	3.6210	3.6210	-1.0924	7.21	1.22	-0.750			
0.3602	23051.17	3.6180	3.6182	-1.1011	7.22	1.23	-0.750			
0.3636	23267.51	3.6150	3.6150	-1.1078	7.23	1.24	-0.750			
0.3669	23479.19	3.6120	3.6120	-1.1069	7.23	1.24	-0.750			
0.3702	23690.93	3.6090	3.6090	-1.1111	7.24	1.25	-0.750			
0.3735	23901.12	3.6060	3.6061	-1.1278	7.24	1.25	-0.750			
0.3769	24118.43	3.6030	3.6030	-1.1433	7.25	1.26	-0.750			
0.3803	24340.36	3.6000	3.5999	-1.1625	7.25	1.26	-0.750			
0.3839	24567.13	3.5970	3.5968	-1.1783	7.26	1.27	-0.750			
0.3875	24798.12	3.5940	3.5941	-1.1903	7.26	1.27	-0.750			
0.3911	25027.75	3.5910	3.5911	-1.1924	7.27	1.28	-0.750	0.418	0.885	
0.3947	25258.29	3.5880	3.5878	-1.1924	7.28	1.29	-0.750			
0.3982	25482.03	3.5850	3.5852	-1.1926	7.28	1.29	-0.750			
0.4017	25711.01	3.5820	3.5819	-1.2013	7.29	1.30	-0.750			
0.4054	25946.11	3.5790	3.5790	-1.2225	7.29	1.30	-0.750			
0.4091	26179.72	3.5760	3.5758	-1.2363	7.30	1.31	-0.750			
0.4128	26421.39	3.5730	3.5729	-1.2413	7.30	1.31	-0.750			
0.4166	26660.69	3.5700	3.5699	-1.2460	7.31	1.32	-0.750			
0.4203	26899.50	3.5670	3.5670	-1.2547	7.31	1.32	-0.750			
0.4240	27137.45	3.5640	3.5642	-1.2585	7.31	1.32	-0.750			
0.4279	27382.91	3.5610	3.5609	-1.2703	7.32	1.33	-0.750			
0.4317	27627.05	3.5580	3.5579	-1.2769	7.32	1.33	-0.750			
0.4355	27871.65	3.5550	3.5553	-1.2928	7.33	1.34	-0.750			
0.4394	28124.74	3.5520	3.5520	-1.3085	7.34	1.35	-0.750			
0.4434	28376.90	3.5490	3.5489	-1.3183	7.34	1.35	-0.750			
0.4473	28630.37	3.5460	3.5462	-1.3378	7.35	1.36	-0.750			
0.4514	28888.97	3.5430	3.5429	-1.3462	7.36	1.37	-0.750			
0.4555	29150.36	3.5400	3.5399	-1.3561	7.36	1.37	-0.750			
0.4596	29412.80	3.5370	3.5372	-1.3687	7.37	1.38	-0.750			
0.4638	29680.43	3.5340	3.5339	-1.3729	7.38	1.39	-0.750			
0.4679	29943.46	3.5310	3.5310	-1.3695	7.38	1.39	-0.750			
0.4719	30202.91	3.5280	3.5282	-1.3684	7.39	1.40	-0.750			
0.4760	30465.22	3.5250	3.5249	-1.3658	7.40	1.41	-0.750			
0.4802	30730.44	3.5220	3.5220	-1.3686	7.40	1.41	-0.750			
0.4842	30991.33	3.5190	3.5191	-1.3675	7.41	1.42	-0.750			
0.4883	31252.59	3.5160	3.5160	-1.3640	7.42	1.43	-0.750			
0.4925	31520.00	3.5130	3.5129	-1.3680	7.42	1.43	-0.750			
0.4965	31778.09	3.5100	3.5101	-1.3759	7.43	1.44	-0.750			
0.5007	32042.11	3.5070	3.5069	-1.3720	7.44	1.45	-0.750			
0.5048	32309.53	3.5040	3.5039	-1.3746	7.44	1.45	-0.750			
0.5090	32572.93	3.5010	3.5010	-1.3767	7.45	1.46	-0.750			
0.5131	32837.17	3.4980	3.4981	-1.3687	7.45	1.46	-0.750			
0.5172	33102.83	3.4950	3.4949	-1.3703	7.46	1.47	-0.750			
0.5213	33364.01	3.4920	3.4921	-1.3684	7.47	1.48	-0.750			
0.5254	33624.18	3.4890	3.4889	-1.3539	7.48	1.49	-0.750			
0.5295	33889.90	3.4860	3.4859	-1.3523	7.49	1.50	-0.750			
0.5335	34144.66	3.4830	3.4831	-1.3493	7.50	1.51	-0.750			
0.5375	34400.91	3.4800	3.4800	-1.3374	7.51	1.52	-0.750			
0.5416	34659.44	3.4770	3.4768	-1.3422	7.52	1.53	-0.750			
0.5455	34913.99	3.4740	3.4740	-1.3396	7.53	1.54	-0.750			
0.5496	35171.78	3.4710	3.4710	-1.3299	7.53	1.54	-0.750			
0.5537	35435.58	3.4680	3.4679	-1.3307	7.54	1.55	-0.750			
0.5576	35688.16	3.4650	3.4650	-1.3189	7.55	1.56	-0.750			
0.5615	35934.05	3.4620	3.4621	-1.3021	7.55	1.56	-0.750			
0.5654	36187.14	3.4590	3.4589	-1.2990	7.56	1.57	-0.750			
0.5693	36433.20	3.4560	3.4559	-1.2828	7.57	1.58	-0.750			
0.5731	36679.38	3.4530	3.4531	-1.2811	7.58	1.59	-0.750			
0.5770	36927.66	3.4500	3.4500	-1.2757	7.59	1.60	-0.750			
0.5809	37175.25	3.4470	3.4469	-1.2647	7.61	1.62	-0.750			
0.5846	37415.06	3.4440	3.4443	-1.2399	7.62	1.63	-0.750			
0.5883	37650.13	3.4410	3.4409	-1.2292	7.63	1.64	-0.750			
0.5920	37886.93	3.4380	3.4381	-1.2139	7.64	1.65	-0.750			
0.5956	38115.59	3.4350	3.4349	-1.2018	7.65	1.66	-0.750			
0.5992	38346.12	3.4320	3.4320	-1.2049	7.67	1.68	-0.750			
0.6028	38579.79	3.4290	3.4289	-1.1820	7.68	1.69	-0.750			
0.6063	38804.97	3.4260	3.4259	-1.1613	7.69	1.70	-0.750			
0.6098	39027.73	3.4230	3.4233	-1.1368	7.70	1.71	-0.750			
0.6132	39245.84	3.4200	3.4200	-1.1143	7.71	1.72	-0.750			
0.6165	39454.42	3.4170	3.4169	-1.0948	7.72	1.73	-0.750			
0.6197	39658.39	3.4140	3.4140	-1.0735	7.73	1.74	-0.750			
0.6228	39861.57	3.4110	3.4111	-1.0669	7.74	1.75	-0.750			
0.6261	40068.01	3.4080	3.4079	-1.0576	7.75	1.76	-0.750			
0.6293	40272.99	3.4050	3.4050	-1.0347	7.77	1.78	-0.750			
0.6324	40471.80	3.4020	3.4020	-1.0112	7.78	1.79	-0.750			
0.6354	40663.99	3.3990	3.3991	-0.9893	7.79	1.80	-0.750			
0.6383	40848.92	3.3960	3.3960	-0.9661	7.80	1.81	-0.750			
0.6411	41029.46	3.3930	3.3929	-0.9412	7.81	1.82	-0.750			
0.6439	41207.99	3.3900	3.3900	-0.9200	7.83	1.84	-0.750			
0.6466	41385.05	3.3870	3.3870	-0.9035	7.84	1.85	-0.750			
0.6493	41557.23	3.3840	3.3840	-0.8831	7.85	1.86	-0.750			
0.6520	41725.40	3.3810	3.3810	-0.8617	7.86	1.87	-0.750			
0.6545	41888.75	3.3780	3.3779	-0.8318	7.87	1.88	-0.750			
0.6569	42043.91	3.3750	3.3750	-0.8083	7.89	1.90	-0.750			
0.6593	42197.22	3.3720	3.3721	-0.7910	7.90	1.91	-0.750			
0.6617	42347.37	3.3690	3.3690	-0.7705	7.91	1.92	-0.750			
0.6639	42492.79	3.3660	3.3660	-0.7556	7.92	1.93	-0.750			
0.6662	42635.50	3.3630	3.3630	-0.7466	7.93	1.94	-0.750			
0.6684	42779.13	3.3600	3.3599	-0.7298	7.94	1.95	-0.750			
0.6706	42920.81	3.3570	3.3568	-0.7160	7.95	1.96	-0.750			
0.6727	43055.40	3.3540	3.3543	-0.6931	7.96	1.97	-0.750			
0.6748	43187.64	3.3510	3.3510	-0.6735	7.97	1.98	-0.750			
0.6768	43314.20	3.3480	3.3479	-0.6573	7.98	1.99	-0.750			
0.6787	43434.12	3.3450	3.3451	-0.6365	7.99	2.00	-0.750			
0.6806	43556.83	3.3420	3.3419	-0.6258	8.01	2.02	-0.750			
0.6824	43675.97	3.3390	3.3389	-0.6121	8.02	2.03	-0.750			
0.6843	43792.54	3.3360	3.3361	-0.6011	8.03	2.04	-0.750			
0.6860	43906.46	3.3330	3.3331	-0.5877	8.04	2.05	-0.750			
0.6878	44019.07	3.3300	3.3299	-0.5742	8.05	2.06	-0.750			
0.6895	44127.95	3.3270	3.3271	-0.5559	8.06	2.07	-0.750			
0.6911	44231.92	3.3240	3.3240	-0.5428	8.07	2.08	-0.750			
0.6927	44335.20	3.3210	3.3210	-0.5300	8.09	2.10	-0.750			
0.6943	44434.19	3.3180	3.3180	-0.5189	8.10	2.11	-0.750			
0.6958	44531.93	3.3150	3.3149	-0.5086	8.11	2.12	-0.750			
0.6973	44628.81	3.3120	3.3122	-0.5014	8.12	2.13	-0.750			
0.6988	44724.83	3.3090	3.3089	-0.4957	8.13	2.14	-0.750			
0.7003	44820.28	3.3060	3.3061	-0.4911	8.14	2.15	-0.750			
0.7018	44914.21	3.3030	3.3029	-0.4781	8.15	2.16	-0.750			
0.7032	45005.60	3.3000	3.3000	-0.4702	8.16	2.17	-0.750			
0.7046	45094.73	3.2970	3.2970	-0.4561	8.17	2.18	-0.750			
0.7059	45180.72	3.2940	3.2940	-0.4414	8.18	2.19	-0.750			
0.7073	45264.03	3.2910	3.2910	-0.4309	8.19	2.20	-0.750			
0.7085	45344.64	3.2880	3.2880	-0.4213	8.20	2.21	-0.750			
0.7097	45423.91	3.2850	3.2850	-0.4123	8.21	2.22	-0.750			
0.7110	45502.74	3.2820	3.2819	-0.4059	8.22	2.23	-0.750			
0.7122	45579.52	3.2790	3.2791	-0.3983	8.23	2.24	-0.750			
0.7134	45656.10	3.2760	3.2760	-0.3933	8.24	2.25	-0.750			
0.7145	45731.14	3.2730	3.2730	-0.3882	8.25	2.26	-0.750			
0.7157	45804.16	3.2700	3.2700	-0.3810	8.26	2.27	-0.750			
0.7168	45877.04	3.2670	3.2670	-0.3773	8.27	2.28	-0.750			
0.7180	45949.49	3.2640	3.2640	-0.3719	8.29	2.30	-0.750			
0.7191	46020.54	3.2610	3.2610	-0.3663	8.30	2.31	-0.750			
0.7202	46091.15	3.2580	3.2580	-0.3586	8.31	2.32	-0.750			
0.7212	46159.34	3.2550	3.2549	-0.3492	8.32	2.33	-0.750			
0.7223	46224.65	3.2520	3.2519	-0.3413	8.33	2.34	-0.750			
0.7233	46288.94	3.2490	3.2491	-0.3353	8.34	2.35	-0.750			
0.7242	46351.99	3.2460	3.2459	-0.3293	8.35	2.36	-0.750			
0.7252	46414.75	3.2430	3.2430	-0.3258	8.36	2.37	-0.750			
0.7262	46477.01	3.2400	3.2400	-0.3229	8.37	2.38	-0.750			
0.7272	46539.52	3.2370	3.2370	-0.3210	8.38	2.39	-0.750			
0.7281	46600.97	3.2340	3.2340	-0.3158	8.38	2.39	-0.750			
0.7291	46660.08	3.2310	3.2310	-0.3125	8.39	2.40	-0.750			
0.7300	46720.28	3.2280	3.2280	-0.3102	8.40	2.41	-0.750			
0.7309	46779.49	3.2250	3.2249	-0.3058	8.41	2.42	-0.750			
0.7318	46838.30	3.2220	3.2220	-0.3010	8.42	2.43	-0.750			
0.7328	46896.09	3.2190	3.2191	-0.2961	8.43	2.44	-0.750			
0.7336	46952.56	3.2160	3.2160	-0.2899	8.44	2.45	-0.750			
0.7345	47007.25	3.2130	3.2129	-0.2856	8.45	2.46	-0.750			
0.7353	47060.53	3.2100	3.2100	-0.2803	8.45	2.46	-0.750			
0.7362	47114.13	3.2070	3.2069	-0.2775	8.46	2.47	-0.750			
0.7370	47167.17	3.2040	3.2040	-0.2744	8.47	2.48	-0.750			
0.7378	47219.29	3.2010	3.2011	-0.2714	8.48	2.49	-0.750			
0.7386	47271.78	3.1980	3.1980	-0.2699	8.49	2.50	-0.750			
0.7394	47323.32	3.1950	3.1950	-0.2667	8.50	2.51	-0.750			
0.7402	47374.01	3.1920	3.1920	-0.2632	8.51	2.52	-0.750			
0.7410	47424.21	3.1890	3.1891	-0.2598	8.52	2.53	-0.750			
0.7418	47474.17	3.1860	3.1860	-0.2562	8.52	2.53	-0.750			
0.7426	47523.34	3.1830	3.1830	-0.2530	8.53	2.54	-0.750			
0.7433	47571.20	3.1800	3.1800	-0.2489	8.54	2.55	-0.750			
0.7440	47618.56	3.1770	3.1770	-0.2451	8.55	2.56	-0.750			
0.7448	47665.04	3.1740	3.1740	-0.2421	8.56	2.57	-0.750			
0.7455	47711.41	3.1710	3.1710	-0.2384	8.56	2.57	-0.750			
0.7462	47756.63	3.1680	3.1680	-0.2357	8.57	2.58	-0.750			
0.7469	47801.67	3.1650	3.1650	-0.2331	8.58	2.59	-0.750			
0.7476	47846.36	3.1620	3.1620	-0.2307	8.58	2.59	-0.750			
0.7483	47890.21	3.1590	3.1589	-0.2274	8.59	2.60	-0.750			
0.7490	47933.55	3.1560	3.1560	-0.2246	8.60	2.61	-0.750			
0.7496	47976.22	3.1530	3.1531	-0.2227	8.61	2.62	-0.750			
0.7503	48018.63	3.1500	3.1500	-0.2205	8.62	2.63	-0.750			
0.7510	48060.99	3.1470	3.1469	-0.2188	8.63	2.64	-0.750			
0.7516	48102.42	3.1440	3.1440	-0.2164	8.64	2.65	-0.750			
0.7523	48144.11	3.1410	3.1410	-0.2147	8.65	2.66	-0.750			
0.7529	48185.13	3.1380	3.1381	-0.2126	8.66	2.67	-0.750			
0.7535	48225.89	3.1350	3.1350	-0.2111	8.66	2.67	-0.750			
0.7542	48266.23	3.1320	3.1321	-0.2091	8.67	2.68	-0.750			
0.7548	48305.94	3.1290	3.1290	-0.2066	8.68	2.69	-0.750			
0.7554	48345.28	3.1260	3.1259	-0.2064	8.69	2.70	-0.750			
0.7560	48384.93	3.1230	3.1230	-0.2046	8.70	2.71	-0.750			
0.7566	48424.02	3.1200	3.1200	-0.2033	8.70	2.71	-0.750			
0.7572	48462.95	3.1170	3.1170	-0.2022	8.71	2.72	-0.750			
0.7578	48501.94	3.1140	3.1141	-0.2005	8.72	2.73	-0.750			
0.7584	48540.39	3.1110	3.1109	-0.1983	8.72	2.73	-0.750			
0.7590	48578.34	3.1080	3.1081	-0.1964	8.73	2.74	-0.750			
0.7596	48615.81	3.1050	3.1049	-0.1939	8.74	2.75	-0.750			
0.7602	48652.44	3.1020	3.1020	-0.1919	8.74	2.75	-0.750			
0.7608	48689.32	3.0990	3.0990	-0.1905	8.75	2.76	-0.750			
0.7613	48725.57	3.0960	3.0960	-0.1879	8.76	2.77	-0.750			
0.7619	48761.48	3.0930	3.0930	-0.1862	8.77	2.78	-0.750			
0.7625	48797.06	3.0900	3.0900	-0.1850	8.78	2.79	-0.750			
0.7630	48832.23	3.0870	3.0870	-0.1843	8.79	2.80	-0.750			
0.7635	48867.20	3.0840	3.0840	-0.1834	8.80	2.81	-0.750			
0.7641	48902.41	3.0810	3.0809	-0.1834	8.81	2.82	-0.750			
0.7646	48937.57	3.0780	3.0780	-0.1822	8.82	2.83	-0.750			
0.7652	48972.86	3.0750	3.0750	-0.1814	8.83	2.84	-0.750			
0.7658	49008.06	3.0720	3.0720	-0.1807	8.84	2.85	-0.750			
0.7663	49042.53	3.0690	3.0691	-0.1783	8.84	2.85	-0.750			
0.7668	49076.69	3.0660	3.0660	-0.1761	8.85	2.86	-0.750			
0.7673	49109.65	3.0630	3.0630	-0.1748	8.86	2.87	-0.750			
0.7679	49142.65	3.0600	3.0601	-0.1734	8.87	2.88	-0.750			
0.7684	49175.96	3.0570	3.0569	-0.1736	8.87	2.88	-0.750			
0.7689	49209.42	3.0540	3.0539	-0.1729	8.88	2.89	-0.750			
0.7694	49242.57	3.0510	3.0511	-0.1724	8.89	2.90	-0.750			
0.7699	49275.93	3.0480	3.0480	-0.1725	8.90	2.91	-0.750			
0.7705	49308.99	3.0450	3.0451	-0.1713	8.90	2.91	-0.750			
0.7710	49342.29	3.0420	3.0419	-0.1691	8.91	2.92	-0.750			
0.7715	49374.10	3.0390	3.0390	-0.1672	8.92	2.93	-0.750			
0.7720	49405.72	3.0360	3.0360	-0.1661	8.92	2.93	-0.750			
0.7725	49437.55	3.0330	3.0332	-0.1655	8.93	2.94	-0.750			
0.7730	49469.27	3.0300	3.0298	-0.1644	8.94	2.95	-0.750			
0.7734	49500.43	3.0270	3.0271	-0.1634	8.94	2.95	-0.750			
0.7739	49532.04	3.0240	3.0241	-0.1630	8.95	2.96	-0.750			
0.7744	49563.28	3.0210	3.0210	-0.1624	8.96	2.97	-0.750			
0.7749	49594.93	3.0180	3.0179	-0.1615	8.96	2.97	-0.750			
0.7754	49625.72	3.0150	3.0150	-0.1593	8.97	2.98	-0.750			
0.7759	49656.11	3.0120	3.0120	-0.1574	8.98	2.99	-0.750			
0.7763	49686.15	3.0090	3.0091	-0.1555	8.98	2.99	-0.750			
0.7768	49716.05	3.0060	3.0060	-0.1525	8.99	3.00	-0.750			
0.7773	49745.04	3.0030	3.0029	-0.1510	9.00	3.01	-0.750			
