Ah_balance (normalized)	Ah_balance (mAh)	Voltage - fit (V)	Voltage -  interpolate (V)	dQ/dV (1/V)	Temperature (°C)	Temperature - diff (°C)	Current (C)	R_DC 0ms (mOhm)	R_DC 50ms (mOhm)	R_DC 50 ms PEC (mOhm)
0.0937	5997.56	4.1970	4.1993	0.7573	8.07	2.09	0.750			
0.0962	6154.02	4.1940	4.1956	0.8069	8.07	2.09	0.750			
0.0987	6315.89	4.1910	4.1921	0.8010	8.06	2.08	0.750			
0.1010	6465.47	4.1880	4.1886	0.7768	8.06	2.08	0.750			
0.1035	6626.70	4.1850	4.1849	0.7555	8.05	2.07	0.750			
0.1056	6759.49	4.1820	4.1821	0.7056	8.04	2.06	0.750			
0.1078	6896.99	4.1790	4.1789	0.7129	8.04	2.06	0.750			
0.1099	7034.11	4.1760	4.1762	0.7235	8.03	2.05	0.750			
0.1121	7176.36	4.1730	4.1730	0.7210	8.02	2.04	0.750			
0.1143	7312.99	4.1700	4.1700	0.7268	8.02	2.04	0.750			
0.1165	7453.31	4.1670	4.1671	0.7283	8.01	2.03	0.750			
0.1187	7594.73	4.1640	4.1638	0.7293	8.00	2.02	0.750			
0.1208	7733.17	4.1610	4.1611	0.7277	8.00	2.02	0.750			
0.1230	7874.64	4.1580	4.1581	0.7303	7.99	2.01	0.750			
0.1252	8014.41	4.1550	4.1550	0.7244	7.99	2.01	0.750			
0.1274	8155.59	4.1520	4.1519	0.7322	7.99	2.01	0.750			
0.1296	8293.90	4.1490	4.1490	0.7273	7.98	2.00	0.750			
0.1318	8433.39	4.1460	4.1459	0.7373	7.98	2.00	0.750			
0.1340	8576.23	4.1430	4.1431	0.7447	7.98	2.00	0.750			
0.1363	8720.82	4.1400	4.1398	0.7418	7.97	1.99	0.750			
0.1385	8863.21	4.1370	4.1371	0.7496	7.97	1.99	0.750			
0.1407	9007.06	4.1340	4.1341	0.7476	7.96	1.98	0.750			
0.1430	9153.17	4.1310	4.1310	0.7533	7.95	1.97	0.750			
0.1453	9298.25	4.1280	4.1279	0.7491	7.95	1.97	0.750			
0.1475	9440.05	4.1250	4.1251	0.7492	7.94	1.96	0.750			
0.1498	9585.66	4.1220	4.1221	0.7505	7.93	1.95	0.750			
0.1520	9729.18	4.1190	4.1189	0.7614	7.93	1.95	0.750			
0.1543	9874.89	4.1160	4.1161	0.7629	7.92	1.94	0.750			
0.1566	10024.95	4.1130	4.1128	0.7663	7.91	1.93	0.750			
0.1589	10172.61	4.1100	4.1101	0.7645	7.91	1.93	0.750			
0.1613	10321.58	4.1070	4.1070	0.7670	7.90	1.92	0.750			
0.1635	10464.67	4.1040	4.1041	0.7741	7.90	1.92	0.750			
0.1658	10611.31	4.1010	4.1009	0.7756	7.89	1.91	0.750			
0.1682	10761.95	4.0980	4.0981	0.7879	7.88	1.90	0.750			
0.1706	10916.66	4.0950	4.0949	0.7936	7.88	1.90	0.750			
0.1730	11070.80	4.0920	4.0922	0.7999	7.87	1.89	0.750			
0.1754	11227.91	4.0890	4.0890	0.7959	7.87	1.89	0.750			
0.1778	11378.39	4.0860	4.0861	0.7941	7.86	1.88	0.750			
0.1801	11527.68	4.0830	4.0830	0.7904	7.86	1.88	0.750			
0.1825	11680.01	4.0800	4.0798	0.7965	7.85	1.87	0.750			
0.1849	11833.58	4.0770	4.0771	0.8040	7.85	1.87	0.750			
0.1873	11989.10	4.0740	4.0740	0.8059	7.84	1.86	0.750			
0.1898	12145.05	4.0710	4.0711	0.8102	7.84	1.86	0.750			
0.1922	12301.27	4.0680	4.0680	0.8130	7.83	1.85	0.750			
0.1946	12456.35	4.0650	4.0649	0.8136	7.83	1.85	0.750			
0.1971	12612.68	4.0620	4.0620	0.8153	7.82	1.84	0.750			
0.1995	12770.04	4.0590	4.0591	0.8157	7.82	1.84	0.750			
0.2020	12925.02	4.0560	4.0560	0.8300	7.81	1.83	0.750			
0.2045	13085.80	4.0530	4.0531	0.8371	7.81	1.83	0.750			
0.2070	13248.41	4.0500	4.0498	0.8449	7.80	1.82	0.750			
0.2096	13412.64	4.0470	4.0472	0.8499	7.79	1.81	0.750			
0.2122	13578.43	4.0440	4.0440	0.8458	7.78	1.80	0.750			
0.2147	13741.77	4.0410	4.0410	0.8454	7.78	1.80	0.750			
0.2172	13900.29	4.0380	4.0381	0.8355	7.77	1.79	0.750			
0.2196	14057.25	4.0350	4.0348	0.8335	7.76	1.78	0.750			
0.2222	14218.62	4.0320	4.0320	0.8412	7.75	1.77	0.750			
0.2247	14379.80	4.0290	4.0290	0.8489	7.75	1.77	0.750			
0.2273	14545.76	4.0260	4.0260	0.8604	7.74	1.76	0.750			
0.2299	14713.60	4.0230	4.0230	0.8640	7.74	1.76	0.750			
0.2325	14878.67	4.0200	4.0199	0.8645	7.73	1.75	0.750			
0.2351	15046.25	4.0170	4.0170	0.8630	7.72	1.74	0.750			
0.2377	15210.11	4.0140	4.0140	0.8627	7.72	1.74	0.750			
0.2402	15374.10	4.0110	4.0110	0.8676	7.71	1.73	0.750			
0.2428	15540.27	4.0080	4.0081	0.8702	7.71	1.73	0.750			
0.2455	15710.27	4.0050	4.0050	0.8734	7.70	1.72	0.750			
0.2481	15879.76	4.0020	4.0020	0.8721	7.69	1.71	0.750			
0.2507	16044.91	3.9990	3.9992	0.8797	7.68	1.70	0.750			
0.2534	16214.70	3.9960	3.9960	0.8871	7.67	1.69	0.750			
0.2560	16383.71	3.9930	3.9929	0.8871	7.66	1.68	0.750			
0.2587	16555.38	3.9900	3.9900	0.8933	7.66	1.68	0.750			
0.2614	16728.24	3.9870	3.9872	0.9046	7.65	1.67	0.750			
0.2641	16902.89	3.9840	3.9840	0.9164	7.64	1.66	0.750			
0.2669	17081.93	3.9810	3.9809	0.9204	7.64	1.66	0.750			
0.2696	17257.13	3.9780	3.9780	0.9192	7.63	1.65	0.750			
0.2724	17436.34	3.9750	3.9750	0.9178	7.62	1.64	0.750			
0.2752	17612.89	3.9720	3.9721	0.9184	7.61	1.63	0.750			
0.2780	17789.18	3.9690	3.9689	0.9168	7.60	1.62	0.750			
0.2807	17961.93	3.9660	3.9660	0.9215	7.60	1.62	0.750			
0.2834	18137.18	3.9630	3.9631	0.9246	7.59	1.61	0.750			
0.2862	18315.35	3.9600	3.9600	0.9428	7.58	1.60	0.750			
0.2890	18498.08	3.9570	3.9570	0.9552	7.57	1.59	0.750			
0.2920	18685.15	3.9540	3.9539	0.9618	7.57	1.59	0.750			
0.2949	18872.12	3.9510	3.9510	0.9716	7.56	1.58	0.750			
0.2978	19059.23	3.9480	3.9481	0.9725	7.55	1.57	0.750			
0.3007	19245.19	3.9450	3.9450	0.9802	7.54	1.56	0.750			
0.3036	19433.39	3.9420	3.9420	0.9862	7.53	1.55	0.750			
0.3066	19621.20	3.9390	3.9389	0.9882	7.52	1.54	0.750			
0.3096	19812.95	3.9360	3.9361	0.9981	7.51	1.53	0.750			
0.3126	20007.97	3.9330	3.9330	1.0064	7.50	1.52	0.750			
0.3156	20200.73	3.9300	3.9299	1.0058	7.49	1.51	0.750			
0.3187	20394.64	3.9270	3.9270	1.0097	7.48	1.50	0.750			
0.3217	20586.79	3.9240	3.9240	1.0139	7.47	1.49	0.750			
0.3247	20783.28	3.9210	3.9210	1.0124	7.46	1.48	0.750			
0.3277	20975.26	3.9180	3.9180	1.0291	7.45	1.47	0.750			
0.3308	21170.87	3.9150	3.9150	1.0462	7.45	1.47	0.750			
0.3340	21375.17	3.9120	3.9117	1.0565	7.44	1.46	0.750			
0.3372	21580.37	3.9090	3.9090	1.0781	7.43	1.45	0.750			
0.3405	21789.61	3.9060	3.9062	1.0933	7.42	1.44	0.750			
0.3438	22002.68	3.9030	3.9029	1.1087	7.41	1.43	0.750			
0.3472	22220.36	3.9000	3.9001	1.1067	7.40	1.42	0.750			
0.3504	22427.23	3.8970	3.8970	1.1024	7.39	1.41	0.750			
0.3537	22638.50	3.8940	3.8942	1.1224	7.38	1.40	0.750			
0.3571	22855.64	3.8910	3.8908	1.1400	7.37	1.39	0.750			
0.3605	23069.87	3.8880	3.8879	1.1655	7.36	1.38	0.750			
0.3640	23297.59	3.8850	3.8850	1.1884	7.34	1.36	0.750			
0.3677	23530.44	3.8820	3.8821	1.2198	7.33	1.35	0.750			
0.3714	23771.85	3.8790	3.8790	1.2398	7.32	1.34	0.750			
0.3752	24011.64	3.8760	3.8760	1.2403	7.30	1.32	0.750			
0.3789	24251.16	3.8730	3.8730	1.2426	7.29	1.31	0.750			
0.3826	24487.05	3.8700	3.8701	1.2497	7.28	1.30	0.750			
0.3863	24723.29	3.8670	3.8670	1.2593	7.26	1.28	0.750			
0.3901	24967.65	3.8640	3.8640	1.2740	7.25	1.27	0.750			
0.3939	25209.14	3.8610	3.8609	1.2981	7.23	1.25	0.750			
0.3978	25462.04	3.8580	3.8581	1.3182	7.22	1.24	0.750			
0.4019	25719.02	3.8550	3.8547	1.3621	7.20	1.22	0.750	0.389	0.932	
0.4060	25986.61	3.8520	3.8520	1.3789	7.19	1.21	0.750			
0.4102	26252.07	3.8490	3.8490	1.4060	7.17	1.19	0.750			
0.4145	26524.89	3.8460	3.8463	1.4338	7.16	1.18	0.750			
0.4187	26797.95	3.8430	3.8429	1.4563	7.14	1.16	0.750			
0.4231	27081.00	3.8400	3.8400	1.4948	7.13	1.15	0.750			
0.4278	27376.78	3.8370	3.8370	1.5140	7.11	1.13	0.750			
0.4324	27674.63	3.8340	3.8338	1.5328	7.10	1.12	0.750			
0.4370	27968.34	3.8310	3.8312	1.5640	7.08	1.10	0.750			
0.4416	28264.51	3.8280	3.8281	1.5923	7.06	1.08	0.750			
0.4464	28570.82	3.8250	3.8249	1.6329	7.04	1.06	0.750			
0.4514	28888.82	3.8220	3.8221	1.6622	7.02	1.04	0.750			
0.4565	29214.04	3.8190	3.8191	1.7062	7.00	1.02	0.750			
0.4617	29550.70	3.8160	3.8162	1.7311	6.98	1.00	0.750			
0.4670	29889.19	3.8130	3.8132	1.7664	6.96	0.98	0.750			
0.4722	30220.36	3.8100	3.8099	1.7872	6.94	0.96	0.750			
0.4776	30564.53	3.8070	3.8070	1.8274	6.92	0.94	0.750			
0.4831	30917.82	3.8040	3.8040	1.8638	6.90	0.92	0.750			
0.4888	31283.13	3.8010	3.8008	1.9328	6.87	0.89	0.750			
0.4947	31658.79	3.7980	3.7978	1.9841	6.85	0.87	0.750			
0.5009	32056.85	3.7950	3.7948	1.9935	6.83	0.85	0.750			
0.5069	32443.23	3.7920	3.7918	2.0088	6.80	0.82	0.750			
0.5128	32819.36	3.7890	3.7892	2.0552	6.78	0.80	0.750			
0.5189	33210.94	3.7860	3.7858	2.0685	6.75	0.77	0.750			
0.5252	33614.31	3.7830	3.7828	2.1121	6.73	0.75	0.750			
0.5318	34036.57	3.7800	3.7803	2.1856	6.70	0.72	0.750			
0.5386	34470.15	3.7770	3.7768	2.1975	6.68	0.70	0.750			
0.5450	34879.59	3.7740	3.7739	2.1772	6.65	0.67	0.750			
0.5514	35288.70	3.7710	3.7709	2.2016	6.62	0.64	0.750			
0.5581	35715.60	3.7680	3.7679	2.2794	6.60	0.62	0.750			
0.5649	36153.13	3.7650	3.7650	2.3370	6.57	0.59	0.750			
0.5722	36620.23	3.7620	3.7621	2.3947	6.54	0.56	0.750			
0.5794	37080.95	3.7590	3.7590	2.4254	6.51	0.53	0.750			
0.5867	37546.29	3.7560	3.7559	2.4853	6.49	0.51	0.750			
0.5941	38024.18	3.7530	3.7530	2.5649	6.46	0.48	0.750			
0.6020	38528.18	3.7500	3.7500	2.6803	6.43	0.45	0.750			
0.6102	39054.52	3.7470	3.7470	2.7749	6.40	0.42	0.750			
0.6187	39598.43	3.7440	3.7440	2.8795	6.37	0.39	0.750			
0.6275	40159.57	3.7410	3.7409	2.9919	6.35	0.37	0.750			
0.6366	40743.67	3.7380	3.7380	3.1354	6.32	0.34	0.750			
0.6463	41366.08	3.7350	3.7350	3.2546	6.29	0.31	0.750			
0.6563	42003.34	3.7320	3.7320	3.3057	6.26	0.28	0.750			
0.6662	42639.67	3.7290	3.7287	3.1822	6.23	0.25	0.750			
0.6756	43240.19	3.7260	3.7260	2.9500	6.21	0.23	0.750			
0.6840	43775.44	3.7230	3.7230	2.6749	6.19	0.21	0.750			
0.6914	44248.95	3.7200	3.7200	2.3363	6.17	0.19	0.750			
0.6981	44677.99	3.7170	3.7170	2.1356	6.15	0.17	0.750			
0.7042	45069.29	3.7140	3.7142	1.9222	6.14	0.16	0.750			
0.7096	45412.28	3.7110	3.7111	1.7319	6.12	0.14	0.750			
0.7144	45723.01	3.7080	3.7081	1.5625	6.11	0.13	0.750			
0.7187	45997.91	3.7050	3.7049	1.4063	6.10	0.12	0.750			
0.7226	46249.44	3.7020	3.7020	1.2854	6.09	0.11	0.750			
0.7262	46477.69	3.6990	3.6990	1.2044	6.08	0.10	0.750			
0.7296	46694.01	3.6960	3.6960	1.1406	6.08	0.10	0.750			
0.7328	46902.07	3.6930	3.6928	1.1054	6.07	0.09	0.750			
0.7361	47111.17	3.6900	3.6900	1.0841	6.06	0.08	0.750			
0.7393	47316.98	3.6870	3.6870	1.0691	6.06	0.08	0.750			
0.7426	47524.94	3.6840	3.6842	1.0577	6.05	0.07	0.750			
0.7457	47726.46	3.6810	3.6809	1.0356	6.05	0.07	0.750			
0.7488	47923.61	3.6780	3.6780	1.0028	6.04	0.06	0.750			
0.7517	48111.31	3.6750	3.6751	0.9810	6.04	0.06	0.750			
0.7546	48294.79	3.6720	3.6721	0.9623	6.03	0.05	0.750			
0.7575	48480.12	3.6690	3.6686	0.9472	6.03	0.05	0.750			
0.7603	48659.13	3.6660	3.6660	0.9229	6.03	0.05	0.750			
0.7630	48833.34	3.6630	3.6631	0.9184	6.02	0.04	0.750			
0.7658	49008.52	3.6600	3.6601	0.9180	6.02	0.04	0.750			
0.7685	49182.35	3.6570	3.6570	0.9123	6.01	0.03	0.750			
0.7712	49357.54	3.6540	3.6540	0.9137	6.01	0.03	0.750			
0.7740	49533.52	3.6510	3.6510	0.9119	6.01	0.03	0.750			
0.7767	49710.57	3.6480	3.6480	0.9158	6.00	0.02	0.750			
0.7795	49888.38	3.6450	3.6451	0.9161	6.00	0.02	0.750			
0.7822	50060.64	3.6420	3.6418	0.9078	6.00	0.02	0.750			
0.7849	50235.46	3.6390	3.6391	0.9059	6.00	0.02	0.750			
0.7877	50410.89	3.6360	3.6360	0.9040	5.99	0.01	0.750			
0.7905	50592.49	3.6330	3.6328	0.8789	5.99	0.01	0.750			
0.7932	50763.52	3.6300	3.6300	0.8322	5.98	0.00	0.750			
0.7957	50926.51	3.6270	3.6271	0.7590	5.98	-0.00	0.750			
0.7979	51068.30	3.6240	3.6241	0.6668	5.98	-0.00	0.750			
0.7999	51191.07	3.6210	3.6211	0.5631	5.97	-0.01	0.750			
0.8014	51286.70	3.6180	3.6180	0.4556	5.97	-0.01	0.750			
0.8024	51352.23	3.6150	3.6153	0.3695	5.97	-0.01	0.750			
0.8034	51414.92	3.6120	3.6119	0.2955	5.97	-0.01	0.750			
0.8040	51458.97	3.6090	3.6088	0.2165	5.97	-0.01	0.750			
0.8046	51493.11	3.6060	3.6054	0.1587	5.96	-0.02	0.750			
0.8049	51516.15	3.6030	3.5998	0.1050	5.96	-0.02	0.750			
0.8050	51520.24	3.5910	3.5952	-0.0836	5.96	-0.02	0.750			
0.8051	51528.37	3.6000	3.5366	0.0554	5.96	-0.02	0.745			
0.8052	51531.85	3.5940	3.5060	-0.0373	5.96	-0.02	0.742			
0.8052	51534.56	3.5970	3.4822	0.0091	5.96	-0.02	0.739			
