Ah_balance (normalized)	Ah_balance (mAh)	Voltage - fit (V)	Voltage -  interpolate (V)	dQ/dV (1/V)	Temperature (°C)	Temperature - diff (°C)	Current (C)	R_DC 0ms (mOhm)	R_DC 50ms (mOhm)	R_DC 50 ms PEC (mOhm)
0.0906	5797.89	4.1990	4.1983	0.8528	8.21	2.22	0.750			
0.0933	5970.46	4.1960	4.1981	0.9344	8.20	2.21	0.750	0.417	0.907	
0.0962	6155.51	4.1930	4.1944	0.9193	8.20	2.21	0.750			
0.0989	6327.84	4.1900	4.1903	0.8596	8.20	2.21	0.750			
0.1015	6493.38	4.1870	4.1870	0.8336	8.20	2.21	0.750			
0.1039	6651.74	4.1840	4.1836	0.7920	8.20	2.21	0.750			
0.1058	6768.51	4.1810	4.1809	0.7181	8.19	2.20	0.750			
0.1078	6902.20	4.1780	4.1780	0.7092	8.19	2.20	0.750			
0.1100	7038.24	4.1750	4.1750	0.7096	8.19	2.20	0.750			
0.1121	7175.01	4.1720	4.1721	0.7107	8.19	2.20	0.750			
0.1143	7312.76	4.1690	4.1688	0.7130	8.18	2.19	0.750			
0.1164	7447.63	4.1660	4.1662	0.7190	8.18	2.19	0.750			
0.1185	7585.56	4.1630	4.1630	0.7281	8.18	2.19	0.750			
0.1207	7725.56	4.1600	4.1600	0.7399	8.17	2.18	0.750			
0.1230	7870.42	4.1570	4.1568	0.7453	8.17	2.18	0.750			
0.1252	8015.80	4.1540	4.1542	0.7513	8.17	2.18	0.750			
0.1275	8162.74	4.1510	4.1509	0.7456	8.17	2.18	0.750			
0.1298	8305.61	4.1480	4.1481	0.7454	8.16	2.17	0.750			
0.1320	8444.91	4.1450	4.1450	0.7402	8.16	2.17	0.750			
0.1342	8586.17	4.1420	4.1420	0.7457	8.16	2.17	0.750			
0.1364	8729.42	4.1390	4.1390	0.7456	8.16	2.17	0.750			
0.1387	8874.60	4.1360	4.1361	0.7509	8.15	2.16	0.750			
0.1409	9020.47	4.1330	4.1330	0.7567	8.15	2.16	0.750			
0.1432	9166.57	4.1300	4.1301	0.7593	8.14	2.15	0.750			
0.1454	9307.51	4.1270	4.1270	0.7654	8.14	2.15	0.750			
0.1478	9456.65	4.1240	4.1238	0.7748	8.13	2.14	0.750			
0.1501	9608.84	4.1210	4.1210	0.7767	8.13	2.14	0.750			
0.1525	9760.74	4.1180	4.1180	0.7798	8.13	2.14	0.750			
0.1549	9912.20	4.1150	4.1153	0.7862	8.12	2.13	0.750			
0.1572	10063.00	4.1120	4.1120	0.7799	8.12	2.13	0.750			
0.1595	10210.42	4.1090	4.1088	0.7762	8.12	2.13	0.750			
0.1618	10356.96	4.1060	4.1061	0.7735	8.12	2.13	0.750			
0.1642	10507.83	4.1030	4.1030	0.7800	8.11	2.12	0.750			
0.1665	10657.12	4.1000	4.1001	0.7831	8.11	2.12	0.750			
0.1689	10807.35	4.0970	4.0969	0.7871	8.11	2.12	0.750			
0.1712	10958.72	4.0940	4.0940	0.7847	8.10	2.11	0.750			
0.1736	11110.71	4.0910	4.0909	0.7886	8.10	2.11	0.750			
0.1760	11261.36	4.0880	4.0881	0.7886	8.10	2.11	0.750			
0.1783	11413.19	4.0850	4.0850	0.7909	8.10	2.11	0.750			
0.1807	11562.36	4.0820	4.0820	0.8060	8.09	2.10	0.750			
0.1831	11716.63	4.0790	4.0790	0.8123	8.09	2.10	0.750			
0.1856	11875.54	4.0760	4.0757	0.8210	8.09	2.10	0.750			
0.1881	12037.54	4.0730	4.0731	0.8301	8.08	2.09	0.750			
0.1906	12197.08	4.0700	4.0702	0.8295	8.08	2.09	0.750			
0.1931	12358.72	4.0670	4.0670	0.8299	8.07	2.08	0.750			
0.1955	12515.09	4.0640	4.0640	0.8215	8.07	2.08	0.750			
0.1980	12670.97	4.0610	4.0608	0.8253	8.06	2.07	0.750			
0.2005	12830.64	4.0580	4.0581	0.8322	8.06	2.07	0.750			
0.2030	12990.28	4.0550	4.0549	0.8308	8.06	2.07	0.750			
0.2055	13150.40	4.0520	4.0521	0.8373	8.05	2.06	0.750			
0.2080	13309.52	4.0490	4.0492	0.8374	8.05	2.06	0.750			
0.2105	13472.26	4.0460	4.0457	0.8472	8.05	2.06	0.750			
0.2130	13634.78	4.0430	4.0431	0.8508	8.04	2.05	0.750			
0.2156	13800.30	4.0400	4.0400	0.8479	8.04	2.05	0.750			
0.2182	13965.65	4.0370	4.0371	0.8526	8.03	2.04	0.750			
0.2207	14127.50	4.0340	4.0341	0.8521	8.03	2.04	0.750			
0.2233	14290.41	4.0310	4.0309	0.8495	8.02	2.03	0.750			
0.2258	14453.81	4.0280	4.0279	0.8516	8.02	2.03	0.750			
0.2284	14615.79	4.0250	4.0251	0.8593	8.01	2.02	0.750			
0.2309	14780.69	4.0220	4.0221	0.8701	8.01	2.02	0.750			
0.2336	14948.74	4.0190	4.0190	0.8799	8.00	2.01	0.750			
0.2363	15121.12	4.0160	4.0160	0.8793	8.00	2.01	0.750			
0.2389	15291.22	4.0130	4.0130	0.8800	7.99	2.00	0.750			
0.2416	15462.32	4.0100	4.0101	0.8860	7.99	2.00	0.750			
0.2442	15631.77	4.0070	4.0070	0.8786	7.98	1.99	0.750			
0.2468	15797.27	4.0040	4.0039	0.8715	7.97	1.98	0.750			
0.2494	15964.21	4.0010	4.0010	0.8740	7.97	1.98	0.750			
0.2520	16130.27	3.9980	3.9982	0.8797	7.96	1.97	0.750			
0.2547	16300.89	3.9950	3.9949	0.8906	7.96	1.97	0.750			
0.2574	16474.45	3.9920	3.9920	0.8912	7.96	1.97	0.750			
0.2601	16645.56	3.9890	3.9890	0.8941	7.95	1.96	0.750			
0.2628	16817.73	3.9860	3.9861	0.9032	7.95	1.96	0.750			
0.2655	16990.82	3.9830	3.9830	0.8964	7.94	1.95	0.750			
0.2681	17161.48	3.9800	3.9799	0.8953	7.94	1.95	0.750			
0.2708	17330.82	3.9770	3.9772	0.9030	7.93	1.94	0.750			
0.2735	17503.86	3.9740	3.9737	0.9123	7.93	1.94	0.750			
0.2763	17681.01	3.9710	3.9711	0.9287	7.92	1.93	0.750			
0.2791	17860.37	3.9680	3.9680	0.9399	7.92	1.93	0.750			
0.2819	18043.06	3.9650	3.9651	0.9489	7.91	1.92	0.750			
0.2848	18228.34	3.9620	3.9620	0.9547	7.90	1.91	0.750			
0.2877	18414.99	3.9590	3.9590	0.9523	7.90	1.91	0.750			
0.2905	18594.39	3.9560	3.9560	0.9542	7.89	1.90	0.750			
0.2934	18777.30	3.9530	3.9531	0.9533	7.88	1.89	0.750			
0.2962	18959.38	3.9500	3.9500	0.9523	7.87	1.88	0.750			
0.2991	19140.48	3.9470	3.9470	0.9660	7.87	1.88	0.750			
0.3020	19326.60	3.9440	3.9442	0.9724	7.86	1.87	0.750			
0.3049	19513.32	3.9410	3.9408	0.9868	7.86	1.87	0.750			
0.3079	19705.88	3.9380	3.9381	1.0001	7.85	1.86	0.750			
0.3109	19900.56	3.9350	3.9348	0.9971	7.85	1.86	0.750			
0.3140	20095.38	3.9320	3.9320	1.0049	7.84	1.85	0.750			
0.3170	20287.24	3.9290	3.9292	1.0091	7.83	1.84	0.750			
0.3199	20475.75	3.9260	3.9260	1.0121	7.82	1.83	0.750			
0.3230	20673.74	3.9230	3.9227	1.0216	7.81	1.82	0.750			
0.3261	20868.07	3.9200	3.9200	1.0153	7.81	1.82	0.750			
0.3291	21063.14	3.9170	3.9171	1.0272	7.80	1.81	0.750			
0.3322	21262.51	3.9140	3.9143	1.0502	7.80	1.81	0.750			
0.3354	21463.97	3.9110	3.9107	1.0556	7.79	1.80	0.750			
0.3385	21664.88	3.9080	3.9080	1.0606	7.78	1.79	0.750			
0.3418	21872.20	3.9050	3.9050	1.0765	7.77	1.78	0.750			
0.3451	22084.15	3.9020	3.9021	1.0954	7.75	1.76	0.750			
0.3484	22294.53	3.8990	3.8989	1.1010	7.74	1.75	0.750			
0.3516	22504.97	3.8960	3.8961	1.1157	7.73	1.74	0.750			
0.3550	22717.78	3.8930	3.8929	1.1258	7.72	1.73	0.750			
0.3584	22937.71	3.8900	3.8901	1.1503	7.71	1.72	0.750			
0.3619	23161.66	3.8870	3.8870	1.1630	7.70	1.71	0.750			
0.3654	23386.28	3.8840	3.8841	1.1719	7.68	1.69	0.750			
0.3690	23614.47	3.8810	3.8810	1.1874	7.67	1.68	0.750			
0.3725	23842.06	3.8780	3.8779	1.2029	7.66	1.67	0.750			
0.3761	24072.84	3.8750	3.8750	1.2144	7.65	1.66	0.750			
0.3798	24308.39	3.8720	3.8720	1.2322	7.64	1.65	0.750			
0.3836	24547.55	3.8690	3.8689	1.2496	7.63	1.64	0.750			
0.3873	24788.73	3.8660	3.8661	1.2752	7.61	1.62	0.750			
0.3912	25035.90	3.8630	3.8630	1.2926	7.60	1.61	0.750			
0.3951	25283.94	3.8600	3.8600	1.3122	7.59	1.60	0.750			
0.3990	25536.89	3.8570	3.8570	1.3295	7.58	1.59	0.750			
0.4030	25794.67	3.8540	3.8541	1.3575	7.56	1.57	0.750			
0.4072	26061.77	3.8510	3.8510	1.3688	7.54	1.55	0.750			
0.4113	26323.07	3.8480	3.8481	1.3900	7.53	1.54	0.750	0.394	0.955	
0.4155	26589.04	3.8450	3.8451	1.4206	7.51	1.52	0.750			
0.4198	26866.94	3.8420	3.8420	1.4462	7.49	1.50	0.750			
0.4241	27144.33	3.8390	3.8388	1.4796	7.48	1.49	0.750			
0.4285	27425.95	3.8360	3.8363	1.5190	7.46	1.47	0.750			
0.4332	27724.87	3.8330	3.8330	1.5664	7.44	1.45	0.750			
0.4380	28031.57	3.8300	3.8299	1.6207	7.42	1.43	0.750			
0.4429	28346.38	3.8270	3.8269	1.6282	7.40	1.41	0.750			
0.4479	28665.28	3.8240	3.8237	1.6689	7.38	1.39	0.750			
0.4531	28995.75	3.8210	3.8211	1.7133	7.36	1.37	0.750			
0.4581	29321.12	3.8180	3.8177	1.7206	7.33	1.34	0.750			
0.4633	29652.86	3.8150	3.8149	1.7643	7.31	1.32	0.750			
0.4687	29994.60	3.8120	3.8122	1.8062	7.29	1.30	0.750			
0.4742	30348.70	3.8090	3.8088	1.8408	7.28	1.29	0.750			
0.4797	30702.11	3.8060	3.8062	1.8859	7.25	1.26	0.750			
0.4855	31073.54	3.8030	3.8030	1.9263	7.22	1.23	0.750			
0.4914	31449.70	3.8000	3.7998	1.9974	7.19	1.20	0.750			
0.4974	31834.93	3.7970	3.7968	2.0257	7.16	1.17	0.750			
0.5037	32236.67	3.7940	3.7938	2.0671	7.13	1.14	0.750			
0.5100	32638.56	3.7910	3.7910	2.1197	7.10	1.11	0.750			
0.5163	33043.16	3.7880	3.7879	2.1299	7.07	1.08	0.750			
0.5227	33451.35	3.7850	3.7848	2.1741	7.03	1.04	0.750			
0.5293	33875.93	3.7820	3.7820	2.2219	7.01	1.02	0.750			
0.5360	34305.12	3.7790	3.7789	2.3054	6.98	0.99	0.750			
0.5430	34754.64	3.7760	3.7760	2.3330	6.94	0.95	0.750			
0.5500	35202.57	3.7730	3.7730	2.3929	6.91	0.92	0.750			
0.5573	35665.99	3.7700	3.7700	2.4421	6.87	0.88	0.750			
0.5648	36144.22	3.7670	3.7668	2.4704	6.83	0.84	0.750			
0.5722	36622.54	3.7640	3.7641	2.5108	6.79	0.80	0.750			
0.5800	37118.80	3.7610	3.7609	2.5609	6.76	0.77	0.750			
0.5875	37598.11	3.7580	3.7581	2.6180	6.72	0.73	0.750			
0.5955	38114.74	3.7550	3.7549	2.6624	6.68	0.69	0.750			
0.6037	38633.77	3.7520	3.7520	2.6509	6.64	0.65	0.750			
0.6117	39148.43	3.7490	3.7489	2.6742	6.61	0.62	0.750			
0.6195	39646.83	3.7460	3.7461	2.7961	6.57	0.58	0.750			
0.6280	40192.82	3.7430	3.7429	3.0303	6.53	0.54	0.750			
0.6377	40810.15	3.7400	3.7400	3.1653	6.49	0.50	0.750			
0.6474	41436.04	3.7370	3.7372	3.2399	6.44	0.45	0.750			
0.6572	42060.27	3.7340	3.7340	3.2347	6.40	0.41	0.750			
0.6667	42671.23	3.7310	3.7310	3.2590	6.37	0.38	0.750			
0.6768	43312.06	3.7280	3.7279	3.2952	6.33	0.34	0.750			
0.6868	43954.91	3.7250	3.7250	3.2498	6.30	0.31	0.750			
0.6965	44576.15	3.7220	3.7219	2.9950	6.26	0.27	0.750			
0.7050	45120.78	3.7190	3.7192	2.7138	6.22	0.23	0.750			
0.7127	45612.94	3.7160	3.7159	2.4418	6.20	0.21	0.750			
0.7194	46044.51	3.7130	3.7133	2.1617	6.18	0.19	0.750			
0.7256	46436.29	3.7100	3.7100	1.9193	6.16	0.17	0.750			
0.7308	46773.05	3.7070	3.7069	1.7246	6.15	0.16	0.750			
0.7355	47071.66	3.7040	3.7040	1.5217	6.13	0.14	0.750			
0.7397	47342.65	3.7010	3.7009	1.4022	6.12	0.13	0.750			
0.7436	47591.37	3.6980	3.6982	1.3049	6.11	0.12	0.750			
0.7473	47827.19	3.6950	3.6948	1.2167	6.10	0.11	0.750			
0.7508	48052.04	3.6920	3.6920	1.1556	6.09	0.10	0.750			
0.7541	48264.35	3.6890	3.6891	1.1014	6.09	0.10	0.750			
0.7573	48467.18	3.6860	3.6861	1.0696	6.08	0.09	0.750			
0.7605	48669.56	3.6830	3.6826	1.0497	6.07	0.08	0.750			
0.7635	48863.42	3.6800	3.6800	1.0171	6.06	0.07	0.750			
0.7665	49056.15	3.6770	3.6770	1.0096	6.06	0.07	0.750			
0.7696	49252.24	3.6740	3.6740	1.0044	6.05	0.06	0.750			
0.7726	49444.65	3.6710	3.6709	0.9940	6.04	0.05	0.750			
0.7756	49635.45	3.6680	3.6680	0.9646	6.04	0.05	0.750			
0.7784	49817.54	3.6650	3.6650	0.9407	6.03	0.04	0.750			
0.7812	49996.39	3.6620	3.6621	0.9239	6.03	0.04	0.750			
0.7839	50172.60	3.6590	3.6588	0.9057	6.02	0.03	0.750			
0.7866	50339.42	3.6560	3.6559	0.8852	6.02	0.03	0.750			
0.7892	50509.32	3.6530	3.6531	0.8697	6.01	0.02	0.750			
0.7918	50674.92	3.6500	3.6499	0.8574	6.01	0.02	0.750			
0.7944	50841.02	3.6470	3.6470	0.8477	6.00	0.01	0.750			
0.7969	50999.69	3.6440	3.6442	0.8320	5.99	0.00	0.750			
0.7993	51157.20	3.6410	3.6411	0.8235	5.99	0.00	0.750			
0.8018	51316.12	3.6380	3.6379	0.8083	5.99	0.00	0.750			
0.8042	51471.30	3.6350	3.6350	0.7902	5.99	0.00	0.750			
0.8067	51626.43	3.6320	3.6320	0.7675	5.99	0.00	0.750			
0.8090	51772.85	3.6290	3.6289	0.7154	5.99	0.00	0.750			
0.8111	51910.40	3.6260	3.6261	0.6641	5.99	0.00	0.750			
0.8130	52033.57	3.6230	3.6230	0.5891	5.99	0.00	0.750			
0.8147	52141.38	3.6200	3.6199	0.5125	5.99	0.00	0.750			
0.8161	52232.02	3.6170	3.6171	0.4367	5.99	0.00	0.750			
0.8172	52301.17	3.6140	3.6140	0.3675	5.99	0.00	0.750			
0.8182	52363.54	3.6110	3.6111	0.2968	5.99	0.00	0.750			
0.8190	52413.06	3.6080	3.6078	0.2341	5.99	0.00	0.750			
0.8195	52447.88	3.6050	3.6050	0.1712	5.99	0.00	0.750			
0.8200	52477.10	3.6020	3.6009	0.1219	5.99	0.00	0.750			
0.8202	52491.54	3.5900	3.5941	-0.0808	5.99	0.00	0.750			
0.8202	52491.96	3.5990	3.5935	0.0702	5.99	0.00	0.750			
0.8203	52502.19	3.5930	3.5191	-0.0302	5.99	0.00	0.732			
0.8204	52503.12	3.5960	3.5113	0.0205	5.99	0.00	0.730			
