Ah_balance (normalized)	Ah_balance (mAh)	Voltage - fit (V)	Voltage -  interpolate (V)	dQ/dV (1/V)	Temperature (°C)	Temperature - diff (°C)	Current (C)	R_DC 0ms (mOhm)	R_DC 50ms (mOhm)	R_DC 50 ms PEC (mOhm)
0.0000	0.00	4.0870	4.1301	0.0000	5.99	-0.02	-0.749			
0.0000	0.00	4.0900	4.1301	0.0000	5.99	-0.02	-0.749			
0.0000	0.00	4.0930	4.1301	0.0000	5.99	-0.02	-0.749			
0.0000	3.12	4.0840	4.0998	-0.0350	5.99	-0.02	-0.750			
0.0002	12.26	4.0810	4.0821	-0.0602	5.99	-0.02	-0.750			
0.0004	26.61	4.0780	4.0781	-0.0848	5.99	-0.02	-0.750			
0.0007	45.67	4.0750	4.0747	-0.1086	5.99	-0.02	-0.750			
0.0011	68.86	4.0720	4.0720	-0.1330	5.99	-0.02	-0.750			
0.0015	96.78	4.0690	4.0690	-0.1565	5.99	-0.02	-0.750			
0.0020	129.09	4.0660	4.0660	-0.1784	6.00	-0.01	-0.750			
0.0026	166.31	4.0630	4.0631	-0.2035	6.00	-0.01	-0.750			
0.0032	207.58	4.0600	4.0599	-0.2266	6.00	-0.01	-0.750			
0.0040	252.99	4.0570	4.0570	-0.2502	6.00	-0.01	-0.750			
0.0047	303.36	4.0540	4.0539	-0.2731	6.00	-0.01	-0.750			
0.0056	358.02	4.0510	4.0511	-0.2969	6.00	-0.01	-0.750			
0.0065	416.92	4.0480	4.0480	-0.3226	6.00	-0.01	-0.750			
0.0075	481.33	4.0450	4.0450	-0.3464	6.00	-0.01	-0.750			
0.0086	550.23	4.0420	4.0420	-0.3695	6.01	-0.00	-0.750			
0.0098	624.11	4.0390	4.0390	-0.3929	6.01	-0.00	-0.750			
0.0110	702.35	4.0360	4.0361	-0.4148	6.01	-0.00	-0.750			
0.0123	784.13	4.0330	4.0330	-0.4368	6.01	0.00	-0.750			
0.0136	870.21	4.0300	4.0300	-0.4549	6.01	0.00	-0.750			
0.0150	959.10	4.0270	4.0270	-0.4757	6.02	0.01	-0.750			
0.0164	1052.62	4.0240	4.0240	-0.4961	6.02	0.01	-0.750			
0.0180	1149.47	4.0210	4.0210	-0.5142	6.02	0.01	-0.750			
0.0195	1250.47	4.0180	4.0181	-0.5325	6.02	0.01	-0.750			
0.0212	1354.78	4.0150	4.0150	-0.5474	6.03	0.02	-0.750			
0.0228	1461.38	4.0120	4.0118	-0.5638	6.03	0.02	-0.750			
0.0246	1571.41	4.0090	4.0089	-0.5797	6.03	0.02	-0.750			
0.0263	1682.76	4.0060	4.0061	-0.5967	6.04	0.03	-0.750			
0.0281	1799.84	4.0030	4.0031	-0.6122	6.05	0.04	-0.750			
0.0300	1919.48	4.0000	3.9999	-0.6211	6.06	0.05	-0.750			
0.0319	2041.35	3.9970	3.9969	-0.6335	6.06	0.05	-0.750			
0.0338	2164.00	3.9940	3.9941	-0.6446	6.07	0.06	-0.750			
0.0358	2288.33	3.9910	3.9908	-0.6510	6.08	0.07	-0.750			
0.0377	2414.50	3.9880	3.9879	-0.6568	6.09	0.08	-0.750			
0.0397	2540.25	3.9850	3.9850	-0.6658	6.10	0.09	-0.750			
0.0417	2668.32	3.9820	3.9821	-0.6785	6.11	0.10	-0.750			
0.0438	2800.63	3.9790	3.9789	-0.6845	6.12	0.11	-0.750			
0.0458	2932.98	3.9760	3.9760	-0.6896	6.13	0.12	-0.750			
0.0479	3066.03	3.9730	3.9730	-0.6957	6.14	0.13	-0.750			
0.0500	3201.05	3.9700	3.9701	-0.7006	6.15	0.14	-0.750			
0.0521	3335.47	3.9670	3.9668	-0.7050	6.15	0.14	-0.750			
0.0542	3469.22	3.9640	3.9641	-0.7102	6.16	0.15	-0.750			
0.0564	3607.67	3.9610	3.9609	-0.7125	6.17	0.16	-0.750			
0.0586	3747.49	3.9580	3.9579	-0.7180	6.18	0.17	-0.750			
0.0607	3884.64	3.9550	3.9552	-0.7177	6.19	0.18	-0.750			
0.0628	4021.59	3.9520	3.9519	-0.7202	6.20	0.19	-0.750			
0.0650	4160.36	3.9490	3.9489	-0.7214	6.21	0.20	-0.750			
0.0671	4297.29	3.9460	3.9460	-0.7191	6.22	0.21	-0.750			
0.0693	4435.68	3.9430	3.9431	-0.7220	6.23	0.22	-0.750			
0.0715	4577.29	3.9400	3.9400	-0.7324	6.24	0.23	-0.750			
0.0737	4716.88	3.9370	3.9371	-0.7349	6.25	0.24	-0.750			
0.0759	4856.42	3.9340	3.9340	-0.7386	6.26	0.25	-0.750			
0.0781	4999.07	3.9310	3.9310	-0.7495	6.28	0.27	-0.750			
0.0804	5145.06	3.9280	3.9280	-0.7581	6.29	0.28	-0.750			
0.0827	5295.68	3.9250	3.9249	-0.7583	6.30	0.29	-0.750			
0.0850	5440.65	3.9220	3.9219	-0.7512	6.31	0.30	-0.750			
0.0873	5584.71	3.9190	3.9190	-0.7453	6.33	0.32	-0.750			
0.0895	5725.78	3.9160	3.9159	-0.7488	6.34	0.33	-0.750			
0.0917	5866.66	3.9130	3.9130	-0.7452	6.35	0.34	-0.750			
0.0939	6008.53	3.9100	3.9100	-0.7466	6.36	0.35	-0.750			
0.0962	6156.53	3.9070	3.9071	-0.7517	6.37	0.36	-0.750			
0.0985	6302.57	3.9040	3.9041	-0.7549	6.38	0.37	-0.750			
0.1007	6445.78	3.9010	3.9010	-0.7515	6.39	0.38	-0.750			
0.1029	6588.59	3.8980	3.8980	-0.7526	6.40	0.39	-0.750			
0.1052	6731.89	3.8950	3.8950	-0.7548	6.41	0.40	-0.750			
0.1075	6878.13	3.8920	3.8919	-0.7568	6.42	0.41	-0.750			
0.1098	7025.47	3.8890	3.8890	-0.7579	6.43	0.42	-0.750			
0.1121	7171.49	3.8860	3.8861	-0.7579	6.44	0.43	-0.750			
0.1143	7315.22	3.8830	3.8830	-0.7646	6.46	0.45	-0.750			
0.1166	7462.26	3.8800	3.8800	-0.7703	6.47	0.46	-0.750			
0.1189	7609.01	3.8770	3.8769	-0.7719	6.48	0.47	-0.750			
0.1212	7759.58	3.8740	3.8741	-0.7755	6.49	0.48	-0.750			
0.1236	7911.63	3.8710	3.8711	-0.7799	6.50	0.49	-0.750			
0.1260	8061.13	3.8680	3.8680	-0.7770	6.51	0.50	-0.750			
0.1283	8209.52	3.8650	3.8651	-0.7766	6.53	0.52	-0.750			
0.1306	8357.41	3.8620	3.8619	-0.7719	6.54	0.53	-0.750			
0.1329	8506.45	3.8590	3.8589	-0.7699	6.55	0.54	-0.750			
0.1352	8654.01	3.8560	3.8560	-0.7698	6.57	0.56	-0.750			
0.1375	8801.09	3.8530	3.8530	-0.7780	6.58	0.57	-0.750			
0.1398	8949.59	3.8500	3.8499	-0.7803	6.59	0.58	-0.750			
0.1422	9100.84	3.8470	3.8469	-0.7739	6.61	0.60	-0.750			
0.1445	9248.98	3.8440	3.8441	-0.7741	6.62	0.61	-0.750			
0.1469	9400.84	3.8410	3.8411	-0.7747	6.64	0.63	-0.750			
0.1492	9548.30	3.8380	3.8380	-0.7720	6.65	0.64	-0.750			
0.1515	9694.24	3.8350	3.8350	-0.7644	6.67	0.66	-0.750			
0.1537	9839.00	3.8320	3.8320	-0.7629	6.68	0.67	-0.750			
0.1560	9985.28	3.8290	3.8290	-0.7694	6.69	0.68	-0.750			
0.1584	10135.01	3.8260	3.8260	-0.7786	6.71	0.70	-0.750			
0.1607	10283.55	3.8230	3.8230	-0.7786	6.72	0.71	-0.750			
0.1630	10434.33	3.8200	3.8200	-0.7844	6.73	0.72	-0.750			
0.1654	10585.12	3.8170	3.8171	-0.7855	6.74	0.73	-0.750			
0.1678	10738.03	3.8140	3.8140	-0.7883	6.75	0.74	-0.750			
0.1701	10889.28	3.8110	3.8109	-0.7834	6.76	0.75	-0.750			
0.1725	11038.78	3.8080	3.8081	-0.7818	6.77	0.76	-0.750			
0.1748	11188.38	3.8050	3.8050	-0.7830	6.78	0.77	-0.750			
0.1772	11338.58	3.8020	3.8020	-0.7858	6.79	0.78	-0.750			
0.1795	11488.64	3.7990	3.7990	-0.7895	6.80	0.79	-0.750			
0.1819	11641.23	3.7960	3.7960	-0.7867	6.82	0.81	-0.750			
0.1843	11792.93	3.7930	3.7929	-0.7859	6.83	0.82	-0.750			
0.1866	11944.41	3.7900	3.7901	-0.7907	6.84	0.83	-0.750			
0.1890	12095.56	3.7870	3.7870	-0.7885	6.85	0.84	-0.750			
0.1913	12245.97	3.7840	3.7839	-0.7982	6.87	0.86	-0.750			
0.1938	12400.92	3.7810	3.7810	-0.8004	6.88	0.87	-0.750			
0.1962	12555.75	3.7780	3.7779	-0.8008	6.89	0.88	-0.750			
0.1986	12712.38	3.7750	3.7754	-0.7977	6.90	0.89	-0.750			
0.2010	12865.90	3.7720	3.7720	-0.7932	6.91	0.90	-0.750			
0.2034	13015.13	3.7690	3.7690	-0.7963	6.92	0.91	-0.750			
0.2057	13165.94	3.7660	3.7660	-0.7958	6.93	0.92	-0.750			
0.2081	13319.65	3.7630	3.7628	-0.8013	6.95	0.94	-0.750			
0.2105	13474.75	3.7600	3.7602	-0.8013	6.96	0.95	-0.750			
0.2130	13629.13	3.7570	3.7570	-0.8113	6.97	0.96	-0.750			
0.2154	13785.11	3.7540	3.7541	-0.8162	6.98	0.97	-0.750			
0.2178	13941.77	3.7510	3.7509	-0.8143	7.00	0.99	-0.750			
0.2203	14097.25	3.7480	3.7480	-0.8162	7.01	1.00	-0.750			
0.2228	14256.04	3.7450	3.7451	-0.8240	7.03	1.02	-0.750			
0.2252	14415.24	3.7420	3.7420	-0.8249	7.04	1.03	-0.750			
0.2277	14575.48	3.7390	3.7389	-0.8271	7.05	1.04	-0.750			
0.2302	14731.76	3.7360	3.7361	-0.8241	7.07	1.06	-0.750			
0.2327	14890.15	3.7330	3.7330	-0.8253	7.08	1.07	-0.750			
0.2351	15048.88	3.7300	3.7300	-0.8357	7.10	1.09	-0.750			
0.2376	15208.80	3.7270	3.7269	-0.8404	7.11	1.10	-0.750			
0.2402	15371.45	3.7240	3.7240	-0.8441	7.12	1.11	-0.750			
0.2427	15535.39	3.7210	3.7212	-0.8487	7.13	1.12	-0.750			
0.2453	15699.41	3.7180	3.7180	-0.8497	7.14	1.13	-0.750			
0.2479	15863.12	3.7150	3.7148	-0.8476	7.15	1.14	-0.750			
0.2504	16024.00	3.7120	3.7120	-0.8530	7.16	1.15	-0.750			
0.2529	16185.05	3.7090	3.7090	-0.8641	7.17	1.16	-0.750			
0.2555	16352.93	3.7060	3.7059	-0.8727	7.18	1.17	-0.750			
0.2582	16522.13	3.7030	3.7030	-0.8760	7.20	1.19	-0.750			
0.2609	16694.45	3.7000	3.7001	-0.8855	7.21	1.20	-0.750			
0.2635	16864.70	3.6970	3.6970	-0.8930	7.22	1.21	-0.750			
0.2662	17036.01	3.6940	3.6941	-0.8975	7.23	1.22	-0.750			
0.2689	17206.53	3.6910	3.6909	-0.8993	7.24	1.23	-0.750			
0.2716	17379.30	3.6880	3.6880	-0.9020	7.25	1.24	-0.750			
0.2743	17555.76	3.6850	3.6851	-0.9106	7.26	1.25	-0.750			
0.2770	17730.08	3.6820	3.6821	-0.9198	7.27	1.26	-0.750			
0.2798	17907.59	3.6790	3.6790	-0.9277	7.28	1.27	-0.750			
0.2826	18086.04	3.6760	3.6758	-0.9308	7.29	1.28	-0.750			
0.2854	18266.17	3.6730	3.6732	-0.9356	7.30	1.29	-0.750			
0.2882	18446.40	3.6700	3.6700	-0.9453	7.31	1.30	-0.750			
0.2911	18630.30	3.6670	3.6670	-0.9442	7.32	1.31	-0.750			
0.2939	18811.43	3.6640	3.6639	-0.9401	7.33	1.32	-0.750			
0.2967	18987.91	3.6610	3.6610	-0.9385	7.34	1.33	-0.750			
0.2995	19168.21	3.6580	3.6581	-0.9472	7.35	1.34	-0.750			
0.3024	19350.41	3.6550	3.6550	-0.9650	7.37	1.36	-0.750			
0.3053	19537.49	3.6520	3.6518	-0.9714	7.38	1.37	-0.750			
0.3082	19725.06	3.6490	3.6490	-0.9790	7.39	1.38	-0.750			
0.3112	19916.49	3.6460	3.6463	-0.9970	7.40	1.39	-0.750			
0.3142	20109.40	3.6430	3.6430	-1.0103	7.41	1.40	-0.750			
0.3173	20305.48	3.6400	3.6398	-1.0082	7.42	1.41	-0.750			
0.3203	20496.37	3.6370	3.6370	-1.0069	7.43	1.42	-0.750			
0.3233	20691.96	3.6340	3.6342	-1.0166	7.44	1.43	-0.750			
0.3264	20887.53	3.6310	3.6309	-1.0240	7.45	1.44	-0.750			
0.3294	21082.93	3.6280	3.6279	-1.0299	7.46	1.45	-0.750			
0.3325	21280.15	3.6250	3.6250	-1.0375	7.47	1.46	-0.750			
0.3357	21481.64	3.6220	3.6221	-1.0504	7.48	1.47	-0.750			
0.3389	21687.67	3.6190	3.6189	-1.0597	7.49	1.48	-0.750			
0.3420	21890.69	3.6160	3.6161	-1.0630	7.49	1.48	-0.750			
0.3452	22093.74	3.6130	3.6129	-1.0712	7.50	1.49	-0.750			
0.3484	22297.61	3.6100	3.6103	-1.0863	7.51	1.50	-0.750			
0.3516	22505.42	3.6070	3.6070	-1.0975	7.52	1.51	-0.750			
0.3550	22719.17	3.6040	3.6039	-1.1094	7.53	1.52	-0.750			
0.3584	22936.53	3.6010	3.6010	-1.1173	7.53	1.52	-0.750			
0.3618	23154.48	3.5980	3.5981	-1.1320	7.54	1.53	-0.750			
0.3652	23372.56	3.5950	3.5950	-1.1160	7.55	1.54	-0.750			
0.3685	23583.60	3.5920	3.5920	-1.1198	7.56	1.55	-0.750			
0.3718	23797.98	3.5890	3.5888	-1.1228	7.57	1.56	-0.750			
0.3752	24011.48	3.5860	3.5859	-1.1438	7.58	1.57	-0.750			
0.3786	24232.40	3.5830	3.5831	-1.1609	7.59	1.58	-0.750	0.376	0.813	
0.3822	24459.90	3.5800	3.5798	-1.1685	7.60	1.59	-0.750			
0.3857	24685.03	3.5770	3.5772	-1.1673	7.61	1.60	-0.750			
0.3893	24915.26	3.5740	3.5741	-1.1860	7.62	1.61	-0.750			
0.3928	25140.01	3.5710	3.5710	-1.1808	7.63	1.62	-0.750			
0.3964	25368.46	3.5680	3.5678	-1.1864	7.64	1.63	-0.750			
0.3999	25594.71	3.5650	3.5651	-1.1918	7.65	1.64	-0.750			
0.4035	25827.01	3.5620	3.5620	-1.1995	7.66	1.65	-0.750			
0.4072	26058.53	3.5590	3.5589	-1.2060	7.66	1.65	-0.750			
0.4107	26287.85	3.5560	3.5562	-1.2118	7.67	1.66	-0.750			
0.4144	26523.20	3.5530	3.5529	-1.2324	7.68	1.67	-0.750			
0.4181	26759.94	3.5500	3.5500	-1.2453	7.69	1.68	-0.750			
0.4219	27000.79	3.5470	3.5470	-1.2582	7.70	1.69	-0.750			
0.4258	27248.65	3.5440	3.5439	-1.2722	7.71	1.70	-0.750			
0.4296	27492.06	3.5410	3.5410	-1.2778	7.72	1.71	-0.750			
0.4334	27737.65	3.5380	3.5381	-1.2733	7.73	1.72	-0.750			
0.4372	27979.85	3.5350	3.5350	-1.2847	7.74	1.73	-0.750			
0.4411	28229.23	3.5320	3.5319	-1.2921	7.75	1.74	-0.750			
0.4449	28476.65	3.5290	3.5290	-1.2963	7.75	1.74	-0.750			
0.4489	28727.26	3.5260	3.5262	-1.2963	7.76	1.75	-0.750			
0.4528	28979.67	3.5230	3.5229	-1.3013	7.77	1.76	-0.750			
0.4567	29227.26	3.5200	3.5201	-1.2926	7.78	1.77	-0.750			
0.4605	29474.50	3.5170	3.5169	-1.2988	7.79	1.78	-0.750			
0.4644	29723.72	3.5140	3.5140	-1.3010	7.80	1.79	-0.750			
0.4684	29974.48	3.5110	3.5110	-1.3025	7.81	1.80	-0.750			
0.4722	30222.46	3.5080	3.5080	-1.3096	7.82	1.81	-0.750			
0.4762	30477.48	3.5050	3.5051	-1.3057	7.83	1.82	-0.750			
0.4801	30728.78	3.5020	3.5020	-1.3031	7.84	1.83	-0.750			
0.4840	30977.58	3.4990	3.4989	-1.3074	7.85	1.84	-0.750			
0.4879	31228.34	3.4960	3.4960	-1.2956	7.87	1.86	-0.750			
0.4918	31477.08	3.4930	3.4929	-1.2917	7.88	1.87	-0.750			
0.4957	31723.29	3.4900	3.4900	-1.2854	7.89	1.88	-0.750			
0.4996	31971.54	3.4870	3.4870	-1.2667	7.90	1.89	-0.750			
0.5034	32216.56	3.4840	3.4840	-1.2604	7.92	1.91	-0.750			
0.5071	32453.74	3.4810	3.4811	-1.2540	7.93	1.92	-0.750			
0.5108	32690.02	3.4780	3.4780	-1.2544	7.94	1.93	-0.750			
0.5146	32933.64	3.4750	3.4749	-1.2672	7.95	1.94	-0.750			
0.5184	33176.87	3.4720	3.4720	-1.2607	7.96	1.95	-0.750			
0.5222	33421.00	3.4690	3.4691	-1.2657	7.98	1.97	-0.750			
0.5261	33668.15	3.4660	3.4660	-1.2590	7.99	1.98	-0.750			
0.5298	33909.97	3.4630	3.4629	-1.2454	8.01	2.00	-0.750			
0.5335	34145.31	3.4600	3.4601	-1.2358	8.02	2.01	-0.750			
0.5372	34379.43	3.4570	3.4571	-1.2253	8.03	2.02	-0.750			
0.5409	34615.65	3.4540	3.4539	-1.2215	8.05	2.04	-0.750			
0.5445	34851.05	3.4510	3.4509	-1.2184	8.06	2.05	-0.750			
0.5482	35083.91	3.4480	3.4481	-1.2090	8.07	2.06	-0.750			
0.5518	35317.58	3.4450	3.4449	-1.2046	8.08	2.07	-0.750			
0.5554	35547.72	3.4420	3.4421	-1.1933	8.10	2.09	-0.750			
0.5590	35775.10	3.4390	3.4389	-1.1738	8.11	2.10	-0.750			
0.5625	35998.12	3.4360	3.4360	-1.1590	8.13	2.12	-0.750			
0.5660	36220.96	3.4330	3.4331	-1.1459	8.14	2.13	-0.750			
0.5694	36439.84	3.4300	3.4298	-1.1225	8.16	2.15	-0.750			
0.5727	36653.68	3.4270	3.4271	-1.1015	8.18	2.17	-0.750			
0.5760	36862.56	3.4240	3.4241	-1.1041	8.19	2.18	-0.750			
0.5792	37071.10	3.4210	3.4210	-1.0924	8.20	2.19	-0.750			
0.5825	37282.48	3.4180	3.4178	-1.0825	8.22	2.21	-0.750			
0.5857	37487.54	3.4150	3.4151	-1.0713	8.23	2.22	-0.750			
0.5890	37695.85	3.4120	3.4121	-1.0631	8.25	2.24	-0.750			
0.5922	37900.48	3.4090	3.4089	-1.0503	8.26	2.25	-0.750			
0.5953	38098.60	3.4060	3.4060	-1.0297	8.28	2.27	-0.750			
0.5983	38291.45	3.4030	3.4032	-1.0143	8.30	2.29	-0.750			
0.6014	38487.29	3.4000	3.3999	-1.0012	8.31	2.30	-0.750			
0.6044	38678.84	3.3970	3.3968	-0.9839	8.33	2.32	-0.750			
0.6073	38866.54	3.3940	3.3941	-0.9599	8.34	2.33	-0.750			
0.6101	39049.14	3.3910	3.3909	-0.9377	8.36	2.35	-0.750			
0.6129	39226.56	3.3880	3.3880	-0.9203	8.37	2.36	-0.750			
0.6156	39401.41	3.3850	3.3849	-0.9007	8.39	2.38	-0.750			
0.6183	39569.25	3.3820	3.3820	-0.8822	8.40	2.39	-0.750			
0.6209	39737.43	3.3790	3.3790	-0.8684	8.42	2.41	-0.750			
0.6235	39904.81	3.3760	3.3762	-0.8571	8.43	2.42	-0.750			
0.6261	40070.00	3.3730	3.3730	-0.8387	8.45	2.44	-0.750			
0.6286	40229.22	3.3700	3.3700	-0.8227	8.46	2.45	-0.750			
0.6310	40385.44	3.3670	3.3670	-0.7990	8.48	2.47	-0.750			
0.6334	40536.32	3.3640	3.3640	-0.7837	8.49	2.48	-0.750			
0.6357	40684.08	3.3610	3.3612	-0.7640	8.51	2.50	-0.750			
0.6379	40828.59	3.3580	3.3579	-0.7492	8.52	2.51	-0.750			
0.6402	40970.66	3.3550	3.3550	-0.7355	8.54	2.53	-0.750			
0.6424	41111.04	3.3520	3.3520	-0.7254	8.55	2.54	-0.750			
0.6445	41248.48	3.3490	3.3490	-0.7084	8.56	2.55	-0.750			
0.6467	41385.70	3.3460	3.3459	-0.6990	8.58	2.57	-0.750			
0.6487	41517.88	3.3430	3.3432	-0.6813	8.59	2.58	-0.750			
0.6507	41647.97	3.3400	3.3399	-0.6669	8.60	2.59	-0.750			
0.6527	41773.31	3.3370	3.3370	-0.6541	8.62	2.61	-0.750			
0.6546	41896.54	3.3340	3.3340	-0.6413	8.63	2.62	-0.750			
0.6566	42020.87	3.3310	3.3309	-0.6257	8.64	2.63	-0.750			
0.6584	42138.80	3.3280	3.3280	-0.6107	8.65	2.64	-0.750			
0.6602	42254.21	3.3250	3.3251	-0.5958	8.66	2.65	-0.750			
0.6620	42366.74	3.3220	3.3219	-0.5856	8.68	2.67	-0.750			
0.6637	42477.38	3.3190	3.3189	-0.5711	8.69	2.68	-0.750			
0.6654	42584.66	3.3160	3.3160	-0.5620	8.71	2.70	-0.750			
0.6671	42691.90	3.3130	3.3130	-0.5547	8.72	2.71	-0.750			
0.6687	42799.16	3.3100	3.3099	-0.5473	8.73	2.72	-0.750			
0.6704	42902.59	3.3070	3.3070	-0.5347	8.74	2.73	-0.750			
0.6720	43004.94	3.3040	3.3040	-0.5255	8.76	2.75	-0.750			
0.6735	43103.99	3.3010	3.3012	-0.5158	8.77	2.76	-0.750			
0.6750	43202.73	3.2980	3.2979	-0.5099	8.78	2.77	-0.750			
0.6766	43299.27	3.2950	3.2950	-0.4979	8.80	2.79	-0.750			
0.6780	43394.40	3.2920	3.2920	-0.4907	8.81	2.80	-0.750			
0.6795	43488.58	3.2890	3.2889	-0.4829	8.82	2.81	-0.750			
0.6809	43580.28	3.2860	3.2860	-0.4714	8.84	2.83	-0.750			
0.6823	43669.06	3.2830	3.2829	-0.4605	8.85	2.84	-0.750			
0.6837	43756.08	3.2800	3.2801	-0.4499	8.86	2.85	-0.750			
0.6850	43841.43	3.2770	3.2768	-0.4405	8.87	2.86	-0.750			
0.6863	43925.08	3.2740	3.2741	-0.4367	8.87	2.86	-0.750			
0.6876	44007.91	3.2710	3.2711	-0.4331	8.89	2.88	-0.750			
0.6889	44090.67	3.2680	3.2679	-0.4274	8.90	2.89	-0.750			
0.6902	44172.00	3.2650	3.2651	-0.4202	8.91	2.90	-0.750			
0.6915	44253.39	3.2620	3.2620	-0.4148	8.92	2.91	-0.750			
0.6927	44332.65	3.2590	3.2590	-0.4084	8.94	2.93	-0.750			
0.6939	44410.16	3.2560	3.2560	-0.4029	8.95	2.94	-0.750			
0.6951	44486.30	3.2530	3.2530	-0.3947	8.96	2.95	-0.750			
0.6963	44561.99	3.2500	3.2499	-0.3855	8.97	2.96	-0.750			
0.6974	44636.01	3.2470	3.2470	-0.3779	8.98	2.97	-0.750			
0.6986	44707.60	3.2440	3.2442	-0.3708	8.99	2.98	-0.750			
0.6996	44777.46	3.2410	3.2410	-0.3643	9.00	2.99	-0.750			
0.7007	44844.88	3.2380	3.2379	-0.3606	9.01	3.00	-0.750			
0.7018	44913.46	3.2350	3.2349	-0.3589	9.03	3.02	-0.750			
0.7029	44983.34	3.2320	3.2319	-0.3563	9.04	3.03	-0.750			
0.7039	45052.27	3.2290	3.2290	-0.3534	9.05	3.04	-0.750			
0.7050	45120.62	3.2260	3.2262	-0.3512	9.06	3.05	-0.750			
0.7061	45187.69	3.2230	3.2230	-0.3446	9.07	3.06	-0.750			
0.7071	45252.43	3.2200	3.2199	-0.3376	9.09	3.08	-0.750			
0.7081	45316.18	3.2170	3.2171	-0.3323	9.10	3.09	-0.750			
0.7091	45379.85	3.2140	3.2140	-0.3293	9.11	3.10	-0.750			
0.7100	45443.05	3.2110	3.2109	-0.3256	9.11	3.10	-0.750			
0.7110	45505.08	3.2080	3.2080	-0.3199	9.12	3.11	-0.750			
0.7120	45565.79	3.2050	3.2051	-0.3136	9.13	3.12	-0.750			
0.7129	45625.94	3.2020	3.2020	-0.3104	9.14	3.13	-0.750			
0.7138	45684.64	3.1990	3.1990	-0.3067	9.15	3.14	-0.750			
0.7147	45742.42	3.1960	3.1959	-0.3029	9.16	3.15	-0.750			
0.7156	45800.41	3.1930	3.1930	-0.3000	9.18	3.17	-0.750			
0.7165	45858.10	3.1900	3.1901	-0.2983	9.19	3.18	-0.750			
0.7174	45915.48	3.1870	3.1870	-0.2962	9.20	3.19	-0.750			
0.7183	45972.17	3.1840	3.1841	-0.2940	9.21	3.20	-0.750			
0.7192	46027.88	3.1810	3.1809	-0.2900	9.22	3.21	-0.750			
0.7201	46083.74	3.1780	3.1780	-0.2846	9.23	3.22	-0.750			
0.7209	46138.04	3.1750	3.1750	-0.2834	9.24	3.23	-0.750			
0.7218	46192.45	3.1720	3.1721	-0.2802	9.25	3.24	-0.750			
0.7226	46245.64	3.1690	3.1688	-0.2760	9.26	3.25	-0.750			
0.7234	46298.17	3.1660	3.1661	-0.2725	9.27	3.26	-0.750			
0.7242	46349.94	3.1630	3.1631	-0.2696	9.28	3.27	-0.750			
0.7250	46401.77	3.1600	3.1600	-0.2678	9.29	3.28	-0.750			
0.7258	46452.92	3.1570	3.1570	-0.2655	9.30	3.29	-0.750			
0.7266	46502.89	3.1540	3.1541	-0.2614	9.31	3.30	-0.750			
0.7274	46553.28	3.1510	3.1510	-0.2611	9.32	3.31	-0.750			
0.7282	46603.33	3.1480	3.1480	-0.2598	9.33	3.32	-0.750			
0.7290	46653.39	3.1450	3.1450	-0.2567	9.34	3.33	-0.750			
0.7297	46702.31	3.1420	3.1420	-0.2541	9.35	3.34	-0.750			
0.7305	46750.99	3.1390	3.1391	-0.2522	9.36	3.35	-0.750			
0.7312	46799.28	3.1360	3.1361	-0.2496	9.37	3.36	-0.750			
0.7320	46846.82	3.1330	3.1329	-0.2469	9.38	3.37	-0.750			
0.7327	46893.71	3.1300	3.1300	-0.2451	9.39	3.38	-0.750			
0.7334	46940.40	3.1270	3.1270	-0.2426	9.40	3.39	-0.750			
0.7342	46987.10	3.1240	3.1240	-0.2406	9.41	3.40	-0.750			
0.7349	47033.62	3.1210	3.1210	-0.2391	9.42	3.41	-0.750			
0.7356	47079.01	3.1180	3.1180	-0.2354	9.43	3.42	-0.750			
0.7363	47124.13	3.1150	3.1150	-0.2324	9.43	3.42	-0.750			
0.7370	47167.89	3.1120	3.1120	-0.2309	9.45	3.44	-0.750			
0.7377	47211.52	3.1090	3.1090	-0.2293	9.46	3.45	-0.750			
0.7384	47255.82	3.1060	3.1059	-0.2281	9.47	3.46	-0.750			
0.7391	47299.71	3.1030	3.1030	-0.2267	9.48	3.47	-0.750			
0.7397	47343.29	3.1000	3.1000	-0.2256	9.49	3.48	-0.750			
0.7404	47386.59	3.0970	3.0971	-0.2252	9.50	3.49	-0.750			
0.7411	47429.66	3.0940	3.0940	-0.2241	9.51	3.50	-0.750			
0.7417	47471.99	3.0910	3.0910	-0.2218	9.52	3.51	-0.750			
0.7424	47514.81	3.0880	3.0879	-0.2210	9.53	3.52	-0.750			
0.7431	47557.19	3.0850	3.0853	-0.2204	9.54	3.53	-0.750			
0.7437	47599.75	3.0820	3.0820	-0.2201	9.55	3.54	-0.750			
0.7444	47642.19	3.0790	3.0791	-0.2186	9.56	3.55	-0.750			
0.7451	47683.55	3.0760	3.0760	-0.2177	9.57	3.56	-0.750			
0.7457	47724.88	3.0730	3.0730	-0.2163	9.58	3.57	-0.750			
0.7464	47766.44	3.0700	3.0700	-0.2147	9.59	3.58	-0.750			
0.7470	47807.63	3.0670	3.0669	-0.2130	9.60	3.59	-0.750			
0.7476	47849.07	3.0640	3.0640	-0.2111	9.61	3.60	-0.750			
0.7483	47889.28	3.0610	3.0611	-0.2078	9.62	3.61	-0.750			
0.7489	47928.64	3.0580	3.0579	-0.2074	9.63	3.62	-0.750			
0.7495	47968.24	3.0550	3.0550	-0.2063	9.64	3.63	-0.750			
0.7501	48007.01	3.0520	3.0518	-0.2039	9.65	3.64	-0.750			
0.7507	48046.19	3.0490	3.0490	-0.2043	9.66	3.65	-0.750			
0.7513	48085.78	3.0460	3.0461	-0.2029	9.67	3.66	-0.750			
0.7520	48124.82	3.0430	3.0430	-0.2019	9.68	3.67	-0.750			
0.7526	48163.85	3.0400	3.0401	-0.2017	9.69	3.68	-0.750			
0.7532	48202.29	3.0370	3.0370	-0.1996	9.70	3.69	-0.750			
0.7537	48239.87	3.0340	3.0339	-0.1974	9.71	3.70	-0.750			
0.7543	48277.68	3.0310	3.0310	-0.1966	9.72	3.71	-0.750			
0.7549	48314.96	3.0280	3.0279	-0.1964	9.73	3.72	-0.750			
0.7555	48352.97	3.0250	3.0250	-0.1953	9.74	3.73	-0.750			
0.7561	48390.66	3.0220	3.0219	-0.1948	9.75	3.74	-0.750			
0.7567	48427.80	3.0190	3.0190	-0.1944	9.75	3.74	-0.750			
0.7573	48465.21	3.0160	3.0161	-0.1935	9.76	3.75	-0.750			
0.7579	48502.57	3.0130	3.0129	-0.1926	9.77	3.76	-0.750			
0.7584	48539.38	3.0100	3.0100	-0.1908	9.78	3.77	-0.750			
0.7590	48575.87	3.0070	3.0071	-0.1891	9.79	3.78	-0.750			
0.7596	48611.81	3.0040	3.0041	-0.1887	9.80	3.79	-0.750			
0.7601	48647.61	3.0010	3.0010	-0.1793	9.81	3.80	-0.750			
