Ah_balance (normalized)	Ah_balance (mAh)	Voltage - fit (V)	Voltage -  interpolate (V)	dQ/dV (1/V)	Temperature (°C)	Temperature - diff (°C)	Current (C)	R_DC 0ms (mOhm)	R_DC 50ms (mOhm)	R_DC 50 ms PEC (mOhm)
0.0000	0.00	4.0890	4.1305	0.0000	5.98	0.00	-0.748			
0.0000	0.00	4.0920	4.1305	0.0000	5.98	0.00	-0.748			
0.0000	0.00	4.0950	4.1305	0.0000	5.98	0.00	-0.748			
0.0002	10.55	4.0860	4.0875	-0.0524	5.98	0.00	-0.750			
0.0004	24.12	4.0830	4.0831	-0.0785	5.98	0.00	-0.750			
0.0007	43.21	4.0800	4.0797	-0.1015	5.98	0.00	-0.750			
0.0010	65.06	4.0770	4.0770	-0.1261	5.98	0.00	-0.750			
0.0014	91.65	4.0740	4.0740	-0.1502	5.98	0.00	-0.750			
0.0019	122.78	4.0710	4.0712	-0.1724	5.98	0.00	-0.750			
0.0025	159.61	4.0680	4.0679	-0.1960	5.98	0.00	-0.750			
0.0031	199.21	4.0650	4.0649	-0.2175	5.98	0.00	-0.750			
0.0038	242.63	4.0620	4.0621	-0.2396	5.98	0.00	-0.750			
0.0045	290.07	4.0590	4.0590	-0.2644	5.98	0.00	-0.750			
0.0054	343.57	4.0560	4.0560	-0.2866	5.98	0.00	-0.750			
0.0063	400.92	4.0530	4.0529	-0.3085	5.98	0.00	-0.750			
0.0072	462.43	4.0500	4.0501	-0.3296	5.98	0.00	-0.750			
0.0083	528.22	4.0470	4.0471	-0.3522	5.98	0.00	-0.750			
0.0093	598.10	4.0440	4.0440	-0.3717	5.98	0.00	-0.750			
0.0105	670.99	4.0410	4.0410	-0.3919	5.98	0.00	-0.750			
0.0117	747.76	4.0380	4.0380	-0.4136	5.98	0.00	-0.750			
0.0130	830.18	4.0350	4.0350	-0.4353	5.98	0.00	-0.750			
0.0143	915.62	4.0320	4.0319	-0.4562	5.98	0.00	-0.750			
0.0157	1005.38	4.0290	4.0291	-0.4758	5.98	0.00	-0.750			
0.0172	1098.95	4.0260	4.0260	-0.4942	5.98	0.00	-0.750			
0.0187	1197.00	4.0230	4.0229	-0.5066	5.98	0.00	-0.750			
0.0202	1295.02	4.0200	4.0200	-0.5203	5.98	0.00	-0.750			
0.0218	1396.05	4.0170	4.0171	-0.5328	5.98	0.00	-0.750			
0.0234	1500.01	4.0140	4.0139	-0.5477	5.98	0.00	-0.750			
0.0251	1605.73	4.0110	4.0110	-0.5609	5.99	0.01	-0.750			
0.0268	1714.25	4.0080	4.0080	-0.5726	5.99	0.01	-0.750			
0.0285	1826.69	4.0050	4.0050	-0.5905	5.99	0.01	-0.750			
0.0303	1941.51	4.0020	4.0020	-0.6104	6.00	0.02	-0.750			
0.0322	2059.50	3.9990	3.9989	-0.6231	6.00	0.02	-0.750			
0.0341	2182.98	3.9960	3.9961	-0.6296	6.00	0.02	-0.750			
0.0360	2305.21	3.9930	3.9930	-0.6383	6.00	0.02	-0.750			
0.0379	2428.42	3.9900	3.9901	-0.6470	6.01	0.03	-0.750			
0.0399	2554.36	3.9870	3.9870	-0.6570	6.01	0.03	-0.750			
0.0419	2680.35	3.9840	3.9838	-0.6598	6.01	0.03	-0.750			
0.0439	2808.11	3.9810	3.9810	-0.6603	6.02	0.04	-0.750			
0.0459	2937.34	3.9780	3.9782	-0.6609	6.02	0.04	-0.750			
0.0479	3067.86	3.9750	3.9749	-0.6615	6.03	0.05	-0.750			
0.0498	3189.84	3.9720	3.9720	-0.6698	6.03	0.05	-0.750			
0.0518	3314.29	3.9690	3.9691	-0.6699	6.04	0.06	-0.750			
0.0538	3446.05	3.9660	3.9658	-0.6823	6.04	0.06	-0.750			
0.0559	3578.92	3.9630	3.9632	-0.6929	6.05	0.07	-0.750			
0.0580	3713.98	3.9600	3.9603	-0.7065	6.05	0.07	-0.750			
0.0602	3851.57	3.9570	3.9569	-0.7112	6.06	0.08	-0.750			
0.0623	3989.36	3.9540	3.9539	-0.7128	6.06	0.08	-0.750			
0.0644	4124.23	3.9510	3.9511	-0.7108	6.07	0.09	-0.750			
0.0666	4263.40	3.9480	3.9481	-0.7130	6.08	0.10	-0.750			
0.0688	4400.15	3.9450	3.9448	-0.7107	6.08	0.10	-0.750			
0.0709	4535.85	3.9420	3.9421	-0.7056	6.09	0.11	-0.750			
0.0730	4669.02	3.9390	3.9389	-0.7079	6.10	0.12	-0.750			
0.0751	4805.31	3.9360	3.9361	-0.7149	6.10	0.12	-0.750			
0.0772	4943.96	3.9330	3.9329	-0.7150	6.11	0.13	-0.750			
0.0794	5081.97	3.9300	3.9300	-0.7148	6.12	0.14	-0.750			
0.0816	5219.25	3.9270	3.9270	-0.7209	6.13	0.15	-0.750			
0.0837	5357.58	3.9240	3.9240	-0.7235	6.13	0.15	-0.750			
0.0859	5496.43	3.9210	3.9209	-0.7295	6.14	0.16	-0.750			
0.0880	5634.86	3.9180	3.9180	-0.7317	6.15	0.17	-0.750			
0.0903	5777.88	3.9150	3.9150	-0.7381	6.16	0.18	-0.750			
0.0926	5923.90	3.9120	3.9120	-0.7359	6.17	0.19	-0.750			
0.0948	6065.73	3.9090	3.9090	-0.7356	6.18	0.20	-0.750			
0.0969	6203.82	3.9060	3.9060	-0.7345	6.18	0.20	-0.750			
0.0991	6343.90	3.9030	3.9030	-0.7343	6.19	0.21	-0.750			
0.1013	6483.34	3.9000	3.8998	-0.7394	6.20	0.22	-0.750			
0.1035	6626.06	3.8970	3.8971	-0.7405	6.21	0.23	-0.750			
0.1058	6770.72	3.8940	3.8940	-0.7528	6.21	0.23	-0.750			
0.1081	6917.01	3.8910	3.8911	-0.7559	6.22	0.24	-0.750			
0.1104	7062.42	3.8880	3.8879	-0.7531	6.23	0.25	-0.750			
0.1126	7207.19	3.8850	3.8850	-0.7502	6.24	0.26	-0.750			
0.1149	7351.40	3.8820	3.8821	-0.7496	6.24	0.26	-0.750			
0.1171	7495.22	3.8790	3.8790	-0.7486	6.25	0.27	-0.750			
0.1193	7638.31	3.8760	3.8758	-0.7498	6.26	0.28	-0.750			
0.1216	7779.21	3.8730	3.8730	-0.7482	6.27	0.29	-0.750			
0.1238	7924.25	3.8700	3.8701	-0.7570	6.28	0.30	-0.750			
0.1261	8072.41	3.8670	3.8669	-0.7604	6.29	0.31	-0.750			
0.1284	8218.79	3.8640	3.8640	-0.7561	6.30	0.32	-0.750			
0.1307	8364.75	3.8610	3.8611	-0.7616	6.31	0.33	-0.750			
0.1330	8510.54	3.8580	3.8582	-0.7632	6.32	0.34	-0.750			
0.1353	8657.19	3.8550	3.8549	-0.7613	6.33	0.35	-0.750			
0.1375	8801.78	3.8520	3.8520	-0.7603	6.33	0.35	-0.750			
0.1398	8948.99	3.8490	3.8491	-0.7589	6.34	0.36	-0.750			
0.1422	9097.78	3.8460	3.8460	-0.7623	6.35	0.37	-0.750			
0.1444	9243.78	3.8430	3.8429	-0.7537	6.36	0.38	-0.750			
0.1466	9385.18	3.8400	3.8401	-0.7480	6.36	0.38	-0.750			
0.1489	9528.36	3.8370	3.8370	-0.7508	6.37	0.39	-0.750			
0.1511	9672.08	3.8340	3.8339	-0.7517	6.37	0.39	-0.750			
0.1533	9814.23	3.8310	3.8310	-0.7573	6.38	0.40	-0.750			
0.1556	9960.30	3.8280	3.8281	-0.7681	6.38	0.40	-0.750			
0.1580	10109.00	3.8250	3.8250	-0.7781	6.39	0.41	-0.750			
0.1603	10260.86	3.8220	3.8219	-0.7761	6.40	0.42	-0.750			
0.1627	10410.12	3.8190	3.8192	-0.7766	6.41	0.43	-0.750			
0.1650	10560.50	3.8160	3.8161	-0.7765	6.42	0.44	-0.750			
0.1674	10711.17	3.8130	3.8127	-0.7720	6.44	0.46	-0.750			
0.1696	10857.58	3.8100	3.8100	-0.7643	6.45	0.47	-0.750			
0.1719	11001.74	3.8070	3.8071	-0.7641	6.46	0.48	-0.750			
0.1742	11148.51	3.8040	3.8040	-0.7691	6.47	0.49	-0.750			
0.1765	11298.09	3.8010	3.8008	-0.7718	6.48	0.50	-0.750			
0.1788	11444.23	3.7980	3.7980	-0.7689	6.49	0.51	-0.750			
0.1811	11592.14	3.7950	3.7950	-0.7770	6.50	0.52	-0.750			
0.1835	11743.21	3.7920	3.7921	-0.7771	6.51	0.53	-0.750			
0.1858	11892.86	3.7890	3.7890	-0.7745	6.52	0.54	-0.750			
0.1881	12040.65	3.7860	3.7860	-0.7732	6.52	0.54	-0.750			
0.1905	12189.31	3.7830	3.7830	-0.7758	6.53	0.55	-0.750			
0.1928	12338.21	3.7800	3.7799	-0.7792	6.53	0.55	-0.750			
0.1951	12487.00	3.7770	3.7770	-0.7841	6.54	0.56	-0.750			
0.1975	12637.18	3.7740	3.7740	-0.7809	6.55	0.57	-0.750			
0.1998	12788.39	3.7710	3.7710	-0.7896	6.56	0.58	-0.750			
0.2022	12940.43	3.7680	3.7681	-0.7920	6.57	0.59	-0.750			
0.2046	13093.01	3.7650	3.7649	-0.7909	6.58	0.60	-0.750			
0.2070	13245.74	3.7620	3.7620	-0.7899	6.60	0.62	-0.750			
0.2093	13397.80	3.7590	3.7590	-0.7868	6.60	0.62	-0.750			
0.2117	13547.94	3.7560	3.7561	-0.7850	6.61	0.63	-0.750			
0.2140	13698.94	3.7530	3.7530	-0.7890	6.62	0.64	-0.750			
0.2164	13847.54	3.7500	3.7500	-0.7906	6.63	0.65	-0.750			
0.2188	14000.62	3.7470	3.7469	-0.7971	6.63	0.65	-0.750			
0.2212	14154.78	3.7440	3.7440	-0.8029	6.64	0.66	-0.750			
0.2236	14309.86	3.7410	3.7411	-0.8048	6.65	0.67	-0.750			
0.2260	14466.16	3.7380	3.7380	-0.8074	6.66	0.68	-0.750			
0.2284	14619.87	3.7350	3.7350	-0.8073	6.67	0.69	-0.750			
0.2308	14772.95	3.7320	3.7320	-0.8083	6.68	0.70	-0.750			
0.2333	14928.31	3.7290	3.7290	-0.8155	6.69	0.71	-0.750			
0.2357	15085.02	3.7260	3.7258	-0.8240	6.70	0.72	-0.750			
0.2382	15243.49	3.7230	3.7231	-0.8368	6.71	0.73	-0.750			
0.2407	15407.75	3.7200	3.7200	-0.8428	6.72	0.74	-0.750			
0.2433	15571.78	3.7170	3.7169	-0.8471	6.72	0.74	-0.750			
0.2459	15734.84	3.7140	3.7141	-0.8508	6.73	0.75	-0.750			
0.2484	15897.14	3.7110	3.7110	-0.8505	6.74	0.76	-0.750			
0.2509	16060.48	3.7080	3.7079	-0.8526	6.75	0.77	-0.750			
0.2535	16223.28	3.7050	3.7050	-0.8545	6.76	0.78	-0.750			
0.2561	16387.25	3.7020	3.7020	-0.8625	6.76	0.78	-0.750			
0.2587	16554.78	3.6990	3.6990	-0.8667	6.77	0.79	-0.750			
0.2613	16721.01	3.6960	3.6960	-0.8756	6.78	0.80	-0.750			
0.2639	16888.83	3.6930	3.6930	-0.8840	6.79	0.81	-0.750			
0.2666	17060.80	3.6900	3.6899	-0.8847	6.80	0.82	-0.750			
0.2692	17231.61	3.6870	3.6870	-0.8903	6.81	0.83	-0.750			
0.2719	17403.25	3.6840	3.6841	-0.8870	6.81	0.83	-0.750			
0.2746	17573.41	3.6810	3.6810	-0.8907	6.82	0.84	-0.750			
0.2773	17744.45	3.6780	3.6779	-0.8968	6.83	0.85	-0.750			
0.2799	17913.97	3.6750	3.6750	-0.8938	6.83	0.85	-0.750			
0.2826	18086.14	3.6720	3.6721	-0.9050	6.84	0.86	-0.750			
0.2853	18262.15	3.6690	3.6690	-0.9201	6.85	0.87	-0.750			
0.2881	18438.46	3.6660	3.6658	-0.9244	6.86	0.88	-0.750			
0.2909	18617.69	3.6630	3.6630	-0.9339	6.87	0.89	-0.750			
0.2937	18797.59	3.6600	3.6601	-0.9335	6.87	0.89	-0.750			
0.2965	18979.14	3.6570	3.6569	-0.9370	6.88	0.90	-0.750			
0.2994	19159.60	3.6540	3.6541	-0.9542	6.89	0.91	-0.750			
0.3022	19341.85	3.6510	3.6509	-0.9545	6.89	0.91	-0.750			
0.3051	19526.29	3.6480	3.6478	-0.9627	6.90	0.92	-0.750			
0.3080	19712.93	3.6450	3.6453	-0.9688	6.90	0.92	-0.750			
0.3109	19899.00	3.6420	3.6420	-0.9806	6.91	0.93	-0.750			
0.3139	20087.64	3.6390	3.6389	-0.9916	6.91	0.93	-0.750			
0.3168	20276.49	3.6360	3.6360	-0.9986	6.92	0.94	-0.750			
0.3198	20470.06	3.6330	3.6330	-1.0093	6.93	0.95	-0.750			
0.3229	20667.67	3.6300	3.6300	-1.0173	6.94	0.96	-0.750			
0.3260	20865.66	3.6270	3.6270	-1.0218	6.94	0.96	-0.750			
0.3291	21061.79	3.6240	3.6240	-1.0202	6.95	0.97	-0.750			
0.3321	21254.91	3.6210	3.6211	-1.0211	6.96	0.98	-0.750			
0.3352	21450.65	3.6180	3.6179	-1.0262	6.96	0.98	-0.750			
0.3383	21648.20	3.6150	3.6149	-1.0350	6.96	0.98	-0.750			
0.3413	21845.81	3.6120	3.6120	-1.0490	6.97	0.99	-0.750			
0.3445	22048.89	3.6090	3.6091	-1.0590	6.97	0.99	-0.750			
0.3478	22257.33	3.6060	3.6059	-1.0694	6.98	1.00	-0.750			
0.3510	22464.50	3.6030	3.6030	-1.0736	6.98	1.00	-0.750			
0.3542	22670.23	3.6000	3.6002	-1.0744	6.99	1.01	-0.750			
0.3575	22876.89	3.5970	3.5970	-1.0817	7.00	1.02	-0.750			
0.3607	23083.88	3.5940	3.5939	-1.0949	7.00	1.02	-0.750			
0.3640	23295.12	3.5910	3.5910	-1.1035	7.01	1.03	-0.750			
0.3674	23511.90	3.5880	3.5878	-1.1115	7.02	1.04	-0.750			
0.3707	23725.59	3.5850	3.5852	-1.1131	7.02	1.04	-0.750			
0.3741	23940.09	3.5820	3.5820	-1.1208	7.03	1.05	-0.750	0.400	0.827	
0.3774	24154.60	3.5790	3.5789	-1.1226	7.03	1.05	-0.750			
0.3808	24368.27	3.5760	3.5758	-1.1209	7.04	1.06	-0.750			
0.3841	24583.42	3.5730	3.5731	-1.1354	7.04	1.06	-0.750			
0.3875	24801.21	3.5700	3.5700	-1.1470	7.05	1.07	-0.750			
0.3911	25027.67	3.5670	3.5669	-1.1632	7.06	1.08	-0.750			
0.3945	25248.02	3.5640	3.5640	-1.1699	7.07	1.09	-0.750			
0.3980	25473.44	3.5610	3.5610	-1.1894	7.07	1.09	-0.750			
0.4017	25706.55	3.5580	3.5580	-1.1978	7.08	1.10	-0.750			
0.4053	25938.95	3.5550	3.5549	-1.2007	7.08	1.10	-0.750			
0.4089	26168.08	3.5520	3.5521	-1.2096	7.08	1.10	-0.750			
0.4125	26402.23	3.5490	3.5489	-1.2225	7.09	1.11	-0.750			
0.4162	26639.72	3.5460	3.5459	-1.2230	7.09	1.11	-0.750			
0.4199	26872.40	3.5430	3.5430	-1.2252	7.10	1.12	-0.750			
0.4236	27109.15	3.5400	3.5401	-1.2289	7.11	1.13	-0.750			
0.4273	27348.04	3.5370	3.5370	-1.2342	7.12	1.14	-0.750			
0.4310	27583.07	3.5340	3.5339	-1.2410	7.13	1.15	-0.750			
0.4347	27819.42	3.5310	3.5309	-1.2410	7.13	1.15	-0.750			
0.4384	28058.43	3.5280	3.5280	-1.2495	7.14	1.16	-0.750			
0.4422	28300.29	3.5250	3.5250	-1.2629	7.14	1.16	-0.750			
0.4460	28545.17	3.5220	3.5221	-1.2644	7.15	1.17	-0.750			
0.4499	28792.18	3.5190	3.5190	-1.2581	7.16	1.18	-0.750			
0.4536	29031.79	3.5160	3.5160	-1.2585	7.16	1.18	-0.750			
0.4573	29269.99	3.5130	3.5130	-1.2657	7.17	1.19	-0.750			
0.4611	29512.67	3.5100	3.5099	-1.2716	7.18	1.20	-0.750			
0.4649	29755.97	3.5070	3.5068	-1.2767	7.19	1.21	-0.750			
0.4688	30002.69	3.5040	3.5041	-1.2755	7.20	1.22	-0.750			
0.4727	30251.85	3.5010	3.5010	-1.2707	7.21	1.23	-0.750			
0.4766	30500.18	3.4980	3.4980	-1.2761	7.22	1.24	-0.750			
0.4803	30741.04	3.4950	3.4950	-1.2649	7.23	1.25	-0.750			
0.4840	30978.94	3.4920	3.4919	-1.2547	7.23	1.25	-0.750			
0.4878	31221.61	3.4890	3.4890	-1.2549	7.25	1.27	-0.750			
0.4916	31462.39	3.4860	3.4861	-1.2521	7.26	1.28	-0.750			
0.4954	31703.58	3.4830	3.4831	-1.2526	7.27	1.29	-0.750			
0.4991	31944.60	3.4800	3.4799	-1.2561	7.28	1.30	-0.750			
0.5029	32183.62	3.4770	3.4770	-1.2459	7.29	1.31	-0.750			
0.5066	32422.44	3.4740	3.4740	-1.2411	7.31	1.33	-0.750			
0.5104	32664.28	3.4710	3.4709	-1.2351	7.32	1.34	-0.750			
0.5141	32901.39	3.4680	3.4680	-1.2145	7.32	1.34	-0.750			
0.5177	33132.63	3.4650	3.4650	-1.1993	7.33	1.35	-0.750			
0.5212	33358.59	3.4620	3.4621	-1.1916	7.34	1.36	-0.750			
0.5247	33583.91	3.4590	3.4590	-1.1811	7.36	1.38	-0.750			
0.5283	33811.47	3.4560	3.4559	-1.1818	7.37	1.39	-0.750			
0.5319	34038.44	3.4530	3.4531	-1.1742	7.39	1.41	-0.750			
0.5354	34266.61	3.4500	3.4499	-1.1798	7.40	1.42	-0.750			
0.5390	34494.02	3.4470	3.4470	-1.1714	7.41	1.43	-0.750			
0.5425	34718.53	3.4440	3.4440	-1.1550	7.42	1.44	-0.750			
0.5459	34937.79	3.4410	3.4412	-1.1507	7.43	1.45	-0.750			
0.5493	35157.85	3.4380	3.4381	-1.1461	7.45	1.47	-0.750			
0.5528	35378.40	3.4350	3.4348	-1.1350	7.47	1.49	-0.750			
0.5562	35595.56	3.4320	3.4320	-1.1252	7.48	1.50	-0.750			
0.5596	35812.66	3.4290	3.4291	-1.1138	7.50	1.52	-0.750			
0.5629	36025.49	3.4260	3.4260	-1.0934	7.51	1.53	-0.750			
0.5662	36236.52	3.4230	3.4230	-1.0728	7.52	1.54	-0.750			
0.5693	36436.54	3.4200	3.4201	-1.0518	7.53	1.55	-0.750			
0.5724	36635.64	3.4170	3.4170	-1.0395	7.54	1.56	-0.750			
0.5755	36833.13	3.4140	3.4140	-1.0361	7.55	1.57	-0.750			
0.5786	37029.61	3.4110	3.4110	-1.0285	7.57	1.59	-0.750			
0.5817	37228.69	3.4080	3.4079	-1.0264	7.58	1.60	-0.750			
0.5848	37426.92	3.4050	3.4050	-1.0132	7.60	1.62	-0.750			
0.5879	37623.64	3.4020	3.4020	-1.0060	7.61	1.63	-0.750			
0.5909	37814.68	3.3990	3.3992	-0.9907	7.63	1.65	-0.750			
0.5938	38004.42	3.3960	3.3958	-0.9705	7.64	1.66	-0.750			
0.5967	38188.00	3.3930	3.3929	-0.9545	7.66	1.68	-0.750			
0.5995	38368.77	3.3900	3.3900	-0.9377	7.67	1.69	-0.750			
0.6023	38546.68	3.3870	3.3871	-0.9203	7.68	1.70	-0.750			
0.6050	38722.30	3.3840	3.3839	-0.9030	7.70	1.72	-0.750			
0.6078	38897.13	3.3810	3.3810	-0.8890	7.71	1.73	-0.750			
0.6104	39065.27	3.3780	3.3780	-0.8664	7.72	1.74	-0.750			
0.6130	39230.06	3.3750	3.3751	-0.8529	7.74	1.76	-0.750			
0.6155	39391.38	3.3720	3.3720	-0.8315	7.75	1.77	-0.750			
0.6180	39550.16	3.3690	3.3689	-0.8145	7.77	1.79	-0.750			
0.6204	39703.70	3.3660	3.3661	-0.7989	7.78	1.80	-0.750			
0.6227	39854.56	3.3630	3.3630	-0.7844	7.79	1.81	-0.750			
0.6251	40004.47	3.3600	3.3600	-0.7753	7.81	1.83	-0.750			
0.6274	40153.44	3.3570	3.3569	-0.7527	7.82	1.84	-0.750			
0.6296	40296.67	3.3540	3.3541	-0.7342	7.84	1.86	-0.750			
0.6318	40435.89	3.3510	3.3510	-0.7188	7.85	1.87	-0.750			
0.6339	40571.96	3.3480	3.3481	-0.7017	7.87	1.89	-0.750			
0.6360	40702.27	3.3450	3.3449	-0.6916	7.88	1.90	-0.750			
0.6380	40831.80	3.3420	3.3420	-0.6773	7.89	1.91	-0.750			
0.6401	40963.46	3.3390	3.3390	-0.6703	7.90	1.92	-0.750			
0.6421	41093.79	3.3360	3.3360	-0.6619	7.91	1.93	-0.750			
0.6441	41221.26	3.3330	3.3330	-0.6483	7.92	1.94	-0.750			
0.6460	41343.57	3.3300	3.3301	-0.6346	7.93	1.95	-0.750			
0.6479	41462.82	3.3270	3.3269	-0.6211	7.95	1.97	-0.750			
0.6497	41579.32	3.3240	3.3240	-0.6090	7.96	1.98	-0.750			
0.6515	41693.91	3.3210	3.3210	-0.5981	7.97	1.99	-0.750			
0.6533	41811.51	3.3180	3.3180	-0.5914	7.99	2.01	-0.750			
0.6551	41925.46	3.3150	3.3150	-0.5780	8.00	2.02	-0.750			
0.6568	42034.75	3.3120	3.3120	-0.5638	8.01	2.03	-0.750			
0.6584	42140.40	3.3090	3.3091	-0.5483	8.02	2.04	-0.750			
0.6601	42243.57	3.3060	3.3059	-0.5392	8.04	2.06	-0.750			
0.6616	42344.73	3.3030	3.3030	-0.5266	8.05	2.07	-0.750			
0.6632	42444.51	3.3000	3.2999	-0.5187	8.07	2.09	-0.750			
0.6648	42544.29	3.2970	3.2970	-0.5154	8.08	2.10	-0.750			
0.6663	42643.71	3.2940	3.2941	-0.5094	8.09	2.11	-0.750			
0.6678	42740.21	3.2910	3.2909	-0.5010	8.11	2.13	-0.750			
0.6693	42835.83	3.2880	3.2881	-0.4935	8.12	2.14	-0.750			
0.6708	42929.81	3.2850	3.2851	-0.4873	8.13	2.15	-0.750			
0.6722	43022.57	3.2820	3.2820	-0.4776	8.14	2.16	-0.750			
0.6737	43114.77	3.2790	3.2790	-0.4659	8.16	2.18	-0.750			
0.6750	43202.99	3.2760	3.2760	-0.4534	8.17	2.19	-0.750			
0.6764	43288.96	3.2730	3.2731	-0.4468	8.18	2.20	-0.750			
0.6777	43373.00	3.2700	3.2699	-0.4391	8.19	2.21	-0.750			
0.6790	43456.01	3.2670	3.2669	-0.4305	8.20	2.22	-0.750			
0.6803	43537.94	3.2640	3.2641	-0.4237	8.21	2.23	-0.750			
0.6816	43619.70	3.2610	3.2610	-0.4173	8.22	2.24	-0.750			
0.6828	43698.88	3.2580	3.2581	-0.4127	8.23	2.25	-0.750			
0.6840	43777.19	3.2550	3.2549	-0.4063	8.24	2.26	-0.750			
0.6852	43853.53	3.2520	3.2519	-0.4015	8.25	2.27	-0.750			
0.6864	43930.29	3.2490	3.2490	-0.3964	8.27	2.29	-0.750			
0.6876	44006.92	3.2460	3.2461	-0.3913	8.28	2.30	-0.750			
0.6888	44082.35	3.2430	3.2429	-0.3868	8.29	2.31	-0.750			
0.6899	44156.30	3.2400	3.2401	-0.3787	8.30	2.32	-0.750			
0.6910	44227.08	3.2370	3.2369	-0.3700	8.32	2.34	-0.750			
0.6922	44297.76	3.2340	3.2340	-0.3668	8.33	2.35	-0.750			
0.6932	44367.69	3.2310	3.2311	-0.3597	8.34	2.36	-0.750			
0.6943	44436.95	3.2280	3.2279	-0.3538	8.35	2.37	-0.750			
0.6954	44504.70	3.2250	3.2252	-0.3496	8.36	2.38	-0.750			
0.6964	44570.52	3.2220	3.2221	-0.3438	8.37	2.39	-0.750			
0.6974	44635.63	3.2190	3.2189	-0.3406	8.38	2.40	-0.750			
0.6984	44699.92	3.2160	3.2159	-0.3361	8.39	2.41	-0.750			
0.6994	44764.56	3.2130	3.2130	-0.3325	8.40	2.42	-0.750			
0.7004	44828.17	3.2100	3.2101	-0.3304	8.42	2.44	-0.750			
0.7014	44892.37	3.2070	3.2070	-0.3279	8.43	2.45	-0.750			
0.7024	44954.37	3.2040	3.2039	-0.3238	8.44	2.46	-0.750			
0.7034	45015.96	3.2010	3.2011	-0.3190	8.45	2.47	-0.750			
0.7043	45076.82	3.1980	3.1980	-0.3165	8.46	2.48	-0.750			
0.7053	45137.55	3.1950	3.1951	-0.3140	8.47	2.49	-0.750			
0.7062	45197.98	3.1920	3.1919	-0.3104	8.48	2.50	-0.750			
0.7071	45256.58	3.1890	3.1890	-0.3052	8.48	2.50	-0.750			
0.7080	45314.49	3.1860	3.1861	-0.3047	8.49	2.51	-0.750			
0.7089	45372.36	3.1830	3.1830	-0.3035	8.50	2.52	-0.750			
0.7099	45431.07	3.1800	3.1799	-0.3005	8.52	2.54	-0.750			
0.7108	45488.51	3.1770	3.1769	-0.2973	8.53	2.55	-0.750			
0.7117	45546.09	3.1740	3.1742	-0.2938	8.54	2.56	-0.750			
0.7125	45602.45	3.1710	3.1710	-0.2889	8.55	2.57	-0.750			
0.7134	45657.29	3.1680	3.1680	-0.2848	8.56	2.58	-0.750			
0.7142	45710.95	3.1650	3.1650	-0.2792	8.58	2.60	-0.750			
0.7151	45763.74	3.1620	3.1620	-0.2750	8.59	2.61	-0.750			
0.7159	45816.67	3.1590	3.1592	-0.2718	8.60	2.62	-0.750			
0.7167	45868.03	3.1560	3.1560	-0.2687	8.61	2.63	-0.750			
0.7175	45918.91	3.1530	3.1530	-0.2682	8.62	2.64	-0.750			
0.7183	45970.03	3.1500	3.1500	-0.2667	8.63	2.65	-0.750			
0.7191	46021.49	3.1470	3.1469	-0.2647	8.64	2.66	-0.750			
0.7199	46072.74	3.1440	3.1439	-0.2647	8.64	2.66	-0.750			
0.7207	46123.79	3.1410	3.1411	-0.2618	8.65	2.67	-0.750			
0.7215	46174.66	3.1380	3.1380	-0.2593	8.66	2.68	-0.750			
0.7222	46223.68	3.1350	3.1350	-0.2553	8.68	2.70	-0.750			
0.7230	46271.18	3.1320	3.1319	-0.2492	8.69	2.71	-0.750			
0.7237	46318.68	3.1290	3.1290	-0.2476	8.70	2.72	-0.750			
0.7245	46366.11	3.1260	3.1260	-0.2460	8.71	2.73	-0.750			
0.7252	46413.45	3.1230	3.1231	-0.2431	8.72	2.74	-0.750			
0.7259	46459.64	3.1200	3.1199	-0.2416	8.73	2.75	-0.750			
0.7267	46505.82	3.1170	3.1170	-0.2396	8.73	2.75	-0.750			
0.7274	46551.47	3.1140	3.1141	-0.2381	8.74	2.76	-0.750			
0.7281	46596.89	3.1110	3.1109	-0.2361	8.75	2.77	-0.750			
0.7288	46642.52	3.1080	3.1080	-0.2347	8.76	2.78	-0.750			
0.7295	46687.29	3.1050	3.1050	-0.2323	8.77	2.79	-0.750			
0.7302	46731.64	3.1020	3.1020	-0.2309	8.78	2.80	-0.750			
0.7309	46776.23	3.0990	3.0990	-0.2298	8.79	2.81	-0.750			
0.7316	46819.46	3.0960	3.0960	-0.2285	8.80	2.82	-0.750			
0.7322	46863.26	3.0930	3.0929	-0.2282	8.81	2.83	-0.750			
0.7329	46907.17	3.0900	3.0899	-0.2261	8.82	2.84	-0.750			
0.7336	46950.62	3.0870	3.0871	-0.2256	8.83	2.85	-0.750			
0.7343	46994.21	3.0840	3.0839	-0.2250	8.84	2.86	-0.750			
0.7350	47037.08	3.0810	3.0811	-0.2235	8.85	2.87	-0.750			
0.7356	47079.71	3.0780	3.0779	-0.2217	8.86	2.88	-0.750			
0.7363	47121.89	3.0750	3.0749	-0.2198	8.87	2.89	-0.750			
0.7369	47164.25	3.0720	3.0720	-0.2170	8.88	2.90	-0.750			
0.7376	47205.81	3.0690	3.0691	-0.2152	8.89	2.91	-0.750			
0.7382	47246.93	3.0660	3.0661	-0.2149	8.90	2.92	-0.750			
0.7389	47287.84	3.0630	3.0630	-0.2137	8.91	2.93	-0.750			
0.7395	47328.21	3.0600	3.0599	-0.2121	8.92	2.94	-0.750			
0.7401	47368.63	3.0570	3.0570	-0.2110	8.93	2.95	-0.750			
0.7408	47409.31	3.0540	3.0541	-0.2106	8.94	2.96	-0.750			
0.7414	47449.72	3.0510	3.0511	-0.2100	8.95	2.97	-0.750			
0.7420	47490.46	3.0480	3.0480	-0.2096	8.96	2.98	-0.750			
0.7427	47530.52	3.0450	3.0450	-0.2083	8.97	2.99	-0.750			
0.7433	47570.28	3.0420	3.0420	-0.2062	8.98	3.00	-0.750			
0.7439	47609.76	3.0390	3.0391	-0.2055	8.99	3.01	-0.750			
0.7445	47649.05	3.0360	3.0361	-0.2046	9.00	3.02	-0.750			
0.7451	47688.22	3.0330	3.0330	-0.2035	9.01	3.03	-0.750			
0.7457	47727.16	3.0300	3.0299	-0.2022	9.02	3.04	-0.750			
0.7463	47765.93	3.0270	3.0270	-0.2005	9.02	3.04	-0.750			
0.7469	47804.19	3.0240	3.0241	-0.1997	9.03	3.05	-0.750			
0.7475	47842.55	3.0210	3.0210	-0.1988	9.04	3.06	-0.750			
0.7481	47880.63	3.0180	3.0180	-0.1986	9.05	3.07	-0.750			
0.7487	47918.50	3.0150	3.0149	-0.1969	9.06	3.08	-0.750			
0.7493	47956.19	3.0120	3.0121	-0.1963	9.07	3.09	-0.750			
0.7499	47993.82	3.0090	3.0090	-0.1958	9.08	3.10	-0.750			
0.7505	48031.48	3.0060	3.0060	-0.1945	9.09	3.11	-0.750			
0.7511	48068.52	3.0030	3.0030	-0.1881	9.10	3.12	-0.750			
