Ah_balance (normalized)	Ah_balance (mAh)	Voltage - fit (V)	Voltage -  interpolate (V)	dQ/dV (1/V)	Temperature (°C)	Temperature - diff (°C)	Current (C)	R_DC 0ms (mOhm)	R_DC 50ms (mOhm)	R_DC 50 ms PEC (mOhm)
0.0000	0.00	4.0990	4.1254	0.0000	5.97	-0.01	-0.749			
0.0001	7.00	4.0960	4.0962	-0.0170	5.97	-0.01	-0.750			
0.0002	13.41	4.0930	4.0930	-0.0497	5.97	-0.01	-0.750			
0.0004	28.28	4.0900	4.0897	-0.0799	5.97	-0.01	-0.750			
0.0007	47.99	4.0870	4.0866	-0.1057	5.97	-0.01	-0.750			
0.0011	71.27	4.0840	4.0838	-0.1308	5.97	-0.01	-0.750			
0.0015	98.81	4.0810	4.0813	-0.1571	5.97	-0.01	-0.750			
0.0021	131.48	4.0780	4.0782	-0.1826	5.97	-0.01	-0.750			
0.0027	170.49	4.0750	4.0749	-0.2068	5.97	-0.01	-0.750			
0.0033	212.04	4.0720	4.0719	-0.2286	5.97	-0.01	-0.750			
0.0040	258.30	4.0690	4.0691	-0.2507	5.97	-0.01	-0.750			
0.0048	308.88	4.0660	4.0660	-0.2725	5.97	-0.01	-0.750			
0.0057	363.26	4.0630	4.0630	-0.2967	5.97	-0.01	-0.750			
0.0066	422.36	4.0600	4.0600	-0.3194	5.98	-0.00	-0.750			
0.0076	485.85	4.0570	4.0570	-0.3402	5.98	-0.00	-0.750			
0.0087	553.68	4.0540	4.0540	-0.3658	5.98	-0.00	-0.750			
0.0098	625.80	4.0510	4.0512	-0.3904	5.98	-0.00	-0.750			
0.0110	704.00	4.0480	4.0478	-0.4119	5.98	-0.00	-0.750			
0.0123	785.28	4.0450	4.0451	-0.4328	5.98	-0.00	-0.750			
0.0136	870.34	4.0420	4.0420	-0.4520	5.98	0.00	-0.750			
0.0150	959.68	4.0390	4.0391	-0.4717	5.98	0.00	-0.750			
0.0165	1053.59	4.0360	4.0359	-0.4880	5.98	0.00	-0.750			
0.0179	1147.07	4.0330	4.0330	-0.5078	5.98	0.00	-0.750			
0.0195	1245.08	4.0300	4.0301	-0.5290	5.99	0.01	-0.750			
0.0211	1349.68	4.0270	4.0270	-0.5501	5.99	0.01	-0.750			
0.0228	1456.99	4.0240	4.0239	-0.5678	5.99	0.01	-0.750			
0.0245	1568.75	4.0210	4.0210	-0.5878	5.99	0.01	-0.750			
0.0263	1684.66	4.0180	4.0181	-0.6012	5.99	0.01	-0.750			
0.0282	1803.12	4.0150	4.0149	-0.6161	6.00	0.02	-0.750			
0.0300	1920.69	4.0120	4.0120	-0.6235	6.00	0.02	-0.750			
0.0319	2041.78	4.0090	4.0090	-0.6313	6.01	0.03	-0.750			
0.0338	2164.34	4.0060	4.0060	-0.6432	6.01	0.03	-0.750			
0.0358	2288.02	4.0030	4.0030	-0.6515	6.02	0.04	-0.750			
0.0377	2414.15	4.0000	4.0000	-0.6573	6.02	0.04	-0.750			
0.0397	2541.31	3.9970	3.9970	-0.6663	6.03	0.05	-0.750			
0.0417	2668.42	3.9940	3.9941	-0.6757	6.03	0.05	-0.750			
0.0437	2799.10	3.9910	3.9909	-0.6867	6.04	0.06	-0.750			
0.0458	2932.58	3.9880	3.9880	-0.6952	6.04	0.06	-0.750			
0.0479	3066.86	3.9850	3.9849	-0.6999	6.05	0.07	-0.750			
0.0500	3202.95	3.9820	3.9824	-0.7070	6.05	0.07	-0.750			
0.0522	3340.76	3.9790	3.9789	-0.7087	6.06	0.08	-0.750			
0.0543	3476.39	3.9760	3.9760	-0.7073	6.06	0.08	-0.750			
0.0564	3612.05	3.9730	3.9730	-0.7062	6.07	0.09	-0.750			
0.0585	3747.20	3.9700	3.9700	-0.7036	6.08	0.10	-0.750			
0.0607	3881.90	3.9670	3.9668	-0.7050	6.08	0.10	-0.750			
0.0627	4015.70	3.9640	3.9642	-0.7125	6.09	0.11	-0.750			
0.0649	4152.18	3.9610	3.9609	-0.7187	6.10	0.12	-0.750			
0.0671	4292.03	3.9580	3.9579	-0.7249	6.11	0.13	-0.750			
0.0693	4432.07	3.9550	3.9551	-0.7281	6.11	0.13	-0.750			
0.0714	4572.08	3.9520	3.9520	-0.7347	6.12	0.14	-0.750			
0.0737	4715.26	3.9490	3.9489	-0.7312	6.13	0.15	-0.750			
0.0758	4854.29	3.9460	3.9459	-0.7303	6.13	0.15	-0.750			
0.0780	4992.52	3.9430	3.9431	-0.7361	6.14	0.16	-0.750			
0.0802	5134.85	3.9400	3.9399	-0.7404	6.15	0.17	-0.750			
0.0824	5276.73	3.9370	3.9369	-0.7482	6.15	0.17	-0.750			
0.0847	5422.58	3.9340	3.9340	-0.7526	6.16	0.18	-0.750			
0.0870	5568.09	3.9310	3.9311	-0.7563	6.17	0.19	-0.750			
0.0893	5716.52	3.9280	3.9279	-0.7573	6.18	0.20	-0.750			
0.0916	5859.74	3.9250	3.9251	-0.7557	6.19	0.21	-0.750			
0.0938	6005.38	3.9220	3.9219	-0.7511	6.20	0.22	-0.750			
0.0961	6148.01	3.9190	3.9190	-0.7515	6.21	0.23	-0.750			
0.0983	6292.33	3.9160	3.9160	-0.7479	6.21	0.23	-0.750			
0.1006	6436.44	3.9130	3.9131	-0.7490	6.22	0.24	-0.750			
0.1028	6579.61	3.9100	3.9100	-0.7530	6.23	0.25	-0.750			
0.1051	6724.44	3.9070	3.9071	-0.7595	6.24	0.26	-0.750			
0.1073	6868.74	3.9040	3.9039	-0.7633	6.25	0.27	-0.750			
0.1096	7017.48	3.9010	3.9009	-0.7738	6.26	0.28	-0.750			
0.1120	7166.02	3.8980	3.8982	-0.7797	6.27	0.29	-0.750			
0.1144	7318.53	3.8950	3.8949	-0.7857	6.28	0.30	-0.750			
0.1167	7471.18	3.8920	3.8919	-0.7871	6.28	0.30	-0.750			
0.1191	7622.76	3.8890	3.8890	-0.7790	6.29	0.31	-0.750			
0.1214	7770.98	3.8860	3.8860	-0.7729	6.30	0.32	-0.750			
0.1237	7918.63	3.8830	3.8830	-0.7778	6.31	0.33	-0.750			
0.1261	8067.32	3.8800	3.8799	-0.7784	6.32	0.34	-0.750			
0.1284	8214.91	3.8770	3.8769	-0.7789	6.32	0.34	-0.750			
0.1307	8366.68	3.8740	3.8740	-0.7762	6.33	0.35	-0.750			
0.1331	8516.16	3.8710	3.8711	-0.7826	6.34	0.36	-0.750			
0.1354	8667.28	3.8680	3.8679	-0.7856	6.35	0.37	-0.750			
0.1378	8816.70	3.8650	3.8650	-0.7829	6.36	0.38	-0.750			
0.1401	8966.04	3.8620	3.8620	-0.7815	6.37	0.39	-0.750			
0.1425	9116.93	3.8590	3.8591	-0.7864	6.38	0.40	-0.750			
0.1448	9268.21	3.8560	3.8558	-0.7915	6.39	0.41	-0.750			
0.1472	9423.47	3.8530	3.8530	-0.7890	6.40	0.42	-0.750			
0.1496	9571.51	3.8500	3.8500	-0.7878	6.41	0.43	-0.750			
0.1519	9723.33	3.8470	3.8470	-0.7867	6.42	0.44	-0.750			
0.1543	9875.15	3.8440	3.8439	-0.7859	6.43	0.45	-0.750			
0.1566	10025.16	3.8410	3.8410	-0.7832	6.44	0.46	-0.750			
0.1590	10174.01	3.8380	3.8380	-0.7836	6.45	0.47	-0.750			
0.1613	10324.12	3.8350	3.8350	-0.7859	6.46	0.48	-0.750			
0.1637	10476.67	3.8320	3.8320	-0.7895	6.47	0.49	-0.750			
0.1660	10625.26	3.8290	3.8290	-0.7905	6.47	0.49	-0.750			
0.1684	10779.33	3.8260	3.8260	-0.8004	6.48	0.50	-0.750			
0.1708	10933.66	3.8230	3.8230	-0.8051	6.49	0.51	-0.750			
0.1733	11089.22	3.8200	3.8199	-0.8076	6.50	0.52	-0.750			
0.1757	11243.97	3.8170	3.8171	-0.8131	6.51	0.53	-0.750			
0.1781	11400.90	3.8140	3.8140	-0.8191	6.52	0.54	-0.750			
0.1806	11560.13	3.8110	3.8109	-0.8196	6.53	0.55	-0.750			
0.1831	11715.88	3.8080	3.8080	-0.8177	6.54	0.56	-0.750			
0.1855	11874.10	3.8050	3.8050	-0.8194	6.54	0.56	-0.750			
0.1880	12033.43	3.8020	3.8020	-0.8183	6.55	0.57	-0.750			
0.1905	12190.40	3.7990	3.7989	-0.8130	6.56	0.58	-0.750			
0.1929	12344.79	3.7960	3.7960	-0.8089	6.57	0.59	-0.750			
0.1953	12500.89	3.7930	3.7931	-0.8049	6.58	0.60	-0.750			
0.1978	12656.29	3.7900	3.7899	-0.8034	6.58	0.60	-0.750			
0.2001	12806.83	3.7870	3.7872	-0.8059	6.59	0.61	-0.750			
0.2025	12962.44	3.7840	3.7841	-0.8115	6.60	0.62	-0.750			
0.2050	13117.73	3.7810	3.7808	-0.8146	6.61	0.63	-0.750			
0.2074	13275.42	3.7780	3.7780	-0.8176	6.63	0.65	-0.750			
0.2099	13435.05	3.7750	3.7751	-0.8253	6.64	0.66	-0.750			
0.2124	13593.12	3.7720	3.7721	-0.8255	6.65	0.67	-0.750			
0.2149	13751.97	3.7690	3.7690	-0.8278	6.66	0.68	-0.750			
0.2173	13908.96	3.7660	3.7660	-0.8359	6.67	0.69	-0.750			
0.2199	14071.90	3.7630	3.7629	-0.8363	6.67	0.69	-0.750			
0.2224	14233.70	3.7600	3.7599	-0.8403	6.68	0.70	-0.750			
0.2249	14395.77	3.7570	3.7573	-0.8386	6.69	0.71	-0.750			
0.2275	14557.96	3.7540	3.7539	-0.8376	6.70	0.72	-0.750			
0.2300	14718.08	3.7510	3.7509	-0.8325	6.71	0.73	-0.750			
0.2324	14873.35	3.7480	3.7481	-0.8304	6.71	0.73	-0.750			
0.2349	15033.62	3.7450	3.7449	-0.8340	6.72	0.74	-0.750			
0.2374	15195.97	3.7420	3.7420	-0.8366	6.73	0.75	-0.750			
0.2399	15355.23	3.7390	3.7389	-0.8372	6.74	0.76	-0.750			
0.2424	15516.31	3.7360	3.7362	-0.8413	6.75	0.77	-0.750			
0.2450	15677.82	3.7330	3.7331	-0.8490	6.76	0.78	-0.750			
0.2475	15841.35	3.7300	3.7298	-0.8575	6.77	0.79	-0.750			
0.2501	16006.38	3.7270	3.7269	-0.8618	6.78	0.80	-0.750			
0.2527	16173.46	3.7240	3.7240	-0.8701	6.79	0.81	-0.750			
0.2554	16342.89	3.7210	3.7210	-0.8669	6.80	0.82	-0.750			
0.2580	16510.63	3.7180	3.7181	-0.8656	6.81	0.83	-0.750			
0.2605	16675.16	3.7150	3.7150	-0.8645	6.81	0.83	-0.750			
0.2631	16840.26	3.7120	3.7120	-0.8605	6.82	0.84	-0.750			
0.2657	17002.38	3.7090	3.7089	-0.8651	6.83	0.85	-0.750			
0.2682	17167.85	3.7060	3.7061	-0.8773	6.84	0.86	-0.750			
0.2709	17336.99	3.7030	3.7031	-0.8932	6.85	0.87	-0.750			
0.2736	17512.36	3.7000	3.6999	-0.9038	6.86	0.88	-0.750			
0.2764	17686.58	3.6970	3.6970	-0.9154	6.86	0.88	-0.750			
0.2791	17864.21	3.6940	3.6941	-0.9234	6.87	0.89	-0.750			
0.2819	18044.42	3.6910	3.6909	-0.9301	6.88	0.90	-0.750			
0.2847	18221.29	3.6880	3.6880	-0.9307	6.88	0.90	-0.750			
0.2875	18401.67	3.6850	3.6849	-0.9346	6.89	0.91	-0.750			
0.2903	18580.76	3.6820	3.6820	-0.9402	6.90	0.92	-0.750			
0.2932	18763.59	3.6790	3.6789	-0.9425	6.91	0.93	-0.750			
0.2960	18944.35	3.6760	3.6761	-0.9414	6.92	0.94	-0.750			
0.2988	19124.71	3.6730	3.6729	-0.9455	6.93	0.95	-0.750			
0.3017	19306.71	3.6700	3.6700	-0.9484	6.94	0.96	-0.750			
0.3045	19486.24	3.6670	3.6670	-0.9505	6.95	0.97	-0.750			
0.3073	19669.30	3.6640	3.6640	-0.9557	6.95	0.97	-0.750			
0.3102	19853.04	3.6610	3.6610	-0.9612	6.96	0.98	-0.750			
0.3131	20038.28	3.6580	3.6581	-0.9829	6.97	0.99	-0.750			
0.3161	20227.95	3.6550	3.6549	-0.9948	6.98	1.00	-0.750			
0.3191	20420.71	3.6520	3.6520	-1.0047	6.98	1.00	-0.750			
0.3222	20617.92	3.6490	3.6489	-1.0130	6.99	1.01	-0.750			
0.3252	20814.51	3.6460	3.6462	-1.0159	6.99	1.01	-0.750			
0.3283	21011.78	3.6430	3.6431	-1.0231	7.00	1.02	-0.750			
0.3313	21206.21	3.6400	3.6399	-1.0256	7.01	1.03	-0.750			
0.3344	21401.73	3.6370	3.6370	-1.0256	7.01	1.03	-0.750			
0.3375	21598.07	3.6340	3.6342	-1.0326	7.02	1.04	-0.750			
0.3406	21796.67	3.6310	3.6310	-1.0392	7.03	1.05	-0.750			
0.3437	21999.27	3.6280	3.6281	-1.0494	7.04	1.06	-0.750			
0.3469	22199.35	3.6250	3.6249	-1.0584	7.04	1.06	-0.750			
0.3500	22401.99	3.6220	3.6221	-1.0772	7.05	1.07	-0.750			
0.3533	22612.45	3.6190	3.6190	-1.0799	7.06	1.08	-0.750			
0.3566	22820.05	3.6160	3.6159	-1.0958	7.07	1.09	-0.750			
0.3599	23032.88	3.6130	3.6130	-1.1040	7.08	1.10	-0.750			
0.3632	23246.11	3.6100	3.6100	-1.1117	7.09	1.11	-0.750			
0.3666	23460.14	3.6070	3.6068	-1.1128	7.10	1.12	-0.750			
0.3699	23674.40	3.6040	3.6042	-1.1118	7.11	1.13	-0.750			
0.3732	23882.16	3.6010	3.6010	-1.1313	7.12	1.14	-0.750			
0.3767	24106.34	3.5980	3.5979	-1.1546	7.12	1.14	-0.750			
0.3801	24327.86	3.5950	3.5949	-1.1517	7.13	1.15	-0.750			
0.3837	24554.01	3.5920	3.5919	-1.1594	7.13	1.15	-0.750			
0.3872	24777.94	3.5890	3.5896	-1.1801	7.14	1.16	-0.750	0.389	0.870	
0.3907	25006.97	3.5860	3.5857	-1.1824	7.15	1.17	-0.750			
0.3943	25232.36	3.5830	3.5830	-1.1830	7.16	1.18	-0.750			
0.3977	25455.40	3.5800	3.5799	-1.1913	7.17	1.19	-0.750			
0.4014	25690.69	3.5770	3.5769	-1.2177	7.17	1.19	-0.750			
0.4051	25926.11	3.5740	3.5739	-1.2186	7.18	1.20	-0.750			
0.4088	26160.48	3.5710	3.5710	-1.2217	7.19	1.21	-0.750			
0.4124	26390.51	3.5680	3.5683	-1.2263	7.20	1.22	-0.750			
0.4161	26631.63	3.5650	3.5649	-1.2424	7.21	1.23	-0.750			
0.4198	26868.53	3.5620	3.5619	-1.2439	7.22	1.24	-0.750			
0.4235	27105.88	3.5590	3.5590	-1.2557	7.23	1.25	-0.750			
0.4274	27351.64	3.5560	3.5560	-1.2708	7.24	1.26	-0.750			
0.4312	27593.63	3.5530	3.5529	-1.2810	7.25	1.27	-0.750			
0.4350	27837.16	3.5500	3.5500	-1.2945	7.25	1.27	-0.750			
0.4389	28089.36	3.5470	3.5470	-1.3015	7.26	1.28	-0.750			
0.4429	28345.27	3.5440	3.5439	-1.3182	7.27	1.29	-0.750			
0.4469	28599.55	3.5410	3.5410	-1.3232	7.28	1.30	-0.750			
0.4508	28853.35	3.5380	3.5382	-1.3379	7.29	1.31	-0.750			
0.4549	29111.30	3.5350	3.5348	-1.3529	7.30	1.32	-0.750			
0.4589	29369.75	3.5320	3.5319	-1.3506	7.31	1.33	-0.750			
0.4630	29630.91	3.5290	3.5291	-1.3500	7.32	1.34	-0.750			
0.4671	29893.79	3.5260	3.5260	-1.3555	7.33	1.35	-0.750			
0.4712	30154.55	3.5230	3.5231	-1.3551	7.34	1.36	-0.750			
0.4752	30413.34	3.5200	3.5199	-1.3499	7.35	1.37	-0.750			
0.4792	30668.44	3.5170	3.5169	-1.3595	7.36	1.38	-0.750			
0.4833	30928.35	3.5140	3.5141	-1.3742	7.38	1.40	-0.750			
0.4874	31195.33	3.5110	3.5111	-1.4003	7.39	1.41	-0.750			
0.4918	31472.10	3.5080	3.5078	-1.3961	7.40	1.42	-0.750			
0.4960	31742.75	3.5050	3.5050	-1.3894	7.41	1.43	-0.750			
0.5002	32011.45	3.5020	3.5023	-1.3791	7.42	1.44	-0.750			
0.5043	32277.21	3.4990	3.4988	-1.3644	7.43	1.45	-0.750			
0.5083	32530.99	3.4960	3.4959	-1.3364	7.45	1.47	-0.750			
0.5122	32778.27	3.4930	3.4934	-1.3371	7.46	1.48	-0.750			
0.5163	33040.41	3.4900	3.4899	-1.3432	7.47	1.49	-0.750			
0.5203	33299.40	3.4870	3.4868	-1.3417	7.49	1.51	-0.750			
0.5243	33554.49	3.4840	3.4843	-1.3470	7.50	1.52	-0.750			
0.5284	33819.59	3.4810	3.4809	-1.3570	7.51	1.53	-0.750			
0.5325	34079.02	3.4780	3.4778	-1.3439	7.52	1.54	-0.750			
0.5365	34333.89	3.4750	3.4752	-1.3306	7.54	1.56	-0.750			
0.5405	34591.49	3.4720	3.4719	-1.3273	7.55	1.57	-0.750			
0.5445	34845.50	3.4690	3.4689	-1.3174	7.56	1.58	-0.750			
0.5483	35092.79	3.4660	3.4661	-1.3060	7.58	1.60	-0.750			
0.5522	35341.86	3.4630	3.4630	-1.2962	7.59	1.61	-0.750			
0.5562	35595.77	3.4600	3.4599	-1.2929	7.60	1.62	-0.750			
0.5600	35843.11	3.4570	3.4569	-1.2852	7.61	1.63	-0.750			
0.5639	36088.73	3.4540	3.4541	-1.2716	7.63	1.65	-0.750			
0.5677	36334.55	3.4510	3.4509	-1.2679	7.64	1.66	-0.750			
0.5715	36573.55	3.4480	3.4481	-1.2588	7.66	1.68	-0.750			
0.5752	36812.89	3.4450	3.4450	-1.2475	7.67	1.69	-0.750			
0.5790	37053.74	3.4420	3.4420	-1.2502	7.69	1.71	-0.750			
0.5828	37298.14	3.4390	3.4389	-1.2384	7.70	1.72	-0.750			
0.5865	37533.22	3.4360	3.4362	-1.2223	7.72	1.74	-0.750			
0.5902	37771.95	3.4330	3.4329	-1.2124	7.73	1.75	-0.750			
0.5938	38001.14	3.4300	3.4300	-1.1897	7.75	1.77	-0.750			
0.5973	38225.29	3.4270	3.4269	-1.1672	7.76	1.78	-0.750			
0.6007	38447.34	3.4240	3.4241	-1.1575	7.77	1.79	-0.750			
0.6042	38669.95	3.4210	3.4209	-1.1336	7.79	1.81	-0.750			
0.6076	38886.75	3.4180	3.4180	-1.1181	7.81	1.83	-0.750			
0.6109	39099.55	3.4150	3.4150	-1.0887	7.82	1.84	-0.750			
0.6142	39308.13	3.4120	3.4119	-1.0818	7.84	1.86	-0.750			
0.6174	39510.82	3.4090	3.4090	-1.0575	7.85	1.87	-0.750			
0.6205	39711.09	3.4060	3.4060	-1.0434	7.87	1.89	-0.750			
0.6236	39909.24	3.4030	3.4029	-1.0298	7.88	1.90	-0.750			
0.6267	40108.39	3.4000	3.4000	-1.0229	7.90	1.92	-0.750			
0.6298	40304.51	3.3970	3.3969	-1.0062	7.92	1.94	-0.750			
0.6328	40498.13	3.3940	3.3941	-0.9908	7.93	1.95	-0.750			
0.6357	40687.61	3.3910	3.3910	-0.9631	7.95	1.97	-0.750			
0.6386	40872.55	3.3880	3.3879	-0.9387	7.97	1.99	-0.750			
0.6414	41049.80	3.3850	3.3850	-0.9110	7.98	2.00	-0.750			
0.6441	41220.31	3.3820	3.3820	-0.8791	8.00	2.02	-0.750			
0.6466	41383.90	3.3790	3.3790	-0.8548	8.01	2.03	-0.750			
0.6492	41547.38	3.3760	3.3759	-0.8387	8.03	2.05	-0.750			
0.6516	41703.75	3.3730	3.3729	-0.8221	8.04	2.06	-0.750			
0.6541	41859.98	3.3700	3.3700	-0.8145	8.06	2.08	-0.750			
0.6565	42017.24	3.3670	3.3669	-0.7958	8.07	2.09	-0.750			
0.6589	42168.20	3.3640	3.3641	-0.7801	8.09	2.11	-0.750			
0.6612	42318.09	3.3610	3.3610	-0.7677	8.10	2.12	-0.750			
0.6635	42463.37	3.3580	3.3579	-0.7478	8.12	2.14	-0.750			
0.6657	42605.93	3.3550	3.3549	-0.7279	8.13	2.15	-0.750			
0.6678	42742.33	3.3520	3.3521	-0.7101	8.15	2.17	-0.750			
0.6700	42877.22	3.3490	3.3491	-0.6904	8.17	2.19	-0.750			
0.6720	43010.32	3.3460	3.3460	-0.6715	8.18	2.20	-0.750			
0.6740	43135.49	3.3430	3.3430	-0.6500	8.19	2.21	-0.750			
0.6759	43257.71	3.3400	3.3399	-0.6339	8.21	2.23	-0.750			
0.6778	43377.33	3.3370	3.3370	-0.6208	8.22	2.24	-0.750			
0.6796	43494.51	3.3340	3.3339	-0.6095	8.23	2.25	-0.750			
0.6814	43610.37	3.3310	3.3310	-0.5961	8.25	2.27	-0.750			
0.6832	43725.25	3.3280	3.3280	-0.5867	8.26	2.28	-0.750			
0.6850	43837.91	3.3250	3.3250	-0.5746	8.27	2.29	-0.750			
0.6867	43946.59	3.3220	3.3220	-0.5579	8.29	2.31	-0.750			
0.6883	44051.35	3.3190	3.3189	-0.5435	8.30	2.32	-0.750			
0.6899	44153.91	3.3160	3.3160	-0.5330	8.31	2.33	-0.750			
0.6915	44254.21	3.3130	3.3129	-0.5204	8.33	2.35	-0.750			
0.6930	44352.69	3.3100	3.3100	-0.5117	8.34	2.36	-0.750			
0.6945	44450.09	3.3070	3.3071	-0.5070	8.36	2.38	-0.750			
0.6961	44547.57	3.3040	3.3039	-0.4970	8.37	2.39	-0.750			
0.6975	44642.23	3.3010	3.3008	-0.4893	8.39	2.41	-0.750			
0.6990	44735.66	3.2980	3.2980	-0.4745	8.40	2.42	-0.750			
0.7004	44825.41	3.2950	3.2951	-0.4657	8.41	2.43	-0.750			
0.7018	44914.40	3.2920	3.2920	-0.4567	8.42	2.44	-0.750			
0.7031	45000.36	3.2890	3.2889	-0.4459	8.43	2.45	-0.750			
0.7044	45083.17	3.2860	3.2860	-0.4347	8.44	2.46	-0.750			
0.7057	45166.81	3.2830	3.2830	-0.4305	8.46	2.48	-0.750			
0.7070	45248.20	3.2800	3.2801	-0.4250	8.47	2.49	-0.750			
0.7083	45331.12	3.2770	3.2769	-0.4168	8.48	2.50	-0.750			
0.7095	45409.30	3.2740	3.2740	-0.4061	8.49	2.51	-0.750			
0.7107	45486.86	3.2710	3.2711	-0.4015	8.50	2.52	-0.750			
0.7119	45563.26	3.2680	3.2680	-0.3929	8.51	2.53	-0.750			
0.7131	45637.30	3.2650	3.2648	-0.3872	8.52	2.54	-0.750			
0.7142	45710.20	3.2620	3.2621	-0.3801	8.53	2.55	-0.750			
0.7154	45783.04	3.2590	3.2590	-0.3742	8.54	2.56	-0.750			
0.7165	45855.34	3.2560	3.2559	-0.3706	8.56	2.58	-0.750			
0.7176	45926.15	3.2530	3.2531	-0.3632	8.57	2.59	-0.750			
0.7187	45994.82	3.2500	3.2501	-0.3576	8.58	2.60	-0.750			
0.7198	46064.15	3.2470	3.2469	-0.3514	8.59	2.61	-0.750			
0.7208	46130.24	3.2440	3.2440	-0.3432	8.60	2.62	-0.750			
0.7218	46194.80	3.2410	3.2409	-0.3394	8.61	2.63	-0.750			
0.7228	46259.61	3.2380	3.2381	-0.3352	8.62	2.64	-0.750			
0.7238	46323.37	3.2350	3.2348	-0.3311	8.63	2.65	-0.750			
0.7248	46386.81	3.2320	3.2322	-0.3273	8.64	2.66	-0.750			
0.7258	46449.38	3.2290	3.2290	-0.3222	8.65	2.67	-0.750			
0.7267	46511.79	3.2260	3.2260	-0.3171	8.66	2.68	-0.750			
0.7277	46571.63	3.2230	3.2231	-0.3115	8.68	2.70	-0.750			
0.7286	46630.96	3.2200	3.2200	-0.3059	8.69	2.71	-0.750			
0.7295	46689.19	3.2170	3.2169	-0.2997	8.70	2.72	-0.750			
0.7304	46744.98	3.2140	3.2140	-0.2954	8.71	2.73	-0.750			
0.7313	46801.28	3.2110	3.2112	-0.2931	8.72	2.74	-0.750			
0.7321	46857.51	3.2080	3.2079	-0.2912	8.73	2.75	-0.750			
0.7330	46913.46	3.2050	3.2049	-0.2885	8.74	2.76	-0.750			
0.7339	46968.60	3.2020	3.2021	-0.2852	8.75	2.77	-0.750			
0.7347	47022.99	3.1990	3.1990	-0.2813	8.76	2.78	-0.750			
0.7356	47077.84	3.1960	3.1960	-0.2780	8.77	2.79	-0.750			
0.7364	47130.33	3.1930	3.1929	-0.2716	8.78	2.80	-0.750			
0.7372	47181.96	3.1900	3.1901	-0.2663	8.79	2.81	-0.750			
0.7380	47232.19	3.1870	3.1871	-0.2625	8.80	2.82	-0.750			
0.7388	47281.59	3.1840	3.1839	-0.2600	8.81	2.83	-0.750			
0.7395	47330.74	3.1810	3.1810	-0.2593	8.82	2.84	-0.750			
0.7403	47380.49	3.1780	3.1779	-0.2573	8.83	2.85	-0.750			
0.7411	47430.25	3.1750	3.1750	-0.2555	8.84	2.86	-0.750			
0.7419	47479.30	3.1720	3.1721	-0.2544	8.85	2.87	-0.750			
0.7426	47527.96	3.1690	3.1690	-0.2524	8.86	2.88	-0.750			
0.7434	47575.98	3.1660	3.1660	-0.2498	8.87	2.89	-0.750			
0.7441	47623.38	3.1630	3.1629	-0.2463	8.88	2.90	-0.750			
0.7449	47670.43	3.1600	3.1600	-0.2445	8.89	2.91	-0.750			
0.7456	47718.19	3.1570	3.1570	-0.2417	8.90	2.92	-0.750			
0.7463	47764.21	3.1540	3.1541	-0.2388	8.91	2.93	-0.750			
0.7470	47809.41	3.1510	3.1510	-0.2363	8.92	2.94	-0.750			
0.7477	47853.96	3.1480	3.1480	-0.2336	8.92	2.94	-0.750			
0.7484	47898.56	3.1450	3.1450	-0.2310	8.93	2.95	-0.750			
0.7491	47942.75	3.1420	3.1419	-0.2287	8.93	2.95	-0.750			
0.7498	47986.72	3.1390	3.1391	-0.2271	8.94	2.96	-0.750			
0.7505	48030.40	3.1360	3.1360	-0.2255	8.95	2.97	-0.750			
0.7511	48073.16	3.1330	3.1330	-0.2219	8.96	2.98	-0.750			
0.7518	48115.36	3.1300	3.1300	-0.2198	8.97	2.99	-0.750			
0.7525	48157.14	3.1270	3.1270	-0.2174	8.98	3.00	-0.750			
0.7531	48198.74	3.1240	3.1240	-0.2150	8.99	3.01	-0.750			
0.7537	48239.79	3.1210	3.1210	-0.2136	9.00	3.02	-0.750			
0.7544	48280.29	3.1180	3.1181	-0.2119	9.01	3.03	-0.750			
0.7550	48320.88	3.1150	3.1150	-0.2109	9.02	3.04	-0.750			
0.7556	48361.29	3.1120	3.1119	-0.2088	9.03	3.05	-0.750			
0.7563	48401.75	3.1090	3.1090	-0.2066	9.04	3.06	-0.750			
0.7569	48440.92	3.1060	3.1061	-0.2046	9.05	3.07	-0.750			
0.7575	48479.99	3.1030	3.1031	-0.2024	9.06	3.08	-0.750			
0.7581	48518.78	3.1000	3.1000	-0.2008	9.07	3.09	-0.750			
0.7587	48556.81	3.0970	3.0968	-0.1981	9.08	3.10	-0.750			
0.7593	48594.33	3.0940	3.0940	-0.1960	9.08	3.10	-0.750			
0.7599	48631.88	3.0910	3.0911	-0.1952	9.09	3.11	-0.750			
0.7605	48669.57	3.0880	3.0880	-0.1937	9.10	3.12	-0.750			
0.7610	48706.78	3.0850	3.0850	-0.1927	9.11	3.13	-0.750			
0.7616	48743.25	3.0820	3.0820	-0.1903	9.12	3.14	-0.750			
0.7622	48779.54	3.0790	3.0791	-0.1900	9.13	3.15	-0.750			
0.7627	48815.96	3.0760	3.0760	-0.1892	9.14	3.16	-0.750			
0.7633	48852.24	3.0730	3.0729	-0.1885	9.15	3.17	-0.750			
0.7639	48888.38	3.0700	3.0700	-0.1879	9.16	3.18	-0.750			
0.7644	48924.37	3.0670	3.0671	-0.1864	9.17	3.19	-0.750			
0.7650	48960.54	3.0640	3.0640	-0.1853	9.18	3.20	-0.750			
0.7656	48995.57	3.0610	3.0610	-0.1842	9.19	3.21	-0.750			
0.7661	49030.83	3.0580	3.0580	-0.1831	9.20	3.22	-0.750			
0.7666	49065.57	3.0550	3.0550	-0.1820	9.21	3.23	-0.750			
0.7672	49100.53	3.0520	3.0519	-0.1810	9.22	3.24	-0.750			
0.7677	49135.09	3.0490	3.0490	-0.1803	9.23	3.25	-0.750			
0.7683	49169.67	3.0460	3.0461	-0.1799	9.24	3.26	-0.750			
0.7688	49204.36	3.0430	3.0429	-0.1795	9.25	3.27	-0.750			
0.7694	49239.03	3.0400	3.0399	-0.1783	9.25	3.27	-0.750			
0.7699	49272.93	3.0370	3.0370	-0.1764	9.26	3.28	-0.750			
0.7704	49306.69	3.0340	3.0340	-0.1753	9.27	3.29	-0.750			
0.7709	49340.40	3.0310	3.0311	-0.1741	9.28	3.30	-0.750			
0.7715	49373.61	3.0280	3.0280	-0.1735	9.29	3.31	-0.750			
0.7720	49406.42	3.0250	3.0250	-0.1723	9.30	3.32	-0.750			
0.7725	49439.50	3.0220	3.0220	-0.1722	9.31	3.33	-0.750			
0.7730	49472.45	3.0190	3.0190	-0.1714	9.32	3.34	-0.750			
0.7735	49505.73	3.0160	3.0160	-0.1703	9.33	3.35	-0.750			
0.7740	49538.59	3.0130	3.0130	-0.1690	9.34	3.36	-0.750			
0.7745	49570.85	3.0100	3.0101	-0.1669	9.35	3.37	-0.750			
0.7750	49603.00	3.0070	3.0069	-0.1643	9.36	3.38	-0.750			
0.7755	49634.28	3.0040	3.0040	-0.1613	9.36	3.38	-0.750			
0.7760	49665.03	3.0010	3.0010	-0.1598	9.37	3.39	-0.750			
