Ah_balance (normalized)	Ah_balance (mAh)	Voltage - fit (V)	Voltage -  interpolate (V)	dQ/dV (1/V)	Temperature (°C)	Temperature - diff (°C)	Current (C)	R_DC 0ms (mOhm)	R_DC 50ms (mOhm)	R_DC 50 ms PEC (mOhm)
0.0000	0.00	4.0910	4.1333	0.0000	6.00	0.01	-0.750			
0.0000	0.00	4.0940	4.1333	0.0000	6.00	0.01	-0.750			
0.0000	0.00	4.0970	4.1333	0.0000	6.00	0.01	-0.750			
0.0001	7.26	4.0880	4.0918	-0.0457	6.00	0.01	-0.750			
0.0003	20.08	4.0850	4.0853	-0.0720	6.00	0.01	-0.750			
0.0006	36.44	4.0820	4.0820	-0.0984	6.00	0.01	-0.750			
0.0009	58.38	4.0790	4.0788	-0.1221	6.00	0.01	-0.750			
0.0013	84.73	4.0760	4.0760	-0.1431	5.99	0.00	-0.750			
0.0018	114.53	4.0730	4.0731	-0.1670	5.99	0.00	-0.750			
0.0023	148.83	4.0700	4.0702	-0.1890	5.99	0.00	-0.750			
0.0030	188.96	4.0670	4.0670	-0.2127	5.99	0.00	-0.750			
0.0036	231.31	4.0640	4.0639	-0.2346	5.99	0.00	-0.750			
0.0044	279.07	4.0610	4.0611	-0.2549	5.99	0.00	-0.750			
0.0052	329.73	4.0580	4.0580	-0.2773	5.99	-0.00	-0.750			
0.0060	385.23	4.0550	4.0550	-0.2986	5.99	-0.00	-0.750			
0.0070	445.33	4.0520	4.0520	-0.3195	5.99	-0.00	-0.750			
0.0079	508.10	4.0490	4.0489	-0.3409	5.98	-0.01	-0.750			
0.0090	575.73	4.0460	4.0460	-0.3635	5.98	-0.01	-0.750			
0.0101	647.20	4.0430	4.0431	-0.3848	5.98	-0.01	-0.750			
0.0113	723.90	4.0400	4.0399	-0.4060	5.98	-0.01	-0.750			
0.0126	803.74	4.0370	4.0371	-0.4270	5.98	-0.01	-0.750			
0.0139	888.31	4.0340	4.0340	-0.4482	5.97	-0.02	-0.750			
0.0153	976.68	4.0310	4.0310	-0.4662	5.97	-0.02	-0.750			
0.0167	1068.63	4.0280	4.0281	-0.4814	5.97	-0.02	-0.750			
0.0182	1163.00	4.0250	4.0250	-0.4968	5.97	-0.02	-0.750			
0.0197	1260.08	4.0220	4.0221	-0.5126	5.97	-0.02	-0.750			
0.0212	1359.43	4.0190	4.0190	-0.5280	5.98	-0.01	-0.750			
0.0228	1461.36	4.0160	4.0160	-0.5425	5.98	-0.01	-0.750			
0.0245	1567.38	4.0130	4.0130	-0.5595	5.98	-0.01	-0.750			
0.0262	1675.83	4.0100	4.0100	-0.5803	5.98	-0.01	-0.750			
0.0280	1790.08	4.0070	4.0070	-0.5985	5.99	-0.00	-0.750			
0.0298	1907.19	4.0040	4.0040	-0.6101	5.99	0.00	-0.750			
0.0317	2026.98	4.0010	4.0010	-0.6214	5.99	0.00	-0.750			
0.0336	2148.35	3.9980	3.9981	-0.6273	6.00	0.01	-0.750			
0.0355	2269.88	3.9950	3.9950	-0.6325	6.00	0.01	-0.750			
0.0374	2392.01	3.9920	3.9920	-0.6354	6.00	0.01	-0.750			
0.0393	2512.63	3.9890	3.9890	-0.6382	6.01	0.02	-0.750			
0.0412	2635.56	3.9860	3.9860	-0.6468	6.01	0.02	-0.750			
0.0431	2760.00	3.9830	3.9830	-0.6561	6.01	0.02	-0.750			
0.0451	2886.69	3.9800	3.9799	-0.6645	6.02	0.03	-0.750			
0.0471	3015.15	3.9770	3.9771	-0.6745	6.02	0.03	-0.750			
0.0492	3147.12	3.9740	3.9740	-0.6731	6.03	0.04	-0.750			
0.0512	3277.26	3.9710	3.9710	-0.6752	6.03	0.04	-0.750			
0.0532	3406.36	3.9680	3.9681	-0.6766	6.04	0.05	-0.750			
0.0552	3535.50	3.9650	3.9650	-0.6799	6.04	0.05	-0.750			
0.0573	3664.64	3.9620	3.9619	-0.6884	6.05	0.06	-0.750			
0.0593	3796.79	3.9590	3.9589	-0.7034	6.05	0.06	-0.750			
0.0615	3933.37	3.9560	3.9560	-0.7117	6.06	0.07	-0.750			
0.0637	4075.09	3.9530	3.9531	-0.7166	6.06	0.07	-0.750			
0.0659	4214.91	3.9500	3.9499	-0.7181	6.07	0.08	-0.750			
0.0680	4352.64	3.9470	3.9471	-0.7180	6.07	0.08	-0.750			
0.0701	4488.67	3.9440	3.9439	-0.7148	6.08	0.09	-0.750			
0.0723	4624.51	3.9410	3.9410	-0.7130	6.09	0.10	-0.750			
0.0744	4760.56	3.9380	3.9380	-0.7138	6.09	0.10	-0.750			
0.0766	4899.38	3.9350	3.9350	-0.7177	6.10	0.11	-0.750			
0.0787	5039.01	3.9320	3.9320	-0.7238	6.11	0.12	-0.750			
0.0809	5175.81	3.9290	3.9290	-0.7247	6.12	0.13	-0.750			
0.0830	5314.91	3.9260	3.9260	-0.7250	6.12	0.13	-0.750			
0.0852	5455.95	3.9230	3.9229	-0.7271	6.13	0.14	-0.750			
0.0874	5595.34	3.9200	3.9200	-0.7288	6.14	0.15	-0.750			
0.0896	5736.17	3.9170	3.9172	-0.7299	6.15	0.16	-0.750			
0.0918	5876.52	3.9140	3.9141	-0.7311	6.16	0.17	-0.750			
0.0940	6016.15	3.9110	3.9109	-0.7289	6.17	0.18	-0.750			
0.0962	6156.21	3.9080	3.9081	-0.7282	6.17	0.18	-0.750			
0.0984	6297.39	3.9050	3.9050	-0.7315	6.18	0.19	-0.750			
0.1006	6438.35	3.9020	3.9019	-0.7336	6.19	0.20	-0.750			
0.1028	6577.95	3.8990	3.8990	-0.7321	6.19	0.20	-0.750			
0.1050	6717.08	3.8960	3.8961	-0.7368	6.20	0.21	-0.750			
0.1072	6859.13	3.8930	3.8928	-0.7408	6.21	0.22	-0.750			
0.1094	7001.64	3.8900	3.8900	-0.7492	6.22	0.23	-0.750			
0.1116	7145.38	3.8870	3.8870	-0.7522	6.22	0.23	-0.750			
0.1140	7293.26	3.8840	3.8840	-0.7557	6.23	0.24	-0.750			
0.1162	7439.28	3.8810	3.8809	-0.7575	6.24	0.25	-0.750			
0.1185	7584.51	3.8780	3.8781	-0.7524	6.25	0.26	-0.750			
0.1208	7728.36	3.8750	3.8749	-0.7492	6.26	0.27	-0.750			
0.1230	7871.68	3.8720	3.8720	-0.7567	6.26	0.27	-0.750			
0.1252	8015.87	3.8690	3.8690	-0.7560	6.27	0.28	-0.750			
0.1276	8163.22	3.8660	3.8658	-0.7625	6.28	0.29	-0.750			
0.1299	8311.50	3.8630	3.8632	-0.7616	6.29	0.30	-0.750			
0.1322	8458.67	3.8600	3.8599	-0.7553	6.30	0.31	-0.750			
0.1344	8602.60	3.8570	3.8570	-0.7591	6.31	0.32	-0.750			
0.1366	8744.58	3.8540	3.8542	-0.7483	6.31	0.32	-0.750			
0.1389	8891.49	3.8510	3.8508	-0.7509	6.32	0.33	-0.750			
0.1412	9034.40	3.8480	3.8481	-0.7559	6.33	0.34	-0.750			
0.1434	9179.35	3.8450	3.8451	-0.7565	6.34	0.35	-0.750			
0.1457	9324.80	3.8420	3.8419	-0.7617	6.35	0.36	-0.750			
0.1480	9473.00	3.8390	3.8389	-0.7641	6.35	0.36	-0.750			
0.1503	9618.52	3.8360	3.8361	-0.7632	6.36	0.37	-0.750			
0.1526	9766.93	3.8330	3.8329	-0.7698	6.37	0.38	-0.750			
0.1549	9915.11	3.8300	3.8302	-0.7727	6.38	0.39	-0.750			
0.1572	10061.14	3.8270	3.8269	-0.7668	6.39	0.40	-0.750			
0.1595	10209.94	3.8240	3.8240	-0.7752	6.40	0.41	-0.750			
0.1619	10359.35	3.8210	3.8210	-0.7732	6.41	0.42	-0.750			
0.1642	10508.52	3.8180	3.8180	-0.7751	6.42	0.43	-0.750			
0.1665	10659.01	3.8150	3.8151	-0.7711	6.43	0.44	-0.750			
0.1688	10805.47	3.8120	3.8120	-0.7677	6.44	0.45	-0.750			
0.1711	10951.86	3.8090	3.8090	-0.7681	6.45	0.46	-0.750			
0.1734	11097.94	3.8060	3.8060	-0.7710	6.46	0.47	-0.750			
0.1757	11244.90	3.8030	3.8029	-0.7729	6.47	0.48	-0.750			
0.1781	11395.33	3.8000	3.7999	-0.7766	6.48	0.49	-0.750			
0.1804	11544.22	3.7970	3.7971	-0.7788	6.49	0.50	-0.750			
0.1827	11695.14	3.7940	3.7940	-0.7867	6.50	0.51	-0.750			
0.1851	11846.20	3.7910	3.7908	-0.7856	6.51	0.52	-0.750			
0.1875	11996.80	3.7880	3.7880	-0.7829	6.52	0.53	-0.750			
0.1898	12147.90	3.7850	3.7850	-0.7810	6.52	0.53	-0.750			
0.1922	12298.52	3.7820	3.7821	-0.7840	6.53	0.54	-0.750			
0.1945	12448.86	3.7790	3.7790	-0.7838	6.54	0.55	-0.750			
0.1968	12597.59	3.7760	3.7759	-0.7839	6.55	0.56	-0.750			
0.1992	12748.40	3.7730	3.7730	-0.7834	6.56	0.57	-0.750			
0.2016	12899.64	3.7700	3.7700	-0.7870	6.57	0.58	-0.750			
0.2039	13050.89	3.7670	3.7672	-0.7882	6.58	0.59	-0.750			
0.2063	13202.66	3.7640	3.7639	-0.7895	6.59	0.60	-0.750			
0.2086	13352.64	3.7610	3.7610	-0.7913	6.60	0.61	-0.750			
0.2110	13505.07	3.7580	3.7580	-0.7869	6.61	0.62	-0.750			
0.2134	13655.46	3.7550	3.7550	-0.7910	6.62	0.63	-0.750			
0.2158	13810.13	3.7520	3.7520	-0.7961	6.63	0.64	-0.750			
0.2182	13962.14	3.7490	3.7489	-0.7983	6.64	0.65	-0.750			
0.2205	14114.27	3.7460	3.7460	-0.8075	6.64	0.65	-0.750			
0.2230	14271.71	3.7430	3.7431	-0.8108	6.65	0.66	-0.750			
0.2254	14428.41	3.7400	3.7399	-0.8114	6.66	0.67	-0.750			
0.2279	14586.10	3.7370	3.7371	-0.8136	6.67	0.68	-0.750			
0.2303	14741.66	3.7340	3.7341	-0.8110	6.68	0.69	-0.750			
0.2328	14896.01	3.7310	3.7309	-0.8196	6.69	0.70	-0.750			
0.2352	15053.59	3.7280	3.7280	-0.8159	6.70	0.71	-0.750			
0.2376	15209.19	3.7250	3.7249	-0.8201	6.71	0.72	-0.750			
0.2401	15368.15	3.7220	3.7221	-0.8279	6.72	0.73	-0.750			
0.2426	15529.24	3.7190	3.7190	-0.8335	6.73	0.74	-0.750			
0.2451	15687.40	3.7160	3.7159	-0.8447	6.74	0.75	-0.750			
0.2477	15850.34	3.7130	3.7130	-0.8482	6.75	0.76	-0.750			
0.2502	16015.60	3.7100	3.7100	-0.8514	6.76	0.77	-0.750			
0.2528	16182.31	3.7070	3.7070	-0.8540	6.77	0.78	-0.750			
0.2554	16346.03	3.7040	3.7041	-0.8497	6.77	0.78	-0.750			
0.2579	16507.36	3.7010	3.7010	-0.8578	6.78	0.79	-0.750			
0.2605	16669.38	3.6980	3.6979	-0.8589	6.79	0.80	-0.750			
0.2630	16832.65	3.6950	3.6949	-0.8626	6.80	0.81	-0.750			
0.2656	17001.45	3.6920	3.6921	-0.8729	6.81	0.82	-0.750			
0.2683	17172.68	3.6890	3.6890	-0.8815	6.82	0.83	-0.750			
0.2710	17341.75	3.6860	3.6860	-0.8863	6.83	0.84	-0.750			
0.2736	17512.65	3.6830	3.6829	-0.8824	6.84	0.85	-0.750			
0.2762	17679.68	3.6800	3.6800	-0.8842	6.85	0.86	-0.750			
0.2789	17851.26	3.6770	3.6771	-0.8933	6.86	0.87	-0.750			
0.2816	18020.83	3.6740	3.6740	-0.9135	6.87	0.88	-0.750			
0.2843	18197.98	3.6710	3.6710	-0.9253	6.88	0.89	-0.750			
0.2871	18377.53	3.6680	3.6679	-0.9336	6.88	0.89	-0.750			
0.2900	18559.77	3.6650	3.6649	-0.9347	6.89	0.90	-0.750			
0.2929	18744.55	3.6620	3.6621	-0.9416	6.90	0.91	-0.750			
0.2957	18922.54	3.6590	3.6591	-0.9482	6.91	0.92	-0.750			
0.2985	19104.93	3.6560	3.6559	-0.9468	6.92	0.93	-0.750			
0.3013	19282.43	3.6530	3.6529	-0.9454	6.92	0.93	-0.750			
0.3042	19467.82	3.6500	3.6502	-0.9608	6.93	0.94	-0.750			
0.3071	19654.11	3.6470	3.6470	-0.9795	6.94	0.95	-0.750			
0.3101	19844.42	3.6440	3.6438	-0.9853	6.95	0.96	-0.750			
0.3131	20035.89	3.6410	3.6410	-0.9844	6.96	0.97	-0.750			
0.3160	20225.05	3.6380	3.6380	-0.9904	6.97	0.98	-0.750			
0.3190	20415.40	3.6350	3.6350	-0.9984	6.97	0.98	-0.750			
0.3220	20605.50	3.6320	3.6320	-0.9958	6.98	0.99	-0.750			
0.3249	20794.99	3.6290	3.6289	-1.0081	6.98	0.99	-0.750			
0.3280	20989.31	3.6260	3.6259	-1.0065	6.99	1.00	-0.750			
0.3311	21187.38	3.6230	3.6229	-1.0230	6.99	1.00	-0.750			
0.3341	21384.68	3.6200	3.6200	-1.0302	7.00	1.01	-0.750			
0.3372	21582.22	3.6170	3.6171	-1.0360	7.01	1.02	-0.750			
0.3403	21780.90	3.6140	3.6138	-1.0413	7.02	1.03	-0.750			
0.3435	21984.04	3.6110	3.6111	-1.0517	7.03	1.04	-0.750			
0.3466	22184.06	3.6080	3.6080	-1.0597	7.04	1.05	-0.750			
0.3499	22391.23	3.6050	3.6050	-1.0705	7.05	1.06	-0.750			
0.3531	22595.84	3.6020	3.6019	-1.0758	7.06	1.07	-0.750			
0.3563	22804.51	3.5990	3.5991	-1.0829	7.06	1.07	-0.750			
0.3596	23013.40	3.5960	3.5960	-1.0908	7.07	1.08	-0.750			
0.3628	23222.35	3.5930	3.5928	-1.1067	7.07	1.08	-0.750			
0.3662	23438.26	3.5900	3.5902	-1.1265	7.08	1.09	-0.750			
0.3696	23657.58	3.5870	3.5868	-1.1299	7.09	1.10	-0.750			
0.3731	23880.61	3.5840	3.5839	-1.1342	7.10	1.11	-0.750			
0.3765	24098.43	3.5810	3.5811	-1.1301	7.10	1.11	-0.750	0.436	0.852	
0.3799	24312.48	3.5780	3.5777	-1.1388	7.11	1.12	-0.750			
0.3833	24530.65	3.5750	3.5749	-1.1338	7.12	1.13	-0.750			
0.3866	24745.37	3.5720	3.5718	-1.1366	7.13	1.14	-0.750			
0.3900	24959.69	3.5690	3.5691	-1.1433	7.14	1.15	-0.750			
0.3936	25187.43	3.5660	3.5659	-1.1746	7.14	1.15	-0.750			
0.3971	25414.60	3.5630	3.5629	-1.1863	7.15	1.16	-0.750			
0.4007	25643.99	3.5600	3.5598	-1.1929	7.16	1.17	-0.750			
0.4043	25873.15	3.5570	3.5572	-1.2060	7.17	1.18	-0.750			
0.4080	26112.32	3.5540	3.5540	-1.2069	7.18	1.19	-0.750			
0.4116	26344.35	3.5510	3.5509	-1.2065	7.18	1.19	-0.750			
0.4152	26573.38	3.5480	3.5479	-1.2071	7.19	1.20	-0.750			
0.4188	26801.57	3.5450	3.5449	-1.2108	7.19	1.20	-0.750			
0.4224	27033.00	3.5420	3.5419	-1.2233	7.20	1.21	-0.750			
0.4261	27268.94	3.5390	3.5389	-1.2385	7.21	1.22	-0.750			
0.4299	27512.49	3.5360	3.5361	-1.2522	7.22	1.23	-0.750			
0.4337	27754.47	3.5330	3.5330	-1.2654	7.23	1.24	-0.750			
0.4374	27994.48	3.5300	3.5301	-1.2726	7.24	1.25	-0.750			
0.4412	28237.86	3.5270	3.5269	-1.2836	7.25	1.26	-0.750			
0.4451	28489.36	3.5240	3.5239	-1.2969	7.26	1.27	-0.750			
0.4491	28740.56	3.5210	3.5208	-1.2907	7.27	1.28	-0.750			
0.4530	28991.35	3.5180	3.5182	-1.2945	7.28	1.29	-0.750			
0.4569	29241.59	3.5150	3.5150	-1.2876	7.29	1.30	-0.750			
0.4607	29484.25	3.5120	3.5119	-1.2774	7.30	1.31	-0.750			
0.4645	29728.18	3.5090	3.5090	-1.2756	7.30	1.31	-0.750			
0.4683	29968.56	3.5060	3.5061	-1.2690	7.31	1.32	-0.750			
0.4721	30216.96	3.5030	3.5029	-1.2761	7.32	1.33	-0.750			
0.4760	30462.46	3.5000	3.5000	-1.2743	7.33	1.34	-0.750			
0.4797	30703.23	3.4970	3.4972	-1.2882	7.34	1.35	-0.750			
0.4837	30955.21	3.4940	3.4939	-1.2856	7.35	1.36	-0.750			
0.4876	31203.86	3.4910	3.4909	-1.2763	7.37	1.38	-0.750			
0.4914	31449.02	3.4880	3.4884	-1.2844	7.38	1.39	-0.750			
0.4953	31698.32	3.4850	3.4849	-1.2792	7.39	1.40	-0.750			
0.4991	31942.66	3.4820	3.4819	-1.2681	7.40	1.41	-0.750			
0.5028	32181.51	3.4790	3.4789	-1.2522	7.42	1.43	-0.750			
0.5066	32422.10	3.4760	3.4760	-1.2485	7.43	1.44	-0.750			
0.5103	32660.99	3.4730	3.4730	-1.2478	7.44	1.45	-0.750			
0.5141	32900.41	3.4700	3.4700	-1.2306	7.45	1.46	-0.750			
0.5177	33131.84	3.4670	3.4669	-1.2208	7.46	1.47	-0.750			
0.5214	33370.95	3.4640	3.4641	-1.2171	7.47	1.48	-0.750			
0.5250	33601.77	3.4610	3.4610	-1.2078	7.49	1.50	-0.750			
0.5286	33832.29	3.4580	3.4580	-1.2034	7.50	1.51	-0.750			
0.5322	34059.46	3.4550	3.4550	-1.1998	7.51	1.52	-0.750			
0.5358	34289.81	3.4520	3.4519	-1.2008	7.53	1.54	-0.750			
0.5394	34524.39	3.4490	3.4490	-1.1988	7.54	1.55	-0.750			
0.5430	34752.27	3.4460	3.4460	-1.1966	7.55	1.56	-0.750			
0.5467	34990.65	3.4430	3.4430	-1.1854	7.57	1.58	-0.750			
0.5502	35215.46	3.4400	3.4398	-1.1620	7.58	1.59	-0.750			
0.5537	35436.12	3.4370	3.4370	-1.1375	7.60	1.61	-0.750			
0.5571	35651.37	3.4340	3.4339	-1.1202	7.61	1.62	-0.750			
0.5604	35862.41	3.4310	3.4310	-1.1012	7.62	1.63	-0.750			
0.5636	36070.58	3.4280	3.4280	-1.0898	7.64	1.65	-0.750			
0.5668	36272.74	3.4250	3.4252	-1.0848	7.65	1.66	-0.750			
0.5701	36487.62	3.4220	3.4219	-1.0928	7.67	1.68	-0.750			
0.5734	36694.47	3.4190	3.4189	-1.0828	7.68	1.69	-0.750			
0.5766	36903.87	3.4160	3.4159	-1.0742	7.70	1.71	-0.750			
0.5799	37111.68	3.4130	3.4132	-1.0682	7.71	1.72	-0.750			
0.5831	37315.41	3.4100	3.4100	-1.0557	7.73	1.74	-0.750			
0.5862	37514.65	3.4070	3.4070	-1.0378	7.74	1.75	-0.750			
0.5892	37711.62	3.4040	3.4039	-1.0249	7.76	1.77	-0.750			
0.5923	37909.81	3.4010	3.4011	-1.0095	7.77	1.78	-0.750			
0.5953	38102.31	3.3980	3.3979	-0.9954	7.79	1.80	-0.750			
0.5984	38294.78	3.3950	3.3950	-0.9801	7.80	1.81	-0.750			
0.6013	38481.18	3.3920	3.3920	-0.9518	7.82	1.83	-0.750			
0.6041	38660.47	3.3890	3.3892	-0.9288	7.83	1.84	-0.750			
0.6068	38835.69	3.3860	3.3860	-0.9118	7.84	1.85	-0.750			
0.6095	39005.99	3.3830	3.3830	-0.8900	7.85	1.86	-0.750			
0.6121	39174.37	3.3800	3.3799	-0.8772	7.87	1.88	-0.750			
0.6147	39340.85	3.3770	3.3770	-0.8694	7.88	1.89	-0.750			
0.6173	39505.85	3.3740	3.3742	-0.8632	7.89	1.90	-0.750			
0.6199	39673.68	3.3710	3.3708	-0.8593	7.91	1.92	-0.750			
0.6225	39838.46	3.3680	3.3680	-0.8455	7.93	1.94	-0.750			
0.6250	40001.24	3.3650	3.3651	-0.8245	7.94	1.95	-0.750			
0.6275	40160.86	3.3620	3.3620	-0.8076	7.96	1.97	-0.750			
0.6299	40313.47	3.3590	3.3590	-0.7827	7.97	1.98	-0.750			
0.6322	40459.89	3.3560	3.3560	-0.7542	7.99	2.00	-0.750			
0.6344	40599.87	3.3530	3.3530	-0.7366	8.01	2.02	-0.750			
0.6365	40738.08	3.3500	3.3500	-0.7216	8.02	2.03	-0.750			
0.6387	40875.84	3.3470	3.3469	-0.7117	8.04	2.05	-0.750			
0.6408	41011.09	3.3440	3.3439	-0.7001	8.05	2.06	-0.750			
0.6429	41145.02	3.3410	3.3411	-0.6899	8.07	2.08	-0.750			
0.6450	41276.94	3.3380	3.3379	-0.6798	8.08	2.09	-0.750			
0.6470	41407.27	3.3350	3.3350	-0.6680	8.09	2.10	-0.750			
0.6490	41532.91	3.3320	3.3320	-0.6532	8.11	2.12	-0.750			
0.6509	41658.50	3.3290	3.3290	-0.6427	8.12	2.13	-0.750			
0.6528	41781.92	3.3260	3.3260	-0.6274	8.13	2.14	-0.750			
0.6547	41900.81	3.3230	3.3231	-0.6126	8.14	2.15	-0.750			
0.6565	42017.55	3.3200	3.3200	-0.5965	8.16	2.17	-0.750			
0.6583	42129.88	3.3170	3.3170	-0.5817	8.18	2.19	-0.750			
0.6600	42239.10	3.3140	3.3141	-0.5683	8.19	2.20	-0.750			
0.6617	42346.94	3.3110	3.3110	-0.5624	8.21	2.22	-0.750			
0.6633	42453.76	3.3080	3.3080	-0.5497	8.22	2.23	-0.750			
0.6650	42558.60	3.3050	3.3049	-0.5435	8.24	2.25	-0.750			
0.6666	42661.70	3.3020	3.3021	-0.5348	8.24	2.25	-0.750			
0.6682	42764.33	3.2990	3.2990	-0.5292	8.25	2.26	-0.750			
0.6698	42865.40	3.2960	3.2960	-0.5181	8.27	2.28	-0.750			
0.6713	42963.71	3.2930	3.2930	-0.5091	8.28	2.29	-0.750			
0.6728	43060.20	3.2900	3.2901	-0.5006	8.29	2.30	-0.750			
0.6743	43156.04	3.2870	3.2870	-0.4970	8.31	2.32	-0.750			
0.6758	43250.23	3.2840	3.2840	-0.4855	8.32	2.33	-0.750			
0.6772	43343.29	3.2810	3.2809	-0.4775	8.33	2.34	-0.750			
0.6787	43434.35	3.2780	3.2780	-0.4678	8.35	2.36	-0.750			
0.6801	43524.38	3.2750	3.2751	-0.4603	8.36	2.37	-0.750			
0.6814	43610.75	3.2720	3.2719	-0.4489	8.37	2.38	-0.750			
0.6827	43695.42	3.2690	3.2690	-0.4392	8.38	2.39	-0.750			
0.6840	43778.12	3.2660	3.2660	-0.4323	8.40	2.41	-0.750			
0.6853	43861.10	3.2630	3.2629	-0.4262	8.41	2.42	-0.750			
0.6866	43942.54	3.2600	3.2600	-0.4199	8.42	2.43	-0.750			
0.6878	44022.33	3.2570	3.2571	-0.4150	8.44	2.45	-0.750			
0.6891	44101.47	3.2540	3.2540	-0.4093	8.45	2.46	-0.750			
0.6903	44179.59	3.2510	3.2509	-0.4040	8.46	2.47	-0.750			
0.6915	44256.44	3.2480	3.2480	-0.3968	8.46	2.47	-0.750			
0.6927	44331.85	3.2450	3.2450	-0.3920	8.47	2.48	-0.750			
0.6939	44407.76	3.2420	3.2419	-0.3865	8.48	2.49	-0.750			
0.6950	44480.99	3.2390	3.2391	-0.3790	8.50	2.51	-0.750			
0.6961	44553.26	3.2360	3.2360	-0.3717	8.51	2.52	-0.750			
0.6972	44623.92	3.2330	3.2330	-0.3667	8.52	2.53	-0.750			
0.6983	44693.62	3.2300	3.2301	-0.3607	8.53	2.54	-0.750			
0.6994	44761.90	3.2270	3.2269	-0.3553	8.55	2.56	-0.750			
0.7005	44829.24	3.2240	3.2240	-0.3488	8.56	2.57	-0.750			
0.7015	44896.13	3.2210	3.2211	-0.3458	8.57	2.58	-0.750			
0.7025	44961.87	3.2180	3.2180	-0.3404	8.58	2.59	-0.750			
0.7036	45027.24	3.2150	3.2150	-0.3380	8.59	2.60	-0.750			
0.7046	45091.29	3.2120	3.2120	-0.3342	8.60	2.61	-0.750			
0.7055	45155.10	3.2090	3.2090	-0.3308	8.61	2.62	-0.750			
0.7065	45218.43	3.2060	3.2059	-0.3275	8.62	2.63	-0.750			
0.7075	45281.02	3.2030	3.2031	-0.3262	8.63	2.64	-0.750			
0.7085	45343.75	3.2000	3.1999	-0.3206	8.65	2.66	-0.750			
0.7095	45405.01	3.1970	3.1969	-0.3165	8.66	2.67	-0.750			
0.7104	45464.94	3.1940	3.1940	-0.3122	8.67	2.68	-0.750			
0.7113	45524.58	3.1910	3.1910	-0.3089	8.68	2.69	-0.750			
0.7123	45584.00	3.1880	3.1879	-0.3047	8.69	2.70	-0.750			
0.7131	45641.59	3.1850	3.1850	-0.3014	8.70	2.71	-0.750			
0.7140	45698.88	3.1820	3.1820	-0.2966	8.71	2.72	-0.750			
0.7149	45756.21	3.1790	3.1790	-0.2949	8.72	2.73	-0.750			
0.7158	45811.98	3.1760	3.1760	-0.2915	8.73	2.74	-0.750			
0.7167	45867.89	3.1730	3.1731	-0.2875	8.74	2.75	-0.750			
0.7175	45922.77	3.1700	3.1699	-0.2845	8.75	2.76	-0.750			
0.7184	45977.50	3.1670	3.1670	-0.2826	8.76	2.77	-0.750			
0.7192	46031.21	3.1640	3.1640	-0.2781	8.77	2.78	-0.750			
0.7201	46084.29	3.1610	3.1608	-0.2739	8.78	2.79	-0.750			
0.7209	46136.34	3.1580	3.1580	-0.2707	8.79	2.80	-0.750			
0.7217	46187.81	3.1550	3.1551	-0.2681	8.80	2.81	-0.750			
0.7225	46238.98	3.1520	3.1520	-0.2662	8.81	2.82	-0.750			
0.7233	46290.19	3.1490	3.1489	-0.2636	8.82	2.83	-0.750			
0.7241	46340.11	3.1460	3.1461	-0.2603	8.83	2.84	-0.750			
0.7248	46390.08	3.1430	3.1430	-0.2589	8.84	2.85	-0.750			
0.7256	46440.04	3.1400	3.1400	-0.2570	8.85	2.86	-0.750			
0.7264	46488.75	3.1370	3.1369	-0.2546	8.85	2.86	-0.750			
0.7271	46537.06	3.1340	3.1340	-0.2517	8.86	2.87	-0.750			
0.7279	46585.17	3.1310	3.1310	-0.2506	8.87	2.88	-0.750			
0.7286	46633.18	3.1280	3.1280	-0.2488	8.88	2.89	-0.750			
0.7294	46681.18	3.1250	3.1250	-0.2476	8.89	2.90	-0.750			
0.7301	46728.38	3.1220	3.1220	-0.2455	8.90	2.91	-0.750			
0.7309	46775.16	3.1190	3.1191	-0.2437	8.91	2.92	-0.750			
0.7316	46821.91	3.1160	3.1161	-0.2418	8.92	2.93	-0.750			
0.7323	46868.36	3.1130	3.1129	-0.2404	8.93	2.94	-0.750			
0.7330	46914.31	3.1100	3.1100	-0.2377	8.94	2.95	-0.750			
0.7337	46959.57	3.1070	3.1071	-0.2365	8.95	2.96	-0.750			
0.7345	47004.93	3.1040	3.1040	-0.2340	8.96	2.97	-0.750			
0.7352	47049.88	3.1010	3.1010	-0.2311	8.97	2.98	-0.750			
0.7358	47094.10	3.0980	3.0979	-0.2284	8.98	2.99	-0.750			
0.7365	47137.70	3.0950	3.0951	-0.2255	8.99	3.00	-0.750			
0.7372	47180.60	3.0920	3.0920	-0.2237	9.00	3.01	-0.750			
0.7379	47223.10	3.0890	3.0889	-0.2220	9.01	3.02	-0.750			
0.7385	47265.29	3.0860	3.0860	-0.2200	9.02	3.03	-0.750			
0.7392	47306.42	3.0830	3.0830	-0.2195	9.03	3.04	-0.750			
0.7398	47349.10	3.0800	3.0800	-0.2196	9.04	3.05	-0.750			
0.7405	47391.95	3.0770	3.0770	-0.2184	9.05	3.06	-0.750			
0.7412	47433.69	3.0740	3.0739	-0.2164	9.06	3.07	-0.750			
0.7418	47475.57	3.0710	3.0712	-0.2135	9.07	3.08	-0.750			
0.7424	47515.86	3.0680	3.0681	-0.2129	9.08	3.09	-0.750			
0.7431	47556.31	3.0650	3.0650	-0.2109	9.09	3.10	-0.750			
0.7437	47596.70	3.0620	3.0619	-0.2097	9.10	3.11	-0.750			
0.7443	47636.18	3.0590	3.0588	-0.2090	9.11	3.12	-0.750			
0.7449	47676.63	3.0560	3.0561	-0.2079	9.12	3.13	-0.750			
0.7456	47716.94	3.0530	3.0529	-0.2079	9.13	3.14	-0.750			
0.7462	47756.70	3.0500	3.0501	-0.2062	9.14	3.15	-0.750			
0.7468	47796.30	3.0470	3.0470	-0.2058	9.15	3.16	-0.750			
0.7474	47834.90	3.0440	3.0440	-0.2050	9.16	3.17	-0.750			
0.7480	47874.70	3.0410	3.0410	-0.2045	9.17	3.18	-0.750			
0.7487	47913.96	3.0380	3.0381	-0.2035	9.18	3.19	-0.750			
0.7493	47952.90	3.0350	3.0350	-0.2025	9.19	3.20	-0.750			
0.7499	47992.33	3.0320	3.0321	-0.2007	9.20	3.21	-0.750			
0.7505	48030.72	3.0290	3.0289	-0.1984	9.21	3.22	-0.750			
0.7511	48068.11	3.0260	3.0261	-0.1961	9.22	3.23	-0.750			
0.7516	48105.59	3.0230	3.0230	-0.1943	9.23	3.24	-0.750			
0.7522	48142.35	3.0200	3.0200	-0.1936	9.24	3.25	-0.750			
0.7528	48179.44	3.0170	3.0169	-0.1927	9.25	3.26	-0.750			
0.7534	48216.27	3.0140	3.0140	-0.1915	9.25	3.26	-0.750			
0.7540	48253.01	3.0110	3.0110	-0.1912	9.26	3.27	-0.750			
0.7545	48289.97	3.0080	3.0081	-0.1904	9.27	3.28	-0.750			
0.7551	48326.62	3.0050	3.0049	-0.1883	9.28	3.29	-0.750			
0.7557	48362.57	3.0020	3.0020	-0.1859	9.29	3.30	-0.750			
