Ah_balance (normalized)	Ah_balance (mAh)	Voltage - fit (V)	Voltage -  interpolate (V)	dQ/dV (1/V)	Temperature (°C)	Temperature - diff (°C)	Current (C)	R_DC 0ms (mOhm)	R_DC 50ms (mOhm)	R_DC 50 ms PEC (mOhm)
0.0000	0.00	4.0900	4.1292	0.0000	5.96	-0.02	-0.749			
0.0000	0.00	4.0930	4.1292	0.0000	5.96	-0.02	-0.749			
0.0000	0.00	4.0960	4.1292	0.0000	5.96	-0.02	-0.749			
0.0002	11.14	4.0870	4.0879	-0.0522	5.96	-0.02	-0.750			
0.0004	25.56	4.0840	4.0839	-0.0774	5.96	-0.02	-0.750			
0.0007	42.86	4.0810	4.0808	-0.1027	5.96	-0.02	-0.750			
0.0010	65.27	4.0780	4.0779	-0.1267	5.96	-0.02	-0.750			
0.0014	92.15	4.0750	4.0752	-0.1497	5.96	-0.02	-0.750			
0.0019	123.25	4.0720	4.0719	-0.1732	5.97	-0.01	-0.750			
0.0025	159.89	4.0690	4.0690	-0.1973	5.97	-0.01	-0.750			
0.0031	199.67	4.0660	4.0661	-0.2203	5.97	-0.01	-0.750			
0.0038	243.76	4.0630	4.0630	-0.2427	5.97	-0.01	-0.750			
0.0046	293.04	4.0600	4.0600	-0.2649	5.97	-0.01	-0.750			
0.0054	346.15	4.0570	4.0570	-0.2866	5.97	-0.01	-0.750			
0.0063	403.19	4.0540	4.0540	-0.3095	5.97	-0.01	-0.750			
0.0073	464.71	4.0510	4.0510	-0.3319	5.97	-0.01	-0.750			
0.0083	531.07	4.0480	4.0480	-0.3525	5.98	-0.00	-0.750			
0.0094	601.16	4.0450	4.0449	-0.3715	5.98	-0.00	-0.750			
0.0105	674.72	4.0420	4.0419	-0.3909	5.98	-0.00	-0.750			
0.0117	751.67	4.0390	4.0392	-0.4113	5.98	0.00	-0.750			
0.0130	831.51	4.0360	4.0359	-0.4336	5.98	0.00	-0.750			
0.0143	916.00	4.0330	4.0330	-0.4542	5.98	0.00	-0.750			
0.0157	1005.79	4.0300	4.0299	-0.4740	5.99	0.01	-0.750			
0.0172	1099.80	4.0270	4.0271	-0.4963	5.99	0.01	-0.750			
0.0187	1198.30	4.0240	4.0241	-0.5211	5.99	0.01	-0.750			
0.0203	1300.76	4.0210	4.0210	-0.5388	5.99	0.01	-0.750			
0.0220	1407.76	4.0180	4.0178	-0.5501	6.00	0.02	-0.750			
0.0237	1515.40	4.0150	4.0152	-0.5602	6.00	0.02	-0.750			
0.0254	1625.10	4.0120	4.0121	-0.5718	6.00	0.02	-0.750			
0.0271	1735.27	4.0090	4.0091	-0.5807	6.01	0.03	-0.750			
0.0288	1844.78	4.0060	4.0060	-0.5936	6.01	0.03	-0.750			
0.0306	1959.34	4.0030	4.0028	-0.6064	6.01	0.03	-0.750			
0.0325	2077.87	4.0000	4.0000	-0.6185	6.01	0.03	-0.750			
0.0344	2200.81	3.9970	3.9970	-0.6354	6.02	0.04	-0.750			
0.0363	2322.58	3.9940	3.9943	-0.6447	6.02	0.04	-0.750			
0.0383	2449.93	3.9910	3.9909	-0.6540	6.02	0.04	-0.750			
0.0403	2576.30	3.9880	3.9879	-0.6526	6.03	0.05	-0.750			
0.0422	2700.89	3.9850	3.9851	-0.6580	6.03	0.05	-0.750			
0.0442	2829.20	3.9820	3.9821	-0.6604	6.04	0.06	-0.750			
0.0462	2955.08	3.9790	3.9789	-0.6631	6.04	0.06	-0.750			
0.0481	3080.59	3.9760	3.9760	-0.6671	6.05	0.07	-0.750			
0.0501	3207.24	3.9730	3.9732	-0.6760	6.06	0.08	-0.750			
0.0522	3339.29	3.9700	3.9699	-0.6873	6.06	0.08	-0.750			
0.0543	3472.71	3.9670	3.9670	-0.6971	6.07	0.09	-0.750			
0.0564	3606.57	3.9640	3.9640	-0.7052	6.08	0.10	-0.750			
0.0585	3747.05	3.9610	3.9612	-0.7125	6.09	0.11	-0.750			
0.0607	3883.51	3.9580	3.9578	-0.7102	6.10	0.12	-0.750			
0.0628	4018.87	3.9550	3.9551	-0.7082	6.10	0.12	-0.750			
0.0649	4155.25	3.9520	3.9519	-0.7074	6.11	0.13	-0.750			
0.0670	4290.76	3.9490	3.9490	-0.7094	6.12	0.14	-0.750			
0.0692	4426.35	3.9460	3.9459	-0.7064	6.13	0.15	-0.750			
0.0713	4561.16	3.9430	3.9431	-0.7085	6.13	0.15	-0.750			
0.0734	4698.27	3.9400	3.9402	-0.7149	6.14	0.16	-0.750			
0.0755	4834.62	3.9370	3.9369	-0.7176	6.15	0.17	-0.750			
0.0777	4973.39	3.9340	3.9339	-0.7201	6.15	0.17	-0.750			
0.0799	5111.83	3.9310	3.9311	-0.7309	6.16	0.18	-0.750			
0.0821	5253.56	3.9280	3.9280	-0.7297	6.17	0.19	-0.750			
0.0843	5396.85	3.9250	3.9249	-0.7330	6.17	0.19	-0.750			
0.0865	5536.96	3.9220	3.9224	-0.7320	6.18	0.20	-0.750			
0.0887	5676.63	3.9190	3.9188	-0.7297	6.19	0.21	-0.750			
0.0909	5816.56	3.9160	3.9160	-0.7270	6.20	0.22	-0.750			
0.0930	5954.96	3.9130	3.9131	-0.7245	6.21	0.23	-0.750			
0.0952	6095.13	3.9100	3.9100	-0.7319	6.22	0.24	-0.750			
0.0974	6235.31	3.9070	3.9069	-0.7309	6.22	0.24	-0.750			
0.0996	6373.23	3.9040	3.9040	-0.7345	6.23	0.25	-0.750			
0.1018	6514.98	3.9010	3.9009	-0.7388	6.24	0.26	-0.750			
0.1040	6658.08	3.8980	3.8980	-0.7471	6.25	0.27	-0.750			
0.1063	6802.42	3.8950	3.8949	-0.7539	6.26	0.28	-0.750			
0.1086	6948.17	3.8920	3.8921	-0.7575	6.27	0.29	-0.750			
0.1109	7094.86	3.8890	3.8890	-0.7582	6.28	0.30	-0.750			
0.1131	7241.31	3.8860	3.8859	-0.7612	6.29	0.31	-0.750			
0.1154	7386.33	3.8830	3.8830	-0.7545	6.30	0.32	-0.750			
0.1177	7531.73	3.8800	3.8800	-0.7633	6.31	0.33	-0.750			
0.1200	7678.04	3.8770	3.8770	-0.7650	6.31	0.33	-0.750			
0.1223	7827.13	3.8740	3.8739	-0.7646	6.32	0.34	-0.750			
0.1246	7975.84	3.8710	3.8711	-0.7576	6.33	0.35	-0.750			
0.1269	8121.52	3.8680	3.8680	-0.7554	6.34	0.36	-0.750			
0.1291	8264.10	3.8650	3.8651	-0.7530	6.35	0.37	-0.750			
0.1313	8405.54	3.8620	3.8620	-0.7458	6.35	0.37	-0.750			
0.1336	8550.43	3.8590	3.8589	-0.7493	6.36	0.38	-0.750			
0.1358	8692.53	3.8560	3.8560	-0.7563	6.37	0.39	-0.750			
0.1381	8839.90	3.8530	3.8531	-0.7626	6.38	0.40	-0.750			
0.1405	8989.33	3.8500	3.8499	-0.7726	6.39	0.41	-0.750			
0.1428	9137.10	3.8470	3.8470	-0.7687	6.40	0.42	-0.750			
0.1451	9284.61	3.8440	3.8441	-0.7663	6.41	0.43	-0.750			
0.1474	9432.85	3.8410	3.8409	-0.7734	6.41	0.43	-0.750			
0.1497	9582.27	3.8380	3.8380	-0.7713	6.42	0.44	-0.750			
0.1520	9726.69	3.8350	3.8350	-0.7713	6.43	0.45	-0.750			
0.1543	9877.58	3.8320	3.8321	-0.7715	6.44	0.46	-0.750			
0.1566	10025.28	3.8290	3.8290	-0.7724	6.45	0.47	-0.750			
0.1590	10174.71	3.8260	3.8260	-0.7737	6.46	0.48	-0.750			
0.1613	10323.39	3.8230	3.8233	-0.7720	6.47	0.49	-0.750			
0.1636	10469.79	3.8200	3.8200	-0.7713	6.48	0.50	-0.750			
0.1659	10619.78	3.8170	3.8170	-0.7703	6.49	0.51	-0.750			
0.1682	10765.39	3.8140	3.8140	-0.7705	6.50	0.52	-0.750			
0.1705	10914.64	3.8110	3.8110	-0.7764	6.51	0.53	-0.750			
0.1729	11062.73	3.8080	3.8079	-0.7734	6.53	0.55	-0.750			
0.1752	11211.70	3.8050	3.8050	-0.7758	6.53	0.55	-0.750			
0.1775	11360.13	3.8020	3.8021	-0.7824	6.54	0.56	-0.750			
0.1799	11512.61	3.7990	3.7990	-0.7787	6.55	0.57	-0.750			
0.1822	11662.34	3.7960	3.7959	-0.7766	6.56	0.58	-0.750			
0.1845	11810.72	3.7930	3.7931	-0.7777	6.56	0.58	-0.750			
0.1869	11960.21	3.7900	3.7900	-0.7755	6.57	0.59	-0.750			
0.1892	12108.91	3.7870	3.7869	-0.7744	6.58	0.60	-0.750			
0.1915	12255.97	3.7840	3.7841	-0.7797	6.59	0.61	-0.750			
0.1938	12406.02	3.7810	3.7809	-0.7824	6.60	0.62	-0.750			
0.1962	12559.07	3.7780	3.7779	-0.7892	6.61	0.63	-0.750			
0.1986	12710.42	3.7750	3.7752	-0.7903	6.62	0.64	-0.750			
0.2010	12862.81	3.7720	3.7720	-0.7851	6.63	0.65	-0.750			
0.2033	13012.85	3.7690	3.7690	-0.7947	6.64	0.66	-0.750			
0.2057	13163.84	3.7660	3.7660	-0.7949	6.65	0.67	-0.750			
0.2081	13317.62	3.7630	3.7629	-0.7971	6.66	0.68	-0.750			
0.2105	13471.14	3.7600	3.7600	-0.7990	6.67	0.69	-0.750			
0.2129	13625.37	3.7570	3.7571	-0.8002	6.68	0.70	-0.750			
0.2153	13779.24	3.7540	3.7540	-0.8040	6.68	0.70	-0.750			
0.2177	13934.18	3.7510	3.7509	-0.8093	6.69	0.71	-0.750			
0.2201	14086.31	3.7480	3.7480	-0.8081	6.70	0.72	-0.750			
0.2226	14244.64	3.7450	3.7449	-0.8123	6.71	0.73	-0.750			
0.2250	14401.61	3.7420	3.7421	-0.8146	6.71	0.73	-0.750			
0.2275	14557.93	3.7390	3.7390	-0.8168	6.72	0.74	-0.750			
0.2299	14715.65	3.7360	3.7359	-0.8139	6.73	0.75	-0.750			
0.2324	14870.69	3.7330	3.7330	-0.8110	6.74	0.76	-0.750			
0.2348	15026.93	3.7300	3.7300	-0.8125	6.75	0.77	-0.750			
0.2372	15182.99	3.7270	3.7271	-0.8155	6.75	0.77	-0.750			
0.2397	15339.38	3.7240	3.7239	-0.8242	6.76	0.78	-0.750			
0.2421	15496.28	3.7210	3.7211	-0.8286	6.77	0.79	-0.750			
0.2446	15655.82	3.7180	3.7178	-0.8347	6.78	0.80	-0.750			
0.2472	15818.94	3.7150	3.7150	-0.8426	6.79	0.81	-0.750			
0.2497	15981.05	3.7120	3.7120	-0.8498	6.80	0.82	-0.750			
0.2523	16144.49	3.7090	3.7091	-0.8626	6.81	0.83	-0.750			
0.2549	16311.67	3.7060	3.7060	-0.8699	6.82	0.84	-0.750			
0.2575	16481.68	3.7030	3.7028	-0.8710	6.83	0.85	-0.750			
0.2602	16650.51	3.7000	3.7001	-0.8750	6.84	0.86	-0.750			
0.2628	16818.64	3.6970	3.6970	-0.8791	6.84	0.86	-0.750			
0.2654	16986.56	3.6940	3.6941	-0.8793	6.85	0.87	-0.750			
0.2680	17152.36	3.6910	3.6908	-0.8771	6.86	0.88	-0.750			
0.2706	17320.13	3.6880	3.6880	-0.8846	6.86	0.88	-0.750			
0.2733	17492.21	3.6850	3.6851	-0.8981	6.87	0.89	-0.750			
0.2760	17666.80	3.6820	3.6820	-0.9081	6.88	0.90	-0.750			
0.2788	17844.17	3.6790	3.6791	-0.9137	6.88	0.90	-0.750			
0.2816	18021.41	3.6760	3.6759	-0.9120	6.89	0.91	-0.750			
0.2843	18194.53	3.6730	3.6730	-0.9133	6.90	0.92	-0.750			
0.2870	18370.15	3.6700	3.6700	-0.9171	6.90	0.92	-0.750			
0.2898	18545.90	3.6670	3.6669	-0.9206	6.91	0.93	-0.750			
0.2925	18723.02	3.6640	3.6640	-0.9241	6.92	0.94	-0.750			
0.2953	18900.55	3.6610	3.6611	-0.9323	6.93	0.95	-0.750			
0.2981	19080.41	3.6580	3.6580	-0.9452	6.94	0.96	-0.750			
0.3010	19261.56	3.6550	3.6550	-0.9653	6.94	0.96	-0.750			
0.3039	19447.39	3.6520	3.6519	-0.9689	6.95	0.97	-0.750			
0.3068	19637.51	3.6490	3.6489	-0.9737	6.95	0.97	-0.750			
0.3098	19826.80	3.6460	3.6461	-0.9828	6.96	0.98	-0.750			
0.3128	20018.16	3.6430	3.6429	-0.9877	6.96	0.98	-0.750			
0.3157	20207.40	3.6400	3.6399	-0.9794	6.97	0.99	-0.750			
0.3186	20389.60	3.6370	3.6371	-0.9826	6.98	1.00	-0.750			
0.3215	20576.25	3.6340	3.6341	-0.9961	6.98	1.00	-0.750			
0.3246	20771.48	3.6310	3.6308	-1.0137	6.99	1.01	-0.750			
0.3276	20967.49	3.6280	3.6279	-1.0267	7.00	1.02	-0.750			
0.3307	21165.98	3.6250	3.6251	-1.0263	7.01	1.03	-0.750			
0.3339	21367.68	3.6220	3.6220	-1.0391	7.01	1.03	-0.750			
0.3370	21566.70	3.6190	3.6190	-1.0517	7.02	1.04	-0.750			
0.3401	21768.43	3.6160	3.6159	-1.0520	7.03	1.05	-0.750			
0.3433	21968.76	3.6130	3.6129	-1.0567	7.04	1.06	-0.750			
0.3465	22175.47	3.6100	3.6100	-1.0600	7.04	1.06	-0.750			
0.3497	22379.51	3.6070	3.6071	-1.0709	7.05	1.07	-0.750			
0.3529	22586.60	3.6040	3.6040	-1.0735	7.06	1.08	-0.750			
0.3561	22790.99	3.6010	3.6010	-1.0715	7.06	1.08	-0.750			
0.3593	22995.58	3.5980	3.5979	-1.0763	7.07	1.09	-0.750			
0.3625	23202.56	3.5950	3.5950	-1.0984	7.07	1.09	-0.750			
0.3659	23414.82	3.5920	3.5920	-1.1152	7.08	1.10	-0.750			
0.3693	23632.66	3.5890	3.5889	-1.1328	7.08	1.10	-0.750			
0.3727	23854.18	3.5860	3.5859	-1.1332	7.09	1.11	-0.750			
0.3762	24075.49	3.5830	3.5831	-1.1395	7.09	1.11	-0.750	0.399	0.827	
0.3796	24292.91	3.5800	3.5799	-1.1447	7.10	1.12	-0.750			
0.3830	24510.33	3.5770	3.5770	-1.1467	7.10	1.12	-0.750			
0.3863	24725.99	3.5740	3.5740	-1.1489	7.11	1.13	-0.750			
0.3898	24946.84	3.5710	3.5710	-1.1586	7.12	1.14	-0.750			
0.3934	25174.64	3.5680	3.5681	-1.1769	7.13	1.15	-0.750			
0.3970	25405.67	3.5650	3.5650	-1.1764	7.14	1.16	-0.750			
0.4005	25633.57	3.5620	3.5619	-1.1818	7.14	1.16	-0.750			
0.4040	25856.28	3.5590	3.5591	-1.1909	7.15	1.17	-0.750			
0.4075	26081.87	3.5560	3.5560	-1.2041	7.15	1.17	-0.750			
0.4112	26315.33	3.5530	3.5531	-1.2257	7.16	1.18	-0.750			
0.4149	26556.65	3.5500	3.5499	-1.2368	7.17	1.19	-0.750			
0.4188	26800.83	3.5470	3.5469	-1.2395	7.18	1.20	-0.750			
0.4225	27040.73	3.5440	3.5443	-1.2416	7.19	1.21	-0.750			
0.4262	27279.13	3.5410	3.5409	-1.2435	7.19	1.21	-0.750			
0.4299	27513.00	3.5380	3.5379	-1.2351	7.20	1.22	-0.750			
0.4335	27745.76	3.5350	3.5349	-1.2338	7.21	1.23	-0.750			
0.4372	27983.58	3.5320	3.5322	-1.2543	7.21	1.23	-0.750			
0.4412	28234.75	3.5290	3.5289	-1.2742	7.22	1.24	-0.750			
0.4450	28480.76	3.5260	3.5259	-1.2679	7.23	1.25	-0.750			
0.4488	28722.29	3.5230	3.5232	-1.2682	7.24	1.26	-0.750			
0.4526	28968.15	3.5200	3.5201	-1.2681	7.25	1.27	-0.750			
0.4564	29210.91	3.5170	3.5169	-1.2690	7.25	1.27	-0.750			
0.4601	29448.90	3.5140	3.5139	-1.2730	7.26	1.28	-0.750			
0.4640	29694.27	3.5110	3.5111	-1.2783	7.27	1.29	-0.750			
0.4679	29942.71	3.5080	3.5079	-1.2798	7.28	1.30	-0.750			
0.4718	30192.92	3.5050	3.5050	-1.2817	7.29	1.31	-0.750			
0.4756	30437.29	3.5020	3.5021	-1.2701	7.30	1.32	-0.750			
0.4794	30680.98	3.4990	3.4990	-1.2713	7.31	1.33	-0.750			
0.4832	30922.45	3.4960	3.4959	-1.2610	7.32	1.34	-0.750			
0.4869	31158.94	3.4930	3.4932	-1.2531	7.33	1.35	-0.750			
0.4907	31402.04	3.4900	3.4899	-1.2612	7.34	1.36	-0.750			
0.4945	31648.08	3.4870	3.4871	-1.2575	7.34	1.36	-0.750			
0.4982	31887.88	3.4840	3.4839	-1.2544	7.35	1.37	-0.750			
0.5020	32129.31	3.4810	3.4811	-1.2473	7.36	1.38	-0.750			
0.5057	32367.71	3.4780	3.4779	-1.2395	7.37	1.39	-0.750			
0.5095	32605.12	3.4750	3.4749	-1.2290	7.38	1.40	-0.750			
0.5131	32840.17	3.4720	3.4719	-1.2191	7.39	1.41	-0.750			
0.5168	33072.91	3.4690	3.4690	-1.2160	7.40	1.42	-0.750			
0.5204	33306.99	3.4660	3.4659	-1.2080	7.41	1.43	-0.750			
0.5240	33534.95	3.4630	3.4631	-1.2033	7.42	1.44	-0.750			
0.5276	33769.25	3.4600	3.4600	-1.1910	7.43	1.45	-0.750			
0.5312	33995.99	3.4570	3.4570	-1.1862	7.44	1.46	-0.750			
0.5347	34223.55	3.4540	3.4540	-1.1808	7.46	1.48	-0.750			
0.5383	34449.58	3.4510	3.4509	-1.1790	7.46	1.48	-0.750			
0.5418	34675.20	3.4480	3.4479	-1.1657	7.47	1.49	-0.750			
0.5453	34901.43	3.4450	3.4450	-1.1565	7.48	1.50	-0.750			
0.5488	35120.72	3.4420	3.4423	-1.1446	7.49	1.51	-0.750			
0.5522	35341.61	3.4390	3.4390	-1.1420	7.50	1.52	-0.750			
0.5556	35556.08	3.4360	3.4359	-1.1226	7.51	1.53	-0.750			
0.5589	35770.33	3.4330	3.4329	-1.1192	7.52	1.54	-0.750			
0.5623	35984.32	3.4300	3.4301	-1.1164	7.53	1.55	-0.750			
0.5656	36199.84	3.4270	3.4270	-1.1045	7.54	1.56	-0.750			
0.5690	36414.32	3.4240	3.4240	-1.0938	7.55	1.57	-0.750			
0.5722	36621.84	3.4210	3.4210	-1.0689	7.57	1.59	-0.750			
0.5754	36825.66	3.4180	3.4179	-1.0532	7.58	1.60	-0.750			
0.5785	37024.90	3.4150	3.4150	-1.0445	7.59	1.61	-0.750			
0.5816	37222.55	3.4120	3.4120	-1.0249	7.60	1.62	-0.750			
0.5847	37417.88	3.4090	3.4089	-1.0170	7.60	1.62	-0.750			
0.5877	37614.30	3.4060	3.4060	-1.0060	7.62	1.64	-0.750			
0.5908	37808.32	3.4030	3.4030	-0.9899	7.63	1.65	-0.750			
0.5937	37997.67	3.4000	3.4000	-0.9716	7.64	1.66	-0.750			
0.5966	38181.35	3.3970	3.3970	-0.9527	7.65	1.67	-0.750			
0.5994	38361.74	3.3940	3.3940	-0.9328	7.66	1.68	-0.750			
0.6022	38538.69	3.3910	3.3911	-0.9248	7.68	1.70	-0.750			
0.6049	38713.49	3.3880	3.3880	-0.9067	7.69	1.71	-0.750			
0.6076	38888.22	3.3850	3.3850	-0.8968	7.70	1.72	-0.750			
0.6103	39061.04	3.3820	3.3820	-0.8818	7.72	1.74	-0.750			
0.6129	39227.44	3.3790	3.3790	-0.8637	7.73	1.75	-0.750			
0.6155	39391.93	3.3760	3.3760	-0.8495	7.74	1.76	-0.750			
0.6180	39554.12	3.3730	3.3730	-0.8340	7.75	1.77	-0.750			
0.6205	39711.41	3.3700	3.3699	-0.8112	7.76	1.78	-0.750			
0.6229	39868.80	3.3670	3.3670	-0.7988	7.78	1.80	-0.750			
0.6253	40019.00	3.3640	3.3639	-0.7794	7.79	1.81	-0.750			
0.6276	40167.78	3.3610	3.3610	-0.7615	7.80	1.82	-0.750			
0.6298	40309.52	3.3580	3.3580	-0.7513	7.81	1.83	-0.750			
0.6321	40451.62	3.3550	3.3549	-0.7347	7.82	1.84	-0.750			
0.6343	40593.97	3.3520	3.3520	-0.7250	7.83	1.85	-0.750			
0.6365	40733.48	3.3490	3.3493	-0.7045	7.84	1.86	-0.750			
0.6386	40868.70	3.3460	3.3459	-0.6851	7.86	1.88	-0.750			
0.6406	40996.43	3.3430	3.3431	-0.6674	7.87	1.89	-0.750			
0.6425	41120.52	3.3400	3.3399	-0.6495	7.88	1.90	-0.750			
0.6444	41241.74	3.3370	3.3369	-0.6384	7.89	1.91	-0.750			
0.6463	41364.16	3.3340	3.3340	-0.6282	7.90	1.92	-0.750			
0.6482	41484.02	3.3310	3.3311	-0.6195	7.92	1.94	-0.750			
0.6501	41603.45	3.3280	3.3279	-0.6100	7.93	1.95	-0.750			
0.6519	41719.79	3.3250	3.3250	-0.5970	7.94	1.96	-0.750			
0.6536	41831.08	3.3220	3.3220	-0.5891	7.95	1.97	-0.750			
0.6554	41942.77	3.3190	3.3190	-0.5823	7.96	1.98	-0.750			
0.6571	42054.09	3.3160	3.3159	-0.5748	7.97	1.99	-0.750			
0.6588	42166.20	3.3130	3.3130	-0.5655	7.98	2.00	-0.750			
0.6605	42274.92	3.3100	3.3100	-0.5507	7.99	2.01	-0.750			
0.6622	42379.36	3.3070	3.3070	-0.5366	8.00	2.02	-0.750			
0.6637	42479.98	3.3040	3.3040	-0.5233	8.01	2.03	-0.750			
0.6653	42576.95	3.3010	3.3008	-0.5088	8.02	2.04	-0.750			
0.6668	42672.35	3.2980	3.2981	-0.4981	8.03	2.05	-0.750			
0.6683	42768.07	3.2950	3.2950	-0.4939	8.05	2.07	-0.750			
0.6697	42863.60	3.2920	3.2920	-0.4912	8.06	2.08	-0.750			
0.6712	42957.33	3.2890	3.2888	-0.4835	8.07	2.09	-0.750			
0.6726	43048.81	3.2860	3.2860	-0.4747	8.08	2.10	-0.750			
0.6741	43139.61	3.2830	3.2831	-0.4685	8.09	2.11	-0.750			
0.6755	43229.52	3.2800	3.2800	-0.4614	8.10	2.12	-0.750			
0.6768	43317.18	3.2770	3.2770	-0.4551	8.11	2.13	-0.750			
0.6782	43402.15	3.2740	3.2740	-0.4446	8.13	2.15	-0.750			
0.6795	43488.47	3.2710	3.2710	-0.4404	8.14	2.16	-0.750			
0.6808	43572.23	3.2680	3.2680	-0.4315	8.15	2.17	-0.750			
0.6821	43654.24	3.2650	3.2650	-0.4225	8.16	2.18	-0.750			
0.6833	43734.24	3.2620	3.2620	-0.4149	8.17	2.19	-0.750			
0.6846	43813.11	3.2590	3.2590	-0.4060	8.18	2.20	-0.750			
0.6858	43889.52	3.2560	3.2558	-0.3995	8.19	2.21	-0.750			
0.6870	43965.32	3.2530	3.2530	-0.3952	8.20	2.22	-0.750			
0.6881	44040.93	3.2500	3.2500	-0.3867	8.21	2.23	-0.750			
0.6893	44115.49	3.2470	3.2469	-0.3783	8.22	2.24	-0.750			
0.6904	44186.66	3.2440	3.2441	-0.3752	8.23	2.25	-0.750			
0.6915	44257.81	3.2410	3.2409	-0.3692	8.24	2.26	-0.750			
0.6926	44328.04	3.2380	3.2378	-0.3646	8.26	2.28	-0.750			
0.6937	44397.45	3.2350	3.2351	-0.3580	8.27	2.29	-0.750			
0.6948	44465.49	3.2320	3.2321	-0.3541	8.28	2.30	-0.750			
0.6958	44534.17	3.2290	3.2290	-0.3493	8.29	2.31	-0.750			
0.6969	44600.35	3.2260	3.2261	-0.3476	8.30	2.32	-0.750			
0.6979	44665.23	3.2230	3.2229	-0.3426	8.31	2.33	-0.750			
0.6989	44731.39	3.2200	3.2201	-0.3381	8.31	2.33	-0.750			
0.6999	44795.85	3.2170	3.2170	-0.3349	8.32	2.34	-0.750			
0.7009	44859.83	3.2140	3.2142	-0.3314	8.33	2.35	-0.750			
0.7019	44923.04	3.2110	3.2108	-0.3281	8.35	2.37	-0.750			
0.7029	44986.24	3.2080	3.2080	-0.3236	8.36	2.38	-0.750			
0.7039	45047.42	3.2050	3.2049	-0.3177	8.37	2.39	-0.750			
0.7048	45108.63	3.2020	3.2021	-0.3140	8.38	2.40	-0.750			
0.7058	45168.63	3.1990	3.1990	-0.3103	8.39	2.41	-0.750			
0.7067	45226.73	3.1960	3.1960	-0.3052	8.40	2.42	-0.750			
0.7076	45284.86	3.1930	3.1930	-0.3023	8.41	2.43	-0.750			
0.7085	45342.24	3.1900	3.1900	-0.2975	8.42	2.44	-0.750			
0.7094	45399.65	3.1870	3.1871	-0.2945	8.43	2.45	-0.750			
0.7102	45455.86	3.1840	3.1839	-0.2914	8.43	2.45	-0.750			
0.7111	45511.55	3.1810	3.1811	-0.2869	8.44	2.46	-0.750			
0.7120	45565.98	3.1780	3.1779	-0.2833	8.45	2.47	-0.750			
0.7128	45619.51	3.1750	3.1749	-0.2808	8.46	2.48	-0.750			
0.7136	45672.89	3.1720	3.1721	-0.2796	8.47	2.49	-0.750			
0.7145	45726.44	3.1690	3.1688	-0.2780	8.48	2.50	-0.750			
0.7153	45780.31	3.1660	3.1660	-0.2763	8.49	2.51	-0.750			
0.7161	45833.10	3.1630	3.1631	-0.2746	8.50	2.52	-0.750			
0.7170	45885.70	3.1600	3.1601	-0.2708	8.51	2.53	-0.750			
0.7178	45938.27	3.1570	3.1569	-0.2680	8.52	2.54	-0.750			
0.7186	45989.11	3.1540	3.1540	-0.2634	8.53	2.55	-0.750			
0.7194	46038.57	3.1510	3.1511	-0.2621	8.54	2.56	-0.750			
0.7201	46088.42	3.1480	3.1480	-0.2610	8.55	2.57	-0.750			
0.7209	46138.20	3.1450	3.1449	-0.2602	8.56	2.58	-0.750			
0.7217	46187.63	3.1420	3.1420	-0.2575	8.57	2.59	-0.750			
0.7225	46237.80	3.1390	3.1391	-0.2558	8.58	2.60	-0.750			
0.7232	46287.56	3.1360	3.1361	-0.2540	8.59	2.61	-0.750			
0.7240	46336.49	3.1330	3.1330	-0.2502	8.60	2.62	-0.750			
0.7247	46383.42	3.1300	3.1300	-0.2457	8.61	2.63	-0.750			
0.7255	46429.26	3.1270	3.1270	-0.2420	8.62	2.64	-0.750			
0.7262	46475.14	3.1240	3.1241	-0.2397	8.63	2.65	-0.750			
0.7269	46521.27	3.1210	3.1209	-0.2379	8.64	2.66	-0.750			
0.7276	46566.61	3.1180	3.1180	-0.2373	8.65	2.67	-0.750			
0.7283	46612.10	3.1150	3.1150	-0.2363	8.66	2.68	-0.750			
0.7290	46657.25	3.1120	3.1121	-0.2353	8.67	2.69	-0.750			
0.7297	46702.96	3.1090	3.1089	-0.2341	8.68	2.70	-0.750			
0.7304	46747.61	3.1060	3.1061	-0.2317	8.69	2.71	-0.750			
0.7311	46791.98	3.1030	3.1030	-0.2298	8.70	2.72	-0.750			
0.7318	46835.79	3.1000	3.1000	-0.2283	8.70	2.72	-0.750			
0.7325	46879.85	3.0970	3.0969	-0.2264	8.71	2.73	-0.750			
0.7332	46922.90	3.0940	3.0940	-0.2228	8.72	2.74	-0.750			
0.7338	46965.66	3.0910	3.0910	-0.2207	8.73	2.75	-0.750			
0.7345	47007.52	3.0880	3.0881	-0.2196	8.74	2.76	-0.750			
0.7351	47049.43	3.0850	3.0850	-0.2186	8.75	2.77	-0.750			
0.7358	47091.05	3.0820	3.0818	-0.2169	8.75	2.77	-0.750			
0.7364	47132.71	3.0790	3.0790	-0.2156	8.76	2.78	-0.750			
0.7371	47173.77	3.0760	3.0761	-0.2143	8.77	2.79	-0.750			
0.7377	47215.01	3.0730	3.0731	-0.2142	8.79	2.81	-0.750			
0.7384	47256.43	3.0700	3.0701	-0.2133	8.80	2.82	-0.750			
0.7390	47296.84	3.0670	3.0669	-0.2109	8.81	2.83	-0.750			
0.7396	47337.24	3.0640	3.0640	-0.2099	8.82	2.84	-0.750			
0.7403	47377.23	3.0610	3.0611	-0.2097	8.83	2.85	-0.750			
0.7409	47417.74	3.0580	3.0580	-0.2087	8.84	2.86	-0.750			
0.7415	47457.82	3.0550	3.0549	-0.2078	8.85	2.87	-0.750			
0.7422	47497.63	3.0520	3.0520	-0.2062	8.86	2.88	-0.750			
0.7428	47537.07	3.0490	3.0491	-0.2043	8.87	2.89	-0.750			
0.7434	47576.36	3.0460	3.0460	-0.2034	8.88	2.90	-0.750			
0.7440	47615.20	3.0430	3.0430	-0.2012	8.89	2.91	-0.750			
0.7446	47653.54	3.0400	3.0400	-0.1993	8.90	2.92	-0.750			
0.7452	47691.06	3.0370	3.0370	-0.1983	8.91	2.93	-0.750			
0.7458	47729.03	3.0340	3.0340	-0.1980	8.92	2.94	-0.750			
0.7464	47767.04	3.0310	3.0310	-0.1979	8.92	2.94	-0.750			
0.7470	47804.99	3.0280	3.0279	-0.1970	8.93	2.95	-0.750			
0.7475	47843.11	3.0250	3.0250	-0.1960	8.94	2.96	-0.750			
0.7481	47880.71	3.0220	3.0220	-0.1953	8.95	2.97	-0.750			
0.7487	47918.07	3.0190	3.0191	-0.1939	8.96	2.98	-0.750			
0.7493	47955.38	3.0160	3.0160	-0.1927	8.97	2.99	-0.750			
0.7499	47991.89	3.0130	3.0129	-0.1909	8.98	3.00	-0.750			
0.7504	48028.27	3.0100	3.0101	-0.1897	8.99	3.01	-0.750			
0.7510	48064.65	3.0070	3.0070	-0.1892	8.99	3.01	-0.750			
0.7516	48100.93	3.0040	3.0040	-0.1885	9.00	3.02	-0.750			
0.7521	48136.91	3.0010	3.0010	-0.1853	9.01	3.03	-0.750			
