Ah_balance (normalized)	Ah_balance (mAh)	Voltage - fit (V)	Voltage -  interpolate (V)	dQ/dV (1/V)	Temperature (°C)	Temperature - diff (°C)	Current (C)	R_DC 0ms (mOhm)	R_DC 50ms (mOhm)	R_DC 50 ms PEC (mOhm)
0.0000	0.00	4.0970	4.1278	0.0000	5.99	-0.01	-0.750			
0.0002	13.22	4.0940	4.0933	-0.0420	5.99	-0.01	-0.750			
0.0004	24.12	4.0910	4.0907	-0.0723	5.99	-0.01	-0.750			
0.0007	42.36	4.0880	4.0876	-0.1004	5.99	-0.01	-0.750			
0.0010	64.32	4.0850	4.0850	-0.1284	5.99	-0.01	-0.750			
0.0014	92.12	4.0820	4.0819	-0.1503	5.99	-0.01	-0.750			
0.0019	123.36	4.0790	4.0793	-0.1755	5.99	-0.01	-0.750			
0.0025	160.27	4.0760	4.0762	-0.2026	5.99	-0.01	-0.750			
0.0032	201.64	4.0730	4.0731	-0.2260	5.99	-0.01	-0.750			
0.0039	247.28	4.0700	4.0699	-0.2480	5.99	-0.01	-0.750			
0.0046	296.69	4.0670	4.0672	-0.2690	5.99	-0.01	-0.750			
0.0055	350.97	4.0640	4.0641	-0.2928	5.99	-0.01	-0.750			
0.0064	409.50	4.0610	4.0610	-0.3177	6.00	-0.00	-0.750			
0.0074	472.81	4.0580	4.0577	-0.3367	6.00	-0.00	-0.750			
0.0084	539.12	4.0550	4.0551	-0.3597	6.00	-0.00	-0.750			
0.0095	610.72	4.0520	4.0521	-0.3809	6.00	-0.00	-0.750			
0.0107	687.00	4.0490	4.0490	-0.4051	6.00	-0.00	-0.750			
0.0120	767.06	4.0460	4.0459	-0.4244	6.00	-0.00	-0.750			
0.0133	849.21	4.0430	4.0429	-0.4445	6.00	0.00	-0.750			
0.0146	936.47	4.0400	4.0401	-0.4646	6.00	0.00	-0.750			
0.0161	1028.83	4.0370	4.0370	-0.4841	6.00	0.00	-0.750			
0.0175	1122.55	4.0340	4.0340	-0.5013	6.00	0.00	-0.750			
0.0191	1221.26	4.0310	4.0311	-0.5229	6.01	0.01	-0.750			
0.0207	1323.51	4.0280	4.0280	-0.5389	6.01	0.01	-0.750			
0.0223	1429.93	4.0250	4.0249	-0.5546	6.01	0.01	-0.750			
0.0240	1537.64	4.0220	4.0221	-0.5700	6.01	0.01	-0.750			
0.0258	1648.73	4.0190	4.0191	-0.5870	6.01	0.01	-0.750			
0.0275	1762.16	4.0160	4.0159	-0.6062	6.02	0.02	-0.750			
0.0294	1880.00	4.0130	4.0130	-0.6195	6.02	0.02	-0.750			
0.0313	2002.06	4.0100	4.0099	-0.6292	6.03	0.03	-0.750			
0.0332	2124.42	4.0070	4.0071	-0.6417	6.04	0.04	-0.750			
0.0352	2249.89	4.0040	4.0041	-0.6570	6.04	0.04	-0.750			
0.0371	2376.45	4.0010	4.0010	-0.6642	6.05	0.05	-0.750			
0.0392	2505.62	3.9980	3.9978	-0.6669	6.06	0.06	-0.750			
0.0412	2634.03	3.9950	3.9951	-0.6712	6.07	0.07	-0.750			
0.0432	2765.79	3.9920	3.9921	-0.6769	6.07	0.07	-0.750			
0.0452	2895.47	3.9890	3.9890	-0.6802	6.08	0.08	-0.750			
0.0473	3024.62	3.9860	3.9859	-0.6815	6.09	0.09	-0.750			
0.0493	3154.50	3.9830	3.9829	-0.6898	6.10	0.10	-0.750			
0.0514	3287.31	3.9800	3.9799	-0.7000	6.11	0.11	-0.750			
0.0535	3423.76	3.9770	3.9769	-0.7080	6.11	0.11	-0.750			
0.0557	3561.84	3.9740	3.9740	-0.7138	6.12	0.12	-0.750			
0.0578	3700.33	3.9710	3.9710	-0.7165	6.13	0.13	-0.750			
0.0600	3839.35	3.9680	3.9680	-0.7178	6.13	0.13	-0.750			
0.0622	3978.53	3.9650	3.9651	-0.7124	6.14	0.14	-0.750			
0.0643	4113.24	3.9620	3.9619	-0.7126	6.15	0.15	-0.750			
0.0664	4249.61	3.9590	3.9591	-0.7152	6.16	0.16	-0.750			
0.0686	4388.14	3.9560	3.9559	-0.7229	6.17	0.17	-0.750			
0.0707	4527.13	3.9530	3.9531	-0.7251	6.17	0.17	-0.750			
0.0729	4667.79	3.9500	3.9499	-0.7319	6.18	0.18	-0.750			
0.0751	4809.09	3.9470	3.9472	-0.7347	6.19	0.19	-0.750			
0.0774	4951.85	3.9440	3.9439	-0.7417	6.20	0.20	-0.750			
0.0796	5091.95	3.9410	3.9410	-0.7437	6.21	0.21	-0.750			
0.0818	5234.58	3.9380	3.9381	-0.7381	6.22	0.22	-0.750			
0.0841	5379.99	3.9350	3.9350	-0.7550	6.23	0.23	-0.750			
0.0863	5522.70	3.9320	3.9319	-0.7601	6.24	0.24	-0.750			
0.0886	5669.49	3.9290	3.9289	-0.7617	6.25	0.25	-0.750			
0.0909	5816.87	3.9260	3.9259	-0.7632	6.26	0.26	-0.750			
0.0932	5964.40	3.9230	3.9231	-0.7626	6.27	0.27	-0.750			
0.0955	6111.24	3.9200	3.9201	-0.7601	6.28	0.28	-0.750			
0.0978	6258.30	3.9170	3.9169	-0.7626	6.29	0.29	-0.750			
0.1000	6401.68	3.9140	3.9142	-0.7565	6.30	0.30	-0.750			
0.1023	6547.71	3.9110	3.9109	-0.7565	6.31	0.31	-0.750			
0.1046	6695.69	3.9080	3.9080	-0.7574	6.32	0.32	-0.750			
0.1069	6839.52	3.9050	3.9051	-0.7575	6.33	0.33	-0.750			
0.1091	6984.23	3.9020	3.9020	-0.7606	6.34	0.34	-0.750			
0.1114	7128.74	3.8990	3.8991	-0.7684	6.36	0.36	-0.750			
0.1137	7274.31	3.8960	3.8958	-0.7727	6.37	0.37	-0.750			
0.1160	7423.97	3.8930	3.8931	-0.7854	6.37	0.37	-0.750			
0.1184	7580.47	3.8900	3.8899	-0.7887	6.38	0.38	-0.750			
0.1208	7733.46	3.8870	3.8870	-0.7854	6.39	0.39	-0.750			
0.1232	7885.63	3.8840	3.8840	-0.7828	6.40	0.40	-0.750			
0.1255	8034.95	3.8810	3.8811	-0.7694	6.41	0.41	-0.750			
0.1278	8178.78	3.8780	3.8779	-0.7710	6.42	0.42	-0.750			
0.1301	8323.63	3.8750	3.8750	-0.7693	6.44	0.44	-0.750			
0.1323	8469.97	3.8720	3.8720	-0.7688	6.45	0.45	-0.750			
0.1347	8619.53	3.8690	3.8690	-0.7825	6.46	0.46	-0.750			
0.1371	8772.02	3.8660	3.8661	-0.7861	6.47	0.47	-0.750			
0.1394	8923.67	3.8630	3.8630	-0.7864	6.48	0.48	-0.750			
0.1418	9076.01	3.8600	3.8601	-0.7942	6.49	0.49	-0.750			
0.1442	9226.72	3.8570	3.8570	-0.7885	6.50	0.50	-0.750			
0.1465	9378.98	3.8540	3.8538	-0.7892	6.51	0.51	-0.750			
0.1489	9531.41	3.8510	3.8511	-0.7925	6.53	0.53	-0.750			
0.1513	9682.48	3.8480	3.8480	-0.7888	6.54	0.54	-0.750			
0.1537	9836.05	3.8450	3.8450	-0.7924	6.55	0.55	-0.750			
0.1561	9987.23	3.8420	3.8419	-0.7919	6.56	0.56	-0.750			
0.1584	10137.78	3.8390	3.8390	-0.7869	6.56	0.56	-0.750			
0.1608	10290.28	3.8360	3.8360	-0.7897	6.57	0.57	-0.750			
0.1631	10441.04	3.8330	3.8332	-0.7899	6.58	0.58	-0.750			
0.1655	10590.74	3.8300	3.8300	-0.7938	6.59	0.59	-0.750			
0.1679	10745.39	3.8270	3.8269	-0.7949	6.60	0.60	-0.750			
0.1703	10898.08	3.8240	3.8240	-0.7950	6.61	0.61	-0.750			
0.1726	11049.45	3.8210	3.8210	-0.8028	6.62	0.62	-0.750			
0.1751	11206.03	3.8180	3.8181	-0.8107	6.63	0.63	-0.750			
0.1775	11362.48	3.8150	3.8149	-0.8095	6.65	0.65	-0.750			
0.1800	11517.22	3.8120	3.8120	-0.8191	6.66	0.66	-0.750			
0.1825	11677.64	3.8090	3.8091	-0.8150	6.67	0.67	-0.750			
0.1850	11837.90	3.8060	3.8058	-0.8145	6.69	0.69	-0.750			
0.1874	11991.18	3.8030	3.8035	-0.8055	6.70	0.70	-0.750			
0.1897	12142.36	3.8000	3.8000	-0.7973	6.71	0.71	-0.750			
0.1921	12295.36	3.7970	3.7969	-0.8021	6.72	0.72	-0.750			
0.1945	12446.92	3.7940	3.7938	-0.8047	6.73	0.73	-0.750			
0.1969	12602.82	3.7910	3.7911	-0.8142	6.74	0.74	-0.750			
0.1994	12760.92	3.7880	3.7882	-0.8230	6.75	0.75	-0.750			
0.2019	12921.47	3.7850	3.7849	-0.8236	6.76	0.76	-0.750			
0.2044	13079.34	3.7820	3.7820	-0.8263	6.77	0.77	-0.750			
0.2068	13235.75	3.7790	3.7790	-0.8273	6.78	0.78	-0.750			
0.2093	13394.79	3.7760	3.7758	-0.8294	6.79	0.79	-0.750			
0.2118	13555.66	3.7730	3.7731	-0.8295	6.80	0.80	-0.750			
0.2143	13716.41	3.7700	3.7699	-0.8242	6.81	0.81	-0.750			
0.2168	13875.13	3.7670	3.7670	-0.8268	6.82	0.82	-0.750			
0.2193	14034.34	3.7640	3.7640	-0.8252	6.83	0.83	-0.750			
0.2217	14188.81	3.7610	3.7610	-0.8219	6.85	0.85	-0.750			
0.2242	14346.17	3.7580	3.7580	-0.8272	6.86	0.86	-0.750			
0.2267	14506.94	3.7550	3.7549	-0.8285	6.87	0.87	-0.750			
0.2292	14668.37	3.7520	3.7520	-0.8355	6.88	0.88	-0.750			
0.2317	14829.64	3.7490	3.7490	-0.8345	6.89	0.89	-0.750			
0.2342	14988.26	3.7460	3.7460	-0.8334	6.90	0.90	-0.750			
0.2367	15148.03	3.7430	3.7431	-0.8426	6.91	0.91	-0.750			
0.2392	15309.76	3.7400	3.7398	-0.8483	6.92	0.92	-0.750			
0.2418	15472.16	3.7370	3.7369	-0.8521	6.93	0.93	-0.750			
0.2443	15638.14	3.7340	3.7341	-0.8610	6.94	0.94	-0.750			
0.2470	15804.81	3.7310	3.7311	-0.8562	6.95	0.95	-0.750			
0.2496	15972.70	3.7280	3.7280	-0.8618	6.96	0.96	-0.750			
0.2521	16136.52	3.7250	3.7250	-0.8602	6.97	0.97	-0.750			
0.2547	16298.69	3.7220	3.7219	-0.8533	6.98	0.98	-0.750			
0.2572	16461.57	3.7190	3.7190	-0.8648	6.99	0.99	-0.750			
0.2598	16626.90	3.7160	3.7160	-0.8767	7.00	1.00	-0.750			
0.2625	16797.22	3.7130	3.7132	-0.8842	7.01	1.01	-0.750			
0.2652	16970.12	3.7100	3.7099	-0.8910	7.02	1.02	-0.750			
0.2679	17142.90	3.7070	3.7071	-0.8919	7.03	1.03	-0.750			
0.2706	17315.77	3.7040	3.7041	-0.8929	7.04	1.04	-0.750			
0.2732	17486.06	3.7010	3.7010	-0.8982	7.05	1.05	-0.750			
0.2759	17655.51	3.6980	3.6980	-0.8997	7.06	1.06	-0.750			
0.2785	17826.40	3.6950	3.6949	-0.9089	7.07	1.07	-0.750			
0.2813	18003.61	3.6920	3.6919	-0.9216	7.08	1.08	-0.750			
0.2841	18185.27	3.6890	3.6890	-0.9256	7.09	1.09	-0.750			
0.2869	18363.20	3.6860	3.6863	-0.9305	7.10	1.10	-0.750			
0.2897	18542.12	3.6830	3.6829	-0.9371	7.11	1.11	-0.750			
0.2925	18721.80	3.6800	3.6800	-0.9358	7.12	1.12	-0.750			
0.2953	18897.32	3.6770	3.6770	-0.9405	7.13	1.13	-0.750			
0.2982	19082.63	3.6740	3.6739	-0.9547	7.14	1.14	-0.750			
0.3010	19265.92	3.6710	3.6710	-0.9587	7.15	1.15	-0.750			
0.3039	19451.38	3.6680	3.6679	-0.9686	7.16	1.16	-0.750			
0.3069	19639.06	3.6650	3.6651	-0.9651	7.17	1.17	-0.750			
0.3097	19823.21	3.6620	3.6619	-0.9680	7.18	1.18	-0.750			
0.3126	20008.61	3.6590	3.6592	-0.9879	7.19	1.19	-0.750			
0.3156	20196.71	3.6560	3.6559	-0.9895	7.20	1.20	-0.750			
0.3186	20389.57	3.6530	3.6529	-1.0000	7.21	1.21	-0.750			
0.3216	20583.71	3.6500	3.6500	-1.0051	7.21	1.21	-0.750			
0.3247	20780.04	3.6470	3.6474	-1.0110	7.22	1.22	-0.750			
0.3277	20973.66	3.6440	3.6439	-1.0199	7.23	1.23	-0.750			
0.3307	21166.23	3.6410	3.6411	-1.0198	7.24	1.24	-0.750			
0.3338	21360.60	3.6380	3.6378	-1.0313	7.25	1.25	-0.750			
0.3369	21560.59	3.6350	3.6350	-1.0466	7.26	1.26	-0.750			
0.3401	21763.68	3.6320	3.6321	-1.0548	7.27	1.27	-0.750			
0.3433	21969.15	3.6290	3.6289	-1.0701	7.27	1.27	-0.750			
0.3465	22176.57	3.6260	3.6261	-1.0738	7.28	1.28	-0.750			
0.3497	22379.54	3.6230	3.6230	-1.0811	7.29	1.29	-0.750			
0.3530	22590.33	3.6200	3.6200	-1.0935	7.30	1.30	-0.750			
0.3563	22803.09	3.6170	3.6169	-1.0938	7.31	1.31	-0.750			
0.3596	23014.44	3.6140	3.6139	-1.0978	7.31	1.31	-0.750			
0.3629	23224.05	3.6110	3.6112	-1.1005	7.32	1.32	-0.750			
0.3662	23433.96	3.6080	3.6080	-1.1042	7.33	1.33	-0.750			
0.3695	23646.17	3.6050	3.6049	-1.1116	7.34	1.34	-0.750			
0.3728	23856.00	3.6020	3.6019	-1.1165	7.35	1.35	-0.750			
0.3762	24074.72	3.5990	3.5991	-1.1505	7.36	1.36	-0.750			
0.3796	24295.85	3.5960	3.5959	-1.1662	7.37	1.37	-0.750			
0.3832	24523.97	3.5930	3.5929	-1.1783	7.38	1.38	-0.750			
0.3867	24750.41	3.5900	3.5903	-1.1915	7.40	1.40	-0.750	0.394	0.872	
0.3904	24984.57	3.5870	3.5870	-1.1952	7.41	1.41	-0.750			
0.3940	25217.10	3.5840	3.5841	-1.1990	7.42	1.42	-0.750			
0.3975	25441.71	3.5810	3.5810	-1.2107	7.43	1.43	-0.750			
0.4011	25671.88	3.5780	3.5779	-1.2184	7.45	1.45	-0.750			
0.4048	25907.61	3.5750	3.5749	-1.2331	7.46	1.46	-0.750			
0.4085	26146.78	3.5720	3.5718	-1.2504	7.48	1.48	-0.750			
0.4123	26388.51	3.5690	3.5695	-1.2676	7.49	1.49	-0.750			
0.4162	26639.32	3.5660	3.5660	-1.2813	7.50	1.50	-0.750			
0.4201	26884.41	3.5630	3.5629	-1.2849	7.51	1.51	-0.750			
0.4239	27129.61	3.5600	3.5599	-1.2869	7.53	1.53	-0.750			
0.4278	27376.29	3.5570	3.5570	-1.2971	7.54	1.54	-0.750			
0.4317	27626.40	3.5540	3.5538	-1.3028	7.55	1.55	-0.750			
0.4355	27872.80	3.5510	3.5511	-1.3304	7.56	1.56	-0.750			
0.4396	28133.49	3.5480	3.5481	-1.3340	7.58	1.58	-0.750			
0.4437	28396.46	3.5450	3.5448	-1.3443	7.59	1.59	-0.750			
0.4477	28654.13	3.5420	3.5420	-1.3480	7.60	1.60	-0.750			
0.4518	28913.29	3.5390	3.5390	-1.3470	7.62	1.62	-0.750			
0.4558	29168.95	3.5360	3.5359	-1.3589	7.63	1.63	-0.750			
0.4598	29427.78	3.5330	3.5330	-1.3677	7.64	1.64	-0.750			
0.4639	29689.73	3.5300	3.5299	-1.3648	7.66	1.66	-0.750			
0.4681	29960.57	3.5270	3.5269	-1.3809	7.67	1.67	-0.750			
0.4723	30228.00	3.5240	3.5241	-1.3854	7.68	1.68	-0.750			
0.4764	30492.09	3.5210	3.5210	-1.3842	7.69	1.69	-0.750			
0.4806	30757.65	3.5180	3.5179	-1.3862	7.70	1.70	-0.750			
0.4847	31019.11	3.5150	3.5149	-1.3671	7.71	1.71	-0.750			
0.4888	31285.70	3.5120	3.5118	-1.3673	7.72	1.72	-0.750			
0.4929	31546.11	3.5090	3.5093	-1.3748	7.73	1.73	-0.750			
0.4970	31808.99	3.5060	3.5060	-1.3792	7.74	1.74	-0.750			
0.5012	32075.57	3.5030	3.5029	-1.3626	7.75	1.75	-0.750			
0.5053	32339.91	3.5000	3.4998	-1.3602	7.77	1.77	-0.750			
0.5093	32597.39	3.4970	3.4971	-1.3618	7.78	1.78	-0.750			
0.5135	32860.82	3.4940	3.4941	-1.3647	7.79	1.79	-0.750			
0.5176	33124.33	3.4910	3.4908	-1.3548	7.80	1.80	-0.750			
0.5215	33376.78	3.4880	3.4880	-1.3304	7.80	1.80	-0.750			
0.5256	33635.67	3.4850	3.4851	-1.3337	7.81	1.81	-0.750			
0.5296	33895.74	3.4820	3.4820	-1.3397	7.83	1.83	-0.750			
0.5336	34150.70	3.4790	3.4789	-1.3268	7.84	1.84	-0.750			
0.5376	34403.26	3.4760	3.4762	-1.3180	7.85	1.85	-0.750			
0.5415	34657.72	3.4730	3.4730	-1.3090	7.86	1.86	-0.750			
0.5454	34908.20	3.4700	3.4700	-1.3078	7.87	1.87	-0.750			
0.5493	35158.37	3.4670	3.4672	-1.3036	7.88	1.88	-0.750			
0.5533	35409.44	3.4640	3.4638	-1.3002	7.89	1.89	-0.750			
0.5572	35659.30	3.4610	3.4608	-1.2799	7.90	1.90	-0.750			
0.5610	35905.82	3.4580	3.4582	-1.2640	7.91	1.91	-0.750			
0.5648	36146.71	3.4550	3.4549	-1.2565	7.92	1.92	-0.750			
0.5686	36390.62	3.4520	3.4520	-1.2427	7.93	1.93	-0.750			
0.5722	36623.83	3.4490	3.4488	-1.2249	7.93	1.93	-0.750			
0.5758	36853.92	3.4460	3.4462	-1.2155	7.94	1.94	-0.750			
0.5795	37088.26	3.4430	3.4430	-1.2153	7.96	1.96	-0.750			
0.5832	37323.06	3.4400	3.4399	-1.2078	7.97	1.97	-0.750			
0.5868	37552.42	3.4370	3.4371	-1.1932	7.98	1.98	-0.750			
0.5904	37786.38	3.4340	3.4340	-1.1905	7.99	1.99	-0.750			
0.5940	38016.62	3.4310	3.4310	-1.1800	8.01	2.01	-0.750			
0.5975	38240.22	3.4280	3.4279	-1.1586	8.02	2.02	-0.750			
0.6009	38459.11	3.4250	3.4251	-1.1434	8.03	2.03	-0.750			
0.6044	38678.86	3.4220	3.4219	-1.1293	8.05	2.05	-0.750			
0.6077	38894.78	3.4190	3.4189	-1.1115	8.06	2.06	-0.750			
0.6110	39106.23	3.4160	3.4160	-1.0866	8.08	2.08	-0.750			
0.6143	39315.77	3.4130	3.4129	-1.0746	8.09	2.09	-0.750			
0.6175	39517.53	3.4100	3.4100	-1.0538	8.10	2.10	-0.750			
0.6206	39717.23	3.4070	3.4071	-1.0365	8.11	2.11	-0.750			
0.6236	39911.26	3.4040	3.4040	-1.0188	8.13	2.13	-0.750			
0.6267	40109.26	3.4010	3.4009	-1.0109	8.14	2.14	-0.750			
0.6298	40304.14	3.3980	3.3980	-0.9886	8.15	2.15	-0.750			
0.6327	40494.53	3.3950	3.3950	-0.9682	8.17	2.17	-0.750			
0.6356	40675.84	3.3920	3.3921	-0.9404	8.18	2.18	-0.750			
0.6383	40853.55	3.3890	3.3889	-0.9181	8.20	2.20	-0.750			
0.6410	41025.12	3.3860	3.3861	-0.8976	8.21	2.21	-0.750			
0.6437	41195.64	3.3830	3.3829	-0.8745	8.22	2.22	-0.750			
0.6463	41363.16	3.3800	3.3800	-0.8547	8.23	2.23	-0.750			
0.6488	41525.78	3.3770	3.3770	-0.8355	8.25	2.25	-0.750			
0.6513	41683.87	3.3740	3.3741	-0.8114	8.26	2.26	-0.750			
0.6537	41835.07	3.3710	3.3709	-0.7938	8.27	2.27	-0.750			
0.6560	41983.44	3.3680	3.3679	-0.7718	8.28	2.28	-0.750			
0.6583	42130.07	3.3650	3.3651	-0.7582	8.30	2.30	-0.750			
0.6606	42276.14	3.3620	3.3620	-0.7521	8.31	2.31	-0.750			
0.6628	42419.24	3.3590	3.3590	-0.7383	8.32	2.32	-0.750			
0.6650	42559.63	3.3560	3.3559	-0.7241	8.34	2.34	-0.750			
0.6672	42698.08	3.3530	3.3530	-0.7068	8.35	2.35	-0.750			
0.6692	42831.81	3.3500	3.3501	-0.6872	8.36	2.36	-0.750			
0.6713	42963.66	3.3470	3.3470	-0.6709	8.38	2.38	-0.750			
0.6733	43090.30	3.3440	3.3440	-0.6465	8.39	2.39	-0.750			
0.6752	43209.80	3.3410	3.3411	-0.6305	8.40	2.40	-0.750			
0.6770	43329.18	3.3380	3.3381	-0.6149	8.42	2.42	-0.750			
0.6788	43445.15	3.3350	3.3349	-0.6019	8.43	2.43	-0.750			
0.6806	43559.95	3.3320	3.3320	-0.5905	8.44	2.44	-0.750			
0.6824	43671.77	3.3290	3.3291	-0.5812	8.45	2.45	-0.750			
0.6841	43782.61	3.3260	3.3260	-0.5711	8.47	2.47	-0.750			
0.6858	43892.36	3.3230	3.3230	-0.5616	8.48	2.48	-0.750			
0.6875	43998.16	3.3200	3.3201	-0.5463	8.49	2.49	-0.750			
0.6891	44102.88	3.3170	3.3170	-0.5362	8.50	2.50	-0.750			
0.6907	44204.35	3.3140	3.3141	-0.5208	8.51	2.51	-0.750			
0.6922	44302.45	3.3110	3.3109	-0.5087	8.53	2.53	-0.750			
0.6937	44397.89	3.3080	3.3081	-0.4988	8.54	2.54	-0.750			
0.6952	44493.16	3.3050	3.3049	-0.4880	8.55	2.55	-0.750			
0.6967	44586.54	3.3020	3.3019	-0.4762	8.56	2.56	-0.750			
0.6981	44676.67	3.2990	3.2991	-0.4676	8.57	2.57	-0.750			
0.6994	44764.59	3.2960	3.2961	-0.4588	8.58	2.58	-0.750			
0.7008	44852.22	3.2930	3.2929	-0.4489	8.59	2.59	-0.750			
0.7021	44936.56	3.2900	3.2899	-0.4358	8.60	2.60	-0.750			
0.7034	45018.68	3.2870	3.2871	-0.4297	8.61	2.61	-0.750			
0.7047	45101.29	3.2840	3.2840	-0.4228	8.62	2.62	-0.750			
0.7060	45182.54	3.2810	3.2809	-0.4163	8.63	2.63	-0.750			
0.7072	45260.64	3.2780	3.2780	-0.4074	8.65	2.65	-0.750			
0.7084	45337.83	3.2750	3.2752	-0.4016	8.66	2.66	-0.750			
0.7096	45415.06	3.2720	3.2720	-0.3978	8.67	2.67	-0.750			
0.7108	45491.09	3.2690	3.2689	-0.3916	8.68	2.68	-0.750			
0.7120	45565.53	3.2660	3.2661	-0.3822	8.69	2.69	-0.750			
0.7131	45638.70	3.2630	3.2629	-0.3779	8.70	2.70	-0.750			
0.7142	45710.29	3.2600	3.2600	-0.3692	8.71	2.71	-0.750			
0.7153	45779.74	3.2570	3.2570	-0.3618	8.72	2.72	-0.750			
0.7164	45847.96	3.2540	3.2540	-0.3573	8.73	2.73	-0.750			
0.7174	45916.42	3.2510	3.2510	-0.3530	8.74	2.74	-0.750			
0.7185	45984.46	3.2480	3.2480	-0.3478	8.75	2.75	-0.750			
0.7195	46050.99	3.2450	3.2450	-0.3444	8.76	2.76	-0.750			
0.7206	46115.97	3.2420	3.2422	-0.3387	8.77	2.77	-0.750			
0.7216	46180.99	3.2390	3.2389	-0.3338	8.78	2.78	-0.750			
0.7226	46244.15	3.2360	3.2358	-0.3284	8.79	2.79	-0.750			
0.7235	46305.88	3.2330	3.2331	-0.3231	8.80	2.80	-0.750			
0.7245	46368.31	3.2300	3.2301	-0.3189	8.80	2.80	-0.750			
0.7255	46430.26	3.2270	3.2269	-0.3154	8.81	2.81	-0.750			
0.7264	46489.99	3.2240	3.2240	-0.3075	8.82	2.82	-0.750			
0.7273	46547.72	3.2210	3.2211	-0.2998	8.83	2.83	-0.750			
0.7282	46604.80	3.2180	3.2180	-0.2951	8.84	2.84	-0.750			
0.7291	46660.22	3.2150	3.2151	-0.2911	8.85	2.85	-0.750			
0.7299	46715.72	3.2120	3.2119	-0.2876	8.86	2.86	-0.750			
0.7308	46770.34	3.2090	3.2090	-0.2857	8.87	2.87	-0.750			
0.7316	46824.79	3.2060	3.2061	-0.2835	8.88	2.88	-0.750			
0.7325	46879.62	3.2030	3.2030	-0.2823	8.89	2.89	-0.750			
0.7333	46933.96	3.2000	3.1998	-0.2789	8.90	2.90	-0.750			
0.7342	46986.78	3.1970	3.1971	-0.2753	8.91	2.91	-0.750			
0.7350	47039.30	3.1940	3.1941	-0.2718	8.91	2.91	-0.750			
0.7358	47091.93	3.1910	3.1910	-0.2696	8.92	2.92	-0.750			
0.7366	47143.09	3.1880	3.1879	-0.2650	8.93	2.93	-0.750			
0.7374	47192.69	3.1850	3.1851	-0.2602	8.94	2.94	-0.750			
0.7382	47242.33	3.1820	3.1820	-0.2593	8.95	2.95	-0.750			
0.7389	47291.91	3.1790	3.1790	-0.2578	8.96	2.96	-0.750			
0.7397	47341.40	3.1760	3.1759	-0.2544	8.97	2.97	-0.750			
0.7405	47389.93	3.1730	3.1730	-0.2521	8.98	2.98	-0.750			
0.7412	47438.48	3.1700	3.1701	-0.2486	8.99	2.99	-0.750			
0.7420	47485.92	3.1670	3.1671	-0.2450	9.00	3.00	-0.750			
0.7427	47532.50	3.1640	3.1640	-0.2424	9.01	3.01	-0.750			
0.7434	47578.43	3.1610	3.1611	-0.2386	9.02	3.02	-0.750			
0.7441	47623.19	3.1580	3.1580	-0.2352	9.02	3.02	-0.750			
0.7448	47668.18	3.1550	3.1550	-0.2361	9.03	3.03	-0.750			
0.7455	47712.76	3.1520	3.1520	-0.2361	9.04	3.04	-0.750			
0.7462	47759.07	3.1490	3.1489	-0.2321	9.05	3.05	-0.750			
0.7469	47804.02	3.1460	3.1460	-0.2304	9.06	3.06	-0.750			
0.7476	47848.30	3.1430	3.1433	-0.2284	9.07	3.07	-0.750			
0.7483	47891.81	3.1400	3.1399	-0.2251	9.07	3.07	-0.750			
0.7490	47934.65	3.1370	3.1369	-0.2214	9.08	3.08	-0.750			
0.7496	47975.81	3.1340	3.1341	-0.2181	9.09	3.09	-0.750			
0.7503	48017.43	3.1310	3.1310	-0.2162	9.10	3.10	-0.750			
0.7509	48059.08	3.1280	3.1280	-0.2149	9.11	3.11	-0.750			
0.7516	48101.18	3.1250	3.1249	-0.2143	9.12	3.12	-0.750			
0.7522	48141.57	3.1220	3.1220	-0.2122	9.13	3.13	-0.750			
0.7528	48182.18	3.1190	3.1191	-0.2104	9.13	3.13	-0.750			
0.7535	48222.28	3.1160	3.1159	-0.2097	9.14	3.14	-0.750			
0.7541	48262.45	3.1130	3.1131	-0.2086	9.15	3.15	-0.750			
0.7547	48302.20	3.1100	3.1100	-0.2069	9.16	3.16	-0.750			
0.7553	48342.10	3.1070	3.1069	-0.2053	9.17	3.17	-0.750			
0.7560	48381.65	3.1040	3.1041	-0.2037	9.18	3.18	-0.750			
0.7566	48420.60	3.1010	3.1010	-0.2010	9.19	3.19	-0.750			
0.7572	48459.06	3.0980	3.0980	-0.1984	9.20	3.20	-0.750			
0.7578	48497.03	3.0950	3.0949	-0.1959	9.20	3.20	-0.750			
0.7583	48533.89	3.0920	3.0920	-0.1926	9.21	3.21	-0.750			
0.7589	48570.28	3.0890	3.0890	-0.1921	9.22	3.22	-0.750			
0.7595	48606.79	3.0860	3.0861	-0.1911	9.23	3.23	-0.750			
0.7601	48643.27	3.0830	3.0829	-0.1907	9.24	3.24	-0.750			
0.7606	48679.87	3.0800	3.0799	-0.1894	9.25	3.25	-0.750			
0.7612	48716.26	3.0770	3.0770	-0.1896	9.25	3.25	-0.750			
0.7618	48752.88	3.0740	3.0741	-0.1884	9.26	3.26	-0.750			
0.7623	48789.28	3.0710	3.0710	-0.1877	9.27	3.27	-0.750			
0.7629	48825.28	3.0680	3.0680	-0.1866	9.28	3.28	-0.750			
0.7634	48860.47	3.0650	3.0651	-0.1848	9.29	3.29	-0.750			
0.7640	48895.93	3.0620	3.0619	-0.1842	9.30	3.30	-0.750			
0.7646	48931.28	3.0590	3.0590	-0.1836	9.31	3.31	-0.750			
0.7651	48966.58	3.0560	3.0560	-0.1829	9.32	3.32	-0.750			
0.7656	49001.44	3.0530	3.0530	-0.1813	9.33	3.33	-0.750			
0.7662	49036.47	3.0500	3.0500	-0.1812	9.34	3.34	-0.750			
0.7667	49071.14	3.0470	3.0471	-0.1799	9.35	3.35	-0.750			
0.7673	49105.68	3.0440	3.0440	-0.1774	9.36	3.36	-0.750			
0.7678	49139.63	3.0410	3.0410	-0.1755	9.36	3.36	-0.750			
0.7683	49172.85	3.0380	3.0380	-0.1742	9.37	3.37	-0.750			
0.7688	49206.15	3.0350	3.0351	-0.1727	9.38	3.38	-0.750			
0.7694	49238.83	3.0320	3.0319	-0.1725	9.39	3.39	-0.750			
0.7699	49271.80	3.0290	3.0289	-0.1716	9.40	3.40	-0.750			
0.7704	49304.93	3.0260	3.0260	-0.1705	9.41	3.41	-0.750			
0.7709	49337.60	3.0230	3.0231	-0.1698	9.42	3.42	-0.750			
0.7714	49370.62	3.0200	3.0201	-0.1690	9.43	3.43	-0.750			
0.7719	49403.03	3.0170	3.0170	-0.1679	9.43	3.43	-0.750			
0.7724	49434.50	3.0140	3.0140	-0.1669	9.44	3.44	-0.750			
0.7729	49466.51	3.0110	3.0110	-0.1666	9.45	3.45	-0.750			
0.7734	49497.98	3.0080	3.0080	-0.1672	9.46	3.46	-0.750			
0.7739	49530.00	3.0050	3.0049	-0.1695	9.47	3.47	-0.750			
0.7744	49562.83	3.0020	3.0020	-0.1735	9.48	3.48	-0.750			
