Ah_balance (normalized)	Ah_balance (mAh)	Voltage - fit (V)	Voltage -  interpolate (V)	dQ/dV (1/V)	Temperature (°C)	Temperature - diff (°C)	Current (C)	R_DC 0ms (mOhm)	R_DC 50ms (mOhm)	R_DC 50 ms PEC (mOhm)
0.0929	5943.99	4.1970	4.1997	0.9670	8.24	2.25	0.750			
0.0958	6134.09	4.1940	4.1953	0.9478	8.23	2.24	0.750			
0.0986	6308.14	4.1910	4.1913	0.8729	8.23	2.24	0.750			
0.1010	6465.25	4.1880	4.1882	0.8175	8.23	2.24	0.750			
0.1036	6627.73	4.1850	4.1844	0.7974	8.22	2.23	0.750			
0.1054	6746.56	4.1820	4.1819	0.7216	8.22	2.23	0.750			
0.1075	6883.19	4.1790	4.1790	0.7135	8.22	2.23	0.750			
0.1097	7020.14	4.1760	4.1761	0.7238	8.21	2.22	0.750			
0.1119	7160.95	4.1730	4.1731	0.7303	8.21	2.22	0.750			
0.1141	7300.87	4.1700	4.1699	0.7295	8.20	2.21	0.750			
0.1163	7440.82	4.1670	4.1669	0.7294	8.20	2.21	0.750			
0.1185	7581.99	4.1640	4.1641	0.7291	8.19	2.20	0.750			
0.1207	7722.72	4.1610	4.1611	0.7344	8.19	2.20	0.750			
0.1228	7862.16	4.1580	4.1579	0.7409	8.18	2.19	0.750			
0.1250	8001.44	4.1550	4.1551	0.7389	8.18	2.19	0.750			
0.1273	8147.01	4.1520	4.1519	0.7445	8.18	2.19	0.750			
0.1295	8290.95	4.1490	4.1491	0.7525	8.18	2.19	0.750			
0.1318	8435.47	4.1460	4.1461	0.7541	8.17	2.18	0.750			
0.1341	8583.07	4.1430	4.1429	0.7528	8.17	2.18	0.750			
0.1364	8726.89	4.1400	4.1400	0.7471	8.17	2.18	0.750			
0.1386	8869.51	4.1370	4.1371	0.7442	8.16	2.17	0.750			
0.1408	9012.69	4.1340	4.1340	0.7440	8.16	2.17	0.750			
0.1430	9153.04	4.1310	4.1310	0.7557	8.15	2.16	0.750			
0.1453	9296.06	4.1280	4.1280	0.7605	8.15	2.16	0.750			
0.1476	9444.40	4.1250	4.1248	0.7665	8.14	2.15	0.750			
0.1499	9593.14	4.1220	4.1221	0.7803	8.14	2.15	0.750			
0.1523	9747.21	4.1190	4.1191	0.7807	8.13	2.14	0.750			
0.1547	9898.22	4.1160	4.1160	0.7784	8.13	2.14	0.750			
0.1570	10047.12	4.1130	4.1130	0.7763	8.13	2.14	0.750			
0.1593	10193.63	4.1100	4.1101	0.7709	8.12	2.13	0.750			
0.1616	10341.02	4.1070	4.1071	0.7743	8.12	2.13	0.750			
0.1639	10489.01	4.1040	4.1040	0.7798	8.12	2.13	0.750			
0.1662	10637.60	4.1010	4.1010	0.7766	8.11	2.12	0.750			
0.1686	10789.03	4.0980	4.0981	0.7866	8.11	2.12	0.750			
0.1710	10940.90	4.0950	4.0950	0.7895	8.10	2.11	0.750			
0.1733	11092.89	4.0920	4.0917	0.7921	8.10	2.11	0.750			
0.1757	11244.17	4.0890	4.0891	0.7981	8.10	2.11	0.750			
0.1781	11398.30	4.0860	4.0860	0.7993	8.09	2.10	0.750			
0.1805	11551.42	4.0830	4.0830	0.8080	8.09	2.10	0.750			
0.1829	11706.17	4.0800	4.0800	0.8128	8.08	2.09	0.750			
0.1854	11864.39	4.0770	4.0770	0.8239	8.08	2.09	0.750			
0.1879	12025.01	4.0740	4.0740	0.8311	8.08	2.09	0.750			
0.1904	12186.89	4.0710	4.0710	0.8262	8.07	2.08	0.750			
0.1929	12346.11	4.0680	4.0681	0.8242	8.06	2.07	0.750			
0.1954	12504.73	4.0650	4.0651	0.8186	8.06	2.07	0.750			
0.1978	12658.22	4.0620	4.0619	0.8144	8.05	2.06	0.750			
0.2002	12811.56	4.0590	4.0590	0.8153	8.05	2.06	0.750			
0.2026	12968.69	4.0560	4.0561	0.8200	8.04	2.05	0.750			
0.2051	13128.12	4.0530	4.0530	0.8368	8.04	2.05	0.750			
0.2077	13290.75	4.0500	4.0500	0.8459	8.04	2.05	0.750			
0.2102	13455.93	4.0470	4.0469	0.8506	8.03	2.04	0.750			
0.2128	13619.92	4.0440	4.0441	0.8598	8.03	2.04	0.750			
0.2154	13786.57	4.0410	4.0410	0.8510	8.02	2.03	0.750			
0.2180	13948.85	4.0380	4.0380	0.8499	8.01	2.02	0.750			
0.2205	14109.61	4.0350	4.0350	0.8463	8.01	2.02	0.750			
0.2230	14272.88	4.0320	4.0319	0.8499	8.00	2.01	0.750			
0.2256	14436.29	4.0290	4.0291	0.8505	8.00	2.01	0.750			
0.2281	14599.58	4.0260	4.0260	0.8517	7.99	2.00	0.750			
0.2307	14761.74	4.0230	4.0231	0.8557	7.99	2.00	0.750			
0.2332	14926.33	4.0200	4.0201	0.8667	7.98	1.99	0.750			
0.2358	15094.29	4.0170	4.0165	0.8722	7.98	1.99	0.750			
0.2385	15266.20	4.0140	4.0140	0.8706	7.97	1.98	0.750			
0.2412	15435.47	4.0110	4.0111	0.8690	7.97	1.98	0.750			
0.2438	15601.65	4.0080	4.0082	0.8799	7.96	1.97	0.750			
0.2464	15770.19	4.0050	4.0050	0.8787	7.95	1.96	0.750			
0.2490	15933.70	4.0020	4.0017	0.8794	7.95	1.96	0.750			
0.2516	16103.13	3.9990	3.9991	0.8850	7.94	1.95	0.750			
0.2543	16276.31	3.9960	3.9961	0.9013	7.94	1.95	0.750			
0.2570	16450.07	3.9930	3.9931	0.9138	7.93	1.94	0.750			
0.2598	16628.98	3.9900	3.9899	0.9163	7.92	1.93	0.750			
0.2626	16803.90	3.9870	3.9870	0.9154	7.92	1.93	0.750			
0.2654	16982.52	3.9840	3.9841	0.9145	7.91	1.92	0.750			
0.2681	17156.25	3.9810	3.9812	0.9155	7.91	1.92	0.750			
0.2708	17332.72	3.9780	3.9779	0.9189	7.90	1.91	0.750			
0.2735	17507.05	3.9750	3.9747	0.9170	7.90	1.91	0.750			
0.2763	17682.76	3.9720	3.9721	0.9113	7.89	1.90	0.750			
0.2790	17858.34	3.9690	3.9691	0.9226	7.88	1.89	0.750			
0.2818	18037.16	3.9660	3.9660	0.9317	7.87	1.88	0.750			
0.2846	18215.27	3.9630	3.9630	0.9311	7.86	1.87	0.750			
0.2874	18394.26	3.9600	3.9601	0.9432	7.86	1.87	0.750			
0.2902	18575.69	3.9570	3.9571	0.9445	7.85	1.86	0.750			
0.2931	18758.04	3.9540	3.9540	0.9539	7.85	1.86	0.750			
0.2960	18942.39	3.9510	3.9511	0.9605	7.84	1.85	0.750			
0.2988	19123.78	3.9480	3.9477	0.9654	7.84	1.85	0.750			
0.3017	19310.73	3.9450	3.9453	0.9711	7.83	1.84	0.750			
0.3047	19498.47	3.9420	3.9419	0.9855	7.82	1.83	0.750			
0.3076	19689.24	3.9390	3.9391	0.9953	7.81	1.82	0.750			
0.3106	19881.05	3.9360	3.9358	1.0010	7.80	1.81	0.750			
0.3137	20076.20	3.9330	3.9330	1.0086	7.79	1.80	0.750			
0.3167	20271.39	3.9300	3.9300	1.0153	7.78	1.79	0.750			
0.3198	20465.36	3.9270	3.9270	1.0173	7.77	1.78	0.750			
0.3228	20662.11	3.9240	3.9238	1.0273	7.76	1.77	0.750			
0.3259	20855.76	3.9210	3.9210	1.0272	7.75	1.76	0.750			
0.3290	21054.19	3.9180	3.9180	1.0389	7.75	1.76	0.750			
0.3321	21255.72	3.9150	3.9150	1.0457	7.74	1.75	0.750			
0.3353	21457.99	3.9120	3.9118	1.0571	7.73	1.74	0.750			
0.3385	21662.40	3.9090	3.9091	1.0553	7.72	1.73	0.750			
0.3416	21862.33	3.9060	3.9061	1.0686	7.71	1.72	0.750			
0.3448	22064.58	3.9030	3.9030	1.0842	7.70	1.71	0.750			
0.3481	22276.69	3.9000	3.8997	1.0976	7.69	1.70	0.750			
0.3514	22488.33	3.8970	3.8970	1.1148	7.68	1.69	0.750			
0.3548	22704.28	3.8940	3.8941	1.1392	7.67	1.68	0.750			
0.3582	22927.48	3.8910	3.8910	1.1558	7.66	1.67	0.750			
0.3618	23153.34	3.8880	3.8880	1.1532	7.65	1.66	0.750			
0.3652	23373.67	3.8850	3.8850	1.1674	7.64	1.65	0.750			
0.3687	23596.52	3.8820	3.8821	1.1814	7.63	1.64	0.750			
0.3723	23828.46	3.8790	3.8789	1.1966	7.61	1.62	0.750			
0.3759	24057.48	3.8760	3.8760	1.2033	7.60	1.61	0.750			
0.3795	24289.14	3.8730	3.8730	1.2187	7.59	1.60	0.750			
0.3832	24525.81	3.8700	3.8702	1.2437	7.58	1.59	0.750			
0.3870	24766.47	3.8670	3.8668	1.2549	7.57	1.58	0.750			
0.3908	25008.32	3.8640	3.8641	1.2786	7.55	1.56	0.750			
0.3946	25254.35	3.8610	3.8610	1.3014	7.54	1.55	0.750			
0.3985	25505.18	3.8580	3.8579	1.3280	7.53	1.54	0.750			
0.4026	25763.28	3.8550	3.8552	1.3588	7.51	1.52	0.750			
0.4067	26028.41	3.8520	3.8520	1.3829	7.50	1.51	0.750			
0.4109	26296.77	3.8490	3.8487	1.4144	7.48	1.49	0.750	0.419	0.954	
0.4152	26573.50	3.8460	3.8462	1.4342	7.46	1.47	0.750			
0.4196	26851.90	3.8430	3.8431	1.4611	7.45	1.46	0.750			
0.4240	27134.90	3.8400	3.8400	1.5009	7.43	1.44	0.750			
0.4285	27421.60	3.8370	3.8369	1.5049	7.41	1.42	0.750			
0.4330	27713.73	3.8340	3.8341	1.5409	7.39	1.40	0.750			
0.4377	28015.71	3.8310	3.8310	1.5589	7.37	1.38	0.750			
0.4425	28317.26	3.8280	3.8276	1.5902	7.35	1.36	0.750			
0.4473	28625.06	3.8250	3.8251	1.6384	7.33	1.34	0.750			
0.4521	28936.53	3.8220	3.8218	1.6801	7.32	1.33	0.750			
0.4572	29262.76	3.8190	3.8191	1.7127	7.29	1.30	0.750			
0.4624	29594.91	3.8160	3.8160	1.7788	7.27	1.28	0.750			
0.4679	29948.53	3.8130	3.8128	1.8313	7.25	1.26	0.750			
0.4736	30310.92	3.8100	3.8098	1.8590	7.23	1.24	0.750			
0.4793	30672.98	3.8070	3.8071	1.8913	7.21	1.22	0.750			
0.4850	31039.01	3.8040	3.8040	1.9219	7.18	1.19	0.750			
0.4907	31403.59	3.8010	3.8009	1.9355	7.16	1.17	0.750			
0.4966	31783.07	3.7980	3.7979	1.9651	7.13	1.14	0.750			
0.5025	32160.36	3.7950	3.7952	1.9968	7.10	1.11	0.750			
0.5086	32550.78	3.7920	3.7920	2.0519	7.07	1.08	0.750			
0.5147	32942.36	3.7890	3.7888	2.1217	7.04	1.05	0.750			
0.5211	33351.51	3.7860	3.7860	2.1992	7.01	1.02	0.750			
0.5279	33784.01	3.7830	3.7829	2.2725	6.98	0.99	0.750			
0.5349	34233.01	3.7800	3.7802	2.3385	6.94	0.95	0.750			
0.5421	34694.18	3.7770	3.7768	2.3314	6.91	0.92	0.750			
0.5491	35141.10	3.7740	3.7740	2.3510	6.88	0.89	0.750			
0.5561	35592.45	3.7710	3.7710	2.3692	6.84	0.85	0.750			
0.5632	36042.17	3.7680	3.7680	2.4247	6.81	0.82	0.750			
0.5706	36515.51	3.7650	3.7651	2.4986	6.77	0.78	0.750			
0.5784	37014.96	3.7620	3.7621	2.5961	6.74	0.75	0.750			
0.5862	37517.53	3.7590	3.7590	2.6001	6.70	0.71	0.750			
0.5940	38016.85	3.7560	3.7560	2.6260	6.66	0.67	0.750			
0.6021	38534.63	3.7530	3.7529	2.6378	6.62	0.63	0.750			
0.6099	39034.98	3.7500	3.7501	2.7044	6.58	0.59	0.750			
0.6181	39561.39	3.7470	3.7472	2.8283	6.55	0.56	0.750			
0.6267	40111.75	3.7440	3.7439	2.9338	6.51	0.52	0.750			
0.6357	40686.12	3.7410	3.7410	3.0800	6.47	0.48	0.750			
0.6454	41306.49	3.7380	3.7381	3.2429	6.42	0.43	0.750			
0.6556	41955.40	3.7350	3.7349	3.3261	6.38	0.39	0.750			
0.6654	42585.23	3.7320	3.7320	3.2600	6.34	0.35	0.750			
0.6751	43207.22	3.7290	3.7290	3.2656	6.30	0.31	0.750			
0.6853	43856.41	3.7260	3.7260	3.2013	6.27	0.28	0.750			
0.6947	44458.46	3.7230	3.7232	3.0608	6.24	0.25	0.750			
0.7036	45029.47	3.7200	3.7199	2.7484	6.21	0.22	0.750			
0.7114	45529.30	3.7170	3.7171	2.4756	6.18	0.19	0.750			
0.7185	45981.19	3.7140	3.7138	2.2234	6.16	0.17	0.750			
0.7244	46364.36	3.7110	3.7110	1.9551	6.14	0.15	0.750			
0.7299	46711.65	3.7080	3.7081	1.7472	6.12	0.13	0.750			
0.7347	47018.85	3.7050	3.7049	1.5507	6.11	0.12	0.750			
0.7391	47300.11	3.7020	3.7020	1.4208	6.10	0.11	0.750			
0.7429	47548.28	3.6990	3.6990	1.2929	6.09	0.10	0.750			
0.7466	47779.96	3.6960	3.6961	1.2208	6.08	0.09	0.750			
0.7500	48003.09	3.6930	3.6929	1.1508	6.08	0.09	0.750			
0.7533	48211.41	3.6900	3.6901	1.1077	6.07	0.08	0.750			
0.7566	48422.62	3.6870	3.6872	1.0840	6.06	0.07	0.750			
0.7598	48628.92	3.6840	3.6838	1.0659	6.05	0.06	0.750			
0.7630	48830.14	3.6810	3.6810	1.0277	6.05	0.06	0.750			
0.7660	49023.31	3.6780	3.6781	1.0105	6.04	0.05	0.750			
0.7690	49212.80	3.6750	3.6751	0.9963	6.04	0.05	0.750			
0.7719	49402.82	3.6720	3.6721	0.9819	6.03	0.04	0.750			
0.7749	49592.35	3.6690	3.6690	0.9621	6.03	0.04	0.750			
0.7778	49777.87	3.6660	3.6661	0.9494	6.02	0.03	0.750			
0.7806	49957.98	3.6630	3.6631	0.9330	6.02	0.03	0.750			
0.7834	50136.98	3.6600	3.6600	0.9221	6.01	0.02	0.750			
0.7861	50307.62	3.6570	3.6569	0.8980	6.01	0.02	0.750			
0.7888	50480.83	3.6540	3.6539	0.8760	6.01	0.02	0.750			
0.7914	50647.81	3.6510	3.6510	0.8633	6.01	0.02	0.750			
0.7940	50813.70	3.6480	3.6481	0.8501	6.00	0.01	0.750			
0.7965	50974.12	3.6450	3.6451	0.8331	6.00	0.01	0.750			
0.7989	51130.03	3.6420	3.6418	0.8219	6.00	0.01	0.750			
0.8014	51287.21	3.6390	3.6390	0.8128	6.00	0.01	0.750			
0.8038	51443.39	3.6360	3.6360	0.7993	6.00	0.01	0.750			
0.8063	51600.78	3.6330	3.6331	0.7820	5.99	0.00	0.750			
0.8086	51753.56	3.6300	3.6299	0.7415	5.99	0.00	0.750			
0.8109	51895.69	3.6270	3.6270	0.6904	5.99	0.00	0.750			
0.8129	52027.59	3.6240	3.6240	0.6221	5.99	-0.00	0.750			
0.8147	52141.32	3.6210	3.6211	0.5426	5.99	-0.00	0.750			
0.8162	52238.57	3.6180	3.6181	0.4645	5.99	-0.00	0.750			
0.8174	52311.40	3.6150	3.6152	0.3878	5.98	-0.01	0.750			
0.8184	52377.54	3.6120	3.6121	0.3126	5.98	-0.01	0.750			
0.8192	52429.05	3.6090	3.6089	0.2449	5.98	-0.01	0.750			
0.8198	52467.76	3.6060	3.6060	0.1840	5.98	-0.01	0.750			
0.8203	52497.14	3.6030	3.6025	0.1316	5.98	-0.01	0.750			
0.8206	52516.20	3.6000	3.5975	0.0812	5.98	-0.01	0.750			
0.8206	52521.37	3.5910	3.5879	-0.0665	5.98	-0.01	0.750			
0.8207	52527.92	3.5970	3.5360	0.0323	5.98	-0.01	0.750			
0.8208	52529.39	3.5940	3.5242	-0.0171	5.98	-0.01	0.750			
