Ah_balance (normalized)	Ah_balance (mAh)	Voltage - fit (V)	Voltage -  interpolate (V)	dQ/dV (1/V)	Temperature (°C)	Temperature - diff (°C)	Current (C)	R_DC 0ms (mOhm)	R_DC 50ms (mOhm)	R_DC 50 ms PEC (mOhm)
0.0002	9.62	4.1020	4.1011	-0.0201	5.96	-0.03	-0.750			
0.0003	19.22	4.0990	4.0985	-0.0594	5.96	-0.03	-0.750			
0.0005	34.45	4.0960	4.0956	-0.0906	5.96	-0.03	-0.750			
0.0009	54.73	4.0930	4.0928	-0.1206	5.96	-0.03	-0.750			
0.0013	81.22	4.0900	4.0901	-0.1479	5.96	-0.03	-0.750			
0.0018	112.55	4.0870	4.0870	-0.1741	5.97	-0.02	-0.750			
0.0024	150.50	4.0840	4.0840	-0.2021	5.97	-0.02	-0.750			
0.0030	191.82	4.0810	4.0810	-0.2238	5.97	-0.02	-0.750			
0.0037	237.07	4.0780	4.0780	-0.2457	5.97	-0.02	-0.750			
0.0045	286.99	4.0750	4.0750	-0.2662	5.97	-0.02	-0.750			
0.0053	339.75	4.0720	4.0720	-0.2866	5.97	-0.02	-0.750			
0.0062	396.47	4.0690	4.0690	-0.3089	5.98	-0.01	-0.750			
0.0071	457.05	4.0660	4.0660	-0.3312	5.98	-0.01	-0.750			
0.0082	522.59	4.0630	4.0629	-0.3545	5.98	-0.01	-0.750			
0.0093	593.47	4.0600	4.0600	-0.3782	5.98	-0.01	-0.750			
0.0105	669.19	4.0570	4.0568	-0.4003	5.99	-0.00	-0.750			
0.0117	748.50	4.0540	4.0542	-0.4221	5.99	-0.00	-0.750			
0.0130	831.31	4.0510	4.0509	-0.4423	5.99	0.00	-0.750			
0.0144	918.46	4.0480	4.0480	-0.4599	6.00	0.01	-0.750			
0.0158	1008.50	4.0450	4.0450	-0.4805	6.00	0.01	-0.750			
0.0172	1101.35	4.0420	4.0421	-0.4991	6.00	0.01	-0.750			
0.0187	1199.80	4.0390	4.0390	-0.5221	6.01	0.02	-0.750			
0.0203	1302.07	4.0360	4.0360	-0.5428	6.01	0.02	-0.750			
0.0220	1408.07	4.0330	4.0330	-0.5620	6.01	0.02	-0.750			
0.0237	1519.18	4.0300	4.0299	-0.5792	6.02	0.03	-0.750			
0.0255	1634.05	4.0270	4.0270	-0.5962	6.02	0.03	-0.750			
0.0273	1749.08	4.0240	4.0240	-0.6109	6.03	0.04	-0.750			
0.0292	1869.26	4.0210	4.0211	-0.6199	6.03	0.04	-0.750			
0.0311	1989.34	4.0180	4.0179	-0.6279	6.04	0.05	-0.750			
0.0330	2110.06	4.0150	4.0152	-0.6419	6.04	0.05	-0.750			
0.0349	2234.14	4.0120	4.0120	-0.6518	6.04	0.05	-0.750			
0.0369	2360.56	4.0090	4.0090	-0.6606	6.05	0.06	-0.750			
0.0389	2488.33	4.0060	4.0060	-0.6706	6.06	0.07	-0.750			
0.0409	2617.57	4.0030	4.0031	-0.6790	6.06	0.07	-0.750			
0.0430	2751.15	4.0000	4.0000	-0.6910	6.07	0.08	-0.750			
0.0451	2883.82	3.9970	3.9970	-0.6938	6.08	0.09	-0.750			
0.0471	3017.43	3.9940	3.9940	-0.6945	6.08	0.09	-0.750			
0.0492	3151.84	3.9910	3.9910	-0.7037	6.09	0.10	-0.750			
0.0514	3287.35	3.9880	3.9881	-0.7106	6.10	0.11	-0.750			
0.0535	3425.01	3.9850	3.9849	-0.7085	6.11	0.12	-0.750			
0.0556	3561.31	3.9820	3.9820	-0.7154	6.11	0.12	-0.750			
0.0578	3698.06	3.9790	3.9791	-0.7218	6.12	0.13	-0.750			
0.0600	3837.84	3.9760	3.9760	-0.7273	6.13	0.14	-0.750			
0.0622	3978.19	3.9730	3.9731	-0.7297	6.14	0.15	-0.750			
0.0643	4118.14	3.9700	3.9700	-0.7273	6.15	0.16	-0.750			
0.0665	4256.93	3.9670	3.9672	-0.7396	6.16	0.17	-0.750			
0.0688	4402.45	3.9640	3.9639	-0.7431	6.17	0.18	-0.750			
0.0710	4545.18	3.9610	3.9609	-0.7390	6.18	0.19	-0.750			
0.0732	4687.05	3.9580	3.9579	-0.7376	6.19	0.20	-0.750			
0.0754	4828.59	3.9550	3.9550	-0.7415	6.20	0.21	-0.750			
0.0777	4970.76	3.9520	3.9519	-0.7412	6.21	0.22	-0.750			
0.0799	5110.53	3.9490	3.9491	-0.7487	6.22	0.23	-0.750			
0.0821	5252.92	3.9460	3.9459	-0.7488	6.22	0.23	-0.750			
0.0844	5401.22	3.9430	3.9429	-0.7612	6.23	0.24	-0.750			
0.0867	5549.18	3.9400	3.9401	-0.7651	6.24	0.25	-0.750			
0.0890	5696.48	3.9370	3.9370	-0.7623	6.25	0.26	-0.750			
0.0913	5842.76	3.9340	3.9340	-0.7630	6.26	0.27	-0.750			
0.0936	5989.66	3.9310	3.9310	-0.7616	6.27	0.28	-0.750			
0.0958	6133.12	3.9280	3.9281	-0.7576	6.28	0.29	-0.750			
0.0981	6280.24	3.9250	3.9249	-0.7660	6.29	0.30	-0.750			
0.1004	6425.95	3.9220	3.9221	-0.7693	6.30	0.31	-0.750			
0.1027	6574.29	3.9190	3.9190	-0.7753	6.31	0.32	-0.750			
0.1051	6723.51	3.9160	3.9160	-0.7828	6.32	0.33	-0.750			
0.1074	6875.33	3.9130	3.9130	-0.7864	6.33	0.34	-0.750			
0.1098	7029.14	3.9100	3.9100	-0.7891	6.34	0.35	-0.750			
0.1122	7181.44	3.9070	3.9071	-0.7877	6.35	0.36	-0.750			
0.1146	7332.46	3.9040	3.9041	-0.7830	6.36	0.37	-0.750			
0.1169	7482.69	3.9010	3.9010	-0.7774	6.37	0.38	-0.750			
0.1192	7630.53	3.8980	3.8980	-0.7749	6.38	0.39	-0.750			
0.1215	7776.57	3.8950	3.8950	-0.7760	6.40	0.41	-0.750			
0.1238	7925.96	3.8920	3.8920	-0.7815	6.41	0.42	-0.750			
0.1262	8077.70	3.8890	3.8888	-0.7861	6.42	0.43	-0.750			
0.1286	8228.34	3.8860	3.8861	-0.7904	6.42	0.43	-0.750			
0.1310	8382.57	3.8830	3.8830	-0.7923	6.43	0.44	-0.750			
0.1334	8535.17	3.8800	3.8800	-0.7913	6.44	0.45	-0.750			
0.1357	8686.34	3.8770	3.8769	-0.7919	6.45	0.46	-0.750			
0.1381	8838.45	3.8740	3.8741	-0.7899	6.45	0.46	-0.750			
0.1405	8989.97	3.8710	3.8709	-0.7955	6.46	0.47	-0.750			
0.1429	9143.11	3.8680	3.8681	-0.7975	6.47	0.48	-0.750			
0.1453	9297.27	3.8650	3.8649	-0.7951	6.48	0.49	-0.750			
0.1477	9451.21	3.8620	3.8621	-0.7940	6.49	0.50	-0.750			
0.1500	9601.81	3.8590	3.8591	-0.7992	6.50	0.51	-0.750			
0.1524	9754.46	3.8560	3.8560	-0.8015	6.51	0.52	-0.750			
0.1548	9909.83	3.8530	3.8529	-0.8089	6.52	0.53	-0.750			
0.1573	10066.69	3.8500	3.8500	-0.7998	6.53	0.54	-0.750			
0.1597	10222.92	3.8470	3.8470	-0.8010	6.54	0.55	-0.750			
0.1621	10374.95	3.8440	3.8444	-0.8048	6.55	0.56	-0.750			
0.1645	10527.83	3.8410	3.8408	-0.8043	6.56	0.57	-0.750			
0.1669	10681.33	3.8380	3.8379	-0.7991	6.57	0.58	-0.750			
0.1693	10833.37	3.8350	3.8350	-0.8041	6.58	0.59	-0.750			
0.1717	10990.83	3.8320	3.8322	-0.8146	6.60	0.61	-0.750			
0.1742	11148.72	3.8290	3.8290	-0.8184	6.61	0.62	-0.750			
0.1766	11304.67	3.8260	3.8259	-0.8191	6.62	0.63	-0.750			
0.1791	11460.68	3.8230	3.8230	-0.8267	6.63	0.64	-0.750			
0.1816	11620.02	3.8200	3.8200	-0.8352	6.64	0.65	-0.750			
0.1841	11783.26	3.8170	3.8170	-0.8386	6.65	0.66	-0.750			
0.1866	11945.15	3.8140	3.8141	-0.8368	6.66	0.67	-0.750			
0.1892	12106.27	3.8110	3.8110	-0.8382	6.67	0.68	-0.750			
0.1917	12267.75	3.8080	3.8079	-0.8331	6.67	0.68	-0.750			
0.1941	12425.41	3.8050	3.8050	-0.8314	6.68	0.69	-0.750			
0.1966	12584.11	3.8020	3.8020	-0.8253	6.69	0.70	-0.750			
0.1991	12744.88	3.7990	3.7990	-0.8246	6.70	0.71	-0.750			
0.2016	12902.69	3.7960	3.7959	-0.8255	6.71	0.72	-0.750			
0.2040	13059.11	3.7930	3.7930	-0.8313	6.72	0.73	-0.750			
0.2065	13218.77	3.7900	3.7900	-0.8347	6.73	0.74	-0.750			
0.2091	13379.76	3.7870	3.7869	-0.8377	6.75	0.76	-0.750			
0.2116	13540.55	3.7840	3.7841	-0.8398	6.76	0.77	-0.750			
0.2141	13704.70	3.7810	3.7810	-0.8408	6.77	0.78	-0.750			
0.2167	13867.56	3.7780	3.7778	-0.8413	6.78	0.79	-0.750			
0.2192	14027.65	3.7750	3.7751	-0.8325	6.79	0.80	-0.750			
0.2216	14185.13	3.7720	3.7720	-0.8268	6.80	0.81	-0.750			
0.2241	14344.86	3.7690	3.7690	-0.8310	6.81	0.82	-0.750			
0.2266	14503.21	3.7660	3.7660	-0.8351	6.82	0.83	-0.750			
0.2291	14661.59	3.7630	3.7630	-0.8396	6.82	0.83	-0.750			
0.2316	14824.88	3.7600	3.7599	-0.8452	6.83	0.84	-0.750			
0.2342	14987.91	3.7570	3.7570	-0.8473	6.84	0.85	-0.750			
0.2368	15152.65	3.7540	3.7540	-0.8528	6.85	0.86	-0.750			
0.2393	15316.71	3.7510	3.7510	-0.8504	6.86	0.87	-0.750			
0.2419	15480.14	3.7480	3.7479	-0.8522	6.87	0.88	-0.750			
0.2444	15642.87	3.7450	3.7450	-0.8546	6.88	0.89	-0.750			
0.2470	15806.16	3.7420	3.7420	-0.8600	6.89	0.90	-0.750			
0.2496	15973.29	3.7390	3.7393	-0.8643	6.90	0.91	-0.750			
0.2522	16139.44	3.7360	3.7359	-0.8642	6.91	0.92	-0.750			
0.2548	16305.35	3.7330	3.7330	-0.8679	6.91	0.92	-0.750			
0.2574	16472.84	3.7300	3.7300	-0.8692	6.92	0.93	-0.750			
0.2600	16641.05	3.7270	3.7269	-0.8729	6.93	0.94	-0.750			
0.2626	16806.22	3.7240	3.7241	-0.8793	6.93	0.94	-0.750			
0.2652	16973.66	3.7210	3.7211	-0.8870	6.94	0.95	-0.750			
0.2679	17146.42	3.7180	3.7179	-0.8979	6.95	0.96	-0.750			
0.2706	17320.13	3.7150	3.7151	-0.9034	6.96	0.97	-0.750			
0.2734	17496.33	3.7120	3.7119	-0.9031	6.98	0.99	-0.750			
0.2761	17669.92	3.7090	3.7090	-0.9049	6.98	0.99	-0.750			
0.2788	17843.70	3.7060	3.7060	-0.9083	6.99	1.00	-0.750			
0.2815	18017.37	3.7030	3.7029	-0.9010	7.00	1.01	-0.750			
0.2842	18190.08	3.7000	3.7000	-0.9016	7.00	1.01	-0.750			
0.2869	18363.37	3.6970	3.6970	-0.9015	7.01	1.02	-0.750			
0.2896	18536.80	3.6940	3.6940	-0.9052	7.02	1.03	-0.750			
0.2923	18709.55	3.6910	3.6910	-0.9149	7.03	1.04	-0.750			
0.2950	18882.32	3.6880	3.6879	-0.9179	7.04	1.05	-0.750			
0.2978	19059.37	3.6850	3.6850	-0.9358	7.04	1.05	-0.750			
0.3007	19241.85	3.6820	3.6821	-0.9516	7.05	1.06	-0.750			
0.3035	19426.66	3.6790	3.6790	-0.9623	7.06	1.07	-0.750			
0.3065	19614.90	3.6760	3.6759	-0.9702	7.07	1.08	-0.750			
0.3094	19801.57	3.6730	3.6731	-0.9722	7.07	1.08	-0.750			
0.3123	19987.44	3.6700	3.6701	-0.9745	7.08	1.09	-0.750			
0.3153	20177.30	3.6670	3.6670	-0.9761	7.09	1.10	-0.750			
0.3182	20363.57	3.6640	3.6639	-0.9728	7.09	1.10	-0.750			
0.3211	20548.32	3.6610	3.6610	-0.9788	7.10	1.11	-0.750			
0.3240	20736.78	3.6580	3.6582	-0.9829	7.11	1.12	-0.750			
0.3269	20924.75	3.6550	3.6549	-0.9945	7.12	1.13	-0.750			
0.3299	21116.58	3.6520	3.6520	-1.0026	7.12	1.13	-0.750			
0.3330	21309.59	3.6490	3.6490	-1.0167	7.13	1.14	-0.750			
0.3360	21505.18	3.6460	3.6459	-1.0379	7.14	1.15	-0.750			
0.3392	21707.05	3.6430	3.6430	-1.0562	7.14	1.15	-0.750			
0.3424	21912.27	3.6400	3.6399	-1.0679	7.15	1.16	-0.750			
0.3456	22120.86	3.6370	3.6369	-1.0786	7.15	1.16	-0.750			
0.3489	22328.06	3.6340	3.6342	-1.0777	7.16	1.17	-0.750			
0.3522	22540.42	3.6310	3.6309	-1.0858	7.17	1.18	-0.750			
0.3554	22746.89	3.6280	3.6279	-1.0798	7.17	1.18	-0.750			
0.3586	22949.80	3.6250	3.6251	-1.0833	7.18	1.19	-0.750			
0.3619	23159.80	3.6220	3.6221	-1.0877	7.19	1.20	-0.750			
0.3652	23371.43	3.6190	3.6189	-1.0994	7.19	1.20	-0.750			
0.3685	23582.50	3.6160	3.6161	-1.1084	7.20	1.21	-0.750			
0.3718	23795.95	3.6130	3.6130	-1.1184	7.20	1.21	-0.750			
0.3752	24010.52	3.6100	3.6101	-1.1338	7.20	1.21	-0.750			
0.3786	24229.26	3.6070	3.6071	-1.1470	7.21	1.22	-0.750			
0.3821	24451.60	3.6040	3.6039	-1.1524	7.22	1.23	-0.750			
0.3856	24676.58	3.6010	3.6010	-1.1726	7.23	1.24	-0.750			
0.3891	24902.63	3.5980	3.5981	-1.1867	7.23	1.24	-0.750			
0.3927	25130.89	3.5950	3.5949	-1.1958	7.23	1.24	-0.750			
0.3963	25362.63	3.5920	3.5920	-1.2038	7.24	1.25	-0.750	0.406	0.909	
0.3999	25593.30	3.5890	3.5892	-1.2154	7.24	1.25	-0.750			
0.4036	25828.57	3.5860	3.5860	-1.2277	7.25	1.26	-0.750			
0.4073	26068.60	3.5830	3.5829	-1.2220	7.25	1.26	-0.750			
0.4110	26302.49	3.5800	3.5799	-1.2317	7.26	1.27	-0.750			
0.4146	26537.00	3.5770	3.5771	-1.2508	7.26	1.27	-0.750			
0.4184	26775.56	3.5740	3.5740	-1.2709	7.27	1.28	-0.750			
0.4222	27020.83	3.5710	3.5708	-1.2867	7.28	1.29	-0.750			
0.4261	27271.06	3.5680	3.5680	-1.2961	7.28	1.29	-0.750			
0.4301	27526.40	3.5650	3.5651	-1.3233	7.28	1.29	-0.750			
0.4342	27786.04	3.5620	3.5620	-1.3281	7.29	1.30	-0.750			
0.4381	28040.53	3.5590	3.5589	-1.3323	7.29	1.30	-0.750			
0.4421	28296.70	3.5560	3.5562	-1.3292	7.29	1.30	-0.750			
0.4461	28549.90	3.5530	3.5529	-1.3289	7.30	1.31	-0.750			
0.4501	28806.16	3.5500	3.5502	-1.3455	7.30	1.31	-0.750			
0.4542	29065.84	3.5470	3.5468	-1.3534	7.31	1.32	-0.750			
0.4582	29322.03	3.5440	3.5440	-1.3589	7.31	1.32	-0.750			
0.4623	29587.10	3.5410	3.5412	-1.3780	7.32	1.33	-0.750			
0.4665	29855.94	3.5380	3.5379	-1.3890	7.33	1.34	-0.750			
0.4707	30123.43	3.5350	3.5349	-1.3953	7.34	1.35	-0.750			
0.4748	30389.94	3.5320	3.5322	-1.4055	7.35	1.36	-0.750			
0.4791	30663.12	3.5290	3.5288	-1.4104	7.35	1.36	-0.750			
0.4833	30934.01	3.5260	3.5260	-1.4126	7.36	1.37	-0.750			
0.4876	31204.28	3.5230	3.5233	-1.4246	7.36	1.37	-0.750			
0.4919	31479.79	3.5200	3.5199	-1.4366	7.37	1.38	-0.750			
0.4962	31757.77	3.5170	3.5169	-1.4346	7.37	1.38	-0.750			
0.5005	32030.85	3.5140	3.5142	-1.4271	7.38	1.39	-0.750			
0.5048	32307.78	3.5110	3.5109	-1.4380	7.39	1.40	-0.750			
0.5091	32583.27	3.5080	3.5080	-1.4341	7.40	1.41	-0.750			
0.5134	32855.73	3.5050	3.5050	-1.4374	7.40	1.41	-0.750			
0.5177	33134.54	3.5020	3.5019	-1.4438	7.41	1.42	-0.750			
0.5220	33410.89	3.4990	3.4990	-1.4378	7.42	1.43	-0.750			
0.5264	33692.02	3.4960	3.4961	-1.4355	7.42	1.43	-0.750			
0.5308	33968.14	3.4930	3.4929	-1.4228	7.43	1.44	-0.750			
0.5350	34237.25	3.4900	3.4900	-1.4168	7.44	1.45	-0.750			
0.5392	34506.41	3.4870	3.4870	-1.3939	7.45	1.46	-0.750			
0.5433	34773.63	3.4840	3.4840	-1.3908	7.46	1.47	-0.750			
0.5475	35038.12	3.4810	3.4810	-1.4020	7.47	1.48	-0.750			
0.5517	35309.77	3.4780	3.4779	-1.3927	7.48	1.49	-0.750			
0.5559	35580.53	3.4750	3.4748	-1.3862	7.49	1.50	-0.750			
0.5601	35844.32	3.4720	3.4721	-1.3869	7.50	1.51	-0.750			
0.5642	36107.54	3.4690	3.4691	-1.3833	7.51	1.52	-0.750			
0.5684	36378.42	3.4660	3.4658	-1.3788	7.52	1.53	-0.750			
0.5725	36639.53	3.4630	3.4629	-1.3627	7.53	1.54	-0.750			
0.5766	36901.88	3.4600	3.4601	-1.3433	7.53	1.54	-0.750			
0.5807	37161.72	3.4570	3.4571	-1.3361	7.54	1.55	-0.750			
0.5846	37414.32	3.4540	3.4540	-1.3279	7.55	1.56	-0.750			
0.5885	37663.16	3.4510	3.4510	-1.3024	7.56	1.57	-0.750			
0.5924	37913.29	3.4480	3.4479	-1.2989	7.57	1.58	-0.750			
0.5963	38163.33	3.4450	3.4450	-1.3007	7.58	1.59	-0.750			
0.6002	38413.44	3.4420	3.4421	-1.2830	7.59	1.60	-0.750			
0.6041	38662.47	3.4390	3.4389	-1.2684	7.61	1.62	-0.750			
0.6079	38902.62	3.4360	3.4361	-1.2463	7.62	1.63	-0.750			
0.6115	39138.24	3.4330	3.4329	-1.2340	7.64	1.65	-0.750			
0.6152	39375.39	3.4300	3.4299	-1.2174	7.65	1.66	-0.750			
0.6189	39606.75	3.4270	3.4269	-1.1892	7.66	1.67	-0.750			
0.6224	39831.47	3.4240	3.4240	-1.1684	7.67	1.68	-0.750			
0.6259	40055.11	3.4210	3.4210	-1.1599	7.69	1.70	-0.750			
0.6293	40275.79	3.4180	3.4180	-1.1446	7.70	1.71	-0.750			
0.6327	40494.64	3.4150	3.4149	-1.1178	7.71	1.72	-0.750			
0.6361	40707.48	3.4120	3.4120	-1.0912	7.73	1.74	-0.750			
0.6393	40917.04	3.4090	3.4090	-1.0734	7.74	1.75	-0.750			
0.6425	41121.64	3.4060	3.4060	-1.0501	7.75	1.76	-0.750			
0.6456	41317.08	3.4030	3.4029	-1.0260	7.76	1.77	-0.750			
0.6486	41508.78	3.4000	3.3998	-0.9992	7.78	1.79	-0.750			
0.6516	41699.35	3.3970	3.3971	-0.9842	7.79	1.80	-0.750			
0.6545	41891.13	3.3940	3.3940	-0.9634	7.80	1.81	-0.750			
0.6575	42076.86	3.3910	3.3910	-0.9394	7.82	1.83	-0.750			
0.6602	42253.67	3.3880	3.3880	-0.9071	7.83	1.84	-0.750			
0.6628	42422.33	3.3850	3.3851	-0.8841	7.84	1.85	-0.750			
0.6654	42588.59	3.3820	3.3819	-0.8583	7.86	1.87	-0.750			
0.6680	42752.24	3.3790	3.3789	-0.8404	7.87	1.88	-0.750			
0.6705	42910.82	3.3760	3.3760	-0.8213	7.88	1.89	-0.750			
0.6730	43068.99	3.3730	3.3730	-0.8032	7.89	1.90	-0.750			
0.6753	43221.01	3.3700	3.3700	-0.7868	7.90	1.91	-0.750			
0.6776	43369.33	3.3670	3.3669	-0.7651	7.92	1.93	-0.750			
0.6799	43513.39	3.3640	3.3640	-0.7490	7.93	1.94	-0.750			
0.6821	43655.69	3.3610	3.3608	-0.7282	7.94	1.95	-0.750			
0.6843	43796.13	3.3580	3.3580	-0.7134	7.95	1.96	-0.750			
0.6864	43930.24	3.3550	3.3550	-0.6949	7.97	1.98	-0.750			
0.6885	44061.97	3.3520	3.3519	-0.6764	7.98	1.99	-0.750			
0.6904	44187.41	3.3490	3.3489	-0.6566	7.99	2.00	-0.750			
0.6924	44312.14	3.3460	3.3460	-0.6474	8.00	2.01	-0.750			
0.6943	44433.68	3.3430	3.3430	-0.6350	8.02	2.03	-0.750			
0.6962	44558.74	3.3400	3.3399	-0.6241	8.03	2.04	-0.750			
0.6981	44676.86	3.3370	3.3370	-0.6073	8.04	2.05	-0.750			
0.6999	44791.82	3.3340	3.3341	-0.5897	8.05	2.06	-0.750			
0.7016	44904.09	3.3310	3.3310	-0.5752	8.06	2.07	-0.750			
0.7033	45010.71	3.3280	3.3280	-0.5574	8.08	2.09	-0.750			
0.7049	45116.34	3.3250	3.3249	-0.5433	8.09	2.10	-0.750			
0.7065	45218.90	3.3220	3.3220	-0.5316	8.10	2.11	-0.750			
0.7081	45320.63	3.3190	3.3190	-0.5211	8.11	2.12	-0.750			
0.7097	45418.81	3.3160	3.3160	-0.5105	8.12	2.13	-0.750			
0.7112	45516.25	3.3130	3.3129	-0.5001	8.13	2.14	-0.750			
0.7127	45610.75	3.3100	3.3100	-0.4877	8.14	2.15	-0.750			
0.7141	45703.68	3.3070	3.3069	-0.4781	8.15	2.16	-0.750			
0.7156	45795.39	3.3040	3.3040	-0.4671	8.17	2.18	-0.750			
0.7169	45882.84	3.3010	3.3010	-0.4553	8.18	2.19	-0.750			
0.7183	45969.28	3.2980	3.2981	-0.4460	8.18	2.19	-0.750			
0.7196	46052.92	3.2950	3.2950	-0.4358	8.19	2.20	-0.750			
0.7209	46136.77	3.2920	3.2919	-0.4272	8.20	2.21	-0.750			
0.7222	46217.67	3.2890	3.2890	-0.4193	8.21	2.22	-0.750			
0.7234	46297.24	3.2860	3.2860	-0.4100	8.22	2.23	-0.750			
0.7246	46375.64	3.2830	3.2832	-0.4042	8.23	2.24	-0.750			
0.7258	46451.98	3.2800	3.2800	-0.3948	8.24	2.25	-0.750			
0.7270	46526.88	3.2770	3.2770	-0.3871	8.26	2.27	-0.750			
0.7281	46600.43	3.2740	3.2740	-0.3804	8.27	2.28	-0.750			
0.7293	46673.66	3.2710	3.2710	-0.3744	8.28	2.29	-0.750			
0.7304	46744.20	3.2680	3.2680	-0.3650	8.29	2.30	-0.750			
0.7315	46813.59	3.2650	3.2650	-0.3586	8.30	2.31	-0.750			
0.7325	46880.77	3.2620	3.2621	-0.3530	8.31	2.32	-0.750			
0.7336	46948.21	3.2590	3.2589	-0.3476	8.32	2.33	-0.750			
0.7346	47014.63	3.2560	3.2560	-0.3409	8.33	2.34	-0.750			
0.7356	47079.32	3.2530	3.2529	-0.3366	8.34	2.35	-0.750			
0.7366	47143.64	3.2500	3.2501	-0.3326	8.35	2.36	-0.750			
0.7376	47206.92	3.2470	3.2470	-0.3291	8.36	2.37	-0.750			
0.7386	47270.06	3.2440	3.2439	-0.3219	8.37	2.38	-0.750			
0.7395	47331.08	3.2410	3.2410	-0.3177	8.38	2.39	-0.750			
0.7405	47391.33	3.2380	3.2381	-0.3111	8.39	2.40	-0.750			
0.7414	47451.49	3.2350	3.2349	-0.3074	8.40	2.41	-0.750			
0.7423	47509.22	3.2320	3.2320	-0.2998	8.41	2.42	-0.750			
0.7432	47566.30	3.2290	3.2289	-0.2953	8.42	2.43	-0.750			
0.7441	47621.90	3.2260	3.2261	-0.2920	8.43	2.44	-0.750			
0.7450	47678.61	3.2230	3.2228	-0.2873	8.44	2.45	-0.750			
0.7458	47732.84	3.2200	3.2200	-0.2818	8.44	2.45	-0.750			
0.7467	47787.04	3.2170	3.2171	-0.2784	8.45	2.46	-0.750			
0.7475	47839.65	3.2140	3.2142	-0.2741	8.46	2.47	-0.750			
0.7483	47891.81	3.2110	3.2108	-0.2708	8.47	2.48	-0.750			
0.7491	47942.72	3.2080	3.2080	-0.2659	8.48	2.49	-0.750			
0.7499	47993.33	3.2050	3.2050	-0.2611	8.48	2.49	-0.750			
0.7507	48043.31	3.2020	3.2021	-0.2586	8.49	2.50	-0.750			
0.7515	48093.14	3.1990	3.1991	-0.2550	8.50	2.51	-0.750			
0.7522	48141.35	3.1960	3.1960	-0.2525	8.51	2.52	-0.750			
0.7530	48189.71	3.1930	3.1930	-0.2499	8.52	2.53	-0.750			
0.7537	48237.04	3.1900	3.1900	-0.2467	8.53	2.54	-0.750			
0.7544	48284.31	3.1870	3.1869	-0.2444	8.54	2.55	-0.750			
0.7552	48331.34	3.1840	3.1841	-0.2435	8.55	2.56	-0.750			
0.7559	48377.93	3.1810	3.1810	-0.2395	8.55	2.56	-0.750			
0.7566	48423.62	3.1780	3.1779	-0.2364	8.56	2.57	-0.750			
0.7573	48469.04	3.1750	3.1750	-0.2333	8.57	2.58	-0.750			
0.7580	48513.11	3.1720	3.1721	-0.2297	8.58	2.59	-0.750			
0.7587	48557.31	3.1690	3.1690	-0.2269	8.59	2.60	-0.750			
0.7594	48600.51	3.1660	3.1658	-0.2231	8.60	2.61	-0.750			
0.7600	48642.80	3.1630	3.1630	-0.2197	8.60	2.61	-0.750			
0.7607	48684.13	3.1600	3.1600	-0.2171	8.61	2.62	-0.750			
0.7613	48725.77	3.1570	3.1571	-0.2157	8.62	2.63	-0.750			
0.7620	48766.96	3.1540	3.1539	-0.2138	8.63	2.64	-0.750			
0.7626	48807.60	3.1510	3.1510	-0.2116	8.64	2.65	-0.750			
0.7632	48847.95	3.1480	3.1480	-0.2098	8.65	2.66	-0.750			
0.7639	48888.01	3.1450	3.1450	-0.2099	8.65	2.66	-0.750			
0.7645	48928.45	3.1420	3.1419	-0.2081	8.66	2.67	-0.750			
0.7651	48968.27	3.1390	3.1390	-0.2068	8.67	2.68	-0.750			
0.7658	49008.09	3.1360	3.1359	-0.2035	8.68	2.69	-0.750			
0.7664	49047.16	3.1330	3.1331	-0.2018	8.69	2.70	-0.750			
0.7670	49085.85	3.1300	3.1300	-0.1994	8.70	2.71	-0.750			
0.7676	49123.80	3.1270	3.1270	-0.1960	8.70	2.71	-0.750			
0.7681	49161.08	3.1240	3.1239	-0.1929	8.71	2.72	-0.750			
0.7687	49196.98	3.1210	3.1210	-0.1903	8.72	2.73	-0.750			
0.7693	49233.36	3.1180	3.1182	-0.1897	8.73	2.74	-0.750			
0.7698	49269.69	3.1150	3.1149	-0.1889	8.74	2.75	-0.750			
0.7704	49306.02	3.1120	3.1119	-0.1872	8.74	2.75	-0.750			
0.7710	49341.68	3.1090	3.1090	-0.1852	8.75	2.76	-0.750			
0.7715	49377.05	3.1060	3.1061	-0.1850	8.76	2.77	-0.750			
0.7721	49412.48	3.1030	3.1030	-0.1841	8.77	2.78	-0.750			
0.7726	49447.85	3.1000	3.0999	-0.1828	8.77	2.78	-0.750			
0.7732	49482.80	3.0970	3.0970	-0.1804	8.78	2.79	-0.750			
0.7737	49517.65	3.0940	3.0940	-0.1783	8.79	2.80	-0.750			
0.7742	49551.64	3.0910	3.0910	-0.1758	8.80	2.81	-0.750			
0.7748	49585.56	3.0880	3.0880	-0.1741	8.80	2.81	-0.750			
0.7753	49618.51	3.0850	3.0850	-0.1719	8.81	2.82	-0.750			
0.7758	49650.40	3.0820	3.0819	-0.1690	8.82	2.83	-0.750			
0.7763	49682.82	3.0790	3.0790	-0.1687	8.83	2.84	-0.750			
0.7768	49714.97	3.0760	3.0760	-0.1683	8.83	2.84	-0.750			
0.7773	49747.28	3.0730	3.0730	-0.1682	8.84	2.85	-0.750			
0.7778	49780.17	3.0700	3.0699	-0.1678	8.85	2.86	-0.750			
0.7783	49812.26	3.0670	3.0671	-0.1665	8.86	2.87	-0.750			
0.7788	49844.39	3.0640	3.0640	-0.1647	8.87	2.88	-0.750			
0.7793	49875.68	3.0610	3.0611	-0.1640	8.87	2.88	-0.750			
0.7798	49906.77	3.0580	3.0581	-0.1620	8.88	2.89	-0.750			
0.7803	49937.80	3.0550	3.0549	-0.1608	8.89	2.90	-0.750			
0.7808	49968.39	3.0520	3.0519	-0.1596	8.90	2.91	-0.750			
0.7812	49998.84	3.0490	3.0491	-0.1584	8.90	2.91	-0.750			
0.7817	50029.55	3.0460	3.0461	-0.1584	8.91	2.92	-0.750			
0.7822	50059.84	3.0430	3.0430	-0.1569	8.92	2.93	-0.750			
0.7827	50090.03	3.0400	3.0399	-0.1554	8.92	2.93	-0.750			
0.7831	50119.10	3.0370	3.0370	-0.1540	8.93	2.94	-0.750			
0.7836	50148.62	3.0340	3.0341	-0.1535	8.94	2.95	-0.750			
0.7840	50178.16	3.0310	3.0310	-0.1524	8.94	2.95	-0.750			
0.7845	50207.24	3.0280	3.0279	-0.1515	8.95	2.96	-0.750			
0.7849	50236.41	3.0250	3.0251	-0.1505	8.95	2.96	-0.750			
0.7854	50265.20	3.0220	3.0221	-0.1494	8.96	2.97	-0.750			
0.7858	50294.03	3.0190	3.0189	-0.1479	8.96	2.97	-0.750			
0.7863	50322.29	3.0160	3.0160	-0.1472	8.97	2.98	-0.750			
0.7867	50349.85	3.0130	3.0130	-0.1455	8.98	2.99	-0.750			
0.7872	50377.78	3.0100	3.0100	-0.1454	8.98	2.99	-0.750			
0.7876	50405.69	3.0070	3.0069	-0.1453	8.99	3.00	-0.750			
0.7880	50433.30	3.0040	3.0040	-0.1469	8.99	3.00	-0.750			
0.7885	50461.70	3.0010	3.0010	-0.1495	9.00	3.01	-0.750			
