Ah_balance (normalized)	Ah_balance (mAh)	Voltage - fit (V)	Voltage -  interpolate (V)	dQ/dV (1/V)	Temperature (°C)	Temperature - diff (°C)	Current (C)	R_DC 0ms (mOhm)	R_DC 50ms (mOhm)	R_DC 50 ms PEC (mOhm)
0.0002	10.55	4.1070	4.1052	-0.0359	5.99	0.00	-0.750			
0.0003	19.98	4.1040	4.1029	-0.0622	5.99	0.00	-0.750			
0.0005	33.60	4.1010	4.1007	-0.0895	5.99	0.00	-0.750			
0.0009	54.67	4.0980	4.0979	-0.1156	5.99	0.00	-0.750			
0.0012	79.84	4.0950	4.0950	-0.1401	5.99	0.00	-0.750			
0.0017	109.14	4.0920	4.0919	-0.1651	5.99	0.00	-0.750			
0.0022	143.20	4.0890	4.0892	-0.1873	5.99	-0.00	-0.750			
0.0029	182.71	4.0860	4.0859	-0.2112	5.99	-0.00	-0.750			
0.0035	225.81	4.0830	4.0830	-0.2327	5.99	-0.00	-0.750			
0.0043	272.04	4.0800	4.0800	-0.2541	5.99	-0.00	-0.750			
0.0050	322.57	4.0770	4.0770	-0.2748	5.99	-0.00	-0.750			
0.0059	377.36	4.0740	4.0741	-0.2977	5.98	-0.01	-0.750			
0.0068	436.56	4.0710	4.0709	-0.3198	5.98	-0.01	-0.750			
0.0078	500.92	4.0680	4.0681	-0.3403	5.98	-0.01	-0.750			
0.0089	568.32	4.0650	4.0650	-0.3595	5.98	-0.01	-0.750			
0.0100	639.02	4.0620	4.0621	-0.3835	5.98	-0.01	-0.750			
0.0112	714.74	4.0590	4.0590	-0.4026	5.98	-0.01	-0.750			
0.0124	793.87	4.0560	4.0559	-0.4221	5.97	-0.02	-0.750			
0.0137	876.13	4.0530	4.0530	-0.4441	5.97	-0.02	-0.750			
0.0150	963.05	4.0500	4.0501	-0.4682	5.97	-0.02	-0.750			
0.0165	1055.77	4.0470	4.0470	-0.4927	5.97	-0.02	-0.750			
0.0180	1152.70	4.0440	4.0440	-0.5142	5.97	-0.02	-0.750			
0.0196	1254.62	4.0410	4.0410	-0.5300	5.97	-0.02	-0.750			
0.0212	1359.73	4.0380	4.0381	-0.5498	5.97	-0.02	-0.750			
0.0229	1468.44	4.0350	4.0350	-0.5617	5.97	-0.02	-0.750			
0.0246	1576.66	4.0320	4.0320	-0.5708	5.97	-0.02	-0.750			
0.0263	1686.14	4.0290	4.0290	-0.5804	5.97	-0.02	-0.750			
0.0281	1797.95	4.0260	4.0261	-0.5948	5.97	-0.02	-0.750			
0.0299	1913.24	4.0230	4.0230	-0.6072	5.97	-0.02	-0.750			
0.0317	2031.17	4.0200	4.0199	-0.6235	5.98	-0.01	-0.750			
0.0336	2151.55	4.0170	4.0171	-0.6412	5.98	-0.01	-0.750			
0.0356	2278.76	4.0140	4.0139	-0.6516	5.98	-0.01	-0.750			
0.0376	2406.75	4.0110	4.0109	-0.6606	5.99	-0.00	-0.750			
0.0396	2535.51	4.0080	4.0081	-0.6643	5.99	0.00	-0.750			
0.0416	2662.88	4.0050	4.0050	-0.6681	5.99	0.00	-0.750			
0.0436	2790.63	4.0020	4.0020	-0.6752	6.00	0.01	-0.750			
0.0456	2918.80	3.9990	3.9990	-0.6769	6.00	0.01	-0.750			
0.0477	3049.74	3.9960	3.9959	-0.6831	6.00	0.01	-0.750			
0.0497	3182.78	3.9930	3.9930	-0.6927	6.01	0.02	-0.750			
0.0518	3316.46	3.9900	3.9901	-0.6993	6.01	0.02	-0.750			
0.0539	3451.70	3.9870	3.9870	-0.7022	6.01	0.02	-0.750			
0.0560	3585.34	3.9840	3.9840	-0.7089	6.02	0.03	-0.750			
0.0582	3722.78	3.9810	3.9810	-0.7142	6.02	0.03	-0.750			
0.0603	3861.00	3.9780	3.9779	-0.7178	6.03	0.04	-0.750			
0.0625	3999.29	3.9750	3.9750	-0.7205	6.04	0.05	-0.750			
0.0647	4138.15	3.9720	3.9721	-0.7211	6.04	0.05	-0.750			
0.0668	4275.59	3.9690	3.9689	-0.7264	6.05	0.06	-0.750			
0.0690	4414.37	3.9660	3.9661	-0.7374	6.05	0.06	-0.750			
0.0712	4555.32	3.9630	3.9629	-0.7367	6.06	0.07	-0.750			
0.0735	4701.26	3.9600	3.9599	-0.7436	6.06	0.07	-0.750			
0.0757	4843.49	3.9570	3.9571	-0.7502	6.07	0.08	-0.750			
0.0779	4988.74	3.9540	3.9540	-0.7504	6.07	0.08	-0.750			
0.0802	5133.52	3.9510	3.9509	-0.7454	6.08	0.09	-0.750			
0.0824	5274.48	3.9480	3.9480	-0.7411	6.09	0.10	-0.750			
0.0846	5417.10	3.9450	3.9452	-0.7385	6.09	0.10	-0.750			
0.0869	5559.56	3.9420	3.9418	-0.7455	6.10	0.11	-0.750			
0.0891	5702.09	3.9390	3.9391	-0.7456	6.11	0.12	-0.750			
0.0913	5843.45	3.9360	3.9358	-0.7431	6.11	0.12	-0.750			
0.0936	5988.24	3.9330	3.9329	-0.7464	6.12	0.13	-0.750			
0.0958	6131.91	3.9300	3.9301	-0.7486	6.12	0.13	-0.750			
0.0980	6273.22	3.9270	3.9270	-0.7492	6.13	0.14	-0.750			
0.1003	6420.39	3.9240	3.9239	-0.7561	6.14	0.15	-0.750			
0.1026	6563.84	3.9210	3.9211	-0.7624	6.14	0.15	-0.750			
0.1048	6710.09	3.9180	3.9180	-0.7694	6.15	0.16	-0.750			
0.1072	6859.73	3.9150	3.9150	-0.7739	6.16	0.17	-0.750			
0.1095	7010.34	3.9120	3.9119	-0.7751	6.16	0.17	-0.750			
0.1119	7161.46	3.9090	3.9091	-0.7775	6.17	0.18	-0.750			
0.1142	7309.43	3.9060	3.9060	-0.7735	6.18	0.19	-0.750			
0.1165	7456.46	3.9030	3.9030	-0.7770	6.19	0.20	-0.750			
0.1188	7604.69	3.9000	3.9001	-0.7788	6.19	0.20	-0.750			
0.1212	7754.95	3.8970	3.8969	-0.7784	6.20	0.21	-0.750			
0.1235	7904.84	3.8940	3.8940	-0.7813	6.21	0.22	-0.750			
0.1259	8055.87	3.8910	3.8911	-0.7869	6.22	0.23	-0.750			
0.1282	8206.46	3.8880	3.8881	-0.7871	6.22	0.23	-0.750			
0.1306	8356.36	3.8850	3.8849	-0.7893	6.23	0.24	-0.750			
0.1329	8508.74	3.8820	3.8820	-0.7891	6.24	0.25	-0.750			
0.1353	8660.93	3.8790	3.8791	-0.7920	6.25	0.26	-0.750			
0.1377	8813.81	3.8760	3.8758	-0.7945	6.25	0.26	-0.750			
0.1401	8966.69	3.8730	3.8732	-0.7983	6.26	0.27	-0.750			
0.1425	9120.13	3.8700	3.8699	-0.8002	6.27	0.28	-0.750			
0.1449	9274.30	3.8670	3.8669	-0.8040	6.28	0.29	-0.750			
0.1473	9428.08	3.8640	3.8641	-0.8003	6.28	0.29	-0.750			
0.1498	9585.27	3.8610	3.8610	-0.8067	6.29	0.30	-0.750			
0.1522	9739.45	3.8580	3.8581	-0.8075	6.30	0.31	-0.750			
0.1546	9894.28	3.8550	3.8550	-0.8044	6.31	0.32	-0.750			
0.1570	10048.81	3.8520	3.8519	-0.8025	6.32	0.33	-0.750			
0.1594	10204.27	3.8490	3.8489	-0.7965	6.33	0.34	-0.750			
0.1618	10356.56	3.8460	3.8461	-0.7942	6.34	0.35	-0.750			
0.1642	10506.78	3.8430	3.8432	-0.7952	6.35	0.36	-0.750			
0.1665	10659.04	3.8400	3.8399	-0.7956	6.36	0.37	-0.750			
0.1689	10810.93	3.8370	3.8369	-0.7953	6.36	0.37	-0.750			
0.1713	10961.48	3.8340	3.8341	-0.8072	6.37	0.38	-0.750			
0.1737	11117.79	3.8310	3.8310	-0.8174	6.38	0.39	-0.750			
0.1762	11278.56	3.8280	3.8279	-0.8309	6.39	0.40	-0.750			
0.1787	11438.98	3.8250	3.8250	-0.8337	6.40	0.41	-0.750			
0.1812	11599.48	3.8220	3.8221	-0.8367	6.40	0.41	-0.750			
0.1838	11763.53	3.8190	3.8189	-0.8393	6.41	0.42	-0.750			
0.1863	11925.77	3.8160	3.8160	-0.8328	6.42	0.43	-0.750			
0.1888	12083.30	3.8130	3.8129	-0.8247	6.43	0.44	-0.750			
0.1913	12241.14	3.8100	3.8100	-0.8250	6.44	0.45	-0.750			
0.1937	12397.70	3.8070	3.8069	-0.8267	6.45	0.46	-0.750			
0.1962	12556.49	3.8040	3.8040	-0.8252	6.46	0.47	-0.750			
0.1987	12713.79	3.8010	3.8010	-0.8213	6.47	0.48	-0.750			
0.2012	12874.02	3.7980	3.7981	-0.8340	6.48	0.49	-0.750			
0.2037	13035.37	3.7950	3.7949	-0.8332	6.48	0.49	-0.750			
0.2061	13193.53	3.7920	3.7918	-0.8307	6.49	0.50	-0.750			
0.2086	13352.73	3.7890	3.7890	-0.8310	6.50	0.51	-0.750			
0.2111	13510.59	3.7860	3.7861	-0.8334	6.50	0.51	-0.750			
0.2137	13673.78	3.7830	3.7829	-0.8439	6.51	0.52	-0.750			
0.2162	13835.82	3.7800	3.7799	-0.8425	6.52	0.53	-0.750			
0.2187	13995.16	3.7770	3.7770	-0.8408	6.53	0.54	-0.750			
0.2212	14158.36	3.7740	3.7740	-0.8493	6.54	0.55	-0.750			
0.2238	14321.13	3.7710	3.7711	-0.8530	6.55	0.56	-0.750			
0.2263	14486.02	3.7680	3.7677	-0.8568	6.56	0.57	-0.750			
0.2289	14651.78	3.7650	3.7651	-0.8521	6.57	0.58	-0.750			
0.2315	14816.83	3.7620	3.7620	-0.8559	6.57	0.58	-0.750			
0.2341	14984.24	3.7590	3.7590	-0.8533	6.58	0.59	-0.750			
0.2366	15145.50	3.7560	3.7559	-0.8411	6.59	0.60	-0.750			
0.2392	15305.77	3.7530	3.7531	-0.8417	6.60	0.61	-0.750			
0.2416	15465.30	3.7500	3.7499	-0.8467	6.61	0.62	-0.750			
0.2442	15627.41	3.7470	3.7469	-0.8613	6.61	0.62	-0.750			
0.2468	15796.61	3.7440	3.7439	-0.8636	6.62	0.63	-0.750			
0.2495	15966.33	3.7410	3.7408	-0.8748	6.63	0.64	-0.750			
0.2521	16133.67	3.7380	3.7386	-0.8736	6.64	0.65	-0.750			
0.2547	16301.80	3.7350	3.7348	-0.8692	6.65	0.66	-0.750			
0.2573	16466.01	3.7320	3.7319	-0.8627	6.66	0.67	-0.750			
0.2598	16629.35	3.7290	3.7290	-0.8671	6.66	0.67	-0.750			
0.2624	16796.70	3.7260	3.7261	-0.8730	6.67	0.68	-0.750			
0.2650	16963.08	3.7230	3.7229	-0.8816	6.68	0.69	-0.750			
0.2677	17130.47	3.7200	3.7201	-0.8931	6.68	0.69	-0.750			
0.2704	17304.38	3.7170	3.7170	-0.8979	6.69	0.70	-0.750			
0.2731	17479.61	3.7140	3.7139	-0.9052	6.69	0.70	-0.750			
0.2758	17653.54	3.7110	3.7111	-0.9078	6.70	0.71	-0.750			
0.2786	17828.84	3.7080	3.7079	-0.9095	6.70	0.71	-0.750			
0.2813	18004.49	3.7050	3.7050	-0.9202	6.71	0.72	-0.750			
0.2841	18180.56	3.7020	3.7020	-0.9174	6.72	0.73	-0.750			
0.2868	18356.02	3.6990	3.6990	-0.9172	6.73	0.74	-0.750			
0.2896	18533.50	3.6960	3.6961	-0.9321	6.74	0.75	-0.750			
0.2924	18711.98	3.6930	3.6931	-0.9397	6.75	0.76	-0.750			
0.2952	18893.42	3.6900	3.6898	-0.9392	6.75	0.76	-0.750			
0.2980	19074.92	3.6870	3.6870	-0.9424	6.76	0.77	-0.750			
0.3009	19255.78	3.6840	3.6841	-0.9416	6.77	0.78	-0.750			
0.3037	19437.97	3.6810	3.6808	-0.9450	6.78	0.79	-0.750			
0.3066	19619.58	3.6780	3.6780	-0.9449	6.78	0.79	-0.750			
0.3093	19797.46	3.6750	3.6750	-0.9465	6.79	0.80	-0.750			
0.3122	19979.27	3.6720	3.6720	-0.9568	6.80	0.81	-0.750			
0.3151	20164.19	3.6690	3.6690	-0.9715	6.81	0.82	-0.750			
0.3180	20350.01	3.6660	3.6660	-0.9817	6.82	0.83	-0.750			
0.3210	20541.29	3.6630	3.6630	-0.9912	6.82	0.83	-0.750			
0.3240	20734.33	3.6600	3.6599	-0.9981	6.83	0.84	-0.750			
0.3270	20927.90	3.6570	3.6573	-1.0075	6.83	0.84	-0.750			
0.3300	21121.16	3.6540	3.6540	-1.0158	6.83	0.84	-0.750			
0.3331	21315.84	3.6510	3.6509	-1.0241	6.84	0.85	-0.750			
0.3361	21512.44	3.6480	3.6480	-1.0380	6.84	0.85	-0.750			
0.3392	21711.94	3.6450	3.6450	-1.0471	6.85	0.86	-0.750			
0.3424	21914.92	3.6420	3.6420	-1.0669	6.86	0.87	-0.750			
0.3457	22124.66	3.6390	3.6390	-1.0777	6.86	0.87	-0.750			
0.3490	22333.27	3.6360	3.6359	-1.0748	6.87	0.88	-0.750			
0.3522	22538.04	3.6330	3.6332	-1.0829	6.88	0.89	-0.750			
0.3554	22747.74	3.6300	3.6301	-1.0859	6.89	0.90	-0.750			
0.3587	22955.19	3.6270	3.6269	-1.0904	6.89	0.90	-0.750			
0.3619	23163.65	3.6240	3.6238	-1.0974	6.90	0.91	-0.750			
0.3652	23373.10	3.6210	3.6213	-1.1111	6.90	0.91	-0.750			
0.3686	23590.20	3.6180	3.6179	-1.1177	6.91	0.92	-0.750			
0.3720	23809.19	3.6150	3.6150	-1.1287	6.91	0.92	-0.750			
0.3753	24020.55	3.6120	3.6120	-1.1282	6.92	0.93	-0.750			
0.3788	24242.94	3.6090	3.6090	-1.1522	6.92	0.93	-0.750			
0.3823	24465.16	3.6060	3.6059	-1.1632	6.93	0.94	-0.750			
0.3858	24688.26	3.6030	3.6029	-1.1749	6.93	0.94	-0.750			
0.3893	24915.89	3.6000	3.6002	-1.1806	6.94	0.95	-0.750			
0.3929	25144.45	3.5970	3.5968	-1.2002	6.95	0.96	-0.750	0.425	0.942	
0.3965	25374.79	3.5940	3.5939	-1.2100	6.95	0.96	-0.750			
0.4001	25606.92	3.5910	3.5909	-1.2169	6.96	0.97	-0.750			
0.4038	25841.92	3.5880	3.5880	-1.2333	6.96	0.97	-0.750			
0.4075	26080.80	3.5850	3.5851	-1.2274	6.97	0.98	-0.750			
0.4112	26316.46	3.5820	3.5819	-1.2488	6.97	0.98	-0.750			
0.4150	26557.44	3.5790	3.5793	-1.2620	6.98	0.99	-0.750			
0.4188	26802.11	3.5760	3.5758	-1.2569	6.98	0.99	-0.750			
0.4225	27042.75	3.5730	3.5729	-1.2731	6.99	1.00	-0.750			
0.4264	27290.29	3.5700	3.5701	-1.2806	6.99	1.00	-0.750			
0.4303	27536.59	3.5670	3.5669	-1.2908	7.00	1.01	-0.750			
0.4341	27782.05	3.5640	3.5640	-1.3264	7.00	1.01	-0.750			
0.4380	28033.53	3.5610	3.5610	-1.3342	7.01	1.02	-0.750			
0.4422	28298.40	3.5580	3.5580	-1.3632	7.01	1.02	-0.750			
0.4464	28571.05	3.5550	3.5550	-1.3805	7.02	1.03	-0.750			
0.4505	28833.94	3.5520	3.5521	-1.3783	7.03	1.04	-0.750			
0.4547	29099.09	3.5490	3.5490	-1.4027	7.03	1.04	-0.750			
0.4589	29367.27	3.5460	3.5458	-1.4026	7.04	1.05	-0.750			
0.4630	29633.74	3.5430	3.5429	-1.3861	7.05	1.06	-0.750			
0.4673	29905.02	3.5400	3.5401	-1.3984	7.05	1.06	-0.750			
0.4715	30177.43	3.5370	3.5372	-1.4130	7.06	1.07	-0.750			
0.4758	30448.24	3.5340	3.5339	-1.4157	7.06	1.07	-0.750			
0.4799	30715.24	3.5310	3.5309	-1.4089	7.06	1.07	-0.750			
0.4842	30986.82	3.5280	3.5279	-1.4033	7.07	1.08	-0.750			
0.4884	31260.00	3.5250	3.5250	-1.4209	7.08	1.09	-0.750			
0.4927	31534.47	3.5220	3.5219	-1.4214	7.09	1.10	-0.750			
0.4970	31806.32	3.5190	3.5189	-1.4237	7.09	1.10	-0.750			
0.5012	32077.81	3.5160	3.5161	-1.4297	7.10	1.11	-0.750			
0.5055	32351.06	3.5130	3.5129	-1.4353	7.11	1.12	-0.750			
0.5099	32631.31	3.5100	3.5100	-1.4504	7.12	1.13	-0.750			
0.5143	32912.07	3.5070	3.5071	-1.4685	7.13	1.14	-0.750			
0.5187	33194.89	3.5040	3.5039	-1.4590	7.14	1.15	-0.750			
0.5232	33482.34	3.5010	3.5011	-1.4592	7.14	1.15	-0.750			
0.5275	33759.87	3.4980	3.4983	-1.4498	7.15	1.16	-0.750			
0.5318	34034.58	3.4950	3.4949	-1.4470	7.16	1.17	-0.750			
0.5361	34311.22	3.4920	3.4920	-1.4425	7.16	1.17	-0.750			
0.5405	34589.16	3.4890	3.4889	-1.4373	7.17	1.18	-0.750			
0.5448	34868.15	3.4860	3.4860	-1.4349	7.19	1.20	-0.750			
0.5491	35143.41	3.4830	3.4831	-1.4341	7.20	1.21	-0.750			
0.5534	35419.64	3.4800	3.4800	-1.4220	7.21	1.22	-0.750			
0.5576	35686.41	3.4770	3.4769	-1.4032	7.22	1.23	-0.750			
0.5618	35953.80	3.4740	3.4739	-1.4073	7.23	1.24	-0.750			
0.5660	36220.95	3.4710	3.4710	-1.4076	7.24	1.25	-0.750			
0.5703	36497.73	3.4680	3.4679	-1.4111	7.25	1.26	-0.750			
0.5745	36770.74	3.4650	3.4650	-1.4041	7.26	1.27	-0.750			
0.5787	37038.37	3.4620	3.4621	-1.3895	7.27	1.28	-0.750			
0.5829	37308.37	3.4590	3.4591	-1.3845	7.28	1.29	-0.750			
0.5870	37568.09	3.4560	3.4559	-1.3659	7.29	1.30	-0.750			
0.5911	37830.30	3.4530	3.4530	-1.3419	7.30	1.31	-0.750			
0.5951	38087.21	3.4500	3.4500	-1.3218	7.32	1.33	-0.750			
0.5991	38342.80	3.4470	3.4469	-1.3110	7.33	1.34	-0.750			
0.6030	38589.63	3.4440	3.4441	-1.2900	7.34	1.35	-0.750			
0.6068	38833.92	3.4410	3.4409	-1.2763	7.36	1.37	-0.750			
0.6106	39077.00	3.4380	3.4379	-1.2625	7.37	1.38	-0.750			
0.6143	39316.85	3.4350	3.4350	-1.2470	7.39	1.40	-0.750			
0.6182	39562.85	3.4320	3.4319	-1.2332	7.40	1.41	-0.750			
0.6218	39796.49	3.4290	3.4290	-1.2108	7.41	1.42	-0.750			
0.6254	40025.79	3.4260	3.4259	-1.1848	7.42	1.43	-0.750			
0.6289	40252.49	3.4230	3.4228	-1.1681	7.44	1.45	-0.750			
0.6324	40473.50	3.4200	3.4200	-1.1358	7.45	1.46	-0.750			
0.6358	40689.82	3.4170	3.4169	-1.1120	7.46	1.47	-0.750			
0.6391	40899.34	3.4140	3.4142	-1.0843	7.48	1.49	-0.750			
0.6423	41108.72	3.4110	3.4109	-1.0810	7.49	1.50	-0.750			
0.6455	41310.04	3.4080	3.4080	-1.0579	7.50	1.51	-0.750			
0.6486	41512.83	3.4050	3.4049	-1.0386	7.52	1.53	-0.750			
0.6517	41710.33	3.4020	3.4022	-1.0160	7.53	1.54	-0.750			
0.6548	41907.54	3.3990	3.3990	-1.0008	7.54	1.55	-0.750			
0.6578	42097.12	3.3960	3.3959	-0.9687	7.56	1.57	-0.750			
0.6606	42279.88	3.3930	3.3930	-0.9387	7.57	1.58	-0.750			
0.6634	42456.53	3.3900	3.3899	-0.9040	7.58	1.59	-0.750			
0.6661	42629.21	3.3870	3.3870	-0.8802	7.60	1.61	-0.750			
0.6687	42794.93	3.3840	3.3840	-0.8613	7.61	1.62	-0.750			
0.6712	42956.58	3.3810	3.3809	-0.8384	7.62	1.63	-0.750			
0.6736	43112.68	3.3780	3.3779	-0.8174	7.63	1.64	-0.750			
0.6761	43270.25	3.3750	3.3750	-0.8049	7.65	1.66	-0.750			
0.6785	43423.59	3.3720	3.3721	-0.7863	7.66	1.67	-0.750			
0.6808	43574.32	3.3690	3.3689	-0.7691	7.67	1.68	-0.750			
0.6831	43719.86	3.3660	3.3660	-0.7516	7.68	1.69	-0.750			
0.6853	43862.01	3.3630	3.3630	-0.7301	7.70	1.71	-0.750			
0.6875	44001.45	3.3600	3.3600	-0.7135	7.71	1.72	-0.750			
0.6896	44137.12	3.3570	3.3573	-0.6889	7.72	1.73	-0.750			
0.6917	44267.27	3.3540	3.3540	-0.6688	7.73	1.74	-0.750			
0.6936	44392.89	3.3510	3.3510	-0.6511	7.75	1.76	-0.750			
0.6955	44514.77	3.3480	3.3479	-0.6322	7.76	1.77	-0.750			
0.6974	44635.04	3.3450	3.3449	-0.6160	7.77	1.78	-0.750			
0.6992	44750.75	3.3420	3.3421	-0.5998	7.78	1.79	-0.750			
0.7010	44864.76	3.3390	3.3390	-0.5863	7.79	1.80	-0.750			
0.7028	44976.36	3.3360	3.3360	-0.5751	7.81	1.82	-0.750			
0.7044	45083.95	3.3330	3.3329	-0.5577	7.82	1.83	-0.750			
0.7061	45189.84	3.3300	3.3301	-0.5449	7.83	1.84	-0.750			
0.7077	45294.43	3.3270	3.3269	-0.5320	7.84	1.85	-0.750			
0.7093	45394.93	3.3240	3.3240	-0.5203	7.85	1.86	-0.750			
0.7108	45492.30	3.3210	3.3211	-0.5067	7.86	1.87	-0.750			
0.7123	45588.62	3.3180	3.3180	-0.4955	7.87	1.88	-0.750			
0.7138	45682.27	3.3150	3.3149	-0.4845	7.88	1.89	-0.750			
0.7152	45774.87	3.3120	3.3120	-0.4773	7.89	1.90	-0.750			
0.7167	45866.18	3.3090	3.3090	-0.4659	7.91	1.92	-0.750			
0.7180	45955.02	3.3060	3.3059	-0.4535	7.92	1.93	-0.750			
0.7194	46040.08	3.3030	3.3031	-0.4397	7.92	1.93	-0.750			
0.7207	46123.54	3.3000	3.3001	-0.4304	7.93	1.94	-0.750			
0.7219	46204.58	3.2970	3.2969	-0.4212	7.94	1.95	-0.750			
0.7232	46283.79	3.2940	3.2938	-0.4123	7.95	1.96	-0.750			
0.7244	46361.57	3.2910	3.2911	-0.4039	7.96	1.97	-0.750			
0.7256	46439.12	3.2880	3.2881	-0.3992	7.97	1.98	-0.750			
0.7268	46515.65	3.2850	3.2849	-0.3944	7.98	1.99	-0.750			
0.7280	46590.82	3.2820	3.2820	-0.3881	7.99	2.00	-0.750			
0.7291	46664.45	3.2790	3.2790	-0.3792	8.00	2.01	-0.750			
0.7303	46736.36	3.2760	3.2760	-0.3733	8.01	2.02	-0.750			
0.7314	46807.88	3.2730	3.2731	-0.3668	8.02	2.03	-0.750			
0.7325	46877.98	3.2700	3.2699	-0.3583	8.04	2.05	-0.750			
0.7335	46945.65	3.2670	3.2669	-0.3487	8.05	2.06	-0.750			
0.7345	47010.86	3.2640	3.2642	-0.3425	8.06	2.07	-0.750			
0.7356	47076.00	3.2610	3.2610	-0.3374	8.07	2.08	-0.750			
0.7366	47140.60	3.2580	3.2579	-0.3330	8.08	2.09	-0.750			
0.7376	47203.61	3.2550	3.2550	-0.3262	8.09	2.10	-0.750			
0.7385	47266.33	3.2520	3.2520	-0.3204	8.09	2.10	-0.750			
0.7395	47327.27	3.2490	3.2491	-0.3156	8.09	2.10	-0.750			
0.7404	47386.86	3.2460	3.2460	-0.3096	8.10	2.11	-0.750			
0.7413	47445.23	3.2430	3.2429	-0.3029	8.11	2.12	-0.750			
0.7422	47503.19	3.2400	3.2400	-0.2977	8.12	2.13	-0.750			
0.7431	47560.04	3.2370	3.2370	-0.2921	8.13	2.14	-0.750			
0.7440	47615.75	3.2340	3.2341	-0.2890	8.14	2.15	-0.750			
0.7449	47670.76	3.2310	3.2310	-0.2846	8.15	2.16	-0.750			
0.7457	47724.06	3.2280	3.2280	-0.2798	8.16	2.17	-0.750			
0.7465	47777.60	3.2250	3.2250	-0.2778	8.17	2.18	-0.750			
0.7474	47831.26	3.2220	3.2220	-0.2734	8.18	2.19	-0.750			
0.7482	47883.48	3.2190	3.2190	-0.2699	8.19	2.20	-0.750			
0.7490	47935.08	3.2160	3.2160	-0.2665	8.20	2.21	-0.750			
0.7498	47985.26	3.2130	3.2130	-0.2624	8.20	2.21	-0.750			
0.7505	48034.96	3.2100	3.2099	-0.2593	8.21	2.22	-0.750			
0.7513	48084.50	3.2070	3.2070	-0.2557	8.22	2.23	-0.750			
0.7521	48133.41	3.2040	3.2039	-0.2529	8.23	2.24	-0.750			
0.7528	48182.03	3.2010	3.2011	-0.2480	8.24	2.25	-0.750			
0.7536	48229.67	3.1980	3.1980	-0.2440	8.25	2.26	-0.750			
0.7543	48276.23	3.1950	3.1951	-0.2393	8.26	2.27	-0.750			
0.7550	48321.18	3.1920	3.1920	-0.2347	8.26	2.27	-0.750			
0.7557	48365.69	3.1890	3.1889	-0.2310	8.27	2.28	-0.750			
0.7564	48409.53	3.1860	3.1860	-0.2286	8.28	2.29	-0.750			
0.7571	48453.21	3.1830	3.1830	-0.2264	8.29	2.30	-0.750			
0.7578	48496.14	3.1800	3.1801	-0.2243	8.30	2.31	-0.750			
0.7584	48539.54	3.1770	3.1769	-0.2224	8.30	2.31	-0.750			
0.7591	48581.57	3.1740	3.1742	-0.2204	8.31	2.32	-0.750			
0.7597	48623.93	3.1710	3.1709	-0.2182	8.32	2.33	-0.750			
0.7604	48666.02	3.1680	3.1680	-0.2154	8.33	2.34	-0.750			
0.7611	48707.41	3.1650	3.1649	-0.2128	8.34	2.35	-0.750			
0.7617	48747.90	3.1620	3.1621	-0.2097	8.34	2.35	-0.750			
0.7623	48787.66	3.1590	3.1591	-0.2076	8.35	2.36	-0.750			
0.7629	48827.06	3.1560	3.1560	-0.2055	8.36	2.37	-0.750			
0.7635	48866.13	3.1530	3.1529	-0.2035	8.37	2.38	-0.750			
0.7641	48904.63	3.1500	3.1499	-0.2016	8.37	2.38	-0.750			
0.7647	48943.68	3.1470	3.1470	-0.1997	8.38	2.39	-0.750			
0.7653	48982.32	3.1440	3.1441	-0.1981	8.39	2.40	-0.750			
0.7659	49020.04	3.1410	3.1410	-0.1948	8.40	2.41	-0.750			
0.7665	49057.23	3.1380	3.1380	-0.1921	8.41	2.42	-0.750			
0.7671	49093.22	3.1350	3.1350	-0.1904	8.42	2.43	-0.750			
0.7676	49129.47	3.1320	3.1320	-0.1883	8.42	2.43	-0.750			
0.7682	49165.51	3.1290	3.1289	-0.1871	8.43	2.44	-0.750			
0.7688	49201.14	3.1260	3.1259	-0.1854	8.44	2.45	-0.750			
0.7693	49236.93	3.1230	3.1231	-0.1842	8.45	2.46	-0.750			
0.7699	49272.09	3.1200	3.1201	-0.1833	8.46	2.47	-0.750			
0.7704	49307.18	3.1170	3.1169	-0.1817	8.46	2.47	-0.750			
0.7710	49341.92	3.1140	3.1140	-0.1801	8.47	2.48	-0.750			
0.7715	49376.06	3.1110	3.1110	-0.1782	8.48	2.49	-0.750			
0.7720	49410.47	3.1080	3.1080	-0.1770	8.49	2.50	-0.750			
0.7726	49444.31	3.1050	3.1051	-0.1749	8.49	2.50	-0.750			
0.7731	49477.85	3.1020	3.1019	-0.1730	8.50	2.51	-0.750			
0.7736	49510.76	3.0990	3.0990	-0.1717	8.51	2.52	-0.750			
0.7741	49543.36	3.0960	3.0960	-0.1696	8.52	2.53	-0.750			
0.7746	49575.83	3.0930	3.0930	-0.1685	8.52	2.53	-0.750			
0.7751	49608.04	3.0900	3.0899	-0.1671	8.53	2.54	-0.750			
0.7756	49640.11	3.0870	3.0870	-0.1647	8.54	2.55	-0.750			
0.7761	49671.50	3.0840	3.0840	-0.1637	8.55	2.56	-0.750			
0.7766	49702.60	3.0810	3.0810	-0.1625	8.55	2.56	-0.750			
0.7771	49733.69	3.0780	3.0781	-0.1614	8.56	2.57	-0.750			
0.7776	49764.29	3.0750	3.0749	-0.1601	8.57	2.58	-0.750			
0.7780	49794.92	3.0720	3.0721	-0.1597	8.58	2.59	-0.750			
0.7785	49825.78	3.0690	3.0690	-0.1584	8.58	2.59	-0.750			
0.7790	49856.09	3.0660	3.0661	-0.1573	8.59	2.60	-0.750			
0.7795	49886.68	3.0630	3.0629	-0.1560	8.60	2.61	-0.750			
0.7799	49916.34	3.0600	3.0601	-0.1538	8.61	2.62	-0.750			
0.7804	49945.31	3.0570	3.0570	-0.1525	8.61	2.62	-0.750			
0.7809	49974.48	3.0540	3.0541	-0.1514	8.62	2.63	-0.750			
0.7813	50003.29	3.0510	3.0510	-0.1503	8.63	2.64	-0.750			
0.7817	50031.64	3.0480	3.0479	-0.1494	8.64	2.65	-0.750			
0.7822	50060.42	3.0450	3.0451	-0.1498	8.64	2.65	-0.750			
0.7826	50089.37	3.0420	3.0420	-0.1485	8.65	2.66	-0.750			
0.7831	50118.07	3.0390	3.0389	-0.1474	8.66	2.67	-0.750			
0.7835	50146.19	3.0360	3.0360	-0.1469	8.66	2.67	-0.750			
0.7840	50174.00	3.0330	3.0331	-0.1452	8.67	2.68	-0.750			
0.7844	50201.79	3.0300	3.0299	-0.1446	8.68	2.69	-0.750			
0.7848	50229.53	3.0270	3.0269	-0.1440	8.68	2.69	-0.750			
0.7853	50257.10	3.0240	3.0241	-0.1425	8.69	2.70	-0.750			
0.7857	50284.39	3.0210	3.0210	-0.1418	8.70	2.71	-0.750			
0.7861	50311.91	3.0180	3.0180	-0.1412	8.71	2.72	-0.750			
0.7865	50338.82	3.0150	3.0150	-0.1405	8.71	2.72	-0.750			
0.7870	50365.39	3.0120	3.0120	-0.1390	8.72	2.73	-0.750			
0.7874	50392.04	3.0090	3.0090	-0.1387	8.73	2.74	-0.750			
0.7878	50418.50	3.0060	3.0060	-0.1389	8.73	2.74	-0.750			
0.7882	50445.24	3.0030	3.0031	-0.1415	8.74	2.75	-0.750			
