Ah_balance (normalized)	Ah_balance (mAh)	Voltage - fit (V)	Voltage -  interpolate (V)	dQ/dV (1/V)	Temperature (°C)	Temperature - diff (°C)	Current (C)	R_DC 0ms (mOhm)	R_DC 50ms (mOhm)	R_DC 50 ms PEC (mOhm)
0.0002	11.03	4.1110	4.1103	-0.0465	5.98	0.00	-0.750			
0.0004	23.98	4.1080	4.1076	-0.0819	5.98	0.00	-0.750			
0.0007	42.98	4.1050	4.1049	-0.1129	5.98	0.00	-0.750			
0.0011	68.93	4.1020	4.1018	-0.1407	5.98	0.00	-0.750			
0.0015	98.50	4.0990	4.0991	-0.1674	5.98	0.00	-0.750			
0.0021	133.28	4.0960	4.0960	-0.1921	5.98	0.00	-0.750			
0.0027	174.40	4.0930	4.0931	-0.2154	5.98	0.00	-0.750			
0.0034	217.86	4.0900	4.0901	-0.2373	5.98	0.00	-0.750			
0.0041	265.21	4.0870	4.0869	-0.2600	5.98	0.00	-0.750			
0.0050	317.29	4.0840	4.0839	-0.2806	5.98	0.00	-0.750			
0.0058	373.41	4.0810	4.0810	-0.2996	5.98	0.00	-0.750			
0.0068	433.27	4.0780	4.0781	-0.3218	5.98	0.00	-0.750			
0.0078	496.73	4.0750	4.0750	-0.3433	5.98	0.00	-0.750			
0.0088	564.58	4.0720	4.0720	-0.3657	5.98	0.00	-0.750			
0.0099	634.87	4.0690	4.0690	-0.3933	5.98	0.00	-0.750			
0.0111	712.86	4.0660	4.0661	-0.4209	5.98	0.00	-0.750			
0.0125	797.46	4.0630	4.0629	-0.4471	5.98	0.00	-0.750			
0.0139	887.14	4.0600	4.0601	-0.4685	5.98	0.00	-0.750			
0.0153	980.88	4.0570	4.0571	-0.4858	5.98	0.00	-0.750			
0.0168	1075.69	4.0540	4.0540	-0.5043	5.98	0.00	-0.750			
0.0183	1173.27	4.0510	4.0513	-0.5227	5.98	0.00	-0.750			
0.0199	1273.99	4.0480	4.0479	-0.5404	5.98	0.00	-0.750			
0.0216	1380.12	4.0450	4.0450	-0.5595	5.99	0.01	-0.750			
0.0233	1490.08	4.0420	4.0420	-0.5773	5.99	0.01	-0.750			
0.0251	1604.19	4.0390	4.0390	-0.6029	5.99	0.01	-0.750			
0.0269	1722.31	4.0360	4.0359	-0.6152	5.99	0.01	-0.750			
0.0288	1841.33	4.0330	4.0329	-0.6282	6.00	0.02	-0.750			
0.0307	1964.55	4.0300	4.0304	-0.6382	6.00	0.02	-0.750			
0.0326	2089.06	4.0270	4.0268	-0.6482	6.00	0.02	-0.750			
0.0346	2214.18	4.0240	4.0241	-0.6566	6.01	0.03	-0.750			
0.0366	2339.95	4.0210	4.0211	-0.6648	6.01	0.03	-0.750			
0.0386	2469.62	4.0180	4.0179	-0.6737	6.01	0.03	-0.750			
0.0406	2599.52	4.0150	4.0149	-0.6804	6.02	0.04	-0.750			
0.0427	2730.36	4.0120	4.0121	-0.6835	6.02	0.04	-0.750			
0.0447	2862.34	4.0090	4.0090	-0.6927	6.02	0.04	-0.750			
0.0468	2995.30	4.0060	4.0060	-0.7012	6.03	0.05	-0.750			
0.0489	3130.66	4.0030	4.0030	-0.7119	6.03	0.05	-0.750			
0.0511	3268.59	4.0000	4.0000	-0.7152	6.04	0.06	-0.750			
0.0533	3408.64	3.9970	3.9970	-0.7260	6.04	0.06	-0.750			
0.0555	3548.95	3.9940	3.9942	-0.7262	6.05	0.07	-0.750			
0.0577	3689.75	3.9910	3.9908	-0.7229	6.05	0.07	-0.750			
0.0598	3826.25	3.9880	3.9881	-0.7212	6.06	0.08	-0.750			
0.0619	3962.06	3.9850	3.9851	-0.7330	6.07	0.09	-0.750			
0.0641	4104.56	3.9820	3.9817	-0.7480	6.07	0.09	-0.750			
0.0664	4251.11	3.9790	3.9789	-0.7564	6.08	0.10	-0.750			
0.0687	4397.33	3.9760	3.9762	-0.7599	6.08	0.10	-0.750			
0.0711	4548.30	3.9730	3.9730	-0.7659	6.09	0.11	-0.750			
0.0734	4695.94	3.9700	3.9701	-0.7638	6.10	0.12	-0.750			
0.0756	4838.09	3.9670	3.9669	-0.7481	6.10	0.12	-0.750			
0.0779	4983.18	3.9640	3.9640	-0.7513	6.11	0.13	-0.750			
0.0801	5124.89	3.9610	3.9610	-0.7479	6.12	0.14	-0.750			
0.0823	5267.60	3.9580	3.9581	-0.7511	6.12	0.14	-0.750			
0.0846	5412.15	3.9550	3.9550	-0.7591	6.13	0.15	-0.750			
0.0869	5559.38	3.9520	3.9519	-0.7636	6.14	0.16	-0.750			
0.0892	5707.01	3.9490	3.9489	-0.7664	6.14	0.16	-0.750			
0.0915	5854.65	3.9460	3.9461	-0.7777	6.15	0.17	-0.750			
0.0938	6005.27	3.9430	3.9431	-0.7778	6.15	0.17	-0.750			
0.0962	6155.62	3.9400	3.9399	-0.7791	6.16	0.18	-0.750			
0.0985	6306.66	3.9370	3.9370	-0.7751	6.17	0.19	-0.750			
0.1008	6453.65	3.9340	3.9342	-0.7744	6.17	0.19	-0.750			
0.1032	6602.30	3.9310	3.9310	-0.7799	6.18	0.20	-0.750			
0.1055	6752.62	3.9280	3.9279	-0.7768	6.19	0.21	-0.750			
0.1078	6899.26	3.9250	3.9249	-0.7822	6.20	0.22	-0.750			
0.1102	7051.30	3.9220	3.9221	-0.7938	6.20	0.22	-0.750			
0.1126	7205.53	3.9190	3.9189	-0.7931	6.21	0.23	-0.750			
0.1150	7361.19	3.9160	3.9160	-0.7878	6.22	0.24	-0.750			
0.1174	7511.72	3.9130	3.9131	-0.7818	6.23	0.25	-0.750			
0.1197	7659.74	3.9100	3.9101	-0.7843	6.23	0.25	-0.750			
0.1220	7809.42	3.9070	3.9069	-0.7848	6.24	0.26	-0.750			
0.1243	7957.00	3.9040	3.9039	-0.7856	6.24	0.26	-0.750			
0.1267	8107.91	3.9010	3.9010	-0.7930	6.25	0.27	-0.750			
0.1291	8264.87	3.8980	3.8981	-0.8070	6.26	0.28	-0.750			
0.1316	8420.59	3.8950	3.8950	-0.8127	6.26	0.28	-0.750			
0.1340	8575.67	3.8920	3.8920	-0.8154	6.27	0.29	-0.750			
0.1365	8734.18	3.8890	3.8890	-0.8161	6.28	0.30	-0.750			
0.1389	8891.48	3.8860	3.8859	-0.8194	6.29	0.31	-0.750			
0.1414	9048.14	3.8830	3.8830	-0.8219	6.30	0.32	-0.750			
0.1439	9207.95	3.8800	3.8801	-0.8200	6.31	0.33	-0.750			
0.1463	9364.96	3.8770	3.8768	-0.8172	6.32	0.34	-0.750			
0.1488	9520.17	3.8740	3.8740	-0.8214	6.33	0.35	-0.750			
0.1512	9679.34	3.8710	3.8711	-0.8152	6.34	0.36	-0.750			
0.1537	9837.04	3.8680	3.8679	-0.8162	6.34	0.36	-0.750			
0.1561	9992.77	3.8650	3.8652	-0.8144	6.35	0.37	-0.750			
0.1586	10148.47	3.8620	3.8619	-0.8150	6.36	0.38	-0.750			
0.1610	10304.54	3.8590	3.8589	-0.8207	6.37	0.39	-0.750			
0.1635	10462.90	3.8560	3.8559	-0.8204	6.38	0.40	-0.750			
0.1660	10622.04	3.8530	3.8530	-0.8219	6.38	0.40	-0.750			
0.1685	10780.94	3.8500	3.8501	-0.8285	6.39	0.41	-0.750			
0.1709	10939.24	3.8470	3.8471	-0.8311	6.40	0.42	-0.750			
0.1734	11098.82	3.8440	3.8438	-0.8375	6.41	0.43	-0.750			
0.1759	11259.57	3.8410	3.8410	-0.8364	6.42	0.44	-0.750			
0.1785	11421.69	3.8380	3.8380	-0.8407	6.43	0.45	-0.750			
0.1810	11583.73	3.8350	3.8352	-0.8418	6.44	0.46	-0.750			
0.1835	11747.06	3.8320	3.8319	-0.8441	6.45	0.47	-0.750			
0.1861	11908.18	3.8290	3.8289	-0.8381	6.45	0.47	-0.750			
0.1885	12066.49	3.8260	3.8261	-0.8403	6.46	0.48	-0.750			
0.1911	12228.67	3.8230	3.8230	-0.8492	6.47	0.49	-0.750			
0.1936	12392.52	3.8200	3.8200	-0.8530	6.47	0.49	-0.750			
0.1962	12556.69	3.8170	3.8169	-0.8555	6.48	0.50	-0.750			
0.1988	12722.43	3.8140	3.8141	-0.8631	6.49	0.51	-0.750			
0.2014	12890.09	3.8110	3.8110	-0.8649	6.50	0.52	-0.750			
0.2040	13058.64	3.8080	3.8079	-0.8676	6.50	0.52	-0.750			
0.2066	13223.11	3.8050	3.8051	-0.8605	6.51	0.53	-0.750			
0.2092	13387.79	3.8020	3.8020	-0.8620	6.52	0.54	-0.750			
0.2118	13553.35	3.7990	3.7989	-0.8619	6.53	0.55	-0.750			
0.2143	13717.64	3.7960	3.7959	-0.8534	6.54	0.56	-0.750			
0.2169	13883.27	3.7930	3.7929	-0.8609	6.55	0.57	-0.750			
0.2195	14049.32	3.7900	3.7898	-0.8581	6.55	0.57	-0.750			
0.2221	14213.74	3.7870	3.7869	-0.8610	6.56	0.58	-0.750			
0.2246	14376.95	3.7840	3.7840	-0.8609	6.57	0.59	-0.750			
0.2272	14542.79	3.7810	3.7810	-0.8577	6.58	0.60	-0.750			
0.2299	14711.05	3.7780	3.7779	-0.8654	6.59	0.61	-0.750			
0.2325	14878.01	3.7750	3.7749	-0.8628	6.59	0.61	-0.750			
0.2350	15041.41	3.7720	3.7721	-0.8607	6.60	0.62	-0.750			
0.2376	15206.45	3.7690	3.7689	-0.8634	6.61	0.63	-0.750			
0.2401	15369.32	3.7660	3.7660	-0.8643	6.61	0.63	-0.750			
0.2428	15536.91	3.7630	3.7631	-0.8738	6.62	0.64	-0.750			
0.2454	15706.28	3.7600	3.7600	-0.8819	6.63	0.65	-0.750			
0.2481	15877.10	3.7570	3.7570	-0.8904	6.64	0.66	-0.750			
0.2508	16051.59	3.7540	3.7540	-0.8884	6.64	0.66	-0.750			
0.2535	16221.38	3.7510	3.7510	-0.8859	6.65	0.67	-0.750			
0.2561	16391.40	3.7480	3.7481	-0.8906	6.66	0.68	-0.750			
0.2588	16561.35	3.7450	3.7451	-0.8957	6.67	0.69	-0.750			
0.2615	16733.60	3.7420	3.7418	-0.8971	6.68	0.70	-0.750			
0.2642	16907.25	3.7390	3.7390	-0.8968	6.69	0.71	-0.750			
0.2669	17079.06	3.7360	3.7361	-0.9041	6.70	0.72	-0.750			
0.2696	17254.27	3.7330	3.7331	-0.9123	6.70	0.72	-0.750			
0.2723	17429.58	3.7300	3.7298	-0.9190	6.71	0.73	-0.750			
0.2751	17607.93	3.7270	3.7269	-0.9179	6.72	0.74	-0.750			
0.2779	17784.58	3.7240	3.7240	-0.9188	6.72	0.74	-0.750			
0.2806	17961.42	3.7210	3.7213	-0.9282	6.73	0.75	-0.750			
0.2835	18141.22	3.7180	3.7180	-0.9362	6.74	0.76	-0.750			
0.2862	18319.97	3.7150	3.7148	-0.9342	6.74	0.76	-0.750			
0.2890	18498.87	3.7120	3.7120	-0.9346	6.75	0.77	-0.750			
0.2919	18682.13	3.7090	3.7090	-0.9342	6.76	0.78	-0.750			
0.2947	18860.48	3.7060	3.7061	-0.9330	6.76	0.78	-0.750			
0.2975	19038.15	3.7030	3.7030	-0.9281	6.77	0.79	-0.750			
0.3002	19213.08	3.7000	3.6998	-0.9279	6.78	0.80	-0.750			
0.3030	19389.21	3.6970	3.6971	-0.9349	6.78	0.80	-0.750			
0.3058	19570.58	3.6940	3.6939	-0.9462	6.79	0.81	-0.750			
0.3086	19753.36	3.6910	3.6911	-0.9644	6.80	0.82	-0.750			
0.3116	19941.95	3.6880	3.6880	-0.9764	6.80	0.82	-0.750			
0.3145	20129.99	3.6850	3.6849	-0.9855	6.81	0.83	-0.750			
0.3175	20321.33	3.6820	3.6820	-0.9952	6.82	0.84	-0.750			
0.3205	20514.68	3.6790	3.6791	-1.0005	6.83	0.85	-0.750			
0.3236	20708.71	3.6760	3.6761	-0.9992	6.83	0.85	-0.750			
0.3266	20901.94	3.6730	3.6729	-1.0003	6.84	0.86	-0.750			
0.3295	21090.24	3.6700	3.6701	-1.0062	6.85	0.87	-0.750			
0.3325	21282.88	3.6670	3.6670	-1.0192	6.85	0.87	-0.750			
0.3356	21477.67	3.6640	3.6639	-1.0304	6.86	0.88	-0.750			
0.3387	21679.21	3.6610	3.6610	-1.0416	6.87	0.89	-0.750			
0.3419	21882.54	3.6580	3.6580	-1.0510	6.88	0.90	-0.750			
0.3451	22087.63	3.6550	3.6550	-1.0615	6.88	0.90	-0.750			
0.3483	22291.09	3.6520	3.6521	-1.0698	6.89	0.91	-0.750			
0.3515	22495.57	3.6490	3.6489	-1.0774	6.89	0.91	-0.750			
0.3547	22702.74	3.6460	3.6461	-1.0818	6.90	0.92	-0.750			
0.3580	22912.25	3.6430	3.6429	-1.0973	6.91	0.93	-0.750			
0.3613	23124.36	3.6400	3.6400	-1.1152	6.91	0.93	-0.750			
0.3647	23339.23	3.6370	3.6370	-1.1356	6.92	0.94	-0.750			
0.3681	23557.44	3.6340	3.6343	-1.1535	6.93	0.95	-0.750			
0.3716	23784.55	3.6310	3.6309	-1.1609	6.94	0.96	-0.750			
0.3752	24012.46	3.6280	3.6279	-1.1654	6.95	0.97	-0.750			
0.3787	24237.11	3.6250	3.6252	-1.1709	6.96	0.98	-0.750			
0.3822	24461.61	3.6220	3.6220	-1.1825	6.96	0.98	-0.750			
0.3857	24684.34	3.6190	3.6189	-1.1848	6.97	0.99	-0.750			
0.3892	24910.33	3.6160	3.6158	-1.1904	6.97	0.99	-0.750			
0.3928	25140.10	3.6130	3.6132	-1.2263	6.98	1.00	-0.750			
0.3966	25381.67	3.6100	3.6100	-1.2442	6.99	1.01	-0.750			
0.4004	25626.48	3.6070	3.6070	-1.2576	6.99	1.01	-0.750			
0.4042	25868.10	3.6040	3.6038	-1.2573	7.00	1.02	-0.750	0.438	0.980	
0.4080	26110.40	3.6010	3.6009	-1.2619	7.00	1.02	-0.750			
0.4118	26352.50	3.5980	3.5979	-1.2559	7.00	1.02	-0.750			
0.4154	26588.15	3.5950	3.5951	-1.2869	7.01	1.03	-0.750			
0.4193	26833.80	3.5920	3.5921	-1.3100	7.01	1.03	-0.750			
0.4232	27086.99	3.5890	3.5888	-1.3292	7.02	1.04	-0.750			
0.4273	27346.54	3.5860	3.5861	-1.3542	7.02	1.04	-0.750			
0.4315	27612.94	3.5830	3.5831	-1.3778	7.03	1.05	-0.750			
0.4357	27883.25	3.5800	3.5800	-1.3774	7.04	1.06	-0.750			
0.4398	28149.48	3.5770	3.5769	-1.3740	7.04	1.06	-0.750			
0.4439	28406.54	3.5740	3.5742	-1.3688	7.05	1.07	-0.750			
0.4480	28670.17	3.5710	3.5710	-1.3993	7.06	1.08	-0.750			
0.4522	28937.70	3.5680	3.5679	-1.4180	7.07	1.09	-0.750			
0.4564	29209.80	3.5650	3.5650	-1.4313	7.08	1.10	-0.750			
0.4608	29490.60	3.5620	3.5622	-1.4592	7.09	1.11	-0.750			
0.4652	29773.03	3.5590	3.5590	-1.4834	7.10	1.12	-0.750			
0.4697	30059.91	3.5560	3.5558	-1.4992	7.10	1.12	-0.750			
0.4742	30349.41	3.5530	3.5531	-1.5188	7.11	1.13	-0.750			
0.4788	30643.07	3.5500	3.5499	-1.5202	7.13	1.15	-0.750			
0.4835	30943.21	3.5470	3.5470	-1.5403	7.13	1.15	-0.750			
0.4881	31238.34	3.5440	3.5441	-1.5575	7.14	1.16	-0.750			
0.4928	31537.53	3.5410	3.5409	-1.5600	7.14	1.16	-0.750			
0.4974	31834.16	3.5380	3.5378	-1.5730	7.15	1.17	-0.750			
0.5022	32141.99	3.5350	3.5353	-1.5689	7.16	1.18	-0.750			
0.5069	32441.90	3.5320	3.5320	-1.5740	7.17	1.19	-0.750			
0.5116	32744.70	3.5290	3.5294	-1.5939	7.18	1.20	-0.750			
0.5164	33048.91	3.5260	3.5259	-1.5870	7.19	1.21	-0.750			
0.5211	33352.89	3.5230	3.5228	-1.6104	7.20	1.22	-0.750			
0.5260	33664.01	3.5200	3.5199	-1.6176	7.21	1.23	-0.750			
0.5309	33980.00	3.5170	3.5173	-1.6330	7.22	1.24	-0.750			
0.5359	34298.08	3.5140	3.5141	-1.6306	7.23	1.25	-0.750			
0.5407	34607.80	3.5110	3.5110	-1.6256	7.24	1.26	-0.750			
0.5456	34921.45	3.5080	3.5079	-1.6426	7.25	1.27	-0.750			
0.5506	35240.07	3.5050	3.5049	-1.6387	7.26	1.28	-0.750			
0.5556	35558.32	3.5020	3.5022	-1.6236	7.27	1.29	-0.750			
0.5605	35869.17	3.4990	3.4993	-1.6074	7.28	1.30	-0.750			
0.5652	36171.83	3.4960	3.4960	-1.6093	7.29	1.31	-0.750			
0.5700	36478.12	3.4930	3.4930	-1.5913	7.30	1.32	-0.750			
0.5747	36777.76	3.4900	3.4898	-1.5813	7.32	1.34	-0.750			
0.5794	37079.33	3.4870	3.4869	-1.5807	7.33	1.35	-0.750			
0.5842	37390.45	3.4840	3.4843	-1.5899	7.34	1.36	-0.750			
0.5890	37697.06	3.4810	3.4807	-1.6106	7.36	1.38	-0.750			
0.5938	38005.51	3.4780	3.4781	-1.5996	7.37	1.39	-0.750			
0.5987	38315.30	3.4750	3.4751	-1.5718	7.39	1.41	-0.750			
0.6035	38624.97	3.4720	3.4721	-1.5714	7.40	1.42	-0.750			
0.6081	38920.87	3.4690	3.4689	-1.5308	7.42	1.44	-0.750			
0.6127	39215.80	3.4660	3.4660	-1.5053	7.43	1.45	-0.750			
0.6171	39495.66	3.4630	3.4629	-1.4790	7.44	1.46	-0.750			
0.6214	39772.57	3.4600	3.4600	-1.4703	7.45	1.47	-0.750			
0.6258	40053.93	3.4570	3.4569	-1.4556	7.46	1.48	-0.750			
0.6303	40336.96	3.4540	3.4541	-1.4550	7.48	1.50	-0.750			
0.6346	40616.17	3.4510	3.4512	-1.4355	7.50	1.52	-0.750			
0.6390	40894.76	3.4480	3.4479	-1.4250	7.51	1.53	-0.750			
0.6432	41167.32	3.4450	3.4451	-1.4064	7.53	1.55	-0.750			
0.6474	41433.62	3.4420	3.4419	-1.3604	7.54	1.56	-0.750			
0.6514	41691.14	3.4390	3.4390	-1.3328	7.56	1.58	-0.750			
0.6554	41947.90	3.4360	3.4362	-1.3252	7.57	1.59	-0.750			
0.6594	42199.03	3.4330	3.4329	-1.2997	7.59	1.61	-0.750			
0.6632	42447.73	3.4300	3.4297	-1.2712	7.61	1.63	-0.750			
0.6670	42688.51	3.4270	3.4272	-1.2389	7.62	1.64	-0.750			
0.6708	42928.84	3.4240	3.4240	-1.2164	7.64	1.66	-0.750			
0.6744	43160.25	3.4210	3.4210	-1.1804	7.66	1.68	-0.750			
0.6778	43378.66	3.4180	3.4179	-1.1331	7.67	1.69	-0.750			
0.6811	43588.52	3.4150	3.4152	-1.1070	7.68	1.70	-0.750			
0.6844	43800.43	3.4120	3.4119	-1.0832	7.70	1.72	-0.750			
0.6876	44006.69	3.4090	3.4090	-1.0586	7.71	1.73	-0.750			
0.6908	44208.11	3.4060	3.4059	-1.0366	7.72	1.74	-0.750			
0.6939	44408.12	3.4030	3.4031	-1.0156	7.73	1.75	-0.750			
0.6969	44600.14	3.4000	3.3999	-0.9904	7.75	1.77	-0.750			
0.6998	44787.96	3.3970	3.3969	-0.9565	7.77	1.79	-0.750			
0.7026	44967.54	3.3940	3.3940	-0.9165	7.78	1.80	-0.750			
0.7053	45141.95	3.3910	3.3912	-0.8925	7.80	1.82	-0.750			
0.7080	45310.40	3.3880	3.3880	-0.8648	7.81	1.83	-0.750			
0.7105	45469.55	3.3850	3.3849	-0.8396	7.83	1.85	-0.750			
0.7129	45627.65	3.3820	3.3820	-0.8214	7.84	1.86	-0.750			
0.7154	45783.35	3.3790	3.3790	-0.7915	7.85	1.87	-0.750			
0.7178	45937.69	3.3760	3.3761	-0.7732	7.87	1.89	-0.750			
0.7201	46083.33	3.3730	3.3731	-0.7503	7.88	1.90	-0.750			
0.7222	46223.33	3.3700	3.3698	-0.7239	7.90	1.92	-0.750			
0.7244	46360.19	3.3670	3.3669	-0.7021	7.91	1.93	-0.750			
0.7264	46490.27	3.3640	3.3640	-0.6791	7.92	1.94	-0.750			
0.7284	46620.38	3.3610	3.3610	-0.6589	7.94	1.96	-0.750			
0.7304	46747.01	3.3580	3.3580	-0.6377	7.95	1.97	-0.750			
0.7323	46866.41	3.3550	3.3550	-0.6149	7.96	1.98	-0.750			
0.7341	46981.15	3.3520	3.3520	-0.5915	7.97	1.99	-0.750			
0.7358	47091.11	3.3490	3.3490	-0.5722	7.98	2.00	-0.750			
0.7375	47198.42	3.3460	3.3461	-0.5578	7.99	2.01	-0.750			
0.7391	47303.52	3.3430	3.3430	-0.5417	8.00	2.02	-0.750			
0.7407	47406.71	3.3400	3.3398	-0.5308	8.01	2.03	-0.750			
0.7423	47507.76	3.3370	3.3370	-0.5178	8.02	2.04	-0.750			
0.7438	47606.05	3.3340	3.3340	-0.5023	8.04	2.06	-0.750			
0.7453	47701.76	3.3310	3.3310	-0.4889	8.05	2.07	-0.750			
0.7468	47794.13	3.3280	3.3281	-0.4746	8.06	2.08	-0.750			
0.7482	47882.69	3.3250	3.3250	-0.4592	8.07	2.09	-0.750			
0.7495	47969.80	3.3220	3.3219	-0.4476	8.08	2.10	-0.750			
0.7508	48052.92	3.3190	3.3191	-0.4369	8.09	2.11	-0.750			
0.7521	48136.19	3.3160	3.3160	-0.4274	8.10	2.12	-0.750			
0.7534	48218.41	3.3130	3.3129	-0.4165	8.11	2.13	-0.750			
0.7546	48297.21	3.3100	3.3100	-0.4040	8.12	2.14	-0.750			
0.7558	48373.26	3.3070	3.3071	-0.3945	8.13	2.15	-0.750			
0.7570	48448.00	3.3040	3.3039	-0.3855	8.14	2.16	-0.750			
0.7581	48520.67	3.3010	3.3009	-0.3746	8.15	2.17	-0.750			
0.7592	48591.22	3.2980	3.2980	-0.3663	8.16	2.18	-0.750			
0.7603	48661.37	3.2950	3.2950	-0.3583	8.17	2.19	-0.750			
0.7614	48729.29	3.2920	3.2920	-0.3505	8.18	2.20	-0.750			
0.7624	48795.74	3.2890	3.2889	-0.3416	8.19	2.21	-0.750			
0.7634	48860.24	3.2860	3.2859	-0.3317	8.20	2.22	-0.750			
0.7644	48922.39	3.2830	3.2830	-0.3253	8.21	2.23	-0.750			
0.7654	48984.32	3.2800	3.2801	-0.3192	8.22	2.24	-0.750			
0.7663	49044.91	3.2770	3.2769	-0.3120	8.23	2.25	-0.750			
0.7673	49104.64	3.2740	3.2739	-0.3057	8.24	2.26	-0.750			
0.7682	49162.28	3.2710	3.2712	-0.2985	8.24	2.26	-0.750			
0.7691	49219.23	3.2680	3.2680	-0.2937	8.25	2.27	-0.750			
0.7699	49275.38	3.2650	3.2650	-0.2875	8.26	2.28	-0.750			
0.7708	49329.27	3.2620	3.2621	-0.2806	8.27	2.29	-0.750			
0.7716	49382.47	3.2590	3.2589	-0.2751	8.27	2.29	-0.750			
0.7724	49434.76	3.2560	3.2560	-0.2701	8.28	2.30	-0.750			
0.7732	49486.14	3.2530	3.2530	-0.2654	8.29	2.31	-0.750			
0.7740	49536.39	3.2500	3.2500	-0.2598	8.30	2.32	-0.750			
0.7748	49585.61	3.2470	3.2470	-0.2547	8.31	2.33	-0.750			
0.7755	49634.49	3.2440	3.2440	-0.2499	8.31	2.33	-0.750			
0.7763	49681.79	3.2410	3.2410	-0.2446	8.32	2.34	-0.750			
0.7770	49728.41	3.2380	3.2380	-0.2399	8.33	2.35	-0.750			
0.7777	49773.75	3.2350	3.2350	-0.2355	8.34	2.36	-0.750			
0.7784	49818.33	3.2320	3.2320	-0.2307	8.34	2.36	-0.750			
0.7791	49861.72	3.2290	3.2290	-0.2273	8.35	2.37	-0.750			
0.7798	49904.84	3.2260	3.2260	-0.2240	8.35	2.37	-0.750			
0.7804	49947.80	3.2230	3.2229	-0.2206	8.36	2.38	-0.750			
0.7811	49990.06	3.2200	3.2199	-0.2175	8.37	2.39	-0.750			
0.7817	50031.56	3.2170	3.2171	-0.2138	8.37	2.39	-0.750			
0.7824	50072.47	3.2140	3.2140	-0.2103	8.38	2.40	-0.750			
0.7830	50112.22	3.2110	3.2110	-0.2076	8.39	2.41	-0.750			
0.7836	50151.78	3.2080	3.2080	-0.2046	8.39	2.41	-0.750			
0.7842	50190.45	3.2050	3.2049	-0.2005	8.40	2.42	-0.750			
0.7848	50228.73	3.2020	3.2020	-0.1983	8.41	2.43	-0.750			
0.7854	50266.81	3.1990	3.1990	-0.1962	8.42	2.44	-0.750			
0.7860	50304.54	3.1960	3.1960	-0.1927	8.42	2.44	-0.750			
0.7866	50341.18	3.1930	3.1931	-0.1898	8.43	2.45	-0.750			
0.7871	50377.28	3.1900	3.1899	-0.1862	8.44	2.46	-0.750			
0.7877	50412.31	3.1870	3.1871	-0.1833	8.44	2.46	-0.750			
0.7882	50447.11	3.1840	3.1839	-0.1811	8.45	2.47	-0.750			
0.7888	50481.88	3.1810	3.1810	-0.1781	8.45	2.47	-0.750			
0.7893	50515.68	3.1780	3.1779	-0.1758	8.46	2.48	-0.750			
0.7898	50549.08	3.1750	3.1750	-0.1734	8.47	2.49	-0.750			
0.7904	50582.57	3.1720	3.1721	-0.1714	8.47	2.49	-0.750			
0.7909	50614.88	3.1690	3.1688	-0.1687	8.48	2.50	-0.750			
0.7914	50647.01	3.1660	3.1661	-0.1666	8.49	2.51	-0.750			
0.7919	50678.59	3.1630	3.1630	-0.1645	8.49	2.51	-0.750			
0.7923	50710.02	3.1600	3.1600	-0.1621	8.50	2.52	-0.750			
0.7928	50741.36	3.1570	3.1569	-0.1603	8.51	2.53	-0.750			
0.7933	50771.17	3.1540	3.1541	-0.1581	8.51	2.53	-0.750			
0.7938	50801.43	3.1510	3.1511	-0.1571	8.52	2.54	-0.750			
0.7942	50831.62	3.1480	3.1480	-0.1551	8.52	2.54	-0.750			
0.7947	50861.01	3.1450	3.1449	-0.1533	8.53	2.55	-0.750			
0.7952	50890.60	3.1420	3.1421	-0.1518	8.54	2.56	-0.750			
0.7956	50919.58	3.1390	3.1391	-0.1501	8.54	2.56	-0.750			
0.7961	50948.46	3.1360	3.1360	-0.1487	8.55	2.57	-0.750			
0.7965	50976.95	3.1330	3.1330	-0.1467	8.55	2.57	-0.750			
0.7969	51004.46	3.1300	3.1301	-0.1435	8.56	2.58	-0.750			
0.7974	51031.87	3.1270	3.1269	-0.1421	8.57	2.59	-0.750			
0.7978	51059.22	3.1240	3.1241	-0.1410	8.57	2.59	-0.750			
0.7982	51085.74	3.1210	3.1210	-0.1395	8.58	2.60	-0.750			
0.7986	51112.47	3.1180	3.1180	-0.1387	8.58	2.60	-0.750			
0.7990	51139.01	3.1150	3.1150	-0.1378	8.59	2.61	-0.750			
0.7995	51165.30	3.1120	3.1120	-0.1365	8.59	2.61	-0.750			
0.7999	51191.80	3.1090	3.1090	-0.1354	8.60	2.62	-0.750			
0.8003	51217.83	3.1060	3.1060	-0.1340	8.60	2.62	-0.750			
0.8007	51243.27	3.1030	3.1030	-0.1324	8.61	2.63	-0.750			
0.8011	51268.54	3.1000	3.1000	-0.1307	8.61	2.63	-0.750			
0.8015	51293.32	3.0970	3.0970	-0.1288	8.62	2.64	-0.750			
0.8018	51317.88	3.0940	3.0939	-0.1271	8.62	2.64	-0.750			
0.8022	51342.01	3.0910	3.0910	-0.1260	8.63	2.65	-0.750			
0.8026	51366.04	3.0880	3.0880	-0.1248	8.63	2.65	-0.750			
0.8030	51389.90	3.0850	3.0850	-0.1238	8.64	2.66	-0.750			
0.8033	51413.58	3.0820	3.0820	-0.1228	8.65	2.67	-0.750			
0.8037	51436.84	3.0790	3.0789	-0.1216	8.65	2.67	-0.750			
0.8041	51460.18	3.0760	3.0761	-0.1211	8.66	2.68	-0.750			
0.8044	51483.40	3.0730	3.0730	-0.1202	8.66	2.68	-0.750			
0.8048	51506.47	3.0700	3.0700	-0.1194	8.67	2.69	-0.750			
0.8051	51529.33	3.0670	3.0669	-0.1182	8.67	2.69	-0.750			
0.8055	51551.89	3.0640	3.0640	-0.1170	8.68	2.70	-0.750			
0.8058	51574.25	3.0610	3.0612	-0.1158	8.68	2.70	-0.750			
0.8062	51596.49	3.0580	3.0579	-0.1148	8.69	2.71	-0.750			
0.8065	51618.32	3.0550	3.0549	-0.1139	8.69	2.71	-0.750			
0.8069	51639.93	3.0520	3.0521	-0.1128	8.70	2.72	-0.750			
0.8072	51661.45	3.0490	3.0489	-0.1120	8.70	2.72	-0.750			
0.8075	51682.89	3.0460	3.0460	-0.1113	8.71	2.73	-0.750			
0.8079	51704.11	3.0430	3.0430	-0.1109	8.71	2.73	-0.750			
0.8082	51725.37	3.0400	3.0400	-0.1106	8.72	2.74	-0.750			
0.8085	51746.79	3.0370	3.0370	-0.1096	8.72	2.74	-0.750			
0.8089	51767.75	3.0340	3.0340	-0.1086	8.73	2.75	-0.750			
0.8092	51788.62	3.0310	3.0311	-0.1078	8.73	2.75	-0.750			
0.8095	51809.19	3.0280	3.0280	-0.1065	8.74	2.76	-0.750			
0.8098	51829.56	3.0250	3.0250	-0.1055	8.74	2.76	-0.750			
0.8102	51849.70	3.0220	3.0219	-0.1042	8.75	2.77	-0.750			
0.8105	51869.26	3.0190	3.0189	-0.1030	8.75	2.77	-0.750			
0.8108	51888.99	3.0160	3.0161	-0.1025	8.76	2.78	-0.750			
0.8111	51908.58	3.0130	3.0131	-0.1021	8.76	2.78	-0.750			
0.8114	51928.15	3.0100	3.0099	-0.1018	8.77	2.79	-0.750			
0.8117	51947.66	3.0070	3.0069	-0.1014	8.77	2.79	-0.750			
0.8120	51967.02	3.0040	3.0040	-0.1017	8.78	2.80	-0.750			
0.8123	51986.56	3.0010	3.0010	-0.1018	8.78	2.80	-0.750			
