Ah_balance (normalized)	Ah_balance (mAh)	Voltage - fit (V)	Voltage -  interpolate (V)	dQ/dV (1/V)	Temperature (°C)	Temperature - diff (°C)	Current (C)	R_DC 0ms (mOhm)	R_DC 50ms (mOhm)	R_DC 50 ms PEC (mOhm)
0.0002	10.52	4.1050	4.1032	-0.0211	6.00	0.00	-0.750			
0.0003	17.68	4.1020	4.1012	-0.0536	6.00	0.00	-0.750			
0.0005	32.19	4.0990	4.0985	-0.0852	6.00	0.00	-0.750			
0.0008	52.26	4.0960	4.0958	-0.1132	6.00	0.00	-0.750			
0.0012	76.90	4.0930	4.0931	-0.1401	6.00	0.00	-0.750			
0.0017	107.13	4.0900	4.0900	-0.1638	6.00	0.00	-0.750			
0.0022	141.03	4.0870	4.0871	-0.1893	6.00	0.00	-0.750			
0.0028	181.79	4.0840	4.0839	-0.2115	6.00	0.00	-0.750			
0.0035	223.78	4.0810	4.0812	-0.2348	6.00	0.00	-0.750			
0.0042	270.65	4.0780	4.0781	-0.2590	6.00	0.00	-0.750			
0.0050	322.42	4.0750	4.0749	-0.2812	6.00	0.00	-0.750			
0.0059	378.61	4.0720	4.0720	-0.3043	6.00	0.00	-0.750			
0.0069	439.63	4.0690	4.0691	-0.3238	6.00	0.00	-0.750			
0.0079	504.96	4.0660	4.0660	-0.3453	6.00	0.00	-0.750			
0.0089	572.21	4.0630	4.0631	-0.3686	6.00	0.00	-0.750			
0.0101	643.76	4.0600	4.0599	-0.3926	6.00	0.00	-0.750			
0.0113	720.69	4.0570	4.0570	-0.4161	6.00	0.00	-0.750			
0.0126	803.89	4.0540	4.0539	-0.4412	6.00	0.00	-0.750			
0.0139	891.86	4.0510	4.0511	-0.4623	6.00	0.00	-0.750			
0.0154	983.97	4.0480	4.0481	-0.4814	6.00	0.00	-0.750			
0.0169	1078.86	4.0450	4.0450	-0.4987	6.00	0.00	-0.750			
0.0184	1175.29	4.0420	4.0418	-0.5123	6.00	0.00	-0.750			
0.0199	1274.23	4.0390	4.0391	-0.5253	6.00	0.00	-0.750			
0.0215	1376.42	4.0360	4.0361	-0.5451	6.00	0.00	-0.750			
0.0232	1482.42	4.0330	4.0330	-0.5626	6.01	0.01	-0.750			
0.0249	1592.05	4.0300	4.0299	-0.5814	6.01	0.01	-0.750			
0.0266	1705.16	4.0270	4.0270	-0.5962	6.01	0.01	-0.750			
0.0285	1821.34	4.0240	4.0240	-0.6126	6.01	0.01	-0.750			
0.0303	1942.12	4.0210	4.0211	-0.6268	6.01	0.01	-0.750			
0.0323	2064.99	4.0180	4.0179	-0.6365	6.02	0.02	-0.750			
0.0342	2187.26	4.0150	4.0151	-0.6504	6.02	0.02	-0.750			
0.0362	2315.56	4.0120	4.0119	-0.6566	6.02	0.02	-0.750			
0.0382	2441.72	4.0090	4.0090	-0.6630	6.03	0.03	-0.750			
0.0401	2568.81	4.0060	4.0062	-0.6772	6.03	0.03	-0.750			
0.0422	2699.10	4.0030	4.0029	-0.6872	6.04	0.04	-0.750			
0.0443	2833.03	4.0000	3.9999	-0.6947	6.05	0.05	-0.750			
0.0464	2967.31	3.9970	3.9970	-0.6966	6.05	0.05	-0.750			
0.0485	3101.10	3.9940	3.9942	-0.6994	6.06	0.06	-0.750			
0.0506	3240.35	3.9910	3.9909	-0.7059	6.07	0.07	-0.750			
0.0527	3373.55	3.9880	3.9878	-0.7042	6.08	0.08	-0.750			
0.0548	3506.09	3.9850	3.9851	-0.7011	6.09	0.09	-0.750			
0.0569	3641.25	3.9820	3.9821	-0.7118	6.09	0.09	-0.750			
0.0591	3780.14	3.9790	3.9789	-0.7249	6.10	0.10	-0.750			
0.0613	3921.29	3.9760	3.9760	-0.7262	6.11	0.11	-0.750			
0.0635	4061.71	3.9730	3.9729	-0.7275	6.11	0.11	-0.750			
0.0657	4201.63	3.9700	3.9703	-0.7276	6.12	0.12	-0.750			
0.0678	4340.39	3.9670	3.9670	-0.7286	6.13	0.13	-0.750			
0.0700	4479.75	3.9640	3.9640	-0.7352	6.13	0.13	-0.750			
0.0722	4619.05	3.9610	3.9608	-0.7353	6.14	0.14	-0.750			
0.0744	4762.22	3.9580	3.9581	-0.7484	6.15	0.15	-0.750			
0.0767	4907.05	3.9550	3.9551	-0.7555	6.16	0.16	-0.750			
0.0790	5053.83	3.9520	3.9520	-0.7633	6.16	0.16	-0.750			
0.0813	5200.79	3.9490	3.9489	-0.7644	6.17	0.17	-0.750			
0.0835	5346.68	3.9460	3.9460	-0.7630	6.18	0.18	-0.750			
0.0859	5494.66	3.9430	3.9431	-0.7619	6.19	0.19	-0.750			
0.0882	5642.04	3.9400	3.9398	-0.7572	6.20	0.20	-0.750			
0.0904	5784.71	3.9370	3.9374	-0.7598	6.21	0.21	-0.750			
0.0927	5931.32	3.9340	3.9340	-0.7587	6.22	0.22	-0.750			
0.0949	6076.31	3.9310	3.9309	-0.7591	6.23	0.23	-0.750			
0.0972	6221.94	3.9280	3.9280	-0.7646	6.24	0.24	-0.750			
0.0995	6368.26	3.9250	3.9251	-0.7674	6.25	0.25	-0.750			
0.1018	6517.31	3.9220	3.9219	-0.7668	6.26	0.26	-0.750			
0.1041	6665.59	3.9190	3.9190	-0.7653	6.26	0.26	-0.750			
0.1064	6807.76	3.9160	3.9162	-0.7715	6.27	0.27	-0.750			
0.1087	6958.17	3.9130	3.9130	-0.7792	6.28	0.28	-0.750			
0.1111	7107.83	3.9100	3.9098	-0.7787	6.29	0.29	-0.750			
0.1134	7257.91	3.9070	3.9069	-0.7806	6.30	0.30	-0.750			
0.1158	7409.46	3.9040	3.9043	-0.7850	6.31	0.31	-0.750			
0.1181	7561.03	3.9010	3.9009	-0.7871	6.32	0.32	-0.750			
0.1205	7711.77	3.8980	3.8980	-0.7892	6.33	0.33	-0.750			
0.1228	7861.09	3.8950	3.8950	-0.7892	6.34	0.34	-0.750			
0.1252	8015.09	3.8920	3.8920	-0.7901	6.35	0.35	-0.750			
0.1276	8167.68	3.8890	3.8890	-0.7844	6.36	0.36	-0.750			
0.1300	8318.28	3.8860	3.8860	-0.7850	6.37	0.37	-0.750			
0.1323	8467.92	3.8830	3.8830	-0.7816	6.38	0.38	-0.750			
0.1346	8615.63	3.8800	3.8799	-0.7812	6.39	0.39	-0.750			
0.1369	8764.29	3.8770	3.8771	-0.7875	6.40	0.40	-0.750			
0.1393	8915.69	3.8740	3.8740	-0.7934	6.41	0.41	-0.750			
0.1417	9070.38	3.8710	3.8709	-0.8016	6.42	0.42	-0.750			
0.1441	9225.39	3.8680	3.8680	-0.8068	6.43	0.43	-0.750			
0.1466	9381.33	3.8650	3.8650	-0.8028	6.44	0.44	-0.750			
0.1490	9537.90	3.8620	3.8620	-0.8025	6.45	0.45	-0.750			
0.1514	9689.18	3.8590	3.8590	-0.8081	6.46	0.46	-0.750			
0.1538	9842.54	3.8560	3.8561	-0.8063	6.47	0.47	-0.750			
0.1562	9997.62	3.8530	3.8529	-0.8133	6.48	0.48	-0.750			
0.1587	10153.73	3.8500	3.8500	-0.8211	6.49	0.49	-0.750			
0.1612	10313.60	3.8470	3.8472	-0.8188	6.50	0.50	-0.750			
0.1636	10473.49	3.8440	3.8439	-0.8224	6.51	0.51	-0.750			
0.1661	10632.12	3.8410	3.8411	-0.8189	6.52	0.52	-0.750			
0.1686	10787.34	3.8380	3.8379	-0.8106	6.53	0.53	-0.750			
0.1710	10942.97	3.8350	3.8350	-0.8218	6.54	0.54	-0.750			
0.1734	11100.69	3.8320	3.8319	-0.8220	6.55	0.55	-0.750			
0.1759	11258.88	3.8290	3.8288	-0.8242	6.56	0.56	-0.750			
0.1784	11418.29	3.8260	3.8263	-0.8313	6.57	0.57	-0.750			
0.1809	11577.09	3.8230	3.8230	-0.8350	6.58	0.58	-0.750			
0.1834	11738.50	3.8200	3.8199	-0.8357	6.60	0.60	-0.750			
0.1859	11898.21	3.8170	3.8170	-0.8194	6.61	0.61	-0.750			
0.1884	12060.15	3.8140	3.8139	-0.8201	6.62	0.62	-0.750			
0.1909	12215.01	3.8110	3.8113	-0.8218	6.63	0.63	-0.750			
0.1933	12371.97	3.8080	3.8079	-0.8141	6.64	0.64	-0.750			
0.1957	12523.74	3.8050	3.8049	-0.8162	6.65	0.65	-0.750			
0.1981	12680.71	3.8020	3.8020	-0.8282	6.66	0.66	-0.750			
0.2006	12841.04	3.7990	3.7991	-0.8430	6.67	0.67	-0.750			
0.2032	13006.97	3.7960	3.7960	-0.8419	6.68	0.68	-0.750			
0.2058	13170.31	3.7930	3.7930	-0.8466	6.69	0.69	-0.750			
0.2083	13332.15	3.7900	3.7901	-0.8420	6.70	0.70	-0.750			
0.2108	13493.30	3.7870	3.7869	-0.8479	6.71	0.71	-0.750			
0.2133	13654.29	3.7840	3.7840	-0.8435	6.72	0.72	-0.750			
0.2159	13816.92	3.7810	3.7809	-0.8413	6.73	0.73	-0.750			
0.2184	13979.41	3.7780	3.7780	-0.8440	6.74	0.74	-0.750			
0.2210	14144.42	3.7750	3.7751	-0.8469	6.75	0.75	-0.750			
0.2235	14303.96	3.7720	3.7721	-0.8448	6.76	0.76	-0.750			
0.2260	14466.54	3.7690	3.7689	-0.8452	6.77	0.77	-0.750			
0.2286	14627.43	3.7660	3.7660	-0.8483	6.78	0.78	-0.750			
0.2311	14790.16	3.7630	3.7630	-0.8573	6.79	0.79	-0.750			
0.2337	14955.31	3.7600	3.7600	-0.8639	6.80	0.80	-0.750			
0.2363	15122.56	3.7570	3.7570	-0.8676	6.81	0.81	-0.750			
0.2389	15290.82	3.7540	3.7540	-0.8769	6.82	0.82	-0.750			
0.2416	15459.66	3.7510	3.7511	-0.8773	6.83	0.83	-0.750			
0.2442	15629.22	3.7480	3.7480	-0.8835	6.85	0.85	-0.750			
0.2469	15799.16	3.7450	3.7450	-0.8811	6.86	0.86	-0.750			
0.2495	15967.29	3.7420	3.7420	-0.8811	6.87	0.87	-0.750			
0.2521	16136.63	3.7390	3.7389	-0.8851	6.88	0.88	-0.750			
0.2548	16307.04	3.7360	3.7360	-0.8874	6.89	0.89	-0.750			
0.2575	16477.73	3.7330	3.7329	-0.8822	6.90	0.90	-0.750			
0.2601	16649.46	3.7300	3.7300	-0.8792	6.91	0.91	-0.750			
0.2628	16817.28	3.7270	3.7270	-0.8701	6.92	0.92	-0.750			
0.2654	16982.64	3.7240	3.7243	-0.8751	6.93	0.93	-0.750			
0.2679	17148.23	3.7210	3.7210	-0.8761	6.94	0.94	-0.750			
0.2705	17314.68	3.7180	3.7179	-0.8761	6.95	0.95	-0.750			
0.2732	17482.44	3.7150	3.7150	-0.8921	6.96	0.96	-0.750			
0.2759	17656.57	3.7120	3.7121	-0.9075	6.97	0.97	-0.750			
0.2787	17833.61	3.7090	3.7091	-0.9113	6.98	0.98	-0.750			
0.2814	18009.69	3.7060	3.7058	-0.9192	6.99	0.99	-0.750			
0.2842	18185.61	3.7030	3.7031	-0.9200	7.00	1.00	-0.750			
0.2869	18363.20	3.7000	3.7000	-0.9213	7.01	1.01	-0.750			
0.2897	18540.04	3.6970	3.6969	-0.9261	7.02	1.02	-0.750			
0.2924	18715.80	3.6940	3.6942	-0.9248	7.03	1.03	-0.750			
0.2953	18896.15	3.6910	3.6909	-0.9333	7.04	1.04	-0.750			
0.2981	19076.24	3.6880	3.6880	-0.9391	7.04	1.04	-0.750			
0.3009	19256.20	3.6850	3.6850	-0.9449	7.05	1.05	-0.750			
0.3037	19437.49	3.6820	3.6820	-0.9581	7.06	1.06	-0.750			
0.3066	19623.07	3.6790	3.6790	-0.9702	7.07	1.07	-0.750			
0.3095	19809.11	3.6760	3.6759	-0.9755	7.08	1.08	-0.750			
0.3125	19998.89	3.6730	3.6730	-0.9840	7.08	1.08	-0.750			
0.3155	20190.74	3.6700	3.6701	-0.9878	7.09	1.09	-0.750			
0.3184	20378.97	3.6670	3.6669	-0.9991	7.10	1.10	-0.750			
0.3214	20570.73	3.6640	3.6642	-1.0042	7.11	1.11	-0.750			
0.3245	20765.87	3.6610	3.6609	-1.0003	7.12	1.12	-0.750			
0.3275	20959.00	3.6580	3.6580	-1.0105	7.13	1.13	-0.750			
0.3305	21153.09	3.6550	3.6551	-1.0152	7.14	1.14	-0.750			
0.3335	21345.66	3.6520	3.6520	-1.0242	7.15	1.15	-0.750			
0.3366	21542.19	3.6490	3.6489	-1.0332	7.16	1.16	-0.750			
0.3397	21738.28	3.6460	3.6458	-1.0412	7.17	1.17	-0.750			
0.3429	21943.37	3.6430	3.6430	-1.0586	7.18	1.18	-0.750			
0.3461	22149.30	3.6400	3.6400	-1.0731	7.18	1.18	-0.750			
0.3493	22356.25	3.6370	3.6370	-1.0778	7.19	1.19	-0.750			
0.3526	22563.43	3.6340	3.6340	-1.0845	7.20	1.20	-0.750			
0.3558	22773.58	3.6310	3.6310	-1.0966	7.21	1.21	-0.750			
0.3592	22986.60	3.6280	3.6279	-1.1087	7.22	1.22	-0.750			
0.3625	23200.59	3.6250	3.6249	-1.1146	7.22	1.22	-0.750			
0.3659	23414.56	3.6220	3.6222	-1.1290	7.23	1.23	-0.750			
0.3693	23633.23	3.6190	3.6190	-1.1300	7.24	1.24	-0.750			
0.3727	23851.70	3.6160	3.6160	-1.1344	7.25	1.25	-0.750			
0.3760	24067.14	3.6130	3.6129	-1.1389	7.26	1.26	-0.750			
0.3795	24288.93	3.6100	3.6099	-1.1609	7.26	1.26	-0.750			
0.3830	24509.05	3.6070	3.6069	-1.1751	7.27	1.27	-0.750			
0.3865	24737.70	3.6040	3.6038	-1.1873	7.28	1.28	-0.750			
0.3901	24965.60	3.6010	3.6012	-1.1981	7.29	1.29	-0.750			
0.3938	25202.67	3.5980	3.5980	-1.2092	7.30	1.30	-0.750	0.350	0.883	
0.3974	25436.27	3.5950	3.5951	-1.2181	7.30	1.30	-0.750			
0.4011	25668.31	3.5920	3.5919	-1.2288	7.31	1.31	-0.750			
0.4047	25902.92	3.5890	3.5889	-1.2372	7.31	1.31	-0.750			
0.4084	26139.00	3.5860	3.5859	-1.2415	7.32	1.32	-0.750			
0.4122	26379.28	3.5830	3.5831	-1.2657	7.33	1.33	-0.750			
0.4160	26625.50	3.5800	3.5802	-1.2817	7.34	1.34	-0.750			
0.4199	26876.62	3.5770	3.5769	-1.2888	7.35	1.35	-0.750			
0.4238	27122.43	3.5740	3.5740	-1.2991	7.35	1.35	-0.750			
0.4277	27374.76	3.5710	3.5711	-1.3087	7.36	1.36	-0.750			
0.4317	27627.97	3.5680	3.5679	-1.3234	7.37	1.37	-0.750			
0.4357	27882.98	3.5650	3.5651	-1.3298	7.38	1.38	-0.750			
0.4396	28135.79	3.5620	3.5621	-1.3398	7.39	1.39	-0.750			
0.4437	28396.33	3.5590	3.5589	-1.3526	7.40	1.40	-0.750			
0.4478	28659.47	3.5560	3.5560	-1.3618	7.40	1.40	-0.750			
0.4519	28918.95	3.5530	3.5530	-1.3732	7.41	1.41	-0.750			
0.4560	29185.70	3.5500	3.5500	-1.3824	7.42	1.42	-0.750			
0.4602	29453.81	3.5470	3.5468	-1.3809	7.43	1.43	-0.750			
0.4644	29718.93	3.5440	3.5441	-1.3967	7.44	1.44	-0.750			
0.4685	29986.48	3.5410	3.5410	-1.3990	7.45	1.45	-0.750			
0.4728	30256.42	3.5380	3.5378	-1.4252	7.45	1.45	-0.750			
0.4771	30532.01	3.5350	3.5351	-1.4378	7.46	1.46	-0.750			
0.4814	30807.87	3.5320	3.5319	-1.4467	7.47	1.47	-0.750			
0.4858	31092.24	3.5290	3.5291	-1.4785	7.48	1.48	-0.750			
0.4903	31381.06	3.5260	3.5261	-1.4752	7.49	1.49	-0.750			
0.4947	31661.95	3.5230	3.5230	-1.4604	7.50	1.50	-0.750			
0.4992	31947.33	3.5200	3.5199	-1.4560	7.50	1.50	-0.750			
0.5035	32224.60	3.5170	3.5170	-1.4487	7.51	1.51	-0.750			
0.5079	32504.56	3.5140	3.5136	-1.4449	7.52	1.52	-0.750			
0.5121	32776.11	3.5110	3.5111	-1.4375	7.52	1.52	-0.750			
0.5164	33048.59	3.5080	3.5083	-1.4453	7.53	1.53	-0.750			
0.5208	33331.64	3.5050	3.5048	-1.4691	7.55	1.55	-0.750			
0.5252	33614.02	3.5020	3.5019	-1.4712	7.56	1.56	-0.750			
0.5297	33897.80	3.4990	3.4991	-1.4564	7.57	1.57	-0.750			
0.5342	34185.76	3.4960	3.4960	-1.4524	7.59	1.59	-0.750			
0.5385	34461.58	3.4930	3.4930	-1.4543	7.60	1.60	-0.750			
0.5428	34736.97	3.4900	3.4901	-1.4333	7.61	1.61	-0.750			
0.5470	35007.59	3.4870	3.4867	-1.4366	7.62	1.62	-0.750			
0.5513	35285.79	3.4840	3.4840	-1.4336	7.63	1.63	-0.750			
0.5556	35561.32	3.4810	3.4810	-1.4452	7.64	1.64	-0.750			
0.5601	35845.05	3.4780	3.4782	-1.4338	7.65	1.65	-0.750			
0.5644	36123.26	3.4750	3.4750	-1.4223	7.66	1.66	-0.750			
0.5686	36389.91	3.4720	3.4719	-1.3973	7.67	1.67	-0.750			
0.5727	36655.91	3.4690	3.4691	-1.3883	7.68	1.68	-0.750			
0.5769	36918.71	3.4660	3.4659	-1.3726	7.69	1.69	-0.750			
0.5810	37183.64	3.4630	3.4630	-1.3737	7.70	1.70	-0.750			
0.5851	37446.00	3.4600	3.4600	-1.3610	7.71	1.71	-0.750			
0.5892	37710.06	3.4570	3.4571	-1.3733	7.73	1.73	-0.750			
0.5934	37975.28	3.4540	3.4538	-1.3610	7.74	1.74	-0.750			
0.5975	38238.63	3.4510	3.4509	-1.3473	7.76	1.76	-0.750			
0.6015	38493.83	3.4480	3.4480	-1.3432	7.77	1.77	-0.750			
0.6055	38751.17	3.4450	3.4450	-1.3293	7.79	1.79	-0.750			
0.6095	39004.98	3.4420	3.4419	-1.3178	7.80	1.80	-0.750			
0.6134	39257.98	3.4390	3.4389	-1.3057	7.81	1.81	-0.750			
0.6173	39506.18	3.4360	3.4360	-1.2768	7.83	1.83	-0.750			
0.6212	39757.61	3.4330	3.4330	-1.2602	7.84	1.84	-0.750			
0.6249	39994.81	3.4300	3.4301	-1.2251	7.85	1.85	-0.750			
0.6285	40222.32	3.4270	3.4272	-1.1913	7.86	1.86	-0.750			
0.6320	40450.63	3.4240	3.4238	-1.1732	7.88	1.88	-0.750			
0.6355	40669.15	3.4210	3.4210	-1.1467	7.89	1.89	-0.750			
0.6389	40888.99	3.4180	3.4179	-1.1241	7.90	1.90	-0.750			
0.6423	41104.39	3.4150	3.4150	-1.1265	7.92	1.92	-0.750			
0.6456	41319.82	3.4120	3.4120	-1.1060	7.94	1.94	-0.750			
0.6489	41531.91	3.4090	3.4088	-1.0776	7.95	1.95	-0.750			
0.6521	41736.63	3.4060	3.4061	-1.0494	7.97	1.97	-0.750			
0.6553	41937.58	3.4030	3.4031	-1.0318	7.98	1.98	-0.750			
0.6584	42134.67	3.4000	3.3999	-1.0000	8.00	2.00	-0.750			
0.6613	42323.11	3.3970	3.3968	-0.9704	8.01	2.01	-0.750			
0.6641	42501.76	3.3940	3.3941	-0.9350	8.02	2.02	-0.750			
0.6669	42682.79	3.3910	3.3910	-0.9187	8.04	2.04	-0.750			
0.6696	42856.33	3.3880	3.3879	-0.8967	8.05	2.05	-0.750			
0.6723	43024.75	3.3850	3.3851	-0.8710	8.07	2.07	-0.750			
0.6748	43189.01	3.3820	3.3819	-0.8473	8.08	2.08	-0.750			
0.6774	43351.48	3.3790	3.3790	-0.8279	8.10	2.10	-0.750			
0.6798	43506.72	3.3760	3.3760	-0.8039	8.11	2.11	-0.750			
0.6822	43658.90	3.3730	3.3729	-0.7864	8.12	2.12	-0.750			
0.6845	43808.27	3.3700	3.3701	-0.7628	8.14	2.14	-0.750			
0.6867	43951.99	3.3670	3.3669	-0.7419	8.15	2.15	-0.750			
0.6890	44093.66	3.3640	3.3641	-0.7240	8.16	2.16	-0.750			
0.6911	44231.19	3.3610	3.3610	-0.7049	8.17	2.17	-0.750			
0.6932	44363.83	3.3580	3.3579	-0.6847	8.19	2.19	-0.750			
0.6952	44492.64	3.3550	3.3550	-0.6666	8.20	2.20	-0.750			
0.6971	44616.85	3.3520	3.3521	-0.6509	8.21	2.21	-0.750			
0.6991	44741.75	3.3490	3.3490	-0.6382	8.23	2.23	-0.750			
0.7010	44862.76	3.3460	3.3459	-0.6207	8.24	2.24	-0.750			
0.7028	44980.96	3.3430	3.3430	-0.6046	8.25	2.25	-0.750			
0.7046	45095.67	3.3400	3.3401	-0.5873	8.26	2.26	-0.750			
0.7064	45206.49	3.3370	3.3369	-0.5712	8.27	2.27	-0.750			
0.7080	45312.57	3.3340	3.3341	-0.5563	8.28	2.28	-0.750			
0.7096	45417.50	3.3310	3.3309	-0.5481	8.29	2.29	-0.750			
0.7113	45522.92	3.3280	3.3280	-0.5335	8.30	2.30	-0.750			
0.7129	45624.16	3.3250	3.3250	-0.5226	8.31	2.31	-0.750			
0.7144	45723.93	3.3220	3.3220	-0.5105	8.32	2.32	-0.750			
0.7160	45821.10	3.3190	3.3189	-0.4961	8.33	2.33	-0.750			
0.7174	45913.61	3.3160	3.3159	-0.4814	8.35	2.35	-0.750			
0.7188	46003.97	3.3130	3.3130	-0.4709	8.36	2.36	-0.750			
0.7202	46092.53	3.3100	3.3101	-0.4589	8.37	2.37	-0.750			
0.7216	46181.23	3.3070	3.3069	-0.4509	8.38	2.38	-0.750			
0.7229	46265.14	3.3040	3.3041	-0.4415	8.39	2.39	-0.750			
0.7242	46349.97	3.3010	3.3010	-0.4347	8.40	2.40	-0.750			
0.7255	46433.40	3.2980	3.2979	-0.4257	8.41	2.41	-0.750			
0.7268	46514.26	3.2950	3.2950	-0.4154	8.42	2.42	-0.750			
0.7280	46592.35	3.2920	3.2923	-0.4070	8.43	2.43	-0.750			
0.7292	46670.42	3.2890	3.2890	-0.3992	8.44	2.44	-0.750			
0.7304	46745.83	3.2860	3.2859	-0.3901	8.45	2.45	-0.750			
0.7316	46819.23	3.2830	3.2831	-0.3796	8.46	2.46	-0.750			
0.7327	46891.72	3.2800	3.2800	-0.3737	8.47	2.47	-0.750			
0.7338	46962.61	3.2770	3.2769	-0.3660	8.48	2.48	-0.750			
0.7349	47032.26	3.2740	3.2740	-0.3581	8.49	2.49	-0.750			
0.7359	47099.42	3.2710	3.2711	-0.3527	8.50	2.50	-0.750			
0.7370	47167.12	3.2680	3.2679	-0.3498	8.51	2.51	-0.750			
0.7380	47234.34	3.2650	3.2650	-0.3429	8.52	2.52	-0.750			
0.7391	47299.89	3.2620	3.2619	-0.3373	8.53	2.53	-0.750			
0.7401	47363.82	3.2590	3.2593	-0.3297	8.54	2.54	-0.750			
0.7410	47426.89	3.2560	3.2560	-0.3238	8.55	2.55	-0.750			
0.7420	47488.16	3.2530	3.2530	-0.3163	8.56	2.56	-0.750			
0.7429	47546.78	3.2500	3.2500	-0.3103	8.57	2.57	-0.750			
0.7438	47606.13	3.2470	3.2470	-0.3066	8.57	2.57	-0.750			
0.7448	47665.92	3.2440	3.2440	-0.3042	8.58	2.58	-0.750			
0.7457	47723.59	3.2410	3.2411	-0.2982	8.59	2.59	-0.750			
0.7466	47781.11	3.2380	3.2380	-0.2934	8.60	2.60	-0.750			
0.7474	47836.57	3.2350	3.2350	-0.2882	8.61	2.61	-0.750			
0.7483	47891.00	3.2320	3.2320	-0.2821	8.62	2.62	-0.750			
0.7491	47944.09	3.2290	3.2290	-0.2759	8.63	2.63	-0.750			
0.7500	47996.91	3.2260	3.2259	-0.2743	8.64	2.64	-0.750			
0.7508	48049.09	3.2230	3.2231	-0.2706	8.64	2.64	-0.750			
0.7516	48100.66	3.2200	3.2199	-0.2680	8.65	2.65	-0.750			
0.7524	48151.89	3.2170	3.2169	-0.2655	8.65	2.65	-0.750			
0.7532	48202.60	3.2140	3.2141	-0.2605	8.65	2.65	-0.750			
0.7540	48253.11	3.2110	3.2110	-0.2577	8.66	2.66	-0.750			
0.7547	48302.16	3.2080	3.2081	-0.2533	8.67	2.67	-0.750			
0.7555	48349.52	3.2050	3.2050	-0.2484	8.68	2.68	-0.750			
0.7562	48396.88	3.2020	3.2020	-0.2455	8.69	2.69	-0.750			
0.7569	48443.49	3.1990	3.1989	-0.2420	8.70	2.70	-0.750			
0.7576	48489.20	3.1960	3.1960	-0.2386	8.71	2.71	-0.750			
0.7584	48535.10	3.1930	3.1931	-0.2379	8.72	2.72	-0.750			
0.7591	48580.69	3.1900	3.1900	-0.2356	8.73	2.73	-0.750			
0.7598	48625.70	3.1870	3.1870	-0.2333	8.74	2.74	-0.750			
0.7605	48670.72	3.1840	3.1839	-0.2288	8.75	2.75	-0.750			
0.7612	48714.18	3.1810	3.1810	-0.2259	8.76	2.76	-0.750			
0.7618	48757.07	3.1780	3.1780	-0.2234	8.77	2.77	-0.750			
0.7625	48799.66	3.1750	3.1752	-0.2205	8.77	2.77	-0.750			
0.7631	48841.47	3.1720	3.1720	-0.2177	8.78	2.78	-0.750			
0.7638	48882.64	3.1690	3.1689	-0.2149	8.78	2.78	-0.750			
0.7644	48923.84	3.1660	3.1661	-0.2129	8.79	2.79	-0.750			
0.7651	48964.90	3.1630	3.1630	-0.2099	8.80	2.80	-0.750			
0.7657	49005.32	3.1600	3.1600	-0.2079	8.80	2.80	-0.750			
0.7663	49044.57	3.1570	3.1570	-0.2041	8.81	2.81	-0.750			
0.7669	49083.47	3.1540	3.1541	-0.2012	8.82	2.82	-0.750			
0.7675	49121.58	3.1510	3.1509	-0.1994	8.83	2.83	-0.750			
0.7681	49159.50	3.1480	3.1480	-0.1965	8.84	2.84	-0.750			
0.7687	49197.07	3.1450	3.1450	-0.1948	8.84	2.84	-0.750			
0.7693	49234.22	3.1420	3.1419	-0.1933	8.85	2.85	-0.750			
0.7699	49271.50	3.1390	3.1391	-0.1917	8.86	2.86	-0.750			
0.7704	49307.80	3.1360	3.1360	-0.1899	8.87	2.87	-0.750			
0.7710	49344.12	3.1330	3.1329	-0.1885	8.87	2.87	-0.750			
0.7716	49380.18	3.1300	3.1300	-0.1873	8.88	2.88	-0.750			
0.7721	49415.79	3.1270	3.1270	-0.1855	8.89	2.89	-0.750			
0.7727	49451.49	3.1240	3.1240	-0.1849	8.90	2.90	-0.750			
0.7732	49487.00	3.1210	3.1210	-0.1827	8.90	2.90	-0.750			
0.7738	49522.04	3.1180	3.1180	-0.1806	8.91	2.91	-0.750			
0.7743	49556.81	3.1150	3.1149	-0.1788	8.92	2.92	-0.750			
0.7749	49590.79	3.1120	3.1121	-0.1758	8.92	2.92	-0.750			
0.7754	49624.24	3.1090	3.1090	-0.1735	8.93	2.93	-0.750			
0.7759	49656.98	3.1060	3.1060	-0.1721	8.94	2.94	-0.750			
0.7764	49689.60	3.1030	3.1031	-0.1704	8.94	2.94	-0.750			
0.7769	49722.26	3.1000	3.1000	-0.1698	8.95	2.95	-0.750			
0.7774	49754.82	3.0970	3.0970	-0.1688	8.95	2.95	-0.750			
0.7779	49787.20	3.0940	3.0941	-0.1677	8.96	2.96	-0.750			
0.7784	49819.57	3.0910	3.0910	-0.1668	8.97	2.97	-0.750			
0.7789	49851.44	3.0880	3.0880	-0.1651	8.98	2.98	-0.750			
0.7794	49883.00	3.0850	3.0850	-0.1642	8.98	2.98	-0.750			
0.7799	49913.98	3.0820	3.0820	-0.1632	8.99	2.99	-0.750			
0.7804	49945.42	3.0790	3.0789	-0.1621	9.00	3.00	-0.750			
0.7809	49976.48	3.0760	3.0760	-0.1613	9.01	3.01	-0.750			
0.7814	50007.50	3.0730	3.0730	-0.1601	9.02	3.02	-0.750			
0.7818	50038.29	3.0700	3.0700	-0.1590	9.02	3.02	-0.750			
0.7823	50068.58	3.0670	3.0671	-0.1581	9.03	3.03	-0.750			
0.7828	50098.81	3.0640	3.0639	-0.1568	9.04	3.04	-0.750			
0.7833	50128.61	3.0610	3.0610	-0.1551	9.05	3.05	-0.750			
0.7837	50158.23	3.0580	3.0579	-0.1534	9.05	3.05	-0.750			
0.7842	50187.84	3.0550	3.0550	-0.1527	9.06	3.06	-0.750			
0.7846	50216.83	3.0520	3.0521	-0.1519	9.07	3.07	-0.750			
0.7851	50245.83	3.0490	3.0490	-0.1509	9.08	3.08	-0.750			
0.7855	50274.91	3.0460	3.0460	-0.1495	9.08	3.08	-0.750			
0.7860	50303.48	3.0430	3.0428	-0.1481	9.09	3.09	-0.750			
0.7864	50331.63	3.0400	3.0401	-0.1470	9.10	3.10	-0.750			
0.7869	50359.75	3.0370	3.0371	-0.1468	9.10	3.10	-0.750			
0.7873	50387.85	3.0340	3.0340	-0.1460	9.11	3.11	-0.750			
0.7877	50415.82	3.0310	3.0309	-0.1453	9.12	3.12	-0.750			
0.7882	50443.39	3.0280	3.0280	-0.1442	9.12	3.12	-0.750			
0.7886	50471.02	3.0250	3.0251	-0.1441	9.13	3.13	-0.750			
0.7890	50499.11	3.0220	3.0220	-0.1441	9.14	3.14	-0.750			
0.7895	50526.66	3.0190	3.0189	-0.1429	9.15	3.15	-0.750			
0.7899	50554.01	3.0160	3.0159	-0.1414	9.15	3.15	-0.750			
0.7903	50580.82	3.0130	3.0131	-0.1406	9.16	3.16	-0.750			
0.7907	50607.82	3.0100	3.0100	-0.1400	9.17	3.17	-0.750			
0.7912	50634.61	3.0070	3.0069	-0.1391	9.17	3.17	-0.750			
0.7916	50661.17	3.0040	3.0039	-0.1386	9.18	3.18	-0.750			
0.7920	50688.00	3.0010	3.0010	-0.1441	9.19	3.19	-0.750			
