Ah_balance (normalized)	Ah_balance (mAh)	Voltage - fit (V)	Voltage -  interpolate (V)	dQ/dV (1/V)	Temperature (°C)	Temperature - diff (°C)	Current (C)	R_DC 0ms (mOhm)	R_DC 50ms (mOhm)	R_DC 50 ms PEC (mOhm)
0.0000	0.00	4.0860	4.1295	0.0000	6.00	-0.00	-0.750			
0.0000	0.00	4.0890	4.1295	0.0000	6.00	-0.00	-0.750			
0.0000	0.00	4.0920	4.1295	0.0000	6.00	-0.00	-0.750			
0.0001	4.93	4.0830	4.0908	-0.0379	6.00	-0.00	-0.750			
0.0002	14.64	4.0800	4.0808	-0.0632	6.00	-0.00	-0.750			
0.0005	29.16	4.0770	4.0772	-0.0887	6.00	0.00	-0.750			
0.0008	49.13	4.0740	4.0738	-0.1127	6.00	0.00	-0.750			
0.0011	73.15	4.0710	4.0710	-0.1375	6.00	0.00	-0.750			
0.0016	101.95	4.0680	4.0679	-0.1594	6.00	0.00	-0.750			
0.0021	134.81	4.0650	4.0651	-0.1825	6.00	0.00	-0.750			
0.0027	173.06	4.0620	4.0620	-0.2060	6.00	0.00	-0.750			
0.0033	214.28	4.0590	4.0591	-0.2311	6.00	0.00	-0.750			
0.0041	260.88	4.0560	4.0560	-0.2531	6.00	0.00	-0.750			
0.0049	311.39	4.0530	4.0530	-0.2776	6.00	0.00	-0.750			
0.0057	367.03	4.0500	4.0501	-0.3027	6.00	0.00	-0.750			
0.0067	427.59	4.0470	4.0470	-0.3294	6.01	0.01	-0.750			
0.0077	493.44	4.0440	4.0440	-0.3535	6.01	0.01	-0.750			
0.0088	563.96	4.0410	4.0410	-0.3779	6.01	0.01	-0.750			
0.0100	639.19	4.0380	4.0381	-0.3994	6.01	0.01	-0.750			
0.0112	719.40	4.0350	4.0350	-0.4216	6.01	0.01	-0.750			
0.0125	801.67	4.0320	4.0320	-0.4405	6.01	0.01	-0.750			
0.0139	888.35	4.0290	4.0290	-0.4589	6.01	0.01	-0.750			
0.0153	977.71	4.0260	4.0260	-0.4780	6.01	0.01	-0.750			
0.0167	1071.53	4.0230	4.0230	-0.4963	6.02	0.02	-0.750			
0.0183	1168.65	4.0200	4.0200	-0.5127	6.02	0.02	-0.750			
0.0198	1269.96	4.0170	4.0170	-0.5313	6.02	0.02	-0.750			
0.0215	1373.39	4.0140	4.0139	-0.5464	6.02	0.02	-0.750			
0.0231	1479.09	4.0110	4.0111	-0.5628	6.03	0.03	-0.750			
0.0248	1588.69	4.0080	4.0080	-0.5814	6.03	0.03	-0.750			
0.0266	1701.83	4.0050	4.0049	-0.5972	6.04	0.04	-0.750			
0.0284	1819.65	4.0020	4.0019	-0.6119	6.04	0.04	-0.750			
0.0303	1939.07	3.9990	3.9990	-0.6263	6.05	0.05	-0.750			
0.0322	2060.10	3.9960	3.9961	-0.6386	6.06	0.06	-0.750			
0.0341	2185.07	3.9930	3.9930	-0.6490	6.07	0.07	-0.750			
0.0361	2309.64	3.9900	3.9900	-0.6602	6.08	0.08	-0.750			
0.0381	2437.98	3.9870	3.9871	-0.6647	6.09	0.09	-0.750			
0.0401	2567.52	3.9840	3.9839	-0.6696	6.10	0.10	-0.750			
0.0421	2696.77	3.9810	3.9811	-0.6783	6.11	0.11	-0.750			
0.0442	2827.04	3.9780	3.9781	-0.6776	6.12	0.12	-0.750			
0.0462	2957.00	3.9750	3.9749	-0.6812	6.12	0.12	-0.750			
0.0482	3087.70	3.9720	3.9720	-0.6889	6.13	0.13	-0.750			
0.0503	3218.75	3.9690	3.9692	-0.6919	6.14	0.14	-0.750			
0.0524	3354.34	3.9660	3.9659	-0.7013	6.15	0.15	-0.750			
0.0545	3490.42	3.9630	3.9630	-0.7065	6.16	0.16	-0.750			
0.0566	3625.31	3.9600	3.9600	-0.7159	6.16	0.16	-0.750			
0.0588	3765.78	3.9570	3.9570	-0.7209	6.17	0.17	-0.750			
0.0610	3904.52	3.9540	3.9539	-0.7184	6.18	0.18	-0.750			
0.0631	4041.53	3.9510	3.9512	-0.7205	6.19	0.19	-0.750			
0.0653	4180.10	3.9480	3.9480	-0.7268	6.20	0.20	-0.750			
0.0675	4318.23	3.9450	3.9450	-0.7344	6.22	0.22	-0.750			
0.0697	4459.99	3.9420	3.9419	-0.7346	6.23	0.23	-0.750			
0.0719	4602.53	3.9390	3.9390	-0.7382	6.24	0.24	-0.750			
0.0742	4746.50	3.9360	3.9360	-0.7382	6.25	0.25	-0.750			
0.0764	4890.35	3.9330	3.9329	-0.7335	6.26	0.26	-0.750			
0.0786	5028.69	3.9300	3.9300	-0.7267	6.28	0.28	-0.750			
0.0807	5164.61	3.9270	3.9271	-0.7266	6.29	0.29	-0.750			
0.0829	5302.91	3.9240	3.9240	-0.7272	6.30	0.30	-0.750			
0.0851	5445.96	3.9210	3.9208	-0.7332	6.31	0.31	-0.750			
0.0873	5586.51	3.9180	3.9181	-0.7372	6.32	0.32	-0.750			
0.0895	5727.73	3.9150	3.9150	-0.7470	6.33	0.33	-0.750			
0.0918	5874.51	3.9120	3.9120	-0.7504	6.34	0.34	-0.750			
0.0940	6017.21	3.9090	3.9088	-0.7581	6.35	0.35	-0.750			
0.0963	6163.07	3.9060	3.9061	-0.7513	6.36	0.36	-0.750			
0.0986	6310.82	3.9030	3.9030	-0.7543	6.37	0.37	-0.750			
0.1009	6455.35	3.9000	3.9002	-0.7512	6.38	0.38	-0.750			
0.1031	6598.73	3.8970	3.8969	-0.7465	6.40	0.40	-0.750			
0.1053	6739.60	3.8940	3.8940	-0.7489	6.41	0.41	-0.750			
0.1076	6883.26	3.8910	3.8910	-0.7542	6.42	0.42	-0.750			
0.1098	7027.19	3.8880	3.8880	-0.7619	6.43	0.43	-0.750			
0.1121	7176.13	3.8850	3.8849	-0.7726	6.45	0.45	-0.750			
0.1145	7326.51	3.8820	3.8819	-0.7726	6.46	0.46	-0.750			
0.1168	7475.89	3.8790	3.8790	-0.7712	6.47	0.47	-0.750			
0.1191	7625.46	3.8760	3.8761	-0.7671	6.47	0.47	-0.750			
0.1214	7770.81	3.8730	3.8730	-0.7618	6.48	0.48	-0.750			
0.1237	7916.30	3.8700	3.8700	-0.7600	6.49	0.49	-0.750			
0.1259	8060.06	3.8670	3.8670	-0.7640	6.50	0.50	-0.750			
0.1282	8206.35	3.8640	3.8639	-0.7706	6.52	0.52	-0.750			
0.1306	8356.77	3.8610	3.8610	-0.7786	6.53	0.53	-0.750			
0.1329	8507.48	3.8580	3.8581	-0.7801	6.54	0.54	-0.750			
0.1353	8659.87	3.8550	3.8550	-0.7831	6.56	0.56	-0.750			
0.1377	8810.57	3.8520	3.8521	-0.7789	6.57	0.57	-0.750			
0.1400	8960.10	3.8490	3.8489	-0.7716	6.58	0.58	-0.750			
0.1423	9106.42	3.8460	3.8461	-0.7665	6.59	0.59	-0.750			
0.1446	9252.20	3.8430	3.8430	-0.7659	6.61	0.61	-0.750			
0.1468	9397.94	3.8400	3.8400	-0.7695	6.62	0.62	-0.750			
0.1492	9547.00	3.8370	3.8368	-0.7724	6.63	0.63	-0.750			
0.1515	9695.43	3.8340	3.8341	-0.7727	6.65	0.65	-0.750			
0.1538	9845.26	3.8310	3.8310	-0.7753	6.66	0.66	-0.750			
0.1562	9995.43	3.8280	3.8281	-0.7715	6.67	0.67	-0.750			
0.1585	10142.17	3.8250	3.8250	-0.7698	6.68	0.68	-0.750			
0.1608	10288.89	3.8220	3.8220	-0.7701	6.69	0.69	-0.750			
0.1631	10435.41	3.8190	3.8192	-0.7696	6.70	0.70	-0.750			
0.1654	10583.98	3.8160	3.8159	-0.7747	6.71	0.71	-0.750			
0.1677	10734.38	3.8130	3.8131	-0.7808	6.73	0.73	-0.750			
0.1701	10885.92	3.8100	3.8100	-0.7790	6.74	0.74	-0.750			
0.1725	11037.31	3.8070	3.8069	-0.7785	6.75	0.75	-0.750			
0.1748	11184.40	3.8040	3.8040	-0.7758	6.77	0.77	-0.750			
0.1771	11331.29	3.8010	3.8010	-0.7811	6.78	0.78	-0.750			
0.1794	11481.23	3.7980	3.7978	-0.7874	6.79	0.79	-0.750			
0.1818	11633.82	3.7950	3.7949	-0.7871	6.80	0.80	-0.750			
0.1842	11785.70	3.7920	3.7922	-0.7893	6.81	0.81	-0.750			
0.1866	11942.26	3.7890	3.7889	-0.7929	6.82	0.82	-0.750			
0.1890	12094.29	3.7860	3.7859	-0.7823	6.84	0.84	-0.750			
0.1912	12239.56	3.7830	3.7830	-0.7748	6.85	0.85	-0.750			
0.1935	12386.23	3.7800	3.7801	-0.7754	6.86	0.86	-0.750			
0.1959	12536.08	3.7770	3.7769	-0.7765	6.87	0.87	-0.750			
0.1982	12685.33	3.7740	3.7739	-0.7838	6.88	0.88	-0.750			
0.2006	12835.63	3.7710	3.7712	-0.7881	6.89	0.89	-0.750			
0.2029	12986.94	3.7680	3.7680	-0.8014	6.90	0.90	-0.750			
0.2053	13142.27	3.7650	3.7650	-0.8136	6.91	0.91	-0.750			
0.2078	13299.21	3.7620	3.7619	-0.8203	6.93	0.93	-0.750			
0.2103	13460.27	3.7590	3.7589	-0.8168	6.94	0.94	-0.750			
0.2128	13618.90	3.7560	3.7561	-0.8139	6.95	0.95	-0.750			
0.2152	13774.85	3.7530	3.7531	-0.8096	6.96	0.96	-0.750			
0.2176	13928.19	3.7500	3.7498	-0.8109	6.97	0.97	-0.750			
0.2200	14079.99	3.7470	3.7470	-0.8031	6.98	0.98	-0.750			
0.2224	14234.01	3.7440	3.7440	-0.8113	6.99	0.99	-0.750			
0.2249	14391.97	3.7410	3.7411	-0.8158	7.00	1.00	-0.750			
0.2273	14549.70	3.7380	3.7380	-0.8247	7.01	1.01	-0.750			
0.2298	14708.92	3.7350	3.7349	-0.8274	7.02	1.02	-0.750			
0.2323	14868.24	3.7320	3.7321	-0.8279	7.03	1.03	-0.750			
0.2348	15027.53	3.7290	3.7289	-0.8257	7.05	1.05	-0.750			
0.2373	15186.92	3.7260	3.7262	-0.8352	7.06	1.06	-0.750			
0.2398	15347.62	3.7230	3.7228	-0.8318	7.07	1.07	-0.750			
0.2423	15506.11	3.7200	3.7200	-0.8401	7.08	1.08	-0.750			
0.2448	15665.37	3.7170	3.7170	-0.8448	7.09	1.09	-0.750			
0.2473	15828.05	3.7140	3.7141	-0.8503	7.11	1.11	-0.750			
0.2499	15993.30	3.7110	3.7109	-0.8647	7.12	1.12	-0.750			
0.2525	16159.15	3.7080	3.7081	-0.8788	7.13	1.13	-0.750			
0.2551	16328.42	3.7050	3.7050	-0.8845	7.14	1.14	-0.750			
0.2579	16503.81	3.7020	3.7019	-0.8834	7.15	1.15	-0.750			
0.2605	16673.35	3.6990	3.6990	-0.8804	7.16	1.16	-0.750			
0.2632	16843.19	3.6960	3.6963	-0.8795	7.17	1.17	-0.750			
0.2658	17009.69	3.6930	3.6928	-0.8861	7.18	1.18	-0.750			
0.2684	17175.03	3.6900	3.6900	-0.8823	7.20	1.20	-0.750			
0.2710	17345.84	3.6870	3.6868	-0.8888	7.21	1.21	-0.750			
0.2737	17519.44	3.6840	3.6840	-0.9036	7.22	1.22	-0.750			
0.2765	17695.52	3.6810	3.6809	-0.9116	7.23	1.23	-0.750			
0.2792	17870.01	3.6780	3.6781	-0.9298	7.24	1.24	-0.750			
0.2820	18050.84	3.6750	3.6750	-0.9395	7.25	1.25	-0.750			
0.2848	18229.77	3.6720	3.6718	-0.9417	7.26	1.26	-0.750			
0.2877	18415.83	3.6690	3.6694	-0.9475	7.27	1.27	-0.750			
0.2906	18599.16	3.6660	3.6659	-0.9539	7.28	1.28	-0.750			
0.2934	18780.24	3.6630	3.6631	-0.9532	7.29	1.29	-0.750			
0.2963	18961.92	3.6600	3.6599	-0.9533	7.30	1.30	-0.750			
0.2992	19145.99	3.6570	3.6569	-0.9588	7.32	1.32	-0.750			
0.3020	19330.48	3.6540	3.6541	-0.9589	7.32	1.32	-0.750			
0.3049	19514.80	3.6510	3.6510	-0.9765	7.33	1.33	-0.750			
0.3079	19704.04	3.6480	3.6479	-0.9852	7.34	1.34	-0.750			
0.3108	19892.56	3.6450	3.6448	-0.9858	7.35	1.35	-0.750			
0.3138	20083.03	3.6420	3.6422	-0.9964	7.35	1.35	-0.750			
0.3168	20277.47	3.6390	3.6390	-1.0043	7.36	1.36	-0.750			
0.3199	20471.28	3.6360	3.6358	-1.0102	7.37	1.37	-0.750			
0.3228	20662.31	3.6330	3.6331	-1.0067	7.38	1.38	-0.750			
0.3259	20858.37	3.6300	3.6301	-1.0201	7.39	1.39	-0.750			
0.3290	21056.30	3.6270	3.6270	-1.0275	7.40	1.40	-0.750			
0.3321	21253.86	3.6240	3.6240	-1.0315	7.41	1.41	-0.750			
0.3351	21449.18	3.6210	3.6210	-1.0359	7.41	1.41	-0.750			
0.3383	21648.14	3.6180	3.6182	-1.0620	7.42	1.42	-0.750			
0.3415	21853.55	3.6150	3.6148	-1.0679	7.43	1.43	-0.750			
0.3447	22062.85	3.6120	3.6119	-1.0752	7.44	1.44	-0.750			
0.3480	22271.77	3.6090	3.6090	-1.0777	7.44	1.44	-0.750			
0.3512	22479.06	3.6060	3.6062	-1.0924	7.45	1.45	-0.750			
0.3545	22690.40	3.6030	3.6030	-1.0942	7.46	1.46	-0.750			
0.3578	22898.87	3.6000	3.5998	-1.0873	7.47	1.47	-0.750			
0.3610	23102.68	3.5970	3.5970	-1.0949	7.48	1.48	-0.750			
0.3643	23316.89	3.5940	3.5942	-1.1239	7.48	1.48	-0.750			
0.3678	23537.59	3.5910	3.5907	-1.1450	7.49	1.49	-0.750			
0.3712	23759.83	3.5880	3.5878	-1.1480	7.50	1.50	-0.750			
0.3747	23980.86	3.5850	3.5852	-1.1394	7.51	1.51	-0.750			
0.3782	24202.91	3.5820	3.5818	-1.1492	7.52	1.52	-0.750	0.396	0.783	
0.3816	24424.64	3.5790	3.5789	-1.1486	7.52	1.52	-0.750			
0.3850	24639.11	3.5760	3.5759	-1.1460	7.53	1.53	-0.750			
0.3883	24853.49	3.5730	3.5731	-1.1571	7.54	1.54	-0.750			
0.3919	25080.49	3.5700	3.5698	-1.1869	7.55	1.55	-0.750			
0.3955	25311.99	3.5670	3.5670	-1.1942	7.56	1.56	-0.750			
0.3991	25543.69	3.5640	3.5640	-1.2038	7.57	1.57	-0.750			
0.4028	25777.25	3.5610	3.5610	-1.2145	7.57	1.57	-0.750			
0.4065	26013.22	3.5580	3.5579	-1.2201	7.58	1.58	-0.750			
0.4101	26244.53	3.5550	3.5549	-1.2150	7.59	1.59	-0.750			
0.4137	26477.57	3.5520	3.5520	-1.2188	7.59	1.59	-0.750			
0.4174	26713.03	3.5490	3.5491	-1.2255	7.60	1.60	-0.750			
0.4211	26949.53	3.5460	3.5459	-1.2371	7.61	1.61	-0.750			
0.4248	27184.57	3.5430	3.5429	-1.2449	7.62	1.62	-0.750			
0.4285	27423.83	3.5400	3.5400	-1.2526	7.63	1.63	-0.750			
0.4323	27666.03	3.5370	3.5370	-1.2603	7.64	1.64	-0.750			
0.4361	27910.58	3.5340	3.5340	-1.2705	7.65	1.65	-0.750			
0.4399	28153.48	3.5310	3.5308	-1.2877	7.65	1.65	-0.750			
0.4438	28404.42	3.5280	3.5280	-1.2928	7.66	1.66	-0.750			
0.4477	28654.66	3.5250	3.5250	-1.2922	7.67	1.67	-0.750			
0.4517	28906.65	3.5220	3.5221	-1.2884	7.67	1.67	-0.750			
0.4556	29155.52	3.5190	3.5192	-1.2780	7.68	1.68	-0.750			
0.4593	29397.43	3.5160	3.5160	-1.2742	7.69	1.69	-0.750			
0.4631	29639.50	3.5130	3.5130	-1.2753	7.70	1.70	-0.750			
0.4669	29878.61	3.5100	3.5098	-1.2748	7.71	1.71	-0.750			
0.4708	30128.59	3.5070	3.5069	-1.2853	7.71	1.71	-0.750			
0.4746	30376.54	3.5040	3.5043	-1.2832	7.72	1.72	-0.750			
0.4785	30626.63	3.5010	3.5009	-1.2912	7.73	1.73	-0.750			
0.4824	30874.11	3.4980	3.4980	-1.2809	7.74	1.74	-0.750			
0.4861	31110.11	3.4950	3.4950	-1.2751	7.75	1.75	-0.750			
0.4900	31357.36	3.4920	3.4920	-1.2748	7.76	1.76	-0.750			
0.4939	31606.47	3.4890	3.4890	-1.2771	7.77	1.77	-0.750			
0.4977	31853.76	3.4860	3.4860	-1.2720	7.78	1.78	-0.750			
0.5015	32098.87	3.4830	3.4831	-1.2713	7.79	1.79	-0.750			
0.5053	32342.29	3.4800	3.4800	-1.2573	7.80	1.80	-0.750			
0.5091	32582.05	3.4770	3.4769	-1.2457	7.81	1.81	-0.750			
0.5128	32816.40	3.4740	3.4740	-1.2332	7.82	1.82	-0.750			
0.5165	33056.18	3.4710	3.4710	-1.2232	7.83	1.83	-0.750			
0.5201	33287.63	3.4680	3.4680	-1.2204	7.84	1.84	-0.750			
0.5237	33519.41	3.4650	3.4650	-1.2248	7.85	1.85	-0.750			
0.5274	33754.58	3.4620	3.4618	-1.2170	7.86	1.86	-0.750			
0.5311	33989.03	3.4590	3.4590	-1.2195	7.87	1.87	-0.750			
0.5348	34224.31	3.4560	3.4561	-1.2113	7.88	1.88	-0.750			
0.5384	34459.25	3.4530	3.4531	-1.2049	7.89	1.89	-0.750			
0.5421	34692.02	3.4500	3.4499	-1.1926	7.90	1.90	-0.750			
0.5456	34915.49	3.4470	3.4471	-1.1698	7.91	1.91	-0.750			
0.5490	35138.44	3.4440	3.4440	-1.1610	7.93	1.93	-0.750			
0.5525	35361.62	3.4410	3.4409	-1.1648	7.94	1.94	-0.750			
0.5560	35582.76	3.4380	3.4379	-1.1554	7.94	1.94	-0.750			
0.5595	35806.62	3.4350	3.4348	-1.1454	7.95	1.95	-0.750			
0.5629	36026.37	3.4320	3.4323	-1.1279	7.96	1.96	-0.750			
0.5663	36245.15	3.4290	3.4290	-1.1177	7.98	1.98	-0.750			
0.5696	36456.86	3.4260	3.4260	-1.0948	7.99	1.99	-0.750			
0.5729	36664.21	3.4230	3.4229	-1.0695	8.01	2.01	-0.750			
0.5760	36861.92	3.4200	3.4200	-1.0581	8.02	2.02	-0.750			
0.5791	37062.95	3.4170	3.4170	-1.0473	8.03	2.03	-0.750			
0.5823	37265.50	3.4140	3.4140	-1.0403	8.05	2.05	-0.750			
0.5854	37464.02	3.4110	3.4109	-1.0256	8.06	2.06	-0.750			
0.5884	37659.95	3.4080	3.4082	-1.0124	8.07	2.07	-0.750			
0.5915	37854.65	3.4050	3.4050	-1.0068	8.09	2.09	-0.750			
0.5945	38047.14	3.4020	3.4020	-0.9942	8.10	2.10	-0.750			
0.5974	38234.93	3.3990	3.3988	-0.9796	8.12	2.12	-0.750			
0.6004	38423.97	3.3960	3.3962	-0.9648	8.13	2.13	-0.750			
0.6032	38607.43	3.3930	3.3930	-0.9533	8.14	2.14	-0.750			
0.6061	38790.29	3.3900	3.3899	-0.9409	8.15	2.15	-0.750			
0.6089	38969.07	3.3870	3.3870	-0.9223	8.16	2.16	-0.750			
0.6116	39144.32	3.3840	3.3838	-0.9058	8.17	2.17	-0.750			
0.6143	39316.87	3.3810	3.3811	-0.8817	8.19	2.19	-0.750			
0.6169	39484.13	3.3780	3.3780	-0.8616	8.20	2.20	-0.750			
0.6195	39647.62	3.3750	3.3751	-0.8437	8.22	2.22	-0.750			
0.6219	39804.75	3.3720	3.3720	-0.8210	8.23	2.23	-0.750			
0.6244	39961.83	3.3690	3.3689	-0.8043	8.24	2.24	-0.750			
0.6268	40115.05	3.3660	3.3660	-0.7879	8.26	2.26	-0.750			
0.6291	40265.29	3.3630	3.3630	-0.7700	8.27	2.27	-0.750			
0.6314	40412.17	3.3600	3.3599	-0.7583	8.28	2.28	-0.750			
0.6337	40554.50	3.3570	3.3570	-0.7367	8.29	2.29	-0.750			
0.6359	40695.28	3.3540	3.3540	-0.7230	8.30	2.30	-0.750			
0.6380	40831.82	3.3510	3.3510	-0.7104	8.31	2.31	-0.750			
0.6401	40967.94	3.3480	3.3481	-0.6981	8.33	2.33	-0.750			
0.6422	41100.13	3.3450	3.3450	-0.6847	8.34	2.34	-0.750			
0.6442	41230.05	3.3420	3.3420	-0.6730	8.36	2.36	-0.750			
0.6462	41357.32	3.3390	3.3391	-0.6573	8.37	2.37	-0.750			
0.6482	41483.17	3.3360	3.3359	-0.6516	8.38	2.38	-0.750			
0.6501	41607.29	3.3330	3.3330	-0.6393	8.40	2.40	-0.750			
0.6520	41728.66	3.3300	3.3300	-0.6264	8.41	2.41	-0.750			
0.6539	41849.13	3.3270	3.3270	-0.6175	8.42	2.42	-0.750			
0.6557	41966.54	3.3240	3.3240	-0.6031	8.43	2.43	-0.750			
0.6575	42080.55	3.3210	3.3210	-0.5899	8.45	2.45	-0.750			
0.6593	42193.33	3.3180	3.3180	-0.5776	8.46	2.46	-0.750			
0.6610	42301.68	3.3150	3.3150	-0.5656	8.47	2.47	-0.750			
0.6627	42410.04	3.3120	3.3121	-0.5545	8.48	2.48	-0.750			
0.6643	42514.66	3.3090	3.3089	-0.5455	8.49	2.49	-0.750			
0.6659	42617.58	3.3060	3.3061	-0.5378	8.50	2.50	-0.750			
0.6675	42720.93	3.3030	3.3029	-0.5258	8.51	2.51	-0.750			
0.6691	42820.52	3.3000	3.3000	-0.5156	8.52	2.52	-0.750			
0.6706	42919.38	3.2970	3.2971	-0.5073	8.54	2.54	-0.750			
0.6721	43015.66	3.2940	3.2939	-0.4952	8.55	2.55	-0.750			
0.6736	43110.10	3.2910	3.2909	-0.4865	8.56	2.56	-0.750			
0.6750	43201.51	3.2880	3.2880	-0.4749	8.57	2.57	-0.750			
0.6764	43291.61	3.2850	3.2850	-0.4653	8.58	2.58	-0.750			
0.6778	43380.49	3.2820	3.2819	-0.4610	8.59	2.59	-0.750			
0.6792	43467.14	3.2790	3.2791	-0.4522	8.61	2.61	-0.750			
0.6805	43553.32	3.2760	3.2760	-0.4469	8.62	2.62	-0.750			
0.6819	43639.16	3.2730	3.2729	-0.4426	8.63	2.63	-0.750			
0.6832	43723.20	3.2700	3.2700	-0.4374	8.64	2.64	-0.750			
0.6845	43807.54	3.2670	3.2670	-0.4307	8.65	2.65	-0.750			
0.6858	43889.77	3.2640	3.2640	-0.4233	8.67	2.67	-0.750			
0.6870	43970.44	3.2610	3.2610	-0.4129	8.68	2.68	-0.750			
0.6883	44049.23	3.2580	3.2581	-0.4054	8.68	2.68	-0.750			
0.6895	44125.07	3.2550	3.2549	-0.3983	8.70	2.70	-0.750			
0.6906	44200.38	3.2520	3.2520	-0.3923	8.71	2.71	-0.750			
0.6918	44274.17	3.2490	3.2489	-0.3860	8.72	2.72	-0.750			
0.6929	44348.68	3.2460	3.2460	-0.3820	8.73	2.73	-0.750			
0.6941	44422.20	3.2430	3.2431	-0.3764	8.74	2.74	-0.750			
0.6952	44494.02	3.2400	3.2400	-0.3725	8.75	2.75	-0.750			
0.6963	44564.26	3.2370	3.2370	-0.3667	8.76	2.76	-0.750			
0.6974	44633.84	3.2340	3.2340	-0.3621	8.77	2.77	-0.750			
0.6985	44702.95	3.2310	3.2310	-0.3574	8.78	2.78	-0.750			
0.6996	44771.66	3.2280	3.2279	-0.3533	8.79	2.79	-0.750			
0.7006	44839.18	3.2250	3.2252	-0.3490	8.80	2.80	-0.750			
0.7017	44906.03	3.2220	3.2220	-0.3443	8.81	2.81	-0.750			
0.7027	44970.96	3.2190	3.2190	-0.3386	8.82	2.82	-0.750			
0.7037	45035.45	3.2160	3.2160	-0.3355	8.83	2.83	-0.750			
0.7047	45099.24	3.2130	3.2130	-0.3320	8.85	2.85	-0.750			
0.7057	45162.96	3.2100	3.2099	-0.3281	8.86	2.86	-0.750			
0.7067	45226.30	3.2070	3.2070	-0.3220	8.87	2.87	-0.750			
0.7076	45287.42	3.2040	3.2041	-0.3161	8.88	2.88	-0.750			
0.7086	45347.34	3.2010	3.2010	-0.3129	8.89	2.89	-0.750			
0.7095	45406.69	3.1980	3.1979	-0.3088	8.90	2.90	-0.750			
0.7104	45464.79	3.1950	3.1949	-0.3026	8.91	2.91	-0.750			
0.7113	45522.46	3.1920	3.1921	-0.3012	8.91	2.91	-0.750			
0.7122	45580.79	3.1890	3.1890	-0.2990	8.92	2.92	-0.750			
0.7131	45638.31	3.1860	3.1860	-0.2960	8.92	2.92	-0.750			
0.7140	45694.22	3.1830	3.1831	-0.2922	8.93	2.93	-0.750			
0.7148	45750.07	3.1800	3.1800	-0.2886	8.95	2.95	-0.750			
0.7157	45805.45	3.1770	3.1771	-0.2862	8.96	2.96	-0.750			
0.7166	45860.29	3.1740	3.1740	-0.2838	8.97	2.97	-0.750			
0.7174	45913.79	3.1710	3.1710	-0.2799	8.98	2.98	-0.750			
0.7182	45967.96	3.1680	3.1679	-0.2774	8.99	2.99	-0.750			
0.7191	46020.86	3.1650	3.1650	-0.2733	9.00	3.00	-0.750			
0.7199	46072.83	3.1620	3.1620	-0.2703	9.01	3.01	-0.750			
0.7207	46124.49	3.1590	3.1590	-0.2678	9.02	3.02	-0.750			
0.7215	46175.66	3.1560	3.1560	-0.2652	9.03	3.03	-0.750			
0.7223	46225.99	3.1530	3.1529	-0.2620	9.04	3.04	-0.750			
0.7231	46275.60	3.1500	3.1501	-0.2606	9.05	3.05	-0.750			
0.7238	46325.69	3.1470	3.1471	-0.2589	9.06	3.06	-0.750			
0.7246	46375.95	3.1440	3.1440	-0.2579	9.06	3.06	-0.750			
0.7254	46425.03	3.1410	3.1410	-0.2557	9.07	3.07	-0.750			
0.7262	46473.81	3.1380	3.1381	-0.2529	9.08	3.08	-0.750			
0.7269	46522.43	3.1350	3.1350	-0.2510	9.09	3.09	-0.750			
0.7277	46570.40	3.1320	3.1320	-0.2483	9.10	3.10	-0.750			
0.7284	46617.66	3.1290	3.1291	-0.2443	9.11	3.11	-0.750			
0.7291	46664.15	3.1260	3.1260	-0.2433	9.12	3.12	-0.750			
0.7298	46710.32	3.1230	3.1231	-0.2419	9.14	3.14	-0.750			
0.7306	46756.65	3.1200	3.1199	-0.2405	9.15	3.15	-0.750			
0.7313	46802.99	3.1170	3.1170	-0.2388	9.16	3.16	-0.750			
0.7320	46848.94	3.1140	3.1140	-0.2380	9.17	3.17	-0.750			
0.7327	46894.69	3.1110	3.1110	-0.2373	9.18	3.18	-0.750			
0.7334	46940.69	3.1080	3.1080	-0.2350	9.19	3.19	-0.750			
0.7341	46985.17	3.1050	3.1049	-0.2317	9.20	3.20	-0.750			
0.7348	47029.37	3.1020	3.1020	-0.2290	9.21	3.21	-0.750			
0.7355	47072.86	3.0990	3.0991	-0.2265	9.22	3.22	-0.750			
0.7362	47116.12	3.0960	3.0959	-0.2252	9.23	3.23	-0.750			
0.7369	47158.73	3.0930	3.0930	-0.2240	9.24	3.24	-0.750			
0.7375	47201.69	3.0900	3.0900	-0.2234	9.24	3.24	-0.750			
0.7382	47244.24	3.0870	3.0870	-0.2207	9.25	3.25	-0.750			
0.7389	47286.66	3.0840	3.0839	-0.2215	9.27	3.27	-0.750			
0.7395	47329.09	3.0810	3.0811	-0.2205	9.28	3.28	-0.750			
0.7402	47371.36	3.0780	3.0781	-0.2199	9.29	3.29	-0.750			
0.7408	47413.80	3.0750	3.0748	-0.2182	9.30	3.30	-0.750			
0.7415	47455.73	3.0720	3.0721	-0.2165	9.31	3.31	-0.750			
0.7421	47496.97	3.0690	3.0691	-0.2147	9.32	3.32	-0.750			
0.7428	47538.04	3.0660	3.0660	-0.2131	9.33	3.33	-0.750			
0.7434	47579.39	3.0630	3.0629	-0.2114	9.34	3.34	-0.750			
0.7440	47618.65	3.0600	3.0600	-0.2091	9.35	3.35	-0.750			
0.7447	47658.60	3.0570	3.0570	-0.2086	9.36	3.36	-0.750			
0.7453	47698.65	3.0540	3.0540	-0.2087	9.36	3.36	-0.750			
0.7459	47738.98	3.0510	3.0509	-0.2076	9.37	3.37	-0.750			
0.7465	47779.04	3.0480	3.0480	-0.2063	9.38	3.38	-0.750			
0.7472	47818.68	3.0450	3.0451	-0.2051	9.39	3.39	-0.750			
0.7478	47857.61	3.0420	3.0421	-0.2049	9.40	3.40	-0.750			
0.7484	47897.19	3.0390	3.0389	-0.2041	9.41	3.41	-0.750			
0.7490	47935.96	3.0360	3.0360	-0.2015	9.42	3.42	-0.750			
0.7496	47974.55	3.0330	3.0329	-0.2005	9.43	3.43	-0.750			
0.7502	48013.05	3.0300	3.0301	-0.1993	9.44	3.44	-0.750			
0.7508	48051.61	3.0270	3.0270	-0.1983	9.45	3.45	-0.750			
0.7514	48089.14	3.0240	3.0239	-0.1973	9.45	3.45	-0.750			
0.7520	48126.90	3.0210	3.0210	-0.1961	9.46	3.46	-0.750			
0.7526	48163.82	3.0180	3.0180	-0.1946	9.47	3.47	-0.750			
0.7531	48201.32	3.0150	3.0149	-0.1943	9.48	3.48	-0.750			
0.7537	48238.71	3.0120	3.0120	-0.1941	9.49	3.49	-0.750			
0.7543	48275.92	3.0090	3.0090	-0.1935	9.50	3.50	-0.750			
0.7549	48313.06	3.0060	3.0060	-0.1926	9.51	3.51	-0.750			
0.7555	48349.92	3.0030	3.0030	-0.1882	9.52	3.52	-0.750			
