Ah_balance (normalized)	Ah_balance (mAh)	Voltage - fit (V)	Voltage -  interpolate (V)	dQ/dV (1/V)	Temperature (°C)	Temperature - diff (°C)	Current (C)	R_DC 0ms (mOhm)	R_DC 50ms (mOhm)	R_DC 50 ms PEC (mOhm)
0.0003	19.18	4.1090	4.1086	-0.0775	6.00	0.00	-0.750			
0.0006	38.36	4.1060	4.1057	-0.1105	6.00	0.00	-0.750			
0.0010	62.10	4.1030	4.1028	-0.1368	6.00	0.00	-0.750			
0.0014	91.64	4.1000	4.1000	-0.1600	6.00	0.00	-0.750			
0.0019	124.19	4.0970	4.0971	-0.1851	6.00	0.00	-0.750			
0.0025	162.07	4.0940	4.0942	-0.2102	6.00	0.00	-0.750			
0.0032	205.56	4.0910	4.0909	-0.2323	6.00	0.00	-0.750			
0.0039	252.25	4.0880	4.0879	-0.2537	6.00	0.00	-0.750			
0.0047	302.82	4.0850	4.0852	-0.2760	6.00	0.00	-0.750			
0.0056	358.25	4.0820	4.0820	-0.2999	6.00	0.00	-0.750			
0.0065	417.92	4.0790	4.0790	-0.3231	6.00	0.00	-0.750			
0.0075	481.61	4.0760	4.0759	-0.3455	6.00	0.00	-0.750			
0.0086	550.92	4.0730	4.0730	-0.3642	6.00	0.00	-0.750			
0.0097	623.10	4.0700	4.0700	-0.3866	6.00	0.00	-0.750			
0.0109	699.51	4.0670	4.0671	-0.4104	6.00	0.00	-0.750			
0.0122	779.15	4.0640	4.0640	-0.4355	6.00	0.00	-0.750			
0.0135	864.06	4.0610	4.0609	-0.4605	6.00	0.00	-0.750			
0.0149	954.79	4.0580	4.0582	-0.4883	6.00	0.00	-0.750			
0.0164	1051.07	4.0550	4.0550	-0.5175	6.00	0.00	-0.750			
0.0180	1154.97	4.0520	4.0520	-0.5420	6.01	0.01	-0.750			
0.0197	1261.78	4.0490	4.0489	-0.5613	6.01	0.01	-0.750			
0.0215	1373.43	4.0460	4.0461	-0.5858	6.01	0.01	-0.750			
0.0233	1488.16	4.0430	4.0429	-0.5969	6.01	0.01	-0.750			
0.0251	1604.16	4.0400	4.0400	-0.6132	6.02	0.02	-0.750			
0.0269	1722.80	4.0370	4.0372	-0.6279	6.02	0.02	-0.750			
0.0288	1843.50	4.0340	4.0339	-0.6427	6.02	0.02	-0.750			
0.0308	1969.83	4.0310	4.0309	-0.6554	6.03	0.03	-0.750			
0.0328	2096.84	4.0280	4.0280	-0.6655	6.03	0.03	-0.750			
0.0348	2225.68	4.0250	4.0251	-0.6719	6.04	0.04	-0.750			
0.0369	2358.65	4.0220	4.0220	-0.6820	6.04	0.04	-0.750			
0.0389	2487.85	4.0190	4.0189	-0.6882	6.05	0.05	-0.750			
0.0409	2619.04	4.0160	4.0160	-0.6959	6.05	0.05	-0.750			
0.0430	2754.03	4.0130	4.0130	-0.7026	6.06	0.06	-0.750			
0.0452	2889.86	4.0100	4.0099	-0.7211	6.06	0.06	-0.750			
0.0473	3029.36	4.0070	4.0071	-0.7290	6.07	0.07	-0.750			
0.0496	3173.23	4.0040	4.0038	-0.7304	6.07	0.07	-0.750			
0.0518	3316.03	4.0010	4.0011	-0.7301	6.08	0.08	-0.750			
0.0540	3455.13	3.9980	3.9981	-0.7328	6.09	0.09	-0.750			
0.0562	3593.63	3.9950	3.9948	-0.7382	6.10	0.10	-0.750			
0.0584	3736.06	3.9920	3.9919	-0.7439	6.10	0.10	-0.750			
0.0606	3877.88	3.9890	3.9890	-0.7378	6.11	0.11	-0.750			
0.0629	4023.91	3.9860	3.9860	-0.7463	6.12	0.12	-0.750			
0.0651	4167.59	3.9830	3.9831	-0.7531	6.13	0.13	-0.750			
0.0674	4311.33	3.9800	3.9799	-0.7544	6.14	0.14	-0.750			
0.0696	4453.99	3.9770	3.9769	-0.7528	6.15	0.15	-0.750			
0.0718	4597.12	3.9740	3.9741	-0.7559	6.15	0.15	-0.750			
0.0742	4746.51	3.9710	3.9711	-0.7631	6.16	0.16	-0.750			
0.0765	4893.44	3.9680	3.9679	-0.7662	6.17	0.17	-0.750			
0.0788	5040.39	3.9650	3.9650	-0.7675	6.18	0.18	-0.750			
0.0810	5186.18	3.9620	3.9620	-0.7729	6.19	0.19	-0.750			
0.0834	5335.18	3.9590	3.9590	-0.7774	6.19	0.19	-0.750			
0.0857	5484.79	3.9560	3.9560	-0.7848	6.20	0.20	-0.750			
0.0881	5638.49	3.9530	3.9530	-0.7836	6.21	0.21	-0.750			
0.0905	5791.08	3.9500	3.9500	-0.7844	6.22	0.22	-0.750			
0.0928	5939.63	3.9470	3.9472	-0.7851	6.23	0.23	-0.750			
0.0952	6089.74	3.9440	3.9439	-0.7901	6.24	0.24	-0.750			
0.0975	6241.64	3.9410	3.9407	-0.7908	6.24	0.24	-0.750			
0.0999	6393.14	3.9380	3.9381	-0.7971	6.25	0.25	-0.750			
0.1023	6546.57	3.9350	3.9354	-0.7971	6.26	0.26	-0.750			
0.1048	6704.66	3.9320	3.9319	-0.8067	6.27	0.27	-0.750			
0.1072	6859.06	3.9290	3.9289	-0.8048	6.28	0.28	-0.750			
0.1095	7010.65	3.9260	3.9259	-0.7992	6.28	0.28	-0.750			
0.1120	7166.95	3.9230	3.9230	-0.8008	6.29	0.29	-0.750			
0.1144	7319.70	3.9200	3.9203	-0.7938	6.30	0.30	-0.750			
0.1167	7469.39	3.9170	3.9169	-0.7933	6.31	0.31	-0.750			
0.1191	7621.87	3.9140	3.9138	-0.7971	6.32	0.32	-0.750			
0.1214	7772.59	3.9110	3.9110	-0.7963	6.33	0.33	-0.750			
0.1239	7926.53	3.9080	3.9080	-0.7992	6.34	0.34	-0.750			
0.1263	8083.27	3.9050	3.9050	-0.8072	6.36	0.36	-0.750			
0.1287	8238.77	3.9020	3.9020	-0.8142	6.36	0.36	-0.750			
0.1312	8393.61	3.8990	3.8990	-0.8246	6.37	0.37	-0.750			
0.1337	8553.60	3.8960	3.8959	-0.8268	6.38	0.38	-0.750			
0.1362	8714.15	3.8930	3.8929	-0.8289	6.39	0.39	-0.750			
0.1387	8875.75	3.8900	3.8901	-0.8284	6.40	0.40	-0.750			
0.1412	9034.87	3.8870	3.8871	-0.8211	6.41	0.41	-0.750			
0.1436	9190.15	3.8840	3.8840	-0.8242	6.42	0.42	-0.750			
0.1460	9343.99	3.8810	3.8808	-0.8193	6.42	0.42	-0.750			
0.1484	9500.04	3.8780	3.8780	-0.8263	6.43	0.43	-0.750			
0.1510	9661.01	3.8750	3.8748	-0.8309	6.44	0.44	-0.750			
0.1535	9822.73	3.8720	3.8718	-0.8402	6.45	0.45	-0.750			
0.1560	9985.48	3.8690	3.8691	-0.8422	6.46	0.46	-0.750			
0.1585	10146.25	3.8660	3.8659	-0.8431	6.47	0.47	-0.750			
0.1610	10304.82	3.8630	3.8631	-0.8412	6.48	0.48	-0.750			
0.1636	10471.70	3.8600	3.8599	-0.8426	6.49	0.49	-0.750			
0.1661	10631.75	3.8570	3.8568	-0.8444	6.50	0.50	-0.750			
0.1687	10794.90	3.8540	3.8542	-0.8452	6.51	0.51	-0.750			
0.1712	10955.84	3.8510	3.8510	-0.8447	6.52	0.52	-0.750			
0.1737	11118.92	3.8480	3.8479	-0.8458	6.53	0.53	-0.750			
0.1763	11280.95	3.8450	3.8450	-0.8489	6.54	0.54	-0.750			
0.1788	11442.33	3.8420	3.8421	-0.8503	6.55	0.55	-0.750			
0.1814	11608.07	3.8390	3.8390	-0.8566	6.56	0.56	-0.750			
0.1839	11770.38	3.8360	3.8360	-0.8588	6.57	0.57	-0.750			
0.1865	11937.43	3.8330	3.8330	-0.8587	6.58	0.58	-0.750			
0.1891	12103.20	3.8300	3.8300	-0.8605	6.59	0.59	-0.750			
0.1917	12267.41	3.8270	3.8270	-0.8679	6.60	0.60	-0.750			
0.1943	12434.70	3.8240	3.8239	-0.8676	6.60	0.60	-0.750			
0.1969	12600.74	3.8210	3.8210	-0.8712	6.61	0.61	-0.750			
0.1995	12768.52	3.8180	3.8179	-0.8738	6.62	0.62	-0.750			
0.2022	12938.13	3.8150	3.8153	-0.8731	6.63	0.63	-0.750			
0.2048	13107.15	3.8120	3.8120	-0.8783	6.64	0.64	-0.750			
0.2074	13273.53	3.8090	3.8090	-0.8829	6.65	0.65	-0.750			
0.2101	13443.49	3.8060	3.8059	-0.8823	6.66	0.66	-0.750			
0.2127	13614.61	3.8030	3.8029	-0.8839	6.67	0.67	-0.750			
0.2154	13783.44	3.8000	3.8002	-0.8827	6.68	0.68	-0.750			
0.2180	13954.65	3.7970	3.7971	-0.8870	6.69	0.69	-0.750			
0.2207	14124.42	3.7940	3.7939	-0.8866	6.70	0.70	-0.750			
0.2233	14293.79	3.7910	3.7910	-0.8838	6.71	0.71	-0.750			
0.2259	14460.60	3.7880	3.7880	-0.8806	6.72	0.72	-0.750			
0.2286	14630.85	3.7850	3.7850	-0.8900	6.72	0.72	-0.750			
0.2313	14803.78	3.7820	3.7820	-0.8890	6.73	0.73	-0.750			
0.2340	14973.01	3.7790	3.7790	-0.8890	6.74	0.74	-0.750			
0.2366	15143.99	3.7760	3.7761	-0.8939	6.75	0.75	-0.750			
0.2393	15317.05	3.7730	3.7728	-0.8954	6.76	0.76	-0.750			
0.2420	15487.54	3.7700	3.7700	-0.9021	6.77	0.77	-0.750			
0.2447	15660.53	3.7670	3.7671	-0.9098	6.78	0.78	-0.750			
0.2474	15835.75	3.7640	3.7640	-0.9109	6.78	0.78	-0.750			
0.2502	16013.25	3.7610	3.7609	-0.9167	6.79	0.79	-0.750			
0.2529	16187.66	3.7580	3.7582	-0.9165	6.80	0.80	-0.750			
0.2557	16364.62	3.7550	3.7549	-0.9165	6.81	0.81	-0.750			
0.2585	16542.21	3.7520	3.7520	-0.9195	6.82	0.82	-0.750			
0.2612	16716.26	3.7490	3.7489	-0.9215	6.83	0.83	-0.750			
0.2640	16892.94	3.7460	3.7461	-0.9240	6.84	0.84	-0.750			
0.2668	17072.03	3.7430	3.7430	-0.9296	6.85	0.85	-0.750			
0.2696	17251.79	3.7400	3.7400	-0.9337	6.86	0.86	-0.750			
0.2724	17433.54	3.7370	3.7369	-0.9241	6.86	0.86	-0.750			
0.2752	17611.49	3.7340	3.7340	-0.9210	6.87	0.87	-0.750			
0.2779	17785.79	3.7310	3.7312	-0.9155	6.88	0.88	-0.750			
0.2806	17957.00	3.7280	3.7280	-0.9230	6.89	0.89	-0.750			
0.2834	18134.90	3.7250	3.7249	-0.9311	6.90	0.90	-0.750			
0.2861	18313.13	3.7220	3.7219	-0.9360	6.91	0.91	-0.750			
0.2890	18496.97	3.7190	3.7191	-0.9503	6.92	0.92	-0.750			
0.2919	18680.56	3.7160	3.7161	-0.9599	6.93	0.93	-0.750			
0.2948	18866.09	3.7130	3.7130	-0.9639	6.93	0.93	-0.750			
0.2977	19051.89	3.7100	3.7099	-0.9665	6.94	0.94	-0.750			
0.3005	19234.97	3.7070	3.7069	-0.9629	6.95	0.95	-0.750			
0.3035	19423.03	3.7040	3.7040	-0.9708	6.95	0.95	-0.750			
0.3064	19609.20	3.7010	3.7010	-0.9809	6.96	0.96	-0.750			
0.3094	19798.53	3.6980	3.6979	-0.9841	6.97	0.97	-0.750			
0.3123	19986.75	3.6950	3.6950	-0.9841	6.98	0.98	-0.750			
0.3153	20177.92	3.6920	3.6922	-0.9905	6.99	0.99	-0.750			
0.3183	20369.49	3.6890	3.6889	-0.9973	7.00	1.00	-0.750			
0.3213	20560.83	3.6860	3.6860	-1.0030	7.01	1.01	-0.750			
0.3242	20751.73	3.6830	3.6829	-1.0058	7.01	1.01	-0.750			
0.3273	20944.97	3.6800	3.6802	-1.0212	7.02	1.02	-0.750			
0.3304	21142.47	3.6770	3.6770	-1.0292	7.03	1.03	-0.750			
0.3334	21340.33	3.6740	3.6739	-1.0411	7.03	1.03	-0.750			
0.3366	21541.55	3.6710	3.6709	-1.0510	7.04	1.04	-0.750			
0.3397	21743.87	3.6680	3.6681	-1.0654	7.05	1.05	-0.750			
0.3430	21949.43	3.6650	3.6650	-1.0687	7.06	1.06	-0.750			
0.3462	22158.59	3.6620	3.6620	-1.0682	7.07	1.07	-0.750			
0.3494	22362.08	3.6590	3.6589	-1.0713	7.07	1.07	-0.750			
0.3526	22565.12	3.6560	3.6563	-1.0898	7.08	1.08	-0.750			
0.3559	22776.13	3.6530	3.6528	-1.0946	7.09	1.09	-0.750			
0.3592	22987.32	3.6500	3.6499	-1.1060	7.09	1.09	-0.750			
0.3625	23201.09	3.6470	3.6470	-1.1128	7.10	1.10	-0.750			
0.3659	23417.16	3.6440	3.6442	-1.1381	7.10	1.10	-0.750			
0.3693	23637.62	3.6410	3.6408	-1.1487	7.11	1.11	-0.750			
0.3728	23856.18	3.6380	3.6378	-1.1506	7.12	1.12	-0.750			
0.3762	24075.13	3.6350	3.6351	-1.1695	7.13	1.13	-0.750			
0.3798	24307.44	3.6320	3.6319	-1.1906	7.14	1.14	-0.750			
0.3834	24538.11	3.6290	3.6289	-1.2061	7.14	1.14	-0.750			
0.3871	24771.67	3.6260	3.6259	-1.2137	7.15	1.15	-0.750			
0.3907	25003.06	3.6230	3.6231	-1.2141	7.16	1.16	-0.750			
0.3944	25243.72	3.6200	3.6199	-1.2233	7.17	1.17	-0.750			
0.3980	25473.81	3.6170	3.6171	-1.2441	7.17	1.17	-0.750			
0.4017	25708.88	3.6140	3.6141	-1.2540	7.18	1.18	-0.750			
0.4056	25955.54	3.6110	3.6108	-1.2841	7.19	1.19	-0.750			
0.4094	26201.41	3.6080	3.6079	-1.2961	7.19	1.19	-0.750			
0.4133	26453.55	3.6050	3.6051	-1.3251	7.20	1.20	-0.750	0.417	1.043	
0.4174	26712.43	3.6020	3.6020	-1.3333	7.20	1.20	-0.750			
0.4215	26974.41	3.5990	3.5989	-1.3485	7.21	1.21	-0.750			
0.4254	27225.85	3.5960	3.5961	-1.3593	7.22	1.22	-0.750			
0.4295	27489.97	3.5930	3.5930	-1.3749	7.22	1.22	-0.750			
0.4337	27759.71	3.5900	3.5899	-1.3892	7.23	1.23	-0.750			
0.4379	28027.60	3.5870	3.5870	-1.4031	7.23	1.23	-0.750			
0.4421	28297.55	3.5840	3.5838	-1.4128	7.23	1.23	-0.750			
0.4464	28569.89	3.5810	3.5811	-1.4384	7.24	1.24	-0.750			
0.4507	28845.84	3.5780	3.5779	-1.4509	7.25	1.25	-0.750			
0.4551	29125.49	3.5750	3.5749	-1.4617	7.25	1.25	-0.750			
0.4595	29405.88	3.5720	3.5720	-1.4842	7.26	1.26	-0.750			
0.4640	29697.31	3.5690	3.5692	-1.5125	7.27	1.27	-0.750			
0.4686	29992.65	3.5660	3.5659	-1.5111	7.28	1.28	-0.750			
0.4732	30287.58	3.5630	3.5628	-1.5231	7.28	1.28	-0.750			
0.4777	30574.45	3.5600	3.5602	-1.5349	7.29	1.29	-0.750			
0.4823	30866.61	3.5570	3.5570	-1.5688	7.30	1.30	-0.750			
0.4870	31171.09	3.5540	3.5538	-1.5949	7.31	1.31	-0.750			
0.4919	31479.16	3.5510	3.5508	-1.6069	7.31	1.31	-0.750			
0.4969	31800.18	3.5480	3.5482	-1.6462	7.32	1.32	-0.750			
0.5019	32119.46	3.5450	3.5450	-1.6743	7.33	1.33	-0.750			
0.5070	32445.26	3.5420	3.5420	-1.6778	7.33	1.33	-0.750			
0.5120	32766.90	3.5390	3.5387	-1.6729	7.34	1.34	-0.750			
0.5169	33084.02	3.5360	3.5361	-1.6697	7.34	1.34	-0.750			
0.5220	33406.70	3.5330	3.5331	-1.6994	7.35	1.35	-0.750			
0.5271	33736.08	3.5300	3.5301	-1.6998	7.36	1.36	-0.750			
0.5322	34059.87	3.5270	3.5271	-1.7054	7.36	1.36	-0.750			
0.5374	34393.35	3.5240	3.5239	-1.7171	7.37	1.37	-0.750			
0.5425	34722.67	3.5210	3.5207	-1.7473	7.38	1.38	-0.750			
0.5479	35065.47	3.5180	3.5180	-1.7459	7.39	1.39	-0.750			
0.5531	35399.52	3.5150	3.5149	-1.7378	7.40	1.40	-0.750			
0.5583	35733.91	3.5120	3.5121	-1.7417	7.41	1.41	-0.750			
0.5636	36070.39	3.5090	3.5089	-1.7396	7.42	1.42	-0.750			
0.5688	36403.19	3.5060	3.5059	-1.7440	7.43	1.43	-0.750			
0.5740	36737.37	3.5030	3.5028	-1.7567	7.43	1.43	-0.750			
0.5793	37073.19	3.5000	3.4999	-1.7422	7.44	1.44	-0.750			
0.5846	37412.49	3.4970	3.4971	-1.7442	7.45	1.45	-0.750			
0.5898	37745.90	3.4940	3.4941	-1.7384	7.46	1.46	-0.750			
0.5950	38078.18	3.4910	3.4910	-1.7355	7.47	1.47	-0.750			
0.6003	38416.06	3.4880	3.4879	-1.7334	7.49	1.49	-0.750			
0.6054	38745.26	3.4850	3.4848	-1.7088	7.50	1.50	-0.750			
0.6105	39072.66	3.4820	3.4821	-1.7104	7.51	1.51	-0.750			
0.6157	39407.64	3.4790	3.4791	-1.7032	7.52	1.52	-0.750			
0.6209	39736.75	3.4760	3.4761	-1.6647	7.52	1.52	-0.750			
0.6258	40048.29	3.4730	3.4730	-1.6362	7.53	1.53	-0.750			
0.6306	40359.21	3.4700	3.4703	-1.6271	7.54	1.54	-0.750			
0.6355	40670.78	3.4670	3.4669	-1.6057	7.55	1.55	-0.750			
0.6403	40980.11	3.4640	3.4640	-1.5827	7.56	1.56	-0.750			
0.6450	41278.55	3.4610	3.4611	-1.5491	7.57	1.57	-0.750			
0.6497	41578.38	3.4580	3.4581	-1.5499	7.58	1.58	-0.750			
0.6543	41874.74	3.4550	3.4549	-1.5238	7.59	1.59	-0.750			
0.6588	42160.80	3.4520	3.4518	-1.4835	7.61	1.61	-0.750			
0.6632	42445.22	3.4490	3.4492	-1.4671	7.62	1.62	-0.750			
0.6676	42727.28	3.4460	3.4459	-1.4413	7.63	1.63	-0.750			
0.6719	43003.24	3.4430	3.4429	-1.4168	7.64	1.64	-0.750			
0.6761	43268.28	3.4400	3.4400	-1.3834	7.65	1.65	-0.750			
0.6802	43531.60	3.4370	3.4369	-1.3534	7.66	1.66	-0.750			
0.6842	43791.75	3.4340	3.4338	-1.3182	7.67	1.67	-0.750			
0.6881	44041.00	3.4310	3.4311	-1.2775	7.68	1.68	-0.750			
0.6919	44280.38	3.4280	3.4282	-1.2406	7.70	1.70	-0.750			
0.6956	44518.04	3.4250	3.4249	-1.2146	7.71	1.71	-0.750			
0.6992	44745.88	3.4220	3.4218	-1.1808	7.72	1.72	-0.750			
0.7025	44963.04	3.4190	3.4191	-1.1629	7.73	1.73	-0.750			
0.7061	45188.82	3.4160	3.4160	-1.1373	7.74	1.74	-0.750			
0.7095	45410.36	3.4130	3.4128	-1.1123	7.75	1.75	-0.750			
0.7128	45621.64	3.4100	3.4099	-1.0766	7.76	1.76	-0.750			
0.7160	45825.48	3.4070	3.4069	-1.0402	7.77	1.77	-0.750			
0.7191	46021.31	3.4040	3.4039	-0.9976	7.78	1.78	-0.750			
0.7220	46206.88	3.4010	3.4010	-0.9550	7.79	1.79	-0.750			
0.7247	46382.69	3.3980	3.3981	-0.9133	7.80	1.80	-0.750			
0.7275	46558.77	3.3950	3.3950	-0.8976	7.81	1.81	-0.750			
0.7301	46726.07	3.3920	3.3919	-0.8660	7.82	1.82	-0.750			
0.7326	46889.25	3.3890	3.3889	-0.8400	7.83	1.83	-0.750			
0.7351	47049.48	3.3860	3.3861	-0.8147	7.84	1.84	-0.750			
0.7376	47204.74	3.3830	3.3829	-0.7926	7.85	1.85	-0.750			
0.7399	47354.32	3.3800	3.3801	-0.7618	7.86	1.86	-0.750			
0.7421	47496.88	3.3770	3.3769	-0.7319	7.87	1.87	-0.750			
0.7443	47632.78	3.3740	3.3740	-0.7057	7.88	1.88	-0.750			
0.7464	47766.48	3.3710	3.3710	-0.6804	7.89	1.89	-0.750			
0.7484	47894.79	3.3680	3.3679	-0.6616	7.89	1.89	-0.750			
0.7503	48018.49	3.3650	3.3650	-0.6397	7.90	1.90	-0.750			
0.7522	48139.38	3.3620	3.3621	-0.6172	7.91	1.91	-0.750			
0.7540	48256.59	3.3590	3.3589	-0.5981	7.92	1.92	-0.750			
0.7558	48368.20	3.3560	3.3561	-0.5783	7.93	1.93	-0.750			
0.7575	48477.36	3.3530	3.3530	-0.5620	7.94	1.94	-0.750			
0.7591	48584.40	3.3500	3.3499	-0.5471	7.95	1.95	-0.750			
0.7607	48687.38	3.3470	3.3470	-0.5267	7.96	1.96	-0.750			
0.7623	48786.75	3.3440	3.3441	-0.5064	7.97	1.97	-0.750			
0.7638	48883.78	3.3410	3.3409	-0.4918	7.97	1.97	-0.750			
0.7652	48975.29	3.3380	3.3381	-0.4738	7.98	1.98	-0.750			
0.7666	49062.62	3.3350	3.3350	-0.4569	7.99	1.99	-0.750			
0.7680	49148.93	3.3320	3.3320	-0.4429	8.00	2.00	-0.750			
0.7693	49232.92	3.3290	3.3289	-0.4297	8.01	2.01	-0.750			
0.7705	49314.85	3.3260	3.3260	-0.4169	8.01	2.01	-0.750			
0.7718	49393.53	3.3230	3.3231	-0.4076	8.02	2.02	-0.750			
0.7730	49469.94	3.3200	3.3200	-0.3944	8.03	2.03	-0.750			
0.7741	49544.25	3.3170	3.3169	-0.3806	8.03	2.03	-0.750			
0.7753	49616.34	3.3140	3.3140	-0.3720	8.04	2.04	-0.750			
0.7764	49687.01	3.3110	3.3110	-0.3632	8.04	2.04	-0.750			
0.7774	49755.44	3.3080	3.3080	-0.3534	8.05	2.05	-0.750			
0.7785	49822.58	3.3050	3.3050	-0.3444	8.06	2.06	-0.750			
0.7795	49887.46	3.3020	3.3020	-0.3329	8.07	2.07	-0.750			
0.7805	49950.79	3.2990	3.2990	-0.3262	8.07	2.07	-0.750			
0.7814	50012.79	3.2960	3.2961	-0.3190	8.08	2.08	-0.750			
0.7824	50072.47	3.2930	3.2930	-0.3106	8.09	2.09	-0.750			
0.7833	50131.79	3.2900	3.2899	-0.3029	8.09	2.09	-0.750			
0.7842	50189.36	3.2870	3.2870	-0.2953	8.10	2.10	-0.750			
0.7851	50245.35	3.2840	3.2840	-0.2879	8.11	2.11	-0.750			
0.7859	50299.69	3.2810	3.2811	-0.2811	8.11	2.11	-0.750			
0.7868	50352.45	3.2780	3.2780	-0.2726	8.12	2.12	-0.750			
0.7876	50404.40	3.2750	3.2749	-0.2647	8.12	2.12	-0.750			
0.7883	50454.27	3.2720	3.2721	-0.2570	8.13	2.13	-0.750			
0.7891	50503.14	3.2690	3.2690	-0.2508	8.14	2.14	-0.750			
0.7899	50550.87	3.2660	3.2662	-0.2438	8.14	2.14	-0.750			
0.7906	50596.47	3.2630	3.2629	-0.2385	8.15	2.15	-0.750			
0.7913	50641.40	3.2600	3.2600	-0.2318	8.15	2.15	-0.750			
0.7919	50684.29	3.2570	3.2570	-0.2280	8.16	2.16	-0.750			
0.7926	50728.08	3.2540	3.2541	-0.2257	8.17	2.17	-0.750			
0.7933	50771.99	3.2510	3.2510	-0.2218	8.17	2.17	-0.750			
0.7940	50814.28	3.2480	3.2479	-0.2177	8.18	2.18	-0.750			
0.7946	50855.84	3.2450	3.2452	-0.2143	8.19	2.19	-0.750			
0.7953	50896.55	3.2420	3.2421	-0.2093	8.19	2.19	-0.750			
0.7959	50936.27	3.2390	3.2390	-0.2048	8.20	2.20	-0.750			
0.7965	50975.46	3.2360	3.2358	-0.2002	8.21	2.21	-0.750			
0.7971	51012.27	3.2330	3.2331	-0.1962	8.21	2.21	-0.750			
0.7977	51049.67	3.2300	3.2300	-0.1934	8.22	2.22	-0.750			
0.7982	51087.08	3.2270	3.2270	-0.1911	8.22	2.22	-0.750			
0.7988	51123.43	3.2240	3.2239	-0.1875	8.23	2.23	-0.750			
0.7994	51158.78	3.2210	3.2211	-0.1840	8.23	2.23	-0.750			
0.7999	51194.42	3.2180	3.2181	-0.1807	8.24	2.24	-0.750			
0.8004	51228.63	3.2150	3.2148	-0.1771	8.24	2.24	-0.750			
0.8010	51262.22	3.2120	3.2120	-0.1729	8.25	2.25	-0.750			
0.8015	51294.70	3.2090	3.2091	-0.1687	8.25	2.25	-0.750			
0.8020	51326.44	3.2060	3.2059	-0.1662	8.25	2.25	-0.750			
0.8025	51358.13	3.2030	3.2030	-0.1637	8.25	2.25	-0.750			
0.8030	51389.19	3.2000	3.2000	-0.1611	8.26	2.26	-0.750			
0.8034	51419.95	3.1970	3.1969	-0.1572	8.26	2.26	-0.750			
0.8039	51450.15	3.1940	3.1942	-0.1552	8.27	2.27	-0.750			
0.8044	51479.40	3.1910	3.1911	-0.1520	8.28	2.28	-0.750			
0.8048	51508.31	3.1880	3.1881	-0.1491	8.28	2.28	-0.750			
0.8053	51536.61	3.1850	3.1849	-0.1469	8.29	2.29	-0.750			
0.8057	51564.20	3.1820	3.1820	-0.1435	8.29	2.29	-0.750			
0.8061	51591.61	3.1790	3.1790	-0.1418	8.30	2.30	-0.750			
0.8065	51618.62	3.1760	3.1761	-0.1401	8.30	2.30	-0.750			
0.8070	51645.62	3.1730	3.1730	-0.1386	8.31	2.31	-0.750			
0.8074	51671.86	3.1700	3.1699	-0.1361	8.31	2.31	-0.750			
0.8078	51697.76	3.1670	3.1671	-0.1341	8.32	2.32	-0.750			
0.8082	51723.36	3.1640	3.1639	-0.1319	8.32	2.32	-0.750			
0.8086	51748.41	3.1610	3.1610	-0.1303	8.33	2.33	-0.750			
0.8090	51773.35	3.1580	3.1580	-0.1287	8.33	2.33	-0.750			
0.8093	51797.78	3.1550	3.1549	-0.1274	8.34	2.34	-0.750			
0.8097	51821.83	3.1520	3.1520	-0.1257	8.34	2.34	-0.750			
0.8101	51845.99	3.1490	3.1490	-0.1236	8.35	2.35	-0.750			
0.8105	51869.79	3.1460	3.1459	-0.1221	8.35	2.35	-0.750			
0.8108	51892.93	3.1430	3.1431	-0.1204	8.36	2.36	-0.750			
0.8112	51916.02	3.1400	3.1400	-0.1186	8.36	2.36	-0.750			
0.8115	51938.30	3.1370	3.1369	-0.1171	8.36	2.36	-0.750			
0.8119	51960.66	3.1340	3.1340	-0.1158	8.37	2.37	-0.750			
0.8122	51982.65	3.1310	3.1310	-0.1139	8.37	2.37	-0.750			
0.8126	52004.40	3.1280	3.1279	-0.1127	8.38	2.38	-0.750			
0.8129	52026.25	3.1250	3.1250	-0.1116	8.38	2.38	-0.750			
0.8132	52047.50	3.1220	3.1221	-0.1097	8.38	2.38	-0.750			
0.8136	52068.34	3.1190	3.1189	-0.1082	8.39	2.39	-0.750			
0.8139	52088.88	3.1160	3.1161	-0.1066	8.39	2.39	-0.750			
0.8142	52109.07	3.1130	3.1130	-0.1048	8.39	2.39	-0.750			
0.8145	52129.07	3.1100	3.1100	-0.1036	8.40	2.40	-0.750			
0.8148	52148.74	3.1070	3.1070	-0.1027	8.40	2.40	-0.750			
0.8151	52168.38	3.1040	3.1041	-0.1018	8.41	2.41	-0.750			
0.8154	52187.74	3.1010	3.1010	-0.1007	8.41	2.41	-0.750			
0.8157	52206.99	3.0980	3.0979	-0.0998	8.41	2.41	-0.750			
0.8160	52226.15	3.0950	3.0949	-0.0987	8.42	2.42	-0.750			
0.8163	52245.00	3.0920	3.0922	-0.0977	8.42	2.42	-0.750			
0.8166	52263.81	3.0890	3.0890	-0.0967	8.43	2.43	-0.750			
0.8169	52282.25	3.0860	3.0860	-0.0953	8.43	2.43	-0.750			
0.8172	52300.30	3.0830	3.0830	-0.0941	8.43	2.43	-0.750			
0.8175	52318.26	3.0800	3.0800	-0.0930	8.44	2.44	-0.750			
0.8177	52335.96	3.0770	3.0770	-0.0920	8.44	2.44	-0.750			
0.8180	52353.52	3.0740	3.0740	-0.0910	8.45	2.45	-0.750			
0.8183	52370.96	3.0710	3.0710	-0.0898	8.45	2.45	-0.750			
0.8186	52388.10	3.0680	3.0680	-0.0887	8.45	2.45	-0.750			
0.8188	52404.93	3.0650	3.0650	-0.0880	8.46	2.46	-0.750			
0.8191	52421.74	3.0620	3.0621	-0.0872	8.46	2.46	-0.750			
0.8193	52438.38	3.0590	3.0590	-0.0861	8.46	2.46	-0.750			
0.8196	52454.83	3.0560	3.0559	-0.0852	8.47	2.47	-0.750			
0.8199	52471.02	3.0530	3.0530	-0.0845	8.47	2.47	-0.750			
0.8201	52487.18	3.0500	3.0501	-0.0838	8.47	2.47	-0.750			
0.8204	52503.31	3.0470	3.0470	-0.0832	8.48	2.48	-0.750			
0.8206	52519.20	3.0440	3.0439	-0.0823	8.48	2.48	-0.750			
0.8209	52534.79	3.0410	3.0411	-0.0813	8.48	2.48	-0.750			
0.8211	52550.35	3.0380	3.0381	-0.0807	8.49	2.49	-0.750			
0.8213	52565.88	3.0350	3.0349	-0.0802	8.49	2.49	-0.750			
0.8216	52581.15	3.0320	3.0320	-0.0794	8.49	2.49	-0.750			
0.8218	52596.33	3.0290	3.0289	-0.0787	8.50	2.50	-0.750			
0.8221	52611.25	3.0260	3.0261	-0.0779	8.50	2.50	-0.750			
0.8223	52626.21	3.0230	3.0229	-0.0770	8.50	2.50	-0.750			
0.8225	52641.01	3.0200	3.0200	-0.0764	8.51	2.51	-0.750			
0.8227	52655.60	3.0170	3.0170	-0.0755	8.51	2.51	-0.750			
0.8230	52669.96	3.0140	3.0140	-0.0753	8.51	2.51	-0.750			
0.8232	52684.19	3.0110	3.0111	-0.0747	8.52	2.52	-0.750			
0.8234	52698.50	3.0080	3.0080	-0.0744	8.52	2.52	-0.750			
0.8236	52712.75	3.0050	3.0049	-0.0741	8.52	2.52	-0.750			
0.8239	52727.07	3.0020	3.0020	-0.0761	8.53	2.53	-0.750			
