Ah_balance (normalized)	Ah_balance (mAh)	Voltage - fit (V)	Voltage -  interpolate (V)	dQ/dV (1/V)	Temperature (°C)	Temperature - diff (°C)	Current (C)	R_DC 0ms (mOhm)	R_DC 50ms (mOhm)	R_DC 50 ms PEC (mOhm)
0.0953	6099.28	4.1970	4.1992	0.6718	8.25	2.27	0.750			
0.0976	6246.27	4.1940	4.1957	0.7829	8.24	2.26	0.750			
0.1002	6409.82	4.1910	4.1920	0.8063	8.24	2.26	0.750			
0.1028	6576.07	4.1880	4.1882	0.8248	8.23	2.25	0.750			
0.1053	6737.48	4.1850	4.1849	0.8129	8.22	2.24	0.750			
0.1074	6871.19	4.1820	4.1820	0.7142	8.22	2.24	0.750			
0.1095	7008.09	4.1790	4.1791	0.7068	8.21	2.23	0.750			
0.1116	7142.87	4.1760	4.1760	0.7044	8.21	2.23	0.750			
0.1137	7276.88	4.1730	4.1732	0.7069	8.20	2.22	0.750			
0.1158	7412.12	4.1700	4.1699	0.7103	8.20	2.22	0.750			
0.1180	7549.03	4.1670	4.1669	0.7099	8.19	2.21	0.750			
0.1201	7687.62	4.1640	4.1640	0.7118	8.18	2.20	0.750			
0.1223	7825.27	4.1610	4.1610	0.7183	8.18	2.20	0.750			
0.1244	7961.39	4.1580	4.1581	0.7225	8.17	2.19	0.750			
0.1265	8097.45	4.1550	4.1549	0.7253	8.16	2.18	0.750			
0.1287	8237.70	4.1520	4.1520	0.7332	8.15	2.17	0.750			
0.1309	8380.14	4.1490	4.1490	0.7384	8.15	2.17	0.750			
0.1332	8523.88	4.1460	4.1461	0.7415	8.14	2.16	0.750			
0.1354	8668.19	4.1430	4.1431	0.7461	8.13	2.15	0.750			
0.1377	8810.27	4.1400	4.1400	0.7412	8.12	2.14	0.750			
0.1399	8952.23	4.1370	4.1370	0.7436	8.11	2.13	0.750			
0.1421	9093.77	4.1340	4.1341	0.7453	8.10	2.12	0.750			
0.1443	9238.13	4.1310	4.1310	0.7459	8.10	2.12	0.750			
0.1466	9383.55	4.1280	4.1279	0.7487	8.09	2.11	0.750			
0.1489	9526.90	4.1250	4.1250	0.7462	8.09	2.11	0.750			
0.1511	9667.82	4.1220	4.1221	0.7481	8.08	2.10	0.750			
0.1533	9811.66	4.1190	4.1191	0.7568	8.08	2.10	0.750			
0.1556	9957.02	4.1160	4.1159	0.7637	8.07	2.09	0.750			
0.1579	10103.55	4.1130	4.1130	0.7679	8.06	2.08	0.750			
0.1602	10252.96	4.1100	4.1101	0.7741	8.05	2.07	0.750			
0.1626	10403.69	4.1070	4.1070	0.7778	8.04	2.06	0.750			
0.1649	10553.10	4.1040	4.1037	0.7823	8.03	2.05	0.750			
0.1672	10702.08	4.1010	4.1010	0.7795	8.02	2.04	0.750			
0.1696	10852.67	4.0980	4.0979	0.7800	8.02	2.04	0.750			
0.1719	11003.04	4.0950	4.0950	0.7847	8.01	2.03	0.750			
0.1743	11154.73	4.0920	4.0920	0.7846	8.01	2.03	0.750			
0.1766	11305.40	4.0890	4.0889	0.7885	8.00	2.02	0.750			
0.1790	11456.63	4.0860	4.0862	0.7892	8.00	2.02	0.750			
0.1814	11608.76	4.0830	4.0829	0.7838	7.99	2.01	0.750			
0.1837	11758.62	4.0800	4.0801	0.7905	7.98	2.00	0.750			
0.1861	11908.89	4.0770	4.0771	0.7966	7.97	1.99	0.750			
0.1885	12061.09	4.0740	4.0741	0.8012	7.96	1.98	0.750			
0.1909	12217.59	4.0710	4.0709	0.8053	7.96	1.98	0.750			
0.1933	12373.30	4.0680	4.0681	0.8037	7.95	1.97	0.750			
0.1958	12528.79	4.0650	4.0651	0.8123	7.94	1.96	0.750			
0.1982	12685.82	4.0620	4.0620	0.8143	7.93	1.95	0.750			
0.2006	12840.00	4.0590	4.0590	0.8212	7.93	1.95	0.750			
0.2031	12996.09	4.0560	4.0560	0.8279	7.92	1.94	0.750			
0.2056	13158.36	4.0530	4.0530	0.8336	7.91	1.93	0.750			
0.2081	13319.61	4.0500	4.0501	0.8484	7.90	1.92	0.750			
0.2107	13483.41	4.0470	4.0471	0.8522	7.89	1.91	0.750			
0.2133	13649.55	4.0440	4.0439	0.8419	7.89	1.91	0.750			
0.2158	13813.46	4.0410	4.0409	0.8369	7.88	1.90	0.750			
0.2183	13973.24	4.0380	4.0383	0.8270	7.87	1.89	0.750			
0.2208	14129.95	4.0350	4.0350	0.8320	7.86	1.88	0.750			
0.2232	14287.32	4.0320	4.0319	0.8381	7.85	1.87	0.750			
0.2257	14445.78	4.0290	4.0291	0.8396	7.85	1.87	0.750			
0.2283	14608.67	4.0260	4.0262	0.8522	7.84	1.86	0.750			
0.2309	14776.39	4.0230	4.0230	0.8577	7.83	1.85	0.750			
0.2335	14942.50	4.0200	4.0201	0.8675	7.82	1.84	0.750			
0.2361	15107.41	4.0170	4.0171	0.8734	7.81	1.83	0.750			
0.2387	15274.51	4.0140	4.0140	0.8768	7.80	1.82	0.750			
0.2413	15445.02	4.0110	4.0110	0.8855	7.80	1.82	0.750			
0.2440	15618.36	4.0080	4.0079	0.8799	7.79	1.81	0.750			
0.2467	15786.93	4.0050	4.0051	0.8830	7.78	1.80	0.750			
0.2493	15956.10	4.0020	4.0022	0.8825	7.77	1.79	0.750			
0.2520	16125.98	3.9990	3.9987	0.8848	7.76	1.78	0.750			
0.2546	16293.41	3.9960	3.9961	0.8857	7.75	1.77	0.750			
0.2573	16464.47	3.9930	3.9930	0.8990	7.74	1.76	0.750			
0.2600	16639.54	3.9900	3.9901	0.9146	7.74	1.76	0.750			
0.2628	16818.60	3.9870	3.9870	0.9219	7.73	1.75	0.750			
0.2655	16994.12	3.9840	3.9840	0.9230	7.72	1.74	0.750			
0.2683	17172.64	3.9810	3.9810	0.9205	7.71	1.73	0.750			
0.2711	17349.37	3.9780	3.9780	0.9244	7.70	1.72	0.750			
0.2738	17525.38	3.9750	3.9749	0.9273	7.69	1.71	0.750			
0.2766	17702.93	3.9720	3.9720	0.9293	7.68	1.70	0.750			
0.2794	17883.53	3.9690	3.9690	0.9327	7.67	1.69	0.750			
0.2822	18062.91	3.9660	3.9661	0.9415	7.66	1.68	0.750			
0.2851	18244.43	3.9630	3.9630	0.9452	7.66	1.68	0.750			
0.2879	18427.83	3.9600	3.9601	0.9474	7.65	1.67	0.750			
0.2908	18608.57	3.9570	3.9569	0.9427	7.64	1.66	0.750			
0.2936	18788.50	3.9540	3.9542	0.9486	7.63	1.65	0.750			
0.2964	18970.17	3.9510	3.9512	0.9585	7.61	1.63	0.750			
0.2993	19153.56	3.9480	3.9479	0.9723	7.60	1.62	0.750			
0.3022	19341.56	3.9450	3.9449	0.9814	7.59	1.61	0.750			
0.3052	19531.11	3.9420	3.9420	0.9939	7.58	1.60	0.750			
0.3082	19723.71	3.9390	3.9391	1.0089	7.57	1.59	0.750			
0.3113	19922.44	3.9360	3.9361	1.0174	7.56	1.58	0.750			
0.3143	20117.65	3.9330	3.9328	1.0198	7.55	1.57	0.750			
0.3174	20311.87	3.9300	3.9301	1.0217	7.54	1.56	0.750			
0.3204	20508.69	3.9270	3.9270	1.0288	7.53	1.55	0.750			
0.3236	20708.56	3.9240	3.9239	1.0326	7.52	1.54	0.750			
0.3267	20906.10	3.9210	3.9209	1.0333	7.51	1.53	0.750			
0.3297	21101.83	3.9180	3.9182	1.0447	7.50	1.52	0.750			
0.3329	21304.58	3.9150	3.9150	1.0588	7.49	1.51	0.750			
0.3361	21507.77	3.9120	3.9119	1.0755	7.48	1.50	0.750			
0.3393	21717.38	3.9090	3.9090	1.0881	7.46	1.48	0.750			
0.3426	21927.93	3.9060	3.9060	1.0945	7.45	1.47	0.750			
0.3459	22138.97	3.9030	3.9032	1.1081	7.44	1.46	0.750			
0.3492	22349.84	3.9000	3.9000	1.1223	7.43	1.45	0.750			
0.3526	22566.76	3.8970	3.8967	1.1289	7.42	1.44	0.750			
0.3560	22783.97	3.8940	3.8940	1.1425	7.41	1.43	0.750			
0.3594	23002.93	3.8910	3.8912	1.1618	7.40	1.42	0.750			
0.3630	23233.54	3.8880	3.8881	1.1840	7.39	1.41	0.750			
0.3665	23458.91	3.8850	3.8850	1.1991	7.37	1.39	0.750			
0.3701	23687.41	3.8820	3.8821	1.2190	7.36	1.38	0.750			
0.3738	23925.73	3.8790	3.8790	1.2427	7.34	1.36	0.750			
0.3777	24170.05	3.8760	3.8757	1.2550	7.33	1.35	0.750			
0.3815	24416.49	3.8730	3.8732	1.2575	7.31	1.33	0.750			
0.3852	24653.21	3.8700	3.8702	1.2746	7.30	1.32	0.750			
0.3891	24901.22	3.8670	3.8670	1.2792	7.28	1.30	0.750			
0.3928	25139.27	3.8640	3.8636	1.2938	7.27	1.29	0.750	0.374	0.874	
0.3967	25391.53	3.8610	3.8610	1.3328	7.25	1.27	0.750			
0.4009	25656.72	3.8580	3.8581	1.3573	7.24	1.26	0.750			
0.4050	25920.34	3.8550	3.8551	1.3887	7.22	1.24	0.750			
0.4092	26186.46	3.8520	3.8522	1.4032	7.20	1.22	0.750			
0.4135	26461.61	3.8490	3.8489	1.4112	7.19	1.21	0.750			
0.4177	26732.40	3.8460	3.8460	1.4441	7.17	1.19	0.750			
0.4220	27006.91	3.8430	3.8431	1.4600	7.15	1.17	0.750			
0.4264	27290.30	3.8400	3.8400	1.4850	7.13	1.15	0.750			
0.4310	27583.32	3.8370	3.8371	1.5052	7.12	1.14	0.750			
0.4355	27873.11	3.8340	3.8341	1.5176	7.10	1.12	0.750			
0.4401	28166.19	3.8310	3.8308	1.5629	7.09	1.11	0.750			
0.4449	28473.16	3.8280	3.8279	1.5867	7.07	1.09	0.750			
0.4496	28771.31	3.8250	3.8251	1.6272	7.04	1.06	0.750			
0.4545	29089.07	3.8220	3.8221	1.6667	7.02	1.04	0.750			
0.4596	29413.98	3.8190	3.8189	1.6890	7.00	1.02	0.750			
0.4648	29746.77	3.8160	3.8158	1.7399	6.97	0.99	0.750			
0.4701	30084.46	3.8130	3.8132	1.7485	6.95	0.97	0.750			
0.4753	30420.32	3.8100	3.8100	1.7576	6.94	0.96	0.750			
0.4807	30766.13	3.8070	3.8070	1.8050	6.91	0.93	0.750			
0.4860	31106.45	3.8040	3.8039	1.8220	6.89	0.91	0.750			
0.4916	31464.36	3.8010	3.8010	1.8827	6.86	0.88	0.750			
0.4974	31833.81	3.7980	3.7980	1.8875	6.84	0.86	0.750			
0.5031	32198.03	3.7950	3.7953	1.9095	6.82	0.84	0.750			
0.5089	32570.61	3.7920	3.7922	1.9284	6.79	0.81	0.750			
0.5146	32937.50	3.7890	3.7890	1.9504	6.77	0.79	0.750			
0.5205	33311.82	3.7860	3.7859	1.9819	6.74	0.76	0.750			
0.5265	33698.61	3.7830	3.7829	2.0206	6.71	0.73	0.750			
0.5328	34097.77	3.7800	3.7800	2.0474	6.69	0.71	0.750			
0.5390	34495.21	3.7770	3.7770	2.0951	6.66	0.68	0.750			
0.5452	34895.21	3.7740	3.7740	2.1198	6.64	0.66	0.750			
0.5516	35301.74	3.7710	3.7708	2.1575	6.61	0.63	0.750			
0.5582	35724.69	3.7680	3.7680	2.1980	6.58	0.60	0.750			
0.5648	36147.08	3.7650	3.7650	2.2284	6.55	0.57	0.750			
0.5715	36575.53	3.7620	3.7620	2.3546	6.52	0.54	0.750			
0.5786	37032.54	3.7590	3.7588	2.4314	6.49	0.51	0.750			
0.5860	37506.27	3.7560	3.7562	2.5211	6.46	0.48	0.750			
0.5940	38014.06	3.7530	3.7530	2.6161	6.43	0.45	0.750			
0.6018	38512.02	3.7500	3.7499	2.6875	6.40	0.42	0.750			
0.6099	39035.20	3.7470	3.7470	2.8036	6.37	0.39	0.750			
0.6187	39596.50	3.7440	3.7441	2.8653	6.34	0.36	0.750			
0.6273	40149.05	3.7410	3.7410	2.9629	6.31	0.33	0.750			
0.6362	40719.41	3.7380	3.7379	3.0510	6.27	0.29	0.750			
0.6458	41330.38	3.7350	3.7350	3.1604	6.24	0.26	0.750			
0.6556	41960.08	3.7320	3.7320	3.0965	6.22	0.24	0.750			
0.6646	42536.47	3.7290	3.7290	2.8201	6.18	0.20	0.750			
0.6725	43040.72	3.7260	3.7260	2.4801	6.16	0.18	0.750			
0.6791	43463.38	3.7230	3.7232	2.1490	6.15	0.17	0.750			
0.6853	43856.76	3.7200	3.7198	1.9276	6.14	0.16	0.750			
0.6906	44196.88	3.7170	3.7170	1.7177	6.13	0.15	0.750			
0.6953	44499.98	3.7140	3.7142	1.5362	6.11	0.13	0.750			
0.6995	44770.96	3.7110	3.7111	1.3952	6.10	0.12	0.750			
0.7034	45020.10	3.7080	3.7079	1.2730	6.09	0.11	0.750			
0.7069	45243.89	3.7050	3.7050	1.1913	6.08	0.10	0.750			
0.7102	45454.18	3.7020	3.7020	1.1379	6.08	0.10	0.750			
0.7136	45668.58	3.6990	3.6989	1.1131	6.07	0.09	0.750			
0.7168	45877.56	3.6960	3.6960	1.0912	6.07	0.09	0.750			
0.7201	46088.00	3.6930	3.6929	1.0733	6.06	0.08	0.750			
0.7234	46294.43	3.6900	3.6901	1.0579	6.06	0.08	0.750			
0.7265	46497.58	3.6870	3.6871	1.0350	6.05	0.07	0.750			
0.7296	46692.66	3.6840	3.6839	1.0091	6.04	0.06	0.750			
0.7326	46883.35	3.6810	3.6810	0.9855	6.04	0.06	0.750			
0.7354	47068.06	3.6780	3.6780	0.9647	6.03	0.05	0.750			
0.7383	47252.20	3.6750	3.6749	0.9514	6.02	0.04	0.750			
0.7411	47433.12	3.6720	3.6721	0.9309	6.02	0.04	0.750			
0.7439	47607.50	3.6690	3.6690	0.9132	6.02	0.04	0.750			
0.7466	47781.58	3.6660	3.6661	0.9026	6.01	0.03	0.750			
0.7492	47951.74	3.6630	3.6630	0.8925	6.01	0.03	0.750			
0.7519	48121.87	3.6600	3.6598	0.8899	6.01	0.03	0.750			
0.7545	48290.27	3.6570	3.6572	0.8949	6.01	0.03	0.750			
0.7572	48462.33	3.6540	3.6540	0.9105	6.00	0.02	0.750			
0.7600	48639.20	3.6510	3.6509	0.9244	6.00	0.02	0.750			
0.7628	48818.62	3.6480	3.6481	0.9331	5.99	0.01	0.750			
0.7656	49000.63	3.6450	3.6449	0.9381	5.99	0.01	0.750			
0.7685	49185.29	3.6420	3.6420	0.9243	5.99	0.01	0.750			
0.7714	49368.37	3.6390	3.6389	0.8978	5.98	0.00	0.750			
0.7741	49542.57	3.6360	3.6361	0.8325	5.98	0.00	0.750			
0.7766	49703.36	3.6330	3.6331	0.7581	5.98	0.00	0.750			
0.7789	49847.22	3.6300	3.6300	0.6655	5.98	-0.00	0.750			
0.7807	49964.21	3.6270	3.6269	0.5554	5.98	-0.00	0.750			
0.7819	50044.25	3.6240	3.6246	0.4607	5.98	-0.00	0.750			
0.7832	50124.10	3.6210	3.6212	0.3773	5.98	-0.00	0.750			
0.7841	50184.77	3.6180	3.6178	0.2915	5.97	-0.01	0.750			
0.7848	50230.39	3.6150	3.6140	0.2223	5.97	-0.01	0.750			
0.7853	50256.76	3.6120	3.6103	0.1526	5.97	-0.01	0.750			
0.7855	50273.23	3.5940	3.5794	-0.1034	5.97	-0.01	0.750			
0.7856	50277.95	3.6090	3.5177	0.1035	5.97	-0.01	0.754			
0.7858	50289.17	3.5970	3.3709	-0.0627	5.97	-0.01	0.765			
0.7858	50290.14	3.6060	3.3581	0.0593	5.97	-0.01	0.766			
0.7859	50297.30	3.6000	3.2645	-0.0220	5.97	-0.01	0.773			
0.7859	50297.63	3.6030	3.2602	0.0186	5.97	-0.01	0.773			
