Ah_balance (normalized)	Ah_balance (mAh)	Voltage - fit (V)	Voltage -  interpolate (V)	dQ/dV (1/V)	Temperature (°C)	Temperature - diff (°C)	Current (C)	R_DC 0ms (mOhm)	R_DC 50ms (mOhm)	R_DC 50 ms PEC (mOhm)
0.0979	6265.04	4.1970	4.1997	0.6155	8.23	2.25	0.750			
0.1001	6406.75	4.1940	4.1965	0.7450	8.23	2.25	0.750			
0.1025	6559.19	4.1910	4.1929	0.7892	8.22	2.24	0.750			
0.1050	6718.59	4.1880	4.1890	0.7883	8.21	2.23	0.750			
0.1074	6876.72	4.1850	4.1856	0.7865	8.20	2.22	0.750			
0.1099	7031.07	4.1820	4.1821	0.7589	8.20	2.22	0.750			
0.1121	7172.54	4.1790	4.1790	0.6985	8.19	2.21	0.750			
0.1141	7304.98	4.1760	4.1761	0.6974	8.18	2.20	0.750			
0.1162	7438.26	4.1730	4.1730	0.7043	8.18	2.20	0.750			
0.1183	7573.73	4.1700	4.1700	0.7025	8.17	2.19	0.750			
0.1205	7709.99	4.1670	4.1670	0.7095	8.16	2.18	0.750			
0.1227	7850.12	4.1640	4.1640	0.7081	8.16	2.18	0.750			
0.1247	7983.69	4.1610	4.1612	0.7099	8.15	2.17	0.750			
0.1269	8119.80	4.1580	4.1579	0.7106	8.14	2.16	0.750			
0.1290	8255.03	4.1550	4.1550	0.7085	8.14	2.16	0.750			
0.1311	8388.89	4.1520	4.1519	0.7119	8.13	2.15	0.750			
0.1332	8527.39	4.1490	4.1492	0.7218	8.12	2.14	0.750			
0.1354	8668.42	4.1460	4.1460	0.7246	8.11	2.13	0.750			
0.1377	8809.85	4.1430	4.1429	0.7310	8.11	2.13	0.750			
0.1398	8948.87	4.1400	4.1401	0.7320	8.10	2.12	0.750			
0.1420	9090.88	4.1370	4.1370	0.7382	8.09	2.11	0.750			
0.1443	9232.72	4.1340	4.1341	0.7443	8.09	2.11	0.750			
0.1465	9374.57	4.1310	4.1310	0.7445	8.08	2.10	0.750			
0.1487	9519.74	4.1280	4.1280	0.7434	8.08	2.10	0.750			
0.1510	9663.72	4.1250	4.1251	0.7476	8.07	2.09	0.750			
0.1532	9806.09	4.1220	4.1221	0.7527	8.07	2.09	0.750			
0.1555	9949.83	4.1190	4.1188	0.7508	8.06	2.08	0.750			
0.1577	10094.17	4.1160	4.1160	0.7562	8.05	2.07	0.750			
0.1600	10239.14	4.1130	4.1131	0.7612	8.05	2.07	0.750			
0.1623	10387.89	4.1100	4.1100	0.7675	8.04	2.06	0.750			
0.1646	10537.33	4.1070	4.1070	0.7732	8.03	2.05	0.750			
0.1670	10685.15	4.1040	4.1039	0.7675	8.02	2.04	0.750			
0.1693	10832.77	4.1010	4.1010	0.7664	8.02	2.04	0.750			
0.1716	10981.06	4.0980	4.0982	0.7659	8.01	2.03	0.750			
0.1738	11125.55	4.0950	4.0949	0.7626	8.00	2.02	0.750			
0.1761	11269.39	4.0920	4.0921	0.7684	7.99	2.01	0.750			
0.1784	11417.15	4.0890	4.0890	0.7767	7.99	2.01	0.750			
0.1807	11565.91	4.0860	4.0857	0.7879	7.98	2.00	0.750			
0.1831	11721.12	4.0830	4.0831	0.7982	7.97	1.99	0.750			
0.1856	11875.20	4.0800	4.0801	0.8038	7.97	1.99	0.750			
0.1880	12032.88	4.0770	4.0770	0.8096	7.96	1.98	0.750			
0.1904	12187.05	4.0740	4.0741	0.8069	7.96	1.98	0.750			
0.1929	12343.22	4.0710	4.0709	0.8076	7.95	1.97	0.750			
0.1953	12499.67	4.0680	4.0680	0.8060	7.94	1.96	0.750			
0.1977	12654.18	4.0650	4.0650	0.7986	7.94	1.96	0.750			
0.2001	12806.07	4.0620	4.0620	0.8122	7.93	1.95	0.750			
0.2025	12961.04	4.0590	4.0591	0.8156	7.93	1.95	0.750			
0.2050	13117.57	4.0560	4.0558	0.8191	7.92	1.94	0.750			
0.2074	13275.68	4.0530	4.0531	0.8242	7.91	1.93	0.750			
0.2099	13436.33	4.0500	4.0501	0.8298	7.91	1.93	0.750			
0.2124	13595.00	4.0470	4.0470	0.8358	7.90	1.92	0.750			
0.2149	13754.35	4.0440	4.0441	0.8337	7.89	1.91	0.750			
0.2175	13917.79	4.0410	4.0409	0.8356	7.88	1.90	0.750			
0.2200	14078.82	4.0380	4.0380	0.8397	7.87	1.89	0.750			
0.2225	14241.00	4.0350	4.0352	0.8384	7.87	1.89	0.750			
0.2250	14402.37	4.0320	4.0320	0.8378	7.86	1.88	0.750			
0.2275	14560.26	4.0290	4.0289	0.8377	7.85	1.87	0.750			
0.2300	14720.27	4.0260	4.0260	0.8425	7.84	1.86	0.750			
0.2325	14880.59	4.0230	4.0230	0.8566	7.83	1.85	0.750			
0.2351	15048.53	4.0200	4.0200	0.8707	7.83	1.85	0.750			
0.2378	15219.42	4.0170	4.0169	0.8748	7.82	1.84	0.750			
0.2405	15389.01	4.0140	4.0141	0.8807	7.81	1.83	0.750			
0.2431	15558.39	4.0110	4.0111	0.8817	7.80	1.82	0.750			
0.2457	15727.75	4.0080	4.0079	0.8772	7.79	1.81	0.750			
0.2483	15894.24	4.0050	4.0049	0.8768	7.78	1.80	0.750			
0.2510	16061.39	4.0020	4.0021	0.8795	7.78	1.80	0.750			
0.2536	16232.89	3.9990	3.9991	0.8916	7.77	1.79	0.750			
0.2564	16407.06	3.9960	3.9958	0.8960	7.76	1.78	0.750			
0.2590	16578.37	3.9930	3.9932	0.8928	7.75	1.77	0.750			
0.2617	16748.50	3.9900	3.9900	0.9020	7.74	1.76	0.750			
0.2644	16921.86	3.9870	3.9870	0.9105	7.73	1.75	0.750			
0.2671	17096.11	3.9840	3.9839	0.9142	7.72	1.74	0.750			
0.2699	17274.14	3.9810	3.9811	0.9168	7.71	1.73	0.750			
0.2727	17451.89	3.9780	3.9780	0.9270	7.71	1.73	0.750			
0.2755	17631.41	3.9750	3.9751	0.9341	7.70	1.72	0.750			
0.2783	17811.03	3.9720	3.9720	0.9374	7.69	1.71	0.750			
0.2811	17989.59	3.9690	3.9689	0.9437	7.68	1.70	0.750			
0.2840	18172.98	3.9660	3.9661	0.9406	7.67	1.69	0.750			
0.2868	18353.21	3.9630	3.9630	0.9476	7.66	1.68	0.750			
0.2896	18534.70	3.9600	3.9600	0.9569	7.65	1.67	0.750			
0.2925	18717.62	3.9570	3.9570	0.9610	7.64	1.66	0.750			
0.2954	18903.51	3.9540	3.9539	0.9662	7.63	1.65	0.750			
0.2983	19089.31	3.9510	3.9511	0.9770	7.62	1.64	0.750			
0.3012	19278.53	3.9480	3.9481	0.9875	7.61	1.63	0.750			
0.3042	19470.71	3.9450	3.9450	0.9952	7.60	1.62	0.750			
0.3072	19662.53	3.9420	3.9420	0.9952	7.58	1.60	0.750			
0.3102	19851.29	3.9390	3.9391	1.0061	7.58	1.60	0.750			
0.3132	20047.53	3.9360	3.9360	1.0201	7.57	1.59	0.750			
0.3164	20246.65	3.9330	3.9329	1.0273	7.56	1.58	0.750			
0.3195	20445.65	3.9300	3.9300	1.0205	7.54	1.56	0.750			
0.3225	20641.67	3.9270	3.9273	1.0265	7.53	1.55	0.750			
0.3256	20838.77	3.9240	3.9239	1.0330	7.52	1.54	0.750			
0.3287	21034.97	3.9210	3.9211	1.0498	7.51	1.53	0.750			
0.3318	21232.01	3.9180	3.9180	1.0569	7.50	1.52	0.750			
0.3350	21437.64	3.9150	3.9150	1.0838	7.49	1.51	0.750			
0.3383	21651.99	3.9120	3.9121	1.1051	7.48	1.50	0.750			
0.3417	21867.19	3.9090	3.9090	1.1230	7.46	1.48	0.750			
0.3451	22085.91	3.9060	3.9061	1.1253	7.45	1.47	0.750			
0.3485	22304.11	3.9030	3.9029	1.1331	7.44	1.46	0.750			
0.3519	22521.53	3.9000	3.9001	1.1360	7.43	1.45	0.750			
0.3553	22740.49	3.8970	3.8968	1.1457	7.41	1.43	0.750			
0.3588	22960.07	3.8940	3.8941	1.1575	7.40	1.42	0.750			
0.3622	23182.67	3.8910	3.8909	1.1703	7.38	1.40	0.750			
0.3657	23406.86	3.8880	3.8881	1.1848	7.37	1.39	0.750			
0.3694	23639.29	3.8850	3.8850	1.1790	7.36	1.38	0.750			
0.3729	23866.27	3.8820	3.8820	1.2001	7.34	1.36	0.750			
0.3765	24096.65	3.8790	3.8791	1.2229	7.33	1.35	0.750			
0.3802	24332.22	3.8760	3.8757	1.2398	7.31	1.33	0.750			
0.3839	24569.60	3.8730	3.8732	1.2646	7.30	1.32	0.750	0.365	0.830	
0.3877	24815.64	3.8700	3.8702	1.2948	7.28	1.30	0.750			
0.3917	25068.35	3.8670	3.8670	1.3251	7.27	1.29	0.750			
0.3958	25329.93	3.8640	3.8640	1.3467	7.25	1.27	0.750			
0.3998	25588.33	3.8610	3.8609	1.3612	7.23	1.25	0.750			
0.4040	25853.56	3.8580	3.8581	1.3630	7.22	1.24	0.750			
0.4081	26116.01	3.8550	3.8551	1.3906	7.20	1.22	0.750			
0.4122	26378.95	3.8520	3.8520	1.4027	7.18	1.20	0.750			
0.4165	26653.62	3.8490	3.8490	1.4127	7.17	1.19	0.750			
0.4206	26921.14	3.8460	3.8459	1.4445	7.15	1.17	0.750			
0.4250	27201.47	3.8430	3.8430	1.4796	7.13	1.15	0.750			
0.4295	27488.65	3.8400	3.8400	1.5031	7.11	1.13	0.750			
0.4342	27787.08	3.8370	3.8368	1.5226	7.10	1.12	0.750			
0.4387	28076.45	3.8340	3.8343	1.5225	7.08	1.10	0.750			
0.4433	28373.82	3.8310	3.8309	1.5581	7.06	1.08	0.750			
0.4480	28670.53	3.8280	3.8280	1.5804	7.04	1.06	0.750			
0.4527	28974.91	3.8250	3.8250	1.6112	7.02	1.04	0.750			
0.4576	29286.01	3.8220	3.8219	1.6369	7.00	1.02	0.750			
0.4626	29605.31	3.8190	3.8190	1.6631	6.98	1.00	0.750			
0.4678	29938.30	3.8160	3.8159	1.6873	6.96	0.98	0.750			
0.4728	30258.55	3.8130	3.8131	1.7024	6.94	0.96	0.750			
0.4779	30586.28	3.8100	3.8103	1.7083	6.92	0.94	0.750			
0.4831	30918.03	3.8070	3.8069	1.7079	6.90	0.92	0.750			
0.4882	31246.61	3.8040	3.8039	1.7245	6.88	0.90	0.750			
0.4934	31576.62	3.8010	3.8010	1.7699	6.86	0.88	0.750			
0.4987	31917.48	3.7980	3.7980	1.8155	6.83	0.85	0.750			
0.5042	32267.44	3.7950	3.7948	1.8217	6.81	0.83	0.750			
0.5097	32622.78	3.7920	3.7922	1.8378	6.78	0.80	0.750			
0.5155	32989.21	3.7890	3.7891	1.8678	6.76	0.78	0.750			
0.5211	33348.15	3.7860	3.7859	1.9054	6.74	0.76	0.750			
0.5267	33706.90	3.7830	3.7829	1.8933	6.72	0.74	0.750			
0.5324	34071.48	3.7800	3.7799	1.9315	6.69	0.71	0.750			
0.5383	34450.32	3.7770	3.7772	1.9553	6.66	0.68	0.750			
0.5441	34822.27	3.7740	3.7741	1.9839	6.64	0.66	0.750			
0.5501	35204.44	3.7710	3.7711	2.0484	6.61	0.63	0.750			
0.5561	35591.69	3.7680	3.7683	2.1482	6.59	0.61	0.750			
0.5628	36017.14	3.7650	3.7650	2.2541	6.56	0.58	0.750			
0.5698	36465.60	3.7620	3.7621	2.3648	6.53	0.55	0.750			
0.5770	36925.05	3.7590	3.7591	2.4728	6.50	0.52	0.750			
0.5844	37403.88	3.7560	3.7557	2.5697	6.46	0.48	0.750			
0.5923	37907.68	3.7530	3.7530	2.6490	6.43	0.45	0.750			
0.6005	38430.27	3.7500	3.7500	2.8440	6.39	0.41	0.750			
0.6091	38981.28	3.7470	3.7466	2.9051	6.36	0.38	0.750			
0.6180	39551.10	3.7440	3.7444	3.0624	6.33	0.35	0.750			
0.6275	40161.65	3.7410	3.7409	3.1267	6.29	0.31	0.750			
0.6368	40754.55	3.7380	3.7383	3.0308	6.26	0.28	0.750			
0.6462	41356.50	3.7350	3.7350	2.8947	6.23	0.25	0.750			
0.6545	41885.38	3.7320	3.7320	2.5793	6.21	0.23	0.750			
0.6618	42356.88	3.7290	3.7291	2.2987	6.19	0.21	0.750			
0.6680	42755.02	3.7260	3.7261	1.9841	6.17	0.19	0.750			
0.6735	43106.31	3.7230	3.7230	1.7373	6.15	0.17	0.750			
0.6781	43398.85	3.7200	3.7199	1.5087	6.14	0.16	0.750			
0.6821	43656.01	3.7170	3.7170	1.3703	6.13	0.15	0.750			
0.6859	43896.92	3.7140	3.7138	1.2578	6.12	0.14	0.750			
0.6894	44122.20	3.7110	3.7109	1.1823	6.11	0.13	0.750			
0.6928	44339.63	3.7080	3.7080	1.1358	6.10	0.12	0.750			
0.6961	44547.61	3.7050	3.7050	1.0995	6.09	0.11	0.750			
0.6993	44755.87	3.7020	3.7019	1.0849	6.09	0.11	0.750			
0.7025	44959.00	3.6990	3.6989	1.0653	6.08	0.10	0.750			
0.7056	45161.29	3.6960	3.6958	1.0535	6.07	0.09	0.750			
0.7089	45366.83	3.6930	3.6930	1.0376	6.06	0.08	0.750			
0.7120	45566.53	3.6900	3.6901	1.0158	6.05	0.07	0.750			
0.7150	45760.18	3.6870	3.6870	0.9862	6.05	0.07	0.750			
0.7179	45946.11	3.6840	3.6838	0.9669	6.04	0.06	0.750			
0.7207	46125.39	3.6810	3.6811	0.9398	6.03	0.05	0.750			
0.7235	46303.82	3.6780	3.6779	0.9239	6.03	0.05	0.750			
0.7262	46479.58	3.6750	3.6750	0.9092	6.02	0.04	0.750			
0.7289	46652.80	3.6720	3.6720	0.8926	6.01	0.03	0.750			
0.7316	46822.19	3.6690	3.6691	0.8908	6.01	0.03	0.750			
0.7343	46994.29	3.6660	3.6660	0.8805	6.00	0.02	0.750			
0.7369	47159.03	3.6630	3.6629	0.8822	6.00	0.02	0.750			
0.7395	47328.74	3.6600	3.6600	0.8831	6.00	0.02	0.750			
0.7422	47499.86	3.6570	3.6569	0.8800	5.99	0.01	0.750			
0.7448	47668.88	3.6540	3.6541	0.8785	5.99	0.01	0.750			
0.7475	47840.95	3.6510	3.6511	0.8663	5.99	0.01	0.750			
0.7501	48008.06	3.6480	3.6479	0.8323	5.98	0.00	0.750			
0.7527	48169.94	3.6450	3.6450	0.7906	5.98	0.00	0.750			
0.7550	48322.49	3.6420	3.6420	0.7275	5.98	0.00	0.750			
0.7572	48461.95	3.6390	3.6390	0.6581	5.98	-0.00	0.750			
0.7591	48581.82	3.6360	3.6360	0.5650	5.98	-0.00	0.750			
0.7606	48679.38	3.6330	3.6330	0.4673	5.98	-0.00	0.750			
0.7617	48747.47	3.6300	3.6306	0.3998	5.98	-0.00	0.750			
0.7627	48815.56	3.6270	3.6272	0.3266	5.97	-0.01	0.750			
0.7635	48865.35	3.6240	3.6239	0.2483	5.97	-0.01	0.750			
0.7641	48903.89	3.6210	3.6197	0.1916	5.97	-0.01	0.750			
0.7645	48926.57	3.6180	3.6088	0.1329	5.97	-0.01	0.750			
0.7646	48931.39	3.5970	3.5799	-0.1115	5.97	-0.01	0.750			
0.7647	48943.50	3.6150	3.3992	0.0905	5.97	-0.01	0.768			
0.7648	48949.57	3.6000	3.3084	-0.0778	5.97	-0.01	0.777			
0.7650	48957.64	3.6120	3.1878	0.0568	5.97	-0.01	0.790			
0.7650	48961.29	3.6030	3.1333	-0.0442	5.97	-0.01	0.795			
0.7651	48965.32	3.6090	3.0730	0.0232	5.97	-0.01	0.801			
0.7651	48966.54	3.6060	3.0549	-0.0105	5.97	-0.01	0.803			
