Ah_balance (normalized)	Ah_balance (mAh)	Voltage - fit (V)	Voltage -  interpolate (V)	dQ/dV (1/V)	Temperature (°C)	Temperature - diff (°C)	Current (C)	R_DC 0ms (mOhm)	R_DC 50ms (mOhm)	R_DC 50 ms PEC (mOhm)
0.0988	6323.05	4.1970	4.1992	0.5533	8.22	2.23	0.750			
0.1009	6457.70	4.1940	4.1961	0.7348	8.22	2.23	0.750			
0.1033	6613.08	4.1910	4.1925	0.7951	8.21	2.22	0.750			
0.1059	6776.18	4.1880	4.1889	0.7956	8.20	2.21	0.750			
0.1082	6925.30	4.1850	4.1859	0.7720	8.19	2.20	0.750			
0.1108	7091.84	4.1820	4.1823	0.7741	8.19	2.20	0.750			
0.1130	7234.64	4.1790	4.1790	0.7048	8.18	2.19	0.750			
0.1151	7367.93	4.1760	4.1760	0.6982	8.17	2.18	0.750			
0.1172	7502.06	4.1730	4.1731	0.6996	8.17	2.18	0.750			
0.1193	7635.87	4.1700	4.1699	0.7016	8.16	2.17	0.750			
0.1214	7769.99	4.1670	4.1669	0.7053	8.15	2.16	0.750			
0.1235	7904.56	4.1640	4.1640	0.7083	8.15	2.16	0.750			
0.1257	8041.74	4.1610	4.1610	0.7155	8.14	2.15	0.750			
0.1278	8179.98	4.1580	4.1580	0.7221	8.14	2.15	0.750			
0.1300	8319.75	4.1550	4.1550	0.7274	8.13	2.14	0.750			
0.1322	8460.36	4.1520	4.1520	0.7358	8.13	2.14	0.750			
0.1344	8602.59	4.1490	4.1490	0.7391	8.12	2.13	0.750			
0.1367	8746.52	4.1460	4.1459	0.7343	8.11	2.12	0.750			
0.1389	8887.43	4.1430	4.1430	0.7385	8.11	2.12	0.750			
0.1411	9029.47	4.1400	4.1401	0.7357	8.10	2.11	0.750			
0.1433	9169.37	4.1370	4.1369	0.7361	8.09	2.10	0.750			
0.1455	9310.66	4.1340	4.1341	0.7367	8.09	2.10	0.750			
0.1477	9450.77	4.1310	4.1310	0.7376	8.08	2.09	0.750			
0.1499	9593.16	4.1280	4.1279	0.7438	8.08	2.09	0.750			
0.1521	9735.49	4.1250	4.1251	0.7486	8.07	2.08	0.750			
0.1544	9881.63	4.1220	4.1220	0.7497	8.06	2.07	0.750			
0.1567	10027.86	4.1190	4.1190	0.7570	8.06	2.07	0.750			
0.1590	10172.86	4.1160	4.1161	0.7582	8.05	2.06	0.750			
0.1612	10318.84	4.1130	4.1130	0.7601	8.04	2.05	0.750			
0.1635	10464.26	4.1100	4.1099	0.7614	8.04	2.05	0.750			
0.1658	10610.75	4.1070	4.1071	0.7634	8.03	2.04	0.750			
0.1681	10755.70	4.1040	4.1040	0.7666	8.02	2.03	0.750			
0.1704	10904.56	4.1010	4.1010	0.7742	8.02	2.03	0.750			
0.1727	11054.39	4.0980	4.0979	0.7711	8.01	2.02	0.750			
0.1750	11201.79	4.0950	4.0949	0.7756	8.01	2.02	0.750			
0.1774	11350.65	4.0920	4.0922	0.7821	8.00	2.01	0.750			
0.1797	11500.79	4.0890	4.0891	0.7873	7.99	2.00	0.750			
0.1821	11652.05	4.0860	4.0858	0.7945	7.99	2.00	0.750			
0.1845	11805.71	4.0830	4.0831	0.7979	7.98	1.99	0.750			
0.1869	11959.56	4.0800	4.0800	0.8050	7.97	1.98	0.750			
0.1893	12116.85	4.0770	4.0770	0.8067	7.96	1.97	0.750			
0.1918	12272.28	4.0740	4.0740	0.8077	7.96	1.97	0.750			
0.1942	12426.00	4.0710	4.0710	0.8085	7.95	1.96	0.750			
0.1966	12581.90	4.0680	4.0680	0.8110	7.94	1.95	0.750			
0.1990	12737.42	4.0650	4.0649	0.8075	7.93	1.94	0.750			
0.2014	12891.90	4.0620	4.0621	0.8156	7.93	1.94	0.750			
0.2039	13047.29	4.0590	4.0590	0.8222	7.92	1.93	0.750			
0.2064	13207.38	4.0560	4.0557	0.8267	7.91	1.92	0.750			
0.2088	13365.70	4.0530	4.0531	0.8327	7.90	1.91	0.750			
0.2114	13527.26	4.0500	4.0500	0.8360	7.89	1.90	0.750			
0.2139	13690.91	4.0470	4.0471	0.8398	7.89	1.90	0.750			
0.2164	13851.45	4.0440	4.0439	0.8348	7.88	1.89	0.750			
0.2189	14011.07	4.0410	4.0408	0.8342	7.87	1.88	0.750			
0.2214	14170.59	4.0380	4.0381	0.8388	7.86	1.87	0.750			
0.2239	14332.04	4.0350	4.0350	0.8499	7.85	1.86	0.750			
0.2265	14495.17	4.0320	4.0319	0.8553	7.85	1.86	0.750			
0.2291	14661.22	4.0290	4.0290	0.8595	7.84	1.85	0.750			
0.2317	14829.06	4.0260	4.0261	0.8682	7.83	1.84	0.750			
0.2343	14996.43	4.0230	4.0230	0.8699	7.82	1.83	0.750			
0.2369	15161.91	4.0200	4.0200	0.8795	7.82	1.83	0.750			
0.2396	15332.61	4.0170	4.0169	0.8751	7.81	1.82	0.750			
0.2422	15500.56	4.0140	4.0140	0.8744	7.80	1.81	0.750			
0.2449	15671.26	4.0110	4.0112	0.8773	7.80	1.81	0.750			
0.2475	15840.39	4.0080	4.0079	0.8691	7.79	1.80	0.750			
0.2501	16004.94	4.0050	4.0050	0.8801	7.78	1.79	0.750			
0.2527	16172.99	4.0020	4.0020	0.8857	7.77	1.78	0.750			
0.2553	16341.09	3.9990	3.9989	0.8914	7.76	1.77	0.750			
0.2581	16517.02	3.9960	3.9963	0.9079	7.75	1.76	0.750			
0.2608	16691.97	3.9930	3.9930	0.9151	7.74	1.75	0.750			
0.2636	16869.67	3.9900	3.9900	0.9178	7.73	1.74	0.750			
0.2664	17047.67	3.9870	3.9870	0.9209	7.72	1.73	0.750			
0.2691	17222.25	3.9840	3.9840	0.9198	7.71	1.72	0.750			
0.2719	17400.61	3.9810	3.9809	0.9163	7.70	1.71	0.750			
0.2746	17573.82	3.9780	3.9781	0.9228	7.69	1.70	0.750			
0.2773	17749.94	3.9750	3.9750	0.9327	7.68	1.69	0.750			
0.2801	17928.18	3.9720	3.9721	0.9514	7.67	1.68	0.750			
0.2830	18114.74	3.9690	3.9691	0.9653	7.66	1.67	0.750			
0.2860	18302.53	3.9660	3.9658	0.9752	7.65	1.66	0.750			
0.2890	18493.00	3.9630	3.9631	0.9826	7.64	1.65	0.750			
0.2919	18684.72	3.9600	3.9601	0.9821	7.63	1.64	0.750			
0.2949	18871.07	3.9570	3.9570	0.9757	7.62	1.63	0.750			
0.2978	19057.55	3.9540	3.9540	0.9750	7.61	1.62	0.750			
0.3006	19239.05	3.9510	3.9509	0.9725	7.60	1.61	0.750			
0.3036	19427.50	3.9480	3.9481	0.9801	7.59	1.60	0.750			
0.3065	19616.64	3.9450	3.9448	0.9893	7.58	1.59	0.750			
0.3095	19807.19	3.9420	3.9421	0.9965	7.57	1.58	0.750			
0.3125	19999.51	3.9390	3.9390	1.0113	7.56	1.57	0.750			
0.3155	20195.11	3.9360	3.9360	1.0118	7.55	1.56	0.750			
0.3186	20389.90	3.9330	3.9328	1.0131	7.54	1.55	0.750			
0.3216	20583.58	3.9300	3.9302	1.0294	7.53	1.54	0.750			
0.3247	20783.62	3.9270	3.9269	1.0433	7.52	1.53	0.750			
0.3279	20984.21	3.9240	3.9238	1.0542	7.51	1.52	0.750			
0.3311	21189.39	3.9210	3.9210	1.0667	7.50	1.51	0.750			
0.3343	21393.01	3.9180	3.9181	1.0808	7.49	1.50	0.750			
0.3376	21603.95	3.9150	3.9149	1.1032	7.47	1.48	0.750			
0.3409	21817.51	3.9120	3.9120	1.1122	7.45	1.46	0.750			
0.3442	22031.72	3.9090	3.9088	1.1179	7.44	1.45	0.750			
0.3476	22248.37	3.9060	3.9060	1.1271	7.43	1.44	0.750			
0.3510	22466.47	3.9030	3.9031	1.1364	7.41	1.42	0.750			
0.3544	22683.73	3.9000	3.9000	1.1477	7.40	1.41	0.750			
0.3579	22903.94	3.8970	3.8970	1.1549	7.39	1.40	0.750			
0.3613	23125.36	3.8940	3.8940	1.1674	7.37	1.38	0.750			
0.3649	23356.06	3.8910	3.8910	1.1636	7.36	1.37	0.750			
0.3684	23580.63	3.8880	3.8881	1.1788	7.35	1.36	0.750			
0.3719	23800.79	3.8850	3.8852	1.2097	7.34	1.35	0.750			
0.3755	24033.59	3.8820	3.8818	1.2381	7.32	1.33	0.750	0.369	0.802	
0.3793	24273.94	3.8790	3.8791	1.2507	7.31	1.32	0.750			
0.3831	24517.90	3.8760	3.8762	1.2865	7.29	1.30	0.750			
0.3871	24771.73	3.8730	3.8731	1.3207	7.27	1.28	0.750			
0.3912	25036.38	3.8700	3.8699	1.3269	7.25	1.26	0.750			
0.3951	25287.33	3.8670	3.8669	1.3254	7.24	1.25	0.750			
0.3990	25535.57	3.8640	3.8642	1.3300	7.22	1.23	0.750			
0.4030	25793.61	3.8610	3.8611	1.3514	7.20	1.21	0.750			
0.4071	26053.46	3.8580	3.8579	1.3807	7.19	1.20	0.750			
0.4112	26316.03	3.8550	3.8550	1.3991	7.17	1.18	0.750			
0.4155	26590.82	3.8520	3.8519	1.4201	7.15	1.16	0.750			
0.4198	26869.50	3.8490	3.8491	1.4368	7.14	1.15	0.750			
0.4241	27143.43	3.8460	3.8461	1.4571	7.12	1.13	0.750			
0.4285	27424.44	3.8430	3.8428	1.4666	7.10	1.11	0.750			
0.4329	27707.47	3.8400	3.8401	1.4839	7.08	1.09	0.750			
0.4373	27988.79	3.8370	3.8372	1.4996	7.07	1.08	0.750			
0.4419	28283.55	3.8340	3.8341	1.5168	7.05	1.06	0.750			
0.4466	28580.06	3.8310	3.8308	1.5293	7.03	1.04	0.750			
0.4511	28869.25	3.8280	3.8278	1.5368	7.01	1.02	0.750			
0.4558	29168.06	3.8250	3.8249	1.5514	6.99	1.00	0.750			
0.4605	29469.72	3.8220	3.8220	1.5858	6.97	0.98	0.750			
0.4652	29774.93	3.8190	3.8191	1.5858	6.95	0.96	0.750			
0.4700	30080.65	3.8160	3.8160	1.6006	6.93	0.94	0.750			
0.4749	30392.65	3.8130	3.8132	1.6187	6.91	0.92	0.750			
0.4798	30705.20	3.8100	3.8099	1.6392	6.89	0.90	0.750			
0.4847	31019.89	3.8070	3.8072	1.6544	6.86	0.87	0.750			
0.4897	31341.59	3.8040	3.8040	1.6839	6.84	0.85	0.750			
0.4947	31662.35	3.8010	3.8009	1.7062	6.82	0.83	0.750			
0.5000	31998.00	3.7980	3.7981	1.7240	6.80	0.81	0.750			
0.5052	32334.04	3.7950	3.7948	1.7522	6.78	0.79	0.750			
0.5105	32670.32	3.7920	3.7920	1.7653	6.76	0.77	0.750			
0.5158	33008.66	3.7890	3.7888	1.8003	6.74	0.75	0.750			
0.5212	33358.43	3.7860	3.7859	1.8468	6.71	0.72	0.750			
0.5268	33712.34	3.7830	3.7829	1.8986	6.69	0.70	0.750			
0.5325	34079.40	3.7800	3.7799	1.9714	6.67	0.68	0.750			
0.5384	34460.59	3.7770	3.7772	2.0560	6.64	0.65	0.750			
0.5449	34870.81	3.7740	3.7740	2.1091	6.62	0.63	0.750			
0.5513	35282.07	3.7710	3.7710	2.1635	6.59	0.60	0.750			
0.5579	35704.37	3.7680	3.7681	2.2561	6.56	0.57	0.750			
0.5646	36133.99	3.7650	3.7649	2.3351	6.54	0.55	0.750			
0.5717	36591.46	3.7620	3.7621	2.4341	6.51	0.52	0.750			
0.5793	37073.59	3.7590	3.7590	2.5592	6.48	0.49	0.750			
0.5870	37570.62	3.7560	3.7560	2.6782	6.45	0.46	0.750			
0.5953	38096.94	3.7530	3.7530	2.8073	6.41	0.42	0.750			
0.6039	38651.04	3.7500	3.7501	2.9241	6.38	0.39	0.750			
0.6129	39228.75	3.7470	3.7470	3.0029	6.35	0.36	0.750			
0.6221	39813.86	3.7440	3.7438	2.9878	6.32	0.33	0.750			
0.6311	40393.60	3.7410	3.7410	2.8842	6.28	0.29	0.750			
0.6398	40949.52	3.7380	3.7380	2.7073	6.25	0.26	0.750			
0.6474	41435.33	3.7350	3.7351	2.3761	6.23	0.24	0.750			
0.6540	41855.52	3.7320	3.7323	2.0856	6.21	0.22	0.750			
0.6596	42215.08	3.7290	3.7291	1.8139	6.19	0.20	0.750			
0.6646	42536.10	3.7260	3.7259	1.6139	6.18	0.19	0.750			
0.6690	42817.19	3.7230	3.7229	1.4387	6.17	0.18	0.750			
0.6730	43070.87	3.7200	3.7200	1.3301	6.16	0.17	0.750			
0.6767	43306.08	3.7170	3.7170	1.2514	6.15	0.16	0.750			
0.6802	43532.79	3.7140	3.7139	1.1899	6.13	0.14	0.750			
0.6836	43751.97	3.7110	3.7110	1.1439	6.12	0.13	0.750			
0.6870	43968.13	3.7080	3.7081	1.1162	6.11	0.12	0.750			
0.6903	44181.01	3.7050	3.7051	1.0887	6.10	0.11	0.750			
0.6936	44387.88	3.7020	3.7017	1.0681	6.09	0.10	0.750			
0.6967	44588.43	3.6990	3.6992	1.0291	6.08	0.09	0.750			
0.6997	44782.12	3.6960	3.6960	1.0134	6.08	0.09	0.750			
0.7027	44975.52	3.6930	3.6930	0.9984	6.07	0.08	0.750			
0.7057	45163.63	3.6900	3.6899	0.9775	6.06	0.07	0.750			
0.7086	45348.36	3.6870	3.6870	0.9651	6.05	0.06	0.750			
0.7115	45535.55	3.6840	3.6841	0.9537	6.04	0.05	0.750			
0.7143	45717.53	3.6810	3.6810	0.9338	6.03	0.04	0.750			
0.7171	45897.09	3.6780	3.6781	0.9174	6.03	0.04	0.750			
0.7198	46068.18	3.6750	3.6751	0.9089	6.02	0.03	0.750			
0.7225	46241.85	3.6720	3.6719	0.8971	6.01	0.02	0.750			
0.7252	46411.79	3.6690	3.6689	0.8955	6.01	0.02	0.750			
0.7279	46582.58	3.6660	3.6661	0.8924	6.01	0.02	0.750			
0.7306	46756.95	3.6630	3.6629	0.8905	6.00	0.01	0.750			
0.7333	46928.50	3.6600	3.6600	0.8801	6.00	0.01	0.750			
0.7359	47097.05	3.6570	3.6570	0.8674	6.00	0.01	0.750			
0.7385	47264.17	3.6540	3.6540	0.8407	5.99	0.00	0.750			
0.7411	47432.25	3.6510	3.6508	0.7991	5.99	0.00	0.750			
0.7435	47582.83	3.6480	3.6480	0.7340	5.99	0.00	0.750			
0.7457	47725.14	3.6450	3.6453	0.6614	5.99	-0.00	0.750			
0.7476	47843.97	3.6420	3.6420	0.5734	5.99	-0.00	0.750			
0.7491	47945.19	3.6390	3.6390	0.4770	5.99	-0.00	0.750			
0.7502	48013.73	3.6360	3.6364	0.4073	5.98	-0.01	0.750			
0.7513	48082.34	3.6330	3.6333	0.3304	5.98	-0.01	0.750			
0.7522	48137.93	3.6300	3.6298	0.2711	5.98	-0.01	0.750			
0.7528	48177.03	3.6270	3.6265	0.2054	5.98	-0.01	0.750			
0.7533	48210.10	3.6240	3.6197	0.1609	5.98	-0.01	0.750			
0.7534	48219.62	3.6000	3.5991	-0.1344	5.98	-0.01	0.750			
0.7536	48231.86	3.6210	3.4332	0.1162	5.98	-0.01	0.751			
0.7538	48241.99	3.6030	3.2888	-0.0986	5.98	-0.01	0.752			
0.7539	48250.73	3.6180	3.1643	0.0804	5.98	-0.01	0.753			
0.7540	48257.49	3.6060	3.0680	-0.0628	5.98	-0.01	0.754			
0.7541	48262.73	3.6150	2.9933	0.0446	5.98	-0.01	0.755			
0.7542	48266.11	3.6090	2.9452	-0.0270	5.98	-0.01	0.755			
0.7542	48267.85	3.6120	2.9203	0.0088	5.98	-0.01	0.755			
