Ah_balance (normalized)	Ah_balance (mAh)	Voltage - fit (V)	Voltage -  interpolate (V)	dQ/dV (1/V)	Temperature (°C)	Temperature - diff (°C)	Current (C)	R_DC 0ms (mOhm)	R_DC 50ms (mOhm)	R_DC 50 ms PEC (mOhm)
0.0000	0.00	4.0970	4.1276	0.0000	5.99	-0.00	-0.750			
0.0000	0.00	4.1000	4.1276	0.0000	5.99	-0.00	-0.750			
0.0002	12.34	4.0940	4.0936	-0.0434	5.99	-0.00	-0.750			
0.0004	23.11	4.0910	4.0907	-0.0729	5.99	-0.00	-0.750			
0.0006	41.27	4.0880	4.0877	-0.1002	5.99	-0.00	-0.750			
0.0010	63.17	4.0850	4.0850	-0.1279	5.99	-0.00	-0.750			
0.0014	90.71	4.0820	4.0819	-0.1511	5.99	-0.00	-0.750			
0.0019	122.21	4.0790	4.0792	-0.1752	5.99	-0.00	-0.750			
0.0025	160.23	4.0760	4.0759	-0.2003	5.99	-0.00	-0.750			
0.0031	200.78	4.0730	4.0731	-0.2229	5.99	-0.00	-0.750			
0.0038	245.92	4.0700	4.0698	-0.2442	5.99	-0.00	-0.750			
0.0046	294.30	4.0670	4.0670	-0.2666	5.99	-0.00	-0.750			
0.0054	347.48	4.0640	4.0641	-0.2904	5.99	-0.00	-0.750			
0.0063	405.29	4.0610	4.0611	-0.3154	5.99	0.00	-0.750			
0.0073	468.07	4.0580	4.0579	-0.3393	5.99	0.00	-0.750			
0.0084	535.67	4.0550	4.0550	-0.3614	5.99	0.00	-0.750			
0.0095	607.64	4.0520	4.0520	-0.3826	5.99	0.00	-0.750			
0.0107	684.10	4.0490	4.0490	-0.4053	5.99	0.00	-0.750			
0.0119	763.12	4.0460	4.0461	-0.4259	5.99	0.00	-0.750			
0.0132	845.93	4.0430	4.0430	-0.4517	6.00	0.01	-0.750			
0.0146	935.41	4.0400	4.0400	-0.4705	6.00	0.01	-0.750			
0.0161	1028.94	4.0370	4.0369	-0.4912	6.00	0.01	-0.750			
0.0176	1126.43	4.0340	4.0340	-0.5128	6.00	0.01	-0.750			
0.0192	1226.99	4.0310	4.0311	-0.5288	6.00	0.01	-0.750			
0.0208	1330.77	4.0280	4.0279	-0.5407	6.00	0.01	-0.750			
0.0224	1435.06	4.0250	4.0250	-0.5529	6.01	0.02	-0.750			
0.0241	1540.14	4.0220	4.0221	-0.5653	6.01	0.02	-0.750			
0.0258	1652.17	4.0190	4.0189	-0.5809	6.01	0.02	-0.750			
0.0276	1765.16	4.0160	4.0159	-0.5944	6.01	0.02	-0.750			
0.0294	1879.88	4.0130	4.0131	-0.6076	6.02	0.03	-0.750			
0.0312	1998.59	4.0100	4.0102	-0.6240	6.02	0.03	-0.750			
0.0331	2120.81	4.0070	4.0070	-0.6360	6.03	0.04	-0.750			
0.0350	2243.09	4.0040	4.0040	-0.6459	6.03	0.04	-0.750			
0.0370	2368.06	4.0010	4.0011	-0.6594	6.03	0.04	-0.750			
0.0390	2497.79	3.9980	3.9980	-0.6702	6.04	0.05	-0.750			
0.0410	2627.15	3.9950	3.9949	-0.6764	6.04	0.05	-0.750			
0.0431	2757.81	3.9920	3.9921	-0.6846	6.05	0.06	-0.750			
0.0452	2891.12	3.9890	3.9890	-0.6863	6.06	0.07	-0.750			
0.0473	3024.98	3.9860	3.9860	-0.6917	6.06	0.07	-0.750			
0.0493	3157.22	3.9830	3.9829	-0.6956	6.07	0.08	-0.750			
0.0514	3290.49	3.9800	3.9800	-0.6952	6.08	0.09	-0.750			
0.0535	3424.70	3.9770	3.9768	-0.7009	6.08	0.09	-0.750			
0.0556	3558.20	3.9740	3.9742	-0.7032	6.09	0.10	-0.750			
0.0577	3694.39	3.9710	3.9709	-0.7059	6.10	0.11	-0.750			
0.0599	3831.08	3.9680	3.9680	-0.7112	6.10	0.11	-0.750			
0.0620	3966.69	3.9650	3.9650	-0.7130	6.11	0.12	-0.750			
0.0641	4103.60	3.9620	3.9621	-0.7167	6.12	0.13	-0.750			
0.0663	4243.04	3.9590	3.9590	-0.7233	6.12	0.13	-0.750			
0.0685	4381.27	3.9560	3.9561	-0.7274	6.13	0.14	-0.750			
0.0706	4521.20	3.9530	3.9530	-0.7351	6.14	0.15	-0.750			
0.0729	4663.92	3.9500	3.9498	-0.7407	6.15	0.16	-0.750			
0.0751	4808.70	3.9470	3.9470	-0.7387	6.16	0.17	-0.750			
0.0774	4950.98	3.9440	3.9441	-0.7366	6.17	0.18	-0.750			
0.0796	5092.00	3.9410	3.9410	-0.7415	6.18	0.19	-0.750			
0.0818	5234.54	3.9380	3.9379	-0.7372	6.19	0.20	-0.750			
0.0840	5373.10	3.9350	3.9350	-0.7364	6.20	0.21	-0.750			
0.0862	5514.53	3.9320	3.9320	-0.7395	6.21	0.22	-0.750			
0.0884	5657.85	3.9290	3.9292	-0.7464	6.21	0.22	-0.750			
0.0907	5803.12	3.9260	3.9259	-0.7530	6.22	0.23	-0.750			
0.0929	5946.71	3.9230	3.9231	-0.7533	6.23	0.24	-0.750			
0.0952	6090.93	3.9200	3.9199	-0.7569	6.24	0.25	-0.750			
0.0975	6237.88	3.9170	3.9170	-0.7661	6.25	0.26	-0.750			
0.0998	6384.31	3.9140	3.9140	-0.7653	6.26	0.27	-0.750			
0.1020	6531.08	3.9110	3.9111	-0.7688	6.28	0.29	-0.750			
0.1044	6681.72	3.9080	3.9079	-0.7670	6.29	0.30	-0.750			
0.1067	6828.87	3.9050	3.9050	-0.7651	6.30	0.31	-0.750			
0.1090	6973.32	3.9020	3.9021	-0.7693	6.31	0.32	-0.750			
0.1113	7121.47	3.8990	3.8990	-0.7693	6.32	0.33	-0.750			
0.1136	7270.16	3.8960	3.8959	-0.7679	6.32	0.33	-0.750			
0.1159	7419.09	3.8930	3.8930	-0.7666	6.33	0.34	-0.750			
0.1182	7566.43	3.8900	3.8901	-0.7639	6.34	0.35	-0.750			
0.1205	7712.96	3.8870	3.8869	-0.7655	6.35	0.36	-0.750			
0.1227	7855.44	3.8840	3.8840	-0.7655	6.36	0.37	-0.750			
0.1250	8002.58	3.8810	3.8809	-0.7648	6.37	0.38	-0.750			
0.1274	8150.81	3.8780	3.8780	-0.7716	6.38	0.39	-0.750			
0.1297	8301.80	3.8750	3.8750	-0.7769	6.39	0.40	-0.750			
0.1320	8450.89	3.8720	3.8721	-0.7797	6.40	0.41	-0.750			
0.1344	8600.15	3.8690	3.8689	-0.7875	6.41	0.42	-0.750			
0.1367	8751.76	3.8660	3.8659	-0.7874	6.42	0.43	-0.750			
0.1391	8901.53	3.8630	3.8630	-0.7902	6.43	0.44	-0.750			
0.1415	9057.36	3.8600	3.8601	-0.7920	6.44	0.45	-0.750			
0.1439	9211.11	3.8570	3.8571	-0.7902	6.45	0.46	-0.750			
0.1463	9362.74	3.8540	3.8541	-0.7839	6.46	0.47	-0.750			
0.1486	9510.90	3.8510	3.8510	-0.7811	6.47	0.48	-0.750			
0.1509	9659.69	3.8480	3.8480	-0.7791	6.49	0.50	-0.750			
0.1533	9808.45	3.8450	3.8450	-0.7857	6.50	0.51	-0.750			
0.1556	9957.60	3.8420	3.8420	-0.7920	6.51	0.52	-0.750			
0.1580	10113.57	3.8390	3.8389	-0.8002	6.52	0.53	-0.750			
0.1604	10266.97	3.8360	3.8360	-0.8029	6.53	0.54	-0.750			
0.1629	10424.66	3.8330	3.8330	-0.7971	6.54	0.55	-0.750			
0.1653	10576.79	3.8300	3.8301	-0.7923	6.55	0.56	-0.750			
0.1676	10729.24	3.8270	3.8270	-0.7904	6.57	0.58	-0.750			
0.1700	10878.36	3.8240	3.8239	-0.7886	6.57	0.58	-0.750			
0.1723	11025.03	3.8210	3.8210	-0.7991	6.58	0.59	-0.750			
0.1747	11181.86	3.8180	3.8180	-0.8061	6.59	0.60	-0.750			
0.1772	11339.30	3.8150	3.8149	-0.8119	6.60	0.61	-0.750			
0.1797	11498.78	3.8120	3.8120	-0.8147	6.61	0.62	-0.750			
0.1821	11656.30	3.8090	3.8091	-0.8122	6.62	0.63	-0.750			
0.1846	11811.60	3.8060	3.8059	-0.8121	6.63	0.64	-0.750			
0.1870	11966.50	3.8030	3.8030	-0.8000	6.64	0.65	-0.750			
0.1893	12116.98	3.8000	3.7999	-0.7982	6.65	0.66	-0.750			
0.1918	12272.12	3.7970	3.7970	-0.8022	6.66	0.67	-0.750			
0.1942	12426.72	3.7940	3.7940	-0.7996	6.67	0.68	-0.750			
0.1965	12578.68	3.7910	3.7911	-0.8020	6.68	0.69	-0.750			
0.1989	12732.61	3.7880	3.7880	-0.8156	6.69	0.70	-0.750			
0.2014	12891.37	3.7850	3.7848	-0.8170	6.70	0.71	-0.750			
0.2039	13051.09	3.7820	3.7819	-0.8224	6.71	0.72	-0.750			
0.2064	13207.89	3.7790	3.7794	-0.8203	6.72	0.73	-0.750			
0.2089	13368.04	3.7760	3.7759	-0.8224	6.73	0.74	-0.750			
0.2114	13526.56	3.7730	3.7729	-0.8187	6.74	0.75	-0.750			
0.2137	13678.81	3.7700	3.7700	-0.8147	6.75	0.76	-0.750			
0.2162	13836.67	3.7670	3.7670	-0.8250	6.76	0.77	-0.750			
0.2187	13995.47	3.7640	3.7641	-0.8292	6.77	0.78	-0.750			
0.2212	14154.83	3.7610	3.7609	-0.8307	6.78	0.79	-0.750			
0.2237	14314.82	3.7580	3.7580	-0.8367	6.79	0.80	-0.750			
0.2262	14477.94	3.7550	3.7551	-0.8360	6.80	0.81	-0.750			
0.2288	14640.66	3.7520	3.7519	-0.8389	6.81	0.82	-0.750			
0.2312	14799.68	3.7490	3.7492	-0.8287	6.82	0.83	-0.750			
0.2337	14956.01	3.7460	3.7460	-0.8281	6.83	0.84	-0.750			
0.2362	15113.92	3.7430	3.7430	-0.8397	6.84	0.85	-0.750			
0.2387	15274.99	3.7400	3.7399	-0.8458	6.85	0.86	-0.750			
0.2412	15439.56	3.7370	3.7369	-0.8578	6.86	0.87	-0.750			
0.2439	15607.42	3.7340	3.7342	-0.8567	6.87	0.88	-0.750			
0.2465	15773.42	3.7310	3.7309	-0.8634	6.88	0.89	-0.750			
0.2491	15939.92	3.7280	3.7281	-0.8652	6.89	0.90	-0.750			
0.2516	16102.79	3.7250	3.7250	-0.8576	6.90	0.91	-0.750			
0.2542	16268.36	3.7220	3.7219	-0.8650	6.91	0.92	-0.750			
0.2568	16435.18	3.7190	3.7191	-0.8631	6.92	0.93	-0.750			
0.2594	16599.47	3.7160	3.7159	-0.8722	6.93	0.94	-0.750			
0.2620	16767.57	3.7130	3.7130	-0.8845	6.94	0.95	-0.750			
0.2646	16936.47	3.7100	3.7099	-0.8835	6.95	0.96	-0.750			
0.2673	17109.21	3.7070	3.7069	-0.8888	6.97	0.98	-0.750			
0.2700	17281.74	3.7040	3.7041	-0.8972	6.97	0.98	-0.750			
0.2727	17453.85	3.7010	3.7010	-0.8995	6.98	0.99	-0.750			
0.2754	17627.70	3.6980	3.6980	-0.9024	6.99	1.00	-0.750			
0.2781	17797.22	3.6950	3.6950	-0.9017	7.00	1.01	-0.750			
0.2808	17970.98	3.6920	3.6919	-0.9125	7.01	1.02	-0.750			
0.2836	18147.91	3.6890	3.6891	-0.9232	7.02	1.03	-0.750			
0.2863	18326.36	3.6860	3.6859	-0.9231	7.03	1.04	-0.750			
0.2891	18503.91	3.6830	3.6831	-0.9291	7.04	1.05	-0.750			
0.2919	18684.31	3.6800	3.6799	-0.9319	7.04	1.05	-0.750			
0.2947	18863.20	3.6770	3.6769	-0.9361	7.05	1.06	-0.750			
0.2975	19042.96	3.6740	3.6740	-0.9433	7.06	1.07	-0.750			
0.3004	19224.72	3.6710	3.6709	-0.9433	7.07	1.08	-0.750			
0.3032	19407.01	3.6680	3.6679	-0.9443	7.08	1.09	-0.750			
0.3061	19588.65	3.6650	3.6653	-0.9555	7.09	1.10	-0.750			
0.3089	19769.08	3.6620	3.6621	-0.9618	7.10	1.11	-0.750			
0.3118	19955.18	3.6590	3.6589	-0.9752	7.11	1.12	-0.750			
0.3147	20140.79	3.6560	3.6559	-0.9869	7.12	1.13	-0.750			
0.3177	20334.43	3.6530	3.6531	-1.0072	7.13	1.14	-0.750			
0.3208	20531.43	3.6500	3.6500	-1.0154	7.14	1.15	-0.750			
0.3239	20731.09	3.6470	3.6470	-1.0220	7.14	1.15	-0.750			
0.3270	20925.46	3.6440	3.6440	-1.0217	7.15	1.16	-0.750			
0.3300	21120.62	3.6410	3.6409	-1.0190	7.16	1.17	-0.750			
0.3331	21315.58	3.6380	3.6380	-1.0239	7.16	1.17	-0.750			
0.3361	21510.90	3.6350	3.6350	-1.0278	7.17	1.18	-0.750			
0.3392	21709.62	3.6320	3.6321	-1.0386	7.18	1.19	-0.750			
0.3423	21909.73	3.6290	3.6290	-1.0492	7.19	1.20	-0.750			
0.3455	22113.13	3.6260	3.6259	-1.0638	7.20	1.21	-0.750			
0.3487	22318.58	3.6230	3.6230	-1.0709	7.21	1.22	-0.750			
0.3520	22528.03	3.6200	3.6199	-1.0716	7.22	1.23	-0.750			
0.3552	22732.06	3.6170	3.6171	-1.0736	7.23	1.24	-0.750			
0.3584	22937.95	3.6140	3.6140	-1.0897	7.24	1.25	-0.750			
0.3617	23148.26	3.6110	3.6108	-1.0966	7.24	1.25	-0.750			
0.3649	23355.20	3.6080	3.6079	-1.1132	7.25	1.26	-0.750			
0.3683	23569.71	3.6050	3.6053	-1.1377	7.26	1.27	-0.750			
0.3718	23797.92	3.6020	3.6019	-1.1528	7.27	1.28	-0.750			
0.3754	24022.93	3.5990	3.5988	-1.1617	7.27	1.28	-0.750			
0.3788	24245.58	3.5960	3.5958	-1.1559	7.28	1.29	-0.750			
0.3823	24467.76	3.5930	3.5931	-1.1696	7.28	1.29	-0.750			
0.3858	24691.84	3.5900	3.5899	-1.1706	7.29	1.30	-0.750	0.422	0.861	
0.3893	24912.36	3.5870	3.5869	-1.1641	7.30	1.31	-0.750			
0.3927	25135.68	3.5840	3.5841	-1.1622	7.31	1.32	-0.750			
0.3964	25367.05	3.5810	3.5810	-1.1868	7.32	1.33	-0.750			
0.3999	25595.31	3.5780	3.5780	-1.1963	7.33	1.34	-0.750			
0.4035	25822.36	3.5750	3.5749	-1.2152	7.33	1.34	-0.750			
0.4071	26054.16	3.5720	3.5721	-1.2248	7.34	1.35	-0.750			
0.4108	26294.35	3.5690	3.5689	-1.2452	7.35	1.36	-0.750			
0.4146	26537.50	3.5660	3.5660	-1.2568	7.36	1.37	-0.750			
0.4185	26783.24	3.5630	3.5631	-1.2589	7.37	1.38	-0.750			
0.4223	27028.13	3.5600	3.5601	-1.2593	7.38	1.39	-0.750			
0.4261	27267.69	3.5570	3.5569	-1.2563	7.38	1.39	-0.750			
0.4298	27504.22	3.5540	3.5539	-1.2588	7.39	1.40	-0.750			
0.4335	27747.09	3.5510	3.5510	-1.2619	7.40	1.41	-0.750			
0.4373	27987.43	3.5480	3.5480	-1.2719	7.41	1.42	-0.750			
0.4412	28233.83	3.5450	3.5450	-1.2944	7.41	1.42	-0.750			
0.4451	28484.49	3.5420	3.5421	-1.3097	7.42	1.43	-0.750			
0.4490	28738.10	3.5390	3.5388	-1.3285	7.43	1.44	-0.750			
0.4530	28993.56	3.5360	3.5360	-1.3436	7.44	1.45	-0.750			
0.4571	29254.93	3.5330	3.5330	-1.3542	7.45	1.46	-0.750			
0.4613	29522.86	3.5300	3.5299	-1.3503	7.46	1.47	-0.750			
0.4654	29783.99	3.5270	3.5270	-1.3421	7.47	1.48	-0.750			
0.4694	30039.86	3.5240	3.5241	-1.3393	7.48	1.49	-0.750			
0.4734	30294.95	3.5210	3.5210	-1.3347	7.49	1.50	-0.750			
0.4773	30546.78	3.5180	3.5179	-1.3346	7.50	1.51	-0.750			
0.4812	30798.70	3.5150	3.5152	-1.3394	7.51	1.52	-0.750			
0.4854	31063.75	3.5120	3.5119	-1.3612	7.52	1.53	-0.750			
0.4895	31326.07	3.5090	3.5089	-1.3620	7.53	1.54	-0.750			
0.4936	31588.73	3.5060	3.5063	-1.3677	7.54	1.55	-0.750			
0.4978	31856.86	3.5030	3.5029	-1.3656	7.55	1.56	-0.750			
0.5018	32117.85	3.5000	3.4999	-1.3548	7.56	1.57	-0.750			
0.5058	32373.40	3.4970	3.4973	-1.3500	7.57	1.58	-0.750			
0.5099	32634.70	3.4940	3.4940	-1.3539	7.58	1.59	-0.750			
0.5140	32893.11	3.4910	3.4908	-1.3427	7.60	1.61	-0.750			
0.5180	33151.10	3.4880	3.4882	-1.3366	7.61	1.62	-0.750			
0.5220	33408.88	3.4850	3.4850	-1.3395	7.62	1.63	-0.750			
0.5260	33666.26	3.4820	3.4820	-1.3319	7.63	1.64	-0.750			
0.5299	33916.28	3.4790	3.4791	-1.3302	7.65	1.66	-0.750			
0.5339	34172.32	3.4760	3.4759	-1.3247	7.66	1.67	-0.750			
0.5380	34429.76	3.4730	3.4730	-1.3203	7.67	1.68	-0.750			
0.5419	34683.67	3.4700	3.4700	-1.3127	7.68	1.69	-0.750			
0.5459	34936.29	3.4670	3.4672	-1.2967	7.69	1.70	-0.750			
0.5498	35185.51	3.4640	3.4639	-1.2827	7.70	1.71	-0.750			
0.5535	35426.10	3.4610	3.4611	-1.2817	7.71	1.72	-0.750			
0.5573	35666.14	3.4580	3.4581	-1.2711	7.73	1.74	-0.750			
0.5612	35915.98	3.4550	3.4549	-1.2760	7.74	1.75	-0.750			
0.5650	36161.87	3.4520	3.4519	-1.2654	7.76	1.77	-0.750			
0.5689	36406.64	3.4490	3.4492	-1.2534	7.77	1.78	-0.750			
0.5726	36647.53	3.4460	3.4459	-1.2353	7.78	1.79	-0.750			
0.5763	36880.89	3.4430	3.4431	-1.2166	7.79	1.80	-0.750			
0.5798	37110.31	3.4400	3.4398	-1.1950	7.81	1.82	-0.750			
0.5834	37337.74	3.4370	3.4369	-1.1900	7.82	1.83	-0.750			
0.5870	37566.73	3.4340	3.4340	-1.1770	7.83	1.84	-0.750			
0.5905	37791.51	3.4310	3.4309	-1.1679	7.85	1.86	-0.750			
0.5939	38012.18	3.4280	3.4283	-1.1602	7.86	1.87	-0.750			
0.5975	38237.01	3.4250	3.4249	-1.1567	7.88	1.89	-0.750			
0.6009	38459.11	3.4220	3.4219	-1.1407	7.89	1.90	-0.750			
0.6044	38678.43	3.4190	3.4190	-1.1239	7.90	1.91	-0.750			
0.6078	38898.22	3.4160	3.4160	-1.1085	7.92	1.93	-0.750			
0.6111	39108.77	3.4130	3.4130	-1.0795	7.93	1.94	-0.750			
0.6142	39310.91	3.4100	3.4100	-1.0512	7.95	1.96	-0.750			
0.6173	39507.48	3.4070	3.4071	-1.0279	7.96	1.97	-0.750			
0.6203	39701.95	3.4040	3.4037	-1.0150	7.98	1.99	-0.750			
0.6234	39897.25	3.4010	3.4010	-1.0047	7.99	2.00	-0.750			
0.6264	40088.14	3.3980	3.3979	-0.9877	8.01	2.02	-0.750			
0.6294	40278.83	3.3950	3.3950	-0.9744	8.02	2.03	-0.750			
0.6323	40467.23	3.3920	3.3921	-0.9587	8.04	2.05	-0.750			
0.6351	40647.83	3.3890	3.3889	-0.9354	8.05	2.06	-0.750			
0.6379	40826.22	3.3860	3.3860	-0.9112	8.06	2.07	-0.750			
0.6406	40996.20	3.3830	3.3830	-0.8842	8.08	2.09	-0.750			
0.6432	41165.75	3.3800	3.3802	-0.8688	8.09	2.10	-0.750			
0.6458	41331.23	3.3770	3.3769	-0.8429	8.10	2.11	-0.750			
0.6483	41488.84	3.3740	3.3739	-0.8237	8.12	2.13	-0.750			
0.6507	41643.89	3.3710	3.3711	-0.8042	8.13	2.14	-0.750			
0.6531	41796.31	3.3680	3.3680	-0.7900	8.14	2.15	-0.750			
0.6554	41948.71	3.3650	3.3649	-0.7765	8.16	2.17	-0.750			
0.6577	42095.85	3.3620	3.3621	-0.7577	8.17	2.18	-0.750			
0.6600	42239.54	3.3590	3.3591	-0.7403	8.19	2.20	-0.750			
0.6622	42381.27	3.3560	3.3560	-0.7240	8.20	2.21	-0.750			
0.6643	42517.57	3.3530	3.3528	-0.7037	8.22	2.23	-0.750			
0.6664	42650.48	3.3500	3.3501	-0.6866	8.23	2.24	-0.750			
0.6684	42780.25	3.3470	3.3471	-0.6695	8.25	2.26	-0.750			
0.6704	42908.80	3.3440	3.3440	-0.6544	8.26	2.27	-0.750			
0.6724	43032.92	3.3410	3.3410	-0.6362	8.27	2.28	-0.750			
0.6742	43150.72	3.3380	3.3381	-0.6242	8.29	2.30	-0.750			
0.6761	43270.05	3.3350	3.3350	-0.6102	8.30	2.31	-0.750			
0.6779	43386.36	3.3320	3.3319	-0.5959	8.31	2.32	-0.750			
0.6797	43499.53	3.3290	3.3290	-0.5827	8.32	2.33	-0.750			
0.6814	43610.54	3.3260	3.3263	-0.5699	8.33	2.34	-0.750			
0.6831	43718.25	3.3230	3.3229	-0.5590	8.35	2.36	-0.750			
0.6848	43824.21	3.3200	3.3199	-0.5442	8.36	2.37	-0.750			
0.6863	43925.99	3.3170	3.3170	-0.5339	8.37	2.38	-0.750			
0.6879	44027.25	3.3140	3.3140	-0.5280	8.38	2.39	-0.750			
0.6895	44129.27	3.3110	3.3110	-0.5195	8.39	2.40	-0.750			
0.6911	44228.45	3.3080	3.3079	-0.5078	8.40	2.41	-0.750			
0.6926	44325.36	3.3050	3.3050	-0.4971	8.41	2.42	-0.750			
0.6941	44419.44	3.3020	3.3021	-0.4843	8.42	2.43	-0.750			
0.6955	44511.14	3.2990	3.2989	-0.4760	8.44	2.45	-0.750			
0.6969	44600.55	3.2960	3.2960	-0.4632	8.45	2.46	-0.750			
0.6983	44688.03	3.2930	3.2930	-0.4536	8.46	2.47	-0.750			
0.6996	44774.84	3.2900	3.2901	-0.4470	8.47	2.48	-0.750			
0.7009	44859.62	3.2870	3.2870	-0.4422	8.49	2.50	-0.750			
0.7022	44943.44	3.2840	3.2840	-0.4363	8.50	2.51	-0.750			
0.7035	45027.19	3.2810	3.2809	-0.4276	8.51	2.52	-0.750			
0.7048	45108.79	3.2780	3.2779	-0.4180	8.52	2.53	-0.750			
0.7061	45189.10	3.2750	3.2753	-0.4124	8.53	2.54	-0.750			
0.7073	45267.39	3.2720	3.2720	-0.4022	8.54	2.55	-0.750			
0.7085	45343.37	3.2690	3.2689	-0.3943	8.55	2.56	-0.750			
0.7096	45417.58	3.2660	3.2659	-0.3857	8.56	2.57	-0.750			
0.7108	45490.32	3.2630	3.2631	-0.3788	8.58	2.59	-0.750			
0.7119	45562.95	3.2600	3.2600	-0.3746	8.59	2.60	-0.750			
0.7130	45634.38	3.2570	3.2570	-0.3696	8.60	2.61	-0.750			
0.7141	45704.21	3.2540	3.2540	-0.3636	8.61	2.62	-0.750			
0.7152	45773.56	3.2510	3.2510	-0.3588	8.62	2.63	-0.750			
0.7163	45841.90	3.2480	3.2480	-0.3519	8.63	2.64	-0.750			
0.7173	45909.52	3.2450	3.2450	-0.3462	8.64	2.65	-0.750			
0.7184	45975.55	3.2420	3.2421	-0.3392	8.64	2.65	-0.750			
0.7194	46039.50	3.2390	3.2390	-0.3331	8.65	2.66	-0.750			
0.7204	46102.89	3.2360	3.2359	-0.3268	8.66	2.67	-0.750			
0.7213	46164.34	3.2330	3.2330	-0.3233	8.67	2.68	-0.750			
0.7223	46225.84	3.2300	3.2300	-0.3193	8.68	2.69	-0.750			
0.7232	46287.06	3.2270	3.2270	-0.3164	8.69	2.70	-0.750			
0.7242	46347.39	3.2240	3.2241	-0.3128	8.71	2.72	-0.750			
0.7251	46407.18	3.2210	3.2211	-0.3103	8.72	2.73	-0.750			
0.7260	46466.36	3.2180	3.2178	-0.3069	8.73	2.74	-0.750			
0.7270	46525.21	3.2150	3.2151	-0.3033	8.74	2.75	-0.750			
0.7279	46582.64	3.2120	3.2121	-0.2994	8.75	2.76	-0.750			
0.7288	46640.51	3.2090	3.2090	-0.2968	8.76	2.77	-0.750			
0.7296	46697.13	3.2060	3.2059	-0.2924	8.77	2.78	-0.750			
0.7305	46752.07	3.2030	3.2030	-0.2884	8.77	2.78	-0.750			
0.7314	46807.04	3.2000	3.2001	-0.2845	8.78	2.79	-0.750			
0.7322	46861.99	3.1970	3.1970	-0.2806	8.79	2.80	-0.750			
0.7331	46915.57	3.1940	3.1940	-0.2766	8.81	2.82	-0.750			
0.7339	46967.81	3.1910	3.1911	-0.2727	8.82	2.83	-0.750			
0.7347	47019.92	3.1880	3.1880	-0.2695	8.83	2.84	-0.750			
0.7355	47070.99	3.1850	3.1849	-0.2665	8.83	2.84	-0.750			
0.7363	47121.92	3.1820	3.1821	-0.2627	8.84	2.85	-0.750			
0.7371	47172.07	3.1790	3.1790	-0.2609	8.85	2.86	-0.750			
0.7378	47222.01	3.1760	3.1761	-0.2581	8.86	2.87	-0.750			
0.7386	47271.29	3.1730	3.1730	-0.2549	8.87	2.88	-0.750			
0.7394	47319.85	3.1700	3.1699	-0.2518	8.88	2.89	-0.750			
0.7401	47368.05	3.1670	3.1671	-0.2491	8.89	2.90	-0.750			
0.7409	47415.30	3.1640	3.1641	-0.2465	8.90	2.91	-0.750			
0.7416	47462.85	3.1610	3.1609	-0.2431	8.91	2.92	-0.750			
0.7423	47509.26	3.1580	3.1580	-0.2412	8.92	2.93	-0.750			
0.7430	47554.92	3.1550	3.1550	-0.2378	8.92	2.93	-0.750			
0.7438	47600.38	3.1520	3.1521	-0.2358	8.93	2.94	-0.750			
0.7445	47645.40	3.1490	3.1488	-0.2338	8.94	2.95	-0.750			
0.7452	47689.95	3.1460	3.1460	-0.2316	8.95	2.96	-0.750			
0.7458	47734.11	3.1430	3.1431	-0.2297	8.96	2.97	-0.750			
0.7465	47778.00	3.1400	3.1400	-0.2276	8.97	2.98	-0.750			
0.7472	47822.07	3.1370	3.1370	-0.2267	8.98	2.99	-0.750			
0.7479	47865.28	3.1340	3.1340	-0.2231	8.99	3.00	-0.750			
0.7486	47907.88	3.1310	3.1309	-0.2206	9.00	3.01	-0.750			
0.7492	47950.08	3.1280	3.1280	-0.2188	9.01	3.02	-0.750			
0.7499	47991.72	3.1250	3.1251	-0.2168	9.02	3.03	-0.750			
0.7505	48032.89	3.1220	3.1219	-0.2152	9.02	3.03	-0.750			
0.7512	48074.18	3.1190	3.1190	-0.2137	9.03	3.04	-0.750			
0.7518	48114.97	3.1160	3.1161	-0.2122	9.04	3.05	-0.750			
0.7524	48155.69	3.1130	3.1129	-0.2102	9.05	3.06	-0.750			
0.7531	48196.33	3.1100	3.1100	-0.2090	9.06	3.07	-0.750			
0.7537	48236.15	3.1070	3.1070	-0.2064	9.07	3.08	-0.750			
0.7543	48275.14	3.1040	3.1040	-0.2045	9.08	3.09	-0.750			
0.7549	48314.13	3.1010	3.1010	-0.2027	9.08	3.09	-0.750			
0.7555	48352.49	3.0980	3.0980	-0.2017	9.09	3.10	-0.750			
0.7561	48391.16	3.0950	3.0949	-0.2008	9.10	3.11	-0.750			
0.7567	48429.71	3.0920	3.0921	-0.2002	9.11	3.12	-0.750			
0.7573	48468.14	3.0890	3.0889	-0.1997	9.12	3.13	-0.750			
0.7579	48506.74	3.0860	3.0860	-0.1983	9.13	3.14	-0.750			
0.7585	48544.87	3.0830	3.0830	-0.1971	9.14	3.15	-0.750			
0.7591	48582.32	3.0800	3.0800	-0.1952	9.15	3.16	-0.750			
0.7597	48619.65	3.0770	3.0771	-0.1936	9.16	3.17	-0.750			
0.7603	48656.64	3.0740	3.0739	-0.1919	9.17	3.18	-0.750			
0.7608	48693.37	3.0710	3.0710	-0.1903	9.18	3.19	-0.750			
0.7614	48729.52	3.0680	3.0681	-0.1887	9.19	3.20	-0.750			
0.7620	48765.66	3.0650	3.0650	-0.1877	9.20	3.21	-0.750			
0.7625	48801.65	3.0620	3.0620	-0.1869	9.21	3.22	-0.750			
0.7631	48837.27	3.0590	3.0591	-0.1857	9.22	3.23	-0.750			
0.7636	48872.96	3.0560	3.0560	-0.1843	9.23	3.24	-0.750			
0.7642	48908.25	3.0530	3.0530	-0.1832	9.24	3.25	-0.750			
0.7647	48943.65	3.0500	3.0500	-0.1817	9.25	3.26	-0.750			
0.7653	48978.31	3.0470	3.0470	-0.1806	9.25	3.26	-0.750			
0.7658	49012.69	3.0440	3.0441	-0.1787	9.26	3.27	-0.750			
0.7664	49046.76	3.0410	3.0409	-0.1780	9.27	3.28	-0.750			
0.7669	49080.77	3.0380	3.0379	-0.1766	9.28	3.29	-0.750			
0.7674	49114.43	3.0350	3.0350	-0.1757	9.29	3.30	-0.750			
0.7679	49148.24	3.0320	3.0321	-0.1754	9.30	3.31	-0.750			
0.7685	49181.87	3.0290	3.0289	-0.1745	9.31	3.32	-0.750			
0.7690	49215.57	3.0260	3.0259	-0.1732	9.32	3.33	-0.750			
0.7695	49248.57	3.0230	3.0229	-0.1716	9.33	3.34	-0.750			
0.7700	49281.39	3.0200	3.0201	-0.1702	9.34	3.35	-0.750			
0.7705	49313.74	3.0170	3.0170	-0.1702	9.34	3.35	-0.750			
0.7710	49346.67	3.0140	3.0139	-0.1686	9.35	3.36	-0.750			
0.7715	49378.74	3.0110	3.0110	-0.1670	9.36	3.37	-0.750			
0.7720	49410.70	3.0080	3.0080	-0.1660	9.37	3.38	-0.750			
0.7725	49442.53	3.0050	3.0052	-0.1644	9.38	3.39	-0.750			
0.7730	49473.68	3.0020	3.0020	-0.1567	9.39	3.40	-0.750			
