Ah_balance (normalized)	Ah_balance (mAh)	Voltage - fit (V)	Voltage -  interpolate (V)	dQ/dV (1/V)	Temperature (°C)	Temperature - diff (°C)	Current (C)	R_DC 0ms (mOhm)	R_DC 50ms (mOhm)	R_DC 50 ms PEC (mOhm)
0.0375	2397.60	4.1970	4.1970	0.7615	26.24	0.85	0.750			
0.0398	2547.18	4.1940	4.1940	0.7788	26.24	0.85	0.750			
0.0421	2697.45	4.1910	4.1910	0.7815	26.23	0.84	0.750			
0.0445	2847.53	4.1880	4.1880	0.7825	26.23	0.84	0.750			
0.0468	2997.96	4.1850	4.1851	0.7894	26.23	0.84	0.750			
0.0492	3149.15	4.1820	4.1820	0.7911	26.22	0.83	0.750			
0.0516	3301.04	4.1790	4.1789	0.7926	26.22	0.83	0.750			
0.0540	3454.05	4.1760	4.1760	0.7938	26.22	0.83	0.750			
0.0564	3608.65	4.1730	4.1730	0.7945	26.21	0.82	0.750			
0.0588	3760.38	4.1700	4.1700	0.7885	26.21	0.82	0.750			
0.0611	3911.93	4.1670	4.1670	0.7845	26.20	0.81	0.750			
0.0635	4061.22	4.1640	4.1639	0.7785	26.20	0.81	0.750			
0.0658	4209.40	4.1610	4.1610	0.7771	26.20	0.81	0.750			
0.0681	4359.12	4.1580	4.1580	0.7727	26.19	0.80	0.750			
0.0704	4505.87	4.1550	4.1550	0.7791	26.19	0.80	0.750			
0.0727	4655.75	4.1520	4.1520	0.7824	26.19	0.80	0.750			
0.0751	4804.47	4.1490	4.1490	0.7934	26.18	0.79	0.750			
0.0775	4958.58	4.1460	4.1461	0.8001	26.18	0.79	0.750			
0.0799	5114.51	4.1430	4.1430	0.8039	26.17	0.78	0.750			
0.0823	5269.96	4.1400	4.1401	0.8066	26.17	0.78	0.750			
0.0848	5426.85	4.1370	4.1370	0.8105	26.17	0.78	0.750			
0.0872	5580.66	4.1340	4.1340	0.8049	26.16	0.77	0.750			
0.0896	5735.57	4.1310	4.1310	0.8052	26.16	0.77	0.750			
0.0920	5889.45	4.1280	4.1280	0.7993	26.15	0.76	0.750			
0.0944	6042.88	4.1250	4.1250	0.8068	26.15	0.76	0.750			
0.0968	6196.77	4.1220	4.1220	0.8093	26.15	0.76	0.750			
0.0992	6350.75	4.1190	4.1190	0.8145	26.14	0.75	0.750			
0.1017	6506.80	4.1160	4.1159	0.8237	26.14	0.75	0.750			
0.1042	6669.87	4.1130	4.1130	0.8239	26.13	0.74	0.750			
0.1067	6829.74	4.1100	4.1100	0.8292	26.13	0.74	0.750			
0.1092	6989.46	4.1070	4.1071	0.8290	26.12	0.73	0.750			
0.1117	7146.47	4.1040	4.1042	0.8256	26.12	0.73	0.750			
0.1141	7304.31	4.1010	4.1008	0.8246	26.11	0.72	0.750			
0.1166	7462.52	4.0980	4.0981	0.8268	26.11	0.72	0.750			
0.1191	7619.54	4.0950	4.0950	0.8329	26.10	0.71	0.750			
0.1216	7783.28	4.0920	4.0921	0.8420	26.10	0.71	0.750			
0.1242	7946.17	4.0890	4.0890	0.8414	26.09	0.70	0.750			
0.1267	8108.41	4.0860	4.0859	0.8437	26.09	0.70	0.750			
0.1292	8271.49	4.0830	4.0831	0.8439	26.09	0.70	0.750			
0.1318	8432.27	4.0800	4.0800	0.8449	26.08	0.69	0.750			
0.1343	8592.39	4.0770	4.0770	0.8497	26.08	0.69	0.750			
0.1368	8756.27	4.0740	4.0741	0.8492	26.07	0.68	0.750			
0.1394	8921.04	4.0710	4.0709	0.8546	26.07	0.68	0.750			
0.1420	9085.50	4.0680	4.0681	0.8546	26.06	0.67	0.750			
0.1445	9249.89	4.0650	4.0650	0.8579	26.06	0.67	0.750			
0.1471	9414.67	4.0620	4.0620	0.8603	26.06	0.67	0.750			
0.1497	9579.77	4.0590	4.0590	0.8618	26.05	0.66	0.750			
0.1523	9744.13	4.0560	4.0561	0.8632	26.05	0.66	0.750			
0.1549	9911.90	4.0530	4.0530	0.8694	26.04	0.65	0.750			
0.1575	10079.36	4.0500	4.0500	0.8716	26.04	0.65	0.750			
0.1601	10244.65	4.0470	4.0470	0.8852	26.03	0.64	0.750			
0.1628	10416.01	4.0440	4.0439	0.8858	26.02	0.63	0.750			
0.1654	10586.65	4.0410	4.0409	0.8960	26.02	0.63	0.750			
0.1681	10761.38	4.0380	4.0380	0.8959	26.01	0.62	0.750			
0.1709	10934.43	4.0350	4.0351	0.8970	26.01	0.62	0.750			
0.1736	11107.77	4.0320	4.0319	0.8945	26.00	0.61	0.750			
0.1762	11278.27	4.0290	4.0288	0.8911	26.00	0.61	0.750			
0.1788	11446.10	4.0260	4.0260	0.8773	26.00	0.61	0.750			
0.1815	11616.15	4.0230	4.0229	0.8842	26.00	0.61	0.750			
0.1841	11783.42	4.0200	4.0201	0.8886	25.99	0.60	0.750			
0.1868	11955.31	4.0170	4.0170	0.9022	25.99	0.60	0.750			
0.1895	12128.57	4.0140	4.0139	0.9082	25.99	0.60	0.750			
0.1923	12306.45	4.0110	4.0111	0.9094	25.98	0.59	0.750			
0.1950	12480.58	4.0080	4.0081	0.9185	25.98	0.59	0.750			
0.1978	12659.38	4.0050	4.0050	0.9243	25.97	0.58	0.750			
0.2006	12836.03	4.0020	4.0019	0.9218	25.96	0.57	0.750			
0.2033	13012.21	3.9990	3.9991	0.9287	25.96	0.57	0.750			
0.2061	13190.33	3.9960	3.9961	0.9268	25.95	0.56	0.750			
0.2089	13369.16	3.9930	3.9930	0.9341	25.94	0.55	0.750			
0.2117	13547.66	3.9900	3.9901	0.9376	25.94	0.55	0.750			
0.2145	13727.34	3.9870	3.9870	0.9513	25.93	0.54	0.750			
0.2174	13912.78	3.9840	3.9840	0.9561	25.92	0.53	0.750			
0.2203	14101.30	3.9810	3.9810	0.9460	25.92	0.53	0.750			
0.2232	14282.08	3.9780	3.9781	0.9390	25.92	0.53	0.750			
0.2260	14461.16	3.9750	3.9751	0.9329	25.91	0.52	0.750			
0.2287	14638.19	3.9720	3.9719	0.9245	25.90	0.51	0.750			
0.2314	14812.21	3.9690	3.9689	0.9286	25.90	0.51	0.750			
0.2342	14986.86	3.9660	3.9661	0.9351	25.89	0.50	0.750			
0.2370	15170.83	3.9630	3.9630	0.9526	25.88	0.49	0.750			
0.2399	15355.89	3.9600	3.9600	0.9640	25.88	0.49	0.750			
0.2429	15542.87	3.9570	3.9570	0.9591	25.87	0.48	0.750			
0.2458	15728.69	3.9540	3.9541	0.9593	25.86	0.47	0.750			
0.2486	15910.63	3.9510	3.9511	0.9665	25.86	0.47	0.750			
0.2515	16094.91	3.9480	3.9477	0.9692	25.85	0.46	0.750			
0.2544	16280.75	3.9450	3.9450	0.9680	25.84	0.45	0.750			
0.2573	16468.14	3.9420	3.9421	0.9822	25.83	0.44	0.750			
0.2603	16659.27	3.9390	3.9390	0.9906	25.82	0.43	0.750			
0.2633	16852.69	3.9360	3.9358	0.9923	25.81	0.42	0.750			
0.2663	17045.36	3.9330	3.9331	0.9805	25.80	0.41	0.750			
0.2692	17230.07	3.9300	3.9300	0.9782	25.80	0.41	0.750			
0.2722	17417.68	3.9270	3.9271	0.9798	25.79	0.40	0.750			
0.2750	17603.14	3.9240	3.9239	0.9738	25.78	0.39	0.750			
0.2780	17791.16	3.9210	3.9212	0.9843	25.78	0.39	0.750			
0.2809	17979.46	3.9180	3.9181	0.9838	25.77	0.38	0.750			
0.2839	18168.60	3.9150	3.9150	0.9951	25.77	0.38	0.750			
0.2869	18360.48	3.9120	3.9121	0.9925	25.76	0.37	0.750			
0.2899	18552.43	3.9090	3.9091	1.0082	25.76	0.37	0.750			
0.2929	18748.47	3.9060	3.9061	1.0105	25.74	0.35	0.750			
0.2960	18942.55	3.9030	3.9030	1.0188	25.73	0.34	0.750			
0.2991	19139.88	3.9000	3.9001	1.0164	25.72	0.33	0.750			
0.3021	19334.73	3.8970	3.8971	1.0195	25.71	0.32	0.750			
0.3052	19531.79	3.8940	3.8941	1.0261	25.70	0.31	0.750			
0.3083	19728.71	3.8910	3.8910	1.0290	25.69	0.30	0.750			
0.3114	19926.86	3.8880	3.8880	1.0404	25.69	0.30	0.750			
0.3145	20126.65	3.8850	3.8849	1.0438	25.68	0.29	0.750			
0.3176	20327.63	3.8820	3.8820	1.0480	25.67	0.28	0.750			
0.3208	20529.70	3.8790	3.8791	1.0565	25.66	0.27	0.750			
0.3240	20734.28	3.8760	3.8760	1.0600	25.65	0.26	0.750			
0.3271	20935.84	3.8730	3.8730	1.0614	25.64	0.25	0.750			
0.3303	21138.91	3.8700	3.8701	1.0606	25.63	0.24	0.750			
0.3335	21344.51	3.8670	3.8670	1.0684	25.62	0.23	0.750			
0.3367	21549.68	3.8640	3.8641	1.0773	25.62	0.23	0.750			
0.3400	21757.40	3.8610	3.8610	1.0792	25.60	0.21	0.750			
0.3432	21965.37	3.8580	3.8580	1.0945	25.59	0.20	0.750			
0.3465	22178.54	3.8550	3.8550	1.0998	25.57	0.18	0.750			
0.3499	22391.54	3.8520	3.8520	1.1047	25.56	0.17	0.750			
0.3532	22602.45	3.8490	3.8491	1.1013	25.54	0.15	0.750			
0.3564	22812.64	3.8460	3.8460	1.1047	25.53	0.14	0.750			
0.3598	23024.20	3.8430	3.8431	1.1061	25.52	0.13	0.750			
0.3631	23236.77	3.8400	3.8400	1.1021	25.51	0.12	0.750			
0.3664	23451.26	3.8370	3.8370	1.1025	25.50	0.11	0.750			
0.3697	23663.79	3.8340	3.8340	1.0926	25.49	0.10	0.750			
0.3730	23873.75	3.8310	3.8310	1.0798	25.47	0.08	0.750			
0.3763	24080.61	3.8280	3.8280	1.0618	25.46	0.07	0.750			
0.3794	24282.70	3.8250	3.8250	1.0369	25.45	0.06	0.750			
0.3825	24481.29	3.8220	3.8220	1.0102	25.45	0.06	0.750			
0.3856	24675.80	3.8190	3.8190	0.9654	25.44	0.05	0.750			
0.3884	24860.51	3.8160	3.8159	0.9165	25.43	0.04	0.750			
0.3912	25035.41	3.8130	3.8131	0.8525	25.42	0.03	0.750			
0.3936	25192.66	3.8100	3.8100	0.7816	25.41	0.02	0.750			
0.3959	25335.32	3.8070	3.8070	0.7096	25.41	0.02	0.750			
0.3979	25463.31	3.8040	3.8038	0.6394	25.40	0.01	0.750			
0.3996	25575.52	3.8010	3.8010	0.5770	25.40	0.01	0.750			
0.4013	25680.11	3.7980	3.7978	0.5233	25.39	0.00	0.750			
0.4027	25773.73	3.7950	3.7950	0.4750	25.39	-0.00	0.750			
0.4041	25860.44	3.7920	3.7920	0.4323	25.38	-0.01	0.750			
0.4053	25936.96	3.7890	3.7890	0.3944	25.38	-0.01	0.750			
0.4064	26009.09	3.7860	3.7860	0.3636	25.37	-0.02	0.750			
0.4074	26074.13	3.7830	3.7829	0.3336	25.37	-0.02	0.750			
0.4084	26134.82	3.7800	3.7801	0.3091	25.37	-0.02	0.750			
0.4092	26191.68	3.7770	3.7769	0.2859	25.36	-0.03	0.750			
0.4101	26244.33	3.7740	3.7740	0.2633	25.36	-0.03	0.750			
0.4108	26293.04	3.7710	3.7709	0.2412	25.36	-0.03	0.750			
0.4115	26337.19	3.7680	3.7680	0.2161	25.36	-0.03	0.750			
0.4121	26376.97	3.7650	3.7650	0.1922	25.36	-0.03	0.750			
0.4127	26412.16	3.7620	3.7621	0.1673	25.35	-0.04	0.750			
0.4132	26441.71	3.7590	3.7591	0.1406	25.35	-0.04	0.750			
0.4135	26466.13	3.7560	3.7561	0.1136	25.35	-0.04	0.750			
