Ah_balance (normalized)	Ah_balance (mAh)	Voltage - fit (V)	Voltage -  interpolate (V)	dQ/dV (1/V)	Temperature (°C)	Temperature - diff (°C)	Current (C)	R_DC 0ms (mOhm)	R_DC 50ms (mOhm)	R_DC 50 ms PEC (mOhm)
0.0000	0.00	4.0970	4.1289	0.0000	6.00	0.00	-0.751			
0.0001	5.70	4.0940	4.0965	-0.0201	6.00	0.00	-0.750			
0.0002	12.27	4.0910	4.0912	-0.0484	6.00	0.00	-0.750			
0.0004	25.02	4.0880	4.0877	-0.0757	6.00	0.00	-0.750			
0.0007	42.70	4.0850	4.0848	-0.1016	6.00	0.00	-0.750			
0.0010	65.37	4.0820	4.0820	-0.1259	6.00	0.00	-0.750			
0.0014	91.98	4.0790	4.0790	-0.1513	6.00	0.00	-0.750			
0.0019	123.35	4.0760	4.0761	-0.1742	6.00	0.00	-0.750			
0.0025	160.34	4.0730	4.0733	-0.2002	6.00	-0.00	-0.750			
0.0031	200.68	4.0700	4.0701	-0.2232	6.00	-0.00	-0.750			
0.0039	246.49	4.0670	4.0668	-0.2447	6.00	-0.00	-0.750			
0.0046	296.04	4.0640	4.0640	-0.2654	6.00	-0.00	-0.750			
0.0055	349.05	4.0610	4.0610	-0.2857	6.00	-0.00	-0.750			
0.0063	405.87	4.0580	4.0581	-0.3070	6.00	-0.00	-0.750			
0.0073	465.99	4.0550	4.0550	-0.3293	6.00	-0.00	-0.750			
0.0083	530.75	4.0520	4.0518	-0.3509	6.00	-0.00	-0.750			
0.0094	600.14	4.0490	4.0491	-0.3746	5.99	-0.01	-0.750			
0.0106	675.23	4.0460	4.0461	-0.3994	5.99	-0.01	-0.750			
0.0118	755.38	4.0430	4.0430	-0.4238	5.99	-0.01	-0.750			
0.0131	839.54	4.0400	4.0399	-0.4425	5.99	-0.01	-0.750			
0.0145	926.24	4.0370	4.0370	-0.4590	5.99	-0.01	-0.750			
0.0159	1015.29	4.0340	4.0340	-0.4791	5.99	-0.01	-0.750			
0.0173	1109.21	4.0310	4.0310	-0.4973	6.00	-0.00	-0.750			
0.0188	1205.87	4.0280	4.0279	-0.5160	6.00	-0.00	-0.750			
0.0204	1306.33	4.0250	4.0251	-0.5360	6.00	0.00	-0.750			
0.0221	1412.45	4.0220	4.0220	-0.5587	6.01	0.01	-0.750			
0.0238	1523.37	4.0190	4.0189	-0.5757	6.01	0.01	-0.750			
0.0256	1635.79	4.0160	4.0160	-0.5898	6.02	0.02	-0.750			
0.0274	1750.89	4.0130	4.0132	-0.5982	6.02	0.02	-0.750			
0.0292	1867.96	4.0100	4.0099	-0.6072	6.02	0.02	-0.750			
0.0310	1984.81	4.0070	4.0070	-0.6146	6.03	0.03	-0.750			
0.0328	2101.57	4.0040	4.0041	-0.6275	6.03	0.03	-0.750			
0.0347	2223.34	4.0010	4.0010	-0.6383	6.03	0.03	-0.750			
0.0367	2347.13	3.9980	3.9979	-0.6463	6.03	0.03	-0.750			
0.0386	2472.38	3.9950	3.9949	-0.6567	6.04	0.04	-0.750			
0.0406	2600.61	3.9920	3.9921	-0.6663	6.04	0.04	-0.750			
0.0427	2731.02	3.9890	3.9889	-0.6697	6.05	0.05	-0.750			
0.0447	2857.83	3.9860	3.9860	-0.6746	6.05	0.05	-0.750			
0.0467	2986.15	3.9830	3.9831	-0.6747	6.06	0.06	-0.750			
0.0487	3118.23	3.9800	3.9800	-0.6826	6.07	0.07	-0.750			
0.0508	3249.20	3.9770	3.9769	-0.6871	6.07	0.07	-0.750			
0.0528	3381.14	3.9740	3.9742	-0.6895	6.08	0.08	-0.750			
0.0549	3514.63	3.9710	3.9710	-0.6970	6.09	0.09	-0.750			
0.0570	3649.05	3.9680	3.9680	-0.7033	6.09	0.09	-0.750			
0.0591	3784.03	3.9650	3.9650	-0.7093	6.10	0.10	-0.750			
0.0613	3920.85	3.9620	3.9620	-0.7137	6.11	0.11	-0.750			
0.0634	4059.10	3.9590	3.9590	-0.7133	6.12	0.12	-0.750			
0.0656	4195.91	3.9560	3.9561	-0.7160	6.12	0.12	-0.750			
0.0677	4333.45	3.9530	3.9531	-0.7202	6.13	0.13	-0.750			
0.0699	4470.41	3.9500	3.9500	-0.7250	6.14	0.14	-0.750			
0.0720	4610.86	3.9470	3.9468	-0.7266	6.14	0.14	-0.750			
0.0742	4750.63	3.9440	3.9441	-0.7288	6.15	0.15	-0.750			
0.0764	4892.05	3.9410	3.9410	-0.7339	6.16	0.16	-0.750			
0.0787	5034.63	3.9380	3.9379	-0.7401	6.16	0.16	-0.750			
0.0809	5175.54	3.9350	3.9349	-0.7423	6.17	0.17	-0.750			
0.0831	5317.36	3.9320	3.9321	-0.7417	6.18	0.18	-0.750			
0.0853	5460.54	3.9290	3.9289	-0.7445	6.19	0.19	-0.750			
0.0876	5606.26	3.9260	3.9260	-0.7408	6.20	0.20	-0.750			
0.0898	5748.53	3.9230	3.9231	-0.7367	6.21	0.21	-0.750			
0.0920	5887.76	3.9200	3.9200	-0.7360	6.22	0.22	-0.750			
0.0942	6027.04	3.9170	3.9170	-0.7375	6.23	0.23	-0.750			
0.0964	6170.17	3.9140	3.9139	-0.7473	6.24	0.24	-0.750			
0.0987	6314.34	3.9110	3.9109	-0.7544	6.24	0.24	-0.750			
0.1010	6461.29	3.9080	3.9080	-0.7596	6.25	0.25	-0.750			
0.1033	6609.18	3.9050	3.9052	-0.7619	6.26	0.26	-0.750			
0.1056	6756.99	3.9020	3.9018	-0.7581	6.27	0.27	-0.750			
0.1078	6900.91	3.8990	3.8990	-0.7558	6.28	0.28	-0.750			
0.1100	7042.55	3.8960	3.8961	-0.7483	6.29	0.29	-0.750			
0.1123	7188.03	3.8930	3.8929	-0.7582	6.30	0.30	-0.750			
0.1146	7333.08	3.8900	3.8900	-0.7595	6.31	0.31	-0.750			
0.1169	7479.75	3.8870	3.8870	-0.7627	6.32	0.32	-0.750			
0.1192	7627.51	3.8840	3.8841	-0.7685	6.33	0.33	-0.750			
0.1215	7776.20	3.8810	3.8810	-0.7690	6.34	0.34	-0.750			
0.1238	7922.76	3.8780	3.8780	-0.7680	6.35	0.35	-0.750			
0.1261	8070.97	3.8750	3.8750	-0.7730	6.35	0.35	-0.750			
0.1284	8218.79	3.8720	3.8721	-0.7725	6.36	0.36	-0.750			
0.1308	8368.34	3.8690	3.8689	-0.7749	6.38	0.38	-0.750			
0.1331	8518.01	3.8660	3.8661	-0.7737	6.39	0.39	-0.750			
0.1354	8666.41	3.8630	3.8629	-0.7745	6.40	0.40	-0.750			
0.1377	8813.57	3.8600	3.8600	-0.7818	6.41	0.41	-0.750			
0.1401	8963.70	3.8570	3.8572	-0.7809	6.42	0.42	-0.750			
0.1424	9113.82	3.8540	3.8540	-0.7845	6.43	0.43	-0.750			
0.1448	9267.97	3.8510	3.8509	-0.7901	6.44	0.44	-0.750			
0.1472	9422.12	3.8480	3.8481	-0.7822	6.45	0.45	-0.750			
0.1496	9571.64	3.8450	3.8449	-0.7828	6.46	0.46	-0.750			
0.1519	9720.09	3.8420	3.8422	-0.7741	6.47	0.47	-0.750			
0.1541	9864.90	3.8390	3.8389	-0.7668	6.48	0.48	-0.750			
0.1565	10013.33	3.8360	3.8359	-0.7716	6.49	0.49	-0.750			
0.1588	10160.48	3.8330	3.8332	-0.7714	6.50	0.50	-0.750			
0.1611	10309.53	3.8300	3.8300	-0.7743	6.50	0.50	-0.750			
0.1634	10460.70	3.8270	3.8270	-0.7868	6.51	0.51	-0.750			
0.1658	10610.17	3.8240	3.8241	-0.7864	6.52	0.52	-0.750			
0.1681	10760.74	3.8210	3.8210	-0.7939	6.53	0.53	-0.750			
0.1705	10914.92	3.8180	3.8179	-0.7948	6.54	0.54	-0.750			
0.1730	11069.94	3.8150	3.8151	-0.7940	6.55	0.55	-0.750			
0.1753	11222.01	3.8120	3.8120	-0.7928	6.56	0.56	-0.750			
0.1777	11374.38	3.8090	3.8091	-0.7929	6.57	0.57	-0.750			
0.1801	11524.55	3.8060	3.8059	-0.7886	6.58	0.58	-0.750			
0.1824	11673.77	3.8030	3.8030	-0.7958	6.59	0.59	-0.750			
0.1848	11827.64	3.8000	3.8000	-0.7993	6.60	0.60	-0.750			
0.1873	11985.75	3.7970	3.7969	-0.7990	6.61	0.61	-0.750			
0.1897	12138.37	3.7940	3.7942	-0.7966	6.62	0.62	-0.750			
0.1920	12288.84	3.7910	3.7911	-0.8003	6.63	0.63	-0.750			
0.1944	12443.15	3.7880	3.7878	-0.8071	6.64	0.64	-0.750			
0.1968	12597.82	3.7850	3.7849	-0.8039	6.65	0.65	-0.750			
0.1992	12751.93	3.7820	3.7820	-0.8044	6.66	0.66	-0.750			
0.2017	12911.56	3.7790	3.7793	-0.8102	6.67	0.67	-0.750			
0.2042	13067.09	3.7760	3.7758	-0.8080	6.68	0.68	-0.750			
0.2066	13219.42	3.7730	3.7729	-0.8016	6.69	0.69	-0.750			
0.2089	13372.52	3.7700	3.7701	-0.7989	6.70	0.70	-0.750			
0.2113	13523.83	3.7670	3.7669	-0.7985	6.71	0.71	-0.750			
0.2137	13679.67	3.7640	3.7641	-0.8081	6.72	0.72	-0.750			
0.2162	13833.66	3.7610	3.7611	-0.8116	6.73	0.73	-0.750			
0.2186	13989.55	3.7580	3.7579	-0.8205	6.74	0.74	-0.750			
0.2211	14147.69	3.7550	3.7549	-0.8256	6.75	0.75	-0.750			
0.2235	14305.08	3.7520	3.7521	-0.8361	6.76	0.76	-0.750			
0.2261	14469.03	3.7490	3.7490	-0.8393	6.77	0.77	-0.750			
0.2287	14633.64	3.7460	3.7459	-0.8388	6.77	0.77	-0.750			
0.2312	14794.59	3.7430	3.7430	-0.8355	6.78	0.78	-0.750			
0.2337	14955.72	3.7400	3.7400	-0.8289	6.79	0.79	-0.750			
0.2361	15113.44	3.7370	3.7370	-0.8236	6.80	0.80	-0.750			
0.2386	15269.43	3.7340	3.7340	-0.8225	6.81	0.81	-0.750			
0.2410	15422.70	3.7310	3.7311	-0.8225	6.82	0.82	-0.750			
0.2435	15582.16	3.7280	3.7278	-0.8414	6.83	0.83	-0.750			
0.2460	15743.94	3.7250	3.7249	-0.8544	6.84	0.84	-0.750			
0.2486	15909.92	3.7220	3.7219	-0.8677	6.85	0.85	-0.750			
0.2513	16080.62	3.7190	3.7191	-0.8688	6.86	0.86	-0.750			
0.2539	16252.70	3.7160	3.7159	-0.8667	6.86	0.86	-0.750			
0.2565	16417.58	3.7130	3.7131	-0.8711	6.87	0.87	-0.750			
0.2591	16581.92	3.7100	3.7100	-0.8616	6.88	0.88	-0.750			
0.2617	16746.98	3.7070	3.7068	-0.8591	6.89	0.89	-0.750			
0.2643	16912.91	3.7040	3.7040	-0.8630	6.90	0.90	-0.750			
0.2668	17076.96	3.7010	3.7010	-0.8722	6.90	0.90	-0.750			
0.2694	17244.64	3.6980	3.6980	-0.8848	6.91	0.91	-0.750			
0.2721	17414.44	3.6950	3.6949	-0.8928	6.92	0.92	-0.750			
0.2748	17586.31	3.6920	3.6920	-0.8940	6.92	0.92	-0.750			
0.2775	17762.41	3.6890	3.6890	-0.9090	6.93	0.93	-0.750			
0.2803	17936.42	3.6860	3.6861	-0.9236	6.94	0.94	-0.750			
0.2830	18114.62	3.6830	3.6831	-0.9312	6.95	0.95	-0.750			
0.2858	18294.32	3.6800	3.6798	-0.9341	6.96	0.96	-0.750			
0.2887	18474.34	3.6770	3.6769	-0.9395	6.97	0.97	-0.750			
0.2915	18656.92	3.6740	3.6740	-0.9485	6.97	0.97	-0.750			
0.2944	18840.18	3.6710	3.6710	-0.9588	6.98	0.98	-0.750			
0.2973	19026.67	3.6680	3.6679	-0.9489	6.99	0.99	-0.750			
0.3001	19207.43	3.6650	3.6650	-0.9431	7.00	1.00	-0.750			
0.3030	19389.85	3.6620	3.6623	-0.9435	7.01	1.01	-0.750			
0.3058	19569.32	3.6590	3.6588	-0.9475	7.02	1.02	-0.750			
0.3086	19747.98	3.6560	3.6560	-0.9521	7.02	1.02	-0.750			
0.3114	19926.58	3.6530	3.6529	-0.9632	7.03	1.03	-0.750			
0.3143	20115.08	3.6500	3.6500	-0.9874	7.04	1.04	-0.750			
0.3173	20308.73	3.6470	3.6469	-1.0037	7.05	1.05	-0.750			
0.3204	20504.11	3.6440	3.6440	-1.0136	7.05	1.05	-0.750			
0.3235	20701.61	3.6410	3.6410	-1.0212	7.06	1.06	-0.750			
0.3265	20897.92	3.6380	3.6379	-1.0244	7.07	1.07	-0.750			
0.3296	21095.30	3.6350	3.6350	-1.0225	7.08	1.08	-0.750			
0.3327	21291.78	3.6320	3.6320	-1.0202	7.08	1.08	-0.750			
0.3357	21487.61	3.6290	3.6290	-1.0183	7.09	1.09	-0.750			
0.3388	21681.13	3.6260	3.6260	-1.0241	7.10	1.10	-0.750			
0.3418	21877.08	3.6230	3.6230	-1.0311	7.10	1.10	-0.750			
0.3449	22073.90	3.6200	3.6199	-1.0404	7.11	1.11	-0.750			
0.3480	22274.41	3.6170	3.6170	-1.0512	7.12	1.12	-0.750			
0.3512	22477.74	3.6140	3.6140	-1.0738	7.13	1.13	-0.750			
0.3545	22686.68	3.6110	3.6109	-1.0920	7.13	1.13	-0.750			
0.3578	22898.49	3.6080	3.6079	-1.1114	7.14	1.14	-0.750			
0.3612	23115.64	3.6050	3.6050	-1.1128	7.15	1.15	-0.750			
0.3646	23333.21	3.6020	3.6021	-1.1141	7.16	1.16	-0.750			
0.3679	23547.75	3.5990	3.5990	-1.1184	7.17	1.17	-0.750			
0.3713	23761.17	3.5960	3.5960	-1.1213	7.18	1.18	-0.750			
0.3746	23972.90	3.5930	3.5929	-1.1281	7.18	1.18	-0.750			
0.3779	24187.55	3.5900	3.5901	-1.1403	7.19	1.19	-0.750			
0.3814	24408.58	3.5870	3.5875	-1.1486	7.20	1.20	-0.750	0.392	0.853	
0.3849	24634.20	3.5840	3.5840	-1.1581	7.20	1.20	-0.750			
0.3884	24859.83	3.5810	3.5810	-1.1668	7.21	1.21	-0.750			
0.3919	25083.99	3.5780	3.5780	-1.1730	7.21	1.21	-0.750			
0.3955	25309.38	3.5750	3.5749	-1.1735	7.22	1.22	-0.750			
0.3990	25533.30	3.5720	3.5720	-1.1767	7.22	1.22	-0.750			
0.4025	25759.29	3.5690	3.5693	-1.1898	7.23	1.23	-0.750			
0.4061	25989.62	3.5660	3.5659	-1.2070	7.24	1.24	-0.750			
0.4097	26222.35	3.5630	3.5629	-1.2180	7.25	1.25	-0.750			
0.4134	26455.34	3.5600	3.5600	-1.2286	7.26	1.26	-0.750			
0.4171	26696.78	3.5570	3.5569	-1.2454	7.26	1.26	-0.750			
0.4209	26937.09	3.5540	3.5539	-1.2525	7.27	1.27	-0.750			
0.4247	27178.84	3.5510	3.5510	-1.2477	7.28	1.28	-0.750			
0.4284	27416.07	3.5480	3.5480	-1.2635	7.28	1.28	-0.750			
0.4322	27663.19	3.5450	3.5451	-1.2671	7.29	1.29	-0.750			
0.4361	27907.74	3.5420	3.5418	-1.2716	7.29	1.29	-0.750			
0.4399	28150.70	3.5390	3.5393	-1.2778	7.30	1.30	-0.750			
0.4437	28397.48	3.5360	3.5360	-1.2839	7.31	1.31	-0.750			
0.4476	28643.39	3.5330	3.5329	-1.2865	7.31	1.31	-0.750			
0.4514	28890.89	3.5300	3.5301	-1.3005	7.32	1.32	-0.750			
0.4553	29140.51	3.5270	3.5269	-1.3068	7.32	1.32	-0.750			
0.4593	29395.16	3.5240	3.5239	-1.3057	7.33	1.33	-0.750			
0.4632	29642.17	3.5210	3.5210	-1.3150	7.34	1.34	-0.750			
0.4671	29896.79	3.5180	3.5179	-1.3124	7.35	1.35	-0.750			
0.4711	30153.40	3.5150	3.5149	-1.3123	7.35	1.35	-0.750			
0.4751	30405.39	3.5120	3.5118	-1.3033	7.36	1.36	-0.750			
0.4789	30652.33	3.5090	3.5092	-1.2980	7.37	1.37	-0.750			
0.4829	30902.72	3.5060	3.5059	-1.3022	7.38	1.38	-0.750			
0.4867	31150.58	3.5030	3.5030	-1.3042	7.38	1.38	-0.750			
0.4905	31394.07	3.5000	3.5000	-1.2990	7.39	1.39	-0.750			
0.4946	31652.52	3.4970	3.4970	-1.3089	7.40	1.40	-0.750			
0.4985	31906.92	3.4940	3.4940	-1.3130	7.40	1.40	-0.750			
0.5025	32160.60	3.4910	3.4912	-1.3043	7.41	1.41	-0.750			
0.5064	32411.12	3.4880	3.4879	-1.2921	7.42	1.42	-0.750			
0.5103	32657.81	3.4850	3.4849	-1.2825	7.43	1.43	-0.750			
0.5140	32897.83	3.4820	3.4822	-1.2762	7.45	1.45	-0.750			
0.5179	33145.53	3.4790	3.4788	-1.2738	7.46	1.46	-0.750			
0.5217	33391.36	3.4760	3.4759	-1.2615	7.47	1.47	-0.750			
0.5255	33633.12	3.4730	3.4730	-1.2418	7.48	1.48	-0.750			
0.5292	33868.55	3.4700	3.4702	-1.2363	7.48	1.48	-0.750			
0.5329	34104.30	3.4670	3.4669	-1.2356	7.49	1.49	-0.750			
0.5365	34338.73	3.4640	3.4639	-1.2361	7.50	1.50	-0.750			
0.5402	34571.31	3.4610	3.4611	-1.2393	7.51	1.51	-0.750			
0.5440	34814.48	3.4580	3.4581	-1.2500	7.52	1.52	-0.750			
0.5479	35064.21	3.4550	3.4549	-1.2431	7.54	1.54	-0.750			
0.5516	35304.10	3.4520	3.4522	-1.2187	7.55	1.55	-0.750			
0.5553	35536.97	3.4490	3.4490	-1.1977	7.56	1.56	-0.750			
0.5588	35760.50	3.4460	3.4459	-1.1831	7.57	1.57	-0.750			
0.5622	35981.14	3.4430	3.4429	-1.1636	7.58	1.58	-0.750			
0.5657	36202.22	3.4400	3.4401	-1.1681	7.59	1.59	-0.750			
0.5692	36431.34	3.4370	3.4369	-1.1750	7.60	1.60	-0.750			
0.5728	36659.04	3.4340	3.4340	-1.1711	7.62	1.62	-0.750			
0.5763	36885.13	3.4310	3.4310	-1.1627	7.63	1.63	-0.750			
0.5798	37110.08	3.4280	3.4279	-1.1559	7.64	1.64	-0.750			
0.5833	37329.90	3.4250	3.4249	-1.1326	7.66	1.66	-0.750			
0.5866	37545.02	3.4220	3.4220	-1.1119	7.67	1.67	-0.750			
0.5899	37751.70	3.4190	3.4193	-1.1025	7.69	1.69	-0.750			
0.5932	37965.55	3.4160	3.4159	-1.0912	7.70	1.70	-0.750			
0.5965	38174.57	3.4130	3.4129	-1.0679	7.72	1.72	-0.750			
0.5997	38377.92	3.4100	3.4099	-1.0504	7.73	1.73	-0.750			
0.6028	38580.21	3.4070	3.4073	-1.0390	7.74	1.74	-0.750			
0.6059	38777.44	3.4040	3.4040	-1.0208	7.75	1.75	-0.750			
0.6089	38970.29	3.4010	3.4009	-0.9948	7.77	1.77	-0.750			
0.6118	39158.15	3.3980	3.3980	-0.9723	7.78	1.78	-0.750			
0.6148	39345.52	3.3950	3.3951	-0.9577	7.79	1.79	-0.750			
0.6176	39525.76	3.3920	3.3920	-0.9420	7.80	1.80	-0.750			
0.6204	39704.29	3.3890	3.3891	-0.9188	7.81	1.81	-0.750			
0.6231	39877.37	3.3860	3.3859	-0.9052	7.82	1.82	-0.750			
0.6258	40048.64	3.3830	3.3830	-0.8909	7.83	1.83	-0.750			
0.6285	40220.86	3.3800	3.3800	-0.8780	7.85	1.85	-0.750			
0.6310	40386.89	3.3770	3.3770	-0.8660	7.86	1.86	-0.750			
0.6337	40555.53	3.3740	3.3740	-0.8447	7.88	1.88	-0.750			
0.6362	40715.89	3.3710	3.3710	-0.8194	7.90	1.90	-0.750			
0.6386	40871.81	3.3680	3.3680	-0.8030	7.91	1.91	-0.750			
0.6410	41021.86	3.3650	3.3650	-0.7747	7.93	1.93	-0.750			
0.6433	41168.45	3.3620	3.3619	-0.7551	7.94	1.94	-0.750			
0.6455	41309.37	3.3590	3.3591	-0.7417	7.95	1.95	-0.750			
0.6477	41449.61	3.3560	3.3560	-0.7228	7.96	1.96	-0.750			
0.6498	41589.68	3.3530	3.3529	-0.7120	7.98	1.98	-0.750			
0.6519	41724.64	3.3500	3.3501	-0.6947	7.99	1.99	-0.750			
0.6540	41855.13	3.3470	3.3471	-0.6795	8.00	2.00	-0.750			
0.6560	41985.44	3.3440	3.3439	-0.6662	8.01	2.01	-0.750			
0.6580	42111.45	3.3410	3.3410	-0.6492	8.03	2.03	-0.750			
0.6599	42232.19	3.3380	3.3380	-0.6339	8.04	2.04	-0.750			
0.6618	42355.09	3.3350	3.3351	-0.6275	8.05	2.05	-0.750			
0.6636	42473.54	3.3320	3.3319	-0.6148	8.06	2.06	-0.750			
0.6655	42589.84	3.3290	3.3290	-0.6040	8.07	2.07	-0.750			
0.6673	42704.81	3.3260	3.3260	-0.5934	8.09	2.09	-0.750			
0.6690	42818.57	3.3230	3.3230	-0.5843	8.10	2.10	-0.750			
0.6708	42929.89	3.3200	3.3201	-0.5721	8.11	2.11	-0.750			
0.6725	43038.10	3.3170	3.3170	-0.5612	8.12	2.12	-0.750			
0.6742	43145.81	3.3140	3.3139	-0.5479	8.14	2.14	-0.750			
0.6758	43250.00	3.3110	3.3110	-0.5340	8.15	2.15	-0.750			
0.6774	43351.28	3.3080	3.3082	-0.5201	8.16	2.16	-0.750			
0.6789	43450.38	3.3050	3.3050	-0.5078	8.17	2.17	-0.750			
0.6804	43545.73	3.3020	3.3019	-0.4963	8.19	2.19	-0.750			
0.6818	43638.04	3.2990	3.2990	-0.4871	8.20	2.20	-0.750			
0.6833	43730.64	3.2960	3.2960	-0.4806	8.21	2.21	-0.750			
0.6847	43822.34	3.2930	3.2930	-0.4747	8.22	2.22	-0.750			
0.6862	43913.88	3.2900	3.2901	-0.4679	8.24	2.24	-0.750			
0.6875	44003.09	3.2870	3.2870	-0.4593	8.25	2.25	-0.750			
0.6889	44090.68	3.2840	3.2839	-0.4499	8.26	2.26	-0.750			
0.6902	44175.62	3.2810	3.2811	-0.4404	8.27	2.27	-0.750			
0.6915	44259.14	3.2780	3.2780	-0.4339	8.28	2.28	-0.750			
0.6928	44341.56	3.2750	3.2750	-0.4275	8.30	2.30	-0.750			
0.6941	44423.15	3.2720	3.2720	-0.4189	8.31	2.31	-0.750			
0.6954	44503.18	3.2690	3.2690	-0.4134	8.32	2.32	-0.750			
0.6966	44581.77	3.2660	3.2659	-0.4063	8.33	2.33	-0.750			
0.6978	44658.93	3.2630	3.2630	-0.4000	8.34	2.34	-0.750			
0.6990	44735.15	3.2600	3.2600	-0.3916	8.35	2.35	-0.750			
0.7002	44809.77	3.2570	3.2570	-0.3831	8.36	2.36	-0.750			
0.7013	44882.18	3.2540	3.2540	-0.3804	8.37	2.37	-0.750			
0.7024	44954.31	3.2510	3.2510	-0.3770	8.38	2.38	-0.750			
0.7035	45026.66	3.2480	3.2478	-0.3677	8.39	2.39	-0.750			
0.7046	45097.15	3.2450	3.2450	-0.3620	8.40	2.40	-0.750			
0.7057	45165.93	3.2420	3.2422	-0.3562	8.41	2.41	-0.750			
0.7068	45233.70	3.2390	3.2391	-0.3490	8.43	2.43	-0.750			
0.7078	45299.78	3.2360	3.2359	-0.3451	8.44	2.44	-0.750			
0.7088	45364.12	3.2330	3.2330	-0.3411	8.45	2.45	-0.750			
0.7098	45429.16	3.2300	3.2301	-0.3389	8.46	2.46	-0.750			
0.7109	45495.42	3.2270	3.2269	-0.3360	8.47	2.47	-0.750			
0.7119	45560.26	3.2240	3.2241	-0.3315	8.48	2.48	-0.750			
0.7129	45623.56	3.2210	3.2212	-0.3274	8.49	2.49	-0.750			
0.7138	45686.15	3.2180	3.2179	-0.3227	8.50	2.50	-0.750			
0.7148	45747.21	3.2150	3.2149	-0.3153	8.51	2.51	-0.750			
0.7157	45806.44	3.2120	3.2120	-0.3091	8.52	2.52	-0.750			
0.7167	45865.81	3.2090	3.2091	-0.3068	8.53	2.53	-0.750			
0.7176	45923.94	3.2060	3.2060	-0.3030	8.54	2.54	-0.750			
0.7185	45981.12	3.2030	3.2030	-0.2991	8.55	2.55	-0.750			
0.7193	46037.54	3.2000	3.2000	-0.2961	8.56	2.56	-0.750			
0.7202	46094.57	3.1970	3.1970	-0.2950	8.57	2.57	-0.750			
0.7211	46152.06	3.1940	3.1940	-0.2914	8.58	2.58	-0.750			
0.7220	46207.59	3.1910	3.1910	-0.2869	8.59	2.59	-0.750			
0.7229	46262.45	3.1880	3.1881	-0.2819	8.60	2.60	-0.750			
0.7237	46315.99	3.1850	3.1849	-0.2783	8.61	2.61	-0.750			
0.7245	46368.21	3.1820	3.1821	-0.2749	8.62	2.62	-0.750			
0.7253	46420.62	3.1790	3.1790	-0.2722	8.63	2.63	-0.750			
0.7261	46472.80	3.1760	3.1760	-0.2692	8.64	2.64	-0.750			
0.7269	46524.57	3.1730	3.1729	-0.2676	8.64	2.64	-0.750			
0.7277	46575.46	3.1700	3.1702	-0.2648	8.65	2.65	-0.750			
0.7285	46626.10	3.1670	3.1669	-0.2624	8.66	2.66	-0.750			
0.7293	46675.94	3.1640	3.1639	-0.2594	8.67	2.67	-0.750			
0.7301	46725.76	3.1610	3.1610	-0.2554	8.68	2.68	-0.750			
0.7309	46774.83	3.1580	3.1580	-0.2535	8.69	2.69	-0.750			
0.7316	46822.90	3.1550	3.1550	-0.2517	8.70	2.70	-0.750			
0.7324	46870.94	3.1520	3.1520	-0.2501	8.71	2.71	-0.750			
0.7331	46918.28	3.1490	3.1489	-0.2470	8.72	2.72	-0.750			
0.7338	46965.67	3.1460	3.1461	-0.2455	8.73	2.73	-0.750			
0.7346	47012.79	3.1430	3.1431	-0.2443	8.74	2.74	-0.750			
0.7353	47059.92	3.1400	3.1400	-0.2417	8.75	2.75	-0.750			
0.7360	47106.72	3.1370	3.1370	-0.2386	8.76	2.76	-0.750			
0.7367	47151.35	3.1340	3.1340	-0.2351	8.77	2.77	-0.750			
0.7374	47196.30	3.1310	3.1311	-0.2332	8.78	2.78	-0.750			
0.7381	47240.85	3.1280	3.1280	-0.2313	8.79	2.79	-0.750			
0.7388	47285.04	3.1250	3.1249	-0.2297	8.80	2.80	-0.750			
0.7395	47328.75	3.1220	3.1221	-0.2276	8.80	2.80	-0.750			
0.7402	47372.45	3.1190	3.1190	-0.2261	8.81	2.81	-0.750			
0.7409	47415.99	3.1160	3.1159	-0.2251	8.82	2.82	-0.750			
0.7415	47459.16	3.1130	3.1130	-0.2233	8.83	2.83	-0.750			
0.7422	47501.66	3.1100	3.1100	-0.2200	8.84	2.84	-0.750			
0.7429	47544.00	3.1070	3.1070	-0.2178	8.85	2.85	-0.750			
0.7435	47585.16	3.1040	3.1040	-0.2164	8.86	2.86	-0.750			
0.7442	47626.27	3.1010	3.1011	-0.2143	8.87	2.87	-0.750			
0.7448	47667.37	3.0980	3.0979	-0.2129	8.88	2.88	-0.750			
0.7454	47707.69	3.0950	3.0949	-0.2133	8.89	2.89	-0.750			
0.7461	47748.75	3.0920	3.0921	-0.2117	8.90	2.90	-0.750			
0.7467	47789.55	3.0890	3.0890	-0.2105	8.91	2.91	-0.750			
0.7473	47830.31	3.0860	3.0859	-0.2097	8.92	2.92	-0.750			
0.7480	47870.68	3.0830	3.0830	-0.2081	8.93	2.93	-0.750			
0.7486	47910.14	3.0800	3.0800	-0.2058	8.94	2.94	-0.750			
0.7492	47949.64	3.0770	3.0770	-0.2032	8.94	2.94	-0.750			
0.7498	47988.12	3.0740	3.0741	-0.2006	8.95	2.95	-0.750			
0.7504	48026.37	3.0710	3.0711	-0.1999	8.96	2.96	-0.750			
0.7510	48064.93	3.0680	3.0680	-0.1992	8.97	2.97	-0.750			
0.7516	48102.87	3.0650	3.0649	-0.1975	8.98	2.98	-0.750			
0.7522	48140.47	3.0620	3.0619	-0.1966	8.99	2.99	-0.750			
0.7528	48178.15	3.0590	3.0591	-0.1964	9.00	3.00	-0.750			
0.7534	48215.78	3.0560	3.0560	-0.1962	9.01	3.01	-0.750			
0.7540	48253.96	3.0530	3.0529	-0.1950	9.02	3.02	-0.750			
0.7546	48291.26	3.0500	3.0500	-0.1929	9.03	3.03	-0.750			
0.7551	48327.95	3.0470	3.0470	-0.1917	9.04	3.04	-0.750			
0.7557	48364.62	3.0440	3.0441	-0.1903	9.05	3.05	-0.750			
0.7563	48401.11	3.0410	3.0410	-0.1899	9.05	3.05	-0.750			
0.7568	48437.20	3.0380	3.0379	-0.1883	9.06	3.06	-0.750			
0.7574	48473.18	3.0350	3.0350	-0.1871	9.07	3.07	-0.750			
0.7580	48509.07	3.0320	3.0320	-0.1868	9.08	3.08	-0.750			
0.7585	48545.30	3.0290	3.0291	-0.1856	9.09	3.09	-0.750			
0.7591	48581.15	3.0260	3.0260	-0.1837	9.10	3.10	-0.750			
0.7596	48615.88	3.0230	3.0231	-0.1818	9.11	3.11	-0.750			
0.7602	48650.61	3.0200	3.0200	-0.1800	9.12	3.12	-0.750			
0.7607	48684.72	3.0170	3.0170	-0.1793	9.13	3.13	-0.750			
0.7612	48718.96	3.0140	3.0139	-0.1786	9.14	3.14	-0.750			
0.7618	48752.90	3.0110	3.0110	-0.1780	9.15	3.15	-0.750			
0.7623	48787.10	3.0080	3.0080	-0.1782	9.16	3.16	-0.750			
0.7628	48821.34	3.0050	3.0050	-0.1786	9.17	3.17	-0.750			
0.7634	48855.49	3.0020	3.0020	-0.1749	9.18	3.18	-0.750			
