Ah_balance (normalized)	Ah_balance (mAh)	Voltage - fit (V)	Voltage -  interpolate (V)	dQ/dV (1/V)	Temperature (°C)	Temperature - diff (°C)	Current (C)	R_DC 0ms (mOhm)	R_DC 50ms (mOhm)	R_DC 50 ms PEC (mOhm)
0.0000	0.00	4.0940	4.1296	0.0000	5.99	0.00	-0.751			
0.0000	0.00	4.0970	4.1296	0.0000	5.99	0.00	-0.751			
0.0002	12.60	4.0910	4.0910	-0.0472	5.99	0.00	-0.750			
0.0004	24.60	4.0880	4.0877	-0.0738	5.99	0.00	-0.750			
0.0006	41.33	4.0850	4.0848	-0.1004	5.99	0.00	-0.750			
0.0010	63.25	4.0820	4.0819	-0.1265	5.99	0.00	-0.750			
0.0014	90.54	4.0790	4.0790	-0.1497	5.99	0.00	-0.750			
0.0019	121.82	4.0760	4.0760	-0.1732	5.99	0.00	-0.750			
0.0025	159.30	4.0730	4.0730	-0.1977	5.99	0.00	-0.750			
0.0031	199.15	4.0700	4.0700	-0.2187	5.99	0.00	-0.750			
0.0038	242.70	4.0670	4.0671	-0.2421	5.99	0.00	-0.750			
0.0045	290.73	4.0640	4.0640	-0.2647	5.99	0.00	-0.750			
0.0054	344.34	4.0610	4.0609	-0.2867	5.99	0.00	-0.750			
0.0063	401.33	4.0580	4.0580	-0.3094	5.99	0.00	-0.750			
0.0072	463.23	4.0550	4.0551	-0.3327	5.99	0.00	-0.750			
0.0083	529.41	4.0520	4.0521	-0.3555	5.99	0.00	-0.750			
0.0094	599.85	4.0490	4.0489	-0.3773	5.99	0.00	-0.750			
0.0105	673.42	4.0460	4.0461	-0.4028	5.99	0.00	-0.750			
0.0118	754.15	4.0430	4.0429	-0.4227	5.99	0.00	-0.750			
0.0131	838.54	4.0400	4.0400	-0.4425	5.99	0.00	-0.750			
0.0145	925.76	4.0370	4.0370	-0.4602	5.99	0.00	-0.750			
0.0159	1015.98	4.0340	4.0341	-0.4779	5.99	0.00	-0.750			
0.0173	1109.03	4.0310	4.0310	-0.4956	5.99	0.00	-0.750			
0.0188	1204.67	4.0280	4.0280	-0.5128	5.99	0.00	-0.750			
0.0204	1304.81	4.0250	4.0250	-0.5280	5.99	0.00	-0.750			
0.0220	1409.15	4.0220	4.0220	-0.5518	6.00	0.01	-0.750			
0.0237	1517.81	4.0190	4.0190	-0.5689	6.00	0.01	-0.750			
0.0255	1628.89	4.0160	4.0160	-0.5822	6.00	0.01	-0.750			
0.0272	1742.37	4.0130	4.0129	-0.5956	6.00	0.01	-0.750			
0.0290	1857.72	4.0100	4.0100	-0.6085	6.00	0.01	-0.750			
0.0309	1975.38	4.0070	4.0070	-0.6208	6.01	0.02	-0.750			
0.0327	2095.61	4.0040	4.0040	-0.6350	6.01	0.02	-0.750			
0.0347	2219.13	4.0010	4.0010	-0.6395	6.02	0.03	-0.750			
0.0367	2345.87	3.9980	3.9980	-0.6499	6.02	0.03	-0.750			
0.0386	2471.15	3.9950	3.9950	-0.6536	6.03	0.04	-0.750			
0.0406	2596.60	3.9920	3.9922	-0.6609	6.03	0.04	-0.750			
0.0426	2723.50	3.9890	3.9890	-0.6658	6.04	0.05	-0.750			
0.0445	2850.89	3.9860	3.9859	-0.6668	6.04	0.05	-0.750			
0.0466	2979.85	3.9830	3.9831	-0.6720	6.05	0.06	-0.750			
0.0486	3111.24	3.9800	3.9800	-0.6813	6.06	0.07	-0.750			
0.0506	3241.11	3.9770	3.9769	-0.6820	6.06	0.07	-0.750			
0.0527	3371.68	3.9740	3.9741	-0.6871	6.07	0.08	-0.750			
0.0547	3502.79	3.9710	3.9710	-0.6957	6.08	0.09	-0.750			
0.0568	3638.03	3.9680	3.9680	-0.7046	6.08	0.09	-0.750			
0.0590	3775.93	3.9650	3.9649	-0.7099	6.09	0.10	-0.750			
0.0611	3912.08	3.9620	3.9620	-0.7083	6.10	0.11	-0.750			
0.0633	4049.08	3.9590	3.9591	-0.7134	6.10	0.11	-0.750			
0.0654	4186.96	3.9560	3.9560	-0.7109	6.11	0.12	-0.750			
0.0675	4320.32	3.9530	3.9529	-0.7176	6.12	0.13	-0.750			
0.0697	4458.67	3.9500	3.9501	-0.7211	6.12	0.13	-0.750			
0.0719	4599.91	3.9470	3.9469	-0.7275	6.13	0.14	-0.750			
0.0741	4743.08	3.9440	3.9439	-0.7310	6.14	0.15	-0.750			
0.0763	4882.97	3.9410	3.9411	-0.7313	6.14	0.15	-0.750			
0.0785	5022.64	3.9380	3.9381	-0.7269	6.15	0.16	-0.750			
0.0807	5161.63	3.9350	3.9349	-0.7274	6.16	0.17	-0.750			
0.0828	5297.96	3.9320	3.9320	-0.7275	6.17	0.18	-0.750			
0.0849	5435.25	3.9290	3.9291	-0.7310	6.18	0.19	-0.750			
0.0872	5579.66	3.9260	3.9259	-0.7455	6.19	0.20	-0.750			
0.0894	5724.77	3.9230	3.9229	-0.7469	6.20	0.21	-0.750			
0.0917	5866.81	3.9200	3.9201	-0.7513	6.21	0.22	-0.750			
0.0940	6013.92	3.9170	3.9170	-0.7535	6.21	0.22	-0.750			
0.0962	6158.37	3.9140	3.9139	-0.7517	6.22	0.23	-0.750			
0.0985	6301.63	3.9110	3.9110	-0.7463	6.23	0.24	-0.750			
0.1007	6444.48	3.9080	3.9080	-0.7493	6.24	0.25	-0.750			
0.1029	6588.34	3.9050	3.9051	-0.7530	6.25	0.26	-0.750			
0.1052	6733.99	3.9020	3.9019	-0.7523	6.26	0.27	-0.750			
0.1074	6875.29	3.8990	3.8990	-0.7548	6.27	0.28	-0.750			
0.1097	7022.56	3.8960	3.8960	-0.7581	6.28	0.29	-0.750			
0.1120	7169.00	3.8930	3.8931	-0.7623	6.29	0.30	-0.750			
0.1143	7316.25	3.8900	3.8899	-0.7613	6.30	0.31	-0.750			
0.1166	7462.35	3.8870	3.8868	-0.7550	6.31	0.32	-0.750			
0.1189	7606.41	3.8840	3.8841	-0.7599	6.32	0.33	-0.750			
0.1211	7752.61	3.8810	3.8811	-0.7618	6.33	0.34	-0.750			
0.1234	7896.61	3.8780	3.8779	-0.7631	6.34	0.35	-0.750			
0.1257	8045.36	3.8750	3.8750	-0.7680	6.35	0.36	-0.750			
0.1280	8192.97	3.8720	3.8720	-0.7670	6.36	0.37	-0.750			
0.1303	8340.56	3.8690	3.8690	-0.7713	6.37	0.38	-0.750			
0.1326	8489.31	3.8660	3.8661	-0.7799	6.38	0.39	-0.750			
0.1350	8637.94	3.8630	3.8629	-0.7803	6.38	0.39	-0.750			
0.1373	8789.89	3.8600	3.8598	-0.7790	6.39	0.40	-0.750			
0.1397	8938.88	3.8570	3.8571	-0.7784	6.40	0.41	-0.750			
0.1420	9089.42	3.8540	3.8541	-0.7848	6.41	0.42	-0.750			
0.1444	9239.45	3.8510	3.8509	-0.7850	6.42	0.43	-0.750			
0.1467	9389.05	3.8480	3.8479	-0.7764	6.43	0.44	-0.750			
0.1490	9537.39	3.8450	3.8450	-0.7769	6.44	0.45	-0.750			
0.1514	9688.67	3.8420	3.8421	-0.7816	6.45	0.46	-0.750			
0.1538	9840.65	3.8390	3.8389	-0.7781	6.46	0.47	-0.750			
0.1560	9986.50	3.8360	3.8360	-0.7728	6.47	0.48	-0.750			
0.1583	10133.17	3.8330	3.8331	-0.7760	6.48	0.49	-0.750			
0.1607	10282.39	3.8300	3.8301	-0.7767	6.49	0.50	-0.750			
0.1630	10433.01	3.8270	3.8267	-0.7821	6.50	0.51	-0.750			
0.1654	10582.79	3.8240	3.8242	-0.7819	6.51	0.52	-0.750			
0.1677	10733.47	3.8210	3.8211	-0.7875	6.52	0.53	-0.750			
0.1701	10888.08	3.8180	3.8179	-0.7959	6.53	0.54	-0.750			
0.1725	11041.06	3.8150	3.8149	-0.7893	6.54	0.55	-0.750			
0.1748	11190.29	3.8120	3.8119	-0.7830	6.55	0.56	-0.750			
0.1772	11340.95	3.8090	3.8092	-0.7850	6.56	0.57	-0.750			
0.1795	11489.51	3.8060	3.8059	-0.7855	6.57	0.58	-0.750			
0.1819	11639.23	3.8030	3.8029	-0.7896	6.58	0.59	-0.750			
0.1842	11788.81	3.8000	3.8000	-0.7914	6.59	0.60	-0.750			
0.1866	11941.82	3.7970	3.7970	-0.8034	6.60	0.61	-0.750			
0.1891	12102.06	3.7940	3.7940	-0.8110	6.61	0.62	-0.750			
0.1915	12259.18	3.7910	3.7909	-0.8080	6.63	0.64	-0.750			
0.1940	12414.32	3.7880	3.7881	-0.8045	6.64	0.65	-0.750			
0.1964	12568.59	3.7850	3.7850	-0.7998	6.65	0.66	-0.750			
0.1987	12718.92	3.7820	3.7820	-0.7989	6.66	0.67	-0.750			
0.2011	12871.34	3.7790	3.7790	-0.8031	6.67	0.68	-0.750			
0.2035	13024.13	3.7760	3.7760	-0.8067	6.68	0.69	-0.750			
0.2060	13180.83	3.7730	3.7729	-0.8155	6.69	0.70	-0.750			
0.2084	13339.66	3.7700	3.7701	-0.8252	6.70	0.71	-0.750			
0.2109	13500.74	3.7670	3.7671	-0.8197	6.71	0.72	-0.750			
0.2134	13658.84	3.7640	3.7639	-0.8209	6.71	0.72	-0.750			
0.2159	13815.20	3.7610	3.7611	-0.8192	6.72	0.73	-0.750			
0.2183	13970.97	3.7580	3.7579	-0.8132	6.73	0.74	-0.750			
0.2207	14126.71	3.7550	3.7549	-0.8160	6.74	0.75	-0.750			
0.2232	14283.93	3.7520	3.7520	-0.8141	6.75	0.76	-0.750			
0.2256	14440.75	3.7490	3.7490	-0.8184	6.76	0.77	-0.750			
0.2281	14598.23	3.7460	3.7462	-0.8239	6.77	0.78	-0.750			
0.2305	14754.78	3.7430	3.7430	-0.8226	6.78	0.79	-0.750			
0.2330	14914.57	3.7400	3.7399	-0.8278	6.79	0.80	-0.750			
0.2355	15073.52	3.7370	3.7370	-0.8321	6.79	0.80	-0.750			
0.2380	15233.75	3.7340	3.7340	-0.8408	6.80	0.81	-0.750			
0.2406	15395.70	3.7310	3.7312	-0.8459	6.81	0.82	-0.750			
0.2431	15557.48	3.7280	3.7279	-0.8514	6.82	0.83	-0.750			
0.2457	15723.68	3.7250	3.7250	-0.8591	6.83	0.84	-0.750			
0.2483	15891.35	3.7220	3.7220	-0.8608	6.84	0.85	-0.750			
0.2509	16060.37	3.7190	3.7188	-0.8633	6.85	0.86	-0.750			
0.2535	16224.18	3.7160	3.7162	-0.8541	6.86	0.87	-0.750			
0.2560	16384.65	3.7130	3.7130	-0.8536	6.87	0.88	-0.750			
0.2585	16546.95	3.7100	3.7099	-0.8593	6.88	0.89	-0.750			
0.2611	16708.79	3.7070	3.7070	-0.8598	6.89	0.90	-0.750			
0.2637	16877.33	3.7040	3.7040	-0.8849	6.89	0.90	-0.750			
0.2664	17050.97	3.7010	3.7010	-0.8896	6.90	0.91	-0.750			
0.2692	17226.34	3.6980	3.6979	-0.8935	6.92	0.93	-0.750			
0.2718	17398.16	3.6950	3.6950	-0.8933	6.93	0.94	-0.750			
0.2745	17568.08	3.6920	3.6922	-0.8914	6.94	0.95	-0.750			
0.2772	17739.21	3.6890	3.6890	-0.8951	6.95	0.96	-0.750			
0.2798	17908.01	3.6860	3.6859	-0.8991	6.96	0.97	-0.750			
0.2825	18078.35	3.6830	3.6831	-0.9117	6.96	0.97	-0.750			
0.2853	18259.74	3.6800	3.6799	-0.9264	6.97	0.98	-0.750			
0.2881	18437.92	3.6770	3.6769	-0.9307	6.98	0.99	-0.750			
0.2909	18618.74	3.6740	3.6742	-0.9360	6.99	1.00	-0.750			
0.2937	18799.42	3.6710	3.6710	-0.9420	7.00	1.01	-0.750			
0.2966	18980.81	3.6680	3.6679	-0.9441	7.01	1.02	-0.750			
0.2994	19161.61	3.6650	3.6649	-0.9467	7.02	1.03	-0.750			
0.3022	19342.67	3.6620	3.6621	-0.9474	7.03	1.04	-0.750			
0.3051	19525.43	3.6590	3.6590	-0.9645	7.04	1.05	-0.750			
0.3080	19710.15	3.6560	3.6560	-0.9722	7.05	1.06	-0.750			
0.3109	19897.43	3.6530	3.6529	-0.9846	7.06	1.07	-0.750			
0.3139	20086.57	3.6500	3.6500	-0.9970	7.07	1.08	-0.750			
0.3169	20280.63	3.6470	3.6470	-1.0146	7.07	1.08	-0.750			
0.3200	20479.90	3.6440	3.6440	-1.0112	7.08	1.09	-0.750			
0.3231	20678.45	3.6410	3.6410	-1.0081	7.08	1.09	-0.750			
0.3261	20869.36	3.6380	3.6381	-1.0062	7.09	1.10	-0.750			
0.3291	21060.78	3.6350	3.6350	-1.0114	7.09	1.10	-0.750			
0.3321	21252.43	3.6320	3.6318	-1.0203	7.10	1.11	-0.750			
0.3351	21447.85	3.6290	3.6290	-1.0343	7.11	1.12	-0.750			
0.3383	21648.82	3.6260	3.6259	-1.0454	7.11	1.12	-0.750			
0.3415	21853.03	3.6230	3.6230	-1.0694	7.12	1.13	-0.750			
0.3447	22061.88	3.6200	3.6200	-1.0743	7.13	1.14	-0.750			
0.3479	22266.89	3.6170	3.6169	-1.0749	7.14	1.15	-0.750			
0.3511	22472.98	3.6140	3.6140	-1.0744	7.15	1.16	-0.750			
0.3544	22683.42	3.6110	3.6109	-1.0898	7.15	1.16	-0.750			
0.3577	22890.73	3.6080	3.6080	-1.0918	7.16	1.17	-0.750			
0.3610	23101.67	3.6050	3.6050	-1.0990	7.17	1.18	-0.750			
0.3642	23310.57	3.6020	3.6020	-1.1030	7.18	1.19	-0.750			
0.3676	23527.39	3.5990	3.5989	-1.1151	7.19	1.20	-0.750			
0.3710	23743.41	3.5960	3.5960	-1.1246	7.19	1.20	-0.750			
0.3744	23961.21	3.5930	3.5929	-1.1235	7.20	1.21	-0.750			
0.3778	24176.69	3.5900	3.5902	-1.1322	7.21	1.22	-0.750			
0.3812	24395.61	3.5870	3.5869	-1.1333	7.22	1.23	-0.750	0.398	0.854	
0.3845	24610.72	3.5840	3.5838	-1.1478	7.22	1.23	-0.750			
0.3879	24828.39	3.5810	3.5811	-1.1576	7.23	1.24	-0.750			
0.3914	25052.58	3.5780	3.5780	-1.1841	7.23	1.24	-0.750			
0.3950	25280.73	3.5750	3.5750	-1.1971	7.24	1.25	-0.750			
0.3988	25521.23	3.5720	3.5720	-1.2098	7.26	1.27	-0.750			
0.4024	25753.10	3.5690	3.5691	-1.2114	7.27	1.28	-0.750			
0.4061	25988.25	3.5660	3.5660	-1.2178	7.28	1.29	-0.750			
0.4097	26220.34	3.5630	3.5629	-1.2112	7.28	1.29	-0.750			
0.4133	26450.80	3.5600	3.5600	-1.2155	7.29	1.30	-0.750			
0.4169	26682.83	3.5570	3.5569	-1.2201	7.29	1.30	-0.750			
0.4206	26919.71	3.5540	3.5541	-1.2345	7.30	1.31	-0.750			
0.4243	27157.69	3.5510	3.5510	-1.2441	7.30	1.31	-0.750			
0.4280	27394.55	3.5480	3.5480	-1.2683	7.31	1.32	-0.750			
0.4319	27640.13	3.5450	3.5450	-1.2916	7.32	1.33	-0.750			
0.4358	27894.26	3.5420	3.5419	-1.2935	7.34	1.35	-0.750			
0.4397	28143.35	3.5390	3.5392	-1.2984	7.35	1.36	-0.750			
0.4437	28397.60	3.5360	3.5361	-1.3038	7.36	1.37	-0.750			
0.4476	28645.16	3.5330	3.5329	-1.3025	7.36	1.37	-0.750			
0.4514	28889.30	3.5300	3.5300	-1.3050	7.37	1.38	-0.750			
0.4553	29140.96	3.5270	3.5270	-1.2970	7.38	1.39	-0.750			
0.4593	29392.53	3.5240	3.5239	-1.3069	7.39	1.40	-0.750			
0.4632	29645.74	3.5210	3.5211	-1.3179	7.39	1.40	-0.750			
0.4671	29897.08	3.5180	3.5180	-1.3193	7.40	1.41	-0.750			
0.4712	30154.79	3.5150	3.5149	-1.3218	7.41	1.42	-0.750			
0.4751	30408.47	3.5120	3.5119	-1.3103	7.42	1.43	-0.750			
0.4790	30657.90	3.5090	3.5091	-1.3057	7.43	1.44	-0.750			
0.4830	30913.16	3.5060	3.5060	-1.3043	7.44	1.45	-0.750			
0.4869	31162.50	3.5030	3.5029	-1.2853	7.45	1.46	-0.750			
0.4907	31404.38	3.5000	3.5002	-1.2744	7.46	1.47	-0.750			
0.4945	31647.96	3.4970	3.4970	-1.2756	7.47	1.48	-0.750			
0.4983	31891.10	3.4940	3.4940	-1.2910	7.49	1.50	-0.750			
0.5022	32138.91	3.4910	3.4910	-1.3027	7.50	1.51	-0.750			
0.5062	32393.89	3.4880	3.4879	-1.3131	7.51	1.52	-0.750			
0.5101	32649.16	3.4850	3.4850	-1.3086	7.52	1.53	-0.750			
0.5141	32901.91	3.4820	3.4821	-1.3179	7.53	1.54	-0.750			
0.5180	33153.97	3.4790	3.4789	-1.3068	7.54	1.55	-0.750			
0.5219	33404.28	3.4760	3.4758	-1.2922	7.55	1.56	-0.750			
0.5258	33649.26	3.4730	3.4730	-1.2780	7.56	1.57	-0.750			
0.5296	33893.78	3.4700	3.4701	-1.2677	7.58	1.59	-0.750			
0.5335	34142.17	3.4670	3.4669	-1.2647	7.59	1.60	-0.750			
0.5372	34381.85	3.4640	3.4639	-1.2477	7.60	1.61	-0.750			
0.5409	34615.03	3.4610	3.4610	-1.2291	7.61	1.62	-0.750			
0.5446	34852.46	3.4580	3.4581	-1.2289	7.62	1.63	-0.750			
0.5483	35089.23	3.4550	3.4549	-1.2178	7.64	1.65	-0.750			
0.5519	35319.29	3.4520	3.4520	-1.2148	7.65	1.66	-0.750			
0.5555	35551.47	3.4490	3.4490	-1.2122	7.66	1.67	-0.750			
0.5591	35783.50	3.4460	3.4459	-1.2122	7.67	1.68	-0.750			
0.5628	36017.54	3.4430	3.4429	-1.2055	7.68	1.69	-0.750			
0.5664	36251.03	3.4400	3.4401	-1.1933	7.69	1.70	-0.750			
0.5700	36481.68	3.4370	3.4370	-1.1842	7.71	1.72	-0.750			
0.5736	36707.99	3.4340	3.4340	-1.1671	7.72	1.73	-0.750			
0.5770	36925.54	3.4310	3.4310	-1.1435	7.74	1.75	-0.750			
0.5804	37144.89	3.4280	3.4280	-1.1381	7.75	1.76	-0.750			
0.5838	37363.26	3.4250	3.4249	-1.1231	7.77	1.78	-0.750			
0.5872	37578.83	3.4220	3.4220	-1.1106	7.78	1.79	-0.750			
0.5905	37789.73	3.4190	3.4193	-1.0955	7.80	1.81	-0.750			
0.5938	38000.52	3.4160	3.4158	-1.0781	7.81	1.82	-0.750			
0.5970	38207.21	3.4130	3.4130	-1.0542	7.82	1.83	-0.750			
0.6001	38403.29	3.4100	3.4099	-1.0288	7.83	1.84	-0.750			
0.6032	38602.09	3.4070	3.4072	-1.0169	7.84	1.85	-0.750			
0.6061	38793.57	3.4040	3.4040	-1.0071	7.86	1.87	-0.750			
0.6091	38983.26	3.4010	3.4009	-0.9914	7.87	1.88	-0.750			
0.6121	39173.10	3.3980	3.3979	-0.9806	7.88	1.89	-0.750			
0.6150	39360.23	3.3950	3.3952	-0.9784	7.90	1.91	-0.750			
0.6179	39547.64	3.3920	3.3920	-0.9703	7.91	1.92	-0.750			
0.6209	39735.08	3.3890	3.3890	-0.9508	7.93	1.94	-0.750			
0.6237	39917.44	3.3860	3.3860	-0.9297	7.94	1.95	-0.750			
0.6265	40095.45	3.3830	3.3829	-0.9078	7.95	1.96	-0.750			
0.6292	40267.67	3.3800	3.3801	-0.8776	7.97	1.98	-0.750			
0.6317	40431.60	3.3770	3.3769	-0.8502	7.98	1.99	-0.750			
0.6342	40589.38	3.3740	3.3740	-0.8219	8.00	2.01	-0.750			
0.6366	40744.08	3.3710	3.3710	-0.7984	8.02	2.03	-0.750			
0.6390	40896.83	3.3680	3.3678	-0.7851	8.03	2.04	-0.750			
0.6413	41045.23	3.3650	3.3651	-0.7698	8.04	2.05	-0.750			
0.6436	41191.48	3.3620	3.3619	-0.7549	8.06	2.07	-0.750			
0.6459	41335.77	3.3590	3.3591	-0.7436	8.07	2.08	-0.750			
0.6481	41475.93	3.3560	3.3559	-0.7236	8.08	2.09	-0.750			
0.6502	41614.53	3.3530	3.3530	-0.7163	8.09	2.10	-0.750			
0.6524	41751.59	3.3500	3.3501	-0.7024	8.10	2.11	-0.750			
0.6544	41884.80	3.3470	3.3469	-0.6833	8.11	2.12	-0.750			
0.6565	42014.89	3.3440	3.3440	-0.6681	8.13	2.14	-0.750			
0.6585	42141.07	3.3410	3.3412	-0.6572	8.14	2.15	-0.750			
0.6604	42265.07	3.3380	3.3379	-0.6420	8.16	2.17	-0.750			
0.6623	42388.32	3.3350	3.3349	-0.6312	8.18	2.19	-0.750			
0.6642	42507.89	3.3320	3.3319	-0.6162	8.19	2.20	-0.750			
0.6660	42626.04	3.3290	3.3291	-0.6062	8.20	2.21	-0.750			
0.6678	42741.06	3.3260	3.3259	-0.5952	8.22	2.23	-0.750			
0.6696	42853.32	3.3230	3.3230	-0.5800	8.23	2.24	-0.750			
0.6713	42963.02	3.3200	3.3199	-0.5620	8.24	2.25	-0.750			
0.6730	43071.35	3.3170	3.3170	-0.5506	8.25	2.26	-0.750			
0.6746	43176.11	3.3140	3.3140	-0.5368	8.26	2.27	-0.750			
0.6762	43277.00	3.3110	3.3110	-0.5266	8.27	2.28	-0.750			
0.6777	43375.50	3.3080	3.3080	-0.5153	8.28	2.29	-0.750			
0.6793	43472.71	3.3050	3.3049	-0.5061	8.29	2.30	-0.750			
0.6808	43569.34	3.3020	3.3021	-0.5013	8.30	2.31	-0.750			
0.6823	43666.20	3.2990	3.2990	-0.4922	8.32	2.33	-0.750			
0.6838	43760.77	3.2960	3.2959	-0.4830	8.33	2.34	-0.750			
0.6852	43851.55	3.2930	3.2931	-0.4747	8.34	2.35	-0.750			
0.6866	43941.37	3.2900	3.2900	-0.4658	8.35	2.36	-0.750			
0.6880	44030.11	3.2870	3.2869	-0.4560	8.36	2.37	-0.750			
0.6893	44116.65	3.2840	3.2839	-0.4508	8.37	2.38	-0.750			
0.6907	44202.46	3.2810	3.2812	-0.4423	8.38	2.39	-0.750			
0.6920	44287.48	3.2780	3.2779	-0.4361	8.40	2.41	-0.750			
0.6933	44370.69	3.2750	3.2750	-0.4265	8.41	2.42	-0.750			
0.6946	44451.34	3.2720	3.2721	-0.4169	8.42	2.43	-0.750			
0.6958	44530.51	3.2690	3.2690	-0.4095	8.43	2.44	-0.750			
0.6970	44608.28	3.2660	3.2659	-0.4015	8.45	2.46	-0.750			
0.6982	44683.18	3.2630	3.2630	-0.3918	8.46	2.47	-0.750			
0.6993	44758.19	3.2600	3.2600	-0.3867	8.47	2.48	-0.750			
0.7005	44831.69	3.2570	3.2570	-0.3808	8.48	2.49	-0.750			
0.7016	44904.63	3.2540	3.2539	-0.3769	8.49	2.50	-0.750			
0.7028	44976.07	3.2510	3.2510	-0.3712	8.50	2.51	-0.750			
0.7039	45046.77	3.2480	3.2480	-0.3675	8.51	2.52	-0.750			
0.7050	45117.23	3.2450	3.2451	-0.3634	8.52	2.53	-0.750			
0.7060	45186.73	3.2420	3.2419	-0.3590	8.53	2.54	-0.750			
0.7071	45254.47	3.2390	3.2390	-0.3542	8.54	2.55	-0.750			
0.7082	45322.20	3.2360	3.2360	-0.3497	8.55	2.56	-0.750			
0.7092	45389.25	3.2330	3.2329	-0.3431	8.56	2.57	-0.750			
0.7102	45455.32	3.2300	3.2300	-0.3379	8.57	2.58	-0.750			
0.7112	45519.27	3.2270	3.2271	-0.3322	8.58	2.59	-0.750			
0.7122	45583.03	3.2240	3.2240	-0.3255	8.59	2.60	-0.750			
0.7132	45644.61	3.2210	3.2209	-0.3194	8.60	2.61	-0.750			
0.7141	45703.72	3.2180	3.2181	-0.3155	8.61	2.62	-0.750			
0.7151	45764.43	3.2150	3.2150	-0.3120	8.63	2.64	-0.750			
0.7160	45824.56	3.2120	3.2118	-0.3097	8.64	2.65	-0.750			
0.7169	45883.05	3.2090	3.2091	-0.3056	8.65	2.66	-0.750			
0.7178	45941.75	3.2060	3.2062	-0.3022	8.66	2.67	-0.750			
0.7187	45999.72	3.2030	3.2029	-0.2986	8.67	2.68	-0.750			
0.7196	46056.41	3.2000	3.2000	-0.2940	8.68	2.69	-0.750			
0.7205	46112.23	3.1970	3.1971	-0.2901	8.69	2.70	-0.750			
0.7214	46168.16	3.1940	3.1940	-0.2880	8.70	2.71	-0.750			
0.7222	46222.88	3.1910	3.1909	-0.2834	8.71	2.72	-0.750			
0.7231	46276.63	3.1880	3.1881	-0.2797	8.72	2.73	-0.750			
0.7239	46330.51	3.1850	3.1850	-0.2767	8.73	2.74	-0.750			
0.7247	46383.24	3.1820	3.1820	-0.2743	8.74	2.75	-0.750			
0.7256	46435.47	3.1790	3.1790	-0.2715	8.74	2.75	-0.750			
0.7264	46487.12	3.1760	3.1760	-0.2674	8.75	2.76	-0.750			
0.7272	46538.10	3.1730	3.1728	-0.2649	8.76	2.77	-0.750			
0.7279	46588.41	3.1700	3.1701	-0.2638	8.77	2.78	-0.750			
0.7287	46639.09	3.1670	3.1670	-0.2616	8.78	2.79	-0.750			
0.7295	46689.00	3.1640	3.1638	-0.2590	8.79	2.80	-0.750			
0.7303	46739.04	3.1610	3.1611	-0.2557	8.80	2.81	-0.750			
0.7311	46787.70	3.1580	3.1581	-0.2529	8.81	2.82	-0.750			
0.7318	46836.25	3.1550	3.1551	-0.2509	8.82	2.83	-0.750			
0.7326	46883.50	3.1520	3.1519	-0.2468	8.83	2.84	-0.750			
0.7333	46930.03	3.1490	3.1490	-0.2438	8.84	2.85	-0.750			
0.7340	46976.96	3.1460	3.1460	-0.2429	8.85	2.86	-0.750			
0.7347	47023.82	3.1430	3.1430	-0.2407	8.86	2.87	-0.750			
0.7355	47069.78	3.1400	3.1400	-0.2396	8.87	2.88	-0.750			
0.7362	47115.42	3.1370	3.1370	-0.2369	8.87	2.88	-0.750			
0.7369	47160.87	3.1340	3.1340	-0.2340	8.88	2.89	-0.750			
0.7376	47205.30	3.1310	3.1309	-0.2329	8.89	2.90	-0.750			
0.7383	47249.89	3.1280	3.1280	-0.2305	8.90	2.91	-0.750			
0.7390	47293.82	3.1250	3.1251	-0.2286	8.90	2.91	-0.750			
0.7396	47337.59	3.1220	3.1219	-0.2273	8.91	2.92	-0.750			
0.7403	47381.29	3.1190	3.1191	-0.2262	8.92	2.93	-0.750			
0.7410	47424.20	3.1160	3.1160	-0.2239	8.93	2.94	-0.750			
0.7417	47467.13	3.1130	3.1129	-0.2224	8.94	2.95	-0.750			
0.7423	47510.17	3.1100	3.1100	-0.2208	8.95	2.96	-0.750			
0.7430	47551.86	3.1070	3.1070	-0.2180	8.96	2.97	-0.750			
0.7437	47594.01	3.1040	3.1040	-0.2172	8.97	2.98	-0.750			
0.7443	47635.25	3.1010	3.1010	-0.2163	8.98	2.99	-0.750			
0.7449	47676.31	3.0980	3.0980	-0.2148	8.99	3.00	-0.750			
0.7456	47717.44	3.0950	3.0950	-0.2136	9.00	3.01	-0.750			
0.7462	47758.76	3.0920	3.0920	-0.2115	9.01	3.02	-0.750			
0.7469	47799.33	3.0890	3.0890	-0.2102	9.02	3.03	-0.750			
0.7475	47839.83	3.0860	3.0860	-0.2087	9.02	3.03	-0.750			
0.7481	47879.49	3.0830	3.0830	-0.2071	9.03	3.04	-0.750			
0.7487	47919.10	3.0800	3.0799	-0.2051	9.04	3.05	-0.750			
0.7493	47958.12	3.0770	3.0769	-0.2026	9.05	3.06	-0.750			
0.7500	47996.86	3.0740	3.0741	-0.2009	9.06	3.07	-0.750			
0.7506	48035.35	3.0710	3.0711	-0.1994	9.07	3.08	-0.750			
0.7512	48073.84	3.0680	3.0679	-0.1977	9.08	3.09	-0.750			
0.7517	48110.74	3.0650	3.0651	-0.1958	9.09	3.10	-0.750			
0.7523	48148.30	3.0620	3.0620	-0.1951	9.10	3.11	-0.750			
0.7529	48185.37	3.0590	3.0590	-0.1941	9.11	3.12	-0.750			
0.7535	48222.79	3.0560	3.0559	-0.1934	9.12	3.13	-0.750			
0.7541	48259.85	3.0530	3.0531	-0.1933	9.13	3.14	-0.750			
0.7546	48296.92	3.0500	3.0500	-0.1929	9.14	3.15	-0.750			
0.7552	48334.07	3.0470	3.0470	-0.1912	9.15	3.16	-0.750			
0.7558	48370.98	3.0440	3.0439	-0.1899	9.16	3.17	-0.750			
0.7564	48406.92	3.0410	3.0411	-0.1878	9.17	3.18	-0.750			
0.7569	48443.07	3.0380	3.0381	-0.1869	9.18	3.19	-0.750			
0.7575	48478.59	3.0350	3.0349	-0.1865	9.19	3.20	-0.750			
0.7580	48514.10	3.0320	3.0320	-0.1860	9.20	3.21	-0.750			
0.7586	48549.59	3.0290	3.0290	-0.1845	9.21	3.22	-0.750			
0.7591	48585.35	3.0260	3.0260	-0.1833	9.22	3.23	-0.750			
0.7597	48620.87	3.0230	3.0230	-0.1825	9.23	3.24	-0.750			
0.7602	48655.85	3.0200	3.0200	-0.1823	9.23	3.24	-0.750			
0.7608	48690.65	3.0170	3.0171	-0.1810	9.24	3.25	-0.750			
0.7613	48725.25	3.0140	3.0137	-0.1799	9.25	3.26	-0.750			
0.7619	48759.34	3.0110	3.0110	-0.1787	9.26	3.27	-0.750			
0.7624	48793.45	3.0080	3.0081	-0.1784	9.27	3.28	-0.750			
0.7629	48827.79	3.0050	3.0049	-0.1778	9.28	3.29	-0.750			
0.7635	48861.69	3.0020	3.0020	-0.1710	9.29	3.30	-0.750			
