Ah_balance (normalized)	Ah_balance (mAh)	Voltage - fit (V)	Voltage -  interpolate (V)	dQ/dV (1/V)	Temperature (°C)	Temperature - diff (°C)	Current (C)	R_DC 0ms (mOhm)	R_DC 50ms (mOhm)	R_DC 50 ms PEC (mOhm)
0.0001	9.46	4.1120	4.1110	-0.0432	5.97	-0.01	-0.750			
0.0003	21.65	4.1090	4.1085	-0.0787	5.97	-0.01	-0.750			
0.0006	40.60	4.1060	4.1056	-0.1090	5.97	-0.01	-0.750			
0.0010	64.12	4.1030	4.1030	-0.1361	5.97	-0.01	-0.750			
0.0015	93.43	4.1000	4.1000	-0.1593	5.97	-0.01	-0.750			
0.0020	126.26	4.0970	4.0971	-0.1835	5.97	-0.01	-0.750			
0.0026	164.38	4.0940	4.0941	-0.2094	5.97	-0.01	-0.750			
0.0032	207.09	4.0910	4.0910	-0.2318	5.97	-0.01	-0.750			
0.0040	253.64	4.0880	4.0879	-0.2541	5.97	-0.01	-0.750			
0.0048	304.53	4.0850	4.0851	-0.2771	5.97	-0.01	-0.750			
0.0056	360.10	4.0820	4.0821	-0.3011	5.98	-0.00	-0.750			
0.0066	420.69	4.0790	4.0789	-0.3232	5.98	-0.00	-0.750			
0.0076	485.38	4.0760	4.0760	-0.3401	5.98	-0.00	-0.750			
0.0086	552.27	4.0730	4.0730	-0.3598	5.98	-0.00	-0.750			
0.0097	623.42	4.0700	4.0700	-0.3810	5.98	-0.00	-0.750			
0.0109	697.98	4.0670	4.0672	-0.4015	5.98	-0.00	-0.750			
0.0121	775.87	4.0640	4.0639	-0.4249	5.98	0.00	-0.750			
0.0134	858.57	4.0610	4.0611	-0.4501	5.98	0.00	-0.750			
0.0148	947.62	4.0580	4.0580	-0.4767	5.98	0.00	-0.750			
0.0163	1041.84	4.0550	4.0549	-0.5022	5.98	0.00	-0.750			
0.0178	1141.14	4.0520	4.0521	-0.5261	5.99	0.01	-0.750			
0.0195	1244.86	4.0490	4.0488	-0.5514	5.99	0.01	-0.750			
0.0212	1353.86	4.0460	4.0461	-0.5733	5.99	0.01	-0.750			
0.0229	1466.84	4.0430	4.0428	-0.5916	5.99	0.01	-0.750			
0.0247	1583.48	4.0400	4.0400	-0.6048	5.99	0.01	-0.750			
0.0266	1701.30	4.0370	4.0370	-0.6202	5.99	0.01	-0.750			
0.0285	1821.26	4.0340	4.0342	-0.6349	6.00	0.02	-0.750			
0.0304	1943.63	4.0310	4.0309	-0.6441	6.00	0.02	-0.750			
0.0323	2069.15	4.0280	4.0279	-0.6566	6.00	0.02	-0.750			
0.0343	2197.45	4.0250	4.0251	-0.6670	6.01	0.03	-0.750			
0.0364	2328.11	4.0220	4.0220	-0.6725	6.01	0.03	-0.750			
0.0384	2458.01	4.0190	4.0190	-0.6743	6.02	0.04	-0.750			
0.0404	2586.33	4.0160	4.0161	-0.6775	6.02	0.04	-0.750			
0.0424	2714.05	4.0130	4.0128	-0.6826	6.03	0.05	-0.750			
0.0445	2845.22	4.0100	4.0101	-0.6926	6.03	0.05	-0.750			
0.0465	2978.42	4.0070	4.0070	-0.7037	6.04	0.06	-0.750			
0.0487	3115.98	4.0040	4.0043	-0.7182	6.04	0.06	-0.750			
0.0509	3257.05	4.0010	4.0010	-0.7267	6.05	0.07	-0.750			
0.0531	3396.20	3.9980	3.9980	-0.7363	6.05	0.07	-0.750			
0.0553	3541.08	3.9950	3.9950	-0.7321	6.06	0.08	-0.750			
0.0575	3682.06	3.9920	3.9920	-0.7306	6.06	0.08	-0.750			
0.0597	3821.58	3.9890	3.9889	-0.7301	6.07	0.09	-0.750			
0.0619	3959.86	3.9860	3.9861	-0.7329	6.07	0.09	-0.750			
0.0641	4099.75	3.9830	3.9828	-0.7336	6.08	0.10	-0.750			
0.0662	4239.17	3.9800	3.9799	-0.7426	6.09	0.11	-0.750			
0.0685	4381.88	3.9770	3.9771	-0.7458	6.09	0.11	-0.750			
0.0708	4529.41	3.9740	3.9737	-0.7600	6.10	0.12	-0.750			
0.0731	4676.30	3.9710	3.9711	-0.7639	6.11	0.13	-0.750			
0.0754	4824.52	3.9680	3.9680	-0.7642	6.12	0.14	-0.750			
0.0777	4970.65	3.9650	3.9650	-0.7647	6.12	0.14	-0.750			
0.0800	5120.23	3.9620	3.9620	-0.7630	6.13	0.15	-0.750			
0.0822	5263.49	3.9590	3.9590	-0.7582	6.14	0.16	-0.750			
0.0845	5408.50	3.9560	3.9560	-0.7680	6.15	0.17	-0.750			
0.0868	5555.08	3.9530	3.9531	-0.7686	6.15	0.17	-0.750			
0.0891	5702.13	3.9500	3.9498	-0.7753	6.16	0.18	-0.750			
0.0915	5853.16	3.9470	3.9470	-0.7807	6.17	0.19	-0.750			
0.0938	6005.75	3.9440	3.9442	-0.7818	6.18	0.20	-0.750			
0.0962	6157.86	3.9410	3.9410	-0.7814	6.18	0.20	-0.750			
0.0985	6306.14	3.9380	3.9382	-0.7805	6.19	0.21	-0.750			
0.1009	6455.82	3.9350	3.9350	-0.7749	6.20	0.22	-0.750			
0.1032	6603.59	3.9320	3.9319	-0.7781	6.20	0.22	-0.750			
0.1055	6751.06	3.9290	3.9291	-0.7815	6.21	0.23	-0.750			
0.1079	6902.81	3.9260	3.9261	-0.7884	6.22	0.24	-0.750			
0.1102	7053.73	3.9230	3.9229	-0.7961	6.23	0.25	-0.750			
0.1126	7208.33	3.9200	3.9199	-0.8017	6.24	0.26	-0.750			
0.1150	7361.57	3.9170	3.9170	-0.8086	6.24	0.26	-0.750			
0.1175	7522.99	3.9140	3.9139	-0.8079	6.25	0.27	-0.750			
0.1199	7676.21	3.9110	3.9111	-0.8005	6.26	0.28	-0.750			
0.1223	7829.73	3.9080	3.9080	-0.7988	6.27	0.29	-0.750			
0.1247	7982.72	3.9050	3.9050	-0.7973	6.27	0.29	-0.750			
0.1271	8131.83	3.9020	3.9019	-0.7947	6.28	0.30	-0.750			
0.1294	8284.72	3.8990	3.8991	-0.8009	6.29	0.31	-0.750			
0.1319	8439.07	3.8960	3.8960	-0.8048	6.30	0.32	-0.750			
0.1343	8597.02	3.8930	3.8930	-0.8115	6.31	0.33	-0.750			
0.1368	8753.46	3.8900	3.8900	-0.8055	6.32	0.34	-0.750			
0.1392	8907.97	3.8870	3.8870	-0.8049	6.33	0.35	-0.750			
0.1416	9061.95	3.8840	3.8841	-0.8099	6.34	0.36	-0.750			
0.1440	9216.34	3.8810	3.8809	-0.8117	6.35	0.37	-0.750			
0.1464	9371.96	3.8780	3.8779	-0.8147	6.36	0.38	-0.750			
0.1489	9528.87	3.8750	3.8752	-0.8216	6.37	0.39	-0.750			
0.1514	9688.62	3.8720	3.8718	-0.8269	6.38	0.40	-0.750			
0.1539	9849.14	3.8690	3.8691	-0.8319	6.39	0.41	-0.750			
0.1564	10009.14	3.8660	3.8661	-0.8301	6.40	0.42	-0.750			
0.1589	10168.91	3.8630	3.8629	-0.8361	6.40	0.42	-0.750			
0.1614	10330.59	3.8600	3.8601	-0.8301	6.41	0.43	-0.750			
0.1639	10489.15	3.8570	3.8570	-0.8226	6.42	0.44	-0.750			
0.1663	10644.70	3.8540	3.8540	-0.8233	6.43	0.45	-0.750			
0.1688	10800.80	3.8510	3.8510	-0.8308	6.44	0.46	-0.750			
0.1712	10959.79	3.8480	3.8480	-0.8421	6.45	0.47	-0.750			
0.1738	11122.64	3.8450	3.8450	-0.8479	6.46	0.48	-0.750			
0.1763	11286.07	3.8420	3.8420	-0.8590	6.47	0.49	-0.750			
0.1790	11456.60	3.8390	3.8390	-0.8657	6.48	0.50	-0.750			
0.1816	11625.30	3.8360	3.8360	-0.8643	6.49	0.51	-0.750			
0.1842	11790.42	3.8330	3.8329	-0.8567	6.50	0.52	-0.750			
0.1868	11954.73	3.8300	3.8301	-0.8417	6.51	0.53	-0.750			
0.1893	12112.00	3.8270	3.8270	-0.8419	6.52	0.54	-0.750			
0.1918	12273.28	3.8240	3.8240	-0.8428	6.53	0.55	-0.750			
0.1943	12432.47	3.8210	3.8211	-0.8412	6.54	0.56	-0.750			
0.1968	12595.87	3.8180	3.8179	-0.8493	6.55	0.57	-0.750			
0.1994	12759.95	3.8150	3.8151	-0.8586	6.56	0.58	-0.750			
0.2020	12925.73	3.8120	3.8120	-0.8674	6.57	0.59	-0.750			
0.2046	13094.05	3.8090	3.8090	-0.8727	6.58	0.60	-0.750			
0.2072	13258.48	3.8060	3.8060	-0.8717	6.59	0.61	-0.750			
0.2098	13429.26	3.8030	3.8030	-0.8726	6.60	0.62	-0.750			
0.2125	13597.33	3.8000	3.7999	-0.8726	6.61	0.63	-0.750			
0.2151	13764.27	3.7970	3.7971	-0.8756	6.62	0.64	-0.750			
0.2177	13932.09	3.7940	3.7938	-0.8711	6.63	0.65	-0.750			
0.2203	14099.73	3.7910	3.7910	-0.8708	6.64	0.66	-0.750			
0.2229	14268.20	3.7880	3.7880	-0.8685	6.65	0.67	-0.750			
0.2255	14432.73	3.7850	3.7850	-0.8749	6.66	0.68	-0.750			
0.2282	14601.99	3.7820	3.7820	-0.8807	6.67	0.69	-0.750			
0.2308	14769.55	3.7790	3.7789	-0.8803	6.68	0.70	-0.750			
0.2334	14939.31	3.7760	3.7760	-0.8817	6.69	0.71	-0.750			
0.2361	15111.82	3.7730	3.7731	-0.8872	6.70	0.72	-0.750			
0.2388	15280.60	3.7700	3.7701	-0.8915	6.71	0.73	-0.750			
0.2415	15453.85	3.7670	3.7669	-0.8892	6.72	0.74	-0.750			
0.2441	15621.53	3.7640	3.7639	-0.8888	6.73	0.75	-0.750			
0.2467	15791.53	3.7610	3.7610	-0.8968	6.73	0.75	-0.750			
0.2495	15964.97	3.7580	3.7581	-0.9022	6.74	0.76	-0.750			
0.2522	16142.16	3.7550	3.7548	-0.9080	6.75	0.77	-0.750			
0.2550	16317.90	3.7520	3.7520	-0.8993	6.76	0.78	-0.750			
0.2576	16489.52	3.7490	3.7491	-0.8930	6.77	0.79	-0.750			
0.2603	16661.34	3.7460	3.7459	-0.8959	6.78	0.80	-0.750			
0.2629	16828.45	3.7430	3.7429	-0.8985	6.79	0.81	-0.750			
0.2656	17000.31	3.7400	3.7399	-0.9086	6.79	0.81	-0.750			
0.2684	17177.72	3.7370	3.7369	-0.9122	6.80	0.82	-0.750			
0.2712	17354.00	3.7340	3.7342	-0.9188	6.81	0.83	-0.750			
0.2740	17535.74	3.7310	3.7311	-0.9247	6.82	0.84	-0.750			
0.2767	17711.33	3.7280	3.7280	-0.9234	6.83	0.85	-0.750			
0.2795	17885.76	3.7250	3.7249	-0.9186	6.84	0.86	-0.750			
0.2822	18060.81	3.7220	3.7218	-0.9222	6.85	0.87	-0.750			
0.2850	18239.65	3.7190	3.7191	-0.9260	6.87	0.89	-0.750			
0.2878	18417.54	3.7160	3.7160	-0.9383	6.88	0.90	-0.750			
0.2906	18599.55	3.7130	3.7130	-0.9412	6.88	0.90	-0.750			
0.2935	18782.56	3.7100	3.7101	-0.9385	6.89	0.91	-0.750			
0.2962	18959.79	3.7070	3.7069	-0.9401	6.90	0.92	-0.750			
0.2991	19141.61	3.7040	3.7042	-0.9406	6.91	0.93	-0.750			
0.3019	19320.83	3.7010	3.7008	-0.9544	6.92	0.94	-0.750			
0.3048	19504.08	3.6980	3.6980	-0.9639	6.93	0.95	-0.750			
0.3076	19688.96	3.6950	3.6948	-0.9722	6.94	0.96	-0.750			
0.3106	19879.94	3.6920	3.6922	-0.9859	6.95	0.97	-0.750			
0.3136	20071.10	3.6890	3.6890	-0.9941	6.96	0.98	-0.750			
0.3166	20262.52	3.6860	3.6859	-0.9943	6.96	0.98	-0.750			
0.3196	20453.92	3.6830	3.6830	-1.0031	6.97	0.99	-0.750			
0.3225	20642.18	3.6800	3.6799	-1.0065	6.98	1.00	-0.750			
0.3256	20838.49	3.6770	3.6769	-1.0211	6.99	1.01	-0.750			
0.3287	21036.16	3.6740	3.6739	-1.0275	7.00	1.02	-0.750			
0.3318	21235.58	3.6710	3.6710	-1.0329	7.01	1.03	-0.750			
0.3349	21433.54	3.6680	3.6681	-1.0313	7.02	1.04	-0.750			
0.3380	21633.47	3.6650	3.6651	-1.0476	7.02	1.04	-0.750			
0.3412	21834.28	3.6620	3.6619	-1.0471	7.03	1.05	-0.750			
0.3443	22033.89	3.6590	3.6589	-1.0499	7.04	1.06	-0.750			
0.3474	22235.88	3.6560	3.6561	-1.0639	7.05	1.07	-0.750			
0.3507	22441.83	3.6530	3.6531	-1.0821	7.06	1.08	-0.750			
0.3540	22654.37	3.6500	3.6498	-1.0895	7.06	1.08	-0.750			
0.3573	22864.17	3.6470	3.6469	-1.0954	7.07	1.09	-0.750			
0.3605	23073.00	3.6440	3.6443	-1.1047	7.08	1.10	-0.750			
0.3639	23288.36	3.6410	3.6409	-1.1292	7.09	1.11	-0.750			
0.3673	23505.34	3.6380	3.6379	-1.1373	7.10	1.12	-0.750			
0.3706	23719.93	3.6350	3.6350	-1.1543	7.10	1.12	-0.750			
0.3741	23945.30	3.6320	3.6322	-1.1739	7.11	1.13	-0.750			
0.3778	24180.75	3.6290	3.6288	-1.1933	7.12	1.14	-0.750			
0.3814	24410.65	3.6260	3.6260	-1.1965	7.13	1.15	-0.750			
0.3850	24638.93	3.6230	3.6231	-1.2054	7.14	1.16	-0.750			
0.3886	24871.41	3.6200	3.6200	-1.2255	7.15	1.17	-0.750			
0.3923	25108.83	3.6170	3.6169	-1.2310	7.16	1.18	-0.750			
0.3960	25343.15	3.6140	3.6138	-1.2378	7.16	1.18	-0.750			
0.3998	25584.21	3.6110	3.6112	-1.2567	7.17	1.19	-0.750			
0.4036	25830.95	3.6080	3.6080	-1.2725	7.18	1.20	-0.750			
0.4074	26073.52	3.6050	3.6051	-1.2766	7.18	1.20	-0.750	0.418	0.992	
0.4112	26318.18	3.6020	3.6021	-1.2795	7.19	1.21	-0.750			
0.4151	26564.21	3.5990	3.5990	-1.2929	7.20	1.22	-0.750			
0.4189	26812.78	3.5960	3.5960	-1.3133	7.21	1.23	-0.750			
0.4229	27062.70	3.5930	3.5931	-1.3407	7.22	1.24	-0.750			
0.4270	27326.01	3.5900	3.5899	-1.3652	7.23	1.25	-0.750			
0.4311	27591.23	3.5870	3.5869	-1.3888	7.23	1.25	-0.750			
0.4353	27861.22	3.5840	3.5841	-1.4151	7.24	1.26	-0.750			
0.4397	28140.09	3.5810	3.5809	-1.4242	7.25	1.27	-0.750			
0.4440	28417.52	3.5780	3.5779	-1.4356	7.26	1.28	-0.750			
0.4483	28693.99	3.5750	3.5753	-1.4433	7.27	1.29	-0.750			
0.4526	28966.04	3.5720	3.5720	-1.4522	7.28	1.30	-0.750			
0.4570	29246.38	3.5690	3.5688	-1.4712	7.28	1.30	-0.750			
0.4614	29527.98	3.5660	3.5662	-1.4789	7.29	1.31	-0.750			
0.4659	29816.36	3.5630	3.5627	-1.4993	7.30	1.32	-0.750			
0.4704	30105.29	3.5600	3.5601	-1.5130	7.31	1.33	-0.750			
0.4749	30392.23	3.5570	3.5570	-1.5320	7.32	1.34	-0.750			
0.4796	30695.28	3.5540	3.5540	-1.5470	7.33	1.35	-0.750			
0.4842	30988.21	3.5510	3.5508	-1.5448	7.34	1.36	-0.750			
0.4889	31288.42	3.5480	3.5479	-1.5672	7.35	1.37	-0.750			
0.4936	31591.80	3.5450	3.5451	-1.5961	7.36	1.38	-0.750			
0.4984	31900.48	3.5420	3.5421	-1.5924	7.37	1.39	-0.750			
0.5031	32200.99	3.5390	3.5389	-1.6034	7.38	1.40	-0.750			
0.5080	32513.73	3.5360	3.5361	-1.6139	7.39	1.41	-0.750			
0.5130	32830.58	3.5330	3.5329	-1.6361	7.39	1.41	-0.750			
0.5179	33145.20	3.5300	3.5300	-1.6534	7.40	1.42	-0.750			
0.5228	33460.91	3.5270	3.5270	-1.6518	7.41	1.43	-0.750			
0.5278	33781.63	3.5240	3.5239	-1.6588	7.42	1.44	-0.750			
0.5327	34094.96	3.5210	3.5209	-1.6661	7.43	1.45	-0.750			
0.5377	34411.06	3.5180	3.5180	-1.6580	7.44	1.46	-0.750			
0.5427	34732.88	3.5150	3.5151	-1.6908	7.46	1.48	-0.750			
0.5478	35060.97	3.5120	3.5119	-1.6888	7.47	1.49	-0.750			
0.5530	35391.05	3.5090	3.5090	-1.7089	7.48	1.50	-0.750			
0.5581	35719.32	3.5060	3.5061	-1.6986	7.49	1.51	-0.750			
0.5633	36050.58	3.5030	3.5028	-1.6839	7.51	1.53	-0.750			
0.5683	36373.10	3.5000	3.5000	-1.6429	7.52	1.54	-0.750			
0.5732	36684.38	3.4970	3.4974	-1.6368	7.53	1.55	-0.750			
0.5780	36989.20	3.4940	3.4940	-1.6261	7.54	1.56	-0.750			
0.5828	37299.95	3.4910	3.4908	-1.6146	7.56	1.58	-0.750			
0.5875	37599.81	3.4880	3.4881	-1.6093	7.57	1.59	-0.750			
0.5924	37913.58	3.4850	3.4850	-1.6290	7.58	1.60	-0.750			
0.5973	38228.62	3.4820	3.4819	-1.6278	7.59	1.61	-0.750			
0.6023	38545.00	3.4790	3.4789	-1.6360	7.60	1.62	-0.750			
0.6071	38857.01	3.4760	3.4759	-1.6156	7.62	1.64	-0.750			
0.6120	39169.45	3.4730	3.4730	-1.6154	7.63	1.65	-0.750			
0.6169	39481.79	3.4700	3.4701	-1.5938	7.65	1.67	-0.750			
0.6217	39785.92	3.4670	3.4670	-1.5644	7.66	1.68	-0.750			
0.6263	40086.32	3.4640	3.4639	-1.5442	7.68	1.70	-0.750			
0.6309	40378.37	3.4610	3.4608	-1.5184	7.69	1.71	-0.750			
0.6354	40664.78	3.4580	3.4581	-1.4985	7.71	1.73	-0.750			
0.6399	40953.68	3.4550	3.4549	-1.4742	7.72	1.74	-0.750			
0.6443	41234.93	3.4520	3.4518	-1.4518	7.73	1.75	-0.750			
0.6487	41515.74	3.4490	3.4493	-1.4336	7.74	1.76	-0.750			
0.6529	41786.67	3.4460	3.4460	-1.4071	7.76	1.78	-0.750			
0.6571	42055.31	3.4430	3.4428	-1.3772	7.77	1.79	-0.750			
0.6612	42316.00	3.4400	3.4402	-1.3571	7.79	1.81	-0.750			
0.6652	42574.25	3.4370	3.4369	-1.3330	7.80	1.82	-0.750			
0.6692	42828.12	3.4340	3.4340	-1.2999	7.82	1.84	-0.750			
0.6730	43072.80	3.4310	3.4312	-1.2717	7.83	1.85	-0.750			
0.6768	43316.46	3.4280	3.4280	-1.2563	7.84	1.86	-0.750			
0.6805	43553.77	3.4250	3.4249	-1.2212	7.86	1.88	-0.750			
0.6842	43785.92	3.4220	3.4220	-1.1876	7.87	1.89	-0.750			
0.6876	44008.74	3.4190	3.4191	-1.1593	7.89	1.91	-0.750			
0.6911	44232.38	3.4160	3.4161	-1.1377	7.90	1.92	-0.750			
0.6945	44448.40	3.4130	3.4128	-1.1060	7.91	1.93	-0.750			
0.6977	44654.89	3.4100	3.4100	-1.0726	7.93	1.95	-0.750			
0.7009	44859.54	3.4070	3.4070	-1.0405	7.94	1.96	-0.750			
0.7040	45058.60	3.4040	3.4040	-1.0125	7.95	1.97	-0.750			
0.7070	45249.65	3.4010	3.4010	-0.9748	7.96	1.98	-0.750			
0.7099	45431.05	3.3980	3.3980	-0.9358	7.98	2.00	-0.750			
0.7126	45607.44	3.3950	3.3950	-0.9067	7.99	2.01	-0.750			
0.7153	45778.84	3.3920	3.3920	-0.8770	8.00	2.02	-0.750			
0.7178	45942.35	3.3890	3.3890	-0.8497	8.02	2.04	-0.750			
0.7204	46104.80	3.3860	3.3860	-0.8259	8.03	2.05	-0.750			
0.7228	46260.19	3.3830	3.3831	-0.8016	8.05	2.07	-0.750			
0.7252	46412.29	3.3800	3.3798	-0.7786	8.06	2.08	-0.750			
0.7275	46560.04	3.3770	3.3771	-0.7509	8.07	2.09	-0.750			
0.7297	46700.95	3.3740	3.3739	-0.7266	8.08	2.10	-0.750			
0.7319	46838.90	3.3710	3.3711	-0.7006	8.09	2.11	-0.750			
0.7339	46970.45	3.3680	3.3680	-0.6742	8.10	2.12	-0.750			
0.7359	47096.72	3.3650	3.3652	-0.6560	8.11	2.13	-0.750			
0.7378	47219.42	3.3620	3.3619	-0.6336	8.12	2.14	-0.750			
0.7397	47339.82	3.3590	3.3589	-0.6148	8.13	2.15	-0.750			
0.7415	47456.65	3.3560	3.3560	-0.5969	8.15	2.17	-0.750			
0.7433	47570.14	3.3530	3.3532	-0.5833	8.16	2.18	-0.750			
0.7450	47680.76	3.3500	3.3499	-0.5649	8.17	2.19	-0.750			
0.7467	47786.48	3.3470	3.3470	-0.5458	8.18	2.20	-0.750			
0.7483	47889.22	3.3440	3.3441	-0.5284	8.19	2.21	-0.750			
0.7498	47989.37	3.3410	3.3409	-0.5126	8.20	2.22	-0.750			
0.7514	48086.47	3.3380	3.3380	-0.4968	8.21	2.23	-0.750			
0.7528	48179.02	3.3350	3.3350	-0.4831	8.22	2.24	-0.750			
0.7542	48268.98	3.3320	3.3320	-0.4713	8.23	2.25	-0.750			
0.7556	48358.97	3.3290	3.3290	-0.4607	8.24	2.26	-0.750			
0.7570	48446.28	3.3260	3.3260	-0.4508	8.24	2.26	-0.750			
0.7583	48532.30	3.3230	3.3230	-0.4421	8.25	2.27	-0.750			
0.7596	48616.78	3.3200	3.3199	-0.4307	8.26	2.28	-0.750			
0.7609	48698.43	3.3170	3.3170	-0.4189	8.27	2.29	-0.750			
0.7621	48777.35	3.3140	3.3140	-0.4060	8.28	2.30	-0.750			
0.7633	48854.00	3.3110	3.3109	-0.3939	8.29	2.31	-0.750			
0.7645	48929.08	3.3080	3.3080	-0.3822	8.30	2.32	-0.750			
0.7656	49000.71	3.3050	3.3049	-0.3705	8.31	2.33	-0.750			
0.7667	49070.29	3.3020	3.3021	-0.3606	8.32	2.34	-0.750			
0.7678	49138.53	3.2990	3.2990	-0.3528	8.32	2.34	-0.750			
0.7688	49204.85	3.2960	3.2959	-0.3444	8.33	2.35	-0.750			
0.7699	49270.59	3.2930	3.2930	-0.3365	8.34	2.36	-0.750			
0.7709	49334.72	3.2900	3.2900	-0.3274	8.35	2.37	-0.750			
0.7718	49396.78	3.2870	3.2871	-0.3201	8.36	2.38	-0.750			
0.7728	49457.26	3.2840	3.2840	-0.3111	8.36	2.38	-0.750			
0.7737	49515.79	3.2810	3.2810	-0.3045	8.37	2.39	-0.750			
0.7746	49573.12	3.2780	3.2780	-0.2962	8.38	2.40	-0.750			
0.7755	49629.35	3.2750	3.2751	-0.2912	8.39	2.41	-0.750			
0.7763	49685.25	3.2720	3.2720	-0.2859	8.40	2.42	-0.750			
0.7772	49739.42	3.2690	3.2690	-0.2807	8.40	2.42	-0.750			
0.7780	49792.57	3.2660	3.2660	-0.2739	8.41	2.43	-0.750			
0.7788	49844.49	3.2630	3.2630	-0.2689	8.42	2.44	-0.750			
0.7796	49895.48	3.2600	3.2600	-0.2630	8.42	2.44	-0.750			
0.7804	49945.81	3.2570	3.2571	-0.2583	8.43	2.45	-0.750			
0.7812	49994.42	3.2540	3.2540	-0.2523	8.44	2.46	-0.750			
0.7819	50042.44	3.2510	3.2511	-0.2485	8.45	2.47	-0.750			
0.7826	50089.45	3.2480	3.2480	-0.2430	8.45	2.47	-0.750			
0.7834	50135.70	3.2450	3.2450	-0.2389	8.46	2.48	-0.750			
0.7841	50181.75	3.2420	3.2419	-0.2331	8.46	2.48	-0.750			
0.7848	50225.72	3.2390	3.2391	-0.2275	8.47	2.49	-0.750			
0.7854	50268.70	3.2360	3.2361	-0.2235	8.48	2.50	-0.750			
0.7861	50311.15	3.2330	3.2329	-0.2187	8.48	2.50	-0.750			
0.7868	50352.30	3.2300	3.2299	-0.2144	8.49	2.51	-0.750			
0.7874	50392.57	3.2270	3.2270	-0.2098	8.49	2.51	-0.750			
0.7880	50432.70	3.2240	3.2240	-0.2068	8.50	2.52	-0.750			
0.7886	50472.12	3.2210	3.2211	-0.2038	8.51	2.53	-0.750			
0.7892	50511.28	3.2180	3.2180	-0.2014	8.51	2.53	-0.750			
0.7898	50549.32	3.2150	3.2149	-0.1981	8.52	2.54	-0.750			
0.7904	50586.96	3.2120	3.2120	-0.1946	8.53	2.55	-0.750			
0.7910	50624.08	3.2090	3.2090	-0.1921	8.53	2.55	-0.750			
0.7916	50660.74	3.2060	3.2060	-0.1898	8.54	2.56	-0.750			
0.7921	50697.16	3.2030	3.2030	-0.1870	8.55	2.57	-0.750			
0.7927	50732.91	3.2000	3.2000	-0.1840	8.55	2.57	-0.750			
0.7932	50767.92	3.1970	3.1970	-0.1806	8.56	2.58	-0.750			
0.7938	50802.27	3.1940	3.1941	-0.1772	8.56	2.58	-0.750			
0.7943	50835.78	3.1910	3.1911	-0.1744	8.57	2.59	-0.750			
0.7948	50868.67	3.1880	3.1880	-0.1721	8.58	2.60	-0.750			
0.7953	50901.54	3.1850	3.1850	-0.1702	8.58	2.60	-0.750			
0.7958	50933.70	3.1820	3.1819	-0.1679	8.59	2.61	-0.750			
0.7963	50966.04	3.1790	3.1790	-0.1658	8.59	2.61	-0.750			
0.7968	50997.71	3.1760	3.1761	-0.1643	8.59	2.61	-0.750			
0.7973	51029.05	3.1730	3.1730	-0.1621	8.59	2.61	-0.750			
0.7978	51060.20	3.1700	3.1700	-0.1598	8.60	2.62	-0.750			
0.7983	51090.29	3.1670	3.1669	-0.1577	8.60	2.62	-0.750			
0.7988	51120.25	3.1640	3.1640	-0.1554	8.60	2.62	-0.750			
0.7992	51149.96	3.1610	3.1611	-0.1540	8.61	2.63	-0.750			
0.7997	51179.48	3.1580	3.1579	-0.1520	8.62	2.64	-0.750			
0.8001	51208.75	3.1550	3.1550	-0.1499	8.62	2.64	-0.750			
0.8006	51237.25	3.1520	3.1520	-0.1473	8.63	2.65	-0.750			
0.8010	51265.30	3.1490	3.1490	-0.1449	8.63	2.65	-0.750			
0.8015	51293.12	3.1460	3.1460	-0.1424	8.64	2.66	-0.750			
0.8019	51319.79	3.1430	3.1430	-0.1399	8.65	2.67	-0.750			
0.8023	51346.22	3.1400	3.1400	-0.1382	8.65	2.67	-0.750			
0.8027	51372.64	3.1370	3.1370	-0.1370	8.66	2.68	-0.750			
0.8031	51398.62	3.1340	3.1339	-0.1357	8.66	2.68	-0.750			
0.8035	51424.80	3.1310	3.1310	-0.1342	8.67	2.69	-0.750			
0.8039	51450.53	3.1280	3.1280	-0.1330	8.67	2.69	-0.750			
0.8043	51475.86	3.1250	3.1250	-0.1315	8.68	2.70	-0.750			
0.8047	51500.95	3.1220	3.1221	-0.1308	8.68	2.70	-0.750			
0.8051	51525.74	3.1190	3.1190	-0.1292	8.69	2.71	-0.750			
0.8055	51550.46	3.1160	3.1159	-0.1274	8.69	2.71	-0.750			
0.8059	51574.97	3.1130	3.1129	-0.1259	8.70	2.72	-0.750			
0.8062	51599.06	3.1100	3.1100	-0.1245	8.70	2.72	-0.750			
0.8066	51622.80	3.1070	3.1071	-0.1231	8.71	2.73	-0.750			
0.8070	51646.58	3.1040	3.1040	-0.1220	8.71	2.73	-0.750			
0.8073	51669.45	3.1010	3.1010	-0.1202	8.72	2.74	-0.750			
0.8077	51692.42	3.0980	3.0980	-0.1190	8.72	2.74	-0.750			
0.8080	51714.75	3.0950	3.0949	-0.1177	8.73	2.75	-0.750			
0.8084	51737.40	3.0920	3.0920	-0.1170	8.73	2.75	-0.750			
0.8087	51759.78	3.0890	3.0890	-0.1162	8.74	2.76	-0.750			
0.8091	51782.33	3.0860	3.0860	-0.1145	8.74	2.76	-0.750			
0.8094	51804.14	3.0830	3.0830	-0.1127	8.75	2.77	-0.750			
0.8098	51825.62	3.0800	3.0801	-0.1118	8.75	2.77	-0.750			
0.8101	51846.79	3.0770	3.0771	-0.1106	8.76	2.78	-0.750			
0.8104	51867.73	3.0740	3.0739	-0.1091	8.76	2.78	-0.750			
0.8108	51888.59	3.0710	3.0709	-0.1082	8.77	2.79	-0.750			
0.8111	51908.95	3.0680	3.0681	-0.1075	8.77	2.79	-0.750			
0.8114	51929.59	3.0650	3.0650	-0.1074	8.78	2.80	-0.750			
0.8117	51950.57	3.0620	3.0619	-0.1067	8.78	2.80	-0.750			
0.8120	51970.95	3.0590	3.0590	-0.1056	8.78	2.80	-0.750			
0.8124	51991.00	3.0560	3.0561	-0.1050	8.79	2.81	-0.750			
0.8127	52011.10	3.0530	3.0531	-0.1044	8.79	2.81	-0.750			
0.8130	52031.16	3.0500	3.0499	-0.1036	8.80	2.82	-0.750			
0.8133	52050.97	3.0470	3.0469	-0.1028	8.80	2.82	-0.750			
0.8136	52070.52	3.0440	3.0440	-0.1016	8.81	2.83	-0.750			
0.8139	52089.95	3.0410	3.0411	-0.1008	8.81	2.83	-0.750			
0.8142	52109.47	3.0380	3.0380	-0.1003	8.81	2.83	-0.750			
0.8145	52128.62	3.0350	3.0350	-0.0991	8.82	2.84	-0.750			
0.8148	52147.39	3.0320	3.0320	-0.0979	8.82	2.84	-0.750			
0.8151	52166.10	3.0290	3.0290	-0.0970	8.83	2.85	-0.750			
0.8154	52184.69	3.0260	3.0260	-0.0961	8.83	2.85	-0.750			
0.8157	52203.04	3.0230	3.0230	-0.0951	8.83	2.85	-0.750			
0.8160	52221.08	3.0200	3.0200	-0.0945	8.84	2.86	-0.750			
0.8162	52239.15	3.0170	3.0170	-0.0938	8.84	2.86	-0.750			
0.8165	52256.88	3.0140	3.0140	-0.0934	8.85	2.87	-0.750			
0.8168	52274.80	3.0110	3.0109	-0.0933	8.85	2.87	-0.750			
0.8171	52292.56	3.0080	3.0079	-0.0934	8.85	2.87	-0.750			
0.8174	52310.52	3.0050	3.0051	-0.0937	8.86	2.88	-0.750			
0.8176	52328.55	3.0020	3.0021	-0.0939	8.86	2.88	-0.750			
