Ah_balance (normalized)	Ah_balance (mAh)	Voltage - fit (V)	Voltage -  interpolate (V)	dQ/dV (1/V)	Temperature (°C)	Temperature - diff (°C)	Current (C)	R_DC 0ms (mOhm)	R_DC 50ms (mOhm)	R_DC 50 ms PEC (mOhm)
0.0000	0.00	4.0980	4.1227	0.0000	5.98	0.00	-0.750			
0.0002	13.15	4.0950	4.0942	-0.0433	5.98	0.00	-0.750			
0.0004	26.00	4.0920	4.0912	-0.0721	5.98	0.00	-0.750			
0.0007	42.40	4.0890	4.0887	-0.0987	5.98	0.00	-0.750			
0.0010	64.04	4.0860	4.0859	-0.1249	5.98	0.00	-0.750			
0.0014	90.97	4.0830	4.0831	-0.1489	5.98	0.00	-0.750			
0.0019	122.24	4.0800	4.0799	-0.1714	5.98	0.00	-0.750			
0.0025	159.44	4.0770	4.0770	-0.1961	5.98	0.00	-0.750			
0.0031	198.44	4.0740	4.0741	-0.2191	5.98	0.00	-0.750			
0.0038	241.72	4.0710	4.0711	-0.2423	5.98	0.00	-0.750			
0.0045	290.68	4.0680	4.0680	-0.2651	5.98	0.00	-0.750			
0.0054	343.45	4.0650	4.0649	-0.2919	5.98	0.00	-0.750			
0.0063	401.60	4.0620	4.0620	-0.3161	5.98	0.00	-0.750			
0.0073	465.27	4.0590	4.0591	-0.3408	5.98	0.00	-0.750			
0.0083	534.13	4.0560	4.0558	-0.3614	5.98	0.00	-0.750			
0.0095	605.58	4.0530	4.0532	-0.3815	5.98	0.00	-0.750			
0.0106	681.34	4.0500	4.0500	-0.4018	5.98	0.00	-0.750			
0.0119	759.87	4.0470	4.0468	-0.4220	5.98	0.00	-0.750			
0.0132	841.96	4.0440	4.0440	-0.4409	5.98	0.00	-0.750			
0.0145	929.02	4.0410	4.0411	-0.4610	5.98	0.00	-0.750			
0.0159	1019.89	4.0380	4.0379	-0.4833	5.98	0.00	-0.750			
0.0174	1114.13	4.0350	4.0351	-0.5075	5.98	0.00	-0.750			
0.0190	1213.31	4.0320	4.0320	-0.5264	5.98	0.00	-0.750			
0.0206	1317.08	4.0290	4.0289	-0.5452	5.98	0.00	-0.750			
0.0223	1424.41	4.0260	4.0260	-0.5620	5.98	0.00	-0.750			
0.0240	1534.11	4.0230	4.0232	-0.5826	5.98	0.00	-0.750			
0.0258	1649.24	4.0200	4.0199	-0.5989	5.98	0.00	-0.750			
0.0276	1766.02	4.0170	4.0169	-0.6051	5.98	0.00	-0.750			
0.0294	1884.48	4.0140	4.0140	-0.6100	5.99	0.01	-0.750			
0.0313	2003.46	4.0110	4.0111	-0.6211	5.99	0.01	-0.750			
0.0332	2122.37	4.0080	4.0079	-0.6254	5.99	0.01	-0.750			
0.0350	2240.95	4.0050	4.0051	-0.6331	5.99	0.01	-0.750			
0.0369	2361.25	4.0020	4.0020	-0.6431	6.00	0.02	-0.750			
0.0389	2487.01	3.9990	3.9989	-0.6562	6.00	0.02	-0.750			
0.0409	2616.64	3.9960	3.9960	-0.6703	6.01	0.03	-0.750			
0.0429	2747.47	3.9930	3.9930	-0.6786	6.01	0.03	-0.750			
0.0450	2880.30	3.9900	3.9899	-0.6798	6.02	0.04	-0.750			
0.0471	3011.68	3.9870	3.9871	-0.6842	6.02	0.04	-0.750			
0.0491	3140.18	3.9840	3.9840	-0.6899	6.03	0.05	-0.750			
0.0511	3272.71	3.9810	3.9810	-0.6991	6.03	0.05	-0.750			
0.0532	3406.33	3.9780	3.9778	-0.7012	6.04	0.06	-0.750			
0.0554	3544.19	3.9750	3.9750	-0.7193	6.04	0.06	-0.750			
0.0576	3685.14	3.9720	3.9721	-0.7237	6.05	0.07	-0.750			
0.0598	3825.75	3.9690	3.9690	-0.7272	6.05	0.07	-0.750			
0.0620	3964.81	3.9660	3.9659	-0.7297	6.06	0.08	-0.750			
0.0641	4105.38	3.9630	3.9630	-0.7316	6.06	0.08	-0.750			
0.0664	4246.56	3.9600	3.9599	-0.7340	6.07	0.09	-0.750			
0.0686	4389.75	3.9570	3.9570	-0.7287	6.07	0.09	-0.750			
0.0708	4529.37	3.9540	3.9540	-0.7241	6.08	0.10	-0.750			
0.0729	4667.19	3.9510	3.9509	-0.7250	6.08	0.10	-0.750			
0.0751	4803.25	3.9480	3.9481	-0.7199	6.09	0.11	-0.750			
0.0772	4939.34	3.9450	3.9449	-0.7296	6.10	0.12	-0.750			
0.0794	5081.92	3.9420	3.9418	-0.7323	6.11	0.13	-0.750			
0.0816	5224.91	3.9390	3.9391	-0.7440	6.11	0.13	-0.750			
0.0839	5371.17	3.9360	3.9364	-0.7450	6.12	0.14	-0.750			
0.0862	5517.04	3.9330	3.9329	-0.7405	6.13	0.15	-0.750			
0.0884	5656.58	3.9300	3.9300	-0.7420	6.13	0.15	-0.750			
0.0905	5794.56	3.9270	3.9272	-0.7370	6.14	0.16	-0.750			
0.0928	5937.15	3.9240	3.9238	-0.7436	6.15	0.17	-0.750			
0.0950	6079.46	3.9210	3.9209	-0.7482	6.16	0.18	-0.750			
0.0972	6222.85	3.9180	3.9180	-0.7483	6.16	0.18	-0.750			
0.0995	6368.16	3.9150	3.9151	-0.7596	6.17	0.19	-0.750			
0.1018	6515.99	3.9120	3.9120	-0.7653	6.18	0.20	-0.750			
0.1041	6661.55	3.9090	3.9090	-0.7609	6.18	0.20	-0.750			
0.1064	6810.39	3.9060	3.9059	-0.7616	6.19	0.21	-0.750			
0.1087	6954.95	3.9030	3.9031	-0.7643	6.20	0.22	-0.750			
0.1109	7100.67	3.9000	3.9000	-0.7641	6.21	0.23	-0.750			
0.1132	7246.71	3.8970	3.8968	-0.7697	6.21	0.23	-0.750			
0.1155	7394.27	3.8940	3.8941	-0.7699	6.22	0.24	-0.750			
0.1179	7542.71	3.8910	3.8908	-0.7736	6.23	0.25	-0.750			
0.1202	7694.73	3.8880	3.8880	-0.7772	6.24	0.26	-0.750			
0.1226	7844.16	3.8850	3.8851	-0.7764	6.24	0.26	-0.750			
0.1248	7990.32	3.8820	3.8820	-0.7756	6.25	0.27	-0.750			
0.1272	8140.26	3.8790	3.8789	-0.7807	6.26	0.28	-0.750			
0.1295	8288.12	3.8760	3.8760	-0.7808	6.27	0.29	-0.750			
0.1319	8439.73	3.8730	3.8730	-0.7857	6.27	0.29	-0.750			
0.1343	8593.49	3.8700	3.8701	-0.7848	6.28	0.30	-0.750			
0.1366	8744.41	3.8670	3.8671	-0.7830	6.29	0.31	-0.750			
0.1390	8894.08	3.8640	3.8640	-0.7796	6.30	0.32	-0.750			
0.1413	9043.44	3.8610	3.8609	-0.7736	6.30	0.32	-0.750			
0.1436	9189.18	3.8580	3.8580	-0.7741	6.31	0.33	-0.750			
0.1459	9336.06	3.8550	3.8551	-0.7833	6.32	0.34	-0.750			
0.1483	9488.32	3.8520	3.8519	-0.7880	6.33	0.35	-0.750			
0.1506	9640.99	3.8490	3.8489	-0.7934	6.34	0.36	-0.750			
0.1530	9794.26	3.8460	3.8460	-0.7897	6.35	0.37	-0.750			
0.1554	9945.95	3.8430	3.8432	-0.7936	6.36	0.38	-0.750			
0.1578	10100.33	3.8400	3.8399	-0.7966	6.37	0.39	-0.750			
0.1602	10250.53	3.8370	3.8367	-0.7994	6.37	0.39	-0.750			
0.1625	10400.39	3.8340	3.8341	-0.8031	6.38	0.40	-0.750			
0.1650	10559.36	3.8310	3.8311	-0.8075	6.39	0.41	-0.750			
0.1675	10716.97	3.8280	3.8279	-0.8145	6.40	0.42	-0.750			
0.1699	10875.20	3.8250	3.8250	-0.8120	6.41	0.43	-0.750			
0.1723	11030.34	3.8220	3.8219	-0.8011	6.42	0.44	-0.750			
0.1747	11182.37	3.8190	3.8190	-0.7994	6.43	0.45	-0.750			
0.1771	11331.36	3.8160	3.8161	-0.7988	6.44	0.46	-0.750			
0.1794	11484.31	3.8130	3.8131	-0.8030	6.45	0.47	-0.750			
0.1819	11641.30	3.8100	3.8098	-0.8136	6.45	0.47	-0.750			
0.1843	11797.85	3.8070	3.8071	-0.8136	6.46	0.48	-0.750			
0.1868	11956.26	3.8040	3.8040	-0.8217	6.47	0.49	-0.750			
0.1893	12116.83	3.8010	3.8010	-0.8278	6.48	0.50	-0.750			
0.1918	12275.57	3.7980	3.7979	-0.8190	6.49	0.51	-0.750			
0.1942	12431.28	3.7950	3.7949	-0.8092	6.50	0.52	-0.750			
0.1966	12585.46	3.7920	3.7922	-0.8154	6.51	0.53	-0.750			
0.1991	12740.93	3.7890	3.7890	-0.8162	6.52	0.54	-0.750			
0.2015	12897.71	3.7860	3.7859	-0.8216	6.53	0.55	-0.750			
0.2040	13054.98	3.7830	3.7829	-0.8225	6.53	0.55	-0.750			
0.2065	13214.35	3.7800	3.7801	-0.8339	6.54	0.56	-0.750			
0.2090	13377.39	3.7770	3.7772	-0.8356	6.55	0.57	-0.750			
0.2116	13540.15	3.7740	3.7739	-0.8342	6.56	0.58	-0.750			
0.2140	13697.93	3.7710	3.7709	-0.8314	6.57	0.59	-0.750			
0.2165	13857.01	3.7680	3.7681	-0.8267	6.57	0.59	-0.750			
0.2190	14016.10	3.7650	3.7649	-0.8282	6.58	0.60	-0.750			
0.2214	14172.38	3.7620	3.7623	-0.8255	6.59	0.61	-0.750			
0.2239	14328.96	3.7590	3.7589	-0.8247	6.60	0.62	-0.750			
0.2264	14489.34	3.7560	3.7561	-0.8340	6.61	0.63	-0.750			
0.2289	14650.50	3.7530	3.7528	-0.8368	6.63	0.65	-0.750			
0.2314	14812.68	3.7500	3.7501	-0.8464	6.64	0.66	-0.750			
0.2340	14976.40	3.7470	3.7472	-0.8521	6.65	0.67	-0.750			
0.2366	15139.77	3.7440	3.7439	-0.8538	6.66	0.68	-0.750			
0.2391	15303.93	3.7410	3.7409	-0.8616	6.66	0.68	-0.750			
0.2417	15470.48	3.7380	3.7380	-0.8572	6.67	0.69	-0.750			
0.2443	15637.28	3.7350	3.7349	-0.8620	6.67	0.69	-0.750			
0.2469	15802.49	3.7320	3.7321	-0.8506	6.68	0.70	-0.750			
0.2494	15964.17	3.7290	3.7291	-0.8462	6.69	0.71	-0.750			
0.2519	16124.46	3.7260	3.7259	-0.8485	6.70	0.72	-0.750			
0.2545	16285.73	3.7230	3.7230	-0.8521	6.71	0.73	-0.750			
0.2570	16448.42	3.7200	3.7199	-0.8650	6.72	0.74	-0.750			
0.2596	16616.23	3.7170	3.7171	-0.8795	6.73	0.75	-0.750			
0.2623	16787.42	3.7140	3.7141	-0.8907	6.74	0.76	-0.750			
0.2650	16961.77	3.7110	3.7109	-0.8953	6.74	0.76	-0.750			
0.2677	17134.34	3.7080	3.7080	-0.8953	6.75	0.77	-0.750			
0.2704	17307.19	3.7050	3.7051	-0.8975	6.76	0.78	-0.750			
0.2731	17478.54	3.7020	3.7018	-0.9030	6.77	0.79	-0.750			
0.2758	17651.30	3.6990	3.6990	-0.9064	6.78	0.80	-0.750			
0.2785	17826.61	3.6960	3.6960	-0.9137	6.79	0.81	-0.750			
0.2813	18003.15	3.6930	3.6930	-0.9212	6.80	0.82	-0.750			
0.2841	18181.86	3.6900	3.6901	-0.9263	6.81	0.83	-0.750			
0.2869	18359.07	3.6870	3.6870	-0.9339	6.82	0.84	-0.750			
0.2897	18540.50	3.6840	3.6840	-0.9280	6.82	0.84	-0.750			
0.2925	18718.78	3.6810	3.6810	-0.9229	6.83	0.85	-0.750			
0.2952	18895.85	3.6780	3.6780	-0.9294	6.84	0.86	-0.750			
0.2980	19072.37	3.6750	3.6750	-0.9356	6.85	0.87	-0.750			
0.3008	19250.27	3.6720	3.6719	-0.9466	6.85	0.87	-0.750			
0.3036	19433.54	3.6690	3.6690	-0.9558	6.86	0.88	-0.750			
0.3065	19618.19	3.6660	3.6660	-0.9660	6.87	0.89	-0.750			
0.3095	19807.95	3.6630	3.6631	-0.9803	6.88	0.90	-0.750			
0.3125	19999.09	3.6600	3.6599	-0.9842	6.89	0.91	-0.750			
0.3154	20187.70	3.6570	3.6570	-0.9829	6.90	0.92	-0.750			
0.3183	20374.18	3.6540	3.6540	-0.9892	6.90	0.92	-0.750			
0.3213	20565.54	3.6510	3.6510	-0.9976	6.91	0.93	-0.750			
0.3243	20757.04	3.6480	3.6479	-1.0159	6.92	0.94	-0.750			
0.3274	20954.24	3.6450	3.6450	-1.0187	6.92	0.94	-0.750			
0.3305	21151.78	3.6420	3.6419	-1.0214	6.93	0.95	-0.750			
0.3336	21350.24	3.6390	3.6390	-1.0235	6.94	0.96	-0.750			
0.3367	21547.18	3.6360	3.6361	-1.0350	6.94	0.96	-0.750			
0.3398	21744.69	3.6330	3.6330	-1.0383	6.95	0.97	-0.750			
0.3429	21943.33	3.6300	3.6299	-1.0435	6.95	0.97	-0.750			
0.3460	22143.28	3.6270	3.6271	-1.0516	6.96	0.98	-0.750			
0.3492	22349.24	3.6240	3.6240	-1.0713	6.97	0.99	-0.750			
0.3525	22557.72	3.6210	3.6210	-1.0792	6.98	1.00	-0.750			
0.3557	22764.77	3.6180	3.6179	-1.0805	6.99	1.01	-0.750			
0.3589	22968.50	3.6150	3.6154	-1.0969	7.00	1.02	-0.750			
0.3622	23183.96	3.6120	3.6119	-1.1027	7.01	1.03	-0.750			
0.3656	23397.64	3.6090	3.6089	-1.1048	7.01	1.03	-0.750			
0.3689	23607.97	3.6060	3.6060	-1.1102	7.02	1.04	-0.750			
0.3722	23822.00	3.6030	3.6032	-1.1303	7.02	1.04	-0.750			
0.3756	24037.14	3.6000	3.5999	-1.1547	7.03	1.05	-0.750			
0.3791	24260.33	3.5970	3.5967	-1.1694	7.04	1.06	-0.750			
0.3826	24487.93	3.5940	3.5940	-1.1800	7.05	1.07	-0.750			
0.3863	24723.05	3.5910	3.5909	-1.1979	7.06	1.08	-0.750	0.392	0.885	
0.3900	24957.87	3.5880	3.5880	-1.2019	7.06	1.08	-0.750			
0.3935	25186.70	3.5850	3.5849	-1.1879	7.07	1.09	-0.750			
0.3970	25405.95	3.5820	3.5822	-1.1844	7.08	1.10	-0.750			
0.4005	25632.07	3.5790	3.5788	-1.1967	7.09	1.11	-0.750			
0.4041	25861.56	3.5760	3.5760	-1.2051	7.10	1.12	-0.750			
0.4077	26094.21	3.5730	3.5729	-1.2247	7.11	1.13	-0.750			
0.4115	26333.76	3.5700	3.5700	-1.2449	7.11	1.13	-0.750			
0.4152	26573.36	3.5670	3.5670	-1.2578	7.12	1.14	-0.750			
0.4190	26813.88	3.5640	3.5639	-1.2721	7.13	1.15	-0.750			
0.4228	27058.04	3.5610	3.5610	-1.2795	7.13	1.15	-0.750			
0.4267	27309.59	3.5580	3.5580	-1.2876	7.14	1.16	-0.750			
0.4306	27557.80	3.5550	3.5550	-1.2983	7.15	1.17	-0.750			
0.4345	27808.90	3.5520	3.5522	-1.3033	7.16	1.18	-0.750			
0.4384	28059.59	3.5490	3.5490	-1.3129	7.17	1.19	-0.750			
0.4424	28311.67	3.5460	3.5459	-1.3103	7.19	1.21	-0.750			
0.4463	28564.74	3.5430	3.5431	-1.3125	7.20	1.22	-0.750			
0.4503	28817.91	3.5400	3.5400	-1.3154	7.21	1.23	-0.750			
0.4542	29068.39	3.5370	3.5371	-1.3252	7.21	1.23	-0.750			
0.4581	29320.28	3.5340	3.5340	-1.3349	7.22	1.24	-0.750			
0.4622	29581.74	3.5310	3.5308	-1.3447	7.23	1.25	-0.750			
0.4663	29841.49	3.5280	3.5279	-1.3375	7.23	1.25	-0.750			
0.4703	30102.32	3.5250	3.5251	-1.3437	7.24	1.26	-0.750			
0.4743	30356.98	3.5220	3.5220	-1.3459	7.25	1.27	-0.750			
0.4783	30614.08	3.5190	3.5189	-1.3445	7.26	1.28	-0.750			
0.4823	30867.13	3.5160	3.5160	-1.3582	7.27	1.29	-0.750			
0.4863	31125.88	3.5130	3.5131	-1.3766	7.29	1.31	-0.750			
0.4907	31401.95	3.5100	3.5099	-1.3953	7.30	1.32	-0.750			
0.4949	31673.03	3.5070	3.5070	-1.3840	7.31	1.33	-0.750			
0.4991	31939.85	3.5040	3.5042	-1.3712	7.32	1.34	-0.750			
0.5031	32200.99	3.5010	3.5011	-1.3558	7.33	1.35	-0.750			
0.5071	32456.69	3.4980	3.4978	-1.3517	7.34	1.36	-0.750			
0.5111	32711.27	3.4950	3.4948	-1.3365	7.35	1.37	-0.750			
0.5151	32967.10	3.4920	3.4921	-1.3374	7.35	1.37	-0.750			
0.5191	33225.24	3.4890	3.4890	-1.3620	7.36	1.38	-0.750			
0.5233	33488.43	3.4860	3.4859	-1.3575	7.38	1.40	-0.750			
0.5274	33752.58	3.4830	3.4829	-1.3615	7.39	1.41	-0.750			
0.5315	34014.16	3.4800	3.4799	-1.3536	7.40	1.42	-0.750			
0.5355	34274.95	3.4770	3.4770	-1.3380	7.42	1.44	-0.750			
0.5396	34532.63	3.4740	3.4740	-1.3352	7.43	1.45	-0.750			
0.5435	34784.78	3.4710	3.4710	-1.3205	7.44	1.46	-0.750			
0.5474	35031.47	3.4680	3.4680	-1.3110	7.45	1.47	-0.750			
0.5514	35289.64	3.4650	3.4649	-1.3174	7.46	1.48	-0.750			
0.5553	35541.96	3.4620	3.4620	-1.3130	7.47	1.49	-0.750			
0.5593	35795.09	3.4590	3.4592	-1.3062	7.48	1.50	-0.750			
0.5632	36047.90	3.4560	3.4560	-1.3028	7.49	1.51	-0.750			
0.5671	36295.56	3.4530	3.4529	-1.2860	7.51	1.53	-0.750			
0.5709	36539.91	3.4500	3.4500	-1.2761	7.52	1.54	-0.750			
0.5748	36788.14	3.4470	3.4470	-1.2634	7.53	1.55	-0.750			
0.5786	37027.57	3.4440	3.4440	-1.2507	7.54	1.56	-0.750			
0.5823	37267.11	3.4410	3.4410	-1.2346	7.55	1.57	-0.750			
0.5860	37502.91	3.4380	3.4379	-1.2268	7.57	1.59	-0.750			
0.5896	37735.84	3.4350	3.4349	-1.2113	7.59	1.61	-0.750			
0.5933	37968.38	3.4320	3.4319	-1.1959	7.61	1.63	-0.750			
0.5968	38194.17	3.4290	3.4293	-1.1863	7.63	1.65	-0.750			
0.6004	38427.86	3.4260	3.4259	-1.1735	7.64	1.66	-0.750			
0.6039	38648.07	3.4230	3.4230	-1.1440	7.65	1.67	-0.750			
0.6073	38866.63	3.4200	3.4200	-1.1249	7.66	1.68	-0.750			
0.6106	39081.09	3.4170	3.4168	-1.1104	7.67	1.69	-0.750			
0.6139	39291.59	3.4140	3.4139	-1.0879	7.68	1.70	-0.750			
0.6172	39498.66	3.4110	3.4110	-1.0665	7.70	1.72	-0.750			
0.6203	39698.77	3.4080	3.4081	-1.0463	7.71	1.73	-0.750			
0.6235	39901.64	3.4050	3.4049	-1.0335	7.73	1.75	-0.750			
0.6265	40097.23	3.4020	3.4020	-1.0106	7.74	1.76	-0.750			
0.6295	40289.16	3.3990	3.3989	-0.9877	7.76	1.78	-0.750			
0.6324	40474.90	3.3960	3.3959	-0.9668	7.77	1.79	-0.750			
0.6353	40660.69	3.3930	3.3931	-0.9529	7.79	1.81	-0.750			
0.6382	40842.18	3.3900	3.3899	-0.9362	7.80	1.82	-0.750			
0.6409	41018.91	3.3870	3.3869	-0.9150	7.81	1.83	-0.750			
0.6436	41191.97	3.3840	3.3841	-0.8961	7.83	1.85	-0.750			
0.6463	41365.59	3.3810	3.3812	-0.8818	7.84	1.86	-0.750			
0.6490	41535.06	3.3780	3.3778	-0.8624	7.85	1.87	-0.750			
0.6515	41698.76	3.3750	3.3750	-0.8421	7.87	1.89	-0.750			
0.6541	41860.13	3.3720	3.3720	-0.8120	7.88	1.90	-0.750			
0.6565	42014.97	3.3690	3.3689	-0.7896	7.90	1.92	-0.750			
0.6588	42161.56	3.3660	3.3664	-0.7649	7.91	1.93	-0.750			
0.6610	42303.17	3.3630	3.3629	-0.7388	7.92	1.94	-0.750			
0.6631	42441.33	3.3600	3.3598	-0.7268	7.93	1.95	-0.750			
0.6653	42577.82	3.3570	3.3571	-0.7156	7.95	1.97	-0.750			
0.6674	42716.29	3.3540	3.3539	-0.7068	7.96	1.98	-0.750			
0.6696	42851.77	3.3510	3.3509	-0.6911	7.97	1.99	-0.750			
0.6716	42983.06	3.3480	3.3482	-0.6761	7.98	2.00	-0.750			
0.6736	43110.70	3.3450	3.3450	-0.6613	7.99	2.01	-0.750			
0.6756	43236.59	3.3420	3.3419	-0.6469	8.01	2.03	-0.750			
0.6775	43358.72	3.3390	3.3390	-0.6315	8.02	2.04	-0.750			
0.6794	43480.15	3.3360	3.3359	-0.6119	8.03	2.05	-0.750			
0.6812	43596.73	3.3330	3.3330	-0.5940	8.04	2.06	-0.750			
0.6829	43708.74	3.3300	3.3300	-0.5764	8.05	2.07	-0.750			
0.6846	43815.87	3.3270	3.3271	-0.5573	8.07	2.09	-0.750			
0.6862	43919.22	3.3240	3.3239	-0.5421	8.08	2.10	-0.750			
0.6878	44021.17	3.3210	3.3210	-0.5351	8.09	2.11	-0.750			
0.6894	44122.74	3.3180	3.3180	-0.5289	8.10	2.12	-0.750			
0.6910	44225.41	3.3150	3.3149	-0.5240	8.12	2.14	-0.750			
0.6926	44326.19	3.3120	3.3120	-0.5148	8.13	2.15	-0.750			
0.6941	44425.05	3.3090	3.3091	-0.5037	8.14	2.16	-0.750			
0.6956	44520.67	3.3060	3.3060	-0.4931	8.15	2.17	-0.750			
0.6971	44613.78	3.3030	3.3030	-0.4822	8.17	2.19	-0.750			
0.6985	44703.94	3.3000	3.3000	-0.4679	8.18	2.20	-0.750			
0.6999	44792.69	3.2970	3.2969	-0.4597	8.19	2.21	-0.750			
0.7013	44880.87	3.2940	3.2941	-0.4518	8.20	2.22	-0.750			
0.7026	44966.82	3.2910	3.2910	-0.4412	8.21	2.23	-0.750			
0.7039	45050.14	3.2880	3.2880	-0.4354	8.22	2.24	-0.750			
0.7052	45132.84	3.2850	3.2850	-0.4254	8.23	2.25	-0.750			
0.7065	45213.04	3.2820	3.2820	-0.4164	8.24	2.26	-0.750			
0.7077	45293.00	3.2790	3.2789	-0.4089	8.25	2.27	-0.750			
0.7089	45369.58	3.2760	3.2762	-0.4018	8.26	2.28	-0.750			
0.7101	45446.46	3.2730	3.2729	-0.3956	8.27	2.29	-0.750			
0.7113	45522.18	3.2700	3.2700	-0.3892	8.28	2.30	-0.750			
0.7124	45595.52	3.2670	3.2669	-0.3820	8.29	2.31	-0.750			
0.7136	45668.74	3.2640	3.2642	-0.3789	8.30	2.32	-0.750			
0.7147	45740.93	3.2610	3.2610	-0.3724	8.31	2.33	-0.750			
0.7158	45812.23	3.2580	3.2578	-0.3663	8.32	2.34	-0.750			
0.7169	45881.40	3.2550	3.2550	-0.3587	8.33	2.35	-0.750			
0.7180	45949.64	3.2520	3.2521	-0.3531	8.34	2.36	-0.750			
0.7190	46016.40	3.2490	3.2490	-0.3473	8.35	2.37	-0.750			
0.7200	46082.61	3.2460	3.2459	-0.3410	8.36	2.38	-0.750			
0.7211	46147.42	3.2430	3.2430	-0.3362	8.37	2.39	-0.750			
0.7221	46211.47	3.2400	3.2400	-0.3317	8.38	2.40	-0.750			
0.7230	46275.07	3.2370	3.2370	-0.3267	8.39	2.41	-0.750			
0.7240	46337.25	3.2340	3.2340	-0.3229	8.40	2.42	-0.750			
0.7250	46398.53	3.2310	3.2310	-0.3187	8.41	2.43	-0.750			
0.7259	46459.40	3.2280	3.2281	-0.3141	8.42	2.44	-0.750			
0.7269	46519.14	3.2250	3.2249	-0.3114	8.43	2.45	-0.750			
0.7278	46578.68	3.2220	3.2221	-0.3064	8.44	2.46	-0.750			
0.7287	46637.15	3.2190	3.2190	-0.3027	8.45	2.47	-0.750			
0.7296	46694.79	3.2160	3.2160	-0.2986	8.46	2.48	-0.750			
0.7305	46751.62	3.2130	3.2130	-0.2937	8.47	2.49	-0.750			
0.7314	46808.05	3.2100	3.2099	-0.2893	8.48	2.50	-0.750			
0.7322	46863.48	3.2070	3.2070	-0.2850	8.48	2.50	-0.750			
0.7331	46917.42	3.2040	3.2040	-0.2797	8.49	2.51	-0.750			
0.7339	46970.98	3.2010	3.2012	-0.2764	8.49	2.51	-0.750			
0.7347	47023.20	3.1980	3.1979	-0.2709	8.50	2.52	-0.750			
0.7355	47074.44	3.1950	3.1950	-0.2671	8.51	2.53	-0.750			
0.7363	47125.40	3.1920	3.1921	-0.2640	8.52	2.54	-0.750			
0.7371	47175.47	3.1890	3.1890	-0.2611	8.53	2.55	-0.750			
0.7379	47225.74	3.1860	3.1860	-0.2591	8.54	2.56	-0.750			
0.7387	47274.50	3.1830	3.1830	-0.2570	8.55	2.57	-0.750			
0.7394	47324.10	3.1800	3.1800	-0.2548	8.56	2.58	-0.750			
0.7402	47373.13	3.1770	3.1770	-0.2535	8.58	2.60	-0.750			
0.7410	47421.78	3.1740	3.1739	-0.2493	8.59	2.61	-0.750			
0.7417	47469.21	3.1710	3.1711	-0.2464	8.60	2.62	-0.750			
0.7424	47516.71	3.1680	3.1681	-0.2417	8.60	2.62	-0.750			
0.7432	47562.34	3.1650	3.1649	-0.2386	8.61	2.63	-0.750			
0.7439	47607.36	3.1620	3.1621	-0.2359	8.62	2.64	-0.750			
0.7446	47651.28	3.1590	3.1590	-0.2338	8.62	2.64	-0.750			
0.7453	47696.14	3.1560	3.1559	-0.2345	8.63	2.65	-0.750			
0.7460	47741.37	3.1530	3.1530	-0.2337	8.64	2.66	-0.750			
0.7467	47786.49	3.1500	3.1500	-0.2317	8.64	2.66	-0.750			
0.7474	47831.12	3.1470	3.1471	-0.2296	8.65	2.67	-0.750			
0.7481	47876.16	3.1440	3.1441	-0.2282	8.66	2.68	-0.750			
0.7487	47919.75	3.1410	3.1409	-0.2243	8.67	2.69	-0.750			
0.7494	47962.20	3.1380	3.1380	-0.2210	8.68	2.70	-0.750			
0.7501	48003.70	3.1350	3.1350	-0.2175	8.69	2.71	-0.750			
0.7507	48045.26	3.1320	3.1320	-0.2155	8.70	2.72	-0.750			
0.7513	48086.38	3.1290	3.1288	-0.2136	8.71	2.73	-0.750			
0.7520	48126.96	3.1260	3.1260	-0.2126	8.72	2.74	-0.750			
0.7526	48168.05	3.1230	3.1229	-0.2099	8.73	2.75	-0.750			
0.7532	48208.00	3.1200	3.1201	-0.2083	8.74	2.76	-0.750			
0.7539	48248.04	3.1170	3.1169	-0.2067	8.75	2.77	-0.750			
0.7545	48287.44	3.1140	3.1140	-0.2049	8.76	2.78	-0.750			
0.7551	48326.60	3.1110	3.1109	-0.2028	8.76	2.78	-0.750			
0.7557	48365.24	3.1080	3.1081	-0.2013	8.77	2.79	-0.750			
0.7563	48403.30	3.1050	3.1050	-0.1993	8.78	2.80	-0.750			
0.7569	48441.60	3.1020	3.1020	-0.1981	8.79	2.81	-0.750			
0.7575	48480.14	3.0990	3.0989	-0.1969	8.80	2.82	-0.750			
0.7581	48517.46	3.0960	3.0959	-0.1942	8.81	2.83	-0.750			
0.7587	48554.58	3.0930	3.0931	-0.1924	8.82	2.84	-0.750			
0.7592	48591.44	3.0900	3.0900	-0.1908	8.82	2.84	-0.750			
0.7598	48627.73	3.0870	3.0870	-0.1900	8.83	2.85	-0.750			
0.7604	48663.79	3.0840	3.0840	-0.1882	8.84	2.86	-0.750			
0.7609	48699.77	3.0810	3.0810	-0.1874	8.85	2.87	-0.750			
0.7615	48735.82	3.0780	3.0779	-0.1864	8.86	2.88	-0.750			
0.7621	48771.69	3.0750	3.0750	-0.1855	8.87	2.89	-0.750			
0.7626	48807.10	3.0720	3.0721	-0.1848	8.88	2.90	-0.750			
0.7632	48842.50	3.0690	3.0690	-0.1839	8.88	2.90	-0.750			
0.7637	48877.92	3.0660	3.0660	-0.1816	8.89	2.91	-0.750			
0.7643	48912.43	3.0630	3.0630	-0.1798	8.90	2.92	-0.750			
0.7648	48947.01	3.0600	3.0601	-0.1785	8.91	2.93	-0.750			
0.7653	48981.10	3.0570	3.0570	-0.1766	8.92	2.94	-0.750			
0.7659	49014.71	3.0540	3.0540	-0.1762	8.92	2.94	-0.750			
0.7664	49048.14	3.0510	3.0510	-0.1752	8.93	2.95	-0.750			
0.7669	49081.67	3.0480	3.0481	-0.1738	8.94	2.96	-0.750			
0.7674	49115.02	3.0450	3.0449	-0.1736	8.95	2.97	-0.750			
0.7679	49148.65	3.0420	3.0421	-0.1738	8.96	2.98	-0.750			
0.7685	49182.02	3.0390	3.0390	-0.1724	8.96	2.98	-0.750			
0.7690	49215.19	3.0360	3.0360	-0.1718	8.97	2.99	-0.750			
0.7695	49248.04	3.0330	3.0329	-0.1704	8.98	3.00	-0.750			
0.7700	49280.39	3.0300	3.0301	-0.1692	8.99	3.01	-0.750			
0.7705	49312.64	3.0270	3.0269	-0.1689	9.00	3.02	-0.750			
0.7710	49345.35	3.0240	3.0239	-0.1679	9.00	3.02	-0.750			
0.7715	49377.46	3.0210	3.0210	-0.1666	9.01	3.03	-0.750			
0.7720	49409.22	3.0180	3.0179	-0.1651	9.02	3.04	-0.750			
0.7725	49440.99	3.0150	3.0152	-0.1646	9.03	3.05	-0.750			
0.7730	49472.45	3.0120	3.0120	-0.1632	9.03	3.05	-0.750			
0.7735	49503.66	3.0090	3.0089	-0.1619	9.04	3.06	-0.750			
0.7740	49534.54	3.0060	3.0060	-0.1610	9.05	3.07	-0.750			
0.7745	49565.54	3.0030	3.0030	-0.1659	9.06	3.08	-0.750			
