Ah_balance (normalized)	Ah_balance (mAh)	Voltage - fit (V)	Voltage -  interpolate (V)	dQ/dV (1/V)	Temperature (°C)	Temperature - diff (°C)	Current (C)	R_DC 0ms (mOhm)	R_DC 50ms (mOhm)	R_DC 50 ms PEC (mOhm)
0.0000	0.00	4.0980	4.1284	0.0000	5.97	-0.02	-0.750			
0.0001	6.62	4.0950	4.0962	-0.0230	5.97	-0.02	-0.750			
0.0002	13.87	4.0920	4.0922	-0.0526	5.97	-0.02	-0.750			
0.0004	28.29	4.0890	4.0886	-0.0805	5.97	-0.02	-0.750			
0.0007	47.26	4.0860	4.0857	-0.1064	5.97	-0.02	-0.750			
0.0011	70.22	4.0830	4.0829	-0.1328	5.97	-0.02	-0.750			
0.0015	98.46	4.0800	4.0801	-0.1570	5.97	-0.02	-0.750			
0.0020	131.11	4.0770	4.0771	-0.1804	5.97	-0.02	-0.750			
0.0027	169.88	4.0740	4.0740	-0.2051	5.97	-0.02	-0.750			
0.0033	211.22	4.0710	4.0710	-0.2269	5.98	-0.01	-0.750			
0.0040	256.48	4.0680	4.0680	-0.2494	5.98	-0.01	-0.750			
0.0048	306.86	4.0650	4.0650	-0.2712	5.98	-0.01	-0.750			
0.0056	361.52	4.0620	4.0620	-0.2917	5.98	-0.01	-0.750			
0.0065	418.83	4.0590	4.0590	-0.3142	5.98	-0.01	-0.750			
0.0075	480.18	4.0560	4.0562	-0.3405	5.98	-0.01	-0.750			
0.0086	547.52	4.0530	4.0530	-0.3640	5.98	-0.01	-0.750			
0.0097	620.43	4.0500	4.0498	-0.3854	5.99	-0.00	-0.750			
0.0109	696.54	4.0470	4.0471	-0.4098	5.99	-0.00	-0.750			
0.0122	778.71	4.0440	4.0444	-0.4311	5.99	0.00	-0.750			
0.0135	864.79	4.0410	4.0408	-0.4529	5.99	0.00	-0.750			
0.0149	952.74	4.0380	4.0380	-0.4695	5.99	0.00	-0.750			
0.0163	1043.41	4.0350	4.0350	-0.4880	6.00	0.01	-0.750			
0.0178	1138.95	4.0320	4.0320	-0.5090	6.00	0.01	-0.750			
0.0194	1239.06	4.0290	4.0290	-0.5275	6.00	0.01	-0.750			
0.0210	1341.51	4.0260	4.0260	-0.5431	6.00	0.01	-0.750			
0.0226	1448.09	4.0230	4.0228	-0.5633	6.01	0.02	-0.750			
0.0243	1557.95	4.0200	4.0202	-0.5805	6.01	0.02	-0.750			
0.0261	1671.72	4.0170	4.0169	-0.5933	6.01	0.02	-0.750			
0.0279	1787.30	4.0140	4.0140	-0.6067	6.02	0.03	-0.750			
0.0298	1905.18	4.0110	4.0111	-0.6213	6.02	0.03	-0.750			
0.0316	2024.44	4.0080	4.0079	-0.6310	6.02	0.03	-0.750			
0.0336	2148.62	4.0050	4.0050	-0.6392	6.02	0.03	-0.750			
0.0355	2272.09	4.0020	4.0019	-0.6438	6.03	0.04	-0.750			
0.0374	2396.54	3.9990	3.9993	-0.6522	6.03	0.04	-0.750			
0.0394	2522.42	3.9960	3.9959	-0.6618	6.04	0.05	-0.750			
0.0414	2647.68	3.9930	3.9930	-0.6712	6.05	0.06	-0.750			
0.0434	2777.74	3.9900	3.9899	-0.6799	6.06	0.07	-0.750			
0.0455	2910.14	3.9870	3.9870	-0.6869	6.06	0.07	-0.750			
0.0476	3043.80	3.9840	3.9839	-0.6944	6.07	0.08	-0.750			
0.0497	3179.48	3.9810	3.9814	-0.6982	6.08	0.09	-0.750			
0.0518	3313.05	3.9780	3.9779	-0.7006	6.09	0.10	-0.750			
0.0538	3445.95	3.9750	3.9750	-0.7055	6.09	0.10	-0.750			
0.0560	3582.40	3.9720	3.9720	-0.7097	6.10	0.11	-0.750			
0.0581	3720.19	3.9690	3.9689	-0.7133	6.11	0.12	-0.750			
0.0603	3857.91	3.9660	3.9660	-0.7120	6.11	0.12	-0.750			
0.0624	3993.38	3.9630	3.9633	-0.7190	6.12	0.13	-0.750			
0.0646	4131.66	3.9600	3.9601	-0.7247	6.13	0.14	-0.750			
0.0667	4268.50	3.9570	3.9569	-0.7307	6.14	0.15	-0.750			
0.0689	4411.35	3.9540	3.9540	-0.7316	6.15	0.16	-0.750			
0.0712	4554.41	3.9510	3.9511	-0.7362	6.16	0.17	-0.750			
0.0734	4697.36	3.9480	3.9478	-0.7310	6.17	0.18	-0.750			
0.0756	4838.85	3.9450	3.9448	-0.7291	6.17	0.18	-0.750			
0.0777	4975.42	3.9420	3.9420	-0.7303	6.18	0.19	-0.750			
0.0799	5113.65	3.9390	3.9391	-0.7343	6.19	0.20	-0.750			
0.0821	5255.07	3.9360	3.9358	-0.7314	6.20	0.21	-0.750			
0.0844	5399.30	3.9330	3.9330	-0.7375	6.21	0.22	-0.750			
0.0866	5540.76	3.9300	3.9302	-0.7390	6.22	0.23	-0.750			
0.0888	5683.14	3.9270	3.9270	-0.7407	6.23	0.24	-0.750			
0.0910	5823.79	3.9240	3.9239	-0.7414	6.24	0.25	-0.750			
0.0932	5965.08	3.9210	3.9210	-0.7484	6.24	0.25	-0.750			
0.0955	6109.83	3.9180	3.9181	-0.7504	6.25	0.26	-0.750			
0.0978	6258.16	3.9150	3.9149	-0.7592	6.26	0.27	-0.750			
0.1000	6402.93	3.9120	3.9121	-0.7596	6.27	0.28	-0.750			
0.1023	6548.05	3.9090	3.9089	-0.7604	6.28	0.29	-0.750			
0.1046	6694.87	3.9060	3.9059	-0.7609	6.29	0.30	-0.750			
0.1069	6840.56	3.9030	3.9030	-0.7577	6.30	0.31	-0.750			
0.1092	6986.83	3.9000	3.9000	-0.7649	6.31	0.32	-0.750			
0.1115	7134.27	3.8970	3.8970	-0.7656	6.32	0.33	-0.750			
0.1138	7280.48	3.8940	3.8939	-0.7662	6.33	0.34	-0.750			
0.1160	7426.16	3.8910	3.8910	-0.7715	6.33	0.34	-0.750			
0.1184	7574.92	3.8880	3.8880	-0.7737	6.34	0.35	-0.750			
0.1207	7724.78	3.8850	3.8849	-0.7775	6.35	0.36	-0.750			
0.1231	7875.97	3.8820	3.8820	-0.7811	6.36	0.37	-0.750			
0.1254	8025.88	3.8790	3.8791	-0.7774	6.36	0.37	-0.750			
0.1277	8175.34	3.8760	3.8760	-0.7836	6.38	0.39	-0.750			
0.1301	8326.40	3.8730	3.8730	-0.7792	6.39	0.40	-0.750			
0.1324	8473.11	3.8700	3.8700	-0.7828	6.40	0.41	-0.750			
0.1348	8625.23	3.8670	3.8670	-0.7887	6.41	0.42	-0.750			
0.1371	8777.58	3.8640	3.8642	-0.7887	6.42	0.43	-0.750			
0.1395	8930.07	3.8610	3.8610	-0.7845	6.43	0.44	-0.750			
0.1419	9082.43	3.8580	3.8581	-0.7824	6.44	0.45	-0.750			
0.1442	9231.16	3.8550	3.8550	-0.7717	6.45	0.46	-0.750			
0.1465	9378.03	3.8520	3.8521	-0.7743	6.47	0.48	-0.750			
0.1488	9522.54	3.8490	3.8489	-0.7720	6.48	0.49	-0.750			
0.1511	9671.71	3.8460	3.8460	-0.7755	6.48	0.49	-0.750			
0.1534	9820.09	3.8430	3.8430	-0.7862	6.49	0.50	-0.750			
0.1558	9973.53	3.8400	3.8400	-0.7955	6.50	0.51	-0.750			
0.1582	10127.99	3.8370	3.8369	-0.7966	6.51	0.52	-0.750			
0.1607	10282.56	3.8340	3.8339	-0.8001	6.52	0.53	-0.750			
0.1630	10435.04	3.8310	3.8312	-0.7963	6.52	0.53	-0.750			
0.1654	10587.44	3.8280	3.8280	-0.7994	6.53	0.54	-0.750			
0.1679	10742.41	3.8250	3.8250	-0.8000	6.54	0.55	-0.750			
0.1702	10893.83	3.8220	3.8220	-0.7911	6.55	0.56	-0.750			
0.1726	11046.30	3.8190	3.8190	-0.7961	6.56	0.57	-0.750			
0.1750	11200.82	3.8160	3.8161	-0.7991	6.57	0.58	-0.750			
0.1774	11353.39	3.8130	3.8129	-0.7957	6.58	0.59	-0.750			
0.1798	11505.87	3.8100	3.8100	-0.8000	6.59	0.60	-0.750			
0.1822	11660.99	3.8070	3.8070	-0.7930	6.60	0.61	-0.750			
0.1846	11814.65	3.8040	3.8039	-0.7937	6.61	0.62	-0.750			
0.1870	11965.45	3.8010	3.8013	-0.7939	6.62	0.63	-0.750			
0.1893	12115.62	3.7980	3.7979	-0.7893	6.63	0.64	-0.750			
0.1917	12266.14	3.7950	3.7950	-0.7949	6.64	0.65	-0.750			
0.1940	12417.82	3.7920	3.7920	-0.7977	6.65	0.66	-0.750			
0.1964	12572.77	3.7890	3.7891	-0.8099	6.67	0.68	-0.750			
0.1989	12730.47	3.7860	3.7858	-0.8177	6.68	0.69	-0.750			
0.2014	12887.46	3.7830	3.7831	-0.8175	6.69	0.70	-0.750			
0.2038	13045.20	3.7800	3.7800	-0.8208	6.70	0.71	-0.750			
0.2063	13204.14	3.7770	3.7770	-0.8239	6.71	0.72	-0.750			
0.2088	13362.57	3.7740	3.7739	-0.8179	6.72	0.73	-0.750			
0.2112	13519.37	3.7710	3.7711	-0.8165	6.73	0.74	-0.750			
0.2137	13674.44	3.7680	3.7679	-0.8156	6.74	0.75	-0.750			
0.2161	13829.88	3.7650	3.7649	-0.8208	6.75	0.76	-0.750			
0.2186	13987.85	3.7620	3.7620	-0.8254	6.76	0.77	-0.750			
0.2210	14146.14	3.7590	3.7590	-0.8259	6.77	0.78	-0.750			
0.2236	14308.18	3.7560	3.7560	-0.8336	6.78	0.79	-0.750			
0.2261	14469.89	3.7530	3.7529	-0.8347	6.79	0.80	-0.750			
0.2286	14627.59	3.7500	3.7500	-0.8367	6.80	0.81	-0.750			
0.2311	14788.72	3.7470	3.7470	-0.8355	6.81	0.82	-0.750			
0.2336	14948.58	3.7440	3.7439	-0.8318	6.82	0.83	-0.750			
0.2361	15110.19	3.7410	3.7409	-0.8382	6.83	0.84	-0.750			
0.2386	15270.28	3.7380	3.7381	-0.8443	6.84	0.85	-0.750			
0.2411	15431.89	3.7350	3.7350	-0.8518	6.85	0.86	-0.750			
0.2437	15597.17	3.7320	3.7319	-0.8547	6.86	0.87	-0.750			
0.2463	15761.00	3.7290	3.7290	-0.8554	6.87	0.88	-0.750			
0.2489	15929.68	3.7260	3.7260	-0.8660	6.88	0.89	-0.750			
0.2515	16094.24	3.7230	3.7231	-0.8686	6.89	0.90	-0.750			
0.2541	16261.22	3.7200	3.7200	-0.8650	6.89	0.90	-0.750			
0.2566	16425.37	3.7170	3.7169	-0.8654	6.90	0.91	-0.750			
0.2592	16591.29	3.7140	3.7140	-0.8672	6.91	0.92	-0.750			
0.2619	16759.61	3.7110	3.7112	-0.8773	6.92	0.93	-0.750			
0.2645	16927.18	3.7080	3.7079	-0.8799	6.93	0.94	-0.750			
0.2672	17097.63	3.7050	3.7051	-0.8881	6.94	0.95	-0.750			
0.2698	17267.63	3.7020	3.7020	-0.8950	6.94	0.95	-0.750			
0.2725	17442.90	3.6990	3.6989	-0.9012	6.95	0.96	-0.750			
0.2753	17616.98	3.6960	3.6960	-0.8945	6.96	0.97	-0.750			
0.2779	17785.90	3.6930	3.6930	-0.9036	6.97	0.98	-0.750			
0.2806	17959.19	3.6900	3.6901	-0.9048	6.98	0.99	-0.750			
0.2833	18134.35	3.6870	3.6868	-0.9119	7.00	1.01	-0.750			
0.2861	18308.25	3.6840	3.6840	-0.9164	7.01	1.02	-0.750			
0.2888	18484.47	3.6810	3.6810	-0.9285	7.01	1.02	-0.750			
0.2917	18665.80	3.6780	3.6780	-0.9417	7.02	1.03	-0.750			
0.2945	18848.80	3.6750	3.6748	-0.9406	7.03	1.04	-0.750			
0.2973	19027.02	3.6720	3.6721	-0.9364	7.03	1.04	-0.750			
0.3002	19209.93	3.6690	3.6691	-0.9527	7.04	1.05	-0.750			
0.3030	19392.08	3.6660	3.6660	-0.9614	7.05	1.06	-0.750			
0.3059	19576.27	3.6630	3.6628	-0.9685	7.06	1.07	-0.750			
0.3088	19762.80	3.6600	3.6601	-0.9781	7.07	1.08	-0.750			
0.3118	19952.38	3.6570	3.6571	-0.9946	7.08	1.09	-0.750			
0.3148	20146.36	3.6540	3.6540	-1.0036	7.09	1.10	-0.750			
0.3178	20341.32	3.6510	3.6509	-1.0052	7.09	1.10	-0.750			
0.3208	20533.04	3.6480	3.6481	-1.0050	7.10	1.11	-0.750			
0.3239	20727.27	3.6450	3.6451	-1.0038	7.11	1.12	-0.750			
0.3269	20921.73	3.6420	3.6420	-1.0118	7.12	1.13	-0.750			
0.3299	21115.15	3.6390	3.6389	-1.0160	7.12	1.13	-0.750			
0.3329	21308.53	3.6360	3.6360	-1.0181	7.13	1.14	-0.750			
0.3360	21505.61	3.6330	3.6330	-1.0271	7.14	1.15	-0.750			
0.3391	21703.56	3.6300	3.6299	-1.0419	7.15	1.16	-0.750			
0.3423	21904.13	3.6270	3.6270	-1.0500	7.16	1.17	-0.750			
0.3454	22106.66	3.6240	3.6239	-1.0603	7.17	1.18	-0.750			
0.3486	22309.96	3.6210	3.6208	-1.0659	7.18	1.19	-0.750			
0.3518	22517.84	3.6180	3.6181	-1.0815	7.18	1.19	-0.750			
0.3551	22728.07	3.6150	3.6150	-1.0896	7.19	1.20	-0.750			
0.3584	22938.55	3.6120	3.6120	-1.0979	7.19	1.20	-0.750			
0.3617	23148.72	3.6090	3.6093	-1.1045	7.20	1.21	-0.750			
0.3650	23362.36	3.6060	3.6059	-1.1148	7.21	1.22	-0.750			
0.3684	23577.74	3.6030	3.6029	-1.1177	7.22	1.23	-0.750			
0.3717	23791.65	3.6000	3.6000	-1.1240	7.22	1.23	-0.750			
0.3751	24008.93	3.5970	3.5971	-1.1504	7.23	1.24	-0.750			
0.3786	24231.86	3.5940	3.5939	-1.1539	7.24	1.25	-0.750			
0.3821	24454.32	3.5910	3.5908	-1.1592	7.25	1.26	-0.750			
0.3856	24678.14	3.5880	3.5881	-1.1630	7.27	1.28	-0.750	0.427	0.856	
0.3891	24903.90	3.5850	3.5850	-1.1720	7.27	1.28	-0.750			
0.3926	25127.26	3.5820	3.5819	-1.1788	7.28	1.29	-0.750			
0.3961	25349.39	3.5790	3.5790	-1.1847	7.28	1.29	-0.750			
0.3997	25577.66	3.5760	3.5761	-1.2021	7.29	1.30	-0.750			
0.4033	25811.10	3.5730	3.5730	-1.2198	7.30	1.31	-0.750			
0.4070	26049.10	3.5700	3.5700	-1.2284	7.31	1.32	-0.750			
0.4107	26285.70	3.5670	3.5671	-1.2402	7.33	1.34	-0.750			
0.4145	26528.44	3.5640	3.5640	-1.2476	7.33	1.34	-0.750			
0.4182	26766.70	3.5610	3.5610	-1.2511	7.34	1.35	-0.750			
0.4219	27003.25	3.5580	3.5579	-1.2630	7.35	1.36	-0.750			
0.4258	27249.18	3.5550	3.5551	-1.2730	7.35	1.36	-0.750			
0.4296	27495.36	3.5520	3.5518	-1.2739	7.36	1.37	-0.750			
0.4335	27741.65	3.5490	3.5491	-1.2898	7.36	1.37	-0.750			
0.4373	27986.59	3.5460	3.5462	-1.2972	7.37	1.38	-0.750			
0.4412	28239.51	3.5430	3.5427	-1.3117	7.38	1.39	-0.750			
0.4452	28494.37	3.5400	3.5400	-1.3035	7.39	1.40	-0.750			
0.4491	28743.22	3.5370	3.5373	-1.3117	7.40	1.41	-0.750			
0.4531	29000.48	3.5340	3.5340	-1.3265	7.41	1.42	-0.750			
0.4571	29255.16	3.5310	3.5308	-1.3217	7.42	1.43	-0.750			
0.4610	29501.19	3.5280	3.5280	-1.3160	7.44	1.45	-0.750			
0.4649	29755.57	3.5250	3.5251	-1.3219	7.44	1.45	-0.750			
0.4690	30014.55	3.5220	3.5219	-1.3289	7.45	1.46	-0.750			
0.4729	30268.76	3.5190	3.5190	-1.3454	7.46	1.47	-0.750			
0.4770	30525.19	3.5160	3.5161	-1.3440	7.47	1.48	-0.750			
0.4810	30786.89	3.5130	3.5129	-1.3535	7.48	1.49	-0.750			
0.4851	31048.32	3.5100	3.5099	-1.3615	7.49	1.50	-0.750			
0.4893	31312.17	3.5070	3.5071	-1.3486	7.50	1.51	-0.750			
0.4933	31573.47	3.5040	3.5039	-1.3398	7.51	1.52	-0.750			
0.4973	31828.87	3.5010	3.5011	-1.3386	7.52	1.53	-0.750			
0.5013	32080.63	3.4980	3.4980	-1.3212	7.53	1.54	-0.750			
0.5053	32336.31	3.4950	3.4949	-1.3259	7.54	1.55	-0.750			
0.5092	32589.58	3.4920	3.4919	-1.3208	7.55	1.56	-0.750			
0.5132	32844.06	3.4890	3.4892	-1.3209	7.56	1.57	-0.750			
0.5172	33099.81	3.4860	3.4859	-1.3192	7.58	1.59	-0.750			
0.5211	33352.68	3.4830	3.4830	-1.3113	7.59	1.60	-0.750			
0.5250	33601.52	3.4800	3.4800	-1.2996	7.60	1.61	-0.750			
0.5290	33853.03	3.4770	3.4770	-1.2979	7.61	1.62	-0.750			
0.5329	34103.20	3.4740	3.4739	-1.2903	7.62	1.63	-0.750			
0.5367	34349.44	3.4710	3.4712	-1.2868	7.63	1.64	-0.750			
0.5406	34595.36	3.4680	3.4679	-1.2823	7.64	1.65	-0.750			
0.5444	34840.77	3.4650	3.4650	-1.2793	7.66	1.67	-0.750			
0.5482	35084.42	3.4620	3.4619	-1.2773	7.67	1.68	-0.750			
0.5521	35335.11	3.4590	3.4589	-1.2800	7.69	1.70	-0.750			
0.5559	35579.35	3.4560	3.4561	-1.2648	7.70	1.71	-0.750			
0.5597	35821.01	3.4530	3.4528	-1.2488	7.71	1.72	-0.750			
0.5634	36057.21	3.4500	3.4502	-1.2421	7.73	1.74	-0.750			
0.5671	36295.16	3.4470	3.4469	-1.2252	7.74	1.75	-0.750			
0.5707	36526.72	3.4440	3.4439	-1.2221	7.75	1.76	-0.750			
0.5744	36760.14	3.4410	3.4411	-1.2226	7.77	1.78	-0.750			
0.5781	36999.05	3.4380	3.4380	-1.2126	7.78	1.79	-0.750			
0.5818	37235.79	3.4350	3.4349	-1.1992	7.79	1.80	-0.750			
0.5854	37465.02	3.4320	3.4320	-1.1805	7.80	1.81	-0.750			
0.5889	37686.75	3.4290	3.4292	-1.1655	7.82	1.83	-0.750			
0.5923	37910.25	3.4260	3.4258	-1.1567	7.84	1.85	-0.750			
0.5958	38128.39	3.4230	3.4229	-1.1316	7.85	1.86	-0.750			
0.5991	38343.80	3.4200	3.4202	-1.1115	7.87	1.88	-0.750			
0.6025	38558.38	3.4170	3.4170	-1.0964	7.88	1.89	-0.750			
0.6058	38768.47	3.4140	3.4139	-1.0805	7.89	1.90	-0.750			
0.6089	38971.83	3.4110	3.4110	-1.0592	7.91	1.92	-0.750			
0.6120	39169.81	3.4080	3.4081	-1.0401	7.92	1.93	-0.750			
0.6151	39369.32	3.4050	3.4050	-1.0268	7.93	1.94	-0.750			
0.6182	39567.32	3.4020	3.4020	-1.0132	7.95	1.96	-0.750			
0.6213	39761.21	3.3990	3.3990	-0.9954	7.96	1.97	-0.750			
0.6242	39950.59	3.3960	3.3960	-0.9775	7.98	1.99	-0.750			
0.6271	40134.16	3.3930	3.3930	-0.9575	7.99	2.00	-0.750			
0.6299	40316.29	3.3900	3.3899	-0.9341	8.01	2.02	-0.750			
0.6327	40493.36	3.3870	3.3871	-0.9171	8.03	2.04	-0.750			
0.6355	40669.00	3.3840	3.3837	-0.8951	8.04	2.05	-0.750			
0.6381	40840.99	3.3810	3.3810	-0.8735	8.06	2.07	-0.750			
0.6407	41005.38	3.3780	3.3780	-0.8539	8.07	2.08	-0.750			
0.6432	41166.22	3.3750	3.3751	-0.8307	8.08	2.09	-0.750			
0.6456	41321.39	3.3720	3.3719	-0.8044	8.10	2.11	-0.750			
0.6481	41475.81	3.3690	3.3688	-0.7956	8.11	2.12	-0.750			
0.6504	41625.89	3.3660	3.3661	-0.7767	8.13	2.14	-0.750			
0.6527	41774.44	3.3630	3.3629	-0.7652	8.14	2.15	-0.750			
0.6550	41921.39	3.3600	3.3599	-0.7509	8.16	2.17	-0.750			
0.6572	42062.57	3.3570	3.3571	-0.7291	8.17	2.18	-0.750			
0.6594	42203.76	3.3540	3.3540	-0.7151	8.18	2.19	-0.750			
0.6616	42339.30	3.3510	3.3511	-0.6973	8.20	2.21	-0.750			
0.6636	42470.67	3.3480	3.3479	-0.6762	8.21	2.22	-0.750			
0.6656	42597.92	3.3450	3.3449	-0.6592	8.22	2.23	-0.750			
0.6675	42721.26	3.3420	3.3420	-0.6446	8.23	2.24	-0.750			
0.6694	42843.31	3.3390	3.3390	-0.6311	8.25	2.26	-0.750			
0.6713	42964.48	3.3360	3.3360	-0.6196	8.26	2.27	-0.750			
0.6732	43082.26	3.3330	3.3330	-0.6075	8.27	2.28	-0.750			
0.6749	43196.66	3.3300	3.3301	-0.5966	8.28	2.29	-0.750			
0.6767	43310.83	3.3270	3.3270	-0.5884	8.30	2.31	-0.750			
0.6785	43422.68	3.3240	3.3240	-0.5735	8.31	2.32	-0.750			
0.6802	43532.41	3.3210	3.3209	-0.5590	8.32	2.33	-0.750			
0.6819	43638.75	3.3180	3.3182	-0.5482	8.33	2.34	-0.750			
0.6835	43742.00	3.3150	3.3151	-0.5363	8.34	2.35	-0.750			
0.6851	43843.57	3.3120	3.3119	-0.5216	8.36	2.37	-0.750			
0.6866	43942.03	3.3090	3.3089	-0.5078	8.37	2.38	-0.750			
0.6881	44037.32	3.3060	3.3061	-0.4965	8.38	2.39	-0.750			
0.6896	44132.41	3.3030	3.3031	-0.4866	8.39	2.40	-0.750			
0.6910	44225.16	3.3000	3.2999	-0.4783	8.40	2.41	-0.750			
0.6924	44314.55	3.2970	3.2970	-0.4705	8.41	2.42	-0.750			
0.6938	44403.39	3.2940	3.2940	-0.4618	8.42	2.43	-0.750			
0.6952	44492.65	3.2910	3.2909	-0.4576	8.43	2.44	-0.750			
0.6966	44580.06	3.2880	3.2881	-0.4494	8.44	2.45	-0.750			
0.6979	44665.73	3.2850	3.2850	-0.4401	8.45	2.46	-0.750			
0.6992	44749.73	3.2820	3.2819	-0.4305	8.46	2.47	-0.750			
0.7005	44830.63	3.2790	3.2791	-0.4221	8.47	2.48	-0.750			
0.7017	44910.41	3.2760	3.2760	-0.4157	8.48	2.49	-0.750			
0.7030	44989.69	3.2730	3.2730	-0.4100	8.50	2.51	-0.750			
0.7042	45067.51	3.2700	3.2700	-0.4033	8.51	2.52	-0.750			
0.7054	45144.50	3.2670	3.2670	-0.3988	8.52	2.53	-0.750			
0.7066	45221.14	3.2640	3.2640	-0.3915	8.54	2.55	-0.750			
0.7077	45295.76	3.2610	3.2610	-0.3850	8.55	2.56	-0.750			
0.7089	45368.36	3.2580	3.2579	-0.3772	8.56	2.57	-0.750			
0.7100	45440.01	3.2550	3.2551	-0.3710	8.57	2.58	-0.750			
0.7111	45511.31	3.2520	3.2519	-0.3637	8.58	2.59	-0.750			
0.7122	45580.16	3.2490	3.2490	-0.3572	8.59	2.60	-0.750			
0.7132	45647.98	3.2460	3.2460	-0.3505	8.60	2.61	-0.750			
0.7143	45714.95	3.2430	3.2430	-0.3437	8.61	2.62	-0.750			
0.7153	45779.77	3.2400	3.2400	-0.3390	8.62	2.63	-0.750			
0.7163	45843.68	3.2370	3.2370	-0.3327	8.63	2.64	-0.750			
0.7173	45906.69	3.2340	3.2339	-0.3305	8.64	2.65	-0.750			
0.7183	45970.30	3.2310	3.2310	-0.3280	8.65	2.66	-0.750			
0.7193	46032.61	3.2280	3.2281	-0.3242	8.66	2.67	-0.750			
0.7202	46095.47	3.2250	3.2249	-0.3207	8.67	2.68	-0.750			
0.7212	46156.73	3.2220	3.2220	-0.3172	8.68	2.69	-0.750			
0.7221	46216.50	3.2190	3.2190	-0.3107	8.69	2.70	-0.750			
0.7231	46276.41	3.2160	3.2159	-0.3060	8.70	2.71	-0.750			
0.7240	46334.14	3.2130	3.2129	-0.2994	8.71	2.72	-0.750			
0.7249	46390.94	3.2100	3.2101	-0.2974	8.72	2.73	-0.750			
0.7257	46447.15	3.2070	3.2071	-0.2935	8.73	2.74	-0.750			
0.7266	46503.54	3.2040	3.2039	-0.2904	8.74	2.75	-0.750			
0.7275	46559.04	3.2010	3.2010	-0.2862	8.75	2.76	-0.750			
0.7283	46613.93	3.1980	3.1981	-0.2847	8.76	2.77	-0.750			
0.7292	46668.51	3.1950	3.1951	-0.2825	8.77	2.78	-0.750			
0.7300	46722.19	3.1920	3.1919	-0.2783	8.78	2.79	-0.750			
0.7309	46774.66	3.1890	3.1889	-0.2728	8.79	2.80	-0.750			
0.7317	46827.26	3.1860	3.1861	-0.2711	8.80	2.81	-0.750			
0.7325	46879.45	3.1830	3.1830	-0.2679	8.81	2.82	-0.750			
0.7333	46930.21	3.1800	3.1800	-0.2636	8.81	2.82	-0.750			
0.7341	46980.21	3.1770	3.1770	-0.2608	8.82	2.83	-0.750			
0.7348	47029.49	3.1740	3.1741	-0.2567	8.83	2.84	-0.750			
0.7356	47078.44	3.1710	3.1709	-0.2545	8.84	2.85	-0.750			
0.7364	47127.13	3.1680	3.1680	-0.2525	8.84	2.85	-0.750			
0.7371	47175.54	3.1650	3.1652	-0.2499	8.85	2.86	-0.750			
0.7379	47223.17	3.1620	3.1619	-0.2476	8.86	2.87	-0.750			
0.7386	47270.94	3.1590	3.1590	-0.2449	8.87	2.88	-0.750			
0.7393	47317.53	3.1560	3.1560	-0.2419	8.88	2.89	-0.750			
0.7400	47363.05	3.1530	3.1530	-0.2399	8.89	2.90	-0.750			
0.7408	47409.20	3.1500	3.1501	-0.2385	8.90	2.91	-0.750			
0.7415	47454.56	3.1470	3.1469	-0.2365	8.91	2.92	-0.750			
0.7422	47499.87	3.1440	3.1439	-0.2347	8.92	2.93	-0.750			
0.7429	47544.88	3.1410	3.1411	-0.2334	8.93	2.94	-0.750			
0.7436	47589.70	3.1380	3.1380	-0.2312	8.93	2.94	-0.750			
0.7443	47634.38	3.1350	3.1350	-0.2295	8.94	2.95	-0.750			
0.7450	47678.14	3.1320	3.1319	-0.2263	8.95	2.96	-0.750			
0.7456	47720.85	3.1290	3.1292	-0.2236	8.96	2.97	-0.750			
0.7463	47763.79	3.1260	3.1259	-0.2221	8.97	2.98	-0.750			
0.7470	47806.21	3.1230	3.1230	-0.2198	8.98	2.99	-0.750			
0.7476	47848.16	3.1200	3.1200	-0.2168	8.99	3.00	-0.750			
0.7483	47889.32	3.1170	3.1170	-0.2145	9.00	3.01	-0.750			
0.7489	47929.96	3.1140	3.1141	-0.2143	9.01	3.02	-0.750			
0.7496	47971.29	3.1110	3.1109	-0.2127	9.02	3.03	-0.750			
0.7502	48012.01	3.1080	3.1079	-0.2114	9.03	3.04	-0.750			
0.7508	48052.25	3.1050	3.1050	-0.2100	9.04	3.05	-0.750			
0.7514	48092.58	3.1020	3.1022	-0.2098	9.05	3.06	-0.750			
0.7521	48133.16	3.0990	3.0991	-0.2088	9.06	3.07	-0.750			
0.7527	48173.07	3.0960	3.0958	-0.2069	9.07	3.08	-0.750			
0.7533	48212.60	3.0930	3.0929	-0.2052	9.08	3.09	-0.750			
0.7539	48251.63	3.0900	3.0901	-0.2027	9.09	3.10	-0.750			
0.7545	48290.79	3.0870	3.0871	-0.2022	9.10	3.11	-0.750			
0.7551	48329.55	3.0840	3.0839	-0.1993	9.10	3.11	-0.750			
0.7557	48367.51	3.0810	3.0810	-0.1965	9.11	3.12	-0.750			
0.7563	48404.85	3.0780	3.0779	-0.1941	9.12	3.13	-0.750			
0.7569	48441.56	3.0750	3.0752	-0.1937	9.13	3.14	-0.750			
0.7575	48478.72	3.0720	3.0719	-0.1925	9.14	3.15	-0.750			
0.7581	48515.27	3.0690	3.0689	-0.1912	9.15	3.16	-0.750			
0.7586	48551.90	3.0660	3.0659	-0.1899	9.16	3.17	-0.750			
0.7592	48588.07	3.0630	3.0631	-0.1894	9.17	3.18	-0.750			
0.7598	48624.93	3.0600	3.0600	-0.1896	9.17	3.18	-0.750			
0.7603	48661.20	3.0570	3.0570	-0.1882	9.18	3.19	-0.750			
0.7609	48697.18	3.0540	3.0539	-0.1871	9.19	3.20	-0.750			
0.7615	48732.84	3.0510	3.0512	-0.1846	9.20	3.21	-0.750			
0.7620	48768.38	3.0480	3.0481	-0.1846	9.21	3.22	-0.750			
0.7626	48803.66	3.0450	3.0450	-0.1830	9.22	3.23	-0.750			
0.7631	48838.68	3.0420	3.0420	-0.1814	9.23	3.24	-0.750			
0.7636	48873.29	3.0390	3.0389	-0.1787	9.24	3.25	-0.750			
0.7642	48907.23	3.0360	3.0360	-0.1780	9.25	3.26	-0.750			
0.7647	48941.30	3.0330	3.0331	-0.1768	9.26	3.27	-0.750			
0.7652	48974.89	3.0300	3.0300	-0.1762	9.26	3.27	-0.750			
0.7658	49008.72	3.0270	3.0268	-0.1758	9.27	3.28	-0.750			
0.7663	49042.24	3.0240	3.0240	-0.1743	9.28	3.29	-0.750			
0.7668	49075.70	3.0210	3.0210	-0.1741	9.29	3.30	-0.750			
0.7673	49109.32	3.0180	3.0181	-0.1739	9.30	3.31	-0.750			
0.7679	49142.83	3.0150	3.0150	-0.1740	9.31	3.32	-0.750			
0.7684	49175.74	3.0120	3.0120	-0.1727	9.32	3.33	-0.750			
0.7689	49208.92	3.0090	3.0088	-0.1728	9.33	3.34	-0.750			
0.7694	49242.00	3.0060	3.0060	-0.1735	9.34	3.35	-0.750			
0.7699	49275.40	3.0030	3.0031	-0.1760	9.34	3.35	-0.750			
