Ah_balance (normalized)	Ah_balance (mAh)	Voltage - fit (V)	Voltage -  interpolate (V)	dQ/dV (1/V)	Temperature (°C)	Temperature - diff (°C)	Current (C)	R_DC 0ms (mOhm)	R_DC 50ms (mOhm)	R_DC 50 ms PEC (mOhm)
0.0002	11.99	4.1060	4.1048	-0.0381	5.98	0.00	-0.750			
0.0003	22.32	4.1030	4.1023	-0.0692	5.98	0.00	-0.750			
0.0006	39.43	4.1000	4.0997	-0.0997	5.98	0.00	-0.750			
0.0010	61.35	4.0970	4.0970	-0.1286	5.98	0.00	-0.750			
0.0014	89.23	4.0940	4.0939	-0.1544	5.98	0.00	-0.750			
0.0019	121.58	4.0910	4.0911	-0.1796	5.98	0.00	-0.750			
0.0025	160.41	4.0880	4.0879	-0.2044	5.98	0.00	-0.750			
0.0032	202.20	4.0850	4.0851	-0.2244	5.98	0.00	-0.750			
0.0039	248.02	4.0820	4.0819	-0.2440	5.98	0.00	-0.750			
0.0046	295.28	4.0790	4.0791	-0.2697	5.98	0.00	-0.750			
0.0055	348.98	4.0760	4.0761	-0.2921	5.98	0.00	-0.750			
0.0064	407.61	4.0730	4.0728	-0.3162	5.98	0.00	-0.750			
0.0074	470.67	4.0700	4.0700	-0.3382	5.98	0.00	-0.750			
0.0084	538.47	4.0670	4.0672	-0.3617	5.98	0.00	-0.750			
0.0096	611.57	4.0640	4.0640	-0.3763	5.98	0.00	-0.750			
0.0107	685.59	4.0610	4.0612	-0.3980	5.98	0.00	-0.750			
0.0119	762.25	4.0580	4.0581	-0.4168	5.98	0.00	-0.750			
0.0132	843.28	4.0550	4.0550	-0.4404	5.98	0.00	-0.750			
0.0145	930.07	4.0520	4.0519	-0.4627	5.98	0.00	-0.750			
0.0160	1021.73	4.0490	4.0490	-0.4831	5.98	0.00	-0.750			
0.0174	1116.32	4.0460	4.0461	-0.5106	5.98	0.00	-0.750			
0.0190	1218.75	4.0430	4.0431	-0.5300	5.98	0.00	-0.750			
0.0207	1321.93	4.0400	4.0398	-0.5455	5.98	0.00	-0.750			
0.0224	1430.72	4.0370	4.0370	-0.5563	5.98	0.00	-0.750			
0.0240	1538.09	4.0340	4.0341	-0.5709	5.98	0.00	-0.750			
0.0258	1649.34	4.0310	4.0310	-0.5862	5.98	0.00	-0.750			
0.0275	1762.99	4.0280	4.0279	-0.6006	5.99	0.01	-0.750			
0.0293	1877.45	4.0250	4.0249	-0.6116	5.99	0.01	-0.750			
0.0312	1999.15	4.0220	4.0221	-0.6261	5.99	0.01	-0.750			
0.0331	2120.06	4.0190	4.0189	-0.6427	6.00	0.02	-0.750			
0.0351	2245.69	4.0160	4.0159	-0.6579	6.00	0.02	-0.750			
0.0371	2372.90	4.0130	4.0130	-0.6626	6.00	0.02	-0.750			
0.0391	2502.14	4.0100	4.0099	-0.6723	6.01	0.03	-0.750			
0.0411	2632.49	4.0070	4.0072	-0.6827	6.01	0.03	-0.750			
0.0432	2766.36	4.0040	4.0041	-0.6830	6.02	0.04	-0.750			
0.0453	2899.69	4.0010	4.0008	-0.6887	6.02	0.04	-0.750			
0.0473	3029.11	3.9980	3.9980	-0.6888	6.03	0.05	-0.750			
0.0494	3160.14	3.9950	3.9950	-0.6939	6.03	0.05	-0.750			
0.0515	3294.56	3.9920	3.9919	-0.6997	6.03	0.05	-0.750			
0.0536	3429.05	3.9890	3.9891	-0.7081	6.03	0.05	-0.750			
0.0557	3566.26	3.9860	3.9860	-0.7133	6.04	0.06	-0.750			
0.0579	3705.81	3.9830	3.9830	-0.7216	6.04	0.06	-0.750			
0.0601	3845.25	3.9800	3.9800	-0.7220	6.04	0.06	-0.750			
0.0622	3983.57	3.9770	3.9771	-0.7282	6.04	0.06	-0.750			
0.0644	4124.68	3.9740	3.9740	-0.7298	6.05	0.07	-0.750			
0.0666	4265.57	3.9710	3.9709	-0.7353	6.06	0.08	-0.750			
0.0688	4406.17	3.9680	3.9680	-0.7374	6.07	0.09	-0.750			
0.0711	4550.66	3.9650	3.9650	-0.7409	6.07	0.09	-0.750			
0.0733	4692.60	3.9620	3.9622	-0.7383	6.08	0.10	-0.750			
0.0755	4835.10	3.9590	3.9590	-0.7388	6.09	0.11	-0.750			
0.0777	4973.49	3.9560	3.9560	-0.7422	6.09	0.11	-0.750			
0.0800	5117.51	3.9530	3.9530	-0.7450	6.10	0.12	-0.750			
0.0822	5260.37	3.9500	3.9499	-0.7519	6.10	0.12	-0.750			
0.0845	5405.35	3.9470	3.9469	-0.7525	6.11	0.13	-0.750			
0.0868	5553.87	3.9440	3.9441	-0.7559	6.11	0.13	-0.750			
0.0890	5698.10	3.9410	3.9409	-0.7546	6.12	0.14	-0.750			
0.0913	5842.03	3.9380	3.9381	-0.7541	6.13	0.15	-0.750			
0.0935	5983.58	3.9350	3.9350	-0.7540	6.13	0.15	-0.750			
0.0958	6130.59	3.9320	3.9320	-0.7655	6.14	0.16	-0.750			
0.0981	6277.56	3.9290	3.9290	-0.7672	6.15	0.17	-0.750			
0.1004	6427.29	3.9260	3.9260	-0.7705	6.16	0.18	-0.750			
0.1028	6577.01	3.9230	3.9231	-0.7796	6.17	0.19	-0.750			
0.1051	6726.50	3.9200	3.9200	-0.7743	6.18	0.20	-0.750			
0.1074	6875.67	3.9170	3.9169	-0.7713	6.19	0.21	-0.750			
0.1097	7022.61	3.9140	3.9140	-0.7688	6.20	0.22	-0.750			
0.1120	7169.14	3.9110	3.9111	-0.7750	6.20	0.22	-0.750			
0.1144	7318.92	3.9080	3.9079	-0.7760	6.21	0.23	-0.750			
0.1167	7467.39	3.9050	3.9049	-0.7788	6.22	0.24	-0.750			
0.1190	7615.15	3.9020	3.9021	-0.7830	6.23	0.25	-0.750			
0.1214	7768.50	3.8990	3.8988	-0.7922	6.23	0.25	-0.750			
0.1238	7923.52	3.8960	3.8959	-0.7920	6.24	0.26	-0.750			
0.1262	8075.78	3.8930	3.8931	-0.7897	6.25	0.27	-0.750			
0.1285	8226.85	3.8900	3.8900	-0.7907	6.26	0.28	-0.750			
0.1309	8379.60	3.8870	3.8870	-0.7960	6.26	0.28	-0.750			
0.1333	8529.75	3.8840	3.8839	-0.7948	6.27	0.29	-0.750			
0.1357	8681.66	3.8810	3.8812	-0.8002	6.28	0.30	-0.750			
0.1381	8837.60	3.8780	3.8780	-0.7994	6.29	0.31	-0.750			
0.1405	8993.36	3.8750	3.8749	-0.7979	6.30	0.32	-0.750			
0.1429	9146.89	3.8720	3.8721	-0.7943	6.30	0.32	-0.750			
0.1453	9299.12	3.8690	3.8688	-0.7937	6.31	0.33	-0.750			
0.1476	9448.41	3.8660	3.8662	-0.7912	6.32	0.34	-0.750			
0.1500	9598.46	3.8630	3.8628	-0.7932	6.33	0.35	-0.750			
0.1524	9752.33	3.8600	3.8600	-0.7980	6.33	0.35	-0.750			
0.1548	9907.25	3.8570	3.8569	-0.8058	6.34	0.36	-0.750			
0.1572	10060.30	3.8540	3.8542	-0.8138	6.35	0.37	-0.750			
0.1597	10220.83	3.8510	3.8509	-0.8125	6.36	0.38	-0.750			
0.1621	10376.70	3.8480	3.8480	-0.8145	6.36	0.38	-0.750			
0.1645	10530.76	3.8450	3.8451	-0.8167	6.37	0.39	-0.750			
0.1670	10689.52	3.8420	3.8419	-0.8160	6.38	0.40	-0.750			
0.1695	10847.94	3.8390	3.8389	-0.8173	6.39	0.41	-0.750			
0.1719	11002.57	3.8360	3.8360	-0.8210	6.40	0.42	-0.750			
0.1744	11160.29	3.8330	3.8329	-0.8217	6.40	0.42	-0.750			
0.1769	11320.16	3.8300	3.8299	-0.8307	6.41	0.43	-0.750			
0.1794	11479.20	3.8270	3.8271	-0.8258	6.42	0.44	-0.750			
0.1818	11636.37	3.8240	3.8241	-0.8319	6.43	0.45	-0.750			
0.1844	11800.11	3.8210	3.8210	-0.8371	6.44	0.46	-0.750			
0.1869	11960.42	3.8180	3.8179	-0.8337	6.44	0.46	-0.750			
0.1893	12118.31	3.8150	3.8150	-0.8353	6.45	0.47	-0.750			
0.1919	12280.72	3.8120	3.8121	-0.8383	6.46	0.48	-0.750			
0.1944	12441.67	3.8090	3.8089	-0.8343	6.47	0.49	-0.750			
0.1969	12601.94	3.8060	3.8059	-0.8361	6.48	0.50	-0.750			
0.1994	12760.55	3.8030	3.8031	-0.8290	6.49	0.51	-0.750			
0.2019	12919.91	3.8000	3.8000	-0.8417	6.50	0.52	-0.750			
0.2044	13083.34	3.7970	3.7968	-0.8402	6.50	0.52	-0.750			
0.2069	13243.45	3.7940	3.7941	-0.8395	6.51	0.53	-0.750			
0.2095	13407.28	3.7910	3.7910	-0.8438	6.52	0.54	-0.750			
0.2121	13571.94	3.7880	3.7881	-0.8418	6.52	0.54	-0.750			
0.2146	13731.30	3.7850	3.7849	-0.8434	6.53	0.55	-0.750			
0.2171	13892.50	3.7820	3.7820	-0.8393	6.55	0.57	-0.750			
0.2195	14050.96	3.7790	3.7790	-0.8370	6.55	0.57	-0.750			
0.2221	14213.31	3.7760	3.7758	-0.8440	6.57	0.59	-0.750			
0.2246	14375.22	3.7730	3.7731	-0.8450	6.57	0.59	-0.750			
0.2272	14538.01	3.7700	3.7699	-0.8512	6.58	0.60	-0.750			
0.2297	14702.78	3.7670	3.7669	-0.8563	6.59	0.61	-0.750			
0.2323	14865.58	3.7640	3.7641	-0.8514	6.60	0.62	-0.750			
0.2349	15032.23	3.7610	3.7609	-0.8607	6.61	0.63	-0.750			
0.2375	15197.96	3.7580	3.7580	-0.8599	6.61	0.63	-0.750			
0.2400	15362.93	3.7550	3.7550	-0.8661	6.62	0.64	-0.750			
0.2426	15529.46	3.7520	3.7520	-0.8636	6.63	0.65	-0.750			
0.2452	15693.89	3.7490	3.7489	-0.8624	6.63	0.65	-0.750			
0.2478	15861.79	3.7460	3.7461	-0.8679	6.64	0.66	-0.750			
0.2505	16029.37	3.7430	3.7429	-0.8689	6.65	0.67	-0.750			
0.2531	16195.40	3.7400	3.7400	-0.8792	6.66	0.68	-0.750			
0.2557	16366.15	3.7370	3.7369	-0.8832	6.66	0.68	-0.750			
0.2584	16534.50	3.7340	3.7340	-0.8826	6.67	0.69	-0.750			
0.2611	16708.07	3.7310	3.7313	-0.8912	6.68	0.70	-0.750			
0.2637	16877.95	3.7280	3.7281	-0.8906	6.69	0.71	-0.750			
0.2664	17050.00	3.7250	3.7249	-0.8859	6.70	0.72	-0.750			
0.2690	17217.99	3.7220	3.7220	-0.8854	6.71	0.73	-0.750			
0.2717	17387.87	3.7190	3.7190	-0.8866	6.71	0.73	-0.750			
0.2743	17557.31	3.7160	3.7161	-0.8918	6.72	0.74	-0.750			
0.2770	17729.33	3.7130	3.7129	-0.9004	6.73	0.75	-0.750			
0.2797	17902.89	3.7100	3.7101	-0.9041	6.73	0.75	-0.750			
0.2825	18078.10	3.7070	3.7068	-0.9075	6.73	0.75	-0.750			
0.2852	18254.61	3.7040	3.7041	-0.9122	6.74	0.76	-0.750			
0.2879	18426.87	3.7010	3.7010	-0.9197	6.75	0.77	-0.750			
0.2907	18605.58	3.6980	3.6981	-0.9237	6.76	0.78	-0.750			
0.2935	18783.74	3.6950	3.6948	-0.9228	6.76	0.78	-0.750			
0.2963	18960.82	3.6920	3.6920	-0.9257	6.77	0.79	-0.750			
0.2991	19139.79	3.6890	3.6891	-0.9345	6.78	0.80	-0.750			
0.3018	19318.37	3.6860	3.6860	-0.9483	6.79	0.81	-0.750			
0.3047	19501.35	3.6830	3.6828	-0.9547	6.80	0.82	-0.750			
0.3076	19685.88	3.6800	3.6800	-0.9578	6.80	0.82	-0.750			
0.3105	19873.86	3.6770	3.6773	-0.9688	6.81	0.83	-0.750			
0.3135	20062.05	3.6740	3.6740	-0.9780	6.82	0.84	-0.750			
0.3164	20247.67	3.6710	3.6711	-0.9804	6.82	0.84	-0.750			
0.3192	20431.55	3.6680	3.6679	-0.9838	6.83	0.85	-0.750			
0.3222	20623.20	3.6650	3.6648	-0.9962	6.84	0.86	-0.750			
0.3252	20815.28	3.6620	3.6619	-1.0096	6.84	0.86	-0.750			
0.3283	21013.69	3.6590	3.6591	-1.0163	6.85	0.87	-0.750			
0.3314	21207.25	3.6560	3.6560	-1.0225	6.86	0.88	-0.750			
0.3344	21400.96	3.6530	3.6530	-1.0302	6.87	0.89	-0.750			
0.3375	21597.84	3.6500	3.6498	-1.0461	6.87	0.89	-0.750			
0.3407	21802.43	3.6470	3.6470	-1.0629	6.88	0.90	-0.750			
0.3440	22014.87	3.6440	3.6439	-1.0694	6.88	0.90	-0.750			
0.3472	22220.34	3.6410	3.6411	-1.0685	6.89	0.91	-0.750			
0.3504	22426.49	3.6380	3.6382	-1.0793	6.90	0.92	-0.750			
0.3536	22631.05	3.6350	3.6349	-1.0720	6.90	0.92	-0.750			
0.3568	22835.45	3.6320	3.6318	-1.0765	6.91	0.93	-0.750			
0.3600	23039.50	3.6290	3.6291	-1.0767	6.92	0.94	-0.750			
0.3633	23248.60	3.6260	3.6261	-1.1022	6.92	0.94	-0.750			
0.3666	23462.22	3.6230	3.6229	-1.1199	6.93	0.95	-0.750			
0.3699	23675.64	3.6200	3.6200	-1.1285	6.93	0.95	-0.750			
0.3733	23893.95	3.6170	3.6172	-1.1411	6.94	0.96	-0.750			
0.3769	24119.52	3.6140	3.6140	-1.1599	6.95	0.97	-0.750			
0.3804	24342.85	3.6110	3.6110	-1.1685	6.96	0.98	-0.750			
0.3838	24566.02	3.6080	3.6079	-1.1833	6.97	0.99	-0.750			
0.3874	24792.91	3.6050	3.6050	-1.1952	6.97	0.99	-0.750			
0.3910	25024.68	3.6020	3.6019	-1.2080	6.98	1.00	-0.750			
0.3947	25258.19	3.5990	3.5990	-1.2247	6.98	1.00	-0.750			
0.3984	25495.15	3.5960	3.5961	-1.2370	6.99	1.01	-0.750	0.410	0.938	
0.4021	25737.40	3.5930	3.5929	-1.2472	7.00	1.02	-0.750			
0.4059	25977.35	3.5900	3.5900	-1.2526	7.01	1.03	-0.750			
0.4096	26217.54	3.5870	3.5871	-1.2541	7.02	1.04	-0.750			
0.4134	26459.24	3.5840	3.5840	-1.2688	7.03	1.05	-0.750			
0.4172	26702.56	3.5810	3.5809	-1.2786	7.04	1.06	-0.750			
0.4210	26945.16	3.5780	3.5780	-1.2861	7.04	1.06	-0.750			
0.4249	27194.89	3.5750	3.5751	-1.2989	7.05	1.07	-0.750			
0.4289	27449.61	3.5720	3.5720	-1.3154	7.06	1.08	-0.750			
0.4328	27701.53	3.5690	3.5689	-1.3246	7.07	1.09	-0.750			
0.4368	27957.80	3.5660	3.5661	-1.3383	7.07	1.09	-0.750			
0.4409	28214.65	3.5630	3.5630	-1.3434	7.08	1.10	-0.750			
0.4449	28475.43	3.5600	3.5600	-1.3477	7.09	1.11	-0.750			
0.4490	28735.15	3.5570	3.5571	-1.3653	7.10	1.12	-0.750			
0.4531	28997.04	3.5540	3.5539	-1.3945	7.11	1.13	-0.750			
0.4573	29265.16	3.5510	3.5509	-1.4085	7.11	1.13	-0.750			
0.4616	29539.94	3.5480	3.5481	-1.4113	7.12	1.14	-0.750			
0.4659	29816.31	3.5450	3.5453	-1.4287	7.13	1.15	-0.750			
0.4701	30089.38	3.5420	3.5419	-1.4433	7.14	1.16	-0.750			
0.4745	30366.52	3.5390	3.5391	-1.4476	7.15	1.17	-0.750			
0.4788	30642.57	3.5360	3.5358	-1.4521	7.16	1.18	-0.750			
0.4832	30922.96	3.5330	3.5329	-1.4656	7.17	1.19	-0.750			
0.4876	31206.44	3.5300	3.5300	-1.4624	7.18	1.20	-0.750			
0.4921	31491.39	3.5270	3.5270	-1.4807	7.19	1.21	-0.750			
0.4965	31776.20	3.5240	3.5239	-1.4743	7.21	1.23	-0.750			
0.5009	32059.19	3.5210	3.5209	-1.4557	7.22	1.24	-0.750			
0.5053	32338.54	3.5180	3.5180	-1.4740	7.23	1.25	-0.750			
0.5096	32617.07	3.5150	3.5152	-1.4852	7.24	1.26	-0.750			
0.5141	32903.73	3.5120	3.5118	-1.4832	7.25	1.27	-0.750			
0.5186	33191.97	3.5090	3.5090	-1.5091	7.27	1.29	-0.750			
0.5232	33484.95	3.5060	3.5062	-1.5152	7.28	1.30	-0.750			
0.5278	33780.97	3.5030	3.5029	-1.5234	7.29	1.31	-0.750			
0.5325	34079.57	3.5000	3.4998	-1.5252	7.30	1.32	-0.750			
0.5370	34368.36	3.4970	3.4971	-1.4951	7.31	1.33	-0.750			
0.5415	34656.53	3.4940	3.4939	-1.4861	7.32	1.34	-0.750			
0.5459	34937.17	3.4910	3.4909	-1.4882	7.33	1.35	-0.750			
0.5502	35215.26	3.4880	3.4880	-1.4698	7.35	1.37	-0.750			
0.5547	35503.29	3.4850	3.4848	-1.4757	7.36	1.38	-0.750			
0.5592	35787.68	3.4820	3.4819	-1.4727	7.37	1.39	-0.750			
0.5636	36070.48	3.4790	3.4790	-1.4602	7.39	1.41	-0.750			
0.5680	36354.30	3.4760	3.4760	-1.4576	7.41	1.43	-0.750			
0.5723	36629.90	3.4730	3.4730	-1.4525	7.43	1.45	-0.750			
0.5767	36905.99	3.4700	3.4699	-1.4347	7.44	1.46	-0.750			
0.5810	37186.68	3.4670	3.4669	-1.4189	7.45	1.47	-0.750			
0.5852	37455.32	3.4640	3.4642	-1.4149	7.47	1.49	-0.750			
0.5895	37725.45	3.4610	3.4610	-1.3976	7.48	1.50	-0.750			
0.5937	37994.26	3.4580	3.4578	-1.3930	7.49	1.51	-0.750			
0.5978	38259.97	3.4550	3.4552	-1.3808	7.50	1.52	-0.750			
0.6019	38522.44	3.4520	3.4520	-1.3634	7.51	1.53	-0.750			
0.6061	38792.04	3.4490	3.4490	-1.3565	7.53	1.55	-0.750			
0.6102	39050.02	3.4460	3.4462	-1.3441	7.55	1.57	-0.750			
0.6141	39301.73	3.4430	3.4429	-1.3157	7.56	1.58	-0.750			
0.6181	39556.25	3.4400	3.4399	-1.3059	7.58	1.60	-0.750			
0.6219	39802.39	3.4370	3.4371	-1.2885	7.59	1.61	-0.750			
0.6257	40047.73	3.4340	3.4339	-1.2744	7.61	1.63	-0.750			
0.6296	40294.81	3.4310	3.4310	-1.2636	7.63	1.65	-0.750			
0.6334	40536.51	3.4280	3.4279	-1.2376	7.65	1.67	-0.750			
0.6370	40770.41	3.4250	3.4251	-1.2135	7.66	1.68	-0.750			
0.6408	41008.92	3.4220	3.4221	-1.1917	7.68	1.70	-0.750			
0.6443	41233.29	3.4190	3.4189	-1.1570	7.69	1.71	-0.750			
0.6477	41452.01	3.4160	3.4160	-1.1234	7.71	1.73	-0.750			
0.6510	41663.34	3.4130	3.4129	-1.0978	7.72	1.74	-0.750			
0.6542	41868.73	3.4100	3.4099	-1.0692	7.74	1.76	-0.750			
0.6574	42070.86	3.4070	3.4071	-1.0504	7.75	1.77	-0.750			
0.6604	42267.95	3.4040	3.4038	-1.0329	7.77	1.79	-0.750			
0.6636	42470.52	3.4010	3.4010	-1.0190	7.78	1.80	-0.750			
0.6666	42664.25	3.3980	3.3979	-0.9933	7.80	1.82	-0.750			
0.6696	42853.90	3.3950	3.3950	-0.9642	7.81	1.83	-0.750			
0.6724	43036.00	3.3920	3.3918	-0.9342	7.83	1.85	-0.750			
0.6752	43212.35	3.3890	3.3889	-0.9075	7.84	1.86	-0.750			
0.6779	43383.04	3.3860	3.3859	-0.8794	7.86	1.88	-0.750			
0.6804	43547.80	3.3830	3.3830	-0.8494	7.87	1.89	-0.750			
0.6829	43707.66	3.3800	3.3800	-0.8216	7.88	1.90	-0.750			
0.6854	43865.95	3.3770	3.3771	-0.8030	7.90	1.92	-0.750			
0.6878	44017.24	3.3740	3.3739	-0.7876	7.91	1.93	-0.750			
0.6901	44163.81	3.3710	3.3710	-0.7656	7.93	1.95	-0.750			
0.6923	44309.38	3.3680	3.3679	-0.7474	7.94	1.96	-0.750			
0.6945	44450.92	3.3650	3.3651	-0.7305	7.96	1.98	-0.750			
0.6968	44593.33	3.3620	3.3620	-0.7133	7.97	1.99	-0.750			
0.6989	44727.66	3.3590	3.3590	-0.6906	7.98	2.00	-0.750			
0.7009	44857.20	3.3560	3.3560	-0.6709	8.00	2.02	-0.750			
0.7029	44983.03	3.3530	3.3530	-0.6497	8.01	2.03	-0.750			
0.7048	45106.61	3.3500	3.3498	-0.6343	8.02	2.04	-0.750			
0.7067	45226.98	3.3470	3.3471	-0.6196	8.03	2.05	-0.750			
0.7085	45344.24	3.3440	3.3440	-0.5994	8.05	2.07	-0.750			
0.7103	45459.52	3.3410	3.3410	-0.5837	8.06	2.08	-0.750			
0.7120	45568.78	3.3380	3.3379	-0.5649	8.07	2.09	-0.750			
0.7136	45673.05	3.3350	3.3351	-0.5482	8.08	2.10	-0.750			
0.7153	45776.93	3.3320	3.3320	-0.5381	8.09	2.11	-0.750			
0.7168	45878.31	3.3290	3.3289	-0.5228	8.10	2.12	-0.750			
0.7184	45978.12	3.3260	3.3260	-0.5129	8.11	2.13	-0.750			
0.7199	46076.41	3.3230	3.3231	-0.5046	8.13	2.15	-0.750			
0.7214	46172.76	3.3200	3.3200	-0.4942	8.14	2.16	-0.750			
0.7229	46266.44	3.3170	3.3168	-0.4805	8.15	2.17	-0.750			
0.7243	46356.30	3.3140	3.3141	-0.4664	8.16	2.18	-0.750			
0.7257	46445.13	3.3110	3.3110	-0.4564	8.17	2.19	-0.750			
0.7271	46532.89	3.3080	3.3080	-0.4473	8.18	2.20	-0.750			
0.7284	46616.27	3.3050	3.3050	-0.4357	8.19	2.21	-0.750			
0.7297	46698.71	3.3020	3.3020	-0.4251	8.20	2.22	-0.750			
0.7309	46779.38	3.2990	3.2990	-0.4172	8.21	2.23	-0.750			
0.7322	46858.85	3.2960	3.2959	-0.4094	8.22	2.24	-0.750			
0.7334	46936.54	3.2930	3.2931	-0.3995	8.23	2.25	-0.750			
0.7346	47013.15	3.2900	3.2899	-0.3900	8.24	2.26	-0.750			
0.7357	47086.94	3.2870	3.2871	-0.3801	8.25	2.27	-0.750			
0.7368	47157.78	3.2840	3.2840	-0.3711	8.26	2.28	-0.750			
0.7379	47228.58	3.2810	3.2810	-0.3651	8.27	2.29	-0.750			
0.7390	47297.67	3.2780	3.2779	-0.3601	8.28	2.30	-0.750			
0.7401	47365.55	3.2750	3.2750	-0.3555	8.29	2.31	-0.750			
0.7412	47433.87	3.2720	3.2720	-0.3512	8.31	2.33	-0.750			
0.7422	47501.25	3.2690	3.2690	-0.3454	8.32	2.34	-0.750			
0.7432	47567.43	3.2660	3.2660	-0.3391	8.33	2.35	-0.750			
0.7442	47631.91	3.2630	3.2631	-0.3323	8.34	2.36	-0.750			
0.7452	47695.05	3.2600	3.2600	-0.3271	8.35	2.37	-0.750			
0.7462	47756.99	3.2570	3.2568	-0.3205	8.36	2.38	-0.750			
0.7472	47817.97	3.2540	3.2539	-0.3127	8.36	2.38	-0.750			
0.7481	47877.28	3.2510	3.2510	-0.3079	8.37	2.39	-0.750			
0.7490	47936.16	3.2480	3.2480	-0.3036	8.38	2.40	-0.750			
0.7499	47993.90	3.2450	3.2449	-0.2970	8.39	2.41	-0.750			
0.7508	48050.27	3.2420	3.2419	-0.2909	8.40	2.42	-0.750			
0.7516	48105.35	3.2390	3.2392	-0.2853	8.41	2.43	-0.750			
0.7525	48160.04	3.2360	3.2359	-0.2811	8.42	2.44	-0.750			
0.7533	48213.68	3.2330	3.2330	-0.2758	8.43	2.45	-0.750			
0.7541	48265.21	3.2300	3.2300	-0.2684	8.44	2.46	-0.750			
0.7549	48315.68	3.2270	3.2270	-0.2661	8.44	2.46	-0.750			
0.7557	48367.21	3.2240	3.2241	-0.2629	8.45	2.47	-0.750			
0.7565	48417.39	3.2210	3.2209	-0.2579	8.46	2.48	-0.750			
0.7573	48466.57	3.2180	3.2179	-0.2545	8.47	2.49	-0.750			
0.7580	48514.64	3.2150	3.2153	-0.2522	8.48	2.50	-0.750			
0.7588	48563.10	3.2120	3.2119	-0.2483	8.49	2.51	-0.750			
0.7595	48610.56	3.2090	3.2089	-0.2451	8.49	2.51	-0.750			
0.7603	48657.14	3.2060	3.2061	-0.2412	8.50	2.52	-0.750			
0.7610	48702.70	3.2030	3.2031	-0.2363	8.50	2.52	-0.750			
0.7617	48748.27	3.2000	3.2001	-0.2351	8.51	2.53	-0.750			
0.7624	48792.60	3.1970	3.1970	-0.2309	8.52	2.54	-0.750			
0.7631	48836.21	3.1940	3.1940	-0.2280	8.53	2.55	-0.750			
0.7638	48880.62	3.1910	3.1909	-0.2263	8.54	2.56	-0.750			
0.7644	48923.19	3.1880	3.1880	-0.2239	8.55	2.57	-0.750			
0.7651	48966.05	3.1850	3.1852	-0.2225	8.56	2.58	-0.750			
0.7658	49008.82	3.1820	3.1820	-0.2200	8.57	2.59	-0.750			
0.7664	49051.03	3.1790	3.1789	-0.2183	8.58	2.60	-0.750			
0.7671	49092.32	3.1760	3.1761	-0.2149	8.58	2.60	-0.750			
0.7677	49133.59	3.1730	3.1730	-0.2125	8.59	2.61	-0.750			
0.7684	49174.71	3.1700	3.1700	-0.2097	8.60	2.62	-0.750			
0.7690	49215.10	3.1670	3.1670	-0.2067	8.61	2.63	-0.750			
0.7696	49253.98	3.1640	3.1639	-0.2027	8.62	2.64	-0.750			
0.7702	49292.56	3.1610	3.1610	-0.1998	8.62	2.64	-0.750			
0.7708	49330.51	3.1580	3.1581	-0.1979	8.63	2.65	-0.750			
0.7714	49367.74	3.1550	3.1549	-0.1950	8.64	2.66	-0.750			
0.7720	49404.88	3.1520	3.1520	-0.1931	8.64	2.66	-0.750			
0.7725	49441.78	3.1490	3.1489	-0.1918	8.65	2.67	-0.750			
0.7731	49478.63	3.1460	3.1460	-0.1909	8.66	2.68	-0.750			
0.7737	49515.29	3.1430	3.1430	-0.1885	8.67	2.69	-0.750			
0.7742	49551.52	3.1400	3.1400	-0.1859	8.67	2.69	-0.750			
0.7748	49587.22	3.1370	3.1370	-0.1834	8.68	2.70	-0.750			
0.7753	49622.03	3.1340	3.1341	-0.1799	8.69	2.71	-0.750			
0.7759	49656.17	3.1310	3.1309	-0.1776	8.70	2.72	-0.750			
0.7764	49689.98	3.1280	3.1280	-0.1752	8.70	2.72	-0.750			
0.7769	49722.68	3.1250	3.1250	-0.1734	8.71	2.73	-0.750			
0.7774	49755.92	3.1220	3.1220	-0.1728	8.72	2.74	-0.750			
0.7780	49788.85	3.1190	3.1190	-0.1724	8.72	2.74	-0.750			
0.7785	49822.12	3.1160	3.1159	-0.1710	8.73	2.75	-0.750			
0.7790	49854.97	3.1130	3.1131	-0.1704	8.74	2.76	-0.750			
0.7795	49887.59	3.1100	3.1101	-0.1694	8.75	2.77	-0.750			
0.7800	49920.28	3.1070	3.1071	-0.1674	8.75	2.77	-0.750			
0.7805	49952.57	3.1040	3.1039	-0.1657	8.76	2.78	-0.750			
0.7810	49983.87	3.1010	3.1010	-0.1627	8.77	2.79	-0.750			
0.7815	50014.90	3.0980	3.0979	-0.1607	8.77	2.79	-0.750			
0.7820	50045.25	3.0950	3.0950	-0.1600	8.78	2.80	-0.750			
0.7824	50075.59	3.0920	3.0921	-0.1597	8.79	2.81	-0.750			
0.7829	50105.65	3.0890	3.0890	-0.1586	8.79	2.81	-0.750			
0.7834	50136.40	3.0860	3.0858	-0.1584	8.80	2.82	-0.750			
0.7839	50167.37	3.0830	3.0830	-0.1572	8.80	2.82	-0.750			
0.7843	50197.78	3.0800	3.0801	-0.1564	8.81	2.83	-0.750			
0.7848	50227.60	3.0770	3.0770	-0.1542	8.82	2.84	-0.750			
0.7853	50257.17	3.0740	3.0741	-0.1531	8.82	2.84	-0.750			
0.7857	50285.91	3.0710	3.0710	-0.1510	8.83	2.85	-0.750			
0.7862	50314.40	3.0680	3.0680	-0.1494	8.84	2.86	-0.750			
0.7866	50343.07	3.0650	3.0649	-0.1488	8.84	2.86	-0.750			
0.7871	50371.59	3.0620	3.0620	-0.1482	8.85	2.87	-0.750			
0.7875	50400.18	3.0590	3.0590	-0.1479	8.86	2.88	-0.750			
0.7879	50428.49	3.0560	3.0560	-0.1470	8.86	2.88	-0.750			
0.7884	50456.64	3.0530	3.0530	-0.1459	8.87	2.89	-0.750			
0.7888	50484.70	3.0500	3.0500	-0.1443	8.88	2.90	-0.750			
0.7893	50512.43	3.0470	3.0469	-0.1430	8.89	2.91	-0.750			
0.7897	50539.71	3.0440	3.0442	-0.1411	8.89	2.91	-0.750			
0.7901	50566.51	3.0410	3.0410	-0.1403	8.90	2.92	-0.750			
0.7905	50593.09	3.0380	3.0380	-0.1392	8.91	2.93	-0.750			
0.7909	50619.76	3.0350	3.0349	-0.1379	8.91	2.93	-0.750			
0.7913	50646.16	3.0320	3.0319	-0.1371	8.92	2.94	-0.750			
0.7918	50672.36	3.0290	3.0291	-0.1367	8.93	2.95	-0.750			
0.7922	50698.77	3.0260	3.0261	-0.1362	8.93	2.95	-0.750			
0.7926	50724.87	3.0230	3.0230	-0.1353	8.94	2.96	-0.750			
0.7930	50750.74	3.0200	3.0199	-0.1342	8.94	2.96	-0.750			
0.7934	50776.12	3.0170	3.0171	-0.1334	8.95	2.97	-0.750			
0.7938	50801.64	3.0140	3.0140	-0.1330	8.96	2.98	-0.750			
0.7942	50827.25	3.0110	3.0110	-0.1328	8.96	2.98	-0.750			
0.7946	50852.70	3.0080	3.0080	-0.1322	8.97	2.99	-0.750			
0.7950	50877.82	3.0050	3.0050	-0.1326	8.98	3.00	-0.750			
0.7954	50903.32	3.0020	3.0021	-0.1324	8.98	3.00	-0.750			
