Ah_balance (normalized)	Ah_balance (mAh)	Voltage - fit (V)	Voltage -  interpolate (V)	dQ/dV (1/V)	Temperature (°C)	Temperature - diff (°C)	Current (C)	R_DC 0ms (mOhm)	R_DC 50ms (mOhm)	R_DC 50 ms PEC (mOhm)
0.0918	5878.30	4.1970	4.1991	0.8850	8.29	2.30	0.750			
0.0946	6052.37	4.1940	4.1953	0.8717	8.28	2.29	0.750			
0.0971	6214.18	4.1910	4.1915	0.8199	8.28	2.29	0.750			
0.0994	6360.71	4.1880	4.1882	0.7736	8.27	2.28	0.750			
0.1017	6510.35	4.1850	4.1850	0.7413	8.26	2.27	0.750			
0.1038	6640.34	4.1820	4.1819	0.7100	8.26	2.27	0.750			
0.1059	6775.62	4.1790	4.1791	0.7171	8.25	2.26	0.750			
0.1081	6916.07	4.1760	4.1759	0.7231	8.25	2.26	0.750			
0.1102	7055.25	4.1730	4.1730	0.7288	8.24	2.25	0.750			
0.1125	7197.73	4.1700	4.1700	0.7284	8.24	2.25	0.750			
0.1147	7337.67	4.1670	4.1671	0.7286	8.24	2.25	0.750			
0.1169	7480.19	4.1640	4.1640	0.7253	8.23	2.24	0.750			
0.1190	7616.31	4.1610	4.1611	0.7194	8.23	2.24	0.750			
0.1211	7752.39	4.1580	4.1580	0.7215	8.23	2.24	0.750			
0.1233	7891.09	4.1550	4.1551	0.7260	8.22	2.23	0.750			
0.1255	8029.75	4.1520	4.1520	0.7270	8.22	2.23	0.750			
0.1277	8170.95	4.1490	4.1491	0.7376	8.21	2.22	0.750			
0.1299	8312.92	4.1460	4.1460	0.7396	8.21	2.22	0.750			
0.1321	8457.07	4.1430	4.1429	0.7469	8.20	2.21	0.750			
0.1344	8599.15	4.1400	4.1400	0.7470	8.20	2.21	0.750			
0.1366	8743.04	4.1370	4.1370	0.7516	8.19	2.20	0.750			
0.1389	8888.45	4.1340	4.1339	0.7556	8.19	2.20	0.750			
0.1412	9034.41	4.1310	4.1310	0.7570	8.18	2.19	0.750			
0.1434	9179.01	4.1280	4.1280	0.7572	8.17	2.18	0.750			
0.1457	9324.98	4.1250	4.1250	0.7605	8.17	2.18	0.750			
0.1480	9470.95	4.1220	4.1221	0.7607	8.16	2.17	0.750			
0.1503	9616.96	4.1190	4.1190	0.7625	8.16	2.17	0.750			
0.1525	9763.16	4.1160	4.1160	0.7664	8.15	2.16	0.750			
0.1549	9911.39	4.1130	4.1130	0.7690	8.15	2.16	0.750			
0.1572	10059.76	4.1100	4.1100	0.7735	8.14	2.15	0.750			
0.1595	10208.02	4.1070	4.1070	0.7763	8.14	2.15	0.750			
0.1618	10356.54	4.1040	4.1041	0.7830	8.13	2.14	0.750			
0.1642	10508.20	4.1010	4.1010	0.7849	8.13	2.14	0.750			
0.1666	10660.47	4.0980	4.0978	0.7833	8.12	2.13	0.750			
0.1689	10810.72	4.0950	4.0951	0.7842	8.12	2.13	0.750			
0.1713	10962.60	4.0920	4.0919	0.7818	8.11	2.12	0.750			
0.1736	11110.28	4.0890	4.0890	0.7803	8.11	2.12	0.750			
0.1759	11257.48	4.0860	4.0862	0.7882	8.11	2.12	0.750			
0.1783	11409.82	4.0830	4.0830	0.7945	8.10	2.11	0.750			
0.1807	11564.44	4.0800	4.0798	0.8027	8.09	2.10	0.750			
0.1831	11720.77	4.0770	4.0771	0.8066	8.09	2.10	0.750			
0.1856	11877.42	4.0740	4.0741	0.8097	8.08	2.09	0.750			
0.1880	12033.48	4.0710	4.0709	0.8086	8.08	2.09	0.750			
0.1904	12187.19	4.0680	4.0680	0.8020	8.07	2.08	0.750			
0.1928	12338.48	4.0650	4.0650	0.8088	8.07	2.08	0.750			
0.1952	12495.50	4.0620	4.0620	0.8178	8.06	2.07	0.750			
0.1977	12653.27	4.0590	4.0590	0.8215	8.05	2.06	0.750			
0.2002	12812.27	4.0560	4.0561	0.8271	8.05	2.06	0.750			
0.2027	12971.80	4.0530	4.0531	0.8280	8.04	2.05	0.750			
0.2052	13130.66	4.0500	4.0501	0.8338	8.04	2.05	0.750			
0.2077	13291.14	4.0470	4.0470	0.8362	8.03	2.04	0.750			
0.2102	13450.24	4.0440	4.0441	0.8367	8.02	2.03	0.750			
0.2127	13612.10	4.0410	4.0410	0.8466	8.02	2.03	0.750			
0.2153	13776.28	4.0380	4.0381	0.8473	8.01	2.02	0.750			
0.2178	13940.07	4.0350	4.0349	0.8531	8.01	2.02	0.750			
0.2204	14104.98	4.0320	4.0320	0.8523	8.01	2.02	0.750			
0.2229	14266.42	4.0290	4.0291	0.8561	8.00	2.01	0.750			
0.2255	14432.45	4.0260	4.0260	0.8601	8.00	2.01	0.750			
0.2281	14599.22	4.0230	4.0230	0.8525	7.99	2.00	0.750			
0.2307	14761.79	4.0200	4.0200	0.8565	7.98	1.99	0.750			
0.2332	14927.04	4.0170	4.0170	0.8626	7.98	1.99	0.750			
0.2358	15090.75	4.0140	4.0141	0.8615	7.97	1.98	0.750			
0.2384	15257.58	4.0110	4.0110	0.8648	7.97	1.98	0.750			
0.2410	15423.63	4.0080	4.0080	0.8549	7.96	1.97	0.750			
0.2436	15588.69	4.0050	4.0051	0.8677	7.95	1.96	0.750			
0.2461	15752.29	4.0020	4.0022	0.8753	7.95	1.96	0.750			
0.2488	15921.11	3.9990	3.9988	0.8892	7.94	1.95	0.750			
0.2515	16094.01	3.9960	3.9960	0.8965	7.93	1.94	0.750			
0.2542	16268.69	3.9930	3.9931	0.9107	7.92	1.93	0.750			
0.2570	16447.48	3.9900	3.9901	0.9125	7.92	1.93	0.750			
0.2598	16628.51	3.9870	3.9870	0.9139	7.91	1.92	0.750			
0.2625	16800.02	3.9840	3.9840	0.9013	7.90	1.91	0.750			
0.2652	16973.03	3.9810	3.9810	0.8909	7.89	1.90	0.750			
0.2678	17141.59	3.9780	3.9780	0.8957	7.89	1.90	0.750			
0.2705	17311.62	3.9750	3.9751	0.9050	7.89	1.90	0.750			
0.2732	17484.64	3.9720	3.9719	0.9096	7.88	1.89	0.750			
0.2760	17661.79	3.9690	3.9691	0.9191	7.87	1.88	0.750			
0.2787	17839.33	3.9660	3.9661	0.9324	7.87	1.88	0.750			
0.2816	18021.59	3.9630	3.9630	0.9347	7.86	1.87	0.750			
0.2844	18202.62	3.9600	3.9599	0.9432	7.85	1.86	0.750			
0.2872	18381.87	3.9570	3.9570	0.9439	7.84	1.85	0.750			
0.2901	18563.98	3.9540	3.9541	0.9394	7.83	1.84	0.750			
0.2929	18744.12	3.9510	3.9509	0.9573	7.82	1.83	0.750			
0.2958	18929.23	3.9480	3.9480	0.9616	7.81	1.82	0.750			
0.2987	19114.51	3.9450	3.9448	0.9666	7.80	1.81	0.750			
0.3017	19305.64	3.9420	3.9421	0.9750	7.79	1.80	0.750			
0.3045	19490.00	3.9390	3.9391	0.9764	7.79	1.80	0.750			
0.3075	19676.83	3.9360	3.9361	0.9867	7.78	1.79	0.750			
0.3104	19865.12	3.9330	3.9329	0.9898	7.77	1.78	0.750			
0.3134	20058.46	3.9300	3.9300	0.9963	7.77	1.78	0.750			
0.3164	20252.66	3.9270	3.9269	1.0106	7.76	1.77	0.750			
0.3195	20446.61	3.9240	3.9242	1.0149	7.75	1.76	0.750			
0.3226	20643.98	3.9210	3.9210	1.0301	7.74	1.75	0.750			
0.3256	20839.56	3.9180	3.9179	1.0292	7.74	1.75	0.750			
0.3287	21035.79	3.9150	3.9151	1.0368	7.73	1.74	0.750			
0.3318	21236.60	3.9120	3.9121	1.0555	7.72	1.73	0.750			
0.3351	21444.78	3.9090	3.9090	1.0756	7.71	1.72	0.750			
0.3383	21651.21	3.9060	3.9059	1.0790	7.70	1.71	0.750			
0.3415	21858.47	3.9030	3.9031	1.0977	7.68	1.69	0.750			
0.3448	22070.06	3.9000	3.9001	1.1128	7.67	1.68	0.750			
0.3482	22287.63	3.8970	3.8969	1.1268	7.66	1.67	0.750			
0.3516	22504.52	3.8940	3.8941	1.1401	7.65	1.66	0.750			
0.3551	22725.20	3.8910	3.8910	1.1516	7.64	1.65	0.750			
0.3586	22948.09	3.8880	3.8880	1.1582	7.63	1.64	0.750			
0.3621	23174.96	3.8850	3.8849	1.1516	7.62	1.63	0.750			
0.3655	23392.43	3.8820	3.8820	1.1633	7.61	1.62	0.750			
0.3690	23614.97	3.8790	3.8790	1.1781	7.60	1.61	0.750			
0.3725	23839.82	3.8760	3.8762	1.2034	7.59	1.60	0.750			
0.3761	24069.60	3.8730	3.8731	1.2297	7.57	1.58	0.750			
0.3799	24313.43	3.8700	3.8700	1.2525	7.56	1.57	0.750			
0.3837	24559.77	3.8670	3.8669	1.2699	7.54	1.55	0.750			
0.3876	24806.97	3.8640	3.8641	1.2920	7.53	1.54	0.750			
0.3914	25047.75	3.8610	3.8610	1.3022	7.52	1.53	0.750			
0.3953	25298.48	3.8580	3.8580	1.3258	7.50	1.51	0.750			
0.3993	25555.38	3.8550	3.8548	1.3472	7.49	1.50	0.750			
0.4034	25819.37	3.8520	3.8515	1.3601	7.47	1.48	0.750	0.406	0.926	
0.4075	26082.83	3.8490	3.8493	1.3930	7.45	1.46	0.750			
0.4118	26353.29	3.8460	3.8458	1.4219	7.43	1.44	0.750			
0.4161	26627.55	3.8430	3.8430	1.4302	7.42	1.43	0.750			
0.4204	26903.64	3.8400	3.8399	1.4606	7.40	1.41	0.750			
0.4247	27183.13	3.8370	3.8371	1.4864	7.39	1.40	0.750			
0.4292	27467.55	3.8340	3.8340	1.5183	7.37	1.38	0.750			
0.4338	27765.76	3.8310	3.8311	1.5685	7.36	1.37	0.750			
0.4386	28067.42	3.8280	3.8278	1.5938	7.34	1.35	0.750			
0.4434	28379.10	3.8250	3.8248	1.6343	7.32	1.33	0.750			
0.4485	28701.26	3.8220	3.8219	1.6733	7.29	1.30	0.750			
0.4536	29029.14	3.8190	3.8191	1.6916	7.27	1.28	0.750			
0.4586	29349.63	3.8160	3.8162	1.7162	7.25	1.26	0.750			
0.4638	29680.09	3.8130	3.8130	1.7289	7.23	1.24	0.750			
0.4690	30018.15	3.8100	3.8101	1.7741	7.21	1.22	0.750			
0.4743	30355.00	3.8070	3.8071	1.8220	7.18	1.19	0.750			
0.4798	30706.77	3.8040	3.8040	1.8797	7.15	1.16	0.750			
0.4855	31071.32	3.8010	3.8010	1.9291	7.13	1.14	0.750			
0.4915	31459.07	3.7980	3.7980	1.9631	7.10	1.11	0.750			
0.4975	31841.30	3.7950	3.7949	1.9690	7.08	1.09	0.750			
0.5036	32227.83	3.7920	3.7920	1.9759	7.05	1.06	0.750			
0.5094	32600.21	3.7890	3.7891	1.9942	7.02	1.03	0.750			
0.5153	32978.01	3.7860	3.7858	2.0293	7.00	1.01	0.750			
0.5213	33364.41	3.7830	3.7831	2.0933	6.97	0.98	0.750			
0.5277	33774.54	3.7800	3.7801	2.1655	6.94	0.95	0.750			
0.5345	34209.21	3.7770	3.7769	2.2125	6.91	0.92	0.750			
0.5412	34633.89	3.7740	3.7741	2.2566	6.88	0.89	0.750			
0.5481	35078.58	3.7710	3.7710	2.2910	6.85	0.86	0.750			
0.5550	35518.23	3.7680	3.7680	2.3101	6.81	0.82	0.750			
0.5620	35966.78	3.7650	3.7651	2.3446	6.78	0.79	0.750			
0.5691	36420.60	3.7620	3.7618	2.3588	6.75	0.76	0.750			
0.5761	36867.86	3.7590	3.7592	2.4051	6.71	0.72	0.750			
0.5833	37331.92	3.7560	3.7560	2.5370	6.68	0.69	0.750			
0.5911	37828.18	3.7530	3.7530	2.6223	6.64	0.65	0.750			
0.5992	38347.56	3.7500	3.7501	2.7738	6.61	0.62	0.750			
0.6077	38890.38	3.7470	3.7469	2.8296	6.56	0.57	0.750			
0.6162	39438.09	3.7440	3.7441	2.8892	6.53	0.54	0.750			
0.6251	40007.74	3.7410	3.7409	2.9978	6.50	0.51	0.750			
0.6341	40580.83	3.7380	3.7379	3.0723	6.45	0.46	0.750			
0.6435	41185.80	3.7350	3.7350	3.1404	6.42	0.43	0.750			
0.6531	41795.64	3.7320	3.7322	3.2838	6.38	0.39	0.750			
0.6631	42436.11	3.7290	3.7290	3.2572	6.34	0.35	0.750			
0.6730	43071.59	3.7260	3.7260	3.1905	6.30	0.31	0.750			
0.6823	43664.24	3.7230	3.7229	2.9322	6.26	0.27	0.750			
0.6907	44206.74	3.7200	3.7200	2.6273	6.24	0.25	0.750			
0.6981	44677.43	3.7170	3.7170	2.3433	6.21	0.22	0.750			
0.7045	45085.09	3.7140	3.7142	2.0244	6.19	0.20	0.750			
0.7102	45450.75	3.7110	3.7107	1.7845	6.18	0.19	0.750			
0.7149	45753.08	3.7080	3.7081	1.5996	6.16	0.17	0.750			
0.7192	46026.00	3.7050	3.7051	1.4291	6.15	0.16	0.750			
0.7233	46290.89	3.7020	3.7019	1.3492	6.14	0.15	0.750			
0.7271	46534.70	3.6990	3.6989	1.2547	6.13	0.14	0.750			
0.7306	46759.32	3.6960	3.6961	1.1944	6.12	0.13	0.750			
0.7341	46981.48	3.6930	3.6932	1.1515	6.11	0.12	0.750			
0.7375	47199.19	3.6900	3.6898	1.1066	6.10	0.11	0.750			
0.7408	47409.01	3.6870	3.6870	1.0825	6.09	0.10	0.750			
0.7439	47610.52	3.6840	3.6841	1.0574	6.08	0.09	0.750			
0.7470	47809.54	3.6810	3.6810	1.0378	6.08	0.09	0.750			
0.7501	48009.44	3.6780	3.6780	1.0202	6.07	0.08	0.750			
0.7532	48202.01	3.6750	3.6751	0.9949	6.06	0.07	0.750			
0.7562	48393.79	3.6720	3.6720	0.9786	6.05	0.06	0.750			
0.7591	48579.80	3.6690	3.6690	0.9605	6.05	0.06	0.750			
0.7619	48758.75	3.6660	3.6659	0.9419	6.04	0.05	0.750			
0.7647	48938.36	3.6630	3.6630	0.9256	6.04	0.05	0.750			
0.7674	49112.60	3.6600	3.6599	0.9196	6.03	0.04	0.750			
0.7702	49290.02	3.6570	3.6571	0.9175	6.03	0.04	0.750			
0.7729	49465.65	3.6540	3.6540	0.9119	6.02	0.03	0.750			
0.7756	49639.66	3.6510	3.6510	0.9127	6.02	0.03	0.750			
0.7784	49814.69	3.6480	3.6481	0.9008	6.01	0.02	0.750			
0.7810	49986.53	3.6450	3.6450	0.9000	6.01	0.02	0.750			
0.7837	50157.46	3.6420	3.6421	0.9149	6.00	0.01	0.750			
0.7864	50331.30	3.6390	3.6388	0.9223	6.00	0.01	0.750			
0.7893	50513.18	3.6360	3.6359	0.9227	6.00	0.01	0.750			
0.7921	50694.36	3.6330	3.6330	0.9088	6.00	0.01	0.750			
0.7950	50879.57	3.6300	3.6300	0.8654	5.99	0.00	0.750			
0.7976	51048.87	3.6270	3.6270	0.7948	5.99	0.00	0.750			
0.8000	51197.36	3.6240	3.6241	0.6976	5.99	-0.00	0.750			
0.8019	51320.86	3.6210	3.6210	0.5885	5.99	-0.00	0.750			
0.8035	51421.42	3.6180	3.6180	0.4830	5.99	-0.00	0.750			
0.8046	51493.95	3.6150	3.6151	0.4078	5.99	-0.00	0.750			
0.8056	51560.32	3.6120	3.6121	0.3152	5.98	-0.01	0.750			
0.8064	51612.70	3.6090	3.6088	0.2470	5.98	-0.01	0.750			
0.8070	51649.51	3.6060	3.6053	0.1794	5.98	-0.01	0.750			
0.8074	51676.43	3.6030	3.6006	0.1223	5.98	-0.01	0.750			
0.8076	51687.67	3.5910	3.5701	-0.0700	5.98	-0.01	0.751			
0.8076	51688.14	3.6000	3.5642	0.0684	5.98	-0.01	0.751			
0.8078	51696.68	3.5940	3.4547	-0.0239	5.98	-0.01	0.759			
0.8078	51696.84	3.5970	3.4527	0.0222	5.98	-0.01	0.759			
