Ah_balance (normalized)	Ah_balance (mAh)	Voltage - fit (V)	Voltage -  interpolate (V)	dQ/dV (1/V)	Temperature (°C)	Temperature - diff (°C)	Current (C)	R_DC 0ms (mOhm)	R_DC 50ms (mOhm)	R_DC 50 ms PEC (mOhm)
0.0000	0.00	4.0890	4.1313	0.0000	5.97	-0.02	-0.749			
0.0000	0.00	4.0920	4.1313	0.0000	5.97	-0.02	-0.749			
0.0000	0.00	4.0950	4.1313	0.0000	5.97	-0.02	-0.749			
0.0002	11.57	4.0860	4.0869	-0.0522	5.97	-0.02	-0.750			
0.0004	24.00	4.0830	4.0831	-0.0773	5.97	-0.02	-0.750			
0.0007	41.67	4.0800	4.0799	-0.1013	5.97	-0.02	-0.750			
0.0010	63.58	4.0770	4.0769	-0.1256	5.97	-0.02	-0.750			
0.0014	90.14	4.0740	4.0740	-0.1495	5.98	-0.01	-0.750			
0.0019	121.17	4.0710	4.0710	-0.1738	5.98	-0.01	-0.750			
0.0025	157.64	4.0680	4.0679	-0.1959	5.98	-0.01	-0.750			
0.0031	197.40	4.0650	4.0650	-0.2163	5.98	-0.01	-0.750			
0.0038	240.77	4.0620	4.0621	-0.2389	5.98	-0.01	-0.750			
0.0045	288.28	4.0590	4.0591	-0.2636	5.98	-0.01	-0.750			
0.0053	340.85	4.0560	4.0559	-0.2869	5.98	-0.01	-0.750			
0.0062	397.93	4.0530	4.0530	-0.3108	5.98	-0.01	-0.750			
0.0072	460.03	4.0500	4.0501	-0.3352	5.98	-0.01	-0.750			
0.0083	528.21	4.0470	4.0470	-0.3553	5.99	-0.00	-0.750			
0.0094	598.66	4.0440	4.0440	-0.3766	5.99	-0.00	-0.750			
0.0105	672.93	4.0410	4.0411	-0.3952	5.99	-0.00	-0.750			
0.0117	750.18	4.0380	4.0380	-0.4147	5.99	0.00	-0.750			
0.0130	831.87	4.0350	4.0351	-0.4324	5.99	0.00	-0.750			
0.0143	915.90	4.0320	4.0320	-0.4517	6.00	0.01	-0.750			
0.0157	1004.40	4.0290	4.0290	-0.4716	6.00	0.01	-0.750			
0.0172	1097.61	4.0260	4.0260	-0.4904	6.00	0.01	-0.750			
0.0186	1193.00	4.0230	4.0229	-0.5035	6.00	0.01	-0.750			
0.0202	1291.41	4.0200	4.0202	-0.5238	6.01	0.02	-0.750			
0.0218	1393.41	4.0170	4.0168	-0.5430	6.01	0.02	-0.750			
0.0234	1500.07	4.0140	4.0141	-0.5615	6.01	0.02	-0.750			
0.0251	1609.34	4.0110	4.0110	-0.5786	6.01	0.02	-0.750			
0.0269	1723.38	4.0080	4.0080	-0.5941	6.02	0.03	-0.750			
0.0288	1840.17	4.0050	4.0051	-0.6065	6.02	0.03	-0.750			
0.0306	1958.65	4.0020	4.0019	-0.6156	6.03	0.04	-0.750			
0.0324	2076.75	3.9990	3.9991	-0.6191	6.03	0.04	-0.750			
0.0343	2195.86	3.9960	3.9960	-0.6244	6.04	0.05	-0.750			
0.0362	2315.87	3.9930	3.9930	-0.6355	6.04	0.05	-0.750			
0.0381	2437.24	3.9900	3.9900	-0.6478	6.05	0.06	-0.750			
0.0400	2563.15	3.9870	3.9869	-0.6613	6.05	0.06	-0.750			
0.0421	2692.54	3.9840	3.9841	-0.6743	6.06	0.07	-0.750			
0.0442	2825.72	3.9810	3.9809	-0.6779	6.07	0.08	-0.750			
0.0462	2957.29	3.9780	3.9781	-0.6842	6.07	0.08	-0.750			
0.0483	3090.20	3.9750	3.9752	-0.6841	6.08	0.09	-0.750			
0.0503	3220.68	3.9720	3.9720	-0.6800	6.09	0.10	-0.750			
0.0523	3349.26	3.9690	3.9689	-0.6808	6.09	0.10	-0.750			
0.0544	3479.68	3.9660	3.9661	-0.6869	6.10	0.11	-0.750			
0.0564	3611.37	3.9630	3.9629	-0.6921	6.11	0.12	-0.750			
0.0585	3745.38	3.9600	3.9600	-0.7011	6.11	0.12	-0.750			
0.0606	3880.82	3.9570	3.9574	-0.7037	6.12	0.13	-0.750			
0.0628	4017.74	3.9540	3.9540	-0.7121	6.13	0.14	-0.750			
0.0649	4155.04	3.9510	3.9510	-0.7190	6.13	0.14	-0.750			
0.0671	4293.32	3.9480	3.9480	-0.7205	6.14	0.15	-0.750			
0.0693	4433.01	3.9450	3.9449	-0.7175	6.15	0.16	-0.750			
0.0714	4571.56	3.9420	3.9419	-0.7147	6.15	0.16	-0.750			
0.0736	4708.14	3.9390	3.9392	-0.7132	6.16	0.17	-0.750			
0.0757	4844.95	3.9360	3.9359	-0.7103	6.17	0.18	-0.750			
0.0778	4977.53	3.9330	3.9330	-0.7174	6.17	0.18	-0.750			
0.0799	5115.70	3.9300	3.9300	-0.7238	6.18	0.19	-0.750			
0.0821	5255.44	3.9270	3.9269	-0.7351	6.19	0.20	-0.750			
0.0844	5398.85	3.9240	3.9240	-0.7439	6.20	0.21	-0.750			
0.0866	5544.43	3.9210	3.9209	-0.7465	6.20	0.21	-0.750			
0.0889	5689.10	3.9180	3.9180	-0.7426	6.21	0.22	-0.750			
0.0911	5832.28	3.9150	3.9151	-0.7447	6.22	0.23	-0.750			
0.0933	5973.33	3.9120	3.9120	-0.7357	6.23	0.24	-0.750			
0.0956	6115.62	3.9090	3.9089	-0.7341	6.24	0.25	-0.750			
0.0977	6255.25	3.9060	3.9061	-0.7245	6.25	0.26	-0.750			
0.0999	6392.46	3.9030	3.9030	-0.7273	6.26	0.27	-0.750			
0.1021	6532.61	3.9000	3.8999	-0.7307	6.27	0.28	-0.750			
0.1042	6671.19	3.8970	3.8970	-0.7349	6.27	0.28	-0.750			
0.1064	6810.89	3.8940	3.8940	-0.7407	6.28	0.29	-0.750			
0.1087	6956.60	3.8910	3.8911	-0.7525	6.29	0.30	-0.750			
0.1110	7102.41	3.8880	3.8880	-0.7587	6.30	0.31	-0.750			
0.1133	7250.01	3.8850	3.8851	-0.7660	6.31	0.32	-0.750			
0.1156	7396.93	3.8820	3.8820	-0.7671	6.32	0.33	-0.750			
0.1179	7547.10	3.8790	3.8789	-0.7628	6.32	0.33	-0.750			
0.1202	7692.40	3.8760	3.8760	-0.7589	6.33	0.34	-0.750			
0.1225	7837.80	3.8730	3.8731	-0.7531	6.34	0.35	-0.750			
0.1247	7981.20	3.8700	3.8699	-0.7518	6.35	0.36	-0.750			
0.1269	8123.95	3.8670	3.8669	-0.7488	6.36	0.37	-0.750			
0.1292	8265.92	3.8640	3.8641	-0.7504	6.36	0.37	-0.750			
0.1314	8410.35	3.8610	3.8609	-0.7562	6.37	0.38	-0.750			
0.1337	8558.06	3.8580	3.8581	-0.7710	6.38	0.39	-0.750			
0.1360	8706.48	3.8550	3.8551	-0.7677	6.39	0.40	-0.750			
0.1384	8855.57	3.8520	3.8519	-0.7722	6.40	0.41	-0.750			
0.1407	9004.18	3.8490	3.8491	-0.7716	6.41	0.42	-0.750			
0.1430	9152.09	3.8460	3.8459	-0.7677	6.42	0.43	-0.750			
0.1453	9301.70	3.8430	3.8429	-0.7648	6.43	0.44	-0.750			
0.1476	9445.95	3.8400	3.8400	-0.7577	6.44	0.45	-0.750			
0.1498	9588.05	3.8370	3.8370	-0.7555	6.45	0.46	-0.750			
0.1521	9733.56	3.8340	3.8340	-0.7637	6.46	0.47	-0.750			
0.1544	9878.49	3.8310	3.8309	-0.7625	6.46	0.47	-0.750			
0.1567	10026.03	3.8280	3.8279	-0.7654	6.47	0.48	-0.750			
0.1590	10176.20	3.8250	3.8250	-0.7687	6.48	0.49	-0.750			
0.1613	10325.37	3.8220	3.8221	-0.7636	6.49	0.50	-0.750			
0.1636	10471.47	3.8190	3.8191	-0.7575	6.50	0.51	-0.750			
0.1659	10614.98	3.8160	3.8160	-0.7594	6.51	0.52	-0.750			
0.1681	10758.49	3.8130	3.8130	-0.7543	6.52	0.53	-0.750			
0.1703	10902.06	3.8100	3.8099	-0.7691	6.53	0.54	-0.750			
0.1727	11050.50	3.8070	3.8070	-0.7775	6.54	0.55	-0.750			
0.1750	11201.94	3.8040	3.8039	-0.7824	6.55	0.56	-0.750			
0.1774	11355.60	3.8010	3.8010	-0.7913	6.56	0.57	-0.750			
0.1798	11508.37	3.7980	3.7981	-0.7852	6.57	0.58	-0.750			
0.1821	11657.56	3.7950	3.7950	-0.7782	6.58	0.59	-0.750			
0.1845	11809.47	3.7920	3.7918	-0.7752	6.59	0.60	-0.750			
0.1868	11954.96	3.7890	3.7891	-0.7659	6.59	0.60	-0.750			
0.1891	12101.48	3.7860	3.7860	-0.7659	6.60	0.61	-0.750			
0.1914	12246.48	3.7830	3.7830	-0.7705	6.61	0.62	-0.750			
0.1937	12394.39	3.7800	3.7800	-0.7710	6.62	0.63	-0.750			
0.1960	12543.11	3.7770	3.7770	-0.7790	6.63	0.64	-0.750			
0.1983	12693.38	3.7740	3.7741	-0.7851	6.64	0.65	-0.750			
0.2007	12845.43	3.7710	3.7710	-0.7920	6.65	0.66	-0.750			
0.2031	12999.20	3.7680	3.7679	-0.7946	6.66	0.67	-0.750			
0.2055	13151.98	3.7650	3.7650	-0.7975	6.66	0.67	-0.750			
0.2079	13305.83	3.7620	3.7620	-0.7945	6.67	0.68	-0.750			
0.2103	13459.80	3.7590	3.7591	-0.7936	6.68	0.69	-0.750			
0.2126	13609.51	3.7560	3.7560	-0.7928	6.69	0.70	-0.750			
0.2150	13761.26	3.7530	3.7531	-0.7999	6.70	0.71	-0.750			
0.2174	13914.40	3.7500	3.7499	-0.8017	6.71	0.72	-0.750			
0.2198	14068.79	3.7470	3.7468	-0.8071	6.72	0.73	-0.750			
0.2223	14225.44	3.7440	3.7442	-0.8118	6.73	0.74	-0.750			
0.2248	14384.11	3.7410	3.7409	-0.8093	6.74	0.75	-0.750			
0.2272	14539.84	3.7380	3.7379	-0.8134	6.74	0.75	-0.750			
0.2296	14695.15	3.7350	3.7352	-0.8114	6.75	0.76	-0.750			
0.2320	14848.10	3.7320	3.7319	-0.8083	6.76	0.77	-0.750			
0.2345	15005.24	3.7290	3.7289	-0.8198	6.77	0.78	-0.750			
0.2369	15163.38	3.7260	3.7261	-0.8198	6.77	0.78	-0.750			
0.2394	15321.11	3.7230	3.7229	-0.8257	6.78	0.79	-0.750			
0.2419	15480.40	3.7200	3.7201	-0.8301	6.79	0.80	-0.750			
0.2443	15637.64	3.7170	3.7170	-0.8265	6.80	0.81	-0.750			
0.2468	15797.45	3.7140	3.7140	-0.8376	6.81	0.82	-0.750			
0.2494	15959.53	3.7110	3.7109	-0.8391	6.81	0.82	-0.750			
0.2519	16119.21	3.7080	3.7080	-0.8469	6.82	0.83	-0.750			
0.2544	16284.73	3.7050	3.7050	-0.8571	6.83	0.84	-0.750			
0.2570	16449.85	3.7020	3.7020	-0.8593	6.84	0.85	-0.750			
0.2596	16616.71	3.6990	3.6990	-0.8595	6.85	0.86	-0.750			
0.2622	16781.60	3.6960	3.6961	-0.8652	6.86	0.87	-0.750			
0.2648	16945.63	3.6930	3.6930	-0.8779	6.86	0.87	-0.750			
0.2674	17115.47	3.6900	3.6900	-0.8880	6.87	0.88	-0.750			
0.2701	17286.64	3.6870	3.6869	-0.8887	6.88	0.89	-0.750			
0.2728	17460.44	3.6840	3.6840	-0.9005	6.89	0.90	-0.750			
0.2755	17633.93	3.6810	3.6810	-0.9098	6.89	0.90	-0.750			
0.2783	17810.04	3.6780	3.6780	-0.9099	6.90	0.91	-0.750			
0.2810	17982.81	3.6750	3.6749	-0.9104	6.90	0.91	-0.750			
0.2837	18158.53	3.6720	3.6720	-0.9134	6.91	0.92	-0.750			
0.2865	18333.91	3.6690	3.6691	-0.9204	6.91	0.92	-0.750			
0.2892	18511.25	3.6660	3.6659	-0.9306	6.92	0.93	-0.750			
0.2920	18688.74	3.6630	3.6630	-0.9408	6.93	0.94	-0.750			
0.2949	18872.51	3.6600	3.6599	-0.9419	6.93	0.94	-0.750			
0.2977	19055.99	3.6570	3.6572	-0.9463	6.94	0.95	-0.750			
0.3006	19236.92	3.6540	3.6540	-0.9534	6.95	0.96	-0.750			
0.3035	19421.38	3.6510	3.6510	-0.9579	6.96	0.97	-0.750			
0.3063	19605.27	3.6480	3.6478	-0.9529	6.97	0.98	-0.750			
0.3091	19785.37	3.6450	3.6451	-0.9564	6.98	0.99	-0.750			
0.3120	19970.56	3.6420	3.6420	-0.9579	6.98	0.99	-0.750			
0.3150	20159.15	3.6390	3.6389	-0.9683	6.99	1.00	-0.750			
0.3179	20343.76	3.6360	3.6360	-0.9723	6.99	1.00	-0.750			
0.3207	20526.86	3.6330	3.6330	-0.9856	7.00	1.01	-0.750			
0.3237	20718.32	3.6300	3.6302	-1.0029	7.00	1.01	-0.750			
0.3268	20912.49	3.6270	3.6267	-1.0239	7.01	1.02	-0.750			
0.3299	21110.73	3.6240	3.6240	-1.0338	7.02	1.03	-0.750			
0.3330	21313.09	3.6210	3.6211	-1.0399	7.02	1.03	-0.750			
0.3362	21517.96	3.6180	3.6181	-1.0525	7.03	1.04	-0.750			
0.3394	21719.52	3.6150	3.6150	-1.0445	7.04	1.05	-0.750			
0.3425	21917.90	3.6120	3.6120	-1.0470	7.05	1.06	-0.750			
0.3456	22116.54	3.6090	3.6089	-1.0506	7.05	1.06	-0.750			
0.3487	22316.87	3.6060	3.6062	-1.0678	7.06	1.07	-0.750			
0.3519	22524.34	3.6030	3.6031	-1.0760	7.07	1.08	-0.750			
0.3552	22735.06	3.6000	3.5999	-1.0869	7.07	1.08	-0.750			
0.3585	22945.68	3.5970	3.5968	-1.0827	7.08	1.09	-0.750			
0.3618	23153.49	3.5940	3.5941	-1.0932	7.08	1.09	-0.750			
0.3650	23362.35	3.5910	3.5910	-1.0939	7.09	1.10	-0.750			
0.3683	23571.67	3.5880	3.5879	-1.1012	7.10	1.11	-0.750			
0.3716	23781.32	3.5850	3.5850	-1.0974	7.11	1.12	-0.750			
0.3749	23995.27	3.5820	3.5819	-1.1205	7.11	1.12	-0.750			
0.3783	24213.28	3.5790	3.5790	-1.1309	7.12	1.13	-0.750	0.401	0.824	
0.3817	24431.36	3.5760	3.5759	-1.1371	7.12	1.13	-0.750			
0.3851	24647.29	3.5730	3.5729	-1.1398	7.13	1.14	-0.750			
0.3886	24869.53	3.5700	3.5700	-1.1607	7.13	1.14	-0.750			
0.3921	25091.39	3.5670	3.5668	-1.1742	7.14	1.15	-0.750			
0.3957	25322.36	3.5640	3.5639	-1.1793	7.15	1.16	-0.750			
0.3992	25550.03	3.5610	3.5611	-1.1907	7.15	1.16	-0.750			
0.4028	25780.94	3.5580	3.5580	-1.1938	7.16	1.17	-0.750			
0.4064	26009.90	3.5550	3.5550	-1.1942	7.16	1.17	-0.750			
0.4099	26236.44	3.5520	3.5520	-1.1869	7.17	1.18	-0.750			
0.4135	26465.20	3.5490	3.5489	-1.2094	7.18	1.19	-0.750			
0.4172	26698.83	3.5460	3.5460	-1.2141	7.19	1.20	-0.750			
0.4208	26933.17	3.5430	3.5429	-1.2309	7.19	1.20	-0.750			
0.4245	27168.43	3.5400	3.5402	-1.2381	7.20	1.21	-0.750			
0.4283	27410.10	3.5370	3.5370	-1.2535	7.21	1.22	-0.750			
0.4321	27652.15	3.5340	3.5338	-1.2575	7.22	1.23	-0.750			
0.4358	27891.65	3.5310	3.5313	-1.2536	7.23	1.24	-0.750			
0.4396	28136.22	3.5280	3.5280	-1.2710	7.24	1.25	-0.750			
0.4435	28384.24	3.5250	3.5250	-1.2778	7.24	1.25	-0.750			
0.4473	28627.61	3.5220	3.5220	-1.2757	7.25	1.26	-0.750			
0.4512	28873.91	3.5190	3.5190	-1.2703	7.26	1.27	-0.750			
0.4550	29117.60	3.5160	3.5159	-1.2674	7.27	1.28	-0.750			
0.4587	29359.18	3.5130	3.5131	-1.2778	7.28	1.29	-0.750			
0.4625	29603.00	3.5100	3.5101	-1.2812	7.28	1.29	-0.750			
0.4664	29849.70	3.5070	3.5068	-1.2789	7.29	1.30	-0.750			
0.4703	30097.60	3.5040	3.5040	-1.2819	7.30	1.31	-0.750			
0.4741	30344.44	3.5010	3.5011	-1.2765	7.31	1.32	-0.750			
0.4780	30590.81	3.4980	3.4980	-1.2757	7.32	1.33	-0.750			
0.4818	30833.86	3.4950	3.4950	-1.2727	7.33	1.34	-0.750			
0.4856	31076.01	3.4920	3.4920	-1.2732	7.34	1.35	-0.750			
0.4894	31322.04	3.4890	3.4889	-1.2684	7.35	1.36	-0.750			
0.4932	31567.96	3.4860	3.4860	-1.2565	7.36	1.37	-0.750			
0.4970	31809.24	3.4830	3.4831	-1.2518	7.37	1.38	-0.750			
0.5007	32045.84	3.4800	3.4801	-1.2529	7.38	1.39	-0.750			
0.5044	32282.97	3.4770	3.4768	-1.2452	7.39	1.40	-0.750			
0.5081	32518.38	3.4740	3.4740	-1.2543	7.39	1.40	-0.750			
0.5119	32759.65	3.4710	3.4710	-1.2525	7.40	1.41	-0.750			
0.5158	33011.95	3.4680	3.4681	-1.2471	7.42	1.43	-0.750			
0.5196	33251.34	3.4650	3.4649	-1.2261	7.43	1.44	-0.750			
0.5231	33481.38	3.4620	3.4625	-1.2086	7.44	1.45	-0.750			
0.5267	33709.90	3.4590	3.4588	-1.1947	7.45	1.46	-0.750			
0.5302	33934.95	3.4560	3.4559	-1.1794	7.46	1.47	-0.750			
0.5337	34158.96	3.4530	3.4528	-1.1713	7.47	1.48	-0.750			
0.5373	34385.73	3.4500	3.4501	-1.1800	7.48	1.49	-0.750			
0.5408	34612.22	3.4470	3.4469	-1.1805	7.49	1.50	-0.750			
0.5444	34839.14	3.4440	3.4439	-1.1676	7.51	1.52	-0.750			
0.5478	35058.80	3.4410	3.4411	-1.1564	7.52	1.53	-0.750			
0.5514	35287.51	3.4380	3.4380	-1.1575	7.53	1.54	-0.750			
0.5549	35512.26	3.4350	3.4350	-1.1486	7.54	1.55	-0.750			
0.5583	35731.71	3.4320	3.4319	-1.1233	7.55	1.56	-0.750			
0.5616	35943.54	3.4290	3.4292	-1.1093	7.56	1.57	-0.750			
0.5649	36152.54	3.4260	3.4259	-1.0959	7.58	1.59	-0.750			
0.5682	36362.34	3.4230	3.4228	-1.0867	7.59	1.60	-0.750			
0.5714	36566.41	3.4200	3.4200	-1.0667	7.60	1.61	-0.750			
0.5746	36775.61	3.4170	3.4171	-1.0662	7.62	1.63	-0.750			
0.5778	36981.16	3.4140	3.4140	-1.0477	7.63	1.64	-0.750			
0.5810	37181.39	3.4110	3.4110	-1.0321	7.64	1.65	-0.750			
0.5839	37371.79	3.4080	3.4081	-1.0111	7.65	1.66	-0.750			
0.5870	37565.23	3.4050	3.4049	-1.0075	7.67	1.68	-0.750			
0.5900	37758.80	3.4020	3.4020	-0.9993	7.68	1.69	-0.750			
0.5930	37951.32	3.3990	3.3990	-0.9888	7.70	1.71	-0.750			
0.5960	38143.06	3.3960	3.3960	-0.9757	7.71	1.72	-0.750			
0.5989	38330.22	3.3930	3.3931	-0.9544	7.72	1.73	-0.750			
0.6017	38509.33	3.3900	3.3900	-0.9326	7.74	1.75	-0.750			
0.6045	38686.24	3.3870	3.3870	-0.9080	7.76	1.77	-0.750			
0.6071	38854.38	3.3840	3.3839	-0.8897	7.77	1.78	-0.750			
0.6098	39024.52	3.3810	3.3811	-0.8849	7.79	1.80	-0.750			
0.6124	39191.59	3.3780	3.3780	-0.8785	7.80	1.81	-0.750			
0.6150	39361.63	3.3750	3.3749	-0.8704	7.81	1.82	-0.750			
0.6176	39529.05	3.3720	3.3720	-0.8580	7.82	1.83	-0.750			
0.6202	39694.12	3.3690	3.3690	-0.8372	7.83	1.84	-0.750			
0.6228	39857.42	3.3660	3.3661	-0.8208	7.84	1.85	-0.750			
0.6251	40009.56	3.3630	3.3630	-0.7986	7.85	1.86	-0.750			
0.6275	40158.35	3.3600	3.3600	-0.7778	7.86	1.87	-0.750			
0.6298	40305.34	3.3570	3.3569	-0.7614	7.88	1.89	-0.750			
0.6321	40451.34	3.3540	3.3541	-0.7492	7.89	1.90	-0.750			
0.6343	40593.39	3.3510	3.3511	-0.7350	7.90	1.91	-0.750			
0.6365	40733.53	3.3480	3.3479	-0.7214	7.92	1.93	-0.750			
0.6386	40870.37	3.3450	3.3451	-0.7075	7.93	1.94	-0.750			
0.6407	41003.71	3.3420	3.3420	-0.6941	7.95	1.96	-0.750			
0.6428	41136.12	3.3390	3.3390	-0.6812	7.96	1.97	-0.750			
0.6448	41266.49	3.3360	3.3360	-0.6704	7.98	1.99	-0.750			
0.6468	41394.42	3.3330	3.3330	-0.6589	7.99	2.00	-0.750			
0.6487	41518.75	3.3300	3.3301	-0.6448	8.00	2.01	-0.750			
0.6507	41642.30	3.3270	3.3270	-0.6315	8.02	2.03	-0.750			
0.6525	41762.10	3.3240	3.3240	-0.6171	8.03	2.04	-0.750			
0.6544	41878.54	3.3210	3.3209	-0.6050	8.05	2.06	-0.750			
0.6562	41993.77	3.3180	3.3181	-0.5940	8.06	2.07	-0.750			
0.6579	42106.42	3.3150	3.3149	-0.5797	8.07	2.08	-0.750			
0.6596	42215.85	3.3120	3.3120	-0.5691	8.08	2.09	-0.750			
0.6613	42324.11	3.3090	3.3091	-0.5579	8.10	2.11	-0.750			
0.6630	42430.30	3.3060	3.3060	-0.5498	8.11	2.12	-0.750			
0.6646	42535.16	3.3030	3.3030	-0.5383	8.12	2.13	-0.750			
0.6662	42636.94	3.3000	3.3001	-0.5291	8.13	2.14	-0.750			
0.6678	42737.97	3.2970	3.2970	-0.5228	8.15	2.16	-0.750			
0.6693	42838.10	3.2940	3.2940	-0.5142	8.16	2.17	-0.750			
0.6709	42935.10	3.2910	3.2910	-0.5062	8.17	2.18	-0.750			
0.6724	43032.02	3.2880	3.2880	-0.4981	8.18	2.19	-0.750			
0.6739	43126.57	3.2850	3.2849	-0.4903	8.20	2.21	-0.750			
0.6753	43220.23	3.2820	3.2820	-0.4842	8.21	2.22	-0.750			
0.6768	43312.35	3.2790	3.2790	-0.4739	8.22	2.23	-0.750			
0.6782	43402.87	3.2760	3.2759	-0.4643	8.23	2.24	-0.750			
0.6796	43491.48	3.2730	3.2731	-0.4555	8.25	2.26	-0.750			
0.6809	43576.86	3.2700	3.2700	-0.4459	8.26	2.27	-0.750			
0.6822	43662.66	3.2670	3.2669	-0.4353	8.27	2.28	-0.750			
0.6835	43744.81	3.2640	3.2640	-0.4237	8.28	2.29	-0.750			
0.6848	43824.52	3.2610	3.2611	-0.4169	8.29	2.30	-0.750			
0.6860	43904.27	3.2580	3.2580	-0.4107	8.30	2.31	-0.750			
0.6872	43981.45	3.2550	3.2549	-0.4043	8.31	2.32	-0.750			
0.6884	44057.04	3.2520	3.2520	-0.3986	8.33	2.34	-0.750			
0.6896	44134.00	3.2490	3.2491	-0.3961	8.34	2.35	-0.750			
0.6908	44210.67	3.2460	3.2458	-0.3943	8.35	2.36	-0.750			
0.6920	44285.95	3.2430	3.2431	-0.3895	8.36	2.37	-0.750			
0.6931	44359.99	3.2400	3.2401	-0.3846	8.37	2.38	-0.750			
0.6943	44433.53	3.2370	3.2368	-0.3833	8.38	2.39	-0.750			
0.6954	44507.04	3.2340	3.2340	-0.3769	8.39	2.40	-0.750			
0.6965	44578.27	3.2310	3.2309	-0.3705	8.40	2.41	-0.750			
0.6977	44649.64	3.2280	3.2281	-0.3630	8.41	2.42	-0.750			
0.6987	44719.43	3.2250	3.2249	-0.3559	8.42	2.43	-0.750			
0.6998	44786.26	3.2220	3.2220	-0.3505	8.43	2.44	-0.750			
0.7008	44852.77	3.2190	3.2190	-0.3446	8.44	2.45	-0.750			
0.7018	44917.15	3.2160	3.2159	-0.3382	8.45	2.46	-0.750			
0.7028	44982.26	3.2130	3.2131	-0.3359	8.46	2.47	-0.750			
0.7038	45046.12	3.2100	3.2101	-0.3327	8.47	2.48	-0.750			
0.7048	45109.93	3.2070	3.2069	-0.3300	8.48	2.49	-0.750			
0.7058	45172.98	3.2040	3.2040	-0.3254	8.50	2.51	-0.750			
0.7068	45234.78	3.2010	3.2010	-0.3218	8.51	2.52	-0.750			
0.7078	45296.79	3.1980	3.1980	-0.3186	8.52	2.53	-0.750			
0.7087	45357.94	3.1950	3.1949	-0.3138	8.53	2.54	-0.750			
0.7097	45417.61	3.1920	3.1920	-0.3088	8.54	2.55	-0.750			
0.7106	45476.11	3.1890	3.1891	-0.3056	8.55	2.56	-0.750			
0.7115	45533.91	3.1860	3.1860	-0.3028	8.56	2.57	-0.750			
0.7124	45591.80	3.1830	3.1829	-0.3005	8.57	2.58	-0.750			
0.7133	45648.86	3.1800	3.1800	-0.2963	8.58	2.59	-0.750			
0.7142	45706.33	3.1770	3.1771	-0.2936	8.59	2.60	-0.750			
0.7150	45762.36	3.1740	3.1740	-0.2897	8.60	2.61	-0.750			
0.7159	45817.56	3.1710	3.1711	-0.2857	8.61	2.62	-0.750			
0.7167	45871.49	3.1680	3.1679	-0.2817	8.62	2.63	-0.750			
0.7176	45925.27	3.1650	3.1650	-0.2785	8.63	2.64	-0.750			
0.7184	45977.94	3.1620	3.1620	-0.2758	8.64	2.65	-0.750			
0.7192	46031.05	3.1590	3.1590	-0.2759	8.65	2.66	-0.750			
0.7201	46083.68	3.1560	3.1562	-0.2748	8.66	2.67	-0.750			
0.7209	46136.45	3.1530	3.1530	-0.2719	8.67	2.68	-0.750			
0.7217	46188.65	3.1500	3.1500	-0.2696	8.68	2.69	-0.750			
0.7225	46240.54	3.1470	3.1470	-0.2666	8.69	2.70	-0.750			
0.7233	46291.80	3.1440	3.1441	-0.2638	8.70	2.71	-0.750			
0.7241	46341.69	3.1410	3.1409	-0.2602	8.71	2.72	-0.750			
0.7249	46391.11	3.1380	3.1380	-0.2574	8.72	2.73	-0.750			
0.7256	46439.98	3.1350	3.1350	-0.2538	8.73	2.74	-0.750			
0.7264	46488.40	3.1320	3.1320	-0.2508	8.74	2.75	-0.750			
0.7271	46536.82	3.1290	3.1291	-0.2489	8.75	2.76	-0.750			
0.7279	46584.38	3.1260	3.1260	-0.2457	8.76	2.77	-0.750			
0.7286	46630.92	3.1230	3.1229	-0.2445	8.77	2.78	-0.750			
0.7293	46677.71	3.1200	3.1200	-0.2430	8.78	2.79	-0.750			
0.7301	46724.28	3.1170	3.1169	-0.2421	8.79	2.80	-0.750			
0.7308	46770.84	3.1140	3.1139	-0.2398	8.80	2.81	-0.750			
0.7315	46817.11	3.1110	3.1111	-0.2381	8.81	2.82	-0.750			
0.7322	46863.08	3.1080	3.1079	-0.2354	8.82	2.83	-0.750			
0.7329	46908.20	3.1050	3.1049	-0.2318	8.82	2.83	-0.750			
0.7336	46951.26	3.1020	3.1020	-0.2293	8.83	2.84	-0.750			
0.7343	46994.72	3.0990	3.0991	-0.2276	8.84	2.85	-0.750			
0.7350	47039.03	3.0960	3.0958	-0.2276	8.85	2.86	-0.750			
0.7357	47082.51	3.0930	3.0931	-0.2261	8.86	2.87	-0.750			
0.7363	47125.49	3.0900	3.0900	-0.2245	8.87	2.88	-0.750			
0.7370	47168.44	3.0870	3.0871	-0.2235	8.88	2.89	-0.750			
0.7377	47211.89	3.0840	3.0840	-0.2218	8.89	2.90	-0.750			
0.7383	47253.62	3.0810	3.0810	-0.2199	8.90	2.91	-0.750			
0.7390	47295.89	3.0780	3.0781	-0.2187	8.91	2.92	-0.750			
0.7397	47337.77	3.0750	3.0749	-0.2174	8.92	2.93	-0.750			
0.7403	47379.36	3.0720	3.0719	-0.2165	8.93	2.94	-0.750			
0.7410	47420.90	3.0690	3.0690	-0.2146	8.94	2.95	-0.750			
0.7416	47461.75	3.0660	3.0661	-0.2135	8.95	2.96	-0.750			
0.7422	47502.89	3.0630	3.0628	-0.2119	8.96	2.97	-0.750			
0.7429	47543.80	3.0600	3.0602	-0.2108	8.97	2.98	-0.750			
0.7435	47583.73	3.0570	3.0569	-0.2085	8.98	2.99	-0.750			
0.7441	47623.71	3.0540	3.0541	-0.2075	8.99	3.00	-0.750			
0.7447	47663.40	3.0510	3.0510	-0.2059	9.00	3.01	-0.750			
0.7454	47702.45	3.0480	3.0480	-0.2058	9.01	3.02	-0.750			
0.7460	47741.81	3.0450	3.0450	-0.2062	9.02	3.03	-0.750			
0.7466	47781.54	3.0420	3.0419	-0.2040	9.03	3.04	-0.750			
0.7472	47821.24	3.0390	3.0390	-0.2039	9.04	3.05	-0.750			
0.7478	47860.18	3.0360	3.0360	-0.2017	9.05	3.06	-0.750			
0.7484	47898.71	3.0330	3.0330	-0.2014	9.06	3.07	-0.750			
0.7490	47937.05	3.0300	3.0299	-0.2004	9.07	3.08	-0.750			
0.7496	47975.53	3.0270	3.0269	-0.1992	9.08	3.09	-0.750			
0.7502	48013.21	3.0240	3.0240	-0.1979	9.09	3.10	-0.750			
0.7508	48051.23	3.0210	3.0211	-0.1960	9.10	3.11	-0.750			
0.7514	48089.28	3.0180	3.0181	-0.1961	9.11	3.12	-0.750			
0.7520	48126.71	3.0150	3.0150	-0.1944	9.12	3.13	-0.750			
0.7526	48163.86	3.0120	3.0119	-0.1926	9.13	3.14	-0.750			
0.7531	48200.20	3.0090	3.0090	-0.1913	9.14	3.15	-0.750			
0.7537	48236.73	3.0060	3.0061	-0.1914	9.15	3.16	-0.750			
0.7543	48273.48	3.0030	3.0029	-0.1907	9.16	3.17	-0.750			
