Ah_balance (normalized)	Ah_balance (mAh)	Voltage - fit (V)	Voltage -  interpolate (V)	dQ/dV (1/V)	Temperature (°C)	Temperature - diff (°C)	Current (C)	R_DC 0ms (mOhm)	R_DC 50ms (mOhm)	R_DC 50 ms PEC (mOhm)
0.0921	5893.48	4.1990	4.1982	0.7602	8.56	2.52	0.750			
0.0946	6052.27	4.1960	4.1984	0.8652	8.55	2.51	0.750	0.393	0.841	
0.0973	6224.12	4.1930	4.1945	0.8594	8.55	2.51	0.750			
0.0998	6384.94	4.1900	4.1907	0.8249	8.54	2.50	0.750			
0.1021	6534.51	4.1870	4.1875	0.7800	8.53	2.49	0.750			
0.1047	6701.26	4.1840	4.1836	0.7724	8.53	2.49	0.750			
0.1066	6824.18	4.1810	4.1810	0.7163	8.52	2.48	0.750			
0.1088	6963.96	4.1780	4.1781	0.7135	8.51	2.47	0.750			
0.1110	7102.57	4.1750	4.1750	0.7189	8.51	2.47	0.750			
0.1131	7237.47	4.1720	4.1722	0.7221	8.50	2.46	0.750			
0.1152	7374.98	4.1690	4.1689	0.7212	8.49	2.45	0.750			
0.1174	7513.99	4.1660	4.1660	0.7241	8.48	2.44	0.750			
0.1196	7653.72	4.1630	4.1631	0.7270	8.48	2.44	0.750			
0.1218	7795.21	4.1600	4.1601	0.7233	8.47	2.43	0.750			
0.1240	7934.42	4.1570	4.1569	0.7269	8.46	2.42	0.750			
0.1261	8072.88	4.1540	4.1541	0.7213	8.46	2.42	0.750			
0.1283	8211.49	4.1510	4.1509	0.7225	8.45	2.41	0.750			
0.1305	8350.13	4.1480	4.1480	0.7290	8.44	2.40	0.750			
0.1327	8490.87	4.1450	4.1451	0.7295	8.44	2.40	0.750			
0.1349	8630.85	4.1420	4.1419	0.7343	8.43	2.39	0.750			
0.1371	8772.05	4.1390	4.1390	0.7370	8.43	2.39	0.750			
0.1393	8912.82	4.1360	4.1361	0.7392	8.42	2.38	0.750			
0.1415	9056.86	4.1330	4.1331	0.7452	8.42	2.38	0.750			
0.1437	9198.86	4.1300	4.1300	0.7486	8.41	2.37	0.750			
0.1460	9342.34	4.1270	4.1271	0.7496	8.41	2.37	0.750			
0.1483	9488.03	4.1240	4.1239	0.7541	8.40	2.36	0.750			
0.1505	9633.92	4.1210	4.1210	0.7531	8.40	2.36	0.750			
0.1528	9778.93	4.1180	4.1180	0.7540	8.39	2.35	0.750			
0.1550	9923.17	4.1150	4.1150	0.7567	8.38	2.34	0.750			
0.1573	10067.70	4.1120	4.1120	0.7626	8.38	2.34	0.750			
0.1596	10212.81	4.1090	4.1089	0.7634	8.37	2.33	0.750			
0.1619	10360.95	4.1060	4.1060	0.7715	8.36	2.32	0.750			
0.1642	10511.57	4.1030	4.1030	0.7759	8.36	2.32	0.750			
0.1666	10661.28	4.1000	4.1001	0.7772	8.35	2.31	0.750			
0.1689	10811.61	4.0970	4.0970	0.7777	8.34	2.30	0.750			
0.1712	10958.81	4.0940	4.0940	0.7799	8.33	2.29	0.750			
0.1736	11108.66	4.0910	4.0909	0.7825	8.33	2.29	0.750			
0.1759	11259.26	4.0880	4.0880	0.7865	8.32	2.28	0.750			
0.1783	11410.76	4.0850	4.0850	0.7911	8.31	2.27	0.750			
0.1807	11562.37	4.0820	4.0820	0.7994	8.30	2.26	0.750			
0.1831	11718.81	4.0790	4.0791	0.7930	8.30	2.26	0.750			
0.1855	11869.68	4.0760	4.0760	0.8043	8.29	2.25	0.750			
0.1879	12024.54	4.0730	4.0730	0.8045	8.29	2.25	0.750			
0.1903	12179.01	4.0700	4.0699	0.8124	8.28	2.24	0.750			
0.1928	12336.15	4.0670	4.0672	0.8112	8.27	2.23	0.750			
0.1952	12494.44	4.0640	4.0639	0.8067	8.27	2.23	0.750			
0.1976	12646.24	4.0610	4.0611	0.8164	8.26	2.22	0.750			
0.2001	12804.16	4.0580	4.0581	0.8236	8.25	2.21	0.750			
0.2025	12960.45	4.0550	4.0548	0.8216	8.24	2.20	0.750			
0.2050	13119.58	4.0520	4.0520	0.8314	8.23	2.19	0.750			
0.2075	13279.26	4.0490	4.0492	0.8323	8.22	2.18	0.750			
0.2100	13442.54	4.0460	4.0460	0.8389	8.21	2.17	0.750			
0.2126	13604.47	4.0430	4.0429	0.8359	8.20	2.16	0.750			
0.2151	13763.77	4.0400	4.0401	0.8363	8.19	2.15	0.750			
0.2176	13924.95	4.0370	4.0371	0.8427	8.18	2.14	0.750			
0.2201	14087.32	4.0340	4.0339	0.8433	8.18	2.14	0.750			
0.2226	14248.18	4.0310	4.0310	0.8441	8.17	2.13	0.750			
0.2252	14410.23	4.0280	4.0280	0.8524	8.16	2.12	0.750			
0.2277	14573.44	4.0250	4.0249	0.8590	8.15	2.11	0.750			
0.2303	14739.81	4.0220	4.0220	0.8646	8.15	2.11	0.750			
0.2329	14906.77	4.0190	4.0190	0.8688	8.14	2.10	0.750			
0.2356	15075.83	4.0160	4.0160	0.8736	8.13	2.09	0.750			
0.2382	15243.59	4.0130	4.0131	0.8743	8.13	2.09	0.750			
0.2408	15413.78	4.0100	4.0097	0.8726	8.12	2.08	0.750			
0.2435	15580.98	4.0070	4.0070	0.8676	8.11	2.07	0.750			
0.2460	15746.98	4.0040	4.0041	0.8696	8.10	2.06	0.750			
0.2486	15912.43	4.0010	4.0010	0.8746	8.09	2.05	0.750			
0.2512	16077.48	3.9980	3.9980	0.8797	8.09	2.05	0.750			
0.2539	16247.58	3.9950	3.9949	0.8884	8.08	2.04	0.750			
0.2566	16419.70	3.9920	3.9920	0.8939	8.07	2.03	0.750			
0.2593	16595.60	3.9890	3.9891	0.9099	8.06	2.02	0.750			
0.2620	16770.37	3.9860	3.9859	0.9121	8.05	2.01	0.750			
0.2648	16945.55	3.9830	3.9830	0.9141	8.03	1.99	0.750			
0.2675	17122.10	3.9800	3.9801	0.9180	8.02	1.98	0.750			
0.2703	17297.52	3.9770	3.9769	0.9134	8.01	1.97	0.750			
0.2730	17471.84	3.9740	3.9741	0.9240	8.00	1.96	0.750			
0.2758	17649.17	3.9710	3.9711	0.9289	7.99	1.95	0.750			
0.2785	17826.84	3.9680	3.9678	0.9358	7.98	1.94	0.750			
0.2814	18008.26	3.9650	3.9650	0.9408	7.97	1.93	0.750			
0.2842	18188.00	3.9620	3.9622	0.9428	7.96	1.92	0.750			
0.2871	18371.65	3.9590	3.9590	0.9522	7.95	1.91	0.750			
0.2899	18552.06	3.9560	3.9561	0.9638	7.94	1.90	0.750			
0.2928	18737.25	3.9530	3.9529	0.9606	7.93	1.89	0.750			
0.2957	18925.09	3.9500	3.9501	0.9764	7.92	1.88	0.750			
0.2987	19115.60	3.9470	3.9470	0.9804	7.91	1.87	0.750			
0.3017	19306.87	3.9440	3.9442	0.9893	7.91	1.87	0.750			
0.3046	19496.52	3.9410	3.9411	0.9813	7.89	1.85	0.750			
0.3075	19682.93	3.9380	3.9380	0.9789	7.88	1.84	0.750			
0.3104	19866.81	3.9350	3.9350	0.9837	7.87	1.83	0.750			
0.3134	20055.42	3.9320	3.9321	0.9990	7.86	1.82	0.750			
0.3164	20248.14	3.9290	3.9289	1.0116	7.85	1.81	0.750			
0.3194	20443.91	3.9260	3.9259	1.0286	7.84	1.80	0.750			
0.3226	20645.72	3.9230	3.9231	1.0370	7.83	1.79	0.750			
0.3257	20847.76	3.9200	3.9200	1.0515	7.82	1.78	0.750			
0.3290	21052.94	3.9170	3.9170	1.0501	7.81	1.77	0.750			
0.3321	21252.02	3.9140	3.9140	1.0611	7.80	1.76	0.750			
0.3352	21453.46	3.9110	3.9110	1.0659	7.78	1.74	0.750			
0.3384	21657.81	3.9080	3.9080	1.0853	7.77	1.73	0.750			
0.3417	21867.88	3.9050	3.9050	1.0985	7.76	1.72	0.750			
0.3450	22081.75	3.9020	3.9021	1.1190	7.74	1.70	0.750			
0.3484	22299.77	3.8990	3.8990	1.1282	7.73	1.69	0.750			
0.3519	22520.54	3.8960	3.8960	1.1347	7.72	1.68	0.750			
0.3553	22736.04	3.8930	3.8931	1.1445	7.70	1.66	0.750			
0.3587	22956.18	3.8900	3.8900	1.1598	7.69	1.65	0.750			
0.3621	23177.56	3.8870	3.8869	1.1790	7.67	1.63	0.750			
0.3658	23408.32	3.8840	3.8839	1.1875	7.66	1.62	0.750			
0.3694	23639.25	3.8810	3.8810	1.2070	7.65	1.61	0.750			
0.3730	23872.25	3.8780	3.8781	1.2248	7.63	1.59	0.750			
0.3768	24113.47	3.8750	3.8749	1.2291	7.62	1.58	0.750			
0.3804	24345.90	3.8720	3.8721	1.2430	7.60	1.56	0.750			
0.3841	24583.49	3.8690	3.8690	1.2447	7.58	1.54	0.750			
0.3878	24820.18	3.8660	3.8662	1.2682	7.56	1.52	0.750			
0.3916	25062.67	3.8630	3.8629	1.3018	7.55	1.51	0.750			
0.3956	25318.38	3.8600	3.8603	1.3308	7.53	1.49	0.750	0.388	0.812	
0.3997	25578.14	3.8570	3.8571	1.3694	7.51	1.47	0.750			
0.4039	25849.96	3.8540	3.8540	1.4019	7.50	1.46	0.750			
0.4082	26122.38	3.8510	3.8512	1.4287	7.48	1.44	0.750			
0.4126	26406.12	3.8480	3.8481	1.4279	7.46	1.42	0.750			
0.4169	26680.36	3.8450	3.8449	1.4456	7.44	1.40	0.750			
0.4212	26953.78	3.8420	3.8421	1.4607	7.42	1.38	0.750			
0.4256	27239.98	3.8390	3.8392	1.4802	7.40	1.36	0.750			
0.4300	27520.30	3.8360	3.8360	1.5027	7.38	1.34	0.750			
0.4346	27812.54	3.8330	3.8330	1.5363	7.36	1.32	0.750			
0.4392	28105.73	3.8300	3.8301	1.5746	7.34	1.30	0.750			
0.4440	28414.55	3.8270	3.8271	1.6260	7.31	1.27	0.750			
0.4490	28733.70	3.8240	3.8238	1.6445	7.29	1.25	0.750			
0.4540	29056.51	3.8210	3.8212	1.6705	7.27	1.23	0.750			
0.4590	29376.18	3.8180	3.8181	1.7303	7.24	1.20	0.750			
0.4642	29709.50	3.8150	3.8151	1.7483	7.22	1.18	0.750			
0.4695	30050.15	3.8120	3.8120	1.7686	7.19	1.15	0.750			
0.4749	30390.76	3.8090	3.8091	1.7860	7.17	1.13	0.750			
0.4803	30738.82	3.8060	3.8063	1.7943	7.14	1.10	0.750			
0.4858	31088.63	3.8030	3.8032	1.8143	7.11	1.07	0.750			
0.4911	31428.45	3.8000	3.7999	1.8610	7.08	1.04	0.750			
0.4968	31792.11	3.7970	3.7968	1.9159	7.06	1.02	0.750			
0.5025	32158.21	3.7940	3.7939	1.9301	7.03	0.99	0.750			
0.5085	32544.38	3.7910	3.7912	1.9873	7.00	0.96	0.750			
0.5145	32928.56	3.7880	3.7880	2.0338	6.97	0.93	0.750			
0.5206	33318.78	3.7850	3.7849	2.0308	6.94	0.90	0.750			
0.5266	33701.57	3.7820	3.7820	2.0826	6.91	0.87	0.750			
0.5330	34112.49	3.7790	3.7791	2.1420	6.88	0.84	0.750			
0.5395	34528.34	3.7760	3.7759	2.1620	6.85	0.81	0.750			
0.5461	34950.97	3.7730	3.7729	2.1621	6.81	0.77	0.750			
0.5526	35363.24	3.7700	3.7701	2.1816	6.78	0.74	0.750			
0.5590	35772.86	3.7670	3.7670	2.2194	6.76	0.72	0.750			
0.5657	36204.25	3.7640	3.7637	2.2779	6.73	0.69	0.750			
0.5726	36643.35	3.7610	3.7611	2.3536	6.70	0.66	0.750			
0.5798	37110.28	3.7580	3.7580	2.4704	6.66	0.62	0.750			
0.5874	37591.20	3.7550	3.7548	2.5227	6.63	0.59	0.750			
0.5950	38080.37	3.7520	3.7521	2.6127	6.59	0.55	0.750			
0.6031	38600.70	3.7490	3.7489	2.6979	6.55	0.51	0.750			
0.6111	39110.87	3.7460	3.7461	2.8276	6.51	0.47	0.750			
0.6198	39668.33	3.7430	3.7429	2.9974	6.47	0.43	0.750			
0.6290	40257.35	3.7400	3.7400	3.0642	6.44	0.40	0.750			
0.6387	40879.90	3.7370	3.7370	3.1684	6.40	0.36	0.750			
0.6483	41488.48	3.7340	3.7341	3.1486	6.37	0.33	0.750			
0.6578	42102.00	3.7310	3.7308	3.0130	6.34	0.30	0.750			
0.6666	42664.23	3.7280	3.7282	2.8195	6.31	0.27	0.750			
0.6750	43198.51	3.7250	3.7249	2.5813	6.28	0.24	0.750			
0.6821	43651.56	3.7220	3.7219	2.2402	6.26	0.22	0.750			
0.6882	44044.14	3.7190	3.7190	1.9953	6.24	0.20	0.750			
0.6938	44401.12	3.7160	3.7159	1.7833	6.22	0.18	0.750			
0.6985	44702.23	3.7130	3.7128	1.5859	6.21	0.17	0.750			
0.7029	44984.96	3.7100	3.7100	1.4279	6.19	0.15	0.750			
0.7070	45248.80	3.7070	3.7072	1.3312	6.18	0.14	0.750			
0.7108	45489.80	3.7040	3.7040	1.2377	6.18	0.14	0.750			
0.7142	45710.21	3.7010	3.7012	1.1761	6.17	0.13	0.750			
0.7176	45927.26	3.6980	3.6979	1.1226	6.16	0.12	0.750			
0.7209	46134.96	3.6950	3.6950	1.0942	6.15	0.11	0.750			
0.7241	46343.25	3.6920	3.6921	1.0770	6.14	0.10	0.750			
0.7274	46553.55	3.6890	3.6889	1.0626	6.13	0.09	0.750			
0.7305	46753.42	3.6860	3.6860	1.0214	6.12	0.08	0.750			
0.7335	46944.79	3.6830	3.6830	1.0037	6.12	0.08	0.750			
0.7364	47132.51	3.6800	3.6801	0.9897	6.11	0.07	0.750			
0.7394	47319.05	3.6770	3.6770	0.9696	6.10	0.06	0.750			
0.7423	47506.89	3.6740	3.6740	0.9578	6.10	0.06	0.750			
0.7451	47688.48	3.6710	3.6711	0.9497	6.09	0.05	0.750			
0.7480	47871.53	3.6680	3.6682	0.9438	6.09	0.05	0.750			
0.7508	48054.25	3.6650	3.6649	0.9331	6.08	0.04	0.750			
0.7536	48227.47	3.6620	3.6619	0.9117	6.08	0.04	0.750			
0.7563	48401.49	3.6590	3.6591	0.9065	6.07	0.03	0.750			
0.7590	48574.11	3.6560	3.6561	0.9038	6.07	0.03	0.750			
0.7616	48744.48	3.6530	3.6528	0.9101	6.06	0.02	0.750			
0.7643	48915.75	3.6500	3.6502	0.9132	6.05	0.01	0.750			
0.7671	49094.90	3.6470	3.6468	0.9275	6.05	0.01	0.750			
0.7700	49277.60	3.6440	3.6440	0.9412	6.05	0.01	0.750			
0.7729	49462.53	3.6410	3.6410	0.9397	6.04	0.00	0.750			
0.7758	49652.45	3.6380	3.6380	0.9092	6.04	0.00	0.750			
0.7786	49829.88	3.6350	3.6348	0.8573	6.04	-0.00	0.750			
0.7811	49993.14	3.6320	3.6321	0.7743	6.04	-0.00	0.750			
0.7834	50138.37	3.6290	3.6290	0.6808	6.04	-0.00	0.750			
0.7853	50258.04	3.6260	3.6261	0.5714	6.03	-0.01	0.750			
0.7866	50340.99	3.6230	3.6235	0.4773	6.03	-0.01	0.750			
0.7878	50421.65	3.6200	3.6204	0.3763	6.03	-0.01	0.750			
0.7888	50485.14	3.6170	3.6170	0.3024	6.03	-0.01	0.750			
0.7895	50528.59	3.6140	3.6136	0.2201	6.03	-0.01	0.750			
0.7900	50559.43	3.6110	3.6100	0.1569	6.03	-0.01	0.750			
0.7903	50578.82	3.5930	3.5891	-0.0990	6.03	-0.01	0.750			
0.7903	50582.18	3.6080	3.5535	0.1075	6.03	-0.01	0.751			
0.7905	50593.27	3.6050	3.4274	0.0613	6.03	-0.01	0.755			
0.7905	50593.97	3.5960	3.4193	-0.0589	6.03	-0.01	0.755			
0.7906	50601.20	3.6020	3.3371	0.0213	6.03	-0.01	0.757			
0.7906	50601.43	3.5990	3.3345	-0.0188	6.03	-0.01	0.758			
