Ah_balance (normalized)	Ah_balance (mAh)	Voltage - fit (V)	Voltage -  interpolate (V)	dQ/dV (1/V)	Temperature (°C)	Temperature - diff (°C)	Current (C)	R_DC 0ms (mOhm)	R_DC 50ms (mOhm)	R_DC 50 ms PEC (mOhm)
0.0964	6167.70	4.1970	4.1992	0.5885	8.48	2.49	0.750			
0.0986	6311.50	4.1940	4.1960	0.7710	8.47	2.48	0.750			
0.1011	6469.24	4.1910	4.1922	0.8004	8.46	2.47	0.750			
0.1035	6626.80	4.1880	4.1889	0.7927	8.46	2.47	0.750			
0.1059	6776.26	4.1850	4.1857	0.7579	8.45	2.46	0.750			
0.1087	6957.91	4.1820	4.1814	0.8279	8.45	2.46	0.750			
0.1104	7066.27	4.1790	4.1789	0.6897	8.44	2.45	0.750			
0.1124	7194.64	4.1760	4.1761	0.6910	8.44	2.45	0.750			
0.1145	7328.51	4.1730	4.1728	0.6978	8.43	2.44	0.750			
0.1166	7463.53	4.1700	4.1700	0.7126	8.43	2.44	0.750			
0.1188	7601.36	4.1670	4.1670	0.7230	8.42	2.43	0.750			
0.1210	7742.92	4.1640	4.1640	0.7311	8.42	2.43	0.750			
0.1232	7886.89	4.1610	4.1609	0.7304	8.41	2.42	0.750			
0.1254	8026.12	4.1580	4.1581	0.7256	8.40	2.41	0.750			
0.1276	8165.85	4.1550	4.1551	0.7267	8.39	2.40	0.750			
0.1298	8306.20	4.1520	4.1518	0.7212	8.39	2.40	0.750			
0.1319	8440.69	4.1490	4.1489	0.7136	8.38	2.39	0.750			
0.1340	8577.63	4.1460	4.1462	0.7132	8.37	2.38	0.750			
0.1362	8714.36	4.1430	4.1430	0.7224	8.36	2.37	0.750			
0.1383	8853.78	4.1400	4.1399	0.7268	8.35	2.36	0.750			
0.1405	8992.51	4.1370	4.1370	0.7266	8.35	2.36	0.750			
0.1427	9131.57	4.1340	4.1341	0.7374	8.34	2.35	0.750			
0.1449	9275.61	4.1310	4.1310	0.7537	8.34	2.35	0.750			
0.1472	9421.94	4.1280	4.1280	0.7563	8.33	2.34	0.750			
0.1495	9569.77	4.1250	4.1249	0.7567	8.33	2.34	0.750			
0.1518	9715.16	4.1220	4.1221	0.7520	8.32	2.33	0.750			
0.1541	9861.79	4.1190	4.1191	0.7513	8.32	2.33	0.750			
0.1563	10004.49	4.1160	4.1160	0.7468	8.31	2.32	0.750			
0.1585	10143.75	4.1130	4.1129	0.7420	8.31	2.32	0.750			
0.1607	10284.41	4.1100	4.1100	0.7503	8.30	2.31	0.750			
0.1630	10430.96	4.1070	4.1069	0.7551	8.29	2.30	0.750			
0.1653	10576.47	4.1040	4.1040	0.7581	8.28	2.29	0.750			
0.1675	10722.49	4.1010	4.1010	0.7716	8.27	2.28	0.750			
0.1698	10870.27	4.0980	4.0981	0.7838	8.26	2.27	0.750			
0.1722	11023.04	4.0950	4.0949	0.7863	8.26	2.27	0.750			
0.1746	11175.47	4.0920	4.0920	0.7919	8.25	2.26	0.750			
0.1770	11330.70	4.0890	4.0891	0.7924	8.24	2.25	0.750			
0.1795	11485.82	4.0860	4.0861	0.7919	8.23	2.24	0.750			
0.1818	11635.66	4.0830	4.0829	0.7886	8.22	2.23	0.750			
0.1841	11784.05	4.0800	4.0801	0.7820	8.22	2.23	0.750			
0.1864	11931.42	4.0770	4.0769	0.7853	8.21	2.22	0.750			
0.1888	12084.71	4.0740	4.0740	0.7903	8.20	2.21	0.750			
0.1912	12236.32	4.0710	4.0710	0.7946	8.20	2.21	0.750			
0.1936	12388.81	4.0680	4.0681	0.8066	8.19	2.20	0.750			
0.1960	12545.92	4.0650	4.0650	0.8116	8.19	2.20	0.750			
0.1985	12701.00	4.0620	4.0617	0.8220	8.18	2.19	0.750			
0.2010	12861.50	4.0590	4.0591	0.8251	8.17	2.18	0.750			
0.2035	13021.10	4.0560	4.0560	0.8216	8.16	2.17	0.750			
0.2059	13179.83	4.0530	4.0531	0.8320	8.16	2.17	0.750			
0.2084	13335.61	4.0500	4.0503	0.8280	8.15	2.16	0.750			
0.2109	13494.93	4.0470	4.0466	0.8344	8.14	2.15	0.750			
0.2134	13656.33	4.0440	4.0439	0.8432	8.13	2.14	0.750			
0.2159	13817.95	4.0410	4.0412	0.8422	8.12	2.13	0.750			
0.2185	13985.69	4.0380	4.0378	0.8525	8.12	2.13	0.750			
0.2211	14147.86	4.0350	4.0351	0.8436	8.11	2.12	0.750			
0.2236	14310.00	4.0320	4.0318	0.8442	8.10	2.11	0.750			
0.2261	14471.55	4.0290	4.0291	0.8415	8.09	2.10	0.750			
0.2286	14632.10	4.0260	4.0260	0.8465	8.08	2.09	0.750			
0.2311	14792.81	4.0230	4.0230	0.8502	8.08	2.09	0.750			
0.2337	14955.38	4.0200	4.0200	0.8563	8.07	2.08	0.750			
0.2363	15120.75	4.0170	4.0170	0.8690	8.06	2.07	0.750			
0.2389	15288.99	4.0140	4.0141	0.8774	8.05	2.06	0.750			
0.2416	15460.64	4.0110	4.0109	0.8841	8.04	2.05	0.750			
0.2442	15631.64	4.0080	4.0080	0.8900	8.03	2.04	0.750			
0.2469	15799.81	4.0050	4.0051	0.8927	8.02	2.03	0.750			
0.2496	15972.64	4.0020	4.0020	0.9037	8.01	2.02	0.750			
0.2523	16148.15	3.9990	3.9989	0.9015	8.00	2.01	0.750			
0.2550	16321.57	3.9960	3.9960	0.9018	7.99	2.00	0.750			
0.2578	16496.90	3.9930	3.9931	0.9035	7.98	1.99	0.750			
0.2605	16669.50	3.9900	3.9899	0.9031	7.97	1.98	0.750			
0.2631	16839.80	3.9870	3.9870	0.9007	7.96	1.97	0.750			
0.2658	17012.01	3.9840	3.9840	0.8937	7.95	1.96	0.750			
0.2685	17182.63	3.9810	3.9810	0.8991	7.95	1.96	0.750			
0.2712	17355.62	3.9780	3.9782	0.9130	7.94	1.95	0.750			
0.2739	17529.84	3.9750	3.9747	0.9206	7.93	1.94	0.750			
0.2767	17707.73	3.9720	3.9720	0.9285	7.92	1.93	0.750			
0.2795	17886.97	3.9690	3.9690	0.9445	7.91	1.92	0.750			
0.2824	18071.49	3.9660	3.9661	0.9560	7.89	1.90	0.750			
0.2853	18258.22	3.9630	3.9629	0.9527	7.88	1.89	0.750			
0.2882	18442.86	3.9600	3.9601	0.9542	7.87	1.88	0.750			
0.2910	18624.53	3.9570	3.9571	0.9594	7.86	1.87	0.750			
0.2939	18808.05	3.9540	3.9539	0.9652	7.85	1.86	0.750			
0.2967	18991.34	3.9510	3.9510	0.9688	7.84	1.85	0.750			
0.2997	19179.02	3.9480	3.9481	0.9825	7.83	1.84	0.750			
0.3027	19372.71	3.9450	3.9450	1.0008	7.81	1.82	0.750			
0.3057	19567.12	3.9420	3.9419	1.0115	7.80	1.81	0.750			
0.3088	19760.49	3.9390	3.9392	1.0184	7.79	1.80	0.750			
0.3118	19958.10	3.9360	3.9360	1.0172	7.78	1.79	0.750			
0.3149	20154.24	3.9330	3.9330	1.0208	7.77	1.78	0.750			
0.3180	20348.95	3.9300	3.9300	1.0249	7.76	1.77	0.750			
0.3210	20544.51	3.9270	3.9272	1.0343	7.75	1.76	0.750			
0.3242	20748.05	3.9240	3.9239	1.0377	7.74	1.75	0.750			
0.3272	20943.88	3.9210	3.9210	1.0489	7.73	1.74	0.750			
0.3304	21143.74	3.9180	3.9181	1.0639	7.71	1.72	0.750			
0.3336	21352.32	3.9150	3.9151	1.0824	7.70	1.71	0.750			
0.3369	21563.60	3.9120	3.9118	1.0871	7.69	1.70	0.750			
0.3402	21773.56	3.9090	3.9091	1.0946	7.67	1.68	0.750			
0.3435	21984.89	3.9060	3.9061	1.1042	7.66	1.67	0.750			
0.3469	22199.71	3.9030	3.9030	1.1086	7.65	1.66	0.750			
0.3501	22409.49	3.9000	3.9001	1.1166	7.63	1.64	0.750			
0.3535	22621.97	3.8970	3.8970	1.1274	7.62	1.63	0.750			
0.3569	22840.41	3.8940	3.8940	1.1521	7.60	1.61	0.750			
0.3604	23065.34	3.8910	3.8910	1.1763	7.58	1.59	0.750			
0.3639	23291.16	3.8880	3.8880	1.2026	7.57	1.58	0.750			
0.3676	23527.73	3.8850	3.8850	1.2181	7.55	1.56	0.750			
0.3714	23767.55	3.8820	3.8819	1.2321	7.54	1.55	0.750			
0.3750	24000.78	3.8790	3.8791	1.2234	7.52	1.53	0.750			
0.3786	24231.85	3.8760	3.8763	1.2412	7.51	1.52	0.750			
0.3823	24468.86	3.8730	3.8727	1.2597	7.49	1.50	0.750	0.376	0.820	
0.3861	24709.68	3.8700	3.8698	1.2797	7.48	1.49	0.750			
0.3899	24956.75	3.8670	3.8670	1.3052	7.46	1.47	0.750			
0.3940	25215.60	3.8640	3.8642	1.3425	7.44	1.45	0.750			
0.3982	25484.30	3.8610	3.8608	1.3805	7.42	1.43	0.750			
0.4022	25743.90	3.8580	3.8581	1.3850	7.41	1.42	0.750			
0.4065	26014.94	3.8550	3.8549	1.4051	7.39	1.40	0.750			
0.4108	26291.26	3.8520	3.8517	1.3968	7.37	1.38	0.750			
0.4149	26556.65	3.8490	3.8492	1.4100	7.35	1.36	0.750			
0.4192	26827.03	3.8460	3.8461	1.4218	7.33	1.34	0.750			
0.4234	27097.84	3.8430	3.8428	1.4473	7.31	1.32	0.750			
0.4277	27371.60	3.8400	3.8403	1.4638	7.29	1.30	0.750			
0.4322	27657.88	3.8370	3.8370	1.5103	7.27	1.28	0.750			
0.4368	27955.86	3.8340	3.8341	1.5503	7.25	1.26	0.750			
0.4416	28261.46	3.8310	3.8308	1.5736	7.22	1.23	0.750			
0.4463	28565.10	3.8280	3.8282	1.5886	7.20	1.21	0.750			
0.4511	28872.04	3.8250	3.8250	1.6016	7.18	1.19	0.750			
0.4559	29179.81	3.8220	3.8222	1.6190	7.16	1.17	0.750			
0.4608	29490.27	3.8190	3.8187	1.6508	7.14	1.15	0.750			
0.4657	29804.26	3.8160	3.8161	1.6786	7.11	1.12	0.750			
0.4709	30135.15	3.8130	3.8131	1.6911	7.09	1.10	0.750			
0.4760	30461.47	3.8100	3.8101	1.7341	7.06	1.07	0.750			
0.4812	30798.15	3.8070	3.8070	1.7461	7.04	1.05	0.750			
0.4865	31136.30	3.8040	3.8036	1.7634	7.02	1.03	0.750			
0.4917	31471.87	3.8010	3.8010	1.7912	6.99	1.00	0.750			
0.4972	31819.96	3.7980	3.7981	1.8123	6.96	0.97	0.750			
0.5026	32168.63	3.7950	3.7952	1.8457	6.93	0.94	0.750			
0.5082	32527.81	3.7920	3.7919	1.8432	6.90	0.91	0.750			
0.5138	32882.04	3.7890	3.7890	1.8544	6.88	0.89	0.750			
0.5194	33242.55	3.7860	3.7862	1.8748	6.86	0.87	0.750			
0.5251	33608.80	3.7830	3.7829	1.8989	6.83	0.84	0.750			
0.5308	33968.35	3.7800	3.7801	1.9306	6.80	0.81	0.750			
0.5365	34334.85	3.7770	3.7774	1.9582	6.77	0.78	0.750			
0.5424	34716.72	3.7740	3.7740	2.0235	6.74	0.75	0.750			
0.5485	35103.77	3.7710	3.7711	2.0808	6.72	0.73	0.750			
0.5548	35509.32	3.7680	3.7680	2.1798	6.68	0.69	0.750			
0.5615	35938.49	3.7650	3.7651	2.2514	6.65	0.66	0.750			
0.5684	36379.93	3.7620	3.7620	2.3456	6.61	0.62	0.750			
0.5756	36840.43	3.7590	3.7590	2.4412	6.58	0.59	0.750			
0.5830	37313.21	3.7560	3.7560	2.5550	6.55	0.56	0.750			
0.5908	37812.10	3.7530	3.7529	2.6186	6.52	0.53	0.750			
0.5989	38328.72	3.7500	3.7502	2.7644	6.48	0.49	0.750			
0.6072	38861.04	3.7470	3.7470	2.9176	6.45	0.46	0.750			
0.6163	39441.12	3.7440	3.7441	3.0443	6.41	0.42	0.750			
0.6259	40055.73	3.7410	3.7411	3.1270	6.37	0.38	0.750			
0.6353	40661.64	3.7380	3.7379	3.1448	6.33	0.34	0.750			
0.6449	41276.40	3.7350	3.7349	2.9574	6.29	0.30	0.750			
0.6537	41835.43	3.7320	3.7321	2.7513	6.26	0.27	0.750			
0.6614	42328.39	3.7290	3.7289	2.4018	6.24	0.25	0.750			
0.6678	42738.74	3.7260	3.7261	2.0334	6.21	0.22	0.750			
0.6733	43093.09	3.7230	3.7230	1.7729	6.19	0.20	0.750			
0.6781	43400.53	3.7200	3.7200	1.5537	6.18	0.19	0.750			
0.6822	43658.92	3.7170	3.7169	1.3949	6.17	0.18	0.750			
0.6859	43895.22	3.7140	3.7138	1.2631	6.16	0.17	0.750			
0.6895	44125.22	3.7110	3.7109	1.1989	6.15	0.16	0.750			
0.6930	44352.38	3.7080	3.7080	1.1660	6.14	0.15	0.750			
0.6964	44570.37	3.7050	3.7050	1.1345	6.13	0.14	0.750			
0.6997	44783.99	3.7020	3.7020	1.1018	6.12	0.13	0.750			
0.7030	44991.51	3.6990	3.6990	1.0927	6.11	0.12	0.750			
0.7063	45202.32	3.6960	3.6959	1.0769	6.10	0.11	0.750			
0.7095	45409.89	3.6930	3.6929	1.0548	6.08	0.09	0.750			
0.7127	45612.07	3.6900	3.6902	1.0244	6.08	0.09	0.750			
0.7158	45808.13	3.6870	3.6871	0.9969	6.07	0.08	0.750			
0.7187	45994.47	3.6840	3.6839	0.9708	6.06	0.07	0.750			
0.7215	46173.30	3.6810	3.6809	0.9447	6.06	0.07	0.750			
0.7242	46350.81	3.6780	3.6781	0.9206	6.05	0.06	0.750			
0.7270	46526.44	3.6750	3.6750	0.9076	6.04	0.05	0.750			
0.7297	46700.01	3.6720	3.6721	0.9096	6.04	0.05	0.750			
0.7324	46874.01	3.6690	3.6690	0.9004	6.03	0.04	0.750			
0.7351	47045.25	3.6660	3.6658	0.8910	6.02	0.03	0.750			
0.7377	47215.39	3.6630	3.6631	0.8858	6.02	0.03	0.750			
0.7404	47384.76	3.6600	3.6601	0.8786	6.01	0.02	0.750			
0.7430	47552.26	3.6570	3.6570	0.8862	6.01	0.02	0.750			
0.7456	47721.38	3.6540	3.6540	0.8816	6.00	0.01	0.750			
0.7483	47890.53	3.6510	3.6507	0.8731	6.00	0.01	0.750			
0.7510	48063.36	3.6480	3.6481	0.8681	6.00	0.01	0.750			
0.7537	48234.18	3.6450	3.6451	0.8280	6.00	0.01	0.750			
0.7563	48401.46	3.6420	3.6419	0.7758	5.99	0.00	0.750			
0.7585	48546.57	3.6390	3.6392	0.6894	5.99	0.00	0.750			
0.7605	48671.75	3.6360	3.6361	0.5942	5.99	0.00	0.750			
0.7621	48776.93	3.6330	3.6330	0.4992	5.99	-0.00	0.750			
0.7632	48847.56	3.6300	3.6304	0.4185	5.99	-0.00	0.750			
0.7643	48917.16	3.6270	3.6274	0.3305	5.99	-0.00	0.750			
0.7652	48971.43	3.6240	3.6241	0.2608	5.99	-0.00	0.750			
0.7658	49012.79	3.6210	3.6203	0.2025	5.99	-0.00	0.750			
0.7663	49043.71	3.6180	3.6121	0.1522	5.99	-0.00	0.750			
0.7664	49049.26	3.5970	3.5960	-0.1113	5.99	-0.00	0.750			
0.7666	49063.14	3.6150	3.4066	0.1045	5.99	-0.00	0.754			
0.7667	49067.29	3.6000	3.3476	-0.0765	5.99	-0.00	0.756			
0.7668	49072.69	3.6120	3.2707	0.0625	5.99	-0.00	0.758			
0.7669	49078.64	3.6030	3.1859	-0.0418	5.99	-0.00	0.760			
0.7669	49081.35	3.6090	3.1475	0.0277	5.99	-0.00	0.761			
0.7669	49083.33	3.6060	3.1192	-0.0070	5.99	-0.00	0.761			
