Ah_balance (normalized)	Ah_balance (mAh)	Voltage - fit (V)	Voltage -  interpolate (V)	dQ/dV (1/V)	Temperature (°C)	Temperature - diff (°C)	Current (C)	R_DC 0ms (mOhm)	R_DC 50ms (mOhm)	R_DC 50 ms PEC (mOhm)
0.0000	0.00	4.0810	4.1348	0.0000	5.99	-0.00	-0.748			
0.0000	0.00	4.0840	4.1348	0.0000	5.99	-0.00	-0.748			
0.0000	0.00	4.0870	4.1348	0.0000	5.99	-0.00	-0.748			
0.0000	0.00	4.0900	4.1348	0.0000	5.99	-0.00	-0.748			
0.0002	10.52	4.0780	4.0798	-0.0553	5.99	-0.00	-0.750			
0.0004	22.94	4.0750	4.0753	-0.0786	5.99	-0.00	-0.750			
0.0006	40.24	4.0720	4.0719	-0.1016	5.99	-0.00	-0.750			
0.0010	61.55	4.0690	4.0690	-0.1273	5.99	-0.00	-0.750			
0.0014	88.44	4.0660	4.0660	-0.1493	5.99	-0.00	-0.750			
0.0019	119.33	4.0630	4.0628	-0.1699	5.99	-0.00	-0.750			
0.0024	154.34	4.0600	4.0602	-0.1954	5.99	-0.00	-0.750			
0.0030	193.97	4.0570	4.0570	-0.2194	5.99	0.00	-0.750			
0.0037	239.01	4.0540	4.0539	-0.2404	5.99	0.00	-0.750			
0.0045	286.94	4.0510	4.0510	-0.2639	5.99	0.00	-0.750			
0.0053	339.82	4.0480	4.0480	-0.2855	5.99	0.00	-0.750			
0.0062	397.03	4.0450	4.0450	-0.3080	5.99	0.00	-0.750			
0.0072	458.63	4.0420	4.0421	-0.3323	5.99	0.00	-0.750			
0.0082	523.87	4.0390	4.0390	-0.3539	5.99	0.00	-0.750			
0.0093	594.65	4.0360	4.0361	-0.3770	6.00	0.01	-0.750			
0.0105	670.22	4.0330	4.0329	-0.4002	6.00	0.01	-0.750			
0.0117	748.12	4.0300	4.0300	-0.4222	6.00	0.01	-0.750			
0.0130	832.11	4.0270	4.0270	-0.4444	6.00	0.01	-0.750			
0.0144	919.10	4.0240	4.0240	-0.4639	6.00	0.01	-0.750			
0.0158	1009.78	4.0210	4.0209	-0.4850	6.00	0.01	-0.750			
0.0173	1105.07	4.0180	4.0181	-0.5076	6.01	0.02	-0.750			
0.0188	1204.67	4.0150	4.0148	-0.5283	6.01	0.02	-0.750			
0.0204	1308.11	4.0120	4.0121	-0.5465	6.01	0.02	-0.750			
0.0221	1417.32	4.0090	4.0089	-0.5630	6.02	0.03	-0.750			
0.0239	1527.49	4.0060	4.0060	-0.5776	6.02	0.03	-0.750			
0.0256	1639.67	4.0030	4.0030	-0.5899	6.03	0.04	-0.750			
0.0274	1753.96	4.0000	4.0002	-0.5963	6.03	0.04	-0.750			
0.0292	1868.65	3.9970	3.9968	-0.6109	6.04	0.05	-0.750			
0.0310	1985.82	3.9940	3.9941	-0.6251	6.04	0.05	-0.750			
0.0329	2105.91	3.9910	3.9910	-0.6448	6.05	0.06	-0.750			
0.0349	2235.93	3.9880	3.9879	-0.6546	6.06	0.07	-0.750			
0.0369	2363.39	3.9850	3.9850	-0.6512	6.07	0.08	-0.750			
0.0389	2488.83	3.9820	3.9819	-0.6593	6.08	0.09	-0.750			
0.0409	2616.02	3.9790	3.9790	-0.6606	6.08	0.09	-0.750			
0.0428	2740.11	3.9760	3.9758	-0.6629	6.09	0.10	-0.750			
0.0447	2863.33	3.9730	3.9732	-0.6756	6.10	0.11	-0.750			
0.0468	2993.89	3.9700	3.9700	-0.6825	6.11	0.12	-0.750			
0.0489	3131.34	3.9670	3.9668	-0.6969	6.12	0.13	-0.750			
0.0511	3269.19	3.9640	3.9640	-0.6992	6.13	0.14	-0.750			
0.0532	3401.93	3.9610	3.9613	-0.6958	6.14	0.15	-0.750			
0.0553	3536.13	3.9580	3.9580	-0.6999	6.15	0.16	-0.750			
0.0573	3669.21	3.9550	3.9549	-0.6989	6.16	0.17	-0.750			
0.0594	3799.78	3.9520	3.9520	-0.6906	6.17	0.18	-0.750			
0.0615	3934.53	3.9490	3.9490	-0.6996	6.18	0.19	-0.750			
0.0636	4069.42	3.9460	3.9462	-0.7138	6.18	0.19	-0.750			
0.0657	4206.63	3.9430	3.9429	-0.7227	6.19	0.20	-0.750			
0.0679	4345.38	3.9400	3.9400	-0.7276	6.20	0.21	-0.750			
0.0701	4487.77	3.9370	3.9370	-0.7312	6.21	0.22	-0.750			
0.0724	4631.12	3.9340	3.9341	-0.7345	6.23	0.24	-0.750			
0.0746	4772.84	3.9310	3.9310	-0.7358	6.24	0.25	-0.750			
0.0768	4912.54	3.9280	3.9279	-0.7317	6.25	0.26	-0.750			
0.0789	5050.13	3.9250	3.9249	-0.7299	6.26	0.27	-0.750			
0.0811	5188.87	3.9220	3.9220	-0.7342	6.27	0.28	-0.750			
0.0833	5331.41	3.9190	3.9189	-0.7401	6.28	0.29	-0.750			
0.0855	5473.67	3.9160	3.9160	-0.7429	6.30	0.31	-0.750			
0.0878	5620.08	3.9130	3.9131	-0.7478	6.31	0.32	-0.750			
0.0901	5763.90	3.9100	3.9099	-0.7401	6.32	0.33	-0.750			
0.0923	5904.52	3.9070	3.9071	-0.7456	6.33	0.34	-0.750			
0.0945	6048.34	3.9040	3.9041	-0.7426	6.34	0.35	-0.750			
0.0967	6189.70	3.9010	3.9008	-0.7491	6.35	0.36	-0.750			
0.0990	6335.51	3.8980	3.8980	-0.7521	6.36	0.37	-0.750			
0.1013	6480.87	3.8950	3.8949	-0.7486	6.37	0.38	-0.750			
0.1035	6624.47	3.8920	3.8921	-0.7490	6.39	0.40	-0.750			
0.1058	6768.85	3.8890	3.8891	-0.7535	6.40	0.41	-0.750			
0.1080	6910.40	3.8860	3.8859	-0.7566	6.41	0.42	-0.750			
0.1103	7057.08	3.8830	3.8829	-0.7523	6.42	0.43	-0.750			
0.1125	7202.88	3.8800	3.8800	-0.7632	6.44	0.45	-0.750			
0.1149	7351.79	3.8770	3.8772	-0.7684	6.45	0.46	-0.750			
0.1172	7500.90	3.8740	3.8739	-0.7634	6.46	0.47	-0.750			
0.1195	7645.75	3.8710	3.8708	-0.7589	6.47	0.48	-0.750			
0.1217	7789.90	3.8680	3.8682	-0.7614	6.48	0.49	-0.750			
0.1240	7936.15	3.8650	3.8650	-0.7629	6.49	0.50	-0.750			
0.1263	8083.17	3.8620	3.8618	-0.7688	6.50	0.51	-0.750			
0.1286	8229.14	3.8590	3.8591	-0.7651	6.52	0.53	-0.750			
0.1309	8377.94	3.8560	3.8560	-0.7714	6.53	0.54	-0.750			
0.1332	8527.50	3.8530	3.8531	-0.7748	6.54	0.55	-0.750			
0.1356	8677.15	3.8500	3.8500	-0.7680	6.56	0.57	-0.750			
0.1379	8824.00	3.8470	3.8470	-0.7655	6.57	0.58	-0.750			
0.1402	8970.45	3.8440	3.8442	-0.7667	6.58	0.59	-0.750			
0.1424	9116.29	3.8410	3.8410	-0.7652	6.59	0.60	-0.750			
0.1448	9265.39	3.8380	3.8379	-0.7651	6.60	0.61	-0.750			
0.1471	9411.29	3.8350	3.8350	-0.7645	6.61	0.62	-0.750			
0.1494	9558.68	3.8320	3.8321	-0.7657	6.62	0.63	-0.750			
0.1517	9707.26	3.8290	3.8290	-0.7633	6.64	0.65	-0.750			
0.1539	9852.56	3.8260	3.8258	-0.7585	6.65	0.66	-0.750			
0.1562	9995.09	3.8230	3.8231	-0.7650	6.66	0.67	-0.750			
0.1584	10140.44	3.8200	3.8200	-0.7680	6.67	0.68	-0.750			
0.1608	10288.64	3.8170	3.8168	-0.7770	6.68	0.69	-0.750			
0.1631	10440.84	3.8140	3.8139	-0.7782	6.69	0.70	-0.750			
0.1655	10591.97	3.8110	3.8113	-0.7832	6.70	0.71	-0.750			
0.1679	10744.99	3.8080	3.8081	-0.7900	6.72	0.73	-0.750			
0.1703	10896.31	3.8050	3.8049	-0.7850	6.73	0.74	-0.750			
0.1726	11043.71	3.8020	3.8020	-0.7725	6.75	0.76	-0.750			
0.1749	11194.27	3.7990	3.7990	-0.7729	6.76	0.77	-0.750			
0.1772	11342.06	3.7960	3.7960	-0.7703	6.78	0.79	-0.750			
0.1795	11488.42	3.7930	3.7930	-0.7738	6.79	0.80	-0.750			
0.1818	11634.65	3.7900	3.7901	-0.7743	6.80	0.81	-0.750			
0.1841	11784.07	3.7870	3.7869	-0.7780	6.81	0.82	-0.750			
0.1865	11933.43	3.7840	3.7839	-0.7829	6.82	0.83	-0.750			
0.1889	12087.62	3.7810	3.7810	-0.7862	6.83	0.84	-0.750			
0.1912	12238.67	3.7780	3.7781	-0.7844	6.85	0.86	-0.750			
0.1936	12388.42	3.7750	3.7750	-0.7921	6.86	0.87	-0.750			
0.1960	12541.56	3.7720	3.7720	-0.7877	6.87	0.88	-0.750			
0.1983	12691.17	3.7690	3.7689	-0.7876	6.88	0.89	-0.750			
0.2007	12842.50	3.7660	3.7661	-0.7917	6.89	0.90	-0.750			
0.2031	12995.53	3.7630	3.7631	-0.7936	6.90	0.91	-0.750			
0.2054	13148.63	3.7600	3.7599	-0.7949	6.91	0.92	-0.750			
0.2079	13303.04	3.7570	3.7570	-0.7937	6.93	0.94	-0.750			
0.2102	13453.98	3.7540	3.7541	-0.7928	6.94	0.95	-0.750			
0.2126	13608.56	3.7510	3.7509	-0.7980	6.95	0.96	-0.750			
0.2150	13760.20	3.7480	3.7484	-0.7945	6.96	0.97	-0.750			
0.2174	13910.87	3.7450	3.7449	-0.7935	6.97	0.98	-0.750			
0.2197	14062.78	3.7420	3.7421	-0.8028	6.98	0.99	-0.750			
0.2222	14217.74	3.7390	3.7390	-0.8041	6.99	1.00	-0.750			
0.2246	14374.84	3.7360	3.7359	-0.8172	7.01	1.02	-0.750			
0.2270	14528.87	3.7330	3.7332	-0.8213	7.02	1.03	-0.750			
0.2295	14687.48	3.7300	3.7300	-0.8280	7.03	1.04	-0.750			
0.2320	14846.59	3.7270	3.7269	-0.8396	7.04	1.05	-0.750			
0.2345	15010.03	3.7240	3.7240	-0.8390	7.05	1.06	-0.750			
0.2371	15172.79	3.7210	3.7210	-0.8338	7.07	1.08	-0.750			
0.2396	15337.04	3.7180	3.7180	-0.8367	7.08	1.09	-0.750			
0.2421	15494.33	3.7150	3.7152	-0.8351	7.09	1.10	-0.750			
0.2445	15650.70	3.7120	3.7119	-0.8357	7.10	1.11	-0.750			
0.2471	15812.11	3.7090	3.7089	-0.8430	7.11	1.12	-0.750			
0.2496	15972.93	3.7060	3.7060	-0.8502	7.13	1.14	-0.750			
0.2522	16139.57	3.7030	3.7031	-0.8705	7.14	1.15	-0.750			
0.2548	16306.78	3.7000	3.6999	-0.8832	7.15	1.16	-0.750			
0.2575	16477.37	3.6970	3.6970	-0.8933	7.16	1.17	-0.750			
0.2602	16650.75	3.6940	3.6939	-0.8919	7.18	1.19	-0.750			
0.2629	16823.13	3.6910	3.6910	-0.8895	7.19	1.20	-0.750			
0.2656	16996.97	3.6880	3.6882	-0.8949	7.20	1.21	-0.750			
0.2682	17167.09	3.6850	3.6848	-0.8942	7.21	1.22	-0.750			
0.2709	17336.26	3.6820	3.6820	-0.8978	7.22	1.23	-0.750			
0.2736	17508.86	3.6790	3.6790	-0.9032	7.23	1.24	-0.750			
0.2763	17683.73	3.6760	3.6760	-0.9110	7.24	1.25	-0.750			
0.2791	17860.02	3.6730	3.6732	-0.9262	7.25	1.26	-0.750			
0.2819	18039.17	3.6700	3.6699	-0.9412	7.26	1.27	-0.750			
0.2847	18220.61	3.6670	3.6669	-0.9456	7.27	1.28	-0.750			
0.2875	18402.77	3.6640	3.6639	-0.9547	7.28	1.29	-0.750			
0.2904	18587.93	3.6610	3.6612	-0.9606	7.29	1.30	-0.750			
0.2934	18776.14	3.6580	3.6579	-0.9728	7.30	1.31	-0.750			
0.2963	18964.47	3.6550	3.6549	-0.9660	7.31	1.32	-0.750			
0.2992	19147.76	3.6520	3.6520	-0.9611	7.32	1.33	-0.750			
0.3021	19335.70	3.6490	3.6491	-0.9612	7.33	1.34	-0.750			
0.3050	19517.30	3.6460	3.6459	-0.9678	7.34	1.35	-0.750			
0.3078	19700.95	3.6430	3.6430	-0.9645	7.35	1.36	-0.750			
0.3107	19885.63	3.6400	3.6399	-0.9725	7.36	1.37	-0.750			
0.3136	20071.55	3.6370	3.6371	-0.9824	7.37	1.38	-0.750			
0.3166	20262.84	3.6340	3.6339	-1.0087	7.38	1.39	-0.750			
0.3196	20457.07	3.6310	3.6309	-1.0241	7.38	1.39	-0.750			
0.3228	20657.35	3.6280	3.6279	-1.0381	7.39	1.40	-0.750			
0.3259	20858.55	3.6250	3.6250	-1.0443	7.40	1.41	-0.750			
0.3291	21064.00	3.6220	3.6222	-1.0500	7.41	1.42	-0.750			
0.3323	21267.86	3.6190	3.6189	-1.0455	7.42	1.43	-0.750			
0.3354	21467.07	3.6160	3.6161	-1.0404	7.43	1.44	-0.750			
0.3384	21660.75	3.6130	3.6130	-1.0400	7.44	1.45	-0.750			
0.3416	21861.12	3.6100	3.6101	-1.0539	7.44	1.45	-0.750			
0.3448	22065.31	3.6070	3.6069	-1.0625	7.45	1.46	-0.750			
0.3480	22270.15	3.6040	3.6040	-1.0683	7.46	1.47	-0.750			
0.3512	22478.43	3.6010	3.6011	-1.0803	7.47	1.48	-0.750			
0.3545	22686.46	3.5980	3.5979	-1.0961	7.48	1.49	-0.750			
0.3578	22897.38	3.5950	3.5948	-1.1016	7.49	1.50	-0.750			
0.3611	23109.87	3.5920	3.5920	-1.1116	7.50	1.51	-0.750			
0.3644	23322.64	3.5890	3.5892	-1.1268	7.51	1.52	-0.750			
0.3679	23545.90	3.5860	3.5859	-1.1425	7.52	1.53	-0.750			
0.3713	23765.68	3.5830	3.5831	-1.1473	7.53	1.54	-0.750			
0.3748	23984.72	3.5800	3.5799	-1.1477	7.53	1.54	-0.750	0.396	0.790	
0.3782	24204.21	3.5770	3.5771	-1.1524	7.54	1.55	-0.750			
0.3817	24430.41	3.5740	3.5739	-1.1569	7.55	1.56	-0.750			
0.3852	24652.07	3.5710	3.5710	-1.1562	7.55	1.56	-0.750			
0.3887	24874.88	3.5680	3.5679	-1.1523	7.56	1.57	-0.750			
0.3921	25097.57	3.5650	3.5650	-1.1721	7.57	1.58	-0.750			
0.3957	25321.91	3.5620	3.5620	-1.1727	7.57	1.58	-0.750			
0.3991	25544.93	3.5590	3.5588	-1.1831	7.58	1.59	-0.750			
0.4027	25770.54	3.5560	3.5564	-1.1988	7.59	1.60	-0.750			
0.4064	26008.18	3.5530	3.5528	-1.2192	7.60	1.61	-0.750			
0.4101	26243.61	3.5500	3.5499	-1.2232	7.61	1.62	-0.750			
0.4137	26479.92	3.5470	3.5470	-1.2341	7.62	1.63	-0.750			
0.4175	26719.13	3.5440	3.5441	-1.2431	7.63	1.64	-0.750			
0.4212	26959.48	3.5410	3.5409	-1.2471	7.64	1.65	-0.750			
0.4249	27194.87	3.5380	3.5379	-1.2443	7.64	1.65	-0.750			
0.4286	27433.48	3.5350	3.5352	-1.2482	7.65	1.66	-0.750			
0.4325	27677.87	3.5320	3.5320	-1.2643	7.66	1.67	-0.750			
0.4363	27920.74	3.5290	3.5290	-1.2608	7.66	1.67	-0.750			
0.4401	28164.32	3.5260	3.5261	-1.2549	7.67	1.68	-0.750			
0.4438	28406.32	3.5230	3.5231	-1.2524	7.68	1.69	-0.750			
0.4475	28642.57	3.5200	3.5200	-1.2615	7.69	1.70	-0.750			
0.4513	28883.95	3.5170	3.5169	-1.2685	7.71	1.72	-0.750			
0.4551	29126.82	3.5140	3.5138	-1.2728	7.72	1.73	-0.750			
0.4589	29372.68	3.5110	3.5110	-1.2793	7.73	1.74	-0.750			
0.4629	29624.16	3.5080	3.5081	-1.2902	7.73	1.74	-0.750			
0.4668	29873.77	3.5050	3.5051	-1.2853	7.74	1.75	-0.750			
0.4707	30121.93	3.5020	3.5020	-1.2783	7.75	1.76	-0.750			
0.4744	30364.29	3.4990	3.4991	-1.2632	7.76	1.77	-0.750			
0.4782	30605.49	3.4960	3.4960	-1.2579	7.76	1.77	-0.750			
0.4820	30847.09	3.4930	3.4930	-1.2458	7.77	1.78	-0.750			
0.4857	31083.60	3.4900	3.4900	-1.2476	7.79	1.80	-0.750			
0.4894	31319.44	3.4870	3.4870	-1.2568	7.80	1.81	-0.750			
0.4932	31564.79	3.4840	3.4839	-1.2524	7.81	1.82	-0.750			
0.4970	31806.53	3.4810	3.4810	-1.2432	7.82	1.83	-0.750			
0.5007	32047.15	3.4780	3.4781	-1.2363	7.83	1.84	-0.750			
0.5044	32282.47	3.4750	3.4750	-1.2365	7.84	1.85	-0.750			
0.5081	32519.24	3.4720	3.4719	-1.2331	7.85	1.86	-0.750			
0.5118	32753.36	3.4690	3.4689	-1.2172	7.86	1.87	-0.750			
0.5154	32985.80	3.4660	3.4662	-1.2109	7.87	1.88	-0.750			
0.5191	33222.14	3.4630	3.4630	-1.2138	7.88	1.89	-0.750			
0.5228	33456.77	3.4600	3.4600	-1.2042	7.89	1.90	-0.750			
0.5263	33686.02	3.4570	3.4569	-1.1853	7.91	1.92	-0.750			
0.5299	33911.33	3.4540	3.4540	-1.1757	7.92	1.93	-0.750			
0.5334	34137.01	3.4510	3.4510	-1.1676	7.93	1.94	-0.750			
0.5369	34360.91	3.4480	3.4479	-1.1582	7.94	1.95	-0.750			
0.5403	34578.48	3.4450	3.4452	-1.1532	7.95	1.96	-0.750			
0.5438	34802.46	3.4420	3.4421	-1.1428	7.96	1.97	-0.750			
0.5472	35021.93	3.4390	3.4388	-1.1327	7.97	1.98	-0.750			
0.5506	35237.92	3.4360	3.4359	-1.1242	7.98	1.99	-0.750			
0.5539	35451.69	3.4330	3.4330	-1.1252	8.00	2.01	-0.750			
0.5573	35666.40	3.4300	3.4299	-1.1191	8.01	2.02	-0.750			
0.5607	35884.48	3.4270	3.4269	-1.1026	8.02	2.03	-0.750			
0.5640	36094.75	3.4240	3.4241	-1.0829	8.04	2.05	-0.750			
0.5673	36304.74	3.4210	3.4210	-1.0773	8.05	2.06	-0.750			
0.5705	36509.28	3.4180	3.4179	-1.0581	8.06	2.07	-0.750			
0.5736	36708.65	3.4150	3.4149	-1.0382	8.07	2.08	-0.750			
0.5766	36901.89	3.4120	3.4119	-1.0208	8.09	2.10	-0.750			
0.5797	37100.45	3.4090	3.4090	-1.0186	8.10	2.11	-0.750			
0.5828	37297.31	3.4060	3.4059	-1.0102	8.12	2.13	-0.750			
0.5858	37490.20	3.4030	3.4029	-0.9949	8.13	2.14	-0.750			
0.5887	37678.94	3.4000	3.4001	-0.9775	8.14	2.15	-0.750			
0.5917	37866.24	3.3970	3.3970	-0.9657	8.16	2.17	-0.750			
0.5945	38050.61	3.3940	3.3940	-0.9551	8.17	2.18	-0.750			
0.5974	38232.62	3.3910	3.3910	-0.9305	8.19	2.20	-0.750			
0.6001	38409.55	3.3880	3.3880	-0.9114	8.20	2.21	-0.750			
0.6029	38585.35	3.3850	3.3851	-0.8925	8.21	2.22	-0.750			
0.6055	38754.42	3.3820	3.3820	-0.8714	8.22	2.23	-0.750			
0.6081	38918.24	3.3790	3.3789	-0.8611	8.24	2.25	-0.750			
0.6106	39080.37	3.3760	3.3760	-0.8423	8.25	2.26	-0.750			
0.6132	39241.77	3.3730	3.3728	-0.8286	8.26	2.27	-0.750			
0.6156	39400.72	3.3700	3.3702	-0.8148	8.27	2.28	-0.750			
0.6180	39555.00	3.3670	3.3671	-0.8036	8.29	2.30	-0.750			
0.6204	39708.34	3.3640	3.3639	-0.7888	8.31	2.32	-0.750			
0.6227	39855.10	3.3610	3.3611	-0.7699	8.32	2.33	-0.750			
0.6251	40005.37	3.3580	3.3580	-0.7604	8.33	2.34	-0.750			
0.6274	40151.97	3.3550	3.3550	-0.7477	8.35	2.36	-0.750			
0.6296	40294.37	3.3520	3.3520	-0.7269	8.36	2.37	-0.750			
0.6317	40430.82	3.3490	3.3491	-0.7071	8.37	2.38	-0.750			
0.6338	40562.81	3.3460	3.3460	-0.6930	8.39	2.40	-0.750			
0.6359	40694.82	3.3430	3.3429	-0.6810	8.40	2.41	-0.750			
0.6379	40822.98	3.3400	3.3400	-0.6694	8.41	2.42	-0.750			
0.6399	40951.04	3.3370	3.3372	-0.6624	8.42	2.43	-0.750			
0.6418	41078.14	3.3340	3.3339	-0.6552	8.43	2.44	-0.750			
0.6438	41204.37	3.3310	3.3309	-0.6422	8.45	2.46	-0.750			
0.6457	41325.53	3.3280	3.3281	-0.6293	8.46	2.47	-0.750			
0.6476	41446.76	3.3250	3.3250	-0.6188	8.47	2.48	-0.750			
0.6494	41563.76	3.3220	3.3220	-0.6031	8.49	2.50	-0.750			
0.6512	41676.64	3.3190	3.3190	-0.5873	8.50	2.51	-0.750			
0.6529	41787.95	3.3160	3.3161	-0.5744	8.51	2.52	-0.750			
0.6546	41896.81	3.3130	3.3130	-0.5665	8.53	2.54	-0.750			
0.6563	42005.51	3.3100	3.3100	-0.5564	8.54	2.55	-0.750			
0.6580	42110.38	3.3070	3.3069	-0.5457	8.55	2.56	-0.750			
0.6596	42214.33	3.3040	3.3040	-0.5391	8.56	2.57	-0.750			
0.6612	42316.84	3.3010	3.3011	-0.5294	8.57	2.58	-0.750			
0.6628	42417.50	3.2980	3.2979	-0.5207	8.58	2.59	-0.750			
0.6643	42517.24	3.2950	3.2949	-0.5107	8.60	2.61	-0.750			
0.6658	42613.66	3.2920	3.2919	-0.4993	8.61	2.62	-0.750			
0.6673	42709.70	3.2890	3.2890	-0.4891	8.62	2.63	-0.750			
0.6688	42802.74	3.2860	3.2860	-0.4769	8.64	2.65	-0.750			
0.6702	42891.63	3.2830	3.2830	-0.4706	8.65	2.66	-0.750			
0.6716	42981.74	3.2800	3.2801	-0.4651	8.66	2.67	-0.750			
0.6730	43069.80	3.2770	3.2768	-0.4617	8.67	2.68	-0.750			
0.6744	43159.03	3.2740	3.2741	-0.4566	8.69	2.70	-0.750			
0.6757	43247.32	3.2710	3.2709	-0.4500	8.70	2.71	-0.750			
0.6771	43333.34	3.2680	3.2682	-0.4428	8.71	2.72	-0.750			
0.6784	43418.27	3.2650	3.2649	-0.4322	8.72	2.73	-0.750			
0.6797	43499.08	3.2620	3.2620	-0.4204	8.73	2.74	-0.750			
0.6809	43578.16	3.2590	3.2590	-0.4121	8.74	2.75	-0.750			
0.6821	43655.95	3.2560	3.2560	-0.4054	8.75	2.76	-0.750			
0.6833	43733.44	3.2530	3.2530	-0.4006	8.76	2.77	-0.750			
0.6845	43809.45	3.2500	3.2500	-0.3944	8.77	2.78	-0.750			
0.6857	43884.50	3.2470	3.2470	-0.3901	8.78	2.79	-0.750			
0.6869	43960.09	3.2440	3.2440	-0.3850	8.79	2.80	-0.750			
0.6880	44032.85	3.2410	3.2410	-0.3798	8.80	2.81	-0.750			
0.6891	44104.83	3.2380	3.2380	-0.3767	8.81	2.82	-0.750			
0.6903	44176.37	3.2350	3.2350	-0.3726	8.81	2.82	-0.750			
0.6914	44247.65	3.2320	3.2319	-0.3700	8.83	2.84	-0.750			
0.6925	44319.33	3.2290	3.2290	-0.3658	8.84	2.85	-0.750			
0.6936	44389.39	3.2260	3.2261	-0.3608	8.85	2.86	-0.750			
0.6947	44458.69	3.2230	3.2230	-0.3560	8.87	2.88	-0.750			
0.6957	44525.93	3.2200	3.2200	-0.3508	8.88	2.89	-0.750			
0.6968	44592.09	3.2170	3.2169	-0.3445	8.89	2.90	-0.750			
0.6978	44658.04	3.2140	3.2139	-0.3394	8.90	2.91	-0.750			
0.6988	44722.14	3.2110	3.2112	-0.3371	8.92	2.93	-0.750			
0.6998	44787.19	3.2080	3.2079	-0.3324	8.92	2.93	-0.750			
0.7008	44850.77	3.2050	3.2048	-0.3280	8.93	2.94	-0.750			
0.7018	44913.32	3.2020	3.2020	-0.3227	8.94	2.95	-0.750			
0.7027	44974.20	3.1990	3.1993	-0.3167	8.94	2.95	-0.750			
0.7037	45035.17	3.1960	3.1959	-0.3157	8.96	2.97	-0.750			
0.7046	45095.27	3.1930	3.1930	-0.3123	8.97	2.98	-0.750			
0.7055	45153.62	3.1900	3.1900	-0.3072	8.98	2.99	-0.750			
0.7065	45213.73	3.1870	3.1870	-0.3064	8.99	3.00	-0.750			
0.7074	45272.86	3.1840	3.1840	-0.3027	9.00	3.01	-0.750			
0.7083	45330.89	3.1810	3.1810	-0.2987	9.02	3.03	-0.750			
0.7092	45387.82	3.1780	3.1780	-0.2940	9.03	3.04	-0.750			
0.7100	45442.74	3.1750	3.1750	-0.2898	9.04	3.05	-0.750			
0.7109	45497.95	3.1720	3.1719	-0.2859	9.05	3.06	-0.750			
0.7118	45552.17	3.1690	3.1690	-0.2842	9.06	3.07	-0.750			
0.7126	45606.98	3.1660	3.1660	-0.2825	9.07	3.08	-0.750			
0.7135	45661.36	3.1630	3.1631	-0.2805	9.07	3.08	-0.750			
0.7143	45715.22	3.1600	3.1599	-0.2775	9.08	3.09	-0.750			
0.7151	45767.89	3.1570	3.1572	-0.2746	9.09	3.10	-0.750			
0.7159	45820.36	3.1540	3.1540	-0.2715	9.10	3.11	-0.750			
0.7168	45872.16	3.1510	3.1510	-0.2689	9.11	3.12	-0.750			
0.7176	45923.41	3.1480	3.1480	-0.2672	9.13	3.14	-0.750			
0.7183	45973.91	3.1450	3.1451	-0.2647	9.14	3.15	-0.750			
0.7191	46025.02	3.1420	3.1420	-0.2631	9.15	3.16	-0.750			
0.7199	46075.57	3.1390	3.1390	-0.2603	9.16	3.17	-0.750			
0.7207	46125.24	3.1360	3.1361	-0.2588	9.17	3.18	-0.750			
0.7215	46174.71	3.1330	3.1330	-0.2562	9.18	3.19	-0.750			
0.7222	46223.96	3.1300	3.1299	-0.2543	9.19	3.20	-0.750			
0.7230	46272.28	3.1270	3.1271	-0.2522	9.20	3.21	-0.750			
0.7238	46320.09	3.1240	3.1240	-0.2504	9.21	3.22	-0.750			
0.7245	46368.30	3.1210	3.1210	-0.2493	9.22	3.23	-0.750			
0.7253	46416.10	3.1180	3.1179	-0.2477	9.23	3.24	-0.750			
0.7260	46463.56	3.1150	3.1150	-0.2442	9.24	3.25	-0.750			
0.7267	46510.68	3.1120	3.1120	-0.2424	9.25	3.26	-0.750			
0.7275	46556.87	3.1090	3.1091	-0.2405	9.26	3.27	-0.750			
0.7282	46602.74	3.1060	3.1061	-0.2376	9.27	3.28	-0.750			
0.7289	46647.76	3.1030	3.1029	-0.2346	9.28	3.29	-0.750			
0.7296	46692.26	3.1000	3.1000	-0.2334	9.29	3.30	-0.750			
0.7303	46736.87	3.0970	3.0970	-0.2322	9.30	3.31	-0.750			
0.7310	46781.29	3.0940	3.0941	-0.2315	9.31	3.32	-0.750			
0.7317	46826.11	3.0910	3.0909	-0.2306	9.32	3.33	-0.750			
0.7323	46870.13	3.0880	3.0880	-0.2287	9.33	3.34	-0.750			
0.7330	46913.64	3.0850	3.0851	-0.2276	9.34	3.35	-0.750			
0.7337	46957.27	3.0820	3.0820	-0.2269	9.35	3.36	-0.750			
0.7344	47000.94	3.0790	3.0790	-0.2263	9.36	3.37	-0.750			
0.7351	47044.28	3.0760	3.0759	-0.2235	9.37	3.38	-0.750			
0.7357	47087.29	3.0730	3.0731	-0.2220	9.38	3.39	-0.750			
0.7364	47129.39	3.0700	3.0701	-0.2209	9.39	3.40	-0.750			
0.7371	47171.71	3.0670	3.0670	-0.2195	9.40	3.41	-0.750			
0.7377	47213.65	3.0640	3.0639	-0.2179	9.41	3.42	-0.750			
0.7384	47254.86	3.0610	3.0609	-0.2164	9.42	3.43	-0.750			
0.7390	47296.40	3.0580	3.0581	-0.2156	9.43	3.44	-0.750			
0.7397	47337.77	3.0550	3.0551	-0.2153	9.44	3.45	-0.750			
0.7403	47379.49	3.0520	3.0519	-0.2149	9.45	3.46	-0.750			
0.7409	47420.59	3.0490	3.0490	-0.2140	9.46	3.47	-0.750			
0.7416	47461.47	3.0460	3.0459	-0.2122	9.47	3.48	-0.750			
0.7422	47502.12	3.0430	3.0431	-0.2113	9.48	3.49	-0.750			
0.7429	47542.89	3.0400	3.0400	-0.2103	9.49	3.50	-0.750			
0.7435	47583.00	3.0370	3.0370	-0.2089	9.50	3.51	-0.750			
0.7441	47623.09	3.0340	3.0339	-0.2077	9.52	3.53	-0.750			
0.7447	47662.82	3.0310	3.0311	-0.2061	9.53	3.54	-0.750			
0.7453	47702.08	3.0280	3.0280	-0.2053	9.54	3.55	-0.750			
0.7460	47741.25	3.0250	3.0251	-0.2042	9.55	3.56	-0.750			
0.7466	47780.43	3.0220	3.0220	-0.2036	9.56	3.57	-0.750			
0.7472	47819.56	3.0190	3.0189	-0.2023	9.57	3.58	-0.750			
0.7478	47858.39	3.0160	3.0160	-0.2009	9.58	3.59	-0.750			
0.7484	47896.80	3.0130	3.0130	-0.1998	9.59	3.60	-0.750			
0.7490	47935.04	3.0100	3.0100	-0.1985	9.60	3.61	-0.750			
0.7496	47973.18	3.0070	3.0070	-0.1969	9.62	3.63	-0.750			
0.7502	48010.64	3.0040	3.0040	-0.1964	9.63	3.64	-0.750			
0.7508	48048.40	3.0010	3.0010	-0.1983	9.64	3.65	-0.750			
