Ah_balance (normalized)	Ah_balance (mAh)	Voltage - fit (V)	Voltage -  interpolate (V)	dQ/dV (1/V)	Temperature (°C)	Temperature - diff (°C)	Current (C)	R_DC 0ms (mOhm)	R_DC 50ms (mOhm)	R_DC 50 ms PEC (mOhm)
0.0003	20.41	4.1040	4.1032	-0.0656	5.99	-0.01	-0.750			
0.0006	36.88	4.1010	4.1006	-0.0975	5.99	-0.01	-0.750			
0.0009	59.38	4.0980	4.0978	-0.1252	5.99	-0.01	-0.750			
0.0014	86.55	4.0950	4.0949	-0.1504	5.99	-0.01	-0.750			
0.0018	117.86	4.0920	4.0922	-0.1757	5.99	-0.01	-0.750			
0.0024	154.02	4.0890	4.0890	-0.2006	5.99	-0.01	-0.750			
0.0031	195.95	4.0860	4.0860	-0.2252	5.99	-0.01	-0.750			
0.0038	241.94	4.0830	4.0829	-0.2459	5.99	-0.01	-0.750			
0.0045	290.58	4.0800	4.0800	-0.2710	6.00	-0.00	-0.750			
0.0054	344.51	4.0770	4.0771	-0.2953	6.00	-0.00	-0.750			
0.0063	403.73	4.0740	4.0739	-0.3190	6.00	-0.00	-0.750			
0.0073	467.64	4.0710	4.0710	-0.3417	6.00	-0.00	-0.750			
0.0084	534.78	4.0680	4.0681	-0.3684	6.00	-0.00	-0.750			
0.0095	607.85	4.0650	4.0651	-0.3953	6.00	-0.00	-0.750			
0.0107	687.01	4.0620	4.0619	-0.4229	6.00	0.00	-0.750			
0.0120	770.71	4.0590	4.0590	-0.4446	6.00	0.00	-0.750			
0.0134	859.53	4.0560	4.0560	-0.4687	6.00	0.00	-0.750			
0.0149	952.09	4.0530	4.0531	-0.4914	6.00	0.00	-0.750			
0.0164	1049.98	4.0500	4.0499	-0.5085	6.00	0.00	-0.750			
0.0179	1147.73	4.0470	4.0470	-0.5232	6.01	0.01	-0.750			
0.0195	1249.64	4.0440	4.0440	-0.5399	6.01	0.01	-0.750			
0.0212	1354.92	4.0410	4.0410	-0.5577	6.01	0.01	-0.750			
0.0229	1464.51	4.0380	4.0379	-0.5779	6.01	0.01	-0.750			
0.0246	1576.09	4.0350	4.0351	-0.5952	6.01	0.01	-0.750			
0.0265	1692.85	4.0320	4.0321	-0.6130	6.02	0.02	-0.750			
0.0283	1813.17	4.0290	4.0289	-0.6320	6.03	0.03	-0.750			
0.0303	1936.74	4.0260	4.0259	-0.6428	6.03	0.03	-0.750			
0.0322	2061.73	4.0230	4.0231	-0.6560	6.04	0.04	-0.750			
0.0342	2189.14	4.0200	4.0199	-0.6637	6.05	0.05	-0.750			
0.0362	2318.11	4.0170	4.0171	-0.6713	6.05	0.05	-0.750			
0.0382	2447.74	4.0140	4.0139	-0.6780	6.06	0.06	-0.750			
0.0403	2578.26	4.0110	4.0110	-0.6859	6.06	0.06	-0.750			
0.0423	2708.64	4.0080	4.0081	-0.6902	6.07	0.07	-0.750			
0.0444	2842.83	4.0050	4.0050	-0.7043	6.08	0.08	-0.750			
0.0466	2980.04	4.0020	4.0020	-0.7081	6.09	0.09	-0.750			
0.0487	3117.35	3.9990	3.9991	-0.7158	6.09	0.09	-0.750			
0.0509	3255.21	3.9960	3.9961	-0.7179	6.10	0.10	-0.750			
0.0530	3392.90	3.9930	3.9930	-0.7300	6.11	0.11	-0.750			
0.0552	3534.95	3.9900	3.9899	-0.7295	6.11	0.11	-0.750			
0.0574	3675.19	3.9870	3.9869	-0.7322	6.12	0.12	-0.750			
0.0596	3815.80	3.9840	3.9841	-0.7356	6.13	0.13	-0.750			
0.0619	3958.72	3.9810	3.9809	-0.7402	6.13	0.13	-0.750			
0.0640	4099.09	3.9780	3.9780	-0.7447	6.14	0.14	-0.750			
0.0663	4241.07	3.9750	3.9749	-0.7528	6.15	0.15	-0.750			
0.0685	4386.29	3.9720	3.9720	-0.7572	6.16	0.16	-0.750			
0.0709	4535.37	3.9690	3.9689	-0.7654	6.17	0.17	-0.750			
0.0732	4683.93	3.9660	3.9661	-0.7648	6.18	0.18	-0.750			
0.0755	4831.48	3.9630	3.9630	-0.7629	6.19	0.19	-0.750			
0.0777	4975.96	3.9600	3.9601	-0.7676	6.20	0.20	-0.750			
0.0800	5123.08	3.9570	3.9570	-0.7648	6.21	0.21	-0.750			
0.0823	5269.34	3.9540	3.9539	-0.7649	6.22	0.22	-0.750			
0.0846	5416.82	3.9510	3.9509	-0.7667	6.24	0.24	-0.750			
0.0870	5565.43	3.9480	3.9482	-0.7680	6.25	0.25	-0.750			
0.0892	5711.87	3.9450	3.9450	-0.7695	6.25	0.25	-0.750			
0.0915	5858.80	3.9420	3.9420	-0.7694	6.26	0.26	-0.750			
0.0938	6005.48	3.9390	3.9390	-0.7697	6.27	0.27	-0.750			
0.0962	6154.68	3.9360	3.9359	-0.7803	6.28	0.28	-0.750			
0.0985	6304.26	3.9330	3.9332	-0.7828	6.29	0.29	-0.750			
0.1009	6455.52	3.9300	3.9300	-0.7872	6.30	0.30	-0.750			
0.1032	6607.24	3.9270	3.9270	-0.8010	6.31	0.31	-0.750			
0.1057	6763.46	3.9240	3.9238	-0.7988	6.32	0.32	-0.750			
0.1081	6918.14	3.9210	3.9209	-0.7998	6.33	0.33	-0.750			
0.1105	7072.60	3.9180	3.9183	-0.7947	6.34	0.34	-0.750			
0.1129	7225.03	3.9150	3.9150	-0.7898	6.35	0.35	-0.750			
0.1152	7375.50	3.9120	3.9120	-0.7895	6.36	0.36	-0.750			
0.1176	7523.71	3.9090	3.9090	-0.7838	6.37	0.37	-0.750			
0.1199	7672.19	3.9060	3.9060	-0.7933	6.38	0.38	-0.750			
0.1223	7825.79	3.9030	3.9029	-0.8048	6.40	0.40	-0.750			
0.1247	7981.98	3.9000	3.8999	-0.8081	6.41	0.41	-0.750			
0.1272	8138.11	3.8970	3.8970	-0.8179	6.42	0.42	-0.750			
0.1297	8297.63	3.8940	3.8941	-0.8140	6.43	0.43	-0.750			
0.1321	8452.94	3.8910	3.8910	-0.8158	6.44	0.44	-0.750			
0.1345	8610.93	3.8880	3.8880	-0.8134	6.45	0.45	-0.750			
0.1370	8765.28	3.8850	3.8848	-0.8093	6.46	0.46	-0.750			
0.1393	8917.67	3.8820	3.8821	-0.8179	6.47	0.47	-0.750			
0.1419	9078.44	3.8790	3.8789	-0.8124	6.48	0.48	-0.750			
0.1443	9233.40	3.8760	3.8759	-0.8119	6.49	0.49	-0.750			
0.1467	9390.96	3.8730	3.8729	-0.8128	6.50	0.50	-0.750			
0.1491	9544.09	3.8700	3.8698	-0.8109	6.51	0.51	-0.750			
0.1516	9701.00	3.8670	3.8670	-0.8141	6.53	0.53	-0.750			
0.1540	9856.01	3.8640	3.8638	-0.8138	6.54	0.54	-0.750			
0.1564	10010.34	3.8610	3.8611	-0.8150	6.55	0.55	-0.750			
0.1589	10172.49	3.8580	3.8580	-0.8293	6.56	0.56	-0.750			
0.1614	10330.20	3.8550	3.8551	-0.8326	6.57	0.57	-0.750			
0.1639	10491.99	3.8520	3.8519	-0.8360	6.58	0.58	-0.750			
0.1664	10652.51	3.8490	3.8490	-0.8435	6.59	0.59	-0.750			
0.1690	10815.74	3.8460	3.8461	-0.8518	6.60	0.60	-0.750			
0.1716	10980.64	3.8430	3.8429	-0.8525	6.61	0.61	-0.750			
0.1742	11146.48	3.8400	3.8401	-0.8496	6.63	0.63	-0.750			
0.1767	11308.92	3.8370	3.8369	-0.8462	6.64	0.64	-0.750			
0.1792	11470.91	3.8340	3.8340	-0.8423	6.65	0.65	-0.750			
0.1817	11631.59	3.8310	3.8310	-0.8311	6.66	0.66	-0.750			
0.1842	11791.73	3.8280	3.8279	-0.8311	6.67	0.67	-0.750			
0.1867	11950.03	3.8250	3.8252	-0.8258	6.69	0.69	-0.750			
0.1892	12107.15	3.8220	3.8220	-0.8373	6.70	0.70	-0.750			
0.1917	12269.53	3.8190	3.8189	-0.8379	6.71	0.71	-0.750			
0.1942	12428.17	3.8160	3.8160	-0.8394	6.72	0.72	-0.750			
0.1967	12591.33	3.8130	3.8130	-0.8470	6.73	0.73	-0.750			
0.1993	12756.23	3.8100	3.8099	-0.8592	6.74	0.74	-0.750			
0.2019	12922.56	3.8070	3.8069	-0.8535	6.76	0.76	-0.750			
0.2045	13085.57	3.8040	3.8040	-0.8540	6.77	0.77	-0.750			
0.2070	13248.29	3.8010	3.8011	-0.8471	6.78	0.78	-0.750			
0.2096	13413.50	3.7980	3.7979	-0.8564	6.79	0.79	-0.750			
0.2121	13575.23	3.7950	3.7950	-0.8568	6.80	0.80	-0.750			
0.2147	13740.37	3.7920	3.7920	-0.8634	6.81	0.81	-0.750			
0.2173	13906.18	3.7890	3.7890	-0.8664	6.82	0.82	-0.750			
0.2199	14075.08	3.7860	3.7860	-0.8758	6.83	0.83	-0.750			
0.2226	14243.54	3.7830	3.7830	-0.8756	6.85	0.85	-0.750			
0.2252	14412.91	3.7800	3.7799	-0.8811	6.86	0.86	-0.750			
0.2278	14580.96	3.7770	3.7770	-0.8781	6.87	0.87	-0.750			
0.2305	14748.90	3.7740	3.7740	-0.8776	6.88	0.88	-0.750			
0.2331	14917.95	3.7710	3.7709	-0.8809	6.89	0.89	-0.750			
0.2358	15089.16	3.7680	3.7682	-0.8815	6.90	0.90	-0.750			
0.2384	15256.56	3.7650	3.7650	-0.8843	6.91	0.91	-0.750			
0.2411	15427.91	3.7620	3.7620	-0.8857	6.92	0.92	-0.750			
0.2437	15597.39	3.7590	3.7590	-0.8856	6.93	0.93	-0.750			
0.2464	15767.96	3.7560	3.7559	-0.8843	6.93	0.93	-0.750			
0.2490	15937.55	3.7530	3.7531	-0.8814	6.94	0.94	-0.750			
0.2517	16106.65	3.7500	3.7500	-0.8834	6.96	0.96	-0.750			
0.2543	16275.94	3.7470	3.7470	-0.8844	6.97	0.97	-0.750			
0.2569	16443.13	3.7440	3.7440	-0.8855	6.98	0.98	-0.750			
0.2596	16616.23	3.7410	3.7409	-0.8899	7.00	1.00	-0.750			
0.2623	16785.06	3.7380	3.7380	-0.8961	7.01	1.01	-0.750			
0.2650	16958.86	3.7350	3.7350	-0.9031	7.01	1.01	-0.750			
0.2677	17134.21	3.7320	3.7321	-0.9015	7.02	1.02	-0.750			
0.2704	17306.49	3.7290	3.7288	-0.9017	7.03	1.03	-0.750			
0.2731	17479.69	3.7260	3.7263	-0.9043	7.04	1.04	-0.750			
0.2758	17652.37	3.7230	3.7230	-0.9098	7.05	1.05	-0.750			
0.2785	17827.10	3.7200	3.7199	-0.9213	7.07	1.07	-0.750			
0.2813	18003.21	3.7170	3.7170	-0.9258	7.08	1.08	-0.750			
0.2841	18183.62	3.7140	3.7140	-0.9323	7.09	1.09	-0.750			
0.2870	18364.82	3.7110	3.7109	-0.9369	7.10	1.10	-0.750			
0.2898	18544.63	3.7080	3.7082	-0.9415	7.11	1.11	-0.750			
0.2926	18725.01	3.7050	3.7050	-0.9457	7.12	1.12	-0.750			
0.2954	18905.46	3.7020	3.7019	-0.9470	7.12	1.12	-0.750			
0.2982	19087.69	3.6990	3.6991	-0.9554	7.13	1.13	-0.750			
0.3011	19271.36	3.6960	3.6960	-0.9648	7.14	1.14	-0.750			
0.3040	19458.47	3.6930	3.6931	-0.9734	7.15	1.15	-0.750			
0.3070	19647.47	3.6900	3.6900	-0.9738	7.17	1.17	-0.750			
0.3099	19834.61	3.6870	3.6870	-0.9763	7.18	1.18	-0.750			
0.3129	20022.81	3.6840	3.6841	-0.9753	7.19	1.19	-0.750			
0.3157	20207.31	3.6810	3.6810	-0.9804	7.20	1.20	-0.750			
0.3187	20394.10	3.6780	3.6780	-0.9893	7.21	1.21	-0.750			
0.3216	20583.12	3.6750	3.6749	-1.0044	7.22	1.22	-0.750			
0.3247	20778.29	3.6720	3.6721	-1.0178	7.22	1.22	-0.750			
0.3278	20977.36	3.6690	3.6690	-1.0288	7.23	1.23	-0.750			
0.3309	21176.93	3.6660	3.6660	-1.0392	7.24	1.24	-0.750			
0.3340	21376.82	3.6630	3.6631	-1.0420	7.25	1.25	-0.750			
0.3371	21577.25	3.6600	3.6600	-1.0553	7.26	1.26	-0.750			
0.3403	21780.71	3.6570	3.6570	-1.0626	7.27	1.27	-0.750			
0.3435	21986.58	3.6540	3.6539	-1.0655	7.28	1.28	-0.750			
0.3468	22194.12	3.6510	3.6511	-1.0737	7.29	1.29	-0.750			
0.3500	22400.31	3.6480	3.6479	-1.0749	7.30	1.30	-0.750			
0.3532	22605.42	3.6450	3.6449	-1.0773	7.31	1.31	-0.750			
0.3564	22809.71	3.6420	3.6421	-1.0892	7.32	1.32	-0.750			
0.3596	23015.58	3.6390	3.6391	-1.0950	7.33	1.33	-0.750			
0.3630	23233.00	3.6360	3.6359	-1.1164	7.34	1.34	-0.750			
0.3664	23451.18	3.6330	3.6329	-1.1272	7.34	1.34	-0.750			
0.3698	23668.61	3.6300	3.6301	-1.1382	7.35	1.35	-0.750			
0.3732	23886.61	3.6270	3.6273	-1.1587	7.36	1.36	-0.750			
0.3767	24110.57	3.6240	3.6239	-1.1691	7.37	1.37	-0.750			
0.3803	24338.53	3.6210	3.6208	-1.1726	7.38	1.38	-0.750			
0.3838	24564.70	3.6180	3.6179	-1.1790	7.39	1.39	-0.750			
0.3874	24794.16	3.6150	3.6149	-1.2064	7.39	1.39	-0.750			
0.3909	25020.12	3.6120	3.6120	-1.2281	7.40	1.40	-0.750			
0.3946	25255.53	3.6090	3.6088	-1.2416	7.40	1.40	-0.750			
0.3984	25495.70	3.6060	3.6061	-1.2645	7.41	1.41	-0.750			
0.4024	25751.16	3.6030	3.6030	-1.2892	7.42	1.42	-0.750	0.399	0.945	
0.4063	26002.39	3.6000	3.6000	-1.2892	7.43	1.43	-0.750			
0.4102	26249.92	3.5970	3.5973	-1.2900	7.44	1.44	-0.750			
0.4140	26493.87	3.5940	3.5939	-1.2737	7.45	1.45	-0.750			
0.4177	26733.64	3.5910	3.5908	-1.2673	7.46	1.46	-0.750			
0.4215	26973.64	3.5880	3.5880	-1.2880	7.47	1.47	-0.750			
0.4254	27224.35	3.5850	3.5851	-1.3093	7.47	1.47	-0.750			
0.4294	27479.42	3.5820	3.5818	-1.3263	7.48	1.48	-0.750			
0.4333	27732.09	3.5790	3.5789	-1.3564	7.49	1.49	-0.750			
0.4374	27994.96	3.5760	3.5761	-1.3721	7.49	1.49	-0.750			
0.4417	28267.04	3.5730	3.5728	-1.3929	7.50	1.50	-0.750			
0.4458	28533.25	3.5700	3.5699	-1.4049	7.51	1.51	-0.750			
0.4500	28800.76	3.5670	3.5672	-1.4098	7.52	1.52	-0.750			
0.4543	29076.15	3.5640	3.5639	-1.4342	7.53	1.53	-0.750			
0.4586	29352.89	3.5610	3.5609	-1.4452	7.54	1.54	-0.750			
0.4630	29629.19	3.5580	3.5580	-1.4468	7.54	1.54	-0.750			
0.4674	29914.70	3.5550	3.5550	-1.4593	7.55	1.55	-0.750			
0.4718	30198.32	3.5520	3.5521	-1.4767	7.56	1.56	-0.750			
0.4762	30478.14	3.5490	3.5489	-1.4833	7.57	1.57	-0.750			
0.4807	30765.56	3.5460	3.5459	-1.4941	7.57	1.57	-0.750			
0.4852	31055.02	3.5430	3.5431	-1.5114	7.58	1.58	-0.750			
0.4898	31345.53	3.5400	3.5401	-1.5400	7.59	1.59	-0.750			
0.4945	31645.59	3.5370	3.5368	-1.5597	7.60	1.60	-0.750			
0.4992	31946.15	3.5340	3.5342	-1.5643	7.61	1.61	-0.750			
0.5039	32252.04	3.5310	3.5307	-1.5615	7.62	1.62	-0.750			
0.5086	32547.98	3.5280	3.5279	-1.5527	7.63	1.63	-0.750			
0.5132	32842.55	3.5250	3.5249	-1.5497	7.64	1.64	-0.750			
0.5179	33143.11	3.5220	3.5221	-1.5648	7.65	1.65	-0.750			
0.5225	33441.16	3.5190	3.5189	-1.5591	7.66	1.66	-0.750			
0.5273	33744.09	3.5160	3.5161	-1.5566	7.67	1.67	-0.750			
0.5319	34044.36	3.5130	3.5128	-1.5702	7.67	1.67	-0.750			
0.5367	34351.37	3.5100	3.5100	-1.5822	7.68	1.68	-0.750			
0.5415	34655.80	3.5070	3.5067	-1.5697	7.69	1.69	-0.750			
0.5462	34954.97	3.5040	3.5042	-1.5650	7.71	1.71	-0.750			
0.5508	35253.89	3.5010	3.5012	-1.5695	7.72	1.72	-0.750			
0.5557	35564.42	3.4980	3.4978	-1.5770	7.73	1.73	-0.750			
0.5604	35863.12	3.4950	3.4950	-1.5582	7.74	1.74	-0.750			
0.5651	36163.27	3.4920	3.4922	-1.5722	7.75	1.75	-0.750			
0.5697	36463.50	3.4890	3.4889	-1.5821	7.76	1.76	-0.750			
0.5746	36777.12	3.4860	3.4858	-1.5585	7.77	1.77	-0.750			
0.5793	37073.41	3.4830	3.4832	-1.5322	7.78	1.78	-0.750			
0.5838	37362.77	3.4800	3.4804	-1.5150	7.79	1.79	-0.750			
0.5884	37656.27	3.4770	3.4770	-1.5090	7.80	1.80	-0.750			
0.5928	37939.69	3.4740	3.4739	-1.5031	7.81	1.81	-0.750			
0.5973	38227.48	3.4710	3.4709	-1.4839	7.83	1.83	-0.750			
0.6018	38513.13	3.4680	3.4680	-1.4843	7.84	1.84	-0.750			
0.6063	38801.46	3.4650	3.4653	-1.4746	7.85	1.85	-0.750			
0.6107	39083.66	3.4620	3.4620	-1.4572	7.86	1.86	-0.750			
0.6150	39360.47	3.4590	3.4589	-1.4351	7.87	1.87	-0.750			
0.6192	39630.37	3.4560	3.4560	-1.4165	7.89	1.89	-0.750			
0.6234	39899.70	3.4530	3.4531	-1.4208	7.90	1.90	-0.750			
0.6278	40180.84	3.4500	3.4499	-1.4211	7.92	1.92	-0.750			
0.6320	40450.55	3.4470	3.4469	-1.3965	7.93	1.93	-0.750			
0.6363	40721.84	3.4440	3.4442	-1.3901	7.94	1.94	-0.750			
0.6405	40989.96	3.4410	3.4411	-1.3684	7.96	1.96	-0.750			
0.6446	41251.28	3.4380	3.4378	-1.3357	7.97	1.97	-0.750			
0.6485	41502.10	3.4350	3.4353	-1.3020	7.98	1.98	-0.750			
0.6523	41749.05	3.4320	3.4319	-1.2755	8.00	2.00	-0.750			
0.6561	41990.18	3.4290	3.4290	-1.2428	8.01	2.01	-0.750			
0.6598	42227.49	3.4260	3.4260	-1.2062	8.03	2.03	-0.750			
0.6634	42456.53	3.4230	3.4230	-1.1934	8.04	2.04	-0.750			
0.6669	42682.70	3.4200	3.4199	-1.1640	8.05	2.05	-0.750			
0.6704	42903.69	3.4170	3.4169	-1.1350	8.06	2.06	-0.750			
0.6737	43118.31	3.4140	3.4142	-1.1049	8.07	2.07	-0.750			
0.6770	43330.06	3.4110	3.4110	-1.0761	8.09	2.09	-0.750			
0.6802	43534.66	3.4080	3.4079	-1.0438	8.10	2.10	-0.750			
0.6833	43729.87	3.4050	3.4050	-1.0111	8.12	2.12	-0.750			
0.6862	43917.68	3.4020	3.4022	-0.9892	8.13	2.13	-0.750			
0.6891	44105.42	3.3990	3.3988	-0.9729	8.14	2.14	-0.750			
0.6920	44290.95	3.3960	3.3959	-0.9510	8.16	2.16	-0.750			
0.6949	44474.06	3.3930	3.3930	-0.9198	8.17	2.17	-0.750			
0.6977	44651.34	3.3900	3.3902	-0.8955	8.18	2.18	-0.750			
0.7003	44820.86	3.3870	3.3870	-0.8618	8.19	2.19	-0.750			
0.7028	44980.23	3.3840	3.3840	-0.8291	8.21	2.21	-0.750			
0.7052	45133.41	3.3810	3.3809	-0.8015	8.22	2.22	-0.750			
0.7075	45282.63	3.3780	3.3780	-0.7779	8.23	2.23	-0.750			
0.7099	45430.74	3.3750	3.3750	-0.7647	8.25	2.25	-0.750			
0.7121	45577.27	3.3720	3.3719	-0.7456	8.26	2.26	-0.750			
0.7144	45719.81	3.3690	3.3691	-0.7253	8.27	2.27	-0.750			
0.7165	45858.31	3.3660	3.3659	-0.7059	8.28	2.28	-0.750			
0.7186	45992.06	3.3630	3.3631	-0.6800	8.29	2.29	-0.750			
0.7206	46119.60	3.3600	3.3599	-0.6556	8.31	2.31	-0.750			
0.7225	46243.16	3.3570	3.3571	-0.6330	8.32	2.32	-0.750			
0.7244	46360.15	3.3540	3.3540	-0.6129	8.33	2.33	-0.750			
0.7262	46475.64	3.3510	3.3510	-0.6030	8.34	2.34	-0.750			
0.7280	46591.12	3.3480	3.3480	-0.5886	8.35	2.35	-0.750			
0.7297	46701.97	3.3450	3.3449	-0.5725	8.36	2.36	-0.750			
0.7315	46813.66	3.3420	3.3420	-0.5600	8.37	2.37	-0.750			
0.7331	46919.60	3.3390	3.3391	-0.5412	8.38	2.38	-0.750			
0.7347	47021.36	3.3360	3.3359	-0.5257	8.39	2.39	-0.750			
0.7362	47119.20	3.3330	3.3330	-0.5079	8.39	2.39	-0.750			
0.7377	47213.22	3.3300	3.3300	-0.4917	8.41	2.41	-0.750			
0.7392	47307.43	3.3270	3.3270	-0.4836	8.42	2.42	-0.750			
0.7406	47399.46	3.3240	3.3240	-0.4730	8.43	2.43	-0.750			
0.7420	47489.47	3.3210	3.3210	-0.4620	8.44	2.44	-0.750			
0.7434	47577.22	3.3180	3.3180	-0.4518	8.45	2.45	-0.750			
0.7447	47663.13	3.3150	3.3150	-0.4396	8.46	2.46	-0.750			
0.7460	47746.63	3.3120	3.3119	-0.4275	8.47	2.47	-0.750			
0.7473	47827.65	3.3090	3.3089	-0.4155	8.47	2.47	-0.750			
0.7485	47905.64	3.3060	3.3062	-0.4043	8.48	2.48	-0.750			
0.7497	47981.53	3.3030	3.3029	-0.3951	8.49	2.49	-0.750			
0.7509	48056.20	3.3000	3.3000	-0.3854	8.50	2.50	-0.750			
0.7520	48129.14	3.2970	3.2969	-0.3768	8.51	2.51	-0.750			
0.7531	48201.04	3.2940	3.2940	-0.3700	8.52	2.52	-0.750			
0.7542	48271.88	3.2910	3.2911	-0.3638	8.53	2.53	-0.750			
0.7553	48341.00	3.2880	3.2880	-0.3560	8.54	2.54	-0.750			
0.7564	48407.99	3.2850	3.2850	-0.3481	8.55	2.55	-0.750			
0.7574	48474.66	3.2820	3.2820	-0.3405	8.55	2.55	-0.750			
0.7584	48539.54	3.2790	3.2790	-0.3332	8.56	2.56	-0.750			
0.7594	48602.53	3.2760	3.2760	-0.3253	8.57	2.57	-0.750			
0.7604	48664.28	3.2730	3.2731	-0.3177	8.58	2.58	-0.750			
0.7613	48724.29	3.2700	3.2699	-0.3108	8.59	2.59	-0.750			
0.7622	48783.17	3.2670	3.2670	-0.3044	8.60	2.60	-0.750			
0.7631	48840.76	3.2640	3.2640	-0.2991	8.60	2.60	-0.750			
0.7640	48897.66	3.2610	3.2611	-0.2929	8.61	2.61	-0.750			
0.7649	48953.90	3.2580	3.2580	-0.2882	8.62	2.62	-0.750			
0.7658	49008.72	3.2550	3.2549	-0.2822	8.63	2.63	-0.750			
0.7666	49062.22	3.2520	3.2522	-0.2764	8.64	2.64	-0.750			
0.7674	49114.42	3.2490	3.2490	-0.2713	8.64	2.64	-0.750			
0.7682	49166.17	3.2460	3.2460	-0.2675	8.65	2.65	-0.750			
0.7690	49216.89	3.2430	3.2429	-0.2615	8.66	2.66	-0.750			
0.7698	49266.20	3.2400	3.2400	-0.2584	8.67	2.67	-0.750			
0.7706	49315.71	3.2370	3.2371	-0.2558	8.67	2.67	-0.750			
0.7713	49364.49	3.2340	3.2339	-0.2517	8.68	2.68	-0.750			
0.7721	49412.98	3.2310	3.2310	-0.2474	8.69	2.69	-0.750			
0.7728	49460.08	3.2280	3.2280	-0.2425	8.69	2.69	-0.750			
0.7735	49506.19	3.2250	3.2250	-0.2391	8.70	2.70	-0.750			
0.7742	49551.69	3.2220	3.2220	-0.2359	8.70	2.70	-0.750			
0.7749	49596.05	3.2190	3.2189	-0.2301	8.71	2.71	-0.750			
0.7756	49639.92	3.2160	3.2159	-0.2270	8.72	2.72	-0.750			
0.7763	49683.00	3.2130	3.2131	-0.2245	8.73	2.73	-0.750			
0.7770	49726.12	3.2100	3.2101	-0.2212	8.74	2.74	-0.750			
0.7776	49768.42	3.2070	3.2068	-0.2190	8.74	2.74	-0.750			
0.7783	49810.14	3.2040	3.2040	-0.2155	8.75	2.75	-0.750			
0.7789	49850.97	3.2010	3.2010	-0.2110	8.76	2.76	-0.750			
0.7795	49891.05	3.1980	3.1980	-0.2083	8.77	2.77	-0.750			
0.7802	49930.89	3.1950	3.1950	-0.2057	8.77	2.77	-0.750			
0.7808	49970.06	3.1920	3.1920	-0.2024	8.78	2.78	-0.750			
0.7814	50008.20	3.1890	3.1889	-0.1998	8.79	2.79	-0.750			
0.7820	50046.28	3.1860	3.1860	-0.1981	8.80	2.80	-0.750			
0.7826	50084.02	3.1830	3.1830	-0.1953	8.80	2.80	-0.750			
0.7831	50121.36	3.1800	3.1800	-0.1936	8.81	2.81	-0.750			
0.7837	50158.77	3.1770	3.1769	-0.1915	8.81	2.81	-0.750			
0.7843	50195.34	3.1740	3.1741	-0.1882	8.82	2.82	-0.750			
0.7849	50231.17	3.1710	3.1710	-0.1862	8.82	2.82	-0.750			
0.7854	50266.65	3.1680	3.1680	-0.1833	8.83	2.83	-0.750			
0.7860	50301.45	3.1650	3.1650	-0.1805	8.83	2.83	-0.750			
0.7865	50335.59	3.1620	3.1619	-0.1780	8.84	2.84	-0.750			
0.7870	50369.87	3.1590	3.1590	-0.1754	8.85	2.85	-0.750			
0.7876	50403.41	3.1560	3.1561	-0.1729	8.86	2.86	-0.750			
0.7881	50436.21	3.1530	3.1530	-0.1705	8.86	2.86	-0.750			
0.7886	50468.75	3.1500	3.1501	-0.1685	8.87	2.87	-0.750			
0.7891	50500.31	3.1470	3.1470	-0.1663	8.87	2.87	-0.750			
0.7896	50532.12	3.1440	3.1439	-0.1651	8.88	2.88	-0.750			
0.7901	50563.55	3.1410	3.1410	-0.1642	8.89	2.89	-0.750			
0.7905	50595.01	3.1380	3.1379	-0.1623	8.89	2.89	-0.750			
0.7910	50626.49	3.1350	3.1351	-0.1615	8.90	2.90	-0.750			
0.7915	50657.30	3.1320	3.1319	-0.1594	8.91	2.91	-0.750			
0.7920	50687.72	3.1290	3.1291	-0.1576	8.91	2.91	-0.750			
0.7925	50717.80	3.1260	3.1259	-0.1562	8.92	2.92	-0.750			
0.7929	50747.37	3.1230	3.1230	-0.1540	8.92	2.92	-0.750			
0.7934	50777.01	3.1200	3.1199	-0.1519	8.93	2.93	-0.750			
0.7938	50806.02	3.1170	3.1170	-0.1501	8.94	2.94	-0.750			
0.7943	50834.73	3.1140	3.1140	-0.1492	8.94	2.94	-0.750			
0.7947	50863.09	3.1110	3.1111	-0.1476	8.95	2.95	-0.750			
0.7952	50891.22	3.1080	3.1079	-0.1464	8.95	2.95	-0.750			
0.7956	50919.02	3.1050	3.1049	-0.1450	8.96	2.96	-0.750			
0.7960	50946.64	3.1020	3.1021	-0.1439	8.96	2.96	-0.750			
0.7965	50974.35	3.0990	3.0989	-0.1431	8.97	2.97	-0.750			
0.7969	51002.03	3.0960	3.0960	-0.1427	8.98	2.98	-0.750			
0.7973	51029.33	3.0930	3.0930	-0.1408	8.98	2.98	-0.750			
0.7978	51056.06	3.0900	3.0900	-0.1390	8.99	2.99	-0.750			
0.7982	51082.74	3.0870	3.0870	-0.1376	8.99	2.99	-0.750			
0.7986	51108.84	3.0840	3.0841	-0.1362	9.00	3.00	-0.750			
0.7990	51134.81	3.0810	3.0810	-0.1351	9.00	3.00	-0.750			
0.7994	51160.45	3.0780	3.0780	-0.1338	9.01	3.01	-0.750			
0.7998	51186.07	3.0750	3.0750	-0.1330	9.02	3.02	-0.750			
0.8002	51211.49	3.0720	3.0721	-0.1321	9.02	3.02	-0.750			
0.8006	51236.82	3.0690	3.0690	-0.1316	9.03	3.03	-0.750			
0.8010	51261.99	3.0660	3.0660	-0.1308	9.03	3.03	-0.750			
0.8014	51287.10	3.0630	3.0630	-0.1297	9.04	3.04	-0.750			
0.8017	51311.90	3.0600	3.0600	-0.1288	9.05	3.05	-0.750			
0.8021	51336.68	3.0570	3.0571	-0.1276	9.05	3.05	-0.750			
0.8025	51361.14	3.0540	3.0540	-0.1264	9.06	3.06	-0.750			
0.8029	51385.15	3.0510	3.0510	-0.1253	9.06	3.06	-0.750			
0.8033	51409.12	3.0480	3.0480	-0.1241	9.07	3.07	-0.750			
0.8036	51432.66	3.0450	3.0450	-0.1227	9.08	3.08	-0.750			
0.8040	51456.15	3.0420	3.0420	-0.1219	9.08	3.08	-0.750			
0.8044	51479.37	3.0390	3.0391	-0.1213	9.09	3.09	-0.750			
0.8047	51502.52	3.0360	3.0360	-0.1210	9.09	3.09	-0.750			
0.8051	51525.66	3.0330	3.0329	-0.1205	9.10	3.10	-0.750			
0.8055	51549.10	3.0300	3.0300	-0.1195	9.10	3.10	-0.750			
0.8058	51572.07	3.0270	3.0270	-0.1188	9.11	3.11	-0.750			
0.8062	51594.65	3.0240	3.0240	-0.1180	9.12	3.12	-0.750			
0.8065	51617.37	3.0210	3.0211	-0.1174	9.12	3.12	-0.750			
0.8069	51639.72	3.0180	3.0181	-0.1164	9.13	3.13	-0.750			
0.8072	51661.87	3.0150	3.0149	-0.1153	9.13	3.13	-0.750			
0.8076	51683.93	3.0120	3.0118	-0.1145	9.14	3.14	-0.750			
0.8079	51705.45	3.0090	3.0091	-0.1139	9.14	3.14	-0.750			
0.8082	51727.33	3.0060	3.0061	-0.1140	9.15	3.15	-0.750			
0.8086	51749.29	3.0030	3.0030	-0.1108	9.15	3.15	-0.750			
