Ah_balance (normalized)	Ah_balance (mAh)	Voltage - fit (V)	Voltage -  interpolate (V)	dQ/dV (1/V)	Temperature (°C)	Temperature - diff (°C)	Current (C)	R_DC 0ms (mOhm)	R_DC 50ms (mOhm)	R_DC 50 ms PEC (mOhm)
0.0967	6189.36	4.1960	4.1982	0.6685	8.34	2.36	0.750			
0.0990	6335.69	4.1930	4.1949	0.7674	8.34	2.36	0.750			
0.1015	6496.59	4.1900	4.1911	0.7901	8.33	2.35	0.750			
0.1038	6645.26	4.1870	4.1878	0.7708	8.33	2.35	0.750			
0.1065	6812.85	4.1840	4.1842	0.7737	8.33	2.35	0.750			
0.1091	6985.24	4.1810	4.1805	0.7873	8.32	2.34	0.750			
0.1107	7086.37	4.1780	4.1780	0.6956	8.32	2.34	0.750			
0.1128	7216.98	4.1750	4.1750	0.6951	8.31	2.33	0.750			
0.1148	7350.02	4.1720	4.1719	0.7000	8.31	2.33	0.750			
0.1169	7483.54	4.1690	4.1691	0.7105	8.31	2.33	0.750			
0.1191	7624.33	4.1660	4.1660	0.7134	8.30	2.32	0.750			
0.1213	7762.93	4.1630	4.1630	0.7125	8.29	2.31	0.750			
0.1234	7899.73	4.1600	4.1601	0.7158	8.29	2.31	0.750			
0.1255	8034.63	4.1570	4.1569	0.7160	8.28	2.30	0.750			
0.1277	8172.02	4.1540	4.1539	0.7184	8.27	2.29	0.750			
0.1298	8309.06	4.1510	4.1510	0.7287	8.27	2.29	0.750			
0.1320	8449.39	4.1480	4.1480	0.7339	8.26	2.28	0.750			
0.1343	8594.65	4.1450	4.1450	0.7412	8.25	2.27	0.750			
0.1365	8738.30	4.1420	4.1419	0.7443	8.24	2.26	0.750			
0.1388	8881.42	4.1390	4.1391	0.7398	8.24	2.26	0.750			
0.1410	9023.85	4.1360	4.1360	0.7349	8.23	2.25	0.750			
0.1432	9163.62	4.1330	4.1329	0.7351	8.22	2.24	0.750			
0.1453	9301.75	4.1300	4.1301	0.7283	8.22	2.24	0.750			
0.1475	9442.31	4.1270	4.1270	0.7328	8.21	2.23	0.750			
0.1497	9582.57	4.1240	4.1239	0.7399	8.20	2.22	0.750			
0.1519	9723.91	4.1210	4.1211	0.7453	8.19	2.21	0.750			
0.1542	9869.07	4.1180	4.1181	0.7542	8.19	2.21	0.750			
0.1565	10015.46	4.1150	4.1149	0.7630	8.18	2.20	0.750			
0.1588	10162.96	4.1120	4.1120	0.7625	8.18	2.20	0.750			
0.1611	10309.43	4.1090	4.1090	0.7653	8.17	2.19	0.750			
0.1634	10457.87	4.1060	4.1060	0.7697	8.17	2.19	0.750			
0.1657	10605.63	4.1030	4.1027	0.7682	8.16	2.18	0.750			
0.1680	10752.56	4.1000	4.1000	0.7688	8.16	2.18	0.750			
0.1703	10901.13	4.0970	4.0971	0.7659	8.15	2.17	0.750			
0.1726	11047.31	4.0940	4.0940	0.7708	8.15	2.17	0.750			
0.1749	11195.91	4.0910	4.0910	0.7753	8.15	2.17	0.750			
0.1772	11343.09	4.0880	4.0880	0.7758	8.14	2.16	0.750			
0.1796	11492.26	4.0850	4.0851	0.7825	8.14	2.16	0.750			
0.1820	11646.64	4.0820	4.0820	0.7840	8.13	2.15	0.750			
0.1843	11796.08	4.0790	4.0789	0.7891	8.12	2.14	0.750			
0.1867	11947.55	4.0760	4.0761	0.7983	8.11	2.13	0.750			
0.1891	12100.13	4.0730	4.0731	0.8011	8.10	2.12	0.750			
0.1915	12254.88	4.0700	4.0699	0.8105	8.09	2.11	0.750			
0.1940	12412.95	4.0670	4.0670	0.8147	8.08	2.10	0.750			
0.1964	12569.64	4.0640	4.0642	0.8215	8.08	2.10	0.750			
0.1989	12728.44	4.0610	4.0609	0.8285	8.07	2.09	0.750			
0.2014	12888.31	4.0580	4.0581	0.8233	8.06	2.08	0.750			
0.2038	13045.52	4.0550	4.0549	0.8254	8.06	2.08	0.750			
0.2064	13206.81	4.0520	4.0521	0.8232	8.05	2.07	0.750			
0.2088	13364.44	4.0490	4.0490	0.8265	8.05	2.07	0.750			
0.2113	13523.62	4.0460	4.0459	0.8271	8.04	2.06	0.750			
0.2138	13682.61	4.0430	4.0431	0.8250	8.03	2.05	0.750			
0.2163	13840.37	4.0400	4.0398	0.8244	8.03	2.05	0.750			
0.2188	14000.04	4.0370	4.0370	0.8273	8.02	2.04	0.750			
0.2212	14157.58	4.0340	4.0341	0.8266	8.01	2.03	0.750			
0.2237	14317.23	4.0310	4.0309	0.8342	8.00	2.02	0.750			
0.2262	14474.57	4.0280	4.0281	0.8397	8.00	2.02	0.750			
0.2287	14636.87	4.0250	4.0250	0.8528	7.99	2.01	0.750			
0.2313	14802.63	4.0220	4.0221	0.8595	7.98	2.00	0.750			
0.2339	14970.38	4.0190	4.0188	0.8672	7.98	2.00	0.750			
0.2365	15138.77	4.0160	4.0161	0.8692	7.97	1.99	0.750			
0.2392	15306.19	4.0130	4.0129	0.8726	7.96	1.98	0.750			
0.2418	15473.29	4.0100	4.0101	0.8708	7.96	1.98	0.750			
0.2444	15639.76	4.0070	4.0071	0.8667	7.95	1.97	0.750			
0.2470	15806.98	4.0040	4.0040	0.8767	7.95	1.97	0.750			
0.2496	15975.20	4.0010	4.0009	0.8875	7.94	1.96	0.750			
0.2523	16145.70	3.9980	3.9979	0.8950	7.93	1.95	0.750			
0.2550	16319.36	3.9950	3.9951	0.8982	7.92	1.94	0.750			
0.2577	16493.08	3.9920	3.9920	0.9032	7.92	1.94	0.750			
0.2604	16667.81	3.9890	3.9891	0.9136	7.91	1.93	0.750			
0.2632	16843.20	3.9860	3.9859	0.9181	7.90	1.92	0.750			
0.2659	17019.84	3.9830	3.9831	0.9157	7.89	1.91	0.750			
0.2687	17198.56	3.9800	3.9800	0.9083	7.88	1.90	0.750			
0.2714	17372.42	3.9770	3.9770	0.9127	7.87	1.89	0.750			
0.2742	17546.93	3.9740	3.9741	0.9233	7.86	1.88	0.750			
0.2769	17719.93	3.9710	3.9710	0.9252	7.85	1.87	0.750			
0.2797	17900.50	3.9680	3.9680	0.9251	7.85	1.87	0.750			
0.2825	18079.66	3.9650	3.9651	0.9362	7.84	1.86	0.750			
0.2853	18260.86	3.9620	3.9621	0.9484	7.83	1.85	0.750			
0.2882	18447.13	3.9590	3.9591	0.9581	7.83	1.85	0.750			
0.2911	18628.03	3.9560	3.9558	0.9520	7.82	1.84	0.750			
0.2939	18812.02	3.9530	3.9529	0.9481	7.81	1.83	0.750			
0.2968	18994.16	3.9500	3.9502	0.9563	7.80	1.82	0.750			
0.2997	19180.12	3.9470	3.9471	0.9653	7.78	1.80	0.750			
0.3025	19362.79	3.9440	3.9439	0.9698	7.77	1.79	0.750			
0.3055	19549.23	3.9410	3.9410	0.9798	7.76	1.78	0.750			
0.3084	19736.13	3.9380	3.9381	0.9979	7.75	1.77	0.750			
0.3114	19930.24	3.9350	3.9350	1.0155	7.74	1.76	0.750			
0.3145	20130.76	3.9320	3.9319	1.0186	7.73	1.75	0.750			
0.3177	20329.79	3.9290	3.9291	1.0201	7.71	1.73	0.750			
0.3207	20524.67	3.9260	3.9262	1.0329	7.70	1.72	0.750			
0.3238	20721.63	3.9230	3.9230	1.0426	7.69	1.71	0.750			
0.3269	20921.09	3.9200	3.9199	1.0465	7.68	1.70	0.750			
0.3300	21122.29	3.9170	3.9171	1.0502	7.67	1.69	0.750			
0.3332	21325.64	3.9140	3.9141	1.0657	7.66	1.68	0.750			
0.3364	21531.61	3.9110	3.9109	1.0848	7.65	1.67	0.750			
0.3397	21742.10	3.9080	3.9080	1.0924	7.63	1.65	0.750			
0.3430	21949.45	3.9050	3.9049	1.0950	7.62	1.64	0.750			
0.3462	22158.86	3.9020	3.9022	1.1150	7.61	1.63	0.750			
0.3496	22376.67	3.8990	3.8991	1.1363	7.60	1.62	0.750			
0.3531	22597.61	3.8960	3.8956	1.1498	7.59	1.61	0.750			
0.3565	22817.89	3.8930	3.8931	1.1576	7.58	1.60	0.750			
0.3601	23043.74	3.8900	3.8901	1.1702	7.57	1.59	0.750			
0.3636	23273.57	3.8870	3.8870	1.1896	7.56	1.58	0.750			
0.3672	23500.15	3.8840	3.8840	1.1802	7.54	1.56	0.750			
0.3707	23724.16	3.8810	3.8811	1.1914	7.53	1.55	0.750			
0.3743	23953.86	3.8780	3.8780	1.2140	7.51	1.53	0.750			
0.3779	24187.44	3.8750	3.8748	1.2286	7.49	1.51	0.750			
0.3816	24422.69	3.8720	3.8720	1.2534	7.48	1.50	0.750			
0.3854	24663.98	3.8690	3.8692	1.2888	7.46	1.48	0.750			
0.3893	24916.82	3.8660	3.8657	1.3163	7.45	1.47	0.750	0.379	0.867	
0.3934	25175.56	3.8630	3.8630	1.3351	7.43	1.45	0.750			
0.3975	25437.78	3.8600	3.8601	1.3474	7.42	1.44	0.750			
0.4016	25703.92	3.8570	3.8570	1.3523	7.41	1.43	0.750			
0.4056	25957.11	3.8540	3.8541	1.3575	7.39	1.41	0.750			
0.4096	26213.16	3.8510	3.8511	1.3838	7.37	1.39	0.750			
0.4137	26478.29	3.8480	3.8478	1.4203	7.35	1.37	0.750			
0.4180	26754.44	3.8450	3.8450	1.4433	7.33	1.35	0.750			
0.4224	27035.68	3.8420	3.8422	1.4849	7.31	1.33	0.750			
0.4270	27327.44	3.8390	3.8389	1.5127	7.29	1.31	0.750			
0.4317	27626.19	3.8360	3.8361	1.5405	7.27	1.29	0.750			
0.4362	27918.05	3.8330	3.8330	1.5460	7.25	1.27	0.750			
0.4409	28219.05	3.8300	3.8301	1.5788	7.24	1.26	0.750			
0.4457	28526.92	3.8270	3.8269	1.6182	7.22	1.24	0.750			
0.4505	28833.56	3.8240	3.8238	1.6321	7.19	1.21	0.750			
0.4555	29150.52	3.8210	3.8211	1.6563	7.17	1.19	0.750			
0.4605	29470.84	3.8180	3.8180	1.7114	7.14	1.16	0.750			
0.4658	29808.10	3.8150	3.8149	1.7235	7.11	1.13	0.750			
0.4710	30144.59	3.8120	3.8120	1.7449	7.09	1.11	0.750			
0.4763	30480.77	3.8090	3.8088	1.7568	7.06	1.08	0.750			
0.4816	30820.80	3.8060	3.8062	1.7862	7.03	1.05	0.750			
0.4870	31165.72	3.8030	3.8030	1.8122	7.01	1.03	0.750			
0.4924	31515.76	3.8000	3.7998	1.8325	6.98	1.00	0.750			
0.4980	31870.23	3.7970	3.7972	1.8622	6.96	0.98	0.750			
0.5036	32229.75	3.7940	3.7943	1.9006	6.93	0.95	0.750			
0.5094	32603.96	3.7910	3.7909	1.9033	6.90	0.92	0.750			
0.5150	32958.85	3.7880	3.7880	1.9188	6.87	0.89	0.750			
0.5208	33331.11	3.7850	3.7852	1.9577	6.85	0.87	0.750			
0.5268	33712.09	3.7820	3.7818	2.0132	6.82	0.84	0.750			
0.5329	34104.01	3.7790	3.7790	2.0562	6.79	0.81	0.750			
0.5391	34502.63	3.7760	3.7760	2.0825	6.76	0.78	0.750			
0.5457	34922.47	3.7730	3.7732	2.1232	6.73	0.75	0.750			
0.5518	35317.12	3.7700	3.7699	2.0981	6.70	0.72	0.750			
0.5580	35710.09	3.7670	3.7671	2.1567	6.66	0.68	0.750			
0.5644	36124.15	3.7640	3.7639	2.2531	6.63	0.65	0.750			
0.5714	36567.45	3.7610	3.7611	2.3349	6.60	0.62	0.750			
0.5786	37032.70	3.7580	3.7580	2.4000	6.57	0.59	0.750			
0.5860	37502.68	3.7550	3.7550	2.4701	6.53	0.55	0.750			
0.5933	37969.87	3.7520	3.7519	2.5905	6.50	0.52	0.750			
0.6012	38473.80	3.7490	3.7490	2.7697	6.47	0.49	0.750			
0.6098	39028.28	3.7460	3.7460	2.8717	6.43	0.45	0.750			
0.6187	39594.15	3.7430	3.7432	3.0218	6.40	0.42	0.750			
0.6278	40179.81	3.7400	3.7399	3.1169	6.36	0.38	0.750			
0.6375	40800.49	3.7370	3.7371	3.1739	6.32	0.34	0.750			
0.6473	41429.73	3.7340	3.7340	3.0898	6.28	0.30	0.750			
0.6562	41998.30	3.7310	3.7309	2.8828	6.25	0.27	0.750			
0.6646	42533.31	3.7280	3.7279	2.5773	6.23	0.25	0.750			
0.6719	42998.56	3.7250	3.7251	2.2975	6.21	0.23	0.750			
0.6781	43399.45	3.7220	3.7219	2.0174	6.18	0.20	0.750			
0.6837	43759.23	3.7190	3.7189	1.7876	6.16	0.18	0.750			
0.6884	44058.90	3.7160	3.7159	1.5676	6.15	0.17	0.750			
0.6927	44334.79	3.7130	3.7131	1.4229	6.14	0.16	0.750			
0.6968	44593.67	3.7100	3.7101	1.3192	6.13	0.15	0.750			
0.7004	44822.88	3.7070	3.7070	1.2310	6.12	0.14	0.750			
0.7038	45046.23	3.7040	3.7038	1.1661	6.11	0.13	0.750			
0.7072	45262.50	3.7010	3.7010	1.1306	6.10	0.12	0.750			
0.7106	45476.21	3.6980	3.6980	1.1047	6.09	0.11	0.750			
0.7139	45687.32	3.6950	3.6950	1.0827	6.08	0.10	0.750			
0.7171	45893.29	3.6920	3.6920	1.0586	6.08	0.10	0.750			
0.7202	46093.40	3.6890	3.6890	1.0356	6.07	0.09	0.750			
0.7233	46291.31	3.6860	3.6859	1.0107	6.06	0.08	0.750			
0.7263	46483.31	3.6830	3.6830	0.9861	6.05	0.07	0.750			
0.7292	46669.39	3.6800	3.6800	0.9594	6.05	0.07	0.750			
0.7320	46850.55	3.6770	3.6771	0.9380	6.04	0.06	0.750			
0.7348	47026.78	3.6740	3.6740	0.9180	6.03	0.05	0.750			
0.7375	47198.15	3.6710	3.6710	0.9116	6.03	0.05	0.750			
0.7402	47370.31	3.6680	3.6679	0.9034	6.02	0.04	0.750			
0.7429	47546.74	3.6650	3.6650	0.8979	6.02	0.04	0.750			
0.7456	47717.58	3.6620	3.6620	0.8947	6.01	0.03	0.750			
0.7483	47888.11	3.6590	3.6592	0.8998	6.01	0.03	0.750			
0.7509	48060.52	3.6560	3.6560	0.9036	6.00	0.02	0.750			
0.7536	48230.75	3.6530	3.6528	0.9095	6.00	0.02	0.750			
0.7563	48405.88	3.6500	3.6500	0.9181	6.00	0.02	0.750			
0.7592	48587.13	3.6470	3.6470	0.9238	5.99	0.01	0.750			
0.7620	48770.74	3.6440	3.6439	0.9066	5.99	0.01	0.750			
0.7648	48946.74	3.6410	3.6411	0.8715	5.98	0.00	0.750			
0.7674	49115.99	3.6380	3.6380	0.8056	5.98	-0.00	0.750			
0.7699	49271.21	3.6350	3.6351	0.7312	5.97	-0.01	0.750			
0.7720	49405.62	3.6320	3.6321	0.6301	5.97	-0.01	0.750			
0.7737	49518.73	3.6290	3.6290	0.5289	5.97	-0.01	0.750			
0.7749	49595.15	3.6260	3.6265	0.4461	5.97	-0.01	0.750			
0.7761	49671.95	3.6230	3.6231	0.3653	5.96	-0.02	0.750			
0.7770	49728.47	3.6200	3.6198	0.2771	5.96	-0.02	0.750			
0.7777	49772.51	3.6170	3.6158	0.2137	5.96	-0.02	0.750			
0.7781	49798.79	3.6140	3.6105	0.1485	5.96	-0.02	0.750			
0.7783	49811.19	3.5960	3.5600	-0.1065	5.96	-0.02	0.750			
0.7784	49819.04	3.6110	3.4678	0.0997	5.96	-0.02	0.750			
0.7786	49827.74	3.5990	3.3657	-0.0659	5.96	-0.02	0.750			
0.7786	49830.60	3.6080	3.3321	0.0559	5.96	-0.02	0.750			
0.7787	49836.49	3.6020	3.2630	-0.0253	5.96	-0.02	0.750			
0.7787	49837.44	3.6050	3.2518	0.0153	5.96	-0.02	0.750			
