Ah_balance (normalized)	Ah_balance (mAh)	Voltage - fit (V)	Voltage -  interpolate (V)	dQ/dV (1/V)	Temperature (°C)	Temperature - diff (°C)	Current (C)	R_DC 0ms (mOhm)	R_DC 50ms (mOhm)	R_DC 50 ms PEC (mOhm)
0.0000	0.00	4.0950	4.1337	0.0000	5.97	-0.02	-0.749			
0.0000	0.00	4.0980	4.1337	0.0000	5.97	-0.02	-0.749			
0.0001	4.88	4.0920	4.0984	-0.0319	5.97	-0.02	-0.750			
0.0002	13.55	4.0890	4.0897	-0.0584	5.97	-0.02	-0.750			
0.0005	28.98	4.0860	4.0857	-0.0824	5.97	-0.02	-0.750			
0.0007	47.85	4.0830	4.0826	-0.1055	5.97	-0.02	-0.750			
0.0011	70.41	4.0800	4.0799	-0.1294	5.97	-0.02	-0.750			
0.0015	97.56	4.0770	4.0772	-0.1529	5.97	-0.02	-0.750			
0.0020	129.21	4.0740	4.0741	-0.1773	5.97	-0.02	-0.750			
0.0026	165.89	4.0710	4.0709	-0.2010	5.98	-0.01	-0.750			
0.0032	206.77	4.0680	4.0679	-0.2232	5.98	-0.01	-0.750			
0.0039	251.69	4.0650	4.0651	-0.2451	5.98	-0.01	-0.750			
0.0047	301.29	4.0620	4.0619	-0.2676	5.98	-0.01	-0.750			
0.0055	354.44	4.0590	4.0590	-0.2909	5.98	-0.01	-0.750			
0.0065	413.13	4.0560	4.0560	-0.3108	5.98	-0.01	-0.750			
0.0074	474.30	4.0530	4.0530	-0.3320	5.98	-0.01	-0.750			
0.0084	540.37	4.0500	4.0500	-0.3532	5.98	-0.01	-0.750			
0.0095	610.54	4.0470	4.0471	-0.3723	5.99	-0.00	-0.750			
0.0107	683.95	4.0440	4.0439	-0.3922	5.99	-0.00	-0.750			
0.0119	760.51	4.0410	4.0412	-0.4125	5.99	0.00	-0.750			
0.0131	840.96	4.0380	4.0380	-0.4316	5.99	0.00	-0.750			
0.0145	927.62	4.0350	4.0350	-0.4499	5.99	0.00	-0.750			
0.0159	1016.48	4.0320	4.0320	-0.4644	6.00	0.01	-0.750			
0.0173	1106.09	4.0290	4.0291	-0.4858	6.00	0.01	-0.750			
0.0188	1200.59	4.0260	4.0261	-0.5071	6.00	0.01	-0.750			
0.0203	1299.33	4.0230	4.0229	-0.5227	6.00	0.01	-0.750			
0.0219	1401.43	4.0200	4.0199	-0.5425	6.01	0.02	-0.750			
0.0236	1508.48	4.0170	4.0170	-0.5604	6.01	0.02	-0.750			
0.0253	1618.81	4.0140	4.0140	-0.5782	6.01	0.02	-0.750			
0.0271	1732.42	4.0110	4.0110	-0.5910	6.02	0.03	-0.750			
0.0288	1845.96	4.0080	4.0079	-0.5962	6.02	0.03	-0.750			
0.0307	1961.61	4.0050	4.0051	-0.6048	6.03	0.04	-0.750			
0.0325	2079.83	4.0020	4.0020	-0.6137	6.03	0.04	-0.750			
0.0343	2197.69	3.9990	3.9990	-0.6204	6.03	0.04	-0.750			
0.0362	2317.45	3.9960	3.9959	-0.6286	6.04	0.05	-0.750			
0.0381	2438.55	3.9930	3.9930	-0.6327	6.04	0.05	-0.750			
0.0400	2560.83	3.9900	3.9900	-0.6424	6.05	0.06	-0.750			
0.0420	2685.21	3.9870	3.9870	-0.6529	6.06	0.07	-0.750			
0.0439	2811.08	3.9840	3.9840	-0.6659	6.06	0.07	-0.750			
0.0459	2939.78	3.9810	3.9810	-0.6763	6.07	0.08	-0.750			
0.0480	3072.64	3.9780	3.9779	-0.6794	6.08	0.09	-0.750			
0.0501	3204.72	3.9750	3.9751	-0.6822	6.08	0.09	-0.750			
0.0522	3337.85	3.9720	3.9721	-0.6850	6.09	0.10	-0.750			
0.0542	3467.78	3.9690	3.9690	-0.6822	6.10	0.11	-0.750			
0.0562	3595.61	3.9660	3.9660	-0.6812	6.11	0.12	-0.750			
0.0582	3727.85	3.9630	3.9630	-0.6909	6.12	0.13	-0.750			
0.0603	3860.26	3.9600	3.9599	-0.6967	6.12	0.13	-0.750			
0.0625	3996.89	3.9570	3.9571	-0.7015	6.13	0.14	-0.750			
0.0646	4132.58	3.9540	3.9542	-0.7078	6.14	0.15	-0.750			
0.0667	4268.58	3.9510	3.9510	-0.7137	6.15	0.16	-0.750			
0.0688	4406.12	3.9480	3.9479	-0.7144	6.15	0.16	-0.750			
0.0710	4542.89	3.9450	3.9449	-0.7176	6.16	0.17	-0.750			
0.0732	4682.24	3.9420	3.9421	-0.7176	6.17	0.18	-0.750			
0.0753	4821.92	3.9390	3.9390	-0.7199	6.17	0.18	-0.750			
0.0775	4959.54	3.9360	3.9359	-0.7226	6.19	0.20	-0.750			
0.0796	5096.19	3.9330	3.9331	-0.7236	6.20	0.21	-0.750			
0.0818	5235.91	3.9300	3.9299	-0.7285	6.21	0.22	-0.750			
0.0840	5375.46	3.9270	3.9270	-0.7346	6.22	0.23	-0.750			
0.0862	5518.35	3.9240	3.9240	-0.7372	6.23	0.24	-0.750			
0.0885	5661.41	3.9210	3.9210	-0.7410	6.24	0.25	-0.750			
0.0907	5806.17	3.9180	3.9180	-0.7356	6.25	0.26	-0.750			
0.0929	5945.77	3.9150	3.9151	-0.7323	6.25	0.26	-0.750			
0.0951	6085.46	3.9120	3.9120	-0.7291	6.26	0.27	-0.750			
0.0973	6225.25	3.9090	3.9091	-0.7293	6.27	0.28	-0.750			
0.0994	6363.03	3.9060	3.9061	-0.7332	6.28	0.29	-0.750			
0.1016	6504.47	3.9030	3.9031	-0.7400	6.29	0.30	-0.750			
0.1038	6645.99	3.9000	3.8999	-0.7481	6.30	0.31	-0.750			
0.1061	6793.05	3.8970	3.8970	-0.7554	6.31	0.32	-0.750			
0.1084	6938.89	3.8940	3.8940	-0.7540	6.32	0.33	-0.750			
0.1107	7084.19	3.8910	3.8909	-0.7521	6.33	0.34	-0.750			
0.1130	7229.19	3.8880	3.8880	-0.7490	6.34	0.35	-0.750			
0.1152	7370.73	3.8850	3.8850	-0.7490	6.35	0.36	-0.750			
0.1174	7513.15	3.8820	3.8819	-0.7523	6.36	0.37	-0.750			
0.1196	7656.85	3.8790	3.8790	-0.7541	6.37	0.38	-0.750			
0.1219	7804.33	3.8760	3.8760	-0.7630	6.38	0.39	-0.750			
0.1243	7952.74	3.8730	3.8731	-0.7658	6.39	0.40	-0.750			
0.1266	8099.85	3.8700	3.8700	-0.7691	6.40	0.41	-0.750			
0.1289	8247.85	3.8670	3.8670	-0.7706	6.41	0.42	-0.750			
0.1312	8396.10	3.8640	3.8639	-0.7669	6.42	0.43	-0.750			
0.1335	8542.98	3.8610	3.8611	-0.7642	6.43	0.44	-0.750			
0.1358	8691.21	3.8580	3.8580	-0.7613	6.44	0.45	-0.750			
0.1381	8836.95	3.8550	3.8551	-0.7530	6.46	0.47	-0.750			
0.1403	8979.02	3.8520	3.8520	-0.7581	6.47	0.48	-0.750			
0.1425	9122.47	3.8490	3.8490	-0.7598	6.48	0.49	-0.750			
0.1448	9268.61	3.8460	3.8459	-0.7598	6.49	0.50	-0.750			
0.1471	9415.90	3.8430	3.8430	-0.7628	6.50	0.51	-0.750			
0.1494	9563.74	3.8400	3.8403	-0.7675	6.51	0.52	-0.750			
0.1518	9712.36	3.8370	3.8370	-0.7679	6.52	0.53	-0.750			
0.1541	9859.69	3.8340	3.8339	-0.7702	6.53	0.54	-0.750			
0.1563	10005.70	3.8310	3.8310	-0.7671	6.53	0.54	-0.750			
0.1586	10153.04	3.8280	3.8280	-0.7691	6.54	0.55	-0.750			
0.1610	10302.13	3.8250	3.8249	-0.7697	6.55	0.56	-0.750			
0.1633	10450.24	3.8220	3.8220	-0.7690	6.56	0.57	-0.750			
0.1655	10594.86	3.8190	3.8191	-0.7766	6.57	0.58	-0.750			
0.1679	10744.51	3.8160	3.8159	-0.7825	6.58	0.59	-0.750			
0.1702	10894.87	3.8130	3.8129	-0.7887	6.59	0.60	-0.750			
0.1727	11050.26	3.8100	3.8099	-0.7858	6.60	0.61	-0.750			
0.1750	11203.15	3.8070	3.8071	-0.7901	6.61	0.62	-0.750			
0.1774	11355.27	3.8040	3.8040	-0.7882	6.62	0.63	-0.750			
0.1798	11506.78	3.8010	3.8010	-0.7810	6.64	0.65	-0.750			
0.1821	11652.13	3.7980	3.7978	-0.7722	6.65	0.66	-0.750			
0.1844	11801.58	3.7950	3.7951	-0.7767	6.66	0.67	-0.750			
0.1867	11951.01	3.7920	3.7920	-0.7746	6.67	0.68	-0.750			
0.1891	12101.34	3.7890	3.7889	-0.7752	6.68	0.69	-0.750			
0.1914	12248.39	3.7860	3.7862	-0.7728	6.69	0.70	-0.750			
0.1937	12397.20	3.7830	3.7829	-0.7776	6.70	0.71	-0.750			
0.1960	12546.91	3.7800	3.7800	-0.7834	6.71	0.72	-0.750			
0.1984	12695.77	3.7770	3.7769	-0.7856	6.72	0.73	-0.750			
0.2007	12847.94	3.7740	3.7741	-0.7898	6.73	0.74	-0.750			
0.2032	13002.04	3.7710	3.7710	-0.7980	6.74	0.75	-0.750			
0.2056	13156.83	3.7680	3.7680	-0.7918	6.74	0.75	-0.750			
0.2080	13308.81	3.7650	3.7650	-0.7876	6.75	0.76	-0.750			
0.2103	13458.93	3.7620	3.7621	-0.7862	6.76	0.77	-0.750			
0.2126	13608.62	3.7590	3.7591	-0.7849	6.77	0.78	-0.750			
0.2150	13757.27	3.7560	3.7559	-0.7951	6.78	0.79	-0.750			
0.2173	13909.22	3.7530	3.7529	-0.8022	6.79	0.80	-0.750			
0.2198	14064.44	3.7500	3.7501	-0.8082	6.80	0.81	-0.750			
0.2222	14223.38	3.7470	3.7470	-0.8180	6.81	0.82	-0.750			
0.2247	14382.96	3.7440	3.7441	-0.8191	6.82	0.83	-0.750			
0.2272	14540.45	3.7410	3.7410	-0.8175	6.83	0.84	-0.750			
0.2296	14696.13	3.7380	3.7380	-0.8182	6.84	0.85	-0.750			
0.2320	14851.12	3.7350	3.7349	-0.8205	6.84	0.85	-0.750			
0.2345	15009.20	3.7320	3.7319	-0.8265	6.85	0.86	-0.750			
0.2370	15168.97	3.7290	3.7293	-0.8243	6.86	0.87	-0.750			
0.2395	15328.74	3.7260	3.7259	-0.8271	6.87	0.88	-0.750			
0.2420	15487.46	3.7230	3.7231	-0.8340	6.88	0.89	-0.750			
0.2445	15645.31	3.7200	3.7198	-0.8350	6.89	0.90	-0.750			
0.2470	15808.56	3.7170	3.7169	-0.8409	6.90	0.91	-0.750			
0.2495	15968.35	3.7140	3.7143	-0.8445	6.91	0.92	-0.750			
0.2521	16132.47	3.7110	3.7109	-0.8498	6.92	0.93	-0.750			
0.2546	16297.39	3.7080	3.7080	-0.8578	6.93	0.94	-0.750			
0.2572	16460.02	3.7050	3.7050	-0.8602	6.94	0.95	-0.750			
0.2598	16627.32	3.7020	3.7020	-0.8652	6.94	0.95	-0.750			
0.2624	16793.91	3.6990	3.6991	-0.8637	6.95	0.96	-0.750			
0.2650	16959.43	3.6960	3.6961	-0.8717	6.96	0.97	-0.750			
0.2676	17125.66	3.6930	3.6930	-0.8695	6.97	0.98	-0.750			
0.2702	17293.10	3.6900	3.6899	-0.8737	6.98	0.99	-0.750			
0.2728	17460.90	3.6870	3.6870	-0.8803	6.99	1.00	-0.750			
0.2755	17630.16	3.6840	3.6841	-0.8841	6.99	1.00	-0.750			
0.2781	17801.25	3.6810	3.6809	-0.8968	7.00	1.01	-0.750			
0.2808	17972.39	3.6780	3.6781	-0.9108	7.01	1.02	-0.750			
0.2835	18146.52	3.6750	3.6749	-0.9149	7.02	1.03	-0.750			
0.2863	18326.24	3.6720	3.6719	-0.9276	7.03	1.04	-0.750			
0.2892	18505.69	3.6690	3.6690	-0.9355	7.04	1.05	-0.750			
0.2920	18687.41	3.6660	3.6661	-0.9365	7.04	1.05	-0.750			
0.2948	18869.07	3.6630	3.6630	-0.9429	7.05	1.06	-0.750			
0.2976	19047.41	3.6600	3.6600	-0.9493	7.06	1.07	-0.750			
0.3004	19227.58	3.6570	3.6570	-0.9519	7.06	1.07	-0.750			
0.3033	19413.63	3.6540	3.6539	-0.9639	7.07	1.08	-0.750			
0.3063	19600.80	3.6510	3.6510	-0.9712	7.08	1.09	-0.750			
0.3092	19788.01	3.6480	3.6481	-0.9753	7.09	1.10	-0.750			
0.3121	19975.55	3.6450	3.6450	-0.9891	7.10	1.11	-0.750			
0.3151	20164.18	3.6420	3.6420	-0.9925	7.11	1.12	-0.750			
0.3180	20354.68	3.6390	3.6389	-0.9991	7.11	1.12	-0.750			
0.3211	20548.54	3.6360	3.6360	-1.0096	7.12	1.13	-0.750			
0.3241	20744.42	3.6330	3.6331	-1.0180	7.13	1.14	-0.750			
0.3272	20941.21	3.6300	3.6299	-1.0237	7.13	1.14	-0.750			
0.3303	21139.56	3.6270	3.6271	-1.0248	7.14	1.15	-0.750			
0.3334	21335.80	3.6240	3.6240	-1.0225	7.14	1.15	-0.750			
0.3364	21532.79	3.6210	3.6209	-1.0283	7.15	1.16	-0.750			
0.3395	21729.83	3.6180	3.6180	-1.0395	7.16	1.17	-0.750			
0.3426	21926.41	3.6150	3.6150	-1.0476	7.16	1.17	-0.750			
0.3458	22129.95	3.6120	3.6119	-1.0542	7.17	1.18	-0.750			
0.3490	22333.30	3.6090	3.6090	-1.0628	7.18	1.19	-0.750			
0.3522	22541.17	3.6060	3.6060	-1.0774	7.18	1.19	-0.750			
0.3554	22747.54	3.6030	3.6030	-1.0895	7.19	1.20	-0.750			
0.3587	22957.20	3.6000	3.5999	-1.0952	7.19	1.20	-0.750			
0.3620	23169.69	3.5970	3.5971	-1.1052	7.20	1.21	-0.750			
0.3654	23383.12	3.5940	3.5940	-1.1076	7.21	1.22	-0.750			
0.3687	23598.64	3.5910	3.5911	-1.1095	7.21	1.22	-0.750			
0.3720	23809.53	3.5880	3.5880	-1.1151	7.22	1.23	-0.750			
0.3754	24022.80	3.5850	3.5850	-1.1283	7.22	1.23	-0.750	0.420	0.838	
0.3787	24239.25	3.5820	3.5819	-1.1314	7.23	1.24	-0.750			
0.3822	24458.17	3.5790	3.5789	-1.1414	7.24	1.25	-0.750			
0.3856	24678.87	3.5760	3.5761	-1.1481	7.25	1.26	-0.750			
0.3891	24901.90	3.5730	3.5730	-1.1626	7.25	1.26	-0.750			
0.3926	25123.45	3.5700	3.5699	-1.1838	7.25	1.26	-0.750			
0.3961	25350.44	3.5670	3.5670	-1.1961	7.26	1.27	-0.750			
0.3997	25582.34	3.5640	3.5641	-1.1996	7.26	1.27	-0.750			
0.4035	25821.27	3.5610	3.5610	-1.2173	7.27	1.28	-0.750			
0.4071	26057.22	3.5580	3.5581	-1.2072	7.27	1.28	-0.750			
0.4108	26288.12	3.5550	3.5550	-1.2026	7.28	1.29	-0.750			
0.4143	26518.09	3.5520	3.5519	-1.2012	7.29	1.30	-0.750			
0.4178	26741.57	3.5490	3.5489	-1.2020	7.29	1.30	-0.750			
0.4214	26971.46	3.5460	3.5459	-1.2153	7.30	1.31	-0.750			
0.4251	27205.55	3.5430	3.5431	-1.2437	7.31	1.32	-0.750			
0.4289	27447.37	3.5400	3.5399	-1.2682	7.32	1.33	-0.750			
0.4328	27697.69	3.5370	3.5369	-1.2783	7.32	1.33	-0.750			
0.4366	27944.07	3.5340	3.5341	-1.2822	7.33	1.34	-0.750			
0.4406	28197.35	3.5310	3.5310	-1.2942	7.34	1.35	-0.750			
0.4444	28443.08	3.5280	3.5281	-1.2911	7.34	1.35	-0.750			
0.4482	28686.61	3.5250	3.5248	-1.2968	7.35	1.36	-0.750			
0.4521	28935.35	3.5220	3.5220	-1.2876	7.36	1.37	-0.750			
0.4560	29184.15	3.5190	3.5190	-1.2900	7.37	1.38	-0.750			
0.4599	29432.99	3.5160	3.5160	-1.2906	7.38	1.39	-0.750			
0.4638	29683.00	3.5130	3.5128	-1.2831	7.38	1.39	-0.750			
0.4676	29928.27	3.5100	3.5100	-1.2759	7.39	1.40	-0.750			
0.4714	30170.93	3.5070	3.5070	-1.2634	7.40	1.41	-0.750			
0.4752	30411.59	3.5040	3.5041	-1.2579	7.41	1.42	-0.750			
0.4790	30656.31	3.5010	3.5008	-1.2638	7.42	1.43	-0.750			
0.4828	30896.52	3.4980	3.4980	-1.2552	7.42	1.43	-0.750			
0.4865	31136.12	3.4950	3.4952	-1.2595	7.43	1.44	-0.750			
0.4903	31378.96	3.4920	3.4919	-1.2651	7.44	1.45	-0.750			
0.4941	31621.94	3.4890	3.4889	-1.2687	7.45	1.46	-0.750			
0.4979	31864.98	3.4860	3.4859	-1.2711	7.46	1.47	-0.750			
0.5017	32111.02	3.4830	3.4829	-1.2585	7.47	1.48	-0.750			
0.5056	32357.48	3.4800	3.4800	-1.2503	7.47	1.48	-0.750			
0.5093	32593.87	3.4770	3.4770	-1.2516	7.48	1.49	-0.750			
0.5130	32830.15	3.4740	3.4741	-1.2380	7.49	1.50	-0.750			
0.5167	33067.67	3.4710	3.4709	-1.2302	7.51	1.52	-0.750			
0.5204	33303.91	3.4680	3.4679	-1.2212	7.52	1.53	-0.750			
0.5241	33539.55	3.4650	3.4651	-1.2194	7.53	1.54	-0.750			
0.5278	33776.07	3.4620	3.4620	-1.2100	7.54	1.55	-0.750			
0.5313	34005.78	3.4590	3.4590	-1.1994	7.55	1.56	-0.750			
0.5349	34230.97	3.4560	3.4559	-1.1894	7.56	1.57	-0.750			
0.5384	34459.57	3.4530	3.4529	-1.1944	7.57	1.58	-0.750			
0.5421	34693.26	3.4500	3.4499	-1.1808	7.58	1.59	-0.750			
0.5457	34922.90	3.4470	3.4470	-1.1737	7.60	1.61	-0.750			
0.5491	35144.04	3.4440	3.4443	-1.1605	7.61	1.62	-0.750			
0.5526	35367.86	3.4410	3.4409	-1.1505	7.62	1.63	-0.750			
0.5560	35581.96	3.4380	3.4378	-1.1277	7.63	1.64	-0.750			
0.5593	35796.00	3.4350	3.4349	-1.1216	7.63	1.64	-0.750			
0.5627	36012.49	3.4320	3.4322	-1.1264	7.64	1.65	-0.750			
0.5661	36231.13	3.4290	3.4288	-1.1110	7.66	1.67	-0.750			
0.5694	36444.30	3.4260	3.4260	-1.0924	7.67	1.68	-0.750			
0.5726	36649.59	3.4230	3.4230	-1.0689	7.68	1.69	-0.750			
0.5759	36854.64	3.4200	3.4200	-1.0635	7.70	1.71	-0.750			
0.5790	37056.63	3.4170	3.4169	-1.0437	7.71	1.72	-0.750			
0.5821	37254.19	3.4140	3.4139	-1.0295	7.72	1.73	-0.750			
0.5852	37450.56	3.4110	3.4111	-1.0220	7.73	1.74	-0.750			
0.5883	37648.60	3.4080	3.4080	-1.0152	7.75	1.76	-0.750			
0.5913	37842.38	3.4050	3.4049	-1.0119	7.76	1.77	-0.750			
0.5943	38035.71	3.4020	3.4020	-1.0048	7.77	1.78	-0.750			
0.5973	38229.37	3.3990	3.3989	-0.9838	7.78	1.79	-0.750			
0.6003	38419.60	3.3960	3.3961	-0.9661	7.79	1.80	-0.750			
0.6032	38604.71	3.3930	3.3930	-0.9444	7.81	1.82	-0.750			
0.6060	38782.77	3.3900	3.3901	-0.9174	7.82	1.83	-0.750			
0.6087	38954.92	3.3870	3.3869	-0.8829	7.83	1.84	-0.750			
0.6113	39120.78	3.3840	3.3840	-0.8620	7.85	1.86	-0.750			
0.6138	39281.44	3.3810	3.3811	-0.8498	7.86	1.87	-0.750			
0.6163	39444.80	3.3780	3.3779	-0.8467	7.87	1.88	-0.750			
0.6189	39606.45	3.3750	3.3749	-0.8351	7.88	1.89	-0.750			
0.6214	39766.93	3.3720	3.3720	-0.8207	7.90	1.91	-0.750			
0.6238	39925.50	3.3690	3.3691	-0.8117	7.91	1.92	-0.750			
0.6263	40082.18	3.3660	3.3660	-0.7963	7.92	1.93	-0.750			
0.6286	40231.24	3.3630	3.3629	-0.7745	7.93	1.94	-0.750			
0.6309	40376.72	3.3600	3.3600	-0.7555	7.94	1.95	-0.750			
0.6331	40521.31	3.3570	3.3571	-0.7336	7.95	1.96	-0.750			
0.6353	40660.48	3.3540	3.3539	-0.7232	7.96	1.97	-0.750			
0.6374	40796.54	3.3510	3.3512	-0.7099	7.97	1.98	-0.750			
0.6395	40929.92	3.3480	3.3481	-0.6951	7.99	2.00	-0.750			
0.6416	41063.19	3.3450	3.3449	-0.6839	8.00	2.01	-0.750			
0.6436	41193.51	3.3420	3.3420	-0.6714	8.01	2.02	-0.750			
0.6457	41322.52	3.3390	3.3391	-0.6581	8.03	2.04	-0.750			
0.6477	41450.08	3.3360	3.3361	-0.6484	8.04	2.05	-0.750			
0.6495	41570.83	3.3330	3.3329	-0.6230	8.05	2.06	-0.750			
0.6514	41687.29	3.3300	3.3300	-0.6070	8.06	2.07	-0.750			
0.6532	41801.92	3.3270	3.3271	-0.5973	8.08	2.09	-0.750			
0.6549	41914.86	3.3240	3.3239	-0.5860	8.09	2.10	-0.750			
0.6567	42025.77	3.3210	3.3209	-0.5791	8.10	2.11	-0.750			
0.6584	42137.40	3.3180	3.3180	-0.5727	8.12	2.13	-0.750			
0.6601	42247.05	3.3150	3.3150	-0.5649	8.13	2.14	-0.750			
0.6618	42355.98	3.3120	3.3121	-0.5557	8.14	2.15	-0.750			
0.6634	42460.66	3.3090	3.3090	-0.5416	8.15	2.16	-0.750			
0.6650	42563.09	3.3060	3.3060	-0.5332	8.16	2.17	-0.750			
0.6666	42664.38	3.3030	3.3029	-0.5212	8.17	2.18	-0.750			
0.6682	42763.16	3.3000	3.3000	-0.5103	8.18	2.19	-0.750			
0.6697	42860.32	3.2970	3.2971	-0.5013	8.19	2.20	-0.750			
0.6712	42956.07	3.2940	3.2940	-0.4931	8.20	2.21	-0.750			
0.6727	43049.75	3.2910	3.2909	-0.4836	8.21	2.22	-0.750			
0.6741	43141.28	3.2880	3.2879	-0.4720	8.22	2.23	-0.750			
0.6755	43229.89	3.2850	3.2850	-0.4632	8.23	2.24	-0.750			
0.6769	43318.95	3.2820	3.2820	-0.4563	8.24	2.25	-0.750			
0.6782	43405.68	3.2790	3.2790	-0.4477	8.26	2.27	-0.750			
0.6795	43490.73	3.2760	3.2760	-0.4385	8.27	2.28	-0.750			
0.6808	43573.83	3.2730	3.2731	-0.4316	8.28	2.29	-0.750			
0.6821	43655.68	3.2700	3.2700	-0.4261	8.29	2.30	-0.750			
0.6834	43737.77	3.2670	3.2669	-0.4168	8.30	2.31	-0.750			
0.6846	43815.87	3.2640	3.2640	-0.4108	8.32	2.33	-0.750			
0.6858	43893.80	3.2610	3.2610	-0.4069	8.33	2.34	-0.750			
0.6871	43971.74	3.2580	3.2580	-0.3999	8.33	2.34	-0.750			
0.6883	44048.41	3.2550	3.2549	-0.3937	8.34	2.35	-0.750			
0.6894	44123.37	3.2520	3.2521	-0.3857	8.35	2.36	-0.750			
0.6906	44196.78	3.2490	3.2490	-0.3804	8.37	2.38	-0.750			
0.6917	44269.66	3.2460	3.2459	-0.3773	8.38	2.39	-0.750			
0.6928	44340.58	3.2430	3.2430	-0.3667	8.39	2.40	-0.750			
0.6939	44409.24	3.2400	3.2400	-0.3626	8.40	2.41	-0.750			
0.6950	44478.99	3.2370	3.2371	-0.3599	8.41	2.42	-0.750			
0.6961	44548.05	3.2340	3.2340	-0.3544	8.42	2.43	-0.750			
0.6971	44615.55	3.2310	3.2310	-0.3497	8.43	2.44	-0.750			
0.6982	44681.96	3.2280	3.2282	-0.3441	8.44	2.45	-0.750			
0.6992	44747.80	3.2250	3.2251	-0.3404	8.45	2.46	-0.750			
0.7002	44813.43	3.2220	3.2219	-0.3371	8.46	2.47	-0.750			
0.7012	44877.08	3.2190	3.2190	-0.3292	8.47	2.48	-0.750			
0.7022	44939.50	3.2160	3.2160	-0.3241	8.48	2.49	-0.750			
0.7032	45001.74	3.2130	3.2131	-0.3195	8.49	2.50	-0.750			
0.7041	45062.09	3.2100	3.2100	-0.3153	8.50	2.51	-0.750			
0.7050	45122.01	3.2070	3.2070	-0.3123	8.51	2.52	-0.750			
0.7060	45181.05	3.2040	3.2040	-0.3094	8.52	2.53	-0.750			
0.7069	45240.45	3.2010	3.2009	-0.3076	8.53	2.54	-0.750			
0.7078	45299.72	3.1980	3.1981	-0.3067	8.54	2.55	-0.750			
0.7087	45358.25	3.1950	3.1950	-0.3049	8.55	2.56	-0.750			
0.7096	45417.60	3.1920	3.1921	-0.3006	8.56	2.57	-0.750			
0.7105	45474.86	3.1890	3.1890	-0.2953	8.56	2.57	-0.750			
0.7114	45530.69	3.1860	3.1861	-0.2916	8.57	2.58	-0.750			
0.7123	45586.11	3.1830	3.1829	-0.2881	8.58	2.59	-0.750			
0.7131	45640.60	3.1800	3.1799	-0.2846	8.59	2.60	-0.750			
0.7140	45694.67	3.1770	3.1770	-0.2812	8.60	2.61	-0.750			
0.7148	45748.62	3.1740	3.1741	-0.2788	8.61	2.62	-0.750			
0.7157	45802.47	3.1710	3.1709	-0.2775	8.62	2.63	-0.750			
0.7165	45855.28	3.1680	3.1681	-0.2745	8.63	2.64	-0.750			
0.7173	45907.59	3.1650	3.1651	-0.2717	8.64	2.65	-0.750			
0.7181	45959.39	3.1620	3.1619	-0.2692	8.65	2.66	-0.750			
0.7189	46011.08	3.1590	3.1589	-0.2665	8.65	2.66	-0.750			
0.7197	46062.12	3.1560	3.1561	-0.2630	8.66	2.67	-0.750			
0.7205	46111.81	3.1530	3.1530	-0.2599	8.67	2.68	-0.750			
0.7213	46161.59	3.1500	3.1501	-0.2584	8.68	2.69	-0.750			
0.7220	46210.60	3.1470	3.1471	-0.2553	8.69	2.70	-0.750			
0.7228	46259.47	3.1440	3.1439	-0.2504	8.70	2.71	-0.750			
0.7235	46307.10	3.1410	3.1412	-0.2486	8.71	2.72	-0.750			
0.7243	46354.57	3.1380	3.1381	-0.2466	8.72	2.73	-0.750			
0.7250	46401.61	3.1350	3.1350	-0.2449	8.73	2.74	-0.750			
0.7258	46448.66	3.1320	3.1321	-0.2432	8.74	2.75	-0.750			
0.7265	46494.52	3.1290	3.1290	-0.2403	8.75	2.76	-0.750			
0.7272	46540.63	3.1260	3.1259	-0.2395	8.76	2.77	-0.750			
0.7279	46587.18	3.1230	3.1230	-0.2394	8.77	2.78	-0.750			
0.7286	46632.27	3.1200	3.1200	-0.2366	8.78	2.79	-0.750			
0.7293	46677.61	3.1170	3.1170	-0.2357	8.79	2.80	-0.750			
0.7300	46722.78	3.1140	3.1140	-0.2350	8.80	2.81	-0.750			
0.7307	46768.00	3.1110	3.1110	-0.2330	8.81	2.82	-0.750			
0.7315	46813.17	3.1080	3.1080	-0.2312	8.82	2.83	-0.750			
0.7321	46857.27	3.1050	3.1049	-0.2281	8.83	2.84	-0.750			
0.7328	46900.81	3.1020	3.1021	-0.2259	8.83	2.84	-0.750			
0.7335	46943.71	3.0990	3.0990	-0.2245	8.84	2.85	-0.750			
0.7342	46986.00	3.0960	3.0960	-0.2226	8.85	2.86	-0.750			
0.7348	47029.16	3.0930	3.0929	-0.2203	8.86	2.87	-0.750			
0.7355	47071.32	3.0900	3.0900	-0.2189	8.87	2.88	-0.750			
0.7361	47113.37	3.0870	3.0870	-0.2182	8.88	2.89	-0.750			
0.7368	47155.38	3.0840	3.0843	-0.2172	8.89	2.90	-0.750			
0.7375	47196.81	3.0810	3.0809	-0.2152	8.90	2.91	-0.750			
0.7381	47237.83	3.0780	3.0779	-0.2131	8.91	2.92	-0.750			
0.7387	47278.03	3.0750	3.0751	-0.2120	8.92	2.93	-0.750			
0.7394	47318.61	3.0720	3.0721	-0.2108	8.93	2.94	-0.750			
0.7400	47359.86	3.0690	3.0689	-0.2110	8.94	2.95	-0.750			
0.7406	47400.15	3.0660	3.0659	-0.2087	8.95	2.96	-0.750			
0.7412	47439.73	3.0630	3.0631	-0.2066	8.95	2.96	-0.750			
0.7419	47479.32	3.0600	3.0601	-0.2057	8.96	2.97	-0.750			
0.7425	47518.81	3.0570	3.0570	-0.2040	8.97	2.98	-0.750			
0.7431	47557.78	3.0540	3.0539	-0.2020	8.98	2.99	-0.750			
0.7437	47595.89	3.0510	3.0510	-0.2007	8.99	3.00	-0.750			
0.7443	47634.43	3.0480	3.0480	-0.1997	9.00	3.01	-0.750			
0.7449	47672.70	3.0450	3.0450	-0.1989	9.01	3.02	-0.750			
0.7455	47710.92	3.0420	3.0419	-0.1985	9.02	3.03	-0.750			
0.7461	47748.82	3.0390	3.0391	-0.1972	9.02	3.03	-0.750			
0.7467	47786.48	3.0360	3.0361	-0.1965	9.03	3.04	-0.750			
0.7473	47824.16	3.0330	3.0329	-0.1961	9.04	3.05	-0.750			
0.7478	47861.97	3.0300	3.0301	-0.1957	9.05	3.06	-0.750			
0.7484	47899.13	3.0270	3.0270	-0.1953	9.06	3.07	-0.750			
0.7490	47936.91	3.0240	3.0241	-0.1948	9.07	3.08	-0.750			
0.7496	47974.34	3.0210	3.0209	-0.1937	9.07	3.08	-0.750			
0.7502	48011.46	3.0180	3.0180	-0.1927	9.08	3.09	-0.750			
0.7508	48048.48	3.0150	3.0151	-0.1926	9.09	3.10	-0.750			
0.7513	48085.25	3.0120	3.0120	-0.1915	9.10	3.11	-0.750			
0.7519	48121.83	3.0090	3.0090	-0.1908	9.11	3.12	-0.750			
0.7525	48158.43	3.0060	3.0059	-0.1905	9.11	3.12	-0.750			
0.7531	48195.29	3.0030	3.0030	-0.1956	9.12	3.13	-0.750			
