Ah_balance (normalized)	Ah_balance (mAh)	Voltage - fit (V)	Voltage -  interpolate (V)	dQ/dV (1/V)	Temperature (°C)	Temperature - diff (°C)	Current (C)	R_DC 0ms (mOhm)	R_DC 50ms (mOhm)	R_DC 50 ms PEC (mOhm)
0.0928	5936.54	4.1980	4.1938	0.7400	8.21	2.23	0.750	0.401	0.896	
0.0952	6092.27	4.1950	4.1972	0.8276	8.21	2.23	0.750			
0.0978	6260.20	4.1920	4.1933	0.8286	8.20	2.22	0.750			
0.1003	6418.58	4.1890	4.1897	0.7952	8.20	2.22	0.750			
0.1027	6575.69	4.1860	4.1859	0.7689	8.19	2.21	0.750			
0.1048	6707.51	4.1830	4.1831	0.6906	8.19	2.21	0.750			
0.1069	6840.57	4.1800	4.1800	0.6983	8.19	2.21	0.750			
0.1090	6975.94	4.1770	4.1769	0.7027	8.18	2.20	0.750			
0.1111	7111.36	4.1740	4.1741	0.7038	8.18	2.20	0.750			
0.1132	7245.75	4.1710	4.1712	0.7143	8.18	2.20	0.750			
0.1154	7384.28	4.1680	4.1679	0.7233	8.17	2.19	0.750			
0.1176	7523.69	4.1650	4.1646	0.7243	8.17	2.19	0.750			
0.1197	7663.01	4.1620	4.1621	0.7262	8.17	2.19	0.750			
0.1220	7805.71	4.1590	4.1591	0.7211	8.16	2.18	0.750			
0.1242	7946.91	4.1560	4.1559	0.7288	8.16	2.18	0.750			
0.1263	8082.53	4.1530	4.1531	0.7223	8.16	2.18	0.750			
0.1284	8220.55	4.1500	4.1501	0.7270	8.15	2.17	0.750			
0.1306	8359.87	4.1470	4.1470	0.7368	8.15	2.17	0.750			
0.1329	8503.25	4.1440	4.1441	0.7429	8.15	2.17	0.750			
0.1351	8647.65	4.1410	4.1409	0.7453	8.14	2.16	0.750			
0.1374	8792.60	4.1380	4.1381	0.7433	8.14	2.16	0.750			
0.1396	8934.06	4.1350	4.1350	0.7413	8.13	2.15	0.750			
0.1418	9076.86	4.1320	4.1320	0.7397	8.13	2.15	0.750			
0.1440	9218.90	4.1290	4.1290	0.7432	8.13	2.15	0.750			
0.1462	9359.77	4.1260	4.1258	0.7423	8.12	2.14	0.750			
0.1485	9502.84	4.1230	4.1231	0.7480	8.12	2.14	0.750			
0.1507	9645.70	4.1200	4.1201	0.7572	8.11	2.13	0.750			
0.1530	9791.13	4.1170	4.1170	0.7689	8.11	2.13	0.750			
0.1554	9942.49	4.1140	4.1139	0.7710	8.10	2.12	0.750			
0.1577	10091.64	4.1110	4.1111	0.7769	8.10	2.12	0.750			
0.1600	10241.32	4.1080	4.1081	0.7767	8.10	2.12	0.750			
0.1624	10392.06	4.1050	4.1051	0.7810	8.09	2.11	0.750			
0.1647	10539.67	4.1020	4.1019	0.7771	8.09	2.11	0.750			
0.1670	10688.74	4.0990	4.0989	0.7797	8.09	2.11	0.750			
0.1693	10838.18	4.0960	4.0960	0.7859	8.09	2.11	0.750			
0.1718	10993.61	4.0930	4.0931	0.7883	8.08	2.10	0.750			
0.1741	11145.46	4.0900	4.0899	0.7872	8.07	2.09	0.750			
0.1765	11296.91	4.0870	4.0870	0.7836	8.07	2.09	0.750			
0.1788	11446.20	4.0840	4.0841	0.7775	8.06	2.08	0.750			
0.1812	11593.69	4.0810	4.0810	0.7787	8.06	2.08	0.750			
0.1835	11742.74	4.0780	4.0780	0.7797	8.05	2.07	0.750			
0.1858	11889.73	4.0750	4.0750	0.7919	8.05	2.07	0.750			
0.1882	12044.51	4.0720	4.0719	0.8078	8.04	2.06	0.750			
0.1906	12200.73	4.0690	4.0691	0.8151	8.03	2.05	0.750			
0.1931	12360.36	4.0660	4.0659	0.8300	8.03	2.05	0.750			
0.1957	12523.02	4.0630	4.0631	0.8241	8.02	2.04	0.750			
0.1982	12682.86	4.0600	4.0601	0.8181	8.02	2.04	0.750			
0.2006	12838.88	4.0570	4.0570	0.8124	8.01	2.03	0.750			
0.2030	12990.77	4.0540	4.0539	0.8074	8.01	2.03	0.750			
0.2054	13143.19	4.0510	4.0511	0.8118	8.00	2.02	0.750			
0.2078	13299.20	4.0480	4.0479	0.8191	8.00	2.02	0.750			
0.2103	13457.82	4.0450	4.0450	0.8307	7.99	2.01	0.750			
0.2128	13621.22	4.0420	4.0420	0.8487	7.99	2.01	0.750			
0.2154	13785.48	4.0390	4.0391	0.8522	7.98	2.00	0.750			
0.2180	13949.27	4.0360	4.0360	0.8605	7.98	2.00	0.750			
0.2206	14116.56	4.0330	4.0330	0.8594	7.97	1.99	0.750			
0.2231	14280.64	4.0300	4.0299	0.8589	7.97	1.99	0.750			
0.2257	14445.62	4.0270	4.0271	0.8613	7.96	1.98	0.750			
0.2283	14613.49	4.0240	4.0239	0.8628	7.95	1.97	0.750			
0.2309	14777.19	4.0210	4.0209	0.8561	7.95	1.97	0.750			
0.2335	14942.76	4.0180	4.0179	0.8538	7.94	1.96	0.750			
0.2360	15103.93	4.0150	4.0152	0.8546	7.94	1.96	0.750			
0.2386	15269.00	4.0120	4.0119	0.8662	7.93	1.95	0.750			
0.2412	15434.94	4.0090	4.0090	0.8661	7.92	1.94	0.750			
0.2438	15602.88	4.0060	4.0060	0.8661	7.92	1.94	0.750			
0.2464	15772.79	4.0030	4.0031	0.8627	7.91	1.93	0.750			
0.2490	15934.54	4.0000	4.0001	0.8805	7.90	1.92	0.750			
0.2516	16101.27	3.9970	3.9969	0.8902	7.89	1.91	0.750			
0.2542	16271.69	3.9940	3.9938	0.9004	7.88	1.90	0.750			
0.2570	16448.93	3.9910	3.9912	0.9037	7.87	1.89	0.750			
0.2598	16628.27	3.9880	3.9881	0.9211	7.86	1.88	0.750			
0.2626	16807.04	3.9850	3.9850	0.9254	7.86	1.88	0.750			
0.2654	16985.74	3.9820	3.9820	0.9261	7.85	1.87	0.750			
0.2681	17157.49	3.9790	3.9788	0.9205	7.84	1.86	0.750			
0.2709	17338.58	3.9760	3.9760	0.9167	7.83	1.85	0.750			
0.2737	17515.57	3.9730	3.9730	0.9175	7.83	1.85	0.750			
0.2764	17690.88	3.9700	3.9702	0.9192	7.82	1.84	0.750			
0.2791	17865.34	3.9670	3.9670	0.9177	7.81	1.83	0.750			
0.2819	18041.67	3.9640	3.9640	0.9262	7.81	1.83	0.750			
0.2846	18217.36	3.9610	3.9610	0.9354	7.80	1.82	0.750			
0.2875	18398.25	3.9580	3.9580	0.9508	7.79	1.81	0.750			
0.2904	18588.36	3.9550	3.9551	0.9657	7.79	1.81	0.750			
0.2933	18774.34	3.9520	3.9519	0.9643	7.78	1.80	0.750			
0.2963	18960.07	3.9490	3.9491	0.9579	7.77	1.79	0.750			
0.2991	19141.78	3.9460	3.9461	0.9584	7.76	1.78	0.750			
0.3019	19323.50	3.9430	3.9431	0.9653	7.75	1.77	0.750			
0.3048	19506.66	3.9400	3.9397	0.9786	7.74	1.76	0.750			
0.3078	19696.57	3.9370	3.9370	0.9825	7.73	1.75	0.750			
0.3107	19887.76	3.9340	3.9340	0.9906	7.72	1.74	0.750			
0.3138	20081.70	3.9310	3.9310	1.0028	7.71	1.73	0.750			
0.3168	20273.43	3.9280	3.9281	0.9984	7.69	1.71	0.750			
0.3198	20464.61	3.9250	3.9249	1.0155	7.68	1.70	0.750			
0.3228	20657.23	3.9220	3.9220	1.0231	7.68	1.70	0.750			
0.3259	20855.36	3.9190	3.9190	1.0385	7.67	1.69	0.750			
0.3291	21060.75	3.9160	3.9159	1.0579	7.66	1.68	0.750			
0.3323	21264.17	3.9130	3.9130	1.0582	7.65	1.67	0.750			
0.3354	21464.73	3.9100	3.9100	1.0757	7.64	1.66	0.750			
0.3386	21672.18	3.9070	3.9072	1.0859	7.63	1.65	0.750			
0.3419	21881.40	3.9040	3.9038	1.0924	7.62	1.64	0.750			
0.3452	22093.15	3.9010	3.9010	1.1079	7.61	1.63	0.750			
0.3486	22307.67	3.8980	3.8983	1.1226	7.60	1.62	0.750			
0.3520	22527.74	3.8950	3.8950	1.1347	7.59	1.61	0.750			
0.3554	22746.26	3.8920	3.8919	1.1248	7.58	1.60	0.750			
0.3587	22959.91	3.8890	3.8892	1.1402	7.57	1.59	0.750			
0.3622	23179.67	3.8860	3.8861	1.1598	7.56	1.58	0.750			
0.3657	23402.94	3.8830	3.8829	1.1772	7.55	1.57	0.750			
0.3692	23630.32	3.8800	3.8801	1.1859	7.53	1.55	0.750			
0.3728	23857.57	3.8770	3.8772	1.2041	7.52	1.54	0.750			
0.3764	24092.25	3.8740	3.8740	1.2251	7.50	1.52	0.750			
0.3802	24332.02	3.8710	3.8705	1.2309	7.49	1.51	0.750			
0.3838	24565.05	3.8680	3.8682	1.2499	7.48	1.50	0.750			
0.3876	24808.30	3.8650	3.8651	1.2650	7.47	1.49	0.750			
0.3915	25054.16	3.8620	3.8619	1.2794	7.45	1.47	0.750			
0.3953	25300.96	3.8590	3.8592	1.3126	7.44	1.46	0.750			
0.3992	25547.62	3.8560	3.8561	1.3474	7.42	1.44	0.750			
0.4033	25812.59	3.8530	3.8530	1.3743	7.40	1.42	0.750	0.382	0.887	
0.4076	26083.21	3.8500	3.8502	1.4168	7.38	1.40	0.750			
0.4118	26357.71	3.8470	3.8472	1.4560	7.37	1.39	0.750			
0.4163	26645.19	3.8440	3.8439	1.4721	7.35	1.37	0.750			
0.4208	26930.97	3.8410	3.8411	1.4736	7.34	1.36	0.750			
0.4252	27213.62	3.8380	3.8380	1.5056	7.32	1.34	0.750			
0.4297	27501.46	3.8350	3.8348	1.5290	7.30	1.32	0.750			
0.4343	27797.10	3.8320	3.8320	1.5544	7.28	1.30	0.750			
0.4391	28100.65	3.8290	3.8291	1.5889	7.26	1.28	0.750			
0.4439	28407.36	3.8260	3.8262	1.6053	7.24	1.26	0.750			
0.4488	28722.25	3.8230	3.8231	1.6248	7.22	1.24	0.750			
0.4536	29032.62	3.8200	3.8199	1.6620	7.20	1.22	0.750			
0.4586	29347.52	3.8170	3.8168	1.6980	7.18	1.20	0.750			
0.4637	29679.00	3.8140	3.8141	1.7478	7.16	1.18	0.750			
0.4691	30019.25	3.8110	3.8108	1.7853	7.13	1.15	0.750			
0.4746	30377.05	3.8080	3.8081	1.8231	7.11	1.13	0.750			
0.4800	30722.99	3.8050	3.8052	1.8417	7.09	1.11	0.750			
0.4857	31084.25	3.8020	3.8019	1.8908	7.06	1.08	0.750			
0.4912	31439.93	3.7990	3.7990	1.9127	7.04	1.06	0.750			
0.4971	31812.34	3.7960	3.7960	1.9650	7.01	1.03	0.750			
0.5031	32201.39	3.7930	3.7930	2.0125	6.99	1.01	0.750			
0.5093	32595.90	3.7900	3.7900	2.0236	6.96	0.98	0.750			
0.5154	32987.03	3.7870	3.7870	2.0457	6.93	0.95	0.750			
0.5215	33375.68	3.7840	3.7839	2.1011	6.90	0.92	0.750			
0.5278	33780.19	3.7810	3.7809	2.1349	6.88	0.90	0.750			
0.5343	34194.89	3.7780	3.7780	2.1858	6.85	0.87	0.750			
0.5411	34627.46	3.7750	3.7751	2.2397	6.81	0.83	0.750			
0.5477	35055.41	3.7720	3.7720	2.2582	6.78	0.80	0.750			
0.5545	35488.85	3.7690	3.7690	2.2815	6.74	0.76	0.750			
0.5615	35937.84	3.7660	3.7660	2.3187	6.71	0.73	0.750			
0.5685	36383.54	3.7630	3.7631	2.3546	6.69	0.71	0.750			
0.5755	36832.43	3.7600	3.7600	2.4193	6.65	0.67	0.750			
0.5828	37298.12	3.7570	3.7570	2.5183	6.62	0.64	0.750			
0.5905	37791.14	3.7540	3.7539	2.6445	6.58	0.60	0.750			
0.5987	38319.98	3.7510	3.7510	2.7122	6.54	0.56	0.750			
0.6070	38848.43	3.7480	3.7481	2.8242	6.50	0.52	0.750			
0.6155	39395.01	3.7450	3.7448	2.8625	6.47	0.49	0.750			
0.6243	39953.16	3.7420	3.7420	2.9668	6.43	0.45	0.750			
0.6333	40531.54	3.7390	3.7388	3.1436	6.39	0.41	0.750			
0.6430	41153.95	3.7360	3.7359	3.2512	6.35	0.37	0.750			
0.6532	41802.26	3.7330	3.7332	3.2694	6.31	0.33	0.750			
0.6629	42425.35	3.7300	3.7299	3.1524	6.27	0.29	0.750			
0.6719	43004.74	3.7270	3.7271	2.9786	6.24	0.26	0.750			
0.6809	43577.95	3.7240	3.7239	2.7895	6.21	0.23	0.750			
0.6889	44088.42	3.7210	3.7211	2.5141	6.19	0.21	0.750			
0.6960	44543.01	3.7180	3.7181	2.2462	6.17	0.19	0.750			
0.7022	44941.89	3.7150	3.7154	1.9866	6.15	0.17	0.750			
0.7077	45295.46	3.7120	3.7121	1.7653	6.13	0.15	0.750			
0.7126	45603.93	3.7090	3.7091	1.5931	6.12	0.14	0.750			
0.7170	45885.01	3.7060	3.7058	1.4342	6.11	0.13	0.750			
0.7210	46145.21	3.7030	3.7030	1.3378	6.10	0.12	0.750			
0.7247	46381.95	3.7000	3.7000	1.2344	6.09	0.11	0.750			
0.7283	46608.79	3.6970	3.6972	1.1790	6.08	0.10	0.750			
0.7317	46826.89	3.6940	3.6940	1.1239	6.08	0.10	0.750			
0.7349	47035.64	3.6910	3.6910	1.0974	6.07	0.09	0.750			
0.7382	47242.23	3.6880	3.6878	1.0697	6.07	0.09	0.750			
0.7414	47447.65	3.6850	3.6850	1.0523	6.06	0.08	0.750			
0.7445	47646.46	3.6820	3.6821	1.0221	6.06	0.08	0.750			
0.7475	47841.50	3.6790	3.6790	1.0147	6.05	0.07	0.750			
0.7505	48034.02	3.6760	3.6760	0.9937	6.04	0.06	0.750			
0.7534	48219.64	3.6730	3.6729	0.9670	6.03	0.05	0.750			
0.7563	48406.05	3.6700	3.6701	0.9547	6.03	0.05	0.750			
0.7592	48589.11	3.6670	3.6671	0.9374	6.02	0.04	0.750			
0.7619	48764.28	3.6640	3.6640	0.9280	6.02	0.04	0.750			
0.7647	48938.95	3.6610	3.6611	0.9179	6.01	0.03	0.750			
0.7674	49111.99	3.6580	3.6578	0.9086	6.01	0.03	0.750			
0.7701	49287.50	3.6550	3.6551	0.9132	6.01	0.03	0.750			
0.7729	49463.90	3.6520	3.6521	0.9107	6.01	0.03	0.750			
0.7756	49639.61	3.6490	3.6489	0.9145	6.00	0.02	0.750			
0.7783	49813.39	3.6460	3.6461	0.9099	6.00	0.02	0.750			
0.7811	49987.49	3.6430	3.6429	0.9110	6.00	0.02	0.750			
0.7838	50164.07	3.6400	3.6400	0.9100	5.99	0.01	0.750			
0.7866	50341.37	3.6370	3.6370	0.9011	5.99	0.01	0.750			
0.7893	50517.50	3.6340	3.6340	0.8792	5.99	0.01	0.750			
0.7920	50690.44	3.6310	3.6307	0.8245	5.98	0.00	0.750			
0.7945	50848.78	3.6280	3.6281	0.7569	5.98	-0.00	0.750			
0.7967	50989.98	3.6250	3.6251	0.6629	5.97	-0.01	0.750			
0.7986	51110.07	3.6220	3.6220	0.5647	5.97	-0.01	0.750			
0.8001	51207.23	3.6190	3.6190	0.4631	5.97	-0.01	0.750			
0.8012	51276.46	3.6160	3.6161	0.3902	5.97	-0.01	0.750			
0.8022	51340.35	3.6130	3.6130	0.3050	5.96	-0.02	0.750			
0.8030	51390.08	3.6100	3.6098	0.2358	5.96	-0.02	0.750			
0.8035	51423.44	3.6070	3.6062	0.1677	5.96	-0.02	0.750			
0.8039	51449.93	3.6040	3.5989	0.1138	5.96	-0.02	0.750			
0.8040	51455.09	3.5920	3.5817	-0.0738	5.96	-0.02	0.750			
0.8040	51458.91	3.6010	3.5441	0.0605	5.96	-0.02	0.752			
0.8041	51464.96	3.5950	3.4844	-0.0290	5.96	-0.02	0.756			
0.8042	51466.23	3.5980	3.4719	0.0158	5.96	-0.02	0.757			
