Ah_balance (normalized)	Ah_balance (mAh)	Voltage - fit (V)	Voltage -  interpolate (V)	dQ/dV (1/V)	Temperature (°C)	Temperature - diff (°C)	Current (C)	R_DC 0ms (mOhm)	R_DC 50ms (mOhm)	R_DC 50 ms PEC (mOhm)
0.0003	19.53	4.1100	4.1092	-0.0774	5.98	-0.01	-0.750			
0.0006	37.84	4.1070	4.1066	-0.1078	5.98	-0.01	-0.750			
0.0010	61.24	4.1040	4.1039	-0.1359	5.98	-0.01	-0.750			
0.0014	90.51	4.1010	4.1010	-0.1618	5.98	-0.01	-0.750			
0.0019	124.17	4.0980	4.0981	-0.1874	5.98	-0.01	-0.750			
0.0026	164.22	4.0950	4.0950	-0.2120	5.98	-0.01	-0.750			
0.0032	206.87	4.0920	4.0920	-0.2340	5.99	-0.00	-0.750			
0.0040	254.09	4.0890	4.0890	-0.2545	5.99	-0.00	-0.750			
0.0048	305.17	4.0860	4.0860	-0.2750	5.99	-0.00	-0.750			
0.0056	358.30	4.0830	4.0831	-0.3014	5.99	-0.00	-0.750			
0.0066	419.49	4.0800	4.0799	-0.3247	5.99	-0.00	-0.750			
0.0076	484.28	4.0770	4.0768	-0.3467	5.99	-0.00	-0.750			
0.0087	553.91	4.0740	4.0739	-0.3662	5.99	-0.00	-0.750			
0.0098	627.03	4.0710	4.0712	-0.3870	5.99	0.00	-0.750			
0.0110	703.53	4.0680	4.0680	-0.4060	5.99	0.00	-0.750			
0.0122	781.97	4.0650	4.0650	-0.4270	5.99	0.00	-0.750			
0.0135	863.20	4.0620	4.0620	-0.4468	5.99	0.00	-0.750			
0.0149	952.84	4.0590	4.0590	-0.4750	5.99	0.00	-0.750			
0.0164	1046.83	4.0560	4.0559	-0.4997	6.00	0.01	-0.750			
0.0179	1145.95	4.0530	4.0530	-0.5226	6.00	0.01	-0.750			
0.0195	1249.33	4.0500	4.0501	-0.5450	6.00	0.01	-0.750			
0.0212	1355.40	4.0470	4.0469	-0.5692	6.00	0.01	-0.750			
0.0229	1466.17	4.0440	4.0441	-0.5870	6.00	0.01	-0.750			
0.0247	1583.02	4.0410	4.0409	-0.6007	6.00	0.01	-0.750			
0.0266	1700.72	4.0380	4.0379	-0.6168	6.00	0.01	-0.750			
0.0284	1819.70	4.0350	4.0352	-0.6316	6.01	0.02	-0.750			
0.0304	1942.56	4.0320	4.0320	-0.6442	6.01	0.02	-0.750			
0.0323	2068.26	4.0290	4.0289	-0.6478	6.01	0.02	-0.750			
0.0343	2192.99	4.0260	4.0259	-0.6539	6.01	0.02	-0.750			
0.0362	2319.19	4.0230	4.0232	-0.6652	6.01	0.02	-0.750			
0.0382	2447.60	4.0200	4.0199	-0.6758	6.02	0.03	-0.750			
0.0403	2576.84	4.0170	4.0169	-0.6825	6.02	0.03	-0.750			
0.0423	2708.46	4.0140	4.0139	-0.6938	6.03	0.04	-0.750			
0.0444	2844.18	4.0110	4.0111	-0.7026	6.03	0.04	-0.750			
0.0466	2981.32	4.0080	4.0078	-0.7124	6.04	0.05	-0.750			
0.0487	3119.41	4.0050	4.0050	-0.7125	6.05	0.06	-0.750			
0.0509	3256.31	4.0020	4.0020	-0.7130	6.05	0.06	-0.750			
0.0530	3392.62	3.9990	3.9990	-0.7179	6.06	0.07	-0.750			
0.0552	3530.41	3.9960	3.9959	-0.7245	6.07	0.08	-0.750			
0.0573	3668.46	3.9930	3.9930	-0.7331	6.07	0.08	-0.750			
0.0595	3809.93	3.9900	3.9902	-0.7440	6.08	0.09	-0.750			
0.0618	3954.01	3.9870	3.9869	-0.7522	6.09	0.10	-0.750			
0.0641	4102.38	3.9840	3.9840	-0.7575	6.10	0.11	-0.750			
0.0664	4249.00	3.9810	3.9809	-0.7573	6.10	0.11	-0.750			
0.0687	4396.27	3.9780	3.9781	-0.7604	6.11	0.12	-0.750			
0.0710	4541.17	3.9750	3.9749	-0.7500	6.12	0.13	-0.750			
0.0732	4682.99	3.9720	3.9719	-0.7450	6.12	0.13	-0.750			
0.0754	4824.65	3.9690	3.9690	-0.7464	6.13	0.14	-0.750			
0.0776	4966.41	3.9660	3.9659	-0.7521	6.14	0.15	-0.750			
0.0799	5110.74	3.9630	3.9630	-0.7573	6.15	0.16	-0.750			
0.0822	5258.71	3.9600	3.9598	-0.7686	6.15	0.16	-0.750			
0.0845	5406.61	3.9570	3.9573	-0.7738	6.16	0.17	-0.750			
0.0868	5557.76	3.9540	3.9539	-0.7789	6.17	0.18	-0.750			
0.0892	5707.08	3.9510	3.9510	-0.7889	6.18	0.19	-0.750			
0.0916	5859.82	3.9480	3.9479	-0.7942	6.18	0.19	-0.750			
0.0940	6014.81	3.9450	3.9449	-0.7928	6.19	0.20	-0.750			
0.0964	6167.28	3.9420	3.9423	-0.7813	6.20	0.21	-0.750			
0.0987	6317.40	3.9390	3.9390	-0.7738	6.21	0.22	-0.750			
0.1010	6463.00	3.9360	3.9359	-0.7713	6.22	0.23	-0.750			
0.1032	6605.90	3.9330	3.9330	-0.7726	6.23	0.24	-0.750			
0.1055	6752.02	3.9300	3.9299	-0.7775	6.23	0.24	-0.750			
0.1079	6905.78	3.9270	3.9269	-0.7846	6.24	0.25	-0.750			
0.1103	7059.68	3.9240	3.9242	-0.7898	6.25	0.26	-0.750			
0.1127	7212.80	3.9210	3.9211	-0.8014	6.26	0.27	-0.750			
0.1151	7367.63	3.9180	3.9179	-0.7970	6.27	0.28	-0.750			
0.1175	7517.99	3.9150	3.9149	-0.7913	6.28	0.29	-0.750			
0.1198	7669.18	3.9120	3.9121	-0.7987	6.28	0.29	-0.750			
0.1223	7824.15	3.9090	3.9090	-0.7994	6.29	0.30	-0.750			
0.1247	7978.64	3.9060	3.9059	-0.7997	6.30	0.31	-0.750			
0.1270	8130.83	3.9030	3.9031	-0.8056	6.31	0.32	-0.750			
0.1294	8284.39	3.9000	3.9000	-0.8073	6.31	0.32	-0.750			
0.1319	8442.21	3.8970	3.8969	-0.8185	6.32	0.33	-0.750			
0.1344	8599.20	3.8940	3.8941	-0.8188	6.33	0.34	-0.750			
0.1368	8756.66	3.8910	3.8910	-0.8180	6.34	0.35	-0.750			
0.1393	8916.31	3.8880	3.8880	-0.8241	6.35	0.36	-0.750			
0.1418	9074.02	3.8850	3.8850	-0.8231	6.36	0.37	-0.750			
0.1443	9232.41	3.8820	3.8820	-0.8185	6.37	0.38	-0.750			
0.1467	9389.51	3.8790	3.8791	-0.8154	6.38	0.39	-0.750			
0.1492	9545.70	3.8760	3.8760	-0.8066	6.39	0.40	-0.750			
0.1515	9698.44	3.8730	3.8731	-0.8120	6.39	0.40	-0.750			
0.1539	9852.09	3.8700	3.8700	-0.8143	6.40	0.41	-0.750			
0.1564	10008.96	3.8670	3.8667	-0.8138	6.41	0.42	-0.750			
0.1589	10166.60	3.8640	3.8641	-0.8155	6.42	0.43	-0.750			
0.1613	10323.95	3.8610	3.8611	-0.8217	6.43	0.44	-0.750			
0.1638	10482.26	3.8580	3.8580	-0.8334	6.44	0.45	-0.750			
0.1663	10644.02	3.8550	3.8549	-0.8379	6.45	0.46	-0.750			
0.1688	10801.33	3.8520	3.8519	-0.8385	6.47	0.48	-0.750			
0.1713	10965.16	3.8490	3.8492	-0.8471	6.48	0.49	-0.750			
0.1739	11129.83	3.8460	3.8460	-0.8533	6.49	0.50	-0.750			
0.1765	11295.16	3.8430	3.8429	-0.8612	6.50	0.51	-0.750			
0.1791	11462.03	3.8400	3.8400	-0.8515	6.51	0.52	-0.750			
0.1816	11623.58	3.8370	3.8369	-0.8463	6.52	0.53	-0.750			
0.1842	11788.00	3.8340	3.8342	-0.8488	6.53	0.54	-0.750			
0.1867	11949.73	3.8310	3.8310	-0.8432	6.54	0.55	-0.750			
0.1892	12109.86	3.8280	3.8279	-0.8443	6.55	0.56	-0.750			
0.1917	12270.84	3.8250	3.8249	-0.8438	6.56	0.57	-0.750			
0.1943	12433.73	3.8220	3.8221	-0.8465	6.57	0.58	-0.750			
0.1968	12596.34	3.8190	3.8192	-0.8539	6.58	0.59	-0.750			
0.1994	12759.17	3.8160	3.8160	-0.8535	6.59	0.60	-0.750			
0.2019	12924.76	3.8130	3.8130	-0.8591	6.60	0.61	-0.750			
0.2045	13090.22	3.8100	3.8098	-0.8554	6.60	0.61	-0.750			
0.2071	13255.93	3.8070	3.8072	-0.8604	6.61	0.62	-0.750			
0.2097	13421.13	3.8040	3.8042	-0.8597	6.62	0.63	-0.750			
0.2123	13586.48	3.8010	3.8011	-0.8627	6.63	0.64	-0.750			
0.2148	13750.06	3.7980	3.7979	-0.8595	6.64	0.65	-0.750			
0.2174	13912.45	3.7950	3.7950	-0.8617	6.65	0.66	-0.750			
0.2200	14080.47	3.7920	3.7920	-0.8697	6.66	0.67	-0.750			
0.2226	14247.92	3.7890	3.7890	-0.8698	6.67	0.68	-0.750			
0.2252	14414.61	3.7860	3.7860	-0.8827	6.68	0.69	-0.750			
0.2279	14586.18	3.7830	3.7830	-0.8883	6.68	0.69	-0.750			
0.2306	14758.45	3.7800	3.7800	-0.8863	6.69	0.70	-0.750			
0.2333	14930.59	3.7770	3.7771	-0.8845	6.70	0.71	-0.750			
0.2359	15100.26	3.7740	3.7740	-0.8816	6.71	0.72	-0.750			
0.2386	15269.97	3.7710	3.7709	-0.8795	6.72	0.73	-0.750			
0.2412	15436.86	3.7680	3.7680	-0.8728	6.73	0.74	-0.750			
0.2437	15599.32	3.7650	3.7651	-0.8693	6.74	0.75	-0.750			
0.2464	15769.91	3.7620	3.7620	-0.8802	6.75	0.76	-0.750			
0.2491	15939.38	3.7590	3.7589	-0.8857	6.76	0.77	-0.750			
0.2517	16110.38	3.7560	3.7559	-0.8876	6.77	0.78	-0.750			
0.2544	16280.23	3.7530	3.7531	-0.8890	6.78	0.79	-0.750			
0.2570	16450.67	3.7500	3.7501	-0.8969	6.79	0.80	-0.750			
0.2598	16624.71	3.7470	3.7470	-0.9008	6.80	0.81	-0.750			
0.2625	16799.39	3.7440	3.7439	-0.9020	6.81	0.82	-0.750			
0.2652	16973.72	3.7410	3.7410	-0.9047	6.82	0.83	-0.750			
0.2679	17146.90	3.7380	3.7380	-0.9060	6.83	0.84	-0.750			
0.2707	17322.05	3.7350	3.7351	-0.9100	6.84	0.85	-0.750			
0.2734	17495.67	3.7320	3.7317	-0.9084	6.84	0.85	-0.750			
0.2761	17667.47	3.7290	3.7290	-0.9183	6.85	0.86	-0.750			
0.2789	17847.78	3.7260	3.7259	-0.9208	6.86	0.87	-0.750			
0.2816	18025.33	3.7230	3.7229	-0.9226	6.87	0.88	-0.750			
0.2845	18206.02	3.7200	3.7204	-0.9293	6.88	0.89	-0.750			
0.2872	18382.16	3.7170	3.7170	-0.9250	6.89	0.90	-0.750			
0.2900	18558.64	3.7140	3.7139	-0.9301	6.90	0.91	-0.750			
0.2927	18733.47	3.7110	3.7109	-0.9328	6.91	0.92	-0.750			
0.2955	18914.47	3.7080	3.7081	-0.9489	6.92	0.93	-0.750			
0.2984	19098.08	3.7050	3.7050	-0.9609	6.92	0.93	-0.750			
0.3013	19285.15	3.7020	3.7020	-0.9669	6.93	0.94	-0.750			
0.3043	19473.05	3.6990	3.6991	-0.9665	6.94	0.95	-0.750			
0.3072	19660.32	3.6960	3.6960	-0.9619	6.95	0.96	-0.750			
0.3101	19843.46	3.6930	3.6930	-0.9621	6.96	0.97	-0.750			
0.3129	20026.42	3.6900	3.6900	-0.9590	6.97	0.98	-0.750			
0.3157	20207.81	3.6870	3.6870	-0.9659	6.98	0.99	-0.750			
0.3186	20392.91	3.6840	3.6840	-0.9738	6.98	0.99	-0.750			
0.3216	20581.14	3.6810	3.6810	-0.9884	6.99	1.00	-0.750			
0.3246	20772.65	3.6780	3.6780	-1.0041	7.00	1.01	-0.750			
0.3276	20967.63	3.6750	3.6750	-1.0199	7.01	1.02	-0.750			
0.3307	21166.71	3.6720	3.6719	-1.0149	7.02	1.03	-0.750			
0.3338	21362.86	3.6690	3.6688	-1.0215	7.03	1.04	-0.750			
0.3369	21558.65	3.6660	3.6661	-1.0274	7.04	1.05	-0.750			
0.3399	21756.04	3.6630	3.6630	-1.0399	7.04	1.05	-0.750			
0.3430	21954.66	3.6600	3.6598	-1.0452	7.05	1.06	-0.750			
0.3462	22156.35	3.6570	3.6570	-1.0533	7.06	1.07	-0.750			
0.3494	22361.21	3.6540	3.6540	-1.0713	7.07	1.08	-0.750			
0.3527	22570.83	3.6510	3.6511	-1.0837	7.08	1.09	-0.750			
0.3559	22778.55	3.6480	3.6479	-1.0889	7.09	1.10	-0.750			
0.3592	22987.31	3.6450	3.6454	-1.1030	7.10	1.11	-0.750			
0.3625	23198.62	3.6420	3.6419	-1.1148	7.10	1.11	-0.750			
0.3659	23416.65	3.6390	3.6389	-1.1283	7.11	1.12	-0.750			
0.3693	23635.49	3.6360	3.6360	-1.1360	7.12	1.13	-0.750			
0.3728	23857.23	3.6330	3.6330	-1.1610	7.12	1.13	-0.750			
0.3763	24080.57	3.6300	3.6301	-1.1629	7.13	1.14	-0.750			
0.3797	24303.23	3.6270	3.6268	-1.1695	7.14	1.15	-0.750			
0.3832	24526.07	3.6240	3.6241	-1.1870	7.15	1.16	-0.750			
0.3868	24755.14	3.6210	3.6209	-1.1974	7.15	1.16	-0.750			
0.3904	24986.67	3.6180	3.6179	-1.2134	7.16	1.17	-0.750			
0.3941	25220.75	3.6150	3.6150	-1.2285	7.17	1.18	-0.750			
0.3978	25459.27	3.6120	3.6121	-1.2350	7.17	1.18	-0.750			
0.4016	25704.93	3.6090	3.6089	-1.2415	7.18	1.19	-0.750			
0.4053	25940.93	3.6060	3.6059	-1.2418	7.19	1.20	-0.750			
0.4089	26172.68	3.6030	3.6035	-1.2572	7.20	1.21	-0.750	0.415	0.992	
0.4127	26415.98	3.6000	3.5998	-1.2881	7.21	1.22	-0.750			
0.4166	26664.11	3.5970	3.5968	-1.3047	7.22	1.23	-0.750			
0.4206	26916.12	3.5940	3.5940	-1.3270	7.23	1.24	-0.750			
0.4247	27179.28	3.5910	3.5911	-1.3518	7.23	1.24	-0.750			
0.4289	27447.62	3.5880	3.5881	-1.3750	7.24	1.25	-0.750			
0.4330	27710.73	3.5850	3.5849	-1.3913	7.25	1.26	-0.750			
0.4371	27975.84	3.5820	3.5819	-1.3893	7.25	1.26	-0.750			
0.4414	28246.50	3.5790	3.5790	-1.3984	7.26	1.27	-0.750			
0.4456	28516.42	3.5760	3.5760	-1.4163	7.27	1.28	-0.750			
0.4499	28791.19	3.5730	3.5729	-1.4288	7.27	1.28	-0.750			
0.4541	29063.39	3.5700	3.5700	-1.4509	7.28	1.29	-0.750			
0.4584	29339.94	3.5670	3.5670	-1.4665	7.29	1.30	-0.750			
0.4629	29627.16	3.5640	3.5639	-1.4728	7.30	1.31	-0.750			
0.4674	29915.24	3.5610	3.5609	-1.5125	7.30	1.31	-0.750			
0.4720	30209.16	3.5580	3.5582	-1.5058	7.31	1.32	-0.750			
0.4765	30497.23	3.5550	3.5549	-1.5141	7.32	1.33	-0.750			
0.4811	30788.85	3.5520	3.5519	-1.5281	7.32	1.33	-0.750			
0.4857	31081.99	3.5490	3.5488	-1.5341	7.33	1.34	-0.750			
0.4903	31377.94	3.5460	3.5461	-1.5621	7.34	1.35	-0.750			
0.4950	31678.39	3.5430	3.5429	-1.5856	7.35	1.36	-0.750			
0.4997	31983.50	3.5400	3.5400	-1.5861	7.36	1.37	-0.750			
0.5047	32299.31	3.5370	3.5370	-1.5950	7.37	1.38	-0.750			
0.5094	32601.91	3.5340	3.5343	-1.6057	7.38	1.39	-0.750			
0.5142	32911.17	3.5310	3.5308	-1.6155	7.39	1.40	-0.750			
0.5190	33215.54	3.5280	3.5280	-1.6302	7.40	1.41	-0.750			
0.5239	33529.38	3.5250	3.5249	-1.6526	7.40	1.41	-0.750			
0.5290	33854.35	3.5220	3.5220	-1.6812	7.42	1.43	-0.750			
0.5341	34184.09	3.5190	3.5192	-1.6849	7.43	1.44	-0.750			
0.5392	34511.81	3.5160	3.5162	-1.6761	7.43	1.44	-0.750			
0.5443	34833.40	3.5130	3.5129	-1.6641	7.44	1.45	-0.750			
0.5492	35147.37	3.5100	3.5098	-1.6585	7.45	1.46	-0.750			
0.5541	35459.22	3.5070	3.5071	-1.6621	7.46	1.47	-0.750			
0.5590	35775.61	3.5040	3.5042	-1.6620	7.47	1.48	-0.750			
0.5641	36101.95	3.5010	3.5010	-1.6721	7.48	1.49	-0.750			
0.5692	36426.60	3.4980	3.4980	-1.6739	7.49	1.50	-0.750			
0.5742	36749.43	3.4950	3.4948	-1.6665	7.50	1.51	-0.750			
0.5792	37070.68	3.4920	3.4919	-1.6375	7.51	1.52	-0.750			
0.5841	37385.08	3.4890	3.4893	-1.6096	7.53	1.54	-0.750			
0.5889	37689.10	3.4860	3.4858	-1.5944	7.54	1.55	-0.750			
0.5936	37992.65	3.4830	3.4832	-1.5696	7.55	1.56	-0.750			
0.5983	38290.08	3.4800	3.4800	-1.5746	7.56	1.57	-0.750			
0.6030	38594.65	3.4770	3.4771	-1.5680	7.57	1.58	-0.750			
0.6077	38893.03	3.4740	3.4739	-1.5642	7.58	1.59	-0.750			
0.6124	39193.84	3.4710	3.4709	-1.5659	7.59	1.60	-0.750			
0.6171	39494.99	3.4680	3.4680	-1.5516	7.60	1.61	-0.750			
0.6218	39793.35	3.4650	3.4651	-1.5401	7.62	1.63	-0.750			
0.6264	40089.05	3.4620	3.4620	-1.5116	7.63	1.64	-0.750			
0.6309	40376.44	3.4590	3.4592	-1.4855	7.64	1.65	-0.750			
0.6354	40663.03	3.4560	3.4561	-1.4858	7.65	1.66	-0.750			
0.6398	40944.30	3.4530	3.4529	-1.4571	7.67	1.68	-0.750			
0.6441	41220.89	3.4500	3.4499	-1.4426	7.69	1.70	-0.750			
0.6484	41498.11	3.4470	3.4471	-1.4206	7.70	1.71	-0.750			
0.6527	41773.94	3.4440	3.4441	-1.3993	7.71	1.72	-0.750			
0.6568	42038.26	3.4410	3.4408	-1.3676	7.72	1.73	-0.750			
0.6609	42296.04	3.4380	3.4381	-1.3242	7.73	1.74	-0.750			
0.6648	42548.86	3.4350	3.4350	-1.2959	7.75	1.76	-0.750			
0.6687	42794.31	3.4320	3.4319	-1.2644	7.76	1.77	-0.750			
0.6723	43028.94	3.4290	3.4292	-1.2327	7.77	1.78	-0.750			
0.6761	43269.68	3.4260	3.4259	-1.2176	7.79	1.80	-0.750			
0.6797	43502.55	3.4230	3.4229	-1.1924	7.80	1.81	-0.750			
0.6833	43728.78	3.4200	3.4200	-1.1603	7.82	1.83	-0.750			
0.6867	43950.30	3.4170	3.4169	-1.1364	7.83	1.84	-0.750			
0.6901	44165.19	3.4140	3.4141	-1.0995	7.84	1.85	-0.750			
0.6933	44370.03	3.4110	3.4109	-1.0697	7.85	1.86	-0.750			
0.6964	44569.30	3.4080	3.4081	-1.0473	7.86	1.87	-0.750			
0.6995	44770.27	3.4050	3.4050	-1.0300	7.87	1.88	-0.750			
0.7026	44965.73	3.4020	3.4020	-1.0031	7.89	1.90	-0.750			
0.7056	45159.80	3.3990	3.3990	-0.9798	7.90	1.91	-0.750			
0.7085	45345.99	3.3960	3.3961	-0.9483	7.92	1.93	-0.750			
0.7114	45529.07	3.3930	3.3930	-0.9151	7.93	1.94	-0.750			
0.7141	45699.21	3.3900	3.3900	-0.8749	7.94	1.95	-0.750			
0.7166	45860.53	3.3870	3.3871	-0.8375	7.95	1.96	-0.750			
0.7190	46017.06	3.3840	3.3840	-0.8117	7.97	1.98	-0.750			
0.7214	46169.83	3.3810	3.3809	-0.7870	7.98	1.99	-0.750			
0.7237	46316.75	3.3780	3.3780	-0.7663	7.99	2.00	-0.750			
0.7260	46462.25	3.3750	3.3750	-0.7494	8.00	2.01	-0.750			
0.7282	46605.99	3.3720	3.3720	-0.7293	8.01	2.02	-0.750			
0.7304	46744.63	3.3690	3.3689	-0.7067	8.02	2.03	-0.750			
0.7325	46878.13	3.3660	3.3661	-0.6845	8.03	2.04	-0.750			
0.7345	47008.33	3.3630	3.3630	-0.6585	8.04	2.05	-0.750			
0.7364	47131.95	3.3600	3.3599	-0.6350	8.05	2.06	-0.750			
0.7383	47249.61	3.3570	3.3571	-0.6141	8.06	2.07	-0.750			
0.7401	47364.81	3.3540	3.3540	-0.5945	8.07	2.08	-0.750			
0.7418	47477.05	3.3510	3.3509	-0.5792	8.08	2.09	-0.750			
0.7435	47586.33	3.3480	3.3480	-0.5631	8.09	2.10	-0.750			
0.7452	47693.25	3.3450	3.3451	-0.5483	8.10	2.11	-0.750			
0.7468	47797.97	3.3420	3.3421	-0.5359	8.11	2.12	-0.750			
0.7484	47898.87	3.3390	3.3389	-0.5166	8.12	2.13	-0.750			
0.7499	47996.53	3.3360	3.3361	-0.5005	8.13	2.14	-0.750			
0.7514	48090.74	3.3330	3.3330	-0.4867	8.14	2.15	-0.750			
0.7529	48182.55	3.3300	3.3300	-0.4709	8.15	2.16	-0.750			
0.7542	48270.57	3.3270	3.3270	-0.4613	8.16	2.17	-0.750			
0.7556	48357.10	3.3240	3.3240	-0.4514	8.17	2.18	-0.750			
0.7569	48443.69	3.3210	3.3209	-0.4385	8.17	2.18	-0.750			
0.7583	48528.93	3.3180	3.3180	-0.4271	8.18	2.19	-0.750			
0.7595	48609.20	3.3150	3.3152	-0.4118	8.19	2.20	-0.750			
0.7607	48686.64	3.3120	3.3121	-0.3979	8.20	2.21	-0.750			
0.7619	48760.68	3.3090	3.3089	-0.3873	8.21	2.22	-0.750			
0.7630	48832.21	3.3060	3.3059	-0.3774	8.22	2.23	-0.750			
0.7641	48903.03	3.3030	3.3030	-0.3678	8.23	2.24	-0.750			
0.7652	48973.73	3.3000	3.3001	-0.3628	8.24	2.25	-0.750			
0.7663	49044.05	3.2970	3.2970	-0.3575	8.25	2.26	-0.750			
0.7674	49111.77	3.2940	3.2939	-0.3487	8.26	2.27	-0.750			
0.7684	49177.93	3.2910	3.2910	-0.3390	8.27	2.28	-0.750			
0.7694	49242.28	3.2880	3.2880	-0.3290	8.28	2.29	-0.750			
0.7704	49304.74	3.2850	3.2850	-0.3189	8.29	2.30	-0.750			
0.7713	49365.04	3.2820	3.2821	-0.3123	8.30	2.31	-0.750			
0.7722	49423.27	3.2790	3.2790	-0.3035	8.30	2.31	-0.750			
0.7731	49480.73	3.2760	3.2759	-0.2955	8.31	2.32	-0.750			
0.7740	49536.09	3.2730	3.2730	-0.2900	8.32	2.33	-0.750			
0.7749	49591.31	3.2700	3.2701	-0.2856	8.32	2.33	-0.750			
0.7757	49646.27	3.2670	3.2670	-0.2823	8.33	2.34	-0.750			
0.7766	49700.01	3.2640	3.2639	-0.2767	8.34	2.35	-0.750			
0.7774	49752.51	3.2610	3.2610	-0.2705	8.34	2.35	-0.750			
0.7782	49804.41	3.2580	3.2580	-0.2656	8.35	2.36	-0.750			
0.7790	49854.88	3.2550	3.2550	-0.2607	8.36	2.37	-0.750			
0.7797	49903.75	3.2520	3.2520	-0.2534	8.36	2.37	-0.750			
0.7805	49952.15	3.2490	3.2489	-0.2483	8.37	2.38	-0.750			
0.7812	49998.45	3.2460	3.2460	-0.2443	8.38	2.39	-0.750			
0.7820	50045.50	3.2430	3.2430	-0.2398	8.38	2.39	-0.750			
0.7827	50091.23	3.2400	3.2400	-0.2358	8.39	2.40	-0.750			
0.7834	50136.26	3.2370	3.2369	-0.2316	8.39	2.40	-0.750			
0.7841	50180.19	3.2340	3.2342	-0.2280	8.40	2.41	-0.750			
0.7847	50223.52	3.2310	3.2309	-0.2233	8.40	2.41	-0.750			
0.7854	50265.99	3.2280	3.2279	-0.2192	8.41	2.42	-0.750			
0.7861	50307.97	3.2250	3.2249	-0.2146	8.42	2.43	-0.750			
0.7867	50348.09	3.2220	3.2221	-0.2096	8.43	2.44	-0.750			
0.7873	50388.30	3.2190	3.2190	-0.2076	8.43	2.44	-0.750			
0.7879	50427.78	3.2160	3.2160	-0.2036	8.44	2.45	-0.750			
0.7885	50466.05	3.2130	3.2129	-0.2003	8.45	2.46	-0.750			
0.7891	50503.86	3.2100	3.2100	-0.1971	8.45	2.46	-0.750			
0.7897	50541.57	3.2070	3.2071	-0.1953	8.46	2.47	-0.750			
0.7903	50578.85	3.2040	3.2040	-0.1931	8.46	2.47	-0.750			
0.7909	50615.91	3.2010	3.2011	-0.1905	8.47	2.48	-0.750			
0.7914	50652.29	3.1980	3.1980	-0.1875	8.48	2.49	-0.750			
0.7920	50688.12	3.1950	3.1950	-0.1842	8.48	2.49	-0.750			
0.7925	50723.16	3.1920	3.1921	-0.1809	8.49	2.50	-0.750			
0.7931	50757.68	3.1890	3.1889	-0.1778	8.49	2.50	-0.750			
0.7936	50791.36	3.1860	3.1860	-0.1751	8.50	2.51	-0.750			
0.7941	50824.47	3.1830	3.1829	-0.1718	8.51	2.52	-0.750			
0.7946	50857.22	3.1800	3.1800	-0.1694	8.51	2.52	-0.750			
0.7951	50889.29	3.1770	3.1770	-0.1681	8.52	2.53	-0.750			
0.7956	50921.40	3.1740	3.1740	-0.1659	8.52	2.53	-0.750			
0.7961	50953.20	3.1710	3.1709	-0.1643	8.52	2.53	-0.750			
0.7966	50984.56	3.1680	3.1680	-0.1624	8.53	2.54	-0.750			
0.7971	51015.61	3.1650	3.1650	-0.1600	8.53	2.54	-0.750			
0.7976	51046.39	3.1620	3.1619	-0.1571	8.54	2.55	-0.750			
0.7981	51076.14	3.1590	3.1591	-0.1552	8.55	2.56	-0.750			
0.7985	51105.68	3.1560	3.1560	-0.1526	8.55	2.56	-0.750			
0.7990	51134.39	3.1530	3.1530	-0.1502	8.56	2.57	-0.750			
0.7994	51162.83	3.1500	3.1499	-0.1493	8.56	2.57	-0.750			
0.7999	51191.29	3.1470	3.1470	-0.1474	8.57	2.58	-0.750			
0.8003	51219.50	3.1440	3.1440	-0.1465	8.58	2.59	-0.750			
0.8007	51247.73	3.1410	3.1409	-0.1445	8.58	2.59	-0.750			
0.8012	51275.64	3.1380	3.1381	-0.1433	8.59	2.60	-0.750			
0.8016	51302.70	3.1350	3.1350	-0.1411	8.59	2.60	-0.750			
0.8020	51329.61	3.1320	3.1320	-0.1393	8.60	2.61	-0.750			
0.8024	51356.21	3.1290	3.1290	-0.1379	8.61	2.62	-0.750			
0.8028	51382.24	3.1260	3.1260	-0.1357	8.61	2.62	-0.750			
0.8033	51408.33	3.1230	3.1230	-0.1348	8.62	2.63	-0.750			
0.8037	51434.08	3.1200	3.1200	-0.1334	8.62	2.63	-0.750			
0.8041	51459.76	3.1170	3.1170	-0.1316	8.63	2.64	-0.750			
0.8044	51484.79	3.1140	3.1139	-0.1296	8.63	2.64	-0.750			
0.8048	51509.51	3.1110	3.1111	-0.1277	8.64	2.65	-0.750			
0.8052	51533.73	3.1080	3.1080	-0.1263	8.64	2.65	-0.750			
0.8056	51557.71	3.1050	3.1050	-0.1246	8.65	2.66	-0.750			
0.8060	51581.35	3.1020	3.1019	-0.1235	8.65	2.66	-0.750			
0.8063	51604.75	3.0990	3.0990	-0.1221	8.66	2.67	-0.750			
0.8067	51628.14	3.0960	3.0961	-0.1217	8.66	2.67	-0.750			
0.8071	51651.49	3.0930	3.0930	-0.1213	8.66	2.67	-0.750			
0.8074	51674.93	3.0900	3.0899	-0.1199	8.67	2.68	-0.750			
0.8078	51698.03	3.0870	3.0870	-0.1189	8.67	2.68	-0.750			
0.8081	51720.68	3.0840	3.0842	-0.1177	8.68	2.69	-0.750			
0.8085	51743.23	3.0810	3.0810	-0.1165	8.68	2.69	-0.750			
0.8088	51765.41	3.0780	3.0780	-0.1153	8.68	2.69	-0.750			
0.8092	51787.42	3.0750	3.0750	-0.1141	8.69	2.70	-0.750			
0.8095	51809.21	3.0720	3.0718	-0.1128	8.69	2.70	-0.750			
0.8099	51830.57	3.0690	3.0691	-0.1114	8.70	2.71	-0.750			
0.8102	51851.77	3.0660	3.0661	-0.1109	8.70	2.71	-0.750			
0.8105	51873.03	3.0630	3.0631	-0.1101	8.71	2.72	-0.750			
0.8108	51894.15	3.0600	3.0599	-0.1091	8.71	2.72	-0.750			
0.8112	51914.91	3.0570	3.0570	-0.1081	8.72	2.73	-0.750			
0.8115	51935.66	3.0540	3.0541	-0.1070	8.72	2.73	-0.750			
0.8118	51956.19	3.0510	3.0511	-0.1061	8.73	2.74	-0.750			
0.8121	51976.48	3.0480	3.0480	-0.1048	8.73	2.74	-0.750			
0.8124	51996.71	3.0450	3.0449	-0.1038	8.74	2.75	-0.750			
0.8128	52016.29	3.0420	3.0420	-0.1031	8.74	2.75	-0.750			
0.8131	52035.68	3.0390	3.0390	-0.1018	8.75	2.76	-0.750			
0.8134	52055.19	3.0360	3.0359	-0.1012	8.75	2.76	-0.750			
0.8137	52074.50	3.0330	3.0331	-0.1005	8.76	2.77	-0.750			
0.8140	52093.73	3.0300	3.0300	-0.1001	8.76	2.77	-0.750			
0.8143	52112.88	3.0270	3.0271	-0.0997	8.77	2.78	-0.750			
0.8146	52131.96	3.0240	3.0241	-0.0994	8.77	2.78	-0.750			
0.8149	52151.06	3.0210	3.0210	-0.0991	8.78	2.79	-0.750			
0.8152	52170.18	3.0180	3.0179	-0.0983	8.78	2.79	-0.750			
0.8155	52188.97	3.0150	3.0149	-0.0976	8.78	2.79	-0.750			
0.8157	52207.64	3.0120	3.0122	-0.0969	8.79	2.80	-0.750			
0.8160	52226.44	3.0090	3.0090	-0.0958	8.79	2.80	-0.750			
0.8163	52244.70	3.0060	3.0060	-0.0945	8.80	2.81	-0.750			
0.8166	52262.64	3.0030	3.0030	-0.0912	8.80	2.81	-0.750			
