Ah_balance (normalized)	Ah_balance (mAh)	Voltage - fit (V)	Voltage -  interpolate (V)	dQ/dV (1/V)	Temperature (°C)	Temperature - diff (°C)	Current (C)	R_DC 0ms (mOhm)	R_DC 50ms (mOhm)	R_DC 50 ms PEC (mOhm)
0.0001	8.03	4.1030	4.1009	-0.0024	6.00	0.01	-0.750			
0.0002	12.01	4.1000	4.0994	-0.0390	6.00	0.01	-0.750			
0.0004	25.50	4.0970	4.0964	-0.0749	6.00	0.01	-0.750			
0.0007	44.00	4.0940	4.0937	-0.1035	5.99	0.00	-0.750			
0.0011	67.26	4.0910	4.0909	-0.1296	5.99	0.00	-0.750			
0.0015	94.82	4.0880	4.0881	-0.1555	5.99	0.00	-0.750			
0.0020	127.43	4.0850	4.0851	-0.1798	5.99	0.00	-0.750			
0.0026	166.25	4.0820	4.0819	-0.2056	5.99	0.00	-0.750			
0.0032	207.21	4.0790	4.0790	-0.2273	5.99	0.00	-0.750			
0.0040	253.19	4.0760	4.0761	-0.2509	5.99	0.00	-0.750			
0.0047	303.79	4.0730	4.0730	-0.2734	5.99	0.00	-0.750			
0.0056	359.14	4.0700	4.0699	-0.2939	5.99	0.00	-0.750			
0.0065	418.01	4.0670	4.0670	-0.3138	5.99	0.00	-0.750			
0.0075	478.90	4.0640	4.0641	-0.3367	5.99	-0.00	-0.750			
0.0085	545.13	4.0610	4.0610	-0.3611	5.99	-0.00	-0.750			
0.0096	617.04	4.0580	4.0579	-0.3831	5.99	-0.00	-0.750			
0.0108	692.57	4.0550	4.0549	-0.4048	5.99	-0.00	-0.750			
0.0121	772.73	4.0520	4.0522	-0.4326	5.99	-0.00	-0.750			
0.0134	858.91	4.0490	4.0491	-0.4566	5.98	-0.01	-0.750			
0.0148	950.02	4.0460	4.0458	-0.4784	5.98	-0.01	-0.750			
0.0163	1043.88	4.0430	4.0430	-0.4939	5.98	-0.01	-0.750			
0.0178	1141.23	4.0400	4.0401	-0.5095	5.98	-0.01	-0.750			
0.0194	1241.41	4.0370	4.0371	-0.5247	5.98	-0.01	-0.750			
0.0210	1343.66	4.0340	4.0339	-0.5361	5.98	-0.01	-0.750			
0.0226	1445.00	4.0310	4.0311	-0.5504	5.98	-0.01	-0.750			
0.0242	1550.85	4.0280	4.0281	-0.5708	5.98	-0.01	-0.750			
0.0260	1662.69	4.0250	4.0249	-0.5955	5.99	-0.00	-0.750			
0.0278	1780.23	4.0220	4.0219	-0.6147	5.99	-0.00	-0.750			
0.0297	1902.27	4.0190	4.0190	-0.6299	5.99	-0.00	-0.750			
0.0316	2024.84	4.0160	4.0162	-0.6418	5.99	-0.00	-0.750			
0.0336	2151.94	4.0130	4.0129	-0.6503	5.99	0.00	-0.750			
0.0356	2276.32	4.0100	4.0099	-0.6521	6.00	0.01	-0.750			
0.0375	2398.95	4.0070	4.0071	-0.6560	6.00	0.01	-0.750			
0.0395	2525.08	4.0040	4.0041	-0.6671	6.00	0.01	-0.750			
0.0415	2656.19	4.0010	4.0009	-0.6751	6.01	0.02	-0.750			
0.0435	2786.51	3.9980	3.9978	-0.6788	6.01	0.02	-0.750			
0.0456	2917.39	3.9950	3.9951	-0.6813	6.01	0.02	-0.750			
0.0476	3048.94	3.9920	3.9921	-0.6896	6.02	0.03	-0.750			
0.0497	3180.67	3.9890	3.9889	-0.6988	6.02	0.03	-0.750			
0.0518	3314.12	3.9860	3.9860	-0.7014	6.02	0.03	-0.750			
0.0539	3450.81	3.9830	3.9830	-0.7118	6.03	0.04	-0.750			
0.0561	3590.63	3.9800	3.9800	-0.7205	6.03	0.04	-0.750			
0.0583	3730.15	3.9770	3.9771	-0.7212	6.03	0.04	-0.750			
0.0605	3869.62	3.9740	3.9739	-0.7237	6.04	0.05	-0.750			
0.0626	4007.32	3.9710	3.9711	-0.7269	6.05	0.06	-0.750			
0.0648	4146.40	3.9680	3.9679	-0.7271	6.06	0.07	-0.750			
0.0670	4286.37	3.9650	3.9649	-0.7340	6.06	0.07	-0.750			
0.0692	4428.67	3.9620	3.9622	-0.7383	6.07	0.08	-0.750			
0.0714	4570.74	3.9590	3.9589	-0.7402	6.07	0.08	-0.750			
0.0737	4714.36	3.9560	3.9562	-0.7453	6.08	0.09	-0.750			
0.0759	4858.69	3.9530	3.9529	-0.7415	6.09	0.10	-0.750			
0.0782	5002.68	3.9500	3.9499	-0.7384	6.09	0.10	-0.750			
0.0803	5141.90	3.9470	3.9471	-0.7362	6.10	0.11	-0.750			
0.0825	5281.52	3.9440	3.9440	-0.7336	6.10	0.11	-0.750			
0.0847	5421.48	3.9410	3.9410	-0.7385	6.11	0.12	-0.750			
0.0869	5562.88	3.9380	3.9379	-0.7442	6.12	0.13	-0.750			
0.0892	5706.41	3.9350	3.9350	-0.7452	6.12	0.13	-0.750			
0.0915	5853.31	3.9320	3.9319	-0.7498	6.13	0.14	-0.750			
0.0937	5996.93	3.9290	3.9291	-0.7546	6.14	0.15	-0.750			
0.0959	6139.65	3.9260	3.9260	-0.7553	6.14	0.15	-0.750			
0.0982	6282.83	3.9230	3.9229	-0.7619	6.15	0.16	-0.750			
0.1005	6430.91	3.9200	3.9199	-0.7624	6.15	0.16	-0.750			
0.1028	6577.40	3.9170	3.9171	-0.7685	6.16	0.17	-0.750			
0.1051	6729.53	3.9140	3.9140	-0.7798	6.17	0.18	-0.750			
0.1075	6878.90	3.9110	3.9110	-0.7757	6.17	0.18	-0.750			
0.1098	7025.72	3.9080	3.9079	-0.7716	6.18	0.19	-0.750			
0.1121	7174.36	3.9050	3.9051	-0.7751	6.19	0.20	-0.750			
0.1144	7322.41	3.9020	3.9020	-0.7767	6.20	0.21	-0.750			
0.1168	7474.86	3.8990	3.8989	-0.7826	6.21	0.22	-0.750			
0.1191	7624.44	3.8960	3.8959	-0.7808	6.22	0.23	-0.750			
0.1215	7773.91	3.8930	3.8930	-0.7820	6.23	0.24	-0.750			
0.1238	7924.65	3.8900	3.8901	-0.7854	6.23	0.24	-0.750			
0.1262	8074.74	3.8870	3.8869	-0.7848	6.24	0.25	-0.750			
0.1285	8225.43	3.8840	3.8840	-0.7861	6.25	0.26	-0.750			
0.1309	8375.87	3.8810	3.8810	-0.7902	6.26	0.27	-0.750			
0.1332	8527.56	3.8780	3.8780	-0.7985	6.26	0.27	-0.750			
0.1357	8683.03	3.8750	3.8750	-0.8021	6.27	0.28	-0.750			
0.1381	8839.97	3.8720	3.8720	-0.7932	6.28	0.29	-0.750			
0.1405	8993.33	3.8690	3.8690	-0.7888	6.29	0.30	-0.750			
0.1429	9143.39	3.8660	3.8662	-0.7863	6.30	0.31	-0.750			
0.1452	9292.25	3.8630	3.8629	-0.7816	6.30	0.31	-0.750			
0.1475	9437.84	3.8600	3.8599	-0.7907	6.31	0.32	-0.750			
0.1498	9588.09	3.8570	3.8570	-0.7897	6.31	0.32	-0.750			
0.1522	9743.86	3.8540	3.8540	-0.8019	6.32	0.33	-0.750			
0.1547	9900.77	3.8510	3.8510	-0.8066	6.32	0.33	-0.750			
0.1571	10056.17	3.8480	3.8482	-0.8065	6.33	0.34	-0.750			
0.1595	10210.59	3.8450	3.8450	-0.8040	6.34	0.35	-0.750			
0.1619	10363.27	3.8420	3.8420	-0.8067	6.35	0.36	-0.750			
0.1644	10518.67	3.8390	3.8389	-0.8016	6.36	0.37	-0.750			
0.1668	10676.29	3.8360	3.8359	-0.8049	6.37	0.38	-0.750			
0.1692	10827.51	3.8330	3.8334	-0.8026	6.38	0.39	-0.750			
0.1716	10980.66	3.8300	3.8299	-0.8087	6.39	0.40	-0.750			
0.1740	11136.17	3.8270	3.8269	-0.8114	6.39	0.40	-0.750			
0.1764	11290.94	3.8240	3.8239	-0.8100	6.40	0.41	-0.750			
0.1789	11449.75	3.8210	3.8210	-0.8156	6.40	0.41	-0.750			
0.1814	11606.88	3.8180	3.8182	-0.8152	6.41	0.42	-0.750			
0.1838	11763.50	3.8150	3.8149	-0.8150	6.42	0.43	-0.750			
0.1862	11917.86	3.8120	3.8118	-0.8115	6.43	0.44	-0.750			
0.1886	12070.87	3.8090	3.8090	-0.8074	6.44	0.45	-0.750			
0.1910	12226.37	3.8060	3.8060	-0.8176	6.45	0.46	-0.750			
0.1935	12385.42	3.8030	3.8031	-0.8273	6.46	0.47	-0.750			
0.1960	12545.74	3.8000	3.7998	-0.8269	6.47	0.48	-0.750			
0.1985	12703.77	3.7970	3.7969	-0.8284	6.47	0.48	-0.750			
0.2010	12863.60	3.7940	3.7942	-0.8288	6.48	0.49	-0.750			
0.2035	13021.74	3.7910	3.7910	-0.8312	6.49	0.50	-0.750			
0.2060	13183.57	3.7880	3.7879	-0.8335	6.50	0.51	-0.750			
0.2085	13342.51	3.7850	3.7849	-0.8330	6.51	0.52	-0.750			
0.2110	13501.43	3.7820	3.7821	-0.8361	6.51	0.52	-0.750			
0.2135	13663.31	3.7790	3.7790	-0.8424	6.52	0.53	-0.750			
0.2160	13825.60	3.7760	3.7760	-0.8418	6.53	0.54	-0.750			
0.2186	13988.06	3.7730	3.7728	-0.8440	6.54	0.55	-0.750			
0.2211	14150.21	3.7700	3.7700	-0.8438	6.54	0.55	-0.750			
0.2237	14313.66	3.7670	3.7670	-0.8455	6.55	0.56	-0.750			
0.2262	14475.78	3.7640	3.7639	-0.8458	6.56	0.57	-0.750			
0.2287	14637.74	3.7610	3.7611	-0.8417	6.56	0.57	-0.750			
0.2313	14800.03	3.7580	3.7579	-0.8444	6.57	0.58	-0.750			
0.2338	14961.98	3.7550	3.7549	-0.8459	6.58	0.59	-0.750			
0.2363	15124.45	3.7520	3.7521	-0.8458	6.58	0.59	-0.750			
0.2389	15287.18	3.7490	3.7489	-0.8438	6.59	0.60	-0.750			
0.2414	15448.45	3.7460	3.7460	-0.8503	6.60	0.61	-0.750			
0.2439	15611.96	3.7430	3.7431	-0.8529	6.61	0.62	-0.750			
0.2465	15775.65	3.7400	3.7399	-0.8632	6.62	0.63	-0.750			
0.2491	15942.43	3.7370	3.7370	-0.8683	6.63	0.64	-0.750			
0.2517	16111.46	3.7340	3.7340	-0.8722	6.63	0.64	-0.750			
0.2544	16279.43	3.7310	3.7310	-0.8761	6.64	0.65	-0.750			
0.2571	16452.19	3.7280	3.7282	-0.8743	6.65	0.66	-0.750			
0.2597	16617.68	3.7250	3.7251	-0.8683	6.66	0.67	-0.750			
0.2622	16783.54	3.7220	3.7219	-0.8787	6.67	0.68	-0.750			
0.2649	16950.52	3.7190	3.7190	-0.8847	6.68	0.69	-0.750			
0.2675	17121.84	3.7160	3.7158	-0.8899	6.68	0.69	-0.750			
0.2702	17293.80	3.7130	3.7131	-0.8941	6.69	0.70	-0.750			
0.2730	17469.10	3.7100	3.7100	-0.8976	6.70	0.71	-0.750			
0.2757	17643.32	3.7070	3.7071	-0.8956	6.70	0.71	-0.750			
0.2783	17811.54	3.7040	3.7040	-0.8857	6.70	0.71	-0.750			
0.2810	17983.17	3.7010	3.7009	-0.8922	6.71	0.72	-0.750			
0.2836	18149.75	3.6980	3.6980	-0.8940	6.72	0.73	-0.750			
0.2863	18322.48	3.6950	3.6950	-0.9058	6.72	0.73	-0.750			
0.2890	18497.46	3.6920	3.6920	-0.9159	6.73	0.74	-0.750			
0.2918	18674.94	3.6890	3.6889	-0.9267	6.74	0.75	-0.750			
0.2946	18853.53	3.6860	3.6862	-0.9422	6.75	0.76	-0.750			
0.2975	19037.06	3.6830	3.6829	-0.9519	6.76	0.77	-0.750			
0.3003	19222.16	3.6800	3.6800	-0.9611	6.76	0.77	-0.750			
0.3033	19408.95	3.6770	3.6769	-0.9602	6.77	0.78	-0.750			
0.3062	19594.95	3.6740	3.6742	-0.9606	6.78	0.79	-0.750			
0.3090	19777.94	3.6710	3.6709	-0.9640	6.79	0.80	-0.750			
0.3119	19961.05	3.6680	3.6680	-0.9618	6.79	0.80	-0.750			
0.3147	20143.11	3.6650	3.6649	-0.9664	6.80	0.81	-0.750			
0.3176	20328.86	3.6620	3.6619	-0.9698	6.81	0.82	-0.750			
0.3206	20517.36	3.6590	3.6589	-0.9767	6.81	0.82	-0.750			
0.3235	20706.64	3.6560	3.6561	-0.9928	6.82	0.83	-0.750			
0.3265	20897.08	3.6530	3.6530	-1.0051	6.83	0.84	-0.750			
0.3295	21090.03	3.6500	3.6499	-1.0104	6.83	0.84	-0.750			
0.3326	21286.71	3.6470	3.6471	-1.0271	6.84	0.85	-0.750			
0.3357	21482.91	3.6440	3.6440	-1.0364	6.85	0.86	-0.750			
0.3388	21685.51	3.6410	3.6410	-1.0484	6.85	0.86	-0.750			
0.3420	21885.68	3.6380	3.6379	-1.0512	6.86	0.87	-0.750			
0.3452	22091.46	3.6350	3.6352	-1.0654	6.86	0.87	-0.750			
0.3484	22295.91	3.6320	3.6321	-1.0715	6.87	0.88	-0.750			
0.3516	22505.23	3.6290	3.6289	-1.0745	6.87	0.88	-0.750			
0.3548	22709.83	3.6260	3.6259	-1.0822	6.88	0.89	-0.750			
0.3581	22915.94	3.6230	3.6231	-1.0924	6.88	0.89	-0.750			
0.3614	23126.80	3.6200	3.6200	-1.0996	6.89	0.90	-0.750			
0.3647	23339.53	3.6170	3.6169	-1.1076	6.89	0.90	-0.750			
0.3680	23551.29	3.6140	3.6140	-1.1193	6.90	0.91	-0.750			
0.3714	23768.83	3.6110	3.6110	-1.1362	6.90	0.91	-0.750			
0.3749	23991.79	3.6080	3.6079	-1.1494	6.91	0.92	-0.750			
0.3783	24212.12	3.6050	3.6050	-1.1462	6.91	0.92	-0.750			
0.3818	24433.75	3.6020	3.6021	-1.1566	6.92	0.93	-0.750			
0.3853	24658.33	3.5990	3.5990	-1.1713	6.93	0.94	-0.750			
0.3888	24884.65	3.5960	3.5959	-1.1716	6.94	0.95	-0.750			
0.3923	25108.35	3.5930	3.5930	-1.1746	6.95	0.96	-0.750	0.406	0.924	
0.3959	25335.29	3.5900	3.5902	-1.1861	6.95	0.96	-0.750			
0.3994	25563.04	3.5870	3.5869	-1.1930	6.96	0.97	-0.750			
0.4029	25788.43	3.5840	3.5840	-1.2108	6.96	0.97	-0.750			
0.4066	26021.48	3.5810	3.5810	-1.2273	6.97	0.98	-0.750			
0.4103	26261.05	3.5780	3.5779	-1.2564	6.98	0.99	-0.750			
0.4142	26510.25	3.5750	3.5749	-1.2766	6.98	0.99	-0.750			
0.4181	26757.76	3.5720	3.5722	-1.2820	6.99	1.00	-0.750			
0.4220	27006.75	3.5690	3.5689	-1.2780	6.99	1.00	-0.750			
0.4258	27251.77	3.5660	3.5660	-1.2840	7.00	1.01	-0.750			
0.4296	27492.29	3.5630	3.5631	-1.3054	7.01	1.02	-0.750			
0.4335	27740.82	3.5600	3.5599	-1.3172	7.01	1.02	-0.750			
0.4375	27998.80	3.5570	3.5569	-1.3345	7.02	1.03	-0.750			
0.4415	28259.08	3.5540	3.5540	-1.3543	7.03	1.04	-0.750			
0.4457	28526.44	3.5510	3.5511	-1.3705	7.03	1.04	-0.750			
0.4499	28791.33	3.5480	3.5480	-1.3767	7.04	1.05	-0.750			
0.4539	29051.58	3.5450	3.5449	-1.3669	7.05	1.06	-0.750			
0.4580	29311.10	3.5420	3.5421	-1.3688	7.05	1.06	-0.750			
0.4622	29578.30	3.5390	3.5390	-1.3779	7.06	1.07	-0.750			
0.4663	29844.65	3.5360	3.5360	-1.3856	7.07	1.08	-0.750			
0.4705	30109.19	3.5330	3.5330	-1.3889	7.08	1.09	-0.750			
0.4746	30375.68	3.5300	3.5300	-1.4034	7.09	1.10	-0.750			
0.4788	30645.24	3.5270	3.5270	-1.4110	7.10	1.11	-0.750			
0.4831	30918.91	3.5240	3.5240	-1.4256	7.11	1.12	-0.750			
0.4874	31194.31	3.5210	3.5210	-1.4375	7.12	1.13	-0.750			
0.4917	31471.45	3.5180	3.5180	-1.4545	7.13	1.14	-0.750			
0.4962	31754.48	3.5150	3.5150	-1.4445	7.14	1.15	-0.750			
0.5005	32034.59	3.5120	3.5119	-1.4359	7.15	1.16	-0.750			
0.5048	32306.95	3.5090	3.5090	-1.4462	7.16	1.17	-0.750			
0.5091	32585.10	3.5060	3.5058	-1.4315	7.18	1.19	-0.750			
0.5135	32862.71	3.5030	3.5028	-1.4237	7.19	1.20	-0.750			
0.5177	33133.48	3.5000	3.5003	-1.4210	7.20	1.21	-0.750			
0.5220	33405.34	3.4970	3.4969	-1.4161	7.21	1.22	-0.750			
0.5263	33682.72	3.4940	3.4938	-1.4147	7.22	1.23	-0.750			
0.5304	33948.52	3.4910	3.4913	-1.4166	7.23	1.24	-0.750			
0.5347	34219.70	3.4880	3.4879	-1.4172	7.24	1.25	-0.750			
0.5390	34493.89	3.4850	3.4849	-1.4348	7.25	1.26	-0.750			
0.5433	34771.03	3.4820	3.4820	-1.4301	7.27	1.28	-0.750			
0.5476	35048.24	3.4790	3.4789	-1.4285	7.28	1.29	-0.750			
0.5520	35325.76	3.4760	3.4763	-1.4144	7.29	1.30	-0.750			
0.5562	35594.77	3.4730	3.4730	-1.3944	7.31	1.32	-0.750			
0.5603	35857.04	3.4700	3.4700	-1.3681	7.32	1.33	-0.750			
0.5643	36116.95	3.4670	3.4670	-1.3556	7.33	1.34	-0.750			
0.5683	36371.50	3.4640	3.4640	-1.3505	7.35	1.36	-0.750			
0.5724	36634.77	3.4610	3.4610	-1.3531	7.36	1.37	-0.750			
0.5765	36897.94	3.4580	3.4580	-1.3404	7.37	1.38	-0.750			
0.5805	37154.94	3.4550	3.4549	-1.3282	7.38	1.39	-0.750			
0.5845	37408.30	3.4520	3.4520	-1.3160	7.39	1.40	-0.750			
0.5884	37658.87	3.4490	3.4490	-1.3022	7.41	1.42	-0.750			
0.5923	37904.62	3.4460	3.4459	-1.2920	7.42	1.43	-0.750			
0.5961	38149.92	3.4430	3.4430	-1.2793	7.44	1.45	-0.750			
0.6000	38402.13	3.4400	3.4400	-1.2708	7.45	1.46	-0.750			
0.6038	38646.00	3.4370	3.4370	-1.2566	7.47	1.48	-0.750			
0.6076	38883.76	3.4340	3.4340	-1.2424	7.48	1.49	-0.750			
0.6113	39120.22	3.4310	3.4310	-1.2289	7.50	1.51	-0.750			
0.6149	39353.58	3.4280	3.4279	-1.2105	7.51	1.52	-0.750			
0.6185	39584.90	3.4250	3.4250	-1.1936	7.53	1.54	-0.750			
0.6221	39814.85	3.4220	3.4220	-1.1829	7.54	1.55	-0.750			
0.6257	40042.37	3.4190	3.4190	-1.1600	7.56	1.57	-0.750			
0.6291	40262.10	3.4160	3.4160	-1.1370	7.58	1.59	-0.750			
0.6324	40476.50	3.4130	3.4131	-1.1191	7.59	1.60	-0.750			
0.6358	40691.09	3.4100	3.4099	-1.0953	7.61	1.62	-0.750			
0.6391	40900.45	3.4070	3.4069	-1.0730	7.62	1.63	-0.750			
0.6423	41104.51	3.4040	3.4039	-1.0466	7.64	1.65	-0.750			
0.6454	41303.36	3.4010	3.4011	-1.0185	7.65	1.66	-0.750			
0.6484	41496.69	3.3980	3.3979	-1.0006	7.67	1.68	-0.750			
0.6513	41684.12	3.3950	3.3949	-0.9700	7.68	1.69	-0.750			
0.6542	41867.70	3.3920	3.3920	-0.9423	7.70	1.71	-0.750			
0.6570	42048.45	3.3890	3.3893	-0.9280	7.71	1.72	-0.750			
0.6597	42223.69	3.3860	3.3859	-0.9100	7.73	1.74	-0.750			
0.6625	42397.31	3.3830	3.3829	-0.8871	7.74	1.75	-0.750			
0.6651	42564.76	3.3800	3.3800	-0.8586	7.76	1.77	-0.750			
0.6676	42728.08	3.3770	3.3770	-0.8382	7.77	1.78	-0.750			
0.6701	42886.87	3.3740	3.3741	-0.8151	7.78	1.79	-0.750			
0.6725	43038.22	3.3710	3.3711	-0.7967	7.80	1.81	-0.750			
0.6748	43187.61	3.3680	3.3679	-0.7760	7.81	1.82	-0.750			
0.6771	43333.52	3.3650	3.3651	-0.7574	7.83	1.84	-0.750			
0.6794	43480.51	3.3620	3.3619	-0.7430	7.84	1.85	-0.750			
0.6816	43624.19	3.3590	3.3591	-0.7260	7.86	1.87	-0.750			
0.6838	43760.13	3.3560	3.3560	-0.7060	7.87	1.88	-0.750			
0.6858	43892.88	3.3530	3.3529	-0.6838	7.89	1.90	-0.750			
0.6878	44021.00	3.3500	3.3500	-0.6649	7.90	1.91	-0.750			
0.6898	44145.04	3.3470	3.3471	-0.6498	7.91	1.92	-0.750			
0.6917	44269.69	3.3440	3.3440	-0.6368	7.92	1.93	-0.750			
0.6936	44391.11	3.3410	3.3408	-0.6213	7.94	1.95	-0.750			
0.6955	44509.34	3.3380	3.3379	-0.6061	7.95	1.96	-0.750			
0.6972	44623.58	3.3350	3.3351	-0.5891	7.96	1.97	-0.750			
0.6990	44735.93	3.3320	3.3320	-0.5758	7.97	1.98	-0.750			
0.7007	44843.73	3.3290	3.3290	-0.5587	7.99	2.00	-0.750			
0.7023	44950.06	3.3260	3.3260	-0.5456	8.00	2.01	-0.750			
0.7040	45052.82	3.3230	3.3230	-0.5340	8.01	2.02	-0.750			
0.7055	45153.67	3.3200	3.3200	-0.5229	8.02	2.03	-0.750			
0.7071	45253.21	3.3170	3.3170	-0.5111	8.03	2.04	-0.750			
0.7086	45349.68	3.3140	3.3139	-0.5032	8.05	2.06	-0.750			
0.7101	45445.27	3.3110	3.3111	-0.4923	8.06	2.07	-0.750			
0.7116	45539.58	3.3080	3.3079	-0.4824	8.07	2.08	-0.750			
0.7130	45631.78	3.3050	3.3050	-0.4729	8.09	2.10	-0.750			
0.7144	45721.04	3.3020	3.3021	-0.4629	8.10	2.11	-0.750			
0.7158	45809.18	3.2990	3.2990	-0.4502	8.11	2.12	-0.750			
0.7171	45894.72	3.2960	3.2960	-0.4394	8.12	2.13	-0.750			
0.7184	45977.06	3.2930	3.2930	-0.4243	8.14	2.15	-0.750			
0.7196	46057.39	3.2900	3.2901	-0.4177	8.14	2.15	-0.750			
0.7209	46136.18	3.2870	3.2870	-0.4093	8.15	2.16	-0.750			
0.7221	46213.16	3.2840	3.2839	-0.4048	8.17	2.18	-0.750			
0.7233	46290.17	3.2810	3.2809	-0.3977	8.18	2.19	-0.750			
0.7245	46367.52	3.2780	3.2780	-0.3928	8.19	2.20	-0.750			
0.7257	46441.97	3.2750	3.2752	-0.3873	8.20	2.21	-0.750			
0.7268	46516.43	3.2720	3.2720	-0.3828	8.21	2.22	-0.750			
0.7279	46588.40	3.2690	3.2689	-0.3756	8.22	2.23	-0.750			
0.7291	46659.81	3.2660	3.2660	-0.3671	8.23	2.24	-0.750			
0.7302	46729.67	3.2630	3.2630	-0.3585	8.24	2.25	-0.750			
0.7312	46798.98	3.2600	3.2600	-0.3559	8.25	2.26	-0.750			
0.7323	46866.52	3.2570	3.2571	-0.3473	8.25	2.26	-0.750			
0.7333	46931.83	3.2540	3.2539	-0.3373	8.27	2.28	-0.750			
0.7343	46995.80	3.2510	3.2510	-0.3317	8.28	2.29	-0.750			
0.7353	47058.66	3.2480	3.2481	-0.3255	8.29	2.30	-0.750			
0.7363	47121.09	3.2450	3.2450	-0.3201	8.30	2.31	-0.750			
0.7372	47181.98	3.2420	3.2419	-0.3147	8.31	2.32	-0.750			
0.7381	47240.94	3.2390	3.2391	-0.3083	8.32	2.33	-0.750			
0.7391	47300.05	3.2360	3.2359	-0.3047	8.33	2.34	-0.750			
0.7400	47358.21	3.2330	3.2330	-0.2991	8.34	2.35	-0.750			
0.7409	47414.54	3.2300	3.2300	-0.2939	8.35	2.36	-0.750			
0.7417	47470.53	3.2270	3.2271	-0.2924	8.36	2.37	-0.750			
0.7426	47526.96	3.2240	3.2239	-0.2887	8.37	2.38	-0.750			
0.7435	47581.91	3.2210	3.2211	-0.2850	8.38	2.39	-0.750			
0.7443	47636.44	3.2180	3.2181	-0.2818	8.39	2.40	-0.750			
0.7452	47690.34	3.2150	3.2150	-0.2779	8.40	2.41	-0.750			
0.7460	47743.91	3.2120	3.2119	-0.2742	8.41	2.42	-0.750			
0.7468	47795.68	3.2090	3.2090	-0.2686	8.42	2.43	-0.750			
0.7476	47846.62	3.2060	3.2060	-0.2652	8.43	2.44	-0.750			
0.7484	47897.58	3.2030	3.2030	-0.2604	8.44	2.45	-0.750			
0.7492	47946.42	3.2000	3.2000	-0.2562	8.44	2.45	-0.750			
0.7499	47994.81	3.1970	3.1971	-0.2542	8.45	2.46	-0.750			
0.7507	48043.88	3.1940	3.1941	-0.2515	8.46	2.47	-0.750			
0.7514	48091.95	3.1910	3.1909	-0.2489	8.47	2.48	-0.750			
0.7522	48139.78	3.1880	3.1880	-0.2455	8.48	2.49	-0.750			
0.7529	48186.53	3.1850	3.1852	-0.2421	8.49	2.50	-0.750			
0.7536	48232.81	3.1820	3.1820	-0.2384	8.49	2.50	-0.750			
0.7544	48278.88	3.1790	3.1790	-0.2348	8.50	2.51	-0.750			
0.7550	48322.80	3.1760	3.1759	-0.2316	8.51	2.52	-0.750			
0.7557	48366.56	3.1730	3.1730	-0.2280	8.52	2.53	-0.750			
0.7564	48410.30	3.1700	3.1700	-0.2269	8.53	2.54	-0.750			
0.7571	48453.65	3.1670	3.1670	-0.2247	8.54	2.55	-0.750			
0.7578	48496.35	3.1640	3.1641	-0.2233	8.55	2.56	-0.750			
0.7584	48539.07	3.1610	3.1609	-0.2211	8.56	2.57	-0.750			
0.7591	48581.87	3.1580	3.1579	-0.2189	8.57	2.58	-0.750			
0.7597	48623.71	3.1550	3.1551	-0.2162	8.58	2.59	-0.750			
0.7604	48664.70	3.1520	3.1521	-0.2146	8.58	2.59	-0.750			
0.7610	48705.99	3.1490	3.1490	-0.2126	8.59	2.60	-0.750			
0.7617	48746.40	3.1460	3.1459	-0.2094	8.60	2.61	-0.750			
0.7623	48786.37	3.1430	3.1430	-0.2069	8.61	2.62	-0.750			
0.7629	48825.71	3.1400	3.1400	-0.2047	8.62	2.63	-0.750			
0.7635	48864.75	3.1370	3.1370	-0.2040	8.62	2.63	-0.750			
0.7641	48904.05	3.1340	3.1340	-0.2021	8.63	2.64	-0.750			
0.7647	48942.74	3.1310	3.1309	-0.1995	8.64	2.65	-0.750			
0.7653	48980.51	3.1280	3.1280	-0.1969	8.65	2.66	-0.750			
0.7659	49018.54	3.1250	3.1251	-0.1945	8.66	2.67	-0.750			
0.7665	49055.65	3.1220	3.1220	-0.1926	8.66	2.67	-0.750			
0.7671	49092.14	3.1190	3.1189	-0.1906	8.67	2.68	-0.750			
0.7676	49128.19	3.1160	3.1160	-0.1882	8.68	2.69	-0.750			
0.7682	49163.50	3.1130	3.1129	-0.1874	8.69	2.70	-0.750			
0.7687	49199.77	3.1100	3.1100	-0.1863	8.70	2.71	-0.750			
0.7693	49235.76	3.1070	3.1070	-0.1850	8.71	2.72	-0.750			
0.7699	49271.11	3.1040	3.1040	-0.1833	8.72	2.73	-0.750			
0.7704	49306.54	3.1010	3.1011	-0.1810	8.73	2.74	-0.750			
0.7709	49340.71	3.0980	3.0980	-0.1799	8.73	2.74	-0.750			
0.7715	49375.00	3.0950	3.0950	-0.1779	8.74	2.75	-0.750			
0.7720	49409.04	3.0920	3.0919	-0.1766	8.75	2.76	-0.750			
0.7725	49442.43	3.0890	3.0890	-0.1752	8.76	2.77	-0.750			
0.7731	49476.34	3.0860	3.0861	-0.1741	8.77	2.78	-0.750			
0.7736	49509.82	3.0830	3.0829	-0.1728	8.77	2.78	-0.750			
0.7741	49542.82	3.0800	3.0800	-0.1709	8.78	2.79	-0.750			
0.7746	49575.61	3.0770	3.0770	-0.1692	8.79	2.80	-0.750			
0.7751	49607.57	3.0740	3.0740	-0.1668	8.80	2.81	-0.750			
0.7756	49639.38	3.0710	3.0710	-0.1661	8.80	2.81	-0.750			
0.7761	49671.15	3.0680	3.0680	-0.1649	8.81	2.82	-0.750			
0.7766	49702.35	3.0650	3.0651	-0.1644	8.82	2.83	-0.750			
0.7771	49733.93	3.0620	3.0619	-0.1637	8.83	2.84	-0.750			
0.7776	49765.36	3.0590	3.0590	-0.1630	8.83	2.84	-0.750			
0.7781	49796.59	3.0560	3.0560	-0.1624	8.84	2.85	-0.750			
0.7786	49827.85	3.0530	3.0531	-0.1616	8.85	2.86	-0.750			
0.7790	49858.89	3.0500	3.0500	-0.1612	8.85	2.86	-0.750			
0.7795	49889.54	3.0470	3.0470	-0.1600	8.86	2.87	-0.750			
0.7800	49920.20	3.0440	3.0440	-0.1594	8.87	2.88	-0.750			
0.7805	49950.78	3.0410	3.0409	-0.1578	8.87	2.88	-0.750			
0.7810	49981.20	3.0380	3.0380	-0.1569	8.88	2.89	-0.750			
0.7814	50011.25	3.0350	3.0350	-0.1556	8.88	2.89	-0.750			
0.7819	50040.96	3.0320	3.0320	-0.1539	8.89	2.90	-0.750			
0.7823	50070.21	3.0290	3.0290	-0.1534	8.90	2.91	-0.750			
0.7828	50099.33	3.0260	3.0260	-0.1522	8.90	2.91	-0.750			
0.7833	50128.58	3.0230	3.0230	-0.1512	8.91	2.92	-0.750			
0.7837	50157.54	3.0200	3.0199	-0.1505	8.92	2.93	-0.750			
0.7842	50186.54	3.0170	3.0171	-0.1502	8.92	2.93	-0.750			
0.7846	50215.20	3.0140	3.0140	-0.1496	8.93	2.94	-0.750			
0.7851	50243.88	3.0110	3.0109	-0.1491	8.93	2.94	-0.750			
0.7855	50272.44	3.0080	3.0079	-0.1484	8.94	2.95	-0.750			
0.7859	50300.61	3.0050	3.0050	-0.1491	8.95	2.96	-0.750			
0.7864	50329.32	3.0020	3.0020	-0.1508	8.95	2.96	-0.750			
