Ah_balance (normalized)	Ah_balance (mAh)	Voltage - fit (V)	Voltage -  interpolate (V)	dQ/dV (1/V)	Temperature (°C)	Temperature - diff (°C)	Current (C)	R_DC 0ms (mOhm)	R_DC 50ms (mOhm)	R_DC 50 ms PEC (mOhm)
0.0964	6169.07	4.1990	4.1990	0.7383	7.83	1.86	0.750			
0.0985	6303.85	4.1960	4.1960	0.6924	7.83	1.86	0.750			
0.1006	6435.93	4.1930	4.1931	0.6914	7.83	1.86	0.750			
0.1026	6568.58	4.1900	4.1901	0.6951	7.82	1.85	0.750			
0.1047	6701.90	4.1870	4.1869	0.6968	7.82	1.85	0.750			
0.1068	6836.41	4.1840	4.1840	0.7001	7.82	1.85	0.750			
0.1089	6972.48	4.1810	4.1810	0.7026	7.81	1.84	0.750			
0.1111	7108.08	4.1780	4.1780	0.7027	7.81	1.84	0.750			
0.1132	7242.16	4.1750	4.1751	0.7014	7.81	1.84	0.750			
0.1153	7377.00	4.1720	4.1720	0.7028	7.80	1.83	0.750			
0.1174	7511.26	4.1690	4.1690	0.7068	7.80	1.83	0.750			
0.1195	7647.76	4.1660	4.1660	0.7094	7.79	1.82	0.750			
0.1216	7784.55	4.1630	4.1630	0.7106	7.79	1.82	0.750			
0.1238	7921.71	4.1600	4.1600	0.7174	7.78	1.81	0.750			
0.1259	8059.30	4.1570	4.1571	0.7210	7.78	1.81	0.750			
0.1281	8197.79	4.1540	4.1539	0.7240	7.77	1.80	0.750			
0.1303	8337.82	4.1510	4.1510	0.7264	7.77	1.80	0.750			
0.1325	8477.27	4.1480	4.1481	0.7281	7.77	1.80	0.750			
0.1346	8617.43	4.1450	4.1450	0.7344	7.77	1.80	0.750			
0.1369	8760.32	4.1420	4.1419	0.7356	7.76	1.79	0.750			
0.1391	8900.46	4.1390	4.1390	0.7327	7.76	1.79	0.750			
0.1413	9041.64	4.1360	4.1359	0.7380	7.76	1.79	0.750			
0.1435	9184.34	4.1330	4.1331	0.7403	7.75	1.78	0.750			
0.1457	9327.38	4.1300	4.1299	0.7391	7.75	1.78	0.750			
0.1479	9468.56	4.1270	4.1271	0.7396	7.74	1.77	0.750			
0.1501	9608.71	4.1240	4.1240	0.7384	7.73	1.76	0.750			
0.1524	9752.05	4.1210	4.1210	0.7477	7.73	1.76	0.750			
0.1546	9895.33	4.1180	4.1180	0.7528	7.72	1.75	0.750			
0.1569	10039.91	4.1150	4.1150	0.7572	7.72	1.75	0.750			
0.1592	10187.97	4.1120	4.1120	0.7618	7.72	1.75	0.750			
0.1615	10334.63	4.1090	4.1090	0.7671	7.71	1.74	0.750			
0.1638	10482.38	4.1060	4.1060	0.7676	7.71	1.74	0.750			
0.1661	10629.88	4.1030	4.1029	0.7703	7.71	1.74	0.750			
0.1684	10777.50	4.1000	4.1000	0.7709	7.70	1.73	0.750			
0.1707	10926.59	4.0970	4.0970	0.7706	7.70	1.73	0.750			
0.1730	11074.44	4.0940	4.0940	0.7787	7.69	1.72	0.750			
0.1754	11224.63	4.0910	4.0910	0.7807	7.68	1.71	0.750			
0.1777	11373.16	4.0880	4.0880	0.7852	7.67	1.70	0.750			
0.1801	11525.33	4.0850	4.0851	0.7927	7.67	1.70	0.750			
0.1825	11679.11	4.0820	4.0820	0.7923	7.67	1.70	0.750			
0.1849	11831.40	4.0790	4.0791	0.7971	7.67	1.70	0.750			
0.1873	11985.53	4.0760	4.0760	0.8008	7.67	1.70	0.750			
0.1897	12138.12	4.0730	4.0730	0.7993	7.67	1.70	0.750			
0.1921	12292.08	4.0700	4.0700	0.8047	7.67	1.70	0.750			
0.1945	12447.38	4.0670	4.0670	0.8024	7.66	1.69	0.750			
0.1969	12601.64	4.0640	4.0640	0.8121	7.65	1.68	0.750			
0.1993	12757.85	4.0610	4.0609	0.8196	7.64	1.67	0.750			
0.2018	12915.69	4.0580	4.0581	0.8181	7.64	1.67	0.750			
0.2043	13073.51	4.0550	4.0548	0.8230	7.63	1.66	0.750			
0.2067	13231.80	4.0520	4.0520	0.8273	7.62	1.65	0.750			
0.2092	13390.64	4.0490	4.0491	0.8272	7.62	1.65	0.750			
0.2117	13550.03	4.0460	4.0459	0.8304	7.61	1.64	0.750			
0.2142	13708.04	4.0430	4.0431	0.8304	7.61	1.64	0.750			
0.2167	13868.37	4.0400	4.0398	0.8370	7.60	1.63	0.750			
0.2192	14031.82	4.0370	4.0370	0.8427	7.59	1.62	0.750			
0.2218	14193.67	4.0340	4.0341	0.8463	7.59	1.62	0.750			
0.2243	14356.96	4.0310	4.0310	0.8480	7.58	1.61	0.750			
0.2268	14518.23	4.0280	4.0281	0.8505	7.58	1.61	0.750			
0.2294	14682.32	4.0250	4.0249	0.8573	7.57	1.60	0.750			
0.2320	14848.21	4.0220	4.0220	0.8564	7.56	1.59	0.750			
0.2346	15013.44	4.0190	4.0190	0.8653	7.55	1.58	0.750			
0.2372	15180.24	4.0160	4.0161	0.8703	7.54	1.57	0.750			
0.2398	15348.24	4.0130	4.0130	0.8757	7.54	1.57	0.750			
0.2424	15516.43	4.0100	4.0101	0.8792	7.53	1.56	0.750			
0.2451	15686.72	4.0070	4.0070	0.8706	7.52	1.55	0.750			
0.2477	15852.61	4.0040	4.0041	0.8811	7.51	1.54	0.750			
0.2503	16021.21	4.0010	4.0011	0.8916	7.51	1.54	0.750			
0.2530	16191.39	3.9980	3.9979	0.8981	7.50	1.53	0.750			
0.2557	16366.62	3.9950	3.9949	0.9003	7.49	1.52	0.750			
0.2584	16540.37	3.9920	3.9922	0.9078	7.48	1.51	0.750			
0.2612	16716.18	3.9890	3.9891	0.9145	7.47	1.50	0.750			
0.2640	16895.95	3.9860	3.9860	0.9218	7.46	1.49	0.750			
0.2667	17067.04	3.9830	3.9829	0.9155	7.45	1.48	0.750			
0.2694	17244.65	3.9800	3.9800	0.9209	7.44	1.47	0.750			
0.2722	17422.92	3.9770	3.9770	0.9291	7.44	1.47	0.750			
0.2750	17602.92	3.9740	3.9741	0.9355	7.43	1.46	0.750			
0.2778	17782.10	3.9710	3.9710	0.9378	7.42	1.45	0.750			
0.2807	17963.98	3.9680	3.9680	0.9374	7.42	1.45	0.750			
0.2835	18143.63	3.9650	3.9650	0.9411	7.41	1.44	0.750			
0.2863	18323.47	3.9620	3.9620	0.9459	7.40	1.43	0.750			
0.2891	18505.51	3.9590	3.9591	0.9560	7.40	1.43	0.750			
0.2920	18689.03	3.9560	3.9559	0.9596	7.39	1.42	0.750			
0.2949	18872.84	3.9530	3.9530	0.9676	7.38	1.41	0.750			
0.2978	19059.51	3.9500	3.9501	0.9767	7.37	1.40	0.750			
0.3008	19250.01	3.9470	3.9470	0.9834	7.36	1.39	0.750			
0.3037	19439.53	3.9440	3.9438	0.9866	7.35	1.38	0.750			
0.3067	19628.78	3.9410	3.9412	0.9900	7.34	1.37	0.750			
0.3097	19818.75	3.9380	3.9380	0.9983	7.33	1.36	0.750			
0.3127	20011.47	3.9350	3.9350	1.0085	7.32	1.35	0.750			
0.3157	20203.88	3.9320	3.9319	1.0110	7.30	1.33	0.750			
0.3188	20400.32	3.9290	3.9290	1.0210	7.29	1.32	0.750			
0.3218	20598.09	3.9260	3.9261	1.0287	7.28	1.31	0.750			
0.3249	20796.08	3.9230	3.9230	1.0377	7.27	1.30	0.750			
0.3281	20995.96	3.9200	3.9199	1.0455	7.26	1.29	0.750			
0.3312	21197.80	3.9170	3.9170	1.0390	7.25	1.28	0.750			
0.3343	21395.04	3.9140	3.9141	1.0633	7.25	1.28	0.750			
0.3375	21600.97	3.9110	3.9111	1.0790	7.24	1.27	0.750			
0.3408	21809.53	3.9080	3.9077	1.0931	7.23	1.26	0.750			
0.3441	22021.68	3.9050	3.9051	1.0976	7.22	1.25	0.750			
0.3474	22232.96	3.9020	3.9022	1.1047	7.21	1.24	0.750			
0.3507	22446.24	3.8990	3.8991	1.1183	7.20	1.23	0.750			
0.3541	22661.06	3.8960	3.8959	1.1171	7.19	1.22	0.750			
0.3574	22876.69	3.8930	3.8930	1.1357	7.17	1.20	0.750			
0.3609	23096.55	3.8900	3.8900	1.1479	7.16	1.19	0.750			
0.3644	23321.89	3.8870	3.8871	1.1576	7.14	1.17	0.750			
0.3679	23542.56	3.8840	3.8841	1.1832	7.13	1.16	0.750			
0.3714	23771.16	3.8810	3.8810	1.2012	7.12	1.15	0.750			
0.3750	24000.87	3.8780	3.8780	1.2205	7.11	1.14	0.750	0.415	0.802	
0.3788	24241.35	3.8750	3.8750	1.2413	7.10	1.13	0.750			
0.3825	24479.82	3.8720	3.8721	1.2560	7.09	1.12	0.750			
0.3864	24726.40	3.8690	3.8690	1.2804	7.07	1.10	0.750			
0.3902	24974.49	3.8660	3.8659	1.2850	7.05	1.08	0.750			
0.3940	25218.00	3.8630	3.8630	1.2896	7.04	1.07	0.750			
0.3979	25467.29	3.8600	3.8601	1.3059	7.03	1.06	0.750			
0.4019	25720.57	3.8570	3.8570	1.3094	7.02	1.05	0.750			
0.4058	25972.97	3.8540	3.8540	1.3317	7.00	1.03	0.750			
0.4098	26225.11	3.8510	3.8511	1.3488	6.99	1.02	0.750			
0.4139	26489.91	3.8480	3.8481	1.3582	6.97	1.00	0.750			
0.4180	26753.19	3.8450	3.8450	1.3826	6.95	0.98	0.750			
0.4222	27017.74	3.8420	3.8421	1.4032	6.94	0.97	0.750			
0.4264	27291.03	3.8390	3.8391	1.4140	6.92	0.95	0.750			
0.4307	27563.55	3.8360	3.8360	1.4376	6.90	0.93	0.750			
0.4350	27840.43	3.8330	3.8331	1.4468	6.89	0.92	0.750			
0.4394	28120.98	3.8300	3.8300	1.4568	6.87	0.90	0.750			
0.4438	28405.86	3.8270	3.8270	1.4684	6.85	0.88	0.750			
0.4482	28686.19	3.8240	3.8242	1.4759	6.82	0.85	0.750			
0.4527	28971.23	3.8210	3.8209	1.4822	6.80	0.83	0.750			
0.4571	29254.45	3.8180	3.8181	1.4973	6.78	0.81	0.750			
0.4616	29543.81	3.8150	3.8149	1.5170	6.76	0.79	0.750			
0.4662	29837.99	3.8120	3.8118	1.5411	6.74	0.77	0.750			
0.4709	30135.68	3.8090	3.8089	1.5539	6.73	0.76	0.750			
0.4756	30436.77	3.8060	3.8061	1.5711	6.71	0.74	0.750			
0.4803	30739.12	3.8030	3.8030	1.5865	6.69	0.72	0.750			
0.4851	31043.63	3.8000	3.7999	1.6069	6.67	0.70	0.750			
0.4898	31347.48	3.7970	3.7971	1.6310	6.65	0.68	0.750			
0.4948	31665.58	3.7940	3.7939	1.6671	6.63	0.66	0.750			
0.4999	31993.43	3.7910	3.7909	1.6893	6.61	0.64	0.750			
0.5050	32319.92	3.7880	3.7879	1.7225	6.59	0.62	0.750			
0.5102	32652.54	3.7850	3.7849	1.7796	6.57	0.60	0.750			
0.5156	32997.78	3.7820	3.7818	1.8122	6.54	0.57	0.750			
0.5211	33350.47	3.7790	3.7789	1.8708	6.53	0.56	0.750			
0.5267	33711.57	3.7760	3.7762	1.9021	6.52	0.55	0.750			
0.5326	34084.15	3.7730	3.7731	1.9729	6.51	0.54	0.750			
0.5386	34470.97	3.7700	3.7701	2.0416	6.49	0.52	0.750			
0.5447	34859.31	3.7670	3.7669	2.1222	6.46	0.49	0.750			
0.5512	35276.88	3.7640	3.7639	2.2247	6.43	0.46	0.750			
0.5580	35713.67	3.7610	3.7611	2.3173	6.40	0.43	0.750			
0.5651	36167.74	3.7580	3.7580	2.4362	6.37	0.40	0.750			
0.5727	36655.94	3.7550	3.7549	2.5446	6.34	0.37	0.750			
0.5806	37157.63	3.7520	3.7521	2.6204	6.31	0.34	0.750			
0.5885	37662.44	3.7490	3.7490	2.7312	6.29	0.32	0.750			
0.5968	38194.35	3.7460	3.7460	2.7857	6.26	0.29	0.750			
0.6054	38747.78	3.7430	3.7431	2.8802	6.24	0.27	0.750			
0.6143	39313.39	3.7400	3.7398	2.8773	6.22	0.25	0.750			
0.6230	39868.91	3.7370	3.7371	2.7230	6.19	0.22	0.750			
0.6311	40389.89	3.7340	3.7340	2.5575	6.16	0.19	0.750			
0.6382	40843.86	3.7310	3.7311	2.2539	6.15	0.18	0.750			
0.6444	41243.21	3.7280	3.7280	1.9996	6.14	0.17	0.750			
0.6500	41597.54	3.7250	3.7251	1.7805	6.13	0.16	0.750			
0.6549	41911.30	3.7220	3.7221	1.5997	6.13	0.16	0.750			
0.6593	42196.71	3.7190	3.7186	1.4595	6.12	0.15	0.750			
0.6633	42451.56	3.7160	3.7163	1.3539	6.11	0.14	0.750			
0.6672	42701.27	3.7130	3.7129	1.2703	6.10	0.13	0.750			
0.6709	42934.65	3.7100	3.7100	1.2207	6.09	0.12	0.750			
0.6743	43155.62	3.7070	3.7071	1.1725	6.08	0.11	0.750			
0.6779	43383.17	3.7040	3.7040	1.1561	6.07	0.10	0.750			
0.6813	43602.63	3.7010	3.7010	1.1245	6.06	0.09	0.750			
0.6846	43815.24	3.6980	3.6981	1.1008	6.05	0.08	0.750			
0.6879	44023.58	3.6950	3.6951	1.0839	6.04	0.07	0.750			
0.6911	44232.00	3.6920	3.6918	1.0675	6.03	0.06	0.750			
0.6942	44431.82	3.6890	3.6889	1.0334	6.03	0.06	0.750			
0.6973	44627.40	3.6860	3.6860	1.0175	6.02	0.05	0.750			
0.7003	44821.48	3.6830	3.6832	1.0072	6.02	0.05	0.750			
0.7033	45012.01	3.6800	3.6799	0.9891	6.01	0.04	0.750			
0.7063	45201.24	3.6770	3.6770	0.9701	6.01	0.04	0.750			
0.7091	45385.27	3.6740	3.6740	0.9595	6.01	0.04	0.750			
0.7120	45569.64	3.6710	3.6710	0.9541	6.00	0.03	0.750			
0.7149	45751.44	3.6680	3.6681	0.9389	6.00	0.03	0.750			
0.7176	45928.71	3.6650	3.6650	0.9347	6.00	0.03	0.750			
0.7204	46105.48	3.6620	3.6621	0.9317	5.99	0.02	0.750			
0.7232	46284.70	3.6590	3.6590	0.9404	5.98	0.01	0.750			
0.7260	46466.60	3.6560	3.6560	0.9471	5.98	0.01	0.750			
0.7289	46648.10	3.6530	3.6529	0.9475	5.97	0.00	0.750			
0.7318	46833.67	3.6500	3.6500	0.9430	5.97	0.00	0.750			
0.7346	47016.60	3.6470	3.6470	0.9349	5.97	0.00	0.750			
0.7375	47201.36	3.6440	3.6440	0.8996	5.97	0.00	0.750			
0.7402	47375.48	3.6410	3.6410	0.8514	5.97	0.00	0.750			
0.7428	47538.87	3.6380	3.6381	0.7715	5.97	0.00	0.750			
0.7451	47685.35	3.6350	3.6351	0.6857	5.97	0.00	0.750			
0.7470	47808.25	3.6320	3.6320	0.5798	5.97	0.00	0.750			
0.7486	47909.60	3.6290	3.6290	0.4792	5.97	0.00	0.750			
0.7496	47973.20	3.6260	3.6264	0.3932	5.97	0.00	0.750			
0.7506	48040.82	3.6230	3.6232	0.3243	5.97	0.00	0.750			
0.7514	48089.21	3.6200	3.6200	0.2434	5.97	0.00	0.750			
0.7520	48127.82	3.6170	3.6161	0.1907	5.97	0.00	0.750			
0.7524	48152.90	3.6140	3.6108	0.1370	5.97	0.00	0.750			
0.7526	48165.26	3.5930	3.5848	-0.1002	5.97	0.00	0.750			
0.7526	48169.22	3.6110	3.5374	0.0934	5.97	0.00	0.740			
0.7528	48181.41	3.5960	3.3799	-0.0680	5.97	0.00	0.701			
0.7529	48184.05	3.6080	3.3458	0.0611	5.97	0.00	0.693			
0.7530	48191.36	3.5990	3.2513	-0.0357	5.97	0.00	0.670			
0.7530	48192.68	3.6050	3.2342	0.0288	5.97	0.00	0.665			
0.7530	48195.12	3.6020	3.2027	-0.0034	5.97	0.00	0.658			
