Ah_balance (normalized)	Ah_balance (mAh)	Voltage - fit (V)	Voltage -  interpolate (V)	dQ/dV (1/V)	Temperature (°C)	Temperature - diff (°C)	Current (C)	R_DC 0ms (mOhm)	R_DC 50ms (mOhm)	R_DC 50 ms PEC (mOhm)
0.0982	6283.73	4.1990	4.1966	0.6024	8.06	2.07	0.750			
0.0999	6395.31	4.1960	4.1987	0.5934	8.05	2.06	0.750	0.364	0.791	
0.1019	6523.53	4.1930	4.1958	0.7090	8.05	2.06	0.750			
0.1043	6674.18	4.1900	4.1923	0.7854	8.04	2.05	0.750			
0.1066	6824.82	4.1870	4.1888	0.7638	8.04	2.05	0.750			
0.1093	6993.81	4.1840	4.1848	0.8059	8.03	2.04	0.750			
0.1121	7175.11	4.1810	4.1811	0.8071	8.02	2.03	0.750			
0.1143	7316.49	4.1780	4.1781	0.7036	8.02	2.03	0.750			
0.1164	7452.10	4.1750	4.1749	0.7054	8.01	2.02	0.750			
0.1185	7583.76	4.1720	4.1720	0.6987	8.01	2.02	0.750			
0.1206	7716.20	4.1690	4.1690	0.7005	8.00	2.01	0.750			
0.1227	7850.78	4.1660	4.1661	0.7031	8.00	2.01	0.750			
0.1248	7987.24	4.1630	4.1629	0.7091	7.99	2.00	0.750			
0.1269	8123.93	4.1600	4.1601	0.7081	7.99	2.00	0.750			
0.1291	8261.76	4.1570	4.1570	0.7122	7.98	1.99	0.750			
0.1312	8396.67	4.1540	4.1541	0.7154	7.98	1.99	0.750			
0.1333	8533.27	4.1510	4.1510	0.7249	7.97	1.98	0.750			
0.1355	8670.71	4.1480	4.1480	0.7306	7.96	1.97	0.750			
0.1377	8814.91	4.1450	4.1449	0.7357	7.96	1.97	0.750			
0.1400	8958.72	4.1420	4.1420	0.7418	7.95	1.96	0.750			
0.1422	9102.94	4.1390	4.1391	0.7440	7.94	1.95	0.750			
0.1445	9245.66	4.1360	4.1360	0.7385	7.94	1.95	0.750			
0.1466	9385.04	4.1330	4.1329	0.7335	7.93	1.94	0.750			
0.1488	9525.26	4.1300	4.1300	0.7346	7.92	1.93	0.750			
0.1510	9665.19	4.1270	4.1270	0.7361	7.92	1.93	0.750			
0.1532	9807.46	4.1240	4.1239	0.7419	7.91	1.92	0.750			
0.1555	9951.15	4.1210	4.1211	0.7440	7.91	1.92	0.750			
0.1577	10093.14	4.1180	4.1180	0.7482	7.90	1.91	0.750			
0.1599	10236.55	4.1150	4.1150	0.7581	7.90	1.91	0.750			
0.1622	10381.71	4.1120	4.1121	0.7623	7.89	1.90	0.750			
0.1645	10529.14	4.1090	4.1090	0.7725	7.88	1.89	0.750			
0.1669	10679.48	4.1060	4.1060	0.7800	7.87	1.88	0.750			
0.1693	10832.38	4.1030	4.1030	0.7766	7.87	1.88	0.750			
0.1716	10983.37	4.1000	4.1000	0.7779	7.86	1.87	0.750			
0.1739	11130.78	4.0970	4.0971	0.7699	7.86	1.87	0.750			
0.1762	11276.63	4.0940	4.0940	0.7609	7.85	1.86	0.750			
0.1784	11420.13	4.0910	4.0910	0.7730	7.85	1.86	0.750			
0.1808	11568.21	4.0880	4.0878	0.7817	7.85	1.86	0.750			
0.1831	11718.82	4.0850	4.0849	0.7903	7.84	1.85	0.750			
0.1855	11873.35	4.0820	4.0820	0.7993	7.84	1.85	0.750			
0.1880	12030.92	4.0790	4.0791	0.7989	7.83	1.84	0.750			
0.1904	12186.05	4.0760	4.0760	0.8006	7.82	1.83	0.750			
0.1928	12337.27	4.0730	4.0730	0.8064	7.82	1.83	0.750			
0.1951	12489.55	4.0700	4.0701	0.8001	7.81	1.82	0.750			
0.1976	12644.30	4.0670	4.0670	0.8072	7.81	1.82	0.750			
0.2000	12801.04	4.0640	4.0641	0.8114	7.80	1.81	0.750			
0.2025	12957.93	4.0610	4.0611	0.8134	7.80	1.81	0.750			
0.2049	13116.17	4.0580	4.0579	0.8214	7.79	1.80	0.750			
0.2074	13270.90	4.0550	4.0551	0.8219	7.78	1.79	0.750			
0.2098	13427.71	4.0520	4.0521	0.8231	7.78	1.79	0.750			
0.2123	13590.02	4.0490	4.0489	0.8289	7.77	1.78	0.750			
0.2148	13747.87	4.0460	4.0461	0.8355	7.77	1.78	0.750			
0.2174	13910.51	4.0430	4.0430	0.8382	7.76	1.77	0.750			
0.2198	14070.39	4.0400	4.0401	0.8401	7.75	1.76	0.750			
0.2224	14230.72	4.0370	4.0372	0.8439	7.75	1.76	0.750			
0.2249	14394.30	4.0340	4.0339	0.8464	7.74	1.75	0.750			
0.2275	14557.43	4.0310	4.0310	0.8545	7.73	1.74	0.750			
0.2300	14721.52	4.0280	4.0281	0.8617	7.72	1.73	0.750			
0.2326	14889.59	4.0250	4.0250	0.8609	7.71	1.72	0.750			
0.2352	15055.56	4.0220	4.0220	0.8636	7.71	1.72	0.750			
0.2378	15219.85	4.0190	4.0191	0.8579	7.70	1.71	0.750			
0.2404	15384.18	4.0160	4.0160	0.8578	7.69	1.70	0.750			
0.2429	15548.43	4.0130	4.0129	0.8647	7.69	1.70	0.750			
0.2455	15711.57	4.0100	4.0101	0.8675	7.68	1.69	0.750			
0.2481	15879.07	4.0070	4.0070	0.8771	7.67	1.68	0.750			
0.2508	16051.21	4.0040	4.0040	0.8867	7.67	1.68	0.750			
0.2535	16221.08	4.0010	4.0009	0.8896	7.66	1.67	0.750			
0.2561	16392.94	3.9980	3.9981	0.8985	7.65	1.66	0.750			
0.2588	16565.88	3.9950	3.9949	0.9025	7.64	1.65	0.750			
0.2616	16739.54	3.9920	3.9920	0.8975	7.64	1.65	0.750			
0.2643	16912.44	3.9890	3.9890	0.9018	7.63	1.64	0.750			
0.2670	17085.45	3.9860	3.9861	0.9061	7.63	1.64	0.750			
0.2697	17259.42	3.9830	3.9830	0.9032	7.62	1.63	0.750			
0.2724	17431.66	3.9800	3.9800	0.9097	7.62	1.63	0.750			
0.2751	17606.14	3.9770	3.9770	0.9119	7.61	1.62	0.750			
0.2778	17780.59	3.9740	3.9740	0.9217	7.59	1.60	0.750			
0.2806	17958.07	3.9710	3.9710	0.9371	7.58	1.59	0.750			
0.2834	18139.87	3.9680	3.9679	0.9394	7.57	1.58	0.750			
0.2863	18323.71	3.9650	3.9649	0.9416	7.57	1.58	0.750			
0.2891	18504.91	3.9620	3.9621	0.9526	7.56	1.57	0.750			
0.2920	18685.45	3.9590	3.9592	0.9626	7.56	1.57	0.750			
0.2949	18871.21	3.9560	3.9559	0.9703	7.55	1.56	0.750			
0.2978	19059.29	3.9530	3.9530	0.9747	7.55	1.56	0.750			
0.3007	19246.27	3.9500	3.9501	0.9818	7.54	1.55	0.750			
0.3037	19438.99	3.9470	3.9471	0.9913	7.53	1.54	0.750			
0.3068	19632.35	3.9440	3.9439	0.9935	7.52	1.53	0.750			
0.3096	19817.39	3.9410	3.9410	0.9926	7.51	1.52	0.750			
0.3126	20007.71	3.9380	3.9380	1.0072	7.50	1.51	0.750			
0.3157	20202.17	3.9350	3.9350	1.0224	7.49	1.50	0.750			
0.3188	20400.94	3.9320	3.9319	1.0361	7.49	1.50	0.750			
0.3219	20601.60	3.9290	3.9290	1.0435	7.48	1.49	0.750			
0.3251	20804.12	3.9260	3.9260	1.0535	7.47	1.48	0.750			
0.3283	21008.11	3.9230	3.9230	1.0605	7.45	1.46	0.750			
0.3314	21209.94	3.9200	3.9199	1.0689	7.44	1.45	0.750			
0.3346	21417.40	3.9170	3.9171	1.0642	7.43	1.44	0.750			
0.3378	21621.61	3.9140	3.9139	1.0712	7.42	1.43	0.750			
0.3411	21827.68	3.9110	3.9111	1.0815	7.41	1.42	0.750			
0.3443	22034.69	3.9080	3.9081	1.0970	7.41	1.42	0.750			
0.3476	22245.47	3.9050	3.9049	1.1045	7.40	1.41	0.750			
0.3509	22457.54	3.9020	3.9020	1.1271	7.38	1.39	0.750			
0.3543	22674.91	3.8990	3.8991	1.1390	7.37	1.38	0.750			
0.3578	22899.40	3.8960	3.8959	1.1597	7.35	1.36	0.750			
0.3613	23123.95	3.8930	3.8931	1.1720	7.34	1.35	0.750			
0.3649	23352.74	3.8900	3.8900	1.1718	7.33	1.34	0.750			
0.3684	23575.30	3.8870	3.8871	1.1956	7.32	1.33	0.750			
0.3719	23801.52	3.8840	3.8840	1.2188	7.31	1.32	0.750			
0.3756	24038.45	3.8810	3.8810	1.2355	7.29	1.30	0.750			
0.3794	24281.66	3.8780	3.8781	1.2569	7.28	1.29	0.750	0.385	0.813	
0.3832	24526.02	3.8750	3.8751	1.2590	7.26	1.27	0.750			
0.3871	24772.17	3.8720	3.8723	1.2862	7.25	1.26	0.750			
0.3910	25020.86	3.8690	3.8689	1.2981	7.24	1.25	0.750			
0.3948	25266.37	3.8660	3.8659	1.2884	7.23	1.24	0.750			
0.3987	25514.45	3.8630	3.8632	1.3142	7.21	1.22	0.750			
0.4026	25769.58	3.8600	3.8601	1.3458	7.19	1.20	0.750			
0.4067	26030.28	3.8570	3.8570	1.3609	7.18	1.19	0.750			
0.4108	26293.99	3.8540	3.8541	1.3939	7.16	1.17	0.750			
0.4150	26559.31	3.8510	3.8511	1.4164	7.14	1.15	0.750			
0.4194	26838.60	3.8480	3.8480	1.4407	7.12	1.13	0.750			
0.4237	27117.68	3.8450	3.8451	1.4667	7.10	1.11	0.750			
0.4282	27401.71	3.8420	3.8419	1.4743	7.09	1.10	0.750			
0.4326	27683.37	3.8390	3.8391	1.5111	7.07	1.08	0.750			
0.4371	27976.78	3.8360	3.8359	1.5357	7.05	1.06	0.750			
0.4418	28274.56	3.8330	3.8330	1.5514	7.03	1.04	0.750			
0.4465	28576.84	3.8300	3.8299	1.5508	7.00	1.01	0.750			
0.4512	28875.80	3.8270	3.8271	1.5730	6.98	0.99	0.750			
0.4559	29177.18	3.8240	3.8239	1.5852	6.96	0.97	0.750			
0.4606	29479.04	3.8210	3.8210	1.6102	6.94	0.95	0.750			
0.4654	29784.10	3.8180	3.8181	1.6179	6.92	0.93	0.750			
0.4704	30103.98	3.8150	3.8150	1.6481	6.89	0.90	0.750			
0.4754	30426.41	3.8120	3.8121	1.6524	6.87	0.88	0.750			
0.4804	30744.52	3.8090	3.8090	1.6678	6.85	0.86	0.750			
0.4853	31059.58	3.8060	3.8060	1.6788	6.83	0.84	0.750			
0.4904	31384.41	3.8030	3.8027	1.6950	6.81	0.82	0.750			
0.4954	31706.26	3.8000	3.7999	1.7016	6.79	0.80	0.750			
0.5006	32036.61	3.7970	3.7972	1.7407	6.77	0.78	0.750			
0.5059	32377.61	3.7940	3.7938	1.7584	6.74	0.75	0.750			
0.5112	32717.61	3.7910	3.7909	1.7762	6.72	0.73	0.750			
0.5165	33055.57	3.7880	3.7882	1.7946	6.70	0.71	0.750			
0.5219	33400.98	3.7850	3.7852	1.8489	6.68	0.69	0.750			
0.5275	33758.67	3.7820	3.7818	1.8975	6.66	0.67	0.750			
0.5332	34124.41	3.7790	3.7790	1.9449	6.63	0.64	0.750			
0.5392	34508.76	3.7760	3.7761	2.0119	6.61	0.62	0.750			
0.5453	34902.04	3.7730	3.7730	2.0772	6.58	0.59	0.750			
0.5516	35300.52	3.7700	3.7700	2.1384	6.56	0.57	0.750			
0.5580	35713.33	3.7670	3.7670	2.2051	6.53	0.54	0.750			
0.5648	36149.65	3.7640	3.7640	2.2704	6.50	0.51	0.750			
0.5718	36592.37	3.7610	3.7611	2.3608	6.47	0.48	0.750			
0.5789	37050.38	3.7580	3.7580	2.5035	6.44	0.45	0.750			
0.5866	37540.01	3.7550	3.7550	2.6865	6.41	0.42	0.750			
0.5950	38079.12	3.7520	3.7520	2.8543	6.38	0.39	0.750			
0.6040	38653.39	3.7490	3.7489	2.9382	6.35	0.36	0.750			
0.6129	39223.59	3.7460	3.7461	2.9126	6.32	0.33	0.750			
0.6215	39773.88	3.7430	3.7431	3.0221	6.28	0.29	0.750			
0.6308	40368.32	3.7400	3.7398	3.0292	6.25	0.26	0.750			
0.6403	40979.27	3.7370	3.7371	2.8834	6.22	0.23	0.750			
0.6486	41513.20	3.7340	3.7340	2.5662	6.20	0.21	0.750			
0.6553	41938.83	3.7310	3.7313	2.1642	6.18	0.19	0.750			
0.6612	42316.29	3.7280	3.7279	1.8719	6.16	0.17	0.750			
0.6663	42640.74	3.7250	3.7248	1.6505	6.15	0.16	0.750			
0.6709	42937.33	3.7220	3.7219	1.4737	6.13	0.14	0.750			
0.6750	43198.62	3.7190	3.7191	1.3565	6.12	0.13	0.750			
0.6786	43430.51	3.7160	3.7160	1.2519	6.12	0.13	0.750			
0.6821	43655.87	3.7130	3.7131	1.1791	6.11	0.12	0.750			
0.6856	43880.77	3.7100	3.7101	1.1485	6.10	0.11	0.750			
0.6890	44093.43	3.7070	3.7070	1.1219	6.09	0.10	0.750			
0.6923	44308.47	3.7040	3.7040	1.1044	6.08	0.09	0.750			
0.6956	44519.64	3.7010	3.7008	1.0837	6.07	0.08	0.750			
0.6988	44725.62	3.6980	3.6981	1.0519	6.06	0.07	0.750			
0.7019	44924.09	3.6950	3.6950	1.0267	6.06	0.07	0.750			
0.7050	45118.90	3.6920	3.6920	1.0028	6.05	0.06	0.750			
0.7079	45308.49	3.6890	3.6889	0.9773	6.04	0.05	0.750			
0.7108	45492.71	3.6860	3.6860	0.9476	6.04	0.05	0.750			
0.7136	45673.45	3.6830	3.6831	0.9238	6.03	0.04	0.750			
0.7164	45848.80	3.6800	3.6800	0.8987	6.02	0.03	0.750			
0.7190	46017.48	3.6770	3.6771	0.8887	6.02	0.03	0.750			
0.7216	46182.03	3.6740	3.6738	0.8698	6.01	0.02	0.750			
0.7242	46348.05	3.6710	3.6709	0.8596	6.01	0.02	0.750			
0.7267	46511.71	3.6680	3.6680	0.8532	6.00	0.01	0.750			
0.7293	46674.78	3.6650	3.6652	0.8552	6.00	0.01	0.750			
0.7319	46840.43	3.6620	3.6619	0.8559	5.99	0.00	0.750			
0.7344	47003.95	3.6590	3.6590	0.8529	5.99	0.00	0.750			
0.7370	47168.00	3.6560	3.6560	0.8402	5.99	0.00	0.750			
0.7396	47332.30	3.6530	3.6530	0.8284	5.99	0.00	0.750			
0.7421	47494.94	3.6500	3.6500	0.7911	5.99	0.00	0.750			
0.7445	47647.26	3.6470	3.6470	0.7416	5.99	0.00	0.750			
0.7467	47790.36	3.6440	3.6440	0.6717	5.99	0.00	0.750			
0.7487	47914.71	3.6410	3.6410	0.5897	5.99	0.00	0.750			
0.7503	48019.37	3.6380	3.6381	0.5020	5.99	0.00	0.750			
0.7514	48091.74	3.6350	3.6356	0.4309	5.99	0.00	0.750			
0.7526	48166.96	3.6320	3.6322	0.3507	5.99	0.00	0.750			
0.7535	48226.91	3.6290	3.6290	0.2883	5.99	0.00	0.750			
0.7542	48270.08	3.6260	3.6256	0.2195	5.99	0.00	0.750			
0.7548	48304.38	3.6230	3.6210	0.1708	5.99	0.00	0.750			
0.7551	48325.12	3.5990	3.5817	-0.1065	5.99	0.00	0.750			
0.7551	48326.80	3.6200	3.5602	0.1226	5.99	0.00	0.748			
0.7553	48339.61	3.6170	3.3973	0.0813	5.99	0.00	0.730			
0.7554	48342.55	3.6020	3.3598	-0.0752	5.99	0.00	0.726			
0.7555	48352.22	3.6140	3.2369	0.0500	5.99	0.00	0.712			
0.7555	48353.98	3.6050	3.2144	-0.0439	5.99	0.00	0.710			
0.7556	48358.82	3.6110	3.1530	0.0187	5.99	0.00	0.703			
0.7556	48359.41	3.6080	3.1455	-0.0126	5.99	0.00	0.702			
