Ah_balance (normalized)	Ah_balance (mAh)	Voltage - fit (V)	Voltage -  interpolate (V)	dQ/dV (1/V)	Temperature (°C)	Temperature - diff (°C)	Current (C)	R_DC 0ms (mOhm)	R_DC 50ms (mOhm)	R_DC 50 ms PEC (mOhm)
0.0000	0.00	4.1010	4.1251	0.0000	5.98	0.00	-0.750			
0.0002	14.52	4.0980	4.0971	-0.0421	5.98	0.00	-0.750			
0.0004	26.69	4.0950	4.0942	-0.0712	5.98	0.00	-0.750			
0.0007	42.83	4.0920	4.0916	-0.0984	5.98	0.00	-0.750			
0.0010	64.35	4.0890	4.0892	-0.1257	5.98	0.00	-0.750			
0.0014	91.12	4.0860	4.0861	-0.1530	5.98	0.00	-0.750			
0.0019	123.18	4.0830	4.0830	-0.1769	5.98	0.00	-0.750			
0.0025	161.29	4.0800	4.0799	-0.2010	5.98	0.00	-0.750			
0.0032	202.24	4.0770	4.0770	-0.2210	5.98	0.00	-0.750			
0.0039	247.23	4.0740	4.0742	-0.2418	5.98	0.00	-0.750			
0.0046	295.45	4.0710	4.0711	-0.2636	5.98	-0.00	-0.750			
0.0054	346.81	4.0680	4.0679	-0.2853	5.98	-0.00	-0.750			
0.0063	404.20	4.0650	4.0649	-0.3094	5.98	-0.00	-0.750			
0.0073	465.23	4.0620	4.0619	-0.3332	5.98	-0.00	-0.750			
0.0083	531.91	4.0590	4.0590	-0.3579	5.98	-0.00	-0.750			
0.0094	603.27	4.0560	4.0562	-0.3818	5.98	-0.00	-0.750			
0.0106	679.63	4.0530	4.0529	-0.4040	5.97	-0.01	-0.750			
0.0119	759.82	4.0500	4.0500	-0.4239	5.97	-0.01	-0.750			
0.0132	843.28	4.0470	4.0470	-0.4414	5.97	-0.01	-0.750			
0.0145	929.35	4.0440	4.0440	-0.4611	5.97	-0.01	-0.750			
0.0159	1019.59	4.0410	4.0411	-0.4809	5.97	-0.01	-0.750			
0.0174	1113.39	4.0380	4.0379	-0.5025	5.97	-0.01	-0.750			
0.0189	1211.92	4.0350	4.0349	-0.5216	5.97	-0.01	-0.750			
0.0205	1314.18	4.0320	4.0321	-0.5428	5.97	-0.01	-0.750			
0.0222	1420.01	4.0290	4.0291	-0.5680	5.97	-0.01	-0.750			
0.0240	1533.80	4.0260	4.0260	-0.5858	5.98	-0.00	-0.750			
0.0258	1648.52	4.0230	4.0229	-0.5976	5.98	-0.00	-0.750			
0.0276	1765.36	4.0200	4.0201	-0.6070	5.98	-0.00	-0.750			
0.0294	1882.55	4.0170	4.0171	-0.6160	5.98	0.00	-0.750			
0.0313	2002.05	4.0140	4.0141	-0.6231	5.98	0.00	-0.750			
0.0332	2121.78	4.0110	4.0110	-0.6261	5.99	0.01	-0.750			
0.0350	2241.00	4.0080	4.0080	-0.6338	5.99	0.01	-0.750			
0.0369	2364.35	4.0050	4.0050	-0.6483	5.99	0.01	-0.750			
0.0389	2488.95	4.0020	4.0021	-0.6592	6.00	0.02	-0.750			
0.0409	2617.45	3.9990	3.9988	-0.6672	6.00	0.02	-0.750			
0.0429	2747.55	3.9960	3.9960	-0.6750	6.00	0.02	-0.750			
0.0450	2878.64	3.9930	3.9931	-0.6845	6.01	0.03	-0.750			
0.0470	3010.60	3.9900	3.9900	-0.6920	6.01	0.03	-0.750			
0.0491	3143.80	3.9870	3.9870	-0.6926	6.01	0.03	-0.750			
0.0512	3277.03	3.9840	3.9839	-0.6960	6.02	0.04	-0.750			
0.0533	3410.87	3.9810	3.9809	-0.7029	6.02	0.04	-0.750			
0.0554	3548.14	3.9780	3.9780	-0.7084	6.02	0.04	-0.750			
0.0576	3683.74	3.9750	3.9750	-0.7084	6.03	0.05	-0.750			
0.0597	3818.86	3.9720	3.9719	-0.7136	6.03	0.05	-0.750			
0.0618	3958.04	3.9690	3.9690	-0.7124	6.04	0.06	-0.750			
0.0640	4096.63	3.9660	3.9659	-0.7118	6.04	0.06	-0.750			
0.0661	4231.70	3.9630	3.9632	-0.7081	6.05	0.07	-0.750			
0.0682	4366.47	3.9600	3.9601	-0.7093	6.06	0.08	-0.750			
0.0703	4501.73	3.9570	3.9569	-0.7188	6.06	0.08	-0.750			
0.0725	4638.21	3.9540	3.9540	-0.7302	6.07	0.09	-0.750			
0.0747	4780.50	3.9510	3.9509	-0.7401	6.08	0.10	-0.750			
0.0770	4928.29	3.9480	3.9479	-0.7539	6.08	0.10	-0.750			
0.0793	5075.05	3.9450	3.9452	-0.7482	6.09	0.11	-0.750			
0.0816	5219.94	3.9420	3.9420	-0.7465	6.10	0.12	-0.750			
0.0838	5361.68	3.9390	3.9390	-0.7453	6.11	0.13	-0.750			
0.0860	5501.01	3.9360	3.9360	-0.7409	6.11	0.13	-0.750			
0.0882	5644.98	3.9330	3.9329	-0.7438	6.12	0.14	-0.750			
0.0904	5786.44	3.9300	3.9299	-0.7474	6.13	0.15	-0.750			
0.0927	5931.06	3.9270	3.9272	-0.7542	6.13	0.15	-0.750			
0.0950	6077.34	3.9240	3.9239	-0.7571	6.14	0.16	-0.750			
0.0972	6222.00	3.9210	3.9210	-0.7589	6.14	0.16	-0.750			
0.0995	6366.35	3.9180	3.9181	-0.7620	6.15	0.17	-0.750			
0.1018	6515.07	3.9150	3.9150	-0.7690	6.15	0.17	-0.750			
0.1041	6664.89	3.9120	3.9118	-0.7750	6.16	0.18	-0.750			
0.1065	6813.68	3.9090	3.9090	-0.7670	6.17	0.19	-0.750			
0.1088	6961.57	3.9060	3.9061	-0.7663	6.18	0.20	-0.750			
0.1111	7108.68	3.9030	3.9030	-0.7628	6.19	0.21	-0.750			
0.1134	7254.74	3.9000	3.8998	-0.7607	6.20	0.22	-0.750			
0.1156	7396.30	3.8970	3.8970	-0.7674	6.21	0.23	-0.750			
0.1179	7543.94	3.8940	3.8940	-0.7749	6.21	0.23	-0.750			
0.1202	7694.56	3.8910	3.8909	-0.7777	6.22	0.24	-0.750			
0.1226	7847.48	3.8880	3.8880	-0.7804	6.23	0.25	-0.750			
0.1249	7996.65	3.8850	3.8851	-0.7838	6.24	0.26	-0.750			
0.1273	8147.81	3.8820	3.8819	-0.7872	6.24	0.26	-0.750			
0.1297	8298.02	3.8790	3.8791	-0.7858	6.25	0.27	-0.750			
0.1320	8446.86	3.8760	3.8758	-0.7897	6.26	0.28	-0.750			
0.1344	8601.19	3.8730	3.8731	-0.7912	6.27	0.29	-0.750			
0.1368	8754.19	3.8700	3.8699	-0.7907	6.28	0.30	-0.750			
0.1392	8906.22	3.8670	3.8670	-0.7901	6.28	0.30	-0.750			
0.1415	9056.27	3.8640	3.8643	-0.7841	6.29	0.31	-0.750			
0.1439	9207.35	3.8610	3.8610	-0.7831	6.30	0.32	-0.750			
0.1462	9356.51	3.8580	3.8580	-0.7858	6.31	0.33	-0.750			
0.1485	9507.11	3.8550	3.8550	-0.7878	6.32	0.34	-0.750			
0.1510	9660.96	3.8520	3.8520	-0.7916	6.33	0.35	-0.750			
0.1533	9811.57	3.8490	3.8489	-0.7892	6.34	0.36	-0.750			
0.1557	9962.86	3.8460	3.8461	-0.7920	6.35	0.37	-0.750			
0.1580	10114.30	3.8430	3.8430	-0.8006	6.36	0.38	-0.750			
0.1605	10269.76	3.8400	3.8399	-0.7958	6.37	0.39	-0.750			
0.1628	10421.37	3.8370	3.8370	-0.7951	6.38	0.40	-0.750			
0.1653	10576.19	3.8340	3.8341	-0.7981	6.39	0.41	-0.750			
0.1677	10729.84	3.8310	3.8309	-0.7978	6.39	0.41	-0.750			
0.1700	10879.64	3.8280	3.8280	-0.8040	6.40	0.42	-0.750			
0.1724	11034.00	3.8250	3.8251	-0.8120	6.41	0.43	-0.750			
0.1748	11189.74	3.8220	3.8219	-0.8179	6.42	0.44	-0.750			
0.1774	11352.36	3.8190	3.8189	-0.8220	6.43	0.45	-0.750			
0.1799	11511.39	3.8160	3.8162	-0.8195	6.43	0.45	-0.750			
0.1823	11668.03	3.8130	3.8130	-0.8217	6.44	0.46	-0.750			
0.1848	11825.59	3.8100	3.8100	-0.8162	6.45	0.47	-0.750			
0.1871	11977.21	3.8070	3.8070	-0.8125	6.46	0.48	-0.750			
0.1896	12134.33	3.8040	3.8040	-0.8193	6.47	0.49	-0.750			
0.1921	12293.69	3.8010	3.8010	-0.8248	6.48	0.50	-0.750			
0.1946	12453.87	3.7980	3.7980	-0.8289	6.50	0.52	-0.750			
0.1971	12615.11	3.7950	3.7951	-0.8271	6.51	0.53	-0.750			
0.1996	12773.85	3.7920	3.7920	-0.8166	6.52	0.54	-0.750			
0.2021	12932.09	3.7890	3.7890	-0.8114	6.53	0.55	-0.750			
0.2044	13083.40	3.7860	3.7861	-0.8060	6.54	0.56	-0.750			
0.2068	13236.33	3.7830	3.7829	-0.8043	6.55	0.57	-0.750			
0.2092	13389.36	3.7800	3.7800	-0.8090	6.56	0.58	-0.750			
0.2116	13542.81	3.7770	3.7770	-0.8197	6.56	0.58	-0.750			
0.2141	13702.05	3.7740	3.7741	-0.8401	6.57	0.59	-0.750			
0.2167	13866.56	3.7710	3.7711	-0.8475	6.58	0.60	-0.750			
0.2192	14031.16	3.7680	3.7679	-0.8579	6.59	0.61	-0.750			
0.2218	14197.29	3.7650	3.7650	-0.8597	6.60	0.62	-0.750			
0.2245	14365.07	3.7620	3.7621	-0.8572	6.61	0.63	-0.750			
0.2270	14530.50	3.7590	3.7588	-0.8551	6.62	0.64	-0.750			
0.2295	14690.99	3.7560	3.7562	-0.8537	6.63	0.65	-0.750			
0.2321	14854.25	3.7530	3.7530	-0.8454	6.64	0.66	-0.750			
0.2346	15017.35	3.7500	3.7499	-0.8502	6.65	0.67	-0.750			
0.2372	15180.59	3.7470	3.7472	-0.8477	6.66	0.68	-0.750			
0.2397	15343.50	3.7440	3.7439	-0.8530	6.67	0.69	-0.750			
0.2423	15507.73	3.7410	3.7410	-0.8531	6.68	0.70	-0.750			
0.2448	15669.56	3.7380	3.7381	-0.8567	6.69	0.71	-0.750			
0.2474	15834.11	3.7350	3.7350	-0.8584	6.70	0.72	-0.750			
0.2500	16001.04	3.7320	3.7320	-0.8604	6.71	0.73	-0.750			
0.2526	16167.44	3.7290	3.7290	-0.8715	6.72	0.74	-0.750			
0.2552	16333.63	3.7260	3.7259	-0.8788	6.73	0.75	-0.750			
0.2579	16502.44	3.7230	3.7230	-0.8863	6.74	0.76	-0.750			
0.2605	16674.87	3.7200	3.7200	-0.8915	6.75	0.77	-0.750			
0.2633	16848.28	3.7170	3.7170	-0.8878	6.76	0.78	-0.750			
0.2659	17020.12	3.7140	3.7139	-0.8871	6.77	0.79	-0.750			
0.2686	17188.38	3.7110	3.7111	-0.8880	6.78	0.80	-0.750			
0.2712	17355.57	3.7080	3.7079	-0.8907	6.79	0.81	-0.750			
0.2738	17524.30	3.7050	3.7050	-0.8892	6.80	0.82	-0.750			
0.2765	17696.24	3.7020	3.7019	-0.8995	6.81	0.83	-0.750			
0.2792	17871.76	3.6990	3.6993	-0.9123	6.82	0.84	-0.750			
0.2820	18048.25	3.6960	3.6959	-0.9224	6.83	0.85	-0.750			
0.2848	18225.58	3.6930	3.6930	-0.9264	6.84	0.86	-0.750			
0.2876	18404.57	3.6900	3.6899	-0.9295	6.85	0.87	-0.750			
0.2904	18584.27	3.6870	3.6870	-0.9258	6.86	0.88	-0.750			
0.2932	18763.98	3.6840	3.6840	-0.9280	6.87	0.89	-0.750			
0.2959	18939.99	3.6810	3.6810	-0.9357	6.87	0.89	-0.750			
0.2987	19119.15	3.6780	3.6780	-0.9417	6.88	0.90	-0.750			
0.3015	19298.58	3.6750	3.6749	-0.9482	6.89	0.91	-0.750			
0.3044	19483.20	3.6720	3.6721	-0.9507	6.90	0.92	-0.750			
0.3073	19667.60	3.6690	3.6691	-0.9607	6.91	0.93	-0.750			
0.3102	19852.75	3.6660	3.6660	-0.9669	6.92	0.94	-0.750			
0.3131	20037.03	3.6630	3.6629	-0.9697	6.92	0.94	-0.750			
0.3160	20222.63	3.6600	3.6600	-0.9747	6.93	0.95	-0.750			
0.3189	20410.06	3.6570	3.6570	-0.9852	6.94	0.96	-0.750			
0.3219	20599.95	3.6540	3.6540	-0.9997	6.95	0.97	-0.750			
0.3249	20794.64	3.6510	3.6510	-1.0130	6.96	0.98	-0.750			
0.3280	20989.04	3.6480	3.6479	-1.0237	6.97	0.99	-0.750			
0.3311	21187.64	3.6450	3.6450	-1.0360	6.98	1.00	-0.750			
0.3342	21389.07	3.6420	3.6420	-1.0471	6.98	1.00	-0.750			
0.3374	21591.93	3.6390	3.6391	-1.0553	6.99	1.01	-0.750			
0.3405	21794.63	3.6360	3.6359	-1.0573	7.00	1.02	-0.750			
0.3437	21997.89	3.6330	3.6330	-1.0615	7.01	1.03	-0.750			
0.3469	22203.22	3.6300	3.6300	-1.0655	7.01	1.03	-0.750			
0.3501	22405.82	3.6270	3.6271	-1.0746	7.02	1.04	-0.750			
0.3533	22613.37	3.6240	3.6241	-1.0820	7.03	1.05	-0.750			
0.3566	22821.89	3.6210	3.6209	-1.0959	7.04	1.06	-0.750			
0.3599	23033.20	3.6180	3.6179	-1.1049	7.04	1.06	-0.750			
0.3632	23246.07	3.6150	3.6151	-1.1174	7.05	1.07	-0.750			
0.3666	23461.92	3.6120	3.6123	-1.1288	7.06	1.08	-0.750			
0.3700	23681.54	3.6090	3.6088	-1.1390	7.07	1.09	-0.750			
0.3735	23901.10	3.6060	3.6061	-1.1392	7.08	1.10	-0.750			
0.3769	24119.15	3.6030	3.6031	-1.1524	7.09	1.11	-0.750			
0.3804	24343.90	3.6000	3.6000	-1.1629	7.10	1.12	-0.750			
0.3839	24568.08	3.5970	3.5969	-1.1613	7.11	1.13	-0.750			
0.3873	24788.04	3.5940	3.5938	-1.1662	7.11	1.13	-0.750	0.402	0.885	
0.3908	25011.47	3.5910	3.5910	-1.1809	7.12	1.14	-0.750			
0.3944	25239.22	3.5880	3.5879	-1.1931	7.13	1.15	-0.750			
0.3980	25470.38	3.5850	3.5849	-1.1996	7.14	1.16	-0.750			
0.4016	25700.23	3.5820	3.5820	-1.1927	7.14	1.16	-0.750			
0.4052	25934.17	3.5790	3.5791	-1.2133	7.15	1.17	-0.750			
0.4089	26167.18	3.5760	3.5761	-1.2251	7.16	1.18	-0.750			
0.4125	26399.22	3.5730	3.5728	-1.2409	7.17	1.19	-0.750			
0.4162	26637.84	3.5700	3.5701	-1.2481	7.18	1.20	-0.750			
0.4200	26881.95	3.5670	3.5670	-1.2672	7.19	1.21	-0.750			
0.4239	27131.98	3.5640	3.5640	-1.2787	7.19	1.21	-0.750			
0.4277	27375.32	3.5610	3.5612	-1.2943	7.20	1.22	-0.750			
0.4316	27621.16	3.5580	3.5579	-1.3030	7.21	1.23	-0.750			
0.4355	27871.89	3.5550	3.5548	-1.3144	7.22	1.24	-0.750			
0.4395	28127.32	3.5520	3.5519	-1.3199	7.23	1.25	-0.750			
0.4435	28384.16	3.5490	3.5492	-1.3277	7.23	1.25	-0.750			
0.4476	28645.15	3.5460	3.5460	-1.3322	7.24	1.26	-0.750			
0.4516	28899.56	3.5430	3.5429	-1.3248	7.25	1.27	-0.750			
0.4554	29143.23	3.5400	3.5400	-1.3115	7.26	1.28	-0.750			
0.4593	29395.57	3.5370	3.5372	-1.3368	7.27	1.29	-0.750			
0.4633	29652.12	3.5340	3.5338	-1.3529	7.28	1.30	-0.750			
0.4675	29917.28	3.5310	3.5310	-1.3791	7.29	1.31	-0.750			
0.4717	30187.38	3.5280	3.5279	-1.3939	7.30	1.32	-0.750			
0.4760	30461.13	3.5250	3.5250	-1.4099	7.31	1.33	-0.750			
0.4802	30731.83	3.5220	3.5221	-1.4111	7.32	1.34	-0.750			
0.4844	30999.95	3.5190	3.5190	-1.4058	7.33	1.35	-0.750			
0.4886	31270.12	3.5160	3.5159	-1.3950	7.34	1.36	-0.750			
0.4928	31537.51	3.5130	3.5130	-1.3775	7.35	1.37	-0.750			
0.4969	31804.12	3.5100	3.5101	-1.3909	7.36	1.38	-0.750			
0.5011	32068.68	3.5070	3.5070	-1.3906	7.37	1.39	-0.750			
0.5052	32333.78	3.5040	3.5040	-1.3796	7.37	1.39	-0.750			
0.5094	32599.63	3.5010	3.5008	-1.3807	7.38	1.40	-0.750			
0.5135	32864.26	3.4980	3.4980	-1.3810	7.39	1.41	-0.750			
0.5177	33130.34	3.4950	3.4952	-1.3840	7.40	1.42	-0.750			
0.5219	33401.36	3.4920	3.4919	-1.3802	7.42	1.44	-0.750			
0.5260	33662.37	3.4890	3.4888	-1.3598	7.43	1.45	-0.750			
0.5300	33922.64	3.4860	3.4862	-1.3576	7.44	1.46	-0.750			
0.5341	34184.56	3.4830	3.4831	-1.3638	7.45	1.47	-0.750			
0.5382	34445.77	3.4800	3.4798	-1.3618	7.46	1.48	-0.750			
0.5423	34704.96	3.4770	3.4771	-1.3559	7.47	1.49	-0.750			
0.5464	34968.93	3.4740	3.4739	-1.3600	7.49	1.51	-0.750			
0.5506	35236.58	3.4710	3.4710	-1.3637	7.51	1.53	-0.750			
0.5546	35495.23	3.4680	3.4682	-1.3572	7.52	1.54	-0.750			
0.5587	35756.47	3.4650	3.4649	-1.3474	7.53	1.55	-0.750			
0.5627	36013.60	3.4620	3.4619	-1.3303	7.54	1.56	-0.750			
0.5667	36267.63	3.4590	3.4592	-1.3116	7.55	1.57	-0.750			
0.5707	36522.27	3.4560	3.4559	-1.3054	7.56	1.58	-0.750			
0.5745	36767.31	3.4530	3.4530	-1.2913	7.58	1.60	-0.750			
0.5783	37010.66	3.4500	3.4501	-1.2831	7.59	1.61	-0.750			
0.5821	37256.82	3.4470	3.4469	-1.2703	7.60	1.62	-0.750			
0.5859	37499.73	3.4440	3.4441	-1.2655	7.62	1.64	-0.750			
0.5897	37742.82	3.4410	3.4410	-1.2614	7.63	1.65	-0.750			
0.5935	37985.41	3.4380	3.4379	-1.2482	7.65	1.67	-0.750			
0.5973	38226.85	3.4350	3.4349	-1.2255	7.66	1.68	-0.750			
0.6010	38460.84	3.4320	3.4322	-1.1963	7.67	1.69	-0.750			
0.6045	38686.50	3.4290	3.4291	-1.1875	7.68	1.70	-0.750			
0.6080	38915.07	3.4260	3.4259	-1.1712	7.70	1.72	-0.750			
0.6114	39132.50	3.4230	3.4229	-1.1531	7.71	1.73	-0.750			
0.6149	39353.45	3.4200	3.4200	-1.1379	7.72	1.74	-0.750			
0.6183	39574.29	3.4170	3.4171	-1.1327	7.74	1.76	-0.750			
0.6218	39792.49	3.4140	3.4139	-1.1151	7.76	1.78	-0.750			
0.6251	40006.37	3.4110	3.4109	-1.0940	7.77	1.79	-0.750			
0.6283	40211.25	3.4080	3.4081	-1.0638	7.79	1.81	-0.750			
0.6315	40416.29	3.4050	3.4049	-1.0407	7.80	1.82	-0.750			
0.6346	40613.19	3.4020	3.4020	-1.0083	7.81	1.83	-0.750			
0.6376	40803.93	3.3990	3.3990	-0.9867	7.82	1.84	-0.750			
0.6404	40988.21	3.3960	3.3958	-0.9622	7.84	1.86	-0.750			
0.6433	41171.83	3.3930	3.3929	-0.9416	7.85	1.87	-0.750			
0.6461	41349.76	3.3900	3.3900	-0.9207	7.87	1.89	-0.750			
0.6488	41524.47	3.3870	3.3870	-0.9023	7.88	1.90	-0.750			
0.6515	41695.94	3.3840	3.3840	-0.8765	7.90	1.92	-0.750			
0.6541	41865.09	3.3810	3.3811	-0.8619	7.91	1.93	-0.750			
0.6567	42027.01	3.3780	3.3780	-0.8390	7.92	1.94	-0.750			
0.6592	42185.90	3.3750	3.3751	-0.8215	7.94	1.96	-0.750			
0.6616	42343.08	3.3720	3.3719	-0.8053	7.95	1.97	-0.750			
0.6640	42495.38	3.3690	3.3690	-0.7867	7.96	1.98	-0.750			
0.6663	42644.82	3.3660	3.3662	-0.7706	7.97	1.99	-0.750			
0.6686	42792.73	3.3630	3.3629	-0.7527	7.98	2.00	-0.750			
0.6708	42933.46	3.3600	3.3600	-0.7329	8.00	2.02	-0.750			
0.6730	43072.30	3.3570	3.3570	-0.7134	8.01	2.03	-0.750			
0.6751	43208.42	3.3540	3.3538	-0.7007	8.03	2.05	-0.750			
0.6772	43340.75	3.3510	3.3510	-0.6806	8.04	2.06	-0.750			
0.6792	43470.21	3.3480	3.3481	-0.6610	8.05	2.07	-0.750			
0.6812	43595.28	3.3450	3.3450	-0.6428	8.06	2.08	-0.750			
0.6831	43717.01	3.3420	3.3420	-0.6286	8.08	2.10	-0.750			
0.6849	43833.35	3.3390	3.3390	-0.6108	8.09	2.11	-0.750			
0.6867	43951.34	3.3360	3.3359	-0.6005	8.10	2.12	-0.750			
0.6885	44063.79	3.3330	3.3331	-0.5819	8.11	2.13	-0.750			
0.6902	44174.47	3.3300	3.3300	-0.5695	8.12	2.14	-0.750			
0.6919	44282.80	3.3270	3.3271	-0.5546	8.13	2.15	-0.750			
0.6935	44386.47	3.3240	3.3240	-0.5432	8.15	2.17	-0.750			
0.6951	44488.92	3.3210	3.3210	-0.5330	8.16	2.18	-0.750			
0.6967	44590.09	3.3180	3.3181	-0.5240	8.17	2.19	-0.750			
0.6983	44690.85	3.3150	3.3150	-0.5161	8.18	2.20	-0.750			
0.6998	44790.00	3.3120	3.3120	-0.5076	8.20	2.22	-0.750			
0.7014	44886.43	3.3090	3.3090	-0.4970	8.21	2.23	-0.750			
0.7028	44981.24	3.3060	3.3061	-0.4850	8.22	2.24	-0.750			
0.7042	45071.97	3.3030	3.3030	-0.4725	8.23	2.25	-0.750			
0.7057	45161.93	3.3000	3.3000	-0.4622	8.25	2.27	-0.750			
0.7070	45249.49	3.2970	3.2970	-0.4535	8.26	2.28	-0.750			
0.7084	45335.55	3.2940	3.2941	-0.4440	8.27	2.29	-0.750			
0.7097	45420.54	3.2910	3.2909	-0.4336	8.28	2.30	-0.750			
0.7110	45502.77	3.2880	3.2880	-0.4240	8.29	2.31	-0.750			
0.7122	45583.07	3.2850	3.2850	-0.4164	8.30	2.32	-0.750			
0.7135	45661.38	3.2820	3.2820	-0.4081	8.32	2.34	-0.750			
0.7147	45738.50	3.2790	3.2789	-0.4030	8.33	2.35	-0.750			
0.7159	45815.40	3.2760	3.2760	-0.3959	8.34	2.36	-0.750			
0.7171	45891.57	3.2730	3.2729	-0.3904	8.35	2.37	-0.750			
0.7182	45966.09	3.2700	3.2701	-0.3849	8.36	2.38	-0.750			
0.7194	46039.20	3.2670	3.2671	-0.3784	8.37	2.39	-0.750			
0.7205	46111.04	3.2640	3.2639	-0.3736	8.38	2.40	-0.750			
0.7216	46182.82	3.2610	3.2609	-0.3667	8.39	2.41	-0.750			
0.7227	46252.31	3.2580	3.2580	-0.3585	8.40	2.42	-0.750			
0.7238	46321.02	3.2550	3.2552	-0.3529	8.41	2.43	-0.750			
0.7248	46388.31	3.2520	3.2520	-0.3474	8.42	2.44	-0.750			
0.7258	46453.75	3.2490	3.2489	-0.3414	8.43	2.45	-0.750			
0.7268	46518.19	3.2460	3.2459	-0.3343	8.44	2.46	-0.750			
0.7278	46581.72	3.2430	3.2432	-0.3285	8.45	2.47	-0.750			
0.7288	46645.47	3.2400	3.2399	-0.3254	8.45	2.47	-0.750			
0.7298	46707.29	3.2370	3.2370	-0.3175	8.46	2.48	-0.750			
0.7307	46767.08	3.2340	3.2340	-0.3112	8.47	2.49	-0.750			
0.7317	46825.83	3.2310	3.2311	-0.3079	8.48	2.50	-0.750			
0.7326	46885.01	3.2280	3.2278	-0.3041	8.49	2.51	-0.750			
0.7335	46943.05	3.2250	3.2249	-0.2996	8.50	2.52	-0.750			
0.7344	47000.21	3.2220	3.2221	-0.2945	8.51	2.53	-0.750			
0.7353	47056.28	3.2190	3.2190	-0.2903	8.52	2.54	-0.750			
0.7361	47111.93	3.2160	3.2160	-0.2861	8.53	2.55	-0.750			
0.7370	47165.29	3.2130	3.2130	-0.2807	8.54	2.56	-0.750			
0.7378	47218.66	3.2100	3.2099	-0.2762	8.55	2.57	-0.750			
0.7386	47271.69	3.2070	3.2071	-0.2748	8.56	2.58	-0.750			
0.7394	47324.10	3.2040	3.2041	-0.2720	8.57	2.59	-0.750			
0.7403	47376.29	3.2010	3.2009	-0.2694	8.58	2.60	-0.750			
0.7411	47427.50	3.1980	3.1979	-0.2679	8.59	2.61	-0.750			
0.7419	47478.55	3.1950	3.1951	-0.2657	8.60	2.62	-0.750			
0.7426	47529.51	3.1920	3.1919	-0.2636	8.60	2.62	-0.750			
0.7434	47580.68	3.1890	3.1890	-0.2597	8.61	2.63	-0.750			
0.7442	47629.83	3.1860	3.1860	-0.2550	8.62	2.64	-0.750			
0.7450	47678.39	3.1830	3.1832	-0.2516	8.63	2.65	-0.750			
0.7457	47726.26	3.1800	3.1799	-0.2473	8.64	2.66	-0.750			
0.7465	47772.91	3.1770	3.1770	-0.2435	8.65	2.67	-0.750			
0.7472	47819.27	3.1740	3.1740	-0.2403	8.66	2.68	-0.750			
0.7479	47864.76	3.1710	3.1711	-0.2384	8.67	2.69	-0.750			
0.7486	47910.79	3.1680	3.1680	-0.2369	8.67	2.69	-0.750			
0.7493	47955.71	3.1650	3.1650	-0.2346	8.68	2.70	-0.750			
0.7500	48000.53	3.1620	3.1620	-0.2330	8.69	2.71	-0.750			
0.7507	48045.15	3.1590	3.1590	-0.2311	8.70	2.72	-0.750			
0.7514	48089.41	3.1560	3.1560	-0.2293	8.71	2.73	-0.750			
0.7521	48133.74	3.1530	3.1529	-0.2266	8.71	2.73	-0.750			
0.7528	48177.27	3.1500	3.1500	-0.2238	8.72	2.74	-0.750			
0.7534	48219.77	3.1470	3.1470	-0.2202	8.73	2.75	-0.750			
0.7541	48261.76	3.1440	3.1441	-0.2185	8.73	2.75	-0.750			
0.7547	48303.02	3.1410	3.1409	-0.2154	8.74	2.76	-0.750			
0.7554	48344.19	3.1380	3.1380	-0.2135	8.75	2.77	-0.750			
0.7560	48384.85	3.1350	3.1349	-0.2112	8.76	2.78	-0.750			
0.7566	48425.13	3.1320	3.1321	-0.2092	8.77	2.79	-0.750			
0.7573	48465.28	3.1290	3.1291	-0.2085	8.78	2.80	-0.750			
0.7579	48505.13	3.1260	3.1260	-0.2067	8.79	2.81	-0.750			
0.7585	48544.68	3.1230	3.1230	-0.2044	8.80	2.82	-0.750			
0.7591	48583.51	3.1200	3.1200	-0.2024	8.81	2.83	-0.750			
0.7597	48622.47	3.1170	3.1171	-0.2005	8.82	2.84	-0.750			
0.7603	48660.77	3.1140	3.1140	-0.1984	8.82	2.84	-0.750			
0.7609	48698.75	3.1110	3.1109	-0.1968	8.83	2.85	-0.750			
0.7615	48736.19	3.1080	3.1081	-0.1950	8.84	2.86	-0.750			
0.7621	48773.52	3.1050	3.1049	-0.1923	8.85	2.87	-0.750			
0.7627	48810.27	3.1020	3.1020	-0.1904	8.85	2.87	-0.750			
0.7632	48846.76	3.0990	3.0990	-0.1890	8.86	2.88	-0.750			
0.7638	48882.49	3.0960	3.0961	-0.1879	8.87	2.89	-0.750			
0.7644	48918.41	3.0930	3.0930	-0.1868	8.88	2.90	-0.750			
0.7649	48954.19	3.0900	3.0899	-0.1860	8.88	2.90	-0.750			
0.7655	48989.73	3.0870	3.0869	-0.1839	8.89	2.91	-0.750			
0.7660	49025.12	3.0840	3.0840	-0.1827	8.90	2.92	-0.750			
0.7666	49060.60	3.0810	3.0811	-0.1819	8.90	2.92	-0.750			
0.7671	49095.08	3.0780	3.0780	-0.1805	8.91	2.93	-0.750			
0.7676	49129.25	3.0750	3.0749	-0.1796	8.92	2.94	-0.750			
0.7682	49163.41	3.0720	3.0720	-0.1777	8.93	2.95	-0.750			
0.7687	49197.48	3.0690	3.0689	-0.1772	8.94	2.96	-0.750			
0.7692	49231.44	3.0660	3.0661	-0.1765	8.95	2.97	-0.750			
0.7698	49265.48	3.0630	3.0631	-0.1764	8.96	2.98	-0.750			
0.7703	49299.57	3.0600	3.0598	-0.1748	8.96	2.98	-0.750			
0.7708	49332.95	3.0570	3.0570	-0.1730	8.97	2.99	-0.750			
0.7713	49365.92	3.0540	3.0540	-0.1720	8.98	3.00	-0.750			
0.7719	49398.94	3.0510	3.0511	-0.1699	8.99	3.01	-0.750			
0.7724	49431.63	3.0480	3.0479	-0.1686	9.00	3.02	-0.750			
0.7729	49463.79	3.0450	3.0450	-0.1663	9.01	3.03	-0.750			
0.7734	49495.13	3.0420	3.0420	-0.1662	9.01	3.03	-0.750			
0.7739	49526.50	3.0390	3.0390	-0.1657	9.02	3.04	-0.750			
0.7744	49558.55	3.0360	3.0359	-0.1657	9.03	3.05	-0.750			
0.7748	49590.06	3.0330	3.0330	-0.1652	9.04	3.06	-0.750			
0.7753	49622.04	3.0300	3.0300	-0.1645	9.04	3.06	-0.750			
0.7758	49654.29	3.0270	3.0270	-0.1637	9.05	3.07	-0.750			
0.7763	49685.71	3.0240	3.0241	-0.1626	9.06	3.08	-0.750			
0.7768	49716.71	3.0210	3.0209	-0.1603	9.07	3.09	-0.750			
0.7773	49746.83	3.0180	3.0181	-0.1597	9.07	3.09	-0.750			
0.7778	49777.19	3.0150	3.0150	-0.1588	9.08	3.10	-0.750			
0.7782	49807.51	3.0120	3.0119	-0.1585	9.09	3.11	-0.750			
0.7787	49837.95	3.0090	3.0091	-0.1587	9.10	3.12	-0.750			
0.7792	49868.40	3.0060	3.0060	-0.1591	9.10	3.12	-0.750			
0.7797	49898.85	3.0030	3.0030	-0.1567	9.11	3.13	-0.750			
