Ah_balance (normalized)	Ah_balance (mAh)	Voltage - fit (V)	Voltage -  interpolate (V)	dQ/dV (1/V)	Temperature (°C)	Temperature - diff (°C)	Current (C)	R_DC 0ms (mOhm)	R_DC 50ms (mOhm)	R_DC 50 ms PEC (mOhm)
0.0000	0.00	4.0970	4.1289	0.0000	5.98	-0.01	-0.748			
0.0000	0.00	4.1000	4.1289	0.0000	5.98	-0.01	-0.748			
0.0003	16.13	4.0940	4.0934	-0.0523	5.98	-0.01	-0.750			
0.0005	29.18	4.0910	4.0907	-0.0799	5.98	-0.01	-0.750			
0.0007	47.14	4.0880	4.0879	-0.1073	5.98	-0.01	-0.750			
0.0011	70.88	4.0850	4.0849	-0.1323	5.98	-0.01	-0.750			
0.0016	99.22	4.0820	4.0820	-0.1548	5.98	-0.01	-0.750			
0.0021	131.34	4.0790	4.0791	-0.1795	5.98	-0.01	-0.750			
0.0026	169.00	4.0760	4.0761	-0.2059	5.98	-0.01	-0.750			
0.0033	210.75	4.0730	4.0731	-0.2298	5.98	-0.01	-0.750			
0.0040	257.22	4.0700	4.0699	-0.2519	5.99	-0.00	-0.750			
0.0048	307.99	4.0670	4.0671	-0.2741	5.99	-0.00	-0.750			
0.0057	362.68	4.0640	4.0641	-0.2972	5.99	-0.00	-0.750			
0.0066	422.44	4.0610	4.0610	-0.3188	5.99	-0.00	-0.750			
0.0076	485.51	4.0580	4.0580	-0.3410	5.99	-0.00	-0.750			
0.0086	553.17	4.0550	4.0550	-0.3613	5.99	-0.00	-0.750			
0.0098	624.54	4.0520	4.0521	-0.3830	5.99	-0.00	-0.750			
0.0109	699.97	4.0490	4.0490	-0.4064	5.99	0.00	-0.750			
0.0122	780.94	4.0460	4.0461	-0.4239	5.99	0.00	-0.750			
0.0135	863.04	4.0430	4.0429	-0.4485	5.99	0.00	-0.750			
0.0149	951.49	4.0400	4.0401	-0.4707	5.99	0.00	-0.750			
0.0163	1043.43	4.0370	4.0369	-0.4940	6.00	0.01	-0.750			
0.0178	1141.30	4.0340	4.0340	-0.5174	6.00	0.01	-0.750			
0.0194	1243.43	4.0310	4.0310	-0.5361	6.00	0.01	-0.750			
0.0211	1348.99	4.0280	4.0280	-0.5534	6.00	0.01	-0.750			
0.0228	1458.85	4.0250	4.0250	-0.5673	6.00	0.01	-0.750			
0.0245	1567.81	4.0220	4.0222	-0.5745	6.00	0.01	-0.750			
0.0263	1680.44	4.0190	4.0189	-0.5857	6.01	0.02	-0.750			
0.0280	1793.37	4.0160	4.0161	-0.5909	6.01	0.02	-0.750			
0.0298	1907.06	4.0130	4.0129	-0.6052	6.01	0.02	-0.750			
0.0316	2023.59	4.0100	4.0102	-0.6163	6.01	0.02	-0.750			
0.0335	2142.63	4.0070	4.0069	-0.6289	6.02	0.03	-0.750			
0.0354	2265.44	4.0040	4.0040	-0.6418	6.02	0.03	-0.750			
0.0373	2389.99	4.0010	4.0011	-0.6505	6.03	0.04	-0.750			
0.0393	2515.36	3.9980	3.9980	-0.6627	6.03	0.04	-0.750			
0.0413	2643.85	3.9950	3.9951	-0.6708	6.04	0.05	-0.750			
0.0433	2774.25	3.9920	3.9920	-0.6866	6.05	0.06	-0.750			
0.0454	2907.39	3.9890	3.9889	-0.6938	6.05	0.06	-0.750			
0.0476	3043.59	3.9860	3.9861	-0.6940	6.06	0.07	-0.750			
0.0497	3179.51	3.9830	3.9830	-0.6971	6.07	0.08	-0.750			
0.0517	3310.44	3.9800	3.9802	-0.7020	6.07	0.08	-0.750			
0.0538	3444.99	3.9770	3.9770	-0.7067	6.08	0.09	-0.750			
0.0559	3579.41	3.9740	3.9738	-0.7071	6.08	0.09	-0.750			
0.0581	3715.40	3.9710	3.9709	-0.7096	6.09	0.10	-0.750			
0.0602	3854.30	3.9680	3.9682	-0.7207	6.09	0.10	-0.750			
0.0624	3994.56	3.9650	3.9650	-0.7214	6.10	0.11	-0.750			
0.0646	4132.63	3.9620	3.9619	-0.7267	6.11	0.12	-0.750			
0.0667	4271.31	3.9590	3.9591	-0.7265	6.12	0.13	-0.750			
0.0689	4410.47	3.9560	3.9559	-0.7321	6.13	0.14	-0.750			
0.0711	4553.20	3.9530	3.9530	-0.7334	6.14	0.15	-0.750			
0.0734	4695.35	3.9500	3.9500	-0.7327	6.14	0.15	-0.750			
0.0755	4835.11	3.9470	3.9470	-0.7252	6.15	0.16	-0.750			
0.0777	4974.87	3.9440	3.9441	-0.7295	6.16	0.17	-0.750			
0.0799	5112.59	3.9410	3.9409	-0.7245	6.16	0.17	-0.750			
0.0820	5251.04	3.9380	3.9378	-0.7325	6.17	0.18	-0.750			
0.0842	5390.28	3.9350	3.9351	-0.7391	6.18	0.19	-0.750			
0.0865	5535.25	3.9320	3.9319	-0.7424	6.19	0.20	-0.750			
0.0888	5680.97	3.9290	3.9290	-0.7482	6.20	0.21	-0.750			
0.0910	5825.41	3.9260	3.9261	-0.7531	6.20	0.21	-0.750			
0.0932	5967.40	3.9230	3.9230	-0.7540	6.21	0.22	-0.750			
0.0955	6114.68	3.9200	3.9198	-0.7560	6.22	0.23	-0.750			
0.0978	6259.52	3.9170	3.9171	-0.7516	6.23	0.24	-0.750			
0.1001	6403.81	3.9140	3.9140	-0.7523	6.24	0.25	-0.750			
0.1023	6549.64	3.9110	3.9111	-0.7547	6.25	0.26	-0.750			
0.1046	6692.28	3.9080	3.9080	-0.7553	6.26	0.27	-0.750			
0.1068	6835.55	3.9050	3.9050	-0.7601	6.28	0.29	-0.750			
0.1091	6981.02	3.9020	3.9021	-0.7689	6.29	0.30	-0.750			
0.1114	7131.91	3.8990	3.8989	-0.7721	6.30	0.31	-0.750			
0.1138	7280.14	3.8960	3.8959	-0.7774	6.31	0.32	-0.750			
0.1161	7431.15	3.8930	3.8932	-0.7771	6.32	0.33	-0.750			
0.1185	7581.22	3.8900	3.8900	-0.7754	6.32	0.33	-0.750			
0.1208	7729.20	3.8870	3.8869	-0.7745	6.33	0.34	-0.750			
0.1231	7878.65	3.8840	3.8840	-0.7733	6.34	0.35	-0.750			
0.1254	8024.38	3.8810	3.8810	-0.7729	6.35	0.36	-0.750			
0.1277	8174.36	3.8780	3.8780	-0.7771	6.36	0.37	-0.750			
0.1301	8323.37	3.8750	3.8750	-0.7715	6.37	0.38	-0.750			
0.1324	8471.63	3.8720	3.8720	-0.7780	6.38	0.39	-0.750			
0.1347	8619.18	3.8690	3.8692	-0.7793	6.39	0.40	-0.750			
0.1370	8768.12	3.8660	3.8660	-0.7832	6.40	0.41	-0.750			
0.1394	8920.16	3.8630	3.8629	-0.7926	6.41	0.42	-0.750			
0.1418	9073.42	3.8600	3.8599	-0.7945	6.42	0.43	-0.750			
0.1442	9230.25	3.8570	3.8571	-0.7936	6.43	0.44	-0.750			
0.1466	9383.30	3.8540	3.8541	-0.7877	6.44	0.45	-0.750			
0.1489	9530.69	3.8510	3.8510	-0.7846	6.45	0.46	-0.750			
0.1513	9680.49	3.8480	3.8480	-0.7883	6.46	0.47	-0.750			
0.1536	9830.56	3.8450	3.8448	-0.7773	6.47	0.48	-0.750			
0.1559	9978.02	3.8420	3.8420	-0.7833	6.48	0.49	-0.750			
0.1583	10130.95	3.8390	3.8392	-0.7949	6.49	0.50	-0.750			
0.1607	10285.01	3.8360	3.8360	-0.7997	6.50	0.51	-0.750			
0.1631	10437.17	3.8330	3.8329	-0.8053	6.51	0.52	-0.750			
0.1655	10594.31	3.8300	3.8301	-0.8028	6.52	0.53	-0.750			
0.1680	10751.54	3.8270	3.8269	-0.8009	6.53	0.54	-0.750			
0.1704	10905.97	3.8240	3.8238	-0.8041	6.54	0.55	-0.750			
0.1728	11058.32	3.8210	3.8213	-0.7911	6.55	0.56	-0.750			
0.1751	11209.29	3.8180	3.8178	-0.7895	6.56	0.57	-0.750			
0.1775	11359.54	3.8150	3.8150	-0.7928	6.57	0.58	-0.750			
0.1798	11508.83	3.8120	3.8121	-0.7890	6.58	0.59	-0.750			
0.1822	11663.99	3.8090	3.8089	-0.8049	6.59	0.60	-0.750			
0.1847	11821.87	3.8060	3.8060	-0.8119	6.60	0.61	-0.750			
0.1871	11976.21	3.8030	3.8030	-0.8113	6.61	0.62	-0.750			
0.1896	12133.39	3.8000	3.8000	-0.8210	6.62	0.63	-0.750			
0.1921	12292.23	3.7970	3.7970	-0.8187	6.63	0.64	-0.750			
0.1945	12450.64	3.7940	3.7939	-0.8209	6.65	0.66	-0.750			
0.1970	12606.63	3.7910	3.7912	-0.8228	6.66	0.67	-0.750			
0.1995	12765.49	3.7880	3.7879	-0.8207	6.67	0.68	-0.750			
0.2019	12923.59	3.7850	3.7849	-0.8199	6.68	0.69	-0.750			
0.2044	13081.00	3.7820	3.7820	-0.8116	6.69	0.70	-0.750			
0.2068	13236.81	3.7790	3.7790	-0.8040	6.71	0.72	-0.750			
0.2093	13392.06	3.7760	3.7761	-0.8103	6.72	0.73	-0.750			
0.2116	13544.63	3.7730	3.7730	-0.8132	6.73	0.74	-0.750			
0.2140	13696.27	3.7700	3.7700	-0.8216	6.74	0.75	-0.750			
0.2165	13857.10	3.7670	3.7668	-0.8362	6.75	0.76	-0.750			
0.2191	14021.40	3.7640	3.7640	-0.8347	6.76	0.77	-0.750			
0.2217	14187.48	3.7610	3.7611	-0.8403	6.78	0.79	-0.750			
0.2242	14348.84	3.7580	3.7581	-0.8292	6.79	0.80	-0.750			
0.2266	14505.18	3.7550	3.7550	-0.8189	6.80	0.81	-0.750			
0.2291	14659.73	3.7520	3.7519	-0.8171	6.81	0.82	-0.750			
0.2314	14811.89	3.7490	3.7490	-0.8164	6.82	0.83	-0.750			
0.2339	14969.59	3.7460	3.7460	-0.8282	6.83	0.84	-0.750			
0.2364	15129.88	3.7430	3.7429	-0.8437	6.84	0.85	-0.750			
0.2390	15294.55	3.7400	3.7400	-0.8543	6.85	0.86	-0.750			
0.2416	15461.09	3.7370	3.7370	-0.8599	6.86	0.87	-0.750			
0.2442	15627.92	3.7340	3.7340	-0.8578	6.87	0.88	-0.750			
0.2468	15793.95	3.7310	3.7310	-0.8573	6.88	0.89	-0.750			
0.2493	15956.53	3.7280	3.7280	-0.8617	6.89	0.90	-0.750			
0.2519	16120.00	3.7250	3.7250	-0.8618	6.90	0.91	-0.750			
0.2545	16285.36	3.7220	3.7220	-0.8640	6.91	0.92	-0.750			
0.2571	16452.98	3.7190	3.7189	-0.8715	6.92	0.93	-0.750			
0.2597	16623.45	3.7160	3.7163	-0.8763	6.93	0.94	-0.750			
0.2624	16790.65	3.7130	3.7130	-0.8850	6.94	0.95	-0.750			
0.2650	16961.86	3.7100	3.7100	-0.8824	6.95	0.96	-0.750			
0.2676	17129.47	3.7070	3.7069	-0.8878	6.96	0.97	-0.750			
0.2703	17299.37	3.7040	3.7040	-0.8966	6.96	0.97	-0.750			
0.2730	17473.27	3.7010	3.7011	-0.9053	6.97	0.98	-0.750			
0.2758	17648.96	3.6980	3.6978	-0.9158	6.99	1.00	-0.750			
0.2786	17827.60	3.6950	3.6951	-0.9155	7.00	1.01	-0.750			
0.2813	18003.87	3.6920	3.6919	-0.9111	7.01	1.02	-0.750			
0.2841	18180.60	3.6890	3.6891	-0.9158	7.03	1.04	-0.750			
0.2867	18351.00	3.6860	3.6861	-0.9132	7.04	1.05	-0.750			
0.2895	18526.02	3.6830	3.6830	-0.9212	7.05	1.06	-0.750			
0.2922	18703.09	3.6800	3.6799	-0.9289	7.05	1.06	-0.750			
0.2950	18881.45	3.6770	3.6770	-0.9428	7.06	1.07	-0.750			
0.2980	19069.53	3.6740	3.6741	-0.9482	7.07	1.08	-0.750			
0.3008	19251.08	3.6710	3.6710	-0.9578	7.08	1.09	-0.750			
0.3037	19435.21	3.6680	3.6681	-0.9601	7.09	1.10	-0.750			
0.3066	19619.56	3.6650	3.6648	-0.9652	7.10	1.11	-0.750			
0.3094	19804.39	3.6620	3.6623	-0.9736	7.11	1.12	-0.750			
0.3124	19992.12	3.6590	3.6589	-0.9834	7.12	1.13	-0.750			
0.3153	20181.58	3.6560	3.6561	-0.9917	7.13	1.14	-0.750			
0.3184	20375.20	3.6530	3.6530	-1.0023	7.14	1.15	-0.750			
0.3214	20567.74	3.6500	3.6500	-1.0157	7.15	1.16	-0.750			
0.3244	20763.82	3.6470	3.6469	-1.0177	7.16	1.17	-0.750			
0.3275	20959.40	3.6440	3.6440	-1.0184	7.17	1.18	-0.750			
0.3305	21153.85	3.6410	3.6410	-1.0218	7.18	1.19	-0.750			
0.3336	21349.39	3.6380	3.6379	-1.0265	7.19	1.20	-0.750			
0.3367	21546.28	3.6350	3.6351	-1.0463	7.20	1.21	-0.750			
0.3398	21747.52	3.6320	3.6319	-1.0634	7.21	1.22	-0.750			
0.3431	21956.06	3.6290	3.6289	-1.0685	7.22	1.23	-0.750			
0.3463	22164.73	3.6260	3.6262	-1.0699	7.23	1.24	-0.750			
0.3496	22374.83	3.6230	3.6230	-1.0854	7.24	1.25	-0.750			
0.3528	22581.76	3.6200	3.6200	-1.0852	7.24	1.25	-0.750			
0.3561	22788.03	3.6170	3.6169	-1.0897	7.25	1.26	-0.750			
0.3593	22992.70	3.6140	3.6138	-1.0926	7.26	1.27	-0.750			
0.3626	23207.61	3.6110	3.6110	-1.1002	7.27	1.28	-0.750			
0.3660	23420.90	3.6080	3.6081	-1.1091	7.27	1.28	-0.750			
0.3693	23634.68	3.6050	3.6050	-1.1147	7.28	1.29	-0.750			
0.3726	23844.84	3.6020	3.6020	-1.1251	7.29	1.30	-0.750			
0.3760	24063.47	3.5990	3.5988	-1.1352	7.30	1.31	-0.750			
0.3794	24283.46	3.5960	3.5960	-1.1468	7.31	1.32	-0.750			
0.3829	24505.00	3.5930	3.5930	-1.1630	7.32	1.33	-0.750			
0.3864	24732.39	3.5900	3.5916	-1.1787	7.33	1.34	-0.750	0.401	0.852	
0.3900	24959.10	3.5870	3.5868	-1.1838	7.34	1.35	-0.750			
0.3935	25184.59	3.5840	3.5839	-1.1874	7.35	1.36	-0.750			
0.3970	25409.59	3.5810	3.5811	-1.1987	7.36	1.37	-0.750			
0.4007	25645.05	3.5780	3.5780	-1.2209	7.37	1.38	-0.750			
0.4044	25881.98	3.5750	3.5749	-1.2244	7.38	1.39	-0.750			
0.4081	26116.55	3.5720	3.5720	-1.2319	7.39	1.40	-0.750			
0.4118	26354.70	3.5690	3.5690	-1.2413	7.39	1.40	-0.750			
0.4155	26592.47	3.5660	3.5660	-1.2505	7.40	1.41	-0.750			
0.4193	26833.41	3.5630	3.5629	-1.2529	7.41	1.42	-0.750			
0.4230	27072.41	3.5600	3.5602	-1.2637	7.42	1.43	-0.750			
0.4268	27317.58	3.5570	3.5570	-1.2765	7.43	1.44	-0.750			
0.4307	27566.79	3.5540	3.5540	-1.2824	7.43	1.44	-0.750			
0.4345	27810.39	3.5510	3.5509	-1.2964	7.44	1.45	-0.750			
0.4385	28060.89	3.5480	3.5480	-1.3070	7.45	1.46	-0.750			
0.4424	28312.76	3.5450	3.5451	-1.3138	7.46	1.47	-0.750			
0.4464	28567.78	3.5420	3.5420	-1.3262	7.47	1.48	-0.750			
0.4504	28822.88	3.5390	3.5391	-1.3329	7.48	1.49	-0.750			
0.4544	29080.16	3.5360	3.5359	-1.3405	7.49	1.50	-0.750			
0.4584	29337.15	3.5330	3.5331	-1.3532	7.51	1.52	-0.750			
0.4625	29596.89	3.5300	3.5298	-1.3417	7.52	1.53	-0.750			
0.4665	29855.02	3.5270	3.5270	-1.3623	7.53	1.54	-0.750			
0.4706	30116.59	3.5240	3.5240	-1.3730	7.54	1.55	-0.750			
0.4747	30381.71	3.5210	3.5209	-1.3665	7.55	1.56	-0.750			
0.4789	30649.38	3.5180	3.5180	-1.3648	7.56	1.57	-0.750			
0.4829	30908.61	3.5150	3.5151	-1.3660	7.57	1.58	-0.750			
0.4871	31171.54	3.5120	3.5118	-1.3524	7.58	1.59	-0.750			
0.4912	31433.62	3.5090	3.5089	-1.3460	7.59	1.60	-0.750			
0.4950	31682.45	3.5060	3.5058	-1.3450	7.59	1.60	-0.750			
0.4991	31942.08	3.5030	3.5032	-1.3536	7.61	1.62	-0.750			
0.5032	32204.82	3.5000	3.4998	-1.3656	7.62	1.63	-0.750			
0.5073	32466.31	3.4970	3.4968	-1.3680	7.63	1.64	-0.750			
0.5114	32729.29	3.4940	3.4940	-1.3455	7.64	1.65	-0.750			
0.5155	32994.58	3.4910	3.4911	-1.3493	7.65	1.66	-0.750			
0.5196	33251.88	3.4880	3.4879	-1.3504	7.66	1.67	-0.750			
0.5235	33504.47	3.4850	3.4850	-1.3284	7.67	1.68	-0.750			
0.5276	33763.35	3.4820	3.4819	-1.3352	7.69	1.70	-0.750			
0.5315	34017.47	3.4790	3.4789	-1.3303	7.70	1.71	-0.750			
0.5355	34273.05	3.4760	3.4762	-1.3337	7.71	1.72	-0.750			
0.5396	34535.59	3.4730	3.4730	-1.3341	7.73	1.74	-0.750			
0.5436	34790.59	3.4700	3.4699	-1.3176	7.74	1.75	-0.750			
0.5475	35038.75	3.4670	3.4672	-1.3079	7.75	1.76	-0.750			
0.5514	35291.35	3.4640	3.4639	-1.2992	7.77	1.78	-0.750			
0.5553	35538.89	3.4610	3.4610	-1.2772	7.78	1.79	-0.750			
0.5591	35779.55	3.4580	3.4580	-1.2739	7.80	1.81	-0.750			
0.5629	36025.00	3.4550	3.4552	-1.2645	7.81	1.82	-0.750			
0.5667	36268.15	3.4520	3.4517	-1.2547	7.82	1.83	-0.750			
0.5704	36506.65	3.4490	3.4490	-1.2427	7.83	1.84	-0.750			
0.5741	36741.88	3.4460	3.4461	-1.2445	7.84	1.85	-0.750			
0.5779	36983.43	3.4430	3.4429	-1.2424	7.85	1.86	-0.750			
0.5816	37222.17	3.4400	3.4398	-1.2314	7.87	1.88	-0.750			
0.5852	37454.89	3.4370	3.4372	-1.2138	7.88	1.89	-0.750			
0.5889	37692.37	3.4340	3.4339	-1.2065	7.89	1.90	-0.750			
0.5926	37925.60	3.4310	3.4310	-1.1838	7.91	1.92	-0.750			
0.5961	38150.64	3.4280	3.4281	-1.1520	7.92	1.93	-0.750			
0.5995	38366.01	3.4250	3.4250	-1.1382	7.93	1.94	-0.750			
0.6029	38583.47	3.4220	3.4219	-1.1230	7.95	1.96	-0.750			
0.6062	38795.39	3.4190	3.4189	-1.0996	7.96	1.97	-0.750			
0.6095	39004.89	3.4160	3.4162	-1.0823	7.98	1.99	-0.750			
0.6127	39213.47	3.4130	3.4130	-1.0716	7.99	2.00	-0.750			
0.6159	39417.33	3.4100	3.4100	-1.0539	8.00	2.01	-0.750			
0.6190	39617.15	3.4070	3.4069	-1.0385	8.02	2.03	-0.750			
0.6221	39812.17	3.4040	3.4040	-1.0194	8.03	2.04	-0.750			
0.6251	40007.80	3.4010	3.4010	-1.0053	8.04	2.05	-0.750			
0.6281	40199.15	3.3980	3.3981	-0.9921	8.06	2.07	-0.750			
0.6311	40390.87	3.3950	3.3950	-0.9728	8.07	2.08	-0.750			
0.6340	40575.56	3.3920	3.3919	-0.9491	8.09	2.10	-0.750			
0.6368	40754.28	3.3890	3.3890	-0.9337	8.10	2.11	-0.750			
0.6396	40932.47	3.3860	3.3861	-0.9123	8.11	2.12	-0.750			
0.6423	41107.76	3.3830	3.3828	-0.8849	8.13	2.14	-0.750			
0.6449	41274.68	3.3800	3.3799	-0.8536	8.14	2.15	-0.750			
0.6474	41434.85	3.3770	3.3774	-0.8313	8.15	2.16	-0.750			
0.6499	41592.44	3.3740	3.3739	-0.8118	8.17	2.18	-0.750			
0.6522	41743.30	3.3710	3.3709	-0.7993	8.18	2.19	-0.750			
0.6546	41894.30	3.3680	3.3680	-0.7856	8.20	2.21	-0.750			
0.6570	42046.83	3.3650	3.3649	-0.7762	8.21	2.22	-0.750			
0.6593	42196.12	3.3620	3.3620	-0.7621	8.23	2.24	-0.750			
0.6616	42343.46	3.3590	3.3590	-0.7383	8.24	2.25	-0.750			
0.6638	42481.46	3.3560	3.3560	-0.7152	8.26	2.27	-0.750			
0.6659	42614.47	3.3530	3.3531	-0.6969	8.27	2.28	-0.750			
0.6679	42744.44	3.3500	3.3498	-0.6784	8.28	2.29	-0.750			
0.6699	42874.38	3.3470	3.3469	-0.6651	8.29	2.30	-0.750			
0.6719	43000.10	3.3440	3.3440	-0.6529	8.31	2.32	-0.750			
0.6738	43125.56	3.3410	3.3410	-0.6393	8.32	2.33	-0.750			
0.6758	43248.36	3.3380	3.3380	-0.6256	8.33	2.34	-0.750			
0.6776	43364.42	3.3350	3.3350	-0.6090	8.34	2.35	-0.750			
0.6794	43480.41	3.3320	3.3319	-0.5991	8.36	2.37	-0.750			
0.6812	43596.09	3.3290	3.3289	-0.5856	8.37	2.38	-0.750			
0.6829	43707.31	3.3260	3.3261	-0.5705	8.38	2.39	-0.750			
0.6846	43815.17	3.3230	3.3232	-0.5577	8.39	2.40	-0.750			
0.6863	43921.67	3.3200	3.3200	-0.5439	8.40	2.41	-0.750			
0.6879	44023.48	3.3170	3.3168	-0.5282	8.41	2.42	-0.750			
0.6894	44122.16	3.3140	3.3141	-0.5180	8.43	2.44	-0.750			
0.6910	44221.19	3.3110	3.3110	-0.5106	8.44	2.45	-0.750			
0.6925	44318.76	3.3080	3.3079	-0.4989	8.45	2.46	-0.750			
0.6940	44414.11	3.3050	3.3051	-0.4897	8.46	2.47	-0.750			
0.6954	44505.47	3.3020	3.3021	-0.4803	8.48	2.49	-0.750			
0.6968	44597.78	3.2990	3.2990	-0.4734	8.49	2.50	-0.750			
0.6982	44687.75	3.2960	3.2958	-0.4622	8.50	2.51	-0.750			
0.6996	44775.47	3.2930	3.2931	-0.4516	8.51	2.52	-0.750			
0.7010	44861.42	3.2900	3.2901	-0.4445	8.52	2.53	-0.750			
0.7023	44946.00	3.2870	3.2870	-0.4364	8.53	2.54	-0.750			
0.7036	45027.98	3.2840	3.2840	-0.4272	8.54	2.55	-0.750			
0.7048	45108.85	3.2810	3.2810	-0.4195	8.55	2.56	-0.750			
0.7061	45189.76	3.2780	3.2780	-0.4140	8.56	2.57	-0.750			
0.7073	45268.60	3.2750	3.2750	-0.4085	8.57	2.58	-0.750			
0.7085	45346.46	3.2720	3.2720	-0.4012	8.58	2.59	-0.750			
0.7097	45422.23	3.2690	3.2691	-0.3930	8.59	2.60	-0.750			
0.7109	45496.90	3.2660	3.2659	-0.3865	8.60	2.61	-0.750			
0.7120	45570.59	3.2630	3.2631	-0.3792	8.61	2.62	-0.750			
0.7132	45643.41	3.2600	3.2599	-0.3700	8.62	2.63	-0.750			
0.7143	45713.90	3.2570	3.2571	-0.3629	8.63	2.64	-0.750			
0.7153	45782.10	3.2540	3.2540	-0.3558	8.64	2.65	-0.750			
0.7164	45849.09	3.2510	3.2510	-0.3511	8.65	2.66	-0.750			
0.7174	45915.72	3.2480	3.2479	-0.3473	8.66	2.67	-0.750			
0.7185	45981.41	3.2450	3.2451	-0.3438	8.67	2.68	-0.750			
0.7195	46047.65	3.2420	3.2420	-0.3422	8.68	2.69	-0.750			
0.7205	46113.73	3.2390	3.2390	-0.3374	8.69	2.70	-0.750			
0.7215	46178.29	3.2360	3.2361	-0.3324	8.70	2.71	-0.750			
0.7225	46241.58	3.2330	3.2330	-0.3276	8.71	2.72	-0.750			
0.7235	46303.75	3.2300	3.2300	-0.3223	8.72	2.73	-0.750			
0.7245	46364.98	3.2270	3.2270	-0.3190	8.73	2.74	-0.750			
0.7254	46425.92	3.2240	3.2240	-0.3143	8.74	2.75	-0.750			
0.7263	46486.16	3.2210	3.2210	-0.3089	8.75	2.76	-0.750			
0.7273	46545.02	3.2180	3.2181	-0.3053	8.76	2.77	-0.750			
0.7282	46603.26	3.2150	3.2151	-0.3003	8.77	2.78	-0.750			
0.7291	46660.39	3.2120	3.2119	-0.2956	8.78	2.79	-0.750			
0.7299	46716.79	3.2090	3.2090	-0.2890	8.79	2.80	-0.750			
0.7308	46771.11	3.2060	3.2061	-0.2849	8.80	2.81	-0.750			
0.7317	46825.74	3.2030	3.2030	-0.2822	8.81	2.82	-0.750			
0.7325	46879.35	3.2000	3.1999	-0.2788	8.82	2.83	-0.750			
0.7333	46931.98	3.1970	3.1968	-0.2742	8.82	2.83	-0.750			
0.7341	46984.03	3.1940	3.1942	-0.2709	8.83	2.84	-0.750			
0.7349	47036.12	3.1910	3.1910	-0.2693	8.84	2.85	-0.750			
0.7358	47088.13	3.1880	3.1880	-0.2671	8.85	2.86	-0.750			
0.7366	47139.26	3.1850	3.1850	-0.2631	8.86	2.87	-0.750			
0.7373	47188.46	3.1820	3.1821	-0.2589	8.87	2.88	-0.750			
0.7381	47238.10	3.1790	3.1790	-0.2566	8.88	2.89	-0.750			
0.7389	47286.72	3.1760	3.1760	-0.2545	8.89	2.90	-0.750			
0.7396	47335.58	3.1730	3.1729	-0.2521	8.90	2.91	-0.750			
0.7404	47383.51	3.1700	3.1700	-0.2499	8.91	2.92	-0.750			
0.7411	47431.62	3.1670	3.1670	-0.2470	8.92	2.93	-0.750			
0.7419	47478.71	3.1640	3.1641	-0.2458	8.93	2.94	-0.750			
0.7426	47526.05	3.1610	3.1610	-0.2436	8.94	2.95	-0.750			
0.7433	47572.58	3.1580	3.1580	-0.2399	8.95	2.96	-0.750			
0.7440	47618.36	3.1550	3.1549	-0.2370	8.96	2.97	-0.750			
0.7447	47663.54	3.1520	3.1521	-0.2347	8.96	2.97	-0.750			
0.7454	47708.70	3.1490	3.1491	-0.2318	8.97	2.98	-0.750			
0.7461	47752.58	3.1460	3.1460	-0.2289	8.98	2.99	-0.750			
0.7468	47796.49	3.1430	3.1428	-0.2265	8.99	3.00	-0.750			
0.7475	47838.98	3.1400	3.1401	-0.2232	8.99	3.00	-0.750			
0.7482	47881.65	3.1370	3.1370	-0.2223	9.00	3.01	-0.750			
0.7488	47924.18	3.1340	3.1340	-0.2209	9.01	3.02	-0.750			
0.7495	47966.47	3.1310	3.1309	-0.2196	9.02	3.03	-0.750			
0.7501	48008.44	3.1280	3.1280	-0.2171	9.03	3.04	-0.750			
0.7508	48050.21	3.1250	3.1250	-0.2166	9.04	3.05	-0.750			
0.7514	48091.51	3.1220	3.1221	-0.2146	9.05	3.06	-0.750			
0.7521	48132.81	3.1190	3.1189	-0.2111	9.06	3.07	-0.750			
0.7527	48173.32	3.1160	3.1159	-0.2087	9.06	3.07	-0.750			
0.7533	48212.55	3.1130	3.1131	-0.2064	9.07	3.08	-0.750			
0.7539	48251.84	3.1100	3.1101	-0.2044	9.08	3.09	-0.750			
0.7545	48290.80	3.1070	3.1069	-0.2040	9.09	3.10	-0.750			
0.7552	48330.07	3.1040	3.1039	-0.2018	9.10	3.11	-0.750			
0.7558	48368.17	3.1010	3.1010	-0.2003	9.11	3.12	-0.750			
0.7564	48406.60	3.0980	3.0981	-0.2000	9.11	3.12	-0.750			
0.7570	48445.66	3.0950	3.0951	-0.1982	9.12	3.13	-0.750			
0.7576	48483.50	3.0920	3.0919	-0.1969	9.13	3.14	-0.750			
0.7581	48520.64	3.0890	3.0891	-0.1950	9.14	3.15	-0.750			
0.7587	48558.01	3.0860	3.0861	-0.1942	9.15	3.16	-0.750			
0.7593	48595.04	3.0830	3.0829	-0.1933	9.15	3.16	-0.750			
0.7599	48632.37	3.0800	3.0801	-0.1931	9.16	3.17	-0.750			
0.7605	48669.14	3.0770	3.0770	-0.1912	9.17	3.18	-0.750			
0.7610	48705.81	3.0740	3.0741	-0.1907	9.18	3.19	-0.750			
0.7616	48742.85	3.0710	3.0709	-0.1899	9.19	3.20	-0.750			
0.7622	48778.95	3.0680	3.0680	-0.1886	9.20	3.21	-0.750			
0.7627	48815.21	3.0650	3.0650	-0.1870	9.21	3.22	-0.750			
0.7633	48850.96	3.0620	3.0619	-0.1854	9.22	3.23	-0.750			
0.7639	48886.51	3.0590	3.0590	-0.1838	9.23	3.24	-0.750			
0.7644	48921.47	3.0560	3.0561	-0.1825	9.24	3.25	-0.750			
0.7649	48956.42	3.0530	3.0530	-0.1813	9.25	3.26	-0.750			
0.7655	48991.09	3.0500	3.0499	-0.1798	9.25	3.26	-0.750			
0.7660	49025.30	3.0470	3.0470	-0.1790	9.26	3.27	-0.750			
0.7666	49059.33	3.0440	3.0441	-0.1784	9.27	3.28	-0.750			
0.7671	49093.76	3.0410	3.0410	-0.1782	9.28	3.29	-0.750			
0.7676	49127.91	3.0380	3.0379	-0.1776	9.29	3.30	-0.750			
0.7682	49161.97	3.0350	3.0350	-0.1769	9.30	3.31	-0.750			
0.7687	49195.80	3.0320	3.0320	-0.1764	9.31	3.32	-0.750			
0.7692	49229.94	3.0290	3.0290	-0.1757	9.32	3.33	-0.750			
0.7697	49263.55	3.0260	3.0260	-0.1744	9.33	3.34	-0.750			
0.7703	49296.98	3.0230	3.0230	-0.1727	9.34	3.35	-0.750			
0.7708	49330.10	3.0200	3.0201	-0.1708	9.34	3.35	-0.750			
0.7713	49362.64	3.0170	3.0169	-0.1697	9.35	3.36	-0.750			
0.7718	49394.98	3.0140	3.0140	-0.1684	9.36	3.37	-0.750			
0.7723	49427.00	3.0110	3.0110	-0.1669	9.37	3.38	-0.750			
0.7728	49458.63	3.0080	3.0080	-0.1662	9.38	3.39	-0.750			
0.7733	49490.49	3.0050	3.0051	-0.1661	9.39	3.40	-0.750			
0.7738	49522.39	3.0020	3.0020	-0.1669	9.40	3.41	-0.750			
