Ah_balance (normalized)	Ah_balance (mAh)	Voltage - fit (V)	Voltage -  interpolate (V)	dQ/dV (1/V)	Temperature (°C)	Temperature - diff (°C)	Current (C)	R_DC 0ms (mOhm)	R_DC 50ms (mOhm)	R_DC 50 ms PEC (mOhm)
0.0968	6196.11	4.1970	4.1994	0.6672	8.05	2.07	0.750			
0.0991	6343.48	4.1940	4.1961	0.7802	8.05	2.07	0.750			
0.1017	6507.51	4.1910	4.1922	0.8071	8.04	2.06	0.750			
0.1041	6661.66	4.1880	4.1891	0.7973	8.03	2.05	0.750			
0.1069	6843.05	4.1850	4.1850	0.8094	8.02	2.04	0.750			
0.1094	7004.34	4.1820	4.1814	0.7884	8.01	2.03	0.750			
0.1111	7112.30	4.1790	4.1791	0.6990	8.01	2.03	0.750			
0.1132	7246.94	4.1760	4.1760	0.7011	8.00	2.02	0.750			
0.1153	7380.69	4.1730	4.1730	0.6996	8.00	2.02	0.750			
0.1174	7513.87	4.1700	4.1699	0.7026	7.99	2.01	0.750			
0.1195	7649.02	4.1670	4.1671	0.7030	7.99	2.01	0.750			
0.1216	7783.99	4.1640	4.1640	0.7103	7.98	2.00	0.750			
0.1238	7920.83	4.1610	4.1610	0.7183	7.98	2.00	0.750			
0.1259	8058.84	4.1580	4.1577	0.7248	7.97	1.99	0.750			
0.1281	8197.89	4.1550	4.1551	0.7331	7.97	1.99	0.750			
0.1303	8341.65	4.1520	4.1520	0.7366	7.96	1.98	0.750			
0.1326	8485.35	4.1490	4.1490	0.7362	7.95	1.97	0.750			
0.1348	8626.11	4.1460	4.1460	0.7340	7.95	1.97	0.750			
0.1370	8766.32	4.1430	4.1432	0.7383	7.94	1.96	0.750			
0.1392	8907.57	4.1400	4.1400	0.7387	7.94	1.96	0.750			
0.1414	9049.32	4.1370	4.1369	0.7423	7.93	1.95	0.750			
0.1436	9193.14	4.1340	4.1341	0.7388	7.92	1.94	0.750			
0.1459	9336.30	4.1310	4.1310	0.7404	7.92	1.94	0.750			
0.1481	9478.80	4.1280	4.1281	0.7429	7.91	1.93	0.750			
0.1503	9619.01	4.1250	4.1250	0.7449	7.90	1.92	0.750			
0.1525	9762.56	4.1220	4.1219	0.7471	7.90	1.92	0.750			
0.1548	9907.06	4.1190	4.1189	0.7475	7.89	1.91	0.750			
0.1570	10050.34	4.1160	4.1161	0.7518	7.89	1.91	0.750			
0.1593	10195.91	4.1130	4.1132	0.7554	7.88	1.90	0.750			
0.1616	10343.06	4.1100	4.1099	0.7566	7.87	1.89	0.750			
0.1638	10485.23	4.1070	4.1071	0.7573	7.87	1.89	0.750			
0.1661	10631.19	4.1040	4.1040	0.7634	7.86	1.88	0.750			
0.1684	10780.53	4.1010	4.1011	0.7693	7.85	1.87	0.750			
0.1707	10927.08	4.0980	4.0980	0.7767	7.85	1.87	0.750			
0.1731	11075.71	4.0950	4.0951	0.7798	7.84	1.86	0.750			
0.1754	11227.41	4.0920	4.0919	0.7850	7.83	1.85	0.750			
0.1778	11379.68	4.0890	4.0890	0.7903	7.83	1.85	0.750			
0.1801	11529.57	4.0860	4.0861	0.7923	7.82	1.84	0.750			
0.1826	11683.47	4.0830	4.0830	0.7994	7.82	1.84	0.750			
0.1850	11836.83	4.0800	4.0799	0.8045	7.82	1.84	0.750			
0.1873	11990.09	4.0770	4.0770	0.8015	7.81	1.83	0.750			
0.1898	12146.48	4.0740	4.0741	0.8074	7.81	1.83	0.750			
0.1922	12303.38	4.0710	4.0709	0.8121	7.80	1.82	0.750			
0.1947	12458.76	4.0680	4.0681	0.8097	7.80	1.82	0.750			
0.1971	12613.68	4.0650	4.0650	0.8042	7.80	1.82	0.750			
0.1995	12767.67	4.0620	4.0619	0.8075	7.79	1.81	0.750			
0.2019	12921.59	4.0590	4.0589	0.8096	7.79	1.81	0.750			
0.2044	13078.45	4.0560	4.0560	0.8090	7.78	1.80	0.750			
0.2068	13232.17	4.0530	4.0530	0.8132	7.77	1.79	0.750			
0.2092	13389.04	4.0500	4.0501	0.8195	7.76	1.78	0.750			
0.2117	13547.15	4.0470	4.0470	0.8274	7.76	1.78	0.750			
0.2142	13707.11	4.0440	4.0440	0.8317	7.75	1.77	0.750			
0.2167	13867.03	4.0410	4.0410	0.8307	7.74	1.76	0.750			
0.2192	14025.89	4.0380	4.0380	0.8364	7.73	1.75	0.750			
0.2217	14187.56	4.0350	4.0351	0.8446	7.72	1.74	0.750			
0.2242	14349.07	4.0320	4.0320	0.8458	7.72	1.74	0.750			
0.2268	14512.62	4.0290	4.0289	0.8515	7.71	1.73	0.750			
0.2293	14678.17	4.0260	4.0261	0.8516	7.70	1.72	0.750			
0.2319	14842.66	4.0230	4.0230	0.8592	7.70	1.72	0.750			
0.2345	15008.13	4.0200	4.0200	0.8581	7.69	1.71	0.750			
0.2370	15170.16	4.0170	4.0172	0.8570	7.68	1.70	0.750			
0.2396	15333.89	4.0140	4.0139	0.8700	7.68	1.70	0.750			
0.2422	15502.98	4.0110	4.0111	0.8820	7.67	1.69	0.750			
0.2449	15672.94	4.0080	4.0080	0.8883	7.66	1.68	0.750			
0.2476	15845.56	4.0050	4.0049	0.8927	7.66	1.68	0.750			
0.2503	16020.46	4.0020	4.0020	0.8883	7.65	1.67	0.750			
0.2530	16193.12	3.9990	3.9989	0.8883	7.65	1.67	0.750			
0.2556	16360.05	3.9960	3.9961	0.8830	7.64	1.66	0.750			
0.2582	16525.25	3.9930	3.9931	0.8823	7.63	1.65	0.750			
0.2609	16696.67	3.9900	3.9899	0.8897	7.63	1.65	0.750			
0.2636	16867.61	3.9870	3.9868	0.9026	7.62	1.64	0.750			
0.2663	17044.37	3.9840	3.9841	0.9073	7.61	1.63	0.750			
0.2691	17219.45	3.9810	3.9810	0.9161	7.60	1.62	0.750			
0.2718	17396.42	3.9780	3.9781	0.9246	7.59	1.61	0.750			
0.2746	17572.90	3.9750	3.9749	0.9241	7.58	1.60	0.750			
0.2774	17751.80	3.9720	3.9720	0.9304	7.58	1.60	0.750			
0.2802	17931.93	3.9690	3.9690	0.9297	7.57	1.59	0.750			
0.2829	18108.32	3.9660	3.9662	0.9272	7.57	1.59	0.750			
0.2858	18288.15	3.9630	3.9631	0.9404	7.56	1.58	0.750			
0.2885	18466.44	3.9600	3.9596	0.9410	7.56	1.58	0.750			
0.2913	18644.93	3.9570	3.9571	0.9512	7.55	1.57	0.750			
0.2942	18829.58	3.9540	3.9540	0.9668	7.54	1.56	0.750			
0.2972	19020.28	3.9510	3.9511	0.9791	7.53	1.55	0.750			
0.3002	19210.20	3.9480	3.9480	0.9781	7.52	1.54	0.750			
0.3031	19401.14	3.9450	3.9450	0.9829	7.51	1.53	0.750			
0.3061	19589.41	3.9420	3.9422	0.9796	7.51	1.53	0.750			
0.3090	19775.65	3.9390	3.9389	0.9813	7.50	1.52	0.750			
0.3119	19960.92	3.9360	3.9360	0.9846	7.49	1.51	0.750			
0.3149	20152.36	3.9330	3.9330	0.9899	7.48	1.50	0.750			
0.3178	20340.60	3.9300	3.9300	1.0078	7.47	1.49	0.750			
0.3209	20534.89	3.9270	3.9271	1.0218	7.46	1.48	0.750			
0.3239	20731.96	3.9240	3.9239	1.0397	7.45	1.47	0.750			
0.3271	20935.06	3.9210	3.9209	1.0487	7.44	1.46	0.750			
0.3303	21136.77	3.9180	3.9181	1.0671	7.43	1.45	0.750			
0.3335	21344.63	3.9150	3.9150	1.0783	7.42	1.44	0.750			
0.3368	21555.44	3.9120	3.9121	1.0852	7.41	1.43	0.750			
0.3400	21763.12	3.9090	3.9090	1.0831	7.41	1.43	0.750			
0.3433	21971.59	3.9060	3.9061	1.0959	7.40	1.42	0.750			
0.3466	22181.73	3.9030	3.9030	1.1023	7.39	1.41	0.750			
0.3499	22394.37	3.9000	3.8999	1.1167	7.38	1.40	0.750			
0.3532	22607.16	3.8970	3.8971	1.1195	7.37	1.39	0.750			
0.3566	22823.16	3.8940	3.8939	1.1395	7.36	1.38	0.750			
0.3600	23042.86	3.8910	3.8911	1.1605	7.35	1.37	0.750			
0.3636	23268.64	3.8880	3.8878	1.1704	7.34	1.36	0.750			
0.3671	23494.82	3.8850	3.8850	1.1909	7.33	1.35	0.750			
0.3707	23726.30	3.8820	3.8822	1.2052	7.32	1.34	0.750			
0.3744	23960.80	3.8790	3.8789	1.2167	7.31	1.33	0.750			
0.3781	24196.49	3.8760	3.8760	1.2257	7.29	1.31	0.750			
0.3816	24425.59	3.8730	3.8731	1.2480	7.28	1.30	0.750			
0.3854	24667.66	3.8700	3.8701	1.2738	7.26	1.28	0.750			
0.3894	24919.01	3.8670	3.8668	1.2886	7.25	1.27	0.750	0.350	0.875	
0.3932	25166.35	3.8640	3.8643	1.3011	7.23	1.25	0.750			
0.3972	25417.71	3.8610	3.8611	1.3346	7.22	1.24	0.750			
0.4012	25674.79	3.8580	3.8578	1.3653	7.21	1.23	0.750			
0.4053	25939.49	3.8550	3.8551	1.3856	7.20	1.22	0.750			
0.4095	26209.67	3.8520	3.8520	1.3900	7.18	1.20	0.750			
0.4139	26488.04	3.8490	3.8490	1.4086	7.17	1.19	0.750			
0.4180	26753.19	3.8460	3.8462	1.4352	7.15	1.17	0.750			
0.4223	27027.81	3.8430	3.8430	1.4566	7.13	1.15	0.750			
0.4266	27304.39	3.8400	3.8399	1.4871	7.12	1.14	0.750			
0.4311	27592.92	3.8370	3.8369	1.5282	7.10	1.12	0.750			
0.4359	27899.27	3.8340	3.8341	1.5576	7.08	1.10	0.750			
0.4407	28205.31	3.8310	3.8311	1.5749	7.06	1.08	0.750			
0.4455	28510.20	3.8280	3.8281	1.5959	7.05	1.07	0.750			
0.4501	28807.99	3.8250	3.8250	1.6069	7.03	1.05	0.750			
0.4550	29119.30	3.8220	3.8220	1.6261	7.01	1.03	0.750			
0.4599	29436.19	3.8190	3.8191	1.6483	6.99	1.01	0.750			
0.4649	29753.54	3.8160	3.8160	1.6798	6.97	0.99	0.750			
0.4700	30081.79	3.8130	3.8128	1.7209	6.95	0.97	0.750			
0.4752	30412.16	3.8100	3.8098	1.7390	6.93	0.95	0.750			
0.4804	30743.93	3.8070	3.8070	1.7811	6.91	0.93	0.750			
0.4857	31086.08	3.8040	3.8043	1.8258	6.89	0.91	0.750			
0.4914	31448.28	3.8010	3.8008	1.8478	6.87	0.89	0.750			
0.4970	31808.62	3.7980	3.7981	1.8756	6.84	0.86	0.750			
0.5026	32169.48	3.7950	3.7952	1.8915	6.81	0.83	0.750			
0.5084	32538.05	3.7920	3.7919	1.9238	6.80	0.82	0.750			
0.5141	32904.78	3.7890	3.7889	1.9367	6.78	0.80	0.750			
0.5200	33278.65	3.7860	3.7860	1.9683	6.75	0.77	0.750			
0.5260	33661.74	3.7830	3.7831	2.0140	6.72	0.74	0.750			
0.5320	34049.74	3.7800	3.7799	2.0392	6.70	0.72	0.750			
0.5382	34443.01	3.7770	3.7770	2.0607	6.67	0.69	0.750			
0.5444	34841.60	3.7740	3.7741	2.0710	6.65	0.67	0.750			
0.5506	35240.75	3.7710	3.7711	2.1193	6.62	0.64	0.750			
0.5570	35646.65	3.7680	3.7681	2.1608	6.60	0.62	0.750			
0.5635	36063.08	3.7650	3.7648	2.2210	6.57	0.59	0.750			
0.5703	36498.15	3.7620	3.7621	2.2944	6.55	0.57	0.750			
0.5773	36946.93	3.7590	3.7591	2.3883	6.52	0.54	0.750			
0.5847	37421.85	3.7560	3.7560	2.4881	6.49	0.51	0.750			
0.5923	37908.73	3.7530	3.7530	2.5631	6.46	0.48	0.750			
0.6001	38408.99	3.7500	3.7503	2.6787	6.43	0.45	0.750			
0.6083	38929.95	3.7470	3.7468	2.8116	6.40	0.42	0.750			
0.6167	39469.79	3.7440	3.7439	2.9742	6.37	0.39	0.750			
0.6262	40073.96	3.7410	3.7409	3.0950	6.34	0.36	0.750			
0.6356	40676.12	3.7380	3.7381	3.1401	6.30	0.32	0.750			
0.6451	41283.59	3.7350	3.7351	3.0813	6.26	0.28	0.750			
0.6542	41865.75	3.7320	3.7322	2.9156	6.23	0.25	0.750			
0.6628	42419.88	3.7290	3.7290	2.7339	6.21	0.23	0.750			
0.6709	42936.88	3.7260	3.7258	2.4914	6.19	0.21	0.750			
0.6779	43384.66	3.7230	3.7231	2.2025	6.18	0.20	0.750			
0.6838	43765.91	3.7200	3.7200	1.9222	6.16	0.18	0.750			
0.6890	44098.51	3.7170	3.7168	1.6958	6.15	0.17	0.750			
0.6934	44380.41	3.7140	3.7139	1.4793	6.14	0.16	0.750			
0.6975	44639.97	3.7110	3.7110	1.3563	6.13	0.15	0.750			
0.7013	44884.70	3.7080	3.7080	1.2610	6.12	0.14	0.750			
0.7049	45116.66	3.7050	3.7049	1.1941	6.11	0.13	0.750			
0.7084	45334.96	3.7020	3.7019	1.1376	6.10	0.12	0.750			
0.7116	45544.64	3.6990	3.6991	1.1065	6.09	0.11	0.750			
0.7149	45751.97	3.6960	3.6960	1.0760	6.09	0.11	0.750			
0.7181	45959.18	3.6930	3.6929	1.0638	6.08	0.10	0.750			
0.7213	46162.28	3.6900	3.6901	1.0405	6.07	0.09	0.750			
0.7244	46359.66	3.6870	3.6870	1.0227	6.06	0.08	0.750			
0.7274	46554.28	3.6840	3.6840	1.0021	6.06	0.08	0.750			
0.7304	46742.95	3.6810	3.6810	0.9811	6.05	0.07	0.750			
0.7333	46928.29	3.6780	3.6779	0.9664	6.04	0.06	0.750			
0.7362	47113.69	3.6750	3.6750	0.9538	6.04	0.06	0.750			
0.7390	47294.60	3.6720	3.6721	0.9370	6.03	0.05	0.750			
0.7418	47476.25	3.6690	3.6690	0.9147	6.02	0.04	0.750			
0.7445	47646.46	3.6660	3.6661	0.9031	6.02	0.04	0.750			
0.7472	47817.93	3.6630	3.6630	0.8950	6.02	0.04	0.750			
0.7498	47985.37	3.6600	3.6602	0.8830	6.01	0.03	0.750			
0.7524	48154.71	3.6570	3.6568	0.8786	6.01	0.03	0.750			
0.7550	48322.97	3.6540	3.6543	0.8845	6.00	0.02	0.750			
0.7577	48491.60	3.6510	3.6510	0.8974	6.00	0.02	0.750			
0.7604	48665.98	3.6480	3.6480	0.9116	5.99	0.01	0.750			
0.7632	48842.19	3.6450	3.6447	0.9003	5.99	0.01	0.750			
0.7659	49019.00	3.6420	3.6419	0.8920	5.99	0.01	0.750			
0.7687	49196.25	3.6390	3.6391	0.8530	5.99	0.01	0.750			
0.7714	49366.61	3.6360	3.6360	0.8013	5.98	0.00	0.750			
0.7737	49516.43	3.6330	3.6329	0.7060	5.98	0.00	0.750			
0.7757	49644.96	3.6300	3.6301	0.6103	5.98	0.00	0.750			
0.7774	49753.09	3.6270	3.6271	0.5070	5.98	-0.00	0.750			
0.7786	49827.51	3.6240	3.6244	0.4370	5.98	-0.00	0.750			
0.7797	49899.06	3.6210	3.6212	0.3407	5.98	-0.00	0.750			
0.7805	49952.07	3.6180	3.6178	0.2612	5.98	-0.00	0.750			
0.7811	49989.03	3.6150	3.6142	0.1908	5.98	-0.00	0.750			
0.7815	50016.00	3.6120	3.6065	0.1355	5.98	-0.00	0.750			
0.7816	50019.90	3.5940	3.5982	-0.1187	5.98	-0.00	0.750			
0.7818	50034.29	3.6090	3.4639	0.0887	5.98	-0.00	0.757			
0.7819	50038.70	3.5970	3.4208	-0.0772	5.98	-0.00	0.759			
0.7820	50047.34	3.6060	3.3363	0.0472	5.98	-0.00	0.764			
0.7820	50049.54	3.6000	3.3147	-0.0357	5.98	-0.00	0.766			
0.7821	50052.42	3.6030	3.2866	0.0057	5.98	-0.00	0.767			
