Ah_balance (normalized)	Ah_balance (mAh)	Voltage - fit (V)	Voltage -  interpolate (V)	dQ/dV (1/V)	Temperature (°C)	Temperature - diff (°C)	Current (C)	R_DC 0ms (mOhm)	R_DC 50ms (mOhm)	R_DC 50 ms PEC (mOhm)
0.0000	0.00	4.0880	4.1296	0.0000	5.99	0.00	-0.751			
0.0000	0.00	4.0910	4.1296	0.0000	5.99	0.00	-0.751			
0.0000	0.00	4.0940	4.1296	0.0000	5.99	0.00	-0.751			
0.0002	14.38	4.0850	4.0854	-0.0573	5.99	0.00	-0.750			
0.0004	27.84	4.0820	4.0820	-0.0834	5.99	0.00	-0.750			
0.0007	46.37	4.0790	4.0790	-0.1095	5.99	0.00	-0.750			
0.0011	70.15	4.0760	4.0758	-0.1342	5.99	0.00	-0.750			
0.0015	98.57	4.0730	4.0730	-0.1580	5.99	-0.00	-0.750			
0.0021	131.35	4.0700	4.0700	-0.1812	5.99	-0.00	-0.750			
0.0027	170.02	4.0670	4.0671	-0.2055	5.99	-0.00	-0.750			
0.0033	211.82	4.0640	4.0640	-0.2255	5.99	-0.00	-0.750			
0.0040	257.88	4.0610	4.0610	-0.2450	5.99	-0.00	-0.750			
0.0048	305.93	4.0580	4.0581	-0.2667	5.99	-0.00	-0.750			
0.0056	359.21	4.0550	4.0550	-0.2879	5.99	-0.00	-0.750			
0.0065	416.54	4.0520	4.0519	-0.3072	5.99	-0.00	-0.750			
0.0075	476.96	4.0490	4.0489	-0.3291	5.99	-0.00	-0.750			
0.0085	542.25	4.0460	4.0462	-0.3511	5.98	-0.01	-0.750			
0.0096	612.09	4.0430	4.0430	-0.3741	5.98	-0.01	-0.750			
0.0107	685.89	4.0400	4.0399	-0.3968	5.98	-0.01	-0.750			
0.0119	763.51	4.0370	4.0371	-0.4169	5.98	-0.01	-0.750			
0.0132	846.44	4.0340	4.0340	-0.4411	5.98	-0.01	-0.750			
0.0146	934.07	4.0310	4.0311	-0.4647	5.98	-0.01	-0.750			
0.0160	1025.57	4.0280	4.0280	-0.4815	5.98	-0.01	-0.750			
0.0175	1119.94	4.0250	4.0250	-0.5017	5.98	-0.01	-0.750			
0.0190	1217.73	4.0220	4.0221	-0.5211	5.98	-0.01	-0.750			
0.0206	1319.84	4.0190	4.0189	-0.5382	5.99	-0.00	-0.750			
0.0223	1425.92	4.0160	4.0159	-0.5526	5.99	-0.00	-0.750			
0.0240	1533.66	4.0130	4.0131	-0.5640	5.99	-0.00	-0.750			
0.0257	1643.31	4.0100	4.0101	-0.5798	5.99	-0.00	-0.750			
0.0274	1756.45	4.0070	4.0069	-0.5932	5.99	0.00	-0.750			
0.0292	1870.32	4.0040	4.0040	-0.6019	5.99	0.00	-0.750			
0.0311	1987.91	4.0010	4.0011	-0.6098	6.00	0.01	-0.750			
0.0329	2106.77	3.9980	3.9980	-0.6212	6.00	0.01	-0.750			
0.0348	2227.44	3.9950	3.9950	-0.6271	6.00	0.01	-0.750			
0.0367	2347.51	3.9920	3.9921	-0.6367	6.01	0.02	-0.750			
0.0386	2470.04	3.9890	3.9889	-0.6409	6.01	0.02	-0.750			
0.0405	2593.95	3.9860	3.9861	-0.6498	6.02	0.03	-0.750			
0.0425	2720.07	3.9830	3.9831	-0.6574	6.02	0.03	-0.750			
0.0445	2848.85	3.9800	3.9800	-0.6647	6.03	0.04	-0.750			
0.0465	2976.35	3.9770	3.9769	-0.6649	6.04	0.05	-0.750			
0.0485	3104.60	3.9740	3.9741	-0.6678	6.05	0.06	-0.750			
0.0505	3231.32	3.9710	3.9710	-0.6737	6.06	0.07	-0.750			
0.0525	3360.97	3.9680	3.9679	-0.6857	6.06	0.07	-0.750			
0.0546	3491.47	3.9650	3.9649	-0.6984	6.06	0.07	-0.750			
0.0567	3627.08	3.9620	3.9621	-0.7094	6.07	0.08	-0.750			
0.0589	3766.93	3.9590	3.9590	-0.7086	6.07	0.08	-0.750			
0.0610	3905.93	3.9560	3.9560	-0.7080	6.08	0.09	-0.750			
0.0632	4042.23	3.9530	3.9532	-0.7071	6.08	0.09	-0.750			
0.0652	4175.76	3.9500	3.9498	-0.7063	6.08	0.09	-0.750			
0.0673	4309.40	3.9470	3.9470	-0.7014	6.09	0.10	-0.750			
0.0694	4442.29	3.9440	3.9441	-0.7111	6.10	0.11	-0.750			
0.0716	4580.54	3.9410	3.9410	-0.7191	6.10	0.11	-0.750			
0.0738	4720.85	3.9380	3.9378	-0.7215	6.11	0.12	-0.750			
0.0759	4860.37	3.9350	3.9350	-0.7203	6.12	0.13	-0.750			
0.0781	4997.72	3.9320	3.9323	-0.7220	6.13	0.14	-0.750			
0.0803	5136.09	3.9290	3.9288	-0.7216	6.14	0.15	-0.750			
0.0824	5275.07	3.9260	3.9261	-0.7279	6.14	0.15	-0.750			
0.0846	5414.09	3.9230	3.9230	-0.7225	6.15	0.16	-0.750			
0.0868	5555.19	3.9200	3.9199	-0.7285	6.16	0.17	-0.750			
0.0890	5695.09	3.9170	3.9170	-0.7289	6.17	0.18	-0.750			
0.0912	5834.06	3.9140	3.9141	-0.7285	6.18	0.19	-0.750			
0.0933	5971.46	3.9110	3.9109	-0.7311	6.19	0.20	-0.750			
0.0955	6113.37	3.9080	3.9080	-0.7366	6.20	0.21	-0.750			
0.0978	6256.45	3.9050	3.9049	-0.7374	6.21	0.22	-0.750			
0.1000	6399.25	3.9020	3.9020	-0.7425	6.21	0.22	-0.750			
0.1022	6542.29	3.8990	3.8991	-0.7441	6.22	0.23	-0.750			
0.1045	6684.97	3.8960	3.8959	-0.7432	6.23	0.24	-0.750			
0.1067	6826.39	3.8930	3.8929	-0.7402	6.24	0.25	-0.750			
0.1089	6967.88	3.8900	3.8901	-0.7392	6.24	0.25	-0.750			
0.1111	7111.49	3.8870	3.8871	-0.7460	6.25	0.26	-0.750			
0.1134	7254.70	3.8840	3.8839	-0.7523	6.26	0.27	-0.750			
0.1156	7398.55	3.8810	3.8810	-0.7497	6.27	0.28	-0.750			
0.1179	7543.39	3.8780	3.8780	-0.7475	6.27	0.28	-0.750			
0.1201	7687.16	3.8750	3.8750	-0.7542	6.28	0.29	-0.750			
0.1224	7832.87	3.8720	3.8720	-0.7574	6.29	0.30	-0.750			
0.1247	7978.54	3.8690	3.8690	-0.7605	6.29	0.30	-0.750			
0.1269	8124.30	3.8660	3.8661	-0.7603	6.30	0.31	-0.750			
0.1292	8270.10	3.8630	3.8630	-0.7606	6.31	0.32	-0.750			
0.1315	8418.66	3.8600	3.8600	-0.7645	6.32	0.33	-0.750			
0.1338	8565.27	3.8570	3.8570	-0.7623	6.33	0.34	-0.750			
0.1361	8710.98	3.8540	3.8540	-0.7601	6.34	0.35	-0.750			
0.1384	8856.66	3.8510	3.8509	-0.7566	6.35	0.36	-0.750			
0.1406	9000.94	3.8480	3.8480	-0.7548	6.36	0.37	-0.750			
0.1429	9146.45	3.8450	3.8450	-0.7512	6.37	0.38	-0.750			
0.1451	9288.16	3.8420	3.8421	-0.7613	6.37	0.38	-0.750			
0.1474	9435.10	3.8390	3.8389	-0.7660	6.38	0.39	-0.750			
0.1498	9584.58	3.8360	3.8359	-0.7668	6.39	0.40	-0.750			
0.1521	9732.48	3.8330	3.8331	-0.7687	6.40	0.41	-0.750			
0.1544	9881.34	3.8300	3.8302	-0.7695	6.41	0.42	-0.750			
0.1567	10028.87	3.8270	3.8269	-0.7654	6.42	0.43	-0.750			
0.1589	10172.50	3.8240	3.8240	-0.7566	6.42	0.43	-0.750			
0.1612	10319.10	3.8210	3.8210	-0.7596	6.43	0.44	-0.750			
0.1635	10464.32	3.8180	3.8180	-0.7655	6.44	0.45	-0.750			
0.1658	10612.93	3.8150	3.8150	-0.7654	6.45	0.46	-0.750			
0.1681	10758.53	3.8120	3.8120	-0.7696	6.46	0.47	-0.750			
0.1704	10908.35	3.8090	3.8090	-0.7703	6.47	0.48	-0.750			
0.1727	11054.95	3.8060	3.8060	-0.7704	6.48	0.49	-0.750			
0.1751	11203.34	3.8030	3.8029	-0.7738	6.48	0.49	-0.750			
0.1774	11352.96	3.8000	3.8001	-0.7756	6.49	0.50	-0.750			
0.1797	11500.90	3.7970	3.7969	-0.7749	6.50	0.51	-0.750			
0.1821	11651.31	3.7940	3.7941	-0.7758	6.51	0.52	-0.750			
0.1844	11799.47	3.7910	3.7910	-0.7722	6.52	0.53	-0.750			
0.1867	11949.42	3.7880	3.7880	-0.7731	6.52	0.53	-0.750			
0.1890	12097.30	3.7850	3.7850	-0.7663	6.53	0.54	-0.750			
0.1913	12244.35	3.7820	3.7820	-0.7608	6.54	0.55	-0.750			
0.1936	12388.18	3.7790	3.7790	-0.7674	6.55	0.56	-0.750			
0.1959	12534.89	3.7760	3.7760	-0.7707	6.56	0.57	-0.750			
0.1982	12682.18	3.7730	3.7729	-0.7782	6.57	0.58	-0.750			
0.2005	12832.28	3.7700	3.7699	-0.7867	6.58	0.59	-0.750			
0.2029	12986.58	3.7670	3.7670	-0.7967	6.59	0.60	-0.750			
0.2053	13141.62	3.7640	3.7640	-0.8014	6.60	0.61	-0.750			
0.2077	13295.96	3.7610	3.7610	-0.8046	6.61	0.62	-0.750			
0.2101	13449.32	3.7580	3.7580	-0.8007	6.61	0.62	-0.750			
0.2126	13605.41	3.7550	3.7550	-0.7978	6.62	0.63	-0.750			
0.2150	13756.83	3.7520	3.7520	-0.7949	6.63	0.64	-0.750			
0.2173	13906.53	3.7490	3.7491	-0.8048	6.64	0.65	-0.750			
0.2197	14061.60	3.7460	3.7459	-0.8123	6.64	0.65	-0.750			
0.2222	14218.12	3.7430	3.7428	-0.8195	6.65	0.66	-0.750			
0.2247	14379.00	3.7400	3.7399	-0.8176	6.66	0.67	-0.750			
0.2272	14540.46	3.7370	3.7371	-0.8213	6.66	0.67	-0.750			
0.2296	14697.48	3.7340	3.7341	-0.8203	6.67	0.68	-0.750			
0.2321	14852.05	3.7310	3.7310	-0.8088	6.68	0.69	-0.750			
0.2344	15002.91	3.7280	3.7279	-0.7994	6.69	0.70	-0.750			
0.2369	15158.83	3.7250	3.7249	-0.8031	6.70	0.71	-0.750			
0.2392	15311.31	3.7220	3.7222	-0.8110	6.71	0.72	-0.750			
0.2417	15468.25	3.7190	3.7190	-0.8223	6.72	0.73	-0.750			
0.2442	15627.69	3.7160	3.7159	-0.8324	6.73	0.74	-0.750			
0.2467	15789.01	3.7130	3.7129	-0.8369	6.73	0.74	-0.750			
0.2492	15951.32	3.7100	3.7100	-0.8483	6.74	0.75	-0.750			
0.2518	16116.06	3.7070	3.7071	-0.8495	6.75	0.76	-0.750			
0.2544	16279.24	3.7040	3.7041	-0.8607	6.76	0.77	-0.750			
0.2569	16442.98	3.7010	3.7009	-0.8616	6.77	0.78	-0.750			
0.2595	16606.82	3.6980	3.6979	-0.8697	6.78	0.79	-0.750			
0.2621	16776.98	3.6950	3.6949	-0.8813	6.78	0.79	-0.750			
0.2648	16945.99	3.6920	3.6922	-0.8874	6.79	0.80	-0.750			
0.2675	17119.39	3.6890	3.6889	-0.8947	6.80	0.81	-0.750			
0.2702	17293.17	3.6860	3.6860	-0.8998	6.80	0.81	-0.750			
0.2729	17465.36	3.6830	3.6829	-0.8950	6.80	0.81	-0.750			
0.2756	17639.16	3.6800	3.6800	-0.8990	6.81	0.82	-0.750			
0.2783	17810.64	3.6770	3.6769	-0.8983	6.81	0.82	-0.750			
0.2810	17983.33	3.6740	3.6741	-0.9008	6.82	0.83	-0.750			
0.2837	18154.17	3.6710	3.6709	-0.9039	6.83	0.84	-0.750			
0.2864	18328.83	3.6680	3.6680	-0.9072	6.83	0.84	-0.750			
0.2891	18504.52	3.6650	3.6652	-0.9118	6.84	0.85	-0.750			
0.2919	18679.55	3.6620	3.6621	-0.9197	6.84	0.85	-0.750			
0.2947	18858.25	3.6590	3.6590	-0.9217	6.85	0.86	-0.750			
0.2974	19034.17	3.6560	3.6559	-0.9298	6.85	0.86	-0.750			
0.3002	19212.53	3.6530	3.6530	-0.9359	6.86	0.87	-0.750			
0.3030	19391.64	3.6500	3.6500	-0.9495	6.86	0.87	-0.750			
0.3059	19577.60	3.6470	3.6470	-0.9688	6.87	0.88	-0.750			
0.3088	19764.19	3.6440	3.6440	-0.9819	6.88	0.89	-0.750			
0.3118	19955.36	3.6410	3.6409	-0.9944	6.88	0.89	-0.750			
0.3149	20150.45	3.6380	3.6380	-1.0016	6.89	0.90	-0.750			
0.3179	20344.32	3.6350	3.6349	-1.0022	6.89	0.90	-0.750			
0.3209	20539.37	3.6320	3.6321	-0.9970	6.90	0.91	-0.750			
0.3239	20727.68	3.6290	3.6289	-0.9902	6.90	0.91	-0.750			
0.3268	20916.60	3.6260	3.6261	-1.0042	6.90	0.91	-0.750			
0.3298	21104.59	3.6230	3.6230	-1.0046	6.91	0.92	-0.750			
0.3328	21300.12	3.6200	3.6198	-1.0117	6.91	0.92	-0.750			
0.3359	21498.49	3.6170	3.6170	-1.0272	6.92	0.93	-0.750			
0.3390	21695.84	3.6140	3.6142	-1.0443	6.92	0.93	-0.750			
0.3422	21899.49	3.6110	3.6110	-1.0509	6.93	0.94	-0.750			
0.3453	22101.89	3.6080	3.6079	-1.0524	6.93	0.94	-0.750			
0.3485	22303.28	3.6050	3.6050	-1.0601	6.94	0.95	-0.750			
0.3517	22506.85	3.6020	3.6022	-1.0721	6.94	0.95	-0.750			
0.3550	22717.23	3.5990	3.5989	-1.0738	6.94	0.95	-0.750			
0.3582	22924.65	3.5960	3.5959	-1.0652	6.95	0.96	-0.750			
0.3614	23127.07	3.5930	3.5931	-1.0626	6.95	0.96	-0.750			
0.3645	23327.87	3.5900	3.5902	-1.0869	6.95	0.96	-0.750			
0.3678	23536.95	3.5870	3.5868	-1.0954	6.96	0.97	-0.750			
0.3711	23747.28	3.5840	3.5838	-1.1038	6.96	0.97	-0.750			
0.3744	23963.06	3.5810	3.5808	-1.1132	6.97	0.98	-0.750	0.396	0.829	
0.3778	24182.26	3.5780	3.5781	-1.1411	6.97	0.98	-0.750			
0.3813	24402.50	3.5750	3.5749	-1.1462	6.97	0.98	-0.750			
0.3847	24620.78	3.5720	3.5719	-1.1507	6.98	0.99	-0.750			
0.3881	24841.28	3.5690	3.5691	-1.1537	6.98	0.99	-0.750			
0.3916	25065.49	3.5660	3.5660	-1.1688	6.98	0.99	-0.750			
0.3952	25292.74	3.5630	3.5631	-1.1745	6.99	1.00	-0.750			
0.3987	25517.56	3.5600	3.5599	-1.1794	7.00	1.01	-0.750			
0.4022	25741.52	3.5570	3.5571	-1.1834	7.00	1.01	-0.750			
0.4058	25971.34	3.5540	3.5539	-1.1966	7.01	1.02	-0.750			
0.4094	26204.27	3.5510	3.5509	-1.1911	7.01	1.02	-0.750			
0.4130	26434.01	3.5480	3.5479	-1.2027	7.02	1.03	-0.750			
0.4166	26664.00	3.5450	3.5450	-1.2089	7.02	1.03	-0.750			
0.4202	26895.60	3.5420	3.5418	-1.2265	7.03	1.04	-0.750			
0.4239	27129.11	3.5390	3.5389	-1.2333	7.04	1.05	-0.750			
0.4276	27369.04	3.5360	3.5360	-1.2434	7.04	1.05	-0.750			
0.4315	27616.14	3.5330	3.5331	-1.2489	7.04	1.05	-0.750			
0.4353	27859.56	3.5300	3.5299	-1.2448	7.05	1.06	-0.750			
0.4389	28091.79	3.5270	3.5275	-1.2444	7.05	1.06	-0.750			
0.4426	28328.72	3.5240	3.5237	-1.2414	7.06	1.07	-0.750			
0.4463	28565.61	3.5210	3.5210	-1.2448	7.07	1.08	-0.750			
0.4501	28805.22	3.5180	3.5179	-1.2542	7.08	1.09	-0.750			
0.4540	29052.84	3.5150	3.5151	-1.2706	7.09	1.10	-0.750			
0.4578	29297.45	3.5120	3.5119	-1.2642	7.10	1.11	-0.750			
0.4615	29536.24	3.5090	3.5090	-1.2640	7.10	1.11	-0.750			
0.4652	29775.55	3.5060	3.5061	-1.2589	7.11	1.12	-0.750			
0.4691	30022.26	3.5030	3.5029	-1.2559	7.12	1.13	-0.750			
0.4728	30261.71	3.5000	3.4999	-1.2512	7.12	1.13	-0.750			
0.4765	30498.48	3.4970	3.4973	-1.2589	7.13	1.14	-0.750			
0.4803	30740.68	3.4940	3.4939	-1.2693	7.14	1.15	-0.750			
0.4842	30986.14	3.4910	3.4908	-1.2698	7.15	1.16	-0.750			
0.4880	31230.25	3.4880	3.4880	-1.2695	7.16	1.17	-0.750			
0.4919	31478.77	3.4850	3.4851	-1.2615	7.17	1.18	-0.750			
0.4957	31723.45	3.4820	3.4820	-1.2492	7.18	1.19	-0.750			
0.4994	31958.43	3.4790	3.4791	-1.2287	7.19	1.20	-0.750			
0.5030	32189.63	3.4760	3.4759	-1.2178	7.19	1.20	-0.750			
0.5066	32421.18	3.4730	3.4730	-1.2091	7.21	1.22	-0.750			
0.5102	32653.41	3.4700	3.4700	-1.2082	7.22	1.23	-0.750			
0.5138	32883.83	3.4670	3.4672	-1.2142	7.23	1.24	-0.750			
0.5175	33120.44	3.4640	3.4639	-1.2115	7.24	1.25	-0.750			
0.5211	33351.95	3.4610	3.4609	-1.2060	7.25	1.26	-0.750			
0.5247	33583.12	3.4580	3.4580	-1.1974	7.26	1.27	-0.750			
0.5284	33814.97	3.4550	3.4548	-1.1919	7.28	1.29	-0.750			
0.5319	34042.47	3.4520	3.4520	-1.1767	7.29	1.30	-0.750			
0.5354	34266.14	3.4490	3.4490	-1.1613	7.30	1.31	-0.750			
0.5388	34483.95	3.4460	3.4462	-1.1557	7.31	1.32	-0.750			
0.5423	34708.85	3.4430	3.4428	-1.1545	7.32	1.33	-0.750			
0.5457	34927.96	3.4400	3.4400	-1.1402	7.33	1.34	-0.750			
0.5492	35147.00	3.4370	3.4370	-1.1308	7.34	1.35	-0.750			
0.5526	35367.45	3.4340	3.4340	-1.1335	7.35	1.36	-0.750			
0.5560	35584.14	3.4310	3.4310	-1.1136	7.37	1.38	-0.750			
0.5593	35794.67	3.4280	3.4279	-1.0946	7.38	1.39	-0.750			
0.5625	36000.54	3.4250	3.4251	-1.0753	7.39	1.40	-0.750			
0.5657	36206.77	3.4220	3.4219	-1.0777	7.41	1.42	-0.750			
0.5689	36411.49	3.4190	3.4190	-1.0705	7.42	1.43	-0.750			
0.5721	36616.43	3.4160	3.4158	-1.0596	7.44	1.45	-0.750			
0.5753	36818.71	3.4130	3.4130	-1.0462	7.45	1.46	-0.750			
0.5785	37023.12	3.4100	3.4100	-1.0425	7.47	1.48	-0.750			
0.5816	37223.12	3.4070	3.4070	-1.0233	7.48	1.49	-0.750			
0.5847	37418.79	3.4040	3.4040	-1.0000	7.50	1.51	-0.750			
0.5876	37603.62	3.4010	3.4010	-0.9915	7.51	1.52	-0.750			
0.5905	37793.42	3.3980	3.3978	-0.9788	7.53	1.54	-0.750			
0.5935	37982.70	3.3950	3.3949	-0.9604	7.54	1.55	-0.750			
0.5964	38167.97	3.3920	3.3922	-0.9407	7.56	1.57	-0.750			
0.5991	38345.07	3.3890	3.3891	-0.9174	7.57	1.58	-0.750			
0.6019	38518.89	3.3860	3.3860	-0.9075	7.58	1.59	-0.750			
0.6045	38687.27	3.3830	3.3829	-0.8906	7.60	1.61	-0.750			
0.6071	38854.05	3.3800	3.3800	-0.8740	7.61	1.62	-0.750			
0.6098	39024.61	3.3770	3.3769	-0.8695	7.63	1.64	-0.750			
0.6124	39194.26	3.3740	3.3741	-0.8598	7.64	1.65	-0.750			
0.6150	39358.75	3.3710	3.3710	-0.8366	7.66	1.67	-0.750			
0.6174	39515.14	3.3680	3.3681	-0.8192	7.67	1.68	-0.750			
0.6198	39670.32	3.3650	3.3650	-0.7982	7.68	1.69	-0.750			
0.6222	39818.81	3.3620	3.3620	-0.7816	7.70	1.71	-0.750			
0.6245	39968.32	3.3590	3.3589	-0.7709	7.71	1.72	-0.750			
0.6268	40114.82	3.3560	3.3562	-0.7610	7.72	1.73	-0.750			
0.6291	40260.21	3.3530	3.3530	-0.7494	7.74	1.75	-0.750			
0.6313	40404.22	3.3500	3.3500	-0.7377	7.75	1.76	-0.750			
0.6335	40544.24	3.3470	3.3470	-0.7170	7.77	1.78	-0.750			
0.6356	40681.32	3.3440	3.3440	-0.7024	7.78	1.79	-0.750			
0.6377	40813.09	3.3410	3.3409	-0.6869	7.79	1.80	-0.750			
0.6397	40942.96	3.3380	3.3379	-0.6707	7.81	1.82	-0.750			
0.6417	41070.11	3.3350	3.3350	-0.6546	7.82	1.83	-0.750			
0.6437	41194.07	3.3320	3.3321	-0.6427	7.83	1.84	-0.750			
0.6456	41315.67	3.3290	3.3290	-0.6290	7.85	1.86	-0.750			
0.6474	41436.73	3.3260	3.3260	-0.6192	7.86	1.87	-0.750			
0.6493	41552.60	3.3230	3.3229	-0.6056	7.87	1.88	-0.750			
0.6511	41667.60	3.3200	3.3199	-0.5920	7.89	1.90	-0.750			
0.6528	41779.73	3.3170	3.3171	-0.5861	7.90	1.91	-0.750			
0.6545	41890.98	3.3140	3.3139	-0.5801	7.91	1.92	-0.750			
0.6563	42001.94	3.3110	3.3111	-0.5700	7.92	1.93	-0.750			
0.6580	42111.99	3.3080	3.3079	-0.5612	7.94	1.95	-0.750			
0.6597	42219.94	3.3050	3.3051	-0.5510	7.95	1.96	-0.750			
0.6613	42324.65	3.3020	3.3020	-0.5394	7.96	1.97	-0.750			
0.6629	42427.25	3.2990	3.2990	-0.5277	7.97	1.98	-0.750			
0.6645	42525.68	3.2960	3.2959	-0.5128	7.99	2.00	-0.750			
0.6660	42621.68	3.2930	3.2930	-0.5028	8.00	2.01	-0.750			
0.6675	42718.05	3.2900	3.2900	-0.4959	8.01	2.02	-0.750			
0.6689	42812.49	3.2870	3.2869	-0.4899	8.03	2.04	-0.750			
0.6704	42904.85	3.2840	3.2840	-0.4850	8.04	2.05	-0.750			
0.6718	42998.21	3.2810	3.2810	-0.4767	8.05	2.06	-0.750			
0.6733	43089.83	3.2780	3.2779	-0.4696	8.07	2.08	-0.750			
0.6747	43179.64	3.2750	3.2750	-0.4599	8.08	2.09	-0.750			
0.6761	43267.31	3.2720	3.2720	-0.4479	8.09	2.10	-0.750			
0.6774	43351.75	3.2690	3.2689	-0.4402	8.10	2.11	-0.750			
0.6787	43434.39	3.2660	3.2659	-0.4298	8.11	2.12	-0.750			
0.6799	43514.75	3.2630	3.2631	-0.4231	8.13	2.14	-0.750			
0.6812	43596.91	3.2600	3.2600	-0.4192	8.14	2.15	-0.750			
0.6825	43677.24	3.2570	3.2570	-0.4148	8.15	2.16	-0.750			
0.6837	43756.33	3.2540	3.2541	-0.4126	8.17	2.18	-0.750			
0.6849	43835.74	3.2510	3.2509	-0.4090	8.18	2.19	-0.750			
0.6862	43913.71	3.2480	3.2479	-0.4009	8.19	2.20	-0.750			
0.6874	43991.13	3.2450	3.2450	-0.3936	8.21	2.22	-0.750			
0.6885	44065.47	3.2420	3.2422	-0.3848	8.22	2.23	-0.750			
0.6897	44139.03	3.2390	3.2389	-0.3816	8.23	2.24	-0.750			
0.6908	44210.55	3.2360	3.2359	-0.3717	8.24	2.25	-0.750			
0.6919	44280.51	3.2330	3.2329	-0.3660	8.25	2.26	-0.750			
0.6930	44349.84	3.2300	3.2301	-0.3616	8.26	2.27	-0.750			
0.6941	44420.86	3.2270	3.2270	-0.3576	8.28	2.29	-0.750			
0.6951	44488.66	3.2240	3.2240	-0.3515	8.29	2.30	-0.750			
0.6962	44555.31	3.2210	3.2210	-0.3443	8.30	2.31	-0.750			
0.6972	44620.24	3.2180	3.2180	-0.3387	8.31	2.32	-0.750			
0.6982	44684.75	3.2150	3.2149	-0.3360	8.32	2.33	-0.750			
0.6992	44748.11	3.2120	3.2121	-0.3332	8.33	2.34	-0.750			
0.7002	44811.90	3.2090	3.2089	-0.3301	8.34	2.35	-0.750			
0.7012	44875.58	3.2060	3.2061	-0.3285	8.35	2.36	-0.750			
0.7022	44938.95	3.2030	3.2030	-0.3236	8.36	2.37	-0.750			
0.7031	45001.10	3.2000	3.1999	-0.3199	8.37	2.38	-0.750			
0.7041	45061.77	3.1970	3.1971	-0.3164	8.38	2.39	-0.750			
0.7050	45121.21	3.1940	3.1941	-0.3128	8.40	2.41	-0.750			
0.7060	45181.12	3.1910	3.1908	-0.3083	8.41	2.42	-0.750			
0.7069	45240.33	3.1880	3.1880	-0.3064	8.42	2.43	-0.750			
0.7078	45299.07	3.1850	3.1850	-0.3021	8.43	2.44	-0.750			
0.7087	45356.79	3.1820	3.1820	-0.2987	8.44	2.45	-0.750			
0.7096	45413.33	3.1790	3.1789	-0.2942	8.45	2.46	-0.750			
0.7105	45468.83	3.1760	3.1761	-0.2914	8.46	2.47	-0.750			
0.7113	45524.27	3.1730	3.1729	-0.2880	8.47	2.48	-0.750			
0.7122	45579.91	3.1700	3.1699	-0.2871	8.48	2.49	-0.750			
0.7130	45634.70	3.1670	3.1671	-0.2848	8.49	2.50	-0.750			
0.7139	45689.47	3.1640	3.1643	-0.2843	8.50	2.51	-0.750			
0.7147	45743.92	3.1610	3.1610	-0.2824	8.51	2.52	-0.750			
0.7156	45798.28	3.1580	3.1579	-0.2802	8.52	2.53	-0.750			
0.7164	45851.21	3.1550	3.1550	-0.2769	8.53	2.54	-0.750			
0.7173	45904.86	3.1520	3.1520	-0.2754	8.55	2.56	-0.750			
0.7181	45957.31	3.1490	3.1490	-0.2719	8.56	2.57	-0.750			
0.7189	46009.37	3.1460	3.1460	-0.2682	8.57	2.58	-0.750			
0.7197	46060.42	3.1430	3.1430	-0.2639	8.58	2.59	-0.750			
0.7205	46110.97	3.1400	3.1399	-0.2603	8.59	2.60	-0.750			
0.7213	46160.78	3.1370	3.1370	-0.2558	8.60	2.61	-0.750			
0.7220	46208.83	3.1340	3.1340	-0.2527	8.61	2.62	-0.750			
0.7228	46256.62	3.1310	3.1310	-0.2514	8.62	2.63	-0.750			
0.7235	46304.68	3.1280	3.1279	-0.2514	8.63	2.64	-0.750			
0.7243	46352.92	3.1250	3.1250	-0.2490	8.64	2.65	-0.750			
0.7250	46400.85	3.1220	3.1220	-0.2485	8.65	2.66	-0.750			
0.7258	46449.29	3.1190	3.1189	-0.2465	8.66	2.67	-0.750			
0.7265	46496.62	3.1160	3.1161	-0.2445	8.67	2.68	-0.750			
0.7272	46542.37	3.1130	3.1130	-0.2412	8.68	2.69	-0.750			
0.7279	46588.48	3.1100	3.1100	-0.2391	8.69	2.70	-0.750			
0.7287	46633.77	3.1070	3.1069	-0.2367	8.70	2.71	-0.750			
0.7294	46678.61	3.1040	3.1040	-0.2352	8.72	2.73	-0.750			
0.7301	46724.35	3.1010	3.1010	-0.2346	8.73	2.74	-0.750			
0.7308	46769.22	3.0980	3.0981	-0.2328	8.74	2.75	-0.750			
0.7315	46813.97	3.0950	3.0950	-0.2313	8.75	2.76	-0.750			
0.7322	46858.21	3.0920	3.0920	-0.2291	8.76	2.77	-0.750			
0.7328	46901.78	3.0890	3.0891	-0.2265	8.77	2.78	-0.750			
0.7335	46945.10	3.0860	3.0859	-0.2246	8.78	2.79	-0.750			
0.7342	46988.12	3.0830	3.0830	-0.2231	8.79	2.80	-0.750			
0.7348	47030.36	3.0800	3.0800	-0.2213	8.80	2.81	-0.750			
0.7355	47072.75	3.0770	3.0770	-0.2203	8.81	2.82	-0.750			
0.7362	47114.99	3.0740	3.0740	-0.2197	8.82	2.83	-0.750			
0.7368	47156.84	3.0710	3.0710	-0.2186	8.83	2.84	-0.750			
0.7375	47198.86	3.0680	3.0681	-0.2181	8.84	2.85	-0.750			
0.7381	47240.76	3.0650	3.0650	-0.2171	8.85	2.86	-0.750			
0.7388	47282.66	3.0620	3.0619	-0.2156	8.86	2.87	-0.750			
0.7394	47324.07	3.0590	3.0589	-0.2141	8.87	2.88	-0.750			
0.7401	47364.93	3.0560	3.0560	-0.2127	8.88	2.89	-0.750			
0.7407	47405.60	3.0530	3.0531	-0.2111	8.89	2.90	-0.750			
0.7413	47445.52	3.0500	3.0500	-0.2101	8.90	2.91	-0.750			
0.7420	47485.81	3.0470	3.0469	-0.2096	8.91	2.92	-0.750			
0.7426	47525.86	3.0440	3.0440	-0.2081	8.92	2.93	-0.750			
0.7432	47565.71	3.0410	3.0410	-0.2078	8.93	2.94	-0.750			
0.7438	47606.15	3.0380	3.0380	-0.2071	8.94	2.95	-0.750			
0.7445	47645.74	3.0350	3.0350	-0.2053	8.95	2.96	-0.750			
0.7451	47684.81	3.0320	3.0319	-0.2049	8.96	2.97	-0.750			
0.7457	47724.27	3.0290	3.0291	-0.2036	8.97	2.98	-0.750			
0.7463	47763.12	3.0260	3.0259	-0.2013	8.98	2.99	-0.750			
0.7469	47801.63	3.0230	3.0230	-0.1999	8.99	3.00	-0.750			
0.7475	47840.19	3.0200	3.0201	-0.1987	9.00	3.01	-0.750			
0.7481	47877.95	3.0170	3.0170	-0.1969	9.01	3.02	-0.750			
0.7487	47915.86	3.0140	3.0139	-0.1958	9.02	3.03	-0.750			
0.7493	47953.27	3.0110	3.0110	-0.1938	9.03	3.04	-0.750			
0.7498	47989.72	3.0080	3.0081	-0.1924	9.04	3.05	-0.750			
0.7504	48026.76	3.0050	3.0050	-0.1911	9.05	3.06	-0.750			
0.7510	48063.29	3.0020	3.0020	-0.1880	9.06	3.07	-0.750			
