Ah_balance (normalized)	Ah_balance (mAh)	Voltage - fit (V)	Voltage -  interpolate (V)	dQ/dV (1/V)	Temperature (°C)	Temperature - diff (°C)	Current (C)	R_DC 0ms (mOhm)	R_DC 50ms (mOhm)	R_DC 50 ms PEC (mOhm)
0.0000	0.00	4.0960	4.1329	0.0000	5.97	0.00	-0.743			
0.0000	0.00	4.0990	4.1329	0.0000	5.97	0.00	-0.743			
0.0002	12.09	4.0930	4.0934	-0.0454	5.97	0.00	-0.750			
0.0004	23.67	4.0900	4.0895	-0.0723	5.97	0.00	-0.750			
0.0006	40.14	4.0870	4.0867	-0.0992	5.97	0.00	-0.750			
0.0010	62.01	4.0840	4.0841	-0.1250	5.97	0.00	-0.750			
0.0014	88.76	4.0810	4.0810	-0.1491	5.97	0.00	-0.750			
0.0019	119.87	4.0780	4.0780	-0.1730	5.97	0.00	-0.750			
0.0024	155.38	4.0750	4.0752	-0.1959	5.97	0.00	-0.750			
0.0031	196.85	4.0720	4.0720	-0.2192	5.97	0.00	-0.750			
0.0038	240.89	4.0690	4.0691	-0.2417	5.97	0.00	-0.750			
0.0045	289.33	4.0660	4.0659	-0.2632	5.97	0.00	-0.750			
0.0053	342.06	4.0630	4.0630	-0.2838	5.97	0.00	-0.750			
0.0062	398.61	4.0600	4.0600	-0.3049	5.97	0.00	-0.750			
0.0072	458.94	4.0570	4.0571	-0.3300	5.97	0.00	-0.750			
0.0082	524.59	4.0540	4.0539	-0.3512	5.97	0.00	-0.750			
0.0093	594.28	4.0510	4.0510	-0.3719	5.97	0.00	-0.750			
0.0104	667.86	4.0480	4.0481	-0.3932	5.97	0.00	-0.750			
0.0117	746.02	4.0450	4.0451	-0.4142	5.97	0.00	-0.750			
0.0129	827.51	4.0420	4.0419	-0.4348	5.97	0.00	-0.750			
0.0143	912.06	4.0390	4.0390	-0.4554	5.97	0.00	-0.750			
0.0156	1000.94	4.0360	4.0360	-0.4762	5.97	0.00	-0.750			
0.0171	1095.71	4.0330	4.0329	-0.4983	5.97	0.00	-0.750			
0.0187	1194.03	4.0300	4.0300	-0.5142	5.97	0.00	-0.750			
0.0202	1295.46	4.0270	4.0270	-0.5288	5.97	0.00	-0.750			
0.0219	1398.43	4.0240	4.0241	-0.5425	5.97	0.00	-0.750			
0.0235	1503.35	4.0210	4.0210	-0.5573	5.97	0.00	-0.750			
0.0252	1611.45	4.0180	4.0180	-0.5709	5.98	0.01	-0.750			
0.0269	1722.50	4.0150	4.0149	-0.5822	5.98	0.01	-0.750			
0.0287	1835.83	4.0120	4.0121	-0.5948	5.99	0.02	-0.750			
0.0305	1953.19	4.0090	4.0090	-0.6103	5.99	0.02	-0.750			
0.0324	2071.57	4.0060	4.0059	-0.6183	6.00	0.03	-0.750			
0.0342	2191.32	4.0030	4.0029	-0.6242	6.01	0.04	-0.750			
0.0361	2311.76	4.0000	4.0001	-0.6285	6.01	0.04	-0.750			
0.0380	2433.71	3.9970	3.9970	-0.6356	6.01	0.04	-0.750			
0.0399	2556.00	3.9940	3.9940	-0.6410	6.02	0.05	-0.750			
0.0418	2677.72	3.9910	3.9909	-0.6434	6.02	0.05	-0.750			
0.0438	2802.97	3.9880	3.9880	-0.6541	6.02	0.05	-0.750			
0.0458	2929.42	3.9850	3.9850	-0.6629	6.03	0.06	-0.750			
0.0478	3058.02	3.9820	3.9820	-0.6699	6.03	0.06	-0.750			
0.0498	3188.10	3.9790	3.9790	-0.6727	6.03	0.06	-0.750			
0.0518	3318.03	3.9760	3.9760	-0.6747	6.04	0.07	-0.750			
0.0539	3448.15	3.9730	3.9731	-0.6769	6.04	0.07	-0.750			
0.0559	3577.66	3.9700	3.9700	-0.6796	6.04	0.07	-0.750			
0.0579	3707.70	3.9670	3.9670	-0.6825	6.05	0.08	-0.750			
0.0600	3838.57	3.9640	3.9640	-0.6869	6.05	0.08	-0.750			
0.0621	3972.07	3.9610	3.9609	-0.6914	6.05	0.08	-0.750			
0.0641	4105.31	3.9580	3.9581	-0.6961	6.06	0.09	-0.750			
0.0662	4239.28	3.9550	3.9550	-0.7036	6.06	0.09	-0.750			
0.0684	4375.58	3.9520	3.9520	-0.7037	6.07	0.10	-0.750			
0.0705	4510.98	3.9490	3.9489	-0.7050	6.07	0.10	-0.750			
0.0726	4646.65	3.9460	3.9461	-0.7074	6.08	0.11	-0.750			
0.0747	4783.01	3.9430	3.9430	-0.7098	6.09	0.12	-0.750			
0.0769	4919.77	3.9400	3.9400	-0.7099	6.09	0.12	-0.750			
0.0790	5055.68	3.9370	3.9370	-0.7095	6.10	0.13	-0.750			
0.0811	5191.70	3.9340	3.9341	-0.7105	6.11	0.14	-0.750			
0.0833	5330.58	3.9310	3.9310	-0.7157	6.11	0.14	-0.750			
0.0854	5466.84	3.9280	3.9282	-0.7146	6.12	0.15	-0.750			
0.0876	5604.04	3.9250	3.9249	-0.7181	6.13	0.16	-0.750			
0.0897	5742.09	3.9220	3.9220	-0.7209	6.13	0.16	-0.750			
0.0919	5880.83	3.9190	3.9190	-0.7291	6.14	0.17	-0.750			
0.0941	6022.37	3.9160	3.9161	-0.7270	6.15	0.18	-0.750			
0.0963	6164.07	3.9130	3.9129	-0.7288	6.15	0.18	-0.750			
0.0985	6303.67	3.9100	3.9102	-0.7274	6.16	0.19	-0.750			
0.1007	6442.28	3.9070	3.9070	-0.7284	6.17	0.20	-0.750			
0.1028	6580.74	3.9040	3.9039	-0.7317	6.18	0.21	-0.750			
0.1050	6722.40	3.9010	3.9009	-0.7292	6.18	0.21	-0.750			
0.1072	6863.50	3.8980	3.8980	-0.7316	6.19	0.22	-0.750			
0.1094	7004.45	3.8950	3.8949	-0.7342	6.20	0.23	-0.750			
0.1117	7145.87	3.8920	3.8920	-0.7331	6.21	0.24	-0.750			
0.1138	7285.77	3.8890	3.8889	-0.7370	6.22	0.25	-0.750			
0.1160	7425.43	3.8860	3.8860	-0.7382	6.23	0.26	-0.750			
0.1183	7568.75	3.8830	3.8830	-0.7379	6.24	0.27	-0.750			
0.1205	7712.49	3.8800	3.8800	-0.7427	6.25	0.28	-0.750			
0.1227	7855.33	3.8770	3.8771	-0.7441	6.26	0.29	-0.750			
0.1250	7997.51	3.8740	3.8740	-0.7442	6.27	0.30	-0.750			
0.1272	8140.11	3.8710	3.8709	-0.7456	6.27	0.30	-0.750			
0.1294	8283.76	3.8680	3.8680	-0.7470	6.28	0.31	-0.750			
0.1317	8428.25	3.8650	3.8650	-0.7487	6.29	0.32	-0.750			
0.1340	8574.59	3.8620	3.8620	-0.7521	6.29	0.32	-0.750			
0.1362	8717.90	3.8590	3.8591	-0.7458	6.30	0.33	-0.750			
0.1384	8859.81	3.8560	3.8560	-0.7431	6.31	0.34	-0.750			
0.1407	9001.92	3.8530	3.8530	-0.7471	6.32	0.35	-0.750			
0.1429	9143.49	3.8500	3.8500	-0.7445	6.33	0.36	-0.750			
0.1451	9289.53	3.8470	3.8469	-0.7506	6.35	0.38	-0.750			
0.1474	9433.63	3.8440	3.8440	-0.7507	6.36	0.39	-0.750			
0.1497	9577.91	3.8410	3.8409	-0.7496	6.36	0.39	-0.750			
0.1519	9721.89	3.8380	3.8379	-0.7485	6.37	0.40	-0.750			
0.1541	9864.67	3.8350	3.8350	-0.7475	6.38	0.41	-0.750			
0.1564	10006.41	3.8320	3.8320	-0.7449	6.39	0.42	-0.750			
0.1586	10152.25	3.8290	3.8290	-0.7491	6.39	0.42	-0.750			
0.1609	10295.94	3.8260	3.8261	-0.7489	6.40	0.43	-0.750			
0.1631	10439.69	3.8230	3.8230	-0.7486	6.40	0.43	-0.750			
0.1654	10582.95	3.8200	3.8200	-0.7512	6.41	0.44	-0.750			
0.1676	10726.33	3.8170	3.8170	-0.7511	6.41	0.44	-0.750			
0.1699	10870.78	3.8140	3.8140	-0.7542	6.41	0.44	-0.750			
0.1721	11015.75	3.8110	3.8110	-0.7573	6.42	0.45	-0.750			
0.1744	11162.88	3.8080	3.8080	-0.7595	6.43	0.46	-0.750			
0.1767	11308.47	3.8050	3.8050	-0.7604	6.44	0.47	-0.750			
0.1790	11455.65	3.8020	3.8021	-0.7586	6.45	0.48	-0.750			
0.1813	11600.66	3.7990	3.7990	-0.7568	6.46	0.49	-0.750			
0.1835	11745.52	3.7960	3.7960	-0.7546	6.47	0.50	-0.750			
0.1858	11890.18	3.7930	3.7931	-0.7529	6.48	0.51	-0.750			
0.1880	12033.79	3.7900	3.7900	-0.7535	6.49	0.52	-0.750			
0.1903	12178.96	3.7870	3.7870	-0.7553	6.50	0.53	-0.750			
0.1926	12324.05	3.7840	3.7840	-0.7542	6.50	0.53	-0.750			
0.1948	12469.56	3.7810	3.7809	-0.7581	6.51	0.54	-0.750			
0.1971	12614.35	3.7780	3.7781	-0.7582	6.52	0.55	-0.750			
0.1994	12760.22	3.7750	3.7750	-0.7603	6.52	0.55	-0.750			
0.2017	12905.70	3.7720	3.7720	-0.7660	6.53	0.56	-0.750			
0.2040	13052.85	3.7690	3.7690	-0.7680	6.54	0.57	-0.750			
0.2063	13202.23	3.7660	3.7660	-0.7700	6.55	0.58	-0.750			
0.2086	13350.80	3.7630	3.7631	-0.7708	6.55	0.58	-0.750			
0.2109	13498.78	3.7600	3.7600	-0.7727	6.56	0.59	-0.750			
0.2132	13647.31	3.7570	3.7570	-0.7743	6.57	0.60	-0.750			
0.2155	13795.07	3.7540	3.7539	-0.7784	6.58	0.61	-0.750			
0.2179	13944.89	3.7510	3.7510	-0.7783	6.60	0.63	-0.750			
0.2203	14096.12	3.7480	3.7480	-0.7825	6.61	0.64	-0.750			
0.2226	14246.85	3.7450	3.7452	-0.7839	6.62	0.65	-0.750			
0.2250	14397.77	3.7420	3.7419	-0.7848	6.62	0.65	-0.750			
0.2273	14547.30	3.7390	3.7390	-0.7864	6.63	0.66	-0.750			
0.2296	14696.97	3.7360	3.7360	-0.7893	6.63	0.66	-0.750			
0.2320	14848.14	3.7330	3.7331	-0.7957	6.63	0.66	-0.750			
0.2344	15004.08	3.7300	3.7299	-0.8028	6.64	0.67	-0.750			
0.2368	15157.96	3.7270	3.7270	-0.8064	6.64	0.67	-0.750			
0.2393	15313.19	3.7240	3.7241	-0.8121	6.65	0.68	-0.750			
0.2417	15469.96	3.7210	3.7210	-0.8151	6.66	0.69	-0.750			
0.2442	15626.76	3.7180	3.7180	-0.8167	6.67	0.70	-0.750			
0.2466	15783.89	3.7150	3.7149	-0.8230	6.68	0.71	-0.750			
0.2491	15940.01	3.7120	3.7121	-0.8368	6.68	0.71	-0.750			
0.2516	16101.44	3.7090	3.7090	-0.8569	6.69	0.72	-0.750			
0.2542	16266.69	3.7060	3.7060	-0.8710	6.70	0.73	-0.750			
0.2569	16438.52	3.7030	3.7028	-0.8782	6.71	0.74	-0.750			
0.2596	16611.87	3.7000	3.7001	-0.8860	6.72	0.75	-0.750			
0.2623	16785.47	3.6970	3.6970	-0.8882	6.72	0.75	-0.750			
0.2649	16954.75	3.6940	3.6940	-0.8825	6.73	0.76	-0.750			
0.2675	17120.45	3.6910	3.6910	-0.8692	6.74	0.77	-0.750			
0.2701	17286.54	3.6880	3.6880	-0.8702	6.74	0.77	-0.750			
0.2727	17453.64	3.6850	3.6850	-0.8750	6.75	0.78	-0.750			
0.2753	17622.08	3.6820	3.6820	-0.8825	6.76	0.79	-0.750			
0.2780	17791.26	3.6790	3.6790	-0.8906	6.77	0.80	-0.750			
0.2807	17962.89	3.6760	3.6760	-0.8962	6.77	0.80	-0.750			
0.2834	18135.41	3.6730	3.6730	-0.9027	6.78	0.81	-0.750			
0.2861	18311.59	3.6700	3.6700	-0.9120	6.79	0.82	-0.750			
0.2889	18487.57	3.6670	3.6670	-0.9175	6.80	0.83	-0.750			
0.2916	18664.40	3.6640	3.6640	-0.9215	6.80	0.83	-0.750			
0.2944	18840.86	3.6610	3.6610	-0.9316	6.81	0.84	-0.750			
0.2972	19019.77	3.6580	3.6581	-0.9393	6.82	0.85	-0.750			
0.3000	19201.33	3.6550	3.6549	-0.9507	6.83	0.86	-0.750			
0.3029	19385.51	3.6520	3.6520	-0.9565	6.84	0.87	-0.750			
0.3058	19570.12	3.6490	3.6490	-0.9625	6.84	0.87	-0.750			
0.3087	19754.90	3.6460	3.6460	-0.9707	6.85	0.88	-0.750			
0.3116	19943.80	3.6430	3.6430	-0.9751	6.86	0.89	-0.750			
0.3145	20130.52	3.6400	3.6400	-0.9828	6.87	0.90	-0.750			
0.3175	20320.78	3.6370	3.6370	-0.9914	6.87	0.90	-0.750			
0.3205	20511.89	3.6340	3.6340	-0.9965	6.88	0.91	-0.750			
0.3235	20705.36	3.6310	3.6312	-1.0051	6.88	0.91	-0.750			
0.3265	20897.80	3.6280	3.6280	-1.0144	6.88	0.91	-0.750			
0.3296	21093.20	3.6250	3.6250	-1.0204	6.88	0.91	-0.750			
0.3327	21290.30	3.6220	3.6219	-1.0290	6.88	0.91	-0.750			
0.3358	21488.64	3.6190	3.6192	-1.0407	6.88	0.91	-0.750			
0.3389	21688.80	3.6160	3.6160	-1.0464	6.89	0.92	-0.750			
0.3421	21891.44	3.6130	3.6129	-1.0530	6.90	0.93	-0.750			
0.3452	22093.78	3.6100	3.6100	-1.0574	6.91	0.94	-0.750			
0.3484	22295.44	3.6070	3.6072	-1.0701	6.92	0.95	-0.750			
0.3516	22502.10	3.6040	3.6040	-1.0780	6.92	0.95	-0.750			
0.3549	22711.82	3.6010	3.6009	-1.0799	6.93	0.96	-0.750			
0.3581	22920.50	3.5980	3.5979	-1.0773	6.93	0.96	-0.750			
0.3614	23126.50	3.5950	3.5952	-1.0889	6.93	0.96	-0.750			
0.3646	23334.84	3.5920	3.5921	-1.0971	6.94	0.97	-0.750			
0.3679	23544.33	3.5890	3.5888	-1.1021	6.95	0.98	-0.750			
0.3712	23754.07	3.5860	3.5859	-1.1062	6.96	0.99	-0.750			
0.3746	23971.26	3.5830	3.5830	-1.1277	6.96	0.99	-0.750			
0.3780	24190.01	3.5800	3.5799	-1.1404	6.96	0.99	-0.750	0.462	0.890	
0.3814	24412.14	3.5770	3.5770	-1.1544	6.97	1.00	-0.750			
0.3849	24630.90	3.5740	3.5740	-1.1574	6.97	1.00	-0.750			
0.3884	24858.34	3.5710	3.5709	-1.1698	6.97	1.00	-0.750			
0.3920	25085.70	3.5680	3.5680	-1.1800	6.97	1.00	-0.750			
0.3955	25311.53	3.5650	3.5650	-1.1899	6.97	1.00	-0.750			
0.3991	25539.68	3.5620	3.5621	-1.1984	6.97	1.00	-0.750			
0.4027	25772.85	3.5590	3.5589	-1.2083	6.98	1.01	-0.750			
0.4063	26005.14	3.5560	3.5560	-1.2138	7.00	1.03	-0.750			
0.4100	26237.88	3.5530	3.5531	-1.2207	7.01	1.04	-0.750			
0.4137	26476.82	3.5500	3.5500	-1.2327	7.02	1.05	-0.750			
0.4174	26712.56	3.5470	3.5469	-1.2320	7.02	1.05	-0.750			
0.4210	26946.73	3.5440	3.5441	-1.2418	7.03	1.06	-0.750			
0.4248	27185.42	3.5410	3.5410	-1.2512	7.03	1.06	-0.750			
0.4286	27429.42	3.5380	3.5379	-1.2591	7.03	1.06	-0.750			
0.4324	27672.97	3.5350	3.5350	-1.2588	7.03	1.06	-0.750			
0.4362	27915.36	3.5320	3.5321	-1.2637	7.03	1.06	-0.750			
0.4400	28158.93	3.5290	3.5290	-1.2654	7.04	1.07	-0.750			
0.4437	28399.43	3.5260	3.5260	-1.2705	7.04	1.07	-0.750			
0.4476	28643.77	3.5230	3.5230	-1.2753	7.05	1.08	-0.750			
0.4514	28890.49	3.5200	3.5199	-1.2842	7.06	1.09	-0.750			
0.4553	29140.62	3.5170	3.5170	-1.2792	7.07	1.10	-0.750			
0.4592	29387.82	3.5140	3.5141	-1.2808	7.08	1.11	-0.750			
0.4630	29631.48	3.5110	3.5109	-1.2738	7.09	1.12	-0.750			
0.4668	29875.24	3.5080	3.5079	-1.2685	7.09	1.12	-0.750			
0.4706	30116.26	3.5050	3.5049	-1.2649	7.10	1.13	-0.750			
0.4743	30357.99	3.5020	3.5021	-1.2609	7.11	1.14	-0.750			
0.4782	30602.84	3.4990	3.4990	-1.2647	7.12	1.15	-0.750			
0.4820	30847.50	3.4960	3.4960	-1.2643	7.12	1.15	-0.750			
0.4858	31088.11	3.4930	3.4931	-1.2580	7.13	1.16	-0.750			
0.4895	31330.05	3.4900	3.4900	-1.2559	7.14	1.17	-0.750			
0.4933	31571.77	3.4870	3.4870	-1.2475	7.14	1.17	-0.750			
0.4970	31809.19	3.4840	3.4841	-1.2456	7.15	1.18	-0.750			
0.5008	32049.76	3.4810	3.4810	-1.2410	7.16	1.19	-0.750			
0.5045	32286.28	3.4780	3.4779	-1.2333	7.17	1.20	-0.750			
0.5082	32522.09	3.4750	3.4750	-1.2265	7.17	1.20	-0.750			
0.5118	32756.47	3.4720	3.4722	-1.2231	7.18	1.21	-0.750			
0.5155	32994.28	3.4690	3.4689	-1.2187	7.19	1.22	-0.750			
0.5192	33227.93	3.4660	3.4659	-1.2098	7.20	1.23	-0.750			
0.5228	33457.89	3.4630	3.4631	-1.1904	7.21	1.24	-0.750			
0.5263	33686.35	3.4600	3.4600	-1.1880	7.22	1.25	-0.750			
0.5299	33913.25	3.4570	3.4569	-1.1752	7.23	1.26	-0.750			
0.5334	34137.13	3.4540	3.4540	-1.1667	7.24	1.27	-0.750			
0.5369	34359.31	3.4510	3.4511	-1.1558	7.25	1.28	-0.750			
0.5404	34582.68	3.4480	3.4480	-1.1517	7.27	1.30	-0.750			
0.5438	34802.82	3.4450	3.4449	-1.1399	7.28	1.31	-0.750			
0.5472	35020.72	3.4420	3.4421	-1.1242	7.29	1.32	-0.750			
0.5506	35235.97	3.4390	3.4390	-1.1252	7.30	1.33	-0.750			
0.5540	35452.93	3.4360	3.4359	-1.1138	7.31	1.34	-0.750			
0.5573	35665.37	3.4330	3.4329	-1.1011	7.32	1.35	-0.750			
0.5606	35875.82	3.4300	3.4304	-1.0898	7.33	1.36	-0.750			
0.5638	36084.04	3.4270	3.4269	-1.0807	7.34	1.37	-0.750			
0.5670	36290.56	3.4240	3.4240	-1.0705	7.35	1.38	-0.750			
0.5702	36492.65	3.4210	3.4210	-1.0584	7.36	1.39	-0.750			
0.5734	36696.17	3.4180	3.4180	-1.0547	7.37	1.40	-0.750			
0.5766	36899.26	3.4150	3.4150	-1.0432	7.38	1.41	-0.750			
0.5797	37098.37	3.4120	3.4120	-1.0290	7.39	1.42	-0.750			
0.5827	37295.17	3.4090	3.4090	-1.0130	7.40	1.43	-0.750			
0.5858	37488.21	3.4060	3.4061	-0.9966	7.41	1.44	-0.750			
0.5887	37678.54	3.4030	3.4030	-0.9834	7.43	1.46	-0.750			
0.5916	37865.50	3.4000	3.4000	-0.9644	7.44	1.47	-0.750			
0.5945	38049.27	3.3970	3.3970	-0.9478	7.45	1.48	-0.750			
0.5974	38230.74	3.3940	3.3940	-0.9327	7.47	1.50	-0.750			
0.6001	38406.51	3.3910	3.3910	-0.9193	7.48	1.51	-0.750			
0.6028	38581.15	3.3880	3.3880	-0.9043	7.49	1.52	-0.750			
0.6055	38753.32	3.3850	3.3850	-0.8867	7.51	1.54	-0.750			
0.6082	38922.25	3.3820	3.3820	-0.8697	7.52	1.55	-0.750			
0.6108	39090.01	3.3790	3.3792	-0.8582	7.53	1.56	-0.750			
0.6133	39252.89	3.3760	3.3760	-0.8405	7.55	1.58	-0.750			
0.6158	39412.60	3.3730	3.3730	-0.8233	7.56	1.59	-0.750			
0.6182	39567.82	3.3700	3.3700	-0.8050	7.57	1.60	-0.750			
0.6206	39720.97	3.3670	3.3670	-0.7931	7.59	1.62	-0.750			
0.6230	39871.81	3.3640	3.3641	-0.7812	7.60	1.63	-0.750			
0.6253	40020.25	3.3610	3.3609	-0.7673	7.61	1.64	-0.750			
0.6276	40165.85	3.3580	3.3580	-0.7527	7.62	1.65	-0.750			
0.6299	40310.83	3.3550	3.3550	-0.7390	7.63	1.66	-0.750			
0.6321	40452.70	3.3520	3.3520	-0.7280	7.64	1.67	-0.750			
0.6342	40589.86	3.3490	3.3490	-0.7115	7.65	1.68	-0.750			
0.6363	40723.79	3.3460	3.3460	-0.6940	7.67	1.70	-0.750			
0.6384	40855.14	3.3430	3.3430	-0.6801	7.68	1.71	-0.750			
0.6404	40984.52	3.3400	3.3400	-0.6676	7.69	1.72	-0.750			
0.6424	41110.54	3.3370	3.3371	-0.6536	7.71	1.74	-0.750			
0.6443	41237.03	3.3340	3.3339	-0.6457	7.72	1.75	-0.750			
0.6462	41358.75	3.3310	3.3311	-0.6302	7.74	1.77	-0.750			
0.6481	41478.59	3.3280	3.3280	-0.6180	7.75	1.78	-0.750			
0.6499	41595.87	3.3250	3.3250	-0.6074	7.76	1.79	-0.750			
0.6517	41711.05	3.3220	3.3220	-0.5975	7.77	1.80	-0.750			
0.6535	41824.17	3.3190	3.3190	-0.5868	7.78	1.81	-0.750			
0.6553	41936.58	3.3160	3.3159	-0.5764	7.80	1.83	-0.750			
0.6570	42046.67	3.3130	3.3130	-0.5644	7.81	1.84	-0.750			
0.6587	42154.25	3.3100	3.3100	-0.5537	7.82	1.85	-0.750			
0.6603	42258.94	3.3070	3.3071	-0.5426	7.83	1.86	-0.750			
0.6619	42361.56	3.3040	3.3039	-0.5295	7.84	1.87	-0.750			
0.6635	42461.77	3.3010	3.3009	-0.5204	7.86	1.89	-0.750			
0.6650	42560.45	3.2980	3.2981	-0.5113	7.87	1.90	-0.750			
0.6665	42657.64	3.2950	3.2951	-0.5044	7.88	1.91	-0.750			
0.6680	42754.70	3.2920	3.2919	-0.4972	7.90	1.93	-0.750			
0.6695	42849.30	3.2890	3.2889	-0.4877	7.91	1.94	-0.750			
0.6710	42941.52	3.2860	3.2860	-0.4784	7.92	1.95	-0.750			
0.6724	43032.84	3.2830	3.2831	-0.4721	7.93	1.96	-0.750			
0.6738	43122.80	3.2800	3.2800	-0.4632	7.95	1.98	-0.750			
0.6752	43211.03	3.2770	3.2769	-0.4561	7.96	1.99	-0.750			
0.6765	43297.11	3.2740	3.2740	-0.4471	7.97	2.00	-0.750			
0.6779	43382.43	3.2710	3.2710	-0.4403	7.99	2.02	-0.750			
0.6792	43466.64	3.2680	3.2680	-0.4347	8.00	2.03	-0.750			
0.6805	43549.05	3.2650	3.2650	-0.4278	8.01	2.04	-0.750			
0.6817	43630.70	3.2620	3.2619	-0.4200	8.02	2.05	-0.750			
0.6830	43710.75	3.2590	3.2590	-0.4152	8.03	2.06	-0.750			
0.6842	43789.71	3.2560	3.2561	-0.4096	8.04	2.07	-0.750			
0.6854	43867.96	3.2530	3.2530	-0.4041	8.05	2.08	-0.750			
0.6866	43945.10	3.2500	3.2499	-0.3971	8.06	2.09	-0.750			
0.6878	44020.41	3.2470	3.2470	-0.3901	8.07	2.10	-0.750			
0.6890	44094.79	3.2440	3.2440	-0.3846	8.08	2.11	-0.750			
0.6901	44168.26	3.2410	3.2410	-0.3792	8.09	2.12	-0.750			
0.6913	44240.02	3.2380	3.2380	-0.3718	8.10	2.13	-0.750			
0.6924	44310.88	3.2350	3.2350	-0.3672	8.11	2.14	-0.750			
0.6934	44380.43	3.2320	3.2320	-0.3639	8.12	2.15	-0.750			
0.6945	44450.21	3.2290	3.2289	-0.3598	8.13	2.16	-0.750			
0.6956	44518.72	3.2260	3.2260	-0.3557	8.14	2.17	-0.750			
0.6967	44586.69	3.2230	3.2230	-0.3512	8.16	2.19	-0.750			
0.6977	44654.43	3.2200	3.2200	-0.3465	8.17	2.20	-0.750			
0.6988	44720.44	3.2170	3.2170	-0.3425	8.19	2.22	-0.750			
0.6998	44785.09	3.2140	3.2140	-0.3374	8.20	2.23	-0.750			
0.7008	44849.43	3.2110	3.2110	-0.3324	8.21	2.24	-0.750			
0.7018	44912.59	3.2080	3.2080	-0.3286	8.22	2.25	-0.750			
0.7027	44975.56	3.2050	3.2050	-0.3249	8.23	2.26	-0.750			
0.7037	45037.85	3.2020	3.2020	-0.3212	8.24	2.27	-0.750			
0.7047	45099.26	3.1990	3.1990	-0.3179	8.25	2.28	-0.750			
0.7056	45159.38	3.1960	3.1960	-0.3134	8.26	2.29	-0.750			
0.7065	45218.94	3.1930	3.1930	-0.3103	8.27	2.30	-0.750			
0.7075	45278.61	3.1900	3.1900	-0.3076	8.28	2.31	-0.750			
0.7084	45337.32	3.1870	3.1869	-0.3034	8.29	2.32	-0.750			
0.7093	45395.44	3.1840	3.1840	-0.2999	8.30	2.33	-0.750			
0.7102	45452.76	3.1810	3.1810	-0.2965	8.31	2.34	-0.750			
0.7111	45509.22	3.1780	3.1780	-0.2925	8.32	2.35	-0.750			
0.7120	45564.90	3.1750	3.1750	-0.2894	8.33	2.36	-0.750			
0.7128	45619.58	3.1720	3.1720	-0.2865	8.34	2.37	-0.750			
0.7137	45674.38	3.1690	3.1690	-0.2848	8.35	2.38	-0.750			
0.7145	45729.13	3.1660	3.1659	-0.2822	8.36	2.39	-0.750			
0.7154	45783.16	3.1630	3.1630	-0.2797	8.37	2.40	-0.750			
0.7162	45836.60	3.1600	3.1600	-0.2772	8.37	2.40	-0.750			
0.7170	45889.78	3.1570	3.1570	-0.2742	8.38	2.41	-0.750			
0.7178	45942.15	3.1540	3.1539	-0.2721	8.39	2.42	-0.750			
0.7187	45993.84	3.1510	3.1511	-0.2689	8.40	2.43	-0.750			
0.7195	46045.31	3.1480	3.1480	-0.2669	8.41	2.44	-0.750			
0.7203	46096.69	3.1450	3.1451	-0.2654	8.42	2.45	-0.750			
0.7211	46147.26	3.1420	3.1420	-0.2627	8.43	2.46	-0.750			
0.7218	46197.38	3.1390	3.1390	-0.2602	8.44	2.47	-0.750			
0.7226	46247.17	3.1360	3.1360	-0.2578	8.45	2.48	-0.750			
0.7234	46296.05	3.1330	3.1330	-0.2552	8.46	2.49	-0.750			
0.7241	46345.21	3.1300	3.1300	-0.2540	8.48	2.51	-0.750			
0.7249	46393.61	3.1270	3.1270	-0.2517	8.49	2.52	-0.750			
0.7257	46441.63	3.1240	3.1240	-0.2494	8.50	2.53	-0.750			
0.7264	46489.20	3.1210	3.1210	-0.2483	8.51	2.54	-0.750			
0.7271	46537.00	3.1180	3.1180	-0.2469	8.52	2.55	-0.750			
0.7279	46584.44	3.1150	3.1150	-0.2447	8.53	2.56	-0.750			
0.7286	46631.18	3.1120	3.1120	-0.2429	8.54	2.57	-0.750			
0.7293	46677.54	3.1090	3.1091	-0.2404	8.55	2.58	-0.750			
0.7301	46723.57	3.1060	3.1060	-0.2381	8.56	2.59	-0.750			
0.7308	46769.27	3.1030	3.1030	-0.2360	8.57	2.60	-0.750			
0.7315	46814.25	3.1000	3.1000	-0.2344	8.58	2.61	-0.750			
0.7322	46858.64	3.0970	3.0970	-0.2326	8.59	2.62	-0.750			
0.7329	46903.19	3.0940	3.0940	-0.2319	8.60	2.63	-0.750			
0.7336	46947.61	3.0910	3.0910	-0.2310	8.60	2.63	-0.750			
0.7342	46991.62	3.0880	3.0880	-0.2300	8.61	2.64	-0.750			
0.7349	47035.99	3.0850	3.0850	-0.2290	8.62	2.65	-0.750			
0.7356	47080.27	3.0820	3.0820	-0.2275	8.63	2.66	-0.750			
0.7363	47123.56	3.0790	3.0790	-0.2259	8.64	2.67	-0.750			
0.7370	47166.74	3.0760	3.0760	-0.2240	8.65	2.68	-0.750			
0.7376	47209.41	3.0730	3.0730	-0.2228	8.66	2.69	-0.750			
0.7383	47251.98	3.0700	3.0699	-0.2211	8.67	2.70	-0.750			
0.7390	47294.25	3.0670	3.0670	-0.2197	8.68	2.71	-0.750			
0.7396	47336.36	3.0640	3.0641	-0.2188	8.70	2.73	-0.750			
0.7403	47378.47	3.0610	3.0610	-0.2174	8.71	2.74	-0.750			
0.7409	47420.31	3.0580	3.0580	-0.2162	8.72	2.75	-0.750			
0.7416	47461.46	3.0550	3.0549	-0.2139	8.73	2.76	-0.750			
0.7422	47502.26	3.0520	3.0521	-0.2132	8.74	2.77	-0.750			
0.7429	47542.99	3.0490	3.0490	-0.2119	8.75	2.78	-0.750			
0.7435	47583.58	3.0460	3.0459	-0.2111	8.76	2.79	-0.750			
0.7441	47623.92	3.0430	3.0431	-0.2101	8.77	2.80	-0.750			
0.7448	47664.19	3.0400	3.0400	-0.2097	8.78	2.81	-0.750			
0.7454	47704.46	3.0370	3.0370	-0.2095	8.79	2.82	-0.750			
0.7460	47744.73	3.0340	3.0340	-0.2086	8.80	2.83	-0.750			
0.7466	47784.85	3.0310	3.0309	-0.2070	8.82	2.85	-0.750			
0.7473	47824.60	3.0280	3.0280	-0.2052	8.83	2.86	-0.750			
0.7479	47863.93	3.0250	3.0250	-0.2043	8.83	2.86	-0.750			
0.7485	47902.96	3.0220	3.0220	-0.2024	8.83	2.86	-0.750			
0.7491	47941.65	3.0190	3.0190	-0.2007	8.83	2.86	-0.750			
0.7497	47979.74	3.0160	3.0160	-0.1987	8.83	2.86	-0.750			
0.7503	48017.85	3.0130	3.0130	-0.1975	8.83	2.86	-0.750			
0.7509	48055.64	3.0100	3.0101	-0.1961	8.83	2.86	-0.750			
0.7515	48093.30	3.0070	3.0070	-0.1946	8.83	2.86	-0.751			
0.7520	48130.65	3.0040	3.0039	-0.1922	8.83	2.86	-0.751			
0.7526	48167.31	3.0010	3.0010	-0.1924	8.83	2.86	-0.751			
