Ah_balance (normalized)	Ah_balance (mAh)	Voltage - fit (V)	Voltage -  interpolate (V)	dQ/dV (1/V)	Temperature (°C)	Temperature - diff (°C)	Current (C)	R_DC 0ms (mOhm)	R_DC 50ms (mOhm)	R_DC 50 ms PEC (mOhm)
0.0000	0.00	4.0880	4.1296	0.0000	5.99	0.00	-0.751			
0.0000	0.00	4.0910	4.1296	0.0000	5.99	0.00	-0.751			
0.0000	0.00	4.0940	4.1296	0.0000	5.99	0.00	-0.751			
0.0001	9.58	4.0850	4.0862	-0.0456	5.99	0.00	-0.750			
0.0003	20.81	4.0820	4.0819	-0.0714	5.99	0.00	-0.750			
0.0006	37.18	4.0790	4.0790	-0.0968	5.99	0.00	-0.750			
0.0009	58.44	4.0760	4.0758	-0.1215	5.99	0.00	-0.750			
0.0013	84.42	4.0730	4.0730	-0.1456	5.99	0.00	-0.750			
0.0018	114.76	4.0700	4.0700	-0.1704	5.99	0.00	-0.750			
0.0023	149.71	4.0670	4.0671	-0.1937	5.99	0.00	-0.750			
0.0030	190.54	4.0640	4.0639	-0.2143	5.99	0.00	-0.750			
0.0037	233.71	4.0610	4.0611	-0.2366	5.99	0.00	-0.750			
0.0044	281.04	4.0580	4.0580	-0.2583	5.99	0.00	-0.750			
0.0052	332.54	4.0550	4.0549	-0.2800	5.99	0.00	-0.750			
0.0061	388.10	4.0520	4.0520	-0.3020	5.99	0.00	-0.750			
0.0070	448.29	4.0490	4.0490	-0.3236	5.99	0.00	-0.750			
0.0080	511.91	4.0460	4.0460	-0.3493	5.99	0.00	-0.750			
0.0091	582.12	4.0430	4.0430	-0.3723	5.99	0.00	-0.750			
0.0102	655.12	4.0400	4.0400	-0.3960	5.99	0.00	-0.750			
0.0115	734.01	4.0370	4.0370	-0.4199	5.99	0.00	-0.750			
0.0128	817.22	4.0340	4.0341	-0.4439	5.99	0.00	-0.750			
0.0142	905.85	4.0310	4.0309	-0.4625	5.99	0.00	-0.750			
0.0156	997.18	4.0280	4.0280	-0.4823	5.99	0.00	-0.750			
0.0170	1090.83	4.0250	4.0250	-0.4992	6.00	0.01	-0.750			
0.0186	1189.00	4.0220	4.0220	-0.5151	6.00	0.01	-0.750			
0.0202	1289.98	4.0190	4.0189	-0.5294	6.00	0.01	-0.750			
0.0218	1393.26	4.0160	4.0161	-0.5445	6.00	0.01	-0.750			
0.0234	1499.47	4.0130	4.0130	-0.5586	6.01	0.02	-0.750			
0.0251	1607.98	4.0100	4.0099	-0.5754	6.01	0.02	-0.750			
0.0269	1721.11	4.0070	4.0069	-0.5834	6.01	0.02	-0.750			
0.0287	1833.86	4.0040	4.0040	-0.5950	6.02	0.03	-0.750			
0.0305	1949.76	4.0010	4.0010	-0.6087	6.02	0.03	-0.750			
0.0323	2067.19	3.9980	3.9981	-0.6182	6.03	0.04	-0.750			
0.0342	2187.54	3.9950	3.9948	-0.6238	6.03	0.04	-0.750			
0.0360	2307.03	3.9920	3.9921	-0.6373	6.04	0.05	-0.750			
0.0380	2429.42	3.9890	3.9891	-0.6489	6.04	0.05	-0.750			
0.0400	2557.01	3.9860	3.9859	-0.6617	6.05	0.06	-0.750			
0.0420	2685.01	3.9830	3.9831	-0.6704	6.05	0.06	-0.750			
0.0440	2816.04	3.9800	3.9800	-0.6767	6.06	0.07	-0.750			
0.0461	2947.67	3.9770	3.9770	-0.6805	6.07	0.08	-0.750			
0.0481	3080.07	3.9740	3.9740	-0.6858	6.07	0.08	-0.750			
0.0501	3209.28	3.9710	3.9710	-0.6883	6.08	0.09	-0.750			
0.0522	3341.80	3.9680	3.9680	-0.6914	6.09	0.10	-0.750			
0.0543	3475.19	3.9650	3.9649	-0.6966	6.09	0.10	-0.750			
0.0564	3609.23	3.9620	3.9620	-0.7025	6.10	0.11	-0.750			
0.0585	3746.04	3.9590	3.9590	-0.7062	6.11	0.12	-0.750			
0.0607	3883.35	3.9560	3.9559	-0.7075	6.11	0.12	-0.750			
0.0628	4019.06	3.9530	3.9532	-0.7035	6.12	0.13	-0.750			
0.0649	4151.89	3.9500	3.9500	-0.7041	6.13	0.14	-0.750			
0.0670	4288.14	3.9470	3.9468	-0.7071	6.14	0.15	-0.750			
0.0691	4421.90	3.9440	3.9441	-0.7171	6.14	0.15	-0.750			
0.0713	4561.48	3.9410	3.9411	-0.7219	6.15	0.16	-0.750			
0.0735	4703.10	3.9380	3.9379	-0.7330	6.16	0.17	-0.750			
0.0757	4845.95	3.9350	3.9353	-0.7331	6.17	0.18	-0.750			
0.0779	4987.71	3.9320	3.9320	-0.7323	6.18	0.19	-0.750			
0.0801	5125.56	3.9290	3.9290	-0.7383	6.19	0.20	-0.750			
0.0823	5268.04	3.9260	3.9261	-0.7363	6.20	0.21	-0.750			
0.0845	5409.92	3.9230	3.9228	-0.7388	6.21	0.22	-0.750			
0.0867	5551.83	3.9200	3.9200	-0.7359	6.21	0.22	-0.750			
0.0889	5692.78	3.9170	3.9171	-0.7355	6.22	0.23	-0.750			
0.0912	5834.29	3.9140	3.9140	-0.7364	6.23	0.24	-0.750			
0.0934	5975.51	3.9110	3.9108	-0.7348	6.25	0.26	-0.750			
0.0955	6113.58	3.9080	3.9081	-0.7367	6.26	0.27	-0.750			
0.0978	6258.32	3.9050	3.9049	-0.7414	6.27	0.28	-0.750			
0.1000	6400.47	3.9020	3.9021	-0.7473	6.28	0.29	-0.750			
0.1023	6544.76	3.8990	3.8989	-0.7505	6.29	0.30	-0.750			
0.1045	6688.06	3.8960	3.8959	-0.7505	6.29	0.30	-0.750			
0.1068	6833.84	3.8930	3.8930	-0.7503	6.30	0.31	-0.750			
0.1090	6976.51	3.8900	3.8900	-0.7529	6.31	0.32	-0.750			
0.1113	7123.11	3.8870	3.8870	-0.7501	6.31	0.32	-0.750			
0.1136	7268.04	3.8840	3.8840	-0.7514	6.32	0.33	-0.750			
0.1158	7409.36	3.8810	3.8811	-0.7492	6.33	0.34	-0.750			
0.1180	7555.18	3.8780	3.8780	-0.7516	6.34	0.35	-0.750			
0.1203	7698.94	3.8750	3.8749	-0.7524	6.35	0.36	-0.750			
0.1226	7843.65	3.8720	3.8720	-0.7589	6.37	0.38	-0.750			
0.1248	7987.46	3.8690	3.8690	-0.7638	6.38	0.39	-0.750			
0.1271	8137.24	3.8660	3.8658	-0.7725	6.39	0.40	-0.750			
0.1295	8285.34	3.8630	3.8630	-0.7740	6.40	0.41	-0.750			
0.1318	8436.00	3.8600	3.8599	-0.7681	6.41	0.42	-0.750			
0.1341	8584.36	3.8570	3.8571	-0.7647	6.42	0.43	-0.750			
0.1364	8732.58	3.8540	3.8539	-0.7571	6.43	0.44	-0.750			
0.1387	8875.27	3.8510	3.8511	-0.7497	6.44	0.45	-0.750			
0.1409	9015.75	3.8480	3.8480	-0.7449	6.45	0.46	-0.750			
0.1431	9157.35	3.8450	3.8450	-0.7623	6.46	0.47	-0.750			
0.1454	9304.62	3.8420	3.8420	-0.7707	6.47	0.48	-0.750			
0.1478	9456.44	3.8390	3.8389	-0.7773	6.48	0.49	-0.750			
0.1501	9607.07	3.8360	3.8361	-0.7786	6.49	0.50	-0.750			
0.1525	9759.86	3.8330	3.8330	-0.7776	6.50	0.51	-0.750			
0.1548	9909.35	3.8300	3.8298	-0.7679	6.51	0.52	-0.750			
0.1571	10053.56	3.8270	3.8271	-0.7656	6.52	0.53	-0.750			
0.1593	10198.15	3.8240	3.8241	-0.7629	6.53	0.54	-0.750			
0.1617	10345.80	3.8210	3.8209	-0.7701	6.54	0.55	-0.750			
0.1640	10493.76	3.8180	3.8181	-0.7745	6.55	0.56	-0.750			
0.1663	10641.14	3.8150	3.8150	-0.7811	6.57	0.58	-0.750			
0.1686	10793.16	3.8120	3.8120	-0.7837	6.58	0.59	-0.750			
0.1710	10945.13	3.8090	3.8090	-0.7826	6.59	0.60	-0.750			
0.1734	11096.80	3.8060	3.8059	-0.7821	6.60	0.61	-0.750			
0.1757	11247.53	3.8030	3.8032	-0.7802	6.61	0.62	-0.750			
0.1781	11396.77	3.8000	3.8000	-0.7730	6.62	0.63	-0.750			
0.1804	11542.95	3.7970	3.7970	-0.7746	6.64	0.65	-0.750			
0.1827	11691.56	3.7940	3.7939	-0.7741	6.65	0.66	-0.750			
0.1850	11841.11	3.7910	3.7910	-0.7788	6.66	0.67	-0.750			
0.1873	11989.77	3.7880	3.7881	-0.7794	6.68	0.69	-0.750			
0.1897	12138.38	3.7850	3.7850	-0.7919	6.69	0.70	-0.750			
0.1920	12290.49	3.7820	3.7820	-0.8032	6.71	0.72	-0.750			
0.1945	12447.23	3.7790	3.7788	-0.8051	6.72	0.73	-0.750			
0.1969	12601.49	3.7760	3.7759	-0.8079	6.74	0.75	-0.750			
0.1994	12761.37	3.7730	3.7732	-0.8092	6.75	0.76	-0.750			
0.2018	12916.76	3.7700	3.7701	-0.8008	6.77	0.78	-0.750			
0.2042	13067.91	3.7670	3.7670	-0.8027	6.78	0.79	-0.750			
0.2066	13220.14	3.7640	3.7638	-0.7965	6.79	0.80	-0.750			
0.2089	13371.57	3.7610	3.7610	-0.7965	6.81	0.82	-0.750			
0.2113	13526.07	3.7580	3.7580	-0.8041	6.82	0.83	-0.750			
0.2138	13682.39	3.7550	3.7550	-0.8056	6.83	0.84	-0.750			
0.2162	13839.02	3.7520	3.7520	-0.8070	6.85	0.86	-0.750			
0.2187	13993.66	3.7490	3.7490	-0.8060	6.86	0.87	-0.750			
0.2210	14145.12	3.7460	3.7460	-0.8091	6.87	0.88	-0.750			
0.2235	14302.82	3.7430	3.7429	-0.8171	6.89	0.90	-0.750			
0.2259	14459.23	3.7400	3.7401	-0.8161	6.90	0.91	-0.750			
0.2284	14615.87	3.7370	3.7370	-0.8174	6.92	0.93	-0.750			
0.2308	14773.92	3.7340	3.7341	-0.8307	6.93	0.94	-0.750			
0.2333	14933.72	3.7310	3.7311	-0.8347	6.94	0.95	-0.750			
0.2359	15095.98	3.7280	3.7278	-0.8414	6.96	0.97	-0.750			
0.2384	15255.77	3.7250	3.7251	-0.8451	6.97	0.98	-0.750			
0.2409	15419.99	3.7220	3.7221	-0.8522	6.99	1.00	-0.750			
0.2436	15587.67	3.7190	3.7189	-0.8523	7.00	1.01	-0.750			
0.2461	15751.88	3.7160	3.7160	-0.8518	7.01	1.02	-0.750			
0.2486	15913.01	3.7130	3.7130	-0.8510	7.03	1.04	-0.750			
0.2512	16077.32	3.7100	3.7101	-0.8516	7.04	1.05	-0.750			
0.2537	16238.25	3.7070	3.7068	-0.8609	7.05	1.06	-0.750			
0.2563	16402.31	3.7040	3.7040	-0.8681	7.06	1.07	-0.750			
0.2589	16569.60	3.7010	3.7011	-0.8772	7.07	1.08	-0.750			
0.2616	16744.28	3.6980	3.6980	-0.8925	7.08	1.09	-0.750			
0.2643	16916.18	3.6950	3.6950	-0.8932	7.10	1.11	-0.750			
0.2670	17088.60	3.6920	3.6920	-0.9017	7.11	1.12	-0.750			
0.2697	17262.51	3.6890	3.6890	-0.9034	7.12	1.13	-0.750			
0.2724	17434.84	3.6860	3.6859	-0.8992	7.13	1.14	-0.750			
0.2751	17609.49	3.6830	3.6832	-0.9060	7.15	1.16	-0.750			
0.2778	17782.38	3.6800	3.6800	-0.9171	7.16	1.17	-0.750			
0.2806	17958.58	3.6770	3.6770	-0.9259	7.17	1.18	-0.750			
0.2834	18137.53	3.6740	3.6739	-0.9281	7.19	1.20	-0.750			
0.2862	18316.62	3.6710	3.6710	-0.9290	7.20	1.21	-0.750			
0.2890	18498.17	3.6680	3.6682	-0.9400	7.21	1.22	-0.750			
0.2919	18680.14	3.6650	3.6650	-0.9426	7.22	1.23	-0.750			
0.2947	18860.41	3.6620	3.6619	-0.9431	7.23	1.24	-0.750			
0.2975	19039.01	3.6590	3.6589	-0.9444	7.23	1.24	-0.750			
0.3003	19221.02	3.6560	3.6562	-0.9563	7.24	1.25	-0.750			
0.3033	19408.74	3.6530	3.6529	-0.9643	7.25	1.26	-0.750			
0.3062	19594.02	3.6500	3.6500	-0.9635	7.26	1.27	-0.750			
0.3090	19777.42	3.6470	3.6471	-0.9712	7.27	1.28	-0.750			
0.3119	19964.22	3.6440	3.6439	-0.9742	7.28	1.29	-0.750			
0.3149	20151.69	3.6410	3.6410	-0.9854	7.29	1.30	-0.750			
0.3178	20341.95	3.6380	3.6380	-0.9931	7.30	1.31	-0.750			
0.3208	20533.39	3.6350	3.6351	-1.0014	7.30	1.31	-0.750			
0.3239	20728.29	3.6320	3.6319	-1.0106	7.31	1.32	-0.750			
0.3269	20923.08	3.6290	3.6291	-1.0176	7.32	1.33	-0.750			
0.3300	21118.78	3.6260	3.6260	-1.0174	7.33	1.34	-0.750			
0.3331	21315.89	3.6230	3.6230	-1.0242	7.33	1.34	-0.750			
0.3361	21509.88	3.6200	3.6200	-1.0298	7.34	1.35	-0.750			
0.3392	21708.23	3.6170	3.6171	-1.0462	7.34	1.35	-0.750			
0.3424	21911.94	3.6140	3.6139	-1.0499	7.34	1.35	-0.750			
0.3455	22115.16	3.6110	3.6109	-1.0536	7.35	1.36	-0.750			
0.3487	22318.94	3.6080	3.6081	-1.0605	7.35	1.36	-0.750			
0.3519	22522.75	3.6050	3.6051	-1.0740	7.35	1.36	-0.750			
0.3551	22728.62	3.6020	3.6019	-1.0791	7.36	1.37	-0.750			
0.3583	22934.26	3.5990	3.5989	-1.0917	7.37	1.38	-0.750			
0.3617	23145.97	3.5960	3.5960	-1.0996	7.38	1.39	-0.750			
0.3650	23359.95	3.5930	3.5929	-1.1253	7.38	1.39	-0.750			
0.3685	23582.07	3.5900	3.5900	-1.1290	7.38	1.39	-0.750			
0.3719	23799.64	3.5870	3.5871	-1.1229	7.39	1.40	-0.750			
0.3752	24010.12	3.5840	3.5842	-1.1338	7.39	1.40	-0.750	0.397	0.811	
0.3786	24233.04	3.5810	3.5808	-1.1366	7.39	1.40	-0.750			
0.3820	24448.93	3.5780	3.5779	-1.1330	7.40	1.41	-0.750			
0.3854	24667.11	3.5750	3.5750	-1.1356	7.40	1.41	-0.750			
0.3888	24883.45	3.5720	3.5723	-1.1513	7.40	1.41	-0.750			
0.3923	25107.58	3.5690	3.5688	-1.1638	7.40	1.41	-0.750			
0.3957	25327.96	3.5660	3.5659	-1.1763	7.41	1.42	-0.750			
0.3992	25551.74	3.5630	3.5629	-1.1852	7.41	1.42	-0.750			
0.4029	25787.52	3.5600	3.5601	-1.2090	7.41	1.42	-0.750			
0.4066	26023.64	3.5570	3.5570	-1.2085	7.41	1.42	-0.750			
0.4103	26257.91	3.5540	3.5541	-1.2068	7.42	1.43	-0.750			
0.4139	26486.43	3.5510	3.5511	-1.2093	7.42	1.43	-0.750			
0.4175	26717.61	3.5480	3.5480	-1.2193	7.43	1.44	-0.750			
0.4211	26951.21	3.5450	3.5449	-1.2226	7.43	1.44	-0.750			
0.4248	27186.33	3.5420	3.5420	-1.2364	7.44	1.45	-0.750			
0.4286	27428.38	3.5390	3.5389	-1.2451	7.44	1.45	-0.750			
0.4323	27670.35	3.5360	3.5360	-1.2412	7.45	1.46	-0.750			
0.4361	27909.45	3.5330	3.5329	-1.2397	7.45	1.46	-0.750			
0.4397	28143.83	3.5300	3.5301	-1.2415	7.45	1.46	-0.750			
0.4435	28381.98	3.5270	3.5269	-1.2422	7.45	1.46	-0.750			
0.4472	28621.20	3.5240	3.5240	-1.2514	7.46	1.47	-0.750			
0.4510	28860.93	3.5210	3.5211	-1.2660	7.46	1.47	-0.750			
0.4548	29108.98	3.5180	3.5180	-1.2757	7.47	1.48	-0.750			
0.4587	29358.54	3.5150	3.5148	-1.2859	7.47	1.48	-0.750			
0.4626	29604.26	3.5120	3.5123	-1.2841	7.48	1.49	-0.750			
0.4664	29850.93	3.5090	3.5090	-1.2782	7.48	1.49	-0.750			
0.4703	30096.61	3.5060	3.5059	-1.2756	7.49	1.50	-0.750			
0.4740	30337.96	3.5030	3.5030	-1.2689	7.49	1.50	-0.750			
0.4779	30584.81	3.5000	3.4998	-1.2719	7.50	1.51	-0.750			
0.4817	30828.09	3.4970	3.4970	-1.2602	7.50	1.51	-0.750			
0.4854	31067.41	3.4940	3.4940	-1.2627	7.51	1.52	-0.750			
0.4892	31308.56	3.4910	3.4912	-1.2530	7.52	1.53	-0.750			
0.4930	31549.94	3.4880	3.4879	-1.2482	7.53	1.54	-0.750			
0.4967	31787.25	3.4850	3.4848	-1.2382	7.54	1.55	-0.750			
0.5004	32023.82	3.4820	3.4822	-1.2350	7.55	1.56	-0.750			
0.5041	32263.15	3.4790	3.4789	-1.2267	7.56	1.57	-0.750			
0.5078	32497.60	3.4760	3.4760	-1.2245	7.56	1.57	-0.750			
0.5114	32729.60	3.4730	3.4729	-1.2301	7.57	1.58	-0.750			
0.5151	32964.38	3.4700	3.4699	-1.2339	7.57	1.58	-0.750			
0.5188	33204.94	3.4670	3.4669	-1.2268	7.58	1.59	-0.750			
0.5225	33441.91	3.4640	3.4642	-1.2234	7.59	1.60	-0.750			
0.5262	33676.49	3.4610	3.4610	-1.2076	7.60	1.61	-0.750			
0.5299	33911.46	3.4580	3.4579	-1.2005	7.61	1.62	-0.750			
0.5334	34135.62	3.4550	3.4550	-1.1818	7.62	1.63	-0.750			
0.5369	34361.09	3.4520	3.4521	-1.1669	7.64	1.65	-0.750			
0.5404	34583.73	3.4490	3.4489	-1.1694	7.65	1.66	-0.750			
0.5439	34811.11	3.4460	3.4459	-1.1617	7.66	1.67	-0.750			
0.5474	35032.14	3.4430	3.4430	-1.1483	7.67	1.68	-0.750			
0.5508	35251.20	3.4400	3.4402	-1.1440	7.68	1.69	-0.750			
0.5543	35473.06	3.4370	3.4370	-1.1333	7.69	1.70	-0.750			
0.5576	35689.44	3.4340	3.4339	-1.1188	7.70	1.71	-0.750			
0.5610	35902.91	3.4310	3.4309	-1.1063	7.70	1.71	-0.750			
0.5642	36110.98	3.4280	3.4281	-1.0994	7.71	1.72	-0.750			
0.5676	36324.50	3.4250	3.4249	-1.0850	7.73	1.74	-0.750			
0.5708	36530.77	3.4220	3.4220	-1.0729	7.74	1.75	-0.750			
0.5740	36734.74	3.4190	3.4190	-1.0563	7.75	1.76	-0.750			
0.5771	36937.16	3.4160	3.4160	-1.0575	7.77	1.78	-0.750			
0.5803	37139.25	3.4130	3.4129	-1.0487	7.78	1.79	-0.750			
0.5834	37340.51	3.4100	3.4099	-1.0346	7.79	1.80	-0.750			
0.5865	37538.27	3.4070	3.4069	-1.0118	7.80	1.81	-0.750			
0.5896	37734.26	3.4040	3.4042	-1.0038	7.82	1.83	-0.750			
0.5926	37924.15	3.4010	3.4010	-0.9896	7.83	1.84	-0.750			
0.5955	38114.09	3.3980	3.3978	-0.9681	7.85	1.86	-0.750			
0.5984	38295.26	3.3950	3.3950	-0.9432	7.86	1.87	-0.750			
0.6012	38476.37	3.3920	3.3922	-0.9296	7.87	1.88	-0.750			
0.6040	38655.35	3.3890	3.3889	-0.9241	7.88	1.89	-0.750			
0.6067	38831.97	3.3860	3.3859	-0.9028	7.89	1.90	-0.750			
0.6094	38999.97	3.3830	3.3830	-0.8819	7.91	1.92	-0.750			
0.6120	39170.01	3.3800	3.3801	-0.8696	7.92	1.93	-0.750			
0.6146	39336.36	3.3770	3.3769	-0.8542	7.93	1.94	-0.750			
0.6171	39496.80	3.3740	3.3739	-0.8409	7.94	1.95	-0.750			
0.6196	39655.76	3.3710	3.3711	-0.8258	7.95	1.96	-0.750			
0.6221	39811.41	3.3680	3.3680	-0.8075	7.96	1.97	-0.750			
0.6245	39970.15	3.3650	3.3649	-0.7971	7.97	1.98	-0.750			
0.6269	40121.00	3.3620	3.3620	-0.7738	7.99	2.00	-0.750			
0.6292	40268.06	3.3590	3.3590	-0.7592	8.00	2.01	-0.750			
0.6314	40410.86	3.3560	3.3560	-0.7413	8.02	2.03	-0.750			
0.6336	40549.48	3.3530	3.3529	-0.7206	8.03	2.04	-0.750			
0.6357	40687.92	3.3500	3.3500	-0.7105	8.04	2.05	-0.750			
0.6379	40823.33	3.3470	3.3472	-0.6973	8.06	2.07	-0.750			
0.6399	40955.45	3.3440	3.3439	-0.6861	8.07	2.08	-0.750			
0.6420	41086.37	3.3410	3.3410	-0.6733	8.08	2.09	-0.750			
0.6440	41213.18	3.3380	3.3380	-0.6616	8.10	2.11	-0.750			
0.6459	41339.10	3.3350	3.3351	-0.6476	8.11	2.12	-0.750			
0.6479	41464.35	3.3320	3.3320	-0.6364	8.12	2.13	-0.750			
0.6498	41584.42	3.3290	3.3290	-0.6242	8.13	2.14	-0.750			
0.6516	41702.89	3.3260	3.3260	-0.6126	8.15	2.16	-0.750			
0.6534	41818.74	3.3230	3.3229	-0.6003	8.16	2.17	-0.750			
0.6552	41933.37	3.3200	3.3200	-0.5886	8.17	2.18	-0.750			
0.6570	42044.90	3.3170	3.3171	-0.5785	8.18	2.19	-0.750			
0.6587	42156.89	3.3140	3.3140	-0.5632	8.19	2.20	-0.750			
0.6604	42263.33	3.3110	3.3110	-0.5513	8.20	2.21	-0.750			
0.6620	42366.95	3.3080	3.3081	-0.5390	8.21	2.22	-0.750			
0.6636	42468.47	3.3050	3.3050	-0.5300	8.22	2.23	-0.750			
0.6651	42568.93	3.3020	3.3018	-0.5241	8.24	2.25	-0.750			
0.6667	42669.04	3.2990	3.2990	-0.5150	8.25	2.26	-0.750			
0.6682	42767.59	3.2960	3.2961	-0.5092	8.26	2.27	-0.750			
0.6698	42865.58	3.2930	3.2930	-0.5029	8.27	2.28	-0.750			
0.6712	42959.89	3.2900	3.2900	-0.4900	8.29	2.30	-0.750			
0.6727	43053.28	3.2870	3.2870	-0.4825	8.30	2.31	-0.750			
0.6741	43145.24	3.2840	3.2839	-0.4731	8.31	2.32	-0.750			
0.6756	43235.99	3.2810	3.2810	-0.4617	8.32	2.33	-0.750			
0.6769	43323.95	3.2780	3.2780	-0.4547	8.33	2.34	-0.750			
0.6783	43409.88	3.2750	3.2751	-0.4456	8.34	2.35	-0.750			
0.6796	43494.27	3.2720	3.2719	-0.4395	8.35	2.36	-0.750			
0.6809	43577.47	3.2690	3.2690	-0.4309	8.36	2.37	-0.750			
0.6822	43658.92	3.2660	3.2660	-0.4281	8.37	2.38	-0.750			
0.6835	43741.16	3.2630	3.2630	-0.4236	8.38	2.39	-0.750			
0.6847	43823.26	3.2600	3.2599	-0.4178	8.39	2.40	-0.750			
0.6860	43902.14	3.2570	3.2571	-0.4100	8.40	2.41	-0.750			
0.6872	43981.10	3.2540	3.2540	-0.4015	8.41	2.42	-0.750			
0.6884	44057.40	3.2510	3.2510	-0.3926	8.42	2.43	-0.750			
0.6896	44131.89	3.2480	3.2480	-0.3857	8.44	2.45	-0.750			
0.6907	44203.86	3.2450	3.2450	-0.3772	8.45	2.46	-0.750			
0.6918	44275.32	3.2420	3.2420	-0.3732	8.46	2.47	-0.750			
0.6929	44346.46	3.2390	3.2390	-0.3695	8.47	2.48	-0.750			
0.6940	44416.92	3.2360	3.2359	-0.3652	8.48	2.49	-0.750			
0.6951	44487.59	3.2330	3.2330	-0.3654	8.50	2.51	-0.750			
0.6962	44557.45	3.2300	3.2300	-0.3606	8.51	2.52	-0.750			
0.6973	44626.79	3.2270	3.2269	-0.3547	8.52	2.53	-0.750			
0.6984	44694.91	3.2240	3.2243	-0.3487	8.53	2.54	-0.750			
0.6994	44760.63	3.2210	3.2210	-0.3432	8.54	2.55	-0.750			
0.7004	44825.80	3.2180	3.2181	-0.3387	8.55	2.56	-0.750			
0.7014	44889.77	3.2150	3.2149	-0.3341	8.56	2.57	-0.750			
0.7024	44953.61	3.2120	3.2120	-0.3323	8.57	2.58	-0.750			
0.7034	45017.11	3.2090	3.2090	-0.3281	8.58	2.59	-0.750			
0.7044	45079.74	3.2060	3.2061	-0.3245	8.59	2.60	-0.750			
0.7054	45142.57	3.2030	3.2030	-0.3196	8.60	2.61	-0.750			
0.7063	45203.11	3.2000	3.1999	-0.3139	8.61	2.62	-0.750			
0.7072	45262.37	3.1970	3.1971	-0.3110	8.62	2.63	-0.750			
0.7082	45321.76	3.1940	3.1939	-0.3071	8.63	2.64	-0.750			
0.7091	45380.61	3.1910	3.1909	-0.3023	8.64	2.65	-0.750			
0.7100	45438.45	3.1880	3.1880	-0.2992	8.65	2.66	-0.750			
0.7109	45495.25	3.1850	3.1852	-0.2964	8.66	2.67	-0.750			
0.7118	45552.20	3.1820	3.1820	-0.2932	8.67	2.68	-0.750			
0.7126	45607.46	3.1790	3.1789	-0.2896	8.68	2.69	-0.750			
0.7135	45662.55	3.1760	3.1761	-0.2861	8.68	2.69	-0.750			
0.7143	45718.04	3.1730	3.1730	-0.2840	8.70	2.71	-0.750			
0.7152	45772.92	3.1700	3.1700	-0.2815	8.71	2.72	-0.750			
0.7160	45826.18	3.1670	3.1670	-0.2761	8.72	2.73	-0.750			
0.7169	45878.50	3.1640	3.1640	-0.2733	8.73	2.74	-0.750			
0.7177	45930.04	3.1610	3.1611	-0.2720	8.74	2.75	-0.750			
0.7185	45981.79	3.1580	3.1579	-0.2705	8.75	2.76	-0.750			
0.7193	46033.55	3.1550	3.1549	-0.2706	8.76	2.77	-0.750			
0.7201	46085.84	3.1520	3.1521	-0.2669	8.77	2.78	-0.750			
0.7209	46137.79	3.1490	3.1491	-0.2656	8.78	2.79	-0.750			
0.7217	46188.80	3.1460	3.1462	-0.2627	8.79	2.80	-0.750			
0.7225	46238.07	3.1430	3.1429	-0.2582	8.80	2.81	-0.750			
0.7232	46287.21	3.1400	3.1401	-0.2552	8.80	2.81	-0.750			
0.7240	46336.07	3.1370	3.1370	-0.2523	8.81	2.82	-0.750			
0.7248	46384.24	3.1340	3.1340	-0.2500	8.82	2.83	-0.750			
0.7255	46432.54	3.1310	3.1311	-0.2490	8.83	2.84	-0.750			
0.7262	46479.54	3.1280	3.1281	-0.2455	8.84	2.85	-0.750			
0.7270	46526.98	3.1250	3.1249	-0.2434	8.85	2.86	-0.750			
0.7277	46573.29	3.1220	3.1220	-0.2402	8.86	2.87	-0.750			
0.7284	46618.73	3.1190	3.1190	-0.2387	8.87	2.88	-0.750			
0.7291	46664.36	3.1160	3.1161	-0.2377	8.88	2.89	-0.750			
0.7298	46710.28	3.1130	3.1129	-0.2357	8.89	2.90	-0.750			
0.7306	46755.33	3.1100	3.1099	-0.2335	8.90	2.91	-0.750			
0.7312	46799.55	3.1070	3.1071	-0.2329	8.91	2.92	-0.750			
0.7319	46844.58	3.1040	3.1040	-0.2307	8.92	2.93	-0.750			
0.7326	46888.74	3.1010	3.1008	-0.2300	8.93	2.94	-0.750			
0.7333	46932.71	3.0980	3.0980	-0.2280	8.93	2.94	-0.750			
0.7340	46975.94	3.0950	3.0951	-0.2256	8.94	2.95	-0.750			
0.7347	47019.14	3.0920	3.0919	-0.2240	8.96	2.97	-0.750			
0.7354	47062.59	3.0890	3.0890	-0.2226	8.97	2.98	-0.750			
0.7360	47105.04	3.0860	3.0860	-0.2196	8.98	2.99	-0.750			
0.7367	47146.33	3.0830	3.0830	-0.2184	8.99	3.00	-0.750			
0.7373	47188.24	3.0800	3.0800	-0.2183	9.00	3.01	-0.750			
0.7380	47229.44	3.0770	3.0769	-0.2164	9.01	3.02	-0.750			
0.7386	47271.04	3.0740	3.0739	-0.2169	9.02	3.03	-0.750			
0.7393	47312.89	3.0710	3.0710	-0.2160	9.03	3.04	-0.750			
0.7399	47354.93	3.0680	3.0679	-0.2143	9.04	3.05	-0.750			
0.7406	47396.38	3.0650	3.0651	-0.2134	9.05	3.06	-0.750			
0.7412	47437.02	3.0620	3.0620	-0.2100	9.06	3.07	-0.750			
0.7418	47476.55	3.0590	3.0591	-0.2090	9.07	3.08	-0.750			
0.7424	47516.23	3.0560	3.0559	-0.2072	9.08	3.09	-0.750			
0.7431	47555.47	3.0530	3.0529	-0.2059	9.09	3.10	-0.750			
0.7437	47595.04	3.0500	3.0500	-0.2063	9.10	3.11	-0.750			
0.7443	47634.81	3.0470	3.0471	-0.2053	9.11	3.12	-0.750			
0.7449	47674.82	3.0440	3.0439	-0.2042	9.12	3.13	-0.750			
0.7455	47713.81	3.0410	3.0410	-0.2028	9.13	3.14	-0.750			
0.7461	47752.31	3.0380	3.0382	-0.2016	9.13	3.14	-0.750			
0.7467	47790.45	3.0350	3.0349	-0.1998	9.14	3.15	-0.750			
0.7473	47828.59	3.0320	3.0320	-0.1999	9.15	3.16	-0.750			
0.7479	47866.87	3.0290	3.0290	-0.1988	9.16	3.17	-0.750			
0.7485	47905.24	3.0260	3.0260	-0.1991	9.17	3.18	-0.750			
0.7491	47943.43	3.0230	3.0230	-0.1988	9.18	3.19	-0.750			
0.7497	47982.04	3.0200	3.0201	-0.1971	9.19	3.20	-0.750			
0.7503	48019.90	3.0170	3.0170	-0.1955	9.20	3.21	-0.750			
0.7509	48057.54	3.0140	3.0140	-0.1928	9.20	3.21	-0.750			
0.7515	48094.25	3.0110	3.0110	-0.1896	9.21	3.22	-0.750			
0.7520	48130.43	3.0080	3.0080	-0.1864	9.22	3.23	-0.750			
0.7526	48166.20	3.0050	3.0050	-0.1815	9.23	3.24	-0.750			
0.7531	48200.62	3.0020	3.0020	-0.1782	9.24	3.25	-0.750			
