Ah_balance (normalized)	Ah_balance (mAh)	Voltage - fit (V)	Voltage -  interpolate (V)	dQ/dV (1/V)	Temperature (°C)	Temperature - diff (°C)	Current (C)	R_DC 0ms (mOhm)	R_DC 50ms (mOhm)	R_DC 50 ms PEC (mOhm)
0.0003	18.92	4.1070	4.1063	-0.0616	5.99	-0.00	-0.750			
0.0006	35.34	4.1040	4.1036	-0.0958	5.99	-0.00	-0.750			
0.0009	57.58	4.1010	4.1008	-0.1238	5.99	-0.00	-0.750			
0.0013	84.20	4.0980	4.0979	-0.1498	5.99	-0.00	-0.750			
0.0018	115.52	4.0950	4.0952	-0.1754	5.99	-0.00	-0.750			
0.0024	151.72	4.0920	4.0920	-0.2004	5.99	-0.00	-0.750			
0.0030	193.98	4.0890	4.0889	-0.2238	5.99	-0.00	-0.750			
0.0037	238.77	4.0860	4.0860	-0.2464	5.99	0.00	-0.750			
0.0045	288.38	4.0830	4.0831	-0.2672	5.99	0.00	-0.750			
0.0053	342.04	4.0800	4.0800	-0.2880	5.99	0.00	-0.750			
0.0063	400.01	4.0770	4.0770	-0.3065	5.99	0.00	-0.750			
0.0072	460.52	4.0740	4.0739	-0.3258	5.99	0.00	-0.750			
0.0082	523.82	4.0710	4.0712	-0.3479	5.99	0.00	-0.750			
0.0092	591.64	4.0680	4.0680	-0.3750	5.99	0.00	-0.750			
0.0104	665.17	4.0650	4.0649	-0.3995	6.00	0.01	-0.750			
0.0116	745.01	4.0620	4.0619	-0.4280	6.00	0.01	-0.750			
0.0130	831.45	4.0590	4.0590	-0.4518	6.00	0.01	-0.750			
0.0144	921.25	4.0560	4.0561	-0.4753	6.00	0.01	-0.750			
0.0159	1015.04	4.0530	4.0531	-0.4974	6.00	0.01	-0.750			
0.0174	1112.67	4.0500	4.0500	-0.5150	6.00	0.01	-0.750			
0.0189	1212.30	4.0470	4.0469	-0.5305	6.00	0.01	-0.750			
0.0206	1316.12	4.0440	4.0440	-0.5530	6.00	0.01	-0.750			
0.0223	1424.34	4.0410	4.0411	-0.5746	6.01	0.02	-0.750			
0.0240	1537.51	4.0380	4.0379	-0.5949	6.01	0.02	-0.750			
0.0259	1655.32	4.0350	4.0349	-0.6073	6.01	0.02	-0.750			
0.0277	1774.35	4.0320	4.0322	-0.6175	6.01	0.02	-0.750			
0.0296	1895.14	4.0290	4.0289	-0.6301	6.01	0.02	-0.750			
0.0315	2015.96	4.0260	4.0261	-0.6367	6.02	0.03	-0.750			
0.0334	2135.91	4.0230	4.0229	-0.6441	6.03	0.04	-0.750			
0.0353	2260.44	4.0200	4.0200	-0.6563	6.03	0.04	-0.750			
0.0373	2388.06	4.0170	4.0170	-0.6732	6.04	0.05	-0.750			
0.0394	2519.54	4.0140	4.0141	-0.6897	6.05	0.06	-0.750			
0.0415	2655.87	4.0110	4.0109	-0.6986	6.05	0.06	-0.750			
0.0436	2791.08	4.0080	4.0080	-0.7031	6.06	0.07	-0.750			
0.0457	2926.64	4.0050	4.0051	-0.7067	6.06	0.07	-0.750			
0.0479	3063.58	4.0020	4.0019	-0.7016	6.07	0.08	-0.750			
0.0500	3198.35	3.9990	3.9990	-0.7020	6.07	0.08	-0.750			
0.0521	3331.75	3.9960	3.9958	-0.6987	6.08	0.09	-0.750			
0.0541	3465.12	3.9930	3.9929	-0.6999	6.08	0.09	-0.750			
0.0562	3598.54	3.9900	3.9900	-0.7111	6.09	0.10	-0.750			
0.0584	3734.75	3.9870	3.9870	-0.7201	6.10	0.11	-0.750			
0.0605	3874.58	3.9840	3.9839	-0.7246	6.10	0.11	-0.750			
0.0628	4018.07	3.9810	3.9810	-0.7338	6.11	0.12	-0.750			
0.0650	4158.50	3.9780	3.9782	-0.7387	6.12	0.13	-0.750			
0.0672	4301.59	3.9750	3.9749	-0.7439	6.13	0.14	-0.750			
0.0694	4444.04	3.9720	3.9718	-0.7439	6.13	0.14	-0.750			
0.0716	4585.58	3.9690	3.9690	-0.7482	6.14	0.15	-0.750			
0.0739	4730.28	3.9660	3.9661	-0.7489	6.15	0.16	-0.750			
0.0762	4877.62	3.9630	3.9629	-0.7584	6.16	0.17	-0.750			
0.0785	5022.38	3.9600	3.9602	-0.7590	6.17	0.18	-0.750			
0.0807	5165.72	3.9570	3.9569	-0.7596	6.18	0.19	-0.750			
0.0830	5312.83	3.9540	3.9540	-0.7685	6.19	0.20	-0.750			
0.0853	5461.80	3.9510	3.9510	-0.7706	6.19	0.20	-0.750			
0.0877	5611.46	3.9480	3.9479	-0.7777	6.20	0.21	-0.750			
0.0900	5761.68	3.9450	3.9451	-0.7802	6.21	0.22	-0.750			
0.0924	5911.28	3.9420	3.9419	-0.7761	6.22	0.23	-0.750			
0.0947	6060.76	3.9390	3.9389	-0.7701	6.23	0.24	-0.750			
0.0970	6206.78	3.9360	3.9361	-0.7683	6.23	0.24	-0.750			
0.0993	6354.40	3.9330	3.9329	-0.7664	6.24	0.25	-0.750			
0.1016	6503.08	3.9300	3.9300	-0.7677	6.25	0.26	-0.750			
0.1039	6648.55	3.9270	3.9271	-0.7664	6.26	0.27	-0.750			
0.1062	6794.34	3.9240	3.9240	-0.7731	6.27	0.28	-0.750			
0.1085	6944.78	3.9210	3.9210	-0.7794	6.28	0.29	-0.750			
0.1109	7094.56	3.9180	3.9179	-0.7821	6.28	0.29	-0.750			
0.1132	7245.01	3.9150	3.9151	-0.7914	6.29	0.30	-0.750			
0.1156	7398.11	3.9120	3.9121	-0.7979	6.30	0.31	-0.750			
0.1180	7552.62	3.9090	3.9089	-0.8013	6.31	0.32	-0.750			
0.1204	7707.06	3.9060	3.9060	-0.8017	6.32	0.33	-0.750			
0.1228	7860.88	3.9030	3.9031	-0.7972	6.33	0.34	-0.750			
0.1253	8016.19	3.9000	3.9000	-0.7928	6.34	0.35	-0.750			
0.1276	8168.90	3.8970	3.8970	-0.7889	6.35	0.36	-0.750			
0.1299	8316.12	3.8940	3.8941	-0.7902	6.36	0.37	-0.750			
0.1323	8465.45	3.8910	3.8910	-0.7943	6.37	0.38	-0.750			
0.1347	8618.71	3.8880	3.8878	-0.8006	6.38	0.39	-0.750			
0.1371	8774.61	3.8850	3.8849	-0.8012	6.39	0.40	-0.750			
0.1395	8930.95	3.8820	3.8821	-0.8085	6.39	0.40	-0.750			
0.1420	9086.46	3.8790	3.8791	-0.8087	6.40	0.41	-0.750			
0.1444	9239.75	3.8760	3.8760	-0.8112	6.41	0.42	-0.750			
0.1468	9395.80	3.8730	3.8729	-0.8087	6.42	0.43	-0.750			
0.1492	9551.08	3.8700	3.8700	-0.8079	6.43	0.44	-0.750			
0.1517	9706.09	3.8670	3.8671	-0.8160	6.43	0.44	-0.750			
0.1541	9865.39	3.8640	3.8641	-0.8239	6.44	0.45	-0.750			
0.1566	10020.76	3.8610	3.8609	-0.8307	6.45	0.46	-0.750			
0.1591	10181.24	3.8580	3.8579	-0.8308	6.46	0.47	-0.750			
0.1616	10341.55	3.8550	3.8551	-0.8346	6.47	0.48	-0.750			
0.1642	10507.96	3.8520	3.8520	-0.8282	6.48	0.49	-0.750			
0.1667	10668.13	3.8490	3.8490	-0.8230	6.49	0.50	-0.750			
0.1691	10821.20	3.8460	3.8461	-0.8137	6.50	0.51	-0.750			
0.1715	10973.11	3.8430	3.8431	-0.8081	6.51	0.52	-0.750			
0.1738	11124.98	3.8400	3.8397	-0.8093	6.52	0.53	-0.750			
0.1763	11282.27	3.8370	3.8368	-0.8224	6.53	0.54	-0.750			
0.1788	11440.32	3.8340	3.8342	-0.8341	6.54	0.55	-0.750			
0.1813	11605.26	3.8310	3.8310	-0.8439	6.55	0.56	-0.750			
0.1839	11769.53	3.8280	3.8279	-0.8517	6.56	0.57	-0.750			
0.1865	11934.12	3.8250	3.8250	-0.8550	6.57	0.58	-0.750			
0.1891	12099.26	3.8220	3.8219	-0.8517	6.58	0.59	-0.750			
0.1916	12262.58	3.8190	3.8191	-0.8503	6.59	0.60	-0.750			
0.1941	12424.95	3.8160	3.8160	-0.8501	6.60	0.61	-0.750			
0.1967	12586.54	3.8130	3.8130	-0.8504	6.61	0.62	-0.750			
0.1992	12748.84	3.8100	3.8099	-0.8462	6.62	0.63	-0.750			
0.2018	12914.32	3.8070	3.8069	-0.8500	6.63	0.64	-0.750			
0.2043	13077.34	3.8040	3.8041	-0.8533	6.63	0.64	-0.750			
0.2069	13241.73	3.8010	3.8011	-0.8576	6.64	0.65	-0.750			
0.2095	13406.91	3.7980	3.7979	-0.8497	6.65	0.66	-0.750			
0.2120	13569.29	3.7950	3.7949	-0.8399	6.66	0.67	-0.750			
0.2145	13729.64	3.7920	3.7920	-0.8512	6.67	0.68	-0.750			
0.2171	13893.56	3.7890	3.7888	-0.8539	6.68	0.69	-0.750			
0.2196	14057.40	3.7860	3.7859	-0.8633	6.69	0.70	-0.750			
0.2222	14223.72	3.7830	3.7830	-0.8635	6.70	0.71	-0.750			
0.2249	14393.40	3.7800	3.7800	-0.8623	6.71	0.72	-0.750			
0.2275	14562.37	3.7770	3.7770	-0.8616	6.72	0.73	-0.750			
0.2301	14725.78	3.7740	3.7740	-0.8607	6.73	0.74	-0.750			
0.2326	14887.29	3.7710	3.7711	-0.8565	6.73	0.74	-0.750			
0.2352	15050.74	3.7680	3.7678	-0.8560	6.74	0.75	-0.750			
0.2377	15212.88	3.7650	3.7650	-0.8586	6.75	0.76	-0.750			
0.2403	15379.81	3.7620	3.7621	-0.8774	6.76	0.77	-0.750			
0.2429	15548.49	3.7590	3.7590	-0.8867	6.77	0.78	-0.750			
0.2457	15721.69	3.7560	3.7559	-0.8932	6.78	0.79	-0.750			
0.2484	15895.86	3.7530	3.7530	-0.8829	6.78	0.79	-0.750			
0.2510	16065.44	3.7500	3.7500	-0.8824	6.79	0.80	-0.750			
0.2537	16236.27	3.7470	3.7472	-0.8843	6.80	0.81	-0.750			
0.2563	16404.08	3.7440	3.7439	-0.8760	6.81	0.82	-0.750			
0.2589	16566.90	3.7410	3.7409	-0.8774	6.82	0.83	-0.750			
0.2615	16737.03	3.7380	3.7380	-0.8876	6.83	0.84	-0.750			
0.2642	16909.51	3.7350	3.7349	-0.8950	6.84	0.85	-0.750			
0.2669	17083.19	3.7320	3.7320	-0.9014	6.85	0.86	-0.750			
0.2696	17256.12	3.7290	3.7291	-0.9052	6.86	0.87	-0.750			
0.2724	17432.54	3.7260	3.7259	-0.9039	6.87	0.88	-0.750			
0.2751	17605.92	3.7230	3.7229	-0.9010	6.87	0.88	-0.750			
0.2778	17778.75	3.7200	3.7202	-0.9039	6.88	0.89	-0.750			
0.2805	17950.39	3.7170	3.7169	-0.9144	6.89	0.90	-0.750			
0.2832	18126.95	3.7140	3.7139	-0.9184	6.89	0.90	-0.750			
0.2860	18303.77	3.7110	3.7109	-0.9157	6.90	0.91	-0.750			
0.2887	18479.61	3.7080	3.7081	-0.9193	6.91	0.92	-0.750			
0.2916	18659.52	3.7050	3.7051	-0.9382	6.91	0.92	-0.750			
0.2944	18839.42	3.7020	3.7020	-0.9470	6.92	0.93	-0.750			
0.2972	19022.78	3.6990	3.6988	-0.9455	6.93	0.94	-0.750			
0.3001	19204.72	3.6960	3.6961	-0.9493	6.94	0.95	-0.750			
0.3030	19390.37	3.6930	3.6933	-0.9579	6.95	0.96	-0.750			
0.3058	19574.11	3.6900	3.6899	-0.9605	6.95	0.96	-0.750			
0.3087	19756.11	3.6870	3.6869	-0.9624	6.96	0.97	-0.750			
0.3115	19938.02	3.6840	3.6840	-0.9708	6.96	0.97	-0.750			
0.3145	20128.12	3.6810	3.6809	-0.9819	6.97	0.98	-0.750			
0.3174	20315.87	3.6780	3.6780	-0.9965	6.97	0.98	-0.750			
0.3205	20510.64	3.6750	3.6750	-0.9975	6.98	0.99	-0.750			
0.3235	20703.28	3.6720	3.6719	-0.9996	6.99	1.00	-0.750			
0.3265	20892.94	3.6690	3.6690	-1.0016	7.00	1.01	-0.750			
0.3295	21085.94	3.6660	3.6661	-1.0080	7.00	1.01	-0.750			
0.3325	21279.61	3.6630	3.6629	-1.0162	7.01	1.02	-0.750			
0.3356	21476.07	3.6600	3.6598	-1.0270	7.01	1.02	-0.750			
0.3386	21671.53	3.6570	3.6571	-1.0293	7.02	1.03	-0.750			
0.3418	21872.15	3.6540	3.6541	-1.0536	7.02	1.03	-0.750			
0.3450	22077.59	3.6510	3.6509	-1.0583	7.03	1.04	-0.750			
0.3481	22280.99	3.6480	3.6479	-1.0668	7.04	1.05	-0.750			
0.3513	22485.81	3.6450	3.6450	-1.0725	7.05	1.06	-0.750			
0.3546	22693.33	3.6420	3.6421	-1.0887	7.05	1.06	-0.750			
0.3579	22905.08	3.6390	3.6389	-1.0978	7.05	1.06	-0.750			
0.3612	23113.90	3.6360	3.6360	-1.1092	7.06	1.07	-0.750			
0.3645	23325.59	3.6330	3.6330	-1.1190	7.06	1.07	-0.750			
0.3679	23544.66	3.6300	3.6299	-1.1422	7.06	1.07	-0.750			
0.3714	23766.47	3.6270	3.6268	-1.1460	7.07	1.08	-0.750			
0.3748	23987.86	3.6240	3.6242	-1.1566	7.08	1.09	-0.750			
0.3783	24208.96	3.6210	3.6212	-1.1708	7.09	1.10	-0.750			
0.3819	24440.81	3.6180	3.6179	-1.1812	7.09	1.10	-0.750			
0.3854	24667.31	3.6150	3.6148	-1.1796	7.10	1.11	-0.750			
0.3889	24890.89	3.6120	3.6121	-1.1814	7.10	1.11	-0.750			
0.3925	25118.31	3.6090	3.6090	-1.2109	7.10	1.11	-0.750			
0.3962	25354.21	3.6060	3.6059	-1.2161	7.10	1.11	-0.750			
0.3998	25586.79	3.6030	3.6026	-1.2214	7.11	1.12	-0.750			
0.4034	25820.25	3.6000	3.6006	-1.2466	7.11	1.12	-0.750	0.415	0.965	
0.4073	26064.21	3.5970	3.5968	-1.2724	7.11	1.12	-0.750			
0.4111	26311.59	3.5940	3.5939	-1.2823	7.12	1.13	-0.750			
0.4149	26555.56	3.5910	3.5910	-1.2872	7.12	1.13	-0.750			
0.4189	26812.44	3.5880	3.5881	-1.3092	7.12	1.13	-0.750			
0.4229	27067.56	3.5850	3.5849	-1.3095	7.13	1.14	-0.750			
0.4268	27316.10	3.5820	3.5821	-1.3102	7.13	1.14	-0.750			
0.4307	27562.30	3.5790	3.5790	-1.3137	7.13	1.14	-0.750			
0.4346	27812.16	3.5760	3.5759	-1.3277	7.14	1.15	-0.750			
0.4386	28067.41	3.5730	3.5729	-1.3505	7.15	1.16	-0.750			
0.4426	28327.11	3.5700	3.5698	-1.3650	7.15	1.16	-0.750			
0.4469	28599.21	3.5670	3.5671	-1.3971	7.15	1.16	-0.750			
0.4511	28868.80	3.5640	3.5639	-1.4140	7.15	1.16	-0.750			
0.4553	29142.10	3.5610	3.5611	-1.4181	7.15	1.16	-0.750			
0.4597	29418.38	3.5580	3.5579	-1.4244	7.16	1.17	-0.750			
0.4639	29689.36	3.5550	3.5549	-1.4309	7.16	1.17	-0.750			
0.4681	29958.44	3.5520	3.5521	-1.4496	7.16	1.17	-0.750			
0.4725	30242.97	3.5490	3.5489	-1.4635	7.17	1.18	-0.750			
0.4770	30528.17	3.5460	3.5458	-1.4751	7.18	1.19	-0.750			
0.4814	30809.42	3.5430	3.5429	-1.4857	7.18	1.19	-0.750			
0.4860	31102.17	3.5400	3.5402	-1.4975	7.19	1.20	-0.750			
0.4905	31394.60	3.5370	3.5371	-1.5102	7.20	1.21	-0.750			
0.4951	31684.23	3.5340	3.5338	-1.4994	7.20	1.21	-0.750			
0.4995	31964.94	3.5310	3.5313	-1.5044	7.20	1.21	-0.750			
0.5041	32262.45	3.5280	3.5282	-1.5163	7.20	1.21	-0.750			
0.5086	32552.97	3.5250	3.5250	-1.5208	7.20	1.21	-0.750			
0.5132	32844.67	3.5220	3.5220	-1.5294	7.21	1.22	-0.750			
0.5178	33140.76	3.5190	3.5191	-1.5334	7.21	1.22	-0.750			
0.5225	33438.78	3.5160	3.5159	-1.5444	7.22	1.23	-0.750			
0.5271	33735.06	3.5130	3.5128	-1.5385	7.22	1.23	-0.750			
0.5317	34026.66	3.5100	3.5100	-1.5318	7.22	1.23	-0.750			
0.5363	34325.32	3.5070	3.5068	-1.5322	7.23	1.24	-0.750			
0.5409	34617.10	3.5040	3.5040	-1.5306	7.23	1.24	-0.750			
0.5455	34909.72	3.5010	3.5011	-1.5183	7.24	1.25	-0.750			
0.5501	35208.41	3.4980	3.4979	-1.5306	7.24	1.25	-0.750			
0.5547	35500.06	3.4950	3.4951	-1.5231	7.25	1.26	-0.750			
0.5592	35789.97	3.4920	3.4921	-1.5279	7.25	1.26	-0.750			
0.5638	36084.32	3.4890	3.4889	-1.5212	7.26	1.27	-0.750			
0.5685	36381.68	3.4860	3.4860	-1.5037	7.26	1.27	-0.750			
0.5730	36671.10	3.4830	3.4830	-1.5026	7.27	1.28	-0.750			
0.5775	36960.89	3.4800	3.4800	-1.4985	7.27	1.28	-0.750			
0.5819	37240.72	3.4770	3.4768	-1.4831	7.28	1.29	-0.750			
0.5863	37524.64	3.4740	3.4741	-1.4853	7.28	1.29	-0.750			
0.5907	37805.56	3.4710	3.4713	-1.4893	7.29	1.30	-0.750			
0.5953	38099.68	3.4680	3.4678	-1.4827	7.30	1.31	-0.750			
0.5999	38392.81	3.4650	3.4650	-1.4674	7.31	1.32	-0.750			
0.6042	38670.48	3.4620	3.4622	-1.4505	7.32	1.33	-0.750			
0.6086	38947.94	3.4590	3.4590	-1.4336	7.33	1.34	-0.750			
0.6128	39216.01	3.4560	3.4558	-1.4092	7.34	1.35	-0.750			
0.6169	39483.67	3.4530	3.4530	-1.3866	7.34	1.35	-0.750			
0.6211	39752.34	3.4500	3.4499	-1.3752	7.35	1.36	-0.750			
0.6252	40015.59	3.4470	3.4470	-1.3552	7.36	1.37	-0.750			
0.6293	40274.26	3.4440	3.4441	-1.3266	7.37	1.38	-0.750			
0.6332	40527.60	3.4410	3.4408	-1.3126	7.38	1.39	-0.750			
0.6371	40775.39	3.4380	3.4380	-1.2846	7.38	1.39	-0.750			
0.6409	41015.47	3.4350	3.4351	-1.2644	7.39	1.40	-0.750			
0.6447	41261.25	3.4320	3.4319	-1.2611	7.40	1.41	-0.750			
0.6485	41504.07	3.4290	3.4290	-1.2352	7.41	1.42	-0.750			
0.6522	41739.62	3.4260	3.4259	-1.2047	7.42	1.43	-0.750			
0.6558	41971.93	3.4230	3.4230	-1.1841	7.43	1.44	-0.750			
0.6593	42196.00	3.4200	3.4200	-1.1433	7.43	1.44	-0.750			
0.6627	42412.17	3.4170	3.4169	-1.1059	7.44	1.45	-0.750			
0.6659	42615.36	3.4140	3.4144	-1.0781	7.45	1.46	-0.750			
0.6690	42817.41	3.4110	3.4109	-1.0568	7.46	1.47	-0.750			
0.6722	43018.82	3.4080	3.4079	-1.0427	7.48	1.49	-0.750			
0.6753	43217.08	3.4050	3.4049	-1.0236	7.49	1.50	-0.750			
0.6784	43417.88	3.4020	3.4023	-1.0026	7.50	1.51	-0.750			
0.6814	43608.67	3.3990	3.3990	-0.9757	7.51	1.52	-0.750			
0.6843	43793.67	3.3960	3.3961	-0.9478	7.52	1.53	-0.750			
0.6870	43970.90	3.3930	3.3928	-0.9099	7.53	1.54	-0.750			
0.6897	44139.69	3.3900	3.3900	-0.8787	7.54	1.55	-0.750			
0.6923	44305.41	3.3870	3.3871	-0.8550	7.55	1.56	-0.750			
0.6948	44467.66	3.3840	3.3840	-0.8331	7.56	1.57	-0.750			
0.6973	44625.25	3.3810	3.3808	-0.8127	7.57	1.58	-0.750			
0.6996	44775.67	3.3780	3.3781	-0.7882	7.58	1.59	-0.750			
0.7020	44926.90	3.3750	3.3749	-0.7680	7.58	1.59	-0.750			
0.7043	45074.92	3.3720	3.3719	-0.7481	7.60	1.61	-0.750			
0.7065	45215.23	3.3690	3.3691	-0.7278	7.61	1.62	-0.750			
0.7086	45351.53	3.3660	3.3661	-0.7092	7.62	1.63	-0.750			
0.7107	45486.06	3.3630	3.3629	-0.6867	7.63	1.64	-0.750			
0.7128	45617.08	3.3600	3.3599	-0.6640	7.64	1.65	-0.750			
0.7147	45741.67	3.3570	3.3571	-0.6408	7.65	1.66	-0.750			
0.7166	45863.52	3.3540	3.3541	-0.6214	7.66	1.67	-0.750			
0.7184	45979.87	3.3510	3.3510	-0.6048	7.67	1.68	-0.750			
0.7202	46092.27	3.3480	3.3478	-0.5852	7.68	1.69	-0.750			
0.7219	46200.89	3.3450	3.3451	-0.5703	7.68	1.69	-0.750			
0.7236	46311.39	3.3420	3.3420	-0.5580	7.69	1.70	-0.750			
0.7253	46419.08	3.3390	3.3390	-0.5468	7.70	1.71	-0.750			
0.7269	46522.19	3.3360	3.3360	-0.5303	7.70	1.71	-0.750			
0.7285	46621.44	3.3330	3.3331	-0.5146	7.71	1.72	-0.750			
0.7300	46718.01	3.3300	3.3299	-0.4997	7.72	1.73	-0.750			
0.7314	46812.36	3.3270	3.3270	-0.4879	7.73	1.74	-0.750			
0.7329	46904.53	3.3240	3.3240	-0.4776	7.74	1.75	-0.750			
0.7343	46996.40	3.3210	3.3210	-0.4681	7.75	1.76	-0.750			
0.7357	47083.87	3.3180	3.3180	-0.4564	7.76	1.77	-0.750			
0.7370	47170.45	3.3150	3.3150	-0.4455	7.77	1.78	-0.750			
0.7384	47255.43	3.3120	3.3119	-0.4340	7.78	1.79	-0.750			
0.7396	47337.50	3.3090	3.3090	-0.4232	7.79	1.80	-0.750			
0.7409	47417.40	3.3060	3.3063	-0.4127	7.80	1.81	-0.750			
0.7421	47495.41	3.3030	3.3030	-0.4026	7.81	1.82	-0.750			
0.7433	47572.02	3.3000	3.3000	-0.3957	7.82	1.83	-0.750			
0.7445	47646.74	3.2970	3.2970	-0.3857	7.83	1.84	-0.750			
0.7456	47719.85	3.2940	3.2940	-0.3791	7.83	1.84	-0.750			
0.7468	47792.31	3.2910	3.2911	-0.3708	7.84	1.85	-0.750			
0.7479	47862.57	3.2880	3.2879	-0.3613	7.85	1.86	-0.750			
0.7489	47931.38	3.2850	3.2850	-0.3517	7.86	1.87	-0.750			
0.7500	47997.76	3.2820	3.2821	-0.3424	7.87	1.88	-0.750			
0.7510	48062.35	3.2790	3.2789	-0.3323	7.87	1.88	-0.750			
0.7520	48125.56	3.2760	3.2760	-0.3252	7.88	1.89	-0.750			
0.7529	48186.84	3.2730	3.2730	-0.3167	7.89	1.90	-0.750			
0.7539	48246.90	3.2700	3.2699	-0.3109	7.89	1.90	-0.750			
0.7548	48305.67	3.2670	3.2670	-0.3047	7.90	1.91	-0.750			
0.7557	48363.04	3.2640	3.2641	-0.3003	7.91	1.92	-0.750			
0.7566	48420.01	3.2610	3.2610	-0.2951	7.92	1.93	-0.750			
0.7574	48476.62	3.2580	3.2579	-0.2916	7.92	1.93	-0.750			
0.7583	48531.91	3.2550	3.2551	-0.2863	7.93	1.94	-0.750			
0.7592	48586.90	3.2520	3.2519	-0.2811	7.94	1.95	-0.750			
0.7600	48640.53	3.2490	3.2490	-0.2759	7.94	1.95	-0.750			
0.7608	48693.01	3.2460	3.2461	-0.2715	7.95	1.96	-0.750			
0.7616	48743.63	3.2430	3.2429	-0.2673	7.96	1.97	-0.750			
0.7624	48794.99	3.2400	3.2399	-0.2639	7.96	1.97	-0.750			
0.7632	48845.17	3.2370	3.2370	-0.2600	7.97	1.98	-0.750			
0.7640	48895.03	3.2340	3.2341	-0.2572	7.98	1.99	-0.750			
0.7648	48944.86	3.2310	3.2309	-0.2512	7.98	1.99	-0.750			
0.7655	48992.52	3.2280	3.2280	-0.2456	7.99	2.00	-0.750			
0.7662	49038.45	3.2250	3.2252	-0.2408	7.99	2.00	-0.750			
0.7669	49083.76	3.2220	3.2219	-0.2370	8.00	2.01	-0.750			
0.7676	49128.96	3.2190	3.2190	-0.2336	8.01	2.02	-0.750			
0.7683	49173.13	3.2160	3.2160	-0.2303	8.02	2.03	-0.750			
0.7690	49217.13	3.2130	3.2131	-0.2289	8.03	2.04	-0.750			
0.7697	49261.76	3.2100	3.2100	-0.2268	8.03	2.04	-0.750			
0.7704	49304.57	3.2070	3.2068	-0.2234	8.04	2.05	-0.750			
0.7710	49347.20	3.2040	3.2040	-0.2206	8.05	2.06	-0.750			
0.7717	49389.49	3.2010	3.2011	-0.2157	8.06	2.07	-0.750			
0.7724	49430.50	3.1980	3.1979	-0.2125	8.06	2.07	-0.750			
0.7730	49470.78	3.1950	3.1951	-0.2098	8.07	2.08	-0.750			
0.7736	49510.74	3.1920	3.1921	-0.2065	8.08	2.09	-0.750			
0.7742	49549.64	3.1890	3.1889	-0.2029	8.08	2.09	-0.750			
0.7748	49588.72	3.1860	3.1860	-0.1999	8.09	2.10	-0.750			
0.7754	49626.34	3.1830	3.1830	-0.1965	8.10	2.11	-0.750			
0.7760	49663.84	3.1800	3.1801	-0.1942	8.10	2.11	-0.750			
0.7766	49701.40	3.1770	3.1770	-0.1920	8.11	2.12	-0.750			
0.7771	49737.34	3.1740	3.1739	-0.1892	8.12	2.13	-0.750			
0.7777	49773.07	3.1710	3.1710	-0.1868	8.12	2.13	-0.750			
0.7783	49808.80	3.1680	3.1681	-0.1862	8.13	2.14	-0.750			
0.7788	49844.83	3.1650	3.1649	-0.1837	8.14	2.15	-0.750			
0.7794	49880.17	3.1620	3.1620	-0.1823	8.14	2.15	-0.750			
0.7799	49914.92	3.1590	3.1590	-0.1797	8.15	2.16	-0.750			
0.7805	49949.12	3.1560	3.1561	-0.1773	8.16	2.17	-0.750			
0.7810	49983.14	3.1530	3.1529	-0.1750	8.16	2.17	-0.750			
0.7815	50016.23	3.1500	3.1501	-0.1719	8.17	2.18	-0.750			
0.7820	50049.02	3.1470	3.1470	-0.1696	8.18	2.19	-0.750			
0.7825	50081.19	3.1440	3.1440	-0.1669	8.18	2.19	-0.750			
0.7830	50113.28	3.1410	3.1410	-0.1657	8.19	2.20	-0.750			
0.7835	50144.65	3.1380	3.1379	-0.1628	8.20	2.21	-0.750			
0.7840	50175.72	3.1350	3.1350	-0.1609	8.20	2.21	-0.750			
0.7845	50206.32	3.1320	3.1320	-0.1594	8.21	2.22	-0.750			
0.7849	50236.57	3.1290	3.1291	-0.1584	8.22	2.23	-0.750			
0.7854	50267.05	3.1260	3.1258	-0.1569	8.22	2.23	-0.750			
0.7859	50297.05	3.1230	3.1230	-0.1556	8.23	2.24	-0.750			
0.7864	50326.78	3.1200	3.1200	-0.1548	8.23	2.24	-0.750			
0.7868	50356.36	3.1170	3.1171	-0.1533	8.24	2.25	-0.750			
0.7873	50385.96	3.1140	3.1139	-0.1525	8.24	2.25	-0.750			
0.7877	50415.01	3.1110	3.1109	-0.1512	8.25	2.26	-0.750			
0.7882	50443.95	3.1080	3.1080	-0.1491	8.25	2.26	-0.750			
0.7886	50472.55	3.1050	3.1050	-0.1468	8.26	2.27	-0.750			
0.7891	50500.54	3.1020	3.1020	-0.1447	8.26	2.27	-0.750			
0.7895	50528.34	3.0990	3.0991	-0.1436	8.27	2.28	-0.750			
0.7899	50555.34	3.0960	3.0960	-0.1415	8.27	2.28	-0.750			
0.7903	50582.25	3.0930	3.0929	-0.1400	8.28	2.29	-0.750			
0.7908	50609.06	3.0900	3.0899	-0.1384	8.28	2.29	-0.750			
0.7912	50635.27	3.0870	3.0870	-0.1371	8.29	2.30	-0.750			
0.7916	50661.41	3.0840	3.0841	-0.1368	8.29	2.30	-0.750			
0.7920	50687.63	3.0810	3.0810	-0.1362	8.30	2.31	-0.750			
0.7924	50713.80	3.0780	3.0779	-0.1349	8.31	2.32	-0.750			
0.7928	50739.44	3.0750	3.0750	-0.1337	8.31	2.32	-0.750			
0.7932	50765.10	3.0720	3.0721	-0.1331	8.32	2.33	-0.750			
0.7936	50790.64	3.0690	3.0690	-0.1318	8.33	2.34	-0.750			
0.7940	50816.01	3.0660	3.0659	-0.1311	8.33	2.34	-0.750			
0.7944	50840.99	3.0630	3.0631	-0.1297	8.34	2.35	-0.750			
0.7948	50865.55	3.0600	3.0600	-0.1282	8.35	2.36	-0.750			
0.7952	50890.08	3.0570	3.0570	-0.1274	8.35	2.36	-0.750			
0.7955	50914.56	3.0540	3.0540	-0.1271	8.36	2.37	-0.750			
0.7959	50938.87	3.0510	3.0510	-0.1258	8.37	2.38	-0.750			
0.7963	50962.95	3.0480	3.0480	-0.1251	8.37	2.38	-0.750			
0.7967	50986.98	3.0450	3.0449	-0.1245	8.38	2.39	-0.750			
0.7970	51010.81	3.0420	3.0421	-0.1234	8.39	2.40	-0.750			
0.7974	51034.42	3.0390	3.0389	-0.1225	8.39	2.40	-0.750			
0.7978	51057.92	3.0360	3.0360	-0.1215	8.40	2.41	-0.750			
0.7981	51081.13	3.0330	3.0330	-0.1203	8.41	2.42	-0.750			
0.7985	51104.01	3.0300	3.0301	-0.1191	8.41	2.42	-0.750			
0.7989	51126.90	3.0270	3.0269	-0.1183	8.42	2.43	-0.750			
0.7992	51149.35	3.0240	3.0241	-0.1174	8.42	2.43	-0.750			
0.7996	51171.64	3.0210	3.0210	-0.1162	8.43	2.44	-0.750			
0.7999	51193.89	3.0180	3.0180	-0.1155	8.44	2.45	-0.750			
0.8002	51215.95	3.0150	3.0150	-0.1147	8.44	2.45	-0.750			
0.8006	51237.91	3.0120	3.0120	-0.1141	8.45	2.46	-0.750			
0.8009	51259.80	3.0090	3.0091	-0.1135	8.45	2.46	-0.750			
0.8013	51281.52	3.0060	3.0059	-0.1128	8.46	2.47	-0.750			
0.8016	51303.12	3.0030	3.0030	-0.1113	8.46	2.47	-0.750			
