Ah_balance (normalized)	Ah_balance (mAh)	Voltage - fit (V)	Voltage -  interpolate (V)	dQ/dV (1/V)	Temperature (°C)	Temperature - diff (°C)	Current (C)	R_DC 0ms (mOhm)	R_DC 50ms (mOhm)	R_DC 50 ms PEC (mOhm)
0.0935	5986.31	4.1980	4.2000	0.8048	7.99	2.00	0.750			
0.0961	6151.22	4.1950	4.1962	0.8455	7.98	1.99	0.750			
0.0987	6313.65	4.1920	4.1926	0.8211	7.98	1.99	0.750			
0.1010	6464.48	4.1890	4.1893	0.7789	7.97	1.98	0.750			
0.1034	6616.52	4.1860	4.1860	0.7598	7.96	1.97	0.750			
0.1056	6756.44	4.1830	4.1830	0.7199	7.96	1.97	0.750			
0.1077	6894.00	4.1800	4.1801	0.7225	7.95	1.96	0.750			
0.1099	7031.78	4.1770	4.1770	0.7231	7.95	1.96	0.750			
0.1120	7171.18	4.1740	4.1740	0.7268	7.95	1.96	0.750			
0.1143	7312.64	4.1710	4.1708	0.7235	7.94	1.95	0.750			
0.1164	7450.46	4.1680	4.1682	0.7283	7.94	1.95	0.750			
0.1186	7590.98	4.1650	4.1651	0.7292	7.94	1.95	0.750			
0.1208	7732.10	4.1620	4.1619	0.7331	7.93	1.94	0.750			
0.1230	7871.47	4.1590	4.1592	0.7370	7.93	1.94	0.750			
0.1252	8011.97	4.1560	4.1560	0.7405	7.92	1.93	0.750			
0.1274	8155.15	4.1530	4.1529	0.7424	7.92	1.93	0.750			
0.1297	8299.62	4.1500	4.1500	0.7469	7.92	1.93	0.750			
0.1319	8442.62	4.1470	4.1471	0.7454	7.91	1.92	0.750			
0.1342	8585.69	4.1440	4.1438	0.7471	7.91	1.92	0.750			
0.1364	8728.39	4.1410	4.1409	0.7490	7.91	1.92	0.750			
0.1386	8872.79	4.1380	4.1380	0.7454	7.90	1.91	0.750			
0.1409	9016.50	4.1350	4.1349	0.7476	7.89	1.90	0.750			
0.1431	9159.43	4.1320	4.1321	0.7468	7.89	1.90	0.750			
0.1454	9303.83	4.1290	4.1289	0.7526	7.88	1.89	0.750			
0.1476	9446.99	4.1260	4.1260	0.7576	7.88	1.89	0.750			
0.1499	9592.02	4.1230	4.1231	0.7646	7.88	1.89	0.750			
0.1522	9738.92	4.1200	4.1200	0.7675	7.87	1.88	0.750			
0.1545	9888.76	4.1170	4.1169	0.7738	7.87	1.88	0.750			
0.1568	10037.08	4.1140	4.1141	0.7785	7.86	1.87	0.750			
0.1592	10188.15	4.1110	4.1108	0.7776	7.86	1.87	0.750			
0.1615	10338.57	4.1080	4.1080	0.7787	7.86	1.87	0.750			
0.1639	10489.60	4.1050	4.1050	0.7712	7.85	1.86	0.750			
0.1662	10635.64	4.1020	4.1021	0.7725	7.85	1.86	0.750			
0.1685	10781.77	4.0990	4.0991	0.7828	7.85	1.86	0.750			
0.1708	10929.75	4.0960	4.0959	0.7881	7.84	1.85	0.750			
0.1732	11081.95	4.0930	4.0930	0.7955	7.84	1.85	0.750			
0.1756	11239.23	4.0900	4.0900	0.8034	7.83	1.84	0.750			
0.1780	11394.47	4.0870	4.0871	0.8042	7.83	1.84	0.750			
0.1805	11552.94	4.0840	4.0840	0.8116	7.83	1.84	0.750			
0.1829	11706.80	4.0810	4.0811	0.8011	7.82	1.83	0.750			
0.1853	11858.69	4.0780	4.0780	0.7968	7.82	1.83	0.750			
0.1877	12010.37	4.0750	4.0750	0.8007	7.81	1.82	0.750			
0.1901	12165.84	4.0720	4.0720	0.8047	7.81	1.82	0.750			
0.1925	12320.31	4.0690	4.0689	0.8091	7.81	1.82	0.750			
0.1949	12475.59	4.0660	4.0661	0.8163	7.80	1.81	0.750			
0.1974	12632.19	4.0630	4.0631	0.8228	7.80	1.81	0.750			
0.1999	12793.00	4.0600	4.0598	0.8268	7.80	1.81	0.750			
0.2024	12952.60	4.0570	4.0570	0.8314	7.79	1.80	0.750			
0.2049	13112.71	4.0540	4.0540	0.8322	7.79	1.80	0.750			
0.2074	13273.61	4.0510	4.0509	0.8344	7.78	1.79	0.750			
0.2099	13434.28	4.0480	4.0482	0.8324	7.78	1.79	0.750			
0.2124	13593.41	4.0450	4.0449	0.8370	7.77	1.78	0.750			
0.2149	13753.30	4.0420	4.0420	0.8440	7.77	1.78	0.750			
0.2175	13918.22	4.0390	4.0389	0.8420	7.76	1.77	0.750			
0.2200	14078.72	4.0360	4.0362	0.8414	7.75	1.76	0.750			
0.2225	14242.95	4.0330	4.0329	0.8477	7.75	1.76	0.750			
0.2251	14405.33	4.0300	4.0301	0.8469	7.74	1.75	0.750			
0.2276	14566.90	4.0270	4.0268	0.8474	7.74	1.75	0.750			
0.2301	14728.14	4.0240	4.0240	0.8495	7.74	1.75	0.750			
0.2327	14890.63	4.0210	4.0211	0.8577	7.73	1.74	0.750			
0.2353	15057.56	4.0180	4.0180	0.8743	7.73	1.74	0.750			
0.2379	15227.88	4.0150	4.0150	0.8723	7.72	1.73	0.750			
0.2405	15395.09	4.0120	4.0120	0.8796	7.72	1.73	0.750			
0.2432	15565.76	4.0090	4.0091	0.8815	7.72	1.73	0.750			
0.2459	15735.92	4.0060	4.0060	0.8842	7.71	1.72	0.750			
0.2485	15905.29	4.0030	4.0030	0.8857	7.71	1.72	0.750			
0.2512	16074.00	4.0000	4.0001	0.8875	7.70	1.71	0.750			
0.2538	16245.59	3.9970	3.9970	0.8888	7.70	1.71	0.750			
0.2565	16419.18	3.9940	3.9940	0.8968	7.69	1.70	0.750			
0.2592	16588.67	3.9910	3.9911	0.8904	7.69	1.70	0.750			
0.2619	16762.41	3.9880	3.9879	0.8925	7.68	1.69	0.750			
0.2645	16931.15	3.9850	3.9849	0.9000	7.68	1.69	0.750			
0.2672	17102.33	3.9820	3.9821	0.9034	7.67	1.68	0.750			
0.2700	17277.85	3.9790	3.9790	0.9021	7.66	1.67	0.750			
0.2727	17453.15	3.9760	3.9759	0.9109	7.66	1.67	0.750			
0.2754	17626.83	3.9730	3.9732	0.9139	7.65	1.66	0.750			
0.2781	17801.48	3.9700	3.9700	0.9234	7.65	1.66	0.750			
0.2809	17978.68	3.9670	3.9669	0.9359	7.65	1.66	0.750			
0.2837	18157.70	3.9640	3.9639	0.9420	7.64	1.65	0.750			
0.2867	18345.92	3.9610	3.9611	0.9466	7.63	1.64	0.750			
0.2895	18529.02	3.9580	3.9581	0.9526	7.62	1.63	0.750			
0.2923	18709.70	3.9550	3.9551	0.9569	7.61	1.62	0.750			
0.2952	18892.91	3.9520	3.9522	0.9638	7.61	1.62	0.750			
0.2981	19075.96	3.9490	3.9489	0.9622	7.60	1.61	0.750			
0.3010	19261.63	3.9460	3.9461	0.9688	7.59	1.60	0.750			
0.3039	19450.33	3.9430	3.9430	0.9778	7.58	1.59	0.750			
0.3068	19638.37	3.9400	3.9400	0.9866	7.58	1.59	0.750			
0.3098	19827.07	3.9370	3.9370	0.9852	7.57	1.58	0.750			
0.3128	20018.24	3.9340	3.9340	0.9872	7.56	1.57	0.750			
0.3157	20207.28	3.9310	3.9309	0.9985	7.56	1.57	0.750			
0.3187	20399.38	3.9280	3.9282	1.0164	7.55	1.56	0.750			
0.3218	20595.54	3.9250	3.9249	1.0295	7.55	1.56	0.750			
0.3249	20795.88	3.9220	3.9219	1.0332	7.54	1.55	0.750			
0.3280	20994.76	3.9190	3.9190	1.0443	7.53	1.54	0.750			
0.3312	21197.68	3.9160	3.9162	1.0510	7.52	1.53	0.750			
0.3344	21400.28	3.9130	3.9128	1.0594	7.51	1.52	0.750			
0.3375	21600.81	3.9100	3.9100	1.0581	7.50	1.51	0.750			
0.3407	21804.70	3.9070	3.9070	1.0668	7.49	1.50	0.750			
0.3439	22008.41	3.9040	3.9041	1.0803	7.49	1.50	0.750			
0.3471	22217.39	3.9010	3.9008	1.0939	7.48	1.49	0.750			
0.3504	22427.61	3.8980	3.8981	1.1129	7.47	1.48	0.750			
0.3538	22646.20	3.8950	3.8948	1.1270	7.46	1.47	0.750			
0.3573	22864.72	3.8920	3.8921	1.1395	7.45	1.46	0.750			
0.3607	23084.52	3.8890	3.8893	1.1442	7.44	1.45	0.750			
0.3642	23307.47	3.8860	3.8860	1.1636	7.42	1.43	0.750			
0.3676	23529.14	3.8830	3.8829	1.1759	7.41	1.42	0.750			
0.3711	23752.55	3.8800	3.8799	1.1872	7.40	1.41	0.750			
0.3747	23982.68	3.8770	3.8770	1.2119	7.39	1.40	0.750			
0.3784	24217.76	3.8740	3.8740	1.2344	7.38	1.39	0.750			
0.3822	24460.77	3.8710	3.8710	1.2471	7.37	1.38	0.750			
0.3860	24702.11	3.8680	3.8681	1.2595	7.35	1.36	0.750			
0.3897	24942.58	3.8650	3.8651	1.2749	7.34	1.35	0.750			
0.3936	25188.70	3.8620	3.8621	1.2943	7.33	1.34	0.750			
0.3974	25432.63	3.8590	3.8589	1.3169	7.32	1.33	0.750			
0.4013	25685.74	3.8560	3.8561	1.3520	7.31	1.32	0.750			
0.4055	25950.66	3.8530	3.8531	1.3847	7.29	1.30	0.750			
0.4097	26222.46	3.8500	3.8498	1.4194	7.28	1.29	0.750	0.371	0.940	
0.4141	26501.37	3.8470	3.8473	1.4404	7.26	1.27	0.750			
0.4184	26779.86	3.8440	3.8442	1.4690	7.24	1.25	0.750			
0.4229	27064.96	3.8410	3.8410	1.5110	7.23	1.24	0.750			
0.4274	27355.47	3.8380	3.8380	1.5248	7.21	1.22	0.750			
0.4321	27652.15	3.8350	3.8348	1.5410	7.20	1.21	0.750			
0.4367	27951.93	3.8320	3.8321	1.5598	7.18	1.19	0.750			
0.4415	28253.11	3.8290	3.8292	1.6013	7.16	1.17	0.750			
0.4463	28561.36	3.8260	3.8258	1.6417	7.14	1.15	0.750			
0.4512	28878.96	3.8230	3.8228	1.6658	7.12	1.13	0.750			
0.4563	29205.35	3.8200	3.8200	1.7041	7.10	1.11	0.750			
0.4616	29541.35	3.8170	3.8171	1.7590	7.08	1.09	0.750			
0.4670	29887.59	3.8140	3.8140	1.7661	7.06	1.07	0.750			
0.4723	30225.78	3.8110	3.8110	1.7987	7.04	1.05	0.750			
0.4776	30564.51	3.8080	3.8080	1.8414	7.02	1.03	0.750			
0.4831	30918.86	3.8050	3.8049	1.9045	6.99	1.00	0.750			
0.4889	31292.10	3.8020	3.8020	1.9241	6.97	0.98	0.750			
0.4949	31674.80	3.7990	3.7992	1.9756	6.95	0.96	0.750			
0.5009	32055.17	3.7960	3.7961	2.0225	6.92	0.93	0.750			
0.5070	32446.63	3.7930	3.7928	2.0430	6.90	0.91	0.750			
0.5131	32836.97	3.7900	3.7900	2.0748	6.87	0.88	0.750			
0.5194	33242.75	3.7870	3.7871	2.1477	6.85	0.86	0.750			
0.5261	33667.77	3.7840	3.7840	2.1737	6.82	0.83	0.750			
0.5325	34082.21	3.7810	3.7810	2.2210	6.80	0.81	0.750			
0.5393	34514.33	3.7780	3.7779	2.2873	6.77	0.78	0.750			
0.5462	34953.67	3.7750	3.7749	2.3526	6.73	0.74	0.750			
0.5534	35416.38	3.7720	3.7720	2.3580	6.71	0.72	0.750			
0.5607	35884.36	3.7690	3.7690	2.4114	6.68	0.69	0.750			
0.5678	36340.00	3.7660	3.7660	2.4234	6.64	0.65	0.750			
0.5751	36807.15	3.7630	3.7631	2.4675	6.61	0.62	0.750			
0.5826	37284.39	3.7600	3.7600	2.5445	6.58	0.59	0.750			
0.5905	37790.81	3.7570	3.7570	2.5861	6.55	0.56	0.750			
0.5982	38283.18	3.7540	3.7542	2.6236	6.52	0.53	0.750			
0.6061	38789.21	3.7510	3.7513	2.6716	6.49	0.50	0.750			
0.6140	39294.91	3.7480	3.7481	2.7885	6.45	0.46	0.750			
0.6228	39860.51	3.7450	3.7449	2.9129	6.42	0.43	0.750			
0.6318	40435.19	3.7420	3.7422	3.0421	6.39	0.40	0.750			
0.6411	41031.29	3.7390	3.7388	3.1919	6.35	0.36	0.750			
0.6508	41652.33	3.7360	3.7359	3.3295	6.31	0.32	0.750			
0.6613	42323.42	3.7330	3.7330	3.3040	6.28	0.29	0.750			
0.6711	42953.57	3.7300	3.7299	3.1932	6.25	0.26	0.750			
0.6804	43546.73	3.7270	3.7269	3.0333	6.22	0.23	0.750			
0.6896	44135.84	3.7240	3.7240	2.9263	6.19	0.20	0.750			
0.6982	44684.89	3.7210	3.7209	2.7160	6.17	0.18	0.750			
0.7059	45178.97	3.7180	3.7180	2.4197	6.15	0.16	0.750			
0.7127	45613.12	3.7150	3.7152	2.1353	6.13	0.14	0.750			
0.7187	45996.86	3.7120	3.7122	1.8939	6.12	0.13	0.750			
0.7238	46326.34	3.7090	3.7093	1.6938	6.11	0.12	0.750			
0.7285	46622.16	3.7060	3.7059	1.5106	6.09	0.10	0.750			
0.7326	46887.83	3.7030	3.7029	1.3700	6.08	0.09	0.750			
0.7365	47135.67	3.7000	3.7001	1.2721	6.08	0.09	0.750			
0.7401	47364.84	3.6970	3.6971	1.1978	6.07	0.08	0.750			
0.7435	47585.90	3.6940	3.6940	1.1498	6.07	0.08	0.750			
0.7468	47793.11	3.6910	3.6910	1.0978	6.06	0.07	0.750			
0.7499	47996.71	3.6880	3.6880	1.0815	6.05	0.06	0.750			
0.7532	48202.37	3.6850	3.6850	1.0787	6.05	0.06	0.750			
0.7564	48412.69	3.6820	3.6820	1.0672	6.04	0.05	0.750			
0.7597	48620.37	3.6790	3.6789	1.0518	6.04	0.05	0.750			
0.7628	48821.32	3.6760	3.6761	1.0159	6.03	0.04	0.750			
0.7659	49014.67	3.6730	3.6731	0.9857	6.02	0.03	0.750			
0.7687	49199.86	3.6700	3.6700	0.9652	6.02	0.03	0.750			
0.7715	49378.09	3.6670	3.6667	0.9345	6.01	0.02	0.750			
0.7742	49551.89	3.6640	3.6640	0.9139	6.01	0.02	0.750			
0.7770	49726.56	3.6610	3.6612	0.9119	6.01	0.02	0.750			
0.7797	49903.36	3.6580	3.6580	0.9089	6.00	0.01	0.750			
0.7825	50078.01	3.6550	3.6549	0.9023	6.00	0.01	0.750			
0.7851	50248.42	3.6520	3.6521	0.8878	6.00	0.01	0.750			
0.7878	50419.83	3.6490	3.6490	0.8666	6.00	0.01	0.750			
0.7904	50585.59	3.6460	3.6461	0.8620	6.00	0.01	0.750			
0.7930	50748.93	3.6430	3.6430	0.8504	5.99	0.00	0.750			
0.7954	50907.75	3.6400	3.6401	0.8393	5.99	0.00	0.750			
0.7979	51068.74	3.6370	3.6369	0.8339	5.99	0.00	0.750			
0.8005	51231.88	3.6340	3.6340	0.8111	5.99	0.00	0.750			
0.8030	51392.98	3.6310	3.6310	0.7851	5.99	0.00	0.750			
0.8054	51545.42	3.6280	3.6281	0.7320	5.99	0.00	0.750			
0.8076	51686.69	3.6250	3.6251	0.6534	5.99	0.00	0.750			
0.8095	51808.72	3.6220	3.6220	0.5727	5.99	0.00	0.750			
0.8111	51907.87	3.6190	3.6190	0.4831	5.99	0.00	0.750			
0.8122	51982.46	3.6160	3.6163	0.3994	5.99	0.00	0.750			
0.8133	52051.11	3.6130	3.6130	0.3260	5.99	0.00	0.750			
0.8142	52105.95	3.6100	3.6099	0.2604	5.99	0.00	0.750			
0.8148	52145.19	3.6070	3.6069	0.1939	5.99	0.00	0.750			
0.8152	52175.35	3.6040	3.6037	0.1387	5.99	0.00	0.750			
0.8156	52198.54	3.6010	3.5978	0.0877	5.99	0.00	0.750			
0.8157	52202.91	3.5920	3.5905	-0.0590	5.99	0.00	0.750			
0.8157	52206.98	3.5980	3.5608	0.0377	5.99	0.00	0.751			
0.8158	52209.58	3.5950	3.5396	-0.0106	5.99	0.00	0.752			
