Ah_balance (normalized)	Ah_balance (mAh)	Voltage - fit (V)	Voltage -  interpolate (V)	dQ/dV (1/V)	Temperature (°C)	Temperature - diff (°C)	Current (C)	R_DC 0ms (mOhm)	R_DC 50ms (mOhm)	R_DC 50 ms PEC (mOhm)
0.0955	6109.89	4.1960	4.1982	0.8449	8.16	2.17	0.750			
0.0982	6282.19	4.1930	4.1941	0.8679	8.15	2.16	0.750			
0.1007	6447.46	4.1900	4.1907	0.8317	8.14	2.15	0.750			
0.1031	6600.42	4.1870	4.1872	0.7845	8.14	2.15	0.750			
0.1057	6762.80	4.1840	4.1837	0.7775	8.13	2.14	0.750			
0.1076	6883.30	4.1810	4.1811	0.7082	8.13	2.14	0.750			
0.1097	7018.90	4.1780	4.1781	0.7093	8.12	2.13	0.750			
0.1118	7154.25	4.1750	4.1750	0.7118	8.12	2.13	0.750			
0.1139	7292.16	4.1720	4.1719	0.7117	8.11	2.12	0.750			
0.1161	7432.16	4.1690	4.1691	0.7071	8.11	2.12	0.750			
0.1182	7566.92	4.1660	4.1660	0.7113	8.10	2.11	0.750			
0.1204	7703.81	4.1630	4.1630	0.7123	8.10	2.11	0.750			
0.1225	7837.16	4.1600	4.1601	0.7061	8.09	2.10	0.750			
0.1246	7973.50	4.1570	4.1573	0.7170	8.09	2.10	0.750			
0.1267	8111.69	4.1540	4.1541	0.7228	8.08	2.09	0.750			
0.1290	8253.72	4.1510	4.1509	0.7277	8.07	2.08	0.750			
0.1312	8393.82	4.1480	4.1481	0.7271	8.07	2.08	0.750			
0.1333	8533.16	4.1450	4.1451	0.7271	8.06	2.07	0.750			
0.1355	8672.02	4.1420	4.1420	0.7329	8.05	2.06	0.750			
0.1377	8812.68	4.1390	4.1389	0.7323	8.05	2.06	0.750			
0.1399	8953.90	4.1360	4.1360	0.7292	8.04	2.05	0.750			
0.1421	9094.51	4.1330	4.1331	0.7366	8.04	2.05	0.750			
0.1443	9234.53	4.1300	4.1302	0.7459	8.03	2.04	0.750			
0.1465	9378.69	4.1270	4.1269	0.7516	8.02	2.03	0.750			
0.1488	9521.85	4.1240	4.1240	0.7562	8.02	2.03	0.750			
0.1511	9668.99	4.1210	4.1210	0.7605	8.01	2.02	0.750			
0.1534	9819.46	4.1180	4.1182	0.7673	8.01	2.02	0.750			
0.1557	9967.52	4.1150	4.1150	0.7734	8.00	2.01	0.750			
0.1580	10114.09	4.1120	4.1120	0.7697	8.00	2.01	0.750			
0.1603	10262.13	4.1090	4.1088	0.7704	7.99	2.00	0.750			
0.1626	10408.25	4.1060	4.1061	0.7750	7.98	1.99	0.750			
0.1650	10560.68	4.1030	4.1029	0.7724	7.98	1.99	0.750			
0.1673	10709.17	4.1000	4.0999	0.7718	7.97	1.98	0.750			
0.1696	10855.88	4.0970	4.0971	0.7701	7.96	1.97	0.750			
0.1719	11004.49	4.0940	4.0941	0.7781	7.96	1.97	0.750			
0.1743	11153.26	4.0910	4.0909	0.7788	7.95	1.96	0.750			
0.1766	11302.33	4.0880	4.0881	0.7886	7.94	1.95	0.750			
0.1790	11453.91	4.0850	4.0850	0.7854	7.94	1.95	0.750			
0.1814	11607.64	4.0820	4.0819	0.7943	7.93	1.94	0.750			
0.1838	11760.29	4.0790	4.0791	0.7938	7.93	1.94	0.750			
0.1861	11913.04	4.0760	4.0760	0.7931	7.92	1.93	0.750			
0.1885	12066.04	4.0730	4.0730	0.7922	7.91	1.92	0.750			
0.1909	12218.84	4.0700	4.0700	0.7910	7.91	1.92	0.750			
0.1932	12366.33	4.0670	4.0671	0.7950	7.90	1.91	0.750			
0.1956	12518.53	4.0640	4.0641	0.8023	7.90	1.91	0.750			
0.1980	12674.03	4.0610	4.0608	0.8083	7.89	1.90	0.750			
0.2005	12830.92	4.0580	4.0580	0.8179	7.88	1.89	0.750			
0.2030	12989.85	4.0550	4.0552	0.8266	7.88	1.89	0.750			
0.2055	13150.13	4.0520	4.0520	0.8380	7.87	1.88	0.750			
0.2080	13309.89	4.0490	4.0490	0.8392	7.86	1.87	0.750			
0.2105	13472.68	4.0460	4.0459	0.8415	7.85	1.86	0.750			
0.2131	13635.40	4.0430	4.0430	0.8454	7.85	1.86	0.750			
0.2156	13799.39	4.0400	4.0401	0.8462	7.84	1.85	0.750			
0.2182	13962.09	4.0370	4.0370	0.8458	7.83	1.84	0.750			
0.2206	14121.45	4.0340	4.0341	0.8481	7.83	1.84	0.750			
0.2232	14285.08	4.0310	4.0308	0.8474	7.82	1.83	0.750			
0.2257	14447.15	4.0280	4.0280	0.8525	7.81	1.82	0.750			
0.2283	14613.33	4.0250	4.0250	0.8514	7.80	1.81	0.750			
0.2309	14777.90	4.0220	4.0220	0.8515	7.79	1.80	0.750			
0.2334	14938.81	4.0190	4.0190	0.8499	7.78	1.79	0.750			
0.2360	15101.93	4.0160	4.0156	0.8566	7.77	1.78	0.750			
0.2385	15264.67	4.0130	4.0130	0.8573	7.77	1.78	0.750			
0.2411	15432.51	4.0100	4.0100	0.8665	7.76	1.77	0.750			
0.2437	15598.94	4.0070	4.0070	0.8728	7.76	1.77	0.750			
0.2464	15768.48	4.0040	4.0041	0.8845	7.75	1.76	0.750			
0.2490	15937.36	4.0010	4.0010	0.8916	7.75	1.76	0.750			
0.2517	16110.33	3.9980	3.9979	0.8916	7.74	1.75	0.750			
0.2544	16281.80	3.9950	3.9950	0.8995	7.73	1.74	0.750			
0.2571	16456.21	3.9920	3.9921	0.9044	7.72	1.73	0.750			
0.2599	16631.58	3.9890	3.9890	0.9122	7.71	1.72	0.750			
0.2626	16806.32	3.9860	3.9861	0.9110	7.71	1.72	0.750			
0.2653	16979.71	3.9830	3.9830	0.9095	7.70	1.71	0.750			
0.2681	17155.22	3.9800	3.9800	0.9091	7.69	1.70	0.750			
0.2708	17332.02	3.9770	3.9770	0.9139	7.68	1.69	0.750			
0.2735	17504.51	3.9740	3.9740	0.9158	7.67	1.68	0.750			
0.2763	17680.99	3.9710	3.9709	0.9160	7.66	1.67	0.750			
0.2790	17855.05	3.9680	3.9680	0.9257	7.66	1.67	0.750			
0.2818	18033.73	3.9650	3.9650	0.9360	7.65	1.66	0.750			
0.2846	18214.20	3.9620	3.9621	0.9475	7.64	1.65	0.750			
0.2875	18400.71	3.9590	3.9589	0.9530	7.64	1.65	0.750			
0.2904	18584.42	3.9560	3.9561	0.9575	7.63	1.64	0.750			
0.2933	18769.00	3.9530	3.9530	0.9578	7.62	1.63	0.750			
0.2961	18951.41	3.9500	3.9502	0.9702	7.61	1.62	0.750			
0.2990	19134.93	3.9470	3.9469	0.9709	7.60	1.61	0.750			
0.3019	19323.35	3.9440	3.9440	0.9774	7.59	1.60	0.750			
0.3049	19513.48	3.9410	3.9410	0.9785	7.58	1.59	0.750			
0.3078	19701.90	3.9380	3.9382	0.9895	7.57	1.58	0.750			
0.3108	19893.03	3.9350	3.9349	0.9967	7.56	1.57	0.750			
0.3138	20082.19	3.9320	3.9320	1.0067	7.55	1.56	0.750			
0.3168	20274.03	3.9290	3.9290	1.0202	7.54	1.55	0.750			
0.3199	20472.63	3.9260	3.9260	1.0358	7.52	1.53	0.750			
0.3231	20675.83	3.9230	3.9229	1.0481	7.51	1.52	0.750			
0.3263	20881.09	3.9200	3.9201	1.0562	7.50	1.51	0.750			
0.3294	21080.37	3.9170	3.9171	1.0577	7.50	1.51	0.750			
0.3326	21284.17	3.9140	3.9140	1.0626	7.49	1.50	0.750			
0.3358	21488.44	3.9110	3.9108	1.0688	7.48	1.49	0.750			
0.3389	21691.15	3.9080	3.9080	1.0776	7.47	1.48	0.750			
0.3422	21901.11	3.9050	3.9052	1.0924	7.46	1.47	0.750			
0.3455	22115.19	3.9020	3.9020	1.1060	7.45	1.46	0.750			
0.3489	22328.86	3.8990	3.8989	1.1037	7.44	1.45	0.750			
0.3522	22541.42	3.8960	3.8962	1.1134	7.43	1.44	0.750			
0.3555	22752.90	3.8930	3.8930	1.1279	7.41	1.42	0.750			
0.3589	22968.49	3.8900	3.8900	1.1435	7.40	1.41	0.750			
0.3623	23187.38	3.8870	3.8870	1.1563	7.39	1.40	0.750			
0.3658	23410.86	3.8840	3.8841	1.1839	7.37	1.38	0.750			
0.3695	23644.94	3.8810	3.8810	1.2051	7.36	1.37	0.750			
0.3731	23878.86	3.8780	3.8779	1.2275	7.35	1.36	0.750			
0.3768	24116.88	3.8750	3.8751	1.2488	7.34	1.35	0.750			
0.3806	24358.23	3.8720	3.8721	1.2673	7.32	1.33	0.750			
0.3845	24607.79	3.8690	3.8688	1.2766	7.31	1.32	0.750			
0.3883	24851.03	3.8660	3.8662	1.2990	7.29	1.30	0.750			
0.3922	25097.65	3.8630	3.8630	1.3198	7.28	1.29	0.750			
0.3962	25356.24	3.8600	3.8600	1.3351	7.27	1.28	0.750	0.396	0.893	
0.4002	25612.69	3.8570	3.8570	1.3584	7.25	1.26	0.750			
0.4044	25879.75	3.8540	3.8541	1.3672	7.24	1.25	0.750			
0.4085	26146.91	3.8510	3.8511	1.3913	7.22	1.23	0.750			
0.4127	26410.25	3.8480	3.8482	1.4138	7.20	1.21	0.750			
0.4169	26679.64	3.8450	3.8451	1.4433	7.19	1.20	0.750			
0.4212	26959.92	3.8420	3.8418	1.4561	7.18	1.19	0.750			
0.4257	27245.26	3.8390	3.8389	1.4865	7.16	1.17	0.750			
0.4303	27536.67	3.8360	3.8361	1.5156	7.15	1.16	0.750			
0.4349	27834.26	3.8330	3.8331	1.5431	7.13	1.14	0.750			
0.4395	28128.38	3.8300	3.8301	1.5671	7.11	1.12	0.750			
0.4441	28425.43	3.8270	3.8270	1.5922	7.09	1.10	0.750			
0.4491	28739.30	3.8240	3.8241	1.6413	7.07	1.08	0.750			
0.4541	29065.44	3.8210	3.8210	1.6833	7.05	1.06	0.750			
0.4592	29389.90	3.8180	3.8179	1.7022	7.03	1.04	0.750			
0.4644	29720.84	3.8150	3.8152	1.7379	7.01	1.02	0.750			
0.4697	30059.83	3.8120	3.8120	1.7731	6.99	1.00	0.750			
0.4749	30396.17	3.8090	3.8091	1.7968	6.97	0.98	0.750			
0.4804	30742.65	3.8060	3.8059	1.7963	6.95	0.96	0.750			
0.4860	31100.87	3.8030	3.8029	1.8439	6.93	0.94	0.750			
0.4915	31456.66	3.8000	3.8001	1.8642	6.90	0.91	0.750			
0.4971	31813.03	3.7970	3.7968	1.8776	6.88	0.89	0.750			
0.5026	32167.38	3.7940	3.7942	1.9009	6.86	0.87	0.750			
0.5084	32538.06	3.7910	3.7910	1.9491	6.84	0.85	0.750			
0.5143	32914.99	3.7880	3.7880	2.0193	6.81	0.82	0.750			
0.5204	33303.45	3.7850	3.7850	2.0357	6.79	0.80	0.750			
0.5267	33711.24	3.7820	3.7819	2.0794	6.76	0.77	0.750			
0.5330	34114.11	3.7790	3.7794	2.1127	6.74	0.75	0.750			
0.5394	34521.33	3.7760	3.7760	2.1323	6.71	0.72	0.750			
0.5458	34931.29	3.7730	3.7726	2.1618	6.68	0.69	0.750			
0.5523	35346.40	3.7700	3.7701	2.1930	6.66	0.67	0.750			
0.5590	35774.20	3.7670	3.7670	2.2315	6.64	0.65	0.750			
0.5658	36209.97	3.7640	3.7642	2.3083	6.61	0.62	0.750			
0.5728	36662.23	3.7610	3.7608	2.3520	6.58	0.59	0.750			
0.5799	37115.74	3.7580	3.7581	2.3975	6.55	0.56	0.750			
0.5871	37575.82	3.7550	3.7551	2.4706	6.52	0.53	0.750			
0.5948	38064.15	3.7520	3.7520	2.5418	6.49	0.50	0.750			
0.6024	38554.32	3.7490	3.7491	2.6598	6.45	0.46	0.750			
0.6106	39080.27	3.7460	3.7458	2.8447	6.42	0.43	0.750			
0.6195	39645.61	3.7430	3.7430	2.9805	6.39	0.40	0.750			
0.6289	40247.50	3.7400	3.7400	3.1105	6.35	0.36	0.750			
0.6382	40842.97	3.7370	3.7369	3.1057	6.32	0.33	0.750			
0.6475	41440.66	3.7340	3.7340	3.0747	6.28	0.29	0.750			
0.6568	42034.64	3.7310	3.7310	3.0016	6.25	0.26	0.750			
0.6655	42593.12	3.7280	3.7280	2.8363	6.23	0.24	0.750			
0.6740	43137.97	3.7250	3.7250	2.6762	6.20	0.21	0.750			
0.6819	43638.57	3.7220	3.7219	2.3966	6.18	0.19	0.750			
0.6883	44049.25	3.7190	3.7193	2.0839	6.16	0.17	0.750			
0.6941	44424.90	3.7160	3.7160	1.8291	6.14	0.15	0.750			
0.6991	44741.56	3.7130	3.7126	1.6140	6.13	0.14	0.750			
0.7032	45002.40	3.7100	3.7099	1.4173	6.12	0.13	0.750			
0.7072	45259.70	3.7070	3.7070	1.3124	6.11	0.12	0.750			
0.7109	45496.23	3.7040	3.7037	1.2383	6.10	0.11	0.750			
0.7144	45721.40	3.7010	3.7011	1.1759	6.09	0.10	0.750			
0.7178	45939.34	3.6980	3.6978	1.1411	6.09	0.10	0.750			
0.7211	46147.62	3.6950	3.6950	1.1072	6.08	0.09	0.750			
0.7244	46363.46	3.6920	3.6920	1.0752	6.08	0.09	0.750			
0.7276	46569.30	3.6890	3.6890	1.0684	6.07	0.08	0.750			
0.7308	46772.36	3.6860	3.6861	1.0508	6.06	0.07	0.750			
0.7339	46971.71	3.6830	3.6831	1.0316	6.06	0.07	0.750			
0.7370	47166.20	3.6800	3.6799	1.0110	6.05	0.06	0.750			
0.7400	47360.67	3.6770	3.6771	0.9877	6.04	0.05	0.750			
0.7430	47549.99	3.6740	3.6741	0.9657	6.03	0.04	0.750			
0.7458	47733.67	3.6710	3.6710	0.9492	6.03	0.04	0.750			
0.7486	47910.95	3.6680	3.6677	0.9254	6.02	0.03	0.750			
0.7513	48086.22	3.6650	3.6649	0.9055	6.02	0.03	0.750			
0.7540	48256.64	3.6620	3.6621	0.9011	6.01	0.02	0.750			
0.7567	48428.76	3.6590	3.6591	0.8972	6.01	0.02	0.750			
0.7594	48600.35	3.6560	3.6561	0.9049	6.00	0.01	0.750			
0.7620	48770.93	3.6530	3.6529	0.9114	6.00	0.01	0.750			
0.7648	48945.86	3.6500	3.6501	0.9158	6.00	0.01	0.750			
0.7675	49120.67	3.6470	3.6471	0.9346	5.99	0.00	0.750			
0.7704	49305.89	3.6440	3.6440	0.9456	5.99	0.00	0.750			
0.7733	49491.15	3.6410	3.6406	0.9449	5.99	0.00	0.750			
0.7762	49677.50	3.6380	3.6379	0.9335	5.99	0.00	0.750			
0.7791	49861.03	3.6350	3.6352	0.8732	5.99	0.00	0.750			
0.7818	50034.36	3.6320	3.6320	0.8088	5.99	0.00	0.750			
0.7841	50184.49	3.6290	3.6291	0.7040	5.99	0.00	0.750			
0.7861	50309.83	3.6260	3.6258	0.5945	5.99	0.00	0.750			
0.7877	50413.57	3.6230	3.6230	0.4902	5.99	0.00	0.750			
0.7889	50486.63	3.6200	3.6203	0.4201	5.99	0.00	0.750			
0.7899	50555.25	3.6170	3.6171	0.3275	5.99	0.00	0.750			
0.7908	50609.76	3.6140	3.6134	0.2588	5.99	0.00	0.750			
0.7913	50643.44	3.6110	3.6101	0.1818	5.99	0.00	0.750			
0.7917	50671.31	3.6080	3.6014	0.1282	5.99	0.00	0.750			
0.7918	50674.37	3.5930	3.5937	-0.0958	5.99	0.00	0.750			
0.7919	50682.33	3.6050	3.5096	0.0750	5.99	0.00	0.756			
0.7920	50688.65	3.5960	3.4360	-0.0531	5.99	0.00	0.763			
0.7921	50692.64	3.6020	3.3896	0.0323	5.99	0.00	0.767			
0.7921	50694.74	3.5990	3.3651	-0.0104	5.99	0.00	0.769			
