Ah_balance (normalized)	Ah_balance (mAh)	Voltage - fit (V)	Voltage -  interpolate (V)	dQ/dV (1/V)	Temperature (°C)	Temperature - diff (°C)	Current (C)	R_DC 0ms (mOhm)	R_DC 50ms (mOhm)	R_DC 50 ms PEC (mOhm)
0.0982	6285.52	4.1970	4.1986	0.5796	8.69	2.40	0.750			
0.0998	6389.99	4.1940	4.1961	0.6087	8.68	2.39	0.750			
0.1019	6519.80	4.1910	4.1934	0.6929	8.68	2.39	0.750			
0.1042	6667.70	4.1880	4.1898	0.7667	8.67	2.38	0.750			
0.1064	6806.77	4.1850	4.1867	0.7344	8.67	2.38	0.750			
0.1088	6963.89	4.1820	4.1831	0.7835	8.66	2.37	0.750			
0.1119	7158.51	4.1790	4.1789	0.8350	8.66	2.37	0.750			
0.1139	7287.41	4.1760	4.1761	0.7130	8.65	2.36	0.750			
0.1161	7428.12	4.1730	4.1730	0.7106	8.65	2.36	0.750			
0.1182	7561.60	4.1700	4.1700	0.7137	8.64	2.35	0.750			
0.1202	7694.80	4.1670	4.1671	0.7041	8.64	2.35	0.750			
0.1223	7830.34	4.1640	4.1638	0.7080	8.63	2.34	0.750			
0.1245	7965.58	4.1610	4.1610	0.7138	8.62	2.33	0.750			
0.1266	8105.13	4.1580	4.1582	0.7146	8.61	2.32	0.750			
0.1288	8244.49	4.1550	4.1549	0.7190	8.60	2.31	0.750			
0.1309	8380.55	4.1520	4.1520	0.7214	8.60	2.31	0.750			
0.1331	8517.16	4.1490	4.1491	0.7266	8.59	2.30	0.750			
0.1353	8657.30	4.1460	4.1458	0.7390	8.58	2.29	0.750			
0.1375	8800.72	4.1430	4.1430	0.7411	8.58	2.29	0.750			
0.1398	8946.05	4.1400	4.1401	0.7415	8.58	2.29	0.750			
0.1420	9090.15	4.1370	4.1370	0.7462	8.57	2.28	0.750			
0.1443	9233.36	4.1340	4.1341	0.7480	8.57	2.28	0.750			
0.1465	9374.32	4.1310	4.1309	0.7422	8.57	2.28	0.750			
0.1487	9518.26	4.1280	4.1280	0.7373	8.56	2.27	0.750			
0.1509	9659.12	4.1250	4.1252	0.7367	8.56	2.27	0.750			
0.1531	9800.98	4.1220	4.1221	0.7410	8.55	2.26	0.750			
0.1554	9943.77	4.1190	4.1189	0.7425	8.54	2.25	0.750			
0.1575	10081.86	4.1160	4.1159	0.7451	8.53	2.24	0.750			
0.1598	10225.69	4.1130	4.1129	0.7544	8.52	2.23	0.750			
0.1621	10372.58	4.1100	4.1100	0.7655	8.51	2.22	0.750			
0.1644	10523.06	4.1070	4.1069	0.7688	8.51	2.22	0.750			
0.1667	10670.45	4.1040	4.1042	0.7766	8.50	2.21	0.750			
0.1691	10820.40	4.1010	4.1010	0.7829	8.50	2.21	0.750			
0.1714	10970.95	4.0980	4.0980	0.7900	8.49	2.20	0.750			
0.1738	11123.00	4.0950	4.0951	0.7922	8.49	2.20	0.750			
0.1762	11277.23	4.0920	4.0920	0.7903	8.48	2.19	0.750			
0.1786	11428.20	4.0890	4.0891	0.7889	8.48	2.19	0.750			
0.1809	11580.46	4.0860	4.0861	0.7917	8.47	2.18	0.750			
0.1833	11729.49	4.0830	4.0829	0.7889	8.46	2.17	0.750			
0.1856	11880.40	4.0800	4.0799	0.7908	8.46	2.17	0.750			
0.1880	12032.34	4.0770	4.0771	0.7939	8.45	2.16	0.750			
0.1904	12187.13	4.0740	4.0741	0.7956	8.44	2.15	0.750			
0.1928	12339.95	4.0710	4.0710	0.8027	8.43	2.14	0.750			
0.1952	12492.89	4.0680	4.0680	0.8061	8.43	2.14	0.750			
0.1976	12645.96	4.0650	4.0648	0.8099	8.42	2.13	0.750			
0.2000	12802.17	4.0620	4.0621	0.8208	8.41	2.12	0.750			
0.2025	12961.32	4.0590	4.0590	0.8256	8.40	2.11	0.750			
0.2050	13121.06	4.0560	4.0560	0.8360	8.40	2.11	0.750			
0.2075	13281.85	4.0530	4.0531	0.8407	8.39	2.10	0.750			
0.2101	13444.63	4.0500	4.0497	0.8449	8.38	2.09	0.750			
0.2127	13610.10	4.0470	4.0470	0.8424	8.37	2.08	0.750			
0.2152	13772.11	4.0440	4.0442	0.8417	8.36	2.07	0.750			
0.2177	13933.72	4.0410	4.0410	0.8412	8.36	2.07	0.750			
0.2202	14093.05	4.0380	4.0380	0.8356	8.35	2.06	0.750			
0.2227	14251.31	4.0350	4.0349	0.8329	8.34	2.05	0.750			
0.2252	14411.87	4.0320	4.0320	0.8334	8.33	2.04	0.750			
0.2277	14573.59	4.0290	4.0290	0.8362	8.32	2.03	0.750			
0.2302	14730.82	4.0260	4.0262	0.8517	8.31	2.02	0.750			
0.2327	14894.04	4.0230	4.0230	0.8568	8.30	2.01	0.750			
0.2353	15058.62	4.0200	4.0197	0.8700	8.29	2.00	0.750			
0.2380	15229.16	4.0170	4.0171	0.8853	8.28	1.99	0.750			
0.2407	15402.24	4.0140	4.0143	0.8925	8.27	1.98	0.750			
0.2434	15580.41	4.0110	4.0110	0.9019	8.26	1.97	0.750			
0.2461	15751.10	4.0080	4.0080	0.8933	8.25	1.96	0.750			
0.2488	15921.99	4.0050	4.0051	0.8923	8.25	1.96	0.750			
0.2515	16093.84	4.0020	4.0019	0.8926	8.24	1.95	0.750			
0.2541	16263.18	3.9990	3.9990	0.8861	8.23	1.94	0.750			
0.2568	16433.61	3.9960	3.9961	0.8919	8.22	1.93	0.750			
0.2594	16603.06	3.9930	3.9930	0.9008	8.21	1.92	0.750			
0.2622	16778.53	3.9900	3.9900	0.9050	8.20	1.91	0.750			
0.2649	16952.60	3.9870	3.9870	0.9114	8.19	1.90	0.750			
0.2676	17128.28	3.9840	3.9840	0.9213	8.19	1.90	0.750			
0.2704	17307.80	3.9810	3.9811	0.9274	8.18	1.89	0.750			
0.2732	17486.10	3.9780	3.9779	0.9318	8.17	1.88	0.750			
0.2760	17664.57	3.9750	3.9750	0.9291	8.16	1.87	0.750			
0.2788	17840.51	3.9720	3.9722	0.9373	8.14	1.85	0.750			
0.2816	18024.31	3.9690	3.9689	0.9422	8.13	1.84	0.750			
0.2845	18205.71	3.9660	3.9659	0.9416	8.12	1.83	0.750			
0.2873	18386.87	3.9630	3.9631	0.9422	8.11	1.82	0.750			
0.2901	18567.82	3.9600	3.9602	0.9552	8.10	1.81	0.750			
0.2930	18750.68	3.9570	3.9570	0.9681	8.09	1.80	0.750			
0.2959	18937.18	3.9540	3.9539	0.9750	8.08	1.79	0.750			
0.2988	19125.65	3.9510	3.9511	0.9772	8.07	1.78	0.750			
0.3019	19318.80	3.9480	3.9480	0.9944	8.06	1.77	0.750			
0.3048	19509.01	3.9450	3.9451	1.0030	8.05	1.76	0.750			
0.3078	19701.84	3.9420	3.9418	1.0072	8.04	1.75	0.750			
0.3109	19894.66	3.9390	3.9389	1.0131	8.03	1.74	0.750			
0.3139	20089.78	3.9360	3.9362	1.0209	8.01	1.72	0.750			
0.3170	20288.84	3.9330	3.9329	1.0295	8.00	1.71	0.750			
0.3201	20486.82	3.9300	3.9300	1.0402	7.99	1.70	0.750			
0.3232	20686.02	3.9270	3.9271	1.0368	7.98	1.69	0.750			
0.3263	20883.18	3.9240	3.9239	1.0481	7.97	1.68	0.750			
0.3295	21086.68	3.9210	3.9211	1.0623	7.96	1.67	0.750			
0.3327	21291.86	3.9180	3.9179	1.0702	7.95	1.66	0.750			
0.3359	21499.60	3.9150	3.9150	1.0777	7.94	1.65	0.750			
0.3392	21707.42	3.9120	3.9121	1.0829	7.92	1.63	0.750			
0.3424	21913.00	3.9090	3.9090	1.0914	7.91	1.62	0.750			
0.3457	22125.49	3.9060	3.9060	1.1033	7.90	1.61	0.750			
0.3490	22335.35	3.9030	3.9029	1.1062	7.88	1.59	0.750			
0.3523	22546.99	3.9000	3.9001	1.1287	7.87	1.58	0.750			
0.3557	22766.25	3.8970	3.8971	1.1514	7.86	1.57	0.750			
0.3593	22993.03	3.8940	3.8938	1.1616	7.84	1.55	0.750			
0.3627	23214.55	3.8910	3.8911	1.1812	7.83	1.54	0.750			
0.3664	23446.68	3.8880	3.8881	1.1902	7.81	1.52	0.750			
0.3699	23676.64	3.8850	3.8850	1.2130	7.80	1.51	0.750			
0.3736	23908.46	3.8820	3.8821	1.2219	7.79	1.50	0.750			
0.3772	24143.56	3.8790	3.8792	1.2412	7.77	1.48	0.750	0.385	0.786	
0.3810	24384.24	3.8760	3.8761	1.2650	7.76	1.47	0.750			
0.3848	24629.84	3.8730	3.8730	1.2848	7.74	1.45	0.750			
0.3887	24877.21	3.8700	3.8700	1.2967	7.72	1.43	0.750			
0.3927	25134.97	3.8670	3.8670	1.3196	7.71	1.42	0.750			
0.3966	25385.29	3.8640	3.8639	1.3214	7.69	1.40	0.750			
0.4006	25639.80	3.8610	3.8612	1.3432	7.68	1.39	0.750			
0.4047	25897.74	3.8580	3.8580	1.3582	7.66	1.37	0.750			
0.4088	26162.08	3.8550	3.8548	1.3616	7.64	1.35	0.750			
0.4129	26422.83	3.8520	3.8521	1.3765	7.63	1.34	0.750			
0.4170	26690.79	3.8490	3.8490	1.3994	7.61	1.32	0.750			
0.4213	26964.80	3.8460	3.8459	1.4140	7.59	1.30	0.750			
0.4255	27233.41	3.8430	3.8430	1.4363	7.57	1.28	0.750			
0.4298	27508.73	3.8400	3.8400	1.4557	7.54	1.25	0.750			
0.4342	27791.64	3.8370	3.8370	1.4888	7.52	1.23	0.750			
0.4388	28080.38	3.8340	3.8341	1.5055	7.50	1.21	0.750			
0.4434	28377.41	3.8310	3.8311	1.5266	7.49	1.20	0.750			
0.4480	28674.57	3.8280	3.8278	1.5361	7.47	1.18	0.750			
0.4526	28965.86	3.8250	3.8252	1.5611	7.45	1.16	0.750			
0.4572	29262.48	3.8220	3.8223	1.5726	7.42	1.13	0.750			
0.4620	29567.71	3.8190	3.8188	1.5753	7.40	1.11	0.750			
0.4668	29872.74	3.8160	3.8158	1.6044	7.38	1.09	0.750			
0.4716	30179.67	3.8130	3.8132	1.6433	7.35	1.06	0.750			
0.4766	30503.44	3.8100	3.8095	1.6692	7.33	1.04	0.750			
0.4816	30825.36	3.8070	3.8072	1.6610	7.31	1.02	0.750			
0.4866	31140.73	3.8040	3.8041	1.6722	7.28	0.99	0.750			
0.4917	31468.82	3.8010	3.8008	1.6959	7.25	0.96	0.750			
0.4968	31792.83	3.7980	3.7980	1.7031	7.22	0.93	0.750			
0.5019	32119.31	3.7950	3.7949	1.7139	7.20	0.91	0.750			
0.5070	32446.32	3.7920	3.7918	1.7381	7.18	0.89	0.750			
0.5122	32782.88	3.7890	3.7891	1.7847	7.16	0.87	0.750			
0.5177	33129.76	3.7860	3.7860	1.8439	7.13	0.84	0.750			
0.5232	33482.12	3.7830	3.7828	1.8749	7.10	0.81	0.750			
0.5289	33847.08	3.7800	3.7800	1.9192	7.07	0.78	0.750			
0.5347	34221.13	3.7770	3.7767	1.9825	7.04	0.75	0.750			
0.5407	34606.03	3.7740	3.7743	2.0644	7.01	0.72	0.750			
0.5471	35012.13	3.7710	3.7710	2.0990	6.98	0.69	0.750			
0.5535	35426.60	3.7680	3.7680	2.1858	6.95	0.66	0.750			
0.5600	35839.16	3.7650	3.7652	2.2323	6.92	0.63	0.750			
0.5668	36272.39	3.7620	3.7619	2.4169	6.89	0.60	0.750			
0.5742	36745.91	3.7590	3.7590	2.5853	6.86	0.57	0.750			
0.5825	37278.11	3.7560	3.7560	2.7646	6.82	0.53	0.750			
0.5911	37827.88	3.7530	3.7528	2.8534	6.79	0.50	0.750			
0.5995	38368.04	3.7500	3.7500	2.8890	6.76	0.47	0.750			
0.6083	38930.84	3.7470	3.7470	2.9933	6.72	0.43	0.750			
0.6175	39522.88	3.7440	3.7440	3.0343	6.68	0.39	0.750			
0.6268	40115.36	3.7410	3.7411	2.9352	6.64	0.35	0.750			
0.6352	40653.05	3.7380	3.7381	2.7059	6.61	0.32	0.750			
0.6431	41156.16	3.7350	3.7348	2.4830	6.58	0.29	0.750			
0.6502	41614.49	3.7320	3.7320	2.2395	6.56	0.27	0.750			
0.6565	42017.12	3.7290	3.7292	1.9957	6.53	0.24	0.750			
0.6620	42369.19	3.7260	3.7260	1.7422	6.51	0.22	0.750			
0.6665	42655.01	3.7230	3.7230	1.5301	6.50	0.21	0.750			
0.6706	42921.26	3.7200	3.7200	1.3844	6.49	0.20	0.750			
0.6745	43168.63	3.7170	3.7171	1.2806	6.48	0.19	0.750			
0.6781	43398.70	3.7140	3.7140	1.2248	6.47	0.18	0.750			
0.6816	43621.33	3.7110	3.7111	1.1714	6.45	0.16	0.750			
0.6851	43845.29	3.7080	3.7076	1.1446	6.44	0.15	0.750			
0.6884	44058.66	3.7050	3.7051	1.1176	6.43	0.14	0.750			
0.6917	44270.47	3.7020	3.7022	1.1043	6.42	0.13	0.750			
0.6950	44481.73	3.6990	3.6990	1.0913	6.42	0.13	0.750			
0.6983	44691.81	3.6960	3.6960	1.0615	6.41	0.12	0.750			
0.7014	44892.07	3.6930	3.6931	1.0430	6.40	0.11	0.750			
0.7046	45093.35	3.6900	3.6901	1.0294	6.39	0.10	0.750			
0.7076	45289.17	3.6870	3.6870	1.0059	6.38	0.09	0.750			
0.7106	45478.79	3.6840	3.6839	0.9774	6.37	0.08	0.750			
0.7135	45664.17	3.6810	3.6811	0.9530	6.36	0.07	0.750			
0.7163	45845.11	3.6780	3.6781	0.9353	6.35	0.06	0.750			
0.7191	46020.38	3.6750	3.6750	0.9354	6.35	0.06	0.750			
0.7218	46195.24	3.6720	3.6719	0.9276	6.34	0.05	0.750			
0.7246	46373.08	3.6690	3.6689	0.9298	6.33	0.04	0.750			
0.7274	46553.17	3.6660	3.6661	0.9337	6.33	0.04	0.750			
0.7303	46736.43	3.6630	3.6630	0.9419	6.32	0.03	0.750			
0.7331	46918.60	3.6600	3.6601	0.9407	6.31	0.02	0.750			
0.7359	47098.34	3.6570	3.6569	0.9385	6.31	0.02	0.750			
0.7387	47279.10	3.6540	3.6540	0.9180	6.30	0.01	0.750			
0.7415	47458.51	3.6510	3.6509	0.9028	6.30	0.01	0.750			
0.7443	47632.72	3.6480	3.6483	0.8677	6.30	0.01	0.750			
0.7469	47804.59	3.6450	3.6447	0.8057	6.29	0.00	0.750			
0.7494	47958.43	3.6420	3.6421	0.7302	6.29	-0.00	0.750			
0.7514	48091.87	3.6390	3.6392	0.6299	6.28	-0.01	0.750			
0.7532	48202.89	3.6360	3.6361	0.5261	6.28	-0.01	0.750			
0.7543	48277.97	3.6330	3.6336	0.4395	6.28	-0.01	0.750			
0.7555	48354.39	3.6300	3.6302	0.3623	6.28	-0.01	0.750			
0.7564	48411.79	3.6270	3.6270	0.2804	6.28	-0.01	0.750			
0.7571	48457.27	3.6240	3.6231	0.2240	6.27	-0.02	0.750			
0.7576	48487.06	3.6210	3.6165	0.1647	6.27	-0.02	0.750			
0.7578	48499.34	3.5970	3.5647	-0.1158	6.27	-0.02	0.750			
0.7580	48509.57	3.6180	3.4188	0.1196	6.27	-0.02	0.749			
0.7581	48518.48	3.6000	3.2920	-0.0835	6.27	-0.02	0.748			
0.7581	48521.09	3.6150	3.2547	0.0781	6.27	-0.02	0.747			
0.7583	48531.41	3.6030	3.1077	-0.0512	6.27	-0.02	0.746			
0.7583	48532.98	3.6120	3.0853	0.0458	6.27	-0.02	0.746			
0.7584	48538.14	3.6060	3.0118	-0.0189	6.27	-0.02	0.745			
0.7584	48538.66	3.6090	3.0044	0.0134	6.27	-0.02	0.745			
