Ah_balance (normalized)	Ah_balance (mAh)	Voltage - fit (V)	Voltage -  interpolate (V)	dQ/dV (1/V)	Temperature (°C)	Temperature - diff (°C)	Current (C)	R_DC 0ms (mOhm)	R_DC 50ms (mOhm)	R_DC 50 ms PEC (mOhm)
0.0974	6231.63	4.1990	4.1968	1.0901	8.62	2.41	0.750	0.384	0.774	
0.0994	6364.41	4.1960	4.1983	0.6220	8.62	2.41	0.750			
0.1015	6495.01	4.1930	4.1951	0.7071	8.61	2.40	0.750			
0.1038	6642.03	4.1900	4.1920	0.7633	8.61	2.40	0.750			
0.1063	6800.23	4.1870	4.1884	0.7880	8.60	2.39	0.750			
0.1085	6945.30	4.1840	4.1851	0.7654	8.60	2.39	0.750			
0.1111	7111.93	4.1810	4.1814	0.7736	8.59	2.38	0.750			
0.1136	7268.07	4.1780	4.1780	0.7044	8.58	2.37	0.750			
0.1157	7403.14	4.1750	4.1752	0.7059	8.58	2.37	0.750			
0.1178	7538.74	4.1720	4.1720	0.7056	8.57	2.36	0.750			
0.1199	7673.88	4.1690	4.1688	0.7032	8.57	2.36	0.750			
0.1220	7806.55	4.1660	4.1662	0.7101	8.56	2.35	0.750			
0.1242	7946.73	4.1630	4.1630	0.7123	8.56	2.35	0.750			
0.1263	8082.70	4.1600	4.1599	0.7152	8.55	2.34	0.750			
0.1284	8219.18	4.1570	4.1570	0.7149	8.54	2.33	0.750			
0.1306	8357.39	4.1540	4.1542	0.7189	8.54	2.33	0.750			
0.1328	8497.35	4.1510	4.1508	0.7206	8.53	2.32	0.750			
0.1349	8635.16	4.1480	4.1480	0.7214	8.53	2.32	0.750			
0.1371	8772.31	4.1450	4.1450	0.7130	8.52	2.31	0.750			
0.1392	8911.25	4.1420	4.1420	0.7217	8.52	2.31	0.750			
0.1414	9047.58	4.1390	4.1390	0.7241	8.52	2.31	0.750			
0.1435	9186.45	4.1360	4.1361	0.7296	8.51	2.30	0.750			
0.1457	9327.11	4.1330	4.1331	0.7422	8.51	2.30	0.750			
0.1480	9471.65	4.1300	4.1299	0.7521	8.50	2.29	0.750			
0.1503	9616.85	4.1270	4.1271	0.7569	8.50	2.29	0.750			
0.1526	9765.66	4.1240	4.1241	0.7609	8.49	2.28	0.750			
0.1549	9911.41	4.1210	4.1210	0.7660	8.49	2.28	0.750			
0.1572	10058.19	4.1180	4.1177	0.7699	8.48	2.27	0.750			
0.1595	10206.42	4.1150	4.1150	0.7713	8.47	2.26	0.750			
0.1618	10355.26	4.1120	4.1121	0.7659	8.47	2.26	0.750			
0.1641	10504.23	4.1090	4.1089	0.7684	8.46	2.25	0.750			
0.1664	10651.03	4.1060	4.1062	0.7656	8.46	2.25	0.750			
0.1687	10796.25	4.1030	4.1028	0.7671	8.45	2.24	0.750			
0.1710	10941.22	4.1000	4.1000	0.7637	8.45	2.24	0.750			
0.1733	11089.55	4.0970	4.0970	0.7588	8.44	2.23	0.750			
0.1755	11234.83	4.0940	4.0941	0.7651	8.44	2.23	0.750			
0.1779	11383.19	4.0910	4.0911	0.7786	8.43	2.22	0.750			
0.1802	11531.18	4.0880	4.0880	0.7842	8.42	2.21	0.750			
0.1825	11681.46	4.0850	4.0848	0.7894	8.42	2.21	0.750			
0.1849	11834.97	4.0820	4.0821	0.7961	8.41	2.20	0.750			
0.1874	11991.74	4.0790	4.0791	0.8023	8.40	2.19	0.750			
0.1898	12146.46	4.0760	4.0760	0.8054	8.40	2.19	0.750			
0.1922	12299.81	4.0730	4.0730	0.7965	8.39	2.18	0.750			
0.1946	12451.80	4.0700	4.0698	0.7962	8.38	2.17	0.750			
0.1969	12603.15	4.0670	4.0671	0.7981	8.37	2.16	0.750			
0.1993	12757.79	4.0640	4.0641	0.7967	8.37	2.16	0.750			
0.2017	12911.51	4.0610	4.0609	0.8067	8.36	2.15	0.750			
0.2041	13064.07	4.0580	4.0581	0.8098	8.35	2.14	0.750			
0.2066	13220.55	4.0550	4.0549	0.8204	8.34	2.13	0.750			
0.2091	13380.67	4.0520	4.0519	0.8311	8.34	2.13	0.750			
0.2116	13540.98	4.0490	4.0490	0.8354	8.33	2.12	0.750			
0.2141	13700.91	4.0460	4.0460	0.8415	8.32	2.11	0.750			
0.2166	13865.29	4.0430	4.0431	0.8411	8.32	2.11	0.750			
0.2192	14027.79	4.0400	4.0398	0.8497	8.31	2.10	0.750			
0.2217	14189.88	4.0370	4.0371	0.8476	8.30	2.09	0.750			
0.2243	14354.39	4.0340	4.0340	0.8448	8.30	2.09	0.750			
0.2268	14515.69	4.0310	4.0310	0.8482	8.29	2.08	0.750			
0.2293	14676.04	4.0280	4.0282	0.8476	8.28	2.07	0.750			
0.2319	14839.49	4.0250	4.0248	0.8555	8.27	2.06	0.750			
0.2345	15005.39	4.0220	4.0219	0.8623	8.26	2.05	0.750			
0.2370	15169.65	4.0190	4.0191	0.8602	8.26	2.05	0.750			
0.2396	15336.44	4.0160	4.0161	0.8727	8.25	2.04	0.750			
0.2423	15504.59	4.0130	4.0130	0.8730	8.25	2.04	0.750			
0.2449	15672.77	4.0100	4.0096	0.8778	8.24	2.03	0.750			
0.2475	15840.09	4.0070	4.0071	0.8840	8.23	2.02	0.750			
0.2502	16011.62	4.0040	4.0041	0.8917	8.22	2.01	0.750			
0.2529	16185.37	4.0010	4.0010	0.9016	8.21	2.00	0.750			
0.2556	16357.58	3.9980	3.9980	0.8991	8.20	1.99	0.750			
0.2583	16531.55	3.9950	3.9951	0.9078	8.19	1.98	0.750			
0.2611	16708.73	3.9920	3.9919	0.9110	8.18	1.97	0.750			
0.2638	16883.23	3.9890	3.9891	0.9094	8.17	1.96	0.750			
0.2665	17056.81	3.9860	3.9860	0.9056	8.17	1.96	0.750			
0.2692	17229.23	3.9830	3.9830	0.9133	8.16	1.95	0.750			
0.2720	17405.84	3.9800	3.9800	0.9122	8.15	1.94	0.750			
0.2747	17579.30	3.9770	3.9768	0.9262	8.14	1.93	0.750			
0.2775	17758.98	3.9740	3.9741	0.9340	8.13	1.92	0.750			
0.2803	17940.64	3.9710	3.9711	0.9429	8.12	1.91	0.750			
0.2832	18123.39	3.9680	3.9680	0.9461	8.11	1.90	0.750			
0.2860	18304.98	3.9650	3.9651	0.9520	8.09	1.88	0.750			
0.2888	18484.34	3.9620	3.9620	0.9543	8.08	1.87	0.750			
0.2917	18670.17	3.9590	3.9590	0.9648	8.07	1.86	0.750			
0.2946	18855.39	3.9560	3.9558	0.9653	8.06	1.85	0.750			
0.2976	19044.00	3.9530	3.9530	0.9760	8.05	1.84	0.750			
0.3005	19230.76	3.9500	3.9501	0.9840	8.04	1.83	0.750			
0.3034	19420.29	3.9470	3.9470	0.9962	8.03	1.82	0.750			
0.3064	19611.17	3.9440	3.9438	0.9966	8.02	1.81	0.750			
0.3094	19801.76	3.9410	3.9410	1.0090	8.01	1.80	0.750			
0.3125	19999.25	3.9380	3.9381	1.0173	8.00	1.79	0.750			
0.3156	20196.71	3.9350	3.9351	1.0314	7.99	1.78	0.750			
0.3187	20394.98	3.9320	3.9320	1.0418	7.97	1.76	0.750			
0.3218	20597.03	3.9290	3.9290	1.0340	7.96	1.75	0.750			
0.3249	20795.60	3.9260	3.9259	1.0421	7.95	1.74	0.750			
0.3281	20996.59	3.9230	3.9231	1.0501	7.94	1.73	0.750			
0.3312	21195.00	3.9200	3.9201	1.0584	7.92	1.71	0.750			
0.3344	21399.33	3.9170	3.9170	1.0739	7.91	1.70	0.750			
0.3376	21604.58	3.9140	3.9140	1.0850	7.90	1.69	0.750			
0.3409	21815.53	3.9110	3.9110	1.1074	7.89	1.68	0.750			
0.3443	22034.90	3.9080	3.9079	1.1260	7.88	1.67	0.750			
0.3477	22252.03	3.9050	3.9050	1.1286	7.87	1.66	0.750			
0.3511	22470.94	3.9020	3.9020	1.1311	7.85	1.64	0.750			
0.3545	22685.13	3.8990	3.8991	1.1421	7.84	1.63	0.750			
0.3579	22906.35	3.8960	3.8960	1.1436	7.83	1.62	0.750			
0.3614	23130.44	3.8930	3.8928	1.1502	7.81	1.60	0.750			
0.3649	23352.67	3.8900	3.8901	1.1523	7.79	1.58	0.750			
0.3684	23575.59	3.8870	3.8870	1.1889	7.78	1.57	0.750			
0.3719	23803.61	3.8840	3.8841	1.2166	7.76	1.55	0.750			
0.3756	24038.53	3.8810	3.8814	1.2381	7.75	1.54	0.750	0.386	0.790	
0.3794	24279.41	3.8780	3.8783	1.2503	7.73	1.52	0.750			
0.3832	24522.93	3.8750	3.8749	1.2751	7.72	1.51	0.750			
0.3871	24773.04	3.8720	3.8722	1.2935	7.70	1.49	0.750			
0.3909	25018.70	3.8690	3.8691	1.3007	7.68	1.47	0.750			
0.3949	25273.52	3.8660	3.8659	1.3219	7.66	1.45	0.750			
0.3989	25529.31	3.8630	3.8629	1.3353	7.64	1.43	0.750			
0.4030	25789.43	3.8600	3.8600	1.3524	7.63	1.42	0.750			
0.4071	26052.09	3.8570	3.8570	1.3595	7.61	1.40	0.750			
0.4111	26308.68	3.8540	3.8541	1.3737	7.59	1.38	0.750			
0.4152	26575.44	3.8510	3.8510	1.3973	7.57	1.36	0.750			
0.4194	26840.32	3.8480	3.8478	1.4151	7.55	1.34	0.750			
0.4237	27116.23	3.8450	3.8448	1.4423	7.53	1.32	0.750			
0.4281	27399.19	3.8420	3.8422	1.4564	7.51	1.30	0.750			
0.4326	27686.53	3.8390	3.8388	1.4813	7.49	1.28	0.750			
0.4370	27968.41	3.8360	3.8362	1.4969	7.47	1.26	0.750			
0.4415	28256.47	3.8330	3.8330	1.4986	7.45	1.24	0.750			
0.4461	28548.04	3.8300	3.8302	1.5202	7.43	1.22	0.750			
0.4507	28842.86	3.8270	3.8271	1.5303	7.41	1.20	0.750			
0.4553	29138.73	3.8240	3.8240	1.5333	7.39	1.18	0.750			
0.4599	29433.60	3.8210	3.8210	1.5342	7.36	1.15	0.750			
0.4645	29728.29	3.8180	3.8181	1.5455	7.34	1.13	0.750			
0.4691	30020.52	3.8150	3.8148	1.5575	7.31	1.10	0.750			
0.4737	30318.01	3.8120	3.8120	1.5914	7.29	1.08	0.750			
0.4786	30631.36	3.8090	3.8091	1.6127	7.27	1.06	0.750			
0.4835	30944.50	3.8060	3.8061	1.6493	7.24	1.03	0.750			
0.4885	31263.65	3.8030	3.8030	1.6715	7.22	1.01	0.750			
0.4935	31587.13	3.8000	3.8000	1.7163	7.20	0.99	0.750			
0.4987	31917.59	3.7970	3.7968	1.7546	7.17	0.96	0.750			
0.5041	32260.64	3.7940	3.7938	1.7718	7.14	0.93	0.750			
0.5094	32602.74	3.7910	3.7912	1.7905	7.11	0.90	0.750			
0.5149	32956.68	3.7880	3.7880	1.8314	7.08	0.87	0.750			
0.5203	33301.18	3.7850	3.7848	1.8718	7.06	0.85	0.750			
0.5260	33661.34	3.7820	3.7818	1.8977	7.03	0.82	0.750			
0.5317	34026.88	3.7790	3.7790	1.9772	7.00	0.79	0.750			
0.5378	34416.36	3.7760	3.7761	2.0478	6.97	0.76	0.750			
0.5440	34818.65	3.7730	3.7728	2.1124	6.93	0.72	0.750			
0.5504	35222.87	3.7700	3.7702	2.1771	6.91	0.70	0.750			
0.5571	35651.60	3.7670	3.7673	2.2654	6.88	0.67	0.750			
0.5639	36092.54	3.7640	3.7637	2.3492	6.85	0.64	0.750			
0.5710	36540.96	3.7610	3.7612	2.4903	6.82	0.61	0.750			
0.5786	37029.26	3.7580	3.7579	2.6210	6.78	0.57	0.750			
0.5869	37562.78	3.7550	3.7549	2.7593	6.74	0.53	0.750			
0.5955	38111.04	3.7520	3.7520	2.8578	6.71	0.50	0.750			
0.6041	38663.26	3.7490	3.7487	2.9050	6.67	0.46	0.750			
0.6128	39221.68	3.7460	3.7460	3.0292	6.64	0.43	0.750			
0.6224	39831.31	3.7430	3.7429	3.0557	6.60	0.39	0.750			
0.6316	40422.36	3.7400	3.7401	2.8833	6.55	0.34	0.750			
0.6398	40950.19	3.7370	3.7370	2.5643	6.53	0.32	0.750			
0.6467	41391.64	3.7340	3.7341	2.2298	6.50	0.29	0.750			
0.6528	41780.94	3.7310	3.7311	1.9603	6.48	0.27	0.750			
0.6582	42125.69	3.7280	3.7282	1.7102	6.46	0.25	0.750			
0.6630	42432.45	3.7250	3.7250	1.5479	6.44	0.23	0.750			
0.6673	42704.63	3.7220	3.7220	1.4047	6.43	0.22	0.750			
0.6711	42949.75	3.7190	3.7190	1.2943	6.42	0.21	0.750			
0.6747	43181.86	3.7160	3.7159	1.2127	6.40	0.19	0.750			
0.6782	43405.39	3.7130	3.7130	1.1636	6.39	0.18	0.750			
0.6815	43617.88	3.7100	3.7100	1.1356	6.38	0.17	0.750			
0.6849	43831.39	3.7070	3.7070	1.1167	6.37	0.16	0.750			
0.6882	44045.48	3.7040	3.7039	1.1070	6.36	0.15	0.750			
0.6915	44257.98	3.7010	3.7010	1.0863	6.35	0.14	0.750			
0.6948	44467.85	3.6980	3.6980	1.0681	6.34	0.13	0.750			
0.6980	44672.93	3.6950	3.6950	1.0482	6.33	0.12	0.750			
0.7011	44870.24	3.6920	3.6920	1.0172	6.32	0.11	0.750			
0.7041	45060.48	3.6890	3.6889	0.9919	6.31	0.10	0.750			
0.7070	45247.94	3.6860	3.6859	0.9724	6.30	0.09	0.750			
0.7099	45433.08	3.6830	3.6830	0.9521	6.29	0.08	0.750			
0.7127	45613.16	3.6800	3.6800	0.9399	6.29	0.08	0.750			
0.7155	45792.10	3.6770	3.6771	0.9244	6.28	0.07	0.750			
0.7182	45966.34	3.6740	3.6740	0.9098	6.27	0.06	0.750			
0.7209	46139.66	3.6710	3.6709	0.9098	6.27	0.06	0.750			
0.7236	46311.46	3.6680	3.6682	0.9055	6.26	0.05	0.750			
0.7263	46485.33	3.6650	3.6649	0.9130	6.25	0.04	0.750			
0.7291	46662.57	3.6620	3.6620	0.9195	6.24	0.03	0.750			
0.7319	46840.07	3.6590	3.6589	0.9171	6.23	0.02	0.750			
0.7347	47022.22	3.6560	3.6559	0.9051	6.23	0.02	0.750			
0.7375	47197.19	3.6530	3.6531	0.8766	6.22	0.01	0.750			
0.7401	47369.09	3.6500	3.6500	0.8274	6.22	0.01	0.750			
0.7426	47526.01	3.6470	3.6470	0.7581	6.21	0.00	0.750			
0.7448	47669.16	3.6440	3.6439	0.6729	6.21	-0.00	0.750			
0.7467	47790.49	3.6410	3.6411	0.5769	6.21	-0.00	0.750			
0.7483	47891.92	3.6380	3.6380	0.4819	6.20	-0.01	0.750			
0.7493	47957.94	3.6350	3.6356	0.4080	6.20	-0.01	0.750			
0.7504	48027.52	3.6320	3.6324	0.3272	6.20	-0.01	0.750			
0.7513	48081.18	3.6290	3.6289	0.2624	6.20	-0.01	0.750			
0.7518	48118.23	3.6260	3.6254	0.1956	6.20	-0.01	0.750			
0.7523	48147.84	3.6230	3.6180	0.1498	6.20	-0.01	0.750			
0.7525	48157.72	3.5990	3.5771	-0.1072	6.20	-0.01	0.750			
0.7526	48167.74	3.6200	3.4255	0.1078	6.20	-0.01	0.751			
0.7527	48175.45	3.6020	3.3089	-0.0776	6.20	-0.01	0.752			
0.7528	48178.84	3.6170	3.2577	0.0705	6.20	-0.01	0.752			
0.7529	48187.50	3.6050	3.1266	-0.0480	6.20	-0.01	0.753			
0.7530	48189.53	3.6140	3.0959	0.0409	6.20	-0.01	0.754			
0.7530	48193.87	3.6080	3.0304	-0.0183	6.20	-0.01	0.754			
0.7530	48194.54	3.6110	3.0202	0.0113	6.20	-0.01	0.754			
