Ah_balance (normalized)	Ah_balance (mAh)	Voltage - fit (V)	Voltage -  interpolate (V)	dQ/dV (1/V)	Temperature (°C)	Temperature - diff (°C)	Current (C)	R_DC 0ms (mOhm)	R_DC 50ms (mOhm)	R_DC 50 ms PEC (mOhm)
0.0908	5808.45	4.1990	4.1980	0.8483	8.21	2.22	0.750	0.417	0.887	
0.0934	5977.02	4.1960	4.1981	0.8990	8.21	2.22	0.750			
0.0961	6151.26	4.1930	4.1944	0.8734	8.20	2.21	0.750			
0.0986	6313.33	4.1900	4.1906	0.8264	8.20	2.21	0.750			
0.1011	6473.47	4.1870	4.1869	0.8097	8.19	2.20	0.750			
0.1035	6621.40	4.1840	4.1839	0.7879	8.18	2.19	0.750			
0.1054	6747.42	4.1810	4.1809	0.7179	8.18	2.19	0.750			
0.1076	6888.04	4.1780	4.1780	0.7255	8.18	2.19	0.750			
0.1098	7028.01	4.1750	4.1751	0.7266	8.17	2.18	0.750			
0.1120	7166.81	4.1720	4.1719	0.7261	8.17	2.18	0.750			
0.1142	7307.61	4.1690	4.1690	0.7226	8.17	2.18	0.750			
0.1163	7445.68	4.1660	4.1660	0.7180	8.16	2.17	0.750			
0.1185	7583.93	4.1630	4.1631	0.7187	8.16	2.17	0.750			
0.1206	7720.92	4.1600	4.1601	0.7188	8.16	2.17	0.750			
0.1228	7858.21	4.1570	4.1569	0.7190	8.16	2.17	0.750			
0.1249	7995.59	4.1540	4.1539	0.7227	8.15	2.16	0.750			
0.1271	8134.29	4.1510	4.1510	0.7296	8.15	2.16	0.750			
0.1293	8275.89	4.1480	4.1480	0.7349	8.15	2.16	0.750			
0.1315	8417.83	4.1450	4.1450	0.7430	8.15	2.16	0.750			
0.1338	8561.54	4.1420	4.1420	0.7489	8.14	2.15	0.750			
0.1360	8705.58	4.1390	4.1389	0.7513	8.14	2.15	0.750			
0.1383	8851.14	4.1360	4.1360	0.7571	8.14	2.15	0.750			
0.1406	8996.72	4.1330	4.1332	0.7587	8.13	2.14	0.750			
0.1429	9142.61	4.1300	4.1300	0.7627	8.13	2.14	0.750			
0.1452	9290.36	4.1270	4.1269	0.7636	8.12	2.13	0.750			
0.1474	9436.28	4.1240	4.1240	0.7594	8.12	2.13	0.750			
0.1497	9582.14	4.1210	4.1210	0.7604	8.11	2.12	0.750			
0.1520	9728.85	4.1180	4.1181	0.7661	8.11	2.12	0.750			
0.1543	9875.14	4.1150	4.1150	0.7702	8.10	2.11	0.750			
0.1566	10022.16	4.1120	4.1119	0.7744	8.10	2.11	0.750			
0.1589	10172.44	4.1090	4.1090	0.7757	8.09	2.10	0.750			
0.1613	10323.72	4.1060	4.1060	0.7822	8.09	2.10	0.750			
0.1637	10474.38	4.1030	4.1030	0.7809	8.09	2.10	0.750			
0.1660	10624.67	4.1000	4.1000	0.7825	8.08	2.09	0.750			
0.1683	10772.10	4.0970	4.0971	0.7825	8.08	2.09	0.750			
0.1707	10923.09	4.0940	4.0940	0.7843	8.07	2.08	0.750			
0.1730	11074.60	4.0910	4.0910	0.7780	8.07	2.08	0.750			
0.1754	11222.84	4.0880	4.0880	0.7854	8.06	2.07	0.750			
0.1777	11372.04	4.0850	4.0852	0.7934	8.06	2.07	0.750			
0.1801	11525.03	4.0820	4.0817	0.8009	8.05	2.06	0.750			
0.1825	11678.82	4.0790	4.0790	0.8032	8.04	2.05	0.750			
0.1849	11835.65	4.0760	4.0760	0.8007	8.04	2.05	0.750			
0.1874	11992.27	4.0730	4.0730	0.8080	8.03	2.04	0.750			
0.1898	12147.32	4.0700	4.0702	0.8024	8.03	2.04	0.750			
0.1921	12297.54	4.0670	4.0668	0.8035	8.02	2.03	0.750			
0.1945	12450.22	4.0640	4.0641	0.8051	8.02	2.03	0.750			
0.1970	12606.77	4.0610	4.0609	0.8146	8.02	2.03	0.750			
0.1994	12763.86	4.0580	4.0580	0.8265	8.01	2.02	0.750			
0.2019	12923.21	4.0550	4.0551	0.8317	8.01	2.02	0.750			
0.2044	13084.27	4.0520	4.0518	0.8364	8.01	2.02	0.750			
0.2070	13246.90	4.0490	4.0490	0.8452	8.01	2.02	0.750			
0.2095	13408.71	4.0460	4.0461	0.8478	8.00	2.01	0.750			
0.2121	13574.15	4.0430	4.0430	0.8506	7.99	2.00	0.750			
0.2146	13735.17	4.0400	4.0400	0.8491	7.99	2.00	0.750			
0.2172	13899.19	4.0370	4.0369	0.8567	7.98	1.99	0.750			
0.2198	14064.68	4.0340	4.0340	0.8600	7.98	1.99	0.750			
0.2224	14231.00	4.0310	4.0309	0.8598	7.97	1.98	0.750			
0.2250	14397.20	4.0280	4.0281	0.8573	7.97	1.98	0.750			
0.2275	14561.16	4.0250	4.0251	0.8548	7.96	1.97	0.750			
0.2301	14726.58	4.0220	4.0220	0.8611	7.96	1.97	0.750			
0.2326	14889.32	4.0190	4.0190	0.8619	7.95	1.96	0.750			
0.2352	15054.12	4.0160	4.0160	0.8548	7.95	1.96	0.750			
0.2377	15215.73	4.0130	4.0130	0.8648	7.94	1.95	0.750			
0.2404	15383.33	4.0100	4.0102	0.8736	7.93	1.94	0.750			
0.2430	15553.79	4.0070	4.0071	0.8702	7.93	1.94	0.750			
0.2456	15720.84	4.0040	4.0039	0.8653	7.92	1.93	0.750			
0.2482	15884.47	4.0010	4.0014	0.8794	7.92	1.93	0.750			
0.2509	16055.63	3.9980	3.9980	0.8878	7.92	1.93	0.750			
0.2536	16228.16	3.9950	3.9947	0.8866	7.91	1.92	0.750			
0.2562	16396.65	3.9920	3.9921	0.8917	7.91	1.92	0.750			
0.2589	16569.71	3.9890	3.9892	0.8992	7.90	1.91	0.750			
0.2616	16744.54	3.9860	3.9858	0.9054	7.89	1.90	0.750			
0.2643	16914.30	3.9830	3.9830	0.9068	7.89	1.90	0.750			
0.2670	17086.65	3.9800	3.9799	0.9035	7.88	1.89	0.750			
0.2698	17268.36	3.9770	3.9770	0.9110	7.88	1.89	0.750			
0.2725	17441.95	3.9740	3.9739	0.9145	7.87	1.88	0.750			
0.2752	17614.27	3.9710	3.9713	0.9172	7.87	1.88	0.750			
0.2780	17790.63	3.9680	3.9681	0.9337	7.86	1.87	0.750			
0.2808	17968.27	3.9650	3.9648	0.9401	7.86	1.87	0.750			
0.2836	18150.81	3.9620	3.9621	0.9445	7.85	1.86	0.750			
0.2865	18335.44	3.9590	3.9591	0.9593	7.84	1.85	0.750			
0.2894	18520.54	3.9560	3.9561	0.9633	7.84	1.85	0.750			
0.2923	18706.23	3.9530	3.9528	0.9628	7.83	1.84	0.750			
0.2952	18892.07	3.9500	3.9500	0.9515	7.82	1.83	0.750			
0.2980	19074.46	3.9470	3.9471	0.9515	7.82	1.83	0.750			
0.3009	19256.23	3.9440	3.9441	0.9602	7.81	1.82	0.750			
0.3037	19438.30	3.9410	3.9411	0.9640	7.80	1.81	0.750			
0.3066	19625.18	3.9380	3.9380	0.9661	7.80	1.81	0.750			
0.3095	19810.61	3.9350	3.9350	0.9737	7.79	1.80	0.750			
0.3125	19998.68	3.9320	3.9321	0.9872	7.78	1.79	0.750			
0.3155	20193.21	3.9290	3.9290	0.9982	7.77	1.78	0.750			
0.3185	20383.17	3.9260	3.9260	1.0015	7.77	1.78	0.750			
0.3214	20572.49	3.9230	3.9231	1.0198	7.76	1.77	0.750			
0.3245	20770.01	3.9200	3.9200	1.0268	7.75	1.76	0.750			
0.3277	20971.21	3.9170	3.9170	1.0385	7.75	1.76	0.750			
0.3308	21173.00	3.9140	3.9140	1.0444	7.74	1.75	0.750			
0.3340	21373.99	3.9110	3.9110	1.0520	7.73	1.74	0.750			
0.3371	21577.05	3.9080	3.9079	1.0653	7.72	1.73	0.750			
0.3403	21781.26	3.9050	3.9051	1.0724	7.71	1.72	0.750			
0.3435	21986.73	3.9020	3.9020	1.0695	7.70	1.71	0.750			
0.3468	22196.38	3.8990	3.8989	1.0892	7.69	1.70	0.750			
0.3501	22404.92	3.8960	3.8962	1.1101	7.68	1.69	0.750			
0.3534	22617.35	3.8930	3.8929	1.1324	7.66	1.67	0.750			
0.3568	22837.71	3.8900	3.8900	1.1374	7.66	1.67	0.750			
0.3603	23056.89	3.8870	3.8872	1.1541	7.65	1.66	0.750			
0.3638	23282.09	3.8840	3.8841	1.1725	7.64	1.65	0.750			
0.3674	23513.44	3.8810	3.8808	1.1811	7.63	1.64	0.750			
0.3709	23738.08	3.8780	3.8779	1.1938	7.62	1.63	0.750			
0.3745	23965.12	3.8750	3.8751	1.2059	7.60	1.61	0.750			
0.3782	24202.66	3.8720	3.8719	1.2123	7.59	1.60	0.750			
0.3818	24434.31	3.8690	3.8691	1.2405	7.58	1.59	0.750			
0.3855	24672.38	3.8660	3.8660	1.2552	7.57	1.58	0.750			
0.3893	24916.89	3.8630	3.8631	1.2795	7.56	1.57	0.750			
0.3932	25167.41	3.8600	3.8597	1.2896	7.55	1.56	0.750			
0.3971	25413.51	3.8570	3.8573	1.3319	7.53	1.54	0.750			
0.4011	25672.50	3.8540	3.8541	1.3649	7.52	1.53	0.750			
0.4053	25939.83	3.8510	3.8507	1.4008	7.50	1.51	0.750	0.389	0.921	
0.4096	26211.74	3.8480	3.8483	1.4076	7.48	1.49	0.750			
0.4140	26494.07	3.8450	3.8451	1.4338	7.46	1.47	0.750			
0.4183	26768.29	3.8420	3.8420	1.4452	7.45	1.46	0.750			
0.4225	27042.42	3.8390	3.8391	1.4817	7.43	1.44	0.750			
0.4269	27319.52	3.8360	3.8361	1.4982	7.42	1.43	0.750			
0.4314	27612.37	3.8330	3.8329	1.5352	7.40	1.41	0.750			
0.4361	27913.46	3.8300	3.8300	1.5695	7.39	1.40	0.750			
0.4411	28229.31	3.8270	3.8271	1.6141	7.37	1.38	0.750			
0.4459	28539.96	3.8240	3.8241	1.6345	7.34	1.35	0.750			
0.4508	28853.98	3.8210	3.8210	1.6406	7.32	1.33	0.750			
0.4558	29168.96	3.8180	3.8181	1.6753	7.30	1.31	0.750			
0.4608	29492.65	3.8150	3.8152	1.7474	7.28	1.29	0.750			
0.4662	29836.14	3.8120	3.8118	1.7752	7.25	1.26	0.750			
0.4716	30184.86	3.8090	3.8091	1.7868	7.23	1.24	0.750			
0.4771	30534.77	3.8060	3.8063	1.8202	7.20	1.21	0.750			
0.4825	30881.73	3.8030	3.8031	1.8708	7.18	1.19	0.750			
0.4881	31240.42	3.8000	3.7998	1.9035	7.15	1.16	0.750			
0.4938	31601.15	3.7970	3.7971	2.0046	7.12	1.13	0.750			
0.4999	31996.49	3.7940	3.7940	2.0424	7.09	1.10	0.750			
0.5062	32399.24	3.7910	3.7910	2.0624	7.06	1.07	0.750			
0.5125	32800.18	3.7880	3.7881	2.0991	7.03	1.04	0.750			
0.5187	33197.56	3.7850	3.7850	2.1503	7.00	1.01	0.750			
0.5252	33610.90	3.7820	3.7819	2.1679	6.97	0.98	0.750			
0.5319	34038.58	3.7790	3.7790	2.2172	6.94	0.95	0.750			
0.5384	34459.66	3.7760	3.7759	2.2409	6.91	0.92	0.750			
0.5451	34883.95	3.7730	3.7729	2.2676	6.88	0.89	0.750			
0.5519	35321.45	3.7700	3.7700	2.3158	6.85	0.86	0.750			
0.5591	35782.86	3.7670	3.7671	2.3587	6.82	0.83	0.750			
0.5662	36235.59	3.7640	3.7641	2.3868	6.79	0.80	0.750			
0.5734	36696.01	3.7610	3.7610	2.4224	6.75	0.76	0.750			
0.5806	37159.17	3.7580	3.7581	2.4921	6.71	0.72	0.750			
0.5882	37643.95	3.7550	3.7550	2.5735	6.67	0.68	0.750			
0.5961	38148.64	3.7520	3.7520	2.6690	6.64	0.65	0.750			
0.6042	38671.52	3.7490	3.7489	2.7392	6.60	0.61	0.750			
0.6125	39201.76	3.7460	3.7460	2.8699	6.56	0.57	0.750			
0.6214	39769.75	3.7430	3.7430	3.0796	6.52	0.53	0.750			
0.6310	40385.64	3.7400	3.7401	3.1178	6.48	0.49	0.750			
0.6406	40998.85	3.7370	3.7369	3.1144	6.44	0.45	0.750			
0.6496	41574.75	3.7340	3.7339	3.1286	6.40	0.41	0.750			
0.6592	42188.61	3.7310	3.7309	3.3052	6.35	0.36	0.750			
0.6696	42851.91	3.7280	3.7280	3.2369	6.31	0.32	0.750			
0.6792	43470.69	3.7250	3.7250	3.0843	6.28	0.29	0.750			
0.6879	44026.15	3.7220	3.7218	2.7837	6.25	0.26	0.750			
0.6959	44540.71	3.7190	3.7191	2.5469	6.23	0.24	0.750			
0.7033	45013.50	3.7160	3.7160	2.2782	6.21	0.22	0.750			
0.7096	45413.02	3.7130	3.7131	2.0231	6.19	0.20	0.750			
0.7151	45768.04	3.7100	3.7101	1.7813	6.17	0.18	0.750			
0.7201	46085.18	3.7070	3.7068	1.6058	6.15	0.16	0.750			
0.7244	46361.40	3.7040	3.7041	1.4564	6.14	0.15	0.750			
0.7284	46619.63	3.7010	3.7011	1.3483	6.13	0.14	0.750			
0.7323	46868.78	3.6980	3.6980	1.2706	6.12	0.13	0.750			
0.7360	47103.95	3.6950	3.6948	1.1953	6.11	0.12	0.750			
0.7393	47317.73	3.6920	3.6921	1.1334	6.10	0.11	0.750			
0.7426	47528.41	3.6890	3.6889	1.0882	6.09	0.10	0.750			
0.7458	47731.89	3.6860	3.6860	1.0639	6.08	0.09	0.750			
0.7489	47931.08	3.6830	3.6829	1.0400	6.07	0.08	0.750			
0.7520	48125.73	3.6800	3.6801	1.0171	6.07	0.08	0.750			
0.7550	48320.61	3.6770	3.6768	1.0125	6.06	0.07	0.750			
0.7580	48514.72	3.6740	3.6741	1.0028	6.05	0.06	0.750			
0.7610	48706.07	3.6710	3.6709	0.9894	6.05	0.06	0.750			
0.7640	48896.66	3.6680	3.6679	0.9741	6.05	0.06	0.750			
0.7669	49080.75	3.6650	3.6651	0.9507	6.04	0.05	0.750			
0.7698	49264.78	3.6620	3.6620	0.9364	6.03	0.04	0.750			
0.7725	49442.91	3.6590	3.6590	0.9157	6.03	0.04	0.750			
0.7752	49612.14	3.6560	3.6560	0.8962	6.02	0.03	0.750			
0.7778	49782.05	3.6530	3.6531	0.8890	6.01	0.02	0.750			
0.7805	49949.29	3.6500	3.6501	0.8863	6.01	0.02	0.750			
0.7831	50118.83	3.6470	3.6469	0.8913	6.00	0.01	0.750			
0.7858	50288.70	3.6440	3.6441	0.9032	6.00	0.01	0.750			
0.7885	50463.72	3.6410	3.6410	0.9185	6.00	0.01	0.750			
0.7913	50643.27	3.6380	3.6379	0.9317	5.99	0.00	0.750			
0.7941	50825.39	3.6350	3.6350	0.9353	5.99	0.00	0.750			
0.7971	51014.45	3.6320	3.6319	0.9058	5.99	0.00	0.750			
0.7999	51191.13	3.6290	3.6290	0.8568	5.99	0.00	0.750			
0.8025	51361.42	3.6260	3.6261	0.7832	5.99	0.00	0.750			
0.8048	51504.89	3.6230	3.6228	0.6850	5.99	0.00	0.750			
0.8067	51626.85	3.6200	3.6201	0.5830	5.99	0.00	0.750			
0.8082	51724.89	3.6170	3.6169	0.4784	5.99	0.00	0.750			
0.8093	51796.20	3.6140	3.6142	0.3904	5.99	0.00	0.750			
0.8104	51863.80	3.6110	3.6111	0.3188	5.99	0.00	0.750			
0.8112	51914.08	3.6080	3.6080	0.2406	5.99	0.00	0.750			
0.8118	51953.74	3.6050	3.6045	0.1813	5.99	0.00	0.750			
0.8121	51976.79	3.6020	3.6008	0.1183	5.99	0.00	0.750			
0.8124	51991.89	3.5900	3.5732	-0.0683	5.99	0.00	0.749			
0.8124	51994.94	3.5990	3.5447	0.0693	5.99	0.00	0.746			
0.8125	52000.65	3.5930	3.4914	-0.0230	5.99	0.00	0.739			
0.8125	52000.71	3.5960	3.4909	0.0224	5.99	0.00	0.739			
