Ah_balance (normalized)	Ah_balance (mAh)	Voltage - fit (V)	Voltage -  interpolate (V)	dQ/dV (1/V)	Temperature (°C)	Temperature - diff (°C)	Current (C)	R_DC 0ms (mOhm)	R_DC 50ms (mOhm)	R_DC 50 ms PEC (mOhm)
0.0953	6100.68	4.1960	4.1982	0.7547	8.17	2.17	0.750			
0.0978	6258.51	4.1930	4.1943	0.7991	8.16	2.16	0.750			
0.1002	6412.29	4.1900	4.1909	0.7911	8.15	2.15	0.750			
0.1025	6560.22	4.1870	4.1874	0.7599	8.14	2.14	0.750			
0.1050	6722.22	4.1840	4.1838	0.7700	8.13	2.13	0.750			
0.1070	6850.74	4.1810	4.1810	0.7099	8.13	2.13	0.750			
0.1092	6988.86	4.1780	4.1781	0.7177	8.12	2.12	0.750			
0.1114	7127.84	4.1750	4.1749	0.7177	8.11	2.11	0.750			
0.1135	7266.79	4.1720	4.1720	0.7180	8.11	2.11	0.750			
0.1157	7404.32	4.1690	4.1690	0.7140	8.10	2.10	0.750			
0.1178	7542.00	4.1660	4.1660	0.7172	8.09	2.09	0.750			
0.1200	7679.09	4.1630	4.1630	0.7164	8.09	2.09	0.750			
0.1221	7815.48	4.1600	4.1600	0.7198	8.08	2.08	0.750			
0.1243	7954.06	4.1570	4.1569	0.7262	8.08	2.08	0.750			
0.1265	8095.15	4.1540	4.1541	0.7292	8.07	2.07	0.750			
0.1287	8237.09	4.1510	4.1510	0.7306	8.07	2.07	0.750			
0.1309	8376.96	4.1480	4.1480	0.7308	8.06	2.06	0.750			
0.1331	8516.70	4.1450	4.1450	0.7272	8.05	2.05	0.750			
0.1352	8655.96	4.1420	4.1420	0.7298	8.05	2.05	0.750			
0.1374	8794.44	4.1390	4.1390	0.7351	8.04	2.04	0.750			
0.1396	8936.76	4.1360	4.1360	0.7412	8.03	2.03	0.750			
0.1419	9080.73	4.1330	4.1330	0.7476	8.03	2.03	0.750			
0.1442	9227.20	4.1300	4.1301	0.7497	8.02	2.02	0.750			
0.1464	9369.40	4.1270	4.1270	0.7528	8.02	2.02	0.750			
0.1486	9512.92	4.1240	4.1241	0.7605	8.01	2.01	0.750			
0.1509	9660.13	4.1210	4.1209	0.7621	8.01	2.01	0.750			
0.1532	9805.84	4.1180	4.1178	0.7636	8.00	2.00	0.750			
0.1555	9954.73	4.1150	4.1151	0.7677	7.99	1.99	0.750			
0.1579	10104.77	4.1120	4.1121	0.7589	7.99	1.99	0.750			
0.1602	10250.40	4.1090	4.1089	0.7664	7.98	1.98	0.750			
0.1624	10394.74	4.1060	4.1060	0.7632	7.97	1.97	0.750			
0.1647	10537.93	4.1030	4.1032	0.7634	7.96	1.96	0.750			
0.1670	10686.23	4.1000	4.1000	0.7746	7.96	1.96	0.750			
0.1693	10836.39	4.0970	4.0971	0.7781	7.95	1.95	0.750			
0.1717	10986.76	4.0940	4.0941	0.7865	7.94	1.94	0.750			
0.1741	11141.29	4.0910	4.0910	0.7923	7.93	1.93	0.750			
0.1764	11289.51	4.0880	4.0879	0.7900	7.93	1.93	0.750			
0.1788	11440.84	4.0850	4.0851	0.7971	7.92	1.92	0.750			
0.1812	11594.86	4.0820	4.0819	0.8023	7.91	1.91	0.750			
0.1836	11750.97	4.0790	4.0790	0.7990	7.91	1.91	0.750			
0.1860	11904.64	4.0760	4.0760	0.8021	7.90	1.90	0.750			
0.1884	12057.94	4.0730	4.0732	0.8008	7.90	1.90	0.750			
0.1908	12211.33	4.0700	4.0696	0.8079	7.89	1.89	0.750			
0.1932	12363.81	4.0670	4.0671	0.8083	7.88	1.88	0.750			
0.1956	12519.61	4.0640	4.0640	0.8148	7.88	1.88	0.750			
0.1981	12678.52	4.0610	4.0610	0.8228	7.87	1.87	0.750			
0.2006	12835.79	4.0580	4.0581	0.8258	7.87	1.87	0.750			
0.2031	12997.27	4.0550	4.0547	0.8281	7.86	1.86	0.750			
0.2056	13157.24	4.0520	4.0520	0.8339	7.85	1.85	0.750			
0.2081	13318.30	4.0490	4.0490	0.8243	7.84	1.84	0.750			
0.2106	13476.39	4.0460	4.0461	0.8257	7.84	1.84	0.750			
0.2130	13631.72	4.0430	4.0430	0.8212	7.83	1.83	0.750			
0.2155	13789.90	4.0400	4.0398	0.8326	7.82	1.82	0.750			
0.2179	13948.00	4.0370	4.0371	0.8356	7.81	1.81	0.750			
0.2205	14110.72	4.0340	4.0340	0.8448	7.81	1.81	0.750			
0.2230	14274.16	4.0310	4.0311	0.8558	7.80	1.80	0.750			
0.2256	14439.73	4.0280	4.0280	0.8665	7.80	1.80	0.750			
0.2282	14607.27	4.0250	4.0247	0.8758	7.79	1.79	0.750			
0.2309	14779.07	4.0220	4.0219	0.8716	7.78	1.78	0.750			
0.2336	14947.40	4.0190	4.0191	0.8701	7.77	1.77	0.750			
0.2362	15116.91	4.0160	4.0161	0.8687	7.76	1.76	0.750			
0.2388	15281.89	4.0130	4.0130	0.8687	7.76	1.76	0.750			
0.2413	15444.82	4.0100	4.0098	0.8636	7.75	1.75	0.750			
0.2439	15610.30	4.0070	4.0070	0.8653	7.74	1.74	0.750			
0.2465	15776.42	4.0040	4.0040	0.8726	7.74	1.74	0.750			
0.2491	15944.90	4.0010	4.0011	0.8862	7.73	1.73	0.750			
0.2518	16115.85	3.9980	3.9981	0.8926	7.72	1.72	0.750			
0.2545	16286.73	3.9950	3.9950	0.8994	7.72	1.72	0.750			
0.2572	16461.05	3.9920	3.9920	0.8962	7.71	1.71	0.750			
0.2599	16634.34	3.9890	3.9890	0.9011	7.70	1.70	0.750			
0.2626	16808.04	3.9860	3.9862	0.9089	7.69	1.69	0.750			
0.2653	16981.21	3.9830	3.9828	0.9093	7.68	1.68	0.750			
0.2681	17156.34	3.9800	3.9800	0.9078	7.67	1.67	0.750			
0.2708	17331.74	3.9770	3.9770	0.9163	7.67	1.67	0.750			
0.2735	17506.91	3.9740	3.9741	0.9238	7.66	1.66	0.750			
0.2764	17686.60	3.9710	3.9712	0.9333	7.65	1.65	0.750			
0.2791	17862.70	3.9680	3.9679	0.9383	7.65	1.65	0.750			
0.2819	18044.03	3.9650	3.9650	0.9422	7.64	1.64	0.750			
0.2848	18225.10	3.9620	3.9620	0.9497	7.62	1.62	0.750			
0.2877	18409.71	3.9590	3.9590	0.9531	7.61	1.61	0.750			
0.2905	18594.03	3.9560	3.9559	0.9573	7.60	1.60	0.750			
0.2934	18778.67	3.9530	3.9529	0.9536	7.59	1.59	0.750			
0.2963	18962.22	3.9500	3.9501	0.9541	7.58	1.58	0.750			
0.2991	19142.15	3.9470	3.9471	0.9621	7.57	1.57	0.750			
0.3020	19327.74	3.9440	3.9440	0.9718	7.56	1.56	0.750			
0.3049	19515.53	3.9410	3.9409	0.9790	7.56	1.56	0.750			
0.3079	19703.48	3.9380	3.9380	0.9922	7.55	1.55	0.750			
0.3108	19894.10	3.9350	3.9351	1.0043	7.54	1.54	0.750			
0.3139	20091.03	3.9320	3.9320	1.0234	7.53	1.53	0.750			
0.3170	20289.37	3.9290	3.9290	1.0275	7.52	1.52	0.750			
0.3201	20486.87	3.9260	3.9260	1.0327	7.51	1.51	0.750			
0.3232	20687.40	3.9230	3.9231	1.0402	7.50	1.50	0.750			
0.3264	20887.31	3.9200	3.9200	1.0547	7.49	1.49	0.750			
0.3296	21091.23	3.9170	3.9169	1.0500	7.48	1.48	0.750			
0.3327	21291.85	3.9140	3.9139	1.0470	7.47	1.47	0.750			
0.3358	21489.76	3.9110	3.9112	1.0570	7.46	1.46	0.750			
0.3390	21694.18	3.9080	3.9082	1.0737	7.45	1.45	0.750			
0.3422	21899.94	3.9050	3.9048	1.0861	7.43	1.43	0.750			
0.3455	22109.93	3.9020	3.9019	1.0999	7.42	1.42	0.750			
0.3488	22322.60	3.8990	3.8991	1.1148	7.41	1.41	0.750			
0.3523	22544.87	3.8960	3.8961	1.1423	7.39	1.39	0.750			
0.3557	22762.98	3.8930	3.8930	1.1431	7.38	1.38	0.750			
0.3591	22981.59	3.8900	3.8899	1.1528	7.38	1.38	0.750			
0.3625	23202.45	3.8870	3.8871	1.1651	7.37	1.37	0.750			
0.3661	23429.42	3.8840	3.8839	1.1770	7.36	1.36	0.750			
0.3696	23653.58	3.8810	3.8811	1.1995	7.34	1.34	0.750			
0.3732	23886.81	3.8780	3.8782	1.2274	7.33	1.33	0.750			
0.3770	24126.35	3.8750	3.8748	1.2385	7.32	1.32	0.750			
0.3807	24366.17	3.8720	3.8720	1.2472	7.30	1.30	0.750			
0.3845	24605.57	3.8690	3.8692	1.2692	7.29	1.29	0.750			
0.3883	24852.04	3.8660	3.8662	1.2832	7.28	1.28	0.750			
0.3922	25099.22	3.8630	3.8629	1.3127	7.26	1.26	0.750			
0.3961	25349.78	3.8600	3.8595	1.3370	7.25	1.25	0.750	0.408	0.900	
0.4001	25608.66	3.8570	3.8569	1.3662	7.23	1.23	0.750			
0.4044	25880.33	3.8540	3.8541	1.3775	7.22	1.22	0.750			
0.4086	26148.34	3.8510	3.8511	1.4012	7.20	1.20	0.750			
0.4128	26419.03	3.8480	3.8481	1.4111	7.18	1.18	0.750			
0.4170	26689.47	3.8450	3.8450	1.4403	7.17	1.17	0.750			
0.4212	26959.35	3.8420	3.8419	1.4488	7.15	1.15	0.750			
0.4256	27237.60	3.8390	3.8391	1.4905	7.14	1.14	0.750			
0.4302	27530.24	3.8360	3.8360	1.5367	7.12	1.12	0.750			
0.4349	27833.98	3.8330	3.8327	1.5666	7.10	1.10	0.750			
0.4397	28138.73	3.8300	3.8299	1.5878	7.08	1.08	0.750			
0.4446	28453.24	3.8270	3.8271	1.6129	7.07	1.07	0.750			
0.4494	28761.31	3.8240	3.8239	1.6263	7.05	1.05	0.750			
0.4543	29074.42	3.8210	3.8210	1.6629	7.04	1.04	0.750			
0.4592	29388.62	3.8180	3.8181	1.6887	7.02	1.02	0.750			
0.4643	29713.42	3.8150	3.8149	1.7323	7.00	1.00	0.750			
0.4696	30053.31	3.8120	3.8119	1.7680	6.97	0.97	0.750			
0.4749	30396.65	3.8090	3.8089	1.8144	6.95	0.95	0.750			
0.4805	30752.27	3.8060	3.8060	1.8550	6.93	0.93	0.750			
0.4862	31116.96	3.8030	3.8029	1.8510	6.91	0.91	0.750			
0.4917	31467.58	3.8000	3.8001	1.8537	6.89	0.89	0.750			
0.4973	31827.01	3.7970	3.7968	1.8690	6.86	0.86	0.750			
0.5028	32181.71	3.7940	3.7939	1.9047	6.84	0.84	0.750			
0.5085	32540.93	3.7910	3.7910	1.9556	6.82	0.82	0.750			
0.5146	32931.51	3.7880	3.7878	2.0011	6.80	0.80	0.750			
0.5207	33325.56	3.7850	3.7850	2.0717	6.78	0.78	0.750			
0.5269	33724.43	3.7820	3.7822	2.0868	6.76	0.76	0.750			
0.5333	34128.65	3.7790	3.7788	2.1370	6.73	0.73	0.750			
0.5397	34542.14	3.7760	3.7760	2.1524	6.70	0.70	0.750			
0.5462	34959.76	3.7730	3.7729	2.1607	6.68	0.68	0.750			
0.5528	35380.47	3.7700	3.7701	2.2225	6.65	0.65	0.750			
0.5594	35798.65	3.7670	3.7669	2.2855	6.63	0.63	0.750			
0.5663	36243.21	3.7640	3.7638	2.3320	6.60	0.60	0.750			
0.5734	36699.55	3.7610	3.7612	2.4133	6.57	0.57	0.750			
0.5809	37176.68	3.7580	3.7580	2.4891	6.54	0.54	0.750			
0.5883	37651.42	3.7550	3.7549	2.5326	6.51	0.51	0.750			
0.5959	38140.22	3.7520	3.7521	2.5719	6.48	0.48	0.750			
0.6038	38645.25	3.7490	3.7490	2.6909	6.45	0.45	0.750			
0.6119	39160.14	3.7460	3.7458	2.7283	6.42	0.42	0.750			
0.6202	39694.58	3.7430	3.7432	2.8598	6.39	0.39	0.750			
0.6291	40260.51	3.7400	3.7399	2.9937	6.36	0.36	0.750			
0.6382	40843.40	3.7370	3.7372	3.2009	6.34	0.34	0.750			
0.6483	41488.69	3.7340	3.7339	3.1896	6.30	0.30	0.750			
0.6578	42101.97	3.7310	3.7309	3.0739	6.27	0.27	0.750			
0.6669	42679.77	3.7280	3.7280	2.9067	6.24	0.24	0.750			
0.6753	43221.61	3.7250	3.7248	2.6506	6.22	0.22	0.750			
0.6828	43696.43	3.7220	3.7222	2.3769	6.20	0.20	0.750			
0.6895	44127.11	3.7190	3.7189	2.1134	6.17	0.17	0.750			
0.6955	44509.48	3.7160	3.7159	1.8809	6.16	0.16	0.750			
0.7006	44841.28	3.7130	3.7134	1.6680	6.15	0.15	0.750			
0.7052	45131.31	3.7100	3.7101	1.5036	6.14	0.14	0.750			
0.7093	45396.81	3.7070	3.7069	1.3555	6.13	0.13	0.750			
0.7129	45625.44	3.7040	3.7039	1.2513	6.12	0.12	0.750			
0.7164	45852.54	3.7010	3.7010	1.1800	6.12	0.12	0.750			
0.7199	46073.25	3.6980	3.6981	1.1402	6.11	0.11	0.750			
0.7232	46285.78	3.6950	3.6949	1.1110	6.10	0.10	0.750			
0.7265	46495.65	3.6920	3.6922	1.0833	6.09	0.09	0.750			
0.7297	46699.43	3.6890	3.6889	1.0522	6.09	0.09	0.750			
0.7328	46898.75	3.6860	3.6860	1.0420	6.08	0.08	0.750			
0.7359	47095.86	3.6830	3.6830	1.0211	6.07	0.07	0.750			
0.7389	47292.06	3.6800	3.6801	1.0102	6.06	0.06	0.750			
0.7419	47483.41	3.6770	3.6770	0.9881	6.06	0.06	0.750			
0.7449	47670.46	3.6740	3.6741	0.9627	6.05	0.05	0.750			
0.7478	47857.48	3.6710	3.6709	0.9407	6.04	0.04	0.750			
0.7505	48032.17	3.6680	3.6681	0.9221	6.04	0.04	0.750			
0.7532	48204.59	3.6650	3.6647	0.9068	6.03	0.03	0.750			
0.7559	48376.86	3.6620	3.6619	0.8984	6.03	0.03	0.750			
0.7586	48547.76	3.6590	3.6589	0.8908	6.02	0.02	0.750			
0.7612	48718.01	3.6560	3.6561	0.8910	6.02	0.02	0.750			
0.7639	48890.34	3.6530	3.6531	0.8894	6.01	0.01	0.750			
0.7666	49060.81	3.6500	3.6499	0.8936	6.01	0.01	0.750			
0.7692	49230.60	3.6470	3.6471	0.8867	6.00	0.00	0.750			
0.7719	49400.72	3.6440	3.6440	0.8911	6.00	0.00	0.750			
0.7746	49574.21	3.6410	3.6409	0.8893	6.00	-0.00	0.750			
0.7774	49750.99	3.6380	3.6379	0.8673	5.99	-0.01	0.750			
0.7800	49918.26	3.6350	3.6351	0.8274	5.99	-0.01	0.750			
0.7826	50083.44	3.6320	3.6320	0.7686	5.99	-0.01	0.750			
0.7848	50227.65	3.6290	3.6291	0.6818	6.00	-0.00	0.750			
0.7868	50353.36	3.6260	3.6260	0.5808	6.00	-0.00	0.750			
0.7884	50455.26	3.6230	3.6230	0.4810	6.00	-0.00	0.750			
0.7895	50525.51	3.6200	3.6204	0.3975	6.00	-0.00	0.750			
0.7905	50592.88	3.6170	3.6170	0.3196	6.00	-0.00	0.750			
0.7913	50641.23	3.6140	3.6138	0.2377	6.00	0.00	0.750			
0.7918	50677.43	3.6110	3.6103	0.1760	6.00	0.00	0.750			
0.7922	50701.43	3.6080	3.6047	0.1204	6.00	0.00	0.750			
0.7923	50707.28	3.5930	3.5956	-0.0987	6.00	0.00	0.750			
0.7925	50717.17	3.6050	3.5229	0.0730	6.00	0.00	0.759			
0.7925	50722.12	3.5960	3.4860	-0.0558	6.00	0.00	0.765			
0.7926	50727.06	3.6020	3.4490	0.0300	6.00	0.00	0.771			
0.7926	50728.71	3.5990	3.4367	-0.0129	6.00	0.00	0.773			
