Ah_balance (normalized)	Ah_balance (mAh)	Voltage - fit (V)	Voltage -  interpolate (V)	dQ/dV (1/V)	Temperature (°C)	Temperature - diff (°C)	Current (C)	R_DC 0ms (mOhm)	R_DC 50ms (mOhm)	R_DC 50 ms PEC (mOhm)
0.0000	0.00	4.0950	4.1305	0.0000	6.00	0.00	-0.751			
0.0000	0.00	4.0980	4.1305	0.0000	6.00	0.00	-0.751			
0.0002	10.81	4.0920	4.0917	-0.0406	6.00	0.00	-0.750			
0.0003	21.21	4.0890	4.0885	-0.0678	6.00	0.00	-0.750			
0.0006	37.02	4.0860	4.0857	-0.0946	6.00	0.00	-0.750			
0.0009	58.21	4.0830	4.0829	-0.1198	6.00	0.00	-0.750			
0.0013	84.24	4.0800	4.0800	-0.1434	6.00	0.00	-0.750			
0.0018	114.18	4.0770	4.0771	-0.1685	6.00	0.00	-0.750			
0.0024	150.52	4.0740	4.0740	-0.1916	6.00	0.00	-0.750			
0.0029	188.80	4.0710	4.0712	-0.2144	6.00	0.00	-0.750			
0.0036	231.63	4.0680	4.0680	-0.2375	6.00	0.00	-0.750			
0.0044	279.75	4.0650	4.0650	-0.2595	6.00	0.00	-0.750			
0.0052	331.50	4.0620	4.0620	-0.2819	6.00	0.00	-0.750			
0.0061	388.07	4.0590	4.0591	-0.3029	6.00	0.00	-0.750			
0.0070	448.84	4.0560	4.0560	-0.3248	6.00	0.00	-0.750			
0.0080	513.40	4.0530	4.0530	-0.3473	6.00	0.00	-0.750			
0.0091	581.68	4.0500	4.0500	-0.3673	6.00	0.00	-0.750			
0.0102	653.30	4.0470	4.0470	-0.3905	6.00	0.00	-0.750			
0.0114	730.53	4.0440	4.0441	-0.4160	6.00	0.00	-0.750			
0.0127	812.30	4.0410	4.0409	-0.4400	6.00	0.00	-0.750			
0.0141	899.64	4.0380	4.0380	-0.4655	6.00	0.00	-0.750			
0.0155	992.10	4.0350	4.0351	-0.4892	6.00	0.00	-0.750			
0.0170	1088.03	4.0320	4.0320	-0.5129	6.00	0.00	-0.750			
0.0186	1189.89	4.0290	4.0290	-0.5352	6.01	0.01	-0.750			
0.0202	1294.54	4.0260	4.0261	-0.5543	6.01	0.01	-0.750			
0.0219	1404.11	4.0230	4.0229	-0.5705	6.01	0.01	-0.750			
0.0237	1516.94	4.0200	4.0199	-0.5803	6.01	0.01	-0.750			
0.0255	1629.55	4.0170	4.0171	-0.5904	6.02	0.02	-0.750			
0.0272	1742.97	4.0140	4.0141	-0.5990	6.02	0.02	-0.750			
0.0290	1858.46	4.0110	4.0110	-0.6069	6.02	0.02	-0.750			
0.0309	1976.07	4.0080	4.0078	-0.6163	6.03	0.03	-0.750			
0.0327	2093.07	4.0050	4.0051	-0.6281	6.03	0.03	-0.750			
0.0346	2215.69	4.0020	4.0021	-0.6453	6.04	0.04	-0.750			
0.0366	2342.90	3.9990	3.9989	-0.6603	6.04	0.04	-0.750			
0.0386	2470.45	3.9960	3.9960	-0.6674	6.05	0.05	-0.750			
0.0406	2600.24	3.9930	3.9932	-0.6729	6.05	0.05	-0.750			
0.0427	2730.88	3.9900	3.9898	-0.6787	6.06	0.06	-0.750			
0.0447	2860.97	3.9870	3.9872	-0.6842	6.06	0.06	-0.750			
0.0467	2991.72	3.9840	3.9840	-0.6839	6.07	0.07	-0.750			
0.0488	3124.06	3.9810	3.9810	-0.6911	6.08	0.08	-0.750			
0.0509	3257.79	3.9780	3.9779	-0.6912	6.08	0.08	-0.750			
0.0530	3389.45	3.9750	3.9753	-0.6961	6.09	0.09	-0.750			
0.0551	3523.66	3.9720	3.9720	-0.7002	6.10	0.10	-0.750			
0.0571	3656.34	3.9690	3.9691	-0.7087	6.11	0.11	-0.750			
0.0593	3793.40	3.9660	3.9659	-0.7157	6.12	0.12	-0.750			
0.0614	3932.37	3.9630	3.9630	-0.7219	6.12	0.12	-0.750			
0.0636	4070.95	3.9600	3.9600	-0.7300	6.13	0.13	-0.750			
0.0658	4213.99	3.9570	3.9571	-0.7352	6.14	0.14	-0.750			
0.0681	4355.20	3.9540	3.9538	-0.7322	6.15	0.15	-0.750			
0.0702	4494.62	3.9510	3.9511	-0.7391	6.16	0.16	-0.750			
0.0725	4637.44	3.9480	3.9480	-0.7362	6.16	0.16	-0.750			
0.0747	4781.79	3.9450	3.9448	-0.7321	6.17	0.17	-0.750			
0.0769	4920.40	3.9420	3.9421	-0.7331	6.18	0.18	-0.750			
0.0790	5058.66	3.9390	3.9391	-0.7325	6.18	0.18	-0.750			
0.0813	5200.88	3.9360	3.9358	-0.7318	6.19	0.19	-0.750			
0.0834	5339.61	3.9330	3.9330	-0.7353	6.20	0.20	-0.750			
0.0856	5481.00	3.9300	3.9301	-0.7334	6.21	0.21	-0.750			
0.0879	5623.71	3.9270	3.9270	-0.7388	6.22	0.22	-0.750			
0.0901	5766.96	3.9240	3.9241	-0.7445	6.23	0.23	-0.750			
0.0923	5907.79	3.9210	3.9210	-0.7411	6.24	0.24	-0.750			
0.0945	6049.28	3.9180	3.9180	-0.7441	6.25	0.25	-0.750			
0.0968	6193.76	3.9150	3.9150	-0.7550	6.26	0.26	-0.750			
0.0990	6338.02	3.9120	3.9120	-0.7585	6.27	0.27	-0.750			
0.1014	6487.50	3.9090	3.9089	-0.7650	6.28	0.28	-0.750			
0.1037	6633.96	3.9060	3.9061	-0.7615	6.29	0.29	-0.750			
0.1060	6781.06	3.9030	3.9030	-0.7603	6.30	0.30	-0.750			
0.1082	6927.50	3.9000	3.8999	-0.7619	6.31	0.31	-0.750			
0.1105	7071.55	3.8970	3.8971	-0.7549	6.31	0.31	-0.750			
0.1128	7216.78	3.8940	3.8940	-0.7614	6.32	0.32	-0.750			
0.1150	7362.86	3.8910	3.8910	-0.7627	6.33	0.33	-0.750			
0.1173	7509.85	3.8880	3.8880	-0.7726	6.34	0.34	-0.750			
0.1197	7657.69	3.8850	3.8849	-0.7776	6.35	0.35	-0.750			
0.1220	7808.17	3.8820	3.8820	-0.7811	6.36	0.36	-0.750			
0.1244	7959.03	3.8790	3.8791	-0.7854	6.37	0.37	-0.750			
0.1268	8112.37	3.8760	3.8759	-0.7875	6.38	0.38	-0.750			
0.1291	8262.98	3.8730	3.8731	-0.7866	6.39	0.39	-0.750			
0.1315	8413.28	3.8700	3.8700	-0.7855	6.40	0.40	-0.750			
0.1338	8563.25	3.8670	3.8668	-0.7795	6.41	0.41	-0.750			
0.1361	8713.50	3.8640	3.8641	-0.7796	6.42	0.42	-0.750			
0.1385	8863.51	3.8610	3.8610	-0.7757	6.43	0.43	-0.750			
0.1408	9011.11	3.8580	3.8582	-0.7789	6.44	0.44	-0.750			
0.1431	9161.23	3.8550	3.8549	-0.7816	6.45	0.45	-0.750			
0.1455	9310.49	3.8520	3.8520	-0.7784	6.46	0.46	-0.750			
0.1478	9460.64	3.8490	3.8490	-0.7811	6.47	0.47	-0.750			
0.1502	9611.59	3.8460	3.8461	-0.7865	6.48	0.48	-0.750			
0.1525	9761.22	3.8430	3.8428	-0.7911	6.49	0.49	-0.750			
0.1549	9912.98	3.8400	3.8399	-0.7976	6.50	0.50	-0.750			
0.1573	10067.01	3.8370	3.8370	-0.8012	6.51	0.51	-0.750			
0.1597	10223.89	3.8340	3.8339	-0.8028	6.52	0.52	-0.750			
0.1622	10379.05	3.8310	3.8310	-0.8003	6.53	0.53	-0.750			
0.1646	10533.84	3.8280	3.8282	-0.7937	6.55	0.55	-0.750			
0.1669	10684.00	3.8250	3.8248	-0.7885	6.56	0.56	-0.750			
0.1692	10831.36	3.8220	3.8219	-0.7853	6.57	0.57	-0.750			
0.1716	10982.03	3.8190	3.8191	-0.7872	6.58	0.58	-0.750			
0.1739	11131.40	3.8160	3.8160	-0.7919	6.59	0.59	-0.750			
0.1764	11286.92	3.8130	3.8130	-0.8043	6.60	0.60	-0.750			
0.1788	11443.27	3.8100	3.8100	-0.8025	6.61	0.61	-0.750			
0.1812	11598.14	3.8070	3.8069	-0.8075	6.62	0.62	-0.750			
0.1836	11752.91	3.8040	3.8040	-0.8053	6.63	0.63	-0.750			
0.1860	11906.54	3.8010	3.8012	-0.8006	6.64	0.64	-0.750			
0.1885	12060.94	3.7980	3.7979	-0.8034	6.65	0.65	-0.750			
0.1908	12213.31	3.7950	3.7951	-0.8021	6.66	0.66	-0.750			
0.1932	12367.28	3.7920	3.7920	-0.8052	6.67	0.67	-0.750			
0.1957	12523.54	3.7890	3.7890	-0.8142	6.69	0.69	-0.750			
0.1981	12679.09	3.7860	3.7859	-0.8097	6.70	0.70	-0.750			
0.2006	12835.33	3.7830	3.7830	-0.8147	6.71	0.71	-0.750			
0.2030	12991.70	3.7800	3.7802	-0.8165	6.72	0.72	-0.750			
0.2054	13147.41	3.7770	3.7768	-0.8180	6.73	0.73	-0.750			
0.2079	13306.26	3.7740	3.7741	-0.8179	6.74	0.74	-0.750			
0.2104	13463.20	3.7710	3.7709	-0.8154	6.75	0.75	-0.750			
0.2128	13620.62	3.7680	3.7681	-0.8247	6.76	0.76	-0.750			
0.2153	13779.89	3.7650	3.7651	-0.8235	6.77	0.77	-0.750			
0.2177	13935.57	3.7620	3.7618	-0.8242	6.78	0.78	-0.750			
0.2202	14094.16	3.7590	3.7591	-0.8350	6.79	0.79	-0.750			
0.2227	14255.07	3.7560	3.7559	-0.8350	6.81	0.81	-0.750			
0.2253	14417.18	3.7530	3.7529	-0.8377	6.82	0.82	-0.750			
0.2278	14579.98	3.7500	3.7503	-0.8402	6.83	0.83	-0.750			
0.2303	14740.49	3.7470	3.7470	-0.8349	6.84	0.84	-0.750			
0.2328	14901.57	3.7440	3.7439	-0.8411	6.85	0.85	-0.750			
0.2354	15062.48	3.7410	3.7410	-0.8372	6.86	0.86	-0.750			
0.2379	15222.68	3.7380	3.7380	-0.8431	6.87	0.87	-0.750			
0.2404	15384.69	3.7350	3.7352	-0.8474	6.88	0.88	-0.750			
0.2429	15547.76	3.7320	3.7320	-0.8496	6.89	0.89	-0.750			
0.2455	15710.02	3.7290	3.7289	-0.8575	6.90	0.90	-0.750			
0.2481	15875.67	3.7260	3.7260	-0.8595	6.90	0.90	-0.750			
0.2507	16041.68	3.7230	3.7230	-0.8656	6.91	0.91	-0.750			
0.2533	16208.76	3.7200	3.7202	-0.8682	6.92	0.92	-0.750			
0.2558	16373.60	3.7170	3.7169	-0.8741	6.93	0.93	-0.750			
0.2585	16543.30	3.7140	3.7140	-0.8747	6.95	0.95	-0.750			
0.2611	16711.69	3.7110	3.7109	-0.8757	6.96	0.96	-0.750			
0.2638	16880.50	3.7080	3.7080	-0.8818	6.97	0.97	-0.750			
0.2664	17051.27	3.7050	3.7049	-0.8844	6.98	0.98	-0.750			
0.2691	17219.41	3.7020	3.7020	-0.8897	6.99	0.99	-0.750			
0.2717	17389.78	3.6990	3.6990	-0.8976	7.00	1.00	-0.750			
0.2744	17561.14	3.6960	3.6960	-0.8991	7.01	1.01	-0.750			
0.2771	17736.87	3.6930	3.6930	-0.9154	7.02	1.02	-0.750			
0.2799	17913.00	3.6900	3.6900	-0.9212	7.03	1.03	-0.750			
0.2827	18091.50	3.6870	3.6869	-0.9213	7.04	1.04	-0.750			
0.2855	18270.56	3.6840	3.6840	-0.9248	7.04	1.04	-0.750			
0.2882	18447.26	3.6810	3.6811	-0.9230	7.05	1.05	-0.750			
0.2910	18623.88	3.6780	3.6780	-0.9301	7.06	1.06	-0.750			
0.2938	18802.54	3.6750	3.6750	-0.9448	7.07	1.07	-0.750			
0.2966	18983.25	3.6720	3.6719	-0.9471	7.08	1.08	-0.750			
0.2995	19168.25	3.6690	3.6690	-0.9519	7.10	1.10	-0.750			
0.3024	19353.03	3.6660	3.6661	-0.9651	7.11	1.11	-0.750			
0.3053	19537.60	3.6630	3.6630	-0.9669	7.12	1.12	-0.750			
0.3082	19723.20	3.6600	3.6599	-0.9706	7.12	1.12	-0.750			
0.3111	19907.72	3.6570	3.6570	-0.9779	7.13	1.13	-0.750			
0.3140	20095.30	3.6540	3.6538	-0.9817	7.14	1.14	-0.750			
0.3170	20288.10	3.6510	3.6509	-0.9985	7.15	1.15	-0.750			
0.3200	20481.25	3.6480	3.6480	-1.0046	7.15	1.15	-0.750			
0.3230	20672.86	3.6450	3.6449	-1.0106	7.16	1.16	-0.750			
0.3261	20867.99	3.6420	3.6420	-1.0183	7.17	1.17	-0.750			
0.3291	21065.55	3.6390	3.6390	-1.0331	7.18	1.18	-0.750			
0.3323	21264.49	3.6360	3.6359	-1.0383	7.19	1.19	-0.750			
0.3354	21466.05	3.6330	3.6330	-1.0459	7.20	1.20	-0.750			
0.3386	21667.69	3.6300	3.6300	-1.0454	7.21	1.21	-0.750			
0.3417	21867.02	3.6270	3.6271	-1.0595	7.22	1.22	-0.750			
0.3449	22071.07	3.6240	3.6240	-1.0563	7.23	1.23	-0.750			
0.3480	22273.86	3.6210	3.6208	-1.0628	7.24	1.24	-0.750			
0.3512	22477.62	3.6180	3.6180	-1.0706	7.25	1.25	-0.750			
0.3544	22683.23	3.6150	3.6149	-1.0978	7.25	1.25	-0.750			
0.3578	22896.17	3.6120	3.6119	-1.1156	7.26	1.26	-0.750			
0.3612	23115.55	3.6090	3.6088	-1.1193	7.27	1.27	-0.750			
0.3645	23329.80	3.6060	3.6062	-1.1185	7.28	1.28	-0.750			
0.3680	23549.60	3.6030	3.6031	-1.1370	7.29	1.29	-0.750			
0.3713	23766.33	3.6000	3.5999	-1.1390	7.30	1.30	-0.750			
0.3748	23984.73	3.5970	3.5969	-1.1378	7.31	1.31	-0.750			
0.3781	24199.85	3.5940	3.5942	-1.1307	7.32	1.32	-0.750			
0.3816	24420.93	3.5910	3.5909	-1.1582	7.33	1.33	-0.750			
0.3851	24645.77	3.5880	3.5881	-1.1714	7.33	1.33	-0.750	0.403	0.853	
0.3886	24871.55	3.5850	3.5848	-1.1708	7.34	1.34	-0.750			
0.3922	25098.47	3.5820	3.5821	-1.1762	7.34	1.34	-0.750			
0.3957	25324.94	3.5790	3.5790	-1.1809	7.35	1.35	-0.750			
0.3992	25549.45	3.5760	3.5760	-1.1977	7.36	1.36	-0.750			
0.4027	25775.42	3.5730	3.5730	-1.1972	7.37	1.37	-0.750			
0.4064	26009.94	3.5700	3.5699	-1.2205	7.38	1.38	-0.750			
0.4101	26246.18	3.5670	3.5671	-1.2376	7.38	1.38	-0.750			
0.4139	26487.81	3.5640	3.5640	-1.2530	7.39	1.39	-0.750			
0.4177	26730.95	3.5610	3.5611	-1.2629	7.40	1.40	-0.750			
0.4215	26975.42	3.5580	3.5579	-1.2593	7.40	1.40	-0.750			
0.4252	27215.92	3.5550	3.5551	-1.2650	7.41	1.41	-0.750			
0.4291	27460.42	3.5520	3.5520	-1.2706	7.42	1.42	-0.750			
0.4329	27702.61	3.5490	3.5489	-1.2751	7.44	1.44	-0.750			
0.4367	27948.23	3.5460	3.5460	-1.2786	7.45	1.45	-0.750			
0.4405	28194.22	3.5430	3.5430	-1.2894	7.46	1.46	-0.750			
0.4444	28443.77	3.5400	3.5400	-1.3000	7.47	1.47	-0.750			
0.4484	28695.12	3.5370	3.5370	-1.3148	7.47	1.47	-0.750			
0.4523	28945.28	3.5340	3.5341	-1.3316	7.48	1.48	-0.750			
0.4564	29206.78	3.5310	3.5309	-1.3449	7.49	1.49	-0.750			
0.4604	29468.57	3.5280	3.5280	-1.3352	7.50	1.50	-0.750			
0.4645	29726.79	3.5250	3.5252	-1.3360	7.51	1.51	-0.750			
0.4685	29981.71	3.5220	3.5220	-1.3265	7.52	1.52	-0.750			
0.4724	30235.75	3.5190	3.5188	-1.3226	7.53	1.53	-0.750			
0.4763	30484.52	3.5160	3.5160	-1.3289	7.54	1.54	-0.750			
0.4802	30735.79	3.5130	3.5132	-1.3358	7.55	1.55	-0.750			
0.4844	30999.38	3.5100	3.5099	-1.3592	7.56	1.56	-0.750			
0.4885	31262.50	3.5070	3.5070	-1.3681	7.57	1.57	-0.750			
0.4926	31526.90	3.5040	3.5040	-1.3592	7.58	1.58	-0.750			
0.4967	31790.71	3.5010	3.5010	-1.3493	7.59	1.59	-0.750			
0.5008	32048.93	3.4980	3.4979	-1.3430	7.59	1.59	-0.750			
0.5048	32304.76	3.4950	3.4949	-1.3292	7.61	1.61	-0.750			
0.5087	32558.20	3.4920	3.4920	-1.3190	7.62	1.62	-0.750			
0.5126	32807.49	3.4890	3.4888	-1.3151	7.63	1.63	-0.750			
0.5165	33057.45	3.4860	3.4862	-1.3143	7.64	1.64	-0.750			
0.5205	33314.71	3.4830	3.4829	-1.3205	7.65	1.65	-0.750			
0.5245	33569.17	3.4800	3.4797	-1.3179	7.66	1.66	-0.750			
0.5284	33819.74	3.4770	3.4772	-1.3024	7.67	1.67	-0.750			
0.5324	34074.34	3.4740	3.4740	-1.3028	7.68	1.68	-0.750			
0.5363	34325.09	3.4710	3.4710	-1.2948	7.70	1.70	-0.750			
0.5402	34571.54	3.4680	3.4682	-1.2805	7.71	1.71	-0.750			
0.5439	34812.75	3.4650	3.4649	-1.2655	7.72	1.72	-0.750			
0.5477	35053.36	3.4620	3.4619	-1.2677	7.73	1.73	-0.750			
0.5515	35294.26	3.4590	3.4591	-1.2658	7.74	1.74	-0.750			
0.5553	35538.76	3.4560	3.4558	-1.2626	7.75	1.75	-0.750			
0.5592	35786.96	3.4530	3.4530	-1.2527	7.76	1.76	-0.750			
0.5629	36028.31	3.4500	3.4499	-1.2352	7.77	1.77	-0.750			
0.5667	36266.25	3.4470	3.4471	-1.2258	7.78	1.78	-0.750			
0.5703	36498.40	3.4440	3.4440	-1.2132	7.80	1.80	-0.750			
0.5738	36725.09	3.4410	3.4409	-1.1955	7.81	1.81	-0.750			
0.5774	36952.59	3.4380	3.4380	-1.1872	7.82	1.82	-0.750			
0.5810	37182.95	3.4350	3.4350	-1.1865	7.83	1.83	-0.750			
0.5846	37414.96	3.4320	3.4321	-1.1871	7.85	1.85	-0.750			
0.5881	37641.04	3.4290	3.4289	-1.1665	7.87	1.87	-0.750			
0.5916	37862.63	3.4260	3.4261	-1.1530	7.88	1.88	-0.750			
0.5951	38085.40	3.4230	3.4229	-1.1339	7.90	1.90	-0.750			
0.5985	38303.70	3.4200	3.4200	-1.1149	7.91	1.91	-0.750			
0.6018	38515.11	3.4170	3.4170	-1.0916	7.93	1.93	-0.750			
0.6050	38722.58	3.4140	3.4139	-1.0802	7.94	1.94	-0.750			
0.6082	38925.83	3.4110	3.4111	-1.0609	7.95	1.95	-0.750			
0.6114	39128.73	3.4080	3.4079	-1.0434	7.96	1.96	-0.750			
0.6145	39326.00	3.4050	3.4049	-1.0231	7.98	1.98	-0.750			
0.6176	39526.06	3.4020	3.4021	-1.0191	7.99	1.99	-0.750			
0.6206	39719.07	3.3990	3.3991	-0.9959	8.00	2.00	-0.750			
0.6236	39910.33	3.3960	3.3959	-0.9710	8.01	2.01	-0.750			
0.6265	40093.75	3.3930	3.3930	-0.9459	8.02	2.02	-0.750			
0.6292	40271.99	3.3900	3.3899	-0.9215	8.04	2.04	-0.750			
0.6319	40444.70	3.3870	3.3872	-0.9153	8.06	2.06	-0.750			
0.6347	40617.67	3.3840	3.3838	-0.9002	8.07	2.07	-0.750			
0.6374	40790.85	3.3810	3.3809	-0.8798	8.09	2.09	-0.750			
0.6400	40961.42	3.3780	3.3780	-0.8626	8.11	2.11	-0.750			
0.6426	41127.93	3.3750	3.3751	-0.8454	8.12	2.12	-0.750			
0.6451	41287.22	3.3720	3.3720	-0.8231	8.13	2.13	-0.750			
0.6475	41441.16	3.3690	3.3689	-0.7942	8.14	2.14	-0.750			
0.6498	41588.07	3.3660	3.3660	-0.7704	8.16	2.16	-0.750			
0.6521	41734.65	3.3630	3.3631	-0.7560	8.17	2.17	-0.750			
0.6544	41878.84	3.3600	3.3599	-0.7409	8.18	2.18	-0.750			
0.6566	42019.60	3.3570	3.3569	-0.7259	8.19	2.19	-0.750			
0.6587	42156.81	3.3540	3.3540	-0.7106	8.21	2.21	-0.750			
0.6608	42290.94	3.3510	3.3510	-0.6950	8.22	2.22	-0.750			
0.6629	42425.87	3.3480	3.3479	-0.6825	8.23	2.23	-0.750			
0.6649	42554.91	3.3450	3.3451	-0.6638	8.25	2.25	-0.750			
0.6669	42681.09	3.3420	3.3419	-0.6483	8.26	2.26	-0.750			
0.6688	42803.88	3.3390	3.3390	-0.6308	8.27	2.27	-0.750			
0.6706	42921.21	3.3360	3.3359	-0.6153	8.29	2.29	-0.750			
0.6725	43038.04	3.3330	3.3331	-0.6014	8.30	2.30	-0.750			
0.6743	43152.75	3.3300	3.3299	-0.5893	8.31	2.31	-0.750			
0.6760	43264.27	3.3270	3.3270	-0.5794	8.33	2.33	-0.750			
0.6777	43374.25	3.3240	3.3241	-0.5683	8.34	2.34	-0.750			
0.6794	43482.79	3.3210	3.3209	-0.5566	8.35	2.35	-0.750			
0.6811	43589.86	3.3180	3.3179	-0.5455	8.36	2.36	-0.750			
0.6827	43693.10	3.3150	3.3151	-0.5324	8.37	2.37	-0.750			
0.6843	43793.54	3.3120	3.3121	-0.5236	8.39	2.39	-0.750			
0.6858	43893.22	3.3090	3.3089	-0.5162	8.40	2.40	-0.750			
0.6874	43991.95	3.3060	3.3059	-0.5038	8.41	2.41	-0.750			
0.6889	44087.68	3.3030	3.3030	-0.4943	8.42	2.42	-0.750			
0.6903	44182.02	3.3000	3.3002	-0.4840	8.43	2.43	-0.750			
0.6918	44274.76	3.2970	3.2970	-0.4742	8.44	2.44	-0.750			
0.6932	44364.21	3.2940	3.2939	-0.4637	8.45	2.45	-0.750			
0.6945	44449.80	3.2910	3.2911	-0.4539	8.46	2.46	-0.750			
0.6959	44537.13	3.2880	3.2879	-0.4490	8.47	2.47	-0.750			
0.6972	44623.37	3.2850	3.2850	-0.4417	8.48	2.48	-0.750			
0.6986	44707.58	3.2820	3.2819	-0.4335	8.50	2.50	-0.750			
0.6998	44790.33	3.2790	3.2791	-0.4275	8.51	2.51	-0.750			
0.7011	44872.80	3.2760	3.2759	-0.4160	8.52	2.52	-0.750			
0.7024	44950.95	3.2730	3.2728	-0.4058	8.53	2.53	-0.750			
0.7035	45026.79	3.2700	3.2703	-0.3953	8.54	2.54	-0.750			
0.7047	45102.04	3.2670	3.2669	-0.3913	8.55	2.55	-0.750			
0.7059	45176.67	3.2640	3.2639	-0.3859	8.56	2.56	-0.750			
0.7070	45249.61	3.2610	3.2610	-0.3782	8.57	2.57	-0.750			
0.7081	45321.26	3.2580	3.2581	-0.3750	8.58	2.58	-0.750			
0.7093	45394.51	3.2550	3.2550	-0.3745	8.59	2.59	-0.750			
0.7104	45465.55	3.2520	3.2520	-0.3672	8.60	2.60	-0.750			
0.7115	45535.11	3.2490	3.2489	-0.3611	8.61	2.61	-0.750			
0.7126	45603.95	3.2460	3.2460	-0.3562	8.62	2.62	-0.750			
0.7136	45672.30	3.2430	3.2430	-0.3509	8.64	2.64	-0.750			
0.7147	45739.01	3.2400	3.2400	-0.3456	8.64	2.64	-0.750			
0.7157	45804.89	3.2370	3.2370	-0.3366	8.64	2.64	-0.750			
0.7167	45869.14	3.2340	3.2339	-0.3299	8.66	2.66	-0.750			
0.7177	45931.59	3.2310	3.2311	-0.3264	8.67	2.67	-0.750			
0.7186	45993.25	3.2280	3.2281	-0.3215	8.68	2.68	-0.750			
0.7196	46054.28	3.2250	3.2248	-0.3163	8.69	2.69	-0.750			
0.7205	46114.94	3.2220	3.2219	-0.3106	8.70	2.70	-0.750			
0.7215	46173.64	3.2190	3.2192	-0.3074	8.71	2.71	-0.750			
0.7224	46232.90	3.2160	3.2161	-0.3040	8.73	2.73	-0.750			
0.7233	46291.03	3.2130	3.2129	-0.2996	8.74	2.74	-0.750			
0.7242	46347.86	3.2100	3.2099	-0.2937	8.75	2.75	-0.750			
0.7251	46403.43	3.2070	3.2071	-0.2892	8.76	2.76	-0.750			
0.7259	46458.61	3.2040	3.2041	-0.2863	8.77	2.77	-0.750			
0.7268	46513.14	3.2010	3.2010	-0.2847	8.78	2.78	-0.750			
0.7276	46566.94	3.1980	3.1979	-0.2808	8.79	2.79	-0.750			
0.7284	46620.67	3.1950	3.1950	-0.2797	8.80	2.80	-0.750			
0.7293	46674.25	3.1920	3.1921	-0.2783	8.81	2.81	-0.750			
0.7301	46728.36	3.1890	3.1890	-0.2770	8.81	2.81	-0.750			
0.7310	46781.42	3.1860	3.1859	-0.2726	8.82	2.82	-0.750			
0.7318	46832.92	3.1830	3.1830	-0.2683	8.83	2.83	-0.750			
0.7326	46883.80	3.1800	3.1801	-0.2642	8.84	2.84	-0.750			
0.7333	46934.39	3.1770	3.1769	-0.2640	8.85	2.85	-0.750			
0.7341	46984.22	3.1740	3.1740	-0.2607	8.86	2.86	-0.750			
0.7349	47034.23	3.1710	3.1710	-0.2580	8.87	2.87	-0.750			
0.7357	47084.14	3.1680	3.1680	-0.2564	8.87	2.87	-0.750			
0.7365	47133.50	3.1650	3.1651	-0.2534	8.88	2.88	-0.750			
0.7372	47181.47	3.1620	3.1619	-0.2503	8.89	2.89	-0.750			
0.7380	47228.91	3.1590	3.1590	-0.2469	8.90	2.90	-0.750			
0.7387	47275.67	3.1560	3.1560	-0.2430	8.91	2.91	-0.750			
0.7394	47322.44	3.1530	3.1529	-0.2418	8.92	2.92	-0.750			
0.7401	47368.62	3.1500	3.1501	-0.2399	8.93	2.93	-0.750			
0.7409	47414.41	3.1470	3.1470	-0.2371	8.94	2.94	-0.750			
0.7416	47459.94	3.1440	3.1440	-0.2352	8.95	2.95	-0.750			
0.7423	47505.05	3.1410	3.1409	-0.2327	8.96	2.96	-0.750			
0.7430	47549.03	3.1380	3.1381	-0.2299	8.96	2.96	-0.750			
0.7436	47593.19	3.1350	3.1351	-0.2279	8.97	2.97	-0.750			
0.7443	47636.79	3.1320	3.1319	-0.2256	8.98	2.98	-0.750			
0.7450	47679.69	3.1290	3.1290	-0.2243	8.99	2.99	-0.750			
0.7457	47722.18	3.1260	3.1260	-0.2230	9.00	3.00	-0.750			
0.7463	47765.50	3.1230	3.1229	-0.2207	9.01	3.01	-0.750			
0.7470	47807.53	3.1200	3.1199	-0.2187	9.02	3.02	-0.750			
0.7476	47849.45	3.1170	3.1171	-0.2168	9.03	3.03	-0.750			
0.7483	47890.89	3.1140	3.1141	-0.2147	9.04	3.04	-0.750			
0.7489	47931.76	3.1110	3.1109	-0.2134	9.05	3.05	-0.750			
0.7496	47972.50	3.1080	3.1079	-0.2117	9.05	3.05	-0.750			
0.7502	48012.53	3.1050	3.1051	-0.2097	9.06	3.06	-0.750			
0.7508	48052.56	3.1020	3.1020	-0.2081	9.07	3.07	-0.750			
0.7515	48093.22	3.0990	3.0990	-0.2070	9.08	3.08	-0.750			
0.7521	48132.45	3.0960	3.0961	-0.2045	9.09	3.09	-0.750			
0.7527	48171.28	3.0930	3.0930	-0.2032	9.10	3.10	-0.750			
0.7533	48210.14	3.0900	3.0898	-0.2017	9.11	3.11	-0.750			
0.7539	48248.32	3.0870	3.0870	-0.2002	9.12	3.12	-0.750			
0.7545	48286.98	3.0840	3.0840	-0.1989	9.12	3.12	-0.750			
0.7551	48324.99	3.0810	3.0810	-0.1982	9.13	3.13	-0.750			
0.7557	48362.95	3.0780	3.0780	-0.1972	9.14	3.14	-0.750			
0.7563	48401.00	3.0750	3.0750	-0.1961	9.15	3.15	-0.750			
0.7568	48438.29	3.0720	3.0719	-0.1949	9.16	3.16	-0.750			
0.7574	48475.50	3.0690	3.0690	-0.1932	9.17	3.17	-0.750			
0.7580	48512.52	3.0660	3.0660	-0.1924	9.18	3.18	-0.750			
0.7586	48549.52	3.0630	3.0630	-0.1910	9.19	3.19	-0.750			
0.7592	48586.46	3.0600	3.0600	-0.1899	9.20	3.20	-0.750			
0.7597	48622.58	3.0570	3.0570	-0.1875	9.21	3.21	-0.750			
0.7603	48658.36	3.0540	3.0539	-0.1858	9.22	3.22	-0.750			
0.7608	48693.73	3.0510	3.0510	-0.1852	9.22	3.22	-0.750			
0.7614	48728.90	3.0480	3.0479	-0.1835	9.23	3.23	-0.750			
0.7619	48764.02	3.0450	3.0450	-0.1828	9.24	3.24	-0.750			
0.7625	48799.19	3.0420	3.0420	-0.1815	9.25	3.25	-0.750			
0.7630	48833.76	3.0390	3.0391	-0.1816	9.26	3.26	-0.750			
0.7636	48868.81	3.0360	3.0360	-0.1810	9.27	3.27	-0.750			
0.7641	48903.44	3.0330	3.0329	-0.1803	9.28	3.28	-0.750			
0.7647	48937.97	3.0300	3.0299	-0.1796	9.29	3.29	-0.750			
0.7652	48972.32	3.0270	3.0271	-0.1781	9.30	3.30	-0.750			
0.7657	49006.89	3.0240	3.0239	-0.1772	9.31	3.31	-0.750			
0.7663	49040.68	3.0210	3.0211	-0.1754	9.31	3.31	-0.750			
0.7668	49074.41	3.0180	3.0180	-0.1737	9.32	3.32	-0.750			
0.7673	49107.00	3.0150	3.0150	-0.1723	9.33	3.33	-0.750			
0.7678	49140.04	3.0120	3.0120	-0.1715	9.34	3.34	-0.750			
0.7683	49172.40	3.0090	3.0090	-0.1711	9.35	3.35	-0.750			
0.7688	49205.33	3.0060	3.0059	-0.1719	9.36	3.36	-0.750			
0.7694	49238.54	3.0030	3.0030	-0.1750	9.37	3.37	-0.750			
