Ah_balance (normalized)	Ah_balance (mAh)	Voltage - fit (V)	Voltage -  interpolate (V)	dQ/dV (1/V)	Temperature (°C)	Temperature - diff (°C)	Current (C)	R_DC 0ms (mOhm)	R_DC 50ms (mOhm)	R_DC 50 ms PEC (mOhm)
0.0002	11.50	4.1100	4.1092	-0.0504	5.98	-0.01	-0.750			
0.0004	24.79	4.1070	4.1067	-0.0841	5.98	-0.01	-0.750			
0.0007	44.84	4.1040	4.1038	-0.1145	5.98	-0.01	-0.750			
0.0011	70.07	4.1010	4.1009	-0.1416	5.98	-0.01	-0.750			
0.0016	99.83	4.0980	4.0981	-0.1684	5.98	-0.01	-0.750			
0.0021	134.82	4.0950	4.0951	-0.1912	5.98	-0.01	-0.750			
0.0027	175.50	4.0920	4.0920	-0.2152	5.98	-0.01	-0.750			
0.0034	218.54	4.0890	4.0891	-0.2384	5.98	-0.01	-0.750			
0.0042	266.55	4.0860	4.0860	-0.2593	5.99	-0.00	-0.750			
0.0050	318.61	4.0830	4.0830	-0.2791	5.99	-0.00	-0.750			
0.0058	373.69	4.0800	4.0801	-0.3032	5.99	-0.00	-0.750			
0.0068	433.83	4.0770	4.0769	-0.3259	5.99	-0.00	-0.750			
0.0078	499.08	4.0740	4.0740	-0.3483	5.99	-0.00	-0.750			
0.0089	567.93	4.0710	4.0710	-0.3692	5.99	-0.00	-0.750			
0.0100	639.94	4.0680	4.0682	-0.3950	5.99	-0.00	-0.750			
0.0112	718.17	4.0650	4.0650	-0.4227	5.99	0.00	-0.750			
0.0125	801.59	4.0620	4.0618	-0.4482	5.99	0.00	-0.750			
0.0139	889.76	4.0590	4.0590	-0.4752	5.99	0.00	-0.750			
0.0154	984.34	4.0560	4.0559	-0.4995	5.99	0.00	-0.750			
0.0169	1084.16	4.0530	4.0530	-0.5283	6.00	0.01	-0.750			
0.0186	1189.10	4.0500	4.0501	-0.5461	6.00	0.01	-0.750			
0.0202	1295.72	4.0470	4.0469	-0.5624	6.00	0.01	-0.750			
0.0220	1406.55	4.0440	4.0440	-0.5738	6.00	0.01	-0.750			
0.0237	1517.33	4.0410	4.0410	-0.5900	6.00	0.01	-0.750			
0.0255	1631.56	4.0380	4.0380	-0.6022	6.01	0.02	-0.750			
0.0273	1749.53	4.0350	4.0348	-0.6151	6.01	0.02	-0.750			
0.0292	1867.49	4.0320	4.0320	-0.6264	6.02	0.03	-0.750			
0.0311	1991.14	4.0290	4.0291	-0.6384	6.02	0.03	-0.750			
0.0331	2115.40	4.0260	4.0259	-0.6480	6.02	0.03	-0.750			
0.0350	2241.54	4.0230	4.0230	-0.6550	6.03	0.04	-0.750			
0.0369	2364.18	4.0200	4.0201	-0.6678	6.03	0.04	-0.750			
0.0390	2493.98	4.0170	4.0170	-0.6852	6.04	0.05	-0.750			
0.0410	2627.15	4.0140	4.0139	-0.7015	6.04	0.05	-0.750			
0.0432	2763.46	4.0110	4.0110	-0.7161	6.05	0.06	-0.750			
0.0454	2905.81	4.0080	4.0080	-0.7263	6.05	0.06	-0.750			
0.0476	3046.73	4.0050	4.0051	-0.7302	6.06	0.07	-0.750			
0.0498	3189.18	4.0020	4.0020	-0.7315	6.07	0.08	-0.750			
0.0520	3328.14	3.9990	3.9990	-0.7272	6.07	0.08	-0.750			
0.0542	3467.64	3.9960	3.9960	-0.7308	6.08	0.09	-0.750			
0.0564	3608.00	3.9930	3.9929	-0.7333	6.09	0.10	-0.750			
0.0586	3748.98	3.9900	3.9900	-0.7336	6.09	0.10	-0.750			
0.0608	3890.14	3.9870	3.9872	-0.7389	6.10	0.11	-0.750			
0.0630	4032.40	3.9840	3.9839	-0.7430	6.11	0.12	-0.750			
0.0652	4175.63	3.9810	3.9809	-0.7513	6.12	0.13	-0.750			
0.0675	4318.61	3.9780	3.9781	-0.7520	6.13	0.14	-0.750			
0.0698	4466.79	3.9750	3.9749	-0.7585	6.14	0.15	-0.750			
0.0721	4614.08	3.9720	3.9719	-0.7589	6.15	0.16	-0.750			
0.0744	4759.54	3.9690	3.9689	-0.7587	6.16	0.17	-0.750			
0.0766	4904.40	3.9660	3.9661	-0.7544	6.16	0.17	-0.750			
0.0789	5049.73	3.9630	3.9629	-0.7569	6.17	0.18	-0.750			
0.0811	5193.04	3.9600	3.9600	-0.7577	6.18	0.19	-0.750			
0.0835	5341.15	3.9570	3.9569	-0.7616	6.18	0.19	-0.750			
0.0857	5487.39	3.9540	3.9542	-0.7635	6.19	0.20	-0.750			
0.0881	5635.40	3.9510	3.9508	-0.7639	6.20	0.21	-0.750			
0.0903	5780.18	3.9480	3.9481	-0.7709	6.21	0.22	-0.750			
0.0926	5927.34	3.9450	3.9449	-0.7679	6.22	0.23	-0.750			
0.0950	6077.68	3.9420	3.9419	-0.7807	6.23	0.24	-0.750			
0.0973	6226.61	3.9390	3.9390	-0.7852	6.24	0.25	-0.750			
0.0997	6378.86	3.9360	3.9360	-0.7981	6.25	0.26	-0.750			
0.1021	6535.12	3.9330	3.9329	-0.8037	6.25	0.26	-0.750			
0.1046	6691.40	3.9300	3.9299	-0.8043	6.26	0.27	-0.750			
0.1070	6845.55	3.9270	3.9271	-0.8043	6.27	0.28	-0.750			
0.1094	7002.93	3.9240	3.9241	-0.8083	6.28	0.29	-0.750			
0.1118	7156.48	3.9210	3.9208	-0.8027	6.29	0.30	-0.750			
0.1142	7308.36	3.9180	3.9181	-0.8012	6.30	0.31	-0.750			
0.1166	7462.68	3.9150	3.9149	-0.7947	6.31	0.32	-0.750			
0.1190	7615.29	3.9120	3.9120	-0.7964	6.32	0.33	-0.750			
0.1214	7767.80	3.9090	3.9090	-0.8008	6.32	0.33	-0.750			
0.1237	7919.68	3.9060	3.9060	-0.8027	6.33	0.34	-0.750			
0.1262	8074.96	3.9030	3.9029	-0.8069	6.34	0.35	-0.750			
0.1286	8233.22	3.9000	3.9000	-0.8040	6.35	0.36	-0.750			
0.1311	8388.27	3.8970	3.8971	-0.8028	6.36	0.37	-0.750			
0.1335	8543.52	3.8940	3.8940	-0.8062	6.37	0.38	-0.750			
0.1359	8695.89	3.8910	3.8911	-0.8054	6.38	0.39	-0.750			
0.1383	8849.13	3.8880	3.8878	-0.8118	6.39	0.40	-0.750			
0.1407	9004.61	3.8850	3.8850	-0.8149	6.40	0.41	-0.750			
0.1432	9162.90	3.8820	3.8821	-0.8196	6.41	0.42	-0.750			
0.1457	9323.68	3.8790	3.8790	-0.8235	6.42	0.43	-0.750			
0.1482	9482.84	3.8760	3.8760	-0.8150	6.43	0.44	-0.750			
0.1506	9636.81	3.8730	3.8729	-0.8095	6.44	0.45	-0.750			
0.1530	9791.58	3.8700	3.8702	-0.8132	6.45	0.46	-0.750			
0.1554	9945.49	3.8670	3.8669	-0.8128	6.45	0.46	-0.750			
0.1579	10103.19	3.8640	3.8639	-0.8179	6.46	0.47	-0.750			
0.1603	10259.76	3.8610	3.8613	-0.8262	6.47	0.48	-0.750			
0.1628	10419.59	3.8580	3.8578	-0.8342	6.48	0.49	-0.750			
0.1653	10580.76	3.8550	3.8551	-0.8479	6.49	0.50	-0.750			
0.1679	10743.79	3.8520	3.8520	-0.8486	6.50	0.51	-0.750			
0.1705	10911.25	3.8490	3.8489	-0.8555	6.51	0.52	-0.750			
0.1731	11076.40	3.8460	3.8462	-0.8480	6.52	0.53	-0.750			
0.1756	11238.92	3.8430	3.8430	-0.8443	6.53	0.54	-0.750			
0.1781	11398.29	3.8400	3.8400	-0.8439	6.54	0.55	-0.750			
0.1806	11560.77	3.8370	3.8369	-0.8327	6.55	0.56	-0.750			
0.1831	11721.23	3.8340	3.8339	-0.8252	6.55	0.56	-0.750			
0.1856	11877.74	3.8310	3.8313	-0.8270	6.56	0.57	-0.750			
0.1881	12036.66	3.8280	3.8280	-0.8292	6.57	0.58	-0.750			
0.1905	12193.89	3.8250	3.8248	-0.8408	6.58	0.59	-0.750			
0.1930	12351.86	3.8220	3.8220	-0.8505	6.59	0.60	-0.750			
0.1956	12518.93	3.8190	3.8190	-0.8702	6.60	0.61	-0.750			
0.1983	12690.65	3.8160	3.8161	-0.8755	6.61	0.62	-0.750			
0.2010	12862.41	3.8130	3.8131	-0.8837	6.62	0.63	-0.750			
0.2036	13031.83	3.8100	3.8100	-0.8772	6.63	0.64	-0.750			
0.2063	13200.18	3.8070	3.8069	-0.8730	6.64	0.65	-0.750			
0.2088	13365.84	3.8040	3.8039	-0.8690	6.65	0.66	-0.750			
0.2114	13531.02	3.8010	3.8011	-0.8675	6.66	0.67	-0.750			
0.2141	13699.28	3.7980	3.7980	-0.8659	6.67	0.68	-0.750			
0.2167	13865.97	3.7950	3.7949	-0.8632	6.68	0.69	-0.750			
0.2192	14029.10	3.7920	3.7921	-0.8634	6.69	0.70	-0.750			
0.2218	14195.96	3.7890	3.7889	-0.8665	6.70	0.71	-0.750			
0.2244	14362.05	3.7860	3.7858	-0.8663	6.71	0.72	-0.750			
0.2270	14528.98	3.7830	3.7830	-0.8660	6.72	0.73	-0.750			
0.2296	14694.75	3.7800	3.7801	-0.8645	6.73	0.74	-0.750			
0.2322	14859.09	3.7770	3.7770	-0.8692	6.74	0.75	-0.750			
0.2348	15027.51	3.7740	3.7741	-0.8742	6.75	0.76	-0.750			
0.2374	15194.85	3.7710	3.7709	-0.8763	6.76	0.77	-0.750			
0.2401	15364.83	3.7680	3.7679	-0.8816	6.76	0.77	-0.750			
0.2427	15535.60	3.7650	3.7651	-0.8811	6.77	0.78	-0.750			
0.2454	15705.09	3.7620	3.7620	-0.8773	6.77	0.78	-0.750			
0.2480	15872.83	3.7590	3.7591	-0.8832	6.78	0.79	-0.750			
0.2506	16039.53	3.7560	3.7560	-0.8913	6.79	0.80	-0.750			
0.2533	16210.60	3.7530	3.7529	-0.8966	6.80	0.81	-0.750			
0.2560	16383.87	3.7500	3.7499	-0.9057	6.81	0.82	-0.750			
0.2588	16561.77	3.7470	3.7470	-0.9053	6.82	0.83	-0.750			
0.2615	16736.66	3.7440	3.7441	-0.9045	6.83	0.84	-0.750			
0.2642	16910.94	3.7410	3.7410	-0.9046	6.84	0.85	-0.750			
0.2669	17082.48	3.7380	3.7378	-0.8952	6.85	0.86	-0.750			
0.2695	17249.28	3.7350	3.7350	-0.8964	6.86	0.87	-0.750			
0.2722	17422.34	3.7320	3.7319	-0.9112	6.87	0.88	-0.750			
0.2749	17595.98	3.7290	3.7290	-0.9276	6.88	0.89	-0.750			
0.2778	17779.09	3.7260	3.7259	-0.9353	6.89	0.90	-0.750			
0.2806	17960.39	3.7230	3.7230	-0.9381	6.90	0.91	-0.750			
0.2835	18143.17	3.7200	3.7199	-0.9348	6.90	0.91	-0.750			
0.2863	18324.68	3.7170	3.7169	-0.9351	6.91	0.92	-0.750			
0.2891	18501.88	3.7140	3.7140	-0.9272	6.92	0.93	-0.750			
0.2918	18677.36	3.7110	3.7110	-0.9191	6.93	0.94	-0.750			
0.2945	18849.76	3.7080	3.7080	-0.9196	6.93	0.94	-0.750			
0.2973	19029.93	3.7050	3.7051	-0.9338	6.94	0.95	-0.750			
0.3001	19205.93	3.7020	3.7020	-0.9513	6.95	0.96	-0.750			
0.3030	19392.44	3.6990	3.6989	-0.9580	6.96	0.97	-0.750			
0.3059	19577.51	3.6960	3.6960	-0.9687	6.97	0.98	-0.750			
0.3088	19765.89	3.6930	3.6930	-0.9762	6.98	0.99	-0.750			
0.3118	19956.19	3.6900	3.6899	-0.9840	6.98	0.99	-0.750			
0.3147	20143.92	3.6870	3.6869	-0.9887	6.99	1.00	-0.750			
0.3177	20333.94	3.6840	3.6839	-0.9884	7.00	1.01	-0.750			
0.3207	20522.70	3.6810	3.6810	-0.9869	7.01	1.02	-0.750			
0.3237	20714.65	3.6780	3.6780	-1.0011	7.01	1.02	-0.750			
0.3267	20906.57	3.6750	3.6751	-1.0011	7.02	1.03	-0.750			
0.3297	21098.44	3.6720	3.6719	-1.0154	7.03	1.04	-0.750			
0.3327	21290.48	3.6690	3.6690	-1.0282	7.03	1.04	-0.750			
0.3358	21491.19	3.6660	3.6661	-1.0447	7.04	1.05	-0.750			
0.3390	21695.54	3.6630	3.6630	-1.0614	7.05	1.06	-0.750			
0.3422	21902.06	3.6600	3.6600	-1.0601	7.05	1.06	-0.750			
0.3454	22106.22	3.6570	3.6570	-1.0585	7.06	1.07	-0.750			
0.3486	22308.90	3.6540	3.6541	-1.0685	7.06	1.07	-0.750			
0.3518	22512.03	3.6510	3.6509	-1.0701	7.07	1.08	-0.750			
0.3549	22713.50	3.6480	3.6480	-1.0832	7.08	1.09	-0.750			
0.3582	22924.70	3.6450	3.6448	-1.0984	7.09	1.10	-0.750			
0.3615	23138.66	3.6420	3.6421	-1.1181	7.09	1.10	-0.750			
0.3650	23357.79	3.6390	3.6389	-1.1302	7.10	1.11	-0.750			
0.3684	23578.77	3.6360	3.6360	-1.1323	7.10	1.11	-0.750			
0.3718	23792.76	3.6330	3.6331	-1.1319	7.11	1.12	-0.750			
0.3752	24012.36	3.6300	3.6299	-1.1550	7.11	1.12	-0.750			
0.3786	24231.92	3.6270	3.6269	-1.1618	7.12	1.13	-0.750			
0.3822	24458.03	3.6240	3.6238	-1.1806	7.13	1.14	-0.750			
0.3857	24685.90	3.6210	3.6212	-1.1938	7.13	1.14	-0.750			
0.3894	24921.54	3.6180	3.6181	-1.2166	7.14	1.15	-0.750			
0.3930	25154.72	3.6150	3.6149	-1.2344	7.14	1.15	-0.750			
0.3967	25389.95	3.6120	3.6120	-1.2387	7.15	1.16	-0.750			
0.4005	25631.19	3.6090	3.6090	-1.2579	7.15	1.16	-0.750			
0.4043	25876.66	3.6060	3.6060	-1.2588	7.16	1.17	-0.750			
0.4081	26118.85	3.6030	3.6035	-1.2780	7.17	1.18	-0.750	0.430	0.976	
0.4119	26364.02	3.6000	3.6001	-1.2900	7.17	1.18	-0.750			
0.4158	26611.16	3.5970	3.5969	-1.3003	7.18	1.19	-0.750			
0.4197	26861.13	3.5940	3.5938	-1.3134	7.19	1.20	-0.750			
0.4237	27114.63	3.5910	3.5912	-1.3420	7.19	1.20	-0.750			
0.4278	27378.14	3.5880	3.5880	-1.3549	7.19	1.20	-0.750			
0.4320	27647.55	3.5850	3.5848	-1.3677	7.20	1.21	-0.750			
0.4360	27904.85	3.5820	3.5822	-1.3611	7.20	1.21	-0.750			
0.4401	28168.90	3.5790	3.5790	-1.3762	7.21	1.22	-0.750			
0.4442	28429.07	3.5760	3.5759	-1.3879	7.21	1.22	-0.750			
0.4484	28697.94	3.5730	3.5730	-1.4091	7.22	1.23	-0.750			
0.4527	28971.74	3.5700	3.5699	-1.4294	7.23	1.24	-0.750			
0.4570	29247.75	3.5670	3.5669	-1.4544	7.23	1.24	-0.750			
0.4615	29533.22	3.5640	3.5641	-1.4680	7.24	1.25	-0.750			
0.4659	29817.28	3.5610	3.5609	-1.4754	7.25	1.26	-0.750			
0.4703	30099.74	3.5580	3.5579	-1.4921	7.26	1.27	-0.750			
0.4748	30384.38	3.5550	3.5550	-1.4925	7.26	1.27	-0.750			
0.4793	30677.76	3.5520	3.5519	-1.5202	7.27	1.28	-0.750			
0.4839	30969.15	3.5490	3.5490	-1.5262	7.27	1.28	-0.750			
0.4885	31262.99	3.5460	3.5459	-1.5256	7.28	1.29	-0.750			
0.4931	31558.17	3.5430	3.5432	-1.5536	7.28	1.29	-0.750			
0.4977	31855.27	3.5400	3.5399	-1.5600	7.29	1.30	-0.750			
0.5024	32151.24	3.5370	3.5371	-1.5831	7.29	1.30	-0.750			
0.5072	32461.94	3.5340	3.5338	-1.6053	7.30	1.31	-0.750			
0.5121	32773.44	3.5310	3.5309	-1.6194	7.30	1.31	-0.750			
0.5170	33088.96	3.5280	3.5281	-1.6417	7.31	1.32	-0.750			
0.5220	33410.79	3.5250	3.5250	-1.6380	7.32	1.33	-0.750			
0.5269	33723.74	3.5220	3.5220	-1.6306	7.33	1.34	-0.750			
0.5318	34037.85	3.5190	3.5189	-1.6413	7.33	1.34	-0.750			
0.5367	34346.72	3.5160	3.5159	-1.6309	7.34	1.35	-0.750			
0.5416	34659.87	3.5130	3.5129	-1.6458	7.36	1.37	-0.750			
0.5465	34978.79	3.5100	3.5100	-1.6403	7.37	1.38	-0.750			
0.5515	35298.11	3.5070	3.5070	-1.6450	7.37	1.38	-0.750			
0.5565	35618.50	3.5040	3.5041	-1.6531	7.38	1.39	-0.750			
0.5615	35933.56	3.5010	3.5011	-1.6354	7.38	1.39	-0.750			
0.5663	36245.28	3.4980	3.4979	-1.6297	7.39	1.40	-0.750			
0.5712	36559.79	3.4950	3.4950	-1.6122	7.41	1.42	-0.750			
0.5760	36864.81	3.4920	3.4920	-1.6064	7.42	1.43	-0.750			
0.5809	37174.94	3.4890	3.4890	-1.6088	7.42	1.43	-0.750			
0.5856	37479.38	3.4860	3.4862	-1.5973	7.43	1.44	-0.750			
0.5904	37786.29	3.4830	3.4831	-1.5876	7.44	1.45	-0.750			
0.5953	38096.27	3.4800	3.4799	-1.5785	7.45	1.46	-0.750			
0.5999	38396.04	3.4770	3.4768	-1.5699	7.46	1.47	-0.750			
0.6047	38699.46	3.4740	3.4740	-1.5728	7.47	1.48	-0.750			
0.6094	38999.26	3.4710	3.4710	-1.5472	7.48	1.49	-0.750			
0.6140	39295.02	3.4680	3.4678	-1.5211	7.49	1.50	-0.750			
0.6185	39585.45	3.4650	3.4654	-1.4988	7.50	1.51	-0.750			
0.6231	39876.95	3.4620	3.4618	-1.4887	7.51	1.52	-0.750			
0.6275	40157.48	3.4590	3.4590	-1.4800	7.52	1.53	-0.750			
0.6318	40434.81	3.4560	3.4559	-1.4581	7.53	1.54	-0.750			
0.6362	40718.91	3.4530	3.4530	-1.4626	7.54	1.55	-0.750			
0.6406	40999.70	3.4500	3.4502	-1.4447	7.55	1.56	-0.750			
0.6450	41277.39	3.4470	3.4469	-1.4229	7.56	1.57	-0.750			
0.6492	41549.51	3.4440	3.4441	-1.3926	7.57	1.58	-0.750			
0.6534	41816.10	3.4410	3.4410	-1.3660	7.59	1.60	-0.750			
0.6574	42072.53	3.4380	3.4378	-1.3336	7.60	1.61	-0.750			
0.6613	42323.20	3.4350	3.4351	-1.2933	7.61	1.62	-0.750			
0.6652	42570.26	3.4320	3.4321	-1.2658	7.63	1.64	-0.750			
0.6689	42811.18	3.4290	3.4290	-1.2421	7.64	1.65	-0.750			
0.6726	43043.80	3.4260	3.4260	-1.2062	7.65	1.66	-0.750			
0.6762	43278.61	3.4230	3.4228	-1.1819	7.66	1.67	-0.750			
0.6797	43502.24	3.4200	3.4201	-1.1475	7.67	1.68	-0.750			
0.6831	43717.94	3.4170	3.4171	-1.1195	7.68	1.69	-0.750			
0.6864	43928.93	3.4140	3.4140	-1.1006	7.69	1.70	-0.750			
0.6897	44138.00	3.4110	3.4108	-1.0756	7.70	1.71	-0.750			
0.6928	44338.17	3.4080	3.4079	-1.0477	7.71	1.72	-0.750			
0.6959	44539.75	3.4050	3.4050	-1.0266	7.72	1.73	-0.750			
0.6990	44737.03	3.4020	3.4020	-1.0057	7.74	1.75	-0.750			
0.7020	44929.68	3.3990	3.3990	-0.9780	7.75	1.76	-0.750			
0.7049	45113.47	3.3960	3.3959	-0.9436	7.76	1.77	-0.750			
0.7077	45289.93	3.3930	3.3930	-0.9056	7.77	1.78	-0.750			
0.7104	45463.21	3.3900	3.3901	-0.8771	7.78	1.79	-0.750			
0.7129	45628.67	3.3870	3.3870	-0.8419	7.80	1.81	-0.750			
0.7154	45785.59	3.3840	3.3840	-0.8196	7.81	1.82	-0.750			
0.7178	45938.37	3.3810	3.3810	-0.7878	7.82	1.83	-0.750			
0.7201	46087.86	3.3780	3.3778	-0.7657	7.84	1.85	-0.750			
0.7224	46231.94	3.3750	3.3752	-0.7403	7.85	1.86	-0.750			
0.7246	46372.07	3.3720	3.3720	-0.7209	7.86	1.87	-0.750			
0.7267	46507.99	3.3690	3.3690	-0.6968	7.87	1.88	-0.750			
0.7287	46638.97	3.3660	3.3660	-0.6757	7.88	1.89	-0.750			
0.7307	46764.69	3.3630	3.3631	-0.6557	7.89	1.90	-0.750			
0.7327	46891.69	3.3600	3.3600	-0.6420	7.90	1.91	-0.750			
0.7346	47012.27	3.3570	3.3569	-0.6234	7.91	1.92	-0.750			
0.7364	47130.12	3.3540	3.3539	-0.6067	7.92	1.93	-0.750			
0.7382	47244.76	3.3510	3.3510	-0.5898	7.93	1.94	-0.750			
0.7400	47357.52	3.3480	3.3479	-0.5719	7.94	1.95	-0.750			
0.7416	47464.61	3.3450	3.3450	-0.5512	7.95	1.96	-0.750			
0.7433	47569.53	3.3420	3.3421	-0.5350	7.96	1.97	-0.750			
0.7449	47670.45	3.3390	3.3390	-0.5205	7.96	1.97	-0.750			
0.7464	47767.53	3.3360	3.3359	-0.5038	7.97	1.98	-0.750			
0.7479	47863.21	3.3330	3.3330	-0.4886	7.98	1.99	-0.750			
0.7493	47955.35	3.3300	3.3300	-0.4747	7.99	2.00	-0.750			
0.7507	48045.57	3.3270	3.3270	-0.4615	8.00	2.01	-0.750			
0.7521	48132.74	3.3240	3.3239	-0.4485	8.01	2.02	-0.750			
0.7534	48216.83	3.3210	3.3210	-0.4352	8.02	2.03	-0.750			
0.7547	48298.66	3.3180	3.3180	-0.4241	8.03	2.04	-0.750			
0.7559	48379.11	3.3150	3.3150	-0.4136	8.04	2.05	-0.750			
0.7572	48458.44	3.3120	3.3120	-0.4021	8.05	2.06	-0.750			
0.7583	48534.03	3.3090	3.3089	-0.3905	8.06	2.07	-0.750			
0.7595	48607.33	3.3060	3.3060	-0.3813	8.07	2.08	-0.750			
0.7606	48679.08	3.3030	3.3030	-0.3701	8.07	2.08	-0.750			
0.7617	48748.98	3.3000	3.2999	-0.3614	8.08	2.09	-0.750			
0.7628	48817.30	3.2970	3.2970	-0.3531	8.09	2.10	-0.750			
0.7638	48884.97	3.2940	3.2941	-0.3465	8.10	2.11	-0.750			
0.7649	48950.99	3.2910	3.2909	-0.3398	8.11	2.12	-0.750			
0.7659	49015.01	3.2880	3.2881	-0.3312	8.12	2.13	-0.750			
0.7668	49077.63	3.2850	3.2850	-0.3255	8.12	2.13	-0.750			
0.7678	49139.78	3.2820	3.2819	-0.3202	8.13	2.14	-0.750			
0.7688	49200.77	3.2790	3.2789	-0.3129	8.14	2.15	-0.750			
0.7697	49259.93	3.2760	3.2760	-0.3062	8.15	2.16	-0.750			
0.7706	49318.48	3.2730	3.2731	-0.2980	8.15	2.16	-0.750			
0.7715	49375.25	3.2700	3.2700	-0.2895	8.16	2.17	-0.750			
0.7723	49429.81	3.2670	3.2670	-0.2825	8.17	2.18	-0.750			
0.7732	49482.27	3.2640	3.2640	-0.2740	8.17	2.18	-0.750			
0.7740	49534.34	3.2610	3.2610	-0.2687	8.18	2.19	-0.750			
0.7748	49585.26	3.2580	3.2581	-0.2632	8.19	2.20	-0.750			
0.7755	49635.00	3.2550	3.2550	-0.2584	8.20	2.21	-0.750			
0.7763	49684.50	3.2520	3.2520	-0.2551	8.21	2.22	-0.750			
0.7771	49733.02	3.2490	3.2490	-0.2505	8.21	2.22	-0.750			
0.7778	49780.26	3.2460	3.2461	-0.2469	8.22	2.23	-0.750			
0.7786	49827.86	3.2430	3.2430	-0.2431	8.23	2.24	-0.750			
0.7793	49874.21	3.2400	3.2399	-0.2383	8.24	2.25	-0.750			
0.7800	49919.83	3.2370	3.2370	-0.2342	8.24	2.25	-0.750			
0.7807	49964.25	3.2340	3.2341	-0.2293	8.25	2.26	-0.750			
0.7814	50007.60	3.2310	3.2310	-0.2254	8.26	2.27	-0.750			
0.7820	50050.17	3.2280	3.2280	-0.2215	8.26	2.27	-0.750			
0.7827	50092.22	3.2250	3.2249	-0.2180	8.27	2.28	-0.750			
0.7833	50133.69	3.2220	3.2220	-0.2133	8.28	2.29	-0.750			
0.7840	50174.73	3.2190	3.2190	-0.2104	8.28	2.29	-0.750			
0.7846	50214.82	3.2160	3.2160	-0.2072	8.29	2.30	-0.750			
0.7852	50254.14	3.2130	3.2131	-0.2033	8.29	2.30	-0.750			
0.7858	50292.65	3.2100	3.2099	-0.1999	8.30	2.31	-0.750			
0.7864	50330.37	3.2070	3.2070	-0.1961	8.30	2.31	-0.750			
0.7870	50367.44	3.2040	3.2040	-0.1936	8.31	2.32	-0.750			
0.7876	50404.45	3.2010	3.2010	-0.1910	8.32	2.33	-0.750			
0.7881	50441.22	3.1980	3.1979	-0.1890	8.32	2.33	-0.750			
0.7887	50477.22	3.1950	3.1950	-0.1860	8.33	2.34	-0.750			
0.7893	50512.63	3.1920	3.1921	-0.1825	8.34	2.35	-0.750			
0.7898	50547.22	3.1890	3.1890	-0.1807	8.34	2.35	-0.750			
0.7903	50581.40	3.1860	3.1860	-0.1780	8.35	2.36	-0.750			
0.7909	50615.39	3.1830	3.1830	-0.1761	8.36	2.37	-0.750			
0.7914	50648.67	3.1800	3.1799	-0.1744	8.36	2.37	-0.750			
0.7919	50682.47	3.1770	3.1771	-0.1721	8.37	2.38	-0.750			
0.7924	50715.51	3.1740	3.1740	-0.1703	8.38	2.39	-0.750			
0.7929	50747.93	3.1710	3.1710	-0.1674	8.38	2.39	-0.750			
0.7934	50780.16	3.1680	3.1681	-0.1647	8.39	2.40	-0.750			
0.7939	50811.08	3.1650	3.1649	-0.1615	8.39	2.40	-0.750			
0.7944	50841.60	3.1620	3.1619	-0.1590	8.40	2.41	-0.750			
0.7949	50871.93	3.1590	3.1591	-0.1570	8.40	2.41	-0.750			
0.7953	50901.67	3.1560	3.1560	-0.1544	8.41	2.42	-0.750			
0.7958	50931.26	3.1530	3.1530	-0.1533	8.42	2.43	-0.750			
0.7963	50960.50	3.1500	3.1500	-0.1509	8.42	2.43	-0.750			
0.7967	50989.29	3.1470	3.1470	-0.1490	8.43	2.44	-0.750			
0.7972	51017.81	3.1440	3.1439	-0.1475	8.43	2.44	-0.750			
0.7976	51045.59	3.1410	3.1410	-0.1460	8.44	2.45	-0.750			
0.7980	51073.31	3.1380	3.1381	-0.1446	8.44	2.45	-0.750			
0.7985	51101.12	3.1350	3.1349	-0.1433	8.45	2.46	-0.750			
0.7989	51128.81	3.1320	3.1320	-0.1416	8.46	2.47	-0.750			
0.7993	51155.94	3.1290	3.1290	-0.1393	8.46	2.47	-0.750			
0.7997	51182.48	3.1260	3.1261	-0.1371	8.47	2.48	-0.750			
0.8001	51208.87	3.1230	3.1230	-0.1357	8.47	2.48	-0.750			
0.8005	51234.39	3.1200	3.1200	-0.1339	8.48	2.49	-0.750			
0.8009	51259.53	3.1170	3.1169	-0.1317	8.48	2.49	-0.750			
0.8013	51284.87	3.1140	3.1140	-0.1302	8.49	2.50	-0.750			
0.8017	51309.65	3.1110	3.1111	-0.1294	8.49	2.50	-0.750			
0.8021	51334.46	3.1080	3.1081	-0.1286	8.50	2.51	-0.750			
0.8025	51359.21	3.1050	3.1050	-0.1276	8.50	2.51	-0.750			
0.8029	51383.59	3.1020	3.1019	-0.1263	8.51	2.52	-0.750			
0.8032	51407.71	3.0990	3.0990	-0.1246	8.51	2.52	-0.750			
0.8036	51431.57	3.0960	3.0961	-0.1233	8.52	2.53	-0.750			
0.8040	51455.07	3.0930	3.0931	-0.1218	8.52	2.53	-0.750			
0.8044	51478.59	3.0900	3.0900	-0.1206	8.53	2.54	-0.750			
0.8047	51501.35	3.0870	3.0870	-0.1196	8.53	2.54	-0.750			
0.8051	51523.75	3.0840	3.0840	-0.1181	8.54	2.55	-0.750			
0.8054	51546.43	3.0810	3.0809	-0.1173	8.54	2.55	-0.750			
0.8058	51568.79	3.0780	3.0780	-0.1165	8.55	2.56	-0.750			
0.8061	51591.12	3.0750	3.0751	-0.1157	8.55	2.56	-0.750			
0.8065	51613.38	3.0720	3.0720	-0.1150	8.56	2.57	-0.750			
0.8068	51635.37	3.0690	3.0691	-0.1140	8.56	2.57	-0.750			
0.8071	51657.27	3.0660	3.0659	-0.1131	8.56	2.57	-0.750			
0.8075	51678.71	3.0630	3.0631	-0.1120	8.57	2.58	-0.750			
0.8078	51700.16	3.0600	3.0599	-0.1114	8.57	2.58	-0.750			
0.8082	51721.66	3.0570	3.0570	-0.1103	8.58	2.59	-0.750			
0.8085	51742.71	3.0540	3.0540	-0.1091	8.58	2.59	-0.750			
0.8088	51763.52	3.0510	3.0510	-0.1082	8.58	2.59	-0.750			
0.8091	51784.18	3.0480	3.0481	-0.1071	8.59	2.60	-0.750			
0.8094	51804.54	3.0450	3.0450	-0.1064	8.59	2.60	-0.750			
0.8098	51824.91	3.0420	3.0419	-0.1056	8.60	2.61	-0.750			
0.8101	51845.00	3.0390	3.0390	-0.1046	8.60	2.61	-0.750			
0.8104	51865.04	3.0360	3.0360	-0.1041	8.60	2.61	-0.750			
0.8107	51884.88	3.0330	3.0331	-0.1042	8.61	2.62	-0.750			
0.8110	51904.88	3.0300	3.0299	-0.1041	8.61	2.62	-0.750			
0.8113	51924.94	3.0270	3.0269	-0.1030	8.61	2.62	-0.750			
0.8116	51944.64	3.0240	3.0238	-0.1023	8.62	2.63	-0.750			
0.8119	51964.50	3.0210	3.0211	-0.1011	8.62	2.63	-0.750			
0.8122	51983.78	3.0180	3.0181	-0.0997	8.62	2.63	-0.750			
0.8125	52002.90	3.0150	3.0150	-0.0993	8.63	2.64	-0.750			
0.8128	52021.83	3.0120	3.0120	-0.0979	8.63	2.64	-0.750			
0.8131	52040.00	3.0090	3.0089	-0.0972	8.64	2.65	-0.750			
0.8134	52058.67	3.0060	3.0060	-0.0973	8.64	2.65	-0.750			
0.8137	52077.45	3.0030	3.0030	-0.0996	8.64	2.65	-0.750			
