Ah_balance (normalized)	Ah_balance (mAh)	Voltage - fit (V)	Voltage -  interpolate (V)	dQ/dV (1/V)	Temperature (°C)	Temperature - diff (°C)	Current (C)	R_DC 0ms (mOhm)	R_DC 50ms (mOhm)	R_DC 50 ms PEC (mOhm)
0.0000	0.00	4.1040	4.1267	0.0000	5.99	0.00	-0.749			
0.0002	10.46	4.1010	4.0989	-0.0276	5.99	0.00	-0.750			
0.0003	18.24	4.0980	4.0967	-0.0534	5.99	0.00	-0.750			
0.0005	30.08	4.0950	4.0944	-0.0798	5.99	0.00	-0.750			
0.0008	48.30	4.0920	4.0919	-0.1066	5.99	0.00	-0.750			
0.0011	72.47	4.0890	4.0889	-0.1304	5.99	0.00	-0.750			
0.0016	100.01	4.0860	4.0859	-0.1548	5.99	0.00	-0.750			
0.0021	132.02	4.0830	4.0832	-0.1808	5.99	0.00	-0.750			
0.0027	169.68	4.0800	4.0803	-0.2055	5.99	0.00	-0.750			
0.0033	211.70	4.0770	4.0769	-0.2279	5.99	0.00	-0.750			
0.0040	257.91	4.0740	4.0739	-0.2505	5.99	0.00	-0.750			
0.0048	307.94	4.0710	4.0711	-0.2718	5.99	0.00	-0.750			
0.0057	362.58	4.0680	4.0681	-0.2936	5.99	0.00	-0.750			
0.0066	421.68	4.0650	4.0650	-0.3130	5.99	0.00	-0.750			
0.0075	482.92	4.0620	4.0620	-0.3311	5.99	0.00	-0.750			
0.0086	548.18	4.0590	4.0591	-0.3536	5.99	0.00	-0.750			
0.0097	617.74	4.0560	4.0559	-0.3761	5.99	0.00	-0.750			
0.0108	691.84	4.0530	4.0530	-0.3973	5.99	0.00	-0.750			
0.0120	770.59	4.0500	4.0500	-0.4192	5.99	0.00	-0.750			
0.0133	853.01	4.0470	4.0471	-0.4442	5.99	0.00	-0.750			
0.0147	941.27	4.0440	4.0438	-0.4663	5.99	0.00	-0.750			
0.0161	1033.04	4.0410	4.0410	-0.4855	5.99	0.00	-0.750			
0.0176	1128.12	4.0380	4.0380	-0.5035	5.99	0.00	-0.750			
0.0192	1227.19	4.0350	4.0351	-0.5219	6.00	0.01	-0.750			
0.0207	1327.85	4.0320	4.0320	-0.5422	6.00	0.01	-0.750			
0.0224	1434.21	4.0290	4.0289	-0.5624	6.00	0.01	-0.750			
0.0241	1544.82	4.0260	4.0260	-0.5739	6.00	0.01	-0.750			
0.0259	1658.18	4.0230	4.0229	-0.5865	6.01	0.02	-0.750			
0.0277	1773.52	4.0200	4.0204	-0.6010	6.01	0.02	-0.750			
0.0295	1890.11	4.0170	4.0171	-0.6087	6.01	0.02	-0.750			
0.0314	2007.16	4.0140	4.0138	-0.6163	6.02	0.03	-0.750			
0.0332	2125.15	4.0110	4.0110	-0.6242	6.02	0.03	-0.750			
0.0351	2245.32	4.0080	4.0081	-0.6330	6.02	0.03	-0.750			
0.0370	2368.78	4.0050	4.0050	-0.6423	6.02	0.03	-0.750			
0.0390	2494.27	4.0020	4.0019	-0.6512	6.03	0.04	-0.750			
0.0409	2618.73	3.9990	3.9991	-0.6573	6.03	0.04	-0.750			
0.0429	2745.27	3.9960	3.9960	-0.6675	6.04	0.05	-0.750			
0.0449	2873.27	3.9930	3.9931	-0.6802	6.05	0.06	-0.750			
0.0470	3005.44	3.9900	3.9899	-0.6859	6.05	0.06	-0.750			
0.0491	3139.98	3.9870	3.9869	-0.6898	6.06	0.07	-0.750			
0.0512	3275.15	3.9840	3.9840	-0.6919	6.07	0.08	-0.750			
0.0532	3407.75	3.9810	3.9811	-0.6886	6.07	0.08	-0.750			
0.0553	3537.08	3.9780	3.9783	-0.6925	6.08	0.09	-0.750			
0.0573	3668.84	3.9750	3.9750	-0.6990	6.08	0.09	-0.750			
0.0594	3801.63	3.9720	3.9719	-0.7008	6.09	0.10	-0.750			
0.0615	3939.03	3.9690	3.9689	-0.7144	6.10	0.11	-0.750			
0.0638	4080.05	3.9660	3.9662	-0.7179	6.11	0.12	-0.750			
0.0659	4217.72	3.9630	3.9631	-0.7179	6.11	0.12	-0.750			
0.0681	4355.41	3.9600	3.9601	-0.7208	6.12	0.13	-0.750			
0.0702	4492.01	3.9570	3.9569	-0.7215	6.13	0.14	-0.750			
0.0723	4629.32	3.9540	3.9539	-0.7229	6.13	0.14	-0.750			
0.0745	4768.80	3.9510	3.9510	-0.7338	6.14	0.15	-0.750			
0.0767	4910.99	3.9480	3.9480	-0.7381	6.15	0.16	-0.750			
0.0790	5054.74	3.9450	3.9449	-0.7456	6.16	0.17	-0.750			
0.0812	5198.39	3.9420	3.9420	-0.7444	6.16	0.17	-0.750			
0.0835	5341.98	3.9390	3.9390	-0.7479	6.17	0.18	-0.750			
0.0858	5488.56	3.9360	3.9359	-0.7395	6.18	0.19	-0.750			
0.0880	5630.57	3.9330	3.9330	-0.7328	6.19	0.20	-0.750			
0.0901	5767.14	3.9300	3.9303	-0.7346	6.20	0.21	-0.750			
0.0923	5907.29	3.9270	3.9270	-0.7418	6.21	0.22	-0.750			
0.0945	6046.00	3.9240	3.9237	-0.7468	6.21	0.22	-0.750			
0.0968	6192.02	3.9210	3.9210	-0.7537	6.22	0.23	-0.750			
0.0991	6340.66	3.9180	3.9181	-0.7661	6.23	0.24	-0.750			
0.1014	6489.49	3.9150	3.9149	-0.7692	6.24	0.25	-0.750			
0.1037	6637.14	3.9120	3.9120	-0.7699	6.24	0.25	-0.750			
0.1060	6783.58	3.9090	3.9089	-0.7658	6.25	0.26	-0.750			
0.1083	6929.44	3.9060	3.9058	-0.7652	6.26	0.27	-0.750			
0.1106	7076.52	3.9030	3.9031	-0.7625	6.27	0.28	-0.750			
0.1129	7225.60	3.9000	3.9001	-0.7710	6.28	0.29	-0.750			
0.1152	7375.36	3.8970	3.8968	-0.7663	6.29	0.30	-0.750			
0.1175	7522.21	3.8940	3.8939	-0.7635	6.30	0.31	-0.750			
0.1198	7665.43	3.8910	3.8911	-0.7638	6.31	0.32	-0.750			
0.1221	7812.76	3.8880	3.8880	-0.7686	6.32	0.33	-0.750			
0.1244	7960.89	3.8850	3.8850	-0.7711	6.33	0.34	-0.750			
0.1267	8107.63	3.8820	3.8819	-0.7793	6.34	0.35	-0.750			
0.1290	8258.21	3.8790	3.8789	-0.7789	6.35	0.36	-0.750			
0.1314	8409.22	3.8760	3.8759	-0.7909	6.35	0.36	-0.750			
0.1338	8561.35	3.8730	3.8730	-0.7912	6.36	0.37	-0.750			
0.1362	8713.61	3.8700	3.8700	-0.7897	6.37	0.38	-0.750			
0.1386	8867.61	3.8670	3.8669	-0.7918	6.38	0.39	-0.750			
0.1409	9019.26	3.8640	3.8643	-0.7911	6.39	0.40	-0.750			
0.1433	9169.62	3.8610	3.8610	-0.7864	6.40	0.41	-0.750			
0.1457	9322.42	3.8580	3.8578	-0.7887	6.41	0.42	-0.750			
0.1480	9470.38	3.8550	3.8551	-0.7853	6.42	0.43	-0.750			
0.1504	9622.80	3.8520	3.8521	-0.7938	6.43	0.44	-0.750			
0.1528	9777.88	3.8490	3.8489	-0.7943	6.44	0.45	-0.750			
0.1552	9930.49	3.8460	3.8459	-0.7909	6.45	0.46	-0.750			
0.1575	10080.90	3.8430	3.8432	-0.7907	6.46	0.47	-0.750			
0.1599	10232.53	3.8400	3.8400	-0.7931	6.47	0.48	-0.750			
0.1623	10386.17	3.8370	3.8369	-0.7948	6.49	0.50	-0.750			
0.1646	10536.22	3.8340	3.8341	-0.7943	6.50	0.51	-0.750			
0.1670	10689.37	3.8310	3.8310	-0.7988	6.51	0.52	-0.750			
0.1695	10844.83	3.8280	3.8280	-0.8085	6.51	0.52	-0.750			
0.1719	11001.03	3.8250	3.8249	-0.8052	6.52	0.53	-0.750			
0.1743	11155.74	3.8220	3.8221	-0.7992	6.53	0.54	-0.750			
0.1767	11309.74	3.8190	3.8190	-0.8008	6.54	0.55	-0.750			
0.1791	11462.99	3.8160	3.8160	-0.8022	6.55	0.56	-0.750			
0.1815	11613.44	3.8130	3.8129	-0.8062	6.56	0.57	-0.750			
0.1839	11769.29	3.8100	3.8099	-0.8115	6.57	0.58	-0.750			
0.1863	11925.10	3.8070	3.8070	-0.8215	6.58	0.59	-0.750			
0.1889	12087.22	3.8040	3.8040	-0.8259	6.59	0.60	-0.750			
0.1914	12250.01	3.8010	3.8009	-0.8245	6.61	0.62	-0.750			
0.1939	12406.82	3.7980	3.7980	-0.8182	6.62	0.63	-0.750			
0.1963	12562.74	3.7950	3.7951	-0.8105	6.63	0.64	-0.750			
0.1987	12716.05	3.7920	3.7919	-0.8030	6.64	0.65	-0.750			
0.2011	12868.47	3.7890	3.7889	-0.8091	6.65	0.66	-0.750			
0.2034	13019.59	3.7860	3.7861	-0.8125	6.66	0.67	-0.750			
0.2059	13177.74	3.7830	3.7830	-0.8267	6.67	0.68	-0.750			
0.2085	13341.82	3.7800	3.7799	-0.8311	6.68	0.69	-0.750			
0.2109	13500.57	3.7770	3.7771	-0.8333	6.69	0.70	-0.750			
0.2135	13663.75	3.7740	3.7741	-0.8390	6.70	0.71	-0.750			
0.2160	13825.40	3.7710	3.7708	-0.8353	6.71	0.72	-0.750			
0.2185	13982.75	3.7680	3.7680	-0.8377	6.72	0.73	-0.750			
0.2210	14141.53	3.7650	3.7652	-0.8373	6.73	0.74	-0.750			
0.2235	14304.41	3.7620	3.7619	-0.8457	6.74	0.75	-0.750			
0.2261	14470.04	3.7590	3.7589	-0.8509	6.75	0.76	-0.750			
0.2286	14632.86	3.7560	3.7561	-0.8396	6.76	0.77	-0.750			
0.2312	14794.07	3.7530	3.7530	-0.8380	6.78	0.79	-0.750			
0.2337	14954.41	3.7500	3.7501	-0.8361	6.79	0.80	-0.750			
0.2361	15111.72	3.7470	3.7471	-0.8279	6.80	0.81	-0.750			
0.2386	15271.67	3.7440	3.7438	-0.8313	6.81	0.82	-0.750			
0.2411	15430.25	3.7410	3.7411	-0.8340	6.82	0.83	-0.750			
0.2436	15591.14	3.7380	3.7380	-0.8491	6.83	0.84	-0.750			
0.2462	15756.77	3.7350	3.7350	-0.8640	6.84	0.85	-0.750			
0.2488	15922.70	3.7320	3.7318	-0.8612	6.85	0.86	-0.750			
0.2514	16090.29	3.7290	3.7290	-0.8692	6.86	0.87	-0.750			
0.2540	16258.85	3.7260	3.7258	-0.8746	6.87	0.88	-0.750			
0.2567	16426.50	3.7230	3.7230	-0.8774	6.88	0.89	-0.750			
0.2593	16595.62	3.7200	3.7199	-0.8715	6.89	0.90	-0.750			
0.2619	16761.27	3.7170	3.7170	-0.8681	6.90	0.91	-0.750			
0.2645	16930.29	3.7140	3.7140	-0.8822	6.91	0.92	-0.750			
0.2672	17098.42	3.7110	3.7110	-0.8909	6.92	0.93	-0.750			
0.2698	17268.70	3.7080	3.7079	-0.8954	6.93	0.94	-0.750			
0.2725	17442.84	3.7050	3.7049	-0.8898	6.94	0.95	-0.750			
0.2752	17614.26	3.7020	3.7021	-0.8892	6.95	0.96	-0.750			
0.2779	17788.03	3.6990	3.6993	-0.8945	6.96	0.97	-0.750			
0.2806	17956.29	3.6960	3.6959	-0.8930	6.97	0.98	-0.750			
0.2832	18121.73	3.6930	3.6930	-0.8962	6.98	0.99	-0.750			
0.2859	18294.67	3.6900	3.6898	-0.9133	6.99	1.00	-0.750			
0.2887	18473.92	3.6870	3.6870	-0.9286	7.00	1.01	-0.750			
0.2915	18656.68	3.6840	3.6841	-0.9423	7.01	1.02	-0.750			
0.2944	18840.99	3.6810	3.6810	-0.9540	7.02	1.03	-0.750			
0.2973	19027.38	3.6780	3.6780	-0.9513	7.03	1.04	-0.750			
0.3001	19208.28	3.6750	3.6749	-0.9466	7.04	1.05	-0.750			
0.3029	19388.31	3.6720	3.6723	-0.9510	7.05	1.06	-0.750			
0.3058	19569.28	3.6690	3.6690	-0.9559	7.06	1.07	-0.750			
0.3086	19752.28	3.6660	3.6659	-0.9644	7.07	1.08	-0.750			
0.3115	19936.12	3.6630	3.6630	-0.9751	7.08	1.09	-0.750			
0.3145	20126.69	3.6600	3.6600	-0.9928	7.09	1.10	-0.750			
0.3175	20320.08	3.6570	3.6570	-1.0020	7.10	1.11	-0.750			
0.3205	20514.51	3.6540	3.6539	-1.0101	7.10	1.11	-0.750			
0.3236	20710.77	3.6510	3.6511	-1.0068	7.11	1.12	-0.750			
0.3267	20905.78	3.6480	3.6479	-1.0015	7.12	1.13	-0.750			
0.3296	21096.52	3.6450	3.6450	-1.0054	7.13	1.14	-0.750			
0.3326	21287.32	3.6420	3.6420	-1.0117	7.14	1.15	-0.750			
0.3356	21477.56	3.6390	3.6390	-1.0243	7.15	1.16	-0.750			
0.3387	21676.21	3.6360	3.6360	-1.0345	7.16	1.17	-0.750			
0.3418	21875.71	3.6330	3.6330	-1.0582	7.17	1.18	-0.750			
0.3451	22084.63	3.6300	3.6300	-1.0777	7.18	1.19	-0.750			
0.3484	22296.99	3.6270	3.6269	-1.0858	7.19	1.20	-0.750			
0.3516	22504.04	3.6240	3.6240	-1.0834	7.20	1.21	-0.750			
0.3549	22714.79	3.6210	3.6211	-1.0886	7.21	1.22	-0.750			
0.3581	22921.47	3.6180	3.6180	-1.0924	7.21	1.22	-0.750			
0.3614	23131.67	3.6150	3.6149	-1.1056	7.22	1.23	-0.750			
0.3647	23340.15	3.6120	3.6122	-1.1113	7.23	1.24	-0.750			
0.3681	23559.13	3.6090	3.6089	-1.1292	7.24	1.25	-0.750			
0.3715	23778.23	3.6060	3.6060	-1.1380	7.25	1.26	-0.750			
0.3750	23996.93	3.6030	3.6030	-1.1481	7.25	1.26	-0.750			
0.3784	24219.79	3.6000	3.6000	-1.1656	7.26	1.27	-0.750			
0.3820	24447.93	3.5970	3.5969	-1.1683	7.27	1.28	-0.750			
0.3855	24673.90	3.5940	3.5939	-1.1709	7.28	1.29	-0.750			
0.3891	24899.71	3.5910	3.5911	-1.1701	7.29	1.30	-0.750	0.415	0.888	
0.3926	25127.38	3.5880	3.5879	-1.1872	7.30	1.31	-0.750			
0.3961	25350.23	3.5850	3.5849	-1.1955	7.30	1.31	-0.750			
0.3996	25574.52	3.5820	3.5819	-1.2061	7.31	1.32	-0.750			
0.4033	25810.74	3.5790	3.5792	-1.2304	7.32	1.33	-0.750			
0.4071	26054.10	3.5760	3.5759	-1.2521	7.33	1.34	-0.750			
0.4109	26295.77	3.5730	3.5731	-1.2597	7.34	1.35	-0.750			
0.4147	26539.69	3.5700	3.5699	-1.2664	7.35	1.36	-0.750			
0.4185	26784.90	3.5670	3.5669	-1.2712	7.36	1.37	-0.750			
0.4223	27028.18	3.5640	3.5640	-1.2701	7.37	1.38	-0.750			
0.4261	27267.71	3.5610	3.5610	-1.2832	7.38	1.39	-0.750			
0.4299	27515.75	3.5580	3.5580	-1.2883	7.39	1.40	-0.750			
0.4338	27764.71	3.5550	3.5549	-1.3016	7.39	1.40	-0.750			
0.4377	28013.14	3.5520	3.5520	-1.3220	7.40	1.41	-0.750			
0.4418	28272.14	3.5490	3.5489	-1.3305	7.42	1.43	-0.750			
0.4458	28529.99	3.5460	3.5459	-1.3402	7.43	1.44	-0.750			
0.4498	28787.00	3.5430	3.5430	-1.3534	7.44	1.45	-0.750			
0.4539	29047.45	3.5400	3.5401	-1.3528	7.45	1.46	-0.750			
0.4580	29312.05	3.5370	3.5368	-1.3602	7.46	1.47	-0.750			
0.4621	29571.60	3.5340	3.5340	-1.3529	7.47	1.48	-0.750			
0.4661	29829.88	3.5310	3.5311	-1.3576	7.48	1.49	-0.750			
0.4702	30094.99	3.5280	3.5280	-1.3638	7.49	1.50	-0.750			
0.4743	30355.91	3.5250	3.5249	-1.3570	7.50	1.51	-0.750			
0.4784	30616.30	3.5220	3.5222	-1.3668	7.51	1.52	-0.750			
0.4825	30882.56	3.5190	3.5189	-1.3681	7.52	1.53	-0.750			
0.4866	31144.58	3.5160	3.5159	-1.3593	7.53	1.54	-0.750			
0.4907	31403.45	3.5130	3.5133	-1.3692	7.54	1.55	-0.750			
0.4948	31668.37	3.5100	3.5099	-1.3692	7.55	1.56	-0.750			
0.4989	31929.38	3.5070	3.5069	-1.3702	7.56	1.57	-0.750			
0.5030	32190.17	3.5040	3.5042	-1.3742	7.57	1.58	-0.750			
0.5072	32461.25	3.5010	3.5009	-1.3773	7.58	1.59	-0.750			
0.5113	32725.36	3.4980	3.4979	-1.3645	7.59	1.60	-0.750			
0.5154	32984.69	3.4950	3.4952	-1.3650	7.60	1.61	-0.750			
0.5194	33243.78	3.4920	3.4919	-1.3662	7.61	1.62	-0.750			
0.5236	33509.57	3.4890	3.4889	-1.3607	7.62	1.63	-0.750			
0.5276	33768.12	3.4860	3.4861	-1.3506	7.63	1.64	-0.750			
0.5317	34030.92	3.4830	3.4830	-1.3492	7.64	1.65	-0.750			
0.5358	34289.78	3.4800	3.4801	-1.3481	7.65	1.66	-0.750			
0.5398	34544.64	3.4770	3.4770	-1.3407	7.66	1.67	-0.750			
0.5438	34800.91	3.4740	3.4739	-1.3290	7.67	1.68	-0.750			
0.5477	35055.48	3.4710	3.4710	-1.3230	7.68	1.69	-0.750			
0.5518	35312.26	3.4680	3.4681	-1.3264	7.70	1.71	-0.750			
0.5557	35565.26	3.4650	3.4650	-1.3089	7.71	1.72	-0.750			
0.5597	35818.01	3.4620	3.4619	-1.2987	7.72	1.73	-0.750			
0.5635	36063.56	3.4590	3.4590	-1.2852	7.73	1.74	-0.750			
0.5673	36308.38	3.4560	3.4560	-1.2719	7.74	1.75	-0.750			
0.5711	36553.01	3.4530	3.4530	-1.2692	7.74	1.75	-0.750			
0.5749	36794.66	3.4500	3.4500	-1.2530	7.75	1.76	-0.750			
0.5787	37034.81	3.4470	3.4471	-1.2415	7.76	1.77	-0.750			
0.5824	37273.32	3.4440	3.4440	-1.2337	7.78	1.79	-0.750			
0.5861	37508.45	3.4410	3.4410	-1.2247	7.79	1.80	-0.750			
0.5897	37742.49	3.4380	3.4379	-1.2136	7.80	1.81	-0.750			
0.5934	37975.86	3.4350	3.4349	-1.2098	7.81	1.82	-0.750			
0.5970	38208.09	3.4320	3.4319	-1.1936	7.83	1.84	-0.750			
0.6006	38438.93	3.4290	3.4290	-1.1766	7.84	1.85	-0.750			
0.6041	38663.89	3.4260	3.4260	-1.1630	7.85	1.86	-0.750			
0.6075	38882.97	3.4230	3.4230	-1.1349	7.87	1.88	-0.750			
0.6109	39097.89	3.4200	3.4199	-1.1159	7.88	1.89	-0.750			
0.6142	39306.33	3.4170	3.4170	-1.0900	7.89	1.90	-0.750			
0.6175	39517.51	3.4140	3.4140	-1.0845	7.90	1.91	-0.750			
0.6207	39727.41	3.4110	3.4109	-1.0621	7.91	1.92	-0.750			
0.6239	39928.32	3.4080	3.4080	-1.0416	7.92	1.93	-0.750			
0.6270	40126.27	3.4050	3.4052	-1.0159	7.94	1.95	-0.750			
0.6300	40319.22	3.4020	3.4019	-0.9907	7.95	1.96	-0.750			
0.6329	40504.75	3.3990	3.3990	-0.9693	7.96	1.97	-0.750			
0.6358	40688.48	3.3960	3.3961	-0.9423	7.97	1.98	-0.750			
0.6385	40866.59	3.3930	3.3928	-0.9223	7.98	1.99	-0.750			
0.6413	41044.98	3.3900	3.3901	-0.9101	8.00	2.01	-0.750			
0.6440	41214.74	3.3870	3.3871	-0.8897	8.01	2.02	-0.750			
0.6466	41384.51	3.3840	3.3839	-0.8782	8.02	2.03	-0.750			
0.6492	41550.97	3.3810	3.3810	-0.8542	8.03	2.04	-0.750			
0.6518	41714.43	3.3780	3.3780	-0.8406	8.05	2.06	-0.750			
0.6543	41876.83	3.3750	3.3750	-0.8293	8.06	2.07	-0.750			
0.6568	42032.54	3.3720	3.3720	-0.8076	8.07	2.08	-0.750			
0.6592	42186.65	3.3690	3.3690	-0.7853	8.08	2.09	-0.750			
0.6615	42335.17	3.3660	3.3660	-0.7626	8.09	2.10	-0.750			
0.6637	42479.07	3.3630	3.3629	-0.7434	8.10	2.11	-0.750			
0.6660	42621.34	3.3600	3.3600	-0.7235	8.11	2.12	-0.750			
0.6681	42755.83	3.3570	3.3570	-0.7043	8.12	2.13	-0.750			
0.6701	42888.35	3.3540	3.3540	-0.6883	8.13	2.14	-0.750			
0.6722	43017.86	3.3510	3.3511	-0.6731	8.14	2.15	-0.750			
0.6742	43147.61	3.3480	3.3480	-0.6621	8.15	2.16	-0.750			
0.6762	43274.16	3.3450	3.3450	-0.6457	8.16	2.17	-0.750			
0.6781	43396.29	3.3420	3.3421	-0.6307	8.17	2.18	-0.750			
0.6800	43517.05	3.3390	3.3389	-0.6158	8.19	2.20	-0.750			
0.6817	43631.58	3.3360	3.3360	-0.6021	8.20	2.21	-0.750			
0.6835	43746.25	3.3330	3.3330	-0.5871	8.21	2.22	-0.750			
0.6853	43857.66	3.3300	3.3300	-0.5730	8.22	2.23	-0.750			
0.6870	43966.77	3.3270	3.3271	-0.5606	8.24	2.25	-0.750			
0.6887	44073.72	3.3240	3.3240	-0.5469	8.25	2.26	-0.750			
0.6903	44176.36	3.3210	3.3210	-0.5328	8.26	2.27	-0.750			
0.6918	44276.78	3.3180	3.3180	-0.5209	8.27	2.28	-0.750			
0.6934	44374.86	3.3150	3.3150	-0.5078	8.28	2.29	-0.750			
0.6949	44472.61	3.3120	3.3120	-0.4994	8.29	2.30	-0.750			
0.6964	44567.36	3.3090	3.3089	-0.4862	8.30	2.31	-0.750			
0.6978	44658.54	3.3060	3.3061	-0.4796	8.31	2.32	-0.750			
0.6992	44749.98	3.3030	3.3029	-0.4709	8.33	2.34	-0.750			
0.7006	44839.53	3.3000	3.2999	-0.4596	8.34	2.35	-0.750			
0.7020	44926.86	3.2970	3.2970	-0.4503	8.35	2.36	-0.750			
0.7033	45013.03	3.2940	3.2940	-0.4412	8.35	2.36	-0.750			
0.7046	45096.74	3.2910	3.2910	-0.4350	8.36	2.37	-0.750			
0.7059	45178.86	3.2880	3.2880	-0.4282	8.37	2.38	-0.750			
0.7072	45259.13	3.2850	3.2850	-0.4199	8.38	2.39	-0.750			
0.7084	45340.42	3.2820	3.2820	-0.4157	8.39	2.40	-0.750			
0.7097	45420.59	3.2790	3.2790	-0.4090	8.40	2.41	-0.750			
0.7109	45497.98	3.2760	3.2761	-0.4007	8.41	2.42	-0.750			
0.7121	45574.62	3.2730	3.2730	-0.3928	8.42	2.43	-0.750			
0.7133	45648.13	3.2700	3.2699	-0.3850	8.43	2.44	-0.750			
0.7144	45720.65	3.2670	3.2670	-0.3781	8.43	2.44	-0.750			
0.7155	45793.07	3.2640	3.2640	-0.3734	8.44	2.45	-0.750			
0.7166	45865.05	3.2610	3.2609	-0.3681	8.45	2.46	-0.750			
0.7177	45935.71	3.2580	3.2580	-0.3595	8.47	2.48	-0.750			
0.7188	46004.26	3.2550	3.2551	-0.3499	8.48	2.49	-0.750			
0.7198	46070.05	3.2520	3.2520	-0.3441	8.49	2.50	-0.750			
0.7209	46134.85	3.2490	3.2491	-0.3375	8.50	2.51	-0.750			
0.7218	46198.12	3.2460	3.2459	-0.3318	8.51	2.52	-0.750			
0.7228	46260.94	3.2430	3.2430	-0.3288	8.51	2.52	-0.750			
0.7238	46324.26	3.2400	3.2401	-0.3252	8.52	2.53	-0.750			
0.7248	46386.49	3.2370	3.2371	-0.3222	8.53	2.54	-0.750			
0.7258	46448.63	3.2340	3.2340	-0.3187	8.54	2.55	-0.750			
0.7267	46509.03	3.2310	3.2309	-0.3131	8.55	2.56	-0.750			
0.7276	46568.75	3.2280	3.2279	-0.3086	8.56	2.57	-0.750			
0.7286	46627.70	3.2250	3.2251	-0.3032	8.57	2.58	-0.750			
0.7295	46685.40	3.2220	3.2221	-0.2982	8.58	2.59	-0.750			
0.7303	46742.35	3.2190	3.2190	-0.2932	8.59	2.60	-0.750			
0.7312	46797.42	3.2160	3.2159	-0.2896	8.60	2.61	-0.750			
0.7321	46852.28	3.2130	3.2131	-0.2851	8.61	2.62	-0.750			
0.7329	46906.78	3.2100	3.2098	-0.2813	8.62	2.63	-0.750			
0.7338	46960.49	3.2070	3.2071	-0.2792	8.63	2.64	-0.750			
0.7346	47013.94	3.2040	3.2041	-0.2770	8.64	2.65	-0.750			
0.7354	47066.88	3.2010	3.2008	-0.2734	8.65	2.66	-0.750			
0.7362	47119.50	3.1980	3.1979	-0.2692	8.65	2.66	-0.750			
0.7370	47170.24	3.1950	3.1950	-0.2632	8.66	2.67	-0.750			
0.7378	47220.96	3.1920	3.1922	-0.2617	8.67	2.68	-0.750			
0.7386	47270.47	3.1890	3.1890	-0.2576	8.68	2.69	-0.750			
0.7394	47319.46	3.1860	3.1859	-0.2523	8.68	2.69	-0.750			
0.7401	47367.03	3.1830	3.1830	-0.2496	8.69	2.70	-0.750			
0.7409	47414.63	3.1800	3.1801	-0.2498	8.70	2.71	-0.750			
0.7416	47462.44	3.1770	3.1770	-0.2487	8.71	2.72	-0.750			
0.7423	47510.34	3.1740	3.1739	-0.2462	8.72	2.73	-0.750			
0.7431	47557.22	3.1710	3.1712	-0.2439	8.73	2.74	-0.750			
0.7438	47604.23	3.1680	3.1681	-0.2411	8.74	2.75	-0.750			
0.7445	47650.84	3.1650	3.1650	-0.2383	8.74	2.75	-0.750			
0.7453	47696.47	3.1620	3.1620	-0.2338	8.75	2.76	-0.750			
0.7459	47740.35	3.1590	3.1591	-0.2306	8.76	2.77	-0.750			
0.7466	47784.34	3.1560	3.1560	-0.2299	8.77	2.78	-0.750			
0.7473	47828.50	3.1530	3.1528	-0.2271	8.78	2.79	-0.750			
0.7480	47872.04	3.1500	3.1500	-0.2255	8.79	2.80	-0.750			
0.7487	47914.88	3.1470	3.1470	-0.2231	8.80	2.81	-0.750			
0.7493	47957.85	3.1440	3.1441	-0.2218	8.80	2.81	-0.750			
0.7500	48000.11	3.1410	3.1409	-0.2206	8.81	2.82	-0.750			
0.7507	48042.50	3.1380	3.1379	-0.2181	8.82	2.83	-0.750			
0.7513	48083.89	3.1350	3.1350	-0.2156	8.83	2.84	-0.750			
0.7520	48124.99	3.1320	3.1321	-0.2137	8.83	2.84	-0.750			
0.7526	48166.41	3.1290	3.1292	-0.2124	8.84	2.85	-0.750			
0.7532	48206.64	3.1260	3.1259	-0.2101	8.85	2.86	-0.750			
0.7539	48246.77	3.1230	3.1230	-0.2084	8.86	2.87	-0.750			
0.7545	48286.42	3.1200	3.1200	-0.2066	8.86	2.87	-0.750			
0.7551	48325.87	3.1170	3.1169	-0.2038	8.87	2.88	-0.750			
0.7557	48365.13	3.1140	3.1140	-0.2029	8.88	2.89	-0.750			
0.7563	48403.50	3.1110	3.1111	-0.2013	8.89	2.90	-0.750			
0.7569	48442.03	3.1080	3.1079	-0.2001	8.90	2.91	-0.750			
0.7575	48480.34	3.1050	3.1049	-0.1977	8.91	2.92	-0.750			
0.7581	48518.25	3.1020	3.1020	-0.1951	8.91	2.92	-0.750			
0.7587	48555.53	3.0990	3.0992	-0.1936	8.92	2.93	-0.750			
0.7593	48592.32	3.0960	3.0960	-0.1920	8.93	2.94	-0.750			
0.7598	48629.23	3.0930	3.0929	-0.1903	8.94	2.95	-0.750			
0.7604	48665.18	3.0900	3.0899	-0.1881	8.94	2.95	-0.750			
0.7610	48700.83	3.0870	3.0870	-0.1866	8.95	2.96	-0.750			
0.7615	48736.73	3.0840	3.0840	-0.1858	8.96	2.97	-0.750			
0.7621	48772.63	3.0810	3.0811	-0.1853	8.97	2.98	-0.750			
0.7626	48808.12	3.0780	3.0779	-0.1849	8.98	2.99	-0.750			
0.7632	48843.31	3.0750	3.0750	-0.1836	8.98	2.99	-0.750			
0.7637	48878.69	3.0720	3.0718	-0.1824	8.99	3.00	-0.750			
0.7643	48913.59	3.0690	3.0691	-0.1815	9.00	3.01	-0.750			
0.7648	48948.51	3.0660	3.0660	-0.1806	9.01	3.02	-0.750			
0.7654	48982.93	3.0630	3.0630	-0.1798	9.01	3.02	-0.750			
0.7659	49017.53	3.0600	3.0598	-0.1786	9.02	3.03	-0.750			
0.7664	49051.78	3.0570	3.0570	-0.1771	9.03	3.04	-0.750			
0.7670	49085.53	3.0540	3.0541	-0.1756	9.04	3.05	-0.750			
0.7675	49119.23	3.0510	3.0511	-0.1744	9.05	3.06	-0.750			
0.7680	49152.87	3.0480	3.0479	-0.1730	9.06	3.07	-0.750			
0.7685	49185.78	3.0450	3.0450	-0.1707	9.06	3.07	-0.750			
0.7690	49218.23	3.0420	3.0420	-0.1697	9.07	3.08	-0.750			
0.7695	49250.43	3.0390	3.0391	-0.1684	9.08	3.09	-0.750			
0.7700	49282.49	3.0360	3.0359	-0.1682	9.09	3.10	-0.750			
0.7705	49314.87	3.0330	3.0330	-0.1674	9.10	3.11	-0.750			
0.7710	49346.96	3.0300	3.0300	-0.1670	9.10	3.11	-0.750			
0.7715	49379.09	3.0270	3.0269	-0.1657	9.11	3.12	-0.750			
0.7720	49410.95	3.0240	3.0242	-0.1657	9.12	3.13	-0.750			
0.7725	49442.61	3.0210	3.0210	-0.1647	9.13	3.14	-0.750			
0.7730	49474.03	3.0180	3.0179	-0.1636	9.14	3.15	-0.750			
0.7735	49505.38	3.0150	3.0149	-0.1625	9.14	3.15	-0.750			
0.7740	49536.08	3.0120	3.0121	-0.1618	9.15	3.16	-0.750			
0.7745	49567.29	3.0090	3.0090	-0.1621	9.16	3.17	-0.750			
0.7750	49598.39	3.0060	3.0060	-0.1619	9.17	3.18	-0.750			
0.7755	49629.49	3.0030	3.0029	-0.1613	9.17	3.18	-0.750			
0.7759	49660.73	3.0000	3.0000	-0.1664	9.18	3.19	-0.750			
