Ah_balance (normalized)	Ah_balance (mAh)	Voltage - fit (V)	Voltage -  interpolate (V)	dQ/dV (1/V)	Temperature (°C)	Temperature - diff (°C)	Current (C)	R_DC 0ms (mOhm)	R_DC 50ms (mOhm)	R_DC 50 ms PEC (mOhm)
0.0932	5967.21	4.1960	4.1985	0.9083	8.09	2.10	0.750			
0.0960	6146.12	4.1930	4.1942	0.8918	8.09	2.10	0.750			
0.0986	6309.27	4.1900	4.1905	0.8373	8.09	2.10	0.750			
0.1010	6461.76	4.1870	4.1872	0.7900	8.08	2.09	0.750			
0.1034	6619.46	4.1840	4.1837	0.7881	8.08	2.09	0.750			
0.1054	6743.94	4.1810	4.1810	0.7195	8.08	2.09	0.750			
0.1075	6883.00	4.1780	4.1780	0.7222	8.07	2.08	0.750			
0.1097	7021.56	4.1750	4.1750	0.7256	8.06	2.07	0.750			
0.1119	7162.20	4.1720	4.1720	0.7275	8.06	2.07	0.750			
0.1141	7300.95	4.1690	4.1690	0.7240	8.05	2.06	0.750			
0.1163	7442.53	4.1660	4.1660	0.7204	8.04	2.05	0.750			
0.1184	7579.45	4.1630	4.1632	0.7202	8.04	2.05	0.750			
0.1206	7716.71	4.1600	4.1600	0.7186	8.03	2.04	0.750			
0.1227	7854.61	4.1570	4.1568	0.7182	8.03	2.04	0.750			
0.1248	7989.93	4.1540	4.1541	0.7254	8.03	2.04	0.750			
0.1270	8129.79	4.1510	4.1510	0.7418	8.02	2.03	0.750			
0.1293	8274.31	4.1480	4.1479	0.7484	8.02	2.03	0.750			
0.1316	8419.31	4.1450	4.1451	0.7626	8.02	2.03	0.750			
0.1339	8567.72	4.1420	4.1420	0.7596	8.01	2.02	0.750			
0.1362	8716.03	4.1390	4.1389	0.7619	8.00	2.01	0.750			
0.1385	8862.42	4.1360	4.1361	0.7661	8.00	2.01	0.750			
0.1408	9008.13	4.1330	4.1330	0.7605	7.99	2.00	0.750			
0.1430	9153.83	4.1300	4.1299	0.7580	7.99	2.00	0.750			
0.1453	9301.19	4.1270	4.1270	0.7567	7.99	2.00	0.750			
0.1476	9444.12	4.1240	4.1241	0.7512	7.98	1.99	0.750			
0.1498	9589.72	4.1210	4.1210	0.7587	7.98	1.99	0.750			
0.1521	9733.61	4.1180	4.1180	0.7596	7.97	1.98	0.750			
0.1544	9880.05	4.1150	4.1149	0.7552	7.97	1.98	0.750			
0.1566	10025.19	4.1120	4.1121	0.7638	7.97	1.98	0.750			
0.1590	10173.46	4.1090	4.1091	0.7665	7.96	1.97	0.750			
0.1612	10319.73	4.1060	4.1060	0.7800	7.95	1.96	0.750			
0.1636	10469.55	4.1030	4.1029	0.7849	7.95	1.96	0.750			
0.1660	10621.88	4.1000	4.1002	0.7859	7.94	1.95	0.750			
0.1683	10773.94	4.0970	4.0969	0.7929	7.94	1.95	0.750			
0.1708	10929.81	4.0940	4.0942	0.7919	7.93	1.94	0.750			
0.1731	11081.18	4.0910	4.0910	0.7850	7.93	1.94	0.750			
0.1755	11232.04	4.0880	4.0879	0.7799	7.93	1.94	0.750			
0.1778	11378.94	4.0850	4.0852	0.7764	7.92	1.93	0.750			
0.1801	11525.60	4.0820	4.0819	0.7893	7.92	1.93	0.750			
0.1825	11678.26	4.0790	4.0789	0.7978	7.91	1.92	0.750			
0.1849	11830.76	4.0760	4.0759	0.8045	7.91	1.92	0.750			
0.1873	11989.15	4.0730	4.0731	0.8179	7.90	1.91	0.750			
0.1898	12148.76	4.0700	4.0701	0.8277	7.90	1.91	0.750			
0.1923	12310.39	4.0670	4.0668	0.8285	7.89	1.90	0.750			
0.1948	12469.54	4.0640	4.0641	0.8221	7.89	1.90	0.750			
0.1973	12627.34	4.0610	4.0610	0.8123	7.88	1.89	0.750			
0.1997	12782.79	4.0580	4.0581	0.8167	7.88	1.89	0.750			
0.2021	12935.59	4.0550	4.0550	0.8092	7.87	1.88	0.750			
0.2045	13090.77	4.0520	4.0518	0.8160	7.87	1.88	0.750			
0.2070	13245.36	4.0490	4.0489	0.8240	7.87	1.88	0.750			
0.2095	13405.82	4.0460	4.0462	0.8402	7.86	1.87	0.750			
0.2121	13572.75	4.0430	4.0429	0.8529	7.85	1.86	0.750			
0.2147	13738.48	4.0400	4.0399	0.8578	7.85	1.86	0.750			
0.2172	13902.31	4.0370	4.0370	0.8537	7.84	1.85	0.750			
0.2198	14066.83	4.0340	4.0341	0.8582	7.83	1.84	0.750			
0.2224	14231.22	4.0310	4.0309	0.8570	7.83	1.84	0.750			
0.2249	14393.29	4.0280	4.0281	0.8565	7.82	1.83	0.750			
0.2275	14557.67	4.0250	4.0250	0.8582	7.82	1.83	0.750			
0.2301	14724.91	4.0220	4.0220	0.8690	7.81	1.82	0.750			
0.2327	14891.42	4.0190	4.0190	0.8711	7.80	1.81	0.750			
0.2353	15057.97	4.0160	4.0161	0.8754	7.79	1.80	0.750			
0.2379	15226.01	4.0130	4.0130	0.8819	7.78	1.79	0.750			
0.2406	15397.27	4.0100	4.0100	0.8859	7.78	1.79	0.750			
0.2433	15568.33	4.0070	4.0070	0.8887	7.77	1.78	0.750			
0.2459	15739.96	4.0040	4.0039	0.8866	7.76	1.77	0.750			
0.2486	15910.66	4.0010	4.0011	0.8843	7.76	1.77	0.750			
0.2513	16081.02	3.9980	3.9980	0.8792	7.76	1.77	0.750			
0.2539	16247.50	3.9950	3.9950	0.8807	7.75	1.76	0.750			
0.2565	16415.64	3.9920	3.9920	0.8848	7.75	1.76	0.750			
0.2591	16584.51	3.9890	3.9890	0.8879	7.74	1.75	0.750			
0.2618	16753.92	3.9860	3.9860	0.8985	7.73	1.74	0.750			
0.2645	16928.60	3.9830	3.9831	0.9137	7.73	1.74	0.750			
0.2673	17105.52	3.9800	3.9798	0.9233	7.72	1.73	0.750			
0.2701	17288.54	3.9770	3.9770	0.9182	7.71	1.72	0.750			
0.2729	17462.94	3.9740	3.9742	0.9175	7.71	1.72	0.750			
0.2756	17638.98	3.9710	3.9711	0.9203	7.70	1.71	0.750			
0.2784	17815.38	3.9680	3.9680	0.9195	7.69	1.70	0.750			
0.2810	17985.96	3.9650	3.9650	0.9250	7.69	1.70	0.750			
0.2838	18164.81	3.9620	3.9621	0.9249	7.68	1.69	0.750			
0.2866	18343.75	3.9590	3.9589	0.9380	7.67	1.68	0.750			
0.2895	18526.88	3.9560	3.9561	0.9471	7.66	1.67	0.750			
0.2923	18708.48	3.9530	3.9528	0.9523	7.65	1.66	0.750			
0.2952	18893.22	3.9500	3.9500	0.9558	7.64	1.65	0.750			
0.2981	19076.64	3.9470	3.9470	0.9734	7.64	1.65	0.750			
0.3010	19261.43	3.9440	3.9441	0.9812	7.63	1.64	0.750			
0.3040	19454.61	3.9410	3.9408	0.9897	7.62	1.63	0.750			
0.3070	19645.84	3.9380	3.9380	0.9904	7.62	1.63	0.750			
0.3100	19837.12	3.9350	3.9352	0.9979	7.61	1.62	0.750			
0.3129	20027.14	3.9320	3.9320	1.0075	7.60	1.61	0.750			
0.3159	20219.57	3.9290	3.9290	1.0106	7.59	1.60	0.750			
0.3190	20416.30	3.9260	3.9259	1.0178	7.58	1.59	0.750			
0.3221	20612.67	3.9230	3.9231	1.0263	7.58	1.59	0.750			
0.3252	20812.06	3.9200	3.9200	1.0374	7.57	1.58	0.750			
0.3283	21013.82	3.9170	3.9172	1.0461	7.56	1.57	0.750			
0.3315	21213.86	3.9140	3.9139	1.0440	7.55	1.56	0.750			
0.3345	21410.22	3.9110	3.9110	1.0511	7.54	1.55	0.750			
0.3377	21614.87	3.9080	3.9081	1.0651	7.53	1.54	0.750			
0.3409	21820.77	3.9050	3.9049	1.0760	7.52	1.53	0.750			
0.3442	22028.75	3.9020	3.9020	1.0715	7.51	1.52	0.750			
0.3474	22231.60	3.8990	3.8992	1.0883	7.50	1.51	0.750			
0.3506	22441.37	3.8960	3.8960	1.1048	7.49	1.50	0.750			
0.3540	22654.49	3.8930	3.8929	1.1211	7.48	1.49	0.750			
0.3574	22870.53	3.8900	3.8900	1.1375	7.47	1.48	0.750			
0.3608	23092.13	3.8870	3.8871	1.1609	7.47	1.48	0.750			
0.3644	23318.48	3.8840	3.8841	1.1802	7.46	1.47	0.750			
0.3679	23547.20	3.8810	3.8810	1.1966	7.45	1.46	0.750			
0.3715	23776.51	3.8780	3.8780	1.2098	7.43	1.44	0.750			
0.3752	24010.84	3.8750	3.8750	1.2333	7.42	1.43	0.750			
0.3789	24252.19	3.8720	3.8719	1.2433	7.40	1.41	0.750			
0.3827	24493.11	3.8690	3.8691	1.2579	7.39	1.40	0.750			
0.3865	24733.58	3.8660	3.8661	1.2743	7.38	1.39	0.750			
0.3903	24980.87	3.8630	3.8632	1.2881	7.37	1.38	0.750			
0.3942	25225.95	3.8600	3.8599	1.3195	7.35	1.36	0.750			
0.3981	25481.11	3.8570	3.8571	1.3447	7.34	1.35	0.750			
0.4023	25745.45	3.8540	3.8540	1.3642	7.33	1.34	0.750			
0.4065	26015.01	3.8510	3.8511	1.3954	7.31	1.32	0.750	0.384	0.929	
0.4106	26280.19	3.8480	3.8482	1.4149	7.30	1.31	0.750			
0.4149	26554.24	3.8450	3.8450	1.4381	7.29	1.30	0.750			
0.4193	26833.04	3.8420	3.8418	1.4543	7.27	1.28	0.750			
0.4236	27107.77	3.8390	3.8391	1.4735	7.26	1.27	0.750			
0.4281	27395.63	3.8360	3.8361	1.5104	7.25	1.26	0.750			
0.4327	27693.66	3.8330	3.8330	1.5316	7.23	1.24	0.750			
0.4373	27988.58	3.8300	3.8299	1.5582	7.21	1.22	0.750			
0.4420	28290.58	3.8270	3.8270	1.5773	7.19	1.20	0.750			
0.4468	28597.98	3.8240	3.8240	1.6235	7.17	1.18	0.750			
0.4517	28909.27	3.8210	3.8211	1.6599	7.15	1.16	0.750			
0.4566	29223.75	3.8180	3.8180	1.7188	7.13	1.14	0.750			
0.4619	29561.71	3.8150	3.8152	1.7703	7.11	1.12	0.750			
0.4675	29919.34	3.8120	3.8120	1.8058	7.09	1.10	0.750			
0.4730	30273.19	3.8090	3.8089	1.8215	7.07	1.08	0.750			
0.4784	30618.94	3.8060	3.8062	1.8373	7.05	1.06	0.750			
0.4840	30972.90	3.8030	3.8032	1.8795	7.03	1.04	0.750			
0.4896	31331.82	3.8000	3.7997	1.8893	7.00	1.01	0.750			
0.4952	31690.42	3.7970	3.7971	1.9329	6.98	0.99	0.750			
0.5011	32067.70	3.7940	3.7943	2.0172	6.96	0.97	0.750			
0.5074	32475.42	3.7910	3.7908	2.0569	6.93	0.94	0.750			
0.5135	32865.48	3.7880	3.7879	2.0836	6.91	0.92	0.750			
0.5199	33272.34	3.7850	3.7853	2.1058	6.88	0.89	0.750			
0.5262	33679.48	3.7820	3.7820	2.1405	6.86	0.87	0.750			
0.5327	34094.99	3.7790	3.7793	2.1559	6.84	0.85	0.750			
0.5391	34503.44	3.7760	3.7760	2.1948	6.81	0.82	0.750			
0.5458	34930.60	3.7730	3.7735	2.2769	6.78	0.79	0.750			
0.5527	35370.94	3.7700	3.7699	2.3488	6.75	0.76	0.750			
0.5601	35848.96	3.7670	3.7671	2.3700	6.72	0.73	0.750			
0.5673	36309.89	3.7640	3.7640	2.3844	6.70	0.71	0.750			
0.5743	36754.33	3.7610	3.7611	2.3465	6.67	0.68	0.750			
0.5811	37189.80	3.7580	3.7578	2.4069	6.65	0.66	0.750			
0.5884	37654.99	3.7550	3.7550	2.5131	6.62	0.63	0.750			
0.5962	38159.40	3.7520	3.7520	2.6500	6.58	0.59	0.750			
0.6044	38680.66	3.7490	3.7491	2.7347	6.55	0.56	0.750			
0.6128	39220.66	3.7460	3.7459	2.8545	6.52	0.53	0.750			
0.6215	39777.45	3.7430	3.7429	2.9220	6.49	0.50	0.750			
0.6305	40349.83	3.7400	3.7400	3.0507	6.46	0.47	0.750			
0.6397	40943.02	3.7370	3.7368	3.1684	6.42	0.43	0.750			
0.6493	41557.77	3.7340	3.7341	3.2272	6.38	0.39	0.750			
0.6594	42199.28	3.7310	3.7309	3.2744	6.35	0.36	0.750			
0.6690	42817.12	3.7280	3.7282	3.1770	6.31	0.32	0.750			
0.6786	43428.65	3.7250	3.7249	3.0760	6.28	0.29	0.750			
0.6876	44005.15	3.7220	3.7220	2.8095	6.25	0.26	0.750			
0.6957	44524.63	3.7190	3.7190	2.5475	6.22	0.23	0.750			
0.7027	44975.92	3.7160	3.7161	2.2422	6.21	0.22	0.750			
0.7089	45366.66	3.7130	3.7130	1.9613	6.19	0.20	0.750			
0.7143	45715.72	3.7100	3.7102	1.7396	6.18	0.19	0.750			
0.7191	46021.07	3.7070	3.7070	1.5692	6.16	0.17	0.750			
0.7235	46304.29	3.7040	3.7039	1.4317	6.15	0.16	0.750			
0.7273	46550.05	3.7010	3.7009	1.3157	6.14	0.15	0.750			
0.7311	46791.33	3.6980	3.6981	1.2296	6.13	0.14	0.750			
0.7346	47016.82	3.6950	3.6950	1.1784	6.12	0.13	0.750			
0.7381	47235.41	3.6920	3.6921	1.1301	6.11	0.12	0.750			
0.7414	47446.57	3.6890	3.6889	1.0921	6.10	0.11	0.750			
0.7445	47647.89	3.6860	3.6861	1.0573	6.10	0.11	0.750			
0.7476	47846.27	3.6830	3.6831	1.0479	6.09	0.10	0.750			
0.7507	48044.95	3.6800	3.6799	1.0381	6.09	0.10	0.750			
0.7539	48247.11	3.6770	3.6769	1.0259	6.08	0.09	0.750			
0.7569	48441.38	3.6740	3.6740	1.0037	6.07	0.08	0.750			
0.7599	48635.27	3.6710	3.6712	0.9942	6.06	0.07	0.750			
0.7629	48824.72	3.6680	3.6681	0.9798	6.05	0.06	0.750			
0.7657	49007.85	3.6650	3.6649	0.9613	6.05	0.06	0.750			
0.7686	49191.41	3.6620	3.6619	0.9448	6.04	0.05	0.750			
0.7714	49371.83	3.6590	3.6591	0.9299	6.03	0.04	0.750			
0.7742	49550.91	3.6560	3.6560	0.9166	6.03	0.04	0.750			
0.7770	49726.86	3.6530	3.6530	0.9026	6.02	0.03	0.750			
0.7796	49895.28	3.6500	3.6500	0.8913	6.02	0.03	0.750			
0.7822	50061.48	3.6470	3.6470	0.8835	6.01	0.02	0.750			
0.7849	50230.72	3.6440	3.6440	0.8861	6.01	0.02	0.750			
0.7875	50399.84	3.6410	3.6409	0.8960	6.00	0.01	0.750			
0.7902	50574.03	3.6380	3.6381	0.8986	6.00	0.01	0.750			
0.7930	50750.32	3.6350	3.6349	0.9005	5.99	0.00	0.750			
0.7958	50930.24	3.6320	3.6318	0.8679	5.99	0.00	0.750			
0.7984	51099.80	3.6290	3.6291	0.8287	5.99	0.00	0.750			
0.8010	51262.05	3.6260	3.6259	0.7539	5.99	0.00	0.750			
0.8032	51405.36	3.6230	3.6232	0.6663	5.99	0.00	0.750			
0.8050	51523.09	3.6200	3.6198	0.5609	5.99	0.00	0.750			
0.8065	51619.11	3.6170	3.6171	0.4631	5.99	0.00	0.750			
0.8076	51688.83	3.6140	3.6141	0.3747	5.99	0.00	0.750			
0.8086	51752.84	3.6110	3.6111	0.3034	5.99	0.00	0.750			
0.8094	51800.68	3.6080	3.6079	0.2288	5.99	0.00	0.750			
0.8100	51837.41	3.6050	3.6045	0.1700	5.99	0.00	0.750			
0.8103	51859.98	3.6020	3.6000	0.1108	5.99	0.00	0.750			
0.8105	51869.99	3.5900	3.5846	-0.0765	5.99	0.00	0.750			
0.8105	51874.31	3.5990	3.5486	0.0615	5.99	0.00	0.746			
0.8106	51880.26	3.5930	3.4983	-0.0305	5.99	0.00	0.739			
0.8107	51881.70	3.5960	3.4861	0.0155	5.99	0.00	0.737			
