Ah_balance (normalized)	Ah_balance (mAh)	Voltage - fit (V)	Voltage -  interpolate (V)	dQ/dV (1/V)	Temperature (°C)	Temperature - diff (°C)	Current (C)	R_DC 0ms (mOhm)	R_DC 50ms (mOhm)	R_DC 50 ms PEC (mOhm)
0.0965	6172.83	4.1980	4.1929	0.5884	8.38	2.39	0.750	0.409	0.783	
0.0985	6306.75	4.1950	4.1971	0.7544	8.38	2.39	0.750			
0.1011	6471.18	4.1920	4.1934	0.8087	8.37	2.38	0.750			
0.1036	6628.20	4.1890	4.1898	0.8044	8.36	2.37	0.750			
0.1061	6791.62	4.1860	4.1864	0.7984	8.35	2.36	0.750			
0.1085	6945.19	4.1830	4.1828	0.7674	8.34	2.35	0.750			
0.1106	7077.43	4.1800	4.1800	0.7026	8.34	2.35	0.750			
0.1127	7210.19	4.1770	4.1772	0.6978	8.33	2.34	0.750			
0.1148	7344.76	4.1740	4.1739	0.7039	8.32	2.33	0.750			
0.1169	7481.05	4.1710	4.1710	0.7066	8.32	2.33	0.750			
0.1190	7614.21	4.1680	4.1681	0.7043	8.31	2.32	0.750			
0.1211	7752.79	4.1650	4.1650	0.7053	8.31	2.32	0.750			
0.1233	7889.10	4.1620	4.1620	0.7134	8.30	2.31	0.750			
0.1254	8024.32	4.1590	4.1590	0.7137	8.30	2.31	0.750			
0.1275	8161.03	4.1560	4.1560	0.7223	8.29	2.30	0.750			
0.1297	8301.27	4.1530	4.1532	0.7244	8.28	2.29	0.750			
0.1319	8442.15	4.1500	4.1499	0.7288	8.28	2.29	0.750			
0.1341	8583.52	4.1470	4.1470	0.7229	8.27	2.28	0.750			
0.1363	8722.16	4.1440	4.1442	0.7308	8.26	2.27	0.750			
0.1384	8859.76	4.1410	4.1409	0.7336	8.25	2.26	0.750			
0.1406	9001.17	4.1380	4.1376	0.7353	8.24	2.25	0.750			
0.1428	9140.18	4.1350	4.1353	0.7391	8.23	2.24	0.750			
0.1451	9285.34	4.1320	4.1320	0.7461	8.22	2.23	0.750			
0.1474	9432.64	4.1290	4.1291	0.7525	8.21	2.22	0.750			
0.1496	9575.41	4.1260	4.1259	0.7478	8.21	2.22	0.750			
0.1519	9718.55	4.1230	4.1231	0.7474	8.20	2.21	0.750			
0.1541	9862.72	4.1200	4.1201	0.7498	8.19	2.20	0.750			
0.1564	10007.57	4.1170	4.1170	0.7537	8.19	2.20	0.750			
0.1586	10151.13	4.1140	4.1141	0.7552	8.18	2.19	0.750			
0.1609	10297.24	4.1110	4.1110	0.7605	8.18	2.19	0.750			
0.1632	10443.89	4.1080	4.1080	0.7636	8.17	2.18	0.750			
0.1655	10591.44	4.1050	4.1049	0.7638	8.17	2.18	0.750			
0.1678	10737.37	4.1020	4.1021	0.7729	8.16	2.17	0.750			
0.1701	10885.99	4.0990	4.0991	0.7766	8.15	2.16	0.750			
0.1724	11035.85	4.0960	4.0959	0.7798	8.14	2.15	0.750			
0.1748	11185.99	4.0930	4.0929	0.7837	8.13	2.14	0.750			
0.1771	11336.55	4.0900	4.0902	0.7886	8.13	2.14	0.750			
0.1795	11489.42	4.0870	4.0870	0.7884	8.12	2.13	0.750			
0.1819	11643.20	4.0840	4.0840	0.7869	8.11	2.12	0.750			
0.1842	11790.73	4.0810	4.0810	0.7849	8.10	2.11	0.750			
0.1866	11940.79	4.0780	4.0782	0.7894	8.09	2.10	0.750			
0.1889	12091.60	4.0750	4.0749	0.7967	8.09	2.10	0.750			
0.1913	12242.74	4.0720	4.0719	0.8056	8.08	2.09	0.750			
0.1938	12400.81	4.0690	4.0691	0.8076	8.07	2.08	0.750			
0.1962	12558.34	4.0660	4.0660	0.8223	8.06	2.07	0.750			
0.1987	12717.55	4.0630	4.0630	0.8250	8.05	2.06	0.750			
0.2012	12875.61	4.0600	4.0600	0.8253	8.04	2.05	0.750			
0.2036	13033.18	4.0570	4.0569	0.8283	8.03	2.04	0.750			
0.2061	13192.88	4.0540	4.0541	0.8273	8.02	2.03	0.750			
0.2086	13351.83	4.0510	4.0510	0.8231	8.01	2.02	0.750			
0.2111	13510.27	4.0480	4.0479	0.8294	8.01	2.02	0.750			
0.2135	13666.77	4.0450	4.0452	0.8273	8.00	2.01	0.750			
0.2160	13825.46	4.0420	4.0418	0.8379	7.99	2.00	0.750			
0.2186	13988.13	4.0390	4.0390	0.8383	7.98	1.99	0.750			
0.2211	14150.18	4.0360	4.0361	0.8429	7.97	1.98	0.750			
0.2237	14314.70	4.0330	4.0330	0.8512	7.97	1.98	0.750			
0.2262	14477.27	4.0300	4.0300	0.8544	7.96	1.97	0.750			
0.2287	14639.73	4.0270	4.0270	0.8559	7.95	1.96	0.750			
0.2313	14805.70	4.0240	4.0240	0.8633	7.94	1.95	0.750			
0.2339	14971.81	4.0210	4.0212	0.8702	7.93	1.94	0.750			
0.2366	15142.56	4.0180	4.0179	0.8805	7.92	1.93	0.750			
0.2392	15311.66	4.0150	4.0150	0.8782	7.92	1.93	0.750			
0.2419	15481.08	4.0120	4.0121	0.8736	7.91	1.92	0.750			
0.2445	15648.44	4.0090	4.0091	0.8711	7.90	1.91	0.750			
0.2471	15816.08	4.0060	4.0060	0.8715	7.89	1.90	0.750			
0.2497	15981.28	4.0030	4.0030	0.8754	7.87	1.88	0.750			
0.2523	16145.95	4.0000	3.9999	0.8845	7.86	1.87	0.750			
0.2550	16317.62	3.9970	3.9970	0.8933	7.85	1.86	0.750			
0.2577	16492.95	3.9940	3.9939	0.8972	7.84	1.85	0.750			
0.2604	16665.67	3.9910	3.9912	0.9056	7.83	1.84	0.750			
0.2631	16840.23	3.9880	3.9881	0.9128	7.82	1.83	0.750			
0.2659	17015.34	3.9850	3.9846	0.9196	7.81	1.82	0.750			
0.2686	17190.83	3.9820	3.9821	0.9171	7.80	1.81	0.750			
0.2714	17367.70	3.9790	3.9790	0.9307	7.79	1.80	0.750			
0.2742	17551.80	3.9760	3.9760	0.9428	7.78	1.79	0.750			
0.2771	17731.62	3.9730	3.9730	0.9393	7.77	1.78	0.750			
0.2799	17913.92	3.9700	3.9703	0.9444	7.76	1.77	0.750			
0.2827	18095.96	3.9670	3.9669	0.9506	7.75	1.76	0.750			
0.2856	18279.49	3.9640	3.9639	0.9531	7.74	1.75	0.750			
0.2885	18461.76	3.9610	3.9611	0.9641	7.73	1.74	0.750			
0.2914	18647.08	3.9580	3.9579	0.9733	7.72	1.73	0.750			
0.2943	18835.71	3.9550	3.9549	0.9707	7.71	1.72	0.750			
0.2972	19021.75	3.9520	3.9521	0.9721	7.69	1.70	0.750			
0.3001	19208.02	3.9490	3.9491	0.9746	7.68	1.69	0.750			
0.3031	19395.45	3.9460	3.9459	0.9804	7.67	1.68	0.750			
0.3060	19584.65	3.9430	3.9429	0.9835	7.66	1.67	0.750			
0.3089	19771.69	3.9400	3.9400	0.9900	7.65	1.66	0.750			
0.3120	19965.04	3.9370	3.9371	0.9994	7.64	1.65	0.750			
0.3149	20156.39	3.9340	3.9339	1.0204	7.62	1.63	0.750			
0.3180	20355.04	3.9310	3.9310	1.0245	7.61	1.62	0.750			
0.3211	20552.23	3.9280	3.9279	1.0420	7.60	1.61	0.750			
0.3243	20754.42	3.9250	3.9251	1.0512	7.59	1.60	0.750			
0.3275	20958.46	3.9220	3.9220	1.0686	7.58	1.59	0.750			
0.3307	21163.97	3.9190	3.9192	1.0757	7.57	1.58	0.750			
0.3339	21371.19	3.9160	3.9160	1.0897	7.55	1.56	0.750			
0.3372	21579.77	3.9130	3.9130	1.0956	7.54	1.55	0.750			
0.3406	21796.60	3.9100	3.9099	1.0989	7.52	1.53	0.750			
0.3439	22007.56	3.9070	3.9070	1.1011	7.51	1.52	0.750			
0.3471	22216.97	3.9040	3.9042	1.1050	7.50	1.51	0.750			
0.3504	22422.71	3.9010	3.9011	1.1227	7.48	1.49	0.750			
0.3538	22641.12	3.8980	3.8978	1.1280	7.47	1.48	0.750			
0.3572	22858.14	3.8950	3.8949	1.1561	7.45	1.46	0.750			
0.3607	23085.03	3.8920	3.8921	1.1841	7.44	1.45	0.750			
0.3643	23317.99	3.8890	3.8892	1.2053	7.43	1.44	0.750			
0.3680	23550.97	3.8860	3.8860	1.2202	7.41	1.42	0.750			
0.3716	23784.72	3.8830	3.8831	1.2217	7.39	1.40	0.750			
0.3753	24017.56	3.8800	3.8801	1.2398	7.37	1.38	0.750			
0.3791	24261.15	3.8770	3.8772	1.2368	7.35	1.36	0.750			
0.3827	24495.47	3.8740	3.8739	1.2564	7.33	1.34	0.750	0.400	0.817	
0.3865	24738.40	3.8710	3.8711	1.2749	7.32	1.33	0.750			
0.3904	24983.11	3.8680	3.8678	1.3022	7.30	1.31	0.750			
0.3943	25237.60	3.8650	3.8650	1.3303	7.28	1.29	0.750			
0.3984	25495.04	3.8620	3.8621	1.3489	7.26	1.27	0.750			
0.4025	25760.02	3.8590	3.8590	1.3712	7.24	1.25	0.750			
0.4067	26025.75	3.8560	3.8561	1.3911	7.23	1.24	0.750			
0.4108	26292.80	3.8530	3.8530	1.4139	7.21	1.22	0.750			
0.4151	26565.54	3.8500	3.8499	1.4456	7.19	1.20	0.750			
0.4195	26847.94	3.8470	3.8470	1.4585	7.17	1.18	0.750			
0.4239	27130.46	3.8440	3.8441	1.4822	7.15	1.16	0.750			
0.4284	27420.07	3.8410	3.8410	1.5185	7.13	1.14	0.750			
0.4330	27713.61	3.8380	3.8379	1.5423	7.11	1.12	0.750			
0.4377	28009.75	3.8350	3.8349	1.5439	7.09	1.10	0.750			
0.4423	28306.85	3.8320	3.8322	1.5740	7.07	1.08	0.750			
0.4471	28615.31	3.8290	3.8290	1.5852	7.05	1.06	0.750			
0.4520	28929.54	3.8260	3.8259	1.6061	7.02	1.03	0.750			
0.4567	29229.15	3.8230	3.8229	1.6254	7.00	1.01	0.750			
0.4616	29541.50	3.8200	3.8203	1.6391	6.98	0.99	0.750			
0.4666	29860.92	3.8170	3.8170	1.6511	6.96	0.97	0.750			
0.4715	30178.36	3.8140	3.8140	1.6648	6.93	0.94	0.750			
0.4766	30500.69	3.8110	3.8112	1.6876	6.90	0.91	0.750			
0.4817	30829.02	3.8080	3.8081	1.7251	6.88	0.89	0.750			
0.4870	31166.89	3.8050	3.8050	1.7379	6.86	0.87	0.750			
0.4921	31497.18	3.8020	3.8021	1.7503	6.83	0.84	0.750			
0.4975	31839.94	3.7990	3.7990	1.7697	6.81	0.82	0.750			
0.5028	32177.98	3.7960	3.7958	1.8100	6.78	0.79	0.750			
0.5082	32523.67	3.7930	3.7930	1.8192	6.76	0.77	0.750			
0.5137	32874.76	3.7900	3.7898	1.8874	6.74	0.75	0.750			
0.5195	33244.83	3.7870	3.7870	1.8878	6.72	0.73	0.750			
0.5253	33619.16	3.7840	3.7838	1.9218	6.69	0.70	0.750			
0.5311	33990.83	3.7810	3.7814	1.9447	6.67	0.68	0.750			
0.5368	34353.09	3.7780	3.7778	1.9522	6.65	0.66	0.750			
0.5426	34728.33	3.7750	3.7750	1.9924	6.62	0.63	0.750			
0.5486	35109.76	3.7720	3.7720	2.0467	6.59	0.60	0.750			
0.5548	35508.64	3.7690	3.7691	2.1610	6.57	0.58	0.750			
0.5614	35931.05	3.7660	3.7659	2.2225	6.54	0.55	0.750			
0.5683	36369.54	3.7630	3.7628	2.2822	6.52	0.53	0.750			
0.5752	36810.81	3.7600	3.7604	2.3832	6.49	0.50	0.750			
0.5824	37276.60	3.7570	3.7568	2.4914	6.46	0.47	0.750			
0.5899	37754.31	3.7540	3.7540	2.6153	6.43	0.44	0.750			
0.5981	38278.63	3.7510	3.7509	2.7811	6.41	0.42	0.750			
0.6067	38830.39	3.7480	3.7482	2.9604	6.38	0.39	0.750			
0.6159	39417.17	3.7450	3.7450	3.0973	6.35	0.36	0.750			
0.6254	40023.19	3.7420	3.7422	3.1057	6.31	0.32	0.750			
0.6349	40634.47	3.7390	3.7390	3.0153	6.28	0.29	0.750			
0.6437	41199.35	3.7360	3.7361	2.8176	6.25	0.26	0.750			
0.6521	41731.95	3.7330	3.7329	2.6217	6.23	0.24	0.750			
0.6597	42218.02	3.7300	3.7300	2.3366	6.21	0.22	0.750			
0.6661	42629.48	3.7270	3.7271	2.0456	6.19	0.20	0.750			
0.6715	42974.91	3.7240	3.7242	1.7558	6.18	0.19	0.750			
0.6765	43294.97	3.7210	3.7211	1.5782	6.16	0.17	0.750			
0.6807	43565.90	3.7180	3.7179	1.4256	6.15	0.16	0.750			
0.6846	43815.88	3.7150	3.7150	1.3058	6.14	0.15	0.750			
0.6882	44047.91	3.7120	3.7121	1.2157	6.13	0.14	0.750			
0.6918	44277.17	3.7090	3.7089	1.1687	6.12	0.13	0.750			
0.6952	44490.24	3.7060	3.7061	1.1140	6.11	0.12	0.750			
0.6984	44695.11	3.7030	3.7030	1.0891	6.10	0.11	0.750			
0.7016	44900.03	3.7000	3.6999	1.0674	6.09	0.10	0.750			
0.7047	45103.40	3.6970	3.6971	1.0432	6.09	0.10	0.750			
0.7079	45303.21	3.6940	3.6940	1.0304	6.08	0.09	0.750			
0.7110	45501.56	3.6910	3.6911	1.0144	6.07	0.08	0.750			
0.7140	45694.19	3.6880	3.6879	0.9859	6.06	0.07	0.750			
0.7169	45880.31	3.6850	3.6850	0.9608	6.06	0.07	0.750			
0.7197	46060.71	3.6820	3.6820	0.9376	6.05	0.06	0.750			
0.7225	46237.33	3.6790	3.6790	0.9242	6.04	0.05	0.750			
0.7252	46412.06	3.6760	3.6759	0.9145	6.04	0.05	0.750			
0.7279	46584.39	3.6730	3.6729	0.8994	6.03	0.04	0.750			
0.7306	46756.72	3.6700	3.6700	0.8962	6.02	0.03	0.750			
0.7333	46928.78	3.6670	3.6671	0.8974	6.02	0.03	0.750			
0.7359	47098.89	3.6640	3.6640	0.8997	6.01	0.02	0.750			
0.7386	47272.38	3.6610	3.6609	0.8995	6.01	0.02	0.750			
0.7413	47444.46	3.6580	3.6580	0.8939	6.00	0.01	0.750			
0.7441	47619.94	3.6550	3.6550	0.8790	6.00	0.01	0.750			
0.7467	47791.95	3.6520	3.6519	0.8657	6.00	0.01	0.750			
0.7493	47956.07	3.6490	3.6491	0.8350	5.99	0.00	0.750			
0.7518	48116.51	3.6460	3.6460	0.7873	5.99	0.00	0.750			
0.7542	48266.37	3.6430	3.6429	0.7311	5.99	-0.00	0.750			
0.7563	48406.05	3.6400	3.6401	0.6569	5.99	-0.00	0.750			
0.7583	48529.06	3.6370	3.6372	0.5777	5.99	-0.00	0.750			
0.7599	48632.89	3.6340	3.6339	0.4845	5.98	-0.01	0.750			
0.7610	48704.35	3.6310	3.6314	0.4190	5.98	-0.01	0.750			
0.7621	48773.99	3.6280	3.6281	0.3308	5.98	-0.01	0.750			
0.7630	48829.29	3.6250	3.6246	0.2678	5.98	-0.01	0.750			
0.7636	48868.43	3.6220	3.6208	0.2017	5.98	-0.01	0.750			
0.7640	48896.84	3.6190	3.6104	0.1484	5.98	-0.01	0.750			
0.7641	48901.17	3.5980	3.5946	-0.1078	5.98	-0.01	0.750			
0.7642	48908.64	3.6160	3.4923	0.0949	5.98	-0.01	0.756			
0.7644	48918.63	3.6010	3.3508	-0.0741	5.98	-0.01	0.767			
0.7644	48923.61	3.6130	3.2803	0.0611	5.98	-0.01	0.772			
0.7645	48929.61	3.6040	3.1954	-0.0403	5.98	-0.01	0.779			
0.7646	48932.10	3.6100	3.1601	0.0273	5.98	-0.01	0.781			
0.7646	48934.10	3.6070	3.1318	-0.0065	5.98	-0.01	0.783			
