Ah_balance (normalized)	Ah_balance (mAh)	Voltage - fit (V)	Voltage -  interpolate (V)	dQ/dV (1/V)	Temperature (°C)	Temperature - diff (°C)	Current (C)	R_DC 0ms (mOhm)	R_DC 50ms (mOhm)	R_DC 50 ms PEC (mOhm)
0.0939	6010.21	4.1970	4.1896	0.8297	8.34	2.35	0.750	0.387	0.836	
0.0966	6179.65	4.1940	4.1961	0.8801	8.34	2.35	0.750			
0.0992	6351.09	4.1910	4.1921	0.8551	8.33	2.34	0.750			
0.1017	6510.91	4.1880	4.1887	0.8204	8.33	2.34	0.750			
0.1043	6674.71	4.1850	4.1849	0.7932	8.32	2.33	0.750			
0.1063	6806.10	4.1820	4.1819	0.7060	8.31	2.32	0.750			
0.1084	6940.55	4.1790	4.1791	0.7090	8.31	2.32	0.750			
0.1106	7080.58	4.1760	4.1760	0.7168	8.30	2.31	0.750			
0.1128	7218.88	4.1730	4.1728	0.7187	8.30	2.31	0.750			
0.1149	7356.40	4.1700	4.1700	0.7128	8.29	2.30	0.750			
0.1171	7493.97	4.1670	4.1670	0.7050	8.29	2.30	0.750			
0.1192	7629.05	4.1640	4.1642	0.7141	8.28	2.29	0.750			
0.1213	7763.10	4.1610	4.1609	0.7129	8.28	2.29	0.750			
0.1234	7899.90	4.1580	4.1580	0.7158	8.27	2.28	0.750			
0.1256	8037.28	4.1550	4.1550	0.7213	8.27	2.28	0.750			
0.1278	8176.52	4.1520	4.1522	0.7206	8.27	2.28	0.750			
0.1300	8318.72	4.1490	4.1490	0.7266	8.26	2.27	0.750			
0.1321	8457.01	4.1460	4.1460	0.7289	8.26	2.27	0.750			
0.1343	8593.76	4.1430	4.1429	0.7324	8.25	2.26	0.750			
0.1365	8735.58	4.1400	4.1400	0.7386	8.25	2.26	0.750			
0.1387	8879.55	4.1370	4.1369	0.7450	8.25	2.26	0.750			
0.1410	9024.50	4.1340	4.1340	0.7514	8.24	2.25	0.750			
0.1433	9170.62	4.1310	4.1312	0.7574	8.24	2.25	0.750			
0.1456	9315.38	4.1280	4.1279	0.7627	8.24	2.25	0.750			
0.1478	9461.93	4.1250	4.1250	0.7616	8.23	2.24	0.750			
0.1501	9606.36	4.1220	4.1220	0.7589	8.23	2.24	0.750			
0.1524	9754.63	4.1190	4.1190	0.7592	8.22	2.23	0.750			
0.1547	9903.12	4.1160	4.1159	0.7545	8.22	2.23	0.750			
0.1570	10044.88	4.1130	4.1131	0.7514	8.21	2.22	0.750			
0.1592	10187.67	4.1100	4.1101	0.7504	8.21	2.22	0.750			
0.1614	10328.96	4.1070	4.1069	0.7564	8.20	2.21	0.750			
0.1637	10476.05	4.1040	4.1040	0.7683	8.20	2.21	0.750			
0.1660	10625.70	4.1010	4.1010	0.7683	8.19	2.20	0.750			
0.1684	10774.82	4.0980	4.0981	0.7738	8.19	2.20	0.750			
0.1707	10925.36	4.0950	4.0951	0.7791	8.18	2.19	0.750			
0.1730	11073.79	4.0920	4.0920	0.7738	8.17	2.18	0.750			
0.1753	11220.74	4.0890	4.0889	0.7754	8.17	2.18	0.750			
0.1776	11368.92	4.0860	4.0859	0.7768	8.16	2.17	0.750			
0.1800	11519.63	4.0830	4.0831	0.7781	8.16	2.17	0.750			
0.1823	11668.62	4.0800	4.0801	0.7872	8.15	2.16	0.750			
0.1847	11819.46	4.0770	4.0770	0.7894	8.15	2.16	0.750			
0.1871	11971.23	4.0740	4.0738	0.7981	8.14	2.15	0.750			
0.1895	12125.70	4.0710	4.0710	0.8003	8.13	2.14	0.750			
0.1919	12278.86	4.0680	4.0681	0.8037	8.13	2.14	0.750			
0.1943	12435.34	4.0650	4.0650	0.8156	8.12	2.13	0.750			
0.1967	12591.24	4.0620	4.0622	0.8206	8.12	2.13	0.750			
0.1992	12749.20	4.0590	4.0588	0.8270	8.11	2.12	0.750			
0.2017	12909.84	4.0560	4.0561	0.8361	8.11	2.12	0.750			
0.2043	13073.39	4.0530	4.0531	0.8303	8.10	2.11	0.750			
0.2068	13234.34	4.0500	4.0500	0.8382	8.09	2.10	0.750			
0.2092	13390.55	4.0470	4.0472	0.8307	8.09	2.10	0.750			
0.2117	13549.43	4.0440	4.0439	0.8338	8.08	2.09	0.750			
0.2142	13709.18	4.0410	4.0410	0.8435	8.08	2.09	0.750			
0.2168	13873.11	4.0380	4.0380	0.8398	8.07	2.08	0.750			
0.2193	14034.11	4.0350	4.0350	0.8458	8.06	2.07	0.750			
0.2219	14200.15	4.0320	4.0322	0.8476	8.06	2.07	0.750			
0.2244	14362.62	4.0290	4.0289	0.8426	8.05	2.06	0.750			
0.2269	14524.15	4.0260	4.0260	0.8386	8.04	2.05	0.750			
0.2294	14683.95	4.0230	4.0231	0.8469	8.04	2.05	0.750			
0.2319	14843.14	4.0200	4.0201	0.8543	8.03	2.04	0.750			
0.2345	15009.87	4.0170	4.0169	0.8636	8.03	2.04	0.750			
0.2371	15174.74	4.0140	4.0138	0.8770	8.02	2.03	0.750			
0.2398	15347.62	4.0110	4.0111	0.8849	8.01	2.02	0.750			
0.2425	15519.69	4.0080	4.0081	0.8905	8.00	2.01	0.750			
0.2452	15694.11	4.0050	4.0049	0.8918	7.99	2.00	0.750			
0.2479	15863.88	4.0020	4.0019	0.8841	7.99	2.00	0.750			
0.2505	16030.78	3.9990	3.9991	0.8799	7.98	1.99	0.750			
0.2531	16199.75	3.9960	3.9961	0.8793	7.97	1.98	0.750			
0.2557	16365.72	3.9930	3.9930	0.8861	7.97	1.98	0.750			
0.2584	16538.79	3.9900	3.9899	0.8936	7.96	1.97	0.750			
0.2611	16708.92	3.9870	3.9870	0.9021	7.95	1.96	0.750			
0.2638	16884.73	3.9840	3.9841	0.9113	7.95	1.96	0.750			
0.2666	17061.81	3.9810	3.9810	0.9226	7.94	1.95	0.750			
0.2694	17240.16	3.9780	3.9779	0.9316	7.93	1.94	0.750			
0.2722	17419.79	3.9750	3.9751	0.9347	7.92	1.93	0.750			
0.2750	17599.95	3.9720	3.9718	0.9353	7.91	1.92	0.750			
0.2778	17782.20	3.9690	3.9691	0.9294	7.90	1.91	0.750			
0.2806	17958.36	3.9660	3.9660	0.9228	7.90	1.91	0.750			
0.2833	18134.04	3.9630	3.9629	0.9247	7.89	1.90	0.750			
0.2861	18308.53	3.9600	3.9602	0.9285	7.88	1.89	0.750			
0.2889	18486.87	3.9570	3.9570	0.9381	7.88	1.89	0.750			
0.2917	18668.84	3.9540	3.9539	0.9544	7.87	1.88	0.750			
0.2946	18854.12	3.9510	3.9510	0.9705	7.86	1.87	0.750			
0.2976	19044.08	3.9480	3.9480	0.9819	7.85	1.86	0.750			
0.3005	19233.32	3.9450	3.9450	0.9886	7.84	1.85	0.750			
0.3035	19423.44	3.9420	3.9420	0.9920	7.83	1.84	0.750			
0.3065	19612.99	3.9390	3.9390	0.9946	7.82	1.83	0.750			
0.3094	19804.62	3.9360	3.9360	1.0027	7.81	1.82	0.750			
0.3124	19995.96	3.9330	3.9327	1.0103	7.80	1.81	0.750			
0.3155	20192.40	3.9300	3.9301	1.0071	7.79	1.80	0.750			
0.3185	20386.60	3.9270	3.9269	1.0125	7.78	1.79	0.750			
0.3216	20580.11	3.9240	3.9242	1.0271	7.77	1.78	0.750			
0.3247	20778.29	3.9210	3.9207	1.0401	7.76	1.77	0.750			
0.3278	20976.61	3.9180	3.9179	1.0490	7.75	1.76	0.750			
0.3309	21178.31	3.9150	3.9152	1.0694	7.74	1.75	0.750			
0.3341	21385.56	3.9120	3.9120	1.0890	7.73	1.74	0.750			
0.3375	21601.82	3.9090	3.9088	1.0996	7.72	1.73	0.750			
0.3408	21810.93	3.9060	3.9060	1.1064	7.71	1.72	0.750			
0.3441	22022.56	3.9030	3.9031	1.1192	7.69	1.70	0.750			
0.3475	22241.52	3.9000	3.9001	1.1290	7.68	1.69	0.750			
0.3509	22460.48	3.8970	3.8968	1.1200	7.67	1.68	0.750			
0.3543	22674.42	3.8940	3.8942	1.1328	7.65	1.66	0.750			
0.3577	22891.58	3.8910	3.8912	1.1453	7.64	1.65	0.750			
0.3612	23114.14	3.8880	3.8878	1.1534	7.62	1.63	0.750			
0.3646	23335.46	3.8850	3.8850	1.1618	7.61	1.62	0.750			
0.3680	23555.19	3.8820	3.8821	1.1813	7.60	1.61	0.750			
0.3716	23783.93	3.8790	3.8791	1.2171	7.59	1.60	0.750			
0.3754	24022.91	3.8760	3.8758	1.2243	7.58	1.59	0.750			
0.3791	24261.96	3.8730	3.8730	1.2512	7.56	1.57	0.750			
0.3829	24504.01	3.8700	3.8701	1.2795	7.55	1.56	0.750			
0.3868	24752.83	3.8670	3.8671	1.3076	7.53	1.54	0.750			
0.3907	25005.86	3.8640	3.8641	1.3259	7.52	1.53	0.750			
0.3947	25263.50	3.8610	3.8611	1.3383	7.50	1.51	0.750	0.381	0.874	
0.3988	25524.84	3.8580	3.8580	1.3436	7.48	1.49	0.750			
0.4029	25784.14	3.8550	3.8551	1.3797	7.47	1.48	0.750			
0.4070	26047.05	3.8520	3.8521	1.3893	7.45	1.46	0.750			
0.4112	26316.54	3.8490	3.8487	1.3999	7.43	1.44	0.750			
0.4154	26583.62	3.8460	3.8461	1.4347	7.42	1.43	0.750			
0.4198	26864.48	3.8430	3.8432	1.4561	7.39	1.40	0.750			
0.4242	27149.99	3.8400	3.8398	1.4732	7.37	1.38	0.750			
0.4287	27435.32	3.8370	3.8372	1.4855	7.35	1.36	0.750			
0.4331	27720.65	3.8340	3.8342	1.5038	7.34	1.35	0.750			
0.4377	28011.46	3.8310	3.8310	1.5365	7.32	1.33	0.750			
0.4422	28302.57	3.8280	3.8279	1.5668	7.30	1.31	0.750			
0.4470	28606.85	3.8250	3.8248	1.5919	7.28	1.29	0.750			
0.4518	28916.92	3.8220	3.8220	1.6531	7.26	1.27	0.750			
0.4569	29240.45	3.8190	3.8189	1.7061	7.24	1.25	0.750			
0.4622	29578.89	3.8160	3.8159	1.7097	7.21	1.22	0.750			
0.4673	29907.16	3.8130	3.8130	1.7394	7.19	1.20	0.750			
0.4725	30237.54	3.8100	3.8101	1.7617	7.16	1.17	0.750			
0.4778	30578.69	3.8070	3.8067	1.8015	7.14	1.15	0.750			
0.4833	30929.53	3.8040	3.8039	1.8363	7.12	1.13	0.750			
0.4888	31282.78	3.8010	3.8011	1.8467	7.09	1.10	0.750			
0.4946	31654.29	3.7980	3.7982	1.9014	7.07	1.08	0.750			
0.5003	32018.63	3.7950	3.7948	1.9009	7.04	1.05	0.750			
0.5059	32376.69	3.7920	3.7918	1.9027	7.01	1.02	0.750			
0.5116	32743.46	3.7890	3.7892	1.9323	6.98	0.99	0.750			
0.5175	33121.81	3.7860	3.7860	1.9739	6.95	0.96	0.750			
0.5235	33504.80	3.7830	3.7829	2.0240	6.93	0.94	0.750			
0.5296	33893.43	3.7800	3.7800	2.0369	6.90	0.91	0.750			
0.5358	34290.97	3.7770	3.7770	2.0865	6.88	0.89	0.750			
0.5421	34695.45	3.7740	3.7741	2.1291	6.85	0.86	0.750			
0.5486	35107.32	3.7710	3.7709	2.1527	6.82	0.83	0.750			
0.5551	35524.18	3.7680	3.7680	2.1967	6.78	0.79	0.750			
0.5618	35953.03	3.7650	3.7649	2.2421	6.75	0.76	0.750			
0.5685	36383.73	3.7620	3.7620	2.2651	6.72	0.73	0.750			
0.5753	36819.22	3.7590	3.7592	2.3471	6.69	0.70	0.750			
0.5826	37284.69	3.7560	3.7559	2.4703	6.66	0.67	0.750			
0.5900	37763.02	3.7530	3.7531	2.6026	6.62	0.63	0.750			
0.5981	38280.65	3.7500	3.7500	2.7359	6.58	0.59	0.750			
0.6065	38817.40	3.7470	3.7470	2.8336	6.54	0.55	0.750			
0.6152	39372.45	3.7440	3.7440	2.9295	6.51	0.52	0.750			
0.6242	39945.87	3.7410	3.7410	3.0450	6.47	0.48	0.750			
0.6336	40548.52	3.7380	3.7379	3.0888	6.43	0.44	0.750			
0.6428	41140.28	3.7350	3.7350	3.1180	6.39	0.40	0.750			
0.6524	41752.34	3.7320	3.7318	3.0862	6.35	0.36	0.750			
0.6617	42346.79	3.7290	3.7290	2.9213	6.31	0.32	0.750			
0.6700	42882.47	3.7260	3.7260	2.6351	6.29	0.30	0.750			
0.6773	43346.44	3.7230	3.7231	2.3236	6.26	0.27	0.750			
0.6837	43758.62	3.7200	3.7200	2.0384	6.23	0.24	0.750			
0.6894	44120.36	3.7170	3.7170	1.7993	6.21	0.22	0.750			
0.6943	44433.13	3.7140	3.7141	1.5891	6.20	0.21	0.750			
0.6987	44716.05	3.7110	3.7110	1.4386	6.18	0.19	0.750			
0.7025	44962.33	3.7080	3.7080	1.3134	6.18	0.19	0.750			
0.7062	45198.94	3.7050	3.7050	1.2252	6.17	0.18	0.750			
0.7097	45417.82	3.7020	3.7021	1.1639	6.16	0.17	0.750			
0.7131	45638.04	3.6990	3.6989	1.1294	6.16	0.17	0.750			
0.7164	45849.50	3.6960	3.6962	1.1060	6.14	0.15	0.750			
0.7197	46058.66	3.6930	3.6930	1.0829	6.13	0.14	0.750			
0.7229	46266.16	3.6900	3.6899	1.0683	6.12	0.13	0.750			
0.7261	46468.69	3.6870	3.6870	1.0482	6.11	0.12	0.750			
0.7292	46670.00	3.6840	3.6841	1.0371	6.10	0.11	0.750			
0.7323	46867.92	3.6810	3.6809	1.0143	6.09	0.10	0.750			
0.7353	47061.15	3.6780	3.6782	0.9921	6.08	0.09	0.750			
0.7383	47248.78	3.6750	3.6750	0.9630	6.07	0.08	0.750			
0.7411	47431.60	3.6720	3.6721	0.9405	6.06	0.07	0.750			
0.7439	47607.61	3.6690	3.6689	0.9200	6.05	0.06	0.750			
0.7466	47779.99	3.6660	3.6662	0.9110	6.05	0.06	0.750			
0.7493	47952.70	3.6630	3.6628	0.9046	6.04	0.05	0.750			
0.7520	48126.23	3.6600	3.6600	0.9067	6.03	0.04	0.750			
0.7547	48299.92	3.6570	3.6571	0.9116	6.03	0.04	0.750			
0.7574	48474.40	3.6540	3.6540	0.9265	6.02	0.03	0.750			
0.7602	48654.37	3.6510	3.6511	0.9318	6.02	0.03	0.750			
0.7630	48832.74	3.6480	3.6479	0.9351	6.01	0.02	0.750			
0.7659	49014.46	3.6450	3.6450	0.9373	6.00	0.01	0.750			
0.7688	49200.15	3.6420	3.6420	0.9296	6.00	0.01	0.750			
0.7716	49380.38	3.6390	3.6389	0.9050	6.00	0.01	0.750			
0.7744	49560.00	3.6360	3.6360	0.8478	5.99	0.00	0.750			
0.7769	49724.17	3.6330	3.6331	0.7759	5.99	-0.00	0.750			
0.7792	49871.09	3.6300	3.6300	0.6803	5.98	-0.01	0.750			
0.7812	49994.62	3.6270	3.6272	0.5756	5.98	-0.01	0.750			
0.7824	50076.56	3.6240	3.6246	0.4777	5.98	-0.01	0.750			
0.7837	50159.18	3.6210	3.6211	0.3893	5.98	-0.01	0.750			
0.7847	50219.81	3.6180	3.6180	0.2921	5.97	-0.02	0.750			
0.7854	50267.03	3.6150	3.6145	0.2276	5.97	-0.02	0.750			
0.7859	50300.56	3.6120	3.6101	0.1669	5.97	-0.02	0.750			
0.7863	50320.80	3.5940	3.5486	-0.1004	5.97	-0.02	0.749			
0.7863	50322.27	3.6090	3.5305	0.1124	5.97	-0.02	0.749			
0.7865	50334.26	3.6060	3.3834	0.0654	5.97	-0.02	0.746			
0.7865	50336.10	3.5970	3.3607	-0.0590	5.97	-0.02	0.746			
0.7866	50342.83	3.6030	3.2781	0.0239	5.97	-0.02	0.744			
0.7866	50343.45	3.6000	3.2705	-0.0175	5.97	-0.02	0.744			
