Ah_balance (normalized)	Ah_balance (mAh)	Voltage - fit (V)	Voltage -  interpolate (V)	dQ/dV (1/V)	Temperature (°C)	Temperature - diff (°C)	Current (C)	R_DC 0ms (mOhm)	R_DC 50ms (mOhm)	R_DC 50 ms PEC (mOhm)
0.4675	29918.87	3.7690	3.7691	1.3552	26.20	1.14	0.750			
0.4718	30193.45	3.7660	3.7659	1.4680	26.18	1.12	0.750			
0.4763	30485.58	3.7630	3.7630	1.5275	26.15	1.09	0.750			
0.4810	30787.03	3.7600	3.7601	1.5672	26.13	1.07	0.750			
0.4858	31090.48	3.7570	3.7570	1.6294	26.11	1.05	0.750			
0.4908	31409.16	3.7540	3.7540	1.6571	26.08	1.02	0.750			
0.4957	31727.86	3.7510	3.7511	1.7054	26.06	1.00	0.750			
0.5010	32066.49	3.7480	3.7480	1.7443	26.03	0.97	0.750			
0.5063	32405.66	3.7450	3.7450	1.7804	26.01	0.95	0.750			
0.5116	32742.65	3.7420	3.7423	1.7873	25.98	0.92	0.750			
0.5170	33085.26	3.7390	3.7391	1.8730	25.96	0.90	0.750			
0.5227	33454.00	3.7360	3.7359	1.9339	25.93	0.87	0.750			
0.5288	33844.87	3.7330	3.7331	2.0161	25.91	0.85	0.750			
0.5349	34231.60	3.7300	3.7300	2.0615	25.88	0.82	0.750			
0.5412	34634.12	3.7270	3.7269	2.1451	25.85	0.79	0.750			
0.5477	35055.45	3.7240	3.7241	2.2237	25.82	0.76	0.750			
0.5545	35489.51	3.7210	3.7208	2.2146	25.80	0.74	0.750			
0.5610	35906.52	3.7180	3.7181	2.2868	25.77	0.71	0.750			
0.5681	36360.67	3.7150	3.7148	2.3869	25.73	0.67	0.750			
0.5754	36823.63	3.7120	3.7121	2.6007	25.71	0.65	0.750			
0.5835	37341.06	3.7090	3.7089	2.6085	25.68	0.62	0.750			
0.5914	37852.05	3.7060	3.7060	2.7039	25.65	0.59	0.750			
0.5994	38358.55	3.7030	3.7029	2.7629	25.63	0.57	0.750			
0.6080	38914.05	3.7000	3.7001	2.8687	25.59	0.53	0.750			
0.6167	39470.60	3.6970	3.6971	2.9186	25.56	0.50	0.750			
0.6255	40032.06	3.6940	3.6939	3.0949	25.54	0.48	0.750			
0.6355	40671.17	3.6910	3.6909	3.2640	25.50	0.44	0.750			
0.6448	41265.34	3.6880	3.6880	3.1036	25.47	0.41	0.750			
0.6541	41859.73	3.6850	3.6849	2.9067	25.45	0.39	0.750			
0.6624	42391.55	3.6820	3.6819	2.6088	25.43	0.37	0.750			
0.6693	42832.37	3.6790	3.6792	2.1500	25.42	0.36	0.750			
0.6755	43234.48	3.6760	3.6759	2.0521	25.41	0.35	0.750			
0.6814	43609.76	3.6730	3.6728	1.8423	25.39	0.33	0.750			
0.6866	43944.43	3.6700	3.6703	1.7053	25.38	0.32	0.750			
0.6916	44261.83	3.6670	3.6668	1.5918	25.37	0.31	0.750			
0.6959	44539.89	3.6640	3.6639	1.4578	25.36	0.30	0.750			
0.7002	44814.18	3.6610	3.6611	1.4002	25.35	0.29	0.750			
0.7044	45079.87	3.6580	3.6579	1.3623	25.34	0.28	0.750			
0.7083	45330.95	3.6550	3.6548	1.3115	25.33	0.27	0.750			
0.7121	45574.30	3.6520	3.6520	1.2884	25.32	0.26	0.750			
0.7159	45815.43	3.6490	3.6491	1.2956	25.31	0.25	0.750			
0.7197	46063.09	3.6460	3.6459	1.3195	25.30	0.24	0.750			
0.7237	46315.68	3.6430	3.6431	1.3188	25.29	0.23	0.750			
0.7277	46572.75	3.6400	3.6401	1.3266	25.28	0.22	0.750			
0.7318	46832.98	3.6370	3.6371	1.3293	25.27	0.21	0.750			
0.7358	47089.10	3.6340	3.6341	1.3024	25.26	0.20	0.750			
0.7396	47334.55	3.6310	3.6311	1.2861	25.25	0.19	0.750			
0.7434	47578.50	3.6280	3.6281	1.2825	25.25	0.19	0.750			
0.7472	47820.62	3.6250	3.6250	1.2786	25.24	0.18	0.750			
0.7510	48066.97	3.6220	3.6220	1.2993	25.23	0.17	0.750			
0.7550	48318.56	3.6190	3.6191	1.3319	25.22	0.16	0.750			
0.7590	48578.92	3.6160	3.6160	1.3585	25.21	0.15	0.750			
0.7632	48843.17	3.6130	3.6130	1.3775	25.20	0.14	0.750			
0.7673	49106.11	3.6100	3.6101	1.4337	25.19	0.13	0.750			
0.7717	49387.13	3.6070	3.6070	1.4562	25.18	0.12	0.750			
0.7761	49670.43	3.6040	3.6040	1.5195	25.16	0.10	0.750			
0.7807	49967.91	3.6010	3.6011	1.5400	25.14	0.08	0.750			
0.7855	50270.28	3.5980	3.5979	1.5284	25.12	0.06	0.750			
0.7900	50556.95	3.5950	3.5949	1.5487	25.10	0.04	0.750			
0.7947	50863.08	3.5920	3.5919	1.5965	25.08	0.02	0.750			
0.7994	51163.79	3.5890	3.5891	1.6396	25.07	0.01	0.750			
0.8046	51494.15	3.5860	3.5861	1.6804	25.05	-0.01	0.750			
0.8098	51826.95	3.5830	3.5829	1.7051	25.04	-0.02	0.750			
0.8149	52151.03	3.5800	3.5801	1.6951	25.02	-0.04	0.750			
0.8200	52479.04	3.5770	3.5770	1.7148	25.01	-0.05	0.750			
0.8249	52795.27	3.5740	3.5741	1.7244	25.00	-0.06	0.750			
0.8302	53133.47	3.5710	3.5709	1.7675	24.99	-0.07	0.750			
0.8356	53479.01	3.5680	3.5680	1.7780	24.97	-0.09	0.750			
0.8410	53824.05	3.5650	3.5650	1.8120	24.96	-0.10	0.750			
0.8465	54177.76	3.5620	3.5620	1.7474	24.95	-0.11	0.750			
0.8520	54529.36	3.5590	3.5590	1.5980	24.95	-0.11	0.750			
0.8562	54795.45	3.5560	3.5563	1.2712	24.95	-0.11	0.750			
0.8598	55024.24	3.5530	3.5534	1.0413	24.95	-0.11	0.750			
0.8623	55190.14	3.5500	3.5497	0.7940	24.95	-0.11	0.750			
0.8640	55295.47	3.5470	3.5467	0.6098	24.95	-0.11	0.750			
0.8653	55376.12	3.5440	3.5438	0.4698	24.96	-0.10	0.750			
0.8664	55446.80	3.5410	3.5410	0.4004	24.96	-0.10	0.750			
0.8674	55516.65	3.5380	3.5380	0.3645	24.96	-0.10	0.750			
0.8684	55580.64	3.5350	3.5350	0.3375	24.96	-0.10	0.750			
0.8694	55642.59	3.5320	3.5320	0.3224	24.96	-0.10	0.750			
0.8704	55702.67	3.5290	3.5290	0.3089	24.96	-0.10	0.750			
0.8713	55760.28	3.5260	3.5259	0.2985	24.96	-0.10	0.750			
0.8721	55816.61	3.5230	3.5231	0.2910	24.96	-0.10	0.750			
0.8730	55871.14	3.5200	3.5200	0.2847	24.96	-0.10	0.750			
0.8738	55924.84	3.5170	3.5169	0.2809	24.96	-0.10	0.750			
0.8747	55978.31	3.5140	3.5140	0.2748	24.97	-0.09	0.750			
0.8755	56030.45	3.5110	3.5109	0.2706	24.97	-0.09	0.750			
0.8763	56082.90	3.5080	3.5080	0.2658	24.97	-0.09	0.750			
0.8771	56133.66	3.5050	3.5052	0.2606	24.97	-0.09	0.750			
0.8779	56182.71	3.5020	3.5021	0.2562	24.97	-0.09	0.750			
0.8786	56230.58	3.4990	3.4989	0.2503	24.97	-0.09	0.750			
0.8793	56278.12	3.4960	3.4960	0.2472	24.97	-0.09	0.750			
0.8801	56324.94	3.4930	3.4930	0.2444	24.97	-0.09	0.750			
0.8808	56372.88	3.4900	3.4900	0.2416	24.98	-0.08	0.750			
0.8815	56418.82	3.4870	3.4870	0.2382	24.98	-0.08	0.750			
0.8822	56463.70	3.4840	3.4841	0.2339	24.98	-0.08	0.750			
0.8829	56508.27	3.4810	3.4810	0.2304	24.98	-0.08	0.750			
0.8836	56551.65	3.4780	3.4779	0.2286	24.98	-0.08	0.750			
0.8843	56595.34	3.4750	3.4750	0.2259	24.98	-0.08	0.750			
0.8850	56638.90	3.4720	3.4718	0.2225	24.98	-0.08	0.750			
0.8856	56681.34	3.4690	3.4691	0.2195	24.98	-0.08	0.750			
0.8863	56724.00	3.4660	3.4660	0.2166	24.98	-0.08	0.750			
0.8870	56764.90	3.4630	3.4630	0.2128	24.99	-0.07	0.750			
0.8876	56805.03	3.4600	3.4600	0.2095	24.99	-0.07	0.750			
0.8882	56844.98	3.4570	3.4569	0.2065	24.99	-0.07	0.750			
0.8888	56883.69	3.4540	3.4540	0.2038	24.99	-0.07	0.750			
0.8894	56922.76	3.4510	3.4510	0.2017	24.99	-0.07	0.750			
0.8900	56961.70	3.4480	3.4481	0.1998	24.99	-0.07	0.750			
0.8906	56999.79	3.4450	3.4449	0.1970	24.99	-0.07	0.750			
0.8912	57037.17	3.4420	3.4421	0.1956	24.99	-0.07	0.750			
0.8918	57074.33	3.4390	3.4390	0.1938	24.99	-0.07	0.750			
0.8924	57111.48	3.4360	3.4359	0.1914	24.99	-0.07	0.750			
0.8929	57148.05	3.4330	3.4329	0.1896	25.00	-0.06	0.750			
0.8935	57184.35	3.4300	3.4301	0.1878	25.00	-0.06	0.750			
0.8941	57220.37	3.4270	3.4271	0.1863	25.00	-0.06	0.750			
0.8946	57256.16	3.4240	3.4240	0.1842	25.00	-0.06	0.750			
0.8952	57291.27	3.4210	3.4209	0.1815	25.00	-0.06	0.750			
0.8957	57325.59	3.4180	3.4180	0.1786	25.00	-0.06	0.750			
0.8962	57359.86	3.4150	3.4150	0.1760	25.00	-0.06	0.750			
0.8968	57393.73	3.4120	3.4120	0.1737	25.00	-0.06	0.750			
0.8973	57426.74	3.4090	3.4090	0.1700	25.00	-0.06	0.750			
0.8978	57458.58	3.4060	3.4061	0.1683	25.00	-0.06	0.750			
0.8983	57490.38	3.4030	3.4030	0.1661	25.01	-0.05	0.750			
0.8988	57522.16	3.4000	3.3999	0.1649	25.01	-0.05	0.750			
0.8993	57553.70	3.3970	3.3968	0.1626	25.01	-0.05	0.750			
0.8998	57584.72	3.3940	3.3941	0.1610	25.01	-0.05	0.750			
0.9002	57615.75	3.3910	3.3911	0.1597	25.01	-0.05	0.750			
0.9007	57646.20	3.3880	3.3880	0.1575	25.01	-0.05	0.750			
0.9012	57676.47	3.3850	3.3848	0.1554	25.01	-0.05	0.750			
0.9016	57705.55	3.3820	3.3820	0.1532	25.01	-0.05	0.750			
0.9021	57734.93	3.3790	3.3789	0.1517	25.02	-0.04	0.750			
0.9026	57763.91	3.3760	3.3760	0.1501	25.02	-0.04	0.750			
0.9030	57792.69	3.3730	3.3730	0.1487	25.02	-0.04	0.750			
0.9034	57820.76	3.3700	3.3701	0.1475	25.02	-0.04	0.750			
0.9039	57849.15	3.3670	3.3670	0.1461	25.02	-0.04	0.750			
0.9043	57877.07	3.3640	3.3639	0.1447	25.02	-0.04	0.750			
0.9048	57904.90	3.3610	3.3610	0.1429	25.02	-0.04	0.750			
0.9052	57932.09	3.3580	3.3581	0.1412	25.02	-0.04	0.750			
0.9056	57959.15	3.3550	3.3551	0.1398	25.02	-0.04	0.750			
0.9060	57985.80	3.3520	3.3519	0.1379	25.02	-0.04	0.750			
0.9064	58012.14	3.3490	3.3489	0.1355	25.03	-0.03	0.750			
0.9068	58037.79	3.3460	3.3460	0.1332	25.03	-0.03	0.750			
0.9072	58063.18	3.3430	3.3431	0.1325	25.03	-0.03	0.750			
0.9076	58088.44	3.3400	3.3401	0.1313	25.03	-0.03	0.750			
0.9080	58113.49	3.3370	3.3369	0.1299	25.03	-0.03	0.750			
0.9084	58138.17	3.3340	3.3339	0.1284	25.03	-0.03	0.750			
0.9088	58162.83	3.3310	3.3312	0.1270	25.03	-0.03	0.750			
0.9092	58187.21	3.3280	3.3281	0.1258	25.03	-0.03	0.750			
0.9096	58211.60	3.3250	3.3249	0.1247	25.03	-0.03	0.750			
0.9099	58235.10	3.3220	3.3220	0.1220	25.03	-0.03	0.750			
0.9103	58258.27	3.3190	3.3190	0.1208	25.03	-0.03	0.750			
0.9106	58281.29	3.3160	3.3161	0.1194	25.04	-0.02	0.750			
0.9110	58304.05	3.3130	3.3130	0.1184	25.04	-0.02	0.750			
0.9114	58326.53	3.3100	3.3099	0.1172	25.04	-0.02	0.750			
0.9117	58349.06	3.3070	3.3069	0.1158	25.04	-0.02	0.750			
0.9121	58371.23	3.3040	3.3040	0.1146	25.04	-0.02	0.750			
0.9124	58393.14	3.3010	3.3012	0.1132	25.04	-0.02	0.750			
0.9127	58414.94	3.2980	3.2980	0.1119	25.04	-0.02	0.750			
0.9131	58436.21	3.2950	3.2950	0.1106	25.04	-0.02	0.750			
0.9134	58457.23	3.2920	3.2920	0.1091	25.04	-0.02	0.750			
0.9137	58478.01	3.2890	3.2890	0.1079	25.04	-0.02	0.750			
0.9140	58498.46	3.2860	3.2860	0.1066	25.04	-0.02	0.750			
0.9144	58518.84	3.2830	3.2830	0.1054	25.04	-0.02	0.750			
0.9147	58539.02	3.2800	3.2800	0.1043	25.05	-0.01	0.750			
0.9150	58559.02	3.2770	3.2769	0.1027	25.05	-0.01	0.750			
0.9153	58578.71	3.2740	3.2740	0.1013	25.05	-0.01	0.750			
0.9156	58597.97	3.2710	3.2710	0.0999	25.05	-0.01	0.750			
0.9159	58617.05	3.2680	3.2680	0.0984	25.05	-0.01	0.750			
0.9162	58635.64	3.2650	3.2651	0.0978	25.05	-0.01	0.750			
0.9165	58654.09	3.2620	3.2619	0.0966	25.05	-0.01	0.750			
0.9168	58672.66	3.2590	3.2589	0.0954	25.05	-0.01	0.750			
0.9170	58690.78	3.2560	3.2560	0.0944	25.05	-0.01	0.750			
0.9173	58708.90	3.2530	3.2531	0.0932	25.05	-0.01	0.750			
0.9176	58726.91	3.2500	3.2501	0.0923	25.05	-0.01	0.750			
0.9179	58744.47	3.2470	3.2470	0.0910	25.05	-0.01	0.750			
0.9182	58761.92	3.2440	3.2440	0.0898	25.05	-0.01	0.750			
0.9184	58778.96	3.2410	3.2409	0.0886	25.05	-0.01	0.750			
0.9187	58795.62	3.2380	3.2380	0.0872	25.05	-0.01	0.750			
0.9189	58812.21	3.2350	3.2350	0.0866	25.06	-0.00	0.750			
0.9192	58828.74	3.2320	3.2320	0.0858	25.06	-0.00	0.750			
0.9195	58845.20	3.2290	3.2289	0.0849	25.06	-0.00	0.750			
0.9197	58861.39	3.2260	3.2260	0.0840	25.06	-0.00	0.750			
0.9200	58877.45	3.2230	3.2230	0.0832	25.06	-0.00	0.750			
0.9202	58893.50	3.2200	3.2200	0.0822	25.06	-0.00	0.750			
0.9205	58909.17	3.2170	3.2171	0.0811	25.06	-0.00	0.750			
0.9207	58924.82	3.2140	3.2141	0.0800	25.06	-0.00	0.750			
0.9209	58940.01	3.2110	3.2110	0.0789	25.06	0.00	0.750			
0.9212	58954.95	3.2080	3.2080	0.0776	25.06	0.00	0.750			
0.9214	58969.78	3.2050	3.2050	0.0763	25.06	0.00	0.750			
0.9216	58984.32	3.2020	3.2020	0.0751	25.06	0.00	0.750			
0.9219	58998.66	3.1990	3.1991	0.0739	25.06	0.00	0.750			
0.9221	59012.67	3.1960	3.1960	0.0729	25.06	0.00	0.750			
0.9223	59026.53	3.1930	3.1929	0.0717	25.06	0.00	0.750			
0.9225	59040.20	3.1900	3.1899	0.0707	25.06	0.00	0.750			
0.9227	59053.60	3.1870	3.1871	0.0700	25.06	0.00	0.750			
0.9229	59066.79	3.1840	3.1840	0.0690	25.07	0.01	0.750			
0.9231	59080.09	3.1810	3.1809	0.0681	25.07	0.01	0.750			
0.9233	59093.09	3.1780	3.1780	0.0673	25.07	0.01	0.750			
0.9235	59106.04	3.1750	3.1751	0.0666	25.07	0.01	0.750			
0.9237	59118.80	3.1720	3.1720	0.0654	25.07	0.01	0.750			
0.9239	59131.38	3.1690	3.1690	0.0645	25.07	0.01	0.750			
0.9241	59143.64	3.1660	3.1660	0.0632	25.07	0.01	0.750			
0.9243	59155.58	3.1630	3.1630	0.0623	25.07	0.01	0.750			
0.9245	59167.33	3.1600	3.1600	0.0611	25.07	0.01	0.750			
0.9247	59178.97	3.1570	3.1571	0.0601	25.07	0.01	0.750			
0.9249	59190.40	3.1540	3.1539	0.0592	25.07	0.01	0.750			
0.9250	59201.62	3.1510	3.1510	0.0582	25.07	0.01	0.750			
0.9252	59212.71	3.1480	3.1479	0.0573	25.07	0.01	0.750			
0.9254	59223.63	3.1450	3.1451	0.0564	25.07	0.01	0.750			
0.9255	59234.43	3.1420	3.1421	0.0555	25.07	0.01	0.750			
0.9257	59245.00	3.1390	3.1390	0.0546	25.07	0.01	0.750			
0.9259	59255.39	3.1360	3.1360	0.0536	25.07	0.01	0.750			
0.9260	59265.86	3.1330	3.1329	0.0523	25.07	0.01	0.750			
0.9262	59275.77	3.1300	3.1299	0.0509	25.07	0.01	0.750			
0.9263	59285.42	3.1270	3.1270	0.0496	25.07	0.01	0.750			
0.9265	59295.08	3.1240	3.1241	0.0483	25.07	0.01	0.750			
0.9266	59304.84	3.1210	3.1209	0.0454	25.07	0.01	0.750			
0.9268	59313.29	3.1180	3.1179	0.0426	25.07	0.01	0.750			
0.9269	59321.21	3.1150	3.1152	0.0398	25.07	0.01	0.750			
0.9270	59329.23	3.1120	3.1122	0.0379	25.07	0.01	0.750			
0.9271	59336.19	3.1090	3.1095	0.0346	25.08	0.02	0.750			
0.9272	59342.53	3.1060	3.1068	0.0314	25.08	0.02	0.750			
0.9273	59348.24	3.1030	3.1043	0.0281	25.08	0.02	0.750			
0.9274	59353.32	3.1000	3.1017	0.0249	25.08	0.02	0.750			
0.9275	59357.78	3.0970	3.0993	0.0216	25.08	0.02	0.750			
0.9275	59361.61	3.0940	3.0968	0.0183	25.08	0.02	0.750			
