Ah_balance (normalized)	Ah_balance (mAh)	Voltage - fit (V)	Voltage -  interpolate (V)	dQ/dV (1/V)	Temperature (°C)	Temperature - diff (°C)	Current (C)	R_DC 0ms (mOhm)	R_DC 50ms (mOhm)	R_DC 50 ms PEC (mOhm)
0.0965	6176.62	4.1960	4.1981	0.6443	8.47	2.42	0.750			
0.0989	6327.80	4.1930	4.1948	0.7572	8.46	2.41	0.750			
0.1013	6480.08	4.1900	4.1910	0.7795	8.45	2.40	0.750			
0.1038	6642.63	4.1870	4.1876	0.7882	8.44	2.39	0.750			
0.1061	6790.30	4.1840	4.1842	0.7625	8.43	2.38	0.750			
0.1088	6961.32	4.1810	4.1804	0.7888	8.43	2.38	0.750			
0.1105	7069.52	4.1780	4.1779	0.7117	8.42	2.37	0.750			
0.1126	7208.07	4.1750	4.1750	0.7161	8.41	2.36	0.750			
0.1148	7346.62	4.1720	4.1721	0.7216	8.41	2.36	0.750			
0.1170	7485.99	4.1690	4.1690	0.7206	8.40	2.35	0.750			
0.1192	7625.87	4.1660	4.1660	0.7179	8.39	2.34	0.750			
0.1213	7761.96	4.1630	4.1630	0.7153	8.39	2.34	0.750			
0.1234	7896.67	4.1600	4.1599	0.7199	8.38	2.33	0.750			
0.1255	8034.89	4.1570	4.1570	0.7242	8.37	2.32	0.750			
0.1277	8174.94	4.1540	4.1539	0.7289	8.37	2.32	0.750			
0.1299	8315.83	4.1510	4.1510	0.7322	8.36	2.31	0.750			
0.1322	8459.46	4.1480	4.1481	0.7275	8.36	2.31	0.750			
0.1344	8600.22	4.1450	4.1451	0.7251	8.35	2.30	0.750			
0.1365	8737.05	4.1420	4.1420	0.7195	8.35	2.30	0.750			
0.1386	8872.22	4.1390	4.1388	0.7202	8.34	2.29	0.750			
0.1407	9007.35	4.1360	4.1360	0.7265	8.33	2.28	0.750			
0.1429	9147.27	4.1330	4.1330	0.7363	8.32	2.27	0.750			
0.1452	9290.57	4.1300	4.1299	0.7507	8.31	2.26	0.750			
0.1475	9438.79	4.1270	4.1270	0.7592	8.31	2.26	0.750			
0.1498	9586.64	4.1240	4.1241	0.7620	8.30	2.25	0.750			
0.1521	9733.51	4.1210	4.1210	0.7625	8.29	2.24	0.750			
0.1543	9877.74	4.1180	4.1181	0.7618	8.28	2.23	0.750			
0.1566	10024.37	4.1150	4.1150	0.7607	8.28	2.23	0.750			
0.1589	10169.24	4.1120	4.1120	0.7645	8.27	2.22	0.750			
0.1612	10315.53	4.1090	4.1090	0.7682	8.27	2.22	0.750			
0.1635	10465.84	4.1060	4.1057	0.7699	8.26	2.21	0.750			
0.1659	10614.90	4.1030	4.1030	0.7732	8.25	2.20	0.750			
0.1682	10763.95	4.1000	4.1001	0.7673	8.25	2.20	0.750			
0.1705	10909.55	4.0970	4.0971	0.7717	8.24	2.19	0.750			
0.1728	11058.92	4.0940	4.0939	0.7774	8.23	2.18	0.750			
0.1751	11204.75	4.0910	4.0910	0.7757	8.22	2.17	0.750			
0.1774	11354.46	4.0880	4.0881	0.7856	8.22	2.17	0.750			
0.1798	11510.24	4.0850	4.0850	0.7913	8.21	2.16	0.750			
0.1822	11659.57	4.0820	4.0820	0.7967	8.21	2.16	0.750			
0.1846	11814.14	4.0790	4.0790	0.8043	8.20	2.15	0.750			
0.1870	11967.00	4.0760	4.0761	0.8031	8.19	2.14	0.750			
0.1894	12123.28	4.0730	4.0729	0.8074	8.19	2.14	0.750			
0.1919	12279.28	4.0700	4.0701	0.8109	8.18	2.13	0.750			
0.1943	12435.46	4.0670	4.0669	0.8136	8.17	2.12	0.750			
0.1968	12592.04	4.0640	4.0641	0.8187	8.16	2.11	0.750			
0.1992	12746.93	4.0610	4.0611	0.8211	8.15	2.10	0.750			
0.2017	12906.14	4.0580	4.0579	0.8295	8.14	2.09	0.750			
0.2042	13069.17	4.0550	4.0549	0.8288	8.13	2.08	0.750			
0.2067	13227.35	4.0520	4.0520	0.8358	8.12	2.07	0.750			
0.2092	13386.78	4.0490	4.0492	0.8384	8.11	2.06	0.750			
0.2117	13549.66	4.0460	4.0460	0.8389	8.11	2.06	0.750			
0.2142	13709.00	4.0430	4.0428	0.8426	8.10	2.05	0.750			
0.2168	13872.34	4.0400	4.0401	0.8402	8.09	2.04	0.750			
0.2193	14033.90	4.0370	4.0371	0.8485	8.08	2.03	0.750			
0.2218	14197.90	4.0340	4.0340	0.8504	8.07	2.02	0.750			
0.2244	14359.62	4.0310	4.0309	0.8502	8.06	2.01	0.750			
0.2269	14523.94	4.0280	4.0279	0.8506	8.05	2.00	0.750			
0.2295	14688.40	4.0250	4.0251	0.8543	8.04	1.99	0.750			
0.2321	14852.31	4.0220	4.0220	0.8526	8.03	1.98	0.750			
0.2347	15017.81	4.0190	4.0190	0.8616	8.02	1.97	0.750			
0.2372	15180.02	4.0160	4.0161	0.8602	8.02	1.97	0.750			
0.2398	15346.35	4.0130	4.0130	0.8706	8.01	1.96	0.750			
0.2424	15515.83	4.0100	4.0100	0.8674	8.00	1.95	0.750			
0.2450	15681.66	4.0070	4.0070	0.8829	7.99	1.94	0.750			
0.2477	15851.16	4.0040	4.0040	0.8866	7.97	1.92	0.750			
0.2504	16023.30	4.0010	4.0010	0.8917	7.96	1.91	0.750			
0.2530	16194.27	3.9980	3.9980	0.8954	7.95	1.90	0.750			
0.2557	16367.87	3.9950	3.9951	0.8990	7.95	1.90	0.750			
0.2585	16541.74	3.9920	3.9920	0.9019	7.94	1.89	0.750			
0.2612	16715.98	3.9890	3.9890	0.9121	7.93	1.88	0.750			
0.2639	16887.19	3.9860	3.9860	0.9047	7.92	1.87	0.750			
0.2666	17065.27	3.9830	3.9829	0.9081	7.91	1.86	0.750			
0.2694	17239.01	3.9800	3.9800	0.9162	7.90	1.85	0.750			
0.2721	17413.40	3.9770	3.9772	0.9239	7.89	1.84	0.750			
0.2749	17593.06	3.9740	3.9740	0.9302	7.88	1.83	0.750			
0.2777	17772.08	3.9710	3.9710	0.9320	7.88	1.83	0.750			
0.2805	17948.94	3.9680	3.9681	0.9319	7.87	1.82	0.750			
0.2833	18129.48	3.9650	3.9652	0.9448	7.86	1.81	0.750			
0.2861	18312.56	3.9620	3.9619	0.9544	7.85	1.80	0.750			
0.2889	18492.55	3.9590	3.9588	0.9566	7.84	1.79	0.750			
0.2918	18678.17	3.9560	3.9562	0.9643	7.83	1.78	0.750			
0.2948	18865.66	3.9530	3.9531	0.9782	7.82	1.77	0.750			
0.2978	19057.83	3.9500	3.9499	0.9856	7.81	1.76	0.750			
0.3007	19246.74	3.9470	3.9469	0.9877	7.80	1.75	0.750			
0.3037	19437.05	3.9440	3.9441	0.9854	7.79	1.74	0.750			
0.3067	19626.56	3.9410	3.9410	0.9937	7.77	1.72	0.750			
0.3096	19815.31	3.9380	3.9380	1.0028	7.76	1.71	0.750			
0.3126	20009.48	3.9350	3.9349	1.0083	7.75	1.70	0.750			
0.3157	20204.74	3.9320	3.9321	1.0135	7.73	1.68	0.750			
0.3188	20401.47	3.9290	3.9289	1.0273	7.72	1.67	0.750			
0.3218	20598.19	3.9260	3.9262	1.0371	7.71	1.66	0.750			
0.3250	20799.40	3.9230	3.9228	1.0458	7.70	1.65	0.750			
0.3281	21000.24	3.9200	3.9200	1.0365	7.69	1.64	0.750			
0.3312	21196.96	3.9170	3.9171	1.0576	7.68	1.63	0.750			
0.3344	21402.58	3.9140	3.9140	1.0809	7.67	1.62	0.750			
0.3377	21613.71	3.9110	3.9108	1.0971	7.65	1.60	0.750			
0.3410	21825.23	3.9080	3.9082	1.1027	7.64	1.59	0.750			
0.3443	22037.74	3.9050	3.9052	1.1203	7.63	1.58	0.750			
0.3477	22254.88	3.9020	3.9021	1.1448	7.61	1.56	0.750			
0.3513	22480.20	3.8990	3.8988	1.1445	7.60	1.55	0.750			
0.3547	22697.92	3.8960	3.8960	1.1408	7.59	1.54	0.750			
0.3581	22915.94	3.8930	3.8932	1.1568	7.57	1.52	0.750			
0.3616	23139.82	3.8900	3.8901	1.1748	7.56	1.51	0.750			
0.3651	23364.36	3.8870	3.8869	1.1821	7.54	1.49	0.750			
0.3686	23592.21	3.8840	3.8839	1.1956	7.53	1.48	0.750			
0.3722	23821.62	3.8810	3.8812	1.2142	7.52	1.47	0.750			
0.3760	24062.29	3.8780	3.8778	1.2242	7.50	1.45	0.750			
0.3796	24297.40	3.8750	3.8752	1.2478	7.48	1.43	0.750			
0.3834	24535.82	3.8720	3.8720	1.2599	7.46	1.41	0.750			
0.3872	24778.58	3.8690	3.8688	1.2735	7.44	1.39	0.750	0.392	0.834	
0.3910	25021.89	3.8660	3.8663	1.3064	7.42	1.37	0.750			
0.3950	25277.72	3.8630	3.8629	1.3389	7.41	1.36	0.750			
0.3991	25542.59	3.8600	3.8600	1.3624	7.39	1.34	0.750			
0.4032	25805.55	3.8570	3.8572	1.3817	7.37	1.32	0.750			
0.4074	26075.49	3.8540	3.8541	1.4109	7.36	1.31	0.750			
0.4117	26351.41	3.8510	3.8510	1.4179	7.34	1.29	0.750			
0.4159	26620.46	3.8480	3.8481	1.4405	7.32	1.27	0.750			
0.4202	26895.08	3.8450	3.8450	1.4562	7.30	1.25	0.750			
0.4247	27180.25	3.8420	3.8419	1.4727	7.28	1.23	0.750			
0.4291	27464.02	3.8390	3.8391	1.5007	7.26	1.21	0.750			
0.4336	27752.31	3.8360	3.8361	1.5233	7.23	1.18	0.750			
0.4382	28045.27	3.8330	3.8329	1.5551	7.21	1.16	0.750			
0.4429	28345.09	3.8300	3.8299	1.5757	7.19	1.14	0.750			
0.4477	28649.97	3.8270	3.8269	1.6068	7.17	1.12	0.750			
0.4526	28964.25	3.8240	3.8240	1.6417	7.14	1.09	0.750			
0.4576	29283.49	3.8210	3.8208	1.6668	7.11	1.06	0.750			
0.4626	29607.02	3.8180	3.8180	1.6807	7.09	1.04	0.750			
0.4677	29934.31	3.8150	3.8152	1.6941	7.06	1.01	0.750			
0.4727	30255.11	3.8120	3.8121	1.7139	7.04	0.99	0.750			
0.4779	30583.45	3.8090	3.8090	1.7295	7.01	0.96	0.750			
0.4832	30923.95	3.8060	3.8056	1.7589	6.99	0.94	0.750			
0.4885	31262.47	3.8030	3.8029	1.7837	6.96	0.91	0.750			
0.4938	31606.29	3.8000	3.8001	1.8384	6.93	0.88	0.750			
0.4995	31964.80	3.7970	3.7970	1.8607	6.90	0.85	0.750			
0.5050	32321.58	3.7940	3.7943	1.8811	6.88	0.83	0.750			
0.5107	32687.07	3.7910	3.7914	1.9068	6.86	0.81	0.750			
0.5166	33062.71	3.7880	3.7879	1.9285	6.83	0.78	0.750			
0.5224	33432.77	3.7850	3.7850	1.9063	6.80	0.75	0.750			
0.5280	33795.19	3.7820	3.7821	1.9217	6.77	0.72	0.750			
0.5339	34169.44	3.7790	3.7790	1.9769	6.75	0.70	0.750			
0.5398	34547.25	3.7760	3.7758	2.0271	6.73	0.68	0.750			
0.5460	34941.58	3.7730	3.7730	2.0817	6.70	0.65	0.750			
0.5523	35347.95	3.7700	3.7701	2.1568	6.67	0.62	0.750			
0.5590	35774.96	3.7670	3.7670	2.1930	6.64	0.59	0.750			
0.5655	36194.10	3.7640	3.7639	2.2405	6.61	0.56	0.750			
0.5722	36623.88	3.7610	3.7609	2.3361	6.59	0.54	0.750			
0.5794	37081.20	3.7580	3.7580	2.4275	6.56	0.51	0.750			
0.5868	37556.72	3.7550	3.7551	2.5526	6.53	0.48	0.750			
0.5947	38058.33	3.7520	3.7519	2.6854	6.49	0.44	0.750			
0.6029	38585.59	3.7490	3.7490	2.7973	6.45	0.40	0.750			
0.6116	39139.80	3.7460	3.7460	2.9462	6.43	0.38	0.750			
0.6206	39717.07	3.7430	3.7429	3.0061	6.39	0.34	0.750			
0.6297	40302.91	3.7400	3.7400	3.0870	6.36	0.31	0.750			
0.6392	40906.49	3.7370	3.7369	3.0307	6.33	0.28	0.750			
0.6482	41482.26	3.7340	3.7341	2.9340	6.30	0.25	0.750			
0.6570	42048.03	3.7310	3.7309	2.7041	6.27	0.22	0.750			
0.6646	42535.13	3.7280	3.7281	2.3815	6.25	0.20	0.750			
0.6712	42957.10	3.7250	3.7252	2.0999	6.23	0.18	0.750			
0.6768	43312.44	3.7220	3.7220	1.8286	6.22	0.17	0.750			
0.6818	43632.53	3.7190	3.7188	1.6211	6.20	0.15	0.750			
0.6861	43911.22	3.7160	3.7161	1.4490	6.19	0.14	0.750			
0.6903	44177.99	3.7130	3.7131	1.3442	6.18	0.13	0.750			
0.6941	44419.87	3.7100	3.7099	1.2444	6.17	0.12	0.750			
0.6975	44637.61	3.7070	3.7071	1.1718	6.17	0.12	0.750			
0.7009	44855.86	3.7040	3.7039	1.1375	6.16	0.11	0.750			
0.7041	45064.55	3.7010	3.7010	1.1022	6.15	0.10	0.750			
0.7074	45274.61	3.6980	3.6980	1.0892	6.15	0.10	0.750			
0.7107	45482.03	3.6950	3.6951	1.0765	6.14	0.09	0.750			
0.7139	45689.75	3.6920	3.6919	1.0591	6.13	0.08	0.750			
0.7171	45892.09	3.6890	3.6890	1.0307	6.12	0.07	0.750			
0.7201	46088.22	3.6860	3.6861	1.0030	6.11	0.06	0.750			
0.7231	46278.51	3.6830	3.6831	0.9766	6.11	0.06	0.750			
0.7260	46462.04	3.6800	3.6797	0.9528	6.10	0.05	0.750			
0.7287	46639.99	3.6770	3.6771	0.9291	6.10	0.05	0.750			
0.7315	46814.87	3.6740	3.6740	0.9206	6.09	0.04	0.750			
0.7343	46992.64	3.6710	3.6710	0.9140	6.09	0.04	0.750			
0.7370	47167.67	3.6680	3.6680	0.9059	6.08	0.03	0.750			
0.7397	47339.77	3.6650	3.6651	0.8948	6.08	0.03	0.750			
0.7424	47511.61	3.6620	3.6620	0.8795	6.07	0.02	0.750			
0.7449	47675.49	3.6590	3.6591	0.8842	6.07	0.02	0.750			
0.7476	47843.57	3.6560	3.6560	0.8965	6.07	0.02	0.750			
0.7502	48014.28	3.6530	3.6529	0.9027	6.06	0.01	0.750			
0.7530	48192.38	3.6500	3.6501	0.9102	6.06	0.01	0.750			
0.7558	48370.94	3.6470	3.6471	0.9157	6.06	0.01	0.750			
0.7587	48554.24	3.6440	3.6440	0.8912	6.05	0.00	0.750			
0.7614	48732.17	3.6410	3.6409	0.8517	6.05	0.00	0.750			
0.7640	48894.74	3.6380	3.6379	0.7712	6.05	-0.00	0.750			
0.7662	49038.10	3.6350	3.6351	0.6771	6.05	-0.00	0.750			
0.7681	49160.88	3.6320	3.6321	0.5789	6.05	-0.00	0.750			
0.7694	49244.09	3.6290	3.6295	0.4899	6.05	-0.00	0.750			
0.7707	49327.65	3.6260	3.6263	0.3925	6.04	-0.01	0.750			
0.7718	49393.39	3.6230	3.6228	0.3175	6.04	-0.01	0.750			
0.7725	49439.19	3.6200	3.6197	0.2364	6.04	-0.01	0.750			
0.7731	49475.64	3.6170	3.6150	0.1792	6.04	-0.01	0.750			
0.7733	49493.83	3.5960	3.5959	-0.1270	6.04	-0.01	0.750			
0.7735	49501.80	3.6140	3.4976	0.1280	6.04	-0.01	0.750			
0.7737	49514.25	3.5990	3.3302	-0.0856	6.04	-0.01	0.750			
0.7737	49516.42	3.6110	3.3010	0.0800	6.04	-0.01	0.750			
0.7739	49526.72	3.6020	3.1625	-0.0442	6.04	-0.01	0.750			
0.7739	49527.81	3.6080	3.1480	0.0386	6.04	-0.01	0.750			
0.7739	49531.24	3.6050	3.1018	-0.0028	6.04	-0.01	0.750			
