Ah_balance (normalized)	Ah_balance (mAh)	Voltage - fit (V)	Voltage -  interpolate (V)	dQ/dV (1/V)	Temperature (°C)	Temperature - diff (°C)	Current (C)	R_DC 0ms (mOhm)	R_DC 50ms (mOhm)	R_DC 50 ms PEC (mOhm)
0.0000	0.00	4.1020	4.1219	0.0000	5.99	-0.01	-0.750			
0.0002	11.61	4.0990	4.0984	-0.0346	5.99	-0.01	-0.750			
0.0004	24.37	4.0960	4.0955	-0.0732	6.00	-0.00	-0.750			
0.0007	44.00	4.0930	4.0924	-0.1032	6.00	-0.00	-0.750			
0.0010	66.49	4.0900	4.0899	-0.1310	6.00	-0.00	-0.750			
0.0015	94.60	4.0870	4.0871	-0.1566	6.00	-0.00	-0.750			
0.0020	127.27	4.0840	4.0843	-0.1824	6.00	-0.00	-0.750			
0.0026	166.90	4.0810	4.0810	-0.2082	6.00	-0.00	-0.750			
0.0033	208.31	4.0780	4.0779	-0.2335	6.00	-0.00	-0.750			
0.0040	254.60	4.0750	4.0749	-0.2574	6.00	-0.00	-0.750			
0.0048	306.97	4.0720	4.0720	-0.2799	6.00	-0.00	-0.750			
0.0057	364.00	4.0690	4.0690	-0.3033	6.00	-0.00	-0.750			
0.0066	424.35	4.0660	4.0661	-0.3233	6.00	0.00	-0.750			
0.0076	488.29	4.0630	4.0631	-0.3468	6.00	0.00	-0.750			
0.0087	556.91	4.0600	4.0600	-0.3678	6.00	0.00	-0.750			
0.0098	629.20	4.0570	4.0570	-0.3873	6.00	0.00	-0.750			
0.0110	706.03	4.0540	4.0540	-0.4069	6.00	0.00	-0.750			
0.0123	786.32	4.0510	4.0511	-0.4274	6.00	0.00	-0.750			
0.0136	870.33	4.0480	4.0481	-0.4496	6.01	0.01	-0.750			
0.0150	956.86	4.0450	4.0450	-0.4737	6.01	0.01	-0.750			
0.0164	1048.95	4.0420	4.0420	-0.4956	6.01	0.01	-0.750			
0.0179	1147.29	4.0390	4.0390	-0.5236	6.01	0.01	-0.750			
0.0196	1251.86	4.0360	4.0359	-0.5445	6.01	0.01	-0.750			
0.0212	1358.99	4.0330	4.0332	-0.5659	6.02	0.02	-0.750			
0.0230	1471.13	4.0300	4.0300	-0.5807	6.02	0.02	-0.750			
0.0248	1584.77	4.0270	4.0269	-0.5930	6.03	0.03	-0.750			
0.0266	1699.99	4.0240	4.0240	-0.6024	6.03	0.03	-0.750			
0.0284	1814.87	4.0210	4.0210	-0.6150	6.04	0.04	-0.750			
0.0302	1935.51	4.0180	4.0179	-0.6230	6.05	0.05	-0.750			
0.0321	2056.14	4.0150	4.0150	-0.6336	6.05	0.05	-0.750			
0.0340	2177.32	4.0120	4.0119	-0.6462	6.06	0.06	-0.750			
0.0360	2303.33	4.0090	4.0090	-0.6595	6.06	0.06	-0.750			
0.0380	2430.64	4.0060	4.0059	-0.6714	6.07	0.07	-0.750			
0.0400	2562.29	4.0030	4.0031	-0.6850	6.08	0.08	-0.750			
0.0421	2694.43	4.0000	4.0000	-0.6928	6.08	0.08	-0.750			
0.0442	2830.36	3.9970	3.9971	-0.7052	6.09	0.09	-0.750			
0.0463	2965.85	3.9940	3.9939	-0.7083	6.10	0.10	-0.750			
0.0485	3101.55	3.9910	3.9911	-0.7130	6.11	0.11	-0.750			
0.0506	3240.60	3.9880	3.9880	-0.7187	6.12	0.12	-0.750			
0.0528	3380.37	3.9850	3.9850	-0.7206	6.13	0.13	-0.750			
0.0550	3517.91	3.9820	3.9819	-0.7240	6.13	0.13	-0.750			
0.0571	3655.83	3.9790	3.9791	-0.7272	6.14	0.14	-0.750			
0.0593	3797.11	3.9760	3.9760	-0.7277	6.15	0.15	-0.750			
0.0615	3936.65	3.9730	3.9729	-0.7350	6.16	0.16	-0.750			
0.0637	4077.61	3.9700	3.9701	-0.7351	6.17	0.17	-0.750			
0.0659	4219.76	3.9670	3.9671	-0.7451	6.19	0.19	-0.750			
0.0682	4364.40	3.9640	3.9638	-0.7499	6.20	0.20	-0.750			
0.0704	4508.35	3.9610	3.9610	-0.7482	6.21	0.21	-0.750			
0.0727	4650.94	3.9580	3.9580	-0.7539	6.21	0.21	-0.750			
0.0750	4797.06	3.9550	3.9551	-0.7587	6.22	0.22	-0.750			
0.0772	4943.24	3.9520	3.9520	-0.7572	6.23	0.23	-0.750			
0.0795	5090.95	3.9490	3.9488	-0.7588	6.24	0.24	-0.750			
0.0818	5235.94	3.9460	3.9463	-0.7542	6.25	0.25	-0.750			
0.0841	5379.94	3.9430	3.9431	-0.7613	6.26	0.26	-0.750			
0.0863	5525.24	3.9400	3.9400	-0.7649	6.27	0.27	-0.750			
0.0886	5672.15	3.9370	3.9369	-0.7690	6.28	0.28	-0.750			
0.0909	5819.94	3.9340	3.9340	-0.7722	6.30	0.30	-0.750			
0.0933	5969.10	3.9310	3.9310	-0.7773	6.31	0.31	-0.750			
0.0956	6121.41	3.9280	3.9280	-0.7786	6.32	0.32	-0.750			
0.0980	6270.37	3.9250	3.9250	-0.7773	6.33	0.33	-0.750			
0.1003	6417.56	3.9220	3.9221	-0.7719	6.35	0.35	-0.750			
0.1026	6566.14	3.9190	3.9190	-0.7742	6.36	0.36	-0.750			
0.1049	6714.59	3.9160	3.9159	-0.7736	6.37	0.37	-0.750			
0.1072	6862.54	3.9130	3.9131	-0.7767	6.38	0.38	-0.750			
0.1095	7010.73	3.9100	3.9100	-0.7804	6.39	0.39	-0.750			
0.1119	7161.67	3.9070	3.9069	-0.7879	6.41	0.41	-0.750			
0.1143	7312.07	3.9040	3.9040	-0.7895	6.42	0.42	-0.750			
0.1166	7465.55	3.9010	3.9010	-0.7960	6.43	0.43	-0.750			
0.1191	7619.43	3.8980	3.8982	-0.8017	6.44	0.44	-0.750			
0.1215	7774.04	3.8950	3.8949	-0.8088	6.45	0.45	-0.750			
0.1239	7929.82	3.8920	3.8920	-0.8071	6.46	0.46	-0.750			
0.1263	8086.29	3.8890	3.8890	-0.8051	6.48	0.48	-0.750			
0.1288	8241.51	3.8860	3.8860	-0.8040	6.49	0.49	-0.750			
0.1312	8395.10	3.8830	3.8831	-0.8041	6.50	0.50	-0.750			
0.1336	8548.86	3.8800	3.8799	-0.8002	6.51	0.51	-0.750			
0.1360	8701.14	3.8770	3.8771	-0.7976	6.52	0.52	-0.750			
0.1383	8853.31	3.8740	3.8740	-0.7969	6.53	0.53	-0.750			
0.1407	9006.81	3.8710	3.8710	-0.8051	6.54	0.54	-0.750			
0.1432	9162.15	3.8680	3.8680	-0.8088	6.55	0.55	-0.750			
0.1456	9317.28	3.8650	3.8649	-0.8104	6.56	0.56	-0.750			
0.1480	9472.71	3.8620	3.8620	-0.8152	6.57	0.57	-0.750			
0.1505	9632.25	3.8590	3.8590	-0.8169	6.59	0.59	-0.750			
0.1530	9789.38	3.8560	3.8560	-0.8162	6.60	0.60	-0.750			
0.1554	9946.27	3.8530	3.8530	-0.8154	6.61	0.61	-0.750			
0.1578	10102.04	3.8500	3.8500	-0.8120	6.63	0.63	-0.750			
0.1603	10257.16	3.8470	3.8470	-0.8179	6.64	0.64	-0.750			
0.1628	10416.13	3.8440	3.8439	-0.8100	6.65	0.65	-0.750			
0.1652	10571.88	3.8410	3.8410	-0.8049	6.66	0.66	-0.750			
0.1676	10724.70	3.8380	3.8382	-0.8126	6.67	0.67	-0.750			
0.1700	10878.75	3.8350	3.8349	-0.8174	6.69	0.69	-0.750			
0.1724	11035.18	3.8320	3.8319	-0.8264	6.70	0.70	-0.750			
0.1749	11195.04	3.8290	3.8289	-0.8280	6.71	0.71	-0.750			
0.1774	11356.10	3.8260	3.8262	-0.8364	6.73	0.73	-0.750			
0.1800	11519.63	3.8230	3.8229	-0.8438	6.74	0.74	-0.750			
0.1825	11681.85	3.8200	3.8200	-0.8422	6.75	0.75	-0.750			
0.1850	11840.72	3.8170	3.8169	-0.8426	6.76	0.76	-0.750			
0.1875	12001.70	3.8140	3.8139	-0.8426	6.77	0.77	-0.750			
0.1901	12163.90	3.8110	3.8111	-0.8440	6.78	0.78	-0.750			
0.1926	12328.92	3.8080	3.8078	-0.8471	6.79	0.79	-0.750			
0.1952	12492.79	3.8050	3.8052	-0.8416	6.81	0.81	-0.750			
0.1977	12653.49	3.8020	3.8019	-0.8351	6.82	0.82	-0.750			
0.2002	12811.76	3.7990	3.7989	-0.8298	6.83	0.83	-0.750			
0.2026	12966.80	3.7960	3.7961	-0.8246	6.84	0.84	-0.750			
0.2051	13126.37	3.7930	3.7929	-0.8373	6.85	0.85	-0.750			
0.2076	13288.33	3.7900	3.7900	-0.8399	6.87	0.87	-0.750			
0.2102	13451.01	3.7870	3.7870	-0.8481	6.88	0.88	-0.750			
0.2128	13617.25	3.7840	3.7840	-0.8523	6.89	0.89	-0.750			
0.2153	13780.94	3.7810	3.7810	-0.8496	6.90	0.90	-0.750			
0.2179	13944.89	3.7780	3.7779	-0.8502	6.91	0.91	-0.750			
0.2204	14106.10	3.7750	3.7750	-0.8473	6.93	0.93	-0.750			
0.2229	14267.42	3.7720	3.7719	-0.8506	6.94	0.94	-0.750			
0.2255	14431.38	3.7690	3.7690	-0.8549	6.95	0.95	-0.750			
0.2280	14594.83	3.7660	3.7660	-0.8514	6.96	0.96	-0.750			
0.2306	14761.28	3.7630	3.7629	-0.8563	6.97	0.97	-0.750			
0.2332	14924.11	3.7600	3.7602	-0.8603	6.98	0.98	-0.750			
0.2358	15089.49	3.7570	3.7569	-0.8635	6.99	0.99	-0.750			
0.2384	15255.99	3.7540	3.7540	-0.8629	7.00	1.00	-0.750			
0.2410	15421.66	3.7510	3.7509	-0.8611	7.02	1.02	-0.750			
0.2436	15589.68	3.7480	3.7481	-0.8648	7.03	1.03	-0.750			
0.2462	15754.85	3.7450	3.7450	-0.8699	7.04	1.04	-0.750			
0.2488	15922.13	3.7420	3.7419	-0.8733	7.05	1.05	-0.750			
0.2514	16088.94	3.7390	3.7389	-0.8712	7.06	1.06	-0.750			
0.2540	16254.26	3.7360	3.7360	-0.8806	7.07	1.07	-0.750			
0.2566	16424.65	3.7330	3.7332	-0.8898	7.08	1.08	-0.750			
0.2593	16597.21	3.7300	3.7298	-0.8988	7.09	1.09	-0.750			
0.2621	16772.02	3.7270	3.7269	-0.8940	7.11	1.11	-0.750			
0.2647	16942.37	3.7240	3.7241	-0.8942	7.12	1.12	-0.750			
0.2675	17117.46	3.7210	3.7210	-0.8975	7.13	1.13	-0.750			
0.2701	17287.61	3.7180	3.7179	-0.8936	7.14	1.14	-0.750			
0.2727	17454.52	3.7150	3.7150	-0.8902	7.16	1.16	-0.750			
0.2754	17625.38	3.7120	3.7120	-0.9017	7.17	1.17	-0.750			
0.2781	17800.30	3.7090	3.7089	-0.9103	7.18	1.18	-0.750			
0.2809	17977.07	3.7060	3.7060	-0.9253	7.19	1.19	-0.750			
0.2837	18153.87	3.7030	3.7030	-0.9338	7.20	1.20	-0.750			
0.2865	18337.63	3.7000	3.7000	-0.9405	7.21	1.21	-0.750			
0.2893	18518.37	3.6970	3.6969	-0.9442	7.22	1.22	-0.750			
0.2922	18701.32	3.6940	3.6941	-0.9437	7.23	1.23	-0.750			
0.2950	18882.01	3.6910	3.6910	-0.9459	7.24	1.24	-0.750			
0.2979	19063.98	3.6880	3.6879	-0.9594	7.26	1.26	-0.750			
0.3008	19248.57	3.6850	3.6849	-0.9588	7.27	1.27	-0.750			
0.3037	19434.84	3.6820	3.6818	-0.9643	7.28	1.28	-0.750			
0.3066	19621.44	3.6790	3.6794	-0.9685	7.29	1.29	-0.750			
0.3095	19806.21	3.6760	3.6760	-0.9780	7.30	1.30	-0.750			
0.3124	19995.97	3.6730	3.6729	-0.9825	7.31	1.31	-0.750			
0.3153	20181.38	3.6700	3.6699	-0.9802	7.32	1.32	-0.750			
0.3183	20372.10	3.6670	3.6671	-0.9971	7.33	1.33	-0.750			
0.3213	20564.33	3.6640	3.6640	-1.0086	7.34	1.34	-0.750			
0.3244	20760.54	3.6610	3.6608	-1.0150	7.35	1.35	-0.750			
0.3274	20955.13	3.6580	3.6580	-1.0222	7.36	1.36	-0.750			
0.3305	21150.17	3.6550	3.6551	-1.0229	7.37	1.37	-0.750			
0.3336	21351.81	3.6520	3.6519	-1.0404	7.38	1.38	-0.750			
0.3367	21551.98	3.6490	3.6490	-1.0422	7.39	1.39	-0.750			
0.3398	21750.20	3.6460	3.6460	-1.0414	7.40	1.40	-0.750			
0.3430	21949.03	3.6430	3.6429	-1.0525	7.41	1.41	-0.750			
0.3461	22152.01	3.6400	3.6400	-1.0689	7.42	1.42	-0.750			
0.3493	22357.76	3.6370	3.6369	-1.0767	7.42	1.42	-0.750			
0.3526	22567.86	3.6340	3.6340	-1.0868	7.43	1.43	-0.750			
0.3559	22776.18	3.6310	3.6311	-1.0957	7.44	1.44	-0.750			
0.3592	22990.48	3.6280	3.6281	-1.1128	7.45	1.45	-0.750			
0.3626	23205.61	3.6250	3.6249	-1.1176	7.45	1.45	-0.750			
0.3659	23416.84	3.6220	3.6220	-1.1254	7.46	1.46	-0.750			
0.3693	23633.97	3.6190	3.6192	-1.1412	7.47	1.47	-0.750			
0.3728	23857.10	3.6160	3.6159	-1.1517	7.48	1.48	-0.750			
0.3762	24078.60	3.6130	3.6130	-1.1603	7.49	1.49	-0.750			
0.3797	24301.00	3.6100	3.6100	-1.1701	7.50	1.50	-0.750			
0.3832	24526.61	3.6070	3.6069	-1.1917	7.51	1.51	-0.750			
0.3869	24759.46	3.6040	3.6039	-1.1964	7.52	1.52	-0.750			
0.3904	24987.14	3.6010	3.6010	-1.2061	7.53	1.53	-0.750			
0.3941	25221.40	3.5980	3.5980	-1.2222	7.54	1.54	-0.750			
0.3978	25460.14	3.5950	3.5950	-1.2358	7.55	1.55	-0.750	0.396	0.904	
0.4015	25697.77	3.5920	3.5919	-1.2393	7.56	1.56	-0.750			
0.4052	25935.10	3.5890	3.5890	-1.2501	7.57	1.57	-0.750			
0.4090	26175.63	3.5860	3.5859	-1.2512	7.58	1.58	-0.750			
0.4128	26422.32	3.5830	3.5829	-1.2567	7.59	1.59	-0.750			
0.4165	26655.10	3.5800	3.5800	-1.2662	7.59	1.59	-0.750			
0.4203	26898.35	3.5770	3.5771	-1.2813	7.60	1.60	-0.750			
0.4242	27148.80	3.5740	3.5739	-1.2991	7.61	1.61	-0.750			
0.4281	27400.92	3.5710	3.5709	-1.3080	7.61	1.61	-0.750			
0.4321	27653.97	3.5680	3.5682	-1.3191	7.62	1.62	-0.750			
0.4361	27910.88	3.5650	3.5652	-1.3329	7.63	1.63	-0.750			
0.4401	28169.21	3.5620	3.5619	-1.3410	7.64	1.64	-0.750			
0.4441	28421.13	3.5590	3.5591	-1.3527	7.65	1.65	-0.750			
0.4481	28681.45	3.5560	3.5559	-1.3685	7.66	1.66	-0.750			
0.4523	28947.24	3.5530	3.5530	-1.3808	7.67	1.67	-0.750			
0.4565	29218.36	3.5500	3.5502	-1.4036	7.68	1.68	-0.750			
0.4608	29490.55	3.5470	3.5470	-1.4163	7.69	1.69	-0.750			
0.4651	29763.86	3.5440	3.5440	-1.4170	7.70	1.70	-0.750			
0.4693	30034.39	3.5410	3.5413	-1.4271	7.71	1.71	-0.750			
0.4736	30311.44	3.5380	3.5379	-1.4234	7.72	1.72	-0.750			
0.4779	30584.10	3.5350	3.5350	-1.4242	7.73	1.73	-0.750			
0.4821	30857.26	3.5320	3.5322	-1.4307	7.74	1.74	-0.750			
0.4865	31134.48	3.5290	3.5288	-1.4346	7.75	1.75	-0.750			
0.4907	31407.71	3.5260	3.5259	-1.4329	7.76	1.76	-0.750			
0.4950	31678.84	3.5230	3.5231	-1.4565	7.77	1.77	-0.750			
0.4994	31960.35	3.5200	3.5200	-1.4744	7.78	1.78	-0.750			
0.5039	32249.91	3.5170	3.5168	-1.4847	7.79	1.79	-0.750			
0.5084	32537.72	3.5140	3.5140	-1.4759	7.80	1.80	-0.750			
0.5129	32824.83	3.5110	3.5112	-1.4815	7.81	1.81	-0.750			
0.5173	33109.75	3.5080	3.5079	-1.4728	7.82	1.82	-0.750			
0.5217	33386.94	3.5050	3.5050	-1.4603	7.83	1.83	-0.750			
0.5261	33668.41	3.5020	3.5019	-1.4497	7.84	1.84	-0.750			
0.5304	33944.40	3.4990	3.4990	-1.4545	7.86	1.86	-0.750			
0.5347	34223.74	3.4960	3.4960	-1.4517	7.87	1.87	-0.750			
0.5392	34507.11	3.4930	3.4929	-1.4562	7.88	1.88	-0.750			
0.5435	34782.32	3.4900	3.4901	-1.4479	7.90	1.90	-0.750			
0.5478	35062.09	3.4870	3.4870	-1.4422	7.91	1.91	-0.750			
0.5522	35338.56	3.4840	3.4839	-1.4346	7.92	1.92	-0.750			
0.5565	35617.51	3.4810	3.4811	-1.4386	7.93	1.93	-0.750			
0.5608	35890.29	3.4780	3.4781	-1.4344	7.94	1.94	-0.750			
0.5652	36169.65	3.4750	3.4748	-1.4341	7.96	1.96	-0.750			
0.5694	36444.36	3.4720	3.4721	-1.4297	7.97	1.97	-0.750			
0.5737	36719.87	3.4690	3.4692	-1.4179	7.99	1.99	-0.750			
0.5779	36988.53	3.4660	3.4659	-1.4208	8.00	2.00	-0.750			
0.5822	37260.84	3.4630	3.4631	-1.4110	8.01	2.01	-0.750			
0.5865	37534.36	3.4600	3.4598	-1.3973	8.03	2.03	-0.750			
0.5906	37798.75	3.4570	3.4570	-1.3787	8.05	2.05	-0.750			
0.5948	38066.01	3.4540	3.4541	-1.3723	8.06	2.06	-0.750			
0.5989	38332.39	3.4510	3.4508	-1.3479	8.08	2.08	-0.750			
0.6029	38585.56	3.4480	3.4479	-1.3373	8.09	2.09	-0.750			
0.6068	38836.09	3.4450	3.4452	-1.3069	8.10	2.10	-0.750			
0.6108	39090.95	3.4420	3.4419	-1.2990	8.12	2.12	-0.750			
0.6147	39338.19	3.4390	3.4389	-1.2841	8.13	2.13	-0.750			
0.6184	39579.22	3.4360	3.4361	-1.2717	8.15	2.15	-0.750			
0.6222	39823.59	3.4330	3.4329	-1.2471	8.16	2.16	-0.750			
0.6260	40062.87	3.4300	3.4300	-1.2251	8.18	2.18	-0.750			
0.6296	40291.39	3.4270	3.4269	-1.1915	8.19	2.19	-0.750			
0.6332	40522.43	3.4240	3.4240	-1.1841	8.21	2.21	-0.750			
0.6367	40747.67	3.4210	3.4210	-1.1648	8.23	2.23	-0.750			
0.6401	40968.59	3.4180	3.4179	-1.1431	8.24	2.24	-0.750			
0.6436	41188.90	3.4150	3.4151	-1.1321	8.26	2.26	-0.750			
0.6469	41402.32	3.4120	3.4120	-1.1093	8.27	2.27	-0.750			
0.6502	41614.18	3.4090	3.4090	-1.0884	8.29	2.29	-0.750			
0.6535	41821.58	3.4060	3.4059	-1.0596	8.31	2.31	-0.750			
0.6566	42022.60	3.4030	3.4031	-1.0286	8.32	2.32	-0.750			
0.6597	42218.88	3.4000	3.4000	-1.0009	8.34	2.34	-0.750			
0.6626	42407.49	3.3970	3.3971	-0.9748	8.35	2.35	-0.750			
0.6655	42590.99	3.3940	3.3940	-0.9428	8.36	2.36	-0.750			
0.6682	42767.98	3.3910	3.3909	-0.9199	8.38	2.38	-0.750			
0.6709	42940.76	3.3880	3.3880	-0.9012	8.39	2.39	-0.750			
0.6736	43113.38	3.3850	3.3849	-0.8795	8.40	2.40	-0.750			
0.6762	43279.58	3.3820	3.3819	-0.8548	8.42	2.42	-0.750			
0.6788	43442.07	3.3790	3.3791	-0.8336	8.43	2.43	-0.750			
0.6813	43600.06	3.3760	3.3762	-0.8090	8.44	2.44	-0.750			
0.6837	43754.31	3.3730	3.3728	-0.7889	8.45	2.45	-0.750			
0.6859	43899.48	3.3700	3.3702	-0.7667	8.47	2.47	-0.750			
0.6882	44045.60	3.3670	3.3670	-0.7496	8.48	2.48	-0.750			
0.6905	44190.25	3.3640	3.3639	-0.7375	8.50	2.50	-0.750			
0.6927	44329.89	3.3610	3.3609	-0.7161	8.51	2.51	-0.750			
0.6948	44465.26	3.3580	3.3580	-0.6943	8.53	2.53	-0.750			
0.6968	44596.95	3.3550	3.3550	-0.6739	8.54	2.54	-0.750			
0.6988	44723.08	3.3520	3.3520	-0.6511	8.55	2.55	-0.750			
0.7007	44844.33	3.3490	3.3490	-0.6312	8.56	2.56	-0.750			
0.7026	44965.46	3.3460	3.3459	-0.6157	8.58	2.58	-0.750			
0.7044	45081.11	3.3430	3.3430	-0.5980	8.59	2.59	-0.750			
0.7062	45194.14	3.3400	3.3401	-0.5823	8.60	2.60	-0.750			
0.7079	45305.48	3.3370	3.3370	-0.5689	8.61	2.61	-0.750			
0.7096	45412.59	3.3340	3.3339	-0.5544	8.62	2.62	-0.750			
0.7112	45516.04	3.3310	3.3310	-0.5403	8.63	2.63	-0.750			
0.7128	45618.51	3.3280	3.3281	-0.5294	8.65	2.65	-0.750			
0.7144	45720.32	3.3250	3.3249	-0.5212	8.66	2.66	-0.750			
0.7159	45819.05	3.3220	3.3220	-0.5085	8.67	2.67	-0.750			
0.7174	45915.97	3.3190	3.3190	-0.4957	8.68	2.68	-0.750			
0.7189	46009.60	3.3160	3.3162	-0.4850	8.69	2.69	-0.750			
0.7203	46101.60	3.3130	3.3129	-0.4720	8.70	2.70	-0.750			
0.7217	46190.96	3.3100	3.3101	-0.4623	8.71	2.71	-0.750			
0.7231	46278.08	3.3070	3.3070	-0.4524	8.72	2.72	-0.750			
0.7244	46364.73	3.3040	3.3040	-0.4440	8.73	2.73	-0.750			
0.7258	46448.72	3.3010	3.3010	-0.4356	8.74	2.74	-0.750			
0.7271	46531.31	3.2980	3.2980	-0.4276	8.75	2.75	-0.750			
0.7283	46612.31	3.2950	3.2950	-0.4166	8.76	2.76	-0.750			
0.7296	46691.84	3.2920	3.2919	-0.4092	8.77	2.77	-0.750			
0.7308	46769.44	3.2890	3.2890	-0.3985	8.78	2.78	-0.750			
0.7320	46845.14	3.2860	3.2860	-0.3897	8.78	2.78	-0.750			
0.7331	46919.17	3.2830	3.2830	-0.3822	8.80	2.80	-0.750			
0.7342	46991.53	3.2800	3.2800	-0.3744	8.81	2.81	-0.750			
0.7353	47061.89	3.2770	3.2769	-0.3680	8.82	2.82	-0.750			
0.7364	47132.73	3.2740	3.2740	-0.3599	8.83	2.83	-0.750			
0.7375	47200.48	3.2710	3.2709	-0.3530	8.84	2.84	-0.750			
0.7386	47267.96	3.2680	3.2681	-0.3462	8.85	2.85	-0.750			
0.7396	47333.17	3.2650	3.2651	-0.3411	8.86	2.86	-0.750			
0.7406	47397.55	3.2620	3.2619	-0.3385	8.87	2.87	-0.750			
0.7416	47462.29	3.2590	3.2591	-0.3336	8.88	2.88	-0.750			
0.7426	47526.55	3.2560	3.2560	-0.3287	8.89	2.89	-0.750			
0.7436	47591.12	3.2530	3.2530	-0.3261	8.90	2.90	-0.750			
0.7446	47652.26	3.2500	3.2501	-0.3188	8.91	2.91	-0.750			
0.7455	47712.63	3.2470	3.2469	-0.3132	8.92	2.92	-0.750			
0.7464	47771.38	3.2440	3.2440	-0.3055	8.92	2.92	-0.750			
0.7473	47829.54	3.2410	3.2410	-0.2999	8.93	2.93	-0.750			
0.7482	47887.38	3.2380	3.2380	-0.2965	8.94	2.94	-0.750			
0.7491	47943.66	3.2350	3.2350	-0.2905	8.95	2.95	-0.750			
0.7500	47998.59	3.2320	3.2320	-0.2858	8.96	2.96	-0.750			
0.7508	48052.71	3.2290	3.2290	-0.2804	8.97	2.97	-0.750			
0.7516	48105.50	3.2260	3.2260	-0.2763	8.98	2.98	-0.750			
0.7525	48158.82	3.2230	3.2230	-0.2725	8.98	2.98	-0.750			
0.7533	48210.92	3.2200	3.2200	-0.2697	8.99	2.99	-0.750			
0.7541	48262.24	3.2170	3.2170	-0.2652	9.00	3.00	-0.750			
0.7549	48313.00	3.2140	3.2141	-0.2610	9.01	3.01	-0.750			
0.7557	48362.32	3.2110	3.2108	-0.2574	9.01	3.01	-0.750			
0.7564	48411.24	3.2080	3.2082	-0.2536	9.02	3.02	-0.750			
0.7572	48459.06	3.2050	3.2050	-0.2510	9.03	3.03	-0.750			
0.7579	48507.17	3.2020	3.2019	-0.2489	9.04	3.04	-0.750			
0.7587	48555.47	3.1990	3.1990	-0.2467	9.05	3.05	-0.750			
0.7594	48602.17	3.1960	3.1959	-0.2430	9.06	3.06	-0.750			
0.7601	48649.15	3.1930	3.1931	-0.2399	9.07	3.07	-0.750			
0.7609	48695.07	3.1900	3.1901	-0.2363	9.07	3.07	-0.750			
0.7616	48739.85	3.1870	3.1870	-0.2317	9.08	3.08	-0.750			
0.7622	48783.82	3.1840	3.1839	-0.2293	9.09	3.09	-0.750			
0.7629	48826.67	3.1810	3.1810	-0.2266	9.10	3.10	-0.750			
0.7636	48870.32	3.1780	3.1779	-0.2238	9.11	3.11	-0.750			
0.7643	48913.09	3.1750	3.1750	-0.2227	9.12	3.12	-0.750			
0.7649	48955.68	3.1720	3.1720	-0.2208	9.12	3.12	-0.750			
0.7656	48998.23	3.1690	3.1691	-0.2177	9.13	3.13	-0.750			
0.7662	49039.66	3.1660	3.1659	-0.2158	9.14	3.14	-0.750			
0.7669	49081.06	3.1630	3.1630	-0.2121	9.15	3.15	-0.750			
0.7675	49121.36	3.1600	3.1601	-0.2088	9.16	3.16	-0.750			
0.7681	49161.10	3.1570	3.1569	-0.2056	9.17	3.17	-0.750			
0.7688	49200.46	3.1540	3.1540	-0.2040	9.18	3.18	-0.750			
0.7694	49238.89	3.1510	3.1509	-0.2001	9.19	3.19	-0.750			
0.7700	49276.98	3.1480	3.1480	-0.1987	9.19	3.19	-0.750			
0.7705	49315.05	3.1450	3.1450	-0.1972	9.20	3.20	-0.750			
0.7711	49352.32	3.1420	3.1421	-0.1952	9.21	3.21	-0.750			
0.7717	49390.15	3.1390	3.1389	-0.1948	9.21	3.21	-0.750			
0.7723	49427.21	3.1360	3.1360	-0.1931	9.22	3.22	-0.750			
0.7729	49464.18	3.1330	3.1330	-0.1920	9.23	3.23	-0.750			
0.7735	49500.90	3.1300	3.1300	-0.1902	9.24	3.24	-0.750			
0.7740	49537.86	3.1270	3.1269	-0.1881	9.24	3.24	-0.750			
0.7746	49573.29	3.1240	3.1241	-0.1860	9.25	3.25	-0.750			
0.7751	49608.82	3.1210	3.1211	-0.1842	9.26	3.26	-0.750			
0.7757	49643.92	3.1180	3.1181	-0.1829	9.26	3.26	-0.750			
0.7762	49678.81	3.1150	3.1149	-0.1809	9.27	3.27	-0.750			
0.7768	49713.54	3.1120	3.1119	-0.1787	9.28	3.28	-0.750			
0.7773	49747.68	3.1090	3.1091	-0.1770	9.28	3.28	-0.750			
0.7778	49781.64	3.1060	3.1062	-0.1759	9.29	3.29	-0.750			
0.7784	49815.48	3.1030	3.1030	-0.1749	9.30	3.30	-0.750			
0.7789	49848.18	3.1000	3.0999	-0.1724	9.30	3.30	-0.750			
0.7794	49881.23	3.0970	3.0970	-0.1719	9.31	3.31	-0.750			
0.7799	49914.08	3.0940	3.0940	-0.1708	9.32	3.32	-0.750			
0.7804	49947.06	3.0910	3.0910	-0.1700	9.33	3.33	-0.750			
0.7809	49979.87	3.0880	3.0879	-0.1692	9.33	3.33	-0.750			
0.7814	50012.20	3.0850	3.0852	-0.1676	9.34	3.34	-0.750			
0.7819	50044.15	3.0820	3.0820	-0.1660	9.35	3.35	-0.750			
0.7824	50075.98	3.0790	3.0790	-0.1644	9.36	3.36	-0.750			
0.7829	50107.21	3.0760	3.0760	-0.1626	9.37	3.37	-0.750			
0.7834	50138.31	3.0730	3.0730	-0.1613	9.37	3.37	-0.750			
0.7839	50168.99	3.0700	3.0700	-0.1608	9.38	3.38	-0.750			
0.7844	50199.77	3.0670	3.0670	-0.1596	9.39	3.39	-0.750			
0.7849	50230.48	3.0640	3.0640	-0.1585	9.40	3.40	-0.750			
0.7853	50260.81	3.0610	3.0609	-0.1575	9.41	3.41	-0.750			
0.7858	50290.96	3.0580	3.0581	-0.1567	9.42	3.42	-0.750			
0.7863	50321.06	3.0550	3.0549	-0.1560	9.43	3.43	-0.750			
0.7867	50350.84	3.0520	3.0520	-0.1547	9.43	3.43	-0.750			
0.7872	50380.49	3.0490	3.0490	-0.1531	9.44	3.44	-0.750			
0.7877	50409.68	3.0460	3.0461	-0.1513	9.45	3.45	-0.750			
0.7881	50438.87	3.0430	3.0429	-0.1502	9.46	3.46	-0.750			
0.7886	50467.40	3.0400	3.0401	-0.1495	9.46	3.46	-0.750			
0.7890	50495.95	3.0370	3.0370	-0.1484	9.47	3.47	-0.750			
0.7894	50523.96	3.0340	3.0340	-0.1474	9.48	3.48	-0.750			
0.7899	50552.24	3.0310	3.0310	-0.1471	9.49	3.49	-0.750			
0.7903	50580.36	3.0280	3.0281	-0.1465	9.49	3.49	-0.750			
0.7908	50608.53	3.0250	3.0250	-0.1465	9.50	3.50	-0.750			
0.7912	50636.92	3.0220	3.0220	-0.1458	9.51	3.51	-0.750			
0.7916	50664.80	3.0190	3.0189	-0.1447	9.51	3.51	-0.750			
0.7921	50692.35	3.0160	3.0161	-0.1440	9.52	3.52	-0.750			
0.7925	50720.03	3.0130	3.0131	-0.1437	9.53	3.53	-0.750			
0.7929	50747.37	3.0100	3.0098	-0.1428	9.53	3.53	-0.750			
0.7934	50774.75	3.0070	3.0071	-0.1425	9.54	3.54	-0.750			
0.7938	50802.07	3.0040	3.0040	-0.1421	9.55	3.55	-0.750			
0.7942	50829.58	3.0010	3.0010	-0.1463	9.55	3.55	-0.750			
