Ah_balance (normalized)	Ah_balance (mAh)	Voltage - fit (V)	Voltage -  interpolate (V)	dQ/dV (1/V)	Temperature (°C)	Temperature - diff (°C)	Current (C)	R_DC 0ms (mOhm)	R_DC 50ms (mOhm)	R_DC 50 ms PEC (mOhm)
0.0000	0.00	4.0900	4.1311	0.0000	5.96	-0.02	-0.750			
0.0000	0.00	4.0930	4.1311	0.0000	5.96	-0.02	-0.750			
0.0000	0.00	4.0960	4.1311	0.0000	5.96	-0.02	-0.750			
0.0002	13.68	4.0870	4.0874	-0.0544	5.96	-0.02	-0.750			
0.0004	28.50	4.0840	4.0838	-0.0808	5.96	-0.02	-0.750			
0.0007	46.54	4.0810	4.0808	-0.1072	5.96	-0.02	-0.750			
0.0011	70.13	4.0780	4.0778	-0.1313	5.97	-0.01	-0.750			
0.0015	97.74	4.0750	4.0751	-0.1571	5.97	-0.01	-0.750			
0.0020	130.36	4.0720	4.0721	-0.1832	5.97	-0.01	-0.750			
0.0026	169.04	4.0690	4.0689	-0.2073	5.97	-0.01	-0.750			
0.0033	211.56	4.0660	4.0658	-0.2286	5.97	-0.01	-0.750			
0.0040	258.11	4.0630	4.0630	-0.2494	5.97	-0.01	-0.750			
0.0048	308.20	4.0600	4.0601	-0.2718	5.97	-0.01	-0.750			
0.0057	361.70	4.0570	4.0573	-0.2944	5.97	-0.01	-0.750			
0.0066	419.82	4.0540	4.0539	-0.3172	5.97	-0.01	-0.750			
0.0075	481.99	4.0510	4.0509	-0.3397	5.98	-0.00	-0.750			
0.0086	549.22	4.0480	4.0481	-0.3680	5.98	-0.00	-0.750			
0.0098	624.05	4.0450	4.0450	-0.3904	5.98	-0.00	-0.750			
0.0110	702.35	4.0420	4.0420	-0.4128	5.98	0.00	-0.750			
0.0123	784.01	4.0390	4.0390	-0.4319	5.98	0.00	-0.750			
0.0136	868.29	4.0360	4.0362	-0.4516	5.99	0.01	-0.750			
0.0149	956.01	4.0330	4.0329	-0.4728	5.99	0.01	-0.750			
0.0164	1048.63	4.0300	4.0299	-0.4933	5.99	0.01	-0.750			
0.0179	1145.34	4.0270	4.0270	-0.5100	5.99	0.01	-0.750			
0.0195	1246.97	4.0240	4.0241	-0.5301	5.99	0.01	-0.750			
0.0211	1351.37	4.0210	4.0210	-0.5476	6.00	0.02	-0.750			
0.0228	1458.85	4.0180	4.0180	-0.5575	6.00	0.02	-0.750			
0.0245	1565.40	4.0150	4.0150	-0.5675	6.00	0.02	-0.750			
0.0262	1675.08	4.0120	4.0120	-0.5800	6.01	0.03	-0.750			
0.0279	1786.99	4.0090	4.0091	-0.5917	6.01	0.03	-0.750			
0.0297	1901.74	4.0060	4.0059	-0.6064	6.02	0.04	-0.750			
0.0316	2019.89	4.0030	4.0031	-0.6169	6.02	0.04	-0.750			
0.0334	2138.85	4.0000	3.9997	-0.6321	6.03	0.05	-0.750			
0.0354	2262.79	3.9970	3.9973	-0.6487	6.03	0.05	-0.750			
0.0373	2388.46	3.9940	3.9940	-0.6595	6.04	0.06	-0.750			
0.0393	2516.40	3.9910	3.9909	-0.6722	6.04	0.06	-0.750			
0.0414	2648.19	3.9880	3.9881	-0.6803	6.05	0.07	-0.750			
0.0434	2779.39	3.9850	3.9850	-0.6845	6.06	0.08	-0.750			
0.0455	2911.65	3.9820	3.9820	-0.6882	6.06	0.08	-0.750			
0.0475	3043.07	3.9790	3.9791	-0.6851	6.07	0.09	-0.750			
0.0496	3175.41	3.9760	3.9760	-0.6842	6.08	0.10	-0.750			
0.0517	3305.77	3.9730	3.9729	-0.6882	6.09	0.11	-0.750			
0.0537	3437.57	3.9700	3.9701	-0.6969	6.09	0.11	-0.750			
0.0558	3571.67	3.9670	3.9669	-0.7006	6.10	0.12	-0.750			
0.0579	3708.79	3.9640	3.9639	-0.7037	6.11	0.13	-0.750			
0.0601	3844.61	3.9610	3.9613	-0.7048	6.12	0.14	-0.750			
0.0622	3980.80	3.9580	3.9580	-0.7078	6.13	0.15	-0.750			
0.0643	4115.94	3.9550	3.9549	-0.7100	6.13	0.15	-0.750			
0.0664	4248.72	3.9520	3.9520	-0.7175	6.14	0.16	-0.750			
0.0686	4388.83	3.9490	3.9488	-0.7219	6.15	0.17	-0.750			
0.0708	4532.26	3.9460	3.9459	-0.7276	6.15	0.17	-0.750			
0.0730	4672.30	3.9430	3.9434	-0.7286	6.16	0.18	-0.750			
0.0752	4813.43	3.9400	3.9400	-0.7273	6.17	0.19	-0.750			
0.0774	4951.87	3.9370	3.9369	-0.7263	6.18	0.20	-0.750			
0.0795	5087.24	3.9340	3.9340	-0.7226	6.19	0.21	-0.750			
0.0817	5227.68	3.9310	3.9311	-0.7287	6.20	0.22	-0.750			
0.0839	5367.51	3.9280	3.9280	-0.7337	6.20	0.22	-0.750			
0.0861	5508.81	3.9250	3.9250	-0.7425	6.21	0.23	-0.750			
0.0883	5651.69	3.9220	3.9221	-0.7433	6.22	0.24	-0.750			
0.0906	5795.64	3.9190	3.9189	-0.7497	6.23	0.25	-0.750			
0.0928	5940.13	3.9160	3.9160	-0.7508	6.25	0.27	-0.750			
0.0951	6084.99	3.9130	3.9130	-0.7515	6.26	0.28	-0.750			
0.0973	6229.30	3.9100	3.9101	-0.7527	6.27	0.29	-0.750			
0.0996	6373.03	3.9070	3.9070	-0.7522	6.28	0.30	-0.750			
0.1018	6516.89	3.9040	3.9040	-0.7562	6.29	0.31	-0.750			
0.1041	6662.70	3.9010	3.9010	-0.7576	6.29	0.31	-0.750			
0.1064	6807.34	3.8980	3.8979	-0.7554	6.30	0.32	-0.750			
0.1087	6954.68	3.8950	3.8951	-0.7571	6.31	0.33	-0.750			
0.1109	7099.29	3.8920	3.8921	-0.7603	6.32	0.34	-0.750			
0.1132	7244.62	3.8890	3.8889	-0.7607	6.33	0.35	-0.750			
0.1155	7391.51	3.8860	3.8860	-0.7641	6.34	0.36	-0.750			
0.1178	7537.38	3.8830	3.8830	-0.7654	6.36	0.38	-0.750			
0.1201	7687.01	3.8800	3.8800	-0.7660	6.37	0.39	-0.750			
0.1224	7833.86	3.8770	3.8771	-0.7647	6.38	0.40	-0.750			
0.1247	7980.20	3.8740	3.8740	-0.7656	6.39	0.41	-0.750			
0.1270	8124.81	3.8710	3.8710	-0.7694	6.40	0.42	-0.750			
0.1293	8273.01	3.8680	3.8679	-0.7702	6.41	0.43	-0.750			
0.1316	8421.17	3.8650	3.8651	-0.7729	6.41	0.43	-0.750			
0.1339	8572.45	3.8620	3.8619	-0.7739	6.42	0.44	-0.750			
0.1363	8722.28	3.8590	3.8591	-0.7721	6.43	0.45	-0.750			
0.1386	8867.30	3.8560	3.8560	-0.7744	6.45	0.47	-0.750			
0.1409	9015.94	3.8530	3.8530	-0.7746	6.46	0.48	-0.750			
0.1432	9163.97	3.8500	3.8499	-0.7693	6.47	0.49	-0.750			
0.1455	9312.96	3.8470	3.8470	-0.7757	6.48	0.50	-0.750			
0.1479	9462.64	3.8440	3.8444	-0.7772	6.49	0.51	-0.750			
0.1502	9612.78	3.8410	3.8409	-0.7771	6.50	0.52	-0.750			
0.1525	9760.38	3.8380	3.8380	-0.7823	6.51	0.53	-0.750			
0.1548	9910.12	3.8350	3.8350	-0.7826	6.52	0.54	-0.750			
0.1572	10062.14	3.8320	3.8320	-0.7866	6.53	0.55	-0.750			
0.1596	10214.01	3.8290	3.8289	-0.7869	6.55	0.57	-0.750			
0.1620	10364.85	3.8260	3.8261	-0.7843	6.56	0.58	-0.750			
0.1643	10515.80	3.8230	3.8229	-0.7838	6.57	0.59	-0.750			
0.1666	10665.59	3.8200	3.8200	-0.7816	6.57	0.59	-0.750			
0.1690	10813.66	3.8170	3.8170	-0.7789	6.58	0.60	-0.750			
0.1713	10964.97	3.8140	3.8139	-0.7829	6.59	0.61	-0.750			
0.1737	11114.74	3.8110	3.8112	-0.7852	6.60	0.62	-0.750			
0.1760	11264.36	3.8080	3.8079	-0.7883	6.61	0.63	-0.750			
0.1784	11415.70	3.8050	3.8050	-0.7944	6.62	0.64	-0.750			
0.1808	11569.73	3.8020	3.8019	-0.7939	6.63	0.65	-0.750			
0.1832	11722.71	3.7990	3.7990	-0.7955	6.64	0.66	-0.750			
0.1856	11878.48	3.7960	3.7962	-0.7869	6.65	0.67	-0.750			
0.1880	12028.84	3.7930	3.7930	-0.7794	6.66	0.68	-0.750			
0.1903	12176.04	3.7900	3.7900	-0.7737	6.67	0.69	-0.750			
0.1925	12322.33	3.7870	3.7869	-0.7744	6.68	0.70	-0.750			
0.1948	12468.52	3.7840	3.7839	-0.7748	6.70	0.72	-0.750			
0.1972	12617.77	3.7810	3.7810	-0.7873	6.71	0.73	-0.750			
0.1995	12770.57	3.7780	3.7779	-0.7916	6.72	0.74	-0.750			
0.2019	12924.36	3.7750	3.7750	-0.8074	6.73	0.75	-0.750			
0.2044	13080.78	3.7720	3.7720	-0.8049	6.74	0.76	-0.750			
0.2068	13236.78	3.7690	3.7688	-0.8009	6.75	0.77	-0.750			
0.2092	13390.45	3.7660	3.7661	-0.8043	6.76	0.78	-0.750			
0.2116	13545.29	3.7630	3.7630	-0.8061	6.76	0.78	-0.750			
0.2140	13697.48	3.7600	3.7599	-0.8092	6.77	0.79	-0.750			
0.2165	13855.25	3.7570	3.7571	-0.8144	6.78	0.80	-0.750			
0.2189	14009.17	3.7540	3.7540	-0.8141	6.79	0.81	-0.750			
0.2214	14168.43	3.7510	3.7509	-0.8235	6.80	0.82	-0.750			
0.2239	14327.97	3.7480	3.7481	-0.8277	6.81	0.83	-0.750			
0.2263	14484.63	3.7450	3.7449	-0.8284	6.82	0.84	-0.750			
0.2288	14645.06	3.7420	3.7419	-0.8327	6.83	0.85	-0.750			
0.2313	14804.30	3.7390	3.7391	-0.8321	6.84	0.86	-0.750			
0.2339	14967.00	3.7360	3.7358	-0.8330	6.85	0.87	-0.750			
0.2364	15128.08	3.7330	3.7331	-0.8328	6.85	0.87	-0.750			
0.2389	15286.76	3.7300	3.7300	-0.8335	6.86	0.88	-0.750			
0.2413	15446.14	3.7270	3.7269	-0.8315	6.87	0.89	-0.750			
0.2438	15604.20	3.7240	3.7240	-0.8248	6.88	0.90	-0.750			
0.2463	15762.50	3.7210	3.7210	-0.8394	6.88	0.90	-0.750			
0.2488	15924.21	3.7180	3.7181	-0.8497	6.89	0.91	-0.750			
0.2514	16089.18	3.7150	3.7149	-0.8612	6.90	0.92	-0.750			
0.2540	16255.32	3.7120	3.7120	-0.8677	6.91	0.93	-0.750			
0.2566	16423.84	3.7090	3.7090	-0.8685	6.92	0.94	-0.750			
0.2593	16593.51	3.7060	3.7060	-0.8724	6.94	0.96	-0.750			
0.2619	16763.15	3.7030	3.7030	-0.8677	6.94	0.96	-0.750			
0.2645	16925.21	3.7000	3.7000	-0.8679	6.95	0.97	-0.750			
0.2670	17088.94	3.6970	3.6970	-0.8738	6.96	0.98	-0.750			
0.2696	17257.50	3.6940	3.6939	-0.8812	6.97	0.99	-0.750			
0.2723	17428.21	3.6910	3.6909	-0.8946	6.98	1.00	-0.750			
0.2750	17601.37	3.6880	3.6880	-0.9137	6.99	1.01	-0.750			
0.2778	17781.12	3.6850	3.6849	-0.9127	7.00	1.02	-0.750			
0.2806	17960.17	3.6820	3.6819	-0.9157	7.00	1.02	-0.750			
0.2833	18133.39	3.6790	3.6791	-0.9111	7.01	1.03	-0.750			
0.2861	18308.07	3.6760	3.6762	-0.9174	7.02	1.04	-0.750			
0.2888	18483.65	3.6730	3.6728	-0.9287	7.03	1.05	-0.750			
0.2915	18658.09	3.6700	3.6700	-0.9355	7.03	1.05	-0.750			
0.2944	18838.88	3.6670	3.6669	-0.9474	7.04	1.06	-0.750			
0.2973	19027.37	3.6640	3.6640	-0.9655	7.05	1.07	-0.750			
0.3002	19215.76	3.6610	3.6610	-0.9745	7.06	1.08	-0.750			
0.3032	19404.82	3.6580	3.6580	-0.9691	7.06	1.08	-0.750			
0.3061	19590.15	3.6550	3.6550	-0.9654	7.07	1.09	-0.750			
0.3090	19774.21	3.6520	3.6520	-0.9657	7.08	1.10	-0.750			
0.3118	19956.78	3.6490	3.6489	-0.9672	7.08	1.10	-0.750			
0.3148	20144.58	3.6460	3.6459	-0.9779	7.09	1.11	-0.750			
0.3177	20333.08	3.6430	3.6429	-0.9894	7.10	1.12	-0.750			
0.3207	20523.07	3.6400	3.6400	-1.0011	7.10	1.12	-0.750			
0.3237	20719.36	3.6370	3.6371	-1.0131	7.11	1.13	-0.750			
0.3268	20915.45	3.6340	3.6339	-1.0174	7.12	1.14	-0.750			
0.3299	21112.55	3.6310	3.6310	-1.0199	7.13	1.15	-0.750			
0.3329	21307.39	3.6280	3.6281	-1.0158	7.13	1.15	-0.750			
0.3360	21504.65	3.6250	3.6250	-1.0272	7.14	1.16	-0.750			
0.3390	21699.13	3.6220	3.6221	-1.0213	7.15	1.17	-0.750			
0.3421	21894.70	3.6190	3.6189	-1.0275	7.15	1.17	-0.750			
0.3452	22091.46	3.6160	3.6160	-1.0413	7.16	1.18	-0.750			
0.3483	22291.58	3.6130	3.6132	-1.0638	7.16	1.18	-0.750			
0.3515	22496.97	3.6100	3.6101	-1.0771	7.17	1.19	-0.750			
0.3548	22709.23	3.6070	3.6069	-1.0895	7.18	1.20	-0.750			
0.3581	22918.99	3.6040	3.6041	-1.1018	7.18	1.20	-0.750			
0.3615	23132.84	3.6010	3.6010	-1.1182	7.19	1.21	-0.750			
0.3648	23348.35	3.5980	3.5981	-1.1235	7.19	1.21	-0.750			
0.3682	23564.39	3.5950	3.5949	-1.1620	7.20	1.22	-0.750			
0.3718	23798.03	3.5920	3.5918	-1.1561	7.20	1.22	-0.750			
0.3754	24023.71	3.5890	3.5886	-1.1483	7.21	1.23	-0.750			
0.3789	24246.80	3.5860	3.5855	-1.1428	7.21	1.23	-0.750	0.374	0.833	
0.3822	24458.96	3.5830	3.5826	-1.1270	7.22	1.24	-0.750			
0.3855	24669.15	3.5800	3.5799	-1.1156	7.23	1.25	-0.750			
0.3887	24878.78	3.5770	3.5770	-1.1362	7.23	1.25	-0.750			
0.3922	25100.11	3.5740	3.5739	-1.1702	7.24	1.26	-0.750			
0.3957	25327.96	3.5710	3.5709	-1.1831	7.24	1.26	-0.750			
0.3993	25556.39	3.5680	3.5681	-1.1900	7.24	1.26	-0.750			
0.4030	25789.64	3.5650	3.5650	-1.1925	7.25	1.27	-0.750			
0.4065	26018.91	3.5620	3.5621	-1.2034	7.25	1.27	-0.750			
0.4101	26246.24	3.5590	3.5590	-1.2004	7.26	1.28	-0.750			
0.4137	26477.99	3.5560	3.5559	-1.2202	7.27	1.29	-0.750			
0.4174	26711.50	3.5530	3.5531	-1.2291	7.28	1.30	-0.750			
0.4211	26949.34	3.5500	3.5499	-1.2417	7.29	1.31	-0.750			
0.4249	27191.24	3.5470	3.5470	-1.2566	7.29	1.31	-0.750			
0.4287	27437.01	3.5440	3.5440	-1.2591	7.29	1.31	-0.750			
0.4324	27676.04	3.5410	3.5410	-1.2577	7.30	1.32	-0.750			
0.4363	27920.28	3.5380	3.5381	-1.2596	7.30	1.32	-0.750			
0.4400	28160.78	3.5350	3.5349	-1.2615	7.31	1.33	-0.750			
0.4438	28402.86	3.5320	3.5320	-1.2685	7.31	1.33	-0.750			
0.4476	28645.23	3.5290	3.5290	-1.2801	7.32	1.34	-0.750			
0.4514	28891.79	3.5260	3.5259	-1.2893	7.33	1.35	-0.750			
0.4554	29144.26	3.5230	3.5230	-1.2889	7.33	1.35	-0.750			
0.4592	29391.57	3.5200	3.5200	-1.2907	7.34	1.36	-0.750			
0.4631	29639.64	3.5170	3.5171	-1.2927	7.35	1.37	-0.750			
0.4670	29885.68	3.5140	3.5140	-1.2952	7.36	1.38	-0.750			
0.4708	30133.04	3.5110	3.5109	-1.3044	7.37	1.39	-0.750			
0.4748	30384.90	3.5080	3.5079	-1.2978	7.37	1.39	-0.750			
0.4788	30640.51	3.5050	3.5050	-1.3002	7.38	1.40	-0.750			
0.4827	30890.62	3.5020	3.5020	-1.2963	7.39	1.41	-0.750			
0.4865	31138.64	3.4990	3.4991	-1.2818	7.39	1.41	-0.750			
0.4904	31382.84	3.4960	3.4959	-1.2718	7.40	1.42	-0.750			
0.4941	31620.70	3.4930	3.4929	-1.2589	7.40	1.42	-0.750			
0.4978	31859.39	3.4900	3.4900	-1.2652	7.41	1.43	-0.750			
0.5017	32107.23	3.4870	3.4869	-1.2713	7.42	1.44	-0.750			
0.5056	32355.67	3.4840	3.4839	-1.2682	7.43	1.45	-0.750			
0.5093	32596.38	3.4810	3.4812	-1.2598	7.44	1.46	-0.750			
0.5131	32839.51	3.4780	3.4780	-1.2547	7.44	1.46	-0.750			
0.5168	33077.76	3.4750	3.4749	-1.2478	7.45	1.47	-0.750			
0.5205	33311.65	3.4720	3.4720	-1.2386	7.46	1.48	-0.750			
0.5242	33549.11	3.4690	3.4691	-1.2344	7.46	1.48	-0.750			
0.5280	33792.79	3.4660	3.4659	-1.2378	7.48	1.50	-0.750			
0.5317	34030.90	3.4630	3.4630	-1.2227	7.49	1.51	-0.750			
0.5353	34261.96	3.4600	3.4603	-1.2158	7.50	1.52	-0.750			
0.5390	34496.58	3.4570	3.4569	-1.2094	7.51	1.53	-0.750			
0.5426	34726.64	3.4540	3.4540	-1.1902	7.52	1.54	-0.750			
0.5462	34954.28	3.4510	3.4509	-1.1790	7.53	1.55	-0.750			
0.5497	35181.54	3.4480	3.4482	-1.1759	7.54	1.56	-0.750			
0.5532	35404.98	3.4450	3.4449	-1.1667	7.55	1.57	-0.750			
0.5567	35628.27	3.4420	3.4418	-1.1511	7.56	1.58	-0.750			
0.5601	35844.42	3.4390	3.4391	-1.1368	7.57	1.59	-0.750			
0.5635	36064.67	3.4360	3.4360	-1.1465	7.58	1.60	-0.750			
0.5670	36287.79	3.4330	3.4329	-1.1458	7.59	1.61	-0.750			
0.5704	36507.09	3.4300	3.4298	-1.1370	7.60	1.62	-0.750			
0.5738	36723.51	3.4270	3.4272	-1.1295	7.61	1.63	-0.750			
0.5773	36945.94	3.4240	3.4240	-1.1013	7.63	1.65	-0.750			
0.5806	37157.22	3.4210	3.4210	-1.0777	7.64	1.66	-0.750			
0.5837	37355.47	3.4180	3.4182	-1.0520	7.65	1.67	-0.750			
0.5868	37555.71	3.4150	3.4149	-1.0550	7.67	1.69	-0.750			
0.5899	37754.38	3.4120	3.4118	-1.0407	7.68	1.70	-0.750			
0.5930	37953.72	3.4090	3.4090	-1.0340	7.69	1.71	-0.750			
0.5962	38155.59	3.4060	3.4060	-1.0239	7.70	1.72	-0.750			
0.5993	38356.37	3.4030	3.4030	-1.0137	7.72	1.74	-0.750			
0.6023	38549.16	3.4000	3.4000	-0.9934	7.73	1.75	-0.750			
0.6053	38736.23	3.3970	3.3969	-0.9738	7.74	1.76	-0.750			
0.6081	38919.06	3.3940	3.3939	-0.9489	7.75	1.77	-0.750			
0.6110	39101.95	3.3910	3.3911	-0.9334	7.76	1.78	-0.750			
0.6138	39280.13	3.3880	3.3881	-0.9156	7.78	1.80	-0.750			
0.6165	39454.47	3.3850	3.3850	-0.8934	7.79	1.81	-0.750			
0.6191	39622.63	3.3820	3.3819	-0.8705	7.80	1.82	-0.750			
0.6217	39787.86	3.3790	3.3790	-0.8517	7.81	1.83	-0.750			
0.6242	39947.79	3.3760	3.3762	-0.8333	7.83	1.85	-0.750			
0.6266	40105.10	3.3730	3.3730	-0.8277	7.84	1.86	-0.750			
0.6291	40263.72	3.3700	3.3698	-0.8118	7.85	1.87	-0.750			
0.6315	40417.93	3.3670	3.3670	-0.7968	7.86	1.88	-0.750			
0.6339	40571.25	3.3640	3.3640	-0.7810	7.87	1.89	-0.750			
0.6363	40721.32	3.3610	3.3611	-0.7676	7.89	1.91	-0.750			
0.6386	40867.29	3.3580	3.3579	-0.7496	7.90	1.92	-0.750			
0.6407	41007.09	3.3550	3.3550	-0.7288	7.91	1.93	-0.750			
0.6429	41142.93	3.3520	3.3520	-0.7114	7.93	1.95	-0.750			
0.6450	41280.13	3.3490	3.3490	-0.7066	7.94	1.96	-0.750			
0.6471	41414.49	3.3460	3.3460	-0.6943	7.95	1.97	-0.750			
0.6492	41547.34	3.3430	3.3429	-0.6805	7.97	1.99	-0.750			
0.6512	41677.53	3.3400	3.3400	-0.6647	7.98	2.00	-0.750			
0.6532	41804.95	3.3370	3.3370	-0.6488	7.99	2.01	-0.750			
0.6551	41927.10	3.3340	3.3340	-0.6379	8.00	2.02	-0.750			
0.6570	42048.15	3.3310	3.3309	-0.6233	8.01	2.03	-0.750			
0.6588	42165.97	3.3280	3.3279	-0.6054	8.02	2.04	-0.750			
0.6606	42281.21	3.3250	3.3252	-0.5901	8.03	2.05	-0.750			
0.6624	42394.30	3.3220	3.3220	-0.5759	8.05	2.07	-0.750			
0.6641	42501.87	3.3190	3.3190	-0.5653	8.06	2.08	-0.750			
0.6657	42607.44	3.3160	3.3159	-0.5527	8.07	2.09	-0.750			
0.6674	42712.25	3.3130	3.3130	-0.5439	8.09	2.11	-0.750			
0.6690	42816.53	3.3100	3.3100	-0.5357	8.10	2.12	-0.750			
0.6706	42920.19	3.3070	3.3070	-0.5300	8.11	2.13	-0.750			
0.6722	43020.32	3.3040	3.3040	-0.5220	8.12	2.14	-0.750			
0.6737	43119.49	3.3010	3.3009	-0.5117	8.14	2.16	-0.750			
0.6753	43216.56	3.2980	3.2979	-0.4974	8.15	2.17	-0.750			
0.6767	43311.17	3.2950	3.2949	-0.4887	8.16	2.18	-0.750			
0.6782	43404.15	3.2920	3.2922	-0.4765	8.17	2.19	-0.750			
0.6796	43495.41	3.2890	3.2889	-0.4654	8.18	2.20	-0.750			
0.6810	43582.06	3.2860	3.2860	-0.4564	8.19	2.21	-0.750			
0.6823	43668.46	3.2830	3.2830	-0.4483	8.21	2.23	-0.750			
0.6836	43753.10	3.2800	3.2800	-0.4419	8.22	2.24	-0.750			
0.6850	43837.76	3.2770	3.2768	-0.4360	8.23	2.25	-0.750			
0.6863	43920.25	3.2740	3.2741	-0.4308	8.24	2.26	-0.750			
0.6876	44003.22	3.2710	3.2709	-0.4274	8.25	2.27	-0.750			
0.6888	44084.71	3.2680	3.2681	-0.4224	8.26	2.28	-0.750			
0.6901	44165.14	3.2650	3.2650	-0.4155	8.27	2.29	-0.750			
0.6913	44245.31	3.2620	3.2619	-0.4102	8.28	2.30	-0.750			
0.6926	44323.47	3.2590	3.2590	-0.4029	8.29	2.31	-0.750			
0.6937	44399.80	3.2560	3.2561	-0.3945	8.30	2.32	-0.750			
0.6949	44474.26	3.2530	3.2530	-0.3859	8.32	2.34	-0.750			
0.6961	44547.70	3.2500	3.2500	-0.3800	8.33	2.35	-0.750			
0.6972	44620.11	3.2470	3.2469	-0.3724	8.34	2.36	-0.750			
0.6983	44691.05	3.2440	3.2441	-0.3666	8.34	2.36	-0.750			
0.6994	44760.45	3.2410	3.2409	-0.3609	8.36	2.38	-0.750			
0.7005	44828.84	3.2380	3.2380	-0.3545	8.37	2.39	-0.750			
0.7015	44896.11	3.2350	3.2350	-0.3513	8.38	2.40	-0.750			
0.7025	44962.92	3.2320	3.2320	-0.3477	8.39	2.41	-0.750			
0.7036	45029.46	3.2290	3.2290	-0.3433	8.40	2.42	-0.750			
0.7046	45095.28	3.2260	3.2260	-0.3418	8.41	2.43	-0.750			
0.7056	45160.55	3.2230	3.2231	-0.3374	8.42	2.44	-0.750			
0.7066	45224.87	3.2200	3.2199	-0.3345	8.43	2.45	-0.750			
0.7076	45289.44	3.2170	3.2170	-0.3287	8.44	2.46	-0.750			
0.7086	45351.52	3.2140	3.2142	-0.3239	8.45	2.47	-0.750			
0.7096	45413.68	3.2110	3.2110	-0.3202	8.46	2.48	-0.750			
0.7105	45474.92	3.2080	3.2081	-0.3156	8.46	2.48	-0.750			
0.7115	45534.05	3.2050	3.2050	-0.3108	8.47	2.49	-0.750			
0.7124	45593.44	3.2020	3.2021	-0.3059	8.48	2.50	-0.750			
0.7133	45652.00	3.1990	3.1991	-0.3021	8.49	2.51	-0.750			
0.7142	45710.28	3.1960	3.1959	-0.2995	8.50	2.52	-0.750			
0.7151	45766.79	3.1930	3.1930	-0.2943	8.51	2.53	-0.750			
0.7160	45822.64	3.1900	3.1900	-0.2907	8.52	2.54	-0.750			
0.7168	45878.08	3.1870	3.1870	-0.2872	8.53	2.55	-0.750			
0.7177	45932.58	3.1840	3.1840	-0.2841	8.54	2.56	-0.750			
0.7185	45987.12	3.1810	3.1810	-0.2817	8.55	2.57	-0.750			
0.7194	46040.68	3.1780	3.1781	-0.2793	8.56	2.58	-0.750			
0.7202	46094.39	3.1750	3.1750	-0.2774	8.57	2.59	-0.750			
0.7211	46147.75	3.1720	3.1719	-0.2751	8.58	2.60	-0.750			
0.7219	46200.53	3.1690	3.1690	-0.2719	8.59	2.61	-0.750			
0.7227	46252.53	3.1660	3.1661	-0.2684	8.60	2.62	-0.750			
0.7235	46303.93	3.1630	3.1629	-0.2647	8.61	2.63	-0.750			
0.7243	46354.24	3.1600	3.1600	-0.2617	8.62	2.64	-0.750			
0.7251	46403.39	3.1570	3.1570	-0.2580	8.63	2.65	-0.750			
0.7258	46452.35	3.1540	3.1540	-0.2564	8.64	2.66	-0.750			
0.7266	46501.98	3.1510	3.1509	-0.2567	8.65	2.67	-0.750			
0.7274	46551.00	3.1480	3.1480	-0.2549	8.66	2.68	-0.750			
0.7281	46599.96	3.1450	3.1449	-0.2538	8.67	2.69	-0.750			
0.7289	46649.29	3.1420	3.1420	-0.2516	8.68	2.70	-0.750			
0.7296	46697.49	3.1390	3.1390	-0.2485	8.69	2.71	-0.750			
0.7304	46745.27	3.1360	3.1359	-0.2450	8.70	2.72	-0.750			
0.7311	46791.76	3.1330	3.1331	-0.2404	8.71	2.73	-0.750			
0.7318	46836.90	3.1300	3.1300	-0.2369	8.72	2.74	-0.750			
0.7325	46881.78	3.1270	3.1269	-0.2354	8.73	2.75	-0.750			
0.7332	46926.70	3.1240	3.1240	-0.2318	8.74	2.76	-0.750			
0.7339	46970.22	3.1210	3.1210	-0.2310	8.74	2.76	-0.750			
0.7346	47014.93	3.1180	3.1180	-0.2308	8.75	2.77	-0.750			
0.7353	47059.20	3.1150	3.1151	-0.2297	8.76	2.78	-0.750			
0.7360	47103.24	3.1120	3.1119	-0.2287	8.77	2.79	-0.750			
0.7367	47147.18	3.1090	3.1091	-0.2273	8.78	2.80	-0.750			
0.7374	47190.52	3.1060	3.1060	-0.2256	8.79	2.81	-0.750			
0.7380	47234.01	3.1030	3.1030	-0.2239	8.80	2.82	-0.750			
0.7387	47277.36	3.1000	3.1000	-0.2223	8.81	2.83	-0.750			
0.7394	47319.08	3.0970	3.0970	-0.2192	8.82	2.84	-0.750			
0.7400	47361.24	3.0940	3.0941	-0.2182	8.83	2.85	-0.750			
0.7407	47402.79	3.0910	3.0910	-0.2162	8.84	2.86	-0.750			
0.7413	47444.13	3.0880	3.0879	-0.2148	8.85	2.87	-0.750			
0.7420	47485.12	3.0850	3.0850	-0.2132	8.86	2.88	-0.750			
0.7426	47525.85	3.0820	3.0820	-0.2117	8.87	2.89	-0.750			
0.7432	47566.37	3.0790	3.0790	-0.2111	8.88	2.90	-0.750			
0.7439	47606.95	3.0760	3.0759	-0.2096	8.89	2.91	-0.750			
0.7445	47647.11	3.0730	3.0730	-0.2081	8.89	2.91	-0.750			
0.7451	47686.75	3.0700	3.0700	-0.2072	8.90	2.92	-0.750			
0.7457	47726.60	3.0670	3.0670	-0.2058	8.91	2.93	-0.750			
0.7463	47766.17	3.0640	3.0640	-0.2041	8.92	2.94	-0.750			
0.7470	47804.98	3.0610	3.0609	-0.2028	8.93	2.95	-0.750			
0.7476	47843.77	3.0580	3.0581	-0.2013	8.94	2.96	-0.750			
0.7482	47882.19	3.0550	3.0550	-0.1990	8.94	2.96	-0.750			
0.7488	47920.32	3.0520	3.0519	-0.1982	8.96	2.98	-0.750			
0.7493	47958.16	3.0490	3.0491	-0.1969	8.97	2.99	-0.750			
0.7499	47995.53	3.0460	3.0460	-0.1954	8.98	3.00	-0.750			
0.7505	48032.74	3.0430	3.0429	-0.1964	8.99	3.01	-0.750			
0.7511	48070.54	3.0400	3.0400	-0.1957	9.00	3.02	-0.750			
0.7517	48108.43	3.0370	3.0369	-0.1943	9.01	3.03	-0.750			
0.7523	48145.65	3.0340	3.0339	-0.1934	9.02	3.04	-0.750			
0.7529	48183.09	3.0310	3.0312	-0.1933	9.03	3.05	-0.750			
0.7534	48220.07	3.0280	3.0280	-0.1920	9.04	3.06	-0.750			
0.7540	48256.82	3.0250	3.0250	-0.1906	9.05	3.07	-0.750			
0.7546	48293.25	3.0220	3.0219	-0.1889	9.06	3.08	-0.750			
0.7551	48328.82	3.0190	3.0191	-0.1870	9.07	3.09	-0.750			
0.7557	48364.92	3.0160	3.0161	-0.1867	9.08	3.10	-0.750			
0.7563	48400.81	3.0130	3.0129	-0.1862	9.09	3.11	-0.750			
0.7568	48436.43	3.0100	3.0100	-0.1848	9.10	3.12	-0.750			
0.7574	48471.36	3.0070	3.0070	-0.1838	9.11	3.13	-0.750			
0.7579	48506.61	3.0040	3.0040	-0.1836	9.12	3.14	-0.750			
0.7585	48541.85	3.0010	3.0010	-0.1827	9.13	3.15	-0.750			
