Ah_balance (normalized)	Ah_balance (mAh)	Voltage - fit (V)	Voltage -  interpolate (V)	dQ/dV (1/V)	Temperature (°C)	Temperature - diff (°C)	Current (C)	R_DC 0ms (mOhm)	R_DC 50ms (mOhm)	R_DC 50 ms PEC (mOhm)
0.0000	0.00	4.0940	4.1307	0.0000	5.96	-0.02	-0.750			
0.0000	0.00	4.0970	4.1307	0.0000	5.96	-0.02	-0.750			
0.0002	10.94	4.0910	4.0914	-0.0455	5.96	-0.02	-0.750			
0.0004	24.61	4.0880	4.0874	-0.0722	5.96	-0.02	-0.750			
0.0006	40.96	4.0850	4.0847	-0.0980	5.96	-0.02	-0.750			
0.0010	62.22	4.0820	4.0819	-0.1240	5.96	-0.02	-0.750			
0.0014	88.83	4.0790	4.0792	-0.1480	5.96	-0.02	-0.750			
0.0019	119.80	4.0760	4.0760	-0.1717	5.96	-0.02	-0.750			
0.0024	156.39	4.0730	4.0729	-0.1972	5.96	-0.02	-0.750			
0.0031	196.49	4.0700	4.0701	-0.2189	5.97	-0.01	-0.750			
0.0038	240.99	4.0670	4.0670	-0.2395	5.97	-0.01	-0.750			
0.0045	289.30	4.0640	4.0640	-0.2609	5.97	-0.01	-0.750			
0.0053	341.25	4.0610	4.0610	-0.2803	5.97	-0.01	-0.750			
0.0062	396.06	4.0580	4.0580	-0.3052	5.97	-0.01	-0.750			
0.0071	456.52	4.0550	4.0550	-0.3283	5.97	-0.01	-0.750			
0.0082	521.88	4.0520	4.0519	-0.3550	5.97	-0.01	-0.750			
0.0093	593.73	4.0490	4.0490	-0.3768	5.98	-0.00	-0.750			
0.0105	669.21	4.0460	4.0460	-0.4013	5.98	-0.00	-0.750			
0.0117	749.08	4.0430	4.0430	-0.4195	5.98	-0.00	-0.750			
0.0130	831.57	4.0400	4.0399	-0.4410	5.98	0.00	-0.750			
0.0143	917.57	4.0370	4.0369	-0.4571	5.98	0.00	-0.750			
0.0157	1007.17	4.0340	4.0341	-0.4741	5.99	0.01	-0.750			
0.0172	1098.36	4.0310	4.0311	-0.4921	5.99	0.01	-0.750			
0.0187	1197.06	4.0280	4.0280	-0.5151	5.99	0.01	-0.750			
0.0203	1297.77	4.0250	4.0249	-0.5311	5.99	0.01	-0.750			
0.0219	1403.45	4.0220	4.0219	-0.5470	6.00	0.02	-0.750			
0.0236	1508.21	4.0190	4.0191	-0.5637	6.00	0.02	-0.750			
0.0253	1619.18	4.0160	4.0160	-0.5825	6.00	0.02	-0.750			
0.0271	1732.66	4.0130	4.0129	-0.5967	6.01	0.03	-0.750			
0.0289	1848.25	4.0100	4.0100	-0.6096	6.01	0.03	-0.750			
0.0307	1966.82	4.0070	4.0070	-0.6202	6.01	0.03	-0.750			
0.0327	2090.80	4.0040	4.0040	-0.6319	6.02	0.04	-0.750			
0.0346	2214.35	4.0010	4.0009	-0.6331	6.02	0.04	-0.750			
0.0364	2332.26	3.9980	3.9981	-0.6366	6.03	0.05	-0.750			
0.0384	2454.46	3.9950	3.9951	-0.6434	6.03	0.05	-0.750			
0.0403	2577.48	3.9920	3.9919	-0.6554	6.03	0.05	-0.750			
0.0423	2704.44	3.9890	3.9889	-0.6625	6.04	0.06	-0.750			
0.0443	2834.63	3.9860	3.9861	-0.6720	6.04	0.06	-0.750			
0.0463	2966.16	3.9830	3.9831	-0.6824	6.04	0.06	-0.750			
0.0484	3099.80	3.9800	3.9799	-0.6861	6.05	0.07	-0.750			
0.0505	3231.23	3.9770	3.9770	-0.6813	6.05	0.07	-0.750			
0.0525	3359.47	3.9740	3.9740	-0.6882	6.06	0.08	-0.750			
0.0545	3489.77	3.9710	3.9710	-0.6996	6.07	0.09	-0.750			
0.0566	3624.95	3.9680	3.9680	-0.7036	6.08	0.10	-0.750			
0.0588	3763.12	3.9650	3.9649	-0.7162	6.09	0.11	-0.750			
0.0610	3902.20	3.9620	3.9621	-0.7229	6.09	0.11	-0.750			
0.0632	4044.53	3.9590	3.9589	-0.7247	6.10	0.12	-0.750			
0.0654	4184.49	3.9560	3.9560	-0.7250	6.11	0.13	-0.750			
0.0675	4322.14	3.9530	3.9530	-0.7157	6.12	0.14	-0.750			
0.0697	4458.23	3.9500	3.9500	-0.7108	6.12	0.14	-0.750			
0.0718	4594.87	3.9470	3.9469	-0.7166	6.13	0.15	-0.750			
0.0739	4730.38	3.9440	3.9441	-0.7202	6.14	0.16	-0.750			
0.0761	4868.39	3.9410	3.9407	-0.7280	6.14	0.16	-0.750			
0.0783	5011.39	3.9380	3.9380	-0.7322	6.15	0.17	-0.750			
0.0805	5151.24	3.9350	3.9352	-0.7395	6.16	0.18	-0.750			
0.0827	5295.15	3.9320	3.9320	-0.7408	6.17	0.19	-0.750			
0.0850	5440.52	3.9290	3.9288	-0.7399	6.17	0.19	-0.750			
0.0872	5579.63	3.9260	3.9263	-0.7326	6.18	0.20	-0.750			
0.0894	5719.43	3.9230	3.9230	-0.7348	6.19	0.21	-0.750			
0.0916	5859.52	3.9200	3.9202	-0.7386	6.20	0.22	-0.750			
0.0938	6002.43	3.9170	3.9169	-0.7410	6.21	0.23	-0.750			
0.0960	6143.37	3.9140	3.9140	-0.7459	6.21	0.23	-0.750			
0.0983	6288.43	3.9110	3.9110	-0.7526	6.22	0.24	-0.750			
0.1005	6434.84	3.9080	3.9080	-0.7569	6.23	0.25	-0.750			
0.1028	6580.06	3.9050	3.9049	-0.7530	6.24	0.26	-0.750			
0.1050	6722.25	3.9020	3.9021	-0.7551	6.25	0.27	-0.750			
0.1073	6866.34	3.8990	3.8991	-0.7577	6.26	0.28	-0.750			
0.1096	7015.03	3.8960	3.8959	-0.7614	6.27	0.29	-0.750			
0.1119	7160.28	3.8930	3.8930	-0.7608	6.28	0.30	-0.750			
0.1142	7306.31	3.8900	3.8901	-0.7667	6.29	0.31	-0.750			
0.1165	7455.79	3.8870	3.8869	-0.7691	6.30	0.32	-0.750			
0.1188	7604.26	3.8840	3.8839	-0.7653	6.31	0.33	-0.750			
0.1211	7748.28	3.8810	3.8810	-0.7647	6.32	0.34	-0.750			
0.1234	7897.32	3.8780	3.8781	-0.7638	6.33	0.35	-0.750			
0.1257	8043.98	3.8750	3.8750	-0.7669	6.34	0.36	-0.750			
0.1280	8188.90	3.8720	3.8719	-0.7661	6.35	0.37	-0.750			
0.1302	8335.35	3.8690	3.8691	-0.7707	6.36	0.38	-0.750			
0.1326	8484.81	3.8660	3.8659	-0.7763	6.37	0.39	-0.750			
0.1349	8635.31	3.8630	3.8630	-0.7742	6.38	0.40	-0.750			
0.1372	8783.60	3.8600	3.8601	-0.7727	6.39	0.41	-0.750			
0.1396	8933.88	3.8570	3.8571	-0.7767	6.40	0.42	-0.750			
0.1419	9081.42	3.8540	3.8540	-0.7705	6.41	0.43	-0.750			
0.1442	9229.24	3.8510	3.8509	-0.7716	6.42	0.44	-0.750			
0.1465	9374.95	3.8480	3.8481	-0.7733	6.43	0.45	-0.750			
0.1488	9525.35	3.8450	3.8450	-0.7752	6.44	0.46	-0.750			
0.1512	9677.22	3.8420	3.8419	-0.7774	6.45	0.47	-0.750			
0.1535	9823.48	3.8390	3.8390	-0.7774	6.45	0.47	-0.750			
0.1558	9971.94	3.8360	3.8361	-0.7795	6.46	0.48	-0.750			
0.1582	10122.57	3.8330	3.8329	-0.7813	6.47	0.49	-0.750			
0.1605	10271.83	3.8300	3.8298	-0.7864	6.48	0.50	-0.750			
0.1629	10422.64	3.8270	3.8272	-0.7870	6.49	0.51	-0.750			
0.1653	10576.60	3.8240	3.8241	-0.7874	6.50	0.52	-0.750			
0.1677	10730.47	3.8210	3.8210	-0.7866	6.51	0.53	-0.750			
0.1700	10877.63	3.8180	3.8180	-0.7776	6.52	0.54	-0.750			
0.1723	11028.08	3.8150	3.8150	-0.7812	6.53	0.55	-0.750			
0.1746	11176.61	3.8120	3.8120	-0.7833	6.54	0.56	-0.750			
0.1770	11325.32	3.8090	3.8089	-0.7855	6.55	0.57	-0.750			
0.1793	11478.16	3.8060	3.8060	-0.7916	6.56	0.58	-0.750			
0.1817	11631.95	3.8030	3.8030	-0.7965	6.57	0.59	-0.750			
0.1842	11786.41	3.8000	3.8000	-0.8030	6.59	0.61	-0.750			
0.1865	11938.83	3.7970	3.7970	-0.8031	6.60	0.62	-0.750			
0.1890	12093.17	3.7940	3.7939	-0.8056	6.61	0.63	-0.750			
0.1914	12247.63	3.7910	3.7910	-0.8072	6.62	0.64	-0.750			
0.1938	12403.74	3.7880	3.7879	-0.8057	6.63	0.65	-0.750			
0.1963	12560.06	3.7850	3.7850	-0.8014	6.64	0.66	-0.750			
0.1987	12713.86	3.7820	3.7821	-0.8024	6.65	0.67	-0.750			
0.2010	12866.75	3.7790	3.7791	-0.7977	6.67	0.69	-0.750			
0.2034	13016.65	3.7760	3.7760	-0.8041	6.67	0.69	-0.750			
0.2058	13174.08	3.7730	3.7730	-0.8026	6.68	0.70	-0.750			
0.2082	13327.53	3.7700	3.7700	-0.8077	6.69	0.71	-0.750			
0.2107	13484.60	3.7670	3.7671	-0.8081	6.70	0.72	-0.750			
0.2132	13641.77	3.7640	3.7639	-0.8098	6.71	0.73	-0.750			
0.2155	13794.61	3.7610	3.7609	-0.8077	6.72	0.74	-0.750			
0.2179	13947.84	3.7580	3.7581	-0.8110	6.73	0.75	-0.750			
0.2204	14102.67	3.7550	3.7550	-0.8181	6.74	0.76	-0.750			
0.2229	14264.13	3.7520	3.7518	-0.8242	6.74	0.76	-0.750			
0.2253	14420.99	3.7490	3.7491	-0.8233	6.75	0.77	-0.750			
0.2278	14581.31	3.7460	3.7461	-0.8283	6.76	0.78	-0.750			
0.2303	14740.15	3.7430	3.7430	-0.8357	6.77	0.79	-0.750			
0.2328	14900.92	3.7400	3.7399	-0.8358	6.78	0.80	-0.750			
0.2353	15060.45	3.7370	3.7370	-0.8342	6.79	0.81	-0.750			
0.2378	15221.55	3.7340	3.7341	-0.8369	6.80	0.82	-0.750			
0.2404	15385.68	3.7310	3.7310	-0.8400	6.81	0.83	-0.750			
0.2429	15544.43	3.7280	3.7280	-0.8442	6.82	0.84	-0.750			
0.2454	15704.78	3.7250	3.7250	-0.8492	6.83	0.85	-0.750			
0.2479	15867.83	3.7220	3.7219	-0.8542	6.84	0.86	-0.750			
0.2505	16033.48	3.7190	3.7190	-0.8655	6.85	0.87	-0.750			
0.2531	16201.57	3.7160	3.7160	-0.8713	6.86	0.88	-0.750			
0.2558	16369.72	3.7130	3.7130	-0.8671	6.87	0.89	-0.750			
0.2584	16536.99	3.7100	3.7101	-0.8629	6.88	0.90	-0.750			
0.2610	16702.26	3.7070	3.7071	-0.8718	6.89	0.91	-0.750			
0.2636	16867.38	3.7040	3.7037	-0.8708	6.90	0.92	-0.750			
0.2662	17034.99	3.7010	3.7010	-0.8821	6.91	0.93	-0.750			
0.2688	17203.78	3.6980	3.6981	-0.8920	6.92	0.94	-0.750			
0.2716	17379.80	3.6950	3.6950	-0.8992	6.93	0.95	-0.750			
0.2743	17555.13	3.6920	3.6920	-0.9023	6.94	0.96	-0.750			
0.2770	17726.06	3.6890	3.6890	-0.9098	6.95	0.97	-0.750			
0.2797	17900.89	3.6860	3.6860	-0.9071	6.96	0.98	-0.750			
0.2824	18076.09	3.6830	3.6829	-0.9117	6.97	0.99	-0.750			
0.2851	18249.40	3.6800	3.6801	-0.9181	6.98	1.00	-0.750			
0.2879	18425.18	3.6770	3.6771	-0.9320	6.99	1.01	-0.750			
0.2907	18606.48	3.6740	3.6740	-0.9505	7.00	1.02	-0.750			
0.2936	18790.92	3.6710	3.6709	-0.9586	7.01	1.03	-0.750			
0.2965	18976.67	3.6680	3.6680	-0.9581	7.02	1.04	-0.750			
0.2995	19166.04	3.6650	3.6651	-0.9623	7.03	1.05	-0.750			
0.3023	19348.00	3.6620	3.6621	-0.9655	7.04	1.06	-0.750			
0.3052	19532.15	3.6590	3.6588	-0.9620	7.04	1.06	-0.750			
0.3081	19715.76	3.6560	3.6559	-0.9636	7.05	1.07	-0.750			
0.3109	19899.33	3.6530	3.6528	-0.9699	7.06	1.08	-0.750			
0.3139	20088.36	3.6500	3.6500	-0.9819	7.07	1.09	-0.750			
0.3169	20278.62	3.6470	3.6469	-0.9867	7.07	1.09	-0.750			
0.3198	20467.54	3.6440	3.6440	-0.9979	7.08	1.10	-0.750			
0.3227	20655.69	3.6410	3.6411	-1.0026	7.09	1.11	-0.750			
0.3258	20852.87	3.6380	3.6379	-1.0210	7.10	1.12	-0.750			
0.3289	21051.11	3.6350	3.6350	-1.0247	7.11	1.13	-0.750			
0.3320	21247.93	3.6320	3.6320	-1.0303	7.12	1.14	-0.750			
0.3351	21447.86	3.6290	3.6289	-1.0369	7.12	1.14	-0.750			
0.3382	21646.10	3.6260	3.6261	-1.0421	7.13	1.15	-0.750			
0.3413	21844.05	3.6230	3.6230	-1.0512	7.14	1.16	-0.750			
0.3445	22045.56	3.6200	3.6200	-1.0614	7.14	1.16	-0.750			
0.3477	22252.03	3.6170	3.6169	-1.0700	7.15	1.17	-0.750			
0.3509	22460.40	3.6140	3.6140	-1.0870	7.15	1.17	-0.750			
0.3542	22670.44	3.6110	3.6110	-1.0927	7.16	1.18	-0.750			
0.3575	22882.00	3.6080	3.6080	-1.0984	7.17	1.19	-0.750			
0.3608	23093.38	3.6050	3.6049	-1.0936	7.19	1.21	-0.750			
0.3641	23303.94	3.6020	3.6019	-1.0889	7.19	1.21	-0.750			
0.3674	23511.34	3.5990	3.5991	-1.0918	7.20	1.22	-0.750			
0.3706	23717.44	3.5960	3.5961	-1.1147	7.20	1.22	-0.750			
0.3739	23931.17	3.5930	3.5929	-1.1270	7.21	1.23	-0.750			
0.3774	24150.95	3.5900	3.5898	-1.1518	7.22	1.24	-0.750			
0.3809	24377.36	3.5870	3.5870	-1.1629	7.22	1.24	-0.750	0.413	0.818	
0.3845	24605.33	3.5840	3.5840	-1.1691	7.23	1.25	-0.750			
0.3880	24831.94	3.5810	3.5811	-1.1884	7.24	1.26	-0.750			
0.3915	25057.19	3.5780	3.5780	-1.1801	7.25	1.27	-0.750			
0.3951	25284.12	3.5750	3.5749	-1.1736	7.26	1.28	-0.750			
0.3986	25512.98	3.5720	3.5720	-1.1834	7.27	1.29	-0.750			
0.4022	25742.43	3.5690	3.5691	-1.1899	7.27	1.29	-0.750			
0.4057	25967.70	3.5660	3.5660	-1.2062	7.28	1.30	-0.750			
0.4093	26196.58	3.5630	3.5629	-1.2200	7.29	1.31	-0.750			
0.4130	26430.88	3.5600	3.5600	-1.2227	7.29	1.31	-0.750			
0.4168	26673.90	3.5570	3.5570	-1.2373	7.30	1.32	-0.750			
0.4205	26913.78	3.5540	3.5542	-1.2443	7.31	1.33	-0.750			
0.4243	27153.06	3.5510	3.5510	-1.2479	7.32	1.34	-0.750			
0.4280	27390.56	3.5480	3.5479	-1.2590	7.32	1.34	-0.750			
0.4317	27629.97	3.5450	3.5450	-1.2608	7.33	1.35	-0.750			
0.4355	27870.56	3.5420	3.5420	-1.2802	7.33	1.35	-0.750			
0.4394	28123.33	3.5390	3.5390	-1.2945	7.34	1.36	-0.750			
0.4434	28377.59	3.5360	3.5360	-1.3035	7.34	1.36	-0.750			
0.4473	28627.75	3.5330	3.5330	-1.2933	7.35	1.37	-0.750			
0.4512	28876.68	3.5300	3.5301	-1.2907	7.36	1.38	-0.750			
0.4550	29122.09	3.5270	3.5270	-1.2883	7.37	1.39	-0.750			
0.4589	29367.55	3.5240	3.5240	-1.2871	7.38	1.40	-0.750			
0.4627	29610.21	3.5210	3.5210	-1.2921	7.39	1.41	-0.750			
0.4666	29863.31	3.5180	3.5179	-1.3007	7.40	1.42	-0.750			
0.4706	30116.49	3.5150	3.5150	-1.3082	7.41	1.43	-0.750			
0.4745	30367.54	3.5120	3.5122	-1.3167	7.42	1.44	-0.750			
0.4785	30620.97	3.5090	3.5090	-1.3221	7.43	1.45	-0.750			
0.4825	30877.75	3.5060	3.5058	-1.3182	7.43	1.45	-0.750			
0.4864	31127.19	3.5030	3.5030	-1.3176	7.44	1.46	-0.750			
0.4904	31384.62	3.5000	3.5000	-1.3128	7.45	1.47	-0.750			
0.4943	31635.66	3.4970	3.4970	-1.3049	7.46	1.48	-0.750			
0.4982	31884.53	3.4940	3.4940	-1.3088	7.47	1.49	-0.750			
0.5021	32131.70	3.4910	3.4910	-1.3001	7.49	1.51	-0.750			
0.5060	32382.39	3.4880	3.4879	-1.2972	7.49	1.51	-0.750			
0.5099	32634.44	3.4850	3.4851	-1.2900	7.50	1.52	-0.750			
0.5138	32880.64	3.4820	3.4821	-1.2815	7.51	1.53	-0.750			
0.5176	33128.40	3.4790	3.4791	-1.2800	7.52	1.54	-0.750			
0.5214	33371.35	3.4760	3.4759	-1.2644	7.53	1.55	-0.750			
0.5252	33612.46	3.4730	3.4731	-1.2552	7.54	1.56	-0.750			
0.5290	33853.97	3.4700	3.4701	-1.2498	7.55	1.57	-0.750			
0.5327	34094.22	3.4670	3.4670	-1.2527	7.57	1.59	-0.750			
0.5365	34334.14	3.4640	3.4638	-1.2477	7.58	1.60	-0.750			
0.5402	34574.56	3.4610	3.4608	-1.2381	7.59	1.61	-0.750			
0.5440	34815.18	3.4580	3.4580	-1.2182	7.60	1.62	-0.750			
0.5476	35048.10	3.4550	3.4550	-1.2084	7.60	1.62	-0.750			
0.5512	35276.95	3.4520	3.4520	-1.1956	7.61	1.63	-0.750			
0.5548	35504.91	3.4490	3.4489	-1.1791	7.63	1.65	-0.750			
0.5582	35725.94	3.4460	3.4459	-1.1764	7.64	1.66	-0.750			
0.5617	35947.91	3.4430	3.4432	-1.1744	7.65	1.67	-0.750			
0.5653	36180.99	3.4400	3.4399	-1.1833	7.66	1.68	-0.750			
0.5689	36409.92	3.4370	3.4371	-1.1872	7.67	1.69	-0.750			
0.5724	36636.35	3.4340	3.4340	-1.1727	7.68	1.70	-0.750			
0.5760	36861.20	3.4310	3.4310	-1.1652	7.69	1.71	-0.750			
0.5795	37089.02	3.4280	3.4279	-1.1494	7.71	1.73	-0.750			
0.5829	37306.85	3.4250	3.4251	-1.1211	7.72	1.74	-0.750			
0.5863	37521.45	3.4220	3.4220	-1.0981	7.74	1.76	-0.750			
0.5895	37728.71	3.4190	3.4190	-1.0880	7.75	1.77	-0.750			
0.5927	37929.75	3.4160	3.4160	-1.0623	7.76	1.78	-0.750			
0.5959	38134.65	3.4130	3.4129	-1.0471	7.77	1.79	-0.750			
0.5990	38333.20	3.4100	3.4100	-1.0345	7.79	1.81	-0.750			
0.6021	38535.70	3.4070	3.4071	-1.0323	7.80	1.82	-0.750			
0.6052	38732.93	3.4040	3.4039	-1.0111	7.81	1.83	-0.750			
0.6082	38925.73	3.4010	3.4009	-0.9889	7.82	1.84	-0.750			
0.6111	39111.16	3.3980	3.3980	-0.9733	7.84	1.86	-0.750			
0.6140	39296.51	3.3950	3.3951	-0.9661	7.85	1.87	-0.750			
0.6169	39482.28	3.3920	3.3918	-0.9572	7.86	1.88	-0.750			
0.6198	39664.78	3.3890	3.3890	-0.9348	7.88	1.90	-0.750			
0.6226	39843.72	3.3860	3.3860	-0.9148	7.89	1.91	-0.750			
0.6253	40020.18	3.3830	3.3831	-0.8929	7.90	1.92	-0.750			
0.6280	40190.83	3.3800	3.3799	-0.8714	7.92	1.94	-0.750			
0.6305	40353.74	3.3770	3.3769	-0.8467	7.93	1.95	-0.750			
0.6330	40511.28	3.3740	3.3741	-0.8252	7.95	1.97	-0.750			
0.6355	40669.06	3.3710	3.3709	-0.8121	7.96	1.98	-0.750			
0.6379	40824.11	3.3680	3.3680	-0.7888	7.97	1.99	-0.750			
0.6402	40973.62	3.3650	3.3650	-0.7724	7.98	2.00	-0.750			
0.6425	41119.86	3.3620	3.3621	-0.7545	8.00	2.02	-0.750			
0.6447	41262.08	3.3590	3.3588	-0.7351	8.01	2.03	-0.750			
0.6469	41402.89	3.3560	3.3560	-0.7178	8.02	2.04	-0.750			
0.6490	41538.16	3.3530	3.3531	-0.6992	8.03	2.05	-0.750			
0.6511	41671.17	3.3500	3.3499	-0.6835	8.04	2.06	-0.750			
0.6531	41800.89	3.3470	3.3470	-0.6709	8.05	2.07	-0.750			
0.6551	41924.90	3.3440	3.3440	-0.6547	8.06	2.08	-0.750			
0.6570	42049.83	3.3410	3.3410	-0.6470	8.07	2.09	-0.750			
0.6590	42174.04	3.3380	3.3379	-0.6375	8.08	2.10	-0.750			
0.6609	42296.25	3.3350	3.3350	-0.6294	8.09	2.11	-0.750			
0.6628	42417.04	3.3320	3.3320	-0.6160	8.10	2.12	-0.750			
0.6646	42534.48	3.3290	3.3290	-0.6025	8.12	2.14	-0.750			
0.6664	42648.54	3.3260	3.3260	-0.5887	8.13	2.15	-0.750			
0.6681	42758.54	3.3230	3.3232	-0.5781	8.14	2.16	-0.750			
0.6698	42868.82	3.3200	3.3199	-0.5700	8.15	2.17	-0.750			
0.6715	42978.16	3.3170	3.3169	-0.5543	8.17	2.19	-0.750			
0.6732	43083.83	3.3140	3.3140	-0.5404	8.18	2.20	-0.750			
0.6748	43186.90	3.3110	3.3112	-0.5259	8.19	2.21	-0.750			
0.6763	43286.00	3.3080	3.3080	-0.5160	8.20	2.22	-0.750			
0.6779	43383.23	3.3050	3.3048	-0.5034	8.21	2.23	-0.750			
0.6793	43476.23	3.3020	3.3019	-0.4897	8.22	2.24	-0.750			
0.6808	43570.54	3.2990	3.2989	-0.4842	8.23	2.25	-0.750			
0.6822	43662.40	3.2960	3.2962	-0.4809	8.24	2.26	-0.750			
0.6837	43754.87	3.2930	3.2929	-0.4751	8.25	2.27	-0.750			
0.6851	43845.74	3.2900	3.2899	-0.4674	8.26	2.28	-0.750			
0.6865	43933.92	3.2870	3.2869	-0.4555	8.27	2.29	-0.750			
0.6879	44022.45	3.2840	3.2842	-0.4501	8.29	2.31	-0.750			
0.6892	44108.16	3.2810	3.2810	-0.4411	8.30	2.32	-0.750			
0.6905	44191.26	3.2780	3.2780	-0.4316	8.31	2.33	-0.750			
0.6917	44270.98	3.2750	3.2751	-0.4217	8.32	2.34	-0.750			
0.6930	44352.36	3.2720	3.2719	-0.4171	8.33	2.35	-0.750			
0.6943	44432.40	3.2690	3.2690	-0.4114	8.34	2.36	-0.750			
0.6955	44510.66	3.2660	3.2660	-0.4065	8.36	2.38	-0.750			
0.6967	44588.60	3.2630	3.2631	-0.4000	8.37	2.39	-0.750			
0.6979	44664.53	3.2600	3.2599	-0.3938	8.38	2.40	-0.750			
0.6990	44739.19	3.2570	3.2571	-0.3851	8.39	2.41	-0.750			
0.7002	44812.70	3.2540	3.2540	-0.3777	8.39	2.41	-0.750			
0.7013	44884.89	3.2510	3.2510	-0.3731	8.40	2.42	-0.750			
0.7024	44955.36	3.2480	3.2479	-0.3656	8.42	2.44	-0.750			
0.7035	45023.85	3.2450	3.2451	-0.3596	8.43	2.45	-0.750			
0.7046	45093.37	3.2420	3.2420	-0.3542	8.44	2.46	-0.750			
0.7056	45160.65	3.2390	3.2390	-0.3469	8.45	2.47	-0.750			
0.7067	45226.55	3.2360	3.2361	-0.3441	8.46	2.48	-0.750			
0.7077	45291.44	3.2330	3.2332	-0.3404	8.46	2.48	-0.750			
0.7087	45356.25	3.2300	3.2298	-0.3350	8.47	2.49	-0.750			
0.7097	45420.38	3.2270	3.2269	-0.3284	8.48	2.50	-0.750			
0.7107	45482.86	3.2240	3.2242	-0.3240	8.49	2.51	-0.750			
0.7116	45545.51	3.2210	3.2211	-0.3226	8.50	2.52	-0.750			
0.7126	45606.58	3.2180	3.2180	-0.3164	8.50	2.52	-0.750			
0.7135	45665.03	3.2150	3.2150	-0.3093	8.51	2.53	-0.750			
0.7144	45724.64	3.2120	3.2120	-0.3076	8.52	2.54	-0.750			
0.7154	45784.16	3.2090	3.2091	-0.3069	8.54	2.56	-0.750			
0.7163	45843.19	3.2060	3.2059	-0.3042	8.55	2.57	-0.750			
0.7172	45900.88	3.2030	3.2031	-0.3007	8.56	2.58	-0.750			
0.7181	45958.27	3.2000	3.2000	-0.2988	8.57	2.59	-0.750			
0.7190	46015.47	3.1970	3.1970	-0.2958	8.58	2.60	-0.750			
0.7199	46071.98	3.1940	3.1939	-0.2919	8.59	2.61	-0.750			
0.7208	46128.04	3.1910	3.1910	-0.2886	8.60	2.62	-0.750			
0.7216	46182.63	3.1880	3.1880	-0.2854	8.60	2.62	-0.750			
0.7225	46237.44	3.1850	3.1851	-0.2825	8.61	2.63	-0.750			
0.7233	46291.60	3.1820	3.1818	-0.2770	8.62	2.64	-0.750			
0.7241	46344.63	3.1790	3.1790	-0.2713	8.63	2.65	-0.750			
0.7249	46395.95	3.1760	3.1761	-0.2683	8.64	2.66	-0.750			
0.7257	46446.64	3.1730	3.1731	-0.2642	8.65	2.67	-0.750			
0.7265	46496.50	3.1700	3.1700	-0.2603	8.66	2.68	-0.750			
0.7273	46545.10	3.1670	3.1669	-0.2578	8.67	2.69	-0.750			
0.7280	46594.73	3.1640	3.1642	-0.2569	8.68	2.70	-0.750			
0.7288	46644.77	3.1610	3.1610	-0.2538	8.69	2.71	-0.750			
0.7296	46693.50	3.1580	3.1580	-0.2525	8.70	2.72	-0.750			
0.7303	46741.75	3.1550	3.1551	-0.2502	8.71	2.73	-0.750			
0.7311	46788.86	3.1520	3.1519	-0.2462	8.72	2.74	-0.750			
0.7318	46835.80	3.1490	3.1489	-0.2443	8.73	2.75	-0.750			
0.7325	46882.03	3.1460	3.1461	-0.2418	8.74	2.76	-0.750			
0.7333	46928.70	3.1430	3.1430	-0.2416	8.75	2.77	-0.750			
0.7340	46975.31	3.1400	3.1400	-0.2415	8.76	2.78	-0.750			
0.7347	47021.61	3.1370	3.1369	-0.2382	8.76	2.78	-0.750			
0.7354	47067.04	3.1340	3.1340	-0.2359	8.77	2.79	-0.750			
0.7361	47112.43	3.1310	3.1310	-0.2343	8.78	2.80	-0.750			
0.7368	47157.63	3.1280	3.1279	-0.2313	8.79	2.81	-0.750			
0.7375	47201.25	3.1250	3.1250	-0.2288	8.79	2.81	-0.750			
0.7382	47244.71	3.1220	3.1220	-0.2269	8.80	2.82	-0.750			
0.7389	47287.88	3.1190	3.1190	-0.2242	8.81	2.83	-0.750			
0.7395	47330.52	3.1160	3.1159	-0.2223	8.82	2.84	-0.750			
0.7402	47373.49	3.1130	3.1130	-0.2217	8.83	2.85	-0.750			
0.7409	47415.79	3.1100	3.1101	-0.2199	8.84	2.86	-0.750			
0.7415	47457.76	3.1070	3.1071	-0.2180	8.85	2.87	-0.750			
0.7422	47499.76	3.1040	3.1038	-0.2166	8.86	2.88	-0.750			
0.7428	47540.43	3.1010	3.1010	-0.2157	8.87	2.89	-0.750			
0.7435	47582.20	3.0980	3.0980	-0.2136	8.87	2.89	-0.750			
0.7441	47623.30	3.0950	3.0950	-0.2126	8.88	2.90	-0.750			
0.7447	47663.87	3.0920	3.0920	-0.2106	8.89	2.91	-0.750			
0.7454	47704.14	3.0890	3.0893	-0.2086	8.90	2.92	-0.750			
0.7460	47743.95	3.0860	3.0859	-0.2069	8.91	2.93	-0.750			
0.7466	47783.27	3.0830	3.0830	-0.2052	8.92	2.94	-0.750			
0.7472	47822.50	3.0800	3.0800	-0.2041	8.93	2.95	-0.750			
0.7478	47861.10	3.0770	3.0770	-0.2027	8.93	2.95	-0.750			
0.7484	47900.68	3.0740	3.0740	-0.2015	8.94	2.96	-0.750			
0.7490	47939.02	3.0710	3.0710	-0.1995	8.95	2.97	-0.750			
0.7496	47976.97	3.0680	3.0681	-0.1987	8.96	2.98	-0.750			
0.7502	48015.00	3.0650	3.0649	-0.1976	8.97	2.99	-0.750			
0.7508	48052.53	3.0620	3.0620	-0.1974	8.98	3.00	-0.750			
0.7514	48090.47	3.0590	3.0589	-0.1959	8.99	3.01	-0.750			
0.7520	48128.20	3.0560	3.0560	-0.1951	8.99	3.01	-0.750			
0.7526	48165.56	3.0530	3.0530	-0.1941	9.00	3.02	-0.750			
0.7532	48203.16	3.0500	3.0501	-0.1933	9.01	3.03	-0.750			
0.7538	48240.12	3.0470	3.0470	-0.1919	9.02	3.04	-0.750			
0.7543	48276.42	3.0440	3.0439	-0.1901	9.03	3.05	-0.750			
0.7549	48312.83	3.0410	3.0410	-0.1892	9.04	3.06	-0.750			
0.7555	48349.06	3.0380	3.0380	-0.1870	9.05	3.07	-0.750			
0.7560	48385.27	3.0350	3.0349	-0.1860	9.06	3.08	-0.750			
0.7566	48420.85	3.0320	3.0320	-0.1839	9.07	3.09	-0.750			
0.7571	48455.75	3.0290	3.0290	-0.1831	9.07	3.09	-0.750			
0.7577	48490.42	3.0260	3.0260	-0.1827	9.08	3.10	-0.750			
0.7582	48525.23	3.0230	3.0230	-0.1820	9.09	3.11	-0.750			
0.7587	48559.86	3.0200	3.0199	-0.1817	9.10	3.12	-0.750			
0.7593	48594.95	3.0170	3.0171	-0.1818	9.11	3.13	-0.750			
0.7599	48630.46	3.0140	3.0141	-0.1816	9.12	3.14	-0.750			
0.7604	48665.53	3.0110	3.0109	-0.1808	9.13	3.15	-0.750			
0.7609	48700.08	3.0080	3.0080	-0.1790	9.14	3.16	-0.750			
0.7615	48734.31	3.0050	3.0051	-0.1771	9.15	3.17	-0.750			
0.7620	48768.13	3.0020	3.0021	-0.1752	9.16	3.18	-0.750			
