Ah_balance (normalized)	Ah_balance (mAh)	Voltage - fit (V)	Voltage -  interpolate (V)	dQ/dV (1/V)	Temperature (°C)	Temperature - diff (°C)	Current (C)	R_DC 0ms (mOhm)	R_DC 50ms (mOhm)	R_DC 50 ms PEC (mOhm)
0.0922	5902.53	4.1980	4.1933	0.7740	8.27	2.28	0.750	0.395	0.863	
0.0948	6065.95	4.1950	4.1966	0.8588	8.26	2.27	0.750			
0.0974	6232.29	4.1920	4.1929	0.8463	8.26	2.27	0.750			
0.0999	6394.44	4.1890	4.1895	0.8167	8.25	2.26	0.750			
0.1023	6549.05	4.1860	4.1862	0.7833	8.24	2.25	0.750			
0.1046	6697.08	4.1830	4.1829	0.7222	8.23	2.24	0.750			
0.1068	6835.03	4.1800	4.1800	0.7128	8.23	2.24	0.750			
0.1089	6970.31	4.1770	4.1770	0.7077	8.22	2.23	0.750			
0.1110	7105.26	4.1740	4.1740	0.7043	8.22	2.23	0.750			
0.1131	7238.45	4.1710	4.1710	0.7051	8.21	2.22	0.750			
0.1152	7373.03	4.1680	4.1680	0.7124	8.21	2.22	0.750			
0.1173	7509.19	4.1650	4.1650	0.7230	8.21	2.22	0.750			
0.1195	7650.39	4.1620	4.1620	0.7279	8.20	2.21	0.750			
0.1218	7792.93	4.1590	4.1590	0.7338	8.20	2.21	0.750			
0.1240	7934.36	4.1560	4.1560	0.7349	8.19	2.20	0.750			
0.1262	8077.85	4.1530	4.1529	0.7311	8.18	2.19	0.750			
0.1284	8216.71	4.1500	4.1501	0.7299	8.18	2.19	0.750			
0.1305	8354.66	4.1470	4.1470	0.7306	8.17	2.18	0.750			
0.1327	8493.95	4.1440	4.1440	0.7324	8.16	2.17	0.750			
0.1349	8636.44	4.1410	4.1410	0.7407	8.16	2.17	0.750			
0.1372	8777.62	4.1380	4.1380	0.7483	8.15	2.16	0.750			
0.1394	8923.18	4.1350	4.1350	0.7482	8.15	2.16	0.750			
0.1417	9069.56	4.1320	4.1320	0.7531	8.14	2.15	0.750			
0.1439	9212.70	4.1290	4.1290	0.7544	8.14	2.15	0.750			
0.1462	9357.42	4.1260	4.1258	0.7575	8.13	2.14	0.750			
0.1485	9503.30	4.1230	4.1229	0.7569	8.12	2.13	0.750			
0.1508	9648.78	4.1200	4.1200	0.7552	8.12	2.13	0.750			
0.1530	9793.94	4.1170	4.1170	0.7559	8.11	2.12	0.750			
0.1553	9938.83	4.1140	4.1141	0.7571	8.11	2.12	0.750			
0.1576	10084.68	4.1110	4.1110	0.7612	8.10	2.11	0.750			
0.1598	10229.60	4.1080	4.1081	0.7660	8.10	2.11	0.750			
0.1622	10378.15	4.1050	4.1049	0.7717	8.09	2.10	0.750			
0.1645	10528.07	4.1020	4.1020	0.7797	8.08	2.09	0.750			
0.1669	10678.63	4.0990	4.0990	0.7851	8.07	2.08	0.750			
0.1692	10829.59	4.0960	4.0961	0.7857	8.07	2.08	0.750			
0.1716	10981.07	4.0930	4.0930	0.7876	8.06	2.07	0.750			
0.1740	11132.85	4.0900	4.0900	0.7889	8.05	2.06	0.750			
0.1763	11286.13	4.0870	4.0871	0.7788	8.05	2.06	0.750			
0.1786	11433.40	4.0840	4.0840	0.7925	8.04	2.05	0.750			
0.1810	11584.77	4.0810	4.0811	0.7984	8.04	2.05	0.750			
0.1834	11739.46	4.0780	4.0776	0.8045	8.03	2.04	0.750			
0.1858	11894.08	4.0750	4.0752	0.8149	8.03	2.04	0.750			
0.1883	12052.13	4.0720	4.0721	0.8200	8.02	2.03	0.750			
0.1908	12211.29	4.0690	4.0690	0.8247	8.01	2.02	0.750			
0.1933	12371.89	4.0660	4.0659	0.8126	8.01	2.02	0.750			
0.1957	12527.72	4.0630	4.0630	0.8150	8.00	2.01	0.750			
0.1982	12683.91	4.0600	4.0601	0.8133	7.99	2.00	0.750			
0.2006	12840.17	4.0570	4.0568	0.8112	7.99	2.00	0.750			
0.2030	12993.26	4.0540	4.0540	0.8154	7.98	1.99	0.750			
0.2055	13149.44	4.0510	4.0510	0.8306	7.97	1.98	0.750			
0.2080	13310.26	4.0480	4.0479	0.8400	7.96	1.97	0.750			
0.2105	13474.31	4.0450	4.0450	0.8499	7.95	1.96	0.750			
0.2131	13639.00	4.0420	4.0419	0.8473	7.95	1.96	0.750			
0.2157	13803.77	4.0390	4.0391	0.8488	7.94	1.95	0.750			
0.2182	13964.94	4.0360	4.0361	0.8491	7.93	1.94	0.750			
0.2208	14128.17	4.0330	4.0329	0.8507	7.92	1.93	0.750			
0.2233	14288.96	4.0300	4.0299	0.8467	7.92	1.93	0.750			
0.2258	14453.57	4.0270	4.0271	0.8535	7.91	1.92	0.750			
0.2284	14618.53	4.0240	4.0240	0.8622	7.90	1.91	0.750			
0.2310	14785.14	4.0210	4.0210	0.8643	7.90	1.91	0.750			
0.2336	14952.05	4.0180	4.0178	0.8686	7.89	1.90	0.750			
0.2362	15118.86	4.0150	4.0150	0.8660	7.88	1.89	0.750			
0.2389	15286.85	4.0120	4.0121	0.8722	7.87	1.88	0.750			
0.2415	15453.55	4.0090	4.0089	0.8778	7.87	1.88	0.750			
0.2441	15621.65	4.0060	4.0060	0.8829	7.86	1.87	0.750			
0.2467	15791.47	4.0030	4.0028	0.8788	7.85	1.86	0.750			
0.2494	15959.86	4.0000	4.0001	0.8876	7.84	1.85	0.750			
0.2520	16130.87	3.9970	3.9971	0.8944	7.84	1.85	0.750			
0.2547	16302.71	3.9940	3.9940	0.9048	7.83	1.84	0.750			
0.2575	16477.52	3.9910	3.9909	0.9033	7.82	1.83	0.750			
0.2602	16651.92	3.9880	3.9879	0.9061	7.81	1.82	0.750			
0.2629	16828.55	3.9850	3.9851	0.9018	7.80	1.81	0.750			
0.2656	17001.20	3.9820	3.9820	0.9030	7.79	1.80	0.750			
0.2683	17170.95	3.9790	3.9791	0.8995	7.78	1.79	0.750			
0.2710	17343.13	3.9760	3.9758	0.9071	7.77	1.78	0.750			
0.2737	17515.32	3.9730	3.9729	0.9086	7.76	1.77	0.750			
0.2764	17692.13	3.9700	3.9701	0.9250	7.76	1.77	0.750			
0.2792	17869.93	3.9670	3.9671	0.9425	7.75	1.76	0.750			
0.2821	18053.89	3.9640	3.9640	0.9513	7.74	1.75	0.750			
0.2850	18239.75	3.9610	3.9609	0.9541	7.74	1.75	0.750			
0.2878	18422.14	3.9580	3.9581	0.9580	7.73	1.74	0.750			
0.2908	18608.44	3.9550	3.9552	0.9599	7.72	1.73	0.750			
0.2937	18793.65	3.9520	3.9519	0.9611	7.71	1.72	0.750			
0.2965	18975.73	3.9490	3.9489	0.9550	7.70	1.71	0.750			
0.2993	19157.88	3.9460	3.9462	0.9560	7.69	1.70	0.750			
0.3022	19339.74	3.9430	3.9431	0.9755	7.68	1.69	0.750			
0.3051	19527.13	3.9400	3.9399	0.9944	7.67	1.68	0.750			
0.3081	19721.20	3.9370	3.9368	0.9963	7.66	1.67	0.750			
0.3112	19917.20	3.9340	3.9341	1.0015	7.65	1.66	0.750			
0.3142	20109.27	3.9310	3.9312	1.0034	7.64	1.65	0.750			
0.3172	20301.54	3.9280	3.9281	1.0123	7.63	1.64	0.750			
0.3202	20491.18	3.9250	3.9249	1.0170	7.61	1.62	0.750			
0.3232	20685.20	3.9220	3.9220	1.0326	7.61	1.62	0.750			
0.3263	20884.96	3.9190	3.9190	1.0512	7.60	1.61	0.750			
0.3296	21094.38	3.9160	3.9160	1.0666	7.59	1.60	0.750			
0.3329	21306.83	3.9130	3.9130	1.0720	7.58	1.59	0.750			
0.3362	21516.18	3.9100	3.9101	1.0508	7.57	1.58	0.750			
0.3392	21711.87	3.9070	3.9070	1.0543	7.56	1.57	0.750			
0.3423	21904.68	3.9040	3.9041	1.0628	7.55	1.56	0.750			
0.3455	22109.41	3.9010	3.9008	1.0870	7.53	1.54	0.750			
0.3487	22319.74	3.8980	3.8981	1.1005	7.52	1.53	0.750			
0.3521	22535.47	3.8950	3.8952	1.1375	7.51	1.52	0.750			
0.3556	22757.54	3.8920	3.8921	1.1599	7.50	1.51	0.750			
0.3592	22989.31	3.8890	3.8887	1.1695	7.49	1.50	0.750			
0.3626	23207.60	3.8860	3.8860	1.1803	7.48	1.49	0.750			
0.3662	23436.98	3.8830	3.8831	1.1939	7.47	1.48	0.750			
0.3699	23673.37	3.8800	3.8800	1.1996	7.45	1.46	0.750			
0.3735	23900.96	3.8770	3.8771	1.2058	7.44	1.45	0.750			
0.3770	24131.02	3.8740	3.8742	1.2245	7.42	1.43	0.750			
0.3807	24367.85	3.8710	3.8710	1.2568	7.40	1.41	0.750			
0.3846	24613.13	3.8680	3.8677	1.2621	7.39	1.40	0.750			
0.3884	24855.01	3.8650	3.8652	1.2898	7.38	1.39	0.750			
0.3923	25108.80	3.8620	3.8621	1.3269	7.36	1.37	0.750			
0.3963	25366.28	3.8590	3.8587	1.3519	7.35	1.36	0.750			
0.4004	25628.31	3.8560	3.8561	1.3516	7.34	1.35	0.750	0.397	0.908	
0.4045	25890.70	3.8530	3.8530	1.3729	7.32	1.33	0.750			
0.4087	26156.83	3.8500	3.8501	1.3959	7.31	1.32	0.750			
0.4129	26427.16	3.8470	3.8471	1.4118	7.29	1.30	0.750			
0.4172	26699.41	3.8440	3.8439	1.4263	7.28	1.29	0.750			
0.4214	26972.60	3.8410	3.8410	1.4651	7.26	1.27	0.750			
0.4259	27256.92	3.8380	3.8380	1.4899	7.24	1.25	0.750			
0.4305	27549.38	3.8350	3.8349	1.5133	7.22	1.23	0.750			
0.4350	27840.27	3.8320	3.8323	1.5483	7.21	1.22	0.750			
0.4397	28142.91	3.8290	3.8288	1.5681	7.19	1.20	0.750			
0.4445	28447.98	3.8260	3.8261	1.6043	7.17	1.18	0.750			
0.4493	28755.69	3.8230	3.8232	1.6376	7.15	1.16	0.750			
0.4543	29072.07	3.8200	3.8201	1.6675	7.13	1.14	0.750			
0.4593	29396.66	3.8170	3.8168	1.7185	7.11	1.12	0.750			
0.4645	29730.05	3.8140	3.8139	1.7592	7.09	1.10	0.750			
0.4698	30067.78	3.8110	3.8110	1.8043	7.07	1.08	0.750			
0.4754	30425.79	3.8080	3.8080	1.8321	7.04	1.05	0.750			
0.4810	30784.22	3.8050	3.8053	1.8270	7.01	1.02	0.750			
0.4865	31134.11	3.8020	3.8021	1.8437	6.99	1.00	0.750			
0.4920	31490.28	3.7990	3.7990	1.8646	6.97	0.98	0.750			
0.4975	31838.95	3.7960	3.7958	1.9281	6.94	0.95	0.750			
0.5034	32218.71	3.7930	3.7930	1.9762	6.92	0.93	0.750			
0.5095	32606.41	3.7900	3.7899	2.0188	6.89	0.90	0.750			
0.5157	33005.21	3.7870	3.7872	2.0702	6.86	0.87	0.750			
0.5219	33398.64	3.7840	3.7838	2.0861	6.84	0.85	0.750			
0.5281	33800.38	3.7810	3.7810	2.1158	6.81	0.82	0.750			
0.5345	34205.72	3.7780	3.7780	2.1457	6.79	0.80	0.750			
0.5411	34630.83	3.7750	3.7750	2.2029	6.75	0.76	0.750			
0.5477	35053.15	3.7720	3.7720	2.2229	6.72	0.73	0.750			
0.5544	35484.70	3.7690	3.7690	2.2670	6.69	0.70	0.750			
0.5613	35920.36	3.7660	3.7660	2.3153	6.67	0.68	0.750			
0.5682	36367.69	3.7630	3.7631	2.3692	6.63	0.64	0.750			
0.5754	36828.42	3.7600	3.7599	2.4128	6.60	0.61	0.750			
0.5828	37297.81	3.7570	3.7570	2.4624	6.57	0.58	0.750			
0.5902	37772.26	3.7540	3.7540	2.5632	6.54	0.55	0.750			
0.5980	38269.77	3.7510	3.7509	2.6742	6.51	0.52	0.750			
0.6061	38791.79	3.7480	3.7482	2.7536	6.47	0.48	0.750			
0.6146	39335.89	3.7450	3.7450	2.8872	6.44	0.45	0.750			
0.6233	39894.25	3.7420	3.7420	2.9580	6.41	0.42	0.750			
0.6327	40489.82	3.7390	3.7390	3.1332	6.37	0.38	0.750			
0.6422	41103.44	3.7360	3.7358	3.2127	6.34	0.35	0.750			
0.6520	41730.03	3.7330	3.7328	3.2093	6.30	0.31	0.750			
0.6616	42341.49	3.7300	3.7300	3.1383	6.26	0.27	0.750			
0.6708	42934.38	3.7270	3.7271	2.9252	6.24	0.25	0.750			
0.6795	43487.69	3.7240	3.7241	2.7503	6.21	0.22	0.750			
0.6873	43986.73	3.7210	3.7209	2.4277	6.19	0.20	0.750			
0.6940	44414.89	3.7180	3.7182	2.1284	6.17	0.18	0.750			
0.6998	44785.67	3.7150	3.7153	1.8696	6.15	0.16	0.750			
0.7051	45127.21	3.7120	3.7119	1.6662	6.14	0.15	0.750			
0.7095	45406.24	3.7090	3.7089	1.4925	6.13	0.14	0.750			
0.7136	45667.65	3.7060	3.7060	1.3611	6.12	0.13	0.750			
0.7174	45913.67	3.7030	3.7030	1.2776	6.11	0.12	0.750			
0.7211	46148.76	3.7000	3.7000	1.2114	6.10	0.11	0.750			
0.7246	46374.62	3.6970	3.6970	1.1626	6.09	0.10	0.750			
0.7280	46589.05	3.6940	3.6939	1.1192	6.08	0.09	0.750			
0.7312	46798.13	3.6910	3.6910	1.0915	6.08	0.09	0.750			
0.7344	47003.32	3.6880	3.6881	1.0624	6.07	0.08	0.750			
0.7376	47205.99	3.6850	3.6850	1.0504	6.06	0.07	0.750			
0.7407	47402.56	3.6820	3.6820	1.0317	6.05	0.06	0.750			
0.7438	47602.36	3.6790	3.6791	1.0159	6.05	0.06	0.750			
0.7468	47796.77	3.6760	3.6759	0.9942	6.04	0.05	0.750			
0.7498	47986.22	3.6730	3.6731	0.9727	6.03	0.04	0.750			
0.7527	48169.63	3.6700	3.6701	0.9498	6.03	0.04	0.750			
0.7554	48348.77	3.6670	3.6670	0.9368	6.03	0.04	0.750			
0.7582	48525.10	3.6640	3.6638	0.9183	6.02	0.03	0.750			
0.7609	48697.60	3.6610	3.6611	0.9072	6.02	0.03	0.750			
0.7637	48874.09	3.6580	3.6580	0.9024	6.01	0.02	0.750			
0.7664	49047.33	3.6550	3.6551	0.8978	6.01	0.02	0.750			
0.7690	49217.83	3.6520	3.6520	0.8928	6.00	0.01	0.750			
0.7716	49384.03	3.6490	3.6492	0.8918	6.00	0.01	0.750			
0.7743	49555.49	3.6460	3.6458	0.8937	6.00	0.01	0.750			
0.7769	49724.58	3.6430	3.6431	0.9112	6.00	0.01	0.750			
0.7798	49904.32	3.6400	3.6398	0.9147	5.99	0.00	0.750			
0.7826	50087.43	3.6370	3.6370	0.9177	5.99	0.00	0.750			
0.7855	50270.05	3.6340	3.6341	0.8761	5.99	0.00	0.750			
0.7882	50443.06	3.6310	3.6310	0.8269	5.99	0.00	0.750			
0.7906	50600.66	3.6280	3.6281	0.7428	5.99	0.00	0.750			
0.7928	50739.02	3.6250	3.6250	0.6417	5.99	0.00	0.750			
0.7945	50848.05	3.6220	3.6220	0.5282	5.99	0.00	0.750			
0.7957	50927.49	3.6190	3.6194	0.4469	5.99	0.00	0.750			
0.7969	51001.86	3.6160	3.6160	0.3488	5.99	0.00	0.750			
0.7978	51060.03	3.6130	3.6128	0.2760	5.99	0.00	0.750			
0.7984	51100.01	3.6100	3.6097	0.2004	5.99	0.00	0.750			
0.7989	51130.51	3.6070	3.6054	0.1429	5.99	0.00	0.750			
0.7991	51143.55	3.5920	3.5980	-0.0984	5.99	0.00	0.750			
0.7993	51152.87	3.6040	3.5223	0.0912	5.99	0.00	0.758			
0.7993	51157.98	3.5950	3.4706	-0.0519	5.99	0.00	0.765			
0.7994	51160.03	3.6010	3.4498	0.0412	5.99	0.00	0.768			
0.7994	51163.47	3.5980	3.4150	-0.0054	5.99	0.00	0.773			
