Ah_balance (normalized)	Ah_balance (mAh)	Voltage - fit (V)	Voltage -  interpolate (V)	dQ/dV (1/V)	Temperature (°C)	Temperature - diff (°C)	Current (C)	R_DC 0ms (mOhm)	R_DC 50ms (mOhm)	R_DC 50 ms PEC (mOhm)
0.0927	5931.32	4.1970	4.1997	0.9024	8.28	2.13	0.750			
0.0955	6114.32	4.1940	4.1955	0.9255	8.28	2.13	0.750			
0.0982	6287.36	4.1910	4.1920	0.8737	8.28	2.13	0.750			
0.1008	6450.30	4.1880	4.1884	0.8187	8.27	2.12	0.750			
0.1035	6622.23	4.1850	4.1846	0.8067	8.27	2.12	0.750			
0.1052	6735.29	4.1820	4.1819	0.7055	8.26	2.11	0.750			
0.1074	6871.66	4.1790	4.1790	0.7057	8.26	2.11	0.750			
0.1095	7006.26	4.1760	4.1759	0.7049	8.26	2.11	0.750			
0.1116	7141.39	4.1730	4.1731	0.7062	8.26	2.11	0.750			
0.1137	7276.97	4.1700	4.1700	0.7058	8.26	2.11	0.750			
0.1158	7413.00	4.1670	4.1670	0.7137	8.25	2.10	0.750			
0.1179	7548.50	4.1640	4.1640	0.7154	8.25	2.10	0.750			
0.1201	7685.90	4.1610	4.1609	0.7248	8.25	2.10	0.750			
0.1223	7827.50	4.1580	4.1580	0.7289	8.25	2.10	0.750			
0.1245	7967.65	4.1550	4.1551	0.7336	8.24	2.09	0.750			
0.1267	8110.53	4.1520	4.1520	0.7287	8.23	2.08	0.750			
0.1289	8250.57	4.1490	4.1488	0.7245	8.23	2.08	0.750			
0.1310	8385.45	4.1460	4.1462	0.7261	8.22	2.07	0.750			
0.1332	8525.20	4.1430	4.1428	0.7309	8.22	2.07	0.750			
0.1354	8663.91	4.1400	4.1400	0.7401	8.22	2.07	0.750			
0.1376	8808.81	4.1370	4.1369	0.7483	8.21	2.06	0.750			
0.1399	8954.25	4.1340	4.1341	0.7526	8.21	2.06	0.750			
0.1422	9100.33	4.1310	4.1310	0.7544	8.21	2.06	0.750			
0.1445	9247.19	4.1280	4.1281	0.7608	8.20	2.05	0.750			
0.1468	9392.42	4.1250	4.1250	0.7588	8.20	2.05	0.750			
0.1490	9537.78	4.1220	4.1219	0.7577	8.19	2.04	0.750			
0.1513	9682.36	4.1190	4.1191	0.7549	8.19	2.04	0.750			
0.1536	9829.64	4.1160	4.1160	0.7538	8.18	2.03	0.750			
0.1558	9971.49	4.1130	4.1130	0.7582	8.18	2.03	0.750			
0.1581	10116.41	4.1100	4.1100	0.7598	8.17	2.02	0.750			
0.1603	10262.29	4.1070	4.1069	0.7662	8.17	2.02	0.750			
0.1627	10411.98	4.1040	4.1040	0.7697	8.16	2.01	0.750			
0.1650	10560.90	4.1010	4.1010	0.7731	8.16	2.01	0.750			
0.1673	10708.22	4.0980	4.0981	0.7759	8.16	2.01	0.750			
0.1697	10858.01	4.0950	4.0950	0.7843	8.15	2.00	0.750			
0.1720	11006.62	4.0920	4.0920	0.7847	8.15	2.00	0.750			
0.1743	11158.05	4.0890	4.0890	0.7906	8.14	1.99	0.750			
0.1767	11310.53	4.0860	4.0860	0.7980	8.14	1.99	0.750			
0.1792	11467.53	4.0830	4.0829	0.8058	8.14	1.99	0.750			
0.1816	11622.49	4.0800	4.0800	0.8029	8.13	1.98	0.750			
0.1840	11775.53	4.0770	4.0771	0.8072	8.13	1.98	0.750			
0.1864	11930.55	4.0740	4.0740	0.8076	8.12	1.97	0.750			
0.1888	12086.34	4.0710	4.0709	0.8124	8.12	1.97	0.750			
0.1913	12240.53	4.0680	4.0680	0.8175	8.12	1.97	0.750			
0.1937	12398.65	4.0650	4.0651	0.8157	8.11	1.96	0.750			
0.1962	12557.63	4.0620	4.0619	0.8183	8.11	1.96	0.750			
0.1987	12714.98	4.0590	4.0591	0.8191	8.10	1.95	0.750			
0.2011	12869.87	4.0560	4.0560	0.8164	8.09	1.94	0.750			
0.2036	13027.93	4.0530	4.0530	0.8192	8.08	1.93	0.750			
0.2060	13185.23	4.0500	4.0500	0.8210	8.08	1.93	0.750			
0.2084	13340.24	4.0470	4.0470	0.8289	8.07	1.92	0.750			
0.2110	13502.46	4.0440	4.0440	0.8371	8.07	1.92	0.750			
0.2135	13663.09	4.0410	4.0410	0.8446	8.06	1.91	0.750			
0.2160	13825.27	4.0380	4.0380	0.8534	8.06	1.91	0.750			
0.2186	13992.12	4.0350	4.0350	0.8547	8.05	1.90	0.750			
0.2212	14158.05	4.0320	4.0320	0.8589	8.05	1.90	0.750			
0.2238	14324.18	4.0290	4.0290	0.8513	8.04	1.89	0.750			
0.2263	14485.88	4.0260	4.0261	0.8465	8.04	1.89	0.750			
0.2289	14648.19	4.0230	4.0230	0.8514	8.04	1.89	0.750			
0.2314	14810.31	4.0200	4.0201	0.8476	8.03	1.88	0.750			
0.2339	14971.66	4.0170	4.0169	0.8479	8.03	1.88	0.750			
0.2365	15135.38	4.0140	4.0141	0.8543	8.02	1.87	0.750			
0.2391	15299.88	4.0110	4.0111	0.8601	8.02	1.87	0.750			
0.2416	15465.58	4.0080	4.0080	0.8722	8.01	1.86	0.750			
0.2443	15632.83	4.0050	4.0050	0.8754	8.00	1.85	0.750			
0.2469	15800.95	4.0020	4.0021	0.8886	8.00	1.85	0.750			
0.2496	15975.78	3.9990	3.9989	0.8889	7.99	1.84	0.750			
0.2523	16145.98	3.9960	3.9960	0.8934	7.98	1.83	0.750			
0.2550	16318.19	3.9930	3.9931	0.8933	7.98	1.83	0.750			
0.2576	16488.17	3.9900	3.9898	0.8980	7.97	1.82	0.750			
0.2604	16662.64	3.9870	3.9870	0.8909	7.96	1.81	0.750			
0.2630	16833.67	3.9840	3.9840	0.8976	7.95	1.80	0.750			
0.2657	17003.59	3.9810	3.9811	0.9032	7.95	1.80	0.750			
0.2684	17178.54	3.9780	3.9781	0.9233	7.94	1.79	0.750			
0.2711	17353.34	3.9750	3.9749	0.9247	7.93	1.78	0.750			
0.2740	17532.92	3.9720	3.9720	0.9427	7.92	1.77	0.750			
0.2768	17716.68	3.9690	3.9691	0.9475	7.92	1.77	0.750			
0.2798	17904.68	3.9660	3.9660	0.9505	7.92	1.77	0.750			
0.2826	18086.63	3.9630	3.9630	0.9464	7.91	1.76	0.750			
0.2855	18269.77	3.9600	3.9601	0.9342	7.90	1.75	0.750			
0.2882	18446.98	3.9570	3.9571	0.9308	7.90	1.75	0.750			
0.2910	18622.20	3.9540	3.9540	0.9395	7.89	1.74	0.750			
0.2937	18799.14	3.9510	3.9510	0.9421	7.88	1.73	0.750			
0.2966	18984.76	3.9480	3.9480	0.9561	7.88	1.73	0.750			
0.2995	19168.69	3.9450	3.9451	0.9712	7.87	1.72	0.750			
0.3025	19359.21	3.9420	3.9420	0.9765	7.86	1.71	0.750			
0.3054	19548.49	3.9390	3.9391	0.9918	7.86	1.71	0.750			
0.3084	19739.28	3.9360	3.9359	0.9925	7.85	1.70	0.750			
0.3114	19929.13	3.9330	3.9330	0.9888	7.84	1.69	0.750			
0.3144	20120.79	3.9300	3.9301	0.9942	7.83	1.68	0.750			
0.3174	20310.92	3.9270	3.9271	1.0008	7.82	1.67	0.750			
0.3204	20502.41	3.9240	3.9238	1.0076	7.81	1.66	0.750			
0.3234	20697.20	3.9210	3.9210	1.0182	7.80	1.65	0.750			
0.3264	20890.17	3.9180	3.9180	1.0293	7.80	1.65	0.750			
0.3295	21090.75	3.9150	3.9151	1.0493	7.79	1.64	0.750			
0.3327	21294.75	3.9120	3.9116	1.0550	7.78	1.63	0.750			
0.3359	21500.32	3.9090	3.9092	1.0714	7.77	1.62	0.750			
0.3392	21707.52	3.9060	3.9060	1.0791	7.77	1.62	0.750			
0.3424	21912.43	3.9030	3.9030	1.1009	7.76	1.61	0.750			
0.3457	22122.73	3.9000	3.9000	1.1080	7.75	1.60	0.750			
0.3490	22339.11	3.8970	3.8970	1.1309	7.74	1.59	0.750			
0.3525	22562.74	3.8940	3.8940	1.1457	7.73	1.58	0.750			
0.3560	22785.14	3.8910	3.8912	1.1590	7.72	1.57	0.750			
0.3595	23008.67	3.8880	3.8880	1.1644	7.71	1.56	0.750			
0.3630	23233.85	3.8850	3.8849	1.1692	7.69	1.54	0.750			
0.3665	23455.64	3.8820	3.8820	1.1691	7.68	1.53	0.750			
0.3700	23679.67	3.8790	3.8790	1.1848	7.67	1.52	0.750			
0.3735	23906.23	3.8760	3.8761	1.2070	7.66	1.51	0.750			
0.3772	24139.16	3.8730	3.8729	1.2358	7.65	1.50	0.750			
0.3810	24382.70	3.8700	3.8698	1.2394	7.64	1.49	0.750			
0.3847	24622.61	3.8670	3.8672	1.2589	7.62	1.47	0.750			
0.3885	24866.17	3.8640	3.8641	1.2911	7.61	1.46	0.750			
0.3924	25114.71	3.8610	3.8611	1.3181	7.59	1.44	0.750			
0.3964	25366.41	3.8580	3.8577	1.3334	7.58	1.43	0.750			
0.4004	25626.31	3.8550	3.8549	1.3548	7.56	1.41	0.750	0.382	0.864	
0.4046	25894.72	3.8520	3.8522	1.3692	7.55	1.40	0.750			
0.4088	26161.93	3.8490	3.8490	1.3920	7.54	1.39	0.750			
0.4130	26428.81	3.8460	3.8461	1.3884	7.52	1.37	0.750			
0.4170	26690.38	3.8430	3.8430	1.4072	7.50	1.35	0.750			
0.4212	26959.69	3.8400	3.8400	1.4450	7.49	1.34	0.750			
0.4256	27239.38	3.8370	3.8370	1.4840	7.47	1.32	0.750			
0.4301	27528.38	3.8340	3.8343	1.5294	7.46	1.31	0.750			
0.4348	27828.94	3.8310	3.8309	1.5554	7.44	1.29	0.750			
0.4396	28131.71	3.8280	3.8278	1.5718	7.42	1.27	0.750			
0.4443	28436.63	3.8250	3.8251	1.6091	7.40	1.25	0.750			
0.4492	28747.10	3.8220	3.8217	1.6305	7.38	1.23	0.750			
0.4541	29060.17	3.8190	3.8188	1.6589	7.36	1.21	0.750			
0.4591	29381.73	3.8160	3.8161	1.6906	7.34	1.19	0.750			
0.4643	29712.18	3.8130	3.8133	1.7365	7.32	1.17	0.750			
0.4695	30050.47	3.8100	3.8099	1.7851	7.29	1.14	0.750			
0.4751	30404.54	3.8070	3.8070	1.8081	7.27	1.12	0.750			
0.4804	30745.52	3.8040	3.8041	1.8578	7.25	1.10	0.750			
0.4861	31112.95	3.8010	3.8008	1.9031	7.22	1.07	0.750			
0.4919	31481.87	3.7980	3.7977	1.9012	7.20	1.05	0.750			
0.4976	31849.57	3.7950	3.7951	1.9220	7.17	1.02	0.750			
0.5034	32216.75	3.7920	3.7920	1.9469	7.15	1.00	0.750			
0.5092	32589.15	3.7890	3.7891	1.9573	7.12	0.97	0.750			
0.5151	32968.81	3.7860	3.7859	1.9917	7.10	0.95	0.750			
0.5211	33352.12	3.7830	3.7833	2.0612	7.07	0.92	0.750			
0.5274	33753.32	3.7800	3.7800	2.1258	7.04	0.89	0.750			
0.5338	34164.66	3.7770	3.7769	2.1799	7.02	0.87	0.750			
0.5404	34586.05	3.7740	3.7741	2.2432	6.99	0.84	0.750			
0.5474	35031.81	3.7710	3.7709	2.2301	6.96	0.81	0.750			
0.5540	35454.27	3.7680	3.7681	2.2632	6.93	0.78	0.750			
0.5607	35887.15	3.7650	3.7647	2.3097	6.90	0.75	0.750			
0.5677	36334.40	3.7620	3.7618	2.3299	6.87	0.72	0.750			
0.5747	36783.13	3.7590	3.7591	2.4096	6.84	0.69	0.750			
0.5823	37264.63	3.7560	3.7558	2.4706	6.81	0.66	0.750			
0.5896	37732.65	3.7530	3.7530	2.4660	6.78	0.63	0.750			
0.5970	38209.76	3.7500	3.7502	2.6126	6.74	0.59	0.750			
0.6049	38716.34	3.7470	3.7466	2.7646	6.71	0.56	0.750			
0.6134	39257.46	3.7440	3.7441	2.9405	6.68	0.53	0.750			
0.6229	39867.27	3.7410	3.7409	3.0918	6.65	0.50	0.750			
0.6320	40446.45	3.7380	3.7381	3.0768	6.60	0.45	0.750			
0.6414	41047.97	3.7350	3.7349	3.1632	6.57	0.42	0.750			
0.6509	41658.33	3.7320	3.7321	3.2070	6.53	0.38	0.750			
0.6609	42297.64	3.7290	3.7289	3.1621	6.50	0.35	0.750			
0.6701	42884.18	3.7260	3.7262	2.9674	6.47	0.32	0.750			
0.6787	43437.43	3.7230	3.7229	2.7546	6.44	0.29	0.750			
0.6867	43949.77	3.7200	3.7200	2.4955	6.41	0.26	0.750			
0.6938	44404.55	3.7170	3.7169	2.2153	6.39	0.24	0.750			
0.6998	44789.96	3.7140	3.7143	1.9516	6.37	0.22	0.750			
0.7052	45133.18	3.7110	3.7111	1.7066	6.36	0.21	0.750			
0.7097	45422.93	3.7080	3.7079	1.5135	6.34	0.19	0.750			
0.7138	45680.29	3.7050	3.7050	1.3606	6.33	0.18	0.750			
0.7175	45920.55	3.7020	3.7021	1.2811	6.31	0.16	0.750			
0.7212	46156.06	3.6990	3.6988	1.2155	6.30	0.15	0.750			
0.7247	46378.43	3.6960	3.6960	1.1622	6.29	0.14	0.750			
0.7281	46598.67	3.6930	3.6931	1.1316	6.29	0.14	0.750			
0.7314	46812.57	3.6900	3.6900	1.1116	6.28	0.13	0.750			
0.7347	47023.70	3.6870	3.6869	1.0783	6.27	0.12	0.750			
0.7379	47226.80	3.6840	3.6840	1.0519	6.26	0.11	0.750			
0.7411	47427.22	3.6810	3.6810	1.0235	6.25	0.10	0.750			
0.7441	47623.02	3.6780	3.6781	1.0074	6.24	0.09	0.750			
0.7471	47813.66	3.6750	3.6750	0.9821	6.24	0.09	0.750			
0.7500	47997.93	3.6720	3.6719	0.9604	6.23	0.08	0.750			
0.7528	48178.66	3.6690	3.6690	0.9470	6.22	0.07	0.750			
0.7556	48360.07	3.6660	3.6661	0.9378	6.22	0.07	0.750			
0.7584	48537.65	3.6630	3.6629	0.9309	6.21	0.06	0.750			
0.7612	48717.57	3.6600	3.6601	0.9226	6.20	0.05	0.750			
0.7639	48890.94	3.6570	3.6569	0.9168	6.20	0.05	0.750			
0.7667	49067.45	3.6540	3.6541	0.9169	6.19	0.04	0.750			
0.7694	49243.09	3.6510	3.6509	0.9096	6.18	0.03	0.750			
0.7721	49416.48	3.6480	3.6480	0.9130	6.18	0.03	0.750			
0.7749	49592.86	3.6450	3.6451	0.9097	6.17	0.02	0.750			
0.7776	49765.95	3.6420	3.6420	0.9109	6.17	0.02	0.750			
0.7804	49943.24	3.6390	3.6390	0.9133	6.16	0.01	0.750			
0.7831	50120.94	3.6360	3.6360	0.8930	6.16	0.01	0.750			
0.7859	50296.77	3.6330	3.6330	0.8715	6.16	0.01	0.750			
0.7885	50466.51	3.6300	3.6301	0.8188	6.16	0.01	0.750			
0.7910	50626.08	3.6270	3.6271	0.7429	6.15	0.00	0.750			
0.7932	50766.43	3.6240	3.6240	0.6488	6.15	0.00	0.750			
0.7950	50878.67	3.6210	3.6211	0.5431	6.15	0.00	0.750			
0.7964	50970.99	3.6180	3.6180	0.4338	6.15	-0.00	0.750			
0.7974	51036.11	3.6150	3.6151	0.3613	6.15	-0.00	0.750			
0.7983	51092.69	3.6120	3.6121	0.2736	6.15	-0.00	0.750			
0.7990	51138.45	3.6090	3.6086	0.2134	6.15	-0.00	0.750			
0.7995	51166.58	3.6060	3.6052	0.1465	6.15	-0.00	0.750			
0.7998	51189.32	3.5910	3.5719	-0.0844	6.15	-0.00	0.750			
0.7998	51189.99	3.6030	3.5653	0.0976	6.15	-0.00	0.750			
0.8000	51199.62	3.6000	3.4711	0.0486	6.15	-0.00	0.750			
0.8000	51201.27	3.5940	3.4550	-0.0401	6.15	-0.00	0.750			
0.8001	51204.70	3.5970	3.4214	0.0043	6.15	-0.00	0.750			
