Ah_balance (normalized)	Ah_balance (mAh)	Voltage - fit (V)	Voltage -  interpolate (V)	dQ/dV (1/V)	Temperature (°C)	Temperature - diff (°C)	Current (C)	R_DC 0ms (mOhm)	R_DC 50ms (mOhm)	R_DC 50 ms PEC (mOhm)
0.0000	0.00	4.1010	4.1191	0.0000	5.97	-0.03	-0.750			
0.0002	13.89	4.0980	4.0969	-0.0431	5.97	-0.03	-0.750			
0.0004	26.27	4.0950	4.0944	-0.0758	5.98	-0.02	-0.750			
0.0007	44.76	4.0920	4.0917	-0.1051	5.98	-0.02	-0.750			
0.0011	67.69	4.0890	4.0890	-0.1337	5.98	-0.02	-0.750			
0.0015	96.26	4.0860	4.0861	-0.1600	5.98	-0.02	-0.750			
0.0020	129.65	4.0830	4.0831	-0.1852	5.98	-0.02	-0.750			
0.0026	169.15	4.0800	4.0802	-0.2112	5.98	-0.02	-0.750			
0.0033	212.18	4.0770	4.0769	-0.2336	5.98	-0.02	-0.750			
0.0040	258.97	4.0740	4.0741	-0.2580	5.98	-0.02	-0.750			
0.0049	310.69	4.0710	4.0709	-0.2822	5.99	-0.01	-0.750			
0.0057	367.77	4.0680	4.0680	-0.3042	5.99	-0.01	-0.750			
0.0067	428.03	4.0650	4.0650	-0.3279	5.99	-0.01	-0.750			
0.0077	493.37	4.0620	4.0621	-0.3503	5.99	-0.01	-0.750			
0.0088	562.69	4.0590	4.0590	-0.3723	6.00	-0.00	-0.750			
0.0099	636.56	4.0560	4.0559	-0.3933	6.00	-0.00	-0.750			
0.0111	713.19	4.0530	4.0531	-0.4160	6.00	0.00	-0.750			
0.0124	795.42	4.0500	4.0500	-0.4395	6.00	0.00	-0.750			
0.0138	883.10	4.0470	4.0470	-0.4606	6.01	0.01	-0.750			
0.0152	973.40	4.0440	4.0439	-0.4786	6.01	0.01	-0.750			
0.0167	1065.70	4.0410	4.0412	-0.5067	6.01	0.01	-0.750			
0.0182	1165.43	4.0380	4.0379	-0.5305	6.02	0.02	-0.750			
0.0198	1269.86	4.0350	4.0349	-0.5510	6.02	0.02	-0.750			
0.0215	1377.62	4.0320	4.0320	-0.5723	6.03	0.03	-0.750			
0.0233	1492.14	4.0290	4.0294	-0.5886	6.03	0.03	-0.750			
0.0251	1608.24	4.0260	4.0258	-0.6004	6.04	0.04	-0.750			
0.0270	1725.18	4.0230	4.0231	-0.6094	6.04	0.04	-0.750			
0.0288	1840.56	4.0200	4.0201	-0.6184	6.05	0.05	-0.750			
0.0306	1960.74	4.0170	4.0170	-0.6287	6.06	0.06	-0.750			
0.0325	2082.24	4.0140	4.0138	-0.6390	6.07	0.07	-0.750			
0.0344	2204.38	4.0110	4.0110	-0.6478	6.07	0.07	-0.750			
0.0364	2330.08	4.0080	4.0082	-0.6649	6.08	0.08	-0.750			
0.0384	2460.16	4.0050	4.0049	-0.6769	6.09	0.09	-0.750			
0.0405	2590.71	4.0020	4.0019	-0.6895	6.10	0.10	-0.750			
0.0426	2723.38	3.9990	3.9991	-0.6977	6.11	0.11	-0.750			
0.0447	2860.38	3.9960	3.9961	-0.7117	6.12	0.12	-0.750			
0.0469	3000.09	3.9930	3.9929	-0.7177	6.12	0.12	-0.750			
0.0491	3139.37	3.9900	3.9901	-0.7187	6.13	0.13	-0.750			
0.0512	3275.39	3.9870	3.9870	-0.7220	6.14	0.14	-0.750			
0.0534	3414.69	3.9840	3.9840	-0.7303	6.15	0.15	-0.750			
0.0555	3553.90	3.9810	3.9810	-0.7319	6.15	0.15	-0.750			
0.0578	3697.52	3.9780	3.9779	-0.7316	6.16	0.16	-0.750			
0.0600	3839.43	3.9750	3.9750	-0.7360	6.17	0.17	-0.750			
0.0622	3980.01	3.9720	3.9720	-0.7406	6.18	0.18	-0.750			
0.0644	4121.77	3.9690	3.9690	-0.7406	6.19	0.19	-0.750			
0.0666	4262.04	3.9660	3.9659	-0.7412	6.20	0.20	-0.750			
0.0688	4406.10	3.9630	3.9630	-0.7391	6.21	0.21	-0.750			
0.0711	4549.66	3.9600	3.9601	-0.7457	6.23	0.23	-0.750			
0.0733	4693.92	3.9570	3.9571	-0.7505	6.24	0.24	-0.750			
0.0756	4836.26	3.9540	3.9539	-0.7491	6.25	0.25	-0.750			
0.0778	4979.44	3.9510	3.9509	-0.7533	6.26	0.26	-0.750			
0.0801	5124.02	3.9480	3.9481	-0.7527	6.27	0.27	-0.750			
0.0823	5269.99	3.9450	3.9449	-0.7620	6.28	0.28	-0.750			
0.0847	5418.11	3.9420	3.9420	-0.7660	6.29	0.29	-0.750			
0.0869	5564.30	3.9390	3.9389	-0.7631	6.31	0.31	-0.750			
0.0892	5710.00	3.9360	3.9360	-0.7685	6.32	0.32	-0.750			
0.0915	5858.19	3.9330	3.9331	-0.7708	6.33	0.33	-0.750			
0.0939	6007.55	3.9300	3.9299	-0.7742	6.35	0.35	-0.750			
0.0962	6157.34	3.9270	3.9270	-0.7778	6.36	0.36	-0.750			
0.0985	6304.23	3.9240	3.9242	-0.7827	6.37	0.37	-0.750			
0.1009	6456.88	3.9210	3.9210	-0.7856	6.38	0.38	-0.750			
0.1033	6610.00	3.9180	3.9179	-0.7850	6.39	0.39	-0.750			
0.1056	6759.71	3.9150	3.9151	-0.7832	6.41	0.41	-0.750			
0.1080	6911.31	3.9120	3.9121	-0.7835	6.42	0.42	-0.750			
0.1103	7061.11	3.9090	3.9088	-0.7803	6.43	0.43	-0.750			
0.1126	7208.73	3.9060	3.9059	-0.7794	6.44	0.44	-0.750			
0.1149	7356.02	3.9030	3.9031	-0.7866	6.45	0.45	-0.750			
0.1173	7509.98	3.9000	3.8999	-0.7962	6.46	0.46	-0.750			
0.1197	7663.61	3.8970	3.8970	-0.7988	6.47	0.47	-0.750			
0.1222	7818.06	3.8940	3.8940	-0.7995	6.48	0.48	-0.750			
0.1246	7972.12	3.8910	3.8911	-0.8049	6.50	0.50	-0.750			
0.1270	8127.97	3.8880	3.8879	-0.8001	6.51	0.51	-0.750			
0.1294	8280.89	3.8850	3.8849	-0.7937	6.52	0.52	-0.750			
0.1317	8430.46	3.8820	3.8821	-0.7872	6.54	0.54	-0.750			
0.1341	8581.47	3.8790	3.8789	-0.7936	6.55	0.55	-0.750			
0.1365	8732.93	3.8760	3.8760	-0.8005	6.56	0.56	-0.750			
0.1389	8886.82	3.8730	3.8727	-0.8068	6.57	0.57	-0.750			
0.1413	9041.06	3.8700	3.8701	-0.8188	6.59	0.59	-0.750			
0.1438	9204.08	3.8670	3.8669	-0.8207	6.60	0.60	-0.750			
0.1463	9364.05	3.8640	3.8640	-0.8232	6.61	0.61	-0.750			
0.1488	9523.13	3.8610	3.8612	-0.8147	6.62	0.62	-0.750			
0.1512	9676.45	3.8580	3.8579	-0.8083	6.63	0.63	-0.750			
0.1536	9830.00	3.8550	3.8550	-0.8191	6.65	0.65	-0.750			
0.1560	9986.30	3.8520	3.8520	-0.8149	6.66	0.66	-0.750			
0.1585	10144.76	3.8490	3.8488	-0.8194	6.67	0.67	-0.750			
0.1610	10303.08	3.8460	3.8464	-0.8187	6.68	0.68	-0.750			
0.1634	10460.59	3.8430	3.8429	-0.8149	6.69	0.69	-0.750			
0.1659	10616.93	3.8400	3.8400	-0.8189	6.71	0.71	-0.750			
0.1683	10771.44	3.8370	3.8369	-0.8127	6.72	0.72	-0.750			
0.1708	10928.28	3.8340	3.8340	-0.8202	6.74	0.74	-0.750			
0.1732	11087.03	3.8310	3.8312	-0.8222	6.75	0.75	-0.750			
0.1757	11244.43	3.8280	3.8280	-0.8251	6.76	0.76	-0.750			
0.1782	11403.12	3.8250	3.8249	-0.8329	6.77	0.77	-0.750			
0.1807	11562.37	3.8220	3.8219	-0.8341	6.79	0.79	-0.750			
0.1832	11723.69	3.8190	3.8190	-0.8387	6.80	0.80	-0.750			
0.1857	11884.82	3.8160	3.8163	-0.8428	6.81	0.81	-0.750			
0.1882	12047.80	3.8130	3.8129	-0.8474	6.82	0.82	-0.750			
0.1908	12211.62	3.8100	3.8100	-0.8543	6.83	0.83	-0.750			
0.1934	12374.68	3.8070	3.8069	-0.8475	6.85	0.85	-0.750			
0.1960	12540.94	3.8040	3.8040	-0.8490	6.86	0.86	-0.750			
0.1985	12701.71	3.8010	3.8013	-0.8479	6.87	0.87	-0.750			
0.2010	12862.71	3.7980	3.7979	-0.8477	6.88	0.88	-0.750			
0.2035	13025.64	3.7950	3.7950	-0.8429	6.90	0.90	-0.750			
0.2060	13186.89	3.7920	3.7919	-0.8386	6.91	0.91	-0.750			
0.2086	13350.11	3.7890	3.7891	-0.8395	6.92	0.92	-0.750			
0.2111	13511.53	3.7860	3.7861	-0.8341	6.93	0.93	-0.750			
0.2136	13671.07	3.7830	3.7830	-0.8304	6.94	0.94	-0.750			
0.2160	13826.31	3.7800	3.7800	-0.8327	6.95	0.95	-0.750			
0.2185	13983.31	3.7770	3.7769	-0.8362	6.96	0.96	-0.750			
0.2211	14147.37	3.7740	3.7739	-0.8529	6.97	0.97	-0.750			
0.2236	14311.55	3.7710	3.7712	-0.8533	6.98	0.98	-0.750			
0.2262	14479.33	3.7680	3.7680	-0.8579	7.00	1.00	-0.750			
0.2288	14645.23	3.7650	3.7650	-0.8625	7.01	1.01	-0.750			
0.2314	14809.97	3.7620	3.7620	-0.8579	7.03	1.03	-0.750			
0.2340	14973.89	3.7590	3.7589	-0.8624	7.04	1.04	-0.750			
0.2365	15138.06	3.7560	3.7562	-0.8698	7.05	1.05	-0.750			
0.2391	15304.77	3.7530	3.7529	-0.8734	7.06	1.06	-0.750			
0.2418	15474.62	3.7500	3.7500	-0.8778	7.07	1.07	-0.750			
0.2444	15642.13	3.7470	3.7469	-0.8797	7.08	1.08	-0.750			
0.2471	15816.08	3.7440	3.7441	-0.8801	7.10	1.10	-0.750			
0.2498	15986.64	3.7410	3.7410	-0.8767	7.11	1.11	-0.750			
0.2524	16150.87	3.7380	3.7380	-0.8740	7.12	1.12	-0.750			
0.2550	16318.99	3.7350	3.7350	-0.8708	7.13	1.13	-0.750			
0.2576	16484.64	3.7320	3.7319	-0.8722	7.14	1.14	-0.750			
0.2602	16650.01	3.7290	3.7289	-0.8803	7.15	1.15	-0.750			
0.2628	16817.11	3.7260	3.7262	-0.8947	7.16	1.16	-0.750			
0.2655	16993.20	3.7230	3.7229	-0.9105	7.17	1.17	-0.750			
0.2683	17170.52	3.7200	3.7198	-0.9154	7.19	1.19	-0.750			
0.2710	17347.04	3.7170	3.7171	-0.9235	7.20	1.20	-0.750			
0.2739	17528.51	3.7140	3.7141	-0.9314	7.21	1.21	-0.750			
0.2767	17707.98	3.7110	3.7109	-0.9231	7.22	1.22	-0.750			
0.2794	17883.19	3.7080	3.7080	-0.9136	7.23	1.23	-0.750			
0.2822	18057.74	3.7050	3.7051	-0.9096	7.25	1.25	-0.750			
0.2849	18232.87	3.7020	3.7020	-0.9169	7.26	1.26	-0.750			
0.2876	18407.09	3.6990	3.6988	-0.9221	7.27	1.27	-0.750			
0.2904	18583.83	3.6960	3.6959	-0.9301	7.28	1.28	-0.750			
0.2932	18764.35	3.6930	3.6931	-0.9428	7.29	1.29	-0.750			
0.2961	18949.45	3.6900	3.6899	-0.9503	7.30	1.30	-0.750			
0.2990	19133.75	3.6870	3.6872	-0.9569	7.31	1.31	-0.750			
0.3018	19317.67	3.6840	3.6839	-0.9651	7.32	1.32	-0.750			
0.3047	19502.26	3.6810	3.6809	-0.9639	7.33	1.33	-0.750			
0.3076	19685.70	3.6780	3.6780	-0.9624	7.34	1.34	-0.750			
0.3105	19874.82	3.6750	3.6753	-0.9770	7.35	1.35	-0.750			
0.3135	20060.94	3.6720	3.6718	-0.9871	7.36	1.36	-0.750			
0.3164	20251.11	3.6690	3.6691	-0.9935	7.37	1.37	-0.750			
0.3194	20442.58	3.6660	3.6660	-0.9955	7.38	1.38	-0.750			
0.3224	20636.22	3.6630	3.6629	-1.0121	7.39	1.39	-0.750			
0.3255	20830.18	3.6600	3.6601	-1.0220	7.40	1.40	-0.750			
0.3285	21025.62	3.6570	3.6570	-1.0260	7.41	1.41	-0.750			
0.3316	21222.02	3.6540	3.6538	-1.0347	7.42	1.42	-0.750			
0.3347	21421.79	3.6510	3.6510	-1.0345	7.43	1.43	-0.750			
0.3378	21621.98	3.6480	3.6481	-1.0585	7.43	1.43	-0.750			
0.3411	21827.53	3.6450	3.6450	-1.0656	7.44	1.44	-0.750			
0.3443	22033.51	3.6420	3.6421	-1.0647	7.45	1.45	-0.750			
0.3475	22238.68	3.6390	3.6390	-1.0678	7.46	1.46	-0.750			
0.3507	22444.68	3.6360	3.6361	-1.0835	7.47	1.47	-0.750			
0.3539	22652.38	3.6330	3.6328	-1.0922	7.48	1.48	-0.750			
0.3573	22864.11	3.6300	3.6299	-1.0991	7.49	1.49	-0.750			
0.3605	23072.50	3.6270	3.6273	-1.1002	7.50	1.50	-0.750			
0.3639	23288.64	3.6240	3.6240	-1.1204	7.50	1.50	-0.750			
0.3673	23504.64	3.6210	3.6210	-1.1291	7.51	1.51	-0.750			
0.3706	23719.98	3.6180	3.6179	-1.1319	7.52	1.52	-0.750			
0.3740	23937.66	3.6150	3.6151	-1.1535	7.52	1.52	-0.750			
0.3775	24160.55	3.6120	3.6120	-1.1652	7.53	1.53	-0.750			
0.3810	24386.88	3.6090	3.6089	-1.1852	7.54	1.54	-0.750			
0.3846	24614.80	3.6060	3.6060	-1.2036	7.56	1.56	-0.750			
0.3883	24849.39	3.6030	3.6029	-1.2132	7.57	1.57	-0.750			
0.3920	25087.06	3.6000	3.5999	-1.2089	7.57	1.57	-0.750			
0.3956	25321.40	3.5970	3.5970	-1.2052	7.58	1.58	-0.750	0.410	0.903	
0.3992	25549.62	3.5940	3.5941	-1.2139	7.59	1.59	-0.750			
0.4028	25781.63	3.5910	3.5909	-1.2218	7.60	1.60	-0.750			
0.4065	26013.08	3.5880	3.5879	-1.2373	7.60	1.60	-0.750			
0.4102	26251.09	3.5850	3.5849	-1.2665	7.61	1.61	-0.750			
0.4141	26501.40	3.5820	3.5819	-1.2957	7.62	1.62	-0.750			
0.4181	26756.11	3.5790	3.5790	-1.2942	7.63	1.63	-0.750			
0.4220	27008.11	3.5760	3.5761	-1.2949	7.64	1.64	-0.750			
0.4258	27254.13	3.5730	3.5730	-1.2859	7.64	1.64	-0.750			
0.4297	27498.43	3.5700	3.5700	-1.2995	7.65	1.65	-0.750			
0.4335	27744.04	3.5670	3.5669	-1.3198	7.66	1.66	-0.750			
0.4375	27998.11	3.5640	3.5640	-1.3192	7.66	1.66	-0.750			
0.4415	28258.90	3.5610	3.5609	-1.3400	7.67	1.67	-0.750			
0.4456	28517.68	3.5580	3.5581	-1.3722	7.68	1.68	-0.750			
0.4498	28787.11	3.5550	3.5550	-1.3766	7.68	1.68	-0.750			
0.4540	29053.15	3.5520	3.5517	-1.3749	7.69	1.69	-0.750			
0.4580	29310.90	3.5490	3.5492	-1.3704	7.70	1.70	-0.750			
0.4621	29575.26	3.5460	3.5461	-1.3785	7.70	1.70	-0.750			
0.4663	29844.38	3.5430	3.5429	-1.3948	7.71	1.71	-0.750			
0.4704	30106.63	3.5400	3.5399	-1.4058	7.72	1.72	-0.750			
0.4746	30374.79	3.5370	3.5371	-1.4248	7.72	1.72	-0.750			
0.4790	30657.38	3.5340	3.5340	-1.4372	7.73	1.73	-0.750			
0.4834	30936.23	3.5310	3.5309	-1.4561	7.74	1.74	-0.750			
0.4878	31217.06	3.5280	3.5279	-1.4480	7.75	1.75	-0.750			
0.4922	31498.75	3.5250	3.5250	-1.4508	7.76	1.76	-0.750			
0.4965	31776.96	3.5220	3.5222	-1.4596	7.77	1.77	-0.750			
0.5009	32057.03	3.5190	3.5188	-1.4454	7.78	1.78	-0.750			
0.5053	32337.21	3.5160	3.5159	-1.4448	7.79	1.79	-0.750			
0.5096	32614.84	3.5130	3.5133	-1.4480	7.80	1.80	-0.750			
0.5139	32889.98	3.5100	3.5098	-1.4398	7.80	1.80	-0.750			
0.5182	33166.47	3.5070	3.5068	-1.4367	7.81	1.81	-0.750			
0.5224	33434.21	3.5040	3.5041	-1.4394	7.82	1.82	-0.750			
0.5267	33710.14	3.5010	3.5010	-1.4551	7.83	1.83	-0.750			
0.5312	33996.77	3.4980	3.4979	-1.4667	7.84	1.84	-0.750			
0.5356	34277.73	3.4950	3.4950	-1.4760	7.85	1.85	-0.750			
0.5401	34564.74	3.4920	3.4921	-1.4633	7.86	1.86	-0.750			
0.5446	34852.07	3.4890	3.4889	-1.4560	7.87	1.87	-0.750			
0.5489	35130.71	3.4860	3.4862	-1.4425	7.88	1.88	-0.750			
0.5532	35402.78	3.4830	3.4830	-1.4212	7.89	1.89	-0.750			
0.5574	35671.86	3.4800	3.4799	-1.4135	7.89	1.89	-0.750			
0.5616	35943.34	3.4770	3.4771	-1.4136	7.90	1.90	-0.750			
0.5659	36214.93	3.4740	3.4738	-1.4106	7.92	1.92	-0.750			
0.5701	36487.10	3.4710	3.4710	-1.4090	7.93	1.93	-0.750			
0.5743	36757.87	3.4680	3.4682	-1.4002	7.94	1.94	-0.750			
0.5786	37028.69	3.4650	3.4649	-1.3909	7.95	1.95	-0.750			
0.5827	37292.88	3.4620	3.4619	-1.3759	7.96	1.96	-0.750			
0.5867	37550.39	3.4590	3.4591	-1.3567	7.97	1.97	-0.750			
0.5909	37815.16	3.4560	3.4560	-1.3590	7.99	1.99	-0.750			
0.5949	38072.61	3.4530	3.4530	-1.3521	8.00	2.00	-0.750			
0.5989	38332.71	3.4500	3.4501	-1.3462	8.01	2.01	-0.750			
0.6030	38593.48	3.4470	3.4469	-1.3333	8.02	2.02	-0.750			
0.6070	38849.65	3.4440	3.4440	-1.3172	8.03	2.03	-0.750			
0.6110	39101.45	3.4410	3.4413	-1.3003	8.04	2.04	-0.750			
0.6149	39352.25	3.4380	3.4379	-1.2850	8.05	2.05	-0.750			
0.6187	39594.77	3.4350	3.4349	-1.2578	8.07	2.07	-0.750			
0.6223	39830.24	3.4320	3.4320	-1.2290	8.08	2.08	-0.750			
0.6261	40069.47	3.4290	3.4289	-1.2232	8.09	2.09	-0.750			
0.6297	40300.83	3.4260	3.4260	-1.1958	8.11	2.11	-0.750			
0.6332	40527.22	3.4230	3.4230	-1.1701	8.12	2.12	-0.750			
0.6367	40748.69	3.4200	3.4201	-1.1415	8.13	2.13	-0.750			
0.6401	40967.24	3.4170	3.4170	-1.1177	8.14	2.14	-0.750			
0.6434	41179.14	3.4140	3.4140	-1.0916	8.15	2.15	-0.750			
0.6466	41384.25	3.4110	3.4108	-1.0712	8.16	2.16	-0.750			
0.6498	41586.76	3.4080	3.4080	-1.0565	8.18	2.18	-0.750			
0.6530	41789.35	3.4050	3.4050	-1.0347	8.19	2.19	-0.750			
0.6560	41986.53	3.4020	3.4021	-1.0212	8.21	2.21	-0.750			
0.6591	42180.35	3.3990	3.3990	-0.9994	8.22	2.22	-0.750			
0.6621	42373.88	3.3960	3.3960	-0.9789	8.24	2.24	-0.750			
0.6650	42560.04	3.3930	3.3929	-0.9513	8.25	2.25	-0.750			
0.6678	42739.87	3.3900	3.3900	-0.9181	8.26	2.26	-0.750			
0.6705	42913.73	3.3870	3.3872	-0.8874	8.28	2.28	-0.750			
0.6732	43082.49	3.3840	3.3840	-0.8561	8.29	2.29	-0.750			
0.6756	43240.12	3.3810	3.3810	-0.8261	8.30	2.30	-0.750			
0.6781	43396.14	3.3780	3.3780	-0.8068	8.31	2.31	-0.750			
0.6804	43548.33	3.3750	3.3749	-0.7868	8.32	2.32	-0.750			
0.6828	43696.82	3.3720	3.3719	-0.7687	8.34	2.34	-0.750			
0.6850	43842.98	3.3690	3.3691	-0.7566	8.35	2.35	-0.750			
0.6873	43987.38	3.3660	3.3659	-0.7380	8.36	2.36	-0.750			
0.6895	44128.76	3.3630	3.3630	-0.7220	8.37	2.37	-0.750			
0.6916	44264.02	3.3600	3.3600	-0.7065	8.39	2.39	-0.750			
0.6937	44397.37	3.3570	3.3571	-0.6906	8.40	2.40	-0.750			
0.6958	44530.67	3.3540	3.3539	-0.6730	8.41	2.41	-0.750			
0.6978	44656.98	3.3510	3.3511	-0.6555	8.43	2.43	-0.750			
0.6997	44781.36	3.3480	3.3481	-0.6365	8.44	2.44	-0.750			
0.7016	44903.24	3.3450	3.3449	-0.6194	8.45	2.45	-0.750			
0.7034	45019.01	3.3420	3.3419	-0.6010	8.46	2.46	-0.750			
0.7052	45132.23	3.3390	3.3391	-0.5826	8.47	2.47	-0.750			
0.7069	45242.98	3.3360	3.3360	-0.5698	8.48	2.48	-0.750			
0.7086	45351.37	3.3330	3.3329	-0.5541	8.49	2.49	-0.750			
0.7102	45455.07	3.3300	3.3301	-0.5362	8.50	2.50	-0.750			
0.7118	45556.81	3.3270	3.3269	-0.5260	8.51	2.51	-0.750			
0.7134	45656.15	3.3240	3.3240	-0.5141	8.52	2.52	-0.750			
0.7149	45753.67	3.3210	3.3210	-0.4994	8.53	2.53	-0.750			
0.7164	45848.56	3.3180	3.3180	-0.4870	8.54	2.54	-0.750			
0.7178	45941.58	3.3150	3.3151	-0.4757	8.55	2.55	-0.750			
0.7192	46031.96	3.3120	3.3121	-0.4703	8.56	2.56	-0.750			
0.7206	46120.78	3.3090	3.3088	-0.4575	8.57	2.57	-0.750			
0.7220	46207.25	3.3060	3.3059	-0.4475	8.58	2.58	-0.750			
0.7233	46291.68	3.3030	3.3034	-0.4400	8.59	2.59	-0.750			
0.7246	46376.34	3.3000	3.2999	-0.4329	8.60	2.60	-0.750			
0.7259	46458.79	3.2970	3.2969	-0.4241	8.61	2.61	-0.750			
0.7272	46538.18	3.2940	3.2940	-0.4132	8.62	2.62	-0.750			
0.7284	46616.76	3.2910	3.2912	-0.4076	8.63	2.63	-0.750			
0.7296	46694.87	3.2880	3.2879	-0.3994	8.64	2.64	-0.750			
0.7308	46770.12	3.2850	3.2850	-0.3904	8.65	2.65	-0.750			
0.7319	46843.61	3.2820	3.2820	-0.3856	8.66	2.66	-0.750			
0.7331	46917.96	3.2790	3.2790	-0.3784	8.67	2.67	-0.750			
0.7342	46990.03	3.2760	3.2758	-0.3702	8.68	2.68	-0.750			
0.7353	47060.53	3.2730	3.2730	-0.3616	8.69	2.69	-0.750			
0.7364	47128.76	3.2700	3.2701	-0.3547	8.70	2.70	-0.750			
0.7374	47196.29	3.2670	3.2669	-0.3496	8.71	2.71	-0.750			
0.7385	47262.07	3.2640	3.2640	-0.3428	8.72	2.72	-0.750			
0.7395	47325.99	3.2610	3.2610	-0.3362	8.72	2.72	-0.750			
0.7405	47391.27	3.2580	3.2580	-0.3336	8.73	2.73	-0.750			
0.7415	47455.53	3.2550	3.2550	-0.3269	8.74	2.74	-0.750			
0.7425	47517.86	3.2520	3.2520	-0.3201	8.75	2.75	-0.750			
0.7434	47578.58	3.2490	3.2490	-0.3121	8.76	2.76	-0.750			
0.7443	47637.83	3.2460	3.2460	-0.3063	8.77	2.77	-0.750			
0.7452	47695.72	3.2430	3.2430	-0.2995	8.78	2.78	-0.750			
0.7461	47752.43	3.2400	3.2399	-0.2939	8.79	2.79	-0.750			
0.7470	47807.92	3.2370	3.2370	-0.2903	8.80	2.80	-0.750			
0.7479	47863.37	3.2340	3.2340	-0.2868	8.80	2.80	-0.750			
0.7487	47918.02	3.2310	3.2309	-0.2829	8.80	2.80	-0.750			
0.7496	47971.99	3.2280	3.2280	-0.2803	8.81	2.81	-0.750			
0.7504	48025.67	3.2250	3.2251	-0.2735	8.82	2.82	-0.750			
0.7512	48077.61	3.2220	3.2219	-0.2714	8.83	2.83	-0.750			
0.7520	48129.51	3.2190	3.2192	-0.2682	8.84	2.84	-0.750			
0.7528	48179.78	3.2160	3.2160	-0.2627	8.85	2.85	-0.750			
0.7536	48230.18	3.2130	3.2130	-0.2600	8.86	2.86	-0.750			
0.7544	48279.50	3.2100	3.2102	-0.2578	8.87	2.87	-0.750			
0.7551	48328.81	3.2070	3.2070	-0.2556	8.88	2.88	-0.750			
0.7559	48378.56	3.2040	3.2039	-0.2549	8.88	2.88	-0.750			
0.7567	48426.82	3.2010	3.2009	-0.2497	8.89	2.89	-0.750			
0.7574	48474.50	3.1980	3.1981	-0.2469	8.90	2.90	-0.750			
0.7582	48521.85	3.1950	3.1949	-0.2455	8.91	2.91	-0.750			
0.7589	48568.83	3.1920	3.1920	-0.2415	8.91	2.91	-0.750			
0.7596	48615.15	3.1890	3.1889	-0.2373	8.92	2.92	-0.750			
0.7603	48659.93	3.1860	3.1859	-0.2332	8.93	2.93	-0.750			
0.7610	48704.40	3.1830	3.1831	-0.2300	8.93	2.93	-0.750			
0.7617	48748.13	3.1800	3.1800	-0.2262	8.94	2.94	-0.750			
0.7624	48791.34	3.1770	3.1769	-0.2226	8.95	2.95	-0.750			
0.7630	48833.09	3.1740	3.1741	-0.2184	8.96	2.96	-0.750			
0.7637	48875.10	3.1710	3.1711	-0.2167	8.97	2.97	-0.750			
0.7643	48916.28	3.1680	3.1679	-0.2149	8.98	2.98	-0.750			
0.7650	48957.31	3.1650	3.1649	-0.2124	8.98	2.98	-0.750			
0.7656	48997.43	3.1620	3.1620	-0.2103	8.99	2.99	-0.750			
0.7662	49037.64	3.1590	3.1590	-0.2091	9.00	3.00	-0.750			
0.7668	49077.77	3.1560	3.1560	-0.2075	9.01	3.01	-0.750			
0.7675	49117.99	3.1530	3.1529	-0.2050	9.02	3.02	-0.750			
0.7681	49156.99	3.1500	3.1501	-0.2027	9.02	3.02	-0.750			
0.7687	49195.65	3.1470	3.1470	-0.2001	9.03	3.03	-0.750			
0.7693	49233.67	3.1440	3.1440	-0.1984	9.04	3.04	-0.750			
0.7699	49271.70	3.1410	3.1409	-0.1963	9.05	3.05	-0.750			
0.7704	49308.68	3.1380	3.1380	-0.1939	9.05	3.05	-0.750			
0.7710	49345.81	3.1350	3.1351	-0.1929	9.06	3.06	-0.750			
0.7716	49382.90	3.1320	3.1320	-0.1905	9.06	3.06	-0.750			
0.7722	49419.58	3.1290	3.1289	-0.1893	9.07	3.07	-0.750			
0.7727	49455.56	3.1260	3.1260	-0.1868	9.07	3.07	-0.750			
0.7733	49491.22	3.1230	3.1231	-0.1847	9.08	3.08	-0.750			
0.7738	49526.38	3.1200	3.1199	-0.1828	9.09	3.09	-0.750			
0.7744	49561.22	3.1170	3.1171	-0.1815	9.10	3.10	-0.750			
0.7749	49595.56	3.1140	3.1140	-0.1795	9.11	3.11	-0.750			
0.7755	49629.94	3.1110	3.1110	-0.1791	9.11	3.11	-0.750			
0.7760	49664.58	3.1080	3.1080	-0.1781	9.12	3.12	-0.750			
0.7765	49698.72	3.1050	3.1049	-0.1760	9.13	3.13	-0.750			
0.7771	49732.37	3.1020	3.1021	-0.1744	9.14	3.14	-0.750			
0.7776	49766.08	3.0990	3.0991	-0.1720	9.15	3.15	-0.750			
0.7781	49798.74	3.0960	3.0960	-0.1707	9.15	3.15	-0.750			
0.7786	49830.99	3.0930	3.0929	-0.1687	9.16	3.16	-0.750			
0.7791	49863.26	3.0900	3.0899	-0.1674	9.17	3.17	-0.750			
0.7796	49894.93	3.0870	3.0870	-0.1661	9.18	3.18	-0.750			
0.7801	49926.84	3.0840	3.0840	-0.1650	9.19	3.19	-0.750			
0.7806	49958.45	3.0810	3.0810	-0.1646	9.19	3.19	-0.750			
0.7811	49989.97	3.0780	3.0781	-0.1637	9.20	3.20	-0.750			
0.7816	50021.63	3.0750	3.0750	-0.1619	9.21	3.21	-0.750			
0.7821	50052.22	3.0720	3.0720	-0.1605	9.21	3.21	-0.750			
0.7825	50082.86	3.0690	3.0691	-0.1596	9.22	3.22	-0.750			
0.7830	50113.43	3.0660	3.0659	-0.1588	9.23	3.23	-0.750			
0.7835	50143.73	3.0630	3.0629	-0.1583	9.24	3.24	-0.750			
0.7840	50174.20	3.0600	3.0600	-0.1572	9.24	3.24	-0.750			
0.7844	50204.23	3.0570	3.0570	-0.1561	9.25	3.25	-0.750			
0.7849	50234.14	3.0540	3.0540	-0.1554	9.26	3.26	-0.750			
0.7854	50264.29	3.0510	3.0510	-0.1548	9.26	3.26	-0.750			
0.7858	50293.66	3.0480	3.0480	-0.1533	9.27	3.27	-0.750			
0.7863	50322.80	3.0450	3.0450	-0.1524	9.28	3.28	-0.750			
0.7868	50352.01	3.0420	3.0421	-0.1519	9.29	3.29	-0.750			
0.7872	50381.17	3.0390	3.0390	-0.1502	9.29	3.29	-0.750			
0.7877	50410.01	3.0360	3.0359	-0.1498	9.30	3.30	-0.750			
0.7881	50438.59	3.0330	3.0331	-0.1486	9.31	3.31	-0.750			
0.7885	50467.03	3.0300	3.0300	-0.1477	9.32	3.32	-0.750			
0.7890	50495.47	3.0270	3.0269	-0.1461	9.32	3.32	-0.750			
0.7894	50523.11	3.0240	3.0240	-0.1455	9.33	3.33	-0.750			
0.7899	50550.91	3.0210	3.0211	-0.1442	9.34	3.34	-0.750			
0.7903	50578.53	3.0180	3.0180	-0.1436	9.34	3.34	-0.750			
0.7907	50606.29	3.0150	3.0149	-0.1430	9.35	3.35	-0.750			
0.7911	50633.41	3.0120	3.0122	-0.1417	9.36	3.36	-0.750			
0.7916	50660.67	3.0090	3.0090	-0.1410	9.37	3.37	-0.750			
0.7920	50687.65	3.0060	3.0061	-0.1400	9.37	3.37	-0.750			
0.7924	50714.31	3.0030	3.0031	-0.1346	9.38	3.38	-0.750			
