Ah_balance (normalized)	Ah_balance (mAh)	Voltage - fit (V)	Voltage -  interpolate (V)	dQ/dV (1/V)	Temperature (°C)	Temperature - diff (°C)	Current (C)	R_DC 0ms (mOhm)	R_DC 50ms (mOhm)	R_DC 50 ms PEC (mOhm)
0.0924	5914.80	4.1990	4.1959	0.5531	8.77	2.31	0.750	0.391	0.833	
0.0945	6050.40	4.1960	4.1980	0.7972	8.76	2.30	0.750			
0.0970	6209.06	4.1930	4.1944	0.8144	8.76	2.30	0.750			
0.0995	6369.84	4.1900	4.1909	0.7966	8.75	2.29	0.750			
0.1020	6527.92	4.1870	4.1872	0.7921	8.74	2.28	0.750			
0.1043	6675.64	4.1840	4.1838	0.7601	8.74	2.28	0.750			
0.1063	6804.84	4.1810	4.1811	0.7018	8.73	2.27	0.750			
0.1084	6939.26	4.1780	4.1779	0.7054	8.73	2.27	0.750			
0.1106	7075.38	4.1750	4.1750	0.7117	8.72	2.26	0.750			
0.1127	7211.97	4.1720	4.1720	0.7111	8.72	2.26	0.750			
0.1148	7349.87	4.1690	4.1689	0.7129	8.71	2.25	0.750			
0.1170	7486.79	4.1660	4.1661	0.7158	8.71	2.25	0.750			
0.1191	7625.42	4.1630	4.1630	0.7168	8.70	2.24	0.750			
0.1213	7763.02	4.1600	4.1600	0.7179	8.70	2.24	0.750			
0.1234	7900.77	4.1570	4.1569	0.7152	8.69	2.23	0.750			
0.1256	8038.19	4.1540	4.1541	0.7124	8.69	2.23	0.750			
0.1277	8175.00	4.1510	4.1509	0.7152	8.68	2.22	0.750			
0.1299	8311.45	4.1480	4.1480	0.7144	8.68	2.22	0.750			
0.1320	8446.37	4.1450	4.1450	0.7171	8.67	2.21	0.750			
0.1341	8584.28	4.1420	4.1420	0.7266	8.67	2.21	0.750			
0.1363	8724.09	4.1390	4.1391	0.7362	8.66	2.20	0.750			
0.1386	8867.99	4.1360	4.1360	0.7452	8.66	2.20	0.750			
0.1408	9012.88	4.1330	4.1329	0.7552	8.65	2.19	0.750			
0.1431	9159.45	4.1300	4.1301	0.7563	8.65	2.19	0.750			
0.1454	9304.99	4.1270	4.1270	0.7579	8.64	2.18	0.750			
0.1477	9450.69	4.1240	4.1240	0.7595	8.63	2.17	0.750			
0.1500	9596.97	4.1210	4.1210	0.7600	8.63	2.17	0.750			
0.1522	9741.65	4.1180	4.1179	0.7604	8.62	2.16	0.750			
0.1545	9887.27	4.1150	4.1150	0.7656	8.62	2.16	0.750			
0.1568	10035.00	4.1120	4.1120	0.7651	8.61	2.15	0.750			
0.1591	10183.41	4.1090	4.1090	0.7656	8.61	2.15	0.750			
0.1614	10330.74	4.1060	4.1060	0.7648	8.60	2.14	0.750			
0.1637	10477.30	4.1030	4.1030	0.7643	8.60	2.14	0.750			
0.1660	10623.23	4.1000	4.1000	0.7658	8.60	2.14	0.750			
0.1683	10769.61	4.0970	4.0970	0.7664	8.59	2.13	0.750			
0.1706	10915.62	4.0940	4.0940	0.7685	8.59	2.13	0.750			
0.1729	11064.44	4.0910	4.0911	0.7793	8.58	2.12	0.750			
0.1753	11216.40	4.0880	4.0879	0.7793	8.58	2.12	0.750			
0.1776	11365.07	4.0850	4.0850	0.7859	8.57	2.11	0.750			
0.1799	11514.12	4.0820	4.0821	0.7950	8.57	2.11	0.750			
0.1823	11668.20	4.0790	4.0789	0.8026	8.56	2.10	0.750			
0.1848	11824.08	4.0760	4.0760	0.8091	8.56	2.10	0.750			
0.1872	11982.02	4.0730	4.0729	0.8053	8.55	2.09	0.750			
0.1896	12136.63	4.0700	4.0703	0.8056	8.54	2.08	0.750			
0.1921	12293.31	4.0670	4.0670	0.8069	8.54	2.08	0.750			
0.1944	12443.32	4.0640	4.0642	0.8062	8.53	2.07	0.750			
0.1968	12597.15	4.0610	4.0610	0.8114	8.53	2.07	0.750			
0.1993	12754.71	4.0580	4.0578	0.8122	8.52	2.06	0.750			
0.2017	12910.62	4.0550	4.0550	0.8184	8.51	2.05	0.750			
0.2042	13071.38	4.0520	4.0521	0.8278	8.51	2.05	0.750			
0.2067	13229.73	4.0490	4.0491	0.8246	8.50	2.04	0.750			
0.2092	13387.66	4.0460	4.0460	0.8344	8.50	2.04	0.750			
0.2116	13544.98	4.0430	4.0432	0.8309	8.49	2.03	0.750			
0.2142	13706.37	4.0400	4.0399	0.8430	8.48	2.02	0.750			
0.2168	13873.05	4.0370	4.0371	0.8473	8.47	2.01	0.750			
0.2193	14035.17	4.0340	4.0339	0.8363	8.46	2.00	0.750			
0.2218	14195.21	4.0310	4.0310	0.8380	8.46	2.00	0.750			
0.2243	14357.25	4.0280	4.0281	0.8330	8.45	1.99	0.750			
0.2268	14512.12	4.0250	4.0249	0.8400	8.44	1.98	0.750			
0.2293	14673.97	4.0220	4.0220	0.8480	8.44	1.98	0.750			
0.2318	14836.05	4.0190	4.0189	0.8519	8.43	1.97	0.750			
0.2344	15003.33	4.0160	4.0161	0.8650	8.43	1.97	0.750			
0.2371	15173.07	4.0130	4.0131	0.8734	8.42	1.96	0.750			
0.2397	15338.68	4.0100	4.0100	0.8781	8.41	1.95	0.750			
0.2423	15509.27	4.0070	4.0070	0.8845	8.41	1.95	0.750			
0.2449	15676.54	4.0040	4.0039	0.8856	8.40	1.94	0.750			
0.2477	15851.61	4.0010	4.0009	0.8877	8.39	1.93	0.750			
0.2504	16022.55	3.9980	3.9981	0.8849	8.38	1.92	0.750			
0.2530	16192.91	3.9950	3.9950	0.8872	8.38	1.92	0.750			
0.2556	16361.11	3.9920	3.9921	0.8885	8.37	1.91	0.750			
0.2582	16527.05	3.9890	3.9889	0.8907	8.36	1.90	0.750			
0.2609	16700.65	3.9860	3.9860	0.8998	8.35	1.89	0.750			
0.2637	16874.43	3.9830	3.9830	0.9073	8.35	1.89	0.750			
0.2665	17052.88	3.9800	3.9801	0.9123	8.34	1.88	0.750			
0.2692	17227.81	3.9770	3.9771	0.9213	8.33	1.87	0.750			
0.2719	17404.77	3.9740	3.9740	0.9236	8.33	1.87	0.750			
0.2747	17580.71	3.9710	3.9709	0.9170	8.32	1.86	0.750			
0.2774	17756.53	3.9680	3.9681	0.9229	8.31	1.85	0.750			
0.2802	17933.96	3.9650	3.9652	0.9339	8.31	1.85	0.750			
0.2830	18112.29	3.9620	3.9618	0.9439	8.30	1.84	0.750			
0.2859	18295.38	3.9590	3.9591	0.9519	8.29	1.83	0.750			
0.2887	18479.18	3.9560	3.9560	0.9523	8.28	1.82	0.750			
0.2916	18664.98	3.9530	3.9531	0.9651	8.27	1.81	0.750			
0.2945	18850.51	3.9500	3.9501	0.9740	8.26	1.80	0.750			
0.2975	19037.87	3.9470	3.9470	0.9716	8.25	1.79	0.750			
0.3004	19223.61	3.9440	3.9438	0.9783	8.24	1.78	0.750			
0.3033	19413.13	3.9410	3.9410	0.9738	8.23	1.77	0.750			
0.3063	19601.22	3.9380	3.9381	0.9774	8.23	1.77	0.750			
0.3092	19789.48	3.9350	3.9351	0.9809	8.22	1.76	0.750			
0.3121	19973.96	3.9320	3.9320	0.9855	8.21	1.75	0.750			
0.3151	20163.55	3.9290	3.9289	0.9995	8.20	1.74	0.750			
0.3181	20356.45	3.9260	3.9261	1.0204	8.19	1.73	0.750			
0.3212	20554.00	3.9230	3.9229	1.0332	8.18	1.72	0.750			
0.3243	20755.92	3.9200	3.9201	1.0593	8.16	1.70	0.750			
0.3275	20960.37	3.9170	3.9170	1.0716	8.15	1.69	0.750			
0.3308	21169.55	3.9140	3.9139	1.0774	8.14	1.68	0.750			
0.3340	21378.61	3.9110	3.9110	1.0763	8.13	1.67	0.750			
0.3373	21587.20	3.9080	3.9081	1.0851	8.12	1.66	0.750			
0.3406	21796.21	3.9050	3.9050	1.0870	8.11	1.65	0.750			
0.3438	22005.07	3.9020	3.9019	1.0896	8.10	1.64	0.750			
0.3471	22212.82	3.8990	3.8991	1.0817	8.08	1.62	0.750			
0.3503	22418.50	3.8960	3.8961	1.1036	8.07	1.61	0.750			
0.3536	22630.30	3.8930	3.8930	1.1280	8.06	1.60	0.750			
0.3570	22850.33	3.8900	3.8898	1.1426	8.05	1.59	0.750			
0.3605	23069.77	3.8870	3.8871	1.1633	8.04	1.58	0.750			
0.3640	23298.11	3.8840	3.8841	1.1854	8.03	1.57	0.750			
0.3676	23528.44	3.8810	3.8811	1.2074	8.01	1.55	0.750			
0.3713	23763.05	3.8780	3.8780	1.2097	8.00	1.54	0.750			
0.3749	23995.36	3.8750	3.8751	1.2250	7.98	1.52	0.750			
0.3786	24231.36	3.8720	3.8720	1.2337	7.97	1.51	0.750			
0.3824	24474.02	3.8690	3.8687	1.2362	7.95	1.49	0.750			
0.3861	24708.00	3.8660	3.8661	1.2434	7.94	1.48	0.750			
0.3898	24949.27	3.8630	3.8630	1.2503	7.92	1.46	0.750			
0.3935	25185.36	3.8600	3.8602	1.2836	7.91	1.45	0.750			
0.3974	25434.10	3.8570	3.8572	1.3304	7.90	1.44	0.750	0.394	0.864	
0.4014	25691.09	3.8540	3.8539	1.3557	7.89	1.43	0.750			
0.4056	25960.76	3.8510	3.8513	1.3882	7.88	1.42	0.750			
0.4099	26233.27	3.8480	3.8481	1.4262	7.86	1.40	0.750			
0.4141	26502.24	3.8450	3.8451	1.4508	7.84	1.38	0.750			
0.4186	26788.50	3.8420	3.8419	1.4764	7.82	1.36	0.750			
0.4230	27069.41	3.8390	3.8390	1.5145	7.80	1.34	0.750			
0.4276	27367.83	3.8360	3.8360	1.5323	7.78	1.32	0.750			
0.4323	27668.88	3.8330	3.8330	1.5562	7.76	1.30	0.750			
0.4371	27973.59	3.8300	3.8302	1.5676	7.74	1.28	0.750			
0.4417	28269.78	3.8270	3.8271	1.5682	7.72	1.26	0.750			
0.4463	28566.05	3.8240	3.8240	1.5921	7.71	1.25	0.750			
0.4513	28880.85	3.8210	3.8208	1.6086	7.69	1.23	0.750			
0.4560	29186.98	3.8180	3.8180	1.6262	7.67	1.21	0.750			
0.4610	29502.52	3.8150	3.8150	1.6763	7.65	1.19	0.750			
0.4660	29826.08	3.8120	3.8122	1.7210	7.62	1.16	0.750			
0.4712	30158.86	3.8090	3.8086	1.7800	7.60	1.14	0.750			
0.4766	30503.32	3.8060	3.8063	1.8088	7.58	1.12	0.750			
0.4821	30856.64	3.8030	3.8029	1.8520	7.55	1.09	0.750			
0.4881	31235.55	3.8000	3.8001	1.8811	7.53	1.07	0.750			
0.4936	31592.03	3.7970	3.7969	1.8460	7.51	1.05	0.750			
0.4991	31943.10	3.7940	3.7939	1.8781	7.48	1.02	0.750			
0.5046	32292.67	3.7910	3.7908	1.8901	7.46	1.00	0.750			
0.5102	32651.92	3.7880	3.7878	1.9652	7.43	0.97	0.750			
0.5162	33039.54	3.7850	3.7851	2.0172	7.40	0.94	0.750			
0.5226	33447.31	3.7820	3.7819	2.0757	7.37	0.91	0.750			
0.5289	33849.65	3.7790	3.7791	2.0764	7.34	0.88	0.750			
0.5350	34237.52	3.7760	3.7760	2.0500	7.31	0.85	0.750			
0.5410	34622.08	3.7730	3.7730	2.0763	7.28	0.82	0.750			
0.5473	35025.03	3.7700	3.7700	2.1235	7.25	0.79	0.750			
0.5538	35441.37	3.7670	3.7669	2.1915	7.22	0.76	0.750			
0.5604	35867.61	3.7640	3.7641	2.2458	7.19	0.73	0.750			
0.5673	36304.39	3.7610	3.7609	2.3234	7.16	0.70	0.750			
0.5743	36755.84	3.7580	3.7580	2.3410	7.12	0.66	0.750			
0.5814	37209.22	3.7550	3.7552	2.4048	7.10	0.64	0.750			
0.5886	37669.46	3.7520	3.7519	2.4709	7.07	0.61	0.750			
0.5960	38141.39	3.7490	3.7489	2.6437	7.04	0.58	0.750			
0.6041	38665.09	3.7460	3.7458	2.7402	7.00	0.54	0.750			
0.6127	39210.02	3.7430	3.7432	2.9161	6.96	0.50	0.750			
0.6215	39775.05	3.7400	3.7399	3.0634	6.92	0.46	0.750			
0.6308	40370.42	3.7370	3.7372	3.1437	6.88	0.42	0.750			
0.6407	41006.97	3.7340	3.7340	3.2532	6.84	0.38	0.750			
0.6504	41622.75	3.7310	3.7309	3.1154	6.81	0.35	0.750			
0.6598	42225.41	3.7280	3.7280	2.9710	6.78	0.32	0.750			
0.6683	42771.63	3.7250	3.7250	2.7188	6.76	0.30	0.750			
0.6760	43264.97	3.7220	3.7220	2.4476	6.73	0.27	0.750			
0.6829	43708.10	3.7190	3.7191	2.2049	6.70	0.24	0.750			
0.6891	44101.55	3.7160	3.7161	1.9522	6.68	0.22	0.750			
0.6945	44451.01	3.7130	3.7129	1.7310	6.66	0.20	0.750			
0.6993	44752.64	3.7100	3.7101	1.5526	6.65	0.19	0.750			
0.7035	45022.93	3.7070	3.7072	1.4032	6.64	0.18	0.750			
0.7073	45269.33	3.7040	3.7036	1.2941	6.63	0.17	0.750			
0.7109	45497.41	3.7010	3.7011	1.2055	6.62	0.16	0.750			
0.7144	45720.82	3.6980	3.6980	1.1698	6.61	0.15	0.750			
0.7179	45944.06	3.6950	3.6950	1.1442	6.61	0.15	0.750			
0.7213	46161.62	3.6920	3.6920	1.1017	6.60	0.14	0.750			
0.7245	46368.62	3.6890	3.6891	1.0793	6.59	0.13	0.750			
0.7277	46570.32	3.6860	3.6861	1.0670	6.58	0.12	0.750			
0.7309	46774.71	3.6830	3.6829	1.0580	6.57	0.11	0.750			
0.7340	46975.63	3.6800	3.6800	1.0357	6.56	0.10	0.750			
0.7371	47175.39	3.6770	3.6771	1.0156	6.55	0.09	0.750			
0.7402	47373.60	3.6740	3.6741	1.0055	6.54	0.08	0.750			
0.7432	47563.48	3.6710	3.6711	0.9855	6.54	0.08	0.750			
0.7460	47745.34	3.6680	3.6679	0.9609	6.53	0.07	0.750			
0.7488	47926.40	3.6650	3.6650	0.9472	6.52	0.06	0.750			
0.7516	48105.25	3.6620	3.6620	0.9402	6.52	0.06	0.750			
0.7545	48285.26	3.6590	3.6591	0.9408	6.52	0.06	0.750			
0.7573	48467.86	3.6560	3.6559	0.9447	6.51	0.05	0.750			
0.7602	48650.26	3.6530	3.6531	0.9352	6.50	0.04	0.750			
0.7629	48828.24	3.6500	3.6500	0.9390	6.50	0.04	0.750			
0.7657	49002.17	3.6470	3.6472	0.9596	6.49	0.03	0.750			
0.7686	49189.29	3.6440	3.6439	0.9878	6.48	0.02	0.750			
0.7716	49381.41	3.6410	3.6408	0.9985	6.48	0.02	0.750			
0.7746	49576.92	3.6380	3.6381	1.0139	6.47	0.01	0.750			
0.7778	49780.82	3.6350	3.6351	1.0141	6.47	0.01	0.750			
0.7810	49985.19	3.6320	3.6319	0.9589	6.46	0.00	0.750			
0.7839	50172.28	3.6290	3.6291	0.8792	6.46	-0.00	0.750			
0.7865	50337.18	3.6260	3.6262	0.7609	6.45	-0.01	0.750			
0.7887	50477.02	3.6230	3.6231	0.6501	6.45	-0.01	0.750			
0.7905	50590.01	3.6200	3.6199	0.5159	6.45	-0.01	0.750			
0.7915	50659.06	3.6170	3.6172	0.4329	6.45	-0.01	0.750			
0.7926	50725.74	3.6140	3.6140	0.3265	6.44	-0.02	0.750			
0.7934	50776.76	3.6110	3.6105	0.2498	6.44	-0.02	0.750			
0.7939	50809.02	3.6080	3.6069	0.1756	6.44	-0.02	0.750			
0.7943	50833.77	3.5900	3.5815	-0.1052	6.44	-0.02	0.750			
0.7943	50834.51	3.6050	3.5735	0.1209	6.44	-0.02	0.750			
0.7945	50847.27	3.6020	3.4272	0.0700	6.44	-0.02	0.768			
0.7945	50849.76	3.5930	3.3986	-0.0614	6.44	-0.02	0.772			
0.7946	50856.51	3.5990	3.3212	0.0262	6.44	-0.02	0.781			
0.7946	50857.34	3.5960	3.3116	-0.0176	6.44	-0.02	0.782			
