Ah_balance (normalized)	Ah_balance (mAh)	Voltage - fit (V)	Voltage -  interpolate (V)	dQ/dV (1/V)	Temperature (°C)	Temperature - diff (°C)	Current (C)	R_DC 0ms (mOhm)	R_DC 50ms (mOhm)	R_DC 50 ms PEC (mOhm)
0.0960	6143.78	4.1980	4.1998	0.5146	8.58	2.39	0.750			
0.0979	6265.77	4.1950	4.1972	0.7028	8.58	2.39	0.750			
0.1004	6423.77	4.1920	4.1937	0.7797	8.57	2.38	0.750			
0.1028	6580.04	4.1890	4.1902	0.7855	8.56	2.37	0.750			
0.1054	6745.80	4.1860	4.1864	0.8077	8.55	2.36	0.750			
0.1076	6883.60	4.1830	4.1832	0.7631	8.55	2.36	0.750			
0.1098	7029.12	4.1800	4.1800	0.7154	8.54	2.35	0.750			
0.1120	7168.61	4.1770	4.1770	0.7232	8.54	2.35	0.750			
0.1142	7310.15	4.1740	4.1740	0.7280	8.53	2.34	0.750			
0.1164	7449.57	4.1710	4.1710	0.7392	8.53	2.34	0.750			
0.1186	7592.37	4.1680	4.1679	0.7410	8.52	2.33	0.750			
0.1209	7736.38	4.1650	4.1650	0.7428	8.52	2.33	0.750			
0.1231	7878.49	4.1620	4.1620	0.7406	8.52	2.33	0.750			
0.1253	8021.19	4.1590	4.1593	0.7433	8.51	2.32	0.750			
0.1276	8165.33	4.1560	4.1559	0.7492	8.50	2.31	0.750			
0.1298	8309.67	4.1530	4.1529	0.7468	8.49	2.30	0.750			
0.1320	8449.66	4.1500	4.1500	0.7455	8.49	2.30	0.750			
0.1343	8594.30	4.1470	4.1470	0.7526	8.48	2.29	0.750			
0.1366	8739.76	4.1440	4.1439	0.7498	8.47	2.28	0.750			
0.1388	8884.40	4.1410	4.1408	0.7455	8.47	2.28	0.750			
0.1410	9025.75	4.1380	4.1382	0.7440	8.46	2.27	0.750			
0.1432	9167.72	4.1350	4.1351	0.7438	8.46	2.27	0.750			
0.1455	9310.72	4.1320	4.1319	0.7527	8.45	2.26	0.750			
0.1477	9454.70	4.1290	4.1290	0.7532	8.45	2.26	0.750			
0.1500	9599.48	4.1260	4.1259	0.7600	8.44	2.25	0.750			
0.1523	9747.22	4.1230	4.1231	0.7664	8.43	2.24	0.750			
0.1546	9895.71	4.1200	4.1201	0.7715	8.42	2.23	0.750			
0.1569	10042.88	4.1170	4.1170	0.7710	8.42	2.23	0.750			
0.1592	10190.96	4.1140	4.1141	0.7739	8.41	2.22	0.750			
0.1615	10338.98	4.1110	4.1110	0.7778	8.40	2.21	0.750			
0.1639	10489.78	4.1080	4.1080	0.7833	8.40	2.21	0.750			
0.1663	10640.82	4.1050	4.1050	0.7879	8.39	2.20	0.750			
0.1687	10793.94	4.1020	4.1020	0.7891	8.39	2.20	0.750			
0.1710	10945.90	4.0990	4.0990	0.7892	8.38	2.19	0.750			
0.1734	11096.62	4.0960	4.0961	0.7921	8.37	2.18	0.750			
0.1758	11248.69	4.0930	4.0930	0.7926	8.37	2.18	0.750			
0.1781	11399.21	4.0900	4.0899	0.8009	8.36	2.17	0.750			
0.1806	11555.51	4.0870	4.0870	0.8029	8.35	2.16	0.750			
0.1830	11709.64	4.0840	4.0840	0.8079	8.34	2.15	0.750			
0.1854	11864.98	4.0810	4.0812	0.8175	8.34	2.15	0.750			
0.1879	12023.63	4.0780	4.0779	0.8190	8.33	2.14	0.750			
0.1903	12178.13	4.0750	4.0749	0.8343	8.32	2.13	0.750			
0.1928	12339.28	4.0720	4.0720	0.8420	8.31	2.12	0.750			
0.1954	12503.55	4.0690	4.0691	0.8471	8.30	2.11	0.750			
0.1980	12669.32	4.0660	4.0660	0.8515	8.30	2.11	0.750			
0.2006	12836.74	4.0630	4.0631	0.8355	8.29	2.10	0.750			
0.2030	12994.32	4.0600	4.0600	0.8301	8.28	2.09	0.750			
0.2055	13149.59	4.0570	4.0571	0.8328	8.28	2.09	0.750			
0.2079	13305.85	4.0540	4.0541	0.8348	8.27	2.08	0.750			
0.2104	13467.25	4.0510	4.0510	0.8377	8.27	2.08	0.750			
0.2129	13628.71	4.0480	4.0481	0.8413	8.26	2.07	0.750			
0.2155	13792.22	4.0450	4.0451	0.8485	8.25	2.06	0.750			
0.2181	13955.89	4.0420	4.0420	0.8583	8.24	2.05	0.750			
0.2206	14118.00	4.0390	4.0390	0.8569	8.23	2.04	0.750			
0.2232	14283.60	4.0360	4.0360	0.8667	8.23	2.04	0.750			
0.2258	14453.92	4.0330	4.0329	0.8619	8.22	2.03	0.750			
0.2284	14620.67	4.0300	4.0301	0.8740	8.21	2.02	0.750			
0.2310	14786.56	4.0270	4.0272	0.8876	8.20	2.01	0.750			
0.2337	14956.33	4.0240	4.0237	0.8916	8.19	2.00	0.750			
0.2364	15128.15	4.0210	4.0210	0.9025	8.18	1.99	0.750			
0.2391	15301.97	4.0180	4.0181	0.9128	8.17	1.98	0.750			
0.2419	15480.59	4.0150	4.0151	0.9160	8.17	1.98	0.750			
0.2447	15663.62	4.0120	4.0119	0.9217	8.16	1.97	0.750			
0.2474	15835.71	4.0090	4.0091	0.9128	8.15	1.96	0.750			
0.2502	16011.66	4.0060	4.0060	0.9066	8.14	1.95	0.750			
0.2529	16183.24	4.0030	4.0030	0.9225	8.13	1.94	0.750			
0.2556	16359.66	4.0000	4.0001	0.9294	8.12	1.93	0.750			
0.2584	16539.20	3.9970	3.9968	0.9365	8.11	1.92	0.750			
0.2613	16723.86	3.9940	3.9940	0.9300	8.10	1.91	0.750			
0.2642	16905.86	3.9910	3.9911	0.9284	8.09	1.90	0.750			
0.2669	17082.94	3.9880	3.9881	0.9208	8.08	1.89	0.750			
0.2696	17255.84	3.9850	3.9851	0.9285	8.07	1.88	0.750			
0.2723	17428.07	3.9820	3.9819	0.9205	8.06	1.87	0.750			
0.2751	17606.65	3.9790	3.9788	0.9309	8.05	1.86	0.750			
0.2779	17786.12	3.9760	3.9761	0.9494	8.04	1.85	0.750			
0.2808	17971.81	3.9730	3.9732	0.9653	8.03	1.84	0.750			
0.2837	18158.75	3.9700	3.9697	0.9801	8.02	1.83	0.750			
0.2867	18349.29	3.9670	3.9671	0.9858	8.01	1.82	0.750			
0.2897	18539.78	3.9640	3.9640	0.9902	8.00	1.81	0.750			
0.2927	18734.39	3.9610	3.9610	1.0000	7.99	1.80	0.750			
0.2957	18923.87	3.9580	3.9580	0.9924	7.98	1.79	0.750			
0.2987	19114.81	3.9550	3.9551	0.9961	7.97	1.78	0.750			
0.3017	19307.23	3.9520	3.9520	1.0070	7.96	1.77	0.750			
0.3047	19499.94	3.9490	3.9488	1.0126	7.95	1.76	0.750			
0.3078	19696.74	3.9460	3.9460	1.0209	7.94	1.75	0.750			
0.3109	19894.99	3.9430	3.9432	1.0129	7.92	1.73	0.750			
0.3139	20089.15	3.9400	3.9399	1.0249	7.91	1.72	0.750			
0.3170	20285.09	3.9370	3.9371	1.0324	7.91	1.72	0.750			
0.3200	20477.75	3.9340	3.9341	1.0409	7.90	1.71	0.750			
0.3231	20681.01	3.9310	3.9309	1.0641	7.88	1.69	0.750			
0.3264	20889.25	3.9280	3.9281	1.0827	7.87	1.68	0.750			
0.3297	21101.34	3.9250	3.9251	1.0958	7.86	1.67	0.750			
0.3331	21316.31	3.9220	3.9219	1.0978	7.84	1.65	0.750			
0.3364	21526.41	3.9190	3.9190	1.0894	7.83	1.64	0.750			
0.3396	21733.20	3.9160	3.9161	1.1035	7.82	1.63	0.750			
0.3429	21943.46	3.9130	3.9131	1.1169	7.81	1.62	0.750			
0.3462	22159.31	3.9100	3.9096	1.1264	7.80	1.61	0.750			
0.3496	22375.84	3.9070	3.9072	1.1416	7.79	1.60	0.750			
0.3531	22596.90	3.9040	3.9041	1.1680	7.77	1.58	0.750			
0.3567	22825.78	3.9010	3.9009	1.1956	7.76	1.57	0.750			
0.3602	23054.79	3.8980	3.8980	1.1990	7.75	1.56	0.750			
0.3639	23288.78	3.8950	3.8950	1.2169	7.73	1.54	0.750			
0.3676	23525.24	3.8920	3.8921	1.2423	7.72	1.53	0.750			
0.3714	23769.85	3.8890	3.8887	1.2453	7.70	1.51	0.750			
0.3751	24008.37	3.8860	3.8859	1.2546	7.69	1.50	0.750			
0.3789	24248.08	3.8830	3.8831	1.2630	7.68	1.49	0.750			
0.3827	24493.11	3.8800	3.8801	1.2705	7.66	1.47	0.750			
0.3865	24737.96	3.8770	3.8770	1.2979	7.65	1.46	0.750			
0.3904	24984.21	3.8740	3.8741	1.3090	7.63	1.44	0.750			
0.3944	25238.98	3.8710	3.8711	1.3178	7.61	1.42	0.750			
0.3984	25496.78	3.8680	3.8680	1.3557	7.59	1.40	0.750			
0.4024	25753.97	3.8650	3.8651	1.3691	7.58	1.39	0.750			
0.4065	26018.25	3.8620	3.8622	1.3943	7.56	1.37	0.750			
0.4108	26292.17	3.8590	3.8591	1.4038	7.54	1.35	0.750			
0.4150	26561.72	3.8560	3.8559	1.4287	7.53	1.34	0.750			
0.4194	26840.20	3.8530	3.8532	1.4482	7.52	1.33	0.750			
0.4238	27120.12	3.8500	3.8500	1.4749	7.50	1.31	0.750			
0.4282	27403.49	3.8470	3.8472	1.4986	7.48	1.29	0.750			
0.4328	27696.37	3.8440	3.8440	1.5318	7.46	1.27	0.750			
0.4374	27993.97	3.8410	3.8411	1.5513	7.43	1.24	0.750			
0.4422	28299.85	3.8380	3.8380	1.5793	7.41	1.22	0.750			
0.4469	28599.83	3.8350	3.8350	1.6051	7.39	1.20	0.750			
0.4518	28912.00	3.8320	3.8319	1.6210	7.37	1.18	0.750			
0.4566	29222.00	3.8290	3.8291	1.6433	7.35	1.16	0.750			
0.4615	29536.49	3.8260	3.8261	1.6758	7.33	1.14	0.750			
0.4666	29864.69	3.8230	3.8230	1.7095	7.30	1.11	0.750			
0.4719	30201.90	3.8200	3.8200	1.7224	7.28	1.09	0.750			
0.4771	30534.99	3.8170	3.8169	1.7397	7.25	1.06	0.750			
0.4823	30865.04	3.8140	3.8141	1.7536	7.23	1.04	0.750			
0.4876	31208.68	3.8110	3.8109	1.7608	7.20	1.01	0.750			
0.4928	31540.71	3.8080	3.8081	1.7940	7.17	0.98	0.750			
0.4982	31882.37	3.8050	3.8051	1.8276	7.14	0.95	0.750			
0.5037	32236.90	3.8020	3.8018	1.8749	7.12	0.93	0.750			
0.5095	32606.23	3.7990	3.7990	1.8825	7.10	0.91	0.750			
0.5152	32973.67	3.7960	3.7961	1.9186	7.08	0.89	0.750			
0.5210	33341.07	3.7930	3.7930	1.9692	7.05	0.86	0.750			
0.5269	33720.92	3.7900	3.7897	1.9688	7.02	0.83	0.750			
0.5327	34094.80	3.7870	3.7870	2.0110	6.99	0.80	0.750			
0.5389	34486.46	3.7840	3.7841	2.0587	6.96	0.77	0.750			
0.5452	34892.59	3.7810	3.7808	2.1121	6.94	0.75	0.750			
0.5516	35301.97	3.7780	3.7780	2.1187	6.91	0.72	0.750			
0.5579	35705.77	3.7750	3.7751	2.1455	6.89	0.70	0.750			
0.5644	36122.00	3.7720	3.7721	2.2190	6.85	0.66	0.750			
0.5711	36549.22	3.7690	3.7688	2.2988	6.82	0.63	0.750			
0.5780	36994.61	3.7660	3.7659	2.4309	6.79	0.60	0.750			
0.5856	37479.00	3.7630	3.7630	2.5573	6.76	0.57	0.750			
0.5935	37981.85	3.7600	3.7602	2.6894	6.73	0.54	0.750			
0.6018	38512.40	3.7570	3.7569	2.8269	6.70	0.51	0.750			
0.6104	39066.62	3.7540	3.7540	2.9087	6.66	0.47	0.750			
0.6193	39633.12	3.7510	3.7510	3.0602	6.63	0.44	0.750			
0.6286	40231.45	3.7480	3.7479	3.1729	6.59	0.40	0.750			
0.6387	40874.72	3.7450	3.7451	3.1533	6.55	0.36	0.750			
0.6479	41462.49	3.7420	3.7421	2.9323	6.52	0.33	0.750			
0.6561	41990.76	3.7390	3.7391	2.6395	6.50	0.31	0.750			
0.6638	42480.68	3.7360	3.7360	2.3997	6.47	0.28	0.750			
0.6705	42914.36	3.7330	3.7331	2.1535	6.44	0.25	0.750			
0.6764	43291.69	3.7300	3.7303	1.8937	6.42	0.23	0.750			
0.6817	43629.63	3.7270	3.7271	1.6872	6.41	0.22	0.750			
0.6861	43911.90	3.7240	3.7241	1.5009	6.39	0.20	0.750			
0.6903	44176.41	3.7210	3.7210	1.3975	6.38	0.19	0.750			
0.6942	44427.68	3.7180	3.7179	1.3112	6.37	0.18	0.750			
0.6980	44670.60	3.7150	3.7149	1.2419	6.36	0.17	0.750			
0.7015	44898.51	3.7120	3.7121	1.1875	6.35	0.16	0.750			
0.7051	45124.04	3.7090	3.7092	1.1609	6.34	0.15	0.750			
0.7085	45341.24	3.7060	3.7059	1.1313	6.33	0.14	0.750			
0.7117	45551.07	3.7030	3.7029	1.0936	6.32	0.13	0.750			
0.7149	45755.64	3.7000	3.7001	1.0766	6.31	0.12	0.750			
0.7182	45963.61	3.6970	3.6971	1.0659	6.30	0.11	0.750			
0.7214	46169.97	3.6940	3.6938	1.0485	6.29	0.10	0.750			
0.7245	46367.71	3.6910	3.6910	1.0161	6.28	0.09	0.750			
0.7275	46560.47	3.6880	3.6881	0.9958	6.28	0.09	0.750			
0.7304	46747.90	3.6850	3.6852	0.9832	6.27	0.08	0.750			
0.7334	46934.49	3.6820	3.6819	0.9684	6.26	0.07	0.750			
0.7362	47118.52	3.6790	3.6790	0.9464	6.26	0.07	0.750			
0.7391	47299.75	3.6760	3.6760	0.9444	6.25	0.06	0.750			
0.7419	47478.64	3.6730	3.6731	0.9404	6.24	0.05	0.750			
0.7447	47659.53	3.6700	3.6701	0.9418	6.23	0.04	0.750			
0.7475	47837.16	3.6670	3.6669	0.9432	6.23	0.04	0.750			
0.7502	48015.36	3.6640	3.6641	0.9587	6.22	0.03	0.750			
0.7531	48198.68	3.6610	3.6610	0.9815	6.22	0.03	0.750			
0.7561	48390.77	3.6580	3.6580	1.0134	6.21	0.02	0.750			
0.7592	48589.55	3.6550	3.6547	1.0276	6.21	0.02	0.750			
0.7624	48796.72	3.6520	3.6520	1.0176	6.20	0.01	0.750			
0.7656	49000.07	3.6490	3.6491	0.9868	6.20	0.01	0.750			
0.7688	49201.98	3.6460	3.6460	0.9155	6.19	0.00	0.750			
0.7715	49372.98	3.6430	3.6428	0.8057	6.19	0.00	0.750			
0.7738	49521.42	3.6400	3.6402	0.6883	6.19	-0.00	0.750			
0.7756	49637.87	3.6370	3.6371	0.5636	6.18	-0.01	0.750			
0.7768	49712.31	3.6340	3.6347	0.4650	6.18	-0.01	0.750			
0.7780	49790.60	3.6310	3.6313	0.3644	6.18	-0.01	0.750			
0.7789	49847.13	3.6280	3.6281	0.2773	6.18	-0.01	0.750			
0.7795	49889.80	3.6250	3.6245	0.2127	6.18	-0.01	0.750			
0.7800	49919.35	3.6220	3.6201	0.1545	6.18	-0.01	0.750			
0.7803	49936.88	3.6010	3.5585	-0.1119	6.18	-0.01	0.749			
0.7803	49939.72	3.6190	3.5178	0.1070	6.18	-0.01	0.748			
0.7805	49954.86	3.6040	3.3010	-0.0754	6.18	-0.01	0.743			
0.7806	49956.76	3.6160	3.2739	0.0705	6.18	-0.01	0.743			
0.7807	49965.84	3.6070	3.1438	-0.0389	6.18	-0.01	0.739			
0.7807	49966.79	3.6130	3.1302	0.0340	6.18	-0.01	0.739			
0.7808	49969.82	3.6100	3.0869	-0.0025	6.18	-0.01	0.738			
