Ah_balance (normalized)	Ah_balance (mAh)	Voltage - fit (V)	Voltage -  interpolate (V)	dQ/dV (1/V)	Temperature (°C)	Temperature - diff (°C)	Current (C)	R_DC 0ms (mOhm)	R_DC 50ms (mOhm)	R_DC 50 ms PEC (mOhm)
0.0001	7.37	4.1040	4.1022	-0.0047	5.98	-0.01	-0.750			
0.0002	11.58	4.1010	4.1005	-0.0391	5.98	-0.01	-0.750			
0.0004	24.48	4.0980	4.0976	-0.0725	5.98	-0.01	-0.750			
0.0007	42.55	4.0950	4.0946	-0.1001	5.98	-0.01	-0.750			
0.0010	64.12	4.0920	4.0920	-0.1281	5.98	-0.01	-0.750			
0.0014	91.99	4.0890	4.0891	-0.1528	5.98	-0.01	-0.750			
0.0019	124.00	4.0860	4.0861	-0.1774	5.98	-0.01	-0.750			
0.0025	162.22	4.0830	4.0828	-0.2028	5.98	-0.01	-0.750			
0.0032	202.93	4.0800	4.0802	-0.2248	5.98	-0.01	-0.750			
0.0039	248.60	4.0770	4.0769	-0.2451	5.98	-0.01	-0.750			
0.0047	298.05	4.0740	4.0740	-0.2655	5.99	-0.00	-0.750			
0.0055	350.29	4.0710	4.0710	-0.2899	5.99	-0.00	-0.750			
0.0064	407.34	4.0680	4.0681	-0.3136	5.99	-0.00	-0.750			
0.0073	470.37	4.0650	4.0648	-0.3369	5.99	-0.00	-0.750			
0.0084	537.50	4.0620	4.0620	-0.3575	5.99	-0.00	-0.750			
0.0095	608.85	4.0590	4.0592	-0.3783	5.99	-0.00	-0.750			
0.0107	684.83	4.0560	4.0560	-0.4001	5.99	0.00	-0.750			
0.0119	762.45	4.0530	4.0530	-0.4226	5.99	0.00	-0.750			
0.0132	843.27	4.0500	4.0500	-0.4439	5.99	0.00	-0.750			
0.0146	931.27	4.0470	4.0470	-0.4691	5.99	0.00	-0.750			
0.0160	1024.44	4.0440	4.0440	-0.4924	5.99	0.00	-0.750			
0.0175	1122.08	4.0410	4.0410	-0.5120	6.00	0.01	-0.750			
0.0191	1223.29	4.0380	4.0381	-0.5326	6.00	0.01	-0.750			
0.0207	1327.65	4.0350	4.0348	-0.5469	6.00	0.01	-0.750			
0.0224	1433.28	4.0320	4.0321	-0.5608	6.00	0.01	-0.750			
0.0241	1543.13	4.0290	4.0290	-0.5769	6.00	0.01	-0.750			
0.0259	1656.55	4.0260	4.0260	-0.5905	6.00	0.01	-0.750			
0.0277	1771.72	4.0230	4.0229	-0.5999	6.01	0.02	-0.750			
0.0295	1887.93	4.0200	4.0200	-0.6141	6.01	0.02	-0.750			
0.0313	2006.02	4.0170	4.0171	-0.6270	6.01	0.02	-0.750			
0.0333	2128.85	4.0140	4.0138	-0.6355	6.02	0.03	-0.750			
0.0352	2250.78	4.0110	4.0111	-0.6471	6.02	0.03	-0.750			
0.0371	2376.39	4.0080	4.0080	-0.6558	6.02	0.03	-0.750			
0.0391	2502.91	4.0050	4.0050	-0.6678	6.03	0.04	-0.750			
0.0411	2632.73	4.0020	4.0020	-0.6808	6.03	0.04	-0.750			
0.0432	2764.30	3.9990	3.9990	-0.6855	6.03	0.04	-0.750			
0.0453	2898.69	3.9960	3.9959	-0.6913	6.04	0.05	-0.750			
0.0474	3032.67	3.9930	3.9931	-0.7010	6.04	0.05	-0.750			
0.0495	3167.94	3.9900	3.9900	-0.6986	6.05	0.06	-0.750			
0.0516	3302.52	3.9870	3.9870	-0.7033	6.05	0.06	-0.750			
0.0537	3435.72	3.9840	3.9840	-0.7051	6.06	0.07	-0.750			
0.0558	3571.33	3.9810	3.9810	-0.7102	6.07	0.08	-0.750			
0.0580	3711.15	3.9780	3.9779	-0.7127	6.07	0.08	-0.750			
0.0601	3846.50	3.9750	3.9749	-0.7164	6.08	0.09	-0.750			
0.0622	3983.78	3.9720	3.9721	-0.7191	6.08	0.09	-0.750			
0.0644	4123.79	3.9690	3.9689	-0.7268	6.09	0.10	-0.750			
0.0666	4262.43	3.9660	3.9659	-0.7287	6.09	0.10	-0.750			
0.0688	4404.23	3.9630	3.9630	-0.7298	6.10	0.11	-0.750			
0.0710	4545.68	3.9600	3.9600	-0.7350	6.11	0.12	-0.750			
0.0732	4687.57	3.9570	3.9571	-0.7332	6.11	0.12	-0.750			
0.0754	4826.05	3.9540	3.9540	-0.7301	6.12	0.13	-0.750			
0.0776	4965.99	3.9510	3.9510	-0.7367	6.13	0.14	-0.750			
0.0798	5106.53	3.9480	3.9479	-0.7381	6.13	0.14	-0.750			
0.0820	5250.30	3.9450	3.9450	-0.7432	6.14	0.15	-0.750			
0.0843	5392.74	3.9420	3.9420	-0.7499	6.15	0.16	-0.750			
0.0865	5536.79	3.9390	3.9390	-0.7561	6.15	0.16	-0.750			
0.0888	5683.87	3.9360	3.9360	-0.7637	6.16	0.17	-0.750			
0.0911	5830.78	3.9330	3.9330	-0.7633	6.17	0.18	-0.750			
0.0934	5978.00	3.9300	3.9300	-0.7639	6.18	0.19	-0.750			
0.0957	6126.75	3.9270	3.9271	-0.7657	6.18	0.19	-0.750			
0.0980	6274.28	3.9240	3.9242	-0.7633	6.19	0.20	-0.750			
0.1003	6418.76	3.9210	3.9210	-0.7577	6.20	0.21	-0.750			
0.1025	6562.13	3.9180	3.9181	-0.7608	6.21	0.22	-0.750			
0.1048	6709.12	3.9150	3.9150	-0.7615	6.22	0.23	-0.750			
0.1071	6856.19	3.9120	3.9119	-0.7638	6.23	0.24	-0.750			
0.1094	7001.46	3.9090	3.9090	-0.7675	6.24	0.25	-0.750			
0.1117	7149.78	3.9060	3.9061	-0.7697	6.24	0.25	-0.750			
0.1140	7297.92	3.9030	3.9028	-0.7721	6.25	0.26	-0.750			
0.1163	7445.96	3.9000	3.9001	-0.7714	6.26	0.27	-0.750			
0.1187	7594.05	3.8970	3.8971	-0.7683	6.27	0.28	-0.750			
0.1210	7744.51	3.8940	3.8940	-0.7738	6.27	0.28	-0.750			
0.1233	7890.51	3.8910	3.8912	-0.7820	6.28	0.29	-0.750			
0.1256	8038.29	3.8880	3.8879	-0.7820	6.29	0.30	-0.750			
0.1280	8192.22	3.8850	3.8849	-0.7885	6.30	0.31	-0.750			
0.1304	8343.38	3.8820	3.8822	-0.7932	6.31	0.32	-0.750			
0.1328	8498.00	3.8790	3.8790	-0.7958	6.32	0.33	-0.750			
0.1352	8651.38	3.8760	3.8761	-0.7964	6.33	0.34	-0.750			
0.1375	8801.90	3.8730	3.8729	-0.7937	6.34	0.35	-0.750			
0.1399	8951.61	3.8700	3.8698	-0.7984	6.34	0.35	-0.750			
0.1423	9107.11	3.8670	3.8671	-0.8061	6.35	0.36	-0.750			
0.1448	9264.15	3.8640	3.8638	-0.8029	6.36	0.37	-0.750			
0.1472	9420.68	3.8610	3.8611	-0.8009	6.37	0.38	-0.750			
0.1496	9574.50	3.8580	3.8581	-0.8017	6.38	0.39	-0.750			
0.1520	9725.48	3.8550	3.8550	-0.8029	6.39	0.40	-0.750			
0.1544	9879.44	3.8520	3.8519	-0.8000	6.40	0.41	-0.750			
0.1567	10029.47	3.8490	3.8489	-0.8013	6.41	0.42	-0.750			
0.1591	10185.42	3.8460	3.8461	-0.8118	6.42	0.43	-0.750			
0.1616	10343.63	3.8430	3.8427	-0.8165	6.43	0.44	-0.750			
0.1641	10500.86	3.8400	3.8400	-0.8240	6.44	0.45	-0.750			
0.1666	10662.26	3.8370	3.8371	-0.8099	6.44	0.45	-0.750			
0.1690	10816.25	3.8340	3.8339	-0.8037	6.45	0.46	-0.750			
0.1714	10970.17	3.8310	3.8310	-0.8096	6.46	0.47	-0.750			
0.1738	11120.82	3.8280	3.8279	-0.8055	6.46	0.47	-0.750			
0.1762	11273.87	3.8250	3.8248	-0.8153	6.48	0.49	-0.750			
0.1787	11434.06	3.8220	3.8219	-0.8126	6.49	0.50	-0.750			
0.1811	11590.67	3.8190	3.8191	-0.8154	6.50	0.51	-0.750			
0.1836	11751.37	3.8160	3.8160	-0.8233	6.51	0.52	-0.750			
0.1860	11907.04	3.8130	3.8130	-0.8168	6.52	0.53	-0.750			
0.1885	12061.32	3.8100	3.8099	-0.8214	6.53	0.54	-0.750			
0.1909	12216.53	3.8070	3.8070	-0.8231	6.54	0.55	-0.750			
0.1934	12376.29	3.8040	3.8039	-0.8270	6.55	0.56	-0.750			
0.1959	12539.82	3.8010	3.8010	-0.8370	6.55	0.56	-0.750			
0.1984	12700.41	3.7980	3.7981	-0.8323	6.56	0.57	-0.750			
0.2009	12859.82	3.7950	3.7950	-0.8316	6.57	0.58	-0.750			
0.2034	13018.18	3.7920	3.7920	-0.8313	6.58	0.59	-0.750			
0.2059	13178.58	3.7890	3.7889	-0.8263	6.59	0.60	-0.750			
0.2084	13338.46	3.7860	3.7860	-0.8230	6.60	0.61	-0.750			
0.2109	13495.11	3.7830	3.7831	-0.8236	6.61	0.62	-0.750			
0.2133	13653.54	3.7800	3.7800	-0.8186	6.62	0.63	-0.750			
0.2158	13810.70	3.7770	3.7769	-0.8203	6.63	0.64	-0.750			
0.2182	13966.08	3.7740	3.7740	-0.8203	6.64	0.65	-0.750			
0.2207	14124.59	3.7710	3.7710	-0.8261	6.64	0.65	-0.750			
0.2232	14283.46	3.7680	3.7682	-0.8379	6.65	0.66	-0.750			
0.2257	14444.96	3.7650	3.7651	-0.8452	6.66	0.67	-0.750			
0.2283	14608.93	3.7620	3.7618	-0.8537	6.67	0.68	-0.750			
0.2309	14775.11	3.7590	3.7590	-0.8606	6.68	0.69	-0.750			
0.2335	14943.99	3.7560	3.7559	-0.8627	6.69	0.70	-0.750			
0.2361	15108.55	3.7530	3.7532	-0.8536	6.70	0.71	-0.750			
0.2386	15271.75	3.7500	3.7499	-0.8557	6.71	0.72	-0.750			
0.2411	15433.37	3.7470	3.7470	-0.8527	6.72	0.73	-0.750			
0.2437	15595.26	3.7440	3.7439	-0.8454	6.73	0.74	-0.750			
0.2463	15760.59	3.7410	3.7409	-0.8564	6.73	0.74	-0.750			
0.2488	15926.22	3.7380	3.7381	-0.8572	6.74	0.75	-0.750			
0.2514	16090.49	3.7350	3.7350	-0.8649	6.75	0.76	-0.750			
0.2540	16257.07	3.7320	3.7320	-0.8641	6.76	0.77	-0.750			
0.2566	16420.22	3.7290	3.7290	-0.8655	6.77	0.78	-0.750			
0.2592	16587.86	3.7260	3.7260	-0.8830	6.78	0.79	-0.750			
0.2619	16759.94	3.7230	3.7230	-0.8916	6.78	0.79	-0.750			
0.2646	16931.82	3.7200	3.7199	-0.8927	6.79	0.80	-0.750			
0.2673	17106.95	3.7170	3.7171	-0.8957	6.80	0.81	-0.750			
0.2700	17277.79	3.7140	3.7141	-0.8901	6.80	0.81	-0.750			
0.2727	17449.69	3.7110	3.7110	-0.8898	6.81	0.82	-0.750			
0.2753	17617.31	3.7080	3.7080	-0.8896	6.82	0.83	-0.750			
0.2779	17786.29	3.7050	3.7050	-0.8962	6.83	0.84	-0.750			
0.2806	17958.73	3.7020	3.7020	-0.9097	6.83	0.84	-0.750			
0.2834	18135.39	3.6990	3.6989	-0.9147	6.84	0.85	-0.750			
0.2862	18314.68	3.6960	3.6960	-0.9196	6.85	0.86	-0.750			
0.2889	18491.95	3.6930	3.6931	-0.9251	6.86	0.87	-0.750			
0.2917	18670.11	3.6900	3.6900	-0.9280	6.87	0.88	-0.750			
0.2945	18847.76	3.6870	3.6869	-0.9313	6.88	0.89	-0.750			
0.2973	19025.43	3.6840	3.6841	-0.9314	6.89	0.90	-0.750			
0.3000	19202.00	3.6810	3.6810	-0.9556	6.90	0.91	-0.750			
0.3030	19390.49	3.6780	3.6780	-0.9646	6.91	0.92	-0.750			
0.3059	19577.31	3.6750	3.6748	-0.9655	6.92	0.93	-0.750			
0.3088	19761.53	3.6720	3.6720	-0.9729	6.92	0.93	-0.750			
0.3118	19952.31	3.6690	3.6689	-0.9769	6.93	0.94	-0.750			
0.3147	20140.11	3.6660	3.6659	-0.9876	6.94	0.95	-0.750			
0.3177	20331.09	3.6630	3.6629	-0.9797	6.95	0.96	-0.750			
0.3205	20514.90	3.6600	3.6600	-0.9773	6.96	0.97	-0.750			
0.3236	20707.43	3.6570	3.6572	-0.9933	6.97	0.98	-0.750			
0.3265	20896.91	3.6540	3.6538	-1.0027	6.98	0.99	-0.750			
0.3295	21087.36	3.6510	3.6510	-1.0128	6.99	1.00	-0.750			
0.3325	21281.13	3.6480	3.6481	-1.0215	6.99	1.00	-0.750			
0.3357	21482.48	3.6450	3.6451	-1.0449	7.00	1.01	-0.750			
0.3388	21686.36	3.6420	3.6420	-1.0617	7.01	1.02	-0.750			
0.3420	21890.08	3.6390	3.6390	-1.0686	7.02	1.03	-0.750			
0.3453	22097.45	3.6360	3.6359	-1.0747	7.03	1.04	-0.750			
0.3485	22304.64	3.6330	3.6330	-1.0808	7.04	1.05	-0.750			
0.3518	22513.43	3.6300	3.6300	-1.0828	7.05	1.06	-0.750			
0.3550	22721.82	3.6270	3.6270	-1.0883	7.06	1.07	-0.750			
0.3583	22929.35	3.6240	3.6240	-1.0940	7.06	1.07	-0.750			
0.3615	23138.08	3.6210	3.6210	-1.1047	7.07	1.08	-0.750			
0.3649	23352.95	3.6180	3.6180	-1.1150	7.08	1.09	-0.750			
0.3683	23569.58	3.6150	3.6149	-1.1270	7.08	1.09	-0.750			
0.3717	23787.92	3.6120	3.6120	-1.1314	7.09	1.10	-0.750			
0.3751	24006.10	3.6090	3.6089	-1.1518	7.10	1.11	-0.750			
0.3786	24228.71	3.6060	3.6059	-1.1482	7.10	1.11	-0.750			
0.3820	24447.45	3.6030	3.6030	-1.1674	7.11	1.12	-0.750			
0.3855	24671.22	3.6000	3.6003	-1.1775	7.12	1.13	-0.750			
0.3891	24902.33	3.5970	3.5967	-1.1983	7.13	1.14	-0.750			
0.3927	25132.29	3.5940	3.5941	-1.2116	7.14	1.15	-0.750	0.410	0.901	
0.3963	25365.78	3.5910	3.5911	-1.2243	7.15	1.16	-0.750			
0.4001	25604.94	3.5880	3.5879	-1.2325	7.16	1.17	-0.750			
0.4038	25844.33	3.5850	3.5850	-1.2325	7.16	1.17	-0.750			
0.4075	26079.21	3.5820	3.5820	-1.2348	7.17	1.18	-0.750			
0.4112	26315.46	3.5790	3.5791	-1.2462	7.18	1.19	-0.750			
0.4149	26552.82	3.5760	3.5759	-1.2572	7.19	1.20	-0.750			
0.4186	26791.93	3.5730	3.5730	-1.2726	7.20	1.21	-0.750			
0.4225	27039.39	3.5700	3.5700	-1.3028	7.21	1.22	-0.750			
0.4265	27297.16	3.5670	3.5669	-1.3243	7.22	1.23	-0.750			
0.4306	27555.30	3.5640	3.5640	-1.3239	7.23	1.24	-0.750			
0.4345	27811.11	3.5610	3.5611	-1.3280	7.24	1.25	-0.750			
0.4385	28066.04	3.5580	3.5580	-1.3233	7.25	1.26	-0.750			
0.4425	28316.98	3.5550	3.5549	-1.3262	7.25	1.26	-0.750			
0.4464	28568.52	3.5520	3.5520	-1.3394	7.26	1.27	-0.750			
0.4504	28824.20	3.5490	3.5489	-1.3440	7.27	1.28	-0.750			
0.4545	29088.19	3.5460	3.5459	-1.3642	7.28	1.29	-0.750			
0.4586	29352.87	3.5430	3.5430	-1.3798	7.29	1.30	-0.750			
0.4628	29618.16	3.5400	3.5400	-1.3931	7.30	1.31	-0.750			
0.4671	29891.62	3.5370	3.5369	-1.4014	7.31	1.32	-0.750			
0.4712	30158.67	3.5340	3.5340	-1.4124	7.32	1.33	-0.750			
0.4755	30430.29	3.5310	3.5308	-1.4137	7.32	1.33	-0.750			
0.4798	30705.63	3.5280	3.5279	-1.4200	7.33	1.34	-0.750			
0.4840	30978.57	3.5250	3.5250	-1.4264	7.34	1.35	-0.750			
0.4883	31251.80	3.5220	3.5220	-1.4225	7.35	1.36	-0.750			
0.4926	31529.01	3.5190	3.5189	-1.4177	7.36	1.37	-0.750			
0.4969	31799.61	3.5160	3.5161	-1.4222	7.37	1.38	-0.750			
0.5010	32066.73	3.5130	3.5130	-1.4192	7.38	1.39	-0.750			
0.5054	32344.44	3.5100	3.5099	-1.4309	7.39	1.40	-0.750			
0.5097	32619.40	3.5070	3.5069	-1.4359	7.40	1.41	-0.750			
0.5140	32895.91	3.5040	3.5041	-1.4285	7.41	1.42	-0.750			
0.5184	33178.18	3.5010	3.5010	-1.4350	7.42	1.43	-0.750			
0.5227	33453.12	3.4980	3.4982	-1.4314	7.43	1.44	-0.750			
0.5270	33725.48	3.4950	3.4949	-1.4185	7.44	1.45	-0.750			
0.5312	33994.18	3.4920	3.4919	-1.4130	7.45	1.46	-0.750			
0.5354	34265.01	3.4890	3.4892	-1.4191	7.46	1.47	-0.750			
0.5397	34540.15	3.4860	3.4859	-1.4227	7.47	1.48	-0.750			
0.5440	34812.93	3.4830	3.4829	-1.4144	7.48	1.49	-0.750			
0.5482	35084.30	3.4800	3.4801	-1.4119	7.49	1.50	-0.750			
0.5525	35358.82	3.4770	3.4769	-1.4011	7.50	1.51	-0.750			
0.5567	35626.04	3.4740	3.4740	-1.3843	7.51	1.52	-0.750			
0.5608	35888.25	3.4710	3.4711	-1.3789	7.52	1.53	-0.750			
0.5649	36155.39	3.4680	3.4679	-1.3650	7.53	1.54	-0.750			
0.5690	36415.97	3.4650	3.4648	-1.3521	7.55	1.56	-0.750			
0.5730	36671.02	3.4620	3.4624	-1.3546	7.56	1.57	-0.750			
0.5771	36933.43	3.4590	3.4588	-1.3460	7.57	1.58	-0.750			
0.5811	37192.66	3.4560	3.4558	-1.3377	7.58	1.59	-0.750			
0.5851	37447.87	3.4530	3.4533	-1.3196	7.59	1.60	-0.750			
0.5892	37705.70	3.4500	3.4500	-1.3109	7.61	1.62	-0.750			
0.5931	37955.85	3.4470	3.4469	-1.2856	7.62	1.63	-0.750			
0.5968	38194.41	3.4440	3.4441	-1.2588	7.64	1.65	-0.750			
0.6005	38432.11	3.4410	3.4410	-1.2446	7.65	1.66	-0.750			
0.6042	38669.19	3.4380	3.4379	-1.2351	7.66	1.67	-0.750			
0.6079	38903.22	3.4350	3.4350	-1.2209	7.67	1.68	-0.750			
0.6115	39137.72	3.4320	3.4320	-1.2191	7.68	1.69	-0.750			
0.6153	39378.27	3.4290	3.4290	-1.2105	7.70	1.71	-0.750			
0.6189	39609.81	3.4260	3.4260	-1.1879	7.71	1.72	-0.750			
0.6224	39835.49	3.4230	3.4231	-1.1640	7.72	1.73	-0.750			
0.6259	40057.85	3.4200	3.4199	-1.1455	7.73	1.74	-0.750			
0.6293	40273.21	3.4170	3.4169	-1.1124	7.75	1.76	-0.750			
0.6325	40482.44	3.4140	3.4141	-1.0921	7.76	1.77	-0.750			
0.6357	40687.03	3.4110	3.4111	-1.0764	7.77	1.78	-0.750			
0.6390	40895.99	3.4080	3.4079	-1.0661	7.79	1.80	-0.750			
0.6422	41098.46	3.4050	3.4049	-1.0377	7.80	1.81	-0.750			
0.6452	41295.23	3.4020	3.4019	-1.0155	7.82	1.83	-0.750			
0.6483	41489.95	3.3990	3.3993	-0.9947	7.83	1.84	-0.750			
0.6512	41679.82	3.3960	3.3957	-0.9775	7.84	1.85	-0.750			
0.6541	41863.41	3.3930	3.3930	-0.9447	7.85	1.86	-0.750			
0.6569	42043.33	3.3900	3.3900	-0.9180	7.87	1.88	-0.750			
0.6597	42217.88	3.3870	3.3871	-0.8956	7.88	1.89	-0.750			
0.6623	42387.23	3.3840	3.3840	-0.8731	7.89	1.90	-0.750			
0.6648	42548.81	3.3810	3.3810	-0.8479	7.90	1.91	-0.750			
0.6673	42708.68	3.3780	3.3780	-0.8280	7.92	1.93	-0.750			
0.6698	42865.40	3.3750	3.3749	-0.8048	7.93	1.94	-0.750			
0.6722	43021.26	3.3720	3.3721	-0.7915	7.95	1.96	-0.750			
0.6746	43171.37	3.3690	3.3689	-0.7695	7.96	1.97	-0.750			
0.6768	43317.60	3.3660	3.3660	-0.7455	7.97	1.98	-0.750			
0.6790	43457.45	3.3630	3.3630	-0.7264	7.98	1.99	-0.750			
0.6811	43592.79	3.3600	3.3601	-0.7049	7.99	2.00	-0.750			
0.6832	43727.52	3.3570	3.3569	-0.6874	8.00	2.01	-0.750			
0.6853	43857.66	3.3540	3.3541	-0.6717	8.01	2.02	-0.750			
0.6873	43984.08	3.3510	3.3510	-0.6577	8.02	2.03	-0.750			
0.6892	44109.16	3.3480	3.3480	-0.6429	8.04	2.05	-0.750			
0.6911	44230.62	3.3450	3.3450	-0.6319	8.05	2.06	-0.750			
0.6930	44350.58	3.3420	3.3420	-0.6172	8.06	2.07	-0.750			
0.6948	44468.43	3.3390	3.3390	-0.6098	8.08	2.09	-0.750			
0.6966	44585.12	3.3360	3.3359	-0.5965	8.09	2.10	-0.750			
0.6984	44699.02	3.3330	3.3330	-0.5775	8.10	2.11	-0.750			
0.7001	44808.76	3.3300	3.3299	-0.5597	8.11	2.12	-0.750			
0.7018	44914.62	3.3270	3.3271	-0.5464	8.13	2.14	-0.750			
0.7034	45016.50	3.3240	3.3239	-0.5255	8.14	2.15	-0.750			
0.7049	45115.34	3.3210	3.3210	-0.5170	8.15	2.16	-0.750			
0.7064	45212.48	3.3180	3.3180	-0.5007	8.15	2.16	-0.750			
0.7079	45308.55	3.3150	3.3150	-0.4953	8.16	2.17	-0.750			
0.7094	45403.27	3.3120	3.3120	-0.4856	8.17	2.18	-0.750			
0.7109	45495.30	3.3090	3.3090	-0.4749	8.18	2.19	-0.750			
0.7123	45585.49	3.3060	3.3059	-0.4635	8.20	2.21	-0.750			
0.7137	45674.61	3.3030	3.3030	-0.4522	8.21	2.22	-0.750			
0.7150	45758.83	3.3000	3.3000	-0.4406	8.22	2.23	-0.750			
0.7163	45842.52	3.2970	3.2971	-0.4347	8.23	2.24	-0.750			
0.7176	45923.61	3.2940	3.2939	-0.4244	8.24	2.25	-0.750			
0.7188	46005.28	3.2910	3.2909	-0.4179	8.25	2.26	-0.750			
0.7201	46085.22	3.2880	3.2879	-0.4101	8.26	2.27	-0.750			
0.7213	46163.51	3.2850	3.2851	-0.4028	8.27	2.28	-0.750			
0.7225	46241.11	3.2820	3.2820	-0.3962	8.28	2.29	-0.750			
0.7237	46315.31	3.2790	3.2789	-0.3849	8.29	2.30	-0.750			
0.7248	46387.27	3.2760	3.2760	-0.3759	8.30	2.31	-0.750			
0.7259	46459.13	3.2730	3.2730	-0.3700	8.31	2.32	-0.750			
0.7270	46529.33	3.2700	3.2700	-0.3645	8.32	2.33	-0.750			
0.7281	46599.15	3.2670	3.2670	-0.3594	8.33	2.34	-0.750			
0.7292	46667.31	3.2640	3.2640	-0.3537	8.34	2.35	-0.750			
0.7302	46734.51	3.2610	3.2610	-0.3500	8.35	2.36	-0.750			
0.7313	46801.99	3.2580	3.2580	-0.3448	8.36	2.37	-0.750			
0.7323	46867.78	3.2550	3.2549	-0.3385	8.37	2.38	-0.750			
0.7333	46932.92	3.2520	3.2519	-0.3321	8.38	2.39	-0.750			
0.7343	46996.01	3.2490	3.2491	-0.3244	8.39	2.40	-0.750			
0.7353	47057.22	3.2460	3.2461	-0.3187	8.39	2.40	-0.750			
0.7362	47117.24	3.2430	3.2429	-0.3131	8.40	2.41	-0.750			
0.7371	47176.52	3.2400	3.2401	-0.3085	8.41	2.42	-0.750			
0.7381	47235.44	3.2370	3.2369	-0.3047	8.42	2.43	-0.750			
0.7390	47293.25	3.2340	3.2342	-0.3004	8.43	2.44	-0.750			
0.7399	47351.34	3.2310	3.2309	-0.2976	8.44	2.45	-0.750			
0.7408	47408.27	3.2280	3.2280	-0.2918	8.45	2.46	-0.750			
0.7416	47463.57	3.2250	3.2250	-0.2864	8.46	2.47	-0.750			
0.7425	47518.27	3.2220	3.2221	-0.2825	8.46	2.47	-0.750			
0.7433	47572.13	3.2190	3.2190	-0.2786	8.47	2.48	-0.750			
0.7441	47625.13	3.2160	3.2161	-0.2753	8.48	2.49	-0.750			
0.7450	47677.19	3.2130	3.2129	-0.2714	8.49	2.50	-0.750			
0.7458	47729.15	3.2100	3.2100	-0.2674	8.50	2.51	-0.750			
0.7466	47780.60	3.2070	3.2070	-0.2657	8.51	2.52	-0.750			
0.7474	47830.99	3.2040	3.2042	-0.2611	8.51	2.52	-0.750			
0.7481	47880.71	3.2010	3.2010	-0.2587	8.52	2.53	-0.750			
0.7489	47930.32	3.1980	3.1980	-0.2546	8.53	2.54	-0.750			
0.7497	47978.64	3.1950	3.1949	-0.2507	8.54	2.55	-0.750			
0.7504	48026.82	3.1920	3.1920	-0.2475	8.55	2.56	-0.750			
0.7512	48074.09	3.1890	3.1891	-0.2436	8.56	2.57	-0.750			
0.7519	48120.43	3.1860	3.1859	-0.2404	8.57	2.58	-0.750			
0.7526	48166.18	3.1830	3.1830	-0.2363	8.57	2.58	-0.750			
0.7533	48210.55	3.1800	3.1801	-0.2339	8.58	2.59	-0.750			
0.7540	48254.81	3.1770	3.1770	-0.2313	8.59	2.60	-0.750			
0.7547	48299.40	3.1740	3.1740	-0.2300	8.60	2.61	-0.750			
0.7554	48343.49	3.1710	3.1710	-0.2268	8.61	2.62	-0.750			
0.7560	48387.13	3.1680	3.1680	-0.2248	8.61	2.62	-0.750			
0.7567	48430.09	3.1650	3.1650	-0.2207	8.62	2.63	-0.750			
0.7574	48472.05	3.1620	3.1619	-0.2184	8.63	2.64	-0.750			
0.7580	48513.82	3.1590	3.1589	-0.2152	8.64	2.65	-0.750			
0.7587	48554.27	3.1560	3.1561	-0.2115	8.65	2.66	-0.750			
0.7593	48594.39	3.1530	3.1529	-0.2095	8.65	2.66	-0.750			
0.7599	48634.18	3.1500	3.1501	-0.2074	8.66	2.67	-0.750			
0.7605	48673.88	3.1470	3.1471	-0.2062	8.67	2.68	-0.750			
0.7611	48713.38	3.1440	3.1439	-0.2057	8.68	2.69	-0.750			
0.7618	48753.11	3.1410	3.1410	-0.2037	8.69	2.70	-0.750			
0.7624	48791.61	3.1380	3.1379	-0.2019	8.69	2.70	-0.750			
0.7630	48830.29	3.1350	3.1351	-0.2010	8.70	2.71	-0.750			
0.7636	48869.25	3.1320	3.1320	-0.1988	8.71	2.72	-0.750			
0.7642	48907.04	3.1290	3.1289	-0.1972	8.72	2.73	-0.750			
0.7648	48944.87	3.1260	3.1260	-0.1950	8.73	2.74	-0.750			
0.7653	48982.09	3.1230	3.1230	-0.1928	8.73	2.74	-0.750			
0.7659	49018.64	3.1200	3.1200	-0.1913	8.74	2.75	-0.750			
0.7665	49055.41	3.1170	3.1171	-0.1904	8.75	2.76	-0.750			
0.7671	49091.50	3.1140	3.1140	-0.1879	8.75	2.76	-0.750			
0.7676	49127.68	3.1110	3.1109	-0.1863	8.76	2.77	-0.750			
0.7682	49163.64	3.1080	3.1080	-0.1849	8.77	2.78	-0.750			
0.7687	49198.68	3.1050	3.1050	-0.1835	8.77	2.78	-0.750			
0.7693	49233.94	3.1020	3.1020	-0.1826	8.78	2.79	-0.750			
0.7698	49268.80	3.0990	3.0989	-0.1811	8.79	2.80	-0.750			
0.7704	49303.11	3.0960	3.0960	-0.1795	8.80	2.81	-0.750			
0.7709	49337.47	3.0930	3.0930	-0.1781	8.80	2.81	-0.750			
0.7714	49371.63	3.0900	3.0900	-0.1774	8.81	2.82	-0.750			
0.7720	49405.79	3.0870	3.0870	-0.1762	8.82	2.83	-0.750			
0.7725	49439.44	3.0840	3.0840	-0.1745	8.82	2.83	-0.750			
0.7730	49472.66	3.0810	3.0810	-0.1727	8.83	2.84	-0.750			
0.7735	49505.70	3.0780	3.0781	-0.1716	8.84	2.85	-0.750			
0.7740	49538.59	3.0750	3.0750	-0.1702	8.85	2.86	-0.750			
0.7746	49571.31	3.0720	3.0719	-0.1684	8.86	2.87	-0.750			
0.7751	49603.44	3.0690	3.0690	-0.1663	8.86	2.87	-0.750			
0.7755	49634.96	3.0660	3.0661	-0.1651	8.87	2.88	-0.750			
0.7760	49666.57	3.0630	3.0631	-0.1640	8.88	2.89	-0.750			
0.7765	49697.86	3.0600	3.0600	-0.1624	8.89	2.90	-0.750			
0.7770	49728.93	3.0570	3.0569	-0.1612	8.90	2.91	-0.750			
0.7775	49759.58	3.0540	3.0540	-0.1601	8.90	2.91	-0.750			
0.7780	49790.13	3.0510	3.0510	-0.1600	8.91	2.92	-0.750			
0.7785	49821.09	3.0480	3.0480	-0.1593	8.92	2.93	-0.750			
0.7789	49851.57	3.0450	3.0449	-0.1582	8.93	2.94	-0.750			
0.7794	49881.62	3.0420	3.0419	-0.1575	8.93	2.94	-0.750			
0.7799	49911.94	3.0390	3.0391	-0.1570	8.94	2.95	-0.750			
0.7803	49942.22	3.0360	3.0359	-0.1563	8.95	2.96	-0.750			
0.7808	49972.11	3.0330	3.0330	-0.1550	8.96	2.97	-0.750			
0.7813	50001.65	3.0300	3.0300	-0.1544	8.96	2.97	-0.750			
0.7817	50031.10	3.0270	3.0270	-0.1532	8.97	2.98	-0.750			
0.7822	50060.83	3.0240	3.0240	-0.1526	8.98	2.99	-0.750			
0.7827	50089.97	3.0210	3.0209	-0.1510	8.99	3.00	-0.750			
0.7831	50118.77	3.0180	3.0181	-0.1492	8.99	3.00	-0.750			
0.7836	50147.29	3.0150	3.0150	-0.1482	9.00	3.01	-0.750			
0.7840	50175.66	3.0120	3.0120	-0.1468	9.01	3.02	-0.750			
0.7844	50203.68	3.0090	3.0089	-0.1451	9.01	3.02	-0.750			
0.7849	50231.17	3.0060	3.0060	-0.1446	9.02	3.03	-0.750			
0.7853	50258.90	3.0030	3.0030	-0.1453	9.03	3.04	-0.750			
