Ah_balance (normalized)	Ah_balance (mAh)	Voltage - fit (V)	Voltage -  interpolate (V)	dQ/dV (1/V)	Temperature (°C)	Temperature - diff (°C)	Current (C)	R_DC 0ms (mOhm)	R_DC 50ms (mOhm)	R_DC 50 ms PEC (mOhm)
0.0937	5999.18	4.1980	4.1999	0.8388	8.02	2.03	0.750			
0.0963	6165.56	4.1950	4.1963	0.8582	8.02	2.03	0.750			
0.0990	6333.09	4.1920	4.1924	0.8330	8.02	2.03	0.750			
0.1015	6498.66	4.1890	4.1890	0.8231	8.01	2.02	0.750			
0.1039	6648.15	4.1860	4.1859	0.7683	8.01	2.02	0.750			
0.1059	6774.82	4.1830	4.1831	0.7229	8.00	2.01	0.750			
0.1080	6913.47	4.1800	4.1798	0.7156	8.00	2.01	0.750			
0.1101	7048.49	4.1770	4.1770	0.7252	8.00	2.01	0.750			
0.1123	7184.84	4.1740	4.1741	0.7332	7.99	2.00	0.750			
0.1145	7330.69	4.1710	4.1708	0.7401	7.99	2.00	0.750			
0.1168	7474.28	4.1680	4.1681	0.7439	7.99	2.00	0.750			
0.1190	7619.01	4.1650	4.1650	0.7451	7.98	1.99	0.750			
0.1213	7762.18	4.1620	4.1621	0.7421	7.98	1.99	0.750			
0.1235	7903.64	4.1590	4.1589	0.7352	7.98	1.99	0.750			
0.1257	8044.28	4.1560	4.1560	0.7399	7.97	1.98	0.750			
0.1279	8183.86	4.1530	4.1530	0.7410	7.97	1.98	0.750			
0.1301	8329.21	4.1500	4.1500	0.7497	7.96	1.97	0.750			
0.1324	8474.63	4.1470	4.1470	0.7498	7.96	1.97	0.750			
0.1347	8619.29	4.1440	4.1440	0.7570	7.95	1.96	0.750			
0.1370	8765.55	4.1410	4.1411	0.7612	7.95	1.96	0.750			
0.1393	8912.03	4.1380	4.1379	0.7599	7.94	1.95	0.750			
0.1415	9057.12	4.1350	4.1351	0.7626	7.94	1.95	0.750			
0.1438	9205.03	4.1320	4.1320	0.7600	7.93	1.94	0.750			
0.1461	9350.67	4.1290	4.1290	0.7605	7.93	1.94	0.750			
0.1484	9494.85	4.1260	4.1260	0.7598	7.92	1.93	0.750			
0.1507	9642.62	4.1230	4.1231	0.7668	7.91	1.92	0.750			
0.1530	9789.20	4.1200	4.1200	0.7703	7.91	1.92	0.750			
0.1553	9938.04	4.1170	4.1170	0.7771	7.91	1.92	0.750			
0.1576	10087.27	4.1140	4.1141	0.7762	7.91	1.92	0.750			
0.1600	10238.34	4.1110	4.1110	0.7820	7.90	1.91	0.750			
0.1623	10388.31	4.1080	4.1081	0.7806	7.90	1.91	0.750			
0.1646	10537.53	4.1050	4.1049	0.7839	7.90	1.91	0.750			
0.1670	10687.18	4.1020	4.1021	0.7897	7.90	1.91	0.750			
0.1694	10840.21	4.0990	4.0990	0.7883	7.89	1.90	0.750			
0.1717	10990.04	4.0960	4.0960	0.8009	7.89	1.90	0.750			
0.1742	11145.92	4.0930	4.0929	0.8102	7.89	1.90	0.750			
0.1766	11302.33	4.0900	4.0901	0.8111	7.88	1.89	0.750			
0.1791	11459.68	4.0870	4.0870	0.8106	7.88	1.89	0.750			
0.1815	11618.10	4.0840	4.0841	0.8031	7.87	1.88	0.750			
0.1839	11770.86	4.0810	4.0811	0.8025	7.87	1.88	0.750			
0.1863	11920.97	4.0780	4.0780	0.8098	7.87	1.88	0.750			
0.1887	12075.17	4.0750	4.0750	0.8039	7.86	1.87	0.750			
0.1911	12229.90	4.0720	4.0719	0.8063	7.86	1.87	0.750			
0.1935	12385.04	4.0690	4.0692	0.8138	7.85	1.86	0.750			
0.1960	12543.19	4.0660	4.0663	0.8236	7.85	1.86	0.750			
0.1985	12701.92	4.0630	4.0628	0.8303	7.84	1.85	0.750			
0.2009	12859.43	4.0600	4.0600	0.8265	7.83	1.84	0.750			
0.2034	13019.90	4.0570	4.0570	0.8287	7.83	1.84	0.750			
0.2060	13184.75	4.0540	4.0540	0.8343	7.83	1.84	0.750			
0.2085	13342.40	4.0510	4.0509	0.8338	7.83	1.84	0.750			
0.2109	13499.86	4.0480	4.0481	0.8312	7.82	1.83	0.750			
0.2134	13659.16	4.0450	4.0449	0.8360	7.82	1.83	0.750			
0.2159	13817.39	4.0420	4.0422	0.8493	7.82	1.83	0.750			
0.2185	13983.69	4.0390	4.0390	0.8573	7.81	1.82	0.750			
0.2211	14151.04	4.0360	4.0359	0.8703	7.81	1.82	0.750			
0.2238	14320.09	4.0330	4.0330	0.8683	7.81	1.82	0.750			
0.2264	14486.54	4.0300	4.0302	0.8722	7.80	1.81	0.750			
0.2290	14655.38	4.0270	4.0271	0.8689	7.80	1.81	0.750			
0.2316	14822.33	4.0240	4.0239	0.8596	7.79	1.80	0.750			
0.2341	14984.34	4.0210	4.0211	0.8548	7.78	1.79	0.750			
0.2367	15148.02	4.0180	4.0179	0.8610	7.77	1.78	0.750			
0.2392	15311.26	4.0150	4.0150	0.8675	7.76	1.77	0.750			
0.2419	15479.48	4.0120	4.0118	0.8711	7.76	1.77	0.750			
0.2445	15646.15	4.0090	4.0090	0.8734	7.76	1.77	0.750			
0.2471	15815.89	4.0060	4.0061	0.8887	7.75	1.76	0.750			
0.2498	15987.66	4.0030	4.0030	0.9012	7.75	1.76	0.750			
0.2525	16161.49	4.0000	3.9997	0.9029	7.75	1.76	0.750			
0.2553	16337.19	3.9970	3.9969	0.8942	7.74	1.75	0.750			
0.2579	16508.04	3.9940	3.9941	0.9000	7.74	1.75	0.750			
0.2607	16683.03	3.9910	3.9911	0.9075	7.73	1.74	0.750			
0.2634	16855.50	3.9880	3.9880	0.9062	7.72	1.73	0.750			
0.2660	17026.57	3.9850	3.9849	0.9036	7.72	1.73	0.750			
0.2688	17200.36	3.9820	3.9821	0.9148	7.71	1.72	0.750			
0.2715	17378.15	3.9790	3.9791	0.9272	7.70	1.71	0.750			
0.2744	17560.08	3.9760	3.9759	0.9219	7.70	1.71	0.750			
0.2771	17736.63	3.9730	3.9729	0.9155	7.69	1.70	0.750			
0.2799	17914.61	3.9700	3.9701	0.9139	7.69	1.70	0.750			
0.2826	18087.41	3.9670	3.9670	0.9161	7.69	1.70	0.750			
0.2853	18259.69	3.9640	3.9639	0.9186	7.68	1.69	0.750			
0.2880	18434.22	3.9610	3.9612	0.9346	7.68	1.69	0.750			
0.2908	18613.66	3.9580	3.9578	0.9548	7.68	1.69	0.750			
0.2938	18803.26	3.9550	3.9551	0.9582	7.67	1.68	0.750			
0.2967	18990.19	3.9520	3.9521	0.9632	7.66	1.67	0.750			
0.2996	19176.51	3.9490	3.9491	0.9640	7.66	1.67	0.750			
0.3025	19361.38	3.9460	3.9457	0.9659	7.65	1.66	0.750			
0.3054	19544.50	3.9430	3.9429	0.9577	7.64	1.65	0.750			
0.3082	19725.63	3.9400	3.9401	0.9752	7.64	1.65	0.750			
0.3112	19914.29	3.9370	3.9371	0.9895	7.63	1.64	0.750			
0.3142	20108.30	3.9340	3.9338	0.9991	7.62	1.63	0.750			
0.3172	20302.31	3.9310	3.9312	1.0033	7.62	1.63	0.750			
0.3203	20496.73	3.9280	3.9281	1.0112	7.61	1.62	0.750			
0.3233	20690.61	3.9250	3.9250	1.0203	7.61	1.62	0.750			
0.3263	20885.66	3.9220	3.9220	1.0239	7.60	1.61	0.750			
0.3294	21083.78	3.9190	3.9190	1.0250	7.59	1.60	0.750			
0.3326	21284.53	3.9160	3.9159	1.0408	7.58	1.59	0.750			
0.3357	21481.89	3.9130	3.9132	1.0622	7.57	1.58	0.750			
0.3389	21688.40	3.9100	3.9099	1.0752	7.56	1.57	0.750			
0.3421	21895.14	3.9070	3.9072	1.0801	7.56	1.57	0.750			
0.3454	22102.57	3.9040	3.9040	1.0909	7.55	1.56	0.750			
0.3487	22313.65	3.9010	3.9013	1.1111	7.54	1.55	0.750			
0.3521	22533.56	3.8980	3.8977	1.1201	7.53	1.54	0.750			
0.3554	22747.27	3.8950	3.8950	1.1305	7.53	1.54	0.750			
0.3588	22960.63	3.8920	3.8921	1.1390	7.52	1.53	0.750			
0.3622	23184.00	3.8890	3.8890	1.1575	7.51	1.52	0.750			
0.3657	23406.76	3.8860	3.8860	1.1582	7.51	1.52	0.750			
0.3692	23629.87	3.8830	3.8831	1.1762	7.50	1.51	0.750			
0.3727	23855.27	3.8800	3.8801	1.1928	7.49	1.50	0.750			
0.3764	24090.35	3.8770	3.8769	1.2068	7.47	1.48	0.750			
0.3800	24320.44	3.8740	3.8740	1.2234	7.46	1.47	0.750			
0.3837	24555.49	3.8710	3.8711	1.2411	7.46	1.47	0.750			
0.3875	24797.06	3.8680	3.8681	1.2635	7.45	1.46	0.750			
0.3913	25041.00	3.8650	3.8649	1.2846	7.44	1.45	0.750			
0.3951	25286.93	3.8620	3.8620	1.3049	7.42	1.43	0.750			
0.3991	25541.70	3.8590	3.8590	1.3249	7.41	1.42	0.750			
0.4031	25801.00	3.8560	3.8560	1.3424	7.40	1.41	0.750			
0.4072	26061.65	3.8530	3.8532	1.3482	7.39	1.40	0.750			
0.4113	26322.19	3.8500	3.8501	1.3741	7.37	1.38	0.750	0.429	0.973	
0.4154	26583.92	3.8470	3.8469	1.4141	7.36	1.37	0.750			
0.4196	26854.57	3.8440	3.8439	1.4198	7.35	1.36	0.750			
0.4240	27133.41	3.8410	3.8410	1.4637	7.33	1.34	0.750			
0.4284	27417.40	3.8380	3.8381	1.5166	7.32	1.33	0.750			
0.4331	27715.92	3.8350	3.8350	1.5561	7.30	1.31	0.750			
0.4378	28022.37	3.8320	3.8321	1.5737	7.29	1.30	0.750			
0.4425	28322.65	3.8290	3.8292	1.5901	7.27	1.28	0.750			
0.4473	28626.59	3.8260	3.8260	1.6183	7.25	1.26	0.750			
0.4523	28947.44	3.8230	3.8226	1.6646	7.23	1.24	0.750			
0.4573	29264.97	3.8200	3.8201	1.7059	7.21	1.22	0.750			
0.4624	29592.88	3.8170	3.8168	1.7486	7.20	1.21	0.750			
0.4678	29940.70	3.8140	3.8139	1.7906	7.18	1.19	0.750			
0.4732	30287.97	3.8110	3.8111	1.8281	7.16	1.17	0.750			
0.4788	30644.12	3.8080	3.8079	1.8550	7.14	1.15	0.750			
0.4844	31004.65	3.8050	3.8053	1.9096	7.12	1.13	0.750			
0.4902	31375.88	3.8020	3.8018	1.9602	7.10	1.11	0.750			
0.4963	31761.07	3.7990	3.7987	2.0194	7.07	1.08	0.750			
0.5024	32155.81	3.7960	3.7959	2.0545	7.04	1.05	0.750			
0.5088	32560.18	3.7930	3.7929	2.0803	7.02	1.03	0.750			
0.5149	32955.78	3.7900	3.7898	2.1263	6.99	1.00	0.750			
0.5214	33367.03	3.7870	3.7870	2.1635	6.96	0.97	0.750			
0.5279	33782.76	3.7840	3.7840	2.1855	6.94	0.95	0.750			
0.5346	34213.09	3.7810	3.7811	2.2703	6.91	0.92	0.750			
0.5414	34648.54	3.7780	3.7779	2.3223	6.87	0.88	0.750			
0.5483	35092.05	3.7750	3.7749	2.3774	6.84	0.85	0.750			
0.5557	35565.34	3.7720	3.7718	2.4526	6.81	0.82	0.750			
0.5633	36049.61	3.7690	3.7690	2.4853	6.78	0.79	0.750			
0.5707	36524.54	3.7660	3.7662	2.4927	6.74	0.75	0.750			
0.5782	37006.34	3.7630	3.7630	2.4882	6.71	0.72	0.750			
0.5856	37477.75	3.7600	3.7601	2.5175	6.67	0.68	0.750			
0.5933	37968.18	3.7570	3.7569	2.6277	6.64	0.65	0.750			
0.6012	38474.54	3.7540	3.7540	2.7553	6.61	0.62	0.750			
0.6097	39018.63	3.7510	3.7511	2.7895	6.58	0.59	0.750			
0.6183	39573.36	3.7480	3.7482	2.8249	6.54	0.55	0.750			
0.6266	40099.25	3.7450	3.7449	2.8185	6.50	0.51	0.750			
0.6351	40644.64	3.7420	3.7419	2.9463	6.47	0.48	0.750			
0.6443	41233.02	3.7390	3.7388	3.0904	6.43	0.44	0.750			
0.6538	41841.66	3.7360	3.7360	3.2485	6.40	0.41	0.750			
0.6636	42470.00	3.7330	3.7330	3.3612	6.36	0.37	0.750			
0.6742	43148.12	3.7300	3.7300	3.4367	6.32	0.33	0.750			
0.6846	43815.24	3.7270	3.7270	3.3141	6.28	0.29	0.750			
0.6943	44438.24	3.7240	3.7240	3.1046	6.25	0.26	0.750			
0.7035	45023.52	3.7210	3.7211	2.8371	6.22	0.23	0.750			
0.7113	45522.74	3.7180	3.7180	2.5187	6.20	0.21	0.750			
0.7183	45969.28	3.7150	3.7148	2.2213	6.18	0.19	0.750			
0.7244	46364.57	3.7120	3.7118	1.9839	6.17	0.18	0.750			
0.7301	46729.41	3.7090	3.7090	1.8098	6.15	0.16	0.750			
0.7353	47058.83	3.7060	3.7057	1.6408	6.14	0.15	0.750			
0.7399	47356.26	3.7030	3.7028	1.4826	6.12	0.13	0.750			
0.7440	47615.53	3.7000	3.7000	1.3498	6.11	0.12	0.750			
0.7478	47857.43	3.6970	3.6970	1.2525	6.10	0.11	0.750			
0.7512	48079.97	3.6940	3.6939	1.1692	6.09	0.10	0.750			
0.7547	48298.70	3.6910	3.6910	1.1301	6.08	0.09	0.750			
0.7579	48507.63	3.6880	3.6880	1.0909	6.08	0.09	0.750			
0.7612	48714.19	3.6850	3.6849	1.0589	6.07	0.08	0.750			
0.7643	48913.89	3.6820	3.6821	1.0356	6.06	0.07	0.750			
0.7673	49109.53	3.6790	3.6790	1.0148	6.06	0.07	0.750			
0.7703	49300.79	3.6760	3.6760	1.0057	6.06	0.07	0.750			
0.7733	49489.83	3.6730	3.6729	0.9873	6.05	0.06	0.750			
0.7763	49681.03	3.6700	3.6700	0.9769	6.05	0.06	0.750			
0.7792	49869.33	3.6670	3.6672	0.9607	6.05	0.06	0.750			
0.7821	50056.44	3.6640	3.6640	0.9368	6.04	0.05	0.750			
0.7849	50231.41	3.6610	3.6610	0.9110	6.03	0.04	0.750			
0.7875	50401.10	3.6580	3.6581	0.8850	6.03	0.04	0.750			
0.7901	50566.18	3.6550	3.6546	0.8692	6.02	0.03	0.750			
0.7927	50731.69	3.6520	3.6521	0.8574	6.01	0.02	0.750			
0.7952	50895.47	3.6490	3.6490	0.8387	6.01	0.02	0.750			
0.7977	51055.14	3.6460	3.6461	0.8360	6.00	0.01	0.750			
0.8002	51213.39	3.6430	3.6431	0.8188	6.00	0.01	0.750			
0.8027	51371.36	3.6400	3.6396	0.8070	5.99	0.00	0.750			
0.8051	51526.42	3.6370	3.6371	0.7888	5.99	0.00	0.750			
0.8075	51678.53	3.6340	3.6341	0.7588	5.99	0.00	0.750			
0.8098	51827.27	3.6310	3.6309	0.7252	5.99	0.00	0.750			
0.8119	51964.52	3.6280	3.6280	0.6681	5.99	0.00	0.750			
0.8139	52088.55	3.6250	3.6252	0.6067	5.99	0.00	0.750			
0.8157	52202.67	3.6220	3.6220	0.5424	5.99	0.00	0.750			
0.8172	52299.60	3.6190	3.6190	0.4706	5.99	0.00	0.750			
0.8185	52382.52	3.6160	3.6160	0.3970	5.99	0.00	0.750			
0.8195	52448.23	3.6130	3.6131	0.3343	5.99	0.00	0.750			
0.8204	52504.89	3.6100	3.6100	0.2681	5.99	0.00	0.750			
0.8211	52549.11	3.6070	3.6069	0.2072	5.99	0.00	0.750			
0.8216	52581.61	3.6040	3.6038	0.1495	5.99	0.00	0.750			
0.8219	52603.97	3.6010	3.5999	0.0961	5.99	0.00	0.750			
0.8221	52615.07	3.5920	3.5822	-0.0559	5.99	0.00	0.750			
0.8221	52617.12	3.5980	3.5688	0.0452	5.99	0.00	0.752			
0.8222	52620.95	3.5950	3.5438	-0.0053	5.99	0.00	0.755			
