Ah_balance (normalized)	Ah_balance (mAh)	Voltage - fit (V)	Voltage -  interpolate (V)	dQ/dV (1/V)	Temperature (°C)	Temperature - diff (°C)	Current (C)	R_DC 0ms (mOhm)	R_DC 50ms (mOhm)	R_DC 50 ms PEC (mOhm)
0.0981	6281.15	4.1980	4.1994	0.5810	8.67	2.43	0.750			
0.0996	6372.42	4.1950	4.1973	0.5380	8.67	2.43	0.750			
0.1015	6496.02	4.1920	4.1947	0.6833	8.67	2.43	0.750			
0.1039	6650.63	4.1890	4.1909	0.7530	8.66	2.42	0.750			
0.1063	6803.21	4.1860	4.1878	0.7819	8.65	2.41	0.750			
0.1089	6967.04	4.1830	4.1840	0.7805	8.65	2.41	0.750			
0.1116	7139.97	4.1800	4.1802	0.7973	8.64	2.40	0.750			
0.1138	7282.85	4.1770	4.1769	0.7044	8.63	2.39	0.750			
0.1159	7419.48	4.1740	4.1740	0.7038	8.62	2.38	0.750			
0.1180	7553.28	4.1710	4.1711	0.6993	8.62	2.38	0.750			
0.1201	7686.35	4.1680	4.1679	0.7019	8.61	2.37	0.750			
0.1222	7819.89	4.1650	4.1651	0.7054	8.60	2.36	0.750			
0.1243	7956.35	4.1620	4.1619	0.7089	8.60	2.36	0.750			
0.1264	8092.68	4.1590	4.1589	0.7163	8.59	2.35	0.750			
0.1286	8230.71	4.1560	4.1561	0.7206	8.58	2.34	0.750			
0.1308	8371.33	4.1530	4.1531	0.7291	8.58	2.34	0.750			
0.1330	8512.71	4.1500	4.1498	0.7298	8.57	2.33	0.750			
0.1352	8652.45	4.1470	4.1470	0.7279	8.56	2.32	0.750			
0.1374	8792.30	4.1440	4.1441	0.7264	8.56	2.32	0.750			
0.1396	8931.68	4.1410	4.1410	0.7294	8.55	2.31	0.750			
0.1417	9069.59	4.1380	4.1380	0.7352	8.55	2.31	0.750			
0.1439	9210.80	4.1350	4.1352	0.7445	8.54	2.30	0.750			
0.1462	9354.86	4.1320	4.1319	0.7497	8.54	2.30	0.750			
0.1485	9501.36	4.1290	4.1289	0.7530	8.53	2.29	0.750			
0.1507	9647.05	4.1260	4.1262	0.7555	8.52	2.28	0.750			
0.1530	9792.22	4.1230	4.1231	0.7568	8.52	2.28	0.750			
0.1553	9937.13	4.1200	4.1200	0.7556	8.51	2.27	0.750			
0.1575	10080.73	4.1170	4.1165	0.7576	8.50	2.26	0.750			
0.1598	10225.98	4.1140	4.1142	0.7590	8.50	2.26	0.750			
0.1621	10374.13	4.1110	4.1110	0.7624	8.49	2.25	0.750			
0.1644	10523.49	4.1080	4.1080	0.7707	8.48	2.24	0.750			
0.1667	10670.65	4.1050	4.1051	0.7711	8.48	2.24	0.750			
0.1690	10817.89	4.1020	4.1019	0.7676	8.47	2.23	0.750			
0.1713	10964.63	4.0990	4.0990	0.7716	8.47	2.23	0.750			
0.1736	11111.51	4.0960	4.0962	0.7713	8.46	2.22	0.750			
0.1759	11259.11	4.0930	4.0930	0.7788	8.45	2.21	0.750			
0.1783	11409.36	4.0900	4.0900	0.7878	8.44	2.20	0.750			
0.1806	11559.53	4.0870	4.0870	0.7921	8.44	2.20	0.750			
0.1830	11713.76	4.0840	4.0837	0.7991	8.43	2.19	0.750			
0.1855	11870.13	4.0810	4.0811	0.8081	8.42	2.18	0.750			
0.1879	12026.82	4.0780	4.0780	0.7980	8.42	2.18	0.750			
0.1903	12180.88	4.0750	4.0751	0.7997	8.41	2.17	0.750			
0.1926	12329.17	4.0720	4.0721	0.7950	8.41	2.17	0.750			
0.1950	12482.72	4.0690	4.0689	0.8065	8.40	2.16	0.750			
0.1974	12636.22	4.0660	4.0659	0.8125	8.39	2.15	0.750			
0.1999	12793.89	4.0630	4.0630	0.8186	8.39	2.15	0.750			
0.2024	12954.82	4.0600	4.0600	0.8257	8.38	2.14	0.750			
0.2049	13116.59	4.0570	4.0570	0.8266	8.37	2.13	0.750			
0.2074	13273.19	4.0540	4.0540	0.8273	8.36	2.12	0.750			
0.2098	13428.53	4.0510	4.0510	0.8305	8.35	2.11	0.750			
0.2123	13589.11	4.0480	4.0480	0.8365	8.34	2.10	0.750			
0.2148	13749.22	4.0450	4.0450	0.8461	8.33	2.09	0.750			
0.2174	13916.02	4.0420	4.0420	0.8509	8.32	2.08	0.750			
0.2200	14080.71	4.0390	4.0388	0.8495	8.31	2.07	0.750			
0.2226	14245.27	4.0360	4.0361	0.8479	8.30	2.06	0.750			
0.2251	14405.29	4.0330	4.0331	0.8418	8.29	2.05	0.750			
0.2276	14564.21	4.0300	4.0300	0.8386	8.28	2.04	0.750			
0.2300	14721.61	4.0270	4.0271	0.8472	8.27	2.03	0.750			
0.2326	14885.85	4.0240	4.0238	0.8641	8.26	2.02	0.750			
0.2353	15057.27	4.0210	4.0209	0.8730	8.25	2.01	0.750			
0.2379	15225.05	4.0180	4.0180	0.8799	8.25	2.01	0.750			
0.2406	15396.99	4.0150	4.0152	0.8850	8.24	2.00	0.750			
0.2432	15566.96	4.0120	4.0119	0.8871	8.23	1.99	0.750			
0.2459	15736.29	4.0090	4.0090	0.8859	8.23	1.99	0.750			
0.2485	15906.03	4.0060	4.0059	0.8803	8.22	1.98	0.750			
0.2512	16075.20	4.0030	4.0031	0.8879	8.21	1.97	0.750			
0.2539	16246.50	4.0000	4.0001	0.8935	8.20	1.96	0.750			
0.2565	16416.88	3.9970	3.9969	0.8923	8.19	1.95	0.750			
0.2592	16589.59	3.9940	3.9941	0.8979	8.19	1.95	0.750			
0.2619	16760.80	3.9910	3.9910	0.8918	8.18	1.94	0.750			
0.2645	16929.93	3.9880	3.9881	0.9034	8.17	1.93	0.750			
0.2673	17104.83	3.9850	3.9851	0.9145	8.16	1.92	0.750			
0.2700	17279.49	3.9820	3.9816	0.9204	8.15	1.91	0.750			
0.2728	17457.22	3.9790	3.9790	0.9329	8.14	1.90	0.750			
0.2756	17640.65	3.9760	3.9761	0.9429	8.13	1.89	0.750			
0.2785	17825.82	3.9730	3.9729	0.9480	8.12	1.88	0.750			
0.2814	18006.79	3.9700	3.9700	0.9395	8.11	1.87	0.750			
0.2842	18187.20	3.9670	3.9673	0.9439	8.09	1.85	0.750			
0.2870	18365.72	3.9640	3.9638	0.9525	8.08	1.84	0.750			
0.2898	18549.39	3.9610	3.9610	0.9581	8.07	1.83	0.750			
0.2927	18733.78	3.9580	3.9580	0.9635	8.06	1.82	0.750			
0.2957	18922.66	3.9550	3.9549	0.9819	8.05	1.81	0.750			
0.2986	19111.86	3.9520	3.9521	0.9801	8.04	1.80	0.750			
0.3016	19299.71	3.9490	3.9490	0.9809	8.02	1.78	0.750			
0.3045	19485.04	3.9460	3.9460	0.9908	8.01	1.77	0.750			
0.3074	19673.98	3.9430	3.9429	0.9982	8.00	1.76	0.750			
0.3104	19868.76	3.9400	3.9399	1.0070	7.99	1.75	0.750			
0.3135	20061.67	3.9370	3.9370	1.0167	7.98	1.74	0.750			
0.3166	20260.18	3.9340	3.9342	1.0234	7.96	1.72	0.750			
0.3197	20458.47	3.9310	3.9309	1.0353	7.95	1.71	0.750			
0.3227	20655.38	3.9280	3.9280	1.0418	7.94	1.70	0.750			
0.3258	20854.12	3.9250	3.9250	1.0532	7.93	1.69	0.750			
0.3290	21058.55	3.9220	3.9219	1.0656	7.92	1.68	0.750			
0.3323	21265.90	3.9190	3.9189	1.0790	7.91	1.67	0.750			
0.3355	21471.85	3.9160	3.9161	1.0821	7.90	1.66	0.750			
0.3388	21681.71	3.9130	3.9130	1.0932	7.89	1.65	0.750			
0.3420	21890.03	3.9100	3.9101	1.1022	7.87	1.63	0.750			
0.3454	22103.73	3.9070	3.9066	1.1133	7.86	1.62	0.750			
0.3487	22318.01	3.9040	3.9042	1.1273	7.85	1.61	0.750			
0.3522	22537.95	3.9010	3.9010	1.1404	7.83	1.59	0.750			
0.3556	22758.65	3.8980	3.8981	1.1565	7.82	1.58	0.750			
0.3591	22981.18	3.8950	3.8952	1.1534	7.80	1.56	0.750			
0.3626	23203.53	3.8920	3.8919	1.1645	7.79	1.55	0.750			
0.3661	23428.70	3.8890	3.8890	1.1618	7.77	1.53	0.750			
0.3695	23649.30	3.8860	3.8859	1.1854	7.75	1.51	0.750			
0.3730	23874.34	3.8830	3.8831	1.2132	7.74	1.50	0.750			
0.3767	24109.02	3.8800	3.8800	1.2402	7.73	1.49	0.750	0.400	0.790	
0.3806	24356.19	3.8770	3.8770	1.2508	7.72	1.48	0.750			
0.3843	24596.59	3.8740	3.8741	1.2761	7.70	1.46	0.750			
0.3883	24848.96	3.8710	3.8712	1.2958	7.68	1.44	0.750			
0.3922	25100.02	3.8680	3.8680	1.3129	7.66	1.42	0.750			
0.3960	25345.16	3.8650	3.8648	1.3195	7.65	1.41	0.750			
0.4000	25599.03	3.8620	3.8623	1.3424	7.63	1.39	0.750			
0.4041	25864.80	3.8590	3.8589	1.3610	7.61	1.37	0.750			
0.4083	26129.93	3.8560	3.8559	1.3781	7.59	1.35	0.750			
0.4124	26393.24	3.8530	3.8532	1.3821	7.57	1.33	0.750			
0.4166	26664.65	3.8500	3.8501	1.4009	7.55	1.31	0.750			
0.4208	26930.55	3.8470	3.8468	1.4171	7.54	1.30	0.750			
0.4250	27200.26	3.8440	3.8440	1.4332	7.52	1.28	0.750			
0.4294	27479.35	3.8410	3.8410	1.4590	7.50	1.26	0.750			
0.4338	27764.36	3.8380	3.8381	1.4833	7.48	1.24	0.750			
0.4383	28051.47	3.8350	3.8350	1.5041	7.45	1.21	0.750			
0.4429	28344.73	3.8320	3.8323	1.5123	7.43	1.19	0.750			
0.4475	28637.02	3.8290	3.8290	1.5255	7.41	1.17	0.750			
0.4520	28927.86	3.8260	3.8259	1.5343	7.39	1.15	0.750			
0.4566	29224.86	3.8230	3.8231	1.5527	7.37	1.13	0.750			
0.4614	29527.38	3.8200	3.8201	1.5809	7.34	1.10	0.750			
0.4661	29831.37	3.8170	3.8170	1.5903	7.32	1.08	0.750			
0.4709	30138.87	3.8140	3.8141	1.5973	7.30	1.06	0.750			
0.4758	30448.57	3.8110	3.8111	1.6238	7.27	1.03	0.750			
0.4806	30757.29	3.8080	3.8079	1.6388	7.25	1.01	0.750			
0.4855	31072.49	3.8050	3.8051	1.6533	7.23	0.99	0.750			
0.4906	31395.48	3.8020	3.8019	1.6699	7.20	0.96	0.750			
0.4955	31714.06	3.7990	3.7990	1.6931	7.18	0.94	0.750			
0.5007	32043.55	3.7960	3.7960	1.7314	7.15	0.91	0.750			
0.5060	32381.03	3.7930	3.7929	1.7461	7.13	0.89	0.750			
0.5112	32716.09	3.7900	3.7902	1.7728	7.10	0.86	0.750			
0.5165	33056.74	3.7870	3.7872	1.8242	7.08	0.84	0.750			
0.5221	33416.15	3.7840	3.7839	1.8511	7.05	0.81	0.750			
0.5277	33770.24	3.7810	3.7810	1.8955	7.02	0.78	0.750			
0.5334	34138.41	3.7780	3.7780	1.9667	7.00	0.76	0.750			
0.5394	34523.00	3.7750	3.7747	2.0549	6.97	0.73	0.750			
0.5457	34922.31	3.7720	3.7720	2.1092	6.94	0.70	0.750			
0.5521	35332.87	3.7690	3.7688	2.1928	6.91	0.67	0.750			
0.5589	35768.58	3.7660	3.7662	2.2801	6.88	0.64	0.750			
0.5657	36202.33	3.7630	3.7630	2.3841	6.85	0.61	0.750			
0.5730	36670.84	3.7600	3.7599	2.5456	6.82	0.58	0.750			
0.5809	37176.39	3.7570	3.7570	2.7066	6.78	0.54	0.750			
0.5893	37712.46	3.7540	3.7541	2.7856	6.74	0.50	0.750			
0.5978	38256.51	3.7510	3.7510	2.8866	6.71	0.47	0.750			
0.6065	38813.45	3.7480	3.7480	2.9409	6.68	0.44	0.750			
0.6155	39394.29	3.7450	3.7451	3.0198	6.64	0.40	0.750			
0.6247	39979.65	3.7420	3.7421	2.9675	6.60	0.36	0.750			
0.6337	40553.97	3.7390	3.7391	2.8002	6.57	0.33	0.750			
0.6419	41084.51	3.7360	3.7359	2.5345	6.53	0.29	0.750			
0.6489	41530.41	3.7330	3.7334	2.2295	6.51	0.27	0.750			
0.6551	41924.79	3.7300	3.7301	1.9451	6.49	0.25	0.750			
0.6601	42246.56	3.7270	3.7270	1.6990	6.47	0.23	0.750			
0.6648	42546.85	3.7240	3.7240	1.5324	6.46	0.22	0.750			
0.6691	42820.52	3.7210	3.7209	1.4120	6.44	0.20	0.750			
0.6730	43073.53	3.7180	3.7180	1.3263	6.43	0.19	0.750			
0.6768	43315.38	3.7150	3.7150	1.2570	6.42	0.18	0.750			
0.6804	43546.14	3.7120	3.7120	1.2003	6.42	0.18	0.750			
0.6839	43769.92	3.7090	3.7089	1.1535	6.41	0.17	0.750			
0.6873	43988.03	3.7060	3.7062	1.1215	6.39	0.15	0.750			
0.6906	44199.10	3.7030	3.7030	1.0931	6.38	0.14	0.750			
0.6938	44404.81	3.7000	3.6999	1.0729	6.37	0.13	0.750			
0.6970	44606.69	3.6970	3.6970	1.0441	6.36	0.12	0.750			
0.7001	44804.38	3.6940	3.6940	1.0234	6.35	0.11	0.750			
0.7031	45000.84	3.6910	3.6911	1.0092	6.34	0.10	0.750			
0.7061	45193.20	3.6880	3.6881	0.9920	6.33	0.09	0.750			
0.7091	45380.93	3.6850	3.6850	0.9746	6.33	0.09	0.750			
0.7119	45564.51	3.6820	3.6820	0.9549	6.32	0.08	0.750			
0.7148	45745.07	3.6790	3.6790	0.9487	6.31	0.07	0.750			
0.7176	45927.58	3.6760	3.6760	0.9427	6.30	0.06	0.750			
0.7204	46107.98	3.6730	3.6729	0.9339	6.29	0.05	0.750			
0.7232	46287.31	3.6700	3.6700	0.9216	6.28	0.04	0.750			
0.7260	46461.11	3.6670	3.6671	0.9246	6.28	0.04	0.750			
0.7287	46638.28	3.6640	3.6640	0.9237	6.27	0.03	0.750			
0.7315	46815.08	3.6610	3.6609	0.9223	6.26	0.02	0.750			
0.7342	46990.73	3.6580	3.6581	0.9251	6.26	0.02	0.750			
0.7371	47172.38	3.6550	3.6551	0.9194	6.25	0.01	0.750			
0.7399	47352.85	3.6520	3.6519	0.8978	6.25	0.01	0.750			
0.7427	47530.85	3.6490	3.6490	0.8655	6.24	0.00	0.750			
0.7453	47696.30	3.6460	3.6458	0.7876	6.24	0.00	0.750			
0.7477	47849.97	3.6430	3.6431	0.7143	6.24	-0.00	0.750			
0.7497	47979.89	3.6400	3.6401	0.6127	6.23	-0.01	0.750			
0.7514	48087.00	3.6370	3.6371	0.5080	6.23	-0.01	0.750			
0.7524	48155.63	3.6340	3.6346	0.4171	6.23	-0.01	0.750			
0.7536	48228.47	3.6310	3.6312	0.3438	6.23	-0.01	0.750			
0.7544	48283.23	3.6280	3.6281	0.2650	6.23	-0.01	0.750			
0.7551	48326.31	3.6250	3.6242	0.2114	6.22	-0.02	0.750			
0.7555	48354.51	3.6220	3.6193	0.1550	6.22	-0.02	0.750			
0.7558	48368.14	3.5980	3.5957	-0.0983	6.22	-0.02	0.750			
0.7559	48375.65	3.6190	3.4980	0.1125	6.22	-0.02	0.742			
0.7560	48383.53	3.6160	3.3879	0.0716	6.22	-0.02	0.731			
0.7560	48384.30	3.6010	3.3771	-0.0700	6.22	-0.02	0.730			
0.7562	48394.55	3.6130	3.2337	0.0433	6.22	-0.02	0.715			
0.7562	48395.01	3.6040	3.2273	-0.0417	6.22	-0.02	0.715			
0.7563	48400.14	3.6100	3.1556	0.0150	6.22	-0.02	0.708			
0.7563	48400.29	3.6070	3.1534	-0.0134	6.22	-0.02	0.707			
