Ah_balance (normalized)	Ah_balance (mAh)	Voltage - fit (V)	Voltage -  interpolate (V)	dQ/dV (1/V)	Temperature (°C)	Temperature - diff (°C)	Current (C)	R_DC 0ms (mOhm)	R_DC 50ms (mOhm)	R_DC 50 ms PEC (mOhm)
0.0002	13.68	4.1070	4.1057	-0.0501	5.99	0.00	-0.750			
0.0004	26.07	4.1040	4.1033	-0.0790	5.99	0.00	-0.750			
0.0007	44.77	4.1010	4.1007	-0.1073	5.99	0.00	-0.750			
0.0011	68.09	4.0980	4.0980	-0.1337	5.99	0.00	-0.750			
0.0015	96.68	4.0950	4.0950	-0.1588	5.99	0.00	-0.750			
0.0020	129.79	4.0920	4.0920	-0.1832	5.99	0.00	-0.750			
0.0026	167.37	4.0890	4.0890	-0.2079	5.99	0.00	-0.750			
0.0033	210.55	4.0860	4.0861	-0.2325	5.99	0.00	-0.750			
0.0040	257.83	4.0830	4.0830	-0.2545	5.99	0.00	-0.750			
0.0048	309.08	4.0800	4.0799	-0.2746	5.99	0.00	-0.750			
0.0057	363.78	4.0770	4.0771	-0.2974	5.99	0.00	-0.750			
0.0066	422.18	4.0740	4.0740	-0.3225	5.99	0.00	-0.750			
0.0076	486.25	4.0710	4.0709	-0.3469	5.99	0.00	-0.750			
0.0087	555.02	4.0680	4.0679	-0.3706	5.99	0.00	-0.750			
0.0098	628.90	4.0650	4.0651	-0.3953	5.99	0.00	-0.750			
0.0111	708.87	4.0620	4.0620	-0.4195	5.99	0.00	-0.750			
0.0124	791.93	4.0590	4.0590	-0.4402	5.99	0.00	-0.750			
0.0137	878.14	4.0560	4.0560	-0.4581	5.99	0.00	-0.750			
0.0151	967.05	4.0530	4.0530	-0.4804	5.99	0.00	-0.750			
0.0166	1060.86	4.0500	4.0501	-0.5037	5.99	0.00	-0.750			
0.0181	1160.39	4.0470	4.0469	-0.5229	5.99	0.00	-0.750			
0.0197	1263.60	4.0440	4.0440	-0.5436	5.99	0.00	-0.750			
0.0214	1371.26	4.0410	4.0411	-0.5619	6.00	0.01	-0.750			
0.0231	1481.60	4.0380	4.0380	-0.5719	6.00	0.01	-0.750			
0.0249	1594.03	4.0350	4.0349	-0.5811	6.00	0.01	-0.750			
0.0266	1705.09	4.0320	4.0321	-0.5957	6.00	0.01	-0.750			
0.0284	1819.25	4.0290	4.0289	-0.6095	6.01	0.02	-0.750			
0.0303	1938.20	4.0260	4.0259	-0.6244	6.01	0.02	-0.750			
0.0322	2058.82	4.0230	4.0231	-0.6416	6.01	0.02	-0.750			
0.0341	2185.53	4.0200	4.0200	-0.6606	6.02	0.03	-0.750			
0.0362	2314.89	4.0170	4.0170	-0.6733	6.02	0.03	-0.750			
0.0382	2446.26	4.0140	4.0141	-0.6841	6.03	0.04	-0.750			
0.0403	2578.02	4.0110	4.0109	-0.6863	6.03	0.04	-0.750			
0.0424	2710.77	4.0080	4.0081	-0.6955	6.04	0.05	-0.750			
0.0445	2845.55	4.0050	4.0050	-0.6992	6.04	0.05	-0.750			
0.0465	2979.10	4.0020	4.0019	-0.7000	6.05	0.06	-0.750			
0.0487	3114.98	3.9990	3.9990	-0.7056	6.05	0.06	-0.750			
0.0508	3250.69	3.9960	3.9959	-0.7084	6.06	0.07	-0.750			
0.0529	3388.70	3.9930	3.9929	-0.7089	6.07	0.08	-0.750			
0.0551	3524.93	3.9900	3.9900	-0.7106	6.07	0.08	-0.750			
0.0572	3658.59	3.9870	3.9871	-0.7161	6.08	0.09	-0.750			
0.0593	3798.39	3.9840	3.9840	-0.7234	6.09	0.10	-0.750			
0.0615	3938.07	3.9810	3.9808	-0.7274	6.09	0.10	-0.750			
0.0637	4077.94	3.9780	3.9781	-0.7328	6.10	0.11	-0.750			
0.0659	4217.93	3.9750	3.9752	-0.7452	6.11	0.12	-0.750			
0.0682	4361.98	3.9720	3.9719	-0.7568	6.11	0.12	-0.750			
0.0705	4509.00	3.9690	3.9689	-0.7519	6.12	0.13	-0.750			
0.0727	4653.69	3.9660	3.9659	-0.7554	6.12	0.13	-0.750			
0.0750	4801.42	3.9630	3.9632	-0.7535	6.13	0.14	-0.750			
0.0773	4948.04	3.9600	3.9597	-0.7505	6.14	0.15	-0.750			
0.0795	5088.45	3.9570	3.9570	-0.7517	6.15	0.16	-0.750			
0.0817	5231.61	3.9540	3.9540	-0.7564	6.16	0.17	-0.750			
0.0840	5376.60	3.9510	3.9508	-0.7601	6.17	0.18	-0.750			
0.0863	5525.01	3.9480	3.9480	-0.7688	6.18	0.19	-0.750			
0.0886	5672.65	3.9450	3.9452	-0.7728	6.19	0.20	-0.750			
0.0910	5822.74	3.9420	3.9420	-0.7776	6.20	0.21	-0.750			
0.0933	5973.83	3.9390	3.9388	-0.7731	6.20	0.21	-0.750			
0.0956	6119.83	3.9360	3.9361	-0.7713	6.21	0.22	-0.750			
0.0979	6268.64	3.9330	3.9330	-0.7756	6.22	0.23	-0.750			
0.1003	6416.76	3.9300	3.9299	-0.7729	6.23	0.24	-0.750			
0.1026	6565.21	3.9270	3.9270	-0.7696	6.23	0.24	-0.750			
0.1048	6710.31	3.9240	3.9241	-0.7783	6.24	0.25	-0.750			
0.1072	6862.33	3.9210	3.9210	-0.7808	6.25	0.26	-0.750			
0.1096	7013.77	3.9180	3.9179	-0.7846	6.26	0.27	-0.750			
0.1119	7163.87	3.9150	3.9150	-0.7846	6.26	0.27	-0.750			
0.1143	7315.06	3.9120	3.9121	-0.7870	6.27	0.28	-0.750			
0.1167	7466.87	3.9090	3.9090	-0.7902	6.28	0.29	-0.750			
0.1191	7619.56	3.9060	3.9060	-0.7887	6.29	0.30	-0.750			
0.1214	7768.37	3.9030	3.9029	-0.7840	6.29	0.30	-0.750			
0.1238	7920.84	3.9000	3.9000	-0.7925	6.30	0.31	-0.750			
0.1261	8070.26	3.8970	3.8971	-0.7952	6.31	0.32	-0.750			
0.1285	8222.87	3.8940	3.8938	-0.8007	6.32	0.33	-0.750			
0.1309	8379.41	3.8910	3.8910	-0.8094	6.33	0.34	-0.750			
0.1334	8536.52	3.8880	3.8880	-0.8073	6.33	0.34	-0.750			
0.1359	8694.87	3.8850	3.8850	-0.8117	6.34	0.35	-0.750			
0.1383	8849.33	3.8820	3.8822	-0.8056	6.35	0.36	-0.750			
0.1406	9000.72	3.8790	3.8789	-0.8007	6.36	0.37	-0.750			
0.1430	9153.22	3.8760	3.8759	-0.7994	6.37	0.38	-0.750			
0.1454	9305.70	3.8730	3.8730	-0.8027	6.38	0.39	-0.750			
0.1478	9460.12	3.8700	3.8700	-0.8094	6.39	0.40	-0.750			
0.1503	9619.34	3.8670	3.8670	-0.8158	6.41	0.42	-0.750			
0.1527	9775.38	3.8640	3.8641	-0.8151	6.41	0.42	-0.750			
0.1552	9930.63	3.8610	3.8610	-0.8192	6.42	0.43	-0.750			
0.1577	10089.83	3.8580	3.8578	-0.8140	6.43	0.44	-0.750			
0.1601	10245.99	3.8550	3.8550	-0.8117	6.44	0.45	-0.750			
0.1625	10400.14	3.8520	3.8520	-0.8136	6.45	0.46	-0.750			
0.1649	10555.96	3.8490	3.8487	-0.8205	6.45	0.46	-0.750			
0.1674	10713.83	3.8460	3.8460	-0.8270	6.46	0.47	-0.750			
0.1699	10872.71	3.8430	3.8430	-0.8265	6.47	0.48	-0.750			
0.1724	11032.16	3.8400	3.8401	-0.8287	6.48	0.49	-0.750			
0.1749	11195.64	3.8370	3.8369	-0.8354	6.49	0.50	-0.750			
0.1774	11356.54	3.8340	3.8339	-0.8252	6.49	0.50	-0.750			
0.1799	11511.57	3.8310	3.8310	-0.8315	6.50	0.51	-0.750			
0.1823	11669.51	3.8280	3.8282	-0.8302	6.51	0.52	-0.750			
0.1848	11827.94	3.8250	3.8248	-0.8377	6.52	0.53	-0.750			
0.1874	11992.45	3.8220	3.8219	-0.8414	6.53	0.54	-0.750			
0.1899	12154.66	3.8190	3.8190	-0.8422	6.53	0.54	-0.750			
0.1924	12315.96	3.8160	3.8161	-0.8452	6.54	0.55	-0.750			
0.1950	12481.63	3.8130	3.8130	-0.8456	6.56	0.57	-0.750			
0.1975	12639.58	3.8100	3.8099	-0.8351	6.57	0.58	-0.750			
0.2000	12801.74	3.8070	3.8068	-0.8392	6.58	0.59	-0.750			
0.2025	12960.71	3.8040	3.8040	-0.8374	6.58	0.59	-0.750			
0.2050	13122.58	3.8010	3.8010	-0.8483	6.59	0.60	-0.750			
0.2076	13285.91	3.7980	3.7978	-0.8509	6.60	0.61	-0.750			
0.2101	13449.33	3.7950	3.7950	-0.8473	6.61	0.62	-0.750			
0.2127	13614.79	3.7920	3.7920	-0.8586	6.62	0.63	-0.750			
0.2153	13780.37	3.7890	3.7890	-0.8641	6.63	0.64	-0.750			
0.2179	13946.76	3.7860	3.7859	-0.8658	6.63	0.64	-0.750			
0.2205	14111.79	3.7830	3.7829	-0.8637	6.64	0.65	-0.750			
0.2231	14278.52	3.7800	3.7801	-0.8558	6.65	0.66	-0.750			
0.2257	14445.67	3.7770	3.7769	-0.8565	6.66	0.67	-0.750			
0.2283	14608.84	3.7740	3.7740	-0.8484	6.67	0.68	-0.750			
0.2307	14766.77	3.7710	3.7710	-0.8439	6.68	0.69	-0.750			
0.2332	14926.77	3.7680	3.7680	-0.8520	6.69	0.70	-0.750			
0.2358	15090.41	3.7650	3.7649	-0.8595	6.70	0.71	-0.750			
0.2384	15258.11	3.7620	3.7620	-0.8686	6.71	0.72	-0.750			
0.2411	15427.92	3.7590	3.7590	-0.8746	6.72	0.73	-0.750			
0.2437	15598.44	3.7560	3.7560	-0.8781	6.72	0.73	-0.750			
0.2464	15767.59	3.7530	3.7530	-0.8741	6.73	0.74	-0.750			
0.2489	15932.75	3.7500	3.7501	-0.8670	6.73	0.74	-0.750			
0.2515	16095.87	3.7470	3.7471	-0.8718	6.74	0.75	-0.750			
0.2541	16262.98	3.7440	3.7440	-0.8842	6.75	0.76	-0.750			
0.2568	16435.27	3.7410	3.7409	-0.8865	6.76	0.77	-0.750			
0.2595	16605.77	3.7380	3.7379	-0.8902	6.77	0.78	-0.750			
0.2622	16780.52	3.7350	3.7351	-0.8932	6.78	0.79	-0.750			
0.2649	16952.83	3.7320	3.7320	-0.8930	6.78	0.79	-0.750			
0.2676	17123.44	3.7290	3.7289	-0.8951	6.79	0.80	-0.750			
0.2702	17293.90	3.7260	3.7260	-0.8934	6.80	0.81	-0.750			
0.2729	17462.92	3.7230	3.7229	-0.9014	6.81	0.82	-0.750			
0.2756	17639.03	3.7200	3.7201	-0.9110	6.82	0.83	-0.750			
0.2783	17813.45	3.7170	3.7169	-0.9180	6.83	0.84	-0.750			
0.2811	17992.96	3.7140	3.7141	-0.9195	6.84	0.85	-0.750			
0.2839	18170.38	3.7110	3.7110	-0.9213	6.84	0.85	-0.750			
0.2867	18347.95	3.7080	3.7079	-0.9141	6.85	0.86	-0.750			
0.2894	18523.79	3.7050	3.7052	-0.9190	6.86	0.87	-0.750			
0.2922	18697.98	3.7020	3.7019	-0.9208	6.87	0.88	-0.750			
0.2949	18874.83	3.6990	3.6989	-0.9281	6.87	0.88	-0.750			
0.2977	19051.70	3.6960	3.6961	-0.9282	6.88	0.89	-0.750			
0.3005	19232.86	3.6930	3.6930	-0.9443	6.89	0.90	-0.750			
0.3034	19414.70	3.6900	3.6900	-0.9566	6.90	0.91	-0.750			
0.3063	19601.95	3.6870	3.6870	-0.9640	6.90	0.91	-0.750			
0.3092	19786.51	3.6840	3.6839	-0.9630	6.91	0.92	-0.750			
0.3121	19972.15	3.6810	3.6810	-0.9715	6.92	0.93	-0.750			
0.3150	20160.57	3.6780	3.6780	-0.9735	6.92	0.93	-0.750			
0.3179	20348.38	3.6750	3.6749	-0.9765	6.93	0.94	-0.750			
0.3208	20533.98	3.6720	3.6721	-0.9809	6.94	0.95	-0.750			
0.3238	20721.36	3.6690	3.6690	-0.9870	6.94	0.95	-0.750			
0.3268	20912.51	3.6660	3.6660	-1.0048	6.95	0.96	-0.750			
0.3298	21105.84	3.6630	3.6631	-1.0137	6.96	0.97	-0.750			
0.3328	21300.67	3.6600	3.6600	-1.0219	6.97	0.98	-0.750			
0.3360	21500.90	3.6570	3.6569	-1.0341	6.97	0.98	-0.750			
0.3391	21700.27	3.6540	3.6543	-1.0389	6.98	0.99	-0.750			
0.3422	21899.86	3.6510	3.6510	-1.0384	6.99	1.00	-0.750			
0.3453	22098.50	3.6480	3.6481	-1.0491	6.99	1.00	-0.750			
0.3484	22298.66	3.6450	3.6449	-1.0650	7.00	1.01	-0.750			
0.3516	22500.95	3.6420	3.6423	-1.0875	7.00	1.01	-0.750			
0.3549	22714.12	3.6390	3.6389	-1.1019	7.01	1.02	-0.750			
0.3583	22930.07	3.6360	3.6360	-1.1187	7.02	1.03	-0.750			
0.3617	23149.95	3.6330	3.6329	-1.1181	7.03	1.04	-0.750			
0.3651	23366.73	3.6300	3.6301	-1.1257	7.03	1.04	-0.750			
0.3684	23580.04	3.6270	3.6270	-1.1224	7.04	1.05	-0.750			
0.3717	23788.87	3.6240	3.6240	-1.1296	7.04	1.05	-0.750			
0.3751	24003.85	3.6210	3.6209	-1.1385	7.05	1.06	-0.750			
0.3786	24229.97	3.6180	3.6179	-1.1705	7.05	1.06	-0.750			
0.3822	24459.73	3.6150	3.6150	-1.1884	7.06	1.07	-0.750			
0.3858	24691.33	3.6120	3.6120	-1.2033	7.07	1.08	-0.750			
0.3894	24923.60	3.6090	3.6092	-1.2133	7.07	1.08	-0.750			
0.3931	25158.37	3.6060	3.6059	-1.2153	7.08	1.09	-0.750			
0.3967	25389.63	3.6030	3.6030	-1.2243	7.08	1.09	-0.750			
0.4004	25623.61	3.6000	3.5999	-1.2250	7.09	1.10	-0.750			
0.4041	25864.86	3.5970	3.5969	-1.2416	7.09	1.10	-0.750	0.393	0.950	
0.4079	26102.73	3.5940	3.5941	-1.2513	7.10	1.11	-0.750			
0.4115	26339.18	3.5910	3.5910	-1.2684	7.10	1.11	-0.750			
0.4154	26584.80	3.5880	3.5879	-1.2789	7.10	1.11	-0.750			
0.4193	26832.84	3.5850	3.5849	-1.2938	7.11	1.12	-0.750			
0.4231	27080.17	3.5820	3.5820	-1.3133	7.12	1.13	-0.750			
0.4272	27339.13	3.5790	3.5791	-1.3354	7.13	1.14	-0.750			
0.4312	27597.94	3.5760	3.5760	-1.3504	7.13	1.14	-0.750			
0.4353	27857.92	3.5730	3.5729	-1.3473	7.14	1.15	-0.750			
0.4393	28115.00	3.5700	3.5702	-1.3635	7.14	1.15	-0.750			
0.4435	28385.54	3.5670	3.5670	-1.3746	7.15	1.16	-0.750			
0.4476	28646.09	3.5640	3.5639	-1.3861	7.15	1.16	-0.750			
0.4517	28910.40	3.5610	3.5612	-1.3997	7.16	1.17	-0.750			
0.4560	29182.52	3.5580	3.5579	-1.4156	7.16	1.17	-0.750			
0.4602	29454.98	3.5550	3.5549	-1.4259	7.17	1.18	-0.750			
0.4646	29733.43	3.5520	3.5520	-1.4463	7.17	1.18	-0.750			
0.4689	30010.80	3.5490	3.5491	-1.4645	7.18	1.19	-0.750			
0.4734	30295.93	3.5460	3.5459	-1.4800	7.19	1.20	-0.750			
0.4778	30579.04	3.5430	3.5430	-1.4795	7.19	1.20	-0.750			
0.4823	30866.83	3.5400	3.5399	-1.4882	7.20	1.21	-0.750			
0.4868	31154.32	3.5370	3.5369	-1.4976	7.21	1.22	-0.750			
0.4913	31442.07	3.5340	3.5339	-1.4942	7.21	1.22	-0.750			
0.4958	31733.00	3.5310	3.5309	-1.4954	7.22	1.23	-0.750			
0.5003	32016.06	3.5280	3.5280	-1.4980	7.23	1.24	-0.750			
0.5047	32301.26	3.5250	3.5250	-1.5174	7.24	1.25	-0.750			
0.5093	32596.29	3.5220	3.5219	-1.5426	7.25	1.26	-0.750			
0.5141	32899.47	3.5190	3.5191	-1.5501	7.26	1.27	-0.750			
0.5187	33198.85	3.5160	3.5162	-1.5563	7.27	1.28	-0.750			
0.5235	33505.31	3.5130	3.5130	-1.5576	7.28	1.29	-0.750			
0.5282	33804.85	3.5100	3.5100	-1.5389	7.28	1.29	-0.750			
0.5327	34093.58	3.5070	3.5069	-1.5300	7.29	1.30	-0.750			
0.5372	34382.39	3.5040	3.5038	-1.5232	7.30	1.31	-0.750			
0.5418	34672.83	3.5010	3.5010	-1.5314	7.30	1.31	-0.750			
0.5465	34973.16	3.4980	3.4980	-1.5459	7.31	1.32	-0.750			
0.5511	35271.60	3.4950	3.4952	-1.5487	7.32	1.33	-0.750			
0.5558	35572.92	3.4920	3.4920	-1.5376	7.33	1.34	-0.750			
0.5605	35870.53	3.4890	3.4889	-1.5442	7.35	1.36	-0.750			
0.5651	36166.57	3.4860	3.4861	-1.5139	7.36	1.37	-0.750			
0.5696	36454.99	3.4830	3.4830	-1.5159	7.37	1.38	-0.750			
0.5741	36739.58	3.4800	3.4801	-1.5070	7.38	1.39	-0.750			
0.5786	37029.21	3.4770	3.4768	-1.4972	7.39	1.40	-0.750			
0.5831	37321.30	3.4740	3.4740	-1.4913	7.40	1.41	-0.750			
0.5876	37607.46	3.4710	3.4710	-1.4857	7.41	1.42	-0.750			
0.5921	37892.71	3.4680	3.4681	-1.4797	7.42	1.43	-0.750			
0.5965	38177.90	3.4650	3.4649	-1.4654	7.43	1.44	-0.750			
0.6008	38449.91	3.4620	3.4621	-1.4504	7.45	1.46	-0.750			
0.6052	38734.10	3.4590	3.4590	-1.4276	7.46	1.47	-0.750			
0.6096	39011.74	3.4560	3.4558	-1.4154	7.48	1.49	-0.750			
0.6138	39280.39	3.4530	3.4533	-1.3956	7.49	1.50	-0.750			
0.6179	39544.00	3.4500	3.4500	-1.3675	7.50	1.51	-0.750			
0.6220	39805.35	3.4470	3.4468	-1.3452	7.51	1.52	-0.750			
0.6260	40061.62	3.4440	3.4442	-1.3252	7.52	1.53	-0.750			
0.6299	40312.57	3.4410	3.4410	-1.3063	7.53	1.54	-0.750			
0.6338	40563.46	3.4380	3.4380	-1.2948	7.54	1.55	-0.750			
0.6376	40804.60	3.4350	3.4351	-1.2784	7.56	1.57	-0.750			
0.6414	41050.13	3.4320	3.4319	-1.2725	7.57	1.58	-0.750			
0.6452	41294.68	3.4290	3.4290	-1.2570	7.59	1.60	-0.750			
0.6491	41539.34	3.4260	3.4259	-1.2314	7.61	1.62	-0.750			
0.6527	41773.84	3.4230	3.4231	-1.2035	7.62	1.63	-0.750			
0.6563	42005.19	3.4200	3.4200	-1.1717	7.64	1.65	-0.750			
0.6597	42222.43	3.4170	3.4169	-1.1441	7.65	1.66	-0.750			
0.6631	42435.37	3.4140	3.4140	-1.1077	7.66	1.67	-0.750			
0.6664	42647.80	3.4110	3.4109	-1.0892	7.67	1.68	-0.750			
0.6697	42857.87	3.4080	3.4080	-1.0651	7.69	1.70	-0.750			
0.6728	43060.79	3.4050	3.4051	-1.0354	7.71	1.72	-0.750			
0.6759	43254.68	3.4020	3.4022	-1.0056	7.73	1.74	-0.750			
0.6788	43444.63	3.3990	3.3989	-0.9853	7.74	1.75	-0.750			
0.6817	43629.60	3.3960	3.3959	-0.9580	7.75	1.76	-0.750			
0.6846	43811.82	3.3930	3.3930	-0.9358	7.76	1.77	-0.750			
0.6873	43988.94	3.3900	3.3899	-0.9171	7.77	1.78	-0.750			
0.6901	44166.94	3.3870	3.3870	-0.8997	7.79	1.80	-0.750			
0.6928	44336.93	3.3840	3.3839	-0.8756	7.80	1.81	-0.750			
0.6953	44502.36	3.3810	3.3810	-0.8445	7.82	1.83	-0.750			
0.6978	44661.34	3.3780	3.3780	-0.8149	7.83	1.84	-0.750			
0.7003	44816.80	3.3750	3.3750	-0.7898	7.84	1.85	-0.750			
0.7026	44965.80	3.3720	3.3720	-0.7605	7.86	1.87	-0.750			
0.7048	45106.50	3.3690	3.3690	-0.7346	7.87	1.88	-0.750			
0.7069	45243.46	3.3660	3.3658	-0.7163	7.89	1.90	-0.750			
0.7090	45378.17	3.3630	3.3631	-0.6987	7.90	1.91	-0.750			
0.7111	45513.09	3.3600	3.3599	-0.6805	7.91	1.92	-0.750			
0.7132	45643.39	3.3570	3.3570	-0.6606	7.93	1.94	-0.750			
0.7151	45768.03	3.3540	3.3541	-0.6449	7.94	1.95	-0.750			
0.7170	45888.87	3.3510	3.3510	-0.6272	7.95	1.96	-0.750			
0.7188	46006.15	3.3480	3.3479	-0.6107	7.96	1.97	-0.750			
0.7206	46120.40	3.3450	3.3450	-0.5928	7.97	1.98	-0.750			
0.7224	46233.84	3.3420	3.3421	-0.5800	7.98	1.99	-0.750			
0.7241	46344.84	3.3390	3.3390	-0.5654	7.99	2.00	-0.750			
0.7258	46452.47	3.3360	3.3360	-0.5501	8.00	2.01	-0.750			
0.7274	46555.38	3.3330	3.3330	-0.5304	8.01	2.02	-0.750			
0.7290	46654.72	3.3300	3.3299	-0.5164	8.02	2.03	-0.750			
0.7305	46752.89	3.3270	3.3271	-0.5039	8.03	2.04	-0.750			
0.7320	46847.66	3.3240	3.3240	-0.4891	8.05	2.06	-0.750			
0.7335	46941.35	3.3210	3.3210	-0.4785	8.06	2.07	-0.750			
0.7349	47031.72	3.3180	3.3181	-0.4667	8.07	2.08	-0.750			
0.7362	47119.26	3.3150	3.3149	-0.4555	8.08	2.09	-0.750			
0.7376	47205.85	3.3120	3.3120	-0.4464	8.09	2.10	-0.750			
0.7389	47289.96	3.3090	3.3091	-0.4345	8.10	2.11	-0.750			
0.7402	47372.87	3.3060	3.3060	-0.4272	8.11	2.12	-0.750			
0.7415	47455.05	3.3030	3.3030	-0.4183	8.12	2.13	-0.750			
0.7427	47534.28	3.3000	3.3001	-0.4071	8.13	2.14	-0.750			
0.7439	47611.13	3.2970	3.2969	-0.3975	8.14	2.15	-0.750			
0.7451	47686.55	3.2940	3.2940	-0.3881	8.15	2.16	-0.750			
0.7462	47759.92	3.2910	3.2910	-0.3779	8.16	2.17	-0.750			
0.7474	47831.16	3.2880	3.2880	-0.3709	8.17	2.18	-0.750			
0.7485	47901.97	3.2850	3.2850	-0.3610	8.18	2.19	-0.750			
0.7495	47970.65	3.2820	3.2821	-0.3533	8.19	2.20	-0.750			
0.7506	48037.51	3.2790	3.2789	-0.3453	8.19	2.20	-0.750			
0.7516	48102.65	3.2760	3.2760	-0.3374	8.20	2.21	-0.750			
0.7526	48166.75	3.2730	3.2730	-0.3303	8.21	2.22	-0.750			
0.7536	48228.95	3.2700	3.2700	-0.3253	8.22	2.23	-0.750			
0.7545	48290.68	3.2670	3.2670	-0.3185	8.23	2.24	-0.750			
0.7555	48351.86	3.2640	3.2640	-0.3160	8.24	2.25	-0.750			
0.7564	48411.93	3.2610	3.2610	-0.3094	8.25	2.26	-0.750			
0.7574	48470.87	3.2580	3.2579	-0.3048	8.26	2.27	-0.750			
0.7583	48528.98	3.2550	3.2550	-0.2996	8.27	2.28	-0.750			
0.7592	48585.99	3.2520	3.2520	-0.2945	8.28	2.29	-0.750			
0.7600	48641.57	3.2490	3.2490	-0.2884	8.29	2.30	-0.750			
0.7609	48696.91	3.2460	3.2459	-0.2850	8.30	2.31	-0.750			
0.7617	48750.61	3.2430	3.2431	-0.2786	8.31	2.32	-0.750			
0.7626	48804.17	3.2400	3.2400	-0.2743	8.31	2.32	-0.750			
0.7634	48856.14	3.2370	3.2370	-0.2698	8.32	2.33	-0.750			
0.7642	48907.52	3.2340	3.2339	-0.2662	8.33	2.34	-0.750			
0.7650	48957.87	3.2310	3.2310	-0.2604	8.33	2.34	-0.750			
0.7657	49007.70	3.2280	3.2280	-0.2560	8.34	2.35	-0.750			
0.7665	49056.53	3.2250	3.2251	-0.2516	8.35	2.36	-0.750			
0.7673	49104.90	3.2220	3.2220	-0.2469	8.36	2.37	-0.750			
0.7680	49151.38	3.2190	3.2190	-0.2431	8.37	2.38	-0.750			
0.7687	49197.14	3.2160	3.2160	-0.2396	8.38	2.39	-0.750			
0.7694	49242.95	3.2130	3.2129	-0.2348	8.39	2.40	-0.750			
0.7701	49287.65	3.2100	3.2101	-0.2309	8.39	2.40	-0.750			
0.7708	49332.09	3.2070	3.2070	-0.2278	8.40	2.41	-0.750			
0.7715	49375.55	3.2040	3.2041	-0.2244	8.41	2.42	-0.750			
0.7722	49417.86	3.2010	3.2009	-0.2210	8.42	2.43	-0.750			
0.7728	49459.63	3.1980	3.1979	-0.2164	8.42	2.43	-0.750			
0.7735	49500.93	3.1950	3.1950	-0.2139	8.43	2.44	-0.750			
0.7741	49541.61	3.1920	3.1920	-0.2114	8.44	2.45	-0.750			
0.7747	49582.22	3.1890	3.1891	-0.2103	8.44	2.45	-0.750			
0.7754	49622.48	3.1860	3.1859	-0.2070	8.45	2.46	-0.750			
0.7760	49661.95	3.1830	3.1829	-0.2042	8.46	2.47	-0.750			
0.7766	49700.88	3.1800	3.1801	-0.2016	8.46	2.47	-0.750			
0.7772	49739.40	3.1770	3.1771	-0.1983	8.47	2.48	-0.750			
0.7778	49777.18	3.1740	3.1740	-0.1966	8.48	2.49	-0.750			
0.7784	49814.40	3.1710	3.1710	-0.1933	8.49	2.50	-0.750			
0.7789	49851.19	3.1680	3.1679	-0.1918	8.50	2.51	-0.750			
0.7795	49887.55	3.1650	3.1649	-0.1892	8.50	2.51	-0.750			
0.7801	49924.20	3.1620	3.1620	-0.1879	8.51	2.52	-0.750			
0.7806	49960.04	3.1590	3.1590	-0.1855	8.52	2.53	-0.750			
0.7812	49995.45	3.1560	3.1560	-0.1834	8.53	2.54	-0.750			
0.7817	50030.56	3.1530	3.1530	-0.1818	8.53	2.54	-0.750			
0.7823	50064.79	3.1500	3.1499	-0.1794	8.54	2.55	-0.750			
0.7828	50099.10	3.1470	3.1471	-0.1781	8.55	2.56	-0.750			
0.7833	50133.01	3.1440	3.1440	-0.1764	8.55	2.56	-0.750			
0.7839	50167.06	3.1410	3.1410	-0.1747	8.56	2.57	-0.750			
0.7844	50200.58	3.1380	3.1381	-0.1733	8.57	2.58	-0.750			
0.7849	50233.64	3.1350	3.1349	-0.1711	8.58	2.59	-0.750			
0.7854	50266.34	3.1320	3.1320	-0.1689	8.58	2.59	-0.750			
0.7859	50298.54	3.1290	3.1289	-0.1665	8.59	2.60	-0.750			
0.7864	50330.19	3.1260	3.1260	-0.1640	8.60	2.61	-0.750			
0.7869	50361.36	3.1230	3.1230	-0.1630	8.60	2.61	-0.750			
0.7874	50392.30	3.1200	3.1200	-0.1619	8.61	2.62	-0.750			
0.7879	50423.24	3.1170	3.1170	-0.1610	8.62	2.63	-0.750			
0.7883	50454.14	3.1140	3.1140	-0.1589	8.62	2.63	-0.750			
0.7888	50484.78	3.1110	3.1110	-0.1565	8.63	2.64	-0.750			
0.7893	50514.91	3.1080	3.1081	-0.1548	8.64	2.65	-0.750			
0.7898	50544.69	3.1050	3.1050	-0.1525	8.65	2.66	-0.750			
0.7902	50573.51	3.1020	3.1020	-0.1504	8.65	2.66	-0.750			
0.7906	50601.59	3.0990	3.0989	-0.1490	8.66	2.67	-0.750			
0.7911	50629.56	3.0960	3.0960	-0.1474	8.67	2.68	-0.750			
0.7915	50657.89	3.0930	3.0930	-0.1476	8.67	2.68	-0.750			
0.7920	50686.33	3.0900	3.0900	-0.1469	8.68	2.69	-0.750			
0.7924	50714.85	3.0870	3.0870	-0.1461	8.69	2.70	-0.750			
0.7929	50742.98	3.0840	3.0841	-0.1449	8.69	2.70	-0.750			
0.7933	50770.63	3.0810	3.0810	-0.1431	8.70	2.71	-0.750			
0.7937	50798.14	3.0780	3.0780	-0.1413	8.71	2.72	-0.750			
0.7941	50824.84	3.0750	3.0750	-0.1395	8.71	2.72	-0.750			
0.7945	50851.10	3.0720	3.0721	-0.1382	8.72	2.73	-0.750			
0.7950	50877.56	3.0690	3.0690	-0.1375	8.72	2.73	-0.750			
0.7954	50903.71	3.0660	3.0659	-0.1370	8.73	2.74	-0.750			
0.7958	50930.08	3.0630	3.0629	-0.1361	8.74	2.75	-0.750			
0.7962	50956.42	3.0600	3.0600	-0.1353	8.74	2.75	-0.750			
0.7966	50982.28	3.0570	3.0571	-0.1341	8.75	2.76	-0.750			
0.7970	51008.21	3.0540	3.0540	-0.1331	8.76	2.77	-0.750			
0.7974	51033.74	3.0510	3.0510	-0.1315	8.76	2.77	-0.750			
0.7978	51058.51	3.0480	3.0480	-0.1296	8.77	2.78	-0.750			
0.7982	51083.20	3.0450	3.0451	-0.1284	8.77	2.78	-0.750			
0.7986	51107.61	3.0420	3.0419	-0.1271	8.78	2.79	-0.750			
0.7989	51131.84	3.0390	3.0390	-0.1264	8.78	2.79	-0.750			
0.7993	51156.03	3.0360	3.0360	-0.1256	8.79	2.80	-0.750			
0.7997	51179.99	3.0330	3.0330	-0.1248	8.80	2.81	-0.750			
0.8001	51203.83	3.0300	3.0300	-0.1243	8.80	2.81	-0.750			
0.8004	51227.81	3.0270	3.0270	-0.1235	8.81	2.82	-0.750			
0.8008	51251.50	3.0240	3.0240	-0.1229	8.81	2.82	-0.750			
0.8012	51275.07	3.0210	3.0210	-0.1218	8.82	2.83	-0.750			
0.8015	51298.54	3.0180	3.0180	-0.1210	8.82	2.83	-0.750			
0.8019	51321.45	3.0150	3.0150	-0.1209	8.83	2.84	-0.750			
0.8023	51344.34	3.0120	3.0121	-0.1203	8.84	2.85	-0.750			
0.8026	51367.43	3.0090	3.0089	-0.1203	8.84	2.85	-0.750			
0.8030	51390.33	3.0060	3.0060	-0.1214	8.85	2.86	-0.750			
0.8033	51413.73	3.0030	3.0031	-0.1224	8.85	2.86	-0.750			
