Ah_balance (normalized)	Ah_balance (mAh)	Voltage - fit (V)	Voltage -  interpolate (V)	dQ/dV (1/V)	Temperature (°C)	Temperature - diff (°C)	Current (C)	R_DC 0ms (mOhm)	R_DC 50ms (mOhm)	R_DC 50 ms PEC (mOhm)
0.0000	0.00	4.0810	4.1318	0.0000	5.97	-0.02	-0.749			
0.0000	0.00	4.0840	4.1318	0.0000	5.97	-0.02	-0.749			
0.0000	0.00	4.0870	4.1318	0.0000	5.97	-0.02	-0.749			
0.0000	0.00	4.0900	4.1318	0.0000	5.97	-0.02	-0.749			
0.0002	9.79	4.0780	4.0807	-0.0566	5.97	-0.02	-0.750			
0.0003	22.01	4.0750	4.0753	-0.0814	5.97	-0.02	-0.750			
0.0006	39.96	4.0720	4.0720	-0.1057	5.97	-0.02	-0.750			
0.0010	63.05	4.0690	4.0688	-0.1274	5.97	-0.02	-0.750			
0.0014	89.87	4.0660	4.0659	-0.1496	5.97	-0.02	-0.750			
0.0019	120.82	4.0630	4.0631	-0.1730	5.97	-0.02	-0.750			
0.0024	156.37	4.0600	4.0601	-0.1968	5.97	-0.02	-0.750			
0.0031	196.30	4.0570	4.0569	-0.2202	5.98	-0.01	-0.750			
0.0038	241.03	4.0540	4.0539	-0.2412	5.98	-0.01	-0.750			
0.0045	289.70	4.0510	4.0510	-0.2616	5.98	-0.01	-0.750			
0.0053	341.80	4.0480	4.0481	-0.2832	5.98	-0.01	-0.750			
0.0062	398.13	4.0450	4.0450	-0.3079	5.98	-0.01	-0.750			
0.0072	458.48	4.0420	4.0421	-0.3313	5.99	-0.00	-0.750			
0.0082	524.33	4.0390	4.0389	-0.3562	5.99	-0.00	-0.750			
0.0093	595.28	4.0360	4.0361	-0.3804	5.99	0.00	-0.750			
0.0105	671.52	4.0330	4.0329	-0.4051	5.99	0.00	-0.750			
0.0118	752.37	4.0300	4.0300	-0.4277	6.00	0.01	-0.750			
0.0131	836.23	4.0270	4.0270	-0.4481	6.00	0.01	-0.750			
0.0144	923.42	4.0240	4.0240	-0.4679	6.00	0.01	-0.750			
0.0159	1015.78	4.0210	4.0209	-0.4899	6.01	0.02	-0.750			
0.0174	1112.39	4.0180	4.0180	-0.5087	6.01	0.02	-0.750			
0.0189	1212.57	4.0150	4.0149	-0.5248	6.01	0.02	-0.750			
0.0206	1315.98	4.0120	4.0120	-0.5410	6.02	0.03	-0.750			
0.0222	1422.00	4.0090	4.0091	-0.5517	6.02	0.03	-0.750			
0.0239	1527.09	4.0060	4.0060	-0.5704	6.03	0.04	-0.750			
0.0256	1638.30	4.0030	4.0030	-0.5847	6.03	0.04	-0.750			
0.0273	1750.28	4.0000	3.9999	-0.6032	6.04	0.05	-0.750			
0.0292	1870.41	3.9970	3.9969	-0.6111	6.04	0.05	-0.750			
0.0311	1991.57	3.9940	3.9941	-0.6207	6.05	0.06	-0.750			
0.0330	2111.61	3.9910	3.9910	-0.6240	6.06	0.07	-0.750			
0.0349	2231.91	3.9880	3.9878	-0.6335	6.06	0.07	-0.750			
0.0367	2351.70	3.9850	3.9849	-0.6378	6.07	0.08	-0.750			
0.0387	2474.01	3.9820	3.9820	-0.6467	6.08	0.09	-0.750			
0.0406	2597.10	3.9790	3.9790	-0.6572	6.08	0.09	-0.750			
0.0426	2728.75	3.9760	3.9760	-0.6699	6.09	0.10	-0.750			
0.0447	2858.05	3.9730	3.9730	-0.6787	6.09	0.10	-0.750			
0.0467	2988.49	3.9700	3.9700	-0.6892	6.10	0.11	-0.750			
0.0488	3121.29	3.9670	3.9671	-0.6915	6.11	0.12	-0.750			
0.0509	3255.09	3.9640	3.9639	-0.7037	6.12	0.13	-0.750			
0.0530	3394.63	3.9610	3.9610	-0.7008	6.13	0.14	-0.750			
0.0551	3528.07	3.9580	3.9581	-0.7005	6.14	0.15	-0.750			
0.0572	3663.49	3.9550	3.9549	-0.7038	6.15	0.16	-0.750			
0.0593	3797.03	3.9520	3.9522	-0.6983	6.16	0.17	-0.750			
0.0614	3929.74	3.9490	3.9488	-0.7019	6.17	0.18	-0.750			
0.0635	4063.21	3.9460	3.9462	-0.7146	6.18	0.19	-0.750			
0.0656	4200.63	3.9430	3.9429	-0.7176	6.19	0.20	-0.750			
0.0679	4344.34	3.9400	3.9399	-0.7316	6.20	0.21	-0.750			
0.0701	4485.62	3.9370	3.9368	-0.7273	6.21	0.22	-0.750			
0.0723	4625.36	3.9340	3.9342	-0.7273	6.22	0.23	-0.750			
0.0745	4764.92	3.9310	3.9310	-0.7325	6.23	0.24	-0.750			
0.0766	4902.62	3.9280	3.9278	-0.7339	6.24	0.25	-0.750			
0.0788	5041.65	3.9250	3.9250	-0.7314	6.25	0.26	-0.750			
0.0810	5185.98	3.9220	3.9220	-0.7414	6.26	0.27	-0.750			
0.0833	5332.06	3.9190	3.9190	-0.7467	6.27	0.28	-0.750			
0.0856	5475.84	3.9160	3.9160	-0.7476	6.28	0.29	-0.750			
0.0878	5617.41	3.9130	3.9130	-0.7448	6.29	0.30	-0.750			
0.0900	5760.19	3.9100	3.9100	-0.7407	6.30	0.31	-0.750			
0.0922	5902.24	3.9070	3.9070	-0.7364	6.32	0.33	-0.750			
0.0944	6044.21	3.9040	3.9040	-0.7409	6.33	0.34	-0.750			
0.0966	6184.79	3.9010	3.9011	-0.7420	6.34	0.35	-0.750			
0.0989	6327.30	3.8980	3.8979	-0.7452	6.35	0.36	-0.750			
0.1011	6469.23	3.8950	3.8949	-0.7503	6.36	0.37	-0.750			
0.1033	6614.25	3.8920	3.8920	-0.7551	6.37	0.38	-0.750			
0.1057	6762.82	3.8890	3.8891	-0.7629	6.38	0.39	-0.750			
0.1080	6909.96	3.8860	3.8859	-0.7585	6.39	0.40	-0.750			
0.1103	7056.21	3.8830	3.8831	-0.7512	6.40	0.41	-0.750			
0.1125	7199.51	3.8800	3.8800	-0.7515	6.41	0.42	-0.750			
0.1147	7340.77	3.8770	3.8770	-0.7531	6.42	0.43	-0.750			
0.1170	7484.84	3.8740	3.8739	-0.7552	6.43	0.44	-0.750			
0.1192	7630.97	3.8710	3.8710	-0.7610	6.45	0.46	-0.750			
0.1215	7779.14	3.8680	3.8681	-0.7623	6.46	0.47	-0.750			
0.1238	7926.20	3.8650	3.8651	-0.7650	6.47	0.48	-0.750			
0.1261	8072.17	3.8620	3.8620	-0.7742	6.49	0.50	-0.750			
0.1284	8220.61	3.8590	3.8589	-0.7728	6.50	0.51	-0.750			
0.1308	8369.84	3.8560	3.8559	-0.7690	6.51	0.52	-0.750			
0.1331	8517.79	3.8530	3.8531	-0.7698	6.53	0.54	-0.750			
0.1354	8667.87	3.8500	3.8502	-0.7674	6.54	0.55	-0.750			
0.1377	8813.25	3.8470	3.8469	-0.7722	6.55	0.56	-0.750			
0.1400	8959.94	3.8440	3.8439	-0.7622	6.57	0.58	-0.750			
0.1423	9104.86	3.8410	3.8410	-0.7606	6.58	0.59	-0.750			
0.1446	9254.55	3.8380	3.8381	-0.7647	6.60	0.61	-0.750			
0.1469	9400.09	3.8350	3.8352	-0.7687	6.61	0.62	-0.750			
0.1492	9546.05	3.8320	3.8319	-0.7706	6.63	0.64	-0.750			
0.1515	9694.26	3.8290	3.8289	-0.7703	6.64	0.65	-0.750			
0.1538	9840.77	3.8260	3.8261	-0.7708	6.65	0.66	-0.750			
0.1561	9991.28	3.8230	3.8231	-0.7791	6.66	0.67	-0.750			
0.1584	10140.34	3.8200	3.8200	-0.7781	6.68	0.69	-0.750			
0.1608	10290.67	3.8170	3.8169	-0.7808	6.69	0.70	-0.750			
0.1631	10438.14	3.8140	3.8140	-0.7830	6.71	0.72	-0.750			
0.1655	10590.06	3.8110	3.8111	-0.7820	6.72	0.73	-0.750			
0.1678	10742.10	3.8080	3.8080	-0.7827	6.74	0.75	-0.750			
0.1702	10892.40	3.8050	3.8049	-0.7779	6.75	0.76	-0.750			
0.1725	11041.66	3.8020	3.8020	-0.7718	6.77	0.78	-0.750			
0.1748	11185.82	3.7990	3.7990	-0.7727	6.78	0.79	-0.750			
0.1771	11332.50	3.7960	3.7959	-0.7773	6.79	0.80	-0.750			
0.1794	11481.48	3.7930	3.7930	-0.7776	6.80	0.81	-0.750			
0.1818	11632.98	3.7900	3.7898	-0.7893	6.82	0.83	-0.750			
0.1842	11787.03	3.7870	3.7874	-0.7928	6.83	0.84	-0.750			
0.1866	11940.67	3.7840	3.7840	-0.7953	6.85	0.86	-0.750			
0.1890	12095.78	3.7810	3.7809	-0.7905	6.87	0.88	-0.750			
0.1913	12245.48	3.7780	3.7780	-0.7843	6.88	0.89	-0.750			
0.1937	12393.87	3.7750	3.7750	-0.7808	6.90	0.91	-0.750			
0.1960	12543.44	3.7720	3.7720	-0.7818	6.92	0.93	-0.750			
0.1983	12691.61	3.7690	3.7689	-0.7820	6.93	0.94	-0.750			
0.2007	12841.92	3.7660	3.7660	-0.7893	6.94	0.95	-0.750			
0.2030	12993.77	3.7630	3.7630	-0.7899	6.95	0.96	-0.750			
0.2054	13146.42	3.7600	3.7601	-0.7981	6.96	0.97	-0.750			
0.2078	13300.22	3.7570	3.7570	-0.7989	6.97	0.98	-0.750			
0.2102	13454.89	3.7540	3.7538	-0.8019	6.99	1.00	-0.750			
0.2126	13606.74	3.7510	3.7511	-0.8108	7.00	1.01	-0.750			
0.2151	13764.61	3.7480	3.7480	-0.8131	7.02	1.03	-0.750			
0.2175	13921.43	3.7450	3.7449	-0.8191	7.03	1.04	-0.750			
0.2200	14080.42	3.7420	3.7418	-0.8246	7.05	1.06	-0.750			
0.2225	14236.96	3.7390	3.7390	-0.8290	7.07	1.08	-0.750			
0.2250	14396.88	3.7360	3.7360	-0.8390	7.08	1.09	-0.750			
0.2275	14561.48	3.7330	3.7329	-0.8339	7.09	1.10	-0.750			
0.2300	14720.05	3.7300	3.7300	-0.8254	7.11	1.12	-0.750			
0.2325	14881.15	3.7270	3.7270	-0.8269	7.12	1.13	-0.750			
0.2350	15038.48	3.7240	3.7240	-0.8198	7.13	1.14	-0.750			
0.2374	15192.84	3.7210	3.7209	-0.8273	7.15	1.16	-0.750			
0.2398	15348.57	3.7180	3.7178	-0.8275	7.16	1.17	-0.750			
0.2423	15507.84	3.7150	3.7151	-0.8381	7.17	1.18	-0.750			
0.2449	15673.44	3.7120	3.7120	-0.8564	7.18	1.19	-0.750			
0.2475	15840.57	3.7090	3.7091	-0.8645	7.20	1.21	-0.750			
0.2501	16008.88	3.7060	3.7059	-0.8686	7.21	1.22	-0.750			
0.2528	16176.95	3.7030	3.7030	-0.8650	7.22	1.23	-0.750			
0.2553	16339.89	3.7000	3.7000	-0.8608	7.23	1.24	-0.750			
0.2579	16504.79	3.6970	3.6968	-0.8724	7.24	1.25	-0.750			
0.2605	16669.77	3.6940	3.6939	-0.8792	7.26	1.27	-0.750			
0.2631	16838.60	3.6910	3.6908	-0.8911	7.27	1.28	-0.750			
0.2658	17012.49	3.6880	3.6880	-0.9036	7.28	1.29	-0.750			
0.2686	17187.68	3.6850	3.6850	-0.9088	7.29	1.30	-0.750			
0.2714	17371.56	3.6820	3.6822	-0.9222	7.30	1.31	-0.750			
0.2742	17547.18	3.6790	3.6790	-0.9177	7.31	1.32	-0.750			
0.2769	17721.25	3.6760	3.6760	-0.9099	7.32	1.33	-0.750			
0.2796	17896.28	3.6730	3.6730	-0.9088	7.33	1.34	-0.750			
0.2823	18067.27	3.6700	3.6699	-0.9108	7.33	1.34	-0.750			
0.2850	18240.58	3.6670	3.6672	-0.9204	7.34	1.35	-0.750			
0.2878	18418.87	3.6640	3.6639	-0.9362	7.35	1.36	-0.750			
0.2907	18602.36	3.6610	3.6608	-0.9385	7.36	1.37	-0.750			
0.2935	18784.36	3.6580	3.6580	-0.9403	7.37	1.38	-0.750			
0.2963	18964.83	3.6550	3.6554	-0.9509	7.38	1.39	-0.750			
0.2992	19147.00	3.6520	3.6519	-0.9671	7.38	1.39	-0.750			
0.3021	19333.66	3.6490	3.6489	-0.9712	7.39	1.40	-0.750			
0.3050	19519.83	3.6460	3.6458	-0.9690	7.39	1.40	-0.750			
0.3080	19710.24	3.6430	3.6431	-0.9896	7.40	1.41	-0.750			
0.3110	19901.14	3.6400	3.6401	-0.9994	7.40	1.41	-0.750			
0.3140	20094.52	3.6370	3.6368	-0.9967	7.41	1.42	-0.750			
0.3169	20283.39	3.6340	3.6339	-0.9931	7.42	1.43	-0.750			
0.3199	20471.04	3.6310	3.6311	-0.9951	7.43	1.44	-0.750			
0.3229	20666.73	3.6280	3.6280	-1.0158	7.43	1.44	-0.750			
0.3260	20861.82	3.6250	3.6249	-1.0192	7.44	1.45	-0.750			
0.3290	21055.45	3.6220	3.6221	-1.0204	7.45	1.46	-0.750			
0.3321	21252.64	3.6190	3.6190	-1.0283	7.46	1.47	-0.750			
0.3352	21452.29	3.6160	3.6160	-1.0438	7.46	1.47	-0.750			
0.3383	21653.89	3.6130	3.6130	-1.0465	7.47	1.48	-0.750			
0.3415	21854.33	3.6100	3.6099	-1.0541	7.47	1.48	-0.750			
0.3446	22056.67	3.6070	3.6070	-1.0645	7.48	1.49	-0.750			
0.3479	22264.50	3.6040	3.6041	-1.0803	7.48	1.49	-0.750			
0.3512	22474.13	3.6010	3.6009	-1.0888	7.49	1.50	-0.750			
0.3545	22685.17	3.5980	3.5980	-1.0863	7.49	1.50	-0.750			
0.3577	22894.62	3.5950	3.5951	-1.0808	7.50	1.51	-0.750			
0.3610	23101.21	3.5920	3.5919	-1.0854	7.50	1.51	-0.750			
0.3642	23306.79	3.5890	3.5889	-1.0900	7.51	1.52	-0.750			
0.3674	23515.57	3.5860	3.5861	-1.0961	7.51	1.52	-0.750			
0.3707	23725.89	3.5830	3.5828	-1.1037	7.52	1.53	-0.750			
0.3741	23942.49	3.5800	3.5801	-1.1213	7.52	1.53	-0.750	0.396	0.811	
0.3775	24159.58	3.5770	3.5769	-1.1378	7.53	1.54	-0.750			
0.3809	24378.83	3.5740	3.5740	-1.1477	7.54	1.55	-0.750			
0.3843	24597.46	3.5710	3.5710	-1.1541	7.54	1.55	-0.750			
0.3878	24817.46	3.5680	3.5680	-1.1630	7.55	1.56	-0.750			
0.3913	25045.64	3.5650	3.5651	-1.1829	7.56	1.57	-0.750			
0.3949	25274.66	3.5620	3.5619	-1.1906	7.57	1.58	-0.750			
0.3985	25507.10	3.5590	3.5589	-1.1999	7.57	1.58	-0.750			
0.4022	25737.64	3.5560	3.5560	-1.2041	7.58	1.59	-0.750			
0.4058	25970.81	3.5530	3.5531	-1.2089	7.58	1.59	-0.750			
0.4094	26201.50	3.5500	3.5501	-1.2134	7.59	1.60	-0.750			
0.4130	26435.02	3.5470	3.5470	-1.2215	7.60	1.61	-0.750			
0.4167	26668.70	3.5440	3.5440	-1.2275	7.60	1.61	-0.750			
0.4204	26903.33	3.5410	3.5411	-1.2481	7.61	1.62	-0.750			
0.4243	27152.07	3.5380	3.5379	-1.2485	7.61	1.62	-0.750			
0.4280	27391.39	3.5350	3.5350	-1.2365	7.62	1.63	-0.750			
0.4317	27626.50	3.5320	3.5320	-1.2489	7.63	1.64	-0.750			
0.4354	27865.98	3.5290	3.5290	-1.2439	7.63	1.64	-0.750			
0.4391	28101.98	3.5260	3.5258	-1.2468	7.64	1.65	-0.750			
0.4428	28340.58	3.5230	3.5230	-1.2547	7.65	1.66	-0.750			
0.4466	28584.62	3.5200	3.5203	-1.2529	7.66	1.67	-0.750			
0.4505	28831.54	3.5170	3.5170	-1.2661	7.67	1.68	-0.750			
0.4543	29074.46	3.5140	3.5140	-1.2651	7.68	1.69	-0.750			
0.4580	29312.64	3.5110	3.5110	-1.2656	7.69	1.70	-0.750			
0.4619	29558.85	3.5080	3.5079	-1.2671	7.70	1.71	-0.750			
0.4656	29799.61	3.5050	3.5050	-1.2646	7.71	1.72	-0.750			
0.4694	30043.55	3.5020	3.5020	-1.2684	7.72	1.73	-0.750			
0.4733	30288.42	3.4990	3.4990	-1.2726	7.72	1.73	-0.750			
0.4771	30535.01	3.4960	3.4959	-1.2603	7.73	1.74	-0.750			
0.4809	30775.25	3.4930	3.4931	-1.2563	7.74	1.75	-0.750			
0.4846	31015.56	3.4900	3.4901	-1.2490	7.75	1.76	-0.750			
0.4884	31257.34	3.4870	3.4869	-1.2479	7.76	1.77	-0.750			
0.4921	31493.36	3.4840	3.4839	-1.2406	7.77	1.78	-0.750			
0.4958	31729.70	3.4810	3.4809	-1.2454	7.78	1.79	-0.750			
0.4995	31971.03	3.4780	3.4779	-1.2419	7.79	1.80	-0.750			
0.5033	32211.91	3.4750	3.4750	-1.2392	7.80	1.81	-0.750			
0.5070	32450.42	3.4720	3.4719	-1.2204	7.81	1.82	-0.750			
0.5107	32683.36	3.4690	3.4691	-1.2140	7.83	1.84	-0.750			
0.5143	32916.35	3.4660	3.4660	-1.2010	7.84	1.85	-0.750			
0.5179	33144.66	3.4630	3.4630	-1.1859	7.85	1.86	-0.750			
0.5214	33368.20	3.4600	3.4600	-1.1741	7.86	1.87	-0.750			
0.5249	33594.75	3.4570	3.4571	-1.1821	7.87	1.88	-0.750			
0.5285	33821.08	3.4540	3.4539	-1.1844	7.88	1.89	-0.750			
0.5320	34049.32	3.4510	3.4509	-1.1815	7.89	1.90	-0.750			
0.5356	34276.43	3.4480	3.4481	-1.1778	7.90	1.91	-0.750			
0.5391	34504.79	3.4450	3.4450	-1.1761	7.91	1.92	-0.750			
0.5427	34732.43	3.4420	3.4418	-1.1560	7.93	1.94	-0.750			
0.5461	34951.86	3.4390	3.4392	-1.1301	7.94	1.95	-0.750			
0.5495	35169.53	3.4360	3.4360	-1.1230	7.95	1.96	-0.750			
0.5528	35382.09	3.4330	3.4329	-1.1059	7.96	1.97	-0.750			
0.5561	35592.83	3.4300	3.4298	-1.0942	7.97	1.98	-0.750			
0.5593	35797.21	3.4270	3.4272	-1.0874	7.98	1.99	-0.750			
0.5626	36006.57	3.4240	3.4240	-1.0820	7.99	2.00	-0.750			
0.5659	36215.74	3.4210	3.4209	-1.0772	8.01	2.02	-0.750			
0.5691	36422.19	3.4180	3.4179	-1.0641	8.02	2.03	-0.750			
0.5723	36626.95	3.4150	3.4151	-1.0567	8.03	2.04	-0.750			
0.5755	36828.85	3.4120	3.4120	-1.0366	8.05	2.06	-0.750			
0.5786	37027.55	3.4090	3.4089	-1.0138	8.06	2.07	-0.750			
0.5815	37217.31	3.4060	3.4060	-0.9881	8.07	2.08	-0.750			
0.5845	37406.51	3.4030	3.4032	-0.9733	8.08	2.09	-0.750			
0.5873	37589.93	3.4000	3.3999	-0.9621	8.09	2.10	-0.750			
0.5902	37772.32	3.3970	3.3970	-0.9500	8.11	2.12	-0.750			
0.5930	37954.18	3.3940	3.3938	-0.9350	8.12	2.13	-0.750			
0.5958	38134.18	3.3910	3.3911	-0.9271	8.13	2.14	-0.750			
0.5986	38311.47	3.3880	3.3880	-0.9128	8.14	2.15	-0.750			
0.6013	38484.86	3.3850	3.3851	-0.8998	8.16	2.17	-0.750			
0.6040	38656.47	3.3820	3.3819	-0.8869	8.17	2.18	-0.750			
0.6066	38822.66	3.3790	3.3790	-0.8688	8.19	2.20	-0.750			
0.6092	38990.54	3.3760	3.3760	-0.8545	8.20	2.21	-0.750			
0.6118	39154.06	3.3730	3.3730	-0.8380	8.21	2.22	-0.750			
0.6143	39314.63	3.3700	3.3700	-0.8221	8.23	2.24	-0.750			
0.6167	39470.71	3.3670	3.3670	-0.8014	8.24	2.25	-0.750			
0.6191	39620.59	3.3640	3.3639	-0.7810	8.25	2.26	-0.750			
0.6214	39768.24	3.3610	3.3612	-0.7686	8.26	2.27	-0.750			
0.6237	39914.24	3.3580	3.3578	-0.7529	8.27	2.28	-0.750			
0.6259	40057.55	3.3550	3.3550	-0.7402	8.29	2.30	-0.750			
0.6281	40199.00	3.3520	3.3520	-0.7244	8.30	2.31	-0.750			
0.6303	40337.42	3.3490	3.3491	-0.7154	8.32	2.33	-0.750			
0.6324	40473.92	3.3460	3.3459	-0.6985	8.33	2.34	-0.750			
0.6344	40604.14	3.3430	3.3430	-0.6818	8.34	2.35	-0.750			
0.6365	40733.82	3.3400	3.3400	-0.6685	8.35	2.36	-0.750			
0.6384	40860.41	3.3370	3.3371	-0.6618	8.37	2.38	-0.750			
0.6404	40986.41	3.3340	3.3340	-0.6529	8.38	2.39	-0.750			
0.6424	41112.55	3.3310	3.3309	-0.6421	8.39	2.40	-0.750			
0.6443	41234.36	3.3280	3.3280	-0.6272	8.40	2.41	-0.750			
0.6462	41354.89	3.3250	3.3252	-0.6155	8.41	2.42	-0.750			
0.6480	41470.94	3.3220	3.3219	-0.6007	8.42	2.43	-0.750			
0.6498	41584.51	3.3190	3.3189	-0.5870	8.43	2.44	-0.750			
0.6515	41693.62	3.3160	3.3161	-0.5784	8.45	2.46	-0.750			
0.6532	41802.71	3.3130	3.3130	-0.5733	8.46	2.47	-0.750			
0.6549	41914.95	3.3100	3.3099	-0.5662	8.47	2.48	-0.750			
0.6566	42023.15	3.3070	3.3070	-0.5547	8.48	2.49	-0.750			
0.6583	42130.02	3.3040	3.3040	-0.5420	8.50	2.51	-0.750			
0.6599	42232.97	3.3010	3.3011	-0.5272	8.51	2.52	-0.750			
0.6614	42331.59	3.2980	3.2979	-0.5156	8.52	2.53	-0.750			
0.6629	42427.82	3.2950	3.2950	-0.5047	8.53	2.54	-0.750			
0.6644	42522.47	3.2920	3.2919	-0.4964	8.54	2.55	-0.750			
0.6659	42617.47	3.2890	3.2890	-0.4924	8.56	2.57	-0.750			
0.6674	42712.49	3.2860	3.2860	-0.4902	8.57	2.58	-0.750			
0.6689	42807.31	3.2830	3.2829	-0.4815	8.58	2.59	-0.750			
0.6703	42900.05	3.2800	3.2799	-0.4723	8.59	2.60	-0.750			
0.6717	42989.55	3.2770	3.2772	-0.4617	8.60	2.61	-0.750			
0.6731	43076.88	3.2740	3.2740	-0.4524	8.62	2.63	-0.750			
0.6744	43162.47	3.2710	3.2709	-0.4439	8.63	2.64	-0.750			
0.6757	43245.75	3.2680	3.2679	-0.4335	8.64	2.65	-0.750			
0.6770	43328.73	3.2650	3.2650	-0.4298	8.65	2.66	-0.750			
0.6783	43410.75	3.2620	3.2620	-0.4221	8.66	2.67	-0.750			
0.6795	43491.12	3.2590	3.2589	-0.4176	8.68	2.69	-0.750			
0.6808	43570.63	3.2560	3.2560	-0.4114	8.69	2.70	-0.750			
0.6820	43648.07	3.2530	3.2530	-0.4069	8.70	2.71	-0.750			
0.6832	43726.34	3.2500	3.2501	-0.4015	8.71	2.72	-0.750			
0.6844	43803.45	3.2470	3.2470	-0.3969	8.73	2.74	-0.750			
0.6856	43878.87	3.2440	3.2440	-0.3899	8.74	2.75	-0.750			
0.6868	43953.42	3.2410	3.2410	-0.3860	8.75	2.76	-0.750			
0.6879	44027.05	3.2380	3.2380	-0.3801	8.76	2.77	-0.750			
0.6891	44099.43	3.2350	3.2350	-0.3744	8.77	2.78	-0.750			
0.6902	44169.78	3.2320	3.2320	-0.3687	8.78	2.79	-0.750			
0.6913	44240.94	3.2290	3.2291	-0.3658	8.79	2.80	-0.750			
0.6924	44310.43	3.2260	3.2259	-0.3608	8.81	2.82	-0.750			
0.6934	44379.32	3.2230	3.2229	-0.3562	8.82	2.83	-0.750			
0.6945	44446.89	3.2200	3.2200	-0.3506	8.83	2.84	-0.750			
0.6955	44514.60	3.2170	3.2170	-0.3455	8.83	2.84	-0.750			
0.6966	44580.22	3.2140	3.2141	-0.3420	8.84	2.85	-0.750			
0.6976	44645.30	3.2110	3.2110	-0.3372	8.85	2.86	-0.750			
0.6986	44709.33	3.2080	3.2080	-0.3307	8.86	2.87	-0.750			
0.6996	44772.58	3.2050	3.2049	-0.3272	8.87	2.88	-0.750			
0.7005	44834.98	3.2020	3.2022	-0.3226	8.88	2.89	-0.750			
0.7015	44896.27	3.1990	3.1990	-0.3193	8.89	2.90	-0.750			
0.7025	44957.42	3.1960	3.1960	-0.3161	8.90	2.91	-0.750			
0.7034	45016.91	3.1930	3.1929	-0.3124	8.91	2.92	-0.750			
0.7043	45076.88	3.1900	3.1900	-0.3098	8.92	2.93	-0.750			
0.7053	45136.33	3.1870	3.1870	-0.3078	8.93	2.94	-0.750			
0.7062	45195.44	3.1840	3.1840	-0.3033	8.94	2.95	-0.750			
0.7071	45253.54	3.1810	3.1811	-0.3005	8.95	2.96	-0.750			
0.7080	45310.09	3.1780	3.1780	-0.2971	8.97	2.98	-0.750			
0.7089	45367.01	3.1750	3.1752	-0.2951	8.98	2.99	-0.750			
0.7097	45422.92	3.1720	3.1720	-0.2908	8.99	3.00	-0.750			
0.7106	45478.95	3.1690	3.1689	-0.2883	9.00	3.01	-0.750			
0.7115	45534.18	3.1660	3.1661	-0.2847	9.01	3.02	-0.750			
0.7123	45588.51	3.1630	3.1629	-0.2815	9.02	3.03	-0.750			
0.7132	45642.17	3.1600	3.1601	-0.2787	9.03	3.04	-0.750			
0.7140	45695.39	3.1570	3.1568	-0.2761	9.04	3.05	-0.750			
0.7148	45747.65	3.1540	3.1540	-0.2750	9.05	3.06	-0.750			
0.7156	45800.69	3.1510	3.1511	-0.2733	9.06	3.07	-0.750			
0.7164	45852.74	3.1480	3.1480	-0.2718	9.07	3.08	-0.750			
0.7173	45905.16	3.1450	3.1450	-0.2697	9.08	3.09	-0.750			
0.7181	45956.74	3.1420	3.1421	-0.2674	9.10	3.11	-0.750			
0.7189	46008.20	3.1390	3.1389	-0.2637	9.11	3.12	-0.750			
0.7197	46058.78	3.1360	3.1360	-0.2608	9.12	3.13	-0.750			
0.7204	46108.08	3.1330	3.1330	-0.2579	9.13	3.14	-0.750			
0.7212	46157.35	3.1300	3.1300	-0.2558	9.14	3.15	-0.750			
0.7220	46205.91	3.1270	3.1269	-0.2532	9.15	3.16	-0.750			
0.7227	46254.61	3.1240	3.1240	-0.2512	9.16	3.17	-0.750			
0.7235	46302.64	3.1210	3.1210	-0.2487	9.17	3.18	-0.750			
0.7242	46350.10	3.1180	3.1181	-0.2478	9.18	3.19	-0.750			
0.7250	46397.50	3.1150	3.1150	-0.2456	9.19	3.20	-0.750			
0.7257	46444.22	3.1120	3.1120	-0.2435	9.20	3.21	-0.750			
0.7264	46490.85	3.1090	3.1089	-0.2428	9.21	3.22	-0.750			
0.7272	46537.83	3.1060	3.1060	-0.2412	9.22	3.23	-0.750			
0.7279	46583.98	3.1030	3.1030	-0.2395	9.23	3.24	-0.750			
0.7286	46630.01	3.1000	3.1000	-0.2395	9.24	3.25	-0.750			
0.7293	46676.16	3.0970	3.0971	-0.2371	9.25	3.26	-0.750			
0.7300	46721.02	3.0940	3.0939	-0.2347	9.26	3.27	-0.750			
0.7307	46766.10	3.0910	3.0911	-0.2327	9.27	3.28	-0.750			
0.7314	46810.82	3.0880	3.0880	-0.2310	9.28	3.29	-0.750			
0.7321	46855.09	3.0850	3.0849	-0.2278	9.29	3.30	-0.750			
0.7328	46898.69	3.0820	3.0820	-0.2261	9.30	3.31	-0.750			
0.7335	46940.98	3.0790	3.0791	-0.2235	9.30	3.31	-0.750			
0.7341	46983.81	3.0760	3.0761	-0.2227	9.31	3.32	-0.750			
0.7348	47026.56	3.0730	3.0729	-0.2220	9.32	3.33	-0.750			
0.7354	47068.70	3.0700	3.0700	-0.2204	9.33	3.34	-0.750			
0.7361	47111.09	3.0670	3.0671	-0.2205	9.34	3.35	-0.750			
0.7368	47153.71	3.0640	3.0640	-0.2207	9.36	3.37	-0.750			
0.7374	47195.96	3.0610	3.0610	-0.2196	9.37	3.38	-0.750			
0.7381	47237.92	3.0580	3.0580	-0.2185	9.38	3.39	-0.750			
0.7387	47279.90	3.0550	3.0550	-0.2168	9.39	3.40	-0.750			
0.7394	47321.26	3.0520	3.0520	-0.2161	9.40	3.41	-0.750			
0.7400	47362.79	3.0490	3.0490	-0.2153	9.41	3.42	-0.750			
0.7407	47404.04	3.0460	3.0460	-0.2144	9.42	3.43	-0.750			
0.7413	47445.13	3.0430	3.0429	-0.2121	9.43	3.44	-0.750			
0.7420	47485.62	3.0400	3.0399	-0.2111	9.44	3.45	-0.750			
0.7426	47526.08	3.0370	3.0372	-0.2100	9.45	3.46	-0.750			
0.7432	47566.30	3.0340	3.0340	-0.2089	9.46	3.47	-0.750			
0.7439	47606.41	3.0310	3.0309	-0.2080	9.47	3.48	-0.750			
0.7445	47646.19	3.0280	3.0280	-0.2054	9.48	3.49	-0.750			
0.7451	47685.32	3.0250	3.0251	-0.2045	9.49	3.50	-0.750			
0.7457	47724.52	3.0220	3.0220	-0.2034	9.50	3.51	-0.750			
0.7463	47763.55	3.0190	3.0191	-0.2033	9.51	3.52	-0.750			
0.7469	47802.00	3.0160	3.0159	-0.2020	9.52	3.53	-0.750			
0.7475	47840.98	3.0130	3.0129	-0.2016	9.53	3.54	-0.750			
0.7481	47879.58	3.0100	3.0101	-0.2013	9.54	3.55	-0.750			
0.7487	47918.31	3.0070	3.0070	-0.2011	9.55	3.56	-0.750			
0.7493	47957.38	3.0040	3.0040	-0.1984	9.56	3.57	-0.750			
0.7499	47995.16	3.0010	3.0010	-0.1947	9.57	3.58	-0.750			
