Ah_balance (normalized)	Ah_balance (mAh)	Voltage - fit (V)	Voltage -  interpolate (V)	dQ/dV (1/V)	Temperature (°C)	Temperature - diff (°C)	Current (C)	R_DC 0ms (mOhm)	R_DC 50ms (mOhm)	R_DC 50 ms PEC (mOhm)
0.0001	8.10	4.1130	4.1119	-0.0255	5.97	-0.01	-0.750			
0.0003	17.74	4.1100	4.1093	-0.0663	5.97	-0.01	-0.750			
0.0005	33.98	4.1070	4.1065	-0.0968	5.97	-0.01	-0.750			
0.0009	55.30	4.1040	4.1040	-0.1253	5.97	-0.01	-0.750			
0.0013	82.64	4.1010	4.1011	-0.1511	5.98	-0.00	-0.750			
0.0018	114.40	4.0980	4.0981	-0.1759	5.98	-0.00	-0.750			
0.0024	152.42	4.0950	4.0951	-0.2010	5.98	-0.00	-0.750			
0.0030	192.84	4.0920	4.0920	-0.2233	5.98	-0.00	-0.750			
0.0037	237.16	4.0890	4.0890	-0.2470	5.98	-0.00	-0.750			
0.0045	286.95	4.0860	4.0860	-0.2695	5.98	-0.00	-0.750			
0.0053	340.69	4.0830	4.0830	-0.2926	5.98	-0.00	-0.750			
0.0062	399.45	4.0800	4.0800	-0.3151	5.98	-0.00	-0.750			
0.0072	462.64	4.0770	4.0772	-0.3367	5.98	-0.00	-0.750			
0.0083	530.10	4.0740	4.0740	-0.3555	5.98	0.00	-0.750			
0.0094	599.81	4.0710	4.0711	-0.3735	5.98	0.00	-0.750			
0.0105	672.16	4.0680	4.0681	-0.3990	5.98	0.00	-0.750			
0.0117	749.15	4.0650	4.0648	-0.4230	5.98	0.00	-0.750			
0.0130	833.06	4.0620	4.0620	-0.4477	5.98	0.00	-0.750			
0.0144	922.07	4.0590	4.0589	-0.4737	5.99	0.01	-0.750			
0.0159	1017.05	4.0560	4.0561	-0.4978	5.99	0.01	-0.750			
0.0174	1116.26	4.0530	4.0530	-0.5170	5.99	0.01	-0.750			
0.0190	1217.66	4.0500	4.0499	-0.5295	5.99	0.01	-0.750			
0.0206	1320.42	4.0470	4.0470	-0.5399	5.99	0.01	-0.750			
0.0222	1423.64	4.0440	4.0442	-0.5565	5.99	0.01	-0.750			
0.0239	1531.66	4.0410	4.0408	-0.5738	5.99	0.01	-0.750			
0.0256	1641.34	4.0380	4.0381	-0.5970	5.99	0.01	-0.750			
0.0275	1759.88	4.0350	4.0349	-0.6134	6.00	0.02	-0.750			
0.0294	1881.33	4.0320	4.0320	-0.6321	6.00	0.02	-0.750			
0.0313	2004.99	4.0290	4.0290	-0.6489	6.00	0.02	-0.750			
0.0333	2131.66	4.0260	4.0260	-0.6600	6.00	0.02	-0.750			
0.0353	2259.36	4.0230	4.0228	-0.6626	6.01	0.03	-0.750			
0.0373	2386.71	4.0200	4.0200	-0.6680	6.01	0.03	-0.750			
0.0393	2514.37	4.0170	4.0172	-0.6779	6.02	0.04	-0.750			
0.0414	2648.90	4.0140	4.0139	-0.6853	6.02	0.04	-0.750			
0.0434	2779.79	4.0110	4.0109	-0.6937	6.03	0.05	-0.750			
0.0455	2913.24	4.0080	4.0082	-0.6993	6.03	0.05	-0.750			
0.0476	3049.00	4.0050	4.0050	-0.7058	6.04	0.06	-0.750			
0.0498	3184.39	4.0020	4.0019	-0.7174	6.05	0.07	-0.750			
0.0519	3319.99	3.9990	3.9992	-0.7206	6.05	0.07	-0.750			
0.0541	3462.28	3.9960	3.9959	-0.7307	6.06	0.08	-0.750			
0.0564	3606.71	3.9930	3.9929	-0.7355	6.07	0.09	-0.750			
0.0585	3746.05	3.9900	3.9900	-0.7347	6.07	0.09	-0.750			
0.0608	3888.45	3.9870	3.9870	-0.7377	6.08	0.10	-0.750			
0.0630	4030.49	3.9840	3.9839	-0.7367	6.09	0.11	-0.750			
0.0651	4168.88	3.9810	3.9810	-0.7321	6.10	0.12	-0.750			
0.0674	4310.60	3.9780	3.9780	-0.7363	6.10	0.12	-0.750			
0.0696	4453.19	3.9750	3.9752	-0.7384	6.11	0.13	-0.750			
0.0718	4594.06	3.9720	3.9719	-0.7405	6.11	0.13	-0.750			
0.0740	4733.97	3.9690	3.9690	-0.7441	6.12	0.14	-0.750			
0.0762	4877.87	3.9660	3.9660	-0.7520	6.13	0.15	-0.750			
0.0785	5022.26	3.9630	3.9630	-0.7596	6.13	0.15	-0.750			
0.0808	5171.11	3.9600	3.9600	-0.7648	6.14	0.16	-0.750			
0.0831	5320.17	3.9570	3.9570	-0.7651	6.14	0.16	-0.750			
0.0854	5467.72	3.9540	3.9540	-0.7699	6.15	0.17	-0.750			
0.0877	5615.85	3.9510	3.9510	-0.7677	6.16	0.18	-0.750			
0.0901	5763.20	3.9480	3.9480	-0.7633	6.17	0.19	-0.750			
0.0923	5909.03	3.9450	3.9450	-0.7644	6.18	0.20	-0.750			
0.0946	6053.60	3.9420	3.9420	-0.7668	6.19	0.21	-0.750			
0.0969	6201.85	3.9390	3.9389	-0.7713	6.20	0.22	-0.750			
0.0992	6350.50	3.9360	3.9358	-0.7758	6.21	0.23	-0.750			
0.1015	6498.40	3.9330	3.9331	-0.7770	6.22	0.24	-0.750			
0.1039	6651.10	3.9300	3.9301	-0.7864	6.23	0.25	-0.750			
0.1063	6801.75	3.9270	3.9268	-0.7815	6.24	0.26	-0.750			
0.1086	6951.04	3.9240	3.9240	-0.7775	6.24	0.26	-0.750			
0.1109	7098.35	3.9210	3.9211	-0.7873	6.25	0.27	-0.750			
0.1133	7249.16	3.9180	3.9178	-0.7956	6.26	0.28	-0.750			
0.1157	7403.92	3.9150	3.9149	-0.7994	6.27	0.29	-0.750			
0.1181	7558.65	3.9120	3.9121	-0.8052	6.27	0.29	-0.750			
0.1206	7716.00	3.9090	3.9091	-0.8128	6.28	0.30	-0.750			
0.1230	7874.38	3.9060	3.9061	-0.8113	6.29	0.31	-0.750			
0.1255	8030.27	3.9030	3.9028	-0.8044	6.30	0.32	-0.750			
0.1279	8182.62	3.9000	3.9001	-0.7961	6.31	0.33	-0.750			
0.1302	8334.85	3.8970	3.8970	-0.7931	6.31	0.33	-0.750			
0.1326	8486.04	3.8940	3.8941	-0.7953	6.32	0.34	-0.750			
0.1349	8635.93	3.8910	3.8910	-0.7939	6.33	0.35	-0.750			
0.1373	8786.78	3.8880	3.8880	-0.8091	6.34	0.36	-0.750			
0.1398	8944.51	3.8850	3.8848	-0.8183	6.36	0.38	-0.750			
0.1423	9106.27	3.8820	3.8819	-0.8275	6.37	0.39	-0.750			
0.1448	9266.98	3.8790	3.8793	-0.8241	6.38	0.40	-0.750			
0.1473	9426.94	3.8760	3.8760	-0.8248	6.39	0.41	-0.750			
0.1498	9585.48	3.8730	3.8730	-0.8219	6.40	0.42	-0.750			
0.1522	9739.75	3.8700	3.8700	-0.8157	6.40	0.42	-0.750			
0.1546	9895.87	3.8670	3.8668	-0.8141	6.41	0.43	-0.750			
0.1571	10051.89	3.8640	3.8643	-0.8165	6.42	0.44	-0.750			
0.1595	10210.13	3.8610	3.8609	-0.8183	6.43	0.45	-0.750			
0.1620	10364.90	3.8580	3.8580	-0.8253	6.44	0.46	-0.750			
0.1644	10523.18	3.8550	3.8550	-0.8261	6.45	0.47	-0.750			
0.1669	10684.64	3.8520	3.8519	-0.8350	6.46	0.48	-0.750			
0.1694	10843.89	3.8490	3.8491	-0.8343	6.47	0.49	-0.750			
0.1720	11006.01	3.8460	3.8460	-0.8363	6.48	0.50	-0.750			
0.1745	11165.53	3.8430	3.8429	-0.8419	6.49	0.51	-0.750			
0.1770	11329.94	3.8400	3.8400	-0.8383	6.50	0.52	-0.750			
0.1795	11489.41	3.8370	3.8368	-0.8331	6.51	0.53	-0.750			
0.1821	11652.08	3.8340	3.8343	-0.8355	6.52	0.54	-0.750			
0.1846	11811.24	3.8310	3.8310	-0.8324	6.53	0.55	-0.750			
0.1870	11969.35	3.8280	3.8279	-0.8359	6.54	0.56	-0.750			
0.1895	12128.98	3.8250	3.8250	-0.8408	6.55	0.57	-0.750			
0.1920	12290.06	3.8220	3.8219	-0.8477	6.56	0.58	-0.750			
0.1946	12454.61	3.8190	3.8193	-0.8569	6.57	0.59	-0.750			
0.1972	12619.34	3.8160	3.8159	-0.8650	6.58	0.60	-0.750			
0.1998	12787.45	3.8130	3.8130	-0.8673	6.59	0.61	-0.750			
0.2024	12953.02	3.8100	3.8100	-0.8658	6.59	0.61	-0.750			
0.2050	13122.53	3.8070	3.8069	-0.8698	6.60	0.62	-0.750			
0.2076	13288.40	3.8040	3.8042	-0.8652	6.61	0.63	-0.750			
0.2102	13454.18	3.8010	3.8009	-0.8630	6.62	0.64	-0.750			
0.2128	13619.36	3.7980	3.7980	-0.8634	6.63	0.65	-0.750			
0.2154	13787.43	3.7950	3.7950	-0.8578	6.64	0.66	-0.750			
0.2180	13952.22	3.7920	3.7919	-0.8564	6.65	0.67	-0.750			
0.2206	14115.33	3.7890	3.7892	-0.8502	6.66	0.68	-0.750			
0.2231	14275.52	3.7860	3.7861	-0.8600	6.67	0.69	-0.750			
0.2256	14439.54	3.7830	3.7829	-0.8605	6.68	0.70	-0.750			
0.2282	14603.35	3.7800	3.7800	-0.8616	6.69	0.71	-0.750			
0.2308	14773.27	3.7770	3.7770	-0.8719	6.70	0.72	-0.750			
0.2335	14944.82	3.7740	3.7738	-0.8800	6.71	0.73	-0.750			
0.2361	15111.68	3.7710	3.7710	-0.8803	6.73	0.75	-0.750			
0.2387	15279.14	3.7680	3.7681	-0.8791	6.74	0.76	-0.750			
0.2414	15447.35	3.7650	3.7649	-0.8753	6.75	0.77	-0.750			
0.2440	15617.54	3.7620	3.7619	-0.8859	6.76	0.78	-0.750			
0.2466	15785.41	3.7590	3.7591	-0.8935	6.77	0.79	-0.750			
0.2493	15957.78	3.7560	3.7559	-0.8982	6.77	0.79	-0.750			
0.2521	16132.98	3.7530	3.7529	-0.8982	6.78	0.80	-0.750			
0.2548	16305.31	3.7500	3.7501	-0.8936	6.79	0.81	-0.750			
0.2575	16481.63	3.7470	3.7471	-0.8906	6.80	0.82	-0.750			
0.2602	16650.80	3.7440	3.7440	-0.8879	6.81	0.83	-0.750			
0.2628	16816.71	3.7410	3.7410	-0.8806	6.82	0.84	-0.750			
0.2654	16983.72	3.7380	3.7380	-0.8850	6.83	0.85	-0.750			
0.2680	17154.75	3.7350	3.7348	-0.8952	6.83	0.85	-0.750			
0.2707	17327.61	3.7320	3.7322	-0.9050	6.84	0.86	-0.750			
0.2735	17504.04	3.7290	3.7289	-0.9197	6.85	0.87	-0.750			
0.2763	17683.88	3.7260	3.7261	-0.9214	6.87	0.89	-0.750			
0.2791	17860.25	3.7230	3.7228	-0.9188	6.88	0.90	-0.750			
0.2818	18038.08	3.7200	3.7203	-0.9207	6.89	0.91	-0.750			
0.2846	18212.07	3.7170	3.7169	-0.9313	6.90	0.92	-0.750			
0.2874	18393.03	3.7140	3.7139	-0.9296	6.91	0.93	-0.750			
0.2902	18572.27	3.7110	3.7109	-0.9296	6.92	0.94	-0.750			
0.2930	18750.10	3.7080	3.7082	-0.9339	6.92	0.94	-0.750			
0.2958	18933.35	3.7050	3.7050	-0.9456	6.93	0.95	-0.750			
0.2987	19114.19	3.7020	3.7019	-0.9486	6.94	0.96	-0.750			
0.3015	19295.19	3.6990	3.6990	-0.9529	6.95	0.97	-0.750			
0.3043	19478.38	3.6960	3.6960	-0.9591	6.96	0.98	-0.750			
0.3073	19667.44	3.6930	3.6931	-0.9655	6.97	0.99	-0.750			
0.3102	19851.74	3.6900	3.6900	-0.9737	6.98	1.00	-0.750			
0.3131	20039.40	3.6870	3.6870	-0.9713	6.98	1.00	-0.750			
0.3160	20224.34	3.6840	3.6840	-0.9758	6.99	1.01	-0.750			
0.3189	20412.67	3.6810	3.6809	-0.9843	7.00	1.02	-0.750			
0.3219	20599.20	3.6780	3.6781	-1.0019	7.01	1.03	-0.750			
0.3249	20792.16	3.6750	3.6750	-1.0213	7.02	1.04	-0.750			
0.3280	20993.57	3.6720	3.6719	-1.0285	7.03	1.05	-0.750			
0.3311	21191.61	3.6690	3.6689	-1.0335	7.04	1.06	-0.750			
0.3343	21397.57	3.6660	3.6661	-1.0478	7.04	1.06	-0.750			
0.3375	21598.37	3.6630	3.6630	-1.0393	7.05	1.07	-0.750			
0.3406	21796.93	3.6600	3.6599	-1.0363	7.06	1.08	-0.750			
0.3436	21990.70	3.6570	3.6570	-1.0314	7.07	1.09	-0.750			
0.3467	22187.60	3.6540	3.6540	-1.0464	7.07	1.09	-0.750			
0.3499	22392.40	3.6510	3.6510	-1.0609	7.08	1.10	-0.750			
0.3531	22595.78	3.6480	3.6478	-1.0676	7.09	1.11	-0.750			
0.3563	22802.62	3.6450	3.6451	-1.0813	7.10	1.12	-0.750			
0.3596	23011.65	3.6420	3.6421	-1.1064	7.11	1.13	-0.750			
0.3629	23227.30	3.6390	3.6389	-1.1134	7.11	1.13	-0.750			
0.3663	23441.26	3.6360	3.6359	-1.1245	7.12	1.14	-0.750			
0.3696	23657.09	3.6330	3.6333	-1.1442	7.13	1.15	-0.750			
0.3732	23883.62	3.6300	3.6300	-1.1621	7.14	1.16	-0.750			
0.3767	24107.64	3.6270	3.6268	-1.1682	7.15	1.17	-0.750			
0.3802	24332.70	3.6240	3.6240	-1.1701	7.16	1.18	-0.750			
0.3837	24558.67	3.6210	3.6211	-1.1820	7.16	1.18	-0.750			
0.3873	24787.55	3.6180	3.6179	-1.1882	7.17	1.19	-0.750			
0.3908	25009.00	3.6150	3.6151	-1.2032	7.17	1.19	-0.750			
0.3944	25242.03	3.6120	3.6121	-1.2291	7.18	1.20	-0.750			
0.3982	25485.43	3.6090	3.6088	-1.2499	7.19	1.21	-0.750			
0.4021	25732.37	3.6060	3.6058	-1.2601	7.19	1.21	-0.750			
0.4059	25975.30	3.6030	3.6036	-1.2685	7.20	1.22	-0.750	0.391	0.922	
0.4097	26218.98	3.6000	3.5999	-1.2734	7.20	1.22	-0.750			
0.4135	26463.43	3.5970	3.5969	-1.2815	7.21	1.23	-0.750			
0.4172	26702.12	3.5940	3.5939	-1.3052	7.22	1.24	-0.750			
0.4211	26952.15	3.5910	3.5911	-1.3287	7.22	1.24	-0.750			
0.4253	27216.76	3.5880	3.5879	-1.3616	7.23	1.25	-0.750			
0.4294	27480.84	3.5850	3.5849	-1.3768	7.24	1.26	-0.750			
0.4336	27750.05	3.5820	3.5821	-1.3857	7.24	1.26	-0.750			
0.4378	28019.64	3.5790	3.5790	-1.3895	7.25	1.27	-0.750			
0.4420	28284.87	3.5760	3.5760	-1.3896	7.26	1.28	-0.750			
0.4460	28546.20	3.5730	3.5731	-1.3848	7.27	1.29	-0.750			
0.4502	28813.77	3.5700	3.5700	-1.4145	7.28	1.30	-0.750			
0.4545	29085.91	3.5670	3.5669	-1.4283	7.29	1.31	-0.750			
0.4588	29362.47	3.5640	3.5641	-1.4431	7.29	1.31	-0.750			
0.4632	29643.29	3.5610	3.5609	-1.4630	7.29	1.31	-0.750			
0.4676	29926.80	3.5580	3.5580	-1.4838	7.30	1.32	-0.750			
0.4720	30207.96	3.5550	3.5550	-1.4960	7.31	1.33	-0.750			
0.4765	30496.94	3.5520	3.5520	-1.5239	7.32	1.34	-0.750			
0.4811	30791.64	3.5490	3.5489	-1.5349	7.33	1.35	-0.750			
0.4859	31094.52	3.5460	3.5460	-1.5489	7.33	1.35	-0.750			
0.4906	31396.82	3.5430	3.5430	-1.5447	7.34	1.36	-0.750			
0.4952	31692.23	3.5400	3.5402	-1.5580	7.34	1.36	-0.750			
0.4998	31988.50	3.5370	3.5370	-1.5555	7.35	1.37	-0.750			
0.5044	32284.58	3.5340	3.5339	-1.5819	7.36	1.38	-0.750			
0.5093	32597.86	3.5310	3.5307	-1.5933	7.37	1.39	-0.750			
0.5142	32907.60	3.5280	3.5280	-1.6178	7.38	1.40	-0.750			
0.5191	33223.94	3.5250	3.5253	-1.6145	7.38	1.40	-0.750			
0.5240	33537.42	3.5220	3.5220	-1.6124	7.39	1.41	-0.750			
0.5289	33846.87	3.5190	3.5189	-1.6147	7.40	1.42	-0.750			
0.5336	34152.39	3.5160	3.5158	-1.5985	7.41	1.43	-0.750			
0.5384	34455.81	3.5130	3.5133	-1.6074	7.42	1.44	-0.750			
0.5433	34769.30	3.5100	3.5101	-1.6122	7.43	1.45	-0.750			
0.5481	35077.99	3.5070	3.5069	-1.5996	7.44	1.46	-0.750			
0.5530	35393.09	3.5040	3.5041	-1.5899	7.45	1.47	-0.750			
0.5578	35698.20	3.5010	3.5012	-1.5836	7.46	1.48	-0.750			
0.5625	35997.92	3.4980	3.4978	-1.5763	7.47	1.49	-0.750			
0.5671	36293.00	3.4950	3.4950	-1.5772	7.48	1.50	-0.750			
0.5718	36593.22	3.4920	3.4921	-1.5792	7.48	1.50	-0.750			
0.5766	36904.09	3.4890	3.4889	-1.5995	7.50	1.52	-0.750			
0.5814	37211.91	3.4860	3.4859	-1.6036	7.51	1.53	-0.750			
0.5863	37524.25	3.4830	3.4831	-1.5817	7.52	1.54	-0.750			
0.5911	37831.94	3.4800	3.4802	-1.5667	7.53	1.55	-0.750			
0.5958	38129.05	3.4770	3.4772	-1.5552	7.54	1.56	-0.750			
0.6004	38425.05	3.4740	3.4739	-1.5302	7.55	1.57	-0.750			
0.6049	38714.50	3.4710	3.4709	-1.5214	7.56	1.58	-0.750			
0.6095	39004.84	3.4680	3.4677	-1.5106	7.58	1.60	-0.750			
0.6140	39296.89	3.4650	3.4651	-1.4983	7.59	1.61	-0.750			
0.6185	39585.43	3.4620	3.4619	-1.4849	7.60	1.62	-0.750			
0.6229	39866.68	3.4590	3.4591	-1.4545	7.61	1.63	-0.750			
0.6272	40143.29	3.4560	3.4560	-1.4371	7.62	1.64	-0.750			
0.6316	40422.12	3.4530	3.4529	-1.4360	7.63	1.65	-0.750			
0.6359	40695.44	3.4500	3.4499	-1.4098	7.64	1.66	-0.750			
0.6402	40969.62	3.4470	3.4469	-1.3868	7.65	1.67	-0.750			
0.6443	41233.22	3.4440	3.4442	-1.3561	7.66	1.68	-0.750			
0.6483	41490.89	3.4410	3.4410	-1.3240	7.67	1.69	-0.750			
0.6522	41740.72	3.4380	3.4381	-1.2981	7.68	1.70	-0.750			
0.6560	41981.71	3.4350	3.4348	-1.2745	7.70	1.72	-0.750			
0.6597	42222.95	3.4320	3.4320	-1.2627	7.71	1.73	-0.750			
0.6635	42464.58	3.4290	3.4290	-1.2452	7.72	1.74	-0.750			
0.6673	42708.85	3.4260	3.4258	-1.2321	7.73	1.75	-0.750			
0.6710	42943.25	3.4230	3.4231	-1.1958	7.74	1.76	-0.750			
0.6745	43169.24	3.4200	3.4201	-1.1684	7.76	1.78	-0.750			
0.6780	43389.97	3.4170	3.4170	-1.1339	7.77	1.79	-0.750			
0.6813	43602.47	3.4140	3.4140	-1.0957	7.79	1.81	-0.750			
0.6845	43810.71	3.4110	3.4109	-1.0658	7.80	1.82	-0.750			
0.6877	44014.19	3.4080	3.4081	-1.0358	7.81	1.83	-0.750			
0.6908	44209.92	3.4050	3.4049	-1.0021	7.82	1.84	-0.750			
0.6937	44398.66	3.4020	3.4019	-0.9735	7.83	1.85	-0.750			
0.6965	44578.64	3.3990	3.3991	-0.9410	7.84	1.86	-0.750			
0.6994	44758.78	3.3960	3.3959	-0.9220	7.85	1.87	-0.750			
0.7021	44934.01	3.3930	3.3930	-0.8958	7.86	1.88	-0.750			
0.7048	45104.03	3.3900	3.3900	-0.8729	7.87	1.89	-0.750			
0.7073	45269.75	3.3870	3.3872	-0.8455	7.88	1.90	-0.750			
0.7098	45429.86	3.3840	3.3838	-0.8204	7.89	1.91	-0.750			
0.7122	45583.55	3.3810	3.3812	-0.7983	7.90	1.92	-0.750			
0.7146	45732.60	3.3780	3.3780	-0.7762	7.92	1.94	-0.750			
0.7169	45881.83	3.3750	3.3749	-0.7596	7.93	1.95	-0.750			
0.7191	46025.53	3.3720	3.3719	-0.7387	7.94	1.96	-0.750			
0.7213	46165.11	3.3690	3.3690	-0.7123	7.95	1.97	-0.750			
0.7234	46300.71	3.3660	3.3659	-0.6881	7.96	1.98	-0.750			
0.7255	46429.08	3.3630	3.3631	-0.6640	7.97	1.99	-0.750			
0.7274	46553.94	3.3600	3.3600	-0.6391	7.98	2.00	-0.750			
0.7293	46673.83	3.3570	3.3570	-0.6166	7.99	2.01	-0.750			
0.7311	46789.51	3.3540	3.3540	-0.5996	8.00	2.02	-0.750			
0.7328	46902.03	3.3510	3.3511	-0.5791	8.01	2.03	-0.750			
0.7346	47011.85	3.3480	3.3479	-0.5676	8.02	2.04	-0.750			
0.7362	47118.32	3.3450	3.3449	-0.5515	8.03	2.05	-0.750			
0.7379	47222.82	3.3420	3.3422	-0.5349	8.04	2.06	-0.750			
0.7394	47324.56	3.3390	3.3390	-0.5265	8.05	2.07	-0.750			
0.7410	47424.31	3.3360	3.3361	-0.5138	8.06	2.08	-0.750			
0.7425	47521.89	3.3330	3.3329	-0.5015	8.07	2.09	-0.750			
0.7440	47617.58	3.3300	3.3299	-0.4866	8.08	2.10	-0.750			
0.7454	47708.73	3.3270	3.3270	-0.4704	8.08	2.10	-0.750			
0.7468	47798.09	3.3240	3.3241	-0.4583	8.10	2.12	-0.750			
0.7482	47884.85	3.3210	3.3209	-0.4439	8.10	2.12	-0.750			
0.7495	47967.16	3.3180	3.3180	-0.4275	8.11	2.13	-0.750			
0.7508	48048.73	3.3150	3.3150	-0.4170	8.12	2.14	-0.750			
0.7520	48127.23	3.3120	3.3121	-0.4054	8.13	2.15	-0.750			
0.7532	48204.24	3.3090	3.3090	-0.3958	8.14	2.16	-0.750			
0.7544	48278.67	3.3060	3.3060	-0.3829	8.15	2.17	-0.750			
0.7555	48350.85	3.3030	3.3029	-0.3739	8.16	2.18	-0.750			
0.7566	48421.09	3.3000	3.3001	-0.3673	8.17	2.19	-0.750			
0.7577	48490.59	3.2970	3.2971	-0.3615	8.17	2.19	-0.750			
0.7587	48559.46	3.2940	3.2939	-0.3550	8.18	2.20	-0.750			
0.7598	48627.43	3.2910	3.2910	-0.3484	8.19	2.21	-0.750			
0.7608	48694.35	3.2880	3.2880	-0.3388	8.20	2.22	-0.750			
0.7619	48758.76	3.2850	3.2850	-0.3315	8.21	2.23	-0.750			
0.7628	48820.65	3.2820	3.2821	-0.3220	8.21	2.23	-0.750			
0.7638	48881.37	3.2790	3.2788	-0.3138	8.22	2.24	-0.750			
0.7647	48940.53	3.2760	3.2760	-0.3061	8.23	2.25	-0.750			
0.7656	48999.00	3.2730	3.2730	-0.3003	8.24	2.26	-0.750			
0.7665	49055.90	3.2700	3.2701	-0.2976	8.24	2.26	-0.750			
0.7674	49113.33	3.2670	3.2669	-0.2911	8.25	2.27	-0.750			
0.7682	49167.59	3.2640	3.2639	-0.2835	8.26	2.28	-0.750			
0.7691	49221.73	3.2610	3.2610	-0.2790	8.26	2.28	-0.750			
0.7699	49274.88	3.2580	3.2583	-0.2738	8.27	2.29	-0.750			
0.7707	49326.77	3.2550	3.2549	-0.2684	8.28	2.30	-0.750			
0.7715	49377.64	3.2520	3.2520	-0.2625	8.29	2.31	-0.750			
0.7723	49426.86	3.2490	3.2491	-0.2565	8.30	2.32	-0.750			
0.7731	49476.82	3.2460	3.2459	-0.2534	8.30	2.32	-0.750			
0.7738	49524.20	3.2430	3.2431	-0.2481	8.31	2.33	-0.750			
0.7746	49571.54	3.2400	3.2400	-0.2443	8.32	2.34	-0.750			
0.7753	49618.37	3.2370	3.2370	-0.2397	8.33	2.35	-0.750			
0.7760	49664.10	3.2340	3.2340	-0.2353	8.33	2.35	-0.750			
0.7767	49708.80	3.2310	3.2310	-0.2308	8.34	2.36	-0.750			
0.7774	49752.43	3.2280	3.2281	-0.2277	8.35	2.37	-0.750			
0.7781	49795.60	3.2250	3.2251	-0.2243	8.35	2.37	-0.750			
0.7787	49838.25	3.2220	3.2218	-0.2210	8.36	2.38	-0.750			
0.7794	49880.01	3.2190	3.2190	-0.2172	8.37	2.39	-0.750			
0.7800	49921.26	3.2160	3.2161	-0.2161	8.37	2.39	-0.750			
0.7807	49963.32	3.2130	3.2130	-0.2134	8.38	2.40	-0.750			
0.7813	50004.32	3.2100	3.2099	-0.2085	8.38	2.40	-0.750			
0.7819	50044.28	3.2070	3.2069	-0.2041	8.39	2.41	-0.750			
0.7825	50082.90	3.2040	3.2041	-0.2001	8.39	2.41	-0.750			
0.7831	50120.83	3.2010	3.2010	-0.1967	8.40	2.42	-0.750			
0.7837	50157.93	3.1980	3.1979	-0.1935	8.41	2.43	-0.750			
0.7843	50194.28	3.1950	3.1949	-0.1900	8.41	2.43	-0.750			
0.7848	50229.87	3.1920	3.1921	-0.1869	8.42	2.44	-0.750			
0.7854	50265.89	3.1890	3.1890	-0.1857	8.43	2.45	-0.750			
0.7860	50301.79	3.1860	3.1860	-0.1839	8.43	2.45	-0.750			
0.7865	50336.83	3.1830	3.1830	-0.1811	8.44	2.46	-0.750			
0.7870	50371.14	3.1800	3.1800	-0.1790	8.45	2.47	-0.750			
0.7876	50405.28	3.1770	3.1770	-0.1768	8.45	2.47	-0.750			
0.7881	50439.06	3.1740	3.1739	-0.1743	8.46	2.48	-0.750			
0.7886	50472.31	3.1710	3.1710	-0.1720	8.46	2.48	-0.750			
0.7891	50505.30	3.1680	3.1680	-0.1692	8.47	2.49	-0.750			
0.7896	50537.28	3.1650	3.1650	-0.1672	8.48	2.50	-0.750			
0.7901	50569.17	3.1620	3.1620	-0.1654	8.48	2.50	-0.750			
0.7906	50600.74	3.1590	3.1590	-0.1634	8.49	2.51	-0.750			
0.7911	50631.69	3.1560	3.1559	-0.1609	8.49	2.51	-0.750			
0.7916	50662.51	3.1530	3.1531	-0.1588	8.50	2.52	-0.750			
0.7921	50693.03	3.1500	3.1501	-0.1571	8.50	2.52	-0.750			
0.7925	50722.91	3.1470	3.1470	-0.1549	8.51	2.53	-0.750			
0.7930	50752.36	3.1440	3.1440	-0.1537	8.51	2.53	-0.750			
0.7935	50781.42	3.1410	3.1411	-0.1513	8.52	2.54	-0.750			
0.7939	50810.36	3.1380	3.1379	-0.1501	8.52	2.54	-0.750			
0.7944	50839.11	3.1350	3.1349	-0.1480	8.53	2.55	-0.750			
0.7948	50867.37	3.1320	3.1322	-0.1471	8.53	2.55	-0.750			
0.7952	50895.36	3.1290	3.1290	-0.1460	8.54	2.56	-0.750			
0.7957	50923.28	3.1260	3.1261	-0.1448	8.54	2.56	-0.750			
0.7961	50950.93	3.1230	3.1229	-0.1432	8.55	2.57	-0.750			
0.7965	50978.25	3.1200	3.1200	-0.1411	8.55	2.57	-0.750			
0.7970	51005.44	3.1170	3.1171	-0.1403	8.56	2.58	-0.750			
0.7974	51032.19	3.1140	3.1141	-0.1384	8.57	2.59	-0.750			
0.7978	51058.83	3.1110	3.1110	-0.1368	8.57	2.59	-0.750			
0.7982	51084.55	3.1080	3.1080	-0.1346	8.58	2.60	-0.750			
0.7986	51110.22	3.1050	3.1049	-0.1326	8.58	2.60	-0.750			
0.7990	51135.55	3.1020	3.1022	-0.1312	8.59	2.61	-0.750			
0.7994	51160.63	3.0990	3.0990	-0.1301	8.59	2.61	-0.750			
0.7998	51185.31	3.0960	3.0961	-0.1290	8.60	2.62	-0.750			
0.8002	51209.80	3.0930	3.0930	-0.1275	8.60	2.62	-0.750			
0.8005	51234.31	3.0900	3.0899	-0.1267	8.61	2.63	-0.750			
0.8009	51258.55	3.0870	3.0870	-0.1259	8.62	2.64	-0.750			
0.8013	51282.64	3.0840	3.0839	-0.1249	8.62	2.64	-0.750			
0.8017	51306.73	3.0810	3.0810	-0.1244	8.63	2.65	-0.750			
0.8020	51330.50	3.0780	3.0781	-0.1231	8.63	2.65	-0.750			
0.8024	51354.03	3.0750	3.0749	-0.1219	8.64	2.66	-0.750			
0.8028	51377.24	3.0720	3.0720	-0.1208	8.64	2.66	-0.750			
0.8031	51400.21	3.0690	3.0691	-0.1195	8.65	2.67	-0.750			
0.8035	51422.99	3.0660	3.0661	-0.1188	8.65	2.67	-0.750			
0.8038	51445.68	3.0630	3.0630	-0.1180	8.66	2.68	-0.750			
0.8042	51468.32	3.0600	3.0599	-0.1171	8.66	2.68	-0.750			
0.8045	51490.68	3.0570	3.0569	-0.1163	8.66	2.68	-0.750			
0.8049	51513.06	3.0540	3.0541	-0.1152	8.67	2.69	-0.750			
0.8052	51535.25	3.0510	3.0509	-0.1144	8.67	2.69	-0.750			
0.8056	51557.00	3.0480	3.0481	-0.1134	8.68	2.70	-0.750			
0.8059	51578.70	3.0450	3.0450	-0.1124	8.68	2.70	-0.750			
0.8063	51600.11	3.0420	3.0420	-0.1116	8.69	2.71	-0.750			
0.8066	51621.27	3.0390	3.0390	-0.1105	8.69	2.71	-0.750			
0.8069	51642.46	3.0360	3.0360	-0.1097	8.70	2.72	-0.750			
0.8072	51663.43	3.0330	3.0330	-0.1090	8.70	2.72	-0.750			
0.8076	51684.37	3.0300	3.0300	-0.1080	8.70	2.72	-0.750			
0.8079	51705.18	3.0270	3.0269	-0.1073	8.71	2.73	-0.750			
0.8082	51725.54	3.0240	3.0240	-0.1067	8.71	2.73	-0.750			
0.8085	51745.84	3.0210	3.0211	-0.1058	8.72	2.74	-0.750			
0.8088	51766.03	3.0180	3.0180	-0.1053	8.72	2.74	-0.750			
0.8092	51786.08	3.0150	3.0149	-0.1046	8.72	2.74	-0.750			
0.8095	51806.14	3.0120	3.0120	-0.1043	8.73	2.75	-0.750			
0.8098	51826.04	3.0090	3.0090	-0.1042	8.73	2.75	-0.750			
0.8101	51846.03	3.0060	3.0060	-0.1041	8.74	2.76	-0.750			
0.8104	51865.99	3.0030	3.0031	-0.1026	8.74	2.76	-0.750			
