Ah_balance (normalized)	Ah_balance (mAh)	Voltage - fit (V)	Voltage -  interpolate (V)	dQ/dV (1/V)	Temperature (°C)	Temperature - diff (°C)	Current (C)	R_DC 0ms (mOhm)	R_DC 50ms (mOhm)	R_DC 50 ms PEC (mOhm)
0.0000	0.00	4.0900	4.1339	0.0000	5.99	-0.00	-0.751			
0.0000	0.00	4.0930	4.1339	0.0000	5.99	-0.00	-0.751			
0.0000	0.00	4.0960	4.1339	0.0000	5.99	-0.00	-0.751			
0.0002	15.06	4.0870	4.0871	-0.0588	5.99	-0.00	-0.750			
0.0005	29.34	4.0840	4.0840	-0.0855	5.99	-0.00	-0.750			
0.0008	48.88	4.0810	4.0808	-0.1111	5.99	-0.00	-0.750			
0.0011	72.74	4.0780	4.0779	-0.1374	5.99	0.00	-0.750			
0.0016	101.85	4.0750	4.0751	-0.1594	5.99	0.00	-0.750			
0.0021	134.77	4.0720	4.0722	-0.1813	5.99	0.00	-0.750			
0.0027	174.11	4.0690	4.0690	-0.2049	5.99	0.00	-0.750			
0.0034	214.93	4.0660	4.0661	-0.2282	5.99	0.00	-0.750			
0.0041	260.73	4.0630	4.0630	-0.2497	5.99	0.00	-0.750			
0.0049	310.71	4.0600	4.0599	-0.2700	5.99	0.00	-0.750			
0.0057	364.52	4.0570	4.0572	-0.2917	5.99	0.00	-0.750			
0.0066	422.86	4.0540	4.0540	-0.3122	5.99	0.00	-0.750			
0.0076	485.48	4.0510	4.0509	-0.3322	6.00	0.01	-0.750			
0.0086	550.55	4.0480	4.0480	-0.3543	6.00	0.01	-0.750			
0.0097	620.29	4.0450	4.0451	-0.3740	6.00	0.01	-0.750			
0.0109	694.74	4.0420	4.0419	-0.3956	6.00	0.01	-0.750			
0.0121	773.00	4.0390	4.0390	-0.4175	6.00	0.01	-0.750			
0.0134	855.03	4.0360	4.0361	-0.4380	6.00	0.01	-0.750			
0.0147	940.89	4.0330	4.0330	-0.4619	6.00	0.01	-0.750			
0.0161	1031.17	4.0300	4.0301	-0.4868	6.00	0.01	-0.750			
0.0176	1126.68	4.0270	4.0269	-0.5075	6.00	0.01	-0.750			
0.0192	1227.10	4.0240	4.0240	-0.5277	6.00	0.01	-0.750			
0.0208	1332.34	4.0210	4.0211	-0.5471	6.01	0.02	-0.750			
0.0225	1439.82	4.0180	4.0179	-0.5597	6.01	0.02	-0.750			
0.0242	1550.31	4.0150	4.0150	-0.5721	6.01	0.02	-0.750			
0.0259	1659.81	4.0120	4.0122	-0.5838	6.01	0.02	-0.750			
0.0277	1773.02	4.0090	4.0089	-0.5899	6.01	0.02	-0.750			
0.0295	1887.74	4.0060	4.0060	-0.6005	6.02	0.03	-0.750			
0.0313	2003.38	4.0030	4.0030	-0.6103	6.02	0.03	-0.750			
0.0332	2122.38	4.0000	4.0002	-0.6195	6.02	0.03	-0.750			
0.0350	2240.97	3.9970	3.9969	-0.6315	6.02	0.03	-0.750			
0.0369	2362.11	3.9940	3.9940	-0.6435	6.03	0.04	-0.750			
0.0389	2487.91	3.9910	3.9911	-0.6484	6.03	0.04	-0.750			
0.0409	2615.05	3.9880	3.9880	-0.6618	6.04	0.05	-0.750			
0.0429	2742.54	3.9850	3.9851	-0.6638	6.05	0.06	-0.750			
0.0449	2871.19	3.9820	3.9820	-0.6704	6.06	0.07	-0.750			
0.0469	3000.42	3.9790	3.9789	-0.6742	6.06	0.07	-0.750			
0.0489	3128.49	3.9760	3.9760	-0.6775	6.07	0.08	-0.750			
0.0509	3258.74	3.9730	3.9732	-0.6843	6.08	0.09	-0.750			
0.0530	3393.09	3.9700	3.9698	-0.6871	6.09	0.10	-0.750			
0.0551	3524.89	3.9670	3.9670	-0.6878	6.09	0.10	-0.750			
0.0571	3657.33	3.9640	3.9641	-0.6955	6.10	0.11	-0.750			
0.0593	3792.46	3.9610	3.9611	-0.7019	6.11	0.12	-0.750			
0.0613	3926.19	3.9580	3.9578	-0.7049	6.11	0.12	-0.750			
0.0634	4059.63	3.9550	3.9552	-0.7091	6.12	0.13	-0.750			
0.0656	4197.23	3.9520	3.9520	-0.7184	6.13	0.14	-0.750			
0.0678	4337.67	3.9490	3.9489	-0.7258	6.13	0.14	-0.750			
0.0700	4479.69	3.9460	3.9460	-0.7204	6.14	0.15	-0.750			
0.0722	4618.72	3.9430	3.9430	-0.7234	6.15	0.16	-0.750			
0.0743	4756.79	3.9400	3.9400	-0.7200	6.15	0.16	-0.750			
0.0765	4892.92	3.9370	3.9370	-0.7158	6.16	0.17	-0.750			
0.0786	5029.42	3.9340	3.9340	-0.7171	6.17	0.18	-0.750			
0.0807	5166.77	3.9310	3.9310	-0.7256	6.18	0.19	-0.750			
0.0829	5307.47	3.9280	3.9280	-0.7298	6.19	0.20	-0.750			
0.0852	5450.44	3.9250	3.9249	-0.7348	6.20	0.21	-0.750			
0.0873	5590.16	3.9220	3.9219	-0.7342	6.21	0.22	-0.750			
0.0896	5732.61	3.9190	3.9191	-0.7355	6.22	0.23	-0.750			
0.0918	5873.89	3.9160	3.9159	-0.7352	6.23	0.24	-0.750			
0.0940	6014.99	3.9130	3.9130	-0.7355	6.24	0.25	-0.750			
0.0962	6154.53	3.9100	3.9100	-0.7344	6.25	0.26	-0.750			
0.0984	6296.40	3.9070	3.9070	-0.7435	6.26	0.27	-0.750			
0.1006	6440.62	3.9040	3.9041	-0.7448	6.27	0.28	-0.750			
0.1029	6583.37	3.9010	3.9009	-0.7467	6.28	0.29	-0.750			
0.1051	6727.82	3.8980	3.8981	-0.7509	6.28	0.29	-0.750			
0.1074	6872.02	3.8950	3.8950	-0.7536	6.29	0.30	-0.750			
0.1096	7016.37	3.8920	3.8920	-0.7513	6.30	0.31	-0.750			
0.1119	7161.94	3.8890	3.8890	-0.7511	6.30	0.31	-0.750			
0.1141	7305.20	3.8860	3.8861	-0.7530	6.31	0.32	-0.750			
0.1164	7450.78	3.8830	3.8829	-0.7572	6.32	0.33	-0.750			
0.1187	7595.07	3.8800	3.8800	-0.7587	6.33	0.34	-0.750			
0.1210	7741.15	3.8770	3.8769	-0.7598	6.35	0.36	-0.750			
0.1233	7889.21	3.8740	3.8740	-0.7599	6.36	0.37	-0.750			
0.1256	8035.57	3.8710	3.8709	-0.7573	6.37	0.38	-0.750			
0.1278	8179.76	3.8680	3.8680	-0.7608	6.38	0.39	-0.750			
0.1301	8325.53	3.8650	3.8649	-0.7576	6.39	0.40	-0.750			
0.1323	8469.52	3.8620	3.8619	-0.7595	6.40	0.41	-0.750			
0.1346	8613.55	3.8590	3.8591	-0.7657	6.40	0.41	-0.750			
0.1369	8763.72	3.8560	3.8560	-0.7735	6.41	0.42	-0.750			
0.1393	8913.73	3.8530	3.8530	-0.7722	6.42	0.43	-0.750			
0.1416	9062.71	3.8500	3.8500	-0.7691	6.43	0.44	-0.750			
0.1439	9209.09	3.8470	3.8471	-0.7683	6.44	0.45	-0.750			
0.1462	9357.40	3.8440	3.8439	-0.7730	6.45	0.46	-0.750			
0.1485	9503.74	3.8410	3.8409	-0.7733	6.46	0.47	-0.750			
0.1508	9652.20	3.8380	3.8379	-0.7734	6.47	0.48	-0.750			
0.1532	9803.01	3.8350	3.8350	-0.7739	6.48	0.49	-0.750			
0.1555	9952.16	3.8320	3.8320	-0.7718	6.49	0.50	-0.750			
0.1578	10100.23	3.8290	3.8291	-0.7693	6.50	0.51	-0.750			
0.1601	10246.35	3.8260	3.8259	-0.7640	6.51	0.52	-0.750			
0.1623	10390.30	3.8230	3.8230	-0.7627	6.52	0.53	-0.750			
0.1646	10536.91	3.8200	3.8199	-0.7669	6.52	0.53	-0.750			
0.1670	10684.96	3.8170	3.8171	-0.7728	6.53	0.54	-0.750			
0.1693	10834.72	3.8140	3.8139	-0.7725	6.54	0.55	-0.750			
0.1716	10983.70	3.8110	3.8110	-0.7718	6.55	0.56	-0.750			
0.1739	11131.70	3.8080	3.8081	-0.7741	6.55	0.56	-0.750			
0.1762	11279.64	3.8050	3.8051	-0.7735	6.56	0.57	-0.750			
0.1785	11426.54	3.8020	3.8019	-0.7783	6.57	0.58	-0.750			
0.1809	11575.54	3.7990	3.7990	-0.7822	6.58	0.59	-0.750			
0.1832	11726.83	3.7960	3.7960	-0.7868	6.59	0.60	-0.750			
0.1857	11882.22	3.7930	3.7929	-0.7885	6.61	0.62	-0.750			
0.1880	12033.20	3.7900	3.7901	-0.7850	6.62	0.63	-0.750			
0.1903	12181.64	3.7870	3.7870	-0.7817	6.63	0.64	-0.750			
0.1927	12330.51	3.7840	3.7840	-0.7879	6.64	0.65	-0.750			
0.1950	12478.12	3.7810	3.7810	-0.7859	6.65	0.66	-0.750			
0.1974	12630.76	3.7780	3.7779	-0.7953	6.66	0.67	-0.750			
0.1998	12786.82	3.7750	3.7750	-0.7963	6.67	0.68	-0.750			
0.2022	12940.83	3.7720	3.7719	-0.7992	6.67	0.68	-0.750			
0.2046	13093.55	3.7690	3.7692	-0.8010	6.68	0.69	-0.750			
0.2070	13247.38	3.7660	3.7658	-0.8021	6.69	0.70	-0.750			
0.2094	13399.26	3.7630	3.7630	-0.7973	6.70	0.71	-0.750			
0.2118	13554.42	3.7600	3.7599	-0.8007	6.70	0.71	-0.750			
0.2142	13708.64	3.7570	3.7571	-0.8019	6.71	0.72	-0.750			
0.2166	13863.85	3.7540	3.7539	-0.7993	6.72	0.73	-0.750			
0.2190	14016.13	3.7510	3.7510	-0.7945	6.73	0.74	-0.750			
0.2213	14165.84	3.7480	3.7480	-0.7937	6.74	0.75	-0.750			
0.2237	14319.62	3.7450	3.7450	-0.7978	6.74	0.75	-0.750			
0.2261	14473.09	3.7420	3.7422	-0.8040	6.75	0.76	-0.750			
0.2286	14627.45	3.7390	3.7389	-0.8063	6.76	0.77	-0.750			
0.2310	14782.40	3.7360	3.7361	-0.8107	6.77	0.78	-0.750			
0.2334	14939.09	3.7330	3.7331	-0.8148	6.77	0.78	-0.750			
0.2359	15097.05	3.7300	3.7299	-0.8209	6.78	0.79	-0.750			
0.2383	15253.11	3.7270	3.7270	-0.8186	6.79	0.80	-0.750			
0.2408	15408.91	3.7240	3.7241	-0.8312	6.80	0.81	-0.750			
0.2433	15568.31	3.7210	3.7209	-0.8401	6.81	0.82	-0.750			
0.2458	15731.41	3.7180	3.7179	-0.8540	6.81	0.82	-0.750			
0.2484	15898.39	3.7150	3.7150	-0.8575	6.82	0.83	-0.750			
0.2510	16065.91	3.7120	3.7120	-0.8632	6.83	0.84	-0.750			
0.2536	16232.52	3.7090	3.7090	-0.8581	6.84	0.85	-0.750			
0.2562	16396.12	3.7060	3.7061	-0.8584	6.84	0.85	-0.750			
0.2587	16558.45	3.7030	3.7030	-0.8563	6.85	0.86	-0.750			
0.2613	16720.97	3.7000	3.6998	-0.8596	6.85	0.86	-0.750			
0.2638	16886.19	3.6970	3.6970	-0.8661	6.86	0.87	-0.750			
0.2664	17051.94	3.6940	3.6941	-0.8879	6.87	0.88	-0.750			
0.2692	17227.20	3.6910	3.6909	-0.8947	6.88	0.89	-0.750			
0.2719	17402.35	3.6880	3.6879	-0.8973	6.89	0.90	-0.750			
0.2746	17574.49	3.6850	3.6850	-0.8944	6.90	0.91	-0.750			
0.2773	17748.15	3.6820	3.6822	-0.8897	6.90	0.91	-0.750			
0.2799	17916.63	3.6790	3.6789	-0.8931	6.91	0.92	-0.750			
0.2826	18086.95	3.6760	3.6758	-0.8942	6.91	0.92	-0.750			
0.2852	18252.86	3.6730	3.6731	-0.9001	6.91	0.92	-0.750			
0.2880	18430.39	3.6700	3.6700	-0.9185	6.92	0.93	-0.750			
0.2908	18609.17	3.6670	3.6669	-0.9370	6.93	0.94	-0.750			
0.2936	18792.07	3.6640	3.6640	-0.9436	6.93	0.94	-0.750			
0.2965	18975.51	3.6610	3.6610	-0.9510	6.94	0.95	-0.750			
0.2993	19157.69	3.6580	3.6580	-0.9476	6.95	0.96	-0.750			
0.3022	19341.86	3.6550	3.6550	-0.9527	6.95	0.96	-0.750			
0.3050	19521.88	3.6520	3.6520	-0.9607	6.96	0.97	-0.750			
0.3079	19706.48	3.6490	3.6489	-0.9684	6.96	0.97	-0.750			
0.3108	19891.55	3.6460	3.6459	-0.9747	6.97	0.98	-0.750			
0.3138	20083.41	3.6430	3.6430	-0.9824	6.97	0.98	-0.750			
0.3168	20274.71	3.6400	3.6401	-0.9901	6.98	0.99	-0.750			
0.3198	20466.74	3.6370	3.6369	-0.9878	6.98	0.99	-0.750			
0.3227	20654.07	3.6340	3.6341	-0.9911	6.98	0.99	-0.750			
0.3256	20841.48	3.6310	3.6310	-0.9907	6.99	1.00	-0.750			
0.3286	21032.98	3.6280	3.6279	-1.0040	6.99	1.00	-0.750			
0.3317	21226.37	3.6250	3.6251	-1.0125	6.99	1.00	-0.750			
0.3347	21422.27	3.6220	3.6220	-1.0257	7.00	1.01	-0.750			
0.3378	21621.90	3.6190	3.6190	-1.0306	7.00	1.01	-0.750			
0.3410	21821.66	3.6160	3.6160	-1.0457	7.00	1.01	-0.750			
0.3441	22022.06	3.6130	3.6130	-1.0496	7.01	1.02	-0.750			
0.3473	22225.16	3.6100	3.6100	-1.0565	7.01	1.02	-0.750			
0.3504	22427.51	3.6070	3.6070	-1.0685	7.02	1.03	-0.750			
0.3537	22635.31	3.6040	3.6040	-1.0803	7.02	1.03	-0.750			
0.3570	22845.43	3.6010	3.6009	-1.0797	7.03	1.04	-0.750			
0.3602	23055.92	3.5980	3.5979	-1.0846	7.03	1.04	-0.750			
0.3634	23255.74	3.5950	3.5954	-1.1219	7.04	1.05	-0.750			
0.3669	23479.08	3.5920	3.5918	-1.1210	7.04	1.05	-0.750			
0.3703	23698.43	3.5890	3.5886	-1.1114	7.05	1.06	-0.750			
0.3736	23912.19	3.5860	3.5857	-1.1057	7.05	1.06	-0.750			
0.3770	24126.83	3.5830	3.5829	-1.1189	7.05	1.06	-0.750	0.365	0.837	
0.3803	24339.24	3.5800	3.5797	-1.1132	7.05	1.06	-0.750			
0.3835	24545.96	3.5770	3.5769	-1.0971	7.05	1.06	-0.750			
0.3867	24748.18	3.5740	3.5740	-1.0915	7.05	1.06	-0.750			
0.3902	24974.98	3.5710	3.5711	-1.1440	7.05	1.06	-0.750			
0.3937	25194.32	3.5680	3.5678	-1.1531	7.06	1.07	-0.750			
0.3971	25414.59	3.5650	3.5650	-1.1555	7.06	1.07	-0.750			
0.4006	25635.24	3.5620	3.5622	-1.1586	7.07	1.08	-0.750			
0.4041	25863.87	3.5590	3.5590	-1.1822	7.07	1.08	-0.750			
0.4077	26093.04	3.5560	3.5558	-1.1974	7.08	1.09	-0.750			
0.4112	26319.82	3.5530	3.5530	-1.2132	7.08	1.09	-0.750			
0.4149	26553.89	3.5500	3.5500	-1.2289	7.08	1.09	-0.750			
0.4187	26795.54	3.5470	3.5469	-1.2356	7.09	1.10	-0.750			
0.4225	27037.55	3.5440	3.5439	-1.2365	7.09	1.10	-0.750			
0.4262	27274.53	3.5410	3.5414	-1.2323	7.10	1.11	-0.750			
0.4299	27514.90	3.5380	3.5380	-1.2318	7.11	1.12	-0.750			
0.4335	27746.99	3.5350	3.5349	-1.2233	7.11	1.12	-0.750			
0.4372	27978.22	3.5320	3.5320	-1.2305	7.12	1.13	-0.750			
0.4408	28214.10	3.5290	3.5290	-1.2323	7.12	1.13	-0.750			
0.4446	28451.39	3.5260	3.5260	-1.2457	7.12	1.13	-0.750			
0.4483	28691.15	3.5230	3.5230	-1.2592	7.13	1.14	-0.750			
0.4521	28935.19	3.5200	3.5201	-1.2604	7.13	1.14	-0.750			
0.4559	29180.49	3.5170	3.5170	-1.2640	7.13	1.14	-0.750			
0.4597	29422.87	3.5140	3.5140	-1.2631	7.14	1.15	-0.750			
0.4635	29664.55	3.5110	3.5113	-1.2727	7.14	1.15	-0.750			
0.4674	29913.79	3.5080	3.5078	-1.2752	7.15	1.16	-0.750			
0.4712	30155.68	3.5050	3.5049	-1.2676	7.15	1.16	-0.750			
0.4750	30398.08	3.5020	3.5023	-1.2774	7.16	1.17	-0.750			
0.4789	30648.00	3.4990	3.4989	-1.2713	7.16	1.17	-0.750			
0.4827	30890.28	3.4960	3.4959	-1.2542	7.17	1.18	-0.750			
0.4864	31127.83	3.4930	3.4930	-1.2375	7.18	1.19	-0.750			
0.4900	31362.53	3.4900	3.4901	-1.2323	7.18	1.19	-0.750			
0.4938	31603.76	3.4870	3.4869	-1.2302	7.19	1.20	-0.750			
0.4974	31835.81	3.4840	3.4840	-1.2232	7.19	1.20	-0.750			
0.5011	32069.46	3.4810	3.4812	-1.2311	7.20	1.21	-0.750			
0.5048	32305.86	3.4780	3.4778	-1.2201	7.21	1.22	-0.750			
0.5085	32541.11	3.4750	3.4749	-1.2128	7.21	1.22	-0.750			
0.5121	32773.55	3.4720	3.4721	-1.2000	7.22	1.23	-0.750			
0.5157	33004.42	3.4690	3.4690	-1.2027	7.23	1.24	-0.750			
0.5193	33233.59	3.4660	3.4659	-1.1954	7.23	1.24	-0.750			
0.5228	33458.09	3.4630	3.4630	-1.1786	7.24	1.25	-0.750			
0.5263	33683.62	3.4600	3.4603	-1.1787	7.25	1.26	-0.750			
0.5299	33914.77	3.4570	3.4569	-1.1810	7.26	1.27	-0.750			
0.5334	34138.88	3.4540	3.4540	-1.1760	7.26	1.27	-0.750			
0.5369	34364.44	3.4510	3.4509	-1.1646	7.27	1.28	-0.750			
0.5405	34589.76	3.4480	3.4481	-1.1610	7.27	1.28	-0.750			
0.5439	34811.57	3.4450	3.4450	-1.1499	7.28	1.29	-0.750			
0.5474	35030.82	3.4420	3.4420	-1.1419	7.29	1.30	-0.750			
0.5507	35247.67	3.4390	3.4392	-1.1232	7.30	1.31	-0.750			
0.5541	35464.14	3.4360	3.4359	-1.1164	7.31	1.32	-0.750			
0.5574	35676.51	3.4330	3.4330	-1.1002	7.32	1.33	-0.750			
0.5607	35887.67	3.4300	3.4300	-1.0926	7.33	1.34	-0.750			
0.5640	36095.93	3.4270	3.4271	-1.0946	7.34	1.35	-0.750			
0.5672	36303.75	3.4240	3.4239	-1.0812	7.35	1.36	-0.750			
0.5705	36509.93	3.4210	3.4210	-1.0708	7.36	1.37	-0.750			
0.5737	36716.43	3.4180	3.4181	-1.0673	7.37	1.38	-0.750			
0.5769	36922.84	3.4150	3.4150	-1.0535	7.38	1.39	-0.750			
0.5801	37125.01	3.4120	3.4119	-1.0306	7.40	1.41	-0.750			
0.5831	37319.01	3.4090	3.4091	-1.0099	7.41	1.42	-0.750			
0.5861	37510.01	3.4060	3.4060	-0.9881	7.42	1.43	-0.750			
0.5890	37698.46	3.4030	3.4031	-0.9763	7.43	1.44	-0.750			
0.5919	37883.68	3.4000	3.3999	-0.9608	7.44	1.45	-0.750			
0.5948	38064.97	3.3970	3.3971	-0.9477	7.45	1.46	-0.750			
0.5976	38247.97	3.3940	3.3941	-0.9373	7.45	1.46	-0.750			
0.6005	38428.85	3.3910	3.3910	-0.9226	7.46	1.47	-0.750			
0.6032	38602.20	3.3880	3.3879	-0.9105	7.47	1.48	-0.750			
0.6059	38775.95	3.3850	3.3851	-0.8935	7.48	1.49	-0.750			
0.6085	38945.50	3.3820	3.3819	-0.8737	7.50	1.51	-0.750			
0.6111	39111.87	3.3790	3.3790	-0.8569	7.51	1.52	-0.750			
0.6137	39275.12	3.3760	3.3764	-0.8416	7.52	1.53	-0.750			
0.6162	39434.93	3.3730	3.3730	-0.8293	7.53	1.54	-0.750			
0.6187	39594.73	3.3700	3.3699	-0.8144	7.54	1.55	-0.750			
0.6211	39748.79	3.3670	3.3670	-0.7916	7.56	1.57	-0.750			
0.6234	39899.98	3.3640	3.3640	-0.7800	7.57	1.58	-0.750			
0.6257	40046.94	3.3610	3.3612	-0.7647	7.58	1.59	-0.750			
0.6280	40191.00	3.3580	3.3579	-0.7501	7.59	1.60	-0.750			
0.6302	40333.53	3.3550	3.3548	-0.7342	7.60	1.61	-0.750			
0.6324	40473.74	3.3520	3.3521	-0.7183	7.61	1.62	-0.750			
0.6345	40610.89	3.3490	3.3491	-0.7067	7.62	1.63	-0.750			
0.6367	40748.13	3.3460	3.3460	-0.6938	7.63	1.64	-0.750			
0.6387	40878.29	3.3430	3.3431	-0.6783	7.64	1.65	-0.750			
0.6407	41004.58	3.3400	3.3399	-0.6628	7.65	1.66	-0.750			
0.6427	41130.93	3.3370	3.3371	-0.6527	7.66	1.67	-0.750			
0.6446	41255.81	3.3340	3.3341	-0.6466	7.67	1.68	-0.750			
0.6466	41380.93	3.3310	3.3309	-0.6373	7.69	1.70	-0.750			
0.6485	41502.31	3.3280	3.3279	-0.6179	7.70	1.71	-0.750			
0.6503	41620.06	3.3250	3.3250	-0.6050	7.71	1.72	-0.750			
0.6521	41733.38	3.3220	3.3220	-0.5893	7.72	1.73	-0.750			
0.6538	41844.59	3.3190	3.3190	-0.5746	7.73	1.74	-0.750			
0.6555	41952.23	3.3160	3.3158	-0.5633	7.74	1.75	-0.750			
0.6571	42056.97	3.3130	3.3131	-0.5524	7.75	1.76	-0.750			
0.6588	42164.36	3.3100	3.3101	-0.5491	7.77	1.78	-0.750			
0.6605	42269.67	3.3070	3.3069	-0.5410	7.78	1.79	-0.750			
0.6621	42373.09	3.3040	3.3041	-0.5311	7.79	1.80	-0.750			
0.6637	42474.70	3.3010	3.3011	-0.5222	7.80	1.81	-0.750			
0.6652	42574.13	3.2980	3.2980	-0.5128	7.81	1.82	-0.750			
0.6668	42672.38	3.2950	3.2949	-0.4968	7.82	1.83	-0.750			
0.6682	42765.12	3.2920	3.2920	-0.4828	7.83	1.84	-0.750			
0.6696	42856.13	3.2890	3.2891	-0.4745	7.84	1.85	-0.750			
0.6710	42945.43	3.2860	3.2859	-0.4666	7.85	1.86	-0.750			
0.6724	43033.58	3.2830	3.2829	-0.4600	7.86	1.87	-0.750			
0.6738	43121.29	3.2800	3.2800	-0.4550	7.87	1.88	-0.750			
0.6751	43208.88	3.2770	3.2770	-0.4511	7.88	1.89	-0.750			
0.6765	43296.36	3.2740	3.2740	-0.4480	7.89	1.90	-0.750			
0.6778	43381.19	3.2710	3.2710	-0.4384	7.90	1.91	-0.750			
0.6791	43464.88	3.2680	3.2680	-0.4302	7.92	1.93	-0.750			
0.6804	43546.64	3.2650	3.2650	-0.4214	7.93	1.94	-0.750			
0.6817	43626.54	3.2620	3.2620	-0.4161	7.94	1.95	-0.750			
0.6829	43704.95	3.2590	3.2591	-0.4125	7.95	1.96	-0.750			
0.6841	43783.83	3.2560	3.2559	-0.4076	7.95	1.96	-0.750			
0.6854	43862.77	3.2530	3.2530	-0.4022	7.96	1.97	-0.750			
0.6866	43940.08	3.2500	3.2500	-0.3968	7.97	1.98	-0.750			
0.6877	44015.68	3.2470	3.2471	-0.3890	7.98	1.99	-0.750			
0.6889	44090.13	3.2440	3.2441	-0.3812	7.99	2.00	-0.750			
0.6900	44161.64	3.2410	3.2409	-0.3725	8.01	2.02	-0.750			
0.6911	44230.89	3.2380	3.2380	-0.3662	8.02	2.03	-0.750			
0.6922	44301.43	3.2350	3.2350	-0.3610	8.03	2.04	-0.750			
0.6933	44370.45	3.2320	3.2319	-0.3551	8.04	2.05	-0.750			
0.6943	44438.29	3.2290	3.2290	-0.3505	8.05	2.06	-0.750			
0.6954	44504.92	3.2260	3.2261	-0.3481	8.06	2.07	-0.750			
0.6964	44571.92	3.2230	3.2231	-0.3428	8.07	2.08	-0.750			
0.6975	44637.05	3.2200	3.2199	-0.3387	8.08	2.09	-0.750			
0.6984	44700.57	3.2170	3.2172	-0.3351	8.09	2.10	-0.750			
0.6995	44766.11	3.2140	3.2141	-0.3335	8.10	2.11	-0.750			
0.7005	44829.65	3.2110	3.2108	-0.3273	8.11	2.12	-0.750			
0.7014	44891.75	3.2080	3.2082	-0.3235	8.12	2.13	-0.750			
0.7024	44953.25	3.2050	3.2051	-0.3199	8.13	2.14	-0.750			
0.7034	45014.74	3.2020	3.2019	-0.3170	8.14	2.15	-0.750			
0.7043	45075.27	3.1990	3.1989	-0.3104	8.15	2.16	-0.750			
0.7052	45134.21	3.1960	3.1961	-0.3060	8.16	2.17	-0.750			
0.7061	45193.31	3.1930	3.1931	-0.3042	8.17	2.18	-0.750			
0.7070	45250.87	3.1900	3.1899	-0.3005	8.18	2.19	-0.750			
0.7079	45307.03	3.1870	3.1870	-0.2974	8.19	2.20	-0.750			
0.7088	45364.24	3.1840	3.1841	-0.2970	8.20	2.21	-0.750			
0.7097	45421.85	3.1810	3.1809	-0.2949	8.21	2.22	-0.750			
0.7106	45479.08	3.1780	3.1780	-0.2920	8.22	2.23	-0.750			
0.7115	45534.97	3.1750	3.1751	-0.2873	8.23	2.24	-0.750			
0.7123	45589.75	3.1720	3.1720	-0.2806	8.23	2.24	-0.750			
0.7132	45642.54	3.1690	3.1691	-0.2759	8.24	2.25	-0.750			
0.7140	45693.88	3.1660	3.1661	-0.2733	8.25	2.26	-0.750			
0.7148	45745.47	3.1630	3.1629	-0.2721	8.26	2.27	-0.750			
0.7156	45797.88	3.1600	3.1600	-0.2716	8.27	2.28	-0.750			
0.7164	45850.05	3.1570	3.1570	-0.2697	8.28	2.29	-0.750			
0.7172	45902.53	3.1540	3.1541	-0.2694	8.29	2.30	-0.750			
0.7180	45954.94	3.1510	3.1510	-0.2654	8.30	2.31	-0.750			
0.7188	46005.20	3.1480	3.1479	-0.2618	8.31	2.32	-0.750			
0.7196	46055.07	3.1450	3.1451	-0.2573	8.32	2.33	-0.750			
0.7204	46103.42	3.1420	3.1420	-0.2531	8.34	2.35	-0.750			
0.7211	46151.56	3.1390	3.1390	-0.2516	8.35	2.36	-0.750			
0.7219	46199.33	3.1360	3.1359	-0.2499	8.36	2.37	-0.750			
0.7226	46246.91	3.1330	3.1330	-0.2481	8.37	2.38	-0.750			
0.7234	46294.92	3.1300	3.1299	-0.2477	8.38	2.39	-0.750			
0.7241	46342.05	3.1270	3.1270	-0.2453	8.38	2.39	-0.750			
0.7248	46389.65	3.1240	3.1240	-0.2445	8.39	2.40	-0.750			
0.7256	46436.02	3.1210	3.1210	-0.2423	8.40	2.41	-0.750			
0.7263	46482.33	3.1180	3.1180	-0.2401	8.41	2.42	-0.750			
0.7270	46527.97	3.1150	3.1150	-0.2377	8.42	2.43	-0.750			
0.7277	46573.55	3.1120	3.1120	-0.2353	8.43	2.44	-0.750			
0.7284	46618.74	3.1090	3.1090	-0.2329	8.44	2.45	-0.750			
0.7291	46662.84	3.1060	3.1061	-0.2313	8.45	2.46	-0.750			
0.7298	46706.92	3.1030	3.1030	-0.2294	8.46	2.47	-0.750			
0.7305	46750.87	3.1000	3.1000	-0.2280	8.47	2.48	-0.750			
0.7312	46793.95	3.0970	3.0970	-0.2258	8.48	2.49	-0.750			
0.7318	46837.79	3.0940	3.0939	-0.2249	8.49	2.50	-0.750			
0.7325	46880.83	3.0910	3.0911	-0.2234	8.50	2.51	-0.750			
0.7332	46923.72	3.0880	3.0880	-0.2229	8.51	2.52	-0.750			
0.7339	46966.58	3.0850	3.0850	-0.2215	8.52	2.53	-0.750			
0.7345	47008.92	3.0820	3.0820	-0.2195	8.53	2.54	-0.750			
0.7352	47050.58	3.0790	3.0789	-0.2171	8.54	2.55	-0.750			
0.7358	47092.00	3.0760	3.0761	-0.2168	8.54	2.55	-0.750			
0.7365	47133.82	3.0730	3.0730	-0.2142	8.55	2.56	-0.750			
0.7371	47174.76	3.0700	3.0700	-0.2124	8.56	2.57	-0.750			
0.7377	47215.72	3.0670	3.0669	-0.2106	8.57	2.58	-0.750			
0.7384	47255.50	3.0640	3.0642	-0.2088	8.58	2.59	-0.750			
0.7390	47295.32	3.0610	3.0610	-0.2084	8.59	2.60	-0.750			
0.7396	47335.30	3.0580	3.0579	-0.2075	8.60	2.61	-0.750			
0.7402	47374.89	3.0550	3.0550	-0.2066	8.61	2.62	-0.750			
0.7408	47414.34	3.0520	3.0520	-0.2043	8.62	2.63	-0.750			
0.7415	47453.93	3.0490	3.0490	-0.2051	8.63	2.64	-0.750			
0.7421	47493.10	3.0460	3.0461	-0.2036	8.64	2.65	-0.750			
0.7427	47532.06	3.0430	3.0430	-0.2023	8.65	2.66	-0.750			
0.7433	47570.52	3.0400	3.0399	-0.2017	8.66	2.67	-0.750			
0.7439	47609.20	3.0370	3.0370	-0.2000	8.67	2.68	-0.750			
0.7445	47648.09	3.0340	3.0340	-0.1989	8.68	2.69	-0.750			
0.7451	47686.06	3.0310	3.0310	-0.1966	8.69	2.70	-0.750			
0.7457	47723.92	3.0280	3.0279	-0.1955	8.69	2.70	-0.750			
0.7463	47760.31	3.0250	3.0251	-0.1947	8.70	2.71	-0.750			
0.7468	47797.49	3.0220	3.0218	-0.1942	8.71	2.72	-0.750			
0.7474	47834.83	3.0190	3.0189	-0.1947	8.72	2.73	-0.750			
0.7480	47872.02	3.0160	3.0160	-0.1938	8.73	2.74	-0.750			
0.7486	47909.75	3.0130	3.0131	-0.1940	8.74	2.75	-0.750			
0.7492	47947.57	3.0100	3.0100	-0.1938	8.75	2.76	-0.750			
0.7498	47984.56	3.0070	3.0070	-0.1916	8.76	2.77	-0.750			
0.7503	48021.26	3.0040	3.0039	-0.1882	8.77	2.78	-0.750			
0.7509	48057.44	3.0010	3.0010	-0.1912	8.78	2.79	-0.750			
