Ah_balance (normalized)	Ah_balance (mAh)	Voltage - fit (V)	Voltage -  interpolate (V)	dQ/dV (1/V)	Temperature (°C)	Temperature - diff (°C)	Current (C)	R_DC 0ms (mOhm)	R_DC 50ms (mOhm)	R_DC 50 ms PEC (mOhm)
0.0002	14.78	4.1060	4.1046	-0.0397	5.99	0.00	-0.750			
0.0004	25.34	4.1030	4.1025	-0.0703	5.99	0.00	-0.750			
0.0007	43.33	4.1000	4.0997	-0.0995	5.99	0.00	-0.750			
0.0010	65.85	4.0970	4.0967	-0.1250	5.99	0.00	-0.750			
0.0014	92.62	4.0940	4.0941	-0.1495	5.99	-0.00	-0.750			
0.0019	123.96	4.0910	4.0909	-0.1731	5.99	-0.00	-0.750			
0.0025	159.60	4.0880	4.0881	-0.1969	5.99	-0.00	-0.750			
0.0031	200.35	4.0850	4.0850	-0.2225	5.99	-0.00	-0.750			
0.0038	245.00	4.0820	4.0820	-0.2441	5.99	-0.00	-0.750			
0.0046	294.30	4.0790	4.0790	-0.2672	5.98	-0.01	-0.750			
0.0054	347.81	4.0760	4.0759	-0.2909	5.98	-0.01	-0.750			
0.0063	405.81	4.0730	4.0732	-0.3151	5.98	-0.01	-0.750			
0.0073	469.70	4.0700	4.0699	-0.3342	5.98	-0.01	-0.750			
0.0084	536.12	4.0670	4.0670	-0.3547	5.98	-0.01	-0.750			
0.0095	605.68	4.0640	4.0641	-0.3757	5.98	-0.01	-0.750			
0.0106	679.80	4.0610	4.0611	-0.3962	5.97	-0.02	-0.750			
0.0118	757.60	4.0580	4.0579	-0.4156	5.97	-0.02	-0.750			
0.0131	839.28	4.0550	4.0549	-0.4357	5.97	-0.02	-0.750			
0.0145	925.04	4.0520	4.0520	-0.4544	5.97	-0.02	-0.750			
0.0158	1013.89	4.0490	4.0490	-0.4816	5.97	-0.02	-0.750			
0.0173	1108.30	4.0460	4.0461	-0.5020	5.97	-0.02	-0.750			
0.0189	1206.87	4.0430	4.0429	-0.5225	5.97	-0.02	-0.750			
0.0205	1310.79	4.0400	4.0400	-0.5443	5.98	-0.01	-0.750			
0.0222	1418.92	4.0370	4.0371	-0.5613	5.98	-0.01	-0.750			
0.0239	1528.19	4.0340	4.0340	-0.5744	5.98	-0.01	-0.750			
0.0256	1640.10	4.0310	4.0310	-0.5907	5.98	-0.01	-0.750			
0.0274	1753.65	4.0280	4.0280	-0.6000	5.98	-0.01	-0.750			
0.0292	1870.06	4.0250	4.0248	-0.6152	5.98	-0.01	-0.750			
0.0311	1989.06	4.0220	4.0221	-0.6266	5.99	-0.00	-0.750			
0.0330	2111.74	4.0190	4.0191	-0.6367	5.99	0.00	-0.750			
0.0350	2238.43	4.0160	4.0159	-0.6476	5.99	0.00	-0.750			
0.0369	2362.63	4.0130	4.0130	-0.6517	6.00	0.01	-0.750			
0.0389	2486.53	4.0100	4.0102	-0.6550	6.00	0.01	-0.750			
0.0408	2613.84	4.0070	4.0070	-0.6614	6.00	0.01	-0.750			
0.0428	2739.34	4.0040	4.0039	-0.6670	6.01	0.02	-0.750			
0.0448	2868.28	4.0010	4.0011	-0.6772	6.01	0.02	-0.750			
0.0469	2999.40	3.9980	3.9980	-0.6866	6.01	0.02	-0.750			
0.0489	3132.37	3.9950	3.9949	-0.6918	6.02	0.03	-0.750			
0.0510	3265.07	3.9920	3.9921	-0.7016	6.02	0.03	-0.750			
0.0532	3402.77	3.9890	3.9890	-0.7053	6.02	0.03	-0.750			
0.0553	3539.63	3.9860	3.9860	-0.7126	6.03	0.04	-0.750			
0.0575	3677.33	3.9830	3.9830	-0.7130	6.03	0.04	-0.750			
0.0596	3813.55	3.9800	3.9801	-0.7141	6.04	0.05	-0.750			
0.0617	3951.45	3.9770	3.9769	-0.7177	6.05	0.06	-0.750			
0.0639	4087.97	3.9740	3.9742	-0.7257	6.05	0.06	-0.750			
0.0660	4226.74	3.9710	3.9709	-0.7259	6.06	0.07	-0.750			
0.0682	4367.66	3.9680	3.9680	-0.7338	6.06	0.07	-0.750			
0.0705	4509.93	3.9650	3.9650	-0.7313	6.07	0.08	-0.750			
0.0727	4653.97	3.9620	3.9621	-0.7358	6.08	0.09	-0.750			
0.0749	4792.85	3.9590	3.9588	-0.7326	6.09	0.10	-0.750			
0.0771	4932.63	3.9560	3.9560	-0.7285	6.09	0.10	-0.750			
0.0792	5071.05	3.9530	3.9530	-0.7268	6.10	0.11	-0.750			
0.0814	5209.95	3.9500	3.9500	-0.7365	6.10	0.11	-0.750			
0.0836	5349.68	3.9470	3.9471	-0.7370	6.11	0.12	-0.750			
0.0859	5496.21	3.9440	3.9439	-0.7437	6.11	0.12	-0.750			
0.0881	5638.33	3.9410	3.9410	-0.7514	6.12	0.13	-0.750			
0.0904	5782.91	3.9380	3.9381	-0.7548	6.13	0.14	-0.750			
0.0926	5928.79	3.9350	3.9349	-0.7634	6.13	0.14	-0.750			
0.0950	6076.89	3.9320	3.9319	-0.7609	6.14	0.15	-0.750			
0.0972	6221.48	3.9290	3.9291	-0.7594	6.15	0.16	-0.750			
0.0995	6369.39	3.9260	3.9260	-0.7666	6.15	0.16	-0.750			
0.1018	6517.00	3.9230	3.9231	-0.7687	6.16	0.17	-0.750			
0.1041	6660.78	3.9200	3.9199	-0.7660	6.17	0.18	-0.750			
0.1064	6810.19	3.9170	3.9170	-0.7714	6.18	0.19	-0.750			
0.1087	6958.54	3.9140	3.9140	-0.7728	6.18	0.19	-0.750			
0.1111	7109.60	3.9110	3.9109	-0.7759	6.19	0.20	-0.750			
0.1134	7257.78	3.9080	3.9081	-0.7762	6.20	0.21	-0.750			
0.1157	7406.26	3.9050	3.9050	-0.7777	6.21	0.22	-0.750			
0.1181	7555.54	3.9020	3.9020	-0.7786	6.22	0.23	-0.750			
0.1204	7705.94	3.8990	3.8990	-0.7771	6.23	0.24	-0.750			
0.1228	7856.74	3.8960	3.8959	-0.7773	6.24	0.25	-0.750			
0.1251	8004.31	3.8930	3.8930	-0.7752	6.25	0.26	-0.750			
0.1274	8152.65	3.8900	3.8901	-0.7765	6.25	0.26	-0.750			
0.1297	8299.47	3.8870	3.8870	-0.7776	6.26	0.27	-0.750			
0.1320	8449.65	3.8840	3.8839	-0.7837	6.27	0.28	-0.750			
0.1344	8598.98	3.8810	3.8811	-0.7902	6.28	0.29	-0.750			
0.1367	8751.83	3.8780	3.8780	-0.8010	6.28	0.29	-0.750			
0.1392	8908.71	3.8750	3.8751	-0.8049	6.29	0.30	-0.750			
0.1416	9063.07	3.8720	3.8719	-0.8082	6.30	0.31	-0.750			
0.1440	9219.05	3.8690	3.8691	-0.8156	6.31	0.32	-0.750			
0.1465	9377.65	3.8660	3.8660	-0.8114	6.31	0.32	-0.750			
0.1490	9534.69	3.8630	3.8629	-0.8091	6.32	0.33	-0.750			
0.1514	9688.72	3.8600	3.8603	-0.8078	6.33	0.34	-0.750			
0.1538	9842.92	3.8570	3.8568	-0.8015	6.34	0.35	-0.750			
0.1562	9996.27	3.8540	3.8540	-0.8046	6.35	0.36	-0.750			
0.1586	10148.79	3.8510	3.8511	-0.7985	6.36	0.37	-0.750			
0.1610	10303.57	3.8480	3.8480	-0.8104	6.37	0.38	-0.750			
0.1634	10460.27	3.8450	3.8451	-0.8126	6.38	0.39	-0.750			
0.1659	10615.01	3.8420	3.8419	-0.8141	6.39	0.40	-0.750			
0.1683	10771.85	3.8390	3.8391	-0.8151	6.40	0.41	-0.750			
0.1708	10930.56	3.8360	3.8359	-0.8188	6.41	0.42	-0.750			
0.1732	11087.80	3.8330	3.8330	-0.8102	6.42	0.43	-0.750			
0.1757	11245.20	3.8300	3.8300	-0.8072	6.43	0.44	-0.750			
0.1781	11396.40	3.8270	3.8270	-0.8068	6.44	0.45	-0.750			
0.1805	11551.25	3.8240	3.8240	-0.8129	6.44	0.45	-0.750			
0.1829	11706.91	3.8210	3.8208	-0.8158	6.45	0.46	-0.750			
0.1854	11864.23	3.8180	3.8180	-0.8196	6.46	0.47	-0.750			
0.1879	12022.99	3.8150	3.8151	-0.8300	6.47	0.48	-0.750			
0.1904	12184.49	3.8120	3.8118	-0.8340	6.48	0.49	-0.750			
0.1929	12345.43	3.8090	3.8089	-0.8382	6.48	0.49	-0.750			
0.1954	12505.33	3.8060	3.8060	-0.8360	6.49	0.50	-0.750			
0.1979	12666.11	3.8030	3.8030	-0.8345	6.50	0.51	-0.750			
0.2005	12829.13	3.8000	3.8000	-0.8409	6.51	0.52	-0.750			
0.2030	12989.24	3.7970	3.7969	-0.8435	6.52	0.53	-0.750			
0.2055	13150.78	3.7940	3.7939	-0.8432	6.53	0.54	-0.750			
0.2080	13314.96	3.7910	3.7909	-0.8434	6.54	0.55	-0.750			
0.2106	13477.21	3.7880	3.7880	-0.8313	6.55	0.56	-0.750			
0.2131	13640.16	3.7850	3.7851	-0.8299	6.56	0.57	-0.750			
0.2156	13796.49	3.7820	3.7819	-0.8292	6.57	0.58	-0.750			
0.2180	13949.97	3.7790	3.7789	-0.8297	6.57	0.58	-0.750			
0.2204	14108.73	3.7760	3.7759	-0.8376	6.58	0.59	-0.750			
0.2230	14270.73	3.7730	3.7730	-0.8421	6.59	0.60	-0.750			
0.2256	14436.29	3.7700	3.7700	-0.8607	6.60	0.61	-0.750			
0.2282	14604.99	3.7670	3.7671	-0.8604	6.61	0.62	-0.750			
0.2308	14770.18	3.7640	3.7639	-0.8633	6.61	0.62	-0.750			
0.2334	14935.83	3.7610	3.7610	-0.8567	6.62	0.63	-0.750			
0.2359	15099.49	3.7580	3.7580	-0.8498	6.63	0.64	-0.750			
0.2385	15262.97	3.7550	3.7550	-0.8537	6.64	0.65	-0.750			
0.2410	15426.08	3.7520	3.7520	-0.8545	6.65	0.66	-0.750			
0.2436	15588.15	3.7490	3.7488	-0.8479	6.66	0.67	-0.750			
0.2461	15751.69	3.7460	3.7460	-0.8566	6.66	0.67	-0.750			
0.2487	15914.23	3.7430	3.7431	-0.8616	6.67	0.68	-0.750			
0.2513	16082.30	3.7400	3.7400	-0.8737	6.68	0.69	-0.750			
0.2539	16249.68	3.7370	3.7369	-0.8823	6.69	0.70	-0.750			
0.2565	16417.99	3.7340	3.7340	-0.8881	6.70	0.71	-0.750			
0.2593	16592.03	3.7310	3.7310	-0.8939	6.71	0.72	-0.750			
0.2620	16766.00	3.7280	3.7279	-0.9078	6.71	0.72	-0.750			
0.2647	16941.34	3.7250	3.7251	-0.9017	6.72	0.73	-0.750			
0.2674	17114.82	3.7220	3.7220	-0.8981	6.73	0.74	-0.750			
0.2701	17288.37	3.7190	3.7190	-0.8948	6.75	0.76	-0.750			
0.2728	17457.92	3.7160	3.7162	-0.8881	6.76	0.77	-0.750			
0.2755	17629.16	3.7130	3.7129	-0.8860	6.77	0.78	-0.750			
0.2781	17795.74	3.7100	3.7100	-0.8925	6.77	0.78	-0.750			
0.2807	17965.67	3.7070	3.7071	-0.8905	6.78	0.79	-0.750			
0.2834	18140.18	3.7040	3.7039	-0.8967	6.79	0.80	-0.750			
0.2861	18311.12	3.7010	3.7009	-0.8976	6.79	0.80	-0.750			
0.2888	18483.60	3.6980	3.6984	-0.9063	6.80	0.81	-0.750			
0.2915	18656.90	3.6950	3.6948	-0.9157	6.81	0.82	-0.750			
0.2943	18835.77	3.6920	3.6919	-0.9229	6.82	0.83	-0.750			
0.2971	19011.28	3.6890	3.6891	-0.9339	6.83	0.84	-0.750			
0.2999	19192.14	3.6860	3.6859	-0.9547	6.84	0.85	-0.750			
0.3028	19377.21	3.6830	3.6829	-0.9669	6.84	0.85	-0.750			
0.3057	19563.20	3.6800	3.6799	-0.9721	6.85	0.86	-0.750			
0.3086	19752.21	3.6770	3.6769	-0.9743	6.86	0.87	-0.750			
0.3116	19942.62	3.6740	3.6741	-0.9756	6.86	0.87	-0.750			
0.3145	20128.78	3.6710	3.6710	-0.9877	6.87	0.88	-0.750			
0.3174	20316.29	3.6680	3.6680	-0.9868	6.88	0.89	-0.750			
0.3204	20506.23	3.6650	3.6649	-0.9979	6.89	0.90	-0.750			
0.3234	20697.51	3.6620	3.6620	-1.0084	6.89	0.90	-0.750			
0.3265	20895.13	3.6590	3.6592	-1.0170	6.90	0.91	-0.750			
0.3296	21091.27	3.6560	3.6561	-1.0228	6.91	0.92	-0.750			
0.3326	21289.44	3.6530	3.6530	-1.0286	6.91	0.92	-0.750			
0.3357	21485.44	3.6500	3.6500	-1.0296	6.92	0.93	-0.750			
0.3388	21683.30	3.6470	3.6469	-1.0368	6.92	0.93	-0.750			
0.3419	21881.43	3.6440	3.6441	-1.0451	6.93	0.94	-0.750			
0.3451	22084.11	3.6410	3.6410	-1.0523	6.94	0.95	-0.750			
0.3482	22287.15	3.6380	3.6380	-1.0626	6.95	0.96	-0.750			
0.3514	22489.94	3.6350	3.6351	-1.0788	6.96	0.97	-0.750			
0.3547	22697.93	3.6320	3.6320	-1.0848	6.97	0.98	-0.750			
0.3579	22908.26	3.6290	3.6290	-1.0947	6.97	0.98	-0.750			
0.3613	23120.29	3.6260	3.6259	-1.1017	6.98	0.99	-0.750			
0.3646	23332.44	3.6230	3.6231	-1.1138	6.98	0.99	-0.750			
0.3679	23547.34	3.6200	3.6201	-1.1268	6.99	1.00	-0.750			
0.3713	23762.17	3.6170	3.6169	-1.1339	7.00	1.01	-0.750			
0.3747	23979.76	3.6140	3.6140	-1.1406	7.01	1.02	-0.750			
0.3782	24205.89	3.6110	3.6110	-1.1608	7.01	1.02	-0.750			
0.3816	24424.00	3.6080	3.6081	-1.1835	7.02	1.03	-0.750			
0.3853	24656.48	3.6050	3.6050	-1.1896	7.02	1.03	-0.750			
0.3888	24884.55	3.6020	3.6020	-1.1994	7.03	1.04	-0.750			
0.3925	25117.65	3.5990	3.5989	-1.2064	7.04	1.05	-0.750			
0.3961	25351.49	3.5960	3.5964	-1.2130	7.05	1.06	-0.750	0.437	0.945	
0.3998	25584.74	3.5930	3.5930	-1.2190	7.06	1.07	-0.750			
0.4034	25820.09	3.5900	3.5899	-1.2191	7.06	1.07	-0.750			
0.4070	26050.25	3.5870	3.5870	-1.2192	7.07	1.08	-0.750			
0.4107	26287.98	3.5840	3.5840	-1.2402	7.08	1.09	-0.750			
0.4144	26521.60	3.5810	3.5812	-1.2593	7.08	1.09	-0.750			
0.4182	26766.18	3.5780	3.5780	-1.2860	7.09	1.10	-0.750			
0.4221	27014.02	3.5750	3.5749	-1.3117	7.10	1.11	-0.750			
0.4261	27270.81	3.5720	3.5721	-1.3372	7.11	1.12	-0.750			
0.4303	27540.59	3.5690	3.5689	-1.3420	7.12	1.13	-0.750			
0.4344	27799.48	3.5660	3.5659	-1.3333	7.12	1.13	-0.750			
0.4383	28054.13	3.5630	3.5633	-1.3324	7.13	1.14	-0.750			
0.4423	28306.63	3.5600	3.5600	-1.3283	7.14	1.15	-0.750			
0.4462	28556.64	3.5570	3.5568	-1.3325	7.14	1.15	-0.750			
0.4501	28807.13	3.5540	3.5541	-1.3381	7.15	1.16	-0.750			
0.4542	29069.03	3.5510	3.5510	-1.3734	7.15	1.16	-0.750			
0.4584	29337.79	3.5480	3.5480	-1.3932	7.16	1.17	-0.750			
0.4626	29608.37	3.5450	3.5450	-1.4093	7.17	1.18	-0.750			
0.4669	29880.34	3.5420	3.5420	-1.4191	7.18	1.19	-0.750			
0.4712	30156.66	3.5390	3.5389	-1.4422	7.19	1.20	-0.750			
0.4756	30436.66	3.5360	3.5360	-1.4495	7.20	1.21	-0.750			
0.4799	30716.64	3.5330	3.5328	-1.4527	7.21	1.22	-0.750			
0.4843	30997.61	3.5300	3.5304	-1.4492	7.21	1.22	-0.750			
0.4887	31276.61	3.5270	3.5270	-1.4474	7.22	1.23	-0.750			
0.4930	31549.63	3.5240	3.5240	-1.4533	7.23	1.24	-0.750			
0.4973	31827.72	3.5210	3.5209	-1.4553	7.24	1.25	-0.750			
0.5017	32111.01	3.5180	3.5180	-1.4745	7.25	1.26	-0.750			
0.5062	32396.75	3.5150	3.5151	-1.4763	7.26	1.27	-0.750			
0.5106	32680.31	3.5120	3.5119	-1.4796	7.27	1.28	-0.750			
0.5151	32966.31	3.5090	3.5090	-1.4712	7.27	1.28	-0.750			
0.5195	33248.22	3.5060	3.5060	-1.4614	7.28	1.29	-0.750			
0.5238	33523.11	3.5030	3.5030	-1.4549	7.29	1.30	-0.750			
0.5282	33804.39	3.5000	3.4999	-1.4362	7.30	1.31	-0.750			
0.5325	34081.48	3.4970	3.4970	-1.4523	7.31	1.32	-0.750			
0.5368	34356.37	3.4940	3.4940	-1.4601	7.32	1.33	-0.750			
0.5412	34636.28	3.4910	3.4907	-1.4633	7.33	1.34	-0.750			
0.5457	34922.71	3.4880	3.4881	-1.4705	7.34	1.35	-0.750			
0.5501	35207.21	3.4850	3.4850	-1.4695	7.36	1.37	-0.750			
0.5546	35491.22	3.4820	3.4820	-1.4538	7.37	1.38	-0.750			
0.5590	35773.89	3.4790	3.4790	-1.4357	7.38	1.39	-0.750			
0.5631	36039.78	3.4760	3.4761	-1.4165	7.39	1.40	-0.750			
0.5673	36310.30	3.4730	3.4730	-1.4029	7.40	1.41	-0.750			
0.5715	36578.81	3.4700	3.4698	-1.3986	7.42	1.43	-0.750			
0.5757	36846.53	3.4670	3.4672	-1.3961	7.43	1.44	-0.750			
0.5799	37115.17	3.4640	3.4640	-1.3913	7.44	1.45	-0.750			
0.5842	37386.99	3.4610	3.4608	-1.3942	7.45	1.46	-0.750			
0.5883	37653.97	3.4580	3.4582	-1.3806	7.46	1.47	-0.750			
0.5924	37914.94	3.4550	3.4549	-1.3564	7.47	1.48	-0.750			
0.5966	38179.95	3.4520	3.4521	-1.3443	7.49	1.50	-0.750			
0.6006	38435.30	3.4490	3.4490	-1.3298	7.50	1.51	-0.750			
0.6045	38686.26	3.4460	3.4460	-1.3107	7.51	1.52	-0.750			
0.6084	38937.91	3.4430	3.4429	-1.2983	7.52	1.53	-0.750			
0.6122	39183.33	3.4400	3.4401	-1.2867	7.53	1.54	-0.750			
0.6161	39432.12	3.4370	3.4368	-1.2679	7.54	1.55	-0.750			
0.6200	39676.91	3.4340	3.4340	-1.2531	7.55	1.56	-0.750			
0.6237	39915.30	3.4310	3.4309	-1.2238	7.57	1.58	-0.750			
0.6273	40144.87	3.4280	3.4282	-1.1953	7.58	1.59	-0.750			
0.6309	40375.51	3.4250	3.4250	-1.1733	7.60	1.61	-0.750			
0.6343	40596.76	3.4220	3.4220	-1.1484	7.61	1.62	-0.750			
0.6377	40813.41	3.4190	3.4190	-1.1270	7.63	1.64	-0.750			
0.6411	41030.95	3.4160	3.4160	-1.1151	7.64	1.65	-0.750			
0.6444	41242.48	3.4130	3.4129	-1.0940	7.65	1.66	-0.750			
0.6477	41452.35	3.4100	3.4100	-1.0731	7.66	1.67	-0.750			
0.6509	41657.52	3.4070	3.4072	-1.0411	7.67	1.68	-0.750			
0.6540	41857.18	3.4040	3.4039	-1.0218	7.68	1.69	-0.750			
0.6570	42050.13	3.4010	3.4010	-0.9870	7.69	1.70	-0.750			
0.6599	42234.37	3.3980	3.3979	-0.9512	7.70	1.71	-0.750			
0.6627	42413.14	3.3950	3.3950	-0.9250	7.72	1.73	-0.750			
0.6654	42587.27	3.3920	3.3919	-0.9071	7.73	1.74	-0.750			
0.6681	42758.54	3.3890	3.3889	-0.8897	7.74	1.75	-0.750			
0.6707	42927.77	3.3860	3.3859	-0.8738	7.75	1.76	-0.750			
0.6733	43092.61	3.3830	3.3831	-0.8494	7.77	1.78	-0.750			
0.6759	43258.60	3.3800	3.3801	-0.8385	7.78	1.79	-0.750			
0.6784	43418.15	3.3770	3.3770	-0.8144	7.79	1.80	-0.750			
0.6808	43570.33	3.3740	3.3739	-0.7912	7.80	1.81	-0.750			
0.6831	43719.83	3.3710	3.3710	-0.7663	7.81	1.82	-0.750			
0.6854	43864.34	3.3680	3.3679	-0.7485	7.82	1.83	-0.750			
0.6876	44007.24	3.3650	3.3649	-0.7268	7.83	1.84	-0.750			
0.6898	44144.83	3.3620	3.3620	-0.7077	7.85	1.86	-0.750			
0.6918	44277.45	3.3590	3.3590	-0.6898	7.86	1.87	-0.750			
0.6939	44408.98	3.3560	3.3559	-0.6720	7.87	1.88	-0.750			
0.6959	44535.22	3.3530	3.3529	-0.6521	7.88	1.89	-0.750			
0.6978	44660.06	3.3500	3.3500	-0.6366	7.89	1.90	-0.750			
0.6997	44780.38	3.3470	3.3470	-0.6169	7.90	1.91	-0.750			
0.7015	44897.26	3.3440	3.3441	-0.6052	7.91	1.92	-0.750			
0.7033	45010.39	3.3410	3.3410	-0.5870	7.92	1.93	-0.750			
0.7050	45121.80	3.3380	3.3379	-0.5729	7.93	1.94	-0.750			
0.7067	45230.90	3.3350	3.3350	-0.5603	7.95	1.96	-0.750			
0.7084	45337.73	3.3320	3.3320	-0.5511	7.96	1.97	-0.750			
0.7100	45442.36	3.3290	3.3290	-0.5348	7.97	1.98	-0.750			
0.7116	45544.48	3.3260	3.3258	-0.5202	7.98	1.99	-0.750			
0.7132	45641.76	3.3230	3.3230	-0.5049	7.99	2.00	-0.750			
0.7146	45737.23	3.3200	3.3200	-0.4937	8.00	2.01	-0.750			
0.7161	45830.44	3.3170	3.3170	-0.4809	8.01	2.02	-0.750			
0.7175	45920.41	3.3140	3.3139	-0.4713	8.02	2.03	-0.750			
0.7189	46009.85	3.3110	3.3111	-0.4609	8.03	2.04	-0.750			
0.7203	46098.31	3.3080	3.3080	-0.4571	8.04	2.05	-0.750			
0.7216	46184.88	3.3050	3.3050	-0.4500	8.05	2.06	-0.750			
0.7230	46271.23	3.3020	3.3021	-0.4384	8.06	2.07	-0.750			
0.7243	46354.87	3.2990	3.2989	-0.4294	8.07	2.08	-0.750			
0.7256	46436.75	3.2960	3.2961	-0.4203	8.08	2.09	-0.750			
0.7268	46516.24	3.2930	3.2928	-0.4079	8.08	2.09	-0.750			
0.7280	46594.09	3.2900	3.2900	-0.3984	8.09	2.10	-0.750			
0.7292	46668.07	3.2870	3.2870	-0.3871	8.10	2.11	-0.750			
0.7303	46741.09	3.2840	3.2841	-0.3805	8.11	2.12	-0.750			
0.7315	46814.36	3.2810	3.2809	-0.3740	8.12	2.13	-0.750			
0.7326	46884.73	3.2780	3.2779	-0.3645	8.13	2.14	-0.750			
0.7337	46954.09	3.2750	3.2751	-0.3569	8.14	2.15	-0.750			
0.7347	47022.22	3.2720	3.2720	-0.3517	8.15	2.16	-0.750			
0.7358	47088.67	3.2690	3.2690	-0.3445	8.16	2.17	-0.750			
0.7368	47153.76	3.2660	3.2659	-0.3356	8.16	2.17	-0.750			
0.7378	47217.57	3.2630	3.2630	-0.3294	8.17	2.18	-0.750			
0.7388	47280.40	3.2600	3.2602	-0.3247	8.18	2.19	-0.750			
0.7397	47341.83	3.2570	3.2571	-0.3197	8.19	2.20	-0.750			
0.7407	47402.14	3.2540	3.2539	-0.3156	8.20	2.21	-0.750			
0.7416	47462.06	3.2510	3.2509	-0.3121	8.21	2.22	-0.750			
0.7425	47521.73	3.2480	3.2480	-0.3091	8.22	2.23	-0.750			
0.7435	47581.67	3.2450	3.2450	-0.3057	8.22	2.23	-0.750			
0.7444	47640.59	3.2420	3.2421	-0.3020	8.23	2.24	-0.750			
0.7453	47698.33	3.2390	3.2390	-0.2959	8.24	2.25	-0.750			
0.7462	47754.32	3.2360	3.2361	-0.2894	8.25	2.26	-0.750			
0.7470	47809.08	3.2330	3.2330	-0.2837	8.26	2.27	-0.750			
0.7479	47862.54	3.2300	3.2300	-0.2785	8.27	2.28	-0.750			
0.7487	47915.56	3.2270	3.2270	-0.2733	8.27	2.28	-0.750			
0.7495	47967.90	3.2240	3.2239	-0.2689	8.28	2.29	-0.750			
0.7503	48018.18	3.2210	3.2211	-0.2641	8.29	2.30	-0.750			
0.7511	48068.48	3.2180	3.2181	-0.2611	8.30	2.31	-0.750			
0.7518	48118.13	3.2150	3.2150	-0.2577	8.31	2.32	-0.750			
0.7526	48167.33	3.2120	3.2119	-0.2552	8.32	2.33	-0.750			
0.7534	48215.90	3.2090	3.2091	-0.2517	8.33	2.34	-0.750			
0.7541	48264.33	3.2060	3.2061	-0.2484	8.33	2.34	-0.750			
0.7549	48312.67	3.2030	3.2029	-0.2458	8.34	2.35	-0.750			
0.7556	48359.18	3.2000	3.2000	-0.2417	8.35	2.36	-0.750			
0.7563	48405.19	3.1970	3.1970	-0.2359	8.36	2.37	-0.750			
0.7570	48449.67	3.1940	3.1940	-0.2327	8.37	2.38	-0.750			
0.7577	48493.75	3.1910	3.1909	-0.2302	8.38	2.39	-0.750			
0.7584	48537.23	3.1880	3.1881	-0.2273	8.38	2.39	-0.750			
0.7591	48580.66	3.1850	3.1849	-0.2248	8.39	2.40	-0.750			
0.7597	48623.67	3.1820	3.1820	-0.2231	8.40	2.41	-0.750			
0.7604	48666.36	3.1790	3.1790	-0.2210	8.41	2.42	-0.750			
0.7611	48708.69	3.1760	3.1760	-0.2186	8.41	2.42	-0.750			
0.7617	48751.09	3.1730	3.1730	-0.2165	8.42	2.43	-0.750			
0.7624	48791.78	3.1700	3.1699	-0.2130	8.43	2.44	-0.750			
0.7630	48832.42	3.1670	3.1670	-0.2105	8.43	2.44	-0.750			
0.7636	48872.58	3.1640	3.1640	-0.2079	8.44	2.45	-0.750			
0.7643	48912.44	3.1610	3.1610	-0.2050	8.45	2.46	-0.750			
0.7649	48951.37	3.1580	3.1580	-0.2025	8.46	2.47	-0.750			
0.7655	48989.87	3.1550	3.1550	-0.1997	8.46	2.47	-0.750			
0.7661	49027.94	3.1520	3.1520	-0.1976	8.47	2.48	-0.750			
0.7666	49065.55	3.1490	3.1489	-0.1958	8.48	2.49	-0.750			
0.7672	49102.62	3.1460	3.1460	-0.1937	8.49	2.50	-0.750			
0.7678	49139.71	3.1430	3.1430	-0.1927	8.50	2.51	-0.750			
0.7684	49176.66	3.1400	3.1399	-0.1910	8.50	2.51	-0.750			
0.7690	49213.71	3.1370	3.1369	-0.1888	8.51	2.52	-0.750			
0.7695	49249.53	3.1340	3.1340	-0.1868	8.52	2.53	-0.750			
0.7701	49285.21	3.1310	3.1311	-0.1844	8.53	2.54	-0.750			
0.7706	49320.50	3.1280	3.1280	-0.1821	8.54	2.55	-0.750			
0.7712	49355.14	3.1250	3.1249	-0.1795	8.54	2.55	-0.750			
0.7717	49388.87	3.1220	3.1221	-0.1781	8.55	2.56	-0.750			
0.7722	49423.07	3.1190	3.1189	-0.1771	8.56	2.57	-0.750			
0.7728	49456.89	3.1160	3.1161	-0.1761	8.56	2.57	-0.750			
0.7733	49490.80	3.1130	3.1129	-0.1751	8.57	2.58	-0.750			
0.7738	49524.28	3.1100	3.1101	-0.1729	8.57	2.58	-0.750			
0.7743	49557.78	3.1070	3.1070	-0.1721	8.58	2.59	-0.750			
0.7749	49590.55	3.1040	3.1039	-0.1702	8.59	2.60	-0.750			
0.7754	49623.04	3.1010	3.1010	-0.1691	8.59	2.60	-0.750			
0.7759	49654.97	3.0980	3.0979	-0.1666	8.60	2.61	-0.750			
0.7764	49686.93	3.0950	3.0951	-0.1656	8.60	2.61	-0.750			
0.7769	49718.69	3.0920	3.0920	-0.1634	8.61	2.62	-0.750			
0.7773	49749.66	3.0890	3.0891	-0.1628	8.62	2.63	-0.750			
0.7778	49780.77	3.0860	3.0860	-0.1621	8.62	2.63	-0.750			
0.7783	49811.81	3.0830	3.0829	-0.1613	8.63	2.64	-0.750			
0.7788	49842.60	3.0800	3.0799	-0.1597	8.64	2.65	-0.750			
0.7793	49873.04	3.0770	3.0771	-0.1587	8.65	2.66	-0.750			
0.7797	49903.72	3.0740	3.0741	-0.1582	8.65	2.66	-0.750			
0.7802	49933.98	3.0710	3.0711	-0.1569	8.66	2.67	-0.750			
0.7807	49964.26	3.0680	3.0678	-0.1555	8.67	2.68	-0.750			
0.7812	49993.64	3.0650	3.0650	-0.1534	8.67	2.68	-0.750			
0.7816	50022.82	3.0620	3.0620	-0.1526	8.68	2.69	-0.750			
0.7821	50052.03	3.0590	3.0591	-0.1517	8.69	2.70	-0.750			
0.7825	50081.08	3.0560	3.0560	-0.1512	8.70	2.71	-0.750			
0.7830	50109.98	3.0530	3.0529	-0.1496	8.70	2.71	-0.750			
0.7834	50138.52	3.0500	3.0500	-0.1491	8.71	2.72	-0.750			
0.7839	50167.10	3.0470	3.0472	-0.1486	8.72	2.73	-0.750			
0.7843	50195.79	3.0440	3.0440	-0.1475	8.72	2.73	-0.750			
0.7848	50224.12	3.0410	3.0409	-0.1464	8.73	2.74	-0.750			
0.7852	50251.97	3.0380	3.0380	-0.1449	8.74	2.75	-0.750			
0.7856	50279.69	3.0350	3.0351	-0.1438	8.74	2.75	-0.750			
0.7861	50307.20	3.0320	3.0320	-0.1427	8.75	2.76	-0.750			
0.7865	50334.56	3.0290	3.0290	-0.1421	8.76	2.77	-0.750			
0.7869	50361.28	3.0260	3.0260	-0.1407	8.76	2.77	-0.750			
0.7873	50388.31	3.0230	3.0230	-0.1408	8.77	2.78	-0.750			
0.7877	50415.50	3.0200	3.0200	-0.1401	8.78	2.79	-0.750			
0.7882	50442.40	3.0170	3.0169	-0.1393	8.78	2.79	-0.750			
0.7886	50469.06	3.0140	3.0140	-0.1389	8.79	2.80	-0.750			
0.7890	50495.66	3.0110	3.0109	-0.1382	8.79	2.80	-0.750			
0.7894	50522.21	3.0080	3.0080	-0.1374	8.80	2.81	-0.750			
0.7898	50548.43	3.0050	3.0050	-0.1368	8.81	2.82	-0.750			
0.7902	50574.72	3.0020	3.0020	-0.1400	8.81	2.82	-0.750			
