Ah_balance (normalized)	Ah_balance (mAh)	Voltage - fit (V)	Voltage -  interpolate (V)	dQ/dV (1/V)	Temperature (°C)	Temperature - diff (°C)	Current (C)	R_DC 0ms (mOhm)	R_DC 50ms (mOhm)	R_DC 50 ms PEC (mOhm)
0.0969	6201.18	4.1990	4.1973	0.4691	8.24	2.25	0.750			
0.0985	6305.11	4.1960	4.1991	0.6252	8.23	2.24	0.750	0.399	0.768	
0.1008	6448.84	4.1930	4.1960	0.7673	8.23	2.24	0.750			
0.1034	6615.04	4.1900	4.1920	0.8067	8.22	2.23	0.750			
0.1059	6774.85	4.1870	4.1885	0.7967	8.21	2.22	0.750			
0.1085	6942.12	4.1840	4.1849	0.8022	8.20	2.21	0.750			
0.1112	7117.92	4.1810	4.1806	0.8059	8.19	2.20	0.750			
0.1131	7237.82	4.1780	4.1780	0.7123	8.19	2.20	0.750			
0.1153	7378.23	4.1750	4.1750	0.7144	8.18	2.19	0.750			
0.1175	7521.18	4.1720	4.1720	0.7100	8.18	2.19	0.750			
0.1197	7657.85	4.1690	4.1691	0.7100	8.17	2.18	0.750			
0.1217	7790.56	4.1660	4.1661	0.7003	8.17	2.18	0.750			
0.1238	7921.48	4.1630	4.1630	0.6908	8.16	2.17	0.750			
0.1258	8052.64	4.1600	4.1600	0.6963	8.16	2.17	0.750			
0.1279	8183.91	4.1570	4.1572	0.7045	8.15	2.16	0.750			
0.1300	8321.88	4.1540	4.1539	0.7201	8.14	2.15	0.750			
0.1323	8464.07	4.1510	4.1510	0.7353	8.14	2.15	0.750			
0.1345	8605.23	4.1480	4.1480	0.7316	8.13	2.14	0.750			
0.1367	8749.29	4.1450	4.1451	0.7356	8.12	2.13	0.750			
0.1389	8892.24	4.1420	4.1420	0.7371	8.11	2.12	0.750			
0.1411	9032.34	4.1390	4.1392	0.7353	8.11	2.12	0.750			
0.1433	9170.89	4.1360	4.1359	0.7334	8.10	2.11	0.750			
0.1455	9312.73	4.1330	4.1329	0.7350	8.09	2.10	0.750			
0.1477	9453.16	4.1300	4.1301	0.7368	8.09	2.10	0.750			
0.1500	9597.63	4.1270	4.1271	0.7439	8.08	2.09	0.750			
0.1522	9739.43	4.1240	4.1240	0.7423	8.07	2.08	0.750			
0.1544	9879.09	4.1210	4.1210	0.7478	8.07	2.08	0.750			
0.1566	10023.09	4.1180	4.1181	0.7572	8.06	2.07	0.750			
0.1589	10170.15	4.1150	4.1149	0.7652	8.06	2.07	0.750			
0.1613	10320.41	4.1120	4.1120	0.7738	8.05	2.06	0.750			
0.1636	10471.75	4.1090	4.1091	0.7759	8.04	2.05	0.750			
0.1660	10622.82	4.1060	4.1059	0.7722	8.03	2.04	0.750			
0.1683	10771.14	4.1030	4.1031	0.7637	8.03	2.04	0.750			
0.1705	10914.18	4.1000	4.1000	0.7570	8.02	2.03	0.750			
0.1728	11057.94	4.0970	4.0971	0.7599	8.01	2.02	0.750			
0.1750	11201.74	4.0940	4.0939	0.7682	8.00	2.01	0.750			
0.1773	11348.58	4.0910	4.0911	0.7811	7.99	2.00	0.750			
0.1797	11501.98	4.0880	4.0879	0.7877	7.99	2.00	0.750			
0.1821	11655.36	4.0850	4.0851	0.7954	7.98	1.99	0.750			
0.1846	11811.33	4.0820	4.0821	0.8008	7.98	1.99	0.750			
0.1869	11963.73	4.0790	4.0787	0.8039	7.97	1.98	0.750			
0.1893	12118.06	4.0760	4.0762	0.8030	7.96	1.97	0.750			
0.1917	12271.89	4.0730	4.0729	0.8031	7.96	1.97	0.750			
0.1942	12426.82	4.0700	4.0700	0.8074	7.95	1.96	0.750			
0.1966	12581.75	4.0670	4.0672	0.8031	7.94	1.95	0.750			
0.1990	12736.85	4.0640	4.0639	0.8104	7.93	1.94	0.750			
0.2014	12892.34	4.0610	4.0611	0.8176	7.92	1.93	0.750			
0.2039	13049.75	4.0580	4.0579	0.8178	7.91	1.92	0.750			
0.2064	13207.32	4.0550	4.0550	0.8284	7.90	1.91	0.750			
0.2089	13366.41	4.0520	4.0519	0.8396	7.89	1.90	0.750			
0.2114	13528.25	4.0490	4.0490	0.8447	7.88	1.89	0.750			
0.2139	13692.07	4.0460	4.0460	0.8519	7.87	1.88	0.750			
0.2165	13857.24	4.0430	4.0430	0.8522	7.87	1.88	0.750			
0.2191	14024.14	4.0400	4.0399	0.8458	7.86	1.87	0.750			
0.2217	14189.39	4.0370	4.0370	0.8393	7.85	1.86	0.750			
0.2242	14346.05	4.0340	4.0341	0.8325	7.84	1.85	0.750			
0.2266	14501.85	4.0310	4.0311	0.8283	7.83	1.84	0.750			
0.2291	14659.32	4.0280	4.0278	0.8358	7.83	1.84	0.750			
0.2315	14815.79	4.0250	4.0251	0.8449	7.82	1.83	0.750			
0.2341	14981.10	4.0220	4.0219	0.8607	7.81	1.82	0.750			
0.2367	15149.39	4.0190	4.0188	0.8746	7.80	1.81	0.750			
0.2394	15323.24	4.0160	4.0161	0.8819	7.79	1.80	0.750			
0.2421	15492.11	4.0130	4.0131	0.8777	7.78	1.79	0.750			
0.2447	15659.92	4.0100	4.0100	0.8908	7.78	1.79	0.750			
0.2474	15832.34	4.0070	4.0070	0.8945	7.77	1.78	0.750			
0.2500	16001.94	4.0040	4.0038	0.8949	7.76	1.77	0.750			
0.2527	16175.89	4.0010	4.0011	0.9014	7.75	1.76	0.750			
0.2555	16351.13	3.9980	3.9981	0.9102	7.74	1.75	0.750			
0.2583	16528.68	3.9950	3.9950	0.9056	7.73	1.74	0.750			
0.2610	16702.33	3.9920	3.9919	0.9001	7.72	1.73	0.750			
0.2636	16871.75	3.9890	3.9892	0.8915	7.72	1.73	0.750			
0.2663	17043.96	3.9860	3.9860	0.8959	7.71	1.72	0.750			
0.2689	17211.63	3.9830	3.9830	0.9033	7.70	1.71	0.750			
0.2716	17383.77	3.9800	3.9800	0.9137	7.70	1.71	0.750			
0.2744	17561.79	3.9770	3.9768	0.9184	7.69	1.70	0.750			
0.2772	17742.61	3.9740	3.9739	0.9356	7.68	1.69	0.750			
0.2800	17922.65	3.9710	3.9712	0.9405	7.67	1.68	0.750			
0.2829	18103.98	3.9680	3.9681	0.9524	7.66	1.67	0.750			
0.2857	18286.49	3.9650	3.9649	0.9543	7.65	1.66	0.750			
0.2886	18470.79	3.9620	3.9620	0.9586	7.63	1.64	0.750			
0.2915	18654.90	3.9590	3.9590	0.9695	7.62	1.63	0.750			
0.2944	18843.77	3.9560	3.9561	0.9768	7.61	1.62	0.750			
0.2974	19030.44	3.9530	3.9529	0.9876	7.60	1.61	0.750			
0.3003	19221.20	3.9500	3.9501	0.9940	7.59	1.60	0.750			
0.3033	19412.00	3.9470	3.9470	0.9965	7.58	1.59	0.750			
0.3063	19605.15	3.9440	3.9440	1.0060	7.57	1.58	0.750			
0.3094	19799.29	3.9410	3.9411	1.0145	7.56	1.57	0.750			
0.3124	19993.14	3.9380	3.9378	1.0203	7.55	1.56	0.750			
0.3155	20191.16	3.9350	3.9350	1.0258	7.54	1.55	0.750			
0.3186	20388.48	3.9320	3.9322	1.0238	7.52	1.53	0.750			
0.3217	20586.30	3.9290	3.9290	1.0363	7.51	1.52	0.750			
0.3248	20785.96	3.9260	3.9262	1.0376	7.50	1.51	0.750			
0.3278	20981.85	3.9230	3.9230	1.0400	7.49	1.50	0.750			
0.3309	21179.11	3.9200	3.9200	1.0562	7.48	1.49	0.750			
0.3341	21383.44	3.9170	3.9170	1.0715	7.47	1.48	0.750			
0.3374	21592.89	3.9140	3.9139	1.0812	7.46	1.47	0.750			
0.3407	21803.58	3.9110	3.9109	1.0962	7.45	1.46	0.750			
0.3440	22013.86	3.9080	3.9082	1.1062	7.43	1.44	0.750			
0.3473	22229.51	3.9050	3.9050	1.1215	7.42	1.43	0.750			
0.3507	22443.40	3.9020	3.9020	1.1305	7.41	1.42	0.750			
0.3541	22659.56	3.8990	3.8990	1.1351	7.40	1.41	0.750			
0.3575	22876.91	3.8960	3.8961	1.1531	7.38	1.39	0.750			
0.3609	23100.64	3.8930	3.8928	1.1702	7.37	1.38	0.750			
0.3645	23326.58	3.8900	3.8901	1.1856	7.36	1.37	0.750			
0.3680	23555.09	3.8870	3.8870	1.2099	7.35	1.36	0.750			
0.3717	23790.63	3.8840	3.8841	1.2347	7.33	1.34	0.750			
0.3755	24033.93	3.8810	3.8809	1.2572	7.32	1.33	0.750			
0.3793	24272.78	3.8780	3.8781	1.2608	7.30	1.31	0.750	0.362	0.796	
0.3831	24517.04	3.8750	3.8750	1.2751	7.28	1.29	0.750			
0.3870	24765.54	3.8720	3.8719	1.2776	7.26	1.27	0.750			
0.3908	25014.28	3.8690	3.8690	1.2779	7.25	1.26	0.750			
0.3946	25254.52	3.8660	3.8661	1.3029	7.24	1.25	0.750			
0.3986	25508.90	3.8630	3.8629	1.3172	7.22	1.23	0.750			
0.4025	25758.57	3.8600	3.8600	1.3438	7.21	1.22	0.750			
0.4066	26019.37	3.8570	3.8572	1.3770	7.19	1.20	0.750			
0.4108	26289.96	3.8540	3.8541	1.3948	7.18	1.19	0.750			
0.4150	26562.45	3.8510	3.8509	1.4220	7.16	1.17	0.750			
0.4193	26836.59	3.8480	3.8482	1.4499	7.14	1.15	0.750			
0.4237	27118.18	3.8450	3.8449	1.4377	7.11	1.12	0.750			
0.4280	27392.49	3.8420	3.8418	1.4676	7.10	1.11	0.750			
0.4324	27673.15	3.8390	3.8393	1.4757	7.08	1.09	0.750			
0.4368	27957.28	3.8360	3.8359	1.5157	7.06	1.07	0.750			
0.4415	28254.42	3.8330	3.8331	1.5334	7.04	1.05	0.750			
0.4462	28554.86	3.8300	3.8301	1.5424	7.02	1.03	0.750			
0.4508	28849.79	3.8270	3.8270	1.5728	7.01	1.02	0.750			
0.4556	29157.67	3.8240	3.8241	1.5962	6.99	1.00	0.750			
0.4602	29454.39	3.8210	3.8211	1.6184	6.97	0.98	0.750			
0.4652	29771.53	3.8180	3.8180	1.6497	6.95	0.96	0.750			
0.4702	30093.01	3.8150	3.8150	1.6609	6.92	0.93	0.750			
0.4753	30421.07	3.8120	3.8119	1.6954	6.90	0.91	0.750			
0.4805	30751.87	3.8090	3.8091	1.7045	6.88	0.89	0.750			
0.4855	31074.56	3.8060	3.8059	1.6921	6.86	0.87	0.750			
0.4906	31398.38	3.8030	3.8029	1.7140	6.84	0.85	0.750			
0.4956	31719.43	3.8000	3.7999	1.7096	6.82	0.83	0.750			
0.5009	32055.11	3.7970	3.7971	1.7282	6.80	0.81	0.750			
0.5061	32387.66	3.7940	3.7941	1.7421	6.77	0.78	0.750			
0.5113	32725.01	3.7910	3.7909	1.7625	6.75	0.76	0.750			
0.5166	33065.56	3.7880	3.7881	1.8083	6.73	0.74	0.750			
0.5220	33407.78	3.7850	3.7849	1.8462	6.70	0.71	0.750			
0.5276	33764.16	3.7820	3.7818	1.8917	6.68	0.69	0.750			
0.5333	34132.94	3.7790	3.7792	1.9540	6.66	0.67	0.750			
0.5394	34522.66	3.7760	3.7760	2.0104	6.63	0.64	0.750			
0.5455	34909.65	3.7730	3.7729	2.0869	6.61	0.62	0.750			
0.5518	35317.12	3.7700	3.7700	2.1267	6.59	0.60	0.750			
0.5583	35728.45	3.7670	3.7668	2.2190	6.56	0.57	0.750			
0.5650	36162.06	3.7640	3.7642	2.3436	6.53	0.54	0.750			
0.5722	36623.92	3.7610	3.7606	2.4337	6.50	0.51	0.750			
0.5797	37099.85	3.7580	3.7582	2.5143	6.47	0.48	0.750			
0.5874	37593.26	3.7550	3.7548	2.6371	6.44	0.45	0.750			
0.5955	38109.90	3.7520	3.7520	2.7529	6.40	0.41	0.750			
0.6040	38657.29	3.7490	3.7490	2.9161	6.37	0.38	0.750			
0.6130	39235.01	3.7460	3.7461	3.0823	6.34	0.35	0.750			
0.6226	39844.51	3.7430	3.7430	3.0740	6.30	0.31	0.750			
0.6318	40434.16	3.7400	3.7401	2.9790	6.27	0.28	0.750			
0.6406	40997.99	3.7370	3.7370	2.8083	6.24	0.25	0.750			
0.6489	41528.82	3.7340	3.7340	2.5404	6.21	0.22	0.750			
0.6561	41987.53	3.7310	3.7312	2.2401	6.18	0.19	0.750			
0.6620	42370.45	3.7280	3.7280	1.9402	6.16	0.17	0.750			
0.6671	42693.07	3.7250	3.7250	1.6589	6.15	0.16	0.750			
0.6717	42989.42	3.7220	3.7219	1.4727	6.14	0.15	0.750			
0.6756	43240.96	3.7190	3.7191	1.3367	6.13	0.14	0.750			
0.6794	43481.45	3.7160	3.7160	1.2446	6.12	0.13	0.750			
0.6829	43703.05	3.7130	3.7130	1.1862	6.11	0.12	0.750			
0.6864	43926.63	3.7100	3.7099	1.1539	6.10	0.11	0.750			
0.6897	44141.17	3.7070	3.7070	1.1164	6.09	0.10	0.750			
0.6930	44353.66	3.7040	3.7039	1.0934	6.09	0.10	0.750			
0.6963	44561.72	3.7010	3.7012	1.0730	6.08	0.09	0.750			
0.6995	44766.25	3.6980	3.6978	1.0504	6.07	0.08	0.750			
0.7026	44967.27	3.6950	3.6950	1.0162	6.06	0.07	0.750			
0.7056	45158.11	3.6920	3.6920	0.9902	6.06	0.07	0.750			
0.7085	45345.84	3.6890	3.6892	0.9672	6.05	0.06	0.750			
0.7114	45527.42	3.6860	3.6858	0.9423	6.04	0.05	0.750			
0.7142	45705.78	3.6830	3.6830	0.9212	6.04	0.05	0.750			
0.7168	45877.96	3.6800	3.6801	0.9027	6.03	0.04	0.750			
0.7195	46049.29	3.6770	3.6770	0.8954	6.02	0.03	0.750			
0.7222	46222.46	3.6740	3.6741	0.8902	6.02	0.03	0.750			
0.7248	46389.39	3.6710	3.6709	0.8771	6.01	0.02	0.750			
0.7275	46558.85	3.6680	3.6680	0.8693	6.01	0.02	0.750			
0.7301	46723.70	3.6650	3.6649	0.8657	6.00	0.01	0.750			
0.7327	46891.14	3.6620	3.6621	0.8610	6.00	0.01	0.750			
0.7353	47056.33	3.6590	3.6590	0.8524	5.99	0.00	0.750			
0.7378	47220.82	3.6560	3.6560	0.8391	5.99	0.00	0.750			
0.7404	47383.71	3.6530	3.6530	0.8173	5.99	0.00	0.750			
0.7429	47542.67	3.6500	3.6500	0.7808	5.99	0.00	0.750			
0.7452	47692.98	3.6470	3.6471	0.7226	5.99	0.00	0.750			
0.7473	47829.81	3.6440	3.6441	0.6566	5.99	0.00	0.750			
0.7492	47951.76	3.6410	3.6408	0.5765	5.99	0.00	0.750			
0.7508	48053.75	3.6380	3.6381	0.4901	5.99	0.00	0.750			
0.7522	48138.54	3.6350	3.6350	0.4051	5.99	0.00	0.750			
0.7531	48198.76	3.6320	3.6325	0.3444	5.99	0.00	0.750			
0.7540	48258.36	3.6290	3.6290	0.2838	5.99	0.00	0.750			
0.7548	48304.12	3.6260	3.6256	0.2246	5.99	0.00	0.750			
0.7552	48335.29	3.6230	3.6218	0.1658	5.99	0.00	0.750			
0.7556	48359.77	3.5990	3.5726	-0.0907	5.99	0.00	0.750			
0.7556	48361.13	3.6200	3.5528	0.1253	5.99	0.00	0.750			
0.7557	48367.99	3.6170	3.4533	0.0764	5.99	0.00	0.751			
0.7559	48374.51	3.6020	3.3586	-0.0629	5.99	0.00	0.752			
0.7559	48379.99	3.6140	3.2790	0.0486	5.99	0.00	0.752			
0.7560	48383.91	3.6050	3.2222	-0.0350	5.99	0.00	0.753			
0.7560	48386.64	3.6110	3.1824	0.0207	5.99	0.00	0.753			
0.7561	48387.95	3.6080	3.1635	-0.0071	5.99	0.00	0.753			
