Ah_balance (normalized)	Ah_balance (mAh)	Voltage - fit (V)	Voltage -  interpolate (V)	dQ/dV (1/V)	Temperature (°C)	Temperature - diff (°C)	Current (C)	R_DC 0ms (mOhm)	R_DC 50ms (mOhm)	R_DC 50 ms PEC (mOhm)
0.0000	0.00	4.0880	4.1293	0.0000	5.96	-0.02	-0.750			
0.0000	0.00	4.0910	4.1293	0.0000	5.96	-0.02	-0.750			
0.0000	0.00	4.0940	4.1293	0.0000	5.96	-0.02	-0.750			
0.0002	15.45	4.0850	4.0853	-0.0604	5.96	-0.02	-0.750			
0.0005	30.24	4.0820	4.0817	-0.0852	5.96	-0.02	-0.750			
0.0008	49.02	4.0790	4.0789	-0.1103	5.96	-0.02	-0.750			
0.0011	73.21	4.0760	4.0759	-0.1318	5.96	-0.02	-0.750			
0.0016	100.81	4.0730	4.0731	-0.1555	5.96	-0.02	-0.750			
0.0021	132.97	4.0700	4.0701	-0.1778	5.96	-0.02	-0.750			
0.0027	170.11	4.0670	4.0670	-0.2022	5.97	-0.01	-0.750			
0.0033	211.41	4.0640	4.0639	-0.2224	5.97	-0.01	-0.750			
0.0040	256.69	4.0610	4.0610	-0.2418	5.97	-0.01	-0.750			
0.0048	304.25	4.0580	4.0580	-0.2650	5.97	-0.01	-0.750			
0.0056	357.14	4.0550	4.0551	-0.2877	5.97	-0.01	-0.750			
0.0065	414.54	4.0520	4.0519	-0.3098	5.97	-0.01	-0.750			
0.0074	475.39	4.0490	4.0490	-0.3337	5.97	-0.01	-0.750			
0.0085	541.71	4.0460	4.0460	-0.3586	5.97	-0.01	-0.750			
0.0096	614.00	4.0430	4.0430	-0.3802	5.98	-0.00	-0.750			
0.0108	689.18	4.0400	4.0400	-0.4011	5.98	-0.00	-0.750			
0.0120	767.61	4.0370	4.0371	-0.4217	5.98	0.00	-0.750			
0.0133	851.43	4.0340	4.0339	-0.4428	5.98	0.00	-0.750			
0.0147	937.79	4.0310	4.0310	-0.4650	5.98	0.00	-0.750			
0.0161	1028.62	4.0280	4.0280	-0.4867	5.99	0.01	-0.750			
0.0176	1125.54	4.0250	4.0250	-0.5036	5.99	0.01	-0.750			
0.0191	1224.89	4.0220	4.0220	-0.5247	5.99	0.01	-0.750			
0.0207	1327.70	4.0190	4.0191	-0.5402	5.99	0.01	-0.750			
0.0224	1433.11	4.0160	4.0159	-0.5546	6.00	0.02	-0.750			
0.0241	1541.16	4.0130	4.0132	-0.5702	6.00	0.02	-0.750			
0.0258	1651.50	4.0100	4.0100	-0.5824	6.00	0.02	-0.750			
0.0276	1765.01	4.0070	4.0070	-0.5939	6.01	0.03	-0.750			
0.0294	1881.65	4.0040	4.0040	-0.6024	6.01	0.03	-0.750			
0.0312	1997.96	4.0010	4.0011	-0.6189	6.02	0.04	-0.750			
0.0331	2118.30	3.9980	3.9980	-0.6268	6.02	0.04	-0.750			
0.0350	2238.99	3.9950	3.9950	-0.6371	6.03	0.05	-0.750			
0.0369	2362.87	3.9920	3.9922	-0.6416	6.03	0.05	-0.750			
0.0389	2487.06	3.9890	3.9889	-0.6452	6.04	0.06	-0.750			
0.0408	2613.01	3.9860	3.9860	-0.6525	6.04	0.06	-0.750			
0.0428	2737.29	3.9830	3.9830	-0.6623	6.05	0.07	-0.750			
0.0448	2864.38	3.9800	3.9799	-0.6685	6.06	0.08	-0.750			
0.0468	2995.27	3.9770	3.9770	-0.6709	6.06	0.08	-0.750			
0.0488	3123.87	3.9740	3.9741	-0.6764	6.07	0.09	-0.750			
0.0509	3255.72	3.9710	3.9710	-0.6826	6.08	0.10	-0.750			
0.0529	3386.33	3.9680	3.9680	-0.6901	6.09	0.11	-0.750			
0.0550	3518.17	3.9650	3.9649	-0.6930	6.09	0.11	-0.750			
0.0571	3651.32	3.9620	3.9621	-0.6926	6.10	0.12	-0.750			
0.0592	3786.41	3.9590	3.9590	-0.7066	6.11	0.13	-0.750			
0.0613	3923.35	3.9560	3.9560	-0.7140	6.12	0.14	-0.750			
0.0635	4061.23	3.9530	3.9529	-0.7113	6.13	0.15	-0.750			
0.0656	4198.88	3.9500	3.9500	-0.7116	6.14	0.16	-0.750			
0.0677	4334.90	3.9470	3.9471	-0.7149	6.14	0.16	-0.750			
0.0699	4473.77	3.9440	3.9439	-0.7211	6.15	0.17	-0.750			
0.0721	4613.28	3.9410	3.9409	-0.7219	6.16	0.18	-0.750			
0.0742	4750.05	3.9380	3.9382	-0.7202	6.17	0.19	-0.750			
0.0764	4889.72	3.9350	3.9351	-0.7247	6.18	0.20	-0.750			
0.0786	5029.22	3.9320	3.9319	-0.7316	6.19	0.21	-0.750			
0.0808	5169.76	3.9290	3.9290	-0.7288	6.20	0.22	-0.750			
0.0830	5310.62	3.9260	3.9259	-0.7277	6.21	0.23	-0.750			
0.0851	5448.02	3.9230	3.9230	-0.7299	6.21	0.23	-0.750			
0.0873	5589.01	3.9200	3.9201	-0.7342	6.22	0.24	-0.750			
0.0895	5729.46	3.9170	3.9170	-0.7339	6.23	0.25	-0.750			
0.0917	5870.06	3.9140	3.9139	-0.7422	6.24	0.26	-0.750			
0.0940	6014.02	3.9110	3.9112	-0.7430	6.25	0.27	-0.750			
0.0963	6160.32	3.9080	3.9078	-0.7483	6.26	0.28	-0.750			
0.0985	6304.87	3.9050	3.9050	-0.7510	6.27	0.29	-0.750			
0.1007	6447.77	3.9020	3.9019	-0.7463	6.28	0.30	-0.750			
0.1030	6589.91	3.8990	3.8990	-0.7461	6.29	0.31	-0.750			
0.1052	6732.33	3.8960	3.8959	-0.7481	6.29	0.31	-0.750			
0.1074	6874.72	3.8930	3.8930	-0.7420	6.30	0.32	-0.750			
0.1097	7021.44	3.8900	3.8899	-0.7471	6.31	0.33	-0.750			
0.1119	7162.89	3.8870	3.8871	-0.7455	6.32	0.34	-0.750			
0.1141	7305.25	3.8840	3.8841	-0.7454	6.33	0.35	-0.750			
0.1164	7449.42	3.8810	3.8809	-0.7489	6.34	0.36	-0.750			
0.1186	7592.08	3.8780	3.8780	-0.7504	6.35	0.37	-0.750			
0.1209	7736.52	3.8750	3.8750	-0.7547	6.36	0.38	-0.750			
0.1232	7883.60	3.8720	3.8721	-0.7585	6.38	0.40	-0.750			
0.1255	8030.33	3.8690	3.8688	-0.7610	6.39	0.41	-0.750			
0.1277	8174.38	3.8660	3.8660	-0.7648	6.40	0.42	-0.750			
0.1300	8320.83	3.8630	3.8631	-0.7664	6.41	0.43	-0.750			
0.1323	8468.43	3.8600	3.8600	-0.7725	6.42	0.44	-0.750			
0.1347	8618.86	3.8570	3.8569	-0.7759	6.43	0.45	-0.750			
0.1370	8769.33	3.8540	3.8542	-0.7750	6.44	0.46	-0.750			
0.1394	8918.67	3.8510	3.8511	-0.7797	6.45	0.47	-0.750			
0.1417	9067.99	3.8480	3.8480	-0.7756	6.46	0.48	-0.750			
0.1440	9217.59	3.8450	3.8448	-0.7668	6.47	0.49	-0.750			
0.1463	9364.88	3.8420	3.8420	-0.7602	6.48	0.50	-0.750			
0.1486	9508.64	3.8390	3.8391	-0.7543	6.49	0.51	-0.750			
0.1508	9652.56	3.8360	3.8360	-0.7569	6.50	0.52	-0.750			
0.1531	9796.28	3.8330	3.8329	-0.7597	6.51	0.53	-0.750			
0.1553	9939.15	3.8300	3.8299	-0.7599	6.51	0.53	-0.750			
0.1576	10086.86	3.8270	3.8271	-0.7722	6.52	0.54	-0.750			
0.1600	10240.04	3.8240	3.8239	-0.7826	6.53	0.55	-0.750			
0.1624	10391.39	3.8210	3.8211	-0.7805	6.54	0.56	-0.750			
0.1647	10541.32	3.8180	3.8180	-0.7758	6.55	0.57	-0.750			
0.1670	10689.48	3.8150	3.8151	-0.7722	6.56	0.58	-0.750			
0.1693	10836.78	3.8120	3.8120	-0.7683	6.57	0.59	-0.750			
0.1716	10982.59	3.8090	3.8089	-0.7755	6.58	0.60	-0.750			
0.1739	11130.94	3.8060	3.8060	-0.7743	6.59	0.61	-0.750			
0.1763	11280.69	3.8030	3.8030	-0.7771	6.60	0.62	-0.750			
0.1786	11432.29	3.8000	3.8001	-0.7842	6.61	0.63	-0.750			
0.1810	11583.94	3.7970	3.7970	-0.7813	6.62	0.64	-0.750			
0.1833	11732.75	3.7940	3.7938	-0.7767	6.63	0.65	-0.750			
0.1856	11881.33	3.7910	3.7911	-0.7754	6.65	0.67	-0.750			
0.1879	12028.68	3.7880	3.7880	-0.7751	6.66	0.68	-0.750			
0.1903	12179.18	3.7850	3.7849	-0.7790	6.66	0.68	-0.750			
0.1926	12327.64	3.7820	3.7820	-0.7805	6.67	0.69	-0.750			
0.1949	12475.83	3.7790	3.7790	-0.7825	6.68	0.70	-0.750			
0.1973	12627.08	3.7760	3.7759	-0.7899	6.69	0.71	-0.750			
0.1997	12780.16	3.7730	3.7730	-0.7878	6.70	0.72	-0.750			
0.2021	12931.98	3.7700	3.7699	-0.7870	6.71	0.73	-0.750			
0.2044	13083.49	3.7670	3.7671	-0.7937	6.72	0.74	-0.750			
0.2068	13236.06	3.7640	3.7639	-0.7966	6.73	0.75	-0.750			
0.2092	13387.92	3.7610	3.7609	-0.7984	6.74	0.76	-0.750			
0.2116	13543.04	3.7580	3.7583	-0.7980	6.75	0.77	-0.750			
0.2140	13696.88	3.7550	3.7549	-0.7964	6.76	0.78	-0.750			
0.2164	13850.33	3.7520	3.7521	-0.7992	6.77	0.79	-0.750			
0.2188	14001.66	3.7490	3.7491	-0.7985	6.78	0.80	-0.750			
0.2212	14155.67	3.7460	3.7459	-0.7963	6.79	0.81	-0.750			
0.2235	14307.17	3.7430	3.7430	-0.7957	6.80	0.82	-0.750			
0.2259	14458.19	3.7400	3.7401	-0.8009	6.81	0.83	-0.750			
0.2283	14613.26	3.7370	3.7369	-0.8107	6.81	0.83	-0.750			
0.2308	14769.96	3.7340	3.7339	-0.8148	6.82	0.84	-0.750			
0.2332	14926.49	3.7310	3.7311	-0.8167	6.83	0.85	-0.750			
0.2357	15085.01	3.7280	3.7280	-0.8220	6.84	0.86	-0.750			
0.2382	15245.68	3.7250	3.7249	-0.8244	6.85	0.87	-0.750			
0.2406	15400.17	3.7220	3.7220	-0.8274	6.86	0.88	-0.750			
0.2431	15559.53	3.7190	3.7191	-0.8301	6.87	0.89	-0.750			
0.2456	15718.69	3.7160	3.7159	-0.8388	6.88	0.90	-0.750			
0.2481	15881.30	3.7130	3.7128	-0.8459	6.89	0.91	-0.750			
0.2507	16044.57	3.7100	3.7101	-0.8527	6.89	0.91	-0.750			
0.2533	16209.54	3.7070	3.7069	-0.8535	6.90	0.92	-0.750			
0.2558	16374.37	3.7040	3.7042	-0.8596	6.91	0.93	-0.750			
0.2584	16537.49	3.7010	3.7010	-0.8568	6.92	0.94	-0.750			
0.2610	16704.09	3.6980	3.6981	-0.8713	6.93	0.95	-0.750			
0.2636	16870.54	3.6950	3.6950	-0.8765	6.94	0.96	-0.750			
0.2663	17040.38	3.6920	3.6920	-0.8842	6.94	0.96	-0.750			
0.2689	17211.96	3.6890	3.6889	-0.8844	6.95	0.97	-0.750			
0.2716	17384.26	3.6860	3.6861	-0.8879	6.96	0.98	-0.750			
0.2743	17552.47	3.6830	3.6832	-0.8878	6.97	0.99	-0.750			
0.2769	17722.30	3.6800	3.6799	-0.8942	6.98	1.00	-0.750			
0.2796	17893.47	3.6770	3.6770	-0.9020	6.98	1.00	-0.750			
0.2823	18065.25	3.6740	3.6740	-0.9088	6.99	1.01	-0.750			
0.2851	18243.48	3.6710	3.6709	-0.9174	7.00	1.02	-0.750			
0.2878	18421.02	3.6680	3.6681	-0.9202	7.00	1.02	-0.750			
0.2906	18597.42	3.6650	3.6651	-0.9293	7.01	1.03	-0.750			
0.2934	18776.30	3.6620	3.6618	-0.9287	7.02	1.04	-0.750			
0.2962	18954.18	3.6590	3.6590	-0.9322	7.03	1.05	-0.750			
0.2990	19133.71	3.6560	3.6563	-0.9383	7.04	1.06	-0.750			
0.3018	19313.83	3.6530	3.6530	-0.9509	7.05	1.07	-0.750			
0.3046	19496.90	3.6500	3.6499	-0.9668	7.05	1.07	-0.750			
0.3075	19681.75	3.6470	3.6469	-0.9742	7.06	1.08	-0.750			
0.3105	19872.95	3.6440	3.6439	-0.9839	7.07	1.09	-0.750			
0.3135	20063.57	3.6410	3.6411	-0.9891	7.07	1.09	-0.750			
0.3165	20256.29	3.6380	3.6380	-0.9955	7.08	1.10	-0.750			
0.3195	20447.95	3.6350	3.6349	-0.9943	7.08	1.10	-0.750			
0.3224	20634.96	3.6320	3.6319	-0.9926	7.09	1.11	-0.750			
0.3254	20825.19	3.6290	3.6291	-1.0042	7.09	1.11	-0.750			
0.3284	21020.14	3.6260	3.6259	-1.0091	7.10	1.12	-0.750			
0.3315	21215.31	3.6230	3.6228	-1.0092	7.10	1.12	-0.750			
0.3345	21408.22	3.6200	3.6201	-1.0067	7.11	1.13	-0.750			
0.3375	21603.19	3.6170	3.6172	-1.0192	7.11	1.13	-0.750			
0.3406	21797.99	3.6140	3.6140	-1.0268	7.12	1.14	-0.750			
0.3436	21992.81	3.6110	3.6109	-1.0477	7.13	1.15	-0.750			
0.3467	22191.69	3.6080	3.6079	-1.0597	7.13	1.15	-0.750			
0.3500	22400.65	3.6050	3.6051	-1.0823	7.14	1.16	-0.750			
0.3534	22618.55	3.6020	3.6020	-1.0886	7.15	1.17	-0.750			
0.3567	22828.09	3.5990	3.5990	-1.0823	7.15	1.17	-0.750			
0.3599	23033.93	3.5960	3.5961	-1.0806	7.16	1.18	-0.750			
0.3631	23237.41	3.5930	3.5930	-1.0830	7.16	1.18	-0.750			
0.3663	23441.71	3.5900	3.5899	-1.0964	7.17	1.19	-0.750			
0.3696	23652.92	3.5870	3.5870	-1.1078	7.17	1.19	-0.750			
0.3730	23869.13	3.5840	3.5840	-1.1194	7.18	1.20	-0.750			
0.3764	24088.96	3.5810	3.5809	-1.1307	7.18	1.20	-0.750	0.377	0.829	
0.3798	24306.83	3.5780	3.5781	-1.1380	7.19	1.21	-0.750			
0.3832	24523.91	3.5750	3.5749	-1.1459	7.19	1.21	-0.750			
0.3866	24741.52	3.5720	3.5720	-1.1506	7.20	1.22	-0.750			
0.3901	24964.33	3.5690	3.5690	-1.1537	7.21	1.23	-0.750			
0.3936	25189.71	3.5660	3.5660	-1.1672	7.21	1.23	-0.750			
0.3971	25416.42	3.5630	3.5631	-1.1784	7.22	1.24	-0.750			
0.4006	25641.15	3.5600	3.5600	-1.1875	7.22	1.24	-0.750			
0.4042	25869.08	3.5570	3.5569	-1.1909	7.22	1.24	-0.750			
0.4078	26100.43	3.5540	3.5539	-1.1924	7.23	1.25	-0.750			
0.4114	26331.42	3.5510	3.5511	-1.1922	7.23	1.25	-0.750			
0.4150	26559.64	3.5480	3.5481	-1.2054	7.24	1.26	-0.750			
0.4186	26788.38	3.5450	3.5450	-1.2119	7.25	1.27	-0.750			
0.4222	27018.81	3.5420	3.5419	-1.2309	7.26	1.28	-0.750			
0.4259	27255.35	3.5390	3.5389	-1.2459	7.26	1.28	-0.750			
0.4297	27501.08	3.5360	3.5361	-1.2545	7.26	1.28	-0.750			
0.4335	27745.52	3.5330	3.5329	-1.2563	7.27	1.29	-0.750			
0.4373	27990.31	3.5300	3.5302	-1.2479	7.27	1.29	-0.750			
0.4411	28230.80	3.5270	3.5269	-1.2374	7.28	1.30	-0.750			
0.4447	28458.89	3.5240	3.5241	-1.2389	7.29	1.31	-0.750			
0.4483	28694.36	3.5210	3.5209	-1.2541	7.30	1.32	-0.750			
0.4521	28936.02	3.5180	3.5179	-1.2645	7.31	1.33	-0.750			
0.4560	29181.52	3.5150	3.5149	-1.2802	7.32	1.34	-0.750			
0.4598	29429.23	3.5120	3.5122	-1.2979	7.33	1.35	-0.750			
0.4638	29683.92	3.5090	3.5090	-1.2929	7.33	1.35	-0.750			
0.4678	29938.04	3.5060	3.5059	-1.2903	7.33	1.35	-0.750			
0.4715	30178.58	3.5030	3.5030	-1.2891	7.34	1.36	-0.750			
0.4754	30424.25	3.5000	3.5001	-1.2816	7.34	1.36	-0.750			
0.4793	30673.74	3.4970	3.4968	-1.2708	7.35	1.37	-0.750			
0.4831	30916.42	3.4940	3.4939	-1.2577	7.36	1.38	-0.750			
0.4868	31155.09	3.4910	3.4914	-1.2487	7.37	1.39	-0.750			
0.4906	31397.52	3.4880	3.4879	-1.2493	7.38	1.40	-0.750			
0.4943	31633.07	3.4850	3.4849	-1.2441	7.39	1.41	-0.750			
0.4979	31868.35	3.4820	3.4820	-1.2401	7.40	1.42	-0.750			
0.5017	32111.76	3.4790	3.4789	-1.2362	7.41	1.43	-0.750			
0.5055	32350.17	3.4760	3.4760	-1.2275	7.42	1.44	-0.750			
0.5091	32579.61	3.4730	3.4731	-1.2343	7.42	1.44	-0.750			
0.5128	32816.54	3.4700	3.4700	-1.2234	7.43	1.45	-0.750			
0.5164	33051.82	3.4670	3.4668	-1.2177	7.45	1.47	-0.750			
0.5201	33284.67	3.4640	3.4640	-1.2136	7.46	1.48	-0.750			
0.5237	33519.17	3.4610	3.4611	-1.2169	7.47	1.49	-0.750			
0.5275	33757.49	3.4580	3.4580	-1.2092	7.48	1.50	-0.750			
0.5311	33989.21	3.4550	3.4549	-1.1855	7.49	1.51	-0.750			
0.5346	34212.03	3.4520	3.4520	-1.1629	7.50	1.52	-0.750			
0.5380	34432.93	3.4490	3.4490	-1.1629	7.50	1.52	-0.750			
0.5414	34652.13	3.4460	3.4460	-1.1590	7.52	1.54	-0.750			
0.5449	34872.37	3.4430	3.4429	-1.1544	7.53	1.55	-0.750			
0.5484	35096.22	3.4400	3.4400	-1.1517	7.54	1.56	-0.750			
0.5519	35321.25	3.4370	3.4370	-1.1569	7.55	1.57	-0.750			
0.5554	35547.10	3.4340	3.4340	-1.1493	7.57	1.59	-0.750			
0.5588	35765.57	3.4310	3.4309	-1.1291	7.58	1.60	-0.750			
0.5621	35977.06	3.4280	3.4282	-1.1087	7.59	1.61	-0.750			
0.5655	36188.88	3.4250	3.4251	-1.0964	7.60	1.62	-0.750			
0.5687	36398.51	3.4220	3.4219	-1.0885	7.61	1.63	-0.750			
0.5720	36608.47	3.4190	3.4189	-1.0701	7.61	1.63	-0.750			
0.5752	36811.51	3.4160	3.4160	-1.0591	7.62	1.64	-0.750			
0.5783	37013.67	3.4130	3.4131	-1.0418	7.64	1.66	-0.750			
0.5814	37212.13	3.4100	3.4100	-1.0292	7.65	1.67	-0.750			
0.5845	37406.72	3.4070	3.4069	-1.0107	7.66	1.68	-0.750			
0.5875	37600.04	3.4040	3.4041	-1.0034	7.67	1.69	-0.750			
0.5905	37791.78	3.4010	3.4010	-0.9973	7.69	1.71	-0.750			
0.5935	37985.23	3.3980	3.3980	-0.9891	7.70	1.72	-0.750			
0.5965	38174.81	3.3950	3.3949	-0.9649	7.71	1.73	-0.750			
0.5994	38359.28	3.3920	3.3922	-0.9516	7.72	1.74	-0.750			
0.6022	38538.33	3.3890	3.3890	-0.9372	7.74	1.76	-0.750			
0.6050	38717.14	3.3860	3.3859	-0.9228	7.75	1.77	-0.750			
0.6077	38890.29	3.3830	3.3829	-0.9052	7.77	1.79	-0.750			
0.6104	39066.29	3.3800	3.3800	-0.8902	7.78	1.80	-0.750			
0.6131	39235.43	3.3770	3.3769	-0.8692	7.80	1.82	-0.750			
0.6157	39402.34	3.3740	3.3740	-0.8598	7.81	1.83	-0.750			
0.6182	39562.25	3.3710	3.3709	-0.8377	7.82	1.84	-0.750			
0.6206	39717.59	3.3680	3.3680	-0.8220	7.83	1.85	-0.750			
0.6231	39878.44	3.3650	3.3650	-0.8123	7.84	1.86	-0.750			
0.6255	40033.41	3.3620	3.3619	-0.7981	7.85	1.87	-0.750			
0.6279	40186.59	3.3590	3.3590	-0.7833	7.86	1.88	-0.750			
0.6302	40335.02	3.3560	3.3561	-0.7662	7.87	1.89	-0.750			
0.6325	40479.75	3.3530	3.3529	-0.7448	7.89	1.91	-0.750			
0.6347	40621.42	3.3500	3.3500	-0.7303	7.90	1.92	-0.750			
0.6368	40758.17	3.3470	3.3471	-0.7114	7.91	1.93	-0.750			
0.6390	40894.20	3.3440	3.3440	-0.6971	7.92	1.94	-0.750			
0.6411	41027.28	3.3410	3.3410	-0.6809	7.94	1.96	-0.750			
0.6431	41155.97	3.3380	3.3380	-0.6690	7.95	1.97	-0.750			
0.6450	41282.18	3.3350	3.3350	-0.6571	7.96	1.98	-0.750			
0.6470	41406.93	3.3320	3.3320	-0.6519	7.98	2.00	-0.750			
0.6489	41530.89	3.3290	3.3290	-0.6373	7.99	2.01	-0.750			
0.6508	41652.52	3.3260	3.3260	-0.6311	8.00	2.02	-0.750			
0.6527	41773.58	3.3230	3.3230	-0.6231	8.02	2.04	-0.750			
0.6546	41892.63	3.3200	3.3200	-0.6105	8.03	2.05	-0.750			
0.6564	42008.64	3.3170	3.3169	-0.5970	8.05	2.07	-0.750			
0.6582	42122.31	3.3140	3.3141	-0.5880	8.06	2.08	-0.750			
0.6599	42234.08	3.3110	3.3110	-0.5760	8.08	2.10	-0.750			
0.6616	42345.17	3.3080	3.3080	-0.5660	8.09	2.11	-0.750			
0.6633	42450.87	3.3050	3.3050	-0.5531	8.10	2.12	-0.750			
0.6649	42555.93	3.3020	3.3020	-0.5435	8.11	2.13	-0.750			
0.6666	42659.54	3.2990	3.2990	-0.5348	8.13	2.15	-0.750			
0.6681	42761.23	3.2960	3.2960	-0.5253	8.14	2.16	-0.750			
0.6697	42860.55	3.2930	3.2930	-0.5163	8.15	2.17	-0.750			
0.6713	42960.65	3.2900	3.2900	-0.5033	8.16	2.18	-0.750			
0.6728	43056.32	3.2870	3.2869	-0.4934	8.17	2.19	-0.750			
0.6742	43149.21	3.2840	3.2842	-0.4826	8.18	2.20	-0.750			
0.6756	43240.61	3.2810	3.2809	-0.4710	8.19	2.21	-0.750			
0.6770	43329.06	3.2780	3.2779	-0.4630	8.21	2.23	-0.750			
0.6784	43416.72	3.2750	3.2751	-0.4538	8.22	2.24	-0.750			
0.6797	43503.62	3.2720	3.2720	-0.4491	8.23	2.25	-0.750			
0.6811	43589.82	3.2690	3.2690	-0.4427	8.24	2.26	-0.750			
0.6824	43672.37	3.2660	3.2661	-0.4346	8.25	2.27	-0.750			
0.6837	43755.29	3.2630	3.2630	-0.4318	8.26	2.28	-0.750			
0.6850	43838.51	3.2600	3.2600	-0.4264	8.28	2.30	-0.750			
0.6862	43919.99	3.2570	3.2569	-0.4188	8.29	2.31	-0.750			
0.6875	43999.97	3.2540	3.2541	-0.4168	8.30	2.32	-0.750			
0.6887	44079.31	3.2510	3.2510	-0.4109	8.31	2.33	-0.750			
0.6900	44157.68	3.2480	3.2480	-0.4053	8.32	2.34	-0.750			
0.6912	44234.86	3.2450	3.2450	-0.3982	8.33	2.35	-0.750			
0.6924	44311.15	3.2420	3.2421	-0.3905	8.34	2.36	-0.750			
0.6935	44385.71	3.2390	3.2390	-0.3852	8.36	2.38	-0.750			
0.6947	44458.62	3.2360	3.2361	-0.3784	8.37	2.39	-0.750			
0.6958	44529.61	3.2330	3.2329	-0.3693	8.38	2.40	-0.750			
0.6969	44599.91	3.2300	3.2299	-0.3643	8.39	2.41	-0.750			
0.6980	44669.31	3.2270	3.2271	-0.3597	8.40	2.42	-0.750			
0.6990	44737.88	3.2240	3.2241	-0.3547	8.40	2.42	-0.750			
0.7001	44806.42	3.2210	3.2209	-0.3509	8.41	2.43	-0.750			
0.7011	44872.93	3.2180	3.2180	-0.3444	8.42	2.44	-0.750			
0.7022	44937.92	3.2150	3.2150	-0.3409	8.43	2.45	-0.750			
0.7032	45002.95	3.2120	3.2121	-0.3382	8.45	2.47	-0.750			
0.7042	45067.83	3.2090	3.2089	-0.3332	8.46	2.48	-0.750			
0.7052	45131.42	3.2060	3.2060	-0.3295	8.47	2.49	-0.750			
0.7062	45194.52	3.2030	3.2031	-0.3260	8.48	2.50	-0.750			
0.7071	45256.59	3.2000	3.2000	-0.3222	8.49	2.51	-0.750			
0.7081	45318.20	3.1970	3.1969	-0.3186	8.50	2.52	-0.750			
0.7090	45378.96	3.1940	3.1940	-0.3122	8.51	2.53	-0.750			
0.7100	45438.08	3.1910	3.1910	-0.3100	8.52	2.54	-0.750			
0.7109	45497.33	3.1880	3.1880	-0.3086	8.53	2.55	-0.750			
0.7118	45556.13	3.1850	3.1850	-0.3044	8.54	2.56	-0.750			
0.7127	45614.61	3.1820	3.1819	-0.3008	8.55	2.57	-0.750			
0.7136	45672.22	3.1790	3.1791	-0.2975	8.56	2.58	-0.750			
0.7145	45729.30	3.1760	3.1760	-0.2946	8.57	2.59	-0.750			
0.7154	45785.59	3.1730	3.1730	-0.2918	8.58	2.60	-0.750			
0.7163	45840.41	3.1700	3.1700	-0.2871	8.59	2.61	-0.750			
0.7171	45894.80	3.1670	3.1670	-0.2835	8.60	2.62	-0.750			
0.7180	45949.45	3.1640	3.1640	-0.2816	8.61	2.63	-0.750			
0.7188	46003.54	3.1610	3.1611	-0.2787	8.62	2.64	-0.750			
0.7196	46056.41	3.1580	3.1580	-0.2754	8.63	2.65	-0.750			
0.7205	46109.22	3.1550	3.1550	-0.2723	8.64	2.66	-0.750			
0.7213	46161.23	3.1520	3.1520	-0.2694	8.65	2.67	-0.750			
0.7221	46212.47	3.1490	3.1490	-0.2659	8.66	2.68	-0.750			
0.7229	46263.12	3.1460	3.1460	-0.2633	8.67	2.69	-0.750			
0.7236	46313.56	3.1430	3.1430	-0.2610	8.68	2.70	-0.750			
0.7244	46363.53	3.1400	3.1400	-0.2577	8.68	2.70	-0.750			
0.7252	46412.56	3.1370	3.1370	-0.2548	8.70	2.72	-0.750			
0.7260	46460.82	3.1340	3.1341	-0.2530	8.71	2.73	-0.750			
0.7267	46509.25	3.1310	3.1310	-0.2501	8.72	2.74	-0.750			
0.7275	46557.22	3.1280	3.1279	-0.2491	8.73	2.75	-0.750			
0.7282	46604.60	3.1250	3.1250	-0.2472	8.74	2.76	-0.750			
0.7289	46651.48	3.1220	3.1221	-0.2466	8.75	2.77	-0.750			
0.7297	46699.33	3.1190	3.1189	-0.2438	8.76	2.78	-0.750			
0.7304	46746.24	3.1160	3.1161	-0.2429	8.77	2.79	-0.750			
0.7311	46792.76	3.1130	3.1129	-0.2401	8.78	2.80	-0.750			
0.7319	46838.58	3.1100	3.1103	-0.2374	8.79	2.81	-0.750			
0.7326	46883.86	3.1070	3.1068	-0.2356	8.80	2.82	-0.750			
0.7333	46928.79	3.1040	3.1041	-0.2333	8.81	2.83	-0.750			
0.7340	46973.35	3.1010	3.1010	-0.2324	8.82	2.84	-0.750			
0.7347	47017.97	3.0980	3.0979	-0.2298	8.83	2.85	-0.750			
0.7354	47062.78	3.0950	3.0950	-0.2290	8.83	2.85	-0.750			
0.7360	47106.11	3.0920	3.0920	-0.2261	8.84	2.86	-0.750			
0.7367	47149.31	3.0890	3.0892	-0.2256	8.85	2.87	-0.750			
0.7374	47192.55	3.0860	3.0859	-0.2233	8.86	2.88	-0.750			
0.7380	47234.82	3.0830	3.0830	-0.2208	8.87	2.89	-0.750			
0.7387	47276.67	3.0800	3.0800	-0.2211	8.88	2.90	-0.750			
0.7394	47318.99	3.0770	3.0772	-0.2201	8.89	2.91	-0.750			
0.7400	47361.91	3.0740	3.0739	-0.2203	8.90	2.92	-0.750			
0.7407	47404.08	3.0710	3.0709	-0.2189	8.91	2.93	-0.750			
0.7413	47445.97	3.0680	3.0681	-0.2177	8.92	2.94	-0.750			
0.7420	47487.89	3.0650	3.0650	-0.2152	8.93	2.95	-0.750			
0.7426	47529.59	3.0620	3.0619	-0.2139	8.94	2.96	-0.750			
0.7433	47569.94	3.0590	3.0590	-0.2114	8.95	2.97	-0.750			
0.7439	47609.71	3.0560	3.0562	-0.2081	8.96	2.98	-0.750			
0.7445	47649.41	3.0530	3.0530	-0.2069	8.97	2.99	-0.750			
0.7451	47688.66	3.0500	3.0500	-0.2058	8.98	3.00	-0.750			
0.7458	47728.13	3.0470	3.0469	-0.2054	8.99	3.01	-0.750			
0.7464	47767.29	3.0440	3.0441	-0.2039	9.00	3.02	-0.750			
0.7470	47806.64	3.0410	3.0410	-0.2042	9.01	3.03	-0.750			
0.7476	47846.03	3.0380	3.0381	-0.2032	9.02	3.04	-0.750			
0.7482	47884.76	3.0350	3.0350	-0.2026	9.03	3.05	-0.750			
0.7488	47923.44	3.0320	3.0319	-0.2017	9.03	3.05	-0.750			
0.7494	47962.30	3.0290	3.0290	-0.2000	9.04	3.06	-0.750			
0.7500	48000.68	3.0260	3.0260	-0.1982	9.05	3.07	-0.750			
0.7506	48038.51	3.0230	3.0231	-0.1966	9.06	3.08	-0.750			
0.7512	48076.38	3.0200	3.0201	-0.1951	9.07	3.09	-0.750			
0.7518	48113.31	3.0170	3.0170	-0.1936	9.08	3.10	-0.750			
0.7524	48150.44	3.0140	3.0139	-0.1923	9.09	3.11	-0.750			
0.7529	48186.82	3.0110	3.0110	-0.1905	9.10	3.12	-0.750			
0.7535	48223.36	3.0080	3.0080	-0.1901	9.11	3.13	-0.750			
0.7541	48260.02	3.0050	3.0050	-0.1885	9.12	3.14	-0.750			
0.7546	48296.02	3.0020	3.0021	-0.1851	9.12	3.14	-0.750			
