Ah_balance (normalized)	Ah_balance (mAh)	Voltage - fit (V)	Voltage -  interpolate (V)	dQ/dV (1/V)	Temperature (°C)	Temperature - diff (°C)	Current (C)	R_DC 0ms (mOhm)	R_DC 50ms (mOhm)	R_DC 50 ms PEC (mOhm)
0.0000	0.00	4.0890	4.1322	0.0000	5.98	-0.00	-0.749			
0.0000	0.00	4.0920	4.1322	0.0000	5.98	-0.00	-0.749			
0.0000	0.00	4.0950	4.1322	0.0000	5.98	-0.00	-0.749			
0.0002	14.09	4.0860	4.0863	-0.0565	5.98	-0.00	-0.750			
0.0004	27.42	4.0830	4.0829	-0.0823	5.98	-0.00	-0.750			
0.0007	46.90	4.0800	4.0797	-0.1044	5.98	-0.00	-0.750			
0.0011	68.79	4.0770	4.0770	-0.1305	5.98	-0.00	-0.750			
0.0015	96.45	4.0740	4.0739	-0.1540	5.98	-0.00	-0.750			
0.0020	128.35	4.0710	4.0711	-0.1783	5.98	-0.00	-0.750			
0.0026	165.48	4.0680	4.0678	-0.2016	5.98	-0.00	-0.750			
0.0032	206.79	4.0650	4.0651	-0.2213	5.98	-0.00	-0.750			
0.0039	250.81	4.0620	4.0621	-0.2449	5.98	-0.00	-0.750			
0.0047	300.18	4.0590	4.0591	-0.2664	5.98	-0.00	-0.750			
0.0055	353.67	4.0560	4.0559	-0.2881	5.98	0.00	-0.750			
0.0064	410.22	4.0530	4.0529	-0.3092	5.98	0.00	-0.750			
0.0074	472.00	4.0500	4.0502	-0.3308	5.98	0.00	-0.750			
0.0084	537.65	4.0470	4.0470	-0.3523	5.98	0.00	-0.750			
0.0095	608.11	4.0440	4.0438	-0.3725	5.98	0.00	-0.750			
0.0106	680.68	4.0410	4.0411	-0.3933	5.98	0.00	-0.750			
0.0118	757.37	4.0380	4.0380	-0.4192	5.99	0.01	-0.750			
0.0131	840.48	4.0350	4.0350	-0.4439	5.99	0.01	-0.750			
0.0145	929.39	4.0320	4.0320	-0.4616	5.99	0.01	-0.750			
0.0160	1021.39	4.0290	4.0290	-0.4802	5.99	0.01	-0.750			
0.0174	1114.94	4.0260	4.0262	-0.4987	5.99	0.01	-0.750			
0.0190	1212.88	4.0230	4.0229	-0.5152	5.99	0.01	-0.750			
0.0205	1312.25	4.0200	4.0200	-0.5289	5.99	0.01	-0.750			
0.0221	1414.40	4.0170	4.0170	-0.5386	5.99	0.01	-0.750			
0.0237	1519.93	4.0140	4.0141	-0.5601	6.00	0.02	-0.750			
0.0255	1630.02	4.0110	4.0110	-0.5788	6.00	0.02	-0.750			
0.0272	1742.50	4.0080	4.0079	-0.5923	6.00	0.02	-0.750			
0.0290	1857.25	4.0050	4.0048	-0.6026	6.00	0.02	-0.750			
0.0309	1974.57	4.0020	4.0023	-0.6148	6.00	0.02	-0.750			
0.0328	2096.58	3.9990	3.9989	-0.6215	6.00	0.02	-0.750			
0.0346	2217.27	3.9960	3.9959	-0.6257	6.01	0.03	-0.750			
0.0365	2335.92	3.9930	3.9931	-0.6293	6.01	0.03	-0.750			
0.0384	2457.60	3.9900	3.9901	-0.6332	6.01	0.03	-0.750			
0.0403	2579.78	3.9870	3.9869	-0.6423	6.02	0.04	-0.750			
0.0422	2703.30	3.9840	3.9840	-0.6499	6.02	0.04	-0.750			
0.0442	2827.26	3.9810	3.9810	-0.6617	6.03	0.05	-0.750			
0.0462	2955.88	3.9780	3.9781	-0.6754	6.03	0.05	-0.750			
0.0483	3088.62	3.9750	3.9749	-0.6803	6.04	0.06	-0.750			
0.0503	3219.85	3.9720	3.9720	-0.6877	6.05	0.07	-0.750			
0.0524	3354.61	3.9690	3.9691	-0.6954	6.06	0.08	-0.750			
0.0545	3487.69	3.9660	3.9659	-0.6968	6.07	0.09	-0.750			
0.0566	3622.54	3.9630	3.9629	-0.6980	6.08	0.10	-0.750			
0.0587	3756.00	3.9600	3.9600	-0.6980	6.08	0.10	-0.750			
0.0608	3889.68	3.9570	3.9570	-0.7036	6.09	0.11	-0.750			
0.0629	4025.20	3.9540	3.9540	-0.7113	6.10	0.12	-0.750			
0.0650	4162.00	3.9510	3.9509	-0.7147	6.10	0.12	-0.750			
0.0672	4301.16	3.9480	3.9481	-0.7164	6.11	0.13	-0.750			
0.0694	4440.34	3.9450	3.9450	-0.7165	6.12	0.14	-0.750			
0.0715	4578.33	3.9420	3.9421	-0.7157	6.13	0.15	-0.750			
0.0737	4715.01	3.9390	3.9390	-0.7168	6.13	0.15	-0.750			
0.0758	4851.43	3.9360	3.9359	-0.7164	6.14	0.16	-0.750			
0.0779	4988.33	3.9330	3.9329	-0.7162	6.15	0.17	-0.750			
0.0801	5126.33	3.9300	3.9301	-0.7219	6.16	0.18	-0.750			
0.0823	5267.67	3.9270	3.9270	-0.7274	6.17	0.19	-0.750			
0.0845	5406.00	3.9240	3.9240	-0.7340	6.17	0.19	-0.750			
0.0867	5547.57	3.9210	3.9210	-0.7336	6.18	0.20	-0.750			
0.0889	5690.24	3.9180	3.9179	-0.7348	6.19	0.21	-0.750			
0.0911	5830.76	3.9150	3.9150	-0.7358	6.20	0.22	-0.750			
0.0933	5972.92	3.9120	3.9120	-0.7354	6.20	0.22	-0.750			
0.0955	6112.80	3.9090	3.9090	-0.7331	6.21	0.23	-0.750			
0.0977	6252.47	3.9060	3.9060	-0.7379	6.22	0.24	-0.750			
0.0999	6393.57	3.9030	3.9031	-0.7394	6.23	0.25	-0.750			
0.1022	6537.89	3.9000	3.8998	-0.7466	6.24	0.26	-0.750			
0.1044	6682.94	3.8970	3.8970	-0.7490	6.25	0.27	-0.750			
0.1067	6826.36	3.8940	3.8940	-0.7478	6.26	0.28	-0.750			
0.1089	6971.72	3.8910	3.8910	-0.7479	6.27	0.29	-0.750			
0.1112	7114.07	3.8880	3.8879	-0.7455	6.27	0.29	-0.750			
0.1134	7254.57	3.8850	3.8851	-0.7413	6.28	0.30	-0.750			
0.1156	7398.04	3.8820	3.8820	-0.7460	6.29	0.31	-0.750			
0.1178	7539.81	3.8790	3.8790	-0.7508	6.30	0.32	-0.750			
0.1201	7684.14	3.8760	3.8760	-0.7605	6.31	0.33	-0.750			
0.1224	7831.70	3.8730	3.8729	-0.7645	6.32	0.34	-0.750			
0.1247	7980.32	3.8700	3.8699	-0.7724	6.32	0.34	-0.750			
0.1270	8130.61	3.8670	3.8671	-0.7728	6.33	0.35	-0.750			
0.1294	8280.59	3.8640	3.8639	-0.7682	6.34	0.36	-0.750			
0.1317	8427.66	3.8610	3.8609	-0.7665	6.35	0.37	-0.750			
0.1340	8572.81	3.8580	3.8581	-0.7650	6.36	0.38	-0.750			
0.1362	8718.21	3.8550	3.8550	-0.7582	6.37	0.39	-0.750			
0.1385	8864.06	3.8520	3.8520	-0.7604	6.38	0.40	-0.750			
0.1408	9009.67	3.8490	3.8490	-0.7596	6.39	0.41	-0.750			
0.1431	9156.88	3.8460	3.8461	-0.7604	6.40	0.42	-0.750			
0.1454	9303.28	3.8430	3.8429	-0.7639	6.41	0.43	-0.750			
0.1476	9449.14	3.8400	3.8400	-0.7606	6.42	0.44	-0.750			
0.1499	9594.81	3.8370	3.8370	-0.7601	6.43	0.45	-0.750			
0.1522	9741.28	3.8340	3.8340	-0.7650	6.44	0.46	-0.750			
0.1545	9887.06	3.8310	3.8310	-0.7690	6.45	0.47	-0.750			
0.1568	10035.28	3.8280	3.8279	-0.7703	6.46	0.48	-0.750			
0.1591	10183.34	3.8250	3.8248	-0.7743	6.47	0.49	-0.750			
0.1614	10332.69	3.8220	3.8221	-0.7728	6.48	0.50	-0.750			
0.1638	10483.21	3.8190	3.8191	-0.7714	6.49	0.51	-0.750			
0.1661	10631.98	3.8160	3.8159	-0.7707	6.49	0.51	-0.750			
0.1684	10778.37	3.8130	3.8131	-0.7694	6.50	0.52	-0.750			
0.1707	10921.66	3.8100	3.8101	-0.7723	6.51	0.53	-0.750			
0.1730	11071.79	3.8070	3.8069	-0.7779	6.52	0.54	-0.750			
0.1753	11222.21	3.8040	3.8040	-0.7790	6.53	0.55	-0.750			
0.1777	11374.41	3.8010	3.8011	-0.7797	6.54	0.56	-0.750			
0.1801	11526.55	3.7980	3.7983	-0.7839	6.55	0.57	-0.750			
0.1824	11676.65	3.7950	3.7949	-0.7740	6.56	0.58	-0.750			
0.1847	11822.67	3.7920	3.7920	-0.7652	6.57	0.59	-0.750			
0.1870	11967.67	3.7890	3.7891	-0.7627	6.57	0.59	-0.750			
0.1893	12114.40	3.7860	3.7860	-0.7666	6.58	0.60	-0.750			
0.1916	12260.23	3.7830	3.7829	-0.7713	6.59	0.61	-0.750			
0.1939	12409.23	3.7800	3.7799	-0.7737	6.60	0.62	-0.750			
0.1962	12555.79	3.7770	3.7771	-0.7805	6.61	0.63	-0.750			
0.1986	12709.84	3.7740	3.7741	-0.7898	6.62	0.64	-0.750			
0.2010	12862.78	3.7710	3.7709	-0.7886	6.64	0.66	-0.750			
0.2034	13014.64	3.7680	3.7678	-0.7910	6.65	0.67	-0.750			
0.2057	13165.74	3.7650	3.7653	-0.7896	6.66	0.68	-0.750			
0.2081	13317.26	3.7620	3.7618	-0.7875	6.67	0.69	-0.750			
0.2104	13468.14	3.7590	3.7589	-0.7932	6.68	0.70	-0.750			
0.2128	13616.95	3.7560	3.7561	-0.7886	6.68	0.70	-0.750			
0.2152	13772.25	3.7530	3.7529	-0.7939	6.69	0.71	-0.750			
0.2176	13927.30	3.7500	3.7501	-0.8010	6.70	0.72	-0.750			
0.2200	14080.32	3.7470	3.7472	-0.7994	6.71	0.73	-0.750			
0.2224	14234.41	3.7440	3.7440	-0.8013	6.72	0.74	-0.750			
0.2248	14387.10	3.7410	3.7409	-0.8066	6.72	0.74	-0.750			
0.2272	14540.70	3.7380	3.7380	-0.8004	6.73	0.75	-0.750			
0.2296	14695.10	3.7350	3.7350	-0.8098	6.74	0.76	-0.750			
0.2321	14852.81	3.7320	3.7320	-0.8199	6.75	0.77	-0.750			
0.2345	15009.09	3.7290	3.7291	-0.8224	6.76	0.78	-0.750			
0.2370	15168.17	3.7260	3.7259	-0.8300	6.77	0.79	-0.750			
0.2395	15329.31	3.7230	3.7229	-0.8306	6.78	0.80	-0.750			
0.2420	15489.08	3.7200	3.7201	-0.8280	6.79	0.81	-0.750			
0.2445	15648.43	3.7170	3.7170	-0.8416	6.80	0.82	-0.750			
0.2470	15809.50	3.7140	3.7140	-0.8425	6.80	0.82	-0.750			
0.2496	15971.57	3.7110	3.7108	-0.8504	6.81	0.83	-0.750			
0.2521	16135.15	3.7080	3.7081	-0.8506	6.82	0.84	-0.750			
0.2547	16300.30	3.7050	3.7051	-0.8593	6.83	0.85	-0.750			
0.2573	16466.37	3.7020	3.7020	-0.8654	6.84	0.86	-0.750			
0.2599	16633.70	3.6990	3.6988	-0.8635	6.85	0.87	-0.750			
0.2624	16796.06	3.6960	3.6960	-0.8611	6.85	0.87	-0.750			
0.2650	16962.98	3.6930	3.6930	-0.8638	6.86	0.88	-0.750			
0.2676	17129.45	3.6900	3.6903	-0.8662	6.87	0.89	-0.750			
0.2702	17295.38	3.6870	3.6868	-0.8756	6.88	0.90	-0.750			
0.2728	17460.67	3.6840	3.6842	-0.8824	6.88	0.90	-0.750			
0.2755	17632.75	3.6810	3.6809	-0.8903	6.89	0.91	-0.750			
0.2782	17805.84	3.6780	3.6779	-0.9062	6.90	0.92	-0.750			
0.2810	17981.35	3.6750	3.6751	-0.9117	6.90	0.92	-0.750			
0.2837	18158.01	3.6720	3.6721	-0.9266	6.91	0.93	-0.750			
0.2865	18337.26	3.6690	3.6690	-0.9283	6.92	0.94	-0.750			
0.2893	18515.28	3.6660	3.6659	-0.9288	6.92	0.94	-0.750			
0.2921	18694.82	3.6630	3.6633	-0.9336	6.93	0.95	-0.750			
0.2949	18874.17	3.6600	3.6599	-0.9435	6.93	0.95	-0.750			
0.2977	19052.99	3.6570	3.6570	-0.9435	6.94	0.96	-0.750			
0.3005	19234.72	3.6540	3.6540	-0.9505	6.94	0.96	-0.750			
0.3034	19417.33	3.6510	3.6510	-0.9553	6.95	0.97	-0.750			
0.3063	19605.05	3.6480	3.6480	-0.9685	6.95	0.97	-0.750			
0.3093	19792.30	3.6450	3.6450	-0.9725	6.96	0.98	-0.750			
0.3122	19980.00	3.6420	3.6420	-0.9755	6.97	0.99	-0.750			
0.3151	20166.61	3.6390	3.6390	-0.9765	6.97	0.99	-0.750			
0.3180	20354.55	3.6360	3.6361	-0.9892	6.98	1.00	-0.750			
0.3210	20543.65	3.6330	3.6330	-1.0021	6.99	1.01	-0.750			
0.3240	20738.56	3.6300	3.6299	-1.0100	6.99	1.01	-0.750			
0.3271	20934.34	3.6270	3.6269	-1.0167	7.00	1.02	-0.750			
0.3302	21132.75	3.6240	3.6243	-1.0321	7.00	1.02	-0.750			
0.3333	21330.90	3.6210	3.6210	-1.0337	7.01	1.03	-0.750			
0.3364	21530.03	3.6180	3.6179	-1.0338	7.01	1.03	-0.750			
0.3395	21727.12	3.6150	3.6150	-1.0333	7.02	1.04	-0.750			
0.3426	21923.21	3.6120	3.6122	-1.0462	7.02	1.04	-0.750			
0.3457	22125.11	3.6090	3.6090	-1.0517	7.03	1.05	-0.750			
0.3489	22328.61	3.6060	3.6059	-1.0568	7.03	1.05	-0.750			
0.3521	22531.29	3.6030	3.6029	-1.0618	7.04	1.06	-0.750			
0.3552	22734.02	3.6000	3.6003	-1.0817	7.04	1.06	-0.750			
0.3585	22945.05	3.5970	3.5970	-1.0921	7.05	1.07	-0.750			
0.3618	23157.45	3.5940	3.5939	-1.0956	7.06	1.08	-0.750			
0.3651	23366.87	3.5910	3.5908	-1.1030	7.06	1.08	-0.750			
0.3684	23579.93	3.5880	3.5882	-1.1175	7.07	1.09	-0.750			
0.3718	23796.50	3.5850	3.5850	-1.1183	7.07	1.09	-0.750			
0.3752	24012.66	3.5820	3.5818	-1.1166	7.08	1.10	-0.750			
0.3785	24222.36	3.5790	3.5794	-1.1133	7.08	1.10	-0.750	0.390	0.830	
0.3819	24441.95	3.5760	3.5760	-1.1343	7.08	1.10	-0.750			
0.3853	24662.21	3.5730	3.5728	-1.1371	7.09	1.11	-0.750			
0.3887	24876.44	3.5700	3.5700	-1.1372	7.10	1.12	-0.750			
0.3921	25096.46	3.5670	3.5672	-1.1508	7.11	1.13	-0.750			
0.3956	25320.39	3.5640	3.5639	-1.1741	7.11	1.13	-0.750			
0.3992	25548.17	3.5610	3.5610	-1.1842	7.12	1.14	-0.750			
0.4027	25773.78	3.5580	3.5579	-1.1971	7.12	1.14	-0.750			
0.4063	26005.95	3.5550	3.5552	-1.2068	7.12	1.14	-0.750			
0.4100	26242.19	3.5520	3.5519	-1.2149	7.13	1.15	-0.750			
0.4137	26473.86	3.5490	3.5489	-1.2185	7.14	1.16	-0.750			
0.4173	26704.53	3.5460	3.5463	-1.2207	7.15	1.17	-0.750			
0.4210	26943.45	3.5430	3.5428	-1.2339	7.16	1.18	-0.750			
0.4247	27181.74	3.5400	3.5401	-1.2452	7.16	1.18	-0.750			
0.4285	27421.16	3.5370	3.5370	-1.2463	7.17	1.19	-0.750			
0.4323	27664.39	3.5340	3.5340	-1.2533	7.17	1.19	-0.750			
0.4360	27905.58	3.5310	3.5310	-1.2491	7.18	1.20	-0.750			
0.4397	28138.64	3.5280	3.5279	-1.2508	7.19	1.21	-0.750			
0.4434	28380.48	3.5250	3.5252	-1.2473	7.19	1.21	-0.750			
0.4472	28620.98	3.5220	3.5219	-1.2525	7.20	1.22	-0.750			
0.4510	28861.06	3.5190	3.5190	-1.2531	7.21	1.23	-0.750			
0.4547	29102.16	3.5160	3.5161	-1.2629	7.22	1.24	-0.750			
0.4585	29343.78	3.5130	3.5129	-1.2720	7.23	1.25	-0.750			
0.4623	29587.59	3.5100	3.5100	-1.2761	7.23	1.25	-0.750			
0.4661	29831.36	3.5070	3.5069	-1.2869	7.24	1.26	-0.750			
0.4701	30086.77	3.5040	3.5040	-1.2928	7.25	1.27	-0.750			
0.4740	30335.29	3.5010	3.5010	-1.2780	7.26	1.28	-0.750			
0.4778	30580.21	3.4980	3.4980	-1.2759	7.26	1.28	-0.750			
0.4816	30823.61	3.4950	3.4949	-1.2611	7.27	1.29	-0.750			
0.4853	31061.24	3.4920	3.4920	-1.2564	7.28	1.30	-0.750			
0.4891	31300.90	3.4890	3.4890	-1.2498	7.29	1.31	-0.750			
0.4928	31539.28	3.4860	3.4861	-1.2475	7.30	1.32	-0.750			
0.4966	31782.75	3.4830	3.4830	-1.2537	7.31	1.33	-0.750			
0.5004	32023.56	3.4800	3.4801	-1.2488	7.33	1.35	-0.750			
0.5041	32262.75	3.4770	3.4769	-1.2335	7.34	1.36	-0.750			
0.5078	32500.54	3.4740	3.4740	-1.2355	7.34	1.36	-0.750			
0.5115	32736.09	3.4710	3.4710	-1.2236	7.35	1.37	-0.750			
0.5151	32968.29	3.4680	3.4680	-1.2258	7.36	1.38	-0.750			
0.5188	33202.43	3.4650	3.4651	-1.2215	7.36	1.38	-0.750			
0.5225	33437.88	3.4620	3.4619	-1.2180	7.38	1.40	-0.750			
0.5261	33672.66	3.4590	3.4589	-1.2136	7.39	1.41	-0.750			
0.5298	33905.62	3.4560	3.4562	-1.1978	7.40	1.42	-0.750			
0.5334	34139.39	3.4530	3.4530	-1.1843	7.41	1.43	-0.750			
0.5370	34365.37	3.4500	3.4500	-1.1682	7.42	1.44	-0.750			
0.5404	34584.97	3.4470	3.4470	-1.1505	7.43	1.45	-0.750			
0.5438	34801.95	3.4440	3.4440	-1.1461	7.44	1.46	-0.750			
0.5472	35022.04	3.4410	3.4409	-1.1374	7.45	1.47	-0.750			
0.5506	35239.95	3.4380	3.4380	-1.1305	7.46	1.48	-0.750			
0.5540	35457.14	3.4350	3.4350	-1.1264	7.48	1.50	-0.750			
0.5574	35674.63	3.4320	3.4320	-1.1257	7.49	1.51	-0.750			
0.5608	35889.08	3.4290	3.4289	-1.1140	7.50	1.52	-0.750			
0.5641	36102.36	3.4260	3.4260	-1.1045	7.52	1.54	-0.750			
0.5674	36312.88	3.4230	3.4231	-1.0876	7.53	1.55	-0.750			
0.5707	36526.43	3.4200	3.4200	-1.0826	7.54	1.56	-0.750			
0.5739	36732.40	3.4170	3.4169	-1.0587	7.56	1.58	-0.750			
0.5771	36931.86	3.4140	3.4140	-1.0386	7.57	1.59	-0.750			
0.5801	37129.46	3.4110	3.4111	-1.0215	7.58	1.60	-0.750			
0.5832	37322.71	3.4080	3.4080	-1.0069	7.60	1.62	-0.750			
0.5862	37514.55	3.4050	3.4049	-0.9970	7.61	1.63	-0.750			
0.5891	37703.95	3.4020	3.4021	-0.9898	7.62	1.64	-0.750			
0.5921	37894.37	3.3990	3.3990	-0.9774	7.64	1.66	-0.750			
0.5950	38081.48	3.3960	3.3960	-0.9659	7.65	1.67	-0.750			
0.5979	38265.54	3.3930	3.3929	-0.9477	7.66	1.68	-0.750			
0.6007	38447.24	3.3900	3.3901	-0.9312	7.67	1.69	-0.750			
0.6035	38623.88	3.3870	3.3870	-0.9146	7.68	1.70	-0.750			
0.6062	38798.63	3.3840	3.3840	-0.8973	7.70	1.72	-0.750			
0.6089	38969.03	3.3810	3.3810	-0.8865	7.71	1.73	-0.750			
0.6115	39138.08	3.3780	3.3780	-0.8738	7.73	1.75	-0.750			
0.6141	39304.45	3.3750	3.3750	-0.8560	7.74	1.76	-0.750			
0.6167	39467.87	3.3720	3.3720	-0.8403	7.76	1.78	-0.750			
0.6192	39627.35	3.3690	3.3690	-0.8251	7.77	1.79	-0.750			
0.6216	39782.18	3.3660	3.3660	-0.8119	7.78	1.80	-0.750			
0.6240	39937.93	3.3630	3.3630	-0.7931	7.79	1.81	-0.750			
0.6264	40088.26	3.3600	3.3599	-0.7719	7.80	1.82	-0.750			
0.6287	40237.12	3.3570	3.3570	-0.7558	7.81	1.83	-0.750			
0.6309	40379.64	3.3540	3.3540	-0.7402	7.83	1.85	-0.750			
0.6331	40517.80	3.3510	3.3510	-0.7263	7.84	1.86	-0.750			
0.6352	40655.55	3.3480	3.3479	-0.7120	7.85	1.87	-0.750			
0.6373	40789.94	3.3450	3.3449	-0.6964	7.87	1.89	-0.750			
0.6395	40925.11	3.3420	3.3421	-0.6894	7.88	1.90	-0.750			
0.6415	41057.27	3.3390	3.3390	-0.6807	7.89	1.91	-0.750			
0.6435	41186.50	3.3360	3.3360	-0.6657	7.91	1.93	-0.750			
0.6455	41311.35	3.3330	3.3329	-0.6485	7.92	1.94	-0.750			
0.6474	41434.80	3.3300	3.3301	-0.6378	7.93	1.95	-0.750			
0.6493	41557.76	3.3270	3.3270	-0.6298	7.94	1.96	-0.750			
0.6512	41677.57	3.3240	3.3239	-0.6141	7.96	1.98	-0.750			
0.6530	41794.58	3.3210	3.3209	-0.5989	7.97	1.99	-0.750			
0.6548	41907.27	3.3180	3.3183	-0.5862	7.98	2.00	-0.750			
0.6565	42017.91	3.3150	3.3149	-0.5800	7.99	2.01	-0.750			
0.6583	42128.03	3.3120	3.3120	-0.5710	8.00	2.02	-0.750			
0.6599	42236.25	3.3090	3.3089	-0.5597	8.02	2.04	-0.750			
0.6616	42344.84	3.3060	3.3060	-0.5576	8.03	2.05	-0.750			
0.6633	42451.14	3.3030	3.3030	-0.5470	8.04	2.06	-0.750			
0.6649	42555.40	3.3000	3.3000	-0.5354	8.05	2.07	-0.750			
0.6665	42656.69	3.2970	3.2969	-0.5181	8.06	2.08	-0.750			
0.6680	42754.43	3.2940	3.2941	-0.5048	8.08	2.10	-0.750			
0.6695	42850.21	3.2910	3.2911	-0.4950	8.09	2.11	-0.750			
0.6710	42943.29	3.2880	3.2879	-0.4854	8.10	2.12	-0.750			
0.6724	43035.00	3.2850	3.2849	-0.4731	8.12	2.14	-0.750			
0.6738	43124.24	3.2820	3.2821	-0.4685	8.13	2.15	-0.750			
0.6752	43213.85	3.2790	3.2790	-0.4638	8.14	2.16	-0.750			
0.6766	43303.36	3.2760	3.2761	-0.4573	8.16	2.18	-0.750			
0.6780	43390.24	3.2730	3.2728	-0.4484	8.17	2.19	-0.750			
0.6793	43475.40	3.2700	3.2701	-0.4410	8.18	2.20	-0.750			
0.6806	43559.17	3.2670	3.2671	-0.4328	8.19	2.21	-0.750			
0.6819	43642.08	3.2640	3.2639	-0.4270	8.20	2.22	-0.750			
0.6832	43722.39	3.2610	3.2610	-0.4172	8.21	2.23	-0.750			
0.6844	43802.61	3.2580	3.2580	-0.4130	8.22	2.24	-0.750			
0.6856	43881.40	3.2550	3.2551	-0.4076	8.24	2.26	-0.750			
0.6869	43959.00	3.2520	3.2519	-0.4033	8.25	2.27	-0.750			
0.6881	44035.62	3.2490	3.2490	-0.3994	8.26	2.28	-0.750			
0.6892	44111.96	3.2460	3.2460	-0.3939	8.27	2.29	-0.750			
0.6904	44187.48	3.2430	3.2431	-0.3872	8.28	2.30	-0.750			
0.6916	44262.10	3.2400	3.2400	-0.3812	8.29	2.31	-0.750			
0.6927	44333.92	3.2370	3.2371	-0.3778	8.30	2.32	-0.750			
0.6938	44405.57	3.2340	3.2340	-0.3713	8.32	2.34	-0.750			
0.6949	44476.38	3.2310	3.2309	-0.3633	8.33	2.35	-0.750			
0.6960	44545.57	3.2280	3.2280	-0.3598	8.34	2.36	-0.750			
0.6971	44614.34	3.2250	3.2252	-0.3563	8.35	2.37	-0.750			
0.6982	44682.21	3.2220	3.2218	-0.3513	8.36	2.38	-0.750			
0.6992	44748.98	3.2190	3.2190	-0.3460	8.37	2.39	-0.750			
0.7002	44814.58	3.2160	3.2160	-0.3406	8.39	2.41	-0.750			
0.7012	44879.92	3.2130	3.2131	-0.3391	8.40	2.42	-0.750			
0.7023	44944.97	3.2100	3.2099	-0.3354	8.41	2.43	-0.750			
0.7033	45008.50	3.2070	3.2070	-0.3276	8.42	2.44	-0.750			
0.7042	45071.47	3.2040	3.2039	-0.3219	8.42	2.44	-0.750			
0.7052	45132.65	3.2010	3.2011	-0.3184	8.43	2.45	-0.750			
0.7061	45193.01	3.1980	3.1979	-0.3152	8.44	2.46	-0.750			
0.7071	45252.89	3.1950	3.1949	-0.3121	8.45	2.47	-0.750			
0.7080	45312.23	3.1920	3.1921	-0.3090	8.46	2.48	-0.750			
0.7089	45371.69	3.1890	3.1890	-0.3057	8.47	2.49	-0.750			
0.7099	45430.53	3.1860	3.1861	-0.3033	8.48	2.50	-0.750			
0.7108	45488.53	3.1830	3.1830	-0.3000	8.50	2.52	-0.750			
0.7116	45545.20	3.1800	3.1799	-0.2952	8.51	2.53	-0.750			
0.7125	45601.61	3.1770	3.1770	-0.2897	8.51	2.53	-0.750			
0.7134	45656.63	3.1740	3.1741	-0.2876	8.52	2.54	-0.750			
0.7142	45711.69	3.1710	3.1710	-0.2857	8.53	2.55	-0.750			
0.7151	45766.35	3.1680	3.1679	-0.2835	8.54	2.56	-0.750			
0.7159	45819.96	3.1650	3.1649	-0.2794	8.55	2.57	-0.750			
0.7168	45873.62	3.1620	3.1621	-0.2768	8.56	2.58	-0.750			
0.7176	45927.13	3.1590	3.1591	-0.2751	8.57	2.59	-0.750			
0.7184	45979.90	3.1560	3.1559	-0.2720	8.58	2.60	-0.750			
0.7192	46031.05	3.1530	3.1530	-0.2669	8.60	2.62	-0.750			
0.7200	46082.25	3.1500	3.1500	-0.2639	8.61	2.63	-0.750			
0.7208	46132.45	3.1470	3.1470	-0.2631	8.62	2.64	-0.750			
0.7216	46182.99	3.1440	3.1441	-0.2609	8.63	2.65	-0.750			
0.7224	46232.75	3.1410	3.1409	-0.2591	8.64	2.66	-0.750			
0.7232	46282.04	3.1380	3.1381	-0.2571	8.65	2.67	-0.750			
0.7239	46331.74	3.1350	3.1351	-0.2545	8.66	2.68	-0.750			
0.7247	46380.52	3.1320	3.1319	-0.2523	8.68	2.70	-0.750			
0.7254	46428.77	3.1290	3.1291	-0.2494	8.69	2.71	-0.750			
0.7262	46475.65	3.1260	3.1260	-0.2455	8.69	2.71	-0.750			
0.7269	46522.55	3.1230	3.1231	-0.2443	8.70	2.72	-0.750			
0.7276	46569.11	3.1200	3.1200	-0.2428	8.71	2.73	-0.750			
0.7284	46616.07	3.1170	3.1170	-0.2410	8.72	2.74	-0.750			
0.7291	46662.46	3.1140	3.1140	-0.2398	8.73	2.75	-0.750			
0.7298	46708.26	3.1110	3.1110	-0.2376	8.74	2.76	-0.750			
0.7305	46753.62	3.1080	3.1081	-0.2357	8.75	2.77	-0.750			
0.7312	46798.86	3.1050	3.1050	-0.2341	8.76	2.78	-0.750			
0.7319	46843.47	3.1020	3.1019	-0.2318	8.77	2.79	-0.750			
0.7326	46887.28	3.0990	3.0990	-0.2306	8.78	2.80	-0.750			
0.7333	46931.28	3.0960	3.0960	-0.2296	8.79	2.81	-0.750			
0.7340	46975.90	3.0930	3.0930	-0.2294	8.80	2.82	-0.750			
0.7347	47019.79	3.0900	3.0899	-0.2279	8.81	2.83	-0.750			
0.7354	47063.40	3.0870	3.0870	-0.2265	8.82	2.84	-0.750			
0.7360	47107.06	3.0840	3.0841	-0.2246	8.82	2.84	-0.750			
0.7367	47150.26	3.0810	3.0810	-0.2224	8.83	2.85	-0.750			
0.7374	47192.61	3.0780	3.0779	-0.2194	8.84	2.86	-0.750			
0.7380	47234.33	3.0750	3.0751	-0.2162	8.85	2.87	-0.750			
0.7387	47275.36	3.0720	3.0719	-0.2146	8.86	2.88	-0.750			
0.7393	47315.94	3.0690	3.0690	-0.2137	8.87	2.89	-0.750			
0.7399	47356.79	3.0660	3.0660	-0.2139	8.88	2.90	-0.750			
0.7406	47397.92	3.0630	3.0629	-0.2122	8.89	2.91	-0.750			
0.7412	47438.79	3.0600	3.0600	-0.2120	8.90	2.92	-0.750			
0.7419	47479.87	3.0570	3.0570	-0.2108	8.91	2.93	-0.750			
0.7425	47520.36	3.0540	3.0542	-0.2102	8.92	2.94	-0.750			
0.7431	47560.46	3.0510	3.0510	-0.2081	8.93	2.95	-0.750			
0.7438	47600.17	3.0480	3.0479	-0.2060	8.94	2.96	-0.750			
0.7444	47639.09	3.0450	3.0450	-0.2043	8.95	2.97	-0.750			
0.7450	47678.06	3.0420	3.0421	-0.2030	8.96	2.98	-0.750			
0.7456	47717.11	3.0390	3.0390	-0.2034	8.97	2.99	-0.750			
0.7462	47756.08	3.0360	3.0360	-0.2026	8.98	3.00	-0.750			
0.7468	47794.88	3.0330	3.0330	-0.2010	8.99	3.01	-0.750			
0.7474	47833.15	3.0300	3.0300	-0.2001	9.00	3.02	-0.750			
0.7480	47871.64	3.0270	3.0270	-0.2000	9.01	3.03	-0.750			
0.7486	47910.18	3.0240	3.0240	-0.1985	9.02	3.04	-0.750			
0.7492	47948.25	3.0210	3.0211	-0.1973	9.03	3.05	-0.750			
0.7498	47986.28	3.0180	3.0180	-0.1953	9.04	3.06	-0.750			
0.7504	48023.16	3.0150	3.0151	-0.1939	9.05	3.07	-0.750			
0.7509	48060.28	3.0120	3.0120	-0.1927	9.06	3.08	-0.750			
0.7515	48097.34	3.0090	3.0090	-0.1913	9.07	3.09	-0.750			
0.7521	48133.58	3.0060	3.0059	-0.1913	9.08	3.10	-0.750			
0.7527	48170.39	3.0030	3.0030	-0.1972	9.09	3.11	-0.750			
