Ah_balance (normalized)	Ah_balance (mAh)	Voltage - fit (V)	Voltage -  interpolate (V)	dQ/dV (1/V)	Temperature (°C)	Temperature - diff (°C)	Current (C)	R_DC 0ms (mOhm)	R_DC 50ms (mOhm)	R_DC 50 ms PEC (mOhm)
0.0000	0.00	4.1030	4.1241	0.0000	5.97	-0.01	-0.749			
0.0002	11.81	4.1000	4.0988	-0.0286	5.97	-0.01	-0.750			
0.0004	23.02	4.0970	4.0960	-0.0641	5.97	-0.01	-0.750			
0.0006	38.12	4.0940	4.0936	-0.0932	5.97	-0.01	-0.750			
0.0009	58.84	4.0910	4.0909	-0.1222	5.97	-0.01	-0.750			
0.0013	85.78	4.0880	4.0880	-0.1483	5.97	-0.01	-0.750			
0.0018	117.31	4.0850	4.0851	-0.1727	5.97	-0.01	-0.750			
0.0024	153.01	4.0820	4.0820	-0.1979	5.97	-0.01	-0.750			
0.0031	196.03	4.0790	4.0791	-0.2217	5.98	-0.00	-0.750			
0.0038	240.87	4.0760	4.0761	-0.2422	5.98	-0.00	-0.750			
0.0045	289.14	4.0730	4.0730	-0.2648	5.98	-0.00	-0.750			
0.0053	342.18	4.0700	4.0701	-0.2842	5.98	-0.00	-0.750			
0.0062	398.15	4.0670	4.0669	-0.3055	5.98	-0.00	-0.750			
0.0072	458.90	4.0640	4.0641	-0.3266	5.98	-0.00	-0.750			
0.0082	523.89	4.0610	4.0609	-0.3475	5.98	-0.00	-0.750			
0.0093	592.10	4.0580	4.0580	-0.3715	5.98	0.00	-0.750			
0.0104	665.85	4.0550	4.0550	-0.3929	5.98	0.00	-0.750			
0.0116	743.43	4.0520	4.0520	-0.4129	5.98	0.00	-0.750			
0.0129	824.99	4.0490	4.0491	-0.4373	5.98	0.00	-0.750			
0.0142	910.92	4.0460	4.0460	-0.4597	5.98	0.00	-0.750			
0.0156	1001.31	4.0430	4.0429	-0.4846	5.99	0.01	-0.750			
0.0172	1097.97	4.0400	4.0399	-0.5020	5.99	0.01	-0.750			
0.0187	1196.29	4.0370	4.0371	-0.5187	5.99	0.01	-0.750			
0.0203	1300.42	4.0340	4.0340	-0.5332	5.99	0.01	-0.750			
0.0219	1403.61	4.0310	4.0311	-0.5467	5.99	0.01	-0.750			
0.0236	1507.48	4.0280	4.0279	-0.5610	5.99	0.01	-0.750			
0.0252	1615.89	4.0250	4.0249	-0.5777	6.00	0.02	-0.750			
0.0270	1727.71	4.0220	4.0220	-0.5918	6.00	0.02	-0.750			
0.0289	1846.43	4.0190	4.0190	-0.6124	6.00	0.02	-0.750			
0.0307	1967.89	4.0160	4.0159	-0.6273	6.00	0.02	-0.750			
0.0327	2089.94	4.0130	4.0129	-0.6394	6.01	0.03	-0.750			
0.0346	2213.06	4.0100	4.0101	-0.6456	6.01	0.03	-0.750			
0.0365	2337.48	4.0070	4.0069	-0.6505	6.02	0.04	-0.750			
0.0385	2463.44	4.0040	4.0040	-0.6586	6.02	0.04	-0.750			
0.0404	2587.83	4.0010	4.0011	-0.6651	6.03	0.05	-0.750			
0.0425	2719.87	3.9980	3.9980	-0.6785	6.03	0.05	-0.750			
0.0445	2850.82	3.9950	3.9949	-0.6855	6.04	0.06	-0.750			
0.0466	2983.82	3.9920	3.9921	-0.6867	6.04	0.06	-0.750			
0.0487	3117.38	3.9890	3.9890	-0.6922	6.05	0.07	-0.750			
0.0508	3250.53	3.9860	3.9860	-0.6943	6.05	0.07	-0.750			
0.0529	3382.63	3.9830	3.9831	-0.6955	6.06	0.08	-0.750			
0.0549	3516.61	3.9800	3.9799	-0.7000	6.07	0.09	-0.750			
0.0571	3651.39	3.9770	3.9770	-0.7051	6.07	0.09	-0.750			
0.0592	3787.10	3.9740	3.9741	-0.7100	6.08	0.10	-0.750			
0.0613	3924.14	3.9710	3.9712	-0.7201	6.09	0.11	-0.750			
0.0635	4062.36	3.9680	3.9679	-0.7272	6.09	0.11	-0.750			
0.0657	4204.29	3.9650	3.9649	-0.7305	6.10	0.12	-0.750			
0.0679	4345.31	3.9620	3.9620	-0.7312	6.10	0.12	-0.750			
0.0701	4485.99	3.9590	3.9590	-0.7315	6.11	0.13	-0.750			
0.0723	4627.84	3.9560	3.9561	-0.7342	6.11	0.13	-0.750			
0.0745	4768.31	3.9530	3.9529	-0.7367	6.12	0.14	-0.750			
0.0767	4907.86	3.9500	3.9498	-0.7363	6.12	0.14	-0.750			
0.0789	5049.04	3.9470	3.9471	-0.7425	6.13	0.15	-0.750			
0.0812	5193.78	3.9440	3.9441	-0.7536	6.13	0.15	-0.750			
0.0834	5340.25	3.9410	3.9409	-0.7602	6.14	0.16	-0.750			
0.0857	5487.74	3.9380	3.9379	-0.7590	6.15	0.17	-0.750			
0.0880	5632.78	3.9350	3.9350	-0.7575	6.16	0.18	-0.750			
0.0903	5780.08	3.9320	3.9321	-0.7469	6.17	0.19	-0.750			
0.0925	5923.15	3.9290	3.9290	-0.7436	6.17	0.19	-0.750			
0.0947	6062.94	3.9260	3.9260	-0.7404	6.18	0.20	-0.750			
0.0969	6203.24	3.9230	3.9232	-0.7430	6.19	0.21	-0.750			
0.0991	6344.75	3.9200	3.9198	-0.7467	6.20	0.22	-0.750			
0.1014	6489.60	3.9170	3.9171	-0.7544	6.21	0.23	-0.750			
0.1037	6635.74	3.9140	3.9140	-0.7625	6.22	0.24	-0.750			
0.1060	6785.34	3.9110	3.9110	-0.7690	6.23	0.25	-0.750			
0.1083	6932.72	3.9080	3.9079	-0.7645	6.24	0.26	-0.750			
0.1106	7080.72	3.9050	3.9049	-0.7609	6.25	0.27	-0.750			
0.1129	7225.64	3.9020	3.9020	-0.7623	6.25	0.27	-0.750			
0.1152	7371.70	3.8990	3.8990	-0.7630	6.26	0.28	-0.750			
0.1174	7516.60	3.8960	3.8960	-0.7629	6.27	0.29	-0.750			
0.1197	7662.03	3.8930	3.8929	-0.7725	6.27	0.29	-0.750			
0.1221	7812.46	3.8900	3.8902	-0.7765	6.28	0.30	-0.750			
0.1244	7962.64	3.8870	3.8868	-0.7866	6.29	0.31	-0.750			
0.1268	8115.75	3.8840	3.8840	-0.7957	6.30	0.32	-0.750			
0.1292	8269.43	3.8810	3.8809	-0.7912	6.31	0.33	-0.750			
0.1316	8423.31	3.8780	3.8779	-0.7911	6.32	0.34	-0.750			
0.1340	8575.97	3.8750	3.8754	-0.7910	6.33	0.35	-0.750			
0.1363	8724.76	3.8720	3.8719	-0.7857	6.34	0.36	-0.750			
0.1387	8876.96	3.8690	3.8690	-0.7860	6.35	0.37	-0.750			
0.1410	9024.22	3.8660	3.8659	-0.7817	6.36	0.38	-0.750			
0.1434	9175.42	3.8630	3.8631	-0.7976	6.37	0.39	-0.750			
0.1458	9329.00	3.8600	3.8599	-0.8015	6.38	0.40	-0.750			
0.1482	9484.50	3.8570	3.8568	-0.8054	6.39	0.41	-0.750			
0.1506	9638.93	3.8540	3.8540	-0.8135	6.40	0.42	-0.750			
0.1531	9797.72	3.8510	3.8510	-0.8123	6.41	0.43	-0.750			
0.1556	9955.47	3.8480	3.8480	-0.8068	6.42	0.44	-0.750			
0.1580	10110.75	3.8450	3.8450	-0.7999	6.43	0.45	-0.750			
0.1603	10261.77	3.8420	3.8421	-0.7928	6.44	0.46	-0.750			
0.1627	10412.60	3.8390	3.8388	-0.7901	6.45	0.47	-0.750			
0.1650	10561.99	3.8360	3.8360	-0.7893	6.46	0.48	-0.750			
0.1674	10710.96	3.8330	3.8331	-0.7879	6.47	0.49	-0.750			
0.1698	10865.15	3.8300	3.8300	-0.8081	6.48	0.50	-0.750			
0.1722	11021.49	3.8270	3.8271	-0.8131	6.49	0.51	-0.750			
0.1746	11176.56	3.8240	3.8240	-0.8225	6.50	0.52	-0.750			
0.1771	11337.47	3.8210	3.8210	-0.8259	6.51	0.53	-0.750			
0.1797	11498.08	3.8180	3.8181	-0.8301	6.52	0.54	-0.750			
0.1822	11659.85	3.8150	3.8149	-0.8247	6.52	0.54	-0.750			
0.1847	11818.56	3.8120	3.8120	-0.8190	6.53	0.55	-0.750			
0.1871	11971.25	3.8090	3.8091	-0.8169	6.54	0.56	-0.750			
0.1895	12128.86	3.8060	3.8060	-0.8124	6.56	0.58	-0.750			
0.1919	12280.89	3.8030	3.8028	-0.8090	6.57	0.59	-0.750			
0.1943	12438.35	3.8000	3.7999	-0.8210	6.58	0.60	-0.750			
0.1968	12595.50	3.7970	3.7972	-0.8246	6.59	0.61	-0.750			
0.1993	12756.57	3.7940	3.7939	-0.8274	6.60	0.62	-0.750			
0.2018	12917.59	3.7910	3.7910	-0.8233	6.61	0.63	-0.750			
0.2043	13072.93	3.7880	3.7881	-0.8253	6.62	0.64	-0.750			
0.2068	13232.83	3.7850	3.7850	-0.8325	6.62	0.64	-0.750			
0.2092	13390.52	3.7820	3.7819	-0.8329	6.63	0.65	-0.750			
0.2117	13548.74	3.7790	3.7790	-0.8353	6.64	0.66	-0.750			
0.2142	13711.86	3.7760	3.7760	-0.8402	6.65	0.67	-0.750			
0.2168	13877.16	3.7730	3.7730	-0.8408	6.66	0.68	-0.750			
0.2193	14038.29	3.7700	3.7700	-0.8399	6.67	0.69	-0.750			
0.2218	14197.06	3.7670	3.7672	-0.8310	6.68	0.70	-0.750			
0.2243	14354.85	3.7640	3.7638	-0.8320	6.69	0.71	-0.750			
0.2268	14512.67	3.7610	3.7611	-0.8427	6.70	0.72	-0.750			
0.2293	14676.08	3.7580	3.7578	-0.8428	6.71	0.73	-0.750			
0.2319	14841.96	3.7550	3.7549	-0.8558	6.72	0.74	-0.750			
0.2345	15006.51	3.7520	3.7521	-0.8520	6.73	0.75	-0.750			
0.2370	15169.44	3.7490	3.7490	-0.8525	6.74	0.76	-0.750			
0.2396	15334.11	3.7460	3.7459	-0.8578	6.75	0.77	-0.750			
0.2421	15494.95	3.7430	3.7430	-0.8579	6.76	0.78	-0.750			
0.2447	15661.84	3.7400	3.7399	-0.8592	6.77	0.79	-0.750			
0.2473	15828.45	3.7370	3.7370	-0.8669	6.78	0.80	-0.750			
0.2499	15995.17	3.7340	3.7340	-0.8677	6.79	0.81	-0.750			
0.2526	16163.21	3.7310	3.7311	-0.8678	6.80	0.82	-0.750			
0.2551	16328.95	3.7280	3.7278	-0.8617	6.81	0.83	-0.750			
0.2577	16494.41	3.7250	3.7250	-0.8651	6.83	0.85	-0.750			
0.2603	16658.36	3.7220	3.7221	-0.8625	6.84	0.86	-0.750			
0.2629	16824.09	3.7190	3.7190	-0.8734	6.85	0.87	-0.750			
0.2655	16992.50	3.7160	3.7160	-0.8843	6.86	0.88	-0.750			
0.2682	17162.16	3.7130	3.7130	-0.8916	6.87	0.89	-0.750			
0.2709	17335.60	3.7100	3.7099	-0.9000	6.88	0.90	-0.750			
0.2736	17511.32	3.7070	3.7070	-0.9082	6.89	0.91	-0.750			
0.2764	17686.60	3.7040	3.7041	-0.9065	6.90	0.92	-0.750			
0.2791	17860.91	3.7010	3.7009	-0.9095	6.90	0.92	-0.750			
0.2818	18033.80	3.6980	3.6980	-0.9115	6.91	0.93	-0.750			
0.2845	18207.93	3.6950	3.6950	-0.9147	6.92	0.94	-0.750			
0.2873	18384.87	3.6920	3.6919	-0.9205	6.93	0.95	-0.750			
0.2901	18564.10	3.6890	3.6890	-0.9280	6.94	0.96	-0.750			
0.2929	18742.95	3.6860	3.6861	-0.9327	6.95	0.97	-0.750			
0.2957	18924.57	3.6830	3.6830	-0.9368	6.96	0.98	-0.750			
0.2985	19103.20	3.6800	3.6799	-0.9365	6.96	0.98	-0.750			
0.3013	19281.34	3.6770	3.6771	-0.9365	6.97	0.99	-0.750			
0.3041	19461.75	3.6740	3.6740	-0.9427	6.98	1.00	-0.750			
0.3069	19642.66	3.6710	3.6709	-0.9535	6.99	1.01	-0.750			
0.3098	19825.96	3.6680	3.6680	-0.9647	6.99	1.01	-0.750			
0.3127	20013.27	3.6650	3.6651	-0.9760	7.01	1.03	-0.750			
0.3157	20203.25	3.6620	3.6619	-0.9936	7.02	1.04	-0.750			
0.3187	20395.44	3.6590	3.6591	-1.0026	7.03	1.05	-0.750			
0.3217	20590.17	3.6560	3.6561	-1.0103	7.04	1.06	-0.750			
0.3248	20785.27	3.6530	3.6530	-1.0131	7.05	1.07	-0.750			
0.3278	20980.37	3.6500	3.6501	-1.0157	7.06	1.08	-0.750			
0.3309	21175.47	3.6470	3.6471	-1.0220	7.06	1.08	-0.750			
0.3339	21372.28	3.6440	3.6439	-1.0356	7.07	1.09	-0.750			
0.3370	21568.78	3.6410	3.6410	-1.0429	7.08	1.10	-0.750			
0.3402	21771.95	3.6380	3.6379	-1.0476	7.08	1.10	-0.750			
0.3434	21974.72	3.6350	3.6350	-1.0523	7.09	1.11	-0.750			
0.3465	22177.72	3.6320	3.6321	-1.0689	7.10	1.12	-0.750			
0.3497	22383.60	3.6290	3.6289	-1.0706	7.11	1.13	-0.750			
0.3530	22589.52	3.6260	3.6260	-1.0772	7.12	1.14	-0.750			
0.3562	22793.82	3.6230	3.6229	-1.0858	7.12	1.14	-0.750			
0.3594	23003.54	3.6200	3.6202	-1.1057	7.13	1.15	-0.750			
0.3628	23220.58	3.6170	3.6170	-1.1192	7.14	1.16	-0.750			
0.3662	23436.78	3.6140	3.6139	-1.1260	7.15	1.17	-0.750			
0.3696	23654.00	3.6110	3.6110	-1.1235	7.16	1.18	-0.750			
0.3730	23871.69	3.6080	3.6080	-1.1416	7.16	1.18	-0.750			
0.3764	24090.81	3.6050	3.6050	-1.1407	7.17	1.19	-0.750			
0.3799	24310.85	3.6020	3.6019	-1.1558	7.18	1.20	-0.750			
0.3833	24530.17	3.5990	3.5991	-1.1753	7.19	1.21	-0.750			
0.3869	24761.68	3.5960	3.5958	-1.1884	7.19	1.21	-0.750			
0.3905	24993.03	3.5930	3.5942	-1.2000	7.20	1.22	-0.750	0.398	0.864	
0.3941	25225.38	3.5900	3.5898	-1.2025	7.20	1.22	-0.750			
0.3977	25454.17	3.5870	3.5871	-1.2069	7.20	1.22	-0.750			
0.4014	25688.36	3.5840	3.5839	-1.2146	7.21	1.23	-0.750			
0.4051	25923.67	3.5810	3.5809	-1.2251	7.22	1.24	-0.750			
0.4087	26154.55	3.5780	3.5782	-1.2228	7.23	1.25	-0.750			
0.4124	26393.02	3.5750	3.5749	-1.2465	7.24	1.26	-0.750			
0.4161	26632.58	3.5720	3.5720	-1.2568	7.25	1.27	-0.750			
0.4199	26875.33	3.5690	3.5689	-1.2687	7.26	1.28	-0.750			
0.4238	27121.65	3.5660	3.5659	-1.2860	7.26	1.28	-0.750			
0.4277	27369.77	3.5630	3.5630	-1.2922	7.26	1.28	-0.750			
0.4315	27615.15	3.5600	3.5600	-1.3128	7.27	1.29	-0.750			
0.4355	27869.57	3.5570	3.5570	-1.3236	7.27	1.29	-0.750			
0.4395	28127.05	3.5540	3.5540	-1.3339	7.28	1.30	-0.750			
0.4435	28385.19	3.5510	3.5510	-1.3475	7.29	1.31	-0.750			
0.4476	28648.90	3.5480	3.5481	-1.3480	7.30	1.32	-0.750			
0.4517	28907.39	3.5450	3.5449	-1.3581	7.31	1.33	-0.750			
0.4557	29167.13	3.5420	3.5419	-1.3591	7.32	1.34	-0.750			
0.4598	29425.80	3.5390	3.5390	-1.3520	7.33	1.35	-0.750			
0.4639	29689.09	3.5360	3.5363	-1.3572	7.33	1.35	-0.750			
0.4680	29950.63	3.5330	3.5330	-1.3622	7.34	1.36	-0.750			
0.4720	30209.89	3.5300	3.5301	-1.3766	7.34	1.36	-0.750			
0.4762	30475.80	3.5270	3.5269	-1.3861	7.35	1.37	-0.750			
0.4803	30742.28	3.5240	3.5239	-1.3971	7.36	1.38	-0.750			
0.4846	31012.02	3.5210	3.5212	-1.4047	7.37	1.39	-0.750			
0.4889	31289.35	3.5180	3.5180	-1.4007	7.38	1.40	-0.750			
0.4931	31559.67	3.5150	3.5149	-1.3766	7.38	1.40	-0.750			
0.4971	31815.91	3.5120	3.5122	-1.3721	7.39	1.41	-0.750			
0.5012	32075.57	3.5090	3.5090	-1.3804	7.40	1.42	-0.750			
0.5053	32339.37	3.5060	3.5058	-1.3864	7.41	1.43	-0.750			
0.5094	32602.43	3.5030	3.5029	-1.4050	7.42	1.44	-0.750			
0.5138	32881.00	3.5000	3.5002	-1.4149	7.43	1.45	-0.750			
0.5181	33156.86	3.4970	3.4969	-1.4192	7.43	1.45	-0.750			
0.5224	33435.45	3.4940	3.4941	-1.4122	7.44	1.46	-0.750			
0.5266	33699.60	3.4910	3.4909	-1.3825	7.46	1.48	-0.750			
0.5307	33961.62	3.4880	3.4880	-1.3922	7.47	1.49	-0.750			
0.5348	34227.99	3.4850	3.4850	-1.3911	7.48	1.50	-0.750			
0.5390	34497.73	3.4820	3.4819	-1.3842	7.49	1.51	-0.750			
0.5432	34766.53	3.4790	3.4790	-1.3732	7.49	1.51	-0.750			
0.5473	35029.74	3.4760	3.4761	-1.3667	7.50	1.52	-0.750			
0.5515	35293.22	3.4730	3.4730	-1.3580	7.51	1.53	-0.750			
0.5555	35551.98	3.4700	3.4698	-1.3338	7.52	1.54	-0.750			
0.5594	35799.50	3.4670	3.4671	-1.3185	7.53	1.55	-0.750			
0.5634	36056.01	3.4640	3.4640	-1.3229	7.54	1.56	-0.750			
0.5673	36309.22	3.4610	3.4609	-1.3187	7.56	1.58	-0.750			
0.5713	36563.44	3.4580	3.4582	-1.3172	7.57	1.59	-0.750			
0.5752	36814.92	3.4550	3.4550	-1.3099	7.58	1.60	-0.750			
0.5792	37067.65	3.4520	3.4519	-1.3013	7.59	1.61	-0.750			
0.5831	37318.52	3.4490	3.4491	-1.2905	7.61	1.63	-0.750			
0.5869	37563.50	3.4460	3.4460	-1.2790	7.62	1.64	-0.750			
0.5907	37807.99	3.4430	3.4429	-1.2563	7.63	1.65	-0.750			
0.5945	38048.65	3.4400	3.4400	-1.2366	7.64	1.66	-0.750			
0.5982	38284.75	3.4370	3.4371	-1.2132	7.66	1.68	-0.750			
0.6018	38517.57	3.4340	3.4341	-1.1939	7.67	1.69	-0.750			
0.6053	38742.18	3.4310	3.4310	-1.1834	7.68	1.70	-0.750			
0.6088	38965.40	3.4280	3.4280	-1.1669	7.69	1.71	-0.750			
0.6123	39189.29	3.4250	3.4249	-1.1577	7.70	1.72	-0.750			
0.6159	39414.65	3.4220	3.4219	-1.1476	7.71	1.73	-0.750			
0.6193	39633.26	3.4190	3.4190	-1.1275	7.72	1.74	-0.750			
0.6226	39848.57	3.4160	3.4161	-1.1162	7.73	1.75	-0.750			
0.6260	40060.87	3.4130	3.4129	-1.1002	7.75	1.77	-0.750			
0.6292	40270.06	3.4100	3.4099	-1.0756	7.76	1.78	-0.750			
0.6324	40474.74	3.4070	3.4070	-1.0491	7.77	1.79	-0.750			
0.6356	40677.91	3.4040	3.4041	-1.0273	7.79	1.81	-0.750			
0.6387	40877.24	3.4010	3.4009	-1.0048	7.80	1.82	-0.750			
0.6416	41065.06	3.3980	3.3980	-0.9678	7.81	1.83	-0.750			
0.6444	41243.58	3.3950	3.3949	-0.9357	7.82	1.84	-0.750			
0.6472	41420.40	3.3920	3.3922	-0.9159	7.83	1.85	-0.750			
0.6499	41593.88	3.3890	3.3888	-0.9038	7.85	1.87	-0.750			
0.6526	41764.83	3.3860	3.3860	-0.8839	7.86	1.88	-0.750			
0.6552	41931.99	3.3830	3.3830	-0.8645	7.87	1.89	-0.750			
0.6578	42100.74	3.3800	3.3801	-0.8585	7.88	1.90	-0.750			
0.6604	42264.79	3.3770	3.3769	-0.8362	7.90	1.92	-0.750			
0.6629	42422.66	3.3740	3.3739	-0.8159	7.91	1.93	-0.750			
0.6653	42576.60	3.3710	3.3711	-0.7902	7.92	1.94	-0.750			
0.6676	42725.66	3.3680	3.3680	-0.7671	7.93	1.95	-0.750			
0.6699	42873.08	3.3650	3.3650	-0.7508	7.94	1.96	-0.750			
0.6721	43013.43	3.3620	3.3620	-0.7288	7.95	1.97	-0.750			
0.6742	43150.46	3.3590	3.3591	-0.7106	7.97	1.99	-0.750			
0.6763	43284.68	3.3560	3.3559	-0.6994	7.98	2.00	-0.750			
0.6784	43416.75	3.3530	3.3531	-0.6835	7.99	2.01	-0.750			
0.6805	43549.17	3.3500	3.3500	-0.6677	8.01	2.03	-0.750			
0.6824	43676.55	3.3470	3.3469	-0.6507	8.02	2.04	-0.750			
0.6844	43799.48	3.3440	3.3442	-0.6307	8.03	2.05	-0.750			
0.6862	43917.25	3.3410	3.3410	-0.6112	8.04	2.06	-0.750			
0.6880	44031.71	3.3380	3.3380	-0.5974	8.06	2.08	-0.750			
0.6897	44143.62	3.3350	3.3349	-0.5781	8.07	2.09	-0.750			
0.6915	44254.63	3.3320	3.3320	-0.5718	8.08	2.10	-0.750			
0.6932	44364.21	3.3290	3.3289	-0.5577	8.09	2.11	-0.750			
0.6949	44470.73	3.3260	3.3260	-0.5434	8.10	2.12	-0.750			
0.6965	44573.80	3.3230	3.3232	-0.5303	8.11	2.13	-0.750			
0.6980	44673.20	3.3200	3.3200	-0.5169	8.12	2.14	-0.750			
0.6995	44770.39	3.3170	3.3170	-0.5083	8.13	2.15	-0.750			
0.7010	44866.35	3.3140	3.3140	-0.4992	8.14	2.16	-0.750			
0.7025	44961.57	3.3110	3.3109	-0.4901	8.15	2.17	-0.750			
0.7040	45055.47	3.3080	3.3080	-0.4807	8.16	2.18	-0.750			
0.7054	45146.94	3.3050	3.3051	-0.4723	8.17	2.19	-0.750			
0.7068	45236.55	3.3020	3.3020	-0.4603	8.18	2.20	-0.750			
0.7082	45323.03	3.2990	3.2990	-0.4502	8.19	2.21	-0.750			
0.7095	45408.61	3.2960	3.2960	-0.4407	8.20	2.22	-0.750			
0.7108	45491.94	3.2930	3.2931	-0.4348	8.22	2.24	-0.750			
0.7121	45575.46	3.2900	3.2899	-0.4264	8.23	2.25	-0.750			
0.7134	45656.71	3.2870	3.2871	-0.4171	8.24	2.26	-0.750			
0.7146	45735.82	3.2840	3.2840	-0.4069	8.25	2.27	-0.750			
0.7158	45812.67	3.2810	3.2812	-0.4020	8.26	2.28	-0.750			
0.7170	45888.43	3.2780	3.2778	-0.3948	8.26	2.28	-0.750			
0.7182	45963.91	3.2750	3.2750	-0.3855	8.27	2.29	-0.750			
0.7193	46036.78	3.2720	3.2720	-0.3762	8.28	2.30	-0.750			
0.7205	46109.27	3.2690	3.2691	-0.3733	8.29	2.31	-0.750			
0.7216	46179.72	3.2660	3.2662	-0.3675	8.30	2.32	-0.750			
0.7226	46248.57	3.2630	3.2629	-0.3611	8.31	2.33	-0.750			
0.7237	46317.28	3.2600	3.2600	-0.3519	8.32	2.34	-0.750			
0.7248	46384.52	3.2570	3.2571	-0.3477	8.33	2.35	-0.750			
0.7258	46452.36	3.2540	3.2540	-0.3439	8.34	2.36	-0.750			
0.7268	46517.13	3.2510	3.2508	-0.3357	8.35	2.37	-0.750			
0.7278	46579.47	3.2480	3.2480	-0.3294	8.36	2.38	-0.750			
0.7288	46642.18	3.2450	3.2450	-0.3265	8.37	2.39	-0.750			
0.7298	46704.62	3.2420	3.2419	-0.3225	8.38	2.40	-0.750			
0.7307	46767.08	3.2390	3.2390	-0.3196	8.39	2.41	-0.750			
0.7317	46827.72	3.2360	3.2360	-0.3136	8.40	2.42	-0.750			
0.7326	46887.74	3.2330	3.2330	-0.3096	8.41	2.43	-0.750			
0.7335	46946.83	3.2300	3.2301	-0.3031	8.42	2.44	-0.750			
0.7344	47004.08	3.2270	3.2270	-0.2972	8.43	2.45	-0.750			
0.7353	47060.80	3.2240	3.2240	-0.2914	8.43	2.45	-0.750			
0.7362	47116.42	3.2210	3.2210	-0.2859	8.44	2.46	-0.750			
0.7370	47170.12	3.2180	3.2180	-0.2804	8.45	2.47	-0.750			
0.7379	47223.46	3.2150	3.2150	-0.2771	8.46	2.48	-0.750			
0.7387	47276.15	3.2120	3.2120	-0.2728	8.47	2.49	-0.750			
0.7395	47327.87	3.2090	3.2090	-0.2692	8.48	2.50	-0.750			
0.7403	47379.32	3.2060	3.2060	-0.2664	8.49	2.51	-0.750			
0.7411	47430.39	3.2030	3.2030	-0.2641	8.50	2.52	-0.750			
0.7419	47480.77	3.2000	3.1999	-0.2619	8.50	2.52	-0.750			
0.7427	47530.93	3.1970	3.1970	-0.2578	8.51	2.53	-0.750			
0.7434	47579.52	3.1940	3.1940	-0.2556	8.52	2.54	-0.750			
0.7442	47629.06	3.1910	3.1909	-0.2524	8.53	2.55	-0.750			
0.7450	47677.18	3.1880	3.1880	-0.2499	8.54	2.56	-0.750			
0.7457	47724.44	3.1850	3.1850	-0.2474	8.54	2.56	-0.750			
0.7464	47771.95	3.1820	3.1821	-0.2441	8.55	2.57	-0.750			
0.7472	47818.60	3.1790	3.1790	-0.2408	8.56	2.58	-0.750			
0.7479	47865.14	3.1760	3.1760	-0.2385	8.57	2.59	-0.750			
0.7486	47909.95	3.1730	3.1731	-0.2355	8.58	2.60	-0.750			
0.7493	47955.32	3.1700	3.1699	-0.2336	8.59	2.61	-0.750			
0.7500	47999.10	3.1670	3.1669	-0.2292	8.59	2.61	-0.750			
0.7507	48042.91	3.1640	3.1640	-0.2272	8.60	2.62	-0.750			
0.7513	48086.24	3.1610	3.1611	-0.2238	8.61	2.63	-0.750			
0.7520	48129.05	3.1580	3.1580	-0.2236	8.62	2.64	-0.750			
0.7527	48171.58	3.1550	3.1551	-0.2213	8.63	2.65	-0.750			
0.7533	48213.92	3.1520	3.1520	-0.2199	8.64	2.66	-0.750			
0.7540	48255.94	3.1490	3.1488	-0.2167	8.65	2.67	-0.750			
0.7547	48297.98	3.1460	3.1460	-0.2149	8.65	2.67	-0.750			
0.7553	48339.12	3.1430	3.1430	-0.2120	8.66	2.68	-0.750			
0.7559	48379.21	3.1400	3.1401	-0.2101	8.67	2.69	-0.750			
0.7566	48419.50	3.1370	3.1369	-0.2084	8.67	2.69	-0.750			
0.7572	48458.82	3.1340	3.1339	-0.2041	8.68	2.70	-0.750			
0.7578	48497.84	3.1310	3.1309	-0.2023	8.69	2.71	-0.750			
0.7584	48536.43	3.1280	3.1281	-0.2010	8.69	2.71	-0.750			
0.7590	48575.19	3.1250	3.1250	-0.1998	8.70	2.72	-0.750			
0.7596	48613.05	3.1220	3.1220	-0.1982	8.71	2.73	-0.750			
0.7602	48650.97	3.1190	3.1190	-0.1968	8.72	2.74	-0.750			
0.7608	48688.22	3.1160	3.1161	-0.1948	8.73	2.75	-0.750			
0.7613	48725.58	3.1130	3.1130	-0.1940	8.73	2.75	-0.750			
0.7619	48763.11	3.1100	3.1100	-0.1935	8.74	2.76	-0.750			
0.7625	48800.10	3.1070	3.1070	-0.1918	8.75	2.77	-0.750			
0.7631	48836.74	3.1040	3.1040	-0.1896	8.76	2.78	-0.750			
0.7636	48873.15	3.1010	3.1011	-0.1881	8.77	2.79	-0.750			
0.7642	48908.94	3.0980	3.0980	-0.1857	8.77	2.79	-0.750			
0.7648	48944.20	3.0950	3.0950	-0.1859	8.78	2.80	-0.750			
0.7653	48979.84	3.0920	3.0919	-0.1847	8.79	2.81	-0.750			
0.7659	49015.19	3.0890	3.0889	-0.1827	8.80	2.82	-0.750			
0.7664	49050.49	3.0860	3.0859	-0.1817	8.80	2.82	-0.750			
0.7670	49085.18	3.0830	3.0832	-0.1797	8.81	2.83	-0.750			
0.7675	49119.75	3.0800	3.0799	-0.1786	8.82	2.84	-0.750			
0.7680	49153.80	3.0770	3.0770	-0.1766	8.83	2.85	-0.750			
0.7685	49187.14	3.0740	3.0740	-0.1738	8.83	2.85	-0.750			
0.7691	49220.39	3.0710	3.0710	-0.1726	8.84	2.86	-0.750			
0.7696	49253.38	3.0680	3.0681	-0.1729	8.85	2.87	-0.750			
0.7701	49286.62	3.0650	3.0650	-0.1717	8.85	2.87	-0.750			
0.7706	49319.65	3.0620	3.0619	-0.1704	8.86	2.88	-0.750			
0.7711	49352.23	3.0590	3.0590	-0.1690	8.87	2.89	-0.750			
0.7716	49384.62	3.0560	3.0561	-0.1672	8.87	2.89	-0.750			
0.7721	49416.89	3.0530	3.0529	-0.1656	8.88	2.90	-0.750			
0.7726	49448.10	3.0500	3.0500	-0.1644	8.89	2.91	-0.750			
0.7731	49479.54	3.0470	3.0471	-0.1630	8.90	2.92	-0.750			
0.7736	49510.11	3.0440	3.0440	-0.1616	8.91	2.93	-0.750			
0.7741	49541.11	3.0410	3.0409	-0.1614	8.92	2.94	-0.750			
0.7746	49572.28	3.0380	3.0380	-0.1607	8.92	2.94	-0.750			
0.7750	49603.08	3.0350	3.0351	-0.1601	8.93	2.95	-0.750			
0.7755	49633.92	3.0320	3.0320	-0.1596	8.94	2.96	-0.750			
0.7760	49664.53	3.0290	3.0290	-0.1591	8.95	2.97	-0.750			
0.7765	49694.97	3.0260	3.0260	-0.1572	8.96	2.98	-0.750			
0.7770	49725.06	3.0230	3.0230	-0.1562	8.96	2.98	-0.750			
0.7774	49755.01	3.0200	3.0200	-0.1555	8.97	2.99	-0.750			
0.7779	49784.74	3.0170	3.0172	-0.1544	8.98	3.00	-0.750			
0.7784	49814.66	3.0140	3.0139	-0.1531	8.99	3.01	-0.750			
0.7788	49843.87	3.0110	3.0110	-0.1511	9.00	3.02	-0.750			
0.7793	49872.69	3.0080	3.0080	-0.1491	9.00	3.02	-0.750			
0.7797	49901.14	3.0050	3.0051	-0.1471	9.01	3.03	-0.750			
0.7801	49929.14	3.0020	3.0020	-0.1390	9.02	3.04	-0.750			
