Ah_balance (normalized)	Ah_balance (mAh)	Voltage - fit (V)	Voltage -  interpolate (V)	dQ/dV (1/V)	Temperature (°C)	Temperature - diff (°C)	Current (C)	R_DC 0ms (mOhm)	R_DC 50ms (mOhm)	R_DC 50 ms PEC (mOhm)
0.0000	0.00	4.0930	4.1278	0.0000	5.99	0.00	-0.750			
0.0000	0.00	4.0960	4.1278	0.0000	5.99	0.00	-0.750			
0.0001	6.89	4.0900	4.0923	-0.0320	5.99	0.00	-0.750			
0.0002	15.67	4.0870	4.0873	-0.0594	5.99	0.00	-0.750			
0.0005	31.31	4.0840	4.0838	-0.0846	5.99	0.00	-0.750			
0.0008	50.37	4.0810	4.0807	-0.1094	5.99	0.00	-0.750			
0.0012	73.79	4.0780	4.0779	-0.1346	5.99	0.00	-0.750			
0.0016	102.10	4.0750	4.0751	-0.1590	5.99	0.00	-0.750			
0.0021	135.03	4.0720	4.0720	-0.1839	5.99	0.00	-0.750			
0.0027	173.20	4.0690	4.0689	-0.2089	5.99	0.00	-0.750			
0.0034	215.80	4.0660	4.0660	-0.2315	5.99	0.00	-0.750			
0.0041	262.75	4.0630	4.0630	-0.2527	5.99	0.00	-0.750			
0.0049	313.99	4.0600	4.0600	-0.2746	5.99	0.00	-0.750			
0.0058	368.52	4.0570	4.0571	-0.2962	5.99	0.00	-0.750			
0.0067	427.13	4.0540	4.0540	-0.3190	5.99	0.00	-0.750			
0.0077	490.60	4.0510	4.0510	-0.3388	5.99	0.00	-0.750			
0.0087	557.81	4.0480	4.0479	-0.3594	5.99	0.00	-0.750			
0.0098	628.92	4.0450	4.0451	-0.3812	5.99	0.00	-0.750			
0.0110	704.23	4.0420	4.0421	-0.4016	5.99	0.00	-0.750			
0.0122	783.34	4.0390	4.0390	-0.4213	5.99	0.00	-0.750			
0.0135	865.97	4.0360	4.0360	-0.4394	5.99	0.00	-0.750			
0.0149	951.72	4.0330	4.0331	-0.4609	5.99	0.00	-0.750			
0.0163	1043.53	4.0300	4.0300	-0.4807	5.99	0.00	-0.750			
0.0178	1136.65	4.0270	4.0270	-0.4999	5.99	0.00	-0.750			
0.0193	1234.72	4.0240	4.0240	-0.5173	5.99	0.00	-0.750			
0.0209	1336.70	4.0210	4.0210	-0.5344	5.99	0.00	-0.750			
0.0225	1441.23	4.0180	4.0179	-0.5508	5.99	0.00	-0.750			
0.0242	1548.58	4.0150	4.0151	-0.5653	6.00	0.01	-0.750			
0.0259	1657.76	4.0120	4.0120	-0.5801	6.00	0.01	-0.750			
0.0277	1771.66	4.0090	4.0089	-0.5985	6.00	0.01	-0.750			
0.0295	1887.10	4.0060	4.0061	-0.6082	6.00	0.01	-0.750			
0.0313	2006.33	4.0030	4.0030	-0.6233	6.01	0.02	-0.750			
0.0333	2129.07	4.0000	4.0001	-0.6338	6.01	0.02	-0.750			
0.0352	2251.94	3.9970	3.9968	-0.6375	6.02	0.03	-0.750			
0.0371	2374.07	3.9940	3.9941	-0.6395	6.02	0.03	-0.750			
0.0390	2496.12	3.9910	3.9910	-0.6513	6.03	0.04	-0.750			
0.0410	2622.94	3.9880	3.9880	-0.6603	6.04	0.05	-0.750			
0.0430	2750.33	3.9850	3.9848	-0.6689	6.04	0.05	-0.750			
0.0450	2879.64	3.9820	3.9822	-0.6752	6.05	0.06	-0.750			
0.0470	3010.95	3.9790	3.9789	-0.6797	6.05	0.06	-0.750			
0.0491	3142.93	3.9760	3.9761	-0.6854	6.06	0.07	-0.750			
0.0512	3274.11	3.9730	3.9730	-0.6885	6.06	0.07	-0.750			
0.0532	3403.76	3.9700	3.9699	-0.6880	6.07	0.08	-0.750			
0.0553	3539.46	3.9670	3.9670	-0.6926	6.07	0.08	-0.750			
0.0574	3671.87	3.9640	3.9641	-0.6941	6.08	0.09	-0.750			
0.0595	3805.80	3.9610	3.9610	-0.7001	6.09	0.10	-0.750			
0.0616	3940.44	3.9580	3.9579	-0.7018	6.09	0.10	-0.750			
0.0637	4074.01	3.9550	3.9550	-0.7058	6.10	0.11	-0.750			
0.0658	4210.14	3.9520	3.9520	-0.7112	6.11	0.12	-0.750			
0.0680	4349.17	3.9490	3.9490	-0.7133	6.11	0.12	-0.750			
0.0701	4486.59	3.9460	3.9461	-0.7176	6.12	0.13	-0.750			
0.0723	4624.00	3.9430	3.9430	-0.7194	6.13	0.14	-0.750			
0.0744	4761.53	3.9400	3.9400	-0.7253	6.14	0.15	-0.750			
0.0766	4900.72	3.9370	3.9370	-0.7289	6.14	0.15	-0.750			
0.0788	5042.09	3.9340	3.9340	-0.7253	6.15	0.16	-0.750			
0.0810	5183.42	3.9310	3.9310	-0.7294	6.16	0.17	-0.750			
0.0832	5323.61	3.9280	3.9281	-0.7300	6.17	0.18	-0.750			
0.0854	5462.53	3.9250	3.9249	-0.7265	6.18	0.19	-0.750			
0.0875	5601.23	3.9220	3.9219	-0.7303	6.18	0.19	-0.750			
0.0897	5740.09	3.9190	3.9191	-0.7293	6.19	0.20	-0.750			
0.0919	5882.09	3.9160	3.9160	-0.7378	6.20	0.21	-0.750			
0.0941	6024.35	3.9130	3.9130	-0.7424	6.21	0.22	-0.750			
0.0964	6166.81	3.9100	3.9099	-0.7407	6.21	0.22	-0.750			
0.0986	6309.50	3.9070	3.9070	-0.7424	6.22	0.23	-0.750			
0.1008	6452.31	3.9040	3.9040	-0.7454	6.23	0.24	-0.750			
0.1031	6595.66	3.9010	3.9011	-0.7454	6.24	0.25	-0.750			
0.1053	6739.12	3.8980	3.8979	-0.7500	6.25	0.26	-0.750			
0.1075	6883.20	3.8950	3.8950	-0.7468	6.26	0.27	-0.750			
0.1098	7026.69	3.8920	3.8920	-0.7498	6.27	0.28	-0.750			
0.1120	7171.13	3.8890	3.8891	-0.7553	6.28	0.29	-0.750			
0.1143	7314.81	3.8860	3.8860	-0.7579	6.29	0.30	-0.750			
0.1166	7460.04	3.8830	3.8831	-0.7601	6.29	0.30	-0.750			
0.1189	7607.68	3.8800	3.8799	-0.7618	6.30	0.31	-0.750			
0.1212	7753.72	3.8770	3.8770	-0.7623	6.31	0.32	-0.750			
0.1235	7901.83	3.8740	3.8742	-0.7665	6.32	0.33	-0.750			
0.1257	8047.86	3.8710	3.8709	-0.7626	6.33	0.34	-0.750			
0.1280	8193.62	3.8680	3.8680	-0.7653	6.34	0.35	-0.750			
0.1304	8342.74	3.8650	3.8650	-0.7610	6.35	0.36	-0.750			
0.1326	8489.36	3.8620	3.8620	-0.7585	6.36	0.37	-0.750			
0.1349	8633.82	3.8590	3.8590	-0.7574	6.37	0.38	-0.750			
0.1371	8777.44	3.8560	3.8560	-0.7541	6.38	0.39	-0.750			
0.1394	8921.56	3.8530	3.8529	-0.7536	6.39	0.40	-0.750			
0.1416	9064.92	3.8500	3.8500	-0.7582	6.39	0.40	-0.750			
0.1439	9209.06	3.8470	3.8471	-0.7645	6.40	0.41	-0.750			
0.1462	9358.87	3.8440	3.8440	-0.7768	6.41	0.42	-0.750			
0.1486	9509.50	3.8410	3.8409	-0.7814	6.42	0.43	-0.750			
0.1509	9659.60	3.8380	3.8381	-0.7880	6.43	0.44	-0.750			
0.1533	9814.08	3.8350	3.8350	-0.7880	6.44	0.45	-0.750			
0.1557	9966.02	3.8320	3.8319	-0.7865	6.45	0.46	-0.750			
0.1581	10115.96	3.8290	3.8291	-0.7782	6.46	0.47	-0.750			
0.1604	10263.90	3.8260	3.8261	-0.7767	6.47	0.48	-0.750			
0.1627	10413.06	3.8230	3.8229	-0.7748	6.48	0.49	-0.750			
0.1650	10561.91	3.8200	3.8199	-0.7699	6.49	0.50	-0.750			
0.1673	10706.64	3.8170	3.8170	-0.7692	6.50	0.51	-0.750			
0.1696	10856.50	3.8140	3.8140	-0.7724	6.51	0.52	-0.750			
0.1719	11004.28	3.8110	3.8110	-0.7747	6.52	0.53	-0.750			
0.1743	11153.49	3.8080	3.8079	-0.7788	6.53	0.54	-0.750			
0.1766	11301.43	3.8050	3.8052	-0.7795	6.53	0.54	-0.750			
0.1789	11452.80	3.8020	3.8020	-0.7872	6.54	0.55	-0.750			
0.1813	11605.92	3.7990	3.7989	-0.7902	6.55	0.56	-0.750			
0.1837	11757.64	3.7960	3.7960	-0.7839	6.56	0.57	-0.750			
0.1861	11909.27	3.7930	3.7931	-0.7857	6.57	0.58	-0.750			
0.1884	12058.18	3.7900	3.7900	-0.7882	6.58	0.59	-0.750			
0.1908	12209.53	3.7870	3.7869	-0.7853	6.59	0.60	-0.750			
0.1931	12360.18	3.7840	3.7839	-0.7856	6.60	0.61	-0.750			
0.1955	12510.61	3.7810	3.7813	-0.7837	6.61	0.62	-0.750			
0.1978	12662.04	3.7780	3.7778	-0.7879	6.62	0.63	-0.750			
0.2002	12813.95	3.7750	3.7751	-0.7941	6.63	0.64	-0.750			
0.2026	12965.64	3.7720	3.7719	-0.7910	6.63	0.64	-0.750			
0.2050	13119.90	3.7690	3.7689	-0.7926	6.64	0.65	-0.750			
0.2074	13271.92	3.7660	3.7663	-0.7934	6.65	0.66	-0.750			
0.2097	13421.93	3.7630	3.7629	-0.7958	6.66	0.67	-0.750			
0.2121	13575.00	3.7600	3.7598	-0.7970	6.66	0.67	-0.750			
0.2144	13724.17	3.7570	3.7571	-0.8013	6.67	0.68	-0.750			
0.2168	13877.77	3.7540	3.7541	-0.8156	6.68	0.69	-0.750			
0.2194	14042.03	3.7510	3.7509	-0.8200	6.69	0.70	-0.750			
0.2219	14200.48	3.7480	3.7480	-0.8208	6.69	0.70	-0.750			
0.2243	14356.13	3.7450	3.7451	-0.8234	6.70	0.71	-0.750			
0.2268	14516.08	3.7420	3.7419	-0.8209	6.71	0.72	-0.750			
0.2293	14674.68	3.7390	3.7388	-0.8169	6.72	0.73	-0.750			
0.2317	14829.40	3.7360	3.7360	-0.8135	6.73	0.74	-0.750			
0.2341	14984.70	3.7330	3.7331	-0.8140	6.73	0.74	-0.750			
0.2366	15141.96	3.7300	3.7299	-0.8240	6.74	0.75	-0.750			
0.2390	15299.18	3.7270	3.7270	-0.8204	6.75	0.76	-0.750			
0.2415	15455.84	3.7240	3.7240	-0.8229	6.76	0.77	-0.750			
0.2440	15615.70	3.7210	3.7211	-0.8367	6.77	0.78	-0.750			
0.2465	15777.17	3.7180	3.7180	-0.8451	6.77	0.78	-0.750			
0.2490	15938.86	3.7150	3.7149	-0.8553	6.78	0.79	-0.750			
0.2516	16105.26	3.7120	3.7119	-0.8585	6.79	0.80	-0.750			
0.2542	16271.99	3.7090	3.7090	-0.8608	6.80	0.81	-0.750			
0.2569	16439.96	3.7060	3.7060	-0.8616	6.81	0.82	-0.750			
0.2595	16605.88	3.7030	3.7030	-0.8580	6.81	0.82	-0.750			
0.2620	16767.48	3.7000	3.7000	-0.8683	6.82	0.83	-0.750			
0.2646	16931.82	3.6970	3.6970	-0.8725	6.83	0.84	-0.750			
0.2672	17099.40	3.6940	3.6939	-0.8835	6.83	0.84	-0.750			
0.2699	17272.38	3.6910	3.6910	-0.8961	6.84	0.85	-0.750			
0.2726	17448.75	3.6880	3.6880	-0.9008	6.85	0.86	-0.750			
0.2754	17622.54	3.6850	3.6850	-0.9011	6.86	0.87	-0.750			
0.2781	17796.06	3.6820	3.6821	-0.8981	6.86	0.87	-0.750			
0.2807	17965.64	3.6790	3.6791	-0.8959	6.87	0.88	-0.750			
0.2834	18137.61	3.6760	3.6760	-0.9017	6.88	0.89	-0.750			
0.2861	18309.12	3.6730	3.6729	-0.9112	6.89	0.90	-0.750			
0.2888	18485.13	3.6700	3.6700	-0.9179	6.89	0.90	-0.750			
0.2916	18662.96	3.6670	3.6669	-0.9285	6.90	0.91	-0.750			
0.2944	18843.95	3.6640	3.6641	-0.9378	6.91	0.92	-0.750			
0.2973	19024.92	3.6610	3.6610	-0.9479	6.91	0.92	-0.750			
0.3001	19206.56	3.6580	3.6580	-0.9549	6.92	0.93	-0.750			
0.3030	19391.54	3.6550	3.6549	-0.9604	6.92	0.93	-0.750			
0.3059	19575.08	3.6520	3.6519	-0.9618	6.93	0.94	-0.750			
0.3088	19762.54	3.6490	3.6491	-0.9713	6.93	0.94	-0.750			
0.3117	19948.13	3.6460	3.6461	-0.9728	6.94	0.95	-0.750			
0.3146	20136.80	3.6430	3.6429	-0.9784	6.94	0.95	-0.750			
0.3175	20322.99	3.6400	3.6400	-0.9790	6.95	0.96	-0.750			
0.3205	20511.15	3.6370	3.6371	-0.9892	6.95	0.96	-0.750			
0.3235	20702.24	3.6340	3.6340	-0.9997	6.96	0.97	-0.750			
0.3265	20895.23	3.6310	3.6309	-1.0114	6.96	0.97	-0.750			
0.3295	21090.65	3.6280	3.6279	-1.0186	6.97	0.98	-0.750			
0.3326	21287.56	3.6250	3.6250	-1.0318	6.98	0.99	-0.750			
0.3357	21486.93	3.6220	3.6220	-1.0412	6.98	0.99	-0.750			
0.3389	21689.74	3.6190	3.6190	-1.0455	6.98	0.99	-0.750			
0.3420	21889.96	3.6160	3.6159	-1.0526	6.99	1.00	-0.750			
0.3452	22091.56	3.6130	3.6130	-1.0563	6.99	1.00	-0.750			
0.3484	22296.26	3.6100	3.6099	-1.0570	7.00	1.01	-0.750			
0.3515	22498.41	3.6070	3.6069	-1.0664	7.00	1.01	-0.750			
0.3547	22702.62	3.6040	3.6041	-1.0698	7.01	1.02	-0.750			
0.3580	22910.80	3.6010	3.6011	-1.0799	7.02	1.03	-0.750			
0.3612	23117.81	3.5980	3.5979	-1.0868	7.02	1.03	-0.750			
0.3644	23323.41	3.5950	3.5951	-1.0965	7.02	1.03	-0.750			
0.3678	23539.31	3.5920	3.5920	-1.1038	7.02	1.03	-0.750			
0.3712	23753.94	3.5890	3.5889	-1.1121	7.02	1.03	-0.750			
0.3745	23966.54	3.5860	3.5860	-1.1083	7.03	1.04	-0.750			
0.3778	24178.35	3.5830	3.5838	-1.1215	7.03	1.04	-0.750	0.408	0.835	
0.3811	24392.70	3.5800	3.5798	-1.1372	7.04	1.05	-0.750			
0.3845	24609.28	3.5770	3.5770	-1.1488	7.04	1.05	-0.750			
0.3880	24832.16	3.5740	3.5739	-1.1669	7.04	1.05	-0.750			
0.3916	25064.65	3.5710	3.5710	-1.1815	7.05	1.06	-0.750			
0.3952	25291.45	3.5680	3.5680	-1.1753	7.05	1.06	-0.750			
0.3988	25520.39	3.5650	3.5650	-1.1853	7.06	1.07	-0.750			
0.4023	25744.81	3.5620	3.5618	-1.1793	7.06	1.07	-0.750			
0.4058	25970.94	3.5590	3.5589	-1.1904	7.07	1.08	-0.750			
0.4094	26200.16	3.5560	3.5561	-1.2007	7.07	1.08	-0.750			
0.4130	26433.81	3.5530	3.5528	-1.2086	7.07	1.08	-0.750			
0.4167	26665.88	3.5500	3.5501	-1.2199	7.08	1.09	-0.750			
0.4203	26897.13	3.5470	3.5472	-1.2285	7.08	1.09	-0.750			
0.4240	27138.85	3.5440	3.5438	-1.2452	7.08	1.09	-0.750			
0.4278	27380.52	3.5410	3.5409	-1.2430	7.09	1.10	-0.750			
0.4316	27619.27	3.5380	3.5381	-1.2410	7.09	1.10	-0.750			
0.4354	27863.66	3.5350	3.5350	-1.2534	7.09	1.10	-0.750			
0.4391	28100.85	3.5320	3.5320	-1.2506	7.10	1.11	-0.750			
0.4427	28331.41	3.5290	3.5290	-1.2553	7.11	1.12	-0.750			
0.4465	28575.95	3.5260	3.5261	-1.2616	7.11	1.12	-0.750			
0.4504	28822.89	3.5230	3.5228	-1.2765	7.12	1.13	-0.750			
0.4542	29069.06	3.5200	3.5200	-1.2850	7.12	1.13	-0.750			
0.4581	29318.68	3.5170	3.5174	-1.2777	7.13	1.14	-0.750			
0.4620	29567.34	3.5140	3.5139	-1.2782	7.13	1.14	-0.750			
0.4658	29808.69	3.5110	3.5111	-1.2662	7.14	1.15	-0.750			
0.4695	30049.04	3.5080	3.5080	-1.2693	7.14	1.15	-0.750			
0.4734	30297.84	3.5050	3.5049	-1.2717	7.15	1.16	-0.750			
0.4772	30538.35	3.5020	3.5020	-1.2578	7.16	1.17	-0.750			
0.4809	30779.43	3.4990	3.4990	-1.2504	7.17	1.18	-0.750			
0.4847	31020.74	3.4960	3.4960	-1.2476	7.17	1.18	-0.750			
0.4884	31256.57	3.4930	3.4930	-1.2470	7.18	1.19	-0.750			
0.4921	31493.43	3.4900	3.4900	-1.2493	7.18	1.19	-0.750			
0.4958	31734.20	3.4870	3.4870	-1.2405	7.19	1.20	-0.750			
0.4996	31975.50	3.4840	3.4840	-1.2471	7.20	1.21	-0.750			
0.5034	32215.65	3.4810	3.4811	-1.2470	7.20	1.21	-0.750			
0.5071	32455.29	3.4780	3.4780	-1.2443	7.21	1.22	-0.750			
0.5108	32692.08	3.4750	3.4749	-1.2396	7.22	1.23	-0.750			
0.5145	32928.79	3.4720	3.4721	-1.2336	7.23	1.24	-0.750			
0.5182	33167.59	3.4690	3.4690	-1.2235	7.24	1.25	-0.750			
0.5219	33404.56	3.4660	3.4659	-1.2173	7.25	1.26	-0.750			
0.5256	33636.99	3.4630	3.4632	-1.1982	7.26	1.27	-0.750			
0.5291	33863.33	3.4600	3.4600	-1.1891	7.26	1.27	-0.750			
0.5326	34089.38	3.4570	3.4570	-1.1812	7.27	1.28	-0.750			
0.5362	34316.46	3.4540	3.4539	-1.1778	7.28	1.29	-0.750			
0.5397	34542.65	3.4510	3.4509	-1.1713	7.29	1.30	-0.750			
0.5433	34768.11	3.4480	3.4480	-1.1658	7.30	1.31	-0.750			
0.5468	34993.23	3.4450	3.4451	-1.1514	7.31	1.32	-0.750			
0.5502	35215.63	3.4420	3.4419	-1.1394	7.33	1.34	-0.750			
0.5536	35429.60	3.4390	3.4390	-1.1251	7.34	1.35	-0.750			
0.5569	35641.08	3.4360	3.4361	-1.1082	7.35	1.36	-0.750			
0.5602	35853.59	3.4330	3.4328	-1.1121	7.36	1.37	-0.750			
0.5635	36066.85	3.4300	3.4299	-1.1069	7.37	1.38	-0.750			
0.5668	36278.12	3.4270	3.4271	-1.1040	7.38	1.39	-0.750			
0.5702	36490.83	3.4240	3.4242	-1.1064	7.39	1.40	-0.750			
0.5735	36706.74	3.4210	3.4209	-1.0992	7.40	1.41	-0.750			
0.5769	36919.02	3.4180	3.4179	-1.0782	7.41	1.42	-0.750			
0.5801	37124.41	3.4150	3.4150	-1.0597	7.42	1.43	-0.750			
0.5832	37325.12	3.4120	3.4122	-1.0463	7.43	1.44	-0.750			
0.5863	37523.38	3.4090	3.4089	-1.0246	7.44	1.45	-0.750			
0.5893	37715.27	3.4060	3.4059	-1.0041	7.46	1.47	-0.750			
0.5923	37906.92	3.4030	3.4030	-0.9863	7.47	1.48	-0.750			
0.5953	38097.68	3.4000	3.4001	-0.9755	7.48	1.49	-0.750			
0.5982	38282.95	3.3970	3.3970	-0.9615	7.49	1.50	-0.750			
0.6010	38464.50	3.3940	3.3940	-0.9418	7.51	1.52	-0.750			
0.6038	38643.28	3.3910	3.3909	-0.9284	7.52	1.53	-0.750			
0.6065	38819.01	3.3880	3.3880	-0.9167	7.53	1.54	-0.750			
0.6093	38994.66	3.3850	3.3850	-0.9055	7.55	1.56	-0.750			
0.6120	39169.35	3.3820	3.3820	-0.8899	7.56	1.57	-0.750			
0.6147	39339.16	3.3790	3.3790	-0.8762	7.57	1.58	-0.750			
0.6173	39505.84	3.3760	3.3760	-0.8543	7.59	1.60	-0.750			
0.6198	39669.08	3.3730	3.3729	-0.8375	7.60	1.61	-0.750			
0.6223	39826.60	3.3700	3.3699	-0.8160	7.61	1.62	-0.750			
0.6247	39980.07	3.3670	3.3670	-0.8023	7.62	1.63	-0.750			
0.6271	40132.44	3.3640	3.3640	-0.7856	7.64	1.65	-0.750			
0.6294	40281.74	3.3610	3.3609	-0.7722	7.65	1.66	-0.750			
0.6317	40429.32	3.3580	3.3580	-0.7527	7.66	1.67	-0.750			
0.6340	40573.69	3.3550	3.3549	-0.7386	7.68	1.69	-0.750			
0.6361	40713.44	3.3520	3.3520	-0.7219	7.69	1.70	-0.750			
0.6383	40849.81	3.3490	3.3490	-0.7093	7.70	1.71	-0.750			
0.6404	40982.63	3.3460	3.3460	-0.6906	7.71	1.72	-0.750			
0.6424	41115.57	3.3430	3.3429	-0.6785	7.72	1.73	-0.750			
0.6444	41243.50	3.3400	3.3400	-0.6661	7.73	1.74	-0.750			
0.6464	41370.43	3.3370	3.3370	-0.6584	7.74	1.75	-0.750			
0.6484	41495.77	3.3340	3.3339	-0.6422	7.75	1.76	-0.750			
0.6503	41617.73	3.3310	3.3309	-0.6291	7.77	1.78	-0.750			
0.6521	41736.29	3.3280	3.3281	-0.6180	7.78	1.79	-0.750			
0.6540	41855.35	3.3250	3.3249	-0.6095	7.79	1.80	-0.750			
0.6558	41972.78	3.3220	3.3219	-0.5934	7.81	1.82	-0.750			
0.6576	42084.73	3.3190	3.3191	-0.5760	7.82	1.83	-0.750			
0.6593	42192.36	3.3160	3.3161	-0.5631	7.83	1.84	-0.750			
0.6609	42300.42	3.3130	3.3129	-0.5515	7.84	1.85	-0.750			
0.6625	42402.79	3.3100	3.3099	-0.5389	7.85	1.86	-0.750			
0.6641	42504.16	3.3070	3.3070	-0.5303	7.86	1.87	-0.750			
0.6657	42605.82	3.3040	3.3041	-0.5274	7.88	1.89	-0.750			
0.6673	42707.98	3.3010	3.3010	-0.5206	7.89	1.90	-0.750			
0.6689	42808.02	3.2980	3.2979	-0.5109	7.90	1.91	-0.750			
0.6704	42905.56	3.2950	3.2952	-0.4994	7.91	1.92	-0.750			
0.6719	43000.97	3.2920	3.2920	-0.4893	7.92	1.93	-0.750			
0.6733	43092.42	3.2890	3.2890	-0.4792	7.94	1.95	-0.750			
0.6747	43182.38	3.2860	3.2860	-0.4682	7.95	1.96	-0.750			
0.6761	43270.29	3.2830	3.2829	-0.4654	7.96	1.97	-0.750			
0.6775	43359.45	3.2800	3.2800	-0.4620	7.97	1.98	-0.750			
0.6789	43448.39	3.2770	3.2770	-0.4581	7.99	2.00	-0.750			
0.6803	43536.48	3.2740	3.2740	-0.4510	8.00	2.01	-0.750			
0.6816	43623.70	3.2710	3.2711	-0.4438	8.01	2.02	-0.750			
0.6829	43707.95	3.2680	3.2681	-0.4334	8.01	2.02	-0.750			
0.6842	43790.81	3.2650	3.2649	-0.4221	8.02	2.03	-0.750			
0.6854	43868.51	3.2620	3.2621	-0.4135	8.04	2.05	-0.750			
0.6867	43947.45	3.2590	3.2590	-0.4052	8.05	2.06	-0.750			
0.6879	44024.92	3.2560	3.2560	-0.3974	8.06	2.07	-0.750			
0.6891	44100.28	3.2530	3.2530	-0.3911	8.08	2.09	-0.750			
0.6902	44175.03	3.2500	3.2502	-0.3845	8.09	2.10	-0.750			
0.6914	44247.62	3.2470	3.2469	-0.3799	8.10	2.11	-0.750			
0.6925	44320.04	3.2440	3.2439	-0.3730	8.11	2.12	-0.750			
0.6936	44389.58	3.2410	3.2411	-0.3678	8.12	2.13	-0.750			
0.6947	44460.85	3.2380	3.2379	-0.3662	8.13	2.14	-0.750			
0.6958	44530.63	3.2350	3.2350	-0.3611	8.14	2.15	-0.750			
0.6969	44599.74	3.2320	3.2319	-0.3566	8.16	2.17	-0.750			
0.6979	44667.85	3.2290	3.2290	-0.3520	8.17	2.18	-0.750			
0.6990	44734.96	3.2260	3.2260	-0.3460	8.18	2.19	-0.750			
0.7000	44801.47	3.2230	3.2230	-0.3430	8.19	2.20	-0.750			
0.7010	44865.85	3.2200	3.2200	-0.3357	8.20	2.21	-0.750			
0.7020	44930.04	3.2170	3.2171	-0.3336	8.21	2.22	-0.750			
0.7030	44993.41	3.2140	3.2138	-0.3297	8.22	2.23	-0.750			
0.7040	45056.37	3.2110	3.2109	-0.3260	8.23	2.24	-0.750			
0.7050	45118.64	3.2080	3.2080	-0.3221	8.24	2.25	-0.750			
0.7059	45180.21	3.2050	3.2052	-0.3183	8.25	2.26	-0.750			
0.7069	45241.46	3.2020	3.2020	-0.3156	8.26	2.27	-0.750			
0.7078	45302.05	3.1990	3.1990	-0.3120	8.27	2.28	-0.750			
0.7088	45360.95	3.1960	3.1959	-0.3069	8.28	2.29	-0.750			
0.7097	45419.43	3.1930	3.1931	-0.3036	8.29	2.30	-0.750			
0.7106	45477.24	3.1900	3.1900	-0.3011	8.30	2.31	-0.750			
0.7115	45534.90	3.1870	3.1869	-0.2970	8.32	2.33	-0.750			
0.7124	45591.40	3.1840	3.1840	-0.2936	8.33	2.34	-0.750			
0.7132	45647.31	3.1810	3.1810	-0.2901	8.34	2.35	-0.750			
0.7141	45703.52	3.1780	3.1780	-0.2866	8.35	2.36	-0.750			
0.7150	45758.22	3.1750	3.1749	-0.2825	8.36	2.37	-0.750			
0.7158	45811.79	3.1720	3.1722	-0.2774	8.37	2.38	-0.750			
0.7166	45864.18	3.1690	3.1691	-0.2750	8.38	2.39	-0.750			
0.7174	45916.60	3.1660	3.1659	-0.2736	8.39	2.40	-0.750			
0.7183	45968.70	3.1630	3.1629	-0.2702	8.40	2.41	-0.750			
0.7191	46020.08	3.1600	3.1602	-0.2668	8.41	2.42	-0.750			
0.7199	46071.66	3.1570	3.1570	-0.2640	8.41	2.42	-0.750			
0.7207	46122.24	3.1540	3.1541	-0.2622	8.42	2.43	-0.750			
0.7214	46172.04	3.1510	3.1509	-0.2591	8.44	2.45	-0.750			
0.7222	46221.24	3.1480	3.1480	-0.2546	8.45	2.46	-0.750			
0.7230	46269.82	3.1450	3.1450	-0.2521	8.46	2.47	-0.750			
0.7237	46318.11	3.1420	3.1421	-0.2512	8.47	2.48	-0.750			
0.7245	46366.12	3.1390	3.1391	-0.2499	8.48	2.49	-0.750			
0.7252	46413.98	3.1360	3.1360	-0.2483	8.49	2.50	-0.750			
0.7260	46461.69	3.1330	3.1328	-0.2454	8.50	2.51	-0.750			
0.7267	46508.31	3.1300	3.1300	-0.2428	8.51	2.52	-0.750			
0.7274	46555.00	3.1270	3.1271	-0.2420	8.52	2.53	-0.750			
0.7281	46601.09	3.1240	3.1241	-0.2416	8.53	2.54	-0.750			
0.7289	46647.36	3.1210	3.1209	-0.2400	8.54	2.55	-0.750			
0.7296	46692.74	3.1180	3.1179	-0.2381	8.55	2.56	-0.750			
0.7303	46738.35	3.1150	3.1150	-0.2368	8.56	2.57	-0.750			
0.7310	46784.84	3.1120	3.1120	-0.2335	8.57	2.58	-0.750			
0.7317	46829.80	3.1090	3.1090	-0.2319	8.58	2.59	-0.750			
0.7324	46872.99	3.1060	3.1061	-0.2300	8.58	2.59	-0.750			
0.7331	46915.96	3.1030	3.1033	-0.2285	8.59	2.60	-0.750			
0.7337	46958.91	3.1000	3.0999	-0.2270	8.60	2.61	-0.750			
0.7344	47002.84	3.0970	3.0969	-0.2256	8.61	2.62	-0.750			
0.7351	47046.63	3.0940	3.0941	-0.2239	8.62	2.63	-0.750			
0.7358	47089.86	3.0910	3.0911	-0.2230	8.63	2.64	-0.750			
0.7365	47133.74	3.0880	3.0881	-0.2222	8.64	2.65	-0.750			
0.7371	47175.86	3.0850	3.0849	-0.2180	8.65	2.66	-0.750			
0.7378	47216.24	3.0820	3.0820	-0.2161	8.66	2.67	-0.750			
0.7384	47257.09	3.0790	3.0790	-0.2142	8.67	2.68	-0.750			
0.7390	47298.29	3.0760	3.0761	-0.2150	8.68	2.69	-0.750			
0.7397	47340.13	3.0730	3.0728	-0.2136	8.69	2.70	-0.750			
0.7403	47381.45	3.0700	3.0701	-0.2118	8.70	2.71	-0.750			
0.7410	47421.97	3.0670	3.0671	-0.2096	8.71	2.72	-0.750			
0.7416	47461.95	3.0640	3.0640	-0.2069	8.72	2.73	-0.750			
0.7422	47501.69	3.0610	3.0609	-0.2063	8.73	2.74	-0.750			
0.7428	47540.17	3.0580	3.0580	-0.2034	8.74	2.75	-0.750			
0.7434	47578.90	3.0550	3.0550	-0.2031	8.75	2.76	-0.750			
0.7440	47618.20	3.0520	3.0519	-0.2023	8.76	2.77	-0.750			
0.7446	47657.19	3.0490	3.0491	-0.2020	8.77	2.78	-0.750			
0.7453	47696.07	3.0460	3.0460	-0.2014	8.78	2.79	-0.750			
0.7459	47734.57	3.0430	3.0431	-0.2009	8.79	2.80	-0.750			
0.7465	47773.02	3.0400	3.0399	-0.2001	8.80	2.81	-0.750			
0.7470	47811.14	3.0370	3.0370	-0.1992	8.81	2.82	-0.750			
0.7476	47849.59	3.0340	3.0340	-0.1980	8.82	2.83	-0.750			
0.7482	47887.42	3.0310	3.0310	-0.1966	8.83	2.84	-0.750			
0.7488	47925.36	3.0280	3.0281	-0.1963	8.84	2.85	-0.750			
0.7494	47962.87	3.0250	3.0249	-0.1945	8.85	2.86	-0.750			
0.7500	47999.72	3.0220	3.0220	-0.1944	8.86	2.87	-0.750			
0.7506	48036.90	3.0190	3.0189	-0.1928	8.87	2.88	-0.750			
0.7512	48073.85	3.0160	3.0160	-0.1922	8.88	2.89	-0.750			
0.7517	48110.68	3.0130	3.0130	-0.1920	8.89	2.90	-0.750			
0.7523	48147.67	3.0100	3.0100	-0.1917	8.90	2.91	-0.750			
0.7529	48184.44	3.0070	3.0068	-0.1910	8.91	2.92	-0.750			
0.7535	48220.97	3.0040	3.0040	-0.1906	8.92	2.93	-0.750			
0.7540	48257.74	3.0010	3.0010	-0.1977	8.93	2.94	-0.750			
