Ah_balance (normalized)	Ah_balance (mAh)	Voltage - fit (V)	Voltage -  interpolate (V)	dQ/dV (1/V)	Temperature (°C)	Temperature - diff (°C)	Current (C)	R_DC 0ms (mOhm)	R_DC 50ms (mOhm)	R_DC 50 ms PEC (mOhm)
0.0969	6199.84	4.1970	4.1989	0.6171	8.58	2.47	0.750			
0.0989	6330.49	4.1940	4.1962	0.7109	8.57	2.46	0.750			
0.1013	6484.32	4.1910	4.1924	0.7608	8.57	2.46	0.750			
0.1036	6627.79	4.1880	4.1894	0.7615	8.57	2.46	0.750			
0.1059	6776.20	4.1850	4.1860	0.7632	8.56	2.45	0.750			
0.1087	6955.00	4.1820	4.1821	0.7888	8.55	2.44	0.750			
0.1115	7133.77	4.1790	4.1781	0.7934	8.54	2.43	0.750			
0.1130	7230.16	4.1760	4.1761	0.7045	8.54	2.43	0.750			
0.1151	7364.25	4.1730	4.1730	0.7077	8.53	2.42	0.750			
0.1172	7499.28	4.1700	4.1700	0.7117	8.53	2.42	0.750			
0.1193	7637.05	4.1670	4.1668	0.7169	8.52	2.41	0.750			
0.1215	7773.22	4.1640	4.1640	0.7226	8.51	2.40	0.750			
0.1237	7915.82	4.1610	4.1610	0.7211	8.51	2.40	0.750			
0.1259	8055.28	4.1580	4.1580	0.7259	8.50	2.39	0.750			
0.1281	8195.73	4.1550	4.1550	0.7206	8.50	2.39	0.750			
0.1302	8331.68	4.1520	4.1522	0.7222	8.49	2.38	0.750			
0.1323	8469.34	4.1490	4.1489	0.7212	8.49	2.38	0.750			
0.1345	8607.73	4.1460	4.1460	0.7286	8.49	2.38	0.750			
0.1367	8747.66	4.1430	4.1429	0.7282	8.48	2.37	0.750			
0.1389	8888.21	4.1400	4.1401	0.7394	8.48	2.37	0.750			
0.1411	9030.82	4.1370	4.1372	0.7439	8.48	2.37	0.750			
0.1434	9176.77	4.1340	4.1339	0.7506	8.47	2.36	0.750			
0.1456	9320.35	4.1310	4.1310	0.7485	8.47	2.36	0.750			
0.1479	9464.35	4.1280	4.1281	0.7511	8.46	2.35	0.750			
0.1501	9607.43	4.1250	4.1251	0.7522	8.45	2.34	0.750			
0.1524	9752.67	4.1220	4.1219	0.7602	8.44	2.33	0.750			
0.1546	9895.80	4.1190	4.1190	0.7586	8.44	2.33	0.750			
0.1569	10043.00	4.1160	4.1161	0.7678	8.43	2.32	0.750			
0.1593	10192.54	4.1130	4.1130	0.7765	8.43	2.32	0.750			
0.1616	10343.15	4.1100	4.1101	0.7777	8.42	2.31	0.750			
0.1640	10493.72	4.1070	4.1069	0.7755	8.42	2.31	0.750			
0.1663	10643.37	4.1040	4.1041	0.7672	8.41	2.30	0.750			
0.1686	10789.21	4.1010	4.1010	0.7653	8.41	2.30	0.750			
0.1708	10933.17	4.0980	4.0980	0.7680	8.41	2.30	0.750			
0.1731	11081.19	4.0950	4.0950	0.7656	8.40	2.29	0.750			
0.1754	11225.77	4.0920	4.0919	0.7734	8.40	2.29	0.750			
0.1777	11375.96	4.0890	4.0891	0.7836	8.39	2.28	0.750			
0.1801	11528.50	4.0860	4.0859	0.7897	8.38	2.27	0.750			
0.1825	11682.31	4.0830	4.0830	0.7978	8.38	2.27	0.750			
0.1849	11835.92	4.0800	4.0800	0.7957	8.37	2.26	0.750			
0.1873	11988.21	4.0770	4.0771	0.7959	8.36	2.25	0.750			
0.1897	12143.26	4.0740	4.0739	0.7995	8.35	2.24	0.750			
0.1921	12293.90	4.0710	4.0711	0.7961	8.35	2.24	0.750			
0.1945	12445.93	4.0680	4.0679	0.8075	8.34	2.23	0.750			
0.1969	12600.94	4.0650	4.0651	0.8191	8.34	2.23	0.750			
0.1994	12759.51	4.0620	4.0619	0.8225	8.33	2.22	0.750			
0.2019	12920.57	4.0590	4.0591	0.8288	8.33	2.22	0.750			
0.2044	13080.41	4.0560	4.0561	0.8357	8.32	2.21	0.750			
0.2069	13242.53	4.0530	4.0526	0.8327	8.32	2.21	0.750			
0.2094	13403.97	4.0500	4.0501	0.8244	8.31	2.20	0.750			
0.2119	13558.46	4.0470	4.0470	0.8246	8.30	2.19	0.750			
0.2143	13716.54	4.0440	4.0440	0.8247	8.30	2.19	0.750			
0.2168	13873.01	4.0410	4.0410	0.8201	8.29	2.18	0.750			
0.2192	14031.25	4.0380	4.0377	0.8321	8.28	2.17	0.750			
0.2217	14191.93	4.0350	4.0353	0.8358	8.27	2.16	0.750			
0.2243	14354.65	4.0320	4.0319	0.8506	8.26	2.15	0.750			
0.2269	14518.83	4.0290	4.0290	0.8678	8.26	2.15	0.750			
0.2294	14683.65	4.0260	4.0260	0.8706	8.25	2.14	0.750			
0.2321	14855.73	4.0230	4.0228	0.8887	8.24	2.13	0.750			
0.2348	15029.80	4.0200	4.0201	0.8889	8.23	2.12	0.750			
0.2375	15201.67	4.0170	4.0170	0.8899	8.23	2.12	0.750			
0.2402	15373.97	4.0140	4.0140	0.8855	8.22	2.11	0.750			
0.2428	15539.95	4.0110	4.0112	0.8815	8.21	2.10	0.750			
0.2454	15707.47	4.0080	4.0080	0.8820	8.21	2.10	0.750			
0.2481	15877.96	4.0050	4.0050	0.8860	8.20	2.09	0.750			
0.2507	16046.77	4.0020	4.0020	0.8962	8.19	2.08	0.750			
0.2535	16223.08	3.9990	3.9990	0.9060	8.18	2.07	0.750			
0.2562	16396.49	3.9960	3.9960	0.9070	8.17	2.06	0.750			
0.2590	16574.56	3.9930	3.9929	0.9075	8.16	2.05	0.750			
0.2617	16747.19	3.9900	3.9901	0.9039	8.15	2.04	0.750			
0.2644	16919.33	3.9870	3.9869	0.9120	8.15	2.04	0.750			
0.2671	17095.13	3.9840	3.9840	0.9111	8.14	2.03	0.750			
0.2698	17267.41	3.9810	3.9809	0.9111	8.13	2.02	0.750			
0.2726	17445.83	3.9780	3.9782	0.9124	8.12	2.01	0.750			
0.2753	17621.17	3.9750	3.9750	0.9270	8.11	2.00	0.750			
0.2781	17800.44	3.9720	3.9720	0.9402	8.10	1.99	0.750			
0.2809	17980.70	3.9690	3.9689	0.9441	8.09	1.98	0.750			
0.2838	18164.57	3.9660	3.9661	0.9455	8.08	1.97	0.750			
0.2867	18350.53	3.9630	3.9632	0.9560	8.07	1.96	0.750			
0.2896	18534.12	3.9600	3.9600	0.9527	8.05	1.94	0.750			
0.2924	18715.59	3.9570	3.9572	0.9605	8.04	1.93	0.750			
0.2953	18897.92	3.9540	3.9540	0.9525	8.03	1.92	0.750			
0.2981	19078.97	3.9510	3.9511	0.9654	8.02	1.91	0.750			
0.3010	19264.83	3.9480	3.9479	0.9811	8.02	1.91	0.750			
0.3040	19454.26	3.9450	3.9451	1.0024	8.01	1.90	0.750			
0.3070	19650.44	3.9420	3.9419	1.0140	8.01	1.90	0.750			
0.3101	19848.01	3.9390	3.9390	1.0214	7.99	1.88	0.750			
0.3132	20046.24	3.9360	3.9362	1.0228	7.98	1.87	0.750			
0.3163	20245.32	3.9330	3.9330	1.0320	7.96	1.85	0.750			
0.3194	20439.44	3.9300	3.9297	1.0282	7.95	1.84	0.750			
0.3224	20635.41	3.9270	3.9271	1.0301	7.94	1.83	0.750			
0.3255	20831.67	3.9240	3.9240	1.0425	7.94	1.83	0.750			
0.3287	21036.08	3.9210	3.9211	1.0580	7.93	1.82	0.750			
0.3319	21243.29	3.9180	3.9176	1.0588	7.92	1.81	0.750			
0.3351	21444.40	3.9150	3.9151	1.0807	7.91	1.80	0.750			
0.3383	21652.15	3.9120	3.9122	1.0933	7.89	1.78	0.750			
0.3416	21863.88	3.9090	3.9090	1.1135	7.88	1.77	0.750			
0.3450	22079.00	3.9060	3.9059	1.1185	7.87	1.76	0.750			
0.3484	22296.01	3.9030	3.9031	1.1384	7.85	1.74	0.750			
0.3519	22520.84	3.9000	3.9001	1.1512	7.84	1.73	0.750			
0.3553	22742.01	3.8970	3.8969	1.1559	7.83	1.72	0.750			
0.3588	22960.62	3.8940	3.8941	1.1557	7.81	1.70	0.750			
0.3622	23183.28	3.8910	3.8912	1.1773	7.80	1.69	0.750			
0.3658	23409.08	3.8880	3.8879	1.1919	7.78	1.67	0.750			
0.3694	23643.50	3.8850	3.8848	1.2049	7.77	1.66	0.750			
0.3730	23871.46	3.8820	3.8821	1.2294	7.76	1.65	0.750			
0.3767	24111.82	3.8790	3.8790	1.2572	7.75	1.64	0.750			
0.3807	24361.70	3.8760	3.8758	1.2495	7.73	1.62	0.750			
0.3844	24600.66	3.8730	3.8731	1.2658	7.72	1.61	0.750	0.372	0.816	
0.3882	24843.75	3.8700	3.8702	1.2668	7.70	1.59	0.750			
0.3920	25087.11	3.8670	3.8668	1.2876	7.68	1.57	0.750			
0.3958	25328.95	3.8640	3.8641	1.3107	7.66	1.55	0.750			
0.3997	25580.51	3.8610	3.8611	1.3398	7.64	1.53	0.750			
0.4039	25848.28	3.8580	3.8579	1.3751	7.62	1.51	0.750			
0.4081	26118.87	3.8550	3.8550	1.4137	7.60	1.49	0.750			
0.4124	26391.47	3.8520	3.8521	1.4235	7.58	1.47	0.750			
0.4167	26671.60	3.8490	3.8493	1.4521	7.56	1.45	0.750			
0.4211	26950.24	3.8460	3.8461	1.4732	7.54	1.43	0.750			
0.4255	27233.12	3.8430	3.8427	1.4859	7.52	1.41	0.750			
0.4300	27522.12	3.8400	3.8400	1.4972	7.51	1.40	0.750			
0.4346	27811.65	3.8370	3.8371	1.5054	7.48	1.37	0.750			
0.4391	28104.81	3.8340	3.8340	1.5271	7.46	1.35	0.750			
0.4437	28399.06	3.8310	3.8308	1.5559	7.43	1.32	0.750			
0.4483	28693.13	3.8280	3.8280	1.5602	7.41	1.30	0.750			
0.4531	29000.10	3.8250	3.8251	1.5798	7.39	1.28	0.750			
0.4579	29304.45	3.8220	3.8222	1.6130	7.37	1.26	0.750			
0.4627	29614.81	3.8190	3.8189	1.6307	7.35	1.24	0.750			
0.4676	29928.13	3.8160	3.8160	1.6719	7.32	1.21	0.750			
0.4726	30246.98	3.8130	3.8128	1.7004	7.29	1.18	0.750			
0.4779	30583.37	3.8100	3.8100	1.7247	7.26	1.15	0.750			
0.4832	30924.40	3.8070	3.8070	1.7353	7.23	1.12	0.750			
0.4884	31259.49	3.8040	3.8040	1.7412	7.21	1.10	0.750			
0.4936	31592.14	3.8010	3.8010	1.7499	7.19	1.08	0.750			
0.4989	31930.81	3.7980	3.7979	1.7794	7.16	1.05	0.750			
0.5042	32267.64	3.7950	3.7949	1.7873	7.13	1.02	0.750			
0.5096	32615.62	3.7920	3.7923	1.8235	7.10	0.99	0.750			
0.5152	32974.30	3.7890	3.7890	1.8541	7.07	0.96	0.750			
0.5209	33336.38	3.7860	3.7858	1.8785	7.04	0.93	0.750			
0.5264	33690.52	3.7830	3.7832	1.9039	7.01	0.90	0.750			
0.5322	34061.18	3.7800	3.7803	1.9913	6.98	0.87	0.750			
0.5383	34449.14	3.7770	3.7769	2.0385	6.95	0.84	0.750			
0.5444	34842.78	3.7740	3.7739	2.0842	6.92	0.81	0.750			
0.5508	35253.67	3.7710	3.7712	2.1517	6.89	0.78	0.750			
0.5574	35674.15	3.7680	3.7677	2.2237	6.86	0.75	0.750			
0.5641	36101.09	3.7650	3.7650	2.3273	6.82	0.71	0.750			
0.5711	36551.56	3.7620	3.7620	2.4393	6.78	0.67	0.750			
0.5788	37040.52	3.7590	3.7593	2.5548	6.75	0.64	0.750			
0.5866	37543.18	3.7560	3.7560	2.6421	6.72	0.61	0.750			
0.5946	38056.07	3.7530	3.7529	2.7139	6.68	0.57	0.750			
0.6029	38583.02	3.7500	3.7499	2.8490	6.64	0.53	0.750			
0.6115	39134.34	3.7470	3.7470	3.0551	6.60	0.49	0.750			
0.6209	39740.12	3.7440	3.7440	3.1381	6.55	0.44	0.750			
0.6305	40354.87	3.7410	3.7409	3.1439	6.51	0.40	0.750			
0.6399	40955.36	3.7380	3.7381	2.9661	6.47	0.36	0.750			
0.6490	41535.84	3.7350	3.7350	2.8294	6.43	0.32	0.750			
0.6567	42030.26	3.7320	3.7319	2.4247	6.41	0.30	0.750			
0.6633	42452.09	3.7290	3.7290	2.1024	6.38	0.27	0.750			
0.6688	42806.16	3.7260	3.7259	1.8204	6.36	0.25	0.750			
0.6738	43122.82	3.7230	3.7231	1.6209	6.35	0.24	0.750			
0.6781	43401.51	3.7200	3.7200	1.4547	6.33	0.22	0.750			
0.6822	43658.76	3.7170	3.7169	1.3399	6.32	0.21	0.750			
0.6860	43904.63	3.7140	3.7140	1.2615	6.31	0.20	0.750			
0.6897	44139.27	3.7110	3.7112	1.2139	6.29	0.18	0.750			
0.6932	44366.99	3.7080	3.7080	1.1719	6.28	0.17	0.750			
0.6966	44582.80	3.7050	3.7049	1.1286	6.27	0.16	0.750			
0.6999	44793.96	3.7020	3.7020	1.1036	6.26	0.15	0.750			
0.7032	45005.34	3.6990	3.6991	1.0843	6.25	0.14	0.750			
0.7065	45213.04	3.6960	3.6959	1.0648	6.24	0.13	0.750			
0.7096	45415.47	3.6930	3.6931	1.0399	6.23	0.12	0.750			
0.7127	45611.78	3.6900	3.6900	1.0187	6.22	0.11	0.750			
0.7157	45804.81	3.6870	3.6870	0.9952	6.21	0.10	0.750			
0.7186	45992.48	3.6840	3.6839	0.9820	6.20	0.09	0.750			
0.7215	46178.44	3.6810	3.6811	0.9619	6.19	0.08	0.750			
0.7244	46361.50	3.6780	3.6780	0.9568	6.18	0.07	0.750			
0.7272	46542.23	3.6750	3.6750	0.9519	6.17	0.06	0.750			
0.7301	46725.04	3.6720	3.6720	0.9360	6.17	0.06	0.750			
0.7329	46906.12	3.6690	3.6689	0.9267	6.16	0.05	0.750			
0.7357	47082.95	3.6660	3.6661	0.9271	6.15	0.04	0.750			
0.7384	47257.53	3.6630	3.6630	0.9234	6.14	0.03	0.750			
0.7412	47434.10	3.6600	3.6599	0.9288	6.14	0.03	0.750			
0.7439	47609.25	3.6570	3.6569	0.9430	6.13	0.02	0.750			
0.7467	47791.04	3.6540	3.6540	0.9524	6.13	0.02	0.750			
0.7497	47982.56	3.6510	3.6509	0.9451	6.12	0.01	0.750			
0.7527	48172.67	3.6480	3.6480	0.9246	6.12	0.01	0.750			
0.7555	48353.70	3.6450	3.6451	0.8626	6.11	0.00	0.750			
0.7581	48519.01	3.6420	3.6419	0.7839	6.11	-0.00	0.750			
0.7604	48665.78	3.6390	3.6390	0.6826	6.10	-0.01	0.750			
0.7623	48784.97	3.6360	3.6361	0.5695	6.10	-0.01	0.750			
0.7638	48883.17	3.6330	3.6330	0.4643	6.10	-0.01	0.750			
0.7648	48946.74	3.6300	3.6305	0.3985	6.10	-0.01	0.750			
0.7658	49011.74	3.6270	3.6271	0.3079	6.10	-0.01	0.750			
0.7666	49061.46	3.6240	3.6236	0.2425	6.09	-0.02	0.750			
0.7671	49094.46	3.6210	3.6195	0.1769	6.09	-0.02	0.750			
0.7674	49113.69	3.5970	3.6035	-0.1069	6.09	-0.02	0.750			
0.7675	49121.16	3.6180	3.5157	0.1313	6.09	-0.02	0.747			
0.7676	49129.16	3.6150	3.3997	0.0800	6.09	-0.02	0.741			
0.7677	49131.22	3.6000	3.3697	-0.0757	6.09	-0.02	0.740			
0.7678	49141.53	3.6120	3.2200	0.0489	6.09	-0.02	0.733			
0.7679	49142.77	3.6030	3.2020	-0.0446	6.09	-0.02	0.732			
0.7679	49147.92	3.6090	3.1271	0.0177	6.09	-0.02	0.728			
0.7679	49148.34	3.6060	3.1212	-0.0134	6.09	-0.02	0.728			
