Ah_balance (normalized)	Ah_balance (mAh)	Voltage - fit (V)	Voltage -  interpolate (V)	dQ/dV (1/V)	Temperature (°C)	Temperature - diff (°C)	Current (C)	R_DC 0ms (mOhm)	R_DC 50ms (mOhm)	R_DC 50 ms PEC (mOhm)
0.0933	5972.53	4.1970	4.1997	0.9040	8.15	2.16	0.750			
0.0961	6151.75	4.1940	4.1957	0.9113	8.14	2.15	0.750			
0.0988	6325.90	4.1910	4.1918	0.8702	8.13	2.14	0.750			
0.1014	6488.98	4.1880	4.1884	0.8199	8.12	2.13	0.750			
0.1041	6659.63	4.1850	4.1846	0.8310	8.11	2.12	0.750			
0.1059	6778.38	4.1820	4.1820	0.7125	8.11	2.12	0.750			
0.1080	6913.18	4.1790	4.1791	0.7113	8.10	2.11	0.750			
0.1102	7052.23	4.1760	4.1759	0.7084	8.09	2.10	0.750			
0.1123	7187.62	4.1730	4.1731	0.7189	8.09	2.10	0.750			
0.1145	7325.96	4.1700	4.1699	0.7216	8.08	2.09	0.750			
0.1167	7467.44	4.1670	4.1670	0.7234	8.07	2.08	0.750			
0.1188	7606.06	4.1640	4.1642	0.7190	8.07	2.08	0.750			
0.1210	7744.42	4.1610	4.1612	0.7157	8.06	2.07	0.750			
0.1231	7881.25	4.1580	4.1579	0.7155	8.06	2.07	0.750			
0.1253	8016.84	4.1550	4.1549	0.7169	8.05	2.06	0.750			
0.1273	8150.13	4.1520	4.1520	0.7208	8.05	2.06	0.750			
0.1295	8288.81	4.1490	4.1490	0.7337	8.04	2.05	0.750			
0.1318	8432.82	4.1460	4.1459	0.7501	8.03	2.04	0.750			
0.1341	8579.36	4.1430	4.1430	0.7552	8.03	2.04	0.750			
0.1364	8727.54	4.1400	4.1400	0.7599	8.02	2.03	0.750			
0.1387	8873.86	4.1370	4.1370	0.7583	8.01	2.02	0.750			
0.1409	9019.33	4.1340	4.1341	0.7540	8.00	2.01	0.750			
0.1432	9162.64	4.1310	4.1310	0.7518	8.00	2.01	0.750			
0.1454	9305.61	4.1280	4.1280	0.7506	8.00	2.01	0.750			
0.1477	9450.36	4.1250	4.1250	0.7493	7.99	2.00	0.750			
0.1499	9594.60	4.1220	4.1220	0.7510	7.99	2.00	0.750			
0.1522	9737.81	4.1190	4.1191	0.7594	7.98	1.99	0.750			
0.1544	9884.45	4.1160	4.1159	0.7649	7.98	1.99	0.750			
0.1567	10031.16	4.1130	4.1129	0.7714	7.97	1.98	0.750			
0.1591	10181.60	4.1100	4.1100	0.7724	7.97	1.98	0.750			
0.1614	10331.10	4.1070	4.1071	0.7797	7.96	1.97	0.750			
0.1638	10481.59	4.1040	4.1040	0.7856	7.95	1.96	0.750			
0.1661	10632.37	4.1010	4.1010	0.7843	7.94	1.95	0.750			
0.1685	10782.04	4.0980	4.0979	0.7822	7.94	1.95	0.750			
0.1708	10933.93	4.0950	4.0950	0.7836	7.93	1.94	0.750			
0.1732	11083.44	4.0920	4.0921	0.7833	7.93	1.94	0.750			
0.1755	11233.65	4.0890	4.0890	0.7950	7.92	1.93	0.750			
0.1779	11385.68	4.0860	4.0860	0.7908	7.91	1.92	0.750			
0.1803	11537.89	4.0830	4.0829	0.7894	7.91	1.92	0.750			
0.1827	11690.49	4.0800	4.0801	0.7939	7.90	1.91	0.750			
0.1850	11842.73	4.0770	4.0773	0.7994	7.90	1.91	0.750			
0.1874	11995.73	4.0740	4.0739	0.8048	7.89	1.90	0.750			
0.1898	12148.36	4.0710	4.0710	0.8097	7.89	1.90	0.750			
0.1923	12305.19	4.0680	4.0677	0.8144	7.88	1.89	0.750			
0.1948	12464.90	4.0650	4.0651	0.8283	7.87	1.88	0.750			
0.1973	12624.91	4.0620	4.0621	0.8316	7.87	1.88	0.750			
0.1998	12785.07	4.0590	4.0590	0.8386	7.86	1.87	0.750			
0.2023	12945.61	4.0560	4.0559	0.8340	7.86	1.87	0.750			
0.2048	13107.16	4.0530	4.0530	0.8395	7.85	1.86	0.750			
0.2073	13268.49	4.0500	4.0501	0.8456	7.84	1.85	0.750			
0.2099	13432.05	4.0470	4.0469	0.8423	7.84	1.85	0.750			
0.2124	13593.47	4.0440	4.0441	0.8411	7.83	1.84	0.750			
0.2149	13754.26	4.0410	4.0410	0.8422	7.83	1.84	0.750			
0.2174	13914.17	4.0380	4.0376	0.8443	7.82	1.83	0.750			
0.2200	14079.34	4.0350	4.0350	0.8447	7.81	1.82	0.750			
0.2225	14239.24	4.0320	4.0320	0.8469	7.81	1.82	0.750			
0.2250	14402.92	4.0290	4.0290	0.8507	7.80	1.81	0.750			
0.2276	14565.77	4.0260	4.0261	0.8517	7.80	1.81	0.750			
0.2302	14730.88	4.0230	4.0228	0.8552	7.79	1.80	0.750			
0.2328	14896.99	4.0200	4.0201	0.8535	7.78	1.79	0.750			
0.2353	15058.73	4.0170	4.0169	0.8613	7.78	1.79	0.750			
0.2379	15225.61	4.0140	4.0142	0.8742	7.77	1.78	0.750			
0.2405	15392.85	4.0110	4.0110	0.8819	7.76	1.77	0.750			
0.2432	15563.84	4.0080	4.0078	0.8925	7.76	1.77	0.750			
0.2459	15738.35	4.0050	4.0051	0.8918	7.75	1.76	0.750			
0.2486	15912.10	4.0020	4.0020	0.8955	7.75	1.76	0.750			
0.2513	16083.80	3.9990	3.9991	0.8890	7.74	1.75	0.750			
0.2539	16249.09	3.9960	3.9960	0.8890	7.73	1.74	0.750			
0.2566	16420.08	3.9930	3.9930	0.8995	7.73	1.74	0.750			
0.2593	16593.59	3.9900	3.9899	0.8960	7.72	1.73	0.750			
0.2620	16766.58	3.9870	3.9869	0.9051	7.71	1.72	0.750			
0.2648	16944.66	3.9840	3.9842	0.9174	7.71	1.72	0.750			
0.2675	17119.96	3.9810	3.9810	0.9176	7.70	1.71	0.750			
0.2703	17299.26	3.9780	3.9779	0.9040	7.69	1.70	0.750			
0.2730	17469.85	3.9750	3.9751	0.9028	7.69	1.70	0.750			
0.2756	17638.72	3.9720	3.9722	0.9155	7.68	1.69	0.750			
0.2784	17816.25	3.9690	3.9688	0.9222	7.67	1.68	0.750			
0.2811	17991.80	3.9660	3.9661	0.9304	7.67	1.68	0.750			
0.2839	18172.20	3.9630	3.9631	0.9443	7.66	1.67	0.750			
0.2869	18358.62	3.9600	3.9601	0.9478	7.65	1.66	0.750			
0.2898	18544.02	3.9570	3.9570	0.9526	7.64	1.65	0.750			
0.2926	18724.19	3.9540	3.9541	0.9558	7.63	1.64	0.750			
0.2954	18906.92	3.9510	3.9508	0.9542	7.62	1.63	0.750			
0.2983	19091.71	3.9480	3.9479	0.9633	7.62	1.63	0.750			
0.3012	19274.68	3.9450	3.9452	0.9678	7.61	1.62	0.750			
0.3041	19463.23	3.9420	3.9419	0.9843	7.60	1.61	0.750			
0.3071	19653.89	3.9390	3.9389	0.9963	7.59	1.60	0.750			
0.3100	19842.93	3.9360	3.9360	1.0008	7.59	1.60	0.750			
0.3130	20034.92	3.9330	3.9331	1.0181	7.58	1.59	0.750			
0.3162	20236.77	3.9300	3.9299	1.0263	7.57	1.58	0.750			
0.3193	20435.03	3.9270	3.9269	1.0237	7.57	1.58	0.750			
0.3224	20631.49	3.9240	3.9241	1.0301	7.56	1.57	0.750			
0.3254	20828.20	3.9210	3.9210	1.0364	7.55	1.56	0.750			
0.3286	21028.55	3.9180	3.9179	1.0395	7.54	1.55	0.750			
0.3317	21229.90	3.9150	3.9151	1.0376	7.53	1.54	0.750			
0.3348	21425.82	3.9120	3.9120	1.0508	7.52	1.53	0.750			
0.3380	21629.64	3.9090	3.9090	1.0724	7.51	1.52	0.750			
0.3412	21835.17	3.9060	3.9059	1.0867	7.50	1.51	0.750			
0.3444	22044.34	3.9030	3.9031	1.0946	7.49	1.50	0.750			
0.3478	22257.74	3.9000	3.9000	1.1091	7.48	1.49	0.750			
0.3511	22472.91	3.8970	3.8971	1.1302	7.47	1.48	0.750			
0.3546	22695.08	3.8940	3.8939	1.1368	7.46	1.47	0.750			
0.3580	22912.75	3.8910	3.8909	1.1376	7.45	1.46	0.750			
0.3614	23128.44	3.8880	3.8881	1.1560	7.44	1.45	0.750			
0.3649	23351.52	3.8850	3.8852	1.1686	7.43	1.44	0.750			
0.3684	23578.59	3.8820	3.8818	1.1778	7.42	1.43	0.750			
0.3719	23803.54	3.8790	3.8789	1.1936	7.41	1.42	0.750			
0.3755	24029.78	3.8760	3.8763	1.2141	7.40	1.41	0.750			
0.3792	24270.03	3.8730	3.8728	1.2343	7.39	1.40	0.750			
0.3830	24510.49	3.8700	3.8700	1.2599	7.38	1.39	0.750			
0.3869	24758.88	3.8670	3.8670	1.2566	7.37	1.38	0.750			
0.3907	25003.67	3.8640	3.8640	1.2823	7.36	1.37	0.750			
0.3945	25245.40	3.8610	3.8612	1.3118	7.34	1.35	0.750			
0.3983	25494.22	3.8580	3.8581	1.3196	7.33	1.34	0.750			
0.4024	25751.89	3.8550	3.8551	1.3366	7.31	1.32	0.750	0.407	0.916	
0.4064	26011.36	3.8520	3.8522	1.3698	7.30	1.31	0.750			
0.4106	26278.86	3.8490	3.8492	1.3898	7.28	1.29	0.750			
0.4148	26548.06	3.8460	3.8461	1.4228	7.27	1.28	0.750			
0.4191	26823.52	3.8430	3.8429	1.4475	7.25	1.26	0.750			
0.4235	27101.09	3.8400	3.8401	1.4819	7.24	1.25	0.750			
0.4281	27395.43	3.8370	3.8368	1.5202	7.22	1.23	0.750			
0.4326	27687.59	3.8340	3.8342	1.5623	7.20	1.21	0.750			
0.4373	27989.66	3.8310	3.8308	1.5877	7.18	1.19	0.750			
0.4422	28302.99	3.8280	3.8278	1.6188	7.16	1.17	0.750			
0.4472	28619.06	3.8250	3.8249	1.6215	7.14	1.15	0.750			
0.4521	28933.41	3.8220	3.8222	1.6557	7.13	1.14	0.750			
0.4571	29253.43	3.8190	3.8190	1.6599	7.11	1.12	0.750			
0.4621	29572.80	3.8160	3.8160	1.6985	7.10	1.11	0.750			
0.4671	29892.25	3.8130	3.8131	1.7361	7.08	1.09	0.750			
0.4724	30232.65	3.8100	3.8101	1.7877	7.06	1.07	0.750			
0.4779	30584.51	3.8070	3.8071	1.8271	7.04	1.05	0.750			
0.4835	30945.24	3.8040	3.8044	1.8569	7.01	1.02	0.750			
0.4890	31297.46	3.8010	3.8013	1.8634	6.99	1.00	0.750			
0.4947	31661.71	3.7980	3.7979	1.8937	6.96	0.97	0.750			
0.5003	32020.33	3.7950	3.7950	1.9344	6.94	0.95	0.750			
0.5061	32392.17	3.7920	3.7919	1.9873	6.92	0.93	0.750			
0.5122	32783.41	3.7890	3.7889	2.0474	6.89	0.90	0.750			
0.5184	33180.15	3.7860	3.7862	2.0936	6.87	0.88	0.750			
0.5248	33588.02	3.7830	3.7829	2.1230	6.84	0.85	0.750			
0.5312	33997.41	3.7800	3.7800	2.1520	6.81	0.82	0.750			
0.5377	34410.01	3.7770	3.7772	2.1916	6.78	0.79	0.750			
0.5443	34837.44	3.7740	3.7739	2.2319	6.75	0.76	0.750			
0.5511	35271.36	3.7710	3.7708	2.2678	6.73	0.74	0.750			
0.5580	35711.01	3.7680	3.7679	2.2855	6.71	0.72	0.750			
0.5648	36146.80	3.7650	3.7650	2.3353	6.68	0.69	0.750			
0.5718	36594.65	3.7620	3.7618	2.3881	6.65	0.66	0.750			
0.5790	37058.53	3.7590	3.7590	2.4064	6.61	0.62	0.750			
0.5863	37523.61	3.7560	3.7561	2.4775	6.59	0.60	0.750			
0.5939	38008.69	3.7530	3.7529	2.5788	6.56	0.57	0.750			
0.6015	38496.68	3.7500	3.7500	2.6790	6.52	0.53	0.750			
0.6100	39037.19	3.7470	3.7470	2.8275	6.48	0.49	0.750			
0.6187	39594.82	3.7440	3.7440	2.8651	6.45	0.46	0.750			
0.6273	40147.73	3.7410	3.7410	3.0052	6.42	0.43	0.750			
0.6365	40733.87	3.7380	3.7377	3.1601	6.39	0.40	0.750			
0.6463	41363.22	3.7350	3.7350	3.3588	6.36	0.37	0.750			
0.6566	42020.43	3.7320	3.7322	3.2319	6.32	0.33	0.750			
0.6663	42640.18	3.7290	3.7288	3.1084	6.28	0.29	0.750			
0.6751	43206.90	3.7260	3.7261	2.7973	6.26	0.27	0.750			
0.6834	43736.23	3.7230	3.7231	2.6038	6.23	0.24	0.750			
0.6907	44205.66	3.7200	3.7200	2.3160	6.21	0.22	0.750			
0.6971	44616.31	3.7170	3.7171	2.0498	6.19	0.20	0.750			
0.7029	44985.78	3.7140	3.7142	1.8320	6.18	0.19	0.750			
0.7080	45311.51	3.7110	3.7111	1.6403	6.17	0.18	0.750			
0.7124	45595.48	3.7080	3.7079	1.4679	6.16	0.17	0.750			
0.7165	45854.29	3.7050	3.7049	1.3473	6.15	0.16	0.750			
0.7201	46089.12	3.7020	3.7019	1.2326	6.14	0.15	0.750			
0.7237	46316.04	3.6990	3.6989	1.1811	6.13	0.14	0.750			
0.7271	46531.59	3.6960	3.6961	1.1262	6.12	0.13	0.750			
0.7304	46743.48	3.6930	3.6928	1.0941	6.11	0.12	0.750			
0.7336	46949.21	3.6900	3.6901	1.0871	6.10	0.11	0.750			
0.7367	47150.15	3.6870	3.6870	1.0706	6.09	0.10	0.750			
0.7400	47357.90	3.6840	3.6838	1.0679	6.09	0.10	0.750			
0.7432	47567.52	3.6810	3.6811	1.0459	6.08	0.09	0.750			
0.7464	47767.43	3.6780	3.6781	1.0289	6.07	0.08	0.750			
0.7495	47968.61	3.6750	3.6752	1.0104	6.06	0.07	0.750			
0.7525	48159.47	3.6720	3.6720	0.9751	6.06	0.07	0.750			
0.7553	48338.09	3.6690	3.6688	0.9424	6.05	0.06	0.750			
0.7581	48517.18	3.6660	3.6661	0.9182	6.04	0.05	0.750			
0.7608	48688.07	3.6630	3.6630	0.9096	6.04	0.05	0.750			
0.7634	48860.71	3.6600	3.6601	0.9047	6.04	0.05	0.750			
0.7661	49030.72	3.6570	3.6569	0.8947	6.03	0.04	0.750			
0.7688	49202.96	3.6540	3.6539	0.9015	6.03	0.04	0.750			
0.7715	49376.30	3.6510	3.6512	0.9041	6.02	0.03	0.750			
0.7742	49548.34	3.6480	3.6480	0.9147	6.02	0.03	0.750			
0.7770	49726.86	3.6450	3.6450	0.9296	6.01	0.02	0.750			
0.7798	49905.53	3.6420	3.6418	0.9316	6.01	0.02	0.750			
0.7826	50087.88	3.6390	3.6389	0.9314	6.01	0.02	0.750			
0.7855	50270.81	3.6360	3.6361	0.9160	6.00	0.01	0.750			
0.7883	50453.95	3.6330	3.6330	0.8745	6.00	0.01	0.750			
0.7910	50624.34	3.6300	3.6301	0.8114	5.99	0.00	0.750			
0.7934	50776.53	3.6270	3.6270	0.7169	5.99	-0.00	0.750			
0.7954	50908.07	3.6240	3.6241	0.6172	5.99	-0.00	0.750			
0.7971	51014.23	3.6210	3.6210	0.5142	5.98	-0.01	0.750			
0.7983	51088.82	3.6180	3.6184	0.4313	5.98	-0.01	0.750			
0.7994	51160.96	3.6150	3.6152	0.3365	5.98	-0.01	0.750			
0.8003	51216.33	3.6120	3.6119	0.2627	5.98	-0.01	0.750			
0.8009	51255.87	3.6090	3.6085	0.1927	5.98	-0.01	0.750			
0.8013	51285.03	3.6060	3.6038	0.1360	5.98	-0.01	0.750			
0.8015	51294.27	3.5910	3.5960	-0.0847	5.98	-0.01	0.750			
0.8016	51301.31	3.6030	3.5382	0.0828	5.98	-0.01	0.753			
0.8017	51306.62	3.5940	3.4835	-0.0440	5.98	-0.01	0.758			
0.8017	51307.88	3.6000	3.4706	0.0374	5.98	-0.01	0.759			
0.8017	51311.16	3.5970	3.4368	-0.0033	5.98	-0.01	0.761			
