Ah_balance (normalized)	Ah_balance (mAh)	Voltage - fit (V)	Voltage -  interpolate (V)	dQ/dV (1/V)	Temperature (°C)	Temperature - diff (°C)	Current (C)	R_DC 0ms (mOhm)	R_DC 50ms (mOhm)	R_DC 50 ms PEC (mOhm)
0.0969	6203.68	4.1980	4.1997	0.7993	8.70	2.43	0.750			
0.0987	6318.93	4.1950	4.1970	0.6341	8.70	2.43	0.750			
0.1008	6451.44	4.1920	4.1941	0.7233	8.69	2.42	0.750			
0.1032	6606.17	4.1890	4.1906	0.7657	8.68	2.41	0.750			
0.1054	6747.49	4.1860	4.1874	0.7518	8.68	2.41	0.750			
0.1080	6909.96	4.1830	4.1839	0.7697	8.67	2.40	0.750			
0.1109	7097.97	4.1800	4.1798	0.8034	8.66	2.39	0.750			
0.1129	7226.79	4.1770	4.1770	0.7086	8.65	2.38	0.750			
0.1150	7361.61	4.1740	4.1740	0.7033	8.65	2.38	0.750			
0.1171	7494.77	4.1710	4.1709	0.6980	8.64	2.37	0.750			
0.1192	7630.02	4.1680	4.1681	0.6990	8.64	2.37	0.750			
0.1213	7762.35	4.1650	4.1650	0.7031	8.63	2.36	0.750			
0.1234	7897.66	4.1620	4.1620	0.7110	8.63	2.36	0.750			
0.1255	8034.31	4.1590	4.1589	0.7137	8.63	2.36	0.750			
0.1277	8172.36	4.1560	4.1561	0.7184	8.62	2.35	0.750			
0.1299	8311.89	4.1530	4.1530	0.7248	8.62	2.35	0.750			
0.1321	8453.19	4.1500	4.1500	0.7218	8.61	2.34	0.750			
0.1343	8593.00	4.1470	4.1469	0.7167	8.61	2.34	0.750			
0.1364	8727.49	4.1440	4.1441	0.7172	8.60	2.33	0.750			
0.1385	8863.12	4.1410	4.1411	0.7236	8.60	2.33	0.750			
0.1407	9002.88	4.1380	4.1378	0.7291	8.59	2.32	0.750			
0.1429	9143.25	4.1350	4.1351	0.7382	8.59	2.32	0.750			
0.1451	9286.48	4.1320	4.1320	0.7452	8.58	2.31	0.750			
0.1474	9432.08	4.1290	4.1291	0.7517	8.58	2.31	0.750			
0.1496	9577.31	4.1260	4.1261	0.7562	8.57	2.30	0.750			
0.1519	9721.61	4.1230	4.1230	0.7539	8.57	2.30	0.750			
0.1542	9866.12	4.1200	4.1197	0.7585	8.56	2.29	0.750			
0.1564	10011.43	4.1170	4.1171	0.7656	8.55	2.28	0.750			
0.1587	10159.75	4.1140	4.1140	0.7628	8.55	2.28	0.750			
0.1611	10308.52	4.1110	4.1109	0.7699	8.54	2.27	0.750			
0.1634	10456.29	4.1080	4.1080	0.7686	8.53	2.26	0.750			
0.1657	10603.11	4.1050	4.1052	0.7652	8.52	2.25	0.750			
0.1680	10750.21	4.1020	4.1020	0.7657	8.52	2.25	0.750			
0.1702	10895.65	4.0990	4.0991	0.7627	8.51	2.24	0.750			
0.1725	11042.53	4.0960	4.0960	0.7627	8.51	2.24	0.750			
0.1748	11188.62	4.0930	4.0930	0.7737	8.50	2.23	0.750			
0.1771	11336.05	4.0900	4.0900	0.7721	8.50	2.23	0.750			
0.1795	11485.32	4.0870	4.0870	0.7749	8.49	2.22	0.750			
0.1818	11633.82	4.0840	4.0839	0.7840	8.48	2.21	0.750			
0.1841	11783.40	4.0810	4.0813	0.7942	8.48	2.21	0.750			
0.1865	11938.48	4.0780	4.0779	0.8007	8.47	2.20	0.750			
0.1890	12093.37	4.0750	4.0749	0.8104	8.47	2.20	0.750			
0.1914	12249.59	4.0720	4.0720	0.8132	8.46	2.19	0.750			
0.1939	12408.44	4.0690	4.0691	0.8213	8.45	2.18	0.750			
0.1964	12567.33	4.0660	4.0659	0.8158	8.45	2.18	0.750			
0.1988	12721.26	4.0630	4.0631	0.8165	8.44	2.17	0.750			
0.2012	12877.39	4.0600	4.0601	0.8149	8.43	2.16	0.750			
0.2037	13036.22	4.0570	4.0569	0.8220	8.42	2.15	0.750			
0.2061	13192.74	4.0540	4.0541	0.8200	8.42	2.15	0.750			
0.2086	13352.58	4.0510	4.0510	0.8164	8.41	2.14	0.750			
0.2110	13506.10	4.0480	4.0481	0.8256	8.40	2.13	0.750			
0.2135	13665.00	4.0450	4.0451	0.8312	8.40	2.13	0.750			
0.2160	13822.87	4.0420	4.0419	0.8338	8.39	2.12	0.750			
0.2185	13983.90	4.0390	4.0390	0.8480	8.38	2.11	0.750			
0.2211	14149.24	4.0360	4.0363	0.8495	8.37	2.10	0.750			
0.2236	14313.20	4.0330	4.0330	0.8572	8.36	2.09	0.750			
0.2262	14479.31	4.0300	4.0301	0.8622	8.35	2.08	0.750			
0.2288	14643.83	4.0270	4.0269	0.8631	8.34	2.07	0.750			
0.2314	14810.47	4.0240	4.0239	0.8722	8.34	2.07	0.750			
0.2341	14979.53	4.0210	4.0211	0.8690	8.33	2.06	0.750			
0.2367	15146.70	4.0180	4.0180	0.8703	8.32	2.05	0.750			
0.2393	15314.66	4.0150	4.0151	0.8694	8.32	2.05	0.750			
0.2419	15480.65	4.0120	4.0116	0.8703	8.31	2.04	0.750			
0.2445	15646.56	4.0090	4.0090	0.8681	8.30	2.03	0.750			
0.2471	15813.27	4.0060	4.0061	0.8756	8.29	2.02	0.750			
0.2497	15980.22	4.0030	4.0030	0.8836	8.28	2.01	0.750			
0.2524	16152.06	4.0000	3.9999	0.8933	8.27	2.00	0.750			
0.2550	16322.98	3.9970	3.9970	0.8984	8.26	1.99	0.750			
0.2578	16496.94	3.9940	3.9939	0.9052	8.25	1.98	0.750			
0.2605	16672.62	3.9910	3.9910	0.9113	8.25	1.98	0.750			
0.2633	16848.28	3.9880	3.9880	0.9201	8.24	1.97	0.750			
0.2660	17024.38	3.9850	3.9850	0.9205	8.23	1.96	0.750			
0.2688	17203.13	3.9820	3.9820	0.9203	8.22	1.95	0.750			
0.2716	17379.49	3.9790	3.9790	0.9284	8.21	1.94	0.750			
0.2743	17558.24	3.9760	3.9761	0.9318	8.20	1.93	0.750			
0.2771	17737.29	3.9730	3.9730	0.9383	8.19	1.92	0.750			
0.2800	17918.00	3.9700	3.9699	0.9406	8.18	1.91	0.750			
0.2828	18098.65	3.9670	3.9671	0.9408	8.17	1.90	0.750			
0.2856	18279.95	3.9640	3.9641	0.9494	8.16	1.89	0.750			
0.2885	18462.71	3.9610	3.9610	0.9525	8.15	1.88	0.750			
0.2913	18643.88	3.9580	3.9579	0.9623	8.14	1.87	0.750			
0.2942	18830.31	3.9550	3.9550	0.9688	8.13	1.86	0.750			
0.2971	19016.69	3.9520	3.9520	0.9763	8.12	1.85	0.750			
0.3001	19207.95	3.9490	3.9491	0.9841	8.11	1.84	0.750			
0.3031	19396.58	3.9460	3.9461	0.9870	8.10	1.83	0.750			
0.3061	19587.96	3.9430	3.9430	0.9843	8.08	1.81	0.750			
0.3090	19774.49	3.9400	3.9401	0.9940	8.08	1.81	0.750			
0.3119	19962.63	3.9370	3.9370	1.0058	8.07	1.80	0.750			
0.3150	20157.51	3.9340	3.9341	1.0244	8.06	1.79	0.750			
0.3181	20355.45	3.9310	3.9308	1.0338	8.05	1.78	0.750			
0.3212	20556.61	3.9280	3.9282	1.0493	8.03	1.76	0.750			
0.3244	20762.33	3.9250	3.9251	1.0571	8.02	1.75	0.750			
0.3276	20966.96	3.9220	3.9220	1.0656	8.01	1.74	0.750			
0.3308	21171.87	3.9190	3.9190	1.0658	7.99	1.72	0.750			
0.3340	21373.32	3.9160	3.9160	1.0750	7.98	1.71	0.750			
0.3372	21580.97	3.9130	3.9129	1.0877	7.97	1.70	0.750			
0.3405	21791.99	3.9100	3.9100	1.1019	7.96	1.69	0.750			
0.3438	22004.07	3.9070	3.9071	1.1112	7.94	1.67	0.750			
0.3472	22221.94	3.9040	3.9039	1.1255	7.93	1.66	0.750			
0.3506	22438.37	3.9010	3.9010	1.1288	7.91	1.64	0.750			
0.3540	22656.24	3.8980	3.8979	1.1315	7.90	1.63	0.750			
0.3574	22870.62	3.8950	3.8951	1.1546	7.89	1.62	0.750			
0.3608	23092.25	3.8920	3.8920	1.1774	7.87	1.60	0.750			
0.3644	23321.37	3.8890	3.8889	1.1842	7.86	1.59	0.750			
0.3680	23549.62	3.8860	3.8861	1.2023	7.85	1.58	0.750			
0.3716	23782.43	3.8830	3.8832	1.2240	7.83	1.56	0.750			
0.3753	24021.24	3.8800	3.8802	1.2411	7.82	1.55	0.750	0.375	0.789	
0.3791	24261.80	3.8770	3.8767	1.2443	7.80	1.53	0.750			
0.3827	24495.25	3.8740	3.8742	1.2556	7.79	1.52	0.750			
0.3866	24740.16	3.8710	3.8710	1.2823	7.78	1.51	0.750			
0.3905	24989.89	3.8680	3.8679	1.3042	7.76	1.49	0.750			
0.3944	25242.81	3.8650	3.8650	1.3250	7.75	1.48	0.750			
0.3984	25498.65	3.8620	3.8620	1.3410	7.73	1.46	0.750			
0.4025	25762.59	3.8590	3.8590	1.3498	7.71	1.44	0.750			
0.4066	26022.68	3.8560	3.8560	1.3807	7.69	1.42	0.750			
0.4107	26285.28	3.8530	3.8530	1.3928	7.67	1.40	0.750			
0.4150	26557.49	3.8500	3.8499	1.4030	7.65	1.38	0.750			
0.4192	26830.27	3.8470	3.8471	1.4069	7.63	1.36	0.750			
0.4234	27099.64	3.8440	3.8441	1.4288	7.61	1.34	0.750			
0.4277	27375.80	3.8410	3.8410	1.4445	7.60	1.33	0.750			
0.4321	27655.24	3.8380	3.8378	1.4605	7.58	1.31	0.750			
0.4365	27935.56	3.8350	3.8351	1.4490	7.56	1.29	0.750			
0.4409	28217.62	3.8320	3.8319	1.4709	7.53	1.26	0.750			
0.4453	28501.96	3.8290	3.8293	1.5116	7.51	1.24	0.750			
0.4499	28795.82	3.8260	3.8257	1.5300	7.49	1.22	0.750			
0.4545	29090.92	3.8230	3.8230	1.5356	7.47	1.20	0.750			
0.4592	29387.76	3.8200	3.8203	1.5481	7.45	1.18	0.750			
0.4638	29686.30	3.8170	3.8173	1.5875	7.42	1.15	0.750			
0.4687	29999.22	3.8140	3.8139	1.6101	7.40	1.13	0.750			
0.4735	30304.97	3.8110	3.8110	1.6239	7.38	1.11	0.750			
0.4784	30617.50	3.8080	3.8081	1.6396	7.35	1.08	0.750			
0.4833	30933.97	3.8050	3.8051	1.6694	7.33	1.06	0.750			
0.4885	31263.32	3.8020	3.8021	1.6977	7.31	1.04	0.750			
0.4936	31588.34	3.7990	3.7990	1.6968	7.28	1.01	0.750			
0.4986	31908.72	3.7960	3.7959	1.7169	7.25	0.98	0.750			
0.5038	32243.71	3.7930	3.7929	1.7525	7.22	0.95	0.750			
0.5091	32583.89	3.7900	3.7900	1.7639	7.20	0.93	0.750			
0.5144	32924.02	3.7870	3.7870	1.7885	7.17	0.90	0.750			
0.5198	33266.46	3.7840	3.7839	1.8496	7.15	0.88	0.750			
0.5254	33622.79	3.7810	3.7809	1.8955	7.12	0.85	0.750			
0.5311	33992.78	3.7780	3.7779	1.9598	7.09	0.82	0.750			
0.5371	34376.80	3.7750	3.7752	2.0639	7.06	0.79	0.750			
0.5434	34777.46	3.7720	3.7720	2.1451	7.03	0.76	0.750			
0.5501	35204.15	3.7690	3.7689	2.1931	6.99	0.72	0.750			
0.5567	35628.91	3.7660	3.7661	2.2583	6.96	0.69	0.750			
0.5636	36073.57	3.7630	3.7630	2.3423	6.93	0.66	0.750			
0.5706	36520.70	3.7600	3.7599	2.4624	6.90	0.63	0.750			
0.5781	37000.89	3.7570	3.7569	2.6123	6.87	0.60	0.750			
0.5863	37521.97	3.7540	3.7540	2.7886	6.83	0.56	0.750			
0.5950	38079.32	3.7510	3.7512	2.9373	6.80	0.53	0.750			
0.6040	38653.09	3.7480	3.7480	2.9880	6.76	0.49	0.750			
0.6130	39234.94	3.7450	3.7451	3.0022	6.72	0.45	0.750			
0.6222	39818.30	3.7420	3.7420	2.9740	6.67	0.40	0.750			
0.6313	40400.95	3.7390	3.7389	2.8763	6.63	0.36	0.750			
0.6398	40948.25	3.7360	3.7359	2.5927	6.60	0.33	0.750			
0.6469	41402.28	3.7330	3.7332	2.2829	6.57	0.30	0.750			
0.6529	41787.24	3.7300	3.7300	1.9367	6.55	0.28	0.750			
0.6584	42136.83	3.7270	3.7272	1.7049	6.53	0.26	0.750			
0.6627	42415.66	3.7240	3.7241	1.5011	6.52	0.25	0.750			
0.6670	42686.86	3.7210	3.7209	1.3721	6.50	0.23	0.750			
0.6708	42929.95	3.7180	3.7180	1.2904	6.48	0.21	0.750			
0.6744	43163.54	3.7150	3.7150	1.2320	6.47	0.20	0.750			
0.6780	43394.74	3.7120	3.7119	1.1950	6.46	0.19	0.750			
0.6816	43620.23	3.7090	3.7090	1.1595	6.44	0.17	0.750			
0.6850	43840.19	3.7060	3.7061	1.1333	6.43	0.16	0.750			
0.6884	44054.47	3.7030	3.7031	1.1073	6.42	0.15	0.750			
0.6917	44265.69	3.7000	3.6996	1.0832	6.41	0.14	0.750			
0.6948	44466.09	3.6970	3.6971	1.0440	6.40	0.13	0.750			
0.6979	44666.51	3.6940	3.6940	1.0314	6.39	0.12	0.750			
0.7010	44862.58	3.6910	3.6911	1.0119	6.38	0.11	0.750			
0.7040	45055.62	3.6880	3.6878	0.9988	6.37	0.10	0.750			
0.7069	45242.79	3.6850	3.6850	0.9703	6.36	0.09	0.750			
0.7098	45427.18	3.6820	3.6820	0.9560	6.35	0.08	0.750			
0.7126	45609.16	3.6790	3.6790	0.9431	6.34	0.07	0.750			
0.7154	45786.35	3.6760	3.6761	0.9310	6.33	0.06	0.750			
0.7182	45963.86	3.6730	3.6730	0.9257	6.33	0.06	0.750			
0.7209	46139.86	3.6700	3.6700	0.9222	6.32	0.05	0.750			
0.7237	46317.47	3.6670	3.6670	0.9194	6.31	0.04	0.750			
0.7265	46496.07	3.6640	3.6640	0.9193	6.30	0.03	0.750			
0.7292	46670.37	3.6610	3.6609	0.9135	6.29	0.02	0.750			
0.7320	46845.20	3.6580	3.6581	0.9113	6.29	0.02	0.750			
0.7347	47019.62	3.6550	3.6550	0.9082	6.28	0.01	0.750			
0.7375	47197.92	3.6520	3.6519	0.8845	6.28	0.01	0.750			
0.7402	47371.17	3.6490	3.6490	0.8466	6.27	0.00	0.750			
0.7428	47537.97	3.6460	3.6461	0.7783	6.27	-0.00	0.750			
0.7451	47688.77	3.6430	3.6430	0.6987	6.26	-0.01	0.750			
0.7471	47814.13	3.6400	3.6401	0.5909	6.26	-0.01	0.750			
0.7487	47915.36	3.6370	3.6370	0.4864	6.26	-0.01	0.750			
0.7497	47980.28	3.6340	3.6346	0.4058	6.26	-0.01	0.750			
0.7508	48050.31	3.6310	3.6312	0.3374	6.26	-0.01	0.750			
0.7516	48101.51	3.6280	3.6278	0.2591	6.25	-0.02	0.750			
0.7522	48141.19	3.6250	3.6241	0.2021	6.25	-0.02	0.750			
0.7526	48167.70	3.6220	3.6181	0.1482	6.25	-0.02	0.750			
0.7528	48178.36	3.5980	3.5857	-0.1197	6.25	-0.02	0.750			
0.7529	48187.31	3.6190	3.4531	0.1063	6.25	-0.02	0.736			
0.7531	48198.24	3.6010	3.2886	-0.0874	6.25	-0.02	0.716			
0.7532	48204.63	3.6160	3.1924	0.0741	6.25	-0.02	0.705			
0.7533	48211.91	3.6040	3.0827	-0.0551	6.25	-0.02	0.692			
0.7534	48215.75	3.6130	3.0250	0.0418	6.25	-0.02	0.685			
0.7534	48219.39	3.6070	2.9701	-0.0228	6.25	-0.02	0.679			
0.7534	48220.67	3.6100	2.9509	0.0095	6.25	-0.02	0.677			
