Ah_balance (normalized)	Ah_balance (mAh)	Voltage - fit (V)	Voltage -  interpolate (V)	dQ/dV (1/V)	Temperature (°C)	Temperature - diff (°C)	Current (C)	R_DC 0ms (mOhm)	R_DC 50ms (mOhm)	R_DC 50 ms PEC (mOhm)
0.0000	0.00	4.0950	4.1321	0.0000	5.97	-0.01	-0.752			
0.0000	0.00	4.0980	4.1321	0.0000	5.97	-0.01	-0.752			
0.0001	4.87	4.0920	4.0982	-0.0299	5.97	-0.01	-0.750			
0.0002	13.04	4.0890	4.0898	-0.0552	5.97	-0.01	-0.750			
0.0004	27.19	4.0860	4.0857	-0.0788	5.97	-0.01	-0.750			
0.0007	45.10	4.0830	4.0827	-0.1018	5.97	-0.01	-0.750			
0.0010	66.91	4.0800	4.0800	-0.1253	5.97	-0.01	-0.750			
0.0015	93.19	4.0770	4.0771	-0.1493	5.97	-0.01	-0.750			
0.0019	124.12	4.0740	4.0741	-0.1731	5.97	-0.01	-0.750			
0.0025	159.66	4.0710	4.0709	-0.1972	5.98	-0.00	-0.750			
0.0031	200.15	4.0680	4.0680	-0.2176	5.98	-0.00	-0.750			
0.0038	244.47	4.0650	4.0651	-0.2382	5.98	-0.00	-0.750			
0.0046	292.73	4.0620	4.0619	-0.2591	5.98	-0.00	-0.750			
0.0054	344.21	4.0590	4.0591	-0.2806	5.98	0.00	-0.750			
0.0062	399.72	4.0560	4.0561	-0.3028	5.98	0.00	-0.750			
0.0072	459.23	4.0530	4.0529	-0.3236	5.98	0.00	-0.750			
0.0082	523.00	4.0500	4.0501	-0.3468	5.98	0.00	-0.750			
0.0092	591.75	4.0470	4.0471	-0.3741	5.99	0.01	-0.750			
0.0104	665.98	4.0440	4.0438	-0.3974	5.99	0.01	-0.750			
0.0117	745.85	4.0410	4.0410	-0.4158	5.99	0.01	-0.750			
0.0129	828.08	4.0380	4.0382	-0.4333	5.99	0.01	-0.750			
0.0143	913.31	4.0350	4.0351	-0.4536	5.99	0.01	-0.750			
0.0157	1002.48	4.0320	4.0318	-0.4722	6.00	0.02	-0.750			
0.0171	1093.33	4.0290	4.0289	-0.4880	6.00	0.02	-0.750			
0.0186	1188.47	4.0260	4.0260	-0.5049	6.00	0.02	-0.750			
0.0201	1288.22	4.0230	4.0231	-0.5241	6.00	0.02	-0.750			
0.0217	1391.34	4.0200	4.0201	-0.5406	6.01	0.03	-0.750			
0.0234	1495.62	4.0170	4.0170	-0.5594	6.01	0.03	-0.750			
0.0251	1603.71	4.0140	4.0139	-0.5783	6.01	0.03	-0.750			
0.0268	1717.36	4.0110	4.0110	-0.5894	6.01	0.03	-0.750			
0.0286	1832.47	4.0080	4.0080	-0.6040	6.02	0.04	-0.750			
0.0305	1951.39	4.0050	4.0054	-0.6176	6.02	0.04	-0.750			
0.0324	2071.23	4.0020	4.0018	-0.6259	6.03	0.05	-0.750			
0.0343	2192.87	3.9990	3.9989	-0.6308	6.03	0.05	-0.750			
0.0361	2313.54	3.9960	3.9960	-0.6358	6.04	0.06	-0.750			
0.0381	2436.02	3.9930	3.9931	-0.6395	6.05	0.07	-0.750			
0.0400	2560.24	3.9900	3.9900	-0.6472	6.05	0.07	-0.750			
0.0419	2683.01	3.9870	3.9870	-0.6539	6.06	0.08	-0.750			
0.0439	2809.07	3.9840	3.9838	-0.6631	6.06	0.08	-0.750			
0.0459	2936.81	3.9810	3.9810	-0.6734	6.07	0.09	-0.750			
0.0479	3067.40	3.9780	3.9781	-0.6861	6.08	0.10	-0.750			
0.0500	3201.78	3.9750	3.9750	-0.6881	6.09	0.11	-0.750			
0.0521	3335.57	3.9720	3.9719	-0.6937	6.10	0.12	-0.750			
0.0542	3468.66	3.9690	3.9691	-0.6918	6.11	0.13	-0.750			
0.0563	3600.96	3.9660	3.9659	-0.6939	6.11	0.13	-0.750			
0.0584	3734.60	3.9630	3.9630	-0.6937	6.12	0.14	-0.750			
0.0604	3866.54	3.9600	3.9598	-0.6984	6.13	0.15	-0.750			
0.0625	4000.31	3.9570	3.9571	-0.7016	6.14	0.16	-0.750			
0.0646	4137.20	3.9540	3.9540	-0.7062	6.15	0.17	-0.750			
0.0668	4273.10	3.9510	3.9509	-0.7049	6.16	0.18	-0.750			
0.0689	4409.04	3.9480	3.9480	-0.7094	6.17	0.19	-0.750			
0.0710	4543.55	3.9450	3.9450	-0.7117	6.18	0.20	-0.750			
0.0731	4681.39	3.9420	3.9419	-0.7163	6.19	0.21	-0.750			
0.0753	4817.73	3.9390	3.9390	-0.7178	6.20	0.22	-0.750			
0.0775	4956.84	3.9360	3.9360	-0.7231	6.21	0.23	-0.750			
0.0796	5096.35	3.9330	3.9331	-0.7314	6.22	0.24	-0.750			
0.0818	5237.65	3.9300	3.9299	-0.7339	6.23	0.25	-0.750			
0.0840	5378.20	3.9270	3.9269	-0.7332	6.24	0.26	-0.750			
0.0863	5520.67	3.9240	3.9241	-0.7376	6.24	0.26	-0.750			
0.0885	5663.06	3.9210	3.9210	-0.7381	6.25	0.27	-0.750			
0.0907	5806.69	3.9180	3.9180	-0.7350	6.26	0.28	-0.750			
0.0929	5947.04	3.9150	3.9152	-0.7326	6.27	0.29	-0.750			
0.0951	6084.32	3.9120	3.9120	-0.7308	6.28	0.30	-0.750			
0.0973	6224.98	3.9090	3.9090	-0.7364	6.29	0.31	-0.750			
0.0995	6365.05	3.9060	3.9059	-0.7392	6.30	0.32	-0.750			
0.1017	6509.39	3.9030	3.9030	-0.7497	6.31	0.33	-0.750			
0.1040	6653.99	3.9000	3.9000	-0.7480	6.32	0.34	-0.750			
0.1063	6800.09	3.8970	3.8970	-0.7509	6.34	0.36	-0.750			
0.1085	6942.16	3.8940	3.8941	-0.7520	6.35	0.37	-0.750			
0.1107	7084.86	3.8910	3.8910	-0.7501	6.36	0.38	-0.750			
0.1130	7229.19	3.8880	3.8880	-0.7555	6.37	0.39	-0.750			
0.1152	7375.16	3.8850	3.8849	-0.7569	6.38	0.40	-0.750			
0.1175	7522.17	3.8820	3.8822	-0.7583	6.39	0.41	-0.750			
0.1198	7668.13	3.8790	3.8790	-0.7623	6.40	0.42	-0.750			
0.1221	7815.12	3.8760	3.8760	-0.7616	6.41	0.43	-0.750			
0.1244	7959.62	3.8730	3.8730	-0.7612	6.42	0.44	-0.750			
0.1266	8105.32	3.8700	3.8699	-0.7616	6.43	0.45	-0.750			
0.1289	8251.04	3.8670	3.8671	-0.7648	6.44	0.46	-0.750			
0.1313	8400.02	3.8640	3.8640	-0.7694	6.46	0.48	-0.750			
0.1336	8547.47	3.8610	3.8610	-0.7687	6.47	0.49	-0.750			
0.1359	8694.75	3.8580	3.8580	-0.7672	6.48	0.50	-0.750			
0.1382	8843.30	3.8550	3.8550	-0.7694	6.49	0.51	-0.750			
0.1405	8990.01	3.8520	3.8519	-0.7676	6.51	0.53	-0.750			
0.1428	9137.43	3.8490	3.8492	-0.7697	6.52	0.54	-0.750			
0.1451	9284.97	3.8460	3.8460	-0.7683	6.53	0.55	-0.750			
0.1474	9433.68	3.8430	3.8429	-0.7736	6.54	0.56	-0.750			
0.1497	9582.81	3.8400	3.8400	-0.7703	6.55	0.57	-0.750			
0.1520	9731.15	3.8370	3.8370	-0.7683	6.56	0.58	-0.750			
0.1543	9877.91	3.8340	3.8340	-0.7661	6.57	0.59	-0.750			
0.1566	10024.02	3.8310	3.8310	-0.7660	6.58	0.60	-0.750			
0.1589	10169.73	3.8280	3.8280	-0.7698	6.58	0.60	-0.750			
0.1612	10316.94	3.8250	3.8249	-0.7751	6.59	0.61	-0.750			
0.1635	10465.65	3.8220	3.8220	-0.7817	6.60	0.62	-0.750			
0.1659	10620.29	3.8190	3.8189	-0.7873	6.61	0.63	-0.750			
0.1683	10772.33	3.8160	3.8162	-0.7848	6.62	0.64	-0.750			
0.1707	10922.95	3.8130	3.8130	-0.7868	6.64	0.66	-0.750			
0.1730	11074.02	3.8100	3.8100	-0.7833	6.65	0.67	-0.750			
0.1753	11222.14	3.8070	3.8070	-0.7789	6.66	0.68	-0.750			
0.1777	11371.97	3.8040	3.8040	-0.7789	6.68	0.70	-0.750			
0.1800	11521.35	3.8010	3.8011	-0.7823	6.69	0.71	-0.750			
0.1824	11671.86	3.7980	3.7980	-0.7914	6.70	0.72	-0.750			
0.1848	11824.58	3.7950	3.7950	-0.7987	6.71	0.73	-0.750			
0.1872	11978.43	3.7920	3.7919	-0.8015	6.72	0.74	-0.750			
0.1896	12135.72	3.7890	3.7889	-0.8042	6.74	0.76	-0.750			
0.1920	12290.92	3.7860	3.7862	-0.7979	6.75	0.77	-0.750			
0.1944	12444.25	3.7830	3.7829	-0.7913	6.76	0.78	-0.750			
0.1968	12595.12	3.7800	3.7800	-0.7821	6.77	0.79	-0.750			
0.1991	12742.77	3.7770	3.7770	-0.7754	6.78	0.80	-0.750			
0.2014	12888.36	3.7740	3.7740	-0.7703	6.79	0.81	-0.750			
0.2037	13036.14	3.7710	3.7710	-0.7737	6.80	0.82	-0.750			
0.2060	13183.96	3.7680	3.7681	-0.7818	6.81	0.83	-0.750			
0.2084	13334.41	3.7650	3.7650	-0.7887	6.82	0.84	-0.750			
0.2107	13487.05	3.7620	3.7619	-0.7942	6.83	0.85	-0.750			
0.2132	13641.90	3.7590	3.7590	-0.7996	6.84	0.86	-0.750			
0.2156	13796.39	3.7560	3.7560	-0.8041	6.85	0.87	-0.750			
0.2180	13950.36	3.7530	3.7531	-0.8089	6.86	0.88	-0.750			
0.2204	14105.97	3.7500	3.7500	-0.8112	6.87	0.89	-0.750			
0.2228	14260.28	3.7470	3.7469	-0.8204	6.88	0.90	-0.750			
0.2253	14421.25	3.7440	3.7439	-0.8235	6.89	0.91	-0.750			
0.2278	14581.00	3.7410	3.7410	-0.8273	6.90	0.92	-0.750			
0.2303	14739.47	3.7380	3.7384	-0.8284	6.91	0.93	-0.750			
0.2328	14899.22	3.7350	3.7348	-0.8277	6.92	0.94	-0.750			
0.2353	15057.33	3.7320	3.7320	-0.8273	6.93	0.95	-0.750			
0.2377	15214.43	3.7290	3.7290	-0.8229	6.94	0.96	-0.750			
0.2402	15374.85	3.7260	3.7260	-0.8252	6.95	0.97	-0.750			
0.2427	15532.98	3.7230	3.7230	-0.8228	6.96	0.98	-0.750			
0.2451	15688.37	3.7200	3.7200	-0.8244	6.97	0.99	-0.750			
0.2476	15845.14	3.7170	3.7170	-0.8348	6.98	1.00	-0.750			
0.2501	16006.35	3.7140	3.7139	-0.8402	6.99	1.01	-0.750			
0.2526	16168.57	3.7110	3.7109	-0.8498	7.00	1.02	-0.750			
0.2552	16334.04	3.7080	3.7082	-0.8621	7.01	1.03	-0.750			
0.2578	16499.63	3.7050	3.7050	-0.8756	7.02	1.04	-0.750			
0.2605	16669.21	3.7020	3.7019	-0.8797	7.03	1.05	-0.750			
0.2631	16839.85	3.6990	3.6990	-0.8793	7.04	1.06	-0.750			
0.2658	17010.06	3.6960	3.6960	-0.8822	7.04	1.06	-0.750			
0.2684	17180.19	3.6930	3.6931	-0.8825	7.05	1.07	-0.750			
0.2711	17347.74	3.6900	3.6901	-0.8839	7.06	1.08	-0.750			
0.2737	17515.24	3.6870	3.6869	-0.8905	7.07	1.09	-0.750			
0.2763	17683.41	3.6840	3.6840	-0.8964	7.08	1.10	-0.750			
0.2791	17860.42	3.6810	3.6810	-0.9106	7.10	1.12	-0.750			
0.2819	18038.72	3.6780	3.6778	-0.9210	7.10	1.12	-0.750			
0.2846	18216.43	3.6750	3.6751	-0.9263	7.11	1.13	-0.750			
0.2874	18395.83	3.6720	3.6721	-0.9281	7.12	1.14	-0.750			
0.2902	18573.71	3.6690	3.6689	-0.9253	7.12	1.14	-0.750			
0.2930	18751.24	3.6660	3.6662	-0.9281	7.13	1.15	-0.750			
0.2957	18926.62	3.6630	3.6630	-0.9336	7.14	1.16	-0.750			
0.2985	19106.22	3.6600	3.6600	-0.9402	7.14	1.16	-0.750			
0.3013	19286.17	3.6570	3.6567	-0.9499	7.15	1.17	-0.750			
0.3042	19471.34	3.6540	3.6541	-0.9625	7.16	1.18	-0.750			
0.3071	19655.42	3.6510	3.6510	-0.9792	7.17	1.19	-0.750			
0.3101	19847.91	3.6480	3.6479	-0.9877	7.18	1.20	-0.750			
0.3131	20038.35	3.6450	3.6450	-0.9941	7.19	1.21	-0.750			
0.3161	20228.66	3.6420	3.6420	-0.9913	7.19	1.21	-0.750			
0.3191	20422.76	3.6390	3.6389	-0.9944	7.20	1.22	-0.750			
0.3221	20614.03	3.6360	3.6360	-0.9948	7.21	1.23	-0.750			
0.3251	20805.68	3.6330	3.6329	-0.9909	7.22	1.24	-0.750			
0.3280	20991.42	3.6300	3.6300	-0.9942	7.22	1.24	-0.750			
0.3310	21183.93	3.6270	3.6271	-1.0063	7.23	1.25	-0.750			
0.3340	21375.10	3.6240	3.6239	-1.0218	7.24	1.26	-0.750			
0.3371	21575.51	3.6210	3.6209	-1.0348	7.24	1.26	-0.750			
0.3402	21775.26	3.6180	3.6179	-1.0410	7.25	1.27	-0.750			
0.3434	21978.40	3.6150	3.6152	-1.0692	7.25	1.27	-0.750			
0.3467	22186.77	3.6120	3.6121	-1.0769	7.26	1.28	-0.750			
0.3499	22392.62	3.6090	3.6088	-1.0780	7.26	1.28	-0.750			
0.3531	22599.89	3.6060	3.6059	-1.0724	7.27	1.29	-0.750			
0.3564	22808.70	3.6030	3.6032	-1.0907	7.27	1.29	-0.750			
0.3597	23021.45	3.6000	3.5999	-1.0937	7.28	1.30	-0.750			
0.3629	23227.99	3.5970	3.5969	-1.0922	7.28	1.30	-0.750			
0.3661	23431.65	3.5940	3.5940	-1.0956	7.29	1.31	-0.750			
0.3695	23646.01	3.5910	3.5909	-1.1192	7.29	1.31	-0.750			
0.3729	23864.29	3.5880	3.5879	-1.1332	7.30	1.32	-0.750			
0.3763	24084.24	3.5850	3.5848	-1.1469	7.31	1.33	-0.750	0.381	0.823	
0.3798	24305.42	3.5820	3.5821	-1.1524	7.32	1.34	-0.750			
0.3833	24531.97	3.5790	3.5789	-1.1547	7.33	1.35	-0.750			
0.3868	24752.86	3.5760	3.5761	-1.1485	7.33	1.35	-0.750			
0.3902	24970.12	3.5730	3.5731	-1.1493	7.34	1.36	-0.750			
0.3936	25190.24	3.5700	3.5700	-1.1640	7.34	1.36	-0.750			
0.3971	25413.28	3.5670	3.5668	-1.1726	7.34	1.36	-0.750			
0.4006	25638.88	3.5640	3.5640	-1.1853	7.35	1.37	-0.750			
0.4042	25869.64	3.5610	3.5611	-1.2064	7.35	1.37	-0.750			
0.4079	26107.42	3.5580	3.5579	-1.2130	7.35	1.37	-0.750			
0.4116	26341.62	3.5550	3.5550	-1.2094	7.36	1.38	-0.750			
0.4152	26570.74	3.5520	3.5520	-1.2080	7.37	1.39	-0.750			
0.4188	26802.18	3.5490	3.5491	-1.2129	7.37	1.39	-0.750			
0.4224	27034.63	3.5460	3.5459	-1.2180	7.38	1.40	-0.750			
0.4261	27267.23	3.5430	3.5430	-1.2263	7.38	1.40	-0.750			
0.4297	27502.48	3.5400	3.5401	-1.2406	7.39	1.41	-0.750			
0.4335	27745.76	3.5370	3.5369	-1.2552	7.40	1.42	-0.750			
0.4373	27987.86	3.5340	3.5340	-1.2659	7.40	1.42	-0.750			
0.4411	28230.85	3.5310	3.5310	-1.2758	7.41	1.43	-0.750			
0.4450	28478.93	3.5280	3.5280	-1.2751	7.41	1.43	-0.750			
0.4489	28727.77	3.5250	3.5249	-1.2751	7.42	1.44	-0.750			
0.4527	28969.94	3.5220	3.5221	-1.2784	7.43	1.45	-0.750			
0.4565	29214.93	3.5190	3.5192	-1.2750	7.43	1.45	-0.750			
0.4603	29459.81	3.5160	3.5158	-1.2750	7.43	1.45	-0.750			
0.4641	29702.84	3.5130	3.5129	-1.2676	7.44	1.46	-0.750			
0.4679	29945.98	3.5100	3.5102	-1.2730	7.44	1.46	-0.750			
0.4718	30192.45	3.5070	3.5070	-1.2746	7.45	1.47	-0.750			
0.4756	30439.40	3.5040	3.5040	-1.2693	7.46	1.48	-0.750			
0.4794	30678.67	3.5010	3.5010	-1.2697	7.47	1.49	-0.750			
0.4832	30923.86	3.4980	3.4980	-1.2658	7.47	1.49	-0.750			
0.4870	31167.26	3.4950	3.4949	-1.2569	7.48	1.50	-0.750			
0.4907	31407.18	3.4920	3.4920	-1.2587	7.49	1.51	-0.750			
0.4945	31648.26	3.4890	3.4889	-1.2483	7.49	1.51	-0.750			
0.4983	31889.81	3.4860	3.4859	-1.2430	7.50	1.52	-0.750			
0.5020	32126.23	3.4830	3.4831	-1.2393	7.50	1.52	-0.750			
0.5056	32358.77	3.4800	3.4802	-1.2342	7.51	1.53	-0.750			
0.5094	32599.85	3.4770	3.4768	-1.2398	7.52	1.54	-0.750			
0.5131	32837.38	3.4740	3.4740	-1.2344	7.52	1.54	-0.750			
0.5168	33073.69	3.4710	3.4710	-1.2241	7.53	1.55	-0.750			
0.5205	33313.05	3.4680	3.4680	-1.2241	7.53	1.55	-0.750			
0.5242	33546.87	3.4650	3.4649	-1.2120	7.54	1.56	-0.750			
0.5277	33775.59	3.4620	3.4620	-1.1938	7.55	1.57	-0.750			
0.5313	34004.84	3.4590	3.4590	-1.1825	7.55	1.57	-0.750			
0.5349	34232.70	3.4560	3.4561	-1.1724	7.56	1.58	-0.750			
0.5384	34454.60	3.4530	3.4530	-1.1615	7.57	1.59	-0.750			
0.5418	34675.21	3.4500	3.4499	-1.1572	7.58	1.60	-0.750			
0.5452	34894.76	3.4470	3.4469	-1.1528	7.58	1.60	-0.750			
0.5487	35117.66	3.4440	3.4438	-1.1471	7.59	1.61	-0.750			
0.5522	35341.11	3.4410	3.4410	-1.1359	7.60	1.62	-0.750			
0.5556	35557.55	3.4380	3.4382	-1.1254	7.60	1.62	-0.750			
0.5590	35776.07	3.4350	3.4351	-1.1183	7.62	1.64	-0.750			
0.5623	35986.98	3.4320	3.4319	-1.1056	7.63	1.65	-0.750			
0.5656	36195.60	3.4290	3.4289	-1.0840	7.65	1.67	-0.750			
0.5688	36403.11	3.4260	3.4260	-1.0820	7.66	1.68	-0.750			
0.5720	36608.98	3.4230	3.4230	-1.0763	7.68	1.70	-0.750			
0.5753	36817.08	3.4200	3.4201	-1.0754	7.69	1.71	-0.750			
0.5784	37020.33	3.4170	3.4168	-1.0656	7.70	1.72	-0.750			
0.5816	37224.87	3.4140	3.4139	-1.0686	7.72	1.74	-0.750			
0.5849	37430.75	3.4110	3.4111	-1.0570	7.73	1.75	-0.750			
0.5881	37635.61	3.4080	3.4080	-1.0545	7.75	1.77	-0.750			
0.5912	37839.48	3.4050	3.4050	-1.0330	7.76	1.78	-0.750			
0.5943	38038.12	3.4020	3.4019	-1.0101	7.78	1.80	-0.750			
0.5973	38229.58	3.3990	3.3990	-0.9939	7.80	1.82	-0.750			
0.6003	38417.55	3.3960	3.3961	-0.9728	7.82	1.84	-0.750			
0.6031	38600.20	3.3930	3.3928	-0.9538	7.84	1.86	-0.750			
0.6060	38783.57	3.3900	3.3901	-0.9330	7.85	1.87	-0.750			
0.6087	38959.18	3.3870	3.3869	-0.9118	7.87	1.89	-0.750			
0.6115	39134.17	3.3840	3.3841	-0.8939	7.88	1.90	-0.750			
0.6141	39301.35	3.3810	3.3810	-0.8725	7.89	1.91	-0.750			
0.6167	39468.51	3.3780	3.3779	-0.8628	7.91	1.93	-0.750			
0.6193	39633.76	3.3750	3.3749	-0.8474	7.92	1.94	-0.750			
0.6218	39792.74	3.3720	3.3719	-0.8369	7.93	1.95	-0.750			
0.6243	39954.13	3.3690	3.3692	-0.8284	7.95	1.97	-0.750			
0.6268	40112.85	3.3660	3.3660	-0.8088	7.96	1.98	-0.750			
0.6292	40269.14	3.3630	3.3628	-0.7945	7.97	1.99	-0.750			
0.6315	40418.58	3.3600	3.3601	-0.7742	7.99	2.01	-0.750			
0.6338	40566.00	3.3570	3.3569	-0.7532	8.01	2.03	-0.750			
0.6360	40707.05	3.3540	3.3540	-0.7394	8.02	2.04	-0.750			
0.6382	40844.80	3.3510	3.3511	-0.7217	8.04	2.06	-0.750			
0.6404	40984.07	3.3480	3.3480	-0.7071	8.05	2.07	-0.750			
0.6425	41120.04	3.3450	3.3451	-0.6973	8.07	2.09	-0.750			
0.6446	41251.45	3.3420	3.3421	-0.6803	8.08	2.10	-0.750			
0.6466	41380.50	3.3390	3.3390	-0.6662	8.10	2.12	-0.750			
0.6486	41507.66	3.3360	3.3359	-0.6516	8.11	2.13	-0.750			
0.6505	41630.25	3.3330	3.3330	-0.6311	8.13	2.15	-0.750			
0.6523	41750.28	3.3300	3.3301	-0.6201	8.14	2.16	-0.750			
0.6542	41868.61	3.3270	3.3269	-0.6085	8.15	2.17	-0.750			
0.6560	41983.15	3.3240	3.3240	-0.5932	8.17	2.19	-0.750			
0.6577	42095.77	3.3210	3.3210	-0.5847	8.18	2.20	-0.750			
0.6595	42206.63	3.3180	3.3181	-0.5741	8.20	2.22	-0.750			
0.6612	42315.64	3.3150	3.3149	-0.5655	8.21	2.23	-0.750			
0.6629	42424.52	3.3120	3.3120	-0.5590	8.23	2.25	-0.750			
0.6645	42530.88	3.3090	3.3090	-0.5464	8.24	2.26	-0.750			
0.6662	42635.64	3.3060	3.3060	-0.5359	8.26	2.28	-0.750			
0.6678	42737.77	3.3030	3.3031	-0.5262	8.27	2.29	-0.750			
0.6693	42836.55	3.3000	3.3001	-0.5162	8.28	2.30	-0.750			
0.6708	42934.30	3.2970	3.2969	-0.5070	8.30	2.32	-0.750			
0.6723	43030.19	3.2940	3.2939	-0.4980	8.31	2.33	-0.750			
0.6738	43126.38	3.2910	3.2910	-0.4869	8.33	2.35	-0.750			
0.6753	43218.31	3.2880	3.2881	-0.4824	8.34	2.36	-0.750			
0.6767	43311.16	3.2850	3.2850	-0.4744	8.35	2.37	-0.750			
0.6781	43401.27	3.2820	3.2818	-0.4630	8.36	2.38	-0.750			
0.6795	43488.39	3.2790	3.2790	-0.4530	8.38	2.40	-0.750			
0.6809	43574.74	3.2760	3.2761	-0.4478	8.39	2.41	-0.750			
0.6822	43660.58	3.2730	3.2729	-0.4408	8.40	2.42	-0.750			
0.6835	43745.12	3.2700	3.2700	-0.4323	8.41	2.43	-0.750			
0.6848	43824.84	3.2670	3.2670	-0.4207	8.42	2.44	-0.750			
0.6860	43906.63	3.2640	3.2640	-0.4166	8.44	2.46	-0.750			
0.6873	43985.79	3.2610	3.2610	-0.4113	8.45	2.47	-0.750			
0.6885	44063.68	3.2580	3.2581	-0.4036	8.46	2.48	-0.750			
0.6897	44140.36	3.2550	3.2550	-0.3955	8.47	2.49	-0.750			
0.6909	44216.07	3.2520	3.2520	-0.3912	8.48	2.50	-0.750			
0.6920	44290.96	3.2490	3.2490	-0.3853	8.49	2.51	-0.750			
0.6932	44363.69	3.2460	3.2461	-0.3799	8.51	2.53	-0.750			
0.6943	44436.32	3.2430	3.2429	-0.3758	8.52	2.54	-0.750			
0.6954	44507.90	3.2400	3.2400	-0.3698	8.53	2.55	-0.750			
0.6965	44578.52	3.2370	3.2370	-0.3633	8.54	2.56	-0.750			
0.6976	44648.40	3.2340	3.2340	-0.3585	8.55	2.57	-0.750			
0.6987	44716.38	3.2310	3.2310	-0.3524	8.56	2.58	-0.750			
0.6997	44783.28	3.2280	3.2280	-0.3486	8.57	2.59	-0.750			
0.7008	44848.95	3.2250	3.2249	-0.3425	8.58	2.60	-0.750			
0.7018	44914.39	3.2220	3.2220	-0.3406	8.59	2.61	-0.750			
0.7028	44980.06	3.2190	3.2190	-0.3372	8.60	2.62	-0.750			
0.7038	45044.84	3.2160	3.2158	-0.3323	8.62	2.64	-0.750			
0.7048	45108.64	3.2130	3.2131	-0.3281	8.63	2.65	-0.750			
0.7058	45171.22	3.2100	3.2100	-0.3219	8.64	2.66	-0.750			
0.7068	45232.24	3.2070	3.2070	-0.3148	8.65	2.67	-0.750			
0.7077	45291.61	3.2040	3.2040	-0.3128	8.66	2.68	-0.750			
0.7086	45350.02	3.2010	3.2011	-0.3080	8.67	2.69	-0.750			
0.7095	45409.69	3.1980	3.1979	-0.3067	8.68	2.70	-0.750			
0.7104	45468.36	3.1950	3.1950	-0.3033	8.69	2.71	-0.750			
0.7114	45526.73	3.1920	3.1921	-0.2998	8.70	2.72	-0.750			
0.7123	45584.36	3.1890	3.1890	-0.2962	8.71	2.73	-0.750			
0.7131	45640.86	3.1860	3.1860	-0.2927	8.72	2.74	-0.750			
0.7140	45695.50	3.1830	3.1830	-0.2892	8.73	2.75	-0.750			
0.7149	45750.84	3.1800	3.1800	-0.2871	8.74	2.76	-0.750			
0.7157	45806.00	3.1770	3.1768	-0.2851	8.75	2.77	-0.750			
0.7166	45861.36	3.1740	3.1740	-0.2824	8.76	2.78	-0.750			
0.7174	45915.26	3.1710	3.1710	-0.2796	8.77	2.79	-0.750			
0.7183	45968.35	3.1680	3.1680	-0.2766	8.78	2.80	-0.750			
0.7191	46020.69	3.1650	3.1650	-0.2724	8.79	2.81	-0.750			
0.7199	46072.58	3.1620	3.1619	-0.2687	8.80	2.82	-0.750			
0.7207	46124.05	3.1590	3.1590	-0.2658	8.81	2.83	-0.750			
0.7215	46175.05	3.1560	3.1561	-0.2641	8.82	2.84	-0.750			
0.7223	46225.50	3.1530	3.1530	-0.2619	8.83	2.85	-0.750			
0.7231	46275.41	3.1500	3.1499	-0.2591	8.84	2.86	-0.750			
0.7238	46324.59	3.1470	3.1470	-0.2554	8.85	2.87	-0.750			
0.7246	46373.40	3.1440	3.1440	-0.2532	8.86	2.88	-0.750			
0.7253	46421.73	3.1410	3.1410	-0.2510	8.87	2.89	-0.750			
0.7261	46469.75	3.1380	3.1381	-0.2486	8.88	2.90	-0.750			
0.7268	46516.55	3.1350	3.1350	-0.2468	8.89	2.91	-0.750			
0.7276	46563.96	3.1320	3.1320	-0.2463	8.90	2.92	-0.750			
0.7283	46611.34	3.1290	3.1290	-0.2441	8.91	2.93	-0.750			
0.7290	46658.51	3.1260	3.1260	-0.2421	8.91	2.93	-0.750			
0.7298	46705.23	3.1230	3.1231	-0.2400	8.92	2.94	-0.750			
0.7305	46751.08	3.1200	3.1200	-0.2365	8.93	2.95	-0.750			
0.7312	46795.85	3.1170	3.1170	-0.2348	8.94	2.96	-0.750			
0.7319	46840.50	3.1140	3.1140	-0.2325	8.95	2.97	-0.750			
0.7326	46884.17	3.1110	3.1110	-0.2298	8.96	2.98	-0.750			
0.7333	46928.17	3.1080	3.1079	-0.2287	8.97	2.99	-0.750			
0.7339	46972.64	3.1050	3.1051	-0.2268	8.98	3.00	-0.750			
0.7346	47015.93	3.1020	3.1021	-0.2255	8.99	3.01	-0.750			
0.7353	47059.00	3.0990	3.0989	-0.2232	9.00	3.02	-0.750			
0.7360	47101.64	3.0960	3.0960	-0.2220	9.01	3.03	-0.750			
0.7366	47143.57	3.0930	3.0929	-0.2193	9.02	3.04	-0.750			
0.7373	47185.85	3.0900	3.0899	-0.2181	9.03	3.05	-0.750			
0.7379	47227.58	3.0870	3.0871	-0.2166	9.04	3.06	-0.750			
0.7386	47268.87	3.0840	3.0840	-0.2158	9.04	3.06	-0.750			
0.7392	47310.56	3.0810	3.0810	-0.2154	9.05	3.07	-0.750			
0.7399	47351.39	3.0780	3.0779	-0.2132	9.06	3.08	-0.750			
0.7405	47392.25	3.0750	3.0750	-0.2124	9.07	3.09	-0.750			
0.7411	47432.80	3.0720	3.0721	-0.2120	9.08	3.10	-0.750			
0.7418	47473.72	3.0690	3.0690	-0.2111	9.09	3.11	-0.750			
0.7424	47514.32	3.0660	3.0660	-0.2103	9.10	3.12	-0.750			
0.7430	47554.57	3.0630	3.0629	-0.2086	9.11	3.13	-0.750			
0.7437	47594.35	3.0600	3.0601	-0.2069	9.12	3.14	-0.750			
0.7443	47634.02	3.0570	3.0570	-0.2061	9.13	3.15	-0.750			
0.7449	47673.58	3.0540	3.0540	-0.2042	9.14	3.16	-0.750			
0.7455	47712.47	3.0510	3.0510	-0.2024	9.15	3.17	-0.750			
0.7461	47751.20	3.0480	3.0480	-0.2010	9.16	3.18	-0.750			
0.7467	47789.75	3.0450	3.0451	-0.1998	9.17	3.19	-0.750			
0.7473	47827.65	3.0420	3.0420	-0.1992	9.18	3.20	-0.750			
0.7479	47865.53	3.0390	3.0390	-0.1989	9.19	3.21	-0.750			
0.7485	47904.03	3.0360	3.0360	-0.1982	9.20	3.22	-0.750			
0.7491	47941.91	3.0330	3.0329	-0.1977	9.21	3.23	-0.750			
0.7497	47980.37	3.0300	3.0300	-0.1963	9.22	3.24	-0.750			
0.7503	48018.12	3.0270	3.0271	-0.1948	9.22	3.24	-0.750			
0.7509	48055.15	3.0240	3.0240	-0.1928	9.23	3.25	-0.750			
0.7514	48092.09	3.0210	3.0210	-0.1906	9.24	3.26	-0.750			
0.7520	48127.93	3.0180	3.0180	-0.1896	9.25	3.27	-0.750			
0.7526	48164.00	3.0150	3.0150	-0.1882	9.26	3.28	-0.750			
0.7531	48200.20	3.0120	3.0120	-0.1880	9.27	3.29	-0.750			
0.7537	48236.26	3.0090	3.0090	-0.1876	9.28	3.30	-0.750			
0.7543	48272.36	3.0060	3.0061	-0.1865	9.29	3.31	-0.750			
0.7548	48308.06	3.0030	3.0030	-0.1843	9.29	3.31	-0.750			
