Ah_balance (normalized)	Ah_balance (mAh)	Voltage - fit (V)	Voltage -  interpolate (V)	dQ/dV (1/V)	Temperature (°C)	Temperature - diff (°C)	Current (C)	R_DC 0ms (mOhm)	R_DC 50ms (mOhm)	R_DC 50 ms PEC (mOhm)
0.0977	6250.85	4.1960	4.1981	0.5455	8.87	2.76	0.750			
0.0996	6376.66	4.1930	4.1953	0.6847	8.87	2.76	0.750			
0.1019	6523.23	4.1900	4.1921	0.7610	8.86	2.75	0.750			
0.1045	6686.15	4.1870	4.1883	0.8133	8.86	2.75	0.750			
0.1068	6833.83	4.1840	4.1851	0.7732	8.85	2.74	0.750			
0.1094	7002.66	4.1810	4.1813	0.7937	8.84	2.73	0.750			
0.1118	7158.12	4.1780	4.1780	0.7121	8.84	2.73	0.750			
0.1140	7293.94	4.1750	4.1751	0.7125	8.83	2.72	0.750			
0.1161	7432.07	4.1720	4.1719	0.7147	8.82	2.71	0.750			
0.1183	7569.98	4.1690	4.1690	0.7133	8.81	2.70	0.750			
0.1204	7706.17	4.1660	4.1660	0.7104	8.81	2.70	0.750			
0.1225	7842.19	4.1630	4.1630	0.7154	8.80	2.69	0.750			
0.1247	7980.74	4.1600	4.1600	0.7155	8.79	2.68	0.750			
0.1268	8116.61	4.1570	4.1569	0.7270	8.79	2.68	0.750			
0.1290	8256.28	4.1540	4.1540	0.7321	8.78	2.67	0.750			
0.1312	8398.43	4.1510	4.1509	0.7412	8.77	2.66	0.750			
0.1335	8543.29	4.1480	4.1483	0.7397	8.77	2.66	0.750			
0.1357	8687.79	4.1450	4.1450	0.7380	8.76	2.65	0.750			
0.1379	8828.48	4.1420	4.1421	0.7301	8.75	2.64	0.750			
0.1401	8968.28	4.1390	4.1389	0.7240	8.74	2.63	0.750			
0.1422	9103.20	4.1360	4.1361	0.7247	8.73	2.62	0.750			
0.1444	9241.44	4.1330	4.1329	0.7295	8.72	2.61	0.750			
0.1466	9380.87	4.1300	4.1299	0.7330	8.71	2.60	0.750			
0.1488	9522.66	4.1270	4.1270	0.7476	8.71	2.60	0.750			
0.1510	9665.82	4.1240	4.1241	0.7638	8.70	2.59	0.750			
0.1534	9815.69	4.1210	4.1209	0.7692	8.69	2.58	0.750			
0.1557	9966.15	4.1180	4.1179	0.7747	8.68	2.57	0.750			
0.1580	10115.02	4.1150	4.1152	0.7737	8.68	2.57	0.750			
0.1604	10265.49	4.1120	4.1120	0.7755	8.66	2.55	0.750			
0.1627	10413.83	4.1090	4.1089	0.7737	8.65	2.54	0.750			
0.1650	10561.14	4.1060	4.1059	0.7675	8.64	2.53	0.750			
0.1673	10704.26	4.1030	4.1031	0.7701	8.63	2.52	0.750			
0.1696	10854.70	4.1000	4.0998	0.7767	8.62	2.51	0.750			
0.1719	11004.40	4.0970	4.0970	0.7801	8.61	2.50	0.750			
0.1743	11155.89	4.0940	4.0940	0.7766	8.60	2.49	0.750			
0.1766	11304.24	4.0910	4.0911	0.7860	8.59	2.48	0.750			
0.1790	11454.70	4.0880	4.0881	0.7953	8.58	2.47	0.750			
0.1814	11607.29	4.0850	4.0849	0.8016	8.56	2.45	0.750			
0.1838	11762.14	4.0820	4.0820	0.8012	8.55	2.44	0.750			
0.1862	11919.21	4.0790	4.0791	0.8064	8.54	2.43	0.750			
0.1886	12073.44	4.0760	4.0761	0.8093	8.53	2.42	0.750			
0.1911	12230.63	4.0730	4.0730	0.8112	8.52	2.41	0.750			
0.1935	12382.51	4.0700	4.0699	0.8051	8.52	2.41	0.750			
0.1959	12536.20	4.0670	4.0671	0.8166	8.50	2.39	0.750			
0.1984	12694.72	4.0640	4.0640	0.8239	8.49	2.38	0.750			
0.2008	12854.34	4.0610	4.0610	0.8358	8.48	2.37	0.750			
0.2034	13016.71	4.0580	4.0581	0.8424	8.47	2.36	0.750			
0.2059	13179.43	4.0550	4.0550	0.8431	8.46	2.35	0.750			
0.2085	13343.70	4.0520	4.0519	0.8460	8.44	2.33	0.750			
0.2110	13505.13	4.0490	4.0490	0.8420	8.43	2.32	0.750			
0.2135	13664.38	4.0460	4.0461	0.8460	8.42	2.31	0.750			
0.2161	13827.31	4.0430	4.0430	0.8568	8.41	2.30	0.750			
0.2186	13991.65	4.0400	4.0399	0.8579	8.40	2.29	0.750			
0.2212	14159.35	4.0370	4.0370	0.8619	8.38	2.27	0.750			
0.2239	14328.76	4.0340	4.0340	0.8594	8.37	2.26	0.750			
0.2264	14492.66	4.0310	4.0310	0.8530	8.36	2.25	0.750			
0.2290	14656.29	4.0280	4.0282	0.8450	8.35	2.24	0.750			
0.2315	14813.43	4.0250	4.0249	0.8428	8.34	2.23	0.750			
0.2340	14974.18	4.0220	4.0220	0.8475	8.33	2.22	0.750			
0.2365	15136.78	4.0190	4.0190	0.8512	8.32	2.21	0.750			
0.2391	15299.25	4.0160	4.0160	0.8622	8.31	2.20	0.750			
0.2417	15467.26	4.0130	4.0132	0.8764	8.29	2.18	0.750			
0.2443	15637.89	4.0100	4.0098	0.8862	8.28	2.17	0.750			
0.2471	15811.26	4.0070	4.0069	0.8891	8.27	2.16	0.750			
0.2497	15979.81	4.0040	4.0041	0.8968	8.26	2.15	0.750			
0.2524	16152.99	4.0010	4.0012	0.9043	8.25	2.14	0.750			
0.2551	16328.23	3.9980	3.9979	0.9089	8.24	2.13	0.750			
0.2579	16502.58	3.9950	3.9950	0.9045	8.23	2.12	0.750			
0.2606	16679.06	3.9920	3.9921	0.8959	8.21	2.10	0.750			
0.2633	16850.55	3.9890	3.9891	0.9037	8.20	2.09	0.750			
0.2660	17020.84	3.9860	3.9860	0.9099	8.19	2.08	0.750			
0.2686	17190.58	3.9830	3.9830	0.9092	8.18	2.07	0.750			
0.2714	17369.45	3.9800	3.9800	0.9216	8.16	2.05	0.750			
0.2742	17548.20	3.9770	3.9770	0.9337	8.16	2.05	0.750			
0.2770	17730.80	3.9740	3.9741	0.9417	8.15	2.04	0.750			
0.2799	17915.03	3.9710	3.9711	0.9535	8.14	2.03	0.750			
0.2827	18094.38	3.9680	3.9679	0.9488	8.13	2.02	0.750			
0.2856	18277.25	3.9650	3.9650	0.9553	8.12	2.01	0.750			
0.2884	18460.44	3.9620	3.9620	0.9593	8.11	2.00	0.750			
0.2913	18645.81	3.9590	3.9590	0.9669	8.10	1.99	0.750			
0.2943	18833.46	3.9560	3.9559	0.9703	8.09	1.98	0.750			
0.2972	19021.24	3.9530	3.9531	0.9709	8.08	1.97	0.750			
0.3001	19204.55	3.9500	3.9500	0.9800	8.06	1.95	0.750			
0.3030	19392.43	3.9470	3.9470	0.9885	8.05	1.94	0.750			
0.3060	19583.35	3.9440	3.9439	0.9950	8.04	1.93	0.750			
0.3090	19776.72	3.9410	3.9410	1.0051	8.02	1.91	0.750			
0.3121	19972.20	3.9380	3.9381	1.0142	8.01	1.90	0.750			
0.3151	20168.88	3.9350	3.9350	1.0197	8.00	1.89	0.750			
0.3182	20365.11	3.9320	3.9319	1.0280	7.99	1.88	0.750			
0.3212	20559.97	3.9290	3.9290	1.0302	7.97	1.86	0.750			
0.3243	20757.86	3.9260	3.9260	1.0479	7.96	1.85	0.750			
0.3275	20959.83	3.9230	3.9230	1.0666	7.95	1.84	0.750			
0.3307	21167.85	3.9200	3.9199	1.0806	7.94	1.83	0.750			
0.3340	21376.18	3.9170	3.9172	1.0963	7.92	1.81	0.750			
0.3374	21590.80	3.9140	3.9140	1.1071	7.91	1.80	0.750			
0.3407	21804.72	3.9110	3.9111	1.1112	7.90	1.79	0.750			
0.3440	22018.99	3.9080	3.9079	1.1140	7.88	1.77	0.750			
0.3474	22231.51	3.9050	3.9051	1.1252	7.87	1.76	0.750			
0.3507	22446.63	3.9020	3.9020	1.1311	7.85	1.74	0.750			
0.3541	22664.71	3.8990	3.8990	1.1445	7.83	1.72	0.750			
0.3576	22884.59	3.8960	3.8959	1.1484	7.82	1.71	0.750			
0.3610	23106.73	3.8930	3.8932	1.1775	7.80	1.69	0.750			
0.3646	23333.54	3.8900	3.8900	1.1973	7.79	1.68	0.750			
0.3682	23566.79	3.8870	3.8869	1.2142	7.78	1.67	0.750			
0.3719	23802.34	3.8840	3.8840	1.2252	7.76	1.65	0.750			
0.3756	24039.92	3.8810	3.8809	1.2422	7.74	1.63	0.750	0.395	0.790	
0.3794	24280.04	3.8780	3.8782	1.2518	7.72	1.61	0.750			
0.3832	24524.48	3.8750	3.8750	1.2536	7.71	1.60	0.750			
0.3868	24756.74	3.8720	3.8720	1.2701	7.69	1.58	0.750			
0.3906	24997.53	3.8690	3.8692	1.2897	7.68	1.57	0.750			
0.3945	25250.91	3.8660	3.8658	1.3178	7.66	1.55	0.750			
0.3986	25508.69	3.8630	3.8630	1.3425	7.64	1.53	0.750			
0.4026	25769.39	3.8600	3.8602	1.3622	7.62	1.51	0.750			
0.4068	26037.09	3.8570	3.8569	1.3831	7.60	1.49	0.750			
0.4110	26304.81	3.8540	3.8540	1.3942	7.58	1.47	0.750			
0.4152	26570.86	3.8510	3.8510	1.3963	7.56	1.45	0.750			
0.4194	26841.30	3.8480	3.8480	1.4079	7.54	1.43	0.750			
0.4236	27109.66	3.8450	3.8452	1.4280	7.52	1.41	0.750			
0.4279	27385.97	3.8420	3.8419	1.4506	7.49	1.38	0.750			
0.4323	27664.92	3.8390	3.8389	1.4806	7.47	1.36	0.750			
0.4367	27951.04	3.8360	3.8359	1.5067	7.45	1.34	0.750			
0.4413	28245.26	3.8330	3.8331	1.5267	7.43	1.32	0.750			
0.4461	28547.59	3.8300	3.8301	1.5395	7.41	1.30	0.750			
0.4507	28842.72	3.8270	3.8269	1.5465	7.39	1.28	0.750			
0.4553	29137.68	3.8240	3.8242	1.5413	7.37	1.26	0.750			
0.4599	29436.07	3.8210	3.8210	1.5470	7.34	1.23	0.750			
0.4645	29729.54	3.8180	3.8179	1.5746	7.32	1.21	0.750			
0.4693	30032.14	3.8150	3.8150	1.6006	7.29	1.18	0.750			
0.4742	30345.86	3.8120	3.8119	1.6125	7.27	1.16	0.750			
0.4790	30658.11	3.8090	3.8092	1.6083	7.24	1.13	0.750			
0.4839	30967.98	3.8060	3.8060	1.6364	7.21	1.10	0.750			
0.4889	31286.60	3.8030	3.8027	1.6566	7.18	1.07	0.750			
0.4937	31599.04	3.8000	3.7999	1.6762	7.16	1.05	0.750			
0.4987	31918.98	3.7970	3.7973	1.7129	7.13	1.02	0.750			
0.5039	32250.73	3.7940	3.7941	1.7606	7.11	1.00	0.750			
0.5094	32598.75	3.7910	3.7909	1.8058	7.08	0.97	0.750			
0.5149	32950.77	3.7880	3.7881	1.8449	7.05	0.94	0.750			
0.5205	33310.52	3.7850	3.7849	1.8609	7.02	0.91	0.750			
0.5261	33672.03	3.7820	3.7821	1.9073	6.99	0.88	0.750			
0.5317	34029.18	3.7790	3.7791	1.9464	6.96	0.85	0.750			
0.5376	34404.90	3.7760	3.7759	2.0305	6.93	0.82	0.750			
0.5438	34802.98	3.7730	3.7730	2.1209	6.90	0.79	0.750			
0.5504	35225.62	3.7700	3.7699	2.2215	6.87	0.76	0.750			
0.5573	35664.88	3.7670	3.7669	2.3040	6.84	0.73	0.750			
0.5642	36110.33	3.7640	3.7638	2.3979	6.80	0.69	0.750			
0.5715	36572.81	3.7610	3.7610	2.5093	6.76	0.65	0.750			
0.5791	37065.40	3.7580	3.7580	2.6579	6.72	0.61	0.750			
0.5875	37601.54	3.7550	3.7551	2.7968	6.69	0.58	0.750			
0.5961	38151.43	3.7520	3.7520	2.9153	6.65	0.54	0.750			
0.6050	38721.40	3.7490	3.7490	2.9444	6.60	0.49	0.750			
0.6140	39295.94	3.7460	3.7460	2.9714	6.56	0.45	0.750			
0.6230	39872.25	3.7430	3.7429	2.9427	6.53	0.42	0.750			
0.6319	40443.69	3.7400	3.7399	2.8290	6.49	0.38	0.750			
0.6404	40983.34	3.7370	3.7369	2.5697	6.46	0.35	0.750			
0.6474	41434.21	3.7340	3.7339	2.2548	6.43	0.32	0.750			
0.6534	41814.97	3.7310	3.7311	1.9349	6.41	0.30	0.750			
0.6588	42165.52	3.7280	3.7276	1.7167	6.38	0.27	0.750			
0.6634	42456.71	3.7250	3.7252	1.5266	6.37	0.26	0.750			
0.6675	42721.91	3.7220	3.7220	1.3854	6.35	0.24	0.750			
0.6715	42975.85	3.7190	3.7189	1.3101	6.33	0.22	0.750			
0.6751	43206.12	3.7160	3.7159	1.2291	6.32	0.21	0.750			
0.6787	43437.47	3.7130	3.7130	1.1933	6.31	0.20	0.750			
0.6823	43665.67	3.7100	3.7097	1.1628	6.30	0.19	0.750			
0.6857	43882.47	3.7070	3.7072	1.1341	6.29	0.18	0.750			
0.6890	44098.48	3.7040	3.7040	1.1157	6.28	0.17	0.750			
0.6923	44309.02	3.7010	3.7009	1.0891	6.27	0.16	0.750			
0.6956	44516.40	3.6980	3.6980	1.0507	6.26	0.15	0.750			
0.6987	44717.00	3.6950	3.6951	1.0297	6.24	0.13	0.750			
0.7018	44913.37	3.6920	3.6921	1.0101	6.23	0.12	0.750			
0.7047	45103.73	3.6890	3.6889	0.9891	6.22	0.11	0.750			
0.7076	45287.71	3.6860	3.6859	0.9615	6.21	0.10	0.750			
0.7105	45472.50	3.6830	3.6830	0.9426	6.20	0.09	0.750			
0.7133	45652.43	3.6800	3.6800	0.9353	6.19	0.08	0.750			
0.7161	45829.71	3.6770	3.6772	0.9291	6.18	0.07	0.750			
0.7188	46003.81	3.6740	3.6739	0.9158	6.17	0.06	0.750			
0.7215	46179.02	3.6710	3.6710	0.9137	6.16	0.05	0.750			
0.7243	46352.65	3.6680	3.6680	0.9118	6.16	0.05	0.750			
0.7270	46529.25	3.6650	3.6651	0.9154	6.15	0.04	0.750			
0.7298	46707.51	3.6620	3.6621	0.9223	6.14	0.03	0.750			
0.7325	46883.18	3.6590	3.6590	0.9168	6.13	0.02	0.750			
0.7353	47061.87	3.6560	3.6559	0.9071	6.13	0.02	0.750			
0.7381	47239.62	3.6530	3.6529	0.8864	6.12	0.01	0.750			
0.7408	47413.49	3.6500	3.6500	0.8303	6.12	0.01	0.750			
0.7434	47577.11	3.6470	3.6471	0.7653	6.11	0.00	0.750			
0.7456	47718.97	3.6440	3.6441	0.6675	6.11	-0.00	0.750			
0.7475	47837.90	3.6410	3.6411	0.5623	6.11	-0.00	0.750			
0.7490	47933.73	3.6380	3.6379	0.4595	6.10	-0.01	0.750			
0.7500	47998.20	3.6350	3.6354	0.4013	6.10	-0.01	0.750			
0.7510	48064.42	3.6320	3.6321	0.3172	6.10	-0.01	0.750			
0.7518	48116.53	3.6290	3.6286	0.2568	6.10	-0.01	0.750			
0.7524	48153.51	3.6260	3.6249	0.1961	6.10	-0.01	0.750			
0.7529	48182.70	3.6230	3.6037	0.1499	6.10	-0.01	0.750			
0.7529	48183.43	3.5990	3.5996	-0.1229	6.10	-0.01	0.750			
0.7531	48197.32	3.6200	3.3961	0.1023	6.10	-0.01	0.762			
0.7532	48203.94	3.6020	3.2928	-0.0908	6.10	-0.01	0.769			
0.7533	48213.87	3.6170	3.1381	0.0701	6.10	-0.01	0.780			
0.7534	48218.28	3.6050	3.0693	-0.0586	6.10	-0.01	0.784			
0.7535	48224.24	3.6140	2.9764	0.0379	6.10	-0.01	0.791			
0.7535	48226.45	3.6080	2.9420	-0.0264	6.10	-0.01	0.793			
0.7536	48228.43	3.6110	2.9111	0.0058	6.10	-0.01	0.795			
