Ah_balance (normalized)	Ah_balance (mAh)	Voltage - fit (V)	Voltage -  interpolate (V)	dQ/dV (1/V)	Temperature (°C)	Temperature - diff (°C)	Current (C)	R_DC 0ms (mOhm)	R_DC 50ms (mOhm)	R_DC 50 ms PEC (mOhm)
0.0929	5948.01	4.1970	4.1997	0.9362	8.24	2.25	0.750			
0.0958	6129.52	4.1940	4.1954	0.9187	8.23	2.24	0.750			
0.0984	6300.43	4.1910	4.1919	0.8643	8.22	2.23	0.750			
0.1009	6458.63	4.1880	4.1881	0.8200	8.22	2.23	0.750			
0.1033	6613.46	4.1850	4.1848	0.7760	8.21	2.22	0.750			
0.1054	6746.86	4.1820	4.1822	0.7205	8.21	2.22	0.750			
0.1076	6888.54	4.1790	4.1790	0.7235	8.20	2.21	0.750			
0.1098	7027.99	4.1760	4.1761	0.7121	8.20	2.21	0.750			
0.1119	7162.84	4.1730	4.1729	0.7170	8.19	2.20	0.750			
0.1140	7298.83	4.1700	4.1702	0.7130	8.19	2.20	0.750			
0.1162	7434.64	4.1670	4.1668	0.7152	8.18	2.19	0.750			
0.1183	7571.77	4.1640	4.1642	0.7234	8.18	2.19	0.750			
0.1205	7713.22	4.1610	4.1609	0.7269	8.17	2.18	0.750			
0.1227	7851.08	4.1580	4.1580	0.7342	8.17	2.18	0.750			
0.1249	7993.35	4.1550	4.1550	0.7344	8.17	2.18	0.750			
0.1271	8135.86	4.1520	4.1521	0.7388	8.16	2.17	0.750			
0.1294	8279.43	4.1490	4.1489	0.7447	8.16	2.17	0.750			
0.1316	8421.35	4.1460	4.1462	0.7507	8.15	2.16	0.750			
0.1339	8566.70	4.1430	4.1428	0.7498	8.15	2.16	0.750			
0.1361	8712.67	4.1400	4.1400	0.7512	8.14	2.15	0.750			
0.1384	8855.75	4.1370	4.1371	0.7476	8.14	2.15	0.750			
0.1406	9001.08	4.1340	4.1341	0.7527	8.13	2.14	0.750			
0.1429	9144.66	4.1310	4.1309	0.7513	8.13	2.14	0.750			
0.1451	9285.02	4.1280	4.1280	0.7551	8.12	2.13	0.750			
0.1473	9430.04	4.1250	4.1250	0.7614	8.12	2.13	0.750			
0.1497	9581.29	4.1220	4.1219	0.7706	8.12	2.13	0.750			
0.1520	9729.18	4.1190	4.1190	0.7713	8.11	2.12	0.750			
0.1543	9878.34	4.1160	4.1161	0.7736	8.11	2.12	0.750			
0.1567	10026.97	4.1130	4.1131	0.7733	8.10	2.11	0.750			
0.1590	10174.42	4.1100	4.1098	0.7724	8.10	2.11	0.750			
0.1613	10320.95	4.1070	4.1070	0.7748	8.09	2.10	0.750			
0.1636	10469.10	4.1040	4.1040	0.7830	8.09	2.10	0.750			
0.1659	10620.11	4.1010	4.1010	0.7923	8.08	2.09	0.750			
0.1684	10774.68	4.0980	4.0979	0.7958	8.08	2.09	0.750			
0.1708	10929.82	4.0950	4.0949	0.7961	8.07	2.08	0.750			
0.1732	11083.54	4.0920	4.0922	0.8016	8.07	2.08	0.750			
0.1756	11237.24	4.0890	4.0890	0.8023	8.07	2.08	0.750			
0.1780	11390.13	4.0860	4.0860	0.8036	8.06	2.07	0.750			
0.1804	11544.95	4.0830	4.0831	0.8044	8.06	2.07	0.750			
0.1828	11700.25	4.0800	4.0800	0.8015	8.05	2.06	0.750			
0.1852	11854.16	4.0770	4.0770	0.8030	8.05	2.06	0.750			
0.1876	12008.52	4.0740	4.0741	0.8053	8.04	2.05	0.750			
0.1900	12160.07	4.0710	4.0711	0.8111	8.03	2.04	0.750			
0.1924	12315.67	4.0680	4.0679	0.8185	8.03	2.04	0.750			
0.1949	12475.78	4.0650	4.0650	0.8183	8.02	2.03	0.750			
0.1974	12635.56	4.0620	4.0621	0.8241	8.02	2.03	0.750			
0.1999	12793.37	4.0590	4.0591	0.8289	8.01	2.02	0.750			
0.2024	12953.37	4.0560	4.0561	0.8288	8.00	2.01	0.750			
0.2048	13110.40	4.0530	4.0529	0.8266	8.00	2.01	0.750			
0.2073	13269.46	4.0500	4.0500	0.8235	7.99	2.00	0.750			
0.2098	13426.75	4.0470	4.0471	0.8356	7.99	2.00	0.750			
0.2123	13589.21	4.0440	4.0440	0.8444	7.98	1.99	0.750			
0.2149	13751.86	4.0410	4.0410	0.8485	7.97	1.98	0.750			
0.2174	13915.46	4.0380	4.0380	0.8464	7.97	1.98	0.750			
0.2200	14080.04	4.0350	4.0352	0.8534	7.96	1.97	0.750			
0.2226	14243.89	4.0320	4.0320	0.8623	7.95	1.96	0.750			
0.2252	14410.90	4.0290	4.0289	0.8630	7.94	1.95	0.750			
0.2277	14573.65	4.0260	4.0259	0.8558	7.93	1.94	0.750			
0.2303	14740.26	4.0230	4.0231	0.8668	7.93	1.94	0.750			
0.2330	14909.05	4.0200	4.0200	0.8703	7.92	1.93	0.750			
0.2356	15076.20	4.0170	4.0169	0.8792	7.92	1.93	0.750			
0.2382	15244.06	4.0140	4.0142	0.8797	7.92	1.93	0.750			
0.2408	15413.34	4.0110	4.0108	0.8796	7.91	1.92	0.750			
0.2435	15585.55	4.0080	4.0081	0.8795	7.90	1.91	0.750			
0.2462	15753.81	4.0050	4.0050	0.8813	7.90	1.91	0.750			
0.2488	15921.38	4.0020	4.0020	0.8799	7.89	1.90	0.750			
0.2514	16091.36	3.9990	3.9990	0.8792	7.88	1.89	0.750			
0.2540	16256.84	3.9960	3.9958	0.8852	7.87	1.88	0.750			
0.2567	16429.78	3.9930	3.9931	0.8869	7.86	1.87	0.750			
0.2594	16599.90	3.9900	3.9899	0.8963	7.86	1.87	0.750			
0.2621	16772.63	3.9870	3.9870	0.9078	7.85	1.86	0.750			
0.2648	16946.18	3.9840	3.9841	0.9138	7.84	1.85	0.750			
0.2675	17122.76	3.9810	3.9809	0.9240	7.84	1.85	0.750			
0.2703	17301.99	3.9780	3.9781	0.9297	7.83	1.84	0.750			
0.2731	17480.22	3.9750	3.9750	0.9319	7.82	1.83	0.750			
0.2760	17662.90	3.9720	3.9720	0.9368	7.82	1.83	0.750			
0.2788	17842.51	3.9690	3.9688	0.9371	7.81	1.82	0.750			
0.2816	18021.89	3.9660	3.9661	0.9368	7.80	1.81	0.750			
0.2844	18201.75	3.9630	3.9629	0.9407	7.79	1.80	0.750			
0.2872	18383.01	3.9600	3.9600	0.9411	7.78	1.79	0.750			
0.2901	18563.35	3.9570	3.9570	0.9370	7.78	1.79	0.750			
0.2929	18743.90	3.9540	3.9539	0.9393	7.77	1.78	0.750			
0.2957	18923.34	3.9510	3.9512	0.9499	7.76	1.77	0.750			
0.2985	19104.25	3.9480	3.9479	0.9577	7.75	1.76	0.750			
0.3014	19288.60	3.9450	3.9449	0.9695	7.74	1.75	0.750			
0.3043	19475.76	3.9420	3.9419	0.9764	7.73	1.74	0.750			
0.3073	19666.53	3.9390	3.9391	0.9882	7.72	1.73	0.750			
0.3103	19859.68	3.9360	3.9360	1.0010	7.72	1.73	0.750			
0.3133	20051.49	3.9330	3.9330	1.0075	7.71	1.72	0.750			
0.3163	20244.09	3.9300	3.9299	1.0070	7.70	1.71	0.750			
0.3193	20437.54	3.9270	3.9270	1.0151	7.69	1.70	0.750			
0.3224	20632.94	3.9240	3.9241	1.0257	7.68	1.69	0.750			
0.3255	20832.32	3.9210	3.9210	1.0336	7.67	1.68	0.750			
0.3286	21030.55	3.9180	3.9178	1.0393	7.66	1.67	0.750			
0.3317	21227.75	3.9150	3.9151	1.0460	7.65	1.66	0.750			
0.3348	21429.46	3.9120	3.9120	1.0594	7.64	1.65	0.750			
0.3380	21635.16	3.9090	3.9090	1.0751	7.62	1.63	0.750			
0.3413	21842.40	3.9060	3.9058	1.0864	7.61	1.62	0.750			
0.3445	22050.99	3.9030	3.9032	1.0917	7.60	1.61	0.750			
0.3479	22262.45	3.9000	3.9001	1.1062	7.59	1.60	0.750			
0.3512	22474.76	3.8970	3.8970	1.1159	7.58	1.59	0.750			
0.3545	22690.49	3.8940	3.8937	1.1259	7.57	1.58	0.750			
0.3579	22904.85	3.8910	3.8912	1.1441	7.56	1.57	0.750			
0.3613	23125.07	3.8880	3.8881	1.1684	7.55	1.56	0.750			
0.3649	23354.50	3.8850	3.8849	1.1885	7.54	1.55	0.750			
0.3685	23585.23	3.8820	3.8820	1.1954	7.52	1.53	0.750			
0.3722	23818.31	3.8790	3.8790	1.2105	7.51	1.52	0.750			
0.3758	24051.07	3.8760	3.8762	1.2277	7.49	1.50	0.750			
0.3795	24286.56	3.8730	3.8732	1.2331	7.48	1.49	0.750			
0.3832	24523.34	3.8700	3.8699	1.2508	7.46	1.47	0.750			
0.3869	24762.33	3.8670	3.8670	1.2614	7.45	1.46	0.750			
0.3908	25009.68	3.8640	3.8640	1.2791	7.43	1.44	0.750			
0.3947	25261.71	3.8610	3.8611	1.2960	7.42	1.43	0.750			
0.3985	25506.14	3.8580	3.8580	1.3224	7.40	1.41	0.750			
0.4025	25758.20	3.8550	3.8551	1.3426	7.39	1.40	0.750			
0.4066	26021.15	3.8520	3.8520	1.3783	7.37	1.38	0.750			
0.4107	26285.75	3.8490	3.8491	1.4060	7.35	1.36	0.750	0.399	0.960	
0.4151	26563.21	3.8460	3.8461	1.4260	7.34	1.35	0.750			
0.4194	26840.19	3.8430	3.8430	1.4653	7.32	1.33	0.750			
0.4238	27123.79	3.8400	3.8398	1.4824	7.30	1.31	0.750			
0.4282	27405.81	3.8370	3.8371	1.5105	7.27	1.28	0.750			
0.4328	27697.59	3.8340	3.8343	1.5543	7.26	1.27	0.750			
0.4375	27999.77	3.8310	3.8310	1.5977	7.24	1.25	0.750			
0.4423	28309.44	3.8280	3.8279	1.6120	7.23	1.24	0.750			
0.4473	28624.67	3.8250	3.8250	1.6589	7.20	1.21	0.750			
0.4523	28946.95	3.8220	3.8221	1.6860	7.18	1.19	0.750			
0.4574	29273.86	3.8190	3.8188	1.7234	7.15	1.16	0.750			
0.4625	29599.45	3.8160	3.8162	1.7654	7.13	1.14	0.750			
0.4679	29947.13	3.8130	3.8130	1.8093	7.10	1.11	0.750			
0.4735	30304.99	3.8100	3.8099	1.8687	7.08	1.09	0.750			
0.4791	30660.40	3.8070	3.8070	1.9150	7.05	1.06	0.750			
0.4850	31037.01	3.8040	3.8038	1.9629	7.02	1.03	0.750			
0.4910	31421.90	3.8010	3.8008	1.9714	6.99	1.00	0.750			
0.4969	31801.62	3.7980	3.7982	1.9899	6.96	0.97	0.750			
0.5029	32183.70	3.7950	3.7949	2.0350	6.94	0.95	0.750			
0.5090	32574.74	3.7920	3.7918	2.0373	6.91	0.92	0.750			
0.5151	32966.68	3.7890	3.7890	2.0727	6.89	0.90	0.750			
0.5214	33367.57	3.7860	3.7861	2.1786	6.86	0.87	0.750			
0.5280	33793.46	3.7830	3.7827	2.2567	6.83	0.84	0.750			
0.5349	34236.18	3.7800	3.7802	2.2869	6.80	0.81	0.750			
0.5418	34672.52	3.7770	3.7771	2.3190	6.77	0.78	0.750			
0.5489	35128.71	3.7740	3.7738	2.3624	6.73	0.74	0.750			
0.5559	35574.44	3.7710	3.7711	2.3736	6.69	0.70	0.750			
0.5632	36041.89	3.7680	3.7680	2.4250	6.66	0.67	0.750			
0.5705	36513.25	3.7650	3.7649	2.4513	6.63	0.64	0.750			
0.5778	36979.31	3.7620	3.7620	2.4793	6.60	0.61	0.750			
0.5853	37458.42	3.7590	3.7590	2.5693	6.56	0.57	0.750			
0.5931	37957.39	3.7560	3.7560	2.6340	6.52	0.53	0.750			
0.6012	38474.10	3.7530	3.7532	2.6847	6.49	0.50	0.750			
0.6093	38996.96	3.7500	3.7500	2.7668	6.46	0.47	0.750			
0.6177	39532.93	3.7470	3.7470	2.8084	6.43	0.44	0.750			
0.6262	40079.64	3.7440	3.7442	2.9536	6.39	0.40	0.750			
0.6353	40657.50	3.7410	3.7409	3.1064	6.36	0.37	0.750			
0.6449	41273.86	3.7380	3.7380	3.2124	6.32	0.33	0.750			
0.6548	41910.18	3.7350	3.7350	3.2222	6.29	0.30	0.750			
0.6643	42512.39	3.7320	3.7320	3.3003	6.25	0.26	0.750			
0.6743	43156.81	3.7290	3.7290	3.3035	6.22	0.23	0.750			
0.6847	43819.82	3.7260	3.7259	3.1942	6.19	0.20	0.750			
0.6935	44383.47	3.7230	3.7232	2.8136	6.16	0.17	0.750			
0.7013	44885.18	3.7200	3.7200	2.5190	6.14	0.15	0.750			
0.7085	45343.00	3.7170	3.7170	2.2869	6.12	0.13	0.750			
0.7150	45759.53	3.7140	3.7141	2.0552	6.10	0.11	0.750			
0.7209	46139.44	3.7110	3.7111	1.8612	6.09	0.10	0.750			
0.7261	46472.88	3.7080	3.7080	1.6680	6.08	0.09	0.750			
0.7307	46767.24	3.7050	3.7049	1.4807	6.08	0.09	0.750			
0.7347	47017.72	3.7020	3.7022	1.3543	6.07	0.08	0.750			
0.7384	47254.87	3.6990	3.6989	1.2419	6.06	0.07	0.750			
0.7419	47484.14	3.6960	3.6958	1.1862	6.05	0.06	0.750			
0.7453	47698.88	3.6930	3.6931	1.1380	6.04	0.05	0.750			
0.7487	47915.30	3.6900	3.6900	1.1079	6.04	0.05	0.750			
0.7519	48123.34	3.6870	3.6870	1.0806	6.03	0.04	0.750			
0.7551	48327.43	3.6840	3.6842	1.0513	6.03	0.04	0.750			
0.7582	48524.75	3.6810	3.6809	1.0296	6.03	0.04	0.750			
0.7613	48722.84	3.6780	3.6780	1.0183	6.02	0.03	0.750			
0.7643	48913.93	3.6750	3.6751	1.0062	6.02	0.03	0.750			
0.7673	49106.40	3.6720	3.6720	0.9926	6.02	0.03	0.750			
0.7703	49297.50	3.6690	3.6689	0.9811	6.01	0.02	0.750			
0.7732	49484.53	3.6660	3.6661	0.9590	6.01	0.02	0.750			
0.7761	49668.16	3.6630	3.6630	0.9415	6.00	0.01	0.750			
0.7789	49847.67	3.6600	3.6599	0.9149	6.00	0.01	0.750			
0.7816	50020.10	3.6570	3.6571	0.8930	6.00	0.01	0.750			
0.7842	50186.40	3.6540	3.6540	0.8795	6.00	0.01	0.750			
0.7868	50352.89	3.6510	3.6511	0.8726	5.99	0.00	0.750			
0.7893	50518.06	3.6480	3.6479	0.8718	5.99	0.00	0.750			
0.7920	50684.82	3.6450	3.6450	0.8789	5.99	-0.00	0.750			
0.7946	50855.58	3.6420	3.6420	0.8756	5.99	-0.00	0.750			
0.7973	51027.14	3.6390	3.6390	0.8791	5.99	-0.00	0.750			
0.7999	51196.21	3.6360	3.6360	0.8658	5.98	-0.01	0.750			
0.8026	51363.36	3.6330	3.6331	0.8379	5.98	-0.01	0.750			
0.8051	51528.26	3.6300	3.6300	0.7947	5.98	-0.01	0.750			
0.8075	51679.21	3.6270	3.6271	0.7344	5.98	-0.01	0.750			
0.8097	51819.91	3.6240	3.6241	0.6568	5.98	-0.01	0.750			
0.8116	51940.47	3.6210	3.6210	0.5712	5.99	-0.00	0.750			
0.8131	52040.33	3.6180	3.6180	0.4800	5.99	-0.00	0.750			
0.8143	52115.33	3.6150	3.6153	0.4055	5.99	-0.00	0.750			
0.8154	52183.59	3.6120	3.6120	0.3258	5.99	-0.00	0.750			
0.8162	52237.08	3.6090	3.6089	0.2554	5.99	-0.00	0.750			
0.8168	52275.54	3.6060	3.6058	0.1888	5.99	0.00	0.750			
0.8173	52305.28	3.6030	3.6024	0.1343	5.99	0.00	0.750			
0.8176	52325.48	3.6000	3.5953	0.0827	5.99	0.00	0.750			
0.8176	52328.74	3.5910	3.5853	-0.0587	5.99	0.00	0.750			
0.8177	52333.39	3.5970	3.5405	0.0345	5.99	0.00	0.752			
0.8177	52335.54	3.5940	3.5193	-0.0121	5.99	0.00	0.753			
