Ah_balance (normalized)	Ah_balance (mAh)	Voltage - fit (V)	Voltage -  interpolate (V)	dQ/dV (1/V)	Temperature (°C)	Temperature - diff (°C)	Current (C)	R_DC 0ms (mOhm)	R_DC 50ms (mOhm)	R_DC 50 ms PEC (mOhm)
0.0002	13.05	4.1060	4.1046	-0.0440	6.00	0.00	-0.750			
0.0004	24.79	4.1030	4.1023	-0.0750	6.00	0.00	-0.750			
0.0007	42.90	4.1000	4.0997	-0.1039	6.00	0.00	-0.750			
0.0010	65.47	4.0970	4.0970	-0.1312	6.00	0.00	-0.750			
0.0015	93.64	4.0940	4.0940	-0.1551	6.00	0.00	-0.750			
0.0020	126.03	4.0910	4.0912	-0.1780	6.00	0.00	-0.750			
0.0026	163.70	4.0880	4.0879	-0.2033	6.00	0.00	-0.750			
0.0032	204.30	4.0850	4.0851	-0.2283	6.00	0.00	-0.750			
0.0039	250.08	4.0820	4.0820	-0.2523	6.00	-0.00	-0.750			
0.0047	300.92	4.0790	4.0789	-0.2734	6.00	-0.00	-0.750			
0.0056	355.98	4.0760	4.0761	-0.2969	6.00	-0.00	-0.750			
0.0065	415.51	4.0730	4.0731	-0.3204	6.00	-0.00	-0.750			
0.0075	479.36	4.0700	4.0699	-0.3413	6.00	-0.00	-0.750			
0.0086	547.34	4.0670	4.0670	-0.3580	6.00	-0.00	-0.750			
0.0096	617.33	4.0640	4.0640	-0.3777	6.00	-0.00	-0.750			
0.0108	690.67	4.0610	4.0612	-0.4017	5.99	-0.01	-0.750			
0.0120	769.79	4.0580	4.0579	-0.4271	5.99	-0.01	-0.750			
0.0133	853.04	4.0550	4.0549	-0.4501	5.99	-0.01	-0.750			
0.0147	942.88	4.0520	4.0519	-0.4726	5.99	-0.01	-0.750			
0.0162	1037.32	4.0490	4.0491	-0.4966	5.99	-0.01	-0.750			
0.0177	1135.80	4.0460	4.0460	-0.5165	5.99	-0.01	-0.750			
0.0193	1236.37	4.0430	4.0431	-0.5318	6.00	-0.00	-0.750			
0.0209	1339.73	4.0400	4.0399	-0.5475	6.00	-0.00	-0.750			
0.0226	1446.29	4.0370	4.0371	-0.5621	6.00	0.00	-0.750			
0.0243	1556.30	4.0340	4.0340	-0.5770	6.00	0.00	-0.750			
0.0261	1669.46	4.0310	4.0310	-0.5955	6.01	0.01	-0.750			
0.0279	1784.91	4.0280	4.0280	-0.6049	6.01	0.01	-0.750			
0.0297	1901.90	4.0250	4.0249	-0.6176	6.01	0.01	-0.750			
0.0316	2020.70	4.0220	4.0221	-0.6372	6.02	0.02	-0.750			
0.0335	2144.75	4.0190	4.0189	-0.6496	6.02	0.02	-0.750			
0.0355	2273.66	4.0160	4.0159	-0.6629	6.03	0.03	-0.750			
0.0376	2404.98	4.0130	4.0131	-0.6713	6.03	0.03	-0.750			
0.0396	2533.51	4.0100	4.0100	-0.6781	6.04	0.04	-0.750			
0.0416	2664.61	4.0070	4.0071	-0.6872	6.04	0.04	-0.750			
0.0437	2796.51	4.0040	4.0038	-0.6862	6.05	0.05	-0.750			
0.0457	2926.90	4.0010	4.0010	-0.6895	6.06	0.06	-0.750			
0.0478	3059.63	3.9980	3.9980	-0.6933	6.06	0.06	-0.750			
0.0499	3196.40	3.9950	3.9951	-0.7048	6.07	0.07	-0.750			
0.0521	3333.13	3.9920	3.9918	-0.7068	6.08	0.08	-0.750			
0.0542	3466.73	3.9890	3.9891	-0.7064	6.08	0.08	-0.750			
0.0563	3602.52	3.9860	3.9860	-0.7112	6.09	0.09	-0.750			
0.0585	3740.91	3.9830	3.9830	-0.7191	6.10	0.10	-0.750			
0.0606	3878.68	3.9800	3.9798	-0.7206	6.10	0.10	-0.750			
0.0628	4017.03	3.9770	3.9771	-0.7281	6.11	0.11	-0.750			
0.0650	4158.52	3.9740	3.9740	-0.7346	6.12	0.12	-0.750			
0.0672	4300.16	3.9710	3.9710	-0.7401	6.12	0.12	-0.750			
0.0694	4441.90	3.9680	3.9680	-0.7431	6.13	0.13	-0.750			
0.0717	4586.15	3.9650	3.9651	-0.7462	6.14	0.14	-0.750			
0.0739	4731.97	3.9620	3.9619	-0.7444	6.15	0.15	-0.750			
0.0762	4874.97	3.9590	3.9589	-0.7400	6.16	0.16	-0.750			
0.0784	5015.14	3.9560	3.9563	-0.7377	6.17	0.17	-0.750			
0.0806	5155.34	3.9530	3.9530	-0.7422	6.18	0.18	-0.750			
0.0828	5296.03	3.9500	3.9499	-0.7485	6.19	0.19	-0.750			
0.0850	5441.50	3.9470	3.9469	-0.7538	6.20	0.20	-0.750			
0.0873	5588.28	3.9440	3.9439	-0.7618	6.21	0.21	-0.750			
0.0896	5735.58	3.9410	3.9412	-0.7705	6.21	0.21	-0.750			
0.0920	5885.84	3.9380	3.9380	-0.7732	6.22	0.22	-0.750			
0.0943	6033.21	3.9350	3.9349	-0.7709	6.23	0.23	-0.750			
0.0966	6179.69	3.9320	3.9321	-0.7677	6.24	0.24	-0.750			
0.0989	6327.99	3.9290	3.9291	-0.7703	6.25	0.25	-0.750			
0.1012	6476.60	3.9260	3.9258	-0.7753	6.25	0.25	-0.750			
0.1035	6625.13	3.9230	3.9233	-0.7782	6.26	0.26	-0.750			
0.1058	6773.76	3.9200	3.9201	-0.7799	6.27	0.27	-0.750			
0.1082	6926.01	3.9170	3.9169	-0.7904	6.28	0.28	-0.750			
0.1106	7079.06	3.9140	3.9139	-0.7908	6.29	0.29	-0.750			
0.1130	7229.55	3.9110	3.9111	-0.7929	6.30	0.30	-0.750			
0.1153	7382.35	3.9080	3.9081	-0.7950	6.31	0.31	-0.750			
0.1177	7535.79	3.9050	3.9049	-0.7949	6.32	0.32	-0.750			
0.1201	7687.65	3.9020	3.9019	-0.7995	6.33	0.33	-0.750			
0.1225	7841.85	3.8990	3.8991	-0.7924	6.34	0.34	-0.750			
0.1249	7993.13	3.8960	3.8960	-0.7909	6.35	0.35	-0.750			
0.1273	8146.66	3.8930	3.8931	-0.7923	6.36	0.36	-0.750			
0.1296	8296.90	3.8900	3.8898	-0.7908	6.37	0.37	-0.750			
0.1320	8446.28	3.8870	3.8870	-0.7970	6.38	0.38	-0.750			
0.1344	8600.67	3.8840	3.8840	-0.8014	6.39	0.39	-0.750			
0.1368	8755.02	3.8810	3.8810	-0.8038	6.40	0.40	-0.750			
0.1393	8913.06	3.8780	3.8779	-0.8095	6.41	0.41	-0.750			
0.1417	9068.54	3.8750	3.8752	-0.8062	6.42	0.42	-0.750			
0.1441	9223.98	3.8720	3.8719	-0.8019	6.43	0.43	-0.750			
0.1465	9375.39	3.8690	3.8690	-0.8001	6.44	0.44	-0.750			
0.1489	9527.09	3.8660	3.8661	-0.7936	6.45	0.45	-0.750			
0.1512	9679.51	3.8630	3.8630	-0.8058	6.46	0.46	-0.750			
0.1537	9834.57	3.8600	3.8600	-0.8140	6.47	0.47	-0.750			
0.1561	9991.71	3.8570	3.8570	-0.8229	6.48	0.48	-0.750			
0.1586	10152.62	3.8540	3.8538	-0.8322	6.49	0.49	-0.750			
0.1612	10315.23	3.8510	3.8511	-0.8308	6.51	0.51	-0.750			
0.1637	10476.23	3.8480	3.8480	-0.8256	6.52	0.52	-0.750			
0.1662	10634.71	3.8450	3.8452	-0.8211	6.53	0.53	-0.750			
0.1686	10788.64	3.8420	3.8420	-0.8097	6.54	0.54	-0.750			
0.1710	10943.07	3.8390	3.8390	-0.8125	6.55	0.55	-0.750			
0.1734	11096.50	3.8360	3.8360	-0.8151	6.56	0.56	-0.750			
0.1759	11256.32	3.8330	3.8329	-0.8201	6.57	0.57	-0.750			
0.1783	11414.28	3.8300	3.8301	-0.8232	6.58	0.58	-0.750			
0.1809	11574.65	3.8270	3.8270	-0.8270	6.59	0.59	-0.750			
0.1833	11732.03	3.8240	3.8240	-0.8363	6.60	0.60	-0.750			
0.1858	11893.61	3.8210	3.8209	-0.8337	6.61	0.61	-0.750			
0.1884	12054.42	3.8180	3.8181	-0.8320	6.62	0.62	-0.750			
0.1908	12214.37	3.8150	3.8153	-0.8355	6.63	0.63	-0.750			
0.1934	12374.87	3.8120	3.8120	-0.8407	6.64	0.64	-0.750			
0.1959	12535.16	3.8090	3.8089	-0.8433	6.65	0.65	-0.750			
0.1984	12698.56	3.8060	3.8058	-0.8399	6.65	0.65	-0.750			
0.2010	12861.24	3.8030	3.8031	-0.8433	6.66	0.66	-0.750			
0.2035	13024.01	3.8000	3.8002	-0.8426	6.67	0.67	-0.750			
0.2060	13185.89	3.7970	3.7970	-0.8413	6.68	0.68	-0.750			
0.2085	13344.28	3.7940	3.7939	-0.8460	6.70	0.70	-0.750			
0.2110	13504.68	3.7910	3.7909	-0.8421	6.71	0.71	-0.750			
0.2136	13668.43	3.7880	3.7880	-0.8525	6.73	0.73	-0.750			
0.2162	13834.45	3.7850	3.7853	-0.8565	6.74	0.74	-0.750			
0.2188	14000.83	3.7820	3.7818	-0.8558	6.75	0.75	-0.750			
0.2213	14165.41	3.7790	3.7790	-0.8613	6.76	0.76	-0.750			
0.2239	14328.98	3.7760	3.7761	-0.8531	6.77	0.77	-0.750			
0.2265	14494.18	3.7730	3.7728	-0.8523	6.78	0.78	-0.750			
0.2290	14657.26	3.7700	3.7703	-0.8605	6.79	0.79	-0.750			
0.2316	14819.37	3.7670	3.7668	-0.8615	6.80	0.80	-0.750			
0.2342	14987.91	3.7640	3.7639	-0.8636	6.81	0.81	-0.750			
0.2368	15155.19	3.7610	3.7611	-0.8626	6.82	0.82	-0.750			
0.2394	15322.50	3.7580	3.7580	-0.8653	6.82	0.82	-0.750			
0.2420	15489.12	3.7550	3.7549	-0.8626	6.83	0.83	-0.750			
0.2446	15653.03	3.7520	3.7519	-0.8580	6.84	0.84	-0.750			
0.2471	15813.18	3.7490	3.7490	-0.8591	6.85	0.85	-0.750			
0.2496	15975.79	3.7460	3.7461	-0.8652	6.86	0.86	-0.750			
0.2523	16146.70	3.7430	3.7429	-0.8805	6.88	0.88	-0.750			
0.2549	16315.29	3.7400	3.7400	-0.8897	6.88	0.88	-0.750			
0.2576	16488.11	3.7370	3.7370	-0.9004	6.89	0.89	-0.750			
0.2604	16664.93	3.7340	3.7340	-0.9043	6.90	0.90	-0.750			
0.2631	16838.78	3.7310	3.7309	-0.9063	6.91	0.91	-0.750			
0.2659	17015.09	3.7280	3.7283	-0.8944	6.92	0.92	-0.750			
0.2685	17185.95	3.7250	3.7249	-0.8915	6.93	0.93	-0.750			
0.2712	17355.07	3.7220	3.7220	-0.8889	6.94	0.94	-0.750			
0.2738	17522.67	3.7190	3.7191	-0.8817	6.95	0.95	-0.750			
0.2764	17691.63	3.7160	3.7158	-0.8956	6.96	0.96	-0.750			
0.2791	17863.53	3.7130	3.7131	-0.9023	6.97	0.97	-0.750			
0.2818	18037.87	3.7100	3.7100	-0.9099	6.98	0.98	-0.750			
0.2846	18215.47	3.7070	3.7069	-0.9270	6.99	0.99	-0.750			
0.2874	18394.74	3.7040	3.7040	-0.9302	7.00	1.00	-0.750			
0.2902	18572.46	3.7010	3.7010	-0.9346	7.01	1.01	-0.750			
0.2930	18754.24	3.6980	3.6979	-0.9381	7.02	1.02	-0.750			
0.2958	18932.91	3.6950	3.6951	-0.9385	7.03	1.03	-0.750			
0.2987	19115.63	3.6920	3.6920	-0.9386	7.03	1.03	-0.750			
0.3015	19295.24	3.6890	3.6890	-0.9431	7.04	1.04	-0.750			
0.3043	19474.31	3.6860	3.6860	-0.9475	7.05	1.05	-0.750			
0.3071	19657.36	3.6830	3.6830	-0.9606	7.06	1.06	-0.750			
0.3100	19841.13	3.6800	3.6799	-0.9692	7.07	1.07	-0.750			
0.3130	20031.06	3.6770	3.6770	-0.9753	7.08	1.08	-0.750			
0.3159	20218.73	3.6740	3.6740	-0.9875	7.09	1.09	-0.750			
0.3189	20410.60	3.6710	3.6710	-0.9964	7.10	1.10	-0.750			
0.3219	20601.80	3.6680	3.6680	-0.9975	7.11	1.11	-0.750			
0.3249	20793.43	3.6650	3.6650	-1.0076	7.12	1.12	-0.750			
0.3279	20986.91	3.6620	3.6619	-1.0165	7.13	1.13	-0.750			
0.3310	21183.82	3.6590	3.6590	-1.0266	7.14	1.14	-0.750			
0.3341	21382.34	3.6560	3.6560	-1.0367	7.15	1.15	-0.750			
0.3372	21580.72	3.6530	3.6530	-1.0461	7.16	1.16	-0.750			
0.3404	21784.25	3.6500	3.6500	-1.0504	7.17	1.17	-0.750			
0.3436	21988.24	3.6470	3.6469	-1.0649	7.17	1.17	-0.750			
0.3468	22193.10	3.6440	3.6441	-1.0659	7.18	1.18	-0.750			
0.3500	22398.22	3.6410	3.6410	-1.0694	7.18	1.18	-0.750			
0.3532	22602.78	3.6380	3.6379	-1.0793	7.19	1.19	-0.750			
0.3564	22810.76	3.6350	3.6350	-1.0884	7.20	1.20	-0.750			
0.3597	23019.39	3.6320	3.6319	-1.1041	7.20	1.20	-0.750			
0.3630	23233.77	3.6290	3.6290	-1.1228	7.21	1.21	-0.750			
0.3664	23450.63	3.6260	3.6260	-1.1283	7.22	1.22	-0.750			
0.3699	23672.70	3.6230	3.6230	-1.1391	7.23	1.23	-0.750			
0.3733	23892.70	3.6200	3.6200	-1.1368	7.23	1.23	-0.750			
0.3767	24109.22	3.6170	3.6171	-1.1397	7.24	1.24	-0.750			
0.3801	24327.61	3.6140	3.6140	-1.1526	7.24	1.24	-0.750			
0.3835	24545.88	3.6110	3.6110	-1.1662	7.25	1.25	-0.750			
0.3870	24770.01	3.6080	3.6079	-1.1856	7.26	1.26	-0.750			
0.3906	25000.22	3.6050	3.6051	-1.2174	7.27	1.27	-0.750			
0.3944	25239.62	3.6020	3.6020	-1.2336	7.28	1.28	-0.750			
0.3982	25483.74	3.5990	3.5990	-1.2431	7.28	1.28	-0.750			
0.4019	25720.07	3.5960	3.5961	-1.2527	7.29	1.29	-0.750	0.429	0.935	
0.4056	25959.30	3.5930	3.5931	-1.2605	7.29	1.29	-0.750			
0.4094	26202.49	3.5900	3.5899	-1.2681	7.30	1.30	-0.750			
0.4133	26448.43	3.5870	3.5868	-1.2757	7.31	1.31	-0.750			
0.4171	26692.48	3.5840	3.5842	-1.2817	7.31	1.31	-0.750			
0.4210	26941.74	3.5810	3.5811	-1.2967	7.32	1.32	-0.750			
0.4249	27193.00	3.5780	3.5780	-1.3126	7.32	1.32	-0.750			
0.4288	27440.93	3.5750	3.5750	-1.3114	7.33	1.33	-0.750			
0.4328	27698.79	3.5720	3.5719	-1.3247	7.34	1.34	-0.750			
0.4368	27954.62	3.5690	3.5690	-1.3450	7.34	1.34	-0.750			
0.4408	28212.84	3.5660	3.5663	-1.3627	7.35	1.35	-0.750			
0.4449	28475.09	3.5630	3.5629	-1.3782	7.36	1.36	-0.750			
0.4491	28743.10	3.5600	3.5598	-1.3852	7.37	1.37	-0.750			
0.4533	29009.07	3.5570	3.5571	-1.3967	7.38	1.38	-0.750			
0.4576	29283.72	3.5540	3.5541	-1.4167	7.39	1.39	-0.750			
0.4618	29555.36	3.5510	3.5510	-1.4155	7.39	1.39	-0.750			
0.4660	29825.08	3.5480	3.5482	-1.4213	7.40	1.40	-0.750			
0.4703	30097.07	3.5450	3.5449	-1.4367	7.41	1.41	-0.750			
0.4746	30372.01	3.5420	3.5420	-1.4555	7.41	1.41	-0.750			
0.4790	30655.64	3.5390	3.5392	-1.4725	7.42	1.42	-0.750			
0.4835	30944.50	3.5360	3.5357	-1.4828	7.43	1.43	-0.750			
0.4880	31231.54	3.5330	3.5331	-1.4804	7.44	1.44	-0.750			
0.4924	31510.93	3.5300	3.5302	-1.4878	7.44	1.44	-0.750			
0.4969	31799.39	3.5270	3.5271	-1.4963	7.45	1.45	-0.750			
0.5013	32082.93	3.5240	3.5238	-1.4778	7.46	1.46	-0.750			
0.5058	32369.52	3.5210	3.5209	-1.4824	7.48	1.48	-0.750			
0.5102	32654.02	3.5180	3.5183	-1.4973	7.49	1.49	-0.750			
0.5148	32945.70	3.5150	3.5150	-1.5046	7.50	1.50	-0.750			
0.5192	33230.44	3.5120	3.5119	-1.5040	7.51	1.51	-0.750			
0.5238	33520.36	3.5090	3.5088	-1.5019	7.51	1.51	-0.750			
0.5283	33812.83	3.5060	3.5061	-1.5095	7.52	1.52	-0.750			
0.5329	34105.71	3.5030	3.5031	-1.5148	7.53	1.53	-0.750			
0.5375	34398.08	3.5000	3.4999	-1.5132	7.53	1.53	-0.750			
0.5420	34686.68	3.4970	3.4970	-1.4982	7.54	1.54	-0.750			
0.5464	34970.34	3.4940	3.4942	-1.4864	7.55	1.55	-0.750			
0.5508	35251.80	3.4910	3.4910	-1.4865	7.56	1.56	-0.750			
0.5553	35539.70	3.4880	3.4880	-1.4916	7.58	1.58	-0.750			
0.5598	35827.33	3.4850	3.4849	-1.5004	7.59	1.59	-0.750			
0.5643	36116.11	3.4820	3.4819	-1.4933	7.60	1.60	-0.750			
0.5688	36402.97	3.4790	3.4790	-1.4848	7.62	1.62	-0.750			
0.5733	36691.20	3.4760	3.4759	-1.4675	7.63	1.63	-0.750			
0.5777	36972.78	3.4730	3.4732	-1.4433	7.64	1.64	-0.750			
0.5819	37241.89	3.4700	3.4700	-1.4272	7.65	1.65	-0.750			
0.5862	37515.65	3.4670	3.4670	-1.4155	7.66	1.66	-0.750			
0.5904	37784.69	3.4640	3.4640	-1.4072	7.67	1.67	-0.750			
0.5946	38054.69	3.4610	3.4609	-1.3985	7.68	1.68	-0.750			
0.5988	38326.00	3.4580	3.4580	-1.3814	7.69	1.69	-0.750			
0.6030	38590.30	3.4550	3.4551	-1.3704	7.70	1.70	-0.750			
0.6071	38851.59	3.4520	3.4520	-1.3479	7.71	1.71	-0.750			
0.6110	39104.34	3.4490	3.4490	-1.3231	7.73	1.73	-0.750			
0.6150	39358.24	3.4460	3.4460	-1.3263	7.75	1.75	-0.750			
0.6189	39609.73	3.4430	3.4430	-1.3143	7.76	1.76	-0.750			
0.6229	39864.90	3.4400	3.4400	-1.3081	7.77	1.77	-0.750			
0.6268	40115.83	3.4370	3.4369	-1.2905	7.78	1.78	-0.750			
0.6307	40362.20	3.4340	3.4340	-1.2666	7.79	1.79	-0.750			
0.6345	40607.73	3.4310	3.4310	-1.2391	7.80	1.80	-0.750			
0.6381	40841.17	3.4280	3.4279	-1.2044	7.81	1.81	-0.750			
0.6416	41064.14	3.4250	3.4253	-1.1830	7.82	1.82	-0.750			
0.6452	41291.10	3.4220	3.4218	-1.1620	7.84	1.84	-0.750			
0.6486	41510.87	3.4190	3.4190	-1.1429	7.85	1.85	-0.750			
0.6520	41729.31	3.4160	3.4160	-1.1190	7.86	1.86	-0.750			
0.6554	41944.45	3.4130	3.4128	-1.0991	7.88	1.88	-0.750			
0.6587	42154.89	3.4100	3.4100	-1.0727	7.89	1.89	-0.750			
0.6618	42357.34	3.4070	3.4069	-1.0385	7.90	1.90	-0.750			
0.6649	42551.15	3.4040	3.4040	-1.0065	7.92	1.92	-0.750			
0.6679	42743.97	3.4010	3.4009	-0.9877	7.93	1.93	-0.750			
0.6707	42927.16	3.3980	3.3980	-0.9603	7.94	1.94	-0.750			
0.6736	43110.02	3.3950	3.3949	-0.9372	7.95	1.95	-0.750			
0.6764	43286.68	3.3920	3.3920	-0.9145	7.96	1.96	-0.750			
0.6791	43462.43	3.3890	3.3891	-0.8909	7.97	1.97	-0.750			
0.6817	43631.76	3.3860	3.3860	-0.8659	7.98	1.98	-0.750			
0.6843	43796.05	3.3830	3.3830	-0.8370	7.99	1.99	-0.750			
0.6868	43952.78	3.3800	3.3800	-0.8149	8.00	2.00	-0.750			
0.6891	44105.26	3.3770	3.3770	-0.7931	8.01	2.01	-0.750			
0.6915	44255.95	3.3740	3.3740	-0.7741	8.02	2.02	-0.750			
0.6938	44402.69	3.3710	3.3710	-0.7511	8.04	2.04	-0.750			
0.6960	44545.14	3.3680	3.3681	-0.7354	8.05	2.05	-0.750			
0.6982	44684.59	3.3650	3.3650	-0.7137	8.07	2.07	-0.750			
0.7003	44821.56	3.3620	3.3619	-0.6955	8.08	2.08	-0.750			
0.7024	44950.82	3.3590	3.3590	-0.6692	8.09	2.09	-0.750			
0.7043	45075.75	3.3560	3.3561	-0.6517	8.10	2.10	-0.750			
0.7062	45199.68	3.3530	3.3530	-0.6336	8.12	2.12	-0.750			
0.7081	45318.86	3.3500	3.3497	-0.6186	8.13	2.13	-0.750			
0.7099	45435.19	3.3470	3.3471	-0.6006	8.14	2.14	-0.750			
0.7117	45550.36	3.3440	3.3440	-0.5898	8.15	2.15	-0.750			
0.7135	45663.17	3.3410	3.3409	-0.5779	8.16	2.16	-0.750			
0.7152	45773.57	3.3380	3.3380	-0.5624	8.17	2.17	-0.750			
0.7169	45878.51	3.3350	3.3348	-0.5424	8.18	2.18	-0.750			
0.7185	45981.83	3.3320	3.3320	-0.5291	8.19	2.19	-0.750			
0.7200	46080.09	3.3290	3.3292	-0.5118	8.20	2.20	-0.750			
0.7215	46176.51	3.3260	3.3259	-0.5009	8.21	2.21	-0.750			
0.7230	46272.22	3.3230	3.3229	-0.4907	8.22	2.22	-0.750			
0.7244	46364.12	3.3200	3.3200	-0.4780	8.23	2.23	-0.750			
0.7259	46455.20	3.3170	3.3170	-0.4705	8.24	2.24	-0.750			
0.7273	46545.89	3.3140	3.3140	-0.4621	8.25	2.25	-0.750			
0.7287	46633.96	3.3110	3.3110	-0.4482	8.26	2.26	-0.750			
0.7300	46718.05	3.3080	3.3080	-0.4386	8.27	2.27	-0.750			
0.7313	46801.22	3.3050	3.3051	-0.4289	8.28	2.28	-0.750			
0.7325	46882.32	3.3020	3.3019	-0.4186	8.29	2.29	-0.750			
0.7338	46961.96	3.2990	3.2989	-0.4093	8.29	2.29	-0.750			
0.7350	47038.95	3.2960	3.2961	-0.3976	8.30	2.30	-0.750			
0.7362	47114.33	3.2930	3.2931	-0.3899	8.31	2.31	-0.750			
0.7373	47188.87	3.2900	3.2899	-0.3798	8.32	2.32	-0.750			
0.7384	47259.11	3.2870	3.2871	-0.3686	8.32	2.32	-0.750			
0.7395	47329.99	3.2840	3.2839	-0.3618	8.33	2.33	-0.750			
0.7406	47398.64	3.2810	3.2810	-0.3547	8.34	2.34	-0.750			
0.7416	47465.56	3.2780	3.2779	-0.3499	8.35	2.35	-0.750			
0.7427	47532.08	3.2750	3.2751	-0.3447	8.36	2.36	-0.750			
0.7437	47597.79	3.2720	3.2719	-0.3399	8.36	2.36	-0.750			
0.7447	47662.02	3.2690	3.2691	-0.3333	8.37	2.37	-0.750			
0.7457	47726.50	3.2660	3.2660	-0.3277	8.38	2.38	-0.750			
0.7467	47789.20	3.2630	3.2630	-0.3231	8.39	2.39	-0.750			
0.7477	47850.66	3.2600	3.2600	-0.3156	8.40	2.40	-0.750			
0.7486	47910.18	3.2570	3.2570	-0.3085	8.41	2.41	-0.750			
0.7495	47968.59	3.2540	3.2540	-0.3035	8.42	2.42	-0.750			
0.7504	48026.08	3.2510	3.2511	-0.2988	8.43	2.43	-0.750			
0.7513	48083.25	3.2480	3.2479	-0.2945	8.43	2.43	-0.750			
0.7522	48139.49	3.2450	3.2450	-0.2891	8.44	2.44	-0.750			
0.7530	48194.53	3.2420	3.2420	-0.2830	8.45	2.45	-0.750			
0.7539	48248.80	3.2390	3.2389	-0.2778	8.45	2.45	-0.750			
0.7547	48301.58	3.2360	3.2360	-0.2716	8.46	2.46	-0.750			
0.7555	48352.41	3.2330	3.2331	-0.2665	8.47	2.47	-0.750			
0.7563	48402.62	3.2300	3.2300	-0.2625	8.48	2.48	-0.750			
0.7571	48452.51	3.2270	3.2270	-0.2591	8.49	2.49	-0.750			
0.7578	48502.01	3.2240	3.2240	-0.2568	8.49	2.49	-0.750			
0.7586	48551.08	3.2210	3.2210	-0.2543	8.50	2.50	-0.750			
0.7594	48600.12	3.2180	3.2180	-0.2512	8.51	2.51	-0.750			
0.7601	48648.18	3.2150	3.2150	-0.2480	8.52	2.52	-0.750			
0.7609	48695.55	3.2120	3.2119	-0.2441	8.52	2.52	-0.750			
0.7616	48741.69	3.2090	3.2090	-0.2400	8.53	2.53	-0.750			
0.7623	48787.43	3.2060	3.2060	-0.2368	8.54	2.54	-0.750			
0.7630	48832.63	3.2030	3.2029	-0.2331	8.55	2.55	-0.750			
0.7637	48877.07	3.2000	3.2000	-0.2293	8.55	2.55	-0.750			
0.7644	48920.63	3.1970	3.1970	-0.2255	8.56	2.56	-0.750			
0.7651	48963.76	3.1940	3.1940	-0.2227	8.56	2.56	-0.750			
0.7657	49005.89	3.1910	3.1909	-0.2193	8.57	2.57	-0.750			
0.7664	49047.60	3.1880	3.1880	-0.2169	8.57	2.57	-0.750			
0.7670	49088.83	3.1850	3.1850	-0.2144	8.58	2.58	-0.750			
0.7676	49129.47	3.1820	3.1820	-0.2126	8.59	2.59	-0.750			
0.7683	49170.56	3.1790	3.1790	-0.2099	8.60	2.60	-0.750			
0.7689	49210.88	3.1760	3.1761	-0.2074	8.61	2.61	-0.750			
0.7695	49250.39	3.1730	3.1729	-0.2041	8.61	2.61	-0.750			
0.7701	49289.22	3.1700	3.1701	-0.2021	8.62	2.62	-0.750			
0.7707	49327.68	3.1670	3.1669	-0.1995	8.63	2.63	-0.750			
0.7713	49365.43	3.1640	3.1639	-0.1969	8.64	2.64	-0.750			
0.7719	49403.07	3.1610	3.1610	-0.1952	8.64	2.64	-0.750			
0.7725	49440.31	3.1580	3.1581	-0.1922	8.65	2.65	-0.750			
0.7731	49477.49	3.1550	3.1550	-0.1905	8.66	2.66	-0.750			
0.7737	49513.92	3.1520	3.1520	-0.1876	8.66	2.66	-0.750			
0.7742	49549.50	3.1490	3.1491	-0.1853	8.67	2.67	-0.750			
0.7748	49584.45	3.1460	3.1459	-0.1831	8.68	2.68	-0.750			
0.7753	49619.33	3.1430	3.1430	-0.1813	8.68	2.68	-0.750			
0.7758	49653.73	3.1400	3.1400	-0.1794	8.69	2.69	-0.750			
0.7764	49688.08	3.1370	3.1370	-0.1784	8.70	2.70	-0.750			
0.7769	49722.40	3.1340	3.1340	-0.1772	8.70	2.70	-0.750			
0.7774	49756.49	3.1310	3.1310	-0.1755	8.71	2.71	-0.750			
0.7780	49789.99	3.1280	3.1279	-0.1735	8.71	2.71	-0.750			
0.7785	49823.12	3.1250	3.1251	-0.1719	8.72	2.72	-0.750			
0.7790	49855.91	3.1220	3.1220	-0.1705	8.73	2.73	-0.750			
0.7795	49888.51	3.1190	3.1189	-0.1688	8.73	2.73	-0.750			
0.7800	49920.75	3.1160	3.1159	-0.1671	8.74	2.74	-0.750			
0.7805	49952.59	3.1130	3.1131	-0.1651	8.75	2.75	-0.750			
0.7810	49984.25	3.1100	3.1100	-0.1632	8.76	2.76	-0.750			
0.7815	50015.52	3.1070	3.1071	-0.1616	8.76	2.76	-0.750			
0.7820	50046.32	3.1040	3.1039	-0.1593	8.77	2.77	-0.750			
0.7824	50076.39	3.1010	3.1010	-0.1586	8.78	2.78	-0.750			
0.7829	50106.50	3.0980	3.0980	-0.1573	8.78	2.78	-0.750			
0.7834	50136.70	3.0950	3.0948	-0.1562	8.79	2.79	-0.750			
0.7839	50166.63	3.0920	3.0921	-0.1555	8.80	2.80	-0.750			
0.7843	50196.49	3.0890	3.0891	-0.1545	8.81	2.81	-0.750			
0.7848	50226.26	3.0860	3.0860	-0.1536	8.81	2.81	-0.750			
0.7852	50255.59	3.0830	3.0829	-0.1524	8.82	2.82	-0.750			
0.7857	50284.72	3.0800	3.0800	-0.1510	8.83	2.83	-0.750			
0.7861	50313.18	3.0770	3.0770	-0.1504	8.83	2.83	-0.750			
0.7866	50342.14	3.0740	3.0740	-0.1495	8.84	2.84	-0.750			
0.7870	50370.96	3.0710	3.0708	-0.1487	8.84	2.84	-0.750			
0.7875	50399.40	3.0680	3.0681	-0.1476	8.85	2.85	-0.750			
0.7879	50427.76	3.0650	3.0651	-0.1461	8.86	2.86	-0.750			
0.7884	50455.75	3.0620	3.0620	-0.1452	8.86	2.86	-0.750			
0.7888	50483.44	3.0590	3.0590	-0.1435	8.87	2.87	-0.750			
0.7892	50510.63	3.0560	3.0559	-0.1436	8.88	2.88	-0.750			
0.7897	50538.07	3.0530	3.0529	-0.1415	8.88	2.88	-0.750			
0.7901	50565.25	3.0500	3.0498	-0.1410	8.89	2.89	-0.750			
0.7905	50592.24	3.0470	3.0472	-0.1401	8.89	2.89	-0.750			
0.7909	50619.25	3.0440	3.0441	-0.1386	8.90	2.90	-0.750			
0.7913	50645.88	3.0410	3.0408	-0.1374	8.90	2.90	-0.750			
0.7917	50671.80	3.0380	3.0381	-0.1360	8.91	2.91	-0.750			
0.7922	50697.80	3.0350	3.0350	-0.1348	8.92	2.92	-0.750			
0.7925	50723.12	3.0320	3.0320	-0.1342	8.92	2.92	-0.750			
0.7930	50749.23	3.0290	3.0289	-0.1339	8.93	2.93	-0.750			
0.7934	50774.65	3.0260	3.0260	-0.1327	8.93	2.93	-0.750			
0.7938	50800.10	3.0230	3.0231	-0.1324	8.94	2.94	-0.750			
0.7942	50825.69	3.0200	3.0201	-0.1320	8.94	2.94	-0.750			
0.7945	50850.99	3.0170	3.0169	-0.1313	8.95	2.95	-0.750			
0.7949	50875.86	3.0140	3.0140	-0.1307	8.95	2.95	-0.750			
0.7953	50900.94	3.0110	3.0110	-0.1306	8.96	2.96	-0.750			
0.7957	50925.81	3.0080	3.0080	-0.1307	8.97	2.97	-0.750			
0.7961	50950.98	3.0050	3.0049	-0.1309	8.97	2.97	-0.750			
0.7965	50976.18	3.0020	3.0020	-0.1331	8.98	2.98	-0.750			
