Ah_balance (normalized)	Ah_balance (mAh)	Voltage - fit (V)	Voltage -  interpolate (V)	dQ/dV (1/V)	Temperature (°C)	Temperature - diff (°C)	Current (C)	R_DC 0ms (mOhm)	R_DC 50ms (mOhm)	R_DC 50 ms PEC (mOhm)
0.0002	10.93	4.1030	4.1016	-0.0271	5.98	0.00	-0.750			
0.0003	20.82	4.1000	4.0993	-0.0622	5.98	0.00	-0.750			
0.0006	37.33	4.0970	4.0965	-0.0911	5.98	0.00	-0.750			
0.0009	57.35	4.0940	4.0938	-0.1173	5.98	0.00	-0.750			
0.0013	82.77	4.0910	4.0911	-0.1415	5.98	0.00	-0.750			
0.0018	112.22	4.0880	4.0883	-0.1676	5.98	0.00	-0.750			
0.0023	147.90	4.0850	4.0850	-0.1932	5.98	0.00	-0.750			
0.0029	187.01	4.0820	4.0819	-0.2178	5.98	0.00	-0.750			
0.0036	230.75	4.0790	4.0789	-0.2411	5.98	0.00	-0.750			
0.0044	280.22	4.0760	4.0760	-0.2624	5.98	0.00	-0.750			
0.0052	332.84	4.0730	4.0731	-0.2835	5.98	0.00	-0.750			
0.0061	389.96	4.0700	4.0700	-0.3054	5.98	0.00	-0.750			
0.0070	450.45	4.0670	4.0670	-0.3269	5.98	0.00	-0.750			
0.0080	514.55	4.0640	4.0640	-0.3470	5.98	0.00	-0.750			
0.0091	582.69	4.0610	4.0610	-0.3693	5.98	0.00	-0.750			
0.0102	655.59	4.0580	4.0580	-0.3949	5.98	0.00	-0.750			
0.0115	734.56	4.0550	4.0550	-0.4186	5.98	0.00	-0.750			
0.0128	818.22	4.0520	4.0520	-0.4383	5.98	0.00	-0.750			
0.0141	903.79	4.0490	4.0491	-0.4594	5.98	0.00	-0.750			
0.0155	993.70	4.0460	4.0461	-0.4810	5.98	0.00	-0.750			
0.0170	1088.96	4.0430	4.0430	-0.4986	5.98	0.00	-0.750			
0.0185	1186.16	4.0400	4.0399	-0.5164	5.98	0.00	-0.750			
0.0201	1287.00	4.0370	4.0371	-0.5328	5.98	0.00	-0.750			
0.0217	1391.59	4.0340	4.0341	-0.5511	5.98	0.00	-0.750			
0.0234	1500.22	4.0310	4.0309	-0.5713	5.99	0.01	-0.750			
0.0252	1611.22	4.0280	4.0280	-0.5822	5.99	0.01	-0.750			
0.0270	1725.11	4.0250	4.0249	-0.5936	5.99	0.01	-0.750			
0.0288	1840.86	4.0220	4.0221	-0.6070	5.99	0.01	-0.750			
0.0306	1958.39	4.0190	4.0189	-0.6158	5.99	0.01	-0.750			
0.0325	2077.18	4.0160	4.0160	-0.6259	6.00	0.02	-0.750			
0.0343	2195.58	4.0130	4.0130	-0.6398	6.00	0.02	-0.750			
0.0362	2319.00	4.0100	4.0100	-0.6571	6.01	0.03	-0.750			
0.0383	2449.87	4.0070	4.0070	-0.6695	6.01	0.03	-0.750			
0.0403	2581.00	4.0040	4.0039	-0.6733	6.02	0.04	-0.750			
0.0424	2712.48	4.0010	4.0012	-0.6815	6.02	0.04	-0.750			
0.0444	2844.48	3.9980	3.9980	-0.6852	6.02	0.04	-0.750			
0.0465	2974.04	3.9950	3.9949	-0.6884	6.03	0.05	-0.750			
0.0485	3104.91	3.9920	3.9921	-0.6952	6.03	0.05	-0.750			
0.0506	3239.98	3.9890	3.9890	-0.6964	6.03	0.05	-0.750			
0.0527	3375.11	3.9860	3.9860	-0.7034	6.04	0.06	-0.750			
0.0549	3512.31	3.9830	3.9831	-0.7095	6.04	0.06	-0.750			
0.0570	3647.86	3.9800	3.9799	-0.7062	6.05	0.07	-0.750			
0.0591	3782.82	3.9770	3.9770	-0.7109	6.05	0.07	-0.750			
0.0612	3919.43	3.9740	3.9741	-0.7119	6.06	0.08	-0.750			
0.0634	4056.42	3.9710	3.9709	-0.7129	6.06	0.08	-0.750			
0.0655	4195.07	3.9680	3.9678	-0.7161	6.07	0.09	-0.750			
0.0677	4331.48	3.9650	3.9651	-0.7137	6.07	0.09	-0.750			
0.0698	4467.41	3.9620	3.9621	-0.7223	6.08	0.10	-0.750			
0.0720	4607.43	3.9590	3.9590	-0.7311	6.08	0.10	-0.750			
0.0742	4747.08	3.9560	3.9559	-0.7320	6.09	0.11	-0.750			
0.0764	4891.89	3.9530	3.9529	-0.7372	6.09	0.11	-0.750			
0.0787	5034.79	3.9500	3.9501	-0.7417	6.10	0.12	-0.750			
0.0809	5176.81	3.9470	3.9469	-0.7433	6.10	0.12	-0.750			
0.0831	5319.27	3.9440	3.9440	-0.7427	6.11	0.13	-0.750			
0.0853	5459.17	3.9410	3.9409	-0.7454	6.12	0.14	-0.750			
0.0875	5603.06	3.9380	3.9381	-0.7478	6.13	0.15	-0.750			
0.0898	5748.91	3.9350	3.9349	-0.7577	6.13	0.15	-0.750			
0.0921	5896.01	3.9320	3.9320	-0.7593	6.14	0.16	-0.750			
0.0944	6042.74	3.9290	3.9290	-0.7576	6.15	0.17	-0.750			
0.0967	6187.27	3.9260	3.9259	-0.7613	6.15	0.17	-0.750			
0.0990	6334.04	3.9230	3.9231	-0.7617	6.16	0.18	-0.750			
0.1012	6479.09	3.9200	3.9199	-0.7613	6.16	0.18	-0.750			
0.1035	6626.77	3.9170	3.9169	-0.7623	6.17	0.19	-0.750			
0.1058	6772.42	3.9140	3.9141	-0.7614	6.17	0.19	-0.750			
0.1081	6917.62	3.9110	3.9110	-0.7717	6.18	0.20	-0.750			
0.1104	7067.67	3.9080	3.9081	-0.7728	6.19	0.21	-0.750			
0.1127	7214.90	3.9050	3.9049	-0.7756	6.20	0.22	-0.750			
0.1151	7366.27	3.9020	3.9020	-0.7820	6.20	0.22	-0.750			
0.1175	7516.87	3.8990	3.8992	-0.7853	6.21	0.23	-0.750			
0.1198	7669.48	3.8960	3.8959	-0.7898	6.22	0.24	-0.750			
0.1222	7821.16	3.8930	3.8930	-0.7835	6.23	0.25	-0.750			
0.1245	7969.53	3.8900	3.8899	-0.7758	6.23	0.25	-0.750			
0.1269	8120.64	3.8870	3.8870	-0.7762	6.24	0.26	-0.750			
0.1292	8266.20	3.8840	3.8840	-0.7755	6.25	0.27	-0.750			
0.1315	8414.94	3.8810	3.8810	-0.7763	6.26	0.28	-0.750			
0.1338	8563.38	3.8780	3.8780	-0.7764	6.26	0.28	-0.750			
0.1362	8714.39	3.8750	3.8750	-0.7797	6.27	0.29	-0.750			
0.1385	8865.70	3.8720	3.8719	-0.7798	6.28	0.30	-0.750			
0.1409	9016.30	3.8690	3.8689	-0.7841	6.29	0.31	-0.750			
0.1432	9166.09	3.8660	3.8662	-0.7872	6.30	0.32	-0.750			
0.1455	9313.11	3.8630	3.8629	-0.7974	6.30	0.32	-0.750			
0.1480	9471.50	3.8600	3.8600	-0.8009	6.31	0.33	-0.750			
0.1504	9626.73	3.8570	3.8569	-0.8013	6.32	0.34	-0.750			
0.1528	9781.24	3.8540	3.8541	-0.8012	6.33	0.35	-0.750			
0.1553	9938.25	3.8510	3.8511	-0.8006	6.34	0.36	-0.750			
0.1576	10088.52	3.8480	3.8479	-0.8014	6.35	0.37	-0.750			
0.1600	10239.43	3.8450	3.8451	-0.7999	6.35	0.37	-0.750			
0.1624	10393.05	3.8420	3.8419	-0.7999	6.36	0.38	-0.750			
0.1648	10549.66	3.8390	3.8390	-0.8128	6.37	0.39	-0.750			
0.1673	10706.90	3.8360	3.8361	-0.8157	6.37	0.39	-0.750			
0.1697	10863.34	3.8330	3.8330	-0.8160	6.38	0.40	-0.750			
0.1722	11021.76	3.8300	3.8299	-0.8194	6.39	0.41	-0.750			
0.1747	11177.78	3.8270	3.8270	-0.8165	6.40	0.42	-0.750			
0.1771	11335.40	3.8240	3.8240	-0.8181	6.41	0.43	-0.750			
0.1796	11493.99	3.8210	3.8211	-0.8120	6.42	0.44	-0.750			
0.1820	11649.15	3.8180	3.8179	-0.8052	6.43	0.45	-0.750			
0.1844	11802.72	3.8150	3.8151	-0.8077	6.44	0.46	-0.750			
0.1868	11957.11	3.8120	3.8120	-0.8025	6.44	0.46	-0.750			
0.1892	12111.03	3.8090	3.8088	-0.8051	6.45	0.47	-0.750			
0.1916	12264.06	3.8060	3.8061	-0.8112	6.46	0.48	-0.750			
0.1941	12419.40	3.8030	3.8030	-0.8178	6.47	0.49	-0.750			
0.1965	12578.23	3.8000	3.8000	-0.8264	6.47	0.49	-0.750			
0.1990	12738.29	3.7970	3.7970	-0.8272	6.48	0.50	-0.750			
0.2015	12897.47	3.7940	3.7940	-0.8279	6.49	0.51	-0.750			
0.2041	13060.56	3.7910	3.7910	-0.8281	6.50	0.52	-0.750			
0.2065	13217.15	3.7880	3.7880	-0.8274	6.51	0.53	-0.750			
0.2090	13374.05	3.7850	3.7850	-0.8268	6.51	0.53	-0.750			
0.2115	13533.11	3.7820	3.7819	-0.8323	6.52	0.54	-0.750			
0.2140	13693.03	3.7790	3.7789	-0.8341	6.53	0.55	-0.750			
0.2165	13855.58	3.7760	3.7761	-0.8357	6.54	0.56	-0.750			
0.2190	14014.90	3.7730	3.7730	-0.8398	6.55	0.57	-0.750			
0.2215	14177.12	3.7700	3.7700	-0.8489	6.55	0.57	-0.750			
0.2241	14339.26	3.7670	3.7669	-0.8467	6.56	0.58	-0.750			
0.2266	14502.08	3.7640	3.7640	-0.8441	6.57	0.59	-0.750			
0.2292	14666.13	3.7610	3.7612	-0.8477	6.58	0.60	-0.750			
0.2317	14829.87	3.7580	3.7580	-0.8454	6.59	0.61	-0.750			
0.2343	14992.71	3.7550	3.7549	-0.8483	6.60	0.62	-0.750			
0.2368	15153.28	3.7520	3.7520	-0.8449	6.60	0.62	-0.750			
0.2393	15313.86	3.7490	3.7490	-0.8489	6.61	0.63	-0.750			
0.2419	15479.06	3.7460	3.7463	-0.8571	6.62	0.64	-0.750			
0.2444	15644.35	3.7430	3.7430	-0.8571	6.63	0.65	-0.750			
0.2470	15809.25	3.7400	3.7399	-0.8574	6.63	0.65	-0.750			
0.2496	15975.21	3.7370	3.7371	-0.8541	6.64	0.66	-0.750			
0.2522	16138.91	3.7340	3.7340	-0.8575	6.64	0.66	-0.750			
0.2547	16301.71	3.7310	3.7311	-0.8575	6.65	0.67	-0.750			
0.2572	16463.74	3.7280	3.7280	-0.8589	6.66	0.68	-0.750			
0.2598	16630.30	3.7250	3.7249	-0.8629	6.67	0.69	-0.750			
0.2625	16797.04	3.7220	3.7220	-0.8717	6.68	0.70	-0.750			
0.2651	16966.94	3.7190	3.7190	-0.8767	6.68	0.70	-0.750			
0.2677	17135.47	3.7160	3.7160	-0.8823	6.69	0.71	-0.750			
0.2704	17303.90	3.7130	3.7130	-0.8834	6.70	0.72	-0.750			
0.2730	17473.70	3.7100	3.7101	-0.8917	6.71	0.73	-0.750			
0.2757	17644.99	3.7070	3.7068	-0.8967	6.72	0.74	-0.750			
0.2784	17820.17	3.7040	3.7040	-0.9001	6.73	0.75	-0.750			
0.2811	17991.57	3.7010	3.7010	-0.9037	6.73	0.75	-0.750			
0.2838	18166.19	3.6980	3.6981	-0.9137	6.74	0.76	-0.750			
0.2866	18343.63	3.6950	3.6949	-0.9139	6.74	0.76	-0.750			
0.2894	18519.50	3.6920	3.6919	-0.9199	6.75	0.77	-0.750			
0.2921	18696.11	3.6890	3.6892	-0.9213	6.75	0.77	-0.750			
0.2949	18873.83	3.6860	3.6860	-0.9283	6.76	0.78	-0.750			
0.2977	19052.44	3.6830	3.6829	-0.9322	6.76	0.78	-0.750			
0.3005	19229.19	3.6800	3.6800	-0.9351	6.77	0.79	-0.750			
0.3033	19410.14	3.6770	3.6770	-0.9479	6.78	0.80	-0.750			
0.3061	19592.57	3.6740	3.6740	-0.9583	6.78	0.80	-0.750			
0.3090	19777.56	3.6710	3.6710	-0.9679	6.79	0.81	-0.750			
0.3120	19965.29	3.6680	3.6680	-0.9811	6.79	0.81	-0.750			
0.3149	20153.47	3.6650	3.6650	-0.9922	6.80	0.82	-0.750			
0.3179	20346.79	3.6620	3.6620	-1.0014	6.80	0.82	-0.750			
0.3210	20541.08	3.6590	3.6589	-1.0041	6.81	0.83	-0.750			
0.3240	20735.63	3.6560	3.6560	-1.0024	6.82	0.84	-0.750			
0.3270	20929.33	3.6530	3.6532	-1.0006	6.82	0.84	-0.750			
0.3300	21118.54	3.6500	3.6500	-1.0035	6.83	0.85	-0.750			
0.3330	21310.70	3.6470	3.6470	-1.0004	6.83	0.85	-0.750			
0.3359	21500.06	3.6440	3.6439	-1.0143	6.84	0.86	-0.750			
0.3390	21693.63	3.6410	3.6410	-1.0314	6.84	0.86	-0.750			
0.3421	21894.78	3.6380	3.6381	-1.0510	6.84	0.86	-0.750			
0.3453	22099.42	3.6350	3.6350	-1.0658	6.85	0.87	-0.750			
0.3486	22309.55	3.6320	3.6320	-1.0714	6.85	0.87	-0.750			
0.3518	22515.25	3.6290	3.6291	-1.0783	6.86	0.88	-0.750			
0.3550	22721.98	3.6260	3.6261	-1.0948	6.86	0.88	-0.750			
0.3583	22932.09	3.6230	3.6228	-1.0903	6.87	0.89	-0.750			
0.3616	23142.65	3.6200	3.6199	-1.0905	6.87	0.89	-0.750			
0.3649	23352.61	3.6170	3.6169	-1.0991	6.88	0.90	-0.750			
0.3682	23564.10	3.6140	3.6141	-1.1241	6.88	0.90	-0.750			
0.3716	23782.80	3.6110	3.6108	-1.1323	6.89	0.91	-0.750			
0.3750	23998.47	3.6080	3.6079	-1.1350	6.90	0.92	-0.750			
0.3784	24215.71	3.6050	3.6052	-1.1433	6.91	0.93	-0.750			
0.3819	24442.86	3.6020	3.6020	-1.1722	6.91	0.93	-0.750			
0.3855	24671.74	3.5990	3.5988	-1.1768	6.92	0.94	-0.750			
0.3890	24895.71	3.5960	3.5959	-1.1781	6.93	0.95	-0.750			
0.3925	25121.02	3.5930	3.5940	-1.1698	6.93	0.95	-0.750	0.384	0.879	
0.3961	25351.80	3.5900	3.5899	-1.1840	6.94	0.96	-0.750			
0.3996	25576.22	3.5870	3.5870	-1.1875	6.94	0.96	-0.750			
0.4031	25796.84	3.5840	3.5840	-1.2085	6.95	0.97	-0.750			
0.4068	26033.23	3.5810	3.5808	-1.2334	6.95	0.97	-0.750			
0.4105	26271.32	3.5780	3.5780	-1.2498	6.96	0.98	-0.750			
0.4143	26514.23	3.5750	3.5749	-1.2639	6.97	0.99	-0.750			
0.4181	26760.68	3.5720	3.5721	-1.2848	6.97	0.99	-0.750			
0.4220	27009.77	3.5690	3.5690	-1.2989	6.98	1.00	-0.750			
0.4259	27258.52	3.5660	3.5658	-1.3003	6.98	1.00	-0.750			
0.4298	27508.63	3.5630	3.5631	-1.2982	6.99	1.01	-0.750			
0.4338	27763.78	3.5600	3.5600	-1.3036	7.00	1.02	-0.750			
0.4377	28014.01	3.5570	3.5571	-1.3118	7.00	1.02	-0.750			
0.4416	28264.37	3.5540	3.5541	-1.3190	7.01	1.03	-0.750			
0.4455	28512.30	3.5510	3.5509	-1.3241	7.02	1.04	-0.750			
0.4495	28769.03	3.5480	3.5480	-1.3378	7.03	1.05	-0.750			
0.4536	29028.59	3.5450	3.5450	-1.3608	7.04	1.06	-0.750			
0.4577	29292.51	3.5420	3.5420	-1.3757	7.05	1.07	-0.750			
0.4619	29559.81	3.5390	3.5390	-1.3992	7.06	1.08	-0.750			
0.4661	29829.27	3.5360	3.5361	-1.4148	7.07	1.09	-0.750			
0.4704	30104.63	3.5330	3.5328	-1.4190	7.08	1.10	-0.750			
0.4747	30379.87	3.5300	3.5300	-1.4267	7.08	1.10	-0.750			
0.4790	30656.61	3.5270	3.5273	-1.4225	7.09	1.11	-0.750			
0.4832	30927.90	3.5240	3.5239	-1.4216	7.10	1.12	-0.750			
0.4875	31202.79	3.5210	3.5210	-1.4257	7.11	1.13	-0.750			
0.4918	31473.27	3.5180	3.5179	-1.4345	7.12	1.14	-0.750			
0.4961	31752.34	3.5150	3.5151	-1.4424	7.13	1.15	-0.750			
0.5005	32031.04	3.5120	3.5118	-1.4351	7.14	1.16	-0.750			
0.5048	32306.90	3.5090	3.5092	-1.4425	7.15	1.17	-0.750			
0.5091	32582.53	3.5060	3.5059	-1.4425	7.16	1.18	-0.750			
0.5134	32855.69	3.5030	3.5030	-1.4319	7.17	1.19	-0.750			
0.5177	33131.52	3.5000	3.5002	-1.4325	7.18	1.20	-0.750			
0.5220	33410.47	3.4970	3.4967	-1.4280	7.19	1.21	-0.750			
0.5264	33686.55	3.4940	3.4941	-1.4118	7.20	1.22	-0.750			
0.5305	33950.50	3.4910	3.4911	-1.4266	7.21	1.23	-0.750			
0.5348	34226.92	3.4880	3.4879	-1.4202	7.23	1.25	-0.750			
0.5390	34495.08	3.4850	3.4848	-1.4055	7.24	1.26	-0.750			
0.5433	34770.44	3.4820	3.4820	-1.4116	7.25	1.27	-0.750			
0.5476	35044.66	3.4790	3.4794	-1.3981	7.26	1.28	-0.750			
0.5518	35312.02	3.4760	3.4759	-1.3971	7.27	1.29	-0.750			
0.5559	35575.09	3.4730	3.4732	-1.3712	7.28	1.30	-0.750			
0.5600	35838.24	3.4700	3.4700	-1.3727	7.30	1.32	-0.750			
0.5641	36100.58	3.4670	3.4668	-1.3859	7.31	1.33	-0.750			
0.5682	36364.49	3.4640	3.4641	-1.3705	7.33	1.35	-0.750			
0.5724	36630.76	3.4610	3.4610	-1.3733	7.34	1.36	-0.750			
0.5766	36899.78	3.4580	3.4579	-1.3701	7.36	1.38	-0.750			
0.5806	37156.83	3.4550	3.4552	-1.3446	7.37	1.39	-0.750			
0.5847	37419.20	3.4520	3.4520	-1.3367	7.39	1.41	-0.750			
0.5886	37671.49	3.4490	3.4489	-1.3140	7.40	1.42	-0.750			
0.5925	37920.67	3.4460	3.4461	-1.2853	7.41	1.43	-0.750			
0.5964	38169.98	3.4430	3.4430	-1.2758	7.43	1.45	-0.750			
0.6002	38412.34	3.4400	3.4400	-1.2575	7.44	1.46	-0.750			
0.6039	38650.36	3.4370	3.4369	-1.2469	7.46	1.48	-0.750			
0.6076	38886.74	3.4340	3.4339	-1.2242	7.48	1.50	-0.750			
0.6113	39121.60	3.4310	3.4309	-1.2072	7.49	1.51	-0.750			
0.6149	39352.63	3.4280	3.4280	-1.1878	7.51	1.53	-0.750			
0.6184	39580.25	3.4250	3.4250	-1.1700	7.53	1.55	-0.750			
0.6219	39801.79	3.4220	3.4220	-1.1545	7.54	1.56	-0.750			
0.6253	40022.06	3.4190	3.4190	-1.1339	7.55	1.57	-0.750			
0.6287	40234.88	3.4160	3.4160	-1.1151	7.56	1.58	-0.750			
0.6320	40450.51	3.4130	3.4129	-1.1093	7.57	1.59	-0.750			
0.6354	40663.34	3.4100	3.4100	-1.0924	7.59	1.61	-0.750			
0.6386	40871.13	3.4070	3.4069	-1.0745	7.60	1.62	-0.750			
0.6418	41077.03	3.4040	3.4042	-1.0519	7.62	1.64	-0.750			
0.6450	41278.30	3.4010	3.4009	-1.0246	7.64	1.66	-0.750			
0.6480	41474.38	3.3980	3.3980	-1.0010	7.65	1.67	-0.750			
0.6510	41662.16	3.3950	3.3951	-0.9713	7.67	1.69	-0.750			
0.6539	41847.64	3.3920	3.3919	-0.9458	7.69	1.71	-0.750			
0.6566	42024.21	3.3890	3.3889	-0.9231	7.70	1.72	-0.750			
0.6593	42196.61	3.3860	3.3860	-0.8959	7.72	1.74	-0.750			
0.6620	42367.33	3.3830	3.3830	-0.8783	7.73	1.75	-0.750			
0.6646	42535.31	3.3800	3.3800	-0.8598	7.75	1.77	-0.750			
0.6672	42699.03	3.3770	3.3772	-0.8382	7.76	1.78	-0.750			
0.6697	42857.62	3.3740	3.3741	-0.8218	7.78	1.80	-0.750			
0.6721	43015.05	3.3710	3.3709	-0.8009	7.79	1.81	-0.750			
0.6745	43165.21	3.3680	3.3679	-0.7768	7.80	1.82	-0.750			
0.6768	43313.95	3.3650	3.3650	-0.7548	7.82	1.84	-0.750			
0.6790	43455.68	3.3620	3.3621	-0.7313	7.83	1.85	-0.750			
0.6812	43594.76	3.3590	3.3589	-0.7096	7.84	1.86	-0.750			
0.6832	43727.69	3.3560	3.3560	-0.6899	7.86	1.88	-0.750			
0.6852	43855.51	3.3530	3.3530	-0.6728	7.87	1.89	-0.750			
0.6872	43983.96	3.3500	3.3501	-0.6635	7.89	1.91	-0.750			
0.6892	44110.06	3.3470	3.3469	-0.6505	7.90	1.92	-0.750			
0.6912	44234.79	3.3440	3.3440	-0.6402	7.92	1.94	-0.750			
0.6931	44357.33	3.3410	3.3409	-0.6251	7.93	1.95	-0.750			
0.6950	44476.83	3.3380	3.3380	-0.6100	7.94	1.96	-0.750			
0.6968	44592.35	3.3350	3.3350	-0.5894	7.96	1.98	-0.750			
0.6985	44702.28	3.3320	3.3321	-0.5768	7.97	1.99	-0.750			
0.7002	44812.17	3.3290	3.3290	-0.5606	7.98	2.00	-0.750			
0.7019	44918.53	3.3260	3.3259	-0.5459	7.99	2.01	-0.750			
0.7035	45021.63	3.3230	3.3230	-0.5334	8.00	2.02	-0.750			
0.7050	45123.08	3.3200	3.3201	-0.5216	8.02	2.04	-0.750			
0.7066	45222.10	3.3170	3.3169	-0.5111	8.03	2.05	-0.750			
0.7081	45319.26	3.3140	3.3140	-0.4985	8.04	2.06	-0.750			
0.7096	45411.62	3.3110	3.3110	-0.4827	8.05	2.07	-0.750			
0.7110	45504.68	3.3080	3.3080	-0.4775	8.06	2.08	-0.750			
0.7124	45595.76	3.3050	3.3050	-0.4664	8.07	2.09	-0.750			
0.7138	45683.54	3.3020	3.3019	-0.4570	8.09	2.11	-0.750			
0.7152	45770.35	3.2990	3.2990	-0.4500	8.10	2.12	-0.750			
0.7165	45855.82	3.2960	3.2959	-0.4433	8.11	2.13	-0.750			
0.7178	45941.34	3.2930	3.2928	-0.4342	8.12	2.14	-0.750			
0.7191	46023.96	3.2900	3.2901	-0.4242	8.13	2.15	-0.750			
0.7204	46103.99	3.2870	3.2870	-0.4135	8.14	2.16	-0.750			
0.7216	46182.82	3.2840	3.2840	-0.4037	8.16	2.18	-0.750			
0.7228	46258.51	3.2810	3.2810	-0.3931	8.17	2.19	-0.750			
0.7239	46332.46	3.2780	3.2780	-0.3861	8.18	2.20	-0.750			
0.7251	46405.24	3.2750	3.2751	-0.3814	8.19	2.21	-0.750			
0.7262	46478.75	3.2720	3.2720	-0.3773	8.20	2.22	-0.750			
0.7274	46550.83	3.2690	3.2689	-0.3711	8.21	2.23	-0.750			
0.7285	46621.99	3.2660	3.2661	-0.3653	8.22	2.24	-0.750			
0.7296	46691.98	3.2630	3.2631	-0.3589	8.23	2.25	-0.750			
0.7306	46760.42	3.2600	3.2600	-0.3486	8.24	2.26	-0.750			
0.7317	46825.94	3.2570	3.2570	-0.3450	8.26	2.28	-0.750			
0.7327	46890.29	3.2540	3.2541	-0.3364	8.27	2.29	-0.750			
0.7337	46954.65	3.2510	3.2509	-0.3322	8.28	2.30	-0.750			
0.7347	47017.78	3.2480	3.2480	-0.3273	8.29	2.31	-0.750			
0.7356	47080.35	3.2450	3.2452	-0.3225	8.30	2.32	-0.750			
0.7366	47142.24	3.2420	3.2419	-0.3164	8.31	2.33	-0.750			
0.7376	47203.26	3.2390	3.2390	-0.3111	8.32	2.34	-0.750			
0.7385	47261.22	3.2360	3.2360	-0.3036	8.33	2.35	-0.750			
0.7394	47319.15	3.2330	3.2331	-0.2988	8.34	2.36	-0.750			
0.7402	47375.47	3.2300	3.2299	-0.2939	8.34	2.36	-0.750			
0.7411	47430.79	3.2270	3.2270	-0.2896	8.35	2.37	-0.750			
0.7420	47486.13	3.2240	3.2240	-0.2865	8.35	2.37	-0.750			
0.7428	47541.19	3.2210	3.2210	-0.2841	8.36	2.38	-0.750			
0.7437	47595.54	3.2180	3.2180	-0.2794	8.37	2.39	-0.750			
0.7445	47648.87	3.2150	3.2151	-0.2748	8.38	2.40	-0.750			
0.7453	47701.10	3.2120	3.2120	-0.2717	8.39	2.41	-0.750			
0.7461	47752.62	3.2090	3.2090	-0.2677	8.40	2.42	-0.750			
0.7469	47803.36	3.2060	3.2060	-0.2634	8.41	2.43	-0.750			
0.7477	47853.55	3.2030	3.2030	-0.2605	8.42	2.44	-0.750			
0.7485	47903.60	3.2000	3.2000	-0.2575	8.43	2.45	-0.750			
0.7493	47952.80	3.1970	3.1970	-0.2548	8.44	2.46	-0.750			
0.7500	48001.45	3.1940	3.1940	-0.2513	8.45	2.47	-0.750			
0.7508	48049.17	3.1910	3.1911	-0.2473	8.46	2.48	-0.750			
0.7515	48096.18	3.1880	3.1880	-0.2450	8.47	2.49	-0.750			
0.7522	48142.89	3.1850	3.1850	-0.2427	8.48	2.50	-0.750			
0.7530	48189.49	3.1820	3.1820	-0.2396	8.49	2.51	-0.750			
0.7537	48235.32	3.1790	3.1789	-0.2363	8.50	2.52	-0.750			
0.7544	48280.66	3.1760	3.1761	-0.2334	8.51	2.53	-0.750			
0.7551	48324.97	3.1730	3.1731	-0.2305	8.52	2.54	-0.750			
0.7558	48368.84	3.1700	3.1700	-0.2278	8.53	2.55	-0.750			
0.7564	48412.34	3.1670	3.1669	-0.2253	8.54	2.56	-0.750			
0.7571	48454.90	3.1640	3.1641	-0.2222	8.54	2.56	-0.750			
0.7578	48497.30	3.1610	3.1610	-0.2200	8.55	2.57	-0.750			
0.7584	48539.40	3.1580	3.1581	-0.2186	8.56	2.58	-0.750			
0.7591	48581.45	3.1550	3.1550	-0.2164	8.57	2.59	-0.750			
0.7597	48622.75	3.1520	3.1519	-0.2138	8.58	2.60	-0.750			
0.7604	48663.46	3.1490	3.1490	-0.2113	8.58	2.60	-0.750			
0.7610	48703.85	3.1460	3.1461	-0.2090	8.59	2.61	-0.750			
0.7616	48743.69	3.1430	3.1430	-0.2068	8.60	2.62	-0.750			
0.7622	48783.17	3.1400	3.1399	-0.2044	8.61	2.63	-0.750			
0.7628	48822.09	3.1370	3.1370	-0.2021	8.61	2.63	-0.750			
0.7634	48860.50	3.1340	3.1340	-0.1997	8.62	2.64	-0.750			
0.7640	48898.62	3.1310	3.1310	-0.1983	8.63	2.65	-0.750			
0.7646	48936.69	3.1280	3.1281	-0.1968	8.64	2.66	-0.750			
0.7652	48974.46	3.1250	3.1249	-0.1935	8.65	2.67	-0.750			
0.7658	49011.06	3.1220	3.1220	-0.1925	8.66	2.68	-0.750			
0.7664	49047.83	3.1190	3.1190	-0.1904	8.66	2.68	-0.750			
0.7669	49084.24	3.1160	3.1161	-0.1889	8.67	2.69	-0.750			
0.7675	49120.42	3.1130	3.1128	-0.1867	8.68	2.70	-0.750			
0.7681	49156.09	3.1100	3.1101	-0.1848	8.69	2.71	-0.750			
0.7686	49191.25	3.1070	3.1070	-0.1830	8.70	2.72	-0.750			
0.7692	49226.25	3.1040	3.1040	-0.1815	8.70	2.72	-0.750			
0.7697	49261.23	3.1010	3.1010	-0.1805	8.71	2.73	-0.750			
0.7702	49294.94	3.0980	3.0980	-0.1786	8.72	2.74	-0.750			
0.7708	49329.42	3.0950	3.0950	-0.1782	8.73	2.75	-0.750			
0.7713	49363.56	3.0920	3.0920	-0.1775	8.74	2.76	-0.750			
0.7718	49397.66	3.0890	3.0890	-0.1767	8.74	2.76	-0.750			
0.7724	49431.33	3.0860	3.0861	-0.1765	8.75	2.77	-0.750			
0.7729	49465.70	3.0830	3.0829	-0.1749	8.76	2.78	-0.750			
0.7734	49499.11	3.0800	3.0800	-0.1731	8.77	2.79	-0.750			
0.7739	49532.49	3.0770	3.0769	-0.1707	8.77	2.79	-0.750			
0.7745	49564.90	3.0740	3.0742	-0.1691	8.78	2.80	-0.750			
0.7750	49597.04	3.0710	3.0711	-0.1676	8.79	2.81	-0.750			
0.7755	49629.05	3.0680	3.0678	-0.1659	8.80	2.82	-0.750			
0.7759	49660.24	3.0650	3.0650	-0.1650	8.81	2.83	-0.750			
0.7764	49691.63	3.0620	3.0620	-0.1632	8.81	2.83	-0.750			
0.7769	49723.47	3.0590	3.0589	-0.1636	8.82	2.84	-0.750			
0.7774	49754.75	3.0560	3.0561	-0.1622	8.83	2.85	-0.750			
0.7779	49785.81	3.0530	3.0531	-0.1616	8.84	2.86	-0.750			
0.7784	49816.56	3.0500	3.0499	-0.1603	8.84	2.86	-0.750			
0.7789	49847.20	3.0470	3.0469	-0.1593	8.85	2.87	-0.750			
0.7793	49877.73	3.0440	3.0441	-0.1586	8.86	2.88	-0.750			
0.7798	49908.07	3.0410	3.0410	-0.1573	8.87	2.89	-0.750			
0.7803	49938.36	3.0380	3.0380	-0.1571	8.88	2.90	-0.750			
0.7808	49968.35	3.0350	3.0350	-0.1559	8.88	2.90	-0.750			
0.7812	49998.16	3.0320	3.0320	-0.1553	8.89	2.91	-0.750			
0.7817	50027.98	3.0290	3.0289	-0.1534	8.90	2.92	-0.750			
0.7821	50057.24	3.0260	3.0260	-0.1529	8.90	2.92	-0.750			
0.7826	50086.49	3.0230	3.0231	-0.1519	8.91	2.93	-0.750			
0.7831	50115.60	3.0200	3.0200	-0.1504	8.92	2.94	-0.750			
0.7835	50144.43	3.0170	3.0169	-0.1493	8.93	2.95	-0.750			
0.7840	50172.96	3.0140	3.0141	-0.1472	8.93	2.95	-0.750			
0.7844	50201.07	3.0110	3.0110	-0.1456	8.94	2.96	-0.750			
0.7848	50228.95	3.0080	3.0080	-0.1439	8.95	2.97	-0.750			
0.7853	50256.75	3.0050	3.0050	-0.1397	8.95	2.97	-0.750			
0.7857	50283.33	3.0020	3.0020	-0.1389	8.96	2.98	-0.750			
