Ah_balance (normalized)	Ah_balance (mAh)	Voltage - fit (V)	Voltage -  interpolate (V)	dQ/dV (1/V)	Temperature (°C)	Temperature - diff (°C)	Current (C)	R_DC 0ms (mOhm)	R_DC 50ms (mOhm)	R_DC 50 ms PEC (mOhm)
0.0984	6298.12	4.1980	4.1894	0.6642	8.11	2.12	0.750	0.378	0.777	
0.1003	6419.67	4.1950	4.1972	0.6735	8.10	2.11	0.750			
0.1025	6562.03	4.1920	4.1941	0.7414	8.10	2.11	0.750			
0.1049	6713.47	4.1890	4.1907	0.7703	8.09	2.10	0.750			
0.1072	6863.82	4.1860	4.1874	0.7744	8.08	2.09	0.750			
0.1095	7011.06	4.1830	4.1840	0.7645	8.08	2.09	0.750			
0.1124	7192.95	4.1800	4.1797	0.8064	8.07	2.08	0.750			
0.1143	7317.98	4.1770	4.1770	0.7021	8.07	2.08	0.750			
0.1165	7454.65	4.1740	4.1741	0.7069	8.06	2.07	0.750			
0.1186	7593.27	4.1710	4.1708	0.7058	8.06	2.07	0.750			
0.1208	7731.28	4.1680	4.1681	0.7093	8.05	2.06	0.750			
0.1229	7864.68	4.1650	4.1651	0.7016	8.05	2.06	0.750			
0.1250	7999.85	4.1620	4.1619	0.7046	8.04	2.05	0.750			
0.1271	8133.53	4.1590	4.1591	0.7021	8.04	2.05	0.750			
0.1292	8266.79	4.1560	4.1560	0.6993	8.03	2.04	0.750			
0.1313	8402.95	4.1530	4.1530	0.6947	8.03	2.04	0.750			
0.1334	8536.93	4.1500	4.1501	0.7074	8.03	2.04	0.750			
0.1355	8670.18	4.1470	4.1470	0.7152	8.02	2.03	0.750			
0.1376	8808.23	4.1440	4.1438	0.7225	8.02	2.03	0.750			
0.1398	8948.36	4.1410	4.1411	0.7286	8.01	2.02	0.750			
0.1420	9090.56	4.1380	4.1382	0.7328	8.01	2.02	0.750			
0.1442	9231.99	4.1350	4.1350	0.7393	8.00	2.01	0.750			
0.1465	9374.69	4.1320	4.1320	0.7457	7.99	2.00	0.750			
0.1487	9515.45	4.1290	4.1290	0.7448	7.99	2.00	0.750			
0.1509	9658.34	4.1260	4.1259	0.7538	7.98	1.99	0.750			
0.1532	9806.57	4.1230	4.1231	0.7578	7.97	1.98	0.750			
0.1555	9953.31	4.1200	4.1201	0.7586	7.97	1.98	0.750			
0.1578	10100.93	4.1170	4.1170	0.7597	7.96	1.97	0.750			
0.1601	10245.27	4.1140	4.1140	0.7546	7.96	1.97	0.750			
0.1623	10388.60	4.1110	4.1110	0.7472	7.95	1.96	0.750			
0.1645	10530.57	4.1080	4.1080	0.7522	7.95	1.96	0.750			
0.1668	10673.46	4.1050	4.1051	0.7573	7.94	1.95	0.750			
0.1691	10820.49	4.1020	4.1019	0.7646	7.94	1.95	0.750			
0.1714	10967.65	4.0990	4.0989	0.7719	7.93	1.94	0.750			
0.1737	11117.08	4.0960	4.0961	0.7796	7.92	1.93	0.750			
0.1761	11267.34	4.0930	4.0930	0.7902	7.92	1.93	0.750			
0.1785	11421.35	4.0900	4.0899	0.7965	7.91	1.92	0.750			
0.1808	11574.32	4.0870	4.0870	0.7902	7.91	1.92	0.750			
0.1832	11726.13	4.0840	4.0841	0.7979	7.90	1.91	0.750			
0.1857	11881.60	4.0810	4.0811	0.7995	7.90	1.91	0.750			
0.1880	12034.48	4.0780	4.0777	0.7961	7.89	1.90	0.750			
0.1904	12185.90	4.0750	4.0750	0.7967	7.88	1.89	0.750			
0.1928	12339.98	4.0720	4.0720	0.7877	7.88	1.89	0.750			
0.1952	12490.66	4.0690	4.0690	0.7986	7.87	1.88	0.750			
0.1976	12643.88	4.0660	4.0660	0.8024	7.87	1.88	0.750			
0.1999	12795.87	4.0630	4.0630	0.8024	7.86	1.87	0.750			
0.2024	12952.29	4.0600	4.0601	0.8116	7.85	1.86	0.750			
0.2048	13110.37	4.0570	4.0570	0.8091	7.85	1.86	0.750			
0.2073	13265.14	4.0540	4.0540	0.8156	7.84	1.85	0.750			
0.2097	13422.01	4.0510	4.0511	0.8288	7.83	1.84	0.750			
0.2122	13578.33	4.0480	4.0480	0.8285	7.82	1.83	0.750			
0.2147	13739.96	4.0450	4.0450	0.8347	7.82	1.83	0.750			
0.2172	13902.49	4.0420	4.0420	0.8337	7.81	1.82	0.750			
0.2197	14063.51	4.0390	4.0392	0.8437	7.80	1.81	0.750			
0.2223	14228.61	4.0360	4.0359	0.8482	7.80	1.81	0.750			
0.2248	14388.17	4.0330	4.0329	0.8469	7.79	1.80	0.750			
0.2274	14550.51	4.0300	4.0302	0.8517	7.79	1.80	0.750			
0.2299	14715.39	4.0270	4.0269	0.8557	7.78	1.79	0.750			
0.2325	14880.79	4.0240	4.0240	0.8637	7.77	1.78	0.750			
0.2351	15045.19	4.0210	4.0211	0.8605	7.77	1.78	0.750			
0.2377	15213.40	4.0180	4.0179	0.8687	7.76	1.77	0.750			
0.2403	15381.93	4.0150	4.0151	0.8725	7.75	1.76	0.750			
0.2429	15548.68	4.0120	4.0120	0.8704	7.74	1.75	0.750			
0.2456	15715.99	4.0090	4.0090	0.8716	7.73	1.74	0.750			
0.2482	15883.20	4.0060	4.0060	0.8730	7.72	1.73	0.750			
0.2508	16048.17	4.0030	4.0027	0.8774	7.71	1.72	0.750			
0.2534	16219.94	4.0000	4.0000	0.8789	7.70	1.71	0.750			
0.2560	16386.65	3.9970	3.9969	0.8917	7.70	1.71	0.750			
0.2587	16559.17	3.9940	3.9940	0.8997	7.69	1.70	0.750			
0.2615	16734.44	3.9910	3.9911	0.9080	7.68	1.69	0.750			
0.2642	16910.00	3.9880	3.9879	0.9134	7.68	1.69	0.750			
0.2670	17085.61	3.9850	3.9852	0.9168	7.67	1.68	0.750			
0.2697	17260.36	3.9820	3.9821	0.9204	7.66	1.67	0.750			
0.2725	17438.07	3.9790	3.9789	0.9305	7.65	1.66	0.750			
0.2752	17614.59	3.9760	3.9758	0.9368	7.64	1.65	0.750			
0.2781	17799.82	3.9730	3.9731	0.9375	7.63	1.64	0.750			
0.2809	17979.39	3.9700	3.9700	0.9446	7.62	1.63	0.750			
0.2838	18163.01	3.9670	3.9671	0.9552	7.61	1.62	0.750			
0.2867	18346.64	3.9640	3.9641	0.9579	7.61	1.62	0.750			
0.2895	18530.20	3.9610	3.9611	0.9533	7.59	1.60	0.750			
0.2924	18713.08	3.9580	3.9580	0.9554	7.58	1.59	0.750			
0.2952	18894.76	3.9550	3.9551	0.9618	7.57	1.58	0.750			
0.2981	19080.51	3.9520	3.9520	0.9737	7.56	1.57	0.750			
0.3010	19267.13	3.9490	3.9489	0.9750	7.55	1.56	0.750			
0.3040	19455.41	3.9460	3.9459	0.9755	7.54	1.55	0.750			
0.3069	19643.05	3.9430	3.9431	0.9900	7.53	1.54	0.750			
0.3099	19834.48	3.9400	3.9402	1.0034	7.52	1.53	0.750			
0.3129	20028.62	3.9370	3.9366	1.0039	7.51	1.52	0.750			
0.3160	20221.13	3.9340	3.9340	1.0103	7.50	1.51	0.750			
0.3190	20416.94	3.9310	3.9311	1.0221	7.49	1.50	0.750			
0.3221	20615.32	3.9280	3.9280	1.0385	7.48	1.49	0.750			
0.3252	20815.88	3.9250	3.9248	1.0475	7.47	1.48	0.750			
0.3283	21012.55	3.9220	3.9220	1.0521	7.46	1.47	0.750			
0.3315	21216.75	3.9190	3.9191	1.0726	7.45	1.46	0.750			
0.3348	21426.51	3.9160	3.9159	1.0921	7.43	1.44	0.750			
0.3381	21636.87	3.9130	3.9128	1.0997	7.42	1.43	0.750			
0.3414	21850.48	3.9100	3.9101	1.1136	7.41	1.42	0.750			
0.3448	22065.97	3.9070	3.9070	1.1211	7.39	1.40	0.750			
0.3482	22285.02	3.9040	3.9040	1.1287	7.38	1.39	0.750			
0.3516	22500.23	3.9010	3.9011	1.1247	7.37	1.38	0.750			
0.3550	22717.39	3.8980	3.8980	1.1388	7.35	1.36	0.750			
0.3583	22933.64	3.8950	3.8951	1.1580	7.34	1.35	0.750			
0.3618	23156.21	3.8920	3.8919	1.1810	7.33	1.34	0.750			
0.3654	23384.17	3.8890	3.8890	1.1857	7.31	1.32	0.750			
0.3690	23613.10	3.8860	3.8861	1.2183	7.30	1.31	0.750			
0.3726	23848.83	3.8830	3.8832	1.2465	7.29	1.30	0.750			
0.3764	24091.83	3.8800	3.8798	1.2650	7.28	1.29	0.750	0.365	0.793	
0.3803	24336.46	3.8770	3.8771	1.2857	7.26	1.27	0.750			
0.3842	24589.00	3.8740	3.8741	1.2808	7.25	1.26	0.750			
0.3882	24844.29	3.8710	3.8707	1.2758	7.23	1.24	0.750			
0.3919	25080.31	3.8680	3.8682	1.2827	7.21	1.22	0.750			
0.3956	25321.36	3.8650	3.8651	1.2997	7.19	1.20	0.750			
0.3995	25568.51	3.8620	3.8618	1.3173	7.18	1.19	0.750			
0.4035	25825.06	3.8590	3.8590	1.3577	7.16	1.17	0.750			
0.4076	26088.72	3.8560	3.8561	1.3914	7.15	1.16	0.750			
0.4120	26367.25	3.8530	3.8530	1.4125	7.13	1.14	0.750			
0.4163	26642.93	3.8500	3.8501	1.4305	7.12	1.13	0.750			
0.4206	26917.43	3.8470	3.8471	1.4451	7.09	1.10	0.750			
0.4249	27193.71	3.8440	3.8438	1.4493	7.07	1.08	0.750			
0.4292	27468.62	3.8410	3.8411	1.4650	7.06	1.07	0.750			
0.4337	27754.94	3.8380	3.8381	1.4843	7.04	1.05	0.750			
0.4382	28042.81	3.8350	3.8348	1.5122	7.02	1.03	0.750			
0.4427	28333.19	3.8320	3.8323	1.5314	7.01	1.02	0.750			
0.4474	28631.95	3.8290	3.8290	1.5488	6.99	1.00	0.750			
0.4521	28934.56	3.8260	3.8259	1.5829	6.97	0.98	0.750			
0.4569	29244.18	3.8230	3.8230	1.5960	6.96	0.97	0.750			
0.4617	29549.44	3.8200	3.8200	1.6045	6.94	0.95	0.750			
0.4667	29866.41	3.8170	3.8173	1.6126	6.91	0.92	0.750			
0.4714	30172.53	3.8140	3.8140	1.6032	6.89	0.90	0.750			
0.4762	30476.96	3.8110	3.8108	1.6458	6.87	0.88	0.750			
0.4812	30796.67	3.8080	3.8081	1.6402	6.85	0.86	0.750			
0.4861	31109.67	3.8050	3.8047	1.6698	6.83	0.84	0.750			
0.4912	31434.49	3.8020	3.8024	1.7143	6.81	0.82	0.750			
0.4963	31765.12	3.7990	3.7991	1.7360	6.79	0.80	0.750			
0.5017	32109.42	3.7960	3.7956	1.7655	6.77	0.78	0.750			
0.5070	32447.72	3.7930	3.7930	1.7871	6.74	0.75	0.750			
0.5125	32797.09	3.7900	3.7900	1.8034	6.72	0.73	0.750			
0.5180	33148.91	3.7870	3.7871	1.8255	6.70	0.71	0.750			
0.5233	33493.26	3.7840	3.7842	1.8468	6.67	0.68	0.750			
0.5289	33847.81	3.7810	3.7808	1.8763	6.65	0.66	0.750			
0.5345	34207.33	3.7780	3.7780	1.9285	6.63	0.64	0.750			
0.5404	34586.18	3.7750	3.7751	1.9797	6.61	0.62	0.750			
0.5465	34976.01	3.7720	3.7719	2.0807	6.59	0.60	0.750			
0.5528	35377.62	3.7690	3.7691	2.1363	6.56	0.57	0.750			
0.5592	35791.34	3.7660	3.7659	2.2359	6.54	0.55	0.750			
0.5661	36231.68	3.7630	3.7632	2.3239	6.51	0.52	0.750			
0.5733	36690.61	3.7600	3.7600	2.4231	6.48	0.49	0.750			
0.5806	37159.62	3.7570	3.7571	2.5760	6.45	0.46	0.750			
0.5887	37674.74	3.7540	3.7539	2.7253	6.42	0.43	0.750			
0.5970	38206.73	3.7510	3.7512	2.8258	6.39	0.40	0.750			
0.6058	38771.75	3.7480	3.7480	2.9482	6.36	0.37	0.750			
0.6147	39339.49	3.7450	3.7450	2.9752	6.33	0.34	0.750			
0.6239	39930.18	3.7420	3.7421	3.0166	6.30	0.31	0.750			
0.6329	40502.99	3.7390	3.7390	2.9817	6.27	0.28	0.750			
0.6419	41082.77	3.7360	3.7359	2.7313	6.24	0.25	0.750			
0.6499	41593.07	3.7330	3.7331	2.4396	6.22	0.23	0.750			
0.6562	41996.14	3.7300	3.7300	2.0801	6.20	0.21	0.750			
0.6619	42360.27	3.7270	3.7269	1.8032	6.18	0.19	0.750			
0.6666	42664.15	3.7240	3.7239	1.5706	6.16	0.17	0.750			
0.6710	42942.30	3.7210	3.7211	1.4233	6.15	0.16	0.750			
0.6749	43195.79	3.7180	3.7180	1.3143	6.14	0.15	0.750			
0.6786	43428.66	3.7150	3.7150	1.2182	6.13	0.14	0.750			
0.6821	43653.08	3.7120	3.7119	1.1660	6.12	0.13	0.750			
0.6854	43862.90	3.7090	3.7090	1.1141	6.12	0.13	0.750			
0.6887	44074.49	3.7060	3.7060	1.0859	6.11	0.12	0.750			
0.6919	44281.11	3.7030	3.7030	1.0659	6.10	0.11	0.750			
0.6950	44483.06	3.7000	3.7000	1.0416	6.09	0.10	0.750			
0.6982	44682.52	3.6970	3.6970	1.0186	6.09	0.10	0.750			
0.7012	44875.09	3.6940	3.6939	0.9897	6.08	0.09	0.750			
0.7041	45063.98	3.6910	3.6911	0.9629	6.07	0.08	0.750			
0.7069	45244.79	3.6880	3.6880	0.9404	6.06	0.07	0.750			
0.7097	45421.42	3.6850	3.6851	0.9238	6.05	0.06	0.750			
0.7124	45594.90	3.6820	3.6818	0.9054	6.04	0.05	0.750			
0.7151	45767.35	3.6790	3.6789	0.8955	6.04	0.05	0.750			
0.7178	45939.25	3.6760	3.6761	0.8862	6.03	0.04	0.750			
0.7205	46109.42	3.6730	3.6731	0.8726	6.02	0.03	0.750			
0.7231	46276.96	3.6700	3.6699	0.8647	6.02	0.03	0.750			
0.7257	46441.62	3.6670	3.6670	0.8452	6.01	0.02	0.750			
0.7281	46601.21	3.6640	3.6640	0.8270	6.00	0.01	0.750			
0.7306	46759.65	3.6610	3.6610	0.8108	6.00	0.01	0.750			
0.7330	46913.61	3.6580	3.6581	0.7951	5.99	0.00	0.750			
0.7354	47065.08	3.6550	3.6550	0.7760	5.99	-0.00	0.750			
0.7377	47214.25	3.6520	3.6519	0.7461	5.98	-0.01	0.750			
0.7399	47356.02	3.6490	3.6490	0.7106	5.98	-0.01	0.750			
0.7421	47494.84	3.6460	3.6461	0.6567	5.98	-0.01	0.750			
0.7441	47620.16	3.6430	3.6429	0.5935	5.98	-0.01	0.750			
0.7458	47728.92	3.6400	3.6401	0.5128	5.99	-0.00	0.750			
0.7472	47819.37	3.6370	3.6370	0.4292	5.99	-0.00	0.750			
0.7482	47882.28	3.6340	3.6344	0.3667	5.99	-0.00	0.750			
0.7491	47945.36	3.6310	3.6311	0.3036	5.99	-0.00	0.750			
0.7499	47990.95	3.6280	3.6279	0.2307	5.99	-0.00	0.750			
0.7504	48028.31	3.6250	3.6239	0.1820	5.99	-0.00	0.750			
0.7508	48051.39	3.6220	3.6142	0.1293	5.99	0.00	0.750			
0.7509	48055.37	3.6010	3.5993	-0.1104	5.99	0.00	0.750			
0.7511	48068.05	3.6190	3.4007	0.0884	5.99	0.00	0.730			
0.7511	48073.39	3.6040	3.3117	-0.0773	5.99	0.00	0.721			
0.7513	48081.84	3.6160	3.1706	0.0552	5.99	0.00	0.705			
0.7513	48085.04	3.6070	3.1172	-0.0441	5.99	0.00	0.699			
0.7514	48089.27	3.6130	3.0467	0.0221	5.99	0.00	0.692			
0.7514	48090.34	3.6100	3.0289	-0.0110	5.99	0.00	0.690			
