Ah_balance (normalized)	Ah_balance (mAh)	Voltage - fit (V)	Voltage -  interpolate (V)	dQ/dV (1/V)	Temperature (°C)	Temperature - diff (°C)	Current (C)	R_DC 0ms (mOhm)	R_DC 50ms (mOhm)	R_DC 50 ms PEC (mOhm)
0.0002	13.19	4.1010	4.0999	-0.0374	5.98	-0.01	-0.750			
0.0004	24.71	4.0980	4.0975	-0.0717	5.98	-0.01	-0.750			
0.0007	42.50	4.0950	4.0945	-0.1020	5.98	-0.01	-0.750			
0.0010	64.89	4.0920	4.0920	-0.1311	5.98	-0.01	-0.750			
0.0015	93.77	4.0890	4.0890	-0.1542	5.98	-0.01	-0.750			
0.0020	125.94	4.0860	4.0861	-0.1793	5.99	-0.00	-0.750			
0.0026	165.31	4.0830	4.0831	-0.2043	5.99	-0.00	-0.750			
0.0032	205.91	4.0800	4.0801	-0.2265	5.99	-0.00	-0.750			
0.0039	251.26	4.0770	4.0769	-0.2479	5.99	-0.00	-0.750			
0.0047	300.05	4.0740	4.0741	-0.2720	5.99	-0.00	-0.750			
0.0055	354.56	4.0710	4.0710	-0.2952	5.99	-0.00	-0.750			
0.0065	414.09	4.0680	4.0680	-0.3176	5.99	-0.00	-0.750			
0.0075	478.15	4.0650	4.0651	-0.3406	5.99	-0.00	-0.750			
0.0085	546.22	4.0620	4.0621	-0.3627	5.99	0.00	-0.750			
0.0097	618.04	4.0590	4.0590	-0.3806	5.99	0.00	-0.750			
0.0108	692.13	4.0560	4.0560	-0.4027	5.99	0.00	-0.750			
0.0120	769.53	4.0530	4.0531	-0.4274	5.99	0.00	-0.750			
0.0133	854.38	4.0500	4.0500	-0.4532	5.99	0.00	-0.750			
0.0148	945.63	4.0470	4.0467	-0.4752	6.00	0.01	-0.750			
0.0162	1039.37	4.0440	4.0441	-0.4940	6.00	0.01	-0.750			
0.0178	1138.47	4.0410	4.0412	-0.5121	6.00	0.01	-0.750			
0.0194	1238.89	4.0380	4.0380	-0.5238	6.00	0.01	-0.750			
0.0209	1338.10	4.0350	4.0350	-0.5373	6.00	0.01	-0.750			
0.0225	1441.78	4.0320	4.0321	-0.5553	6.00	0.01	-0.750			
0.0242	1550.68	4.0290	4.0289	-0.5741	6.01	0.02	-0.750			
0.0260	1663.34	4.0260	4.0260	-0.5930	6.01	0.02	-0.750			
0.0278	1779.85	4.0230	4.0231	-0.6117	6.01	0.02	-0.750			
0.0297	1898.87	4.0200	4.0201	-0.6312	6.01	0.02	-0.750			
0.0316	2023.23	4.0170	4.0168	-0.6452	6.02	0.03	-0.750			
0.0336	2148.06	4.0140	4.0140	-0.6515	6.02	0.03	-0.750			
0.0355	2274.47	4.0110	4.0111	-0.6623	6.03	0.04	-0.750			
0.0375	2402.37	4.0080	4.0081	-0.6724	6.03	0.04	-0.750			
0.0396	2532.62	4.0050	4.0049	-0.6802	6.04	0.05	-0.750			
0.0417	2665.74	4.0020	4.0019	-0.6812	6.05	0.06	-0.750			
0.0437	2795.77	3.9990	3.9990	-0.6830	6.05	0.06	-0.750			
0.0458	2928.39	3.9960	3.9965	-0.6933	6.06	0.07	-0.750			
0.0478	3061.00	3.9930	3.9930	-0.7019	6.07	0.08	-0.750			
0.0499	3193.92	3.9900	3.9899	-0.7114	6.07	0.08	-0.750			
0.0521	3332.22	3.9870	3.9871	-0.7202	6.08	0.09	-0.750			
0.0543	3473.58	3.9840	3.9839	-0.7220	6.08	0.09	-0.750			
0.0565	3614.31	3.9810	3.9811	-0.7244	6.09	0.10	-0.750			
0.0587	3754.53	3.9780	3.9781	-0.7175	6.09	0.10	-0.750			
0.0608	3891.07	3.9750	3.9749	-0.7099	6.10	0.11	-0.750			
0.0628	4022.08	3.9720	3.9721	-0.7196	6.11	0.12	-0.750			
0.0650	4161.75	3.9690	3.9688	-0.7234	6.11	0.12	-0.750			
0.0672	4302.20	3.9660	3.9658	-0.7328	6.12	0.13	-0.750			
0.0694	4444.67	3.9630	3.9631	-0.7361	6.13	0.14	-0.750			
0.0717	4586.68	3.9600	3.9600	-0.7442	6.13	0.14	-0.750			
0.0739	4731.38	3.9570	3.9569	-0.7492	6.14	0.15	-0.750			
0.0762	4873.94	3.9540	3.9539	-0.7536	6.15	0.16	-0.750			
0.0784	5018.68	3.9510	3.9510	-0.7505	6.16	0.17	-0.750			
0.0807	5166.48	3.9480	3.9480	-0.7552	6.17	0.18	-0.750			
0.0830	5312.25	3.9450	3.9452	-0.7503	6.18	0.19	-0.750			
0.0852	5455.60	3.9420	3.9420	-0.7464	6.19	0.20	-0.750			
0.0874	5594.09	3.9390	3.9391	-0.7485	6.20	0.21	-0.750			
0.0897	5739.43	3.9360	3.9358	-0.7486	6.21	0.22	-0.750			
0.0919	5883.20	3.9330	3.9329	-0.7523	6.22	0.23	-0.750			
0.0942	6027.89	3.9300	3.9300	-0.7583	6.22	0.23	-0.750			
0.0965	6174.80	3.9270	3.9271	-0.7656	6.23	0.24	-0.750			
0.0988	6321.59	3.9240	3.9239	-0.7717	6.24	0.25	-0.750			
0.1011	6467.30	3.9210	3.9209	-0.7719	6.25	0.26	-0.750			
0.1034	6616.49	3.9180	3.9181	-0.7740	6.26	0.27	-0.750			
0.1058	6770.06	3.9150	3.9149	-0.7804	6.27	0.28	-0.750			
0.1081	6919.89	3.9120	3.9122	-0.7840	6.28	0.29	-0.750			
0.1105	7070.00	3.9090	3.9090	-0.7829	6.29	0.30	-0.750			
0.1128	7220.79	3.9060	3.9059	-0.7837	6.30	0.31	-0.750			
0.1152	7371.59	3.9030	3.9029	-0.7819	6.31	0.32	-0.750			
0.1175	7521.54	3.9000	3.9000	-0.7827	6.32	0.33	-0.750			
0.1199	7671.67	3.8970	3.8972	-0.7844	6.33	0.34	-0.750			
0.1222	7822.19	3.8940	3.8938	-0.7895	6.34	0.35	-0.750			
0.1246	7971.52	3.8910	3.8910	-0.7891	6.35	0.36	-0.750			
0.1269	8123.61	3.8880	3.8880	-0.7908	6.36	0.37	-0.750			
0.1293	8276.80	3.8850	3.8851	-0.7901	6.36	0.37	-0.750			
0.1317	8431.61	3.8820	3.8820	-0.7938	6.37	0.38	-0.750			
0.1341	8582.74	3.8790	3.8790	-0.7932	6.38	0.39	-0.750			
0.1364	8731.56	3.8760	3.8761	-0.7999	6.39	0.40	-0.750			
0.1389	8887.36	3.8730	3.8729	-0.8029	6.40	0.41	-0.750			
0.1413	9042.90	3.8700	3.8699	-0.8091	6.41	0.42	-0.750			
0.1438	9200.02	3.8670	3.8670	-0.8154	6.41	0.42	-0.750			
0.1462	9359.06	3.8640	3.8641	-0.8166	6.42	0.43	-0.750			
0.1487	9514.84	3.8610	3.8609	-0.8113	6.43	0.44	-0.750			
0.1511	9669.03	3.8580	3.8580	-0.8126	6.45	0.46	-0.750			
0.1535	9823.83	3.8550	3.8548	-0.8104	6.46	0.47	-0.750			
0.1560	9982.60	3.8520	3.8519	-0.8144	6.47	0.48	-0.750			
0.1584	10140.02	3.8490	3.8492	-0.8098	6.48	0.49	-0.750			
0.1609	10295.73	3.8460	3.8460	-0.8023	6.49	0.50	-0.750			
0.1633	10448.74	3.8430	3.8430	-0.8010	6.50	0.51	-0.750			
0.1656	10597.43	3.8400	3.8401	-0.8016	6.51	0.52	-0.750			
0.1680	10751.40	3.8370	3.8369	-0.8108	6.52	0.53	-0.750			
0.1704	10905.82	3.8340	3.8337	-0.8199	6.53	0.54	-0.750			
0.1729	11067.14	3.8310	3.8310	-0.8222	6.54	0.55	-0.750			
0.1754	11226.47	3.8280	3.8280	-0.8282	6.55	0.56	-0.750			
0.1780	11389.55	3.8250	3.8250	-0.8274	6.56	0.57	-0.750			
0.1804	11547.17	3.8220	3.8219	-0.8230	6.57	0.58	-0.750			
0.1829	11702.95	3.8190	3.8191	-0.8159	6.58	0.59	-0.750			
0.1853	11858.44	3.8160	3.8159	-0.8188	6.59	0.60	-0.750			
0.1877	12012.91	3.8130	3.8131	-0.8257	6.60	0.61	-0.750			
0.1902	12172.98	3.8100	3.8099	-0.8380	6.61	0.62	-0.750			
0.1927	12335.02	3.8070	3.8068	-0.8324	6.62	0.63	-0.750			
0.1953	12499.24	3.8040	3.8042	-0.8370	6.63	0.64	-0.750			
0.1978	12659.76	3.8010	3.8011	-0.8309	6.64	0.65	-0.750			
0.2003	12819.87	3.7980	3.7979	-0.8325	6.65	0.66	-0.750			
0.2028	12977.94	3.7950	3.7949	-0.8288	6.65	0.66	-0.750			
0.2052	13132.41	3.7920	3.7920	-0.8326	6.66	0.67	-0.750			
0.2077	13293.81	3.7890	3.7890	-0.8408	6.67	0.68	-0.750			
0.2103	13457.90	3.7860	3.7859	-0.8485	6.68	0.69	-0.750			
0.2129	13623.25	3.7830	3.7831	-0.8546	6.69	0.70	-0.750			
0.2155	13789.24	3.7800	3.7799	-0.8506	6.70	0.71	-0.750			
0.2180	13953.35	3.7770	3.7769	-0.8413	6.71	0.72	-0.750			
0.2205	14113.98	3.7740	3.7744	-0.8372	6.72	0.73	-0.750			
0.2230	14271.73	3.7710	3.7710	-0.8338	6.73	0.74	-0.750			
0.2255	14429.70	3.7680	3.7680	-0.8372	6.74	0.75	-0.750			
0.2279	14588.67	3.7650	3.7649	-0.8457	6.75	0.76	-0.750			
0.2305	14752.89	3.7620	3.7620	-0.8611	6.76	0.77	-0.750			
0.2331	14919.02	3.7590	3.7590	-0.8710	6.77	0.78	-0.750			
0.2358	15091.97	3.7560	3.7560	-0.8747	6.78	0.79	-0.750			
0.2384	15260.29	3.7530	3.7530	-0.8693	6.79	0.80	-0.750			
0.2410	15426.63	3.7500	3.7500	-0.8591	6.80	0.81	-0.750			
0.2436	15590.65	3.7470	3.7471	-0.8504	6.80	0.81	-0.750			
0.2461	15750.77	3.7440	3.7440	-0.8468	6.81	0.82	-0.750			
0.2486	15911.58	3.7410	3.7409	-0.8454	6.82	0.83	-0.750			
0.2511	16072.40	3.7380	3.7380	-0.8530	6.83	0.84	-0.750			
0.2537	16236.60	3.7350	3.7351	-0.8691	6.84	0.85	-0.750			
0.2563	16404.90	3.7320	3.7319	-0.8822	6.85	0.86	-0.750			
0.2590	16577.13	3.7290	3.7290	-0.8957	6.86	0.87	-0.750			
0.2617	16750.77	3.7260	3.7259	-0.9022	6.87	0.88	-0.750			
0.2645	16925.56	3.7230	3.7231	-0.9042	6.88	0.89	-0.750			
0.2672	17100.46	3.7200	3.7201	-0.9004	6.88	0.89	-0.750			
0.2699	17276.13	3.7170	3.7168	-0.8994	6.89	0.90	-0.750			
0.2726	17444.27	3.7140	3.7141	-0.8955	6.90	0.91	-0.750			
0.2753	17616.31	3.7110	3.7109	-0.8976	6.91	0.92	-0.750			
0.2780	17788.83	3.7080	3.7080	-0.8960	6.92	0.93	-0.750			
0.2806	17959.81	3.7050	3.7050	-0.9032	6.93	0.94	-0.750			
0.2833	18133.74	3.7020	3.7022	-0.9105	6.94	0.95	-0.750			
0.2861	18308.33	3.6990	3.6989	-0.9222	6.95	0.96	-0.750			
0.2889	18487.60	3.6960	3.6960	-0.9239	6.96	0.97	-0.750			
0.2916	18663.93	3.6930	3.6930	-0.9286	6.97	0.98	-0.750			
0.2945	18844.89	3.6900	3.6901	-0.9383	6.98	0.99	-0.750			
0.2973	19026.11	3.6870	3.6869	-0.9435	6.98	0.99	-0.750			
0.3001	19205.10	3.6840	3.6839	-0.9485	6.99	1.00	-0.750			
0.3030	19389.42	3.6810	3.6809	-0.9551	7.00	1.01	-0.750			
0.3058	19572.11	3.6780	3.6780	-0.9599	7.00	1.01	-0.750			
0.3087	19759.71	3.6750	3.6751	-0.9685	7.01	1.02	-0.750			
0.3116	19945.53	3.6720	3.6720	-0.9731	7.02	1.03	-0.750			
0.3146	20132.83	3.6690	3.6690	-0.9805	7.03	1.04	-0.750			
0.3175	20320.31	3.6660	3.6661	-0.9868	7.03	1.04	-0.750			
0.3205	20510.95	3.6630	3.6631	-1.0000	7.04	1.05	-0.750			
0.3235	20704.29	3.6600	3.6600	-1.0082	7.05	1.06	-0.750			
0.3265	20896.99	3.6570	3.6570	-1.0231	7.05	1.06	-0.750			
0.3296	21096.21	3.6540	3.6540	-1.0279	7.06	1.07	-0.750			
0.3327	21294.20	3.6510	3.6509	-1.0388	7.07	1.08	-0.750			
0.3359	21496.98	3.6480	3.6480	-1.0545	7.08	1.09	-0.750			
0.3391	21703.90	3.6450	3.6449	-1.0498	7.08	1.09	-0.750			
0.3423	21906.71	3.6420	3.6419	-1.0484	7.09	1.10	-0.750			
0.3454	22105.77	3.6390	3.6395	-1.0564	7.10	1.11	-0.750			
0.3485	22305.56	3.6360	3.6360	-1.0591	7.11	1.12	-0.750			
0.3517	22510.32	3.6330	3.6328	-1.0748	7.11	1.12	-0.750			
0.3549	22713.33	3.6300	3.6300	-1.0764	7.12	1.13	-0.750			
0.3582	22925.75	3.6270	3.6273	-1.1077	7.13	1.14	-0.750			
0.3616	23140.78	3.6240	3.6241	-1.1140	7.14	1.15	-0.750			
0.3649	23354.73	3.6210	3.6210	-1.1240	7.14	1.15	-0.750			
0.3683	23570.01	3.6180	3.6180	-1.1315	7.15	1.16	-0.750			
0.3717	23788.68	3.6150	3.6149	-1.1413	7.15	1.16	-0.750			
0.3752	24010.63	3.6120	3.6120	-1.1483	7.16	1.17	-0.750			
0.3786	24232.51	3.6090	3.6090	-1.1629	7.17	1.18	-0.750			
0.3821	24455.04	3.6060	3.6061	-1.1699	7.18	1.19	-0.750			
0.3857	24681.72	3.6030	3.6029	-1.1972	7.18	1.19	-0.750			
0.3893	24912.71	3.6000	3.5999	-1.1996	7.18	1.19	-0.750			
0.3929	25146.62	3.5970	3.5969	-1.2076	7.19	1.20	-0.750			
0.3966	25379.68	3.5940	3.5942	-1.2153	7.19	1.20	-0.750	0.391	0.886	
0.4003	25617.47	3.5910	3.5911	-1.2200	7.20	1.21	-0.750			
0.4038	25846.36	3.5880	3.5879	-1.2247	7.21	1.22	-0.750			
0.4074	26076.74	3.5850	3.5849	-1.2274	7.22	1.23	-0.750			
0.4112	26316.56	3.5820	3.5820	-1.2482	7.22	1.23	-0.750			
0.4151	26563.84	3.5790	3.5789	-1.2674	7.23	1.24	-0.750			
0.4189	26806.46	3.5760	3.5760	-1.2745	7.24	1.25	-0.750			
0.4227	27050.74	3.5730	3.5731	-1.2756	7.24	1.25	-0.750			
0.4266	27299.86	3.5700	3.5699	-1.2905	7.25	1.26	-0.750			
0.4304	27545.86	3.5670	3.5670	-1.2970	7.26	1.27	-0.750			
0.4343	27792.11	3.5640	3.5640	-1.3161	7.27	1.28	-0.750			
0.4383	28048.76	3.5610	3.5610	-1.3361	7.28	1.29	-0.750			
0.4423	28309.54	3.5580	3.5579	-1.3568	7.28	1.29	-0.750			
0.4464	28571.90	3.5550	3.5550	-1.3683	7.29	1.30	-0.750			
0.4506	28835.68	3.5520	3.5522	-1.3881	7.30	1.31	-0.750			
0.4548	29104.18	3.5490	3.5489	-1.3922	7.30	1.31	-0.750			
0.4590	29373.66	3.5460	3.5460	-1.4033	7.31	1.32	-0.750			
0.4632	29643.15	3.5430	3.5429	-1.4086	7.32	1.33	-0.750			
0.4674	29915.49	3.5400	3.5401	-1.4144	7.32	1.33	-0.750			
0.4718	30192.72	3.5370	3.5370	-1.4226	7.33	1.34	-0.750			
0.4761	30469.35	3.5340	3.5339	-1.4179	7.34	1.35	-0.750			
0.4803	30737.14	3.5310	3.5310	-1.4245	7.35	1.36	-0.750			
0.4845	31009.73	3.5280	3.5282	-1.4169	7.36	1.37	-0.750			
0.4888	31283.49	3.5250	3.5248	-1.4277	7.37	1.38	-0.750			
0.4930	31555.05	3.5220	3.5220	-1.4371	7.38	1.39	-0.750			
0.4973	31825.19	3.5190	3.5190	-1.4439	7.38	1.39	-0.750			
0.5017	32109.48	3.5160	3.5160	-1.4661	7.39	1.40	-0.750			
0.5062	32395.49	3.5130	3.5129	-1.4736	7.40	1.41	-0.750			
0.5106	32679.89	3.5100	3.5098	-1.4706	7.41	1.42	-0.750			
0.5151	32966.76	3.5070	3.5068	-1.4648	7.42	1.43	-0.750			
0.5195	33246.28	3.5040	3.5043	-1.4528	7.43	1.44	-0.750			
0.5238	33522.75	3.5010	3.5009	-1.4331	7.44	1.45	-0.750			
0.5280	33794.80	3.4980	3.4979	-1.4132	7.45	1.46	-0.750			
0.5323	34067.11	3.4950	3.4950	-1.4201	7.46	1.47	-0.750			
0.5365	34335.05	3.4920	3.4920	-1.4141	7.47	1.48	-0.750			
0.5408	34608.87	3.4890	3.4890	-1.4220	7.47	1.48	-0.750			
0.5450	34881.92	3.4860	3.4860	-1.4252	7.48	1.49	-0.750			
0.5493	35155.86	3.4830	3.4829	-1.4202	7.49	1.50	-0.750			
0.5536	35431.73	3.4800	3.4801	-1.4211	7.51	1.52	-0.750			
0.5579	35703.35	3.4770	3.4771	-1.4177	7.52	1.53	-0.750			
0.5621	35973.21	3.4740	3.4739	-1.4095	7.53	1.54	-0.750			
0.5663	36244.02	3.4710	3.4710	-1.4079	7.55	1.56	-0.750			
0.5705	36512.92	3.4680	3.4681	-1.4094	7.56	1.57	-0.750			
0.5748	36785.58	3.4650	3.4650	-1.4015	7.57	1.58	-0.750			
0.5791	37059.40	3.4620	3.4619	-1.3976	7.58	1.59	-0.750			
0.5832	37326.94	3.4590	3.4592	-1.3855	7.59	1.60	-0.750			
0.5873	37590.26	3.4560	3.4559	-1.3763	7.60	1.61	-0.750			
0.5915	37854.93	3.4530	3.4530	-1.3572	7.61	1.62	-0.750			
0.5955	38112.50	3.4500	3.4502	-1.3538	7.62	1.63	-0.750			
0.5996	38373.47	3.4470	3.4469	-1.3378	7.64	1.65	-0.750			
0.6036	38630.83	3.4440	3.4441	-1.3167	7.65	1.66	-0.750			
0.6075	38882.29	3.4410	3.4412	-1.2924	7.67	1.68	-0.750			
0.6114	39128.15	3.4380	3.4380	-1.2769	7.68	1.69	-0.750			
0.6151	39368.65	3.4350	3.4351	-1.2464	7.69	1.70	-0.750			
0.6188	39603.66	3.4320	3.4319	-1.2227	7.70	1.71	-0.750			
0.6224	39833.12	3.4290	3.4290	-1.2029	7.72	1.73	-0.750			
0.6261	40067.92	3.4260	3.4261	-1.1944	7.73	1.74	-0.750			
0.6296	40295.55	3.4230	3.4229	-1.1664	7.75	1.76	-0.750			
0.6331	40516.51	3.4200	3.4203	-1.1589	7.76	1.77	-0.750			
0.6365	40738.01	3.4170	3.4170	-1.1375	7.77	1.78	-0.750			
0.6399	40956.44	3.4140	3.4139	-1.1162	7.79	1.80	-0.750			
0.6433	41168.10	3.4110	3.4109	-1.0928	7.80	1.81	-0.750			
0.6465	41378.31	3.4080	3.4081	-1.0681	7.81	1.82	-0.750			
0.6497	41580.36	3.4050	3.4050	-1.0391	7.83	1.84	-0.750			
0.6528	41778.32	3.4020	3.4019	-1.0118	7.84	1.85	-0.750			
0.6557	41964.51	3.3990	3.3991	-0.9754	7.86	1.87	-0.750			
0.6586	42152.23	3.3960	3.3961	-0.9639	7.87	1.88	-0.750			
0.6615	42334.38	3.3930	3.3931	-0.9415	7.88	1.89	-0.750			
0.6643	42513.03	3.3900	3.3899	-0.9164	7.89	1.90	-0.750			
0.6670	42688.77	3.3870	3.3870	-0.8938	7.91	1.92	-0.750			
0.6697	42858.24	3.3840	3.3840	-0.8720	7.92	1.93	-0.750			
0.6722	43022.41	3.3810	3.3812	-0.8449	7.93	1.94	-0.750			
0.6747	43180.94	3.3780	3.3779	-0.8247	7.94	1.95	-0.750			
0.6771	43336.79	3.3750	3.3750	-0.8027	7.96	1.97	-0.750			
0.6795	43489.52	3.3720	3.3720	-0.7799	7.97	1.98	-0.750			
0.6818	43637.73	3.3690	3.3690	-0.7576	7.98	1.99	-0.750			
0.6841	43782.70	3.3660	3.3660	-0.7389	8.00	2.01	-0.750			
0.6863	43920.86	3.3630	3.3630	-0.7203	8.01	2.02	-0.750			
0.6884	44055.95	3.3600	3.3599	-0.7027	8.02	2.03	-0.750			
0.6904	44188.33	3.3570	3.3570	-0.6847	8.04	2.05	-0.750			
0.6925	44319.15	3.3540	3.3540	-0.6761	8.05	2.06	-0.750			
0.6945	44449.81	3.3510	3.3510	-0.6599	8.06	2.07	-0.750			
0.6965	44574.31	3.3480	3.3481	-0.6422	8.08	2.09	-0.750			
0.6984	44694.94	3.3450	3.3450	-0.6260	8.09	2.10	-0.750			
0.7002	44813.99	3.3420	3.3419	-0.6079	8.10	2.11	-0.750			
0.7020	44928.17	3.3390	3.3390	-0.5934	8.12	2.13	-0.750			
0.7038	45041.32	3.3360	3.3360	-0.5783	8.13	2.14	-0.750			
0.7055	45151.19	3.3330	3.3331	-0.5611	8.14	2.15	-0.750			
0.7072	45258.44	3.3300	3.3299	-0.5497	8.15	2.16	-0.750			
0.7088	45361.55	3.3270	3.3271	-0.5301	8.16	2.17	-0.750			
0.7103	45461.57	3.3240	3.3239	-0.5157	8.18	2.19	-0.750			
0.7119	45559.20	3.3210	3.3211	-0.5036	8.19	2.20	-0.750			
0.7133	45652.62	3.3180	3.3180	-0.4893	8.20	2.21	-0.750			
0.7148	45746.65	3.3150	3.3149	-0.4789	8.21	2.22	-0.750			
0.7162	45838.00	3.3120	3.3120	-0.4686	8.22	2.23	-0.750			
0.7176	45926.15	3.3090	3.3091	-0.4572	8.23	2.24	-0.750			
0.7190	46013.68	3.3060	3.3061	-0.4507	8.24	2.25	-0.750			
0.7203	46098.56	3.3030	3.3031	-0.4416	8.25	2.26	-0.750			
0.7216	46181.55	3.3000	3.2999	-0.4321	8.26	2.27	-0.750			
0.7229	46263.91	3.2970	3.2970	-0.4260	8.27	2.28	-0.750			
0.7242	46346.35	3.2940	3.2940	-0.4180	8.28	2.29	-0.750			
0.7254	46425.15	3.2910	3.2910	-0.4077	8.29	2.30	-0.750			
0.7266	46502.54	3.2880	3.2881	-0.4019	8.30	2.31	-0.750			
0.7278	46578.83	3.2850	3.2849	-0.3943	8.31	2.32	-0.750			
0.7290	46653.16	3.2820	3.2820	-0.3869	8.32	2.33	-0.750			
0.7301	46728.17	3.2790	3.2790	-0.3782	8.34	2.35	-0.750			
0.7313	46800.20	3.2760	3.2761	-0.3712	8.35	2.36	-0.750			
0.7324	46870.97	3.2730	3.2728	-0.3642	8.36	2.37	-0.750			
0.7334	46939.08	3.2700	3.2700	-0.3540	8.36	2.37	-0.750			
0.7345	47005.41	3.2670	3.2669	-0.3469	8.37	2.38	-0.750			
0.7355	47071.40	3.2640	3.2641	-0.3409	8.38	2.39	-0.750			
0.7365	47136.14	3.2610	3.2610	-0.3351	8.39	2.40	-0.750			
0.7375	47200.80	3.2580	3.2580	-0.3315	8.40	2.41	-0.750			
0.7385	47263.16	3.2550	3.2551	-0.3252	8.41	2.42	-0.750			
0.7395	47325.37	3.2520	3.2519	-0.3206	8.42	2.43	-0.750			
0.7404	47386.29	3.2490	3.2491	-0.3165	8.43	2.44	-0.750			
0.7414	47446.76	3.2460	3.2460	-0.3114	8.44	2.45	-0.750			
0.7423	47506.58	3.2430	3.2430	-0.3080	8.45	2.46	-0.750			
0.7432	47565.40	3.2400	3.2400	-0.3009	8.46	2.47	-0.750			
0.7441	47622.20	3.2370	3.2370	-0.2947	8.47	2.48	-0.750			
0.7450	47677.90	3.2340	3.2340	-0.2901	8.48	2.49	-0.750			
0.7458	47733.15	3.2310	3.2310	-0.2860	8.48	2.49	-0.750			
0.7467	47787.64	3.2280	3.2280	-0.2807	8.49	2.50	-0.750			
0.7475	47841.33	3.2250	3.2250	-0.2777	8.50	2.51	-0.750			
0.7483	47893.80	3.2220	3.2221	-0.2739	8.51	2.52	-0.750			
0.7492	47946.71	3.2190	3.2190	-0.2705	8.52	2.53	-0.750			
0.7500	47997.99	3.2160	3.2159	-0.2659	8.53	2.54	-0.750			
0.7508	48048.38	3.2130	3.2131	-0.2617	8.54	2.55	-0.750			
0.7515	48098.51	3.2100	3.2101	-0.2580	8.55	2.56	-0.750			
0.7523	48147.77	3.2070	3.2069	-0.2551	8.56	2.57	-0.750			
0.7531	48196.44	3.2040	3.2040	-0.2513	8.56	2.57	-0.750			
0.7538	48243.97	3.2010	3.2010	-0.2468	8.57	2.58	-0.750			
0.7546	48291.34	3.1980	3.1979	-0.2443	8.58	2.59	-0.750			
0.7553	48337.72	3.1950	3.1951	-0.2423	8.59	2.60	-0.750			
0.7560	48383.89	3.1920	3.1920	-0.2390	8.60	2.61	-0.750			
0.7567	48429.48	3.1890	3.1889	-0.2358	8.60	2.61	-0.750			
0.7574	48474.83	3.1860	3.1860	-0.2329	8.61	2.62	-0.750			
0.7581	48519.04	3.1830	3.1832	-0.2291	8.62	2.63	-0.750			
0.7588	48563.03	3.1800	3.1799	-0.2264	8.63	2.64	-0.750			
0.7595	48606.22	3.1770	3.1769	-0.2227	8.64	2.65	-0.750			
0.7601	48648.17	3.1740	3.1740	-0.2201	8.65	2.66	-0.750			
0.7608	48689.53	3.1710	3.1710	-0.2168	8.65	2.66	-0.750			
0.7614	48730.85	3.1680	3.1680	-0.2155	8.66	2.67	-0.750			
0.7621	48772.00	3.1650	3.1649	-0.2133	8.67	2.68	-0.750			
0.7627	48813.28	3.1620	3.1619	-0.2114	8.68	2.69	-0.750			
0.7633	48853.63	3.1590	3.1591	-0.2089	8.69	2.70	-0.750			
0.7640	48893.60	3.1560	3.1561	-0.2071	8.69	2.70	-0.750			
0.7646	48933.23	3.1530	3.1530	-0.2056	8.70	2.71	-0.750			
0.7652	48972.07	3.1500	3.1499	-0.2024	8.71	2.72	-0.750			
0.7658	49010.79	3.1470	3.1471	-0.2009	8.72	2.73	-0.750			
0.7664	49049.08	3.1440	3.1440	-0.1987	8.72	2.73	-0.750			
0.7670	49087.47	3.1410	3.1410	-0.1965	8.73	2.74	-0.750			
0.7676	49125.09	3.1380	3.1380	-0.1952	8.74	2.75	-0.750			
0.7682	49162.29	3.1350	3.1350	-0.1923	8.74	2.75	-0.750			
0.7687	49198.51	3.1320	3.1321	-0.1908	8.75	2.76	-0.750			
0.7693	49234.98	3.1290	3.1289	-0.1882	8.76	2.77	-0.750			
0.7699	49271.10	3.1260	3.1259	-0.1863	8.76	2.77	-0.750			
0.7704	49306.59	3.1230	3.1232	-0.1846	8.77	2.78	-0.750			
0.7710	49341.92	3.1200	3.1199	-0.1829	8.78	2.79	-0.750			
0.7715	49377.03	3.1170	3.1169	-0.1813	8.78	2.79	-0.750			
0.7721	49411.39	3.1140	3.1140	-0.1786	8.79	2.80	-0.750			
0.7726	49445.06	3.1110	3.1110	-0.1769	8.80	2.81	-0.750			
0.7731	49478.97	3.1080	3.1081	-0.1764	8.81	2.82	-0.750			
0.7736	49513.13	3.1050	3.1050	-0.1749	8.82	2.83	-0.750			
0.7742	49546.42	3.1020	3.1019	-0.1736	8.82	2.83	-0.750			
0.7747	49579.54	3.0990	3.0990	-0.1720	8.83	2.84	-0.750			
0.7752	49612.46	3.0960	3.0962	-0.1710	8.84	2.85	-0.750			
0.7757	49645.27	3.0930	3.0929	-0.1700	8.85	2.86	-0.750			
0.7762	49677.95	3.0900	3.0901	-0.1688	8.85	2.86	-0.750			
0.7767	49710.10	3.0870	3.0870	-0.1666	8.86	2.87	-0.750			
0.7772	49741.96	3.0840	3.0839	-0.1653	8.87	2.88	-0.750			
0.7777	49773.83	3.0810	3.0810	-0.1644	8.88	2.89	-0.750			
0.7782	49805.00	3.0780	3.0780	-0.1627	8.88	2.89	-0.750			
0.7787	49836.09	3.0750	3.0749	-0.1614	8.89	2.90	-0.750			
0.7792	49866.97	3.0720	3.0721	-0.1602	8.90	2.91	-0.750			
0.7796	49897.36	3.0690	3.0690	-0.1595	8.91	2.92	-0.750			
0.7801	49928.22	3.0660	3.0660	-0.1584	8.91	2.92	-0.750			
0.7806	49958.52	3.0630	3.0630	-0.1573	8.92	2.93	-0.750			
0.7811	49988.69	3.0600	3.0600	-0.1564	8.93	2.94	-0.750			
0.7815	50018.30	3.0570	3.0571	-0.1561	8.94	2.95	-0.750			
0.7820	50048.10	3.0540	3.0539	-0.1556	8.94	2.95	-0.750			
0.7825	50078.13	3.0510	3.0509	-0.1539	8.95	2.96	-0.750			
0.7829	50107.62	3.0480	3.0479	-0.1529	8.96	2.97	-0.750			
0.7834	50136.83	3.0450	3.0452	-0.1517	8.96	2.97	-0.750			
0.7838	50166.23	3.0420	3.0420	-0.1511	8.97	2.98	-0.750			
0.7843	50195.06	3.0390	3.0389	-0.1492	8.98	2.99	-0.750			
0.7847	50223.22	3.0360	3.0360	-0.1484	8.99	3.00	-0.750			
0.7852	50251.24	3.0330	3.0330	-0.1469	8.99	3.00	-0.750			
0.7856	50279.45	3.0300	3.0300	-0.1469	9.00	3.01	-0.750			
0.7861	50307.94	3.0270	3.0268	-0.1463	9.01	3.02	-0.750			
0.7865	50335.92	3.0240	3.0241	-0.1449	9.02	3.03	-0.750			
0.7869	50363.67	3.0210	3.0210	-0.1443	9.02	3.03	-0.750			
0.7874	50391.28	3.0180	3.0181	-0.1433	9.03	3.04	-0.750			
0.7878	50418.77	3.0150	3.0150	-0.1428	9.04	3.05	-0.750			
0.7882	50445.75	3.0120	3.0119	-0.1416	9.04	3.05	-0.750			
0.7886	50472.79	3.0090	3.0090	-0.1414	9.05	3.06	-0.750			
0.7891	50499.95	3.0060	3.0060	-0.1415	9.06	3.07	-0.750			
0.7895	50527.13	3.0030	3.0029	-0.1417	9.07	3.08	-0.750			
