Ah_balance (normalized)	Ah_balance (mAh)	Voltage - fit (V)	Voltage -  interpolate (V)	dQ/dV (1/V)	Temperature (°C)	Temperature - diff (°C)	Current (C)	R_DC 0ms (mOhm)	R_DC 50ms (mOhm)	R_DC 50 ms PEC (mOhm)
0.0002	13.09	4.1100	4.1088	-0.0429	5.99	0.00	-0.750			
0.0004	25.22	4.1070	4.1064	-0.0773	5.99	0.00	-0.750			
0.0007	43.78	4.1040	4.1036	-0.1073	5.99	0.00	-0.750			
0.0010	67.05	4.1010	4.1010	-0.1351	5.99	0.00	-0.750			
0.0015	96.33	4.0980	4.0980	-0.1592	5.99	0.00	-0.750			
0.0020	129.27	4.0950	4.0951	-0.1834	5.99	0.00	-0.750			
0.0026	168.12	4.0920	4.0921	-0.2087	5.99	0.00	-0.750			
0.0033	210.77	4.0890	4.0890	-0.2295	5.99	0.00	-0.750			
0.0040	256.72	4.0860	4.0859	-0.2510	5.99	0.00	-0.750			
0.0048	306.77	4.0830	4.0831	-0.2728	5.99	0.00	-0.750			
0.0056	360.81	4.0800	4.0801	-0.2968	5.99	0.00	-0.750			
0.0066	420.07	4.0770	4.0768	-0.3221	5.99	0.00	-0.750			
0.0076	484.52	4.0740	4.0740	-0.3438	5.99	0.00	-0.750			
0.0086	553.34	4.0710	4.0710	-0.3651	5.99	0.00	-0.750			
0.0098	625.41	4.0680	4.0681	-0.3883	5.99	0.00	-0.750			
0.0110	702.54	4.0650	4.0650	-0.4108	5.99	0.00	-0.750			
0.0122	782.67	4.0620	4.0619	-0.4328	5.99	0.00	-0.750			
0.0136	867.40	4.0590	4.0590	-0.4561	5.99	0.00	-0.750			
0.0150	958.29	4.0560	4.0560	-0.4768	5.99	0.00	-0.750			
0.0165	1053.46	4.0530	4.0530	-0.4952	5.99	0.00	-0.750			
0.0180	1151.83	4.0500	4.0499	-0.5146	5.99	0.00	-0.750			
0.0195	1250.57	4.0470	4.0472	-0.5323	5.99	0.00	-0.750			
0.0212	1354.27	4.0440	4.0438	-0.5507	5.99	0.00	-0.750			
0.0228	1461.61	4.0410	4.0411	-0.5666	5.99	0.00	-0.750			
0.0246	1571.87	4.0380	4.0380	-0.5832	5.99	0.00	-0.750			
0.0263	1686.14	4.0350	4.0352	-0.6014	5.99	0.00	-0.750			
0.0282	1803.75	4.0320	4.0320	-0.6209	5.99	0.00	-0.750			
0.0301	1924.51	4.0290	4.0290	-0.6307	6.00	0.01	-0.750			
0.0320	2046.84	4.0260	4.0260	-0.6406	6.00	0.01	-0.750			
0.0339	2172.00	4.0230	4.0227	-0.6540	6.00	0.01	-0.750			
0.0359	2300.73	4.0200	4.0201	-0.6638	6.00	0.01	-0.750			
0.0379	2428.27	4.0170	4.0170	-0.6724	6.01	0.02	-0.750			
0.0400	2558.06	4.0140	4.0140	-0.6816	6.01	0.02	-0.750			
0.0420	2687.61	4.0110	4.0111	-0.6829	6.02	0.03	-0.750			
0.0441	2823.85	4.0080	4.0079	-0.6912	6.02	0.03	-0.750			
0.0462	2957.30	4.0050	4.0050	-0.6936	6.03	0.04	-0.750			
0.0483	3089.90	4.0020	4.0021	-0.6904	6.03	0.04	-0.750			
0.0504	3222.58	3.9990	3.9990	-0.6929	6.04	0.05	-0.750			
0.0524	3353.17	3.9960	3.9960	-0.6968	6.04	0.05	-0.750			
0.0545	3487.23	3.9930	3.9928	-0.7031	6.05	0.06	-0.750			
0.0566	3622.14	3.9900	3.9900	-0.7110	6.06	0.07	-0.750			
0.0588	3760.09	3.9870	3.9871	-0.7215	6.06	0.07	-0.750			
0.0609	3899.66	3.9840	3.9840	-0.7342	6.07	0.08	-0.750			
0.0632	4042.95	3.9810	3.9809	-0.7435	6.08	0.09	-0.750			
0.0654	4186.36	3.9780	3.9780	-0.7450	6.08	0.09	-0.750			
0.0677	4330.56	3.9750	3.9751	-0.7470	6.09	0.10	-0.750			
0.0699	4475.68	3.9720	3.9720	-0.7542	6.09	0.10	-0.750			
0.0722	4620.60	3.9690	3.9688	-0.7528	6.10	0.11	-0.750			
0.0744	4764.58	3.9660	3.9658	-0.7504	6.10	0.11	-0.750			
0.0767	4907.88	3.9630	3.9631	-0.7484	6.11	0.12	-0.750			
0.0789	5051.84	3.9600	3.9600	-0.7545	6.12	0.13	-0.750			
0.0812	5196.06	3.9570	3.9570	-0.7530	6.13	0.14	-0.750			
0.0835	5342.08	3.9540	3.9539	-0.7572	6.13	0.14	-0.750			
0.0857	5487.20	3.9510	3.9511	-0.7564	6.14	0.15	-0.750			
0.0880	5633.57	3.9480	3.9479	-0.7622	6.15	0.16	-0.750			
0.0903	5780.02	3.9450	3.9451	-0.7646	6.16	0.17	-0.750			
0.0926	5926.66	3.9420	3.9420	-0.7674	6.17	0.18	-0.750			
0.0949	6074.63	3.9390	3.9389	-0.7692	6.18	0.19	-0.750			
0.0972	6223.07	3.9360	3.9358	-0.7731	6.19	0.20	-0.750			
0.0995	6371.12	3.9330	3.9330	-0.7746	6.19	0.20	-0.750			
0.1019	6519.82	3.9300	3.9300	-0.7789	6.20	0.21	-0.750			
0.1042	6669.72	3.9270	3.9270	-0.7776	6.21	0.22	-0.750			
0.1066	6819.69	3.9240	3.9240	-0.7790	6.21	0.22	-0.750			
0.1089	6968.95	3.9210	3.9210	-0.7825	6.22	0.23	-0.750			
0.1113	7120.20	3.9180	3.9181	-0.7845	6.22	0.23	-0.750			
0.1136	7270.99	3.9150	3.9150	-0.7822	6.23	0.24	-0.750			
0.1160	7421.60	3.9120	3.9120	-0.7805	6.24	0.25	-0.750			
0.1183	7570.32	3.9090	3.9091	-0.7818	6.25	0.26	-0.750			
0.1206	7720.26	3.9060	3.9060	-0.7884	6.26	0.27	-0.750			
0.1230	7869.91	3.9030	3.9031	-0.7928	6.27	0.28	-0.750			
0.1253	8021.95	3.9000	3.9000	-0.8007	6.28	0.29	-0.750			
0.1278	8180.15	3.8970	3.8969	-0.8069	6.29	0.30	-0.750			
0.1303	8337.24	3.8940	3.8940	-0.8066	6.29	0.30	-0.750			
0.1327	8493.31	3.8910	3.8911	-0.8050	6.30	0.31	-0.750			
0.1351	8646.19	3.8880	3.8882	-0.7986	6.31	0.32	-0.750			
0.1375	8797.27	3.8850	3.8849	-0.7951	6.32	0.33	-0.750			
0.1398	8949.20	3.8820	3.8819	-0.7990	6.33	0.34	-0.750			
0.1422	9101.21	3.8790	3.8790	-0.8020	6.34	0.35	-0.750			
0.1446	9257.55	3.8760	3.8760	-0.8047	6.35	0.36	-0.750			
0.1471	9413.10	3.8730	3.8731	-0.8153	6.36	0.37	-0.750			
0.1495	9570.21	3.8700	3.8699	-0.8168	6.37	0.38	-0.750			
0.1520	9726.63	3.8670	3.8669	-0.8191	6.37	0.38	-0.750			
0.1544	9884.32	3.8640	3.8640	-0.8205	6.38	0.39	-0.750			
0.1569	10040.72	3.8610	3.8611	-0.8257	6.39	0.40	-0.750			
0.1594	10201.98	3.8580	3.8580	-0.8290	6.40	0.41	-0.750			
0.1619	10362.67	3.8550	3.8549	-0.8281	6.40	0.41	-0.750			
0.1644	10518.48	3.8520	3.8521	-0.8278	6.41	0.42	-0.750			
0.1669	10681.50	3.8490	3.8489	-0.8303	6.42	0.43	-0.750			
0.1694	10839.78	3.8460	3.8459	-0.8287	6.43	0.44	-0.750			
0.1719	10998.83	3.8430	3.8429	-0.8277	6.44	0.45	-0.750			
0.1743	11155.90	3.8400	3.8401	-0.8267	6.45	0.46	-0.750			
0.1768	11315.26	3.8370	3.8369	-0.8282	6.46	0.47	-0.750			
0.1793	11474.11	3.8340	3.8340	-0.8268	6.47	0.48	-0.750			
0.1817	11630.73	3.8310	3.8311	-0.8252	6.48	0.49	-0.750			
0.1842	11791.87	3.8280	3.8278	-0.8370	6.49	0.50	-0.750			
0.1868	11952.24	3.8250	3.8250	-0.8323	6.50	0.51	-0.750			
0.1892	12110.86	3.8220	3.8220	-0.8377	6.51	0.52	-0.750			
0.1918	12272.12	3.8190	3.8190	-0.8436	6.52	0.53	-0.750			
0.1943	12433.58	3.8160	3.8160	-0.8457	6.53	0.54	-0.750			
0.1969	12599.30	3.8130	3.8130	-0.8508	6.54	0.55	-0.750			
0.1994	12763.17	3.8100	3.8101	-0.8544	6.54	0.55	-0.750			
0.2020	12928.23	3.8070	3.8070	-0.8568	6.55	0.56	-0.750			
0.2046	13094.22	3.8040	3.8040	-0.8605	6.56	0.57	-0.750			
0.2072	13257.62	3.8010	3.8010	-0.8530	6.57	0.58	-0.750			
0.2097	13421.85	3.7980	3.7980	-0.8525	6.58	0.59	-0.750			
0.2123	13584.25	3.7950	3.7950	-0.8578	6.59	0.60	-0.750			
0.2148	13750.00	3.7920	3.7918	-0.8638	6.59	0.60	-0.750			
0.2174	13916.25	3.7890	3.7890	-0.8600	6.60	0.61	-0.750			
0.2200	14082.24	3.7860	3.7860	-0.8604	6.61	0.62	-0.750			
0.2227	14250.57	3.7830	3.7833	-0.8589	6.62	0.63	-0.750			
0.2252	14415.67	3.7800	3.7798	-0.8564	6.63	0.64	-0.750			
0.2278	14577.48	3.7770	3.7770	-0.8555	6.64	0.65	-0.750			
0.2303	14739.68	3.7740	3.7740	-0.8543	6.64	0.65	-0.750			
0.2329	14904.90	3.7710	3.7708	-0.8647	6.65	0.66	-0.750			
0.2355	15070.91	3.7680	3.7684	-0.8638	6.66	0.67	-0.750			
0.2381	15237.12	3.7650	3.7649	-0.8675	6.67	0.68	-0.750			
0.2407	15404.53	3.7620	3.7620	-0.8738	6.68	0.69	-0.750			
0.2433	15570.62	3.7590	3.7590	-0.8732	6.69	0.70	-0.750			
0.2460	15741.60	3.7560	3.7559	-0.8793	6.70	0.71	-0.750			
0.2486	15909.64	3.7530	3.7531	-0.8794	6.71	0.72	-0.750			
0.2512	16078.94	3.7500	3.7500	-0.8785	6.72	0.73	-0.750			
0.2539	16247.70	3.7470	3.7470	-0.8812	6.72	0.73	-0.750			
0.2565	16413.64	3.7440	3.7440	-0.8793	6.73	0.74	-0.750			
0.2592	16586.91	3.7410	3.7410	-0.8824	6.74	0.75	-0.750			
0.2618	16755.99	3.7380	3.7380	-0.8818	6.74	0.75	-0.750			
0.2644	16924.47	3.7350	3.7350	-0.8931	6.75	0.76	-0.750			
0.2671	17095.19	3.7320	3.7321	-0.8989	6.76	0.77	-0.750			
0.2698	17269.02	3.7290	3.7287	-0.9044	6.77	0.78	-0.750			
0.2726	17443.52	3.7260	3.7261	-0.9056	6.78	0.79	-0.750			
0.2753	17617.82	3.7230	3.7231	-0.9136	6.79	0.80	-0.750			
0.2781	17796.15	3.7200	3.7201	-0.9166	6.79	0.80	-0.750			
0.2808	17971.68	3.7170	3.7169	-0.9141	6.80	0.81	-0.750			
0.2835	18146.49	3.7140	3.7140	-0.9091	6.81	0.82	-0.750			
0.2863	18320.22	3.7110	3.7111	-0.9160	6.81	0.82	-0.750			
0.2890	18496.58	3.7080	3.7080	-0.9239	6.82	0.83	-0.750			
0.2918	18674.88	3.7050	3.7050	-0.9308	6.83	0.84	-0.750			
0.2946	18854.73	3.7020	3.7018	-0.9278	6.84	0.85	-0.750			
0.2974	19035.13	3.6990	3.6991	-0.9314	6.85	0.86	-0.750			
0.3002	19210.56	3.6960	3.6961	-0.9487	6.86	0.87	-0.750			
0.3030	19394.06	3.6930	3.6930	-0.9592	6.86	0.87	-0.750			
0.3059	19577.09	3.6900	3.6898	-0.9616	6.87	0.88	-0.750			
0.3088	19765.20	3.6870	3.6870	-0.9676	6.88	0.89	-0.750			
0.3118	19953.79	3.6840	3.6840	-0.9816	6.88	0.89	-0.750			
0.3148	20145.28	3.6810	3.6810	-0.9876	6.89	0.90	-0.750			
0.3177	20334.32	3.6780	3.6779	-0.9843	6.90	0.91	-0.750			
0.3206	20519.66	3.6750	3.6750	-0.9793	6.90	0.91	-0.750			
0.3236	20709.29	3.6720	3.6721	-1.0017	6.91	0.92	-0.750			
0.3266	20901.26	3.6690	3.6689	-1.0153	6.92	0.93	-0.750			
0.3297	21097.83	3.6660	3.6659	-1.0227	6.93	0.94	-0.750			
0.3327	21293.84	3.6630	3.6630	-1.0290	6.93	0.94	-0.750			
0.3359	21496.34	3.6600	3.6603	-1.0407	6.94	0.95	-0.750			
0.3390	21696.69	3.6570	3.6570	-1.0468	6.95	0.96	-0.750			
0.3421	21897.40	3.6540	3.6540	-1.0448	6.96	0.97	-0.750			
0.3452	22095.28	3.6510	3.6509	-1.0480	6.96	0.97	-0.750			
0.3484	22294.66	3.6480	3.6481	-1.0575	6.97	0.98	-0.750			
0.3516	22499.69	3.6450	3.6449	-1.0719	6.98	0.99	-0.750			
0.3548	22704.72	3.6420	3.6420	-1.0907	6.98	0.99	-0.750			
0.3581	22917.90	3.6390	3.6389	-1.1018	6.99	1.00	-0.750			
0.3614	23129.92	3.6360	3.6361	-1.1201	6.99	1.00	-0.750			
0.3648	23349.99	3.6330	3.6329	-1.1345	7.00	1.01	-0.750			
0.3683	23568.62	3.6300	3.6301	-1.1389	7.00	1.01	-0.750			
0.3717	23786.74	3.6270	3.6269	-1.1454	7.01	1.02	-0.750			
0.3751	24007.78	3.6240	3.6240	-1.1632	7.01	1.02	-0.750			
0.3786	24230.24	3.6210	3.6209	-1.1683	7.01	1.02	-0.750			
0.3822	24457.87	3.6180	3.6179	-1.1853	7.02	1.03	-0.750			
0.3857	24685.84	3.6150	3.6152	-1.1917	7.02	1.03	-0.750			
0.3894	24919.63	3.6120	3.6120	-1.2126	7.03	1.04	-0.750			
0.3930	25154.89	3.6090	3.6090	-1.2100	7.04	1.05	-0.750			
0.3966	25383.99	3.6060	3.6059	-1.2138	7.05	1.06	-0.750			
0.4003	25619.44	3.6030	3.6030	-1.2297	7.05	1.06	-0.750			
0.4040	25856.21	3.6000	3.5998	-1.2397	7.05	1.06	-0.750	0.395	0.925	
0.4077	26093.93	3.5970	3.5969	-1.2473	7.06	1.07	-0.750			
0.4115	26333.77	3.5940	3.5940	-1.2547	7.06	1.07	-0.750			
0.4152	26575.98	3.5910	3.5910	-1.2781	7.06	1.07	-0.750			
0.4191	26824.84	3.5880	3.5879	-1.2953	7.07	1.08	-0.750			
0.4230	27072.15	3.5850	3.5852	-1.3013	7.07	1.08	-0.750			
0.4270	27326.80	3.5820	3.5821	-1.3403	7.08	1.09	-0.750			
0.4310	27584.37	3.5790	3.5790	-1.3587	7.08	1.09	-0.750			
0.4352	27850.42	3.5760	3.5760	-1.3782	7.09	1.10	-0.750			
0.4394	28119.15	3.5730	3.5730	-1.3851	7.10	1.11	-0.750			
0.4435	28384.99	3.5700	3.5700	-1.3850	7.10	1.11	-0.750			
0.4477	28653.58	3.5670	3.5672	-1.4033	7.11	1.12	-0.750			
0.4519	28922.05	3.5640	3.5639	-1.4092	7.11	1.12	-0.750			
0.4561	29189.50	3.5610	3.5609	-1.4078	7.12	1.13	-0.750			
0.4604	29465.45	3.5580	3.5581	-1.4152	7.12	1.13	-0.750			
0.4647	29739.21	3.5550	3.5551	-1.4434	7.12	1.13	-0.750			
0.4689	30012.80	3.5520	3.5520	-1.4678	7.13	1.14	-0.750			
0.4734	30298.71	3.5490	3.5490	-1.4712	7.13	1.14	-0.750			
0.4779	30584.51	3.5460	3.5460	-1.4754	7.14	1.15	-0.750			
0.4823	30869.63	3.5430	3.5431	-1.4780	7.15	1.16	-0.750			
0.4868	31153.45	3.5400	3.5401	-1.4917	7.15	1.16	-0.750			
0.4912	31438.37	3.5370	3.5370	-1.5070	7.15	1.16	-0.750			
0.4957	31722.54	3.5340	3.5338	-1.5022	7.16	1.17	-0.750			
0.5002	32011.53	3.5310	3.5308	-1.5064	7.16	1.17	-0.750			
0.5047	32302.53	3.5280	3.5280	-1.5455	7.17	1.18	-0.750			
0.5095	32606.04	3.5250	3.5251	-1.5513	7.17	1.18	-0.750			
0.5141	32902.84	3.5220	3.5220	-1.5383	7.17	1.18	-0.750			
0.5187	33196.75	3.5190	3.5190	-1.5330	7.18	1.19	-0.750			
0.5234	33496.08	3.5160	3.5164	-1.5371	7.18	1.19	-0.750			
0.5280	33790.50	3.5130	3.5128	-1.5424	7.19	1.20	-0.750			
0.5326	34083.55	3.5100	3.5098	-1.5440	7.20	1.21	-0.750			
0.5371	34376.03	3.5070	3.5070	-1.5392	7.20	1.21	-0.750			
0.5418	34677.72	3.5040	3.5039	-1.5514	7.21	1.22	-0.750			
0.5465	34975.05	3.5010	3.5009	-1.5476	7.21	1.22	-0.750			
0.5511	35269.72	3.4980	3.4980	-1.5510	7.22	1.23	-0.750			
0.5558	35571.19	3.4950	3.4950	-1.5728	7.22	1.23	-0.750			
0.5605	35872.72	3.4920	3.4920	-1.5680	7.23	1.24	-0.750			
0.5653	36178.80	3.4890	3.4891	-1.5552	7.24	1.25	-0.750			
0.5700	36480.97	3.4860	3.4860	-1.5562	7.25	1.26	-0.750			
0.5747	36779.40	3.4830	3.4831	-1.5275	7.25	1.26	-0.750			
0.5792	37070.74	3.4800	3.4799	-1.5004	7.26	1.27	-0.750			
0.5836	37351.59	3.4770	3.4770	-1.4872	7.27	1.28	-0.750			
0.5881	37636.91	3.4740	3.4738	-1.4770	7.27	1.28	-0.750			
0.5925	37917.99	3.4710	3.4709	-1.4645	7.28	1.29	-0.750			
0.5969	38203.38	3.4680	3.4681	-1.4737	7.29	1.30	-0.750			
0.6013	38485.16	3.4650	3.4649	-1.4549	7.30	1.31	-0.750			
0.6057	38764.67	3.4620	3.4619	-1.4581	7.31	1.32	-0.750			
0.6100	39041.37	3.4590	3.4592	-1.4507	7.32	1.33	-0.750			
0.6144	39321.93	3.4560	3.4559	-1.4323	7.33	1.34	-0.750			
0.6188	39601.99	3.4530	3.4528	-1.4150	7.33	1.34	-0.750			
0.6230	39871.16	3.4500	3.4502	-1.3874	7.34	1.35	-0.750			
0.6272	40138.47	3.4470	3.4470	-1.3616	7.35	1.36	-0.750			
0.6311	40392.28	3.4440	3.4439	-1.3381	7.37	1.38	-0.750			
0.6350	40639.80	3.4410	3.4411	-1.3048	7.38	1.39	-0.750			
0.6389	40892.57	3.4380	3.4379	-1.2951	7.39	1.40	-0.750			
0.6428	41141.84	3.4350	3.4350	-1.2723	7.40	1.41	-0.750			
0.6467	41386.58	3.4320	3.4321	-1.2500	7.42	1.43	-0.750			
0.6504	41622.59	3.4290	3.4290	-1.2319	7.43	1.44	-0.750			
0.6541	41859.28	3.4260	3.4259	-1.2135	7.44	1.45	-0.750			
0.6576	42088.35	3.4230	3.4228	-1.1833	7.45	1.46	-0.750			
0.6611	42312.86	3.4200	3.4202	-1.1587	7.46	1.47	-0.750			
0.6647	42537.82	3.4170	3.4172	-1.1327	7.47	1.48	-0.750			
0.6680	42750.30	3.4140	3.4139	-1.1038	7.48	1.49	-0.750			
0.6712	42955.57	3.4110	3.4110	-1.0787	7.49	1.50	-0.750			
0.6744	43160.37	3.4080	3.4079	-1.0553	7.51	1.52	-0.750			
0.6775	43361.59	3.4050	3.4049	-1.0275	7.52	1.53	-0.750			
0.6806	43560.04	3.4020	3.4021	-1.0068	7.53	1.54	-0.750			
0.6836	43751.18	3.3990	3.3991	-0.9761	7.54	1.55	-0.750			
0.6865	43938.61	3.3960	3.3959	-0.9431	7.56	1.57	-0.750			
0.6892	44111.69	3.3930	3.3930	-0.9054	7.57	1.58	-0.750			
0.6919	44281.64	3.3900	3.3900	-0.8796	7.58	1.59	-0.750			
0.6945	44447.43	3.3870	3.3871	-0.8568	7.59	1.60	-0.750			
0.6970	44609.30	3.3840	3.3838	-0.8347	7.61	1.62	-0.750			
0.6995	44767.92	3.3810	3.3810	-0.8101	7.62	1.63	-0.750			
0.7019	44921.82	3.3780	3.3780	-0.7916	7.63	1.64	-0.750			
0.7043	45072.40	3.3750	3.3750	-0.7721	7.64	1.65	-0.750			
0.7065	45216.85	3.3720	3.3720	-0.7479	7.65	1.66	-0.750			
0.7087	45358.21	3.3690	3.3689	-0.7256	7.66	1.67	-0.750			
0.7109	45495.40	3.3660	3.3660	-0.7071	7.67	1.68	-0.750			
0.7130	45629.72	3.3630	3.3630	-0.6853	7.68	1.69	-0.750			
0.7150	45759.30	3.3600	3.3600	-0.6662	7.69	1.70	-0.750			
0.7170	45885.09	3.3570	3.3569	-0.6491	7.70	1.71	-0.750			
0.7189	46007.68	3.3540	3.3540	-0.6274	7.71	1.72	-0.750			
0.7207	46126.41	3.3510	3.3509	-0.6061	7.72	1.73	-0.750			
0.7225	46241.30	3.3480	3.3482	-0.5883	7.73	1.74	-0.750			
0.7242	46351.79	3.3450	3.3449	-0.5697	7.74	1.75	-0.750			
0.7259	46458.90	3.3420	3.3419	-0.5544	7.75	1.76	-0.750			
0.7275	46561.95	3.3390	3.3390	-0.5396	7.76	1.77	-0.750			
0.7291	46662.68	3.3360	3.3361	-0.5254	7.77	1.78	-0.750			
0.7307	46765.24	3.3330	3.3330	-0.5176	7.78	1.79	-0.750			
0.7322	46863.31	3.3300	3.3299	-0.5048	7.79	1.80	-0.750			
0.7337	46959.55	3.3270	3.3270	-0.4874	7.80	1.81	-0.750			
0.7352	47051.83	3.3240	3.3239	-0.4732	7.81	1.82	-0.750			
0.7366	47140.60	3.3210	3.3210	-0.4612	7.82	1.83	-0.750			
0.7379	47227.66	3.3180	3.3180	-0.4501	7.83	1.84	-0.750			
0.7393	47312.12	3.3150	3.3149	-0.4382	7.84	1.85	-0.750			
0.7405	47394.72	3.3120	3.3121	-0.4281	7.85	1.86	-0.750			
0.7418	47476.86	3.3090	3.3090	-0.4162	7.86	1.87	-0.750			
0.7431	47556.53	3.3060	3.3059	-0.4052	7.87	1.88	-0.750			
0.7442	47631.82	3.3030	3.3031	-0.3969	7.87	1.88	-0.750			
0.7454	47706.64	3.3000	3.2999	-0.3889	7.88	1.89	-0.750			
0.7466	47780.43	3.2970	3.2969	-0.3823	7.89	1.90	-0.750			
0.7477	47853.65	3.2940	3.2940	-0.3767	7.90	1.91	-0.750			
0.7488	47925.65	3.2910	3.2910	-0.3695	7.91	1.92	-0.750			
0.7500	47996.90	3.2880	3.2880	-0.3613	7.92	1.93	-0.750			
0.7510	48064.99	3.2850	3.2850	-0.3533	7.93	1.94	-0.750			
0.7520	48130.84	3.2820	3.2820	-0.3458	7.93	1.94	-0.750			
0.7531	48196.96	3.2790	3.2790	-0.3386	7.94	1.95	-0.750			
0.7541	48261.66	3.2760	3.2760	-0.3288	7.95	1.96	-0.750			
0.7551	48324.04	3.2730	3.2730	-0.3229	7.96	1.97	-0.750			
0.7560	48385.47	3.2700	3.2701	-0.3154	7.97	1.98	-0.750			
0.7570	48444.94	3.2670	3.2669	-0.3090	7.97	1.98	-0.750			
0.7579	48502.92	3.2640	3.2640	-0.3015	7.98	1.99	-0.750			
0.7587	48559.53	3.2610	3.2611	-0.2950	7.99	2.00	-0.750			
0.7596	48616.40	3.2580	3.2580	-0.2911	7.99	2.00	-0.750			
0.7605	48672.44	3.2550	3.2552	-0.2867	8.00	2.01	-0.750			
0.7613	48726.21	3.2520	3.2520	-0.2791	8.01	2.02	-0.750			
0.7622	48779.38	3.2490	3.2490	-0.2742	8.02	2.03	-0.750			
0.7630	48831.46	3.2460	3.2459	-0.2681	8.03	2.04	-0.750			
0.7638	48882.39	3.2430	3.2430	-0.2624	8.04	2.05	-0.750			
0.7646	48931.93	3.2400	3.2400	-0.2581	8.05	2.06	-0.750			
0.7653	48980.86	3.2370	3.2371	-0.2539	8.05	2.06	-0.750			
0.7661	49029.01	3.2340	3.2339	-0.2500	8.06	2.07	-0.750			
0.7668	49076.39	3.2310	3.2310	-0.2465	8.07	2.08	-0.750			
0.7676	49123.57	3.2280	3.2281	-0.2420	8.08	2.09	-0.750			
0.7683	49169.70	3.2250	3.2250	-0.2383	8.09	2.10	-0.750			
0.7690	49215.31	3.2220	3.2220	-0.2352	8.09	2.10	-0.750			
0.7697	49260.12	3.2190	3.2191	-0.2311	8.10	2.11	-0.750			
0.7704	49303.52	3.2160	3.2159	-0.2277	8.11	2.12	-0.750			
0.7710	49347.13	3.2130	3.2130	-0.2243	8.12	2.13	-0.750			
0.7717	49389.75	3.2100	3.2100	-0.2211	8.12	2.13	-0.750			
0.7724	49431.72	3.2070	3.2071	-0.2192	8.13	2.14	-0.750			
0.7730	49473.78	3.2040	3.2041	-0.2171	8.13	2.14	-0.750			
0.7737	49515.17	3.2010	3.2007	-0.2133	8.14	2.15	-0.750			
0.7743	49555.82	3.1980	3.1979	-0.2105	8.15	2.16	-0.750			
0.7749	49596.15	3.1950	3.1950	-0.2074	8.15	2.16	-0.750			
0.7756	49635.66	3.1920	3.1922	-0.2041	8.16	2.17	-0.750			
0.7762	49675.06	3.1890	3.1889	-0.2001	8.17	2.18	-0.750			
0.7768	49712.66	3.1860	3.1861	-0.1971	8.17	2.18	-0.750			
0.7773	49749.62	3.1830	3.1830	-0.1933	8.18	2.19	-0.750			
0.7779	49786.55	3.1800	3.1800	-0.1913	8.19	2.20	-0.750			
0.7785	49823.30	3.1770	3.1769	-0.1886	8.19	2.20	-0.750			
0.7790	49858.95	3.1740	3.1740	-0.1859	8.20	2.21	-0.750			
0.7796	49894.58	3.1710	3.1710	-0.1841	8.21	2.22	-0.750			
0.7802	49929.72	3.1680	3.1681	-0.1819	8.21	2.22	-0.750			
0.7807	49964.56	3.1650	3.1649	-0.1802	8.22	2.23	-0.750			
0.7812	49998.64	3.1620	3.1620	-0.1772	8.22	2.23	-0.750			
0.7818	50032.53	3.1590	3.1590	-0.1754	8.23	2.24	-0.750			
0.7823	50066.02	3.1560	3.1560	-0.1736	8.24	2.25	-0.750			
0.7828	50099.37	3.1530	3.1531	-0.1719	8.24	2.25	-0.750			
0.7833	50132.04	3.1500	3.1499	-0.1697	8.25	2.26	-0.750			
0.7838	50164.43	3.1470	3.1470	-0.1677	8.25	2.26	-0.750			
0.7843	50196.43	3.1440	3.1441	-0.1657	8.26	2.27	-0.750			
0.7848	50228.04	3.1410	3.1410	-0.1635	8.26	2.27	-0.750			
0.7853	50259.18	3.1380	3.1380	-0.1623	8.27	2.28	-0.750			
0.7858	50290.18	3.1350	3.1349	-0.1606	8.28	2.29	-0.750			
0.7863	50320.69	3.1320	3.1320	-0.1591	8.28	2.29	-0.750			
0.7867	50351.21	3.1290	3.1289	-0.1571	8.29	2.30	-0.750			
0.7872	50381.20	3.1260	3.1260	-0.1556	8.30	2.31	-0.750			
0.7877	50410.92	3.1230	3.1231	-0.1540	8.30	2.31	-0.750			
0.7881	50440.37	3.1200	3.1200	-0.1527	8.31	2.32	-0.750			
0.7886	50469.54	3.1170	3.1169	-0.1513	8.32	2.33	-0.750			
0.7890	50498.24	3.1140	3.1139	-0.1493	8.32	2.33	-0.750			
0.7895	50526.80	3.1110	3.1111	-0.1482	8.33	2.34	-0.750			
0.7899	50555.35	3.1080	3.1080	-0.1461	8.33	2.34	-0.750			
0.7904	50583.30	3.1050	3.1050	-0.1450	8.34	2.35	-0.750			
0.7908	50610.61	3.1020	3.1021	-0.1435	8.35	2.36	-0.750			
0.7912	50638.06	3.0990	3.0990	-0.1425	8.35	2.36	-0.750			
0.7916	50665.20	3.0960	3.0959	-0.1409	8.36	2.37	-0.750			
0.7921	50692.29	3.0930	3.0931	-0.1392	8.37	2.38	-0.750			
0.7925	50718.98	3.0900	3.0900	-0.1381	8.37	2.38	-0.750			
0.7929	50745.33	3.0870	3.0871	-0.1365	8.38	2.39	-0.750			
0.7933	50771.65	3.0840	3.0840	-0.1352	8.38	2.39	-0.750			
0.7937	50796.98	3.0810	3.0810	-0.1337	8.39	2.40	-0.750			
0.7941	50822.17	3.0780	3.0781	-0.1325	8.39	2.40	-0.750			
0.7945	50847.62	3.0750	3.0750	-0.1326	8.40	2.41	-0.750			
0.7949	50873.27	3.0720	3.0719	-0.1317	8.41	2.42	-0.750			
0.7953	50898.75	3.0690	3.0690	-0.1309	8.41	2.42	-0.750			
0.7957	50923.87	3.0660	3.0660	-0.1299	8.42	2.43	-0.750			
0.7961	50948.62	3.0630	3.0632	-0.1286	8.42	2.43	-0.750			
0.7965	50973.38	3.0600	3.0599	-0.1275	8.43	2.44	-0.750			
0.7968	50997.53	3.0570	3.0570	-0.1258	8.43	2.44	-0.750			
0.7972	51021.40	3.0540	3.0540	-0.1243	8.44	2.45	-0.750			
0.7976	51045.32	3.0510	3.0509	-0.1229	8.45	2.46	-0.750			
0.7980	51068.99	3.0480	3.0481	-0.1217	8.45	2.46	-0.750			
0.7983	51091.96	3.0450	3.0450	-0.1218	8.46	2.47	-0.750			
0.7987	51115.19	3.0420	3.0420	-0.1207	8.46	2.47	-0.750			
0.7990	51138.31	3.0390	3.0388	-0.1201	8.47	2.48	-0.750			
0.7994	51161.35	3.0360	3.0360	-0.1191	8.47	2.48	-0.750			
0.7998	51184.14	3.0330	3.0331	-0.1184	8.48	2.49	-0.750			
0.8001	51206.87	3.0300	3.0301	-0.1181	8.48	2.49	-0.750			
0.8005	51229.66	3.0270	3.0270	-0.1176	8.49	2.50	-0.750			
0.8008	51252.12	3.0240	3.0239	-0.1166	8.49	2.50	-0.750			
0.8012	51274.04	3.0210	3.0210	-0.1151	8.50	2.51	-0.750			
0.8015	51296.13	3.0180	3.0180	-0.1145	8.50	2.51	-0.750			
0.8018	51318.20	3.0150	3.0150	-0.1142	8.51	2.52	-0.750			
0.8022	51340.06	3.0120	3.0121	-0.1135	8.51	2.52	-0.750			
0.8025	51361.92	3.0090	3.0090	-0.1126	8.52	2.53	-0.750			
0.8029	51383.43	3.0060	3.0059	-0.1115	8.52	2.53	-0.750			
0.8032	51404.77	3.0030	3.0030	-0.1131	8.53	2.54	-0.750			
