Ah_balance (normalized)	Ah_balance (mAh)	Voltage - fit (V)	Voltage -  interpolate (V)	dQ/dV (1/V)	Temperature (°C)	Temperature - diff (°C)	Current (C)	R_DC 0ms (mOhm)	R_DC 50ms (mOhm)	R_DC 50 ms PEC (mOhm)
0.0000	0.00	4.0800	4.1288	0.0000	5.99	-0.01	-0.750			
0.0000	0.00	4.0830	4.1288	0.0000	5.99	-0.01	-0.750			
0.0000	0.00	4.0860	4.1288	0.0000	5.99	-0.01	-0.750			
0.0000	0.00	4.0890	4.1288	0.0000	5.99	-0.01	-0.750			
0.0002	13.04	4.0770	4.0777	-0.0590	5.99	-0.01	-0.750			
0.0004	27.20	4.0740	4.0739	-0.0819	5.99	-0.01	-0.750			
0.0007	45.16	4.0710	4.0709	-0.1051	5.99	-0.01	-0.750			
0.0011	67.32	4.0680	4.0679	-0.1300	5.99	-0.01	-0.750			
0.0015	94.55	4.0650	4.0650	-0.1540	5.99	-0.01	-0.750			
0.0020	126.49	4.0620	4.0618	-0.1797	5.99	-0.01	-0.750			
0.0025	163.04	4.0590	4.0590	-0.2037	6.00	-0.00	-0.750			
0.0032	204.88	4.0560	4.0560	-0.2266	6.00	-0.00	-0.750			
0.0039	250.92	4.0530	4.0530	-0.2495	6.00	-0.00	-0.750			
0.0047	301.55	4.0500	4.0501	-0.2716	6.00	-0.00	-0.750			
0.0056	355.46	4.0470	4.0470	-0.2959	6.00	-0.00	-0.750			
0.0065	414.58	4.0440	4.0439	-0.3158	6.00	-0.00	-0.750			
0.0074	476.71	4.0410	4.0410	-0.3375	6.00	-0.00	-0.750			
0.0085	544.04	4.0380	4.0382	-0.3610	6.00	-0.00	-0.750			
0.0096	616.41	4.0350	4.0349	-0.3832	6.00	0.00	-0.750			
0.0108	691.95	4.0320	4.0319	-0.4043	6.00	0.00	-0.750			
0.0121	771.82	4.0290	4.0291	-0.4237	6.00	0.00	-0.750			
0.0134	854.90	4.0260	4.0259	-0.4454	6.00	0.00	-0.750			
0.0147	942.25	4.0230	4.0230	-0.4694	6.00	0.00	-0.750			
0.0162	1033.94	4.0200	4.0200	-0.4875	6.01	0.01	-0.750			
0.0177	1129.88	4.0170	4.0170	-0.5085	6.01	0.01	-0.750			
0.0192	1230.16	4.0140	4.0141	-0.5325	6.01	0.01	-0.750			
0.0208	1334.28	4.0110	4.0111	-0.5529	6.01	0.01	-0.750			
0.0226	1443.87	4.0080	4.0079	-0.5701	6.01	0.01	-0.750			
0.0243	1556.28	4.0050	4.0050	-0.5799	6.02	0.02	-0.750			
0.0261	1668.17	4.0020	4.0021	-0.5949	6.03	0.03	-0.750			
0.0279	1784.27	3.9990	3.9992	-0.6081	6.03	0.03	-0.750			
0.0297	1902.82	3.9960	3.9958	-0.6178	6.04	0.04	-0.750			
0.0316	2021.42	3.9930	3.9929	-0.6271	6.04	0.04	-0.750			
0.0335	2142.55	3.9900	3.9903	-0.6372	6.05	0.05	-0.750			
0.0354	2266.94	3.9870	3.9871	-0.6470	6.06	0.06	-0.750			
0.0374	2394.07	3.9840	3.9838	-0.6569	6.07	0.07	-0.750			
0.0394	2518.99	3.9810	3.9810	-0.6612	6.07	0.07	-0.750			
0.0414	2647.28	3.9780	3.9781	-0.6668	6.08	0.08	-0.750			
0.0434	2776.14	3.9750	3.9749	-0.6704	6.09	0.09	-0.750			
0.0454	2905.23	3.9720	3.9720	-0.6758	6.10	0.10	-0.750			
0.0474	3034.83	3.9690	3.9690	-0.6831	6.11	0.11	-0.750			
0.0495	3166.17	3.9660	3.9659	-0.6902	6.11	0.11	-0.750			
0.0516	3299.25	3.9630	3.9630	-0.6960	6.12	0.12	-0.750			
0.0536	3432.77	3.9600	3.9600	-0.7017	6.13	0.13	-0.750			
0.0558	3570.79	3.9570	3.9571	-0.7120	6.14	0.14	-0.750			
0.0579	3708.61	3.9540	3.9540	-0.7125	6.15	0.15	-0.750			
0.0601	3846.50	3.9510	3.9510	-0.7079	6.16	0.16	-0.750			
0.0622	3981.57	3.9480	3.9480	-0.7073	6.17	0.17	-0.750			
0.0643	4115.38	3.9450	3.9451	-0.7098	6.18	0.18	-0.750			
0.0664	4250.57	3.9420	3.9419	-0.7166	6.19	0.19	-0.750			
0.0685	4386.53	3.9390	3.9389	-0.7258	6.21	0.21	-0.750			
0.0708	4528.42	3.9360	3.9360	-0.7331	6.22	0.22	-0.750			
0.0730	4673.85	3.9330	3.9330	-0.7423	6.23	0.23	-0.750			
0.0753	4818.35	3.9300	3.9301	-0.7426	6.24	0.24	-0.750			
0.0775	4960.63	3.9270	3.9270	-0.7373	6.25	0.25	-0.750			
0.0797	5100.85	3.9240	3.9241	-0.7341	6.25	0.25	-0.750			
0.0819	5239.46	3.9210	3.9209	-0.7316	6.26	0.26	-0.750			
0.0841	5379.22	3.9180	3.9180	-0.7334	6.27	0.27	-0.750			
0.0863	5521.14	3.9150	3.9150	-0.7398	6.28	0.28	-0.750			
0.0885	5662.93	3.9120	3.9120	-0.7417	6.29	0.29	-0.750			
0.0908	5808.46	3.9090	3.9089	-0.7423	6.30	0.30	-0.750			
0.0930	5950.58	3.9060	3.9060	-0.7462	6.32	0.32	-0.750			
0.0952	6094.36	3.9030	3.9029	-0.7447	6.33	0.33	-0.750			
0.0974	6236.69	3.9000	3.8999	-0.7442	6.34	0.34	-0.750			
0.0997	6379.69	3.8970	3.8970	-0.7456	6.35	0.35	-0.750			
0.1019	6521.96	3.8940	3.8940	-0.7468	6.36	0.36	-0.750			
0.1041	6665.23	3.8910	3.8909	-0.7471	6.37	0.37	-0.750			
0.1064	6811.17	3.8880	3.8880	-0.7551	6.38	0.38	-0.750			
0.1087	6956.20	3.8850	3.8851	-0.7473	6.39	0.39	-0.750			
0.1110	7101.44	3.8820	3.8820	-0.7502	6.40	0.40	-0.750			
0.1132	7243.33	3.8790	3.8790	-0.7540	6.41	0.41	-0.750			
0.1154	7388.39	3.8760	3.8760	-0.7510	6.42	0.42	-0.750			
0.1177	7532.78	3.8730	3.8728	-0.7573	6.43	0.43	-0.750			
0.1200	7676.88	3.8700	3.8700	-0.7628	6.44	0.44	-0.750			
0.1223	7824.50	3.8670	3.8670	-0.7652	6.45	0.45	-0.750			
0.1246	7972.59	3.8640	3.8639	-0.7740	6.46	0.46	-0.750			
0.1269	8121.32	3.8610	3.8610	-0.7715	6.47	0.47	-0.750			
0.1292	8268.77	3.8580	3.8580	-0.7675	6.49	0.49	-0.750			
0.1316	8420.05	3.8550	3.8550	-0.7700	6.50	0.50	-0.750			
0.1339	8566.56	3.8520	3.8522	-0.7653	6.51	0.51	-0.750			
0.1361	8712.93	3.8490	3.8489	-0.7644	6.52	0.52	-0.750			
0.1384	8859.58	3.8460	3.8460	-0.7698	6.54	0.54	-0.750			
0.1407	9006.56	3.8430	3.8430	-0.7673	6.55	0.55	-0.750			
0.1431	9155.66	3.8400	3.8399	-0.7701	6.56	0.56	-0.750			
0.1454	9303.96	3.8370	3.8371	-0.7661	6.58	0.58	-0.750			
0.1477	9450.64	3.8340	3.8339	-0.7666	6.59	0.59	-0.750			
0.1499	9596.75	3.8310	3.8309	-0.7631	6.60	0.60	-0.750			
0.1522	9741.48	3.8280	3.8280	-0.7636	6.61	0.61	-0.750			
0.1545	9886.97	3.8250	3.8250	-0.7687	6.62	0.62	-0.750			
0.1568	10037.94	3.8220	3.8220	-0.7724	6.63	0.63	-0.750			
0.1592	10186.60	3.8190	3.8190	-0.7708	6.64	0.64	-0.750			
0.1615	10335.43	3.8160	3.8161	-0.7733	6.65	0.65	-0.750			
0.1638	10482.91	3.8130	3.8130	-0.7765	6.67	0.67	-0.750			
0.1661	10630.82	3.8100	3.8099	-0.7781	6.68	0.68	-0.750			
0.1685	10781.06	3.8070	3.8070	-0.7779	6.69	0.69	-0.750			
0.1708	10931.21	3.8040	3.8039	-0.7761	6.70	0.70	-0.750			
0.1732	11083.25	3.8010	3.8009	-0.7783	6.71	0.71	-0.750			
0.1755	11231.26	3.7980	3.7982	-0.7770	6.72	0.72	-0.750			
0.1778	11378.23	3.7950	3.7950	-0.7723	6.73	0.73	-0.750			
0.1801	11526.84	3.7920	3.7919	-0.7722	6.74	0.74	-0.750			
0.1824	11675.32	3.7890	3.7889	-0.7700	6.75	0.75	-0.750			
0.1847	11822.63	3.7860	3.7859	-0.7739	6.77	0.77	-0.750			
0.1870	11969.87	3.7830	3.7830	-0.7776	6.78	0.78	-0.750			
0.1894	12118.73	3.7800	3.7801	-0.7831	6.79	0.79	-0.750			
0.1917	12269.46	3.7770	3.7769	-0.7851	6.81	0.81	-0.750			
0.1941	12422.58	3.7740	3.7740	-0.7910	6.82	0.82	-0.750			
0.1965	12576.29	3.7710	3.7711	-0.7893	6.83	0.83	-0.750			
0.1989	12728.56	3.7680	3.7680	-0.7813	6.84	0.84	-0.750			
0.2012	12877.11	3.7650	3.7650	-0.7801	6.85	0.85	-0.750			
0.2035	13026.37	3.7620	3.7619	-0.7765	6.86	0.86	-0.750			
0.2058	13171.18	3.7590	3.7590	-0.7822	6.87	0.87	-0.750			
0.2082	13322.03	3.7560	3.7560	-0.7918	6.88	0.88	-0.750			
0.2105	13475.09	3.7530	3.7530	-0.8020	6.89	0.89	-0.750			
0.2130	13631.91	3.7500	3.7499	-0.8126	6.90	0.90	-0.750			
0.2155	13791.60	3.7470	3.7471	-0.8171	6.91	0.91	-0.750			
0.2179	13947.94	3.7440	3.7441	-0.8144	6.93	0.93	-0.750			
0.2204	14105.94	3.7410	3.7410	-0.8179	6.94	0.94	-0.750			
0.2228	14261.13	3.7380	3.7380	-0.8140	6.95	0.95	-0.750			
0.2253	14416.18	3.7350	3.7349	-0.8159	6.96	0.96	-0.750			
0.2277	14572.67	3.7320	3.7320	-0.8152	6.97	0.97	-0.750			
0.2301	14728.74	3.7290	3.7290	-0.8228	6.98	0.98	-0.750			
0.2326	14888.94	3.7260	3.7261	-0.8336	6.99	0.99	-0.750			
0.2351	15048.77	3.7230	3.7228	-0.8363	7.00	1.00	-0.750			
0.2376	15209.25	3.7200	3.7200	-0.8433	7.01	1.01	-0.750			
0.2402	15374.11	3.7170	3.7170	-0.8454	7.02	1.02	-0.750			
0.2428	15536.62	3.7140	3.7139	-0.8436	7.03	1.03	-0.750			
0.2453	15701.74	3.7110	3.7110	-0.8460	7.05	1.05	-0.750			
0.2478	15861.04	3.7080	3.7079	-0.8475	7.06	1.06	-0.750			
0.2503	16022.22	3.7050	3.7050	-0.8558	7.07	1.07	-0.750			
0.2529	16186.84	3.7020	3.7019	-0.8672	7.08	1.08	-0.750			
0.2555	16354.21	3.6990	3.6990	-0.8681	7.09	1.09	-0.750			
0.2582	16525.94	3.6960	3.6961	-0.8832	7.10	1.10	-0.750			
0.2608	16694.24	3.6930	3.6930	-0.8900	7.11	1.11	-0.750			
0.2635	16866.43	3.6900	3.6899	-0.8855	7.12	1.12	-0.750			
0.2662	17034.34	3.6870	3.6870	-0.8821	7.13	1.13	-0.750			
0.2688	17201.95	3.6840	3.6840	-0.8895	7.14	1.14	-0.750			
0.2715	17374.27	3.6810	3.6813	-0.8986	7.15	1.15	-0.750			
0.2742	17547.64	3.6780	3.6778	-0.9142	7.16	1.16	-0.750			
0.2769	17722.25	3.6750	3.6751	-0.9233	7.17	1.17	-0.750			
0.2797	17903.03	3.6720	3.6719	-0.9303	7.18	1.18	-0.750			
0.2826	18085.35	3.6690	3.6690	-0.9408	7.19	1.19	-0.750			
0.2854	18265.94	3.6660	3.6660	-0.9475	7.20	1.20	-0.750			
0.2882	18446.64	3.6630	3.6630	-0.9456	7.21	1.21	-0.750			
0.2911	18629.77	3.6600	3.6600	-0.9478	7.21	1.21	-0.750			
0.2939	18809.53	3.6570	3.6570	-0.9495	7.22	1.22	-0.750			
0.2968	18992.85	3.6540	3.6541	-0.9576	7.23	1.23	-0.750			
0.2997	19179.04	3.6510	3.6510	-0.9633	7.24	1.24	-0.750			
0.3025	19362.74	3.6480	3.6480	-0.9677	7.26	1.26	-0.750			
0.3054	19547.60	3.6450	3.6449	-0.9751	7.27	1.27	-0.750			
0.3084	19737.87	3.6420	3.6421	-0.9894	7.28	1.28	-0.750			
0.3114	19928.25	3.6390	3.6389	-0.9968	7.29	1.29	-0.750			
0.3144	20121.73	3.6360	3.6361	-0.9983	7.29	1.29	-0.750			
0.3174	20314.81	3.6330	3.6330	-0.9994	7.30	1.30	-0.750			
0.3204	20506.40	3.6300	3.6300	-1.0015	7.31	1.31	-0.750			
0.3234	20696.33	3.6270	3.6272	-1.0155	7.32	1.32	-0.750			
0.3264	20890.30	3.6240	3.6239	-1.0334	7.33	1.33	-0.750			
0.3296	21091.41	3.6210	3.6209	-1.0389	7.34	1.34	-0.750			
0.3327	21293.14	3.6180	3.6180	-1.0500	7.35	1.35	-0.750			
0.3360	21501.71	3.6150	3.6151	-1.0666	7.36	1.36	-0.750			
0.3392	21706.40	3.6120	3.6119	-1.0681	7.36	1.36	-0.750			
0.3423	21909.34	3.6090	3.6089	-1.0703	7.37	1.37	-0.750			
0.3455	22112.66	3.6060	3.6062	-1.0724	7.38	1.38	-0.750			
0.3487	22319.88	3.6030	3.6029	-1.0808	7.39	1.39	-0.750			
0.3521	22532.53	3.6000	3.5999	-1.0840	7.39	1.39	-0.750			
0.3553	22739.19	3.5970	3.5971	-1.0833	7.40	1.40	-0.750			
0.3585	22944.69	3.5940	3.5942	-1.0899	7.41	1.41	-0.750			
0.3618	23155.11	3.5910	3.5909	-1.0962	7.42	1.42	-0.750			
0.3651	23365.36	3.5880	3.5879	-1.1128	7.43	1.43	-0.750			
0.3684	23579.48	3.5850	3.5849	-1.1214	7.43	1.43	-0.750			
0.3719	23798.43	3.5820	3.5821	-1.1412	7.44	1.44	-0.750			
0.3753	24021.16	3.5790	3.5794	-1.1452	7.45	1.45	-0.750	0.361	0.807	
0.3788	24242.16	3.5760	3.5760	-1.1436	7.46	1.46	-0.750			
0.3822	24459.42	3.5730	3.5730	-1.1561	7.47	1.47	-0.750			
0.3856	24680.12	3.5700	3.5700	-1.1641	7.48	1.48	-0.750			
0.3891	24903.77	3.5670	3.5669	-1.1726	7.48	1.48	-0.750			
0.3927	25130.89	3.5640	3.5641	-1.1808	7.49	1.49	-0.750			
0.3962	25359.63	3.5610	3.5611	-1.1920	7.50	1.50	-0.750			
0.3999	25591.35	3.5580	3.5579	-1.2001	7.51	1.51	-0.750			
0.4035	25823.46	3.5550	3.5551	-1.2009	7.52	1.52	-0.750			
0.4070	26051.09	3.5520	3.5519	-1.2058	7.53	1.53	-0.750			
0.4107	26282.53	3.5490	3.5489	-1.2247	7.54	1.54	-0.750			
0.4144	26520.76	3.5460	3.5459	-1.2331	7.54	1.54	-0.750			
0.4181	26758.99	3.5430	3.5428	-1.2362	7.55	1.55	-0.750			
0.4218	26996.29	3.5400	3.5401	-1.2330	7.56	1.56	-0.750			
0.4256	27237.14	3.5370	3.5372	-1.2517	7.57	1.57	-0.750			
0.4293	27476.59	3.5340	3.5339	-1.2607	7.57	1.57	-0.750			
0.4330	27714.04	3.5310	3.5310	-1.2631	7.58	1.58	-0.750			
0.4369	27960.27	3.5280	3.5279	-1.2620	7.59	1.59	-0.750			
0.4407	28207.20	3.5250	3.5251	-1.2616	7.60	1.60	-0.750			
0.4446	28451.97	3.5220	3.5221	-1.2678	7.62	1.62	-0.750			
0.4483	28690.90	3.5190	3.5190	-1.2714	7.63	1.63	-0.750			
0.4520	28930.64	3.5160	3.5159	-1.2635	7.63	1.63	-0.750			
0.4558	29173.53	3.5130	3.5129	-1.2758	7.64	1.64	-0.750			
0.4597	29421.57	3.5100	3.5101	-1.2822	7.65	1.65	-0.750			
0.4636	29672.48	3.5070	3.5071	-1.2845	7.66	1.66	-0.750			
0.4675	29923.06	3.5040	3.5039	-1.2845	7.67	1.67	-0.750			
0.4713	30164.62	3.5010	3.5012	-1.2790	7.68	1.68	-0.750			
0.4752	30411.97	3.4980	3.4979	-1.2696	7.69	1.69	-0.750			
0.4790	30657.33	3.4950	3.4949	-1.2640	7.70	1.70	-0.750			
0.4828	30898.41	3.4920	3.4921	-1.2487	7.71	1.71	-0.750			
0.4866	31139.72	3.4890	3.4890	-1.2475	7.72	1.72	-0.750			
0.4903	31376.28	3.4860	3.4860	-1.2340	7.73	1.73	-0.750			
0.4939	31608.70	3.4830	3.4829	-1.2305	7.73	1.73	-0.750			
0.4976	31844.37	3.4800	3.4799	-1.2228	7.74	1.74	-0.750			
0.5013	32082.52	3.4770	3.4769	-1.2282	7.75	1.75	-0.750			
0.5050	32317.17	3.4740	3.4741	-1.2165	7.76	1.76	-0.750			
0.5086	32547.97	3.4710	3.4713	-1.2179	7.77	1.77	-0.750			
0.5123	32786.23	3.4680	3.4679	-1.2234	7.78	1.78	-0.750			
0.5160	33021.03	3.4650	3.4649	-1.2072	7.79	1.79	-0.750			
0.5195	33250.98	3.4620	3.4619	-1.1995	7.81	1.81	-0.750			
0.5232	33483.81	3.4590	3.4591	-1.2018	7.82	1.82	-0.750			
0.5268	33712.40	3.4560	3.4559	-1.1862	7.83	1.83	-0.750			
0.5303	33938.42	3.4530	3.4529	-1.1767	7.84	1.84	-0.750			
0.5337	34159.17	3.4500	3.4502	-1.1640	7.85	1.85	-0.750			
0.5373	34385.95	3.4470	3.4469	-1.1709	7.87	1.87	-0.750			
0.5408	34611.03	3.4440	3.4440	-1.1693	7.88	1.88	-0.750			
0.5443	34832.97	3.4410	3.4410	-1.1582	7.89	1.89	-0.750			
0.5478	35058.72	3.4380	3.4379	-1.1578	7.91	1.91	-0.750			
0.5513	35283.16	3.4350	3.4350	-1.1406	7.92	1.92	-0.750			
0.5547	35501.60	3.4320	3.4320	-1.1200	7.93	1.93	-0.750			
0.5580	35714.46	3.4290	3.4291	-1.0983	7.95	1.95	-0.750			
0.5613	35922.33	3.4260	3.4259	-1.0856	7.96	1.96	-0.750			
0.5645	36125.54	3.4230	3.4230	-1.0690	7.97	1.97	-0.750			
0.5676	36328.83	3.4200	3.4199	-1.0614	7.99	1.99	-0.750			
0.5708	36531.76	3.4170	3.4173	-1.0516	8.00	2.00	-0.750			
0.5740	36737.04	3.4140	3.4139	-1.0482	8.01	2.01	-0.750			
0.5771	36936.50	3.4110	3.4110	-1.0341	8.02	2.02	-0.750			
0.5802	37134.00	3.4080	3.4080	-1.0180	8.04	2.04	-0.750			
0.5833	37330.36	3.4050	3.4050	-1.0071	8.05	2.05	-0.750			
0.5863	37520.54	3.4020	3.4020	-0.9861	8.06	2.06	-0.750			
0.5892	37707.70	3.3990	3.3991	-0.9656	8.08	2.08	-0.750			
0.5921	37891.97	3.3960	3.3960	-0.9456	8.09	2.09	-0.750			
0.5948	38069.23	3.3930	3.3930	-0.9349	8.10	2.10	-0.750			
0.5976	38245.91	3.3900	3.3899	-0.9195	8.12	2.12	-0.750			
0.6003	38421.81	3.3870	3.3870	-0.9196	8.13	2.13	-0.750			
0.6031	38600.65	3.3840	3.3838	-0.9046	8.15	2.15	-0.750			
0.6059	38775.04	3.3810	3.3810	-0.8905	8.17	2.17	-0.750			
0.6085	38946.01	3.3780	3.3785	-0.8732	8.18	2.18	-0.750			
0.6111	39113.41	3.3750	3.3749	-0.8514	8.19	2.19	-0.750			
0.6136	39271.59	3.3720	3.3719	-0.8274	8.21	2.21	-0.750			
0.6160	39424.50	3.3690	3.3690	-0.8058	8.22	2.22	-0.750			
0.6184	39577.52	3.3660	3.3660	-0.7976	8.24	2.24	-0.750			
0.6207	39727.91	3.3630	3.3629	-0.7888	8.25	2.25	-0.750			
0.6231	39878.71	3.3600	3.3601	-0.7760	8.26	2.26	-0.750			
0.6254	40027.48	3.3570	3.3569	-0.7647	8.28	2.28	-0.750			
0.6278	40176.54	3.3540	3.3540	-0.7517	8.29	2.29	-0.750			
0.6300	40319.70	3.3510	3.3510	-0.7326	8.31	2.31	-0.750			
0.6322	40457.67	3.3480	3.3480	-0.7178	8.32	2.32	-0.750			
0.6343	40593.82	3.3450	3.3451	-0.6965	8.33	2.33	-0.750			
0.6363	40723.38	3.3420	3.3418	-0.6794	8.35	2.35	-0.750			
0.6383	40853.57	3.3390	3.3391	-0.6666	8.36	2.36	-0.750			
0.6403	40980.27	3.3360	3.3359	-0.6544	8.37	2.37	-0.750			
0.6422	41103.46	3.3330	3.3330	-0.6448	8.39	2.39	-0.750			
0.6442	41226.23	3.3300	3.3300	-0.6320	8.40	2.40	-0.750			
0.6460	41345.56	3.3270	3.3273	-0.6236	8.41	2.41	-0.750			
0.6479	41466.41	3.3240	3.3239	-0.6186	8.42	2.42	-0.750			
0.6497	41583.79	3.3210	3.3211	-0.6033	8.44	2.44	-0.750			
0.6516	41700.15	3.3180	3.3180	-0.5928	8.45	2.45	-0.750			
0.6533	41813.18	3.3150	3.3151	-0.5862	8.46	2.46	-0.750			
0.6551	41923.31	3.3120	3.3119	-0.5717	8.48	2.48	-0.750			
0.6568	42032.58	3.3090	3.3090	-0.5587	8.49	2.49	-0.750			
0.6584	42138.14	3.3060	3.3062	-0.5443	8.50	2.50	-0.750			
0.6600	42242.85	3.3030	3.3030	-0.5331	8.51	2.51	-0.750			
0.6616	42343.79	3.3000	3.3001	-0.5220	8.52	2.52	-0.750			
0.6631	42440.55	3.2970	3.2970	-0.5106	8.54	2.54	-0.750			
0.6646	42536.33	3.2940	3.2939	-0.5063	8.55	2.55	-0.750			
0.6661	42633.48	3.2910	3.2910	-0.5001	8.56	2.56	-0.750			
0.6677	42730.22	3.2880	3.2880	-0.4951	8.57	2.57	-0.750			
0.6691	42824.65	3.2850	3.2850	-0.4865	8.59	2.59	-0.750			
0.6706	42918.27	3.2820	3.2819	-0.4801	8.60	2.60	-0.750			
0.6720	43009.12	3.2790	3.2790	-0.4693	8.61	2.61	-0.750			
0.6734	43098.53	3.2760	3.2760	-0.4603	8.62	2.62	-0.750			
0.6748	43185.83	3.2730	3.2729	-0.4485	8.63	2.63	-0.750			
0.6761	43271.31	3.2700	3.2701	-0.4429	8.65	2.65	-0.750			
0.6774	43355.39	3.2670	3.2669	-0.4356	8.66	2.66	-0.750			
0.6787	43437.42	3.2640	3.2640	-0.4277	8.67	2.67	-0.750			
0.6800	43518.61	3.2610	3.2608	-0.4196	8.68	2.68	-0.750			
0.6812	43598.69	3.2580	3.2581	-0.4150	8.69	2.69	-0.750			
0.6825	43677.75	3.2550	3.2549	-0.4124	8.71	2.71	-0.750			
0.6837	43756.78	3.2520	3.2520	-0.4074	8.71	2.71	-0.750			
0.6849	43834.14	3.2490	3.2490	-0.4018	8.72	2.72	-0.750			
0.6861	43911.94	3.2460	3.2460	-0.3975	8.74	2.74	-0.750			
0.6873	43987.90	3.2430	3.2429	-0.3920	8.75	2.75	-0.750			
0.6885	44063.56	3.2400	3.2400	-0.3862	8.76	2.76	-0.750			
0.6896	44136.70	3.2370	3.2370	-0.3772	8.77	2.77	-0.750			
0.6907	44207.99	3.2340	3.2340	-0.3693	8.78	2.78	-0.750			
0.6919	44278.86	3.2310	3.2311	-0.3627	8.80	2.80	-0.750			
0.6929	44346.52	3.2280	3.2279	-0.3600	8.81	2.81	-0.750			
0.6940	44415.61	3.2250	3.2250	-0.3542	8.82	2.82	-0.750			
0.6950	44482.76	3.2220	3.2219	-0.3505	8.82	2.82	-0.750			
0.6961	44549.99	3.2190	3.2194	-0.3464	8.83	2.83	-0.750			
0.6971	44616.64	3.2160	3.2157	-0.3427	8.84	2.84	-0.750			
0.6982	44681.80	3.2130	3.2131	-0.3385	8.85	2.85	-0.750			
0.6992	44746.25	3.2100	3.2100	-0.3328	8.87	2.87	-0.750			
0.7002	44809.79	3.2070	3.2070	-0.3309	8.88	2.88	-0.750			
0.7011	44873.27	3.2040	3.2040	-0.3280	8.89	2.89	-0.750			
0.7021	44934.46	3.2010	3.2010	-0.3250	8.90	2.90	-0.750			
0.7031	44997.29	3.1980	3.1979	-0.3222	8.91	2.91	-0.750			
0.7040	45059.06	3.1950	3.1950	-0.3179	8.92	2.92	-0.750			
0.7050	45119.73	3.1920	3.1921	-0.3141	8.93	2.93	-0.750			
0.7059	45180.53	3.1890	3.1890	-0.3104	8.94	2.94	-0.750			
0.7069	45238.76	3.1860	3.1860	-0.3063	8.95	2.95	-0.750			
0.7078	45296.62	3.1830	3.1829	-0.3022	8.96	2.96	-0.750			
0.7087	45354.28	3.1800	3.1800	-0.2986	8.97	2.97	-0.750			
0.7096	45412.00	3.1770	3.1769	-0.2962	8.98	2.98	-0.750			
0.7105	45469.27	3.1740	3.1740	-0.2922	8.99	2.99	-0.750			
0.7113	45524.72	3.1710	3.1710	-0.2870	9.00	3.00	-0.750			
0.7122	45579.44	3.1680	3.1680	-0.2828	9.02	3.02	-0.750			
0.7130	45632.51	3.1650	3.1650	-0.2787	9.03	3.03	-0.750			
0.7138	45684.76	3.1620	3.1619	-0.2762	9.04	3.04	-0.750			
0.7146	45737.51	3.1590	3.1590	-0.2754	9.05	3.05	-0.750			
0.7155	45790.40	3.1560	3.1560	-0.2746	9.06	3.06	-0.750			
0.7163	45843.81	3.1530	3.1529	-0.2726	9.07	3.07	-0.750			
0.7171	45896.21	3.1500	3.1500	-0.2697	9.08	3.08	-0.750			
0.7179	45947.49	3.1470	3.1471	-0.2676	9.09	3.09	-0.750			
0.7187	45998.71	3.1440	3.1440	-0.2651	9.10	3.10	-0.750			
0.7195	46048.87	3.1410	3.1408	-0.2613	9.11	3.11	-0.750			
0.7203	46098.40	3.1380	3.1380	-0.2583	9.12	3.12	-0.750			
0.7211	46147.52	3.1350	3.1352	-0.2570	9.13	3.13	-0.750			
0.7218	46196.78	3.1320	3.1321	-0.2563	9.14	3.14	-0.750			
0.7226	46245.98	3.1290	3.1289	-0.2560	9.15	3.15	-0.750			
0.7234	46294.70	3.1260	3.1260	-0.2552	9.16	3.16	-0.750			
0.7241	46343.83	3.1230	3.1230	-0.2522	9.17	3.17	-0.750			
0.7249	46392.85	3.1200	3.1199	-0.2512	9.18	3.18	-0.750			
0.7256	46440.91	3.1170	3.1171	-0.2495	9.19	3.19	-0.750			
0.7264	46488.04	3.1140	3.1142	-0.2481	9.20	3.20	-0.750			
0.7271	46535.59	3.1110	3.1109	-0.2456	9.21	3.21	-0.750			
0.7279	46582.57	3.1080	3.1080	-0.2425	9.22	3.22	-0.750			
0.7286	46628.76	3.1050	3.1050	-0.2402	9.23	3.23	-0.750			
0.7293	46674.75	3.1020	3.1022	-0.2382	9.24	3.24	-0.750			
0.7300	46720.75	3.0990	3.0989	-0.2369	9.25	3.25	-0.750			
0.7307	46765.27	3.0960	3.0959	-0.2345	9.26	3.26	-0.750			
0.7314	46810.33	3.0930	3.0929	-0.2320	9.27	3.27	-0.750			
0.7321	46854.85	3.0900	3.0900	-0.2311	9.28	3.28	-0.750			
0.7328	46899.63	3.0870	3.0871	-0.2301	9.29	3.29	-0.750			
0.7335	46943.90	3.0840	3.0841	-0.2284	9.30	3.30	-0.750			
0.7342	46987.28	3.0810	3.0809	-0.2264	9.31	3.31	-0.750			
0.7349	47030.50	3.0780	3.0780	-0.2250	9.32	3.32	-0.750			
0.7355	47073.24	3.0750	3.0750	-0.2234	9.33	3.33	-0.750			
0.7362	47115.79	3.0720	3.0720	-0.2230	9.34	3.34	-0.750			
0.7369	47159.21	3.0690	3.0690	-0.2214	9.35	3.35	-0.750			
0.7375	47201.08	3.0660	3.0660	-0.2202	9.36	3.36	-0.750			
0.7382	47243.35	3.0630	3.0631	-0.2190	9.37	3.37	-0.750			
0.7388	47285.56	3.0600	3.0601	-0.2179	9.39	3.39	-0.750			
0.7395	47327.22	3.0570	3.0569	-0.2163	9.40	3.40	-0.750			
0.7401	47368.90	3.0540	3.0540	-0.2138	9.41	3.41	-0.750			
0.7408	47409.47	3.0510	3.0510	-0.2124	9.42	3.42	-0.750			
0.7414	47449.95	3.0480	3.0480	-0.2106	9.43	3.43	-0.750			
0.7420	47490.27	3.0450	3.0451	-0.2112	9.44	3.44	-0.750			
0.7427	47530.23	3.0420	3.0419	-0.2090	9.45	3.45	-0.750			
0.7433	47570.66	3.0390	3.0390	-0.2085	9.46	3.46	-0.750			
0.7439	47611.10	3.0360	3.0360	-0.2077	9.47	3.47	-0.750			
0.7445	47650.80	3.0330	3.0331	-0.2058	9.48	3.48	-0.750			
0.7452	47690.52	3.0300	3.0300	-0.2056	9.49	3.49	-0.750			
0.7458	47729.31	3.0270	3.0271	-0.2035	9.50	3.50	-0.750			
0.7464	47768.28	3.0240	3.0238	-0.2027	9.51	3.51	-0.750			
0.7470	47806.64	3.0210	3.0210	-0.2016	9.52	3.52	-0.750			
0.7476	47845.60	3.0180	3.0180	-0.2010	9.53	3.53	-0.750			
0.7482	47883.93	3.0150	3.0150	-0.2013	9.53	3.53	-0.750			
0.7488	47922.63	3.0120	3.0120	-0.2013	9.54	3.54	-0.750			
0.7494	47961.26	3.0090	3.0090	-0.2011	9.55	3.55	-0.750			
0.7500	47999.52	3.0060	3.0059	-0.2031	9.56	3.56	-0.750			
0.7506	48038.77	3.0030	3.0030	-0.2074	9.57	3.57	-0.750			
