Ah_balance (normalized)	Ah_balance (mAh)	Voltage - fit (V)	Voltage -  interpolate (V)	dQ/dV (1/V)	Temperature (°C)	Temperature - diff (°C)	Current (C)	R_DC 0ms (mOhm)	R_DC 50ms (mOhm)	R_DC 50 ms PEC (mOhm)
0.0002	10.99	4.1120	4.1111	-0.0463	5.98	-0.00	-0.750			
0.0004	24.64	4.1090	4.1085	-0.0862	5.98	-0.00	-0.750			
0.0007	45.09	4.1060	4.1056	-0.1172	5.98	-0.00	-0.750			
0.0011	70.31	4.1030	4.1030	-0.1454	5.98	-0.00	-0.750			
0.0016	101.35	4.1000	4.1001	-0.1704	5.98	-0.00	-0.750			
0.0021	137.08	4.0970	4.0971	-0.1925	5.98	-0.00	-0.750			
0.0028	178.15	4.0940	4.0941	-0.2169	5.98	-0.00	-0.750			
0.0035	221.62	4.0910	4.0910	-0.2371	5.98	-0.00	-0.750			
0.0042	268.58	4.0880	4.0880	-0.2597	5.98	-0.00	-0.750			
0.0050	320.02	4.0850	4.0850	-0.2823	5.98	-0.00	-0.750			
0.0059	376.15	4.0820	4.0820	-0.3050	5.98	0.00	-0.750			
0.0068	437.14	4.0790	4.0790	-0.3289	5.98	0.00	-0.750			
0.0079	503.16	4.0760	4.0760	-0.3500	5.98	0.00	-0.750			
0.0089	572.42	4.0730	4.0731	-0.3743	5.98	0.00	-0.750			
0.0101	645.73	4.0700	4.0700	-0.3990	5.98	0.00	-0.750			
0.0113	724.45	4.0670	4.0670	-0.4229	5.98	0.00	-0.750			
0.0126	807.33	4.0640	4.0639	-0.4487	5.99	0.01	-0.750			
0.0140	897.06	4.0610	4.0610	-0.4683	5.99	0.01	-0.750			
0.0155	990.52	4.0580	4.0581	-0.4898	5.99	0.01	-0.750			
0.0170	1087.02	4.0550	4.0550	-0.5089	5.99	0.01	-0.750			
0.0185	1184.95	4.0520	4.0518	-0.5263	5.99	0.01	-0.750			
0.0201	1286.99	4.0490	4.0490	-0.5490	5.99	0.01	-0.750			
0.0218	1394.01	4.0460	4.0461	-0.5704	6.00	0.02	-0.750			
0.0235	1505.73	4.0430	4.0430	-0.5902	6.00	0.02	-0.750			
0.0254	1622.85	4.0400	4.0400	-0.6123	6.00	0.02	-0.750			
0.0272	1742.67	4.0370	4.0371	-0.6294	6.01	0.03	-0.750			
0.0292	1865.81	4.0340	4.0337	-0.6419	6.01	0.03	-0.750			
0.0311	1991.14	4.0310	4.0311	-0.6520	6.01	0.03	-0.750			
0.0331	2117.71	4.0280	4.0280	-0.6582	6.01	0.03	-0.750			
0.0351	2243.99	4.0250	4.0251	-0.6725	6.02	0.04	-0.750			
0.0371	2372.12	4.0220	4.0220	-0.6762	6.02	0.04	-0.750			
0.0391	2504.21	4.0190	4.0188	-0.6892	6.02	0.04	-0.750			
0.0412	2638.54	4.0160	4.0160	-0.6999	6.03	0.05	-0.750			
0.0433	2774.34	4.0130	4.0131	-0.7103	6.03	0.05	-0.750			
0.0455	2914.09	4.0100	4.0100	-0.7190	6.04	0.06	-0.750			
0.0477	3053.35	4.0070	4.0070	-0.7215	6.05	0.07	-0.750			
0.0498	3189.82	4.0040	4.0040	-0.7163	6.05	0.07	-0.750			
0.0520	3328.18	4.0010	4.0011	-0.7245	6.06	0.08	-0.750			
0.0542	3467.03	3.9980	3.9980	-0.7275	6.07	0.09	-0.750			
0.0563	3605.47	3.9950	3.9948	-0.7346	6.07	0.09	-0.750			
0.0585	3746.20	3.9920	3.9921	-0.7417	6.08	0.10	-0.750			
0.0608	3891.27	3.9890	3.9891	-0.7481	6.09	0.11	-0.750			
0.0631	4037.77	3.9860	3.9859	-0.7517	6.10	0.12	-0.750			
0.0654	4183.41	3.9830	3.9829	-0.7510	6.10	0.12	-0.750			
0.0676	4326.20	3.9800	3.9803	-0.7460	6.11	0.13	-0.750			
0.0698	4468.66	3.9770	3.9769	-0.7485	6.12	0.14	-0.750			
0.0720	4609.02	3.9740	3.9741	-0.7527	6.12	0.14	-0.750			
0.0743	4755.64	3.9710	3.9709	-0.7594	6.13	0.15	-0.750			
0.0766	4903.16	3.9680	3.9679	-0.7676	6.13	0.15	-0.750			
0.0789	5051.61	3.9650	3.9649	-0.7682	6.14	0.16	-0.750			
0.0813	5200.01	3.9620	3.9621	-0.7730	6.14	0.16	-0.750			
0.0836	5347.88	3.9590	3.9590	-0.7716	6.15	0.17	-0.750			
0.0858	5494.09	3.9560	3.9559	-0.7668	6.16	0.18	-0.750			
0.0881	5639.90	3.9530	3.9531	-0.7665	6.17	0.19	-0.750			
0.0905	5789.75	3.9500	3.9498	-0.7755	6.18	0.20	-0.750			
0.0928	5939.60	3.9470	3.9472	-0.7783	6.19	0.21	-0.750			
0.0952	6089.72	3.9440	3.9440	-0.7803	6.20	0.22	-0.750			
0.0975	6240.21	3.9410	3.9410	-0.7809	6.21	0.23	-0.750			
0.0999	6391.42	3.9380	3.9380	-0.7823	6.22	0.24	-0.750			
0.1022	6538.62	3.9350	3.9350	-0.7871	6.23	0.25	-0.750			
0.1045	6689.27	3.9320	3.9320	-0.7907	6.24	0.26	-0.750			
0.1069	6841.52	3.9290	3.9289	-0.7947	6.25	0.27	-0.750			
0.1093	6994.72	3.9260	3.9260	-0.8004	6.26	0.28	-0.750			
0.1117	7149.36	3.9230	3.9232	-0.8058	6.27	0.29	-0.750			
0.1141	7305.21	3.9200	3.9199	-0.8084	6.28	0.30	-0.750			
0.1166	7462.17	3.9170	3.9171	-0.8075	6.29	0.31	-0.750			
0.1190	7616.35	3.9140	3.9140	-0.8048	6.30	0.32	-0.750			
0.1214	7770.77	3.9110	3.9111	-0.8065	6.30	0.32	-0.750			
0.1238	7925.93	3.9080	3.9079	-0.8043	6.31	0.33	-0.750			
0.1262	8077.95	3.9050	3.9051	-0.8054	6.32	0.34	-0.750			
0.1286	8232.91	3.9020	3.9020	-0.8063	6.33	0.35	-0.750			
0.1311	8389.29	3.8990	3.8990	-0.8069	6.34	0.36	-0.750			
0.1335	8543.93	3.8960	3.8959	-0.8090	6.35	0.37	-0.750			
0.1359	8698.19	3.8930	3.8931	-0.8100	6.36	0.38	-0.750			
0.1383	8854.15	3.8900	3.8900	-0.8100	6.37	0.39	-0.750			
0.1408	9010.51	3.8870	3.8869	-0.8119	6.38	0.40	-0.750			
0.1432	9165.40	3.8840	3.8841	-0.8077	6.39	0.41	-0.750			
0.1456	9321.18	3.8810	3.8810	-0.8141	6.40	0.42	-0.750			
0.1481	9477.88	3.8780	3.8780	-0.8212	6.41	0.43	-0.750			
0.1505	9634.24	3.8750	3.8750	-0.8253	6.42	0.44	-0.750			
0.1530	9793.76	3.8720	3.8719	-0.8279	6.43	0.45	-0.750			
0.1555	9953.04	3.8690	3.8691	-0.8382	6.44	0.46	-0.750			
0.1581	10115.75	3.8660	3.8660	-0.8438	6.45	0.47	-0.750			
0.1606	10279.30	3.8630	3.8630	-0.8506	6.46	0.48	-0.750			
0.1632	10443.18	3.8600	3.8599	-0.8478	6.47	0.49	-0.750			
0.1657	10607.08	3.8570	3.8571	-0.8501	6.48	0.50	-0.750			
0.1683	10770.17	3.8540	3.8541	-0.8466	6.49	0.51	-0.750			
0.1708	10933.55	3.8510	3.8509	-0.8465	6.50	0.52	-0.750			
0.1733	11094.05	3.8480	3.8480	-0.8435	6.51	0.53	-0.750			
0.1759	11255.44	3.8450	3.8449	-0.8429	6.52	0.54	-0.750			
0.1784	11418.26	3.8420	3.8420	-0.8476	6.53	0.55	-0.750			
0.1809	11580.06	3.8390	3.8391	-0.8508	6.54	0.56	-0.750			
0.1835	11742.96	3.8360	3.8360	-0.8525	6.55	0.57	-0.750			
0.1861	11907.68	3.8330	3.8329	-0.8554	6.56	0.58	-0.750			
0.1886	12071.42	3.8300	3.8300	-0.8534	6.57	0.59	-0.750			
0.1912	12237.11	3.8270	3.8270	-0.8625	6.58	0.60	-0.750			
0.1938	12402.52	3.8240	3.8241	-0.8632	6.59	0.61	-0.750			
0.1964	12567.39	3.8210	3.8210	-0.8683	6.60	0.62	-0.750			
0.1990	12733.70	3.8180	3.8180	-0.8689	6.62	0.64	-0.750			
0.2016	12903.58	3.8150	3.8149	-0.8655	6.63	0.65	-0.750			
0.2042	13071.98	3.8120	3.8119	-0.8611	6.64	0.66	-0.750			
0.2068	13236.61	3.8090	3.8091	-0.8624	6.65	0.67	-0.750			
0.2093	13397.63	3.8060	3.8061	-0.8696	6.65	0.67	-0.750			
0.2119	13563.00	3.8030	3.8029	-0.8737	6.66	0.68	-0.750			
0.2146	13732.58	3.8000	3.7999	-0.8741	6.67	0.69	-0.750			
0.2173	13904.99	3.7970	3.7971	-0.8777	6.68	0.70	-0.750			
0.2199	14074.06	3.7940	3.7942	-0.8824	6.69	0.71	-0.750			
0.2226	14245.57	3.7910	3.7909	-0.8807	6.70	0.72	-0.750			
0.2252	14410.12	3.7880	3.7879	-0.8785	6.71	0.73	-0.750			
0.2277	14574.46	3.7850	3.7851	-0.8797	6.72	0.74	-0.750			
0.2304	14747.55	3.7820	3.7822	-0.8875	6.73	0.75	-0.750			
0.2331	14919.33	3.7790	3.7790	-0.8956	6.74	0.76	-0.750			
0.2358	15092.49	3.7760	3.7760	-0.8997	6.75	0.77	-0.750			
0.2385	15264.08	3.7730	3.7730	-0.8957	6.76	0.78	-0.750			
0.2412	15437.65	3.7700	3.7699	-0.8992	6.77	0.79	-0.750			
0.2439	15609.79	3.7670	3.7668	-0.8944	6.78	0.80	-0.750			
0.2466	15780.26	3.7640	3.7641	-0.8983	6.80	0.82	-0.750			
0.2493	15954.47	3.7610	3.7611	-0.9008	6.81	0.83	-0.750			
0.2520	16127.28	3.7580	3.7579	-0.8989	6.82	0.84	-0.750			
0.2547	16301.41	3.7550	3.7549	-0.8975	6.83	0.85	-0.750			
0.2574	16471.30	3.7520	3.7521	-0.9024	6.84	0.86	-0.750			
0.2601	16643.85	3.7490	3.7490	-0.9051	6.85	0.87	-0.750			
0.2628	16818.46	3.7460	3.7459	-0.9108	6.85	0.87	-0.750			
0.2655	16992.24	3.7430	3.7430	-0.9153	6.86	0.88	-0.750			
0.2683	17172.79	3.7400	3.7400	-0.9148	6.87	0.89	-0.750			
0.2711	17348.09	3.7370	3.7370	-0.9181	6.88	0.90	-0.750			
0.2738	17525.47	3.7340	3.7340	-0.9191	6.89	0.91	-0.750			
0.2766	17699.32	3.7310	3.7310	-0.9191	6.90	0.92	-0.750			
0.2793	17874.49	3.7280	3.7280	-0.9244	6.91	0.93	-0.750			
0.2821	18052.20	3.7250	3.7250	-0.9295	6.92	0.94	-0.750			
0.2849	18230.76	3.7220	3.7220	-0.9391	6.93	0.95	-0.750			
0.2877	18414.03	3.7190	3.7190	-0.9469	6.94	0.96	-0.750			
0.2906	18595.44	3.7160	3.7160	-0.9506	6.95	0.97	-0.750			
0.2935	18781.03	3.7130	3.7130	-0.9576	6.96	0.98	-0.750			
0.2963	18965.66	3.7100	3.7100	-0.9618	6.97	0.99	-0.750			
0.2992	19149.67	3.7070	3.7070	-0.9679	6.98	1.00	-0.750			
0.3021	19337.53	3.7040	3.7040	-0.9713	6.98	1.00	-0.750			
0.3051	19524.00	3.7010	3.7012	-0.9729	6.99	1.01	-0.750			
0.3080	19712.57	3.6980	3.6980	-0.9771	7.00	1.02	-0.750			
0.3109	19899.31	3.6950	3.6950	-0.9820	7.01	1.03	-0.750			
0.3139	20089.11	3.6920	3.6920	-0.9842	7.02	1.04	-0.750			
0.3169	20278.72	3.6890	3.6889	-0.9904	7.03	1.05	-0.750			
0.3198	20466.89	3.6860	3.6859	-0.9973	7.04	1.06	-0.750			
0.3228	20660.56	3.6830	3.6831	-1.0094	7.05	1.07	-0.750			
0.3258	20854.25	3.6800	3.6799	-1.0161	7.06	1.08	-0.750			
0.3289	21050.23	3.6770	3.6770	-1.0201	7.07	1.09	-0.750			
0.3320	21247.51	3.6740	3.6739	-1.0280	7.07	1.09	-0.750			
0.3351	21447.97	3.6710	3.6710	-1.0273	7.08	1.10	-0.750			
0.3382	21644.39	3.6680	3.6679	-1.0272	7.08	1.10	-0.750			
0.3412	21838.31	3.6650	3.6651	-1.0358	7.09	1.11	-0.750			
0.3444	22039.42	3.6620	3.6618	-1.0534	7.10	1.12	-0.750			
0.3475	22240.15	3.6590	3.6589	-1.0666	7.11	1.13	-0.750			
0.3507	22447.30	3.6560	3.6560	-1.0819	7.12	1.14	-0.750			
0.3540	22656.68	3.6530	3.6531	-1.0957	7.13	1.15	-0.750			
0.3574	22870.45	3.6500	3.6500	-1.1227	7.13	1.15	-0.750			
0.3608	23088.60	3.6470	3.6470	-1.1252	7.14	1.16	-0.750			
0.3642	23306.34	3.6440	3.6438	-1.1284	7.14	1.16	-0.750			
0.3676	23523.35	3.6410	3.6413	-1.1372	7.15	1.17	-0.750			
0.3710	23741.83	3.6380	3.6379	-1.1476	7.16	1.18	-0.750			
0.3744	23962.05	3.6350	3.6350	-1.1564	7.17	1.19	-0.750			
0.3778	24181.86	3.6320	3.6319	-1.1725	7.18	1.20	-0.750			
0.3814	24406.88	3.6290	3.6290	-1.1897	7.19	1.21	-0.750			
0.3850	24639.67	3.6260	3.6260	-1.2117	7.19	1.21	-0.750			
0.3887	24875.15	3.6230	3.6229	-1.2243	7.20	1.22	-0.750			
0.3923	25108.41	3.6200	3.6200	-1.2481	7.20	1.22	-0.750			
0.3961	25350.69	3.6170	3.6170	-1.2728	7.21	1.23	-0.750			
0.4000	25601.70	3.6140	3.6139	-1.2766	7.22	1.24	-0.750			
0.4039	25848.30	3.6110	3.6111	-1.2771	7.23	1.25	-0.750			
0.4077	26094.83	3.6080	3.6080	-1.2778	7.23	1.25	-0.750	0.430	0.997	
0.4116	26342.19	3.6050	3.6049	-1.2790	7.24	1.26	-0.750			
0.4154	26583.27	3.6020	3.6019	-1.2919	7.25	1.27	-0.750			
0.4191	26824.35	3.5990	3.5991	-1.2938	7.25	1.27	-0.750			
0.4231	27077.11	3.5960	3.5959	-1.3161	7.26	1.28	-0.750			
0.4271	27335.35	3.5930	3.5929	-1.3341	7.27	1.29	-0.750			
0.4311	27590.40	3.5900	3.5902	-1.3717	7.27	1.29	-0.750			
0.4353	27860.33	3.5870	3.5870	-1.4027	7.27	1.29	-0.750			
0.4396	28131.88	3.5840	3.5838	-1.4252	7.28	1.30	-0.750			
0.4439	28408.36	3.5810	3.5812	-1.4349	7.28	1.30	-0.750			
0.4483	28691.33	3.5780	3.5781	-1.4434	7.28	1.30	-0.750			
0.4526	28968.32	3.5750	3.5750	-1.4494	7.29	1.31	-0.750			
0.4569	29239.30	3.5720	3.5719	-1.4501	7.29	1.31	-0.750			
0.4612	29518.42	3.5690	3.5691	-1.4833	7.30	1.32	-0.750			
0.4657	29806.14	3.5660	3.5659	-1.5058	7.32	1.34	-0.750			
0.4703	30100.86	3.5630	3.5628	-1.5292	7.32	1.34	-0.750			
0.4750	30401.63	3.5600	3.5600	-1.5599	7.33	1.35	-0.750			
0.4798	30708.42	3.5570	3.5570	-1.5750	7.34	1.36	-0.750			
0.4845	31009.24	3.5540	3.5540	-1.5718	7.34	1.36	-0.750			
0.4892	31307.57	3.5510	3.5508	-1.5840	7.35	1.37	-0.750			
0.4940	31617.06	3.5480	3.5480	-1.6024	7.35	1.37	-0.750			
0.4989	31926.75	3.5450	3.5447	-1.6130	7.36	1.38	-0.750			
0.5037	32236.63	3.5420	3.5420	-1.6238	7.37	1.39	-0.750			
0.5086	32552.47	3.5390	3.5390	-1.6417	7.38	1.40	-0.750			
0.5136	32867.41	3.5360	3.5357	-1.6548	7.38	1.40	-0.750			
0.5186	33188.48	3.5330	3.5330	-1.6559	7.39	1.41	-0.750			
0.5235	33503.32	3.5300	3.5302	-1.6631	7.40	1.42	-0.750			
0.5286	33828.76	3.5270	3.5271	-1.6695	7.41	1.43	-0.750			
0.5337	34155.09	3.5240	3.5240	-1.6717	7.42	1.44	-0.750			
0.5386	34470.52	3.5210	3.5209	-1.6797	7.42	1.44	-0.750			
0.5436	34790.54	3.5180	3.5182	-1.6947	7.43	1.45	-0.750			
0.5487	35116.98	3.5150	3.5151	-1.6992	7.44	1.46	-0.750			
0.5539	35451.17	3.5120	3.5118	-1.7050	7.45	1.47	-0.750			
0.5590	35778.22	3.5090	3.5092	-1.7053	7.46	1.48	-0.750			
0.5642	36111.07	3.5060	3.5059	-1.7170	7.46	1.48	-0.750			
0.5695	36446.60	3.5030	3.5028	-1.7024	7.47	1.49	-0.750			
0.5745	36770.58	3.5000	3.5001	-1.6582	7.48	1.50	-0.750			
0.5795	37086.42	3.4970	3.4971	-1.6499	7.49	1.51	-0.750			
0.5844	37399.74	3.4940	3.4940	-1.6459	7.50	1.52	-0.750			
0.5893	37712.22	3.4910	3.4908	-1.6524	7.50	1.52	-0.750			
0.5942	38026.64	3.4880	3.4880	-1.6416	7.51	1.53	-0.750			
0.5991	38340.65	3.4850	3.4853	-1.6447	7.52	1.54	-0.750			
0.6042	38665.89	3.4820	3.4822	-1.6507	7.53	1.55	-0.750			
0.6091	38982.94	3.4790	3.4790	-1.6307	7.54	1.56	-0.750			
0.6140	39298.01	3.4760	3.4761	-1.6211	7.56	1.58	-0.750			
0.6189	39608.86	3.4730	3.4730	-1.6135	7.57	1.59	-0.750			
0.6237	39915.94	3.4700	3.4699	-1.5789	7.58	1.60	-0.750			
0.6284	40220.69	3.4670	3.4672	-1.5658	7.60	1.62	-0.750			
0.6331	40517.53	3.4640	3.4638	-1.5361	7.60	1.62	-0.750			
0.6376	40806.18	3.4610	3.4608	-1.5183	7.61	1.63	-0.750			
0.6420	41090.70	3.4580	3.4581	-1.5014	7.62	1.64	-0.750			
0.6466	41384.37	3.4550	3.4550	-1.4805	7.63	1.65	-0.750			
0.6511	41673.13	3.4520	3.4517	-1.4609	7.64	1.66	-0.750			
0.6555	41954.55	3.4490	3.4493	-1.4433	7.65	1.67	-0.750			
0.6598	42226.31	3.4460	3.4460	-1.4126	7.66	1.68	-0.750			
0.6640	42494.29	3.4430	3.4428	-1.3902	7.67	1.69	-0.750			
0.6681	42757.53	3.4400	3.4401	-1.3582	7.68	1.70	-0.750			
0.6721	43017.16	3.4370	3.4370	-1.3288	7.69	1.71	-0.750			
0.6761	43269.94	3.4340	3.4340	-1.3001	7.71	1.73	-0.750			
0.6799	43515.56	3.4310	3.4312	-1.2670	7.72	1.74	-0.750			
0.6837	43754.88	3.4280	3.4278	-1.2358	7.73	1.75	-0.750			
0.6873	43986.47	3.4250	3.4250	-1.2070	7.74	1.76	-0.750			
0.6909	44214.47	3.4220	3.4221	-1.1749	7.75	1.77	-0.750			
0.6944	44442.64	3.4190	3.4190	-1.1647	7.77	1.79	-0.750			
0.6979	44664.34	3.4160	3.4159	-1.1324	7.78	1.80	-0.750			
0.7012	44875.73	3.4130	3.4130	-1.0973	7.79	1.81	-0.750			
0.7045	45085.09	3.4100	3.4100	-1.0630	7.80	1.82	-0.750			
0.7076	45287.05	3.4070	3.4070	-1.0274	7.81	1.83	-0.750			
0.7106	45479.94	3.4040	3.4040	-0.9896	7.82	1.84	-0.750			
0.7135	45666.35	3.4010	3.4011	-0.9572	7.83	1.85	-0.750			
0.7163	45845.07	3.3980	3.3979	-0.9212	7.84	1.86	-0.750			
0.7190	46018.35	3.3950	3.3951	-0.8937	7.86	1.88	-0.750			
0.7217	46186.42	3.3920	3.3920	-0.8703	7.87	1.89	-0.750			
0.7243	46353.78	3.3890	3.3889	-0.8478	7.88	1.90	-0.750			
0.7268	46513.96	3.3860	3.3859	-0.8139	7.89	1.91	-0.750			
0.7292	46668.67	3.3830	3.3830	-0.7815	7.90	1.92	-0.750			
0.7315	46815.93	3.3800	3.3800	-0.7520	7.90	1.92	-0.750			
0.7337	46955.65	3.3770	3.3769	-0.7330	7.91	1.93	-0.750			
0.7358	47089.59	3.3740	3.3740	-0.7080	7.92	1.94	-0.750			
0.7379	47223.65	3.3710	3.3709	-0.6854	7.92	1.94	-0.750			
0.7400	47357.13	3.3680	3.3680	-0.6741	7.93	1.95	-0.750			
0.7420	47486.00	3.3650	3.3651	-0.6522	7.94	1.96	-0.750			
0.7439	47609.11	3.3620	3.3621	-0.6302	7.95	1.97	-0.750			
0.7457	47727.12	3.3590	3.3589	-0.6050	7.96	1.98	-0.750			
0.7475	47839.69	3.3560	3.3560	-0.5846	7.97	1.99	-0.750			
0.7492	47949.53	3.3530	3.3530	-0.5671	7.98	2.00	-0.750			
0.7509	48057.67	3.3500	3.3500	-0.5517	7.99	2.01	-0.750			
0.7525	48161.28	3.3470	3.3470	-0.5303	8.00	2.02	-0.750			
0.7541	48261.34	3.3440	3.3441	-0.5145	8.00	2.02	-0.750			
0.7556	48357.28	3.3410	3.3410	-0.4986	8.01	2.03	-0.750			
0.7571	48452.00	3.3380	3.3378	-0.4847	8.02	2.04	-0.750			
0.7585	48542.94	3.3350	3.3350	-0.4669	8.03	2.05	-0.750			
0.7599	48631.59	3.3320	3.3320	-0.4525	8.04	2.06	-0.750			
0.7612	48717.22	3.3290	3.3291	-0.4409	8.05	2.07	-0.750			
0.7625	48800.87	3.3260	3.3259	-0.4275	8.06	2.08	-0.750			
0.7638	48880.22	3.3230	3.3230	-0.4134	8.06	2.08	-0.750			
0.7650	48958.80	3.3200	3.3199	-0.4011	8.07	2.09	-0.750			
0.7662	49034.72	3.3170	3.3171	-0.3916	8.08	2.10	-0.750			
0.7673	49109.04	3.3140	3.3140	-0.3813	8.09	2.11	-0.750			
0.7684	49180.77	3.3110	3.3110	-0.3713	8.10	2.12	-0.750			
0.7695	49250.60	3.3080	3.3080	-0.3612	8.10	2.12	-0.750			
0.7706	49318.72	3.3050	3.3049	-0.3534	8.11	2.13	-0.750			
0.7717	49385.63	3.3020	3.3020	-0.3456	8.12	2.14	-0.750			
0.7727	49451.69	3.2990	3.2990	-0.3390	8.13	2.15	-0.750			
0.7737	49515.70	3.2960	3.2960	-0.3288	8.13	2.15	-0.750			
0.7747	49578.56	3.2930	3.2930	-0.3210	8.14	2.16	-0.750			
0.7756	49639.28	3.2900	3.2900	-0.3122	8.15	2.17	-0.750			
0.7765	49698.20	3.2870	3.2869	-0.3039	8.15	2.17	-0.750			
0.7774	49755.29	3.2840	3.2840	-0.2968	8.16	2.18	-0.750			
0.7783	49811.53	3.2810	3.2809	-0.2906	8.17	2.19	-0.750			
0.7792	49866.65	3.2780	3.2780	-0.2841	8.17	2.19	-0.750			
0.7800	49920.81	3.2750	3.2751	-0.2785	8.18	2.20	-0.750			
0.7808	49973.64	3.2720	3.2720	-0.2727	8.19	2.21	-0.750			
0.7816	50025.35	3.2690	3.2690	-0.2678	8.19	2.21	-0.750			
0.7824	50075.91	3.2660	3.2661	-0.2614	8.20	2.22	-0.750			
0.7832	50125.58	3.2630	3.2629	-0.2558	8.20	2.22	-0.750			
0.7840	50174.50	3.2600	3.2600	-0.2510	8.21	2.23	-0.750			
0.7847	50222.27	3.2570	3.2571	-0.2462	8.22	2.24	-0.750			
0.7855	50269.07	3.2540	3.2540	-0.2404	8.22	2.24	-0.750			
0.7862	50314.60	3.2510	3.2509	-0.2348	8.23	2.25	-0.750			
0.7869	50359.01	3.2480	3.2480	-0.2290	8.23	2.25	-0.750			
0.7875	50402.29	3.2450	3.2451	-0.2232	8.24	2.26	-0.750			
0.7882	50444.80	3.2420	3.2420	-0.2188	8.24	2.26	-0.750			
0.7888	50485.88	3.2390	3.2390	-0.2138	8.25	2.27	-0.750			
0.7895	50526.53	3.2360	3.2361	-0.2096	8.25	2.27	-0.750			
0.7901	50565.77	3.2330	3.2330	-0.2063	8.26	2.28	-0.750			
0.7907	50605.14	3.2300	3.2300	-0.2030	8.26	2.28	-0.750			
0.7913	50643.96	3.2270	3.2270	-0.1997	8.27	2.29	-0.750			
0.7919	50682.01	3.2240	3.2240	-0.1966	8.27	2.29	-0.750			
0.7925	50719.81	3.2210	3.2210	-0.1932	8.28	2.30	-0.750			
0.7931	50756.58	3.2180	3.2180	-0.1897	8.28	2.30	-0.750			
0.7936	50792.49	3.2150	3.2150	-0.1857	8.29	2.31	-0.750			
0.7942	50827.79	3.2120	3.2120	-0.1820	8.30	2.32	-0.750			
0.7947	50861.83	3.2090	3.2090	-0.1794	8.30	2.32	-0.750			
0.7953	50896.05	3.2060	3.2060	-0.1770	8.31	2.33	-0.750			
0.7958	50929.76	3.2030	3.2030	-0.1746	8.31	2.33	-0.750			
0.7963	50963.10	3.2000	3.1999	-0.1727	8.32	2.34	-0.750			
0.7968	50996.21	3.1970	3.1971	-0.1701	8.33	2.35	-0.750			
0.7973	51028.80	3.1940	3.1940	-0.1676	8.33	2.35	-0.750			
0.7978	51060.82	3.1910	3.1910	-0.1651	8.34	2.36	-0.750			
0.7983	51092.21	3.1880	3.1880	-0.1619	8.34	2.36	-0.750			
0.7988	51122.75	3.1850	3.1850	-0.1589	8.35	2.37	-0.750			
0.7993	51152.97	3.1820	3.1819	-0.1564	8.35	2.37	-0.750			
0.7997	51182.63	3.1790	3.1791	-0.1537	8.36	2.38	-0.750			
0.8002	51211.99	3.1760	3.1760	-0.1510	8.36	2.38	-0.750			
0.8006	51240.58	3.1730	3.1730	-0.1495	8.37	2.39	-0.750			
0.8011	51268.99	3.1700	3.1702	-0.1475	8.37	2.39	-0.750			
0.8015	51297.06	3.1670	3.1669	-0.1457	8.38	2.40	-0.750			
0.8020	51324.99	3.1640	3.1639	-0.1439	8.38	2.40	-0.750			
0.8024	51352.74	3.1610	3.1611	-0.1415	8.39	2.41	-0.750			
0.8028	51379.91	3.1580	3.1580	-0.1393	8.39	2.41	-0.750			
0.8032	51406.22	3.1550	3.1551	-0.1372	8.40	2.42	-0.750			
0.8036	51432.34	3.1520	3.1520	-0.1358	8.40	2.42	-0.750			
0.8040	51457.78	3.1490	3.1489	-0.1334	8.41	2.43	-0.750			
0.8044	51483.27	3.1460	3.1460	-0.1322	8.41	2.43	-0.750			
0.8048	51508.55	3.1430	3.1430	-0.1303	8.42	2.44	-0.750			
0.8052	51533.54	3.1400	3.1402	-0.1290	8.42	2.44	-0.750			
0.8056	51558.42	3.1370	3.1370	-0.1282	8.43	2.45	-0.750			
0.8060	51582.83	3.1340	3.1340	-0.1261	8.43	2.45	-0.750			
0.8064	51606.64	3.1310	3.1310	-0.1242	8.43	2.45	-0.750			
0.8067	51630.21	3.1280	3.1280	-0.1224	8.44	2.46	-0.750			
0.8071	51653.55	3.1250	3.1250	-0.1209	8.44	2.46	-0.750			
0.8074	51676.57	3.1220	3.1220	-0.1194	8.45	2.47	-0.750			
0.8078	51699.25	3.1190	3.1190	-0.1186	8.45	2.47	-0.750			
0.8082	51721.90	3.1160	3.1160	-0.1176	8.46	2.48	-0.750			
0.8085	51744.35	3.1130	3.1130	-0.1167	8.46	2.48	-0.750			
0.8089	51766.47	3.1100	3.1099	-0.1156	8.47	2.49	-0.750			
0.8092	51788.75	3.1070	3.1070	-0.1143	8.47	2.49	-0.750			
0.8095	51810.76	3.1040	3.1040	-0.1135	8.47	2.49	-0.750			
0.8099	51832.50	3.1010	3.1010	-0.1119	8.48	2.50	-0.750			
0.8102	51854.10	3.0980	3.0981	-0.1107	8.48	2.50	-0.750			
0.8105	51875.16	3.0950	3.0950	-0.1090	8.49	2.51	-0.750			
0.8109	51895.87	3.0920	3.0920	-0.1072	8.49	2.51	-0.750			
0.8112	51916.18	3.0890	3.0890	-0.1059	8.50	2.52	-0.750			
0.8115	51936.24	3.0860	3.0860	-0.1044	8.50	2.52	-0.750			
0.8118	51956.01	3.0830	3.0831	-0.1039	8.50	2.52	-0.750			
0.8121	51975.67	3.0800	3.0799	-0.1029	8.51	2.53	-0.750			
0.8124	51995.48	3.0770	3.0770	-0.1020	8.51	2.53	-0.750			
0.8127	52014.94	3.0740	3.0741	-0.1012	8.52	2.54	-0.750			
0.8130	52034.37	3.0710	3.0709	-0.1003	8.52	2.54	-0.750			
0.8133	52053.73	3.0680	3.0682	-0.0997	8.52	2.54	-0.750			
0.8136	52072.66	3.0650	3.0651	-0.0990	8.53	2.55	-0.750			
0.8139	52091.58	3.0620	3.0620	-0.0981	8.53	2.55	-0.750			
0.8142	52110.42	3.0590	3.0589	-0.0970	8.53	2.55	-0.750			
0.8145	52128.82	3.0560	3.0560	-0.0958	8.54	2.56	-0.750			
0.8148	52147.09	3.0530	3.0531	-0.0952	8.54	2.56	-0.750			
0.8151	52165.40	3.0500	3.0501	-0.0946	8.55	2.57	-0.750			
0.8154	52183.49	3.0470	3.0470	-0.0937	8.55	2.57	-0.750			
0.8156	52201.41	3.0440	3.0438	-0.0929	8.55	2.57	-0.750			
0.8159	52219.14	3.0410	3.0410	-0.0921	8.56	2.58	-0.750			
0.8162	52236.60	3.0380	3.0381	-0.0911	8.56	2.58	-0.750			
0.8165	52253.99	3.0350	3.0351	-0.0906	8.56	2.58	-0.750			
0.8167	52271.46	3.0320	3.0319	-0.0902	8.57	2.59	-0.750			
0.8170	52288.78	3.0290	3.0290	-0.0893	8.57	2.59	-0.750			
0.8173	52305.76	3.0260	3.0259	-0.0883	8.57	2.59	-0.750			
0.8175	52322.63	3.0230	3.0231	-0.0876	8.58	2.60	-0.750			
0.8178	52339.47	3.0200	3.0201	-0.0870	8.58	2.60	-0.750			
0.8181	52356.09	3.0170	3.0169	-0.0862	8.59	2.61	-0.750			
0.8183	52372.63	3.0140	3.0139	-0.0851	8.59	2.61	-0.750			
0.8186	52388.86	3.0110	3.0110	-0.0840	8.59	2.61	-0.750			
0.8188	52404.78	3.0080	3.0080	-0.0831	8.60	2.62	-0.750			
0.8191	52420.65	3.0050	3.0051	-0.0822	8.60	2.62	-0.750			
0.8193	52436.29	3.0020	3.0020	-0.0790	8.60	2.62	-0.750			
