Ah_balance (normalized)	Ah_balance (mAh)	Voltage - fit (V)	Voltage -  interpolate (V)	dQ/dV (1/V)	Temperature (°C)	Temperature - diff (°C)	Current (C)	R_DC 0ms (mOhm)	R_DC 50ms (mOhm)	R_DC 50 ms PEC (mOhm)
0.0951	6083.45	4.1970	4.1991	0.6779	8.10	2.11	0.750			
0.0975	6237.80	4.1940	4.1957	0.8017	8.10	2.11	0.750			
0.1000	6398.57	4.1910	4.1921	0.8065	8.09	2.10	0.750			
0.1023	6547.68	4.1880	4.1888	0.7737	8.09	2.10	0.750			
0.1048	6708.46	4.1850	4.1850	0.7722	8.08	2.09	0.750			
0.1070	6848.05	4.1820	4.1820	0.7098	8.08	2.09	0.750			
0.1091	6985.27	4.1790	4.1790	0.7176	8.07	2.08	0.750			
0.1113	7124.84	4.1760	4.1759	0.7222	8.06	2.07	0.750			
0.1135	7265.59	4.1730	4.1730	0.7210	8.06	2.07	0.750			
0.1157	7405.77	4.1700	4.1701	0.7241	8.05	2.06	0.750			
0.1179	7543.29	4.1670	4.1670	0.7165	8.05	2.06	0.750			
0.1200	7679.47	4.1640	4.1640	0.7175	8.04	2.05	0.750			
0.1221	7816.29	4.1610	4.1609	0.7105	8.04	2.05	0.750			
0.1242	7950.99	4.1580	4.1580	0.7148	8.03	2.04	0.750			
0.1264	8089.90	4.1550	4.1549	0.7166	8.03	2.04	0.750			
0.1285	8227.11	4.1520	4.1522	0.7217	8.02	2.03	0.750			
0.1307	8365.54	4.1490	4.1490	0.7301	8.02	2.03	0.750			
0.1329	8507.84	4.1460	4.1461	0.7373	8.01	2.02	0.750			
0.1352	8649.73	4.1430	4.1430	0.7441	8.01	2.02	0.750			
0.1374	8794.97	4.1400	4.1401	0.7506	8.00	2.01	0.750			
0.1397	8938.20	4.1370	4.1369	0.7467	7.99	2.00	0.750			
0.1419	9082.28	4.1340	4.1340	0.7533	7.99	2.00	0.750			
0.1442	9225.95	4.1310	4.1310	0.7496	7.98	1.99	0.750			
0.1464	9368.89	4.1280	4.1278	0.7474	7.97	1.98	0.750			
0.1487	9514.18	4.1250	4.1250	0.7490	7.97	1.98	0.750			
0.1509	9657.37	4.1220	4.1221	0.7499	7.96	1.97	0.750			
0.1532	9802.45	4.1190	4.1188	0.7604	7.95	1.96	0.750			
0.1555	9949.32	4.1160	4.1159	0.7569	7.95	1.96	0.750			
0.1577	10095.21	4.1130	4.1131	0.7593	7.94	1.95	0.750			
0.1600	10242.97	4.1100	4.1102	0.7625	7.94	1.95	0.750			
0.1623	10388.99	4.1070	4.1070	0.7633	7.93	1.94	0.750			
0.1646	10534.42	4.1040	4.1039	0.7616	7.93	1.94	0.750			
0.1669	10679.07	4.1010	4.1010	0.7603	7.92	1.93	0.750			
0.1691	10825.17	4.0980	4.0980	0.7634	7.92	1.93	0.750			
0.1714	10971.47	4.0950	4.0949	0.7728	7.91	1.92	0.750			
0.1738	11120.19	4.0920	4.0920	0.7778	7.90	1.91	0.750			
0.1761	11271.94	4.0890	4.0889	0.7777	7.90	1.91	0.750			
0.1785	11421.14	4.0860	4.0860	0.7858	7.89	1.90	0.750			
0.1808	11574.17	4.0830	4.0831	0.7923	7.88	1.89	0.750			
0.1832	11726.21	4.0800	4.0799	0.7991	7.87	1.88	0.750			
0.1856	11879.74	4.0770	4.0771	0.8002	7.87	1.88	0.750			
0.1880	12032.69	4.0740	4.0741	0.7965	7.86	1.87	0.750			
0.1904	12186.51	4.0710	4.0709	0.8030	7.86	1.87	0.750			
0.1929	12342.83	4.0680	4.0680	0.8087	7.86	1.87	0.750			
0.1953	12497.19	4.0650	4.0651	0.8061	7.85	1.86	0.750			
0.1977	12652.43	4.0620	4.0619	0.8059	7.85	1.86	0.750			
0.2001	12808.69	4.0590	4.0590	0.8005	7.84	1.85	0.750			
0.2025	12962.24	4.0560	4.0562	0.8073	7.84	1.85	0.750			
0.2049	13114.38	4.0530	4.0529	0.8132	7.83	1.84	0.750			
0.2073	13267.86	4.0500	4.0500	0.8253	7.82	1.83	0.750			
0.2098	13427.34	4.0470	4.0471	0.8297	7.82	1.83	0.750			
0.2123	13588.90	4.0440	4.0440	0.8409	7.81	1.82	0.750			
0.2149	13755.27	4.0410	4.0410	0.8527	7.81	1.82	0.750			
0.2175	13920.56	4.0380	4.0381	0.8560	7.80	1.81	0.750			
0.2201	14084.77	4.0350	4.0350	0.8529	7.79	1.80	0.750			
0.2226	14248.03	4.0320	4.0319	0.8541	7.79	1.80	0.750			
0.2252	14410.82	4.0290	4.0290	0.8505	7.78	1.79	0.750			
0.2277	14575.88	4.0260	4.0260	0.8617	7.77	1.78	0.750			
0.2303	14741.32	4.0230	4.0231	0.8606	7.76	1.77	0.750			
0.2329	14906.68	4.0200	4.0199	0.8608	7.75	1.76	0.750			
0.2355	15072.16	4.0170	4.0170	0.8613	7.75	1.76	0.750			
0.2381	15239.76	4.0140	4.0140	0.8537	7.74	1.75	0.750			
0.2406	15400.19	4.0110	4.0110	0.8603	7.73	1.74	0.750			
0.2432	15564.78	4.0080	4.0080	0.8688	7.73	1.74	0.750			
0.2458	15729.24	4.0050	4.0050	0.8767	7.72	1.73	0.750			
0.2484	15899.64	4.0020	4.0021	0.8955	7.71	1.72	0.750			
0.2512	16074.66	3.9990	3.9991	0.8985	7.71	1.72	0.750			
0.2539	16249.99	3.9960	3.9959	0.9021	7.70	1.71	0.750			
0.2567	16428.06	3.9930	3.9931	0.9028	7.69	1.70	0.750			
0.2593	16596.85	3.9900	3.9898	0.8906	7.68	1.69	0.750			
0.2620	16768.78	3.9870	3.9870	0.8780	7.67	1.68	0.750			
0.2646	16932.36	3.9840	3.9840	0.8854	7.67	1.68	0.750			
0.2672	17097.66	3.9810	3.9811	0.8943	7.66	1.67	0.750			
0.2699	17271.71	3.9780	3.9779	0.9104	7.65	1.66	0.750			
0.2726	17446.75	3.9750	3.9749	0.9222	7.65	1.66	0.750			
0.2754	17626.68	3.9720	3.9722	0.9321	7.64	1.65	0.750			
0.2783	17810.01	3.9690	3.9690	0.9396	7.63	1.64	0.750			
0.2812	17993.99	3.9660	3.9660	0.9405	7.63	1.64	0.750			
0.2839	18170.87	3.9630	3.9629	0.9351	7.62	1.63	0.750			
0.2867	18350.45	3.9600	3.9600	0.9288	7.61	1.62	0.750			
0.2895	18528.10	3.9570	3.9570	0.9426	7.60	1.61	0.750			
0.2923	18706.23	3.9540	3.9541	0.9597	7.59	1.60	0.750			
0.2952	18890.19	3.9510	3.9510	0.9744	7.58	1.59	0.750			
0.2982	19084.11	3.9480	3.9481	0.9833	7.58	1.59	0.750			
0.3012	19277.01	3.9450	3.9450	0.9923	7.57	1.58	0.750			
0.3042	19467.89	3.9420	3.9422	0.9924	7.56	1.57	0.750			
0.3072	19660.38	3.9390	3.9391	0.9946	7.55	1.56	0.750			
0.3101	19848.94	3.9360	3.9360	0.9822	7.54	1.55	0.750			
0.3130	20035.13	3.9330	3.9330	0.9818	7.53	1.54	0.750			
0.3159	20220.19	3.9300	3.9301	0.9929	7.52	1.53	0.750			
0.3189	20412.55	3.9270	3.9271	1.0087	7.52	1.53	0.750			
0.3220	20608.32	3.9240	3.9238	1.0186	7.51	1.52	0.750			
0.3250	20803.16	3.9210	3.9211	1.0369	7.50	1.51	0.750			
0.3282	21005.62	3.9180	3.9181	1.0519	7.49	1.50	0.750			
0.3314	21210.18	3.9150	3.9150	1.0708	7.48	1.49	0.750			
0.3347	21417.83	3.9120	3.9119	1.0729	7.47	1.48	0.750			
0.3379	21624.45	3.9090	3.9089	1.0819	7.46	1.47	0.750			
0.3411	21833.48	3.9060	3.9061	1.0950	7.45	1.46	0.750			
0.3445	22045.57	3.9030	3.9029	1.1006	7.44	1.45	0.750			
0.3478	22257.02	3.9000	3.9000	1.0974	7.43	1.44	0.750			
0.3511	22468.59	3.8970	3.8970	1.1162	7.42	1.43	0.750			
0.3544	22681.33	3.8940	3.8941	1.1263	7.41	1.42	0.750			
0.3578	22899.71	3.8910	3.8908	1.1438	7.39	1.40	0.750			
0.3612	23118.79	3.8880	3.8881	1.1534	7.38	1.39	0.750			
0.3647	23340.09	3.8850	3.8850	1.1755	7.37	1.38	0.750			
0.3683	23570.05	3.8820	3.8821	1.1944	7.35	1.36	0.750			
0.3719	23803.15	3.8790	3.8788	1.2001	7.34	1.35	0.750			
0.3755	24033.28	3.8760	3.8761	1.2279	7.33	1.34	0.750			
0.3792	24270.67	3.8730	3.8731	1.2586	7.32	1.33	0.750			
0.3831	24516.48	3.8700	3.8698	1.2628	7.31	1.32	0.750			
0.3869	24759.42	3.8670	3.8671	1.2917	7.30	1.31	0.750			
0.3908	25008.18	3.8640	3.8641	1.3041	7.29	1.30	0.750			
0.3947	25263.97	3.8610	3.8612	1.3198	7.28	1.29	0.750	0.388	0.909	
0.3987	25518.35	3.8580	3.8582	1.3436	7.26	1.27	0.750			
0.4027	25772.70	3.8550	3.8551	1.3616	7.25	1.26	0.750			
0.4069	26041.46	3.8520	3.8519	1.3745	7.24	1.25	0.750			
0.4110	26304.77	3.8490	3.8490	1.3918	7.22	1.23	0.750			
0.4152	26571.04	3.8460	3.8462	1.4264	7.20	1.21	0.750			
0.4195	26849.59	3.8430	3.8432	1.4570	7.18	1.19	0.750			
0.4240	27133.30	3.8400	3.8400	1.4862	7.16	1.17	0.750			
0.4284	27416.23	3.8370	3.8370	1.5163	7.15	1.16	0.750			
0.4331	27716.95	3.8340	3.8340	1.5292	7.13	1.14	0.750			
0.4377	28014.13	3.8310	3.8311	1.5719	7.12	1.13	0.750			
0.4424	28311.45	3.8280	3.8281	1.5859	7.10	1.11	0.750			
0.4472	28619.07	3.8250	3.8250	1.6091	7.08	1.09	0.750			
0.4521	28933.02	3.8220	3.8219	1.6388	7.06	1.07	0.750			
0.4570	29250.66	3.8190	3.8192	1.6774	7.05	1.06	0.750			
0.4621	29572.62	3.8160	3.8162	1.7231	7.03	1.04	0.750			
0.4674	29916.26	3.8130	3.8129	1.7440	7.01	1.02	0.750			
0.4727	30250.38	3.8100	3.8099	1.7692	6.99	1.00	0.750			
0.4780	30594.20	3.8070	3.8069	1.8110	6.96	0.97	0.750			
0.4836	30952.20	3.8040	3.8040	1.8367	6.94	0.95	0.750			
0.4891	31302.08	3.8010	3.8011	1.8589	6.92	0.93	0.750			
0.4947	31660.94	3.7980	3.7982	1.8553	6.90	0.91	0.750			
0.5002	32014.39	3.7950	3.7953	1.8704	6.88	0.89	0.750			
0.5058	32373.55	3.7920	3.7923	1.8976	6.85	0.86	0.750			
0.5116	32740.01	3.7890	3.7890	1.9344	6.83	0.84	0.750			
0.5174	33114.13	3.7860	3.7860	1.9798	6.80	0.81	0.750			
0.5235	33504.17	3.7830	3.7831	2.0379	6.77	0.78	0.750			
0.5298	33907.27	3.7800	3.7800	2.0979	6.75	0.76	0.750			
0.5361	34313.25	3.7770	3.7771	2.1464	6.73	0.74	0.750			
0.5427	34729.81	3.7740	3.7740	2.1937	6.71	0.72	0.750			
0.5493	35158.22	3.7710	3.7710	2.2348	6.68	0.69	0.750			
0.5561	35593.60	3.7680	3.7680	2.2402	6.65	0.66	0.750			
0.5630	36030.52	3.7650	3.7652	2.2596	6.62	0.63	0.750			
0.5696	36457.50	3.7620	3.7621	2.3161	6.59	0.60	0.750			
0.5766	36902.32	3.7590	3.7588	2.3763	6.56	0.57	0.750			
0.5838	37363.26	3.7560	3.7561	2.3900	6.53	0.54	0.750			
0.5911	37828.40	3.7530	3.7531	2.5191	6.51	0.52	0.750			
0.5987	38318.03	3.7500	3.7497	2.6652	6.48	0.49	0.750			
0.6068	38835.87	3.7470	3.7472	2.7877	6.45	0.46	0.750			
0.6157	39404.56	3.7440	3.7443	2.9120	6.41	0.42	0.750			
0.6243	39954.85	3.7410	3.7410	2.9960	6.38	0.39	0.750			
0.6334	40540.55	3.7380	3.7380	3.1167	6.34	0.35	0.750			
0.6434	41176.01	3.7350	3.7349	3.1765	6.31	0.32	0.750			
0.6528	41777.60	3.7320	3.7322	3.1103	6.28	0.29	0.750			
0.6623	42388.13	3.7290	3.7289	2.9604	6.24	0.25	0.750			
0.6709	42938.46	3.7260	3.7260	2.7192	6.21	0.22	0.750			
0.6786	43428.83	3.7230	3.7227	2.4184	6.19	0.20	0.750			
0.6852	43855.25	3.7200	3.7201	2.1286	6.18	0.19	0.750			
0.6912	44233.89	3.7170	3.7169	1.8933	6.17	0.18	0.750			
0.6965	44575.06	3.7140	3.7140	1.6888	6.16	0.17	0.750			
0.7013	44880.32	3.7110	3.7110	1.5261	6.15	0.16	0.750			
0.7054	45142.41	3.7080	3.7080	1.3761	6.14	0.15	0.750			
0.7092	45385.72	3.7050	3.7050	1.2689	6.13	0.14	0.750			
0.7128	45616.64	3.7020	3.7019	1.1936	6.12	0.13	0.750			
0.7161	45832.56	3.6990	3.6991	1.1501	6.11	0.12	0.750			
0.7195	46047.96	3.6960	3.6961	1.1206	6.10	0.11	0.750			
0.7229	46262.91	3.6930	3.6928	1.0898	6.09	0.10	0.750			
0.7261	46467.76	3.6900	3.6899	1.0631	6.08	0.09	0.750			
0.7292	46668.36	3.6870	3.6872	1.0375	6.07	0.08	0.750			
0.7323	46866.74	3.6840	3.6840	1.0201	6.06	0.07	0.750			
0.7353	47059.66	3.6810	3.6810	0.9983	6.06	0.07	0.750			
0.7382	47247.34	3.6780	3.6780	0.9771	6.05	0.06	0.750			
0.7411	47433.32	3.6750	3.6750	0.9577	6.04	0.05	0.750			
0.7440	47616.66	3.6720	3.6720	0.9431	6.04	0.05	0.750			
0.7468	47795.11	3.6690	3.6688	0.9237	6.03	0.04	0.750			
0.7496	47972.65	3.6660	3.6660	0.9046	6.03	0.04	0.750			
0.7522	48142.47	3.6630	3.6630	0.8909	6.02	0.03	0.750			
0.7549	48310.42	3.6600	3.6600	0.8784	6.02	0.03	0.750			
0.7575	48477.92	3.6570	3.6571	0.8744	6.01	0.02	0.750			
0.7600	48642.34	3.6540	3.6539	0.8796	6.01	0.02	0.750			
0.7627	48809.92	3.6510	3.6510	0.8819	6.00	0.01	0.750			
0.7653	48979.53	3.6480	3.6480	0.8914	6.00	0.01	0.750			
0.7680	49153.54	3.6450	3.6451	0.8990	6.00	0.01	0.750			
0.7708	49329.47	3.6420	3.6420	0.8991	5.99	0.00	0.750			
0.7736	49509.04	3.6390	3.6389	0.8826	5.99	0.00	0.750			
0.7763	49680.51	3.6360	3.6360	0.8427	5.99	0.00	0.750			
0.7788	49843.03	3.6330	3.6331	0.7777	5.99	0.00	0.750			
0.7812	49995.42	3.6300	3.6301	0.7002	5.99	0.00	0.750			
0.7832	50122.45	3.6270	3.6270	0.6019	5.99	0.00	0.750			
0.7848	50227.15	3.6240	3.6240	0.4989	5.99	0.00	0.750			
0.7860	50301.99	3.6210	3.6213	0.4138	5.99	0.00	0.750			
0.7871	50372.81	3.6180	3.6181	0.3367	5.99	0.00	0.750			
0.7879	50426.45	3.6150	3.6148	0.2600	5.99	0.00	0.750			
0.7885	50465.57	3.6120	3.6114	0.1922	5.99	0.00	0.750			
0.7890	50493.22	3.6090	3.6062	0.1353	5.99	0.00	0.750			
0.7892	50506.10	3.5940	3.5557	-0.0922	5.99	0.00	0.750			
0.7892	50509.28	3.6060	3.5175	0.0839	5.99	0.00	0.750			
0.7894	50519.58	3.5970	3.3938	-0.0482	5.99	0.00	0.750			
0.7894	50521.17	3.6030	3.3747	0.0399	5.99	0.00	0.750			
0.7894	50524.60	3.6000	3.3335	-0.0041	5.99	0.00	0.750			
