Ah_balance (normalized)	Ah_balance (mAh)	Voltage - fit (V)	Voltage -  interpolate (V)	dQ/dV (1/V)	Temperature (°C)	Temperature - diff (°C)	Current (C)	R_DC 0ms (mOhm)	R_DC 50ms (mOhm)	R_DC 50 ms PEC (mOhm)
0.0968	6196.41	4.1960	4.1985	0.6232	8.24	2.25	0.750			
0.0993	6353.33	4.1930	4.1955	0.8050	8.23	2.24	0.750			
0.1018	6515.81	4.1900	4.1917	0.8284	8.22	2.23	0.750			
0.1043	6676.18	4.1870	4.1880	0.8061	8.21	2.22	0.750			
0.1070	6845.08	4.1840	4.1843	0.7898	8.21	2.22	0.750			
0.1092	6990.08	4.1810	4.1809	0.7050	8.20	2.21	0.750			
0.1114	7126.85	4.1780	4.1781	0.7090	8.19	2.20	0.750			
0.1135	7265.10	4.1750	4.1750	0.7052	8.19	2.20	0.750			
0.1156	7400.50	4.1720	4.1720	0.7027	8.18	2.19	0.750			
0.1177	7534.09	4.1690	4.1691	0.7003	8.18	2.19	0.750			
0.1198	7665.91	4.1660	4.1660	0.7104	8.17	2.18	0.750			
0.1219	7802.80	4.1630	4.1629	0.7164	8.17	2.18	0.750			
0.1241	7941.02	4.1600	4.1599	0.7195	8.16	2.17	0.750			
0.1263	8081.75	4.1570	4.1572	0.7259	8.16	2.17	0.750			
0.1285	8222.34	4.1540	4.1541	0.7344	8.15	2.16	0.750			
0.1307	8363.34	4.1510	4.1509	0.7405	8.15	2.16	0.750			
0.1329	8504.61	4.1480	4.1479	0.7411	8.14	2.15	0.750			
0.1351	8648.36	4.1450	4.1450	0.7369	8.14	2.15	0.750			
0.1374	8793.95	4.1420	4.1421	0.7392	8.13	2.14	0.750			
0.1396	8935.81	4.1390	4.1390	0.7323	8.12	2.13	0.750			
0.1418	9073.24	4.1360	4.1361	0.7326	8.11	2.12	0.750			
0.1439	9211.68	4.1330	4.1329	0.7252	8.11	2.12	0.750			
0.1461	9349.64	4.1300	4.1298	0.7299	8.10	2.11	0.750			
0.1483	9490.19	4.1270	4.1271	0.7342	8.10	2.11	0.750			
0.1505	9632.50	4.1240	4.1241	0.7439	8.09	2.10	0.750			
0.1528	9777.51	4.1210	4.1209	0.7524	8.08	2.09	0.750			
0.1550	9921.31	4.1180	4.1180	0.7549	8.08	2.09	0.750			
0.1573	10068.24	4.1150	4.1151	0.7589	8.07	2.08	0.750			
0.1596	10216.82	4.1120	4.1121	0.7651	8.07	2.08	0.750			
0.1619	10363.45	4.1090	4.1091	0.7603	8.06	2.07	0.750			
0.1642	10509.02	4.1060	4.1060	0.7632	8.05	2.06	0.750			
0.1665	10653.63	4.1030	4.1031	0.7634	8.05	2.06	0.750			
0.1687	10799.93	4.1000	4.0999	0.7665	8.04	2.05	0.750			
0.1711	10947.51	4.0970	4.0970	0.7710	8.03	2.04	0.750			
0.1734	11098.45	4.0940	4.0940	0.7738	8.02	2.03	0.750			
0.1758	11248.08	4.0910	4.0911	0.7670	8.02	2.03	0.750			
0.1780	11394.88	4.0880	4.0880	0.7778	8.01	2.02	0.750			
0.1804	11542.86	4.0850	4.0850	0.7797	8.01	2.02	0.750			
0.1827	11691.29	4.0820	4.0819	0.7816	8.00	2.01	0.750			
0.1850	11841.62	4.0790	4.0791	0.7914	8.00	2.01	0.750			
0.1874	11996.63	4.0760	4.0761	0.7986	7.99	2.00	0.750			
0.1899	12151.44	4.0730	4.0729	0.8080	7.98	1.99	0.750			
0.1923	12309.41	4.0700	4.0700	0.8107	7.97	1.98	0.750			
0.1947	12462.03	4.0670	4.0671	0.8069	7.97	1.98	0.750			
0.1972	12618.80	4.0640	4.0640	0.8117	7.96	1.97	0.750			
0.1996	12775.94	4.0610	4.0610	0.8091	7.95	1.96	0.750			
0.2020	12929.77	4.0580	4.0579	0.8087	7.95	1.96	0.750			
0.2044	13084.31	4.0550	4.0551	0.8131	7.94	1.95	0.750			
0.2069	13239.35	4.0520	4.0521	0.8194	7.93	1.94	0.750			
0.2094	13399.57	4.0490	4.0489	0.8264	7.93	1.94	0.750			
0.2119	13559.76	4.0460	4.0459	0.8240	7.92	1.93	0.750			
0.2143	13717.31	4.0430	4.0432	0.8331	7.91	1.92	0.750			
0.2168	13877.39	4.0400	4.0400	0.8407	7.90	1.91	0.750			
0.2194	14039.71	4.0370	4.0369	0.8416	7.90	1.91	0.750			
0.2219	14200.87	4.0340	4.0340	0.8428	7.89	1.90	0.750			
0.2244	14364.25	4.0310	4.0311	0.8406	7.88	1.89	0.750			
0.2270	14528.06	4.0280	4.0281	0.8503	7.87	1.88	0.750			
0.2295	14690.04	4.0250	4.0250	0.8556	7.86	1.87	0.750			
0.2321	14853.02	4.0220	4.0219	0.8515	7.86	1.87	0.750			
0.2346	15015.66	4.0190	4.0191	0.8607	7.85	1.86	0.750			
0.2372	15183.29	4.0160	4.0162	0.8693	7.84	1.85	0.750			
0.2399	15351.98	4.0130	4.0130	0.8787	7.84	1.85	0.750			
0.2425	15522.66	4.0100	4.0100	0.8825	7.83	1.84	0.750			
0.2452	15690.92	4.0070	4.0070	0.8810	7.82	1.83	0.750			
0.2478	15861.01	4.0040	4.0040	0.8860	7.82	1.83	0.750			
0.2505	16032.73	4.0010	4.0011	0.8880	7.81	1.82	0.750			
0.2531	16201.20	3.9980	3.9981	0.8866	7.80	1.81	0.750			
0.2558	16371.74	3.9950	3.9950	0.8916	7.79	1.80	0.750			
0.2585	16541.67	3.9920	3.9917	0.8966	7.78	1.79	0.750			
0.2612	16716.80	3.9890	3.9892	0.8956	7.77	1.78	0.750			
0.2639	16888.50	3.9860	3.9860	0.8987	7.77	1.78	0.750			
0.2666	17063.49	3.9830	3.9830	0.9033	7.76	1.77	0.750			
0.2693	17236.50	3.9800	3.9800	0.9099	7.75	1.76	0.750			
0.2720	17407.89	3.9770	3.9770	0.9101	7.75	1.76	0.750			
0.2747	17581.71	3.9740	3.9739	0.9261	7.74	1.75	0.750			
0.2775	17760.36	3.9710	3.9710	0.9378	7.73	1.74	0.750			
0.2804	17944.22	3.9680	3.9679	0.9522	7.71	1.72	0.750			
0.2833	18129.32	3.9650	3.9650	0.9513	7.70	1.71	0.750			
0.2862	18315.40	3.9620	3.9621	0.9600	7.69	1.70	0.750			
0.2890	18498.75	3.9590	3.9590	0.9635	7.69	1.70	0.750			
0.2919	18684.00	3.9560	3.9559	0.9607	7.68	1.69	0.750			
0.2948	18866.57	3.9530	3.9530	0.9577	7.67	1.68	0.750			
0.2977	19051.79	3.9500	3.9501	0.9591	7.66	1.67	0.750			
0.3006	19236.87	3.9470	3.9469	0.9653	7.65	1.66	0.750			
0.3035	19421.77	3.9440	3.9440	0.9747	7.64	1.65	0.750			
0.3063	19605.99	3.9410	3.9410	0.9830	7.63	1.64	0.750			
0.3093	19795.34	3.9380	3.9379	0.9964	7.62	1.63	0.750			
0.3123	19989.58	3.9350	3.9351	1.0186	7.61	1.62	0.750			
0.3154	20187.01	3.9320	3.9319	1.0324	7.60	1.61	0.750			
0.3186	20389.86	3.9290	3.9290	1.0334	7.60	1.61	0.750			
0.3218	20592.21	3.9260	3.9260	1.0255	7.59	1.60	0.750			
0.3248	20787.12	3.9230	3.9231	1.0211	7.58	1.59	0.750			
0.3278	20978.09	3.9200	3.9201	1.0288	7.56	1.57	0.750			
0.3309	21174.46	3.9170	3.9169	1.0406	7.55	1.56	0.750			
0.3340	21375.43	3.9140	3.9138	1.0499	7.54	1.55	0.750			
0.3371	21574.63	3.9110	3.9112	1.0813	7.53	1.54	0.750			
0.3404	21787.70	3.9080	3.9080	1.1065	7.52	1.53	0.750			
0.3439	22008.99	3.9050	3.9050	1.1206	7.51	1.52	0.750			
0.3473	22226.26	3.9020	3.9019	1.1105	7.50	1.51	0.750			
0.3505	22435.01	3.8990	3.8994	1.1283	7.49	1.50	0.750			
0.3540	22652.94	3.8960	3.8960	1.1403	7.48	1.49	0.750			
0.3574	22872.97	3.8930	3.8929	1.1520	7.46	1.47	0.750			
0.3608	23090.81	3.8900	3.8901	1.1613	7.45	1.46	0.750			
0.3644	23320.35	3.8870	3.8872	1.1874	7.44	1.45	0.750			
0.3680	23552.72	3.8840	3.8840	1.1964	7.43	1.44	0.750			
0.3716	23783.79	3.8810	3.8809	1.1939	7.42	1.43	0.750			
0.3752	24015.19	3.8780	3.8781	1.1965	7.40	1.41	0.750			
0.3787	24239.86	3.8750	3.8750	1.2282	7.39	1.40	0.750			
0.3824	24476.09	3.8720	3.8720	1.2535	7.38	1.39	0.750			
0.3862	24719.63	3.8690	3.8690	1.2870	7.36	1.37	0.750			
0.3901	24968.80	3.8660	3.8661	1.3215	7.35	1.36	0.750	0.396	0.860	
0.3942	25231.04	3.8630	3.8631	1.3268	7.34	1.35	0.750			
0.3983	25490.41	3.8600	3.8601	1.3525	7.32	1.33	0.750			
0.4024	25751.47	3.8570	3.8571	1.3789	7.30	1.31	0.750			
0.4065	26013.01	3.8540	3.8540	1.3720	7.28	1.29	0.750			
0.4106	26276.51	3.8510	3.8511	1.4093	7.26	1.27	0.750			
0.4148	26550.11	3.8480	3.8481	1.4352	7.25	1.26	0.750			
0.4193	26832.85	3.8450	3.8450	1.4477	7.23	1.24	0.750			
0.4237	27114.49	3.8420	3.8422	1.4722	7.21	1.22	0.750			
0.4281	27395.25	3.8390	3.8392	1.4918	7.20	1.21	0.750			
0.4325	27682.47	3.8360	3.8359	1.5279	7.18	1.19	0.750			
0.4372	27980.83	3.8330	3.8328	1.5628	7.16	1.17	0.750			
0.4419	28283.04	3.8300	3.8301	1.5857	7.14	1.15	0.750			
0.4468	28594.40	3.8270	3.8270	1.6201	7.12	1.13	0.750			
0.4518	28915.30	3.8240	3.8241	1.6373	7.10	1.11	0.750			
0.4567	29229.45	3.8210	3.8208	1.6608	7.08	1.09	0.750			
0.4617	29546.68	3.8180	3.8178	1.6607	7.06	1.07	0.750			
0.4666	29864.11	3.8150	3.8151	1.6829	7.04	1.05	0.750			
0.4717	30190.26	3.8120	3.8118	1.7166	7.02	1.03	0.750			
0.4769	30524.38	3.8090	3.8090	1.7486	6.99	1.00	0.750			
0.4823	30868.29	3.8060	3.8059	1.7646	6.96	0.97	0.750			
0.4877	31210.38	3.8030	3.8033	1.7987	6.93	0.94	0.750			
0.4930	31554.36	3.8000	3.8003	1.8328	6.91	0.92	0.750			
0.4986	31909.62	3.7970	3.7967	1.8793	6.88	0.89	0.750			
0.5043	32274.44	3.7940	3.7940	1.8873	6.86	0.87	0.750			
0.5101	32645.74	3.7910	3.7912	1.9306	6.83	0.84	0.750			
0.5161	33027.46	3.7880	3.7879	1.9533	6.81	0.82	0.750			
0.5218	33394.96	3.7850	3.7851	1.9882	6.79	0.80	0.750			
0.5278	33776.79	3.7820	3.7820	2.0066	6.76	0.77	0.750			
0.5339	34169.21	3.7790	3.7787	2.0294	6.73	0.74	0.750			
0.5400	34562.61	3.7760	3.7765	2.0769	6.70	0.71	0.750			
0.5462	34957.10	3.7730	3.7730	2.1401	6.67	0.68	0.750			
0.5528	35381.65	3.7700	3.7698	2.1556	6.64	0.65	0.750			
0.5592	35788.17	3.7670	3.7670	2.1587	6.62	0.63	0.750			
0.5659	36219.66	3.7640	3.7643	2.2598	6.59	0.60	0.750			
0.5727	36653.41	3.7610	3.7607	2.3168	6.56	0.57	0.750			
0.5796	37091.47	3.7580	3.7583	2.3959	6.54	0.55	0.750			
0.5871	37576.21	3.7550	3.7548	2.5102	6.50	0.51	0.750			
0.5947	38063.43	3.7520	3.7519	2.6047	6.47	0.48	0.750			
0.6027	38573.41	3.7490	3.7489	2.7456	6.43	0.44	0.750			
0.6111	39109.03	3.7460	3.7460	2.8956	6.40	0.41	0.750			
0.6201	39683.57	3.7430	3.7429	2.9866	6.36	0.37	0.750			
0.6290	40256.32	3.7400	3.7402	3.0298	6.34	0.35	0.750			
0.6383	40852.24	3.7370	3.7370	3.0431	6.31	0.32	0.750			
0.6474	41434.46	3.7340	3.7341	2.9486	6.28	0.29	0.750			
0.6564	42008.43	3.7310	3.7309	2.8598	6.25	0.26	0.750			
0.6648	42548.95	3.7280	3.7279	2.6239	6.22	0.23	0.750			
0.6723	43030.30	3.7250	3.7252	2.3497	6.19	0.20	0.750			
0.6787	43438.34	3.7220	3.7219	2.0372	6.18	0.19	0.750			
0.6841	43785.45	3.7190	3.7191	1.7721	6.17	0.18	0.750			
0.6889	44087.91	3.7160	3.7158	1.5610	6.15	0.16	0.750			
0.6932	44363.97	3.7130	3.7130	1.4219	6.14	0.15	0.750			
0.6971	44614.45	3.7100	3.7099	1.2926	6.13	0.14	0.750			
0.7007	44847.80	3.7070	3.7071	1.2208	6.12	0.13	0.750			
0.7042	45066.05	3.7040	3.7040	1.1592	6.11	0.12	0.750			
0.7076	45284.00	3.7010	3.7009	1.1253	6.10	0.11	0.750			
0.7108	45493.70	3.6980	3.6980	1.0857	6.10	0.11	0.750			
0.7140	45698.56	3.6950	3.6951	1.0665	6.09	0.10	0.750			
0.7172	45902.91	3.6920	3.6921	1.0515	6.08	0.09	0.750			
0.7204	46103.40	3.6890	3.6889	1.0339	6.07	0.08	0.750			
0.7234	46299.52	3.6860	3.6859	1.0030	6.06	0.07	0.750			
0.7264	46487.83	3.6830	3.6831	0.9882	6.06	0.07	0.750			
0.7293	46676.68	3.6800	3.6801	0.9729	6.05	0.06	0.750			
0.7322	46863.97	3.6770	3.6770	0.9507	6.04	0.05	0.750			
0.7351	47044.05	3.6740	3.6739	0.9286	6.04	0.05	0.750			
0.7378	47217.37	3.6710	3.6712	0.9141	6.03	0.04	0.750			
0.7405	47391.83	3.6680	3.6680	0.9015	6.03	0.04	0.750			
0.7432	47564.74	3.6650	3.6649	0.8953	6.02	0.03	0.750			
0.7458	47732.18	3.6620	3.6619	0.8819	6.02	0.03	0.750			
0.7485	47902.51	3.6590	3.6592	0.8788	6.02	0.03	0.750			
0.7511	48070.79	3.6560	3.6560	0.8791	6.01	0.02	0.750			
0.7537	48237.68	3.6530	3.6529	0.8758	6.01	0.02	0.750			
0.7563	48404.70	3.6500	3.6500	0.8740	6.00	0.01	0.750			
0.7590	48574.44	3.6470	3.6469	0.8712	6.00	0.01	0.750			
0.7616	48742.86	3.6440	3.6439	0.8560	6.00	0.01	0.750			
0.7643	48913.32	3.6410	3.6410	0.8233	6.00	0.01	0.750			
0.7668	49072.96	3.6380	3.6381	0.7678	5.99	0.00	0.750			
0.7691	49219.67	3.6350	3.6350	0.6910	5.99	0.00	0.750			
0.7711	49347.73	3.6320	3.6319	0.6010	5.99	0.00	0.750			
0.7727	49453.74	3.6290	3.6291	0.5028	5.99	-0.00	0.750			
0.7739	49530.36	3.6260	3.6263	0.4325	5.99	-0.00	0.750			
0.7750	49603.18	3.6230	3.6232	0.3470	5.99	-0.00	0.750			
0.7760	49661.15	3.6200	3.6197	0.2784	5.99	-0.00	0.750			
0.7766	49701.66	3.6170	3.6157	0.2075	5.99	-0.00	0.750			
0.7770	49728.12	3.6140	3.6036	0.1450	5.99	-0.00	0.750			
0.7771	49733.41	3.5960	3.5627	-0.1300	5.99	-0.00	0.751			
0.7773	49749.10	3.6110	3.3644	0.0973	5.99	-0.00	0.762			
0.7774	49754.00	3.5990	3.3025	-0.0845	5.99	-0.00	0.765			
0.7776	49763.41	3.6080	3.1835	0.0518	5.98	-0.01	0.772			
0.7776	49765.86	3.6020	3.1525	-0.0391	5.98	-0.01	0.774			
0.7776	49769.00	3.6050	3.1129	0.0064	5.98	-0.01	0.776			
