Ah_balance (normalized)	Ah_balance (mAh)	Voltage - fit (V)	Voltage -  interpolate (V)	dQ/dV (1/V)	Temperature (°C)	Temperature - diff (°C)	Current (C)	R_DC 0ms (mOhm)	R_DC 50ms (mOhm)	R_DC 50 ms PEC (mOhm)
0.0916	5860.89	4.1970	4.1992	1.0280	8.36	2.33	0.750			
0.0944	6044.39	4.1940	4.1952	0.9152	8.36	2.33	0.750			
0.0970	6210.83	4.1910	4.1914	0.8420	8.35	2.32	0.750			
0.0994	6362.44	4.1880	4.1878	0.7956	8.35	2.32	0.750			
0.1015	6497.77	4.1850	4.1850	0.7204	8.35	2.32	0.750			
0.1037	6639.64	4.1820	4.1820	0.7245	8.34	2.31	0.750			
0.1059	6779.52	4.1790	4.1791	0.7343	8.34	2.31	0.750			
0.1081	6920.78	4.1760	4.1760	0.7362	8.34	2.31	0.750			
0.1104	7064.01	4.1730	4.1729	0.7344	8.33	2.30	0.750			
0.1126	7205.70	4.1700	4.1700	0.7344	8.33	2.30	0.750			
0.1148	7345.13	4.1670	4.1671	0.7363	8.32	2.29	0.750			
0.1170	7487.24	4.1640	4.1641	0.7319	8.32	2.29	0.750			
0.1192	7628.30	4.1610	4.1608	0.7318	8.31	2.28	0.750			
0.1213	7765.59	4.1580	4.1580	0.7318	8.31	2.28	0.750			
0.1236	7907.47	4.1550	4.1551	0.7345	8.30	2.27	0.750			
0.1258	8049.03	4.1520	4.1519	0.7385	8.30	2.27	0.750			
0.1280	8190.78	4.1490	4.1490	0.7427	8.29	2.26	0.750			
0.1302	8333.17	4.1460	4.1461	0.7483	8.29	2.26	0.750			
0.1325	8478.57	4.1430	4.1429	0.7595	8.28	2.25	0.750			
0.1348	8624.73	4.1400	4.1400	0.7575	8.27	2.24	0.750			
0.1370	8769.97	4.1370	4.1370	0.7566	8.27	2.24	0.750			
0.1393	8916.90	4.1340	4.1341	0.7621	8.26	2.23	0.750			
0.1416	9063.55	4.1310	4.1309	0.7623	8.26	2.23	0.750			
0.1439	9209.12	4.1280	4.1280	0.7628	8.25	2.22	0.750			
0.1462	9355.29	4.1250	4.1251	0.7645	8.25	2.22	0.750			
0.1484	9500.71	4.1220	4.1219	0.7707	8.24	2.21	0.750			
0.1508	9650.43	4.1190	4.1190	0.7786	8.24	2.21	0.750			
0.1532	9801.94	4.1160	4.1160	0.7776	8.23	2.20	0.750			
0.1555	9950.27	4.1130	4.1129	0.7823	8.22	2.19	0.750			
0.1578	10101.25	4.1100	4.1102	0.7932	8.21	2.18	0.750			
0.1602	10254.66	4.1070	4.1071	0.7976	8.21	2.18	0.750			
0.1627	10409.86	4.1040	4.1038	0.7931	8.20	2.17	0.750			
0.1650	10561.36	4.1010	4.1012	0.7924	8.19	2.16	0.750			
0.1674	10714.23	4.0980	4.0981	0.7868	8.19	2.16	0.750			
0.1697	10862.21	4.0950	4.0950	0.7934	8.18	2.15	0.750			
0.1721	11011.86	4.0920	4.0920	0.7918	8.18	2.15	0.750			
0.1744	11164.20	4.0890	4.0887	0.8015	8.17	2.14	0.750			
0.1769	11320.53	4.0860	4.0860	0.8120	8.16	2.13	0.750			
0.1794	11479.80	4.0830	4.0831	0.8112	8.16	2.13	0.750			
0.1818	11636.85	4.0800	4.0801	0.8125	8.15	2.12	0.750			
0.1843	11792.43	4.0770	4.0770	0.8083	8.15	2.12	0.750			
0.1866	11945.19	4.0740	4.0738	0.8153	8.14	2.11	0.750			
0.1891	12100.91	4.0710	4.0709	0.8190	8.13	2.10	0.750			
0.1915	12258.44	4.0680	4.0680	0.8216	8.12	2.09	0.750			
0.1940	12418.61	4.0650	4.0651	0.8327	8.12	2.09	0.750			
0.1966	12579.24	4.0620	4.0621	0.8390	8.11	2.08	0.750			
0.1991	12741.50	4.0590	4.0588	0.8389	8.10	2.07	0.750			
0.2016	12902.56	4.0560	4.0560	0.8368	8.09	2.06	0.750			
0.2041	13062.38	4.0530	4.0531	0.8337	8.09	2.06	0.750			
0.2066	13224.31	4.0500	4.0499	0.8378	8.08	2.05	0.750			
0.2091	13382.19	4.0470	4.0471	0.8406	8.08	2.05	0.750			
0.2116	13543.20	4.0440	4.0439	0.8502	8.07	2.04	0.750			
0.2141	13705.29	4.0410	4.0409	0.8627	8.06	2.03	0.750			
0.2168	13875.12	4.0380	4.0380	0.8632	8.05	2.02	0.750			
0.2194	14044.29	4.0350	4.0350	0.8643	8.05	2.02	0.750			
0.2220	14208.78	4.0320	4.0322	0.8636	8.04	2.01	0.750			
0.2246	14374.98	4.0290	4.0289	0.8616	8.03	2.00	0.750			
0.2271	14536.31	4.0260	4.0260	0.8648	8.02	1.99	0.750			
0.2297	14702.92	4.0230	4.0229	0.8737	8.01	1.98	0.750			
0.2324	14871.47	4.0200	4.0200	0.8775	8.00	1.97	0.750			
0.2351	15044.41	4.0170	4.0171	0.8837	8.00	1.97	0.750			
0.2377	15213.33	4.0140	4.0141	0.8902	7.99	1.96	0.750			
0.2404	15384.73	4.0110	4.0110	0.8867	7.98	1.95	0.750			
0.2430	15553.90	4.0080	4.0079	0.8894	7.97	1.94	0.750			
0.2457	15723.54	4.0050	4.0050	0.8884	7.96	1.93	0.750			
0.2484	15894.82	4.0020	4.0021	0.8917	7.95	1.92	0.750			
0.2510	16066.55	3.9990	3.9991	0.8961	7.94	1.91	0.750			
0.2538	16240.12	3.9960	3.9960	0.8914	7.94	1.91	0.750			
0.2564	16408.13	3.9930	3.9929	0.8989	7.93	1.90	0.750			
0.2591	16581.39	3.9900	3.9901	0.9067	7.92	1.89	0.750			
0.2618	16754.09	3.9870	3.9867	0.9141	7.91	1.88	0.750			
0.2646	16931.93	3.9840	3.9842	0.9215	7.90	1.87	0.750			
0.2673	17109.94	3.9810	3.9810	0.9332	7.89	1.86	0.750			
0.2702	17291.64	3.9780	3.9779	0.9390	7.88	1.85	0.750			
0.2730	17472.78	3.9750	3.9751	0.9377	7.87	1.84	0.750			
0.2758	17653.07	3.9720	3.9722	0.9297	7.87	1.84	0.750			
0.2786	17831.74	3.9690	3.9690	0.9368	7.86	1.83	0.750			
0.2814	18010.28	3.9660	3.9660	0.9369	7.85	1.82	0.750			
0.2842	18189.77	3.9630	3.9629	0.9371	7.84	1.81	0.750			
0.2870	18368.48	3.9600	3.9598	0.9371	7.83	1.80	0.750			
0.2898	18550.37	3.9570	3.9572	0.9470	7.82	1.79	0.750			
0.2927	18731.81	3.9540	3.9541	0.9554	7.81	1.78	0.750			
0.2956	18917.34	3.9510	3.9509	0.9669	7.80	1.77	0.750			
0.2984	19099.27	3.9480	3.9480	0.9721	7.79	1.76	0.750			
0.3014	19290.00	3.9450	3.9450	0.9832	7.78	1.75	0.750			
0.3044	19481.26	3.9420	3.9420	0.9943	7.77	1.74	0.750			
0.3074	19675.56	3.9390	3.9390	0.9990	7.76	1.73	0.750			
0.3104	19867.68	3.9360	3.9361	0.9982	7.75	1.72	0.750			
0.3134	20059.40	3.9330	3.9331	0.9939	7.74	1.71	0.750			
0.3163	20245.94	3.9300	3.9301	1.0020	7.73	1.70	0.750			
0.3193	20437.76	3.9270	3.9270	1.0108	7.72	1.69	0.750			
0.3224	20633.13	3.9240	3.9240	1.0248	7.71	1.68	0.750			
0.3255	20832.79	3.9210	3.9210	1.0309	7.70	1.67	0.750			
0.3286	21031.32	3.9180	3.9182	1.0412	7.68	1.65	0.750			
0.3317	21230.15	3.9150	3.9151	1.0649	7.67	1.64	0.750			
0.3349	21436.42	3.9120	3.9122	1.0818	7.66	1.63	0.750			
0.3382	21642.88	3.9090	3.9089	1.0920	7.65	1.62	0.750			
0.3415	21854.91	3.9060	3.9061	1.1130	7.64	1.61	0.750			
0.3449	22074.52	3.9030	3.9031	1.1243	7.62	1.59	0.750			
0.3483	22293.59	3.9000	3.8999	1.1284	7.61	1.58	0.750			
0.3517	22510.45	3.8970	3.8971	1.1241	7.60	1.57	0.750			
0.3551	22724.04	3.8940	3.8939	1.1229	7.59	1.56	0.750			
0.3584	22937.77	3.8910	3.8911	1.1348	7.57	1.54	0.750			
0.3618	23156.34	3.8880	3.8877	1.1439	7.56	1.53	0.750			
0.3652	23373.97	3.8850	3.8851	1.1689	7.55	1.52	0.750			
0.3688	23601.64	3.8820	3.8820	1.1959	7.53	1.50	0.750			
0.3724	23836.12	3.8790	3.8790	1.2164	7.52	1.49	0.750			
0.3761	24072.22	3.8760	3.8760	1.2264	7.50	1.47	0.750			
0.3799	24310.55	3.8730	3.8731	1.2441	7.49	1.46	0.750			
0.3836	24549.60	3.8700	3.8701	1.2570	7.47	1.44	0.750			
0.3873	24787.04	3.8670	3.8671	1.2844	7.46	1.43	0.750			
0.3911	25033.17	3.8640	3.8636	1.3064	7.45	1.42	0.750			
0.3951	25288.39	3.8610	3.8612	1.3327	7.43	1.40	0.750			
0.3992	25548.44	3.8580	3.8578	1.3580	7.42	1.39	0.750			
0.4034	25814.50	3.8550	3.8551	1.3911	7.40	1.37	0.750			
0.4076	26086.28	3.8520	3.8516	1.4025	7.38	1.35	0.750	0.412	0.948	
0.4118	26353.84	3.8490	3.8488	1.4110	7.36	1.33	0.750			
0.4160	26623.30	3.8460	3.8462	1.4103	7.35	1.32	0.750			
0.4203	26898.54	3.8430	3.8432	1.4454	7.33	1.30	0.750			
0.4246	27174.47	3.8400	3.8399	1.4682	7.32	1.29	0.750			
0.4290	27454.33	3.8370	3.8370	1.4975	7.30	1.27	0.750			
0.4335	27742.74	3.8340	3.8341	1.5337	7.28	1.25	0.750			
0.4382	28044.89	3.8310	3.8309	1.5888	7.26	1.23	0.750			
0.4431	28357.57	3.8280	3.8277	1.6354	7.24	1.21	0.750			
0.4481	28680.46	3.8250	3.8251	1.6801	7.22	1.19	0.750			
0.4532	29004.62	3.8220	3.8222	1.7107	7.20	1.17	0.750			
0.4584	29340.76	3.8190	3.8192	1.7250	7.17	1.14	0.750			
0.4636	29670.75	3.8160	3.8161	1.7410	7.14	1.11	0.750			
0.4689	30009.82	3.8130	3.8130	1.7640	7.12	1.09	0.750			
0.4741	30344.16	3.8100	3.8100	1.7988	7.10	1.07	0.750			
0.4795	30688.78	3.8070	3.8069	1.8543	7.08	1.05	0.750			
0.4851	31049.05	3.8040	3.8039	1.8892	7.06	1.03	0.750			
0.4909	31419.99	3.8010	3.8009	1.9388	7.03	1.00	0.750			
0.4970	31804.87	3.7980	3.7981	1.9778	7.01	0.98	0.750			
0.5029	32186.14	3.7950	3.7948	2.0195	6.98	0.95	0.750			
0.5090	32574.18	3.7920	3.7919	2.0970	6.95	0.92	0.750			
0.5153	32982.31	3.7890	3.7887	2.1227	6.92	0.89	0.750			
0.5220	33407.54	3.7860	3.7859	2.1444	6.89	0.86	0.750			
0.5284	33818.04	3.7830	3.7832	2.1822	6.87	0.84	0.750			
0.5350	34238.21	3.7800	3.7799	2.2497	6.85	0.82	0.750			
0.5416	34663.00	3.7770	3.7767	2.3057	6.82	0.79	0.750			
0.5487	35119.10	3.7740	3.7742	2.3102	6.79	0.76	0.750			
0.5558	35568.61	3.7710	3.7710	2.3465	6.76	0.73	0.750			
0.5627	36010.90	3.7680	3.7678	2.3661	6.73	0.70	0.750			
0.5697	36461.51	3.7650	3.7649	2.4007	6.70	0.67	0.750			
0.5770	36927.99	3.7620	3.7620	2.4775	6.67	0.64	0.750			
0.5846	37414.59	3.7590	3.7590	2.5603	6.64	0.61	0.750			
0.5924	37912.69	3.7560	3.7560	2.6449	6.61	0.58	0.750			
0.6005	38431.41	3.7530	3.7530	2.7424	6.58	0.55	0.750			
0.6090	38977.12	3.7500	3.7500	2.8142	6.54	0.51	0.750			
0.6175	39517.56	3.7470	3.7470	2.8316	6.52	0.49	0.750			
0.6260	40063.81	3.7440	3.7441	2.9159	6.49	0.46	0.750			
0.6348	40630.02	3.7410	3.7410	3.0133	6.44	0.41	0.750			
0.6440	41214.01	3.7380	3.7381	3.1922	6.41	0.38	0.750			
0.6540	41858.18	3.7350	3.7350	3.2941	6.38	0.35	0.750			
0.6644	42521.82	3.7320	3.7321	3.3896	6.34	0.31	0.750			
0.6744	43164.00	3.7290	3.7291	3.2778	6.31	0.28	0.750			
0.6841	43781.82	3.7260	3.7258	3.0525	6.28	0.25	0.750			
0.6930	44350.08	3.7230	3.7229	2.7717	6.25	0.22	0.750			
0.7008	44852.81	3.7200	3.7199	2.4686	6.23	0.20	0.750			
0.7076	45288.25	3.7170	3.7170	2.1956	6.21	0.18	0.750			
0.7138	45685.29	3.7140	3.7140	1.9805	6.20	0.17	0.750			
0.7194	46040.17	3.7110	3.7108	1.7710	6.18	0.15	0.750			
0.7244	46359.68	3.7080	3.7079	1.5842	6.17	0.14	0.750			
0.7287	46635.03	3.7050	3.7050	1.4179	6.16	0.13	0.750			
0.7325	46881.78	3.7020	3.7022	1.3067	6.15	0.12	0.750			
0.7362	47114.99	3.6990	3.6988	1.2174	6.14	0.11	0.750			
0.7396	47334.31	3.6960	3.6960	1.1546	6.14	0.11	0.750			
0.7430	47549.40	3.6930	3.6931	1.1286	6.14	0.11	0.750			
0.7463	47764.81	3.6900	3.6900	1.1055	6.13	0.10	0.750			
0.7497	47978.08	3.6870	3.6869	1.0899	6.13	0.10	0.750			
0.7528	48181.54	3.6840	3.6841	1.0606	6.12	0.09	0.750			
0.7560	48382.49	3.6810	3.6811	1.0436	6.11	0.08	0.750			
0.7591	48582.98	3.6780	3.6781	1.0222	6.10	0.07	0.750			
0.7621	48774.94	3.6750	3.6748	1.0054	6.09	0.06	0.750			
0.7651	48966.39	3.6720	3.6720	0.9818	6.08	0.05	0.750			
0.7680	49154.71	3.6690	3.6691	0.9702	6.08	0.05	0.750			
0.7709	49337.77	3.6660	3.6659	0.9513	6.07	0.04	0.750			
0.7738	49521.48	3.6630	3.6629	0.9356	6.06	0.03	0.750			
0.7766	49699.58	3.6600	3.6599	0.9142	6.06	0.03	0.750			
0.7793	49873.11	3.6570	3.6571	0.9030	6.06	0.03	0.750			
0.7819	50040.13	3.6540	3.6540	0.8941	6.06	0.03	0.750			
0.7846	50212.11	3.6510	3.6510	0.9050	6.06	0.03	0.750			
0.7872	50383.36	3.6480	3.6478	0.8966	6.06	0.03	0.750			
0.7899	50555.62	3.6450	3.6451	0.9081	6.05	0.02	0.750			
0.7927	50734.00	3.6420	3.6421	0.9159	6.05	0.02	0.750			
0.7955	50910.96	3.6390	3.6388	0.9192	6.04	0.01	0.750			
0.7983	51088.52	3.6360	3.6359	0.9105	6.03	0.00	0.750			
0.8010	51266.11	3.6330	3.6329	0.8905	6.03	0.00	0.750			
0.8038	51444.23	3.6300	3.6300	0.8416	6.03	0.00	0.750			
0.8064	51609.03	3.6270	3.6271	0.7726	6.03	0.00	0.750			
0.8087	51755.53	3.6240	3.6241	0.6864	6.03	0.00	0.750			
0.8106	51879.30	3.6210	3.6210	0.5870	6.03	0.00	0.750			
0.8122	51978.19	3.6180	3.6179	0.4794	6.03	0.00	0.750			
0.8133	52049.98	3.6150	3.6154	0.3985	6.03	0.00	0.750			
0.8143	52116.52	3.6120	3.6121	0.3140	6.03	0.00	0.750			
0.8151	52168.11	3.6090	3.6089	0.2441	6.03	0.00	0.750			
0.8157	52205.30	3.6060	3.6054	0.1780	6.03	0.00	0.750			
0.8161	52228.56	3.6030	3.6020	0.1180	6.03	0.00	0.750			
0.8163	52243.92	3.5910	3.5900	-0.0538	6.03	0.00	0.750			
0.8163	52244.03	3.6000	3.5895	0.0690	6.03	0.00	0.750			
0.8164	52249.11	3.5970	3.5462	0.0268	6.03	0.00	0.749			
0.8164	52250.38	3.5940	3.5343	-0.0135	6.03	0.00	0.749			
