Ah_balance (normalized)	Ah_balance (mAh)	Voltage - fit (V)	Voltage -  interpolate (V)	dQ/dV (1/V)	Temperature (°C)	Temperature - diff (°C)	Current (C)	R_DC 0ms (mOhm)	R_DC 50ms (mOhm)	R_DC 50 ms PEC (mOhm)
0.0000	0.00	4.0820	4.1345	0.0000	5.97	-0.02	-0.751			
0.0000	0.00	4.0850	4.1345	0.0000	5.97	-0.02	-0.751			
0.0000	0.00	4.0880	4.1345	0.0000	5.97	-0.02	-0.751			
0.0000	0.00	4.0910	4.1345	0.0000	5.97	-0.02	-0.751			
0.0001	8.16	4.0790	4.0828	-0.0559	5.97	-0.02	-0.750			
0.0004	23.30	4.0760	4.0762	-0.0782	5.97	-0.02	-0.750			
0.0006	40.31	4.0730	4.0729	-0.1025	5.97	-0.02	-0.750			
0.0010	62.29	4.0700	4.0700	-0.1265	5.98	-0.01	-0.750			
0.0014	88.93	4.0670	4.0671	-0.1484	5.98	-0.01	-0.750			
0.0019	119.56	4.0640	4.0640	-0.1695	5.98	-0.01	-0.750			
0.0024	155.06	4.0610	4.0610	-0.1940	5.98	-0.01	-0.750			
0.0030	194.74	4.0580	4.0581	-0.2161	5.98	-0.01	-0.750			
0.0037	237.77	4.0550	4.0549	-0.2401	5.98	-0.01	-0.750			
0.0045	286.05	4.0520	4.0520	-0.2651	5.98	-0.01	-0.750			
0.0053	338.89	4.0490	4.0491	-0.2894	5.98	-0.01	-0.750			
0.0062	397.20	4.0460	4.0459	-0.3133	5.98	-0.01	-0.750			
0.0072	460.27	4.0430	4.0431	-0.3365	5.99	-0.00	-0.750			
0.0082	527.44	4.0400	4.0400	-0.3581	5.99	-0.00	-0.750			
0.0094	598.80	4.0370	4.0370	-0.3789	5.99	-0.00	-0.750			
0.0105	672.89	4.0340	4.0340	-0.4020	5.99	0.00	-0.750			
0.0118	752.39	4.0310	4.0310	-0.4231	5.99	0.00	-0.750			
0.0131	836.57	4.0280	4.0279	-0.4429	5.99	0.00	-0.750			
0.0144	923.68	4.0250	4.0251	-0.4639	6.00	0.01	-0.750			
0.0159	1015.04	4.0220	4.0220	-0.4867	6.00	0.01	-0.750			
0.0174	1110.68	4.0190	4.0191	-0.5089	6.00	0.01	-0.750			
0.0189	1210.65	4.0160	4.0158	-0.5290	6.00	0.01	-0.750			
0.0205	1314.41	4.0130	4.0131	-0.5433	6.01	0.02	-0.750			
0.0222	1422.54	4.0100	4.0101	-0.5593	6.01	0.02	-0.750			
0.0239	1531.22	4.0070	4.0069	-0.5715	6.01	0.02	-0.750			
0.0256	1640.89	4.0040	4.0040	-0.5868	6.02	0.03	-0.750			
0.0274	1754.20	4.0010	4.0010	-0.6022	6.03	0.04	-0.750			
0.0292	1871.32	3.9980	3.9980	-0.6142	6.03	0.04	-0.750			
0.0311	1992.19	3.9950	3.9949	-0.6319	6.04	0.05	-0.750			
0.0331	2116.36	3.9920	3.9921	-0.6447	6.04	0.05	-0.750			
0.0351	2244.18	3.9890	3.9890	-0.6496	6.05	0.06	-0.750			
0.0370	2368.00	3.9860	3.9859	-0.6540	6.06	0.07	-0.750			
0.0389	2491.72	3.9830	3.9832	-0.6578	6.06	0.07	-0.750			
0.0409	2620.09	3.9800	3.9799	-0.6645	6.07	0.08	-0.750			
0.0429	2748.55	3.9770	3.9769	-0.6715	6.07	0.08	-0.750			
0.0450	2877.36	3.9740	3.9741	-0.6744	6.08	0.09	-0.750			
0.0470	3008.19	3.9710	3.9710	-0.6796	6.09	0.10	-0.750			
0.0491	3140.60	3.9680	3.9679	-0.6880	6.10	0.11	-0.750			
0.0511	3271.14	3.9650	3.9650	-0.6889	6.11	0.12	-0.750			
0.0532	3402.71	3.9620	3.9621	-0.6961	6.12	0.13	-0.750			
0.0553	3537.42	3.9590	3.9589	-0.7058	6.13	0.14	-0.750			
0.0574	3674.19	3.9560	3.9560	-0.7138	6.14	0.15	-0.750			
0.0596	3812.99	3.9530	3.9531	-0.7216	6.15	0.16	-0.750			
0.0618	3953.47	3.9500	3.9499	-0.7279	6.16	0.17	-0.750			
0.0640	4093.60	3.9470	3.9469	-0.7288	6.17	0.18	-0.750			
0.0661	4233.25	3.9440	3.9441	-0.7289	6.17	0.18	-0.750			
0.0683	4373.98	3.9410	3.9410	-0.7242	6.18	0.19	-0.750			
0.0705	4514.09	3.9380	3.9380	-0.7238	6.19	0.20	-0.750			
0.0727	4651.98	3.9350	3.9352	-0.7253	6.20	0.21	-0.750			
0.0748	4790.02	3.9320	3.9320	-0.7259	6.21	0.22	-0.750			
0.0770	4928.44	3.9290	3.9289	-0.7306	6.22	0.23	-0.750			
0.0792	5070.06	3.9260	3.9260	-0.7311	6.23	0.24	-0.750			
0.0814	5212.07	3.9230	3.9229	-0.7374	6.24	0.25	-0.750			
0.0837	5353.65	3.9200	3.9200	-0.7396	6.25	0.26	-0.750			
0.0859	5495.87	3.9170	3.9171	-0.7371	6.26	0.27	-0.750			
0.0881	5636.03	3.9140	3.9139	-0.7380	6.27	0.28	-0.750			
0.0903	5777.95	3.9110	3.9110	-0.7422	6.28	0.29	-0.750			
0.0925	5920.34	3.9080	3.9081	-0.7450	6.30	0.31	-0.750			
0.0948	6065.84	3.9050	3.9049	-0.7516	6.31	0.32	-0.750			
0.0971	6211.58	3.9020	3.9020	-0.7521	6.32	0.33	-0.750			
0.0993	6356.26	3.8990	3.8989	-0.7504	6.33	0.34	-0.750			
0.1016	6500.10	3.8960	3.8960	-0.7502	6.34	0.35	-0.750			
0.1038	6642.07	3.8930	3.8930	-0.7520	6.35	0.36	-0.750			
0.1060	6786.05	3.8900	3.8899	-0.7517	6.36	0.37	-0.750			
0.1083	6932.56	3.8870	3.8870	-0.7548	6.37	0.38	-0.750			
0.1106	7077.88	3.8840	3.8841	-0.7542	6.38	0.39	-0.750			
0.1129	7223.94	3.8810	3.8811	-0.7585	6.39	0.40	-0.750			
0.1152	7369.68	3.8780	3.8779	-0.7568	6.40	0.41	-0.750			
0.1174	7511.43	3.8750	3.8749	-0.7572	6.41	0.42	-0.750			
0.1197	7657.92	3.8720	3.8720	-0.7589	6.43	0.44	-0.750			
0.1219	7803.63	3.8690	3.8689	-0.7633	6.44	0.45	-0.750			
0.1242	7951.13	3.8660	3.8659	-0.7701	6.45	0.46	-0.750			
0.1266	8099.66	3.8630	3.8631	-0.7733	6.46	0.47	-0.750			
0.1289	8248.28	3.8600	3.8599	-0.7727	6.47	0.48	-0.750			
0.1312	8397.06	3.8570	3.8570	-0.7726	6.49	0.50	-0.750			
0.1335	8545.33	3.8540	3.8542	-0.7709	6.50	0.51	-0.750			
0.1359	8695.24	3.8510	3.8510	-0.7741	6.51	0.52	-0.750			
0.1382	8843.02	3.8480	3.8479	-0.7701	6.52	0.53	-0.750			
0.1405	8990.29	3.8450	3.8450	-0.7708	6.53	0.54	-0.750			
0.1428	9137.81	3.8420	3.8421	-0.7695	6.54	0.55	-0.750			
0.1451	9286.89	3.8390	3.8389	-0.7715	6.55	0.56	-0.750			
0.1474	9435.06	3.8360	3.8359	-0.7667	6.56	0.57	-0.750			
0.1497	9581.99	3.8330	3.8330	-0.7617	6.57	0.58	-0.750			
0.1520	9726.21	3.8300	3.8300	-0.7655	6.58	0.59	-0.750			
0.1543	9872.17	3.8270	3.8271	-0.7700	6.60	0.61	-0.750			
0.1566	10020.48	3.8240	3.8239	-0.7717	6.61	0.62	-0.750			
0.1589	10170.05	3.8210	3.8209	-0.7734	6.62	0.63	-0.750			
0.1612	10319.35	3.8180	3.8181	-0.7739	6.63	0.64	-0.750			
0.1636	10469.06	3.8150	3.8151	-0.7806	6.64	0.65	-0.750			
0.1659	10619.17	3.8120	3.8120	-0.7772	6.65	0.66	-0.750			
0.1682	10764.33	3.8090	3.8090	-0.7759	6.66	0.67	-0.750			
0.1706	10915.52	3.8060	3.8060	-0.7784	6.67	0.68	-0.750			
0.1729	11066.67	3.8030	3.8032	-0.7793	6.68	0.69	-0.750			
0.1753	11216.45	3.8000	3.8000	-0.7743	6.70	0.71	-0.750			
0.1776	11364.00	3.7970	3.7972	-0.7768	6.71	0.72	-0.750			
0.1799	11512.50	3.7940	3.7940	-0.7738	6.73	0.74	-0.750			
0.1822	11661.05	3.7910	3.7909	-0.7760	6.74	0.75	-0.750			
0.1845	11809.03	3.7880	3.7880	-0.7757	6.76	0.77	-0.750			
0.1869	11959.74	3.7850	3.7851	-0.7823	6.77	0.78	-0.750			
0.1892	12109.31	3.7820	3.7820	-0.7850	6.78	0.79	-0.750			
0.1916	12261.03	3.7790	3.7789	-0.7855	6.79	0.80	-0.750			
0.1939	12411.30	3.7760	3.7760	-0.7821	6.79	0.80	-0.750			
0.1963	12561.77	3.7730	3.7730	-0.7886	6.80	0.81	-0.750			
0.1986	12712.03	3.7700	3.7701	-0.7920	6.81	0.82	-0.750			
0.2010	12866.38	3.7670	3.7669	-0.7910	6.83	0.84	-0.750			
0.2034	13017.12	3.7640	3.7640	-0.7948	6.84	0.85	-0.750			
0.2058	13169.59	3.7610	3.7610	-0.7968	6.85	0.86	-0.750			
0.2082	13323.09	3.7580	3.7581	-0.8060	6.86	0.87	-0.750			
0.2106	13479.83	3.7550	3.7548	-0.8060	6.87	0.88	-0.750			
0.2130	13632.85	3.7520	3.7520	-0.8082	6.88	0.89	-0.750			
0.2155	13788.85	3.7490	3.7491	-0.8180	6.89	0.90	-0.750			
0.2180	13949.89	3.7460	3.7460	-0.8180	6.90	0.91	-0.750			
0.2204	14107.01	3.7430	3.7428	-0.8141	6.91	0.92	-0.750			
0.2229	14264.27	3.7400	3.7403	-0.8116	6.92	0.93	-0.750			
0.2253	14418.12	3.7370	3.7369	-0.8056	6.93	0.94	-0.750			
0.2277	14572.35	3.7340	3.7340	-0.8125	6.94	0.95	-0.750			
0.2301	14723.64	3.7310	3.7311	-0.8149	6.96	0.97	-0.750			
0.2325	14882.99	3.7280	3.7279	-0.8297	6.97	0.98	-0.750			
0.2351	15043.57	3.7250	3.7251	-0.8413	6.98	0.99	-0.750			
0.2376	15207.19	3.7220	3.7220	-0.8458	6.99	1.00	-0.750			
0.2402	15371.53	3.7190	3.7190	-0.8546	7.00	1.01	-0.750			
0.2428	15537.96	3.7160	3.7160	-0.8508	7.02	1.03	-0.750			
0.2453	15700.39	3.7130	3.7130	-0.8462	7.03	1.04	-0.750			
0.2478	15862.06	3.7100	3.7102	-0.8506	7.04	1.05	-0.750			
0.2504	16025.30	3.7070	3.7068	-0.8540	7.05	1.06	-0.750			
0.2529	16187.76	3.7040	3.7040	-0.8607	7.06	1.07	-0.750			
0.2555	16354.55	3.7010	3.7010	-0.8671	7.07	1.08	-0.750			
0.2582	16522.84	3.6980	3.6980	-0.8792	7.08	1.09	-0.750			
0.2608	16694.19	3.6950	3.6951	-0.8816	7.09	1.10	-0.750			
0.2635	16861.81	3.6920	3.6920	-0.8855	7.10	1.11	-0.750			
0.2661	17030.95	3.6890	3.6890	-0.8882	7.11	1.12	-0.750			
0.2688	17201.65	3.6860	3.6860	-0.8935	7.12	1.13	-0.750			
0.2715	17375.61	3.6830	3.6829	-0.9058	7.13	1.14	-0.750			
0.2742	17549.74	3.6800	3.6800	-0.9117	7.14	1.15	-0.750			
0.2770	17726.13	3.6770	3.6769	-0.9213	7.15	1.16	-0.750			
0.2798	17905.36	3.6740	3.6742	-0.9289	7.16	1.17	-0.750			
0.2826	18084.01	3.6710	3.6709	-0.9285	7.17	1.18	-0.750			
0.2854	18263.36	3.6680	3.6682	-0.9327	7.18	1.19	-0.750			
0.2882	18442.66	3.6650	3.6650	-0.9349	7.19	1.20	-0.750			
0.2910	18621.15	3.6620	3.6620	-0.9353	7.20	1.21	-0.750			
0.2938	18801.71	3.6590	3.6589	-0.9366	7.21	1.22	-0.750			
0.2966	18980.70	3.6560	3.6561	-0.9516	7.22	1.23	-0.750			
0.2994	19162.88	3.6530	3.6529	-0.9607	7.23	1.24	-0.750			
0.3023	19349.48	3.6500	3.6499	-0.9732	7.23	1.24	-0.750			
0.3053	19538.28	3.6470	3.6470	-0.9798	7.24	1.25	-0.750			
0.3082	19727.74	3.6440	3.6441	-0.9834	7.25	1.26	-0.750			
0.3112	19919.26	3.6410	3.6410	-0.9933	7.26	1.27	-0.750			
0.3142	20110.18	3.6380	3.6381	-0.9932	7.27	1.28	-0.750			
0.3172	20298.83	3.6350	3.6349	-0.9969	7.28	1.29	-0.750			
0.3201	20488.45	3.6320	3.6320	-1.0055	7.28	1.29	-0.750			
0.3232	20682.58	3.6290	3.6291	-1.0190	7.29	1.30	-0.750			
0.3263	20880.60	3.6260	3.6260	-1.0344	7.30	1.31	-0.750			
0.3294	21080.96	3.6230	3.6229	-1.0407	7.31	1.32	-0.750			
0.3325	21282.62	3.6200	3.6201	-1.0414	7.32	1.33	-0.750			
0.3357	21482.22	3.6170	3.6172	-1.0536	7.33	1.34	-0.750			
0.3388	21684.89	3.6140	3.6139	-1.0544	7.34	1.35	-0.750			
0.3420	21886.34	3.6110	3.6110	-1.0556	7.35	1.36	-0.750			
0.3451	22089.25	3.6080	3.6079	-1.0635	7.35	1.36	-0.750			
0.3483	22292.02	3.6050	3.6052	-1.0852	7.36	1.37	-0.750			
0.3516	22504.87	3.6020	3.6019	-1.0919	7.37	1.38	-0.750			
0.3550	22717.23	3.5990	3.5989	-1.1012	7.38	1.39	-0.750			
0.3583	22928.63	3.5960	3.5960	-1.1002	7.39	1.40	-0.750			
0.3616	23141.11	3.5930	3.5930	-1.1186	7.39	1.40	-0.750			
0.3649	23355.81	3.5900	3.5899	-1.1245	7.40	1.41	-0.750			
0.3683	23571.82	3.5870	3.5869	-1.1205	7.40	1.41	-0.750			
0.3717	23785.98	3.5840	3.5841	-1.1192	7.41	1.42	-0.750			
0.3751	24005.41	3.5810	3.5810	-1.1398	7.42	1.43	-0.750			
0.3785	24223.73	3.5780	3.5780	-1.1432	7.43	1.44	-0.750	0.387	0.799	
0.3819	24443.28	3.5750	3.5749	-1.1472	7.44	1.45	-0.750			
0.3853	24659.76	3.5720	3.5724	-1.1514	7.45	1.46	-0.750			
0.3888	24885.10	3.5690	3.5689	-1.1650	7.46	1.47	-0.750			
0.3923	25110.06	3.5660	3.5660	-1.1819	7.46	1.47	-0.750			
0.3959	25336.29	3.5630	3.5629	-1.1845	7.47	1.48	-0.750			
0.3995	25566.84	3.5600	3.5600	-1.2084	7.47	1.48	-0.750			
0.4031	25798.90	3.5570	3.5570	-1.2248	7.48	1.49	-0.750			
0.4068	26036.37	3.5540	3.5538	-1.2361	7.49	1.50	-0.750			
0.4106	26276.45	3.5510	3.5512	-1.2282	7.50	1.51	-0.750			
0.4143	26515.60	3.5480	3.5480	-1.2312	7.51	1.52	-0.750			
0.4180	26749.87	3.5450	3.5452	-1.2309	7.52	1.53	-0.750			
0.4217	26986.18	3.5420	3.5419	-1.2339	7.53	1.54	-0.750			
0.4253	27221.91	3.5390	3.5389	-1.2288	7.54	1.55	-0.750			
0.4290	27453.84	3.5360	3.5360	-1.2325	7.55	1.56	-0.750			
0.4327	27691.58	3.5330	3.5331	-1.2459	7.55	1.56	-0.750			
0.4364	27931.92	3.5300	3.5300	-1.2552	7.56	1.57	-0.750			
0.4402	28174.78	3.5270	3.5269	-1.2649	7.57	1.58	-0.750			
0.4440	28418.25	3.5240	3.5240	-1.2722	7.58	1.59	-0.750			
0.4479	28665.94	3.5210	3.5212	-1.2838	7.59	1.60	-0.750			
0.4518	28916.11	3.5180	3.5180	-1.2873	7.60	1.61	-0.750			
0.4556	29160.99	3.5150	3.5150	-1.2871	7.61	1.62	-0.750			
0.4595	29410.89	3.5120	3.5121	-1.2845	7.62	1.63	-0.750			
0.4634	29656.69	3.5090	3.5089	-1.2784	7.63	1.64	-0.750			
0.4672	29900.43	3.5060	3.5061	-1.2759	7.64	1.65	-0.750			
0.4710	30142.53	3.5030	3.5031	-1.2759	7.65	1.66	-0.750			
0.4748	30387.75	3.5000	3.4999	-1.2755	7.66	1.67	-0.750			
0.4787	30634.19	3.4970	3.4970	-1.2810	7.67	1.68	-0.750			
0.4825	30879.76	3.4940	3.4939	-1.2799	7.68	1.69	-0.750			
0.4864	31129.33	3.4910	3.4911	-1.2875	7.69	1.70	-0.750			
0.4903	31377.76	3.4880	3.4879	-1.2768	7.70	1.71	-0.750			
0.4941	31621.52	3.4850	3.4850	-1.2690	7.71	1.72	-0.750			
0.4979	31864.20	3.4820	3.4821	-1.2566	7.72	1.73	-0.750			
0.5017	32106.21	3.4790	3.4790	-1.2533	7.73	1.74	-0.750			
0.5054	32347.25	3.4760	3.4758	-1.2360	7.74	1.75	-0.750			
0.5091	32582.34	3.4730	3.4731	-1.2268	7.76	1.77	-0.750			
0.5128	32816.87	3.4700	3.4699	-1.2175	7.77	1.78	-0.750			
0.5164	33050.31	3.4670	3.4670	-1.2074	7.78	1.79	-0.750			
0.5200	33280.23	3.4640	3.4639	-1.1907	7.79	1.80	-0.750			
0.5235	33506.00	3.4610	3.4611	-1.1909	7.80	1.81	-0.750			
0.5271	33735.35	3.4580	3.4580	-1.1858	7.81	1.82	-0.750			
0.5307	33961.96	3.4550	3.4549	-1.1886	7.83	1.84	-0.750			
0.5342	34188.44	3.4520	3.4519	-1.1794	7.84	1.85	-0.750			
0.5378	34418.29	3.4490	3.4491	-1.1899	7.85	1.86	-0.750			
0.5414	34647.86	3.4460	3.4459	-1.1788	7.86	1.87	-0.750			
0.5449	34876.69	3.4430	3.4431	-1.1681	7.88	1.89	-0.750			
0.5484	35096.94	3.4400	3.4402	-1.1607	7.89	1.90	-0.750			
0.5519	35322.15	3.4370	3.4369	-1.1489	7.90	1.91	-0.750			
0.5553	35540.02	3.4340	3.4339	-1.1286	7.91	1.92	-0.750			
0.5586	35753.11	3.4310	3.4310	-1.1144	7.93	1.94	-0.750			
0.5620	35966.77	3.4280	3.4279	-1.1057	7.94	1.95	-0.750			
0.5653	36177.60	3.4250	3.4249	-1.0919	7.95	1.96	-0.750			
0.5685	36384.60	3.4220	3.4218	-1.0786	7.96	1.97	-0.750			
0.5717	36589.12	3.4190	3.4191	-1.0642	7.98	1.99	-0.750			
0.5749	36795.80	3.4160	3.4160	-1.0572	7.99	2.00	-0.750			
0.5781	36996.95	3.4130	3.4130	-1.0471	8.00	2.01	-0.750			
0.5812	37196.79	3.4100	3.4100	-1.0320	8.01	2.02	-0.750			
0.5842	37391.90	3.4070	3.4069	-1.0185	8.03	2.04	-0.750			
0.5873	37586.98	3.4040	3.4040	-1.0073	8.04	2.05	-0.750			
0.5903	37780.98	3.4010	3.4010	-0.9875	8.05	2.06	-0.750			
0.5933	37970.43	3.3980	3.3980	-0.9706	8.07	2.08	-0.750			
0.5962	38154.09	3.3950	3.3950	-0.9520	8.08	2.09	-0.750			
0.5990	38333.75	3.3920	3.3919	-0.9300	8.10	2.11	-0.750			
0.6017	38510.63	3.3890	3.3889	-0.9162	8.11	2.12	-0.750			
0.6044	38683.33	3.3860	3.3861	-0.8945	8.12	2.13	-0.750			
0.6071	38853.01	3.3830	3.3830	-0.8841	8.14	2.15	-0.750			
0.6097	39022.10	3.3800	3.3799	-0.8781	8.15	2.16	-0.750			
0.6123	39188.43	3.3770	3.3771	-0.8644	8.16	2.17	-0.750			
0.6149	39354.41	3.3740	3.3739	-0.8498	8.18	2.19	-0.750			
0.6175	39517.99	3.3710	3.3710	-0.8400	8.19	2.20	-0.750			
0.6200	39679.48	3.3680	3.3680	-0.8202	8.20	2.21	-0.750			
0.6224	39836.80	3.3650	3.3651	-0.8029	8.22	2.23	-0.750			
0.6248	39986.52	3.3620	3.3620	-0.7826	8.23	2.24	-0.750			
0.6271	40133.92	3.3590	3.3590	-0.7591	8.25	2.26	-0.750			
0.6294	40278.84	3.3560	3.3559	-0.7437	8.26	2.27	-0.750			
0.6315	40418.87	3.3530	3.3531	-0.7288	8.28	2.29	-0.750			
0.6337	40557.54	3.3500	3.3500	-0.7111	8.29	2.30	-0.750			
0.6358	40692.98	3.3470	3.3470	-0.6987	8.30	2.31	-0.750			
0.6379	40824.80	3.3440	3.3440	-0.6845	8.32	2.33	-0.750			
0.6399	40954.54	3.3410	3.3411	-0.6743	8.33	2.34	-0.750			
0.6419	41083.87	3.3380	3.3379	-0.6621	8.35	2.36	-0.750			
0.6439	41212.02	3.3350	3.3350	-0.6514	8.36	2.37	-0.750			
0.6459	41335.12	3.3320	3.3321	-0.6346	8.38	2.39	-0.750			
0.6477	41455.38	3.3290	3.3291	-0.6274	8.39	2.40	-0.750			
0.6496	41574.49	3.3260	3.3260	-0.6117	8.40	2.41	-0.750			
0.6514	41690.06	3.3230	3.3228	-0.6004	8.41	2.42	-0.750			
0.6532	41803.88	3.3200	3.3201	-0.5904	8.43	2.44	-0.750			
0.6550	41917.73	3.3170	3.3171	-0.5816	8.44	2.45	-0.750			
0.6567	42028.47	3.3140	3.3139	-0.5687	8.45	2.46	-0.750			
0.6584	42136.98	3.3110	3.3110	-0.5577	8.46	2.47	-0.750			
0.6600	42242.07	3.3080	3.3081	-0.5437	8.47	2.48	-0.750			
0.6617	42346.11	3.3050	3.3049	-0.5390	8.48	2.49	-0.750			
0.6632	42447.77	3.3020	3.3021	-0.5278	8.50	2.51	-0.750			
0.6648	42547.20	3.2990	3.2989	-0.5217	8.51	2.52	-0.750			
0.6664	42646.81	3.2960	3.2961	-0.5179	8.52	2.53	-0.750			
0.6679	42746.91	3.2930	3.2929	-0.5110	8.54	2.55	-0.750			
0.6694	42844.71	3.2900	3.2900	-0.5008	8.55	2.56	-0.750			
0.6710	42942.30	3.2870	3.2870	-0.4877	8.57	2.58	-0.750			
0.6724	43033.61	3.2840	3.2840	-0.4753	8.58	2.59	-0.750			
0.6738	43123.41	3.2810	3.2810	-0.4661	8.59	2.60	-0.750			
0.6752	43210.35	3.2780	3.2779	-0.4569	8.60	2.61	-0.750			
0.6765	43295.97	3.2750	3.2749	-0.4490	8.61	2.62	-0.750			
0.6778	43381.98	3.2720	3.2720	-0.4448	8.63	2.64	-0.750			
0.6792	43468.14	3.2690	3.2690	-0.4405	8.64	2.65	-0.750			
0.6805	43552.93	3.2660	3.2660	-0.4326	8.65	2.66	-0.750			
0.6818	43635.22	3.2630	3.2630	-0.4202	8.66	2.67	-0.750			
0.6830	43714.23	3.2600	3.2600	-0.4172	8.67	2.68	-0.750			
0.6843	43792.24	3.2570	3.2571	-0.4105	8.68	2.69	-0.750			
0.6855	43871.19	3.2540	3.2538	-0.4059	8.68	2.69	-0.750			
0.6867	43949.29	3.2510	3.2509	-0.3999	8.70	2.71	-0.750			
0.6879	44026.35	3.2480	3.2482	-0.3907	8.71	2.72	-0.750			
0.6891	44101.63	3.2450	3.2451	-0.3849	8.72	2.73	-0.750			
0.6902	44173.30	3.2420	3.2420	-0.3790	8.73	2.74	-0.750			
0.6913	44243.70	3.2390	3.2389	-0.3715	8.74	2.75	-0.750			
0.6924	44313.64	3.2360	3.2359	-0.3683	8.75	2.76	-0.750			
0.6935	44384.64	3.2330	3.2330	-0.3666	8.77	2.78	-0.750			
0.6946	44456.45	3.2300	3.2300	-0.3639	8.78	2.79	-0.750			
0.6957	44526.30	3.2270	3.2271	-0.3591	8.79	2.80	-0.750			
0.6968	44594.40	3.2240	3.2240	-0.3523	8.80	2.81	-0.750			
0.6978	44660.64	3.2210	3.2210	-0.3472	8.80	2.81	-0.750			
0.6988	44726.29	3.2180	3.2180	-0.3426	8.81	2.82	-0.750			
0.6999	44791.45	3.2150	3.2150	-0.3399	8.83	2.84	-0.750			
0.7009	44857.06	3.2120	3.2120	-0.3371	8.84	2.85	-0.750			
0.7019	44922.19	3.2090	3.2090	-0.3339	8.85	2.86	-0.750			
0.7029	44985.77	3.2060	3.2060	-0.3289	8.86	2.87	-0.750			
0.7039	45048.47	3.2030	3.2031	-0.3252	8.87	2.88	-0.750			
0.7048	45110.27	3.2000	3.2001	-0.3220	8.88	2.89	-0.750			
0.7058	45172.15	3.1970	3.1968	-0.3159	8.89	2.90	-0.750			
0.7068	45232.01	3.1940	3.1941	-0.3115	8.90	2.91	-0.750			
0.7077	45291.78	3.1910	3.1911	-0.3075	8.91	2.92	-0.750			
0.7086	45350.04	3.1880	3.1881	-0.3021	8.92	2.93	-0.750			
0.7095	45407.44	3.1850	3.1849	-0.2978	8.93	2.94	-0.750			
0.7104	45463.47	3.1820	3.1821	-0.2947	8.94	2.95	-0.750			
0.7112	45519.67	3.1790	3.1790	-0.2925	8.95	2.96	-0.750			
0.7121	45576.41	3.1760	3.1760	-0.2919	8.96	2.97	-0.750			
0.7130	45631.61	3.1730	3.1728	-0.2873	8.98	2.99	-0.750			
0.7139	45686.78	3.1700	3.1701	-0.2854	8.99	3.00	-0.750			
0.7147	45741.38	3.1670	3.1669	-0.2828	9.00	3.01	-0.750			
0.7156	45795.30	3.1640	3.1641	-0.2802	9.01	3.02	-0.750			
0.7164	45848.69	3.1610	3.1609	-0.2774	9.02	3.03	-0.750			
0.7172	45901.92	3.1580	3.1580	-0.2746	9.03	3.04	-0.750			
0.7180	45954.51	3.1550	3.1550	-0.2717	9.04	3.05	-0.750			
0.7189	46006.55	3.1520	3.1521	-0.2681	9.05	3.06	-0.750			
0.7196	46057.11	3.1490	3.1490	-0.2668	9.06	3.07	-0.750			
0.7204	46107.84	3.1460	3.1460	-0.2643	9.07	3.08	-0.750			
0.7212	46158.26	3.1430	3.1429	-0.2633	9.07	3.08	-0.750			
0.7220	46208.82	3.1400	3.1400	-0.2603	9.08	3.09	-0.750			
0.7228	46259.07	3.1370	3.1372	-0.2584	9.09	3.10	-0.750			
0.7236	46308.35	3.1340	3.1341	-0.2560	9.10	3.11	-0.750			
0.7243	46357.53	3.1310	3.1310	-0.2536	9.12	3.13	-0.750			
0.7251	46405.28	3.1280	3.1280	-0.2504	9.13	3.14	-0.750			
0.7258	46453.17	3.1250	3.1249	-0.2490	9.14	3.15	-0.750			
0.7266	46500.37	3.1220	3.1221	-0.2472	9.15	3.16	-0.750			
0.7273	46548.29	3.1190	3.1190	-0.2469	9.16	3.17	-0.750			
0.7281	46595.45	3.1160	3.1159	-0.2447	9.17	3.18	-0.750			
0.7288	46642.29	3.1130	3.1130	-0.2431	9.18	3.19	-0.750			
0.7295	46688.96	3.1100	3.1100	-0.2406	9.20	3.21	-0.750			
0.7302	46735.36	3.1070	3.1071	-0.2378	9.21	3.22	-0.750			
0.7309	46780.50	3.1040	3.1040	-0.2359	9.22	3.23	-0.750			
0.7316	46825.29	3.1010	3.1011	-0.2336	9.22	3.23	-0.750			
0.7323	46869.60	3.0980	3.0980	-0.2313	9.23	3.24	-0.750			
0.7330	46913.80	3.0950	3.0949	-0.2309	9.24	3.25	-0.750			
0.7337	46958.18	3.0920	3.0921	-0.2294	9.25	3.26	-0.750			
0.7344	47001.90	3.0890	3.0890	-0.2287	9.26	3.27	-0.750			
0.7351	47046.13	3.0860	3.0861	-0.2277	9.27	3.28	-0.750			
0.7358	47090.02	3.0830	3.0829	-0.2265	9.28	3.29	-0.750			
0.7365	47133.12	3.0800	3.0799	-0.2237	9.29	3.30	-0.750			
0.7371	47176.08	3.0770	3.0771	-0.2225	9.30	3.31	-0.750			
0.7378	47218.26	3.0740	3.0739	-0.2207	9.31	3.32	-0.750			
0.7384	47260.52	3.0710	3.0711	-0.2195	9.32	3.33	-0.750			
0.7391	47302.56	3.0680	3.0679	-0.2186	9.33	3.34	-0.750			
0.7397	47343.96	3.0650	3.0650	-0.2171	9.35	3.36	-0.750			
0.7404	47386.03	3.0620	3.0620	-0.2164	9.36	3.37	-0.750			
0.7411	47427.47	3.0590	3.0591	-0.2152	9.37	3.38	-0.750			
0.7417	47469.04	3.0560	3.0559	-0.2136	9.38	3.39	-0.750			
0.7423	47509.88	3.0530	3.0531	-0.2117	9.39	3.40	-0.750			
0.7430	47550.00	3.0500	3.0500	-0.2100	9.40	3.41	-0.750			
0.7436	47590.20	3.0470	3.0470	-0.2087	9.40	3.41	-0.750			
0.7442	47630.00	3.0440	3.0440	-0.2072	9.41	3.42	-0.750			
0.7448	47669.32	3.0410	3.0410	-0.2063	9.42	3.43	-0.750			
0.7455	47709.14	3.0380	3.0380	-0.2058	9.43	3.44	-0.750			
0.7461	47748.59	3.0350	3.0350	-0.2051	9.44	3.45	-0.750			
0.7467	47788.09	3.0320	3.0319	-0.2040	9.45	3.46	-0.750			
0.7473	47827.02	3.0290	3.0290	-0.2034	9.45	3.46	-0.750			
0.7479	47866.18	3.0260	3.0259	-0.2018	9.46	3.47	-0.750			
0.7485	47904.79	3.0230	3.0231	-0.2004	9.47	3.48	-0.750			
0.7491	47943.27	3.0200	3.0199	-0.1994	9.48	3.49	-0.750			
0.7497	47980.71	3.0170	3.0171	-0.1989	9.49	3.50	-0.750			
0.7503	48019.13	3.0140	3.0140	-0.1986	9.50	3.51	-0.750			
0.7509	48057.23	3.0110	3.0109	-0.1983	9.50	3.51	-0.750			
0.7515	48095.17	3.0080	3.0079	-0.1981	9.51	3.52	-0.750			
0.7521	48132.89	3.0050	3.0053	-0.1996	9.52	3.53	-0.750			
0.7527	48171.31	3.0020	3.0020	-0.1938	9.53	3.54	-0.750			
