Ah_balance (normalized)	Ah_balance (mAh)	Voltage - fit (V)	Voltage -  interpolate (V)	dQ/dV (1/V)	Temperature (°C)	Temperature - diff (°C)	Current (C)	R_DC 0ms (mOhm)	R_DC 50ms (mOhm)	R_DC 50 ms PEC (mOhm)
0.0959	6139.46	4.1980	4.2000	0.8833	8.01	2.02	0.750			
0.0987	6316.78	4.1950	4.1961	0.8967	8.01	2.02	0.750			
0.1013	6483.11	4.1920	4.1926	0.8458	8.00	2.01	0.750			
0.1037	6638.24	4.1890	4.1893	0.8057	8.00	2.01	0.750			
0.1060	6786.10	4.1860	4.1859	0.7712	8.00	2.01	0.750			
0.1082	6924.94	4.1830	4.1829	0.7316	7.99	2.00	0.750			
0.1104	7065.69	4.1800	4.1797	0.7425	7.99	2.00	0.750			
0.1127	7210.37	4.1770	4.1771	0.7497	7.99	2.00	0.750			
0.1150	7357.57	4.1740	4.1741	0.7516	7.98	1.99	0.750			
0.1172	7502.90	4.1710	4.1709	0.7498	7.98	1.99	0.750			
0.1195	7644.81	4.1680	4.1681	0.7440	7.98	1.99	0.750			
0.1217	7787.73	4.1650	4.1651	0.7458	7.97	1.98	0.750			
0.1239	7931.41	4.1620	4.1620	0.7483	7.97	1.98	0.750			
0.1262	8074.31	4.1590	4.1589	0.7463	7.96	1.97	0.750			
0.1284	8218.82	4.1560	4.1560	0.7505	7.96	1.97	0.750			
0.1307	8364.86	4.1530	4.1531	0.7534	7.95	1.96	0.750			
0.1329	8507.65	4.1500	4.1499	0.7598	7.95	1.96	0.750			
0.1352	8653.86	4.1470	4.1468	0.7642	7.94	1.95	0.750			
0.1375	8800.39	4.1440	4.1439	0.7691	7.94	1.95	0.750			
0.1398	8949.57	4.1410	4.1411	0.7719	7.94	1.95	0.750			
0.1422	9099.56	4.1380	4.1380	0.7800	7.93	1.94	0.750			
0.1445	9249.42	4.1350	4.1351	0.7827	7.93	1.94	0.750			
0.1469	9399.76	4.1320	4.1319	0.7859	7.93	1.94	0.750			
0.1492	9550.64	4.1290	4.1289	0.7817	7.93	1.94	0.750			
0.1516	9704.14	4.1260	4.1260	0.7764	7.92	1.93	0.750			
0.1539	9852.05	4.1230	4.1231	0.7712	7.92	1.93	0.750			
0.1562	9999.74	4.1200	4.1201	0.7750	7.91	1.92	0.750			
0.1585	10145.98	4.1170	4.1169	0.7730	7.90	1.91	0.750			
0.1608	10291.76	4.1140	4.1139	0.7778	7.90	1.91	0.750			
0.1632	10441.61	4.1110	4.1111	0.7875	7.90	1.91	0.750			
0.1656	10597.15	4.1080	4.1080	0.7927	7.90	1.91	0.750			
0.1680	10749.62	4.1050	4.1050	0.7980	7.89	1.90	0.750			
0.1704	10902.74	4.1020	4.1021	0.7966	7.89	1.90	0.750			
0.1727	11054.81	4.0990	4.0988	0.8009	7.89	1.90	0.750			
0.1751	11208.56	4.0960	4.0961	0.8042	7.88	1.89	0.750			
0.1775	11362.22	4.0930	4.0930	0.8100	7.88	1.89	0.750			
0.1800	11518.92	4.0900	4.0899	0.8175	7.87	1.88	0.750			
0.1825	11677.64	4.0870	4.0871	0.8168	7.87	1.88	0.750			
0.1849	11835.32	4.0840	4.0838	0.8136	7.86	1.87	0.750			
0.1874	11992.22	4.0810	4.0812	0.8223	7.86	1.87	0.750			
0.1899	12151.36	4.0780	4.0779	0.8131	7.85	1.86	0.750			
0.1923	12304.24	4.0750	4.0749	0.8296	7.85	1.86	0.750			
0.1947	12463.34	4.0720	4.0721	0.8410	7.84	1.85	0.750			
0.1973	12627.51	4.0690	4.0687	0.8418	7.84	1.85	0.750			
0.1999	12792.09	4.0660	4.0662	0.8391	7.84	1.85	0.750			
0.2024	12955.63	4.0630	4.0631	0.8385	7.83	1.84	0.750			
0.2049	13113.01	4.0600	4.0601	0.8389	7.83	1.84	0.750			
0.2074	13272.68	4.0570	4.0569	0.8296	7.82	1.83	0.750			
0.2098	13430.29	4.0540	4.0539	0.8380	7.82	1.83	0.750			
0.2124	13591.19	4.0510	4.0512	0.8515	7.82	1.83	0.750			
0.2150	13760.15	4.0480	4.0480	0.8548	7.82	1.83	0.750			
0.2176	13927.03	4.0450	4.0449	0.8620	7.81	1.82	0.750			
0.2202	14090.12	4.0420	4.0422	0.8565	7.81	1.82	0.750			
0.2227	14254.68	4.0390	4.0387	0.8529	7.81	1.82	0.750			
0.2253	14420.06	4.0360	4.0359	0.8532	7.80	1.81	0.750			
0.2278	14580.73	4.0330	4.0330	0.8551	7.80	1.81	0.750			
0.2304	14744.29	4.0300	4.0302	0.8555	7.79	1.80	0.750			
0.2329	14908.80	4.0270	4.0269	0.8605	7.79	1.80	0.750			
0.2355	15074.23	4.0240	4.0240	0.8673	7.78	1.79	0.750			
0.2382	15244.12	4.0210	4.0211	0.8750	7.78	1.79	0.750			
0.2408	15412.11	4.0180	4.0179	0.8898	7.77	1.78	0.750			
0.2435	15583.98	4.0150	4.0150	0.8941	7.77	1.78	0.750			
0.2462	15755.55	4.0120	4.0121	0.8911	7.76	1.77	0.750			
0.2489	15928.70	4.0090	4.0090	0.9008	7.76	1.77	0.750			
0.2516	16102.59	4.0060	4.0061	0.9023	7.75	1.76	0.750			
0.2543	16275.58	4.0030	4.0029	0.8985	7.74	1.75	0.750			
0.2570	16447.56	4.0000	4.0000	0.8981	7.74	1.75	0.750			
0.2597	16619.18	3.9970	3.9970	0.8940	7.73	1.74	0.750			
0.2624	16792.44	3.9940	3.9940	0.8967	7.73	1.74	0.750			
0.2650	16962.93	3.9910	3.9910	0.9022	7.72	1.73	0.750			
0.2677	17133.41	3.9880	3.9881	0.9059	7.72	1.73	0.750			
0.2705	17308.95	3.9850	3.9850	0.9171	7.71	1.72	0.750			
0.2732	17487.12	3.9820	3.9819	0.9266	7.71	1.72	0.750			
0.2761	17667.97	3.9790	3.9789	0.9216	7.70	1.71	0.750			
0.2789	17846.79	3.9760	3.9761	0.9265	7.70	1.71	0.750			
0.2816	18023.22	3.9730	3.9731	0.9296	7.69	1.70	0.750			
0.2844	18198.67	3.9700	3.9700	0.9287	7.68	1.69	0.750			
0.2872	18377.78	3.9670	3.9670	0.9377	7.68	1.69	0.750			
0.2900	18557.92	3.9640	3.9640	0.9440	7.67	1.68	0.750			
0.2928	18740.68	3.9610	3.9610	0.9533	7.66	1.67	0.750			
0.2957	18926.49	3.9580	3.9579	0.9612	7.65	1.66	0.750			
0.2986	19111.04	3.9550	3.9551	0.9708	7.65	1.66	0.750			
0.3015	19298.49	3.9520	3.9520	0.9795	7.64	1.65	0.750			
0.3045	19488.15	3.9490	3.9489	0.9854	7.64	1.65	0.750			
0.3075	19678.70	3.9460	3.9461	0.9879	7.63	1.64	0.750			
0.3105	19870.14	3.9430	3.9430	0.9931	7.63	1.64	0.750			
0.3134	20058.30	3.9400	3.9400	0.9983	7.62	1.63	0.750			
0.3164	20248.98	3.9370	3.9369	1.0032	7.62	1.63	0.750			
0.3194	20441.16	3.9340	3.9340	1.0146	7.61	1.62	0.750			
0.3225	20638.31	3.9310	3.9308	1.0267	7.60	1.61	0.750			
0.3256	20838.97	3.9280	3.9280	1.0360	7.59	1.60	0.750			
0.3287	21039.24	3.9250	3.9251	1.0419	7.58	1.59	0.750			
0.3319	21239.62	3.9220	3.9220	1.0462	7.57	1.58	0.750			
0.3350	21439.97	3.9190	3.9189	1.0471	7.56	1.57	0.750			
0.3381	21640.10	3.9160	3.9160	1.0516	7.56	1.57	0.750			
0.3413	21841.58	3.9130	3.9130	1.0560	7.55	1.56	0.750			
0.3444	22044.32	3.9100	3.9100	1.0707	7.55	1.56	0.750			
0.3477	22250.58	3.9070	3.9068	1.0894	7.54	1.55	0.750			
0.3509	22459.00	3.9040	3.9039	1.1104	7.53	1.54	0.750			
0.3543	22675.73	3.9010	3.9010	1.1310	7.52	1.53	0.750			
0.3578	22897.41	3.8980	3.8981	1.1506	7.51	1.52	0.750			
0.3613	23121.51	3.8950	3.8951	1.1543	7.50	1.51	0.750			
0.3648	23345.70	3.8920	3.8920	1.1662	7.49	1.50	0.750			
0.3682	23567.09	3.8890	3.8891	1.1722	7.47	1.48	0.750			
0.3718	23792.16	3.8860	3.8859	1.1875	7.46	1.47	0.750			
0.3753	24018.66	3.8830	3.8829	1.2066	7.45	1.46	0.750			
0.3790	24253.54	3.8800	3.8800	1.2298	7.45	1.46	0.750			
0.3827	24492.18	3.8770	3.8771	1.2527	7.44	1.45	0.750			
0.3866	24739.45	3.8740	3.8740	1.2592	7.43	1.44	0.750			
0.3903	24980.52	3.8710	3.8711	1.2789	7.41	1.42	0.750			
0.3941	25225.39	3.8680	3.8681	1.2905	7.40	1.41	0.750			
0.3981	25475.70	3.8650	3.8647	1.3007	7.39	1.40	0.750			
0.4019	25723.85	3.8620	3.8621	1.3211	7.38	1.39	0.750			
0.4059	25979.01	3.8590	3.8591	1.3531	7.36	1.37	0.750			
0.4101	26243.88	3.8560	3.8559	1.3716	7.35	1.36	0.750			
0.4142	26509.35	3.8530	3.8530	1.3902	7.34	1.35	0.750	0.409	1.016	
0.4183	26774.06	3.8500	3.8501	1.4382	7.33	1.34	0.750			
0.4227	27054.16	3.8470	3.8469	1.4715	7.32	1.33	0.750			
0.4272	27340.29	3.8440	3.8441	1.5129	7.31	1.32	0.750			
0.4318	27632.97	3.8410	3.8411	1.5422	7.29	1.30	0.750			
0.4365	27934.27	3.8380	3.8382	1.5679	7.28	1.29	0.750			
0.4413	28242.25	3.8350	3.8349	1.5982	7.26	1.27	0.750			
0.4461	28548.47	3.8320	3.8322	1.6296	7.24	1.25	0.750			
0.4509	28858.08	3.8290	3.8291	1.6597	7.22	1.23	0.750			
0.4560	29183.99	3.8260	3.8261	1.6886	7.20	1.21	0.750			
0.4611	29513.20	3.8230	3.8229	1.7231	7.19	1.20	0.750			
0.4664	29850.54	3.8200	3.8199	1.7618	7.17	1.18	0.750			
0.4717	30187.89	3.8170	3.8170	1.7921	7.14	1.15	0.750			
0.4771	30533.14	3.8140	3.8140	1.8272	7.13	1.14	0.750			
0.4826	30884.03	3.8110	3.8108	1.8668	7.11	1.12	0.750			
0.4883	31250.98	3.8080	3.8080	1.9118	7.09	1.10	0.750			
0.4942	31628.16	3.8050	3.8050	1.9692	7.06	1.07	0.750			
0.5002	32011.79	3.8020	3.8019	2.0427	7.03	1.04	0.750			
0.5063	32403.01	3.7990	3.7992	2.0978	7.01	1.02	0.750			
0.5127	32813.00	3.7960	3.7958	2.1601	6.98	0.99	0.750			
0.5193	33234.94	3.7930	3.7930	2.2213	6.96	0.97	0.750			
0.5260	33667.07	3.7900	3.7901	2.2790	6.93	0.94	0.750			
0.5331	34116.31	3.7870	3.7869	2.3315	6.90	0.91	0.750			
0.5401	34566.25	3.7840	3.7840	2.3757	6.87	0.88	0.750			
0.5473	35027.43	3.7810	3.7811	2.4218	6.84	0.85	0.750			
0.5547	35500.18	3.7780	3.7780	2.4708	6.81	0.82	0.750			
0.5622	35978.80	3.7750	3.7750	2.5167	6.78	0.79	0.750			
0.5698	36469.14	3.7720	3.7719	2.5504	6.74	0.75	0.750			
0.5775	36958.81	3.7690	3.7692	2.6094	6.71	0.72	0.750			
0.5854	37462.60	3.7660	3.7658	2.6462	6.68	0.69	0.750			
0.5933	37972.82	3.7630	3.7631	2.6724	6.65	0.66	0.750			
0.6016	38502.77	3.7600	3.7599	2.7174	6.61	0.62	0.750			
0.6096	39014.04	3.7570	3.7571	2.7355	6.58	0.59	0.750			
0.6178	39542.27	3.7540	3.7540	2.8127	6.55	0.56	0.750			
0.6263	40085.39	3.7510	3.7511	2.8752	6.51	0.52	0.750			
0.6352	40652.56	3.7480	3.7480	2.9247	6.47	0.48	0.750			
0.6438	41203.46	3.7450	3.7452	3.0526	6.44	0.45	0.750			
0.6534	41818.84	3.7420	3.7418	3.1815	6.40	0.41	0.750			
0.6630	42434.50	3.7390	3.7393	3.3404	6.37	0.38	0.750			
0.6735	43104.60	3.7360	3.7357	3.5894	6.34	0.35	0.750			
0.6846	43816.05	3.7330	3.7331	3.5254	6.28	0.29	0.750			
0.6949	44475.62	3.7300	3.7299	3.2878	6.26	0.27	0.750			
0.7044	45081.04	3.7270	3.7270	3.0018	6.23	0.24	0.750			
0.7132	45644.67	3.7240	3.7240	2.7824	6.20	0.21	0.750			
0.7210	46145.14	3.7210	3.7210	2.4621	6.18	0.19	0.750			
0.7278	46576.41	3.7180	3.7179	2.1813	6.16	0.17	0.750			
0.7339	46970.22	3.7150	3.7151	1.9428	6.14	0.15	0.750			
0.7393	47312.07	3.7120	3.7120	1.7448	6.13	0.14	0.750			
0.7442	47627.31	3.7090	3.7091	1.5762	6.12	0.13	0.750			
0.7484	47894.88	3.7060	3.7059	1.4097	6.11	0.12	0.750			
0.7524	48152.11	3.7030	3.7029	1.3087	6.10	0.11	0.750			
0.7560	48382.07	3.7000	3.7002	1.2110	6.09	0.10	0.750			
0.7595	48607.65	3.6970	3.6969	1.1576	6.08	0.09	0.750			
0.7628	48820.21	3.6940	3.6941	1.1150	6.08	0.09	0.750			
0.7660	49024.99	3.6910	3.6910	1.0835	6.07	0.08	0.750			
0.7692	49231.51	3.6880	3.6880	1.0624	6.07	0.08	0.750			
0.7724	49434.91	3.6850	3.6848	1.0467	6.06	0.07	0.750			
0.7755	49633.86	3.6820	3.6821	1.0238	6.05	0.06	0.750			
0.7786	49831.49	3.6790	3.6791	1.0048	6.05	0.06	0.750			
0.7816	50022.71	3.6760	3.6759	0.9779	6.04	0.05	0.750			
0.7845	50205.15	3.6730	3.6730	0.9515	6.03	0.04	0.750			
0.7873	50385.61	3.6700	3.6701	0.9228	6.03	0.04	0.750			
0.7900	50561.70	3.6670	3.6669	0.8987	6.02	0.03	0.750			
0.7927	50729.99	3.6640	3.6642	0.8765	6.02	0.03	0.750			
0.7953	50896.36	3.6610	3.6610	0.8564	6.01	0.02	0.750			
0.7978	51058.27	3.6580	3.6576	0.8322	6.01	0.02	0.750			
0.8003	51216.95	3.6550	3.6550	0.8069	6.01	0.02	0.750			
0.8027	51370.55	3.6520	3.6522	0.7755	6.00	0.01	0.750			
0.8050	51520.86	3.6490	3.6490	0.7577	6.00	0.01	0.750			
0.8072	51660.43	3.6460	3.6460	0.7217	5.99	0.00	0.750			
0.8093	51793.97	3.6430	3.6430	0.6918	5.99	0.00	0.750			
0.8114	51926.54	3.6400	3.6402	0.6637	5.99	0.00	0.750			
0.8133	52053.82	3.6370	3.6369	0.6330	5.99	0.00	0.750			
0.8152	52175.14	3.6340	3.6341	0.5869	5.99	0.00	0.750			
0.8170	52287.40	3.6310	3.6310	0.5407	5.99	0.00	0.750			
0.8185	52385.96	3.6280	3.6280	0.4807	5.99	0.00	0.750			
0.8199	52472.44	3.6250	3.6249	0.4200	5.99	0.00	0.750			
0.8210	52542.89	3.6220	3.6220	0.3559	5.99	0.00	0.750			
0.8220	52605.73	3.6190	3.6191	0.2999	5.99	0.00	0.750			
0.8228	52657.02	3.6160	3.6159	0.2425	5.99	0.00	0.750			
0.8234	52698.40	3.6130	3.6129	0.1902	5.99	0.00	0.750			
0.8239	52727.15	3.6100	3.6099	0.1350	5.99	0.00	0.750			
0.8242	52748.26	3.6070	3.6065	0.0870	5.99	0.00	0.750			
0.8243	52757.16	3.5980	3.6018	-0.0546	5.99	0.00	0.750			
0.8244	52760.04	3.6040	3.5951	0.0396	5.99	0.00	0.750			
0.8244	52763.12	3.6010	3.5724	-0.0075	5.99	0.00	0.750			
