Ah_balance (normalized)	Ah_balance (mAh)	Voltage - fit (V)	Voltage -  interpolate (V)	dQ/dV (1/V)	Temperature (°C)	Temperature - diff (°C)	Current (C)	R_DC 0ms (mOhm)	R_DC 50ms (mOhm)	R_DC 50 ms PEC (mOhm)
0.0002	12.48	4.1070	4.1057	-0.0401	6.00	0.00	-0.750			
0.0004	23.37	4.1040	4.1033	-0.0702	6.00	0.00	-0.750			
0.0006	39.63	4.1010	4.1008	-0.0991	6.00	0.00	-0.750			
0.0010	62.64	4.0980	4.0978	-0.1244	6.00	0.00	-0.750			
0.0014	89.00	4.0950	4.0949	-0.1501	6.00	0.00	-0.750			
0.0019	120.46	4.0920	4.0922	-0.1740	6.00	0.00	-0.750			
0.0024	156.54	4.0890	4.0892	-0.2016	6.00	0.00	-0.750			
0.0031	197.79	4.0860	4.0860	-0.2256	6.00	0.00	-0.750			
0.0038	243.53	4.0830	4.0829	-0.2480	6.00	0.00	-0.750			
0.0046	293.93	4.0800	4.0800	-0.2704	6.00	0.00	-0.750			
0.0055	348.98	4.0770	4.0771	-0.2923	6.00	0.00	-0.750			
0.0064	406.70	4.0740	4.0740	-0.3114	6.00	0.00	-0.750			
0.0073	468.64	4.0710	4.0710	-0.3295	6.00	0.00	-0.750			
0.0083	532.37	4.0680	4.0680	-0.3476	6.00	0.00	-0.750			
0.0094	601.35	4.0650	4.0650	-0.3693	6.00	0.00	-0.750			
0.0105	674.37	4.0620	4.0620	-0.3896	6.00	0.00	-0.750			
0.0117	751.08	4.0590	4.0589	-0.4133	6.00	0.00	-0.750			
0.0130	832.39	4.0560	4.0561	-0.4368	6.00	0.00	-0.750			
0.0144	919.00	4.0530	4.0529	-0.4571	6.00	0.00	-0.750			
0.0158	1009.62	4.0500	4.0500	-0.4768	6.00	0.00	-0.750			
0.0172	1102.95	4.0470	4.0469	-0.4940	6.00	0.00	-0.750			
0.0187	1199.57	4.0440	4.0440	-0.5139	6.00	0.00	-0.750			
0.0203	1300.36	4.0410	4.0410	-0.5316	6.00	0.00	-0.750			
0.0219	1402.26	4.0380	4.0381	-0.5522	6.00	0.00	-0.750			
0.0236	1509.48	4.0350	4.0350	-0.5756	6.00	0.00	-0.750			
0.0254	1625.34	4.0320	4.0320	-0.5890	6.01	0.01	-0.750			
0.0272	1741.14	4.0290	4.0289	-0.6045	6.01	0.01	-0.750			
0.0290	1858.83	4.0260	4.0258	-0.6150	6.01	0.01	-0.750			
0.0309	1978.15	4.0230	4.0231	-0.6267	6.01	0.01	-0.750			
0.0328	2099.23	4.0200	4.0199	-0.6352	6.02	0.02	-0.750			
0.0347	2220.56	4.0170	4.0170	-0.6403	6.02	0.02	-0.750			
0.0366	2343.70	4.0140	4.0140	-0.6505	6.02	0.02	-0.750			
0.0387	2475.15	4.0110	4.0108	-0.6645	6.03	0.03	-0.750			
0.0407	2602.84	4.0080	4.0080	-0.6686	6.03	0.03	-0.750			
0.0427	2731.31	4.0050	4.0053	-0.6747	6.04	0.04	-0.750			
0.0447	2861.28	4.0020	4.0019	-0.6789	6.04	0.04	-0.750			
0.0468	2993.79	3.9990	3.9988	-0.6786	6.05	0.05	-0.750			
0.0488	3122.21	3.9960	3.9960	-0.6825	6.05	0.05	-0.750			
0.0509	3254.48	3.9930	3.9931	-0.6922	6.06	0.06	-0.750			
0.0529	3386.61	3.9900	3.9899	-0.7013	6.06	0.06	-0.750			
0.0550	3521.32	3.9870	3.9870	-0.7050	6.07	0.07	-0.750			
0.0572	3657.97	3.9840	3.9839	-0.7130	6.08	0.08	-0.750			
0.0593	3795.75	3.9810	3.9811	-0.7184	6.09	0.09	-0.750			
0.0615	3936.25	3.9780	3.9780	-0.7321	6.09	0.09	-0.750			
0.0637	4076.88	3.9750	3.9750	-0.7293	6.10	0.10	-0.750			
0.0659	4218.01	3.9720	3.9719	-0.7327	6.11	0.11	-0.750			
0.0681	4359.06	3.9690	3.9691	-0.7299	6.12	0.12	-0.750			
0.0703	4500.06	3.9660	3.9660	-0.7336	6.13	0.13	-0.750			
0.0725	4639.76	3.9630	3.9630	-0.7336	6.13	0.13	-0.750			
0.0747	4778.87	3.9600	3.9600	-0.7382	6.14	0.14	-0.750			
0.0769	4919.87	3.9570	3.9570	-0.7440	6.15	0.15	-0.750			
0.0792	5065.90	3.9540	3.9539	-0.7510	6.16	0.16	-0.750			
0.0814	5211.43	3.9510	3.9510	-0.7541	6.16	0.16	-0.750			
0.0837	5357.78	3.9480	3.9480	-0.7564	6.17	0.17	-0.750			
0.0860	5502.13	3.9450	3.9451	-0.7561	6.18	0.18	-0.750			
0.0882	5647.17	3.9420	3.9419	-0.7523	6.19	0.19	-0.750			
0.0905	5789.99	3.9390	3.9390	-0.7576	6.20	0.20	-0.750			
0.0927	5935.11	3.9360	3.9360	-0.7609	6.21	0.21	-0.750			
0.0950	6082.22	3.9330	3.9330	-0.7657	6.22	0.22	-0.750			
0.0974	6231.49	3.9300	3.9301	-0.7705	6.23	0.23	-0.750			
0.0997	6380.85	3.9270	3.9270	-0.7681	6.24	0.24	-0.750			
0.1020	6528.17	3.9240	3.9240	-0.7660	6.25	0.25	-0.750			
0.1043	6675.91	3.9210	3.9210	-0.7650	6.26	0.26	-0.750			
0.1066	6820.22	3.9180	3.9181	-0.7645	6.26	0.26	-0.750			
0.1088	6966.05	3.9150	3.9149	-0.7735	6.27	0.27	-0.750			
0.1112	7115.23	3.9120	3.9120	-0.7775	6.28	0.28	-0.750			
0.1135	7265.75	3.9090	3.9089	-0.7813	6.29	0.29	-0.750			
0.1159	7416.83	3.9060	3.9062	-0.7868	6.29	0.29	-0.750			
0.1183	7570.89	3.9030	3.9030	-0.7842	6.30	0.30	-0.750			
0.1206	7721.31	3.9000	3.9000	-0.7816	6.31	0.31	-0.750			
0.1229	7868.62	3.8970	3.8970	-0.7798	6.32	0.32	-0.750			
0.1253	8017.98	3.8940	3.8940	-0.7791	6.34	0.34	-0.750			
0.1276	8168.73	3.8910	3.8909	-0.7826	6.35	0.35	-0.750			
0.1300	8318.34	3.8880	3.8880	-0.7836	6.36	0.36	-0.750			
0.1323	8468.75	3.8850	3.8850	-0.7877	6.37	0.37	-0.750			
0.1347	8620.85	3.8820	3.8820	-0.7975	6.38	0.38	-0.750			
0.1371	8774.36	3.8790	3.8790	-0.7974	6.39	0.39	-0.750			
0.1395	8927.75	3.8760	3.8760	-0.8021	6.40	0.40	-0.750			
0.1419	9083.40	3.8730	3.8730	-0.8091	6.41	0.41	-0.750			
0.1444	9239.27	3.8700	3.8700	-0.8086	6.42	0.42	-0.750			
0.1468	9393.80	3.8670	3.8670	-0.8139	6.43	0.43	-0.750			
0.1492	9550.45	3.8640	3.8639	-0.8110	6.44	0.44	-0.750			
0.1517	9706.54	3.8610	3.8610	-0.8074	6.45	0.45	-0.750			
0.1541	9862.33	3.8580	3.8580	-0.8088	6.45	0.45	-0.750			
0.1565	10017.03	3.8550	3.8548	-0.8085	6.46	0.46	-0.750			
0.1589	10171.34	3.8520	3.8521	-0.8125	6.47	0.47	-0.750			
0.1614	10327.80	3.8490	3.8489	-0.8118	6.48	0.48	-0.750			
0.1638	10483.81	3.8460	3.8460	-0.8105	6.49	0.49	-0.750			
0.1663	10640.75	3.8430	3.8430	-0.8184	6.50	0.50	-0.750			
0.1687	10797.58	3.8400	3.8401	-0.8205	6.51	0.51	-0.750			
0.1711	10953.45	3.8370	3.8369	-0.8250	6.52	0.52	-0.750			
0.1736	11111.15	3.8340	3.8340	-0.8271	6.53	0.53	-0.750			
0.1761	11272.04	3.8310	3.8310	-0.8281	6.54	0.54	-0.750			
0.1786	11433.25	3.8280	3.8280	-0.8306	6.55	0.55	-0.750			
0.1811	11593.57	3.8250	3.8250	-0.8309	6.56	0.56	-0.750			
0.1836	11751.51	3.8220	3.8221	-0.8247	6.58	0.58	-0.750			
0.1861	11908.23	3.8190	3.8189	-0.8276	6.59	0.59	-0.750			
0.1886	12067.50	3.8160	3.8160	-0.8262	6.60	0.60	-0.750			
0.1910	12226.79	3.8130	3.8130	-0.8323	6.61	0.61	-0.750			
0.1935	12386.71	3.8100	3.8101	-0.8325	6.62	0.62	-0.750			
0.1961	12547.99	3.8070	3.8070	-0.8328	6.63	0.63	-0.750			
0.1986	12707.69	3.8040	3.8040	-0.8350	6.64	0.64	-0.750			
0.2011	12868.60	3.8010	3.8008	-0.8325	6.65	0.65	-0.750			
0.2036	13028.20	3.7980	3.7980	-0.8286	6.66	0.66	-0.750			
0.2061	13187.70	3.7950	3.7951	-0.8288	6.67	0.67	-0.750			
0.2085	13346.55	3.7920	3.7921	-0.8250	6.68	0.68	-0.750			
0.2110	13504.26	3.7890	3.7889	-0.8338	6.69	0.69	-0.750			
0.2135	13662.29	3.7860	3.7860	-0.8372	6.70	0.70	-0.750			
0.2160	13822.41	3.7830	3.7830	-0.8504	6.71	0.71	-0.750			
0.2185	13986.80	3.7800	3.7800	-0.8614	6.72	0.72	-0.750			
0.2212	14154.61	3.7770	3.7771	-0.8716	6.73	0.73	-0.750			
0.2238	14324.99	3.7740	3.7740	-0.8678	6.74	0.74	-0.750			
0.2265	14493.87	3.7710	3.7709	-0.8630	6.75	0.75	-0.750			
0.2291	14661.72	3.7680	3.7681	-0.8586	6.76	0.76	-0.750			
0.2316	14823.07	3.7650	3.7651	-0.8476	6.76	0.76	-0.750			
0.2341	14980.87	3.7620	3.7620	-0.8538	6.77	0.77	-0.750			
0.2367	15146.12	3.7590	3.7589	-0.8573	6.79	0.79	-0.750			
0.2392	15311.35	3.7560	3.7558	-0.8597	6.80	0.80	-0.750			
0.2419	15478.97	3.7530	3.7529	-0.8616	6.81	0.81	-0.750			
0.2445	15646.29	3.7500	3.7500	-0.8656	6.82	0.82	-0.750			
0.2471	15811.38	3.7470	3.7471	-0.8676	6.82	0.82	-0.750			
0.2496	15975.20	3.7440	3.7438	-0.8617	6.83	0.83	-0.750			
0.2522	16138.59	3.7410	3.7409	-0.8560	6.84	0.84	-0.750			
0.2548	16306.69	3.7380	3.7381	-0.8694	6.85	0.85	-0.750			
0.2574	16472.79	3.7350	3.7351	-0.8739	6.86	0.86	-0.750			
0.2600	16642.72	3.7320	3.7320	-0.8856	6.87	0.87	-0.750			
0.2627	16813.88	3.7290	3.7289	-0.8829	6.88	0.88	-0.750			
0.2654	16982.99	3.7260	3.7260	-0.8813	6.89	0.89	-0.750			
0.2680	17154.17	3.7230	3.7231	-0.8902	6.90	0.90	-0.750			
0.2707	17324.31	3.7200	3.7201	-0.8929	6.91	0.91	-0.750			
0.2733	17493.89	3.7170	3.7169	-0.8936	6.92	0.92	-0.750			
0.2760	17665.50	3.7140	3.7140	-0.8990	6.93	0.93	-0.750			
0.2787	17838.90	3.7110	3.7110	-0.9021	6.93	0.93	-0.750			
0.2815	18015.17	3.7080	3.7080	-0.9101	6.94	0.94	-0.750			
0.2842	18191.30	3.7050	3.7050	-0.9143	6.95	0.95	-0.750			
0.2870	18364.98	3.7020	3.7020	-0.9182	6.96	0.96	-0.750			
0.2897	18542.47	3.6990	3.6989	-0.9182	6.96	0.96	-0.750			
0.2925	18719.64	3.6960	3.6961	-0.9219	6.97	0.97	-0.750			
0.2952	18895.11	3.6930	3.6930	-0.9330	6.98	0.98	-0.750			
0.2981	19075.41	3.6900	3.6901	-0.9375	6.98	0.98	-0.750			
0.3009	19255.87	3.6870	3.6869	-0.9418	6.99	0.99	-0.750			
0.3037	19435.77	3.6840	3.6841	-0.9529	7.00	1.00	-0.750			
0.3066	19620.11	3.6810	3.6809	-0.9600	7.00	1.00	-0.750			
0.3095	19808.40	3.6780	3.6780	-0.9802	7.01	1.01	-0.750			
0.3125	20000.00	3.6750	3.6750	-0.9842	7.02	1.02	-0.750			
0.3155	20190.18	3.6720	3.6719	-0.9862	7.03	1.03	-0.750			
0.3185	20382.13	3.6690	3.6693	-0.9881	7.04	1.04	-0.750			
0.3214	20570.45	3.6660	3.6660	-0.9905	7.05	1.05	-0.750			
0.3243	20757.60	3.6630	3.6629	-0.9911	7.06	1.06	-0.750			
0.3273	20944.47	3.6600	3.6600	-0.9886	7.07	1.07	-0.750			
0.3303	21138.44	3.6570	3.6572	-1.0120	7.08	1.08	-0.750			
0.3334	21334.58	3.6540	3.6540	-1.0205	7.08	1.08	-0.750			
0.3364	21532.21	3.6510	3.6510	-1.0329	7.09	1.09	-0.750			
0.3396	21732.45	3.6480	3.6479	-1.0386	7.09	1.09	-0.750			
0.3427	21932.81	3.6450	3.6451	-1.0494	7.10	1.10	-0.750			
0.3458	22133.60	3.6420	3.6420	-1.0608	7.11	1.11	-0.750			
0.3490	22338.59	3.6390	3.6390	-1.0699	7.11	1.11	-0.750			
0.3523	22545.09	3.6360	3.6359	-1.0801	7.12	1.12	-0.750			
0.3555	22752.74	3.6330	3.6331	-1.0968	7.13	1.13	-0.750			
0.3588	22962.48	3.6300	3.6301	-1.1129	7.14	1.14	-0.750			
0.3622	23181.63	3.6270	3.6269	-1.1247	7.15	1.15	-0.750			
0.3656	23397.99	3.6240	3.6240	-1.1279	7.16	1.16	-0.750			
0.3690	23615.80	3.6210	3.6211	-1.1333	7.17	1.17	-0.750			
0.3724	23834.18	3.6180	3.6180	-1.1414	7.17	1.17	-0.750			
0.3758	24052.70	3.6150	3.6150	-1.1459	7.18	1.18	-0.750			
0.3792	24271.25	3.6120	3.6119	-1.1540	7.18	1.18	-0.750			
0.3827	24492.20	3.6090	3.6090	-1.1721	7.19	1.19	-0.750			
0.3863	24722.50	3.6060	3.6059	-1.1938	7.19	1.19	-0.750			
0.3899	24954.64	3.6030	3.6029	-1.2094	7.20	1.20	-0.750			
0.3936	25188.75	3.6000	3.6001	-1.2128	7.21	1.21	-0.750			
0.3973	25425.20	3.5970	3.5971	-1.2229	7.22	1.22	-0.750	0.409	0.931	
0.4010	25661.01	3.5940	3.5940	-1.2253	7.22	1.22	-0.750			
0.4046	25892.01	3.5910	3.5909	-1.2299	7.23	1.23	-0.750			
0.4082	26126.56	3.5880	3.5880	-1.2393	7.23	1.23	-0.750			
0.4120	26368.83	3.5850	3.5850	-1.2563	7.24	1.24	-0.750			
0.4158	26609.18	3.5820	3.5819	-1.2739	7.25	1.25	-0.750			
0.4196	26855.43	3.5790	3.5790	-1.2924	7.25	1.25	-0.750			
0.4236	27108.21	3.5760	3.5760	-1.3072	7.26	1.26	-0.750			
0.4275	27361.97	3.5730	3.5729	-1.3139	7.27	1.27	-0.750			
0.4315	27614.86	3.5700	3.5701	-1.3235	7.27	1.27	-0.750			
0.4355	27871.74	3.5670	3.5670	-1.3348	7.28	1.28	-0.750			
0.4395	28129.30	3.5640	3.5639	-1.3447	7.28	1.28	-0.750			
0.4435	28385.86	3.5610	3.5611	-1.3561	7.29	1.29	-0.750			
0.4476	28647.81	3.5580	3.5580	-1.3649	7.30	1.30	-0.750			
0.4517	28911.97	3.5550	3.5549	-1.3748	7.30	1.30	-0.750			
0.4559	29177.14	3.5520	3.5521	-1.3904	7.31	1.31	-0.750			
0.4601	29444.11	3.5490	3.5490	-1.4081	7.32	1.32	-0.750			
0.4643	29713.58	3.5460	3.5460	-1.4246	7.32	1.32	-0.750			
0.4686	29991.47	3.5430	3.5431	-1.4367	7.33	1.33	-0.750			
0.4730	30274.68	3.5400	3.5398	-1.4428	7.34	1.34	-0.750			
0.4774	30553.03	3.5370	3.5371	-1.4376	7.35	1.35	-0.750			
0.4817	30826.49	3.5340	3.5341	-1.4443	7.35	1.35	-0.750			
0.4860	31101.93	3.5310	3.5310	-1.4469	7.36	1.36	-0.750			
0.4903	31377.02	3.5280	3.5277	-1.4530	7.37	1.37	-0.750			
0.4945	31651.06	3.5250	3.5251	-1.4694	7.37	1.37	-0.750			
0.4991	31945.41	3.5220	3.5220	-1.4856	7.38	1.38	-0.750			
0.5038	32240.23	3.5190	3.5189	-1.4970	7.39	1.39	-0.750			
0.5081	32521.30	3.5160	3.5164	-1.4864	7.39	1.39	-0.750			
0.5125	32803.15	3.5130	3.5129	-1.4934	7.40	1.40	-0.750			
0.5170	33090.80	3.5100	3.5100	-1.4918	7.41	1.41	-0.750			
0.5216	33381.91	3.5070	3.5069	-1.4712	7.42	1.42	-0.750			
0.5261	33669.83	3.5040	3.5039	-1.4666	7.43	1.43	-0.750			
0.5305	33949.32	3.5010	3.5011	-1.4607	7.44	1.44	-0.750			
0.5347	34219.79	3.4980	3.4980	-1.4633	7.45	1.45	-0.750			
0.5390	34495.23	3.4950	3.4947	-1.4587	7.46	1.46	-0.750			
0.5434	34777.09	3.4920	3.4923	-1.4588	7.47	1.47	-0.750			
0.5479	35065.61	3.4890	3.4887	-1.4798	7.48	1.48	-0.750			
0.5524	35353.54	3.4860	3.4861	-1.4818	7.49	1.49	-0.750			
0.5569	35639.78	3.4830	3.4831	-1.4644	7.49	1.49	-0.750			
0.5613	35921.31	3.4800	3.4799	-1.4476	7.50	1.50	-0.750			
0.5654	36187.11	3.4770	3.4770	-1.4262	7.51	1.51	-0.750			
0.5698	36466.68	3.4740	3.4741	-1.4133	7.52	1.52	-0.750			
0.5740	36738.36	3.4710	3.4709	-1.4041	7.53	1.53	-0.750			
0.5782	37005.38	3.4680	3.4680	-1.3946	7.54	1.54	-0.750			
0.5824	37270.60	3.4650	3.4648	-1.3802	7.56	1.56	-0.750			
0.5865	37535.25	3.4620	3.4620	-1.3825	7.57	1.57	-0.750			
0.5906	37797.58	3.4590	3.4589	-1.3821	7.58	1.58	-0.750			
0.5948	38065.23	3.4560	3.4560	-1.3688	7.59	1.59	-0.750			
0.5990	38333.73	3.4530	3.4529	-1.3693	7.60	1.60	-0.750			
0.6030	38594.09	3.4500	3.4500	-1.3548	7.61	1.61	-0.750			
0.6071	38852.98	3.4470	3.4470	-1.3309	7.63	1.63	-0.750			
0.6111	39108.54	3.4440	3.4439	-1.3139	7.64	1.64	-0.750			
0.6149	39355.36	3.4410	3.4410	-1.2915	7.65	1.65	-0.750			
0.6188	39603.69	3.4380	3.4381	-1.2680	7.66	1.66	-0.750			
0.6226	39847.99	3.4350	3.4350	-1.2526	7.67	1.67	-0.750			
0.6263	40086.39	3.4320	3.4320	-1.2216	7.68	1.68	-0.750			
0.6300	40318.62	3.4290	3.4290	-1.1917	7.69	1.69	-0.750			
0.6335	40545.05	3.4260	3.4259	-1.1703	7.70	1.70	-0.750			
0.6370	40765.97	3.4230	3.4230	-1.1396	7.72	1.72	-0.750			
0.6403	40979.02	3.4200	3.4200	-1.1195	7.73	1.73	-0.750			
0.6436	41191.31	3.4170	3.4171	-1.1142	7.74	1.74	-0.750			
0.6470	41404.83	3.4140	3.4140	-1.0943	7.75	1.75	-0.750			
0.6502	41615.31	3.4110	3.4109	-1.0826	7.76	1.76	-0.750			
0.6535	41825.38	3.4080	3.4080	-1.0559	7.77	1.77	-0.750			
0.6567	42027.16	3.4050	3.4051	-1.0309	7.79	1.79	-0.750			
0.6597	42223.35	3.4020	3.4020	-1.0076	7.80	1.80	-0.750			
0.6627	42411.89	3.3990	3.3990	-0.9706	7.81	1.81	-0.750			
0.6655	42594.13	3.3960	3.3959	-0.9417	7.82	1.82	-0.750			
0.6683	42774.33	3.3930	3.3932	-0.9197	7.83	1.83	-0.750			
0.6711	42947.55	3.3900	3.3900	-0.8935	7.85	1.85	-0.750			
0.6737	43118.67	3.3870	3.3869	-0.8750	7.86	1.86	-0.750			
0.6763	43283.63	3.3840	3.3840	-0.8438	7.87	1.87	-0.750			
0.6788	43443.50	3.3810	3.3809	-0.8267	7.88	1.88	-0.750			
0.6813	43600.05	3.3780	3.3781	-0.8058	7.89	1.89	-0.750			
0.6836	43752.06	3.3750	3.3749	-0.7825	7.90	1.90	-0.750			
0.6859	43899.69	3.3720	3.3720	-0.7650	7.91	1.91	-0.750			
0.6882	44042.62	3.3690	3.3690	-0.7446	7.92	1.92	-0.750			
0.6904	44187.71	3.3660	3.3660	-0.7286	7.93	1.93	-0.750			
0.6926	44327.07	3.3630	3.3630	-0.7080	7.94	1.94	-0.750			
0.6947	44459.58	3.3600	3.3600	-0.6790	7.95	1.95	-0.750			
0.6967	44587.59	3.3570	3.3571	-0.6581	7.96	1.96	-0.750			
0.6986	44710.52	3.3540	3.3540	-0.6422	7.97	1.97	-0.750			
0.7005	44829.84	3.3510	3.3509	-0.6259	7.98	1.98	-0.750			
0.7023	44949.31	3.3480	3.3479	-0.6088	7.99	1.99	-0.750			
0.7041	45065.38	3.3450	3.3451	-0.5975	7.99	1.99	-0.750			
0.7059	45179.84	3.3420	3.3421	-0.5852	8.00	2.00	-0.750			
0.7077	45291.37	3.3390	3.3390	-0.5711	8.01	2.01	-0.750			
0.7093	45398.24	3.3360	3.3359	-0.5542	8.03	2.03	-0.750			
0.7110	45502.96	3.3330	3.3330	-0.5404	8.04	2.04	-0.750			
0.7126	45605.08	3.3300	3.3300	-0.5316	8.05	2.05	-0.750			
0.7142	45707.51	3.3270	3.3269	-0.5194	8.06	2.06	-0.750			
0.7157	45806.14	3.3240	3.3239	-0.5033	8.07	2.07	-0.750			
0.7172	45901.25	3.3210	3.3212	-0.4927	8.08	2.08	-0.750			
0.7187	45994.62	3.3180	3.3181	-0.4809	8.09	2.09	-0.750			
0.7201	46085.74	3.3150	3.3148	-0.4704	8.10	2.10	-0.750			
0.7215	46174.14	3.3120	3.3120	-0.4589	8.11	2.11	-0.750			
0.7228	46260.62	3.3090	3.3091	-0.4472	8.12	2.12	-0.750			
0.7242	46347.12	3.3060	3.3061	-0.4376	8.13	2.13	-0.750			
0.7255	46430.36	3.3030	3.3030	-0.4278	8.13	2.13	-0.750			
0.7267	46510.23	3.3000	3.3000	-0.4174	8.14	2.14	-0.750			
0.7280	46588.91	3.2970	3.2970	-0.4083	8.15	2.15	-0.750			
0.7292	46666.52	3.2940	3.2938	-0.3993	8.16	2.16	-0.750			
0.7304	46742.62	3.2910	3.2912	-0.3912	8.17	2.17	-0.750			
0.7315	46816.96	3.2880	3.2881	-0.3855	8.18	2.18	-0.750			
0.7327	46891.22	3.2850	3.2850	-0.3784	8.19	2.19	-0.750			
0.7338	46962.85	3.2820	3.2819	-0.3688	8.19	2.19	-0.750			
0.7349	47031.70	3.2790	3.2790	-0.3599	8.20	2.20	-0.750			
0.7359	47100.36	3.2760	3.2761	-0.3536	8.21	2.21	-0.750			
0.7370	47168.18	3.2730	3.2729	-0.3468	8.22	2.22	-0.750			
0.7380	47233.08	3.2700	3.2700	-0.3407	8.22	2.22	-0.750			
0.7390	47297.78	3.2670	3.2670	-0.3332	8.23	2.23	-0.750			
0.7400	47361.08	3.2640	3.2640	-0.3306	8.24	2.24	-0.750			
0.7410	47424.23	3.2610	3.2610	-0.3260	8.25	2.25	-0.750			
0.7420	47486.37	3.2580	3.2580	-0.3205	8.25	2.25	-0.750			
0.7429	47547.95	3.2550	3.2551	-0.3141	8.26	2.26	-0.750			
0.7439	47608.24	3.2520	3.2521	-0.3084	8.27	2.27	-0.750			
0.7448	47666.08	3.2490	3.2490	-0.3029	8.28	2.28	-0.750			
0.7457	47723.74	3.2460	3.2460	-0.2981	8.29	2.29	-0.750			
0.7466	47779.40	3.2430	3.2429	-0.2913	8.30	2.30	-0.750			
0.7474	47834.86	3.2400	3.2400	-0.2887	8.30	2.30	-0.750			
0.7483	47890.57	3.2370	3.2371	-0.2853	8.31	2.31	-0.750			
0.7491	47945.36	3.2340	3.2339	-0.2807	8.32	2.32	-0.750			
0.7500	47999.03	3.2310	3.2310	-0.2749	8.33	2.33	-0.750			
0.7508	48050.85	3.2280	3.2281	-0.2699	8.34	2.34	-0.750			
0.7516	48102.06	3.2250	3.2250	-0.2663	8.34	2.34	-0.750			
0.7524	48153.00	3.2220	3.2219	-0.2607	8.35	2.35	-0.750			
0.7532	48201.86	3.2190	3.2190	-0.2555	8.36	2.36	-0.750			
0.7539	48250.69	3.2160	3.2161	-0.2529	8.37	2.37	-0.750			
0.7547	48299.20	3.2130	3.2129	-0.2495	8.37	2.37	-0.750			
0.7554	48346.80	3.2100	3.2100	-0.2456	8.38	2.38	-0.750			
0.7561	48393.16	3.2070	3.2070	-0.2426	8.39	2.39	-0.750			
0.7569	48439.15	3.2040	3.2042	-0.2394	8.40	2.40	-0.750			
0.7576	48485.60	3.2010	3.2009	-0.2382	8.40	2.40	-0.750			
0.7583	48530.90	3.1980	3.1979	-0.2337	8.41	2.41	-0.750			
0.7590	48575.48	3.1950	3.1950	-0.2298	8.42	2.42	-0.750			
0.7597	48619.11	3.1920	3.1921	-0.2266	8.43	2.43	-0.750			
0.7603	48662.29	3.1890	3.1890	-0.2232	8.43	2.43	-0.750			
0.7610	48704.90	3.1860	3.1861	-0.2212	8.44	2.44	-0.750			
0.7617	48746.54	3.1830	3.1829	-0.2178	8.45	2.45	-0.750			
0.7623	48788.04	3.1800	3.1800	-0.2157	8.45	2.45	-0.750			
0.7630	48829.30	3.1770	3.1770	-0.2141	8.46	2.46	-0.750			
0.7636	48870.55	3.1740	3.1740	-0.2115	8.47	2.47	-0.750			
0.7642	48911.21	3.1710	3.1710	-0.2085	8.48	2.48	-0.750			
0.7649	48950.81	3.1680	3.1680	-0.2055	8.48	2.48	-0.750			
0.7655	48989.80	3.1650	3.1651	-0.2031	8.49	2.49	-0.750			
0.7661	49028.33	3.1620	3.1619	-0.2003	8.49	2.49	-0.750			
0.7667	49066.55	3.1590	3.1590	-0.1980	8.50	2.50	-0.750			
0.7673	49104.09	3.1560	3.1560	-0.1957	8.50	2.50	-0.750			
0.7678	49141.81	3.1530	3.1530	-0.1939	8.51	2.51	-0.750			
0.7684	49178.82	3.1500	3.1500	-0.1916	8.52	2.52	-0.750			
0.7690	49215.52	3.1470	3.1470	-0.1898	8.52	2.52	-0.750			
0.7696	49251.41	3.1440	3.1441	-0.1883	8.53	2.53	-0.750			
0.7701	49287.39	3.1410	3.1409	-0.1862	8.54	2.54	-0.750			
0.7707	49323.00	3.1380	3.1380	-0.1848	8.55	2.55	-0.750			
0.7712	49358.45	3.1350	3.1350	-0.1829	8.55	2.55	-0.750			
0.7718	49393.37	3.1320	3.1321	-0.1814	8.56	2.56	-0.750			
0.7723	49428.28	3.1290	3.1290	-0.1800	8.57	2.57	-0.750			
0.7729	49462.62	3.1260	3.1260	-0.1778	8.57	2.57	-0.750			
0.7734	49496.49	3.1230	3.1229	-0.1755	8.58	2.58	-0.750			
0.7739	49529.62	3.1200	3.1200	-0.1738	8.59	2.59	-0.750			
0.7744	49562.91	3.1170	3.1170	-0.1730	8.59	2.59	-0.750			
0.7749	49596.13	3.1140	3.1140	-0.1714	8.60	2.60	-0.750			
0.7755	49628.88	3.1110	3.1109	-0.1699	8.61	2.61	-0.750			
0.7760	49661.42	3.1080	3.1080	-0.1677	8.61	2.61	-0.750			
0.7765	49693.62	3.1050	3.1051	-0.1664	8.62	2.62	-0.750			
0.7770	49725.18	3.1020	3.1020	-0.1647	8.63	2.63	-0.750			
0.7774	49756.68	3.0990	3.0990	-0.1630	8.63	2.63	-0.750			
0.7779	49787.43	3.0960	3.0959	-0.1613	8.64	2.64	-0.750			
0.7784	49818.07	3.0930	3.0929	-0.1603	8.65	2.65	-0.750			
0.7789	49848.95	3.0900	3.0901	-0.1598	8.65	2.65	-0.750			
0.7794	49879.57	3.0870	3.0869	-0.1591	8.66	2.66	-0.750			
0.7798	49910.24	3.0840	3.0840	-0.1581	8.66	2.66	-0.750			
0.7803	49940.51	3.0810	3.0810	-0.1571	8.67	2.67	-0.750			
0.7808	49970.55	3.0780	3.0781	-0.1559	8.68	2.68	-0.750			
0.7813	50000.53	3.0750	3.0749	-0.1535	8.68	2.68	-0.750			
0.7817	50029.89	3.0720	3.0720	-0.1521	8.69	2.69	-0.750			
0.7822	50058.68	3.0690	3.0691	-0.1504	8.70	2.70	-0.750			
0.7826	50087.42	3.0660	3.0660	-0.1490	8.70	2.70	-0.750			
0.7831	50115.72	3.0630	3.0630	-0.1482	8.71	2.71	-0.750			
0.7835	50143.90	3.0600	3.0600	-0.1474	8.72	2.72	-0.750			
0.7839	50172.15	3.0570	3.0571	-0.1464	8.72	2.72	-0.750			
0.7844	50200.24	3.0540	3.0539	-0.1461	8.73	2.73	-0.750			
0.7848	50228.67	3.0510	3.0510	-0.1451	8.74	2.74	-0.750			
0.7853	50256.39	3.0480	3.0480	-0.1439	8.74	2.74	-0.750			
0.7857	50283.80	3.0450	3.0450	-0.1428	8.75	2.75	-0.750			
0.7861	50311.10	3.0420	3.0421	-0.1416	8.75	2.75	-0.750			
0.7865	50337.97	3.0390	3.0389	-0.1408	8.76	2.76	-0.750			
0.7870	50364.88	3.0360	3.0359	-0.1397	8.77	2.77	-0.750			
0.7874	50391.65	3.0330	3.0330	-0.1391	8.77	2.77	-0.750			
0.7878	50418.24	3.0300	3.0300	-0.1389	8.78	2.78	-0.750			
0.7882	50444.85	3.0270	3.0271	-0.1388	8.78	2.78	-0.750			
0.7886	50471.55	3.0240	3.0239	-0.1381	8.79	2.79	-0.750			
0.7890	50498.01	3.0210	3.0210	-0.1375	8.80	2.80	-0.750			
0.7894	50524.45	3.0180	3.0180	-0.1367	8.80	2.80	-0.750			
0.7899	50550.69	3.0150	3.0151	-0.1359	8.81	2.81	-0.750			
0.7903	50576.91	3.0120	3.0120	-0.1351	8.81	2.81	-0.750			
0.7907	50602.70	3.0090	3.0089	-0.1336	8.82	2.82	-0.750			
0.7911	50628.11	3.0060	3.0060	-0.1324	8.83	2.83	-0.750			
0.7915	50653.45	3.0030	3.0031	-0.1333	8.83	2.83	-0.750			
