Ah_balance (normalized)	Ah_balance (mAh)	Voltage - fit (V)	Voltage -  interpolate (V)	dQ/dV (1/V)	Temperature (°C)	Temperature - diff (°C)	Current (C)	R_DC 0ms (mOhm)	R_DC 50ms (mOhm)	R_DC 50 ms PEC (mOhm)
0.0966	6181.34	4.1980	4.1936	0.8461	8.58	2.37	0.750	0.433	0.994	
0.0994	6359.55	4.1950	4.1962	0.9347	8.57	2.36	0.750			
0.1021	6536.29	4.1920	4.1927	0.8925	8.57	2.36	0.750			
0.1047	6703.17	4.1890	4.1892	0.8441	8.56	2.35	0.750			
0.1075	6879.34	4.1860	4.1855	0.8338	8.55	2.34	0.750			
0.1094	7001.25	4.1830	4.1830	0.7396	8.55	2.34	0.750			
0.1116	7141.80	4.1800	4.1800	0.7390	8.54	2.33	0.750			
0.1138	7283.79	4.1770	4.1770	0.7413	8.54	2.33	0.750			
0.1160	7425.86	4.1740	4.1740	0.7461	8.53	2.32	0.750			
0.1183	7568.52	4.1710	4.1710	0.7496	8.53	2.32	0.750			
0.1205	7714.52	4.1680	4.1681	0.7545	8.53	2.32	0.750			
0.1228	7860.54	4.1650	4.1649	0.7566	8.52	2.31	0.750			
0.1251	8004.88	4.1620	4.1621	0.7603	8.52	2.31	0.750			
0.1273	8148.91	4.1590	4.1591	0.7661	8.51	2.30	0.750			
0.1296	8296.70	4.1560	4.1558	0.7746	8.51	2.30	0.750			
0.1320	8446.56	4.1530	4.1530	0.7794	8.51	2.30	0.750			
0.1343	8598.33	4.1500	4.1499	0.7856	8.50	2.29	0.750			
0.1368	8752.62	4.1470	4.1472	0.7928	8.50	2.29	0.750			
0.1391	8904.56	4.1440	4.1440	0.7944	8.50	2.29	0.750			
0.1415	9056.41	4.1410	4.1410	0.7864	8.49	2.28	0.750			
0.1439	9207.24	4.1380	4.1380	0.7841	8.49	2.28	0.750			
0.1462	9358.14	4.1350	4.1350	0.7805	8.48	2.27	0.750			
0.1486	9507.80	4.1320	4.1320	0.7743	8.48	2.27	0.750			
0.1509	9654.93	4.1290	4.1290	0.7755	8.47	2.26	0.750			
0.1532	9802.30	4.1260	4.1261	0.7752	8.46	2.25	0.750			
0.1554	9948.80	4.1230	4.1229	0.7820	8.46	2.25	0.750			
0.1578	10101.76	4.1200	4.1200	0.7911	8.46	2.25	0.750			
0.1602	10254.23	4.1170	4.1170	0.7920	8.45	2.24	0.750			
0.1626	10407.94	4.1140	4.1141	0.7972	8.45	2.24	0.750			
0.1650	10562.81	4.1110	4.1111	0.8009	8.44	2.23	0.750			
0.1674	10716.24	4.1080	4.1079	0.8015	8.44	2.23	0.750			
0.1698	10870.20	4.1050	4.1050	0.8010	8.44	2.23	0.750			
0.1722	11022.75	4.1020	4.1020	0.8028	8.43	2.22	0.750			
0.1747	11178.10	4.0990	4.0991	0.8101	8.43	2.22	0.750			
0.1771	11333.53	4.0960	4.0959	0.8107	8.42	2.21	0.750			
0.1795	11489.47	4.0930	4.0929	0.8113	8.42	2.21	0.750			
0.1820	11645.11	4.0900	4.0901	0.8155	8.42	2.21	0.750			
0.1844	11801.67	4.0870	4.0871	0.8233	8.41	2.20	0.750			
0.1869	11960.65	4.0840	4.0840	0.8355	8.40	2.19	0.750			
0.1894	12122.89	4.0810	4.0809	0.8281	8.40	2.19	0.750			
0.1919	12283.02	4.0780	4.0781	0.8352	8.39	2.18	0.750			
0.1945	12445.85	4.0750	4.0751	0.8312	8.39	2.18	0.750			
0.1970	12605.40	4.0720	4.0718	0.8228	8.38	2.17	0.750			
0.1994	12759.97	4.0690	4.0690	0.8206	8.38	2.17	0.750			
0.2018	12914.02	4.0660	4.0660	0.8316	8.38	2.17	0.750			
0.2043	13072.64	4.0630	4.0629	0.8370	8.37	2.16	0.750			
0.2068	13236.72	4.0600	4.0600	0.8551	8.37	2.16	0.750			
0.2094	13401.67	4.0570	4.0570	0.8575	8.36	2.15	0.750			
0.2120	13570.88	4.0540	4.0539	0.8628	8.36	2.15	0.750			
0.2147	13738.57	4.0510	4.0511	0.8624	8.35	2.14	0.750			
0.2172	13902.24	4.0480	4.0480	0.8591	8.35	2.14	0.750			
0.2198	14064.06	4.0450	4.0449	0.8559	8.34	2.13	0.750			
0.2224	14230.83	4.0420	4.0420	0.8580	8.34	2.13	0.750			
0.2249	14392.43	4.0390	4.0391	0.8631	8.33	2.12	0.750			
0.2275	14559.66	4.0360	4.0360	0.8705	8.33	2.12	0.750			
0.2301	14727.60	4.0330	4.0327	0.8781	8.32	2.11	0.750			
0.2328	14897.58	4.0300	4.0300	0.8769	8.31	2.10	0.750			
0.2354	15065.90	4.0270	4.0270	0.8795	8.31	2.10	0.750			
0.2381	15235.23	4.0240	4.0241	0.8832	8.30	2.09	0.750			
0.2407	15405.99	4.0210	4.0210	0.8869	8.29	2.08	0.750			
0.2433	15573.21	4.0180	4.0180	0.8828	8.29	2.08	0.750			
0.2460	15745.72	4.0150	4.0149	0.8801	8.28	2.07	0.750			
0.2486	15913.54	4.0120	4.0121	0.8823	8.28	2.07	0.750			
0.2513	16083.28	4.0090	4.0090	0.8879	8.28	2.07	0.750			
0.2539	16251.89	4.0060	4.0062	0.8926	8.27	2.06	0.750			
0.2566	16423.75	4.0030	4.0029	0.9014	8.27	2.06	0.750			
0.2593	16597.81	4.0000	4.0000	0.9047	8.26	2.05	0.750			
0.2621	16774.14	3.9970	3.9971	0.9121	8.25	2.04	0.750			
0.2649	16952.75	3.9940	3.9940	0.9183	8.25	2.04	0.750			
0.2676	17127.32	3.9910	3.9909	0.9096	8.24	2.03	0.750			
0.2703	17301.98	3.9880	3.9881	0.9058	8.23	2.02	0.750			
0.2730	17474.07	3.9850	3.9849	0.9123	8.23	2.02	0.750			
0.2758	17648.71	3.9820	3.9820	0.9179	8.22	2.01	0.750			
0.2785	17823.20	3.9790	3.9792	0.9260	8.21	2.00	0.750			
0.2813	18003.47	3.9760	3.9761	0.9351	8.21	2.00	0.750			
0.2842	18186.60	3.9730	3.9730	0.9471	8.20	1.99	0.750			
0.2870	18370.26	3.9700	3.9699	0.9506	8.20	1.99	0.750			
0.2899	18553.11	3.9670	3.9672	0.9513	8.19	1.98	0.750			
0.2927	18735.42	3.9640	3.9639	0.9586	8.19	1.98	0.750			
0.2957	18921.66	3.9610	3.9609	0.9542	8.18	1.97	0.750			
0.2985	19103.80	3.9580	3.9580	0.9638	8.17	1.96	0.750			
0.3014	19290.13	3.9550	3.9552	0.9758	8.16	1.95	0.750			
0.3044	19480.67	3.9520	3.9517	0.9831	8.15	1.94	0.750			
0.3074	19671.27	3.9490	3.9492	0.9795	8.14	1.93	0.750			
0.3103	19858.25	3.9460	3.9459	0.9819	8.14	1.93	0.750			
0.3132	20045.62	3.9430	3.9431	0.9815	8.13	1.92	0.750			
0.3161	20232.09	3.9400	3.9400	0.9826	8.12	1.91	0.750			
0.3191	20423.99	3.9370	3.9369	0.9899	8.12	1.91	0.750			
0.3221	20612.47	3.9340	3.9341	1.0063	8.11	1.90	0.750			
0.3251	20808.10	3.9310	3.9310	1.0249	8.10	1.89	0.750			
0.3283	21008.74	3.9280	3.9280	1.0457	8.09	1.88	0.750			
0.3314	21211.51	3.9250	3.9250	1.0479	8.09	1.88	0.750			
0.3346	21413.11	3.9220	3.9221	1.0596	8.08	1.87	0.750			
0.3378	21617.90	3.9190	3.9191	1.0714	8.07	1.86	0.750			
0.3410	21826.15	3.9160	3.9160	1.0805	8.06	1.85	0.750			
0.3443	22033.14	3.9130	3.9130	1.0754	8.05	1.84	0.750			
0.3475	22240.99	3.9100	3.9101	1.1003	8.04	1.83	0.750			
0.3508	22453.14	3.9070	3.9070	1.1150	8.03	1.82	0.750			
0.3542	22670.61	3.9040	3.9038	1.1325	8.02	1.81	0.750			
0.3576	22887.14	3.9010	3.9012	1.1400	8.01	1.80	0.750			
0.3611	23107.79	3.8980	3.8979	1.1546	8.00	1.79	0.750			
0.3645	23330.11	3.8950	3.8950	1.1712	7.99	1.78	0.750			
0.3680	23554.98	3.8920	3.8920	1.1695	7.98	1.77	0.750			
0.3716	23781.70	3.8890	3.8891	1.1866	7.97	1.76	0.750			
0.3752	24011.99	3.8860	3.8858	1.2037	7.96	1.75	0.750			
0.3788	24246.16	3.8830	3.8831	1.2184	7.94	1.73	0.750			
0.3825	24480.31	3.8800	3.8799	1.2430	7.93	1.72	0.750			
0.3862	24718.99	3.8770	3.8770	1.2666	7.93	1.72	0.750			
0.3901	24967.26	3.8740	3.8741	1.2830	7.92	1.71	0.750			
0.3940	25215.80	3.8710	3.8710	1.3102	7.91	1.70	0.750			
0.3979	25466.93	3.8680	3.8680	1.3302	7.89	1.68	0.750			
0.4020	25725.40	3.8650	3.8651	1.3362	7.88	1.67	0.750			
0.4059	25980.66	3.8620	3.8619	1.3522	7.87	1.66	0.750			
0.4099	26235.88	3.8590	3.8592	1.3843	7.85	1.64	0.750			
0.4141	26504.01	3.8560	3.8556	1.4136	7.83	1.62	0.750	0.437	1.056	
0.4184	26780.14	3.8530	3.8526	1.4544	7.82	1.61	0.750			
0.4229	27065.57	3.8500	3.8502	1.4755	7.81	1.60	0.750			
0.4275	27357.36	3.8470	3.8471	1.5040	7.80	1.59	0.750			
0.4320	27649.87	3.8440	3.8440	1.5435	7.78	1.57	0.750			
0.4366	27940.82	3.8410	3.8410	1.5408	7.76	1.55	0.750			
0.4412	28238.52	3.8380	3.8378	1.5812	7.74	1.53	0.750			
0.4460	28544.89	3.8350	3.8350	1.6261	7.72	1.51	0.750			
0.4510	28862.84	3.8320	3.8321	1.6635	7.70	1.49	0.750			
0.4561	29188.56	3.8290	3.8288	1.6996	7.69	1.48	0.750			
0.4612	29517.26	3.8260	3.8258	1.7485	7.67	1.46	0.750			
0.4664	29850.80	3.8230	3.8232	1.7928	7.64	1.43	0.750			
0.4719	30201.77	3.8200	3.8199	1.8714	7.62	1.41	0.750			
0.4776	30567.35	3.8170	3.8170	1.8945	7.60	1.39	0.750			
0.4833	30933.87	3.8140	3.8140	1.9372	7.57	1.36	0.750			
0.4894	31321.25	3.8110	3.8113	2.0059	7.55	1.34	0.750			
0.4954	31707.25	3.8080	3.8079	2.0273	7.52	1.31	0.750			
0.5016	32100.47	3.8050	3.8049	2.0617	7.49	1.28	0.750			
0.5077	32493.83	3.8020	3.8020	2.1388	7.47	1.26	0.750			
0.5143	32913.50	3.7990	3.7989	2.2043	7.44	1.23	0.750			
0.5211	33348.41	3.7960	3.7957	2.2535	7.40	1.19	0.750			
0.5280	33793.89	3.7930	3.7931	2.3239	7.37	1.16	0.750			
0.5350	34240.59	3.7900	3.7902	2.4258	7.34	1.13	0.750			
0.5424	34713.98	3.7870	3.7871	2.4835	7.30	1.09	0.750			
0.5502	35211.20	3.7840	3.7841	2.4920	7.26	1.05	0.750			
0.5578	35696.65	3.7810	3.7812	2.5334	7.23	1.02	0.750			
0.5651	36164.46	3.7780	3.7778	2.5126	7.19	0.98	0.750			
0.5725	36637.61	3.7750	3.7749	2.5873	7.16	0.95	0.750			
0.5805	37154.27	3.7720	3.7718	2.7081	7.12	0.91	0.750			
0.5890	37692.84	3.7690	3.7692	2.7918	7.07	0.86	0.750			
0.5974	38231.34	3.7660	3.7659	2.7845	7.02	0.81	0.750			
0.6056	38760.70	3.7630	3.7632	2.7878	6.98	0.77	0.750			
0.6141	39304.03	3.7600	3.7599	2.8722	6.93	0.72	0.750			
0.6228	39862.15	3.7570	3.7569	2.8956	6.89	0.68	0.750			
0.6318	40435.91	3.7540	3.7540	3.0525	6.85	0.64	0.750			
0.6410	41024.22	3.7510	3.7507	3.0958	6.81	0.60	0.750			
0.6504	41623.25	3.7480	3.7481	3.2042	6.76	0.55	0.750			
0.6600	42242.32	3.7450	3.7450	3.2771	6.71	0.50	0.750			
0.6701	42889.22	3.7420	3.7420	3.4530	6.67	0.46	0.750			
0.6807	43564.24	3.7390	3.7390	3.4972	6.62	0.41	0.750			
0.6913	44245.53	3.7360	3.7360	3.5503	6.57	0.36	0.750			
0.7022	44941.07	3.7330	3.7331	3.4288	6.53	0.32	0.750			
0.7123	45588.63	3.7300	3.7300	3.1744	6.49	0.28	0.750			
0.7210	46144.31	3.7270	3.7269	2.7848	6.46	0.25	0.750			
0.7289	46647.65	3.7240	3.7240	2.4819	6.42	0.21	0.750			
0.7359	47095.49	3.7210	3.7209	2.2243	6.40	0.19	0.750			
0.7419	47484.60	3.7180	3.7179	1.9673	6.38	0.17	0.750			
0.7476	47843.95	3.7150	3.7151	1.7759	6.36	0.15	0.750			
0.7525	48157.99	3.7120	3.7122	1.6000	6.35	0.14	0.750			
0.7569	48441.47	3.7090	3.7090	1.4492	6.34	0.13	0.750			
0.7610	48703.93	3.7060	3.7059	1.3388	6.33	0.12	0.750			
0.7648	48945.52	3.7030	3.7031	1.2442	6.32	0.11	0.750			
0.7684	49174.80	3.7000	3.6999	1.1679	6.31	0.10	0.750			
0.7716	49384.29	3.6970	3.6971	1.1115	6.30	0.09	0.750			
0.7748	49586.72	3.6940	3.6940	1.0692	6.29	0.08	0.750			
0.7779	49788.35	3.6910	3.6909	1.0439	6.28	0.07	0.750			
0.7810	49985.28	3.6880	3.6882	1.0218	6.27	0.06	0.750			
0.7841	50180.16	3.6850	3.6851	1.0037	6.26	0.05	0.750			
0.7871	50373.79	3.6820	3.6819	0.9912	6.25	0.04	0.750			
0.7901	50563.99	3.6790	3.6790	0.9682	6.25	0.04	0.750			
0.7929	50745.91	3.6760	3.6760	0.9361	6.24	0.03	0.750			
0.7957	50925.38	3.6730	3.6730	0.9109	6.23	0.02	0.750			
0.7984	51097.81	3.6700	3.6700	0.8870	6.23	0.02	0.750			
0.8010	51264.64	3.6670	3.6670	0.8586	6.23	0.02	0.750			
0.8036	51429.09	3.6640	3.6641	0.8286	6.22	0.01	0.750			
0.8060	51585.03	3.6610	3.6610	0.7936	6.22	0.01	0.750			
0.8084	51735.11	3.6580	3.6581	0.7649	6.22	0.01	0.750			
0.8106	51880.38	3.6550	3.6551	0.7275	6.22	0.01	0.750			
0.8127	52015.34	3.6520	3.6519	0.6911	6.21	0.00	0.750			
0.8147	52143.91	3.6490	3.6490	0.6541	6.21	0.00	0.750			
0.8167	52266.63	3.6460	3.6461	0.6189	6.21	0.00	0.750			
0.8185	52383.41	3.6430	3.6430	0.5797	6.21	-0.00	0.750			
0.8202	52492.66	3.6400	3.6401	0.5380	6.21	-0.00	0.750			
0.8218	52592.09	3.6370	3.6370	0.4885	6.21	-0.00	0.750			
0.8232	52683.74	3.6340	3.6339	0.4427	6.21	-0.00	0.750			
0.8244	52762.06	3.6310	3.6311	0.3862	6.20	-0.01	0.750			
0.8255	52830.12	3.6280	3.6280	0.3357	6.20	-0.01	0.750			
0.8264	52889.68	3.6250	3.6250	0.2853	6.20	-0.01	0.750			
0.8272	52939.55	3.6220	3.6220	0.2363	6.20	-0.01	0.750			
0.8278	52979.80	3.6190	3.6189	0.1879	6.20	-0.01	0.750			
0.8283	53011.20	3.6160	3.6160	0.1407	6.20	-0.01	0.750			
0.8286	53032.94	3.6130	3.6130	0.0937	6.20	-0.01	0.750			
0.8288	53045.99	3.6100	3.6075	0.0482	6.20	-0.01	0.750			
0.8289	53047.21	3.6040	3.6059	-0.0419	6.20	-0.01	0.750			
0.8289	53050.93	3.6070	3.5871	0.0032	6.20	-0.01	0.749			
