Ah_balance (normalized)	Ah_balance (mAh)	Voltage - fit (V)	Voltage -  interpolate (V)	dQ/dV (1/V)	Temperature (°C)	Temperature - diff (°C)	Current (C)	R_DC 0ms (mOhm)	R_DC 50ms (mOhm)	R_DC 50 ms PEC (mOhm)
0.0955	6110.05	4.1980	4.1917	0.6546	8.40	2.22	0.750	0.376	0.807	
0.0977	6249.90	4.1950	4.1969	0.7586	8.40	2.22	0.750			
0.1001	6406.13	4.1920	4.1935	0.7912	8.39	2.21	0.750			
0.1025	6561.40	4.1890	4.1899	0.7873	8.39	2.21	0.750			
0.1048	6709.76	4.1860	4.1864	0.7464	8.38	2.20	0.750			
0.1073	6867.04	4.1830	4.1831	0.7489	8.37	2.19	0.750			
0.1094	6999.95	4.1800	4.1803	0.6931	8.37	2.19	0.750			
0.1114	7132.76	4.1770	4.1769	0.6957	8.36	2.18	0.750			
0.1135	7265.69	4.1740	4.1739	0.6969	8.36	2.18	0.750			
0.1156	7397.34	4.1710	4.1711	0.7000	8.35	2.17	0.750			
0.1177	7533.70	4.1680	4.1680	0.7133	8.35	2.17	0.750			
0.1199	7672.06	4.1650	4.1651	0.7203	8.34	2.16	0.750			
0.1221	7811.37	4.1620	4.1619	0.7237	8.34	2.16	0.750			
0.1242	7951.48	4.1590	4.1591	0.7214	8.33	2.15	0.750			
0.1264	8090.69	4.1560	4.1560	0.7214	8.33	2.15	0.750			
0.1286	8228.30	4.1530	4.1532	0.7255	8.32	2.14	0.750			
0.1307	8367.52	4.1500	4.1499	0.7292	8.32	2.14	0.750			
0.1329	8507.40	4.1470	4.1469	0.7296	8.31	2.13	0.750			
0.1351	8648.18	4.1440	4.1440	0.7353	8.31	2.13	0.750			
0.1374	8790.52	4.1410	4.1411	0.7406	8.30	2.12	0.750			
0.1396	8934.62	4.1380	4.1379	0.7377	8.30	2.12	0.750			
0.1418	9073.15	4.1350	4.1349	0.7416	8.30	2.12	0.750			
0.1440	9215.13	4.1320	4.1322	0.7396	8.29	2.11	0.750			
0.1462	9356.99	4.1290	4.1288	0.7463	8.29	2.11	0.750			
0.1485	9501.89	4.1260	4.1261	0.7555	8.28	2.10	0.750			
0.1508	9648.49	4.1230	4.1231	0.7527	8.28	2.10	0.750			
0.1530	9794.54	4.1200	4.1199	0.7566	8.27	2.09	0.750			
0.1553	9938.45	4.1170	4.1171	0.7560	8.26	2.08	0.750			
0.1576	10083.35	4.1140	4.1140	0.7568	8.26	2.08	0.750			
0.1598	10230.27	4.1110	4.1110	0.7642	8.25	2.07	0.750			
0.1621	10375.85	4.1080	4.1081	0.7644	8.25	2.07	0.750			
0.1644	10523.58	4.1050	4.1050	0.7642	8.24	2.06	0.750			
0.1667	10671.12	4.1020	4.1020	0.7698	8.24	2.06	0.750			
0.1690	10817.69	4.0990	4.0990	0.7715	8.23	2.05	0.750			
0.1713	10965.79	4.0960	4.0959	0.7744	8.23	2.05	0.750			
0.1737	11115.45	4.0930	4.0930	0.7816	8.22	2.04	0.750			
0.1760	11266.66	4.0900	4.0901	0.7805	8.22	2.04	0.750			
0.1784	11417.26	4.0870	4.0869	0.7902	8.21	2.03	0.750			
0.1808	11570.14	4.0840	4.0840	0.7955	8.20	2.02	0.750			
0.1831	11720.94	4.0810	4.0810	0.7962	8.19	2.01	0.750			
0.1855	11873.71	4.0780	4.0781	0.8052	8.19	2.01	0.750			
0.1880	12031.05	4.0750	4.0751	0.8098	8.18	2.00	0.750			
0.1904	12186.79	4.0720	4.0719	0.8151	8.18	2.00	0.750			
0.1929	12344.65	4.0690	4.0690	0.8256	8.18	2.00	0.750			
0.1954	12502.98	4.0660	4.0662	0.8246	8.17	1.99	0.750			
0.1979	12663.37	4.0630	4.0630	0.8236	8.17	1.99	0.750			
0.2004	12823.32	4.0600	4.0600	0.8198	8.16	1.98	0.750			
0.2028	12980.11	4.0570	4.0571	0.8157	8.15	1.97	0.750			
0.2052	13132.94	4.0540	4.0540	0.8257	8.14	1.96	0.750			
0.2076	13288.42	4.0510	4.0510	0.8284	8.13	1.95	0.750			
0.2101	13448.86	4.0480	4.0480	0.8372	8.13	1.95	0.750			
0.2127	13615.64	4.0450	4.0450	0.8465	8.12	1.94	0.750			
0.2153	13779.83	4.0420	4.0421	0.8480	8.12	1.94	0.750			
0.2179	13943.61	4.0390	4.0392	0.8513	8.11	1.93	0.750			
0.2204	14105.28	4.0360	4.0360	0.8440	8.10	1.92	0.750			
0.2229	14264.08	4.0330	4.0329	0.8379	8.10	1.92	0.750			
0.2254	14426.08	4.0300	4.0300	0.8318	8.09	1.91	0.750			
0.2279	14585.59	4.0270	4.0271	0.8381	8.08	1.90	0.750			
0.2304	14746.72	4.0240	4.0240	0.8568	8.08	1.90	0.750			
0.2329	14908.22	4.0210	4.0211	0.8611	8.07	1.89	0.750			
0.2356	15076.28	4.0180	4.0180	0.8725	8.07	1.89	0.750			
0.2383	15249.27	4.0150	4.0149	0.8708	8.06	1.88	0.750			
0.2409	15416.16	4.0120	4.0122	0.8838	8.05	1.87	0.750			
0.2436	15589.13	4.0090	4.0091	0.8870	8.04	1.86	0.750			
0.2462	15757.73	4.0060	4.0056	0.8794	8.03	1.85	0.750			
0.2488	15924.42	4.0030	4.0032	0.8766	8.02	1.84	0.750			
0.2514	16090.33	4.0000	4.0001	0.8852	8.02	1.84	0.750			
0.2541	16261.66	3.9970	3.9970	0.8945	8.01	1.83	0.750			
0.2568	16436.47	3.9940	3.9939	0.9086	8.01	1.83	0.750			
0.2595	16608.56	3.9910	3.9909	0.9050	8.00	1.82	0.750			
0.2623	16787.46	3.9880	3.9880	0.9061	7.99	1.81	0.750			
0.2650	16962.62	3.9850	3.9850	0.9115	7.98	1.80	0.750			
0.2677	17135.79	3.9820	3.9821	0.9117	7.97	1.79	0.750			
0.2704	17307.11	3.9790	3.9790	0.9141	7.96	1.78	0.750			
0.2732	17484.53	3.9760	3.9760	0.9218	7.96	1.78	0.750			
0.2760	17661.82	3.9730	3.9730	0.9215	7.95	1.77	0.750			
0.2787	17839.93	3.9700	3.9702	0.9343	7.94	1.76	0.750			
0.2816	18021.27	3.9670	3.9670	0.9475	7.94	1.76	0.750			
0.2844	18201.46	3.9640	3.9637	0.9470	7.93	1.75	0.750			
0.2873	18384.18	3.9610	3.9610	0.9440	7.92	1.74	0.750			
0.2901	18563.92	3.9580	3.9582	0.9643	7.91	1.73	0.750			
0.2930	18752.49	3.9550	3.9549	0.9801	7.90	1.72	0.750			
0.2960	18941.03	3.9520	3.9518	0.9791	7.89	1.71	0.750			
0.2989	19130.77	3.9490	3.9490	0.9833	7.88	1.70	0.750			
0.3019	19321.20	3.9460	3.9462	0.9875	7.87	1.69	0.750			
0.3049	19512.35	3.9430	3.9429	0.9944	7.86	1.68	0.750			
0.3079	19702.63	3.9400	3.9400	0.9870	7.85	1.67	0.750			
0.3108	19891.68	3.9370	3.9370	0.9879	7.84	1.66	0.750			
0.3137	20079.51	3.9340	3.9341	1.0078	7.84	1.66	0.750			
0.3168	20274.85	3.9310	3.9310	1.0244	7.83	1.65	0.750			
0.3199	20471.80	3.9280	3.9279	1.0370	7.82	1.64	0.750			
0.3230	20675.01	3.9250	3.9250	1.0466	7.81	1.63	0.750			
0.3262	20879.55	3.9220	3.9221	1.0493	7.80	1.62	0.750			
0.3294	21083.29	3.9190	3.9190	1.0523	7.79	1.61	0.750			
0.3325	21281.49	3.9160	3.9162	1.0613	7.78	1.60	0.750			
0.3357	21483.50	3.9130	3.9129	1.0594	7.77	1.59	0.750			
0.3389	21687.22	3.9100	3.9099	1.0737	7.75	1.57	0.750			
0.3421	21893.21	3.9070	3.9071	1.0950	7.74	1.56	0.750			
0.3454	22106.20	3.9040	3.9040	1.1238	7.73	1.55	0.750			
0.3488	22324.80	3.9010	3.9009	1.1308	7.72	1.54	0.750			
0.3522	22541.70	3.8980	3.8980	1.1455	7.71	1.53	0.750			
0.3557	22763.02	3.8950	3.8952	1.1596	7.69	1.51	0.750			
0.3592	22991.43	3.8920	3.8916	1.1735	7.68	1.50	0.750			
0.3628	23216.73	3.8890	3.8890	1.1877	7.67	1.49	0.750			
0.3663	23444.89	3.8860	3.8861	1.2005	7.65	1.47	0.750			
0.3700	23680.26	3.8830	3.8829	1.2058	7.64	1.46	0.750			
0.3736	23912.34	3.8800	3.8801	1.2120	7.62	1.44	0.750			
0.3772	24142.62	3.8770	3.8770	1.2355	7.61	1.43	0.750			
0.3809	24379.31	3.8740	3.8741	1.2673	7.60	1.42	0.750			
0.3848	24625.09	3.8710	3.8707	1.2725	7.59	1.41	0.750			
0.3887	24873.81	3.8680	3.8681	1.2928	7.58	1.40	0.750	0.384	0.826	
0.3926	25125.95	3.8650	3.8651	1.3166	7.56	1.38	0.750			
0.3966	25383.85	3.8620	3.8616	1.3249	7.55	1.37	0.750			
0.4005	25632.45	3.8590	3.8589	1.3415	7.53	1.35	0.750			
0.4045	25887.01	3.8560	3.8562	1.3745	7.51	1.33	0.750			
0.4087	26155.48	3.8530	3.8528	1.3822	7.49	1.31	0.750			
0.4129	26423.79	3.8500	3.8499	1.4209	7.48	1.30	0.750			
0.4173	26705.77	3.8470	3.8472	1.4437	7.46	1.28	0.750			
0.4217	26988.02	3.8440	3.8438	1.4609	7.44	1.26	0.750			
0.4261	27269.27	3.8410	3.8412	1.4785	7.42	1.24	0.750			
0.4305	27550.32	3.8380	3.8381	1.5042	7.40	1.22	0.750			
0.4350	27838.14	3.8350	3.8351	1.5295	7.38	1.20	0.750			
0.4396	28136.67	3.8320	3.8320	1.5672	7.36	1.18	0.750			
0.4444	28439.60	3.8290	3.8289	1.5858	7.34	1.16	0.750			
0.4492	28750.58	3.8260	3.8261	1.6062	7.32	1.14	0.750			
0.4541	29059.85	3.8230	3.8230	1.6402	7.30	1.12	0.750			
0.4590	29375.69	3.8200	3.8199	1.6461	7.28	1.10	0.750			
0.4640	29694.38	3.8170	3.8169	1.6566	7.26	1.08	0.750			
0.4689	30010.49	3.8140	3.8141	1.6863	7.24	1.06	0.750			
0.4740	30337.90	3.8110	3.8110	1.7210	7.22	1.04	0.750			
0.4793	30675.58	3.8080	3.8079	1.7413	7.19	1.01	0.750			
0.4846	31014.22	3.8050	3.8050	1.7608	7.17	0.99	0.750			
0.4899	31355.47	3.8020	3.8021	1.8046	7.15	0.97	0.750			
0.4954	31704.44	3.7990	3.7988	1.8159	7.13	0.95	0.750			
0.5008	32053.38	3.7960	3.7960	1.8512	7.10	0.92	0.750			
0.5064	32410.63	3.7930	3.7933	1.8449	7.08	0.90	0.750			
0.5120	32769.24	3.7900	3.7901	1.8825	7.05	0.87	0.750			
0.5176	33128.25	3.7870	3.7871	1.9055	7.02	0.84	0.750			
0.5234	33498.45	3.7840	3.7839	1.9319	6.98	0.80	0.750			
0.5292	33870.25	3.7810	3.7811	1.9821	6.96	0.78	0.750			
0.5353	34259.29	3.7780	3.7779	2.0193	6.94	0.76	0.750			
0.5415	34655.26	3.7750	3.7750	2.0311	6.91	0.73	0.750			
0.5475	35042.02	3.7720	3.7720	2.0584	6.89	0.71	0.750			
0.5537	35437.16	3.7690	3.7689	2.1197	6.86	0.68	0.750			
0.5600	35842.40	3.7660	3.7659	2.1852	6.83	0.65	0.750			
0.5667	36268.45	3.7630	3.7631	2.3198	6.80	0.62	0.750			
0.5739	36727.88	3.7600	3.7599	2.4271	6.77	0.59	0.750			
0.5813	37204.05	3.7570	3.7571	2.4878	6.74	0.56	0.750			
0.5889	37692.73	3.7540	3.7540	2.5863	6.71	0.53	0.750			
0.5967	38191.81	3.7510	3.7509	2.6518	6.68	0.50	0.750			
0.6048	38707.59	3.7480	3.7480	2.7777	6.64	0.46	0.750			
0.6133	39248.80	3.7450	3.7450	3.0172	6.61	0.43	0.750			
0.6227	39850.79	3.7420	3.7419	3.1003	6.58	0.40	0.750			
0.6324	40473.60	3.7390	3.7393	3.0982	6.54	0.36	0.750			
0.6414	41050.41	3.7360	3.7360	2.9540	6.51	0.33	0.750			
0.6498	41585.68	3.7330	3.7327	2.7854	6.48	0.30	0.750			
0.6584	42136.84	3.7300	3.7300	2.6821	6.45	0.27	0.750			
0.6663	42645.63	3.7270	3.7271	2.4285	6.43	0.25	0.750			
0.6729	43066.97	3.7240	3.7240	2.1111	6.41	0.23	0.750			
0.6786	43432.86	3.7210	3.7206	1.8250	6.39	0.21	0.750			
0.6837	43757.61	3.7180	3.7177	1.5927	6.37	0.19	0.750			
0.6880	44029.22	3.7150	3.7150	1.4242	6.36	0.18	0.750			
0.6917	44267.47	3.7120	3.7121	1.3002	6.35	0.17	0.750			
0.6953	44501.66	3.7090	3.7089	1.2103	6.34	0.16	0.750			
0.6988	44725.97	3.7060	3.7060	1.1685	6.33	0.15	0.750			
0.7022	44939.77	3.7030	3.7031	1.1299	6.32	0.14	0.750			
0.7055	45154.21	3.7000	3.7001	1.1136	6.31	0.13	0.750			
0.7089	45369.71	3.6970	3.6967	1.0958	6.30	0.12	0.750			
0.7121	45573.94	3.6940	3.6941	1.0675	6.29	0.11	0.750			
0.7153	45776.59	3.6910	3.6910	1.0533	6.29	0.11	0.750			
0.7184	45979.43	3.6880	3.6881	1.0427	6.28	0.10	0.750			
0.7216	46179.66	3.6850	3.6847	1.0141	6.27	0.09	0.750			
0.7246	46371.68	3.6820	3.6820	0.9853	6.26	0.08	0.750			
0.7275	46557.87	3.6790	3.6791	0.9632	6.26	0.08	0.750			
0.7303	46739.96	3.6760	3.6760	0.9461	6.25	0.07	0.750			
0.7330	46914.42	3.6730	3.6729	0.9269	6.24	0.06	0.750			
0.7358	47091.86	3.6700	3.6700	0.9156	6.24	0.06	0.750			
0.7385	47266.44	3.6670	3.6670	0.9018	6.23	0.05	0.750			
0.7412	47438.70	3.6640	3.6641	0.9054	6.22	0.04	0.750			
0.7439	47608.67	3.6610	3.6612	0.9131	6.22	0.04	0.750			
0.7466	47782.93	3.6580	3.6575	0.9235	6.21	0.03	0.750			
0.7494	47960.88	3.6550	3.6550	0.9242	6.20	0.02	0.750			
0.7522	48142.63	3.6520	3.6520	0.9291	6.20	0.02	0.750			
0.7551	48329.17	3.6490	3.6492	0.9358	6.19	0.01	0.750			
0.7579	48508.33	3.6460	3.6460	0.9145	6.18	0.00	0.750			
0.7607	48683.96	3.6430	3.6430	0.8904	6.18	0.00	0.750			
0.7634	48857.60	3.6400	3.6399	0.8343	6.18	0.00	0.750			
0.7659	49018.39	3.6370	3.6371	0.7737	6.18	0.00	0.750			
0.7683	49171.37	3.6340	3.6340	0.6881	6.18	0.00	0.750			
0.7702	49294.80	3.6310	3.6312	0.5858	6.18	0.00	0.750			
0.7718	49396.93	3.6280	3.6277	0.4714	6.18	0.00	0.750			
0.7728	49461.63	3.6250	3.6255	0.3952	6.18	0.00	0.750			
0.7738	49524.01	3.6220	3.6223	0.2984	6.18	0.00	0.750			
0.7746	49572.53	3.6190	3.6186	0.2356	6.18	0.00	0.750			
0.7751	49604.04	3.6160	3.6149	0.1677	6.18	0.00	0.750			
0.7754	49627.26	3.6130	3.5676	0.1190	6.18	0.00	0.749			
0.7755	49629.54	3.5950	3.5363	-0.1014	6.18	0.00	0.747			
0.7756	49641.48	3.6100	3.3726	0.0766	6.18	0.00	0.736			
0.7757	49645.60	3.5980	3.3161	-0.0658	6.18	0.00	0.732			
0.7758	49652.76	3.6070	3.2179	0.0410	6.18	0.00	0.725			
0.7759	49654.82	3.6010	3.1897	-0.0302	6.18	0.00	0.723			
0.7759	49657.21	3.6040	3.1569	0.0054	6.18	0.00	0.721			
