Ah_balance (normalized)	Ah_balance (mAh)	Voltage - fit (V)	Voltage -  interpolate (V)	dQ/dV (1/V)	Temperature (°C)	Temperature - diff (°C)	Current (C)	R_DC 0ms (mOhm)	R_DC 50ms (mOhm)	R_DC 50 ms PEC (mOhm)
0.0000	0.00	4.0970	4.1272	0.0000	5.99	0.00	-0.749			
0.0000	0.00	4.1000	4.1272	0.0000	5.99	0.00	-0.749			
0.0002	12.85	4.0940	4.0933	-0.0428	5.99	0.00	-0.750			
0.0004	24.18	4.0910	4.0905	-0.0723	5.99	0.00	-0.750			
0.0007	42.36	4.0880	4.0876	-0.0990	5.99	0.00	-0.750			
0.0010	63.96	4.0850	4.0850	-0.1260	5.99	0.00	-0.750			
0.0014	90.73	4.0820	4.0820	-0.1529	5.99	0.00	-0.750			
0.0019	122.71	4.0790	4.0791	-0.1761	5.99	0.00	-0.750			
0.0025	161.06	4.0760	4.0759	-0.2002	5.99	0.00	-0.750			
0.0031	201.22	4.0730	4.0729	-0.2218	5.99	0.00	-0.750			
0.0038	245.55	4.0700	4.0703	-0.2451	5.99	0.00	-0.750			
0.0046	294.35	4.0670	4.0670	-0.2676	5.99	0.00	-0.750			
0.0054	347.70	4.0640	4.0639	-0.2922	5.99	0.00	-0.750			
0.0063	406.15	4.0610	4.0610	-0.3167	5.99	0.00	-0.750			
0.0073	469.23	4.0580	4.0580	-0.3382	5.99	0.00	-0.750			
0.0084	537.35	4.0550	4.0550	-0.3626	5.99	0.00	-0.750			
0.0095	609.19	4.0520	4.0520	-0.3837	5.99	0.00	-0.750			
0.0107	685.10	4.0490	4.0490	-0.4035	5.99	0.00	-0.750			
0.0120	764.90	4.0460	4.0460	-0.4274	5.99	0.00	-0.750			
0.0133	848.84	4.0430	4.0430	-0.4473	5.99	0.00	-0.750			
0.0147	937.81	4.0400	4.0399	-0.4645	5.99	0.00	-0.750			
0.0161	1029.48	4.0370	4.0371	-0.4843	5.99	0.00	-0.750			
0.0175	1122.96	4.0340	4.0340	-0.5007	5.99	0.00	-0.750			
0.0191	1220.54	4.0310	4.0310	-0.5191	6.00	0.01	-0.750			
0.0206	1321.42	4.0280	4.0279	-0.5380	6.00	0.01	-0.750			
0.0223	1425.46	4.0250	4.0249	-0.5533	6.00	0.01	-0.750			
0.0240	1535.66	4.0220	4.0221	-0.5795	6.01	0.02	-0.750			
0.0258	1650.34	4.0190	4.0190	-0.5969	6.01	0.02	-0.750			
0.0276	1768.03	4.0160	4.0159	-0.6091	6.02	0.03	-0.750			
0.0295	1886.83	4.0130	4.0132	-0.6194	6.02	0.03	-0.750			
0.0313	2006.40	4.0100	4.0101	-0.6299	6.03	0.04	-0.750			
0.0333	2128.33	4.0070	4.0069	-0.6384	6.03	0.04	-0.750			
0.0352	2249.84	4.0040	4.0040	-0.6460	6.04	0.05	-0.750			
0.0371	2376.88	4.0010	4.0010	-0.6582	6.05	0.06	-0.750			
0.0392	2506.22	3.9980	3.9980	-0.6686	6.05	0.06	-0.750			
0.0412	2635.02	3.9950	3.9952	-0.6763	6.06	0.07	-0.750			
0.0432	2764.43	3.9920	3.9920	-0.6849	6.07	0.08	-0.750			
0.0452	2895.70	3.9890	3.9889	-0.6907	6.08	0.09	-0.750			
0.0473	3029.85	3.9860	3.9860	-0.6966	6.08	0.09	-0.750			
0.0494	3163.73	3.9830	3.9830	-0.7012	6.09	0.10	-0.750			
0.0516	3303.30	3.9800	3.9801	-0.7009	6.10	0.11	-0.750			
0.0537	3437.44	3.9770	3.9769	-0.6968	6.11	0.12	-0.750			
0.0558	3569.36	3.9740	3.9741	-0.6982	6.12	0.13	-0.750			
0.0579	3702.82	3.9710	3.9708	-0.7007	6.13	0.14	-0.750			
0.0599	3836.24	3.9680	3.9679	-0.7086	6.13	0.14	-0.750			
0.0621	3973.43	3.9650	3.9651	-0.7150	6.14	0.15	-0.750			
0.0643	4112.97	3.9620	3.9619	-0.7215	6.15	0.16	-0.750			
0.0665	4253.43	3.9590	3.9592	-0.7275	6.16	0.17	-0.750			
0.0686	4392.25	3.9560	3.9560	-0.7288	6.17	0.18	-0.750			
0.0708	4531.29	3.9530	3.9530	-0.7312	6.17	0.18	-0.750			
0.0730	4671.63	3.9500	3.9500	-0.7343	6.18	0.19	-0.750			
0.0752	4812.83	3.9470	3.9470	-0.7433	6.19	0.20	-0.750			
0.0775	4958.32	3.9440	3.9439	-0.7402	6.20	0.21	-0.750			
0.0797	5101.64	3.9410	3.9410	-0.7454	6.20	0.21	-0.750			
0.0819	5243.38	3.9380	3.9381	-0.7492	6.21	0.22	-0.750			
0.0842	5386.96	3.9350	3.9351	-0.7503	6.23	0.24	-0.750			
0.0864	5531.28	3.9320	3.9317	-0.7484	6.24	0.25	-0.750			
0.0887	5675.62	3.9290	3.9291	-0.7556	6.25	0.26	-0.750			
0.0910	5821.58	3.9260	3.9261	-0.7534	6.26	0.27	-0.750			
0.0933	5968.25	3.9230	3.9230	-0.7546	6.27	0.28	-0.750			
0.0955	6111.86	3.9200	3.9200	-0.7481	6.28	0.29	-0.750			
0.0977	6255.07	3.9170	3.9171	-0.7436	6.29	0.30	-0.750			
0.1000	6397.78	3.9140	3.9139	-0.7451	6.30	0.31	-0.750			
0.1022	6538.84	3.9110	3.9110	-0.7519	6.31	0.32	-0.750			
0.1044	6682.11	3.9080	3.9081	-0.7626	6.32	0.33	-0.750			
0.1068	6832.63	3.9050	3.9049	-0.7719	6.33	0.34	-0.750			
0.1091	6981.47	3.9020	3.9019	-0.7772	6.34	0.35	-0.750			
0.1114	7132.65	3.8990	3.8993	-0.7783	6.35	0.36	-0.750			
0.1138	7285.81	3.8960	3.8959	-0.7757	6.36	0.37	-0.750			
0.1161	7433.33	3.8930	3.8928	-0.7670	6.37	0.38	-0.750			
0.1184	7577.49	3.8900	3.8900	-0.7568	6.38	0.39	-0.750			
0.1206	7720.29	3.8870	3.8870	-0.7643	6.39	0.40	-0.750			
0.1229	7867.85	3.8840	3.8840	-0.7707	6.40	0.41	-0.750			
0.1252	8014.60	3.8810	3.8810	-0.7770	6.41	0.42	-0.750			
0.1276	8166.72	3.8780	3.8779	-0.7786	6.42	0.43	-0.750			
0.1300	8317.27	3.8750	3.8750	-0.7816	6.43	0.44	-0.750			
0.1323	8467.22	3.8720	3.8721	-0.7867	6.45	0.46	-0.750			
0.1347	8619.06	3.8690	3.8688	-0.7870	6.46	0.47	-0.750			
0.1370	8767.48	3.8660	3.8660	-0.7832	6.47	0.48	-0.750			
0.1394	8920.23	3.8630	3.8630	-0.7866	6.48	0.49	-0.750			
0.1417	9071.54	3.8600	3.8602	-0.7899	6.49	0.50	-0.750			
0.1441	9224.94	3.8570	3.8568	-0.7918	6.50	0.51	-0.750			
0.1465	9375.11	3.8540	3.8541	-0.7951	6.51	0.52	-0.750			
0.1489	9528.09	3.8510	3.8510	-0.7966	6.53	0.54	-0.750			
0.1513	9682.59	3.8480	3.8479	-0.8009	6.54	0.55	-0.750			
0.1537	9836.39	3.8450	3.8452	-0.8022	6.55	0.56	-0.750			
0.1561	9991.98	3.8420	3.8419	-0.8008	6.56	0.57	-0.750			
0.1585	10143.30	3.8390	3.8390	-0.8018	6.57	0.58	-0.750			
0.1609	10297.39	3.8360	3.8360	-0.8008	6.58	0.59	-0.750			
0.1633	10450.66	3.8330	3.8331	-0.7968	6.59	0.60	-0.750			
0.1657	10604.51	3.8300	3.8299	-0.8024	6.61	0.62	-0.750			
0.1681	10758.04	3.8270	3.8271	-0.8033	6.62	0.63	-0.750			
0.1705	10911.17	3.8240	3.8239	-0.8092	6.63	0.64	-0.750			
0.1730	11069.30	3.8210	3.8209	-0.8043	6.64	0.65	-0.750			
0.1754	11224.54	3.8180	3.8180	-0.7943	6.65	0.66	-0.750			
0.1778	11379.46	3.8150	3.8150	-0.7938	6.66	0.67	-0.750			
0.1802	11530.18	3.8120	3.8118	-0.7876	6.67	0.68	-0.750			
0.1824	11675.41	3.8090	3.8090	-0.7872	6.68	0.69	-0.750			
0.1848	11826.48	3.8060	3.8061	-0.7947	6.69	0.70	-0.750			
0.1872	11978.32	3.8030	3.8029	-0.7987	6.70	0.71	-0.750			
0.1896	12135.24	3.8000	3.8000	-0.8144	6.71	0.72	-0.750			
0.1921	12293.89	3.7970	3.7971	-0.8225	6.72	0.73	-0.750			
0.1946	12451.79	3.7940	3.7939	-0.8250	6.73	0.74	-0.750			
0.1971	12611.65	3.7910	3.7910	-0.8284	6.75	0.76	-0.750			
0.1996	12772.25	3.7880	3.7880	-0.8238	6.76	0.77	-0.750			
0.2021	12932.57	3.7850	3.7849	-0.8193	6.77	0.78	-0.750			
0.2045	13088.28	3.7820	3.7821	-0.8187	6.78	0.79	-0.750			
0.2069	13243.15	3.7790	3.7790	-0.8137	6.79	0.80	-0.750			
0.2094	13398.66	3.7760	3.7759	-0.8159	6.80	0.81	-0.750			
0.2118	13554.21	3.7730	3.7730	-0.8166	6.81	0.82	-0.750			
0.2143	13712.61	3.7700	3.7700	-0.8189	6.82	0.83	-0.750			
0.2167	13870.56	3.7670	3.7671	-0.8247	6.83	0.84	-0.750			
0.2192	14030.09	3.7640	3.7639	-0.8280	6.84	0.85	-0.750			
0.2217	14187.82	3.7610	3.7610	-0.8293	6.85	0.86	-0.750			
0.2242	14347.40	3.7580	3.7580	-0.8323	6.86	0.87	-0.750			
0.2267	14507.99	3.7550	3.7550	-0.8372	6.87	0.88	-0.750			
0.2292	14669.53	3.7520	3.7521	-0.8392	6.88	0.89	-0.750			
0.2317	14831.70	3.7490	3.7489	-0.8422	6.89	0.90	-0.750			
0.2343	14992.75	3.7460	3.7460	-0.8412	6.90	0.91	-0.750			
0.2368	15154.75	3.7430	3.7430	-0.8411	6.91	0.92	-0.750			
0.2393	15315.72	3.7400	3.7399	-0.8492	6.92	0.93	-0.750			
0.2419	15479.72	3.7370	3.7371	-0.8466	6.93	0.94	-0.750			
0.2444	15641.99	3.7340	3.7339	-0.8464	6.94	0.95	-0.750			
0.2469	15804.64	3.7310	3.7311	-0.8512	6.96	0.97	-0.750			
0.2495	15968.28	3.7280	3.7281	-0.8542	6.97	0.98	-0.750			
0.2521	16134.35	3.7250	3.7248	-0.8604	6.98	0.99	-0.750			
0.2547	16298.30	3.7220	3.7221	-0.8640	6.99	1.00	-0.750			
0.2572	16461.17	3.7190	3.7191	-0.8707	7.00	1.01	-0.750			
0.2599	16632.77	3.7160	3.7159	-0.8715	7.01	1.02	-0.750			
0.2625	16800.63	3.7130	3.7130	-0.8730	7.02	1.03	-0.750			
0.2651	16968.95	3.7100	3.7101	-0.8770	7.03	1.04	-0.750			
0.2678	17136.70	3.7070	3.7069	-0.8791	7.04	1.05	-0.750			
0.2704	17304.90	3.7040	3.7039	-0.8863	7.05	1.06	-0.750			
0.2730	17474.20	3.7010	3.7010	-0.8948	7.06	1.07	-0.750			
0.2757	17646.55	3.6980	3.6980	-0.9006	7.07	1.08	-0.750			
0.2785	17822.84	3.6950	3.6949	-0.9161	7.08	1.09	-0.750			
0.2812	17998.77	3.6920	3.6920	-0.9221	7.09	1.10	-0.750			
0.2840	18178.55	3.6890	3.6889	-0.9247	7.10	1.11	-0.750			
0.2868	18355.79	3.6860	3.6860	-0.9297	7.11	1.12	-0.750			
0.2896	18534.10	3.6830	3.6830	-0.9357	7.12	1.13	-0.750			
0.2924	18715.84	3.6800	3.6800	-0.9372	7.13	1.14	-0.750			
0.2953	18896.95	3.6770	3.6768	-0.9410	7.14	1.15	-0.750			
0.2981	19076.59	3.6740	3.6741	-0.9423	7.15	1.16	-0.750			
0.3009	19258.55	3.6710	3.6710	-0.9471	7.16	1.17	-0.750			
0.3038	19441.36	3.6680	3.6681	-0.9519	7.17	1.18	-0.750			
0.3066	19622.33	3.6650	3.6650	-0.9517	7.18	1.19	-0.750			
0.3095	19805.60	3.6620	3.6621	-0.9563	7.18	1.19	-0.750			
0.3124	19990.72	3.6590	3.6590	-0.9656	7.19	1.20	-0.750			
0.3152	20174.20	3.6560	3.6559	-0.9848	7.20	1.21	-0.750			
0.3182	20363.18	3.6530	3.6529	-1.0025	7.21	1.22	-0.750			
0.3212	20558.71	3.6500	3.6499	-1.0146	7.22	1.23	-0.750			
0.3243	20757.62	3.6470	3.6472	-1.0304	7.23	1.24	-0.750			
0.3275	20958.71	3.6440	3.6440	-1.0326	7.24	1.25	-0.750			
0.3306	21159.88	3.6410	3.6409	-1.0403	7.25	1.26	-0.750			
0.3337	21358.61	3.6380	3.6380	-1.0381	7.26	1.27	-0.750			
0.3368	21555.30	3.6350	3.6350	-1.0378	7.27	1.28	-0.750			
0.3399	21754.98	3.6320	3.6319	-1.0473	7.28	1.29	-0.750			
0.3431	21957.20	3.6290	3.6290	-1.0592	7.28	1.29	-0.750			
0.3463	22160.73	3.6260	3.6259	-1.0689	7.29	1.30	-0.750			
0.3495	22368.64	3.6230	3.6231	-1.0765	7.30	1.31	-0.750			
0.3527	22575.82	3.6200	3.6200	-1.0816	7.31	1.32	-0.750			
0.3560	22785.12	3.6170	3.6171	-1.0916	7.32	1.33	-0.750			
0.3593	22994.98	3.6140	3.6140	-1.0948	7.33	1.34	-0.750			
0.3626	23203.74	3.6110	3.6109	-1.1037	7.34	1.35	-0.750			
0.3659	23415.98	3.6080	3.6081	-1.1115	7.35	1.36	-0.750			
0.3692	23630.71	3.6050	3.6050	-1.1316	7.35	1.36	-0.750			
0.3727	23852.03	3.6020	3.6019	-1.1432	7.36	1.37	-0.750			
0.3762	24074.04	3.5990	3.5990	-1.1532	7.37	1.38	-0.750			
0.3796	24297.21	3.5960	3.5961	-1.1562	7.37	1.38	-0.750			
0.3832	24521.91	3.5930	3.5929	-1.1604	7.38	1.39	-0.750			
0.3866	24743.73	3.5900	3.5907	-1.1588	7.38	1.39	-0.750	0.397	0.858	
0.3900	24961.89	3.5870	3.5869	-1.1750	7.39	1.40	-0.750			
0.3936	25187.88	3.5840	3.5839	-1.1902	7.40	1.41	-0.750			
0.3972	25417.86	3.5810	3.5809	-1.1983	7.41	1.42	-0.750			
0.4008	25651.25	3.5780	3.5781	-1.2117	7.42	1.43	-0.750			
0.4045	25890.08	3.5750	3.5751	-1.2105	7.43	1.44	-0.750			
0.4082	26121.76	3.5720	3.5720	-1.2051	7.43	1.44	-0.750			
0.4117	26347.07	3.5690	3.5691	-1.2112	7.44	1.45	-0.750			
0.4152	26573.53	3.5660	3.5659	-1.2391	7.44	1.45	-0.750			
0.4190	26813.22	3.5630	3.5628	-1.2589	7.45	1.46	-0.750			
0.4228	27058.46	3.5600	3.5600	-1.2896	7.46	1.47	-0.750			
0.4268	27314.40	3.5570	3.5569	-1.3028	7.46	1.47	-0.750			
0.4308	27569.32	3.5540	3.5540	-1.3098	7.47	1.48	-0.750			
0.4348	27824.37	3.5510	3.5510	-1.3090	7.48	1.49	-0.750			
0.4386	28071.92	3.5480	3.5479	-1.2975	7.49	1.50	-0.750			
0.4424	28313.44	3.5450	3.5451	-1.2999	7.50	1.51	-0.750			
0.4464	28569.80	3.5420	3.5420	-1.3171	7.51	1.52	-0.750			
0.4504	28822.68	3.5390	3.5389	-1.3184	7.51	1.52	-0.750			
0.4544	29079.66	3.5360	3.5361	-1.3245	7.52	1.53	-0.750			
0.4583	29332.98	3.5330	3.5331	-1.3349	7.53	1.54	-0.750			
0.4623	29589.85	3.5300	3.5300	-1.3419	7.54	1.55	-0.750			
0.4664	29847.47	3.5270	3.5271	-1.3460	7.55	1.56	-0.750			
0.4704	30105.36	3.5240	3.5239	-1.3519	7.56	1.57	-0.750			
0.4745	30369.98	3.5210	3.5210	-1.3487	7.56	1.57	-0.750			
0.4786	30629.23	3.5180	3.5181	-1.3591	7.57	1.58	-0.750			
0.4827	30890.05	3.5150	3.5150	-1.3619	7.58	1.59	-0.750			
0.4867	31148.63	3.5120	3.5120	-1.3541	7.58	1.59	-0.750			
0.4908	31410.27	3.5090	3.5090	-1.3513	7.59	1.60	-0.750			
0.4949	31670.85	3.5060	3.5061	-1.3444	7.60	1.61	-0.750			
0.4989	31930.93	3.5030	3.5030	-1.3421	7.61	1.62	-0.750			
0.5029	32187.15	3.5000	3.5001	-1.3451	7.62	1.63	-0.750			
0.5069	32442.92	3.4970	3.4969	-1.3304	7.63	1.64	-0.750			
0.5109	32697.28	3.4940	3.4939	-1.3292	7.64	1.65	-0.750			
0.5149	32951.76	3.4910	3.4911	-1.3378	7.65	1.66	-0.750			
0.5189	33210.85	3.4880	3.4880	-1.3352	7.66	1.67	-0.750			
0.5230	33470.37	3.4850	3.4848	-1.3353	7.67	1.68	-0.750			
0.5269	33723.90	3.4820	3.4820	-1.3321	7.68	1.69	-0.750			
0.5309	33978.92	3.4790	3.4791	-1.3178	7.68	1.69	-0.750			
0.5349	34236.47	3.4760	3.4759	-1.3212	7.69	1.70	-0.750			
0.5389	34488.52	3.4730	3.4730	-1.2989	7.70	1.71	-0.750			
0.5427	34734.32	3.4700	3.4700	-1.2772	7.71	1.72	-0.750			
0.5465	34978.94	3.4670	3.4670	-1.2697	7.72	1.73	-0.750			
0.5503	35219.11	3.4640	3.4640	-1.2577	7.73	1.74	-0.750			
0.5540	35456.37	3.4610	3.4611	-1.2514	7.74	1.75	-0.750			
0.5578	35696.86	3.4580	3.4580	-1.2602	7.75	1.76	-0.750			
0.5616	35939.43	3.4550	3.4550	-1.2577	7.76	1.77	-0.750			
0.5654	36183.03	3.4520	3.4519	-1.2670	7.77	1.78	-0.750			
0.5692	36429.82	3.4490	3.4490	-1.2607	7.78	1.79	-0.750			
0.5730	36671.27	3.4460	3.4460	-1.2495	7.79	1.80	-0.750			
0.5767	36911.46	3.4430	3.4429	-1.2325	7.80	1.81	-0.750			
0.5804	37146.58	3.4400	3.4400	-1.2139	7.81	1.82	-0.750			
0.5840	37375.94	3.4370	3.4370	-1.1957	7.83	1.84	-0.750			
0.5876	37604.98	3.4340	3.4340	-1.1824	7.84	1.85	-0.750			
0.5911	37829.61	3.4310	3.4310	-1.1588	7.85	1.86	-0.750			
0.5946	38051.77	3.4280	3.4280	-1.1592	7.86	1.87	-0.750			
0.5980	38272.02	3.4250	3.4251	-1.1496	7.88	1.89	-0.750			
0.6015	38494.10	3.4220	3.4218	-1.1391	7.89	1.90	-0.750			
0.6049	38712.08	3.4190	3.4191	-1.1263	7.90	1.91	-0.750			
0.6083	38928.80	3.4160	3.4160	-1.1044	7.92	1.93	-0.750			
0.6116	39139.94	3.4130	3.4131	-1.0849	7.93	1.94	-0.750			
0.6148	39346.85	3.4100	3.4100	-1.0520	7.94	1.95	-0.750			
0.6180	39549.59	3.4070	3.4070	-1.0326	7.96	1.97	-0.750			
0.6210	39741.58	3.4040	3.4039	-1.0095	7.97	1.98	-0.750			
0.6240	39933.29	3.4010	3.4011	-0.9929	7.98	1.99	-0.750			
0.6269	40121.87	3.3980	3.3979	-0.9730	7.99	2.00	-0.750			
0.6298	40308.25	3.3950	3.3950	-0.9531	8.00	2.01	-0.750			
0.6327	40489.86	3.3920	3.3921	-0.9301	8.02	2.03	-0.750			
0.6354	40666.68	3.3890	3.3890	-0.9111	8.03	2.04	-0.750			
0.6381	40837.91	3.3860	3.3860	-0.8894	8.04	2.05	-0.750			
0.6408	41008.55	3.3830	3.3830	-0.8774	8.06	2.07	-0.750			
0.6433	41172.89	3.3800	3.3799	-0.8598	8.07	2.08	-0.750			
0.6459	41339.07	3.3770	3.3770	-0.8459	8.09	2.10	-0.750			
0.6485	41501.64	3.3740	3.3739	-0.8247	8.10	2.11	-0.750			
0.6509	41658.27	3.3710	3.3710	-0.8099	8.11	2.12	-0.750			
0.6533	41811.02	3.3680	3.3681	-0.7885	8.13	2.14	-0.750			
0.6556	41960.82	3.3650	3.3648	-0.7675	8.14	2.15	-0.750			
0.6579	42106.46	3.3620	3.3620	-0.7478	8.15	2.16	-0.750			
0.6601	42247.48	3.3590	3.3591	-0.7292	8.16	2.17	-0.750			
0.6623	42386.03	3.3560	3.3561	-0.7132	8.18	2.19	-0.750			
0.6644	42522.11	3.3530	3.3528	-0.6960	8.19	2.20	-0.750			
0.6664	42651.79	3.3500	3.3500	-0.6755	8.20	2.21	-0.750			
0.6684	42779.19	3.3470	3.3470	-0.6634	8.21	2.22	-0.750			
0.6704	42906.02	3.3440	3.3441	-0.6503	8.22	2.23	-0.750			
0.6723	43029.54	3.3410	3.3410	-0.6400	8.23	2.24	-0.750			
0.6742	43151.49	3.3380	3.3380	-0.6284	8.24	2.25	-0.750			
0.6761	43271.75	3.3350	3.3350	-0.6172	8.25	2.26	-0.750			
0.6780	43389.39	3.3320	3.3320	-0.5998	8.26	2.27	-0.750			
0.6797	43503.83	3.3290	3.3291	-0.5854	8.28	2.29	-0.750			
0.6815	43614.36	3.3260	3.3260	-0.5690	8.29	2.30	-0.750			
0.6832	43722.38	3.3230	3.3229	-0.5533	8.30	2.31	-0.750			
0.6848	43824.91	3.3200	3.3200	-0.5369	8.31	2.32	-0.750			
0.6864	43926.56	3.3170	3.3170	-0.5276	8.32	2.33	-0.750			
0.6879	44026.73	3.3140	3.3140	-0.5190	8.33	2.34	-0.750			
0.6895	44126.38	3.3110	3.3109	-0.5103	8.35	2.36	-0.750			
0.6910	44223.34	3.3080	3.3080	-0.4989	8.36	2.37	-0.750			
0.6925	44318.20	3.3050	3.3050	-0.4912	8.37	2.38	-0.750			
0.6939	44411.89	3.3020	3.3021	-0.4808	8.38	2.39	-0.750			
0.6954	44502.43	3.2990	3.2989	-0.4700	8.39	2.40	-0.750			
0.6967	44590.70	3.2960	3.2960	-0.4606	8.40	2.41	-0.750			
0.6981	44678.59	3.2930	3.2931	-0.4526	8.41	2.42	-0.750			
0.6994	44764.77	3.2900	3.2899	-0.4469	8.42	2.43	-0.750			
0.7008	44850.84	3.2870	3.2870	-0.4393	8.43	2.44	-0.750			
0.7021	44934.32	3.2840	3.2840	-0.4290	8.45	2.46	-0.750			
0.7034	45016.39	3.2810	3.2810	-0.4221	8.46	2.47	-0.750			
0.7046	45096.14	3.2780	3.2780	-0.4128	8.47	2.48	-0.750			
0.7058	45173.45	3.2750	3.2750	-0.4047	8.48	2.49	-0.750			
0.7070	45250.75	3.2720	3.2719	-0.3979	8.48	2.49	-0.750			
0.7082	45325.91	3.2690	3.2690	-0.3930	8.49	2.50	-0.750			
0.7094	45401.46	3.2660	3.2661	-0.3886	8.50	2.51	-0.750			
0.7106	45476.76	3.2630	3.2629	-0.3810	8.51	2.52	-0.750			
0.7117	45548.94	3.2600	3.2601	-0.3729	8.52	2.53	-0.750			
0.7128	45619.49	3.2570	3.2571	-0.3659	8.53	2.54	-0.750			
0.7139	45688.66	3.2540	3.2540	-0.3598	8.54	2.55	-0.750			
0.7150	45757.31	3.2510	3.2509	-0.3524	8.55	2.56	-0.750			
0.7160	45823.47	3.2480	3.2480	-0.3459	8.56	2.57	-0.750			
0.7170	45889.87	3.2450	3.2450	-0.3419	8.57	2.58	-0.750			
0.7180	45955.14	3.2420	3.2420	-0.3375	8.58	2.59	-0.750			
0.7190	46018.82	3.2390	3.2390	-0.3317	8.59	2.60	-0.750			
0.7200	46082.26	3.2360	3.2360	-0.3266	8.60	2.61	-0.750			
0.7210	46144.24	3.2330	3.2330	-0.3236	8.61	2.62	-0.750			
0.7220	46206.75	3.2300	3.2300	-0.3210	8.62	2.63	-0.750			
0.7229	46268.02	3.2270	3.2270	-0.3145	8.63	2.64	-0.750			
0.7239	46328.03	3.2240	3.2240	-0.3110	8.64	2.65	-0.750			
0.7248	46387.32	3.2210	3.2212	-0.3064	8.65	2.66	-0.750			
0.7257	46445.52	3.2180	3.2179	-0.3020	8.66	2.67	-0.750			
0.7266	46502.68	3.2150	3.2151	-0.2998	8.67	2.68	-0.750			
0.7275	46559.12	3.2120	3.2120	-0.2952	8.67	2.68	-0.750			
0.7284	46616.19	3.2090	3.2089	-0.2926	8.68	2.69	-0.750			
0.7293	46673.03	3.2060	3.2060	-0.2904	8.68	2.69	-0.750			
0.7301	46727.88	3.2030	3.2032	-0.2863	8.69	2.70	-0.750			
0.7310	46782.94	3.2000	3.2000	-0.2831	8.70	2.71	-0.750			
0.7318	46836.97	3.1970	3.1969	-0.2785	8.71	2.72	-0.750			
0.7327	46889.82	3.1940	3.1940	-0.2740	8.72	2.73	-0.750			
0.7335	46942.15	3.1910	3.1910	-0.2704	8.73	2.74	-0.750			
0.7343	46993.58	3.1880	3.1880	-0.2662	8.74	2.75	-0.750			
0.7351	47043.90	3.1850	3.1850	-0.2624	8.75	2.76	-0.750			
0.7358	47093.44	3.1820	3.1820	-0.2596	8.76	2.77	-0.750			
0.7366	47143.17	3.1790	3.1790	-0.2576	8.77	2.78	-0.750			
0.7374	47192.53	3.1760	3.1761	-0.2554	8.78	2.79	-0.750			
0.7382	47241.91	3.1730	3.1729	-0.2514	8.79	2.80	-0.750			
0.7389	47289.85	3.1700	3.1699	-0.2484	8.80	2.81	-0.750			
0.7396	47337.09	3.1670	3.1671	-0.2451	8.80	2.81	-0.750			
0.7404	47383.53	3.1640	3.1640	-0.2413	8.81	2.82	-0.750			
0.7411	47429.36	3.1610	3.1609	-0.2379	8.82	2.83	-0.750			
0.7418	47474.56	3.1580	3.1580	-0.2356	8.82	2.83	-0.750			
0.7425	47519.52	3.1550	3.1550	-0.2338	8.83	2.84	-0.750			
0.7432	47564.30	3.1520	3.1520	-0.2323	8.84	2.85	-0.750			
0.7439	47609.12	3.1490	3.1490	-0.2310	8.85	2.86	-0.750			
0.7446	47652.77	3.1460	3.1460	-0.2296	8.86	2.87	-0.750			
0.7453	47696.80	3.1430	3.1430	-0.2287	8.87	2.88	-0.750			
0.7460	47740.87	3.1400	3.1399	-0.2276	8.88	2.89	-0.750			
0.7466	47784.43	3.1370	3.1370	-0.2261	8.89	2.90	-0.750			
0.7473	47827.89	3.1340	3.1340	-0.2236	8.90	2.91	-0.750			
0.7480	47870.89	3.1310	3.1310	-0.2213	8.91	2.92	-0.750			
0.7486	47913.30	3.1280	3.1280	-0.2186	8.92	2.93	-0.750			
0.7493	47954.66	3.1250	3.1250	-0.2163	8.92	2.93	-0.750			
0.7499	47995.70	3.1220	3.1221	-0.2135	8.93	2.94	-0.750			
0.7506	48036.33	3.1190	3.1189	-0.2109	8.94	2.95	-0.750			
0.7512	48076.15	3.1160	3.1160	-0.2101	8.95	2.96	-0.750			
0.7518	48116.71	3.1130	3.1130	-0.2090	8.95	2.96	-0.750			
0.7525	48157.05	3.1100	3.1100	-0.2070	8.96	2.97	-0.750			
0.7531	48196.73	3.1070	3.1068	-0.2052	8.97	2.98	-0.750			
0.7537	48236.25	3.1040	3.1041	-0.2033	8.98	2.99	-0.750			
0.7543	48274.85	3.1010	3.1009	-0.2011	8.99	3.00	-0.750			
0.7549	48313.12	3.0980	3.0980	-0.1993	8.99	3.00	-0.750			
0.7555	48351.27	3.0950	3.0950	-0.1974	9.00	3.01	-0.750			
0.7561	48388.14	3.0920	3.0920	-0.1957	9.01	3.02	-0.750			
0.7567	48425.91	3.0890	3.0890	-0.1953	9.02	3.03	-0.750			
0.7572	48463.50	3.0860	3.0859	-0.1949	9.03	3.04	-0.750			
0.7578	48500.88	3.0830	3.0830	-0.1936	9.04	3.05	-0.750			
0.7584	48537.99	3.0800	3.0800	-0.1924	9.05	3.06	-0.750			
0.7590	48574.84	3.0770	3.0770	-0.1913	9.05	3.06	-0.750			
0.7596	48611.62	3.0740	3.0739	-0.1898	9.06	3.07	-0.750			
0.7601	48647.75	3.0710	3.0710	-0.1882	9.07	3.08	-0.750			
0.7607	48683.59	3.0680	3.0680	-0.1865	9.08	3.09	-0.750			
0.7612	48719.20	3.0650	3.0650	-0.1859	9.09	3.10	-0.750			
0.7618	48754.85	3.0620	3.0621	-0.1847	9.10	3.11	-0.750			
0.7623	48790.17	3.0590	3.0588	-0.1836	9.10	3.11	-0.750			
0.7629	48825.34	3.0560	3.0561	-0.1820	9.11	3.12	-0.750			
0.7634	48860.17	3.0530	3.0531	-0.1809	9.12	3.13	-0.750			
0.7640	48894.60	3.0500	3.0501	-0.1810	9.13	3.14	-0.750			
0.7645	48929.32	3.0470	3.0470	-0.1794	9.14	3.15	-0.750			
0.7651	48963.69	3.0440	3.0439	-0.1787	9.15	3.16	-0.750			
0.7656	48997.98	3.0410	3.0409	-0.1768	9.16	3.17	-0.750			
0.7661	49032.07	3.0380	3.0380	-0.1760	9.17	3.18	-0.750			
0.7667	49065.83	3.0350	3.0350	-0.1737	9.17	3.18	-0.750			
0.7672	49099.32	3.0320	3.0319	-0.1717	9.18	3.19	-0.750			
0.7677	49131.57	3.0290	3.0290	-0.1713	9.19	3.20	-0.750			
0.7682	49163.85	3.0260	3.0261	-0.1696	9.20	3.21	-0.750			
0.7687	49196.83	3.0230	3.0228	-0.1693	9.21	3.22	-0.750			
0.7692	49229.26	3.0200	3.0200	-0.1685	9.21	3.22	-0.750			
0.7697	49261.55	3.0170	3.0171	-0.1681	9.22	3.23	-0.750			
0.7702	49293.56	3.0140	3.0141	-0.1680	9.23	3.24	-0.750			
0.7707	49326.02	3.0110	3.0109	-0.1681	9.24	3.25	-0.750			
0.7712	49358.24	3.0080	3.0079	-0.1675	9.25	3.26	-0.750			
0.7717	49389.78	3.0050	3.0050	-0.1700	9.25	3.26	-0.750			
0.7722	49422.68	3.0020	3.0020	-0.1738	9.26	3.27	-0.750			
