Ah_balance (normalized)	Ah_balance (mAh)	Voltage - fit (V)	Voltage -  interpolate (V)	dQ/dV (1/V)	Temperature (°C)	Temperature - diff (°C)	Current (C)	R_DC 0ms (mOhm)	R_DC 50ms (mOhm)	R_DC 50 ms PEC (mOhm)
0.0000	0.00	4.0880	4.1323	0.0000	5.97	-0.02	-0.750			
0.0000	0.00	4.0910	4.1323	0.0000	5.97	-0.02	-0.750			
0.0000	0.00	4.0940	4.1323	0.0000	5.97	-0.02	-0.750			
0.0001	6.62	4.0850	4.0900	-0.0470	5.97	-0.02	-0.750			
0.0003	19.77	4.0820	4.0823	-0.0729	5.97	-0.02	-0.750			
0.0006	36.89	4.0790	4.0789	-0.0978	5.97	-0.02	-0.750			
0.0009	58.12	4.0760	4.0759	-0.1233	5.97	-0.02	-0.750			
0.0013	84.42	4.0730	4.0731	-0.1465	5.98	-0.01	-0.750			
0.0018	114.94	4.0700	4.0701	-0.1693	5.98	-0.01	-0.750			
0.0024	150.78	4.0670	4.0670	-0.1952	5.98	-0.01	-0.750			
0.0030	190.67	4.0640	4.0641	-0.2181	5.98	-0.01	-0.750			
0.0037	234.66	4.0610	4.0610	-0.2403	5.98	-0.01	-0.750			
0.0044	283.39	4.0580	4.0579	-0.2617	5.98	-0.01	-0.750			
0.0053	336.01	4.0550	4.0551	-0.2810	5.98	-0.01	-0.750			
0.0061	391.58	4.0520	4.0520	-0.3013	5.98	-0.01	-0.750			
0.0071	451.63	4.0490	4.0490	-0.3232	5.98	-0.01	-0.750			
0.0080	514.04	4.0460	4.0458	-0.3453	5.99	-0.00	-0.750			
0.0091	583.02	4.0430	4.0430	-0.3679	5.99	-0.00	-0.750			
0.0103	656.37	4.0400	4.0401	-0.3928	5.99	-0.00	-0.750			
0.0115	735.00	4.0370	4.0369	-0.4161	5.99	0.00	-0.750			
0.0128	818.00	4.0340	4.0340	-0.4353	5.99	0.00	-0.750			
0.0141	902.92	4.0310	4.0310	-0.4532	6.00	0.01	-0.750			
0.0155	991.62	4.0280	4.0281	-0.4715	6.00	0.01	-0.750			
0.0169	1082.57	4.0250	4.0250	-0.4926	6.00	0.01	-0.750			
0.0184	1180.49	4.0220	4.0219	-0.5131	6.00	0.01	-0.750			
0.0200	1280.54	4.0190	4.0190	-0.5311	6.01	0.02	-0.750			
0.0216	1385.02	4.0160	4.0160	-0.5501	6.01	0.02	-0.750			
0.0234	1494.60	4.0130	4.0131	-0.5706	6.01	0.02	-0.750			
0.0251	1605.74	4.0100	4.0100	-0.5837	6.02	0.03	-0.750			
0.0268	1718.18	4.0070	4.0069	-0.5980	6.02	0.03	-0.750			
0.0287	1834.13	4.0040	4.0041	-0.6101	6.03	0.04	-0.750			
0.0305	1954.26	4.0010	4.0009	-0.6223	6.03	0.04	-0.750			
0.0324	2074.71	3.9980	3.9980	-0.6250	6.04	0.05	-0.750			
0.0343	2196.30	3.9950	3.9951	-0.6324	6.05	0.06	-0.750			
0.0362	2316.62	3.9920	3.9921	-0.6431	6.05	0.06	-0.750			
0.0381	2440.50	3.9890	3.9889	-0.6521	6.06	0.07	-0.750			
0.0401	2567.02	3.9860	3.9859	-0.6572	6.07	0.08	-0.750			
0.0421	2695.11	3.9830	3.9830	-0.6685	6.08	0.09	-0.750			
0.0441	2825.59	3.9800	3.9801	-0.6746	6.09	0.10	-0.750			
0.0462	2956.72	3.9770	3.9769	-0.6750	6.10	0.11	-0.750			
0.0482	3085.29	3.9740	3.9742	-0.6759	6.11	0.12	-0.750			
0.0502	3214.36	3.9710	3.9710	-0.6768	6.12	0.13	-0.750			
0.0522	3342.49	3.9680	3.9681	-0.6869	6.12	0.13	-0.750			
0.0543	3475.19	3.9650	3.9649	-0.6962	6.13	0.14	-0.750			
0.0564	3609.87	3.9620	3.9620	-0.7047	6.14	0.15	-0.750			
0.0585	3746.13	3.9590	3.9590	-0.7136	6.14	0.15	-0.750			
0.0607	3886.07	3.9560	3.9562	-0.7204	6.15	0.16	-0.750			
0.0629	4024.72	3.9530	3.9529	-0.7215	6.16	0.17	-0.750			
0.0650	4162.68	3.9500	3.9501	-0.7242	6.17	0.18	-0.750			
0.0672	4302.41	3.9470	3.9469	-0.7189	6.18	0.19	-0.750			
0.0694	4441.69	3.9440	3.9440	-0.7200	6.19	0.20	-0.750			
0.0716	4579.63	3.9410	3.9410	-0.7162	6.20	0.21	-0.750			
0.0737	4714.37	3.9380	3.9381	-0.7183	6.21	0.22	-0.750			
0.0758	4852.86	3.9350	3.9349	-0.7208	6.22	0.23	-0.750			
0.0780	4988.91	3.9320	3.9320	-0.7250	6.23	0.24	-0.750			
0.0801	5129.55	3.9290	3.9289	-0.7259	6.24	0.25	-0.750			
0.0824	5271.36	3.9260	3.9261	-0.7340	6.25	0.26	-0.750			
0.0846	5413.24	3.9230	3.9229	-0.7311	6.26	0.27	-0.750			
0.0868	5552.52	3.9200	3.9199	-0.7360	6.27	0.28	-0.750			
0.0890	5693.59	3.9170	3.9170	-0.7406	6.28	0.29	-0.750			
0.0912	5836.12	3.9140	3.9138	-0.7446	6.29	0.30	-0.750			
0.0934	5979.06	3.9110	3.9110	-0.7460	6.30	0.31	-0.750			
0.0957	6124.89	3.9080	3.9082	-0.7482	6.31	0.32	-0.750			
0.0979	6268.77	3.9050	3.9051	-0.7494	6.32	0.33	-0.750			
0.1002	6412.57	3.9020	3.9019	-0.7540	6.33	0.34	-0.750			
0.1024	6554.01	3.8990	3.8989	-0.7479	6.34	0.35	-0.750			
0.1047	6700.09	3.8960	3.8960	-0.7484	6.35	0.36	-0.750			
0.1069	6844.20	3.8930	3.8931	-0.7529	6.36	0.37	-0.750			
0.1092	6989.46	3.8900	3.8901	-0.7564	6.37	0.38	-0.750			
0.1115	7133.92	3.8870	3.8869	-0.7630	6.38	0.39	-0.750			
0.1137	7279.90	3.8840	3.8839	-0.7575	6.40	0.41	-0.750			
0.1160	7425.89	3.8810	3.8810	-0.7581	6.41	0.42	-0.750			
0.1183	7573.01	3.8780	3.8781	-0.7599	6.42	0.43	-0.750			
0.1206	7721.06	3.8750	3.8750	-0.7622	6.44	0.45	-0.750			
0.1229	7865.00	3.8720	3.8720	-0.7561	6.45	0.46	-0.750			
0.1251	8008.80	3.8690	3.8690	-0.7629	6.46	0.47	-0.750			
0.1274	8153.33	3.8660	3.8662	-0.7644	6.47	0.48	-0.750			
0.1298	8305.48	3.8630	3.8628	-0.7659	6.48	0.49	-0.750			
0.1321	8451.73	3.8600	3.8599	-0.7612	6.49	0.50	-0.750			
0.1343	8597.15	3.8570	3.8572	-0.7657	6.49	0.50	-0.750			
0.1366	8743.31	3.8540	3.8541	-0.7687	6.50	0.51	-0.750			
0.1389	8891.69	3.8510	3.8508	-0.7680	6.52	0.53	-0.750			
0.1412	9038.78	3.8480	3.8480	-0.7684	6.53	0.54	-0.750			
0.1435	9187.02	3.8450	3.8451	-0.7723	6.54	0.55	-0.750			
0.1459	9337.08	3.8420	3.8420	-0.7752	6.55	0.56	-0.750			
0.1482	9484.93	3.8390	3.8392	-0.7731	6.56	0.57	-0.750			
0.1505	9631.99	3.8360	3.8360	-0.7717	6.57	0.58	-0.750			
0.1528	9780.44	3.8330	3.8331	-0.7755	6.59	0.60	-0.750			
0.1552	9930.86	3.8300	3.8299	-0.7788	6.60	0.61	-0.750			
0.1575	10082.77	3.8270	3.8270	-0.7729	6.61	0.62	-0.750			
0.1599	10230.44	3.8240	3.8241	-0.7682	6.63	0.64	-0.750			
0.1621	10376.78	3.8210	3.8210	-0.7677	6.64	0.65	-0.750			
0.1644	10522.85	3.8180	3.8179	-0.7665	6.65	0.66	-0.750			
0.1667	10666.85	3.8150	3.8149	-0.7668	6.66	0.67	-0.750			
0.1690	10814.54	3.8120	3.8120	-0.7698	6.67	0.68	-0.750			
0.1713	10966.23	3.8090	3.8089	-0.7738	6.68	0.69	-0.750			
0.1737	11115.19	3.8060	3.8061	-0.7811	6.69	0.70	-0.750			
0.1760	11264.16	3.8030	3.8031	-0.7794	6.70	0.71	-0.750			
0.1784	11414.82	3.8000	3.7999	-0.7776	6.72	0.73	-0.750			
0.1807	11564.38	3.7970	3.7970	-0.7757	6.73	0.74	-0.750			
0.1830	11713.07	3.7940	3.7941	-0.7752	6.74	0.75	-0.750			
0.1853	11861.42	3.7910	3.7910	-0.7807	6.75	0.76	-0.750			
0.1877	12011.95	3.7880	3.7879	-0.7843	6.76	0.77	-0.750			
0.1900	12161.27	3.7850	3.7851	-0.7896	6.77	0.78	-0.750			
0.1924	12314.67	3.7820	3.7819	-0.7941	6.78	0.79	-0.750			
0.1948	12470.26	3.7790	3.7788	-0.7875	6.79	0.80	-0.750			
0.1972	12623.33	3.7760	3.7762	-0.7838	6.81	0.82	-0.750			
0.1995	12770.98	3.7730	3.7729	-0.7845	6.82	0.83	-0.750			
0.2018	12918.10	3.7700	3.7700	-0.7860	6.82	0.83	-0.750			
0.2042	13069.36	3.7670	3.7668	-0.7915	6.83	0.84	-0.750			
0.2065	13218.06	3.7640	3.7641	-0.7953	6.84	0.85	-0.750			
0.2090	13378.44	3.7610	3.7610	-0.8055	6.85	0.86	-0.750			
0.2115	13535.42	3.7580	3.7580	-0.8060	6.86	0.87	-0.750			
0.2139	13690.00	3.7550	3.7550	-0.8014	6.88	0.89	-0.750			
0.2163	13841.66	3.7520	3.7521	-0.7947	6.89	0.90	-0.750			
0.2186	13991.67	3.7490	3.7490	-0.7935	6.90	0.91	-0.750			
0.2210	14145.40	3.7460	3.7459	-0.7973	6.91	0.92	-0.750			
0.2234	14296.31	3.7430	3.7432	-0.8049	6.92	0.93	-0.750			
0.2258	14452.14	3.7400	3.7401	-0.8175	6.93	0.94	-0.750			
0.2283	14611.33	3.7370	3.7369	-0.8331	6.94	0.95	-0.750			
0.2309	14775.85	3.7340	3.7339	-0.8292	6.96	0.97	-0.750			
0.2334	14936.62	3.7310	3.7310	-0.8263	6.97	0.98	-0.750			
0.2358	15094.13	3.7280	3.7284	-0.8228	6.98	0.99	-0.750			
0.2383	15251.63	3.7250	3.7248	-0.8233	6.99	1.00	-0.750			
0.2407	15406.17	3.7220	3.7219	-0.8257	7.00	1.01	-0.750			
0.2431	15561.27	3.7190	3.7189	-0.8294	7.01	1.02	-0.750			
0.2457	15724.82	3.7160	3.7160	-0.8448	7.02	1.03	-0.750			
0.2483	15889.45	3.7130	3.7131	-0.8508	7.03	1.04	-0.750			
0.2508	16054.08	3.7100	3.7099	-0.8555	7.04	1.05	-0.750			
0.2534	16217.81	3.7070	3.7072	-0.8634	7.05	1.06	-0.750			
0.2560	16381.35	3.7040	3.7039	-0.8687	7.06	1.07	-0.750			
0.2586	16551.11	3.7010	3.7010	-0.8765	7.07	1.08	-0.750			
0.2613	16720.02	3.6980	3.6981	-0.8824	7.08	1.09	-0.750			
0.2639	16891.35	3.6950	3.6950	-0.8955	7.09	1.10	-0.750			
0.2666	17064.23	3.6920	3.6919	-0.8990	7.10	1.11	-0.750			
0.2693	17236.32	3.6890	3.6890	-0.9010	7.11	1.12	-0.750			
0.2720	17409.15	3.6860	3.6861	-0.9064	7.13	1.14	-0.750			
0.2747	17583.98	3.6830	3.6829	-0.9094	7.14	1.15	-0.750			
0.2775	17760.25	3.6800	3.6800	-0.9140	7.14	1.15	-0.750			
0.2802	17935.49	3.6770	3.6770	-0.9061	7.15	1.16	-0.750			
0.2829	18107.43	3.6740	3.6740	-0.9045	7.16	1.17	-0.750			
0.2856	18280.92	3.6710	3.6714	-0.9172	7.17	1.18	-0.750			
0.2884	18456.05	3.6680	3.6680	-0.9293	7.18	1.19	-0.750			
0.2912	18636.21	3.6650	3.6648	-0.9309	7.19	1.20	-0.750			
0.2940	18817.31	3.6620	3.6619	-0.9408	7.20	1.21	-0.750			
0.2968	18997.76	3.6590	3.6592	-0.9569	7.21	1.22	-0.750			
0.2998	19184.42	3.6560	3.6560	-0.9660	7.22	1.23	-0.750			
0.3026	19369.00	3.6530	3.6528	-0.9750	7.22	1.23	-0.750			
0.3056	19557.24	3.6500	3.6499	-0.9817	7.23	1.24	-0.750			
0.3085	19746.28	3.6470	3.6471	-0.9905	7.24	1.25	-0.750			
0.3116	19939.87	3.6440	3.6439	-1.0008	7.25	1.26	-0.750			
0.3146	20133.45	3.6410	3.6412	-1.0088	7.26	1.27	-0.750			
0.3176	20328.20	3.6380	3.6379	-1.0052	7.27	1.28	-0.750			
0.3206	20521.46	3.6350	3.6351	-1.0045	7.28	1.29	-0.750			
0.3237	20716.35	3.6320	3.6322	-1.0118	7.29	1.30	-0.750			
0.3267	20910.31	3.6290	3.6290	-1.0147	7.30	1.31	-0.750			
0.3297	21102.96	3.6260	3.6259	-1.0172	7.30	1.31	-0.750			
0.3328	21296.52	3.6230	3.6230	-1.0200	7.31	1.32	-0.750			
0.3358	21493.90	3.6200	3.6202	-1.0366	7.31	1.32	-0.750			
0.3390	21693.83	3.6170	3.6169	-1.0481	7.32	1.33	-0.750			
0.3421	21894.76	3.6140	3.6140	-1.0606	7.33	1.34	-0.750			
0.3453	22100.59	3.6110	3.6110	-1.0672	7.34	1.35	-0.750			
0.3486	22307.30	3.6080	3.6082	-1.0876	7.35	1.36	-0.750			
0.3518	22517.79	3.6050	3.6050	-1.0872	7.36	1.37	-0.750			
0.3551	22728.63	3.6020	3.6020	-1.0916	7.37	1.38	-0.750			
0.3584	22937.81	3.5990	3.5989	-1.0912	7.37	1.38	-0.750			
0.3617	23145.77	3.5960	3.5961	-1.1013	7.38	1.39	-0.750			
0.3650	23357.61	3.5930	3.5930	-1.1061	7.39	1.40	-0.750			
0.3683	23573.19	3.5900	3.5900	-1.1110	7.39	1.40	-0.750			
0.3716	23782.29	3.5870	3.5870	-1.1140	7.40	1.41	-0.750			
0.3750	23999.69	3.5840	3.5839	-1.1378	7.40	1.41	-0.750	0.415	0.811	
0.3784	24218.81	3.5810	3.5809	-1.1450	7.41	1.42	-0.750			
0.3819	24438.93	3.5780	3.5779	-1.1573	7.41	1.42	-0.750			
0.3853	24661.47	3.5750	3.5751	-1.1649	7.42	1.43	-0.750			
0.3889	24891.25	3.5720	3.5720	-1.1731	7.43	1.44	-0.750			
0.3925	25120.78	3.5690	3.5690	-1.1793	7.44	1.45	-0.750			
0.3960	25344.26	3.5660	3.5660	-1.1792	7.44	1.45	-0.750			
0.3995	25568.80	3.5630	3.5631	-1.1935	7.45	1.46	-0.750			
0.4031	25799.02	3.5600	3.5598	-1.2044	7.46	1.47	-0.750			
0.4067	26030.28	3.5570	3.5569	-1.2130	7.47	1.48	-0.750			
0.4104	26265.12	3.5540	3.5542	-1.2272	7.48	1.49	-0.750			
0.4141	26504.76	3.5510	3.5510	-1.2417	7.49	1.50	-0.750			
0.4179	26747.51	3.5480	3.5479	-1.2410	7.49	1.50	-0.750			
0.4216	26984.59	3.5450	3.5450	-1.2359	7.50	1.51	-0.750			
0.4253	27219.61	3.5420	3.5420	-1.2388	7.51	1.52	-0.750			
0.4290	27456.66	3.5390	3.5390	-1.2443	7.51	1.52	-0.750			
0.4327	27693.36	3.5360	3.5359	-1.2481	7.52	1.53	-0.750			
0.4365	27933.91	3.5330	3.5330	-1.2562	7.53	1.54	-0.750			
0.4403	28178.82	3.5300	3.5301	-1.2742	7.54	1.55	-0.750			
0.4441	28425.45	3.5270	3.5269	-1.2907	7.55	1.56	-0.750			
0.4481	28675.45	3.5240	3.5242	-1.3006	7.56	1.57	-0.750			
0.4520	28925.83	3.5210	3.5209	-1.2983	7.57	1.58	-0.750			
0.4559	29180.39	3.5180	3.5179	-1.2858	7.58	1.59	-0.750			
0.4598	29426.86	3.5150	3.5152	-1.2850	7.59	1.60	-0.750			
0.4636	29672.61	3.5120	3.5120	-1.2898	7.59	1.60	-0.750			
0.4674	29915.60	3.5090	3.5089	-1.2785	7.60	1.61	-0.750			
0.4712	30156.87	3.5060	3.5059	-1.2718	7.61	1.62	-0.750			
0.4750	30402.07	3.5030	3.5031	-1.2803	7.62	1.63	-0.750			
0.4790	30653.88	3.5000	3.5000	-1.2912	7.63	1.64	-0.750			
0.4829	30902.87	3.4970	3.4969	-1.2934	7.64	1.65	-0.750			
0.4867	31148.54	3.4940	3.4941	-1.2819	7.65	1.66	-0.750			
0.4906	31396.84	3.4910	3.4911	-1.2812	7.66	1.67	-0.750			
0.4944	31643.61	3.4880	3.4880	-1.2849	7.67	1.68	-0.750			
0.4983	31890.61	3.4850	3.4852	-1.2871	7.68	1.69	-0.750			
0.5021	32136.77	3.4820	3.4820	-1.2831	7.69	1.70	-0.750			
0.5060	32385.81	3.4790	3.4789	-1.2703	7.71	1.72	-0.750			
0.5099	32630.60	3.4760	3.4762	-1.2442	7.72	1.73	-0.750			
0.5136	32868.63	3.4730	3.4730	-1.2399	7.73	1.74	-0.750			
0.5172	33101.72	3.4700	3.4699	-1.2263	7.75	1.76	-0.750			
0.5208	33332.47	3.4670	3.4669	-1.2056	7.76	1.77	-0.750			
0.5244	33561.32	3.4640	3.4641	-1.2128	7.77	1.78	-0.750			
0.5281	33797.02	3.4610	3.4610	-1.2152	7.78	1.79	-0.750			
0.5318	34032.98	3.4580	3.4579	-1.2177	7.79	1.80	-0.750			
0.5354	34264.44	3.4550	3.4552	-1.2121	7.80	1.81	-0.750			
0.5391	34502.84	3.4520	3.4519	-1.2054	7.81	1.82	-0.750			
0.5427	34734.16	3.4490	3.4490	-1.1914	7.83	1.84	-0.750			
0.5463	34963.19	3.4460	3.4460	-1.1782	7.84	1.85	-0.750			
0.5498	35186.23	3.4430	3.4429	-1.1653	7.86	1.87	-0.750			
0.5533	35409.91	3.4400	3.4399	-1.1505	7.87	1.88	-0.750			
0.5567	35626.86	3.4370	3.4370	-1.1306	7.88	1.89	-0.750			
0.5600	35840.94	3.4340	3.4341	-1.1159	7.90	1.91	-0.750			
0.5634	36057.21	3.4310	3.4310	-1.1227	7.91	1.92	-0.750			
0.5667	36269.81	3.4280	3.4279	-1.1120	7.92	1.93	-0.750			
0.5701	36483.71	3.4250	3.4249	-1.1001	7.94	1.95	-0.750			
0.5734	36694.43	3.4220	3.4222	-1.0848	7.95	1.96	-0.750			
0.5766	36905.56	3.4190	3.4191	-1.0799	7.96	1.97	-0.750			
0.5798	37109.48	3.4160	3.4160	-1.0718	7.98	1.99	-0.750			
0.5830	37310.72	3.4130	3.4129	-1.0580	7.99	2.00	-0.750			
0.5862	37514.38	3.4100	3.4101	-1.0423	8.00	2.01	-0.750			
0.5893	37714.63	3.4070	3.4069	-1.0278	8.02	2.03	-0.750			
0.5924	37916.06	3.4040	3.4041	-1.0129	8.03	2.04	-0.750			
0.5954	38106.55	3.4010	3.4010	-0.9898	8.05	2.06	-0.750			
0.5983	38291.62	3.3980	3.3980	-0.9671	8.06	2.07	-0.750			
0.6012	38473.64	3.3950	3.3949	-0.9549	8.08	2.09	-0.750			
0.6040	38654.95	3.3920	3.3919	-0.9393	8.09	2.10	-0.750			
0.6068	38836.15	3.3890	3.3891	-0.9267	8.11	2.12	-0.750			
0.6096	39014.79	3.3860	3.3859	-0.9127	8.12	2.13	-0.750			
0.6123	39188.57	3.3830	3.3830	-0.8947	8.14	2.15	-0.750			
0.6149	39355.30	3.3800	3.3800	-0.8743	8.16	2.17	-0.750			
0.6175	39521.26	3.3770	3.3770	-0.8629	8.17	2.18	-0.750			
0.6201	39685.09	3.3740	3.3739	-0.8440	8.19	2.20	-0.750			
0.6226	39849.37	3.3710	3.3710	-0.8350	8.21	2.22	-0.750			
0.6251	40008.07	3.3680	3.3680	-0.8132	8.22	2.23	-0.750			
0.6276	40163.38	3.3650	3.3650	-0.7979	8.23	2.24	-0.750			
0.6299	40313.41	3.3620	3.3620	-0.7807	8.25	2.26	-0.750			
0.6322	40459.81	3.3590	3.3588	-0.7595	8.26	2.27	-0.750			
0.6345	40604.86	3.3560	3.3560	-0.7427	8.27	2.28	-0.750			
0.6367	40746.03	3.3530	3.3531	-0.7308	8.29	2.30	-0.750			
0.6388	40885.68	3.3500	3.3500	-0.7191	8.30	2.31	-0.750			
0.6410	41022.72	3.3470	3.3469	-0.7046	8.32	2.33	-0.750			
0.6431	41155.49	3.3440	3.3439	-0.6833	8.33	2.34	-0.750			
0.6451	41285.54	3.3410	3.3411	-0.6686	8.35	2.36	-0.750			
0.6471	41412.76	3.3380	3.3380	-0.6573	8.36	2.37	-0.750			
0.6490	41537.19	3.3350	3.3349	-0.6415	8.38	2.39	-0.750			
0.6509	41656.61	3.3320	3.3320	-0.6277	8.39	2.40	-0.750			
0.6528	41776.03	3.3290	3.3290	-0.6199	8.40	2.41	-0.750			
0.6546	41894.51	3.3260	3.3260	-0.6143	8.42	2.43	-0.750			
0.6565	42013.22	3.3230	3.3230	-0.6059	8.43	2.44	-0.750			
0.6583	42129.21	3.3200	3.3199	-0.5935	8.44	2.45	-0.750			
0.6600	42242.88	3.3170	3.3170	-0.5780	8.46	2.47	-0.750			
0.6618	42353.32	3.3140	3.3141	-0.5628	8.47	2.48	-0.750			
0.6634	42458.65	3.3110	3.3110	-0.5452	8.48	2.49	-0.750			
0.6650	42559.51	3.3080	3.3081	-0.5329	8.50	2.51	-0.750			
0.6666	42660.28	3.3050	3.3049	-0.5202	8.51	2.52	-0.750			
0.6681	42758.81	3.3020	3.3019	-0.5159	8.53	2.54	-0.750			
0.6696	42857.48	3.2990	3.2990	-0.5086	8.54	2.55	-0.750			
0.6712	42955.73	3.2960	3.2962	-0.5034	8.55	2.56	-0.750			
0.6727	43051.84	3.2930	3.2931	-0.4938	8.57	2.58	-0.750			
0.6742	43145.99	3.2900	3.2900	-0.4821	8.58	2.59	-0.750			
0.6756	43236.61	3.2870	3.2869	-0.4732	8.59	2.60	-0.750			
0.6770	43325.35	3.2840	3.2841	-0.4687	8.60	2.61	-0.750			
0.6783	43413.37	3.2810	3.2809	-0.4623	8.61	2.62	-0.750			
0.6797	43503.07	3.2780	3.2779	-0.4598	8.62	2.63	-0.750			
0.6811	43591.09	3.2750	3.2750	-0.4557	8.63	2.64	-0.750			
0.6825	43679.62	3.2720	3.2721	-0.4485	8.65	2.66	-0.750			
0.6838	43765.69	3.2690	3.2690	-0.4387	8.66	2.67	-0.750			
0.6851	43848.60	3.2660	3.2660	-0.4243	8.67	2.68	-0.750			
0.6864	43928.64	3.2630	3.2629	-0.4128	8.68	2.69	-0.750			
0.6876	44005.54	3.2600	3.2601	-0.4066	8.69	2.70	-0.750			
0.6888	44082.71	3.2570	3.2569	-0.3996	8.70	2.71	-0.750			
0.6900	44158.67	3.2540	3.2539	-0.3936	8.72	2.73	-0.750			
0.6912	44234.22	3.2510	3.2511	-0.3891	8.73	2.74	-0.750			
0.6923	44308.17	3.2480	3.2480	-0.3858	8.74	2.75	-0.750			
0.6935	44382.30	3.2450	3.2451	-0.3815	8.75	2.76	-0.750			
0.6946	44454.52	3.2420	3.2419	-0.3759	8.77	2.78	-0.750			
0.6957	44525.69	3.2390	3.2391	-0.3714	8.78	2.79	-0.750			
0.6968	44597.19	3.2360	3.2361	-0.3694	8.79	2.80	-0.750			
0.6979	44667.88	3.2330	3.2330	-0.3640	8.80	2.81	-0.750			
0.6990	44738.04	3.2300	3.2299	-0.3583	8.81	2.82	-0.750			
0.7001	44805.86	3.2270	3.2270	-0.3531	8.82	2.83	-0.750			
0.7011	44873.52	3.2240	3.2241	-0.3475	8.83	2.84	-0.750			
0.7022	44939.37	3.2210	3.2210	-0.3415	8.84	2.85	-0.750			
0.7032	45003.80	3.2180	3.2180	-0.3372	8.85	2.86	-0.750			
0.7042	45067.77	3.2150	3.2150	-0.3343	8.87	2.88	-0.750			
0.7052	45132.51	3.2120	3.2119	-0.3301	8.88	2.89	-0.750			
0.7062	45195.58	3.2090	3.2090	-0.3243	8.89	2.90	-0.750			
0.7071	45257.17	3.2060	3.2061	-0.3199	8.90	2.91	-0.750			
0.7081	45318.59	3.2030	3.2029	-0.3161	8.91	2.92	-0.750			
0.7090	45378.38	3.2000	3.1999	-0.3104	8.92	2.93	-0.750			
0.7100	45437.13	3.1970	3.1970	-0.3056	8.92	2.93	-0.750			
0.7109	45494.79	3.1940	3.1941	-0.3023	8.93	2.94	-0.750			
0.7118	45552.92	3.1910	3.1910	-0.3010	8.95	2.96	-0.750			
0.7127	45610.91	3.1880	3.1879	-0.2970	8.96	2.97	-0.750			
0.7135	45667.06	3.1850	3.1850	-0.2938	8.97	2.98	-0.750			
0.7144	45723.47	3.1820	3.1821	-0.2918	8.98	2.99	-0.750			
0.7153	45779.54	3.1790	3.1790	-0.2882	8.99	3.00	-0.750			
0.7162	45834.72	3.1760	3.1759	-0.2862	9.00	3.01	-0.750			
0.7170	45889.09	3.1730	3.1731	-0.2825	9.01	3.02	-0.750			
0.7179	45942.95	3.1700	3.1699	-0.2797	9.02	3.03	-0.750			
0.7187	45996.67	3.1670	3.1671	-0.2763	9.03	3.04	-0.750			
0.7195	46049.14	3.1640	3.1641	-0.2724	9.04	3.05	-0.750			
0.7203	46100.76	3.1610	3.1609	-0.2713	9.05	3.06	-0.750			
0.7211	46152.59	3.1580	3.1579	-0.2698	9.06	3.07	-0.750			
0.7219	46203.96	3.1550	3.1550	-0.2660	9.07	3.08	-0.750			
0.7227	46255.45	3.1520	3.1519	-0.2657	9.08	3.09	-0.750			
0.7235	46306.37	3.1490	3.1492	-0.2631	9.09	3.10	-0.750			
0.7243	46356.93	3.1460	3.1459	-0.2611	9.10	3.11	-0.750			
0.7251	46406.29	3.1430	3.1431	-0.2583	9.11	3.12	-0.750			
0.7259	46455.33	3.1400	3.1400	-0.2559	9.12	3.13	-0.750			
0.7266	46504.62	3.1370	3.1369	-0.2528	9.13	3.14	-0.750			
0.7274	46553.16	3.1340	3.1340	-0.2517	9.14	3.15	-0.750			
0.7281	46600.97	3.1310	3.1311	-0.2482	9.15	3.16	-0.750			
0.7289	46648.43	3.1280	3.1280	-0.2460	9.16	3.17	-0.750			
0.7296	46695.27	3.1250	3.1249	-0.2448	9.18	3.19	-0.750			
0.7303	46742.13	3.1220	3.1220	-0.2423	9.19	3.20	-0.750			
0.7311	46788.30	3.1190	3.1190	-0.2402	9.20	3.21	-0.750			
0.7318	46834.49	3.1160	3.1160	-0.2375	9.21	3.22	-0.750			
0.7325	46880.03	3.1130	3.1132	-0.2371	9.22	3.23	-0.750			
0.7332	46925.11	3.1100	3.1101	-0.2344	9.23	3.24	-0.750			
0.7339	46970.27	3.1070	3.1069	-0.2328	9.24	3.25	-0.750			
0.7346	47014.67	3.1040	3.1039	-0.2304	9.25	3.26	-0.750			
0.7353	47058.64	3.1010	3.1009	-0.2271	9.26	3.27	-0.750			
0.7360	47101.82	3.0980	3.0981	-0.2260	9.27	3.28	-0.750			
0.7366	47145.40	3.0950	3.0950	-0.2246	9.28	3.29	-0.750			
0.7373	47188.19	3.0920	3.0920	-0.2237	9.29	3.30	-0.750			
0.7380	47230.44	3.0890	3.0889	-0.2210	9.30	3.31	-0.750			
0.7386	47273.07	3.0860	3.0860	-0.2208	9.31	3.32	-0.750			
0.7393	47315.37	3.0830	3.0831	-0.2199	9.32	3.33	-0.750			
0.7400	47357.64	3.0800	3.0801	-0.2190	9.33	3.34	-0.750			
0.7406	47399.80	3.0770	3.0769	-0.2185	9.34	3.35	-0.750			
0.7413	47441.49	3.0740	3.0741	-0.2158	9.35	3.36	-0.750			
0.7419	47482.73	3.0710	3.0709	-0.2147	9.36	3.37	-0.750			
0.7426	47523.95	3.0680	3.0681	-0.2131	9.37	3.38	-0.750			
0.7432	47565.02	3.0650	3.0649	-0.2118	9.38	3.39	-0.750			
0.7438	47605.25	3.0620	3.0619	-0.2102	9.39	3.40	-0.750			
0.7445	47645.40	3.0590	3.0590	-0.2092	9.40	3.41	-0.750			
0.7451	47685.09	3.0560	3.0560	-0.2079	9.41	3.42	-0.750			
0.7457	47724.98	3.0530	3.0530	-0.2076	9.41	3.42	-0.750			
0.7463	47765.21	3.0500	3.0500	-0.2060	9.42	3.43	-0.750			
0.7469	47804.36	3.0470	3.0470	-0.2049	9.43	3.44	-0.750			
0.7476	47843.76	3.0440	3.0440	-0.2042	9.44	3.45	-0.750			
0.7482	47882.85	3.0410	3.0411	-0.2029	9.45	3.46	-0.750			
0.7488	47921.70	3.0380	3.0379	-0.2009	9.46	3.47	-0.750			
0.7494	47959.90	3.0350	3.0350	-0.2001	9.47	3.48	-0.750			
0.7500	47997.94	3.0320	3.0321	-0.1993	9.48	3.49	-0.750			
0.7506	48036.19	3.0290	3.0290	-0.1992	9.49	3.50	-0.750			
0.7512	48074.68	3.0260	3.0258	-0.1985	9.50	3.51	-0.750			
0.7518	48112.39	3.0230	3.0230	-0.1975	9.51	3.52	-0.750			
0.7523	48150.39	3.0200	3.0200	-0.1975	9.52	3.53	-0.750			
0.7529	48188.49	3.0170	3.0171	-0.1953	9.53	3.54	-0.750			
0.7535	48226.35	3.0140	3.0139	-0.1938	9.54	3.55	-0.750			
0.7541	48263.29	3.0110	3.0112	-0.1912	9.55	3.56	-0.750			
0.7547	48299.80	3.0080	3.0080	-0.1886	9.56	3.57	-0.750			
0.7552	48335.76	3.0050	3.0049	-0.1860	9.57	3.58	-0.750			
0.7558	48371.09	3.0020	3.0020	-0.1807	9.58	3.59	-0.750			
