Ah_balance (normalized)	Ah_balance (mAh)	Voltage - fit (V)	Voltage -  interpolate (V)	dQ/dV (1/V)	Temperature (°C)	Temperature - diff (°C)	Current (C)	R_DC 0ms (mOhm)	R_DC 50ms (mOhm)	R_DC 50 ms PEC (mOhm)
0.0958	6129.44	4.1990	4.1926	0.3966	8.41	2.32	0.750	0.399	0.807	
0.0972	6222.18	4.1960	4.1981	0.5632	8.41	2.32	0.750			
0.0994	6358.65	4.1930	4.1951	0.7050	8.40	2.31	0.750			
0.1017	6507.49	4.1900	4.1919	0.7640	8.39	2.30	0.750			
0.1042	6669.27	4.1870	4.1881	0.7673	8.38	2.29	0.750			
0.1065	6814.36	4.1840	4.1849	0.7603	8.37	2.28	0.750			
0.1093	6994.02	4.1810	4.1809	0.8022	8.37	2.28	0.750			
0.1113	7120.54	4.1780	4.1779	0.6980	8.36	2.27	0.750			
0.1134	7254.71	4.1750	4.1749	0.7007	8.36	2.27	0.750			
0.1154	7388.52	4.1720	4.1722	0.7027	8.36	2.27	0.750			
0.1175	7522.41	4.1690	4.1690	0.7135	8.35	2.26	0.750			
0.1197	7660.58	4.1660	4.1660	0.7227	8.35	2.26	0.750			
0.1218	7797.30	4.1630	4.1630	0.7223	8.34	2.25	0.750			
0.1241	7940.95	4.1600	4.1599	0.7273	8.33	2.24	0.750			
0.1263	8083.77	4.1570	4.1572	0.7322	8.33	2.24	0.750			
0.1285	8222.88	4.1540	4.1541	0.7299	8.32	2.23	0.750			
0.1307	8362.37	4.1510	4.1509	0.7254	8.31	2.22	0.750			
0.1328	8498.25	4.1480	4.1480	0.7191	8.31	2.22	0.750			
0.1350	8637.06	4.1450	4.1451	0.7281	8.30	2.21	0.750			
0.1372	8777.94	4.1420	4.1420	0.7309	8.30	2.21	0.750			
0.1393	8918.10	4.1390	4.1391	0.7337	8.29	2.20	0.750			
0.1416	9059.72	4.1360	4.1360	0.7376	8.29	2.20	0.750			
0.1438	9201.58	4.1330	4.1327	0.7368	8.28	2.19	0.750			
0.1460	9344.08	4.1300	4.1301	0.7406	8.27	2.18	0.750			
0.1482	9486.52	4.1270	4.1271	0.7423	8.27	2.18	0.750			
0.1505	9628.97	4.1240	4.1240	0.7484	8.26	2.17	0.750			
0.1527	9772.31	4.1210	4.1209	0.7512	8.25	2.16	0.750			
0.1550	9917.52	4.1180	4.1181	0.7503	8.24	2.15	0.750			
0.1572	10063.37	4.1150	4.1151	0.7565	8.24	2.15	0.750			
0.1595	10208.98	4.1120	4.1121	0.7598	8.23	2.14	0.750			
0.1618	10354.59	4.1090	4.1090	0.7628	8.23	2.14	0.750			
0.1641	10500.81	4.1060	4.1059	0.7702	8.23	2.14	0.750			
0.1664	10647.67	4.1030	4.1030	0.7719	8.22	2.13	0.750			
0.1687	10797.75	4.1000	4.0999	0.7771	8.22	2.13	0.750			
0.1711	10948.46	4.0970	4.0970	0.7836	8.21	2.12	0.750			
0.1735	11101.16	4.0940	4.0940	0.7748	8.21	2.12	0.750			
0.1758	11248.01	4.0910	4.0910	0.7781	8.20	2.11	0.750			
0.1781	11396.10	4.0880	4.0880	0.7817	8.20	2.11	0.750			
0.1804	11543.94	4.0850	4.0851	0.7844	8.19	2.10	0.750			
0.1827	11695.56	4.0820	4.0820	0.7955	8.18	2.09	0.750			
0.1852	11852.23	4.0790	4.0790	0.7961	8.18	2.09	0.750			
0.1876	12005.69	4.0760	4.0760	0.7961	8.17	2.08	0.750			
0.1900	12161.18	4.0730	4.0731	0.8053	8.16	2.07	0.750			
0.1924	12312.55	4.0700	4.0702	0.8005	8.15	2.06	0.750			
0.1948	12466.77	4.0670	4.0669	0.8028	8.15	2.06	0.750			
0.1972	12619.48	4.0640	4.0641	0.8057	8.14	2.05	0.750			
0.1996	12775.16	4.0610	4.0612	0.8143	8.14	2.05	0.750			
0.2021	12932.99	4.0580	4.0579	0.8279	8.13	2.04	0.750			
0.2046	13092.27	4.0550	4.0552	0.8327	8.12	2.03	0.750			
0.2071	13253.08	4.0520	4.0521	0.8369	8.12	2.03	0.750			
0.2096	13415.73	4.0490	4.0489	0.8461	8.11	2.02	0.750			
0.2122	13581.03	4.0460	4.0461	0.8482	8.10	2.01	0.750			
0.2147	13743.86	4.0430	4.0430	0.8461	8.09	2.00	0.750			
0.2173	13908.55	4.0400	4.0400	0.8467	8.08	1.99	0.750			
0.2198	14069.07	4.0370	4.0370	0.8382	8.08	1.99	0.750			
0.2223	14229.55	4.0340	4.0340	0.8320	8.07	1.98	0.750			
0.2248	14387.45	4.0310	4.0310	0.8389	8.07	1.98	0.750			
0.2273	14547.75	4.0280	4.0278	0.8386	8.06	1.97	0.750			
0.2298	14709.17	4.0250	4.0251	0.8441	8.05	1.96	0.750			
0.2324	14871.02	4.0220	4.0222	0.8491	8.05	1.96	0.750			
0.2349	15036.35	4.0190	4.0189	0.8541	8.04	1.95	0.750			
0.2375	15200.45	4.0160	4.0160	0.8644	8.03	1.94	0.750			
0.2401	15364.94	4.0130	4.0129	0.8694	8.02	1.93	0.750			
0.2427	15533.06	4.0100	4.0100	0.8689	8.01	1.92	0.750			
0.2453	15701.50	4.0070	4.0070	0.8774	8.01	1.92	0.750			
0.2480	15869.51	4.0040	4.0041	0.8841	8.00	1.91	0.750			
0.2506	16038.73	4.0010	4.0009	0.8984	7.99	1.90	0.750			
0.2533	16212.30	3.9980	3.9979	0.9047	7.99	1.90	0.750			
0.2560	16385.47	3.9950	3.9949	0.9116	7.98	1.89	0.750			
0.2588	16565.40	3.9920	3.9921	0.9084	7.97	1.88	0.750			
0.2616	16739.77	3.9890	3.9890	0.9154	7.96	1.87	0.750			
0.2643	16914.89	3.9860	3.9860	0.9123	7.95	1.86	0.750			
0.2670	17088.29	3.9830	3.9829	0.9065	7.95	1.86	0.750			
0.2697	17261.52	3.9800	3.9800	0.9074	7.94	1.85	0.750			
0.2725	17437.21	3.9770	3.9771	0.9128	7.93	1.84	0.750			
0.2752	17612.62	3.9740	3.9740	0.9158	7.92	1.83	0.750			
0.2780	17789.52	3.9710	3.9710	0.9239	7.91	1.82	0.750			
0.2807	17964.00	3.9680	3.9679	0.9263	7.90	1.81	0.750			
0.2835	18144.77	3.9650	3.9650	0.9334	7.89	1.80	0.750			
0.2863	18324.70	3.9620	3.9620	0.9476	7.88	1.79	0.750			
0.2892	18507.92	3.9590	3.9591	0.9567	7.87	1.78	0.750			
0.2920	18690.45	3.9560	3.9560	0.9663	7.87	1.78	0.750			
0.2950	18879.21	3.9530	3.9531	0.9802	7.86	1.77	0.750			
0.2979	19066.64	3.9500	3.9498	0.9880	7.85	1.76	0.750			
0.3009	19257.25	3.9470	3.9471	1.0042	7.84	1.75	0.750			
0.3040	19456.04	3.9440	3.9440	1.0072	7.83	1.74	0.750			
0.3071	19652.01	3.9410	3.9409	1.0017	7.82	1.73	0.750			
0.3101	19844.68	3.9380	3.9381	0.9882	7.81	1.72	0.750			
0.3129	20026.57	3.9350	3.9352	0.9939	7.80	1.71	0.750			
0.3159	20216.17	3.9320	3.9320	1.0063	7.79	1.70	0.750			
0.3189	20408.41	3.9290	3.9286	1.0161	7.78	1.69	0.750			
0.3219	20602.58	3.9260	3.9261	1.0266	7.77	1.68	0.750			
0.3251	20805.58	3.9230	3.9231	1.0446	7.76	1.67	0.750			
0.3284	21015.04	3.9200	3.9200	1.0572	7.75	1.66	0.750			
0.3315	21215.69	3.9170	3.9169	1.0525	7.74	1.65	0.750			
0.3346	21413.83	3.9140	3.9141	1.0603	7.73	1.64	0.750			
0.3378	21616.18	3.9110	3.9110	1.0740	7.72	1.63	0.750			
0.3410	21824.31	3.9080	3.9080	1.0918	7.71	1.62	0.750			
0.3443	22037.44	3.9050	3.9050	1.1075	7.70	1.61	0.750			
0.3477	22251.19	3.9020	3.9021	1.1222	7.68	1.59	0.750			
0.3511	22470.59	3.8990	3.8990	1.1435	7.67	1.58	0.750			
0.3545	22690.98	3.8960	3.8960	1.1516	7.66	1.57	0.750			
0.3580	22913.43	3.8930	3.8930	1.1519	7.64	1.55	0.750			
0.3615	23134.88	3.8900	3.8901	1.1666	7.63	1.54	0.750			
0.3650	23361.61	3.8870	3.8870	1.1684	7.62	1.53	0.750			
0.3685	23584.22	3.8840	3.8838	1.1860	7.61	1.52	0.750			
0.3720	23808.34	3.8810	3.8810	1.2046	7.60	1.51	0.750			
0.3757	24043.49	3.8780	3.8778	1.2108	7.58	1.49	0.750			
0.3794	24279.12	3.8750	3.8749	1.2348	7.57	1.48	0.750			
0.3831	24516.13	3.8720	3.8722	1.2618	7.55	1.46	0.750			
0.3869	24759.02	3.8690	3.8685	1.2804	7.54	1.45	0.750	0.373	0.817	
0.3908	25010.87	3.8660	3.8660	1.3049	7.52	1.43	0.750			
0.3947	25258.76	3.8630	3.8630	1.3209	7.51	1.42	0.750			
0.3987	25516.94	3.8600	3.8602	1.3521	7.49	1.40	0.750			
0.4028	25782.33	3.8570	3.8571	1.3661	7.47	1.38	0.750			
0.4070	26046.03	3.8540	3.8540	1.3921	7.46	1.37	0.750			
0.4112	26313.72	3.8510	3.8510	1.4157	7.44	1.35	0.750			
0.4154	26588.30	3.8480	3.8479	1.4412	7.42	1.33	0.750			
0.4198	26869.59	3.8450	3.8451	1.4593	7.41	1.32	0.750			
0.4243	27152.21	3.8420	3.8420	1.4813	7.39	1.30	0.750			
0.4288	27445.35	3.8390	3.8390	1.4856	7.37	1.28	0.750			
0.4333	27729.95	3.8360	3.8361	1.5026	7.35	1.26	0.750			
0.4377	28011.30	3.8330	3.8332	1.5263	7.33	1.24	0.750			
0.4423	28307.59	3.8300	3.8299	1.5414	7.31	1.22	0.750			
0.4469	28603.59	3.8270	3.8271	1.5733	7.28	1.19	0.750			
0.4517	28909.51	3.8240	3.8240	1.6198	7.26	1.17	0.750			
0.4566	29224.70	3.8210	3.8211	1.6381	7.24	1.15	0.750			
0.4617	29550.44	3.8180	3.8180	1.6625	7.22	1.13	0.750			
0.4667	29867.97	3.8150	3.8150	1.6723	7.20	1.11	0.750			
0.4717	30187.30	3.8120	3.8122	1.7085	7.18	1.09	0.750			
0.4769	30519.73	3.8090	3.8090	1.7440	7.15	1.06	0.750			
0.4822	30861.54	3.8060	3.8058	1.7460	7.12	1.03	0.750			
0.4875	31197.85	3.8030	3.8030	1.7856	7.10	1.01	0.750			
0.4929	31547.68	3.8000	3.7999	1.8334	7.07	0.98	0.750			
0.4985	31901.14	3.7970	3.7969	1.8507	7.05	0.96	0.750			
0.5041	32259.31	3.7940	3.7941	1.8532	7.02	0.93	0.750			
0.5096	32614.20	3.7910	3.7910	1.8705	7.00	0.91	0.750			
0.5153	32982.15	3.7880	3.7880	1.9008	6.97	0.88	0.750			
0.5210	33347.16	3.7850	3.7849	1.8896	6.95	0.86	0.750			
0.5267	33710.79	3.7820	3.7821	1.9148	6.91	0.82	0.750			
0.5324	34075.61	3.7790	3.7790	1.9393	6.88	0.79	0.750			
0.5383	34453.01	3.7760	3.7761	2.0001	6.86	0.77	0.750			
0.5443	34837.71	3.7730	3.7729	2.0283	6.84	0.75	0.750			
0.5505	35233.35	3.7700	3.7701	2.1114	6.81	0.72	0.750			
0.5569	35642.93	3.7670	3.7670	2.2115	6.79	0.70	0.750			
0.5637	36078.79	3.7640	3.7637	2.2808	6.75	0.66	0.750			
0.5707	36524.40	3.7610	3.7612	2.3387	6.72	0.63	0.750			
0.5780	36991.04	3.7580	3.7580	2.4320	6.69	0.60	0.750			
0.5853	37457.58	3.7550	3.7550	2.5443	6.66	0.57	0.750			
0.5931	37958.56	3.7520	3.7521	2.6330	6.63	0.54	0.750			
0.6012	38474.04	3.7490	3.7492	2.7539	6.60	0.51	0.750			
0.6096	39014.82	3.7460	3.7459	2.8560	6.56	0.47	0.750			
0.6181	39558.43	3.7430	3.7430	2.9250	6.52	0.43	0.750			
0.6272	40143.43	3.7400	3.7400	3.0992	6.49	0.40	0.750			
0.6368	40753.65	3.7370	3.7371	3.0950	6.46	0.37	0.750			
0.6463	41366.27	3.7340	3.7341	3.0392	6.42	0.33	0.750			
0.6552	41935.56	3.7310	3.7309	2.7863	6.38	0.29	0.750			
0.6633	42452.09	3.7280	3.7280	2.4998	6.36	0.27	0.750			
0.6701	42889.52	3.7250	3.7255	2.1899	6.35	0.26	0.750			
0.6761	43268.39	3.7220	3.7218	1.9165	6.33	0.24	0.750			
0.6813	43602.65	3.7190	3.7187	1.6828	6.31	0.22	0.750			
0.6857	43884.83	3.7160	3.7161	1.5065	6.30	0.21	0.750			
0.6898	44146.17	3.7130	3.7132	1.3785	6.28	0.19	0.750			
0.6938	44402.44	3.7100	3.7099	1.2771	6.27	0.18	0.750			
0.6975	44638.45	3.7070	3.7069	1.2101	6.26	0.17	0.750			
0.7008	44852.89	3.7040	3.7042	1.1408	6.25	0.16	0.750			
0.7041	45062.08	3.7010	3.7009	1.1082	6.24	0.15	0.750			
0.7073	45267.65	3.6980	3.6979	1.0745	6.23	0.14	0.750			
0.7105	45472.10	3.6950	3.6950	1.0665	6.22	0.13	0.750			
0.7137	45676.23	3.6920	3.6920	1.0548	6.21	0.12	0.750			
0.7169	45881.85	3.6890	3.6890	1.0450	6.20	0.11	0.750			
0.7201	46083.62	3.6860	3.6860	1.0158	6.20	0.11	0.750			
0.7231	46276.32	3.6830	3.6831	0.9894	6.19	0.10	0.750			
0.7260	46463.56	3.6800	3.6799	0.9651	6.18	0.09	0.750			
0.7288	46643.53	3.6770	3.6771	0.9435	6.17	0.08	0.750			
0.7315	46818.26	3.6740	3.6738	0.9248	6.16	0.07	0.750			
0.7343	46993.39	3.6710	3.6709	0.9169	6.15	0.06	0.750			
0.7370	47169.81	3.6680	3.6680	0.9115	6.15	0.06	0.750			
0.7398	47344.49	3.6650	3.6651	0.9142	6.14	0.05	0.750			
0.7425	47519.91	3.6620	3.6620	0.9147	6.13	0.04	0.750			
0.7453	47697.01	3.6590	3.6589	0.9128	6.13	0.04	0.750			
0.7480	47869.27	3.6560	3.6560	0.9104	6.12	0.03	0.750			
0.7507	48043.88	3.6530	3.6530	0.9194	6.11	0.02	0.750			
0.7535	48222.29	3.6500	3.6501	0.9229	6.11	0.02	0.750			
0.7563	48400.74	3.6470	3.6467	0.9222	6.10	0.01	0.750			
0.7591	48581.06	3.6440	3.6440	0.9007	6.10	0.01	0.750			
0.7618	48757.25	3.6410	3.6411	0.8675	6.10	0.01	0.750			
0.7646	48932.96	3.6380	3.6379	0.8045	6.09	0.00	0.750			
0.7669	49081.84	3.6350	3.6351	0.7084	6.09	0.00	0.750			
0.7690	49213.59	3.6320	3.6321	0.6103	6.09	-0.00	0.750			
0.7704	49303.39	3.6290	3.6295	0.5255	6.09	-0.00	0.750			
0.7718	49394.20	3.6260	3.6264	0.4230	6.09	-0.00	0.750			
0.7729	49465.81	3.6230	3.6230	0.3436	6.09	-0.00	0.750			
0.7737	49517.30	3.6200	3.6194	0.2599	6.09	-0.00	0.750			
0.7743	49557.04	3.6170	3.6147	0.1972	6.09	-0.00	0.750			
0.7747	49578.89	3.6140	3.5630	0.1341	6.09	-0.00	0.750			
0.7747	49580.15	3.5960	3.5437	-0.1114	6.09	-0.00	0.749			
0.7749	49592.74	3.6110	3.3511	0.0851	6.09	-0.00	0.747			
0.7750	49597.76	3.5990	3.2743	-0.0721	6.08	-0.01	0.745			
0.7751	49605.31	3.6080	3.1587	0.0458	6.08	-0.01	0.744			
0.7751	49607.82	3.6020	3.1203	-0.0328	6.08	-0.01	0.743			
0.7752	49610.34	3.6050	3.0818	0.0065	6.08	-0.01	0.742			
