Ah_balance (normalized)	Ah_balance (mAh)	Voltage - fit (V)	Voltage -  interpolate (V)	dQ/dV (1/V)	Temperature (°C)	Temperature - diff (°C)	Current (C)	R_DC 0ms (mOhm)	R_DC 50ms (mOhm)	R_DC 50 ms PEC (mOhm)
0.0951	6084.16	4.1960	4.1980	0.9544	8.19	2.20	0.750			
0.0978	6260.08	4.1930	4.1942	0.8861	8.18	2.19	0.750			
0.1003	6421.71	4.1900	4.1905	0.8292	8.18	2.19	0.750			
0.1026	6569.29	4.1870	4.1870	0.7778	8.17	2.18	0.750			
0.1051	6727.84	4.1840	4.1836	0.7701	8.17	2.18	0.750			
0.1070	6850.02	4.1810	4.1810	0.7240	8.16	2.17	0.750			
0.1092	6989.18	4.1780	4.1780	0.7259	8.16	2.17	0.750			
0.1114	7129.22	4.1750	4.1749	0.7252	8.15	2.16	0.750			
0.1135	7267.13	4.1720	4.1720	0.7211	8.15	2.16	0.750			
0.1157	7406.47	4.1690	4.1689	0.7185	8.14	2.15	0.750			
0.1179	7544.78	4.1660	4.1661	0.7104	8.14	2.15	0.750			
0.1200	7679.59	4.1630	4.1629	0.7117	8.14	2.15	0.750			
0.1221	7814.29	4.1600	4.1602	0.7075	8.13	2.14	0.750			
0.1242	7950.73	4.1570	4.1566	0.7066	8.13	2.14	0.750			
0.1263	8084.98	4.1540	4.1541	0.7087	8.13	2.14	0.750			
0.1285	8221.39	4.1510	4.1511	0.7127	8.12	2.13	0.750			
0.1306	8358.15	4.1480	4.1480	0.7233	8.11	2.12	0.750			
0.1327	8495.80	4.1450	4.1449	0.7268	8.11	2.12	0.750			
0.1350	8636.81	4.1420	4.1420	0.7355	8.10	2.11	0.750			
0.1372	8780.48	4.1390	4.1390	0.7485	8.10	2.11	0.750			
0.1395	8926.57	4.1360	4.1360	0.7543	8.09	2.10	0.750			
0.1418	9072.94	4.1330	4.1330	0.7542	8.09	2.10	0.750			
0.1440	9218.78	4.1300	4.1300	0.7518	8.08	2.09	0.750			
0.1463	9361.91	4.1270	4.1270	0.7469	8.08	2.09	0.750			
0.1485	9504.25	4.1240	4.1240	0.7490	8.07	2.08	0.750			
0.1507	9646.27	4.1210	4.1210	0.7514	8.07	2.08	0.750			
0.1530	9790.59	4.1180	4.1179	0.7516	8.06	2.07	0.750			
0.1552	9935.79	4.1150	4.1149	0.7628	8.06	2.07	0.750			
0.1576	10083.69	4.1120	4.1121	0.7683	8.06	2.07	0.750			
0.1599	10233.03	4.1090	4.1090	0.7693	8.05	2.06	0.750			
0.1622	10382.23	4.1060	4.1059	0.7689	8.05	2.06	0.750			
0.1645	10529.05	4.1030	4.1031	0.7679	8.04	2.05	0.750			
0.1668	10676.63	4.1000	4.1001	0.7594	8.03	2.04	0.750			
0.1691	10821.36	4.0970	4.0970	0.7659	8.03	2.04	0.750			
0.1713	10965.01	4.0940	4.0939	0.7723	8.02	2.03	0.750			
0.1737	11115.42	4.0910	4.0909	0.7844	8.01	2.02	0.750			
0.1761	11267.27	4.0880	4.0880	0.7925	8.01	2.02	0.750			
0.1785	11421.59	4.0850	4.0852	0.8038	8.00	2.01	0.750			
0.1809	11578.67	4.0820	4.0820	0.8013	7.99	2.00	0.750			
0.1833	11732.03	4.0790	4.0789	0.8023	7.99	2.00	0.750			
0.1857	11885.94	4.0760	4.0761	0.8067	7.98	1.99	0.750			
0.1881	12040.82	4.0730	4.0728	0.8048	7.98	1.99	0.750			
0.1906	12200.22	4.0700	4.0699	0.8004	7.97	1.98	0.750			
0.1930	12352.05	4.0670	4.0671	0.8000	7.97	1.98	0.750			
0.1954	12504.37	4.0640	4.0641	0.7986	7.97	1.98	0.750			
0.1978	12657.04	4.0610	4.0611	0.8067	7.96	1.97	0.750			
0.2001	12805.64	4.0580	4.0581	0.8197	7.96	1.97	0.750			
0.2026	12967.43	4.0550	4.0550	0.8224	7.95	1.96	0.750			
0.2051	13128.83	4.0520	4.0519	0.8357	7.94	1.95	0.750			
0.2077	13291.07	4.0490	4.0492	0.8383	7.93	1.94	0.750			
0.2102	13453.88	4.0460	4.0460	0.8332	7.92	1.93	0.750			
0.2127	13613.91	4.0430	4.0430	0.8349	7.92	1.93	0.750			
0.2152	13772.71	4.0400	4.0400	0.8315	7.91	1.92	0.750			
0.2176	13927.08	4.0370	4.0372	0.8283	7.91	1.92	0.750			
0.2202	14090.08	4.0340	4.0339	0.8405	7.91	1.92	0.750			
0.2227	14250.36	4.0310	4.0312	0.8420	7.90	1.91	0.750			
0.2252	14411.56	4.0280	4.0281	0.8557	7.90	1.91	0.750			
0.2278	14578.10	4.0250	4.0249	0.8641	7.89	1.90	0.750			
0.2304	14744.85	4.0220	4.0220	0.8718	7.89	1.90	0.750			
0.2330	14914.87	4.0190	4.0188	0.8632	7.88	1.89	0.750			
0.2357	15083.48	4.0160	4.0162	0.8648	7.87	1.88	0.750			
0.2383	15248.30	4.0130	4.0132	0.8682	7.87	1.88	0.750			
0.2408	15413.49	4.0100	4.0099	0.8654	7.86	1.87	0.750			
0.2434	15577.08	4.0070	4.0069	0.8675	7.85	1.86	0.750			
0.2460	15741.89	4.0040	4.0041	0.8731	7.85	1.86	0.750			
0.2486	15910.93	4.0010	4.0008	0.8854	7.84	1.85	0.750			
0.2513	16084.63	3.9980	3.9980	0.8900	7.83	1.84	0.750			
0.2540	16255.37	3.9950	3.9950	0.8926	7.82	1.83	0.750			
0.2567	16427.49	3.9920	3.9920	0.8935	7.82	1.83	0.750			
0.2594	16600.78	3.9890	3.9891	0.9008	7.81	1.82	0.750			
0.2621	16772.15	3.9860	3.9858	0.8981	7.80	1.81	0.750			
0.2648	16945.93	3.9830	3.9830	0.8983	7.80	1.81	0.750			
0.2674	17116.71	3.9800	3.9800	0.9028	7.79	1.80	0.750			
0.2702	17290.27	3.9770	3.9771	0.9128	7.79	1.80	0.750			
0.2729	17466.50	3.9740	3.9739	0.9173	7.78	1.79	0.750			
0.2757	17644.97	3.9710	3.9711	0.9201	7.78	1.79	0.750			
0.2785	17822.36	3.9680	3.9680	0.9177	7.77	1.78	0.750			
0.2812	17996.89	3.9650	3.9652	0.9329	7.76	1.77	0.750			
0.2840	18177.16	3.9620	3.9620	0.9366	7.75	1.76	0.750			
0.2868	18355.47	3.9590	3.9588	0.9404	7.74	1.75	0.750			
0.2896	18537.27	3.9560	3.9561	0.9418	7.73	1.74	0.750			
0.2925	18720.16	3.9530	3.9532	0.9554	7.73	1.74	0.750			
0.2954	18907.06	3.9500	3.9499	0.9673	7.72	1.73	0.750			
0.2983	19091.13	3.9470	3.9470	0.9705	7.71	1.72	0.750			
0.3012	19277.08	3.9440	3.9440	0.9772	7.70	1.71	0.750			
0.3042	19468.77	3.9410	3.9410	0.9899	7.69	1.70	0.750			
0.3072	19659.07	3.9380	3.9381	0.9945	7.68	1.69	0.750			
0.3101	19849.32	3.9350	3.9350	0.9979	7.68	1.69	0.750			
0.3132	20044.74	3.9320	3.9320	1.0031	7.67	1.68	0.750			
0.3162	20235.43	3.9290	3.9290	1.0129	7.66	1.67	0.750			
0.3192	20429.60	3.9260	3.9261	1.0246	7.65	1.66	0.750			
0.3223	20627.58	3.9230	3.9231	1.0387	7.64	1.65	0.750			
0.3255	20831.36	3.9200	3.9199	1.0458	7.64	1.65	0.750			
0.3286	21033.24	3.9170	3.9169	1.0473	7.63	1.64	0.750			
0.3318	21234.58	3.9140	3.9141	1.0556	7.62	1.63	0.750			
0.3350	21438.12	3.9110	3.9111	1.0628	7.61	1.62	0.750			
0.3382	21642.05	3.9080	3.9079	1.0523	7.60	1.61	0.750			
0.3413	21842.40	3.9050	3.9050	1.0649	7.59	1.60	0.750			
0.3445	22046.04	3.9020	3.9022	1.0828	7.58	1.59	0.750			
0.3478	22257.59	3.8990	3.8990	1.1048	7.57	1.58	0.750			
0.3511	22470.23	3.8960	3.8960	1.1110	7.56	1.57	0.750			
0.3544	22682.04	3.8930	3.8931	1.1261	7.55	1.56	0.750			
0.3578	22899.27	3.8900	3.8902	1.1605	7.54	1.55	0.750			
0.3614	23127.80	3.8870	3.8866	1.1851	7.52	1.53	0.750			
0.3649	23356.18	3.8840	3.8840	1.1960	7.51	1.52	0.750			
0.3686	23590.08	3.8810	3.8811	1.2110	7.50	1.51	0.750			
0.3723	23828.03	3.8780	3.8782	1.2324	7.49	1.50	0.750			
0.3760	24067.06	3.8750	3.8750	1.2443	7.47	1.48	0.750			
0.3797	24298.94	3.8720	3.8719	1.2443	7.46	1.47	0.750			
0.3834	24536.67	3.8690	3.8690	1.2646	7.44	1.45	0.750			
0.3872	24782.21	3.8660	3.8660	1.2943	7.43	1.44	0.750			
0.3911	25033.02	3.8630	3.8630	1.3174	7.42	1.43	0.750			
0.3952	25291.06	3.8600	3.8600	1.3422	7.40	1.41	0.750	0.370	0.886	
0.3992	25551.82	3.8570	3.8568	1.3484	7.39	1.40	0.750			
0.4033	25814.13	3.8540	3.8541	1.3703	7.38	1.39	0.750			
0.4075	26078.80	3.8510	3.8510	1.3794	7.36	1.37	0.750			
0.4117	26345.89	3.8480	3.8480	1.3900	7.35	1.36	0.750			
0.4158	26608.43	3.8450	3.8453	1.4040	7.33	1.34	0.750			
0.4200	26880.26	3.8420	3.8419	1.4316	7.32	1.33	0.750			
0.4243	27156.14	3.8390	3.8389	1.4661	7.30	1.31	0.750			
0.4288	27443.55	3.8360	3.8358	1.4961	7.28	1.29	0.750			
0.4333	27728.89	3.8330	3.8329	1.5341	7.26	1.27	0.750			
0.4380	28031.35	3.8300	3.8302	1.5708	7.24	1.25	0.750			
0.4427	28335.72	3.8270	3.8271	1.5948	7.23	1.24	0.750			
0.4476	28647.61	3.8240	3.8239	1.6263	7.21	1.22	0.750			
0.4526	28967.49	3.8210	3.8206	1.6536	7.19	1.20	0.750			
0.4576	29287.56	3.8180	3.8179	1.6784	7.17	1.18	0.750			
0.4626	29609.58	3.8150	3.8153	1.7072	7.16	1.17	0.750			
0.4678	29938.80	3.8120	3.8121	1.7525	7.14	1.15	0.750			
0.4732	30282.53	3.8090	3.8088	1.7790	7.11	1.12	0.750			
0.4786	30628.71	3.8060	3.8058	1.8303	7.09	1.10	0.750			
0.4842	30988.25	3.8030	3.8033	1.8614	7.06	1.07	0.750			
0.4898	31349.73	3.8000	3.8002	1.9013	7.04	1.05	0.750			
0.4955	31711.83	3.7970	3.7971	1.9216	7.01	1.02	0.750			
0.5013	32080.79	3.7940	3.7939	1.9380	6.98	0.99	0.750			
0.5072	32458.99	3.7910	3.7910	1.9861	6.96	0.97	0.750			
0.5133	32851.75	3.7880	3.7880	2.0103	6.93	0.94	0.750			
0.5194	33239.38	3.7850	3.7851	2.0270	6.91	0.92	0.750			
0.5254	33624.27	3.7820	3.7819	2.0513	6.88	0.89	0.750			
0.5315	34016.73	3.7790	3.7789	2.0864	6.86	0.87	0.750			
0.5378	34420.02	3.7760	3.7760	2.1033	6.83	0.84	0.750			
0.5442	34828.67	3.7730	3.7731	2.1758	6.80	0.81	0.750			
0.5508	35252.71	3.7700	3.7699	2.2382	6.77	0.78	0.750			
0.5575	35683.18	3.7670	3.7670	2.2827	6.75	0.76	0.750			
0.5646	36133.64	3.7640	3.7639	2.3161	6.72	0.73	0.750			
0.5717	36586.58	3.7610	3.7610	2.3663	6.69	0.70	0.750			
0.5787	37034.19	3.7580	3.7580	2.3956	6.66	0.67	0.750			
0.5858	37494.26	3.7550	3.7550	2.4811	6.62	0.63	0.750			
0.5935	37983.46	3.7520	3.7520	2.5905	6.59	0.60	0.750			
0.6015	38495.78	3.7490	3.7490	2.6834	6.56	0.57	0.750			
0.6096	39013.65	3.7460	3.7460	2.7979	6.52	0.53	0.750			
0.6182	39562.89	3.7430	3.7429	2.9387	6.49	0.50	0.750			
0.6273	40145.92	3.7400	3.7401	3.0219	6.46	0.47	0.750			
0.6366	40741.08	3.7370	3.7370	3.1349	6.42	0.43	0.750			
0.6460	41342.87	3.7340	3.7338	3.1269	6.38	0.39	0.750			
0.6556	41957.66	3.7310	3.7310	3.1289	6.34	0.35	0.750			
0.6649	42554.17	3.7280	3.7278	3.0521	6.31	0.32	0.750			
0.6740	43135.85	3.7250	3.7250	2.8137	6.27	0.28	0.750			
0.6820	43646.39	3.7220	3.7222	2.5274	6.25	0.26	0.750			
0.6887	44077.51	3.7190	3.7191	2.1748	6.23	0.24	0.750			
0.6947	44462.31	3.7160	3.7159	1.9033	6.21	0.22	0.750			
0.6999	44795.94	3.7130	3.7130	1.6967	6.20	0.21	0.750			
0.7046	45094.44	3.7100	3.7100	1.5226	6.18	0.19	0.750			
0.7088	45366.07	3.7070	3.7071	1.3916	6.17	0.18	0.750			
0.7128	45618.47	3.7040	3.7038	1.2762	6.16	0.17	0.750			
0.7163	45842.05	3.7010	3.7011	1.2010	6.15	0.16	0.750			
0.7196	46056.59	3.6980	3.6981	1.1526	6.13	0.14	0.750			
0.7230	46271.54	3.6950	3.6948	1.1239	6.12	0.13	0.750			
0.7263	46485.54	3.6920	3.6922	1.0988	6.11	0.12	0.750			
0.7296	46694.16	3.6890	3.6891	1.0831	6.11	0.12	0.750			
0.7328	46901.43	3.6860	3.6861	1.0680	6.10	0.11	0.750			
0.7360	47106.95	3.6830	3.6829	1.0433	6.09	0.10	0.750			
0.7391	47304.60	3.6800	3.6799	1.0059	6.08	0.09	0.750			
0.7421	47492.83	3.6770	3.6772	0.9764	6.08	0.09	0.750			
0.7450	47677.91	3.6740	3.6740	0.9605	6.07	0.08	0.750			
0.7478	47856.90	3.6710	3.6712	0.9457	6.06	0.07	0.750			
0.7506	48036.77	3.6680	3.6679	0.9377	6.06	0.07	0.750			
0.7534	48214.93	3.6650	3.6650	0.9239	6.05	0.06	0.750			
0.7562	48394.41	3.6620	3.6621	0.9213	6.04	0.05	0.750			
0.7590	48574.27	3.6590	3.6590	0.9136	6.04	0.05	0.750			
0.7617	48746.02	3.6560	3.6558	0.8903	6.03	0.04	0.750			
0.7642	48911.77	3.6530	3.6530	0.8765	6.02	0.03	0.750			
0.7668	49076.54	3.6500	3.6500	0.8798	6.02	0.03	0.750			
0.7694	49243.02	3.6470	3.6470	0.8909	6.01	0.02	0.750			
0.7721	49414.20	3.6440	3.6440	0.9112	6.01	0.02	0.750			
0.7749	49591.70	3.6410	3.6409	0.9192	6.00	0.01	0.750			
0.7777	49774.26	3.6380	3.6380	0.9190	6.00	0.01	0.750			
0.7807	49963.72	3.6350	3.6349	0.8903	5.99	0.00	0.750			
0.7834	50136.43	3.6320	3.6321	0.8288	5.99	0.00	0.750			
0.7859	50295.96	3.6290	3.6290	0.7401	5.99	0.00	0.750			
0.7880	50431.54	3.6260	3.6261	0.6373	5.99	-0.00	0.750			
0.7897	50542.95	3.6230	3.6230	0.5259	5.99	-0.00	0.750			
0.7910	50621.17	3.6200	3.6204	0.4478	5.99	-0.00	0.750			
0.7921	50694.44	3.6170	3.6173	0.3446	5.99	-0.00	0.750			
0.7930	50751.57	3.6140	3.6138	0.2715	5.98	-0.01	0.750			
0.7936	50789.90	3.6110	3.6101	0.1949	5.98	-0.01	0.750			
0.7940	50819.17	3.6080	3.6043	0.1379	5.98	-0.01	0.750			
0.7942	50828.55	3.5930	3.5731	-0.0981	5.98	-0.01	0.749			
0.7943	50834.04	3.6050	3.5184	0.0838	5.98	-0.01	0.744			
0.7944	50843.02	3.5960	3.4292	-0.0526	5.98	-0.01	0.736			
0.7945	50845.76	3.6020	3.4018	0.0383	5.98	-0.01	0.733			
0.7945	50848.75	3.5990	3.3721	-0.0072	5.98	-0.01	0.730			
