Ah_balance (normalized)	Ah_balance (mAh)	Voltage - fit (V)	Voltage -  interpolate (V)	dQ/dV (1/V)	Temperature (°C)	Temperature - diff (°C)	Current (C)	R_DC 0ms (mOhm)	R_DC 50ms (mOhm)	R_DC 50 ms PEC (mOhm)
0.0002	11.92	4.1110	4.1104	-0.0567	5.99	0.00	-0.750			
0.0004	26.92	4.1080	4.1076	-0.0921	5.99	0.00	-0.750			
0.0008	48.32	4.1050	4.1048	-0.1210	5.99	0.00	-0.750			
0.0012	74.46	4.1020	4.1020	-0.1467	5.99	0.00	-0.750			
0.0016	105.48	4.0990	4.0990	-0.1706	5.99	0.00	-0.750			
0.0022	140.79	4.0960	4.0961	-0.1935	5.99	0.00	-0.750			
0.0028	181.61	4.0930	4.0930	-0.2168	5.99	0.00	-0.750			
0.0035	225.09	4.0900	4.0900	-0.2374	5.99	0.00	-0.750			
0.0043	272.35	4.0870	4.0870	-0.2600	5.99	0.00	-0.750			
0.0051	323.94	4.0840	4.0840	-0.2827	5.99	0.00	-0.750			
0.0059	379.69	4.0810	4.0810	-0.3074	5.99	0.00	-0.750			
0.0069	440.75	4.0780	4.0780	-0.3329	5.99	0.00	-0.750			
0.0079	507.87	4.0750	4.0750	-0.3564	5.99	0.00	-0.750			
0.0091	579.24	4.0720	4.0719	-0.3789	5.99	0.00	-0.750			
0.0102	653.59	4.0690	4.0691	-0.4071	5.99	0.00	-0.750			
0.0115	734.18	4.0660	4.0661	-0.4316	5.99	0.00	-0.750			
0.0128	819.50	4.0630	4.0628	-0.4574	5.99	0.00	-0.750			
0.0142	911.14	4.0600	4.0600	-0.4740	5.99	0.00	-0.750			
0.0157	1003.94	4.0570	4.0571	-0.4976	5.99	0.00	-0.750			
0.0172	1102.22	4.0540	4.0542	-0.5178	5.99	0.00	-0.750			
0.0188	1203.72	4.0510	4.0507	-0.5362	5.99	0.00	-0.750			
0.0204	1307.68	4.0480	4.0480	-0.5497	6.00	0.01	-0.750			
0.0221	1414.39	4.0450	4.0451	-0.5706	6.00	0.01	-0.750			
0.0238	1526.30	4.0420	4.0420	-0.5973	6.00	0.01	-0.750			
0.0257	1644.82	4.0390	4.0389	-0.6148	6.00	0.01	-0.750			
0.0275	1762.91	4.0360	4.0358	-0.6276	6.01	0.02	-0.750			
0.0295	1886.14	4.0330	4.0333	-0.6483	6.01	0.02	-0.750			
0.0315	2014.02	4.0300	4.0299	-0.6629	6.01	0.02	-0.750			
0.0335	2143.08	4.0270	4.0269	-0.6753	6.02	0.03	-0.750			
0.0355	2273.07	4.0240	4.0241	-0.6800	6.02	0.03	-0.750			
0.0376	2407.42	4.0210	4.0210	-0.6866	6.03	0.04	-0.750			
0.0397	2539.80	4.0180	4.0180	-0.6888	6.03	0.04	-0.750			
0.0417	2669.86	4.0150	4.0150	-0.6916	6.04	0.05	-0.750			
0.0438	2803.15	4.0120	4.0119	-0.6920	6.05	0.06	-0.750			
0.0459	2935.27	4.0090	4.0089	-0.7046	6.05	0.06	-0.750			
0.0480	3070.31	4.0060	4.0061	-0.7202	6.06	0.07	-0.750			
0.0502	3212.34	4.0030	4.0030	-0.7268	6.07	0.08	-0.750			
0.0524	3356.13	4.0000	3.9998	-0.7375	6.07	0.08	-0.750			
0.0547	3497.61	3.9970	3.9973	-0.7406	6.08	0.09	-0.750			
0.0569	3639.57	3.9940	3.9940	-0.7437	6.09	0.10	-0.750			
0.0591	3782.67	3.9910	3.9909	-0.7547	6.09	0.10	-0.750			
0.0613	3925.94	3.9880	3.9880	-0.7511	6.10	0.11	-0.750			
0.0637	4074.32	3.9850	3.9849	-0.7579	6.11	0.12	-0.750			
0.0659	4219.84	3.9820	3.9819	-0.7617	6.12	0.13	-0.750			
0.0682	4366.50	3.9790	3.9791	-0.7625	6.12	0.13	-0.750			
0.0705	4511.44	3.9760	3.9759	-0.7642	6.13	0.14	-0.750			
0.0728	4656.73	3.9730	3.9729	-0.7647	6.14	0.15	-0.750			
0.0751	4803.23	3.9700	3.9702	-0.7650	6.15	0.16	-0.750			
0.0774	4953.35	3.9670	3.9669	-0.7761	6.15	0.16	-0.750			
0.0798	5105.29	3.9640	3.9642	-0.7791	6.16	0.17	-0.750			
0.0821	5254.55	3.9610	3.9610	-0.7737	6.17	0.18	-0.750			
0.0844	5402.70	3.9580	3.9580	-0.7720	6.18	0.19	-0.750			
0.0867	5550.38	3.9550	3.9550	-0.7697	6.19	0.20	-0.750			
0.0890	5696.97	3.9520	3.9520	-0.7665	6.20	0.21	-0.750			
0.0913	5843.51	3.9490	3.9489	-0.7620	6.21	0.22	-0.750			
0.0936	5988.78	3.9460	3.9460	-0.7618	6.21	0.22	-0.750			
0.0958	6133.57	3.9430	3.9431	-0.7728	6.22	0.23	-0.750			
0.0981	6281.49	3.9400	3.9399	-0.7833	6.23	0.24	-0.750			
0.1005	6433.62	3.9370	3.9369	-0.7907	6.24	0.25	-0.750			
0.1029	6587.90	3.9340	3.9339	-0.7911	6.24	0.25	-0.750			
0.1054	6742.92	3.9310	3.9311	-0.7970	6.25	0.26	-0.750			
0.1077	6895.77	3.9280	3.9282	-0.8030	6.26	0.27	-0.750			
0.1101	7049.43	3.9250	3.9249	-0.8004	6.27	0.28	-0.750			
0.1125	7201.03	3.9220	3.9219	-0.7946	6.28	0.29	-0.750			
0.1149	7355.76	3.9190	3.9190	-0.7950	6.29	0.30	-0.750			
0.1173	7509.24	3.9160	3.9161	-0.8041	6.30	0.31	-0.750			
0.1198	7664.00	3.9130	3.9131	-0.8042	6.31	0.32	-0.750			
0.1221	7816.83	3.9100	3.9099	-0.8072	6.32	0.33	-0.750			
0.1246	7972.13	3.9070	3.9069	-0.8065	6.33	0.34	-0.750			
0.1270	8128.95	3.9040	3.9040	-0.8110	6.34	0.35	-0.750			
0.1295	8284.88	3.9010	3.9013	-0.8127	6.35	0.36	-0.750			
0.1319	8443.31	3.8980	3.8979	-0.8156	6.36	0.37	-0.750			
0.1343	8597.59	3.8950	3.8950	-0.8155	6.37	0.38	-0.750			
0.1368	8753.23	3.8920	3.8920	-0.8166	6.37	0.38	-0.750			
0.1392	8911.20	3.8890	3.8889	-0.8263	6.38	0.39	-0.750			
0.1417	9070.04	3.8860	3.8862	-0.8293	6.39	0.40	-0.750			
0.1442	9229.84	3.8830	3.8829	-0.8275	6.40	0.41	-0.750			
0.1467	9387.47	3.8800	3.8801	-0.8328	6.41	0.42	-0.750			
0.1492	9548.03	3.8770	3.8771	-0.8338	6.42	0.43	-0.750			
0.1517	9708.39	3.8740	3.8737	-0.8325	6.44	0.45	-0.750			
0.1542	9870.65	3.8710	3.8711	-0.8338	6.45	0.46	-0.750			
0.1567	10030.40	3.8680	3.8680	-0.8294	6.46	0.47	-0.750			
0.1592	10190.40	3.8650	3.8650	-0.8310	6.47	0.48	-0.750			
0.1617	10350.53	3.8620	3.8619	-0.8274	6.48	0.49	-0.750			
0.1641	10504.95	3.8590	3.8590	-0.8248	6.49	0.50	-0.750			
0.1666	10663.58	3.8560	3.8561	-0.8350	6.50	0.51	-0.750			
0.1691	10824.65	3.8530	3.8529	-0.8391	6.51	0.52	-0.750			
0.1717	10988.07	3.8500	3.8499	-0.8427	6.51	0.52	-0.750			
0.1742	11150.31	3.8470	3.8470	-0.8460	6.52	0.53	-0.750			
0.1768	11313.28	3.8440	3.8441	-0.8428	6.53	0.54	-0.750			
0.1793	11476.03	3.8410	3.8410	-0.8473	6.54	0.55	-0.750			
0.1818	11636.18	3.8380	3.8380	-0.8520	6.55	0.56	-0.750			
0.1843	11797.27	3.8350	3.8349	-0.8538	6.56	0.57	-0.750			
0.1869	11964.16	3.8320	3.8320	-0.8573	6.58	0.59	-0.750			
0.1896	12131.24	3.8290	3.8290	-0.8588	6.59	0.60	-0.750			
0.1922	12298.02	3.8260	3.8264	-0.8576	6.60	0.61	-0.750			
0.1947	12463.13	3.8230	3.8229	-0.8570	6.61	0.62	-0.750			
0.1973	12625.95	3.8200	3.8200	-0.8543	6.62	0.63	-0.750			
0.1998	12788.91	3.8170	3.8170	-0.8578	6.63	0.64	-0.750			
0.2024	12952.49	3.8140	3.8139	-0.8660	6.64	0.65	-0.750			
0.2050	13120.57	3.8110	3.8111	-0.8684	6.65	0.66	-0.750			
0.2076	13289.09	3.8080	3.8080	-0.8685	6.66	0.67	-0.750			
0.2102	13455.46	3.8050	3.8051	-0.8732	6.67	0.68	-0.750			
0.2129	13622.42	3.8020	3.8019	-0.8721	6.68	0.69	-0.750			
0.2155	13791.72	3.7990	3.7989	-0.8812	6.68	0.69	-0.750			
0.2181	13959.01	3.7960	3.7960	-0.8807	6.69	0.70	-0.750			
0.2207	14127.98	3.7930	3.7931	-0.8860	6.70	0.71	-0.750			
0.2234	14300.76	3.7900	3.7900	-0.8924	6.72	0.73	-0.750			
0.2261	14471.20	3.7870	3.7870	-0.8891	6.73	0.74	-0.750			
0.2288	14644.38	3.7840	3.7840	-0.8974	6.74	0.75	-0.750			
0.2315	14816.49	3.7810	3.7810	-0.8983	6.75	0.76	-0.750			
0.2342	14990.15	3.7780	3.7779	-0.8894	6.75	0.76	-0.750			
0.2369	15160.31	3.7750	3.7750	-0.8848	6.76	0.77	-0.750			
0.2395	15328.21	3.7720	3.7721	-0.8848	6.77	0.78	-0.750			
0.2422	15498.07	3.7690	3.7692	-0.8858	6.78	0.79	-0.750			
0.2448	15666.80	3.7660	3.7659	-0.8894	6.79	0.80	-0.750			
0.2474	15835.39	3.7630	3.7630	-0.8928	6.80	0.81	-0.750			
0.2501	16008.58	3.7600	3.7600	-0.9031	6.81	0.82	-0.750			
0.2529	16186.43	3.7570	3.7570	-0.9137	6.82	0.83	-0.750			
0.2556	16361.12	3.7540	3.7541	-0.9125	6.83	0.84	-0.750			
0.2584	16538.27	3.7510	3.7510	-0.9106	6.85	0.86	-0.750			
0.2612	16714.18	3.7480	3.7479	-0.9103	6.86	0.87	-0.750			
0.2638	16885.84	3.7450	3.7451	-0.9072	6.87	0.88	-0.750			
0.2666	17059.73	3.7420	3.7421	-0.9083	6.88	0.89	-0.750			
0.2693	17232.39	3.7390	3.7389	-0.9195	6.89	0.90	-0.750			
0.2720	17410.35	3.7360	3.7359	-0.9280	6.90	0.91	-0.750			
0.2748	17589.45	3.7330	3.7330	-0.9340	6.90	0.91	-0.750			
0.2777	17772.83	3.7300	3.7300	-0.9314	6.91	0.92	-0.750			
0.2805	17953.53	3.7270	3.7271	-0.9358	6.92	0.93	-0.750			
0.2833	18131.90	3.7240	3.7241	-0.9405	6.93	0.94	-0.750			
0.2861	18310.93	3.7210	3.7209	-0.9397	6.94	0.95	-0.750			
0.2889	18489.24	3.7180	3.7178	-0.9353	6.95	0.96	-0.750			
0.2917	18669.52	3.7150	3.7152	-0.9452	6.96	0.97	-0.750			
0.2946	18851.92	3.7120	3.7121	-0.9578	6.97	0.98	-0.750			
0.2975	19038.43	3.7090	3.7087	-0.9665	6.98	0.99	-0.750			
0.3003	19222.30	3.7060	3.7060	-0.9679	6.99	1.00	-0.750			
0.3033	19409.68	3.7030	3.7029	-0.9760	7.00	1.01	-0.750			
0.3063	19601.64	3.7000	3.7001	-0.9825	7.01	1.02	-0.750			
0.3092	19791.96	3.6970	3.6969	-0.9891	7.01	1.02	-0.750			
0.3122	19981.29	3.6940	3.6940	-0.9812	7.02	1.03	-0.750			
0.3151	20167.68	3.6910	3.6909	-0.9810	7.03	1.04	-0.750			
0.3181	20355.84	3.6880	3.6881	-0.9900	7.04	1.05	-0.750			
0.3210	20545.66	3.6850	3.6850	-0.9966	7.05	1.06	-0.750			
0.3240	20736.91	3.6820	3.6820	-1.0054	7.06	1.07	-0.750			
0.3270	20929.60	3.6790	3.6790	-1.0136	7.06	1.07	-0.750			
0.3301	21128.03	3.6760	3.6761	-1.0328	7.07	1.08	-0.750			
0.3333	21328.86	3.6730	3.6729	-1.0440	7.08	1.09	-0.750			
0.3364	21528.94	3.6700	3.6700	-1.0459	7.10	1.11	-0.750			
0.3395	21729.97	3.6670	3.6669	-1.0518	7.11	1.12	-0.750			
0.3427	21933.01	3.6640	3.6641	-1.0677	7.12	1.13	-0.750			
0.3459	22139.71	3.6610	3.6610	-1.0697	7.13	1.14	-0.750			
0.3491	22344.77	3.6580	3.6579	-1.0748	7.14	1.15	-0.750			
0.3524	22550.48	3.6550	3.6550	-1.0854	7.14	1.15	-0.750			
0.3556	22758.61	3.6520	3.6521	-1.0991	7.15	1.16	-0.750			
0.3589	22970.48	3.6490	3.6489	-1.1123	7.16	1.17	-0.750			
0.3623	23185.08	3.6460	3.6459	-1.1228	7.17	1.18	-0.750			
0.3656	23401.06	3.6430	3.6431	-1.1357	7.18	1.19	-0.750			
0.3691	23624.14	3.6400	3.6400	-1.1545	7.18	1.19	-0.750			
0.3726	23848.20	3.6370	3.6370	-1.1584	7.19	1.20	-0.750			
0.3761	24070.88	3.6340	3.6340	-1.1617	7.20	1.21	-0.750			
0.3796	24292.11	3.6310	3.6310	-1.1719	7.21	1.22	-0.750			
0.3831	24516.66	3.6280	3.6280	-1.1911	7.22	1.23	-0.750			
0.3866	24745.34	3.6250	3.6249	-1.2040	7.23	1.24	-0.750			
0.3903	24978.02	3.6220	3.6220	-1.2212	7.24	1.25	-0.750			
0.3940	25216.44	3.6190	3.6189	-1.2429	7.24	1.25	-0.750			
0.3978	25459.24	3.6160	3.6161	-1.2632	7.25	1.26	-0.750			
0.4016	25703.85	3.6130	3.6131	-1.2698	7.26	1.27	-0.750			
0.4054	25948.02	3.6100	3.6099	-1.2842	7.27	1.28	-0.750			
0.4093	26194.95	3.6070	3.6072	-1.2996	7.28	1.29	-0.750	0.427	0.961	
0.4132	26445.41	3.6040	3.6039	-1.3132	7.28	1.29	-0.750			
0.4172	26698.15	3.6010	3.6013	-1.3285	7.29	1.30	-0.750			
0.4212	26956.55	3.5980	3.5979	-1.3418	7.30	1.31	-0.750			
0.4253	27217.89	3.5950	3.5951	-1.3612	7.31	1.32	-0.750			
0.4294	27479.89	3.5920	3.5922	-1.3663	7.32	1.33	-0.750			
0.4335	27743.37	3.5890	3.5890	-1.3824	7.32	1.33	-0.750			
0.4376	28007.89	3.5860	3.5859	-1.3907	7.33	1.34	-0.750			
0.4418	28275.56	3.5830	3.5830	-1.4037	7.33	1.34	-0.750			
0.4460	28546.88	3.5800	3.5800	-1.4282	7.34	1.35	-0.750			
0.4503	28819.25	3.5770	3.5770	-1.4568	7.35	1.36	-0.750			
0.4547	29103.31	3.5740	3.5742	-1.4769	7.36	1.37	-0.750			
0.4592	29390.49	3.5710	3.5710	-1.4875	7.37	1.38	-0.750			
0.4637	29678.86	3.5680	3.5680	-1.4957	7.37	1.38	-0.750			
0.4682	29966.98	3.5650	3.5651	-1.5071	7.38	1.39	-0.750			
0.4728	30257.31	3.5620	3.5618	-1.5217	7.39	1.40	-0.750			
0.4773	30545.17	3.5590	3.5590	-1.5301	7.40	1.41	-0.750			
0.4818	30837.40	3.5560	3.5560	-1.5547	7.41	1.42	-0.750			
0.4866	31141.98	3.5530	3.5530	-1.5983	7.42	1.43	-0.750			
0.4915	31453.53	3.5500	3.5499	-1.6058	7.43	1.44	-0.750			
0.4963	31766.20	3.5470	3.5470	-1.6266	7.43	1.44	-0.750			
0.5013	32082.75	3.5440	3.5440	-1.6383	7.44	1.45	-0.750			
0.5063	32401.95	3.5410	3.5409	-1.6330	7.44	1.45	-0.750			
0.5112	32715.08	3.5380	3.5380	-1.6308	7.46	1.47	-0.750			
0.5160	33024.61	3.5350	3.5349	-1.6266	7.47	1.48	-0.750			
0.5209	33334.60	3.5320	3.5319	-1.6440	7.47	1.48	-0.750			
0.5258	33654.21	3.5290	3.5291	-1.6635	7.48	1.49	-0.750			
0.5308	33971.12	3.5260	3.5260	-1.6706	7.48	1.49	-0.750			
0.5358	34291.29	3.5230	3.5231	-1.6971	7.49	1.50	-0.750			
0.5411	34628.60	3.5200	3.5199	-1.7155	7.51	1.52	-0.750			
0.5462	34959.02	3.5170	3.5170	-1.7238	7.52	1.53	-0.750			
0.5514	35291.37	3.5140	3.5139	-1.7369	7.52	1.53	-0.750			
0.5567	35629.57	3.5110	3.5109	-1.7110	7.53	1.54	-0.750			
0.5618	35958.09	3.5080	3.5080	-1.7045	7.54	1.55	-0.750			
0.5669	36283.43	3.5050	3.5055	-1.6855	7.55	1.56	-0.750			
0.5719	36598.65	3.5020	3.5020	-1.6743	7.56	1.57	-0.750			
0.5769	36920.57	3.4990	3.4988	-1.6795	7.57	1.58	-0.750			
0.5818	37234.00	3.4960	3.4958	-1.6762	7.58	1.59	-0.750			
0.5869	37562.19	3.4930	3.4929	-1.6922	7.59	1.60	-0.750			
0.5921	37893.85	3.4900	3.4898	-1.6914	7.60	1.61	-0.750			
0.5972	38219.87	3.4870	3.4869	-1.6656	7.61	1.62	-0.750			
0.6022	38539.11	3.4840	3.4842	-1.6511	7.62	1.63	-0.750			
0.6071	38854.62	3.4810	3.4807	-1.6420	7.63	1.64	-0.750			
0.6119	39163.81	3.4780	3.4778	-1.6240	7.64	1.65	-0.750			
0.6168	39475.68	3.4750	3.4753	-1.6124	7.65	1.66	-0.750			
0.6217	39785.62	3.4720	3.4721	-1.5966	7.66	1.67	-0.750			
0.6265	40094.37	3.4690	3.4690	-1.5860	7.67	1.68	-0.750			
0.6312	40397.77	3.4660	3.4659	-1.5708	7.69	1.70	-0.750			
0.6359	40695.03	3.4630	3.4631	-1.5484	7.70	1.71	-0.750			
0.6404	40988.03	3.4600	3.4601	-1.5256	7.71	1.72	-0.750			
0.6451	41283.31	3.4570	3.4569	-1.5132	7.73	1.74	-0.750			
0.6496	41574.53	3.4540	3.4540	-1.4828	7.74	1.75	-0.750			
0.6540	41857.18	3.4510	3.4509	-1.4657	7.75	1.76	-0.750			
0.6584	42136.42	3.4480	3.4479	-1.4356	7.76	1.77	-0.750			
0.6626	42409.51	3.4450	3.4449	-1.3954	7.77	1.78	-0.750			
0.6668	42674.10	3.4420	3.4424	-1.3657	7.78	1.79	-0.750			
0.6708	42930.14	3.4390	3.4390	-1.3294	7.79	1.80	-0.750			
0.6747	43183.43	3.4360	3.4360	-1.3150	7.80	1.81	-0.750			
0.6786	43431.86	3.4330	3.4331	-1.2975	7.81	1.82	-0.750			
0.6825	43681.65	3.4300	3.4298	-1.2707	7.82	1.83	-0.750			
0.6863	43923.78	3.4270	3.4271	-1.2389	7.83	1.84	-0.750			
0.6900	44160.70	3.4240	3.4240	-1.2197	7.84	1.85	-0.750			
0.6936	44389.55	3.4210	3.4211	-1.1921	7.85	1.86	-0.750			
0.6972	44618.13	3.4180	3.4178	-1.1563	7.87	1.88	-0.750			
0.7006	44837.29	3.4150	3.4150	-1.1115	7.88	1.89	-0.750			
0.7039	45050.79	3.4120	3.4122	-1.0711	7.89	1.90	-0.750			
0.7071	45252.19	3.4090	3.4090	-1.0474	7.90	1.91	-0.750			
0.7101	45447.03	3.4060	3.4059	-1.0067	7.91	1.92	-0.750			
0.7130	45633.20	3.4030	3.4028	-0.9734	7.92	1.93	-0.750			
0.7159	45816.11	3.4000	3.4000	-0.9343	7.94	1.95	-0.750			
0.7187	45997.36	3.3970	3.3971	-0.9169	7.95	1.96	-0.750			
0.7214	46170.87	3.3940	3.3941	-0.8899	7.96	1.97	-0.750			
0.7240	46338.47	3.3910	3.3907	-0.8629	7.97	1.98	-0.750			
0.7265	46497.86	3.3880	3.3880	-0.8293	7.98	1.99	-0.750			
0.7290	46656.86	3.3850	3.3850	-0.8050	7.99	2.00	-0.750			
0.7314	46809.92	3.3820	3.3819	-0.7815	8.00	2.01	-0.750			
0.7337	46959.09	3.3790	3.3790	-0.7541	8.01	2.02	-0.750			
0.7359	47097.66	3.3760	3.3760	-0.7244	8.03	2.04	-0.750			
0.7380	47233.20	3.3730	3.3730	-0.7027	8.04	2.05	-0.750			
0.7401	47365.57	3.3700	3.3701	-0.6811	8.05	2.06	-0.750			
0.7421	47495.63	3.3670	3.3670	-0.6618	8.06	2.07	-0.750			
0.7441	47621.53	3.3640	3.3639	-0.6432	8.07	2.08	-0.750			
0.7460	47743.10	3.3610	3.3611	-0.6194	8.08	2.09	-0.750			
0.7478	47860.65	3.3580	3.3580	-0.5988	8.09	2.10	-0.750			
0.7496	47972.69	3.3550	3.3550	-0.5791	8.10	2.11	-0.750			
0.7513	48081.54	3.3520	3.3520	-0.5594	8.11	2.12	-0.750			
0.7529	48186.11	3.3490	3.3488	-0.5417	8.12	2.13	-0.750			
0.7545	48288.49	3.3460	3.3462	-0.5267	8.13	2.14	-0.750			
0.7561	48387.91	3.3430	3.3430	-0.5100	8.14	2.15	-0.750			
0.7576	48484.22	3.3400	3.3399	-0.4970	8.15	2.16	-0.750			
0.7590	48578.46	3.3370	3.3370	-0.4846	8.16	2.17	-0.750			
0.7605	48669.64	3.3340	3.3340	-0.4718	8.16	2.17	-0.750			
0.7619	48758.67	3.3310	3.3310	-0.4586	8.17	2.18	-0.750			
0.7632	48845.53	3.3280	3.3280	-0.4445	8.18	2.19	-0.750			
0.7645	48930.09	3.3250	3.3250	-0.4308	8.19	2.20	-0.750			
0.7658	49012.25	3.3220	3.3220	-0.4174	8.19	2.20	-0.750			
0.7670	49089.91	3.3190	3.3191	-0.4029	8.20	2.21	-0.750			
0.7682	49165.77	3.3160	3.3160	-0.3884	8.21	2.22	-0.750			
0.7694	49238.82	3.3130	3.3130	-0.3775	8.22	2.23	-0.750			
0.7705	49309.20	3.3100	3.3100	-0.3702	8.22	2.23	-0.750			
0.7715	49379.00	3.3070	3.3070	-0.3632	8.23	2.24	-0.750			
0.7726	49448.43	3.3040	3.3039	-0.3554	8.24	2.25	-0.750			
0.7737	49516.46	3.3010	3.3010	-0.3477	8.25	2.26	-0.750			
0.7747	49582.31	3.2980	3.2981	-0.3390	8.26	2.27	-0.750			
0.7757	49647.65	3.2950	3.2949	-0.3299	8.26	2.27	-0.750			
0.7767	49708.96	3.2920	3.2920	-0.3198	8.27	2.28	-0.750			
0.7776	49769.31	3.2890	3.2889	-0.3095	8.28	2.29	-0.750			
0.7786	49827.76	3.2860	3.2860	-0.3008	8.28	2.29	-0.750			
0.7795	49884.84	3.2830	3.2831	-0.2924	8.29	2.30	-0.750			
0.7803	49939.92	3.2800	3.2800	-0.2848	8.30	2.31	-0.750			
0.7811	49993.52	3.2770	3.2769	-0.2776	8.30	2.31	-0.750			
0.7820	50045.97	3.2740	3.2740	-0.2711	8.31	2.32	-0.750			
0.7828	50096.76	3.2710	3.2710	-0.2653	8.32	2.33	-0.750			
0.7836	50147.93	3.2680	3.2680	-0.2595	8.33	2.34	-0.750			
0.7843	50196.96	3.2650	3.2650	-0.2536	8.33	2.34	-0.750			
0.7851	50244.75	3.2620	3.2620	-0.2484	8.34	2.35	-0.750			
0.7858	50291.69	3.2590	3.2591	-0.2434	8.35	2.36	-0.750			
0.7865	50337.67	3.2560	3.2559	-0.2383	8.35	2.36	-0.750			
0.7872	50382.98	3.2530	3.2530	-0.2350	8.36	2.37	-0.750			
0.7879	50427.68	3.2500	3.2500	-0.2322	8.37	2.38	-0.750			
0.7886	50471.68	3.2470	3.2470	-0.2287	8.37	2.38	-0.750			
0.7893	50515.94	3.2440	3.2439	-0.2265	8.38	2.39	-0.750			
0.7900	50558.78	3.2410	3.2410	-0.2224	8.38	2.39	-0.750			
0.7907	50601.77	3.2380	3.2380	-0.2172	8.39	2.40	-0.750			
0.7913	50643.19	3.2350	3.2350	-0.2133	8.40	2.41	-0.750			
0.7919	50683.44	3.2320	3.2321	-0.2082	8.40	2.41	-0.750			
0.7925	50722.87	3.2290	3.2289	-0.2030	8.41	2.42	-0.750			
0.7931	50760.97	3.2260	3.2259	-0.1982	8.41	2.42	-0.750			
0.7937	50798.40	3.2230	3.2231	-0.1938	8.42	2.43	-0.750			
0.7943	50834.86	3.2200	3.2200	-0.1909	8.42	2.43	-0.750			
0.7949	50871.29	3.2170	3.2171	-0.1885	8.43	2.44	-0.750			
0.7954	50907.30	3.2140	3.2140	-0.1868	8.43	2.44	-0.750			
0.7960	50942.83	3.2110	3.2109	-0.1832	8.44	2.45	-0.750			
0.7965	50978.21	3.2080	3.2080	-0.1806	8.45	2.46	-0.750			
0.7971	51012.57	3.2050	3.2050	-0.1773	8.45	2.46	-0.750			
0.7976	51046.63	3.2020	3.2021	-0.1743	8.46	2.47	-0.750			
0.7981	51079.57	3.1990	3.1990	-0.1718	8.46	2.47	-0.750			
0.7986	51112.07	3.1960	3.1960	-0.1673	8.47	2.48	-0.750			
0.7991	51143.90	3.1930	3.1928	-0.1643	8.47	2.48	-0.750			
0.7996	51174.82	3.1900	3.1900	-0.1623	8.48	2.49	-0.750			
0.8001	51205.95	3.1870	3.1872	-0.1605	8.48	2.49	-0.750			
0.8006	51236.64	3.1840	3.1838	-0.1585	8.49	2.50	-0.750			
0.8010	51266.84	3.1810	3.1809	-0.1561	8.49	2.50	-0.750			
0.8015	51296.62	3.1780	3.1781	-0.1533	8.50	2.51	-0.750			
0.8020	51325.62	3.1750	3.1750	-0.1508	8.50	2.51	-0.750			
0.8024	51354.85	3.1720	3.1720	-0.1493	8.51	2.52	-0.750			
0.8029	51382.94	3.1690	3.1690	-0.1479	8.51	2.52	-0.750			
0.8033	51410.78	3.1660	3.1659	-0.1453	8.51	2.52	-0.750			
0.8037	51438.51	3.1630	3.1629	-0.1438	8.52	2.53	-0.750			
0.8042	51466.03	3.1600	3.1600	-0.1422	8.53	2.54	-0.750			
0.8046	51493.40	3.1570	3.1573	-0.1402	8.53	2.54	-0.750			
0.8050	51520.38	3.1540	3.1539	-0.1385	8.54	2.55	-0.750			
0.8054	51546.72	3.1510	3.1510	-0.1359	8.54	2.55	-0.750			
0.8058	51572.45	3.1480	3.1480	-0.1343	8.55	2.56	-0.750			
0.8062	51597.85	3.1450	3.1450	-0.1318	8.55	2.56	-0.750			
0.8066	51623.10	3.1420	3.1421	-0.1302	8.56	2.57	-0.750			
0.8070	51647.92	3.1390	3.1389	-0.1283	8.56	2.57	-0.750			
0.8074	51672.33	3.1360	3.1361	-0.1263	8.56	2.57	-0.750			
0.8078	51696.47	3.1330	3.1330	-0.1249	8.57	2.58	-0.750			
0.8081	51720.19	3.1300	3.1299	-0.1229	8.57	2.58	-0.750			
0.8085	51743.46	3.1270	3.1270	-0.1219	8.58	2.59	-0.750			
0.8089	51766.42	3.1240	3.1240	-0.1205	8.58	2.59	-0.750			
0.8092	51789.67	3.1210	3.1210	-0.1193	8.59	2.60	-0.750			
0.8096	51812.47	3.1180	3.1180	-0.1181	8.59	2.60	-0.750			
0.8099	51835.05	3.1150	3.1151	-0.1171	8.60	2.61	-0.750			
0.8103	51857.41	3.1120	3.1120	-0.1158	8.60	2.61	-0.750			
0.8106	51879.66	3.1090	3.1090	-0.1144	8.60	2.61	-0.750			
0.8110	51901.48	3.1060	3.1059	-0.1129	8.61	2.62	-0.750			
0.8113	51922.94	3.1030	3.1029	-0.1112	8.61	2.62	-0.750			
0.8116	51944.15	3.1000	3.1001	-0.1097	8.62	2.63	-0.750			
0.8120	51964.82	3.0970	3.0970	-0.1091	8.62	2.63	-0.750			
0.8123	51985.70	3.0940	3.0940	-0.1084	8.62	2.63	-0.750			
0.8126	52006.38	3.0910	3.0910	-0.1068	8.63	2.64	-0.750			
0.8129	52026.81	3.0880	3.0879	-0.1061	8.63	2.64	-0.750			
0.8132	52047.37	3.0850	3.0849	-0.1053	8.64	2.65	-0.750			
0.8136	52067.45	3.0820	3.0822	-0.1039	8.64	2.65	-0.750			
0.8139	52087.44	3.0790	3.0790	-0.1030	8.64	2.65	-0.750			
0.8142	52107.06	3.0760	3.0759	-0.1014	8.65	2.66	-0.750			
0.8145	52126.13	3.0730	3.0729	-0.1011	8.65	2.66	-0.750			
0.8148	52144.93	3.0700	3.0700	-0.0998	8.65	2.66	-0.750			
0.8151	52164.25	3.0670	3.0669	-0.0987	8.65	2.66	-0.750			
0.8154	52183.25	3.0640	3.0639	-0.0981	8.66	2.67	-0.750			
0.8157	52201.98	3.0610	3.0612	-0.0973	8.66	2.67	-0.750			
0.8159	52220.68	3.0580	3.0581	-0.0966	8.66	2.67	-0.750			
0.8162	52239.09	3.0550	3.0551	-0.0959	8.66	2.67	-0.750			
0.8165	52257.50	3.0520	3.0519	-0.0952	8.67	2.68	-0.750			
0.8168	52275.65	3.0490	3.0488	-0.0944	8.67	2.68	-0.750			
0.8171	52293.38	3.0460	3.0462	-0.0934	8.67	2.68	-0.750			
0.8174	52311.39	3.0430	3.0429	-0.0925	8.67	2.68	-0.750			
0.8176	52329.38	3.0400	3.0401	-0.0921	8.68	2.69	-0.750			
0.8179	52346.88	3.0370	3.0370	-0.0914	8.68	2.69	-0.750			
0.8182	52364.27	3.0340	3.0341	-0.0905	8.68	2.69	-0.750			
0.8185	52381.61	3.0310	3.0310	-0.0897	8.68	2.69	-0.750			
0.8187	52398.71	3.0280	3.0280	-0.0888	8.68	2.69	-0.750			
0.8190	52415.66	3.0250	3.0249	-0.0882	8.69	2.70	-0.750			
0.8193	52432.50	3.0220	3.0221	-0.0875	8.69	2.70	-0.750			
0.8195	52449.33	3.0190	3.0190	-0.0866	8.69	2.70	-0.750			
0.8198	52465.99	3.0160	3.0160	-0.0860	8.69	2.70	-0.750			
0.8200	52482.41	3.0130	3.0130	-0.0850	8.70	2.71	-0.750			
0.8203	52498.58	3.0100	3.0101	-0.0841	8.70	2.71	-0.750			
0.8205	52514.65	3.0070	3.0070	-0.0833	8.70	2.71	-0.750			
0.8208	52530.57	3.0040	3.0040	-0.0809	8.70	2.71	-0.750			
