Ah_balance (normalized)	Ah_balance (mAh)	Voltage - fit (V)	Voltage -  interpolate (V)	dQ/dV (1/V)	Temperature (°C)	Temperature - diff (°C)	Current (C)	R_DC 0ms (mOhm)	R_DC 50ms (mOhm)	R_DC 50 ms PEC (mOhm)
0.0000	0.00	4.0950	4.1263	0.0000	5.99	0.00	-0.751			
0.0000	0.00	4.0980	4.1263	0.0000	5.99	0.00	-0.751			
0.0002	10.77	4.0920	4.0919	-0.0380	5.99	0.00	-0.750			
0.0003	20.80	4.0890	4.0888	-0.0664	5.99	0.00	-0.750			
0.0006	36.85	4.0860	4.0858	-0.0937	5.99	0.00	-0.750			
0.0009	58.26	4.0830	4.0828	-0.1194	5.99	0.00	-0.750			
0.0013	83.71	4.0800	4.0799	-0.1458	5.99	0.00	-0.750			
0.0018	114.33	4.0770	4.0771	-0.1687	5.99	0.00	-0.750			
0.0023	149.06	4.0740	4.0742	-0.1911	5.99	0.00	-0.750			
0.0030	189.53	4.0710	4.0711	-0.2161	5.99	0.00	-0.750			
0.0036	233.00	4.0680	4.0680	-0.2394	5.99	0.00	-0.750			
0.0044	281.05	4.0650	4.0650	-0.2612	5.99	0.00	-0.750			
0.0052	333.20	4.0620	4.0620	-0.2836	5.99	0.00	-0.750			
0.0061	390.02	4.0590	4.0591	-0.3063	5.99	0.00	-0.750			
0.0071	451.33	4.0560	4.0560	-0.3289	5.99	0.00	-0.750			
0.0081	516.57	4.0530	4.0530	-0.3503	5.99	0.00	-0.750			
0.0091	585.21	4.0500	4.0501	-0.3735	5.99	0.00	-0.750			
0.0103	659.48	4.0470	4.0470	-0.3961	5.99	0.00	-0.750			
0.0115	738.63	4.0440	4.0439	-0.4168	5.99	0.00	-0.750			
0.0128	820.58	4.0410	4.0411	-0.4371	5.99	0.00	-0.750			
0.0142	906.35	4.0380	4.0381	-0.4584	5.99	0.00	-0.750			
0.0156	996.09	4.0350	4.0350	-0.4792	5.99	0.00	-0.750			
0.0170	1090.56	4.0320	4.0318	-0.4974	5.99	0.00	-0.750			
0.0186	1188.21	4.0290	4.0291	-0.5133	5.99	0.00	-0.750			
0.0201	1289.29	4.0260	4.0261	-0.5332	5.99	0.00	-0.750			
0.0218	1393.99	4.0230	4.0231	-0.5468	6.00	0.01	-0.750			
0.0234	1498.72	4.0200	4.0199	-0.5659	6.00	0.01	-0.750			
0.0251	1609.18	4.0170	4.0170	-0.5819	6.01	0.02	-0.750			
0.0269	1723.47	4.0140	4.0140	-0.5932	6.01	0.02	-0.750			
0.0287	1839.98	4.0110	4.0110	-0.6047	6.02	0.03	-0.750			
0.0306	1958.30	4.0080	4.0083	-0.6204	6.02	0.03	-0.750			
0.0325	2077.25	4.0050	4.0050	-0.6302	6.02	0.03	-0.750			
0.0344	2199.63	4.0020	4.0019	-0.6392	6.03	0.04	-0.750			
0.0363	2320.82	3.9990	3.9991	-0.6494	6.03	0.04	-0.750			
0.0383	2448.99	3.9960	3.9960	-0.6613	6.04	0.05	-0.750			
0.0403	2577.50	3.9930	3.9930	-0.6703	6.04	0.05	-0.750			
0.0423	2707.54	3.9900	3.9900	-0.6762	6.05	0.06	-0.750			
0.0443	2836.28	3.9870	3.9870	-0.6823	6.05	0.06	-0.750			
0.0464	2968.71	3.9840	3.9840	-0.6883	6.06	0.07	-0.750			
0.0485	3102.09	3.9810	3.9809	-0.6961	6.07	0.08	-0.750			
0.0506	3236.30	3.9780	3.9780	-0.6943	6.07	0.08	-0.750			
0.0527	3370.80	3.9750	3.9751	-0.7016	6.08	0.09	-0.750			
0.0548	3505.88	3.9720	3.9719	-0.7027	6.09	0.10	-0.750			
0.0569	3641.54	3.9690	3.9689	-0.7015	6.10	0.11	-0.750			
0.0590	3773.49	3.9660	3.9661	-0.7073	6.10	0.11	-0.750			
0.0611	3910.61	3.9630	3.9629	-0.7149	6.11	0.12	-0.750			
0.0633	4050.05	3.9600	3.9599	-0.7169	6.12	0.13	-0.750			
0.0655	4189.52	3.9570	3.9570	-0.7147	6.13	0.14	-0.750			
0.0676	4326.29	3.9540	3.9542	-0.7116	6.14	0.15	-0.750			
0.0697	4461.66	3.9510	3.9510	-0.7223	6.15	0.16	-0.750			
0.0719	4598.67	3.9480	3.9478	-0.7265	6.15	0.16	-0.750			
0.0740	4736.47	3.9450	3.9450	-0.7352	6.16	0.17	-0.750			
0.0763	4881.43	3.9420	3.9420	-0.7369	6.17	0.18	-0.750			
0.0786	5028.62	3.9390	3.9391	-0.7438	6.18	0.19	-0.750			
0.0808	5171.15	3.9360	3.9361	-0.7406	6.19	0.20	-0.750			
0.0830	5311.59	3.9330	3.9330	-0.7353	6.20	0.21	-0.750			
0.0852	5449.89	3.9300	3.9299	-0.7297	6.20	0.21	-0.750			
0.0873	5589.09	3.9270	3.9269	-0.7239	6.21	0.22	-0.750			
0.0895	5726.74	3.9240	3.9241	-0.7298	6.22	0.23	-0.750			
0.0917	5866.56	3.9210	3.9211	-0.7429	6.23	0.24	-0.750			
0.0939	6009.30	3.9180	3.9179	-0.7543	6.23	0.24	-0.750			
0.0962	6154.68	3.9150	3.9148	-0.7633	6.24	0.25	-0.750			
0.0985	6303.20	3.9120	3.9121	-0.7698	6.26	0.27	-0.750			
0.1009	6456.89	3.9090	3.9090	-0.7728	6.27	0.28	-0.750			
0.1032	6607.55	3.9060	3.9059	-0.7668	6.28	0.29	-0.750			
0.1055	6750.78	3.9030	3.9032	-0.7568	6.29	0.30	-0.750			
0.1077	6893.83	3.9000	3.9000	-0.7530	6.30	0.31	-0.750			
0.1099	7035.31	3.8970	3.8969	-0.7503	6.31	0.32	-0.750			
0.1122	7181.51	3.8940	3.8939	-0.7511	6.32	0.33	-0.750			
0.1145	7325.91	3.8910	3.8911	-0.7568	6.33	0.34	-0.750			
0.1167	7470.99	3.8880	3.8880	-0.7622	6.33	0.34	-0.750			
0.1191	7619.42	3.8850	3.8850	-0.7633	6.34	0.35	-0.750			
0.1213	7764.09	3.8820	3.8818	-0.7651	6.35	0.36	-0.750			
0.1236	7909.87	3.8790	3.8791	-0.7672	6.36	0.37	-0.750			
0.1259	8059.59	3.8760	3.8760	-0.7653	6.37	0.38	-0.750			
0.1283	8208.08	3.8730	3.8729	-0.7667	6.38	0.39	-0.750			
0.1305	8353.36	3.8700	3.8703	-0.7649	6.39	0.40	-0.750			
0.1328	8499.64	3.8670	3.8670	-0.7666	6.40	0.41	-0.750			
0.1351	8647.75	3.8640	3.8639	-0.7726	6.41	0.42	-0.750			
0.1374	8795.10	3.8610	3.8609	-0.7736	6.42	0.43	-0.750			
0.1397	8943.62	3.8580	3.8581	-0.7802	6.43	0.44	-0.750			
0.1421	9095.18	3.8550	3.8550	-0.7855	6.45	0.46	-0.750			
0.1445	9246.75	3.8520	3.8519	-0.7880	6.46	0.47	-0.750			
0.1468	9397.48	3.8490	3.8490	-0.7920	6.46	0.47	-0.750			
0.1492	9550.59	3.8460	3.8459	-0.7902	6.47	0.48	-0.750			
0.1516	9703.25	3.8430	3.8430	-0.7867	6.48	0.49	-0.750			
0.1540	9854.82	3.8400	3.8400	-0.7857	6.49	0.50	-0.750			
0.1563	10004.50	3.8370	3.8371	-0.7837	6.50	0.51	-0.750			
0.1587	10154.75	3.8340	3.8340	-0.7818	6.51	0.52	-0.750			
0.1610	10302.86	3.8310	3.8309	-0.7787	6.52	0.53	-0.750			
0.1633	10451.28	3.8280	3.8280	-0.7794	6.53	0.54	-0.750			
0.1657	10601.88	3.8250	3.8251	-0.7881	6.54	0.55	-0.750			
0.1680	10753.60	3.8220	3.8219	-0.7957	6.55	0.56	-0.750			
0.1704	10907.07	3.8190	3.8190	-0.7970	6.56	0.57	-0.750			
0.1728	11060.53	3.8160	3.8159	-0.8032	6.57	0.58	-0.750			
0.1753	11216.64	3.8130	3.8130	-0.8081	6.58	0.59	-0.750			
0.1777	11373.22	3.8100	3.8100	-0.8078	6.60	0.61	-0.750			
0.1801	11527.97	3.8070	3.8071	-0.8053	6.61	0.62	-0.750			
0.1825	11682.26	3.8040	3.8040	-0.8008	6.62	0.63	-0.750			
0.1849	11834.09	3.8010	3.8010	-0.8028	6.63	0.64	-0.750			
0.1873	11990.03	3.7980	3.7980	-0.7988	6.64	0.65	-0.750			
0.1897	12142.36	3.7950	3.7949	-0.7935	6.65	0.66	-0.750			
0.1921	12296.42	3.7920	3.7921	-0.7926	6.66	0.67	-0.750			
0.1945	12448.01	3.7890	3.7890	-0.7897	6.67	0.68	-0.750			
0.1968	12596.28	3.7860	3.7859	-0.7918	6.67	0.68	-0.750			
0.1992	12748.19	3.7830	3.7831	-0.7975	6.68	0.69	-0.750			
0.2015	12899.12	3.7800	3.7800	-0.7987	6.69	0.70	-0.750			
0.2040	13058.23	3.7770	3.7768	-0.8132	6.70	0.71	-0.750			
0.2065	13213.87	3.7740	3.7742	-0.8161	6.71	0.72	-0.750			
0.2089	13370.72	3.7710	3.7710	-0.8250	6.72	0.73	-0.750			
0.2114	13529.86	3.7680	3.7680	-0.8254	6.73	0.74	-0.750			
0.2139	13687.52	3.7650	3.7649	-0.8203	6.74	0.75	-0.750			
0.2164	13846.42	3.7620	3.7620	-0.8278	6.75	0.76	-0.750			
0.2189	14006.69	3.7590	3.7591	-0.8317	6.76	0.77	-0.750			
0.2213	14165.00	3.7560	3.7560	-0.8369	6.78	0.79	-0.750			
0.2239	14329.06	3.7530	3.7529	-0.8265	6.79	0.80	-0.750			
0.2263	14485.80	3.7500	3.7500	-0.8249	6.80	0.81	-0.750			
0.2288	14646.08	3.7470	3.7470	-0.8248	6.81	0.82	-0.750			
0.2313	14803.75	3.7440	3.7440	-0.8202	6.82	0.83	-0.750			
0.2337	14957.05	3.7410	3.7408	-0.8211	6.83	0.84	-0.750			
0.2361	15112.95	3.7380	3.7381	-0.8232	6.84	0.85	-0.750			
0.2386	15270.08	3.7350	3.7349	-0.8349	6.85	0.86	-0.750			
0.2412	15435.42	3.7320	3.7319	-0.8559	6.85	0.86	-0.750			
0.2437	15599.51	3.7290	3.7291	-0.8556	6.86	0.87	-0.750			
0.2464	15767.70	3.7260	3.7260	-0.8637	6.87	0.88	-0.750			
0.2490	15936.10	3.7230	3.7231	-0.8629	6.88	0.89	-0.750			
0.2516	16100.51	3.7200	3.7201	-0.8575	6.89	0.90	-0.750			
0.2541	16264.21	3.7170	3.7170	-0.8593	6.90	0.91	-0.750			
0.2567	16426.90	3.7140	3.7139	-0.8601	6.91	0.92	-0.750			
0.2592	16590.33	3.7110	3.7110	-0.8682	6.92	0.93	-0.750			
0.2618	16757.94	3.7080	3.7080	-0.8812	6.93	0.94	-0.750			
0.2645	16929.91	3.7050	3.7049	-0.8879	6.95	0.96	-0.750			
0.2672	17103.75	3.7020	3.7020	-0.8916	6.96	0.97	-0.750			
0.2699	17273.70	3.6990	3.6990	-0.8976	6.97	0.98	-0.750			
0.2726	17446.39	3.6960	3.6959	-0.8984	6.97	0.98	-0.750			
0.2753	17617.69	3.6930	3.6931	-0.8961	6.98	0.99	-0.750			
0.2780	17788.95	3.6900	3.6900	-0.9006	6.99	1.00	-0.750			
0.2807	17962.88	3.6870	3.6872	-0.9086	7.00	1.01	-0.750			
0.2834	18138.15	3.6840	3.6839	-0.9265	7.01	1.02	-0.750			
0.2862	18317.03	3.6810	3.6810	-0.9366	7.02	1.03	-0.750			
0.2891	18499.64	3.6780	3.6779	-0.9335	7.03	1.04	-0.750			
0.2919	18681.77	3.6750	3.6750	-0.9440	7.05	1.06	-0.750			
0.2947	18862.10	3.6720	3.6720	-0.9497	7.06	1.07	-0.750			
0.2975	19043.19	3.6690	3.6690	-0.9486	7.06	1.07	-0.750			
0.3004	19224.16	3.6660	3.6658	-0.9532	7.07	1.08	-0.750			
0.3032	19403.98	3.6630	3.6630	-0.9570	7.08	1.09	-0.750			
0.3062	19594.21	3.6600	3.6601	-0.9650	7.09	1.10	-0.750			
0.3091	19781.43	3.6570	3.6570	-0.9731	7.10	1.11	-0.750			
0.3120	19967.67	3.6540	3.6540	-0.9699	7.11	1.12	-0.750			
0.3149	20154.20	3.6510	3.6509	-0.9690	7.12	1.13	-0.750			
0.3178	20339.70	3.6480	3.6481	-0.9746	7.13	1.14	-0.750			
0.3207	20524.82	3.6450	3.6450	-0.9949	7.14	1.15	-0.750			
0.3237	20715.68	3.6420	3.6420	-1.0078	7.15	1.16	-0.750			
0.3268	20912.74	3.6390	3.6388	-1.0242	7.16	1.17	-0.750			
0.3298	21109.95	3.6360	3.6361	-1.0364	7.17	1.18	-0.750			
0.3330	21313.91	3.6330	3.6330	-1.0544	7.18	1.19	-0.750			
0.3362	21517.67	3.6300	3.6300	-1.0666	7.18	1.19	-0.750			
0.3394	21724.15	3.6270	3.6269	-1.0658	7.19	1.20	-0.750			
0.3426	21928.38	3.6240	3.6240	-1.0647	7.20	1.21	-0.750			
0.3459	22136.14	3.6210	3.6210	-1.0799	7.21	1.22	-0.750			
0.3492	22345.89	3.6180	3.6180	-1.0692	7.21	1.22	-0.750			
0.3523	22549.50	3.6150	3.6148	-1.0687	7.22	1.23	-0.750			
0.3555	22751.20	3.6120	3.6123	-1.0768	7.23	1.24	-0.750			
0.3587	22956.33	3.6090	3.6090	-1.0805	7.24	1.25	-0.750			
0.3620	23166.28	3.6060	3.6058	-1.0907	7.25	1.26	-0.750			
0.3652	23375.68	3.6030	3.6030	-1.1005	7.25	1.26	-0.750			
0.3686	23587.68	3.6000	3.6002	-1.1223	7.26	1.27	-0.750			
0.3721	23811.90	3.5970	3.5969	-1.1607	7.27	1.28	-0.750			
0.3756	24038.28	3.5940	3.5938	-1.1635	7.28	1.29	-0.750			
0.3791	24265.55	3.5910	3.5907	-1.1609	7.29	1.30	-0.750			
0.3827	24492.80	3.5880	3.5878	-1.1696	7.30	1.31	-0.750	0.387	0.843	
0.3862	24717.18	3.5850	3.5847	-1.1574	7.30	1.31	-0.750			
0.3896	24935.39	3.5820	3.5818	-1.1401	7.31	1.32	-0.750			
0.3928	25140.49	3.5790	3.5793	-1.1359	7.32	1.33	-0.750			
0.3963	25363.81	3.5760	3.5760	-1.1688	7.33	1.34	-0.750			
0.3998	25589.86	3.5730	3.5728	-1.1874	7.34	1.35	-0.750			
0.4034	25816.00	3.5700	3.5698	-1.2054	7.34	1.35	-0.750			
0.4071	26051.31	3.5670	3.5671	-1.2294	7.35	1.36	-0.750			
0.4108	26292.68	3.5640	3.5640	-1.2418	7.36	1.37	-0.750			
0.4146	26533.27	3.5610	3.5609	-1.2541	7.36	1.37	-0.750			
0.4183	26772.26	3.5580	3.5582	-1.2528	7.37	1.38	-0.750			
0.4222	27018.67	3.5550	3.5550	-1.2664	7.38	1.39	-0.750			
0.4260	27262.96	3.5520	3.5519	-1.2614	7.38	1.39	-0.750			
0.4297	27502.11	3.5490	3.5492	-1.2734	7.39	1.40	-0.750			
0.4335	27747.04	3.5460	3.5460	-1.2751	7.40	1.41	-0.750			
0.4374	27992.87	3.5430	3.5428	-1.2722	7.41	1.42	-0.750			
0.4412	28235.36	3.5400	3.5400	-1.2830	7.42	1.43	-0.750			
0.4451	28483.44	3.5370	3.5369	-1.2935	7.42	1.43	-0.750			
0.4490	28734.98	3.5340	3.5339	-1.3100	7.43	1.44	-0.750			
0.4529	28987.89	3.5310	3.5313	-1.3199	7.44	1.45	-0.750			
0.4569	29239.46	3.5280	3.5280	-1.3118	7.44	1.45	-0.750			
0.4609	29498.11	3.5250	3.5250	-1.3162	7.45	1.46	-0.750			
0.4649	29751.33	3.5220	3.5221	-1.3106	7.46	1.47	-0.750			
0.4687	29999.59	3.5190	3.5190	-1.3080	7.47	1.48	-0.750			
0.4727	30254.09	3.5160	3.5159	-1.3079	7.48	1.49	-0.750			
0.4766	30503.30	3.5130	3.5129	-1.3018	7.48	1.49	-0.750			
0.4805	30752.48	3.5100	3.5104	-1.3014	7.49	1.50	-0.750			
0.4844	31003.41	3.5070	3.5070	-1.3111	7.50	1.51	-0.750			
0.4883	31253.37	3.5040	3.5039	-1.3154	7.50	1.51	-0.750			
0.4923	31504.67	3.5010	3.5008	-1.3173	7.51	1.52	-0.750			
0.4963	31762.53	3.4980	3.4979	-1.3308	7.52	1.53	-0.750			
0.5003	32019.99	3.4950	3.4950	-1.3138	7.53	1.54	-0.750			
0.5043	32273.00	3.4920	3.4921	-1.3158	7.54	1.55	-0.750			
0.5082	32525.79	3.4890	3.4890	-1.2946	7.55	1.56	-0.750			
0.5120	32768.81	3.4860	3.4859	-1.2802	7.56	1.57	-0.750			
0.5158	33009.13	3.4830	3.4830	-1.2910	7.57	1.58	-0.750			
0.5196	33255.84	3.4800	3.4799	-1.2869	7.58	1.59	-0.750			
0.5236	33508.68	3.4770	3.4768	-1.2831	7.59	1.60	-0.750			
0.5275	33756.98	3.4740	3.4740	-1.2775	7.59	1.60	-0.750			
0.5312	33998.13	3.4710	3.4713	-1.2722	7.60	1.61	-0.750			
0.5351	34246.64	3.4680	3.4678	-1.2743	7.61	1.62	-0.750			
0.5388	34486.26	3.4650	3.4649	-1.2560	7.63	1.64	-0.750			
0.5426	34726.56	3.4620	3.4621	-1.2467	7.64	1.65	-0.750			
0.5464	34971.58	3.4590	3.4590	-1.2405	7.65	1.66	-0.750			
0.5501	35207.34	3.4560	3.4560	-1.2262	7.66	1.67	-0.750			
0.5537	35437.22	3.4530	3.4530	-1.2153	7.67	1.68	-0.750			
0.5573	35667.15	3.4500	3.4500	-1.2056	7.68	1.69	-0.750			
0.5609	35897.75	3.4470	3.4469	-1.1988	7.69	1.70	-0.750			
0.5645	36127.35	3.4440	3.4440	-1.1987	7.71	1.72	-0.750			
0.5681	36358.95	3.4410	3.4414	-1.1970	7.72	1.73	-0.750			
0.5717	36590.06	3.4380	3.4379	-1.1852	7.73	1.74	-0.750			
0.5752	36815.52	3.4350	3.4350	-1.1726	7.74	1.75	-0.750			
0.5788	37040.57	3.4320	3.4319	-1.1619	7.75	1.76	-0.750			
0.5822	37263.35	3.4290	3.4288	-1.1527	7.77	1.78	-0.750			
0.5857	37483.81	3.4260	3.4260	-1.1396	7.78	1.79	-0.750			
0.5891	37700.91	3.4230	3.4230	-1.1212	7.79	1.80	-0.750			
0.5924	37915.29	3.4200	3.4201	-1.1007	7.81	1.82	-0.750			
0.5957	38127.46	3.4170	3.4169	-1.0940	7.82	1.83	-0.750			
0.5990	38334.35	3.4140	3.4139	-1.0663	7.83	1.84	-0.750			
0.6021	38536.99	3.4110	3.4110	-1.0497	7.85	1.86	-0.750			
0.6052	38735.51	3.4080	3.4082	-1.0310	7.86	1.87	-0.750			
0.6083	38933.21	3.4050	3.4049	-1.0113	7.87	1.88	-0.750			
0.6114	39126.43	3.4020	3.4020	-0.9902	7.88	1.89	-0.750			
0.6143	39312.21	3.3990	3.3991	-0.9729	7.89	1.90	-0.750			
0.6171	39496.14	3.3960	3.3959	-0.9542	7.91	1.92	-0.750			
0.6200	39678.77	3.3930	3.3930	-0.9516	7.92	1.93	-0.750			
0.6228	39858.54	3.3900	3.3900	-0.9382	7.93	1.94	-0.750			
0.6256	40039.31	3.3870	3.3870	-0.9196	7.95	1.96	-0.750			
0.6284	40215.82	3.3840	3.3839	-0.9004	7.96	1.97	-0.750			
0.6311	40389.73	3.3810	3.3812	-0.8820	7.97	1.98	-0.750			
0.6337	40555.82	3.3780	3.3778	-0.8522	7.99	2.00	-0.750			
0.6362	40716.69	3.3750	3.3750	-0.8311	8.00	2.01	-0.750			
0.6386	40871.97	3.3720	3.3719	-0.8048	8.01	2.02	-0.750			
0.6410	41024.96	3.3690	3.3690	-0.7867	8.03	2.04	-0.750			
0.6433	41174.10	3.3660	3.3662	-0.7720	8.04	2.05	-0.750			
0.6456	41318.32	3.3630	3.3629	-0.7584	8.05	2.06	-0.750			
0.6478	41462.20	3.3600	3.3600	-0.7461	8.07	2.08	-0.750			
0.6501	41604.49	3.3570	3.3569	-0.7300	8.08	2.09	-0.750			
0.6523	41745.09	3.3540	3.3540	-0.7195	8.09	2.10	-0.750			
0.6544	41882.59	3.3510	3.3509	-0.7000	8.10	2.11	-0.750			
0.6565	42015.27	3.3480	3.3480	-0.6833	8.12	2.13	-0.750			
0.6585	42143.54	3.3450	3.3449	-0.6665	8.13	2.14	-0.750			
0.6604	42267.03	3.3420	3.3420	-0.6509	8.14	2.15	-0.750			
0.6624	42391.15	3.3390	3.3389	-0.6410	8.15	2.16	-0.750			
0.6643	42516.09	3.3360	3.3360	-0.6279	8.17	2.18	-0.750			
0.6662	42636.08	3.3330	3.3329	-0.6151	8.18	2.19	-0.750			
0.6680	42753.52	3.3300	3.3303	-0.6013	8.19	2.20	-0.750			
0.6698	42866.28	3.3270	3.3269	-0.5846	8.20	2.21	-0.750			
0.6715	42976.51	3.3240	3.3239	-0.5719	8.21	2.22	-0.750			
0.6732	43083.40	3.3210	3.3211	-0.5575	8.22	2.23	-0.750			
0.6748	43190.23	3.3180	3.3178	-0.5556	8.23	2.24	-0.750			
0.6765	43296.87	3.3150	3.3150	-0.5435	8.24	2.25	-0.750			
0.6781	43400.03	3.3120	3.3119	-0.5285	8.25	2.26	-0.750			
0.6797	43499.72	3.3090	3.3091	-0.5189	8.26	2.27	-0.750			
0.6812	43598.60	3.3060	3.3060	-0.5079	8.28	2.29	-0.750			
0.6827	43695.25	3.3030	3.3030	-0.4970	8.29	2.30	-0.750			
0.6842	43789.09	3.3000	3.2999	-0.4862	8.30	2.31	-0.750			
0.6856	43881.36	3.2970	3.2972	-0.4748	8.31	2.32	-0.750			
0.6871	43973.06	3.2940	3.2940	-0.4678	8.32	2.33	-0.750			
0.6885	44061.49	3.2910	3.2910	-0.4613	8.33	2.34	-0.750			
0.6898	44148.41	3.2880	3.2880	-0.4515	8.34	2.35	-0.750			
0.6912	44234.39	3.2850	3.2849	-0.4430	8.35	2.36	-0.750			
0.6925	44318.42	3.2820	3.2820	-0.4374	8.37	2.38	-0.750			
0.6938	44402.05	3.2790	3.2790	-0.4282	8.38	2.39	-0.750			
0.6951	44483.78	3.2760	3.2759	-0.4209	8.39	2.40	-0.750			
0.6963	44563.08	3.2730	3.2730	-0.4133	8.40	2.41	-0.750			
0.6975	44640.94	3.2700	3.2701	-0.4076	8.41	2.42	-0.750			
0.6987	44719.34	3.2670	3.2669	-0.4035	8.42	2.43	-0.750			
0.6999	44796.35	3.2640	3.2640	-0.4004	8.43	2.44	-0.750			
0.7011	44872.70	3.2610	3.2611	-0.3946	8.45	2.46	-0.750			
0.7023	44949.54	3.2580	3.2579	-0.3885	8.46	2.47	-0.750			
0.7035	45023.14	3.2550	3.2550	-0.3785	8.47	2.48	-0.750			
0.7046	45094.76	3.2520	3.2522	-0.3684	8.48	2.49	-0.750			
0.7057	45163.79	3.2490	3.2492	-0.3632	8.48	2.49	-0.750			
0.7068	45232.62	3.2460	3.2458	-0.3563	8.49	2.50	-0.750			
0.7078	45299.99	3.2430	3.2430	-0.3496	8.50	2.51	-0.750			
0.7088	45366.33	3.2400	3.2401	-0.3462	8.51	2.52	-0.750			
0.7099	45433.64	3.2370	3.2370	-0.3442	8.53	2.54	-0.750			
0.7109	45499.12	3.2340	3.2339	-0.3394	8.54	2.55	-0.750			
0.7119	45563.60	3.2310	3.2309	-0.3331	8.55	2.56	-0.750			
0.7129	45626.28	3.2280	3.2281	-0.3280	8.56	2.57	-0.750			
0.7139	45689.53	3.2250	3.2250	-0.3246	8.57	2.58	-0.750			
0.7149	45751.17	3.2220	3.2219	-0.3206	8.58	2.59	-0.750			
0.7158	45811.77	3.2190	3.2190	-0.3155	8.59	2.60	-0.750			
0.7167	45871.96	3.2160	3.2161	-0.3137	8.60	2.61	-0.750			
0.7177	45932.48	3.2130	3.2130	-0.3100	8.61	2.62	-0.750			
0.7186	45992.59	3.2100	3.2099	-0.3049	8.62	2.63	-0.750			
0.7195	46050.02	3.2070	3.2070	-0.2992	8.63	2.64	-0.750			
0.7204	46107.05	3.2040	3.2041	-0.2954	8.63	2.64	-0.750			
0.7213	46162.58	3.2010	3.2010	-0.2915	8.64	2.65	-0.750			
0.7222	46217.88	3.1980	3.1980	-0.2891	8.65	2.66	-0.750			
0.7230	46272.79	3.1950	3.1950	-0.2857	8.66	2.67	-0.750			
0.7239	46328.11	3.1920	3.1919	-0.2839	8.67	2.68	-0.750			
0.7247	46383.60	3.1890	3.1890	-0.2803	8.68	2.69	-0.750			
0.7256	46436.57	3.1860	3.1861	-0.2756	8.69	2.70	-0.750			
0.7264	46488.63	3.1830	3.1830	-0.2730	8.70	2.71	-0.750			
0.7272	46540.32	3.1800	3.1800	-0.2706	8.71	2.72	-0.750			
0.7280	46591.40	3.1770	3.1768	-0.2672	8.71	2.72	-0.750			
0.7288	46642.94	3.1740	3.1741	-0.2653	8.72	2.73	-0.750			
0.7296	46694.27	3.1710	3.1711	-0.2638	8.74	2.75	-0.750			
0.7304	46745.04	3.1680	3.1680	-0.2610	8.75	2.76	-0.750			
0.7312	46794.96	3.1650	3.1651	-0.2571	8.76	2.77	-0.750			
0.7319	46843.90	3.1620	3.1620	-0.2530	8.77	2.78	-0.750			
0.7327	46891.90	3.1590	3.1590	-0.2509	8.78	2.79	-0.750			
0.7334	46939.63	3.1560	3.1561	-0.2476	8.78	2.79	-0.750			
0.7342	46987.04	3.1530	3.1530	-0.2458	8.79	2.80	-0.750			
0.7349	47034.08	3.1500	3.1500	-0.2439	8.80	2.81	-0.750			
0.7356	47080.63	3.1470	3.1472	-0.2417	8.81	2.82	-0.750			
0.7364	47126.60	3.1440	3.1440	-0.2404	8.82	2.83	-0.750			
0.7371	47172.76	3.1410	3.1410	-0.2395	8.83	2.84	-0.750			
0.7378	47218.76	3.1380	3.1380	-0.2362	8.84	2.85	-0.750			
0.7385	47263.73	3.1350	3.1349	-0.2340	8.84	2.85	-0.750			
0.7392	47308.76	3.1320	3.1320	-0.2328	8.85	2.86	-0.750			
0.7399	47353.22	3.1290	3.1291	-0.2303	8.86	2.87	-0.750			
0.7406	47397.32	3.1260	3.1259	-0.2270	8.87	2.88	-0.750			
0.7413	47440.46	3.1230	3.1230	-0.2247	8.88	2.89	-0.750			
0.7419	47483.03	3.1200	3.1201	-0.2217	8.89	2.90	-0.750			
0.7426	47525.46	3.1170	3.1170	-0.2200	8.89	2.90	-0.750			
0.7432	47567.89	3.1140	3.1139	-0.2185	8.90	2.91	-0.750			
0.7439	47609.28	3.1110	3.1110	-0.2160	8.91	2.92	-0.750			
0.7445	47650.61	3.1080	3.1081	-0.2142	8.92	2.93	-0.750			
0.7452	47691.41	3.1050	3.1049	-0.2136	8.93	2.94	-0.750			
0.7458	47732.31	3.1020	3.1021	-0.2124	8.94	2.95	-0.750			
0.7464	47772.75	3.0990	3.0990	-0.2105	8.95	2.96	-0.750			
0.7471	47813.15	3.0960	3.0960	-0.2093	8.96	2.97	-0.750			
0.7477	47853.24	3.0930	3.0929	-0.2081	8.97	2.98	-0.750			
0.7483	47893.07	3.0900	3.0902	-0.2068	8.98	2.99	-0.750			
0.7490	47932.90	3.0870	3.0869	-0.2049	8.99	3.00	-0.750			
0.7496	47971.95	3.0840	3.0839	-0.2037	9.00	3.01	-0.750			
0.7502	48010.50	3.0810	3.0811	-0.2015	9.01	3.02	-0.750			
0.7508	48049.12	3.0780	3.0780	-0.2009	9.02	3.03	-0.750			
0.7514	48087.69	3.0750	3.0749	-0.2005	9.03	3.04	-0.750			
0.7520	48126.10	3.0720	3.0720	-0.1993	9.03	3.04	-0.750			
0.7526	48164.28	3.0690	3.0690	-0.1985	9.04	3.05	-0.750			
0.7532	48202.50	3.0660	3.0660	-0.1965	9.05	3.06	-0.750			
0.7538	48240.48	3.0630	3.0630	-0.1953	9.06	3.07	-0.750			
0.7543	48277.30	3.0600	3.0600	-0.1938	9.07	3.08	-0.750			
0.7549	48314.40	3.0570	3.0570	-0.1926	9.08	3.09	-0.750			
0.7555	48351.11	3.0540	3.0539	-0.1915	9.09	3.10	-0.750			
0.7561	48387.54	3.0510	3.0509	-0.1904	9.10	3.11	-0.750			
0.7566	48424.10	3.0480	3.0480	-0.1899	9.11	3.12	-0.750			
0.7572	48460.53	3.0450	3.0451	-0.1895	9.12	3.13	-0.750			
0.7578	48497.32	3.0420	3.0420	-0.1880	9.13	3.14	-0.750			
0.7583	48533.21	3.0390	3.0390	-0.1870	9.14	3.15	-0.750			
0.7589	48568.78	3.0360	3.0360	-0.1851	9.14	3.15	-0.750			
0.7594	48604.21	3.0330	3.0331	-0.1840	9.15	3.16	-0.750			
0.7600	48639.34	3.0300	3.0299	-0.1841	9.16	3.17	-0.750			
0.7605	48674.64	3.0270	3.0270	-0.1826	9.17	3.18	-0.750			
0.7611	48709.92	3.0240	3.0240	-0.1813	9.18	3.19	-0.750			
0.7616	48744.58	3.0210	3.0209	-0.1798	9.19	3.20	-0.750			
0.7622	48779.28	3.0180	3.0182	-0.1791	9.20	3.21	-0.750			
0.7627	48813.13	3.0150	3.0150	-0.1782	9.21	3.22	-0.750			
0.7632	48847.14	3.0120	3.0119	-0.1773	9.22	3.23	-0.750			
0.7638	48881.14	3.0090	3.0089	-0.1769	9.22	3.23	-0.750			
0.7643	48914.59	3.0060	3.0060	-0.1797	9.23	3.24	-0.750			
0.7648	48949.34	3.0030	3.0030	-0.1823	9.24	3.25	-0.750			
