Ah_balance (normalized)	Ah_balance (mAh)	Voltage - fit (V)	Voltage -  interpolate (V)	dQ/dV (1/V)	Temperature (°C)	Temperature - diff (°C)	Current (C)	R_DC 0ms (mOhm)	R_DC 50ms (mOhm)	R_DC 50 ms PEC (mOhm)
0.0949	6076.07	4.1990	4.1960	0.5116	8.44	2.27	0.750	0.377	0.806	
0.0967	6186.65	4.1960	4.1983	0.6434	8.43	2.26	0.750			
0.0989	6330.09	4.1930	4.1951	0.7550	8.43	2.26	0.750			
0.1014	6490.94	4.1900	4.1917	0.7836	8.42	2.25	0.750			
0.1040	6653.08	4.1870	4.1879	0.8051	8.41	2.24	0.750			
0.1063	6800.41	4.1840	4.1846	0.7744	8.41	2.24	0.750			
0.1090	6979.10	4.1810	4.1806	0.8139	8.40	2.23	0.750			
0.1110	7101.00	4.1780	4.1779	0.7186	8.40	2.23	0.750			
0.1131	7240.36	4.1750	4.1752	0.7204	8.40	2.23	0.750			
0.1154	7383.33	4.1720	4.1720	0.7165	8.39	2.22	0.750			
0.1175	7518.90	4.1690	4.1689	0.7113	8.39	2.22	0.750			
0.1195	7651.12	4.1660	4.1661	0.7107	8.38	2.21	0.750			
0.1217	7787.00	4.1630	4.1630	0.7107	8.38	2.21	0.750			
0.1238	7924.89	4.1600	4.1600	0.7151	8.38	2.21	0.750			
0.1260	8062.45	4.1570	4.1570	0.7183	8.37	2.20	0.750			
0.1281	8201.43	4.1540	4.1542	0.7191	8.37	2.20	0.750			
0.1303	8342.23	4.1510	4.1510	0.7253	8.36	2.19	0.750			
0.1325	8478.86	4.1480	4.1479	0.7208	8.36	2.19	0.750			
0.1346	8615.61	4.1450	4.1449	0.7286	8.35	2.18	0.750			
0.1368	8756.93	4.1420	4.1421	0.7385	8.35	2.18	0.750			
0.1391	8900.43	4.1390	4.1389	0.7421	8.34	2.17	0.750			
0.1413	9044.72	4.1360	4.1362	0.7522	8.34	2.17	0.750			
0.1436	9190.22	4.1330	4.1329	0.7530	8.33	2.16	0.750			
0.1459	9335.47	4.1300	4.1301	0.7590	8.32	2.15	0.750			
0.1481	9480.96	4.1270	4.1271	0.7599	8.32	2.15	0.750			
0.1504	9626.25	4.1240	4.1240	0.7572	8.31	2.14	0.750			
0.1527	9774.38	4.1210	4.1209	0.7577	8.31	2.14	0.750			
0.1550	9918.63	4.1180	4.1181	0.7585	8.30	2.13	0.750			
0.1573	10064.57	4.1150	4.1150	0.7565	8.30	2.13	0.750			
0.1595	10209.44	4.1120	4.1118	0.7630	8.29	2.12	0.750			
0.1618	10355.53	4.1090	4.1089	0.7664	8.29	2.12	0.750			
0.1641	10504.07	4.1060	4.1060	0.7678	8.28	2.11	0.750			
0.1664	10652.17	4.1030	4.1031	0.7761	8.28	2.11	0.750			
0.1688	10803.58	4.1000	4.0999	0.7782	8.28	2.11	0.750			
0.1711	10952.22	4.0970	4.0971	0.7783	8.27	2.10	0.750			
0.1735	11102.10	4.0940	4.0940	0.7809	8.27	2.10	0.750			
0.1758	11251.23	4.0910	4.0910	0.7778	8.26	2.09	0.750			
0.1781	11401.15	4.0880	4.0880	0.7805	8.26	2.09	0.750			
0.1805	11550.01	4.0850	4.0852	0.7871	8.25	2.08	0.750			
0.1828	11700.58	4.0820	4.0819	0.7850	8.25	2.08	0.750			
0.1852	11853.98	4.0790	4.0790	0.7906	8.24	2.07	0.750			
0.1876	12004.06	4.0760	4.0761	0.7948	8.23	2.06	0.750			
0.1900	12159.24	4.0730	4.0730	0.7879	8.22	2.05	0.750			
0.1923	12310.00	4.0700	4.0700	0.8014	8.22	2.05	0.750			
0.1947	12461.19	4.0670	4.0670	0.8045	8.21	2.04	0.750			
0.1971	12615.34	4.0640	4.0639	0.8187	8.20	2.03	0.750			
0.1996	12776.11	4.0610	4.0611	0.8300	8.20	2.03	0.750			
0.2022	12937.73	4.0580	4.0580	0.8378	8.19	2.02	0.750			
0.2047	13101.06	4.0550	4.0550	0.8384	8.19	2.02	0.750			
0.2073	13264.87	4.0520	4.0522	0.8358	8.18	2.01	0.750			
0.2097	13423.47	4.0490	4.0489	0.8323	8.18	2.01	0.750			
0.2122	13582.29	4.0460	4.0461	0.8349	8.17	2.00	0.750			
0.2147	13741.66	4.0430	4.0430	0.8376	8.17	2.00	0.750			
0.2172	13903.54	4.0400	4.0399	0.8413	8.16	1.99	0.750			
0.2197	14062.77	4.0370	4.0371	0.8431	8.16	1.99	0.750			
0.2223	14227.48	4.0340	4.0339	0.8499	8.15	1.98	0.750			
0.2249	14390.79	4.0310	4.0308	0.8571	8.14	1.97	0.750			
0.2274	14555.73	4.0280	4.0280	0.8555	8.14	1.97	0.750			
0.2300	14719.27	4.0250	4.0250	0.8573	8.13	1.96	0.750			
0.2326	14883.48	4.0220	4.0221	0.8615	8.13	1.96	0.750			
0.2352	15050.40	4.0190	4.0186	0.8754	8.12	1.95	0.750			
0.2378	15218.72	4.0160	4.0160	0.8741	8.11	1.94	0.750			
0.2404	15387.73	4.0130	4.0130	0.8843	8.10	1.93	0.750			
0.2431	15558.40	4.0100	4.0100	0.8911	8.09	1.92	0.750			
0.2458	15730.96	4.0070	4.0071	0.8907	8.09	1.92	0.750			
0.2485	15904.21	4.0040	4.0040	0.8927	8.08	1.91	0.750			
0.2512	16076.19	4.0010	4.0011	0.8849	8.07	1.90	0.750			
0.2538	16243.91	3.9980	3.9981	0.8864	8.07	1.90	0.750			
0.2565	16413.20	3.9950	3.9950	0.8973	8.06	1.89	0.750			
0.2591	16582.72	3.9920	3.9920	0.9031	8.05	1.88	0.750			
0.2619	16759.20	3.9890	3.9890	0.9117	8.04	1.87	0.750			
0.2647	16938.46	3.9860	3.9860	0.9229	8.04	1.87	0.750			
0.2675	17117.16	3.9830	3.9830	0.9293	8.03	1.86	0.750			
0.2703	17298.47	3.9800	3.9801	0.9370	8.02	1.85	0.750			
0.2731	17476.60	3.9770	3.9769	0.9371	8.01	1.84	0.750			
0.2759	17655.80	3.9740	3.9738	0.9346	8.00	1.83	0.750			
0.2786	17833.55	3.9710	3.9711	0.9379	8.00	1.83	0.750			
0.2815	18015.53	3.9680	3.9679	0.9434	7.99	1.82	0.750			
0.2843	18196.60	3.9650	3.9650	0.9513	7.98	1.81	0.750			
0.2872	18381.07	3.9620	3.9620	0.9495	7.97	1.80	0.750			
0.2901	18564.37	3.9590	3.9590	0.9498	7.96	1.79	0.750			
0.2929	18748.20	3.9560	3.9561	0.9531	7.95	1.78	0.750			
0.2958	18930.02	3.9530	3.9531	0.9614	7.95	1.78	0.750			
0.2986	19112.68	3.9500	3.9500	0.9652	7.94	1.77	0.750			
0.3015	19298.89	3.9470	3.9469	0.9716	7.93	1.76	0.750			
0.3044	19482.75	3.9440	3.9439	0.9831	7.92	1.75	0.750			
0.3074	19674.20	3.9410	3.9412	1.0033	7.91	1.74	0.750			
0.3105	19870.12	3.9380	3.9379	1.0187	7.90	1.73	0.750			
0.3135	20067.11	3.9350	3.9350	1.0165	7.89	1.72	0.750			
0.3166	20262.41	3.9320	3.9321	1.0291	7.88	1.71	0.750			
0.3197	20460.75	3.9290	3.9291	1.0389	7.87	1.70	0.750			
0.3228	20660.79	3.9260	3.9256	1.0376	7.86	1.69	0.750			
0.3259	20860.73	3.9230	3.9231	1.0450	7.85	1.68	0.750			
0.3291	21062.88	3.9200	3.9201	1.0545	7.84	1.67	0.750			
0.3323	21267.85	3.9170	3.9171	1.0698	7.83	1.66	0.750			
0.3355	21474.02	3.9140	3.9138	1.0676	7.82	1.65	0.750			
0.3387	21675.82	3.9110	3.9111	1.0892	7.81	1.64	0.750			
0.3420	21885.95	3.9080	3.9080	1.1089	7.80	1.63	0.750			
0.3454	22103.55	3.9050	3.9050	1.1251	7.79	1.62	0.750			
0.3488	22325.19	3.9020	3.9019	1.1250	7.78	1.61	0.750			
0.3522	22540.10	3.8990	3.8992	1.1402	7.77	1.60	0.750			
0.3556	22761.08	3.8960	3.8962	1.1476	7.75	1.58	0.750			
0.3591	22983.12	3.8930	3.8928	1.1553	7.74	1.57	0.750			
0.3625	23201.60	3.8900	3.8900	1.1574	7.73	1.56	0.750			
0.3660	23424.04	3.8870	3.8872	1.1792	7.72	1.55	0.750			
0.3696	23651.70	3.8840	3.8841	1.2046	7.70	1.53	0.750			
0.3732	23886.62	3.8810	3.8809	1.2171	7.69	1.52	0.750			
0.3769	24123.27	3.8780	3.8781	1.2317	7.68	1.51	0.750			
0.3806	24360.58	3.8750	3.8750	1.2595	7.66	1.49	0.750			
0.3845	24606.72	3.8720	3.8718	1.2680	7.65	1.48	0.750			
0.3883	24849.52	3.8690	3.8684	1.2919	7.64	1.47	0.750	0.392	0.843	
0.3922	25098.99	3.8660	3.8661	1.3134	7.63	1.46	0.750			
0.3962	25357.75	3.8630	3.8629	1.3284	7.61	1.44	0.750			
0.4002	25613.08	3.8600	3.8601	1.3507	7.60	1.43	0.750			
0.4043	25874.60	3.8570	3.8572	1.3775	7.59	1.42	0.750			
0.4085	26142.67	3.8540	3.8539	1.3902	7.58	1.41	0.750			
0.4127	26412.26	3.8510	3.8511	1.4249	7.56	1.39	0.750			
0.4170	26685.02	3.8480	3.8481	1.4395	7.54	1.37	0.750			
0.4214	26967.70	3.8450	3.8449	1.4465	7.52	1.35	0.750			
0.4257	27247.71	3.8420	3.8421	1.4841	7.50	1.33	0.750			
0.4302	27532.93	3.8390	3.8391	1.4934	7.48	1.31	0.750			
0.4347	27822.99	3.8360	3.8360	1.5084	7.46	1.29	0.750			
0.4392	28110.66	3.8330	3.8332	1.5461	7.44	1.27	0.750			
0.4439	28411.81	3.8300	3.8301	1.5678	7.42	1.25	0.750			
0.4488	28722.13	3.8270	3.8268	1.5836	7.40	1.23	0.750			
0.4536	29029.74	3.8240	3.8242	1.6014	7.38	1.21	0.750			
0.4583	29333.05	3.8210	3.8211	1.6088	7.37	1.20	0.750			
0.4631	29641.06	3.8180	3.8178	1.6671	7.35	1.18	0.750			
0.4682	29966.21	3.8150	3.8150	1.6744	7.32	1.15	0.750			
0.4732	30285.77	3.8120	3.8117	1.7007	7.30	1.13	0.750			
0.4785	30626.13	3.8090	3.8093	1.7484	7.28	1.11	0.750			
0.4839	30967.47	3.8060	3.8061	1.7636	7.25	1.08	0.750			
0.4892	31307.37	3.8030	3.8027	1.7679	7.23	1.06	0.750			
0.4944	31641.52	3.8000	3.8002	1.7967	7.21	1.04	0.750			
0.4997	31983.44	3.7970	3.7969	1.8449	7.18	1.01	0.750			
0.5055	32350.65	3.7940	3.7939	1.8754	7.16	0.99	0.750			
0.5112	32717.74	3.7910	3.7910	1.8792	7.13	0.96	0.750			
0.5169	33083.78	3.7880	3.7882	1.9220	7.11	0.94	0.750			
0.5227	33454.30	3.7850	3.7848	1.9363	7.08	0.91	0.750			
0.5285	33821.66	3.7820	3.7817	1.9723	7.05	0.88	0.750			
0.5344	34203.54	3.7790	3.7790	2.0153	7.02	0.85	0.750			
0.5407	34602.60	3.7760	3.7758	2.0651	7.00	0.83	0.750			
0.5470	35010.13	3.7730	3.7731	2.1133	6.97	0.80	0.750			
0.5532	35406.97	3.7700	3.7700	2.1225	6.94	0.77	0.750			
0.5597	35818.04	3.7670	3.7670	2.2061	6.91	0.74	0.750			
0.5662	36236.11	3.7640	3.7640	2.2799	6.89	0.72	0.750			
0.5733	36688.03	3.7610	3.7609	2.3808	6.86	0.69	0.750			
0.5806	37158.01	3.7580	3.7581	2.4917	6.82	0.65	0.750			
0.5882	37647.73	3.7550	3.7550	2.5964	6.79	0.62	0.750			
0.5961	38149.35	3.7520	3.7521	2.6600	6.76	0.59	0.750			
0.6044	38678.56	3.7490	3.7491	2.7409	6.72	0.55	0.750			
0.6126	39205.13	3.7460	3.7460	2.8827	6.69	0.52	0.750			
0.6215	39772.80	3.7430	3.7428	3.0440	6.65	0.48	0.750			
0.6308	40370.00	3.7400	3.7402	3.1555	6.61	0.44	0.750			
0.6406	40999.92	3.7370	3.7368	3.1814	6.56	0.39	0.750			
0.6500	41600.40	3.7340	3.7341	2.9491	6.52	0.35	0.750			
0.6586	42152.46	3.7310	3.7311	2.7024	6.49	0.32	0.750			
0.6660	42624.81	3.7280	3.7277	2.3419	6.47	0.30	0.750			
0.6726	43043.87	3.7250	3.7251	2.0645	6.44	0.27	0.750			
0.6783	43414.35	3.7220	3.7219	1.8308	6.42	0.25	0.750			
0.6834	43737.58	3.7190	3.7191	1.6260	6.40	0.23	0.750			
0.6877	44011.87	3.7160	3.7160	1.4477	6.38	0.21	0.750			
0.6917	44267.09	3.7130	3.7130	1.3534	6.37	0.20	0.750			
0.6954	44502.77	3.7100	3.7100	1.2544	6.36	0.19	0.750			
0.6989	44731.60	3.7070	3.7071	1.2072	6.35	0.18	0.750			
0.7025	44958.12	3.7040	3.7040	1.1774	6.33	0.16	0.750			
0.7060	45180.90	3.7010	3.7011	1.1467	6.32	0.15	0.750			
0.7094	45401.12	3.6980	3.6978	1.1224	6.31	0.14	0.750			
0.7127	45615.29	3.6950	3.6951	1.0820	6.30	0.13	0.750			
0.7159	45817.53	3.6920	3.6921	1.0554	6.29	0.12	0.750			
0.7190	46017.89	3.6890	3.6890	1.0290	6.27	0.10	0.750			
0.7220	46209.05	3.6860	3.6858	1.0072	6.26	0.09	0.750			
0.7249	46396.73	3.6830	3.6831	0.9828	6.25	0.08	0.750			
0.7279	46584.92	3.6800	3.6801	0.9743	6.25	0.08	0.750			
0.7308	46771.29	3.6770	3.6769	0.9699	6.24	0.07	0.750			
0.7337	46958.39	3.6740	3.6741	0.9498	6.23	0.06	0.750			
0.7366	47139.46	3.6710	3.6711	0.9355	6.23	0.06	0.750			
0.7394	47320.02	3.6680	3.6680	0.9201	6.22	0.05	0.750			
0.7420	47490.92	3.6650	3.6650	0.9086	6.21	0.04	0.750			
0.7447	47661.59	3.6620	3.6620	0.9025	6.21	0.04	0.750			
0.7474	47830.89	3.6590	3.6588	0.9090	6.20	0.03	0.750			
0.7501	48005.10	3.6560	3.6560	0.9092	6.19	0.02	0.750			
0.7528	48181.36	3.6530	3.6530	0.9314	6.18	0.01	0.750			
0.7556	48360.77	3.6500	3.6501	0.9559	6.17	0.00	0.750			
0.7586	48549.30	3.6470	3.6471	0.9647	6.16	-0.01	0.750			
0.7616	48741.94	3.6440	3.6439	0.9427	6.16	-0.01	0.750			
0.7645	48930.71	3.6410	3.6412	0.9107	6.16	-0.01	0.750			
0.7673	49109.83	3.6380	3.6381	0.8233	6.17	-0.00	0.750			
0.7699	49271.41	3.6350	3.6350	0.7238	6.17	-0.00	0.750			
0.7718	49392.90	3.6320	3.6320	0.5957	6.17	-0.00	0.750			
0.7730	49474.20	3.6290	3.6297	0.5019	6.17	0.00	0.750			
0.7744	49559.85	3.6260	3.6262	0.3987	6.17	0.00	0.750			
0.7754	49625.57	3.6230	3.6230	0.3169	6.17	0.00	0.750			
0.7761	49671.46	3.6200	3.6195	0.2359	6.17	0.00	0.750			
0.7767	49708.97	3.6170	3.6142	0.1810	6.17	0.00	0.750			
0.7769	49724.77	3.5960	3.5715	-0.1073	6.17	0.00	0.750			
0.7770	49729.70	3.6140	3.5035	0.1227	6.17	0.00	0.755			
0.7772	49740.13	3.6110	3.3597	0.0753	6.17	0.00	0.765			
0.7772	49741.86	3.5990	3.3359	-0.0708	6.17	0.00	0.766			
0.7774	49751.07	3.6080	3.2088	0.0388	6.17	0.00	0.775			
0.7774	49751.94	3.6020	3.1969	-0.0343	6.17	0.00	0.776			
0.7774	49755.01	3.6050	3.1545	0.0023	6.17	0.00	0.779			
