Ah_balance (normalized)	Ah_balance (mAh)	Voltage - fit (V)	Voltage -  interpolate (V)	dQ/dV (1/V)	Temperature (°C)	Temperature - diff (°C)	Current (C)	R_DC 0ms (mOhm)	R_DC 50ms (mOhm)	R_DC 50 ms PEC (mOhm)
0.0000	0.00	4.1060	4.1259	0.0000	5.99	-0.00	-0.750			
0.0001	8.93	4.1030	4.1021	-0.0248	5.99	-0.00	-0.750			
0.0003	18.24	4.1000	4.0992	-0.0583	5.99	-0.00	-0.750			
0.0005	33.37	4.0970	4.0965	-0.0873	5.99	-0.00	-0.750			
0.0008	52.81	4.0940	4.0939	-0.1152	5.99	-0.00	-0.750			
0.0012	78.12	4.0910	4.0911	-0.1399	5.99	-0.00	-0.750			
0.0017	107.61	4.0880	4.0881	-0.1651	5.99	-0.00	-0.750			
0.0022	143.80	4.0850	4.0850	-0.1908	5.99	-0.00	-0.750			
0.0029	182.55	4.0820	4.0820	-0.2112	5.99	-0.00	-0.750			
0.0035	224.85	4.0790	4.0790	-0.2330	5.99	-0.00	-0.750			
0.0042	271.59	4.0760	4.0759	-0.2545	5.99	-0.00	-0.750			
0.0050	322.33	4.0730	4.0729	-0.2774	5.99	0.00	-0.750			
0.0059	378.04	4.0700	4.0700	-0.2969	5.99	0.00	-0.750			
0.0068	437.11	4.0670	4.0670	-0.3185	5.99	0.00	-0.750			
0.0078	499.80	4.0640	4.0641	-0.3409	5.99	0.00	-0.750			
0.0089	567.53	4.0610	4.0610	-0.3637	5.99	0.00	-0.750			
0.0100	639.01	4.0580	4.0579	-0.3858	5.99	0.00	-0.750			
0.0112	714.65	4.0550	4.0550	-0.4124	6.00	0.01	-0.750			
0.0124	796.19	4.0520	4.0521	-0.4353	6.00	0.01	-0.750			
0.0138	883.04	4.0490	4.0489	-0.4597	6.00	0.01	-0.750			
0.0152	974.80	4.0460	4.0460	-0.4790	6.00	0.01	-0.750			
0.0167	1069.55	4.0430	4.0429	-0.4957	6.00	0.01	-0.750			
0.0182	1166.66	4.0400	4.0401	-0.5167	6.00	0.01	-0.750			
0.0198	1267.27	4.0370	4.0370	-0.5346	6.00	0.01	-0.750			
0.0214	1371.45	4.0340	4.0339	-0.5458	6.01	0.02	-0.750			
0.0231	1477.66	4.0310	4.0311	-0.5661	6.01	0.02	-0.750			
0.0248	1588.50	4.0280	4.0280	-0.5813	6.01	0.02	-0.750			
0.0266	1702.12	4.0250	4.0250	-0.5958	6.02	0.03	-0.750			
0.0284	1818.43	4.0220	4.0218	-0.6070	6.02	0.03	-0.750			
0.0302	1935.25	4.0190	4.0191	-0.6146	6.02	0.03	-0.750			
0.0321	2055.48	4.0160	4.0160	-0.6244	6.03	0.04	-0.750			
0.0340	2176.72	4.0130	4.0130	-0.6339	6.03	0.04	-0.750			
0.0359	2296.73	4.0100	4.0101	-0.6423	6.04	0.05	-0.750			
0.0379	2422.73	4.0070	4.0069	-0.6541	6.04	0.05	-0.750			
0.0398	2549.01	4.0040	4.0040	-0.6652	6.04	0.05	-0.750			
0.0419	2678.59	4.0010	4.0011	-0.6746	6.05	0.06	-0.750			
0.0439	2809.18	3.9980	3.9980	-0.6832	6.06	0.07	-0.750			
0.0460	2941.20	3.9950	3.9949	-0.6907	6.06	0.07	-0.750			
0.0480	3074.21	3.9920	3.9921	-0.6953	6.07	0.08	-0.750			
0.0501	3208.35	3.9890	3.9889	-0.6978	6.08	0.09	-0.750			
0.0523	3345.49	3.9860	3.9860	-0.7017	6.08	0.09	-0.750			
0.0544	3479.24	3.9830	3.9832	-0.7035	6.09	0.10	-0.750			
0.0565	3613.33	3.9800	3.9800	-0.7125	6.10	0.11	-0.750			
0.0586	3749.61	3.9770	3.9770	-0.7209	6.10	0.11	-0.750			
0.0607	3886.81	3.9740	3.9739	-0.7287	6.11	0.12	-0.750			
0.0630	4030.10	3.9710	3.9709	-0.7296	6.12	0.13	-0.750			
0.0652	4173.46	3.9680	3.9681	-0.7370	6.12	0.13	-0.750			
0.0674	4315.44	3.9650	3.9651	-0.7372	6.13	0.14	-0.750			
0.0696	4457.36	3.9620	3.9618	-0.7311	6.14	0.15	-0.750			
0.0718	4595.85	3.9590	3.9590	-0.7337	6.15	0.16	-0.750			
0.0740	4735.04	3.9560	3.9561	-0.7346	6.16	0.17	-0.750			
0.0762	4878.61	3.9530	3.9529	-0.7351	6.17	0.18	-0.750			
0.0784	5019.06	3.9500	3.9499	-0.7429	6.18	0.19	-0.750			
0.0806	5160.67	3.9470	3.9472	-0.7417	6.18	0.19	-0.750			
0.0829	5303.72	3.9440	3.9439	-0.7479	6.19	0.20	-0.750			
0.0852	5450.11	3.9410	3.9408	-0.7506	6.20	0.21	-0.750			
0.0874	5592.21	3.9380	3.9382	-0.7462	6.21	0.22	-0.750			
0.0896	5736.83	3.9350	3.9351	-0.7538	6.22	0.23	-0.750			
0.0919	5883.46	3.9320	3.9321	-0.7606	6.23	0.24	-0.750			
0.0942	6028.04	3.9290	3.9288	-0.7555	6.24	0.25	-0.750			
0.0965	6172.83	3.9260	3.9260	-0.7585	6.25	0.26	-0.750			
0.0987	6317.95	3.9230	3.9231	-0.7571	6.26	0.27	-0.750			
0.1010	6463.87	3.9200	3.9199	-0.7626	6.27	0.28	-0.750			
0.1033	6611.76	3.9170	3.9169	-0.7619	6.28	0.29	-0.750			
0.1056	6756.72	3.9140	3.9139	-0.7647	6.29	0.30	-0.750			
0.1079	6902.72	3.9110	3.9111	-0.7692	6.30	0.31	-0.750			
0.1102	7052.66	3.9080	3.9080	-0.7732	6.31	0.32	-0.750			
0.1125	7201.32	3.9050	3.9049	-0.7745	6.32	0.33	-0.750			
0.1148	7350.22	3.9020	3.9020	-0.7799	6.33	0.34	-0.750			
0.1172	7499.99	3.8990	3.8992	-0.7774	6.34	0.35	-0.750			
0.1195	7649.80	3.8960	3.8959	-0.7815	6.35	0.36	-0.750			
0.1219	7798.53	3.8930	3.8930	-0.7855	6.36	0.37	-0.750			
0.1242	7950.85	3.8900	3.8900	-0.7898	6.37	0.38	-0.750			
0.1266	8104.65	3.8870	3.8868	-0.7920	6.39	0.40	-0.750			
0.1290	8256.17	3.8840	3.8842	-0.7910	6.40	0.41	-0.750			
0.1314	8407.11	3.8810	3.8810	-0.7935	6.41	0.42	-0.750			
0.1338	8560.12	3.8780	3.8779	-0.8009	6.42	0.43	-0.750			
0.1362	8713.68	3.8750	3.8750	-0.7931	6.43	0.44	-0.750			
0.1385	8865.86	3.8720	3.8721	-0.7918	6.44	0.45	-0.750			
0.1409	9020.21	3.8690	3.8690	-0.8006	6.45	0.46	-0.750			
0.1433	9173.06	3.8660	3.8659	-0.8060	6.47	0.48	-0.750			
0.1457	9325.63	3.8630	3.8629	-0.8063	6.47	0.48	-0.750			
0.1482	9482.43	3.8600	3.8600	-0.8021	6.48	0.49	-0.750			
0.1506	9638.33	3.8570	3.8570	-0.8018	6.49	0.50	-0.750			
0.1530	9793.45	3.8540	3.8540	-0.8059	6.50	0.51	-0.750			
0.1554	9947.01	3.8510	3.8510	-0.8030	6.51	0.52	-0.750			
0.1578	10098.31	3.8480	3.8479	-0.8038	6.53	0.54	-0.750			
0.1602	10251.87	3.8450	3.8450	-0.8006	6.54	0.55	-0.750			
0.1626	10406.31	3.8420	3.8420	-0.8098	6.55	0.56	-0.750			
0.1651	10564.72	3.8390	3.8390	-0.8192	6.56	0.57	-0.750			
0.1675	10722.65	3.8360	3.8360	-0.8201	6.57	0.58	-0.750			
0.1700	10880.88	3.8330	3.8330	-0.8129	6.58	0.59	-0.750			
0.1725	11038.28	3.8300	3.8300	-0.8128	6.59	0.60	-0.750			
0.1749	11194.64	3.8270	3.8271	-0.8060	6.60	0.61	-0.750			
0.1774	11350.43	3.8240	3.8239	-0.7987	6.61	0.62	-0.750			
0.1797	11497.79	3.8210	3.8213	-0.7994	6.62	0.63	-0.750			
0.1820	11648.38	3.8180	3.8181	-0.8054	6.63	0.64	-0.750			
0.1844	11803.12	3.8150	3.8148	-0.8215	6.65	0.66	-0.750			
0.1869	11964.30	3.8120	3.8119	-0.8326	6.66	0.67	-0.750			
0.1895	12128.05	3.8090	3.8090	-0.8418	6.68	0.69	-0.750			
0.1921	12292.23	3.8060	3.8062	-0.8397	6.69	0.70	-0.750			
0.1946	12456.74	3.8030	3.8029	-0.8388	6.70	0.71	-0.750			
0.1971	12613.81	3.8000	3.8001	-0.8348	6.71	0.72	-0.750			
0.1996	12772.10	3.7970	3.7969	-0.8274	6.72	0.73	-0.750			
0.2021	12931.54	3.7940	3.7939	-0.8292	6.73	0.74	-0.750			
0.2045	13090.65	3.7910	3.7914	-0.8258	6.74	0.75	-0.750			
0.2070	13250.60	3.7880	3.7879	-0.8261	6.75	0.76	-0.750			
0.2095	13407.94	3.7850	3.7850	-0.8234	6.76	0.77	-0.750			
0.2119	13563.19	3.7820	3.7820	-0.8191	6.78	0.79	-0.750			
0.2144	13720.71	3.7790	3.7790	-0.8255	6.79	0.80	-0.750			
0.2169	13878.51	3.7760	3.7760	-0.8340	6.80	0.81	-0.750			
0.2194	14038.83	3.7730	3.7730	-0.8411	6.81	0.82	-0.750			
0.2219	14201.80	3.7700	3.7699	-0.8527	6.82	0.83	-0.750			
0.2245	14368.38	3.7670	3.7670	-0.8594	6.84	0.85	-0.750			
0.2271	14534.50	3.7640	3.7640	-0.8617	6.85	0.86	-0.750			
0.2297	14702.17	3.7610	3.7611	-0.8635	6.86	0.87	-0.750			
0.2323	14867.94	3.7580	3.7581	-0.8603	6.87	0.88	-0.750			
0.2349	15031.36	3.7550	3.7549	-0.8544	6.88	0.89	-0.750			
0.2374	15195.76	3.7520	3.7520	-0.8497	6.89	0.90	-0.750			
0.2400	15357.33	3.7490	3.7490	-0.8469	6.89	0.90	-0.750			
0.2425	15518.61	3.7460	3.7460	-0.8480	6.90	0.91	-0.750			
0.2450	15680.69	3.7430	3.7430	-0.8549	6.91	0.92	-0.750			
0.2476	15846.13	3.7400	3.7399	-0.8578	6.93	0.94	-0.750			
0.2502	16011.00	3.7370	3.7369	-0.8640	6.94	0.95	-0.750			
0.2528	16178.81	3.7340	3.7341	-0.8693	6.95	0.96	-0.750			
0.2554	16348.05	3.7310	3.7310	-0.8706	6.96	0.97	-0.750			
0.2580	16514.20	3.7280	3.7279	-0.8770	6.97	0.98	-0.750			
0.2607	16683.32	3.7250	3.7250	-0.8784	6.98	0.99	-0.750			
0.2633	16849.10	3.7220	3.7220	-0.8834	6.99	1.00	-0.750			
0.2660	17021.17	3.7190	3.7190	-0.8937	7.01	1.02	-0.750			
0.2687	17193.83	3.7160	3.7160	-0.8951	7.02	1.03	-0.750			
0.2714	17366.90	3.7130	3.7130	-0.9064	7.03	1.04	-0.750			
0.2741	17544.02	3.7100	3.7100	-0.9074	7.04	1.05	-0.750			
0.2768	17715.99	3.7070	3.7069	-0.9048	7.05	1.06	-0.750			
0.2796	17891.72	3.7040	3.7043	-0.9079	7.06	1.07	-0.750			
0.2822	18062.65	3.7010	3.7010	-0.9135	7.07	1.08	-0.750			
0.2850	18240.01	3.6980	3.6979	-0.9159	7.08	1.09	-0.750			
0.2878	18416.71	3.6950	3.6950	-0.9165	7.09	1.10	-0.750			
0.2905	18594.34	3.6920	3.6919	-0.9171	7.10	1.11	-0.750			
0.2933	18769.48	3.6890	3.6890	-0.9209	7.10	1.11	-0.750			
0.2960	18943.63	3.6860	3.6860	-0.9282	7.12	1.13	-0.750			
0.2988	19121.79	3.6830	3.6828	-0.9409	7.13	1.14	-0.750			
0.3016	19299.79	3.6800	3.6800	-0.9515	7.14	1.15	-0.750			
0.3045	19489.72	3.6770	3.6772	-0.9682	7.15	1.16	-0.750			
0.3075	19680.73	3.6740	3.6739	-0.9813	7.16	1.17	-0.750			
0.3105	19870.82	3.6710	3.6710	-0.9842	7.17	1.18	-0.750			
0.3134	20057.59	3.6680	3.6681	-0.9825	7.18	1.19	-0.750			
0.3163	20246.28	3.6650	3.6649	-0.9939	7.19	1.20	-0.750			
0.3193	20435.91	3.6620	3.6619	-0.9990	7.20	1.21	-0.750			
0.3223	20627.93	3.6590	3.6590	-1.0014	7.21	1.22	-0.750			
0.3254	20823.50	3.6560	3.6559	-1.0061	7.22	1.23	-0.750			
0.3284	21018.91	3.6530	3.6530	-1.0008	7.23	1.24	-0.750			
0.3314	21210.94	3.6500	3.6502	-1.0088	7.23	1.24	-0.750			
0.3344	21402.26	3.6470	3.6469	-1.0187	7.24	1.25	-0.750			
0.3374	21593.33	3.6440	3.6439	-1.0266	7.25	1.26	-0.750			
0.3405	21793.37	3.6410	3.6409	-1.0378	7.26	1.27	-0.750			
0.3437	21995.14	3.6380	3.6380	-1.0651	7.27	1.28	-0.750			
0.3469	22204.63	3.6350	3.6351	-1.0881	7.28	1.29	-0.750			
0.3503	22416.30	3.6320	3.6319	-1.0978	7.29	1.30	-0.750			
0.3535	22626.49	3.6290	3.6291	-1.1042	7.30	1.31	-0.750			
0.3569	22842.00	3.6260	3.6260	-1.1148	7.31	1.32	-0.750			
0.3603	23059.05	3.6230	3.6229	-1.1159	7.31	1.32	-0.750			
0.3636	23273.37	3.6200	3.6200	-1.1160	7.32	1.33	-0.750			
0.3669	23484.69	3.6170	3.6171	-1.1055	7.33	1.34	-0.750			
0.3703	23699.61	3.6140	3.6140	-1.1113	7.34	1.35	-0.750			
0.3736	23909.79	3.6110	3.6109	-1.1273	7.34	1.35	-0.750			
0.3769	24122.02	3.6080	3.6081	-1.1417	7.35	1.36	-0.750			
0.3804	24345.53	3.6050	3.6050	-1.1633	7.35	1.36	-0.750			
0.3840	24575.23	3.6020	3.6019	-1.1789	7.36	1.37	-0.750			
0.3876	24804.32	3.5990	3.5991	-1.1855	7.37	1.38	-0.750			
0.3912	25035.13	3.5960	3.5959	-1.1948	7.38	1.39	-0.750	0.407	0.884	
0.3948	25267.63	3.5930	3.5929	-1.2075	7.38	1.39	-0.750			
0.3984	25496.93	3.5900	3.5898	-1.2041	7.39	1.40	-0.750			
0.4019	25723.30	3.5870	3.5870	-1.2198	7.40	1.41	-0.750			
0.4056	25961.38	3.5840	3.5842	-1.2411	7.40	1.41	-0.750			
0.4094	26200.09	3.5810	3.5808	-1.2508	7.41	1.42	-0.750			
0.4132	26442.32	3.5780	3.5780	-1.2671	7.42	1.43	-0.750			
0.4169	26684.67	3.5750	3.5752	-1.2694	7.43	1.44	-0.750			
0.4208	26933.65	3.5720	3.5720	-1.2978	7.44	1.45	-0.750			
0.4248	27184.68	3.5690	3.5689	-1.3035	7.45	1.46	-0.750			
0.4287	27434.87	3.5660	3.5659	-1.3101	7.46	1.47	-0.750			
0.4327	27692.08	3.5630	3.5629	-1.3167	7.46	1.47	-0.750			
0.4366	27944.41	3.5600	3.5601	-1.3151	7.47	1.48	-0.750			
0.4406	28195.25	3.5570	3.5570	-1.3230	7.47	1.48	-0.750			
0.4445	28449.46	3.5540	3.5540	-1.3307	7.48	1.49	-0.750			
0.4485	28700.88	3.5510	3.5509	-1.3352	7.49	1.50	-0.750			
0.4525	28957.74	3.5480	3.5479	-1.3625	7.49	1.50	-0.750			
0.4566	29221.90	3.5450	3.5451	-1.3785	7.50	1.51	-0.750			
0.4609	29495.55	3.5420	3.5419	-1.4023	7.51	1.52	-0.750			
0.4651	29765.08	3.5390	3.5389	-1.4004	7.52	1.53	-0.750			
0.4693	30034.67	3.5360	3.5361	-1.3924	7.52	1.53	-0.750			
0.4735	30304.35	3.5330	3.5330	-1.3937	7.53	1.54	-0.750			
0.4776	30567.45	3.5300	3.5300	-1.4110	7.54	1.55	-0.750			
0.4818	30834.70	3.5270	3.5269	-1.4206	7.54	1.55	-0.750			
0.4861	31113.44	3.5240	3.5238	-1.4391	7.55	1.56	-0.750			
0.4906	31397.25	3.5210	3.5212	-1.4404	7.56	1.57	-0.750			
0.4950	31678.26	3.5180	3.5181	-1.4349	7.57	1.58	-0.750			
0.4993	31952.34	3.5150	3.5150	-1.4350	7.58	1.59	-0.750			
0.5035	32222.97	3.5120	3.5119	-1.4280	7.59	1.60	-0.750			
0.5077	32493.89	3.5090	3.5088	-1.4215	7.60	1.61	-0.750			
0.5120	32765.70	3.5060	3.5058	-1.4236	7.61	1.62	-0.750			
0.5163	33042.35	3.5030	3.5032	-1.4334	7.62	1.63	-0.750			
0.5206	33320.33	3.5000	3.4999	-1.4212	7.63	1.64	-0.750			
0.5249	33596.76	3.4970	3.4969	-1.4361	7.63	1.64	-0.750			
0.5292	33871.73	3.4940	3.4941	-1.4262	7.64	1.65	-0.750			
0.5335	34143.07	3.4910	3.4907	-1.4124	7.65	1.66	-0.750			
0.5378	34417.25	3.4880	3.4883	-1.4065	7.67	1.68	-0.750			
0.5419	34684.21	3.4850	3.4853	-1.4010	7.68	1.69	-0.750			
0.5461	34952.35	3.4820	3.4817	-1.3894	7.69	1.70	-0.750			
0.5503	35220.17	3.4790	3.4791	-1.3859	7.70	1.71	-0.750			
0.5544	35481.74	3.4760	3.4762	-1.3848	7.71	1.72	-0.750			
0.5587	35754.30	3.4730	3.4729	-1.3918	7.72	1.73	-0.750			
0.5628	36020.28	3.4700	3.4698	-1.3764	7.73	1.74	-0.750			
0.5669	36281.66	3.4670	3.4672	-1.3607	7.74	1.75	-0.750			
0.5710	36543.04	3.4640	3.4640	-1.3490	7.75	1.76	-0.750			
0.5750	36799.24	3.4610	3.4609	-1.3351	7.77	1.78	-0.750			
0.5789	37050.73	3.4580	3.4580	-1.3203	7.78	1.79	-0.750			
0.5829	37305.57	3.4550	3.4550	-1.3142	7.79	1.80	-0.750			
0.5868	37558.04	3.4520	3.4520	-1.2969	7.80	1.81	-0.750			
0.5907	37806.53	3.4490	3.4490	-1.2864	7.81	1.82	-0.750			
0.5946	38051.44	3.4460	3.4460	-1.2784	7.82	1.83	-0.750			
0.5984	38294.90	3.4430	3.4429	-1.2698	7.84	1.85	-0.750			
0.6021	38536.32	3.4400	3.4399	-1.2629	7.85	1.86	-0.750			
0.6059	38777.30	3.4370	3.4371	-1.2523	7.86	1.87	-0.750			
0.6097	39022.97	3.4340	3.4339	-1.2468	7.88	1.89	-0.750			
0.6135	39263.60	3.4310	3.4310	-1.2213	7.89	1.90	-0.750			
0.6171	39495.50	3.4280	3.4282	-1.1931	7.90	1.91	-0.750			
0.6207	39722.00	3.4250	3.4250	-1.1608	7.91	1.92	-0.750			
0.6241	39941.20	3.4220	3.4221	-1.1287	7.93	1.94	-0.750			
0.6274	40151.54	3.4190	3.4189	-1.1132	7.94	1.95	-0.750			
0.6306	40361.19	3.4160	3.4161	-1.1029	7.95	1.96	-0.750			
0.6340	40573.65	3.4130	3.4128	-1.0853	7.96	1.97	-0.750			
0.6372	40782.77	3.4100	3.4100	-1.0763	7.97	1.98	-0.750			
0.6404	40988.69	3.4070	3.4071	-1.0484	7.98	1.99	-0.750			
0.6436	41192.13	3.4040	3.4040	-1.0223	8.00	2.01	-0.750			
0.6467	41386.26	3.4010	3.4010	-0.9954	8.01	2.02	-0.750			
0.6495	41570.95	3.3980	3.3980	-0.9603	8.03	2.04	-0.750			
0.6524	41750.62	3.3950	3.3950	-0.9348	8.04	2.05	-0.750			
0.6551	41928.04	3.3920	3.3922	-0.9235	8.05	2.06	-0.750			
0.6578	42100.58	3.3890	3.3888	-0.9044	8.07	2.08	-0.750			
0.6606	42276.09	3.3860	3.3860	-0.8826	8.08	2.09	-0.750			
0.6632	42445.01	3.3830	3.3830	-0.8635	8.09	2.10	-0.750			
0.6658	42609.00	3.3800	3.3801	-0.8466	8.10	2.11	-0.750			
0.6683	42769.80	3.3770	3.3769	-0.8257	8.12	2.13	-0.750			
0.6707	42923.92	3.3740	3.3739	-0.8005	8.13	2.14	-0.750			
0.6730	43074.79	3.3710	3.3710	-0.7806	8.14	2.15	-0.750			
0.6754	43223.05	3.3680	3.3681	-0.7617	8.15	2.16	-0.750			
0.6776	43369.33	3.3650	3.3650	-0.7436	8.16	2.17	-0.750			
0.6798	43509.03	3.3620	3.3621	-0.7229	8.17	2.18	-0.750			
0.6820	43645.94	3.3590	3.3589	-0.7013	8.18	2.19	-0.750			
0.6840	43777.79	3.3560	3.3560	-0.6861	8.20	2.21	-0.750			
0.6861	43908.13	3.3530	3.3531	-0.6711	8.21	2.22	-0.750			
0.6881	44035.38	3.3500	3.3499	-0.6529	8.22	2.23	-0.750			
0.6900	44159.80	3.3470	3.3470	-0.6354	8.23	2.24	-0.750			
0.6919	44279.43	3.3440	3.3440	-0.6201	8.24	2.25	-0.750			
0.6937	44396.79	3.3410	3.3410	-0.6012	8.25	2.26	-0.750			
0.6955	44511.95	3.3380	3.3379	-0.5834	8.27	2.28	-0.750			
0.6972	44620.24	3.3350	3.3350	-0.5662	8.28	2.29	-0.750			
0.6989	44727.02	3.3320	3.3321	-0.5564	8.29	2.30	-0.750			
0.7005	44832.22	3.3290	3.3289	-0.5465	8.31	2.32	-0.750			
0.7021	44935.95	3.3260	3.3259	-0.5354	8.32	2.33	-0.750			
0.7037	45037.62	3.3230	3.3230	-0.5215	8.33	2.34	-0.750			
0.7053	45137.68	3.3200	3.3201	-0.5137	8.34	2.35	-0.750			
0.7068	45236.53	3.3170	3.3170	-0.5021	8.35	2.36	-0.750			
0.7083	45330.65	3.3140	3.3139	-0.4879	8.36	2.37	-0.750			
0.7097	45421.83	3.3110	3.3110	-0.4755	8.37	2.38	-0.750			
0.7111	45512.56	3.3080	3.3080	-0.4666	8.38	2.39	-0.750			
0.7125	45601.06	3.3050	3.3050	-0.4589	8.39	2.40	-0.750			
0.7139	45688.62	3.3020	3.3020	-0.4493	8.40	2.41	-0.750			
0.7152	45772.89	3.2990	3.2990	-0.4412	8.41	2.42	-0.750			
0.7165	45857.95	3.2960	3.2959	-0.4320	8.42	2.43	-0.750			
0.7178	45939.91	3.2930	3.2931	-0.4227	8.43	2.44	-0.750			
0.7191	46020.38	3.2900	3.2900	-0.4115	8.44	2.45	-0.750			
0.7203	46098.36	3.2870	3.2870	-0.4031	8.45	2.46	-0.750			
0.7215	46173.80	3.2840	3.2840	-0.3974	8.46	2.47	-0.750			
0.7226	46249.07	3.2810	3.2808	-0.3919	8.46	2.47	-0.750			
0.7238	46323.71	3.2780	3.2780	-0.3836	8.47	2.48	-0.750			
0.7250	46397.89	3.2750	3.2751	-0.3781	8.48	2.49	-0.750			
0.7261	46470.27	3.2720	3.2721	-0.3710	8.49	2.50	-0.750			
0.7272	46541.50	3.2690	3.2690	-0.3622	8.50	2.51	-0.750			
0.7283	46608.84	3.2660	3.2660	-0.3534	8.51	2.52	-0.750			
0.7293	46675.38	3.2630	3.2629	-0.3462	8.52	2.53	-0.750			
0.7303	46740.96	3.2600	3.2601	-0.3415	8.53	2.54	-0.750			
0.7313	46805.93	3.2570	3.2570	-0.3389	8.54	2.55	-0.750			
0.7324	46871.30	3.2540	3.2539	-0.3333	8.55	2.56	-0.750			
0.7334	46934.91	3.2510	3.2510	-0.3281	8.56	2.57	-0.750			
0.7343	46997.46	3.2480	3.2480	-0.3250	8.57	2.58	-0.750			
0.7353	47059.09	3.2450	3.2451	-0.3187	8.58	2.59	-0.750			
0.7363	47120.06	3.2420	3.2419	-0.3130	8.59	2.60	-0.750			
0.7372	47179.10	3.2390	3.2391	-0.3080	8.60	2.61	-0.750			
0.7381	47237.51	3.2360	3.2361	-0.3033	8.61	2.62	-0.750			
0.7390	47296.43	3.2330	3.2329	-0.2990	8.61	2.62	-0.750			
0.7399	47353.14	3.2300	3.2300	-0.2924	8.62	2.63	-0.750			
0.7408	47408.54	3.2270	3.2271	-0.2862	8.63	2.64	-0.750			
0.7416	47463.38	3.2240	3.2239	-0.2827	8.64	2.65	-0.750			
0.7425	47516.87	3.2210	3.2209	-0.2785	8.64	2.65	-0.750			
0.7433	47569.28	3.2180	3.2180	-0.2739	8.65	2.66	-0.750			
0.7441	47621.02	3.2150	3.2151	-0.2703	8.66	2.67	-0.750			
0.7449	47672.99	3.2120	3.2120	-0.2676	8.67	2.68	-0.750			
0.7457	47724.45	3.2090	3.2090	-0.2658	8.68	2.69	-0.750			
0.7465	47775.11	3.2060	3.2060	-0.2620	8.69	2.70	-0.750			
0.7473	47824.92	3.2030	3.2030	-0.2578	8.70	2.71	-0.750			
0.7480	47874.15	3.2000	3.1999	-0.2545	8.70	2.71	-0.750			
0.7488	47923.06	3.1970	3.1970	-0.2505	8.71	2.72	-0.750			
0.7495	47970.46	3.1940	3.1940	-0.2477	8.72	2.73	-0.750			
0.7503	48017.73	3.1910	3.1910	-0.2441	8.73	2.74	-0.750			
0.7510	48064.17	3.1880	3.1880	-0.2410	8.74	2.75	-0.750			
0.7517	48109.79	3.1850	3.1850	-0.2376	8.74	2.75	-0.750			
0.7524	48155.42	3.1820	3.1821	-0.2349	8.75	2.76	-0.750			
0.7531	48200.37	3.1790	3.1790	-0.2319	8.76	2.77	-0.750			
0.7538	48244.14	3.1760	3.1760	-0.2306	8.76	2.77	-0.750			
0.7545	48287.72	3.1730	3.1730	-0.2279	8.77	2.78	-0.750			
0.7552	48331.43	3.1700	3.1700	-0.2275	8.78	2.79	-0.750			
0.7559	48375.34	3.1670	3.1669	-0.2253	8.79	2.80	-0.750			
0.7565	48418.80	3.1640	3.1641	-0.2221	8.79	2.80	-0.750			
0.7572	48461.30	3.1610	3.1611	-0.2201	8.80	2.81	-0.750			
0.7579	48503.25	3.1580	3.1580	-0.2169	8.81	2.82	-0.750			
0.7585	48544.84	3.1550	3.1551	-0.2147	8.82	2.83	-0.750			
0.7591	48585.18	3.1520	3.1519	-0.2108	8.83	2.84	-0.750			
0.7598	48625.39	3.1490	3.1491	-0.2083	8.83	2.84	-0.750			
0.7604	48665.17	3.1460	3.1460	-0.2062	8.84	2.85	-0.750			
0.7610	48704.75	3.1430	3.1430	-0.2041	8.85	2.86	-0.750			
0.7616	48743.92	3.1400	3.1399	-0.2019	8.85	2.86	-0.750			
0.7622	48782.22	3.1370	3.1370	-0.1985	8.86	2.87	-0.750			
0.7628	48819.79	3.1340	3.1340	-0.1971	8.87	2.88	-0.750			
0.7634	48857.27	3.1310	3.1311	-0.1953	8.88	2.89	-0.750			
0.7640	48894.53	3.1280	3.1279	-0.1945	8.88	2.89	-0.750			
0.7646	48931.56	3.1250	3.1249	-0.1934	8.89	2.90	-0.750			
0.7651	48968.82	3.1220	3.1221	-0.1925	8.90	2.91	-0.750			
0.7657	49005.90	3.1190	3.1189	-0.1913	8.90	2.91	-0.750			
0.7663	49042.72	3.1160	3.1160	-0.1904	8.91	2.92	-0.750			
0.7669	49079.55	3.1130	3.1130	-0.1890	8.92	2.93	-0.750			
0.7674	49115.54	3.1100	3.1099	-0.1860	8.93	2.94	-0.750			
0.7680	49151.01	3.1070	3.1070	-0.1835	8.93	2.94	-0.750			
0.7685	49185.88	3.1040	3.1041	-0.1823	8.94	2.95	-0.750			
0.7691	49220.63	3.1010	3.1010	-0.1802	8.95	2.96	-0.750			
0.7696	49254.91	3.0980	3.0979	-0.1789	8.96	2.97	-0.750			
0.7701	49289.03	3.0950	3.0950	-0.1776	8.97	2.98	-0.750			
0.7707	49323.15	3.0920	3.0921	-0.1761	8.98	2.99	-0.750			
0.7712	49356.88	3.0890	3.0889	-0.1750	8.98	2.99	-0.750			
0.7717	49390.12	3.0860	3.0861	-0.1748	8.99	3.00	-0.750			
0.7722	49423.64	3.0830	3.0830	-0.1742	9.00	3.01	-0.750			
0.7728	49456.68	3.0800	3.0800	-0.1734	9.01	3.02	-0.750			
0.7733	49490.31	3.0770	3.0769	-0.1724	9.02	3.03	-0.750			
0.7738	49523.55	3.0740	3.0740	-0.1706	9.02	3.03	-0.750			
0.7743	49556.05	3.0710	3.0711	-0.1691	9.03	3.04	-0.750			
0.7748	49588.74	3.0680	3.0681	-0.1677	9.04	3.05	-0.750			
0.7753	49620.76	3.0650	3.0650	-0.1656	9.05	3.06	-0.750			
0.7758	49651.77	3.0620	3.0619	-0.1633	9.05	3.06	-0.750			
0.7763	49683.08	3.0590	3.0590	-0.1621	9.06	3.07	-0.750			
0.7768	49714.10	3.0560	3.0561	-0.1610	9.07	3.08	-0.750			
0.7773	49744.77	3.0530	3.0530	-0.1610	9.08	3.09	-0.750			
0.7777	49775.61	3.0500	3.0500	-0.1605	9.08	3.09	-0.750			
0.7782	49806.29	3.0470	3.0469	-0.1595	9.09	3.10	-0.750			
0.7787	49836.91	3.0440	3.0440	-0.1594	9.10	3.11	-0.750			
0.7792	49867.83	3.0410	3.0411	-0.1586	9.10	3.11	-0.750			
0.7797	49898.19	3.0380	3.0380	-0.1576	9.11	3.12	-0.750			
0.7801	49928.55	3.0350	3.0350	-0.1569	9.12	3.13	-0.750			
0.7806	49958.51	3.0320	3.0320	-0.1552	9.13	3.14	-0.750			
0.7811	49987.81	3.0290	3.0290	-0.1540	9.13	3.14	-0.750			
0.7815	50017.45	3.0260	3.0260	-0.1527	9.14	3.15	-0.750			
0.7820	50046.58	3.0230	3.0230	-0.1517	9.15	3.16	-0.750			
0.7824	50075.62	3.0200	3.0201	-0.1507	9.15	3.16	-0.750			
0.7829	50104.44	3.0170	3.0171	-0.1502	9.16	3.17	-0.750			
0.7833	50133.00	3.0140	3.0140	-0.1494	9.17	3.18	-0.750			
0.7838	50161.60	3.0110	3.0110	-0.1490	9.17	3.18	-0.750			
0.7842	50190.18	3.0080	3.0080	-0.1487	9.18	3.19	-0.750			
0.7847	50218.58	3.0050	3.0050	-0.1493	9.19	3.20	-0.750			
0.7851	50247.22	3.0020	3.0020	-0.1471	9.19	3.20	-0.750			
