Ah_balance (normalized)	Ah_balance (mAh)	Voltage - fit (V)	Voltage -  interpolate (V)	dQ/dV (1/V)	Temperature (°C)	Temperature - diff (°C)	Current (C)	R_DC 0ms (mOhm)	R_DC 50ms (mOhm)	R_DC 50 ms PEC (mOhm)
0.0966	6180.80	4.1980	4.1996	0.4157	8.42	2.43	0.750			
0.0982	6286.16	4.1950	4.1972	0.6219	8.41	2.42	0.750			
0.1005	6429.28	4.1920	4.1941	0.7337	8.41	2.42	0.750			
0.1029	6586.61	4.1890	4.1905	0.7624	8.41	2.42	0.750			
0.1055	6750.87	4.1860	4.1869	0.7953	8.40	2.41	0.750			
0.1078	6901.70	4.1830	4.1833	0.7777	8.40	2.41	0.750			
0.1106	7079.97	4.1800	4.1792	0.8117	8.39	2.40	0.750			
0.1121	7176.90	4.1770	4.1770	0.6986	8.39	2.40	0.750			
0.1143	7314.64	4.1740	4.1739	0.7070	8.38	2.39	0.750			
0.1164	7450.06	4.1710	4.1710	0.7070	8.38	2.39	0.750			
0.1185	7586.49	4.1680	4.1680	0.7128	8.37	2.38	0.750			
0.1207	7723.86	4.1650	4.1650	0.7175	8.37	2.38	0.750			
0.1228	7861.58	4.1620	4.1619	0.7180	8.36	2.37	0.750			
0.1250	8000.17	4.1590	4.1590	0.7122	8.36	2.37	0.750			
0.1271	8136.12	4.1560	4.1561	0.7148	8.35	2.36	0.750			
0.1293	8273.97	4.1530	4.1531	0.7185	8.35	2.36	0.750			
0.1314	8411.33	4.1500	4.1497	0.7208	8.34	2.35	0.750			
0.1336	8548.99	4.1470	4.1471	0.7173	8.33	2.34	0.750			
0.1357	8687.73	4.1440	4.1440	0.7219	8.33	2.34	0.750			
0.1379	8826.88	4.1410	4.1411	0.7324	8.32	2.33	0.750			
0.1401	8967.08	4.1380	4.1379	0.7371	8.32	2.33	0.750			
0.1424	9110.42	4.1350	4.1351	0.7310	8.31	2.32	0.750			
0.1446	9251.45	4.1320	4.1320	0.7334	8.31	2.32	0.750			
0.1468	9392.01	4.1290	4.1292	0.7350	8.30	2.31	0.750			
0.1490	9533.97	4.1260	4.1258	0.7397	8.30	2.31	0.750			
0.1512	9673.93	4.1230	4.1229	0.7430	8.29	2.30	0.750			
0.1534	9815.75	4.1200	4.1199	0.7518	8.29	2.30	0.750			
0.1557	9962.45	4.1170	4.1169	0.7584	8.28	2.29	0.750			
0.1580	10111.11	4.1140	4.1141	0.7693	8.28	2.29	0.750			
0.1603	10259.71	4.1110	4.1110	0.7668	8.27	2.28	0.750			
0.1626	10406.99	4.1080	4.1081	0.7710	8.26	2.27	0.750			
0.1649	10555.16	4.1050	4.1050	0.7650	8.25	2.26	0.750			
0.1672	10701.07	4.1020	4.1019	0.7652	8.25	2.26	0.750			
0.1695	10846.51	4.0990	4.0990	0.7689	8.24	2.25	0.750			
0.1718	10993.94	4.0960	4.0959	0.7819	8.23	2.24	0.750			
0.1741	11144.40	4.0930	4.0929	0.7845	8.23	2.24	0.750			
0.1765	11297.35	4.0900	4.0901	0.7931	8.22	2.23	0.750			
0.1789	11451.28	4.0870	4.0870	0.7940	8.22	2.23	0.750			
0.1814	11607.27	4.0840	4.0836	0.7935	8.21	2.22	0.750			
0.1837	11758.25	4.0810	4.0811	0.7872	8.20	2.21	0.750			
0.1861	11909.63	4.0780	4.0781	0.7740	8.20	2.21	0.750			
0.1884	12055.26	4.0750	4.0750	0.7754	8.19	2.20	0.750			
0.1907	12203.42	4.0720	4.0720	0.7851	8.18	2.19	0.750			
0.1930	12350.29	4.0690	4.0690	0.7937	8.17	2.18	0.750			
0.1954	12505.30	4.0660	4.0662	0.8025	8.17	2.18	0.750			
0.1979	12664.23	4.0630	4.0629	0.8100	8.16	2.17	0.750			
0.2003	12820.14	4.0600	4.0601	0.8183	8.15	2.16	0.750			
0.2028	12979.89	4.0570	4.0571	0.8271	8.15	2.16	0.750			
0.2053	13137.40	4.0540	4.0539	0.8265	8.14	2.15	0.750			
0.2078	13296.26	4.0510	4.0511	0.8265	8.14	2.15	0.750			
0.2102	13454.68	4.0480	4.0481	0.8239	8.13	2.14	0.750			
0.2127	13614.70	4.0450	4.0450	0.8333	8.12	2.13	0.750			
0.2152	13773.83	4.0420	4.0421	0.8439	8.11	2.12	0.750			
0.2177	13934.53	4.0390	4.0388	0.8458	8.10	2.11	0.750			
0.2203	14099.41	4.0360	4.0360	0.8440	8.09	2.10	0.750			
0.2229	14264.17	4.0330	4.0331	0.8434	8.08	2.09	0.750			
0.2254	14424.23	4.0300	4.0302	0.8536	8.07	2.08	0.750			
0.2280	14590.36	4.0270	4.0269	0.8540	8.06	2.07	0.750			
0.2305	14750.31	4.0240	4.0238	0.8609	8.05	2.06	0.750			
0.2331	14915.35	4.0210	4.0212	0.8689	8.04	2.05	0.750			
0.2357	15086.63	4.0180	4.0180	0.8788	8.04	2.05	0.750			
0.2384	15258.56	4.0150	4.0150	0.8843	8.03	2.04	0.750			
0.2411	15428.20	4.0120	4.0121	0.8843	8.02	2.03	0.750			
0.2437	15593.63	4.0090	4.0088	0.8859	8.01	2.02	0.750			
0.2464	15768.09	4.0060	4.0060	0.8889	8.00	2.01	0.750			
0.2490	15936.08	4.0030	4.0029	0.8871	8.00	2.01	0.750			
0.2517	16108.44	4.0000	4.0001	0.8958	7.99	2.00	0.750			
0.2544	16281.40	3.9970	3.9971	0.8996	7.98	1.99	0.750			
0.2571	16454.45	3.9940	3.9938	0.8981	7.98	1.99	0.750			
0.2598	16627.12	3.9910	3.9910	0.8933	7.97	1.98	0.750			
0.2624	16795.20	3.9880	3.9881	0.8928	7.96	1.97	0.750			
0.2651	16968.25	3.9850	3.9849	0.9023	7.95	1.96	0.750			
0.2678	17140.55	3.9820	3.9820	0.9025	7.93	1.94	0.750			
0.2705	17313.50	3.9790	3.9790	0.9120	7.92	1.93	0.750			
0.2733	17490.42	3.9760	3.9760	0.9132	7.92	1.93	0.750			
0.2760	17665.96	3.9730	3.9730	0.9280	7.91	1.92	0.750			
0.2788	17844.59	3.9700	3.9701	0.9364	7.90	1.91	0.750			
0.2816	18023.64	3.9670	3.9667	0.9445	7.89	1.90	0.750			
0.2845	18207.40	3.9640	3.9641	0.9453	7.88	1.89	0.750			
0.2873	18389.63	3.9610	3.9611	0.9587	7.87	1.88	0.750			
0.2902	18574.84	3.9580	3.9580	0.9658	7.86	1.87	0.750			
0.2931	18760.02	3.9550	3.9550	0.9678	7.85	1.86	0.750			
0.2960	18946.54	3.9520	3.9520	0.9748	7.84	1.85	0.750			
0.2990	19136.16	3.9490	3.9491	0.9797	7.83	1.84	0.750			
0.3019	19324.54	3.9460	3.9460	0.9856	7.82	1.83	0.750			
0.3049	19513.86	3.9430	3.9431	0.9883	7.81	1.82	0.750			
0.3079	19704.68	3.9400	3.9399	0.9989	7.80	1.81	0.750			
0.3109	19896.07	3.9370	3.9370	1.0140	7.79	1.80	0.750			
0.3140	20092.98	3.9340	3.9340	1.0197	7.78	1.79	0.750			
0.3171	20292.46	3.9310	3.9312	1.0244	7.77	1.78	0.750			
0.3202	20491.17	3.9280	3.9281	1.0202	7.76	1.77	0.750			
0.3232	20683.06	3.9250	3.9249	1.0263	7.74	1.75	0.750			
0.3262	20876.20	3.9220	3.9222	1.0345	7.73	1.74	0.750			
0.3293	21073.45	3.9190	3.9189	1.0553	7.72	1.73	0.750			
0.3325	21279.47	3.9160	3.9159	1.0642	7.71	1.72	0.750			
0.3357	21487.13	3.9130	3.9131	1.0897	7.69	1.70	0.750			
0.3391	21701.84	3.9100	3.9101	1.1083	7.68	1.69	0.750			
0.3425	21916.95	3.9070	3.9070	1.1137	7.67	1.68	0.750			
0.3458	22130.06	3.9040	3.9040	1.1119	7.65	1.66	0.750			
0.3491	22340.56	3.9010	3.9012	1.1234	7.64	1.65	0.750			
0.3525	22557.38	3.8980	3.8980	1.1360	7.63	1.64	0.750			
0.3559	22779.64	3.8950	3.8948	1.1583	7.62	1.63	0.750			
0.3594	23000.29	3.8920	3.8921	1.1636	7.61	1.62	0.750			
0.3629	23228.14	3.8890	3.8890	1.1766	7.59	1.60	0.750			
0.3665	23458.26	3.8860	3.8862	1.1894	7.58	1.59	0.750			
0.3701	23687.93	3.8830	3.8829	1.1766	7.57	1.58	0.750			
0.3736	23909.58	3.8800	3.8801	1.1997	7.55	1.56	0.750			
0.3771	24135.73	3.8770	3.8771	1.2303	7.54	1.55	0.750			
0.3809	24374.70	3.8740	3.8737	1.2485	7.52	1.53	0.750	0.382	0.808	
0.3846	24617.22	3.8710	3.8712	1.2801	7.51	1.52	0.750			
0.3886	24869.12	3.8680	3.8681	1.3116	7.49	1.50	0.750			
0.3927	25131.28	3.8650	3.8650	1.3311	7.48	1.49	0.750			
0.3967	25385.73	3.8620	3.8620	1.3511	7.46	1.47	0.750			
0.4007	25642.70	3.8590	3.8591	1.3667	7.44	1.45	0.750			
0.4049	25911.36	3.8560	3.8559	1.3747	7.42	1.43	0.750			
0.4091	26182.40	3.8530	3.8531	1.3924	7.40	1.41	0.750			
0.4132	26442.97	3.8500	3.8501	1.4190	7.38	1.39	0.750			
0.4175	26718.97	3.8470	3.8470	1.4344	7.37	1.38	0.750			
0.4218	26994.15	3.8440	3.8439	1.4733	7.35	1.36	0.750			
0.4263	27283.02	3.8410	3.8412	1.4834	7.33	1.34	0.750			
0.4308	27573.90	3.8380	3.8378	1.5034	7.31	1.32	0.750			
0.4355	27870.09	3.8350	3.8352	1.5356	7.29	1.30	0.750			
0.4400	28162.80	3.8320	3.8321	1.5465	7.27	1.28	0.750			
0.4447	28461.00	3.8290	3.8288	1.5582	7.25	1.26	0.750			
0.4494	28758.67	3.8260	3.8259	1.5756	7.22	1.23	0.750			
0.4541	29064.26	3.8230	3.8228	1.6019	7.20	1.21	0.750			
0.4590	29375.40	3.8200	3.8201	1.6440	7.18	1.19	0.750			
0.4640	29693.02	3.8170	3.8168	1.6544	7.15	1.16	0.750			
0.4689	30011.49	3.8140	3.8139	1.6708	7.13	1.14	0.750			
0.4741	30340.81	3.8110	3.8111	1.6995	7.11	1.12	0.750			
0.4792	30668.74	3.8080	3.8080	1.7160	7.08	1.09	0.750			
0.4844	31001.33	3.8050	3.8051	1.7130	7.05	1.06	0.750			
0.4895	31328.51	3.8020	3.8021	1.7452	7.02	1.03	0.750			
0.4947	31658.85	3.7990	3.7990	1.7812	7.00	1.01	0.750			
0.5001	32007.16	3.7960	3.7956	1.8027	6.97	0.98	0.750			
0.5056	32355.74	3.7930	3.7931	1.8363	6.94	0.95	0.750			
0.5112	32718.78	3.7900	3.7902	1.8663	6.92	0.93	0.750			
0.5168	33078.12	3.7870	3.7869	1.8796	6.91	0.92	0.750			
0.5225	33441.07	3.7840	3.7837	1.8917	6.88	0.89	0.750			
0.5281	33796.03	3.7810	3.7808	1.9445	6.85	0.86	0.750			
0.5341	34180.27	3.7780	3.7779	1.9714	6.82	0.83	0.750			
0.5400	34562.00	3.7750	3.7748	2.0298	6.79	0.80	0.750			
0.5462	34957.69	3.7720	3.7723	2.0741	6.76	0.77	0.750			
0.5524	35351.78	3.7690	3.7688	2.1056	6.73	0.74	0.750			
0.5589	35766.55	3.7660	3.7661	2.1691	6.70	0.71	0.750			
0.5652	36172.67	3.7630	3.7630	2.2578	6.67	0.68	0.750			
0.5723	36624.76	3.7600	3.7599	2.3750	6.64	0.65	0.750			
0.5794	37083.06	3.7570	3.7570	2.5026	6.60	0.61	0.750			
0.5872	37581.39	3.7540	3.7541	2.6128	6.56	0.57	0.750			
0.5953	38099.29	3.7510	3.7510	2.7403	6.52	0.53	0.750			
0.6035	38623.39	3.7480	3.7480	2.9008	6.49	0.50	0.750			
0.6125	39200.79	3.7450	3.7450	3.1148	6.45	0.46	0.750			
0.6223	39830.38	3.7420	3.7420	3.1882	6.41	0.42	0.750			
0.6320	40451.00	3.7390	3.7390	3.0678	6.37	0.38	0.750			
0.6407	41006.89	3.7360	3.7360	2.9209	6.33	0.34	0.750			
0.6496	41572.67	3.7330	3.7328	2.7432	6.29	0.30	0.750			
0.6576	42088.05	3.7300	3.7301	2.5371	6.27	0.28	0.750			
0.6646	42531.46	3.7270	3.7273	2.2019	6.24	0.25	0.750			
0.6705	42914.96	3.7240	3.7239	1.8960	6.22	0.23	0.750			
0.6757	43242.55	3.7210	3.7208	1.6453	6.20	0.21	0.750			
0.6800	43519.17	3.7180	3.7181	1.4574	6.19	0.20	0.750			
0.6839	43771.54	3.7150	3.7151	1.3324	6.17	0.18	0.750			
0.6876	44005.45	3.7120	3.7120	1.2274	6.16	0.17	0.750			
0.6910	44226.67	3.7090	3.7090	1.1823	6.15	0.16	0.750			
0.6944	44442.21	3.7060	3.7058	1.1385	6.14	0.15	0.750			
0.6978	44660.19	3.7030	3.7031	1.1216	6.13	0.14	0.750			
0.7012	44878.70	3.7000	3.7000	1.0999	6.12	0.13	0.750			
0.7045	45088.99	3.6970	3.6970	1.0654	6.11	0.12	0.750			
0.7077	45290.16	3.6940	3.6941	1.0329	6.10	0.11	0.750			
0.7107	45483.97	3.6910	3.6910	1.0032	6.09	0.10	0.750			
0.7136	45670.29	3.6880	3.6880	0.9800	6.08	0.09	0.750			
0.7165	45854.01	3.6850	3.6850	0.9648	6.08	0.09	0.750			
0.7194	46039.03	3.6820	3.6820	0.9471	6.07	0.08	0.750			
0.7222	46220.70	3.6790	3.6790	0.9323	6.06	0.07	0.750			
0.7250	46398.56	3.6760	3.6761	0.9264	6.05	0.06	0.750			
0.7277	46574.13	3.6730	3.6729	0.9103	6.04	0.05	0.750			
0.7304	46747.45	3.6700	3.6699	0.8962	6.03	0.04	0.750			
0.7331	46917.68	3.6670	3.6671	0.8878	6.03	0.04	0.750			
0.7357	47085.07	3.6640	3.6641	0.8811	6.02	0.03	0.750			
0.7383	47254.31	3.6610	3.6610	0.8810	6.02	0.03	0.750			
0.7410	47420.96	3.6580	3.6579	0.8793	6.01	0.02	0.750			
0.7436	47589.30	3.6550	3.6548	0.8784	6.01	0.02	0.750			
0.7463	47760.86	3.6520	3.6522	0.8802	6.01	0.02	0.750			
0.7490	47932.89	3.6490	3.6490	0.8587	6.00	0.01	0.750			
0.7517	48105.74	3.6460	3.6461	0.8209	6.00	0.01	0.750			
0.7541	48262.45	3.6430	3.6430	0.7559	5.99	0.00	0.750			
0.7563	48404.98	3.6400	3.6400	0.6744	5.99	0.00	0.750			
0.7583	48530.90	3.6370	3.6370	0.5881	5.99	-0.00	0.750			
0.7599	48634.31	3.6340	3.6341	0.4913	5.98	-0.01	0.750			
0.7610	48706.81	3.6310	3.6314	0.4194	5.98	-0.01	0.750			
0.7622	48778.04	3.6280	3.6282	0.3349	5.98	-0.01	0.750			
0.7630	48834.58	3.6250	3.6247	0.2723	5.98	-0.01	0.750			
0.7637	48873.65	3.6220	3.6212	0.2031	5.98	-0.01	0.750			
0.7641	48902.59	3.6190	3.6159	0.1499	5.98	-0.01	0.750			
0.7642	48911.31	3.5980	3.6048	-0.1204	5.98	-0.01	0.750			
0.7644	48921.24	3.6160	3.4931	0.1031	5.98	-0.01	0.759			
0.7645	48930.85	3.6010	3.3640	-0.0831	5.98	-0.01	0.772			
0.7646	48937.47	3.6130	3.2750	0.0659	5.98	-0.01	0.782			
0.7647	48943.23	3.6040	3.1975	-0.0459	5.98	-0.01	0.790			
0.7648	48946.54	3.6100	3.1530	0.0286	5.98	-0.01	0.795			
0.7648	48948.46	3.6070	3.1272	-0.0086	5.98	-0.01	0.797			
