Ah_balance (normalized)	Ah_balance (mAh)	Voltage - fit (V)	Voltage -  interpolate (V)	dQ/dV (1/V)	Temperature (°C)	Temperature - diff (°C)	Current (C)	R_DC 0ms (mOhm)	R_DC 50ms (mOhm)	R_DC 50 ms PEC (mOhm)
0.0932	5963.22	4.1970	4.1989	0.8963	8.23	2.24	0.750			
0.0959	6136.73	4.1940	4.1951	0.8802	8.23	2.24	0.750			
0.0985	6303.12	4.1910	4.1915	0.8345	8.22	2.23	0.750			
0.1011	6467.38	4.1880	4.1879	0.8210	8.21	2.22	0.750			
0.1031	6601.14	4.1850	4.1850	0.7165	8.21	2.22	0.750			
0.1053	6737.58	4.1820	4.1820	0.7216	8.20	2.21	0.750			
0.1074	6875.54	4.1790	4.1790	0.7256	8.20	2.21	0.750			
0.1096	7017.20	4.1760	4.1759	0.7289	8.20	2.21	0.750			
0.1118	7157.83	4.1730	4.1730	0.7295	8.19	2.20	0.750			
0.1140	7297.97	4.1700	4.1701	0.7272	8.19	2.20	0.750			
0.1162	7436.15	4.1670	4.1670	0.7261	8.19	2.20	0.750			
0.1184	7576.83	4.1640	4.1640	0.7290	8.18	2.19	0.750			
0.1205	7714.77	4.1610	4.1610	0.7356	8.18	2.19	0.750			
0.1228	7857.39	4.1580	4.1579	0.7377	8.17	2.18	0.750			
0.1250	8000.69	4.1550	4.1550	0.7447	8.17	2.18	0.750			
0.1273	8145.55	4.1520	4.1521	0.7460	8.16	2.17	0.750			
0.1295	8289.15	4.1490	4.1490	0.7446	8.16	2.17	0.750			
0.1317	8430.96	4.1460	4.1461	0.7461	8.15	2.16	0.750			
0.1340	8573.49	4.1430	4.1430	0.7437	8.15	2.16	0.750			
0.1362	8716.11	4.1400	4.1399	0.7375	8.14	2.15	0.750			
0.1384	8858.49	4.1370	4.1371	0.7423	8.14	2.15	0.750			
0.1406	8998.43	4.1340	4.1341	0.7507	8.14	2.15	0.750			
0.1428	9142.37	4.1310	4.1309	0.7583	8.13	2.14	0.750			
0.1451	9288.55	4.1280	4.1279	0.7582	8.13	2.14	0.750			
0.1474	9434.50	4.1250	4.1251	0.7642	8.12	2.13	0.750			
0.1497	9583.89	4.1220	4.1221	0.7710	8.12	2.13	0.750			
0.1521	9732.63	4.1190	4.1189	0.7741	8.11	2.12	0.750			
0.1544	9879.92	4.1160	4.1161	0.7684	8.11	2.12	0.750			
0.1567	10026.72	4.1130	4.1127	0.7695	8.10	2.11	0.750			
0.1590	10174.86	4.1100	4.1102	0.7788	8.10	2.11	0.750			
0.1614	10328.15	4.1070	4.1069	0.7789	8.09	2.10	0.750			
0.1637	10474.68	4.1040	4.1040	0.7879	8.08	2.09	0.750			
0.1660	10626.79	4.1010	4.1011	0.7980	8.08	2.09	0.750			
0.1684	10780.12	4.0980	4.0980	0.8023	8.07	2.08	0.750			
0.1709	10936.36	4.0950	4.0951	0.8079	8.07	2.08	0.750			
0.1733	11093.96	4.0920	4.0920	0.8005	8.06	2.07	0.750			
0.1757	11246.24	4.0890	4.0891	0.7971	8.06	2.07	0.750			
0.1781	11400.75	4.0860	4.0860	0.7987	8.05	2.06	0.750			
0.1804	11548.15	4.0830	4.0830	0.8003	8.04	2.05	0.750			
0.1828	11701.95	4.0800	4.0799	0.8013	8.04	2.05	0.750			
0.1853	11856.81	4.0770	4.0770	0.8092	8.03	2.04	0.750			
0.1877	12014.89	4.0740	4.0741	0.8164	8.03	2.04	0.750			
0.1902	12174.33	4.0710	4.0710	0.8181	8.03	2.04	0.750			
0.1927	12330.26	4.0680	4.0680	0.8223	8.02	2.03	0.750			
0.1951	12487.92	4.0650	4.0650	0.8214	8.02	2.03	0.750			
0.1976	12645.90	4.0620	4.0619	0.8224	8.02	2.03	0.750			
0.2001	12805.44	4.0590	4.0591	0.8306	8.01	2.02	0.750			
0.2026	12963.28	4.0560	4.0560	0.8316	8.01	2.02	0.750			
0.2051	13123.38	4.0530	4.0530	0.8372	8.00	2.01	0.750			
0.2076	13284.78	4.0500	4.0500	0.8414	8.00	2.01	0.750			
0.2101	13446.59	4.0470	4.0470	0.8391	7.99	2.00	0.750			
0.2126	13609.35	4.0440	4.0440	0.8475	7.98	1.99	0.750			
0.2152	13772.31	4.0410	4.0410	0.8512	7.97	1.98	0.750			
0.2177	13935.98	4.0380	4.0380	0.8541	7.97	1.98	0.750			
0.2203	14098.81	4.0350	4.0350	0.8641	7.96	1.97	0.750			
0.2229	14267.87	4.0320	4.0322	0.8635	7.95	1.96	0.750			
0.2255	14435.16	4.0290	4.0288	0.8666	7.95	1.96	0.750			
0.2282	14602.29	4.0260	4.0261	0.8628	7.94	1.95	0.750			
0.2307	14766.98	4.0230	4.0232	0.8551	7.93	1.94	0.750			
0.2333	14930.47	4.0200	4.0199	0.8504	7.93	1.94	0.750			
0.2358	15092.80	4.0170	4.0169	0.8471	7.92	1.93	0.750			
0.2383	15252.29	4.0140	4.0141	0.8556	7.91	1.92	0.750			
0.2409	15418.15	4.0110	4.0110	0.8619	7.91	1.92	0.750			
0.2435	15584.37	4.0080	4.0078	0.8726	7.90	1.91	0.750			
0.2462	15754.24	4.0050	4.0051	0.8820	7.90	1.91	0.750			
0.2488	15924.01	4.0020	4.0020	0.8916	7.89	1.90	0.750			
0.2515	16095.69	3.9990	3.9990	0.9025	7.88	1.89	0.750			
0.2542	16269.81	3.9960	3.9960	0.9069	7.88	1.89	0.750			
0.2570	16445.54	3.9930	3.9928	0.9033	7.87	1.88	0.750			
0.2597	16622.97	3.9900	3.9901	0.9034	7.86	1.87	0.750			
0.2624	16793.91	3.9870	3.9872	0.9016	7.86	1.87	0.750			
0.2651	16967.48	3.9840	3.9839	0.9024	7.85	1.86	0.750			
0.2678	17136.46	3.9810	3.9809	0.8943	7.84	1.85	0.750			
0.2704	17308.21	3.9780	3.9781	0.9052	7.84	1.85	0.750			
0.2732	17481.94	3.9750	3.9750	0.9168	7.83	1.84	0.750			
0.2760	17661.41	3.9720	3.9718	0.9368	7.83	1.84	0.750			
0.2788	17842.62	3.9690	3.9690	0.9417	7.83	1.84	0.750			
0.2816	18025.31	3.9660	3.9660	0.9407	7.82	1.83	0.750			
0.2845	18210.58	3.9630	3.9631	0.9449	7.81	1.82	0.750			
0.2874	18392.20	3.9600	3.9601	0.9467	7.80	1.81	0.750			
0.2902	18571.31	3.9570	3.9570	0.9454	7.79	1.80	0.750			
0.2930	18750.13	3.9540	3.9539	0.9493	7.78	1.79	0.750			
0.2958	18932.67	3.9510	3.9511	0.9563	7.78	1.79	0.750			
0.2987	19117.76	3.9480	3.9481	0.9736	7.77	1.78	0.750			
0.3017	19307.09	3.9450	3.9450	0.9804	7.76	1.77	0.750			
0.3047	19498.20	3.9420	3.9420	0.9857	7.76	1.77	0.750			
0.3076	19687.29	3.9390	3.9390	0.9893	7.75	1.76	0.750			
0.3106	19877.82	3.9360	3.9361	0.9867	7.74	1.75	0.750			
0.3135	20066.19	3.9330	3.9329	0.9857	7.73	1.74	0.750			
0.3165	20254.10	3.9300	3.9301	0.9954	7.72	1.73	0.750			
0.3194	20443.47	3.9270	3.9265	1.0061	7.71	1.72	0.750			
0.3225	20637.65	3.9240	3.9240	1.0206	7.70	1.71	0.750			
0.3255	20834.60	3.9210	3.9209	1.0301	7.69	1.70	0.750			
0.3286	21033.41	3.9180	3.9181	1.0478	7.68	1.69	0.750			
0.3319	21239.00	3.9150	3.9148	1.0601	7.67	1.68	0.750			
0.3350	21442.82	3.9120	3.9119	1.0676	7.66	1.67	0.750			
0.3383	21648.72	3.9090	3.9091	1.0747	7.65	1.66	0.750			
0.3415	21855.43	3.9060	3.9060	1.0809	7.64	1.65	0.750			
0.3448	22064.25	3.9030	3.9029	1.0844	7.63	1.64	0.750			
0.3480	22273.60	3.9000	3.9000	1.1014	7.62	1.63	0.750			
0.3513	22482.32	3.8970	3.8970	1.1074	7.61	1.62	0.750			
0.3547	22698.78	3.8940	3.8940	1.1218	7.60	1.61	0.750			
0.3581	22915.24	3.8910	3.8911	1.1319	7.59	1.60	0.750			
0.3615	23132.83	3.8880	3.8880	1.1479	7.58	1.59	0.750			
0.3649	23355.73	3.8850	3.8852	1.1600	7.57	1.58	0.750			
0.3684	23578.17	3.8820	3.8819	1.1836	7.56	1.57	0.750			
0.3719	23804.10	3.8790	3.8789	1.2037	7.55	1.56	0.750			
0.3756	24036.02	3.8760	3.8760	1.2388	7.54	1.55	0.750			
0.3794	24278.87	3.8730	3.8731	1.2590	7.52	1.53	0.750			
0.3833	24528.75	3.8700	3.8700	1.2647	7.51	1.52	0.750			
0.3871	24771.85	3.8670	3.8671	1.2771	7.49	1.50	0.750			
0.3909	25018.82	3.8640	3.8642	1.2854	7.48	1.49	0.750			
0.3948	25264.03	3.8610	3.8607	1.2844	7.47	1.48	0.750			
0.3985	25505.67	3.8580	3.8581	1.3092	7.46	1.47	0.750			
0.4024	25754.13	3.8550	3.8551	1.3525	7.44	1.45	0.750			
0.4066	26020.34	3.8520	3.8519	1.3877	7.43	1.44	0.750			
0.4108	26290.16	3.8490	3.8490	1.4000	7.41	1.42	0.750	0.396	0.960	
0.4151	26564.96	3.8460	3.8462	1.4269	7.40	1.41	0.750			
0.4194	26843.14	3.8430	3.8429	1.4684	7.38	1.39	0.750			
0.4239	27130.55	3.8400	3.8396	1.4790	7.37	1.38	0.750			
0.4283	27408.35	3.8370	3.8372	1.5152	7.35	1.36	0.750			
0.4328	27701.10	3.8340	3.8340	1.5352	7.34	1.35	0.750			
0.4376	28003.50	3.8310	3.8309	1.5770	7.32	1.33	0.750			
0.4424	28311.53	3.8280	3.8281	1.5983	7.30	1.31	0.750			
0.4472	28622.34	3.8250	3.8252	1.6319	7.28	1.29	0.750			
0.4522	28938.16	3.8220	3.8220	1.6553	7.26	1.27	0.750			
0.4572	29260.40	3.8190	3.8189	1.7169	7.24	1.25	0.750			
0.4624	29591.61	3.8160	3.8160	1.7558	7.22	1.23	0.750			
0.4677	29930.42	3.8130	3.8128	1.7753	7.21	1.22	0.750			
0.4730	30271.94	3.8100	3.8099	1.8326	7.18	1.19	0.750			
0.4787	30637.71	3.8070	3.8068	1.8759	7.16	1.17	0.750			
0.4843	30998.37	3.8040	3.8038	1.9163	7.13	1.14	0.750			
0.4901	31365.83	3.8010	3.8012	1.9580	7.11	1.12	0.750			
0.4960	31743.66	3.7980	3.7981	1.9930	7.08	1.09	0.750			
0.5021	32136.38	3.7950	3.7950	2.0199	7.06	1.07	0.750			
0.5082	32525.03	3.7920	3.7921	2.0798	7.04	1.05	0.750			
0.5145	32930.34	3.7890	3.7889	2.1322	7.02	1.03	0.750			
0.5210	33342.21	3.7860	3.7860	2.1749	6.99	1.00	0.750			
0.5276	33766.00	3.7830	3.7831	2.2064	6.96	0.97	0.750			
0.5344	34198.54	3.7800	3.7798	2.2333	6.93	0.94	0.750			
0.5409	34619.93	3.7770	3.7770	2.2408	6.91	0.92	0.750			
0.5477	35051.19	3.7740	3.7741	2.3144	6.89	0.90	0.750			
0.5547	35500.96	3.7710	3.7710	2.3573	6.86	0.87	0.750			
0.5619	35960.23	3.7680	3.7680	2.3953	6.83	0.84	0.750			
0.5692	36425.76	3.7650	3.7649	2.4563	6.79	0.80	0.750			
0.5765	36896.91	3.7620	3.7619	2.5065	6.76	0.77	0.750			
0.5840	37378.79	3.7590	3.7589	2.5266	6.73	0.74	0.750			
0.5918	37874.25	3.7560	3.7561	2.6001	6.70	0.71	0.750			
0.5997	38378.62	3.7530	3.7530	2.6398	6.67	0.68	0.750			
0.6076	38885.26	3.7500	3.7500	2.6826	6.63	0.64	0.750			
0.6158	39410.17	3.7470	3.7470	2.8125	6.59	0.60	0.750			
0.6243	39958.38	3.7440	3.7439	2.9589	6.56	0.57	0.750			
0.6334	40538.44	3.7410	3.7411	3.1390	6.52	0.53	0.750			
0.6432	41161.99	3.7380	3.7379	3.2621	6.49	0.50	0.750			
0.6531	41795.95	3.7350	3.7352	3.2520	6.44	0.45	0.750			
0.6628	42419.32	3.7320	3.7319	3.2624	6.40	0.41	0.750			
0.6725	43040.36	3.7290	3.7289	3.2635	6.37	0.38	0.750			
0.6827	43690.11	3.7260	3.7260	3.2100	6.33	0.34	0.750			
0.6920	44290.29	3.7230	3.7230	3.0377	6.29	0.30	0.750			
0.7009	44854.77	3.7200	3.7199	2.7453	6.26	0.27	0.750			
0.7087	45354.01	3.7170	3.7172	2.4541	6.24	0.25	0.750			
0.7153	45781.17	3.7140	3.7142	2.1419	6.22	0.23	0.750			
0.7213	46164.30	3.7110	3.7109	1.9071	6.20	0.21	0.750			
0.7265	46494.14	3.7080	3.7076	1.6928	6.19	0.20	0.750			
0.7311	46790.89	3.7050	3.7049	1.5125	6.17	0.18	0.750			
0.7353	47060.37	3.7020	3.7021	1.3868	6.16	0.17	0.750			
0.7392	47311.23	3.6990	3.6990	1.2788	6.15	0.16	0.750			
0.7427	47534.58	3.6960	3.6960	1.1995	6.14	0.15	0.750			
0.7462	47757.41	3.6930	3.6930	1.1456	6.13	0.14	0.750			
0.7495	47968.28	3.6900	3.6900	1.1120	6.12	0.13	0.750			
0.7528	48179.88	3.6870	3.6871	1.0931	6.11	0.12	0.750			
0.7561	48389.84	3.6840	3.6839	1.0728	6.10	0.11	0.750			
0.7593	48593.24	3.6810	3.6810	1.0395	6.09	0.10	0.750			
0.7623	48789.24	3.6780	3.6780	1.0255	6.09	0.10	0.750			
0.7653	48982.34	3.6750	3.6750	1.0058	6.08	0.09	0.750			
0.7684	49174.69	3.6720	3.6719	0.9958	6.07	0.08	0.750			
0.7713	49365.02	3.6690	3.6691	0.9635	6.06	0.07	0.750			
0.7742	49548.78	3.6660	3.6660	0.9495	6.05	0.06	0.750			
0.7770	49729.51	3.6630	3.6631	0.9339	6.05	0.06	0.750			
0.7798	49906.43	3.6600	3.6601	0.9207	6.04	0.05	0.750			
0.7825	50078.18	3.6570	3.6570	0.9050	6.03	0.04	0.750			
0.7852	50253.35	3.6540	3.6540	0.8849	6.02	0.03	0.750			
0.7878	50421.89	3.6510	3.6511	0.8738	6.02	0.03	0.750			
0.7904	50588.28	3.6480	3.6481	0.8705	6.02	0.03	0.750			
0.7930	50752.06	3.6450	3.6450	0.8588	6.01	0.02	0.750			
0.7955	50913.16	3.6420	3.6421	0.8572	6.01	0.02	0.750			
0.7981	51077.91	3.6390	3.6390	0.8580	6.00	0.01	0.750			
0.8007	51246.59	3.6360	3.6360	0.8443	6.00	0.01	0.750			
0.8033	51413.35	3.6330	3.6328	0.8230	6.00	0.01	0.750			
0.8059	51577.65	3.6300	3.6302	0.7745	5.99	0.00	0.750			
0.8082	51724.28	3.6270	3.6270	0.7066	5.99	-0.00	0.750			
0.8103	51858.39	3.6240	3.6240	0.6271	5.98	-0.01	0.750			
0.8120	51969.65	3.6210	3.6209	0.5359	5.98	-0.01	0.750			
0.8134	52060.18	3.6180	3.6181	0.4471	5.98	-0.01	0.750			
0.8145	52129.53	3.6150	3.6152	0.3733	5.98	-0.01	0.750			
0.8155	52191.79	3.6120	3.6121	0.2945	5.98	-0.01	0.750			
0.8163	52241.40	3.6090	3.6089	0.2334	5.98	-0.01	0.750			
0.8168	52276.54	3.6060	3.6059	0.1712	5.97	-0.02	0.750			
0.8173	52304.44	3.6030	3.6024	0.1214	5.97	-0.02	0.750			
0.8175	52321.14	3.6000	3.5957	0.0719	5.97	-0.02	0.750			
0.8175	52322.10	3.5910	3.5944	-0.0615	5.97	-0.02	0.750			
0.8176	52328.76	3.5970	3.5508	0.0268	5.97	-0.02	0.755			
0.8177	52329.67	3.5940	3.5432	-0.0173	5.97	-0.02	0.756			
