Ah_balance (normalized)	Ah_balance (mAh)	Voltage - fit (V)	Voltage -  interpolate (V)	dQ/dV (1/V)	Temperature (°C)	Temperature - diff (°C)	Current (C)	R_DC 0ms (mOhm)	R_DC 50ms (mOhm)	R_DC 50 ms PEC (mOhm)
0.0949	6075.31	4.1990	4.1973	0.5665	8.31	2.32	0.750			
0.0970	6208.91	4.1960	4.1985	0.7910	8.30	2.31	0.750	0.396	0.819	
0.0996	6377.04	4.1930	4.1947	0.8431	8.29	2.30	0.750			
0.1022	6540.40	4.1900	4.1912	0.8264	8.29	2.30	0.750			
0.1049	6712.06	4.1870	4.1870	0.8233	8.28	2.29	0.750			
0.1074	6872.96	4.1840	4.1836	0.7827	8.28	2.29	0.750			
0.1091	6984.81	4.1810	4.1811	0.6972	8.27	2.28	0.750			
0.1112	7118.04	4.1780	4.1778	0.7016	8.27	2.28	0.750			
0.1134	7254.52	4.1750	4.1751	0.7104	8.26	2.27	0.750			
0.1155	7391.33	4.1720	4.1720	0.7073	8.26	2.27	0.750			
0.1176	7527.65	4.1690	4.1689	0.7126	8.25	2.26	0.750			
0.1198	7667.32	4.1660	4.1660	0.7070	8.25	2.26	0.750			
0.1219	7801.34	4.1630	4.1631	0.7132	8.25	2.26	0.750			
0.1240	7936.20	4.1600	4.1599	0.7174	8.24	2.25	0.750			
0.1262	8074.09	4.1570	4.1568	0.7212	8.24	2.25	0.750			
0.1283	8213.11	4.1540	4.1541	0.7248	8.23	2.24	0.750			
0.1306	8355.90	4.1510	4.1509	0.7281	8.23	2.24	0.750			
0.1327	8495.69	4.1480	4.1481	0.7318	8.22	2.23	0.750			
0.1349	8635.98	4.1450	4.1450	0.7292	8.21	2.22	0.750			
0.1371	8776.63	4.1420	4.1420	0.7295	8.21	2.22	0.750			
0.1393	8915.33	4.1390	4.1388	0.7270	8.20	2.21	0.750			
0.1415	9056.12	4.1360	4.1361	0.7336	8.19	2.20	0.750			
0.1437	9198.83	4.1330	4.1330	0.7362	8.19	2.20	0.750			
0.1459	9339.16	4.1300	4.1299	0.7404	8.18	2.19	0.750			
0.1481	9480.80	4.1270	4.1271	0.7409	8.18	2.19	0.750			
0.1504	9623.51	4.1240	4.1239	0.7457	8.17	2.18	0.750			
0.1526	9768.30	4.1210	4.1210	0.7447	8.17	2.18	0.750			
0.1549	9910.98	4.1180	4.1180	0.7481	8.16	2.17	0.750			
0.1571	10054.29	4.1150	4.1151	0.7498	8.16	2.17	0.750			
0.1594	10199.69	4.1120	4.1119	0.7537	8.15	2.16	0.750			
0.1616	10342.15	4.1090	4.1090	0.7565	8.15	2.16	0.750			
0.1639	10489.14	4.1060	4.1060	0.7635	8.14	2.15	0.750			
0.1662	10636.66	4.1030	4.1030	0.7692	8.13	2.14	0.750			
0.1685	10786.40	4.1000	4.1000	0.7707	8.13	2.14	0.750			
0.1708	10933.09	4.0970	4.0971	0.7710	8.12	2.13	0.750			
0.1732	11082.15	4.0940	4.0940	0.7750	8.12	2.13	0.750			
0.1755	11230.30	4.0910	4.0911	0.7782	8.11	2.12	0.750			
0.1778	11379.25	4.0880	4.0880	0.7796	8.11	2.12	0.750			
0.1802	11532.00	4.0850	4.0850	0.7784	8.10	2.11	0.750			
0.1825	11680.47	4.0820	4.0821	0.7802	8.09	2.10	0.750			
0.1848	11830.05	4.0790	4.0791	0.7855	8.08	2.09	0.750			
0.1872	11978.89	4.0760	4.0760	0.7912	8.08	2.09	0.750			
0.1895	12129.96	4.0730	4.0729	0.7957	8.07	2.08	0.750			
0.1919	12284.24	4.0700	4.0698	0.7990	8.06	2.07	0.750			
0.1944	12440.13	4.0670	4.0671	0.8052	8.06	2.07	0.750			
0.1968	12596.24	4.0640	4.0640	0.8080	8.05	2.06	0.750			
0.1992	12749.38	4.0610	4.0610	0.8084	8.05	2.06	0.750			
0.2016	12905.58	4.0580	4.0579	0.8102	8.04	2.05	0.750			
0.2040	13058.03	4.0550	4.0550	0.8136	8.03	2.04	0.750			
0.2065	13215.49	4.0520	4.0520	0.8184	8.02	2.03	0.750			
0.2090	13374.25	4.0490	4.0489	0.8269	8.02	2.03	0.750			
0.2114	13531.51	4.0460	4.0461	0.8319	8.01	2.02	0.750			
0.2139	13692.29	4.0430	4.0427	0.8446	8.00	2.01	0.750			
0.2165	13856.82	4.0400	4.0401	0.8449	7.99	2.00	0.750			
0.2191	14020.90	4.0370	4.0370	0.8546	7.98	1.99	0.750			
0.2217	14186.15	4.0340	4.0340	0.8548	7.98	1.99	0.750			
0.2242	14350.27	4.0310	4.0310	0.8551	7.97	1.98	0.750			
0.2268	14514.46	4.0280	4.0279	0.8563	7.96	1.97	0.750			
0.2294	14678.95	4.0250	4.0250	0.8500	7.95	1.96	0.750			
0.2319	14841.91	4.0220	4.0221	0.8512	7.95	1.96	0.750			
0.2345	15005.50	4.0190	4.0190	0.8573	7.94	1.95	0.750			
0.2370	15169.10	4.0160	4.0159	0.8526	7.94	1.95	0.750			
0.2395	15331.15	4.0130	4.0132	0.8631	7.93	1.94	0.750			
0.2421	15496.82	4.0100	4.0100	0.8694	7.92	1.93	0.750			
0.2448	15665.48	4.0070	4.0071	0.8836	7.91	1.92	0.750			
0.2475	15837.63	4.0040	4.0039	0.8963	7.90	1.91	0.750			
0.2502	16011.45	4.0010	4.0011	0.8952	7.89	1.90	0.750			
0.2529	16185.42	3.9980	3.9980	0.8956	7.89	1.90	0.750			
0.2556	16359.91	3.9950	3.9951	0.8931	7.88	1.89	0.750			
0.2583	16528.13	3.9920	3.9920	0.8834	7.87	1.88	0.750			
0.2609	16694.42	3.9890	3.9891	0.8887	7.87	1.88	0.750			
0.2635	16862.05	3.9860	3.9859	0.8975	7.86	1.87	0.750			
0.2662	17036.09	3.9830	3.9830	0.9039	7.85	1.86	0.750			
0.2690	17212.87	3.9800	3.9800	0.9175	7.85	1.86	0.750			
0.2718	17393.45	3.9770	3.9770	0.9274	7.84	1.85	0.750			
0.2746	17572.85	3.9740	3.9742	0.9304	7.83	1.84	0.750			
0.2774	17750.77	3.9710	3.9709	0.9240	7.83	1.84	0.750			
0.2801	17926.10	3.9680	3.9680	0.9246	7.82	1.83	0.750			
0.2828	18100.56	3.9650	3.9651	0.9251	7.81	1.82	0.750			
0.2856	18279.03	3.9620	3.9619	0.9354	7.79	1.80	0.750			
0.2884	18459.97	3.9590	3.9590	0.9407	7.78	1.79	0.750			
0.2913	18640.88	3.9560	3.9560	0.9487	7.77	1.78	0.750			
0.2941	18822.36	3.9530	3.9530	0.9494	7.77	1.78	0.750			
0.2969	19004.55	3.9500	3.9501	0.9664	7.76	1.77	0.750			
0.2998	19189.38	3.9470	3.9469	0.9823	7.75	1.76	0.750			
0.3028	19380.20	3.9440	3.9442	0.9902	7.75	1.76	0.750			
0.3058	19572.45	3.9410	3.9411	1.0041	7.73	1.74	0.750			
0.3089	19770.02	3.9380	3.9381	1.0122	7.72	1.73	0.750			
0.3120	19965.15	3.9350	3.9349	1.0210	7.71	1.72	0.750			
0.3150	20159.55	3.9320	3.9321	1.0135	7.70	1.71	0.750			
0.3180	20354.28	3.9290	3.9289	1.0173	7.69	1.70	0.750			
0.3211	20550.30	3.9260	3.9260	1.0225	7.68	1.69	0.750			
0.3242	20747.90	3.9230	3.9231	1.0327	7.67	1.68	0.750			
0.3273	20946.56	3.9200	3.9199	1.0405	7.66	1.67	0.750			
0.3304	21146.36	3.9170	3.9170	1.0559	7.65	1.66	0.750			
0.3335	21346.75	3.9140	3.9140	1.0648	7.64	1.65	0.750			
0.3368	21554.92	3.9110	3.9112	1.0840	7.63	1.64	0.750			
0.3401	21768.09	3.9080	3.9079	1.0845	7.62	1.63	0.750			
0.3434	21975.97	3.9050	3.9051	1.1039	7.61	1.62	0.750			
0.3467	22188.39	3.9020	3.9020	1.1151	7.60	1.61	0.750			
0.3501	22403.61	3.8990	3.8992	1.1276	7.58	1.59	0.750			
0.3535	22622.08	3.8960	3.8962	1.1320	7.57	1.58	0.750			
0.3569	22841.06	3.8930	3.8931	1.1443	7.56	1.57	0.750			
0.3603	23061.33	3.8900	3.8900	1.1590	7.55	1.56	0.750			
0.3638	23285.09	3.8870	3.8869	1.1744	7.54	1.55	0.750			
0.3673	23508.23	3.8840	3.8840	1.1883	7.53	1.54	0.750			
0.3709	23738.78	3.8810	3.8810	1.2075	7.51	1.52	0.750			
0.3746	23976.76	3.8780	3.8780	1.2136	7.50	1.51	0.750			
0.3783	24210.02	3.8750	3.8752	1.2331	7.48	1.49	0.750			
0.3819	24443.12	3.8720	3.8721	1.2564	7.47	1.48	0.750			
0.3857	24683.85	3.8690	3.8690	1.2901	7.45	1.46	0.750	0.371	0.846	
0.3896	24933.52	3.8660	3.8660	1.3001	7.44	1.45	0.750			
0.3936	25187.27	3.8630	3.8630	1.3213	7.42	1.43	0.750			
0.3976	25448.05	3.8600	3.8602	1.3462	7.41	1.42	0.750			
0.4017	25710.38	3.8570	3.8567	1.3655	7.39	1.40	0.750			
0.4057	25967.84	3.8540	3.8542	1.3704	7.37	1.38	0.750			
0.4099	26233.43	3.8510	3.8509	1.3880	7.36	1.37	0.750			
0.4140	26496.18	3.8480	3.8481	1.4221	7.34	1.35	0.750			
0.4183	26774.15	3.8450	3.8450	1.4545	7.32	1.33	0.750			
0.4228	27060.72	3.8420	3.8420	1.4886	7.31	1.32	0.750			
0.4273	27348.87	3.8390	3.8388	1.5181	7.29	1.30	0.750			
0.4319	27643.14	3.8360	3.8362	1.5420	7.27	1.28	0.750			
0.4367	27946.93	3.8330	3.8332	1.5480	7.25	1.26	0.750			
0.4413	28245.69	3.8300	3.8301	1.5585	7.23	1.24	0.750			
0.4460	28543.03	3.8270	3.8269	1.5623	7.21	1.22	0.750			
0.4507	28841.60	3.8240	3.8240	1.5812	7.18	1.19	0.750			
0.4554	29145.06	3.8210	3.8212	1.6244	7.16	1.17	0.750			
0.4603	29456.74	3.8180	3.8180	1.6725	7.15	1.16	0.750			
0.4654	29782.86	3.8150	3.8149	1.7173	7.12	1.13	0.750			
0.4707	30127.53	3.8120	3.8122	1.7483	7.10	1.11	0.750			
0.4760	30465.28	3.8090	3.8091	1.7899	7.07	1.08	0.750			
0.4814	30812.08	3.8060	3.8060	1.7963	7.04	1.05	0.750			
0.4868	31155.47	3.8030	3.8031	1.8160	7.01	1.02	0.750			
0.4923	31507.14	3.8000	3.7999	1.8145	6.99	1.00	0.750			
0.4977	31854.47	3.7970	3.7970	1.8514	6.97	0.98	0.750			
0.5033	32212.45	3.7940	3.7940	1.8678	6.94	0.95	0.750			
0.5090	32575.38	3.7910	3.7907	1.8838	6.91	0.92	0.750			
0.5145	32930.16	3.7880	3.7882	1.9026	6.89	0.90	0.750			
0.5204	33305.00	3.7850	3.7849	1.9333	6.86	0.87	0.750			
0.5262	33677.35	3.7820	3.7820	1.9968	6.83	0.84	0.750			
0.5322	34058.78	3.7790	3.7791	2.0068	6.81	0.82	0.750			
0.5383	34452.40	3.7760	3.7759	2.0634	6.78	0.79	0.750			
0.5446	34855.00	3.7730	3.7733	2.0994	6.75	0.76	0.750			
0.5509	35259.00	3.7700	3.7700	2.1347	6.71	0.72	0.750			
0.5574	35673.71	3.7670	3.7671	2.1773	6.69	0.70	0.750			
0.5638	36084.43	3.7640	3.7639	2.2394	6.66	0.67	0.750			
0.5708	36528.07	3.7610	3.7611	2.3282	6.62	0.63	0.750			
0.5778	36979.48	3.7580	3.7579	2.4201	6.58	0.59	0.750			
0.5852	37455.75	3.7550	3.7551	2.5141	6.55	0.56	0.750			
0.5929	37946.43	3.7520	3.7521	2.6076	6.51	0.52	0.750			
0.6008	38448.49	3.7490	3.7489	2.7818	6.48	0.49	0.750			
0.6095	39006.61	3.7460	3.7459	2.9277	6.45	0.46	0.750			
0.6186	39587.89	3.7430	3.7431	2.9866	6.41	0.42	0.750			
0.6276	40163.97	3.7400	3.7400	3.0510	6.37	0.38	0.750			
0.6367	40749.66	3.7370	3.7369	3.1196	6.33	0.34	0.750			
0.6463	41363.62	3.7340	3.7339	3.1077	6.29	0.30	0.750			
0.6558	41974.11	3.7310	3.7310	2.9448	6.25	0.26	0.750			
0.6643	42512.93	3.7280	3.7282	2.6308	6.22	0.23	0.750			
0.6715	42974.17	3.7250	3.7251	2.2656	6.20	0.21	0.750			
0.6776	43363.77	3.7220	3.7220	1.9669	6.19	0.20	0.750			
0.6831	43720.48	3.7190	3.7187	1.7327	6.17	0.18	0.750			
0.6877	44011.70	3.7160	3.7160	1.5329	6.15	0.16	0.750			
0.6918	44277.87	3.7130	3.7131	1.3932	6.14	0.15	0.750			
0.6956	44517.02	3.7100	3.7100	1.2716	6.13	0.14	0.750			
0.6993	44752.72	3.7070	3.7070	1.2174	6.13	0.14	0.750			
0.7027	44973.42	3.7040	3.7039	1.1574	6.12	0.13	0.750			
0.7061	45188.73	3.7010	3.7011	1.1240	6.11	0.12	0.750			
0.7094	45403.30	3.6980	3.6980	1.0995	6.09	0.10	0.750			
0.7126	45609.49	3.6950	3.6949	1.0774	6.08	0.09	0.750			
0.7159	45815.35	3.6920	3.6920	1.0487	6.08	0.09	0.750			
0.7190	46013.94	3.6890	3.6889	1.0230	6.07	0.08	0.750			
0.7220	46208.82	3.6860	3.6861	0.9964	6.06	0.07	0.750			
0.7249	46396.13	3.6830	3.6831	0.9729	6.05	0.06	0.750			
0.7278	46581.91	3.6800	3.6799	0.9510	6.05	0.06	0.750			
0.7306	46760.26	3.6770	3.6770	0.9271	6.04	0.05	0.750			
0.7334	46934.78	3.6740	3.6741	0.9075	6.04	0.05	0.750			
0.7361	47107.84	3.6710	3.6711	0.9032	6.03	0.04	0.750			
0.7387	47277.62	3.6680	3.6677	0.8943	6.03	0.04	0.750			
0.7414	47449.38	3.6650	3.6650	0.8840	6.02	0.03	0.750			
0.7440	47617.39	3.6620	3.6619	0.8770	6.02	0.03	0.750			
0.7467	47787.28	3.6590	3.6591	0.8809	6.01	0.02	0.750			
0.7493	47955.80	3.6560	3.6561	0.8770	6.01	0.02	0.750			
0.7519	48122.35	3.6530	3.6530	0.8760	6.00	0.01	0.750			
0.7545	48290.18	3.6500	3.6500	0.8705	6.00	0.01	0.750			
0.7572	48457.66	3.6470	3.6469	0.8663	6.00	0.01	0.750			
0.7598	48628.54	3.6440	3.6440	0.8536	5.99	0.00	0.750			
0.7625	48799.20	3.6410	3.6408	0.8127	5.99	0.00	0.750			
0.7649	48954.75	3.6380	3.6380	0.7503	5.99	-0.00	0.750			
0.7672	49099.86	3.6350	3.6352	0.6749	5.99	-0.00	0.750			
0.7691	49220.24	3.6320	3.6320	0.5795	5.99	-0.00	0.750			
0.7707	49322.98	3.6290	3.6290	0.4791	5.98	-0.01	0.750			
0.7717	49391.35	3.6260	3.6263	0.4013	5.98	-0.01	0.750			
0.7728	49457.95	3.6230	3.6233	0.3187	5.98	-0.01	0.750			
0.7736	49510.68	3.6200	3.6197	0.2538	5.98	-0.01	0.750			
0.7742	49546.92	3.6170	3.6162	0.1868	5.98	-0.01	0.750			
0.7746	49575.24	3.6140	3.6017	0.1358	5.98	-0.01	0.750			
0.7747	49578.45	3.5960	3.5786	-0.1079	5.98	-0.01	0.750			
0.7748	49589.30	3.6110	3.4298	0.0853	5.98	-0.01	0.742			
0.7749	49595.46	3.5990	3.3454	-0.0693	5.98	-0.01	0.738			
0.7750	49601.97	3.6080	3.2562	0.0467	5.98	-0.01	0.733			
0.7751	49605.05	3.6020	3.2140	-0.0306	5.98	-0.01	0.731			
0.7751	49607.21	3.6050	3.1842	0.0080	5.98	-0.01	0.730			
