Ah_balance (normalized)	Ah_balance (mAh)	Voltage - fit (V)	Voltage -  interpolate (V)	dQ/dV (1/V)	Temperature (°C)	Temperature - diff (°C)	Current (C)	R_DC 0ms (mOhm)	R_DC 50ms (mOhm)	R_DC 50 ms PEC (mOhm)
0.0981	6281.27	4.1980	4.1995	0.4775	8.60	2.34	0.750			
0.0998	6384.74	4.1950	4.1974	0.6038	8.60	2.34	0.750			
0.1020	6526.36	4.1920	4.1940	0.7141	8.59	2.33	0.750			
0.1043	6675.17	4.1890	4.1906	0.7572	8.59	2.33	0.750			
0.1068	6836.04	4.1860	4.1872	0.8044	8.58	2.32	0.750			
0.1090	6978.88	4.1830	4.1836	0.7656	8.57	2.31	0.750			
0.1119	7160.86	4.1800	4.1798	0.7974	8.57	2.31	0.750			
0.1138	7283.27	4.1770	4.1770	0.7039	8.57	2.31	0.750			
0.1160	7421.72	4.1740	4.1740	0.7130	8.56	2.30	0.750			
0.1181	7557.98	4.1710	4.1711	0.7158	8.56	2.30	0.750			
0.1202	7692.65	4.1680	4.1680	0.7138	8.56	2.30	0.750			
0.1224	7830.72	4.1650	4.1649	0.7168	8.55	2.29	0.750			
0.1245	7968.64	4.1620	4.1619	0.7193	8.55	2.29	0.750			
0.1267	8109.58	4.1590	4.1591	0.7225	8.54	2.28	0.750			
0.1289	8249.57	4.1560	4.1559	0.7138	8.53	2.27	0.750			
0.1310	8384.91	4.1530	4.1531	0.7178	8.53	2.27	0.750			
0.1331	8521.42	4.1500	4.1501	0.7245	8.52	2.26	0.750			
0.1353	8659.92	4.1470	4.1468	0.7265	8.51	2.25	0.750			
0.1375	8800.03	4.1440	4.1441	0.7348	8.51	2.25	0.750			
0.1397	8942.52	4.1410	4.1412	0.7389	8.50	2.24	0.750			
0.1420	9085.37	4.1380	4.1380	0.7410	8.50	2.24	0.750			
0.1442	9228.49	4.1350	4.1350	0.7462	8.49	2.23	0.750			
0.1464	9370.18	4.1320	4.1321	0.7424	8.49	2.23	0.750			
0.1486	9512.48	4.1290	4.1286	0.7454	8.48	2.22	0.750			
0.1509	9657.20	4.1260	4.1261	0.7495	8.48	2.22	0.750			
0.1531	9801.21	4.1230	4.1230	0.7469	8.47	2.21	0.750			
0.1554	9947.44	4.1200	4.1199	0.7465	8.47	2.21	0.750			
0.1576	10087.48	4.1170	4.1170	0.7408	8.47	2.21	0.750			
0.1599	10230.79	4.1140	4.1141	0.7416	8.46	2.20	0.750			
0.1621	10372.31	4.1110	4.1110	0.7530	8.46	2.20	0.750			
0.1643	10515.18	4.1080	4.1081	0.7589	8.45	2.19	0.750			
0.1666	10662.59	4.1050	4.1049	0.7660	8.45	2.19	0.750			
0.1689	10811.81	4.1020	4.1020	0.7773	8.44	2.18	0.750			
0.1713	10961.72	4.0990	4.0991	0.7827	8.44	2.18	0.750			
0.1736	11111.85	4.0960	4.0960	0.7894	8.43	2.17	0.750			
0.1760	11265.20	4.0930	4.0930	0.7939	8.42	2.16	0.750			
0.1784	11417.95	4.0900	4.0899	0.7856	8.41	2.15	0.750			
0.1808	11569.74	4.0870	4.0871	0.7898	8.41	2.15	0.750			
0.1832	11721.99	4.0840	4.0840	0.7873	8.40	2.14	0.750			
0.1855	11871.38	4.0810	4.0809	0.7852	8.39	2.13	0.750			
0.1878	12020.42	4.0780	4.0781	0.7920	8.39	2.13	0.750			
0.1902	12171.85	4.0750	4.0749	0.7889	8.38	2.12	0.750			
0.1926	12324.06	4.0720	4.0720	0.7994	8.37	2.11	0.750			
0.1950	12479.13	4.0690	4.0691	0.8118	8.37	2.11	0.750			
0.1974	12635.64	4.0660	4.0661	0.8141	8.36	2.10	0.750			
0.1999	12793.45	4.0630	4.0630	0.8196	8.36	2.10	0.750			
0.2024	12952.83	4.0600	4.0600	0.8123	8.35	2.09	0.750			
0.2048	13107.56	4.0570	4.0571	0.8129	8.34	2.08	0.750			
0.2073	13264.70	4.0540	4.0540	0.8162	8.33	2.07	0.750			
0.2096	13417.43	4.0510	4.0512	0.8165	8.32	2.06	0.750			
0.2121	13572.97	4.0480	4.0481	0.8197	8.32	2.06	0.750			
0.2146	13731.70	4.0450	4.0449	0.8294	8.31	2.05	0.750			
0.2170	13890.92	4.0420	4.0420	0.8399	8.31	2.05	0.750			
0.2196	14055.16	4.0390	4.0391	0.8483	8.30	2.04	0.750			
0.2222	14220.90	4.0360	4.0359	0.8496	8.29	2.03	0.750			
0.2248	14384.60	4.0330	4.0330	0.8527	8.29	2.03	0.750			
0.2273	14546.30	4.0300	4.0301	0.8505	8.28	2.02	0.750			
0.2299	14710.51	4.0270	4.0270	0.8594	8.27	2.01	0.750			
0.2324	14875.29	4.0240	4.0239	0.8628	8.26	2.00	0.750			
0.2350	15041.30	4.0210	4.0210	0.8640	8.25	1.99	0.750			
0.2376	15208.03	4.0180	4.0181	0.8725	8.25	1.99	0.750			
0.2403	15376.60	4.0150	4.0150	0.8811	8.24	1.98	0.750			
0.2429	15545.87	4.0120	4.0119	0.8829	8.23	1.97	0.750			
0.2455	15714.79	4.0090	4.0090	0.8870	8.22	1.96	0.750			
0.2482	15885.91	4.0060	4.0058	0.8880	8.21	1.95	0.750			
0.2509	16059.28	4.0030	4.0031	0.8929	8.20	1.94	0.750			
0.2536	16231.36	4.0000	4.0000	0.8924	8.20	1.94	0.750			
0.2563	16401.18	3.9970	3.9970	0.8910	8.19	1.93	0.750			
0.2590	16573.02	3.9940	3.9940	0.8897	8.19	1.93	0.750			
0.2616	16741.15	3.9910	3.9911	0.8940	8.18	1.92	0.750			
0.2643	16913.69	3.9880	3.9880	0.8914	8.17	1.91	0.750			
0.2669	17084.10	3.9850	3.9851	0.9104	8.16	1.90	0.750			
0.2697	17258.39	3.9820	3.9820	0.9230	8.15	1.89	0.750			
0.2725	17438.48	3.9790	3.9789	0.9319	8.14	1.88	0.750			
0.2753	17620.06	3.9760	3.9762	0.9376	8.13	1.87	0.750			
0.2781	17801.14	3.9730	3.9730	0.9512	8.12	1.86	0.750			
0.2810	17984.59	3.9700	3.9701	0.9524	8.11	1.85	0.750			
0.2839	18169.94	3.9670	3.9669	0.9526	8.10	1.84	0.750			
0.2867	18348.98	3.9640	3.9640	0.9519	8.09	1.83	0.750			
0.2896	18532.85	3.9610	3.9612	0.9559	8.08	1.82	0.750			
0.2925	18717.28	3.9580	3.9579	0.9659	8.07	1.81	0.750			
0.2953	18901.71	3.9550	3.9550	0.9711	8.06	1.80	0.750			
0.2983	19088.59	3.9520	3.9518	0.9726	8.05	1.79	0.750			
0.3012	19279.30	3.9490	3.9491	0.9787	8.04	1.78	0.750			
0.3042	19466.71	3.9460	3.9460	0.9838	8.03	1.77	0.750			
0.3071	19653.46	3.9430	3.9431	0.9849	8.02	1.76	0.750			
0.3100	19839.58	3.9400	3.9399	0.9943	8.00	1.74	0.750			
0.3130	20031.78	3.9370	3.9370	1.0110	7.99	1.73	0.750			
0.3161	20227.22	3.9340	3.9340	1.0260	7.98	1.72	0.750			
0.3192	20428.91	3.9310	3.9309	1.0343	7.97	1.71	0.750			
0.3224	20632.00	3.9280	3.9281	1.0464	7.96	1.70	0.750			
0.3255	20833.32	3.9250	3.9251	1.0421	7.95	1.69	0.750			
0.3286	21031.99	3.9220	3.9220	1.0597	7.94	1.68	0.750			
0.3318	21234.02	3.9190	3.9190	1.0722	7.93	1.67	0.750			
0.3350	21440.06	3.9160	3.9159	1.0828	7.92	1.66	0.750			
0.3383	21649.77	3.9130	3.9132	1.0922	7.91	1.65	0.750			
0.3416	21863.56	3.9100	3.9100	1.1127	7.90	1.64	0.750			
0.3449	22076.39	3.9070	3.9071	1.1221	7.88	1.62	0.750			
0.3483	22294.31	3.9040	3.9038	1.1295	7.87	1.61	0.750			
0.3517	22510.35	3.9010	3.9010	1.1347	7.86	1.60	0.750			
0.3551	22727.51	3.8980	3.8981	1.1522	7.85	1.59	0.750			
0.3586	22950.86	3.8950	3.8951	1.1666	7.84	1.58	0.750			
0.3621	23174.56	3.8920	3.8919	1.1701	7.83	1.57	0.750			
0.3657	23402.37	3.8890	3.8890	1.1701	7.81	1.55	0.750			
0.3691	23625.55	3.8860	3.8863	1.1990	7.80	1.54	0.750			
0.3728	23859.97	3.8830	3.8829	1.2131	7.78	1.52	0.750			
0.3765	24092.82	3.8800	3.8798	1.2294	7.77	1.51	0.750	0.366	0.788	
0.3801	24329.24	3.8770	3.8772	1.2535	7.75	1.49	0.750			
0.3840	24576.19	3.8740	3.8740	1.2704	7.73	1.47	0.750			
0.3879	24822.63	3.8710	3.8710	1.2866	7.71	1.45	0.750			
0.3917	25068.48	3.8680	3.8681	1.2855	7.70	1.44	0.750			
0.3956	25319.84	3.8650	3.8650	1.3008	7.68	1.42	0.750			
0.3996	25573.02	3.8620	3.8619	1.3274	7.67	1.41	0.750			
0.4035	25824.16	3.8590	3.8590	1.3465	7.65	1.39	0.750			
0.4076	26083.28	3.8560	3.8561	1.3713	7.63	1.37	0.750			
0.4118	26353.58	3.8530	3.8529	1.3993	7.62	1.36	0.750			
0.4160	26624.00	3.8500	3.8499	1.4222	7.60	1.34	0.750			
0.4204	26904.82	3.8470	3.8471	1.4352	7.58	1.32	0.750			
0.4247	27180.00	3.8440	3.8441	1.4381	7.55	1.29	0.750			
0.4290	27454.94	3.8410	3.8410	1.4410	7.53	1.27	0.750			
0.4333	27732.95	3.8380	3.8381	1.4406	7.51	1.25	0.750			
0.4376	28007.76	3.8350	3.8348	1.4684	7.49	1.23	0.750			
0.4420	28288.68	3.8320	3.8321	1.4947	7.48	1.22	0.750			
0.4465	28576.89	3.8290	3.8290	1.5208	7.46	1.20	0.750			
0.4512	28874.57	3.8260	3.8261	1.5421	7.44	1.18	0.750			
0.4558	29172.42	3.8230	3.8230	1.5569	7.41	1.15	0.750			
0.4606	29477.04	3.8200	3.8199	1.5883	7.38	1.12	0.750			
0.4655	29789.94	3.8170	3.8166	1.5831	7.36	1.10	0.750			
0.4702	30091.05	3.8140	3.8139	1.5832	7.34	1.08	0.750			
0.4749	30396.57	3.8110	3.8112	1.6153	7.32	1.06	0.750			
0.4798	30707.85	3.8080	3.8080	1.6399	7.30	1.04	0.750			
0.4848	31026.14	3.8050	3.8048	1.6436	7.28	1.02	0.750			
0.4898	31345.66	3.8020	3.8022	1.6684	7.25	0.99	0.750			
0.4948	31668.55	3.7990	3.7993	1.6964	7.23	0.97	0.750			
0.5000	31997.45	3.7960	3.7960	1.7191	7.20	0.94	0.750			
0.5050	32322.91	3.7930	3.7928	1.7580	7.17	0.91	0.750			
0.5103	32661.25	3.7900	3.7899	1.7841	7.14	0.88	0.750			
0.5157	33005.25	3.7870	3.7870	1.8470	7.12	0.86	0.750			
0.5215	33377.25	3.7840	3.7841	1.8773	7.09	0.83	0.750			
0.5271	33735.27	3.7810	3.7808	1.9017	7.06	0.80	0.750			
0.5328	34099.79	3.7780	3.7783	1.9586	7.03	0.77	0.750			
0.5387	34477.23	3.7750	3.7749	1.9961	7.00	0.74	0.750			
0.5449	34870.66	3.7720	3.7719	2.0759	6.97	0.71	0.750			
0.5510	35264.74	3.7690	3.7692	2.1787	6.95	0.69	0.750			
0.5578	35696.66	3.7660	3.7659	2.2863	6.92	0.66	0.750			
0.5647	36139.51	3.7630	3.7630	2.4455	6.89	0.63	0.750			
0.5724	36635.04	3.7600	3.7600	2.5549	6.85	0.59	0.750			
0.5802	37133.50	3.7570	3.7570	2.6586	6.82	0.56	0.750			
0.5882	37644.29	3.7540	3.7539	2.7504	6.78	0.52	0.750			
0.5967	38186.41	3.7510	3.7510	2.8560	6.74	0.48	0.750			
0.6054	38746.28	3.7480	3.7478	2.9539	6.70	0.44	0.750			
0.6143	39318.06	3.7450	3.7450	2.9749	6.67	0.41	0.750			
0.6233	39890.61	3.7420	3.7421	3.0089	6.63	0.37	0.750			
0.6325	40482.96	3.7390	3.7390	2.8762	6.59	0.33	0.750			
0.6410	41025.64	3.7360	3.7362	2.6153	6.56	0.30	0.750			
0.6482	41486.67	3.7330	3.7329	2.2655	6.54	0.28	0.750			
0.6543	41872.18	3.7300	3.7299	1.9460	6.52	0.26	0.750			
0.6597	42220.85	3.7270	3.7269	1.7073	6.50	0.24	0.750			
0.6641	42504.70	3.7240	3.7239	1.5175	6.49	0.23	0.750			
0.6682	42763.59	3.7210	3.7211	1.3767	6.48	0.22	0.750			
0.6721	43011.31	3.7180	3.7180	1.2832	6.46	0.20	0.750			
0.6758	43249.25	3.7150	3.7151	1.2181	6.45	0.19	0.750			
0.6792	43468.96	3.7120	3.7121	1.1711	6.44	0.18	0.750			
0.6826	43689.41	3.7090	3.7091	1.1461	6.43	0.17	0.750			
0.6861	43911.34	3.7060	3.7054	1.1237	6.42	0.16	0.750			
0.6894	44121.20	3.7030	3.7031	1.0949	6.41	0.15	0.750			
0.6926	44329.29	3.7000	3.7001	1.0777	6.40	0.14	0.750			
0.6959	44536.05	3.6970	3.6971	1.0617	6.39	0.13	0.750			
0.6990	44737.10	3.6940	3.6939	1.0284	6.38	0.12	0.750			
0.7021	44932.44	3.6910	3.6910	1.0123	6.37	0.11	0.750			
0.7051	45126.40	3.6880	3.6881	0.9964	6.35	0.09	0.750			
0.7081	45316.73	3.6850	3.6849	0.9794	6.34	0.08	0.750			
0.7110	45504.45	3.6820	3.6819	0.9565	6.33	0.07	0.750			
0.7138	45683.06	3.6790	3.6790	0.9286	6.32	0.06	0.750			
0.7165	45857.85	3.6760	3.6761	0.9196	6.31	0.05	0.750			
0.7192	46031.10	3.6730	3.6730	0.9144	6.30	0.04	0.750			
0.7219	46202.39	3.6700	3.6700	0.9143	6.30	0.04	0.750			
0.7247	46377.61	3.6670	3.6671	0.9217	6.29	0.03	0.750			
0.7274	46555.31	3.6640	3.6640	0.9324	6.28	0.02	0.750			
0.7303	46739.03	3.6610	3.6609	0.9367	6.28	0.02	0.750			
0.7331	46921.49	3.6580	3.6580	0.9330	6.27	0.01	0.750			
0.7360	47101.45	3.6550	3.6551	0.9252	6.27	0.01	0.750			
0.7388	47280.30	3.6520	3.6518	0.9000	6.27	0.01	0.750			
0.7415	47456.30	3.6490	3.6489	0.8491	6.27	0.01	0.750			
0.7441	47621.40	3.6460	3.6461	0.7782	6.26	0.00	0.750			
0.7464	47769.12	3.6430	3.6431	0.6954	6.26	0.00	0.750			
0.7484	47895.41	3.6400	3.6399	0.5943	6.26	0.00	0.750			
0.7500	47997.51	3.6370	3.6370	0.4906	6.26	-0.00	0.750			
0.7510	48064.30	3.6340	3.6345	0.4146	6.26	-0.00	0.750			
0.7521	48133.42	3.6310	3.6313	0.3313	6.26	-0.00	0.750			
0.7529	48186.63	3.6280	3.6281	0.2597	6.26	-0.00	0.750			
0.7536	48227.43	3.6250	3.6243	0.2045	6.26	-0.00	0.750			
0.7540	48254.54	3.6220	3.6189	0.1493	6.26	-0.00	0.750			
0.7542	48268.91	3.5980	3.5651	-0.1101	6.26	-0.00	0.750			
0.7543	48272.48	3.6190	3.5118	0.1048	6.26	-0.00	0.749			
0.7545	48287.11	3.6010	3.2932	-0.0794	6.26	-0.00	0.748			
0.7545	48289.66	3.6160	3.2551	0.0741	6.26	-0.00	0.747			
0.7547	48299.41	3.6040	3.1093	-0.0487	6.26	-0.00	0.746			
0.7547	48300.94	3.6130	3.0865	0.0434	6.26	-0.00	0.746			
0.7548	48305.82	3.6070	3.0136	-0.0180	6.26	-0.00	0.746			
0.7548	48306.33	3.6100	3.0060	0.0127	6.26	-0.00	0.746			
