Ah_balance (normalized)	Ah_balance (mAh)	Voltage - fit (V)	Voltage -  interpolate (V)	dQ/dV (1/V)	Temperature (°C)	Temperature - diff (°C)	Current (C)	R_DC 0ms (mOhm)	R_DC 50ms (mOhm)	R_DC 50 ms PEC (mOhm)
0.0002	9.74	4.1090	4.1074	-0.0208	5.99	0.00	-0.750			
0.0003	18.87	4.1060	4.1052	-0.0642	5.99	0.00	-0.750			
0.0005	34.20	4.1030	4.1026	-0.0955	5.99	0.00	-0.750			
0.0009	57.05	4.1000	4.0997	-0.1236	5.99	0.00	-0.750			
0.0013	83.66	4.0970	4.0971	-0.1493	5.99	0.00	-0.750			
0.0018	114.72	4.0940	4.0942	-0.1758	5.99	0.00	-0.750			
0.0024	151.17	4.0910	4.0910	-0.1995	5.99	0.00	-0.750			
0.0030	193.72	4.0880	4.0879	-0.2214	5.99	0.00	-0.750			
0.0037	237.75	4.0850	4.0850	-0.2423	5.99	0.00	-0.750			
0.0045	286.78	4.0820	4.0822	-0.2625	5.99	0.00	-0.750			
0.0053	338.72	4.0790	4.0790	-0.2859	5.99	-0.00	-0.750			
0.0062	396.01	4.0760	4.0759	-0.3064	5.99	-0.00	-0.750			
0.0071	456.71	4.0730	4.0730	-0.3258	5.99	-0.00	-0.750			
0.0081	520.65	4.0700	4.0702	-0.3488	5.99	-0.00	-0.750			
0.0092	590.48	4.0670	4.0670	-0.3712	5.99	-0.00	-0.750			
0.0104	663.15	4.0640	4.0639	-0.3946	5.99	-0.00	-0.750			
0.0116	740.72	4.0610	4.0610	-0.4205	5.98	-0.01	-0.750			
0.0129	823.72	4.0580	4.0579	-0.4428	5.98	-0.01	-0.750			
0.0143	912.90	4.0550	4.0549	-0.4668	5.98	-0.01	-0.750			
0.0157	1005.09	4.0520	4.0522	-0.4862	5.98	-0.01	-0.750			
0.0172	1099.14	4.0490	4.0491	-0.5108	5.98	-0.01	-0.750			
0.0188	1200.08	4.0460	4.0460	-0.5330	5.98	-0.01	-0.750			
0.0204	1304.51	4.0430	4.0429	-0.5483	5.99	-0.00	-0.750			
0.0221	1411.61	4.0400	4.0401	-0.5680	5.99	-0.00	-0.750			
0.0238	1526.07	4.0370	4.0371	-0.5871	5.99	0.00	-0.750			
0.0256	1641.14	4.0340	4.0340	-0.5946	5.99	0.00	-0.750			
0.0274	1755.35	4.0310	4.0309	-0.6090	6.00	0.01	-0.750			
0.0292	1871.49	4.0280	4.0283	-0.6204	6.00	0.01	-0.750			
0.0311	1993.03	4.0250	4.0248	-0.6331	6.00	0.01	-0.750			
0.0331	2116.18	4.0220	4.0220	-0.6429	6.01	0.02	-0.750			
0.0350	2238.69	4.0190	4.0191	-0.6588	6.01	0.02	-0.750			
0.0370	2367.69	4.0160	4.0161	-0.6698	6.01	0.02	-0.750			
0.0391	2501.75	4.0130	4.0128	-0.6729	6.02	0.03	-0.750			
0.0411	2629.82	4.0100	4.0099	-0.6735	6.02	0.03	-0.750			
0.0431	2759.27	4.0070	4.0069	-0.6792	6.02	0.03	-0.750			
0.0451	2888.98	4.0040	4.0040	-0.6927	6.03	0.04	-0.750			
0.0472	3021.18	4.0010	4.0010	-0.7009	6.04	0.05	-0.750			
0.0493	3154.27	3.9980	3.9980	-0.7072	6.04	0.05	-0.750			
0.0515	3294.67	3.9950	3.9950	-0.7238	6.05	0.06	-0.750			
0.0537	3438.66	3.9920	3.9920	-0.7282	6.06	0.07	-0.750			
0.0559	3577.62	3.9890	3.9888	-0.7258	6.06	0.07	-0.750			
0.0581	3716.85	3.9860	3.9862	-0.7261	6.07	0.08	-0.750			
0.0602	3855.83	3.9830	3.9830	-0.7258	6.07	0.08	-0.750			
0.0624	3994.66	3.9800	3.9799	-0.7284	6.08	0.09	-0.750			
0.0646	4133.74	3.9770	3.9770	-0.7347	6.08	0.09	-0.750			
0.0668	4273.89	3.9740	3.9741	-0.7409	6.09	0.10	-0.750			
0.0690	4418.44	3.9710	3.9709	-0.7450	6.10	0.11	-0.750			
0.0713	4562.09	3.9680	3.9680	-0.7460	6.10	0.11	-0.750			
0.0736	4707.62	3.9650	3.9651	-0.7493	6.11	0.12	-0.750			
0.0758	4852.74	3.9620	3.9620	-0.7475	6.12	0.13	-0.750			
0.0781	4996.21	3.9590	3.9589	-0.7461	6.13	0.14	-0.750			
0.0803	5138.68	3.9560	3.9561	-0.7420	6.13	0.14	-0.750			
0.0825	5278.33	3.9530	3.9529	-0.7479	6.14	0.15	-0.750			
0.0847	5421.77	3.9500	3.9500	-0.7584	6.15	0.16	-0.750			
0.0870	5567.71	3.9470	3.9470	-0.7582	6.16	0.17	-0.750			
0.0893	5717.88	3.9440	3.9440	-0.7642	6.17	0.18	-0.750			
0.0917	5866.27	3.9410	3.9411	-0.7674	6.18	0.19	-0.750			
0.0940	6013.22	3.9380	3.9380	-0.7672	6.19	0.20	-0.750			
0.0962	6159.51	3.9350	3.9348	-0.7654	6.19	0.20	-0.750			
0.0985	6303.76	3.9320	3.9320	-0.7645	6.20	0.21	-0.750			
0.1008	6450.03	3.9290	3.9291	-0.7701	6.21	0.22	-0.750			
0.1032	6602.97	3.9260	3.9259	-0.7777	6.22	0.23	-0.750			
0.1055	6751.47	3.9230	3.9230	-0.7778	6.22	0.23	-0.750			
0.1078	6899.65	3.9200	3.9201	-0.7786	6.23	0.24	-0.750			
0.1101	7049.58	3.9170	3.9171	-0.7805	6.24	0.25	-0.750			
0.1125	7200.58	3.9140	3.9138	-0.7816	6.25	0.26	-0.750			
0.1149	7351.19	3.9110	3.9110	-0.7794	6.25	0.26	-0.750			
0.1172	7498.94	3.9080	3.9081	-0.7849	6.26	0.27	-0.750			
0.1195	7650.06	3.9050	3.9051	-0.7918	6.27	0.28	-0.750			
0.1219	7803.76	3.9020	3.9018	-0.7952	6.28	0.29	-0.750			
0.1243	7957.43	3.8990	3.8990	-0.8006	6.29	0.30	-0.750			
0.1268	8112.93	3.8960	3.8960	-0.8019	6.30	0.31	-0.750			
0.1292	8267.99	3.8930	3.8933	-0.7970	6.31	0.32	-0.750			
0.1316	8419.64	3.8900	3.8899	-0.8043	6.32	0.33	-0.750			
0.1339	8571.88	3.8870	3.8870	-0.8054	6.33	0.34	-0.750			
0.1364	8726.65	3.8840	3.8839	-0.8080	6.34	0.35	-0.750			
0.1388	8884.50	3.8810	3.8810	-0.8068	6.35	0.36	-0.750			
0.1413	9043.11	3.8780	3.8782	-0.8075	6.36	0.37	-0.750			
0.1437	9197.85	3.8750	3.8750	-0.8052	6.37	0.38	-0.750			
0.1461	9350.80	3.8720	3.8720	-0.8077	6.37	0.38	-0.750			
0.1485	9502.52	3.8690	3.8689	-0.8053	6.38	0.39	-0.750			
0.1509	9655.42	3.8660	3.8658	-0.8094	6.39	0.40	-0.750			
0.1534	9814.85	3.8630	3.8631	-0.8139	6.40	0.41	-0.750			
0.1558	9971.91	3.8600	3.8600	-0.8184	6.40	0.41	-0.750			
0.1583	10130.07	3.8570	3.8570	-0.8252	6.41	0.42	-0.750			
0.1608	10289.01	3.8540	3.8540	-0.8248	6.42	0.43	-0.750			
0.1632	10444.37	3.8510	3.8509	-0.8214	6.43	0.44	-0.750			
0.1657	10604.43	3.8480	3.8479	-0.8280	6.44	0.45	-0.750			
0.1682	10764.84	3.8450	3.8451	-0.8260	6.45	0.46	-0.750			
0.1707	10923.75	3.8420	3.8419	-0.8251	6.46	0.47	-0.750			
0.1732	11081.66	3.8390	3.8390	-0.8198	6.47	0.48	-0.750			
0.1756	11236.71	3.8360	3.8360	-0.8148	6.48	0.49	-0.750			
0.1780	11394.62	3.8330	3.8330	-0.8186	6.49	0.50	-0.750			
0.1805	11549.98	3.8300	3.8301	-0.8238	6.49	0.50	-0.750			
0.1829	11707.20	3.8270	3.8269	-0.8370	6.51	0.52	-0.750			
0.1855	11871.24	3.8240	3.8240	-0.8419	6.52	0.53	-0.750			
0.1880	12034.03	3.8210	3.8208	-0.8450	6.53	0.54	-0.750			
0.1906	12198.06	3.8180	3.8182	-0.8466	6.54	0.55	-0.750			
0.1931	12361.04	3.8150	3.8151	-0.8488	6.55	0.56	-0.750			
0.1957	12524.10	3.8120	3.8119	-0.8459	6.56	0.57	-0.750			
0.1982	12683.73	3.8090	3.8090	-0.8388	6.57	0.58	-0.750			
0.2007	12844.84	3.8060	3.8060	-0.8430	6.58	0.59	-0.750			
0.2033	13009.30	3.8030	3.8030	-0.8468	6.59	0.60	-0.750			
0.2058	13173.06	3.8000	3.8000	-0.8456	6.59	0.60	-0.750			
0.2084	13334.76	3.7970	3.7970	-0.8495	6.60	0.61	-0.750			
0.2109	13496.51	3.7940	3.7940	-0.8515	6.61	0.62	-0.750			
0.2135	13661.62	3.7910	3.7909	-0.8527	6.62	0.63	-0.750			
0.2160	13826.08	3.7880	3.7879	-0.8502	6.63	0.64	-0.750			
0.2186	13991.09	3.7850	3.7849	-0.8446	6.64	0.65	-0.750			
0.2211	14150.87	3.7820	3.7821	-0.8469	6.65	0.66	-0.750			
0.2236	14311.77	3.7790	3.7791	-0.8455	6.66	0.67	-0.750			
0.2261	14471.42	3.7760	3.7759	-0.8441	6.67	0.68	-0.750			
0.2287	14635.01	3.7730	3.7729	-0.8499	6.68	0.69	-0.750			
0.2312	14799.28	3.7700	3.7702	-0.8652	6.69	0.70	-0.750			
0.2339	14969.26	3.7670	3.7670	-0.8742	6.70	0.71	-0.750			
0.2366	15139.69	3.7640	3.7639	-0.8745	6.71	0.72	-0.750			
0.2392	15305.75	3.7610	3.7610	-0.8690	6.73	0.74	-0.750			
0.2418	15472.96	3.7580	3.7580	-0.8651	6.74	0.75	-0.750			
0.2444	15640.32	3.7550	3.7550	-0.8674	6.75	0.76	-0.750			
0.2470	15806.38	3.7520	3.7518	-0.8682	6.75	0.76	-0.750			
0.2496	15971.23	3.7490	3.7490	-0.8637	6.76	0.77	-0.750			
0.2522	16138.46	3.7460	3.7460	-0.8694	6.76	0.77	-0.750			
0.2548	16304.31	3.7430	3.7433	-0.8740	6.77	0.78	-0.750			
0.2574	16473.01	3.7400	3.7399	-0.8838	6.78	0.79	-0.750			
0.2600	16643.13	3.7370	3.7369	-0.8829	6.79	0.80	-0.750			
0.2627	16812.00	3.7340	3.7339	-0.8838	6.80	0.81	-0.750			
0.2654	16985.59	3.7310	3.7311	-0.8907	6.80	0.81	-0.750			
0.2680	17154.89	3.7280	3.7280	-0.8899	6.81	0.82	-0.750			
0.2707	17324.43	3.7250	3.7250	-0.8938	6.82	0.83	-0.750			
0.2734	17495.25	3.7220	3.7220	-0.8990	6.84	0.85	-0.750			
0.2760	17666.71	3.7190	3.7189	-0.9056	6.85	0.86	-0.750			
0.2788	17843.96	3.7160	3.7161	-0.9161	6.86	0.87	-0.750			
0.2816	18020.32	3.7130	3.7129	-0.9252	6.86	0.87	-0.750			
0.2844	18199.89	3.7100	3.7100	-0.9282	6.87	0.88	-0.750			
0.2872	18378.24	3.7070	3.7070	-0.9267	6.88	0.89	-0.750			
0.2899	18555.51	3.7040	3.7040	-0.9336	6.88	0.89	-0.750			
0.2927	18735.79	3.7010	3.7011	-0.9384	6.89	0.90	-0.750			
0.2956	18916.93	3.6980	3.6979	-0.9469	6.90	0.91	-0.750			
0.2985	19101.41	3.6950	3.6949	-0.9503	6.91	0.92	-0.750			
0.3013	19283.47	3.6920	3.6920	-0.9458	6.92	0.93	-0.750			
0.3042	19466.84	3.6890	3.6892	-0.9486	6.93	0.94	-0.750			
0.3070	19646.67	3.6860	3.6859	-0.9575	6.94	0.95	-0.750			
0.3098	19826.13	3.6830	3.6828	-0.9656	6.94	0.95	-0.750			
0.3127	20013.00	3.6800	3.6800	-0.9804	6.95	0.96	-0.750			
0.3157	20204.24	3.6770	3.6770	-0.9782	6.96	0.97	-0.750			
0.3187	20398.83	3.6740	3.6741	-0.9907	6.97	0.98	-0.750			
0.3217	20589.27	3.6710	3.6711	-1.0020	6.97	0.98	-0.750			
0.3247	20781.29	3.6680	3.6679	-0.9989	6.98	0.99	-0.750			
0.3277	20970.25	3.6650	3.6648	-1.0011	6.99	1.00	-0.750			
0.3307	21162.85	3.6620	3.6621	-1.0112	7.00	1.01	-0.750			
0.3338	21361.11	3.6590	3.6590	-1.0173	7.01	1.02	-0.750			
0.3368	21558.35	3.6560	3.6560	-1.0206	7.02	1.03	-0.750			
0.3398	21749.97	3.6530	3.6530	-1.0221	7.02	1.03	-0.750			
0.3429	21946.89	3.6500	3.6501	-1.0444	7.03	1.04	-0.750			
0.3460	22146.58	3.6470	3.6468	-1.0682	7.04	1.05	-0.750			
0.3493	22353.45	3.6440	3.6440	-1.0840	7.04	1.05	-0.750			
0.3526	22568.57	3.6410	3.6409	-1.0973	7.05	1.06	-0.750			
0.3560	22781.97	3.6380	3.6381	-1.1179	7.05	1.06	-0.750			
0.3594	22998.74	3.6350	3.6351	-1.1310	7.06	1.07	-0.750			
0.3627	23215.31	3.6320	3.6319	-1.1326	7.07	1.08	-0.750			
0.3661	23432.61	3.6290	3.6289	-1.1346	7.08	1.09	-0.750			
0.3696	23651.98	3.6260	3.6260	-1.1414	7.08	1.09	-0.750			
0.3731	23876.51	3.6230	3.6230	-1.1498	7.09	1.10	-0.750			
0.3765	24096.67	3.6200	3.6200	-1.1483	7.10	1.11	-0.750			
0.3799	24312.40	3.6170	3.6172	-1.1584	7.10	1.11	-0.750			
0.3833	24534.07	3.6140	3.6139	-1.1726	7.11	1.12	-0.750			
0.3869	24761.62	3.6110	3.6109	-1.1945	7.11	1.12	-0.750			
0.3905	24994.56	3.6080	3.6079	-1.2059	7.12	1.13	-0.750			
0.3942	25231.49	3.6050	3.6049	-1.2248	7.13	1.14	-0.750			
0.3979	25468.41	3.6020	3.6020	-1.2236	7.13	1.14	-0.750			
0.4016	25702.28	3.5990	3.5993	-1.2260	7.14	1.15	-0.750	0.395	0.947	
0.4052	25933.16	3.5960	3.5961	-1.2360	7.15	1.16	-0.750			
0.4090	26173.28	3.5930	3.5929	-1.2478	7.16	1.17	-0.750			
0.4127	26413.57	3.5900	3.5899	-1.2691	7.16	1.17	-0.750			
0.4166	26662.06	3.5870	3.5872	-1.2914	7.17	1.18	-0.750			
0.4205	26913.93	3.5840	3.5839	-1.3043	7.17	1.18	-0.750			
0.4245	27166.03	3.5810	3.5810	-1.3196	7.18	1.19	-0.750			
0.4284	27418.84	3.5780	3.5781	-1.3313	7.18	1.19	-0.750			
0.4324	27676.74	3.5750	3.5749	-1.3378	7.19	1.20	-0.750			
0.4365	27937.92	3.5720	3.5719	-1.3497	7.20	1.21	-0.750			
0.4405	28194.67	3.5690	3.5691	-1.3553	7.21	1.22	-0.750			
0.4446	28452.64	3.5660	3.5660	-1.3734	7.21	1.22	-0.750			
0.4487	28718.58	3.5630	3.5629	-1.3901	7.22	1.23	-0.750			
0.4529	28984.86	3.5600	3.5600	-1.4086	7.22	1.23	-0.750			
0.4571	29256.12	3.5570	3.5568	-1.4291	7.22	1.23	-0.750			
0.4616	29543.67	3.5540	3.5540	-1.4455	7.23	1.24	-0.750			
0.4660	29822.16	3.5510	3.5510	-1.4457	7.23	1.24	-0.750			
0.4703	30100.01	3.5480	3.5480	-1.4399	7.24	1.25	-0.750			
0.4745	30369.41	3.5450	3.5450	-1.4368	7.25	1.26	-0.750			
0.4789	30647.83	3.5420	3.5420	-1.4572	7.26	1.27	-0.750			
0.4832	30926.70	3.5390	3.5389	-1.4596	7.27	1.28	-0.750			
0.4876	31206.60	3.5360	3.5358	-1.4864	7.27	1.28	-0.750			
0.4921	31494.48	3.5330	3.5332	-1.5176	7.28	1.29	-0.750			
0.4967	31788.99	3.5300	3.5299	-1.5311	7.28	1.29	-0.750			
0.5014	32089.35	3.5270	3.5269	-1.5425	7.29	1.30	-0.750			
0.5061	32388.74	3.5240	3.5239	-1.5337	7.29	1.30	-0.750			
0.5107	32685.44	3.5210	3.5213	-1.5471	7.30	1.31	-0.750			
0.5153	32981.95	3.5180	3.5177	-1.5413	7.31	1.32	-0.750			
0.5199	33274.37	3.5150	3.5150	-1.5249	7.31	1.32	-0.750			
0.5245	33565.93	3.5120	3.5121	-1.5214	7.32	1.33	-0.750			
0.5290	33857.79	3.5090	3.5091	-1.5254	7.33	1.34	-0.750			
0.5336	34147.29	3.5060	3.5059	-1.5147	7.34	1.35	-0.750			
0.5381	34440.61	3.5030	3.5028	-1.5336	7.34	1.35	-0.750			
0.5427	34730.99	3.5000	3.5001	-1.5310	7.35	1.36	-0.750			
0.5474	35030.42	3.4970	3.4970	-1.5272	7.36	1.37	-0.750			
0.5520	35329.80	3.4940	3.4939	-1.5333	7.37	1.38	-0.750			
0.5566	35622.95	3.4910	3.4909	-1.5140	7.38	1.39	-0.750			
0.5612	35915.30	3.4880	3.4881	-1.4992	7.39	1.40	-0.750			
0.5656	36199.48	3.4850	3.4852	-1.4833	7.40	1.41	-0.750			
0.5700	36481.87	3.4820	3.4819	-1.4661	7.41	1.42	-0.750			
0.5744	36759.12	3.4790	3.4789	-1.4674	7.42	1.43	-0.750			
0.5787	37039.35	3.4760	3.4760	-1.4695	7.43	1.44	-0.750			
0.5831	37320.13	3.4730	3.4729	-1.4640	7.44	1.45	-0.750			
0.5876	37604.60	3.4700	3.4702	-1.4731	7.45	1.46	-0.750			
0.5920	37889.52	3.4670	3.4670	-1.4790	7.46	1.47	-0.750			
0.5965	38175.37	3.4640	3.4639	-1.4545	7.47	1.48	-0.750			
0.6009	38457.71	3.4610	3.4611	-1.4389	7.48	1.49	-0.750			
0.6052	38730.70	3.4580	3.4583	-1.4122	7.49	1.50	-0.750			
0.6094	39002.15	3.4550	3.4548	-1.3868	7.50	1.51	-0.750			
0.6135	39264.58	3.4520	3.4519	-1.3618	7.50	1.51	-0.750			
0.6174	39516.29	3.4490	3.4492	-1.3510	7.51	1.52	-0.750			
0.6216	39782.44	3.4460	3.4458	-1.3314	7.52	1.53	-0.750			
0.6256	40036.90	3.4430	3.4429	-1.3045	7.54	1.55	-0.750			
0.6294	40281.10	3.4400	3.4404	-1.2887	7.55	1.56	-0.750			
0.6333	40529.03	3.4370	3.4369	-1.2789	7.56	1.57	-0.750			
0.6370	40770.74	3.4340	3.4338	-1.2581	7.57	1.58	-0.750			
0.6407	41006.35	3.4310	3.4309	-1.2351	7.59	1.60	-0.750			
0.6445	41245.07	3.4280	3.4282	-1.2337	7.60	1.61	-0.750			
0.6482	41486.05	3.4250	3.4250	-1.2189	7.61	1.62	-0.750			
0.6519	41718.90	3.4220	3.4219	-1.1870	7.63	1.64	-0.750			
0.6553	41941.14	3.4190	3.4191	-1.1482	7.64	1.65	-0.750			
0.6588	42161.01	3.4160	3.4159	-1.1226	7.65	1.66	-0.750			
0.6621	42372.79	3.4130	3.4130	-1.0899	7.66	1.67	-0.750			
0.6653	42577.45	3.4100	3.4099	-1.0554	7.67	1.68	-0.750			
0.6684	42779.04	3.4070	3.4070	-1.0278	7.68	1.69	-0.750			
0.6714	42972.24	3.4040	3.4040	-1.0066	7.69	1.70	-0.750			
0.6744	43161.94	3.4010	3.4010	-0.9848	7.70	1.71	-0.750			
0.6773	43348.24	3.3980	3.3979	-0.9559	7.71	1.72	-0.750			
0.6802	43530.09	3.3950	3.3951	-0.9375	7.72	1.73	-0.750			
0.6829	43708.79	3.3920	3.3919	-0.9152	7.74	1.75	-0.750			
0.6857	43883.72	3.3890	3.3890	-0.8859	7.75	1.76	-0.750			
0.6883	44051.01	3.3860	3.3860	-0.8584	7.77	1.78	-0.750			
0.6908	44211.81	3.3830	3.3831	-0.8318	7.78	1.79	-0.750			
0.6933	44368.72	3.3800	3.3799	-0.8098	7.80	1.81	-0.750			
0.6956	44520.25	3.3770	3.3770	-0.7915	7.81	1.82	-0.750			
0.6980	44668.85	3.3740	3.3740	-0.7717	7.82	1.83	-0.750			
0.7003	44817.43	3.3710	3.3710	-0.7518	7.83	1.84	-0.750			
0.7025	44961.17	3.3680	3.3679	-0.7324	7.84	1.85	-0.750			
0.7047	45099.17	3.3650	3.3651	-0.7093	7.85	1.86	-0.750			
0.7068	45233.63	3.3620	3.3620	-0.6860	7.86	1.87	-0.750			
0.7088	45361.07	3.3590	3.3589	-0.6642	7.87	1.88	-0.750			
0.7107	45485.60	3.3560	3.3560	-0.6481	7.88	1.89	-0.750			
0.7126	45608.46	3.3530	3.3531	-0.6271	7.89	1.90	-0.750			
0.7145	45727.66	3.3500	3.3500	-0.6121	7.90	1.91	-0.750			
0.7163	45843.50	3.3470	3.3471	-0.5962	7.91	1.92	-0.750			
0.7181	45956.16	3.3440	3.3439	-0.5840	7.92	1.93	-0.750			
0.7198	46066.94	3.3410	3.3409	-0.5665	7.93	1.94	-0.750			
0.7215	46173.64	3.3380	3.3380	-0.5496	7.93	1.94	-0.750			
0.7231	46277.13	3.3350	3.3351	-0.5359	7.94	1.95	-0.750			
0.7247	46380.12	3.3320	3.3319	-0.5267	7.95	1.96	-0.750			
0.7262	46478.86	3.3290	3.3289	-0.5113	7.96	1.97	-0.750			
0.7277	46575.99	3.3260	3.3259	-0.4970	7.97	1.98	-0.750			
0.7292	46669.86	3.3230	3.3231	-0.4832	7.98	1.99	-0.750			
0.7307	46762.80	3.3200	3.3199	-0.4719	7.99	2.00	-0.750			
0.7321	46851.87	3.3170	3.3169	-0.4573	8.00	2.01	-0.750			
0.7334	46937.12	3.3140	3.3140	-0.4457	8.01	2.02	-0.750			
0.7347	47020.05	3.3110	3.3111	-0.4353	8.02	2.03	-0.750			
0.7360	47104.03	3.3080	3.3079	-0.4236	8.03	2.04	-0.750			
0.7373	47184.35	3.3050	3.3050	-0.4144	8.04	2.05	-0.750			
0.7385	47262.74	3.3020	3.3021	-0.4052	8.04	2.05	-0.750			
0.7397	47339.14	3.2990	3.2989	-0.3982	8.05	2.06	-0.750			
0.7409	47414.95	3.2960	3.2959	-0.3900	8.06	2.07	-0.750			
0.7420	47488.87	3.2930	3.2931	-0.3818	8.07	2.08	-0.750			
0.7432	47562.04	3.2900	3.2900	-0.3737	8.08	2.09	-0.750			
0.7443	47633.92	3.2870	3.2870	-0.3677	8.09	2.10	-0.750			
0.7453	47702.19	3.2840	3.2840	-0.3605	8.10	2.11	-0.750			
0.7464	47771.10	3.2810	3.2810	-0.3544	8.11	2.12	-0.750			
0.7475	47838.29	3.2780	3.2779	-0.3448	8.12	2.13	-0.750			
0.7485	47904.00	3.2750	3.2751	-0.3395	8.13	2.14	-0.750			
0.7495	47968.56	3.2720	3.2721	-0.3347	8.14	2.15	-0.750			
0.7505	48032.86	3.2690	3.2689	-0.3253	8.15	2.16	-0.750			
0.7515	48094.48	3.2660	3.2659	-0.3161	8.16	2.17	-0.750			
0.7524	48153.96	3.2630	3.2631	-0.3102	8.17	2.18	-0.750			
0.7533	48213.02	3.2600	3.2603	-0.3056	8.18	2.19	-0.750			
0.7542	48271.18	3.2570	3.2568	-0.2991	8.19	2.20	-0.750			
0.7551	48327.42	3.2540	3.2540	-0.2911	8.20	2.21	-0.750			
0.7560	48382.79	3.2510	3.2511	-0.2860	8.20	2.21	-0.750			
0.7568	48437.35	3.2480	3.2480	-0.2804	8.21	2.22	-0.750			
0.7577	48491.31	3.2450	3.2450	-0.2756	8.22	2.23	-0.750			
0.7585	48542.98	3.2420	3.2419	-0.2699	8.23	2.24	-0.750			
0.7593	48593.88	3.2390	3.2391	-0.2655	8.23	2.24	-0.750			
0.7601	48644.87	3.2360	3.2359	-0.2619	8.24	2.25	-0.750			
0.7609	48694.72	3.2330	3.2330	-0.2580	8.25	2.26	-0.750			
0.7616	48743.75	3.2300	3.2300	-0.2551	8.26	2.27	-0.750			
0.7624	48792.01	3.2270	3.2271	-0.2523	8.26	2.27	-0.750			
0.7631	48840.22	3.2240	3.2239	-0.2503	8.27	2.28	-0.750			
0.7639	48888.07	3.2210	3.2210	-0.2469	8.28	2.29	-0.750			
0.7646	48935.65	3.2180	3.2179	-0.2435	8.28	2.29	-0.750			
0.7654	48982.47	3.2150	3.2151	-0.2402	8.29	2.30	-0.750			
0.7661	49028.66	3.2120	3.2120	-0.2367	8.30	2.31	-0.750			
0.7668	49073.51	3.2090	3.2090	-0.2321	8.30	2.31	-0.750			
0.7675	49117.30	3.2060	3.2059	-0.2277	8.30	2.31	-0.750			
0.7681	49160.32	3.2030	3.2030	-0.2235	8.31	2.32	-0.750			
0.7688	49202.30	3.2000	3.2001	-0.2214	8.32	2.33	-0.750			
0.7695	49244.90	3.1970	3.1970	-0.2196	8.33	2.34	-0.750			
0.7701	49287.18	3.1940	3.1939	-0.2170	8.34	2.35	-0.750			
0.7708	49328.56	3.1910	3.1910	-0.2141	8.34	2.35	-0.750			
0.7714	49369.40	3.1880	3.1881	-0.2112	8.35	2.36	-0.750			
0.7720	49409.88	3.1850	3.1851	-0.2088	8.36	2.37	-0.750			
0.7727	49449.78	3.1820	3.1820	-0.2055	8.37	2.38	-0.750			
0.7733	49488.89	3.1790	3.1788	-0.2019	8.37	2.38	-0.750			
0.7739	49526.88	3.1760	3.1761	-0.1991	8.38	2.39	-0.750			
0.7744	49564.76	3.1730	3.1731	-0.1973	8.39	2.40	-0.750			
0.7750	49602.82	3.1700	3.1698	-0.1946	8.40	2.41	-0.750			
0.7756	49639.90	3.1670	3.1670	-0.1917	8.40	2.41	-0.750			
0.7762	49676.32	3.1640	3.1641	-0.1892	8.41	2.42	-0.750			
0.7768	49712.34	3.1610	3.1611	-0.1870	8.42	2.43	-0.750			
0.7773	49748.24	3.1580	3.1580	-0.1848	8.42	2.43	-0.750			
0.7779	49783.46	3.1550	3.1549	-0.1820	8.43	2.44	-0.750			
0.7784	49817.85	3.1520	3.1520	-0.1799	8.44	2.45	-0.750			
0.7789	49852.01	3.1490	3.1491	-0.1777	8.44	2.45	-0.750			
0.7795	49886.08	3.1460	3.1460	-0.1770	8.45	2.46	-0.750			
0.7800	49919.90	3.1430	3.1430	-0.1753	8.46	2.47	-0.750			
0.7805	49953.30	3.1400	3.1400	-0.1725	8.46	2.47	-0.750			
0.7810	49986.19	3.1370	3.1370	-0.1709	8.47	2.48	-0.750			
0.7815	50018.96	3.1340	3.1340	-0.1695	8.48	2.49	-0.750			
0.7821	50051.32	3.1310	3.1312	-0.1676	8.48	2.49	-0.750			
0.7825	50083.08	3.1280	3.1279	-0.1663	8.49	2.50	-0.750			
0.7830	50114.80	3.1250	3.1250	-0.1649	8.50	2.51	-0.750			
0.7835	50146.48	3.1220	3.1220	-0.1629	8.50	2.51	-0.750			
0.7840	50177.62	3.1190	3.1190	-0.1615	8.51	2.52	-0.750			
0.7845	50208.81	3.1160	3.1160	-0.1608	8.52	2.53	-0.750			
0.7850	50239.30	3.1130	3.1130	-0.1590	8.52	2.53	-0.750			
0.7855	50269.81	3.1100	3.1100	-0.1575	8.53	2.54	-0.750			
0.7859	50299.90	3.1070	3.1069	-0.1559	8.54	2.55	-0.750			
0.7864	50329.53	3.1040	3.1040	-0.1540	8.54	2.55	-0.750			
0.7869	50358.98	3.1010	3.1011	-0.1527	8.55	2.56	-0.750			
0.7873	50388.41	3.0980	3.0980	-0.1516	8.56	2.57	-0.750			
0.7878	50417.31	3.0950	3.0949	-0.1495	8.56	2.57	-0.750			
0.7882	50445.48	3.0920	3.0921	-0.1481	8.57	2.58	-0.750			
0.7887	50473.81	3.0890	3.0890	-0.1467	8.57	2.58	-0.750			
0.7891	50502.00	3.0860	3.0861	-0.1456	8.58	2.59	-0.750			
0.7895	50529.81	3.0830	3.0829	-0.1441	8.59	2.60	-0.750			
0.7900	50557.27	3.0800	3.0800	-0.1432	8.59	2.60	-0.750			
0.7904	50584.48	3.0770	3.0770	-0.1424	8.60	2.61	-0.750			
0.7908	50611.82	3.0740	3.0739	-0.1416	8.60	2.61	-0.750			
0.7912	50638.94	3.0710	3.0710	-0.1408	8.61	2.62	-0.750			
0.7917	50665.82	3.0680	3.0680	-0.1393	8.61	2.62	-0.750			
0.7921	50692.69	3.0650	3.0651	-0.1387	8.62	2.63	-0.750			
0.7925	50719.48	3.0620	3.0620	-0.1374	8.63	2.64	-0.750			
0.7929	50745.66	3.0590	3.0590	-0.1354	8.63	2.64	-0.750			
0.7933	50771.34	3.0560	3.0560	-0.1340	8.64	2.65	-0.750			
0.7937	50796.59	3.0530	3.0531	-0.1331	8.65	2.66	-0.750			
0.7941	50821.97	3.0500	3.0500	-0.1322	8.65	2.66	-0.750			
0.7945	50847.31	3.0470	3.0469	-0.1318	8.66	2.67	-0.750			
0.7949	50872.68	3.0440	3.0440	-0.1306	8.66	2.67	-0.750			
0.7953	50897.58	3.0410	3.0411	-0.1299	8.67	2.68	-0.750			
0.7957	50922.58	3.0380	3.0380	-0.1298	8.68	2.69	-0.750			
0.7961	50947.41	3.0350	3.0351	-0.1289	8.68	2.69	-0.750			
0.7964	50972.11	3.0320	3.0319	-0.1274	8.69	2.70	-0.750			
0.7968	50996.34	3.0290	3.0291	-0.1260	8.69	2.70	-0.750			
0.7972	51020.46	3.0260	3.0260	-0.1254	8.70	2.71	-0.750			
0.7976	51044.45	3.0230	3.0231	-0.1245	8.71	2.72	-0.750			
0.7979	51068.34	3.0200	3.0200	-0.1239	8.71	2.72	-0.750			
0.7983	51091.75	3.0170	3.0169	-0.1226	8.72	2.73	-0.750			
0.7987	51115.29	3.0140	3.0140	-0.1219	8.72	2.73	-0.750			
0.7990	51138.48	3.0110	3.0109	-0.1212	8.73	2.74	-0.750			
0.7994	51161.73	3.0080	3.0081	-0.1209	8.73	2.74	-0.750			
0.7998	51185.16	3.0050	3.0050	-0.1193	8.74	2.75	-0.750			
0.8001	51207.92	3.0020	3.0020	-0.1178	8.75	2.76	-0.750			
