Ah_balance (normalized)	Ah_balance (mAh)	Voltage - fit (V)	Voltage -  interpolate (V)	dQ/dV (1/V)	Temperature (°C)	Temperature - diff (°C)	Current (C)	R_DC 0ms (mOhm)	R_DC 50ms (mOhm)	R_DC 50 ms PEC (mOhm)
0.0002	15.92	4.1030	4.1019	-0.0460	5.99	0.00	-0.750			
0.0004	28.54	4.1000	4.0994	-0.0787	5.99	0.00	-0.750			
0.0007	47.65	4.0970	4.0968	-0.1081	5.99	0.00	-0.750			
0.0011	71.08	4.0940	4.0939	-0.1360	5.99	0.00	-0.750			
0.0016	100.39	4.0910	4.0910	-0.1591	5.99	0.00	-0.750			
0.0021	133.45	4.0880	4.0882	-0.1825	5.99	0.00	-0.750			
0.0027	172.65	4.0850	4.0851	-0.2070	5.99	0.00	-0.750			
0.0033	214.12	4.0820	4.0820	-0.2288	5.99	0.00	-0.750			
0.0041	259.95	4.0790	4.0790	-0.2500	5.99	0.00	-0.750			
0.0048	310.01	4.0760	4.0760	-0.2695	5.99	0.00	-0.750			
0.0057	363.86	4.0730	4.0730	-0.2908	5.99	0.00	-0.750			
0.0066	421.84	4.0700	4.0701	-0.3119	5.99	0.00	-0.750			
0.0075	483.08	4.0670	4.0670	-0.3334	5.99	0.00	-0.750			
0.0086	548.53	4.0640	4.0640	-0.3569	5.99	0.00	-0.750			
0.0097	619.32	4.0610	4.0609	-0.3799	5.99	0.00	-0.750			
0.0109	694.94	4.0580	4.0580	-0.4033	5.99	0.00	-0.750			
0.0121	775.62	4.0550	4.0550	-0.4223	5.99	0.00	-0.750			
0.0134	858.17	4.0520	4.0521	-0.4458	5.99	0.00	-0.750			
0.0148	945.22	4.0490	4.0490	-0.4713	5.99	0.00	-0.750			
0.0162	1037.16	4.0460	4.0458	-0.4904	5.99	0.00	-0.750			
0.0177	1133.13	4.0430	4.0430	-0.5127	5.99	0.00	-0.750			
0.0193	1234.69	4.0400	4.0401	-0.5358	5.99	0.00	-0.750			
0.0210	1341.70	4.0370	4.0370	-0.5538	5.99	0.00	-0.750			
0.0227	1450.22	4.0340	4.0338	-0.5710	5.99	0.00	-0.750			
0.0244	1560.36	4.0310	4.0311	-0.5809	5.99	0.00	-0.750			
0.0262	1673.63	4.0280	4.0280	-0.5953	5.99	0.00	-0.750			
0.0280	1790.70	4.0250	4.0250	-0.6085	5.99	0.00	-0.750			
0.0298	1907.97	4.0220	4.0220	-0.6182	6.00	0.01	-0.750			
0.0317	2027.48	4.0190	4.0190	-0.6282	6.00	0.01	-0.750			
0.0336	2149.10	4.0160	4.0159	-0.6393	6.00	0.01	-0.750			
0.0355	2271.36	4.0130	4.0130	-0.6499	6.01	0.02	-0.750			
0.0375	2398.47	4.0100	4.0098	-0.6589	6.01	0.02	-0.750			
0.0395	2527.48	4.0070	4.0069	-0.6600	6.02	0.03	-0.750			
0.0415	2654.69	4.0040	4.0039	-0.6654	6.02	0.03	-0.750			
0.0434	2780.79	4.0010	4.0012	-0.6749	6.03	0.04	-0.750			
0.0455	2911.56	3.9980	3.9979	-0.6815	6.03	0.04	-0.750			
0.0475	3042.64	3.9950	3.9949	-0.6880	6.04	0.05	-0.750			
0.0496	3175.91	3.9920	3.9919	-0.6960	6.05	0.06	-0.750			
0.0518	3312.15	3.9890	3.9891	-0.7035	6.05	0.06	-0.750			
0.0539	3448.07	3.9860	3.9860	-0.7084	6.06	0.07	-0.750			
0.0560	3582.89	3.9830	3.9830	-0.7099	6.06	0.07	-0.750			
0.0581	3717.69	3.9800	3.9800	-0.7145	6.07	0.08	-0.750			
0.0603	3856.89	3.9770	3.9770	-0.7230	6.07	0.08	-0.750			
0.0624	3996.23	3.9740	3.9740	-0.7249	6.08	0.09	-0.750			
0.0646	4137.26	3.9710	3.9710	-0.7311	6.08	0.09	-0.750			
0.0668	4277.96	3.9680	3.9680	-0.7361	6.09	0.10	-0.750			
0.0691	4419.94	3.9650	3.9650	-0.7392	6.10	0.11	-0.750			
0.0713	4562.22	3.9620	3.9619	-0.7441	6.10	0.11	-0.750			
0.0735	4704.06	3.9590	3.9590	-0.7506	6.11	0.12	-0.750			
0.0758	4850.42	3.9560	3.9561	-0.7523	6.11	0.12	-0.750			
0.0781	4997.03	3.9530	3.9528	-0.7523	6.12	0.13	-0.750			
0.0803	5140.83	3.9500	3.9501	-0.7485	6.13	0.14	-0.750			
0.0826	5284.27	3.9470	3.9470	-0.7404	6.14	0.15	-0.750			
0.0848	5426.29	3.9440	3.9440	-0.7415	6.15	0.16	-0.750			
0.0870	5566.31	3.9410	3.9411	-0.7432	6.16	0.17	-0.750			
0.0892	5705.61	3.9380	3.9380	-0.7475	6.16	0.17	-0.750			
0.0914	5850.81	3.9350	3.9349	-0.7602	6.17	0.18	-0.750			
0.0937	5998.90	3.9320	3.9319	-0.7636	6.18	0.19	-0.750			
0.0960	6146.89	3.9290	3.9292	-0.7715	6.19	0.20	-0.750			
0.0984	6297.94	3.9260	3.9260	-0.7815	6.19	0.20	-0.750			
0.1008	6448.14	3.9230	3.9229	-0.7767	6.20	0.21	-0.750			
0.1031	6595.57	3.9200	3.9200	-0.7687	6.21	0.22	-0.750			
0.1054	6743.08	3.9170	3.9171	-0.7681	6.22	0.23	-0.750			
0.1077	6892.23	3.9140	3.9141	-0.7671	6.23	0.24	-0.750			
0.1100	7039.85	3.9110	3.9109	-0.7672	6.24	0.25	-0.750			
0.1123	7184.96	3.9080	3.9080	-0.7582	6.25	0.26	-0.750			
0.1145	7328.34	3.9050	3.9051	-0.7591	6.26	0.27	-0.750			
0.1168	7473.88	3.9020	3.9020	-0.7686	6.26	0.27	-0.750			
0.1191	7621.60	3.8990	3.8990	-0.7743	6.27	0.28	-0.750			
0.1214	7770.73	3.8960	3.8959	-0.7810	6.28	0.29	-0.750			
0.1238	7922.87	3.8930	3.8930	-0.7899	6.29	0.30	-0.750			
0.1262	8075.82	3.8900	3.8900	-0.7933	6.29	0.30	-0.750			
0.1286	8230.44	3.8870	3.8870	-0.7957	6.30	0.31	-0.750			
0.1310	8382.27	3.8840	3.8841	-0.7911	6.31	0.32	-0.750			
0.1333	8532.12	3.8810	3.8810	-0.7901	6.32	0.33	-0.750			
0.1357	8685.35	3.8780	3.8778	-0.7886	6.32	0.33	-0.750			
0.1380	8834.58	3.8750	3.8751	-0.7912	6.33	0.34	-0.750			
0.1404	8986.22	3.8720	3.8720	-0.7938	6.34	0.35	-0.750			
0.1428	9139.63	3.8690	3.8691	-0.8039	6.35	0.36	-0.750			
0.1452	9295.61	3.8660	3.8659	-0.8090	6.36	0.37	-0.750			
0.1477	9451.92	3.8630	3.8630	-0.8101	6.37	0.38	-0.750			
0.1501	9608.28	3.8600	3.8601	-0.8091	6.38	0.39	-0.750			
0.1526	9766.73	3.8570	3.8570	-0.8041	6.39	0.40	-0.750			
0.1550	9917.44	3.8540	3.8541	-0.8032	6.40	0.41	-0.750			
0.1573	10070.34	3.8510	3.8510	-0.7988	6.40	0.41	-0.750			
0.1597	10222.73	3.8480	3.8478	-0.7948	6.41	0.42	-0.750			
0.1621	10373.69	3.8450	3.8452	-0.8029	6.42	0.43	-0.750			
0.1645	10529.58	3.8420	3.8420	-0.8127	6.43	0.44	-0.750			
0.1670	10686.46	3.8390	3.8388	-0.8234	6.44	0.45	-0.750			
0.1695	10846.68	3.8360	3.8359	-0.8302	6.45	0.46	-0.750			
0.1720	11006.44	3.8330	3.8332	-0.8205	6.46	0.47	-0.750			
0.1745	11168.60	3.8300	3.8300	-0.8284	6.47	0.48	-0.750			
0.1770	11326.75	3.8270	3.8270	-0.8247	6.48	0.49	-0.750			
0.1794	11480.25	3.8240	3.8239	-0.8180	6.49	0.50	-0.750			
0.1818	11637.72	3.8210	3.8209	-0.8195	6.50	0.51	-0.750			
0.1843	11794.59	3.8180	3.8180	-0.8191	6.51	0.52	-0.750			
0.1868	11954.23	3.8150	3.8150	-0.8282	6.52	0.53	-0.750			
0.1893	12115.42	3.8120	3.8120	-0.8291	6.53	0.54	-0.750			
0.1918	12273.53	3.8090	3.8090	-0.8297	6.53	0.54	-0.750			
0.1943	12433.42	3.8060	3.8060	-0.8308	6.54	0.55	-0.750			
0.1968	12592.37	3.8030	3.8030	-0.8293	6.55	0.56	-0.750			
0.1993	12754.19	3.8000	3.7999	-0.8311	6.56	0.57	-0.750			
0.2018	12913.21	3.7970	3.7969	-0.8221	6.57	0.58	-0.750			
0.2042	13069.00	3.7940	3.7941	-0.8236	6.58	0.59	-0.750			
0.2067	13225.97	3.7910	3.7911	-0.8281	6.59	0.60	-0.750			
0.2091	13382.66	3.7880	3.7878	-0.8291	6.60	0.61	-0.750			
0.2116	13544.77	3.7850	3.7850	-0.8385	6.61	0.62	-0.750			
0.2142	13706.96	3.7820	3.7819	-0.8445	6.62	0.63	-0.750			
0.2168	13872.50	3.7790	3.7790	-0.8506	6.63	0.64	-0.750			
0.2193	14035.96	3.7760	3.7761	-0.8505	6.64	0.65	-0.750			
0.2218	14195.84	3.7730	3.7730	-0.8439	6.65	0.66	-0.750			
0.2243	14358.22	3.7700	3.7699	-0.8486	6.66	0.67	-0.750			
0.2269	14521.96	3.7670	3.7670	-0.8508	6.67	0.68	-0.750			
0.2295	14685.96	3.7640	3.7640	-0.8515	6.67	0.68	-0.750			
0.2320	14850.57	3.7610	3.7610	-0.8547	6.68	0.69	-0.750			
0.2346	15013.57	3.7580	3.7580	-0.8539	6.69	0.70	-0.750			
0.2371	15177.07	3.7550	3.7551	-0.8591	6.70	0.71	-0.750			
0.2397	15341.42	3.7520	3.7520	-0.8668	6.71	0.72	-0.750			
0.2423	15508.31	3.7490	3.7489	-0.8689	6.72	0.73	-0.750			
0.2450	15678.09	3.7460	3.7461	-0.8733	6.73	0.74	-0.750			
0.2476	15844.75	3.7430	3.7429	-0.8743	6.74	0.75	-0.750			
0.2502	16013.97	3.7400	3.7405	-0.8815	6.75	0.76	-0.750			
0.2529	16183.56	3.7370	3.7369	-0.8864	6.76	0.77	-0.750			
0.2555	16352.69	3.7340	3.7339	-0.8855	6.77	0.78	-0.750			
0.2582	16524.83	3.7310	3.7310	-0.8821	6.78	0.79	-0.750			
0.2609	16696.49	3.7280	3.7280	-0.8797	6.78	0.79	-0.750			
0.2635	16863.40	3.7250	3.7250	-0.8787	6.79	0.80	-0.750			
0.2661	17028.15	3.7220	3.7220	-0.8802	6.80	0.81	-0.750			
0.2687	17195.97	3.7190	3.7189	-0.8831	6.81	0.82	-0.750			
0.2714	17366.49	3.7160	3.7160	-0.8847	6.82	0.83	-0.750			
0.2740	17537.85	3.7130	3.7130	-0.8952	6.83	0.84	-0.750			
0.2767	17710.61	3.7100	3.7099	-0.9040	6.83	0.84	-0.750			
0.2795	17886.05	3.7070	3.7070	-0.9085	6.84	0.85	-0.750			
0.2822	18058.94	3.7040	3.7039	-0.9127	6.85	0.86	-0.750			
0.2849	18234.68	3.7010	3.7010	-0.9146	6.86	0.87	-0.750			
0.2877	18411.07	3.6980	3.6983	-0.9223	6.87	0.88	-0.750			
0.2905	18590.83	3.6950	3.6950	-0.9306	6.88	0.89	-0.750			
0.2933	18768.38	3.6920	3.6921	-0.9344	6.88	0.89	-0.750			
0.2961	18949.10	3.6890	3.6890	-0.9395	6.89	0.90	-0.750			
0.2989	19129.51	3.6860	3.6861	-0.9512	6.90	0.91	-0.750			
0.3018	19312.24	3.6830	3.6830	-0.9581	6.90	0.91	-0.750			
0.3047	19500.99	3.6800	3.6799	-0.9651	6.91	0.92	-0.750			
0.3076	19685.90	3.6770	3.6770	-0.9644	6.92	0.93	-0.750			
0.3105	19872.25	3.6740	3.6740	-0.9685	6.93	0.94	-0.750			
0.3134	20055.75	3.6710	3.6711	-0.9829	6.94	0.95	-0.750			
0.3163	20245.57	3.6680	3.6678	-0.9937	6.95	0.96	-0.750			
0.3193	20437.51	3.6650	3.6649	-0.9980	6.96	0.97	-0.750			
0.3224	20631.43	3.6620	3.6621	-1.0052	6.96	0.97	-0.750			
0.3254	20828.12	3.6590	3.6592	-1.0155	6.97	0.98	-0.750			
0.3285	21022.21	3.6560	3.6560	-1.0139	6.98	0.99	-0.750			
0.3315	21215.74	3.6530	3.6529	-1.0084	6.99	1.00	-0.750			
0.3345	21406.34	3.6500	3.6499	-1.0097	6.99	1.00	-0.750			
0.3375	21600.85	3.6470	3.6471	-1.0217	7.00	1.01	-0.750			
0.3406	21796.98	3.6440	3.6440	-1.0382	7.01	1.02	-0.750			
0.3437	21998.60	3.6410	3.6409	-1.0534	7.01	1.02	-0.750			
0.3469	22201.75	3.6380	3.6379	-1.0688	7.02	1.03	-0.750			
0.3501	22408.33	3.6350	3.6354	-1.0768	7.03	1.04	-0.750			
0.3534	22620.02	3.6320	3.6319	-1.0904	7.04	1.05	-0.750			
0.3567	22828.52	3.6290	3.6290	-1.1009	7.05	1.06	-0.750			
0.3600	23039.08	3.6260	3.6260	-1.1060	7.05	1.06	-0.750			
0.3634	23254.54	3.6230	3.6230	-1.1186	7.06	1.07	-0.750			
0.3667	23467.57	3.6200	3.6200	-1.1240	7.07	1.08	-0.750			
0.3701	23683.46	3.6170	3.6171	-1.1357	7.08	1.09	-0.750			
0.3735	23904.14	3.6140	3.6140	-1.1461	7.09	1.10	-0.750			
0.3770	24124.81	3.6110	3.6110	-1.1538	7.09	1.10	-0.750			
0.3804	24347.15	3.6080	3.6080	-1.1561	7.10	1.11	-0.750			
0.3839	24570.82	3.6050	3.6050	-1.1740	7.10	1.11	-0.750			
0.3874	24795.31	3.6020	3.6020	-1.1893	7.11	1.12	-0.750			
0.3910	25023.97	3.5990	3.5989	-1.2050	7.12	1.13	-0.750			
0.3946	25257.10	3.5960	3.5967	-1.2190	7.13	1.14	-0.750	0.430	0.934	
0.3984	25494.99	3.5930	3.5929	-1.2250	7.14	1.15	-0.750			
0.4021	25731.53	3.5900	3.5900	-1.2329	7.14	1.15	-0.750			
0.4058	25971.01	3.5870	3.5871	-1.2349	7.15	1.16	-0.750			
0.4095	26206.67	3.5840	3.5838	-1.2423	7.16	1.17	-0.750			
0.4131	26440.58	3.5810	3.5812	-1.2486	7.17	1.18	-0.750			
0.4169	26683.12	3.5780	3.5780	-1.2636	7.18	1.19	-0.750			
0.4207	26926.55	3.5750	3.5749	-1.2879	7.19	1.20	-0.750			
0.4246	27176.76	3.5720	3.5721	-1.3156	7.20	1.21	-0.750			
0.4286	27429.64	3.5690	3.5689	-1.3347	7.20	1.21	-0.750			
0.4327	27690.07	3.5660	3.5659	-1.3523	7.21	1.22	-0.750			
0.4368	27954.36	3.5630	3.5631	-1.3590	7.21	1.22	-0.750			
0.4409	28218.09	3.5600	3.5599	-1.3620	7.22	1.23	-0.750			
0.4451	28484.98	3.5570	3.5569	-1.3576	7.23	1.24	-0.750			
0.4491	28739.76	3.5540	3.5542	-1.3559	7.24	1.25	-0.750			
0.4531	28995.49	3.5510	3.5509	-1.3567	7.25	1.26	-0.750			
0.4571	29254.02	3.5480	3.5479	-1.3742	7.26	1.27	-0.750			
0.4613	29520.57	3.5450	3.5449	-1.3901	7.27	1.28	-0.750			
0.4655	29790.36	3.5420	3.5419	-1.4028	7.28	1.29	-0.750			
0.4698	30067.25	3.5390	3.5391	-1.4173	7.29	1.30	-0.750			
0.4741	30340.84	3.5360	3.5361	-1.4287	7.30	1.31	-0.750			
0.4783	30609.92	3.5330	3.5330	-1.4339	7.30	1.31	-0.750			
0.4826	30888.75	3.5300	3.5298	-1.4312	7.31	1.32	-0.750			
0.4869	31162.18	3.5270	3.5271	-1.4492	7.32	1.33	-0.750			
0.4913	31445.37	3.5240	3.5240	-1.4598	7.33	1.34	-0.750			
0.4957	31727.67	3.5210	3.5209	-1.4796	7.35	1.36	-0.750			
0.5002	32012.88	3.5180	3.5183	-1.4739	7.37	1.38	-0.750			
0.5046	32294.67	3.5150	3.5149	-1.4575	7.38	1.39	-0.750			
0.5090	32576.69	3.5120	3.5120	-1.4528	7.38	1.39	-0.750			
0.5134	32858.76	3.5090	3.5090	-1.4447	7.39	1.40	-0.750			
0.5177	33130.50	3.5060	3.5059	-1.4508	7.40	1.41	-0.750			
0.5220	33408.29	3.5030	3.5029	-1.4504	7.41	1.42	-0.750			
0.5264	33687.11	3.5000	3.4999	-1.4309	7.42	1.43	-0.750			
0.5307	33962.88	3.4970	3.4973	-1.4501	7.43	1.44	-0.750			
0.5350	34241.14	3.4940	3.4940	-1.4633	7.44	1.45	-0.750			
0.5394	34523.04	3.4910	3.4909	-1.4593	7.46	1.47	-0.750			
0.5438	34805.77	3.4880	3.4878	-1.4483	7.47	1.48	-0.750			
0.5482	35082.74	3.4850	3.4851	-1.4471	7.48	1.49	-0.750			
0.5525	35361.48	3.4820	3.4821	-1.4351	7.50	1.51	-0.750			
0.5568	35636.58	3.4790	3.4789	-1.4468	7.51	1.52	-0.750			
0.5610	35907.08	3.4760	3.4759	-1.4225	7.52	1.53	-0.750			
0.5654	36183.38	3.4730	3.4729	-1.4253	7.54	1.55	-0.750			
0.5697	36461.22	3.4700	3.4701	-1.4197	7.55	1.56	-0.750			
0.5740	36738.45	3.4670	3.4670	-1.4162	7.56	1.57	-0.750			
0.5782	37007.27	3.4640	3.4639	-1.3883	7.57	1.58	-0.750			
0.5824	37272.85	3.4610	3.4609	-1.3721	7.59	1.60	-0.750			
0.5864	37527.03	3.4580	3.4580	-1.3542	7.60	1.61	-0.750			
0.5904	37787.81	3.4550	3.4549	-1.3586	7.62	1.63	-0.750			
0.5945	38048.17	3.4520	3.4520	-1.3505	7.63	1.64	-0.750			
0.5985	38305.63	3.4490	3.4489	-1.3467	7.64	1.65	-0.750			
0.6026	38564.91	3.4460	3.4460	-1.3306	7.65	1.66	-0.750			
0.6067	38826.25	3.4430	3.4430	-1.3230	7.67	1.68	-0.750			
0.6106	39077.93	3.4400	3.4399	-1.2969	7.69	1.70	-0.750			
0.6144	39323.53	3.4370	3.4369	-1.2648	7.71	1.72	-0.750			
0.6182	39565.23	3.4340	3.4341	-1.2454	7.72	1.73	-0.750			
0.6219	39800.45	3.4310	3.4310	-1.2262	7.74	1.75	-0.750			
0.6255	40029.52	3.4280	3.4280	-1.2043	7.75	1.76	-0.750			
0.6291	40263.53	3.4250	3.4249	-1.1948	7.77	1.78	-0.750			
0.6327	40490.54	3.4220	3.4220	-1.1784	7.78	1.79	-0.750			
0.6362	40717.62	3.4190	3.4189	-1.1574	7.79	1.80	-0.750			
0.6397	40940.75	3.4160	3.4160	-1.1418	7.81	1.82	-0.750			
0.6431	41158.08	3.4130	3.4129	-1.1103	7.82	1.83	-0.750			
0.6463	41365.69	3.4100	3.4102	-1.0796	7.83	1.84	-0.750			
0.6495	41568.97	3.4070	3.4071	-1.0472	7.85	1.86	-0.750			
0.6526	41769.34	3.4040	3.4040	-1.0321	7.86	1.87	-0.750			
0.6557	41964.42	3.4010	3.4009	-1.0037	7.88	1.89	-0.750			
0.6587	42155.20	3.3980	3.3981	-0.9800	7.89	1.90	-0.750			
0.6616	42342.50	3.3950	3.3949	-0.9528	7.90	1.91	-0.750			
0.6645	42525.82	3.3920	3.3919	-0.9309	7.92	1.93	-0.750			
0.6672	42701.07	3.3890	3.3890	-0.9075	7.94	1.95	-0.750			
0.6699	42872.25	3.3860	3.3859	-0.8775	7.95	1.96	-0.750			
0.6724	43035.29	3.3830	3.3830	-0.8491	7.96	1.97	-0.750			
0.6750	43198.69	3.3800	3.3802	-0.8346	7.98	1.99	-0.750			
0.6774	43355.86	3.3770	3.3769	-0.8119	7.99	2.00	-0.750			
0.6798	43509.62	3.3740	3.3739	-0.7982	8.01	2.02	-0.750			
0.6822	43660.57	3.3710	3.3710	-0.7787	8.02	2.03	-0.750			
0.6845	43810.56	3.3680	3.3679	-0.7617	8.03	2.04	-0.750			
0.6868	43955.69	3.3650	3.3649	-0.7413	8.05	2.06	-0.750			
0.6890	44094.87	3.3620	3.3621	-0.7169	8.06	2.07	-0.750			
0.6911	44230.09	3.3590	3.3589	-0.6967	8.07	2.08	-0.750			
0.6931	44359.61	3.3560	3.3560	-0.6790	8.08	2.09	-0.750			
0.6951	44488.85	3.3530	3.3530	-0.6578	8.10	2.11	-0.750			
0.6971	44615.57	3.3500	3.3499	-0.6444	8.11	2.12	-0.750			
0.6990	44737.80	3.3470	3.3470	-0.6243	8.12	2.13	-0.750			
0.7009	44854.83	3.3440	3.3441	-0.6078	8.13	2.14	-0.750			
0.7026	44969.24	3.3410	3.3409	-0.5928	8.15	2.16	-0.750			
0.7044	45080.26	3.3380	3.3379	-0.5735	8.16	2.17	-0.750			
0.7061	45187.74	3.3350	3.3350	-0.5602	8.17	2.18	-0.750			
0.7078	45296.05	3.3320	3.3321	-0.5532	8.18	2.19	-0.750			
0.7094	45401.41	3.3290	3.3290	-0.5402	8.19	2.20	-0.750			
0.7110	45503.96	3.3260	3.3258	-0.5284	8.20	2.21	-0.750			
0.7125	45602.72	3.3230	3.3232	-0.5121	8.21	2.22	-0.750			
0.7141	45700.33	3.3200	3.3200	-0.5045	8.22	2.23	-0.750			
0.7156	45797.29	3.3170	3.3170	-0.4960	8.23	2.24	-0.750			
0.7170	45890.54	3.3140	3.3140	-0.4838	8.24	2.25	-0.750			
0.7185	45982.23	3.3110	3.3109	-0.4734	8.26	2.27	-0.750			
0.7199	46072.70	3.3080	3.3081	-0.4626	8.27	2.28	-0.750			
0.7213	46160.49	3.3050	3.3049	-0.4506	8.28	2.29	-0.750			
0.7226	46246.39	3.3020	3.3020	-0.4374	8.29	2.30	-0.750			
0.7239	46327.88	3.2990	3.2991	-0.4249	8.30	2.31	-0.750			
0.7251	46408.33	3.2960	3.2960	-0.4154	8.31	2.32	-0.750			
0.7264	46486.59	3.2930	3.2930	-0.4064	8.32	2.33	-0.750			
0.7276	46563.66	3.2900	3.2901	-0.4011	8.33	2.34	-0.750			
0.7288	46640.21	3.2870	3.2870	-0.3941	8.34	2.35	-0.750			
0.7299	46715.65	3.2840	3.2840	-0.3878	8.35	2.36	-0.750			
0.7311	46790.10	3.2810	3.2810	-0.3802	8.36	2.37	-0.750			
0.7322	46861.65	3.2780	3.2781	-0.3734	8.38	2.39	-0.750			
0.7333	46932.36	3.2750	3.2750	-0.3673	8.39	2.40	-0.750			
0.7344	47002.21	3.2720	3.2719	-0.3604	8.40	2.41	-0.750			
0.7355	47070.75	3.2690	3.2690	-0.3519	8.41	2.42	-0.750			
0.7365	47138.17	3.2660	3.2658	-0.3455	8.42	2.43	-0.750			
0.7376	47204.25	3.2630	3.2632	-0.3392	8.41	2.42	-0.750			
0.7386	47268.50	3.2600	3.2599	-0.3322	8.42	2.43	-0.750			
0.7395	47330.51	3.2570	3.2570	-0.3244	8.43	2.44	-0.750			
0.7405	47392.39	3.2540	3.2540	-0.3208	8.44	2.45	-0.750			
0.7415	47452.96	3.2510	3.2510	-0.3168	8.45	2.46	-0.750			
0.7424	47514.49	3.2480	3.2480	-0.3143	8.46	2.47	-0.750			
0.7434	47574.44	3.2450	3.2451	-0.3079	8.47	2.48	-0.750			
0.7443	47633.66	3.2420	3.2419	-0.3023	8.48	2.49	-0.750			
0.7452	47691.04	3.2390	3.2392	-0.2974	8.49	2.50	-0.750			
0.7460	47747.07	3.2360	3.2359	-0.2915	8.50	2.51	-0.750			
0.7469	47802.20	3.2330	3.2329	-0.2864	8.51	2.52	-0.750			
0.7478	47856.33	3.2300	3.2300	-0.2811	8.52	2.53	-0.750			
0.7486	47909.81	3.2270	3.2270	-0.2774	8.52	2.53	-0.750			
0.7494	47963.62	3.2240	3.2240	-0.2754	8.53	2.54	-0.750			
0.7503	48016.03	3.2210	3.2210	-0.2706	8.54	2.55	-0.750			
0.7511	48067.49	3.2180	3.2179	-0.2644	8.55	2.56	-0.750			
0.7518	48117.85	3.2150	3.2151	-0.2615	8.56	2.57	-0.750			
0.7526	48167.70	3.2120	3.2121	-0.2577	8.57	2.58	-0.750			
0.7534	48216.77	3.2090	3.2089	-0.2540	8.58	2.59	-0.750			
0.7541	48264.64	3.2060	3.2060	-0.2510	8.59	2.60	-0.750			
0.7549	48311.88	3.2030	3.2031	-0.2476	8.59	2.60	-0.750			
0.7556	48359.81	3.2000	3.2000	-0.2456	8.60	2.61	-0.750			
0.7564	48407.18	3.1970	3.1969	-0.2430	8.61	2.62	-0.750			
0.7571	48453.20	3.1940	3.1940	-0.2387	8.62	2.63	-0.750			
0.7578	48498.64	3.1910	3.1911	-0.2355	8.63	2.64	-0.750			
0.7585	48543.86	3.1880	3.1880	-0.2326	8.64	2.65	-0.750			
0.7592	48588.06	3.1850	3.1851	-0.2295	8.64	2.65	-0.750			
0.7599	48631.15	3.1820	3.1820	-0.2260	8.65	2.66	-0.750			
0.7605	48674.60	3.1790	3.1789	-0.2241	8.66	2.67	-0.750			
0.7612	48717.83	3.1760	3.1761	-0.2219	8.66	2.67	-0.750			
0.7619	48760.38	3.1730	3.1729	-0.2194	8.67	2.68	-0.750			
0.7625	48802.10	3.1700	3.1700	-0.2173	8.68	2.69	-0.750			
0.7632	48843.54	3.1670	3.1670	-0.2145	8.69	2.70	-0.750			
0.7638	48884.58	3.1640	3.1639	-0.2116	8.69	2.70	-0.750			
0.7645	48925.00	3.1610	3.1610	-0.2088	8.70	2.71	-0.750			
0.7651	48964.46	3.1580	3.1581	-0.2067	8.71	2.72	-0.750			
0.7657	49004.22	3.1550	3.1550	-0.2044	8.72	2.73	-0.750			
0.7663	49042.92	3.1520	3.1519	-0.2026	8.73	2.74	-0.750			
0.7669	49081.65	3.1490	3.1490	-0.2008	8.73	2.74	-0.750			
0.7675	49119.80	3.1460	3.1461	-0.1981	8.74	2.75	-0.750			
0.7681	49157.79	3.1430	3.1429	-0.1966	8.75	2.76	-0.750			
0.7687	49195.55	3.1400	3.1400	-0.1950	8.76	2.77	-0.750			
0.7693	49232.77	3.1370	3.1371	-0.1927	8.76	2.77	-0.750			
0.7698	49269.34	3.1340	3.1340	-0.1906	8.77	2.78	-0.750			
0.7704	49306.03	3.1310	3.1310	-0.1888	8.78	2.79	-0.750			
0.7710	49341.76	3.1280	3.1279	-0.1860	8.78	2.79	-0.750			
0.7715	49377.32	3.1250	3.1252	-0.1844	8.79	2.80	-0.750			
0.7721	49412.85	3.1220	3.1219	-0.1825	8.80	2.81	-0.750			
0.7726	49447.52	3.1190	3.1190	-0.1801	8.81	2.82	-0.750			
0.7731	49481.52	3.1160	3.1160	-0.1791	8.81	2.82	-0.750			
0.7737	49515.73	3.1130	3.1130	-0.1785	8.82	2.83	-0.750			
0.7742	49549.65	3.1100	3.1100	-0.1777	8.83	2.84	-0.750			
0.7747	49583.97	3.1070	3.1069	-0.1758	8.83	2.84	-0.750			
0.7753	49617.80	3.1040	3.1041	-0.1742	8.84	2.85	-0.750			
0.7758	49651.12	3.1010	3.1010	-0.1721	8.85	2.86	-0.750			
0.7763	49684.38	3.0980	3.0980	-0.1702	8.86	2.87	-0.750			
0.7768	49716.67	3.0950	3.0950	-0.1690	8.86	2.87	-0.750			
0.7773	49748.31	3.0920	3.0920	-0.1670	8.87	2.88	-0.750			
0.7778	49780.27	3.0890	3.0890	-0.1658	8.88	2.89	-0.750			
0.7783	49812.06	3.0860	3.0859	-0.1654	8.89	2.90	-0.750			
0.7788	49844.10	3.0830	3.0831	-0.1640	8.89	2.90	-0.750			
0.7793	49875.50	3.0800	3.0801	-0.1628	8.90	2.91	-0.750			
0.7798	49906.58	3.0770	3.0770	-0.1620	8.91	2.92	-0.750			
0.7803	49937.56	3.0740	3.0740	-0.1607	8.91	2.92	-0.750			
0.7807	49967.83	3.0710	3.0709	-0.1605	8.92	2.93	-0.750			
0.7812	49998.62	3.0680	3.0680	-0.1595	8.93	2.94	-0.750			
0.7817	50029.57	3.0650	3.0650	-0.1588	8.94	2.95	-0.750			
0.7822	50059.95	3.0620	3.0620	-0.1577	8.94	2.95	-0.750			
0.7827	50090.60	3.0590	3.0591	-0.1554	8.95	2.96	-0.750			
0.7831	50120.42	3.0560	3.0560	-0.1531	8.96	2.97	-0.750			
0.7836	50149.00	3.0530	3.0531	-0.1514	8.96	2.97	-0.750			
0.7840	50177.91	3.0500	3.0500	-0.1498	8.97	2.98	-0.750			
0.7845	50206.03	3.0470	3.0469	-0.1483	8.98	2.99	-0.750			
0.7849	50234.27	3.0440	3.0439	-0.1481	8.98	2.99	-0.750			
0.7854	50262.77	3.0410	3.0411	-0.1474	8.99	3.00	-0.750			
0.7858	50291.05	3.0380	3.0380	-0.1472	8.99	3.00	-0.750			
0.7862	50319.46	3.0350	3.0351	-0.1475	9.00	3.01	-0.750			
0.7867	50347.99	3.0320	3.0320	-0.1465	9.01	3.02	-0.750			
0.7871	50375.75	3.0290	3.0288	-0.1454	9.01	3.02	-0.750			
0.7876	50403.65	3.0260	3.0261	-0.1449	9.02	3.03	-0.750			
0.7880	50431.60	3.0230	3.0231	-0.1445	9.02	3.03	-0.750			
0.7884	50459.20	3.0200	3.0199	-0.1433	9.03	3.04	-0.750			
0.7889	50486.86	3.0170	3.0169	-0.1424	9.04	3.05	-0.750			
0.7893	50514.05	3.0140	3.0140	-0.1404	9.04	3.05	-0.750			
0.7897	50540.87	3.0110	3.0111	-0.1390	9.05	3.06	-0.750			
0.7901	50567.84	3.0080	3.0080	-0.1370	9.05	3.06	-0.750			
0.7905	50593.85	3.0050	3.0050	-0.1347	9.06	3.07	-0.750			
0.7909	50619.48	3.0020	3.0020	-0.1321	9.07	3.08	-0.750			
