Ah_balance (normalized)	Ah_balance (mAh)	Voltage - fit (V)	Voltage -  interpolate (V)	dQ/dV (1/V)	Temperature (°C)	Temperature - diff (°C)	Current (C)	R_DC 0ms (mOhm)	R_DC 50ms (mOhm)	R_DC 50 ms PEC (mOhm)
0.0003	21.37	4.1100	4.1095	-0.0785	5.98	-0.00	-0.750			
0.0006	40.05	4.1070	4.1069	-0.1091	5.98	-0.00	-0.750			
0.0010	63.70	4.1040	4.1039	-0.1373	5.98	-0.00	-0.750			
0.0015	93.22	4.1010	4.1009	-0.1626	5.98	-0.00	-0.750			
0.0020	127.12	4.0980	4.0980	-0.1867	5.98	-0.00	-0.750			
0.0026	166.83	4.0950	4.0951	-0.2106	5.98	-0.00	-0.750			
0.0033	209.16	4.0920	4.0921	-0.2332	5.98	-0.00	-0.750			
0.0040	256.31	4.0890	4.0890	-0.2545	5.98	-0.00	-0.750			
0.0048	307.32	4.0860	4.0858	-0.2752	5.98	0.00	-0.750			
0.0057	362.74	4.0830	4.0830	-0.2948	5.98	0.00	-0.750			
0.0066	420.86	4.0800	4.0800	-0.3166	5.98	0.00	-0.750			
0.0075	483.05	4.0770	4.0771	-0.3387	5.98	0.00	-0.750			
0.0086	549.47	4.0740	4.0740	-0.3623	5.98	0.00	-0.750			
0.0097	620.74	4.0710	4.0709	-0.3876	5.98	0.00	-0.750			
0.0109	697.40	4.0680	4.0681	-0.4148	5.99	0.01	-0.750			
0.0122	780.51	4.0650	4.0650	-0.4393	5.99	0.01	-0.750			
0.0136	868.40	4.0620	4.0620	-0.4676	5.99	0.01	-0.750			
0.0150	960.64	4.0590	4.0590	-0.4893	5.99	0.01	-0.750			
0.0165	1057.13	4.0560	4.0562	-0.5100	5.99	0.01	-0.750			
0.0181	1156.70	4.0530	4.0530	-0.5330	5.99	0.01	-0.750			
0.0197	1260.87	4.0500	4.0501	-0.5541	5.99	0.01	-0.750			
0.0214	1369.38	4.0470	4.0470	-0.5768	5.99	0.01	-0.750			
0.0232	1484.11	4.0440	4.0439	-0.5982	6.00	0.02	-0.750			
0.0250	1600.50	4.0410	4.0410	-0.6133	6.00	0.02	-0.750			
0.0269	1722.36	4.0380	4.0381	-0.6286	6.00	0.02	-0.750			
0.0288	1844.33	4.0350	4.0351	-0.6379	6.00	0.02	-0.750			
0.0307	1966.80	4.0320	4.0319	-0.6479	6.00	0.02	-0.750			
0.0327	2091.78	4.0290	4.0290	-0.6535	6.01	0.03	-0.750			
0.0346	2217.05	4.0260	4.0260	-0.6621	6.01	0.03	-0.750			
0.0366	2345.45	4.0230	4.0230	-0.6695	6.02	0.04	-0.750			
0.0387	2475.21	4.0200	4.0201	-0.6801	6.02	0.04	-0.750			
0.0407	2606.86	4.0170	4.0168	-0.6899	6.03	0.05	-0.750			
0.0428	2739.83	4.0140	4.0140	-0.6978	6.03	0.05	-0.750			
0.0449	2874.52	4.0110	4.0110	-0.7056	6.04	0.06	-0.750			
0.0470	3011.01	4.0080	4.0080	-0.7167	6.05	0.07	-0.750			
0.0492	3148.58	4.0050	4.0050	-0.7198	6.05	0.07	-0.750			
0.0514	3289.38	4.0020	4.0019	-0.7305	6.06	0.08	-0.750			
0.0536	3430.00	3.9990	3.9990	-0.7352	6.07	0.09	-0.750			
0.0558	3572.67	3.9960	3.9961	-0.7404	6.07	0.09	-0.750			
0.0581	3716.17	3.9930	3.9930	-0.7455	6.08	0.10	-0.750			
0.0603	3860.29	3.9900	3.9899	-0.7451	6.08	0.10	-0.750			
0.0625	4002.57	3.9870	3.9870	-0.7462	6.09	0.11	-0.750			
0.0648	4145.29	3.9840	3.9840	-0.7486	6.10	0.12	-0.750			
0.0670	4288.36	3.9810	3.9810	-0.7501	6.10	0.12	-0.750			
0.0693	4433.17	3.9780	3.9779	-0.7548	6.11	0.13	-0.750			
0.0716	4579.21	3.9750	3.9750	-0.7578	6.12	0.14	-0.750			
0.0738	4725.49	3.9720	3.9721	-0.7624	6.13	0.15	-0.750			
0.0761	4872.59	3.9690	3.9689	-0.7715	6.14	0.16	-0.750			
0.0785	5021.19	3.9660	3.9660	-0.7731	6.15	0.17	-0.750			
0.0808	5170.14	3.9630	3.9628	-0.7738	6.16	0.18	-0.750			
0.0831	5319.38	3.9600	3.9601	-0.7743	6.16	0.18	-0.750			
0.0855	5469.06	3.9570	3.9569	-0.7736	6.17	0.19	-0.750			
0.0878	5617.26	3.9540	3.9540	-0.7717	6.18	0.20	-0.750			
0.0901	5764.94	3.9510	3.9510	-0.7643	6.18	0.20	-0.750			
0.0923	5910.08	3.9480	3.9481	-0.7602	6.19	0.21	-0.750			
0.0947	6057.87	3.9450	3.9450	-0.7595	6.20	0.22	-0.750			
0.0969	6201.24	3.9420	3.9420	-0.7660	6.21	0.23	-0.750			
0.0992	6346.07	3.9390	3.9391	-0.7750	6.22	0.24	-0.750			
0.1015	6495.19	3.9360	3.9359	-0.7888	6.23	0.25	-0.750			
0.1039	6648.30	3.9330	3.9329	-0.8032	6.24	0.26	-0.750			
0.1064	6807.42	3.9300	3.9300	-0.8100	6.25	0.27	-0.750			
0.1088	6964.98	3.9270	3.9270	-0.8077	6.25	0.27	-0.750			
0.1113	7124.18	3.9240	3.9241	-0.8048	6.26	0.28	-0.750			
0.1137	7276.63	3.9210	3.9209	-0.7931	6.27	0.29	-0.750			
0.1160	7425.37	3.9180	3.9181	-0.7876	6.28	0.30	-0.750			
0.1183	7573.37	3.9150	3.9150	-0.7973	6.29	0.31	-0.750			
0.1207	7723.21	3.9120	3.9120	-0.8062	6.30	0.32	-0.750			
0.1231	7880.53	3.9090	3.9088	-0.8188	6.31	0.33	-0.750			
0.1256	8040.75	3.9060	3.9060	-0.8263	6.32	0.34	-0.750			
0.1282	8206.13	3.9030	3.9031	-0.8246	6.34	0.36	-0.750			
0.1307	8364.90	3.9000	3.9000	-0.8102	6.35	0.37	-0.750			
0.1331	8515.69	3.8970	3.8971	-0.8067	6.36	0.38	-0.750			
0.1354	8667.96	3.8940	3.8939	-0.8017	6.37	0.39	-0.750			
0.1378	8819.48	3.8910	3.8908	-0.8013	6.37	0.39	-0.750			
0.1402	8974.84	3.8880	3.8880	-0.8037	6.38	0.40	-0.750			
0.1427	9130.33	3.8850	3.8850	-0.8147	6.39	0.41	-0.750			
0.1451	9286.84	3.8820	3.8821	-0.8291	6.40	0.42	-0.750			
0.1476	9447.40	3.8790	3.8790	-0.8316	6.41	0.43	-0.750			
0.1501	9605.92	3.8760	3.8758	-0.8342	6.42	0.44	-0.750			
0.1526	9769.39	3.8730	3.8730	-0.8412	6.43	0.45	-0.750			
0.1552	9931.50	3.8700	3.8700	-0.8445	6.44	0.46	-0.750			
0.1577	10093.75	3.8670	3.8670	-0.8459	6.45	0.47	-0.750			
0.1602	10255.14	3.8640	3.8639	-0.8405	6.46	0.48	-0.750			
0.1627	10415.75	3.8610	3.8611	-0.8389	6.47	0.49	-0.750			
0.1653	10579.63	3.8580	3.8578	-0.8420	6.48	0.50	-0.750			
0.1678	10740.43	3.8550	3.8550	-0.8417	6.49	0.51	-0.750			
0.1703	10900.85	3.8520	3.8520	-0.8507	6.50	0.52	-0.750			
0.1729	11064.65	3.8490	3.8489	-0.8503	6.51	0.53	-0.750			
0.1754	11228.32	3.8460	3.8459	-0.8488	6.53	0.55	-0.750			
0.1780	11393.76	3.8430	3.8430	-0.8535	6.54	0.56	-0.750			
0.1806	11558.70	3.8400	3.8401	-0.8531	6.55	0.57	-0.750			
0.1832	11722.89	3.8370	3.8369	-0.8494	6.56	0.58	-0.750			
0.1857	11883.17	3.8340	3.8340	-0.8442	6.57	0.59	-0.750			
0.1882	12043.43	3.8310	3.8311	-0.8439	6.58	0.60	-0.750			
0.1907	12205.91	3.8280	3.8278	-0.8560	6.59	0.61	-0.750			
0.1933	12370.71	3.8250	3.8248	-0.8610	6.60	0.62	-0.750			
0.1959	12537.44	3.8220	3.8219	-0.8649	6.61	0.63	-0.750			
0.1985	12705.56	3.8190	3.8190	-0.8696	6.62	0.64	-0.750			
0.2011	12872.93	3.8160	3.8161	-0.8642	6.63	0.65	-0.750			
0.2038	13041.38	3.8130	3.8131	-0.8655	6.64	0.66	-0.750			
0.2064	13207.17	3.8100	3.8099	-0.8617	6.65	0.67	-0.750			
0.2089	13368.66	3.8070	3.8069	-0.8593	6.66	0.68	-0.750			
0.2115	13534.95	3.8040	3.8040	-0.8641	6.67	0.69	-0.750			
0.2141	13699.86	3.8010	3.8010	-0.8714	6.68	0.70	-0.750			
0.2167	13869.46	3.7980	3.7982	-0.8778	6.69	0.71	-0.750			
0.2194	14038.45	3.7950	3.7950	-0.8879	6.70	0.72	-0.750			
0.2220	14210.73	3.7920	3.7919	-0.8874	6.71	0.73	-0.750			
0.2247	14382.17	3.7890	3.7891	-0.8875	6.72	0.74	-0.750			
0.2274	14552.50	3.7860	3.7859	-0.8905	6.73	0.75	-0.750			
0.2301	14723.23	3.7830	3.7831	-0.8910	6.74	0.76	-0.750			
0.2327	14892.14	3.7800	3.7799	-0.8898	6.75	0.77	-0.750			
0.2354	15064.00	3.7770	3.7770	-0.8936	6.76	0.78	-0.750			
0.2381	15236.62	3.7740	3.7740	-0.8903	6.78	0.80	-0.750			
0.2408	15409.21	3.7710	3.7710	-0.8965	6.79	0.81	-0.750			
0.2434	15579.32	3.7680	3.7681	-0.8994	6.80	0.82	-0.750			
0.2461	15752.02	3.7650	3.7649	-0.8998	6.81	0.83	-0.750			
0.2488	15925.92	3.7620	3.7619	-0.8958	6.82	0.84	-0.750			
0.2515	16097.38	3.7590	3.7590	-0.8979	6.83	0.85	-0.750			
0.2542	16271.03	3.7560	3.7565	-0.9038	6.84	0.86	-0.750			
0.2569	16444.31	3.7530	3.7530	-0.9085	6.85	0.87	-0.750			
0.2596	16617.22	3.7500	3.7499	-0.9066	6.86	0.88	-0.750			
0.2624	16792.69	3.7470	3.7470	-0.9074	6.87	0.89	-0.750			
0.2651	16968.03	3.7440	3.7439	-0.9153	6.88	0.90	-0.750			
0.2679	17145.33	3.7410	3.7411	-0.9121	6.88	0.90	-0.750			
0.2706	17319.91	3.7380	3.7379	-0.9136	6.90	0.92	-0.750			
0.2734	17494.47	3.7350	3.7351	-0.9189	6.91	0.93	-0.750			
0.2761	17670.41	3.7320	3.7319	-0.9176	6.92	0.94	-0.750			
0.2789	17847.31	3.7290	3.7292	-0.9259	6.93	0.95	-0.750			
0.2816	18025.16	3.7260	3.7260	-0.9405	6.94	0.96	-0.750			
0.2845	18207.03	3.7230	3.7230	-0.9395	6.95	0.97	-0.750			
0.2874	18390.43	3.7200	3.7199	-0.9444	6.96	0.98	-0.750			
0.2902	18570.13	3.7170	3.7171	-0.9443	6.97	0.99	-0.750			
0.2930	18753.19	3.7140	3.7140	-0.9471	6.98	1.00	-0.750			
0.2959	18936.44	3.7110	3.7109	-0.9521	6.99	1.01	-0.750			
0.2987	19116.94	3.7080	3.7080	-0.9534	7.00	1.02	-0.750			
0.3016	19299.58	3.7050	3.7050	-0.9579	7.01	1.03	-0.750			
0.3045	19484.92	3.7020	3.7021	-0.9792	7.02	1.04	-0.750			
0.3074	19673.18	3.6990	3.6990	-0.9889	7.03	1.05	-0.750			
0.3104	19864.35	3.6960	3.6959	-0.9972	7.03	1.05	-0.750			
0.3134	20059.65	3.6930	3.6930	-0.9948	7.04	1.06	-0.750			
0.3165	20254.15	3.6900	3.6902	-0.9943	7.05	1.07	-0.750			
0.3194	20442.54	3.6870	3.6871	-0.9956	7.06	1.08	-0.750			
0.3224	20631.98	3.6840	3.6839	-0.9941	7.07	1.09	-0.750			
0.3253	20820.04	3.6810	3.6809	-0.9933	7.08	1.10	-0.750			
0.3283	21009.34	3.6780	3.6780	-1.0059	7.09	1.11	-0.750			
0.3313	21205.14	3.6750	3.6750	-1.0220	7.10	1.12	-0.750			
0.3344	21404.17	3.6720	3.6719	-1.0345	7.11	1.13	-0.750			
0.3375	21602.73	3.6690	3.6690	-1.0485	7.12	1.14	-0.750			
0.3407	21804.10	3.6660	3.6661	-1.0598	7.13	1.15	-0.750			
0.3439	22012.69	3.6630	3.6629	-1.0728	7.14	1.16	-0.750			
0.3472	22219.76	3.6600	3.6599	-1.0847	7.14	1.16	-0.750			
0.3504	22427.93	3.6570	3.6571	-1.0873	7.15	1.17	-0.750			
0.3537	22638.54	3.6540	3.6542	-1.0954	7.16	1.18	-0.750			
0.3570	22849.84	3.6510	3.6509	-1.1100	7.17	1.19	-0.750			
0.3604	23063.80	3.6480	3.6480	-1.1096	7.17	1.19	-0.750			
0.3637	23275.78	3.6450	3.6450	-1.1187	7.18	1.20	-0.750			
0.3670	23490.31	3.6420	3.6421	-1.1333	7.19	1.21	-0.750			
0.3705	23709.77	3.6390	3.6389	-1.1410	7.20	1.22	-0.750			
0.3739	23930.80	3.6360	3.6359	-1.1551	7.21	1.23	-0.750			
0.3774	24153.25	3.6330	3.6330	-1.1664	7.22	1.24	-0.750			
0.3809	24378.32	3.6300	3.6299	-1.1831	7.22	1.24	-0.750			
0.3845	24609.59	3.6270	3.6270	-1.1987	7.22	1.24	-0.750			
0.3881	24838.77	3.6240	3.6240	-1.2075	7.23	1.25	-0.750			
0.3917	25071.50	3.6210	3.6212	-1.2235	7.23	1.25	-0.750			
0.3955	25309.99	3.6180	3.6180	-1.2442	7.24	1.26	-0.750			
0.3992	25550.01	3.6150	3.6149	-1.2584	7.25	1.27	-0.750			
0.4030	25791.46	3.6120	3.6120	-1.2804	7.27	1.29	-0.750			
0.4069	26042.56	3.6090	3.6089	-1.2910	7.27	1.29	-0.750			
0.4108	26292.73	3.6060	3.6062	-1.2935	7.28	1.30	-0.750	0.398	0.971	
0.4147	26539.51	3.6030	3.6030	-1.3040	7.29	1.31	-0.750			
0.4186	26789.22	3.6000	3.6000	-1.3148	7.29	1.31	-0.750			
0.4225	27041.66	3.5970	3.5969	-1.3287	7.30	1.32	-0.750			
0.4265	27296.26	3.5940	3.5938	-1.3585	7.31	1.33	-0.750			
0.4306	27557.92	3.5910	3.5911	-1.3802	7.31	1.33	-0.750			
0.4349	27831.72	3.5880	3.5879	-1.4056	7.32	1.34	-0.750			
0.4392	28108.14	3.5850	3.5849	-1.4167	7.33	1.35	-0.750			
0.4434	28378.62	3.5820	3.5822	-1.4072	7.33	1.35	-0.750			
0.4477	28650.87	3.5790	3.5790	-1.4177	7.34	1.36	-0.750			
0.4518	28916.94	3.5760	3.5759	-1.4405	7.35	1.37	-0.750			
0.4560	29187.04	3.5730	3.5727	-1.4651	7.35	1.37	-0.750			
0.4606	29475.61	3.5700	3.5700	-1.4960	7.36	1.38	-0.750			
0.4652	29770.01	3.5670	3.5669	-1.5436	7.37	1.39	-0.750			
0.4700	30079.02	3.5640	3.5639	-1.5487	7.37	1.39	-0.750			
0.4747	30382.30	3.5610	3.5607	-1.5534	7.38	1.40	-0.750			
0.4793	30674.90	3.5580	3.5581	-1.5634	7.38	1.40	-0.750			
0.4839	30970.05	3.5550	3.5552	-1.5659	7.40	1.42	-0.750			
0.4886	31270.95	3.5520	3.5517	-1.5742	7.41	1.43	-0.750			
0.4934	31578.71	3.5490	3.5491	-1.5893	7.42	1.44	-0.750			
0.4982	31882.63	3.5460	3.5461	-1.5859	7.43	1.45	-0.750			
0.5030	32192.04	3.5430	3.5429	-1.6127	7.43	1.45	-0.750			
0.5078	32497.42	3.5400	3.5402	-1.6274	7.44	1.46	-0.750			
0.5126	32809.08	3.5370	3.5368	-1.6326	7.44	1.46	-0.750			
0.5176	33126.38	3.5340	3.5340	-1.6623	7.45	1.47	-0.750			
0.5227	33451.25	3.5310	3.5308	-1.6686	7.46	1.48	-0.750			
0.5277	33773.19	3.5280	3.5281	-1.7069	7.47	1.49	-0.750			
0.5329	34104.89	3.5250	3.5249	-1.7119	7.48	1.50	-0.750			
0.5380	34430.48	3.5220	3.5218	-1.7080	7.48	1.50	-0.750			
0.5432	34762.38	3.5190	3.5190	-1.6963	7.49	1.51	-0.750			
0.5483	35091.78	3.5160	3.5163	-1.6978	7.50	1.52	-0.750			
0.5534	35417.31	3.5130	3.5131	-1.6951	7.50	1.52	-0.750			
0.5585	35740.86	3.5100	3.5099	-1.6790	7.51	1.53	-0.750			
0.5634	36057.78	3.5070	3.5069	-1.6615	7.52	1.54	-0.750			
0.5684	36376.18	3.5040	3.5040	-1.6808	7.53	1.55	-0.750			
0.5734	36700.74	3.5010	3.5012	-1.6810	7.54	1.56	-0.750			
0.5785	37026.79	3.4980	3.4978	-1.6994	7.55	1.57	-0.750			
0.5836	37352.58	3.4950	3.4949	-1.6783	7.56	1.58	-0.750			
0.5887	37677.35	3.4920	3.4921	-1.6833	7.57	1.59	-0.750			
0.5938	38003.30	3.4890	3.4889	-1.6821	7.57	1.59	-0.750			
0.5989	38326.64	3.4860	3.4860	-1.6589	7.58	1.60	-0.750			
0.6037	38637.62	3.4830	3.4832	-1.6586	7.59	1.61	-0.750			
0.6087	38957.40	3.4800	3.4800	-1.6428	7.60	1.62	-0.750			
0.6137	39275.95	3.4770	3.4768	-1.6169	7.61	1.63	-0.750			
0.6186	39588.03	3.4740	3.4741	-1.5905	7.61	1.63	-0.750			
0.6232	39886.40	3.4710	3.4714	-1.5736	7.63	1.65	-0.750			
0.6279	40188.28	3.4680	3.4678	-1.5506	7.64	1.66	-0.750			
0.6325	40480.80	3.4650	3.4649	-1.5287	7.65	1.67	-0.750			
0.6371	40773.19	3.4620	3.4621	-1.5145	7.65	1.67	-0.750			
0.6417	41069.77	3.4590	3.4591	-1.5178	7.66	1.68	-0.750			
0.6463	41360.40	3.4560	3.4562	-1.4886	7.67	1.69	-0.750			
0.6508	41648.36	3.4530	3.4528	-1.4593	7.68	1.70	-0.750			
0.6551	41923.56	3.4500	3.4501	-1.4373	7.69	1.71	-0.750			
0.6594	42201.03	3.4470	3.4469	-1.4126	7.70	1.72	-0.750			
0.6635	42462.95	3.4440	3.4439	-1.3936	7.70	1.72	-0.750			
0.6677	42733.80	3.4410	3.4412	-1.3704	7.71	1.73	-0.750			
0.6718	42997.70	3.4380	3.4378	-1.3408	7.73	1.75	-0.750			
0.6758	43253.59	3.4350	3.4351	-1.2985	7.74	1.76	-0.750			
0.6796	43495.62	3.4320	3.4322	-1.2515	7.75	1.77	-0.750			
0.6834	43735.58	3.4290	3.4290	-1.2359	7.76	1.78	-0.750			
0.6870	43965.54	3.4260	3.4260	-1.2064	7.77	1.79	-0.750			
0.6905	44192.13	3.4230	3.4229	-1.1774	7.78	1.80	-0.750			
0.6941	44422.15	3.4200	3.4198	-1.1665	7.79	1.81	-0.750			
0.6976	44644.39	3.4170	3.4172	-1.1394	7.80	1.82	-0.750			
0.7010	44864.73	3.4140	3.4139	-1.1110	7.81	1.83	-0.750			
0.7043	45073.26	3.4110	3.4110	-1.0682	7.82	1.84	-0.750			
0.7074	45274.49	3.4080	3.4080	-1.0282	7.83	1.85	-0.750			
0.7104	45467.74	3.4050	3.4051	-0.9960	7.85	1.87	-0.750			
0.7134	45656.63	3.4020	3.4019	-0.9658	7.86	1.88	-0.750			
0.7162	45837.92	3.3990	3.3990	-0.9347	7.87	1.89	-0.750			
0.7189	46012.63	3.3960	3.3959	-0.9083	7.88	1.90	-0.750			
0.7217	46185.80	3.3930	3.3929	-0.8844	7.89	1.91	-0.750			
0.7243	46354.39	3.3900	3.3900	-0.8537	7.89	1.91	-0.750			
0.7268	46514.90	3.3870	3.3870	-0.8238	7.90	1.92	-0.750			
0.7292	46671.73	3.3840	3.3842	-0.7965	7.91	1.93	-0.750			
0.7316	46822.34	3.3810	3.3810	-0.7668	7.92	1.94	-0.750			
0.7338	46964.85	3.3780	3.3779	-0.7379	7.93	1.95	-0.750			
0.7360	47103.34	3.3750	3.3750	-0.7102	7.94	1.96	-0.750			
0.7381	47236.54	3.3720	3.3720	-0.6865	7.95	1.97	-0.750			
0.7401	47365.53	3.3690	3.3690	-0.6646	7.95	1.97	-0.750			
0.7420	47489.78	3.3660	3.3661	-0.6444	7.96	1.98	-0.750			
0.7439	47611.26	3.3630	3.3628	-0.6298	7.97	1.99	-0.750			
0.7458	47731.14	3.3600	3.3600	-0.6123	7.98	2.00	-0.750			
0.7476	47846.95	3.3570	3.3569	-0.5970	7.99	2.01	-0.750			
0.7494	47961.76	3.3540	3.3541	-0.5828	8.00	2.02	-0.750			
0.7511	48073.03	3.3510	3.3510	-0.5609	8.01	2.03	-0.750			
0.7528	48178.21	3.3480	3.3479	-0.5410	8.02	2.04	-0.750			
0.7544	48279.83	3.3450	3.3451	-0.5206	8.03	2.05	-0.750			
0.7559	48376.69	3.3420	3.3420	-0.5000	8.04	2.06	-0.750			
0.7574	48470.41	3.3390	3.3389	-0.4858	8.05	2.07	-0.750			
0.7588	48560.85	3.3360	3.3360	-0.4682	8.06	2.08	-0.750			
0.7601	48649.45	3.3330	3.3330	-0.4593	8.06	2.08	-0.750			
0.7615	48737.08	3.3300	3.3300	-0.4465	8.07	2.09	-0.750			
0.7628	48821.37	3.3270	3.3270	-0.4331	8.08	2.10	-0.750			
0.7641	48904.07	3.3240	3.3241	-0.4219	8.09	2.11	-0.750			
0.7654	48983.85	3.3210	3.3210	-0.4099	8.09	2.11	-0.750			
0.7666	49061.20	3.3180	3.3180	-0.3959	8.10	2.12	-0.750			
0.7677	49135.79	3.3150	3.3150	-0.3837	8.11	2.13	-0.750			
0.7689	49207.23	3.3120	3.3121	-0.3711	8.12	2.14	-0.750			
0.7700	49277.73	3.3090	3.3090	-0.3643	8.12	2.14	-0.750			
0.7710	49346.41	3.3060	3.3059	-0.3540	8.13	2.15	-0.750			
0.7721	49413.42	3.3030	3.3030	-0.3449	8.14	2.16	-0.750			
0.7731	49479.08	3.3000	3.3001	-0.3354	8.15	2.17	-0.750			
0.7741	49543.17	3.2970	3.2970	-0.3295	8.15	2.17	-0.750			
0.7751	49605.52	3.2940	3.2940	-0.3208	8.16	2.18	-0.750			
0.7760	49665.20	3.2910	3.2909	-0.3138	8.17	2.19	-0.750			
0.7769	49724.40	3.2880	3.2881	-0.3083	8.17	2.19	-0.750			
0.7779	49783.30	3.2850	3.2850	-0.3037	8.18	2.20	-0.750			
0.7788	49841.57	3.2820	3.2819	-0.2954	8.19	2.21	-0.750			
0.7797	49898.60	3.2790	3.2790	-0.2886	8.19	2.21	-0.750			
0.7805	49952.77	3.2760	3.2761	-0.2793	8.20	2.22	-0.750			
0.7813	50005.92	3.2730	3.2729	-0.2713	8.21	2.23	-0.750			
0.7821	50056.61	3.2700	3.2700	-0.2632	8.21	2.23	-0.750			
0.7829	50105.96	3.2670	3.2670	-0.2568	8.22	2.24	-0.750			
0.7837	50154.25	3.2640	3.2640	-0.2525	8.23	2.25	-0.750			
0.7844	50202.53	3.2610	3.2610	-0.2485	8.23	2.25	-0.750			
0.7851	50249.51	3.2580	3.2579	-0.2440	8.24	2.26	-0.750			
0.7859	50296.07	3.2550	3.2549	-0.2405	8.24	2.26	-0.750			
0.7866	50342.29	3.2520	3.2521	-0.2360	8.25	2.27	-0.750			
0.7873	50387.36	3.2490	3.2490	-0.2315	8.26	2.28	-0.750			
0.7880	50431.29	3.2460	3.2460	-0.2261	8.26	2.28	-0.750			
0.7887	50474.23	3.2430	3.2430	-0.2218	8.27	2.29	-0.750			
0.7893	50515.87	3.2400	3.2400	-0.2170	8.27	2.29	-0.750			
0.7900	50557.49	3.2370	3.2369	-0.2126	8.28	2.30	-0.750			
0.7906	50597.84	3.2340	3.2340	-0.2078	8.28	2.30	-0.750			
0.7912	50637.00	3.2310	3.2310	-0.2041	8.29	2.31	-0.750			
0.7918	50675.97	3.2280	3.2281	-0.2007	8.29	2.31	-0.750			
0.7924	50714.05	3.2250	3.2249	-0.1967	8.30	2.32	-0.750			
0.7930	50751.46	3.2220	3.2219	-0.1929	8.30	2.32	-0.750			
0.7936	50787.76	3.2190	3.2191	-0.1900	8.31	2.33	-0.750			
0.7941	50823.87	3.2160	3.2160	-0.1872	8.32	2.34	-0.750			
0.7947	50859.86	3.2130	3.2129	-0.1850	8.32	2.34	-0.750			
0.7952	50895.08	3.2100	3.2100	-0.1819	8.33	2.35	-0.750			
0.7958	50929.52	3.2070	3.2071	-0.1785	8.33	2.35	-0.750			
0.7963	50963.63	3.2040	3.2040	-0.1760	8.34	2.36	-0.750			
0.7968	50997.47	3.2010	3.2010	-0.1726	8.34	2.36	-0.750			
0.7973	51030.24	3.1980	3.1980	-0.1687	8.35	2.37	-0.750			
0.7978	51061.97	3.1950	3.1950	-0.1665	8.35	2.37	-0.750			
0.7983	51093.61	3.1920	3.1920	-0.1635	8.36	2.38	-0.750			
0.7988	51124.91	3.1890	3.1888	-0.1605	8.36	2.38	-0.750			
0.7993	51155.44	3.1860	3.1859	-0.1575	8.37	2.39	-0.750			
0.7998	51185.35	3.1830	3.1831	-0.1551	8.37	2.39	-0.750			
0.8002	51214.73	3.1800	3.1801	-0.1526	8.38	2.40	-0.750			
0.8007	51243.95	3.1770	3.1768	-0.1507	8.38	2.40	-0.750			
0.8011	51272.64	3.1740	3.1740	-0.1481	8.39	2.41	-0.750			
0.8016	51300.23	3.1710	3.1710	-0.1462	8.39	2.41	-0.750			
0.8020	51328.35	3.1680	3.1680	-0.1447	8.40	2.42	-0.750			
0.8024	51356.14	3.1650	3.1650	-0.1434	8.40	2.42	-0.750			
0.8029	51383.52	3.1620	3.1620	-0.1412	8.41	2.43	-0.750			
0.8033	51410.31	3.1590	3.1591	-0.1392	8.41	2.43	-0.750			
0.8037	51436.99	3.1560	3.1560	-0.1374	8.42	2.44	-0.750			
0.8041	51463.18	3.1530	3.1531	-0.1356	8.42	2.44	-0.750			
0.8045	51488.92	3.1500	3.1500	-0.1339	8.42	2.44	-0.750			
0.8049	51514.22	3.1470	3.1471	-0.1319	8.43	2.45	-0.750			
0.8053	51539.37	3.1440	3.1440	-0.1308	8.43	2.45	-0.750			
0.8057	51564.38	3.1410	3.1410	-0.1297	8.44	2.46	-0.750			
0.8061	51589.18	3.1380	3.1381	-0.1285	8.44	2.46	-0.750			
0.8065	51613.64	3.1350	3.1349	-0.1272	8.45	2.47	-0.750			
0.8068	51638.10	3.1320	3.1321	-0.1253	8.45	2.47	-0.750			
0.8072	51662.19	3.1290	3.1289	-0.1238	8.46	2.48	-0.750			
0.8076	51685.88	3.1260	3.1261	-0.1222	8.46	2.48	-0.750			
0.8080	51709.15	3.1230	3.1230	-0.1202	8.47	2.49	-0.750			
0.8083	51731.79	3.1200	3.1200	-0.1188	8.47	2.49	-0.750			
0.8087	51754.48	3.1170	3.1170	-0.1175	8.48	2.50	-0.750			
0.8090	51776.84	3.1140	3.1139	-0.1157	8.48	2.50	-0.750			
0.8094	51798.94	3.1110	3.1110	-0.1145	8.48	2.50	-0.750			
0.8097	51820.75	3.1080	3.1082	-0.1138	8.49	2.51	-0.750			
0.8100	51842.50	3.1050	3.1049	-0.1128	8.49	2.51	-0.750			
0.8104	51864.20	3.1020	3.1019	-0.1112	8.50	2.52	-0.750			
0.8107	51885.43	3.0990	3.0989	-0.1098	8.50	2.52	-0.750			
0.8110	51906.15	3.0960	3.0961	-0.1089	8.50	2.52	-0.750			
0.8114	51926.99	3.0930	3.0931	-0.1081	8.51	2.53	-0.750			
0.8117	51947.91	3.0900	3.0899	-0.1069	8.51	2.53	-0.750			
0.8120	51968.30	3.0870	3.0869	-0.1055	8.52	2.54	-0.750			
0.8123	51988.21	3.0840	3.0841	-0.1041	8.52	2.54	-0.750			
0.8126	52008.09	3.0810	3.0811	-0.1031	8.52	2.54	-0.750			
0.8129	52027.96	3.0780	3.0779	-0.1024	8.53	2.55	-0.750			
0.8132	52047.49	3.0750	3.0749	-0.1011	8.53	2.55	-0.750			
0.8135	52066.45	3.0720	3.0721	-0.0997	8.54	2.56	-0.750			
0.8138	52085.54	3.0690	3.0690	-0.0992	8.54	2.56	-0.750			
0.8141	52104.61	3.0660	3.0660	-0.0987	8.54	2.56	-0.750			
0.8144	52123.50	3.0630	3.0630	-0.0980	8.55	2.57	-0.750			
0.8147	52142.35	3.0600	3.0600	-0.0967	8.55	2.57	-0.750			
0.8150	52160.81	3.0570	3.0570	-0.0956	8.56	2.58	-0.750			
0.8153	52179.06	3.0540	3.0542	-0.0949	8.56	2.58	-0.750			
0.8156	52197.18	3.0510	3.0510	-0.0939	8.57	2.59	-0.750			
0.8159	52215.10	3.0480	3.0479	-0.0927	8.57	2.59	-0.750			
0.8161	52232.79	3.0450	3.0449	-0.0916	8.57	2.59	-0.750			
0.8164	52250.03	3.0420	3.0420	-0.0907	8.58	2.60	-0.750			
0.8167	52267.39	3.0390	3.0390	-0.0901	8.58	2.60	-0.750			
0.8169	52284.65	3.0360	3.0361	-0.0898	8.58	2.60	-0.750			
0.8172	52301.83	3.0330	3.0329	-0.0892	8.59	2.61	-0.750			
0.8175	52318.93	3.0300	3.0300	-0.0885	8.59	2.61	-0.750			
0.8177	52335.74	3.0270	3.0269	-0.0878	8.60	2.62	-0.750			
0.8180	52352.67	3.0240	3.0239	-0.0870	8.60	2.62	-0.750			
0.8183	52369.54	3.0210	3.0211	-0.0865	8.60	2.62	-0.750			
0.8185	52386.04	3.0180	3.0179	-0.0855	8.61	2.63	-0.750			
0.8188	52402.36	3.0150	3.0150	-0.0845	8.61	2.63	-0.750			
0.8190	52418.49	3.0120	3.0121	-0.0835	8.61	2.63	-0.750			
0.8193	52434.40	3.0090	3.0090	-0.0825	8.62	2.64	-0.750			
0.8195	52450.16	3.0060	3.0060	-0.0816	8.62	2.64	-0.750			
0.8198	52465.74	3.0030	3.0030	-0.0808	8.62	2.64	-0.750			
