Ah_balance (normalized)	Ah_balance (mAh)	Voltage - fit (V)	Voltage -  interpolate (V)	dQ/dV (1/V)	Temperature (°C)	Temperature - diff (°C)	Current (C)	R_DC 0ms (mOhm)	R_DC 50ms (mOhm)	R_DC 50 ms PEC (mOhm)
0.0000	0.00	4.0970	4.1261	0.0000	5.99	-0.00	-0.751			
0.0000	0.00	4.1000	4.1261	0.0000	5.99	-0.00	-0.751			
0.0002	11.26	4.0940	4.0937	-0.0398	5.99	-0.00	-0.750			
0.0004	22.96	4.0910	4.0905	-0.0696	5.99	-0.00	-0.750			
0.0006	40.55	4.0880	4.0876	-0.0963	5.99	-0.00	-0.750			
0.0010	61.61	4.0850	4.0849	-0.1230	5.99	-0.00	-0.750			
0.0014	87.69	4.0820	4.0821	-0.1508	5.99	-0.00	-0.750			
0.0019	119.28	4.0790	4.0792	-0.1764	5.99	-0.00	-0.750			
0.0025	157.22	4.0760	4.0759	-0.2007	5.99	-0.00	-0.750			
0.0031	198.12	4.0730	4.0728	-0.2222	5.99	-0.00	-0.750			
0.0038	243.03	4.0700	4.0702	-0.2440	5.99	0.00	-0.750			
0.0046	291.86	4.0670	4.0670	-0.2658	5.99	0.00	-0.750			
0.0054	344.60	4.0640	4.0640	-0.2886	5.99	0.00	-0.750			
0.0063	402.04	4.0610	4.0609	-0.3099	5.99	0.00	-0.750			
0.0072	463.83	4.0580	4.0579	-0.3339	5.99	0.00	-0.750			
0.0083	530.33	4.0550	4.0550	-0.3588	5.99	0.00	-0.750			
0.0094	602.05	4.0520	4.0521	-0.3784	5.99	0.00	-0.750			
0.0106	677.32	4.0490	4.0488	-0.4002	6.00	0.01	-0.750			
0.0118	755.68	4.0460	4.0461	-0.4228	6.00	0.01	-0.750			
0.0131	838.12	4.0430	4.0429	-0.4426	6.00	0.01	-0.750			
0.0145	925.14	4.0400	4.0400	-0.4649	6.00	0.01	-0.750			
0.0159	1017.33	4.0370	4.0370	-0.4897	6.00	0.01	-0.750			
0.0174	1113.61	4.0340	4.0340	-0.5062	6.00	0.01	-0.750			
0.0190	1213.73	4.0310	4.0309	-0.5250	6.00	0.01	-0.750			
0.0206	1316.69	4.0280	4.0281	-0.5409	6.01	0.02	-0.750			
0.0222	1421.55	4.0250	4.0249	-0.5584	6.01	0.02	-0.750			
0.0239	1531.57	4.0220	4.0219	-0.5724	6.01	0.02	-0.750			
0.0257	1642.13	4.0190	4.0191	-0.5882	6.02	0.03	-0.750			
0.0274	1755.98	4.0160	4.0160	-0.6023	6.02	0.03	-0.750			
0.0293	1874.01	4.0130	4.0131	-0.6185	6.02	0.03	-0.750			
0.0311	1993.55	4.0100	4.0099	-0.6320	6.03	0.04	-0.750			
0.0331	2116.73	4.0070	4.0070	-0.6431	6.03	0.04	-0.750			
0.0350	2241.93	4.0040	4.0041	-0.6578	6.04	0.05	-0.750			
0.0371	2372.42	4.0010	4.0010	-0.6631	6.05	0.06	-0.750			
0.0391	2501.63	3.9980	3.9980	-0.6644	6.05	0.06	-0.750			
0.0411	2629.26	3.9950	3.9953	-0.6697	6.06	0.07	-0.750			
0.0431	2756.62	3.9920	3.9920	-0.6723	6.07	0.08	-0.750			
0.0451	2884.32	3.9890	3.9889	-0.6786	6.07	0.08	-0.750			
0.0471	3014.28	3.9860	3.9860	-0.6840	6.08	0.09	-0.750			
0.0492	3147.45	3.9830	3.9830	-0.6951	6.09	0.10	-0.750			
0.0513	3282.28	3.9800	3.9800	-0.7069	6.09	0.10	-0.750			
0.0534	3419.68	3.9770	3.9771	-0.7121	6.10	0.11	-0.750			
0.0556	3556.65	3.9740	3.9739	-0.7136	6.11	0.12	-0.750			
0.0577	3694.86	3.9710	3.9710	-0.7159	6.12	0.13	-0.750			
0.0599	3833.00	3.9680	3.9680	-0.7213	6.13	0.14	-0.750			
0.0621	3971.66	3.9650	3.9650	-0.7244	6.13	0.14	-0.750			
0.0642	4110.87	3.9620	3.9619	-0.7217	6.14	0.15	-0.750			
0.0664	4249.10	3.9590	3.9591	-0.7200	6.15	0.16	-0.750			
0.0686	4387.97	3.9560	3.9559	-0.7238	6.16	0.17	-0.750			
0.0707	4525.55	3.9530	3.9531	-0.7311	6.17	0.18	-0.750			
0.0729	4667.38	3.9500	3.9499	-0.7285	6.18	0.19	-0.750			
0.0751	4807.67	3.9470	3.9469	-0.7340	6.19	0.20	-0.750			
0.0773	4949.03	3.9440	3.9440	-0.7376	6.20	0.21	-0.750			
0.0795	5091.00	3.9410	3.9410	-0.7447	6.20	0.21	-0.750			
0.0818	5233.88	3.9380	3.9378	-0.7466	6.21	0.22	-0.750			
0.0840	5376.75	3.9350	3.9351	-0.7503	6.22	0.23	-0.750			
0.0863	5521.51	3.9320	3.9319	-0.7536	6.23	0.24	-0.750			
0.0886	5668.77	3.9290	3.9290	-0.7573	6.24	0.25	-0.750			
0.0908	5813.36	3.9260	3.9262	-0.7573	6.25	0.26	-0.750			
0.0931	5958.72	3.9230	3.9230	-0.7578	6.26	0.27	-0.750			
0.0954	6104.51	3.9200	3.9199	-0.7544	6.27	0.28	-0.750			
0.0977	6250.54	3.9170	3.9170	-0.7589	6.28	0.29	-0.750			
0.0999	6396.02	3.9140	3.9139	-0.7563	6.29	0.30	-0.750			
0.1022	6542.52	3.9110	3.9109	-0.7586	6.29	0.30	-0.750			
0.1045	6687.31	3.9080	3.9080	-0.7605	6.30	0.31	-0.750			
0.1068	6832.16	3.9050	3.9050	-0.7585	6.32	0.33	-0.750			
0.1090	6978.13	3.9020	3.9018	-0.7660	6.33	0.34	-0.750			
0.1113	7124.52	3.8990	3.8991	-0.7655	6.34	0.35	-0.750			
0.1137	7275.39	3.8960	3.8960	-0.7721	6.35	0.36	-0.750			
0.1160	7424.26	3.8930	3.8932	-0.7764	6.36	0.37	-0.750			
0.1183	7572.63	3.8900	3.8900	-0.7783	6.37	0.38	-0.750			
0.1206	7720.61	3.8870	3.8870	-0.7786	6.38	0.39	-0.750			
0.1230	7871.28	3.8840	3.8839	-0.7829	6.39	0.40	-0.750			
0.1254	8023.39	3.8810	3.8809	-0.7805	6.40	0.41	-0.750			
0.1277	8173.46	3.8780	3.8780	-0.7783	6.41	0.42	-0.750			
0.1301	8323.31	3.8750	3.8750	-0.7784	6.42	0.43	-0.750			
0.1323	8469.71	3.8720	3.8720	-0.7750	6.43	0.44	-0.750			
0.1346	8615.77	3.8690	3.8689	-0.7744	6.44	0.45	-0.750			
0.1370	8765.27	3.8660	3.8660	-0.7811	6.46	0.47	-0.750			
0.1393	8916.02	3.8630	3.8630	-0.7891	6.47	0.48	-0.750			
0.1417	9070.42	3.8600	3.8600	-0.7922	6.48	0.49	-0.750			
0.1441	9224.03	3.8570	3.8571	-0.7938	6.49	0.50	-0.750			
0.1465	9377.46	3.8540	3.8540	-0.7978	6.50	0.51	-0.750			
0.1489	9530.15	3.8510	3.8510	-0.7957	6.51	0.52	-0.750			
0.1513	9684.23	3.8480	3.8479	-0.7928	6.52	0.53	-0.750			
0.1537	9835.24	3.8450	3.8453	-0.7877	6.53	0.54	-0.750			
0.1560	9986.79	3.8420	3.8420	-0.7855	6.54	0.55	-0.750			
0.1584	10136.81	3.8390	3.8390	-0.7855	6.55	0.56	-0.750			
0.1607	10284.74	3.8360	3.8360	-0.7844	6.56	0.57	-0.750			
0.1631	10436.29	3.8330	3.8330	-0.7935	6.57	0.58	-0.750			
0.1654	10588.41	3.8300	3.8300	-0.7931	6.58	0.59	-0.750			
0.1679	10743.32	3.8270	3.8270	-0.8003	6.59	0.60	-0.750			
0.1703	10896.63	3.8240	3.8241	-0.8039	6.60	0.61	-0.750			
0.1727	11052.25	3.8210	3.8210	-0.8024	6.61	0.62	-0.750			
0.1751	11206.24	3.8180	3.8180	-0.8002	6.62	0.63	-0.750			
0.1775	11357.80	3.8150	3.8150	-0.8034	6.63	0.64	-0.750			
0.1799	11511.80	3.8120	3.8119	-0.8104	6.64	0.65	-0.750			
0.1823	11669.01	3.8090	3.8089	-0.8145	6.65	0.66	-0.750			
0.1848	11825.73	3.8060	3.8060	-0.8107	6.66	0.67	-0.750			
0.1872	11983.55	3.8030	3.8031	-0.8086	6.67	0.68	-0.750			
0.1897	12139.94	3.8000	3.8001	-0.8076	6.68	0.69	-0.750			
0.1921	12293.76	3.7970	3.7968	-0.8012	6.69	0.70	-0.750			
0.1944	12443.10	3.7940	3.7942	-0.8106	6.70	0.71	-0.750			
0.1969	12598.90	3.7910	3.7909	-0.8124	6.71	0.72	-0.750			
0.1993	12758.06	3.7880	3.7878	-0.8232	6.72	0.73	-0.750			
0.2019	12918.69	3.7850	3.7850	-0.8238	6.73	0.74	-0.750			
0.2043	13078.38	3.7820	3.7822	-0.8265	6.74	0.75	-0.750			
0.2068	13236.17	3.7790	3.7788	-0.8206	6.75	0.76	-0.750			
0.2093	13392.01	3.7760	3.7760	-0.8126	6.76	0.77	-0.750			
0.2116	13542.80	3.7730	3.7730	-0.8086	6.77	0.78	-0.750			
0.2140	13699.04	3.7700	3.7700	-0.8208	6.77	0.78	-0.750			
0.2165	13858.28	3.7670	3.7670	-0.8247	6.78	0.79	-0.750			
0.2190	14017.68	3.7640	3.7638	-0.8308	6.79	0.80	-0.750			
0.2216	14179.36	3.7610	3.7611	-0.8379	6.80	0.81	-0.750			
0.2241	14343.01	3.7580	3.7580	-0.8359	6.81	0.82	-0.750			
0.2266	14503.13	3.7550	3.7549	-0.8394	6.82	0.83	-0.750			
0.2291	14664.38	3.7520	3.7521	-0.8296	6.83	0.84	-0.750			
0.2316	14821.32	3.7490	3.7490	-0.8250	6.84	0.85	-0.750			
0.2341	14979.46	3.7460	3.7461	-0.8336	6.85	0.86	-0.750			
0.2366	15139.48	3.7430	3.7428	-0.8299	6.86	0.87	-0.750			
0.2391	15300.26	3.7400	3.7399	-0.8353	6.87	0.88	-0.750			
0.2416	15459.90	3.7370	3.7372	-0.8368	6.88	0.89	-0.750			
0.2440	15619.09	3.7340	3.7340	-0.8392	6.89	0.90	-0.750			
0.2466	15783.70	3.7310	3.7309	-0.8489	6.90	0.91	-0.750			
0.2491	15943.75	3.7280	3.7278	-0.8509	6.91	0.92	-0.750			
0.2517	16109.20	3.7250	3.7251	-0.8632	6.91	0.92	-0.750			
0.2543	16277.25	3.7220	3.7220	-0.8674	6.92	0.93	-0.750			
0.2569	16444.24	3.7190	3.7189	-0.8749	6.93	0.94	-0.750			
0.2596	16612.79	3.7160	3.7161	-0.8832	6.94	0.95	-0.750			
0.2622	16781.68	3.7130	3.7129	-0.8831	6.95	0.96	-0.750			
0.2649	16954.00	3.7100	3.7099	-0.8901	6.97	0.98	-0.750			
0.2676	17124.40	3.7070	3.7071	-0.8870	6.97	0.98	-0.750			
0.2702	17294.36	3.7040	3.7040	-0.8967	6.98	0.99	-0.750			
0.2730	17470.72	3.7010	3.7010	-0.8967	6.99	1.00	-0.750			
0.2756	17640.00	3.6980	3.6979	-0.8931	7.00	1.01	-0.750			
0.2783	17811.10	3.6950	3.6953	-0.8963	7.01	1.02	-0.750			
0.2810	17983.72	3.6920	3.6920	-0.9035	7.02	1.03	-0.750			
0.2837	18156.66	3.6890	3.6889	-0.9076	7.03	1.04	-0.750			
0.2864	18329.92	3.6860	3.6860	-0.9147	7.04	1.05	-0.750			
0.2892	18506.53	3.6830	3.6831	-0.9308	7.04	1.05	-0.750			
0.2920	18688.41	3.6800	3.6801	-0.9417	7.05	1.06	-0.750			
0.2948	18870.14	3.6770	3.6768	-0.9489	7.06	1.07	-0.750			
0.2977	19055.20	3.6740	3.6740	-0.9557	7.07	1.08	-0.750			
0.3006	19238.87	3.6710	3.6710	-0.9566	7.08	1.09	-0.750			
0.3035	19422.79	3.6680	3.6682	-0.9585	7.09	1.10	-0.750			
0.3063	19605.62	3.6650	3.6650	-0.9642	7.10	1.11	-0.750			
0.3092	19790.76	3.6620	3.6619	-0.9686	7.10	1.11	-0.750			
0.3122	19978.55	3.6590	3.6589	-0.9693	7.11	1.12	-0.750			
0.3151	20165.85	3.6560	3.6560	-0.9776	7.12	1.13	-0.750			
0.3180	20352.41	3.6530	3.6531	-0.9804	7.13	1.14	-0.750			
0.3210	20540.85	3.6500	3.6500	-0.9883	7.14	1.15	-0.750			
0.3239	20730.73	3.6470	3.6469	-0.9924	7.15	1.16	-0.750			
0.3269	20919.41	3.6440	3.6439	-0.9970	7.15	1.16	-0.750			
0.3299	21112.30	3.6410	3.6411	-1.0204	7.16	1.17	-0.750			
0.3330	21310.80	3.6380	3.6380	-1.0370	7.17	1.18	-0.750			
0.3361	21510.75	3.6350	3.6349	-1.0499	7.18	1.19	-0.750			
0.3393	21715.15	3.6320	3.6319	-1.0543	7.19	1.20	-0.750			
0.3425	21921.56	3.6290	3.6291	-1.0685	7.19	1.20	-0.750			
0.3458	22132.04	3.6260	3.6259	-1.0718	7.20	1.21	-0.750			
0.3490	22334.48	3.6230	3.6230	-1.0747	7.20	1.21	-0.750			
0.3521	22537.53	3.6200	3.6201	-1.0717	7.21	1.22	-0.750			
0.3554	22744.69	3.6170	3.6169	-1.0851	7.21	1.22	-0.750			
0.3586	22952.64	3.6140	3.6139	-1.0953	7.22	1.23	-0.750			
0.3620	23164.83	3.6110	3.6111	-1.1036	7.23	1.24	-0.750			
0.3653	23377.05	3.6080	3.6081	-1.1099	7.24	1.25	-0.750			
0.3687	23596.52	3.6050	3.6049	-1.1285	7.24	1.25	-0.750			
0.3721	23811.85	3.6020	3.6019	-1.1261	7.25	1.26	-0.750			
0.3754	24027.33	3.5990	3.5990	-1.1334	7.26	1.27	-0.750			
0.3788	24244.07	3.5960	3.5962	-1.1433	7.26	1.27	-0.750			
0.3823	24466.23	3.5930	3.5930	-1.1532	7.27	1.28	-0.750			
0.3858	24690.31	3.5900	3.5899	-1.1589	7.28	1.29	-0.750	0.402	0.867	
0.3893	24913.39	3.5870	3.5870	-1.1610	7.29	1.30	-0.750			
0.3928	25137.43	3.5840	3.5841	-1.1716	7.29	1.30	-0.750			
0.3963	25361.28	3.5810	3.5810	-1.1807	7.30	1.31	-0.750			
0.3998	25587.00	3.5780	3.5780	-1.1872	7.30	1.31	-0.750			
0.4033	25813.55	3.5750	3.5751	-1.2021	7.31	1.32	-0.750			
0.4070	26047.64	3.5720	3.5720	-1.2183	7.32	1.33	-0.750			
0.4107	26286.35	3.5690	3.5689	-1.2331	7.32	1.33	-0.750			
0.4144	26523.82	3.5660	3.5659	-1.2392	7.33	1.34	-0.750			
0.4182	26761.91	3.5630	3.5631	-1.2459	7.33	1.34	-0.750			
0.4219	27001.26	3.5600	3.5600	-1.2594	7.34	1.35	-0.750			
0.4257	27245.27	3.5570	3.5569	-1.2709	7.35	1.36	-0.750			
0.4295	27487.49	3.5540	3.5541	-1.2930	7.35	1.36	-0.750			
0.4335	27741.66	3.5510	3.5510	-1.2991	7.36	1.37	-0.750			
0.4374	27996.34	3.5480	3.5479	-1.3068	7.36	1.37	-0.750			
0.4414	28248.41	3.5450	3.5453	-1.3051	7.37	1.38	-0.750			
0.4453	28499.28	3.5420	3.5419	-1.3018	7.38	1.39	-0.750			
0.4491	28745.24	3.5390	3.5390	-1.3110	7.38	1.39	-0.750			
0.4530	28993.28	3.5360	3.5358	-1.3243	7.39	1.40	-0.750			
0.4570	29250.16	3.5330	3.5329	-1.3391	7.40	1.41	-0.750			
0.4611	29512.04	3.5300	3.5299	-1.3418	7.41	1.42	-0.750			
0.4652	29772.97	3.5270	3.5272	-1.3516	7.42	1.43	-0.750			
0.4693	30033.90	3.5240	3.5240	-1.3471	7.43	1.44	-0.750			
0.4733	30294.24	3.5210	3.5208	-1.3380	7.43	1.44	-0.750			
0.4773	30546.96	3.5180	3.5181	-1.3302	7.44	1.45	-0.750			
0.4812	30799.58	3.5150	3.5150	-1.3202	7.45	1.46	-0.750			
0.4852	31055.21	3.5120	3.5120	-1.3295	7.46	1.47	-0.750			
0.4892	31306.41	3.5090	3.5089	-1.3522	7.47	1.48	-0.750			
0.4932	31564.99	3.5060	3.5060	-1.3501	7.48	1.49	-0.750			
0.4974	31830.96	3.5030	3.5028	-1.3609	7.49	1.50	-0.750			
0.5014	32092.13	3.5000	3.5001	-1.3694	7.50	1.51	-0.750			
0.5056	32359.23	3.4970	3.4969	-1.3578	7.51	1.52	-0.750			
0.5097	32621.73	3.4940	3.4939	-1.3495	7.51	1.52	-0.750			
0.5137	32873.99	3.4910	3.4909	-1.3434	7.52	1.53	-0.750			
0.5177	33131.36	3.4880	3.4880	-1.3292	7.53	1.54	-0.750			
0.5217	33391.91	3.4850	3.4848	-1.3250	7.54	1.55	-0.750			
0.5257	33645.84	3.4820	3.4819	-1.3121	7.55	1.56	-0.750			
0.5296	33892.19	3.4790	3.4792	-1.2914	7.56	1.57	-0.750			
0.5335	34142.20	3.4760	3.4760	-1.2989	7.57	1.58	-0.750			
0.5373	34386.14	3.4730	3.4730	-1.2908	7.58	1.59	-0.750			
0.5411	34630.02	3.4700	3.4700	-1.2863	7.59	1.60	-0.750			
0.5450	34882.69	3.4670	3.4670	-1.3033	7.60	1.61	-0.750			
0.5490	35139.00	3.4640	3.4639	-1.2983	7.62	1.63	-0.750			
0.5529	35386.90	3.4610	3.4612	-1.2874	7.63	1.64	-0.750			
0.5568	35633.60	3.4580	3.4580	-1.2798	7.64	1.65	-0.750			
0.5606	35878.24	3.4550	3.4549	-1.2603	7.65	1.66	-0.750			
0.5643	36115.28	3.4520	3.4519	-1.2471	7.66	1.67	-0.750			
0.5680	36355.17	3.4490	3.4491	-1.2323	7.68	1.69	-0.750			
0.5717	36591.77	3.4460	3.4460	-1.2311	7.69	1.70	-0.750			
0.5755	36829.02	3.4430	3.4430	-1.2217	7.70	1.71	-0.750			
0.5791	37060.01	3.4400	3.4401	-1.2135	7.71	1.72	-0.750			
0.5827	37293.56	3.4370	3.4371	-1.2066	7.73	1.74	-0.750			
0.5864	37526.80	3.4340	3.4339	-1.2027	7.74	1.75	-0.750			
0.5899	37755.76	3.4310	3.4310	-1.1894	7.76	1.77	-0.750			
0.5935	37986.13	3.4280	3.4280	-1.1834	7.77	1.78	-0.750			
0.5970	38210.35	3.4250	3.4250	-1.1605	7.78	1.79	-0.750			
0.6006	38435.46	3.4220	3.4219	-1.1428	7.79	1.80	-0.750			
0.6039	38650.52	3.4190	3.4192	-1.1173	7.80	1.81	-0.750			
0.6073	38865.11	3.4160	3.4160	-1.0986	7.82	1.83	-0.750			
0.6105	39072.88	3.4130	3.4130	-1.0665	7.83	1.84	-0.750			
0.6136	39273.47	3.4100	3.4099	-1.0414	7.84	1.85	-0.750			
0.6167	39470.74	3.4070	3.4072	-1.0324	7.85	1.86	-0.750			
0.6198	39665.94	3.4040	3.4039	-1.0236	7.87	1.88	-0.750			
0.6229	39862.90	3.4010	3.4009	-1.0098	7.89	1.90	-0.750			
0.6259	40055.98	3.3980	3.3980	-0.9949	7.91	1.92	-0.750			
0.6289	40248.36	3.3950	3.3952	-0.9757	7.92	1.93	-0.750			
0.6318	40435.27	3.3920	3.3919	-0.9598	7.94	1.95	-0.750			
0.6346	40615.84	3.3890	3.3890	-0.9343	7.95	1.96	-0.750			
0.6374	40791.55	3.3860	3.3860	-0.9106	7.96	1.97	-0.750			
0.6401	40964.21	3.3830	3.3830	-0.8935	7.98	1.99	-0.750			
0.6427	41135.26	3.3800	3.3799	-0.8682	7.99	2.00	-0.750			
0.6453	41299.71	3.3770	3.3770	-0.8464	8.00	2.01	-0.750			
0.6478	41459.73	3.3740	3.3740	-0.8273	8.02	2.03	-0.750			
0.6502	41614.80	3.3710	3.3710	-0.7996	8.03	2.04	-0.750			
0.6526	41767.77	3.3680	3.3679	-0.7771	8.05	2.06	-0.750			
0.6549	41914.21	3.3650	3.3651	-0.7587	8.06	2.07	-0.750			
0.6571	42057.56	3.3620	3.3620	-0.7426	8.07	2.08	-0.750			
0.6594	42198.85	3.3590	3.3589	-0.7363	8.08	2.09	-0.750			
0.6615	42337.02	3.3560	3.3559	-0.7184	8.09	2.10	-0.750			
0.6637	42475.10	3.3530	3.3530	-0.7024	8.11	2.12	-0.750			
0.6658	42611.51	3.3500	3.3502	-0.6903	8.12	2.13	-0.750			
0.6679	42742.62	3.3470	3.3470	-0.6736	8.13	2.14	-0.750			
0.6698	42868.71	3.3440	3.3440	-0.6550	8.14	2.15	-0.750			
0.6717	42991.38	3.3410	3.3409	-0.6443	8.15	2.16	-0.750			
0.6736	43113.11	3.3380	3.3381	-0.6258	8.16	2.17	-0.750			
0.6755	43234.44	3.3350	3.3349	-0.6168	8.17	2.18	-0.750			
0.6774	43351.37	3.3320	3.3320	-0.6006	8.18	2.19	-0.750			
0.6791	43465.45	3.3290	3.3290	-0.5853	8.20	2.21	-0.750			
0.6809	43575.52	3.3260	3.3260	-0.5717	8.21	2.22	-0.750			
0.6826	43683.43	3.3230	3.3228	-0.5571	8.23	2.24	-0.750			
0.6842	43788.29	3.3200	3.3201	-0.5470	8.24	2.25	-0.750			
0.6858	43893.97	3.3170	3.3170	-0.5412	8.25	2.26	-0.750			
0.6875	43997.47	3.3140	3.3139	-0.5300	8.27	2.28	-0.750			
0.6891	44099.45	3.3110	3.3111	-0.5162	8.28	2.29	-0.750			
0.6906	44196.95	3.3080	3.3079	-0.5014	8.30	2.31	-0.750			
0.6920	44290.27	3.3050	3.3051	-0.4915	8.31	2.32	-0.750			
0.6935	44382.83	3.3020	3.3020	-0.4806	8.32	2.33	-0.750			
0.6949	44473.18	3.2990	3.2988	-0.4709	8.33	2.34	-0.750			
0.6963	44563.83	3.2960	3.2960	-0.4636	8.34	2.35	-0.750			
0.6977	44653.18	3.2930	3.2930	-0.4570	8.35	2.36	-0.750			
0.6991	44740.11	3.2900	3.2900	-0.4496	8.36	2.37	-0.750			
0.7004	44825.52	3.2870	3.2870	-0.4390	8.37	2.38	-0.750			
0.7017	44908.02	3.2840	3.2839	-0.4279	8.38	2.39	-0.750			
0.7030	44989.46	3.2810	3.2810	-0.4221	8.39	2.40	-0.750			
0.7042	45069.61	3.2780	3.2780	-0.4166	8.40	2.41	-0.750			
0.7055	45149.11	3.2750	3.2750	-0.4098	8.41	2.42	-0.750			
0.7067	45227.29	3.2720	3.2721	-0.4029	8.42	2.43	-0.750			
0.7079	45303.54	3.2690	3.2690	-0.3958	8.43	2.44	-0.750			
0.7091	45379.93	3.2660	3.2658	-0.3886	8.44	2.45	-0.750			
0.7102	45453.42	3.2630	3.2631	-0.3828	8.45	2.46	-0.750			
0.7113	45525.42	3.2600	3.2600	-0.3772	8.47	2.48	-0.750			
0.7125	45597.42	3.2570	3.2570	-0.3718	8.48	2.49	-0.750			
0.7136	45668.81	3.2540	3.2540	-0.3678	8.49	2.50	-0.750			
0.7147	45738.86	3.2510	3.2510	-0.3617	8.50	2.51	-0.750			
0.7157	45807.65	3.2480	3.2480	-0.3573	8.51	2.52	-0.750			
0.7168	45876.88	3.2450	3.2449	-0.3498	8.52	2.53	-0.750			
0.7179	45942.66	3.2420	3.2420	-0.3405	8.53	2.54	-0.750			
0.7188	46006.34	3.2390	3.2390	-0.3352	8.54	2.55	-0.750			
0.7198	46069.54	3.2360	3.2359	-0.3313	8.55	2.56	-0.750			
0.7208	46132.80	3.2330	3.2329	-0.3264	8.56	2.57	-0.750			
0.7218	46195.24	3.2300	3.2299	-0.3231	8.57	2.58	-0.750			
0.7228	46257.02	3.2270	3.2271	-0.3195	8.58	2.59	-0.750			
0.7237	46319.36	3.2240	3.2240	-0.3165	8.59	2.60	-0.750			
0.7247	46379.46	3.2210	3.2209	-0.3099	8.60	2.61	-0.750			
0.7256	46437.67	3.2180	3.2180	-0.3045	8.61	2.62	-0.750			
0.7265	46495.10	3.2150	3.2151	-0.2989	8.62	2.63	-0.750			
0.7274	46552.16	3.2120	3.2119	-0.2953	8.63	2.64	-0.750			
0.7283	46608.06	3.2090	3.2089	-0.2914	8.64	2.65	-0.750			
0.7291	46663.78	3.2060	3.2061	-0.2881	8.65	2.66	-0.750			
0.7300	46719.23	3.2030	3.2029	-0.2841	8.66	2.67	-0.750			
0.7308	46773.67	3.2000	3.2001	-0.2813	8.67	2.68	-0.750			
0.7317	46827.12	3.1970	3.1971	-0.2782	8.68	2.69	-0.750			
0.7325	46880.14	3.1940	3.1940	-0.2760	8.68	2.69	-0.750			
0.7333	46932.92	3.1910	3.1908	-0.2727	8.69	2.70	-0.750			
0.7341	46984.50	3.1880	3.1880	-0.2683	8.70	2.71	-0.750			
0.7349	47035.63	3.1850	3.1851	-0.2662	8.71	2.72	-0.750			
0.7357	47086.94	3.1820	3.1821	-0.2634	8.72	2.73	-0.750			
0.7365	47137.40	3.1790	3.1789	-0.2603	8.73	2.74	-0.750			
0.7373	47186.32	3.1760	3.1759	-0.2560	8.74	2.75	-0.750			
0.7381	47235.43	3.1730	3.1731	-0.2534	8.75	2.76	-0.750			
0.7388	47283.97	3.1700	3.1699	-0.2513	8.76	2.77	-0.750			
0.7396	47332.04	3.1670	3.1670	-0.2483	8.76	2.77	-0.750			
0.7403	47379.24	3.1640	3.1640	-0.2448	8.77	2.78	-0.750			
0.7410	47425.11	3.1610	3.1610	-0.2424	8.78	2.79	-0.750			
0.7417	47471.52	3.1580	3.1580	-0.2409	8.79	2.80	-0.750			
0.7425	47517.57	3.1550	3.1550	-0.2394	8.80	2.81	-0.750			
0.7432	47563.55	3.1520	3.1519	-0.2380	8.81	2.82	-0.750			
0.7439	47609.45	3.1490	3.1490	-0.2366	8.82	2.83	-0.750			
0.7446	47654.68	3.1460	3.1461	-0.2346	8.83	2.84	-0.750			
0.7453	47699.75	3.1430	3.1430	-0.2323	8.84	2.85	-0.750			
0.7460	47744.55	3.1400	3.1400	-0.2294	8.85	2.86	-0.750			
0.7467	47787.84	3.1370	3.1370	-0.2261	8.86	2.87	-0.750			
0.7474	47831.07	3.1340	3.1341	-0.2232	8.87	2.88	-0.750			
0.7480	47873.77	3.1310	3.1310	-0.2204	8.88	2.89	-0.750			
0.7487	47915.51	3.1280	3.1279	-0.2190	8.88	2.89	-0.750			
0.7493	47957.27	3.1250	3.1251	-0.2168	8.89	2.90	-0.750			
0.7500	47998.76	3.1220	3.1220	-0.2153	8.90	2.91	-0.750			
0.7506	48039.84	3.1190	3.1190	-0.2137	8.91	2.92	-0.750			
0.7513	48080.81	3.1160	3.1160	-0.2131	8.91	2.92	-0.750			
0.7519	48121.49	3.1130	3.1130	-0.2115	8.92	2.93	-0.750			
0.7525	48162.56	3.1100	3.1099	-0.2101	8.93	2.94	-0.750			
0.7532	48202.66	3.1070	3.1070	-0.2077	8.94	2.95	-0.750			
0.7538	48242.15	3.1040	3.1040	-0.2058	8.94	2.95	-0.750			
0.7544	48281.58	3.1010	3.1010	-0.2048	8.95	2.96	-0.750			
0.7550	48320.69	3.0980	3.0981	-0.2027	8.96	2.97	-0.750			
0.7556	48359.43	3.0950	3.0948	-0.2009	8.97	2.98	-0.750			
0.7562	48397.78	3.0920	3.0920	-0.1978	8.98	2.99	-0.750			
0.7568	48435.63	3.0890	3.0891	-0.1961	8.99	3.00	-0.750			
0.7574	48473.15	3.0860	3.0861	-0.1949	9.00	3.01	-0.750			
0.7580	48510.33	3.0830	3.0829	-0.1924	9.01	3.02	-0.750			
0.7585	48546.51	3.0800	3.0799	-0.1911	9.02	3.03	-0.750			
0.7591	48582.97	3.0770	3.0770	-0.1891	9.03	3.04	-0.750			
0.7597	48619.08	3.0740	3.0740	-0.1888	9.04	3.05	-0.750			
0.7602	48655.29	3.0710	3.0711	-0.1884	9.05	3.06	-0.750			
0.7608	48691.65	3.0680	3.0681	-0.1881	9.06	3.07	-0.750			
0.7614	48727.47	3.0650	3.0649	-0.1874	9.07	3.08	-0.750			
0.7619	48763.68	3.0620	3.0619	-0.1864	9.08	3.09	-0.750			
0.7625	48799.38	3.0590	3.0591	-0.1855	9.09	3.10	-0.750			
0.7630	48834.84	3.0560	3.0560	-0.1849	9.09	3.10	-0.750			
0.7636	48870.76	3.0530	3.0531	-0.1841	9.10	3.11	-0.750			
0.7642	48905.81	3.0500	3.0498	-0.1819	9.11	3.12	-0.750			
0.7647	48940.58	3.0470	3.0470	-0.1803	9.12	3.13	-0.750			
0.7652	48975.03	3.0440	3.0441	-0.1791	9.13	3.14	-0.750			
0.7658	49009.09	3.0410	3.0410	-0.1778	9.14	3.15	-0.750			
0.7663	49043.23	3.0380	3.0380	-0.1770	9.15	3.16	-0.750			
0.7668	49077.11	3.0350	3.0350	-0.1759	9.15	3.16	-0.750			
0.7674	49110.44	3.0320	3.0320	-0.1748	9.16	3.17	-0.750			
0.7679	49144.04	3.0290	3.0290	-0.1746	9.17	3.18	-0.750			
0.7684	49177.36	3.0260	3.0260	-0.1743	9.18	3.19	-0.750			
0.7689	49210.80	3.0230	3.0230	-0.1740	9.19	3.20	-0.750			
0.7694	49244.14	3.0200	3.0200	-0.1732	9.20	3.21	-0.750			
0.7700	49277.32	3.0170	3.0170	-0.1730	9.21	3.22	-0.750			
0.7705	49310.84	3.0140	3.0140	-0.1724	9.22	3.23	-0.750			
0.7710	49343.84	3.0110	3.0110	-0.1713	9.23	3.24	-0.750			
0.7715	49376.79	3.0080	3.0080	-0.1700	9.24	3.25	-0.750			
0.7720	49409.36	3.0050	3.0050	-0.1678	9.25	3.26	-0.750			
0.7725	49441.38	3.0020	3.0020	-0.1659	9.25	3.26	-0.750			
