Ah_balance (normalized)	Ah_balance (mAh)	Voltage - fit (V)	Voltage -  interpolate (V)	dQ/dV (1/V)	Temperature (°C)	Temperature - diff (°C)	Current (C)	R_DC 0ms (mOhm)	R_DC 50ms (mOhm)	R_DC 50 ms PEC (mOhm)
0.0000	0.00	4.0980	4.1337	0.0000	5.99	0.00	-0.742			
0.0000	0.00	4.1010	4.1337	0.0000	5.99	0.00	-0.742			
0.0001	5.89	4.0950	4.1000	-0.0309	5.99	0.00	-0.750			
0.0002	15.56	4.0920	4.0922	-0.0578	5.99	0.00	-0.750			
0.0005	29.18	4.0890	4.0888	-0.0840	5.99	0.00	-0.750			
0.0007	47.84	4.0860	4.0859	-0.1102	5.99	0.00	-0.750			
0.0011	71.93	4.0830	4.0831	-0.1342	5.99	0.00	-0.750			
0.0016	100.28	4.0800	4.0800	-0.1576	5.99	0.00	-0.750			
0.0021	132.91	4.0770	4.0770	-0.1809	5.99	0.00	-0.750			
0.0027	171.22	4.0740	4.0741	-0.2062	5.99	0.00	-0.750			
0.0033	213.06	4.0710	4.0710	-0.2286	5.99	0.00	-0.750			
0.0040	259.11	4.0680	4.0680	-0.2510	5.99	0.00	-0.750			
0.0048	309.42	4.0650	4.0649	-0.2739	5.99	0.00	-0.750			
0.0057	364.16	4.0620	4.0621	-0.2944	5.99	0.00	-0.750			
0.0066	422.85	4.0590	4.0590	-0.3181	5.99	0.00	-0.750			
0.0076	486.41	4.0560	4.0560	-0.3400	5.99	0.00	-0.750			
0.0086	553.42	4.0530	4.0529	-0.3606	5.99	0.00	-0.750			
0.0098	625.08	4.0500	4.0500	-0.3831	5.99	0.00	-0.750			
0.0110	701.37	4.0470	4.0470	-0.4031	5.99	0.00	-0.750			
0.0122	780.44	4.0440	4.0439	-0.4242	5.99	0.00	-0.750			
0.0135	864.22	4.0410	4.0410	-0.4441	5.99	0.00	-0.750			
0.0148	950.34	4.0380	4.0380	-0.4638	5.99	0.00	-0.750			
0.0163	1041.98	4.0350	4.0350	-0.4830	5.99	0.00	-0.750			
0.0178	1137.22	4.0320	4.0320	-0.5016	5.99	0.00	-0.750			
0.0193	1235.47	4.0290	4.0290	-0.5212	5.99	0.00	-0.750			
0.0209	1337.75	4.0260	4.0260	-0.5383	5.99	0.00	-0.750			
0.0225	1443.16	4.0230	4.0229	-0.5520	5.99	0.00	-0.750			
0.0242	1551.11	4.0200	4.0201	-0.5647	5.99	0.00	-0.750			
0.0259	1660.77	4.0170	4.0170	-0.5764	5.99	0.00	-0.750			
0.0277	1772.93	4.0140	4.0140	-0.5883	5.99	0.00	-0.750			
0.0295	1886.37	4.0110	4.0109	-0.5980	5.99	0.00	-0.750			
0.0313	2002.52	4.0080	4.0080	-0.6100	5.99	0.00	-0.750			
0.0331	2120.30	4.0050	4.0050	-0.6215	5.99	0.00	-0.750			
0.0350	2241.81	4.0020	4.0020	-0.6317	5.99	0.00	-0.750			
0.0369	2364.67	3.9990	3.9990	-0.6364	5.99	0.00	-0.750			
0.0389	2487.84	3.9960	3.9960	-0.6418	5.99	0.00	-0.750			
0.0408	2611.64	3.9930	3.9930	-0.6473	6.00	0.01	-0.750			
0.0427	2735.94	3.9900	3.9900	-0.6542	6.00	0.01	-0.750			
0.0447	2862.11	3.9870	3.9869	-0.6600	6.00	0.01	-0.750			
0.0467	2989.54	3.9840	3.9840	-0.6615	6.01	0.02	-0.750			
0.0487	3118.20	3.9810	3.9811	-0.6661	6.01	0.02	-0.750			
0.0507	3246.14	3.9780	3.9780	-0.6693	6.01	0.02	-0.750			
0.0527	3374.28	3.9750	3.9750	-0.6717	6.02	0.03	-0.750			
0.0547	3502.59	3.9720	3.9720	-0.6775	6.02	0.03	-0.750			
0.0568	3632.45	3.9690	3.9690	-0.6814	6.03	0.04	-0.750			
0.0588	3765.50	3.9660	3.9660	-0.6872	6.03	0.04	-0.750			
0.0609	3898.33	3.9630	3.9629	-0.6929	6.04	0.05	-0.750			
0.0630	4032.80	3.9600	3.9600	-0.6954	6.04	0.05	-0.750			
0.0651	4166.59	3.9570	3.9570	-0.6946	6.05	0.06	-0.750			
0.0672	4298.45	3.9540	3.9540	-0.7030	6.05	0.06	-0.750			
0.0693	4434.30	3.9510	3.9510	-0.7057	6.06	0.07	-0.750			
0.0714	4571.46	3.9480	3.9479	-0.7076	6.06	0.07	-0.750			
0.0736	4707.53	3.9450	3.9452	-0.7090	6.07	0.08	-0.750			
0.0757	4843.58	3.9420	3.9421	-0.7108	6.08	0.09	-0.750			
0.0778	4980.42	3.9390	3.9389	-0.7138	6.08	0.09	-0.750			
0.0799	5116.64	3.9360	3.9360	-0.7166	6.09	0.10	-0.750			
0.0821	5254.30	3.9330	3.9330	-0.7132	6.10	0.11	-0.750			
0.0843	5395.02	3.9300	3.9300	-0.7181	6.10	0.11	-0.750			
0.0864	5531.93	3.9270	3.9272	-0.7187	6.11	0.12	-0.750			
0.0886	5668.61	3.9240	3.9240	-0.7194	6.12	0.13	-0.750			
0.0907	5805.71	3.9210	3.9209	-0.7240	6.12	0.13	-0.750			
0.0929	5943.53	3.9180	3.9180	-0.7260	6.13	0.14	-0.750			
0.0951	6084.85	3.9150	3.9150	-0.7305	6.13	0.14	-0.750			
0.0973	6226.38	3.9120	3.9120	-0.7343	6.14	0.15	-0.750			
0.0995	6369.01	3.9090	3.9091	-0.7345	6.14	0.15	-0.750			
0.1017	6508.77	3.9060	3.9059	-0.7319	6.15	0.16	-0.750			
0.1039	6648.02	3.9030	3.9030	-0.7312	6.15	0.16	-0.750			
0.1061	6789.00	3.9000	3.9000	-0.7305	6.16	0.17	-0.750			
0.1083	6929.25	3.8970	3.8970	-0.7340	6.16	0.17	-0.750			
0.1105	7069.79	3.8940	3.8940	-0.7354	6.17	0.18	-0.750			
0.1127	7210.14	3.8910	3.8910	-0.7384	6.17	0.18	-0.750			
0.1149	7352.66	3.8880	3.8880	-0.7420	6.18	0.19	-0.750			
0.1171	7495.58	3.8850	3.8849	-0.7441	6.19	0.20	-0.750			
0.1194	7639.70	3.8820	3.8820	-0.7460	6.20	0.21	-0.750			
0.1216	7784.35	3.8790	3.8790	-0.7445	6.21	0.22	-0.750			
0.1239	7927.02	3.8760	3.8761	-0.7418	6.22	0.23	-0.750			
0.1261	8069.17	3.8730	3.8730	-0.7457	6.23	0.24	-0.750			
0.1283	8210.26	3.8700	3.8700	-0.7459	6.23	0.24	-0.750			
0.1305	8354.48	3.8670	3.8669	-0.7501	6.24	0.25	-0.750			
0.1328	8499.48	3.8640	3.8641	-0.7505	6.24	0.25	-0.750			
0.1351	8645.68	3.8610	3.8610	-0.7513	6.25	0.26	-0.750			
0.1373	8790.02	3.8580	3.8581	-0.7495	6.25	0.26	-0.750			
0.1396	8932.93	3.8550	3.8550	-0.7477	6.26	0.27	-0.750			
0.1418	9075.63	3.8520	3.8519	-0.7458	6.27	0.28	-0.750			
0.1440	9218.60	3.8490	3.8490	-0.7432	6.28	0.29	-0.750			
0.1463	9361.74	3.8460	3.8460	-0.7468	6.29	0.30	-0.750			
0.1485	9505.55	3.8430	3.8430	-0.7504	6.30	0.31	-0.750			
0.1508	9649.61	3.8400	3.8399	-0.7490	6.31	0.32	-0.750			
0.1530	9792.80	3.8370	3.8370	-0.7484	6.31	0.32	-0.750			
0.1553	9936.48	3.8340	3.8340	-0.7490	6.32	0.33	-0.750			
0.1575	10080.66	3.8310	3.8310	-0.7494	6.33	0.34	-0.750			
0.1598	10225.68	3.8280	3.8280	-0.7517	6.33	0.34	-0.750			
0.1620	10369.48	3.8250	3.8250	-0.7481	6.34	0.35	-0.750			
0.1643	10513.18	3.8220	3.8220	-0.7460	6.35	0.36	-0.750			
0.1665	10656.04	3.8190	3.8190	-0.7520	6.36	0.37	-0.750			
0.1688	10800.21	3.8160	3.8160	-0.7515	6.36	0.37	-0.750			
0.1710	10945.17	3.8130	3.8129	-0.7529	6.37	0.38	-0.750			
0.1733	11090.08	3.8100	3.8101	-0.7529	6.38	0.39	-0.750			
0.1756	11235.39	3.8070	3.8070	-0.7518	6.39	0.40	-0.750			
0.1778	11380.35	3.8040	3.8040	-0.7509	6.39	0.40	-0.750			
0.1801	11524.07	3.8010	3.8010	-0.7510	6.40	0.41	-0.750			
0.1823	11666.52	3.7980	3.7980	-0.7495	6.41	0.42	-0.750			
0.1845	11811.17	3.7950	3.7950	-0.7531	6.41	0.42	-0.750			
0.1868	11956.05	3.7920	3.7921	-0.7525	6.42	0.43	-0.750			
0.1891	12101.41	3.7890	3.7890	-0.7545	6.43	0.44	-0.750			
0.1913	12245.98	3.7860	3.7860	-0.7577	6.44	0.45	-0.750			
0.1936	12390.84	3.7830	3.7830	-0.7588	6.44	0.45	-0.750			
0.1959	12537.59	3.7800	3.7799	-0.7604	6.45	0.46	-0.750			
0.1982	12683.74	3.7770	3.7770	-0.7583	6.46	0.47	-0.750			
0.2005	12829.46	3.7740	3.7740	-0.7586	6.46	0.47	-0.750			
0.2027	12974.95	3.7710	3.7710	-0.7596	6.47	0.48	-0.750			
0.2050	13120.23	3.7680	3.7681	-0.7575	6.48	0.49	-0.750			
0.2073	13264.51	3.7650	3.7650	-0.7603	6.49	0.50	-0.750			
0.2095	13410.54	3.7620	3.7620	-0.7659	6.49	0.50	-0.750			
0.2119	13559.66	3.7590	3.7590	-0.7696	6.50	0.51	-0.750			
0.2142	13707.89	3.7560	3.7560	-0.7744	6.51	0.52	-0.750			
0.2165	13856.31	3.7530	3.7530	-0.7770	6.52	0.53	-0.750			
0.2188	14005.86	3.7500	3.7500	-0.7772	6.52	0.53	-0.750			
0.2212	14155.62	3.7470	3.7469	-0.7808	6.53	0.54	-0.750			
0.2235	14304.72	3.7440	3.7440	-0.7826	6.54	0.55	-0.750			
0.2259	14455.26	3.7410	3.7410	-0.7852	6.55	0.56	-0.750			
0.2282	14605.95	3.7380	3.7380	-0.7944	6.55	0.56	-0.750			
0.2306	14759.36	3.7350	3.7350	-0.7949	6.56	0.57	-0.750			
0.2330	14912.94	3.7320	3.7320	-0.7984	6.57	0.58	-0.750			
0.2354	15067.48	3.7290	3.7290	-0.8011	6.58	0.59	-0.750			
0.2378	15220.39	3.7260	3.7260	-0.8032	6.58	0.59	-0.750			
0.2402	15372.81	3.7230	3.7230	-0.8115	6.59	0.60	-0.750			
0.2427	15530.39	3.7200	3.7199	-0.8155	6.59	0.60	-0.750			
0.2451	15686.56	3.7170	3.7170	-0.8201	6.59	0.60	-0.750			
0.2476	15846.58	3.7140	3.7140	-0.8283	6.60	0.61	-0.750			
0.2501	16006.85	3.7110	3.7110	-0.8334	6.60	0.61	-0.750			
0.2526	16167.01	3.7080	3.7079	-0.8396	6.61	0.62	-0.750			
0.2551	16326.75	3.7050	3.7049	-0.8424	6.62	0.63	-0.750			
0.2576	16488.61	3.7020	3.7020	-0.8455	6.63	0.64	-0.750			
0.2602	16653.59	3.6990	3.6989	-0.8544	6.65	0.66	-0.750			
0.2628	16818.29	3.6960	3.6960	-0.8583	6.65	0.66	-0.750			
0.2654	16983.73	3.6930	3.6930	-0.8657	6.66	0.67	-0.750			
0.2680	17149.86	3.6900	3.6900	-0.8702	6.67	0.68	-0.750			
0.2706	17316.71	3.6870	3.6870	-0.8726	6.67	0.68	-0.750			
0.2732	17485.64	3.6840	3.6841	-0.8805	6.68	0.69	-0.750			
0.2758	17653.43	3.6810	3.6810	-0.8960	6.68	0.69	-0.750			
0.2785	17827.19	3.6780	3.6779	-0.9010	6.69	0.70	-0.750			
0.2813	18002.37	3.6750	3.6749	-0.9001	6.69	0.70	-0.750			
0.2840	18175.04	3.6720	3.6720	-0.9034	6.70	0.71	-0.750			
0.2867	18349.24	3.6690	3.6693	-0.9134	6.70	0.71	-0.750			
0.2894	18524.62	3.6660	3.6658	-0.9209	6.71	0.72	-0.750			
0.2922	18700.30	3.6630	3.6629	-0.9243	6.72	0.73	-0.750			
0.2950	18877.16	3.6600	3.6600	-0.9343	6.73	0.74	-0.750			
0.2978	19060.92	3.6570	3.6571	-0.9479	6.74	0.75	-0.750			
0.3007	19244.60	3.6540	3.6540	-0.9507	6.74	0.75	-0.750			
0.3036	19428.55	3.6510	3.6510	-0.9550	6.74	0.75	-0.750			
0.3064	19611.46	3.6480	3.6478	-0.9582	6.74	0.75	-0.750			
0.3093	19794.96	3.6450	3.6450	-0.9645	6.74	0.75	-0.750			
0.3122	19980.84	3.6420	3.6421	-0.9719	6.74	0.75	-0.750			
0.3151	20167.65	3.6390	3.6388	-0.9838	6.75	0.76	-0.750			
0.3181	20358.79	3.6360	3.6360	-0.9903	6.75	0.76	-0.750			
0.3211	20548.03	3.6330	3.6330	-0.9931	6.76	0.77	-0.750			
0.3241	20741.89	3.6300	3.6303	-1.0094	6.76	0.77	-0.750			
0.3271	20935.23	3.6270	3.6269	-1.0109	6.77	0.78	-0.750			
0.3301	21128.86	3.6240	3.6240	-1.0195	6.77	0.78	-0.750			
0.3332	21324.33	3.6210	3.6209	-1.0256	6.77	0.78	-0.750			
0.3363	21524.10	3.6180	3.6182	-1.0401	6.78	0.79	-0.750			
0.3395	21725.47	3.6150	3.6150	-1.0462	6.78	0.79	-0.750			
0.3426	21926.95	3.6120	3.6121	-1.0534	6.77	0.78	-0.750			
0.3458	22129.35	3.6090	3.6090	-1.0600	6.77	0.78	-0.750			
0.3489	22331.84	3.6060	3.6063	-1.0688	6.76	0.77	-0.750			
0.3522	22537.86	3.6030	3.6030	-1.0748	6.77	0.78	-0.750			
0.3554	22746.50	3.6000	3.6000	-1.0820	6.78	0.79	-0.750			
0.3587	22954.47	3.5970	3.5970	-1.0881	6.78	0.79	-0.750			
0.3619	23163.54	3.5940	3.5941	-1.0997	6.79	0.80	-0.750			
0.3652	23374.05	3.5910	3.5910	-1.1125	6.79	0.80	-0.750			
0.3686	23590.18	3.5880	3.5879	-1.1186	6.80	0.81	-0.750			
0.3720	23807.37	3.5850	3.5848	-1.1225	6.80	0.81	-0.750			
0.3754	24024.24	3.5820	3.5819	-1.1328	6.80	0.81	-0.750	0.459	0.895	
0.3788	24242.42	3.5790	3.5790	-1.1335	6.81	0.82	-0.750			
0.3822	24459.47	3.5760	3.5759	-1.1376	6.81	0.82	-0.750			
0.3856	24675.24	3.5730	3.5730	-1.1357	6.82	0.83	-0.750			
0.3890	24893.60	3.5700	3.5700	-1.1471	6.82	0.83	-0.750			
0.3925	25121.33	3.5670	3.5669	-1.1619	6.82	0.83	-0.750			
0.3960	25343.55	3.5640	3.5640	-1.1653	6.82	0.83	-0.750			
0.3995	25567.31	3.5610	3.5612	-1.1744	6.82	0.83	-0.750			
0.4030	25794.79	3.5580	3.5579	-1.1859	6.83	0.84	-0.750			
0.4066	26022.07	3.5550	3.5550	-1.1920	6.83	0.84	-0.750			
0.4101	26249.57	3.5520	3.5521	-1.2050	6.84	0.85	-0.750			
0.4138	26485.74	3.5490	3.5488	-1.2217	6.84	0.85	-0.750			
0.4175	26720.79	3.5460	3.5459	-1.2256	6.84	0.85	-0.750			
0.4212	26954.36	3.5430	3.5430	-1.2323	6.85	0.86	-0.750			
0.4249	27192.86	3.5400	3.5401	-1.2386	6.85	0.86	-0.750			
0.4287	27433.60	3.5370	3.5370	-1.2452	6.86	0.87	-0.750			
0.4324	27673.38	3.5340	3.5339	-1.2480	6.87	0.88	-0.750			
0.4361	27911.18	3.5310	3.5310	-1.2487	6.88	0.89	-0.750			
0.4399	28152.45	3.5280	3.5280	-1.2599	6.89	0.90	-0.750			
0.4437	28394.68	3.5250	3.5250	-1.2633	6.89	0.90	-0.750			
0.4474	28634.69	3.5220	3.5220	-1.2731	6.90	0.91	-0.750			
0.4513	28884.62	3.5190	3.5189	-1.2752	6.91	0.92	-0.750			
0.4551	29128.93	3.5160	3.5160	-1.2743	6.91	0.92	-0.750			
0.4590	29373.86	3.5130	3.5128	-1.2766	6.92	0.93	-0.750			
0.4628	29618.50	3.5100	3.5102	-1.2742	6.93	0.94	-0.750			
0.4666	29861.43	3.5070	3.5069	-1.2958	6.93	0.94	-0.750			
0.4705	30109.55	3.5040	3.5040	-1.3054	6.94	0.95	-0.750			
0.4744	30360.24	3.5010	3.5010	-1.2991	6.94	0.95	-0.750			
0.4784	30618.61	3.4980	3.4981	-1.3053	6.95	0.96	-0.750			
0.4824	30872.78	3.4950	3.4950	-1.2930	6.96	0.97	-0.750			
0.4862	31119.63	3.4920	3.4920	-1.2781	6.97	0.98	-0.750			
0.4900	31360.19	3.4890	3.4890	-1.2583	6.97	0.98	-0.750			
0.4937	31594.71	3.4860	3.4860	-1.2435	6.98	0.99	-0.750			
0.4974	31833.18	3.4830	3.4831	-1.2434	6.98	0.99	-0.750			
0.5012	32074.03	3.4800	3.4798	-1.2369	6.99	1.00	-0.750			
0.5049	32313.21	3.4770	3.4770	-1.2343	7.00	1.01	-0.750			
0.5086	32549.07	3.4740	3.4740	-1.2243	7.02	1.03	-0.750			
0.5122	32782.71	3.4710	3.4712	-1.2194	7.03	1.04	-0.750			
0.5159	33018.02	3.4680	3.4679	-1.2124	7.04	1.05	-0.750			
0.5195	33248.24	3.4650	3.4650	-1.1985	7.06	1.07	-0.750			
0.5231	33477.72	3.4620	3.4620	-1.1894	7.07	1.08	-0.750			
0.5267	33706.33	3.4590	3.4590	-1.1882	7.08	1.09	-0.750			
0.5302	33935.07	3.4560	3.4559	-1.1667	7.09	1.10	-0.750			
0.5337	34157.44	3.4530	3.4530	-1.1483	7.10	1.11	-0.750			
0.5371	34373.77	3.4500	3.4502	-1.1462	7.11	1.12	-0.750			
0.5405	34593.77	3.4470	3.4469	-1.1365	7.12	1.13	-0.750			
0.5439	34810.45	3.4440	3.4439	-1.1285	7.12	1.13	-0.750			
0.5473	35024.43	3.4410	3.4410	-1.1202	7.13	1.14	-0.750			
0.5506	35240.31	3.4380	3.4379	-1.1244	7.14	1.15	-0.750			
0.5540	35459.15	3.4350	3.4350	-1.1195	7.15	1.16	-0.750			
0.5574	35673.15	3.4320	3.4320	-1.1086	7.16	1.17	-0.750			
0.5607	35883.15	3.4290	3.4291	-1.0947	7.18	1.19	-0.750			
0.5640	36096.02	3.4260	3.4260	-1.0902	7.19	1.20	-0.750			
0.5672	36303.94	3.4230	3.4230	-1.0740	7.20	1.21	-0.750			
0.5704	36508.46	3.4200	3.4199	-1.0604	7.21	1.22	-0.750			
0.5736	36708.99	3.4170	3.4170	-1.0481	7.22	1.23	-0.750			
0.5767	36910.77	3.4140	3.4140	-1.0387	7.23	1.24	-0.750			
0.5798	37108.25	3.4110	3.4110	-1.0223	7.24	1.25	-0.750			
0.5829	37304.26	3.4080	3.4080	-1.0093	7.26	1.27	-0.750			
0.5859	37497.11	3.4050	3.4049	-0.9932	7.27	1.28	-0.750			
0.5888	37686.24	3.4020	3.4020	-0.9811	7.28	1.29	-0.750			
0.5918	37872.33	3.3990	3.3990	-0.9647	7.30	1.31	-0.750			
0.5946	38056.44	3.3960	3.3960	-0.9465	7.31	1.32	-0.750			
0.5975	38237.76	3.3930	3.3929	-0.9317	7.32	1.33	-0.750			
0.6002	38415.83	3.3900	3.3900	-0.9149	7.34	1.35	-0.750			
0.6030	38589.10	3.3870	3.3870	-0.8981	7.35	1.36	-0.750			
0.6056	38759.74	3.3840	3.3840	-0.8822	7.36	1.37	-0.750			
0.6082	38926.25	3.3810	3.3810	-0.8624	7.37	1.38	-0.750			
0.6108	39091.01	3.3780	3.3780	-0.8514	7.39	1.40	-0.750			
0.6133	39253.28	3.3750	3.3750	-0.8388	7.40	1.41	-0.750			
0.6158	39412.59	3.3720	3.3720	-0.8249	7.41	1.42	-0.750			
0.6183	39570.50	3.3690	3.3690	-0.8117	7.42	1.43	-0.750			
0.6207	39725.39	3.3660	3.3660	-0.7936	7.43	1.44	-0.750			
0.6231	39876.47	3.3630	3.3630	-0.7799	7.45	1.46	-0.750			
0.6254	40024.93	3.3600	3.3600	-0.7632	7.46	1.47	-0.750			
0.6276	40168.76	3.3570	3.3570	-0.7443	7.47	1.48	-0.750			
0.6298	40310.02	3.3540	3.3540	-0.7306	7.49	1.50	-0.750			
0.6320	40448.00	3.3510	3.3510	-0.7161	7.50	1.51	-0.750			
0.6341	40585.50	3.3480	3.3480	-0.7035	7.52	1.53	-0.750			
0.6362	40719.40	3.3450	3.3451	-0.6907	7.53	1.54	-0.750			
0.6383	40849.62	3.3420	3.3420	-0.6770	7.54	1.55	-0.750			
0.6403	40978.85	3.3390	3.3390	-0.6682	7.56	1.57	-0.750			
0.6423	41104.69	3.3360	3.3360	-0.6575	7.57	1.58	-0.750			
0.6442	41230.88	3.3330	3.3330	-0.6442	7.58	1.59	-0.750			
0.6462	41354.34	3.3300	3.3300	-0.6349	7.59	1.60	-0.750			
0.6481	41475.62	3.3270	3.3270	-0.6215	7.60	1.61	-0.750			
0.6499	41593.72	3.3240	3.3240	-0.6077	7.62	1.63	-0.750			
0.6517	41708.66	3.3210	3.3210	-0.5960	7.63	1.64	-0.750			
0.6535	41821.01	3.3180	3.3179	-0.5829	7.64	1.65	-0.750			
0.6552	41931.00	3.3150	3.3150	-0.5730	7.66	1.67	-0.750			
0.6569	42041.10	3.3120	3.3120	-0.5661	7.67	1.68	-0.750			
0.6586	42148.76	3.3090	3.3090	-0.5537	7.68	1.69	-0.750			
0.6602	42254.85	3.3060	3.3059	-0.5444	7.69	1.70	-0.750			
0.6618	42357.90	3.3030	3.3031	-0.5341	7.70	1.71	-0.750			
0.6634	42459.40	3.3000	3.3000	-0.5232	7.72	1.73	-0.750			
0.6650	42559.22	3.2970	3.2970	-0.5117	7.73	1.74	-0.750			
0.6665	42655.71	3.2940	3.2939	-0.5021	7.75	1.76	-0.750			
0.6680	42750.58	3.2910	3.2911	-0.4967	7.76	1.77	-0.750			
0.6695	42845.58	3.2880	3.2879	-0.4914	7.77	1.78	-0.750			
0.6709	42939.20	3.2850	3.2849	-0.4845	7.79	1.80	-0.750			
0.6724	43031.88	3.2820	3.2821	-0.4772	7.80	1.81	-0.750			
0.6738	43123.78	3.2790	3.2791	-0.4689	7.80	1.81	-0.750			
0.6752	43213.08	3.2760	3.2760	-0.4594	7.82	1.83	-0.750			
0.6766	43299.29	3.2730	3.2730	-0.4490	7.83	1.84	-0.750			
0.6779	43384.13	3.2700	3.2700	-0.4427	7.85	1.86	-0.750			
0.6792	43468.45	3.2670	3.2669	-0.4337	7.86	1.87	-0.750			
0.6805	43551.15	3.2640	3.2640	-0.4279	7.88	1.89	-0.750			
0.6818	43632.25	3.2610	3.2611	-0.4247	7.89	1.90	-0.750			
0.6830	43714.07	3.2580	3.2579	-0.4193	7.90	1.91	-0.750			
0.6843	43794.04	3.2550	3.2549	-0.4120	7.91	1.92	-0.750			
0.6855	43872.25	3.2520	3.2520	-0.4050	7.92	1.93	-0.750			
0.6867	43949.64	3.2490	3.2491	-0.4000	7.92	1.93	-0.750			
0.6879	44026.32	3.2460	3.2459	-0.3934	7.94	1.95	-0.750			
0.6891	44100.06	3.2430	3.2430	-0.3852	7.95	1.96	-0.750			
0.6902	44172.76	3.2400	3.2400	-0.3785	7.96	1.97	-0.750			
0.6913	44245.29	3.2370	3.2370	-0.3768	7.97	1.98	-0.750			
0.6925	44317.28	3.2340	3.2339	-0.3724	7.98	1.99	-0.750			
0.6936	44388.38	3.2310	3.2310	-0.3670	8.00	2.01	-0.750			
0.6947	44458.67	3.2280	3.2280	-0.3623	8.01	2.02	-0.750			
0.6958	44528.42	3.2250	3.2252	-0.3568	8.02	2.03	-0.750			
0.6968	44596.33	3.2220	3.2220	-0.3515	8.03	2.04	-0.750			
0.6979	44662.89	3.2190	3.2190	-0.3461	8.05	2.06	-0.750			
0.6989	44728.15	3.2160	3.2161	-0.3419	8.06	2.07	-0.750			
0.6999	44793.44	3.2130	3.2130	-0.3382	8.07	2.08	-0.750			
0.7009	44858.15	3.2100	3.2100	-0.3350	8.08	2.09	-0.750			
0.7019	44922.00	3.2070	3.2070	-0.3309	8.09	2.10	-0.750			
0.7029	44985.74	3.2040	3.2040	-0.3281	8.10	2.11	-0.750			
0.7039	45048.04	3.2010	3.2010	-0.3231	8.11	2.12	-0.750			
0.7048	45109.73	3.1980	3.1980	-0.3198	8.12	2.13	-0.750			
0.7058	45170.44	3.1950	3.1950	-0.3159	8.13	2.14	-0.750			
0.7067	45231.20	3.1920	3.1920	-0.3121	8.14	2.15	-0.750			
0.7077	45290.90	3.1890	3.1889	-0.3088	8.15	2.16	-0.750			
0.7086	45350.00	3.1860	3.1861	-0.3046	8.16	2.17	-0.750			
0.7095	45407.98	3.1830	3.1830	-0.3013	8.18	2.19	-0.750			
0.7104	45465.31	3.1800	3.1800	-0.2984	8.19	2.20	-0.750			
0.7113	45521.83	3.1770	3.1769	-0.2946	8.20	2.21	-0.750			
0.7122	45578.25	3.1740	3.1740	-0.2914	8.21	2.22	-0.750			
0.7130	45634.36	3.1710	3.1710	-0.2895	8.22	2.23	-0.750			
0.7139	45689.25	3.1680	3.1681	-0.2865	8.23	2.24	-0.750			
0.7148	45744.30	3.1650	3.1650	-0.2855	8.25	2.26	-0.750			
0.7156	45798.48	3.1620	3.1620	-0.2829	8.26	2.27	-0.750			
0.7165	45852.95	3.1590	3.1590	-0.2801	8.27	2.28	-0.750			
0.7173	45906.90	3.1560	3.1560	-0.2768	8.28	2.29	-0.750			
0.7181	45959.85	3.1530	3.1530	-0.2739	8.29	2.30	-0.750			
0.7189	46011.94	3.1500	3.1501	-0.2702	8.30	2.31	-0.750			
0.7197	46063.05	3.1470	3.1469	-0.2672	8.31	2.32	-0.750			
0.7205	46113.63	3.1440	3.1440	-0.2642	8.32	2.33	-0.750			
0.7213	46164.42	3.1410	3.1410	-0.2624	8.33	2.34	-0.750			
0.7221	46214.74	3.1380	3.1380	-0.2615	8.34	2.35	-0.750			
0.7229	46264.81	3.1350	3.1350	-0.2602	8.35	2.36	-0.750			
0.7237	46314.66	3.1320	3.1320	-0.2576	8.36	2.37	-0.750			
0.7244	46364.21	3.1290	3.1290	-0.2559	8.37	2.38	-0.750			
0.7252	46413.07	3.1260	3.1260	-0.2540	8.38	2.39	-0.750			
0.7260	46461.56	3.1230	3.1231	-0.2514	8.39	2.40	-0.750			
0.7267	46509.46	3.1200	3.1200	-0.2499	8.40	2.41	-0.750			
0.7275	46557.60	3.1170	3.1170	-0.2477	8.41	2.42	-0.750			
0.7282	46604.34	3.1140	3.1141	-0.2459	8.42	2.43	-0.750			
0.7289	46651.34	3.1110	3.1110	-0.2449	8.43	2.44	-0.750			
0.7297	46698.65	3.1080	3.1081	-0.2433	8.44	2.45	-0.750			
0.7304	46745.14	3.1050	3.1049	-0.2414	8.45	2.46	-0.750			
0.7311	46791.55	3.1020	3.1021	-0.2383	8.46	2.47	-0.750			
0.7318	46837.02	3.0990	3.0990	-0.2371	8.47	2.48	-0.750			
0.7325	46882.02	3.0960	3.0960	-0.2351	8.48	2.49	-0.750			
0.7332	46927.22	3.0930	3.0930	-0.2338	8.49	2.50	-0.750			
0.7339	46971.10	3.0900	3.0899	-0.2323	8.50	2.51	-0.750			
0.7346	47015.84	3.0870	3.0871	-0.2324	8.51	2.52	-0.750			
0.7353	47060.83	3.0840	3.0840	-0.2313	8.52	2.53	-0.750			
0.7360	47105.69	3.0810	3.0809	-0.2289	8.53	2.54	-0.750			
0.7367	47149.70	3.0780	3.0780	-0.2279	8.54	2.55	-0.750			
0.7374	47192.91	3.0750	3.0751	-0.2246	8.55	2.56	-0.750			
0.7381	47235.66	3.0720	3.0720	-0.2234	8.56	2.57	-0.750			
0.7387	47277.70	3.0690	3.0689	-0.2219	8.57	2.58	-0.750			
0.7394	47320.41	3.0660	3.0660	-0.2209	8.59	2.60	-0.750			
0.7400	47363.07	3.0630	3.0629	-0.2201	8.60	2.61	-0.750			
0.7407	47405.45	3.0600	3.0600	-0.2195	8.61	2.62	-0.750			
0.7414	47448.00	3.0570	3.0570	-0.2189	8.63	2.64	-0.750			
0.7420	47489.73	3.0540	3.0540	-0.2166	8.64	2.65	-0.750			
0.7427	47530.96	3.0510	3.0510	-0.2150	8.65	2.66	-0.750			
0.7433	47571.98	3.0480	3.0480	-0.2133	8.66	2.67	-0.750			
0.7439	47612.51	3.0450	3.0450	-0.2119	8.67	2.68	-0.750			
0.7446	47653.22	3.0420	3.0420	-0.2113	8.68	2.69	-0.750			
0.7452	47693.64	3.0390	3.0390	-0.2102	8.69	2.70	-0.750			
0.7458	47733.92	3.0360	3.0359	-0.2094	8.70	2.71	-0.750			
0.7465	47773.95	3.0330	3.0330	-0.2087	8.71	2.72	-0.750			
0.7471	47813.96	3.0300	3.0301	-0.2087	8.72	2.73	-0.750			
0.7477	47854.15	3.0270	3.0269	-0.2073	8.72	2.73	-0.750			
0.7483	47894.04	3.0240	3.0240	-0.2056	8.73	2.74	-0.750			
0.7490	47933.62	3.0210	3.0210	-0.2043	8.74	2.75	-0.750			
0.7496	47973.12	3.0180	3.0180	-0.2015	8.75	2.76	-0.750			
0.7502	48011.35	3.0150	3.0150	-0.1993	8.76	2.77	-0.750			
0.7508	48049.20	3.0120	3.0120	-0.1961	8.76	2.77	-0.750			
0.7514	48086.60	3.0090	3.0091	-0.1935	8.77	2.78	-0.750			
0.7519	48123.17	3.0060	3.0059	-0.1925	8.78	2.79	-0.751			
0.7525	48160.07	3.0030	3.0031	-0.1930	8.78	2.79	-0.751			
