Ah_balance (normalized)	Ah_balance (mAh)	Voltage - fit (V)	Voltage -  interpolate (V)	dQ/dV (1/V)	Temperature (°C)	Temperature - diff (°C)	Current (C)	R_DC 0ms (mOhm)	R_DC 50ms (mOhm)	R_DC 50 ms PEC (mOhm)
0.0969	6199.03	4.1980	4.1909	0.5410	8.32	2.32	0.750	0.394	0.790	
0.0987	6317.84	4.1950	4.1977	0.6735	8.31	2.31	0.750			
0.1010	6466.16	4.1920	4.1941	0.7612	8.30	2.30	0.750			
0.1035	6625.74	4.1890	4.1905	0.7853	8.29	2.29	0.750			
0.1061	6791.20	4.1860	4.1866	0.8244	8.28	2.28	0.750			
0.1084	6937.17	4.1830	4.1835	0.7716	8.28	2.28	0.750			
0.1114	7131.93	4.1800	4.1792	0.8475	8.27	2.27	0.750			
0.1131	7237.24	4.1770	4.1770	0.7066	8.26	2.26	0.750			
0.1152	7374.10	4.1740	4.1741	0.7145	8.26	2.26	0.750			
0.1173	7508.94	4.1710	4.1711	0.7139	8.25	2.25	0.750			
0.1195	7646.66	4.1680	4.1678	0.7154	8.24	2.24	0.750			
0.1216	7783.26	4.1650	4.1651	0.7152	8.23	2.23	0.750			
0.1238	7923.14	4.1620	4.1621	0.7228	8.22	2.22	0.750			
0.1259	8060.70	4.1590	4.1590	0.7210	8.22	2.22	0.750			
0.1281	8199.62	4.1560	4.1560	0.7235	8.21	2.21	0.750			
0.1302	8335.41	4.1530	4.1531	0.7255	8.20	2.20	0.750			
0.1324	8475.99	4.1500	4.1495	0.7313	8.19	2.19	0.750			
0.1347	8618.93	4.1470	4.1472	0.7361	8.18	2.18	0.750			
0.1369	8760.85	4.1440	4.1440	0.7372	8.18	2.18	0.750			
0.1391	8904.84	4.1410	4.1411	0.7356	8.17	2.17	0.750			
0.1413	9044.74	4.1380	4.1380	0.7253	8.16	2.16	0.750			
0.1435	9182.73	4.1350	4.1350	0.7269	8.15	2.15	0.750			
0.1456	9321.22	4.1320	4.1319	0.7259	8.15	2.15	0.750			
0.1478	9459.70	4.1290	4.1290	0.7319	8.14	2.14	0.750			
0.1500	9600.51	4.1260	4.1260	0.7360	8.13	2.13	0.750			
0.1522	9741.65	4.1230	4.1230	0.7461	8.12	2.12	0.750			
0.1545	9886.66	4.1200	4.1199	0.7564	8.11	2.11	0.750			
0.1568	10034.18	4.1170	4.1169	0.7569	8.10	2.10	0.750			
0.1590	10178.52	4.1140	4.1140	0.7665	8.09	2.09	0.750			
0.1614	10328.29	4.1110	4.1111	0.7679	8.09	2.09	0.750			
0.1637	10476.05	4.1080	4.1079	0.7673	8.08	2.08	0.750			
0.1660	10623.16	4.1050	4.1049	0.7725	8.07	2.07	0.750			
0.1683	10769.70	4.1020	4.1021	0.7774	8.07	2.07	0.750			
0.1706	10920.31	4.0990	4.0989	0.7772	8.06	2.06	0.750			
0.1730	11070.80	4.0960	4.0960	0.7780	8.05	2.05	0.750			
0.1753	11218.08	4.0930	4.0931	0.7718	8.04	2.04	0.750			
0.1776	11368.37	4.0900	4.0900	0.7774	8.04	2.04	0.750			
0.1800	11517.38	4.0870	4.0870	0.7773	8.03	2.03	0.750			
0.1823	11665.21	4.0840	4.0838	0.7781	8.02	2.02	0.750			
0.1846	11812.00	4.0810	4.0812	0.7866	8.01	2.01	0.750			
0.1870	11967.29	4.0780	4.0780	0.7925	8.00	2.00	0.750			
0.1894	12119.26	4.0750	4.0749	0.8056	7.99	1.99	0.750			
0.1918	12276.57	4.0720	4.0720	0.8073	7.98	1.98	0.750			
0.1942	12430.88	4.0690	4.0690	0.8116	7.97	1.97	0.750			
0.1967	12587.19	4.0660	4.0661	0.8180	7.96	1.96	0.750			
0.1992	12746.26	4.0630	4.0630	0.8147	7.96	1.96	0.750			
0.2016	12901.33	4.0600	4.0599	0.8193	7.95	1.95	0.750			
0.2041	13059.61	4.0570	4.0571	0.8273	7.94	1.94	0.750			
0.2065	13215.96	4.0540	4.0540	0.8272	7.93	1.93	0.750			
0.2090	13378.21	4.0510	4.0510	0.8300	7.92	1.92	0.750			
0.2115	13537.08	4.0480	4.0480	0.8283	7.91	1.91	0.750			
0.2140	13695.62	4.0450	4.0451	0.8346	7.90	1.90	0.750			
0.2165	13857.11	4.0420	4.0420	0.8425	7.89	1.89	0.750			
0.2190	14016.49	4.0390	4.0389	0.8437	7.88	1.88	0.750			
0.2216	14179.74	4.0360	4.0359	0.8532	7.87	1.87	0.750			
0.2241	14345.56	4.0330	4.0331	0.8560	7.87	1.87	0.750			
0.2267	14511.25	4.0300	4.0301	0.8616	7.86	1.86	0.750			
0.2293	14676.79	4.0270	4.0270	0.8637	7.85	1.85	0.750			
0.2319	14843.60	4.0240	4.0238	0.8662	7.84	1.84	0.750			
0.2345	15008.81	4.0210	4.0209	0.8650	7.83	1.83	0.750			
0.2371	15175.32	4.0180	4.0181	0.8649	7.82	1.82	0.750			
0.2397	15342.03	4.0150	4.0151	0.8698	7.81	1.81	0.750			
0.2423	15510.06	4.0120	4.0120	0.8728	7.80	1.80	0.750			
0.2449	15675.14	4.0090	4.0088	0.8760	7.79	1.79	0.750			
0.2476	15844.90	4.0060	4.0060	0.8703	7.78	1.78	0.750			
0.2502	16010.87	4.0030	4.0030	0.8793	7.77	1.77	0.750			
0.2528	16180.35	4.0000	4.0000	0.8867	7.76	1.76	0.750			
0.2555	16350.96	3.9970	3.9970	0.8964	7.76	1.76	0.750			
0.2582	16522.50	3.9940	3.9938	0.9020	7.75	1.75	0.750			
0.2609	16697.64	3.9910	3.9910	0.9088	7.74	1.74	0.750			
0.2636	16872.91	3.9880	3.9881	0.9153	7.73	1.73	0.750			
0.2664	17051.92	3.9850	3.9849	0.9246	7.72	1.72	0.750			
0.2692	17227.16	3.9820	3.9820	0.9274	7.71	1.71	0.750			
0.2720	17406.25	3.9790	3.9790	0.9318	7.70	1.70	0.750			
0.2748	17586.66	3.9760	3.9760	0.9307	7.69	1.69	0.750			
0.2776	17767.83	3.9730	3.9730	0.9363	7.69	1.69	0.750			
0.2804	17947.24	3.9700	3.9701	0.9384	7.68	1.68	0.750			
0.2832	18126.51	3.9670	3.9669	0.9368	7.67	1.67	0.750			
0.2860	18305.16	3.9640	3.9640	0.9405	7.66	1.66	0.750			
0.2888	18483.30	3.9610	3.9610	0.9468	7.64	1.64	0.750			
0.2917	18665.96	3.9580	3.9581	0.9663	7.63	1.63	0.750			
0.2946	18854.75	3.9550	3.9547	0.9740	7.62	1.62	0.750			
0.2976	19043.58	3.9520	3.9520	0.9745	7.61	1.61	0.750			
0.3005	19231.00	3.9490	3.9491	0.9834	7.59	1.59	0.750			
0.3034	19420.53	3.9460	3.9460	0.9939	7.58	1.58	0.750			
0.3064	19609.68	3.9430	3.9430	0.9919	7.57	1.57	0.750			
0.3094	19804.40	3.9400	3.9399	0.9929	7.56	1.56	0.750			
0.3124	19991.26	3.9370	3.9371	1.0068	7.55	1.55	0.750			
0.3154	20186.47	3.9340	3.9341	1.0299	7.54	1.54	0.750			
0.3186	20387.87	3.9310	3.9309	1.0383	7.53	1.53	0.750			
0.3217	20587.29	3.9280	3.9279	1.0380	7.52	1.52	0.750			
0.3248	20787.02	3.9250	3.9252	1.0499	7.51	1.51	0.750			
0.3280	20989.11	3.9220	3.9222	1.0703	7.50	1.50	0.750			
0.3312	21198.61	3.9190	3.9188	1.0838	7.48	1.48	0.750			
0.3344	21404.67	3.9160	3.9160	1.0756	7.47	1.47	0.750			
0.3377	21610.79	3.9130	3.9130	1.0814	7.46	1.46	0.750			
0.3409	21820.12	3.9100	3.9103	1.0992	7.45	1.45	0.750			
0.3443	22032.29	3.9070	3.9068	1.1140	7.43	1.43	0.750			
0.3476	22245.23	3.9040	3.9039	1.1231	7.42	1.42	0.750			
0.3510	22461.31	3.9010	3.9010	1.1385	7.41	1.41	0.750			
0.3545	22687.33	3.8980	3.8980	1.1557	7.39	1.39	0.750			
0.3580	22913.60	3.8950	3.8950	1.1487	7.38	1.38	0.750			
0.3614	23130.67	3.8920	3.8920	1.1705	7.37	1.37	0.750			
0.3649	23352.06	3.8890	3.8891	1.1739	7.36	1.36	0.750			
0.3685	23581.99	3.8860	3.8858	1.1768	7.34	1.34	0.750			
0.3720	23806.24	3.8830	3.8832	1.1931	7.33	1.33	0.750			
0.3755	24035.02	3.8800	3.8803	1.2212	7.32	1.32	0.750			
0.3793	24272.76	3.8770	3.8771	1.2508	7.31	1.31	0.750			
0.3830	24514.89	3.8740	3.8739	1.2585	7.30	1.30	0.750	0.395	0.823	
0.3868	24757.93	3.8710	3.8712	1.2820	7.28	1.28	0.750			
0.3908	25010.97	3.8680	3.8681	1.3192	7.27	1.27	0.750			
0.3949	25270.45	3.8650	3.8648	1.3290	7.25	1.25	0.750			
0.3988	25520.96	3.8620	3.8620	1.3385	7.23	1.23	0.750			
0.4028	25779.09	3.8590	3.8592	1.3657	7.22	1.22	0.750			
0.4070	26044.96	3.8560	3.8557	1.3939	7.20	1.20	0.750			
0.4112	26316.57	3.8530	3.8530	1.4114	7.19	1.19	0.750			
0.4155	26589.61	3.8500	3.8500	1.4447	7.17	1.17	0.750			
0.4199	26870.85	3.8470	3.8469	1.4721	7.15	1.15	0.750			
0.4244	27159.55	3.8440	3.8439	1.4740	7.13	1.13	0.750			
0.4288	27443.44	3.8410	3.8411	1.4950	7.11	1.11	0.750			
0.4333	27731.58	3.8380	3.8381	1.5037	7.09	1.09	0.750			
0.4378	28017.30	3.8350	3.8349	1.5210	7.07	1.07	0.750			
0.4424	28310.78	3.8320	3.8321	1.5436	7.05	1.05	0.750			
0.4470	28606.56	3.8290	3.8291	1.5512	7.03	1.03	0.750			
0.4517	28910.93	3.8260	3.8259	1.5762	7.01	1.01	0.750			
0.4566	29219.99	3.8230	3.8230	1.6077	6.99	0.99	0.750			
0.4614	29528.83	3.8200	3.8195	1.6225	6.98	0.98	0.750			
0.4661	29832.93	3.8170	3.8173	1.6543	6.97	0.97	0.750			
0.4711	30152.08	3.8140	3.8139	1.6770	6.95	0.95	0.750			
0.4763	30480.31	3.8110	3.8107	1.7167	6.92	0.92	0.750			
0.4815	30818.49	3.8080	3.8081	1.7187	6.90	0.90	0.750			
0.4868	31152.15	3.8050	3.8051	1.7456	6.87	0.87	0.750			
0.4921	31492.02	3.8020	3.8020	1.7491	6.85	0.85	0.750			
0.4973	31824.43	3.7990	3.7990	1.7696	6.83	0.83	0.750			
0.5026	32163.28	3.7960	3.7959	1.7853	6.81	0.81	0.750			
0.5080	32513.26	3.7930	3.7929	1.8083	6.79	0.79	0.750			
0.5135	32861.88	3.7900	3.7900	1.8375	6.77	0.77	0.750			
0.5191	33220.36	3.7870	3.7870	1.8796	6.74	0.74	0.750			
0.5247	33580.65	3.7840	3.7839	1.8764	6.72	0.72	0.750			
0.5304	33944.79	3.7810	3.7809	1.9109	6.70	0.70	0.750			
0.5360	34306.45	3.7780	3.7785	1.9754	6.67	0.67	0.750			
0.5421	34693.47	3.7750	3.7747	2.0412	6.64	0.64	0.750			
0.5483	35092.10	3.7720	3.7719	2.0830	6.62	0.62	0.750			
0.5546	35496.64	3.7690	3.7691	2.1342	6.59	0.59	0.750			
0.5613	35923.90	3.7660	3.7659	2.2130	6.56	0.56	0.750			
0.5679	36343.25	3.7630	3.7630	2.2981	6.53	0.53	0.750			
0.5748	36785.60	3.7600	3.7599	2.4661	6.50	0.50	0.750			
0.5825	37281.58	3.7570	3.7569	2.5137	6.48	0.48	0.750			
0.5903	37781.55	3.7540	3.7542	2.6289	6.44	0.44	0.750			
0.5981	38280.34	3.7510	3.7508	2.6822	6.41	0.41	0.750			
0.6062	38794.93	3.7480	3.7481	2.8108	6.38	0.38	0.750			
0.6150	39360.62	3.7450	3.7450	2.9920	6.35	0.35	0.750			
0.6243	39952.66	3.7420	3.7422	3.1283	6.32	0.32	0.750			
0.6339	40569.54	3.7390	3.7389	3.1001	6.29	0.29	0.750			
0.6432	41167.58	3.7360	3.7361	3.0027	6.26	0.26	0.750			
0.6518	41717.88	3.7330	3.7330	2.6918	6.23	0.23	0.750			
0.6594	42202.96	3.7300	3.7300	2.3614	6.20	0.20	0.750			
0.6659	42617.25	3.7270	3.7274	2.0782	6.18	0.18	0.750			
0.6717	42989.01	3.7240	3.7238	1.7944	6.17	0.17	0.750			
0.6763	43285.01	3.7210	3.7211	1.5816	6.15	0.15	0.750			
0.6803	43541.59	3.7180	3.7181	1.3884	6.15	0.15	0.750			
0.6843	43793.42	3.7150	3.7149	1.2881	6.14	0.14	0.750			
0.6879	44022.72	3.7120	3.7120	1.2010	6.13	0.13	0.750			
0.6913	44246.22	3.7090	3.7092	1.1618	6.12	0.12	0.750			
0.6948	44467.04	3.7060	3.7057	1.1285	6.11	0.11	0.750			
0.6980	44674.28	3.7030	3.7030	1.0817	6.10	0.10	0.750			
0.7012	44879.51	3.7000	3.7000	1.0551	6.09	0.09	0.750			
0.7043	45077.15	3.6970	3.6971	1.0379	6.09	0.09	0.750			
0.7074	45276.01	3.6940	3.6938	1.0260	6.08	0.08	0.750			
0.7104	45468.05	3.6910	3.6910	0.9994	6.07	0.07	0.750			
0.7134	45658.35	3.6880	3.6879	0.9831	6.07	0.07	0.750			
0.7164	45846.94	3.6850	3.6852	0.9672	6.06	0.06	0.750			
0.7192	46031.70	3.6820	3.6819	0.9488	6.05	0.05	0.750			
0.7221	46213.51	3.6790	3.6790	0.9278	6.04	0.04	0.750			
0.7248	46386.46	3.6760	3.6759	0.9078	6.04	0.04	0.750			
0.7274	46554.86	3.6730	3.6732	0.8971	6.03	0.03	0.750			
0.7301	46727.07	3.6700	3.6699	0.8926	6.03	0.03	0.750			
0.7328	46897.87	3.6670	3.6669	0.8847	6.02	0.02	0.750			
0.7354	47068.53	3.6640	3.6641	0.8764	6.02	0.02	0.750			
0.7380	47235.12	3.6610	3.6610	0.8763	6.02	0.02	0.750			
0.7407	47404.10	3.6580	3.6580	0.8729	6.01	0.01	0.750			
0.7433	47570.34	3.6550	3.6549	0.8621	6.01	0.01	0.750			
0.7458	47734.19	3.6520	3.6520	0.8497	6.01	0.01	0.750			
0.7485	47901.42	3.6490	3.6490	0.8251	6.01	0.01	0.750			
0.7510	48064.85	3.6460	3.6459	0.7925	6.01	0.01	0.750			
0.7534	48216.62	3.6430	3.6430	0.7358	6.00	0.00	0.750			
0.7556	48357.71	3.6400	3.6400	0.6567	6.00	0.00	0.750			
0.7575	48479.63	3.6370	3.6371	0.5743	6.00	-0.00	0.750			
0.7591	48580.55	3.6340	3.6340	0.4780	6.00	-0.00	0.750			
0.7602	48650.44	3.6310	3.6314	0.4011	6.00	-0.00	0.750			
0.7612	48719.99	3.6280	3.6281	0.3334	6.00	-0.00	0.750			
0.7621	48773.03	3.6250	3.6248	0.2611	6.00	-0.00	0.750			
0.7627	48810.82	3.6220	3.6211	0.1953	6.00	-0.00	0.750			
0.7632	48842.00	3.6190	3.6060	0.1489	6.00	-0.00	0.750			
0.7632	48843.70	3.5980	3.5987	-0.1091	6.00	-0.00	0.750			
0.7633	48852.54	3.6160	3.4866	0.0937	6.00	-0.00	0.750			
0.7635	48861.39	3.6010	3.3652	-0.0753	6.00	-0.00	0.750			
0.7636	48867.29	3.6130	3.2844	0.0599	6.00	-0.00	0.750			
0.7636	48872.60	3.6040	3.2115	-0.0415	6.00	-0.00	0.750			
0.7637	48875.55	3.6100	3.1711	0.0261	6.00	-0.00	0.750			
0.7637	48877.32	3.6070	3.1468	-0.0077	5.99	-0.01	0.750			
