Ah_balance (normalized)	Ah_balance (mAh)	Voltage - fit (V)	Voltage -  interpolate (V)	dQ/dV (1/V)	Temperature (°C)	Temperature - diff (°C)	Current (C)	R_DC 0ms (mOhm)	R_DC 50ms (mOhm)	R_DC 50 ms PEC (mOhm)
0.0974	6231.59	4.1970	4.1990	0.6117	8.75	2.48	0.750			
0.0993	6353.87	4.1940	4.1961	0.6823	8.74	2.47	0.750			
0.1016	6499.49	4.1910	4.1929	0.7503	8.73	2.46	0.750			
0.1039	6647.46	4.1880	4.1897	0.7461	8.73	2.46	0.750			
0.1061	6792.94	4.1850	4.1859	0.7497	8.72	2.45	0.750			
0.1088	6966.15	4.1820	4.1822	0.7943	8.71	2.44	0.750			
0.1117	7151.85	4.1790	4.1781	0.8214	8.70	2.43	0.750			
0.1133	7249.10	4.1760	4.1760	0.7168	8.70	2.43	0.750			
0.1154	7385.19	4.1730	4.1731	0.7245	8.69	2.42	0.750			
0.1176	7527.54	4.1700	4.1700	0.7318	8.68	2.41	0.750			
0.1198	7668.20	4.1670	4.1669	0.7251	8.68	2.41	0.750			
0.1220	7807.96	4.1640	4.1642	0.7270	8.67	2.40	0.750			
0.1242	7947.81	4.1610	4.1611	0.7217	8.66	2.39	0.750			
0.1263	8086.34	4.1580	4.1578	0.7244	8.65	2.38	0.750			
0.1285	8222.50	4.1550	4.1550	0.7204	8.65	2.38	0.750			
0.1306	8360.66	4.1520	4.1519	0.7161	8.64	2.37	0.750			
0.1328	8500.41	4.1490	4.1491	0.7235	8.64	2.37	0.750			
0.1350	8639.35	4.1460	4.1460	0.7246	8.63	2.36	0.750			
0.1371	8775.97	4.1430	4.1430	0.7261	8.63	2.36	0.750			
0.1393	8916.06	4.1400	4.1399	0.7286	8.63	2.36	0.750			
0.1415	9056.01	4.1370	4.1369	0.7303	8.62	2.35	0.750			
0.1437	9197.34	4.1340	4.1340	0.7370	8.62	2.35	0.750			
0.1459	9340.44	4.1310	4.1311	0.7396	8.61	2.34	0.750			
0.1482	9481.83	4.1280	4.1281	0.7421	8.60	2.33	0.750			
0.1504	9624.70	4.1250	4.1250	0.7534	8.60	2.33	0.750			
0.1526	9768.83	4.1220	4.1218	0.7590	8.59	2.32	0.750			
0.1550	9917.37	4.1190	4.1189	0.7631	8.58	2.31	0.750			
0.1573	10064.65	4.1160	4.1161	0.7652	8.58	2.31	0.750			
0.1596	10214.05	4.1130	4.1130	0.7681	8.57	2.30	0.750			
0.1619	10362.26	4.1100	4.1100	0.7669	8.56	2.29	0.750			
0.1642	10506.44	4.1070	4.1069	0.7575	8.55	2.28	0.750			
0.1664	10652.40	4.1040	4.1041	0.7597	8.55	2.28	0.750			
0.1687	10797.03	4.1010	4.1010	0.7579	8.54	2.27	0.750			
0.1710	10942.09	4.0980	4.0980	0.7636	8.53	2.26	0.750			
0.1733	11089.27	4.0950	4.0949	0.7607	8.53	2.26	0.750			
0.1755	11235.06	4.0920	4.0920	0.7661	8.52	2.25	0.750			
0.1779	11382.84	4.0890	4.0891	0.7815	8.52	2.25	0.750			
0.1802	11532.05	4.0860	4.0860	0.7957	8.51	2.24	0.750			
0.1826	11686.75	4.0830	4.0829	0.8039	8.50	2.23	0.750			
0.1850	11841.93	4.0800	4.0800	0.8158	8.50	2.23	0.750			
0.1875	12000.57	4.0770	4.0771	0.8256	8.49	2.22	0.750			
0.1901	12163.63	4.0740	4.0740	0.8301	8.48	2.21	0.750			
0.1926	12324.73	4.0710	4.0709	0.8282	8.47	2.20	0.750			
0.1951	12483.54	4.0680	4.0682	0.8141	8.46	2.19	0.750			
0.1975	12640.21	4.0650	4.0650	0.8008	8.46	2.19	0.750			
0.1999	12791.82	4.0620	4.0621	0.7993	8.45	2.18	0.750			
0.2022	12938.93	4.0590	4.0590	0.8017	8.44	2.17	0.750			
0.2046	13091.23	4.0560	4.0560	0.8088	8.43	2.16	0.750			
0.2070	13247.92	4.0530	4.0530	0.8181	8.43	2.16	0.750			
0.2095	13408.47	4.0500	4.0501	0.8318	8.42	2.15	0.750			
0.2121	13571.52	4.0470	4.0471	0.8435	8.41	2.14	0.750			
0.2146	13735.88	4.0440	4.0439	0.8473	8.40	2.13	0.750			
0.2171	13896.28	4.0410	4.0410	0.8418	8.39	2.12	0.750			
0.2197	14058.14	4.0380	4.0381	0.8429	8.39	2.12	0.750			
0.2222	14221.47	4.0350	4.0350	0.8439	8.38	2.11	0.750			
0.2247	14382.13	4.0320	4.0320	0.8486	8.37	2.10	0.750			
0.2273	14544.52	4.0290	4.0290	0.8478	8.36	2.09	0.750			
0.2298	14706.05	4.0260	4.0260	0.8533	8.35	2.08	0.750			
0.2324	14870.76	4.0230	4.0230	0.8596	8.35	2.08	0.750			
0.2349	15035.24	4.0200	4.0202	0.8690	8.34	2.07	0.750			
0.2375	15202.90	4.0170	4.0170	0.8816	8.33	2.06	0.750			
0.2402	15374.37	4.0140	4.0140	0.8911	8.32	2.05	0.750			
0.2429	15546.51	4.0110	4.0108	0.8945	8.31	2.04	0.750			
0.2457	15722.55	4.0080	4.0081	0.8980	8.30	2.03	0.750			
0.2484	15894.45	4.0050	4.0051	0.8916	8.29	2.02	0.750			
0.2510	16065.02	4.0020	4.0020	0.8960	8.28	2.01	0.750			
0.2537	16235.83	3.9990	3.9990	0.8913	8.27	2.00	0.750			
0.2563	16403.86	3.9960	3.9959	0.8930	8.26	1.99	0.750			
0.2590	16576.20	3.9930	3.9931	0.8989	8.25	1.98	0.750			
0.2617	16750.29	3.9900	3.9900	0.9074	8.25	1.98	0.750			
0.2644	16924.13	3.9870	3.9871	0.9204	8.24	1.97	0.750			
0.2672	17101.95	3.9840	3.9840	0.9253	8.23	1.96	0.750			
0.2700	17281.82	3.9810	3.9809	0.9231	8.22	1.95	0.750			
0.2728	17461.60	3.9780	3.9781	0.9313	8.21	1.94	0.750			
0.2756	17639.56	3.9750	3.9751	0.9326	8.20	1.93	0.750			
0.2784	17820.28	3.9720	3.9720	0.9344	8.19	1.92	0.750			
0.2812	17997.25	3.9690	3.9688	0.9292	8.18	1.91	0.750			
0.2840	18176.22	3.9660	3.9661	0.9217	8.17	1.90	0.750			
0.2868	18352.60	3.9630	3.9631	0.9341	8.16	1.89	0.750			
0.2895	18530.11	3.9600	3.9600	0.9460	8.15	1.88	0.750			
0.2923	18709.36	3.9570	3.9571	0.9557	8.13	1.86	0.750			
0.2952	18895.52	3.9540	3.9540	0.9729	8.12	1.85	0.750			
0.2982	19085.98	3.9510	3.9510	0.9908	8.11	1.84	0.750			
0.3012	19279.00	3.9480	3.9480	1.0088	8.10	1.83	0.750			
0.3043	19477.49	3.9450	3.9451	1.0141	8.09	1.82	0.750			
0.3074	19673.57	3.9420	3.9420	1.0125	8.07	1.80	0.750			
0.3104	19867.70	3.9390	3.9389	1.0079	8.06	1.79	0.750			
0.3134	20060.65	3.9360	3.9361	1.0150	8.05	1.78	0.750			
0.3165	20255.53	3.9330	3.9330	1.0157	8.04	1.77	0.750			
0.3195	20449.76	3.9300	3.9300	1.0154	8.03	1.76	0.750			
0.3225	20642.86	3.9270	3.9271	1.0346	8.01	1.74	0.750			
0.3256	20841.58	3.9240	3.9240	1.0532	8.00	1.73	0.750			
0.3288	21045.16	3.9210	3.9211	1.0720	7.99	1.72	0.750			
0.3321	21253.95	3.9180	3.9180	1.0844	7.98	1.71	0.750			
0.3354	21464.34	3.9150	3.9151	1.0918	7.96	1.69	0.750			
0.3387	21678.08	3.9120	3.9120	1.1061	7.95	1.68	0.750			
0.3421	21891.20	3.9090	3.9090	1.1065	7.94	1.67	0.750			
0.3454	22102.41	3.9060	3.9061	1.1036	7.92	1.65	0.750			
0.3486	22312.87	3.9030	3.9030	1.1149	7.91	1.64	0.750			
0.3520	22526.24	3.9000	3.9001	1.1322	7.90	1.63	0.750			
0.3554	22747.13	3.8970	3.8968	1.1407	7.88	1.61	0.750			
0.3588	22965.24	3.8940	3.8941	1.1659	7.87	1.60	0.750			
0.3623	23189.99	3.8910	3.8911	1.1843	7.85	1.58	0.750			
0.3660	23423.90	3.8880	3.8879	1.1992	7.84	1.57	0.750			
0.3696	23653.50	3.8850	3.8849	1.2056	7.83	1.56	0.750			
0.3732	23884.85	3.8820	3.8822	1.2295	7.81	1.54	0.750			
0.3769	24121.26	3.8790	3.8792	1.2516	7.80	1.53	0.750			
0.3807	24367.19	3.8760	3.8758	1.2617	7.78	1.51	0.750	0.403	0.792	
0.3845	24607.63	3.8730	3.8731	1.2697	7.76	1.49	0.750			
0.3884	24856.43	3.8700	3.8700	1.2895	7.74	1.47	0.750			
0.3923	25108.49	3.8670	3.8670	1.2936	7.73	1.46	0.750			
0.3962	25355.31	3.8640	3.8641	1.3091	7.71	1.44	0.750			
0.4000	25599.84	3.8610	3.8610	1.3301	7.69	1.42	0.750			
0.4040	25858.52	3.8580	3.8580	1.3643	7.68	1.41	0.750			
0.4082	26123.96	3.8550	3.8550	1.3919	7.66	1.39	0.750			
0.4124	26394.64	3.8520	3.8521	1.4079	7.64	1.37	0.750			
0.4167	26671.39	3.8490	3.8490	1.4116	7.62	1.35	0.750			
0.4210	26941.56	3.8460	3.8457	1.4387	7.60	1.33	0.750			
0.4252	27211.64	3.8430	3.8430	1.4536	7.58	1.31	0.750			
0.4296	27492.59	3.8400	3.8400	1.4712	7.57	1.30	0.750			
0.4340	27777.70	3.8370	3.8369	1.4978	7.54	1.27	0.750			
0.4385	28066.20	3.8340	3.8343	1.5126	7.52	1.25	0.750			
0.4432	28365.60	3.8310	3.8307	1.5472	7.49	1.22	0.750			
0.4479	28663.64	3.8280	3.8281	1.5598	7.46	1.19	0.750			
0.4526	28968.49	3.8250	3.8248	1.5704	7.44	1.17	0.750			
0.4573	29268.38	3.8220	3.8221	1.5729	7.41	1.14	0.750			
0.4621	29572.90	3.8190	3.8191	1.5787	7.40	1.13	0.750			
0.4669	29879.39	3.8160	3.8160	1.5794	7.38	1.11	0.750			
0.4715	30179.18	3.8130	3.8131	1.5939	7.35	1.08	0.750			
0.4763	30482.43	3.8100	3.8101	1.5993	7.33	1.06	0.750			
0.4810	30785.50	3.8070	3.8070	1.6328	7.31	1.04	0.750			
0.4860	31104.72	3.8040	3.8040	1.6587	7.28	1.01	0.750			
0.4910	31421.04	3.8010	3.8011	1.6885	7.25	0.98	0.750			
0.4961	31747.55	3.7980	3.7980	1.7382	7.23	0.96	0.750			
0.5015	32095.43	3.7950	3.7950	1.7742	7.20	0.93	0.750			
0.5068	32435.88	3.7920	3.7919	1.7932	7.18	0.91	0.750			
0.5123	32790.21	3.7890	3.7890	1.7985	7.15	0.88	0.750			
0.5177	33130.15	3.7860	3.7860	1.8096	7.12	0.85	0.750			
0.5231	33481.49	3.7830	3.7830	1.8683	7.10	0.83	0.750			
0.5286	33830.17	3.7800	3.7797	1.9477	7.07	0.80	0.750			
0.5345	34208.45	3.7770	3.7769	2.0062	7.04	0.77	0.750			
0.5409	34614.42	3.7740	3.7742	2.0512	7.01	0.74	0.750			
0.5472	35022.63	3.7710	3.7712	2.1046	6.98	0.71	0.750			
0.5534	35415.08	3.7680	3.7679	2.1874	6.95	0.68	0.750			
0.5599	35831.12	3.7650	3.7649	2.2571	6.92	0.65	0.750			
0.5668	36274.85	3.7620	3.7619	2.3733	6.89	0.62	0.750			
0.5743	36754.51	3.7590	3.7591	2.4961	6.86	0.59	0.750			
0.5818	37233.65	3.7560	3.7560	2.6159	6.83	0.56	0.750			
0.5896	37732.81	3.7530	3.7530	2.8327	6.79	0.52	0.750			
0.5987	38318.32	3.7500	3.7500	2.9844	6.74	0.47	0.750			
0.6081	38917.28	3.7470	3.7471	3.0602	6.70	0.43	0.750			
0.6170	39489.20	3.7440	3.7440	3.0273	6.67	0.40	0.750			
0.6262	40074.25	3.7410	3.7410	2.9749	6.64	0.37	0.750			
0.6355	40668.85	3.7380	3.7380	2.8881	6.60	0.33	0.750			
0.6437	41194.16	3.7350	3.7350	2.5736	6.57	0.30	0.750			
0.6507	41646.56	3.7320	3.7323	2.2242	6.54	0.27	0.750			
0.6567	42031.83	3.7290	3.7289	1.9313	6.52	0.25	0.750			
0.6621	42373.96	3.7260	3.7259	1.7005	6.50	0.23	0.750			
0.6664	42652.53	3.7230	3.7229	1.5128	6.49	0.22	0.750			
0.6706	42918.19	3.7200	3.7200	1.4028	6.47	0.20	0.750			
0.6744	43162.54	3.7170	3.7170	1.2970	6.46	0.19	0.750			
0.6782	43406.50	3.7140	3.7139	1.2537	6.45	0.18	0.750			
0.6819	43640.74	3.7110	3.7110	1.2045	6.44	0.17	0.750			
0.6854	43865.99	3.7080	3.7081	1.1791	6.43	0.16	0.750			
0.6889	44089.89	3.7050	3.7049	1.1447	6.41	0.14	0.750			
0.6923	44306.88	3.7020	3.7018	1.1123	6.40	0.13	0.750			
0.6956	44518.06	3.6990	3.6992	1.0737	6.39	0.12	0.750			
0.6988	44721.57	3.6960	3.6961	1.0514	6.39	0.12	0.750			
0.7018	44917.69	3.6930	3.6930	1.0281	6.38	0.11	0.750			
0.7049	45111.06	3.6900	3.6899	1.0020	6.37	0.10	0.750			
0.7078	45300.52	3.6870	3.6870	0.9728	6.36	0.09	0.750			
0.7107	45486.40	3.6840	3.6841	0.9687	6.35	0.08	0.750			
0.7136	45669.15	3.6810	3.6811	0.9573	6.34	0.07	0.750			
0.7164	45850.68	3.6780	3.6780	0.9558	6.33	0.06	0.750			
0.7192	46031.21	3.6750	3.6748	0.9454	6.32	0.05	0.750			
0.7221	46213.01	3.6720	3.6721	0.9397	6.31	0.04	0.750			
0.7250	46396.99	3.6690	3.6691	0.9371	6.31	0.04	0.750			
0.7278	46576.46	3.6660	3.6661	0.9290	6.31	0.04	0.750			
0.7305	46750.25	3.6630	3.6629	0.9289	6.30	0.03	0.750			
0.7332	46927.03	3.6600	3.6600	0.9244	6.29	0.02	0.750			
0.7360	47102.86	3.6570	3.6569	0.9360	6.29	0.02	0.750			
0.7388	47285.89	3.6540	3.6540	0.9443	6.28	0.01	0.750			
0.7418	47473.59	3.6510	3.6510	0.9241	6.27	0.00	0.750			
0.7446	47655.35	3.6480	3.6480	0.8920	6.27	0.00	0.750			
0.7474	47831.39	3.6450	3.6451	0.8251	6.27	0.00	0.750			
0.7498	47984.99	3.6420	3.6420	0.7316	6.27	0.00	0.750			
0.7519	48121.18	3.6390	3.6390	0.6327	6.27	0.00	0.750			
0.7536	48227.92	3.6360	3.6360	0.5184	6.27	0.00	0.750			
0.7546	48295.31	3.6330	3.6338	0.4309	6.27	0.00	0.750			
0.7558	48370.56	3.6300	3.6303	0.3580	6.27	0.00	0.750			
0.7567	48426.84	3.6270	3.6271	0.2746	6.27	0.00	0.750			
0.7574	48471.18	3.6240	3.6234	0.2185	6.27	0.00	0.750			
0.7578	48500.79	3.6210	3.6184	0.1609	6.27	0.00	0.750			
0.7581	48519.03	3.5970	3.5341	-0.1028	6.27	0.00	0.746			
0.7582	48524.68	3.6180	3.4498	0.1194	6.27	0.00	0.736			
0.7583	48534.34	3.6150	3.3054	0.0762	6.27	0.00	0.721			
0.7584	48535.91	3.6000	3.2820	-0.0730	6.27	0.00	0.718			
0.7585	48546.11	3.6120	3.1295	0.0464	6.27	0.00	0.701			
0.7585	48547.05	3.6030	3.1154	-0.0431	6.27	0.00	0.700			
0.7586	48552.16	3.6090	3.0392	0.0166	6.27	0.00	0.691			
0.7586	48552.47	3.6060	3.0345	-0.0133	6.27	0.00	0.691			
