Ah_balance (normalized)	Ah_balance (mAh)	Voltage - fit (V)	Voltage -  interpolate (V)	dQ/dV (1/V)	Temperature (°C)	Temperature - diff (°C)	Current (C)	R_DC 0ms (mOhm)	R_DC 50ms (mOhm)	R_DC 50 ms PEC (mOhm)
0.0961	6152.42	4.1990	4.1954	0.8058	8.41	2.20	0.750	0.366	0.792	
0.0981	6280.92	4.1960	4.1981	0.6346	8.41	2.20	0.750			
0.1003	6417.49	4.1930	4.1951	0.7308	8.40	2.19	0.750			
0.1027	6573.04	4.1900	4.1915	0.7706	8.40	2.19	0.750			
0.1051	6726.67	4.1870	4.1884	0.7882	8.39	2.18	0.750			
0.1075	6878.49	4.1840	4.1847	0.7709	8.38	2.17	0.750			
0.1101	7045.29	4.1810	4.1810	0.7765	8.38	2.17	0.750			
0.1122	7179.07	4.1780	4.1780	0.6984	8.37	2.16	0.750			
0.1143	7315.45	4.1750	4.1751	0.7017	8.37	2.16	0.750			
0.1164	7450.93	4.1720	4.1720	0.7092	8.36	2.15	0.750			
0.1186	7588.22	4.1690	4.1690	0.7079	8.36	2.15	0.750			
0.1207	7724.26	4.1660	4.1659	0.7079	8.35	2.14	0.750			
0.1228	7860.10	4.1630	4.1632	0.7085	8.35	2.14	0.750			
0.1249	7996.10	4.1600	4.1600	0.7090	8.34	2.13	0.750			
0.1271	8131.99	4.1570	4.1569	0.7058	8.34	2.13	0.750			
0.1292	8267.51	4.1540	4.1540	0.7158	8.33	2.12	0.750			
0.1313	8405.66	4.1510	4.1510	0.7204	8.33	2.12	0.750			
0.1335	8544.06	4.1480	4.1479	0.7281	8.32	2.11	0.750			
0.1357	8684.24	4.1450	4.1452	0.7336	8.32	2.11	0.750			
0.1379	8827.90	4.1420	4.1419	0.7324	8.31	2.10	0.750			
0.1401	8968.08	4.1390	4.1390	0.7307	8.31	2.10	0.750			
0.1423	9106.97	4.1360	4.1362	0.7274	8.30	2.09	0.750			
0.1445	9246.19	4.1330	4.1331	0.7405	8.30	2.09	0.750			
0.1467	9388.82	4.1300	4.1298	0.7456	8.29	2.08	0.750			
0.1490	9533.14	4.1270	4.1269	0.7463	8.28	2.07	0.750			
0.1512	9679.75	4.1240	4.1241	0.7501	8.28	2.07	0.750			
0.1535	9824.55	4.1210	4.1211	0.7556	8.27	2.06	0.750			
0.1558	9969.06	4.1180	4.1181	0.7544	8.27	2.06	0.750			
0.1580	10111.41	4.1150	4.1149	0.7525	8.26	2.05	0.750			
0.1602	10254.33	4.1120	4.1120	0.7572	8.26	2.05	0.750			
0.1625	10401.94	4.1090	4.1091	0.7664	8.25	2.04	0.750			
0.1648	10550.06	4.1060	4.1060	0.7761	8.25	2.04	0.750			
0.1672	10702.53	4.1030	4.1029	0.7801	8.24	2.03	0.750			
0.1695	10851.15	4.1000	4.1001	0.7773	8.23	2.02	0.750			
0.1719	10999.69	4.0970	4.0971	0.7789	8.23	2.02	0.750			
0.1742	11148.88	4.0940	4.0939	0.7818	8.22	2.01	0.750			
0.1766	11299.39	4.0910	4.0910	0.7762	8.22	2.01	0.750			
0.1789	11447.21	4.0880	4.0879	0.7819	8.21	2.00	0.750			
0.1812	11597.41	4.0850	4.0852	0.7874	8.21	2.00	0.750			
0.1836	11751.23	4.0820	4.0819	0.7936	8.20	1.99	0.750			
0.1860	11902.58	4.0790	4.0789	0.7973	8.20	1.99	0.750			
0.1884	12059.12	4.0760	4.0761	0.7911	8.19	1.98	0.750			
0.1908	12210.54	4.0730	4.0730	0.7954	8.18	1.97	0.750			
0.1932	12362.17	4.0700	4.0700	0.8030	8.18	1.97	0.750			
0.1955	12512.11	4.0670	4.0673	0.8013	8.17	1.96	0.750			
0.1979	12667.63	4.0640	4.0641	0.8083	8.17	1.96	0.750			
0.2004	12826.01	4.0610	4.0610	0.8136	8.16	1.95	0.750			
0.2028	12982.15	4.0580	4.0581	0.8235	8.15	1.94	0.750			
0.2054	13144.82	4.0550	4.0549	0.8302	8.15	1.94	0.750			
0.2078	13302.17	4.0520	4.0520	0.8260	8.14	1.93	0.750			
0.2103	13459.40	4.0490	4.0493	0.8264	8.14	1.93	0.750			
0.2128	13618.46	4.0460	4.0460	0.8268	8.13	1.92	0.750			
0.2153	13777.25	4.0430	4.0430	0.8367	8.13	1.92	0.750			
0.2178	13937.02	4.0400	4.0400	0.8441	8.12	1.91	0.750			
0.2203	14099.56	4.0370	4.0370	0.8506	8.11	1.90	0.750			
0.2229	14265.76	4.0340	4.0339	0.8539	8.11	1.90	0.750			
0.2255	14430.87	4.0310	4.0311	0.8550	8.10	1.89	0.750			
0.2281	14596.21	4.0280	4.0280	0.8513	8.09	1.88	0.750			
0.2306	14760.79	4.0250	4.0249	0.8467	8.09	1.88	0.750			
0.2331	14918.15	4.0220	4.0220	0.8469	8.08	1.87	0.750			
0.2356	15079.86	4.0190	4.0191	0.8572	8.08	1.87	0.750			
0.2382	15244.89	4.0160	4.0159	0.8640	8.07	1.86	0.750			
0.2408	15412.31	4.0130	4.0130	0.8723	8.06	1.85	0.750			
0.2435	15582.15	4.0100	4.0100	0.8742	8.05	1.84	0.750			
0.2461	15750.53	4.0070	4.0070	0.8817	8.04	1.83	0.750			
0.2488	15922.13	4.0040	4.0040	0.8812	8.03	1.82	0.750			
0.2514	16088.15	4.0010	4.0008	0.8797	8.02	1.81	0.750			
0.2540	16254.52	3.9980	3.9981	0.8885	8.02	1.81	0.750			
0.2567	16427.22	3.9950	3.9951	0.9010	8.01	1.80	0.750			
0.2594	16602.53	3.9920	3.9918	0.9109	8.00	1.79	0.750			
0.2622	16780.83	3.9890	3.9890	0.9134	7.99	1.78	0.750			
0.2649	16954.49	3.9860	3.9862	0.9194	7.99	1.78	0.750			
0.2677	17134.15	3.9830	3.9830	0.9235	7.98	1.77	0.750			
0.2705	17310.15	3.9800	3.9799	0.9225	7.97	1.76	0.750			
0.2732	17486.64	3.9770	3.9772	0.9279	7.97	1.76	0.750			
0.2760	17663.95	3.9740	3.9740	0.9289	7.96	1.75	0.750			
0.2788	17841.66	3.9710	3.9710	0.9361	7.95	1.74	0.750			
0.2816	18022.88	3.9680	3.9681	0.9416	7.95	1.74	0.750			
0.2844	18203.43	3.9650	3.9647	0.9465	7.94	1.73	0.750			
0.2873	18388.02	3.9620	3.9621	0.9450	7.93	1.72	0.750			
0.2901	18567.14	3.9590	3.9591	0.9598	7.92	1.71	0.750			
0.2930	18751.82	3.9560	3.9561	0.9696	7.91	1.70	0.750			
0.2959	18939.10	3.9530	3.9528	0.9709	7.90	1.69	0.750			
0.2989	19128.37	3.9500	3.9500	0.9748	7.89	1.68	0.750			
0.3019	19318.61	3.9470	3.9472	0.9807	7.88	1.67	0.750			
0.3048	19505.62	3.9440	3.9441	0.9853	7.87	1.66	0.750			
0.3077	19694.47	3.9410	3.9409	0.9835	7.86	1.65	0.750			
0.3107	19882.61	3.9380	3.9380	0.9906	7.86	1.65	0.750			
0.3136	20072.27	3.9350	3.9349	1.0016	7.85	1.64	0.750			
0.3167	20266.95	3.9320	3.9321	1.0121	7.84	1.63	0.750			
0.3197	20463.91	3.9290	3.9289	1.0177	7.83	1.62	0.750			
0.3228	20661.73	3.9260	3.9261	1.0266	7.83	1.62	0.750			
0.3259	20855.65	3.9230	3.9231	1.0363	7.82	1.61	0.750			
0.3290	21056.56	3.9200	3.9199	1.0543	7.81	1.60	0.750			
0.3321	21257.20	3.9170	3.9170	1.0725	7.80	1.59	0.750			
0.3354	21468.23	3.9140	3.9140	1.0818	7.78	1.57	0.750			
0.3388	21680.58	3.9110	3.9110	1.1057	7.77	1.56	0.750			
0.3421	21895.38	3.9080	3.9080	1.1118	7.76	1.55	0.750			
0.3455	22109.37	3.9050	3.9051	1.1193	7.74	1.53	0.750			
0.3488	22322.87	3.9020	3.9021	1.1176	7.73	1.52	0.750			
0.3522	22537.87	3.8990	3.8990	1.1225	7.73	1.52	0.750			
0.3555	22749.55	3.8960	3.8961	1.1452	7.72	1.51	0.750			
0.3590	22974.34	3.8930	3.8928	1.1576	7.71	1.50	0.750			
0.3624	23195.15	3.8900	3.8900	1.1794	7.70	1.49	0.750			
0.3660	23426.23	3.8870	3.8870	1.1957	7.68	1.47	0.750			
0.3697	23662.84	3.8840	3.8841	1.1966	7.67	1.46	0.750			
0.3733	23892.30	3.8810	3.8812	1.2088	7.65	1.44	0.750			
0.3769	24121.27	3.8780	3.8782	1.2224	7.64	1.43	0.750			
0.3805	24353.08	3.8750	3.8751	1.2344	7.62	1.41	0.750	0.390	0.805	
0.3843	24594.17	3.8720	3.8720	1.2568	7.61	1.40	0.750			
0.3880	24834.74	3.8690	3.8691	1.2747	7.60	1.39	0.750			
0.3919	25082.86	3.8660	3.8661	1.3040	7.59	1.38	0.750			
0.3960	25343.42	3.8630	3.8628	1.3189	7.58	1.37	0.750			
0.3998	25588.85	3.8600	3.8601	1.3379	7.56	1.35	0.750			
0.4039	25850.75	3.8570	3.8570	1.3550	7.54	1.33	0.750			
0.4081	26118.10	3.8540	3.8538	1.3618	7.52	1.31	0.750			
0.4122	26377.85	3.8510	3.8511	1.3879	7.51	1.30	0.750			
0.4163	26640.33	3.8480	3.8483	1.4175	7.49	1.28	0.750			
0.4205	26914.05	3.8450	3.8448	1.4516	7.47	1.26	0.750			
0.4249	27196.23	3.8420	3.8421	1.4691	7.46	1.25	0.750			
0.4295	27485.70	3.8390	3.8391	1.4963	7.44	1.23	0.750			
0.4342	27786.75	3.8360	3.8360	1.5338	7.42	1.21	0.750			
0.4388	28081.26	3.8330	3.8330	1.5400	7.40	1.19	0.750			
0.4433	28371.14	3.8300	3.8301	1.5404	7.38	1.17	0.750			
0.4479	28665.46	3.8270	3.8272	1.5344	7.36	1.15	0.750			
0.4524	28955.03	3.8240	3.8241	1.5790	7.34	1.13	0.750			
0.4572	29259.97	3.8210	3.8209	1.6159	7.31	1.10	0.750			
0.4621	29574.65	3.8180	3.8177	1.6430	7.29	1.08	0.750			
0.4672	29900.20	3.8150	3.8151	1.6744	7.27	1.06	0.750			
0.4723	30226.41	3.8120	3.8123	1.6759	7.26	1.05	0.750			
0.4774	30555.75	3.8090	3.8092	1.7098	7.23	1.02	0.750			
0.4825	30881.39	3.8060	3.8058	1.6981	7.21	1.00	0.750			
0.4874	31195.74	3.8030	3.8027	1.6941	7.18	0.97	0.750			
0.4926	31525.39	3.8000	3.8002	1.7141	7.16	0.95	0.750			
0.4977	31855.84	3.7970	3.7971	1.7362	7.13	0.92	0.750			
0.5030	32193.95	3.7940	3.7939	1.7593	7.11	0.90	0.750			
0.5083	32530.18	3.7910	3.7910	1.7783	7.08	0.87	0.750			
0.5136	32872.60	3.7880	3.7880	1.8020	7.06	0.85	0.750			
0.5191	33224.24	3.7850	3.7850	1.8442	7.03	0.82	0.750			
0.5246	33573.58	3.7820	3.7818	1.9049	7.01	0.80	0.750			
0.5305	33951.75	3.7790	3.7789	1.9416	6.98	0.77	0.750			
0.5363	34326.28	3.7760	3.7759	1.9959	6.96	0.75	0.750			
0.5424	34711.90	3.7730	3.7733	2.0741	6.93	0.72	0.750			
0.5487	35118.56	3.7700	3.7698	2.1270	6.90	0.69	0.750			
0.5552	35530.36	3.7670	3.7670	2.1648	6.87	0.66	0.750			
0.5617	35949.07	3.7640	3.7642	2.2514	6.84	0.63	0.750			
0.5685	36386.86	3.7610	3.7610	2.3569	6.81	0.60	0.750			
0.5757	36841.88	3.7580	3.7579	2.4550	6.78	0.57	0.750			
0.5834	37336.83	3.7550	3.7550	2.5866	6.74	0.53	0.750			
0.5914	37847.64	3.7520	3.7519	2.6839	6.70	0.49	0.750			
0.5994	38359.52	3.7490	3.7489	2.8789	6.67	0.46	0.750			
0.6083	38933.80	3.7460	3.7459	2.9902	6.64	0.43	0.750			
0.6177	39533.11	3.7430	3.7432	3.0991	6.60	0.39	0.750			
0.6268	40112.75	3.7400	3.7401	3.0508	6.56	0.35	0.750			
0.6360	40707.00	3.7370	3.7371	2.9871	6.53	0.32	0.750			
0.6452	41292.96	3.7340	3.7341	2.8012	6.50	0.29	0.750			
0.6532	41807.77	3.7310	3.7310	2.4905	6.47	0.26	0.750			
0.6601	42244.61	3.7280	3.7279	2.1838	6.45	0.24	0.750			
0.6659	42615.13	3.7250	3.7249	1.8715	6.43	0.22	0.750			
0.6711	42949.28	3.7220	3.7218	1.6620	6.41	0.20	0.750			
0.6755	43231.24	3.7190	3.7191	1.4897	6.40	0.19	0.750			
0.6795	43488.40	3.7160	3.7159	1.3479	6.38	0.17	0.750			
0.6833	43729.30	3.7130	3.7129	1.2564	6.37	0.16	0.750			
0.6869	43961.18	3.7100	3.7100	1.1862	6.36	0.15	0.750			
0.6904	44184.38	3.7070	3.7070	1.1543	6.35	0.14	0.750			
0.6937	44399.58	3.7040	3.7040	1.1197	6.34	0.13	0.750			
0.6970	44610.74	3.7010	3.7010	1.0843	6.33	0.12	0.750			
0.7002	44814.94	3.6980	3.6981	1.0666	6.32	0.11	0.750			
0.7034	45016.26	3.6950	3.6950	1.0488	6.31	0.10	0.750			
0.7065	45215.02	3.6920	3.6920	1.0411	6.31	0.10	0.750			
0.7096	45415.45	3.6890	3.6889	1.0242	6.30	0.09	0.750			
0.7127	45609.90	3.6860	3.6861	0.9955	6.29	0.08	0.750			
0.7156	45800.45	3.6830	3.6831	0.9847	6.28	0.07	0.750			
0.7186	45989.34	3.6800	3.6802	0.9695	6.27	0.06	0.750			
0.7214	46171.72	3.6770	3.6765	0.9492	6.26	0.05	0.750			
0.7242	46351.73	3.6740	3.6741	0.9274	6.25	0.04	0.750			
0.7270	46527.21	3.6710	3.6711	0.9133	6.25	0.04	0.750			
0.7298	46705.33	3.6680	3.6680	0.9080	6.24	0.03	0.750			
0.7324	46875.53	3.6650	3.6650	0.9005	6.23	0.02	0.750			
0.7350	47040.35	3.6620	3.6621	0.8895	6.23	0.02	0.750			
0.7377	47212.16	3.6590	3.6590	0.8916	6.22	0.01	0.750			
0.7404	47382.45	3.6560	3.6559	0.8961	6.22	0.01	0.750			
0.7431	47557.09	3.6530	3.6530	0.8988	6.22	0.01	0.750			
0.7458	47732.42	3.6500	3.6500	0.8899	6.21	0.00	0.750			
0.7486	47909.45	3.6470	3.6469	0.8630	6.21	0.00	0.750			
0.7512	48074.29	3.6440	3.6440	0.8134	6.21	0.00	0.750			
0.7536	48232.77	3.6410	3.6411	0.7437	6.21	0.00	0.750			
0.7558	48371.41	3.6380	3.6380	0.6567	6.21	0.00	0.750			
0.7576	48487.43	3.6350	3.6351	0.5600	6.21	0.00	0.750			
0.7591	48585.40	3.6320	3.6321	0.4615	6.21	0.00	0.750			
0.7602	48652.11	3.6290	3.6294	0.3926	6.21	0.00	0.750			
0.7612	48719.08	3.6260	3.6262	0.3229	6.21	0.00	0.750			
0.7620	48767.69	3.6230	3.6229	0.2467	6.21	0.00	0.750			
0.7626	48803.48	3.6200	3.6187	0.1834	6.21	0.00	0.750			
0.7630	48829.61	3.5960	3.5931	-0.1168	6.21	0.00	0.750			
0.7630	48830.39	3.6170	3.5856	0.1351	6.21	0.00	0.750			
0.7632	48845.38	3.6140	3.3634	0.0894	6.21	0.00	0.740			
0.7633	48848.73	3.5990	3.3132	-0.0824	6.21	0.00	0.738			
0.7634	48859.24	3.6110	3.1559	0.0550	6.21	0.00	0.730			
0.7635	48861.26	3.6020	3.1258	-0.0480	6.21	0.00	0.729			
0.7635	48866.51	3.6080	3.0471	0.0207	6.21	0.00	0.725			
0.7635	48867.18	3.6050	3.0371	-0.0137	6.21	0.00	0.725			
