Ah_balance (normalized)	Ah_balance (mAh)	Voltage - fit (V)	Voltage -  interpolate (V)	dQ/dV (1/V)	Temperature (°C)	Temperature - diff (°C)	Current (C)	R_DC 0ms (mOhm)	R_DC 50ms (mOhm)	R_DC 50 ms PEC (mOhm)
0.0001	8.10	4.1030	4.1017	-0.0127	5.99	0.00	-0.750			
0.0002	15.16	4.1000	4.0990	-0.0492	5.99	0.00	-0.750			
0.0004	27.56	4.0970	4.0965	-0.0801	5.99	0.00	-0.750			
0.0007	46.91	4.0940	4.0938	-0.1087	5.99	0.00	-0.750			
0.0011	71.28	4.0910	4.0910	-0.1343	5.99	0.00	-0.750			
0.0016	99.81	4.0880	4.0881	-0.1599	5.99	0.00	-0.750			
0.0021	133.23	4.0850	4.0852	-0.1829	5.99	0.00	-0.750			
0.0027	173.01	4.0820	4.0820	-0.2071	5.99	0.00	-0.750			
0.0034	214.58	4.0790	4.0789	-0.2282	5.99	0.00	-0.750			
0.0041	259.66	4.0760	4.0761	-0.2511	5.99	0.00	-0.750			
0.0049	310.54	4.0730	4.0729	-0.2724	5.99	0.00	-0.750			
0.0057	364.64	4.0700	4.0700	-0.2951	5.99	0.00	-0.750			
0.0066	423.52	4.0670	4.0670	-0.3184	5.99	0.00	-0.750			
0.0076	486.66	4.0640	4.0640	-0.3406	5.99	0.00	-0.750			
0.0087	554.61	4.0610	4.0609	-0.3638	5.99	0.00	-0.750			
0.0098	626.54	4.0580	4.0581	-0.3841	5.99	0.00	-0.750			
0.0110	701.81	4.0550	4.0550	-0.4090	5.99	0.00	-0.750			
0.0122	783.24	4.0520	4.0520	-0.4321	5.99	0.00	-0.750			
0.0136	868.13	4.0490	4.0488	-0.4526	5.99	0.00	-0.750			
0.0150	957.48	4.0460	4.0460	-0.4721	5.99	0.00	-0.750			
0.0164	1049.83	4.0430	4.0430	-0.4951	5.99	0.00	-0.750			
0.0179	1147.48	4.0400	4.0400	-0.5154	5.99	0.00	-0.750			
0.0195	1249.19	4.0370	4.0369	-0.5318	5.99	0.00	-0.750			
0.0211	1352.89	4.0340	4.0340	-0.5441	6.00	0.01	-0.750			
0.0228	1459.67	4.0310	4.0311	-0.5601	6.00	0.01	-0.750			
0.0245	1567.39	4.0280	4.0280	-0.5832	6.00	0.01	-0.750			
0.0263	1682.38	4.0250	4.0249	-0.5939	6.01	0.02	-0.750			
0.0281	1796.64	4.0220	4.0219	-0.6057	6.01	0.02	-0.750			
0.0299	1915.62	4.0190	4.0190	-0.6192	6.02	0.03	-0.750			
0.0318	2037.69	4.0160	4.0160	-0.6321	6.02	0.03	-0.750			
0.0337	2159.52	4.0130	4.0129	-0.6423	6.03	0.04	-0.750			
0.0357	2283.66	4.0100	4.0100	-0.6456	6.03	0.04	-0.750			
0.0376	2406.85	4.0070	4.0070	-0.6572	6.04	0.05	-0.750			
0.0396	2536.75	4.0040	4.0040	-0.6712	6.04	0.05	-0.750			
0.0417	2666.51	4.0010	4.0009	-0.6751	6.05	0.06	-0.750			
0.0437	2796.92	3.9980	3.9983	-0.6803	6.05	0.06	-0.750			
0.0457	2927.86	3.9950	3.9950	-0.6888	6.06	0.07	-0.750			
0.0478	3059.96	3.9920	3.9921	-0.6956	6.06	0.07	-0.750			
0.0499	3193.89	3.9890	3.9889	-0.7048	6.07	0.08	-0.750			
0.0521	3331.69	3.9860	3.9860	-0.7095	6.08	0.09	-0.750			
0.0542	3468.93	3.9830	3.9830	-0.7097	6.08	0.09	-0.750			
0.0563	3606.28	3.9800	3.9802	-0.7174	6.09	0.10	-0.750			
0.0585	3743.62	3.9770	3.9771	-0.7183	6.10	0.11	-0.750			
0.0606	3879.42	3.9740	3.9739	-0.7199	6.10	0.11	-0.750			
0.0628	4018.92	3.9710	3.9710	-0.7242	6.11	0.12	-0.750			
0.0650	4158.04	3.9680	3.9681	-0.7289	6.12	0.13	-0.750			
0.0672	4299.36	3.9650	3.9651	-0.7351	6.13	0.14	-0.750			
0.0694	4442.60	3.9620	3.9619	-0.7364	6.13	0.14	-0.750			
0.0716	4582.94	3.9590	3.9590	-0.7353	6.14	0.15	-0.750			
0.0738	4723.46	3.9560	3.9560	-0.7375	6.15	0.16	-0.750			
0.0760	4865.39	3.9530	3.9531	-0.7413	6.16	0.17	-0.750			
0.0783	5008.19	3.9500	3.9499	-0.7430	6.17	0.18	-0.750			
0.0805	5150.74	3.9470	3.9470	-0.7428	6.18	0.19	-0.750			
0.0827	5294.06	3.9440	3.9441	-0.7461	6.19	0.20	-0.750			
0.0850	5437.89	3.9410	3.9410	-0.7521	6.19	0.20	-0.750			
0.0872	5582.21	3.9380	3.9380	-0.7495	6.20	0.21	-0.750			
0.0895	5725.47	3.9350	3.9350	-0.7512	6.21	0.22	-0.750			
0.0917	5869.39	3.9320	3.9319	-0.7549	6.21	0.22	-0.750			
0.0940	6014.89	3.9290	3.9291	-0.7606	6.22	0.23	-0.750			
0.0963	6160.88	3.9260	3.9259	-0.7659	6.23	0.24	-0.750			
0.0986	6309.52	3.9230	3.9230	-0.7650	6.24	0.25	-0.750			
0.1009	6458.07	3.9200	3.9201	-0.7687	6.25	0.26	-0.750			
0.1032	6606.95	3.9170	3.9170	-0.7667	6.26	0.27	-0.750			
0.1055	6752.86	3.9140	3.9140	-0.7629	6.27	0.28	-0.750			
0.1078	6897.64	3.9110	3.9109	-0.7612	6.28	0.29	-0.750			
0.1100	7043.02	3.9080	3.9079	-0.7611	6.29	0.30	-0.750			
0.1123	7187.72	3.9050	3.9051	-0.7672	6.30	0.31	-0.750			
0.1146	7336.56	3.9020	3.9021	-0.7705	6.30	0.31	-0.750			
0.1170	7485.39	3.8990	3.8989	-0.7762	6.31	0.32	-0.750			
0.1193	7635.34	3.8960	3.8960	-0.7852	6.32	0.33	-0.750			
0.1216	7784.82	3.8930	3.8929	-0.7896	6.33	0.34	-0.750			
0.1240	7938.09	3.8900	3.8900	-0.7945	6.34	0.35	-0.750			
0.1265	8094.32	3.8870	3.8870	-0.7919	6.35	0.36	-0.750			
0.1288	8246.06	3.8840	3.8841	-0.7858	6.36	0.37	-0.750			
0.1312	8396.55	3.8810	3.8811	-0.7899	6.37	0.38	-0.750			
0.1335	8546.53	3.8780	3.8779	-0.7845	6.38	0.39	-0.750			
0.1359	8696.70	3.8750	3.8749	-0.7868	6.39	0.40	-0.750			
0.1382	8846.34	3.8720	3.8720	-0.7897	6.39	0.40	-0.750			
0.1406	8999.60	3.8690	3.8690	-0.7986	6.40	0.41	-0.750			
0.1431	9155.30	3.8660	3.8662	-0.8002	6.41	0.42	-0.750			
0.1454	9308.30	3.8630	3.8628	-0.8033	6.42	0.43	-0.750			
0.1479	9462.60	3.8600	3.8600	-0.8036	6.43	0.44	-0.750			
0.1503	9617.57	3.8570	3.8570	-0.8076	6.44	0.45	-0.750			
0.1527	9773.29	3.8540	3.8541	-0.8032	6.45	0.46	-0.750			
0.1552	9929.67	3.8510	3.8511	-0.8031	6.46	0.47	-0.750			
0.1575	10083.08	3.8480	3.8478	-0.8034	6.47	0.48	-0.750			
0.1599	10236.03	3.8450	3.8451	-0.8091	6.48	0.49	-0.750			
0.1623	10390.22	3.8420	3.8419	-0.8064	6.49	0.50	-0.750			
0.1648	10545.38	3.8390	3.8390	-0.8082	6.49	0.50	-0.750			
0.1672	10703.56	3.8360	3.8360	-0.8079	6.50	0.51	-0.750			
0.1697	10859.11	3.8330	3.8330	-0.8097	6.51	0.52	-0.750			
0.1721	11013.21	3.8300	3.8300	-0.8104	6.52	0.53	-0.750			
0.1745	11167.67	3.8270	3.8270	-0.8061	6.53	0.54	-0.750			
0.1769	11322.96	3.8240	3.8239	-0.8028	6.54	0.55	-0.750			
0.1793	11478.21	3.8210	3.8210	-0.8049	6.55	0.56	-0.750			
0.1818	11632.87	3.8180	3.8180	-0.8037	6.56	0.57	-0.750			
0.1841	11785.40	3.8150	3.8152	-0.8105	6.57	0.58	-0.750			
0.1866	11939.55	3.8120	3.8119	-0.8084	6.58	0.59	-0.750			
0.1890	12094.32	3.8090	3.8090	-0.8171	6.59	0.60	-0.750			
0.1915	12254.75	3.8060	3.8060	-0.8279	6.59	0.60	-0.750			
0.1940	12415.41	3.8030	3.8030	-0.8358	6.60	0.61	-0.750			
0.1965	12576.75	3.8000	3.8000	-0.8327	6.61	0.62	-0.750			
0.1990	12738.27	3.7970	3.7970	-0.8339	6.63	0.64	-0.750			
0.2015	12896.94	3.7940	3.7941	-0.8281	6.64	0.65	-0.750			
0.2040	13055.88	3.7910	3.7909	-0.8313	6.65	0.66	-0.750			
0.2065	13213.94	3.7880	3.7881	-0.8272	6.66	0.67	-0.750			
0.2090	13373.95	3.7850	3.7849	-0.8248	6.67	0.68	-0.750			
0.2114	13530.80	3.7820	3.7820	-0.8288	6.68	0.69	-0.750			
0.2139	13691.97	3.7790	3.7791	-0.8268	6.69	0.70	-0.750			
0.2164	13851.13	3.7760	3.7759	-0.8304	6.69	0.70	-0.750			
0.2189	14008.91	3.7730	3.7732	-0.8328	6.70	0.71	-0.750			
0.2213	14166.24	3.7700	3.7700	-0.8362	6.71	0.72	-0.750			
0.2239	14328.43	3.7670	3.7669	-0.8502	6.72	0.73	-0.750			
0.2265	14494.67	3.7640	3.7640	-0.8537	6.73	0.74	-0.750			
0.2291	14660.19	3.7610	3.7609	-0.8565	6.74	0.75	-0.750			
0.2317	14826.23	3.7580	3.7581	-0.8573	6.75	0.76	-0.750			
0.2342	14989.65	3.7550	3.7550	-0.8562	6.76	0.77	-0.750			
0.2368	15153.78	3.7520	3.7519	-0.8579	6.77	0.78	-0.750			
0.2393	15316.67	3.7490	3.7490	-0.8539	6.78	0.79	-0.750			
0.2419	15484.50	3.7460	3.7460	-0.8560	6.78	0.79	-0.750			
0.2445	15648.80	3.7430	3.7430	-0.8529	6.79	0.80	-0.750			
0.2471	15811.98	3.7400	3.7401	-0.8572	6.80	0.81	-0.750			
0.2496	15976.30	3.7370	3.7370	-0.8562	6.81	0.82	-0.750			
0.2522	16139.65	3.7340	3.7338	-0.8506	6.82	0.83	-0.750			
0.2548	16304.12	3.7310	3.7310	-0.8586	6.83	0.84	-0.750			
0.2573	16468.60	3.7280	3.7282	-0.8638	6.83	0.84	-0.750			
0.2599	16634.56	3.7250	3.7248	-0.8726	6.84	0.85	-0.750			
0.2625	16801.87	3.7220	3.7221	-0.8748	6.85	0.86	-0.750			
0.2652	16969.63	3.7190	3.7189	-0.8789	6.86	0.87	-0.750			
0.2678	17141.12	3.7160	3.7160	-0.8851	6.87	0.88	-0.750			
0.2705	17311.07	3.7130	3.7131	-0.9012	6.88	0.89	-0.750			
0.2732	17483.70	3.7100	3.7100	-0.9030	6.88	0.89	-0.750			
0.2759	17659.88	3.7070	3.7069	-0.9035	6.89	0.90	-0.750			
0.2787	17834.63	3.7040	3.7040	-0.9033	6.90	0.91	-0.750			
0.2814	18010.64	3.7010	3.7012	-0.9065	6.91	0.92	-0.750			
0.2841	18184.48	3.6980	3.6980	-0.9007	6.92	0.93	-0.750			
0.2868	18353.27	3.6950	3.6949	-0.9101	6.92	0.93	-0.750			
0.2895	18525.31	3.6920	3.6921	-0.9154	6.93	0.94	-0.750			
0.2922	18702.03	3.6890	3.6889	-0.9307	6.94	0.95	-0.750			
0.2950	18881.91	3.6860	3.6861	-0.9459	6.94	0.95	-0.750			
0.2979	19067.54	3.6830	3.6831	-0.9579	6.95	0.96	-0.750			
0.3008	19252.94	3.6800	3.6799	-0.9653	6.96	0.97	-0.750			
0.3038	19442.11	3.6770	3.6771	-0.9661	6.96	0.97	-0.750			
0.3067	19626.80	3.6740	3.6740	-0.9554	6.97	0.98	-0.750			
0.3095	19810.36	3.6710	3.6710	-0.9623	6.98	0.99	-0.750			
0.3124	19993.35	3.6680	3.6681	-0.9654	6.99	1.00	-0.750			
0.3153	20176.50	3.6650	3.6649	-0.9655	6.99	1.00	-0.750			
0.3182	20362.90	3.6620	3.6620	-0.9714	7.00	1.01	-0.750			
0.3211	20548.40	3.6590	3.6591	-0.9882	7.00	1.01	-0.750			
0.3241	20743.08	3.6560	3.6559	-0.9997	7.01	1.02	-0.750			
0.3271	20935.38	3.6530	3.6529	-1.0075	7.01	1.02	-0.750			
0.3301	21126.86	3.6500	3.6500	-1.0169	7.02	1.03	-0.750			
0.3332	21324.72	3.6470	3.6471	-1.0311	7.03	1.04	-0.750			
0.3363	21525.96	3.6440	3.6439	-1.0426	7.03	1.04	-0.750			
0.3395	21727.32	3.6410	3.6409	-1.0458	7.04	1.05	-0.750			
0.3426	21926.99	3.6380	3.6381	-1.0440	7.05	1.06	-0.750			
0.3458	22130.70	3.6350	3.6350	-1.0638	7.05	1.06	-0.750			
0.3490	22333.30	3.6320	3.6320	-1.0628	7.06	1.07	-0.750			
0.3521	22536.25	3.6290	3.6290	-1.0618	7.06	1.07	-0.750			
0.3553	22740.30	3.6260	3.6260	-1.0767	7.07	1.08	-0.750			
0.3586	22949.90	3.6230	3.6231	-1.0949	7.07	1.08	-0.750			
0.3619	23162.33	3.6200	3.6199	-1.1083	7.08	1.09	-0.750			
0.3653	23376.30	3.6170	3.6169	-1.1221	7.08	1.09	-0.750			
0.3686	23591.94	3.6140	3.6142	-1.1312	7.09	1.10	-0.750			
0.3721	23814.14	3.6110	3.6110	-1.1401	7.10	1.11	-0.750			
0.3755	24033.86	3.6080	3.6079	-1.1413	7.11	1.12	-0.750			
0.3789	24248.73	3.6050	3.6050	-1.1465	7.11	1.12	-0.750			
0.3824	24470.71	3.6020	3.6019	-1.1575	7.12	1.13	-0.750			
0.3858	24692.57	3.5990	3.5990	-1.1612	7.12	1.13	-0.750			
0.3893	24916.72	3.5960	3.5960	-1.1665	7.13	1.14	-0.750			
0.3928	25142.33	3.5930	3.5930	-1.1738	7.13	1.14	-0.750	0.416	0.901	
0.3964	25369.62	3.5900	3.5900	-1.1977	7.13	1.14	-0.750			
0.4000	25598.15	3.5870	3.5869	-1.2055	7.14	1.15	-0.750			
0.4036	25829.78	3.5840	3.5839	-1.2178	7.15	1.16	-0.750			
0.4073	26065.77	3.5810	3.5811	-1.2339	7.15	1.16	-0.750			
0.4111	26307.30	3.5780	3.5781	-1.2528	7.15	1.16	-0.750			
0.4149	26551.23	3.5750	3.5749	-1.2551	7.16	1.17	-0.750			
0.4186	26790.89	3.5720	3.5722	-1.2667	7.16	1.17	-0.750			
0.4225	27038.40	3.5690	3.5690	-1.2758	7.17	1.18	-0.750			
0.4263	27284.61	3.5660	3.5659	-1.2876	7.18	1.19	-0.750			
0.4302	27531.44	3.5630	3.5632	-1.2987	7.19	1.20	-0.750			
0.4341	27781.88	3.5600	3.5599	-1.3037	7.19	1.20	-0.750			
0.4380	28032.89	3.5570	3.5570	-1.3092	7.20	1.21	-0.750			
0.4419	28283.39	3.5540	3.5541	-1.3302	7.20	1.21	-0.750			
0.4459	28537.81	3.5510	3.5510	-1.3334	7.20	1.21	-0.750			
0.4500	28799.77	3.5480	3.5479	-1.3584	7.21	1.22	-0.750			
0.4541	29060.98	3.5450	3.5449	-1.3610	7.22	1.23	-0.750			
0.4582	29324.85	3.5420	3.5420	-1.3587	7.22	1.23	-0.750			
0.4623	29590.27	3.5390	3.5390	-1.3693	7.23	1.24	-0.750			
0.4664	29848.97	3.5360	3.5360	-1.3759	7.24	1.25	-0.750			
0.4705	30109.44	3.5330	3.5329	-1.3719	7.24	1.25	-0.750			
0.4746	30375.99	3.5300	3.5300	-1.3952	7.25	1.26	-0.750			
0.4788	30642.35	3.5270	3.5270	-1.4066	7.26	1.27	-0.750			
0.4831	30918.49	3.5240	3.5240	-1.4201	7.26	1.27	-0.750			
0.4874	31194.35	3.5210	3.5210	-1.4314	7.27	1.28	-0.750			
0.4917	31469.89	3.5180	3.5180	-1.4269	7.28	1.29	-0.750			
0.4960	31742.54	3.5150	3.5150	-1.4216	7.29	1.30	-0.750			
0.5003	32017.48	3.5120	3.5120	-1.4367	7.30	1.31	-0.750			
0.5046	32293.27	3.5090	3.5088	-1.4259	7.31	1.32	-0.750			
0.5089	32568.48	3.5060	3.5058	-1.4196	7.32	1.33	-0.750			
0.5132	32842.24	3.5030	3.5032	-1.4161	7.33	1.34	-0.750			
0.5174	33111.30	3.5000	3.5000	-1.4152	7.34	1.35	-0.750			
0.5216	33382.03	3.4970	3.4969	-1.4053	7.34	1.35	-0.750			
0.5258	33651.09	3.4940	3.4940	-1.4070	7.35	1.36	-0.750			
0.5300	33920.43	3.4910	3.4910	-1.4141	7.36	1.37	-0.750			
0.5344	34198.43	3.4880	3.4880	-1.4250	7.37	1.38	-0.750			
0.5387	34476.89	3.4850	3.4850	-1.4084	7.38	1.39	-0.750			
0.5429	34745.57	3.4820	3.4821	-1.3894	7.39	1.40	-0.750			
0.5470	35009.07	3.4790	3.4790	-1.3676	7.40	1.41	-0.750			
0.5511	35267.54	3.4760	3.4758	-1.3611	7.42	1.43	-0.750			
0.5550	35522.67	3.4730	3.4731	-1.3597	7.44	1.45	-0.750			
0.5591	35783.59	3.4700	3.4699	-1.3549	7.45	1.46	-0.750			
0.5633	36049.72	3.4670	3.4669	-1.3584	7.46	1.47	-0.750			
0.5674	36312.56	3.4640	3.4641	-1.3616	7.47	1.48	-0.750			
0.5714	36572.17	3.4610	3.4610	-1.3520	7.48	1.49	-0.750			
0.5755	36834.48	3.4580	3.4579	-1.3416	7.49	1.50	-0.750			
0.5795	37088.91	3.4550	3.4550	-1.3219	7.50	1.51	-0.750			
0.5834	37337.94	3.4520	3.4521	-1.3044	7.51	1.52	-0.750			
0.5874	37591.78	3.4490	3.4490	-1.2987	7.52	1.53	-0.750			
0.5912	37836.39	3.4460	3.4458	-1.2855	7.53	1.54	-0.750			
0.5950	38079.78	3.4430	3.4430	-1.2726	7.55	1.56	-0.750			
0.5988	38325.54	3.4400	3.4401	-1.2630	7.56	1.57	-0.750			
0.6027	38569.92	3.4370	3.4370	-1.2532	7.58	1.59	-0.750			
0.6064	38808.86	3.4340	3.4343	-1.2278	7.59	1.60	-0.750			
0.6101	39046.97	3.4310	3.4309	-1.2086	7.61	1.62	-0.750			
0.6137	39274.96	3.4280	3.4281	-1.1857	7.62	1.63	-0.750			
0.6172	39497.86	3.4250	3.4250	-1.1640	7.63	1.64	-0.750			
0.6206	39718.84	3.4220	3.4220	-1.1518	7.65	1.66	-0.750			
0.6241	39940.11	3.4190	3.4188	-1.1347	7.66	1.67	-0.750			
0.6274	40156.31	3.4160	3.4160	-1.1157	7.68	1.69	-0.750			
0.6308	40369.21	3.4130	3.4133	-1.0943	7.69	1.70	-0.750			
0.6341	40582.53	3.4100	3.4100	-1.0804	7.70	1.71	-0.750			
0.6373	40786.10	3.4070	3.4069	-1.0476	7.72	1.73	-0.750			
0.6403	40979.12	3.4040	3.4040	-1.0186	7.73	1.74	-0.750			
0.6433	41174.32	3.4010	3.4011	-1.0047	7.74	1.75	-0.750			
0.6463	41364.95	3.3980	3.3980	-0.9853	7.75	1.76	-0.750			
0.6493	41554.02	3.3950	3.3949	-0.9649	7.77	1.78	-0.750			
0.6521	41737.32	3.3920	3.3920	-0.9422	7.78	1.79	-0.750			
0.6549	41915.60	3.3890	3.3889	-0.9181	7.79	1.80	-0.750			
0.6577	42091.44	3.3860	3.3859	-0.8950	7.81	1.82	-0.750			
0.6603	42259.48	3.3830	3.3829	-0.8737	7.82	1.83	-0.750			
0.6629	42423.02	3.3800	3.3801	-0.8524	7.84	1.85	-0.750			
0.6654	42584.27	3.3770	3.3770	-0.8296	7.85	1.86	-0.750			
0.6679	42744.72	3.3740	3.3739	-0.8156	7.87	1.88	-0.750			
0.6703	42898.80	3.3710	3.3710	-0.7961	7.88	1.89	-0.750			
0.6727	43050.72	3.3680	3.3680	-0.7747	7.89	1.90	-0.750			
0.6750	43198.21	3.3650	3.3649	-0.7525	7.91	1.92	-0.750			
0.6772	43339.19	3.3620	3.3620	-0.7259	7.92	1.93	-0.750			
0.6793	43477.03	3.3590	3.3591	-0.7064	7.93	1.94	-0.750			
0.6814	43610.41	3.3560	3.3561	-0.6880	7.94	1.95	-0.750			
0.6834	43739.83	3.3530	3.3529	-0.6667	7.96	1.97	-0.750			
0.6854	43864.82	3.3500	3.3500	-0.6520	7.97	1.98	-0.750			
0.6873	43988.26	3.3470	3.3470	-0.6434	7.98	1.99	-0.750			
0.6893	44112.18	3.3440	3.3439	-0.6324	7.99	2.00	-0.750			
0.6911	44232.57	3.3410	3.3410	-0.6150	8.00	2.01	-0.750			
0.6930	44349.63	3.3380	3.3381	-0.5997	8.02	2.03	-0.750			
0.6947	44463.28	3.3350	3.3350	-0.5851	8.03	2.04	-0.750			
0.6965	44574.07	3.3320	3.3319	-0.5699	8.04	2.05	-0.750			
0.6981	44680.67	3.3290	3.3290	-0.5548	8.05	2.06	-0.750			
0.6998	44784.19	3.3260	3.3260	-0.5411	8.06	2.07	-0.750			
0.7014	44889.20	3.3230	3.3230	-0.5337	8.08	2.09	-0.750			
0.7030	44990.88	3.3200	3.3200	-0.5199	8.09	2.10	-0.750			
0.7045	45089.64	3.3170	3.3169	-0.5054	8.10	2.11	-0.750			
0.7060	45184.49	3.3140	3.3142	-0.4943	8.11	2.12	-0.750			
0.7075	45278.16	3.3110	3.3109	-0.4798	8.12	2.13	-0.750			
0.7089	45367.96	3.3080	3.3081	-0.4700	8.13	2.14	-0.750			
0.7103	45456.36	3.3050	3.3050	-0.4609	8.14	2.15	-0.750			
0.7116	45544.54	3.3020	3.3021	-0.4565	8.15	2.16	-0.750			
0.7130	45632.14	3.2990	3.2988	-0.4486	8.17	2.18	-0.750			
0.7143	45717.89	3.2960	3.2961	-0.4413	8.18	2.19	-0.750			
0.7156	45801.44	3.2930	3.2931	-0.4321	8.19	2.20	-0.750			
0.7170	45884.84	3.2900	3.2900	-0.4273	8.20	2.21	-0.750			
0.7182	45965.47	3.2870	3.2871	-0.4146	8.21	2.22	-0.750			
0.7194	46043.42	3.2840	3.2839	-0.4056	8.22	2.23	-0.750			
0.7206	46120.47	3.2810	3.2810	-0.3970	8.23	2.24	-0.750			
0.7218	46195.88	3.2780	3.2780	-0.3900	8.24	2.25	-0.750			
0.7230	46269.68	3.2750	3.2750	-0.3815	8.26	2.27	-0.750			
0.7241	46341.86	3.2720	3.2720	-0.3758	8.27	2.28	-0.750			
0.7252	46413.14	3.2690	3.2690	-0.3713	8.28	2.29	-0.750			
0.7263	46484.84	3.2660	3.2660	-0.3646	8.29	2.30	-0.750			
0.7274	46554.38	3.2630	3.2629	-0.3550	8.30	2.31	-0.750			
0.7285	46622.40	3.2600	3.2602	-0.3484	8.31	2.32	-0.750			
0.7295	46688.32	3.2570	3.2572	-0.3391	8.32	2.33	-0.750			
0.7305	46751.86	3.2540	3.2539	-0.3347	8.33	2.34	-0.750			
0.7315	46814.80	3.2510	3.2509	-0.3288	8.34	2.35	-0.750			
0.7325	46876.84	3.2480	3.2480	-0.3231	8.35	2.36	-0.750			
0.7334	46939.67	3.2450	3.2451	-0.3215	8.36	2.37	-0.750			
0.7344	47000.73	3.2420	3.2421	-0.3181	8.37	2.38	-0.750			
0.7353	47061.97	3.2390	3.2390	-0.3142	8.38	2.39	-0.750			
0.7363	47121.86	3.2360	3.2359	-0.3079	8.39	2.40	-0.750			
0.7372	47180.10	3.2330	3.2331	-0.3008	8.40	2.41	-0.750			
0.7381	47237.73	3.2300	3.2300	-0.2967	8.41	2.42	-0.750			
0.7390	47293.94	3.2270	3.2270	-0.2931	8.42	2.43	-0.750			
0.7398	47349.40	3.2240	3.2240	-0.2878	8.43	2.44	-0.750			
0.7407	47403.68	3.2210	3.2209	-0.2839	8.43	2.44	-0.750			
0.7415	47458.17	3.2180	3.2181	-0.2823	8.44	2.45	-0.750			
0.7424	47512.36	3.2150	3.2150	-0.2798	8.45	2.46	-0.750			
0.7432	47566.17	3.2120	3.2119	-0.2764	8.46	2.47	-0.750			
0.7440	47618.78	3.2090	3.2090	-0.2714	8.47	2.48	-0.750			
0.7449	47670.59	3.2060	3.2060	-0.2668	8.48	2.49	-0.750			
0.7457	47721.63	3.2030	3.2031	-0.2632	8.49	2.50	-0.750			
0.7464	47771.09	3.2000	3.2000	-0.2583	8.50	2.51	-0.750			
0.7472	47819.98	3.1970	3.1970	-0.2540	8.51	2.52	-0.750			
0.7479	47868.57	3.1940	3.1940	-0.2505	8.52	2.53	-0.750			
0.7487	47915.64	3.1910	3.1911	-0.2487	8.53	2.54	-0.750			
0.7494	47963.33	3.1880	3.1880	-0.2484	8.53	2.54	-0.750			
0.7502	48011.74	3.1850	3.1849	-0.2456	8.54	2.55	-0.750			
0.7509	48058.94	3.1820	3.1819	-0.2433	8.55	2.56	-0.750			
0.7517	48105.76	3.1790	3.1791	-0.2386	8.56	2.57	-0.750			
0.7524	48151.03	3.1760	3.1762	-0.2330	8.57	2.58	-0.750			
0.7531	48195.45	3.1730	3.1729	-0.2301	8.58	2.59	-0.750			
0.7537	48237.78	3.1700	3.1700	-0.2263	8.59	2.60	-0.750			
0.7544	48280.39	3.1670	3.1670	-0.2249	8.59	2.60	-0.750			
0.7551	48324.09	3.1640	3.1639	-0.2230	8.60	2.61	-0.750			
0.7557	48367.52	3.1610	3.1610	-0.2237	8.61	2.62	-0.750			
0.7564	48410.33	3.1580	3.1581	-0.2211	8.62	2.63	-0.750			
0.7571	48453.25	3.1550	3.1551	-0.2188	8.62	2.63	-0.750			
0.7577	48495.05	3.1520	3.1520	-0.2162	8.63	2.64	-0.750			
0.7584	48535.71	3.1490	3.1489	-0.2123	8.64	2.65	-0.750			
0.7590	48575.87	3.1460	3.1460	-0.2098	8.65	2.66	-0.750			
0.7596	48615.74	3.1430	3.1430	-0.2080	8.66	2.67	-0.750			
0.7602	48655.82	3.1400	3.1400	-0.2071	8.67	2.68	-0.750			
0.7609	48695.40	3.1370	3.1370	-0.2052	8.68	2.69	-0.750			
0.7615	48734.52	3.1340	3.1339	-0.2027	8.69	2.70	-0.750			
0.7621	48773.16	3.1310	3.1310	-0.2018	8.69	2.70	-0.750			
0.7627	48812.04	3.1280	3.1281	-0.1996	8.70	2.71	-0.750			
0.7633	48850.14	3.1250	3.1249	-0.1974	8.71	2.72	-0.750			
0.7639	48887.93	3.1220	3.1219	-0.1956	8.72	2.73	-0.750			
0.7645	48925.32	3.1190	3.1191	-0.1930	8.73	2.74	-0.750			
0.7650	48961.97	3.1160	3.1161	-0.1914	8.73	2.74	-0.750			
0.7656	48998.54	3.1130	3.1129	-0.1895	8.74	2.75	-0.750			
0.7662	49034.56	3.1100	3.1101	-0.1887	8.75	2.76	-0.750			
0.7667	49070.50	3.1070	3.1069	-0.1860	8.76	2.77	-0.750			
0.7673	49106.60	3.1040	3.1039	-0.1852	8.76	2.77	-0.750			
0.7678	49141.93	3.1010	3.1011	-0.1829	8.77	2.78	-0.750			
0.7684	49176.68	3.0980	3.0980	-0.1820	8.78	2.79	-0.750			
0.7689	49211.50	3.0950	3.0949	-0.1811	8.79	2.80	-0.750			
0.7695	49245.70	3.0920	3.0919	-0.1795	8.80	2.81	-0.750			
0.7700	49280.14	3.0890	3.0890	-0.1793	8.80	2.81	-0.750			
0.7705	49314.51	3.0860	3.0861	-0.1774	8.81	2.82	-0.750			
0.7711	49349.35	3.0830	3.0830	-0.1758	8.82	2.83	-0.750			
0.7716	49382.87	3.0800	3.0801	-0.1740	8.83	2.84	-0.750			
0.7721	49415.99	3.0770	3.0770	-0.1709	8.84	2.85	-0.750			
0.7726	49448.20	3.0740	3.0740	-0.1693	8.85	2.86	-0.750			
0.7731	49479.93	3.0710	3.0709	-0.1685	8.85	2.86	-0.750			
0.7736	49512.24	3.0680	3.0679	-0.1666	8.86	2.87	-0.750			
0.7741	49544.20	3.0650	3.0650	-0.1664	8.87	2.88	-0.750			
0.7746	49576.27	3.0620	3.0620	-0.1664	8.88	2.89	-0.750			
0.7751	49608.53	3.0590	3.0591	-0.1661	8.89	2.90	-0.750			
0.7756	49640.28	3.0560	3.0559	-0.1648	8.89	2.90	-0.750			
0.7761	49671.81	3.0530	3.0529	-0.1636	8.90	2.91	-0.750			
0.7766	49703.14	3.0500	3.0500	-0.1620	8.91	2.92	-0.750			
0.7771	49733.69	3.0470	3.0471	-0.1611	8.91	2.92	-0.750			
0.7776	49764.83	3.0440	3.0440	-0.1614	8.92	2.93	-0.750			
0.7781	49795.74	3.0410	3.0409	-0.1605	8.93	2.94	-0.750			
0.7785	49826.21	3.0380	3.0379	-0.1589	8.93	2.94	-0.750			
0.7790	49856.92	3.0350	3.0350	-0.1580	8.94	2.95	-0.750			
0.7795	49887.35	3.0320	3.0321	-0.1570	8.95	2.96	-0.750			
0.7800	49917.28	3.0290	3.0291	-0.1556	8.96	2.97	-0.750			
0.7804	49947.14	3.0260	3.0259	-0.1545	8.96	2.97	-0.750			
0.7809	49976.17	3.0230	3.0230	-0.1528	8.97	2.98	-0.750			
0.7813	50005.29	3.0200	3.0199	-0.1520	8.97	2.98	-0.750			
0.7818	50034.53	3.0170	3.0170	-0.1511	8.98	2.99	-0.750			
0.7822	50063.46	3.0140	3.0139	-0.1509	8.99	3.00	-0.750			
0.7827	50092.36	3.0110	3.0110	-0.1504	8.99	3.00	-0.750			
0.7831	50121.21	3.0080	3.0080	-0.1501	9.00	3.01	-0.750			
0.7836	50149.93	3.0050	3.0049	-0.1499	9.01	3.02	-0.750			
0.7840	50178.71	3.0020	3.0020	-0.1504	9.01	3.02	-0.750			
