Ah_balance (normalized)	Ah_balance (mAh)	Voltage - fit (V)	Voltage -  interpolate (V)	dQ/dV (1/V)	Temperature (°C)	Temperature - diff (°C)	Current (C)	R_DC 0ms (mOhm)	R_DC 50ms (mOhm)	R_DC 50 ms PEC (mOhm)
0.0964	6171.16	4.1980	4.1890	0.6069	8.11	2.13	0.750	0.421	0.826	
0.0985	6306.77	4.1950	4.1971	0.7471	8.10	2.12	0.750			
0.1010	6461.75	4.1920	4.1937	0.7878	8.09	2.11	0.750			
0.1034	6617.23	4.1890	4.1899	0.7908	8.08	2.10	0.750			
0.1057	6767.07	4.1860	4.1867	0.7530	8.08	2.10	0.750			
0.1082	6927.14	4.1830	4.1830	0.7595	8.07	2.09	0.750			
0.1103	7061.14	4.1800	4.1801	0.7073	8.06	2.08	0.750			
0.1125	7197.29	4.1770	4.1771	0.7097	8.05	2.07	0.750			
0.1146	7335.51	4.1740	4.1739	0.7120	8.05	2.07	0.750			
0.1167	7470.29	4.1710	4.1709	0.7103	8.04	2.06	0.750			
0.1188	7605.95	4.1680	4.1683	0.7165	8.03	2.05	0.750			
0.1210	7744.80	4.1650	4.1649	0.7196	8.03	2.05	0.750			
0.1232	7883.54	4.1620	4.1619	0.7246	8.02	2.04	0.750			
0.1254	8022.77	4.1590	4.1590	0.7214	8.02	2.04	0.750			
0.1275	8161.85	4.1560	4.1561	0.7294	8.01	2.03	0.750			
0.1297	8301.98	4.1530	4.1530	0.7309	8.01	2.03	0.750			
0.1319	8442.93	4.1500	4.1498	0.7298	8.00	2.02	0.750			
0.1341	8581.99	4.1470	4.1471	0.7268	7.99	2.01	0.750			
0.1363	8723.40	4.1440	4.1440	0.7276	7.99	2.01	0.750			
0.1385	8862.64	4.1410	4.1410	0.7286	7.98	2.00	0.750			
0.1406	9001.46	4.1380	4.1380	0.7270	7.97	1.99	0.750			
0.1428	9139.21	4.1350	4.1351	0.7348	7.97	1.99	0.750			
0.1450	9280.72	4.1320	4.1318	0.7442	7.96	1.98	0.750			
0.1473	9426.87	4.1290	4.1290	0.7532	7.95	1.97	0.750			
0.1496	9575.90	4.1260	4.1259	0.7512	7.94	1.96	0.750			
0.1519	9721.11	4.1230	4.1231	0.7474	7.94	1.96	0.750			
0.1541	9864.99	4.1200	4.1202	0.7432	7.93	1.95	0.750			
0.1563	10004.89	4.1170	4.1169	0.7356	7.92	1.94	0.750			
0.1585	10143.12	4.1140	4.1140	0.7406	7.92	1.94	0.750			
0.1607	10282.16	4.1110	4.1109	0.7438	7.91	1.93	0.750			
0.1629	10424.92	4.1080	4.1080	0.7538	7.91	1.93	0.750			
0.1652	10572.81	4.1050	4.1051	0.7679	7.90	1.92	0.750			
0.1676	10723.84	4.1020	4.1020	0.7817	7.90	1.92	0.750			
0.1699	10875.42	4.0990	4.0987	0.7880	7.89	1.91	0.750			
0.1723	11029.02	4.0960	4.0961	0.7863	7.88	1.90	0.750			
0.1747	11179.80	4.0930	4.0931	0.7844	7.88	1.90	0.750			
0.1771	11331.31	4.0900	4.0900	0.7899	7.87	1.89	0.750			
0.1794	11478.97	4.0870	4.0872	0.7852	7.87	1.89	0.750			
0.1817	11631.21	4.0840	4.0838	0.7898	7.86	1.88	0.750			
0.1841	11782.99	4.0810	4.0811	0.7952	7.86	1.88	0.750			
0.1865	11937.90	4.0780	4.0780	0.7935	7.85	1.87	0.750			
0.1889	12092.29	4.0750	4.0751	0.8022	7.84	1.86	0.750			
0.1913	12244.35	4.0720	4.0719	0.7999	7.84	1.86	0.750			
0.1937	12395.60	4.0690	4.0692	0.7970	7.83	1.85	0.750			
0.1961	12549.19	4.0660	4.0659	0.8060	7.83	1.85	0.750			
0.1985	12707.12	4.0630	4.0631	0.8034	7.82	1.84	0.750			
0.2009	12859.75	4.0600	4.0599	0.8087	7.81	1.83	0.750			
0.2034	13015.83	4.0570	4.0571	0.8181	7.80	1.82	0.750			
0.2058	13171.81	4.0540	4.0540	0.8172	7.79	1.81	0.750			
0.2082	13327.05	4.0510	4.0511	0.8254	7.79	1.81	0.750			
0.2107	13487.30	4.0480	4.0480	0.8324	7.78	1.80	0.750			
0.2132	13647.25	4.0450	4.0450	0.8388	7.78	1.80	0.750			
0.2158	13811.30	4.0420	4.0420	0.8474	7.78	1.80	0.750			
0.2183	13973.95	4.0390	4.0391	0.8469	7.77	1.79	0.750			
0.2209	14137.79	4.0360	4.0359	0.8513	7.77	1.79	0.750			
0.2235	14302.11	4.0330	4.0331	0.8539	7.76	1.78	0.750			
0.2260	14465.67	4.0300	4.0300	0.8514	7.74	1.76	0.750			
0.2286	14629.75	4.0270	4.0270	0.8542	7.73	1.75	0.750			
0.2312	14793.64	4.0240	4.0240	0.8474	7.72	1.74	0.750			
0.2337	14955.27	4.0210	4.0210	0.8482	7.72	1.74	0.750			
0.2362	15118.73	4.0180	4.0180	0.8479	7.71	1.73	0.750			
0.2387	15279.45	4.0150	4.0150	0.8550	7.70	1.72	0.750			
0.2413	15442.32	4.0120	4.0120	0.8635	7.70	1.72	0.750			
0.2439	15609.32	4.0090	4.0089	0.8735	7.69	1.71	0.750			
0.2465	15777.68	4.0060	4.0060	0.8851	7.69	1.71	0.750			
0.2492	15950.73	4.0030	4.0031	0.8943	7.68	1.70	0.750			
0.2519	16123.23	4.0000	4.0000	0.8974	7.67	1.69	0.750			
0.2547	16299.35	3.9970	3.9970	0.8970	7.67	1.69	0.750			
0.2573	16470.39	3.9940	3.9941	0.8940	7.66	1.68	0.750			
0.2600	16642.12	3.9910	3.9911	0.8918	7.65	1.67	0.750			
0.2627	16811.74	3.9880	3.9881	0.8933	7.64	1.66	0.750			
0.2653	16981.34	3.9850	3.9849	0.8932	7.63	1.65	0.750			
0.2680	17150.29	3.9820	3.9821	0.9045	7.63	1.65	0.750			
0.2707	17326.03	3.9790	3.9789	0.9162	7.62	1.64	0.750			
0.2735	17505.36	3.9760	3.9760	0.9303	7.61	1.63	0.750			
0.2763	17684.36	3.9730	3.9731	0.9355	7.60	1.62	0.750			
0.2792	17867.29	3.9700	3.9700	0.9384	7.59	1.61	0.750			
0.2820	18048.56	3.9670	3.9668	0.9415	7.58	1.60	0.750			
0.2848	18229.24	3.9640	3.9642	0.9398	7.57	1.59	0.750			
0.2876	18407.85	3.9610	3.9610	0.9402	7.57	1.59	0.750			
0.2905	18589.34	3.9580	3.9580	0.9527	7.56	1.58	0.750			
0.2933	18769.44	3.9550	3.9550	0.9556	7.55	1.57	0.750			
0.2962	18957.21	3.9520	3.9520	0.9621	7.55	1.57	0.750			
0.2991	19144.92	3.9490	3.9491	0.9749	7.54	1.56	0.750			
0.3021	19331.83	3.9460	3.9460	0.9776	7.53	1.55	0.750			
0.3050	19519.21	3.9430	3.9431	0.9879	7.52	1.54	0.750			
0.3079	19708.02	3.9400	3.9400	0.9965	7.51	1.53	0.750			
0.3109	19899.67	3.9370	3.9370	0.9948	7.50	1.52	0.750			
0.3139	20092.80	3.9340	3.9339	1.0031	7.49	1.51	0.750			
0.3170	20287.76	3.9310	3.9312	1.0052	7.49	1.51	0.750			
0.3200	20480.15	3.9280	3.9279	1.0056	7.48	1.50	0.750			
0.3230	20672.72	3.9250	3.9250	1.0081	7.47	1.49	0.750			
0.3260	20861.44	3.9220	3.9219	1.0174	7.46	1.48	0.750			
0.3291	21059.47	3.9190	3.9191	1.0370	7.45	1.47	0.750			
0.3322	21263.08	3.9160	3.9157	1.0515	7.44	1.46	0.750			
0.3354	21465.66	3.9130	3.9131	1.0684	7.43	1.45	0.750			
0.3386	21672.26	3.9100	3.9101	1.0918	7.42	1.44	0.750			
0.3419	21884.36	3.9070	3.9070	1.1061	7.41	1.43	0.750			
0.3453	22100.45	3.9040	3.9039	1.1056	7.40	1.42	0.750			
0.3486	22310.87	3.9010	3.9010	1.1214	7.39	1.41	0.750			
0.3520	22529.53	3.8980	3.8982	1.1411	7.38	1.40	0.750			
0.3555	22750.44	3.8950	3.8949	1.1492	7.37	1.39	0.750			
0.3589	22969.95	3.8920	3.8920	1.1532	7.35	1.37	0.750			
0.3623	23189.07	3.8890	3.8892	1.1665	7.34	1.36	0.750			
0.3659	23416.58	3.8860	3.8861	1.1921	7.33	1.35	0.750			
0.3696	23651.49	3.8830	3.8828	1.2071	7.32	1.34	0.750			
0.3731	23880.62	3.8800	3.8800	1.2153	7.31	1.33	0.750			
0.3769	24123.84	3.8770	3.8770	1.2107	7.29	1.31	0.750			
0.3806	24355.37	3.8740	3.8741	1.2374	7.28	1.30	0.750			
0.3842	24589.85	3.8710	3.8713	1.2530	7.26	1.28	0.750			
0.3879	24827.19	3.8680	3.8678	1.2696	7.25	1.27	0.750	0.412	0.863	
0.3918	25075.93	3.8650	3.8652	1.2950	7.24	1.26	0.750			
0.3958	25330.44	3.8620	3.8622	1.3243	7.23	1.25	0.750			
0.3997	25583.82	3.8590	3.8590	1.3545	7.22	1.24	0.750			
0.4040	25857.06	3.8560	3.8561	1.3962	7.21	1.23	0.750			
0.4081	26115.54	3.8530	3.8530	1.4072	7.20	1.22	0.750			
0.4124	26392.68	3.8500	3.8499	1.4250	7.18	1.20	0.750			
0.4168	26672.34	3.8470	3.8469	1.4428	7.15	1.17	0.750			
0.4211	26951.50	3.8440	3.8442	1.4669	7.14	1.16	0.750			
0.4256	27236.22	3.8410	3.8410	1.4679	7.13	1.15	0.750			
0.4300	27517.37	3.8380	3.8379	1.4665	7.12	1.14	0.750			
0.4343	27793.12	3.8350	3.8353	1.5183	7.10	1.12	0.750			
0.4389	28086.68	3.8320	3.8317	1.5356	7.08	1.10	0.750			
0.4435	28387.13	3.8290	3.8289	1.5797	7.06	1.08	0.750			
0.4484	28698.01	3.8260	3.8261	1.6076	7.04	1.06	0.750			
0.4533	29010.45	3.8230	3.8231	1.6501	7.02	1.04	0.750			
0.4583	29331.12	3.8200	3.8202	1.6809	7.01	1.03	0.750			
0.4634	29655.58	3.8170	3.8172	1.6986	6.99	1.01	0.750			
0.4685	29981.19	3.8140	3.8138	1.7104	6.97	0.99	0.750			
0.4738	30321.26	3.8110	3.8111	1.7446	6.94	0.96	0.750			
0.4790	30655.85	3.8080	3.8080	1.7746	6.92	0.94	0.750			
0.4844	31003.38	3.8050	3.8048	1.8116	6.90	0.92	0.750			
0.4898	31347.41	3.8020	3.8020	1.8134	6.89	0.91	0.750			
0.4953	31699.56	3.7990	3.7991	1.8089	6.87	0.89	0.750			
0.5008	32048.25	3.7960	3.7963	1.8374	6.84	0.86	0.750			
0.5063	32401.04	3.7930	3.7929	1.8543	6.81	0.83	0.750			
0.5119	32760.78	3.7900	3.7898	1.8907	6.80	0.82	0.750			
0.5174	33116.67	3.7870	3.7871	1.9402	6.78	0.80	0.750			
0.5235	33501.20	3.7840	3.7842	1.9637	6.75	0.77	0.750			
0.5295	33887.08	3.7810	3.7810	2.0029	6.72	0.74	0.750			
0.5354	34265.56	3.7780	3.7783	2.0255	6.70	0.72	0.750			
0.5415	34656.43	3.7750	3.7750	2.0608	6.68	0.70	0.750			
0.5477	35052.76	3.7720	3.7719	2.1307	6.66	0.68	0.750			
0.5541	35465.56	3.7690	3.7691	2.2117	6.62	0.64	0.750			
0.5611	35907.61	3.7660	3.7659	2.2214	6.59	0.61	0.750			
0.5678	36342.31	3.7630	3.7632	2.2532	6.57	0.59	0.750			
0.5745	36765.48	3.7600	3.7601	2.3031	6.54	0.56	0.750			
0.5812	37194.00	3.7570	3.7569	2.4156	6.52	0.54	0.750			
0.5886	37669.85	3.7540	3.7539	2.5486	6.49	0.51	0.750			
0.5967	38191.71	3.7510	3.7512	2.6893	6.45	0.47	0.750			
0.6049	38715.47	3.7480	3.7479	2.7604	6.42	0.44	0.750			
0.6130	39234.43	3.7450	3.7449	2.8275	6.39	0.41	0.750			
0.6218	39792.60	3.7420	3.7421	3.0294	6.35	0.37	0.750			
0.6313	40400.55	3.7390	3.7390	3.1584	6.31	0.33	0.750			
0.6410	41025.12	3.7360	3.7360	3.1667	6.27	0.29	0.750			
0.6506	41636.16	3.7330	3.7329	3.0080	6.24	0.26	0.750			
0.6594	42199.70	3.7300	3.7300	2.8084	6.21	0.23	0.750			
0.6674	42716.47	3.7270	3.7269	2.5384	6.20	0.22	0.750			
0.6746	43174.63	3.7240	3.7241	2.2644	6.17	0.19	0.750			
0.6808	43572.61	3.7210	3.7211	1.9830	6.15	0.17	0.750			
0.6864	43930.19	3.7180	3.7180	1.7418	6.14	0.16	0.750			
0.6911	44230.38	3.7150	3.7152	1.5459	6.13	0.15	0.750			
0.6952	44495.48	3.7120	3.7119	1.3764	6.12	0.14	0.750			
0.6990	44735.59	3.7090	3.7089	1.2690	6.11	0.13	0.750			
0.7024	44955.72	3.7060	3.7061	1.1786	6.10	0.12	0.750			
0.7059	45178.15	3.7030	3.7028	1.1411	6.08	0.10	0.750			
0.7093	45393.67	3.7000	3.6999	1.0952	6.08	0.10	0.750			
0.7125	45597.50	3.6970	3.6971	1.0711	6.07	0.09	0.750			
0.7156	45800.86	3.6940	3.6941	1.0486	6.07	0.09	0.750			
0.7187	45999.79	3.6910	3.6908	1.0281	6.06	0.08	0.750			
0.7218	46196.09	3.6880	3.6881	1.0032	6.05	0.07	0.750			
0.7248	46385.40	3.6850	3.6851	0.9875	6.05	0.07	0.750			
0.7277	46573.07	3.6820	3.6821	0.9773	6.04	0.06	0.750			
0.7306	46759.02	3.6790	3.6790	0.9578	6.03	0.05	0.750			
0.7335	46942.39	3.6760	3.6761	0.9500	6.03	0.05	0.750			
0.7363	47124.97	3.6730	3.6730	0.9373	6.02	0.04	0.750			
0.7391	47304.57	3.6700	3.6702	0.9203	6.02	0.04	0.750			
0.7419	47481.44	3.6670	3.6669	0.9060	6.01	0.03	0.750			
0.7445	47650.94	3.6640	3.6640	0.8829	6.01	0.03	0.750			
0.7471	47817.24	3.6610	3.6611	0.8679	6.01	0.03	0.750			
0.7497	47981.41	3.6580	3.6579	0.8644	6.00	0.02	0.750			
0.7522	48143.63	3.6550	3.6551	0.8657	6.00	0.02	0.750			
0.7548	48309.72	3.6520	3.6521	0.8725	5.99	0.01	0.750			
0.7575	48479.53	3.6490	3.6489	0.8785	5.99	0.01	0.750			
0.7602	48651.66	3.6460	3.6460	0.8744	5.99	0.01	0.750			
0.7629	48824.85	3.6430	3.6429	0.8612	5.99	0.01	0.750			
0.7655	48992.91	3.6400	3.6400	0.8247	5.98	0.00	0.750			
0.7680	49153.67	3.6370	3.6371	0.7592	5.98	0.00	0.750			
0.7703	49298.66	3.6340	3.6339	0.6855	5.98	-0.00	0.750			
0.7723	49424.96	3.6310	3.6311	0.5924	5.98	-0.00	0.750			
0.7737	49515.23	3.6280	3.6285	0.5058	5.98	-0.00	0.750			
0.7751	49604.12	3.6250	3.6254	0.4225	5.98	-0.00	0.750			
0.7762	49674.90	3.6220	3.6220	0.3372	5.97	-0.01	0.750			
0.7770	49726.60	3.6190	3.6186	0.2559	5.97	-0.01	0.750			
0.7776	49765.68	3.6160	3.6143	0.1928	5.97	-0.01	0.750			
0.7779	49787.60	3.5950	3.6042	-0.1177	5.97	-0.01	0.750			
0.7779	49787.90	3.6130	3.6036	0.1309	5.97	-0.01	0.750			
0.7782	49803.85	3.6100	3.4386	0.0838	5.97	-0.01	0.739			
0.7782	49806.32	3.5980	3.4091	-0.0774	5.97	-0.01	0.737			
0.7784	49816.07	3.6070	3.2929	0.0435	5.97	-0.01	0.728			
0.7784	49817.31	3.6010	3.2781	-0.0371	5.97	-0.01	0.726			
0.7784	49820.56	3.6040	3.2394	0.0032	5.97	-0.01	0.723			
