Ah_balance (normalized)	Ah_balance (mAh)	Voltage - fit (V)	Voltage -  interpolate (V)	dQ/dV (1/V)	Temperature (°C)	Temperature - diff (°C)	Current (C)	R_DC 0ms (mOhm)	R_DC 50ms (mOhm)	R_DC 50 ms PEC (mOhm)
0.0955	6114.63	4.1990	4.1972	0.7126	8.39	2.40	0.750	0.460	0.992	
0.0981	6278.27	4.1960	4.1981	0.9106	8.39	2.40	0.750			
0.1008	6454.24	4.1930	4.1943	0.8937	8.38	2.39	0.750			
0.1035	6624.29	4.1900	4.1906	0.8574	8.38	2.39	0.750			
0.1062	6799.68	4.1870	4.1868	0.8419	8.37	2.38	0.750			
0.1084	6936.09	4.1840	4.1841	0.7398	8.37	2.38	0.750			
0.1106	7079.02	4.1810	4.1810	0.7398	8.36	2.37	0.750			
0.1128	7221.74	4.1780	4.1781	0.7463	8.36	2.37	0.750			
0.1151	7365.94	4.1750	4.1750	0.7556	8.35	2.36	0.750			
0.1173	7509.47	4.1720	4.1719	0.7561	8.35	2.36	0.750			
0.1196	7655.51	4.1690	4.1690	0.7631	8.34	2.35	0.750			
0.1219	7803.41	4.1660	4.1661	0.7683	8.34	2.35	0.750			
0.1243	7953.84	4.1630	4.1629	0.7627	8.33	2.34	0.750			
0.1266	8101.60	4.1600	4.1600	0.7627	8.33	2.34	0.750			
0.1288	8244.74	4.1570	4.1572	0.7554	8.33	2.34	0.750			
0.1311	8388.71	4.1540	4.1540	0.7528	8.32	2.33	0.750			
0.1333	8532.89	4.1510	4.1510	0.7545	8.32	2.33	0.750			
0.1356	8676.16	4.1480	4.1480	0.7616	8.31	2.32	0.750			
0.1379	8822.55	4.1450	4.1450	0.7706	8.31	2.32	0.750			
0.1402	8973.35	4.1420	4.1421	0.7774	8.30	2.31	0.750			
0.1425	9123.05	4.1390	4.1389	0.7797	8.30	2.31	0.750			
0.1449	9274.23	4.1360	4.1359	0.7829	8.29	2.30	0.750			
0.1473	9425.99	4.1330	4.1331	0.7806	8.29	2.30	0.750			
0.1496	9576.00	4.1300	4.1300	0.7715	8.28	2.29	0.750			
0.1519	9722.28	4.1270	4.1271	0.7683	8.28	2.29	0.750			
0.1542	9869.13	4.1240	4.1240	0.7711	8.28	2.29	0.750			
0.1565	10014.56	4.1210	4.1211	0.7796	8.27	2.28	0.750			
0.1588	10164.49	4.1180	4.1180	0.7845	8.27	2.28	0.750			
0.1612	10317.79	4.1150	4.1149	0.7902	8.26	2.27	0.750			
0.1636	10469.98	4.1120	4.1120	0.8016	8.26	2.27	0.750			
0.1660	10625.29	4.1090	4.1091	0.8111	8.25	2.26	0.750			
0.1685	10781.06	4.1060	4.1060	0.8102	8.24	2.25	0.750			
0.1709	10937.27	4.1030	4.1029	0.8123	8.24	2.25	0.750			
0.1734	11094.85	4.1000	4.1002	0.8083	8.23	2.24	0.750			
0.1758	11249.28	4.0970	4.0971	0.8205	8.23	2.24	0.750			
0.1782	11406.75	4.0940	4.0940	0.8222	8.22	2.23	0.750			
0.1807	11564.58	4.0910	4.0909	0.8186	8.22	2.23	0.750			
0.1832	11721.97	4.0880	4.0878	0.8208	8.21	2.22	0.750			
0.1857	11882.03	4.0850	4.0852	0.8216	8.21	2.22	0.750			
0.1881	12039.62	4.0820	4.0820	0.8250	8.20	2.21	0.750			
0.1906	12197.19	4.0790	4.0790	0.8264	8.20	2.21	0.750			
0.1930	12353.47	4.0760	4.0761	0.8174	8.19	2.20	0.750			
0.1955	12512.48	4.0730	4.0728	0.8237	8.19	2.20	0.750			
0.1980	12671.64	4.0700	4.0701	0.8250	8.18	2.19	0.750			
0.2005	12829.28	4.0670	4.0671	0.8302	8.18	2.19	0.750			
0.2030	12989.07	4.0640	4.0640	0.8325	8.17	2.18	0.750			
0.2054	13148.38	4.0610	4.0610	0.8372	8.17	2.18	0.750			
0.2080	13309.64	4.0580	4.0579	0.8423	8.16	2.17	0.750			
0.2105	13473.71	4.0550	4.0550	0.8508	8.16	2.17	0.750			
0.2131	13637.99	4.0520	4.0521	0.8549	8.15	2.16	0.750			
0.2157	13802.98	4.0490	4.0490	0.8522	8.15	2.16	0.750			
0.2182	13967.20	4.0460	4.0460	0.8433	8.14	2.15	0.750			
0.2208	14130.04	4.0430	4.0430	0.8454	8.14	2.15	0.750			
0.2233	14291.38	4.0400	4.0400	0.8434	8.14	2.15	0.750			
0.2258	14449.68	4.0370	4.0370	0.8548	8.13	2.14	0.750			
0.2283	14613.38	4.0340	4.0339	0.8651	8.13	2.14	0.750			
0.2309	14780.63	4.0310	4.0312	0.8772	8.12	2.13	0.750			
0.2336	14952.23	4.0280	4.0278	0.8932	8.12	2.13	0.750			
0.2364	15126.59	4.0250	4.0252	0.8975	8.11	2.12	0.750			
0.2391	15300.77	4.0220	4.0220	0.8969	8.10	2.11	0.750			
0.2418	15473.28	4.0190	4.0191	0.8972	8.10	2.11	0.750			
0.2445	15645.97	4.0160	4.0159	0.8825	8.09	2.10	0.750			
0.2471	15814.36	4.0130	4.0130	0.8796	8.09	2.10	0.750			
0.2497	15982.75	4.0100	4.0101	0.8762	8.08	2.09	0.750			
0.2523	16146.75	4.0070	4.0070	0.8844	8.08	2.09	0.750			
0.2549	16316.23	4.0040	4.0040	0.8960	8.07	2.08	0.750			
0.2577	16489.81	4.0010	4.0008	0.9017	8.07	2.08	0.750			
0.2604	16664.61	3.9980	3.9981	0.9103	8.06	2.07	0.750			
0.2632	16844.47	3.9950	3.9951	0.9122	8.06	2.07	0.750			
0.2660	17021.36	3.9920	3.9920	0.9094	8.05	2.06	0.750			
0.2686	17191.00	3.9890	3.9890	0.9106	8.04	2.05	0.750			
0.2713	17364.05	3.9860	3.9860	0.9154	8.04	2.05	0.750			
0.2740	17538.88	3.9830	3.9829	0.9189	8.03	2.04	0.750			
0.2769	17718.44	3.9800	3.9799	0.9261	8.02	2.03	0.750			
0.2797	17898.55	3.9770	3.9773	0.9343	8.01	2.02	0.750			
0.2825	18079.81	3.9740	3.9738	0.9362	8.00	2.01	0.750			
0.2853	18260.53	3.9710	3.9710	0.9338	8.00	2.01	0.750			
0.2881	18436.88	3.9680	3.9680	0.9388	7.99	2.00	0.750			
0.2909	18615.98	3.9650	3.9650	0.9420	7.99	2.00	0.750			
0.2937	18796.13	3.9620	3.9620	0.9459	7.98	1.99	0.750			
0.2966	18981.55	3.9590	3.9591	0.9558	7.98	1.99	0.750			
0.2994	19163.83	3.9560	3.9559	0.9679	7.97	1.98	0.750			
0.3024	19351.49	3.9530	3.9531	0.9783	7.96	1.97	0.750			
0.3053	19541.09	3.9500	3.9500	0.9805	7.96	1.97	0.750			
0.3083	19729.32	3.9470	3.9469	0.9880	7.95	1.96	0.750			
0.3113	19921.73	3.9440	3.9441	0.9942	7.94	1.95	0.750			
0.3142	20111.21	3.9410	3.9409	0.9947	7.93	1.94	0.750			
0.3172	20302.09	3.9380	3.9380	1.0042	7.93	1.94	0.750			
0.3203	20496.93	3.9350	3.9349	1.0065	7.92	1.93	0.750			
0.3233	20688.77	3.9320	3.9319	1.0126	7.91	1.92	0.750			
0.3263	20883.34	3.9290	3.9291	1.0238	7.91	1.92	0.750			
0.3293	21076.07	3.9260	3.9261	1.0389	7.90	1.91	0.750			
0.3325	21278.41	3.9230	3.9228	1.0537	7.89	1.90	0.750			
0.3357	21482.33	3.9200	3.9200	1.0582	7.88	1.89	0.750			
0.3389	21687.31	3.9170	3.9169	1.0634	7.88	1.89	0.750			
0.3421	21895.54	3.9140	3.9143	1.0803	7.87	1.88	0.750			
0.3454	22102.80	3.9110	3.9107	1.0844	7.86	1.87	0.750			
0.3485	22306.71	3.9080	3.9080	1.0985	7.85	1.86	0.750			
0.3519	22519.47	3.9050	3.9050	1.1129	7.83	1.84	0.750			
0.3552	22734.87	3.9020	3.9021	1.1372	7.82	1.83	0.750			
0.3587	22954.83	3.8990	3.8991	1.1450	7.81	1.82	0.750			
0.3622	23179.40	3.8960	3.8960	1.1521	7.80	1.81	0.750			
0.3656	23400.71	3.8930	3.8931	1.1567	7.80	1.81	0.750			
0.3691	23624.75	3.8900	3.8901	1.1617	7.79	1.80	0.750			
0.3726	23844.19	3.8870	3.8870	1.1683	7.78	1.79	0.750			
0.3760	24066.97	3.8840	3.8840	1.2090	7.77	1.78	0.750			
0.3796	24295.11	3.8810	3.8811	1.2413	7.76	1.77	0.750			
0.3835	24545.62	3.8780	3.8777	1.2616	7.75	1.76	0.750			
0.3873	24789.00	3.8750	3.8751	1.2883	7.74	1.75	0.750			
0.3912	25039.92	3.8720	3.8723	1.3167	7.72	1.73	0.750			
0.3953	25298.30	3.8690	3.8687	1.3207	7.71	1.72	0.750			
0.3992	25547.82	3.8660	3.8659	1.3302	7.70	1.71	0.750			
0.4031	25800.96	3.8630	3.8633	1.3449	7.69	1.70	0.750			
0.4072	26060.57	3.8600	3.8599	1.3758	7.68	1.69	0.750			
0.4114	26328.73	3.8570	3.8570	1.3998	7.67	1.68	0.750			
0.4156	26598.38	3.8540	3.8542	1.4193	7.65	1.66	0.750	0.459	1.039	
0.4199	26872.02	3.8510	3.8511	1.4564	7.64	1.65	0.750			
0.4243	27157.75	3.8480	3.8477	1.4856	7.62	1.63	0.750			
0.4288	27441.87	3.8450	3.8451	1.5288	7.61	1.62	0.750			
0.4334	27739.39	3.8420	3.8419	1.5440	7.59	1.60	0.750			
0.4381	28040.10	3.8390	3.8390	1.5923	7.57	1.58	0.750			
0.4429	28348.13	3.8360	3.8360	1.6194	7.56	1.57	0.750			
0.4479	28666.65	3.8330	3.8332	1.6540	7.54	1.55	0.750			
0.4529	28987.13	3.8300	3.8299	1.6721	7.52	1.53	0.750			
0.4580	29314.31	3.8270	3.8270	1.7166	7.50	1.51	0.750			
0.4632	29642.13	3.8240	3.8238	1.7578	7.48	1.49	0.750			
0.4684	29979.76	3.8210	3.8210	1.7962	7.46	1.47	0.750			
0.4738	30325.00	3.8180	3.8184	1.8399	7.44	1.45	0.750			
0.4795	30687.67	3.8150	3.8149	1.9096	7.42	1.43	0.750			
0.4853	31056.85	3.8120	3.8120	1.9699	7.40	1.41	0.750			
0.4914	31447.94	3.8090	3.8089	1.9982	7.38	1.39	0.750			
0.4975	31840.06	3.8060	3.8062	2.0576	7.35	1.36	0.750			
0.5037	32235.95	3.8030	3.8031	2.1072	7.32	1.33	0.750			
0.5100	32638.88	3.8000	3.7999	2.1492	7.29	1.30	0.750			
0.5165	33056.53	3.7970	3.7967	2.1830	7.27	1.28	0.750			
0.5232	33487.13	3.7940	3.7942	2.2231	7.25	1.26	0.750			
0.5301	33923.43	3.7910	3.7911	2.2626	7.21	1.22	0.750			
0.5369	34359.71	3.7880	3.7880	2.3175	7.18	1.19	0.750			
0.5437	34798.63	3.7850	3.7850	2.3758	7.15	1.16	0.750			
0.5511	35267.95	3.7820	3.7821	2.4516	7.12	1.13	0.750			
0.5585	35744.25	3.7790	3.7790	2.5300	7.09	1.10	0.750			
0.5663	36240.40	3.7760	3.7760	2.6002	7.05	1.06	0.750			
0.5742	36746.46	3.7730	3.7730	2.6697	7.01	1.02	0.750			
0.5824	37274.53	3.7700	3.7701	2.6802	6.97	0.98	0.750			
0.5905	37792.00	3.7670	3.7670	2.6642	6.94	0.95	0.750			
0.5983	38293.47	3.7640	3.7640	2.7049	6.91	0.92	0.750			
0.6065	38815.21	3.7610	3.7609	2.7666	6.87	0.88	0.750			
0.6148	39349.55	3.7580	3.7581	2.8718	6.83	0.84	0.750			
0.6239	39927.08	3.7550	3.7550	2.8851	6.79	0.80	0.750			
0.6324	40473.93	3.7520	3.7520	2.9225	6.75	0.76	0.750			
0.6410	41024.26	3.7490	3.7489	2.9800	6.71	0.72	0.750			
0.6501	41608.14	3.7460	3.7460	3.1609	6.67	0.68	0.750			
0.6599	42234.58	3.7430	3.7431	3.2966	6.63	0.64	0.750			
0.6701	42885.19	3.7400	3.7401	3.4393	6.58	0.59	0.750			
0.6806	43559.37	3.7370	3.7370	3.4574	6.54	0.55	0.750			
0.6912	44235.43	3.7340	3.7342	3.4110	6.49	0.50	0.750			
0.7012	44875.72	3.7310	3.7310	3.2866	6.44	0.45	0.750			
0.7108	45494.02	3.7280	3.7279	3.0658	6.40	0.41	0.750			
0.7200	46078.93	3.7250	3.7250	2.8067	6.36	0.37	0.750			
0.7278	46580.49	3.7220	3.7220	2.4680	6.32	0.33	0.750			
0.7344	47002.99	3.7190	3.7190	2.1465	6.29	0.30	0.750			
0.7404	47384.57	3.7160	3.7161	1.9095	6.26	0.27	0.750			
0.7457	47722.58	3.7130	3.7128	1.7127	6.24	0.25	0.750			
0.7504	48024.71	3.7100	3.7102	1.5407	6.22	0.23	0.750			
0.7547	48300.95	3.7070	3.7070	1.4095	6.21	0.22	0.750			
0.7586	48551.06	3.7040	3.7040	1.2907	6.20	0.21	0.750			
0.7623	48785.65	3.7010	3.7010	1.2201	6.18	0.19	0.750			
0.7657	49003.41	3.6980	3.6981	1.1453	6.16	0.17	0.750			
0.7690	49216.63	3.6950	3.6948	1.1114	6.15	0.16	0.750			
0.7722	49422.29	3.6920	3.6921	1.0715	6.13	0.14	0.750			
0.7754	49623.13	3.6890	3.6890	1.0573	6.12	0.13	0.750			
0.7785	49826.76	3.6860	3.6859	1.0415	6.11	0.12	0.750			
0.7817	50025.84	3.6830	3.6830	1.0205	6.10	0.11	0.750			
0.7847	50221.69	3.6800	3.6801	0.9884	6.09	0.10	0.750			
0.7877	50411.91	3.6770	3.6771	0.9708	6.08	0.09	0.750			
0.7905	50591.66	3.6740	3.6740	0.9513	6.07	0.08	0.750			
0.7933	50770.16	3.6710	3.6710	0.9301	6.06	0.07	0.750			
0.7960	50943.98	3.6680	3.6680	0.9071	6.05	0.06	0.750			
0.7987	51119.55	3.6650	3.6651	0.8861	6.04	0.05	0.750			
0.8014	51292.00	3.6620	3.6621	0.8673	6.03	0.04	0.750			
0.8040	51457.60	3.6590	3.6590	0.8386	6.02	0.03	0.750			
0.8065	51614.98	3.6560	3.6561	0.7986	6.01	0.02	0.750			
0.8088	51762.64	3.6530	3.6531	0.7683	6.01	0.02	0.750			
0.8111	51907.79	3.6500	3.6499	0.7417	6.00	0.01	0.750			
0.8133	52049.47	3.6470	3.6469	0.7063	6.00	0.01	0.750			
0.8154	52183.20	3.6440	3.6440	0.6669	6.00	0.01	0.750			
0.8173	52309.50	3.6410	3.6411	0.6282	5.99	0.00	0.750			
0.8192	52427.53	3.6380	3.6382	0.5774	5.99	0.00	0.750			
0.8209	52535.37	3.6350	3.6349	0.5230	5.99	-0.00	0.750			
0.8223	52629.41	3.6320	3.6321	0.4620	5.99	-0.00	0.750			
0.8236	52712.29	3.6290	3.6290	0.4043	5.98	-0.01	0.750			
0.8248	52784.54	3.6260	3.6260	0.3462	5.98	-0.01	0.750			
0.8257	52843.46	3.6230	3.6230	0.2910	5.98	-0.01	0.750			
0.8265	52892.89	3.6200	3.6201	0.2355	5.98	-0.01	0.750			
0.8271	52934.10	3.6170	3.6169	0.1886	5.98	-0.01	0.750			
0.8276	52965.48	3.6140	3.6138	0.1404	5.98	-0.01	0.750			
0.8279	52986.96	3.6110	3.6104	0.0916	5.98	-0.01	0.750			
0.8281	52998.49	3.6020	3.6033	-0.0459	5.98	-0.01	0.750			
0.8281	52998.64	3.6080	3.6029	0.0451	5.98	-0.01	0.750			
0.8282	53002.93	3.6050	3.5745	-0.0004	5.98	-0.01	0.752			
