Ah_balance (normalized)	Ah_balance (mAh)	Voltage - fit (V)	Voltage -  interpolate (V)	dQ/dV (1/V)	Temperature (°C)	Temperature - diff (°C)	Current (C)	R_DC 0ms (mOhm)	R_DC 50ms (mOhm)	R_DC 50 ms PEC (mOhm)
0.0949	6070.96	4.1990	4.1967	0.5687	8.38	2.31	0.750	0.377	0.808	
0.0969	6202.77	4.1960	4.1985	0.7584	8.38	2.31	0.750			
0.0995	6367.84	4.1930	4.1950	0.8227	8.37	2.30	0.750			
0.1021	6531.71	4.1900	4.1914	0.8138	8.36	2.29	0.750			
0.1047	6697.67	4.1870	4.1877	0.8164	8.36	2.29	0.750			
0.1071	6856.94	4.1840	4.1836	0.8023	8.35	2.28	0.750			
0.1091	6982.68	4.1810	4.1810	0.6933	8.34	2.27	0.750			
0.1112	7117.61	4.1780	4.1781	0.6977	8.34	2.27	0.750			
0.1133	7253.86	4.1750	4.1750	0.7073	8.33	2.26	0.750			
0.1155	7389.54	4.1720	4.1720	0.7076	8.32	2.25	0.750			
0.1176	7525.78	4.1690	4.1690	0.7090	8.32	2.25	0.750			
0.1197	7662.20	4.1660	4.1659	0.7106	8.31	2.24	0.750			
0.1219	7798.73	4.1630	4.1631	0.7122	8.30	2.23	0.750			
0.1240	7936.43	4.1600	4.1600	0.7181	8.30	2.23	0.750			
0.1261	8073.04	4.1570	4.1571	0.7268	8.29	2.22	0.750			
0.1283	8213.93	4.1540	4.1539	0.7252	8.29	2.22	0.750			
0.1305	8354.81	4.1510	4.1512	0.7268	8.28	2.21	0.750			
0.1327	8495.86	4.1480	4.1480	0.7275	8.28	2.21	0.750			
0.1349	8635.12	4.1450	4.1451	0.7264	8.27	2.20	0.750			
0.1371	8774.04	4.1420	4.1420	0.7250	8.26	2.19	0.750			
0.1392	8910.94	4.1390	4.1390	0.7353	8.26	2.19	0.750			
0.1414	9051.25	4.1360	4.1360	0.7398	8.25	2.18	0.750			
0.1437	9198.01	4.1330	4.1329	0.7494	8.24	2.17	0.750			
0.1460	9343.19	4.1300	4.1301	0.7509	8.24	2.17	0.750			
0.1483	9489.89	4.1270	4.1271	0.7518	8.23	2.16	0.750			
0.1505	9634.02	4.1240	4.1240	0.7491	8.23	2.16	0.750			
0.1527	9774.35	4.1210	4.1210	0.7462	8.22	2.15	0.750			
0.1550	9917.08	4.1180	4.1181	0.7537	8.21	2.14	0.750			
0.1572	10062.18	4.1150	4.1148	0.7571	8.21	2.14	0.750			
0.1595	10210.21	4.1120	4.1120	0.7595	8.20	2.13	0.750			
0.1619	10358.82	4.1090	4.1089	0.7566	8.20	2.13	0.750			
0.1641	10501.49	4.1060	4.1062	0.7642	8.19	2.12	0.750			
0.1664	10648.19	4.1030	4.1030	0.7760	8.19	2.12	0.750			
0.1687	10794.69	4.1000	4.0998	0.7760	8.18	2.11	0.750			
0.1710	10946.08	4.0970	4.0971	0.7829	8.17	2.10	0.750			
0.1734	11100.00	4.0940	4.0941	0.7832	8.17	2.10	0.750			
0.1758	11250.39	4.0910	4.0910	0.7846	8.16	2.09	0.750			
0.1782	11402.97	4.0880	4.0880	0.7822	8.15	2.08	0.750			
0.1804	11547.56	4.0850	4.0850	0.7805	8.14	2.07	0.750			
0.1827	11694.96	4.0820	4.0820	0.7855	8.14	2.07	0.750			
0.1852	11849.68	4.0790	4.0790	0.7931	8.13	2.06	0.750			
0.1876	12004.57	4.0760	4.0759	0.7968	8.13	2.06	0.750			
0.1900	12157.62	4.0730	4.0731	0.8009	8.12	2.05	0.750			
0.1924	12311.05	4.0700	4.0702	0.8008	8.12	2.05	0.750			
0.1948	12464.72	4.0670	4.0668	0.8067	8.11	2.04	0.750			
0.1972	12618.30	4.0640	4.0639	0.8076	8.10	2.03	0.750			
0.1996	12772.05	4.0610	4.0610	0.8132	8.09	2.02	0.750			
0.2020	12930.43	4.0580	4.0581	0.8226	8.09	2.02	0.750			
0.2046	13092.20	4.0550	4.0550	0.8265	8.08	2.01	0.750			
0.2071	13251.37	4.0520	4.0520	0.8241	8.07	2.00	0.750			
0.2095	13410.82	4.0490	4.0490	0.8237	8.06	1.99	0.750			
0.2120	13565.77	4.0460	4.0461	0.8234	8.06	1.99	0.750			
0.2144	13722.87	4.0430	4.0431	0.8346	8.05	1.98	0.750			
0.2169	13882.98	4.0400	4.0399	0.8385	8.05	1.98	0.750			
0.2194	14044.33	4.0370	4.0368	0.8515	8.04	1.97	0.750			
0.2221	14211.28	4.0340	4.0340	0.8606	8.03	1.96	0.750			
0.2246	14377.43	4.0310	4.0310	0.8678	8.02	1.95	0.750			
0.2273	14547.16	4.0280	4.0279	0.8706	8.01	1.94	0.750			
0.2299	14714.35	4.0250	4.0251	0.8679	8.01	1.94	0.750			
0.2325	14879.04	4.0220	4.0220	0.8624	8.00	1.93	0.750			
0.2351	15045.72	4.0190	4.0190	0.8640	7.99	1.92	0.750			
0.2376	15209.02	4.0160	4.0160	0.8616	7.98	1.91	0.750			
0.2402	15374.70	4.0130	4.0129	0.8665	7.97	1.90	0.750			
0.2428	15540.82	4.0100	4.0101	0.8701	7.97	1.90	0.750			
0.2455	15710.49	4.0070	4.0071	0.8751	7.96	1.89	0.750			
0.2481	15877.79	4.0040	4.0040	0.8847	7.95	1.88	0.750			
0.2508	16048.60	4.0010	4.0010	0.8919	7.94	1.87	0.750			
0.2534	16220.23	3.9980	3.9980	0.8932	7.94	1.87	0.750			
0.2561	16391.45	3.9950	3.9949	0.8984	7.93	1.86	0.750			
0.2589	16567.09	3.9920	3.9921	0.9003	7.92	1.85	0.750			
0.2616	16740.24	3.9890	3.9890	0.9007	7.92	1.85	0.750			
0.2642	16911.80	3.9860	3.9859	0.9113	7.91	1.84	0.750			
0.2670	17085.14	3.9830	3.9831	0.9135	7.90	1.83	0.750			
0.2697	17261.24	3.9800	3.9798	0.9186	7.89	1.82	0.750			
0.2725	17439.53	3.9770	3.9770	0.9233	7.88	1.81	0.750			
0.2753	17616.66	3.9740	3.9742	0.9287	7.88	1.81	0.750			
0.2781	17796.62	3.9710	3.9710	0.9363	7.87	1.80	0.750			
0.2809	17976.74	3.9680	3.9680	0.9388	7.86	1.79	0.750			
0.2837	18157.52	3.9650	3.9650	0.9360	7.85	1.78	0.750			
0.2865	18336.68	3.9620	3.9621	0.9467	7.84	1.77	0.750			
0.2894	18518.84	3.9590	3.9590	0.9557	7.83	1.76	0.750			
0.2922	18703.66	3.9560	3.9560	0.9595	7.82	1.75	0.750			
0.2951	18887.11	3.9530	3.9529	0.9580	7.81	1.74	0.750			
0.2980	19071.53	3.9500	3.9501	0.9651	7.80	1.73	0.750			
0.3009	19257.18	3.9470	3.9470	0.9736	7.79	1.72	0.750			
0.3038	19443.75	3.9440	3.9441	0.9888	7.78	1.71	0.750			
0.3068	19632.31	3.9410	3.9406	0.9959	7.77	1.70	0.750			
0.3098	19825.19	3.9380	3.9381	1.0069	7.76	1.69	0.750			
0.3128	20022.15	3.9350	3.9350	1.0209	7.75	1.68	0.750			
0.3159	20219.62	3.9320	3.9321	1.0319	7.74	1.67	0.750			
0.3190	20417.25	3.9290	3.9288	1.0433	7.73	1.66	0.750			
0.3221	20617.56	3.9260	3.9261	1.0419	7.72	1.65	0.750			
0.3253	20817.44	3.9230	3.9228	1.0502	7.71	1.64	0.750			
0.3285	21022.18	3.9200	3.9201	1.0573	7.70	1.63	0.750			
0.3317	21226.44	3.9170	3.9169	1.0607	7.69	1.62	0.750			
0.3348	21428.19	3.9140	3.9140	1.0648	7.68	1.61	0.750			
0.3380	21630.62	3.9110	3.9110	1.0772	7.67	1.60	0.750			
0.3412	21835.37	3.9080	3.9080	1.0850	7.66	1.59	0.750			
0.3445	22050.66	3.9050	3.9047	1.0928	7.65	1.58	0.750			
0.3478	22256.72	3.9020	3.9021	1.1145	7.64	1.57	0.750			
0.3511	22472.50	3.8990	3.8991	1.1399	7.63	1.56	0.750			
0.3546	22694.52	3.8960	3.8960	1.1565	7.62	1.55	0.750			
0.3581	22917.31	3.8930	3.8931	1.1606	7.61	1.54	0.750			
0.3616	23143.47	3.8900	3.8902	1.1797	7.60	1.53	0.750			
0.3652	23374.41	3.8870	3.8871	1.1953	7.58	1.51	0.750			
0.3688	23606.32	3.8840	3.8838	1.1933	7.57	1.50	0.750			
0.3724	23831.16	3.8810	3.8811	1.1868	7.56	1.49	0.750			
0.3759	24059.87	3.8780	3.8781	1.1994	7.54	1.47	0.750			
0.3795	24289.39	3.8750	3.8750	1.2212	7.52	1.45	0.750			
0.3831	24521.56	3.8720	3.8720	1.2421	7.51	1.44	0.750			
0.3869	24761.44	3.8690	3.8691	1.2746	7.49	1.42	0.750	0.377	0.836	
0.3908	25010.85	3.8660	3.8662	1.3037	7.48	1.41	0.750			
0.3948	25265.99	3.8630	3.8629	1.3350	7.47	1.40	0.750			
0.3989	25529.14	3.8600	3.8598	1.3528	7.46	1.39	0.750			
0.4030	25788.91	3.8570	3.8571	1.3611	7.44	1.37	0.750			
0.4071	26052.65	3.8540	3.8538	1.3823	7.43	1.36	0.750			
0.4112	26318.30	3.8510	3.8511	1.4084	7.41	1.34	0.750			
0.4155	26594.19	3.8480	3.8479	1.4287	7.40	1.33	0.750			
0.4198	26870.17	3.8450	3.8450	1.4525	7.38	1.31	0.750			
0.4242	27146.14	3.8420	3.8420	1.4697	7.36	1.29	0.750			
0.4287	27438.23	3.8390	3.8391	1.5015	7.34	1.27	0.750			
0.4332	27723.49	3.8360	3.8360	1.5288	7.32	1.25	0.750			
0.4378	28018.44	3.8330	3.8329	1.5491	7.30	1.23	0.750			
0.4425	28317.94	3.8300	3.8301	1.5558	7.29	1.22	0.750			
0.4472	28622.04	3.8270	3.8272	1.5781	7.27	1.20	0.750			
0.4520	28928.30	3.8240	3.8241	1.5949	7.24	1.17	0.750			
0.4567	29231.90	3.8210	3.8208	1.6314	7.22	1.15	0.750			
0.4617	29546.01	3.8180	3.8182	1.6508	7.20	1.13	0.750			
0.4666	29861.66	3.8150	3.8151	1.6754	7.18	1.11	0.750			
0.4718	30195.61	3.8120	3.8121	1.7158	7.16	1.09	0.750			
0.4770	30530.91	3.8090	3.8090	1.7275	7.13	1.06	0.750			
0.4823	30865.70	3.8060	3.8058	1.7397	7.10	1.03	0.750			
0.4875	31198.02	3.8030	3.8030	1.7587	7.08	1.01	0.750			
0.4927	31531.53	3.8000	3.8000	1.7766	7.06	0.99	0.750			
0.4981	31876.59	3.7970	3.7971	1.8106	7.04	0.97	0.750			
0.5034	32218.72	3.7940	3.7940	1.8449	7.01	0.94	0.750			
0.5091	32582.81	3.7910	3.7911	1.8699	6.99	0.92	0.750			
0.5147	32943.98	3.7880	3.7880	1.9218	6.96	0.89	0.750			
0.5207	33325.38	3.7850	3.7850	1.9441	6.93	0.86	0.750			
0.5265	33697.66	3.7820	3.7818	1.9455	6.91	0.84	0.750			
0.5324	34072.59	3.7790	3.7792	1.9781	6.88	0.81	0.750			
0.5383	34448.96	3.7760	3.7758	2.0046	6.85	0.78	0.750			
0.5443	34838.21	3.7730	3.7729	2.0449	6.83	0.76	0.750			
0.5504	35224.09	3.7700	3.7702	2.0933	6.81	0.74	0.750			
0.5569	35640.64	3.7670	3.7670	2.1797	6.78	0.71	0.750			
0.5634	36059.92	3.7640	3.7640	2.2350	6.75	0.68	0.750			
0.5702	36491.70	3.7610	3.7611	2.3306	6.72	0.65	0.750			
0.5774	36951.49	3.7580	3.7578	2.4606	6.69	0.62	0.750			
0.5849	37430.45	3.7550	3.7551	2.5240	6.66	0.59	0.750			
0.5927	37931.19	3.7520	3.7521	2.6559	6.62	0.55	0.750			
0.6006	38441.51	3.7490	3.7488	2.7368	6.59	0.52	0.750			
0.6090	38976.77	3.7460	3.7461	2.8487	6.55	0.48	0.750			
0.6179	39542.93	3.7430	3.7430	2.9906	6.52	0.45	0.750			
0.6270	40128.45	3.7400	3.7399	3.0539	6.48	0.41	0.750			
0.6364	40730.72	3.7370	3.7371	3.0807	6.44	0.37	0.750			
0.6458	41328.31	3.7340	3.7338	3.0197	6.41	0.34	0.750			
0.6548	41904.68	3.7310	3.7310	2.8328	6.38	0.31	0.750			
0.6632	42447.37	3.7280	3.7278	2.5740	6.35	0.28	0.750			
0.6700	42879.66	3.7250	3.7251	2.1739	6.33	0.26	0.750			
0.6757	43246.64	3.7220	3.7223	1.8638	6.30	0.23	0.750			
0.6809	43575.97	3.7190	3.7187	1.6240	6.28	0.21	0.750			
0.6851	43848.90	3.7160	3.7160	1.4457	6.27	0.20	0.750			
0.6890	44098.66	3.7130	3.7130	1.3183	6.27	0.20	0.750			
0.6928	44339.33	3.7100	3.7101	1.2425	6.26	0.19	0.750			
0.6964	44568.84	3.7070	3.7070	1.1914	6.25	0.18	0.750			
0.6997	44782.61	3.7040	3.7040	1.1434	6.24	0.17	0.750			
0.7031	44998.46	3.7010	3.7010	1.1271	6.23	0.16	0.750			
0.7064	45212.28	3.6980	3.6979	1.1121	6.21	0.14	0.750			
0.7098	45425.30	3.6950	3.6950	1.0944	6.20	0.13	0.750			
0.7131	45638.13	3.6920	3.6921	1.0694	6.19	0.12	0.750			
0.7163	45841.77	3.6890	3.6890	1.0451	6.18	0.11	0.750			
0.7194	46038.88	3.6860	3.6860	1.0174	6.17	0.10	0.750			
0.7223	46229.46	3.6830	3.6830	0.9804	6.16	0.09	0.750			
0.7252	46413.73	3.6800	3.6799	0.9599	6.15	0.08	0.750			
0.7280	46594.55	3.6770	3.6770	0.9397	6.14	0.07	0.750			
0.7308	46773.19	3.6740	3.6740	0.9189	6.13	0.06	0.750			
0.7336	46948.16	3.6710	3.6711	0.9055	6.13	0.06	0.750			
0.7362	47117.45	3.6680	3.6681	0.8922	6.12	0.05	0.750			
0.7389	47287.11	3.6650	3.6650	0.8943	6.11	0.04	0.750			
0.7415	47456.64	3.6620	3.6619	0.9023	6.11	0.04	0.750			
0.7442	47629.02	3.6590	3.6587	0.9052	6.10	0.03	0.750			
0.7470	47807.46	3.6560	3.6560	0.9055	6.09	0.02	0.750			
0.7497	47982.63	3.6530	3.6531	0.9137	6.09	0.02	0.750			
0.7525	48159.17	3.6500	3.6500	0.9139	6.08	0.01	0.750			
0.7552	48335.85	3.6470	3.6470	0.9028	6.07	0.00	0.750			
0.7580	48509.09	3.6440	3.6440	0.8797	6.07	0.00	0.750			
0.7607	48681.92	3.6410	3.6410	0.8279	6.07	0.00	0.750			
0.7632	48847.77	3.6380	3.6380	0.7679	6.07	0.00	0.750			
0.7655	48992.17	3.6350	3.6352	0.6737	6.07	0.00	0.750			
0.7674	49112.83	3.6320	3.6321	0.5701	6.07	0.00	0.750			
0.7687	49196.61	3.6290	3.6297	0.4805	6.07	0.00	0.750			
0.7700	49280.31	3.6260	3.6263	0.3988	6.07	0.00	0.750			
0.7710	49342.90	3.6230	3.6231	0.3070	6.07	0.00	0.750			
0.7718	49392.81	3.6200	3.6195	0.2439	6.07	0.00	0.750			
0.7723	49428.89	3.6170	3.6150	0.1844	6.07	0.00	0.750			
0.7727	49452.24	3.5960	3.5394	-0.1112	6.07	0.00	0.749			
0.7727	49453.60	3.6140	3.5215	0.1296	6.07	0.00	0.749			
0.7729	49466.48	3.6110	3.3520	0.0815	6.07	0.00	0.746			
0.7730	49469.89	3.5990	3.3071	-0.0727	6.07	0.00	0.745			
0.7731	49478.43	3.6080	3.1947	0.0430	6.07	0.00	0.743			
0.7731	49480.13	3.6020	3.1723	-0.0341	6.07	0.00	0.743			
0.7732	49482.98	3.6050	3.1348	0.0044	6.07	0.00	0.742			
