Ah_balance (normalized)	Ah_balance (mAh)	Voltage - fit (V)	Voltage -  interpolate (V)	dQ/dV (1/V)	Temperature (°C)	Temperature - diff (°C)	Current (C)	R_DC 0ms (mOhm)	R_DC 50ms (mOhm)	R_DC 50 ms PEC (mOhm)
0.0923	5905.38	4.1980	4.1954	0.7388	8.13	2.14	0.750	0.397	0.892	
0.0948	6070.03	4.1950	4.1972	0.8953	8.13	2.14	0.750			
0.0976	6245.19	4.1920	4.1931	0.8737	8.12	2.13	0.750			
0.1001	6409.43	4.1890	4.1895	0.8277	8.11	2.12	0.750			
0.1028	6576.23	4.1860	4.1857	0.8126	8.11	2.12	0.750			
0.1048	6704.96	4.1830	4.1831	0.7136	8.10	2.11	0.750			
0.1069	6841.35	4.1800	4.1801	0.7194	8.10	2.11	0.750			
0.1091	6980.81	4.1770	4.1771	0.7209	8.09	2.10	0.750			
0.1112	7119.64	4.1740	4.1739	0.7205	8.09	2.10	0.750			
0.1134	7258.32	4.1710	4.1710	0.7212	8.08	2.09	0.750			
0.1156	7396.46	4.1680	4.1681	0.7185	8.08	2.09	0.750			
0.1177	7533.17	4.1650	4.1650	0.7216	8.07	2.08	0.750			
0.1199	7671.80	4.1620	4.1619	0.7246	8.07	2.08	0.750			
0.1220	7810.29	4.1590	4.1590	0.7258	8.06	2.07	0.750			
0.1243	7952.36	4.1560	4.1560	0.7279	8.06	2.07	0.750			
0.1264	8091.71	4.1530	4.1530	0.7277	8.06	2.07	0.750			
0.1286	8231.33	4.1500	4.1500	0.7309	8.05	2.06	0.750			
0.1308	8370.39	4.1470	4.1470	0.7340	8.05	2.06	0.750			
0.1330	8510.38	4.1440	4.1439	0.7377	8.05	2.06	0.750			
0.1352	8653.54	4.1410	4.1410	0.7418	8.04	2.05	0.750			
0.1375	8797.16	4.1380	4.1380	0.7482	8.04	2.05	0.750			
0.1397	8942.87	4.1350	4.1351	0.7531	8.04	2.05	0.750			
0.1420	9087.21	4.1320	4.1320	0.7547	8.03	2.04	0.750			
0.1443	9232.02	4.1290	4.1290	0.7576	8.03	2.04	0.750			
0.1465	9377.55	4.1260	4.1260	0.7580	8.02	2.03	0.750			
0.1488	9524.16	4.1230	4.1230	0.7601	8.02	2.03	0.750			
0.1511	9670.03	4.1200	4.1199	0.7706	8.01	2.02	0.750			
0.1534	9818.66	4.1170	4.1171	0.7657	8.01	2.02	0.750			
0.1557	9966.38	4.1140	4.1139	0.7683	8.00	2.01	0.750			
0.1580	10112.72	4.1110	4.1110	0.7680	7.99	2.00	0.750			
0.1604	10262.54	4.1080	4.1079	0.7611	7.99	2.00	0.750			
0.1626	10406.53	4.1050	4.1050	0.7661	7.98	1.99	0.750			
0.1649	10552.67	4.1020	4.1020	0.7787	7.98	1.99	0.750			
0.1672	10699.83	4.0990	4.0991	0.7794	7.97	1.98	0.750			
0.1696	10853.94	4.0960	4.0960	0.7915	7.97	1.98	0.750			
0.1720	11007.93	4.0930	4.0931	0.7926	7.96	1.97	0.750			
0.1744	11161.97	4.0900	4.0901	0.7959	7.96	1.97	0.750			
0.1768	11317.29	4.0870	4.0870	0.8003	7.96	1.97	0.750			
0.1792	11465.99	4.0840	4.0840	0.7931	7.95	1.96	0.750			
0.1815	11616.32	4.0810	4.0810	0.8009	7.95	1.96	0.750			
0.1840	11774.35	4.0780	4.0779	0.8040	7.94	1.95	0.750			
0.1864	11928.79	4.0750	4.0750	0.8063	7.94	1.95	0.750			
0.1888	12085.21	4.0720	4.0720	0.8140	7.94	1.95	0.750			
0.1913	12240.51	4.0690	4.0692	0.8121	7.93	1.94	0.750			
0.1937	12396.91	4.0660	4.0659	0.8101	7.93	1.94	0.750			
0.1961	12552.17	4.0630	4.0630	0.8112	7.93	1.94	0.750			
0.1985	12706.12	4.0600	4.0601	0.8123	7.92	1.93	0.750			
0.2010	12864.04	4.0570	4.0570	0.8213	7.92	1.93	0.750			
0.2035	13022.12	4.0540	4.0540	0.8237	7.91	1.92	0.750			
0.2059	13180.04	4.0510	4.0510	0.8257	7.91	1.92	0.750			
0.2085	13340.86	4.0480	4.0480	0.8302	7.90	1.91	0.750			
0.2110	13501.16	4.0450	4.0450	0.8358	7.90	1.91	0.750			
0.2135	13661.46	4.0420	4.0421	0.8346	7.89	1.90	0.750			
0.2160	13821.61	4.0390	4.0390	0.8343	7.88	1.89	0.750			
0.2185	13982.59	4.0360	4.0360	0.8336	7.88	1.89	0.750			
0.2210	14142.26	4.0330	4.0330	0.8379	7.88	1.89	0.750			
0.2235	14301.85	4.0300	4.0300	0.8441	7.87	1.88	0.750			
0.2260	14464.31	4.0270	4.0269	0.8455	7.87	1.88	0.750			
0.2285	14626.20	4.0240	4.0240	0.8520	7.86	1.87	0.750			
0.2311	14791.65	4.0210	4.0210	0.8609	7.86	1.87	0.750			
0.2337	14958.29	4.0180	4.0179	0.8640	7.85	1.86	0.750			
0.2363	15124.17	4.0150	4.0150	0.8783	7.85	1.86	0.750			
0.2390	15294.35	4.0120	4.0121	0.8783	7.84	1.85	0.750			
0.2416	15464.93	4.0090	4.0089	0.8785	7.83	1.84	0.750			
0.2443	15634.74	4.0060	4.0061	0.8839	7.83	1.84	0.750			
0.2469	15804.63	4.0030	4.0030	0.8719	7.82	1.83	0.750			
0.2495	15970.50	4.0000	3.9999	0.8785	7.81	1.82	0.750			
0.2522	16137.85	3.9970	3.9971	0.8818	7.81	1.82	0.750			
0.2548	16304.99	3.9940	3.9939	0.8851	7.80	1.81	0.750			
0.2575	16478.25	3.9910	3.9912	0.8991	7.80	1.81	0.750			
0.2602	16651.48	3.9880	3.9880	0.9133	7.79	1.80	0.750			
0.2629	16827.82	3.9850	3.9850	0.9211	7.79	1.80	0.750			
0.2658	17009.16	3.9820	3.9821	0.9315	7.78	1.79	0.750			
0.2686	17189.07	3.9790	3.9789	0.9285	7.78	1.79	0.750			
0.2714	17369.11	3.9760	3.9760	0.9186	7.77	1.78	0.750			
0.2741	17542.84	3.9730	3.9731	0.9230	7.77	1.78	0.750			
0.2769	17719.54	3.9700	3.9700	0.9189	7.76	1.77	0.750			
0.2796	17894.54	3.9670	3.9668	0.9152	7.75	1.76	0.750			
0.2824	18070.69	3.9640	3.9642	0.9208	7.75	1.76	0.750			
0.2851	18246.29	3.9610	3.9612	0.9199	7.74	1.75	0.750			
0.2879	18423.32	3.9580	3.9579	0.9252	7.73	1.74	0.750			
0.2906	18599.00	3.9550	3.9551	0.9398	7.73	1.74	0.750			
0.2934	18777.29	3.9520	3.9517	0.9467	7.72	1.73	0.750			
0.2963	18964.44	3.9490	3.9492	0.9543	7.71	1.72	0.750			
0.2992	19151.58	3.9460	3.9460	0.9633	7.71	1.72	0.750			
0.3022	19337.78	3.9430	3.9432	0.9691	7.70	1.71	0.750			
0.3050	19520.76	3.9400	3.9399	0.9795	7.69	1.70	0.750			
0.3080	19708.83	3.9370	3.9369	0.9859	7.68	1.69	0.750			
0.3109	19897.77	3.9340	3.9339	0.9967	7.67	1.68	0.750			
0.3140	20092.81	3.9310	3.9310	1.0143	7.66	1.67	0.750			
0.3171	20291.72	3.9280	3.9280	1.0304	7.65	1.66	0.750			
0.3202	20490.98	3.9250	3.9250	1.0311	7.64	1.65	0.750			
0.3233	20690.13	3.9220	3.9219	1.0311	7.64	1.65	0.750			
0.3264	20888.11	3.9190	3.9192	1.0286	7.63	1.64	0.750			
0.3295	21085.22	3.9160	3.9159	1.0420	7.62	1.63	0.750			
0.3326	21285.70	3.9130	3.9131	1.0315	7.61	1.62	0.750			
0.3356	21481.51	3.9100	3.9099	1.0477	7.60	1.61	0.750			
0.3388	21681.20	3.9070	3.9071	1.0642	7.59	1.60	0.750			
0.3420	21887.65	3.9040	3.9040	1.0881	7.58	1.59	0.750			
0.3453	22099.65	3.9010	3.9012	1.0921	7.57	1.58	0.750			
0.3486	22312.15	3.8980	3.8980	1.1071	7.57	1.58	0.750			
0.3520	22525.31	3.8950	3.8951	1.1146	7.56	1.57	0.750			
0.3554	22743.15	3.8920	3.8917	1.1285	7.55	1.56	0.750			
0.3587	22955.99	3.8890	3.8890	1.1350	7.54	1.55	0.750			
0.3621	23174.17	3.8860	3.8861	1.1519	7.53	1.54	0.750			
0.3656	23395.48	3.8830	3.8830	1.1770	7.52	1.53	0.750			
0.3692	23626.48	3.8800	3.8800	1.1871	7.51	1.52	0.750			
0.3727	23855.17	3.8770	3.8771	1.2147	7.49	1.50	0.750			
0.3764	24091.39	3.8740	3.8740	1.2325	7.48	1.49	0.750			
0.3802	24330.25	3.8710	3.8709	1.2469	7.47	1.48	0.750			
0.3839	24571.06	3.8680	3.8680	1.2547	7.46	1.47	0.750			
0.3877	24811.76	3.8650	3.8650	1.2758	7.45	1.46	0.750			
0.3915	25058.61	3.8620	3.8620	1.2915	7.43	1.44	0.750			
0.3954	25305.78	3.8590	3.8590	1.3235	7.42	1.43	0.750			
0.3994	25559.28	3.8560	3.8560	1.3385	7.41	1.42	0.750			
0.4035	25825.37	3.8530	3.8529	1.3527	7.40	1.41	0.750	0.407	0.921	
0.4076	26086.73	3.8500	3.8503	1.3858	7.38	1.39	0.750			
0.4118	26353.07	3.8470	3.8473	1.4190	7.37	1.38	0.750			
0.4161	26627.34	3.8440	3.8439	1.4403	7.36	1.37	0.750			
0.4204	26906.39	3.8410	3.8411	1.4647	7.34	1.35	0.750			
0.4248	27186.62	3.8380	3.8380	1.4823	7.32	1.33	0.750			
0.4294	27479.69	3.8350	3.8351	1.5177	7.30	1.31	0.750			
0.4340	27775.16	3.8320	3.8317	1.5637	7.29	1.30	0.750			
0.4386	28070.38	3.8290	3.8292	1.5883	7.27	1.28	0.750			
0.4435	28383.61	3.8260	3.8260	1.6173	7.25	1.26	0.750			
0.4485	28706.49	3.8230	3.8230	1.6323	7.23	1.24	0.750			
0.4534	29020.53	3.8200	3.8201	1.6510	7.21	1.22	0.750			
0.4584	29334.74	3.8170	3.8171	1.6971	7.19	1.20	0.750			
0.4635	29661.02	3.8140	3.8138	1.7342	7.17	1.18	0.750			
0.4686	29991.90	3.8110	3.8113	1.7618	7.15	1.16	0.750			
0.4740	30335.28	3.8080	3.8081	1.8094	7.13	1.14	0.750			
0.4797	30700.73	3.8050	3.8049	1.8568	7.10	1.11	0.750			
0.4853	31060.31	3.8020	3.8019	1.8874	7.07	1.08	0.750			
0.4909	31420.32	3.7990	3.7990	1.9331	7.04	1.05	0.750			
0.4967	31787.30	3.7960	3.7957	1.9832	7.01	1.02	0.750			
0.5028	32178.86	3.7930	3.7931	2.0333	6.98	0.99	0.750			
0.5090	32573.36	3.7900	3.7900	2.0781	6.96	0.97	0.750			
0.5154	32987.75	3.7870	3.7870	2.1104	6.94	0.95	0.750			
0.5216	33384.37	3.7840	3.7840	2.1281	6.91	0.92	0.750			
0.5281	33799.86	3.7810	3.7810	2.1496	6.88	0.89	0.750			
0.5346	34213.32	3.7780	3.7780	2.1736	6.85	0.86	0.750			
0.5411	34632.88	3.7750	3.7751	2.2291	6.82	0.83	0.750			
0.5479	35067.13	3.7720	3.7719	2.2768	6.79	0.80	0.750			
0.5547	35499.73	3.7690	3.7690	2.3571	6.76	0.77	0.750			
0.5620	35970.32	3.7660	3.7662	2.4308	6.73	0.74	0.750			
0.5695	36449.51	3.7630	3.7629	2.4205	6.69	0.70	0.750			
0.5767	36910.07	3.7600	3.7603	2.4413	6.66	0.67	0.750			
0.5841	37383.84	3.7570	3.7567	2.4723	6.62	0.63	0.750			
0.5914	37849.09	3.7540	3.7540	2.5468	6.59	0.60	0.750			
0.5993	38354.47	3.7510	3.7507	2.7280	6.55	0.56	0.750			
0.6077	38890.04	3.7480	3.7479	2.8077	6.52	0.53	0.750			
0.6162	39439.50	3.7450	3.7451	2.9146	6.49	0.50	0.750			
0.6250	40000.86	3.7420	3.7420	2.8994	6.45	0.46	0.750			
0.6338	40561.56	3.7390	3.7392	3.0336	6.41	0.42	0.750			
0.6430	41149.10	3.7360	3.7360	3.2128	6.37	0.38	0.750			
0.6529	41788.64	3.7330	3.7331	3.3600	6.33	0.34	0.750			
0.6635	42461.30	3.7300	3.7300	3.3179	6.29	0.30	0.750			
0.6731	43077.86	3.7270	3.7269	3.1275	6.26	0.27	0.750			
0.6822	43661.13	3.7240	3.7240	2.9201	6.23	0.24	0.750			
0.6907	44206.20	3.7210	3.7209	2.6529	6.21	0.22	0.750			
0.6982	44685.76	3.7180	3.7180	2.3780	6.19	0.20	0.750			
0.7047	45099.99	3.7150	3.7150	2.0946	6.17	0.18	0.750			
0.7106	45475.49	3.7120	3.7119	1.8787	6.15	0.16	0.750			
0.7158	45812.56	3.7090	3.7091	1.6797	6.14	0.15	0.750			
0.7204	46106.07	3.7060	3.7061	1.5121	6.12	0.13	0.750			
0.7247	46382.04	3.7030	3.7030	1.4030	6.11	0.12	0.750			
0.7286	46631.41	3.7000	3.7000	1.2876	6.10	0.11	0.750			
0.7322	46859.04	3.6970	3.6970	1.2045	6.10	0.11	0.750			
0.7356	47078.37	3.6940	3.6941	1.1402	6.09	0.10	0.750			
0.7389	47289.24	3.6910	3.6909	1.1108	6.09	0.10	0.750			
0.7422	47498.42	3.6880	3.6879	1.0868	6.08	0.09	0.750			
0.7453	47701.41	3.6850	3.6850	1.0578	6.07	0.08	0.750			
0.7485	47904.39	3.6820	3.6820	1.0408	6.06	0.07	0.750			
0.7517	48106.38	3.6790	3.6790	1.0245	6.05	0.06	0.750			
0.7547	48299.84	3.6760	3.6760	1.0038	6.04	0.05	0.750			
0.7577	48491.04	3.6730	3.6729	0.9809	6.04	0.05	0.750			
0.7605	48673.89	3.6700	3.6701	0.9622	6.03	0.04	0.750			
0.7634	48856.82	3.6670	3.6670	0.9494	6.03	0.04	0.750			
0.7662	49038.61	3.6640	3.6641	0.9365	6.02	0.03	0.750			
0.7690	49217.00	3.6610	3.6609	0.9280	6.02	0.03	0.750			
0.7718	49393.42	3.6580	3.6581	0.9156	6.01	0.02	0.750			
0.7745	49565.99	3.6550	3.6550	0.9117	6.01	0.02	0.750			
0.7772	49742.18	3.6520	3.6519	0.9110	6.01	0.02	0.750			
0.7799	49915.78	3.6490	3.6489	0.9094	6.00	0.01	0.750			
0.7827	50092.15	3.6460	3.6459	0.9054	6.00	0.01	0.750			
0.7854	50265.99	3.6430	3.6432	0.9043	6.00	0.01	0.750			
0.7881	50438.60	3.6400	3.6399	0.9059	5.99	0.00	0.750			
0.7908	50612.63	3.6370	3.6370	0.9088	5.99	0.00	0.750			
0.7936	50788.72	3.6340	3.6338	0.8870	5.99	0.00	0.750			
0.7963	50963.24	3.6310	3.6311	0.8595	5.99	0.00	0.750			
0.7990	51137.14	3.6280	3.6280	0.8039	5.99	0.00	0.750			
0.8014	51290.79	3.6250	3.6251	0.7256	5.99	0.00	0.750			
0.8035	51424.59	3.6220	3.6221	0.6296	5.99	0.00	0.750			
0.8052	51532.41	3.6190	3.6190	0.5268	5.99	0.00	0.750			
0.8066	51620.51	3.6160	3.6160	0.4198	5.99	0.00	0.750			
0.8076	51684.61	3.6130	3.6132	0.3520	5.99	0.00	0.750			
0.8085	51741.56	3.6100	3.6100	0.2726	5.99	0.00	0.750			
0.8091	51785.49	3.6070	3.6067	0.2085	5.99	0.00	0.750			
0.8096	51814.34	3.6040	3.6034	0.1454	5.99	0.00	0.750			
0.8099	51836.19	3.6010	3.5971	0.0962	5.99	0.00	0.750			
0.8100	51838.87	3.5890	3.5934	-0.0796	5.99	0.00	0.750			
0.8101	51847.45	3.5980	3.5266	0.0498	5.99	0.00	0.753			
0.8102	51850.01	3.5920	3.5027	-0.0365	5.99	0.00	0.755			
0.8102	51852.87	3.5950	3.4760	0.0067	5.99	0.00	0.757			
