Ah_balance (normalized)	Ah_balance (mAh)	Voltage - fit (V)	Voltage -  interpolate (V)	dQ/dV (1/V)	Temperature (°C)	Temperature - diff (°C)	Current (C)	R_DC 0ms (mOhm)	R_DC 50ms (mOhm)	R_DC 50 ms PEC (mOhm)
0.0001	8.77	4.1070	4.1053	-0.0239	5.96	-0.01	-0.750			
0.0003	16.20	4.1040	4.1032	-0.0535	5.96	-0.01	-0.750			
0.0005	29.88	4.1010	4.1007	-0.0829	5.96	-0.01	-0.750			
0.0008	49.24	4.0980	4.0979	-0.1102	5.96	-0.01	-0.750			
0.0011	72.98	4.0950	4.0949	-0.1371	5.96	-0.01	-0.750			
0.0016	102.16	4.0920	4.0921	-0.1605	5.96	-0.01	-0.750			
0.0021	135.45	4.0890	4.0891	-0.1843	5.96	-0.01	-0.750			
0.0027	174.26	4.0860	4.0861	-0.2095	5.96	-0.01	-0.750			
0.0034	216.94	4.0830	4.0830	-0.2298	5.97	-0.00	-0.750			
0.0041	263.22	4.0800	4.0800	-0.2513	5.97	-0.00	-0.750			
0.0049	313.73	4.0770	4.0771	-0.2704	5.97	-0.00	-0.750			
0.0057	367.09	4.0740	4.0740	-0.2931	5.97	-0.00	-0.750			
0.0067	425.93	4.0710	4.0710	-0.3123	5.97	-0.00	-0.750			
0.0076	487.40	4.0680	4.0679	-0.3321	5.97	-0.00	-0.750			
0.0086	552.29	4.0650	4.0650	-0.3547	5.97	-0.00	-0.750			
0.0097	622.43	4.0620	4.0623	-0.3808	5.97	0.00	-0.750			
0.0109	697.30	4.0590	4.0589	-0.4052	5.97	0.00	-0.750			
0.0122	778.17	4.0560	4.0560	-0.4303	5.97	0.00	-0.750			
0.0135	863.43	4.0530	4.0530	-0.4514	5.97	0.00	-0.750			
0.0149	954.21	4.0500	4.0500	-0.4738	5.97	0.00	-0.750			
0.0164	1046.53	4.0470	4.0471	-0.4937	5.98	0.01	-0.750			
0.0179	1143.28	4.0440	4.0440	-0.5062	5.98	0.01	-0.750			
0.0194	1241.55	4.0410	4.0410	-0.5239	5.98	0.01	-0.750			
0.0210	1344.08	4.0380	4.0380	-0.5386	5.98	0.01	-0.750			
0.0226	1448.70	4.0350	4.0350	-0.5550	5.98	0.01	-0.750			
0.0243	1557.30	4.0320	4.0320	-0.5736	5.98	0.01	-0.750			
0.0261	1668.74	4.0290	4.0291	-0.5886	5.99	0.02	-0.750			
0.0279	1782.68	4.0260	4.0259	-0.6041	5.99	0.02	-0.750			
0.0297	1902.47	4.0230	4.0230	-0.6198	5.99	0.02	-0.750			
0.0316	2021.40	4.0200	4.0200	-0.6322	6.00	0.03	-0.750			
0.0335	2145.43	4.0170	4.0170	-0.6434	6.00	0.03	-0.750			
0.0355	2270.29	4.0140	4.0140	-0.6519	6.00	0.03	-0.750			
0.0374	2395.34	4.0110	4.0110	-0.6658	6.00	0.03	-0.750			
0.0395	2525.01	4.0080	4.0080	-0.6754	6.01	0.04	-0.750			
0.0415	2657.37	4.0050	4.0049	-0.6772	6.01	0.04	-0.750			
0.0436	2789.29	4.0020	4.0020	-0.6793	6.01	0.04	-0.750			
0.0456	2919.49	3.9990	3.9992	-0.6834	6.02	0.05	-0.750			
0.0477	3052.32	3.9960	3.9960	-0.6833	6.02	0.05	-0.750			
0.0497	3182.15	3.9930	3.9929	-0.6813	6.03	0.06	-0.750			
0.0517	3309.96	3.9900	3.9901	-0.6914	6.03	0.06	-0.750			
0.0538	3444.93	3.9870	3.9870	-0.6995	6.04	0.07	-0.750			
0.0559	3580.01	3.9840	3.9839	-0.7108	6.04	0.07	-0.750			
0.0581	3717.35	3.9810	3.9811	-0.7191	6.05	0.08	-0.750			
0.0602	3855.68	3.9780	3.9780	-0.7259	6.05	0.08	-0.750			
0.0625	3999.14	3.9750	3.9749	-0.7312	6.06	0.09	-0.750			
0.0647	4140.77	3.9720	3.9720	-0.7311	6.07	0.10	-0.750			
0.0669	4281.55	3.9690	3.9690	-0.7294	6.07	0.10	-0.750			
0.0691	4422.49	3.9660	3.9660	-0.7269	6.08	0.11	-0.750			
0.0712	4559.40	3.9630	3.9630	-0.7217	6.09	0.12	-0.750			
0.0734	4696.39	3.9600	3.9599	-0.7286	6.09	0.12	-0.750			
0.0756	4835.35	3.9570	3.9570	-0.7350	6.10	0.13	-0.750			
0.0778	4978.58	3.9540	3.9539	-0.7443	6.11	0.14	-0.750			
0.0801	5123.49	3.9510	3.9510	-0.7471	6.12	0.15	-0.750			
0.0823	5269.62	3.9480	3.9480	-0.7520	6.12	0.15	-0.750			
0.0846	5414.49	3.9450	3.9451	-0.7550	6.13	0.16	-0.750			
0.0869	5558.86	3.9420	3.9420	-0.7555	6.14	0.17	-0.750			
0.0891	5701.03	3.9390	3.9390	-0.7556	6.14	0.17	-0.750			
0.0914	5848.18	3.9360	3.9360	-0.7560	6.15	0.18	-0.750			
0.0937	5994.79	3.9330	3.9330	-0.7592	6.16	0.19	-0.750			
0.0959	6140.38	3.9300	3.9300	-0.7579	6.17	0.20	-0.750			
0.0982	6286.04	3.9270	3.9271	-0.7569	6.17	0.20	-0.750			
0.1005	6430.26	3.9240	3.9239	-0.7528	6.18	0.21	-0.750			
0.1027	6573.33	3.9210	3.9209	-0.7597	6.19	0.22	-0.750			
0.1050	6719.52	3.9180	3.9181	-0.7612	6.20	0.23	-0.750			
0.1073	6867.24	3.9150	3.9148	-0.7659	6.20	0.23	-0.750			
0.1096	7014.81	3.9120	3.9123	-0.7749	6.21	0.24	-0.750			
0.1119	7164.04	3.9090	3.9091	-0.7829	6.22	0.25	-0.750			
0.1143	7315.83	3.9060	3.9058	-0.7908	6.23	0.26	-0.750			
0.1167	7470.24	3.9030	3.9030	-0.7886	6.24	0.27	-0.750			
0.1191	7623.38	3.9000	3.8999	-0.7832	6.25	0.28	-0.750			
0.1215	7774.29	3.8970	3.8973	-0.7737	6.26	0.29	-0.750			
0.1238	7920.29	3.8940	3.8939	-0.7717	6.27	0.30	-0.750			
0.1260	8065.44	3.8910	3.8909	-0.7623	6.27	0.30	-0.750			
0.1282	8207.27	3.8880	3.8880	-0.7664	6.28	0.31	-0.750			
0.1305	8354.78	3.8850	3.8851	-0.7808	6.29	0.32	-0.750			
0.1330	8509.05	3.8820	3.8820	-0.7996	6.29	0.32	-0.750			
0.1354	8664.51	3.8790	3.8790	-0.8053	6.30	0.33	-0.750			
0.1378	8821.58	3.8760	3.8760	-0.8100	6.31	0.34	-0.750			
0.1403	8977.48	3.8730	3.8731	-0.8076	6.32	0.35	-0.750			
0.1427	9134.11	3.8700	3.8699	-0.8067	6.33	0.36	-0.750			
0.1451	9289.18	3.8670	3.8670	-0.8009	6.34	0.37	-0.750			
0.1475	9442.97	3.8640	3.8640	-0.7919	6.35	0.38	-0.750			
0.1499	9594.01	3.8610	3.8611	-0.7880	6.36	0.39	-0.750			
0.1523	9744.87	3.8580	3.8580	-0.7931	6.37	0.40	-0.750			
0.1546	9895.34	3.8550	3.8549	-0.7940	6.37	0.40	-0.750			
0.1570	10047.12	3.8520	3.8519	-0.7976	6.38	0.41	-0.750			
0.1594	10200.52	3.8490	3.8493	-0.8004	6.39	0.42	-0.750			
0.1618	10356.45	3.8460	3.8459	-0.8121	6.40	0.43	-0.750			
0.1643	10513.54	3.8430	3.8430	-0.8246	6.41	0.44	-0.750			
0.1668	10673.20	3.8400	3.8399	-0.8228	6.42	0.45	-0.750			
0.1693	10834.51	3.8370	3.8368	-0.8308	6.43	0.46	-0.750			
0.1718	10994.22	3.8340	3.8344	-0.8232	6.44	0.47	-0.750			
0.1742	11151.78	3.8310	3.8310	-0.8205	6.45	0.48	-0.750			
0.1767	11307.61	3.8280	3.8279	-0.8197	6.45	0.48	-0.750			
0.1791	11460.26	3.8250	3.8250	-0.8134	6.46	0.49	-0.750			
0.1815	11618.63	3.8220	3.8219	-0.8235	6.47	0.50	-0.750			
0.1840	11777.61	3.8190	3.8191	-0.8210	6.48	0.51	-0.750			
0.1865	11937.74	3.8160	3.8159	-0.8229	6.49	0.52	-0.750			
0.1890	12095.22	3.8130	3.8130	-0.8266	6.50	0.53	-0.750			
0.1915	12253.21	3.8100	3.8100	-0.8196	6.51	0.54	-0.750			
0.1939	12409.13	3.8070	3.8070	-0.8230	6.52	0.55	-0.750			
0.1964	12567.03	3.8040	3.8040	-0.8284	6.53	0.56	-0.750			
0.1988	12725.80	3.8010	3.8010	-0.8375	6.54	0.57	-0.750			
0.2014	12889.10	3.7980	3.7979	-0.8447	6.54	0.57	-0.750			
0.2039	13051.76	3.7950	3.7950	-0.8444	6.55	0.58	-0.750			
0.2065	13215.04	3.7920	3.7920	-0.8410	6.56	0.59	-0.750			
0.2091	13380.03	3.7890	3.7891	-0.8472	6.57	0.60	-0.750			
0.2116	13540.11	3.7860	3.7860	-0.8425	6.58	0.61	-0.750			
0.2141	13700.62	3.7830	3.7830	-0.8387	6.59	0.62	-0.750			
0.2166	13861.67	3.7800	3.7799	-0.8369	6.60	0.63	-0.750			
0.2191	14021.89	3.7770	3.7770	-0.8395	6.61	0.64	-0.750			
0.2216	14183.23	3.7740	3.7741	-0.8441	6.62	0.65	-0.750			
0.2241	14344.15	3.7710	3.7709	-0.8494	6.63	0.66	-0.750			
0.2267	14507.15	3.7680	3.7679	-0.8506	6.63	0.66	-0.750			
0.2292	14671.07	3.7650	3.7650	-0.8589	6.64	0.67	-0.750			
0.2318	14837.73	3.7620	3.7620	-0.8629	6.65	0.68	-0.750			
0.2345	15006.33	3.7590	3.7591	-0.8680	6.66	0.69	-0.750			
0.2371	15172.83	3.7560	3.7560	-0.8651	6.67	0.70	-0.750			
0.2397	15338.96	3.7530	3.7531	-0.8592	6.68	0.71	-0.750			
0.2422	15503.32	3.7500	3.7499	-0.8529	6.68	0.71	-0.750			
0.2448	15665.60	3.7470	3.7470	-0.8460	6.69	0.72	-0.750			
0.2473	15825.55	3.7440	3.7442	-0.8493	6.70	0.73	-0.750			
0.2498	15988.70	3.7410	3.7409	-0.8519	6.71	0.74	-0.750			
0.2524	16151.69	3.7380	3.7380	-0.8642	6.72	0.75	-0.750			
0.2550	16319.35	3.7350	3.7350	-0.8756	6.73	0.76	-0.750			
0.2577	16492.34	3.7320	3.7319	-0.8819	6.73	0.76	-0.750			
0.2604	16662.80	3.7290	3.7291	-0.8842	6.74	0.77	-0.750			
0.2630	16833.85	3.7260	3.7261	-0.8829	6.75	0.78	-0.750			
0.2656	17000.45	3.7230	3.7231	-0.8802	6.76	0.79	-0.750			
0.2682	17167.24	3.7200	3.7198	-0.8776	6.77	0.80	-0.750			
0.2709	17337.30	3.7170	3.7169	-0.8876	6.78	0.81	-0.750			
0.2735	17506.54	3.7140	3.7138	-0.8967	6.78	0.81	-0.750			
0.2763	17680.67	3.7110	3.7111	-0.9074	6.79	0.82	-0.750			
0.2790	17857.65	3.7080	3.7080	-0.9137	6.80	0.83	-0.750			
0.2818	18033.98	3.7050	3.7050	-0.9222	6.80	0.83	-0.750			
0.2846	18213.57	3.7020	3.7021	-0.9273	6.81	0.84	-0.750			
0.2874	18390.50	3.6990	3.6990	-0.9285	6.82	0.85	-0.750			
0.2901	18569.49	3.6960	3.6959	-0.9289	6.83	0.86	-0.750			
0.2929	18747.43	3.6930	3.6931	-0.9299	6.84	0.87	-0.750			
0.2957	18925.25	3.6900	3.6900	-0.9354	6.85	0.88	-0.750			
0.2985	19105.02	3.6870	3.6870	-0.9413	6.85	0.88	-0.750			
0.3014	19287.12	3.6840	3.6840	-0.9430	6.86	0.89	-0.750			
0.3042	19468.64	3.6810	3.6809	-0.9519	6.87	0.90	-0.750			
0.3071	19652.47	3.6780	3.6781	-0.9585	6.88	0.91	-0.750			
0.3100	19837.63	3.6750	3.6751	-0.9610	6.89	0.92	-0.750			
0.3128	20019.88	3.6720	3.6720	-0.9729	6.90	0.93	-0.750			
0.3157	20207.67	3.6690	3.6691	-0.9813	6.90	0.93	-0.750			
0.3187	20395.53	3.6660	3.6658	-0.9926	6.90	0.93	-0.750			
0.3217	20590.27	3.6630	3.6631	-1.0120	6.91	0.94	-0.750			
0.3248	20785.78	3.6600	3.6600	-1.0072	6.91	0.94	-0.750			
0.3279	20983.51	3.6570	3.6569	-1.0085	6.92	0.95	-0.750			
0.3309	21176.41	3.6540	3.6541	-1.0071	6.92	0.95	-0.750			
0.3338	21363.56	3.6510	3.6511	-1.0096	6.93	0.96	-0.750			
0.3368	21557.69	3.6480	3.6479	-1.0224	6.94	0.97	-0.750			
0.3399	21753.57	3.6450	3.6448	-1.0298	6.94	0.97	-0.750			
0.3430	21952.66	3.6420	3.6420	-1.0375	6.95	0.98	-0.750			
0.3462	22155.11	3.6390	3.6390	-1.0515	6.96	0.99	-0.750			
0.3494	22361.62	3.6360	3.6360	-1.0717	6.97	1.00	-0.750			
0.3526	22566.73	3.6330	3.6330	-1.0794	6.97	1.00	-0.750			
0.3558	22771.26	3.6300	3.6299	-1.0833	6.98	1.01	-0.750			
0.3591	22981.90	3.6270	3.6273	-1.1017	6.99	1.02	-0.750			
0.3625	23197.90	3.6240	3.6239	-1.1199	6.99	1.02	-0.750			
0.3659	23415.42	3.6210	3.6209	-1.1224	7.00	1.03	-0.750			
0.3692	23630.88	3.6180	3.6180	-1.1285	7.00	1.03	-0.750			
0.3726	23845.48	3.6150	3.6152	-1.1438	7.00	1.03	-0.750			
0.3761	24069.20	3.6120	3.6119	-1.1501	7.01	1.04	-0.750			
0.3796	24291.27	3.6090	3.6089	-1.1565	7.01	1.04	-0.750			
0.3830	24512.37	3.6060	3.6061	-1.1731	7.02	1.05	-0.750			
0.3866	24743.56	3.6030	3.6029	-1.1930	7.02	1.05	-0.750			
0.3902	24975.16	3.6000	3.5998	-1.1900	7.03	1.06	-0.750			
0.3938	25202.53	3.5970	3.5968	-1.1918	7.04	1.07	-0.750	0.424	0.940	
0.3973	25429.72	3.5940	3.5942	-1.2073	7.05	1.08	-0.750			
0.4010	25664.14	3.5910	3.5909	-1.2226	7.06	1.09	-0.750			
0.4047	25897.89	3.5880	3.5878	-1.2266	7.06	1.09	-0.750			
0.4083	26130.47	3.5850	3.5850	-1.2356	7.07	1.10	-0.750			
0.4122	26378.19	3.5820	3.5821	-1.2595	7.07	1.10	-0.750			
0.4160	26621.45	3.5790	3.5790	-1.2603	7.08	1.11	-0.750			
0.4197	26860.51	3.5760	3.5759	-1.2626	7.08	1.11	-0.750			
0.4234	27100.78	3.5730	3.5731	-1.2661	7.08	1.11	-0.750			
0.4273	27344.66	3.5700	3.5699	-1.2863	7.09	1.12	-0.750			
0.4311	27593.04	3.5670	3.5669	-1.3046	7.09	1.12	-0.750			
0.4351	27845.56	3.5640	3.5640	-1.3243	7.10	1.13	-0.750			
0.4391	28105.32	3.5610	3.5611	-1.3377	7.10	1.13	-0.750			
0.4432	28366.41	3.5580	3.5579	-1.3519	7.11	1.14	-0.750			
0.4473	28627.18	3.5550	3.5552	-1.3582	7.11	1.14	-0.750			
0.4514	28888.80	3.5520	3.5519	-1.3595	7.12	1.15	-0.750			
0.4554	29147.54	3.5490	3.5490	-1.3620	7.12	1.15	-0.750			
0.4595	29407.39	3.5460	3.5463	-1.3907	7.13	1.16	-0.750			
0.4638	29681.15	3.5430	3.5428	-1.4042	7.13	1.16	-0.750			
0.4680	29952.66	3.5400	3.5398	-1.4097	7.14	1.17	-0.750			
0.4722	30223.96	3.5370	3.5375	-1.4221	7.14	1.17	-0.750			
0.4766	30503.26	3.5340	3.5339	-1.4347	7.15	1.18	-0.750			
0.4809	30778.27	3.5310	3.5308	-1.4251	7.15	1.18	-0.750			
0.4851	31047.01	3.5280	3.5282	-1.4169	7.16	1.19	-0.750			
0.4894	31319.20	3.5250	3.5251	-1.4254	7.17	1.20	-0.750			
0.4937	31594.31	3.5220	3.5219	-1.4284	7.17	1.20	-0.750			
0.4979	31867.13	3.5190	3.5190	-1.4369	7.18	1.21	-0.750			
0.5023	32145.58	3.5160	3.5158	-1.4404	7.18	1.21	-0.750			
0.5066	32421.68	3.5130	3.5131	-1.4522	7.19	1.22	-0.750			
0.5110	32701.86	3.5100	3.5102	-1.4609	7.19	1.22	-0.750			
0.5154	32985.35	3.5070	3.5069	-1.4614	7.20	1.23	-0.750			
0.5198	33266.61	3.5040	3.5038	-1.4501	7.21	1.24	-0.750			
0.5241	33542.02	3.5010	3.5009	-1.4340	7.22	1.25	-0.750			
0.5284	33820.20	3.4980	3.4982	-1.4276	7.23	1.26	-0.750			
0.5327	34091.54	3.4950	3.4949	-1.4294	7.23	1.26	-0.750			
0.5369	34360.92	3.4920	3.4920	-1.4141	7.24	1.27	-0.750			
0.5412	34634.81	3.4890	3.4889	-1.4217	7.25	1.28	-0.750			
0.5454	34908.76	3.4860	3.4859	-1.4239	7.26	1.29	-0.750			
0.5497	35182.71	3.4830	3.4831	-1.4211	7.26	1.29	-0.750			
0.5540	35456.46	3.4800	3.4800	-1.4203	7.27	1.30	-0.750			
0.5583	35731.00	3.4770	3.4770	-1.4144	7.28	1.31	-0.750			
0.5625	35999.19	3.4740	3.4740	-1.3978	7.29	1.32	-0.750			
0.5667	36269.94	3.4710	3.4710	-1.3973	7.30	1.33	-0.750			
0.5709	36535.36	3.4680	3.4680	-1.3922	7.31	1.34	-0.750			
0.5751	36803.77	3.4650	3.4648	-1.3854	7.32	1.35	-0.750			
0.5792	37070.85	3.4620	3.4620	-1.3692	7.33	1.36	-0.750			
0.5833	37331.23	3.4590	3.4589	-1.3567	7.34	1.37	-0.750			
0.5873	37589.27	3.4560	3.4561	-1.3492	7.35	1.38	-0.750			
0.5914	37848.18	3.4530	3.4530	-1.3350	7.36	1.39	-0.750			
0.5953	38100.03	3.4500	3.4499	-1.3294	7.37	1.40	-0.750			
0.5993	38356.68	3.4470	3.4469	-1.3128	7.38	1.41	-0.750			
0.6034	38614.95	3.4440	3.4440	-1.3003	7.39	1.42	-0.750			
0.6072	38863.33	3.4410	3.4410	-1.2805	7.39	1.42	-0.750			
0.6110	39105.67	3.4380	3.4381	-1.2615	7.40	1.43	-0.750			
0.6148	39346.93	3.4350	3.4349	-1.2390	7.42	1.45	-0.750			
0.6185	39582.54	3.4320	3.4319	-1.2130	7.43	1.46	-0.750			
0.6220	39810.68	3.4290	3.4293	-1.1851	7.44	1.47	-0.750			
0.6256	40037.95	3.4260	3.4261	-1.1711	7.45	1.48	-0.750			
0.6291	40261.54	3.4230	3.4229	-1.1532	7.46	1.49	-0.750			
0.6325	40478.10	3.4200	3.4199	-1.1233	7.47	1.50	-0.750			
0.6358	40691.22	3.4170	3.4170	-1.1083	7.48	1.51	-0.750			
0.6391	40903.36	3.4140	3.4140	-1.0910	7.49	1.52	-0.750			
0.6424	41113.40	3.4110	3.4110	-1.0716	7.51	1.54	-0.750			
0.6455	41314.83	3.4080	3.4079	-1.0473	7.52	1.55	-0.750			
0.6487	41513.88	3.4050	3.4051	-1.0291	7.53	1.56	-0.750			
0.6517	41711.61	3.4020	3.4020	-1.0086	7.54	1.57	-0.750			
0.6548	41904.15	3.3990	3.3989	-0.9889	7.55	1.58	-0.750			
0.6577	42091.67	3.3960	3.3960	-0.9614	7.56	1.59	-0.750			
0.6605	42275.01	3.3930	3.3929	-0.9380	7.57	1.60	-0.750			
0.6633	42453.80	3.3900	3.3900	-0.9151	7.59	1.62	-0.750			
0.6660	42626.05	3.3870	3.3871	-0.8858	7.60	1.63	-0.750			
0.6686	42791.79	3.3840	3.3839	-0.8566	7.61	1.64	-0.750			
0.6712	42955.89	3.3810	3.3810	-0.8430	7.63	1.66	-0.750			
0.6736	43111.87	3.3780	3.3780	-0.8162	7.64	1.67	-0.750			
0.6760	43266.47	3.3750	3.3750	-0.8002	7.65	1.68	-0.750			
0.6784	43419.02	3.3720	3.3719	-0.7801	7.66	1.69	-0.750			
0.6807	43567.10	3.3690	3.3691	-0.7615	7.66	1.69	-0.750			
0.6830	43714.46	3.3660	3.3660	-0.7420	7.67	1.70	-0.750			
0.6852	43854.41	3.3630	3.3630	-0.7206	7.68	1.71	-0.750			
0.6873	43988.91	3.3600	3.3601	-0.6948	7.70	1.73	-0.750			
0.6894	44119.96	3.3570	3.3570	-0.6814	7.71	1.74	-0.750			
0.6914	44247.90	3.3540	3.3540	-0.6642	7.72	1.75	-0.750			
0.6934	44375.32	3.3510	3.3509	-0.6505	7.74	1.77	-0.750			
0.6953	44498.51	3.3480	3.3480	-0.6336	7.75	1.78	-0.750			
0.6972	44620.35	3.3450	3.3452	-0.6191	7.76	1.79	-0.750			
0.6990	44736.94	3.3420	3.3421	-0.6004	7.77	1.80	-0.750			
0.7008	44851.03	3.3390	3.3389	-0.5827	7.78	1.81	-0.750			
0.7025	44959.66	3.3360	3.3360	-0.5668	7.79	1.82	-0.750			
0.7042	45066.55	3.3330	3.3330	-0.5509	7.80	1.83	-0.750			
0.7058	45171.10	3.3300	3.3300	-0.5367	7.81	1.84	-0.750			
0.7074	45273.45	3.3270	3.3269	-0.5225	7.82	1.85	-0.750			
0.7089	45371.65	3.3240	3.3240	-0.5101	7.83	1.86	-0.750			
0.7104	45468.16	3.3210	3.3210	-0.4963	7.84	1.87	-0.750			
0.7119	45561.75	3.3180	3.3180	-0.4880	7.85	1.88	-0.750			
0.7133	45653.27	3.3150	3.3150	-0.4768	7.86	1.89	-0.750			
0.7148	45745.81	3.3120	3.3120	-0.4665	7.87	1.90	-0.750			
0.7162	45834.41	3.3090	3.3091	-0.4564	7.88	1.91	-0.750			
0.7175	45921.04	3.3060	3.3061	-0.4503	7.89	1.92	-0.750			
0.7188	46006.03	3.3030	3.3029	-0.4420	7.90	1.93	-0.750			
0.7202	46089.71	3.3000	3.2999	-0.4347	7.91	1.94	-0.750			
0.7214	46172.13	3.2970	3.2971	-0.4258	7.92	1.95	-0.750			
0.7227	46254.50	3.2940	3.2939	-0.4188	7.92	1.95	-0.750			
0.7240	46334.74	3.2910	3.2910	-0.4118	7.93	1.96	-0.750			
0.7252	46412.46	3.2880	3.2881	-0.4003	7.94	1.97	-0.750			
0.7264	46487.81	3.2850	3.2849	-0.3906	7.95	1.98	-0.750			
0.7275	46562.56	3.2820	3.2820	-0.3839	7.96	1.99	-0.750			
0.7287	46634.76	3.2790	3.2790	-0.3752	7.97	2.00	-0.750			
0.7298	46706.24	3.2760	3.2760	-0.3670	7.98	2.01	-0.750			
0.7309	46776.41	3.2730	3.2730	-0.3603	7.98	2.01	-0.750			
0.7319	46844.34	3.2700	3.2699	-0.3525	7.99	2.02	-0.750			
0.7330	46911.17	3.2670	3.2670	-0.3472	8.00	2.03	-0.750			
0.7340	46976.97	3.2640	3.2640	-0.3421	8.01	2.04	-0.750			
0.7350	47042.31	3.2610	3.2609	-0.3360	8.01	2.04	-0.750			
0.7360	47106.55	3.2580	3.2580	-0.3292	8.02	2.05	-0.750			
0.7370	47169.37	3.2550	3.2551	-0.3233	8.03	2.06	-0.750			
0.7380	47230.17	3.2520	3.2521	-0.3167	8.04	2.07	-0.750			
0.7389	47290.29	3.2490	3.2488	-0.3135	8.05	2.08	-0.750			
0.7398	47349.00	3.2460	3.2461	-0.3068	8.06	2.09	-0.750			
0.7407	47407.53	3.2430	3.2429	-0.3047	8.07	2.10	-0.750			
0.7417	47466.97	3.2400	3.2400	-0.3013	8.08	2.11	-0.750			
0.7426	47524.71	3.2370	3.2370	-0.2963	8.09	2.12	-0.750			
0.7435	47581.18	3.2340	3.2340	-0.2901	8.10	2.13	-0.750			
0.7443	47635.87	3.2310	3.2311	-0.2863	8.11	2.14	-0.750			
0.7451	47689.60	3.2280	3.2279	-0.2801	8.11	2.14	-0.750			
0.7460	47743.59	3.2250	3.2250	-0.2763	8.12	2.15	-0.750			
0.7468	47795.89	3.2220	3.2220	-0.2708	8.13	2.16	-0.750			
0.7476	47847.71	3.2190	3.2191	-0.2677	8.14	2.17	-0.750			
0.7484	47898.86	3.2160	3.2160	-0.2629	8.15	2.18	-0.750			
0.7492	47948.55	3.2130	3.2130	-0.2588	8.15	2.18	-0.750			
0.7500	47996.98	3.2100	3.2099	-0.2544	8.16	2.19	-0.750			
0.7507	48045.62	3.2070	3.2071	-0.2532	8.17	2.20	-0.750			
0.7515	48094.16	3.2040	3.2039	-0.2503	8.18	2.21	-0.750			
0.7522	48142.25	3.2010	3.2010	-0.2486	8.19	2.22	-0.750			
0.7530	48189.80	3.1980	3.1981	-0.2454	8.20	2.23	-0.750			
0.7537	48236.89	3.1950	3.1950	-0.2412	8.20	2.23	-0.750			
0.7544	48283.24	3.1920	3.1920	-0.2379	8.21	2.24	-0.750			
0.7551	48328.17	3.1890	3.1890	-0.2331	8.22	2.25	-0.750			
0.7558	48372.41	3.1860	3.1860	-0.2286	8.23	2.26	-0.750			
0.7565	48415.55	3.1830	3.1830	-0.2269	8.23	2.26	-0.750			
0.7572	48458.28	3.1800	3.1801	-0.2240	8.24	2.27	-0.750			
0.7578	48501.39	3.1770	3.1769	-0.2227	8.25	2.28	-0.750			
0.7585	48544.31	3.1740	3.1739	-0.2204	8.26	2.29	-0.750			
0.7592	48586.92	3.1710	3.1711	-0.2189	8.27	2.30	-0.750			
0.7598	48628.99	3.1680	3.1680	-0.2152	8.27	2.30	-0.750			
0.7605	48670.22	3.1650	3.1651	-0.2126	8.28	2.31	-0.750			
0.7611	48710.25	3.1620	3.1620	-0.2092	8.29	2.32	-0.750			
0.7617	48749.58	3.1590	3.1590	-0.2054	8.30	2.33	-0.750			
0.7623	48788.32	3.1560	3.1560	-0.2037	8.30	2.33	-0.750			
0.7629	48827.25	3.1530	3.1529	-0.2011	8.31	2.34	-0.750			
0.7635	48865.65	3.1500	3.1500	-0.2000	8.32	2.35	-0.750			
0.7641	48903.94	3.1470	3.1470	-0.1988	8.33	2.36	-0.750			
0.7647	48942.09	3.1440	3.1441	-0.1979	8.33	2.36	-0.750			
0.7653	48979.98	3.1410	3.1408	-0.1961	8.34	2.37	-0.750			
0.7659	49017.78	3.1380	3.1379	-0.1940	8.35	2.38	-0.750			
0.7665	49054.80	3.1350	3.1351	-0.1917	8.36	2.39	-0.750			
0.7671	49091.55	3.1320	3.1321	-0.1890	8.36	2.39	-0.750			
0.7676	49127.94	3.1290	3.1291	-0.1872	8.37	2.40	-0.750			
0.7682	49162.98	3.1260	3.1259	-0.1838	8.38	2.41	-0.750			
0.7687	49198.09	3.1230	3.1230	-0.1818	8.38	2.41	-0.750			
0.7693	49232.44	3.1200	3.1200	-0.1798	8.39	2.42	-0.750			
0.7698	49266.92	3.1170	3.1170	-0.1779	8.40	2.43	-0.750			
0.7703	49301.15	3.1140	3.1140	-0.1767	8.40	2.43	-0.750			
0.7709	49334.87	3.1110	3.1111	-0.1748	8.41	2.44	-0.750			
0.7714	49368.09	3.1080	3.1080	-0.1739	8.41	2.44	-0.750			
0.7719	49401.08	3.1050	3.1050	-0.1728	8.42	2.45	-0.750			
0.7724	49433.84	3.1020	3.1019	-0.1716	8.43	2.46	-0.750			
0.7729	49467.18	3.0990	3.0989	-0.1700	8.43	2.46	-0.750			
0.7734	49499.67	3.0960	3.0961	-0.1694	8.44	2.47	-0.750			
0.7739	49532.43	3.0930	3.0931	-0.1687	8.45	2.48	-0.750			
0.7744	49564.66	3.0900	3.0901	-0.1671	8.46	2.49	-0.750			
0.7749	49596.70	3.0870	3.0869	-0.1654	8.47	2.50	-0.750			
0.7754	49627.89	3.0840	3.0841	-0.1638	8.47	2.50	-0.750			
0.7759	49659.11	3.0810	3.0811	-0.1627	8.48	2.51	-0.750			
0.7764	49690.48	3.0780	3.0780	-0.1608	8.49	2.52	-0.750			
0.7769	49721.63	3.0750	3.0749	-0.1594	8.50	2.53	-0.750			
0.7774	49751.54	3.0720	3.0721	-0.1573	8.51	2.54	-0.750			
0.7778	49781.70	3.0690	3.0690	-0.1563	8.51	2.54	-0.750			
0.7783	49811.57	3.0660	3.0660	-0.1549	8.52	2.55	-0.750			
0.7788	49841.05	3.0630	3.0628	-0.1536	8.53	2.56	-0.750			
0.7792	49869.97	3.0600	3.0601	-0.1527	8.53	2.56	-0.750			
0.7797	49899.31	3.0570	3.0571	-0.1528	8.54	2.57	-0.750			
0.7801	49928.88	3.0540	3.0539	-0.1522	8.55	2.58	-0.750			
0.7806	49958.14	3.0510	3.0509	-0.1513	8.55	2.58	-0.750			
0.7810	49987.03	3.0480	3.0482	-0.1502	8.56	2.59	-0.750			
0.7815	50015.79	3.0450	3.0449	-0.1494	8.57	2.60	-0.750			
0.7819	50044.63	3.0420	3.0421	-0.1484	8.57	2.60	-0.750			
0.7824	50073.03	3.0390	3.0390	-0.1473	8.58	2.61	-0.750			
0.7828	50100.94	3.0360	3.0360	-0.1457	8.59	2.62	-0.750			
0.7833	50128.79	3.0330	3.0330	-0.1451	8.59	2.62	-0.750			
0.7837	50156.65	3.0300	3.0300	-0.1445	8.60	2.63	-0.750			
0.7841	50184.28	3.0270	3.0270	-0.1438	8.60	2.63	-0.750			
0.7846	50211.71	3.0240	3.0240	-0.1432	8.61	2.64	-0.750			
0.7850	50239.17	3.0210	3.0210	-0.1429	8.62	2.65	-0.750			
0.7854	50266.70	3.0180	3.0181	-0.1416	8.62	2.65	-0.750			
0.7858	50293.95	3.0150	3.0150	-0.1407	8.63	2.66	-0.750			
0.7863	50320.96	3.0120	3.0121	-0.1395	8.63	2.66	-0.750			
0.7867	50347.58	3.0090	3.0090	-0.1378	8.64	2.67	-0.750			
0.7871	50373.90	3.0060	3.0059	-0.1362	8.65	2.68	-0.750			
0.7875	50399.86	3.0030	3.0030	-0.1340	8.65	2.68	-0.750			
