Ah_balance (normalized)	Ah_balance (mAh)	Voltage - fit (V)	Voltage -  interpolate (V)	dQ/dV (1/V)	Temperature (°C)	Temperature - diff (°C)	Current (C)	R_DC 0ms (mOhm)	R_DC 50ms (mOhm)	R_DC 50 ms PEC (mOhm)
0.0002	13.41	4.1290	4.1282	-0.0564	17.25	-0.01	-0.750			
0.0004	28.31	4.1260	4.1258	-0.0988	17.25	-0.01	-0.750			
0.0008	51.59	4.1230	4.1230	-0.1407	17.25	-0.01	-0.750			
0.0013	84.38	4.1200	4.1199	-0.1769	17.25	-0.01	-0.750			
0.0019	122.04	4.1170	4.1170	-0.2119	17.25	-0.01	-0.750			
0.0026	166.90	4.1140	4.1140	-0.2406	17.25	-0.01	-0.750			
0.0034	218.11	4.1110	4.1111	-0.2732	17.25	-0.01	-0.750			
0.0043	272.81	4.1080	4.1080	-0.3044	17.25	-0.01	-0.750			
0.0052	332.17	4.1050	4.1051	-0.3367	17.25	-0.01	-0.750			
0.0063	400.72	4.1020	4.1019	-0.3676	17.25	-0.01	-0.750			
0.0074	474.87	4.0990	4.0989	-0.4020	17.26	-0.00	-0.750			
0.0087	556.55	4.0960	4.0960	-0.4318	17.26	-0.00	-0.750			
0.0101	643.53	4.0930	4.0931	-0.4601	17.26	0.00	-0.750			
0.0115	734.91	4.0900	4.0899	-0.4847	17.26	0.00	-0.750			
0.0130	830.36	4.0870	4.0870	-0.5046	17.27	0.01	-0.750			
0.0145	928.24	4.0840	4.0840	-0.5237	17.27	0.01	-0.750			
0.0161	1031.98	4.0810	4.0810	-0.5485	17.27	0.01	-0.750			
0.0178	1139.95	4.0780	4.0780	-0.5652	17.27	0.01	-0.750			
0.0195	1250.31	4.0750	4.0750	-0.5850	17.28	0.02	-0.750			
0.0213	1364.71	4.0720	4.0720	-0.6025	17.28	0.02	-0.750			
0.0232	1482.08	4.0690	4.0690	-0.6201	17.28	0.02	-0.750			
0.0251	1603.94	4.0660	4.0659	-0.6350	17.28	0.02	-0.750			
0.0270	1725.89	4.0630	4.0631	-0.6506	17.29	0.03	-0.750			
0.0290	1853.66	4.0600	4.0600	-0.6605	17.29	0.03	-0.750			
0.0310	1984.14	4.0570	4.0570	-0.6736	17.29	0.03	-0.750			
0.0330	2114.28	4.0540	4.0538	-0.6751	17.30	0.04	-0.750			
0.0351	2244.00	4.0510	4.0512	-0.6812	17.30	0.04	-0.750			
0.0371	2374.64	4.0480	4.0480	-0.6853	17.31	0.05	-0.750			
0.0391	2505.42	4.0450	4.0450	-0.6952	17.31	0.05	-0.750			
0.0412	2637.74	4.0420	4.0419	-0.6980	17.32	0.06	-0.750			
0.0434	2775.57	4.0390	4.0390	-0.7121	17.33	0.07	-0.750			
0.0455	2914.20	4.0360	4.0359	-0.7203	17.34	0.08	-0.750			
0.0477	3053.61	4.0330	4.0331	-0.7274	17.34	0.08	-0.750			
0.0499	3194.27	4.0300	4.0300	-0.7298	17.35	0.09	-0.750			
0.0521	3335.29	4.0270	4.0270	-0.7353	17.36	0.10	-0.750			
0.0543	3476.20	4.0240	4.0240	-0.7340	17.36	0.10	-0.750			
0.0565	3619.14	4.0210	4.0210	-0.7377	17.37	0.11	-0.750			
0.0587	3759.39	4.0180	4.0180	-0.7458	17.38	0.12	-0.750			
0.0610	3902.72	4.0150	4.0149	-0.7480	17.39	0.13	-0.750			
0.0632	4047.46	4.0120	4.0120	-0.7487	17.40	0.14	-0.750			
0.0655	4192.07	4.0090	4.0089	-0.7534	17.40	0.14	-0.750			
0.0678	4337.83	4.0060	4.0061	-0.7487	17.41	0.15	-0.750			
0.0701	4483.42	4.0030	4.0030	-0.7511	17.42	0.16	-0.750			
0.0723	4625.86	4.0000	4.0002	-0.7491	17.43	0.17	-0.750			
0.0745	4765.70	3.9970	3.9969	-0.7463	17.44	0.18	-0.750			
0.0767	4911.15	3.9940	3.9940	-0.7568	17.45	0.19	-0.750			
0.0790	5058.31	3.9910	3.9909	-0.7592	17.45	0.19	-0.750			
0.0813	5205.48	3.9880	3.9880	-0.7644	17.46	0.20	-0.750			
0.0836	5352.10	3.9850	3.9849	-0.7712	17.47	0.21	-0.750			
0.0859	5499.51	3.9820	3.9820	-0.7736	17.47	0.21	-0.750			
0.0882	5647.80	3.9790	3.9788	-0.7819	17.48	0.22	-0.750			
0.0906	5797.85	3.9760	3.9760	-0.7818	17.49	0.23	-0.750			
0.0930	5949.71	3.9730	3.9731	-0.7827	17.50	0.24	-0.750			
0.0954	6104.63	3.9700	3.9699	-0.7907	17.50	0.24	-0.750			
0.0977	6254.79	3.9670	3.9672	-0.7847	17.51	0.25	-0.750			
0.1000	6401.91	3.9640	3.9640	-0.7808	17.52	0.26	-0.750			
0.1024	6553.04	3.9610	3.9609	-0.7812	17.53	0.27	-0.750			
0.1047	6703.76	3.9580	3.9580	-0.7749	17.54	0.28	-0.750			
0.1071	6853.93	3.9550	3.9550	-0.7746	17.55	0.29	-0.750			
0.1094	7001.01	3.9520	3.9522	-0.7820	17.56	0.30	-0.750			
0.1117	7150.03	3.9490	3.9490	-0.7836	17.57	0.31	-0.750			
0.1141	7299.81	3.9460	3.9457	-0.7831	17.58	0.32	-0.750			
0.1164	7451.13	3.9430	3.9430	-0.7868	17.59	0.33	-0.750			
0.1188	7604.15	3.9400	3.9401	-0.7947	17.60	0.34	-0.750			
0.1212	7756.81	3.9370	3.9370	-0.7981	17.61	0.35	-0.750			
0.1236	7911.08	3.9340	3.9339	-0.7951	17.62	0.36	-0.750			
0.1260	8060.92	3.9310	3.9310	-0.7940	17.62	0.36	-0.750			
0.1283	8214.32	3.9280	3.9281	-0.7963	17.63	0.37	-0.750			
0.1308	8368.15	3.9250	3.9250	-0.7997	17.64	0.38	-0.750			
0.1332	8522.87	3.9220	3.9219	-0.7997	17.65	0.39	-0.750			
0.1356	8676.06	3.9190	3.9189	-0.7966	17.65	0.39	-0.750			
0.1379	8827.94	3.9160	3.9161	-0.7976	17.66	0.40	-0.750			
0.1404	8982.77	3.9130	3.9130	-0.7967	17.67	0.41	-0.750			
0.1427	9133.94	3.9100	3.9100	-0.7946	17.68	0.42	-0.750			
0.1451	9288.93	3.9070	3.9069	-0.7918	17.69	0.43	-0.750			
0.1475	9438.22	3.9040	3.9041	-0.7963	17.70	0.44	-0.750			
0.1499	9591.43	3.9010	3.9011	-0.7995	17.71	0.45	-0.750			
0.1523	9745.50	3.8980	3.8979	-0.8062	17.72	0.46	-0.750			
0.1547	9901.72	3.8950	3.8949	-0.8062	17.73	0.47	-0.750			
0.1572	10058.90	3.8920	3.8920	-0.8071	17.74	0.48	-0.750			
0.1596	10213.47	3.8890	3.8893	-0.7996	17.75	0.49	-0.750			
0.1620	10369.43	3.8860	3.8860	-0.7982	17.76	0.50	-0.750			
0.1643	10518.30	3.8830	3.8830	-0.7937	17.77	0.51	-0.750			
0.1667	10668.03	3.8800	3.8799	-0.7929	17.78	0.52	-0.750			
0.1691	10821.91	3.8770	3.8769	-0.7957	17.79	0.53	-0.750			
0.1715	10974.92	3.8740	3.8741	-0.7915	17.80	0.54	-0.750			
0.1739	11128.03	3.8710	3.8710	-0.7978	17.81	0.55	-0.750			
0.1763	11281.25	3.8680	3.8680	-0.7967	17.82	0.56	-0.750			
0.1786	11432.95	3.8650	3.8649	-0.7930	17.83	0.57	-0.750			
0.1810	11583.65	3.8620	3.8621	-0.7949	17.84	0.58	-0.750			
0.1834	11736.78	3.8590	3.8590	-0.7982	17.85	0.59	-0.750			
0.1858	11891.57	3.8560	3.8560	-0.8002	17.86	0.60	-0.750			
0.1882	12046.32	3.8530	3.8530	-0.7989	17.87	0.61	-0.750			
0.1906	12197.99	3.8500	3.8500	-0.7946	17.87	0.61	-0.750			
0.1930	12352.60	3.8470	3.8471	-0.7904	17.88	0.62	-0.750			
0.1954	12503.93	3.8440	3.8439	-0.7850	17.89	0.63	-0.750			
0.1977	12652.22	3.8410	3.8411	-0.7805	17.90	0.64	-0.750			
0.2000	12801.70	3.8380	3.8380	-0.7817	17.91	0.65	-0.750			
0.2024	12950.78	3.8350	3.8350	-0.7842	17.92	0.66	-0.750			
0.2047	13101.24	3.8320	3.8319	-0.7868	17.92	0.66	-0.750			
0.2071	13252.44	3.8290	3.8290	-0.7895	17.93	0.67	-0.750			
0.2095	13405.00	3.8260	3.8261	-0.7940	17.94	0.68	-0.750			
0.2119	13558.77	3.8230	3.8230	-0.7930	17.95	0.69	-0.750			
0.2142	13711.93	3.8200	3.8200	-0.7911	17.96	0.70	-0.750			
0.2166	13864.61	3.8170	3.8169	-0.7842	17.96	0.70	-0.750			
0.2190	14015.19	3.8140	3.8141	-0.7773	17.97	0.71	-0.750			
0.2213	14162.40	3.8110	3.8111	-0.7732	17.98	0.72	-0.750			
0.2236	14308.53	3.8080	3.8079	-0.7701	17.99	0.73	-0.750			
0.2259	14455.17	3.8050	3.8049	-0.7701	18.00	0.74	-0.750			
0.2282	14603.18	3.8020	3.8019	-0.7714	18.00	0.74	-0.750			
0.2305	14750.55	3.7990	3.7991	-0.7760	18.01	0.75	-0.750			
0.2328	14901.90	3.7960	3.7960	-0.7877	18.02	0.76	-0.750			
0.2352	15053.73	3.7930	3.7931	-0.7902	18.03	0.77	-0.750			
0.2375	15202.87	3.7900	3.7899	-0.7942	18.04	0.78	-0.750			
0.2400	15358.35	3.7870	3.7870	-0.7988	18.05	0.79	-0.750			
0.2424	15513.17	3.7840	3.7840	-0.8017	18.06	0.80	-0.750			
0.2448	15668.22	3.7810	3.7809	-0.8006	18.06	0.80	-0.750			
0.2472	15821.44	3.7780	3.7782	-0.7975	18.07	0.81	-0.750			
0.2496	15974.57	3.7750	3.7749	-0.7940	18.08	0.82	-0.750			
0.2520	16127.09	3.7720	3.7720	-0.7973	18.09	0.83	-0.750			
0.2544	16279.84	3.7690	3.7690	-0.7926	18.10	0.84	-0.750			
0.2568	16432.30	3.7660	3.7659	-0.8017	18.11	0.85	-0.750			
0.2591	16585.08	3.7630	3.7632	-0.8031	18.12	0.86	-0.750			
0.2615	16737.08	3.7600	3.7599	-0.8196	18.12	0.86	-0.750			
0.2640	16895.55	3.7570	3.7570	-0.8355	18.13	0.87	-0.750			
0.2665	17058.35	3.7540	3.7539	-0.8479	18.14	0.88	-0.750			
0.2691	17222.85	3.7510	3.7510	-0.8517	18.14	0.88	-0.750			
0.2717	17391.76	3.7480	3.7482	-0.8624	18.15	0.89	-0.750			
0.2743	17556.75	3.7450	3.7449	-0.8622	18.16	0.90	-0.750			
0.2769	17722.43	3.7420	3.7418	-0.8647	18.17	0.91	-0.750			
0.2795	17886.48	3.7390	3.7391	-0.8651	18.17	0.91	-0.750			
0.2821	18051.74	3.7360	3.7360	-0.8734	18.18	0.92	-0.750			
0.2847	18220.94	3.7330	3.7331	-0.8884	18.19	0.93	-0.750			
0.2874	18391.87	3.7300	3.7300	-0.9070	18.19	0.93	-0.750			
0.2901	18567.95	3.7270	3.7269	-0.9127	18.20	0.94	-0.750			
0.2929	18746.15	3.7240	3.7238	-0.9144	18.20	0.94	-0.750			
0.2957	18924.87	3.7210	3.7211	-0.9209	18.21	0.95	-0.750			
0.2985	19101.85	3.7180	3.7181	-0.9176	18.21	0.95	-0.750			
0.3012	19275.87	3.7150	3.7148	-0.9246	18.22	0.96	-0.750			
0.3039	19452.28	3.7120	3.7119	-0.9266	18.22	0.96	-0.750			
0.3066	19625.41	3.7090	3.7090	-0.9358	18.23	0.97	-0.750			
0.3095	19810.06	3.7060	3.7063	-0.9588	18.23	0.97	-0.750			
0.3125	19998.40	3.7030	3.7028	-0.9727	18.23	0.97	-0.750			
0.3154	20187.33	3.7000	3.6999	-0.9739	18.23	0.97	-0.750			
0.3183	20373.50	3.6970	3.6971	-0.9840	18.24	0.98	-0.750			
0.3213	20562.63	3.6940	3.6941	-1.0028	18.24	0.98	-0.750			
0.3243	20755.79	3.6910	3.6910	-1.0179	18.25	0.99	-0.750			
0.3274	20950.94	3.6880	3.6878	-1.0149	18.25	0.99	-0.750			
0.3305	21149.34	3.6850	3.6851	-1.0224	18.26	1.00	-0.750			
0.3336	21348.36	3.6820	3.6821	-1.0330	18.27	1.01	-0.750			
0.3367	21547.53	3.6790	3.6791	-1.0534	18.27	1.01	-0.750			
0.3398	21747.40	3.6760	3.6759	-1.0577	18.28	1.02	-0.750			
0.3429	21946.65	3.6730	3.6729	-1.0687	18.28	1.02	-0.750			
0.3462	22156.57	3.6700	3.6699	-1.0871	18.29	1.03	-0.750			
0.3496	22374.01	3.6670	3.6670	-1.1138	18.29	1.03	-0.750			
0.3529	22588.72	3.6640	3.6640	-1.1091	18.29	1.03	-0.750			
0.3563	22802.55	3.6610	3.6609	-1.1089	18.29	1.03	-0.750			
0.3595	23010.69	3.6580	3.6584	-1.1282	18.29	1.03	-0.750			
0.3629	23228.33	3.6550	3.6548	-1.1394	18.29	1.03	-0.750			
0.3664	23448.40	3.6520	3.6519	-1.1488	18.29	1.03	-0.750			
0.3699	23671.21	3.6490	3.6490	-1.1658	18.29	1.03	-0.750			
0.3734	23900.66	3.6460	3.6461	-1.1862	18.29	1.03	-0.750			
0.3770	24129.27	3.6430	3.6429	-1.1953	18.30	1.04	-0.750			
0.3806	24356.86	3.6400	3.6399	-1.1961	18.30	1.04	-0.750			
0.3841	24583.48	3.6370	3.6372	-1.2045	18.31	1.05	-0.750			
0.3878	24818.46	3.6340	3.6340	-1.2239	18.31	1.05	-0.750			
0.3915	25054.85	3.6310	3.6308	-1.2408	18.32	1.06	-0.750			
0.3952	25291.58	3.6280	3.6280	-1.2598	18.32	1.06	-0.750			
0.3990	25536.38	3.6250	3.6249	-1.2741	18.32	1.06	-0.750			
0.4029	25784.75	3.6220	3.6220	-1.2910	18.32	1.06	-0.750			
0.4068	26036.22	3.6190	3.6190	-1.3215	18.32	1.06	-0.750			
0.4108	26292.87	3.6160	3.6160	-1.3279	18.32	1.06	-0.750			
0.4148	26549.95	3.6130	3.6129	-1.3396	18.32	1.06	-0.750			
0.4189	26808.05	3.6100	3.6099	-1.3448	18.32	1.06	-0.750	0.380	0.624	
0.4229	27068.11	3.6070	3.6070	-1.3544	18.32	1.06	-0.750			
0.4270	27326.51	3.6040	3.6040	-1.3698	18.33	1.07	-0.750			
0.4310	27584.40	3.6010	3.6010	-1.3808	18.33	1.07	-0.750			
0.4352	27850.27	3.5980	3.5981	-1.4053	18.34	1.08	-0.750			
0.4395	28125.25	3.5950	3.5947	-1.4530	18.34	1.08	-0.750			
0.4439	28408.03	3.5920	3.5920	-1.4814	18.35	1.09	-0.750			
0.4484	28699.42	3.5890	3.5890	-1.5082	18.35	1.09	-0.750			
0.4531	28997.47	3.5860	3.5859	-1.5380	18.35	1.09	-0.750			
0.4577	29291.60	3.5830	3.5829	-1.5378	18.35	1.09	-0.750			
0.4624	29591.29	3.5800	3.5799	-1.5380	18.35	1.09	-0.750			
0.4670	29886.52	3.5770	3.5770	-1.5510	18.36	1.10	-0.750			
0.4716	30180.84	3.5740	3.5739	-1.5515	18.36	1.10	-0.750			
0.4763	30480.62	3.5710	3.5710	-1.5990	18.36	1.10	-0.750			
0.4810	30787.20	3.5680	3.5682	-1.6137	18.37	1.11	-0.750			
0.4859	31097.16	3.5650	3.5649	-1.6442	18.37	1.11	-0.750			
0.4909	31418.93	3.5620	3.5620	-1.6783	18.38	1.12	-0.750			
0.4961	31747.52	3.5590	3.5591	-1.6967	18.38	1.12	-0.750			
0.5013	32080.94	3.5560	3.5559	-1.6967	18.39	1.13	-0.750			
0.5064	32408.96	3.5530	3.5531	-1.7000	18.40	1.14	-0.750			
0.5113	32724.63	3.5500	3.5500	-1.6999	18.40	1.14	-0.750			
0.5165	33054.77	3.5470	3.5470	-1.7108	18.41	1.15	-0.750			
0.5216	33381.40	3.5440	3.5441	-1.7119	18.41	1.15	-0.750			
0.5268	33712.78	3.5410	3.5409	-1.7256	18.42	1.16	-0.750			
0.5320	34048.23	3.5380	3.5381	-1.7322	18.43	1.17	-0.750			
0.5373	34385.31	3.5350	3.5347	-1.7306	18.44	1.18	-0.750			
0.5424	34713.68	3.5320	3.5318	-1.7287	18.45	1.19	-0.750			
0.5476	35043.57	3.5290	3.5291	-1.7316	18.45	1.19	-0.750			
0.5527	35374.32	3.5260	3.5261	-1.7530	18.46	1.20	-0.750			
0.5581	35717.96	3.5230	3.5230	-1.7431	18.47	1.21	-0.750			
0.5633	36052.91	3.5200	3.5199	-1.7382	18.48	1.22	-0.750			
0.5687	36395.58	3.5170	3.5171	-1.7453	18.49	1.23	-0.750			
0.5739	36726.66	3.5140	3.5141	-1.7360	18.50	1.24	-0.750			
0.5790	37054.81	3.5110	3.5108	-1.7304	18.51	1.25	-0.750			
0.5842	37389.95	3.5080	3.5082	-1.7010	18.52	1.26	-0.750			
0.5893	37716.33	3.5050	3.5050	-1.6858	18.53	1.27	-0.750			
0.5944	38040.81	3.5020	3.5020	-1.6863	18.54	1.28	-0.750			
0.5994	38359.90	3.4990	3.4990	-1.6690	18.56	1.30	-0.750			
0.6043	38676.13	3.4960	3.4960	-1.6684	18.57	1.31	-0.750			
0.6093	38996.40	3.4930	3.4929	-1.6372	18.59	1.33	-0.750			
0.6143	39313.87	3.4900	3.4901	-1.6154	18.60	1.34	-0.750			
0.6192	39630.11	3.4870	3.4871	-1.5858	18.61	1.35	-0.750			
0.6239	39931.57	3.4840	3.4840	-1.5422	18.63	1.37	-0.750			
0.6284	40219.36	3.4810	3.4810	-1.4857	18.64	1.38	-0.750			
0.6328	40499.83	3.4780	3.4778	-1.4618	18.65	1.39	-0.750			
0.6371	40772.62	3.4750	3.4750	-1.4236	18.67	1.41	-0.750			
0.6414	41049.07	3.4720	3.4720	-1.4021	18.69	1.43	-0.750			
0.6456	41316.09	3.4690	3.4690	-1.3825	18.70	1.44	-0.750			
0.6497	41577.85	3.4660	3.4660	-1.3448	18.72	1.46	-0.750			
0.6537	41835.08	3.4630	3.4629	-1.3163	18.74	1.48	-0.750			
0.6576	42084.40	3.4600	3.4599	-1.2786	18.75	1.49	-0.750			
0.6613	42324.32	3.4570	3.4570	-1.2543	18.77	1.51	-0.750			
0.6651	42564.58	3.4540	3.4540	-1.2253	18.79	1.53	-0.750			
0.6687	42796.47	3.4510	3.4507	-1.1972	18.80	1.54	-0.750			
0.6722	43019.08	3.4480	3.4484	-1.1769	18.82	1.56	-0.750			
0.6758	43248.16	3.4450	3.4449	-1.1545	18.84	1.58	-0.750			
0.6792	43469.72	3.4420	3.4419	-1.1243	18.85	1.59	-0.750			
0.6825	43682.68	3.4390	3.4389	-1.0955	18.86	1.60	-0.750			
0.6857	43886.97	3.4360	3.4361	-1.0762	18.88	1.62	-0.750			
0.6889	44091.39	3.4330	3.4328	-1.0554	18.90	1.64	-0.750			
0.6920	44287.93	3.4300	3.4299	-1.0288	18.91	1.65	-0.750			
0.6950	44480.48	3.4270	3.4270	-1.0120	18.93	1.67	-0.750			
0.6981	44679.29	3.4240	3.4241	-1.0086	18.95	1.69	-0.750			
0.7011	44873.26	3.4210	3.4209	-1.0014	18.96	1.70	-0.750			
0.7041	45063.50	3.4180	3.4180	-0.9808	18.98	1.72	-0.750			
0.7070	45249.52	3.4150	3.4150	-0.9574	19.00	1.74	-0.750			
0.7099	45434.89	3.4120	3.4121	-0.9384	19.01	1.75	-0.750			
0.7127	45612.63	3.4090	3.4089	-0.9193	19.02	1.76	-0.750			
0.7154	45785.48	3.4060	3.4061	-0.8951	19.03	1.77	-0.750			
0.7180	45954.65	3.4030	3.4030	-0.8745	19.04	1.78	-0.750			
0.7206	46120.54	3.4000	3.3999	-0.8541	19.05	1.79	-0.750			
0.7232	46282.90	3.3970	3.3970	-0.8386	19.07	1.81	-0.750			
0.7256	46441.47	3.3940	3.3940	-0.8251	19.08	1.82	-0.750			
0.7281	46599.16	3.3910	3.3910	-0.8030	19.10	1.84	-0.750			
0.7305	46750.23	3.3880	3.3879	-0.7826	19.11	1.85	-0.750			
0.7328	46900.50	3.3850	3.3850	-0.7658	19.13	1.87	-0.750			
0.7351	47045.38	3.3820	3.3820	-0.7460	19.14	1.88	-0.750			
0.7373	47186.40	3.3790	3.3790	-0.7278	19.16	1.90	-0.750			
0.7394	47322.53	3.3760	3.3761	-0.7110	19.17	1.91	-0.750			
0.7416	47459.44	3.3730	3.3729	-0.6916	19.18	1.92	-0.750			
0.7436	47592.85	3.3700	3.3700	-0.6735	19.19	1.93	-0.750			
0.7456	47719.02	3.3670	3.3671	-0.6502	19.20	1.94	-0.750			
0.7475	47842.09	3.3640	3.3640	-0.6307	19.21	1.95	-0.750			
0.7494	47960.68	3.3610	3.3609	-0.6081	19.22	1.96	-0.750			
0.7511	48072.32	3.3580	3.3580	-0.5891	19.23	1.97	-0.750			
0.7528	48182.08	3.3550	3.3551	-0.5782	19.24	1.98	-0.750			
0.7546	48293.17	3.3520	3.3520	-0.5684	19.25	1.99	-0.750			
0.7563	48402.11	3.3490	3.3488	-0.5573	19.26	2.00	-0.750			
0.7579	48508.23	3.3460	3.3461	-0.5428	19.27	2.01	-0.750			
0.7595	48611.19	3.3430	3.3429	-0.5308	19.28	2.02	-0.750			
0.7611	48712.73	3.3400	3.3401	-0.5202	19.29	2.03	-0.750			
0.7627	48810.93	3.3370	3.3369	-0.5063	19.30	2.04	-0.750			
0.7642	48906.27	3.3340	3.3339	-0.4890	19.31	2.05	-0.750			
0.7656	48999.30	3.3310	3.3311	-0.4747	19.32	2.06	-0.750			
0.7670	49088.10	3.3280	3.3281	-0.4661	19.33	2.07	-0.750			
0.7684	49176.39	3.3250	3.3250	-0.4560	19.34	2.08	-0.750			
0.7697	49262.47	3.3220	3.3218	-0.4437	19.35	2.09	-0.750			
0.7710	49346.94	3.3190	3.3189	-0.4337	19.35	2.09	-0.750			
0.7723	49429.55	3.3160	3.3162	-0.4260	19.36	2.10	-0.750			
0.7736	49510.84	3.3130	3.3131	-0.4197	19.37	2.11	-0.750			
0.7749	49590.44	3.3100	3.3099	-0.4106	19.38	2.12	-0.750			
0.7760	49666.48	3.3070	3.3070	-0.4012	19.39	2.13	-0.750			
0.7773	49744.56	3.3040	3.3040	-0.3962	19.39	2.13	-0.750			
0.7785	49821.09	3.3010	3.3009	-0.3904	19.40	2.14	-0.750			
0.7796	49895.12	3.2980	3.2980	-0.3817	19.41	2.15	-0.750			
0.7807	49966.92	3.2950	3.2951	-0.3726	19.42	2.16	-0.750			
0.7818	50037.37	3.2920	3.2919	-0.3646	19.42	2.16	-0.750			
0.7829	50106.66	3.2890	3.2890	-0.3588	19.43	2.17	-0.750			
0.7840	50174.71	3.2860	3.2859	-0.3492	19.44	2.18	-0.750			
0.7850	50241.52	3.2830	3.2829	-0.3412	19.45	2.19	-0.750			
0.7860	50306.42	3.2800	3.2801	-0.3344	19.45	2.19	-0.750			
0.7870	50369.69	3.2770	3.2770	-0.3265	19.46	2.20	-0.750			
0.7880	50430.90	3.2740	3.2739	-0.3210	19.47	2.21	-0.750			
0.7889	50492.24	3.2710	3.2710	-0.3145	19.48	2.22	-0.750			
0.7899	50551.62	3.2680	3.2680	-0.3087	19.49	2.23	-0.750			
0.7908	50610.92	3.2650	3.2650	-0.3049	19.50	2.24	-0.750			
0.7917	50669.18	3.2620	3.2620	-0.3000	19.50	2.24	-0.750			
0.7926	50725.83	3.2590	3.2590	-0.2950	19.51	2.25	-0.750			
0.7935	50781.59	3.2560	3.2560	-0.2912	19.52	2.26	-0.750			
0.7943	50837.06	3.2530	3.2530	-0.2869	19.53	2.27	-0.750			
0.7952	50892.32	3.2500	3.2500	-0.2840	19.53	2.27	-0.750			
0.7960	50946.25	3.2470	3.2470	-0.2785	19.54	2.28	-0.750			
0.7969	50999.63	3.2440	3.2442	-0.2740	19.55	2.29	-0.750			
0.7977	51051.68	3.2410	3.2410	-0.2699	19.56	2.30	-0.750			
0.7985	51102.85	3.2380	3.2379	-0.2645	19.56	2.30	-0.750			
0.7993	51153.22	3.2350	3.2350	-0.2601	19.57	2.31	-0.750			
0.8000	51202.55	3.2320	3.2320	-0.2543	19.58	2.32	-0.750			
0.8008	51251.34	3.2290	3.2291	-0.2499	19.59	2.33	-0.750			
0.8015	51298.48	3.2260	3.2261	-0.2466	19.59	2.33	-0.750			
0.8023	51345.17	3.2230	3.2230	-0.2434	19.60	2.34	-0.750			
0.8030	51391.31	3.2200	3.2199	-0.2401	19.61	2.35	-0.750			
0.8037	51436.71	3.2170	3.2170	-0.2372	19.61	2.35	-0.750			
0.8044	51482.36	3.2140	3.2140	-0.2353	19.62	2.36	-0.750			
0.8051	51527.35	3.2110	3.2110	-0.2329	19.63	2.37	-0.750			
0.8058	51572.17	3.2080	3.2079	-0.2310	19.63	2.37	-0.750			
0.8065	51616.24	3.2050	3.2050	-0.2282	19.64	2.38	-0.750			
0.8072	51659.65	3.2020	3.2020	-0.2245	19.64	2.38	-0.750			
0.8079	51702.72	3.1990	3.1990	-0.2220	19.65	2.39	-0.750			
0.8085	51745.24	3.1960	3.1959	-0.2189	19.66	2.40	-0.750			
0.8092	51786.88	3.1930	3.1930	-0.2153	19.66	2.40	-0.750			
0.8098	51828.14	3.1900	3.1900	-0.2111	19.66	2.40	-0.750			
0.8104	51868.34	3.1870	3.1870	-0.2068	19.67	2.41	-0.750			
0.8111	51907.30	3.1840	3.1840	-0.2035	19.68	2.42	-0.750			
0.8117	51945.80	3.1810	3.1811	-0.2008	19.69	2.43	-0.750			
0.8122	51983.83	3.1780	3.1779	-0.1987	19.69	2.43	-0.750			
0.8128	52021.81	3.1750	3.1750	-0.1969	19.70	2.44	-0.750			
0.8134	52059.24	3.1720	3.1719	-0.1943	19.71	2.45	-0.750			
0.8140	52096.37	3.1690	3.1690	-0.1926	19.71	2.45	-0.750			
0.8146	52133.59	3.1660	3.1660	-0.1915	19.72	2.46	-0.750			
0.8152	52170.12	3.1630	3.1630	-0.1889	19.73	2.47	-0.750			
0.8157	52205.90	3.1600	3.1600	-0.1871	19.74	2.48	-0.750			
0.8163	52241.42	3.1570	3.1571	-0.1858	19.74	2.48	-0.750			
0.8168	52276.97	3.1540	3.1540	-0.1839	19.75	2.49	-0.750			
0.8174	52312.46	3.1510	3.1509	-0.1818	19.76	2.50	-0.750			
0.8179	52347.54	3.1480	3.1480	-0.1802	19.76	2.50	-0.750			
0.8185	52381.94	3.1450	3.1450	-0.1780	19.77	2.51	-0.750			
0.8190	52415.96	3.1420	3.1420	-0.1761	19.77	2.51	-0.750			
0.8195	52449.21	3.1390	3.1390	-0.1744	19.78	2.52	-0.750			
0.8200	52482.18	3.1360	3.1359	-0.1724	19.78	2.52	-0.750			
0.8205	52514.96	3.1330	3.1330	-0.1702	19.79	2.53	-0.750			
0.8211	52547.76	3.1300	3.1299	-0.1687	19.79	2.53	-0.750			
0.8216	52580.14	3.1270	3.1270	-0.1676	19.80	2.54	-0.750			
0.8221	52612.13	3.1240	3.1241	-0.1656	19.80	2.54	-0.750			
0.8226	52643.78	3.1210	3.1210	-0.1634	19.81	2.55	-0.750			
0.8230	52674.75	3.1180	3.1180	-0.1621	19.82	2.56	-0.750			
0.8235	52705.29	3.1150	3.1150	-0.1603	19.82	2.56	-0.750			
0.8240	52736.03	3.1120	3.1120	-0.1599	19.83	2.57	-0.750			
0.8245	52766.92	3.1090	3.1089	-0.1587	19.84	2.58	-0.750			
0.8250	52797.19	3.1060	3.1060	-0.1579	19.84	2.58	-0.750			
0.8254	52827.36	3.1030	3.1031	-0.1570	19.85	2.59	-0.750			
0.8259	52857.43	3.1000	3.1001	-0.1562	19.86	2.60	-0.750			
0.8264	52887.56	3.0970	3.0968	-0.1552	19.87	2.61	-0.750			
0.8268	52917.19	3.0940	3.0940	-0.1534	19.87	2.61	-0.750			
0.8273	52946.62	3.0910	3.0910	-0.1521	19.88	2.62	-0.750			
0.8277	52975.67	3.0880	3.0880	-0.1505	19.89	2.63	-0.750			
0.8282	53004.65	3.0850	3.0850	-0.1491	19.89	2.63	-0.750			
0.8286	53032.91	3.0820	3.0820	-0.1471	19.90	2.64	-0.750			
0.8291	53060.79	3.0790	3.0790	-0.1457	19.91	2.65	-0.750			
0.8295	53088.66	3.0760	3.0760	-0.1447	19.91	2.65	-0.750			
0.8299	53116.26	3.0730	3.0729	-0.1437	19.92	2.66	-0.750			
0.8304	53143.85	3.0700	3.0699	-0.1424	19.92	2.66	-0.750			
0.8308	53170.95	3.0670	3.0671	-0.1416	19.93	2.67	-0.750			
0.8312	53198.05	3.0640	3.0640	-0.1408	19.93	2.67	-0.750			
0.8316	53224.99	3.0610	3.0610	-0.1401	19.94	2.68	-0.750			
0.8321	53251.78	3.0580	3.0579	-0.1395	19.94	2.68	-0.750			
0.8325	53278.54	3.0550	3.0550	-0.1384	19.95	2.69	-0.750			
0.8329	53305.04	3.0520	3.0520	-0.1377	19.95	2.69	-0.750			
0.8333	53331.64	3.0490	3.0490	-0.1365	19.96	2.70	-0.750			
0.8337	53357.99	3.0460	3.0460	-0.1356	19.96	2.70	-0.750			
0.8341	53383.71	3.0430	3.0430	-0.1340	19.97	2.71	-0.750			
0.8345	53409.29	3.0400	3.0400	-0.1325	19.97	2.71	-0.750			
0.8349	53434.61	3.0370	3.0370	-0.1311	19.98	2.72	-0.750			
0.8353	53459.28	3.0340	3.0341	-0.1302	19.98	2.72	-0.750			
0.8357	53484.23	3.0310	3.0309	-0.1297	19.98	2.72	-0.750			
0.8361	53508.99	3.0280	3.0280	-0.1291	19.99	2.73	-0.750			
0.8365	53533.79	3.0250	3.0249	-0.1287	19.99	2.73	-0.750			
0.8369	53558.46	3.0220	3.0220	-0.1283	20.00	2.74	-0.750			
0.8372	53583.41	3.0190	3.0191	-0.1272	20.00	2.74	-0.750			
0.8376	53607.70	3.0160	3.0160	-0.1258	20.01	2.75	-0.750			
0.8380	53632.03	3.0130	3.0129	-0.1246	20.01	2.75	-0.750			
0.8384	53655.72	3.0100	3.0101	-0.1227	20.01	2.75	-0.750			
0.8387	53679.10	3.0070	3.0070	-0.1209	20.02	2.76	-0.750			
0.8391	53702.23	3.0040	3.0039	-0.1187	20.02	2.76	-0.750			
0.8395	53724.81	3.0010	3.0010	-0.1165	20.03	2.77	-0.750			
