Ah_balance (normalized)	Ah_balance (mAh)	Voltage - fit (V)	Voltage -  interpolate (V)	dQ/dV (1/V)	Temperature (°C)	Temperature - diff (°C)	Current (C)	R_DC 0ms (mOhm)	R_DC 50ms (mOhm)	R_DC 50 ms PEC (mOhm)
0.0000	0.00	4.0940	4.1268	0.0000	6.00	0.00	-0.751			
0.0000	0.00	4.0970	4.1268	0.0000	6.00	0.00	-0.751			
0.0002	15.87	4.0910	4.0903	-0.0532	6.00	0.00	-0.750			
0.0005	29.88	4.0880	4.0873	-0.0813	6.00	0.00	-0.750			
0.0008	48.14	4.0850	4.0848	-0.1089	6.00	0.00	-0.750			
0.0011	72.49	4.0820	4.0818	-0.1331	6.00	0.00	-0.750			
0.0016	100.65	4.0790	4.0791	-0.1584	6.00	0.00	-0.750			
0.0021	133.54	4.0760	4.0760	-0.1840	6.00	0.00	-0.750			
0.0027	172.35	4.0730	4.0731	-0.2096	6.00	0.00	-0.750			
0.0034	214.97	4.0700	4.0699	-0.2325	6.00	0.00	-0.750			
0.0041	261.92	4.0670	4.0670	-0.2546	6.00	0.00	-0.750			
0.0049	312.94	4.0640	4.0642	-0.2764	6.00	0.00	-0.750			
0.0058	368.26	4.0610	4.0610	-0.2989	6.00	0.00	-0.750			
0.0067	427.42	4.0580	4.0580	-0.3240	6.00	0.00	-0.750			
0.0077	491.43	4.0550	4.0549	-0.3475	6.00	0.00	-0.750			
0.0088	561.00	4.0520	4.0520	-0.3668	6.00	0.00	-0.750			
0.0099	633.55	4.0490	4.0490	-0.3907	6.00	0.00	-0.750			
0.0111	711.14	4.0460	4.0461	-0.4142	6.00	0.00	-0.750			
0.0124	792.65	4.0430	4.0429	-0.4364	6.00	0.00	-0.750			
0.0137	877.84	4.0400	4.0400	-0.4583	6.00	0.00	-0.750			
0.0151	967.92	4.0370	4.0370	-0.4812	6.00	0.00	-0.750			
0.0166	1063.46	4.0340	4.0340	-0.5045	6.01	0.01	-0.750			
0.0182	1164.11	4.0310	4.0309	-0.5224	6.01	0.01	-0.750			
0.0198	1265.58	4.0280	4.0281	-0.5383	6.02	0.02	-0.750			
0.0214	1370.70	4.0250	4.0251	-0.5590	6.02	0.02	-0.750			
0.0232	1481.77	4.0220	4.0218	-0.5686	6.03	0.03	-0.750			
0.0249	1592.18	4.0190	4.0189	-0.5788	6.03	0.03	-0.750			
0.0266	1704.58	4.0160	4.0163	-0.5881	6.04	0.04	-0.750			
0.0284	1818.94	4.0130	4.0130	-0.6002	6.04	0.04	-0.750			
0.0302	1934.27	4.0100	4.0098	-0.6130	6.05	0.05	-0.750			
0.0320	2050.19	4.0070	4.0071	-0.6304	6.05	0.05	-0.750			
0.0340	2173.02	4.0040	4.0038	-0.6413	6.06	0.06	-0.750			
0.0359	2298.58	4.0010	4.0010	-0.6608	6.06	0.06	-0.750			
0.0379	2428.13	3.9980	3.9979	-0.6692	6.07	0.07	-0.750			
0.0400	2557.72	3.9950	3.9950	-0.6798	6.07	0.07	-0.750			
0.0420	2688.37	3.9920	3.9920	-0.6900	6.08	0.08	-0.750			
0.0441	2821.14	3.9890	3.9889	-0.7003	6.09	0.09	-0.750			
0.0462	2957.86	3.9860	3.9860	-0.7002	6.09	0.09	-0.750			
0.0484	3096.29	3.9830	3.9830	-0.7061	6.10	0.10	-0.750			
0.0505	3231.74	3.9800	3.9801	-0.7051	6.11	0.11	-0.750			
0.0526	3368.00	3.9770	3.9770	-0.7069	6.11	0.11	-0.750			
0.0547	3501.67	3.9740	3.9739	-0.7020	6.12	0.12	-0.750			
0.0568	3634.82	3.9710	3.9710	-0.7075	6.13	0.13	-0.750			
0.0589	3770.17	3.9680	3.9680	-0.7137	6.14	0.14	-0.750			
0.0611	3909.88	3.9650	3.9650	-0.7216	6.15	0.15	-0.750			
0.0633	4050.77	3.9620	3.9619	-0.7222	6.16	0.16	-0.750			
0.0654	4188.67	3.9590	3.9590	-0.7258	6.17	0.17	-0.750			
0.0676	4328.48	3.9560	3.9561	-0.7257	6.18	0.18	-0.750			
0.0698	4468.43	3.9530	3.9530	-0.7296	6.19	0.19	-0.750			
0.0720	4606.15	3.9500	3.9500	-0.7296	6.20	0.20	-0.750			
0.0742	4746.99	3.9470	3.9468	-0.7350	6.21	0.21	-0.750			
0.0764	4888.68	3.9440	3.9442	-0.7434	6.22	0.22	-0.750			
0.0787	5033.92	3.9410	3.9409	-0.7467	6.23	0.23	-0.750			
0.0809	5177.79	3.9380	3.9378	-0.7435	6.24	0.24	-0.750			
0.0831	5321.47	3.9350	3.9351	-0.7482	6.25	0.25	-0.750			
0.0854	5464.30	3.9320	3.9321	-0.7435	6.25	0.25	-0.750			
0.0876	5607.59	3.9290	3.9289	-0.7476	6.26	0.26	-0.750			
0.0899	5751.49	3.9260	3.9260	-0.7475	6.27	0.27	-0.750			
0.0921	5893.04	3.9230	3.9232	-0.7484	6.28	0.28	-0.750			
0.0943	6036.51	3.9200	3.9200	-0.7640	6.29	0.29	-0.750			
0.0966	6184.39	3.9170	3.9170	-0.7674	6.31	0.31	-0.750			
0.0990	6334.59	3.9140	3.9138	-0.7719	6.32	0.32	-0.750			
0.1013	6484.94	3.9110	3.9109	-0.7724	6.33	0.33	-0.750			
0.1036	6631.71	3.9080	3.9081	-0.7713	6.34	0.34	-0.750			
0.1059	6780.58	3.9050	3.9049	-0.7742	6.35	0.35	-0.750			
0.1082	6927.67	3.9020	3.9020	-0.7707	6.36	0.36	-0.750			
0.1105	7074.14	3.8990	3.8991	-0.7699	6.37	0.37	-0.750			
0.1129	7224.57	3.8960	3.8960	-0.7767	6.37	0.37	-0.750			
0.1152	7374.30	3.8930	3.8929	-0.7753	6.39	0.39	-0.750			
0.1176	7523.26	3.8900	3.8900	-0.7743	6.40	0.40	-0.750			
0.1199	7670.77	3.8870	3.8871	-0.7689	6.41	0.41	-0.750			
0.1222	7818.34	3.8840	3.8840	-0.7716	6.42	0.42	-0.750			
0.1245	7966.72	3.8810	3.8809	-0.7739	6.43	0.43	-0.750			
0.1268	8115.33	3.8780	3.8780	-0.7734	6.44	0.44	-0.750			
0.1291	8262.86	3.8750	3.8751	-0.7774	6.45	0.45	-0.750			
0.1315	8414.02	3.8720	3.8719	-0.7827	6.46	0.46	-0.750			
0.1338	8564.80	3.8690	3.8690	-0.7837	6.47	0.47	-0.750			
0.1362	8716.04	3.8660	3.8658	-0.7822	6.48	0.48	-0.750			
0.1385	8865.05	3.8630	3.8631	-0.7786	6.49	0.49	-0.750			
0.1408	9014.10	3.8600	3.8600	-0.7809	6.50	0.50	-0.750			
0.1431	9161.53	3.8570	3.8571	-0.7939	6.51	0.51	-0.750			
0.1455	9314.21	3.8540	3.8539	-0.7937	6.52	0.52	-0.750			
0.1480	9469.06	3.8510	3.8508	-0.8010	6.53	0.53	-0.750			
0.1504	9626.95	3.8480	3.8480	-0.7988	6.54	0.54	-0.750			
0.1528	9780.04	3.8450	3.8450	-0.8026	6.56	0.56	-0.750			
0.1552	9931.82	3.8420	3.8420	-0.8106	6.57	0.57	-0.750			
0.1576	10089.53	3.8390	3.8387	-0.8007	6.58	0.58	-0.750			
0.1600	10239.56	3.8360	3.8360	-0.7927	6.59	0.59	-0.750			
0.1624	10395.70	3.8330	3.8330	-0.7966	6.60	0.60	-0.750			
0.1648	10549.23	3.8300	3.8300	-0.7984	6.61	0.61	-0.750			
0.1672	10699.78	3.8270	3.8269	-0.8072	6.62	0.62	-0.750			
0.1695	10850.22	3.8240	3.8240	-0.8011	6.63	0.63	-0.750			
0.1719	11004.75	3.8210	3.8209	-0.7992	6.64	0.64	-0.750			
0.1745	11164.87	3.8180	3.8179	-0.8092	6.65	0.65	-0.750			
0.1769	11319.98	3.8150	3.8154	-0.8041	6.66	0.66	-0.750			
0.1793	11474.04	3.8120	3.8118	-0.7991	6.67	0.67	-0.750			
0.1816	11625.08	3.8090	3.8091	-0.7926	6.68	0.68	-0.750			
0.1840	11775.89	3.8060	3.8059	-0.7915	6.69	0.69	-0.750			
0.1864	11928.41	3.8030	3.8030	-0.7982	6.70	0.70	-0.750			
0.1888	12081.55	3.8000	3.7999	-0.8002	6.71	0.71	-0.750			
0.1912	12234.14	3.7970	3.7970	-0.8075	6.72	0.72	-0.750			
0.1936	12390.55	3.7940	3.7940	-0.8137	6.73	0.73	-0.750			
0.1961	12547.42	3.7910	3.7910	-0.8192	6.74	0.74	-0.750			
0.1985	12706.10	3.7880	3.7880	-0.8188	6.75	0.75	-0.750			
0.2010	12864.64	3.7850	3.7851	-0.8197	6.76	0.76	-0.750			
0.2035	13021.59	3.7820	3.7819	-0.8214	6.77	0.77	-0.750			
0.2059	13178.43	3.7790	3.7788	-0.8217	6.78	0.78	-0.750			
0.2084	13335.06	3.7760	3.7760	-0.8235	6.79	0.79	-0.750			
0.2108	13492.72	3.7730	3.7731	-0.8256	6.80	0.80	-0.750			
0.2134	13654.46	3.7700	3.7700	-0.8292	6.81	0.81	-0.750			
0.2159	13814.42	3.7670	3.7669	-0.8328	6.82	0.82	-0.750			
0.2183	13973.10	3.7640	3.7639	-0.8357	6.83	0.83	-0.750			
0.2209	14134.68	3.7610	3.7611	-0.8323	6.84	0.84	-0.750			
0.2234	14294.97	3.7580	3.7579	-0.8300	6.85	0.85	-0.750			
0.2259	14454.47	3.7550	3.7550	-0.8333	6.86	0.86	-0.750			
0.2283	14613.87	3.7520	3.7520	-0.8367	6.87	0.87	-0.750			
0.2308	14774.09	3.7490	3.7488	-0.8390	6.88	0.88	-0.750			
0.2334	14934.89	3.7460	3.7460	-0.8367	6.89	0.89	-0.750			
0.2359	15095.33	3.7430	3.7430	-0.8384	6.90	0.90	-0.750			
0.2385	15261.08	3.7400	3.7401	-0.8482	6.91	0.91	-0.750			
0.2410	15422.54	3.7370	3.7369	-0.8443	6.92	0.92	-0.750			
0.2435	15583.07	3.7340	3.7340	-0.8400	6.92	0.92	-0.750			
0.2460	15743.40	3.7310	3.7310	-0.8458	6.93	0.93	-0.750			
0.2485	15904.28	3.7280	3.7280	-0.8528	6.94	0.94	-0.750			
0.2511	16069.98	3.7250	3.7250	-0.8624	6.95	0.95	-0.750			
0.2537	16235.12	3.7220	3.7219	-0.8677	6.96	0.96	-0.750			
0.2563	16404.48	3.7190	3.7190	-0.8750	6.96	0.96	-0.750			
0.2590	16574.47	3.7160	3.7161	-0.8770	6.97	0.97	-0.750			
0.2616	16743.06	3.7130	3.7129	-0.8768	6.98	0.98	-0.750			
0.2642	16911.54	3.7100	3.7103	-0.8766	6.99	0.99	-0.750			
0.2669	17079.36	3.7070	3.7070	-0.8815	7.00	1.00	-0.750			
0.2695	17247.99	3.7040	3.7039	-0.8834	7.01	1.01	-0.750			
0.2721	17417.32	3.7010	3.7010	-0.8891	7.02	1.02	-0.750			
0.2748	17588.51	3.6980	3.6979	-0.8979	7.02	1.02	-0.750			
0.2775	17761.54	3.6950	3.6951	-0.9039	7.03	1.03	-0.750			
0.2802	17935.79	3.6920	3.6920	-0.9189	7.04	1.04	-0.750			
0.2830	18114.25	3.6890	3.6890	-0.9244	7.05	1.05	-0.750			
0.2858	18293.73	3.6860	3.6859	-0.9319	7.05	1.05	-0.750			
0.2887	18475.31	3.6830	3.6832	-0.9349	7.06	1.06	-0.750			
0.2915	18653.54	3.6800	3.6799	-0.9413	7.07	1.07	-0.750			
0.2943	18836.02	3.6770	3.6771	-0.9405	7.08	1.08	-0.750			
0.2971	19015.97	3.6740	3.6739	-0.9371	7.09	1.09	-0.750			
0.2999	19195.00	3.6710	3.6710	-0.9325	7.09	1.09	-0.750			
0.3028	19376.42	3.6680	3.6682	-0.9431	7.10	1.10	-0.750			
0.3056	19555.56	3.6650	3.6649	-0.9500	7.11	1.11	-0.750			
0.3084	19737.94	3.6620	3.6620	-0.9595	7.11	1.11	-0.750			
0.3113	19920.20	3.6590	3.6589	-0.9681	7.12	1.12	-0.750			
0.3142	20107.67	3.6560	3.6562	-0.9960	7.12	1.12	-0.750			
0.3173	20304.14	3.6530	3.6529	-1.0061	7.13	1.13	-0.750			
0.3203	20501.17	3.6500	3.6499	-1.0094	7.13	1.13	-0.750			
0.3234	20696.61	3.6470	3.6470	-1.0053	7.14	1.14	-0.750			
0.3264	20889.96	3.6440	3.6442	-1.0141	7.15	1.15	-0.750			
0.3294	21083.67	3.6410	3.6409	-1.0152	7.15	1.15	-0.750			
0.3324	21275.87	3.6380	3.6379	-1.0120	7.16	1.16	-0.750			
0.3355	21469.09	3.6350	3.6350	-1.0168	7.16	1.16	-0.750			
0.3385	21665.56	3.6320	3.6320	-1.0380	7.17	1.17	-0.750			
0.3416	21865.16	3.6290	3.6290	-1.0559	7.17	1.17	-0.750			
0.3449	22071.23	3.6260	3.6258	-1.0643	7.18	1.18	-0.750			
0.3481	22275.78	3.6230	3.6230	-1.0641	7.18	1.18	-0.750			
0.3513	22481.71	3.6200	3.6203	-1.0694	7.19	1.19	-0.750			
0.3545	22688.19	3.6170	3.6170	-1.0899	7.19	1.19	-0.750			
0.3578	22897.65	3.6140	3.6138	-1.0981	7.19	1.19	-0.750			
0.3610	23105.69	3.6110	3.6109	-1.0976	7.20	1.20	-0.750			
0.3643	23317.30	3.6080	3.6081	-1.1154	7.20	1.20	-0.750			
0.3678	23540.60	3.6050	3.6051	-1.1259	7.21	1.21	-0.750			
0.3712	23757.35	3.6020	3.6019	-1.1251	7.22	1.22	-0.750			
0.3745	23970.47	3.5990	3.5990	-1.1324	7.22	1.22	-0.750			
0.3779	24184.61	3.5960	3.5960	-1.1333	7.23	1.23	-0.750			
0.3813	24405.27	3.5930	3.5929	-1.1489	7.23	1.23	-0.750			
0.3848	24629.57	3.5900	3.5899	-1.1557	7.24	1.24	-0.750			
0.3883	24852.08	3.5870	3.5870	-1.1553	7.24	1.24	-0.750	0.393	0.865	
0.3918	25077.87	3.5840	3.5839	-1.1686	7.24	1.24	-0.750			
0.3953	25298.69	3.5810	3.5811	-1.1759	7.25	1.25	-0.750			
0.3988	25523.00	3.5780	3.5778	-1.1872	7.26	1.26	-0.750			
0.4023	25750.32	3.5750	3.5750	-1.2028	7.26	1.26	-0.750			
0.4060	25984.90	3.5720	3.5720	-1.2244	7.26	1.26	-0.750			
0.4097	26222.42	3.5690	3.5690	-1.2380	7.27	1.27	-0.750			
0.4135	26464.89	3.5660	3.5662	-1.2543	7.27	1.27	-0.750			
0.4173	26707.79	3.5630	3.5629	-1.2558	7.28	1.28	-0.750			
0.4211	26949.06	3.5600	3.5598	-1.2533	7.28	1.28	-0.750			
0.4248	27189.48	3.5570	3.5571	-1.2515	7.29	1.29	-0.750			
0.4286	27428.25	3.5540	3.5541	-1.2522	7.29	1.29	-0.750			
0.4323	27669.64	3.5510	3.5510	-1.2609	7.30	1.30	-0.750			
0.4361	27911.18	3.5480	3.5479	-1.2716	7.31	1.31	-0.750			
0.4399	28152.25	3.5450	3.5451	-1.2894	7.31	1.31	-0.750			
0.4438	28404.03	3.5420	3.5420	-1.3086	7.31	1.31	-0.750			
0.4478	28658.39	3.5390	3.5390	-1.3308	7.32	1.32	-0.750			
0.4518	28918.23	3.5360	3.5362	-1.3356	7.32	1.32	-0.750			
0.4559	29177.52	3.5330	3.5329	-1.3383	7.33	1.33	-0.750			
0.4599	29436.10	3.5300	3.5300	-1.3276	7.33	1.33	-0.750			
0.4639	29689.15	3.5270	3.5270	-1.3225	7.34	1.34	-0.750			
0.4679	29944.80	3.5240	3.5239	-1.3147	7.34	1.34	-0.750			
0.4717	30190.91	3.5210	3.5210	-1.3134	7.35	1.35	-0.750			
0.4756	30438.29	3.5180	3.5181	-1.3213	7.35	1.35	-0.750			
0.4796	30695.62	3.5150	3.5149	-1.3361	7.35	1.35	-0.750			
0.4837	30954.69	3.5120	3.5118	-1.3438	7.36	1.36	-0.750			
0.4877	31214.19	3.5090	3.5092	-1.3575	7.37	1.37	-0.750			
0.4918	31477.48	3.5060	3.5060	-1.3498	7.37	1.37	-0.750			
0.4960	31743.75	3.5030	3.5029	-1.3493	7.38	1.38	-0.750			
0.4999	31995.72	3.5000	3.5000	-1.3510	7.39	1.39	-0.750			
0.5039	32251.57	3.4970	3.4969	-1.3388	7.40	1.40	-0.750			
0.5080	32514.00	3.4940	3.4938	-1.3374	7.41	1.41	-0.750			
0.5120	32769.77	3.4910	3.4910	-1.3228	7.41	1.41	-0.750			
0.5160	33023.70	3.4880	3.4881	-1.3082	7.42	1.42	-0.750			
0.5199	33274.32	3.4850	3.4850	-1.3140	7.43	1.43	-0.750			
0.5238	33521.93	3.4820	3.4819	-1.3060	7.44	1.44	-0.750			
0.5276	33767.70	3.4790	3.4790	-1.3006	7.45	1.45	-0.750			
0.5316	34022.35	3.4760	3.4761	-1.3135	7.46	1.46	-0.750			
0.5356	34277.71	3.4730	3.4730	-1.3195	7.46	1.46	-0.750			
0.5396	34531.96	3.4700	3.4701	-1.3187	7.47	1.47	-0.750			
0.5436	34787.35	3.4670	3.4669	-1.3090	7.48	1.48	-0.750			
0.5475	35036.85	3.4640	3.4640	-1.2845	7.49	1.49	-0.750			
0.5513	35282.34	3.4610	3.4612	-1.2770	7.50	1.50	-0.750			
0.5551	35527.25	3.4580	3.4580	-1.2628	7.51	1.51	-0.750			
0.5588	35765.22	3.4550	3.4549	-1.2447	7.52	1.52	-0.750			
0.5625	35999.64	3.4520	3.4520	-1.2343	7.53	1.53	-0.750			
0.5662	36235.83	3.4490	3.4489	-1.2374	7.55	1.55	-0.750			
0.5700	36478.19	3.4460	3.4459	-1.2321	7.56	1.56	-0.750			
0.5737	36714.25	3.4430	3.4429	-1.2251	7.57	1.57	-0.750			
0.5773	36947.86	3.4400	3.4402	-1.2160	7.58	1.58	-0.750			
0.5810	37185.31	3.4370	3.4369	-1.2030	7.59	1.59	-0.750			
0.5846	37414.38	3.4340	3.4339	-1.1846	7.60	1.60	-0.750			
0.5881	37639.31	3.4310	3.4309	-1.1631	7.61	1.61	-0.750			
0.5916	37860.33	3.4280	3.4279	-1.1580	7.62	1.62	-0.750			
0.5950	38080.76	3.4250	3.4250	-1.1389	7.63	1.63	-0.750			
0.5984	38295.73	3.4220	3.4219	-1.1189	7.65	1.65	-0.750			
0.6017	38508.35	3.4190	3.4192	-1.1054	7.66	1.66	-0.750			
0.6051	38725.05	3.4160	3.4160	-1.1003	7.67	1.67	-0.750			
0.6083	38933.11	3.4130	3.4130	-1.0750	7.69	1.69	-0.750			
0.6115	39137.44	3.4100	3.4100	-1.0578	7.70	1.70	-0.750			
0.6146	39336.74	3.4070	3.4071	-1.0463	7.71	1.71	-0.750			
0.6178	39537.87	3.4040	3.4038	-1.0393	7.73	1.73	-0.750			
0.6209	39737.15	3.4010	3.4009	-1.0181	7.74	1.74	-0.750			
0.6239	39931.24	3.3980	3.3981	-0.9989	7.76	1.76	-0.750			
0.6269	40124.57	3.3950	3.3951	-0.9803	7.77	1.77	-0.750			
0.6299	40310.96	3.3920	3.3920	-0.9568	7.78	1.78	-0.750			
0.6327	40489.92	3.3890	3.3890	-0.9259	7.79	1.79	-0.750			
0.6354	40663.94	3.3860	3.3860	-0.8993	7.80	1.80	-0.750			
0.6380	40834.64	3.3830	3.3830	-0.8807	7.82	1.82	-0.750			
0.6407	41002.51	3.3800	3.3800	-0.8638	7.83	1.83	-0.750			
0.6432	41165.16	3.3770	3.3769	-0.8454	7.84	1.84	-0.750			
0.6457	41326.59	3.3740	3.3741	-0.8257	7.85	1.85	-0.750			
0.6482	41483.10	3.3710	3.3710	-0.8030	7.86	1.86	-0.750			
0.6506	41635.75	3.3680	3.3680	-0.7899	7.87	1.87	-0.750			
0.6529	41785.73	3.3650	3.3649	-0.7715	7.89	1.89	-0.750			
0.6552	41930.89	3.3620	3.3619	-0.7536	7.90	1.90	-0.750			
0.6574	42072.87	3.3590	3.3591	-0.7418	7.91	1.91	-0.750			
0.6596	42214.40	3.3560	3.3560	-0.7281	7.92	1.92	-0.750			
0.6618	42355.74	3.3530	3.3528	-0.7079	7.94	1.94	-0.750			
0.6639	42490.05	3.3500	3.3501	-0.6934	7.95	1.95	-0.750			
0.6659	42620.10	3.3470	3.3471	-0.6729	7.96	1.96	-0.750			
0.6679	42748.24	3.3440	3.3439	-0.6560	7.97	1.97	-0.750			
0.6699	42871.06	3.3410	3.3410	-0.6424	7.99	1.99	-0.750			
0.6717	42991.13	3.3380	3.3380	-0.6252	8.00	2.00	-0.750			
0.6736	43111.72	3.3350	3.3350	-0.6150	8.01	2.01	-0.750			
0.6755	43229.29	3.3320	3.3320	-0.5998	8.02	2.02	-0.750			
0.6772	43342.12	3.3290	3.3290	-0.5798	8.03	2.03	-0.750			
0.6789	43452.49	3.3260	3.3261	-0.5677	8.05	2.05	-0.750			
0.6806	43558.20	3.3230	3.3230	-0.5552	8.06	2.06	-0.750			
0.6822	43662.04	3.3200	3.3201	-0.5413	8.07	2.07	-0.750			
0.6838	43765.54	3.3170	3.3169	-0.5368	8.09	2.09	-0.750			
0.6854	43868.76	3.3140	3.3140	-0.5284	8.10	2.10	-0.750			
0.6870	43969.63	3.3110	3.3110	-0.5217	8.11	2.11	-0.750			
0.6886	44069.16	3.3080	3.3080	-0.5141	8.13	2.13	-0.750			
0.6901	44166.45	3.3050	3.3051	-0.5043	8.14	2.14	-0.750			
0.6916	44261.69	3.3020	3.3020	-0.4916	8.15	2.15	-0.750			
0.6931	44356.52	3.2990	3.2988	-0.4815	8.16	2.16	-0.750			
0.6945	44447.36	3.2960	3.2962	-0.4695	8.17	2.17	-0.750			
0.6959	44536.75	3.2930	3.2930	-0.4604	8.18	2.18	-0.750			
0.6972	44623.95	3.2900	3.2899	-0.4493	8.19	2.19	-0.750			
0.6986	44709.78	3.2870	3.2869	-0.4381	8.20	2.20	-0.750			
0.6999	44792.17	3.2840	3.2840	-0.4260	8.21	2.21	-0.750			
0.7011	44872.81	3.2810	3.2811	-0.4185	8.22	2.22	-0.750			
0.7024	44951.96	3.2780	3.2780	-0.4126	8.23	2.23	-0.750			
0.7036	45029.68	3.2750	3.2749	-0.4069	8.24	2.24	-0.750			
0.7048	45105.98	3.2720	3.2719	-0.4017	8.25	2.25	-0.750			
0.7060	45183.49	3.2690	3.2691	-0.3970	8.26	2.26	-0.750			
0.7072	45261.43	3.2660	3.2661	-0.3934	8.27	2.27	-0.750			
0.7084	45336.24	3.2630	3.2630	-0.3859	8.28	2.28	-0.750			
0.7095	45408.57	3.2600	3.2600	-0.3772	8.30	2.30	-0.750			
0.7106	45480.40	3.2570	3.2570	-0.3699	8.31	2.31	-0.750			
0.7117	45550.80	3.2540	3.2540	-0.3641	8.32	2.32	-0.750			
0.7128	45620.10	3.2510	3.2510	-0.3569	8.33	2.33	-0.750			
0.7139	45688.07	3.2480	3.2480	-0.3523	8.33	2.33	-0.750			
0.7149	45755.08	3.2450	3.2449	-0.3469	8.34	2.34	-0.750			
0.7159	45820.45	3.2420	3.2420	-0.3421	8.35	2.35	-0.750			
0.7170	45885.33	3.2390	3.2390	-0.3369	8.36	2.36	-0.750			
0.7180	45950.01	3.2360	3.2360	-0.3348	8.37	2.37	-0.750			
0.7190	46013.81	3.2330	3.2330	-0.3314	8.38	2.38	-0.750			
0.7200	46077.45	3.2300	3.2299	-0.3286	8.40	2.40	-0.750			
0.7209	46140.22	3.2270	3.2270	-0.3229	8.41	2.41	-0.750			
0.7219	46202.21	3.2240	3.2239	-0.3190	8.42	2.42	-0.750			
0.7229	46262.90	3.2210	3.2211	-0.3145	8.43	2.43	-0.750			
0.7238	46323.39	3.2180	3.2180	-0.3093	8.44	2.44	-0.750			
0.7247	46381.86	3.2150	3.2149	-0.3031	8.44	2.44	-0.750			
0.7256	46439.37	3.2120	3.2120	-0.2985	8.45	2.45	-0.750			
0.7265	46495.67	3.2090	3.2091	-0.2931	8.45	2.45	-0.750			
0.7274	46551.63	3.2060	3.2059	-0.2905	8.46	2.46	-0.750			
0.7282	46606.82	3.2030	3.2030	-0.2866	8.47	2.47	-0.750			
0.7291	46661.51	3.2000	3.2000	-0.2832	8.48	2.48	-0.750			
0.7299	46715.79	3.1970	3.1970	-0.2804	8.49	2.49	-0.750			
0.7308	46769.60	3.1940	3.1940	-0.2772	8.51	2.51	-0.750			
0.7316	46822.61	3.1910	3.1910	-0.2730	8.52	2.52	-0.750			
0.7324	46874.78	3.1880	3.1881	-0.2693	8.53	2.53	-0.750			
0.7332	46925.93	3.1850	3.1850	-0.2647	8.54	2.54	-0.750			
0.7340	46976.30	3.1820	3.1821	-0.2614	8.55	2.55	-0.750			
0.7348	47026.01	3.1790	3.1789	-0.2582	8.56	2.56	-0.750			
0.7355	47074.93	3.1760	3.1760	-0.2546	8.57	2.57	-0.750			
0.7363	47123.41	3.1730	3.1729	-0.2527	8.58	2.58	-0.750			
0.7371	47171.67	3.1700	3.1700	-0.2508	8.59	2.59	-0.750			
0.7378	47219.99	3.1670	3.1671	-0.2481	8.59	2.59	-0.750			
0.7386	47267.21	3.1640	3.1639	-0.2463	8.60	2.60	-0.750			
0.7393	47314.44	3.1610	3.1611	-0.2443	8.61	2.61	-0.750			
0.7400	47360.97	3.1580	3.1580	-0.2426	8.62	2.62	-0.750			
0.7407	47407.54	3.1550	3.1549	-0.2401	8.63	2.63	-0.750			
0.7415	47453.88	3.1520	3.1520	-0.2364	8.64	2.64	-0.750			
0.7422	47498.66	3.1490	3.1491	-0.2336	8.65	2.65	-0.750			
0.7429	47543.08	3.1460	3.1461	-0.2316	8.66	2.66	-0.750			
0.7436	47587.43	3.1430	3.1430	-0.2292	8.67	2.67	-0.750			
0.7442	47630.65	3.1400	3.1399	-0.2259	8.67	2.67	-0.750			
0.7449	47673.83	3.1370	3.1370	-0.2249	8.68	2.68	-0.750			
0.7456	47716.75	3.1340	3.1341	-0.2227	8.69	2.69	-0.750			
0.7462	47759.74	3.1310	3.1310	-0.2218	8.70	2.70	-0.750			
0.7469	47802.66	3.1280	3.1279	-0.2205	8.71	2.71	-0.750			
0.7476	47844.47	3.1250	3.1250	-0.2171	8.72	2.72	-0.750			
0.7482	47885.72	3.1220	3.1220	-0.2153	8.72	2.72	-0.750			
0.7489	47926.90	3.1190	3.1190	-0.2136	8.73	2.73	-0.750			
0.7495	47967.69	3.1160	3.1160	-0.2126	8.74	2.74	-0.750			
0.7501	48008.32	3.1130	3.1129	-0.2098	8.74	2.74	-0.750			
0.7508	48048.92	3.1100	3.1100	-0.2080	8.75	2.75	-0.750			
0.7514	48088.58	3.1070	3.1070	-0.2051	8.76	2.76	-0.750			
0.7520	48127.88	3.1040	3.1040	-0.2019	8.77	2.77	-0.750			
0.7526	48166.21	3.1010	3.1010	-0.2007	8.77	2.77	-0.750			
0.7532	48203.66	3.0980	3.0981	-0.1983	8.78	2.78	-0.750			
0.7538	48241.69	3.0950	3.0949	-0.1979	8.79	2.79	-0.750			
0.7544	48279.21	3.0920	3.0919	-0.1967	8.80	2.80	-0.750			
0.7550	48317.22	3.0890	3.0890	-0.1964	8.81	2.81	-0.750			
0.7555	48355.07	3.0860	3.0861	-0.1962	8.82	2.82	-0.750			
0.7561	48392.65	3.0830	3.0830	-0.1953	8.83	2.83	-0.750			
0.7567	48430.37	3.0800	3.0799	-0.1943	8.84	2.84	-0.750			
0.7573	48467.38	3.0770	3.0770	-0.1922	8.85	2.85	-0.750			
0.7579	48504.20	3.0740	3.0740	-0.1907	8.85	2.85	-0.750			
0.7584	48540.56	3.0710	3.0710	-0.1896	8.86	2.86	-0.750			
0.7590	48576.97	3.0680	3.0682	-0.1885	8.87	2.87	-0.750			
0.7596	48612.86	3.0650	3.0648	-0.1873	8.88	2.88	-0.750			
0.7601	48648.73	3.0620	3.0620	-0.1855	8.89	2.89	-0.750			
0.7607	48684.50	3.0590	3.0589	-0.1841	8.90	2.90	-0.750			
0.7612	48719.67	3.0560	3.0561	-0.1822	8.91	2.91	-0.750			
0.7618	48754.67	3.0530	3.0530	-0.1809	8.91	2.91	-0.750			
0.7623	48789.10	3.0500	3.0500	-0.1793	8.92	2.92	-0.750			
0.7629	48823.06	3.0470	3.0468	-0.1771	8.93	2.93	-0.750			
0.7634	48856.86	3.0440	3.0441	-0.1768	8.94	2.94	-0.750			
0.7639	48890.47	3.0410	3.0410	-0.1762	8.95	2.95	-0.750			
0.7644	48924.40	3.0380	3.0380	-0.1760	8.96	2.96	-0.750			
0.7650	48958.23	3.0350	3.0349	-0.1758	8.96	2.96	-0.750			
0.7655	48991.91	3.0320	3.0320	-0.1755	8.97	2.97	-0.750			
0.7660	49025.67	3.0290	3.0290	-0.1749	8.98	2.98	-0.750			
0.7666	49059.71	3.0260	3.0259	-0.1735	8.99	2.99	-0.750			
0.7671	49092.84	3.0230	3.0230	-0.1715	9.00	3.00	-0.750			
0.7676	49125.51	3.0200	3.0201	-0.1709	9.01	3.01	-0.750			
0.7681	49158.25	3.0170	3.0171	-0.1694	9.02	3.02	-0.750			
0.7686	49190.45	3.0140	3.0139	-0.1682	9.03	3.03	-0.750			
0.7691	49222.65	3.0110	3.0109	-0.1672	9.03	3.03	-0.750			
0.7696	49254.34	3.0080	3.0081	-0.1666	9.04	3.04	-0.750			
0.7701	49286.22	3.0050	3.0050	-0.1669	9.05	3.05	-0.750			
0.7706	49318.27	3.0020	3.0020	-0.1620	9.06	3.06	-0.750			
