Ah_balance (normalized)	Ah_balance (mAh)	Voltage - fit (V)	Voltage -  interpolate (V)	dQ/dV (1/V)	Temperature (°C)	Temperature - diff (°C)	Current (C)	R_DC 0ms (mOhm)	R_DC 50ms (mOhm)	R_DC 50 ms PEC (mOhm)
0.0957	6122.45	4.1990	4.1962	0.5269	8.08	2.09	0.750	0.372	0.821	
0.0976	6243.53	4.1960	4.1983	0.6944	8.07	2.08	0.750			
0.0999	6392.67	4.1930	4.1950	0.7719	8.06	2.07	0.750			
0.1023	6550.10	4.1900	4.1914	0.7983	8.06	2.07	0.750			
0.1049	6716.27	4.1870	4.1878	0.8022	8.05	2.06	0.750			
0.1073	6866.16	4.1840	4.1842	0.7716	8.04	2.05	0.750			
0.1100	7039.79	4.1810	4.1806	0.8103	8.03	2.04	0.750			
0.1118	7154.16	4.1780	4.1779	0.7109	8.03	2.04	0.750			
0.1139	7290.61	4.1750	4.1749	0.7139	8.03	2.04	0.750			
0.1161	7428.28	4.1720	4.1721	0.7121	8.03	2.04	0.750			
0.1182	7566.35	4.1690	4.1690	0.7145	8.02	2.03	0.750			
0.1204	7703.64	4.1660	4.1659	0.7109	8.02	2.03	0.750			
0.1225	7837.76	4.1630	4.1631	0.7099	8.01	2.02	0.750			
0.1246	7973.27	4.1600	4.1600	0.7103	8.01	2.02	0.750			
0.1267	8111.71	4.1570	4.1570	0.7166	8.00	2.01	0.750			
0.1289	8249.31	4.1540	4.1539	0.7178	8.00	2.01	0.750			
0.1311	8387.81	4.1510	4.1510	0.7214	7.99	2.00	0.750			
0.1332	8526.94	4.1480	4.1482	0.7208	7.99	2.00	0.750			
0.1354	8666.64	4.1450	4.1449	0.7189	7.98	1.99	0.750			
0.1375	8801.91	4.1420	4.1421	0.7219	7.98	1.99	0.750			
0.1397	8937.81	4.1390	4.1391	0.7278	7.97	1.98	0.750			
0.1418	9078.37	4.1360	4.1359	0.7376	7.97	1.98	0.750			
0.1441	9220.38	4.1330	4.1327	0.7463	7.96	1.97	0.750			
0.1463	9364.44	4.1300	4.1301	0.7597	7.96	1.97	0.750			
0.1487	9514.05	4.1270	4.1271	0.7594	7.95	1.96	0.750			
0.1510	9663.38	4.1240	4.1239	0.7635	7.94	1.95	0.750			
0.1532	9807.41	4.1210	4.1211	0.7505	7.94	1.95	0.750			
0.1555	9951.08	4.1180	4.1179	0.7492	7.93	1.94	0.750			
0.1577	10094.05	4.1150	4.1151	0.7531	7.93	1.94	0.750			
0.1600	10237.96	4.1120	4.1119	0.7501	7.92	1.93	0.750			
0.1622	10381.61	4.1090	4.1090	0.7558	7.92	1.93	0.750			
0.1645	10529.09	4.1060	4.1061	0.7636	7.91	1.92	0.750			
0.1668	10675.53	4.1030	4.1030	0.7651	7.91	1.92	0.750			
0.1691	10824.60	4.1000	4.1000	0.7672	7.90	1.91	0.750			
0.1714	10970.54	4.0970	4.0970	0.7684	7.89	1.90	0.750			
0.1737	11118.33	4.0940	4.0940	0.7682	7.89	1.90	0.750			
0.1760	11266.02	4.0910	4.0910	0.7760	7.88	1.89	0.750			
0.1783	11413.41	4.0880	4.0880	0.7812	7.88	1.89	0.750			
0.1807	11564.32	4.0850	4.0850	0.7897	7.87	1.88	0.750			
0.1831	11716.70	4.0820	4.0820	0.8011	7.87	1.88	0.750			
0.1855	11874.52	4.0790	4.0790	0.8054	7.86	1.87	0.750			
0.1880	12029.19	4.0760	4.0761	0.8061	7.86	1.87	0.750			
0.1904	12185.19	4.0730	4.0730	0.8093	7.86	1.87	0.750			
0.1928	12340.08	4.0700	4.0701	0.8042	7.85	1.86	0.750			
0.1952	12494.12	4.0670	4.0669	0.7996	7.85	1.86	0.750			
0.1976	12647.62	4.0640	4.0641	0.7949	7.84	1.85	0.750			
0.2000	12798.85	4.0610	4.0611	0.7958	7.84	1.85	0.750			
0.2024	12952.17	4.0580	4.0579	0.8007	7.83	1.84	0.750			
0.2048	13105.06	4.0550	4.0550	0.8051	7.82	1.83	0.750			
0.2072	13258.31	4.0520	4.0519	0.8094	7.82	1.83	0.750			
0.2096	13415.80	4.0490	4.0491	0.8156	7.81	1.82	0.750			
0.2121	13573.81	4.0460	4.0460	0.8208	7.81	1.82	0.750			
0.2145	13730.00	4.0430	4.0430	0.8294	7.80	1.81	0.750			
0.2170	13887.91	4.0400	4.0401	0.8347	7.80	1.81	0.750			
0.2195	14049.60	4.0370	4.0368	0.8490	7.79	1.80	0.750			
0.2221	14215.89	4.0340	4.0340	0.8490	7.78	1.79	0.750			
0.2247	14381.03	4.0310	4.0310	0.8541	7.77	1.78	0.750			
0.2273	14547.89	4.0280	4.0281	0.8586	7.76	1.77	0.750			
0.2298	14709.62	4.0250	4.0250	0.8565	7.76	1.77	0.750			
0.2324	14871.52	4.0220	4.0221	0.8579	7.75	1.76	0.750			
0.2350	15037.42	4.0190	4.0190	0.8672	7.74	1.75	0.750			
0.2376	15204.75	4.0160	4.0160	0.8728	7.74	1.75	0.750			
0.2402	15375.94	4.0130	4.0130	0.8800	7.73	1.74	0.750			
0.2429	15545.16	4.0100	4.0101	0.8842	7.72	1.73	0.750			
0.2456	15716.37	4.0070	4.0071	0.8825	7.72	1.73	0.750			
0.2482	15884.06	4.0040	4.0040	0.8788	7.71	1.72	0.750			
0.2508	16053.74	4.0010	4.0010	0.8804	7.70	1.71	0.750			
0.2534	16219.67	3.9980	3.9982	0.8857	7.70	1.71	0.750			
0.2561	16390.01	3.9950	3.9949	0.8927	7.69	1.70	0.750			
0.2588	16563.83	3.9920	3.9920	0.8942	7.68	1.69	0.750			
0.2615	16735.35	3.9890	3.9889	0.8948	7.68	1.69	0.750			
0.2642	16908.70	3.9860	3.9862	0.9087	7.67	1.68	0.750			
0.2669	17083.27	3.9830	3.9829	0.9103	7.66	1.67	0.750			
0.2697	17257.73	3.9800	3.9800	0.9144	7.65	1.66	0.750			
0.2724	17435.43	3.9770	3.9771	0.9053	7.64	1.65	0.750			
0.2751	17608.67	3.9740	3.9740	0.9112	7.64	1.65	0.750			
0.2778	17782.36	3.9710	3.9710	0.9200	7.63	1.64	0.750			
0.2806	17956.53	3.9680	3.9683	0.9210	7.62	1.63	0.750			
0.2833	18133.78	3.9650	3.9649	0.9255	7.62	1.63	0.750			
0.2861	18313.42	3.9620	3.9621	0.9433	7.61	1.62	0.750			
0.2890	18496.06	3.9590	3.9591	0.9585	7.60	1.61	0.750			
0.2920	18685.25	3.9560	3.9560	0.9748	7.60	1.61	0.750			
0.2948	18869.86	3.9530	3.9529	0.9704	7.59	1.60	0.750			
0.2978	19058.11	3.9500	3.9500	0.9730	7.58	1.59	0.750			
0.3007	19245.48	3.9470	3.9470	0.9804	7.57	1.58	0.750			
0.3036	19432.94	3.9440	3.9441	0.9877	7.57	1.58	0.750			
0.3066	19622.86	3.9410	3.9407	0.9876	7.56	1.57	0.750			
0.3096	19812.05	3.9380	3.9380	0.9974	7.55	1.56	0.750			
0.3126	20005.91	3.9350	3.9351	1.0060	7.55	1.56	0.750			
0.3156	20200.23	3.9320	3.9320	1.0201	7.54	1.55	0.750			
0.3187	20397.46	3.9290	3.9289	1.0308	7.53	1.54	0.750			
0.3218	20593.55	3.9260	3.9261	1.0349	7.52	1.53	0.750			
0.3249	20793.60	3.9230	3.9230	1.0481	7.51	1.52	0.750			
0.3281	20997.46	3.9200	3.9200	1.0592	7.50	1.51	0.750			
0.3313	21201.22	3.9170	3.9169	1.0616	7.49	1.50	0.750			
0.3345	21406.86	3.9140	3.9141	1.0692	7.48	1.49	0.750			
0.3376	21609.54	3.9110	3.9110	1.0781	7.47	1.48	0.750			
0.3409	21817.81	3.9080	3.9080	1.0856	7.46	1.47	0.750			
0.3442	22029.23	3.9050	3.9048	1.0867	7.45	1.46	0.750			
0.3474	22236.33	3.9020	3.9021	1.0947	7.44	1.45	0.750			
0.3507	22446.60	3.8990	3.8992	1.1093	7.43	1.44	0.750			
0.3540	22659.13	3.8960	3.8960	1.1294	7.42	1.43	0.750			
0.3574	22875.31	3.8930	3.8929	1.1429	7.41	1.42	0.750			
0.3609	23096.61	3.8900	3.8901	1.1664	7.40	1.41	0.750			
0.3645	23326.54	3.8870	3.8871	1.1941	7.39	1.40	0.750			
0.3681	23561.23	3.8840	3.8838	1.2033	7.38	1.39	0.750			
0.3718	23792.18	3.8810	3.8810	1.2115	7.37	1.38	0.750			
0.3754	24026.08	3.8780	3.8781	1.2101	7.36	1.37	0.750			
0.3790	24256.29	3.8750	3.8750	1.2370	7.35	1.36	0.750			
0.3827	24491.15	3.8720	3.8720	1.2647	7.34	1.35	0.750			
0.3865	24737.27	3.8690	3.8690	1.2904	7.32	1.33	0.750	0.395	0.815	
0.3905	24989.21	3.8660	3.8662	1.3189	7.31	1.32	0.750			
0.3945	25248.33	3.8630	3.8628	1.3299	7.30	1.31	0.750			
0.3985	25506.06	3.8600	3.8603	1.3560	7.29	1.30	0.750			
0.4026	25768.17	3.8570	3.8570	1.3738	7.27	1.28	0.750			
0.4067	26030.80	3.8540	3.8535	1.3828	7.26	1.27	0.750			
0.4108	26290.79	3.8510	3.8511	1.4043	7.24	1.25	0.750			
0.4152	26570.38	3.8480	3.8481	1.4348	7.23	1.24	0.750			
0.4195	26850.92	3.8450	3.8448	1.4691	7.21	1.22	0.750			
0.4240	27135.64	3.8420	3.8418	1.4771	7.19	1.20	0.750			
0.4285	27422.94	3.8390	3.8392	1.4903	7.18	1.19	0.750			
0.4330	27714.28	3.8360	3.8360	1.5073	7.17	1.18	0.750			
0.4375	27999.59	3.8330	3.8331	1.5285	7.15	1.16	0.750			
0.4420	28289.38	3.8300	3.8300	1.5552	7.13	1.14	0.750			
0.4468	28598.23	3.8270	3.8270	1.5823	7.11	1.12	0.750			
0.4516	28904.77	3.8240	3.8238	1.6027	7.08	1.09	0.750			
0.4566	29220.51	3.8210	3.8211	1.6347	7.06	1.07	0.750			
0.4614	29530.42	3.8180	3.8182	1.6847	7.05	1.06	0.750			
0.4666	29860.16	3.8150	3.8151	1.7057	7.04	1.05	0.750			
0.4717	30185.71	3.8120	3.8120	1.7339	7.02	1.03	0.750			
0.4770	30527.58	3.8090	3.8091	1.7697	6.99	1.00	0.750			
0.4824	30873.92	3.8060	3.8064	1.8244	6.97	0.98	0.750			
0.4879	31225.98	3.8030	3.8030	1.8238	6.95	0.96	0.750			
0.4934	31577.60	3.8000	3.7998	1.8335	6.92	0.93	0.750			
0.4989	31929.79	3.7970	3.7972	1.8512	6.90	0.91	0.750			
0.5046	32291.54	3.7940	3.7939	1.8822	6.88	0.89	0.750			
0.5102	32650.18	3.7910	3.7909	1.8911	6.85	0.86	0.750			
0.5158	33014.27	3.7880	3.7880	1.8995	6.83	0.84	0.750			
0.5217	33386.04	3.7850	3.7851	1.9416	6.80	0.81	0.750			
0.5274	33754.94	3.7820	3.7820	1.9708	6.77	0.78	0.750			
0.5333	34130.49	3.7790	3.7790	2.0324	6.74	0.75	0.750			
0.5395	34527.58	3.7760	3.7759	2.0384	6.72	0.73	0.750			
0.5457	34924.03	3.7730	3.7731	2.0965	6.69	0.70	0.750			
0.5521	35332.57	3.7700	3.7701	2.1464	6.67	0.68	0.750			
0.5585	35744.68	3.7670	3.7669	2.2141	6.64	0.65	0.750			
0.5652	36170.07	3.7640	3.7641	2.2511	6.61	0.62	0.750			
0.5722	36622.30	3.7610	3.7609	2.3294	6.58	0.59	0.750			
0.5791	37063.17	3.7580	3.7579	2.3858	6.55	0.56	0.750			
0.5863	37525.75	3.7550	3.7550	2.4628	6.52	0.53	0.750			
0.5938	38001.11	3.7520	3.7518	2.6224	6.49	0.50	0.750			
0.6019	38521.47	3.7490	3.7489	2.7541	6.46	0.47	0.750			
0.6107	39085.81	3.7460	3.7460	2.8943	6.42	0.43	0.750			
0.6196	39653.50	3.7430	3.7430	2.9772	6.39	0.40	0.750			
0.6285	40224.31	3.7400	3.7398	3.0343	6.35	0.36	0.750			
0.6377	40813.56	3.7370	3.7369	3.0750	6.32	0.33	0.750			
0.6473	41424.06	3.7340	3.7339	3.1041	6.28	0.29	0.750			
0.6566	42019.49	3.7310	3.7310	2.9317	6.26	0.27	0.750			
0.6649	42552.99	3.7280	3.7281	2.5915	6.23	0.24	0.750			
0.6720	43006.88	3.7250	3.7248	2.2780	6.21	0.22	0.750			
0.6781	43399.25	3.7220	3.7221	1.9660	6.19	0.20	0.750			
0.6836	43751.35	3.7190	3.7187	1.7521	6.17	0.18	0.750			
0.6883	44050.74	3.7160	3.7160	1.5518	6.16	0.17	0.750			
0.6924	44315.72	3.7130	3.7132	1.3997	6.15	0.16	0.750			
0.6965	44575.80	3.7100	3.7099	1.3009	6.13	0.14	0.750			
0.7002	44811.78	3.7070	3.7069	1.2075	6.13	0.14	0.750			
0.7036	45031.43	3.7040	3.7042	1.1508	6.12	0.13	0.750			
0.7070	45245.83	3.7010	3.7010	1.1096	6.11	0.12	0.750			
0.7101	45445.87	3.6980	3.6979	1.0756	6.10	0.11	0.750			
0.7132	45645.14	3.6950	3.6949	1.0534	6.09	0.10	0.750			
0.7164	45849.46	3.6920	3.6921	1.0416	6.09	0.10	0.750			
0.7196	46054.30	3.6890	3.6888	1.0374	6.08	0.09	0.750			
0.7227	46251.53	3.6860	3.6861	1.0152	6.07	0.08	0.750			
0.7257	46444.79	3.6830	3.6831	0.9930	6.06	0.07	0.750			
0.7286	46633.06	3.6800	3.6799	0.9658	6.05	0.06	0.750			
0.7315	46813.42	3.6770	3.6768	0.9354	6.04	0.05	0.750			
0.7342	46991.90	3.6740	3.6741	0.9143	6.03	0.04	0.750			
0.7369	47164.54	3.6710	3.6710	0.9009	6.03	0.04	0.750			
0.7396	47334.46	3.6680	3.6680	0.8934	6.02	0.03	0.750			
0.7422	47502.84	3.6650	3.6650	0.8924	6.01	0.02	0.750			
0.7449	47671.30	3.6620	3.6618	0.8961	6.01	0.02	0.750			
0.7476	47846.28	3.6590	3.6591	0.9011	6.00	0.01	0.750			
0.7503	48021.42	3.6560	3.6559	0.9026	6.00	0.01	0.750			
0.7531	48195.67	3.6530	3.6531	0.9044	6.00	0.01	0.750			
0.7558	48368.60	3.6500	3.6500	0.9005	5.99	0.00	0.750			
0.7585	48542.71	3.6470	3.6470	0.8943	5.99	0.00	0.750			
0.7612	48716.69	3.6440	3.6439	0.8714	5.99	0.00	0.750			
0.7639	48887.95	3.6410	3.6410	0.8338	5.99	0.00	0.750			
0.7665	49054.04	3.6380	3.6381	0.7871	5.99	0.00	0.750			
0.7688	49203.18	3.6350	3.6349	0.6983	5.99	0.00	0.750			
0.7708	49332.59	3.6320	3.6321	0.6025	5.99	0.00	0.750			
0.7725	49437.85	3.6290	3.6292	0.4953	5.99	0.00	0.750			
0.7736	49508.20	3.6260	3.6265	0.4151	5.99	0.00	0.750			
0.7747	49578.28	3.6230	3.6231	0.3275	5.99	0.00	0.750			
0.7755	49631.09	3.6200	3.6195	0.2562	5.99	0.00	0.750			
0.7760	49666.13	3.6170	3.6162	0.1858	5.99	0.00	0.750			
0.7764	49691.57	3.6140	3.6094	0.1327	5.99	0.00	0.750			
0.7766	49700.38	3.5960	3.5623	-0.1022	5.99	0.00	0.749			
0.7767	49707.70	3.6110	3.4659	0.0870	5.99	0.00	0.745			
0.7768	49716.38	3.5990	3.3517	-0.0644	5.99	0.00	0.740			
0.7769	49720.77	3.6080	3.2939	0.0491	5.99	0.00	0.737			
0.7770	49725.10	3.6020	3.2368	-0.0265	5.99	0.00	0.735			
0.7770	49726.57	3.6050	3.2175	0.0113	5.99	0.00	0.734			
