Ah_balance (normalized)	Ah_balance (mAh)	Voltage - fit (V)	Voltage -  interpolate (V)	dQ/dV (1/V)	Temperature (°C)	Temperature - diff (°C)	Current (C)	R_DC 0ms (mOhm)	R_DC 50ms (mOhm)	R_DC 50 ms PEC (mOhm)
0.0000	0.00	4.0970	4.1288	0.0000	5.99	-0.00	-0.749			
0.0001	7.18	4.0940	4.0943	-0.0237	5.99	-0.00	-0.750			
0.0002	14.33	4.0910	4.0906	-0.0508	5.99	-0.00	-0.750			
0.0004	26.69	4.0880	4.0876	-0.0779	5.99	-0.00	-0.750			
0.0007	44.89	4.0850	4.0847	-0.1039	5.99	-0.00	-0.750			
0.0011	67.38	4.0820	4.0820	-0.1303	5.99	-0.00	-0.750			
0.0015	94.91	4.0790	4.0790	-0.1566	5.99	-0.00	-0.750			
0.0020	127.51	4.0760	4.0760	-0.1818	5.99	-0.00	-0.750			
0.0026	165.92	4.0730	4.0729	-0.2058	5.99	-0.00	-0.750			
0.0033	208.04	4.0700	4.0700	-0.2268	5.99	-0.00	-0.750			
0.0040	253.88	4.0670	4.0671	-0.2501	5.99	-0.00	-0.750			
0.0047	303.66	4.0640	4.0640	-0.2728	5.99	0.00	-0.750			
0.0056	358.17	4.0610	4.0610	-0.2958	5.99	0.00	-0.750			
0.0065	417.08	4.0580	4.0579	-0.3182	5.99	0.00	-0.750			
0.0075	479.65	4.0550	4.0550	-0.3427	5.99	0.00	-0.750			
0.0086	548.95	4.0520	4.0520	-0.3637	5.99	0.00	-0.750			
0.0097	621.20	4.0490	4.0490	-0.3839	5.99	0.00	-0.750			
0.0109	696.83	4.0460	4.0460	-0.4038	6.00	0.01	-0.750			
0.0121	776.32	4.0430	4.0430	-0.4238	6.00	0.01	-0.750			
0.0134	859.39	4.0400	4.0400	-0.4446	6.00	0.01	-0.750			
0.0148	946.76	4.0370	4.0370	-0.4643	6.00	0.01	-0.750			
0.0162	1037.12	4.0340	4.0340	-0.4842	6.00	0.01	-0.750			
0.0177	1132.51	4.0310	4.0311	-0.5099	6.00	0.01	-0.750			
0.0193	1232.35	4.0280	4.0279	-0.5298	6.01	0.02	-0.750			
0.0209	1336.31	4.0250	4.0249	-0.5498	6.01	0.02	-0.750			
0.0226	1444.58	4.0220	4.0220	-0.5685	6.01	0.02	-0.750			
0.0243	1555.79	4.0190	4.0190	-0.5855	6.02	0.03	-0.750			
0.0261	1671.96	4.0160	4.0161	-0.6023	6.02	0.03	-0.750			
0.0280	1789.66	4.0130	4.0130	-0.6101	6.03	0.04	-0.750			
0.0298	1907.51	4.0100	4.0099	-0.6216	6.03	0.04	-0.750			
0.0317	2028.65	4.0070	4.0071	-0.6325	6.04	0.05	-0.750			
0.0336	2149.66	4.0040	4.0039	-0.6413	6.04	0.05	-0.750			
0.0355	2274.06	4.0010	4.0011	-0.6502	6.05	0.06	-0.750			
0.0375	2401.41	3.9980	3.9979	-0.6552	6.06	0.07	-0.750			
0.0395	2527.66	3.9950	3.9950	-0.6599	6.06	0.07	-0.750			
0.0415	2657.02	3.9920	3.9921	-0.6621	6.07	0.08	-0.750			
0.0435	2781.28	3.9890	3.9890	-0.6654	6.07	0.08	-0.750			
0.0455	2909.13	3.9860	3.9859	-0.6715	6.08	0.09	-0.750			
0.0475	3036.87	3.9830	3.9831	-0.6858	6.09	0.10	-0.750			
0.0495	3169.54	3.9800	3.9800	-0.6967	6.09	0.10	-0.750			
0.0517	3308.30	3.9770	3.9770	-0.7077	6.10	0.11	-0.750			
0.0538	3444.45	3.9740	3.9740	-0.7145	6.11	0.12	-0.750			
0.0560	3584.47	3.9710	3.9711	-0.7242	6.12	0.13	-0.750			
0.0582	3722.92	3.9680	3.9679	-0.7205	6.12	0.13	-0.750			
0.0603	3861.35	3.9650	3.9649	-0.7213	6.13	0.14	-0.750			
0.0625	3998.47	3.9620	3.9622	-0.7220	6.14	0.15	-0.750			
0.0647	4139.94	3.9590	3.9589	-0.7251	6.15	0.16	-0.750			
0.0669	4278.56	3.9560	3.9560	-0.7243	6.16	0.17	-0.750			
0.0690	4416.45	3.9530	3.9530	-0.7216	6.17	0.18	-0.750			
0.0712	4554.64	3.9500	3.9500	-0.7271	6.17	0.18	-0.750			
0.0734	4695.65	3.9470	3.9469	-0.7329	6.18	0.19	-0.750			
0.0756	4835.86	3.9440	3.9441	-0.7352	6.19	0.20	-0.750			
0.0778	4976.91	3.9410	3.9409	-0.7405	6.19	0.20	-0.750			
0.0800	5120.22	3.9380	3.9381	-0.7495	6.20	0.21	-0.750			
0.0823	5264.46	3.9350	3.9349	-0.7526	6.21	0.22	-0.750			
0.0845	5410.23	3.9320	3.9320	-0.7557	6.22	0.23	-0.750			
0.0868	5556.48	3.9290	3.9291	-0.7571	6.23	0.24	-0.750			
0.0891	5703.96	3.9260	3.9260	-0.7596	6.25	0.26	-0.750			
0.0914	5850.41	3.9230	3.9230	-0.7542	6.26	0.27	-0.750			
0.0937	5993.63	3.9200	3.9200	-0.7485	6.27	0.28	-0.750			
0.0959	6135.90	3.9170	3.9170	-0.7465	6.28	0.29	-0.750			
0.0981	6279.08	3.9140	3.9141	-0.7461	6.28	0.29	-0.750			
0.1003	6421.10	3.9110	3.9110	-0.7465	6.29	0.30	-0.750			
0.1025	6563.00	3.9080	3.9080	-0.7506	6.30	0.31	-0.750			
0.1048	6707.32	3.9050	3.9051	-0.7576	6.31	0.32	-0.750			
0.1071	6853.72	3.9020	3.9019	-0.7662	6.32	0.33	-0.750			
0.1094	7003.20	3.8990	3.8990	-0.7685	6.33	0.34	-0.750			
0.1117	7151.43	3.8960	3.8960	-0.7735	6.34	0.35	-0.750			
0.1141	7301.39	3.8930	3.8931	-0.7746	6.35	0.36	-0.750			
0.1164	7450.43	3.8900	3.8899	-0.7724	6.36	0.37	-0.750			
0.1187	7597.04	3.8870	3.8869	-0.7716	6.37	0.38	-0.750			
0.1210	7744.39	3.8840	3.8840	-0.7772	6.38	0.39	-0.750			
0.1233	7893.02	3.8810	3.8811	-0.7787	6.39	0.40	-0.750			
0.1257	8043.99	3.8780	3.8780	-0.7831	6.40	0.41	-0.750			
0.1281	8195.75	3.8750	3.8749	-0.7835	6.41	0.42	-0.750			
0.1304	8347.28	3.8720	3.8721	-0.7869	6.42	0.43	-0.750			
0.1328	8498.09	3.8690	3.8690	-0.7862	6.43	0.44	-0.750			
0.1351	8649.26	3.8660	3.8660	-0.7785	6.44	0.45	-0.750			
0.1375	8797.08	3.8630	3.8630	-0.7747	6.45	0.46	-0.750			
0.1398	8946.15	3.8600	3.8601	-0.7761	6.46	0.47	-0.750			
0.1421	9092.94	3.8570	3.8571	-0.7793	6.47	0.48	-0.750			
0.1444	9242.33	3.8540	3.8539	-0.7832	6.48	0.49	-0.750			
0.1468	9393.21	3.8510	3.8510	-0.7837	6.49	0.50	-0.750			
0.1492	9546.12	3.8480	3.8479	-0.7852	6.50	0.51	-0.750			
0.1516	9699.44	3.8450	3.8452	-0.7895	6.51	0.52	-0.750			
0.1539	9848.64	3.8420	3.8421	-0.7866	6.52	0.53	-0.750			
0.1562	9998.48	3.8390	3.8390	-0.7859	6.53	0.54	-0.750			
0.1586	10147.86	3.8360	3.8359	-0.7900	6.54	0.55	-0.750			
0.1609	10300.00	3.8330	3.8330	-0.7889	6.55	0.56	-0.750			
0.1633	10451.78	3.8300	3.8300	-0.7962	6.56	0.57	-0.750			
0.1658	10608.98	3.8270	3.8270	-0.8003	6.57	0.58	-0.750			
0.1681	10761.20	3.8240	3.8239	-0.8000	6.58	0.59	-0.750			
0.1705	10912.54	3.8210	3.8210	-0.8017	6.59	0.60	-0.750			
0.1729	11068.78	3.8180	3.8181	-0.8017	6.60	0.61	-0.750			
0.1754	11222.74	3.8150	3.8148	-0.7969	6.61	0.62	-0.750			
0.1778	11377.08	3.8120	3.8121	-0.7968	6.61	0.62	-0.750			
0.1801	11527.51	3.8090	3.8091	-0.7935	6.62	0.63	-0.750			
0.1825	11680.39	3.8060	3.8059	-0.7941	6.63	0.64	-0.750			
0.1849	11830.51	3.8030	3.8030	-0.7988	6.65	0.66	-0.750			
0.1873	11985.34	3.8000	3.8000	-0.8059	6.66	0.67	-0.750			
0.1898	12144.66	3.7970	3.7969	-0.8105	6.67	0.68	-0.750			
0.1922	12299.76	3.7940	3.7942	-0.8086	6.68	0.69	-0.750			
0.1946	12455.01	3.7910	3.7911	-0.8075	6.69	0.70	-0.750			
0.1970	12609.30	3.7880	3.7881	-0.8112	6.70	0.71	-0.750			
0.1994	12763.77	3.7850	3.7848	-0.8134	6.71	0.72	-0.750			
0.2019	12920.24	3.7820	3.7820	-0.8168	6.72	0.73	-0.750			
0.2043	13078.02	3.7790	3.7792	-0.8196	6.73	0.74	-0.750			
0.2068	13238.25	3.7760	3.7759	-0.8265	6.74	0.75	-0.750			
0.2093	13397.14	3.7730	3.7730	-0.8192	6.75	0.76	-0.750			
0.2118	13552.85	3.7700	3.7700	-0.8131	6.76	0.77	-0.750			
0.2142	13707.02	3.7670	3.7669	-0.8139	6.77	0.78	-0.750			
0.2166	13863.03	3.7640	3.7641	-0.8180	6.78	0.79	-0.750			
0.2191	14020.27	3.7610	3.7608	-0.8219	6.79	0.80	-0.750			
0.2215	14177.91	3.7580	3.7581	-0.8329	6.80	0.81	-0.750			
0.2241	14339.23	3.7550	3.7550	-0.8390	6.81	0.82	-0.750			
0.2266	14503.07	3.7520	3.7519	-0.8409	6.82	0.83	-0.750			
0.2292	14667.15	3.7490	3.7491	-0.8371	6.83	0.84	-0.750			
0.2317	14826.46	3.7460	3.7460	-0.8318	6.84	0.85	-0.750			
0.2341	14984.49	3.7430	3.7431	-0.8342	6.85	0.86	-0.750			
0.2366	15144.16	3.7400	3.7399	-0.8351	6.86	0.87	-0.750			
0.2391	15301.45	3.7370	3.7369	-0.8383	6.87	0.88	-0.750			
0.2416	15464.94	3.7340	3.7341	-0.8475	6.88	0.89	-0.750			
0.2442	15629.36	3.7310	3.7310	-0.8499	6.89	0.90	-0.750			
0.2468	15795.50	3.7280	3.7280	-0.8585	6.90	0.91	-0.750			
0.2494	15959.11	3.7250	3.7250	-0.8589	6.90	0.91	-0.750			
0.2519	16122.80	3.7220	3.7219	-0.8578	6.91	0.92	-0.750			
0.2545	16288.04	3.7190	3.7191	-0.8659	6.92	0.93	-0.750			
0.2571	16453.51	3.7160	3.7160	-0.8721	6.93	0.94	-0.750			
0.2597	16623.89	3.7130	3.7130	-0.8776	6.94	0.95	-0.750			
0.2624	16792.30	3.7100	3.7100	-0.8838	6.95	0.96	-0.750			
0.2651	16963.38	3.7070	3.7069	-0.8861	6.96	0.97	-0.750			
0.2677	17134.04	3.7040	3.7042	-0.8850	6.97	0.98	-0.750			
0.2704	17302.68	3.7010	3.7009	-0.8894	6.98	0.99	-0.750			
0.2730	17473.18	3.6980	3.6981	-0.8875	6.98	0.99	-0.750			
0.2757	17643.01	3.6950	3.6949	-0.8968	6.99	1.00	-0.750			
0.2783	17813.91	3.6920	3.6920	-0.9132	7.00	1.01	-0.750			
0.2811	17990.52	3.6890	3.6889	-0.9185	7.00	1.01	-0.750			
0.2839	18170.77	3.6860	3.6859	-0.9301	7.01	1.02	-0.750			
0.2867	18351.25	3.6830	3.6831	-0.9315	7.02	1.03	-0.750			
0.2896	18531.27	3.6800	3.6800	-0.9302	7.03	1.04	-0.750			
0.2924	18710.57	3.6770	3.6770	-0.9358	7.04	1.05	-0.750			
0.2951	18886.69	3.6740	3.6740	-0.9360	7.05	1.06	-0.750			
0.2979	19065.85	3.6710	3.6710	-0.9439	7.05	1.06	-0.750			
0.3008	19249.91	3.6680	3.6680	-0.9501	7.06	1.07	-0.750			
0.3036	19433.41	3.6650	3.6650	-0.9539	7.07	1.08	-0.750			
0.3065	19617.12	3.6620	3.6620	-0.9582	7.08	1.09	-0.750			
0.3094	19801.31	3.6590	3.6590	-0.9609	7.09	1.10	-0.750			
0.3122	19983.01	3.6560	3.6560	-0.9653	7.09	1.10	-0.750			
0.3151	20165.92	3.6530	3.6530	-0.9764	7.10	1.11	-0.750			
0.3180	20353.76	3.6500	3.6500	-0.9974	7.11	1.12	-0.750			
0.3211	20549.80	3.6470	3.6469	-1.0152	7.12	1.13	-0.750			
0.3242	20748.56	3.6440	3.6440	-1.0293	7.13	1.14	-0.750			
0.3273	20950.11	3.6410	3.6410	-1.0328	7.13	1.14	-0.750			
0.3305	21149.87	3.6380	3.6381	-1.0383	7.14	1.15	-0.750			
0.3335	21346.39	3.6350	3.6351	-1.0377	7.15	1.16	-0.750			
0.3367	21545.89	3.6320	3.6319	-1.0373	7.15	1.16	-0.750			
0.3397	21743.28	3.6290	3.6289	-1.0382	7.16	1.17	-0.750			
0.3429	21942.78	3.6260	3.6262	-1.0561	7.16	1.17	-0.750			
0.3461	22148.55	3.6230	3.6231	-1.0641	7.17	1.18	-0.750			
0.3493	22355.02	3.6200	3.6200	-1.0681	7.18	1.19	-0.750			
0.3525	22559.29	3.6170	3.6168	-1.0723	7.19	1.20	-0.750			
0.3557	22765.06	3.6140	3.6141	-1.0844	7.19	1.20	-0.750			
0.3590	22974.14	3.6110	3.6110	-1.0903	7.20	1.21	-0.750			
0.3622	23182.00	3.6080	3.6080	-1.0967	7.21	1.22	-0.750			
0.3655	23392.46	3.6050	3.6050	-1.1012	7.22	1.23	-0.750			
0.3689	23607.41	3.6020	3.6019	-1.1271	7.22	1.23	-0.750			
0.3723	23826.35	3.5990	3.5990	-1.1368	7.23	1.24	-0.750			
0.3757	24047.90	3.5960	3.5957	-1.1486	7.23	1.24	-0.750			
0.3792	24271.18	3.5930	3.5932	-1.1528	7.24	1.25	-0.750			
0.3828	24496.18	3.5900	3.5899	-1.1534	7.24	1.25	-0.750			
0.3862	24716.67	3.5870	3.5869	-1.1623	7.25	1.26	-0.750	0.420	0.860	
0.3897	24940.23	3.5840	3.5840	-1.1604	7.25	1.26	-0.750			
0.3931	25156.22	3.5810	3.5809	-1.1702	7.25	1.26	-0.750			
0.3966	25379.93	3.5780	3.5781	-1.1787	7.26	1.27	-0.750			
0.4002	25614.62	3.5750	3.5749	-1.2057	7.27	1.28	-0.750			
0.4039	25847.75	3.5720	3.5719	-1.2143	7.28	1.29	-0.750			
0.4076	26085.12	3.5690	3.5690	-1.2312	7.29	1.30	-0.750			
0.4113	26321.08	3.5660	3.5661	-1.2364	7.30	1.31	-0.750			
0.4150	26558.47	3.5630	3.5629	-1.2571	7.31	1.32	-0.750			
0.4187	26799.62	3.5600	3.5600	-1.2621	7.31	1.32	-0.750			
0.4226	27045.61	3.5570	3.5569	-1.2683	7.32	1.33	-0.750			
0.4264	27289.99	3.5540	3.5538	-1.2716	7.32	1.33	-0.750			
0.4302	27534.72	3.5510	3.5513	-1.2713	7.33	1.34	-0.750			
0.4341	27782.79	3.5480	3.5480	-1.2768	7.34	1.35	-0.750			
0.4379	28026.19	3.5450	3.5449	-1.2775	7.35	1.36	-0.750			
0.4417	28269.13	3.5420	3.5419	-1.2931	7.36	1.37	-0.750			
0.4456	28517.81	3.5390	3.5390	-1.3075	7.37	1.38	-0.750			
0.4495	28771.17	3.5360	3.5359	-1.3097	7.37	1.38	-0.750			
0.4535	29025.91	3.5330	3.5332	-1.3206	7.38	1.39	-0.750			
0.4575	29282.71	3.5300	3.5300	-1.3299	7.39	1.40	-0.750			
0.4615	29537.77	3.5270	3.5269	-1.3267	7.40	1.41	-0.750			
0.4655	29789.47	3.5240	3.5240	-1.3563	7.41	1.42	-0.750			
0.4695	30050.20	3.5210	3.5208	-1.3418	7.42	1.43	-0.750			
0.4737	30315.74	3.5180	3.5178	-1.3472	7.43	1.44	-0.750			
0.4777	30574.43	3.5150	3.5155	-1.3437	7.44	1.45	-0.750			
0.4817	30831.31	3.5120	3.5119	-1.3343	7.45	1.46	-0.750			
0.4857	31087.96	3.5090	3.5089	-1.3335	7.45	1.46	-0.750			
0.4896	31335.02	3.5060	3.5058	-1.3343	7.46	1.47	-0.750			
0.4937	31595.39	3.5030	3.5032	-1.3320	7.47	1.48	-0.750			
0.4978	31857.45	3.5000	3.4998	-1.3239	7.48	1.49	-0.750			
0.5017	32109.21	3.4970	3.4970	-1.3239	7.49	1.50	-0.750			
0.5056	32358.45	3.4940	3.4942	-1.3061	7.50	1.51	-0.750			
0.5095	32609.25	3.4910	3.4909	-1.3091	7.51	1.52	-0.750			
0.5134	32856.87	3.4880	3.4879	-1.3065	7.52	1.53	-0.750			
0.5173	33107.83	3.4850	3.4852	-1.3062	7.53	1.54	-0.750			
0.5213	33364.47	3.4820	3.4820	-1.3257	7.54	1.55	-0.750			
0.5254	33623.23	3.4790	3.4789	-1.3276	7.56	1.57	-0.750			
0.5293	33875.53	3.4760	3.4760	-1.3128	7.57	1.58	-0.750			
0.5333	34131.15	3.4730	3.4729	-1.3004	7.58	1.59	-0.750			
0.5372	34378.35	3.4700	3.4700	-1.2853	7.60	1.61	-0.750			
0.5410	34622.32	3.4670	3.4671	-1.2709	7.62	1.63	-0.750			
0.5447	34863.14	3.4640	3.4640	-1.2676	7.63	1.64	-0.750			
0.5485	35101.70	3.4610	3.4609	-1.2580	7.64	1.65	-0.750			
0.5522	35343.04	3.4580	3.4580	-1.2663	7.65	1.66	-0.750			
0.5560	35586.38	3.4550	3.4550	-1.2697	7.67	1.68	-0.750			
0.5600	35838.52	3.4520	3.4520	-1.2713	7.68	1.69	-0.750			
0.5638	36081.32	3.4490	3.4490	-1.2526	7.70	1.71	-0.750			
0.5675	36320.86	3.4460	3.4460	-1.2440	7.71	1.72	-0.750			
0.5712	36557.99	3.4430	3.4430	-1.2283	7.72	1.73	-0.750			
0.5748	36790.03	3.4400	3.4399	-1.2123	7.73	1.74	-0.750			
0.5784	37019.86	3.4370	3.4369	-1.1996	7.75	1.76	-0.750			
0.5821	37252.41	3.4340	3.4340	-1.1904	7.76	1.77	-0.750			
0.5856	37481.34	3.4310	3.4309	-1.1781	7.78	1.79	-0.750			
0.5892	37707.57	3.4280	3.4280	-1.1595	7.80	1.81	-0.750			
0.5926	37927.07	3.4250	3.4251	-1.1392	7.81	1.82	-0.750			
0.5960	38142.41	3.4220	3.4221	-1.1314	7.83	1.84	-0.750			
0.5994	38358.47	3.4190	3.4189	-1.1173	7.84	1.85	-0.750			
0.6027	38571.55	3.4160	3.4160	-1.0972	7.85	1.86	-0.750			
0.6060	38782.35	3.4130	3.4130	-1.0921	7.87	1.88	-0.750			
0.6092	38990.70	3.4100	3.4102	-1.0706	7.88	1.89	-0.750			
0.6125	39197.81	3.4070	3.4068	-1.0532	7.90	1.91	-0.750			
0.6156	39396.79	3.4040	3.4039	-1.0331	7.91	1.92	-0.750			
0.6186	39591.52	3.4010	3.4012	-1.0101	7.93	1.94	-0.750			
0.6217	39786.11	3.3980	3.3979	-0.9958	7.94	1.95	-0.750			
0.6246	39975.56	3.3950	3.3951	-0.9735	7.96	1.97	-0.750			
0.6275	40158.15	3.3920	3.3920	-0.9458	7.97	1.98	-0.750			
0.6303	40338.97	3.3890	3.3890	-0.9350	7.98	1.99	-0.750			
0.6331	40517.61	3.3860	3.3860	-0.9139	8.00	2.01	-0.750			
0.6358	40689.52	3.3830	3.3829	-0.8955	8.02	2.03	-0.750			
0.6384	40860.67	3.3800	3.3802	-0.8790	8.04	2.05	-0.750			
0.6411	41028.61	3.3770	3.3769	-0.8612	8.05	2.06	-0.750			
0.6436	41192.01	3.3740	3.3740	-0.8417	8.07	2.08	-0.750			
0.6461	41351.89	3.3710	3.3710	-0.8198	8.09	2.10	-0.750			
0.6485	41506.51	3.3680	3.3680	-0.7948	8.10	2.11	-0.750			
0.6509	41659.51	3.3650	3.3650	-0.7776	8.12	2.13	-0.750			
0.6532	41805.75	3.3620	3.3620	-0.7538	8.13	2.14	-0.750			
0.6554	41947.59	3.3590	3.3590	-0.7361	8.15	2.16	-0.750			
0.6576	42085.83	3.3560	3.3559	-0.7238	8.16	2.17	-0.750			
0.6597	42220.46	3.3530	3.3531	-0.7162	8.17	2.18	-0.750			
0.6619	42359.69	3.3500	3.3498	-0.7001	8.19	2.20	-0.750			
0.6640	42495.01	3.3470	3.3470	-0.6827	8.20	2.21	-0.750			
0.6660	42625.48	3.3440	3.3441	-0.6681	8.21	2.22	-0.750			
0.6680	42752.24	3.3410	3.3410	-0.6492	8.23	2.24	-0.750			
0.6699	42873.23	3.3380	3.3378	-0.6283	8.24	2.25	-0.750			
0.6717	42990.97	3.3350	3.3350	-0.6111	8.25	2.26	-0.750			
0.6735	43104.80	3.3320	3.3321	-0.5963	8.27	2.28	-0.750			
0.6753	43221.05	3.3290	3.3290	-0.5892	8.28	2.29	-0.750			
0.6771	43333.63	3.3260	3.3260	-0.5763	8.29	2.30	-0.750			
0.6788	43441.73	3.3230	3.3231	-0.5641	8.30	2.31	-0.750			
0.6805	43549.00	3.3200	3.3200	-0.5538	8.32	2.33	-0.750			
0.6821	43654.38	3.3170	3.3170	-0.5453	8.33	2.34	-0.750			
0.6837	43758.27	3.3140	3.3141	-0.5351	8.35	2.36	-0.750			
0.6853	43860.76	3.3110	3.3109	-0.5242	8.36	2.37	-0.750			
0.6869	43960.04	3.3080	3.3081	-0.5145	8.38	2.39	-0.750			
0.6884	44058.03	3.3050	3.3050	-0.5009	8.39	2.40	-0.750			
0.6899	44152.36	3.3020	3.3020	-0.4876	8.40	2.41	-0.750			
0.6913	44244.72	3.2990	3.2990	-0.4783	8.42	2.43	-0.750			
0.6927	44335.09	3.2960	3.2960	-0.4676	8.43	2.44	-0.750			
0.6941	44424.55	3.2930	3.2929	-0.4582	8.44	2.45	-0.750			
0.6955	44511.02	3.2900	3.2900	-0.4515	8.45	2.46	-0.750			
0.6968	44596.17	3.2870	3.2871	-0.4445	8.46	2.47	-0.750			
0.6982	44681.69	3.2840	3.2840	-0.4420	8.48	2.49	-0.750			
0.6995	44766.01	3.2810	3.2809	-0.4346	8.49	2.50	-0.750			
0.7008	44849.03	3.2780	3.2781	-0.4278	8.50	2.51	-0.750			
0.7021	44931.36	3.2750	3.2750	-0.4236	8.51	2.52	-0.750			
0.7033	45012.43	3.2720	3.2719	-0.4140	8.53	2.54	-0.750			
0.7045	45090.55	3.2690	3.2690	-0.4036	8.53	2.54	-0.750			
0.7057	45167.36	3.2660	3.2660	-0.3962	8.54	2.55	-0.750			
0.7069	45242.46	3.2630	3.2630	-0.3867	8.55	2.56	-0.750			
0.7081	45316.02	3.2600	3.2600	-0.3815	8.57	2.58	-0.750			
0.7092	45388.77	3.2570	3.2571	-0.3738	8.58	2.59	-0.750			
0.7103	45459.02	3.2540	3.2539	-0.3678	8.59	2.60	-0.750			
0.7114	45529.83	3.2510	3.2511	-0.3634	8.60	2.61	-0.750			
0.7125	45599.06	3.2480	3.2479	-0.3564	8.61	2.62	-0.750			
0.7135	45666.80	3.2450	3.2450	-0.3515	8.62	2.63	-0.750			
0.7146	45733.93	3.2420	3.2421	-0.3474	8.64	2.65	-0.750			
0.7156	45799.61	3.2390	3.2389	-0.3411	8.64	2.65	-0.750			
0.7166	45865.19	3.2360	3.2359	-0.3371	8.65	2.66	-0.750			
0.7176	45928.78	3.2330	3.2329	-0.3322	8.66	2.67	-0.750			
0.7186	45991.82	3.2300	3.2300	-0.3287	8.67	2.68	-0.750			
0.7196	46055.23	3.2270	3.2271	-0.3257	8.68	2.69	-0.750			
0.7206	46117.01	3.2240	3.2240	-0.3209	8.69	2.70	-0.750			
0.7215	46178.72	3.2210	3.2210	-0.3173	8.71	2.72	-0.750			
0.7225	46239.46	3.2180	3.2180	-0.3149	8.72	2.73	-0.750			
0.7234	46299.68	3.2150	3.2149	-0.3094	8.73	2.74	-0.750			
0.7244	46358.41	3.2120	3.2120	-0.3044	8.74	2.75	-0.750			
0.7253	46416.42	3.2090	3.2089	-0.3004	8.75	2.76	-0.750			
0.7262	46473.72	3.2060	3.2061	-0.2965	8.76	2.77	-0.750			
0.7270	46530.19	3.2030	3.2029	-0.2924	8.77	2.78	-0.750			
0.7279	46585.82	3.2000	3.2001	-0.2884	8.78	2.79	-0.750			
0.7288	46640.17	3.1970	3.1970	-0.2841	8.79	2.80	-0.750			
0.7296	46695.14	3.1940	3.1940	-0.2820	8.80	2.81	-0.750			
0.7305	46748.87	3.1910	3.1910	-0.2779	8.81	2.82	-0.750			
0.7313	46802.12	3.1880	3.1879	-0.2733	8.82	2.83	-0.750			
0.7321	46854.41	3.1850	3.1850	-0.2702	8.83	2.84	-0.750			
0.7329	46905.66	3.1820	3.1820	-0.2664	8.84	2.85	-0.750			
0.7337	46956.45	3.1790	3.1790	-0.2623	8.85	2.86	-0.750			
0.7345	47005.74	3.1760	3.1758	-0.2596	8.86	2.87	-0.750			
0.7352	47055.44	3.1730	3.1731	-0.2580	8.87	2.88	-0.750			
0.7360	47105.15	3.1700	3.1700	-0.2556	8.88	2.89	-0.750			
0.7368	47154.63	3.1670	3.1670	-0.2535	8.89	2.90	-0.750			
0.7375	47203.07	3.1640	3.1640	-0.2488	8.90	2.91	-0.750			
0.7383	47250.00	3.1610	3.1611	-0.2462	8.90	2.91	-0.750			
0.7390	47296.49	3.1580	3.1580	-0.2438	8.91	2.92	-0.750			
0.7397	47343.09	3.1550	3.1550	-0.2416	8.92	2.93	-0.750			
0.7404	47388.51	3.1520	3.1519	-0.2390	8.93	2.94	-0.750			
0.7412	47434.40	3.1490	3.1490	-0.2371	8.94	2.95	-0.750			
0.7419	47480.18	3.1460	3.1461	-0.2360	8.95	2.96	-0.750			
0.7426	47525.77	3.1430	3.1430	-0.2345	8.96	2.97	-0.750			
0.7433	47570.88	3.1400	3.1400	-0.2323	8.97	2.98	-0.750			
0.7440	47614.45	3.1370	3.1369	-0.2287	8.98	2.99	-0.750			
0.7447	47657.84	3.1340	3.1340	-0.2272	8.99	3.00	-0.750			
0.7453	47701.55	3.1310	3.1310	-0.2258	9.00	3.01	-0.750			
0.7460	47744.88	3.1280	3.1280	-0.2244	9.01	3.02	-0.750			
0.7467	47787.92	3.1250	3.1250	-0.2230	9.02	3.03	-0.750			
0.7474	47830.51	3.1220	3.1220	-0.2215	9.03	3.04	-0.750			
0.7480	47872.96	3.1190	3.1191	-0.2195	9.04	3.05	-0.750			
0.7487	47915.14	3.1160	3.1158	-0.2177	9.05	3.06	-0.750			
0.7493	47956.87	3.1130	3.1131	-0.2150	9.06	3.07	-0.750			
0.7500	47997.86	3.1100	3.1099	-0.2123	9.07	3.08	-0.750			
0.7506	48038.46	3.1070	3.1070	-0.2109	9.07	3.08	-0.750			
0.7512	48078.34	3.1040	3.1041	-0.2089	9.08	3.09	-0.750			
0.7518	48118.05	3.1010	3.1010	-0.2072	9.09	3.10	-0.750			
0.7525	48157.74	3.0980	3.0980	-0.2068	9.10	3.11	-0.750			
0.7531	48197.51	3.0950	3.0950	-0.2051	9.11	3.12	-0.750			
0.7537	48236.97	3.0920	3.0920	-0.2039	9.12	3.13	-0.750			
0.7543	48276.43	3.0890	3.0890	-0.2030	9.13	3.14	-0.750			
0.7549	48314.95	3.0860	3.0860	-0.2018	9.14	3.15	-0.750			
0.7555	48353.24	3.0830	3.0830	-0.2005	9.15	3.16	-0.750			
0.7561	48391.45	3.0800	3.0800	-0.1993	9.16	3.17	-0.750			
0.7567	48429.49	3.0770	3.0770	-0.1986	9.17	3.18	-0.750			
0.7573	48467.90	3.0740	3.0741	-0.1963	9.18	3.19	-0.750			
0.7579	48505.89	3.0710	3.0710	-0.1951	9.19	3.20	-0.750			
0.7585	48542.80	3.0680	3.0682	-0.1942	9.20	3.21	-0.750			
0.7591	48579.98	3.0650	3.0649	-0.1927	9.21	3.22	-0.750			
0.7596	48616.52	3.0620	3.0620	-0.1911	9.22	3.23	-0.750			
0.7602	48653.11	3.0590	3.0589	-0.1893	9.23	3.24	-0.750			
0.7608	48689.42	3.0560	3.0561	-0.1880	9.24	3.25	-0.750			
0.7613	48725.30	3.0530	3.0531	-0.1871	9.25	3.26	-0.750			
0.7619	48761.52	3.0500	3.0500	-0.1862	9.26	3.27	-0.750			
0.7625	48796.89	3.0470	3.0469	-0.1847	9.27	3.28	-0.750			
0.7630	48831.88	3.0440	3.0440	-0.1827	9.28	3.29	-0.750			
0.7635	48867.17	3.0410	3.0410	-0.1823	9.29	3.30	-0.750			
0.7641	48902.05	3.0380	3.0381	-0.1810	9.30	3.31	-0.750			
0.7646	48936.71	3.0350	3.0349	-0.1807	9.31	3.32	-0.750			
0.7652	48971.06	3.0320	3.0320	-0.1805	9.32	3.33	-0.750			
0.7657	49005.72	3.0290	3.0290	-0.1792	9.33	3.34	-0.750			
0.7663	49040.26	3.0260	3.0259	-0.1783	9.34	3.35	-0.750			
0.7668	49074.61	3.0230	3.0231	-0.1776	9.35	3.36	-0.750			
0.7673	49109.01	3.0200	3.0200	-0.1758	9.36	3.37	-0.750			
0.7679	49142.68	3.0170	3.0170	-0.1740	9.36	3.37	-0.750			
0.7684	49175.56	3.0140	3.0140	-0.1726	9.37	3.38	-0.750			
0.7689	49208.16	3.0110	3.0110	-0.1708	9.38	3.39	-0.750			
0.7694	49240.46	3.0080	3.0079	-0.1702	9.39	3.40	-0.750			
0.7699	49273.08	3.0050	3.0050	-0.1706	9.40	3.41	-0.750			
0.7704	49306.07	3.0020	3.0020	-0.1766	9.41	3.42	-0.750			
