Ah_balance (normalized)	Ah_balance (mAh)	Voltage - fit (V)	Voltage -  interpolate (V)	dQ/dV (1/V)	Temperature (°C)	Temperature - diff (°C)	Current (C)	R_DC 0ms (mOhm)	R_DC 50ms (mOhm)	R_DC 50 ms PEC (mOhm)
0.0954	6107.55	4.1960	4.1982	0.6037	8.62	2.63	0.750			
0.0976	6247.28	4.1930	4.1949	0.7261	8.61	2.62	0.750			
0.1000	6397.62	4.1900	4.1916	0.7700	8.60	2.61	0.750			
0.1026	6563.33	4.1870	4.1876	0.7853	8.60	2.61	0.750			
0.1048	6709.79	4.1840	4.1842	0.7612	8.59	2.60	0.750			
0.1075	6880.13	4.1810	4.1806	0.8034	8.58	2.59	0.750			
0.1093	6995.88	4.1780	4.1779	0.7110	8.58	2.59	0.750			
0.1114	7132.15	4.1750	4.1749	0.7166	8.57	2.58	0.750			
0.1136	7270.26	4.1720	4.1720	0.7176	8.57	2.58	0.750			
0.1158	7409.78	4.1690	4.1692	0.7228	8.56	2.57	0.750			
0.1180	7549.48	4.1660	4.1660	0.7246	8.56	2.57	0.750			
0.1201	7686.47	4.1630	4.1631	0.7245	8.55	2.56	0.750			
0.1223	7825.97	4.1600	4.1600	0.7255	8.55	2.56	0.750			
0.1245	7965.63	4.1570	4.1569	0.7350	8.54	2.55	0.750			
0.1266	8104.44	4.1540	4.1541	0.7410	8.54	2.55	0.750			
0.1289	8249.89	4.1510	4.1509	0.7423	8.53	2.54	0.750			
0.1312	8394.61	4.1480	4.1480	0.7465	8.53	2.54	0.750			
0.1334	8539.13	4.1450	4.1451	0.7418	8.52	2.53	0.750			
0.1356	8680.22	4.1420	4.1420	0.7370	8.51	2.52	0.750			
0.1378	8819.93	4.1390	4.1390	0.7350	8.51	2.52	0.750			
0.1400	8958.88	4.1360	4.1359	0.7406	8.50	2.51	0.750			
0.1422	9100.63	4.1330	4.1330	0.7426	8.50	2.51	0.750			
0.1445	9246.85	4.1300	4.1300	0.7491	8.49	2.50	0.750			
0.1468	9392.16	4.1270	4.1271	0.7505	8.48	2.49	0.750			
0.1490	9537.38	4.1240	4.1240	0.7534	8.47	2.48	0.750			
0.1513	9681.21	4.1210	4.1210	0.7516	8.46	2.47	0.750			
0.1535	9823.14	4.1180	4.1178	0.7518	8.45	2.46	0.750			
0.1557	9966.89	4.1150	4.1152	0.7593	8.45	2.46	0.750			
0.1581	10115.49	4.1120	4.1119	0.7642	8.44	2.45	0.750			
0.1604	10263.12	4.1090	4.1090	0.7639	8.44	2.45	0.750			
0.1627	10409.64	4.1060	4.1060	0.7711	8.43	2.44	0.750			
0.1649	10556.69	4.1030	4.1032	0.7764	8.42	2.43	0.750			
0.1673	10705.72	4.1000	4.0999	0.7813	8.42	2.43	0.750			
0.1696	10856.00	4.0970	4.0970	0.7875	8.41	2.42	0.750			
0.1720	11008.02	4.0940	4.0941	0.7875	8.40	2.41	0.750			
0.1744	11161.14	4.0910	4.0909	0.7940	8.40	2.41	0.750			
0.1768	11314.24	4.0880	4.0882	0.8010	8.39	2.40	0.750			
0.1792	11468.09	4.0850	4.0847	0.7981	8.38	2.39	0.750			
0.1816	11620.42	4.0820	4.0821	0.8037	8.37	2.38	0.750			
0.1840	11776.62	4.0790	4.0790	0.8042	8.37	2.38	0.750			
0.1864	11931.92	4.0760	4.0761	0.8043	8.36	2.37	0.750			
0.1888	12085.25	4.0730	4.0729	0.7997	8.35	2.36	0.750			
0.1912	12238.84	4.0700	4.0700	0.8002	8.34	2.35	0.750			
0.1936	12389.75	4.0670	4.0671	0.8006	8.33	2.34	0.750			
0.1960	12545.50	4.0640	4.0639	0.8054	8.33	2.34	0.750			
0.1984	12698.31	4.0610	4.0611	0.8141	8.32	2.33	0.750			
0.2009	12859.41	4.0580	4.0579	0.8195	8.31	2.32	0.750			
0.2034	13017.35	4.0550	4.0550	0.8229	8.30	2.31	0.750			
0.2059	13175.36	4.0520	4.0522	0.8276	8.30	2.31	0.750			
0.2084	13335.56	4.0490	4.0489	0.8263	8.29	2.30	0.750			
0.2108	13492.81	4.0460	4.0459	0.8309	8.28	2.29	0.750			
0.2133	13649.86	4.0430	4.0431	0.8401	8.27	2.28	0.750			
0.2158	13811.59	4.0400	4.0399	0.8487	8.26	2.27	0.750			
0.2184	13976.77	4.0370	4.0370	0.8611	8.26	2.27	0.750			
0.2210	14144.31	4.0340	4.0339	0.8607	8.25	2.26	0.750			
0.2236	14310.10	4.0310	4.0311	0.8642	8.24	2.25	0.750			
0.2263	14480.17	4.0280	4.0280	0.8682	8.23	2.24	0.750			
0.2288	14643.61	4.0250	4.0249	0.8634	8.22	2.23	0.750			
0.2313	14805.06	4.0220	4.0220	0.8670	8.21	2.22	0.750			
0.2340	14973.82	4.0190	4.0190	0.8724	8.21	2.22	0.750			
0.2366	15142.35	4.0160	4.0159	0.8752	8.20	2.21	0.750			
0.2393	15313.11	4.0130	4.0131	0.8771	8.19	2.20	0.750			
0.2419	15482.23	4.0100	4.0099	0.8752	8.18	2.19	0.750			
0.2445	15650.00	4.0070	4.0070	0.8776	8.17	2.18	0.750			
0.2471	15814.18	4.0040	4.0040	0.8741	8.16	2.17	0.750			
0.2497	15980.21	4.0010	4.0010	0.8858	8.15	2.16	0.750			
0.2524	16152.53	3.9980	3.9981	0.9037	8.15	2.16	0.750			
0.2551	16328.72	3.9950	3.9949	0.9122	8.14	2.15	0.750			
0.2579	16506.94	3.9920	3.9920	0.9113	8.13	2.14	0.750			
0.2607	16684.07	3.9890	3.9891	0.9153	8.12	2.13	0.750			
0.2634	16859.23	3.9860	3.9862	0.9134	8.11	2.12	0.750			
0.2662	17035.01	3.9830	3.9828	0.9075	8.10	2.11	0.750			
0.2688	17204.73	3.9800	3.9800	0.9038	8.09	2.10	0.750			
0.2715	17376.94	3.9770	3.9771	0.9183	8.08	2.09	0.750			
0.2743	17553.47	3.9740	3.9741	0.9351	8.07	2.08	0.750			
0.2772	17738.18	3.9710	3.9710	0.9449	8.06	2.07	0.750			
0.2800	17919.34	3.9680	3.9679	0.9493	8.05	2.06	0.750			
0.2829	18105.47	3.9650	3.9651	0.9503	8.04	2.05	0.750			
0.2857	18286.55	3.9620	3.9620	0.9648	8.03	2.04	0.750			
0.2886	18469.47	3.9590	3.9591	0.9741	8.02	2.03	0.750			
0.2915	18657.27	3.9560	3.9558	0.9746	8.01	2.02	0.750			
0.2945	18847.11	3.9530	3.9530	0.9764	8.00	2.01	0.750			
0.2975	19037.47	3.9500	3.9502	0.9857	7.99	2.00	0.750			
0.3004	19228.53	3.9470	3.9471	0.9888	7.98	1.99	0.750			
0.3034	19416.75	3.9440	3.9438	0.9851	7.96	1.97	0.750			
0.3063	19603.89	3.9410	3.9410	0.9805	7.95	1.96	0.750			
0.3092	19790.29	3.9380	3.9381	0.9963	7.94	1.95	0.750			
0.3123	19984.42	3.9350	3.9349	1.0130	7.93	1.94	0.750			
0.3153	20180.77	3.9320	3.9319	1.0217	7.92	1.93	0.750			
0.3185	20382.26	3.9290	3.9291	1.0266	7.90	1.91	0.750			
0.3216	20580.22	3.9260	3.9260	1.0371	7.89	1.90	0.750			
0.3247	20779.37	3.9230	3.9231	1.0450	7.88	1.89	0.750			
0.3278	20976.30	3.9200	3.9201	1.0441	7.87	1.88	0.750			
0.3309	21180.14	3.9170	3.9170	1.0550	7.85	1.86	0.750			
0.3341	21382.16	3.9140	3.9141	1.0719	7.84	1.85	0.750			
0.3373	21590.39	3.9110	3.9110	1.0827	7.83	1.84	0.750			
0.3407	21803.65	3.9080	3.9080	1.1006	7.81	1.82	0.750			
0.3439	22009.95	3.9050	3.9051	1.1090	7.80	1.81	0.750			
0.3472	22221.44	3.9020	3.9020	1.1301	7.79	1.80	0.750			
0.3506	22441.14	3.8990	3.8990	1.1569	7.77	1.78	0.750			
0.3542	22669.58	3.8960	3.8956	1.1633	7.76	1.77	0.750			
0.3577	22893.68	3.8930	3.8932	1.1738	7.75	1.76	0.750			
0.3613	23124.35	3.8900	3.8902	1.1788	7.73	1.74	0.750			
0.3649	23350.89	3.8870	3.8871	1.1859	7.72	1.73	0.750			
0.3683	23573.63	3.8840	3.8840	1.1788	7.70	1.71	0.750			
0.3718	23793.81	3.8810	3.8811	1.1997	7.69	1.70	0.750			
0.3754	24027.42	3.8780	3.8779	1.2316	7.68	1.69	0.750			
0.3792	24269.51	3.8750	3.8746	1.2572	7.66	1.67	0.750			
0.3830	24513.92	3.8720	3.8721	1.2796	7.64	1.65	0.750			
0.3870	24766.37	3.8690	3.8688	1.2956	7.62	1.63	0.750	0.376	0.836	
0.3909	25019.58	3.8660	3.8660	1.3002	7.60	1.61	0.750			
0.3948	25265.17	3.8630	3.8632	1.3151	7.59	1.60	0.750			
0.3987	25517.83	3.8600	3.8600	1.3435	7.57	1.58	0.750			
0.4028	25777.95	3.8570	3.8569	1.3547	7.56	1.57	0.750			
0.4069	26039.70	3.8540	3.8541	1.3973	7.54	1.55	0.750			
0.4111	26307.41	3.8510	3.8511	1.4367	7.52	1.53	0.750			
0.4155	26593.12	3.8480	3.8479	1.4593	7.50	1.51	0.750			
0.4200	26879.95	3.8450	3.8447	1.4740	7.47	1.48	0.750			
0.4244	27163.46	3.8420	3.8423	1.4823	7.45	1.46	0.750			
0.4289	27447.33	3.8390	3.8390	1.5169	7.43	1.44	0.750			
0.4334	27736.82	3.8360	3.8359	1.5375	7.41	1.42	0.750			
0.4381	28036.99	3.8330	3.8329	1.5561	7.39	1.40	0.750			
0.4427	28333.81	3.8300	3.8299	1.5889	7.38	1.39	0.750			
0.4477	28650.29	3.8270	3.8271	1.6112	7.35	1.36	0.750			
0.4526	28965.28	3.8240	3.8241	1.6346	7.32	1.33	0.750			
0.4575	29277.22	3.8210	3.8212	1.6552	7.29	1.30	0.750			
0.4623	29590.05	3.8180	3.8181	1.6579	7.27	1.28	0.750			
0.4674	29916.52	3.8150	3.8148	1.6951	7.25	1.26	0.750			
0.4726	30248.61	3.8120	3.8118	1.7101	7.22	1.23	0.750			
0.4777	30572.24	3.8090	3.8092	1.7398	7.20	1.21	0.750			
0.4830	30912.84	3.8060	3.8062	1.7631	7.17	1.18	0.750			
0.4883	31249.36	3.8030	3.8029	1.7831	7.14	1.15	0.750			
0.4936	31591.05	3.8000	3.7999	1.7936	7.11	1.12	0.750			
0.4991	31941.88	3.7970	3.7972	1.8437	7.09	1.10	0.750			
0.5048	32304.03	3.7940	3.7939	1.8791	7.06	1.07	0.750			
0.5104	32665.93	3.7910	3.7910	1.9083	7.03	1.04	0.750			
0.5161	33029.10	3.7880	3.7881	1.9395	6.99	1.00	0.750			
0.5220	33410.09	3.7850	3.7849	1.9793	6.96	0.97	0.750			
0.5280	33792.24	3.7820	3.7820	2.0233	6.94	0.95	0.750			
0.5341	34184.62	3.7790	3.7790	2.0496	6.90	0.91	0.750			
0.5405	34591.04	3.7760	3.7759	2.0834	6.87	0.88	0.750			
0.5467	34988.87	3.7730	3.7731	2.0855	6.84	0.85	0.750			
0.5528	35380.64	3.7700	3.7701	2.1325	6.81	0.82	0.750			
0.5593	35794.32	3.7670	3.7669	2.1856	6.78	0.79	0.750			
0.5659	36216.18	3.7640	3.7639	2.2516	6.74	0.75	0.750			
0.5728	36662.28	3.7610	3.7612	2.3458	6.71	0.72	0.750			
0.5801	37123.77	3.7580	3.7580	2.4563	6.68	0.69	0.750			
0.5873	37590.03	3.7550	3.7549	2.5913	6.64	0.65	0.750			
0.5956	38115.82	3.7520	3.7520	2.7409	6.60	0.61	0.750			
0.6040	38658.63	3.7490	3.7491	2.8990	6.56	0.57	0.750			
0.6128	39221.89	3.7460	3.7458	2.9727	6.52	0.53	0.750			
0.6220	39808.79	3.7430	3.7431	3.0475	6.48	0.49	0.750			
0.6315	40413.44	3.7400	3.7400	3.1732	6.43	0.44	0.750			
0.6409	41015.58	3.7370	3.7368	3.1453	6.38	0.39	0.750			
0.6507	41643.98	3.7340	3.7339	3.0070	6.35	0.36	0.750			
0.6595	42206.72	3.7310	3.7311	2.7604	6.32	0.33	0.750			
0.6667	42669.17	3.7280	3.7281	2.3250	6.29	0.30	0.750			
0.6730	43069.48	3.7250	3.7253	2.0122	6.27	0.28	0.750			
0.6784	43418.51	3.7220	3.7218	1.7707	6.25	0.26	0.750			
0.6834	43739.25	3.7190	3.7190	1.5937	6.23	0.24	0.750			
0.6878	44020.28	3.7160	3.7161	1.4524	6.22	0.23	0.750			
0.6919	44280.60	3.7130	3.7129	1.3339	6.20	0.21	0.750			
0.6956	44517.51	3.7100	3.7100	1.2406	6.19	0.20	0.750			
0.6992	44746.64	3.7070	3.7069	1.1869	6.18	0.19	0.750			
0.7025	44961.82	3.7040	3.7041	1.1396	6.17	0.18	0.750			
0.7059	45176.06	3.7010	3.7009	1.1154	6.16	0.17	0.750			
0.7092	45386.02	3.6980	3.6981	1.0976	6.14	0.15	0.750			
0.7125	45596.90	3.6950	3.6949	1.0821	6.13	0.14	0.750			
0.7157	45804.84	3.6920	3.6920	1.0631	6.12	0.13	0.750			
0.7189	46008.15	3.6890	3.6890	1.0301	6.11	0.12	0.750			
0.7220	46205.05	3.6860	3.6861	1.0105	6.10	0.11	0.750			
0.7249	46396.15	3.6830	3.6829	0.9807	6.09	0.10	0.750			
0.7278	46576.17	3.6800	3.6802	0.9590	6.08	0.09	0.750			
0.7306	46757.43	3.6770	3.6770	0.9473	6.07	0.08	0.750			
0.7334	46937.61	3.6740	3.6739	0.9330	6.06	0.07	0.750			
0.7362	47114.99	3.6710	3.6710	0.9268	6.05	0.06	0.750			
0.7389	47292.45	3.6680	3.6681	0.9269	6.05	0.06	0.750			
0.7417	47467.27	3.6650	3.6647	0.9216	6.04	0.05	0.750			
0.7445	47645.40	3.6620	3.6620	0.9202	6.03	0.04	0.750			
0.7472	47819.10	3.6590	3.6591	0.9283	6.03	0.04	0.750			
0.7500	47997.06	3.6560	3.6561	0.9427	6.02	0.03	0.750			
0.7528	48180.55	3.6530	3.6530	0.9454	6.01	0.02	0.750			
0.7557	48365.52	3.6500	3.6499	0.9503	6.01	0.02	0.750			
0.7587	48554.26	3.6470	3.6471	0.9303	6.00	0.01	0.750			
0.7615	48736.28	3.6440	3.6440	0.8971	6.00	0.01	0.750			
0.7643	48913.41	3.6410	3.6410	0.8448	5.99	0.00	0.750			
0.7667	49069.46	3.6380	3.6378	0.7583	5.99	0.00	0.750			
0.7689	49211.12	3.6350	3.6350	0.6619	5.99	-0.00	0.750			
0.7708	49330.13	3.6320	3.6321	0.5597	5.98	-0.01	0.750			
0.7720	49411.19	3.6290	3.6297	0.4754	5.98	-0.01	0.750			
0.7733	49493.96	3.6260	3.6263	0.3879	5.98	-0.01	0.750			
0.7743	49555.49	3.6230	3.6228	0.2968	5.98	-0.01	0.750			
0.7750	49600.30	3.6200	3.6194	0.2248	5.98	-0.01	0.750			
0.7755	49629.48	3.6170	3.6152	0.1606	5.98	-0.01	0.750			
0.7757	49643.88	3.5960	3.6015	-0.1293	5.98	-0.01	0.750			
0.7759	49654.64	3.6140	3.4737	0.1161	5.98	-0.01	0.741			
0.7760	49664.81	3.5990	3.3360	-0.0888	5.98	-0.01	0.729			
0.7761	49670.79	3.6110	3.2552	0.0732	5.98	-0.01	0.722			
0.7762	49677.97	3.6020	3.1580	-0.0483	5.97	-0.02	0.714			
0.7763	49680.96	3.6080	3.1176	0.0327	5.97	-0.02	0.710			
0.7763	49683.35	3.6050	3.0851	-0.0078	5.97	-0.02	0.707			
