Ah_balance (normalized)	Ah_balance (mAh)	Voltage - fit (V)	Voltage -  interpolate (V)	dQ/dV (1/V)	Temperature (°C)	Temperature - diff (°C)	Current (C)	R_DC 0ms (mOhm)	R_DC 50ms (mOhm)	R_DC 50 ms PEC (mOhm)
0.0000	0.00	4.0940	4.1295	0.0000	5.98	-0.01	-0.749			
0.0000	0.00	4.0970	4.1295	0.0000	5.98	-0.01	-0.749			
0.0002	13.03	4.0910	4.0909	-0.0501	5.98	-0.01	-0.750			
0.0004	25.77	4.0880	4.0875	-0.0778	5.98	-0.01	-0.750			
0.0007	43.35	4.0850	4.0849	-0.1054	5.98	-0.01	-0.750			
0.0010	66.98	4.0820	4.0818	-0.1292	5.98	-0.01	-0.750			
0.0015	94.26	4.0790	4.0790	-0.1554	5.98	-0.01	-0.750			
0.0020	126.75	4.0760	4.0761	-0.1784	5.98	-0.01	-0.750			
0.0026	164.91	4.0730	4.0730	-0.2038	5.99	-0.00	-0.750			
0.0032	206.14	4.0700	4.0698	-0.2260	5.99	-0.00	-0.750			
0.0039	251.93	4.0670	4.0672	-0.2469	5.99	-0.00	-0.750			
0.0047	301.22	4.0640	4.0640	-0.2685	5.99	-0.00	-0.750			
0.0055	354.10	4.0610	4.0611	-0.2962	5.99	-0.00	-0.750			
0.0065	413.33	4.0580	4.0579	-0.3199	5.99	-0.00	-0.750			
0.0075	477.46	4.0550	4.0549	-0.3405	5.99	-0.00	-0.750			
0.0085	546.01	4.0520	4.0521	-0.3639	5.99	0.00	-0.750			
0.0097	618.70	4.0490	4.0491	-0.3858	5.99	0.00	-0.750			
0.0108	694.28	4.0460	4.0461	-0.4089	5.99	0.00	-0.750			
0.0121	773.16	4.0430	4.0430	-0.4306	5.99	0.00	-0.750			
0.0134	857.18	4.0400	4.0399	-0.4524	5.99	0.00	-0.750			
0.0148	947.64	4.0370	4.0370	-0.4764	6.00	0.01	-0.750			
0.0163	1042.94	4.0340	4.0340	-0.5031	6.00	0.01	-0.750			
0.0178	1142.10	4.0310	4.0310	-0.5188	6.00	0.01	-0.750			
0.0194	1244.43	4.0280	4.0280	-0.5385	6.00	0.01	-0.750			
0.0211	1349.36	4.0250	4.0252	-0.5508	6.00	0.01	-0.750			
0.0228	1456.36	4.0220	4.0220	-0.5634	6.00	0.01	-0.750			
0.0245	1566.24	4.0190	4.0190	-0.5776	6.01	0.02	-0.750			
0.0262	1677.14	4.0160	4.0160	-0.5923	6.01	0.02	-0.750			
0.0280	1792.58	4.0130	4.0130	-0.6075	6.02	0.03	-0.750			
0.0299	1911.65	4.0100	4.0099	-0.6168	6.02	0.03	-0.750			
0.0317	2030.93	4.0070	4.0070	-0.6278	6.03	0.04	-0.750			
0.0336	2153.12	4.0040	4.0041	-0.6399	6.03	0.04	-0.750			
0.0356	2276.29	4.0010	4.0009	-0.6508	6.04	0.05	-0.750			
0.0375	2402.64	3.9980	3.9980	-0.6581	6.04	0.05	-0.750			
0.0395	2529.70	3.9950	3.9950	-0.6662	6.05	0.06	-0.750			
0.0416	2660.45	3.9920	3.9920	-0.6795	6.06	0.07	-0.750			
0.0436	2792.41	3.9890	3.9890	-0.6809	6.06	0.07	-0.750			
0.0457	2922.51	3.9860	3.9860	-0.6829	6.07	0.08	-0.750			
0.0477	3053.39	3.9830	3.9830	-0.6892	6.08	0.09	-0.750			
0.0498	3184.04	3.9800	3.9798	-0.6944	6.08	0.09	-0.750			
0.0519	3320.27	3.9770	3.9770	-0.6969	6.09	0.10	-0.750			
0.0540	3454.12	3.9740	3.9741	-0.6994	6.10	0.11	-0.750			
0.0561	3590.76	3.9710	3.9711	-0.7035	6.10	0.11	-0.750			
0.0582	3726.39	3.9680	3.9680	-0.7095	6.11	0.12	-0.750			
0.0603	3860.49	3.9650	3.9649	-0.7084	6.12	0.13	-0.750			
0.0624	3996.05	3.9620	3.9619	-0.7139	6.13	0.14	-0.750			
0.0646	4132.11	3.9590	3.9591	-0.7238	6.13	0.14	-0.750			
0.0668	4274.75	3.9560	3.9560	-0.7320	6.14	0.15	-0.750			
0.0690	4416.79	3.9530	3.9529	-0.7372	6.15	0.16	-0.750			
0.0712	4559.44	3.9500	3.9500	-0.7398	6.16	0.17	-0.750			
0.0735	4700.83	3.9470	3.9471	-0.7413	6.17	0.18	-0.750			
0.0757	4844.03	3.9440	3.9439	-0.7475	6.18	0.19	-0.750			
0.0779	4987.17	3.9410	3.9410	-0.7454	6.19	0.20	-0.750			
0.0802	5130.11	3.9380	3.9380	-0.7425	6.20	0.21	-0.750			
0.0824	5274.13	3.9350	3.9351	-0.7428	6.21	0.22	-0.750			
0.0846	5416.14	3.9320	3.9320	-0.7445	6.22	0.23	-0.750			
0.0869	5558.76	3.9290	3.9290	-0.7414	6.23	0.24	-0.750			
0.0890	5698.83	3.9260	3.9259	-0.7414	6.24	0.25	-0.750			
0.0913	5841.67	3.9230	3.9231	-0.7441	6.25	0.26	-0.750			
0.0935	5985.90	3.9200	3.9198	-0.7477	6.26	0.27	-0.750			
0.0958	6130.15	3.9170	3.9171	-0.7543	6.27	0.28	-0.750			
0.0981	6275.32	3.9140	3.9140	-0.7571	6.28	0.29	-0.750			
0.1003	6420.73	3.9110	3.9109	-0.7540	6.29	0.30	-0.750			
0.1026	6565.91	3.9080	3.9080	-0.7671	6.30	0.31	-0.750			
0.1049	6712.76	3.9050	3.9051	-0.7657	6.31	0.32	-0.750			
0.1072	6862.24	3.9020	3.9018	-0.7720	6.31	0.32	-0.750			
0.1095	7010.94	3.8990	3.8991	-0.7705	6.32	0.33	-0.750			
0.1118	7157.44	3.8960	3.8961	-0.7710	6.33	0.34	-0.750			
0.1142	7306.79	3.8930	3.8930	-0.7697	6.34	0.35	-0.750			
0.1165	7453.10	3.8900	3.8900	-0.7647	6.35	0.36	-0.750			
0.1188	7600.03	3.8870	3.8870	-0.7684	6.36	0.37	-0.750			
0.1211	7748.45	3.8840	3.8844	-0.7754	6.37	0.38	-0.750			
0.1234	7896.68	3.8810	3.8809	-0.7753	6.38	0.39	-0.750			
0.1257	8047.94	3.8780	3.8780	-0.7791	6.39	0.40	-0.750			
0.1281	8197.84	3.8750	3.8750	-0.7774	6.40	0.41	-0.750			
0.1305	8349.81	3.8720	3.8720	-0.7750	6.42	0.43	-0.750			
0.1328	8496.54	3.8690	3.8689	-0.7693	6.43	0.44	-0.750			
0.1350	8641.79	3.8660	3.8660	-0.7660	6.44	0.45	-0.750			
0.1373	8786.46	3.8630	3.8630	-0.7706	6.45	0.46	-0.750			
0.1396	8933.75	3.8600	3.8599	-0.7764	6.45	0.46	-0.750			
0.1419	9084.14	3.8570	3.8570	-0.7819	6.46	0.47	-0.750			
0.1443	9237.14	3.8540	3.8539	-0.7916	6.47	0.48	-0.750			
0.1467	9390.41	3.8510	3.8512	-0.7990	6.48	0.49	-0.750			
0.1491	9543.55	3.8480	3.8480	-0.7988	6.49	0.50	-0.750			
0.1515	9699.01	3.8450	3.8449	-0.7963	6.51	0.52	-0.750			
0.1539	9849.74	3.8420	3.8421	-0.7913	6.52	0.53	-0.750			
0.1563	10002.28	3.8390	3.8390	-0.7930	6.53	0.54	-0.750			
0.1587	10155.77	3.8360	3.8362	-0.7942	6.54	0.55	-0.750			
0.1610	10306.33	3.8330	3.8329	-0.7921	6.55	0.56	-0.750			
0.1634	10457.53	3.8300	3.8301	-0.7963	6.56	0.57	-0.750			
0.1658	10613.12	3.8270	3.8269	-0.7980	6.57	0.58	-0.750			
0.1682	10767.88	3.8240	3.8239	-0.8008	6.58	0.59	-0.750			
0.1706	10919.48	3.8210	3.8212	-0.8019	6.59	0.60	-0.750			
0.1730	11073.99	3.8180	3.8179	-0.8006	6.60	0.61	-0.750			
0.1754	11228.04	3.8150	3.8149	-0.8021	6.61	0.62	-0.750			
0.1778	11380.34	3.8120	3.8120	-0.8001	6.62	0.63	-0.750			
0.1802	11535.34	3.8090	3.8090	-0.7968	6.63	0.64	-0.750			
0.1827	11692.15	3.8060	3.8060	-0.7979	6.65	0.66	-0.750			
0.1850	11842.86	3.8030	3.8029	-0.7949	6.66	0.67	-0.750			
0.1874	11993.20	3.8000	3.8001	-0.7898	6.67	0.68	-0.750			
0.1898	12144.79	3.7970	3.7969	-0.7966	6.67	0.68	-0.750			
0.1921	12294.93	3.7940	3.7941	-0.8001	6.68	0.69	-0.750			
0.1945	12450.61	3.7910	3.7910	-0.8070	6.69	0.70	-0.750			
0.1970	12608.37	3.7880	3.7880	-0.8137	6.70	0.71	-0.750			
0.1995	12766.42	3.7850	3.7850	-0.8187	6.72	0.73	-0.750			
0.2019	12923.26	3.7820	3.7820	-0.8178	6.73	0.74	-0.750			
0.2044	13082.40	3.7790	3.7790	-0.8145	6.74	0.75	-0.750			
0.2068	13237.49	3.7760	3.7760	-0.8101	6.75	0.76	-0.750			
0.2092	13390.37	3.7730	3.7731	-0.8121	6.76	0.77	-0.750			
0.2117	13547.26	3.7700	3.7699	-0.8148	6.77	0.78	-0.750			
0.2141	13703.36	3.7670	3.7670	-0.8188	6.78	0.79	-0.750			
0.2166	13860.64	3.7640	3.7641	-0.8218	6.79	0.80	-0.750			
0.2191	14020.11	3.7610	3.7610	-0.8267	6.80	0.81	-0.750			
0.2216	14179.70	3.7580	3.7580	-0.8315	6.81	0.82	-0.750			
0.2240	14338.34	3.7550	3.7551	-0.8324	6.82	0.83	-0.750			
0.2265	14497.70	3.7520	3.7520	-0.8367	6.83	0.84	-0.750			
0.2291	14659.83	3.7490	3.7489	-0.8429	6.84	0.85	-0.750			
0.2316	14821.21	3.7460	3.7460	-0.8445	6.85	0.86	-0.750			
0.2341	14985.34	3.7430	3.7430	-0.8426	6.86	0.87	-0.750			
0.2367	15148.54	3.7400	3.7400	-0.8443	6.87	0.88	-0.750			
0.2392	15310.50	3.7370	3.7370	-0.8438	6.88	0.89	-0.750			
0.2418	15472.31	3.7340	3.7339	-0.8404	6.89	0.90	-0.750			
0.2442	15631.68	3.7310	3.7309	-0.8415	6.90	0.91	-0.750			
0.2468	15792.72	3.7280	3.7281	-0.8471	6.91	0.92	-0.750			
0.2493	15955.18	3.7250	3.7250	-0.8541	6.92	0.93	-0.750			
0.2519	16120.21	3.7220	3.7220	-0.8617	6.93	0.94	-0.750			
0.2544	16284.56	3.7190	3.7190	-0.8673	6.94	0.95	-0.750			
0.2571	16455.34	3.7160	3.7159	-0.8747	6.95	0.96	-0.750			
0.2597	16623.36	3.7130	3.7129	-0.8833	6.95	0.96	-0.750			
0.2624	16792.68	3.7100	3.7101	-0.8864	6.97	0.98	-0.750			
0.2651	16963.56	3.7070	3.7070	-0.8906	6.98	0.99	-0.750			
0.2677	17135.53	3.7040	3.7039	-0.8942	6.99	1.00	-0.750			
0.2705	17309.56	3.7010	3.7010	-0.8990	7.00	1.01	-0.750			
0.2731	17480.19	3.6980	3.6980	-0.9055	7.01	1.02	-0.750			
0.2759	17656.41	3.6950	3.6951	-0.9058	7.02	1.03	-0.750			
0.2786	17829.10	3.6920	3.6919	-0.9034	7.02	1.03	-0.750			
0.2813	18004.08	3.6890	3.6889	-0.9056	7.03	1.04	-0.750			
0.2840	18178.12	3.6860	3.6861	-0.9111	7.04	1.05	-0.750			
0.2867	18351.61	3.6830	3.6830	-0.9225	7.05	1.06	-0.750			
0.2895	18530.28	3.6800	3.6799	-0.9307	7.06	1.07	-0.750			
0.2923	18709.45	3.6770	3.6771	-0.9359	7.07	1.08	-0.750			
0.2952	18891.94	3.6740	3.6740	-0.9485	7.08	1.09	-0.750			
0.2980	19072.84	3.6710	3.6710	-0.9561	7.09	1.10	-0.750			
0.3009	19260.24	3.6680	3.6679	-0.9577	7.10	1.11	-0.750			
0.3038	19442.57	3.6650	3.6650	-0.9588	7.10	1.11	-0.750			
0.3067	19626.05	3.6620	3.6618	-0.9614	7.11	1.12	-0.750			
0.3096	19813.95	3.6590	3.6592	-0.9709	7.12	1.13	-0.750			
0.3125	19999.18	3.6560	3.6558	-0.9817	7.13	1.14	-0.750			
0.3154	20188.21	3.6530	3.6530	-0.9823	7.14	1.15	-0.750			
0.3184	20375.00	3.6500	3.6500	-0.9834	7.14	1.15	-0.750			
0.3213	20565.63	3.6470	3.6471	-1.0109	7.15	1.16	-0.750			
0.3244	20760.07	3.6440	3.6440	-1.0213	7.16	1.17	-0.750			
0.3275	20960.86	3.6410	3.6408	-1.0249	7.17	1.18	-0.750			
0.3306	21161.46	3.6380	3.6378	-1.0254	7.18	1.19	-0.750			
0.3337	21356.11	3.6350	3.6354	-1.0311	7.19	1.20	-0.750			
0.3368	21554.68	3.6320	3.6321	-1.0469	7.20	1.21	-0.750			
0.3399	21751.37	3.6290	3.6288	-1.0584	7.21	1.22	-0.750			
0.3431	21955.89	3.6260	3.6257	-1.0684	7.21	1.22	-0.750			
0.3463	22163.85	3.6230	3.6232	-1.0833	7.22	1.23	-0.750			
0.3497	22378.32	3.6200	3.6201	-1.0858	7.23	1.24	-0.750			
0.3530	22590.36	3.6170	3.6171	-1.0962	7.24	1.25	-0.750			
0.3562	22798.58	3.6140	3.6139	-1.0883	7.24	1.25	-0.750			
0.3594	23000.07	3.6110	3.6110	-1.0889	7.25	1.26	-0.750			
0.3627	23213.56	3.6080	3.6079	-1.0826	7.26	1.27	-0.750			
0.3660	23422.87	3.6050	3.6051	-1.0980	7.27	1.28	-0.750			
0.3692	23629.43	3.6020	3.6021	-1.1194	7.28	1.29	-0.750			
0.3726	23844.96	3.5990	3.5989	-1.1556	7.29	1.30	-0.750			
0.3761	24068.52	3.5960	3.5957	-1.1727	7.30	1.31	-0.750			
0.3797	24301.12	3.5930	3.5928	-1.1767	7.30	1.31	-0.750			
0.3833	24531.89	3.5900	3.5903	-1.1819	7.31	1.32	-0.750	0.410	0.856	
0.3869	24762.65	3.5870	3.5870	-1.1870	7.32	1.33	-0.750			
0.3904	24986.09	3.5840	3.5839	-1.1701	7.33	1.34	-0.750			
0.3938	25206.13	3.5810	3.5809	-1.1665	7.33	1.34	-0.750			
0.3973	25426.03	3.5780	3.5781	-1.1731	7.34	1.35	-0.750			
0.4009	25654.72	3.5750	3.5750	-1.1864	7.35	1.36	-0.750			
0.4044	25882.56	3.5720	3.5719	-1.2013	7.35	1.36	-0.750			
0.4080	26112.28	3.5690	3.5691	-1.2148	7.36	1.37	-0.750			
0.4117	26349.51	3.5660	3.5659	-1.2242	7.37	1.38	-0.750			
0.4154	26586.01	3.5630	3.5630	-1.2356	7.38	1.39	-0.750			
0.4191	26824.13	3.5600	3.5600	-1.2482	7.39	1.40	-0.750			
0.4229	27063.39	3.5570	3.5570	-1.2522	7.39	1.40	-0.750			
0.4267	27306.18	3.5540	3.5540	-1.2699	7.40	1.41	-0.750			
0.4305	27549.52	3.5510	3.5510	-1.2794	7.41	1.42	-0.750			
0.4343	27796.87	3.5480	3.5481	-1.2974	7.41	1.42	-0.750			
0.4383	28051.23	3.5450	3.5450	-1.3086	7.42	1.43	-0.750			
0.4422	28303.35	3.5420	3.5419	-1.3157	7.43	1.44	-0.750			
0.4462	28556.89	3.5390	3.5392	-1.3289	7.44	1.45	-0.750			
0.4502	28813.33	3.5360	3.5359	-1.3405	7.45	1.46	-0.750			
0.4542	29070.43	3.5330	3.5329	-1.3443	7.46	1.47	-0.750			
0.4583	29332.45	3.5300	3.5301	-1.3446	7.47	1.48	-0.750			
0.4624	29596.48	3.5270	3.5269	-1.3413	7.48	1.49	-0.750			
0.4665	29853.38	3.5240	3.5241	-1.3201	7.48	1.49	-0.750			
0.4703	30099.44	3.5210	3.5212	-1.3185	7.49	1.50	-0.750			
0.4742	30349.04	3.5180	3.5179	-1.3176	7.50	1.51	-0.750			
0.4781	30599.14	3.5150	3.5148	-1.3178	7.51	1.52	-0.750			
0.4820	30850.89	3.5120	3.5120	-1.3387	7.52	1.53	-0.750			
0.4861	31112.17	3.5090	3.5091	-1.3477	7.53	1.54	-0.750			
0.4903	31379.98	3.5060	3.5060	-1.3589	7.54	1.55	-0.750			
0.4944	31639.24	3.5030	3.5030	-1.3643	7.55	1.56	-0.750			
0.4984	31899.78	3.5000	3.4999	-1.3406	7.55	1.56	-0.750			
0.5025	32161.64	3.4970	3.4969	-1.3323	7.56	1.57	-0.750			
0.5065	32413.50	3.4940	3.4939	-1.3285	7.57	1.58	-0.750			
0.5104	32666.06	3.4910	3.4910	-1.3125	7.58	1.59	-0.750			
0.5144	32918.92	3.4880	3.4878	-1.3098	7.59	1.60	-0.750			
0.5183	33168.41	3.4850	3.4849	-1.2971	7.60	1.61	-0.750			
0.5221	33413.02	3.4820	3.4822	-1.2901	7.61	1.62	-0.750			
0.5260	33666.18	3.4790	3.4789	-1.2952	7.62	1.63	-0.750			
0.5299	33912.66	3.4760	3.4760	-1.2956	7.63	1.64	-0.750			
0.5337	34156.26	3.4730	3.4732	-1.2970	7.64	1.65	-0.750			
0.5377	34410.32	3.4700	3.4698	-1.3084	7.65	1.66	-0.750			
0.5416	34665.13	3.4670	3.4669	-1.2995	7.67	1.68	-0.750			
0.5456	34915.42	3.4640	3.4643	-1.2935	7.68	1.69	-0.750			
0.5495	35165.94	3.4610	3.4610	-1.2790	7.69	1.70	-0.750			
0.5533	35409.72	3.4580	3.4578	-1.2536	7.70	1.71	-0.750			
0.5569	35639.24	3.4550	3.4551	-1.2429	7.71	1.72	-0.750			
0.5606	35876.63	3.4520	3.4519	-1.2424	7.73	1.74	-0.750			
0.5644	36118.66	3.4490	3.4489	-1.2394	7.74	1.75	-0.750			
0.5681	36357.92	3.4460	3.4461	-1.2301	7.75	1.76	-0.750			
0.5718	36594.66	3.4430	3.4431	-1.2208	7.76	1.77	-0.750			
0.5755	36829.85	3.4400	3.4399	-1.2139	7.78	1.79	-0.750			
0.5791	37061.08	3.4370	3.4369	-1.1996	7.79	1.80	-0.750			
0.5826	37287.02	3.4340	3.4341	-1.1809	7.81	1.82	-0.750			
0.5862	37514.84	3.4310	3.4309	-1.1741	7.82	1.83	-0.750			
0.5897	37740.80	3.4280	3.4281	-1.1568	7.83	1.84	-0.750			
0.5931	37961.44	3.4250	3.4249	-1.1433	7.85	1.86	-0.750			
0.5965	38177.34	3.4220	3.4221	-1.1278	7.86	1.87	-0.750			
0.5999	38392.83	3.4190	3.4190	-1.1079	7.88	1.89	-0.750			
0.6032	38604.74	3.4160	3.4160	-1.0925	7.89	1.90	-0.750			
0.6065	38813.30	3.4130	3.4130	-1.0817	7.90	1.91	-0.750			
0.6097	39020.47	3.4100	3.4100	-1.0660	7.92	1.93	-0.750			
0.6129	39224.65	3.4070	3.4069	-1.0499	7.93	1.94	-0.750			
0.6160	39424.03	3.4040	3.4040	-1.0270	7.95	1.96	-0.750			
0.6191	39620.30	3.4010	3.4010	-1.0044	7.96	1.97	-0.750			
0.6221	39812.58	3.3980	3.3980	-0.9839	7.97	1.98	-0.750			
0.6250	39997.50	3.3950	3.3950	-0.9609	7.99	2.00	-0.750			
0.6278	40178.08	3.3920	3.3920	-0.9377	8.00	2.01	-0.750			
0.6306	40357.10	3.3890	3.3890	-0.9221	8.01	2.02	-0.750			
0.6333	40532.04	3.3860	3.3861	-0.9027	8.02	2.03	-0.750			
0.6360	40704.33	3.3830	3.3830	-0.8894	8.04	2.05	-0.750			
0.6386	40873.57	3.3800	3.3801	-0.8735	8.05	2.06	-0.750			
0.6412	41038.15	3.3770	3.3769	-0.8569	8.07	2.08	-0.750			
0.6438	41201.09	3.3740	3.3740	-0.8409	8.09	2.10	-0.750			
0.6463	41362.89	3.3710	3.3711	-0.8207	8.10	2.11	-0.750			
0.6487	41519.12	3.3680	3.3680	-0.7983	8.12	2.13	-0.750			
0.6511	41671.42	3.3650	3.3651	-0.7794	8.13	2.14	-0.750			
0.6534	41818.22	3.3620	3.3620	-0.7557	8.15	2.16	-0.750			
0.6556	41959.40	3.3590	3.3590	-0.7346	8.16	2.17	-0.750			
0.6578	42098.45	3.3560	3.3559	-0.7147	8.18	2.19	-0.750			
0.6599	42233.50	3.3530	3.3530	-0.6979	8.19	2.20	-0.750			
0.6620	42366.02	3.3500	3.3500	-0.6841	8.20	2.21	-0.750			
0.6640	42495.28	3.3470	3.3471	-0.6699	8.22	2.23	-0.750			
0.6660	42622.19	3.3440	3.3439	-0.6590	8.23	2.24	-0.750			
0.6679	42747.63	3.3410	3.3409	-0.6482	8.24	2.25	-0.750			
0.6699	42871.83	3.3380	3.3380	-0.6361	8.25	2.26	-0.750			
0.6718	42994.15	3.3350	3.3350	-0.6249	8.27	2.28	-0.750			
0.6736	43112.13	3.3320	3.3320	-0.6096	8.28	2.29	-0.750			
0.6754	43227.49	3.3290	3.3291	-0.5949	8.29	2.30	-0.750			
0.6772	43339.17	3.3260	3.3259	-0.5766	8.30	2.31	-0.750			
0.6789	43449.15	3.3230	3.3230	-0.5644	8.32	2.33	-0.750			
0.6806	43555.84	3.3200	3.3201	-0.5484	8.33	2.34	-0.750			
0.6822	43659.31	3.3170	3.3170	-0.5362	8.34	2.35	-0.750			
0.6838	43761.06	3.3140	3.3140	-0.5258	8.35	2.36	-0.750			
0.6853	43860.25	3.3110	3.3109	-0.5152	8.36	2.37	-0.750			
0.6868	43958.12	3.3080	3.3080	-0.5046	8.38	2.39	-0.750			
0.6884	44054.54	3.3050	3.3051	-0.4973	8.39	2.40	-0.750			
0.6898	44148.85	3.3020	3.3020	-0.4909	8.40	2.41	-0.750			
0.6913	44243.20	3.2990	3.2990	-0.4848	8.41	2.42	-0.750			
0.6927	44334.82	3.2960	3.2959	-0.4749	8.42	2.43	-0.750			
0.6942	44426.07	3.2930	3.2930	-0.4659	8.44	2.45	-0.750			
0.6956	44515.41	3.2900	3.2901	-0.4574	8.45	2.46	-0.750			
0.6969	44602.30	3.2870	3.2868	-0.4484	8.46	2.47	-0.750			
0.6982	44686.89	3.2840	3.2840	-0.4360	8.47	2.48	-0.750			
0.6995	44768.98	3.2810	3.2809	-0.4258	8.48	2.49	-0.750			
0.7008	44848.92	3.2780	3.2781	-0.4183	8.50	2.51	-0.750			
0.7020	44929.40	3.2750	3.2750	-0.4113	8.51	2.52	-0.750			
0.7032	45007.66	3.2720	3.2720	-0.4061	8.52	2.53	-0.750			
0.7045	45085.06	3.2690	3.2689	-0.4000	8.53	2.54	-0.750			
0.7057	45162.19	3.2660	3.2659	-0.3900	8.54	2.55	-0.750			
0.7068	45237.00	3.2630	3.2630	-0.3826	8.56	2.57	-0.750			
0.7079	45308.74	3.2600	3.2600	-0.3766	8.56	2.57	-0.750			
0.7091	45379.46	3.2570	3.2569	-0.3687	8.57	2.58	-0.750			
0.7101	45449.44	3.2540	3.2539	-0.3658	8.58	2.59	-0.750			
0.7112	45518.35	3.2510	3.2511	-0.3592	8.59	2.60	-0.750			
0.7123	45588.20	3.2480	3.2480	-0.3578	8.60	2.61	-0.750			
0.7134	45657.05	3.2450	3.2450	-0.3569	8.61	2.62	-0.750			
0.7145	45725.04	3.2420	3.2420	-0.3500	8.62	2.63	-0.750			
0.7155	45791.56	3.2390	3.2389	-0.3437	8.64	2.65	-0.750			
0.7165	45857.60	3.2360	3.2361	-0.3400	8.65	2.66	-0.750			
0.7175	45922.39	3.2330	3.2330	-0.3341	8.66	2.67	-0.750			
0.7185	45986.72	3.2300	3.2300	-0.3288	8.67	2.68	-0.750			
0.7195	46048.42	3.2270	3.2270	-0.3213	8.68	2.69	-0.750			
0.7204	46108.69	3.2240	3.2240	-0.3152	8.69	2.70	-0.750			
0.7214	46169.38	3.2210	3.2210	-0.3121	8.69	2.70	-0.750			
0.7223	46228.59	3.2180	3.2180	-0.3070	8.71	2.72	-0.750			
0.7232	46286.60	3.2150	3.2151	-0.3026	8.72	2.73	-0.750			
0.7241	46344.67	3.2120	3.2120	-0.2999	8.73	2.74	-0.750			
0.7250	46401.78	3.2090	3.2090	-0.2977	8.74	2.75	-0.750			
0.7259	46458.47	3.2060	3.2060	-0.2934	8.75	2.76	-0.750			
0.7268	46514.60	3.2030	3.2030	-0.2906	8.76	2.77	-0.750			
0.7277	46570.39	3.2000	3.2000	-0.2881	8.77	2.78	-0.750			
0.7285	46625.45	3.1970	3.1970	-0.2843	8.78	2.79	-0.750			
0.7294	46679.71	3.1940	3.1940	-0.2795	8.79	2.80	-0.750			
0.7302	46733.06	3.1910	3.1910	-0.2755	8.80	2.81	-0.750			
0.7310	46785.14	3.1880	3.1880	-0.2712	8.80	2.81	-0.750			
0.7318	46837.07	3.1850	3.1850	-0.2689	8.81	2.82	-0.750			
0.7326	46887.95	3.1820	3.1820	-0.2653	8.82	2.83	-0.750			
0.7334	46938.57	3.1790	3.1790	-0.2626	8.83	2.84	-0.750			
0.7342	46988.94	3.1760	3.1761	-0.2607	8.84	2.85	-0.750			
0.7350	47039.05	3.1730	3.1729	-0.2578	8.85	2.86	-0.750			
0.7358	47088.13	3.1700	3.1700	-0.2543	8.86	2.87	-0.750			
0.7365	47136.47	3.1670	3.1670	-0.2514	8.87	2.88	-0.750			
0.7373	47184.48	3.1640	3.1640	-0.2485	8.88	2.89	-0.750			
0.7380	47231.65	3.1610	3.1609	-0.2459	8.89	2.90	-0.750			
0.7387	47278.32	3.1580	3.1580	-0.2441	8.90	2.91	-0.750			
0.7394	47324.57	3.1550	3.1551	-0.2433	8.91	2.92	-0.750			
0.7402	47371.96	3.1520	3.1520	-0.2408	8.92	2.93	-0.750			
0.7409	47418.57	3.1490	3.1489	-0.2387	8.93	2.94	-0.750			
0.7416	47464.03	3.1460	3.1461	-0.2369	8.93	2.94	-0.750			
0.7423	47509.50	3.1430	3.1431	-0.2340	8.94	2.95	-0.750			
0.7430	47554.11	3.1400	3.1399	-0.2307	8.95	2.96	-0.750			
0.7437	47597.90	3.1370	3.1369	-0.2296	8.96	2.97	-0.750			
0.7444	47641.51	3.1340	3.1342	-0.2264	8.97	2.98	-0.750			
0.7451	47684.43	3.1310	3.1310	-0.2250	8.98	2.99	-0.750			
0.7458	47728.26	3.1280	3.1280	-0.2237	8.99	3.00	-0.750			
0.7464	47771.04	3.1250	3.1250	-0.2209	9.00	3.01	-0.750			
0.7471	47812.97	3.1220	3.1221	-0.2178	9.01	3.02	-0.750			
0.7477	47854.76	3.1190	3.1190	-0.2176	9.01	3.02	-0.750			
0.7484	47895.89	3.1160	3.1160	-0.2143	9.02	3.03	-0.750			
0.7490	47937.20	3.1130	3.1128	-0.2137	9.03	3.04	-0.750			
0.7497	47977.70	3.1100	3.1101	-0.2113	9.04	3.05	-0.750			
0.7503	48018.41	3.1070	3.1071	-0.2086	9.05	3.06	-0.750			
0.7509	48058.51	3.1040	3.1040	-0.2076	9.06	3.07	-0.750			
0.7515	48097.96	3.1010	3.1011	-0.2065	9.07	3.08	-0.750			
0.7521	48137.42	3.0980	3.0980	-0.2052	9.08	3.09	-0.750			
0.7528	48176.22	3.0950	3.0949	-0.2035	9.09	3.10	-0.750			
0.7534	48215.35	3.0920	3.0920	-0.2032	9.09	3.10	-0.750			
0.7540	48254.54	3.0890	3.0891	-0.2010	9.10	3.11	-0.750			
0.7546	48292.96	3.0860	3.0860	-0.1992	9.11	3.12	-0.750			
0.7552	48331.34	3.0830	3.0831	-0.1984	9.12	3.13	-0.750			
0.7558	48368.95	3.0800	3.0800	-0.1960	9.13	3.14	-0.750			
0.7563	48405.83	3.0770	3.0769	-0.1959	9.14	3.15	-0.750			
0.7569	48443.58	3.0740	3.0739	-0.1947	9.15	3.16	-0.750			
0.7575	48481.16	3.0710	3.0710	-0.1936	9.16	3.17	-0.750			
0.7581	48518.24	3.0680	3.0679	-0.1927	9.16	3.17	-0.750			
0.7587	48555.87	3.0650	3.0652	-0.1910	9.17	3.18	-0.750			
0.7593	48592.52	3.0620	3.0620	-0.1887	9.18	3.19	-0.750			
0.7598	48627.76	3.0590	3.0590	-0.1866	9.19	3.20	-0.750			
0.7604	48663.43	3.0560	3.0561	-0.1850	9.20	3.21	-0.750			
0.7609	48698.17	3.0530	3.0530	-0.1833	9.21	3.22	-0.750			
0.7615	48733.46	3.0500	3.0499	-0.1825	9.22	3.23	-0.750			
0.7620	48768.39	3.0470	3.0470	-0.1819	9.23	3.24	-0.750			
0.7626	48803.23	3.0440	3.0441	-0.1818	9.24	3.25	-0.750			
0.7631	48838.50	3.0410	3.0410	-0.1807	9.25	3.26	-0.750			
0.7636	48873.05	3.0380	3.0379	-0.1804	9.26	3.27	-0.750			
0.7642	48907.69	3.0350	3.0350	-0.1786	9.27	3.28	-0.750			
0.7647	48941.57	3.0320	3.0321	-0.1770	9.28	3.29	-0.750			
0.7652	48975.70	3.0290	3.0288	-0.1757	9.29	3.30	-0.750			
0.7658	49009.11	3.0260	3.0261	-0.1753	9.30	3.31	-0.750			
0.7663	49042.67	3.0230	3.0230	-0.1734	9.31	3.32	-0.750			
0.7668	49076.08	3.0200	3.0198	-0.1727	9.32	3.33	-0.750			
0.7673	49108.91	3.0170	3.0170	-0.1727	9.33	3.34	-0.750			
0.7678	49141.62	3.0140	3.0141	-0.1720	9.34	3.35	-0.750			
0.7684	49174.92	3.0110	3.0109	-0.1725	9.35	3.36	-0.750			
0.7689	49208.01	3.0080	3.0079	-0.1722	9.36	3.37	-0.750			
0.7694	49241.02	3.0050	3.0051	-0.1722	9.37	3.38	-0.750			
0.7699	49274.37	3.0020	3.0020	-0.1776	9.38	3.39	-0.750			
