Ah_balance (normalized)	Ah_balance (mAh)	Voltage - fit (V)	Voltage -  interpolate (V)	dQ/dV (1/V)	Temperature (°C)	Temperature - diff (°C)	Current (C)	R_DC 0ms (mOhm)	R_DC 50ms (mOhm)	R_DC 50 ms PEC (mOhm)
0.0982	6282.20	4.1980	4.1999	0.5499	8.15	2.16	0.750			
0.0999	6394.56	4.1950	4.1971	0.6433	8.15	2.16	0.750			
0.1022	6541.02	4.1920	4.1940	0.7473	8.14	2.15	0.750			
0.1046	6696.17	4.1890	4.1903	0.7846	8.14	2.15	0.750			
0.1070	6845.76	4.1860	4.1872	0.7434	8.13	2.14	0.750			
0.1094	7003.11	4.1830	4.1839	0.7638	8.13	2.14	0.750			
0.1125	7197.29	4.1800	4.1793	0.8442	8.12	2.13	0.750			
0.1140	7298.39	4.1770	4.1768	0.6944	8.11	2.12	0.750			
0.1161	7428.20	4.1740	4.1740	0.7001	8.11	2.12	0.750			
0.1182	7563.83	4.1710	4.1710	0.7151	8.10	2.11	0.750			
0.1204	7705.55	4.1680	4.1680	0.7317	8.10	2.11	0.750			
0.1226	7849.36	4.1650	4.1650	0.7308	8.09	2.10	0.750			
0.1249	7993.11	4.1620	4.1620	0.7292	8.08	2.09	0.750			
0.1271	8132.35	4.1590	4.1591	0.7213	8.07	2.08	0.750			
0.1292	8268.38	4.1560	4.1560	0.7161	8.06	2.07	0.750			
0.1313	8402.84	4.1530	4.1530	0.7103	8.05	2.06	0.750			
0.1334	8537.26	4.1500	4.1500	0.7155	8.05	2.06	0.750			
0.1355	8674.79	4.1470	4.1470	0.7224	8.04	2.05	0.750			
0.1377	8815.66	4.1440	4.1440	0.7295	8.03	2.04	0.750			
0.1400	8957.67	4.1410	4.1409	0.7364	8.02	2.03	0.750			
0.1422	9099.64	4.1380	4.1382	0.7405	8.01	2.02	0.750			
0.1444	9241.68	4.1350	4.1349	0.7442	8.00	2.01	0.750			
0.1466	9385.43	4.1320	4.1321	0.7445	8.00	2.01	0.750			
0.1489	9528.68	4.1290	4.1289	0.7455	7.99	2.00	0.750			
0.1511	9670.85	4.1260	4.1260	0.7532	7.99	2.00	0.750			
0.1534	9815.82	4.1230	4.1231	0.7569	7.98	1.99	0.750			
0.1556	9960.49	4.1200	4.1201	0.7621	7.97	1.98	0.750			
0.1579	10108.39	4.1170	4.1170	0.7666	7.97	1.98	0.750			
0.1603	10257.11	4.1140	4.1140	0.7679	7.96	1.97	0.750			
0.1626	10405.84	4.1110	4.1110	0.7680	7.95	1.96	0.750			
0.1649	10552.47	4.1080	4.1081	0.7631	7.94	1.95	0.750			
0.1671	10696.80	4.1050	4.1051	0.7638	7.93	1.94	0.750			
0.1694	10844.16	4.1020	4.1017	0.7679	7.92	1.93	0.750			
0.1717	10989.61	4.0990	4.0992	0.7682	7.92	1.93	0.750			
0.1740	11138.58	4.0960	4.0960	0.7760	7.91	1.92	0.750			
0.1764	11290.74	4.0930	4.0930	0.7880	7.90	1.91	0.750			
0.1788	11443.31	4.0900	4.0900	0.7895	7.90	1.91	0.750			
0.1812	11594.05	4.0870	4.0869	0.7873	7.89	1.90	0.750			
0.1835	11744.09	4.0840	4.0841	0.7877	7.89	1.90	0.750			
0.1859	11896.56	4.0810	4.0810	0.7912	7.88	1.89	0.750			
0.1882	12047.17	4.0780	4.0779	0.7960	7.87	1.88	0.750			
0.1906	12199.89	4.0750	4.0750	0.7993	7.86	1.87	0.750			
0.1930	12354.63	4.0720	4.0721	0.7989	7.86	1.87	0.750			
0.1955	12510.75	4.0690	4.0689	0.8034	7.85	1.86	0.750			
0.1979	12665.28	4.0660	4.0661	0.8032	7.84	1.85	0.750			
0.2002	12815.77	4.0630	4.0631	0.8058	7.83	1.84	0.750			
0.2027	12969.62	4.0600	4.0600	0.8148	7.82	1.83	0.750			
0.2051	13126.26	4.0570	4.0570	0.8190	7.81	1.82	0.750			
0.2076	13284.54	4.0540	4.0538	0.8342	7.80	1.81	0.750			
0.2101	13449.40	4.0510	4.0511	0.8378	7.79	1.80	0.750			
0.2127	13612.85	4.0480	4.0479	0.8436	7.78	1.79	0.750			
0.2152	13774.07	4.0450	4.0450	0.8463	7.77	1.78	0.750			
0.2177	13935.74	4.0420	4.0421	0.8420	7.77	1.78	0.750			
0.2203	14096.99	4.0390	4.0388	0.8466	7.76	1.77	0.750			
0.2228	14260.36	4.0360	4.0360	0.8525	7.75	1.76	0.750			
0.2253	14422.39	4.0330	4.0331	0.8565	7.74	1.75	0.750			
0.2280	14589.82	4.0300	4.0299	0.8636	7.73	1.74	0.750			
0.2306	14756.92	4.0270	4.0270	0.8665	7.72	1.73	0.750			
0.2332	14922.09	4.0240	4.0240	0.8600	7.71	1.72	0.750			
0.2358	15088.90	4.0210	4.0209	0.8585	7.70	1.71	0.750			
0.2383	15252.28	4.0180	4.0182	0.8606	7.69	1.70	0.750			
0.2409	15416.31	4.0150	4.0150	0.8666	7.68	1.69	0.750			
0.2435	15582.16	4.0120	4.0120	0.8689	7.67	1.68	0.750			
0.2461	15749.68	4.0090	4.0090	0.8823	7.67	1.68	0.750			
0.2487	15918.71	4.0060	4.0061	0.8939	7.66	1.67	0.750			
0.2515	16093.28	4.0030	4.0030	0.9063	7.65	1.66	0.750			
0.2542	16270.96	4.0000	3.9999	0.9067	7.64	1.65	0.750			
0.2569	16443.75	3.9970	3.9969	0.9042	7.63	1.64	0.750			
0.2597	16620.40	3.9940	3.9941	0.9022	7.62	1.63	0.750			
0.2624	16791.38	3.9910	3.9909	0.9065	7.61	1.62	0.750			
0.2650	16962.20	3.9880	3.9880	0.9035	7.60	1.61	0.750			
0.2678	17136.02	3.9850	3.9852	0.9101	7.59	1.60	0.750			
0.2705	17310.58	3.9820	3.9817	0.9228	7.58	1.59	0.750			
0.2733	17491.77	3.9790	3.9791	0.9252	7.57	1.58	0.750			
0.2760	17666.96	3.9760	3.9761	0.9355	7.56	1.57	0.750			
0.2789	17848.03	3.9730	3.9730	0.9470	7.55	1.56	0.750			
0.2817	18031.05	3.9700	3.9699	0.9531	7.54	1.55	0.750			
0.2846	18217.17	3.9670	3.9670	0.9568	7.53	1.54	0.750			
0.2875	18402.68	3.9640	3.9641	0.9562	7.52	1.53	0.750			
0.2904	18586.02	3.9610	3.9611	0.9569	7.51	1.52	0.750			
0.2933	18769.45	3.9580	3.9582	0.9524	7.51	1.52	0.750			
0.2961	18951.52	3.9550	3.9550	0.9570	7.50	1.51	0.750			
0.2989	19132.18	3.9520	3.9520	0.9641	7.48	1.49	0.750			
0.3019	19318.75	3.9490	3.9490	0.9750	7.47	1.48	0.750			
0.3048	19508.85	3.9460	3.9460	0.9944	7.46	1.47	0.750			
0.3078	19702.03	3.9430	3.9430	1.0024	7.45	1.46	0.750			
0.3109	19895.36	3.9400	3.9400	1.0078	7.44	1.45	0.750			
0.3139	20089.14	3.9370	3.9370	1.0185	7.43	1.44	0.750			
0.3169	20284.63	3.9340	3.9341	1.0261	7.42	1.43	0.750			
0.3201	20483.61	3.9310	3.9309	1.0285	7.41	1.42	0.750			
0.3232	20683.03	3.9280	3.9280	1.0363	7.40	1.41	0.750			
0.3263	20880.82	3.9250	3.9251	1.0420	7.38	1.39	0.750			
0.3294	21081.21	3.9220	3.9221	1.0565	7.37	1.38	0.750			
0.3326	21285.96	3.9190	3.9188	1.0645	7.36	1.37	0.750			
0.3358	21488.57	3.9160	3.9159	1.0824	7.35	1.36	0.750			
0.3390	21698.10	3.9130	3.9131	1.0987	7.33	1.34	0.750			
0.3424	21913.75	3.9100	3.9101	1.1103	7.32	1.33	0.750			
0.3458	22130.96	3.9070	3.9070	1.1180	7.31	1.32	0.750			
0.3491	22344.61	3.9040	3.9041	1.1279	7.30	1.31	0.750			
0.3525	22559.56	3.9010	3.9010	1.1327	7.29	1.30	0.750			
0.3559	22778.08	3.8980	3.8979	1.1479	7.27	1.28	0.750			
0.3593	22997.37	3.8950	3.8950	1.1617	7.26	1.27	0.750			
0.3629	23223.14	3.8920	3.8921	1.1872	7.24	1.25	0.750			
0.3665	23454.54	3.8890	3.8890	1.2049	7.23	1.24	0.750			
0.3702	23691.74	3.8860	3.8858	1.2016	7.21	1.22	0.750			
0.3737	23919.25	3.8830	3.8831	1.2199	7.20	1.21	0.750			
0.3774	24153.24	3.8800	3.8801	1.2334	7.19	1.20	0.750			
0.3811	24391.81	3.8770	3.8770	1.2398	7.17	1.18	0.750	0.393	0.801	
0.3848	24628.25	3.8740	3.8742	1.2588	7.16	1.17	0.750			
0.3886	24871.23	3.8710	3.8711	1.2870	7.15	1.16	0.750			
0.3926	25125.67	3.8680	3.8680	1.3084	7.14	1.15	0.750			
0.3966	25381.89	3.8650	3.8649	1.3232	7.12	1.13	0.750			
0.4005	25631.12	3.8620	3.8622	1.3421	7.10	1.11	0.750			
0.4046	25895.35	3.8590	3.8591	1.3599	7.08	1.09	0.750			
0.4087	26159.18	3.8560	3.8560	1.3824	7.06	1.07	0.750			
0.4129	26423.10	3.8530	3.8529	1.4097	7.05	1.06	0.750			
0.4171	26695.94	3.8500	3.8500	1.4284	7.03	1.04	0.750			
0.4214	26972.60	3.8470	3.8472	1.4552	7.01	1.02	0.750			
0.4259	27255.55	3.8440	3.8441	1.4782	7.00	1.01	0.750			
0.4303	27541.26	3.8410	3.8410	1.4857	6.98	0.99	0.750			
0.4348	27829.12	3.8380	3.8380	1.5186	6.96	0.97	0.750			
0.4394	28123.28	3.8350	3.8351	1.5346	6.95	0.96	0.750			
0.4440	28415.25	3.8320	3.8319	1.5544	6.93	0.94	0.750			
0.4488	28721.10	3.8290	3.8289	1.5813	6.91	0.92	0.750			
0.4536	29027.90	3.8260	3.8262	1.5828	6.89	0.90	0.750			
0.4584	29335.41	3.8230	3.8228	1.6047	6.87	0.88	0.750			
0.4632	29642.11	3.8200	3.8201	1.6172	6.85	0.86	0.750			
0.4680	29952.73	3.8170	3.8170	1.6164	6.83	0.84	0.750			
0.4729	30265.73	3.8140	3.8141	1.6440	6.81	0.82	0.750			
0.4778	30579.64	3.8110	3.8111	1.6557	6.79	0.80	0.750			
0.4829	30907.20	3.8080	3.8081	1.6869	6.78	0.79	0.750			
0.4881	31235.69	3.8050	3.8048	1.7087	6.75	0.76	0.750			
0.4932	31563.04	3.8020	3.8022	1.7295	6.73	0.74	0.750			
0.4983	31893.00	3.7990	3.7993	1.7675	6.71	0.72	0.750			
0.5038	32246.36	3.7960	3.7960	1.7912	6.68	0.69	0.750			
0.5092	32585.97	3.7930	3.7928	1.8149	6.66	0.67	0.750			
0.5147	32939.33	3.7900	3.7901	1.8310	6.65	0.66	0.750			
0.5202	33291.67	3.7870	3.7871	1.8719	6.63	0.64	0.750			
0.5258	33650.18	3.7840	3.7842	1.8919	6.61	0.62	0.750			
0.5314	34010.04	3.7810	3.7809	1.9151	6.58	0.59	0.750			
0.5372	34380.44	3.7780	3.7781	1.9553	6.56	0.57	0.750			
0.5433	34769.96	3.7750	3.7749	2.0136	6.53	0.54	0.750			
0.5493	35158.08	3.7720	3.7721	2.1047	6.51	0.52	0.750			
0.5557	35566.60	3.7690	3.7689	2.1289	6.49	0.50	0.750			
0.5621	35974.10	3.7660	3.7661	2.2046	6.46	0.47	0.750			
0.5689	36407.55	3.7630	3.7630	2.3521	6.43	0.44	0.750			
0.5760	36865.34	3.7600	3.7598	2.4281	6.41	0.42	0.750			
0.5834	37338.24	3.7570	3.7571	2.5455	6.39	0.40	0.750			
0.5915	37854.84	3.7540	3.7540	2.7310	6.35	0.36	0.750			
0.5997	38383.05	3.7510	3.7509	2.8548	6.33	0.34	0.750			
0.6085	38941.99	3.7480	3.7481	2.9369	6.31	0.32	0.750			
0.6176	39526.21	3.7450	3.7450	2.9615	6.27	0.28	0.750			
0.6264	40091.73	3.7420	3.7421	2.9643	6.24	0.25	0.750			
0.6354	40667.47	3.7390	3.7390	2.8939	6.21	0.22	0.750			
0.6442	41226.68	3.7360	3.7360	2.7137	6.19	0.20	0.750			
0.6521	41736.71	3.7330	3.7329	2.4609	6.17	0.18	0.750			
0.6589	42166.70	3.7300	3.7301	2.1481	6.16	0.17	0.750			
0.6647	42541.72	3.7270	3.7270	1.8867	6.14	0.15	0.750			
0.6699	42875.42	3.7240	3.7240	1.6667	6.12	0.13	0.750			
0.6744	43162.74	3.7210	3.7211	1.4941	6.11	0.12	0.750			
0.6785	43424.71	3.7180	3.7179	1.3568	6.10	0.11	0.750			
0.6823	43667.45	3.7150	3.7148	1.2508	6.09	0.10	0.750			
0.6857	43883.90	3.7120	3.7121	1.1643	6.08	0.09	0.750			
0.6891	44099.88	3.7090	3.7090	1.1325	6.07	0.08	0.750			
0.6924	44310.86	3.7060	3.7059	1.0942	6.07	0.08	0.750			
0.6956	44516.46	3.7030	3.7028	1.0695	6.06	0.07	0.750			
0.6987	44719.23	3.7000	3.7001	1.0574	6.05	0.06	0.750			
0.7019	44920.83	3.6970	3.6971	1.0467	6.05	0.06	0.750			
0.7051	45124.59	3.6940	3.6939	1.0347	6.04	0.05	0.750			
0.7081	45318.33	3.6910	3.6910	1.0063	6.04	0.05	0.750			
0.7111	45512.83	3.6880	3.6881	0.9874	6.03	0.04	0.750			
0.7141	45703.21	3.6850	3.6851	0.9691	6.02	0.03	0.750			
0.7170	45885.10	3.6820	3.6819	0.9411	6.02	0.03	0.750			
0.7197	46061.43	3.6790	3.6787	0.9158	6.01	0.02	0.750			
0.7224	46232.81	3.6760	3.6761	0.9015	6.01	0.02	0.750			
0.7251	46403.90	3.6730	3.6730	0.8943	6.00	0.01	0.750			
0.7277	46575.05	3.6700	3.6699	0.8864	6.00	0.01	0.750			
0.7304	46744.89	3.6670	3.6671	0.8823	5.99	0.00	0.750			
0.7330	46912.75	3.6640	3.6640	0.8737	5.99	-0.00	0.750			
0.7356	47080.91	3.6610	3.6610	0.8667	5.99	-0.00	0.750			
0.7382	47246.61	3.6580	3.6580	0.8569	5.99	-0.00	0.750			
0.7408	47409.57	3.6550	3.6549	0.8497	5.98	-0.01	0.750			
0.7433	47573.85	3.6520	3.6521	0.8386	5.98	-0.01	0.750			
0.7459	47738.94	3.6490	3.6489	0.8092	5.98	-0.01	0.750			
0.7484	47897.79	3.6460	3.6461	0.7679	5.98	-0.01	0.750			
0.7507	48046.30	3.6430	3.6430	0.6972	5.98	-0.01	0.750			
0.7527	48174.45	3.6400	3.6402	0.6104	5.99	-0.00	0.750			
0.7545	48285.05	3.6370	3.6370	0.5245	5.99	-0.00	0.750			
0.7559	48374.95	3.6340	3.6339	0.4263	5.99	-0.00	0.750			
0.7568	48437.03	3.6310	3.6313	0.3600	5.99	-0.00	0.750			
0.7578	48498.46	3.6280	3.6282	0.2957	5.99	0.00	0.750			
0.7585	48544.84	3.6250	3.6247	0.2309	5.99	0.00	0.750			
0.7591	48580.78	3.6220	3.6203	0.1791	5.99	0.00	0.750			
0.7594	48602.14	3.5980	3.5789	-0.1150	5.99	0.00	0.750			
0.7594	48603.30	3.6190	3.5618	0.1274	5.99	0.00	0.751			
0.7597	48618.90	3.6160	3.3312	0.0859	5.99	0.00	0.768			
0.7597	48621.01	3.6010	3.3000	-0.0815	5.99	0.00	0.770			
0.7599	48632.18	3.6130	3.1348	0.0524	5.99	0.00	0.782			
0.7599	48633.44	3.6040	3.1161	-0.0480	5.99	0.00	0.783			
0.7600	48639.03	3.6100	3.0335	0.0189	5.99	0.00	0.789			
0.7600	48639.45	3.6070	3.0273	-0.0145	5.99	0.00	0.789			
