Ah_balance (normalized)	Ah_balance (mAh)	Voltage - fit (V)	Voltage -  interpolate (V)	dQ/dV (1/V)	Temperature (°C)	Temperature - diff (°C)	Current (C)	R_DC 0ms (mOhm)	R_DC 50ms (mOhm)	R_DC 50 ms PEC (mOhm)
0.0002	12.65	4.1120	4.1113	-0.0539	5.99	-0.00	-0.750			
0.0004	27.02	4.1090	4.1087	-0.0895	5.99	-0.00	-0.750			
0.0008	48.32	4.1060	4.1058	-0.1203	5.99	-0.00	-0.750			
0.0012	74.65	4.1030	4.1029	-0.1471	5.99	-0.00	-0.750			
0.0017	105.68	4.1000	4.1001	-0.1726	5.99	-0.00	-0.750			
0.0022	141.45	4.0970	4.0971	-0.1968	5.99	-0.00	-0.750			
0.0029	183.24	4.0940	4.0939	-0.2206	5.99	-0.00	-0.750			
0.0036	227.55	4.0910	4.0910	-0.2422	5.99	-0.00	-0.750			
0.0043	276.05	4.0880	4.0880	-0.2641	5.99	-0.00	-0.750			
0.0051	329.07	4.0850	4.0850	-0.2839	5.99	-0.00	-0.750			
0.0060	385.14	4.0820	4.0820	-0.3085	5.99	0.00	-0.750			
0.0070	446.28	4.0790	4.0791	-0.3340	5.99	0.00	-0.750			
0.0080	512.28	4.0760	4.0760	-0.3600	5.99	0.00	-0.750			
0.0091	584.48	4.0730	4.0729	-0.3819	5.99	0.00	-0.750			
0.0103	660.84	4.0700	4.0701	-0.4048	5.99	0.00	-0.750			
0.0116	740.75	4.0670	4.0671	-0.4255	5.99	0.00	-0.750			
0.0129	824.79	4.0640	4.0639	-0.4470	6.00	0.01	-0.750			
0.0142	911.19	4.0610	4.0610	-0.4662	6.00	0.01	-0.750			
0.0157	1002.28	4.0580	4.0579	-0.4918	6.00	0.01	-0.750			
0.0172	1099.42	4.0550	4.0551	-0.5133	6.00	0.01	-0.750			
0.0188	1201.08	4.0520	4.0520	-0.5380	6.00	0.01	-0.750			
0.0204	1307.23	4.0490	4.0490	-0.5598	6.00	0.01	-0.750			
0.0221	1416.68	4.0460	4.0460	-0.5825	6.01	0.02	-0.750			
0.0239	1530.95	4.0430	4.0429	-0.6002	6.01	0.02	-0.750			
0.0258	1648.78	4.0400	4.0400	-0.6157	6.01	0.02	-0.750			
0.0276	1769.13	4.0370	4.0370	-0.6280	6.02	0.03	-0.750			
0.0296	1892.08	4.0340	4.0340	-0.6404	6.02	0.03	-0.750			
0.0315	2015.65	4.0310	4.0310	-0.6519	6.02	0.03	-0.750			
0.0335	2141.10	4.0280	4.0280	-0.6646	6.03	0.04	-0.750			
0.0354	2268.04	4.0250	4.0250	-0.6760	6.04	0.05	-0.750			
0.0375	2401.11	4.0220	4.0220	-0.6848	6.04	0.05	-0.750			
0.0396	2534.42	4.0190	4.0190	-0.6955	6.05	0.06	-0.750			
0.0417	2669.31	4.0160	4.0160	-0.7081	6.06	0.07	-0.750			
0.0438	2805.95	4.0130	4.0129	-0.7160	6.06	0.07	-0.750			
0.0460	2944.46	4.0100	4.0099	-0.7187	6.07	0.08	-0.750			
0.0482	3084.43	4.0070	4.0071	-0.7230	6.08	0.09	-0.750			
0.0504	3224.69	4.0040	4.0040	-0.7255	6.09	0.10	-0.750			
0.0526	3365.42	4.0010	4.0009	-0.7251	6.10	0.11	-0.750			
0.0547	3502.98	3.9980	3.9981	-0.7202	6.11	0.12	-0.750			
0.0568	3638.27	3.9950	3.9949	-0.7243	6.12	0.13	-0.750			
0.0590	3775.02	3.9920	3.9920	-0.7352	6.13	0.14	-0.750			
0.0612	3917.42	3.9890	3.9890	-0.7541	6.14	0.15	-0.750			
0.0635	4065.26	3.9860	3.9858	-0.7592	6.15	0.16	-0.750			
0.0659	4215.99	3.9830	3.9830	-0.7699	6.16	0.17	-0.750			
0.0682	4365.80	3.9800	3.9803	-0.7688	6.17	0.18	-0.750			
0.0705	4514.82	3.9770	3.9769	-0.7654	6.18	0.19	-0.750			
0.0728	4658.64	3.9740	3.9739	-0.7624	6.19	0.20	-0.750			
0.0750	4800.27	3.9710	3.9709	-0.7540	6.20	0.21	-0.750			
0.0773	4948.00	3.9680	3.9680	-0.7582	6.22	0.23	-0.750			
0.0796	5092.98	3.9650	3.9649	-0.7605	6.23	0.24	-0.750			
0.0818	5238.06	3.9620	3.9621	-0.7668	6.24	0.25	-0.750			
0.0842	5385.88	3.9590	3.9590	-0.7725	6.25	0.26	-0.750			
0.0865	5533.50	3.9560	3.9558	-0.7766	6.26	0.27	-0.750			
0.0888	5682.49	3.9530	3.9530	-0.7832	6.27	0.28	-0.750			
0.0912	5837.31	3.9500	3.9501	-0.7916	6.28	0.29	-0.750			
0.0936	5991.42	3.9470	3.9470	-0.7866	6.29	0.30	-0.750			
0.0960	6142.27	3.9440	3.9442	-0.7807	6.30	0.31	-0.750			
0.0983	6291.14	3.9410	3.9410	-0.7765	6.31	0.32	-0.750			
0.1006	6437.33	3.9380	3.9380	-0.7816	6.32	0.33	-0.750			
0.1029	6585.82	3.9350	3.9350	-0.7865	6.33	0.34	-0.750			
0.1053	6736.94	3.9320	3.9319	-0.7899	6.34	0.35	-0.750			
0.1077	6891.39	3.9290	3.9290	-0.8032	6.35	0.36	-0.750			
0.1101	7048.19	3.9260	3.9261	-0.8114	6.36	0.37	-0.750			
0.1126	7207.32	3.9230	3.9228	-0.8085	6.37	0.38	-0.750			
0.1150	7362.58	3.9200	3.9201	-0.8058	6.39	0.40	-0.750			
0.1174	7515.43	3.9170	3.9172	-0.7995	6.40	0.41	-0.750			
0.1198	7670.10	3.9140	3.9138	-0.7971	6.41	0.42	-0.750			
0.1222	7822.44	3.9110	3.9110	-0.7957	6.42	0.43	-0.750			
0.1246	7972.01	3.9080	3.9080	-0.7936	6.43	0.44	-0.750			
0.1269	8123.56	3.9050	3.9051	-0.7964	6.44	0.45	-0.750			
0.1294	8279.33	3.9020	3.9019	-0.8077	6.45	0.46	-0.750			
0.1318	8433.17	3.8990	3.8990	-0.8113	6.46	0.47	-0.750			
0.1342	8588.37	3.8960	3.8960	-0.8255	6.47	0.48	-0.750			
0.1367	8750.27	3.8930	3.8930	-0.8295	6.48	0.49	-0.750			
0.1392	8911.79	3.8900	3.8899	-0.8291	6.49	0.50	-0.750			
0.1418	9072.60	3.8870	3.8871	-0.8247	6.50	0.51	-0.750			
0.1442	9231.47	3.8840	3.8839	-0.8233	6.50	0.51	-0.750			
0.1467	9387.19	3.8810	3.8810	-0.8227	6.51	0.52	-0.750			
0.1491	9541.84	3.8780	3.8780	-0.8261	6.52	0.53	-0.750			
0.1516	9700.01	3.8750	3.8750	-0.8303	6.53	0.54	-0.750			
0.1541	9862.78	3.8720	3.8719	-0.8381	6.54	0.55	-0.750			
0.1567	10026.28	3.8690	3.8691	-0.8406	6.55	0.56	-0.750			
0.1592	10188.29	3.8660	3.8660	-0.8361	6.56	0.57	-0.750			
0.1617	10348.53	3.8630	3.8630	-0.8287	6.57	0.58	-0.750			
0.1641	10504.75	3.8600	3.8600	-0.8216	6.57	0.58	-0.750			
0.1666	10660.96	3.8570	3.8570	-0.8254	6.58	0.59	-0.750			
0.1690	10818.83	3.8540	3.8539	-0.8303	6.59	0.60	-0.750			
0.1715	10977.85	3.8510	3.8510	-0.8367	6.60	0.61	-0.750			
0.1741	11142.89	3.8480	3.8480	-0.8406	6.61	0.62	-0.750			
0.1766	11304.74	3.8450	3.8450	-0.8438	6.62	0.63	-0.750			
0.1792	11467.33	3.8420	3.8420	-0.8511	6.64	0.65	-0.750			
0.1817	11629.27	3.8390	3.8391	-0.8517	6.64	0.65	-0.750			
0.1843	11793.71	3.8360	3.8358	-0.8515	6.65	0.66	-0.750			
0.1868	11957.43	3.8330	3.8330	-0.8519	6.66	0.67	-0.750			
0.1894	12121.45	3.8300	3.8301	-0.8520	6.66	0.67	-0.750			
0.1920	12285.40	3.8270	3.8269	-0.8572	6.67	0.68	-0.750			
0.1945	12449.15	3.8240	3.8239	-0.8540	6.68	0.69	-0.750			
0.1971	12613.12	3.8210	3.8210	-0.8539	6.69	0.70	-0.750			
0.1997	12777.74	3.8180	3.8180	-0.8545	6.70	0.71	-0.750			
0.2022	12941.40	3.8150	3.8151	-0.8557	6.71	0.72	-0.750			
0.2048	13106.58	3.8120	3.8121	-0.8613	6.72	0.73	-0.750			
0.2073	13269.67	3.8090	3.8090	-0.8690	6.73	0.74	-0.750			
0.2100	13437.58	3.8060	3.8059	-0.8722	6.73	0.74	-0.750			
0.2126	13605.91	3.8030	3.8030	-0.8752	6.74	0.75	-0.750			
0.2152	13774.94	3.8000	3.8001	-0.8787	6.75	0.76	-0.750			
0.2179	13946.87	3.7970	3.7974	-0.8798	6.76	0.77	-0.750			
0.2206	14115.21	3.7940	3.7937	-0.8745	6.77	0.78	-0.750			
0.2231	14280.88	3.7910	3.7912	-0.8747	6.77	0.78	-0.750			
0.2258	14449.78	3.7880	3.7880	-0.8692	6.78	0.79	-0.750			
0.2284	14618.14	3.7850	3.7848	-0.8743	6.79	0.80	-0.750			
0.2310	14783.81	3.7820	3.7822	-0.8785	6.79	0.80	-0.750			
0.2336	14948.82	3.7790	3.7790	-0.8865	6.80	0.81	-0.750			
0.2363	15121.65	3.7760	3.7759	-0.8871	6.81	0.82	-0.750			
0.2389	15292.44	3.7730	3.7729	-0.8902	6.82	0.83	-0.750			
0.2417	15465.72	3.7700	3.7702	-0.8957	6.83	0.84	-0.750			
0.2444	15639.13	3.7670	3.7669	-0.8958	6.83	0.84	-0.750			
0.2470	15811.12	3.7640	3.7639	-0.8918	6.84	0.85	-0.750			
0.2497	15980.77	3.7610	3.7610	-0.8936	6.85	0.86	-0.750			
0.2523	16149.62	3.7580	3.7580	-0.8952	6.86	0.87	-0.750			
0.2551	16324.41	3.7550	3.7549	-0.9058	6.87	0.88	-0.750			
0.2577	16495.84	3.7520	3.7520	-0.9140	6.88	0.89	-0.750			
0.2606	16675.39	3.7490	3.7489	-0.9110	6.89	0.90	-0.750			
0.2633	16851.62	3.7460	3.7460	-0.9155	6.90	0.91	-0.750			
0.2661	17028.04	3.7430	3.7429	-0.9127	6.90	0.91	-0.750			
0.2688	17203.11	3.7400	3.7401	-0.9079	6.91	0.92	-0.750			
0.2715	17376.44	3.7370	3.7369	-0.9089	6.92	0.93	-0.750			
0.2742	17548.51	3.7340	3.7340	-0.9075	6.93	0.94	-0.750			
0.2769	17720.32	3.7310	3.7310	-0.9062	6.94	0.95	-0.750			
0.2797	17898.26	3.7280	3.7280	-0.9236	6.95	0.96	-0.750			
0.2824	18072.93	3.7250	3.7251	-0.9332	6.95	0.96	-0.750			
0.2853	18256.41	3.7220	3.7220	-0.9412	6.96	0.97	-0.750			
0.2881	18439.07	3.7190	3.7189	-0.9487	6.96	0.97	-0.750			
0.2910	18621.30	3.7160	3.7160	-0.9532	6.97	0.98	-0.750			
0.2938	18805.60	3.7130	3.7130	-0.9565	6.97	0.98	-0.750			
0.2967	18990.56	3.7100	3.7100	-0.9615	6.98	0.99	-0.750			
0.2996	19175.18	3.7070	3.7068	-0.9547	6.99	1.00	-0.750			
0.3024	19356.70	3.7040	3.7042	-0.9512	7.00	1.01	-0.750			
0.3053	19542.32	3.7010	3.7014	-0.9599	7.01	1.02	-0.750			
0.3082	19723.56	3.6980	3.6977	-0.9643	7.02	1.03	-0.750			
0.3111	19909.22	3.6950	3.6950	-0.9677	7.02	1.03	-0.750			
0.3140	20094.68	3.6920	3.6920	-0.9729	7.03	1.04	-0.750			
0.3170	20285.31	3.6890	3.6890	-0.9916	7.04	1.05	-0.750			
0.3199	20475.33	3.6860	3.6860	-1.0025	7.05	1.06	-0.750			
0.3229	20668.75	3.6830	3.6830	-1.0011	7.06	1.07	-0.750			
0.3259	20860.36	3.6800	3.6798	-1.0099	7.07	1.08	-0.750			
0.3290	21053.40	3.6770	3.6770	-1.0106	7.08	1.09	-0.750			
0.3320	21250.80	3.6740	3.6740	-1.0227	7.08	1.09	-0.750			
0.3351	21446.56	3.6710	3.6709	-1.0219	7.09	1.10	-0.750			
0.3381	21640.93	3.6680	3.6680	-1.0313	7.10	1.11	-0.750			
0.3412	21837.71	3.6650	3.6651	-1.0441	7.11	1.12	-0.750			
0.3444	22042.01	3.6620	3.6619	-1.0654	7.11	1.12	-0.750			
0.3476	22246.92	3.6590	3.6590	-1.0722	7.12	1.13	-0.750			
0.3509	22457.11	3.6560	3.6560	-1.0835	7.12	1.13	-0.750			
0.3542	22666.43	3.6530	3.6531	-1.0976	7.13	1.14	-0.750			
0.3575	22879.08	3.6500	3.6499	-1.1108	7.13	1.14	-0.750			
0.3608	23089.85	3.6470	3.6470	-1.1157	7.14	1.15	-0.750			
0.3642	23308.11	3.6440	3.6439	-1.1170	7.14	1.15	-0.750			
0.3675	23521.13	3.6410	3.6412	-1.1370	7.15	1.16	-0.750			
0.3710	23742.56	3.6380	3.6380	-1.1617	7.16	1.17	-0.750			
0.3745	23969.56	3.6350	3.6347	-1.1714	7.17	1.18	-0.750			
0.3780	24194.10	3.6320	3.6319	-1.1804	7.17	1.18	-0.750			
0.3816	24421.35	3.6290	3.6292	-1.1893	7.18	1.19	-0.750			
0.3852	24653.65	3.6260	3.6259	-1.2024	7.19	1.20	-0.750			
0.3888	24886.20	3.6230	3.6229	-1.2071	7.19	1.20	-0.750			
0.3923	25108.83	3.6200	3.6201	-1.2106	7.20	1.21	-0.750			
0.3960	25345.48	3.6170	3.6171	-1.2354	7.21	1.22	-0.750			
0.3998	25586.20	3.6140	3.6139	-1.2523	7.21	1.22	-0.750			
0.4036	25827.67	3.6110	3.6110	-1.2599	7.22	1.23	-0.750			
0.4074	26072.69	3.6080	3.6078	-1.2831	7.22	1.23	-0.750			
0.4113	26320.58	3.6050	3.6048	-1.2992	7.23	1.24	-0.750	0.444	0.973	
0.4152	26571.04	3.6020	3.6019	-1.3202	7.24	1.25	-0.750			
0.4191	26824.74	3.5990	3.5991	-1.3232	7.24	1.25	-0.750			
0.4232	27082.26	3.5960	3.5959	-1.3441	7.25	1.26	-0.750			
0.4272	27343.27	3.5930	3.5930	-1.3663	7.25	1.26	-0.750			
0.4313	27605.82	3.5900	3.5900	-1.3672	7.26	1.27	-0.750			
0.4355	27872.24	3.5870	3.5873	-1.3918	7.26	1.27	-0.750			
0.4397	28137.81	3.5840	3.5839	-1.4092	7.27	1.28	-0.750			
0.4439	28411.42	3.5810	3.5810	-1.4217	7.27	1.28	-0.750			
0.4482	28687.40	3.5780	3.5781	-1.4432	7.27	1.28	-0.750			
0.4526	28968.01	3.5750	3.5748	-1.4619	7.28	1.29	-0.750			
0.4570	29248.77	3.5720	3.5721	-1.4749	7.28	1.29	-0.750			
0.4615	29534.85	3.5690	3.5689	-1.4920	7.29	1.30	-0.750			
0.4660	29821.98	3.5660	3.5660	-1.5046	7.30	1.31	-0.750			
0.4705	30109.92	3.5630	3.5633	-1.5112	7.30	1.31	-0.750			
0.4751	30404.89	3.5600	3.5599	-1.5360	7.31	1.32	-0.750			
0.4797	30702.91	3.5570	3.5570	-1.5343	7.31	1.32	-0.750			
0.4844	30998.96	3.5540	3.5540	-1.5372	7.32	1.33	-0.750			
0.4890	31293.72	3.5510	3.5509	-1.5668	7.32	1.33	-0.750			
0.4936	31590.80	3.5480	3.5479	-1.5726	7.33	1.34	-0.750			
0.4983	31889.84	3.5450	3.5451	-1.5969	7.33	1.34	-0.750			
0.5031	32198.83	3.5420	3.5420	-1.6180	7.34	1.35	-0.750			
0.5082	32524.00	3.5390	3.5387	-1.6173	7.34	1.35	-0.750			
0.5131	32839.68	3.5360	3.5359	-1.6256	7.35	1.36	-0.750			
0.5180	33149.31	3.5330	3.5334	-1.6259	7.35	1.36	-0.750			
0.5228	33456.79	3.5300	3.5298	-1.6327	7.36	1.37	-0.750			
0.5276	33767.41	3.5270	3.5268	-1.6251	7.37	1.38	-0.750			
0.5325	34081.65	3.5240	3.5241	-1.6506	7.37	1.38	-0.750			
0.5376	34405.31	3.5210	3.5209	-1.6925	7.38	1.39	-0.750			
0.5428	34736.91	3.5180	3.5180	-1.7030	7.38	1.39	-0.750			
0.5479	35063.80	3.5150	3.5152	-1.6965	7.39	1.40	-0.750			
0.5531	35395.75	3.5120	3.5119	-1.6991	7.40	1.41	-0.750			
0.5581	35721.23	3.5090	3.5092	-1.6937	7.40	1.41	-0.750			
0.5632	36047.13	3.5060	3.5062	-1.7035	7.41	1.42	-0.750			
0.5683	36368.46	3.5030	3.5031	-1.6988	7.41	1.42	-0.750			
0.5734	36698.21	3.5000	3.5001	-1.6837	7.42	1.43	-0.750			
0.5785	37025.80	3.4970	3.4970	-1.6844	7.43	1.44	-0.750			
0.5835	37346.57	3.4940	3.4939	-1.6623	7.43	1.44	-0.750			
0.5886	37669.86	3.4910	3.4908	-1.6601	7.44	1.45	-0.750			
0.5936	37987.35	3.4880	3.4880	-1.6188	7.44	1.45	-0.750			
0.5982	38287.96	3.4850	3.4852	-1.6057	7.45	1.46	-0.750			
0.6030	38594.82	3.4820	3.4820	-1.6061	7.46	1.47	-0.750			
0.6079	38902.94	3.4790	3.4787	-1.6153	7.47	1.48	-0.750			
0.6126	39209.48	3.4760	3.4759	-1.6131	7.48	1.49	-0.750			
0.6176	39523.74	3.4730	3.4731	-1.5989	7.49	1.50	-0.750			
0.6225	39839.66	3.4700	3.4698	-1.5921	7.50	1.51	-0.750			
0.6273	40147.13	3.4670	3.4672	-1.5717	7.51	1.52	-0.750			
0.6319	40440.59	3.4640	3.4640	-1.5224	7.51	1.52	-0.750			
0.6364	40729.68	3.4610	3.4609	-1.5114	7.52	1.53	-0.750			
0.6408	41013.92	3.4580	3.4578	-1.4925	7.54	1.55	-0.750			
0.6453	41297.26	3.4550	3.4550	-1.4770	7.55	1.56	-0.750			
0.6498	41585.22	3.4520	3.4521	-1.4616	7.56	1.57	-0.750			
0.6542	41869.23	3.4490	3.4488	-1.4353	7.57	1.58	-0.750			
0.6584	42139.19	3.4460	3.4461	-1.3862	7.58	1.59	-0.750			
0.6626	42404.89	3.4430	3.4430	-1.3544	7.59	1.60	-0.750			
0.6664	42651.90	3.4400	3.4401	-1.3353	7.60	1.61	-0.750			
0.6705	42908.82	3.4370	3.4368	-1.3170	7.61	1.62	-0.750			
0.6744	43159.87	3.4340	3.4338	-1.3013	7.62	1.63	-0.750			
0.6783	43413.08	3.4310	3.4311	-1.2692	7.63	1.64	-0.750			
0.6822	43658.43	3.4280	3.4281	-1.2458	7.64	1.65	-0.750			
0.6858	43894.16	3.4250	3.4250	-1.2235	7.65	1.66	-0.750			
0.6894	44121.73	3.4220	3.4219	-1.1869	7.66	1.67	-0.750			
0.6929	44343.31	3.4190	3.4192	-1.1548	7.67	1.68	-0.750			
0.6963	44565.34	3.4160	3.4159	-1.1298	7.68	1.69	-0.750			
0.6997	44783.66	3.4130	3.4131	-1.0933	7.69	1.70	-0.750			
0.7030	44992.97	3.4100	3.4100	-1.0522	7.70	1.71	-0.750			
0.7061	45189.38	3.4070	3.4071	-1.0189	7.71	1.72	-0.750			
0.7090	45375.70	3.4040	3.4039	-0.9856	7.72	1.73	-0.750			
0.7119	45559.20	3.4010	3.4009	-0.9582	7.74	1.75	-0.750			
0.7147	45742.19	3.3980	3.3980	-0.9377	7.75	1.76	-0.750			
0.7176	45923.84	3.3950	3.3951	-0.9157	7.76	1.77	-0.750			
0.7203	46098.71	3.3920	3.3920	-0.8832	7.77	1.78	-0.750			
0.7229	46266.39	3.3890	3.3890	-0.8509	7.78	1.79	-0.750			
0.7254	46424.03	3.3860	3.3860	-0.8155	7.78	1.79	-0.750			
0.7277	46574.50	3.3830	3.3829	-0.7850	7.79	1.80	-0.750			
0.7301	46723.33	3.3800	3.3800	-0.7580	7.80	1.81	-0.750			
0.7323	46865.93	3.3770	3.3769	-0.7312	7.81	1.82	-0.750			
0.7344	47004.21	3.3740	3.3740	-0.7137	7.82	1.83	-0.750			
0.7365	47138.08	3.3710	3.3711	-0.6956	7.83	1.84	-0.750			
0.7386	47269.46	3.3680	3.3679	-0.6723	7.84	1.85	-0.750			
0.7406	47396.84	3.3650	3.3649	-0.6499	7.85	1.86	-0.750			
0.7425	47520.73	3.3620	3.3622	-0.6277	7.86	1.87	-0.750			
0.7444	47639.99	3.3590	3.3590	-0.6117	7.87	1.88	-0.750			
0.7462	47754.28	3.3560	3.3559	-0.5898	7.88	1.89	-0.750			
0.7479	47862.79	3.3530	3.3530	-0.5667	7.88	1.89	-0.750			
0.7495	47969.78	3.3500	3.3500	-0.5540	7.89	1.90	-0.750			
0.7512	48077.08	3.3470	3.3470	-0.5401	7.90	1.91	-0.750			
0.7528	48179.06	3.3440	3.3440	-0.5216	7.91	1.92	-0.750			
0.7543	48278.20	3.3410	3.3410	-0.5057	7.92	1.93	-0.750			
0.7558	48372.48	3.3380	3.3381	-0.4860	7.92	1.93	-0.750			
0.7572	48463.83	3.3350	3.3349	-0.4692	7.93	1.94	-0.750			
0.7586	48551.93	3.3320	3.3320	-0.4546	7.94	1.95	-0.750			
0.7599	48636.37	3.3290	3.3290	-0.4396	7.95	1.96	-0.750			
0.7612	48719.94	3.3260	3.3260	-0.4298	7.96	1.97	-0.750			
0.7625	48801.07	3.3230	3.3230	-0.4183	7.97	1.98	-0.750			
0.7638	48880.14	3.3200	3.3200	-0.4092	7.97	1.98	-0.750			
0.7650	48957.90	3.3170	3.3171	-0.4007	7.98	1.99	-0.750			
0.7662	49034.68	3.3140	3.3140	-0.3903	7.99	2.00	-0.750			
0.7673	49108.68	3.3110	3.3110	-0.3789	8.00	2.01	-0.750			
0.7684	49180.40	3.3080	3.3080	-0.3690	8.00	2.01	-0.750			
0.7695	49249.57	3.3050	3.3051	-0.3589	8.01	2.02	-0.750			
0.7706	49317.55	3.3020	3.3019	-0.3495	8.02	2.03	-0.750			
0.7716	49383.49	3.2990	3.2990	-0.3388	8.03	2.04	-0.750			
0.7726	49448.19	3.2960	3.2960	-0.3288	8.03	2.04	-0.750			
0.7736	49510.51	3.2930	3.2930	-0.3230	8.04	2.05	-0.750			
0.7746	49571.35	3.2900	3.2900	-0.3135	8.05	2.06	-0.750			
0.7755	49630.03	3.2870	3.2869	-0.3031	8.05	2.06	-0.750			
0.7764	49687.29	3.2840	3.2840	-0.2956	8.06	2.07	-0.750			
0.7772	49743.09	3.2810	3.2811	-0.2895	8.07	2.08	-0.750			
0.7781	49798.07	3.2780	3.2779	-0.2838	8.07	2.08	-0.750			
0.7789	49852.16	3.2750	3.2750	-0.2791	8.08	2.09	-0.750			
0.7798	49904.60	3.2720	3.2720	-0.2722	8.09	2.10	-0.750			
0.7806	49956.86	3.2690	3.2691	-0.2689	8.09	2.10	-0.750			
0.7814	50008.60	3.2660	3.2660	-0.2630	8.10	2.11	-0.750			
0.7822	50058.18	3.2630	3.2630	-0.2570	8.11	2.12	-0.750			
0.7829	50106.70	3.2600	3.2600	-0.2510	8.11	2.12	-0.750			
0.7837	50154.16	3.2570	3.2570	-0.2463	8.12	2.13	-0.750			
0.7844	50201.22	3.2540	3.2540	-0.2399	8.13	2.14	-0.750			
0.7851	50246.90	3.2510	3.2510	-0.2346	8.13	2.14	-0.750			
0.7858	50291.50	3.2480	3.2480	-0.2292	8.14	2.15	-0.750			
0.7865	50334.74	3.2450	3.2452	-0.2252	8.15	2.16	-0.750			
0.7871	50376.91	3.2420	3.2420	-0.2199	8.15	2.16	-0.750			
0.7878	50418.78	3.2390	3.2388	-0.2163	8.16	2.17	-0.750			
0.7884	50459.53	3.2360	3.2360	-0.2134	8.16	2.17	-0.750			
0.7891	50500.04	3.2330	3.2330	-0.2098	8.17	2.18	-0.750			
0.7897	50540.67	3.2300	3.2300	-0.2086	8.18	2.19	-0.750			
0.7903	50580.40	3.2270	3.2270	-0.2052	8.18	2.19	-0.750			
0.7909	50619.44	3.2240	3.2240	-0.2021	8.19	2.20	-0.750			
0.7915	50657.86	3.2210	3.2210	-0.1985	8.19	2.20	-0.750			
0.7921	50696.22	3.2180	3.2179	-0.1945	8.20	2.21	-0.750			
0.7927	50733.24	3.2150	3.2150	-0.1893	8.21	2.22	-0.750			
0.7933	50769.28	3.2120	3.2120	-0.1843	8.21	2.22	-0.750			
0.7938	50804.03	3.2090	3.2091	-0.1812	8.22	2.23	-0.750			
0.7943	50837.75	3.2060	3.2060	-0.1771	8.22	2.23	-0.750			
0.7949	50871.08	3.2030	3.2028	-0.1735	8.23	2.24	-0.750			
0.7954	50904.23	3.2000	3.2000	-0.1718	8.24	2.25	-0.750			
0.7959	50936.86	3.1970	3.1971	-0.1694	8.24	2.25	-0.750			
0.7964	50969.87	3.1940	3.1940	-0.1677	8.25	2.26	-0.750			
0.7969	51002.20	3.1910	3.1910	-0.1652	8.25	2.26	-0.750			
0.7974	51033.41	3.1880	3.1880	-0.1622	8.26	2.27	-0.750			
0.7979	51063.72	3.1850	3.1851	-0.1596	8.26	2.27	-0.750			
0.7983	51094.12	3.1820	3.1821	-0.1573	8.27	2.28	-0.750			
0.7988	51124.03	3.1790	3.1789	-0.1552	8.27	2.28	-0.750			
0.7993	51153.70	3.1760	3.1760	-0.1534	8.27	2.28	-0.750			
0.7997	51183.05	3.1730	3.1731	-0.1511	8.28	2.29	-0.750			
0.8002	51212.15	3.1700	3.1700	-0.1493	8.28	2.29	-0.750			
0.8006	51240.56	3.1670	3.1670	-0.1466	8.29	2.30	-0.750			
0.8011	51268.38	3.1640	3.1640	-0.1445	8.29	2.30	-0.750			
0.8015	51295.76	3.1610	3.1610	-0.1419	8.30	2.31	-0.750			
0.8019	51322.74	3.1580	3.1580	-0.1401	8.30	2.31	-0.750			
0.8023	51349.45	3.1550	3.1550	-0.1381	8.31	2.32	-0.750			
0.8027	51375.63	3.1520	3.1520	-0.1364	8.31	2.32	-0.750			
0.8032	51401.71	3.1490	3.1489	-0.1346	8.31	2.32	-0.750			
0.8036	51427.41	3.1460	3.1459	-0.1329	8.32	2.33	-0.750			
0.8039	51452.74	3.1430	3.1431	-0.1313	8.32	2.33	-0.750			
0.8043	51477.66	3.1400	3.1400	-0.1299	8.33	2.34	-0.750			
0.8047	51502.55	3.1370	3.1370	-0.1286	8.33	2.34	-0.750			
0.8051	51527.02	3.1340	3.1340	-0.1268	8.34	2.35	-0.750			
0.8055	51551.48	3.1310	3.1310	-0.1247	8.34	2.35	-0.750			
0.8059	51575.40	3.1280	3.1280	-0.1229	8.35	2.36	-0.750			
0.8062	51598.40	3.1250	3.1251	-0.1221	8.35	2.36	-0.750			
0.8066	51621.73	3.1220	3.1221	-0.1209	8.36	2.37	-0.750			
0.8069	51644.71	3.1190	3.1189	-0.1193	8.36	2.37	-0.750			
0.8073	51667.26	3.1160	3.1159	-0.1178	8.37	2.38	-0.750			
0.8077	51690.07	3.1130	3.1129	-0.1165	8.37	2.38	-0.750			
0.8080	51712.46	3.1100	3.1101	-0.1156	8.38	2.39	-0.750			
0.8084	51734.55	3.1070	3.1072	-0.1141	8.38	2.39	-0.750			
0.8087	51756.85	3.1040	3.1040	-0.1132	8.38	2.39	-0.750			
0.8090	51778.15	3.1010	3.1009	-0.1118	8.39	2.40	-0.750			
0.8094	51798.88	3.0980	3.0980	-0.1094	8.39	2.40	-0.750			
0.8097	51819.74	3.0950	3.0950	-0.1087	8.40	2.41	-0.750			
0.8100	51840.51	3.0920	3.0921	-0.1079	8.40	2.41	-0.750			
0.8103	51861.26	3.0890	3.0890	-0.1069	8.41	2.42	-0.750			
0.8107	51881.74	3.0860	3.0860	-0.1061	8.41	2.42	-0.750			
0.8110	51902.04	3.0830	3.0830	-0.1051	8.42	2.43	-0.750			
0.8113	51922.19	3.0800	3.0801	-0.1042	8.42	2.43	-0.750			
0.8116	51942.08	3.0770	3.0770	-0.1032	8.42	2.43	-0.750			
0.8119	51961.84	3.0740	3.0740	-0.1022	8.43	2.44	-0.750			
0.8122	51981.33	3.0710	3.0710	-0.1012	8.43	2.44	-0.750			
0.8125	52000.54	3.0680	3.0680	-0.1000	8.44	2.45	-0.750			
0.8128	52019.62	3.0650	3.0649	-0.0993	8.44	2.45	-0.750			
0.8131	52038.63	3.0620	3.0620	-0.0986	8.44	2.45	-0.750			
0.8134	52057.54	3.0590	3.0590	-0.0976	8.45	2.46	-0.750			
0.8137	52076.19	3.0560	3.0560	-0.0967	8.45	2.46	-0.750			
0.8140	52094.67	3.0530	3.0530	-0.0958	8.46	2.47	-0.750			
0.8143	52113.03	3.0500	3.0500	-0.0949	8.46	2.47	-0.750			
0.8145	52131.17	3.0470	3.0471	-0.0939	8.46	2.47	-0.750			
0.8148	52149.15	3.0440	3.0440	-0.0929	8.47	2.48	-0.750			
0.8151	52166.77	3.0410	3.0409	-0.0923	8.47	2.48	-0.750			
0.8154	52184.24	3.0380	3.0381	-0.0913	8.48	2.49	-0.750			
0.8157	52201.78	3.0350	3.0350	-0.0905	8.48	2.49	-0.750			
0.8159	52219.12	3.0320	3.0319	-0.0898	8.48	2.49	-0.750			
0.8162	52236.27	3.0290	3.0290	-0.0891	8.49	2.50	-0.750			
0.8165	52253.29	3.0260	3.0260	-0.0884	8.49	2.50	-0.750			
0.8167	52270.14	3.0230	3.0231	-0.0879	8.49	2.50	-0.750			
0.8170	52286.97	3.0200	3.0200	-0.0874	8.50	2.51	-0.750			
0.8172	52303.69	3.0170	3.0169	-0.0868	8.50	2.51	-0.750			
0.8175	52320.26	3.0140	3.0141	-0.0857	8.50	2.51	-0.750			
0.8178	52336.65	3.0110	3.0110	-0.0851	8.51	2.52	-0.750			
0.8180	52353.14	3.0080	3.0081	-0.0841	8.51	2.52	-0.750			
0.8183	52369.18	3.0050	3.0050	-0.0829	8.52	2.53	-0.750			
0.8185	52384.91	3.0020	3.0020	-0.0797	8.52	2.53	-0.750			
