Ah_balance (normalized)	Ah_balance (mAh)	Voltage - fit (V)	Voltage -  interpolate (V)	dQ/dV (1/V)	Temperature (°C)	Temperature - diff (°C)	Current (C)	R_DC 0ms (mOhm)	R_DC 50ms (mOhm)	R_DC 50 ms PEC (mOhm)
0.0993	6354.07	4.1960	4.1980	0.5756	8.23	2.25	0.750			
0.1013	6480.47	4.1930	4.1953	0.6997	8.23	2.25	0.750			
0.1037	6634.45	4.1900	4.1917	0.7659	8.22	2.24	0.750			
0.1062	6796.87	4.1870	4.1883	0.8054	8.21	2.23	0.750			
0.1085	6943.85	4.1840	4.1849	0.7691	8.20	2.22	0.750			
0.1111	7110.24	4.1810	4.1813	0.7828	8.19	2.21	0.750			
0.1134	7256.48	4.1780	4.1781	0.6996	8.19	2.21	0.750			
0.1155	7391.66	4.1750	4.1750	0.6995	8.18	2.20	0.750			
0.1176	7524.42	4.1720	4.1721	0.6973	8.17	2.19	0.750			
0.1197	7659.13	4.1690	4.1691	0.6991	8.17	2.19	0.750			
0.1218	7793.16	4.1660	4.1659	0.7071	8.16	2.18	0.750			
0.1239	7927.52	4.1630	4.1630	0.7117	8.15	2.17	0.750			
0.1260	8065.10	4.1600	4.1602	0.7163	8.15	2.17	0.750			
0.1282	8206.19	4.1570	4.1567	0.7269	8.14	2.16	0.750			
0.1304	8346.49	4.1540	4.1540	0.7277	8.13	2.15	0.750			
0.1326	8486.74	4.1510	4.1511	0.7234	8.12	2.14	0.750			
0.1348	8624.69	4.1480	4.1480	0.7218	8.12	2.14	0.750			
0.1369	8763.13	4.1450	4.1450	0.7195	8.11	2.13	0.750			
0.1391	8899.39	4.1420	4.1421	0.7245	8.10	2.12	0.750			
0.1412	9039.43	4.1390	4.1390	0.7336	8.10	2.12	0.750			
0.1435	9182.22	4.1360	4.1359	0.7398	8.09	2.11	0.750			
0.1457	9326.78	4.1330	4.1332	0.7380	8.09	2.11	0.750			
0.1480	9469.10	4.1300	4.1300	0.7427	8.08	2.10	0.750			
0.1502	9610.42	4.1270	4.1271	0.7391	8.08	2.10	0.750			
0.1523	9750.24	4.1240	4.1238	0.7423	8.07	2.09	0.750			
0.1545	9891.09	4.1210	4.1209	0.7499	8.06	2.08	0.750			
0.1568	10036.95	4.1180	4.1181	0.7564	8.06	2.08	0.750			
0.1591	10184.37	4.1150	4.1150	0.7607	8.05	2.07	0.750			
0.1615	10334.31	4.1120	4.1120	0.7669	8.04	2.06	0.750			
0.1638	10480.35	4.1090	4.1092	0.7637	8.04	2.06	0.750			
0.1660	10626.05	4.1060	4.1059	0.7670	8.03	2.05	0.750			
0.1683	10772.50	4.1030	4.1029	0.7668	8.02	2.04	0.750			
0.1706	10918.52	4.1000	4.1000	0.7641	8.02	2.04	0.750			
0.1729	11065.96	4.0970	4.0971	0.7681	8.01	2.03	0.750			
0.1752	11215.17	4.0940	4.0940	0.7778	8.01	2.03	0.750			
0.1776	11363.86	4.0910	4.0909	0.7835	8.00	2.02	0.750			
0.1799	11515.36	4.0880	4.0880	0.7802	7.99	2.01	0.750			
0.1823	11665.70	4.0850	4.0850	0.7800	7.98	2.00	0.750			
0.1846	11815.82	4.0820	4.0821	0.7926	7.97	1.99	0.750			
0.1870	11968.27	4.0790	4.0791	0.7995	7.96	1.98	0.750			
0.1894	12120.24	4.0760	4.0758	0.8044	7.95	1.97	0.750			
0.1918	12275.49	4.0730	4.0731	0.8082	7.95	1.97	0.750			
0.1943	12434.47	4.0700	4.0700	0.8082	7.94	1.96	0.750			
0.1967	12591.82	4.0670	4.0670	0.8095	7.93	1.95	0.750			
0.1991	12745.46	4.0640	4.0641	0.8098	7.93	1.95	0.750			
0.2015	12897.60	4.0610	4.0612	0.8081	7.92	1.94	0.750			
0.2039	13052.56	4.0580	4.0579	0.8169	7.92	1.94	0.750			
0.2064	13209.57	4.0550	4.0549	0.8189	7.91	1.93	0.750			
0.2089	13368.03	4.0520	4.0521	0.8324	7.90	1.92	0.750			
0.2114	13532.19	4.0490	4.0491	0.8451	7.89	1.91	0.750			
0.2140	13694.15	4.0460	4.0460	0.8430	7.88	1.90	0.750			
0.2165	13856.70	4.0430	4.0429	0.8408	7.87	1.89	0.750			
0.2190	14018.00	4.0400	4.0401	0.8372	7.86	1.88	0.750			
0.2215	14177.24	4.0370	4.0372	0.8404	7.86	1.88	0.750			
0.2240	14338.85	4.0340	4.0339	0.8468	7.85	1.87	0.750			
0.2265	14497.76	4.0310	4.0310	0.8463	7.84	1.86	0.750			
0.2291	14662.79	4.0280	4.0280	0.8567	7.84	1.86	0.750			
0.2317	14829.35	4.0250	4.0250	0.8647	7.83	1.85	0.750			
0.2343	14997.14	4.0220	4.0220	0.8669	7.82	1.84	0.750			
0.2370	15165.47	4.0190	4.0190	0.8673	7.81	1.83	0.750			
0.2395	15328.93	4.0160	4.0160	0.8692	7.80	1.82	0.750			
0.2421	15494.94	4.0130	4.0129	0.8717	7.79	1.81	0.750			
0.2447	15661.96	4.0100	4.0100	0.8761	7.78	1.80	0.750			
0.2474	15831.35	4.0070	4.0070	0.8801	7.77	1.79	0.750			
0.2500	16001.92	4.0040	4.0041	0.8865	7.76	1.78	0.750			
0.2527	16172.99	4.0010	4.0007	0.8904	7.75	1.77	0.750			
0.2554	16345.03	3.9980	3.9980	0.8932	7.74	1.76	0.750			
0.2580	16513.65	3.9950	3.9951	0.9002	7.73	1.75	0.750			
0.2607	16686.71	3.9920	3.9920	0.9092	7.72	1.74	0.750			
0.2635	16863.38	3.9890	3.9891	0.9127	7.71	1.73	0.750			
0.2662	17039.10	3.9860	3.9859	0.9223	7.70	1.72	0.750			
0.2690	17217.34	3.9830	3.9832	0.9199	7.69	1.71	0.750			
0.2718	17395.13	3.9800	3.9800	0.9239	7.68	1.70	0.750			
0.2746	17571.75	3.9770	3.9770	0.9276	7.68	1.70	0.750			
0.2773	17748.50	3.9740	3.9740	0.9312	7.67	1.69	0.750			
0.2801	17929.43	3.9710	3.9710	0.9310	7.66	1.68	0.750			
0.2829	18108.32	3.9680	3.9680	0.9361	7.65	1.67	0.750			
0.2857	18285.95	3.9650	3.9651	0.9428	7.64	1.66	0.750			
0.2886	18468.62	3.9620	3.9620	0.9568	7.63	1.65	0.750			
0.2914	18652.66	3.9590	3.9589	0.9569	7.62	1.64	0.750			
0.2943	18836.49	3.9560	3.9561	0.9703	7.60	1.62	0.750			
0.2972	19023.34	3.9530	3.9531	0.9824	7.59	1.61	0.750			
0.3002	19215.61	3.9500	3.9500	0.9918	7.58	1.60	0.750			
0.3032	19406.91	3.9470	3.9469	0.9903	7.57	1.59	0.750			
0.3062	19595.97	3.9440	3.9441	0.9982	7.56	1.58	0.750			
0.3092	19788.96	3.9410	3.9411	1.0038	7.55	1.57	0.750			
0.3122	19982.76	3.9380	3.9380	1.0128	7.54	1.56	0.750			
0.3152	20175.09	3.9350	3.9346	1.0167	7.53	1.55	0.750			
0.3183	20371.08	3.9320	3.9322	1.0243	7.52	1.54	0.750			
0.3214	20569.48	3.9290	3.9290	1.0366	7.51	1.53	0.750			
0.3245	20770.12	3.9260	3.9260	1.0510	7.49	1.51	0.750			
0.3277	20972.75	3.9230	3.9227	1.0590	7.48	1.50	0.750			
0.3309	21176.84	3.9200	3.9201	1.0719	7.47	1.49	0.750			
0.3341	21384.25	3.9170	3.9169	1.0748	7.46	1.48	0.750			
0.3374	21592.05	3.9140	3.9141	1.0833	7.44	1.46	0.750			
0.3406	21799.62	3.9110	3.9109	1.0836	7.43	1.45	0.750			
0.3439	22007.42	3.9080	3.9079	1.1015	7.42	1.44	0.750			
0.3472	22218.47	3.9050	3.9050	1.1112	7.40	1.42	0.750			
0.3505	22434.16	3.9020	3.9020	1.1268	7.39	1.41	0.750			
0.3539	22652.55	3.8990	3.8991	1.1457	7.38	1.40	0.750			
0.3574	22874.96	3.8960	3.8961	1.1666	7.36	1.38	0.750			
0.3609	23099.46	3.8930	3.8930	1.1838	7.35	1.37	0.750			
0.3646	23333.95	3.8900	3.8898	1.1789	7.33	1.35	0.750			
0.3681	23558.05	3.8870	3.8871	1.2014	7.32	1.34	0.750			
0.3717	23788.89	3.8840	3.8841	1.2256	7.30	1.32	0.750			
0.3754	24024.66	3.8810	3.8810	1.2487	7.29	1.31	0.750			
0.3792	24266.22	3.8780	3.8778	1.2606	7.27	1.29	0.750	0.373	0.806	
0.3830	24512.85	3.8750	3.8751	1.2809	7.26	1.28	0.750			
0.3869	24764.44	3.8720	3.8721	1.2964	7.24	1.26	0.750			
0.3909	25018.12	3.8690	3.8690	1.2985	7.23	1.25	0.750			
0.3947	25260.82	3.8660	3.8661	1.2951	7.21	1.23	0.750			
0.3985	25503.77	3.8630	3.8631	1.3166	7.20	1.22	0.750			
0.4025	25760.10	3.8600	3.8597	1.3352	7.18	1.20	0.750			
0.4065	26017.95	3.8570	3.8569	1.3699	7.16	1.18	0.750			
0.4107	26283.86	3.8540	3.8542	1.3983	7.14	1.16	0.750			
0.4150	26562.91	3.8510	3.8507	1.4225	7.12	1.14	0.750			
0.4193	26835.42	3.8480	3.8481	1.4363	7.10	1.12	0.750			
0.4237	27113.82	3.8450	3.8451	1.4673	7.09	1.11	0.750			
0.4280	27392.54	3.8420	3.8418	1.4910	7.07	1.09	0.750			
0.4326	27685.11	3.8390	3.8389	1.5137	7.05	1.07	0.750			
0.4372	27980.99	3.8360	3.8360	1.5268	7.03	1.05	0.750			
0.4419	28280.54	3.8330	3.8331	1.5427	7.00	1.02	0.750			
0.4465	28578.84	3.8300	3.8301	1.5464	6.99	1.01	0.750			
0.4511	28870.36	3.8270	3.8270	1.5640	6.97	0.99	0.750			
0.4558	29169.78	3.8240	3.8237	1.5959	6.95	0.97	0.750			
0.4606	29478.81	3.8210	3.8211	1.6157	6.92	0.94	0.750			
0.4656	29799.30	3.8180	3.8181	1.6303	6.90	0.92	0.750			
0.4707	30122.02	3.8150	3.8150	1.6575	6.88	0.90	0.750			
0.4756	30441.11	3.8120	3.8119	1.6579	6.86	0.88	0.750			
0.4804	30746.76	3.8090	3.8093	1.6653	6.84	0.86	0.750			
0.4855	31069.65	3.8060	3.8058	1.6911	6.81	0.83	0.750			
0.4905	31392.95	3.8030	3.8029	1.6983	6.79	0.81	0.750			
0.4957	31722.53	3.8000	3.8000	1.7315	6.77	0.79	0.750			
0.5010	32062.67	3.7970	3.7972	1.7816	6.75	0.77	0.750			
0.5064	32408.77	3.7940	3.7942	1.7884	6.72	0.74	0.750			
0.5119	32760.15	3.7910	3.7911	1.7764	6.70	0.72	0.750			
0.5171	33097.37	3.7880	3.7882	1.7744	6.67	0.69	0.750			
0.5225	33437.83	3.7850	3.7851	1.8259	6.65	0.67	0.750			
0.5278	33779.55	3.7820	3.7815	1.8730	6.63	0.65	0.750			
0.5334	34137.64	3.7790	3.7790	1.9259	6.61	0.63	0.750			
0.5393	34516.37	3.7760	3.7762	2.0281	6.58	0.60	0.750			
0.5458	34930.44	3.7730	3.7730	2.1497	6.55	0.57	0.750			
0.5522	35343.28	3.7700	3.7698	2.1796	6.52	0.54	0.750			
0.5588	35764.83	3.7670	3.7671	2.2234	6.50	0.52	0.750			
0.5656	36200.34	3.7640	3.7639	2.3330	6.47	0.49	0.750			
0.5727	36653.93	3.7610	3.7610	2.4245	6.44	0.46	0.750			
0.5800	37121.25	3.7580	3.7581	2.5065	6.41	0.43	0.750			
0.5879	37623.41	3.7550	3.7550	2.6716	6.38	0.40	0.750			
0.5961	38147.23	3.7520	3.7518	2.7893	6.35	0.37	0.750			
0.6046	38696.52	3.7490	3.7491	2.8990	6.31	0.33	0.750			
0.6136	39268.30	3.7460	3.7459	3.0100	6.29	0.31	0.750			
0.6227	39851.42	3.7430	3.7430	2.9919	6.26	0.28	0.750			
0.6319	40442.14	3.7400	3.7400	2.9995	6.23	0.25	0.750			
0.6409	41019.10	3.7370	3.7367	2.7945	6.20	0.22	0.750			
0.6491	41543.87	3.7340	3.7340	2.5462	6.17	0.19	0.750			
0.6562	41998.08	3.7310	3.7313	2.2273	6.15	0.17	0.750			
0.6621	42375.26	3.7280	3.7283	1.9036	6.13	0.15	0.750			
0.6673	42706.85	3.7250	3.7249	1.6551	6.11	0.13	0.750			
0.6716	42985.00	3.7220	3.7220	1.4690	6.10	0.12	0.750			
0.6756	43240.84	3.7190	3.7191	1.3427	6.09	0.11	0.750			
0.6793	43475.74	3.7160	3.7161	1.2526	6.08	0.10	0.750			
0.6829	43704.71	3.7130	3.7129	1.1929	6.07	0.09	0.750			
0.6863	43926.37	3.7100	3.7100	1.1551	6.07	0.09	0.750			
0.6898	44148.32	3.7070	3.7068	1.1294	6.06	0.08	0.750			
0.6932	44364.29	3.7040	3.7041	1.0966	6.05	0.07	0.750			
0.6964	44569.94	3.7010	3.7010	1.0644	6.05	0.07	0.750			
0.6995	44766.92	3.6980	3.6981	1.0345	6.04	0.06	0.750			
0.7025	44961.70	3.6950	3.6948	1.0239	6.03	0.05	0.750			
0.7055	45154.65	3.6920	3.6920	0.9986	6.03	0.05	0.750			
0.7085	45345.94	3.6890	3.6890	0.9808	6.02	0.04	0.750			
0.7115	45537.42	3.6860	3.6859	0.9641	6.02	0.04	0.750			
0.7144	45718.73	3.6830	3.6833	0.9379	6.01	0.03	0.750			
0.7171	45897.32	3.6800	3.6800	0.9169	6.01	0.03	0.750			
0.7198	46066.94	3.6770	3.6770	0.8959	6.00	0.02	0.750			
0.7225	46237.01	3.6740	3.6739	0.8820	6.00	0.02	0.750			
0.7251	46405.67	3.6710	3.6710	0.8751	5.99	0.01	0.750			
0.7277	46570.58	3.6680	3.6679	0.8656	5.99	0.01	0.750			
0.7303	46736.94	3.6650	3.6652	0.8644	5.99	0.01	0.750			
0.7328	46901.20	3.6620	3.6620	0.8610	5.99	0.01	0.750			
0.7354	47066.49	3.6590	3.6589	0.8585	5.98	0.00	0.750			
0.7380	47232.97	3.6560	3.6560	0.8449	5.98	0.00	0.750			
0.7406	47396.60	3.6530	3.6530	0.8317	5.98	0.00	0.750			
0.7431	47557.23	3.6500	3.6501	0.7984	5.98	0.00	0.750			
0.7455	47711.98	3.6470	3.6469	0.7535	5.98	0.00	0.750			
0.7478	47856.23	3.6440	3.6439	0.6816	5.98	0.00	0.750			
0.7497	47983.09	3.6410	3.6412	0.6063	5.98	0.00	0.750			
0.7515	48093.52	3.6380	3.6381	0.5246	5.98	0.00	0.750			
0.7527	48170.29	3.6350	3.6354	0.4542	5.98	0.00	0.750			
0.7539	48249.75	3.6320	3.6322	0.3709	5.98	0.00	0.750			
0.7549	48313.52	3.6290	3.6292	0.3065	5.98	0.00	0.750			
0.7557	48363.00	3.6260	3.6255	0.2432	5.98	0.00	0.750			
0.7563	48401.61	3.6230	3.6202	0.1900	5.98	0.00	0.750			
0.7566	48419.49	3.6200	3.5890	0.1263	5.98	0.00	0.750			
0.7566	48421.83	3.5990	3.5587	-0.1029	5.98	0.00	0.750			
0.7568	48432.67	3.6170	3.4101	0.0841	5.98	0.00	0.750			
0.7569	48438.59	3.6020	3.3290	-0.0717	5.98	0.00	0.750			
0.7570	48445.82	3.6140	3.2300	0.0529	5.98	0.00	0.750			
0.7570	48449.37	3.6050	3.1813	-0.0406	5.98	0.00	0.750			
0.7571	48452.99	3.6110	3.1318	0.0217	5.98	0.00	0.750			
0.7571	48454.17	3.6080	3.1156	-0.0094	5.98	0.00	0.750			
