Ah_balance (normalized)	Ah_balance (mAh)	Voltage - fit (V)	Voltage -  interpolate (V)	dQ/dV (1/V)	Temperature (°C)	Temperature - diff (°C)	Current (C)	R_DC 0ms (mOhm)	R_DC 50ms (mOhm)	R_DC 50 ms PEC (mOhm)
0.1006	6435.41	4.1960	4.1982	0.5335	8.02	2.03	0.750			
0.1024	6555.68	4.1930	4.1952	0.6702	8.01	2.02	0.750			
0.1048	6706.32	4.1900	4.1920	0.7456	8.01	2.02	0.750			
0.1073	6867.22	4.1870	4.1884	0.7921	8.00	2.01	0.750			
0.1096	7011.85	4.1840	4.1849	0.7514	8.00	2.01	0.750			
0.1121	7173.51	4.1810	4.1815	0.7682	7.99	2.00	0.750			
0.1144	7321.35	4.1780	4.1781	0.6907	7.99	2.00	0.750			
0.1165	7454.95	4.1750	4.1749	0.6957	7.98	1.99	0.750			
0.1185	7586.29	4.1720	4.1720	0.6979	7.98	1.99	0.750			
0.1206	7720.71	4.1690	4.1691	0.7046	7.97	1.98	0.750			
0.1228	7858.40	4.1660	4.1660	0.7152	7.97	1.98	0.750			
0.1250	7996.91	4.1630	4.1629	0.7187	7.97	1.98	0.750			
0.1271	8135.69	4.1600	4.1600	0.7120	7.96	1.97	0.750			
0.1293	8272.98	4.1570	4.1570	0.7132	7.96	1.97	0.750			
0.1314	8409.29	4.1540	4.1541	0.7147	7.96	1.97	0.750			
0.1336	8547.27	4.1510	4.1512	0.7121	7.95	1.96	0.750			
0.1357	8681.73	4.1480	4.1478	0.7162	7.94	1.95	0.750			
0.1378	8817.62	4.1450	4.1450	0.7190	7.94	1.95	0.750			
0.1400	8957.96	4.1420	4.1422	0.7285	7.93	1.94	0.750			
0.1422	9100.73	4.1390	4.1388	0.7367	7.93	1.94	0.750			
0.1444	9241.29	4.1360	4.1361	0.7324	7.93	1.94	0.750			
0.1466	9381.84	4.1330	4.1331	0.7313	7.92	1.93	0.750			
0.1488	9522.25	4.1300	4.1300	0.7378	7.92	1.93	0.750			
0.1510	9662.41	4.1270	4.1269	0.7441	7.92	1.93	0.750			
0.1532	9805.26	4.1240	4.1239	0.7502	7.91	1.92	0.750			
0.1555	9951.94	4.1210	4.1210	0.7517	7.91	1.92	0.750			
0.1578	10099.46	4.1180	4.1181	0.7576	7.90	1.91	0.750			
0.1601	10245.28	4.1150	4.1151	0.7543	7.90	1.91	0.750			
0.1623	10388.18	4.1120	4.1120	0.7560	7.89	1.90	0.750			
0.1645	10530.50	4.1090	4.1090	0.7586	7.89	1.90	0.750			
0.1668	10676.31	4.1060	4.1057	0.7658	7.88	1.89	0.750			
0.1692	10826.25	4.1030	4.1030	0.7721	7.87	1.88	0.750			
0.1715	10976.31	4.1000	4.1001	0.7756	7.87	1.88	0.750			
0.1739	11127.50	4.0970	4.0970	0.7768	7.86	1.87	0.750			
0.1762	11276.89	4.0940	4.0941	0.7751	7.86	1.87	0.750			
0.1785	11421.47	4.0910	4.0909	0.7771	7.85	1.86	0.750			
0.1808	11572.09	4.0880	4.0880	0.7773	7.85	1.86	0.750			
0.1832	11721.77	4.0850	4.0849	0.7818	7.84	1.85	0.750			
0.1855	11870.86	4.0820	4.0821	0.7912	7.84	1.85	0.750			
0.1879	12025.37	4.0790	4.0790	0.7937	7.83	1.84	0.750			
0.1903	12178.67	4.0760	4.0760	0.8008	7.82	1.83	0.750			
0.1927	12331.19	4.0730	4.0730	0.8059	7.82	1.83	0.750			
0.1951	12487.28	4.0700	4.0701	0.8070	7.81	1.82	0.750			
0.1976	12645.45	4.0670	4.0670	0.8140	7.81	1.82	0.750			
0.2000	12800.41	4.0640	4.0640	0.8110	7.80	1.81	0.750			
0.2025	12956.81	4.0610	4.0611	0.8065	7.79	1.80	0.750			
0.2049	13113.12	4.0580	4.0580	0.8079	7.79	1.80	0.750			
0.2073	13264.38	4.0550	4.0550	0.8071	7.78	1.79	0.750			
0.2096	13417.60	4.0520	4.0520	0.8104	7.78	1.79	0.750			
0.2121	13574.94	4.0490	4.0489	0.8193	7.77	1.78	0.750			
0.2146	13731.81	4.0460	4.0459	0.8304	7.77	1.78	0.750			
0.2171	13893.27	4.0430	4.0431	0.8414	7.76	1.77	0.750			
0.2197	14060.29	4.0400	4.0398	0.8380	7.76	1.77	0.750			
0.2222	14222.70	4.0370	4.0369	0.8417	7.75	1.76	0.750			
0.2247	14382.51	4.0340	4.0342	0.8397	7.75	1.76	0.750			
0.2272	14539.65	4.0310	4.0311	0.8520	7.74	1.75	0.750			
0.2297	14703.19	4.0280	4.0280	0.8636	7.74	1.75	0.750			
0.2324	14871.32	4.0250	4.0249	0.8600	7.73	1.74	0.750			
0.2350	15039.85	4.0220	4.0221	0.8714	7.73	1.74	0.750			
0.2377	15209.93	4.0190	4.0192	0.8749	7.72	1.73	0.750			
0.2403	15377.85	4.0160	4.0159	0.8707	7.71	1.72	0.750			
0.2429	15542.74	4.0130	4.0130	0.8671	7.71	1.72	0.750			
0.2454	15708.60	4.0100	4.0101	0.8597	7.70	1.71	0.750			
0.2480	15873.26	4.0070	4.0070	0.8673	7.70	1.71	0.750			
0.2506	16041.46	4.0040	4.0041	0.8752	7.69	1.70	0.750			
0.2532	16206.71	4.0010	4.0010	0.8806	7.68	1.69	0.750			
0.2559	16376.10	3.9980	3.9981	0.8943	7.68	1.69	0.750			
0.2586	16549.41	3.9950	3.9950	0.9036	7.67	1.68	0.750			
0.2614	16726.54	3.9920	3.9920	0.9077	7.66	1.67	0.750			
0.2642	16906.95	3.9890	3.9890	0.9105	7.65	1.66	0.750			
0.2669	17078.68	3.9860	3.9859	0.9045	7.64	1.65	0.750			
0.2696	17253.06	3.9830	3.9831	0.9003	7.63	1.64	0.750			
0.2722	17422.28	3.9800	3.9800	0.9063	7.63	1.64	0.750			
0.2749	17592.54	3.9770	3.9770	0.9136	7.62	1.63	0.750			
0.2776	17766.35	3.9740	3.9740	0.9273	7.61	1.62	0.750			
0.2805	17949.11	3.9710	3.9709	0.9441	7.61	1.62	0.750			
0.2834	18136.32	3.9680	3.9681	0.9490	7.60	1.61	0.750			
0.2862	18316.19	3.9650	3.9650	0.9518	7.59	1.60	0.750			
0.2891	18501.29	3.9620	3.9622	0.9570	7.59	1.60	0.750			
0.2919	18682.05	3.9590	3.9587	0.9612	7.58	1.59	0.750			
0.2948	18865.05	3.9560	3.9559	0.9640	7.57	1.58	0.750			
0.2977	19051.38	3.9530	3.9531	0.9716	7.56	1.57	0.750			
0.3006	19240.57	3.9500	3.9499	0.9860	7.55	1.56	0.750			
0.3036	19431.09	3.9470	3.9470	0.9885	7.54	1.55	0.750			
0.3066	19622.32	3.9440	3.9440	0.9829	7.53	1.54	0.750			
0.3096	19812.09	3.9410	3.9410	0.9926	7.53	1.54	0.750			
0.3125	19999.28	3.9380	3.9382	0.9973	7.52	1.53	0.750			
0.3155	20190.74	3.9350	3.9349	1.0078	7.51	1.52	0.750			
0.3185	20386.61	3.9320	3.9320	1.0224	7.51	1.52	0.750			
0.3216	20582.49	3.9290	3.9290	1.0327	7.50	1.51	0.750			
0.3247	20783.96	3.9260	3.9260	1.0463	7.49	1.50	0.750			
0.3279	20988.26	3.9230	3.9231	1.0680	7.48	1.49	0.750			
0.3311	21193.13	3.9200	3.9200	1.0654	7.48	1.49	0.750			
0.3343	21397.62	3.9170	3.9170	1.0765	7.47	1.48	0.750			
0.3376	21606.47	3.9140	3.9140	1.0909	7.46	1.47	0.750			
0.3409	21818.00	3.9110	3.9110	1.0994	7.45	1.46	0.750			
0.3442	22031.17	3.9080	3.9079	1.0920	7.44	1.45	0.750			
0.3475	22239.87	3.9050	3.9052	1.1023	7.43	1.44	0.750			
0.3508	22450.32	3.9020	3.9021	1.1054	7.41	1.42	0.750			
0.3541	22663.77	3.8990	3.8986	1.1203	7.40	1.41	0.750			
0.3574	22874.21	3.8960	3.8961	1.1291	7.39	1.40	0.750			
0.3608	23092.62	3.8930	3.8931	1.1546	7.38	1.39	0.750			
0.3644	23321.25	3.8900	3.8900	1.1818	7.37	1.38	0.750			
0.3680	23549.81	3.8870	3.8870	1.1867	7.36	1.37	0.750			
0.3715	23776.45	3.8840	3.8841	1.2158	7.35	1.36	0.750			
0.3752	24012.10	3.8810	3.8812	1.2398	7.33	1.34	0.750			
0.3790	24253.87	3.8780	3.8778	1.2471	7.32	1.33	0.750	0.393	0.790	
0.3827	24493.54	3.8750	3.8751	1.2698	7.31	1.32	0.750			
0.3866	24741.04	3.8720	3.8721	1.2858	7.29	1.30	0.750			
0.3905	24992.04	3.8690	3.8690	1.2945	7.28	1.29	0.750			
0.3944	25241.68	3.8660	3.8660	1.3052	7.26	1.27	0.750			
0.3982	25487.05	3.8630	3.8631	1.3243	7.25	1.26	0.750			
0.4023	25748.96	3.8600	3.8600	1.3461	7.24	1.25	0.750			
0.4064	26010.92	3.8570	3.8570	1.3744	7.22	1.23	0.750			
0.4105	26271.05	3.8540	3.8541	1.3859	7.21	1.22	0.750			
0.4147	26542.68	3.8510	3.8512	1.4132	7.19	1.20	0.750			
0.4190	26818.92	3.8480	3.8480	1.4425	7.17	1.18	0.750			
0.4234	27098.87	3.8450	3.8446	1.4477	7.16	1.17	0.750			
0.4278	27379.71	3.8420	3.8421	1.4554	7.14	1.15	0.750			
0.4322	27661.88	3.8390	3.8392	1.4938	7.13	1.14	0.750			
0.4367	27949.58	3.8360	3.8358	1.5058	7.11	1.12	0.750			
0.4412	28238.91	3.8330	3.8330	1.5346	7.09	1.10	0.750			
0.4458	28533.69	3.8300	3.8303	1.5338	7.07	1.08	0.750			
0.4505	28832.56	3.8270	3.8271	1.5554	7.06	1.07	0.750			
0.4553	29138.70	3.8240	3.8242	1.5838	7.04	1.05	0.750			
0.4600	29439.47	3.8210	3.8207	1.6032	7.02	1.03	0.750			
0.4647	29742.33	3.8180	3.8181	1.6106	7.00	1.01	0.750			
0.4696	30052.65	3.8150	3.8152	1.6447	6.98	0.99	0.750			
0.4746	30374.65	3.8120	3.8119	1.6695	6.95	0.96	0.750			
0.4797	30702.61	3.8090	3.8087	1.6785	6.93	0.94	0.750			
0.4847	31020.62	3.8060	3.8061	1.6759	6.91	0.92	0.750			
0.4897	31340.14	3.8030	3.8033	1.6942	6.90	0.91	0.750			
0.4947	31662.07	3.8000	3.7997	1.7476	6.88	0.89	0.750			
0.5000	31999.97	3.7970	3.7969	1.7525	6.85	0.86	0.750			
0.5054	32348.77	3.7940	3.7939	1.7835	6.83	0.84	0.750			
0.5110	32702.90	3.7910	3.7913	1.8191	6.80	0.81	0.750			
0.5165	33053.32	3.7880	3.7880	1.8200	6.78	0.79	0.750			
0.5220	33404.92	3.7850	3.7849	1.8408	6.76	0.77	0.750			
0.5273	33748.82	3.7820	3.7821	1.8380	6.74	0.75	0.750			
0.5328	34097.14	3.7790	3.7790	1.8925	6.72	0.73	0.750			
0.5385	34462.55	3.7760	3.7762	1.9600	6.69	0.70	0.750			
0.5444	34844.50	3.7730	3.7729	2.0419	6.67	0.68	0.750			
0.5508	35248.96	3.7700	3.7701	2.1210	6.64	0.65	0.750			
0.5573	35664.59	3.7670	3.7671	2.1943	6.62	0.63	0.750			
0.5640	36097.51	3.7640	3.7639	2.2774	6.58	0.59	0.750			
0.5708	36533.64	3.7610	3.7610	2.3953	6.55	0.56	0.750			
0.5782	37001.68	3.7580	3.7581	2.5394	6.52	0.53	0.750			
0.5862	37514.29	3.7550	3.7550	2.6943	6.49	0.50	0.750			
0.5945	38045.94	3.7520	3.7519	2.7999	6.46	0.47	0.750			
0.6030	38591.17	3.7490	3.7490	2.9050	6.43	0.44	0.750			
0.6118	39154.83	3.7460	3.7460	3.0224	6.40	0.41	0.750			
0.6211	39749.82	3.7430	3.7431	3.0811	6.36	0.37	0.750			
0.6306	40356.82	3.7400	3.7401	2.9979	6.31	0.32	0.750			
0.6395	40925.27	3.7370	3.7371	2.8354	6.28	0.29	0.750			
0.6478	41459.86	3.7340	3.7340	2.5688	6.26	0.27	0.750			
0.6552	41931.93	3.7310	3.7311	2.2920	6.24	0.25	0.750			
0.6615	42335.99	3.7280	3.7282	2.0065	6.22	0.23	0.750			
0.6668	42675.15	3.7250	3.7249	1.7301	6.20	0.21	0.750			
0.6715	42975.29	3.7220	3.7220	1.5275	6.19	0.20	0.750			
0.6756	43236.06	3.7190	3.7191	1.3745	6.18	0.19	0.750			
0.6794	43480.26	3.7160	3.7155	1.2680	6.17	0.18	0.750			
0.6829	43703.40	3.7130	3.7131	1.1939	6.16	0.17	0.750			
0.6863	43923.62	3.7100	3.7101	1.1555	6.15	0.16	0.750			
0.6897	44139.59	3.7070	3.7071	1.1299	6.14	0.15	0.750			
0.6930	44354.75	3.7040	3.7038	1.0998	6.13	0.14	0.750			
0.6963	44562.50	3.7010	3.7011	1.0804	6.12	0.13	0.750			
0.6996	44772.17	3.6980	3.6981	1.0585	6.11	0.12	0.750			
0.7027	44975.74	3.6950	3.6950	1.0380	6.10	0.11	0.750			
0.7058	45170.92	3.6920	3.6921	1.0068	6.09	0.10	0.750			
0.7087	45359.87	3.6890	3.6891	0.9827	6.08	0.09	0.750			
0.7117	45546.71	3.6860	3.6859	0.9610	6.07	0.08	0.750			
0.7145	45728.73	3.6830	3.6831	0.9432	6.06	0.07	0.750			
0.7173	45907.31	3.6800	3.6801	0.9223	6.05	0.06	0.750			
0.7201	46083.31	3.6770	3.6769	0.9061	6.04	0.05	0.750			
0.7227	46253.66	3.6740	3.6741	0.8938	6.04	0.05	0.750			
0.7254	46423.42	3.6710	3.6711	0.8868	6.03	0.04	0.750			
0.7280	46592.04	3.6680	3.6679	0.8819	6.02	0.03	0.750			
0.7307	46763.19	3.6650	3.6650	0.8741	6.02	0.03	0.750			
0.7333	46931.04	3.6620	3.6620	0.8592	6.01	0.02	0.750			
0.7359	47094.45	3.6590	3.6591	0.8564	6.01	0.02	0.750			
0.7384	47258.81	3.6560	3.6561	0.8470	6.01	0.02	0.750			
0.7409	47420.46	3.6530	3.6527	0.8271	6.00	0.01	0.750			
0.7434	47579.44	3.6500	3.6500	0.8090	6.00	0.01	0.750			
0.7459	47739.40	3.6470	3.6470	0.7654	6.00	0.01	0.750			
0.7482	47887.68	3.6440	3.6440	0.7098	5.99	0.00	0.750			
0.7504	48026.09	3.6410	3.6410	0.6380	5.99	0.00	0.750			
0.7522	48138.45	3.6380	3.6381	0.5422	5.99	0.00	0.750			
0.7537	48234.92	3.6350	3.6349	0.4496	5.99	0.00	0.750			
0.7547	48298.15	3.6320	3.6325	0.3854	5.99	-0.00	0.750			
0.7556	48360.65	3.6290	3.6293	0.2981	5.99	-0.00	0.750			
0.7564	48410.92	3.6260	3.6257	0.2427	5.99	-0.00	0.750			
0.7569	48443.76	3.6230	3.6222	0.1757	5.99	-0.00	0.750			
0.7573	48468.69	3.6200	3.6098	0.1285	5.99	-0.00	0.750			
0.7574	48472.93	3.5990	3.5854	-0.1082	5.99	-0.00	0.750			
0.7576	48484.77	3.6170	3.4300	0.0876	5.99	-0.00	0.742			
0.7577	48490.57	3.6020	3.3536	-0.0756	5.99	-0.00	0.738			
0.7578	48498.47	3.6140	3.2496	0.0550	5.99	-0.00	0.732			
0.7578	48501.94	3.6050	3.2038	-0.0429	5.99	-0.00	0.730			
0.7579	48505.89	3.6110	3.1518	0.0224	5.99	-0.00	0.727			
0.7579	48507.05	3.6080	3.1365	-0.0103	5.99	-0.00	0.726			
