Ah_balance (normalized)	Ah_balance (mAh)	Voltage - fit (V)	Voltage -  interpolate (V)	dQ/dV (1/V)	Temperature (°C)	Temperature - diff (°C)	Current (C)	R_DC 0ms (mOhm)	R_DC 50ms (mOhm)	R_DC 50 ms PEC (mOhm)
0.0000	0.00	4.0850	4.1305	0.0000	5.97	-0.02	-0.750			
0.0000	0.00	4.0880	4.1305	0.0000	5.97	-0.02	-0.750			
0.0000	0.00	4.0910	4.1305	0.0000	5.97	-0.02	-0.750			
0.0001	4.85	4.0820	4.0905	-0.0359	5.97	-0.02	-0.750			
0.0002	14.02	4.0790	4.0796	-0.0596	5.97	-0.02	-0.750			
0.0004	28.09	4.0760	4.0759	-0.0827	5.97	-0.02	-0.750			
0.0007	46.01	4.0730	4.0729	-0.1066	5.97	-0.02	-0.750			
0.0011	68.34	4.0700	4.0701	-0.1318	5.97	-0.02	-0.750			
0.0015	95.95	4.0670	4.0670	-0.1559	5.97	-0.02	-0.750			
0.0020	128.26	4.0640	4.0639	-0.1809	5.97	-0.02	-0.750			
0.0026	164.90	4.0610	4.0610	-0.2050	5.97	-0.02	-0.750			
0.0032	207.09	4.0580	4.0580	-0.2294	5.97	-0.02	-0.750			
0.0040	253.75	4.0550	4.0550	-0.2525	5.98	-0.01	-0.750			
0.0048	305.02	4.0520	4.0520	-0.2755	5.98	-0.01	-0.750			
0.0056	360.94	4.0490	4.0489	-0.2949	5.98	-0.01	-0.750			
0.0066	419.32	4.0460	4.0460	-0.3145	5.98	-0.01	-0.750			
0.0075	480.56	4.0430	4.0430	-0.3375	5.98	-0.01	-0.750			
0.0085	546.99	4.0400	4.0400	-0.3613	5.99	-0.00	-0.750			
0.0097	618.72	4.0370	4.0368	-0.3838	5.99	-0.00	-0.750			
0.0109	695.10	4.0340	4.0341	-0.4054	5.99	0.00	-0.750			
0.0121	776.06	4.0310	4.0310	-0.4290	5.99	0.00	-0.750			
0.0134	860.61	4.0280	4.0281	-0.4520	6.00	0.01	-0.750			
0.0148	948.59	4.0250	4.0250	-0.4731	6.00	0.01	-0.750			
0.0163	1040.94	4.0220	4.0219	-0.4953	6.00	0.01	-0.750			
0.0178	1138.78	4.0190	4.0190	-0.5197	6.01	0.02	-0.750			
0.0194	1242.88	4.0160	4.0160	-0.5364	6.01	0.02	-0.750			
0.0211	1349.75	4.0130	4.0129	-0.5543	6.02	0.03	-0.750			
0.0228	1457.04	4.0100	4.0103	-0.5672	6.02	0.03	-0.750			
0.0245	1567.09	4.0070	4.0069	-0.5762	6.03	0.04	-0.750			
0.0262	1679.03	4.0040	4.0040	-0.5851	6.03	0.04	-0.750			
0.0280	1791.40	4.0010	4.0011	-0.5952	6.04	0.05	-0.750			
0.0298	1907.15	3.9980	3.9981	-0.6147	6.04	0.05	-0.750			
0.0317	2027.61	3.9950	3.9949	-0.6262	6.05	0.06	-0.750			
0.0336	2149.26	3.9920	3.9918	-0.6330	6.05	0.06	-0.750			
0.0355	2270.93	3.9890	3.9892	-0.6445	6.06	0.07	-0.750			
0.0375	2397.53	3.9860	3.9861	-0.6539	6.07	0.08	-0.750			
0.0394	2522.80	3.9830	3.9829	-0.6626	6.08	0.09	-0.750			
0.0414	2649.92	3.9800	3.9800	-0.6702	6.08	0.09	-0.750			
0.0435	2782.07	3.9770	3.9770	-0.6753	6.09	0.10	-0.750			
0.0455	2911.88	3.9740	3.9740	-0.6841	6.10	0.11	-0.750			
0.0476	3045.79	3.9710	3.9713	-0.6884	6.11	0.12	-0.750			
0.0496	3176.94	3.9680	3.9679	-0.6889	6.12	0.13	-0.750			
0.0517	3308.84	3.9650	3.9649	-0.6922	6.13	0.14	-0.750			
0.0538	3440.08	3.9620	3.9621	-0.6949	6.13	0.14	-0.750			
0.0558	3574.38	3.9590	3.9589	-0.7080	6.14	0.15	-0.750			
0.0580	3710.71	3.9560	3.9558	-0.7151	6.15	0.16	-0.750			
0.0602	3849.95	3.9530	3.9532	-0.7104	6.16	0.17	-0.750			
0.0623	3988.70	3.9500	3.9500	-0.7145	6.17	0.18	-0.750			
0.0644	4124.62	3.9470	3.9471	-0.7201	6.18	0.19	-0.750			
0.0666	4264.11	3.9440	3.9440	-0.7199	6.19	0.20	-0.750			
0.0687	4399.07	3.9410	3.9408	-0.7194	6.20	0.21	-0.750			
0.0709	4536.46	3.9380	3.9379	-0.7255	6.21	0.22	-0.750			
0.0731	4677.49	3.9350	3.9352	-0.7303	6.22	0.23	-0.750			
0.0753	4819.98	3.9320	3.9319	-0.7385	6.23	0.24	-0.750			
0.0775	4961.91	3.9290	3.9291	-0.7447	6.25	0.26	-0.750			
0.0798	5105.70	3.9260	3.9259	-0.7456	6.26	0.27	-0.750			
0.0820	5250.90	3.9230	3.9229	-0.7518	6.27	0.28	-0.750			
0.0843	5395.42	3.9200	3.9201	-0.7480	6.29	0.30	-0.750			
0.0866	5539.95	3.9170	3.9169	-0.7439	6.30	0.31	-0.750			
0.0888	5681.51	3.9140	3.9140	-0.7475	6.31	0.32	-0.750			
0.0910	5822.61	3.9110	3.9110	-0.7490	6.32	0.33	-0.750			
0.0932	5967.37	3.9080	3.9078	-0.7467	6.33	0.34	-0.750			
0.0955	6113.64	3.9050	3.9048	-0.7497	6.34	0.35	-0.750			
0.0978	6256.67	3.9020	3.9024	-0.7474	6.35	0.36	-0.750			
0.1000	6400.09	3.8990	3.8990	-0.7529	6.36	0.37	-0.750			
0.1022	6543.70	3.8960	3.8959	-0.7578	6.37	0.38	-0.750			
0.1045	6689.20	3.8930	3.8929	-0.7529	6.38	0.39	-0.750			
0.1068	6835.69	3.8900	3.8900	-0.7572	6.39	0.40	-0.750			
0.1091	6980.78	3.8870	3.8871	-0.7556	6.40	0.41	-0.750			
0.1113	7126.08	3.8840	3.8839	-0.7562	6.42	0.43	-0.750			
0.1136	7270.77	3.8810	3.8809	-0.7505	6.43	0.44	-0.750			
0.1158	7411.55	3.8780	3.8780	-0.7499	6.44	0.45	-0.750			
0.1181	7556.60	3.8750	3.8751	-0.7539	6.45	0.46	-0.750			
0.1204	7702.99	3.8720	3.8720	-0.7628	6.47	0.48	-0.750			
0.1227	7850.24	3.8690	3.8693	-0.7640	6.48	0.49	-0.750			
0.1249	7996.79	3.8660	3.8659	-0.7643	6.49	0.50	-0.750			
0.1272	8142.71	3.8630	3.8630	-0.7674	6.50	0.51	-0.750			
0.1296	8291.41	3.8600	3.8601	-0.7709	6.51	0.52	-0.750			
0.1319	8441.93	3.8570	3.8569	-0.7691	6.52	0.53	-0.750			
0.1342	8587.94	3.8540	3.8539	-0.7689	6.54	0.55	-0.750			
0.1365	8734.09	3.8510	3.8511	-0.7656	6.55	0.56	-0.750			
0.1388	8880.59	3.8480	3.8479	-0.7729	6.56	0.57	-0.750			
0.1411	9029.29	3.8450	3.8450	-0.7728	6.57	0.58	-0.750			
0.1434	9177.83	3.8420	3.8420	-0.7756	6.58	0.59	-0.750			
0.1458	9328.34	3.8390	3.8390	-0.7773	6.59	0.60	-0.750			
0.1481	9481.01	3.8360	3.8360	-0.7769	6.60	0.61	-0.750			
0.1504	9628.73	3.8330	3.8331	-0.7671	6.61	0.62	-0.750			
0.1527	9775.97	3.8300	3.8300	-0.7643	6.62	0.63	-0.750			
0.1550	9921.94	3.8270	3.8270	-0.7515	6.64	0.65	-0.750			
0.1572	10063.17	3.8240	3.8240	-0.7563	6.65	0.66	-0.750			
0.1595	10206.01	3.8210	3.8210	-0.7604	6.66	0.67	-0.750			
0.1617	10351.64	3.8180	3.8179	-0.7695	6.67	0.68	-0.750			
0.1641	10499.59	3.8150	3.8149	-0.7841	6.68	0.69	-0.750			
0.1665	10654.82	3.8120	3.8120	-0.7854	6.70	0.71	-0.750			
0.1689	10807.40	3.8090	3.8089	-0.7859	6.72	0.73	-0.750			
0.1713	10962.30	3.8060	3.8060	-0.7901	6.73	0.74	-0.750			
0.1736	11111.03	3.8030	3.8032	-0.7773	6.74	0.75	-0.750			
0.1759	11258.16	3.8000	3.7998	-0.7727	6.76	0.77	-0.750			
0.1782	11405.40	3.7970	3.7970	-0.7704	6.77	0.78	-0.750			
0.1805	11551.21	3.7940	3.7941	-0.7680	6.78	0.79	-0.750			
0.1828	11700.57	3.7910	3.7910	-0.7751	6.79	0.80	-0.750			
0.1851	11849.41	3.7880	3.7881	-0.7796	6.80	0.81	-0.750			
0.1875	11998.64	3.7850	3.7850	-0.7837	6.81	0.82	-0.750			
0.1898	12148.34	3.7820	3.7819	-0.7947	6.82	0.83	-0.750			
0.1922	12302.27	3.7790	3.7790	-0.8027	6.83	0.84	-0.750			
0.1947	12460.78	3.7760	3.7758	-0.8000	6.84	0.85	-0.750			
0.1971	12614.78	3.7730	3.7731	-0.7972	6.85	0.86	-0.750			
0.1995	12768.13	3.7700	3.7702	-0.7948	6.86	0.87	-0.750			
0.2019	12919.49	3.7670	3.7670	-0.7885	6.87	0.88	-0.750			
0.2042	13068.98	3.7640	3.7638	-0.7903	6.88	0.89	-0.750			
0.2065	13215.98	3.7610	3.7610	-0.7904	6.89	0.90	-0.750			
0.2089	13370.61	3.7580	3.7580	-0.7931	6.90	0.91	-0.750			
0.2113	13524.73	3.7550	3.7550	-0.7986	6.92	0.93	-0.750			
0.2137	13678.10	3.7520	3.7521	-0.8013	6.93	0.94	-0.750			
0.2161	13832.92	3.7490	3.7490	-0.8012	6.94	0.95	-0.750			
0.2185	13985.02	3.7460	3.7459	-0.8075	6.95	0.96	-0.750			
0.2209	14139.11	3.7430	3.7431	-0.8162	6.96	0.97	-0.750			
0.2234	14296.44	3.7400	3.7399	-0.8194	6.97	0.98	-0.750			
0.2259	14455.93	3.7370	3.7370	-0.8304	6.99	1.00	-0.750			
0.2284	14618.91	3.7340	3.7340	-0.8366	7.00	1.01	-0.750			
0.2310	14781.03	3.7310	3.7308	-0.8361	7.01	1.02	-0.750			
0.2335	14943.72	3.7280	3.7279	-0.8358	7.02	1.03	-0.750			
0.2360	15102.46	3.7250	3.7252	-0.8285	7.03	1.04	-0.750			
0.2384	15260.62	3.7220	3.7219	-0.8241	7.05	1.06	-0.750			
0.2409	15418.03	3.7190	3.7190	-0.8261	7.06	1.07	-0.750			
0.2433	15571.14	3.7160	3.7160	-0.8250	7.07	1.08	-0.750			
0.2458	15733.17	3.7130	3.7129	-0.8426	7.08	1.09	-0.750			
0.2484	15895.72	3.7100	3.7100	-0.8497	7.09	1.10	-0.750			
0.2509	16059.44	3.7070	3.7071	-0.8615	7.10	1.11	-0.750			
0.2536	16228.00	3.7040	3.7040	-0.8700	7.11	1.12	-0.750			
0.2562	16397.07	3.7010	3.7009	-0.8737	7.12	1.13	-0.750			
0.2588	16565.45	3.6980	3.6979	-0.8691	7.13	1.14	-0.750			
0.2614	16730.98	3.6950	3.6952	-0.8773	7.14	1.15	-0.750			
0.2641	16900.27	3.6920	3.6920	-0.8805	7.15	1.16	-0.750			
0.2667	17069.43	3.6890	3.6889	-0.8844	7.16	1.17	-0.750			
0.2693	17236.65	3.6860	3.6860	-0.8937	7.17	1.18	-0.750			
0.2720	17409.95	3.6830	3.6830	-0.9072	7.18	1.19	-0.750			
0.2748	17586.14	3.6800	3.6799	-0.9222	7.19	1.20	-0.750			
0.2776	17766.37	3.6770	3.6770	-0.9265	7.20	1.21	-0.750			
0.2804	17943.17	3.6740	3.6741	-0.9304	7.21	1.22	-0.750			
0.2832	18125.48	3.6710	3.6710	-0.9369	7.22	1.23	-0.750			
0.2860	18306.57	3.6680	3.6680	-0.9386	7.23	1.24	-0.750			
0.2888	18485.64	3.6650	3.6649	-0.9392	7.24	1.25	-0.750			
0.2916	18665.15	3.6620	3.6621	-0.9455	7.25	1.26	-0.750			
0.2945	18846.83	3.6590	3.6590	-0.9517	7.26	1.27	-0.750			
0.2974	19031.94	3.6560	3.6561	-0.9600	7.27	1.28	-0.750			
0.3003	19216.07	3.6530	3.6530	-0.9682	7.28	1.29	-0.750			
0.3032	19404.43	3.6500	3.6500	-0.9792	7.29	1.30	-0.750			
0.3061	19593.24	3.6470	3.6469	-0.9825	7.30	1.31	-0.750			
0.3091	19782.40	3.6440	3.6440	-0.9842	7.32	1.33	-0.750			
0.3121	19971.57	3.6410	3.6409	-0.9909	7.32	1.33	-0.750			
0.3150	20162.56	3.6380	3.6380	-0.9998	7.33	1.34	-0.750			
0.3180	20354.13	3.6350	3.6350	-1.0066	7.34	1.35	-0.750			
0.3211	20547.98	3.6320	3.6320	-1.0083	7.35	1.36	-0.750			
0.3241	20743.67	3.6290	3.6291	-1.0275	7.35	1.36	-0.750			
0.3272	20943.14	3.6260	3.6259	-1.0354	7.36	1.37	-0.750			
0.3303	21142.13	3.6230	3.6230	-1.0445	7.37	1.38	-0.750			
0.3335	21344.81	3.6200	3.6199	-1.0441	7.38	1.39	-0.750			
0.3366	21544.62	3.6170	3.6170	-1.0468	7.39	1.40	-0.750			
0.3398	21746.18	3.6140	3.6140	-1.0482	7.40	1.41	-0.750			
0.3429	21946.33	3.6110	3.6110	-1.0550	7.41	1.42	-0.750			
0.3460	22145.94	3.6080	3.6080	-1.0586	7.42	1.43	-0.750			
0.3493	22352.40	3.6050	3.6047	-1.0812	7.43	1.44	-0.750			
0.3525	22561.80	3.6020	3.6021	-1.0907	7.44	1.45	-0.750			
0.3559	22776.94	3.5990	3.5990	-1.0948	7.45	1.46	-0.750			
0.3592	22988.36	3.5960	3.5961	-1.1026	7.46	1.47	-0.750			
0.3625	23200.26	3.5930	3.5930	-1.1137	7.47	1.48	-0.750			
0.3658	23408.18	3.5900	3.5899	-1.1256	7.47	1.48	-0.750			
0.3692	23625.75	3.5870	3.5869	-1.1423	7.48	1.49	-0.750			
0.3726	23846.47	3.5840	3.5840	-1.1495	7.49	1.50	-0.750			
0.3762	24076.83	3.5810	3.5811	-1.1578	7.50	1.51	-0.750	0.410	0.818	
0.3797	24300.01	3.5780	3.5780	-1.1554	7.51	1.52	-0.750			
0.3831	24517.78	3.5750	3.5750	-1.1513	7.51	1.52	-0.750			
0.3865	24737.12	3.5720	3.5719	-1.1601	7.52	1.53	-0.750			
0.3899	24955.96	3.5690	3.5690	-1.1629	7.54	1.55	-0.750			
0.3935	25182.09	3.5660	3.5659	-1.1814	7.55	1.56	-0.750			
0.3970	25411.18	3.5630	3.5631	-1.1963	7.56	1.57	-0.750			
0.4007	25645.18	3.5600	3.5599	-1.2141	7.57	1.58	-0.750			
0.4044	25880.36	3.5570	3.5569	-1.2102	7.58	1.59	-0.750			
0.4080	26110.69	3.5540	3.5541	-1.2160	7.58	1.59	-0.750			
0.4116	26342.32	3.5510	3.5511	-1.2122	7.59	1.60	-0.750			
0.4152	26575.58	3.5480	3.5481	-1.2279	7.60	1.61	-0.750			
0.4189	26811.23	3.5450	3.5448	-1.2333	7.60	1.61	-0.750			
0.4226	27047.84	3.5420	3.5422	-1.2466	7.61	1.62	-0.750			
0.4264	27289.26	3.5390	3.5390	-1.2571	7.62	1.63	-0.750			
0.4303	27536.53	3.5360	3.5361	-1.2825	7.63	1.64	-0.750			
0.4341	27781.00	3.5330	3.5331	-1.2917	7.64	1.65	-0.750			
0.4380	28030.47	3.5300	3.5299	-1.2882	7.65	1.66	-0.750			
0.4419	28280.42	3.5270	3.5269	-1.2806	7.66	1.67	-0.750			
0.4457	28526.00	3.5240	3.5241	-1.2915	7.67	1.68	-0.750			
0.4496	28772.97	3.5210	3.5209	-1.2831	7.69	1.70	-0.750			
0.4535	29021.90	3.5180	3.5179	-1.2803	7.70	1.71	-0.750			
0.4572	29263.78	3.5150	3.5150	-1.2747	7.71	1.72	-0.750			
0.4610	29506.32	3.5120	3.5121	-1.2885	7.72	1.73	-0.750			
0.4650	29758.78	3.5090	3.5089	-1.2977	7.73	1.74	-0.750			
0.4689	30010.16	3.5060	3.5058	-1.2985	7.73	1.74	-0.750			
0.4728	30258.45	3.5030	3.5033	-1.2927	7.74	1.75	-0.750			
0.4767	30511.94	3.5000	3.4999	-1.2929	7.75	1.76	-0.750			
0.4806	30759.57	3.4970	3.4970	-1.2792	7.77	1.78	-0.750			
0.4844	30999.18	3.4940	3.4943	-1.2772	7.78	1.79	-0.750			
0.4882	31243.86	3.4910	3.4909	-1.2795	7.79	1.80	-0.750			
0.4920	31490.18	3.4880	3.4879	-1.2738	7.80	1.81	-0.750			
0.4959	31735.16	3.4850	3.4849	-1.2664	7.81	1.82	-0.750			
0.4997	31978.24	3.4820	3.4820	-1.2570	7.83	1.84	-0.750			
0.5035	32225.81	3.4790	3.4790	-1.2452	7.84	1.85	-0.750			
0.5072	32461.70	3.4760	3.4760	-1.2261	7.86	1.87	-0.750			
0.5108	32688.24	3.4730	3.4732	-1.2213	7.87	1.88	-0.750			
0.5144	32921.79	3.4700	3.4699	-1.2260	7.88	1.89	-0.750			
0.5181	33160.45	3.4670	3.4669	-1.2256	7.89	1.90	-0.750			
0.5218	33397.94	3.4640	3.4639	-1.2212	7.90	1.91	-0.750			
0.5256	33636.55	3.4610	3.4611	-1.2296	7.91	1.92	-0.750			
0.5293	33873.02	3.4580	3.4580	-1.2159	7.93	1.94	-0.750			
0.5329	34103.64	3.4550	3.4549	-1.2001	7.94	1.95	-0.750			
0.5364	34330.51	3.4520	3.4521	-1.1833	7.95	1.96	-0.750			
0.5400	34558.56	3.4490	3.4490	-1.1758	7.97	1.98	-0.750			
0.5435	34785.07	3.4460	3.4460	-1.1637	7.98	1.99	-0.750			
0.5470	35005.25	3.4430	3.4430	-1.1434	8.00	2.01	-0.750			
0.5504	35224.73	3.4400	3.4400	-1.1522	8.01	2.02	-0.750			
0.5539	35446.43	3.4370	3.4370	-1.1416	8.02	2.03	-0.750			
0.5573	35664.09	3.4340	3.4338	-1.1341	8.03	2.04	-0.750			
0.5606	35880.46	3.4310	3.4313	-1.1285	8.04	2.05	-0.750			
0.5641	36100.79	3.4280	3.4280	-1.1177	8.06	2.07	-0.750			
0.5674	36314.91	3.4250	3.4249	-1.0989	8.07	2.08	-0.750			
0.5707	36521.68	3.4220	3.4219	-1.0855	8.09	2.10	-0.750			
0.5739	36729.02	3.4190	3.4191	-1.0743	8.10	2.11	-0.750			
0.5771	36936.20	3.4160	3.4159	-1.0539	8.12	2.13	-0.750			
0.5803	37136.37	3.4130	3.4130	-1.0321	8.13	2.14	-0.750			
0.5833	37329.90	3.4100	3.4102	-1.0157	8.14	2.15	-0.750			
0.5863	37525.93	3.4070	3.4070	-1.0108	8.16	2.17	-0.750			
0.5893	37717.30	3.4040	3.4039	-1.0021	8.17	2.18	-0.750			
0.5923	37909.35	3.4010	3.4010	-0.9816	8.19	2.20	-0.750			
0.5953	38099.52	3.3980	3.3980	-0.9731	8.21	2.22	-0.750			
0.5982	38286.89	3.3950	3.3952	-0.9568	8.22	2.23	-0.750			
0.6011	38467.32	3.3920	3.3919	-0.9416	8.23	2.24	-0.750			
0.6038	38645.09	3.3890	3.3889	-0.9199	8.24	2.25	-0.750			
0.6065	38818.43	3.3860	3.3860	-0.9034	8.26	2.27	-0.750			
0.6093	38992.34	3.3830	3.3831	-0.8956	8.27	2.28	-0.750			
0.6119	39163.94	3.3800	3.3799	-0.8811	8.28	2.29	-0.750			
0.6145	39331.11	3.3770	3.3770	-0.8663	8.29	2.30	-0.750			
0.6171	39496.33	3.3740	3.3739	-0.8499	8.31	2.32	-0.750			
0.6196	39657.46	3.3710	3.3710	-0.8265	8.32	2.33	-0.750			
0.6221	39817.16	3.3680	3.3680	-0.8124	8.34	2.35	-0.750			
0.6245	39970.17	3.3650	3.3650	-0.7890	8.35	2.36	-0.750			
0.6269	40119.37	3.3620	3.3619	-0.7685	8.37	2.38	-0.750			
0.6292	40265.79	3.3590	3.3590	-0.7515	8.38	2.39	-0.750			
0.6314	40406.51	3.3560	3.3560	-0.7345	8.40	2.41	-0.750			
0.6335	40547.01	3.3530	3.3529	-0.7218	8.41	2.42	-0.750			
0.6357	40684.06	3.3500	3.3501	-0.7094	8.42	2.43	-0.750			
0.6378	40817.70	3.3470	3.3469	-0.6971	8.43	2.44	-0.750			
0.6398	40950.16	3.3440	3.3440	-0.6915	8.45	2.46	-0.750			
0.6419	41081.81	3.3410	3.3410	-0.6754	8.46	2.47	-0.750			
0.6440	41213.44	3.3380	3.3380	-0.6708	8.47	2.48	-0.750			
0.6460	41341.00	3.3350	3.3352	-0.6543	8.48	2.49	-0.750			
0.6479	41465.64	3.3320	3.3321	-0.6433	8.49	2.50	-0.750			
0.6498	41586.49	3.3290	3.3290	-0.6286	8.51	2.52	-0.750			
0.6517	41705.73	3.3260	3.3260	-0.6096	8.52	2.53	-0.750			
0.6535	41820.98	3.3230	3.3230	-0.5943	8.54	2.55	-0.750			
0.6552	41935.56	3.3200	3.3201	-0.5914	8.55	2.56	-0.750			
0.6570	42046.43	3.3170	3.3169	-0.5789	8.56	2.57	-0.750			
0.6587	42157.27	3.3140	3.3138	-0.5668	8.58	2.59	-0.750			
0.6604	42264.75	3.3110	3.3113	-0.5541	8.59	2.60	-0.750			
0.6620	42370.65	3.3080	3.3081	-0.5447	8.60	2.61	-0.750			
0.6637	42474.28	3.3050	3.3050	-0.5394	8.62	2.63	-0.750			
0.6652	42574.32	3.3020	3.3020	-0.5288	8.63	2.64	-0.750			
0.6668	42675.63	3.2990	3.2989	-0.5216	8.64	2.65	-0.750			
0.6684	42775.80	3.2960	3.2960	-0.5117	8.66	2.67	-0.750			
0.6699	42875.50	3.2930	3.2931	-0.5019	8.67	2.68	-0.750			
0.6714	42969.94	3.2900	3.2901	-0.4893	8.68	2.69	-0.750			
0.6728	43061.94	3.2870	3.2871	-0.4784	8.69	2.70	-0.750			
0.6742	43151.71	3.2840	3.2838	-0.4680	8.70	2.71	-0.750			
0.6756	43239.85	3.2810	3.2810	-0.4579	8.72	2.73	-0.750			
0.6770	43327.16	3.2780	3.2781	-0.4530	8.73	2.74	-0.750			
0.6784	43415.30	3.2750	3.2749	-0.4468	8.74	2.75	-0.750			
0.6797	43500.06	3.2720	3.2719	-0.4385	8.75	2.76	-0.750			
0.6810	43582.36	3.2690	3.2690	-0.4277	8.76	2.77	-0.750			
0.6822	43663.63	3.2660	3.2661	-0.4216	8.78	2.79	-0.750			
0.6835	43743.60	3.2630	3.2629	-0.4170	8.79	2.80	-0.750			
0.6847	43823.02	3.2600	3.2599	-0.4132	8.80	2.81	-0.750			
0.6860	43900.95	3.2570	3.2569	-0.4075	8.81	2.82	-0.750			
0.6872	43979.96	3.2540	3.2540	-0.4026	8.82	2.83	-0.750			
0.6884	44057.55	3.2510	3.2510	-0.3964	8.83	2.84	-0.750			
0.6896	44133.24	3.2480	3.2481	-0.3908	8.84	2.85	-0.750			
0.6907	44207.29	3.2450	3.2450	-0.3840	8.85	2.86	-0.750			
0.6919	44278.88	3.2420	3.2420	-0.3794	8.87	2.88	-0.750			
0.6930	44351.40	3.2390	3.2389	-0.3771	8.88	2.89	-0.750			
0.6941	44424.02	3.2360	3.2360	-0.3724	8.89	2.90	-0.750			
0.6952	44495.77	3.2330	3.2330	-0.3675	8.90	2.91	-0.750			
0.6964	44566.95	3.2300	3.2302	-0.3606	8.91	2.92	-0.750			
0.6974	44635.71	3.2270	3.2271	-0.3508	8.91	2.92	-0.750			
0.6984	44700.68	3.2240	3.2240	-0.3457	8.92	2.93	-0.750			
0.6995	44765.63	3.2210	3.2209	-0.3408	8.93	2.94	-0.750			
0.7005	44829.80	3.2180	3.2180	-0.3355	8.94	2.95	-0.750			
0.7015	44894.05	3.2150	3.2150	-0.3352	8.95	2.96	-0.750			
0.7025	44959.31	3.2120	3.2121	-0.3334	8.96	2.97	-0.750			
0.7035	45023.41	3.2090	3.2090	-0.3314	8.98	2.99	-0.750			
0.7045	45086.86	3.2060	3.2059	-0.3278	8.99	3.00	-0.750			
0.7054	45148.58	3.2030	3.2031	-0.3228	9.00	3.01	-0.750			
0.7064	45210.37	3.2000	3.1999	-0.3202	9.01	3.02	-0.750			
0.7074	45272.06	3.1970	3.1971	-0.3165	9.02	3.03	-0.750			
0.7083	45332.27	3.1940	3.1940	-0.3108	9.03	3.04	-0.750			
0.7092	45391.84	3.1910	3.1910	-0.3066	9.03	3.04	-0.750			
0.7102	45449.97	3.1880	3.1882	-0.3031	9.04	3.05	-0.750			
0.7111	45507.36	3.1850	3.1850	-0.2986	9.05	3.06	-0.750			
0.7119	45564.16	3.1820	3.1820	-0.2946	9.06	3.07	-0.750			
0.7128	45620.48	3.1790	3.1790	-0.2911	9.07	3.08	-0.750			
0.7137	45676.22	3.1760	3.1761	-0.2882	9.09	3.10	-0.750			
0.7146	45731.39	3.1730	3.1730	-0.2839	9.10	3.11	-0.750			
0.7154	45785.06	3.1700	3.1700	-0.2813	9.11	3.12	-0.750			
0.7162	45838.60	3.1670	3.1669	-0.2782	9.12	3.13	-0.750			
0.7171	45891.67	3.1640	3.1641	-0.2764	9.13	3.14	-0.750			
0.7179	45944.50	3.1610	3.1609	-0.2750	9.14	3.15	-0.750			
0.7187	45997.62	3.1580	3.1582	-0.2732	9.15	3.16	-0.750			
0.7195	46049.77	3.1550	3.1549	-0.2721	9.16	3.17	-0.750			
0.7203	46101.65	3.1520	3.1520	-0.2693	9.17	3.18	-0.750			
0.7211	46152.87	3.1490	3.1491	-0.2665	9.18	3.19	-0.750			
0.7219	46204.24	3.1460	3.1459	-0.2654	9.19	3.20	-0.750			
0.7227	46255.46	3.1430	3.1432	-0.2625	9.20	3.21	-0.750			
0.7235	46305.64	3.1400	3.1399	-0.2590	9.21	3.22	-0.750			
0.7243	46355.09	3.1370	3.1371	-0.2565	9.22	3.23	-0.750			
0.7251	46403.68	3.1340	3.1341	-0.2525	9.23	3.24	-0.750			
0.7258	46451.83	3.1310	3.1310	-0.2503	9.24	3.25	-0.750			
0.7266	46499.37	3.1280	3.1279	-0.2477	9.25	3.26	-0.750			
0.7273	46546.44	3.1250	3.1251	-0.2454	9.26	3.27	-0.750			
0.7280	46593.24	3.1220	3.1220	-0.2443	9.27	3.28	-0.750			
0.7288	46640.23	3.1190	3.1191	-0.2438	9.28	3.29	-0.750			
0.7295	46687.14	3.1160	3.1159	-0.2422	9.29	3.30	-0.750			
0.7302	46733.39	3.1130	3.1129	-0.2406	9.30	3.31	-0.750			
0.7309	46779.88	3.1100	3.1101	-0.2386	9.31	3.32	-0.750			
0.7317	46825.63	3.1070	3.1070	-0.2355	9.32	3.33	-0.750			
0.7324	46870.44	3.1040	3.1040	-0.2333	9.33	3.34	-0.750			
0.7330	46914.67	3.1010	3.1010	-0.2312	9.34	3.35	-0.750			
0.7337	46958.50	3.0980	3.0980	-0.2286	9.35	3.36	-0.750			
0.7344	47001.70	3.0950	3.0949	-0.2277	9.36	3.37	-0.750			
0.7351	47045.30	3.0920	3.0921	-0.2270	9.37	3.38	-0.750			
0.7358	47088.90	3.0890	3.0889	-0.2271	9.38	3.39	-0.750			
0.7364	47132.67	3.0860	3.0860	-0.2257	9.39	3.40	-0.750			
0.7371	47176.22	3.0830	3.0830	-0.2254	9.40	3.41	-0.750			
0.7378	47219.52	3.0800	3.0801	-0.2236	9.41	3.42	-0.750			
0.7385	47262.28	3.0770	3.0770	-0.2218	9.42	3.43	-0.750			
0.7391	47305.04	3.0740	3.0740	-0.2191	9.43	3.44	-0.750			
0.7398	47346.62	3.0710	3.0712	-0.2169	9.44	3.45	-0.750			
0.7404	47387.85	3.0680	3.0680	-0.2153	9.45	3.46	-0.750			
0.7411	47428.95	3.0650	3.0650	-0.2140	9.46	3.47	-0.750			
0.7417	47469.83	3.0620	3.0619	-0.2126	9.47	3.48	-0.750			
0.7423	47510.11	3.0590	3.0590	-0.2114	9.48	3.49	-0.750			
0.7430	47550.98	3.0560	3.0560	-0.2107	9.49	3.50	-0.750			
0.7436	47591.31	3.0530	3.0531	-0.2098	9.50	3.51	-0.750			
0.7442	47631.81	3.0500	3.0499	-0.2091	9.51	3.52	-0.750			
0.7449	47671.57	3.0470	3.0471	-0.2083	9.52	3.53	-0.750			
0.7455	47711.50	3.0440	3.0439	-0.2070	9.53	3.54	-0.750			
0.7461	47751.13	3.0410	3.0411	-0.2063	9.54	3.55	-0.750			
0.7467	47790.73	3.0380	3.0379	-0.2053	9.55	3.56	-0.750			
0.7473	47830.03	3.0350	3.0351	-0.2043	9.55	3.56	-0.750			
0.7480	47869.25	3.0320	3.0319	-0.2042	9.56	3.57	-0.750			
0.7486	47908.26	3.0290	3.0290	-0.2029	9.58	3.59	-0.750			
0.7492	47947.37	3.0260	3.0260	-0.2015	9.59	3.60	-0.750			
0.7498	47986.00	3.0230	3.0230	-0.2003	9.60	3.61	-0.750			
0.7504	48024.38	3.0200	3.0201	-0.2004	9.61	3.62	-0.750			
0.7510	48062.89	3.0170	3.0170	-0.1985	9.62	3.63	-0.750			
0.7516	48100.82	3.0140	3.0138	-0.1975	9.63	3.64	-0.750			
0.7522	48138.60	3.0110	3.0110	-0.1961	9.64	3.65	-0.750			
0.7527	48175.85	3.0080	3.0081	-0.1950	9.65	3.66	-0.750			
0.7533	48213.28	3.0050	3.0049	-0.1940	9.66	3.67	-0.750			
0.7539	48250.39	3.0020	3.0020	-0.1893	9.67	3.68	-0.750			
