Ah_balance (normalized)	Ah_balance (mAh)	Voltage - fit (V)	Voltage -  interpolate (V)	dQ/dV (1/V)	Temperature (°C)	Temperature - diff (°C)	Current (C)	R_DC 0ms (mOhm)	R_DC 50ms (mOhm)	R_DC 50 ms PEC (mOhm)
0.0965	6173.03	4.1980	4.1949	0.5136	8.06	2.07	0.750	0.392	0.833	
0.0986	6310.41	4.1950	4.1975	0.8103	8.06	2.07	0.750			
0.1012	6475.82	4.1920	4.1936	0.8503	8.05	2.06	0.750			
0.1039	6646.93	4.1890	4.1899	0.8282	8.04	2.05	0.750			
0.1066	6822.48	4.1860	4.1861	0.8181	8.04	2.05	0.750			
0.1089	6970.80	4.1830	4.1829	0.7654	8.03	2.04	0.750			
0.1108	7092.59	4.1800	4.1798	0.7063	8.03	2.04	0.750			
0.1129	7227.36	4.1770	4.1769	0.7069	8.02	2.03	0.750			
0.1151	7363.48	4.1740	4.1740	0.7090	8.02	2.03	0.750			
0.1172	7500.44	4.1710	4.1711	0.7121	8.01	2.02	0.750			
0.1194	7640.33	4.1680	4.1681	0.7151	8.01	2.02	0.750			
0.1215	7777.30	4.1650	4.1649	0.7114	8.01	2.02	0.750			
0.1236	7912.85	4.1620	4.1621	0.7089	8.00	2.01	0.750			
0.1258	8048.02	4.1590	4.1589	0.7006	8.00	2.01	0.750			
0.1279	8182.85	4.1560	4.1561	0.7047	8.00	2.01	0.750			
0.1300	8317.16	4.1530	4.1531	0.7070	7.99	2.00	0.750			
0.1321	8451.70	4.1500	4.1500	0.7117	7.99	2.00	0.750			
0.1342	8587.13	4.1470	4.1471	0.7285	7.99	2.00	0.750			
0.1364	8728.54	4.1440	4.1439	0.7353	7.98	1.99	0.750			
0.1386	8872.47	4.1410	4.1408	0.7387	7.98	1.99	0.750			
0.1409	9018.07	4.1380	4.1382	0.7460	7.97	1.98	0.750			
0.1431	9161.50	4.1350	4.1351	0.7384	7.97	1.98	0.750			
0.1454	9304.41	4.1320	4.1319	0.7335	7.96	1.97	0.750			
0.1475	9440.65	4.1290	4.1291	0.7308	7.96	1.97	0.750			
0.1497	9579.09	4.1260	4.1261	0.7362	7.95	1.96	0.750			
0.1519	9723.32	4.1230	4.1229	0.7460	7.95	1.96	0.750			
0.1542	9866.84	4.1200	4.1200	0.7504	7.95	1.96	0.750			
0.1565	10013.17	4.1170	4.1170	0.7532	7.94	1.95	0.750			
0.1587	10158.59	4.1140	4.1140	0.7580	7.94	1.95	0.750			
0.1610	10305.25	4.1110	4.1110	0.7564	7.93	1.94	0.750			
0.1633	10448.76	4.1080	4.1081	0.7535	7.93	1.94	0.750			
0.1655	10593.12	4.1050	4.1048	0.7546	7.93	1.94	0.750			
0.1678	10738.74	4.1020	4.1021	0.7585	7.92	1.93	0.750			
0.1701	10883.93	4.0990	4.0990	0.7610	7.91	1.92	0.750			
0.1723	11029.35	4.0960	4.0960	0.7685	7.91	1.92	0.750			
0.1747	11178.02	4.0930	4.0931	0.7809	7.90	1.91	0.750			
0.1770	11329.18	4.0900	4.0899	0.7869	7.90	1.91	0.750			
0.1794	11481.45	4.0870	4.0869	0.7915	7.90	1.91	0.750			
0.1818	11635.15	4.0840	4.0841	0.7886	7.89	1.90	0.750			
0.1842	11785.90	4.0810	4.0812	0.7905	7.89	1.90	0.750			
0.1865	11938.37	4.0780	4.0780	0.7901	7.88	1.89	0.750			
0.1889	12089.06	4.0750	4.0747	0.7929	7.88	1.89	0.750			
0.1912	12238.86	4.0720	4.0721	0.7938	7.88	1.89	0.750			
0.1936	12392.35	4.0690	4.0691	0.8012	7.87	1.88	0.750			
0.1961	12548.90	4.0660	4.0661	0.8092	7.87	1.88	0.750			
0.1985	12703.30	4.0630	4.0629	0.8128	7.86	1.87	0.750			
0.2010	12861.75	4.0600	4.0599	0.8148	7.86	1.87	0.750			
0.2034	13018.35	4.0570	4.0570	0.8205	7.86	1.87	0.750			
0.2059	13176.09	4.0540	4.0540	0.8186	7.85	1.86	0.750			
0.2083	13333.67	4.0510	4.0511	0.8250	7.85	1.86	0.750			
0.2108	13492.87	4.0480	4.0479	0.8231	7.84	1.85	0.750			
0.2133	13651.31	4.0450	4.0448	0.8247	7.84	1.85	0.750			
0.2158	13809.16	4.0420	4.0422	0.8245	7.84	1.85	0.750			
0.2183	13969.01	4.0390	4.0391	0.8295	7.83	1.84	0.750			
0.2207	14126.74	4.0360	4.0360	0.8290	7.82	1.83	0.750			
0.2232	14285.35	4.0330	4.0330	0.8278	7.82	1.83	0.750			
0.2257	14444.60	4.0300	4.0299	0.8353	7.81	1.82	0.750			
0.2282	14606.16	4.0270	4.0270	0.8515	7.81	1.82	0.750			
0.2308	14770.46	4.0240	4.0240	0.8563	7.80	1.81	0.750			
0.2334	14937.38	4.0210	4.0210	0.8634	7.79	1.80	0.750			
0.2360	15103.89	4.0180	4.0180	0.8594	7.79	1.80	0.750			
0.2386	15271.51	4.0150	4.0150	0.8644	7.78	1.79	0.750			
0.2412	15438.16	4.0120	4.0120	0.8645	7.77	1.78	0.750			
0.2438	15601.83	4.0090	4.0089	0.8676	7.76	1.77	0.750			
0.2463	15763.53	4.0060	4.0061	0.8762	7.76	1.77	0.750			
0.2490	15934.13	4.0030	4.0030	0.8894	7.75	1.76	0.750			
0.2517	16110.06	4.0000	3.9998	0.8941	7.74	1.75	0.750			
0.2544	16284.38	3.9970	3.9970	0.8928	7.73	1.74	0.750			
0.2571	16455.81	3.9940	3.9943	0.9013	7.73	1.74	0.750			
0.2598	16628.89	3.9910	3.9910	0.8988	7.73	1.74	0.750			
0.2625	16798.83	3.9880	3.9878	0.8951	7.72	1.73	0.750			
0.2652	16971.30	3.9850	3.9851	0.8966	7.72	1.73	0.750			
0.2679	17144.95	3.9820	3.9820	0.9018	7.71	1.72	0.750			
0.2706	17318.74	3.9790	3.9791	0.9056	7.70	1.71	0.750			
0.2733	17492.16	3.9760	3.9760	0.9059	7.70	1.71	0.750			
0.2760	17662.45	3.9730	3.9730	0.9140	7.69	1.70	0.750			
0.2788	17840.10	3.9700	3.9700	0.9242	7.68	1.69	0.750			
0.2815	18018.11	3.9670	3.9670	0.9307	7.67	1.68	0.750			
0.2844	18200.80	3.9640	3.9641	0.9410	7.66	1.67	0.750			
0.2872	18381.18	3.9610	3.9611	0.9507	7.66	1.67	0.750			
0.2901	18565.25	3.9580	3.9579	0.9555	7.65	1.66	0.750			
0.2929	18747.18	3.9550	3.9550	0.9552	7.64	1.65	0.750			
0.2958	18929.38	3.9520	3.9522	0.9599	7.64	1.65	0.750			
0.2987	19116.40	3.9490	3.9491	0.9721	7.63	1.64	0.750			
0.3016	19303.18	3.9460	3.9457	0.9800	7.63	1.64	0.750			
0.3046	19492.10	3.9430	3.9432	0.9804	7.62	1.63	0.750			
0.3075	19679.52	3.9400	3.9401	0.9883	7.61	1.62	0.750			
0.3105	19873.05	3.9370	3.9370	0.9987	7.60	1.61	0.750			
0.3135	20061.92	3.9340	3.9339	1.0022	7.59	1.60	0.750			
0.3165	20256.72	3.9310	3.9309	1.0056	7.58	1.59	0.750			
0.3195	20450.16	3.9280	3.9280	1.0109	7.57	1.58	0.750			
0.3225	20642.47	3.9250	3.9251	1.0277	7.56	1.57	0.750			
0.3257	20843.51	3.9220	3.9220	1.0373	7.55	1.56	0.750			
0.3288	21041.77	3.9190	3.9189	1.0399	7.54	1.55	0.750			
0.3319	21241.09	3.9160	3.9160	1.0583	7.54	1.55	0.750			
0.3351	21444.94	3.9130	3.9134	1.0685	7.53	1.54	0.750			
0.3384	21654.91	3.9100	3.9098	1.0862	7.52	1.53	0.750			
0.3416	21863.13	3.9070	3.9070	1.0967	7.51	1.52	0.750			
0.3449	22073.29	3.9040	3.9042	1.1109	7.50	1.51	0.750			
0.3483	22290.77	3.9010	3.9010	1.1312	7.49	1.50	0.750			
0.3517	22508.20	3.8980	3.8979	1.1318	7.48	1.49	0.750			
0.3551	22726.80	3.8950	3.8950	1.1462	7.47	1.48	0.750			
0.3586	22948.71	3.8920	3.8919	1.1630	7.46	1.47	0.750			
0.3621	23173.13	3.8890	3.8891	1.1693	7.45	1.46	0.750			
0.3656	23397.59	3.8860	3.8861	1.1748	7.44	1.45	0.750			
0.3691	23624.18	3.8830	3.8831	1.1863	7.43	1.44	0.750			
0.3727	23852.89	3.8800	3.8800	1.2094	7.42	1.43	0.750			
0.3764	24087.34	3.8770	3.8767	1.2155	7.41	1.42	0.750			
0.3800	24316.98	3.8740	3.8741	1.2354	7.40	1.41	0.750			
0.3837	24555.46	3.8710	3.8712	1.2569	7.38	1.39	0.750			
0.3876	24803.61	3.8680	3.8679	1.2727	7.36	1.37	0.750			
0.3914	25048.23	3.8650	3.8651	1.3026	7.35	1.36	0.750	0.373	0.864	
0.3953	25299.12	3.8620	3.8622	1.3192	7.34	1.35	0.750			
0.3993	25555.32	3.8590	3.8590	1.3354	7.33	1.34	0.750			
0.4035	25822.46	3.8560	3.8562	1.3510	7.31	1.32	0.750			
0.4074	26072.53	3.8530	3.8531	1.3626	7.30	1.31	0.750			
0.4116	26340.76	3.8500	3.8500	1.3870	7.29	1.30	0.750			
0.4157	26605.95	3.8470	3.8471	1.4367	7.27	1.28	0.750			
0.4201	26884.34	3.8440	3.8440	1.4634	7.26	1.27	0.750			
0.4246	27173.43	3.8410	3.8409	1.4809	7.25	1.26	0.750			
0.4291	27465.29	3.8380	3.8382	1.5032	7.23	1.24	0.750			
0.4337	27756.81	3.8350	3.8352	1.5298	7.21	1.22	0.750			
0.4382	28042.99	3.8320	3.8318	1.5396	7.19	1.20	0.750			
0.4427	28333.29	3.8290	3.8291	1.5576	7.18	1.19	0.750			
0.4475	28637.76	3.8260	3.8261	1.6003	7.16	1.17	0.750			
0.4525	28956.81	3.8230	3.8229	1.6451	7.14	1.15	0.750			
0.4575	29279.00	3.8200	3.8199	1.6768	7.12	1.13	0.750			
0.4625	29601.31	3.8170	3.8170	1.7003	7.10	1.11	0.750			
0.4676	29929.42	3.8140	3.8141	1.7141	7.07	1.08	0.750			
0.4728	30259.03	3.8110	3.8110	1.7393	7.05	1.06	0.750			
0.4780	30592.90	3.8080	3.8081	1.7637	7.03	1.04	0.750			
0.4835	30940.86	3.8050	3.8050	1.7832	7.01	1.02	0.750			
0.4889	31289.26	3.8020	3.8020	1.8089	6.99	1.00	0.750			
0.4943	31633.33	3.7990	3.7992	1.8421	6.96	0.97	0.750			
0.4999	31990.93	3.7960	3.7959	1.8740	6.94	0.95	0.750			
0.5056	32356.28	3.7930	3.7930	1.9036	6.91	0.92	0.750			
0.5113	32723.71	3.7900	3.7899	1.9094	6.89	0.90	0.750			
0.5171	33092.93	3.7870	3.7869	1.9762	6.86	0.87	0.750			
0.5230	33474.70	3.7840	3.7838	1.9884	6.84	0.85	0.750			
0.5292	33866.38	3.7810	3.7807	1.9928	6.81	0.82	0.750			
0.5352	34253.40	3.7780	3.7783	2.0189	6.78	0.79	0.750			
0.5413	34642.83	3.7750	3.7751	2.0629	6.76	0.77	0.750			
0.5473	35028.35	3.7720	3.7718	2.0700	6.74	0.75	0.750			
0.5535	35423.37	3.7690	3.7689	2.1010	6.71	0.72	0.750			
0.5599	35833.00	3.7660	3.7661	2.1807	6.68	0.69	0.750			
0.5667	36268.40	3.7630	3.7631	2.2884	6.65	0.66	0.750			
0.5735	36704.01	3.7600	3.7599	2.3585	6.62	0.63	0.750			
0.5807	37165.38	3.7570	3.7570	2.4577	6.59	0.60	0.750			
0.5883	37650.64	3.7540	3.7540	2.5295	6.56	0.57	0.750			
0.5958	38133.85	3.7510	3.7511	2.6486	6.53	0.54	0.750			
0.6039	38650.71	3.7480	3.7479	2.8223	6.49	0.50	0.750			
0.6127	39215.73	3.7450	3.7451	2.9372	6.45	0.46	0.750			
0.6219	39800.09	3.7420	3.7420	3.0385	6.41	0.42	0.750			
0.6310	40384.54	3.7390	3.7389	3.0410	6.37	0.38	0.750			
0.6402	40969.77	3.7360	3.7360	3.0541	6.35	0.36	0.750			
0.6494	41563.37	3.7330	3.7329	3.0075	6.32	0.33	0.750			
0.6584	42137.74	3.7300	3.7300	2.8528	6.29	0.30	0.750			
0.6668	42677.70	3.7270	3.7269	2.6218	6.26	0.27	0.750			
0.6741	43141.68	3.7240	3.7239	2.2876	6.24	0.25	0.750			
0.6803	43540.09	3.7210	3.7208	2.0098	6.21	0.22	0.750			
0.6859	43896.69	3.7180	3.7182	1.7633	6.19	0.20	0.750			
0.6906	44201.00	3.7150	3.7151	1.5732	6.18	0.19	0.750			
0.6950	44476.90	3.7120	3.7120	1.4161	6.17	0.18	0.750			
0.6989	44728.06	3.7090	3.7091	1.3001	6.16	0.17	0.750			
0.7025	44962.05	3.7060	3.7058	1.2104	6.15	0.16	0.750			
0.7059	45180.57	3.7030	3.7033	1.1577	6.14	0.15	0.750			
0.7093	45397.87	3.7000	3.7001	1.1147	6.13	0.14	0.750			
0.7126	45605.91	3.6970	3.6968	1.0864	6.12	0.13	0.750			
0.7158	45811.88	3.6940	3.6941	1.0482	6.12	0.13	0.750			
0.7189	46009.33	3.6910	3.6910	1.0331	6.11	0.12	0.750			
0.7219	46204.33	3.6880	3.6879	1.0187	6.10	0.11	0.750			
0.7249	46395.71	3.6850	3.6852	1.0023	6.09	0.10	0.750			
0.7280	46590.26	3.6820	3.6821	0.9854	6.08	0.09	0.750			
0.7309	46780.47	3.6790	3.6790	0.9814	6.08	0.09	0.750			
0.7339	46967.91	3.6760	3.6760	0.9617	6.07	0.08	0.750			
0.7368	47153.55	3.6730	3.6731	0.9432	6.06	0.07	0.750			
0.7395	47328.97	3.6700	3.6701	0.9252	6.05	0.06	0.750			
0.7423	47505.88	3.6670	3.6671	0.8970	6.04	0.05	0.750			
0.7449	47673.72	3.6640	3.6640	0.8826	6.04	0.05	0.750			
0.7475	47840.68	3.6610	3.6611	0.8812	6.03	0.04	0.750			
0.7501	48004.06	3.6580	3.6583	0.8812	6.02	0.03	0.750			
0.7527	48173.89	3.6550	3.6549	0.8996	6.02	0.03	0.750			
0.7555	48348.91	3.6520	3.6520	0.9023	6.01	0.02	0.750			
0.7582	48522.39	3.6490	3.6491	0.9134	6.01	0.02	0.750			
0.7610	48706.81	3.6460	3.6461	0.9269	6.00	0.01	0.750			
0.7638	48885.13	3.6430	3.6426	0.8950	6.00	0.01	0.750			
0.7666	49059.22	3.6400	3.6401	0.8600	6.00	0.01	0.750			
0.7692	49226.61	3.6370	3.6371	0.7918	6.00	0.01	0.750			
0.7716	49380.72	3.6340	3.6339	0.7167	5.99	0.00	0.750			
0.7736	49511.95	3.6310	3.6311	0.6170	5.99	0.00	0.750			
0.7753	49619.54	3.6280	3.6280	0.5130	5.99	0.00	0.750			
0.7765	49697.47	3.6250	3.6253	0.4382	5.99	-0.00	0.750			
0.7777	49773.16	3.6220	3.6221	0.3617	5.99	-0.00	0.750			
0.7786	49829.13	3.6190	3.6188	0.2777	5.99	-0.00	0.750			
0.7793	49873.10	3.6160	3.6145	0.2142	5.99	-0.00	0.750			
0.7797	49899.55	3.6130	3.6068	0.1490	5.99	-0.00	0.750			
0.7798	49908.05	3.5950	3.5490	-0.1044	5.99	-0.00	0.750			
0.7799	49913.03	3.6100	3.4762	0.0940	5.99	-0.00	0.751			
0.7801	49924.28	3.5980	3.3118	-0.0647	5.99	-0.00	0.752			
0.7801	49927.27	3.6070	3.2682	0.0543	5.99	-0.00	0.752			
0.7802	49932.90	3.6010	3.1860	-0.0250	5.99	-0.00	0.753			
0.7802	49933.89	3.6040	3.1715	0.0147	5.99	-0.00	0.753			
