Ah_balance (normalized)	Ah_balance (mAh)	Voltage - fit (V)	Voltage -  interpolate (V)	dQ/dV (1/V)	Temperature (°C)	Temperature - diff (°C)	Current (C)	R_DC 0ms (mOhm)	R_DC 50ms (mOhm)	R_DC 50 ms PEC (mOhm)
0.0957	6124.80	4.1990	4.1966	0.6785	8.52	2.33	0.750	0.379	0.791	
0.0977	6250.37	4.1960	4.1983	0.6815	8.51	2.32	0.750			
0.1000	6399.47	4.1930	4.1950	0.7637	8.51	2.32	0.750			
0.1024	6553.76	4.1900	4.1917	0.7904	8.50	2.31	0.750			
0.1050	6717.43	4.1870	4.1878	0.7982	8.50	2.31	0.750			
0.1072	6861.64	4.1840	4.1845	0.7692	8.49	2.30	0.750			
0.1098	7024.58	4.1810	4.1810	0.7714	8.48	2.29	0.750			
0.1119	7160.17	4.1780	4.1780	0.7054	8.48	2.29	0.750			
0.1140	7294.95	4.1750	4.1750	0.7130	8.47	2.28	0.750			
0.1161	7432.12	4.1720	4.1720	0.7157	8.47	2.28	0.750			
0.1183	7569.88	4.1690	4.1690	0.7141	8.46	2.27	0.750			
0.1204	7707.38	4.1660	4.1661	0.7164	8.46	2.27	0.750			
0.1226	7844.43	4.1630	4.1632	0.7224	8.45	2.26	0.750			
0.1248	7986.11	4.1600	4.1599	0.7238	8.44	2.25	0.750			
0.1269	8123.42	4.1570	4.1569	0.7268	8.44	2.25	0.750			
0.1291	8261.28	4.1540	4.1541	0.7299	8.43	2.24	0.750			
0.1313	8403.77	4.1510	4.1510	0.7316	8.42	2.23	0.750			
0.1335	8545.05	4.1480	4.1480	0.7322	8.42	2.23	0.750			
0.1357	8684.98	4.1450	4.1449	0.7317	8.41	2.22	0.750			
0.1379	8825.07	4.1420	4.1421	0.7286	8.41	2.22	0.750			
0.1401	8967.38	4.1390	4.1390	0.7284	8.41	2.22	0.750			
0.1422	9103.41	4.1360	4.1361	0.7249	8.40	2.21	0.750			
0.1444	9242.74	4.1330	4.1330	0.7309	8.40	2.21	0.750			
0.1466	9383.09	4.1300	4.1301	0.7373	8.39	2.20	0.750			
0.1488	9524.21	4.1270	4.1269	0.7396	8.39	2.20	0.750			
0.1510	9665.54	4.1240	4.1241	0.7483	8.38	2.19	0.750			
0.1533	9811.15	4.1210	4.1210	0.7590	8.37	2.18	0.750			
0.1556	9957.99	4.1180	4.1180	0.7684	8.36	2.17	0.750			
0.1579	10106.25	4.1150	4.1149	0.7694	8.36	2.17	0.750			
0.1602	10254.51	4.1120	4.1122	0.7748	8.35	2.16	0.750			
0.1626	10405.43	4.1090	4.1090	0.7728	8.34	2.15	0.750			
0.1649	10552.70	4.1060	4.1060	0.7774	8.33	2.14	0.750			
0.1672	10700.97	4.1030	4.1031	0.7769	8.33	2.14	0.750			
0.1695	10848.81	4.1000	4.0999	0.7790	8.32	2.13	0.750			
0.1719	10998.75	4.0970	4.0970	0.7863	8.31	2.12	0.750			
0.1742	11151.42	4.0940	4.0941	0.7903	8.30	2.11	0.750			
0.1766	11303.95	4.0910	4.0910	0.7941	8.30	2.11	0.750			
0.1790	11457.64	4.0880	4.0880	0.7951	8.29	2.10	0.750			
0.1814	11609.41	4.0850	4.0850	0.7927	8.28	2.09	0.750			
0.1838	11761.73	4.0820	4.0821	0.7957	8.28	2.09	0.750			
0.1862	11915.22	4.0790	4.0788	0.7924	8.27	2.08	0.750			
0.1885	12066.31	4.0760	4.0761	0.7952	8.27	2.08	0.750			
0.1909	12219.88	4.0730	4.0730	0.8015	8.27	2.08	0.750			
0.1933	12374.08	4.0700	4.0700	0.8035	8.26	2.07	0.750			
0.1958	12528.83	4.0670	4.0671	0.8078	8.26	2.07	0.750			
0.1982	12682.79	4.0640	4.0641	0.8130	8.25	2.06	0.750			
0.2006	12838.65	4.0610	4.0609	0.8209	8.24	2.05	0.750			
0.2031	12998.29	4.0580	4.0579	0.8268	8.23	2.04	0.750			
0.2056	13157.80	4.0550	4.0550	0.8274	8.22	2.03	0.750			
0.2081	13317.61	4.0520	4.0520	0.8248	8.22	2.03	0.750			
0.2106	13478.98	4.0490	4.0491	0.8258	8.21	2.02	0.750			
0.2130	13634.99	4.0460	4.0460	0.8277	8.20	2.01	0.750			
0.2155	13789.12	4.0430	4.0430	0.8353	8.19	2.00	0.750			
0.2180	13949.40	4.0400	4.0399	0.8436	8.18	1.99	0.750			
0.2206	14115.46	4.0370	4.0370	0.8522	8.18	1.99	0.750			
0.2232	14283.85	4.0340	4.0340	0.8600	8.17	1.98	0.750			
0.2258	14449.03	4.0310	4.0312	0.8652	8.16	1.97	0.750			
0.2284	14615.96	4.0280	4.0280	0.8653	8.15	1.96	0.750			
0.2309	14777.95	4.0250	4.0249	0.8622	8.14	1.95	0.750			
0.2335	14943.26	4.0220	4.0220	0.8676	8.14	1.95	0.750			
0.2361	15111.83	4.0190	4.0190	0.8707	8.13	1.94	0.750			
0.2387	15278.78	4.0160	4.0160	0.8800	8.12	1.93	0.750			
0.2414	15451.41	4.0130	4.0131	0.8794	8.11	1.92	0.750			
0.2440	15618.30	4.0100	4.0097	0.8744	8.10	1.91	0.750			
0.2467	15786.91	4.0070	4.0070	0.8766	8.09	1.90	0.750			
0.2493	15954.60	4.0040	4.0041	0.8733	8.08	1.89	0.750			
0.2519	16119.16	4.0010	4.0009	0.8850	8.08	1.89	0.750			
0.2545	16289.30	3.9980	3.9980	0.8998	8.07	1.88	0.750			
0.2572	16461.12	3.9950	3.9948	0.9020	8.06	1.87	0.750			
0.2600	16640.00	3.9920	3.9921	0.9150	8.05	1.86	0.750			
0.2628	16817.94	3.9890	3.9890	0.9200	8.04	1.85	0.750			
0.2656	16995.26	3.9860	3.9860	0.9237	8.03	1.84	0.750			
0.2683	17170.71	3.9830	3.9830	0.9243	8.02	1.83	0.750			
0.2710	17346.69	3.9800	3.9800	0.9273	8.02	1.83	0.750			
0.2738	17525.87	3.9770	3.9770	0.9206	8.01	1.82	0.750			
0.2766	17703.36	3.9740	3.9740	0.9266	8.00	1.81	0.750			
0.2794	17880.89	3.9710	3.9712	0.9345	7.99	1.80	0.750			
0.2822	18058.01	3.9680	3.9677	0.9454	7.98	1.79	0.750			
0.2850	18238.09	3.9650	3.9651	0.9535	7.97	1.78	0.750			
0.2879	18422.79	3.9620	3.9620	0.9692	7.96	1.77	0.750			
0.2908	18613.02	3.9590	3.9590	0.9850	7.95	1.76	0.750			
0.2938	18805.16	3.9560	3.9560	0.9892	7.94	1.75	0.750			
0.2968	18998.14	3.9530	3.9529	0.9864	7.93	1.74	0.750			
0.2998	19187.21	3.9500	3.9501	0.9851	7.92	1.73	0.750			
0.3027	19373.23	3.9470	3.9470	0.9840	7.91	1.72	0.750			
0.3056	19560.90	3.9440	3.9442	0.9918	7.90	1.71	0.750			
0.3087	19754.50	3.9410	3.9409	0.9925	7.89	1.70	0.750			
0.3116	19942.86	3.9380	3.9380	1.0061	7.89	1.70	0.750			
0.3146	20137.56	3.9350	3.9351	1.0177	7.88	1.69	0.750			
0.3178	20337.46	3.9320	3.9320	1.0281	7.87	1.68	0.750			
0.3208	20532.25	3.9290	3.9289	1.0305	7.85	1.66	0.750			
0.3239	20730.32	3.9260	3.9262	1.0446	7.84	1.65	0.750			
0.3270	20930.46	3.9230	3.9231	1.0540	7.83	1.64	0.750			
0.3303	21137.08	3.9200	3.9198	1.0648	7.82	1.63	0.750			
0.3335	21342.27	3.9170	3.9171	1.0646	7.81	1.62	0.750			
0.3367	21547.87	3.9140	3.9140	1.0831	7.80	1.61	0.750			
0.3399	21756.48	3.9110	3.9111	1.0976	7.78	1.59	0.750			
0.3432	21966.62	3.9080	3.9078	1.1046	7.77	1.58	0.750			
0.3466	22179.82	3.9050	3.9051	1.1114	7.76	1.57	0.750			
0.3499	22394.99	3.9020	3.9021	1.1264	7.74	1.55	0.750			
0.3533	22612.55	3.8990	3.8991	1.1377	7.73	1.54	0.750			
0.3568	22832.87	3.8960	3.8957	1.1479	7.71	1.52	0.750			
0.3602	23051.24	3.8930	3.8931	1.1703	7.70	1.51	0.750			
0.3637	23279.86	3.8900	3.8900	1.1826	7.69	1.50	0.750			
0.3674	23511.65	3.8870	3.8869	1.1994	7.68	1.49	0.750			
0.3710	23744.92	3.8840	3.8842	1.1934	7.66	1.47	0.750			
0.3746	23971.27	3.8810	3.8811	1.2239	7.65	1.46	0.750			
0.3782	24206.97	3.8780	3.8780	1.2448	7.64	1.45	0.750			
0.3820	24444.83	3.8750	3.8748	1.2607	7.62	1.43	0.750	0.404	0.810	
0.3858	24689.63	3.8720	3.8722	1.2880	7.60	1.41	0.750			
0.3897	24941.14	3.8690	3.8691	1.3088	7.59	1.40	0.750			
0.3937	25196.34	3.8660	3.8660	1.3326	7.57	1.38	0.750			
0.3977	25450.15	3.8630	3.8631	1.3379	7.55	1.36	0.750			
0.4018	25712.23	3.8600	3.8597	1.3570	7.54	1.35	0.750			
0.4059	25980.41	3.8570	3.8570	1.3612	7.52	1.33	0.750			
0.4100	26239.71	3.8540	3.8542	1.3827	7.50	1.31	0.750			
0.4141	26504.41	3.8510	3.8511	1.4035	7.48	1.29	0.750			
0.4183	26770.02	3.8480	3.8479	1.4158	7.46	1.27	0.750			
0.4226	27046.39	3.8450	3.8450	1.4508	7.45	1.26	0.750			
0.4270	27331.00	3.8420	3.8421	1.4711	7.43	1.24	0.750			
0.4315	27616.86	3.8390	3.8388	1.5005	7.41	1.22	0.750			
0.4360	27905.91	3.8360	3.8362	1.5291	7.39	1.20	0.750			
0.4407	28203.49	3.8330	3.8331	1.5462	7.37	1.18	0.750			
0.4453	28502.06	3.8300	3.8297	1.5742	7.35	1.16	0.750			
0.4501	28808.95	3.8270	3.8271	1.5919	7.32	1.13	0.750			
0.4550	29118.77	3.8240	3.8242	1.6314	7.30	1.11	0.750			
0.4599	29436.33	3.8210	3.8211	1.6486	7.28	1.09	0.750			
0.4649	29753.63	3.8180	3.8180	1.6469	7.25	1.06	0.750			
0.4699	30073.36	3.8150	3.8149	1.6720	7.23	1.04	0.750			
0.4750	30400.53	3.8120	3.8119	1.6771	7.20	1.01	0.750			
0.4801	30724.02	3.8090	3.8090	1.6762	7.18	0.99	0.750			
0.4851	31043.97	3.8060	3.8061	1.6978	7.16	0.97	0.750			
0.4901	31368.37	3.8030	3.8032	1.7015	7.14	0.95	0.750			
0.4953	31696.98	3.8000	3.8000	1.7431	7.12	0.93	0.750			
0.5005	32029.21	3.7970	3.7969	1.7550	7.09	0.90	0.750			
0.5058	32371.34	3.7940	3.7940	1.8002	7.07	0.88	0.750			
0.5113	32722.32	3.7910	3.7911	1.8466	7.04	0.85	0.750			
0.5170	33088.24	3.7880	3.7878	1.8771	7.00	0.81	0.750			
0.5226	33446.84	3.7850	3.7853	1.8785	6.98	0.79	0.750			
0.5282	33807.61	3.7820	3.7821	1.9283	6.95	0.76	0.750			
0.5341	34184.18	3.7790	3.7790	1.9653	6.92	0.73	0.750			
0.5400	34561.43	3.7760	3.7758	1.9967	6.90	0.71	0.750			
0.5461	34949.08	3.7730	3.7732	2.0473	6.87	0.68	0.750			
0.5523	35347.63	3.7700	3.7699	2.1200	6.85	0.66	0.750			
0.5587	35756.61	3.7670	3.7670	2.2291	6.82	0.63	0.750			
0.5655	36194.01	3.7640	3.7638	2.3401	6.79	0.60	0.750			
0.5728	36660.74	3.7610	3.7612	2.4595	6.76	0.57	0.750			
0.5804	37147.58	3.7580	3.7580	2.5636	6.73	0.54	0.750			
0.5883	37648.82	3.7550	3.7548	2.5853	6.69	0.50	0.750			
0.5960	38145.99	3.7520	3.7521	2.6963	6.66	0.47	0.750			
0.6042	38667.54	3.7490	3.7489	2.8232	6.63	0.44	0.750			
0.6127	39212.00	3.7460	3.7461	2.9875	6.60	0.41	0.750			
0.6222	39820.56	3.7430	3.7432	3.1595	6.57	0.38	0.750			
0.6318	40437.47	3.7400	3.7400	3.0728	6.52	0.33	0.750			
0.6409	41017.50	3.7370	3.7372	2.8966	6.49	0.30	0.750			
0.6496	41573.23	3.7340	3.7340	2.6750	6.47	0.28	0.750			
0.6572	42057.79	3.7310	3.7312	2.3694	6.45	0.26	0.750			
0.6637	42478.85	3.7280	3.7280	2.0995	6.42	0.23	0.750			
0.6692	42831.93	3.7250	3.7250	1.8035	6.40	0.21	0.750			
0.6743	43154.28	3.7220	3.7221	1.5890	6.39	0.20	0.750			
0.6785	43423.36	3.7190	3.7190	1.4432	6.38	0.19	0.750			
0.6825	43677.15	3.7160	3.7159	1.3244	6.37	0.18	0.750			
0.6862	43919.57	3.7130	3.7129	1.2530	6.36	0.17	0.750			
0.6898	44147.67	3.7100	3.7101	1.1972	6.34	0.15	0.750			
0.6933	44374.14	3.7070	3.7070	1.1568	6.33	0.14	0.750			
0.6967	44590.36	3.7040	3.7041	1.1238	6.32	0.13	0.750			
0.7000	44799.93	3.7010	3.7009	1.0885	6.31	0.12	0.750			
0.7032	45002.84	3.6980	3.6981	1.0658	6.30	0.11	0.750			
0.7063	45205.02	3.6950	3.6950	1.0590	6.29	0.10	0.750			
0.7095	45409.05	3.6920	3.6919	1.0413	6.29	0.10	0.750			
0.7126	45607.27	3.6890	3.6889	1.0198	6.28	0.09	0.750			
0.7157	45803.22	3.6860	3.6861	1.0020	6.28	0.09	0.750			
0.7186	45993.55	3.6830	3.6830	0.9763	6.27	0.08	0.750			
0.7215	46179.17	3.6800	3.6800	0.9524	6.27	0.08	0.750			
0.7243	46354.62	3.6770	3.6771	0.9346	6.26	0.07	0.750			
0.7270	46530.55	3.6740	3.6740	0.9241	6.25	0.06	0.750			
0.7298	46705.81	3.6710	3.6710	0.9284	6.25	0.06	0.750			
0.7325	46882.02	3.6680	3.6679	0.9258	6.24	0.05	0.750			
0.7353	47061.66	3.6650	3.6651	0.9248	6.23	0.04	0.750			
0.7382	47242.01	3.6620	3.6620	0.9338	6.23	0.04	0.750			
0.7410	47422.24	3.6590	3.6591	0.9337	6.22	0.03	0.750			
0.7437	47599.83	3.6560	3.6559	0.9323	6.21	0.02	0.750			
0.7466	47780.53	3.6530	3.6531	0.9299	6.21	0.02	0.750			
0.7494	47959.63	3.6500	3.6500	0.9169	6.20	0.01	0.750			
0.7522	48138.33	3.6470	3.6469	0.8954	6.20	0.01	0.750			
0.7550	48318.33	3.6440	3.6440	0.8472	6.19	0.00	0.750			
0.7575	48481.73	3.6410	3.6409	0.7806	6.19	-0.00	0.750			
0.7598	48627.88	3.6380	3.6382	0.6810	6.19	-0.00	0.750			
0.7618	48752.28	3.6350	3.6351	0.5771	6.18	-0.01	0.750			
0.7633	48852.04	3.6320	3.6321	0.4685	6.18	-0.01	0.750			
0.7643	48914.25	3.6290	3.6295	0.3982	6.18	-0.01	0.750			
0.7653	48978.99	3.6260	3.6261	0.3047	6.18	-0.01	0.750			
0.7661	49028.38	3.6230	3.6226	0.2404	6.18	-0.01	0.750			
0.7666	49060.98	3.6200	3.6186	0.1751	6.17	-0.02	0.750			
0.7669	49083.92	3.5960	3.5836	-0.1028	6.17	-0.02	0.750			
0.7670	49087.29	3.6170	3.5371	0.1303	6.17	-0.02	0.746			
0.7671	49096.44	3.6140	3.4084	0.0810	6.17	-0.02	0.733			
0.7672	49100.72	3.5990	3.3483	-0.0721	6.17	-0.02	0.727			
0.7673	49109.06	3.6110	3.2309	0.0504	6.17	-0.02	0.715			
0.7674	49111.62	3.6020	3.1949	-0.0415	6.17	-0.02	0.712			
0.7674	49115.80	3.6080	3.1362	0.0198	6.17	-0.02	0.706			
0.7674	49116.65	3.6050	3.1241	-0.0109	6.17	-0.02	0.705			
