Ah_balance (normalized)	Ah_balance (mAh)	Voltage - fit (V)	Voltage -  interpolate (V)	dQ/dV (1/V)	Temperature (°C)	Temperature - diff (°C)	Current (C)	R_DC 0ms (mOhm)	R_DC 50ms (mOhm)	R_DC 50 ms PEC (mOhm)
0.0000	0.00	4.1010	4.1230	0.0000	5.99	0.00	-0.750			
0.0002	13.62	4.0980	4.0974	-0.0418	5.99	0.00	-0.750			
0.0004	26.45	4.0950	4.0945	-0.0733	5.99	0.00	-0.750			
0.0007	44.38	4.0920	4.0916	-0.1005	5.99	0.00	-0.750			
0.0010	66.26	4.0890	4.0890	-0.1274	5.99	0.00	-0.750			
0.0015	93.44	4.0860	4.0861	-0.1528	5.99	0.00	-0.750			
0.0020	125.32	4.0830	4.0831	-0.1771	5.99	0.00	-0.750			
0.0026	163.41	4.0800	4.0799	-0.2017	5.99	0.00	-0.750			
0.0032	204.05	4.0770	4.0770	-0.2245	5.99	0.00	-0.750			
0.0039	248.74	4.0740	4.0740	-0.2484	5.99	0.00	-0.750			
0.0047	299.18	4.0710	4.0710	-0.2694	5.99	0.00	-0.750			
0.0055	353.66	4.0680	4.0680	-0.2901	5.99	0.00	-0.750			
0.0064	411.25	4.0650	4.0650	-0.3098	5.99	0.00	-0.750			
0.0074	472.48	4.0620	4.0621	-0.3318	5.99	0.00	-0.750			
0.0084	537.94	4.0590	4.0590	-0.3534	5.99	0.00	-0.750			
0.0095	607.68	4.0560	4.0559	-0.3737	5.99	0.00	-0.750			
0.0106	681.14	4.0530	4.0529	-0.3949	5.99	0.00	-0.750			
0.0119	759.60	4.0500	4.0501	-0.4192	5.99	0.00	-0.750			
0.0132	842.90	4.0470	4.0470	-0.4419	5.99	0.00	-0.750			
0.0145	929.75	4.0440	4.0440	-0.4648	5.99	0.00	-0.750			
0.0160	1021.55	4.0410	4.0409	-0.4839	5.99	0.00	-0.750			
0.0175	1116.87	4.0380	4.0380	-0.5049	5.99	0.00	-0.750			
0.0190	1215.96	4.0350	4.0350	-0.5260	5.99	0.00	-0.750			
0.0206	1319.31	4.0320	4.0319	-0.5427	5.99	0.00	-0.750			
0.0223	1425.06	4.0290	4.0289	-0.5594	5.99	0.00	-0.750			
0.0240	1534.51	4.0260	4.0260	-0.5746	5.99	0.00	-0.750			
0.0257	1646.48	4.0230	4.0232	-0.5896	5.99	0.00	-0.750			
0.0276	1763.96	4.0200	4.0198	-0.6071	6.00	0.01	-0.750			
0.0294	1881.87	4.0170	4.0170	-0.6132	6.00	0.01	-0.750			
0.0313	2000.85	4.0140	4.0140	-0.6189	6.00	0.01	-0.750			
0.0331	2119.53	4.0110	4.0109	-0.6305	6.00	0.01	-0.750			
0.0350	2240.76	4.0080	4.0080	-0.6392	6.01	0.02	-0.750			
0.0369	2363.30	4.0050	4.0050	-0.6505	6.01	0.02	-0.750			
0.0389	2488.48	4.0020	4.0020	-0.6582	6.02	0.03	-0.750			
0.0409	2619.23	3.9990	3.9990	-0.6685	6.02	0.03	-0.750			
0.0430	2750.08	3.9960	3.9958	-0.6718	6.03	0.04	-0.750			
0.0450	2879.35	3.9930	3.9932	-0.6719	6.03	0.04	-0.750			
0.0470	3006.33	3.9900	3.9900	-0.6709	6.04	0.05	-0.750			
0.0489	3132.74	3.9870	3.9871	-0.6831	6.04	0.05	-0.750			
0.0510	3263.17	3.9840	3.9838	-0.6883	6.05	0.06	-0.750			
0.0531	3400.56	3.9810	3.9810	-0.7031	6.05	0.06	-0.750			
0.0553	3536.83	3.9780	3.9781	-0.7115	6.06	0.07	-0.750			
0.0575	3678.05	3.9750	3.9751	-0.7172	6.06	0.07	-0.750			
0.0596	3816.37	3.9720	3.9720	-0.7167	6.07	0.08	-0.750			
0.0617	3951.38	3.9690	3.9690	-0.7184	6.07	0.08	-0.750			
0.0639	4088.55	3.9660	3.9661	-0.7168	6.08	0.09	-0.750			
0.0660	4226.68	3.9630	3.9629	-0.7228	6.09	0.10	-0.750			
0.0682	4365.54	3.9600	3.9600	-0.7261	6.10	0.11	-0.750			
0.0704	4505.20	3.9570	3.9570	-0.7302	6.10	0.11	-0.750			
0.0726	4646.22	3.9540	3.9540	-0.7335	6.11	0.12	-0.750			
0.0748	4786.35	3.9510	3.9511	-0.7396	6.12	0.13	-0.750			
0.0770	4928.82	3.9480	3.9480	-0.7445	6.12	0.13	-0.750			
0.0793	5074.52	3.9450	3.9448	-0.7480	6.13	0.14	-0.750			
0.0815	5217.43	3.9420	3.9420	-0.7503	6.14	0.15	-0.750			
0.0838	5362.90	3.9390	3.9391	-0.7519	6.15	0.16	-0.750			
0.0861	5508.35	3.9360	3.9359	-0.7531	6.15	0.16	-0.750			
0.0883	5653.62	3.9330	3.9329	-0.7518	6.16	0.17	-0.750			
0.0906	5795.41	3.9300	3.9301	-0.7489	6.17	0.18	-0.750			
0.0928	5941.46	3.9270	3.9269	-0.7464	6.17	0.18	-0.750			
0.0951	6083.47	3.9240	3.9241	-0.7462	6.18	0.19	-0.750			
0.0973	6224.84	3.9210	3.9210	-0.7416	6.19	0.20	-0.750			
0.0995	6366.79	3.9180	3.9180	-0.7470	6.20	0.21	-0.750			
0.1017	6509.74	3.9150	3.9149	-0.7514	6.21	0.22	-0.750			
0.1040	6655.74	3.9120	3.9121	-0.7587	6.22	0.23	-0.750			
0.1063	6801.54	3.9090	3.9089	-0.7640	6.23	0.24	-0.750			
0.1086	6951.19	3.9060	3.9060	-0.7683	6.23	0.24	-0.750			
0.1109	7097.07	3.9030	3.9031	-0.7704	6.24	0.25	-0.750			
0.1132	7245.90	3.9000	3.9000	-0.7703	6.25	0.26	-0.750			
0.1155	7392.16	3.8970	3.8969	-0.7685	6.26	0.27	-0.750			
0.1178	7540.02	3.8940	3.8940	-0.7745	6.26	0.27	-0.750			
0.1202	7689.61	3.8910	3.8912	-0.7780	6.27	0.28	-0.750			
0.1225	7840.80	3.8880	3.8879	-0.7792	6.28	0.29	-0.750			
0.1249	7991.26	3.8850	3.8850	-0.7829	6.29	0.30	-0.750			
0.1272	8138.71	3.8820	3.8821	-0.7820	6.29	0.30	-0.750			
0.1295	8290.89	3.8790	3.8789	-0.7880	6.30	0.31	-0.750			
0.1319	8442.51	3.8760	3.8759	-0.7821	6.31	0.32	-0.750			
0.1343	8592.06	3.8730	3.8730	-0.7827	6.32	0.33	-0.750			
0.1366	8743.58	3.8700	3.8700	-0.7843	6.32	0.33	-0.750			
0.1390	8895.37	3.8670	3.8669	-0.7848	6.33	0.34	-0.750			
0.1413	9045.31	3.8640	3.8640	-0.7787	6.34	0.35	-0.750			
0.1437	9194.00	3.8610	3.8611	-0.7745	6.35	0.36	-0.750			
0.1460	9341.84	3.8580	3.8579	-0.7802	6.36	0.37	-0.750			
0.1483	9491.35	3.8550	3.8550	-0.7867	6.36	0.37	-0.750			
0.1506	9641.09	3.8520	3.8519	-0.7881	6.37	0.38	-0.750			
0.1530	9791.35	3.8490	3.8490	-0.7971	6.38	0.39	-0.750			
0.1554	9948.55	3.8460	3.8460	-0.8020	6.39	0.40	-0.750			
0.1579	10104.46	3.8430	3.8430	-0.8043	6.40	0.41	-0.750			
0.1603	10258.14	3.8400	3.8400	-0.8060	6.41	0.42	-0.750			
0.1627	10412.17	3.8370	3.8370	-0.8017	6.41	0.42	-0.750			
0.1651	10566.85	3.8340	3.8340	-0.7987	6.42	0.43	-0.750			
0.1675	10719.90	3.8310	3.8309	-0.8017	6.43	0.44	-0.750			
0.1699	10872.19	3.8280	3.8283	-0.8011	6.43	0.44	-0.750			
0.1723	11027.85	3.8250	3.8250	-0.8086	6.44	0.45	-0.750			
0.1747	11182.09	3.8220	3.8219	-0.8139	6.45	0.46	-0.750			
0.1772	11338.59	3.8190	3.8190	-0.8160	6.46	0.47	-0.750			
0.1796	11496.64	3.8160	3.8160	-0.8221	6.47	0.48	-0.750			
0.1821	11655.27	3.8130	3.8132	-0.8222	6.48	0.49	-0.750			
0.1846	11813.66	3.8100	3.8098	-0.8194	6.49	0.50	-0.750			
0.1871	11972.03	3.8070	3.8071	-0.8158	6.50	0.51	-0.750			
0.1895	12128.01	3.8040	3.8040	-0.8088	6.50	0.51	-0.750			
0.1919	12282.31	3.8010	3.8010	-0.8099	6.51	0.52	-0.750			
0.1943	12437.07	3.7980	3.7980	-0.8095	6.52	0.53	-0.750			
0.1967	12589.19	3.7950	3.7950	-0.8100	6.53	0.54	-0.750			
0.1991	12744.44	3.7920	3.7920	-0.8200	6.54	0.55	-0.750			
0.2016	12903.77	3.7890	3.7890	-0.8271	6.55	0.56	-0.750			
0.2041	13064.65	3.7860	3.7858	-0.8302	6.56	0.57	-0.750			
0.2067	13226.68	3.7830	3.7831	-0.8300	6.57	0.58	-0.750			
0.2091	13385.53	3.7800	3.7800	-0.8254	6.58	0.59	-0.750			
0.2116	13544.20	3.7770	3.7770	-0.8263	6.58	0.59	-0.750			
0.2141	13701.96	3.7740	3.7740	-0.8240	6.59	0.60	-0.750			
0.2165	13857.99	3.7710	3.7709	-0.8203	6.60	0.61	-0.750			
0.2190	14016.83	3.7680	3.7681	-0.8234	6.61	0.62	-0.750			
0.2215	14174.48	3.7650	3.7649	-0.8229	6.62	0.63	-0.750			
0.2239	14332.70	3.7620	3.7620	-0.8303	6.62	0.63	-0.750			
0.2264	14492.25	3.7590	3.7589	-0.8283	6.63	0.64	-0.750			
0.2289	14648.85	3.7560	3.7559	-0.8346	6.64	0.65	-0.750			
0.2314	14810.38	3.7530	3.7531	-0.8458	6.65	0.66	-0.750			
0.2340	14974.81	3.7500	3.7500	-0.8489	6.66	0.67	-0.750			
0.2366	15140.58	3.7470	3.7470	-0.8565	6.66	0.67	-0.750			
0.2392	15306.93	3.7440	3.7440	-0.8547	6.67	0.68	-0.750			
0.2417	15470.67	3.7410	3.7409	-0.8495	6.68	0.69	-0.750			
0.2443	15635.65	3.7380	3.7382	-0.8506	6.69	0.70	-0.750			
0.2468	15794.67	3.7350	3.7350	-0.8566	6.70	0.71	-0.750			
0.2493	15958.32	3.7320	3.7319	-0.8618	6.71	0.72	-0.750			
0.2520	16127.01	3.7290	3.7288	-0.8675	6.71	0.72	-0.750			
0.2546	16295.22	3.7260	3.7261	-0.8793	6.72	0.73	-0.750			
0.2572	16463.40	3.7230	3.7231	-0.8808	6.73	0.74	-0.750			
0.2599	16633.49	3.7200	3.7200	-0.8873	6.74	0.75	-0.750			
0.2625	16802.78	3.7170	3.7169	-0.8847	6.75	0.76	-0.750			
0.2652	16971.62	3.7140	3.7139	-0.8846	6.76	0.77	-0.750			
0.2679	17144.60	3.7110	3.7111	-0.8889	6.76	0.77	-0.750			
0.2705	17314.31	3.7080	3.7081	-0.8918	6.77	0.78	-0.750			
0.2732	17483.33	3.7050	3.7050	-0.8982	6.78	0.79	-0.750			
0.2759	17656.94	3.7020	3.7020	-0.9041	6.79	0.80	-0.750			
0.2786	17830.87	3.6990	3.6989	-0.9063	6.80	0.81	-0.750			
0.2814	18007.64	3.6960	3.6959	-0.9120	6.81	0.82	-0.750			
0.2841	18183.13	3.6930	3.6932	-0.9227	6.81	0.82	-0.750			
0.2869	18361.51	3.6900	3.6901	-0.9230	6.82	0.83	-0.750			
0.2897	18539.13	3.6870	3.6868	-0.9135	6.83	0.84	-0.750			
0.2924	18713.62	3.6840	3.6839	-0.9140	6.83	0.84	-0.750			
0.2951	18888.09	3.6810	3.6812	-0.9214	6.84	0.85	-0.750			
0.2979	19063.58	3.6780	3.6779	-0.9342	6.85	0.86	-0.750			
0.3007	19244.08	3.6750	3.6749	-0.9439	6.85	0.86	-0.750			
0.3035	19425.94	3.6720	3.6720	-0.9527	6.86	0.87	-0.750			
0.3065	19612.87	3.6690	3.6691	-0.9676	6.87	0.88	-0.750			
0.3094	19800.80	3.6660	3.6660	-0.9742	6.88	0.89	-0.750			
0.3123	19987.93	3.6630	3.6630	-0.9754	6.89	0.90	-0.750			
0.3152	20174.51	3.6600	3.6600	-0.9805	6.90	0.91	-0.750			
0.3181	20359.47	3.6570	3.6570	-0.9925	6.91	0.92	-0.750			
0.3211	20552.06	3.6540	3.6539	-1.0106	6.91	0.92	-0.750			
0.3242	20750.09	3.6510	3.6509	-1.0089	6.92	0.93	-0.750			
0.3273	20946.96	3.6480	3.6480	-1.0151	6.92	0.93	-0.750			
0.3304	21142.54	3.6450	3.6451	-1.0127	6.93	0.94	-0.750			
0.3334	21336.80	3.6420	3.6419	-1.0143	6.93	0.94	-0.750			
0.3364	21528.00	3.6390	3.6389	-1.0162	6.94	0.95	-0.750			
0.3394	21722.50	3.6360	3.6358	-1.0192	6.95	0.96	-0.750			
0.3425	21918.65	3.6330	3.6330	-1.0276	6.95	0.96	-0.750			
0.3456	22117.46	3.6300	3.6301	-1.0510	6.96	0.97	-0.750			
0.3487	22319.89	3.6270	3.6270	-1.0627	6.97	0.98	-0.750			
0.3520	22525.59	3.6240	3.6238	-1.0807	6.98	0.99	-0.750			
0.3552	22733.67	3.6210	3.6209	-1.0894	6.99	1.00	-0.750			
0.3585	22946.55	3.6180	3.6181	-1.1106	6.99	1.00	-0.750			
0.3620	23164.99	3.6150	3.6149	-1.1215	7.00	1.01	-0.750			
0.3653	23380.70	3.6120	3.6120	-1.1214	7.00	1.01	-0.750			
0.3686	23593.46	3.6090	3.6090	-1.1145	7.01	1.02	-0.750			
0.3720	23808.96	3.6060	3.6060	-1.1305	7.01	1.02	-0.750			
0.3754	24024.26	3.6030	3.6030	-1.1374	7.02	1.03	-0.750			
0.3788	24245.14	3.6000	3.5999	-1.1450	7.02	1.03	-0.750			
0.3822	24463.38	3.5970	3.5973	-1.1568	7.03	1.04	-0.750			
0.3858	24690.43	3.5940	3.5939	-1.1701	7.04	1.05	-0.750			
0.3893	24915.01	3.5910	3.5915	-1.1795	7.04	1.05	-0.750	0.393	0.900	
0.3928	25141.65	3.5880	3.5879	-1.1883	7.05	1.06	-0.750			
0.3964	25371.48	3.5850	3.5849	-1.2079	7.05	1.06	-0.750			
0.4001	25606.25	3.5820	3.5820	-1.2120	7.06	1.07	-0.750			
0.4038	25840.27	3.5790	3.5790	-1.2233	7.06	1.07	-0.750			
0.4075	26077.04	3.5760	3.5763	-1.2256	7.07	1.08	-0.750			
0.4112	26315.28	3.5730	3.5728	-1.2273	7.08	1.09	-0.750			
0.4148	26547.67	3.5700	3.5700	-1.2286	7.09	1.10	-0.750			
0.4185	26781.24	3.5670	3.5671	-1.2440	7.10	1.11	-0.750			
0.4222	27022.13	3.5640	3.5639	-1.2580	7.10	1.11	-0.750			
0.4260	27265.39	3.5610	3.5610	-1.2655	7.11	1.12	-0.750			
0.4298	27505.11	3.5580	3.5579	-1.2839	7.12	1.13	-0.750			
0.4337	27753.80	3.5550	3.5551	-1.3112	7.12	1.13	-0.750			
0.4377	28010.01	3.5520	3.5519	-1.3277	7.13	1.14	-0.750			
0.4416	28265.57	3.5490	3.5489	-1.3372	7.14	1.15	-0.750			
0.4457	28525.94	3.5460	3.5461	-1.3344	7.14	1.15	-0.750			
0.4498	28785.80	3.5430	3.5430	-1.3449	7.15	1.16	-0.750			
0.4538	29044.66	3.5400	3.5400	-1.3488	7.15	1.16	-0.750			
0.4578	29301.04	3.5370	3.5369	-1.3469	7.16	1.17	-0.750			
0.4619	29558.89	3.5340	3.5340	-1.3449	7.17	1.18	-0.750			
0.4659	29819.78	3.5310	3.5310	-1.3447	7.17	1.18	-0.750			
0.4700	30077.99	3.5280	3.5282	-1.3558	7.18	1.19	-0.750			
0.4740	30338.05	3.5250	3.5250	-1.3671	7.19	1.20	-0.750			
0.4781	30598.46	3.5220	3.5219	-1.3714	7.20	1.21	-0.750			
0.4822	30860.74	3.5190	3.5191	-1.3830	7.21	1.22	-0.750			
0.4865	31135.42	3.5160	3.5159	-1.3877	7.22	1.23	-0.750			
0.4907	31403.28	3.5130	3.5130	-1.3797	7.23	1.24	-0.750			
0.4948	31669.96	3.5100	3.5101	-1.3842	7.24	1.25	-0.750			
0.4989	31930.99	3.5070	3.5069	-1.3869	7.25	1.26	-0.750			
0.5031	32196.48	3.5040	3.5038	-1.3870	7.26	1.27	-0.750			
0.5072	32462.49	3.5010	3.5013	-1.3835	7.27	1.28	-0.750			
0.5114	32731.52	3.4980	3.4982	-1.3885	7.28	1.29	-0.750			
0.5156	33000.89	3.4950	3.4950	-1.3848	7.28	1.29	-0.750			
0.5198	33264.64	3.4920	3.4919	-1.3745	7.29	1.30	-0.750			
0.5239	33527.56	3.4890	3.4890	-1.3669	7.30	1.31	-0.750			
0.5279	33785.15	3.4860	3.4860	-1.3552	7.32	1.33	-0.750			
0.5320	34048.17	3.4830	3.4831	-1.3590	7.33	1.34	-0.750			
0.5361	34308.88	3.4800	3.4800	-1.3536	7.34	1.35	-0.750			
0.5402	34569.79	3.4770	3.4769	-1.3451	7.35	1.36	-0.750			
0.5442	34827.98	3.4740	3.4741	-1.3429	7.36	1.37	-0.750			
0.5482	35087.63	3.4710	3.4709	-1.3360	7.37	1.38	-0.750			
0.5522	35341.61	3.4680	3.4681	-1.3299	7.38	1.39	-0.750			
0.5562	35595.37	3.4650	3.4651	-1.3234	7.40	1.41	-0.750			
0.5602	35850.44	3.4620	3.4618	-1.3112	7.41	1.42	-0.750			
0.5641	36103.12	3.4590	3.4590	-1.2993	7.42	1.43	-0.750			
0.5680	36350.11	3.4560	3.4561	-1.2887	7.43	1.44	-0.750			
0.5718	36594.81	3.4530	3.4529	-1.2737	7.45	1.46	-0.750			
0.5756	36840.68	3.4500	3.4498	-1.2640	7.45	1.46	-0.750			
0.5793	37077.54	3.4470	3.4471	-1.2557	7.46	1.47	-0.750			
0.5831	37316.07	3.4440	3.4442	-1.2533	7.47	1.48	-0.750			
0.5869	37562.92	3.4410	3.4410	-1.2600	7.49	1.50	-0.750			
0.5907	37803.95	3.4380	3.4379	-1.2535	7.50	1.51	-0.750			
0.5945	38045.19	3.4350	3.4352	-1.2408	7.52	1.53	-0.750			
0.5982	38285.42	3.4320	3.4320	-1.2295	7.53	1.54	-0.750			
0.6019	38523.25	3.4290	3.4290	-1.2106	7.54	1.55	-0.750			
0.6055	38753.12	3.4260	3.4260	-1.1764	7.56	1.57	-0.750			
0.6090	38974.74	3.4230	3.4229	-1.1525	7.57	1.58	-0.750			
0.6124	39194.06	3.4200	3.4200	-1.1216	7.59	1.60	-0.750			
0.6157	39403.99	3.4170	3.4169	-1.0948	7.60	1.61	-0.750			
0.6189	39610.68	3.4140	3.4142	-1.0785	7.62	1.63	-0.750			
0.6221	39817.46	3.4110	3.4109	-1.0687	7.63	1.64	-0.750			
0.6253	40020.12	3.4080	3.4080	-1.0504	7.65	1.66	-0.750			
0.6284	40219.71	3.4050	3.4049	-1.0405	7.66	1.67	-0.750			
0.6315	40416.18	3.4020	3.4020	-1.0267	7.68	1.69	-0.750			
0.6346	40616.48	3.3990	3.3990	-1.0197	7.70	1.71	-0.750			
0.6377	40810.59	3.3960	3.3959	-1.0003	7.72	1.73	-0.750			
0.6407	41002.17	3.3930	3.3931	-0.9809	7.74	1.75	-0.750			
0.6436	41190.09	3.3900	3.3900	-0.9612	7.75	1.76	-0.750			
0.6464	41372.04	3.3870	3.3870	-0.9483	7.78	1.79	-0.750			
0.6492	41550.92	3.3840	3.3840	-0.9281	7.82	1.83	-0.750			
0.6520	41725.18	3.3810	3.3810	-0.9129	7.86	1.87	-0.750			
0.6547	41899.10	3.3780	3.3778	-0.8986	7.89	1.90	-0.750			
0.6574	42072.72	3.3750	3.3753	-0.8846	7.92	1.93	-0.750			
0.6601	42243.42	3.3720	3.3718	-0.8585	7.96	1.97	-0.750			
0.6626	42406.96	3.3690	3.3691	-0.8358	7.99	2.00	-0.750			
0.6651	42565.07	3.3660	3.3659	-0.8102	8.02	2.03	-0.750			
0.6674	42716.75	3.3630	3.3630	-0.7860	8.04	2.05	-0.750			
0.6698	42864.25	3.3600	3.3602	-0.7653	8.06	2.07	-0.750			
0.6720	43007.84	3.3570	3.3570	-0.7435	8.09	2.10	-0.750			
0.6742	43148.11	3.3540	3.3539	-0.7266	8.11	2.12	-0.750			
0.6764	43287.65	3.3510	3.3511	-0.7119	8.13	2.14	-0.750			
0.6785	43423.81	3.3480	3.3479	-0.6952	8.15	2.16	-0.750			
0.6805	43555.13	3.3450	3.3451	-0.6729	8.17	2.18	-0.750			
0.6825	43681.96	3.3420	3.3420	-0.6515	8.18	2.19	-0.750			
0.6845	43804.84	3.3390	3.3390	-0.6317	8.20	2.21	-0.750			
0.6863	43924.00	3.3360	3.3360	-0.6151	8.22	2.23	-0.750			
0.6881	44040.67	3.3330	3.3330	-0.6004	8.24	2.25	-0.750			
0.6899	44153.97	3.3300	3.3300	-0.5837	8.26	2.27	-0.750			
0.6916	44264.54	3.3270	3.3271	-0.5672	8.27	2.28	-0.750			
0.6933	44372.13	3.3240	3.3241	-0.5540	8.29	2.30	-0.750			
0.6949	44476.45	3.3210	3.3211	-0.5421	8.29	2.30	-0.750			
0.6965	44578.18	3.3180	3.3179	-0.5309	8.31	2.32	-0.750			
0.6981	44678.27	3.3150	3.3150	-0.5235	8.33	2.34	-0.750			
0.6997	44777.78	3.3120	3.3120	-0.5176	8.34	2.35	-0.750			
0.7012	44878.63	3.3090	3.3090	-0.5064	8.36	2.37	-0.750			
0.7027	44975.53	3.3060	3.3060	-0.4979	8.38	2.39	-0.750			
0.7042	45070.44	3.3030	3.3030	-0.4839	8.39	2.40	-0.750			
0.7057	45161.82	3.3000	3.2998	-0.4716	8.40	2.41	-0.750			
0.7070	45250.06	3.2970	3.2973	-0.4601	8.41	2.42	-0.750			
0.7084	45336.82	3.2940	3.2939	-0.4499	8.43	2.44	-0.750			
0.7097	45421.63	3.2910	3.2910	-0.4428	8.44	2.45	-0.750			
0.7110	45506.57	3.2880	3.2880	-0.4367	8.46	2.47	-0.750			
0.7123	45590.00	3.2850	3.2850	-0.4305	8.47	2.48	-0.750			
0.7136	45672.35	3.2820	3.2819	-0.4204	8.49	2.50	-0.750			
0.7149	45751.50	3.2790	3.2791	-0.4103	8.50	2.51	-0.750			
0.7161	45829.37	3.2760	3.2760	-0.4019	8.51	2.52	-0.750			
0.7173	45904.89	3.2730	3.2729	-0.3938	8.52	2.53	-0.750			
0.7184	45979.50	3.2700	3.2700	-0.3857	8.53	2.54	-0.750			
0.7196	46052.71	3.2670	3.2670	-0.3800	8.54	2.55	-0.750			
0.7207	46125.70	3.2640	3.2639	-0.3730	8.55	2.56	-0.750			
0.7218	46197.09	3.2610	3.2611	-0.3654	8.56	2.57	-0.750			
0.7229	46265.63	3.2580	3.2580	-0.3599	8.58	2.59	-0.750			
0.7240	46334.15	3.2550	3.2551	-0.3545	8.59	2.60	-0.750			
0.7250	46401.81	3.2520	3.2519	-0.3494	8.60	2.61	-0.750			
0.7261	46467.70	3.2490	3.2490	-0.3446	8.61	2.62	-0.750			
0.7271	46533.96	3.2460	3.2460	-0.3393	8.62	2.63	-0.750			
0.7281	46598.56	3.2430	3.2431	-0.3366	8.63	2.64	-0.750			
0.7291	46662.94	3.2400	3.2400	-0.3326	8.64	2.65	-0.750			
0.7301	46726.28	3.2370	3.2370	-0.3262	8.65	2.66	-0.750			
0.7311	46788.90	3.2340	3.2339	-0.3208	8.66	2.67	-0.750			
0.7320	46850.12	3.2310	3.2313	-0.3146	8.67	2.68	-0.750			
0.7330	46910.40	3.2280	3.2280	-0.3082	8.68	2.69	-0.750			
0.7339	46969.08	3.2250	3.2250	-0.3020	8.69	2.70	-0.750			
0.7348	47025.58	3.2220	3.2220	-0.2944	8.70	2.71	-0.750			
0.7356	47080.72	3.2190	3.2190	-0.2901	8.72	2.73	-0.750			
0.7365	47136.01	3.2160	3.2160	-0.2875	8.73	2.74	-0.750			
0.7374	47190.90	3.2130	3.2129	-0.2840	8.74	2.75	-0.750			
0.7382	47245.26	3.2100	3.2100	-0.2803	8.75	2.76	-0.750			
0.7391	47299.20	3.2070	3.2070	-0.2777	8.76	2.77	-0.750			
0.7399	47352.22	3.2040	3.2040	-0.2735	8.77	2.78	-0.750			
0.7407	47404.26	3.2010	3.2009	-0.2694	8.78	2.79	-0.750			
0.7415	47454.93	3.1980	3.1980	-0.2669	8.79	2.80	-0.750			
0.7423	47505.94	3.1950	3.1950	-0.2638	8.80	2.81	-0.750			
0.7431	47556.78	3.1920	3.1919	-0.2614	8.81	2.82	-0.750			
0.7439	47606.95	3.1890	3.1890	-0.2580	8.82	2.83	-0.750			
0.7446	47656.46	3.1860	3.1861	-0.2548	8.83	2.84	-0.750			
0.7454	47705.09	3.1830	3.1830	-0.2509	8.84	2.85	-0.750			
0.7461	47752.34	3.1800	3.1800	-0.2478	8.85	2.86	-0.750			
0.7469	47799.26	3.1770	3.1770	-0.2450	8.86	2.87	-0.750			
0.7476	47845.95	3.1740	3.1740	-0.2433	8.87	2.88	-0.750			
0.7483	47892.78	3.1710	3.1709	-0.2396	8.88	2.89	-0.750			
0.7490	47938.65	3.1680	3.1681	-0.2370	8.89	2.90	-0.750			
0.7497	47983.84	3.1650	3.1651	-0.2358	8.90	2.91	-0.750			
0.7504	48028.69	3.1620	3.1620	-0.2339	8.91	2.92	-0.750			
0.7511	48073.31	3.1590	3.1588	-0.2315	8.91	2.92	-0.750			
0.7518	48117.05	3.1560	3.1560	-0.2289	8.92	2.93	-0.750			
0.7525	48161.25	3.1530	3.1531	-0.2268	8.93	2.94	-0.750			
0.7532	48204.76	3.1500	3.1501	-0.2235	8.94	2.95	-0.750			
0.7539	48247.72	3.1470	3.1471	-0.2224	8.95	2.96	-0.750			
0.7545	48289.93	3.1440	3.1439	-0.2190	8.96	2.97	-0.750			
0.7552	48331.27	3.1410	3.1410	-0.2158	8.97	2.98	-0.750			
0.7558	48372.29	3.1380	3.1379	-0.2139	8.97	2.98	-0.750			
0.7565	48413.01	3.1350	3.1351	-0.2126	8.98	2.99	-0.750			
0.7571	48453.76	3.1320	3.1322	-0.2118	8.99	3.00	-0.750			
0.7577	48494.73	3.1290	3.1289	-0.2089	9.00	3.01	-0.750			
0.7584	48534.73	3.1260	3.1260	-0.2076	9.01	3.02	-0.750			
0.7590	48573.99	3.1230	3.1231	-0.2048	9.02	3.03	-0.750			
0.7596	48613.16	3.1200	3.1200	-0.2032	9.03	3.04	-0.750			
0.7602	48652.15	3.1170	3.1169	-0.2021	9.04	3.05	-0.750			
0.7608	48690.70	3.1140	3.1141	-0.1994	9.05	3.06	-0.750			
0.7614	48728.64	3.1110	3.1109	-0.1976	9.06	3.07	-0.750			
0.7620	48766.46	3.1080	3.1081	-0.1963	9.07	3.08	-0.750			
0.7626	48804.47	3.1050	3.1051	-0.1956	9.08	3.09	-0.750			
0.7632	48841.66	3.1020	3.1020	-0.1928	9.08	3.09	-0.750			
0.7637	48878.58	3.0990	3.0988	-0.1910	9.09	3.10	-0.750			
0.7643	48915.06	3.0960	3.0961	-0.1890	9.10	3.11	-0.750			
0.7649	48951.04	3.0930	3.0931	-0.1878	9.11	3.12	-0.750			
0.7654	48986.98	3.0900	3.0900	-0.1872	9.12	3.13	-0.750			
0.7660	49022.40	3.0870	3.0870	-0.1857	9.13	3.14	-0.750			
0.7665	49057.80	3.0840	3.0839	-0.1851	9.14	3.15	-0.750			
0.7671	49093.69	3.0810	3.0811	-0.1831	9.14	3.15	-0.750			
0.7676	49128.97	3.0780	3.0780	-0.1830	9.15	3.16	-0.750			
0.7682	49164.21	3.0750	3.0751	-0.1814	9.16	3.17	-0.750			
0.7687	49198.69	3.0720	3.0719	-0.1801	9.17	3.18	-0.750			
0.7693	49232.98	3.0690	3.0689	-0.1785	9.18	3.19	-0.750			
0.7698	49267.00	3.0660	3.0660	-0.1769	9.18	3.19	-0.750			
0.7703	49300.81	3.0630	3.0629	-0.1755	9.19	3.20	-0.750			
0.7708	49334.39	3.0600	3.0600	-0.1746	9.20	3.21	-0.750			
0.7714	49368.11	3.0570	3.0570	-0.1737	9.21	3.22	-0.750			
0.7719	49401.04	3.0540	3.0540	-0.1716	9.22	3.23	-0.750			
0.7724	49434.15	3.0510	3.0509	-0.1707	9.23	3.24	-0.750			
0.7729	49466.34	3.0480	3.0480	-0.1693	9.24	3.25	-0.750			
0.7734	49498.79	3.0450	3.0451	-0.1687	9.25	3.26	-0.750			
0.7739	49531.09	3.0420	3.0420	-0.1680	9.26	3.27	-0.750			
0.7744	49563.25	3.0390	3.0389	-0.1669	9.27	3.28	-0.750			
0.7749	49595.30	3.0360	3.0361	-0.1659	9.28	3.29	-0.750			
0.7754	49627.07	3.0330	3.0330	-0.1651	9.29	3.30	-0.750			
0.7759	49658.88	3.0300	3.0300	-0.1648	9.30	3.31	-0.750			
0.7764	49690.43	3.0270	3.0270	-0.1637	9.30	3.31	-0.750			
0.7769	49721.65	3.0240	3.0239	-0.1621	9.31	3.32	-0.750			
0.7774	49752.70	3.0210	3.0210	-0.1613	9.32	3.33	-0.750			
0.7779	49783.67	3.0180	3.0180	-0.1603	9.33	3.34	-0.750			
0.7783	49814.29	3.0150	3.0150	-0.1599	9.34	3.35	-0.750			
0.7788	49844.85	3.0120	3.0121	-0.1590	9.35	3.36	-0.750			
0.7793	49875.32	3.0090	3.0089	-0.1584	9.36	3.37	-0.750			
0.7798	49905.46	3.0060	3.0060	-0.1592	9.37	3.38	-0.750			
0.7803	49936.16	3.0030	3.0030	-0.1615	9.37	3.38	-0.750			
