Ah_balance (normalized)	Ah_balance (mAh)	Voltage - fit (V)	Voltage -  interpolate (V)	dQ/dV (1/V)	Temperature (°C)	Temperature - diff (°C)	Current (C)	R_DC 0ms (mOhm)	R_DC 50ms (mOhm)	R_DC 50 ms PEC (mOhm)
0.0932	5965.80	4.1980	4.2000	0.7872	7.99	2.01	0.750			
0.0958	6131.00	4.1950	4.1965	0.8530	7.98	2.00	0.750			
0.0984	6295.34	4.1920	4.1929	0.8355	7.97	1.99	0.750			
0.1008	6449.59	4.1890	4.1893	0.7914	7.97	1.99	0.750			
0.1032	6604.85	4.1860	4.1860	0.7690	7.96	1.98	0.750			
0.1054	6747.30	4.1830	4.1831	0.7289	7.95	1.97	0.750			
0.1076	6888.50	4.1800	4.1800	0.7343	7.94	1.96	0.750			
0.1098	7027.09	4.1770	4.1771	0.7386	7.94	1.96	0.750			
0.1120	7169.99	4.1740	4.1737	0.7394	7.93	1.95	0.750			
0.1143	7312.20	4.1710	4.1710	0.7422	7.93	1.95	0.750			
0.1165	7456.66	4.1680	4.1681	0.7422	7.93	1.95	0.750			
0.1188	7600.62	4.1650	4.1652	0.7444	7.92	1.94	0.750			
0.1210	7741.74	4.1620	4.1619	0.7447	7.92	1.94	0.750			
0.1232	7884.39	4.1590	4.1591	0.7429	7.92	1.94	0.750			
0.1254	8027.61	4.1560	4.1561	0.7421	7.92	1.94	0.750			
0.1277	8172.48	4.1530	4.1530	0.7482	7.91	1.93	0.750			
0.1299	8314.98	4.1500	4.1501	0.7450	7.91	1.93	0.750			
0.1322	8458.29	4.1470	4.1470	0.7461	7.90	1.92	0.750			
0.1344	8599.48	4.1440	4.1439	0.7482	7.90	1.92	0.750			
0.1366	8742.14	4.1410	4.1409	0.7506	7.89	1.91	0.750			
0.1389	8888.24	4.1380	4.1380	0.7558	7.89	1.91	0.750			
0.1412	9033.99	4.1350	4.1350	0.7576	7.88	1.90	0.750			
0.1434	9180.24	4.1320	4.1321	0.7635	7.87	1.89	0.750			
0.1457	9327.80	4.1290	4.1290	0.7648	7.87	1.89	0.750			
0.1480	9475.08	4.1260	4.1259	0.7623	7.86	1.88	0.750			
0.1503	9619.90	4.1230	4.1230	0.7626	7.86	1.88	0.750			
0.1526	9766.35	4.1200	4.1201	0.7647	7.85	1.87	0.750			
0.1549	9914.06	4.1170	4.1170	0.7617	7.85	1.87	0.750			
0.1572	10058.95	4.1140	4.1140	0.7668	7.84	1.86	0.750			
0.1594	10203.27	4.1110	4.1112	0.7692	7.84	1.86	0.750			
0.1617	10351.44	4.1080	4.1078	0.7828	7.83	1.85	0.750			
0.1641	10503.43	4.1050	4.1049	0.7920	7.83	1.85	0.750			
0.1665	10656.95	4.1020	4.1021	0.7983	7.82	1.84	0.750			
0.1690	10814.66	4.0990	4.0989	0.8034	7.82	1.84	0.750			
0.1714	10970.07	4.0960	4.0962	0.8007	7.81	1.83	0.750			
0.1738	11123.53	4.0930	4.0929	0.7951	7.81	1.83	0.750			
0.1761	11273.19	4.0900	4.0901	0.7930	7.81	1.83	0.750			
0.1785	11425.67	4.0870	4.0869	0.7891	7.80	1.82	0.750			
0.1808	11574.04	4.0840	4.0841	0.8003	7.80	1.82	0.750			
0.1833	11728.62	4.0810	4.0810	0.8091	7.80	1.82	0.750			
0.1858	11888.09	4.0780	4.0779	0.8188	7.79	1.81	0.750			
0.1882	12046.62	4.0750	4.0751	0.8189	7.79	1.81	0.750			
0.1907	12205.75	4.0720	4.0721	0.8186	7.78	1.80	0.750			
0.1932	12361.69	4.0690	4.0690	0.8183	7.78	1.80	0.750			
0.1956	12518.10	4.0660	4.0660	0.8192	7.78	1.80	0.750			
0.1980	12671.83	4.0630	4.0629	0.8152	7.77	1.79	0.750			
0.2005	12830.19	4.0600	4.0602	0.8192	7.77	1.79	0.750			
0.2030	12989.67	4.0570	4.0569	0.8258	7.76	1.78	0.750			
0.2054	13146.66	4.0540	4.0541	0.8339	7.76	1.78	0.750			
0.2079	13308.57	4.0510	4.0510	0.8409	7.75	1.77	0.750			
0.2105	13470.11	4.0480	4.0478	0.8499	7.74	1.76	0.750			
0.2131	13635.44	4.0450	4.0451	0.8511	7.74	1.76	0.750			
0.2156	13800.45	4.0420	4.0420	0.8499	7.73	1.75	0.750			
0.2182	13963.12	4.0390	4.0390	0.8573	7.73	1.75	0.750			
0.2207	14127.95	4.0360	4.0360	0.8554	7.72	1.74	0.750			
0.2233	14290.43	4.0330	4.0329	0.8576	7.71	1.73	0.750			
0.2259	14456.14	4.0300	4.0301	0.8621	7.71	1.73	0.750			
0.2285	14622.71	4.0270	4.0270	0.8601	7.70	1.72	0.750			
0.2311	14789.56	4.0240	4.0240	0.8628	7.70	1.72	0.750			
0.2336	14953.47	4.0210	4.0212	0.8610	7.70	1.72	0.750			
0.2362	15118.89	4.0180	4.0179	0.8643	7.69	1.71	0.750			
0.2389	15286.93	4.0150	4.0149	0.8656	7.69	1.71	0.750			
0.2414	15451.66	4.0120	4.0120	0.8661	7.68	1.70	0.750			
0.2440	15618.21	4.0090	4.0091	0.8739	7.67	1.69	0.750			
0.2467	15787.50	4.0060	4.0060	0.8871	7.67	1.69	0.750			
0.2493	15956.71	4.0030	4.0027	0.8957	7.66	1.68	0.750			
0.2520	16130.89	4.0000	4.0000	0.8915	7.65	1.67	0.750			
0.2548	16304.14	3.9970	3.9971	0.9006	7.65	1.67	0.750			
0.2575	16480.15	3.9940	3.9940	0.9075	7.64	1.66	0.750			
0.2602	16653.46	3.9910	3.9910	0.9038	7.63	1.65	0.750			
0.2629	16825.16	3.9880	3.9880	0.9001	7.63	1.65	0.750			
0.2656	16996.35	3.9850	3.9850	0.9029	7.62	1.64	0.750			
0.2683	17169.17	3.9820	3.9821	0.9090	7.61	1.63	0.750			
0.2710	17346.16	3.9790	3.9789	0.9169	7.61	1.63	0.750			
0.2738	17521.10	3.9760	3.9759	0.9171	7.60	1.62	0.750			
0.2766	17700.70	3.9730	3.9731	0.9221	7.59	1.61	0.750			
0.2793	17876.77	3.9700	3.9700	0.9372	7.59	1.61	0.750			
0.2821	18056.03	3.9670	3.9670	0.9498	7.58	1.60	0.750			
0.2850	18240.95	3.9640	3.9640	0.9537	7.57	1.59	0.750			
0.2879	18426.25	3.9610	3.9610	0.9543	7.57	1.59	0.750			
0.2908	18610.43	3.9580	3.9582	0.9558	7.56	1.58	0.750			
0.2937	18795.62	3.9550	3.9550	0.9537	7.56	1.58	0.750			
0.2965	18977.00	3.9520	3.9520	0.9496	7.55	1.57	0.750			
0.2993	19154.81	3.9490	3.9489	0.9480	7.55	1.57	0.750			
0.3021	19337.45	3.9460	3.9460	0.9477	7.54	1.56	0.750			
0.3050	19520.22	3.9430	3.9430	0.9624	7.54	1.56	0.750			
0.3079	19705.07	3.9400	3.9400	0.9777	7.53	1.55	0.750			
0.3108	19890.21	3.9370	3.9372	0.9877	7.52	1.54	0.750			
0.3138	20084.74	3.9340	3.9339	1.0050	7.52	1.54	0.750			
0.3169	20279.06	3.9310	3.9311	1.0170	7.51	1.53	0.750			
0.3200	20477.66	3.9280	3.9279	1.0257	7.50	1.52	0.750			
0.3231	20678.59	3.9250	3.9252	1.0406	7.49	1.51	0.750			
0.3262	20878.64	3.9220	3.9220	1.0286	7.49	1.51	0.750			
0.3293	21072.31	3.9190	3.9191	1.0376	7.48	1.50	0.750			
0.3324	21272.70	3.9160	3.9160	1.0444	7.48	1.50	0.750			
0.3355	21472.32	3.9130	3.9130	1.0502	7.47	1.49	0.750			
0.3387	21674.95	3.9100	3.9100	1.0461	7.46	1.48	0.750			
0.3418	21874.49	3.9070	3.9072	1.0692	7.45	1.47	0.750			
0.3449	22076.04	3.9040	3.9039	1.0978	7.44	1.46	0.750			
0.3483	22291.23	3.9010	3.9010	1.1234	7.43	1.45	0.750			
0.3517	22509.21	3.8980	3.8980	1.1176	7.43	1.45	0.750			
0.3552	22730.36	3.8950	3.8950	1.1374	7.42	1.44	0.750			
0.3586	22950.74	3.8920	3.8924	1.1401	7.42	1.44	0.750			
0.3620	23169.65	3.8890	3.8886	1.1441	7.41	1.43	0.750			
0.3653	23381.26	3.8860	3.8861	1.1475	7.40	1.42	0.750			
0.3688	23602.55	3.8830	3.8829	1.1666	7.39	1.41	0.750			
0.3723	23829.43	3.8800	3.8800	1.1961	7.38	1.40	0.750			
0.3760	24062.34	3.8770	3.8771	1.2069	7.37	1.39	0.750			
0.3796	24295.19	3.8740	3.8742	1.2415	7.36	1.38	0.750			
0.3834	24537.81	3.8710	3.8709	1.2629	7.35	1.37	0.750			
0.3872	24780.78	3.8680	3.8677	1.2712	7.34	1.36	0.750			
0.3910	25026.14	3.8650	3.8652	1.2872	7.33	1.35	0.750			
0.3950	25279.51	3.8620	3.8621	1.2936	7.32	1.34	0.750			
0.3989	25529.55	3.8590	3.8589	1.3115	7.31	1.33	0.750			
0.4027	25774.49	3.8560	3.8561	1.3284	7.30	1.32	0.750			
0.4067	26028.34	3.8530	3.8532	1.3606	7.29	1.31	0.750			
0.4109	26298.63	3.8500	3.8497	1.3825	7.28	1.30	0.750	0.418	0.968	
0.4151	26566.80	3.8470	3.8471	1.4092	7.27	1.29	0.750			
0.4194	26838.56	3.8440	3.8442	1.4455	7.25	1.27	0.750			
0.4237	27118.64	3.8410	3.8409	1.4858	7.23	1.25	0.750			
0.4281	27401.32	3.8380	3.8378	1.5143	7.22	1.24	0.750			
0.4328	27700.99	3.8350	3.8350	1.5458	7.20	1.22	0.750			
0.4376	28006.26	3.8320	3.8320	1.5828	7.19	1.21	0.750			
0.4424	28314.89	3.8290	3.8291	1.6208	7.17	1.19	0.750			
0.4473	28627.82	3.8260	3.8263	1.6598	7.16	1.18	0.750			
0.4523	28950.04	3.8230	3.8229	1.6809	7.14	1.16	0.750			
0.4574	29272.99	3.8200	3.8200	1.7069	7.12	1.14	0.750			
0.4626	29606.14	3.8170	3.8171	1.7389	7.11	1.13	0.750			
0.4679	29947.47	3.8140	3.8138	1.7918	7.09	1.11	0.750			
0.4733	30288.79	3.8110	3.8108	1.8120	7.06	1.08	0.750			
0.4787	30634.95	3.8080	3.8082	1.8494	7.05	1.07	0.750			
0.4843	30995.26	3.8050	3.8051	1.9075	7.03	1.05	0.750			
0.4902	31371.98	3.8020	3.8017	1.9423	7.01	1.03	0.750			
0.4961	31749.62	3.7990	3.7990	1.9745	6.98	1.00	0.750			
0.5021	32132.27	3.7960	3.7958	2.0325	6.96	0.98	0.750			
0.5083	32529.63	3.7930	3.7929	2.0898	6.94	0.96	0.750			
0.5146	32935.10	3.7900	3.7898	2.1248	6.92	0.94	0.750			
0.5212	33354.39	3.7870	3.7871	2.1722	6.89	0.91	0.750			
0.5277	33773.18	3.7840	3.7840	2.2455	6.87	0.89	0.750			
0.5345	34208.80	3.7810	3.7807	2.2645	6.84	0.86	0.750			
0.5412	34639.52	3.7780	3.7779	2.2934	6.81	0.83	0.750			
0.5482	35083.15	3.7750	3.7752	2.3523	6.79	0.81	0.750			
0.5554	35544.51	3.7720	3.7719	2.4192	6.76	0.78	0.750			
0.5627	36010.49	3.7690	3.7690	2.4321	6.73	0.75	0.750			
0.5702	36492.21	3.7660	3.7659	2.5108	6.69	0.71	0.750			
0.5777	36973.96	3.7630	3.7627	2.5008	6.66	0.68	0.750			
0.5851	37448.54	3.7600	3.7601	2.5444	6.64	0.66	0.750			
0.5928	37939.69	3.7570	3.7571	2.5737	6.61	0.63	0.750			
0.6006	38439.48	3.7540	3.7540	2.6225	6.58	0.60	0.750			
0.6086	38948.05	3.7510	3.7509	2.6738	6.54	0.56	0.750			
0.6167	39466.92	3.7480	3.7480	2.7792	6.51	0.53	0.750			
0.6252	40013.70	3.7450	3.7450	2.9516	6.48	0.50	0.750			
0.6343	40593.57	3.7420	3.7420	3.0672	6.44	0.46	0.750			
0.6437	41199.64	3.7390	3.7390	3.2651	6.40	0.42	0.750			
0.6538	41845.89	3.7360	3.7360	3.3402	6.37	0.39	0.750			
0.6641	42503.40	3.7330	3.7331	3.3548	6.33	0.35	0.750			
0.6738	43125.85	3.7300	3.7301	3.1704	6.29	0.31	0.750			
0.6834	43736.43	3.7270	3.7270	3.1259	6.27	0.29	0.750			
0.6927	44332.38	3.7240	3.7239	3.0040	6.24	0.26	0.750			
0.7017	44907.34	3.7210	3.7209	2.8539	6.21	0.23	0.750			
0.7100	45439.48	3.7180	3.7179	2.6002	6.19	0.21	0.750			
0.7174	45912.80	3.7150	3.7150	2.3189	6.17	0.19	0.750			
0.7236	46310.61	3.7120	3.7120	2.0177	6.15	0.17	0.750			
0.7293	46675.34	3.7090	3.7089	1.7815	6.13	0.15	0.750			
0.7341	46979.43	3.7060	3.7061	1.5600	6.12	0.14	0.750			
0.7382	47247.63	3.7030	3.7028	1.4120	6.11	0.13	0.750			
0.7421	47493.96	3.7000	3.7001	1.3119	6.10	0.12	0.750			
0.7458	47731.96	3.6970	3.6970	1.2357	6.09	0.11	0.750			
0.7495	47966.97	3.6940	3.6938	1.1842	6.08	0.10	0.750			
0.7529	48184.96	3.6910	3.6911	1.1341	6.07	0.09	0.750			
0.7563	48400.33	3.6880	3.6881	1.1059	6.06	0.08	0.750			
0.7595	48607.84	3.6850	3.6850	1.0733	6.06	0.08	0.750			
0.7626	48808.42	3.6820	3.6820	1.0440	6.05	0.07	0.750			
0.7657	49007.03	3.6790	3.6790	1.0192	6.04	0.06	0.750			
0.7688	49202.89	3.6760	3.6760	1.0037	6.04	0.06	0.750			
0.7718	49394.23	3.6730	3.6731	0.9808	6.03	0.05	0.750			
0.7747	49578.27	3.6700	3.6700	0.9531	6.03	0.05	0.750			
0.7775	49760.86	3.6670	3.6670	0.9289	6.02	0.04	0.750			
0.7802	49933.79	3.6640	3.6640	0.9112	6.02	0.04	0.750			
0.7829	50107.77	3.6610	3.6609	0.8903	6.01	0.03	0.750			
0.7856	50277.64	3.6580	3.6581	0.8835	6.00	0.02	0.750			
0.7882	50444.97	3.6550	3.6552	0.8667	6.00	0.02	0.750			
0.7908	50611.78	3.6520	3.6519	0.8530	6.00	0.02	0.750			
0.7933	50773.88	3.6490	3.6489	0.8425	5.99	0.01	0.750			
0.7959	50934.91	3.6460	3.6461	0.8275	5.99	0.01	0.750			
0.7983	51092.02	3.6430	3.6429	0.8074	5.99	0.01	0.750			
0.8007	51246.30	3.6400	3.6400	0.7934	5.99	0.01	0.750			
0.8031	51395.20	3.6370	3.6370	0.7669	5.99	0.01	0.750			
0.8054	51543.41	3.6340	3.6340	0.7420	5.99	0.01	0.750			
0.8076	51688.67	3.6310	3.6309	0.7057	5.98	0.00	0.750			
0.8097	51822.26	3.6280	3.6281	0.6564	5.98	0.00	0.750			
0.8117	51947.43	3.6250	3.6248	0.5944	5.98	0.00	0.750			
0.8134	52057.60	3.6220	3.6222	0.5277	5.98	-0.00	0.750			
0.8148	52150.24	3.6190	3.6190	0.4519	5.98	-0.00	0.750			
0.8160	52224.25	3.6160	3.6162	0.3825	5.98	-0.00	0.750			
0.8170	52289.75	3.6130	3.6130	0.3073	5.98	-0.00	0.750			
0.8179	52342.58	3.6100	3.6100	0.2491	5.98	-0.00	0.750			
0.8185	52383.31	3.6070	3.6070	0.1905	5.97	-0.01	0.750			
0.8190	52414.68	3.6040	3.6037	0.1384	5.97	-0.01	0.750			
0.8193	52436.00	3.6010	3.5991	0.0869	5.97	-0.01	0.750			
0.8194	52441.71	3.5920	3.5916	-0.0604	5.97	-0.01	0.750			
0.8195	52446.20	3.5980	3.5715	0.0370	5.97	-0.01	0.751			
0.8195	52448.64	3.5950	3.5615	-0.0117	5.97	-0.01	0.752			
