Ah_balance (normalized)	Ah_balance (mAh)	Voltage - fit (V)	Voltage -  interpolate (V)	dQ/dV (1/V)	Temperature (°C)	Temperature - diff (°C)	Current (C)	R_DC 0ms (mOhm)	R_DC 50ms (mOhm)	R_DC 50 ms PEC (mOhm)
0.0002	11.04	4.1050	4.1034	-0.0209	5.99	0.00	-0.750			
0.0003	19.05	4.1020	4.1011	-0.0568	5.99	0.00	-0.750			
0.0005	33.01	4.0990	4.0987	-0.0886	5.99	0.00	-0.750			
0.0008	54.01	4.0960	4.0958	-0.1183	5.99	0.00	-0.750			
0.0013	80.31	4.0930	4.0928	-0.1447	5.99	0.00	-0.750			
0.0017	111.39	4.0900	4.0901	-0.1683	5.99	0.00	-0.750			
0.0023	146.21	4.0870	4.0872	-0.1927	5.99	0.00	-0.750			
0.0029	187.59	4.0840	4.0842	-0.2180	5.99	0.00	-0.750			
0.0036	231.43	4.0810	4.0810	-0.2392	5.99	0.00	-0.750			
0.0044	279.91	4.0780	4.0780	-0.2588	5.99	0.00	-0.750			
0.0052	331.47	4.0750	4.0750	-0.2792	5.99	0.00	-0.750			
0.0060	387.11	4.0720	4.0720	-0.3009	5.99	0.00	-0.750			
0.0070	447.07	4.0690	4.0691	-0.3213	5.99	0.00	-0.750			
0.0080	510.21	4.0660	4.0659	-0.3429	5.99	0.00	-0.750			
0.0090	577.52	4.0630	4.0631	-0.3639	5.99	0.00	-0.750			
0.0101	649.40	4.0600	4.0600	-0.3860	5.99	0.00	-0.750			
0.0113	726.11	4.0570	4.0569	-0.4079	5.99	0.00	-0.750			
0.0126	806.18	4.0540	4.0542	-0.4309	5.99	0.00	-0.750			
0.0139	890.83	4.0510	4.0510	-0.4554	5.99	0.00	-0.750			
0.0153	981.05	4.0480	4.0480	-0.4811	5.99	0.00	-0.750			
0.0168	1076.79	4.0450	4.0449	-0.4996	5.99	0.00	-0.750			
0.0184	1175.30	4.0420	4.0420	-0.5197	6.00	0.01	-0.750			
0.0200	1277.61	4.0390	4.0391	-0.5350	6.00	0.01	-0.750			
0.0216	1381.64	4.0360	4.0360	-0.5505	6.00	0.01	-0.750			
0.0233	1488.50	4.0330	4.0330	-0.5632	6.01	0.02	-0.750			
0.0250	1598.10	4.0300	4.0300	-0.5754	6.01	0.02	-0.750			
0.0267	1709.87	4.0270	4.0270	-0.5885	6.02	0.03	-0.750			
0.0285	1824.99	4.0240	4.0240	-0.6016	6.02	0.03	-0.750			
0.0303	1942.15	4.0210	4.0210	-0.6114	6.03	0.04	-0.750			
0.0322	2059.89	4.0180	4.0180	-0.6241	6.03	0.04	-0.750			
0.0340	2178.89	4.0150	4.0150	-0.6408	6.03	0.04	-0.750			
0.0360	2304.39	4.0120	4.0119	-0.6570	6.04	0.05	-0.750			
0.0380	2434.55	4.0090	4.0088	-0.6646	6.04	0.05	-0.750			
0.0401	2563.61	4.0060	4.0062	-0.6689	6.05	0.06	-0.750			
0.0421	2693.34	4.0030	4.0031	-0.6789	6.05	0.06	-0.750			
0.0441	2824.46	4.0000	4.0000	-0.6863	6.06	0.07	-0.750			
0.0462	2955.42	3.9970	3.9968	-0.6939	6.06	0.07	-0.750			
0.0482	3086.60	3.9940	3.9941	-0.6970	6.07	0.08	-0.750			
0.0504	3223.73	3.9910	3.9910	-0.7092	6.07	0.08	-0.750			
0.0525	3361.44	3.9880	3.9881	-0.7185	6.08	0.09	-0.750			
0.0547	3501.04	3.9850	3.9849	-0.7225	6.09	0.10	-0.750			
0.0569	3638.93	3.9820	3.9820	-0.7249	6.09	0.10	-0.750			
0.0590	3778.89	3.9790	3.9790	-0.7258	6.10	0.11	-0.750			
0.0612	3918.31	3.9760	3.9760	-0.7287	6.11	0.12	-0.750			
0.0634	4059.73	3.9730	3.9730	-0.7322	6.11	0.12	-0.750			
0.0656	4200.76	3.9700	3.9700	-0.7269	6.12	0.13	-0.750			
0.0678	4339.58	3.9670	3.9669	-0.7268	6.13	0.14	-0.750			
0.0700	4478.74	3.9640	3.9642	-0.7310	6.14	0.15	-0.750			
0.0722	4619.51	3.9610	3.9610	-0.7287	6.15	0.16	-0.750			
0.0744	4759.62	3.9580	3.9578	-0.7315	6.16	0.17	-0.750			
0.0765	4898.70	3.9550	3.9550	-0.7367	6.16	0.17	-0.750			
0.0788	5040.87	3.9520	3.9521	-0.7398	6.17	0.18	-0.750			
0.0810	5184.43	3.9490	3.9488	-0.7412	6.18	0.19	-0.750			
0.0832	5324.83	3.9460	3.9460	-0.7466	6.19	0.20	-0.750			
0.0855	5468.96	3.9430	3.9432	-0.7519	6.20	0.21	-0.750			
0.0877	5615.96	3.9400	3.9398	-0.7562	6.21	0.22	-0.750			
0.0900	5760.78	3.9370	3.9371	-0.7586	6.22	0.23	-0.750			
0.0923	5907.33	3.9340	3.9340	-0.7593	6.23	0.24	-0.750			
0.0946	6055.75	3.9310	3.9309	-0.7611	6.24	0.25	-0.750			
0.0969	6202.07	3.9280	3.9280	-0.7669	6.25	0.26	-0.750			
0.0992	6348.59	3.9250	3.9251	-0.7578	6.26	0.27	-0.750			
0.1015	6496.18	3.9220	3.9218	-0.7623	6.26	0.27	-0.750			
0.1038	6641.96	3.9190	3.9193	-0.7616	6.27	0.28	-0.750			
0.1060	6786.90	3.9160	3.9159	-0.7566	6.28	0.29	-0.750			
0.1083	6931.16	3.9130	3.9129	-0.7608	6.29	0.30	-0.750			
0.1105	7072.86	3.9100	3.9101	-0.7623	6.30	0.31	-0.750			
0.1129	7222.57	3.9070	3.9071	-0.7812	6.31	0.32	-0.750			
0.1152	7375.86	3.9040	3.9039	-0.7933	6.32	0.33	-0.750			
0.1176	7528.77	3.9010	3.9010	-0.7963	6.33	0.34	-0.750			
0.1201	7684.66	3.8980	3.8980	-0.8021	6.34	0.35	-0.750			
0.1225	7841.88	3.8950	3.8950	-0.7988	6.35	0.36	-0.750			
0.1249	7995.27	3.8920	3.8920	-0.7875	6.36	0.37	-0.750			
0.1272	8143.76	3.8890	3.8891	-0.7824	6.37	0.38	-0.750			
0.1296	8292.22	3.8860	3.8860	-0.7867	6.38	0.39	-0.750			
0.1319	8441.80	3.8830	3.8828	-0.7875	6.39	0.40	-0.750			
0.1343	8593.43	3.8800	3.8799	-0.7851	6.40	0.41	-0.750			
0.1366	8744.23	3.8770	3.8772	-0.7896	6.40	0.41	-0.750			
0.1390	8898.44	3.8740	3.8740	-0.7987	6.41	0.42	-0.750			
0.1414	9052.25	3.8710	3.8709	-0.7960	6.42	0.43	-0.750			
0.1438	9201.88	3.8680	3.8680	-0.7904	6.43	0.44	-0.750			
0.1462	9353.86	3.8650	3.8650	-0.7931	6.44	0.45	-0.750			
0.1486	9508.28	3.8620	3.8622	-0.7987	6.45	0.46	-0.750			
0.1510	9663.22	3.8590	3.8590	-0.7976	6.46	0.47	-0.750			
0.1533	9813.80	3.8560	3.8560	-0.7984	6.47	0.48	-0.750			
0.1557	9967.65	3.8530	3.8530	-0.8011	6.48	0.49	-0.750			
0.1581	10120.68	3.8500	3.8500	-0.8080	6.50	0.51	-0.750			
0.1606	10275.85	3.8470	3.8470	-0.8134	6.51	0.52	-0.750			
0.1630	10434.13	3.8440	3.8440	-0.8173	6.52	0.53	-0.750			
0.1655	10591.63	3.8410	3.8409	-0.8210	6.53	0.54	-0.750			
0.1680	10751.20	3.8380	3.8381	-0.8244	6.54	0.55	-0.750			
0.1705	10909.56	3.8350	3.8350	-0.8193	6.55	0.56	-0.750			
0.1729	11068.07	3.8320	3.8319	-0.8166	6.55	0.56	-0.750			
0.1753	11220.93	3.8290	3.8291	-0.8196	6.56	0.57	-0.750			
0.1778	11378.83	3.8260	3.8261	-0.8250	6.57	0.58	-0.750			
0.1803	11538.67	3.8230	3.8228	-0.8252	6.58	0.59	-0.750			
0.1828	11696.54	3.8200	3.8202	-0.8316	6.59	0.60	-0.750			
0.1853	11858.37	3.8170	3.8171	-0.8329	6.60	0.61	-0.750			
0.1878	12021.77	3.8140	3.8138	-0.8383	6.61	0.62	-0.750			
0.1903	12180.71	3.8110	3.8112	-0.8306	6.62	0.63	-0.750			
0.1928	12338.05	3.8080	3.8081	-0.8266	6.63	0.64	-0.750			
0.1953	12497.05	3.8050	3.8050	-0.8354	6.64	0.65	-0.750			
0.1978	12658.88	3.8020	3.8019	-0.8327	6.65	0.66	-0.750			
0.2003	12818.79	3.7990	3.7989	-0.8298	6.66	0.67	-0.750			
0.2028	12977.19	3.7960	3.7963	-0.8328	6.67	0.68	-0.750			
0.2053	13137.14	3.7930	3.7930	-0.8362	6.68	0.69	-0.750			
0.2078	13299.09	3.7900	3.7899	-0.8333	6.69	0.70	-0.750			
0.2103	13457.88	3.7870	3.7869	-0.8252	6.70	0.71	-0.750			
0.2128	13616.70	3.7840	3.7841	-0.8275	6.71	0.72	-0.750			
0.2152	13775.24	3.7810	3.7813	-0.8333	6.72	0.73	-0.750			
0.2177	13934.17	3.7780	3.7778	-0.8345	6.73	0.74	-0.750			
0.2202	14091.86	3.7750	3.7750	-0.8426	6.74	0.75	-0.750			
0.2227	14255.94	3.7720	3.7720	-0.8448	6.74	0.75	-0.750			
0.2254	14423.32	3.7690	3.7689	-0.8616	6.75	0.76	-0.750			
0.2279	14587.40	3.7660	3.7663	-0.8608	6.76	0.77	-0.750			
0.2305	14752.62	3.7630	3.7630	-0.8570	6.77	0.78	-0.750			
0.2331	14916.31	3.7600	3.7599	-0.8581	6.78	0.79	-0.750			
0.2357	15082.33	3.7570	3.7569	-0.8542	6.79	0.80	-0.750			
0.2382	15245.63	3.7540	3.7541	-0.8556	6.80	0.81	-0.750			
0.2408	15410.54	3.7510	3.7512	-0.8549	6.81	0.82	-0.750			
0.2433	15573.33	3.7480	3.7479	-0.8531	6.82	0.83	-0.750			
0.2459	15736.75	3.7450	3.7450	-0.8566	6.83	0.84	-0.750			
0.2484	15899.98	3.7420	3.7420	-0.8604	6.84	0.85	-0.750			
0.2510	16066.44	3.7390	3.7389	-0.8718	6.84	0.85	-0.750			
0.2537	16235.14	3.7360	3.7360	-0.8738	6.85	0.86	-0.750			
0.2563	16403.13	3.7330	3.7330	-0.8745	6.86	0.87	-0.750			
0.2589	16571.59	3.7300	3.7301	-0.8795	6.86	0.87	-0.750			
0.2616	16739.72	3.7270	3.7270	-0.8808	6.87	0.88	-0.750			
0.2642	16909.32	3.7240	3.7240	-0.8904	6.88	0.89	-0.750			
0.2669	17080.73	3.7210	3.7210	-0.8911	6.88	0.89	-0.750			
0.2696	17252.56	3.7180	3.7180	-0.8933	6.89	0.90	-0.750			
0.2723	17426.14	3.7150	3.7149	-0.8951	6.90	0.91	-0.750			
0.2750	17598.69	3.7120	3.7121	-0.8969	6.91	0.92	-0.750			
0.2777	17769.81	3.7090	3.7091	-0.8975	6.92	0.93	-0.750			
0.2803	17940.13	3.7060	3.7059	-0.9072	6.93	0.94	-0.750			
0.2831	18115.85	3.7030	3.7030	-0.9107	6.94	0.95	-0.750			
0.2858	18291.88	3.7000	3.6999	-0.9188	6.95	0.96	-0.750			
0.2886	18468.75	3.6970	3.6971	-0.9233	6.96	0.97	-0.750			
0.2914	18648.64	3.6940	3.6940	-0.9322	6.97	0.98	-0.750			
0.2942	18828.43	3.6910	3.6909	-0.9353	6.98	0.99	-0.750			
0.2970	19008.14	3.6880	3.6880	-0.9334	6.99	1.00	-0.750			
0.2998	19187.55	3.6850	3.6849	-0.9344	6.99	1.00	-0.750			
0.3026	19367.92	3.6820	3.6822	-0.9388	7.00	1.01	-0.750			
0.3054	19546.13	3.6790	3.6789	-0.9449	7.01	1.02	-0.750			
0.3082	19727.30	3.6760	3.6760	-0.9479	7.01	1.02	-0.750			
0.3111	19908.00	3.6730	3.6730	-0.9556	7.02	1.03	-0.750			
0.3139	20091.99	3.6700	3.6700	-0.9766	7.03	1.04	-0.750			
0.3169	20281.94	3.6670	3.6668	-0.9987	7.03	1.04	-0.750			
0.3200	20477.35	3.6640	3.6639	-1.0043	7.04	1.05	-0.750			
0.3230	20674.40	3.6610	3.6610	-1.0079	7.05	1.06	-0.750			
0.3261	20869.16	3.6580	3.6581	-1.0079	7.06	1.07	-0.750			
0.3291	21063.68	3.6550	3.6551	-1.0190	7.06	1.07	-0.750			
0.3321	21255.03	3.6520	3.6520	-1.0225	7.07	1.08	-0.750			
0.3352	21451.07	3.6490	3.6489	-1.0247	7.07	1.08	-0.750			
0.3382	21647.11	3.6460	3.6459	-1.0337	7.08	1.09	-0.750			
0.3414	21848.96	3.6430	3.6432	-1.0520	7.08	1.09	-0.750			
0.3446	22055.23	3.6400	3.6400	-1.0629	7.09	1.10	-0.750			
0.3478	22258.66	3.6370	3.6369	-1.0655	7.10	1.11	-0.750			
0.3509	22459.50	3.6340	3.6341	-1.0709	7.11	1.12	-0.750			
0.3542	22669.12	3.6310	3.6310	-1.0852	7.11	1.12	-0.750			
0.3575	22880.60	3.6280	3.6279	-1.0996	7.12	1.13	-0.750			
0.3608	23091.72	3.6250	3.6249	-1.1052	7.13	1.14	-0.750			
0.3641	23305.29	3.6220	3.6222	-1.1138	7.14	1.15	-0.750			
0.3675	23519.68	3.6190	3.6188	-1.1304	7.14	1.15	-0.750			
0.3709	23736.43	3.6160	3.6160	-1.1398	7.15	1.16	-0.750			
0.3743	23957.12	3.6130	3.6129	-1.1369	7.15	1.16	-0.750			
0.3777	24174.76	3.6100	3.6101	-1.1511	7.16	1.17	-0.750			
0.3812	24396.25	3.6070	3.6072	-1.1740	7.17	1.18	-0.750			
0.3848	24625.34	3.6040	3.6037	-1.1825	7.17	1.18	-0.750			
0.3884	24856.67	3.6010	3.6009	-1.1839	7.18	1.19	-0.750			
0.3919	25083.92	3.5980	3.5981	-1.1890	7.18	1.19	-0.750	0.391	0.921	
0.3955	25314.22	3.5950	3.5950	-1.2020	7.19	1.20	-0.750			
0.3992	25546.83	3.5920	3.5918	-1.2071	7.19	1.20	-0.750			
0.4027	25769.90	3.5890	3.5892	-1.2105	7.20	1.21	-0.750			
0.4063	26004.45	3.5860	3.5859	-1.2355	7.20	1.21	-0.750			
0.4101	26247.56	3.5830	3.5831	-1.2531	7.21	1.22	-0.750			
0.4139	26489.20	3.5800	3.5799	-1.2742	7.21	1.22	-0.750			
0.4178	26738.35	3.5770	3.5770	-1.2906	7.21	1.22	-0.750			
0.4217	26986.56	3.5740	3.5740	-1.2952	7.22	1.23	-0.750			
0.4256	27236.94	3.5710	3.5709	-1.2969	7.23	1.24	-0.750			
0.4294	27483.84	3.5680	3.5681	-1.2968	7.23	1.24	-0.750			
0.4333	27732.79	3.5650	3.5650	-1.3056	7.23	1.24	-0.750			
0.4373	27984.09	3.5620	3.5620	-1.3175	7.24	1.25	-0.750			
0.4412	28233.90	3.5590	3.5590	-1.3262	7.24	1.25	-0.750			
0.4452	28492.69	3.5560	3.5560	-1.3466	7.25	1.26	-0.750			
0.4493	28754.14	3.5530	3.5530	-1.3606	7.25	1.26	-0.750			
0.4534	29019.12	3.5500	3.5501	-1.3797	7.26	1.27	-0.750			
0.4576	29287.32	3.5470	3.5469	-1.3809	7.26	1.27	-0.750			
0.4618	29554.47	3.5440	3.5440	-1.3764	7.27	1.28	-0.750			
0.4659	29817.18	3.5410	3.5413	-1.3949	7.27	1.28	-0.750			
0.4701	30088.04	3.5380	3.5379	-1.3960	7.28	1.29	-0.750			
0.4743	30354.36	3.5350	3.5348	-1.4031	7.28	1.29	-0.750			
0.4785	30622.28	3.5320	3.5323	-1.4168	7.29	1.30	-0.750			
0.4828	30899.58	3.5290	3.5289	-1.4243	7.30	1.31	-0.750			
0.4871	31173.94	3.5260	3.5259	-1.4225	7.30	1.31	-0.750			
0.4914	31449.30	3.5230	3.5231	-1.4303	7.31	1.32	-0.750			
0.4957	31722.86	3.5200	3.5198	-1.4414	7.32	1.33	-0.750			
0.5000	31999.57	3.5170	3.5169	-1.4572	7.33	1.34	-0.750			
0.5044	32279.13	3.5140	3.5142	-1.4487	7.33	1.34	-0.750			
0.5088	32561.24	3.5110	3.5108	-1.4607	7.34	1.35	-0.750			
0.5132	32844.72	3.5080	3.5080	-1.4556	7.35	1.36	-0.750			
0.5175	33120.83	3.5050	3.5049	-1.4385	7.35	1.36	-0.750			
0.5219	33399.29	3.5020	3.5020	-1.4406	7.36	1.37	-0.750			
0.5262	33673.72	3.4990	3.4989	-1.4279	7.37	1.38	-0.750			
0.5304	33948.18	3.4960	3.4958	-1.4218	7.37	1.38	-0.750			
0.5347	34222.48	3.4930	3.4930	-1.4259	7.38	1.39	-0.750			
0.5390	34493.03	3.4900	3.4901	-1.4198	7.39	1.40	-0.750			
0.5432	34765.22	3.4870	3.4869	-1.4176	7.39	1.40	-0.750			
0.5475	35040.29	3.4840	3.4839	-1.4204	7.40	1.41	-0.750			
0.5517	35311.21	3.4810	3.4810	-1.4162	7.41	1.42	-0.750			
0.5560	35586.83	3.4780	3.4779	-1.4054	7.42	1.43	-0.750			
0.5603	35858.52	3.4750	3.4749	-1.3961	7.42	1.43	-0.750			
0.5644	36121.76	3.4720	3.4721	-1.3856	7.43	1.44	-0.750			
0.5685	36386.24	3.4690	3.4689	-1.3728	7.44	1.45	-0.750			
0.5726	36646.37	3.4660	3.4660	-1.3705	7.45	1.46	-0.750			
0.5767	36909.04	3.4630	3.4630	-1.3737	7.47	1.48	-0.750			
0.5808	37172.82	3.4600	3.4600	-1.3662	7.48	1.49	-0.750			
0.5851	37444.68	3.4570	3.4568	-1.3643	7.49	1.50	-0.750			
0.5891	37704.14	3.4540	3.4541	-1.3388	7.50	1.51	-0.750			
0.5931	37958.19	3.4510	3.4510	-1.3166	7.50	1.51	-0.750			
0.5970	38210.19	3.4480	3.4480	-1.3030	7.51	1.52	-0.750			
0.6009	38454.61	3.4450	3.4449	-1.2848	7.52	1.53	-0.750			
0.6046	38695.53	3.4420	3.4420	-1.2740	7.53	1.54	-0.750			
0.6085	38946.69	3.4390	3.4390	-1.2584	7.54	1.55	-0.750			
0.6123	39186.24	3.4360	3.4361	-1.2369	7.55	1.56	-0.750			
0.6160	39422.18	3.4330	3.4332	-1.2227	7.56	1.57	-0.750			
0.6196	39654.86	3.4300	3.4299	-1.1996	7.57	1.58	-0.750			
0.6231	39879.20	3.4270	3.4269	-1.1804	7.58	1.59	-0.750			
0.6266	40104.87	3.4240	3.4240	-1.1699	7.60	1.61	-0.750			
0.6302	40330.20	3.4210	3.4211	-1.1576	7.61	1.62	-0.750			
0.6337	40556.98	3.4180	3.4179	-1.1362	7.62	1.63	-0.750			
0.6371	40774.18	3.4150	3.4151	-1.1034	7.63	1.64	-0.750			
0.6403	40981.73	3.4120	3.4123	-1.0710	7.64	1.65	-0.750			
0.6435	41183.07	3.4090	3.4089	-1.0488	7.65	1.66	-0.750			
0.6465	41378.69	3.4060	3.4059	-1.0164	7.66	1.67	-0.750			
0.6495	41570.49	3.4030	3.4029	-0.9952	7.68	1.69	-0.750			
0.6525	41762.39	3.4000	3.4000	-0.9804	7.69	1.70	-0.750			
0.6554	41948.72	3.3970	3.3970	-0.9558	7.70	1.71	-0.750			
0.6583	42130.78	3.3940	3.3940	-0.9304	7.71	1.72	-0.750			
0.6610	42303.98	3.3910	3.3910	-0.9069	7.72	1.73	-0.750			
0.6636	42472.74	3.3880	3.3881	-0.8883	7.72	1.73	-0.750			
0.6663	42643.06	3.3850	3.3849	-0.8782	7.73	1.74	-0.750			
0.6689	42809.50	3.3820	3.3819	-0.8634	7.75	1.76	-0.750			
0.6715	42977.63	3.3790	3.3790	-0.8415	7.76	1.77	-0.750			
0.6741	43139.65	3.3760	3.3760	-0.8218	7.77	1.78	-0.750			
0.6765	43294.95	3.3730	3.3731	-0.7942	7.78	1.79	-0.750			
0.6788	43443.62	3.3700	3.3699	-0.7624	7.79	1.80	-0.750			
0.6810	43584.42	3.3670	3.3669	-0.7352	7.80	1.81	-0.750			
0.6832	43722.71	3.3640	3.3640	-0.7117	7.81	1.82	-0.750			
0.6852	43855.20	3.3610	3.3610	-0.6937	7.82	1.83	-0.750			
0.6873	43987.57	3.3580	3.3580	-0.6821	7.83	1.84	-0.750			
0.6893	44115.94	3.3550	3.3550	-0.6645	7.84	1.85	-0.750			
0.6913	44242.13	3.3520	3.3520	-0.6533	7.85	1.86	-0.750			
0.6932	44367.63	3.3490	3.3490	-0.6388	7.86	1.87	-0.750			
0.6951	44489.18	3.3460	3.3460	-0.6229	7.87	1.88	-0.750			
0.6970	44608.14	3.3430	3.3429	-0.6085	7.88	1.89	-0.750			
0.6988	44722.69	3.3400	3.3401	-0.5890	7.89	1.90	-0.750			
0.7005	44833.23	3.3370	3.3369	-0.5724	7.90	1.91	-0.750			
0.7022	44942.11	3.3340	3.3339	-0.5559	7.92	1.93	-0.750			
0.7038	45045.87	3.3310	3.3310	-0.5405	7.93	1.94	-0.750			
0.7054	45148.54	3.3280	3.3280	-0.5282	7.94	1.95	-0.750			
0.7070	45248.35	3.3250	3.3250	-0.5164	7.95	1.96	-0.750			
0.7085	45346.11	3.3220	3.3220	-0.5049	7.96	1.97	-0.750			
0.7100	45442.30	3.3190	3.3189	-0.4950	7.97	1.98	-0.750			
0.7115	45535.85	3.3160	3.3161	-0.4845	7.98	1.99	-0.750			
0.7129	45628.70	3.3130	3.3129	-0.4732	7.98	1.99	-0.750			
0.7144	45718.43	3.3100	3.3100	-0.4613	7.99	2.00	-0.750			
0.7157	45806.39	3.3070	3.3070	-0.4498	8.00	2.01	-0.750			
0.7170	45890.30	3.3040	3.3040	-0.4388	8.01	2.02	-0.750			
0.7183	45973.24	3.3010	3.3010	-0.4334	8.02	2.03	-0.750			
0.7196	46054.92	3.2980	3.2979	-0.4250	8.03	2.04	-0.750			
0.7209	46136.31	3.2950	3.2950	-0.4188	8.04	2.05	-0.750			
0.7221	46216.75	3.2920	3.2921	-0.4133	8.05	2.06	-0.750			
0.7234	46296.23	3.2890	3.2890	-0.4048	8.06	2.07	-0.750			
0.7246	46373.78	3.2860	3.2860	-0.3948	8.07	2.08	-0.750			
0.7257	46447.82	3.2830	3.2830	-0.3828	8.07	2.08	-0.750			
0.7269	46519.44	3.2800	3.2800	-0.3744	8.08	2.09	-0.750			
0.7280	46590.18	3.2770	3.2770	-0.3679	8.09	2.10	-0.750			
0.7291	46659.62	3.2740	3.2740	-0.3619	8.10	2.11	-0.750			
0.7301	46728.55	3.2710	3.2709	-0.3563	8.11	2.12	-0.750			
0.7312	46796.90	3.2680	3.2681	-0.3525	8.12	2.13	-0.750			
0.7323	46864.98	3.2650	3.2649	-0.3470	8.13	2.14	-0.750			
0.7333	46931.19	3.2620	3.2620	-0.3389	8.14	2.15	-0.750			
0.7343	46994.49	3.2590	3.2590	-0.3317	8.15	2.16	-0.750			
0.7353	47057.86	3.2560	3.2560	-0.3259	8.16	2.17	-0.750			
0.7362	47120.00	3.2530	3.2530	-0.3185	8.17	2.18	-0.750			
0.7372	47180.29	3.2500	3.2500	-0.3134	8.18	2.19	-0.750			
0.7381	47240.00	3.2470	3.2471	-0.3075	8.19	2.20	-0.750			
0.7390	47298.69	3.2440	3.2440	-0.3030	8.20	2.21	-0.750			
0.7399	47355.76	3.2410	3.2409	-0.2994	8.19	2.20	-0.750			
0.7408	47412.40	3.2380	3.2380	-0.2951	8.19	2.20	-0.750			
0.7417	47468.94	3.2350	3.2350	-0.2914	8.21	2.22	-0.750			
0.7426	47525.17	3.2320	3.2321	-0.2887	8.22	2.23	-0.750			
0.7434	47580.45	3.2290	3.2290	-0.2836	8.23	2.24	-0.750			
0.7443	47634.68	3.2260	3.2260	-0.2802	8.23	2.24	-0.750			
0.7451	47687.66	3.2230	3.2230	-0.2745	8.24	2.25	-0.750			
0.7459	47739.61	3.2200	3.2200	-0.2693	8.25	2.26	-0.750			
0.7467	47790.66	3.2170	3.2170	-0.2665	8.26	2.27	-0.750			
0.7475	47841.69	3.2140	3.2140	-0.2631	8.27	2.28	-0.750			
0.7483	47891.95	3.2110	3.2110	-0.2586	8.28	2.29	-0.750			
0.7491	47941.49	3.2080	3.2079	-0.2542	8.29	2.30	-0.750			
0.7498	47990.06	3.2050	3.2051	-0.2510	8.30	2.31	-0.750			
0.7506	48037.42	3.2020	3.2020	-0.2470	8.30	2.31	-0.750			
0.7513	48084.69	3.1990	3.1989	-0.2435	8.31	2.32	-0.750			
0.7520	48130.72	3.1960	3.1959	-0.2394	8.31	2.32	-0.750			
0.7527	48175.99	3.1930	3.1929	-0.2364	8.32	2.33	-0.750			
0.7535	48221.47	3.1900	3.1901	-0.2343	8.33	2.34	-0.750			
0.7542	48266.23	3.1870	3.1869	-0.2321	8.34	2.35	-0.750			
0.7549	48310.58	3.1840	3.1840	-0.2295	8.34	2.35	-0.750			
0.7555	48354.10	3.1810	3.1811	-0.2265	8.35	2.36	-0.750			
0.7562	48397.28	3.1780	3.1780	-0.2240	8.36	2.37	-0.750			
0.7569	48440.68	3.1750	3.1750	-0.2221	8.37	2.38	-0.750			
0.7575	48482.99	3.1720	3.1720	-0.2187	8.38	2.39	-0.750			
0.7582	48524.67	3.1690	3.1690	-0.2155	8.39	2.40	-0.750			
0.7588	48565.35	3.1660	3.1660	-0.2140	8.39	2.40	-0.750			
0.7595	48606.06	3.1630	3.1629	-0.2112	8.40	2.41	-0.750			
0.7601	48646.47	3.1600	3.1600	-0.2097	8.41	2.42	-0.750			
0.7607	48686.45	3.1570	3.1569	-0.2080	8.42	2.43	-0.750			
0.7614	48726.47	3.1540	3.1541	-0.2055	8.43	2.44	-0.750			
0.7620	48766.25	3.1510	3.1510	-0.2039	8.43	2.44	-0.750			
0.7626	48805.06	3.1480	3.1479	-0.2004	8.44	2.45	-0.750			
0.7632	48843.35	3.1450	3.1451	-0.1976	8.44	2.45	-0.750			
0.7638	48880.25	3.1420	3.1420	-0.1951	8.45	2.46	-0.750			
0.7643	48917.60	3.1390	3.1389	-0.1935	8.45	2.46	-0.750			
0.7649	48954.64	3.1360	3.1359	-0.1918	8.46	2.47	-0.750			
0.7655	48991.03	3.1330	3.1332	-0.1899	8.46	2.47	-0.750			
0.7661	49027.57	3.1300	3.1300	-0.1886	8.47	2.48	-0.750			
0.7666	49063.64	3.1270	3.1270	-0.1873	8.48	2.49	-0.750			
0.7672	49099.59	3.1240	3.1240	-0.1853	8.48	2.49	-0.750			
0.7677	49134.97	3.1210	3.1209	-0.1832	8.49	2.50	-0.750			
0.7683	49169.78	3.1180	3.1181	-0.1812	8.50	2.51	-0.750			
0.7688	49204.60	3.1150	3.1151	-0.1793	8.51	2.52	-0.750			
0.7694	49238.65	3.1120	3.1120	-0.1778	8.51	2.52	-0.750			
0.7699	49272.62	3.1090	3.1090	-0.1760	8.52	2.53	-0.750			
0.7704	49306.14	3.1060	3.1059	-0.1738	8.53	2.54	-0.750			
0.7709	49339.03	3.1030	3.1030	-0.1727	8.53	2.54	-0.750			
0.7714	49372.03	3.1000	3.1000	-0.1722	8.54	2.55	-0.750			
0.7720	49405.05	3.0970	3.0970	-0.1717	8.55	2.56	-0.750			
0.7725	49438.03	3.0940	3.0939	-0.1697	8.56	2.57	-0.750			
0.7730	49470.74	3.0910	3.0909	-0.1684	8.56	2.57	-0.750			
0.7735	49502.81	3.0880	3.0881	-0.1668	8.57	2.58	-0.750			
0.7740	49534.67	3.0850	3.0850	-0.1651	8.58	2.59	-0.750			
0.7745	49566.47	3.0820	3.0819	-0.1636	8.58	2.59	-0.750			
0.7750	49597.33	3.0790	3.0790	-0.1614	8.59	2.60	-0.750			
0.7754	49628.07	3.0760	3.0759	-0.1599	8.60	2.61	-0.750			
0.7759	49658.68	3.0730	3.0731	-0.1589	8.60	2.61	-0.750			
0.7764	49689.26	3.0700	3.0699	-0.1585	8.61	2.62	-0.750			
0.7769	49719.46	3.0670	3.0670	-0.1574	8.62	2.63	-0.750			
0.7773	49749.64	3.0640	3.0639	-0.1560	8.62	2.63	-0.750			
0.7778	49779.48	3.0610	3.0611	-0.1550	8.63	2.64	-0.750			
0.7783	49809.25	3.0580	3.0579	-0.1540	8.64	2.65	-0.750			
0.7787	49838.72	3.0550	3.0551	-0.1533	8.64	2.65	-0.750			
0.7792	49868.01	3.0520	3.0519	-0.1521	8.65	2.66	-0.750			
0.7796	49896.77	3.0490	3.0490	-0.1512	8.66	2.67	-0.750			
0.7801	49925.79	3.0460	3.0460	-0.1510	8.67	2.68	-0.750			
0.7805	49954.88	3.0430	3.0430	-0.1500	8.67	2.68	-0.750			
0.7810	49983.83	3.0400	3.0399	-0.1492	8.68	2.69	-0.750			
0.7814	50012.39	3.0370	3.0370	-0.1481	8.69	2.70	-0.750			
0.7819	50040.70	3.0340	3.0341	-0.1467	8.69	2.70	-0.750			
0.7823	50068.70	3.0310	3.0310	-0.1459	8.70	2.71	-0.750			
0.7828	50096.48	3.0280	3.0280	-0.1453	8.71	2.72	-0.750			
0.7832	50123.94	3.0250	3.0250	-0.1442	8.71	2.72	-0.750			
0.7836	50151.73	3.0220	3.0220	-0.1438	8.72	2.73	-0.750			
0.7841	50179.46	3.0190	3.0190	-0.1437	8.73	2.74	-0.750			
0.7845	50207.20	3.0160	3.0160	-0.1427	8.74	2.75	-0.750			
0.7849	50234.64	3.0130	3.0130	-0.1420	8.74	2.75	-0.750			
0.7853	50261.79	3.0100	3.0100	-0.1407	8.75	2.76	-0.750			
0.7858	50288.73	3.0070	3.0071	-0.1393	8.76	2.77	-0.750			
0.7862	50315.31	3.0040	3.0040	-0.1380	8.76	2.77	-0.750			
0.7866	50341.68	3.0010	3.0010	-0.1354	8.77	2.78	-0.750			
