Ah_balance (normalized)	Ah_balance (mAh)	Voltage - fit (V)	Voltage -  interpolate (V)	dQ/dV (1/V)	Temperature (°C)	Temperature - diff (°C)	Current (C)	R_DC 0ms (mOhm)	R_DC 50ms (mOhm)	R_DC 50 ms PEC (mOhm)
0.0003	16.18	4.1060	4.1051	-0.0542	5.99	0.00	-0.750			
0.0005	32.33	4.1030	4.1024	-0.0918	5.99	0.00	-0.750			
0.0008	53.92	4.1000	4.0997	-0.1203	5.99	0.00	-0.750			
0.0013	80.47	4.0970	4.0970	-0.1455	5.99	0.00	-0.750			
0.0017	110.81	4.0940	4.0942	-0.1706	5.99	0.00	-0.750			
0.0023	145.99	4.0910	4.0911	-0.1940	5.99	0.00	-0.750			
0.0029	186.52	4.0880	4.0880	-0.2198	5.99	0.00	-0.750			
0.0036	230.36	4.0850	4.0850	-0.2413	5.99	0.00	-0.750			
0.0044	279.54	4.0820	4.0819	-0.2627	5.99	0.00	-0.750			
0.0052	332.74	4.0790	4.0789	-0.2825	5.99	0.00	-0.750			
0.0061	388.73	4.0760	4.0762	-0.3052	5.99	0.00	-0.750			
0.0070	449.42	4.0730	4.0730	-0.3271	5.99	0.00	-0.750			
0.0080	513.64	4.0700	4.0701	-0.3489	5.99	0.00	-0.750			
0.0091	581.98	4.0670	4.0669	-0.3734	5.99	0.00	-0.750			
0.0102	655.90	4.0640	4.0641	-0.3973	5.99	0.00	-0.750			
0.0115	735.20	4.0610	4.0609	-0.4211	5.99	0.00	-0.750			
0.0128	819.25	4.0580	4.0580	-0.4464	5.99	0.00	-0.750			
0.0142	906.10	4.0550	4.0550	-0.4709	5.99	0.00	-0.750			
0.0156	998.80	4.0520	4.0520	-0.4980	5.99	0.00	-0.750			
0.0172	1097.78	4.0490	4.0490	-0.5198	5.99	0.00	-0.750			
0.0188	1200.78	4.0460	4.0459	-0.5384	5.99	0.00	-0.750			
0.0204	1306.83	4.0430	4.0432	-0.5563	5.99	0.00	-0.750			
0.0221	1416.40	4.0400	4.0400	-0.5718	5.99	0.00	-0.750			
0.0239	1527.25	4.0370	4.0371	-0.5798	6.00	0.01	-0.750			
0.0256	1638.36	4.0340	4.0339	-0.5883	6.00	0.01	-0.750			
0.0274	1753.36	4.0310	4.0312	-0.6032	6.00	0.01	-0.750			
0.0292	1869.77	4.0280	4.0280	-0.6183	6.00	0.01	-0.750			
0.0311	1990.23	4.0250	4.0249	-0.6319	6.01	0.02	-0.750			
0.0330	2112.85	4.0220	4.0221	-0.6411	6.01	0.02	-0.750			
0.0350	2238.09	4.0190	4.0190	-0.6512	6.01	0.02	-0.750			
0.0369	2363.26	4.0160	4.0160	-0.6645	6.02	0.03	-0.750			
0.0389	2490.27	4.0130	4.0130	-0.6743	6.02	0.03	-0.750			
0.0410	2621.36	4.0100	4.0100	-0.6866	6.03	0.04	-0.750			
0.0430	2753.83	4.0070	4.0069	-0.6930	6.03	0.04	-0.750			
0.0451	2889.09	4.0040	4.0041	-0.7085	6.04	0.05	-0.750			
0.0473	3026.87	4.0010	4.0010	-0.7172	6.05	0.06	-0.750			
0.0495	3166.82	3.9980	3.9980	-0.7237	6.05	0.06	-0.750			
0.0516	3305.58	3.9950	3.9950	-0.7250	6.06	0.07	-0.750			
0.0538	3445.06	3.9920	3.9920	-0.7277	6.07	0.08	-0.750			
0.0560	3586.45	3.9890	3.9890	-0.7316	6.07	0.08	-0.750			
0.0582	3727.65	3.9860	3.9860	-0.7261	6.08	0.09	-0.750			
0.0604	3866.04	3.9830	3.9830	-0.7226	6.09	0.10	-0.750			
0.0626	4003.58	3.9800	3.9801	-0.7314	6.09	0.10	-0.750			
0.0648	4144.27	3.9770	3.9769	-0.7316	6.10	0.11	-0.750			
0.0670	4285.05	3.9740	3.9739	-0.7354	6.11	0.12	-0.750			
0.0692	4426.19	3.9710	3.9710	-0.7407	6.12	0.13	-0.750			
0.0714	4570.04	3.9680	3.9680	-0.7472	6.12	0.13	-0.750			
0.0737	4715.21	3.9650	3.9649	-0.7517	6.13	0.14	-0.750			
0.0759	4858.61	3.9620	3.9621	-0.7524	6.14	0.15	-0.750			
0.0782	5002.60	3.9590	3.9590	-0.7535	6.14	0.15	-0.750			
0.0805	5150.05	3.9560	3.9560	-0.7572	6.15	0.16	-0.750			
0.0827	5295.60	3.9530	3.9531	-0.7544	6.16	0.17	-0.750			
0.0850	5439.12	3.9500	3.9500	-0.7531	6.17	0.18	-0.750			
0.0872	5582.67	3.9470	3.9472	-0.7592	6.17	0.18	-0.750			
0.0895	5728.49	3.9440	3.9439	-0.7623	6.18	0.19	-0.750			
0.0918	5874.32	3.9410	3.9408	-0.7685	6.18	0.19	-0.750			
0.0941	6023.44	3.9380	3.9380	-0.7752	6.19	0.20	-0.750			
0.0965	6173.48	3.9350	3.9351	-0.7800	6.19	0.20	-0.750			
0.0988	6325.92	3.9320	3.9319	-0.7824	6.20	0.21	-0.750			
0.1012	6475.88	3.9290	3.9290	-0.7833	6.21	0.22	-0.750			
0.1035	6623.37	3.9260	3.9261	-0.7829	6.22	0.23	-0.750			
0.1059	6774.71	3.9230	3.9229	-0.7910	6.23	0.24	-0.750			
0.1083	6928.02	3.9200	3.9201	-0.7860	6.24	0.25	-0.750			
0.1106	7080.30	3.9170	3.9169	-0.7822	6.25	0.26	-0.750			
0.1130	7230.51	3.9140	3.9142	-0.7838	6.26	0.27	-0.750			
0.1153	7380.32	3.9110	3.9110	-0.7833	6.27	0.28	-0.750			
0.1176	7529.33	3.9080	3.9079	-0.7760	6.28	0.29	-0.750			
0.1200	7677.37	3.9050	3.9049	-0.7769	6.29	0.30	-0.750			
0.1223	7824.22	3.9020	3.9021	-0.7810	6.30	0.31	-0.750			
0.1246	7976.32	3.8990	3.8990	-0.7939	6.30	0.31	-0.750			
0.1270	8129.49	3.8960	3.8959	-0.8017	6.31	0.32	-0.750			
0.1294	8283.06	3.8930	3.8930	-0.8091	6.32	0.33	-0.750			
0.1319	8440.54	3.8900	3.8900	-0.8139	6.33	0.34	-0.750			
0.1344	8599.98	3.8870	3.8868	-0.8161	6.34	0.35	-0.750			
0.1368	8755.69	3.8840	3.8840	-0.8142	6.35	0.36	-0.750			
0.1393	8912.88	3.8810	3.8810	-0.8047	6.36	0.37	-0.750			
0.1416	9064.82	3.8780	3.8780	-0.8006	6.36	0.37	-0.750			
0.1440	9217.30	3.8750	3.8749	-0.8027	6.37	0.38	-0.750			
0.1464	9370.90	3.8720	3.8720	-0.8068	6.38	0.39	-0.750			
0.1488	9526.02	3.8690	3.8689	-0.8173	6.39	0.40	-0.750			
0.1513	9685.68	3.8660	3.8660	-0.8203	6.40	0.41	-0.750			
0.1538	9842.20	3.8630	3.8631	-0.8239	6.41	0.42	-0.750			
0.1563	10004.64	3.8600	3.8600	-0.8301	6.42	0.43	-0.750			
0.1588	10163.47	3.8570	3.8570	-0.8262	6.43	0.44	-0.750			
0.1613	10321.83	3.8540	3.8539	-0.8256	6.44	0.45	-0.750			
0.1638	10480.38	3.8510	3.8510	-0.8206	6.45	0.46	-0.750			
0.1662	10636.01	3.8480	3.8480	-0.8212	6.46	0.47	-0.750			
0.1687	10795.12	3.8450	3.8450	-0.8213	6.46	0.47	-0.750			
0.1711	10952.74	3.8420	3.8420	-0.8103	6.47	0.48	-0.750			
0.1736	11107.95	3.8390	3.8390	-0.8138	6.48	0.49	-0.750			
0.1760	11263.41	3.8360	3.8361	-0.8200	6.49	0.50	-0.750			
0.1785	11421.50	3.8330	3.8329	-0.8252	6.50	0.51	-0.750			
0.1810	11582.07	3.8300	3.8298	-0.8244	6.51	0.52	-0.750			
0.1834	11739.44	3.8270	3.8272	-0.8225	6.52	0.53	-0.750			
0.1859	11898.42	3.8240	3.8242	-0.8293	6.53	0.54	-0.750			
0.1884	12058.05	3.8210	3.8209	-0.8418	6.54	0.55	-0.750			
0.1909	12216.38	3.8180	3.8178	-0.8382	6.55	0.56	-0.750			
0.1935	12382.52	3.8150	3.8149	-0.8465	6.55	0.56	-0.750			
0.1960	12544.72	3.8120	3.8122	-0.8488	6.56	0.57	-0.750			
0.1986	12711.36	3.8090	3.8090	-0.8571	6.57	0.58	-0.750			
0.2012	12875.01	3.8060	3.8059	-0.8508	6.58	0.59	-0.750			
0.2037	13034.17	3.8030	3.8030	-0.8405	6.59	0.60	-0.750			
0.2062	13198.45	3.8000	3.8000	-0.8478	6.60	0.61	-0.750			
0.2088	13361.33	3.7970	3.7970	-0.8474	6.61	0.62	-0.750			
0.2113	13523.68	3.7940	3.7940	-0.8495	6.62	0.63	-0.750			
0.2138	13686.36	3.7910	3.7910	-0.8413	6.63	0.64	-0.750			
0.2164	13847.16	3.7880	3.7880	-0.8417	6.64	0.65	-0.750			
0.2189	14008.85	3.7850	3.7850	-0.8512	6.65	0.66	-0.750			
0.2214	14171.97	3.7820	3.7820	-0.8527	6.65	0.66	-0.750			
0.2240	14336.39	3.7790	3.7789	-0.8575	6.66	0.67	-0.750			
0.2266	14502.09	3.7760	3.7761	-0.8605	6.67	0.68	-0.750			
0.2292	14668.61	3.7730	3.7730	-0.8610	6.69	0.70	-0.750			
0.2318	14835.72	3.7700	3.7699	-0.8600	6.70	0.71	-0.750			
0.2344	14998.86	3.7670	3.7670	-0.8532	6.70	0.71	-0.750			
0.2369	15161.24	3.7640	3.7640	-0.8583	6.71	0.72	-0.750			
0.2395	15326.75	3.7610	3.7609	-0.8609	6.72	0.73	-0.750			
0.2420	15490.34	3.7580	3.7580	-0.8669	6.72	0.73	-0.750			
0.2447	15660.48	3.7550	3.7550	-0.8761	6.73	0.74	-0.750			
0.2473	15830.13	3.7520	3.7518	-0.8862	6.74	0.75	-0.750			
0.2500	16001.89	3.7490	3.7490	-0.8872	6.74	0.75	-0.750			
0.2527	16172.36	3.7460	3.7460	-0.8851	6.75	0.76	-0.750			
0.2553	16342.04	3.7430	3.7431	-0.8807	6.76	0.77	-0.750			
0.2580	16513.04	3.7400	3.7402	-0.8841	6.77	0.78	-0.750			
0.2606	16680.00	3.7370	3.7370	-0.8821	6.78	0.79	-0.750			
0.2633	16848.96	3.7340	3.7340	-0.8877	6.79	0.80	-0.750			
0.2659	17018.32	3.7310	3.7310	-0.8884	6.80	0.81	-0.750			
0.2687	17194.30	3.7280	3.7279	-0.8890	6.81	0.82	-0.750			
0.2713	17364.38	3.7250	3.7251	-0.8864	6.82	0.83	-0.750			
0.2740	17534.39	3.7220	3.7221	-0.8879	6.83	0.84	-0.750			
0.2766	17703.42	3.7190	3.7190	-0.8820	6.83	0.84	-0.750			
0.2792	17868.55	3.7160	3.7159	-0.8863	6.84	0.85	-0.750			
0.2818	18038.06	3.7130	3.7130	-0.9001	6.85	0.86	-0.750			
0.2845	18210.65	3.7100	3.7101	-0.9222	6.86	0.87	-0.750			
0.2874	18394.30	3.7070	3.7069	-0.9413	6.86	0.87	-0.750			
0.2903	18580.03	3.7040	3.7039	-0.9482	6.87	0.88	-0.750			
0.2932	18764.96	3.7010	3.7010	-0.9486	6.88	0.89	-0.750			
0.2961	18950.33	3.6980	3.6981	-0.9490	6.89	0.90	-0.750			
0.2989	19129.38	3.6950	3.6951	-0.9421	6.90	0.91	-0.750			
0.3017	19307.57	3.6920	3.6918	-0.9368	6.91	0.92	-0.750			
0.3044	19482.54	3.6890	3.6890	-0.9316	6.91	0.92	-0.750			
0.3073	19665.29	3.6860	3.6862	-0.9469	6.92	0.93	-0.750			
0.3101	19845.87	3.6830	3.6829	-0.9605	6.93	0.94	-0.750			
0.3130	20032.25	3.6800	3.6799	-0.9628	6.93	0.94	-0.750			
0.3159	20217.01	3.6770	3.6770	-0.9672	6.94	0.95	-0.750			
0.3188	20400.85	3.6740	3.6739	-0.9782	6.95	0.96	-0.750			
0.3217	20590.25	3.6710	3.6711	-1.0015	6.95	0.96	-0.750			
0.3248	20784.68	3.6680	3.6679	-1.0158	6.96	0.97	-0.750			
0.3278	20981.12	3.6650	3.6648	-1.0236	6.97	0.98	-0.750			
0.3309	21178.86	3.6620	3.6622	-1.0291	6.98	0.99	-0.750			
0.3341	21381.40	3.6590	3.6591	-1.0476	6.98	0.99	-0.750			
0.3373	21585.63	3.6560	3.6560	-1.0497	6.99	1.00	-0.750			
0.3404	21785.40	3.6530	3.6529	-1.0519	7.00	1.01	-0.750			
0.3435	21985.05	3.6500	3.6500	-1.0488	7.01	1.02	-0.750			
0.3467	22187.59	3.6470	3.6471	-1.0658	7.01	1.02	-0.750			
0.3499	22395.12	3.6440	3.6439	-1.0739	7.02	1.03	-0.750			
0.3531	22601.10	3.6410	3.6411	-1.0754	7.03	1.04	-0.750			
0.3563	22806.37	3.6380	3.6379	-1.0870	7.04	1.05	-0.750			
0.3596	23017.21	3.6350	3.6351	-1.1043	7.04	1.05	-0.750			
0.3630	23230.10	3.6320	3.6319	-1.1097	7.05	1.06	-0.750			
0.3663	23444.90	3.6290	3.6291	-1.1223	7.05	1.06	-0.750			
0.3697	23660.51	3.6260	3.6261	-1.1291	7.06	1.07	-0.750			
0.3731	23880.91	3.6230	3.6229	-1.1477	7.07	1.08	-0.750			
0.3766	24103.16	3.6200	3.6199	-1.1552	7.07	1.08	-0.750			
0.3801	24323.80	3.6170	3.6170	-1.1633	7.08	1.09	-0.750			
0.3836	24548.34	3.6140	3.6142	-1.1802	7.09	1.10	-0.750			
0.3872	24779.51	3.6110	3.6110	-1.1959	7.10	1.11	-0.750			
0.3908	25008.85	3.6080	3.6079	-1.2067	7.10	1.11	-0.750			
0.3944	25239.35	3.6050	3.6051	-1.2221	7.11	1.12	-0.750			
0.3981	25477.61	3.6020	3.6019	-1.2405	7.12	1.13	-0.750			
0.4018	25716.44	3.5990	3.5990	-1.2551	7.13	1.14	-0.750	0.412	0.954	
0.4056	25959.49	3.5960	3.5959	-1.2628	7.13	1.14	-0.750			
0.4094	26201.83	3.5930	3.5931	-1.2783	7.14	1.15	-0.750			
0.4133	26454.20	3.5900	3.5899	-1.2851	7.15	1.16	-0.750			
0.4172	26702.00	3.5870	3.5870	-1.2840	7.15	1.16	-0.750			
0.4210	26944.78	3.5840	3.5841	-1.2945	7.16	1.17	-0.750			
0.4249	27195.53	3.5810	3.5810	-1.3049	7.17	1.18	-0.750			
0.4288	27444.09	3.5780	3.5778	-1.3150	7.17	1.18	-0.750			
0.4328	27699.41	3.5750	3.5753	-1.3339	7.18	1.19	-0.750			
0.4368	27956.80	3.5720	3.5719	-1.3461	7.19	1.20	-0.750			
0.4409	28219.71	3.5690	3.5690	-1.3661	7.19	1.20	-0.750			
0.4451	28483.33	3.5660	3.5662	-1.3804	7.20	1.21	-0.750			
0.4492	28748.65	3.5630	3.5629	-1.3971	7.21	1.22	-0.750			
0.4534	29018.87	3.5600	3.5600	-1.4119	7.22	1.23	-0.750			
0.4577	29290.76	3.5570	3.5572	-1.4144	7.23	1.24	-0.750			
0.4619	29561.89	3.5540	3.5539	-1.4376	7.23	1.24	-0.750			
0.4663	29841.26	3.5510	3.5512	-1.4579	7.24	1.25	-0.750			
0.4706	30121.45	3.5480	3.5481	-1.4850	7.24	1.25	-0.750			
0.4752	30413.07	3.5450	3.5450	-1.5048	7.25	1.26	-0.750			
0.4797	30703.46	3.5420	3.5420	-1.5183	7.25	1.26	-0.750			
0.4844	30999.77	3.5390	3.5390	-1.5160	7.26	1.27	-0.750			
0.4890	31296.41	3.5360	3.5361	-1.5121	7.27	1.28	-0.750			
0.4934	31579.28	3.5330	3.5331	-1.5176	7.29	1.30	-0.750			
0.4979	31868.60	3.5300	3.5299	-1.5171	7.29	1.30	-0.750			
0.5026	32164.54	3.5270	3.5267	-1.5254	7.30	1.31	-0.750			
0.5072	32458.18	3.5240	3.5242	-1.5345	7.31	1.32	-0.750			
0.5118	32752.88	3.5210	3.5210	-1.5400	7.32	1.33	-0.750			
0.5164	33050.17	3.5180	3.5179	-1.5452	7.32	1.33	-0.750			
0.5210	33341.39	3.5150	3.5151	-1.5570	7.33	1.34	-0.750			
0.5256	33639.33	3.5120	3.5119	-1.5633	7.35	1.36	-0.750			
0.5304	33945.33	3.5090	3.5090	-1.5508	7.36	1.37	-0.750			
0.5351	34249.32	3.5060	3.5059	-1.5501	7.37	1.38	-0.750			
0.5398	34544.48	3.5030	3.5032	-1.5479	7.38	1.39	-0.750			
0.5444	34840.15	3.5000	3.4998	-1.5400	7.39	1.40	-0.750			
0.5489	35130.12	3.4970	3.4969	-1.5318	7.40	1.41	-0.750			
0.5535	35423.28	3.4940	3.4941	-1.5476	7.41	1.42	-0.750			
0.5582	35726.83	3.4910	3.4909	-1.5451	7.42	1.43	-0.750			
0.5628	36022.00	3.4880	3.4882	-1.5554	7.44	1.45	-0.750			
0.5675	36322.78	3.4850	3.4849	-1.5488	7.45	1.46	-0.750			
0.5722	36618.30	3.4820	3.4819	-1.5365	7.46	1.47	-0.750			
0.5768	36915.82	3.4790	3.4789	-1.5217	7.47	1.48	-0.750			
0.5813	37205.75	3.4760	3.4760	-1.5045	7.48	1.49	-0.750			
0.5859	37495.32	3.4730	3.4730	-1.5059	7.49	1.50	-0.750			
0.5904	37785.90	3.4700	3.4699	-1.4901	7.50	1.51	-0.750			
0.5948	38065.31	3.4670	3.4670	-1.4552	7.52	1.53	-0.750			
0.5992	38348.50	3.4640	3.4640	-1.4327	7.53	1.54	-0.750			
0.6035	38622.75	3.4610	3.4610	-1.4182	7.55	1.56	-0.750			
0.6077	38890.76	3.4580	3.4580	-1.4113	7.56	1.57	-0.750			
0.6118	39156.05	3.4550	3.4548	-1.4019	7.57	1.58	-0.750			
0.6159	39420.51	3.4520	3.4519	-1.3914	7.59	1.60	-0.750			
0.6202	39694.38	3.4490	3.4493	-1.4052	7.60	1.61	-0.750			
0.6245	39968.50	3.4460	3.4460	-1.3863	7.62	1.63	-0.750			
0.6288	40241.44	3.4430	3.4429	-1.3693	7.63	1.64	-0.750			
0.6328	40497.83	3.4400	3.4403	-1.3481	7.65	1.66	-0.750			
0.6368	40755.47	3.4370	3.4369	-1.3152	7.67	1.68	-0.750			
0.6407	41002.44	3.4340	3.4339	-1.2794	7.68	1.69	-0.750			
0.6444	41243.73	3.4310	3.4312	-1.2521	7.70	1.71	-0.750			
0.6482	41485.50	3.4280	3.4280	-1.2356	7.71	1.72	-0.750			
0.6519	41719.85	3.4250	3.4248	-1.2114	7.73	1.74	-0.750			
0.6554	41947.02	3.4220	3.4220	-1.1850	7.74	1.75	-0.750			
0.6589	42170.42	3.4190	3.4192	-1.1621	7.75	1.76	-0.750			
0.6625	42399.12	3.4160	3.4158	-1.1533	7.77	1.78	-0.750			
0.6659	42619.36	3.4130	3.4129	-1.1134	7.79	1.80	-0.750			
0.6692	42828.04	3.4100	3.4101	-1.0786	7.80	1.81	-0.750			
0.6724	43035.14	3.4070	3.4070	-1.0616	7.82	1.83	-0.750			
0.6755	43232.21	3.4040	3.4040	-1.0258	7.83	1.84	-0.750			
0.6785	43426.16	3.4010	3.4008	-0.9968	7.85	1.86	-0.750			
0.6814	43612.57	3.3980	3.3979	-0.9755	7.86	1.87	-0.750			
0.6844	43800.69	3.3950	3.3950	-0.9593	7.88	1.89	-0.750			
0.6873	43985.10	3.3920	3.3919	-0.9375	7.89	1.90	-0.750			
0.6900	44163.06	3.3890	3.3890	-0.9051	7.90	1.91	-0.750			
0.6927	44332.42	3.3860	3.3861	-0.8736	7.92	1.93	-0.750			
0.6953	44499.67	3.3830	3.3832	-0.8550	7.93	1.94	-0.750			
0.6978	44660.70	3.3800	3.3800	-0.8311	7.94	1.95	-0.750			
0.7003	44816.95	3.3770	3.3768	-0.8034	7.96	1.97	-0.750			
0.7026	44969.13	3.3740	3.3740	-0.7821	7.97	1.98	-0.750			
0.7050	45118.71	3.3710	3.3709	-0.7638	7.98	1.99	-0.750			
0.7072	45263.05	3.3680	3.3681	-0.7374	8.00	2.01	-0.750			
0.7094	45401.15	3.3650	3.3648	-0.7133	8.01	2.02	-0.750			
0.7115	45535.24	3.3620	3.3621	-0.6907	8.02	2.03	-0.750			
0.7135	45666.10	3.3590	3.3589	-0.6690	8.04	2.05	-0.750			
0.7155	45790.81	3.3560	3.3560	-0.6490	8.05	2.06	-0.750			
0.7174	45912.90	3.3530	3.3531	-0.6335	8.06	2.07	-0.750			
0.7193	46033.11	3.3500	3.3500	-0.6190	8.07	2.08	-0.750			
0.7211	46151.48	3.3470	3.3469	-0.6050	8.09	2.10	-0.750			
0.7229	46265.94	3.3440	3.3440	-0.5893	8.10	2.11	-0.750			
0.7247	46378.54	3.3410	3.3411	-0.5775	8.11	2.12	-0.750			
0.7264	46488.27	3.3380	3.3380	-0.5644	8.12	2.13	-0.750			
0.7281	46595.21	3.3350	3.3349	-0.5471	8.14	2.15	-0.750			
0.7296	46696.92	3.3320	3.3321	-0.5307	8.15	2.16	-0.750			
0.7312	46798.64	3.3290	3.3290	-0.5161	8.16	2.17	-0.750			
0.7328	46896.67	3.3260	3.3260	-0.5031	8.17	2.18	-0.750			
0.7342	46991.46	3.3230	3.3230	-0.4883	8.18	2.19	-0.750			
0.7357	47083.27	3.3200	3.3198	-0.4719	8.19	2.20	-0.750			
0.7371	47172.33	3.3170	3.3170	-0.4603	8.20	2.21	-0.750			
0.7384	47259.31	3.3140	3.3141	-0.4493	8.21	2.22	-0.750			
0.7398	47344.10	3.3110	3.3109	-0.4394	8.22	2.23	-0.750			
0.7411	47428.02	3.3080	3.3081	-0.4311	8.24	2.25	-0.750			
0.7423	47508.71	3.3050	3.3050	-0.4197	8.25	2.26	-0.750			
0.7436	47588.82	3.3020	3.3019	-0.4111	8.26	2.27	-0.750			
0.7448	47667.61	3.2990	3.2991	-0.4016	8.27	2.28	-0.750			
0.7460	47742.95	3.2960	3.2960	-0.3918	8.28	2.29	-0.750			
0.7471	47816.98	3.2930	3.2930	-0.3840	8.29	2.30	-0.750			
0.7483	47889.74	3.2900	3.2898	-0.3772	8.30	2.31	-0.750			
0.7494	47961.08	3.2870	3.2870	-0.3689	8.31	2.32	-0.750			
0.7505	48031.50	3.2840	3.2840	-0.3628	8.32	2.33	-0.750			
0.7516	48101.09	3.2810	3.2811	-0.3561	8.33	2.34	-0.750			
0.7526	48169.05	3.2780	3.2779	-0.3479	8.34	2.35	-0.750			
0.7537	48234.05	3.2750	3.2751	-0.3405	8.35	2.36	-0.750			
0.7547	48299.07	3.2720	3.2720	-0.3330	8.36	2.37	-0.750			
0.7557	48362.22	3.2690	3.2690	-0.3256	8.37	2.38	-0.750			
0.7566	48424.15	3.2660	3.2660	-0.3193	8.38	2.39	-0.750			
0.7576	48483.98	3.2630	3.2630	-0.3125	8.38	2.39	-0.750			
0.7585	48543.49	3.2600	3.2599	-0.3072	8.39	2.40	-0.750			
0.7594	48602.01	3.2570	3.2569	-0.3009	8.39	2.40	-0.750			
0.7603	48658.65	3.2540	3.2541	-0.2952	8.40	2.41	-0.750			
0.7612	48715.16	3.2510	3.2511	-0.2906	8.41	2.42	-0.750			
0.7620	48771.04	3.2480	3.2479	-0.2855	8.42	2.43	-0.750			
0.7629	48825.34	3.2450	3.2449	-0.2789	8.43	2.44	-0.750			
0.7637	48877.55	3.2420	3.2422	-0.2730	8.44	2.45	-0.750			
0.7645	48929.52	3.2390	3.2390	-0.2685	8.44	2.45	-0.750			
0.7653	48980.81	3.2360	3.2360	-0.2644	8.45	2.46	-0.750			
0.7661	49030.49	3.2330	3.2330	-0.2609	8.46	2.47	-0.750			
0.7669	49080.39	3.2300	3.2301	-0.2573	8.47	2.48	-0.750			
0.7676	49129.57	3.2270	3.2269	-0.2540	8.48	2.49	-0.750			
0.7684	49178.50	3.2240	3.2239	-0.2499	8.48	2.49	-0.750			
0.7692	49225.85	3.2210	3.2212	-0.2449	8.49	2.50	-0.750			
0.7699	49272.07	3.2180	3.2180	-0.2413	8.50	2.51	-0.750			
0.7706	49317.97	3.2150	3.2150	-0.2377	8.50	2.51	-0.750			
0.7713	49363.20	3.2120	3.2119	-0.2328	8.51	2.52	-0.750			
0.7720	49407.50	3.2090	3.2089	-0.2301	8.52	2.53	-0.750			
0.7727	49451.06	3.2060	3.2061	-0.2260	8.53	2.54	-0.750			
0.7733	49494.14	3.2030	3.2031	-0.2228	8.53	2.54	-0.750			
0.7740	49536.83	3.2000	3.1998	-0.2199	8.54	2.55	-0.750			
0.7747	49578.64	3.1970	3.1970	-0.2161	8.55	2.56	-0.750			
0.7753	49619.37	3.1940	3.1940	-0.2123	8.56	2.57	-0.750			
0.7759	49659.89	3.1910	3.1910	-0.2098	8.56	2.57	-0.750			
0.7766	49700.35	3.1880	3.1880	-0.2077	8.57	2.58	-0.750			
0.7772	49739.49	3.1850	3.1850	-0.2050	8.58	2.59	-0.750			
0.7778	49778.15	3.1820	3.1819	-0.2038	8.58	2.59	-0.750			
0.7784	49817.86	3.1790	3.1790	-0.2008	8.59	2.60	-0.750			
0.7790	49856.47	3.1760	3.1759	-0.1980	8.60	2.61	-0.750			
0.7796	49894.63	3.1730	3.1729	-0.1954	8.61	2.62	-0.750			
0.7802	49931.93	3.1700	3.1702	-0.1920	8.61	2.62	-0.750			
0.7807	49968.00	3.1670	3.1670	-0.1903	8.62	2.63	-0.750			
0.7813	50003.87	3.1640	3.1639	-0.1882	8.62	2.63	-0.750			
0.7819	50039.05	3.1610	3.1610	-0.1862	8.63	2.64	-0.750			
0.7824	50074.57	3.1580	3.1579	-0.1838	8.64	2.65	-0.750			
0.7830	50110.72	3.1550	3.1552	-0.1833	8.64	2.65	-0.750			
0.7835	50145.90	3.1520	3.1521	-0.1811	8.65	2.66	-0.750			
0.7841	50180.38	3.1490	3.1490	-0.1780	8.66	2.67	-0.750			
0.7846	50214.49	3.1460	3.1459	-0.1756	8.67	2.68	-0.750			
0.7851	50247.27	3.1430	3.1430	-0.1725	8.67	2.68	-0.750			
0.7856	50280.27	3.1400	3.1400	-0.1704	8.68	2.69	-0.750			
0.7861	50312.81	3.1370	3.1370	-0.1685	8.69	2.70	-0.750			
0.7866	50344.98	3.1340	3.1340	-0.1671	8.70	2.71	-0.750			
0.7871	50376.71	3.1310	3.1311	-0.1654	8.70	2.71	-0.750			
0.7876	50408.42	3.1280	3.1279	-0.1639	8.71	2.72	-0.750			
0.7881	50439.74	3.1250	3.1250	-0.1624	8.72	2.73	-0.750			
0.7886	50470.74	3.1220	3.1220	-0.1609	8.73	2.74	-0.750			
0.7891	50501.35	3.1190	3.1191	-0.1600	8.73	2.74	-0.750			
0.7896	50532.35	3.1160	3.1159	-0.1584	8.74	2.75	-0.750			
0.7900	50562.44	3.1130	3.1129	-0.1569	8.75	2.76	-0.750			
0.7905	50592.33	3.1100	3.1100	-0.1553	8.76	2.77	-0.750			
0.7910	50621.95	3.1070	3.1071	-0.1541	8.76	2.77	-0.750			
0.7914	50651.60	3.1040	3.1039	-0.1527	8.77	2.78	-0.750			
0.7919	50680.75	3.1010	3.1010	-0.1510	8.77	2.78	-0.750			
0.7923	50709.52	3.0980	3.0980	-0.1492	8.78	2.79	-0.750			
0.7928	50737.92	3.0950	3.0951	-0.1475	8.78	2.79	-0.750			
0.7932	50766.18	3.0920	3.0919	-0.1470	8.79	2.80	-0.750			
0.7937	50793.93	3.0890	3.0890	-0.1450	8.79	2.80	-0.750			
0.7941	50821.81	3.0860	3.0859	-0.1436	8.80	2.81	-0.750			
0.7945	50849.24	3.0830	3.0830	-0.1422	8.80	2.81	-0.750			
0.7949	50876.56	3.0800	3.0800	-0.1412	8.81	2.82	-0.750			
0.7954	50903.60	3.0770	3.0772	-0.1399	8.81	2.82	-0.750			
0.7958	50930.27	3.0740	3.0739	-0.1384	8.82	2.83	-0.750			
0.7962	50956.59	3.0710	3.0710	-0.1373	8.82	2.83	-0.750			
0.7966	50982.64	3.0680	3.0680	-0.1356	8.83	2.84	-0.750			
0.7970	51008.61	3.0650	3.0650	-0.1349	8.84	2.85	-0.750			
0.7974	51034.52	3.0620	3.0620	-0.1344	8.84	2.85	-0.750			
0.7978	51060.23	3.0590	3.0590	-0.1334	8.85	2.86	-0.750			
0.7982	51085.75	3.0560	3.0560	-0.1325	8.86	2.87	-0.750			
0.7986	51111.12	3.0530	3.0530	-0.1315	8.86	2.87	-0.750			
0.7990	51136.38	3.0500	3.0500	-0.1304	8.87	2.88	-0.750			
0.7994	51161.29	3.0470	3.0471	-0.1292	8.88	2.89	-0.750			
0.7998	51185.99	3.0440	3.0440	-0.1279	8.88	2.89	-0.750			
0.8002	51210.53	3.0410	3.0410	-0.1267	8.89	2.90	-0.750			
0.8005	51234.61	3.0380	3.0381	-0.1255	8.90	2.91	-0.750			
0.8009	51258.50	3.0350	3.0349	-0.1246	8.90	2.91	-0.750			
0.8013	51282.34	3.0320	3.0320	-0.1238	8.91	2.92	-0.750			
0.8017	51305.81	3.0290	3.0290	-0.1233	8.92	2.93	-0.750			
0.8020	51329.33	3.0260	3.0260	-0.1228	8.92	2.93	-0.750			
0.8024	51353.03	3.0230	3.0229	-0.1221	8.93	2.94	-0.750			
0.8028	51376.49	3.0200	3.0200	-0.1217	8.94	2.95	-0.750			
0.8031	51399.87	3.0170	3.0171	-0.1204	8.94	2.95	-0.750			
0.8035	51422.89	3.0140	3.0141	-0.1201	8.95	2.96	-0.750			
0.8038	51445.88	3.0110	3.0110	-0.1193	8.95	2.96	-0.750			
0.8042	51468.65	3.0080	3.0080	-0.1186	8.96	2.97	-0.750			
0.8045	51491.04	3.0050	3.0049	-0.1193	8.97	2.98	-0.750			
0.8049	51514.03	3.0020	3.0020	-0.1202	8.97	2.98	-0.750			
