Ah_balance (normalized)	Ah_balance (mAh)	Voltage - fit (V)	Voltage -  interpolate (V)	dQ/dV (1/V)	Temperature (°C)	Temperature - diff (°C)	Current (C)	R_DC 0ms (mOhm)	R_DC 50ms (mOhm)	R_DC 50 ms PEC (mOhm)
0.0928	5939.67	4.1960	4.1981	0.9761	8.21	2.23	0.750			
0.0956	6120.29	4.1930	4.1939	0.9054	8.20	2.22	0.750			
0.0982	6284.96	4.1900	4.1906	0.8410	8.20	2.22	0.750			
0.1006	6435.38	4.1870	4.1869	0.7775	8.19	2.21	0.750			
0.1030	6590.56	4.1840	4.1837	0.7670	8.18	2.20	0.750			
0.1049	6711.20	4.1810	4.1811	0.7072	8.17	2.19	0.750			
0.1070	6845.31	4.1780	4.1780	0.7113	8.17	2.19	0.750			
0.1091	6982.09	4.1750	4.1750	0.7225	8.16	2.18	0.750			
0.1112	7119.36	4.1720	4.1720	0.7282	8.15	2.17	0.750			
0.1135	7261.77	4.1690	4.1690	0.7357	8.15	2.17	0.750			
0.1157	7406.33	4.1660	4.1660	0.7467	8.14	2.16	0.750			
0.1180	7550.39	4.1630	4.1631	0.7431	8.14	2.16	0.750			
0.1202	7695.67	4.1600	4.1601	0.7416	8.13	2.15	0.750			
0.1224	7836.08	4.1570	4.1569	0.7364	8.13	2.15	0.750			
0.1246	7975.85	4.1540	4.1540	0.7317	8.12	2.14	0.750			
0.1268	8114.64	4.1510	4.1510	0.7334	8.11	2.13	0.750			
0.1290	8255.59	4.1480	4.1480	0.7326	8.11	2.13	0.750			
0.1312	8396.34	4.1450	4.1449	0.7341	8.10	2.12	0.750			
0.1334	8538.90	4.1420	4.1421	0.7358	8.09	2.11	0.750			
0.1356	8679.61	4.1390	4.1390	0.7377	8.09	2.11	0.750			
0.1378	8820.37	4.1360	4.1360	0.7419	8.08	2.10	0.750			
0.1400	8963.08	4.1330	4.1329	0.7511	8.07	2.09	0.750			
0.1423	9104.94	4.1300	4.1300	0.7579	8.06	2.08	0.750			
0.1446	9253.57	4.1270	4.1270	0.7700	8.06	2.08	0.750			
0.1469	9403.84	4.1240	4.1239	0.7779	8.05	2.07	0.750			
0.1493	9555.50	4.1210	4.1209	0.7781	8.04	2.06	0.750			
0.1516	9704.96	4.1180	4.1181	0.7777	8.04	2.06	0.750			
0.1540	9855.46	4.1150	4.1150	0.7680	8.03	2.05	0.750			
0.1562	9999.94	4.1120	4.1119	0.7674	8.02	2.04	0.750			
0.1585	10144.87	4.1090	4.1091	0.7697	8.02	2.04	0.750			
0.1609	10294.54	4.1060	4.1059	0.7723	8.01	2.03	0.750			
0.1632	10443.28	4.1030	4.1029	0.7771	8.01	2.03	0.750			
0.1655	10593.22	4.1000	4.1001	0.7830	8.00	2.02	0.750			
0.1679	10744.06	4.0970	4.0970	0.7817	8.00	2.02	0.750			
0.1702	10894.11	4.0940	4.0940	0.7888	7.99	2.01	0.750			
0.1725	11041.77	4.0910	4.0911	0.7874	7.99	2.01	0.750			
0.1749	11194.77	4.0880	4.0876	0.7987	7.98	2.00	0.750			
0.1773	11350.27	4.0850	4.0849	0.8117	7.97	1.99	0.750			
0.1798	11506.95	4.0820	4.0821	0.8101	7.97	1.99	0.750			
0.1823	11665.49	4.0790	4.0791	0.8118	7.96	1.98	0.750			
0.1847	11821.02	4.0760	4.0760	0.8053	7.96	1.98	0.750			
0.1871	11975.74	4.0730	4.0729	0.8096	7.95	1.97	0.750			
0.1895	12128.93	4.0700	4.0699	0.8094	7.94	1.96	0.750			
0.1919	12283.77	4.0670	4.0670	0.8162	7.94	1.96	0.750			
0.1944	12441.27	4.0640	4.0641	0.8235	7.93	1.95	0.750			
0.1969	12601.80	4.0610	4.0609	0.8321	7.92	1.94	0.750			
0.1994	12764.23	4.0580	4.0580	0.8326	7.91	1.93	0.750			
0.2020	12925.61	4.0550	4.0550	0.8282	7.90	1.92	0.750			
0.2044	13082.72	4.0520	4.0520	0.8239	7.90	1.92	0.750			
0.2069	13239.39	4.0490	4.0491	0.8231	7.89	1.91	0.750			
0.2093	13394.29	4.0460	4.0460	0.8303	7.89	1.91	0.750			
0.2118	13552.89	4.0430	4.0429	0.8404	7.88	1.90	0.750			
0.2143	13714.62	4.0400	4.0400	0.8556	7.87	1.89	0.750			
0.2170	13885.08	4.0370	4.0370	0.8587	7.87	1.89	0.750			
0.2196	14054.44	4.0340	4.0340	0.8696	7.86	1.88	0.750			
0.2222	14220.72	4.0310	4.0311	0.8677	7.85	1.87	0.750			
0.2248	14386.55	4.0280	4.0278	0.8594	7.84	1.86	0.750			
0.2273	14549.10	4.0250	4.0249	0.8513	7.83	1.85	0.750			
0.2299	14711.63	4.0220	4.0221	0.8536	7.83	1.85	0.750			
0.2324	14874.10	4.0190	4.0191	0.8537	7.82	1.84	0.750			
0.2350	15037.62	4.0160	4.0159	0.8675	7.82	1.84	0.750			
0.2375	15202.15	4.0130	4.0131	0.8722	7.81	1.83	0.750			
0.2402	15372.78	4.0100	4.0100	0.8786	7.80	1.82	0.750			
0.2429	15544.66	4.0070	4.0069	0.8934	7.80	1.82	0.750			
0.2456	15718.30	4.0040	4.0041	0.8946	7.79	1.81	0.750			
0.2483	15889.22	4.0010	4.0010	0.8945	7.78	1.80	0.750			
0.2510	16063.11	3.9980	3.9980	0.8951	7.78	1.80	0.750			
0.2537	16236.13	3.9950	3.9950	0.8784	7.77	1.79	0.750			
0.2563	16402.96	3.9920	3.9920	0.8836	7.76	1.78	0.750			
0.2589	16570.60	3.9890	3.9892	0.8875	7.75	1.77	0.750			
0.2615	16737.69	3.9860	3.9858	0.8889	7.74	1.76	0.750			
0.2642	16910.60	3.9830	3.9831	0.8971	7.74	1.76	0.750			
0.2669	17081.81	3.9800	3.9800	0.9062	7.73	1.75	0.750			
0.2696	17257.14	3.9770	3.9771	0.9252	7.72	1.74	0.750			
0.2725	17439.85	3.9740	3.9741	0.9449	7.72	1.74	0.750			
0.2754	17623.05	3.9710	3.9708	0.9378	7.71	1.73	0.750			
0.2782	17805.51	3.9680	3.9680	0.9274	7.70	1.72	0.750			
0.2810	17981.16	3.9650	3.9652	0.9376	7.69	1.71	0.750			
0.2838	18162.20	3.9620	3.9620	0.9355	7.68	1.70	0.750			
0.2866	18340.06	3.9590	3.9587	0.9323	7.67	1.69	0.750			
0.2893	18517.53	3.9560	3.9562	0.9367	7.66	1.68	0.750			
0.2921	18695.78	3.9530	3.9532	0.9549	7.65	1.67	0.750			
0.2951	18883.81	3.9500	3.9499	0.9731	7.65	1.67	0.750			
0.2980	19069.80	3.9470	3.9469	0.9788	7.64	1.66	0.750			
0.3010	19262.97	3.9440	3.9441	0.9828	7.63	1.65	0.750			
0.3040	19455.77	3.9410	3.9411	1.0021	7.62	1.64	0.750			
0.3070	19648.49	3.9380	3.9380	0.9974	7.61	1.63	0.750			
0.3100	19838.90	3.9350	3.9350	0.9945	7.60	1.62	0.750			
0.3129	20026.73	3.9320	3.9320	0.9955	7.59	1.61	0.750			
0.3159	20216.96	3.9290	3.9291	1.0141	7.58	1.60	0.750			
0.3189	20412.37	3.9260	3.9260	1.0252	7.57	1.59	0.750			
0.3221	20614.20	3.9230	3.9229	1.0400	7.56	1.58	0.750			
0.3252	20815.13	3.9200	3.9199	1.0426	7.55	1.57	0.750			
0.3284	21019.27	3.9170	3.9171	1.0542	7.54	1.56	0.750			
0.3316	21222.46	3.9140	3.9140	1.0576	7.53	1.55	0.750			
0.3348	21424.76	3.9110	3.9110	1.0571	7.52	1.54	0.750			
0.3379	21626.18	3.9080	3.9079	1.0507	7.51	1.53	0.750			
0.3411	21827.37	3.9050	3.9052	1.0713	7.50	1.52	0.750			
0.3443	22032.97	3.9020	3.9020	1.0883	7.48	1.50	0.750			
0.3475	22242.42	3.8990	3.8990	1.1033	7.47	1.49	0.750			
0.3509	22456.96	3.8960	3.8960	1.1128	7.46	1.48	0.750			
0.3542	22671.74	3.8930	3.8931	1.1309	7.45	1.47	0.750			
0.3577	22891.42	3.8900	3.8900	1.1540	7.44	1.46	0.750			
0.3612	23117.05	3.8870	3.8869	1.1643	7.42	1.44	0.750			
0.3647	23339.43	3.8840	3.8840	1.1744	7.41	1.43	0.750			
0.3682	23566.15	3.8810	3.8811	1.1954	7.40	1.42	0.750			
0.3719	23798.92	3.8780	3.8781	1.2142	7.39	1.41	0.750			
0.3755	24034.79	3.8750	3.8751	1.2212	7.38	1.40	0.750			
0.3792	24268.70	3.8720	3.8720	1.2378	7.36	1.38	0.750			
0.3829	24506.03	3.8690	3.8692	1.2509	7.35	1.37	0.750			
0.3867	24749.98	3.8660	3.8658	1.2700	7.33	1.35	0.750			
0.3906	24997.38	3.8630	3.8631	1.2912	7.32	1.34	0.750			
0.3944	25243.31	3.8600	3.8601	1.3213	7.30	1.32	0.750			
0.3985	25501.68	3.8570	3.8569	1.3476	7.29	1.31	0.750			
0.4026	25764.44	3.8540	3.8541	1.3699	7.27	1.29	0.750			
0.4066	26025.55	3.8510	3.8510	1.3842	7.26	1.28	0.750	0.392	0.925	
0.4108	26294.09	3.8480	3.8481	1.4154	7.24	1.26	0.750			
0.4151	26567.30	3.8450	3.8450	1.4372	7.23	1.25	0.750			
0.4195	26846.42	3.8420	3.8417	1.4730	7.22	1.24	0.750			
0.4240	27132.93	3.8390	3.8389	1.4965	7.20	1.22	0.750			
0.4286	27427.75	3.8360	3.8361	1.5332	7.18	1.20	0.750			
0.4333	27729.10	3.8330	3.8330	1.5505	7.16	1.18	0.750			
0.4379	28024.44	3.8300	3.8301	1.5682	7.14	1.16	0.750			
0.4426	28326.96	3.8270	3.8270	1.5812	7.12	1.14	0.750			
0.4474	28633.32	3.8240	3.8240	1.6075	7.11	1.13	0.750			
0.4522	28938.99	3.8210	3.8211	1.6366	7.09	1.11	0.750			
0.4571	29253.36	3.8180	3.8182	1.6959	7.07	1.09	0.750			
0.4622	29578.98	3.8150	3.8146	1.7551	7.05	1.07	0.750			
0.4676	29925.89	3.8120	3.8119	1.7896	7.03	1.05	0.750			
0.4732	30282.05	3.8090	3.8091	1.8361	7.01	1.03	0.750			
0.4788	30642.84	3.8060	3.8060	1.8835	6.98	1.00	0.750			
0.4845	31007.14	3.8030	3.8029	1.8757	6.96	0.98	0.750			
0.4900	31361.18	3.8000	3.7999	1.9137	6.94	0.96	0.750			
0.4958	31730.32	3.7970	3.7972	1.9407	6.92	0.94	0.750			
0.5016	32103.56	3.7940	3.7938	1.9856	6.89	0.91	0.750			
0.5077	32494.73	3.7910	3.7911	2.0399	6.87	0.89	0.750			
0.5139	32889.55	3.7880	3.7879	2.1061	6.84	0.86	0.750			
0.5205	33310.61	3.7850	3.7850	2.1378	6.82	0.84	0.750			
0.5269	33719.04	3.7820	3.7821	2.1396	6.79	0.81	0.750			
0.5334	34136.32	3.7790	3.7791	2.1768	6.77	0.79	0.750			
0.5398	34550.27	3.7760	3.7759	2.2293	6.74	0.76	0.750			
0.5466	34979.89	3.7730	3.7729	2.2802	6.71	0.73	0.750			
0.5536	35428.92	3.7700	3.7700	2.3479	6.68	0.70	0.750			
0.5608	35893.51	3.7670	3.7670	2.4015	6.65	0.67	0.750			
0.5680	36353.22	3.7640	3.7639	2.3959	6.62	0.64	0.750			
0.5751	36807.85	3.7610	3.7610	2.4395	6.59	0.61	0.750			
0.5827	37291.06	3.7580	3.7578	2.4811	6.56	0.58	0.750			
0.5901	37767.89	3.7550	3.7551	2.5743	6.53	0.55	0.750			
0.5980	38269.48	3.7520	3.7520	2.6944	6.50	0.52	0.750			
0.6062	38794.06	3.7490	3.7493	2.7207	6.47	0.49	0.750			
0.6145	39325.46	3.7460	3.7462	2.7928	6.44	0.46	0.750			
0.6228	39861.01	3.7430	3.7431	2.9090	6.41	0.43	0.750			
0.6318	40434.06	3.7400	3.7399	3.0603	6.38	0.40	0.750			
0.6414	41050.43	3.7370	3.7371	3.1384	6.34	0.36	0.750			
0.6510	41664.79	3.7340	3.7338	3.1850	6.31	0.33	0.750			
0.6604	42268.71	3.7310	3.7309	3.1290	6.28	0.30	0.750			
0.6700	42876.86	3.7280	3.7281	3.1412	6.25	0.27	0.750			
0.6794	43478.88	3.7250	3.7249	3.0560	6.22	0.24	0.750			
0.6884	44058.22	3.7220	3.7220	2.8041	6.19	0.21	0.750			
0.6965	44573.15	3.7190	3.7191	2.5264	6.17	0.19	0.750			
0.7033	45009.86	3.7160	3.7163	2.1873	6.15	0.17	0.750			
0.7092	45391.59	3.7130	3.7128	1.9258	6.14	0.16	0.750			
0.7146	45734.27	3.7100	3.7100	1.7212	6.13	0.15	0.750			
0.7194	46041.87	3.7070	3.7069	1.5604	6.12	0.14	0.750			
0.7238	46325.24	3.7040	3.7039	1.4356	6.11	0.13	0.750			
0.7277	46575.54	3.7010	3.7010	1.3184	6.10	0.12	0.750			
0.7315	46814.55	3.6980	3.6980	1.2262	6.09	0.11	0.750			
0.7349	47035.94	3.6950	3.6951	1.1720	6.09	0.11	0.750			
0.7384	47255.81	3.6920	3.6920	1.1284	6.08	0.10	0.750			
0.7417	47465.96	3.6890	3.6890	1.0964	6.07	0.09	0.750			
0.7449	47671.13	3.6860	3.6859	1.0689	6.06	0.08	0.750			
0.7481	47875.39	3.6830	3.6833	1.0534	6.05	0.07	0.750			
0.7512	48076.68	3.6800	3.6800	1.0270	6.05	0.07	0.750			
0.7543	48274.81	3.6770	3.6770	1.0078	6.04	0.06	0.750			
0.7572	48461.54	3.6740	3.6740	0.9896	6.04	0.06	0.750			
0.7602	48649.71	3.6710	3.6710	0.9770	6.03	0.05	0.750			
0.7630	48834.84	3.6680	3.6678	0.9566	6.03	0.05	0.750			
0.7659	49018.67	3.6650	3.6651	0.9327	6.02	0.04	0.750			
0.7687	49195.53	3.6620	3.6621	0.9225	6.02	0.04	0.750			
0.7714	49370.19	3.6590	3.6590	0.9182	6.02	0.04	0.750			
0.7741	49543.40	3.6560	3.6559	0.9069	6.01	0.03	0.750			
0.7768	49715.65	3.6530	3.6531	0.8989	6.01	0.03	0.750			
0.7795	49887.74	3.6500	3.6500	0.9051	6.00	0.02	0.750			
0.7822	50062.29	3.6470	3.6471	0.9131	6.00	0.02	0.750			
0.7850	50239.00	3.6440	3.6440	0.9229	5.99	0.01	0.750			
0.7877	50415.58	3.6410	3.6408	0.9225	5.99	0.01	0.750			
0.7905	50593.65	3.6380	3.6380	0.9217	5.99	0.01	0.750			
0.7934	50774.74	3.6350	3.6350	0.9184	5.99	0.01	0.750			
0.7962	50956.47	3.6320	3.6320	0.8839	5.98	0.00	0.750			
0.7989	51127.70	3.6290	3.6289	0.8338	5.98	0.00	0.750			
0.8014	51288.48	3.6260	3.6261	0.7551	5.98	-0.00	0.750			
0.8036	51431.10	3.6230	3.6231	0.6695	5.98	-0.00	0.750			
0.8055	51550.96	3.6200	3.6201	0.5718	5.98	-0.00	0.750			
0.8070	51649.45	3.6170	3.6170	0.4716	5.97	-0.01	0.750			
0.8081	51719.10	3.6140	3.6143	0.3822	5.97	-0.01	0.750			
0.8091	51784.97	3.6110	3.6110	0.3103	5.97	-0.01	0.750			
0.8099	51834.23	3.6080	3.6081	0.2348	5.97	-0.01	0.750			
0.8105	51872.67	3.6050	3.6044	0.1762	5.97	-0.01	0.750			
0.8109	51897.16	3.6020	3.5999	0.1173	5.97	-0.01	0.750			
0.8111	51908.23	3.5900	3.5773	-0.0569	5.97	-0.01	0.750			
0.8111	51912.71	3.5990	3.5371	0.0663	5.97	-0.01	0.755			
0.8112	51914.73	3.5960	3.5190	0.0230	5.97	-0.01	0.757			
0.8112	51915.32	3.5930	3.5137	-0.0169	5.97	-0.01	0.758			
