Ah_balance (normalized)	Ah_balance (mAh)	Voltage - fit (V)	Voltage -  interpolate (V)	dQ/dV (1/V)	Temperature (°C)	Temperature - diff (°C)	Current (C)	R_DC 0ms (mOhm)	R_DC 50ms (mOhm)	R_DC 50 ms PEC (mOhm)
0.0000	0.00	4.1030	4.1263	0.0000	5.98	-0.01	-0.750			
0.0002	11.52	4.1000	4.0985	-0.0300	5.98	-0.01	-0.750			
0.0003	21.87	4.0970	4.0961	-0.0631	5.98	-0.01	-0.750			
0.0006	36.81	4.0940	4.0936	-0.0925	5.98	-0.01	-0.750			
0.0009	58.26	4.0910	4.0908	-0.1194	5.98	-0.01	-0.750			
0.0013	84.52	4.0880	4.0880	-0.1438	5.98	-0.01	-0.750			
0.0018	114.85	4.0850	4.0850	-0.1679	5.98	-0.01	-0.750			
0.0023	149.52	4.0820	4.0823	-0.1927	5.98	-0.01	-0.750			
0.0030	190.98	4.0790	4.0790	-0.2160	5.98	-0.01	-0.750			
0.0037	234.90	4.0760	4.0760	-0.2355	5.98	-0.01	-0.750			
0.0044	281.50	4.0730	4.0730	-0.2571	5.98	-0.01	-0.750			
0.0052	333.17	4.0700	4.0701	-0.2774	5.99	-0.00	-0.750			
0.0061	388.61	4.0670	4.0670	-0.2970	5.99	-0.00	-0.750			
0.0070	446.76	4.0640	4.0639	-0.3217	5.99	-0.00	-0.750			
0.0080	510.20	4.0610	4.0611	-0.3452	5.99	-0.00	-0.750			
0.0090	578.56	4.0580	4.0579	-0.3707	5.99	-0.00	-0.750			
0.0102	652.26	4.0550	4.0550	-0.3952	5.99	-0.00	-0.750			
0.0114	730.63	4.0520	4.0521	-0.4177	5.99	-0.00	-0.750			
0.0127	813.92	4.0490	4.0490	-0.4408	5.99	0.00	-0.750			
0.0141	901.24	4.0460	4.0459	-0.4630	5.99	0.00	-0.750			
0.0155	991.78	4.0430	4.0430	-0.4785	5.99	0.00	-0.750			
0.0170	1085.80	4.0400	4.0399	-0.4980	5.99	0.00	-0.750			
0.0185	1183.29	4.0370	4.0371	-0.5184	6.00	0.01	-0.750			
0.0201	1285.67	4.0340	4.0339	-0.5328	6.00	0.01	-0.750			
0.0217	1390.17	4.0310	4.0309	-0.5491	6.00	0.01	-0.750			
0.0234	1497.57	4.0280	4.0280	-0.5595	6.00	0.01	-0.750			
0.0251	1605.48	4.0250	4.0251	-0.5740	6.00	0.01	-0.750			
0.0268	1716.65	4.0220	4.0220	-0.5904	6.00	0.01	-0.750			
0.0286	1830.52	4.0190	4.0190	-0.6024	6.01	0.02	-0.750			
0.0304	1948.46	4.0160	4.0159	-0.6128	6.01	0.02	-0.750			
0.0324	2070.69	4.0130	4.0129	-0.6244	6.01	0.02	-0.750			
0.0342	2189.37	4.0100	4.0102	-0.6355	6.02	0.03	-0.750			
0.0361	2312.66	4.0070	4.0071	-0.6491	6.02	0.03	-0.750			
0.0381	2437.71	4.0040	4.0038	-0.6554	6.03	0.04	-0.750			
0.0401	2563.91	4.0010	4.0010	-0.6619	6.03	0.04	-0.750			
0.0421	2692.91	3.9980	3.9981	-0.6740	6.04	0.05	-0.750			
0.0441	2824.81	3.9950	3.9951	-0.6841	6.04	0.05	-0.750			
0.0462	2958.87	3.9920	3.9918	-0.6872	6.05	0.06	-0.750			
0.0483	3088.47	3.9890	3.9890	-0.6891	6.06	0.07	-0.750			
0.0503	3219.87	3.9860	3.9861	-0.6971	6.06	0.07	-0.750			
0.0524	3354.89	3.9830	3.9829	-0.7083	6.07	0.08	-0.750			
0.0546	3494.23	3.9800	3.9799	-0.7103	6.07	0.08	-0.750			
0.0567	3631.10	3.9770	3.9771	-0.7102	6.08	0.09	-0.750			
0.0589	3768.57	3.9740	3.9740	-0.7173	6.08	0.09	-0.750			
0.0610	3906.33	3.9710	3.9711	-0.7215	6.09	0.10	-0.750			
0.0632	4042.68	3.9680	3.9678	-0.7143	6.10	0.11	-0.750			
0.0653	4178.89	3.9650	3.9649	-0.7203	6.10	0.11	-0.750			
0.0675	4318.81	3.9620	3.9622	-0.7245	6.11	0.12	-0.750			
0.0697	4459.36	3.9590	3.9590	-0.7338	6.12	0.13	-0.750			
0.0719	4602.47	3.9560	3.9559	-0.7356	6.12	0.13	-0.750			
0.0741	4743.08	3.9530	3.9530	-0.7372	6.13	0.14	-0.750			
0.0763	4884.43	3.9500	3.9500	-0.7382	6.14	0.15	-0.750			
0.0785	5026.39	3.9470	3.9470	-0.7501	6.14	0.15	-0.750			
0.0808	5170.45	3.9440	3.9440	-0.7461	6.15	0.16	-0.750			
0.0830	5314.83	3.9410	3.9409	-0.7542	6.16	0.17	-0.750			
0.0853	5459.26	3.9380	3.9380	-0.7508	6.17	0.18	-0.750			
0.0876	5605.36	3.9350	3.9348	-0.7570	6.17	0.18	-0.750			
0.0899	5750.69	3.9320	3.9320	-0.7513	6.18	0.19	-0.750			
0.0921	5894.16	3.9290	3.9289	-0.7498	6.19	0.20	-0.750			
0.0943	6036.69	3.9260	3.9261	-0.7436	6.20	0.21	-0.750			
0.0966	6182.04	3.9230	3.9230	-0.7449	6.21	0.22	-0.750			
0.0988	6322.05	3.9200	3.9200	-0.7435	6.22	0.23	-0.750			
0.1010	6465.15	3.9170	3.9171	-0.7521	6.23	0.24	-0.750			
0.1032	6607.44	3.9140	3.9139	-0.7583	6.24	0.25	-0.750			
0.1056	6756.08	3.9110	3.9109	-0.7646	6.25	0.26	-0.750			
0.1079	6904.19	3.9080	3.9081	-0.7688	6.26	0.27	-0.750			
0.1102	7055.20	3.9050	3.9049	-0.7724	6.27	0.28	-0.750			
0.1126	7203.55	3.9020	3.9021	-0.7697	6.27	0.28	-0.750			
0.1148	7347.83	3.8990	3.8990	-0.7702	6.28	0.29	-0.750			
0.1171	7495.32	3.8960	3.8961	-0.7746	6.28	0.29	-0.750			
0.1195	7644.95	3.8930	3.8929	-0.7724	6.29	0.30	-0.750			
0.1218	7794.01	3.8900	3.8900	-0.7781	6.29	0.30	-0.750			
0.1242	7945.65	3.8870	3.8872	-0.7777	6.30	0.31	-0.750			
0.1265	8094.98	3.8840	3.8840	-0.7781	6.31	0.32	-0.750			
0.1288	8243.55	3.8810	3.8809	-0.7816	6.32	0.33	-0.750			
0.1311	8392.64	3.8780	3.8780	-0.7845	6.33	0.34	-0.750			
0.1335	8543.47	3.8750	3.8749	-0.7890	6.34	0.35	-0.750			
0.1359	8697.10	3.8720	3.8719	-0.7917	6.35	0.36	-0.750			
0.1383	8849.55	3.8690	3.8690	-0.7919	6.36	0.37	-0.750			
0.1407	9001.92	3.8660	3.8661	-0.7974	6.36	0.37	-0.750			
0.1431	9156.21	3.8630	3.8629	-0.7885	6.37	0.38	-0.750			
0.1454	9306.44	3.8600	3.8600	-0.7846	6.38	0.39	-0.750			
0.1478	9456.27	3.8570	3.8571	-0.7822	6.39	0.40	-0.750			
0.1501	9605.65	3.8540	3.8540	-0.7837	6.39	0.40	-0.750			
0.1524	9755.51	3.8510	3.8509	-0.7896	6.40	0.41	-0.750			
0.1548	9906.76	3.8480	3.8478	-0.7905	6.41	0.42	-0.750			
0.1572	10058.61	3.8450	3.8451	-0.7941	6.42	0.43	-0.750			
0.1596	10214.12	3.8420	3.8421	-0.8036	6.43	0.44	-0.750			
0.1620	10368.62	3.8390	3.8390	-0.8067	6.44	0.45	-0.750			
0.1644	10524.78	3.8360	3.8360	-0.8072	6.45	0.46	-0.750			
0.1669	10678.68	3.8330	3.8330	-0.8115	6.46	0.47	-0.750			
0.1693	10834.99	3.8300	3.8300	-0.8138	6.47	0.48	-0.750			
0.1718	10993.16	3.8270	3.8269	-0.8178	6.48	0.49	-0.750			
0.1742	11150.17	3.8240	3.8242	-0.8136	6.49	0.50	-0.750			
0.1767	11306.53	3.8210	3.8209	-0.8121	6.50	0.51	-0.750			
0.1791	11461.81	3.8180	3.8181	-0.8155	6.51	0.52	-0.750			
0.1815	11618.53	3.8150	3.8150	-0.8128	6.51	0.52	-0.750			
0.1840	11774.16	3.8120	3.8119	-0.8177	6.52	0.53	-0.750			
0.1864	11930.96	3.8090	3.8092	-0.8176	6.53	0.54	-0.750			
0.1889	12089.37	3.8060	3.8059	-0.8159	6.54	0.55	-0.750			
0.1914	12246.71	3.8030	3.8029	-0.8141	6.55	0.56	-0.750			
0.1938	12402.76	3.8000	3.8001	-0.8075	6.55	0.56	-0.750			
0.1962	12557.04	3.7970	3.7971	-0.8085	6.56	0.57	-0.750			
0.1986	12711.83	3.7940	3.7940	-0.8073	6.57	0.58	-0.750			
0.2010	12863.05	3.7910	3.7910	-0.8078	6.58	0.59	-0.750			
0.2034	13020.20	3.7880	3.7881	-0.8162	6.58	0.59	-0.750			
0.2059	13179.52	3.7850	3.7849	-0.8225	6.59	0.60	-0.750			
0.2084	13337.73	3.7820	3.7820	-0.8207	6.60	0.61	-0.750			
0.2109	13496.90	3.7790	3.7791	-0.8244	6.61	0.62	-0.750			
0.2133	13653.18	3.7760	3.7759	-0.8265	6.62	0.63	-0.750			
0.2158	13811.68	3.7730	3.7729	-0.8324	6.62	0.63	-0.750			
0.2183	13971.13	3.7700	3.7700	-0.8373	6.63	0.64	-0.750			
0.2208	14133.43	3.7670	3.7669	-0.8407	6.64	0.65	-0.750			
0.2234	14297.62	3.7640	3.7642	-0.8497	6.65	0.66	-0.750			
0.2260	14462.25	3.7610	3.7609	-0.8417	6.66	0.67	-0.750			
0.2285	14623.36	3.7580	3.7579	-0.8390	6.66	0.67	-0.750			
0.2310	14783.24	3.7550	3.7551	-0.8341	6.67	0.68	-0.750			
0.2334	14939.95	3.7520	3.7518	-0.8335	6.68	0.69	-0.750			
0.2360	15101.03	3.7490	3.7491	-0.8387	6.69	0.70	-0.750			
0.2385	15262.08	3.7460	3.7459	-0.8430	6.70	0.71	-0.750			
0.2410	15423.40	3.7430	3.7430	-0.8520	6.70	0.71	-0.750			
0.2436	15591.47	3.7400	3.7400	-0.8558	6.71	0.72	-0.750			
0.2462	15754.86	3.7370	3.7370	-0.8571	6.72	0.73	-0.750			
0.2488	15921.50	3.7340	3.7341	-0.8612	6.73	0.74	-0.750			
0.2513	16085.87	3.7310	3.7309	-0.8651	6.74	0.75	-0.750			
0.2540	16253.08	3.7280	3.7281	-0.8599	6.75	0.76	-0.750			
0.2565	16417.92	3.7250	3.7250	-0.8555	6.75	0.76	-0.750			
0.2591	16581.61	3.7220	3.7221	-0.8573	6.76	0.77	-0.750			
0.2616	16745.36	3.7190	3.7193	-0.8628	6.77	0.78	-0.750			
0.2642	16908.76	3.7160	3.7159	-0.8640	6.78	0.79	-0.750			
0.2668	17075.52	3.7130	3.7130	-0.8732	6.78	0.79	-0.750			
0.2694	17243.63	3.7100	3.7100	-0.8846	6.79	0.80	-0.750			
0.2721	17417.20	3.7070	3.7070	-0.9013	6.80	0.81	-0.750			
0.2749	17591.33	3.7040	3.7039	-0.9032	6.80	0.81	-0.750			
0.2776	17765.89	3.7010	3.7009	-0.9071	6.81	0.82	-0.750			
0.2803	17940.51	3.6980	3.6981	-0.9090	6.82	0.83	-0.750			
0.2830	18113.12	3.6950	3.6950	-0.9098	6.83	0.84	-0.750			
0.2858	18290.73	3.6920	3.6921	-0.9230	6.84	0.85	-0.750			
0.2885	18464.58	3.6890	3.6889	-0.9278	6.84	0.85	-0.750			
0.2913	18646.07	3.6860	3.6859	-0.9333	6.85	0.86	-0.750			
0.2942	18828.71	3.6830	3.6830	-0.9391	6.86	0.87	-0.750			
0.2970	19008.62	3.6800	3.6801	-0.9390	6.87	0.88	-0.750			
0.2999	19191.10	3.6770	3.6771	-0.9442	6.87	0.88	-0.750			
0.3027	19371.76	3.6740	3.6738	-0.9438	6.88	0.89	-0.750			
0.3055	19549.12	3.6710	3.6710	-0.9448	6.88	0.89	-0.750			
0.3083	19729.27	3.6680	3.6680	-0.9585	6.88	0.89	-0.750			
0.3112	19915.70	3.6650	3.6650	-0.9739	6.89	0.90	-0.750			
0.3142	20106.15	3.6620	3.6619	-0.9847	6.90	0.91	-0.750			
0.3171	20297.02	3.6590	3.6591	-0.9888	6.90	0.91	-0.750			
0.3201	20489.36	3.6560	3.6560	-0.9900	6.91	0.92	-0.750			
0.3231	20679.52	3.6530	3.6529	-0.9962	6.92	0.93	-0.750			
0.3261	20868.95	3.6500	3.6500	-1.0038	6.92	0.93	-0.750			
0.3291	21061.36	3.6470	3.6470	-1.0114	6.93	0.94	-0.750			
0.3321	21256.95	3.6440	3.6438	-1.0208	6.93	0.94	-0.750			
0.3352	21453.71	3.6410	3.6411	-1.0294	6.94	0.95	-0.750			
0.3384	21655.58	3.6380	3.6380	-1.0403	6.94	0.95	-0.750			
0.3415	21856.53	3.6350	3.6350	-1.0393	6.95	0.96	-0.750			
0.3446	22054.47	3.6320	3.6320	-1.0400	6.95	0.96	-0.750			
0.3477	22252.29	3.6290	3.6290	-1.0513	6.96	0.97	-0.750			
0.3508	22454.38	3.6260	3.6260	-1.0715	6.96	0.97	-0.750			
0.3541	22662.01	3.6230	3.6229	-1.0889	6.97	0.98	-0.750			
0.3574	22876.58	3.6200	3.6198	-1.0914	6.97	0.98	-0.750			
0.3608	23088.33	3.6170	3.6172	-1.0981	6.98	0.99	-0.750			
0.3641	23299.61	3.6140	3.6141	-1.1070	6.98	0.99	-0.750			
0.3673	23509.79	3.6110	3.6109	-1.1137	6.98	0.99	-0.750			
0.3707	23722.68	3.6080	3.6079	-1.1255	6.99	1.00	-0.750			
0.3740	23935.87	3.6050	3.6051	-1.1367	6.99	1.00	-0.750			
0.3775	24161.40	3.6020	3.6019	-1.1523	7.00	1.01	-0.750			
0.3811	24387.55	3.5990	3.5990	-1.1613	7.00	1.01	-0.750			
0.3846	24611.79	3.5960	3.5960	-1.1570	7.01	1.02	-0.750			
0.3880	24834.26	3.5930	3.5929	-1.1605	7.01	1.02	-0.750	0.422	0.899	
0.3915	25056.76	3.5900	3.5899	-1.1540	7.02	1.03	-0.750			
0.3949	25274.00	3.5870	3.5869	-1.1603	7.02	1.03	-0.750			
0.3984	25495.04	3.5840	3.5843	-1.1798	7.03	1.04	-0.750			
0.4019	25723.16	3.5810	3.5808	-1.2040	7.03	1.04	-0.750			
0.4056	25958.01	3.5780	3.5780	-1.2306	7.04	1.05	-0.750			
0.4094	26198.95	3.5750	3.5750	-1.2411	7.05	1.06	-0.750			
0.4131	26438.99	3.5720	3.5721	-1.2512	7.05	1.06	-0.750			
0.4170	26686.41	3.5690	3.5690	-1.2640	7.05	1.06	-0.750			
0.4207	26927.06	3.5660	3.5659	-1.2623	7.06	1.07	-0.750			
0.4245	27166.00	3.5630	3.5632	-1.2674	7.06	1.07	-0.750			
0.4283	27410.97	3.5600	3.5599	-1.2781	7.06	1.07	-0.750			
0.4322	27658.41	3.5570	3.5570	-1.2841	7.07	1.08	-0.750			
0.4360	27906.97	3.5540	3.5541	-1.2988	7.07	1.08	-0.750			
0.4399	28154.84	3.5510	3.5510	-1.3127	7.08	1.09	-0.750			
0.4439	28410.25	3.5480	3.5478	-1.3153	7.08	1.09	-0.750			
0.4478	28661.38	3.5450	3.5450	-1.3254	7.09	1.10	-0.750			
0.4518	28916.86	3.5420	3.5420	-1.3321	7.09	1.10	-0.750			
0.4559	29178.13	3.5390	3.5390	-1.3354	7.10	1.11	-0.750			
0.4599	29432.96	3.5360	3.5359	-1.3475	7.10	1.11	-0.750			
0.4639	29689.43	3.5330	3.5330	-1.3484	7.10	1.11	-0.750			
0.4679	29947.78	3.5300	3.5299	-1.3552	7.11	1.12	-0.750			
0.4721	30212.93	3.5270	3.5269	-1.3591	7.11	1.12	-0.750			
0.4761	30471.26	3.5240	3.5240	-1.3583	7.12	1.13	-0.750			
0.4802	30734.82	3.5210	3.5211	-1.3623	7.13	1.14	-0.750			
0.4843	30996.32	3.5180	3.5179	-1.3748	7.13	1.14	-0.750			
0.4884	31257.36	3.5150	3.5149	-1.3648	7.14	1.15	-0.750			
0.4926	31523.72	3.5120	3.5121	-1.3716	7.14	1.15	-0.750			
0.4967	31788.22	3.5090	3.5090	-1.3679	7.15	1.16	-0.750			
0.5008	32050.71	3.5060	3.5059	-1.3693	7.15	1.16	-0.750			
0.5049	32313.33	3.5030	3.5030	-1.3656	7.16	1.17	-0.750			
0.5089	32571.67	3.5000	3.4998	-1.3693	7.17	1.18	-0.750			
0.5130	32834.35	3.4970	3.4971	-1.3677	7.17	1.18	-0.750			
0.5172	33100.97	3.4940	3.4939	-1.3707	7.18	1.19	-0.750			
0.5213	33363.61	3.4910	3.4909	-1.3759	7.19	1.20	-0.750			
0.5254	33628.19	3.4880	3.4880	-1.3652	7.19	1.20	-0.750			
0.5296	33892.32	3.4850	3.4850	-1.3552	7.20	1.21	-0.750			
0.5336	34152.09	3.4820	3.4820	-1.3558	7.21	1.22	-0.750			
0.5377	34411.49	3.4790	3.4792	-1.3311	7.22	1.23	-0.750			
0.5417	34667.88	3.4760	3.4759	-1.3275	7.23	1.24	-0.750			
0.5456	34919.16	3.4730	3.4730	-1.3162	7.24	1.25	-0.750			
0.5495	35167.11	3.4700	3.4702	-1.3094	7.25	1.26	-0.750			
0.5534	35419.36	3.4670	3.4668	-1.3192	7.26	1.27	-0.750			
0.5574	35676.51	3.4640	3.4640	-1.3236	7.26	1.27	-0.750			
0.5614	35928.74	3.4610	3.4613	-1.3202	7.27	1.28	-0.750			
0.5654	36188.32	3.4580	3.4579	-1.3305	7.28	1.29	-0.750			
0.5694	36443.17	3.4550	3.4550	-1.3115	7.30	1.31	-0.750			
0.5733	36691.87	3.4520	3.4519	-1.2995	7.31	1.32	-0.750			
0.5773	36945.53	3.4490	3.4490	-1.2796	7.32	1.33	-0.750			
0.5810	37184.85	3.4460	3.4461	-1.2570	7.33	1.34	-0.750			
0.5848	37424.97	3.4430	3.4430	-1.2415	7.34	1.35	-0.750			
0.5884	37660.09	3.4400	3.4399	-1.2278	7.36	1.37	-0.750			
0.5921	37893.36	3.4370	3.4369	-1.2131	7.37	1.38	-0.750			
0.5957	38125.91	3.4340	3.4340	-1.2037	7.38	1.39	-0.750			
0.5993	38357.49	3.4310	3.4312	-1.1964	7.39	1.40	-0.750			
0.6030	38590.93	3.4280	3.4279	-1.1822	7.41	1.42	-0.750			
0.6065	38815.56	3.4250	3.4249	-1.1540	7.42	1.43	-0.750			
0.6100	39036.88	3.4220	3.4221	-1.1282	7.43	1.44	-0.750			
0.6133	39249.81	3.4190	3.4188	-1.1165	7.45	1.46	-0.750			
0.6165	39458.89	3.4160	3.4159	-1.0976	7.46	1.47	-0.750			
0.6198	39664.56	3.4130	3.4129	-1.0775	7.47	1.48	-0.750			
0.6230	39870.61	3.4100	3.4100	-1.0644	7.49	1.50	-0.750			
0.6262	40079.51	3.4070	3.4070	-1.0604	7.50	1.51	-0.750			
0.6294	40282.10	3.4040	3.4041	-1.0373	7.52	1.53	-0.750			
0.6325	40480.33	3.4010	3.4010	-1.0182	7.53	1.54	-0.750			
0.6355	40671.07	3.3980	3.3980	-0.9887	7.55	1.56	-0.750			
0.6384	40856.11	3.3950	3.3951	-0.9711	7.56	1.57	-0.750			
0.6413	41043.66	3.3920	3.3919	-0.9512	7.57	1.58	-0.750			
0.6442	41226.19	3.3890	3.3890	-0.9311	7.59	1.60	-0.750			
0.6469	41401.22	3.3860	3.3860	-0.9076	7.60	1.61	-0.750			
0.6496	41575.39	3.3830	3.3831	-0.8870	7.61	1.62	-0.750			
0.6522	41741.78	3.3800	3.3800	-0.8635	7.63	1.64	-0.750			
0.6548	41905.77	3.3770	3.3770	-0.8362	7.64	1.65	-0.750			
0.6572	42062.50	3.3740	3.3741	-0.8073	7.66	1.67	-0.750			
0.6596	42216.85	3.3710	3.3709	-0.7954	7.67	1.68	-0.750			
0.6620	42365.75	3.3680	3.3681	-0.7752	7.68	1.69	-0.750			
0.6642	42511.31	3.3650	3.3649	-0.7598	7.70	1.71	-0.750			
0.6665	42656.15	3.3620	3.3620	-0.7473	7.71	1.72	-0.750			
0.6687	42799.02	3.3590	3.3590	-0.7291	7.72	1.73	-0.750			
0.6709	42939.29	3.3560	3.3560	-0.7198	7.73	1.74	-0.750			
0.6731	43076.05	3.3530	3.3529	-0.6959	7.75	1.76	-0.750			
0.6751	43206.33	3.3500	3.3499	-0.6763	7.76	1.77	-0.750			
0.6771	43335.09	3.3470	3.3470	-0.6606	7.77	1.78	-0.750			
0.6791	43459.40	3.3440	3.3439	-0.6420	7.78	1.79	-0.750			
0.6809	43580.61	3.3410	3.3410	-0.6287	7.79	1.80	-0.750			
0.6828	43701.52	3.3380	3.3380	-0.6144	7.81	1.82	-0.750			
0.6847	43817.70	3.3350	3.3349	-0.5955	7.82	1.83	-0.750			
0.6864	43930.93	3.3320	3.3322	-0.5849	7.83	1.84	-0.750			
0.6881	44040.21	3.3290	3.3291	-0.5680	7.84	1.85	-0.750			
0.6898	44148.03	3.3260	3.3259	-0.5551	7.85	1.86	-0.750			
0.6914	44252.57	3.3230	3.3229	-0.5430	7.87	1.88	-0.750			
0.6930	44354.56	3.3200	3.3202	-0.5357	7.88	1.89	-0.750			
0.6946	44457.46	3.3170	3.3169	-0.5278	7.89	1.90	-0.750			
0.6962	44559.21	3.3140	3.3140	-0.5180	7.90	1.91	-0.750			
0.6978	44656.69	3.3110	3.3110	-0.5077	7.91	1.92	-0.750			
0.6993	44753.62	3.3080	3.3081	-0.5004	7.92	1.93	-0.750			
0.7008	44849.56	3.3050	3.3049	-0.4900	7.94	1.95	-0.750			
0.7022	44941.66	3.3020	3.3020	-0.4753	7.95	1.96	-0.750			
0.7036	45031.63	3.2990	3.2990	-0.4627	7.97	1.98	-0.750			
0.7050	45120.47	3.2960	3.2961	-0.4534	7.98	1.99	-0.750			
0.7063	45205.36	3.2930	3.2928	-0.4453	7.99	2.00	-0.750			
0.7076	45289.01	3.2900	3.2900	-0.4325	8.00	2.01	-0.750			
0.7089	45371.51	3.2870	3.2871	-0.4228	8.02	2.03	-0.750			
0.7102	45452.22	3.2840	3.2841	-0.4159	8.03	2.04	-0.750			
0.7114	45531.07	3.2810	3.2813	-0.4083	8.03	2.04	-0.750			
0.7126	45607.96	3.2780	3.2779	-0.3993	8.04	2.05	-0.750			
0.7138	45683.33	3.2750	3.2750	-0.3923	8.06	2.07	-0.750			
0.7150	45757.23	3.2720	3.2720	-0.3851	8.07	2.08	-0.750			
0.7161	45832.47	3.2690	3.2690	-0.3818	8.08	2.09	-0.750			
0.7173	45904.69	3.2660	3.2660	-0.3754	8.09	2.10	-0.750			
0.7184	45975.68	3.2630	3.2630	-0.3680	8.10	2.11	-0.750			
0.7195	46045.81	3.2600	3.2600	-0.3624	8.12	2.13	-0.750			
0.7205	46114.57	3.2570	3.2569	-0.3573	8.13	2.14	-0.750			
0.7216	46182.73	3.2540	3.2541	-0.3507	8.14	2.15	-0.750			
0.7226	46249.22	3.2510	3.2510	-0.3474	8.15	2.16	-0.750			
0.7237	46315.97	3.2480	3.2480	-0.3427	8.16	2.17	-0.750			
0.7247	46381.65	3.2450	3.2449	-0.3367	8.17	2.18	-0.750			
0.7257	46445.30	3.2420	3.2420	-0.3303	8.18	2.19	-0.750			
0.7267	46508.27	3.2390	3.2391	-0.3264	8.19	2.20	-0.750			
0.7277	46570.33	3.2360	3.2360	-0.3216	8.20	2.21	-0.750			
0.7286	46631.77	3.2330	3.2329	-0.3173	8.21	2.22	-0.750			
0.7296	46691.65	3.2300	3.2301	-0.3116	8.22	2.23	-0.750			
0.7305	46751.94	3.2270	3.2270	-0.3082	8.23	2.24	-0.750			
0.7314	46810.65	3.2240	3.2240	-0.3028	8.24	2.25	-0.750			
0.7323	46868.38	3.2210	3.2210	-0.2962	8.25	2.26	-0.750			
0.7332	46924.36	3.2180	3.2181	-0.2903	8.25	2.26	-0.750			
0.7341	46979.61	3.2150	3.2149	-0.2865	8.26	2.27	-0.750			
0.7349	47033.81	3.2120	3.2121	-0.2832	8.27	2.28	-0.750			
0.7357	47087.39	3.2090	3.2091	-0.2801	8.28	2.29	-0.750			
0.7366	47141.14	3.2060	3.2061	-0.2772	8.29	2.30	-0.750			
0.7374	47194.52	3.2030	3.2030	-0.2742	8.30	2.31	-0.750			
0.7382	47247.03	3.2000	3.2000	-0.2715	8.31	2.32	-0.750			
0.7390	47298.64	3.1970	3.1970	-0.2672	8.32	2.33	-0.750			
0.7398	47349.77	3.1940	3.1940	-0.2632	8.33	2.34	-0.750			
0.7406	47399.65	3.1910	3.1910	-0.2587	8.34	2.35	-0.750			
0.7414	47448.86	3.1880	3.1881	-0.2545	8.35	2.36	-0.750			
0.7421	47497.29	3.1850	3.1849	-0.2519	8.36	2.37	-0.750			
0.7429	47545.08	3.1820	3.1820	-0.2492	8.37	2.38	-0.750			
0.7436	47592.52	3.1790	3.1789	-0.2461	8.38	2.39	-0.750			
0.7444	47639.47	3.1760	3.1760	-0.2438	8.39	2.40	-0.750			
0.7451	47686.17	3.1730	3.1730	-0.2420	8.40	2.41	-0.750			
0.7458	47732.70	3.1700	3.1700	-0.2395	8.41	2.42	-0.750			
0.7465	47778.36	3.1670	3.1670	-0.2377	8.42	2.43	-0.750			
0.7472	47824.00	3.1640	3.1640	-0.2348	8.43	2.44	-0.750			
0.7479	47868.31	3.1610	3.1610	-0.2326	8.44	2.45	-0.750			
0.7486	47912.75	3.1580	3.1580	-0.2309	8.45	2.46	-0.750			
0.7493	47956.96	3.1550	3.1550	-0.2297	8.46	2.47	-0.750			
0.7500	48000.91	3.1520	3.1519	-0.2273	8.46	2.47	-0.750			
0.7507	48044.55	3.1490	3.1490	-0.2249	8.47	2.48	-0.750			
0.7514	48087.78	3.1460	3.1461	-0.2227	8.48	2.49	-0.750			
0.7520	48130.36	3.1430	3.1430	-0.2190	8.49	2.50	-0.750			
0.7527	48172.41	3.1400	3.1400	-0.2171	8.50	2.51	-0.750			
0.7533	48213.36	3.1370	3.1371	-0.2133	8.51	2.52	-0.750			
0.7540	48254.05	3.1340	3.1339	-0.2106	8.52	2.53	-0.750			
0.7546	48293.94	3.1310	3.1310	-0.2085	8.52	2.53	-0.750			
0.7552	48333.70	3.1280	3.1281	-0.2068	8.53	2.54	-0.750			
0.7558	48373.09	3.1250	3.1250	-0.2055	8.54	2.55	-0.750			
0.7564	48412.52	3.1220	3.1220	-0.2040	8.55	2.56	-0.750			
0.7571	48451.67	3.1190	3.1190	-0.2027	8.56	2.57	-0.750			
0.7577	48490.34	3.1160	3.1159	-0.2006	8.56	2.57	-0.750			
0.7583	48529.21	3.1130	3.1130	-0.1985	8.57	2.58	-0.750			
0.7589	48566.92	3.1100	3.1099	-0.1959	8.58	2.59	-0.750			
0.7594	48604.16	3.1070	3.1071	-0.1936	8.59	2.60	-0.750			
0.7600	48641.10	3.1040	3.1041	-0.1912	8.59	2.60	-0.750			
0.7606	48677.14	3.1010	3.1009	-0.1898	8.60	2.61	-0.750			
0.7611	48713.20	3.0980	3.0980	-0.1888	8.61	2.62	-0.750			
0.7617	48749.50	3.0950	3.0949	-0.1883	8.62	2.63	-0.750			
0.7623	48785.49	3.0920	3.0921	-0.1878	8.62	2.63	-0.750			
0.7628	48821.75	3.0890	3.0890	-0.1876	8.63	2.64	-0.750			
0.7634	48857.82	3.0860	3.0860	-0.1864	8.64	2.65	-0.750			
0.7640	48894.09	3.0830	3.0830	-0.1848	8.65	2.66	-0.750			
0.7645	48929.32	3.0800	3.0799	-0.1822	8.66	2.67	-0.750			
0.7651	48963.99	3.0770	3.0771	-0.1809	8.67	2.68	-0.750			
0.7656	48998.52	3.0740	3.0741	-0.1789	8.68	2.69	-0.750			
0.7661	49032.39	3.0710	3.0709	-0.1773	8.69	2.70	-0.750			
0.7667	49066.30	3.0680	3.0679	-0.1760	8.70	2.71	-0.750			
0.7672	49099.63	3.0650	3.0651	-0.1748	8.71	2.72	-0.750			
0.7677	49132.98	3.0620	3.0620	-0.1746	8.72	2.73	-0.750			
0.7682	49167.07	3.0590	3.0590	-0.1744	8.73	2.74	-0.750			
0.7688	49200.43	3.0560	3.0560	-0.1731	8.74	2.75	-0.750			
0.7693	49233.34	3.0530	3.0530	-0.1716	8.75	2.76	-0.750			
0.7698	49266.46	3.0500	3.0501	-0.1710	8.75	2.76	-0.750			
0.7703	49299.13	3.0470	3.0470	-0.1694	8.76	2.77	-0.750			
0.7708	49331.44	3.0440	3.0440	-0.1686	8.77	2.78	-0.750			
0.7713	49363.50	3.0410	3.0410	-0.1679	8.78	2.79	-0.750			
0.7718	49395.61	3.0380	3.0379	-0.1663	8.79	2.80	-0.750			
0.7723	49427.85	3.0350	3.0350	-0.1663	8.79	2.80	-0.750			
0.7728	49459.67	3.0320	3.0320	-0.1648	8.80	2.81	-0.750			
0.7733	49491.19	3.0290	3.0291	-0.1634	8.81	2.82	-0.750			
0.7738	49522.23	3.0260	3.0259	-0.1626	8.82	2.83	-0.750			
0.7743	49553.36	3.0230	3.0230	-0.1617	8.83	2.84	-0.750			
0.7748	49584.13	3.0200	3.0200	-0.1606	8.83	2.84	-0.750			
0.7752	49614.88	3.0170	3.0170	-0.1592	8.84	2.85	-0.750			
0.7757	49645.63	3.0140	3.0140	-0.1586	8.85	2.86	-0.750			
0.7762	49675.95	3.0110	3.0110	-0.1572	8.86	2.87	-0.750			
0.7767	49706.19	3.0080	3.0080	-0.1556	8.86	2.87	-0.750			
0.7771	49736.05	3.0050	3.0050	-0.1529	8.87	2.88	-0.750			
0.7776	49765.15	3.0020	3.0020	-0.1526	8.88	2.89	-0.750			
