Ah_balance (normalized)	Ah_balance (mAh)	Voltage - fit (V)	Voltage -  interpolate (V)	dQ/dV (1/V)	Temperature (°C)	Temperature - diff (°C)	Current (C)	R_DC 0ms (mOhm)	R_DC 50ms (mOhm)	R_DC 50 ms PEC (mOhm)
0.0002	14.52	4.1100	4.1091	-0.0461	5.98	0.00	-0.750			
0.0005	29.00	4.1070	4.1065	-0.0852	5.98	0.00	-0.750			
0.0008	49.20	4.1040	4.1036	-0.1129	5.98	0.00	-0.750			
0.0011	73.30	4.1010	4.1010	-0.1381	5.98	0.00	-0.750			
0.0016	102.27	4.0980	4.0981	-0.1630	5.98	0.00	-0.750			
0.0021	136.17	4.0950	4.0951	-0.1860	5.98	0.00	-0.750			
0.0027	175.47	4.0920	4.0919	-0.2099	5.98	0.00	-0.750			
0.0034	217.43	4.0890	4.0890	-0.2332	5.98	0.00	-0.750			
0.0041	263.84	4.0860	4.0861	-0.2557	5.98	0.00	-0.750			
0.0049	315.59	4.0830	4.0829	-0.2786	5.98	0.00	-0.750			
0.0058	371.85	4.0800	4.0800	-0.3002	5.98	0.00	-0.750			
0.0068	432.26	4.0770	4.0770	-0.3188	5.98	0.00	-0.750			
0.0077	495.30	4.0740	4.0740	-0.3387	5.98	0.00	-0.750			
0.0088	561.67	4.0710	4.0710	-0.3596	5.98	0.00	-0.750			
0.0099	631.42	4.0680	4.0680	-0.3825	5.98	0.00	-0.750			
0.0110	706.28	4.0650	4.0649	-0.4050	5.98	0.00	-0.750			
0.0123	787.06	4.0620	4.0620	-0.4279	5.98	0.00	-0.750			
0.0136	872.27	4.0590	4.0590	-0.4538	5.98	0.00	-0.750			
0.0150	961.07	4.0560	4.0562	-0.4810	5.98	0.00	-0.750			
0.0165	1056.73	4.0530	4.0530	-0.5005	5.98	0.00	-0.750			
0.0181	1155.35	4.0500	4.0498	-0.5203	5.98	0.00	-0.750			
0.0196	1257.30	4.0470	4.0470	-0.5374	5.98	0.00	-0.750			
0.0213	1363.55	4.0440	4.0440	-0.5541	5.98	0.00	-0.750			
0.0230	1472.72	4.0410	4.0410	-0.5706	5.98	0.00	-0.750			
0.0247	1582.61	4.0380	4.0380	-0.5792	5.99	0.01	-0.750			
0.0264	1691.58	4.0350	4.0351	-0.5983	5.99	0.01	-0.750			
0.0283	1811.09	4.0320	4.0319	-0.6163	5.99	0.01	-0.750			
0.0302	1931.09	4.0290	4.0289	-0.6301	6.00	0.02	-0.750			
0.0321	2054.33	4.0260	4.0259	-0.6412	6.00	0.02	-0.750			
0.0341	2181.27	4.0230	4.0231	-0.6502	6.00	0.02	-0.750			
0.0360	2306.25	4.0200	4.0199	-0.6529	6.00	0.02	-0.750			
0.0380	2430.51	4.0170	4.0171	-0.6595	6.00	0.02	-0.750			
0.0399	2555.81	4.0140	4.0140	-0.6678	6.01	0.03	-0.750			
0.0420	2688.82	4.0110	4.0107	-0.6771	6.01	0.03	-0.750			
0.0441	2820.20	4.0080	4.0080	-0.6828	6.01	0.03	-0.750			
0.0461	2951.86	4.0050	4.0053	-0.6892	6.01	0.03	-0.750			
0.0482	3086.43	4.0020	4.0020	-0.6997	6.02	0.04	-0.750			
0.0503	3219.96	3.9990	3.9988	-0.7037	6.02	0.04	-0.750			
0.0524	3350.86	3.9960	3.9960	-0.7049	6.03	0.05	-0.750			
0.0545	3490.47	3.9930	3.9931	-0.7231	6.03	0.05	-0.750			
0.0568	3633.89	3.9900	3.9898	-0.7315	6.04	0.06	-0.750			
0.0590	3773.55	3.9870	3.9871	-0.7303	6.04	0.06	-0.750			
0.0611	3913.45	3.9840	3.9841	-0.7327	6.05	0.07	-0.750			
0.0634	4054.44	3.9810	3.9811	-0.7357	6.05	0.07	-0.750			
0.0656	4195.37	3.9780	3.9778	-0.7386	6.06	0.08	-0.750			
0.0678	4337.28	3.9750	3.9750	-0.7419	6.06	0.08	-0.750			
0.0700	4479.37	3.9720	3.9720	-0.7501	6.07	0.09	-0.750			
0.0723	4626.30	3.9690	3.9689	-0.7516	6.07	0.09	-0.750			
0.0746	4772.00	3.9660	3.9659	-0.7511	6.08	0.10	-0.750			
0.0768	4916.47	3.9630	3.9630	-0.7506	6.08	0.10	-0.750			
0.0791	5060.01	3.9600	3.9601	-0.7473	6.09	0.11	-0.750			
0.0813	5203.23	3.9570	3.9569	-0.7478	6.10	0.12	-0.750			
0.0835	5345.62	3.9540	3.9541	-0.7531	6.10	0.12	-0.750			
0.0858	5488.26	3.9510	3.9509	-0.7529	6.11	0.13	-0.750			
0.0881	5635.52	3.9480	3.9480	-0.7614	6.12	0.14	-0.750			
0.0904	5782.54	3.9450	3.9450	-0.7656	6.12	0.14	-0.750			
0.0927	5931.83	3.9420	3.9421	-0.7705	6.13	0.15	-0.750			
0.0950	6080.00	3.9390	3.9391	-0.7703	6.14	0.16	-0.750			
0.0973	6227.04	3.9360	3.9360	-0.7706	6.14	0.16	-0.750			
0.0996	6373.95	3.9330	3.9330	-0.7770	6.15	0.17	-0.750			
0.1019	6524.45	3.9300	3.9299	-0.7742	6.16	0.18	-0.750			
0.1043	6672.33	3.9270	3.9271	-0.7746	6.16	0.18	-0.750			
0.1066	6820.95	3.9240	3.9240	-0.7805	6.17	0.19	-0.750			
0.1089	6972.14	3.9210	3.9208	-0.7814	6.17	0.19	-0.750			
0.1113	7121.50	3.9180	3.9180	-0.7823	6.18	0.20	-0.750			
0.1136	7272.29	3.9150	3.9151	-0.7806	6.19	0.21	-0.750			
0.1160	7423.03	3.9120	3.9120	-0.7789	6.20	0.22	-0.750			
0.1184	7575.18	3.9090	3.9089	-0.7802	6.20	0.22	-0.750			
0.1206	7720.29	3.9060	3.9062	-0.7760	6.21	0.23	-0.750			
0.1229	7868.38	3.9030	3.9029	-0.7778	6.22	0.24	-0.750			
0.1253	8018.23	3.9000	3.9000	-0.7916	6.23	0.25	-0.750			
0.1277	8170.84	3.8970	3.8970	-0.7978	6.24	0.26	-0.750			
0.1301	8326.95	3.8940	3.8939	-0.8056	6.25	0.27	-0.750			
0.1326	8483.36	3.8910	3.8912	-0.8043	6.26	0.28	-0.750			
0.1350	8639.01	3.8880	3.8880	-0.8052	6.26	0.28	-0.750			
0.1374	8791.92	3.8850	3.8849	-0.8011	6.27	0.29	-0.750			
0.1397	8943.59	3.8820	3.8821	-0.8018	6.28	0.30	-0.750			
0.1421	9095.49	3.8790	3.8791	-0.8069	6.28	0.30	-0.750			
0.1446	9252.93	3.8760	3.8759	-0.8143	6.29	0.31	-0.750			
0.1470	9410.01	3.8730	3.8730	-0.8215	6.30	0.32	-0.750			
0.1495	9568.45	3.8700	3.8700	-0.8322	6.31	0.33	-0.750			
0.1520	9729.89	3.8670	3.8669	-0.8306	6.32	0.34	-0.750			
0.1546	9892.11	3.8640	3.8640	-0.8264	6.33	0.35	-0.750			
0.1570	10050.39	3.8610	3.8611	-0.8250	6.34	0.36	-0.750			
0.1595	10210.07	3.8580	3.8579	-0.8140	6.34	0.36	-0.750			
0.1620	10364.93	3.8550	3.8549	-0.8140	6.35	0.37	-0.750			
0.1643	10518.18	3.8520	3.8521	-0.8069	6.36	0.38	-0.750			
0.1667	10671.23	3.8490	3.8489	-0.8102	6.37	0.39	-0.750			
0.1692	10827.07	3.8460	3.8460	-0.8189	6.38	0.40	-0.750			
0.1716	10984.64	3.8430	3.8431	-0.8252	6.38	0.40	-0.750			
0.1741	11143.04	3.8400	3.8399	-0.8259	6.39	0.41	-0.750			
0.1766	11305.11	3.8370	3.8370	-0.8359	6.40	0.42	-0.750			
0.1791	11464.47	3.8340	3.8341	-0.8339	6.41	0.43	-0.750			
0.1817	11625.81	3.8310	3.8309	-0.8385	6.42	0.44	-0.750			
0.1842	11785.91	3.8280	3.8280	-0.8380	6.42	0.44	-0.750			
0.1867	11946.81	3.8250	3.8251	-0.8446	6.43	0.45	-0.750			
0.1892	12109.74	3.8220	3.8220	-0.8503	6.44	0.46	-0.750			
0.1918	12273.80	3.8190	3.8189	-0.8512	6.45	0.47	-0.750			
0.1944	12438.96	3.8160	3.8161	-0.8488	6.46	0.48	-0.750			
0.1969	12602.70	3.8130	3.8130	-0.8500	6.47	0.49	-0.750			
0.1994	12764.60	3.8100	3.8101	-0.8483	6.48	0.50	-0.750			
0.2020	12927.33	3.8070	3.8069	-0.8451	6.49	0.51	-0.750			
0.2045	13088.65	3.8040	3.8040	-0.8440	6.50	0.52	-0.750			
0.2071	13251.46	3.8010	3.8009	-0.8442	6.51	0.53	-0.750			
0.2096	13414.96	3.7980	3.7981	-0.8445	6.52	0.54	-0.750			
0.2121	13575.93	3.7950	3.7950	-0.8551	6.53	0.55	-0.750			
0.2147	13738.75	3.7920	3.7921	-0.8561	6.54	0.56	-0.750			
0.2173	13904.33	3.7890	3.7888	-0.8538	6.55	0.57	-0.750			
0.2199	14070.82	3.7860	3.7859	-0.8535	6.56	0.58	-0.750			
0.2224	14235.05	3.7830	3.7831	-0.8565	6.57	0.59	-0.750			
0.2250	14398.67	3.7800	3.7799	-0.8631	6.57	0.59	-0.750			
0.2276	14564.74	3.7770	3.7769	-0.8613	6.58	0.60	-0.750			
0.2301	14727.30	3.7740	3.7740	-0.8600	6.59	0.61	-0.750			
0.2327	14895.99	3.7710	3.7711	-0.8723	6.60	0.62	-0.750			
0.2354	15066.45	3.7680	3.7680	-0.8652	6.61	0.63	-0.750			
0.2380	15233.65	3.7650	3.7650	-0.8671	6.62	0.64	-0.750			
0.2405	15395.01	3.7620	3.7621	-0.8683	6.62	0.64	-0.750			
0.2431	15559.39	3.7590	3.7589	-0.8744	6.63	0.65	-0.750			
0.2458	15728.11	3.7560	3.7561	-0.8899	6.64	0.66	-0.750			
0.2484	15898.99	3.7530	3.7530	-0.9016	6.65	0.67	-0.750			
0.2512	16077.18	3.7500	3.7500	-0.9030	6.66	0.68	-0.750			
0.2540	16255.02	3.7470	3.7470	-0.8999	6.67	0.69	-0.750			
0.2567	16427.33	3.7440	3.7442	-0.8987	6.68	0.70	-0.750			
0.2593	16597.20	3.7410	3.7408	-0.8891	6.68	0.70	-0.750			
0.2620	16764.85	3.7380	3.7380	-0.8860	6.69	0.71	-0.750			
0.2646	16934.37	3.7350	3.7349	-0.8867	6.70	0.72	-0.750			
0.2673	17105.31	3.7320	3.7321	-0.8882	6.71	0.73	-0.750			
0.2700	17278.90	3.7290	3.7290	-0.8899	6.72	0.74	-0.750			
0.2726	17447.87	3.7260	3.7260	-0.8959	6.73	0.75	-0.750			
0.2753	17619.36	3.7230	3.7229	-0.8918	6.74	0.76	-0.750			
0.2780	17789.24	3.7200	3.7200	-0.8914	6.74	0.76	-0.750			
0.2806	17959.57	3.7170	3.7170	-0.8967	6.75	0.77	-0.750			
0.2833	18132.96	3.7140	3.7143	-0.9085	6.76	0.78	-0.750			
0.2861	18308.06	3.7110	3.7109	-0.9236	6.77	0.79	-0.750			
0.2888	18486.02	3.7080	3.7080	-0.9347	6.78	0.80	-0.750			
0.2917	18667.67	3.7050	3.7050	-0.9387	6.79	0.81	-0.750			
0.2946	18852.31	3.7020	3.7020	-0.9517	6.80	0.82	-0.750			
0.2974	19034.55	3.6990	3.6989	-0.9543	6.80	0.82	-0.750			
0.3003	19216.45	3.6960	3.6961	-0.9535	6.81	0.83	-0.750			
0.3031	19399.31	3.6930	3.6929	-0.9529	6.82	0.84	-0.750			
0.3059	19579.53	3.6900	3.6899	-0.9582	6.82	0.84	-0.750			
0.3088	19765.62	3.6870	3.6871	-0.9703	6.83	0.85	-0.750			
0.3118	19953.13	3.6840	3.6841	-0.9869	6.84	0.86	-0.750			
0.3148	20146.80	3.6810	3.6809	-0.9916	6.85	0.87	-0.750			
0.3178	20337.64	3.6780	3.6781	-0.9938	6.85	0.87	-0.750			
0.3208	20530.84	3.6750	3.6752	-1.0032	6.86	0.88	-0.750			
0.3238	20722.99	3.6720	3.6719	-1.0072	6.87	0.89	-0.750			
0.3268	20916.67	3.6690	3.6689	-1.0062	6.88	0.90	-0.750			
0.3298	21110.16	3.6660	3.6660	-1.0088	6.89	0.91	-0.750			
0.3329	21303.18	3.6630	3.6632	-1.0207	6.90	0.92	-0.750			
0.3360	21501.02	3.6600	3.6599	-1.0297	6.91	0.93	-0.750			
0.3390	21696.23	3.6570	3.6569	-1.0367	6.91	0.93	-0.750			
0.3421	21896.46	3.6540	3.6539	-1.0403	6.92	0.94	-0.750			
0.3453	22100.55	3.6510	3.6511	-1.0512	6.93	0.95	-0.750			
0.3485	22301.18	3.6480	3.6481	-1.0644	6.94	0.96	-0.750			
0.3517	22505.90	3.6450	3.6449	-1.0723	6.94	0.96	-0.750			
0.3548	22710.40	3.6420	3.6419	-1.0845	6.95	0.97	-0.750			
0.3581	22916.85	3.6390	3.6393	-1.1103	6.96	0.98	-0.750			
0.3615	23135.28	3.6360	3.6359	-1.1269	6.97	0.99	-0.750			
0.3649	23356.08	3.6330	3.6329	-1.1465	6.97	0.99	-0.750			
0.3685	23581.23	3.6300	3.6300	-1.1485	6.98	1.00	-0.750			
0.3719	23803.46	3.6270	3.6272	-1.1662	6.98	1.00	-0.750			
0.3755	24028.90	3.6240	3.6238	-1.1625	6.99	1.01	-0.750			
0.3789	24249.51	3.6210	3.6209	-1.1529	6.99	1.01	-0.750			
0.3823	24466.95	3.6180	3.6181	-1.1541	7.00	1.02	-0.750			
0.3858	24690.72	3.6150	3.6150	-1.1817	7.01	1.03	-0.750			
0.3893	24917.04	3.6120	3.6118	-1.1965	7.01	1.03	-0.750			
0.3930	25148.98	3.6090	3.6089	-1.2216	7.02	1.04	-0.750			
0.3966	25385.31	3.6060	3.6061	-1.2310	7.03	1.05	-0.750			
0.4005	25632.87	3.6030	3.6030	-1.2505	7.04	1.06	-0.750	0.418	0.978	
0.4043	25874.40	3.6000	3.6000	-1.2517	7.04	1.06	-0.750			
0.4079	26108.51	3.5970	3.5973	-1.2642	7.05	1.07	-0.750			
0.4118	26354.68	3.5940	3.5939	-1.2887	7.06	1.08	-0.750			
0.4157	26602.39	3.5910	3.5908	-1.2978	7.06	1.08	-0.750			
0.4196	26854.55	3.5880	3.5882	-1.3120	7.07	1.09	-0.750			
0.4237	27115.95	3.5850	3.5849	-1.3305	7.07	1.09	-0.750			
0.4277	27369.70	3.5820	3.5819	-1.3329	7.08	1.10	-0.750			
0.4316	27622.04	3.5790	3.5791	-1.3334	7.09	1.11	-0.750			
0.4355	27873.96	3.5760	3.5760	-1.3404	7.09	1.11	-0.750			
0.4396	28134.08	3.5730	3.5729	-1.3623	7.10	1.12	-0.750			
0.4437	28399.77	3.5700	3.5699	-1.3829	7.10	1.12	-0.750			
0.4479	28664.94	3.5670	3.5670	-1.4068	7.11	1.13	-0.750			
0.4522	28941.20	3.5640	3.5640	-1.4345	7.12	1.14	-0.750			
0.4565	29218.10	3.5610	3.5610	-1.4431	7.13	1.15	-0.750			
0.4609	29497.06	3.5580	3.5578	-1.4515	7.13	1.15	-0.750			
0.4653	29781.17	3.5550	3.5549	-1.4456	7.14	1.16	-0.750			
0.4697	30058.66	3.5520	3.5522	-1.4516	7.15	1.17	-0.750			
0.4740	30333.88	3.5490	3.5490	-1.4641	7.16	1.18	-0.750			
0.4783	30609.54	3.5460	3.5459	-1.4811	7.16	1.18	-0.750			
0.4828	30898.89	3.5430	3.5430	-1.5033	7.17	1.19	-0.750			
0.4874	31192.39	3.5400	3.5400	-1.5058	7.18	1.20	-0.750			
0.4920	31490.65	3.5370	3.5369	-1.5110	7.18	1.20	-0.750			
0.4965	31777.72	3.5340	3.5341	-1.5289	7.19	1.21	-0.750			
0.5010	32066.70	3.5310	3.5310	-1.5270	7.19	1.21	-0.750			
0.5056	32358.09	3.5280	3.5278	-1.5303	7.20	1.22	-0.750			
0.5102	32650.54	3.5250	3.5249	-1.5464	7.20	1.22	-0.750			
0.5149	32954.42	3.5220	3.5223	-1.5766	7.22	1.24	-0.750			
0.5197	33261.50	3.5190	3.5190	-1.5801	7.23	1.25	-0.750			
0.5245	33567.62	3.5160	3.5159	-1.5707	7.24	1.26	-0.750			
0.5292	33870.08	3.5130	3.5129	-1.5552	7.24	1.26	-0.750			
0.5338	34166.12	3.5100	3.5102	-1.5652	7.25	1.27	-0.750			
0.5385	34466.58	3.5070	3.5070	-1.5551	7.26	1.28	-0.750			
0.5432	34761.90	3.5040	3.5039	-1.5723	7.27	1.29	-0.750			
0.5479	35066.58	3.5010	3.5009	-1.5793	7.28	1.30	-0.750			
0.5527	35372.96	3.4980	3.4979	-1.5887	7.29	1.31	-0.750			
0.5575	35682.34	3.4950	3.4952	-1.5769	7.30	1.32	-0.750			
0.5622	35983.77	3.4920	3.4919	-1.5724	7.31	1.33	-0.750			
0.5670	36285.74	3.4890	3.4892	-1.5667	7.32	1.34	-0.750			
0.5716	36583.94	3.4860	3.4859	-1.5504	7.33	1.35	-0.750			
0.5762	36879.61	3.4830	3.4829	-1.5252	7.34	1.36	-0.750			
0.5809	37174.54	3.4800	3.4800	-1.5183	7.35	1.37	-0.750			
0.5854	37465.29	3.4770	3.4767	-1.5038	7.37	1.39	-0.750			
0.5898	37750.13	3.4740	3.4741	-1.4943	7.38	1.40	-0.750			
0.5942	38028.80	3.4710	3.4709	-1.4745	7.39	1.41	-0.750			
0.5987	38313.90	3.4680	3.4680	-1.4698	7.40	1.42	-0.750			
0.6031	38596.78	3.4650	3.4650	-1.4726	7.41	1.43	-0.750			
0.6076	38884.96	3.4620	3.4620	-1.4821	7.42	1.44	-0.750			
0.6121	39172.80	3.4590	3.4588	-1.4605	7.43	1.45	-0.750			
0.6165	39455.88	3.4560	3.4561	-1.4422	7.45	1.47	-0.750			
0.6208	39730.06	3.4530	3.4533	-1.4136	7.46	1.48	-0.750			
0.6250	39997.51	3.4500	3.4499	-1.3911	7.47	1.49	-0.750			
0.6291	40260.72	3.4470	3.4469	-1.3666	7.48	1.50	-0.750			
0.6331	40516.18	3.4440	3.4442	-1.3507	7.49	1.51	-0.750			
0.6372	40779.25	3.4410	3.4410	-1.3383	7.50	1.52	-0.750			
0.6412	41034.68	3.4380	3.4379	-1.3124	7.52	1.54	-0.750			
0.6451	41285.83	3.4350	3.4352	-1.2824	7.53	1.55	-0.750			
0.6489	41531.09	3.4320	3.4319	-1.2614	7.54	1.56	-0.750			
0.6526	41767.97	3.4290	3.4288	-1.2234	7.55	1.57	-0.750			
0.6562	41997.52	3.4260	3.4260	-1.1983	7.56	1.58	-0.750			
0.6598	42224.36	3.4230	3.4231	-1.1796	7.58	1.60	-0.750			
0.6633	42453.07	3.4200	3.4199	-1.1664	7.60	1.62	-0.750			
0.6668	42674.77	3.4170	3.4170	-1.1389	7.61	1.63	-0.750			
0.6702	42890.60	3.4140	3.4141	-1.1094	7.63	1.65	-0.750			
0.6735	43104.08	3.4110	3.4110	-1.0860	7.64	1.66	-0.750			
0.6767	43311.38	3.4080	3.4080	-1.0547	7.65	1.67	-0.750			
0.6798	43507.88	3.4050	3.4050	-1.0222	7.66	1.68	-0.750			
0.6828	43700.41	3.4020	3.4021	-0.9907	7.67	1.69	-0.750			
0.6857	43886.95	3.3990	3.3990	-0.9706	7.68	1.70	-0.750			
0.6886	44073.15	3.3960	3.3959	-0.9363	7.69	1.71	-0.750			
0.6914	44250.55	3.3930	3.3930	-0.9078	7.70	1.72	-0.750			
0.6941	44421.08	3.3900	3.3901	-0.8776	7.71	1.73	-0.750			
0.6967	44588.27	3.3870	3.3869	-0.8475	7.73	1.75	-0.750			
0.6992	44745.77	3.3840	3.3839	-0.8245	7.74	1.76	-0.750			
0.7016	44899.57	3.3810	3.3810	-0.7989	7.75	1.77	-0.750			
0.7039	45049.01	3.3780	3.3781	-0.7780	7.77	1.79	-0.750			
0.7062	45199.80	3.3750	3.3749	-0.7645	7.78	1.80	-0.750			
0.7085	45344.24	3.3720	3.3721	-0.7405	7.79	1.81	-0.750			
0.7107	45485.35	3.3690	3.3690	-0.7197	7.80	1.82	-0.750			
0.7128	45621.74	3.3660	3.3660	-0.7020	7.81	1.83	-0.750			
0.7149	45752.75	3.3630	3.3630	-0.6797	7.82	1.84	-0.750			
0.7169	45881.68	3.3600	3.3599	-0.6606	7.83	1.85	-0.750			
0.7188	46006.05	3.3570	3.3571	-0.6406	7.83	1.85	-0.750			
0.7208	46128.09	3.3540	3.3540	-0.6221	7.84	1.86	-0.750			
0.7226	46245.43	3.3510	3.3510	-0.6036	7.85	1.87	-0.750			
0.7244	46358.59	3.3480	3.3480	-0.5886	7.86	1.88	-0.750			
0.7261	46469.34	3.3450	3.3450	-0.5722	7.88	1.90	-0.750			
0.7278	46578.13	3.3420	3.3419	-0.5570	7.89	1.91	-0.750			
0.7294	46684.53	3.3390	3.3391	-0.5425	7.90	1.92	-0.750			
0.7311	46787.78	3.3360	3.3360	-0.5272	7.91	1.93	-0.750			
0.7326	46887.43	3.3330	3.3330	-0.5116	7.92	1.94	-0.750			
0.7341	46983.17	3.3300	3.3300	-0.4937	7.93	1.95	-0.750			
0.7356	47075.30	3.3270	3.3270	-0.4800	7.93	1.95	-0.750			
0.7370	47166.86	3.3240	3.3240	-0.4674	7.94	1.96	-0.750			
0.7384	47255.27	3.3210	3.3209	-0.4553	7.95	1.97	-0.750			
0.7397	47341.73	3.3180	3.3180	-0.4466	7.96	1.98	-0.750			
0.7410	47425.86	3.3150	3.3151	-0.4376	7.96	1.98	-0.750			
0.7423	47509.72	3.3120	3.3118	-0.4263	7.97	1.99	-0.750			
0.7436	47590.97	3.3090	3.3090	-0.4162	7.98	2.00	-0.750			
0.7448	47669.27	3.3060	3.3059	-0.4034	7.99	2.01	-0.750			
0.7460	47746.05	3.3030	3.3030	-0.3939	7.99	2.01	-0.750			
0.7472	47820.05	3.3000	3.3000	-0.3826	8.00	2.02	-0.750			
0.7483	47891.47	3.2970	3.2970	-0.3731	8.01	2.03	-0.750			
0.7494	47962.33	3.2940	3.2940	-0.3653	8.02	2.04	-0.750			
0.7505	48032.29	3.2910	3.2910	-0.3612	8.03	2.05	-0.750			
0.7516	48101.42	3.2880	3.2879	-0.3529	8.04	2.06	-0.750			
0.7526	48168.91	3.2850	3.2850	-0.3452	8.05	2.07	-0.750			
0.7537	48234.02	3.2820	3.2820	-0.3371	8.05	2.07	-0.750			
0.7547	48297.79	3.2790	3.2790	-0.3297	8.06	2.08	-0.750			
0.7556	48359.90	3.2760	3.2760	-0.3210	8.07	2.09	-0.750			
0.7566	48420.38	3.2730	3.2730	-0.3163	8.08	2.10	-0.750			
0.7575	48480.45	3.2700	3.2700	-0.3111	8.09	2.11	-0.750			
0.7584	48540.58	3.2670	3.2669	-0.3076	8.09	2.11	-0.750			
0.7594	48599.31	3.2640	3.2639	-0.3024	8.10	2.12	-0.750			
0.7603	48656.99	3.2610	3.2611	-0.2961	8.11	2.13	-0.750			
0.7612	48713.83	3.2580	3.2581	-0.2901	8.12	2.14	-0.750			
0.7620	48768.98	3.2550	3.2549	-0.2836	8.13	2.15	-0.750			
0.7628	48821.65	3.2520	3.2520	-0.2753	8.14	2.16	-0.750			
0.7637	48873.87	3.2490	3.2490	-0.2712	8.14	2.16	-0.750			
0.7645	48925.69	3.2460	3.2461	-0.2675	8.15	2.17	-0.750			
0.7653	48976.86	3.2430	3.2429	-0.2619	8.16	2.18	-0.750			
0.7660	49026.55	3.2400	3.2401	-0.2573	8.17	2.19	-0.750			
0.7668	49075.35	3.2370	3.2371	-0.2541	8.17	2.19	-0.750			
0.7676	49123.77	3.2340	3.2340	-0.2497	8.18	2.20	-0.750			
0.7683	49171.36	3.2310	3.2309	-0.2458	8.19	2.21	-0.750			
0.7690	49217.88	3.2280	3.2281	-0.2418	8.19	2.21	-0.750			
0.7698	49264.28	3.2250	3.2250	-0.2366	8.20	2.22	-0.750			
0.7705	49309.32	3.2220	3.2220	-0.2339	8.20	2.22	-0.750			
0.7712	49353.64	3.2190	3.2190	-0.2301	8.21	2.23	-0.750			
0.7718	49397.46	3.2160	3.2161	-0.2260	8.21	2.23	-0.750			
0.7725	49440.59	3.2130	3.2129	-0.2233	8.22	2.24	-0.750			
0.7732	49483.48	3.2100	3.2101	-0.2197	8.23	2.25	-0.750			
0.7738	49525.13	3.2070	3.2070	-0.2169	8.24	2.26	-0.750			
0.7745	49566.61	3.2040	3.2041	-0.2135	8.24	2.26	-0.750			
0.7751	49607.83	3.2010	3.2009	-0.2105	8.25	2.27	-0.750			
0.7757	49647.07	3.1980	3.1979	-0.2063	8.26	2.28	-0.750			
0.7764	49686.49	3.1950	3.1951	-0.2032	8.26	2.28	-0.750			
0.7770	49725.15	3.1920	3.1920	-0.2014	8.27	2.29	-0.750			
0.7776	49763.57	3.1890	3.1890	-0.1988	8.28	2.30	-0.750			
0.7781	49801.45	3.1860	3.1860	-0.1964	8.28	2.30	-0.750			
0.7787	49838.70	3.1830	3.1829	-0.1930	8.29	2.31	-0.750			
0.7793	49876.08	3.1800	3.1800	-0.1910	8.30	2.32	-0.750			
0.7799	49912.42	3.1770	3.1770	-0.1876	8.30	2.32	-0.750			
0.7804	49947.99	3.1740	3.1740	-0.1858	8.31	2.33	-0.750			
0.7810	49983.39	3.1710	3.1710	-0.1835	8.31	2.33	-0.750			
0.7815	50018.35	3.1680	3.1680	-0.1798	8.32	2.34	-0.750			
0.7821	50052.63	3.1650	3.1649	-0.1774	8.33	2.35	-0.750			
0.7826	50086.35	3.1620	3.1621	-0.1761	8.33	2.35	-0.750			
0.7831	50120.04	3.1590	3.1590	-0.1746	8.34	2.36	-0.750			
0.7836	50153.49	3.1560	3.1561	-0.1729	8.35	2.37	-0.750			
0.7842	50186.49	3.1530	3.1527	-0.1708	8.35	2.37	-0.750			
0.7847	50218.71	3.1500	3.1501	-0.1686	8.36	2.38	-0.750			
0.7852	50251.32	3.1470	3.1469	-0.1667	8.37	2.39	-0.750			
0.7857	50283.39	3.1440	3.1440	-0.1656	8.37	2.39	-0.750			
0.7862	50314.92	3.1410	3.1410	-0.1628	8.38	2.40	-0.750			
0.7866	50345.46	3.1380	3.1381	-0.1604	8.38	2.40	-0.750			
0.7871	50376.22	3.1350	3.1350	-0.1581	8.39	2.41	-0.750			
0.7876	50406.43	3.1320	3.1320	-0.1561	8.40	2.42	-0.750			
0.7881	50436.04	3.1290	3.1289	-0.1551	8.40	2.42	-0.750			
0.7885	50465.62	3.1260	3.1261	-0.1532	8.41	2.43	-0.750			
0.7890	50494.89	3.1230	3.1230	-0.1523	8.41	2.43	-0.750			
0.7894	50523.78	3.1200	3.1199	-0.1506	8.42	2.44	-0.750			
0.7899	50552.80	3.1170	3.1172	-0.1485	8.42	2.44	-0.750			
0.7903	50581.15	3.1140	3.1140	-0.1471	8.43	2.45	-0.750			
0.7908	50609.35	3.1110	3.1112	-0.1462	8.43	2.45	-0.750			
0.7912	50637.25	3.1080	3.1079	-0.1444	8.44	2.46	-0.750			
0.7916	50664.53	3.1050	3.1049	-0.1424	8.44	2.46	-0.750			
0.7921	50691.78	3.1020	3.1020	-0.1415	8.45	2.47	-0.750			
0.7925	50718.56	3.0990	3.0991	-0.1401	8.46	2.48	-0.750			
0.7929	50745.39	3.0960	3.0960	-0.1395	8.46	2.48	-0.750			
0.7933	50772.36	3.0930	3.0929	-0.1386	8.47	2.49	-0.750			
0.7937	50798.74	3.0900	3.0900	-0.1372	8.47	2.49	-0.750			
0.7941	50825.01	3.0870	3.0870	-0.1362	8.48	2.50	-0.750			
0.7945	50851.09	3.0840	3.0841	-0.1350	8.49	2.51	-0.750			
0.7950	50877.03	3.0810	3.0810	-0.1341	8.49	2.51	-0.750			
0.7954	50902.55	3.0780	3.0779	-0.1326	8.50	2.52	-0.750			
0.7957	50927.86	3.0750	3.0750	-0.1313	8.50	2.52	-0.750			
0.7961	50952.97	3.0720	3.0720	-0.1303	8.51	2.53	-0.750			
0.7965	50977.97	3.0690	3.0691	-0.1291	8.51	2.53	-0.750			
0.7969	51002.62	3.0660	3.0660	-0.1278	8.52	2.54	-0.750			
0.7973	51027.04	3.0630	3.0630	-0.1266	8.53	2.55	-0.750			
0.7977	51051.22	3.0600	3.0600	-0.1254	8.53	2.55	-0.750			
0.7980	51075.17	3.0570	3.0570	-0.1241	8.54	2.56	-0.750			
0.7984	51098.74	3.0540	3.0540	-0.1231	8.54	2.56	-0.750			
0.7988	51122.20	3.0510	3.0511	-0.1220	8.55	2.57	-0.750			
0.7991	51145.39	3.0480	3.0479	-0.1216	8.55	2.57	-0.750			
0.7995	51168.58	3.0450	3.0450	-0.1210	8.56	2.58	-0.750			
0.7999	51191.95	3.0420	3.0419	-0.1203	8.56	2.58	-0.750			
0.8002	51215.02	3.0390	3.0389	-0.1198	8.57	2.59	-0.750			
0.8006	51238.02	3.0360	3.0361	-0.1190	8.57	2.59	-0.750			
0.8010	51260.96	3.0330	3.0331	-0.1185	8.58	2.60	-0.750			
0.8013	51283.62	3.0300	3.0300	-0.1175	8.58	2.60	-0.750			
0.8017	51306.26	3.0270	3.0269	-0.1162	8.59	2.61	-0.750			
0.8020	51328.22	3.0240	3.0240	-0.1153	8.59	2.61	-0.750			
0.8023	51350.04	3.0210	3.0210	-0.1139	8.60	2.62	-0.750			
0.8027	51371.86	3.0180	3.0181	-0.1131	8.60	2.62	-0.750			
0.8030	51393.51	3.0150	3.0149	-0.1123	8.61	2.63	-0.750			
0.8034	51415.00	3.0120	3.0120	-0.1115	8.61	2.63	-0.750			
0.8037	51436.18	3.0090	3.0091	-0.1109	8.62	2.64	-0.750			
0.8040	51457.43	3.0060	3.0060	-0.1105	8.62	2.64	-0.750			
0.8044	51478.61	3.0030	3.0030	-0.1075	8.63	2.65	-0.750			
