Ah_balance (normalized)	Ah_balance (mAh)	Voltage - fit (V)	Voltage -  interpolate (V)	dQ/dV (1/V)	Temperature (°C)	Temperature - diff (°C)	Current (C)	R_DC 0ms (mOhm)	R_DC 50ms (mOhm)	R_DC 50 ms PEC (mOhm)
0.0970	6207.74	4.1990	4.1979	1.1391	8.19	2.19	0.750			
0.0994	6359.13	4.1960	4.1984	0.6479	8.18	2.18	0.750	0.391	0.795	
0.1014	6489.41	4.1930	4.1953	0.7127	8.18	2.18	0.750			
0.1037	6638.82	4.1900	4.1921	0.7574	8.17	2.17	0.750			
0.1061	6791.08	4.1870	4.1884	0.7920	8.17	2.17	0.750			
0.1084	6938.34	4.1840	4.1851	0.7509	8.16	2.16	0.750			
0.1110	7101.20	4.1810	4.1814	0.7797	8.16	2.16	0.750			
0.1133	7253.70	4.1780	4.1780	0.7041	8.15	2.15	0.750			
0.1155	7389.09	4.1750	4.1751	0.7108	8.14	2.14	0.750			
0.1176	7526.59	4.1720	4.1717	0.7148	8.14	2.14	0.750			
0.1198	7664.46	4.1690	4.1691	0.7183	8.13	2.13	0.750			
0.1219	7804.71	4.1660	4.1660	0.7142	8.13	2.13	0.750			
0.1241	7942.33	4.1630	4.1629	0.7160	8.12	2.12	0.750			
0.1262	8078.12	4.1600	4.1601	0.7094	8.12	2.12	0.750			
0.1283	8213.69	4.1570	4.1570	0.7120	8.11	2.11	0.750			
0.1305	8350.38	4.1540	4.1539	0.7140	8.11	2.11	0.750			
0.1326	8487.63	4.1510	4.1510	0.7197	8.10	2.10	0.750			
0.1348	8627.02	4.1480	4.1481	0.7193	8.09	2.09	0.750			
0.1369	8764.43	4.1450	4.1449	0.7364	8.09	2.09	0.750			
0.1392	8907.23	4.1420	4.1420	0.7380	8.08	2.08	0.750			
0.1414	9050.55	4.1390	4.1388	0.7396	8.07	2.07	0.750			
0.1436	9192.96	4.1360	4.1362	0.7405	8.07	2.07	0.750			
0.1459	9337.92	4.1330	4.1333	0.7386	8.06	2.06	0.750			
0.1481	9478.28	4.1300	4.1299	0.7363	8.06	2.06	0.750			
0.1503	9616.96	4.1270	4.1271	0.7255	8.05	2.05	0.750			
0.1525	9757.43	4.1240	4.1240	0.7316	8.05	2.05	0.750			
0.1546	9897.52	4.1210	4.1210	0.7405	8.04	2.04	0.750			
0.1569	10039.76	4.1180	4.1180	0.7461	8.03	2.03	0.750			
0.1591	10183.18	4.1150	4.1150	0.7533	8.03	2.03	0.750			
0.1614	10330.72	4.1120	4.1119	0.7610	8.02	2.02	0.750			
0.1637	10477.22	4.1090	4.1091	0.7632	8.01	2.01	0.750			
0.1660	10625.35	4.1060	4.1059	0.7678	8.00	2.00	0.750			
0.1683	10772.50	4.1030	4.1032	0.7694	8.00	2.00	0.750			
0.1706	10919.06	4.1000	4.0999	0.7685	7.99	1.99	0.750			
0.1729	11066.86	4.0970	4.0970	0.7678	7.98	1.98	0.750			
0.1752	11212.61	4.0940	4.0941	0.7741	7.97	1.97	0.750			
0.1775	11360.64	4.0910	4.0911	0.7867	7.96	1.96	0.750			
0.1799	11515.19	4.0880	4.0877	0.7906	7.95	1.95	0.750			
0.1823	11667.16	4.0850	4.0850	0.7943	7.94	1.94	0.750			
0.1847	11821.35	4.0820	4.0821	0.7937	7.93	1.93	0.750			
0.1871	11975.23	4.0790	4.0790	0.8000	7.93	1.93	0.750			
0.1895	12127.14	4.0760	4.0760	0.7992	7.92	1.92	0.750			
0.1919	12280.98	4.0730	4.0729	0.8005	7.91	1.91	0.750			
0.1943	12433.20	4.0700	4.0701	0.8038	7.91	1.91	0.750			
0.1967	12590.74	4.0670	4.0669	0.8104	7.90	1.90	0.750			
0.1992	12745.86	4.0640	4.0641	0.8140	7.89	1.89	0.750			
0.2016	12901.68	4.0610	4.0609	0.8160	7.89	1.89	0.750			
0.2040	13058.39	4.0580	4.0580	0.8205	7.88	1.88	0.750			
0.2065	13216.27	4.0550	4.0550	0.8262	7.87	1.87	0.750			
0.2090	13376.73	4.0520	4.0521	0.8336	7.87	1.87	0.750			
0.2115	13538.56	4.0490	4.0491	0.8384	7.86	1.86	0.750			
0.2141	13700.62	4.0460	4.0459	0.8408	7.85	1.85	0.750			
0.2166	13862.81	4.0430	4.0429	0.8420	7.84	1.84	0.750			
0.2191	14023.51	4.0400	4.0400	0.8423	7.83	1.83	0.750			
0.2217	14186.79	4.0370	4.0370	0.8338	7.83	1.83	0.750			
0.2242	14346.43	4.0340	4.0341	0.8424	7.82	1.82	0.750			
0.2267	14506.32	4.0310	4.0310	0.8470	7.81	1.81	0.750			
0.2292	14670.23	4.0280	4.0278	0.8539	7.80	1.80	0.750			
0.2318	14835.05	4.0250	4.0251	0.8575	7.79	1.79	0.750			
0.2344	15001.47	4.0220	4.0220	0.8575	7.79	1.79	0.750			
0.2370	15167.84	4.0190	4.0191	0.8631	7.78	1.78	0.750			
0.2395	15330.77	4.0160	4.0160	0.8674	7.77	1.77	0.750			
0.2422	15498.62	4.0130	4.0128	0.8717	7.76	1.76	0.750			
0.2448	15668.03	4.0100	4.0099	0.8666	7.75	1.75	0.750			
0.2474	15834.19	4.0070	4.0071	0.8735	7.74	1.74	0.750			
0.2500	16002.97	4.0040	4.0042	0.8812	7.73	1.73	0.750			
0.2527	16171.10	4.0010	4.0009	0.8905	7.72	1.72	0.750			
0.2553	16338.84	3.9980	3.9979	0.8972	7.71	1.71	0.750			
0.2580	16512.83	3.9950	3.9951	0.9060	7.70	1.70	0.750			
0.2608	16692.86	3.9920	3.9920	0.9197	7.69	1.69	0.750			
0.2636	16871.15	3.9890	3.9890	0.9220	7.68	1.68	0.750			
0.2664	17048.34	3.9860	3.9860	0.9175	7.67	1.67	0.750			
0.2691	17223.68	3.9830	3.9830	0.9119	7.66	1.66	0.750			
0.2718	17395.25	3.9800	3.9800	0.9150	7.65	1.65	0.750			
0.2746	17571.53	3.9770	3.9771	0.9204	7.64	1.64	0.750			
0.2773	17748.39	3.9740	3.9739	0.9317	7.63	1.63	0.750			
0.2801	17927.40	3.9710	3.9709	0.9404	7.62	1.62	0.750			
0.2829	18108.53	3.9680	3.9681	0.9532	7.61	1.61	0.750			
0.2858	18293.53	3.9650	3.9650	0.9648	7.60	1.60	0.750			
0.2888	18481.16	3.9620	3.9620	0.9707	7.58	1.58	0.750			
0.2917	18667.20	3.9590	3.9590	0.9717	7.57	1.57	0.750			
0.2947	18858.17	3.9560	3.9560	0.9707	7.56	1.56	0.750			
0.2975	19042.56	3.9530	3.9531	0.9718	7.55	1.55	0.750			
0.3004	19228.25	3.9500	3.9500	0.9723	7.54	1.54	0.750			
0.3033	19413.13	3.9470	3.9472	0.9728	7.53	1.53	0.750			
0.3063	19600.56	3.9440	3.9441	0.9850	7.52	1.52	0.750			
0.3092	19788.41	3.9410	3.9410	1.0018	7.51	1.51	0.750			
0.3122	19981.74	3.9380	3.9380	1.0200	7.49	1.49	0.750			
0.3153	20180.88	3.9350	3.9348	1.0292	7.48	1.48	0.750			
0.3185	20383.29	3.9320	3.9321	1.0400	7.46	1.46	0.750			
0.3216	20584.06	3.9290	3.9291	1.0571	7.45	1.45	0.750			
0.3248	20790.25	3.9260	3.9260	1.0565	7.44	1.44	0.750			
0.3280	20992.79	3.9230	3.9230	1.0557	7.43	1.43	0.750			
0.3312	21194.12	3.9200	3.9201	1.0566	7.41	1.41	0.750			
0.3343	21395.31	3.9170	3.9171	1.0681	7.40	1.40	0.750			
0.3375	21599.89	3.9140	3.9139	1.0905	7.39	1.39	0.750			
0.3408	21809.49	3.9110	3.9110	1.1081	7.38	1.38	0.750			
0.3441	22024.72	3.9080	3.9080	1.1083	7.36	1.36	0.750			
0.3476	22244.39	3.9050	3.9051	1.1350	7.35	1.35	0.750			
0.3510	22461.66	3.9020	3.9021	1.1460	7.34	1.34	0.750			
0.3544	22683.85	3.8990	3.8988	1.1473	7.32	1.32	0.750			
0.3578	22901.43	3.8960	3.8961	1.1522	7.31	1.31	0.750			
0.3613	23121.58	3.8930	3.8931	1.1686	7.29	1.29	0.750			
0.3649	23352.96	3.8900	3.8899	1.1772	7.27	1.27	0.750			
0.3684	23577.94	3.8870	3.8869	1.1934	7.26	1.26	0.750			
0.3720	23805.28	3.8840	3.8841	1.2086	7.24	1.24	0.750			
0.3756	24039.55	3.8810	3.8812	1.2239	7.23	1.23	0.750			
0.3794	24279.93	3.8780	3.8780	1.2354	7.21	1.21	0.750	0.364	0.817	
0.3831	24515.50	3.8750	3.8751	1.2634	7.19	1.19	0.750			
0.3868	24758.06	3.8720	3.8720	1.2863	7.18	1.18	0.750			
0.3908	25011.54	3.8690	3.8688	1.3086	7.16	1.16	0.750			
0.3947	25261.80	3.8660	3.8662	1.3389	7.14	1.14	0.750			
0.3988	25523.97	3.8630	3.8630	1.3678	7.12	1.12	0.750			
0.4030	25794.95	3.8600	3.8599	1.3774	7.11	1.11	0.750			
0.4072	26060.18	3.8570	3.8572	1.3982	7.09	1.09	0.750			
0.4113	26325.51	3.8540	3.8542	1.4098	7.07	1.07	0.750			
0.4156	26600.82	3.8510	3.8509	1.4147	7.06	1.06	0.750			
0.4199	26874.12	3.8480	3.8480	1.4249	7.04	1.04	0.750			
0.4241	27142.87	3.8450	3.8451	1.4392	7.02	1.02	0.750			
0.4284	27420.18	3.8420	3.8421	1.4661	7.00	1.00	0.750			
0.4329	27708.11	3.8390	3.8390	1.4940	6.98	0.98	0.750			
0.4374	27992.02	3.8360	3.8359	1.5057	6.96	0.96	0.750			
0.4420	28285.70	3.8330	3.8329	1.5400	6.94	0.94	0.750			
0.4467	28591.23	3.8300	3.8301	1.5528	6.92	0.92	0.750			
0.4514	28886.89	3.8270	3.8272	1.5734	6.90	0.90	0.750			
0.4561	29189.22	3.8240	3.8240	1.5886	6.87	0.87	0.750			
0.4609	29497.54	3.8210	3.8209	1.5990	6.86	0.86	0.750			
0.4657	29806.13	3.8180	3.8180	1.6128	6.84	0.84	0.750			
0.4705	30111.53	3.8150	3.8151	1.6469	6.81	0.81	0.750			
0.4755	30434.59	3.8120	3.8118	1.6680	6.79	0.79	0.750			
0.4806	30758.02	3.8090	3.8090	1.7022	6.77	0.77	0.750			
0.4857	31087.29	3.8060	3.8060	1.7087	6.74	0.74	0.750			
0.4910	31422.29	3.8030	3.8030	1.7267	6.72	0.72	0.750			
0.4962	31759.34	3.8000	3.7999	1.7391	6.69	0.69	0.750			
0.5014	32090.00	3.7970	3.7970	1.7517	6.67	0.67	0.750			
0.5066	32422.22	3.7940	3.7939	1.7566	6.65	0.65	0.750			
0.5119	32764.29	3.7910	3.7913	1.7849	6.63	0.63	0.750			
0.5172	33103.28	3.7880	3.7881	1.8182	6.60	0.60	0.750			
0.5227	33453.41	3.7850	3.7851	1.8717	6.58	0.58	0.750			
0.5284	33819.23	3.7820	3.7819	1.8911	6.56	0.56	0.750			
0.5343	34192.19	3.7790	3.7790	1.9641	6.53	0.53	0.750			
0.5402	34571.02	3.7760	3.7761	2.0092	6.51	0.51	0.750			
0.5464	34967.92	3.7730	3.7727	2.0737	6.48	0.48	0.750			
0.5526	35366.43	3.7700	3.7701	2.1205	6.46	0.46	0.750			
0.5590	35775.37	3.7670	3.7672	2.2296	6.43	0.43	0.750			
0.5660	36221.48	3.7640	3.7637	2.3276	6.40	0.40	0.750			
0.5730	36674.23	3.7610	3.7609	2.4022	6.38	0.38	0.750			
0.5804	37142.77	3.7580	3.7579	2.4571	6.35	0.35	0.750			
0.5878	37618.99	3.7550	3.7551	2.5512	6.32	0.32	0.750			
0.5953	38098.76	3.7520	3.7523	2.7918	6.30	0.30	0.750			
0.6042	38669.73	3.7490	3.7488	2.9301	6.27	0.27	0.750			
0.6134	39260.01	3.7460	3.7464	3.0633	6.24	0.24	0.750			
0.6229	39863.47	3.7430	3.7429	3.0844	6.21	0.21	0.750			
0.6321	40451.24	3.7400	3.7400	2.9537	6.18	0.18	0.750			
0.6411	41030.73	3.7370	3.7370	2.7980	6.16	0.16	0.750			
0.6491	41541.02	3.7340	3.7339	2.4755	6.14	0.14	0.750			
0.6558	41971.32	3.7310	3.7311	2.1245	6.12	0.12	0.750			
0.6615	42338.23	3.7280	3.7281	1.8752	6.11	0.11	0.750			
0.6667	42668.35	3.7250	3.7248	1.6510	6.10	0.10	0.750			
0.6711	42947.78	3.7220	3.7219	1.4632	6.09	0.09	0.750			
0.6750	43201.86	3.7190	3.7190	1.3325	6.08	0.08	0.750			
0.6788	43442.20	3.7160	3.7160	1.2352	6.07	0.07	0.750			
0.6823	43664.33	3.7130	3.7131	1.1708	6.06	0.06	0.750			
0.6856	43880.82	3.7100	3.7099	1.1327	6.06	0.06	0.750			
0.6889	44088.28	3.7070	3.7070	1.1019	6.05	0.05	0.750			
0.6922	44301.30	3.7040	3.7037	1.0876	6.04	0.04	0.750			
0.6954	44508.41	3.7010	3.7011	1.0572	6.03	0.03	0.750			
0.6986	44712.26	3.6980	3.6981	1.0353	6.03	0.03	0.750			
0.7017	44909.35	3.6950	3.6951	1.0106	6.02	0.02	0.750			
0.7047	45098.58	3.6920	3.6917	0.9815	6.02	0.02	0.750			
0.7075	45281.09	3.6890	3.6890	0.9528	6.02	0.02	0.750			
0.7103	45461.48	3.6860	3.6860	0.9411	6.01	0.01	0.750			
0.7132	45642.14	3.6830	3.6830	0.9292	6.01	0.01	0.750			
0.7159	45817.15	3.6800	3.6799	0.9146	6.00	0.00	0.750			
0.7186	45992.13	3.6770	3.6771	0.9075	6.00	-0.00	0.750			
0.7213	46166.19	3.6740	3.6740	0.8889	5.99	-0.01	0.750			
0.7240	46334.92	3.6710	3.6709	0.8831	5.99	-0.01	0.750			
0.7266	46501.49	3.6680	3.6682	0.8706	5.98	-0.02	0.750			
0.7292	46669.77	3.6650	3.6648	0.8668	5.98	-0.02	0.750			
0.7318	46835.36	3.6620	3.6619	0.8610	5.98	-0.02	0.750			
0.7344	47000.04	3.6590	3.6591	0.8500	5.98	-0.02	0.750			
0.7369	47163.90	3.6560	3.6560	0.8424	5.97	-0.03	0.750			
0.7395	47329.06	3.6530	3.6529	0.8241	5.97	-0.03	0.750			
0.7420	47485.09	3.6500	3.6499	0.7857	5.97	-0.03	0.750			
0.7443	47637.73	3.6470	3.6470	0.7370	5.98	-0.02	0.750			
0.7465	47777.00	3.6440	3.6442	0.6741	5.98	-0.02	0.750			
0.7485	47905.15	3.6410	3.6409	0.5967	5.99	-0.01	0.750			
0.7502	48012.25	3.6380	3.6380	0.5116	5.99	-0.01	0.750			
0.7516	48101.47	3.6350	3.6351	0.4202	5.99	-0.01	0.750			
0.7525	48163.00	3.6320	3.6325	0.3640	5.99	-0.01	0.750			
0.7535	48222.99	3.6290	3.6291	0.2892	6.00	-0.00	0.750			
0.7542	48269.78	3.6260	3.6256	0.2301	6.00	-0.00	0.750			
0.7547	48299.63	3.6230	3.6218	0.1663	6.00	-0.00	0.750			
0.7550	48322.75	3.5990	3.5993	-0.1161	6.00	0.00	0.750			
0.7551	48324.17	3.6200	3.5876	0.1232	6.00	0.00	0.750			
0.7553	48340.86	3.6170	3.3599	0.0846	6.00	0.00	0.757			
0.7553	48341.82	3.6020	3.3467	-0.0826	6.00	0.00	0.758			
0.7555	48353.90	3.6140	3.1813	0.0512	6.00	0.00	0.764			
0.7555	48354.48	3.6050	3.1733	-0.0492	6.00	0.00	0.764			
0.7556	48360.51	3.6110	3.0907	0.0177	6.00	0.00	0.767			
0.7556	48360.71	3.6080	3.0880	-0.0157	6.00	0.00	0.767			
