Ah_balance (normalized)	Ah_balance (mAh)	Voltage - fit (V)	Voltage -  interpolate (V)	dQ/dV (1/V)	Temperature (°C)	Temperature - diff (°C)	Current (C)	R_DC 0ms (mOhm)	R_DC 50ms (mOhm)	R_DC 50 ms PEC (mOhm)
0.0950	6079.88	4.1970	4.1993	0.6361	8.31	2.22	0.750			
0.0973	6224.59	4.1940	4.1962	0.7634	8.30	2.21	0.750			
0.0998	6386.76	4.1910	4.1925	0.8017	8.30	2.21	0.750			
0.1022	6541.10	4.1880	4.1889	0.8005	8.29	2.20	0.750			
0.1048	6709.23	4.1850	4.1852	0.7794	8.29	2.20	0.750			
0.1076	6888.35	4.1820	4.1816	0.8137	8.28	2.19	0.750			
0.1094	7000.80	4.1790	4.1790	0.7203	8.28	2.19	0.750			
0.1115	7138.13	4.1760	4.1758	0.7210	8.27	2.18	0.750			
0.1136	7272.26	4.1730	4.1731	0.7154	8.27	2.18	0.750			
0.1158	7410.11	4.1700	4.1697	0.7152	8.26	2.17	0.750			
0.1179	7548.50	4.1670	4.1671	0.7227	8.25	2.16	0.750			
0.1202	7690.43	4.1640	4.1640	0.7205	8.25	2.16	0.750			
0.1223	7828.39	4.1610	4.1611	0.7245	8.24	2.15	0.750			
0.1245	7966.53	4.1580	4.1579	0.7198	8.24	2.15	0.750			
0.1266	8104.22	4.1550	4.1552	0.7224	8.23	2.14	0.750			
0.1288	8241.39	4.1520	4.1519	0.7270	8.23	2.14	0.750			
0.1310	8382.79	4.1490	4.1491	0.7315	8.22	2.13	0.750			
0.1332	8524.39	4.1460	4.1459	0.7298	8.21	2.12	0.750			
0.1354	8665.32	4.1430	4.1431	0.7397	8.21	2.12	0.750			
0.1376	8805.81	4.1400	4.1402	0.7480	8.20	2.11	0.750			
0.1399	8950.95	4.1370	4.1368	0.7579	8.19	2.10	0.750			
0.1422	9098.89	4.1340	4.1340	0.7558	8.19	2.10	0.750			
0.1445	9245.08	4.1310	4.1310	0.7533	8.18	2.09	0.750			
0.1467	9390.07	4.1280	4.1282	0.7545	8.18	2.09	0.750			
0.1490	9535.41	4.1250	4.1251	0.7541	8.18	2.09	0.750			
0.1512	9676.78	4.1220	4.1219	0.7471	8.17	2.08	0.750			
0.1534	9819.02	4.1190	4.1186	0.7471	8.17	2.08	0.750			
0.1557	9962.19	4.1160	4.1163	0.7531	8.16	2.07	0.750			
0.1580	10108.84	4.1130	4.1129	0.7586	8.16	2.07	0.750			
0.1602	10255.04	4.1100	4.1100	0.7679	8.15	2.06	0.750			
0.1625	10402.09	4.1070	4.1070	0.7736	8.15	2.06	0.750			
0.1648	10549.15	4.1040	4.1040	0.7848	8.14	2.05	0.750			
0.1672	10703.25	4.1010	4.1009	0.7925	8.14	2.05	0.750			
0.1697	10859.74	4.0980	4.0980	0.7876	8.13	2.04	0.750			
0.1720	11009.55	4.0950	4.0951	0.7881	8.12	2.03	0.750			
0.1744	11160.62	4.0920	4.0921	0.7917	8.11	2.02	0.750			
0.1767	11309.29	4.0890	4.0890	0.7988	8.11	2.02	0.750			
0.1791	11461.50	4.0860	4.0858	0.7991	8.10	2.01	0.750			
0.1815	11617.35	4.0830	4.0830	0.7963	8.09	2.00	0.750			
0.1840	11774.25	4.0800	4.0801	0.8076	8.09	2.00	0.750			
0.1864	11929.69	4.0770	4.0772	0.8083	8.08	1.99	0.750			
0.1888	12084.07	4.0740	4.0739	0.8022	8.07	1.98	0.750			
0.1912	12234.75	4.0710	4.0709	0.8024	8.07	1.98	0.750			
0.1936	12388.91	4.0680	4.0680	0.8078	8.06	1.97	0.750			
0.1960	12547.05	4.0650	4.0651	0.8200	8.05	1.96	0.750			
0.1985	12705.87	4.0620	4.0618	0.8240	8.05	1.96	0.750			
0.2010	12864.04	4.0590	4.0590	0.8202	8.04	1.95	0.750			
0.2035	13023.08	4.0560	4.0560	0.8179	8.03	1.94	0.750			
0.2059	13180.55	4.0530	4.0530	0.8147	8.02	1.93	0.750			
0.2083	13333.39	4.0500	4.0500	0.8175	8.02	1.93	0.750			
0.2108	13491.16	4.0470	4.0472	0.8254	8.01	1.92	0.750			
0.2133	13649.31	4.0440	4.0439	0.8315	8.01	1.92	0.750			
0.2158	13811.25	4.0410	4.0410	0.8428	8.00	1.91	0.750			
0.2184	13975.06	4.0380	4.0381	0.8526	7.99	1.90	0.750			
0.2209	14138.00	4.0350	4.0349	0.8520	7.98	1.89	0.750			
0.2235	14302.88	4.0320	4.0322	0.8607	7.98	1.89	0.750			
0.2260	14465.75	4.0290	4.0290	0.8666	7.97	1.88	0.750			
0.2287	14634.49	4.0260	4.0259	0.8751	7.96	1.87	0.750			
0.2313	14806.22	4.0230	4.0230	0.8725	7.96	1.87	0.750			
0.2340	14973.49	4.0200	4.0200	0.8720	7.95	1.86	0.750			
0.2366	15142.18	4.0170	4.0171	0.8776	7.95	1.86	0.750			
0.2392	15310.91	4.0140	4.0141	0.8810	7.94	1.85	0.750			
0.2418	15475.08	4.0110	4.0109	0.8815	7.94	1.85	0.750			
0.2445	15645.14	4.0080	4.0080	0.8881	7.93	1.84	0.750			
0.2472	15818.63	4.0050	4.0051	0.8927	7.92	1.83	0.750			
0.2499	15991.10	4.0020	4.0019	0.8917	7.91	1.82	0.750			
0.2526	16163.91	3.9990	3.9991	0.8895	7.90	1.81	0.750			
0.2552	16332.40	3.9960	3.9962	0.8862	7.89	1.80	0.750			
0.2578	16501.48	3.9930	3.9928	0.8905	7.89	1.80	0.750			
0.2605	16668.87	3.9900	3.9902	0.8966	7.88	1.79	0.750			
0.2632	16844.26	3.9870	3.9870	0.9102	7.87	1.78	0.750			
0.2660	17023.60	3.9840	3.9838	0.9217	7.86	1.77	0.750			
0.2688	17202.84	3.9810	3.9810	0.9187	7.85	1.76	0.750			
0.2715	17376.64	3.9780	3.9782	0.9209	7.85	1.76	0.750			
0.2743	17554.96	3.9750	3.9751	0.9281	7.84	1.75	0.750			
0.2770	17729.68	3.9720	3.9719	0.9313	7.83	1.74	0.750			
0.2799	17911.80	3.9690	3.9690	0.9340	7.83	1.74	0.750			
0.2827	18092.69	3.9660	3.9661	0.9479	7.82	1.73	0.750			
0.2856	18275.46	3.9630	3.9629	0.9549	7.81	1.72	0.750			
0.2885	18461.91	3.9600	3.9601	0.9616	7.81	1.72	0.750			
0.2913	18644.03	3.9570	3.9570	0.9617	7.80	1.71	0.750			
0.2942	18829.09	3.9540	3.9540	0.9678	7.79	1.70	0.750			
0.2971	19015.93	3.9510	3.9510	0.9677	7.78	1.69	0.750			
0.3001	19205.20	3.9480	3.9480	0.9697	7.77	1.68	0.750			
0.3030	19390.14	3.9450	3.9451	0.9687	7.76	1.67	0.750			
0.3059	19576.90	3.9420	3.9420	0.9729	7.75	1.66	0.750			
0.3088	19762.94	3.9390	3.9389	0.9797	7.75	1.66	0.750			
0.3117	19949.07	3.9360	3.9361	0.9847	7.74	1.65	0.750			
0.3147	20137.70	3.9330	3.9330	1.0043	7.73	1.64	0.750			
0.3177	20334.76	3.9300	3.9299	1.0113	7.72	1.63	0.750			
0.3208	20530.81	3.9270	3.9270	1.0275	7.71	1.62	0.750			
0.3239	20727.75	3.9240	3.9241	1.0371	7.70	1.61	0.750			
0.3270	20927.38	3.9210	3.9212	1.0550	7.69	1.60	0.750			
0.3302	21131.41	3.9180	3.9181	1.0670	7.68	1.59	0.750			
0.3334	21336.96	3.9150	3.9149	1.0789	7.67	1.58	0.750			
0.3366	21545.42	3.9120	3.9121	1.0891	7.66	1.57	0.750			
0.3400	21759.59	3.9090	3.9090	1.1085	7.65	1.56	0.750			
0.3433	21972.17	3.9060	3.9060	1.1078	7.64	1.55	0.750			
0.3466	22185.02	3.9030	3.9030	1.1137	7.63	1.54	0.750			
0.3499	22394.25	3.9000	3.9001	1.1232	7.62	1.53	0.750			
0.3533	22612.64	3.8970	3.8968	1.1415	7.61	1.52	0.750			
0.3568	22832.48	3.8940	3.8940	1.1523	7.60	1.51	0.750			
0.3603	23056.66	3.8910	3.8910	1.1601	7.59	1.50	0.750			
0.3637	23279.79	3.8880	3.8882	1.1838	7.58	1.49	0.750			
0.3673	23509.06	3.8850	3.8850	1.1986	7.57	1.48	0.750			
0.3710	23740.83	3.8820	3.8820	1.2104	7.55	1.46	0.750			
0.3746	23973.50	3.8790	3.8790	1.2262	7.54	1.45	0.750			
0.3783	24212.30	3.8760	3.8760	1.2412	7.53	1.44	0.750			
0.3821	24453.36	3.8730	3.8730	1.2540	7.52	1.43	0.750			
0.3859	24695.30	3.8700	3.8700	1.2681	7.51	1.42	0.750			
0.3896	24933.82	3.8670	3.8671	1.2815	7.49	1.40	0.750			
0.3934	25180.18	3.8640	3.8638	1.3077	7.48	1.39	0.750	0.384	0.879	
0.3974	25433.88	3.8610	3.8610	1.3406	7.46	1.37	0.750			
0.4015	25696.76	3.8580	3.8580	1.3553	7.45	1.36	0.750			
0.4056	25959.45	3.8550	3.8547	1.3843	7.43	1.34	0.750			
0.4098	26226.98	3.8520	3.8523	1.4076	7.41	1.32	0.750			
0.4141	26502.36	3.8490	3.8490	1.4201	7.40	1.31	0.750			
0.4184	26776.08	3.8460	3.8460	1.4516	7.38	1.29	0.750			
0.4227	27051.86	3.8430	3.8431	1.4707	7.37	1.28	0.750			
0.4272	27341.18	3.8400	3.8399	1.4964	7.35	1.26	0.750			
0.4318	27637.15	3.8370	3.8372	1.5121	7.34	1.25	0.750			
0.4364	27927.59	3.8340	3.8340	1.5313	7.32	1.23	0.750			
0.4410	28223.63	3.8310	3.8307	1.5567	7.31	1.22	0.750			
0.4456	28519.58	3.8280	3.8282	1.5806	7.29	1.20	0.750			
0.4504	28827.43	3.8250	3.8252	1.6187	7.27	1.18	0.750			
0.4553	29141.97	3.8220	3.8221	1.6603	7.25	1.16	0.750			
0.4604	29466.51	3.8190	3.8188	1.6883	7.23	1.14	0.750			
0.4657	29802.04	3.8160	3.8159	1.7054	7.21	1.12	0.750			
0.4708	30129.36	3.8130	3.8131	1.7235	7.19	1.10	0.750			
0.4759	30460.43	3.8100	3.8101	1.7345	7.16	1.07	0.750			
0.4811	30788.26	3.8070	3.8070	1.7772	7.14	1.05	0.750			
0.4864	31128.11	3.8040	3.8040	1.8163	7.12	1.03	0.750			
0.4919	31484.68	3.8010	3.8011	1.8559	7.10	1.01	0.750			
0.4977	31851.31	3.7980	3.7981	1.8946	7.07	0.98	0.750			
0.5035	32224.76	3.7950	3.7951	1.9308	7.05	0.96	0.750			
0.5093	32596.32	3.7920	3.7918	1.9466	7.02	0.93	0.750			
0.5151	32965.22	3.7890	3.7890	1.9553	6.99	0.90	0.750			
0.5210	33343.29	3.7860	3.7860	1.9920	6.97	0.88	0.750			
0.5270	33728.47	3.7830	3.7830	2.0503	6.95	0.86	0.750			
0.5331	34121.05	3.7800	3.7800	2.0895	6.92	0.83	0.750			
0.5396	34537.23	3.7770	3.7769	2.1220	6.89	0.80	0.750			
0.5461	34947.85	3.7740	3.7741	2.1628	6.86	0.77	0.750			
0.5526	35367.37	3.7710	3.7711	2.1831	6.83	0.74	0.750			
0.5591	35779.63	3.7680	3.7678	2.1981	6.81	0.72	0.750			
0.5657	36204.55	3.7650	3.7650	2.2486	6.78	0.69	0.750			
0.5725	36639.09	3.7620	3.7620	2.3319	6.75	0.66	0.750			
0.5796	37096.50	3.7590	3.7591	2.4357	6.72	0.63	0.750			
0.5870	37568.01	3.7560	3.7558	2.5280	6.69	0.60	0.750			
0.5947	38060.24	3.7530	3.7532	2.6538	6.65	0.56	0.750			
0.6030	38589.12	3.7500	3.7498	2.8395	6.62	0.53	0.750			
0.6117	39145.97	3.7470	3.7469	2.9181	6.58	0.49	0.750			
0.6207	39724.94	3.7440	3.7440	2.9694	6.54	0.45	0.750			
0.6295	40288.10	3.7410	3.7411	3.0460	6.51	0.42	0.750			
0.6388	40880.01	3.7380	3.7379	3.1211	6.47	0.38	0.750			
0.6485	41506.26	3.7350	3.7350	3.1727	6.44	0.35	0.750			
0.6581	42119.45	3.7320	3.7319	3.0238	6.40	0.31	0.750			
0.6668	42677.80	3.7290	3.7291	2.7548	6.37	0.28	0.750			
0.6748	43186.04	3.7260	3.7259	2.4792	6.34	0.25	0.750			
0.6815	43616.85	3.7230	3.7230	2.1693	6.32	0.23	0.750			
0.6876	44008.15	3.7200	3.7200	1.9143	6.30	0.21	0.750			
0.6929	44343.76	3.7170	3.7171	1.7015	6.29	0.20	0.750			
0.6974	44631.42	3.7140	3.7141	1.5137	6.27	0.18	0.750			
0.7016	44901.28	3.7110	3.7109	1.3807	6.26	0.17	0.750			
0.7055	45150.39	3.7080	3.7080	1.2780	6.25	0.16	0.750			
0.7090	45375.69	3.7050	3.7051	1.2012	6.24	0.15	0.750			
0.7124	45593.32	3.7020	3.7020	1.1426	6.23	0.14	0.750			
0.7158	45808.64	3.6990	3.6987	1.1184	6.22	0.13	0.750			
0.7190	46014.30	3.6960	3.6961	1.0915	6.21	0.12	0.750			
0.7222	46222.85	3.6930	3.6931	1.0824	6.20	0.11	0.750			
0.7255	46431.81	3.6900	3.6900	1.0676	6.20	0.11	0.750			
0.7287	46637.09	3.6870	3.6869	1.0477	6.19	0.10	0.750			
0.7318	46837.58	3.6840	3.6841	1.0287	6.18	0.09	0.750			
0.7349	47035.65	3.6810	3.6810	1.0075	6.17	0.08	0.750			
0.7379	47224.40	3.6780	3.6780	0.9805	6.17	0.08	0.750			
0.7408	47408.58	3.6750	3.6750	0.9520	6.16	0.07	0.750			
0.7436	47590.90	3.6720	3.6720	0.9282	6.15	0.06	0.750			
0.7463	47763.34	3.6690	3.6689	0.9238	6.15	0.06	0.750			
0.7490	47937.57	3.6660	3.6661	0.9129	6.14	0.05	0.750			
0.7517	48109.93	3.6630	3.6629	0.9101	6.13	0.04	0.750			
0.7545	48285.06	3.6600	3.6600	0.9164	6.13	0.04	0.750			
0.7572	48462.43	3.6570	3.6571	0.9170	6.12	0.03	0.750			
0.7599	48635.88	3.6540	3.6541	0.9366	6.11	0.02	0.750			
0.7628	48816.93	3.6510	3.6510	0.9510	6.11	0.02	0.750			
0.7656	48998.97	3.6480	3.6476	0.9515	6.10	0.01	0.750			
0.7686	49189.02	3.6450	3.6450	0.9554	6.10	0.01	0.750			
0.7715	49374.21	3.6420	3.6423	0.9452	6.10	0.01	0.750			
0.7745	49566.24	3.6390	3.6390	0.9162	6.09	0.00	0.750			
0.7772	49742.25	3.6360	3.6359	0.8540	6.09	0.00	0.750			
0.7798	49904.50	3.6330	3.6331	0.7627	6.09	-0.00	0.750			
0.7820	50048.13	3.6300	3.6301	0.6709	6.09	-0.00	0.750			
0.7839	50168.03	3.6270	3.6271	0.5593	6.09	-0.00	0.750			
0.7851	50249.35	3.6240	3.6246	0.4764	6.08	-0.01	0.750			
0.7864	50328.11	3.6210	3.6212	0.3645	6.08	-0.01	0.750			
0.7873	50388.67	3.6180	3.6177	0.2892	6.08	-0.01	0.750			
0.7879	50426.74	3.6150	3.6143	0.2041	6.08	-0.01	0.750			
0.7884	50457.81	3.6120	3.6079	0.1490	6.08	-0.01	0.750			
0.7885	50462.74	3.5940	3.6027	-0.1165	6.08	-0.01	0.750			
0.7886	50473.51	3.6090	3.5040	0.0940	6.08	-0.01	0.759			
0.7888	50481.06	3.5970	3.4187	-0.0744	6.08	-0.01	0.768			
0.7889	50487.52	3.6060	3.3457	0.0519	6.08	-0.01	0.777			
0.7889	50491.30	3.6000	3.3031	-0.0323	6.08	-0.01	0.782			
0.7890	50493.45	3.6030	3.2788	0.0098	6.08	-0.01	0.784			
