Ah_balance (normalized)	Ah_balance (mAh)	Voltage - fit (V)	Voltage -  interpolate (V)	dQ/dV (1/V)	Temperature (°C)	Temperature - diff (°C)	Current (C)	R_DC 0ms (mOhm)	R_DC 50ms (mOhm)	R_DC 50 ms PEC (mOhm)
0.0000	0.00	4.0890	4.1307	0.0000	5.98	-0.01	-0.749			
0.0000	0.00	4.0920	4.1307	0.0000	5.98	-0.01	-0.749			
0.0000	0.00	4.0950	4.1307	0.0000	5.98	-0.01	-0.749			
0.0001	9.54	4.0860	4.0875	-0.0462	5.98	-0.01	-0.750			
0.0003	21.50	4.0830	4.0828	-0.0711	5.98	-0.01	-0.750			
0.0006	37.21	4.0800	4.0800	-0.0968	5.98	-0.01	-0.750			
0.0009	58.22	4.0770	4.0771	-0.1221	5.98	-0.01	-0.750			
0.0013	84.20	4.0740	4.0740	-0.1464	5.98	-0.01	-0.750			
0.0018	114.71	4.0710	4.0709	-0.1698	5.98	-0.01	-0.750			
0.0024	150.74	4.0680	4.0680	-0.1936	5.98	-0.01	-0.750			
0.0030	189.70	4.0650	4.0651	-0.2158	5.98	-0.01	-0.750			
0.0037	233.60	4.0620	4.0620	-0.2376	5.98	-0.01	-0.750			
0.0044	281.41	4.0590	4.0590	-0.2602	5.98	-0.01	-0.750			
0.0052	332.98	4.0560	4.0559	-0.2821	5.98	-0.01	-0.750			
0.0061	389.40	4.0530	4.0531	-0.3048	5.99	-0.00	-0.750			
0.0070	450.46	4.0500	4.0500	-0.3259	5.99	-0.00	-0.750			
0.0081	515.39	4.0470	4.0469	-0.3495	5.99	-0.00	-0.750			
0.0091	584.81	4.0440	4.0440	-0.3703	5.99	-0.00	-0.750			
0.0103	658.05	4.0410	4.0411	-0.3907	5.99	-0.00	-0.750			
0.0115	735.46	4.0380	4.0379	-0.4085	5.99	-0.00	-0.750			
0.0128	816.03	4.0350	4.0352	-0.4276	5.99	0.00	-0.750			
0.0141	900.08	4.0320	4.0320	-0.4466	5.99	0.00	-0.750			
0.0154	987.40	4.0290	4.0291	-0.4654	5.99	0.00	-0.750			
0.0168	1076.95	4.0260	4.0259	-0.4829	5.99	0.00	-0.750			
0.0183	1171.31	4.0230	4.0231	-0.5058	5.99	0.00	-0.750			
0.0199	1270.49	4.0200	4.0200	-0.5284	6.00	0.01	-0.750			
0.0215	1375.48	4.0170	4.0168	-0.5465	6.00	0.01	-0.750			
0.0232	1483.58	4.0140	4.0141	-0.5640	6.00	0.01	-0.750			
0.0249	1593.80	4.0110	4.0111	-0.5800	6.00	0.01	-0.750			
0.0267	1707.14	4.0080	4.0080	-0.5961	6.00	0.01	-0.750			
0.0285	1823.57	4.0050	4.0049	-0.6056	6.01	0.02	-0.750			
0.0303	1939.74	4.0020	4.0020	-0.6138	6.01	0.02	-0.750			
0.0322	2060.46	3.9990	3.9990	-0.6227	6.01	0.02	-0.750			
0.0341	2180.64	3.9960	3.9960	-0.6310	6.01	0.02	-0.750			
0.0360	2301.81	3.9930	3.9930	-0.6375	6.02	0.03	-0.750			
0.0379	2423.79	3.9900	3.9901	-0.6447	6.02	0.03	-0.750			
0.0398	2547.59	3.9870	3.9869	-0.6518	6.03	0.04	-0.750			
0.0418	2675.02	3.9840	3.9840	-0.6595	6.03	0.04	-0.750			
0.0438	2802.71	3.9810	3.9811	-0.6679	6.04	0.05	-0.750			
0.0458	2932.56	3.9780	3.9780	-0.6731	6.05	0.06	-0.750			
0.0478	3061.03	3.9750	3.9750	-0.6793	6.05	0.06	-0.750			
0.0499	3192.77	3.9720	3.9721	-0.6890	6.06	0.07	-0.750			
0.0520	3325.77	3.9690	3.9689	-0.6912	6.07	0.08	-0.750			
0.0541	3459.67	3.9660	3.9659	-0.7009	6.07	0.08	-0.750			
0.0562	3595.97	3.9630	3.9632	-0.7018	6.08	0.09	-0.750			
0.0583	3731.14	3.9600	3.9599	-0.7070	6.08	0.09	-0.750			
0.0604	3866.25	3.9570	3.9570	-0.7099	6.09	0.10	-0.750			
0.0625	4001.62	3.9540	3.9540	-0.7030	6.09	0.10	-0.750			
0.0646	4137.44	3.9510	3.9508	-0.7034	6.10	0.11	-0.750			
0.0667	4271.79	3.9480	3.9482	-0.7161	6.10	0.11	-0.750			
0.0689	4409.35	3.9450	3.9450	-0.7161	6.11	0.12	-0.750			
0.0711	4550.37	3.9420	3.9418	-0.7215	6.12	0.13	-0.750			
0.0733	4688.66	3.9390	3.9389	-0.7184	6.13	0.14	-0.750			
0.0754	4825.99	3.9360	3.9362	-0.7198	6.13	0.14	-0.750			
0.0776	4965.20	3.9330	3.9330	-0.7251	6.14	0.15	-0.750			
0.0797	5102.29	3.9300	3.9299	-0.7258	6.15	0.16	-0.750			
0.0819	5239.23	3.9270	3.9270	-0.7218	6.16	0.17	-0.750			
0.0841	5380.82	3.9240	3.9240	-0.7360	6.17	0.18	-0.750			
0.0863	5524.24	3.9210	3.9210	-0.7397	6.18	0.19	-0.750			
0.0885	5666.54	3.9180	3.9178	-0.7392	6.19	0.20	-0.750			
0.0908	5809.52	3.9150	3.9150	-0.7323	6.19	0.20	-0.750			
0.0930	5949.59	3.9120	3.9120	-0.7300	6.20	0.21	-0.750			
0.0951	6089.07	3.9090	3.9090	-0.7251	6.21	0.22	-0.750			
0.0973	6228.43	3.9060	3.9059	-0.7229	6.22	0.23	-0.750			
0.0994	6364.15	3.9030	3.9031	-0.7204	6.23	0.24	-0.750			
0.1016	6501.96	3.9000	3.9000	-0.7287	6.24	0.25	-0.750			
0.1038	6640.78	3.8970	3.8969	-0.7360	6.24	0.25	-0.750			
0.1060	6785.14	3.8940	3.8939	-0.7493	6.25	0.26	-0.750			
0.1083	6929.88	3.8910	3.8909	-0.7555	6.26	0.27	-0.750			
0.1106	7079.07	3.8880	3.8880	-0.7642	6.26	0.27	-0.750			
0.1129	7227.62	3.8850	3.8851	-0.7629	6.27	0.28	-0.750			
0.1152	7374.05	3.8820	3.8819	-0.7589	6.28	0.29	-0.750			
0.1175	7519.20	3.8790	3.8790	-0.7553	6.29	0.30	-0.750			
0.1197	7660.37	3.8760	3.8761	-0.7481	6.30	0.31	-0.750			
0.1220	7805.67	3.8730	3.8729	-0.7548	6.31	0.32	-0.750			
0.1242	7949.78	3.8700	3.8700	-0.7516	6.32	0.33	-0.750			
0.1265	8093.46	3.8670	3.8669	-0.7565	6.33	0.34	-0.750			
0.1287	8239.56	3.8640	3.8639	-0.7649	6.34	0.35	-0.750			
0.1311	8387.52	3.8610	3.8611	-0.7648	6.35	0.36	-0.750			
0.1334	8535.54	3.8580	3.8580	-0.7599	6.35	0.36	-0.750			
0.1357	8682.37	3.8550	3.8550	-0.7600	6.36	0.37	-0.750			
0.1379	8828.08	3.8520	3.8521	-0.7580	6.37	0.38	-0.750			
0.1402	8972.37	3.8490	3.8491	-0.7552	6.38	0.39	-0.750			
0.1424	9115.49	3.8460	3.8458	-0.7542	6.39	0.40	-0.750			
0.1447	9258.71	3.8430	3.8431	-0.7571	6.39	0.40	-0.750			
0.1470	9405.20	3.8400	3.8401	-0.7684	6.40	0.41	-0.750			
0.1493	9555.14	3.8370	3.8369	-0.7778	6.41	0.42	-0.750			
0.1516	9705.02	3.8340	3.8339	-0.7763	6.42	0.43	-0.750			
0.1540	9854.52	3.8310	3.8310	-0.7778	6.43	0.44	-0.750			
0.1563	10003.87	3.8280	3.8281	-0.7793	6.44	0.45	-0.750			
0.1587	10153.85	3.8250	3.8250	-0.7732	6.45	0.46	-0.750			
0.1610	10302.95	3.8220	3.8219	-0.7671	6.45	0.46	-0.750			
0.1633	10448.69	3.8190	3.8191	-0.7638	6.46	0.47	-0.750			
0.1655	10594.40	3.8160	3.8162	-0.7617	6.47	0.48	-0.750			
0.1678	10740.34	3.8130	3.8128	-0.7601	6.48	0.49	-0.750			
0.1701	10885.09	3.8100	3.8101	-0.7580	6.48	0.49	-0.750			
0.1723	11030.18	3.8070	3.8070	-0.7605	6.49	0.50	-0.750			
0.1746	11176.55	3.8040	3.8042	-0.7705	6.50	0.51	-0.750			
0.1770	11325.39	3.8010	3.8009	-0.7738	6.51	0.52	-0.750			
0.1793	11472.57	3.7980	3.7980	-0.7766	6.52	0.53	-0.750			
0.1816	11624.07	3.7950	3.7950	-0.7780	6.53	0.54	-0.750			
0.1840	11774.63	3.7920	3.7921	-0.7812	6.54	0.55	-0.750			
0.1863	11924.55	3.7890	3.7890	-0.7814	6.56	0.57	-0.750			
0.1887	12074.09	3.7860	3.7859	-0.7767	6.56	0.57	-0.750			
0.1910	12221.75	3.7830	3.7830	-0.7749	6.57	0.58	-0.750			
0.1933	12369.45	3.7800	3.7801	-0.7785	6.58	0.59	-0.750			
0.1956	12519.34	3.7770	3.7770	-0.7793	6.59	0.60	-0.750			
0.1979	12668.77	3.7740	3.7739	-0.7890	6.59	0.60	-0.750			
0.2003	12819.56	3.7710	3.7712	-0.7914	6.60	0.61	-0.750			
0.2027	12972.62	3.7680	3.7678	-0.7987	6.61	0.62	-0.750			
0.2052	13129.86	3.7650	3.7650	-0.8025	6.62	0.63	-0.750			
0.2076	13284.07	3.7620	3.7619	-0.7993	6.63	0.64	-0.750			
0.2100	13437.74	3.7590	3.7590	-0.7950	6.64	0.65	-0.750			
0.2123	13589.99	3.7560	3.7562	-0.7942	6.65	0.66	-0.750			
0.2147	13738.24	3.7530	3.7529	-0.7914	6.66	0.67	-0.750			
0.2170	13890.90	3.7500	3.7501	-0.7998	6.67	0.68	-0.750			
0.2194	14043.75	3.7470	3.7469	-0.8012	6.67	0.68	-0.750			
0.2219	14201.13	3.7440	3.7440	-0.8104	6.68	0.69	-0.750			
0.2243	14357.04	3.7410	3.7412	-0.8077	6.69	0.70	-0.750			
0.2267	14511.22	3.7380	3.7380	-0.8155	6.70	0.71	-0.750			
0.2292	14667.47	3.7350	3.7349	-0.8189	6.70	0.71	-0.750			
0.2316	14823.96	3.7320	3.7319	-0.8148	6.71	0.72	-0.750			
0.2341	14980.75	3.7290	3.7290	-0.8239	6.72	0.73	-0.750			
0.2366	15141.93	3.7260	3.7261	-0.8321	6.73	0.74	-0.750			
0.2391	15302.46	3.7230	3.7229	-0.8336	6.74	0.75	-0.750			
0.2416	15462.92	3.7200	3.7200	-0.8375	6.74	0.75	-0.750			
0.2441	15622.65	3.7170	3.7170	-0.8362	6.75	0.76	-0.750			
0.2466	15783.23	3.7140	3.7141	-0.8379	6.76	0.77	-0.750			
0.2491	15945.50	3.7110	3.7109	-0.8452	6.77	0.78	-0.750			
0.2516	16104.83	3.7080	3.7080	-0.8497	6.78	0.79	-0.750			
0.2542	16269.83	3.7050	3.7049	-0.8563	6.78	0.79	-0.750			
0.2568	16435.57	3.7020	3.7020	-0.8578	6.79	0.80	-0.750			
0.2594	16601.10	3.6990	3.6991	-0.8636	6.80	0.81	-0.750			
0.2620	16769.67	3.6960	3.6961	-0.8694	6.81	0.82	-0.750			
0.2646	16934.90	3.6930	3.6929	-0.8783	6.82	0.83	-0.750			
0.2672	17102.49	3.6900	3.6900	-0.8756	6.82	0.83	-0.750			
0.2699	17271.44	3.6870	3.6870	-0.8800	6.83	0.84	-0.750			
0.2725	17441.17	3.6840	3.6840	-0.8900	6.83	0.84	-0.750			
0.2753	17616.42	3.6810	3.6811	-0.8906	6.84	0.85	-0.750			
0.2779	17784.62	3.6780	3.6780	-0.8979	6.85	0.86	-0.750			
0.2806	17955.28	3.6750	3.6750	-0.9086	6.86	0.87	-0.750			
0.2833	18130.52	3.6720	3.6719	-0.9169	6.87	0.88	-0.750			
0.2861	18309.72	3.6690	3.6688	-0.9284	6.88	0.89	-0.750			
0.2889	18486.77	3.6660	3.6659	-0.9389	6.88	0.89	-0.750			
0.2917	18669.57	3.6630	3.6632	-0.9469	6.89	0.90	-0.750			
0.2946	18856.71	3.6600	3.6599	-0.9418	6.89	0.90	-0.750			
0.2974	19036.77	3.6570	3.6568	-0.9287	6.90	0.91	-0.750			
0.3002	19212.60	3.6540	3.6543	-0.9264	6.90	0.91	-0.750			
0.3030	19388.96	3.6510	3.6511	-0.9429	6.91	0.92	-0.750			
0.3058	19568.82	3.6480	3.6478	-0.9490	6.91	0.92	-0.750			
0.3086	19751.12	3.6450	3.6449	-0.9608	6.91	0.92	-0.750			
0.3116	19939.65	3.6420	3.6421	-0.9750	6.92	0.93	-0.750			
0.3145	20129.74	3.6390	3.6390	-0.9886	6.92	0.93	-0.750			
0.3176	20323.37	3.6360	3.6360	-0.9937	6.93	0.94	-0.750			
0.3205	20512.67	3.6330	3.6329	-0.9934	6.93	0.94	-0.750			
0.3234	20700.10	3.6300	3.6299	-0.9947	6.94	0.95	-0.750			
0.3265	20893.35	3.6270	3.6269	-1.0044	6.94	0.95	-0.750			
0.3295	21086.94	3.6240	3.6240	-1.0117	6.95	0.96	-0.750			
0.3326	21283.24	3.6210	3.6209	-1.0246	6.95	0.96	-0.750			
0.3356	21478.43	3.6180	3.6181	-1.0336	6.96	0.97	-0.750			
0.3388	21681.48	3.6150	3.6148	-1.0403	6.96	0.97	-0.750			
0.3419	21882.23	3.6120	3.6120	-1.0407	6.96	0.97	-0.750			
0.3450	22082.79	3.6090	3.6091	-1.0410	6.97	0.98	-0.750			
0.3481	22279.19	3.6060	3.6061	-1.0476	6.97	0.98	-0.750			
0.3513	22481.04	3.6030	3.6029	-1.0677	6.97	0.98	-0.750			
0.3544	22682.80	3.6000	3.6000	-1.0742	6.98	0.99	-0.750			
0.3577	22892.80	3.5970	3.5969	-1.0867	6.98	0.99	-0.750			
0.3611	23107.92	3.5940	3.5940	-1.1096	6.99	1.00	-0.750			
0.3644	23320.18	3.5910	3.5911	-1.1230	6.99	1.00	-0.750			
0.3678	23539.95	3.5880	3.5879	-1.1202	6.99	1.00	-0.750			
0.3712	23753.67	3.5850	3.5849	-1.1161	7.00	1.01	-0.750			
0.3745	23965.78	3.5820	3.5820	-1.1158	7.00	1.01	-0.750			
0.3778	24180.61	3.5790	3.5791	-1.1236	7.00	1.01	-0.750	0.395	0.836	
0.3812	24396.34	3.5760	3.5759	-1.1275	7.01	1.02	-0.750			
0.3845	24610.50	3.5730	3.5730	-1.1317	7.02	1.03	-0.750			
0.3879	24826.51	3.5700	3.5700	-1.1401	7.02	1.03	-0.750			
0.3915	25053.43	3.5670	3.5669	-1.1565	7.02	1.03	-0.750			
0.3949	25272.96	3.5640	3.5640	-1.1653	7.03	1.04	-0.750			
0.3984	25497.18	3.5610	3.5610	-1.1708	7.03	1.04	-0.750			
0.4019	25722.91	3.5580	3.5578	-1.1740	7.03	1.04	-0.750			
0.4055	25948.96	3.5550	3.5551	-1.1869	7.04	1.05	-0.750			
0.4090	26176.35	3.5520	3.5520	-1.1917	7.04	1.05	-0.750			
0.4126	26405.54	3.5490	3.5489	-1.2067	7.05	1.06	-0.750			
0.4162	26639.95	3.5460	3.5459	-1.2200	7.06	1.07	-0.750			
0.4199	26873.81	3.5430	3.5431	-1.2214	7.06	1.07	-0.750			
0.4236	27112.74	3.5400	3.5400	-1.2299	7.07	1.08	-0.750			
0.4274	27350.57	3.5370	3.5370	-1.2365	7.07	1.08	-0.750			
0.4310	27587.15	3.5340	3.5340	-1.2363	7.08	1.09	-0.750			
0.4347	27819.65	3.5310	3.5310	-1.2485	7.09	1.10	-0.750			
0.4384	28058.10	3.5280	3.5281	-1.2610	7.09	1.10	-0.750			
0.4423	28305.22	3.5250	3.5250	-1.2683	7.10	1.11	-0.750			
0.4461	28551.81	3.5220	3.5219	-1.2747	7.10	1.11	-0.750			
0.4500	28801.35	3.5190	3.5193	-1.2788	7.11	1.12	-0.750			
0.4538	29045.95	3.5160	3.5161	-1.2741	7.12	1.13	-0.750			
0.4577	29290.59	3.5130	3.5129	-1.2637	7.12	1.13	-0.750			
0.4614	29528.92	3.5100	3.5100	-1.2562	7.13	1.14	-0.750			
0.4651	29768.61	3.5070	3.5070	-1.2513	7.14	1.15	-0.750			
0.4689	30009.15	3.5040	3.5040	-1.2541	7.15	1.16	-0.750			
0.4726	30248.29	3.5010	3.5009	-1.2576	7.15	1.16	-0.750			
0.4764	30490.00	3.4980	3.4981	-1.2591	7.16	1.17	-0.750			
0.4802	30731.84	3.4950	3.4950	-1.2619	7.17	1.18	-0.750			
0.4840	30976.61	3.4920	3.4919	-1.2677	7.18	1.19	-0.750			
0.4878	31220.44	3.4890	3.4892	-1.2714	7.19	1.20	-0.750			
0.4917	31468.00	3.4860	3.4860	-1.2698	7.20	1.21	-0.750			
0.4955	31713.54	3.4830	3.4829	-1.2573	7.21	1.22	-0.750			
0.4993	31954.05	3.4800	3.4802	-1.2454	7.22	1.23	-0.750			
0.5030	32192.28	3.4770	3.4769	-1.2392	7.23	1.24	-0.750			
0.5067	32427.92	3.4740	3.4739	-1.2236	7.24	1.25	-0.750			
0.5103	32660.01	3.4710	3.4709	-1.2156	7.25	1.26	-0.750			
0.5139	32891.81	3.4680	3.4681	-1.2056	7.27	1.28	-0.750			
0.5176	33125.50	3.4650	3.4649	-1.2072	7.28	1.29	-0.750			
0.5212	33355.94	3.4620	3.4620	-1.2027	7.29	1.30	-0.750			
0.5248	33584.01	3.4590	3.4591	-1.1933	7.30	1.31	-0.750			
0.5284	33816.06	3.4560	3.4560	-1.1877	7.31	1.32	-0.750			
0.5319	34044.25	3.4530	3.4530	-1.1849	7.32	1.33	-0.750			
0.5355	34271.45	3.4500	3.4499	-1.1689	7.33	1.34	-0.750			
0.5390	34496.34	3.4470	3.4470	-1.1641	7.34	1.35	-0.750			
0.5425	34717.98	3.4440	3.4440	-1.1467	7.35	1.36	-0.750			
0.5459	34936.90	3.4410	3.4410	-1.1328	7.36	1.37	-0.750			
0.5492	35151.98	3.4380	3.4381	-1.1200	7.37	1.38	-0.750			
0.5526	35366.28	3.4350	3.4349	-1.1300	7.38	1.39	-0.750			
0.5560	35581.99	3.4320	3.4319	-1.1179	7.39	1.40	-0.750			
0.5593	35797.76	3.4290	3.4289	-1.1193	7.41	1.42	-0.750			
0.5627	36011.09	3.4260	3.4263	-1.1110	7.42	1.43	-0.750			
0.5661	36229.47	3.4230	3.4230	-1.1071	7.44	1.45	-0.750			
0.5694	36440.65	3.4200	3.4199	-1.0942	7.45	1.46	-0.750			
0.5726	36648.65	3.4170	3.4169	-1.0697	7.46	1.47	-0.750			
0.5758	36853.24	3.4140	3.4141	-1.0492	7.47	1.48	-0.750			
0.5790	37054.54	3.4110	3.4110	-1.0363	7.49	1.50	-0.750			
0.5820	37250.68	3.4080	3.4079	-1.0112	7.50	1.51	-0.750			
0.5850	37441.20	3.4050	3.4051	-0.9898	7.51	1.52	-0.750			
0.5880	37629.41	3.4020	3.4022	-0.9855	7.52	1.53	-0.750			
0.5909	37815.52	3.3990	3.3988	-0.9755	7.54	1.55	-0.750			
0.5938	38005.66	3.3960	3.3959	-0.9662	7.56	1.57	-0.750			
0.5967	38190.43	3.3930	3.3930	-0.9438	7.57	1.58	-0.750			
0.5996	38373.79	3.3900	3.3901	-0.9286	7.59	1.60	-0.750			
0.6023	38549.85	3.3870	3.3870	-0.9124	7.60	1.61	-0.750			
0.6050	38719.47	3.3840	3.3840	-0.8940	7.62	1.63	-0.750			
0.6076	38887.48	3.3810	3.3809	-0.8765	7.63	1.64	-0.750			
0.6102	39053.16	3.3780	3.3780	-0.8659	7.64	1.65	-0.750			
0.6128	39221.47	3.3750	3.3750	-0.8574	7.65	1.66	-0.750			
0.6154	39385.44	3.3720	3.3719	-0.8394	7.67	1.68	-0.750			
0.6179	39547.22	3.3690	3.3690	-0.8226	7.69	1.70	-0.750			
0.6203	39701.65	3.3660	3.3661	-0.8045	7.70	1.71	-0.750			
0.6227	39853.08	3.3630	3.3630	-0.7885	7.72	1.73	-0.750			
0.6251	40004.38	3.3600	3.3600	-0.7736	7.73	1.74	-0.750			
0.6273	40149.80	3.3570	3.3570	-0.7542	7.74	1.75	-0.750			
0.6296	40292.41	3.3540	3.3540	-0.7459	7.75	1.76	-0.750			
0.6318	40435.38	3.3510	3.3510	-0.7326	7.76	1.77	-0.750			
0.6340	40575.36	3.3480	3.3479	-0.7171	7.77	1.78	-0.750			
0.6361	40710.61	3.3450	3.3450	-0.7008	7.78	1.79	-0.750			
0.6382	40844.31	3.3420	3.3419	-0.6870	7.80	1.81	-0.750			
0.6402	40975.33	3.3390	3.3391	-0.6761	7.81	1.82	-0.750			
0.6422	41102.00	3.3360	3.3360	-0.6643	7.83	1.84	-0.750			
0.6442	41226.64	3.3330	3.3330	-0.6499	7.84	1.85	-0.750			
0.6461	41353.21	3.3300	3.3299	-0.6422	7.85	1.86	-0.750			
0.6481	41475.34	3.3270	3.3271	-0.6319	7.87	1.88	-0.750			
0.6499	41595.66	3.3240	3.3239	-0.6167	7.88	1.89	-0.750			
0.6518	41713.42	3.3210	3.3210	-0.6047	7.90	1.91	-0.750			
0.6536	41827.97	3.3180	3.3180	-0.5896	7.91	1.92	-0.750			
0.6553	41937.74	3.3150	3.3150	-0.5811	7.92	1.93	-0.750			
0.6570	42048.91	3.3120	3.3120	-0.5713	7.94	1.95	-0.750			
0.6587	42159.71	3.3090	3.3089	-0.5616	7.95	1.96	-0.750			
0.6604	42266.18	3.3060	3.3060	-0.5521	7.97	1.98	-0.750			
0.6621	42372.09	3.3030	3.3033	-0.5417	7.98	1.99	-0.750			
0.6637	42474.45	3.3000	3.2998	-0.5321	7.99	2.00	-0.750			
0.6652	42575.20	3.2970	3.2970	-0.5206	8.00	2.01	-0.750			
0.6668	42672.78	3.2940	3.2940	-0.5093	8.02	2.03	-0.750			
0.6683	42769.83	3.2910	3.2912	-0.5001	8.03	2.04	-0.750			
0.6698	42866.92	3.2880	3.2880	-0.4928	8.04	2.05	-0.750			
0.6712	42959.76	3.2850	3.2849	-0.4797	8.05	2.06	-0.750			
0.6727	43050.15	3.2820	3.2821	-0.4719	8.06	2.07	-0.750			
0.6741	43139.50	3.2790	3.2790	-0.4629	8.07	2.08	-0.750			
0.6754	43228.04	3.2760	3.2760	-0.4573	8.09	2.10	-0.750			
0.6768	43315.72	3.2730	3.2729	-0.4482	8.10	2.11	-0.750			
0.6781	43401.06	3.2700	3.2701	-0.4412	8.11	2.12	-0.750			
0.6794	43484.21	3.2670	3.2670	-0.4343	8.12	2.13	-0.750			
0.6807	43567.46	3.2640	3.2640	-0.4287	8.14	2.15	-0.750			
0.6820	43647.53	3.2610	3.2609	-0.4222	8.15	2.16	-0.750			
0.6833	43728.80	3.2580	3.2580	-0.4187	8.16	2.17	-0.750			
0.6845	43809.04	3.2550	3.2550	-0.4139	8.17	2.18	-0.750			
0.6858	43889.29	3.2520	3.2518	-0.4068	8.18	2.19	-0.750			
0.6870	43967.22	3.2490	3.2490	-0.3979	8.19	2.20	-0.750			
0.6882	44042.47	3.2460	3.2460	-0.3898	8.20	2.21	-0.750			
0.6893	44116.42	3.2430	3.2430	-0.3819	8.22	2.23	-0.750			
0.6904	44187.75	3.2400	3.2400	-0.3762	8.23	2.24	-0.750			
0.6915	44259.09	3.2370	3.2370	-0.3718	8.24	2.25	-0.750			
0.6927	44329.97	3.2340	3.2340	-0.3703	8.26	2.27	-0.750			
0.6938	44401.19	3.2310	3.2311	-0.3693	8.27	2.28	-0.750			
0.6949	44472.53	3.2280	3.2279	-0.3642	8.29	2.30	-0.750			
0.6960	44542.15	3.2250	3.2250	-0.3591	8.30	2.31	-0.750			
0.6970	44610.62	3.2220	3.2221	-0.3550	8.31	2.32	-0.750			
0.6981	44677.91	3.2190	3.2188	-0.3496	8.31	2.32	-0.750			
0.6991	44744.92	3.2160	3.2159	-0.3448	8.32	2.33	-0.750			
0.7002	44810.44	3.2130	3.2130	-0.3388	8.33	2.34	-0.750			
0.7012	44875.18	3.2100	3.2101	-0.3350	8.34	2.35	-0.750			
0.7022	44939.42	3.2070	3.2070	-0.3314	8.35	2.36	-0.750			
0.7032	45002.15	3.2040	3.2040	-0.3257	8.36	2.37	-0.750			
0.7041	45064.06	3.2010	3.2010	-0.3204	8.38	2.39	-0.750			
0.7051	45124.80	3.1980	3.1980	-0.3175	8.39	2.40	-0.750			
0.7060	45185.71	3.1950	3.1950	-0.3127	8.40	2.41	-0.750			
0.7070	45245.92	3.1920	3.1919	-0.3073	8.41	2.42	-0.750			
0.7079	45303.88	3.1890	3.1890	-0.3035	8.42	2.43	-0.750			
0.7088	45361.20	3.1860	3.1860	-0.3004	8.43	2.44	-0.750			
0.7097	45418.80	3.1830	3.1829	-0.2978	8.44	2.45	-0.750			
0.7105	45475.08	3.1800	3.1801	-0.2964	8.45	2.46	-0.750			
0.7114	45531.88	3.1770	3.1770	-0.2940	8.46	2.47	-0.750			
0.7123	45589.00	3.1740	3.1741	-0.2921	8.47	2.48	-0.750			
0.7132	45645.14	3.1710	3.1710	-0.2902	8.48	2.49	-0.750			
0.7141	45700.21	3.1680	3.1682	-0.2860	8.49	2.50	-0.750			
0.7149	45755.11	3.1650	3.1649	-0.2826	8.51	2.52	-0.750			
0.7158	45809.20	3.1620	3.1620	-0.2795	8.52	2.53	-0.750			
0.7166	45862.18	3.1590	3.1591	-0.2753	8.53	2.54	-0.750			
0.7174	45915.00	3.1560	3.1560	-0.2744	8.54	2.55	-0.750			
0.7182	45967.44	3.1530	3.1529	-0.2702	8.55	2.56	-0.750			
0.7190	46018.57	3.1500	3.1500	-0.2651	8.56	2.57	-0.750			
0.7198	46069.09	3.1470	3.1471	-0.2626	8.57	2.58	-0.750			
0.7206	46119.42	3.1440	3.1443	-0.2613	8.58	2.59	-0.750			
0.7214	46168.71	3.1410	3.1409	-0.2597	8.59	2.60	-0.750			
0.7222	46218.22	3.1380	3.1379	-0.2570	8.60	2.61	-0.750			
0.7229	46267.62	3.1350	3.1350	-0.2559	8.61	2.62	-0.750			
0.7237	46316.60	3.1320	3.1320	-0.2536	8.62	2.63	-0.750			
0.7245	46366.15	3.1290	3.1288	-0.2522	8.64	2.65	-0.750			
0.7252	46414.49	3.1260	3.1260	-0.2490	8.65	2.66	-0.750			
0.7260	46461.78	3.1230	3.1230	-0.2458	8.66	2.67	-0.750			
0.7267	46508.38	3.1200	3.1202	-0.2433	8.67	2.68	-0.750			
0.7274	46554.27	3.1170	3.1169	-0.2403	8.67	2.68	-0.750			
0.7281	46600.33	3.1140	3.1141	-0.2393	8.68	2.69	-0.750			
0.7288	46645.94	3.1110	3.1109	-0.2380	8.69	2.70	-0.750			
0.7296	46691.82	3.1080	3.1081	-0.2371	8.70	2.71	-0.750			
0.7303	46737.46	3.1050	3.1050	-0.2361	8.71	2.72	-0.750			
0.7310	46782.85	3.1020	3.1019	-0.2336	8.72	2.73	-0.750			
0.7317	46827.34	3.0990	3.0990	-0.2321	8.73	2.74	-0.750			
0.7324	46871.92	3.0960	3.0960	-0.2288	8.74	2.75	-0.750			
0.7331	46915.41	3.0930	3.0931	-0.2269	8.75	2.76	-0.750			
0.7337	46958.76	3.0900	3.0900	-0.2247	8.76	2.77	-0.750			
0.7344	47001.40	3.0870	3.0871	-0.2232	8.77	2.78	-0.750			
0.7351	47043.68	3.0840	3.0839	-0.2233	8.78	2.79	-0.750			
0.7357	47087.03	3.0810	3.0809	-0.2216	8.79	2.80	-0.750			
0.7364	47129.49	3.0780	3.0780	-0.2202	8.81	2.82	-0.750			
0.7371	47171.72	3.0750	3.0750	-0.2182	8.82	2.83	-0.750			
0.7377	47214.13	3.0720	3.0720	-0.2172	8.83	2.84	-0.750			
0.7384	47255.47	3.0690	3.0689	-0.2143	8.84	2.85	-0.750			
0.7390	47296.10	3.0660	3.0660	-0.2127	8.85	2.86	-0.750			
0.7396	47335.90	3.0630	3.0631	-0.2101	8.85	2.86	-0.750			
0.7403	47376.25	3.0600	3.0600	-0.2103	8.86	2.87	-0.750			
0.7409	47416.99	3.0570	3.0569	-0.2098	8.87	2.88	-0.750			
0.7415	47456.82	3.0540	3.0541	-0.2089	8.88	2.89	-0.750			
0.7421	47497.00	3.0510	3.0510	-0.2093	8.89	2.90	-0.750			
0.7428	47537.18	3.0480	3.0481	-0.2092	8.90	2.91	-0.750			
0.7434	47577.64	3.0450	3.0449	-0.2083	8.91	2.92	-0.750			
0.7440	47617.51	3.0420	3.0421	-0.2071	8.92	2.93	-0.750			
0.7446	47657.14	3.0390	3.0390	-0.2063	8.93	2.94	-0.750			
0.7453	47696.65	3.0360	3.0361	-0.2054	8.94	2.95	-0.750			
0.7459	47736.35	3.0330	3.0329	-0.2039	8.95	2.96	-0.750			
0.7465	47775.23	3.0300	3.0300	-0.2018	8.96	2.97	-0.750			
0.7471	47813.40	3.0270	3.0271	-0.2007	8.97	2.98	-0.750			
0.7477	47851.95	3.0240	3.0241	-0.1999	8.98	2.99	-0.750			
0.7483	47890.33	3.0210	3.0210	-0.1991	8.99	3.00	-0.750			
0.7489	47928.25	3.0180	3.0179	-0.1984	9.00	3.01	-0.750			
0.7495	47966.29	3.0150	3.0150	-0.1974	9.01	3.02	-0.750			
0.7501	48004.15	3.0120	3.0120	-0.1970	9.01	3.02	-0.750			
0.7507	48042.25	3.0090	3.0090	-0.1962	9.02	3.03	-0.750			
0.7512	48079.99	3.0060	3.0060	-0.1936	9.03	3.04	-0.750			
0.7518	48117.05	3.0030	3.0030	-0.1952	9.04	3.05	-0.750			
