Ah_balance (normalized)	Ah_balance (mAh)	Voltage - fit (V)	Voltage -  interpolate (V)	dQ/dV (1/V)	Temperature (°C)	Temperature - diff (°C)	Current (C)	R_DC 0ms (mOhm)	R_DC 50ms (mOhm)	R_DC 50 ms PEC (mOhm)
0.0002	11.05	4.1050	4.1030	-0.0239	5.99	0.00	-0.750			
0.0003	18.62	4.1020	4.1011	-0.0549	5.99	0.00	-0.750			
0.0005	32.23	4.0990	4.0985	-0.0860	5.99	0.00	-0.750			
0.0008	53.05	4.0960	4.0958	-0.1149	5.99	0.00	-0.750			
0.0012	78.53	4.0930	4.0929	-0.1405	5.99	0.00	-0.750			
0.0017	108.19	4.0900	4.0900	-0.1653	5.99	0.00	-0.750			
0.0022	142.40	4.0870	4.0872	-0.1902	5.99	0.00	-0.750			
0.0029	183.32	4.0840	4.0840	-0.2127	5.99	0.00	-0.750			
0.0035	225.83	4.0810	4.0810	-0.2347	5.99	0.00	-0.750			
0.0043	272.70	4.0780	4.0780	-0.2572	5.99	0.00	-0.750			
0.0051	324.01	4.0750	4.0750	-0.2773	5.99	0.00	-0.750			
0.0059	379.23	4.0720	4.0718	-0.3010	5.99	0.00	-0.750			
0.0069	439.22	4.0690	4.0690	-0.3241	5.99	0.00	-0.750			
0.0079	503.56	4.0660	4.0661	-0.3475	5.99	0.00	-0.750			
0.0089	572.47	4.0630	4.0630	-0.3737	5.99	0.00	-0.750			
0.0101	646.59	4.0600	4.0600	-0.3968	5.99	0.00	-0.750			
0.0113	725.64	4.0570	4.0570	-0.4201	5.99	0.00	-0.750			
0.0127	809.77	4.0540	4.0539	-0.4434	5.99	0.00	-0.750			
0.0140	897.31	4.0510	4.0511	-0.4589	5.99	0.00	-0.750			
0.0154	987.35	4.0480	4.0480	-0.4809	5.99	0.00	-0.750			
0.0169	1081.12	4.0450	4.0451	-0.4987	5.99	0.00	-0.750			
0.0184	1178.12	4.0420	4.0419	-0.5150	5.99	0.00	-0.750			
0.0200	1279.30	4.0390	4.0390	-0.5346	5.99	0.00	-0.750			
0.0216	1384.23	4.0360	4.0360	-0.5524	5.99	0.00	-0.750			
0.0233	1492.09	4.0330	4.0330	-0.5673	5.99	0.00	-0.750			
0.0250	1603.08	4.0300	4.0301	-0.5886	6.00	0.01	-0.750			
0.0268	1715.88	4.0270	4.0270	-0.6032	6.00	0.01	-0.750			
0.0287	1835.94	4.0240	4.0239	-0.6149	6.00	0.01	-0.750			
0.0306	1956.02	4.0210	4.0210	-0.6269	6.01	0.02	-0.750			
0.0325	2077.45	4.0180	4.0180	-0.6348	6.01	0.02	-0.750			
0.0344	2201.48	4.0150	4.0149	-0.6432	6.01	0.02	-0.750			
0.0363	2324.91	4.0120	4.0119	-0.6534	6.02	0.03	-0.750			
0.0382	2447.96	4.0090	4.0090	-0.6609	6.03	0.04	-0.750			
0.0403	2579.22	4.0060	4.0059	-0.6665	6.03	0.04	-0.750			
0.0424	2710.49	4.0030	4.0030	-0.6745	6.04	0.05	-0.750			
0.0444	2839.95	4.0000	4.0001	-0.6806	6.05	0.06	-0.750			
0.0464	2971.06	3.9970	3.9970	-0.6853	6.05	0.06	-0.750			
0.0485	3101.31	3.9940	3.9938	-0.6921	6.06	0.07	-0.750			
0.0505	3233.17	3.9910	3.9910	-0.7002	6.06	0.07	-0.750			
0.0526	3368.17	3.9880	3.9880	-0.7083	6.07	0.08	-0.750			
0.0548	3508.57	3.9850	3.9849	-0.7200	6.07	0.08	-0.750			
0.0570	3647.63	3.9820	3.9821	-0.7204	6.08	0.09	-0.750			
0.0591	3785.10	3.9790	3.9791	-0.7229	6.08	0.09	-0.750			
0.0613	3923.93	3.9760	3.9761	-0.7254	6.09	0.10	-0.750			
0.0635	4062.72	3.9730	3.9728	-0.7319	6.10	0.11	-0.750			
0.0657	4204.53	3.9700	3.9700	-0.7326	6.11	0.12	-0.750			
0.0679	4347.73	3.9670	3.9668	-0.7296	6.12	0.13	-0.750			
0.0701	4488.66	3.9640	3.9641	-0.7330	6.13	0.14	-0.750			
0.0723	4628.08	3.9610	3.9610	-0.7365	6.13	0.14	-0.750			
0.0745	4765.94	3.9580	3.9579	-0.7364	6.14	0.15	-0.750			
0.0767	4907.88	3.9550	3.9548	-0.7466	6.15	0.16	-0.750			
0.0789	5051.70	3.9520	3.9521	-0.7466	6.16	0.17	-0.750			
0.0813	5201.26	3.9490	3.9489	-0.7568	6.16	0.17	-0.750			
0.0835	5346.71	3.9460	3.9462	-0.7557	6.17	0.18	-0.750			
0.0858	5489.95	3.9430	3.9431	-0.7525	6.18	0.19	-0.750			
0.0880	5632.77	3.9400	3.9399	-0.7563	6.19	0.20	-0.750			
0.0903	5776.05	3.9370	3.9370	-0.7600	6.19	0.20	-0.750			
0.0926	5925.24	3.9340	3.9339	-0.7646	6.20	0.21	-0.750			
0.0949	6073.46	3.9310	3.9309	-0.7654	6.21	0.22	-0.750			
0.0972	6222.05	3.9280	3.9280	-0.7697	6.22	0.23	-0.750			
0.0995	6367.16	3.9250	3.9251	-0.7759	6.22	0.23	-0.750			
0.1018	6517.02	3.9220	3.9220	-0.7761	6.23	0.24	-0.750			
0.1042	6666.01	3.9190	3.9189	-0.7768	6.24	0.25	-0.750			
0.1065	6818.58	3.9160	3.9159	-0.7776	6.25	0.26	-0.750			
0.1089	6970.13	3.9130	3.9134	-0.7746	6.26	0.27	-0.750			
0.1112	7117.27	3.9100	3.9099	-0.7679	6.27	0.28	-0.750			
0.1135	7261.43	3.9070	3.9069	-0.7642	6.28	0.29	-0.750			
0.1157	7403.27	3.9040	3.9041	-0.7587	6.29	0.30	-0.750			
0.1180	7551.14	3.9010	3.9009	-0.7726	6.30	0.31	-0.750			
0.1203	7702.09	3.8980	3.8980	-0.7786	6.31	0.32	-0.750			
0.1227	7854.12	3.8950	3.8950	-0.7833	6.32	0.33	-0.750			
0.1251	8005.92	3.8920	3.8921	-0.7896	6.33	0.34	-0.750			
0.1275	8157.74	3.8890	3.8890	-0.7891	6.34	0.35	-0.750			
0.1298	8306.87	3.8860	3.8860	-0.7893	6.35	0.36	-0.750			
0.1322	8458.62	3.8830	3.8829	-0.7916	6.36	0.37	-0.750			
0.1345	8611.05	3.8800	3.8802	-0.7914	6.37	0.38	-0.750			
0.1370	8764.81	3.8770	3.8769	-0.7954	6.38	0.39	-0.750			
0.1393	8916.86	3.8740	3.8739	-0.7937	6.39	0.40	-0.750			
0.1417	9068.81	3.8710	3.8711	-0.7894	6.40	0.41	-0.750			
0.1441	9220.40	3.8680	3.8680	-0.7910	6.41	0.42	-0.750			
0.1464	9371.68	3.8650	3.8651	-0.7909	6.42	0.43	-0.750			
0.1488	9523.45	3.8620	3.8620	-0.7991	6.43	0.44	-0.750			
0.1512	9677.25	3.8590	3.8590	-0.8089	6.44	0.45	-0.750			
0.1537	9833.92	3.8560	3.8558	-0.8133	6.45	0.46	-0.750			
0.1561	9991.62	3.8530	3.8530	-0.8185	6.45	0.46	-0.750			
0.1586	10149.69	3.8500	3.8502	-0.8262	6.46	0.47	-0.750			
0.1611	10310.56	3.8470	3.8471	-0.8250	6.47	0.48	-0.750			
0.1636	10470.01	3.8440	3.8438	-0.8214	6.48	0.49	-0.750			
0.1660	10625.41	3.8410	3.8411	-0.8138	6.49	0.50	-0.750			
0.1685	10783.60	3.8380	3.8381	-0.8126	6.50	0.51	-0.750			
0.1709	10936.30	3.8350	3.8351	-0.8129	6.51	0.52	-0.750			
0.1733	11091.38	3.8320	3.8320	-0.8129	6.52	0.53	-0.750			
0.1757	11246.33	3.8290	3.8290	-0.8193	6.53	0.54	-0.750			
0.1782	11405.36	3.8260	3.8260	-0.8294	6.54	0.55	-0.750			
0.1807	11567.95	3.8230	3.8229	-0.8346	6.55	0.56	-0.750			
0.1833	11728.91	3.8200	3.8202	-0.8335	6.56	0.57	-0.750			
0.1858	11889.64	3.8170	3.8170	-0.8362	6.57	0.58	-0.750			
0.1883	12048.20	3.8140	3.8141	-0.8302	6.58	0.59	-0.750			
0.1907	12207.68	3.8110	3.8110	-0.8277	6.58	0.59	-0.750			
0.1932	12366.27	3.8080	3.8079	-0.8289	6.59	0.60	-0.750			
0.1957	12525.22	3.8050	3.8050	-0.8232	6.60	0.61	-0.750			
0.1982	12684.69	3.8020	3.8020	-0.8252	6.61	0.62	-0.750			
0.2006	12840.90	3.7990	3.7990	-0.8209	6.62	0.63	-0.750			
0.2031	12997.88	3.7960	3.7960	-0.8171	6.63	0.64	-0.750			
0.2055	13153.60	3.7930	3.7931	-0.8285	6.64	0.65	-0.750			
0.2080	13312.31	3.7900	3.7900	-0.8352	6.65	0.66	-0.750			
0.2105	13474.04	3.7870	3.7869	-0.8401	6.66	0.67	-0.750			
0.2131	13636.24	3.7840	3.7840	-0.8549	6.67	0.68	-0.750			
0.2157	13802.91	3.7810	3.7811	-0.8570	6.68	0.69	-0.750			
0.2183	13969.84	3.7780	3.7780	-0.8599	6.69	0.70	-0.750			
0.2209	14136.40	3.7750	3.7751	-0.8598	6.70	0.71	-0.750			
0.2234	14300.14	3.7720	3.7721	-0.8505	6.71	0.72	-0.750			
0.2260	14464.09	3.7690	3.7689	-0.8475	6.72	0.73	-0.750			
0.2285	14625.01	3.7660	3.7660	-0.8464	6.72	0.73	-0.750			
0.2310	14785.65	3.7630	3.7630	-0.8397	6.73	0.74	-0.750			
0.2335	14947.18	3.7600	3.7600	-0.8432	6.74	0.75	-0.750			
0.2361	15109.00	3.7570	3.7571	-0.8446	6.75	0.76	-0.750			
0.2386	15272.13	3.7540	3.7539	-0.8490	6.76	0.77	-0.750			
0.2412	15435.58	3.7510	3.7509	-0.8539	6.77	0.78	-0.750			
0.2438	15600.55	3.7480	3.7480	-0.8533	6.77	0.78	-0.750			
0.2463	15763.79	3.7450	3.7451	-0.8572	6.78	0.79	-0.750			
0.2489	15930.74	3.7420	3.7420	-0.8639	6.79	0.80	-0.750			
0.2515	16096.73	3.7390	3.7389	-0.8685	6.80	0.81	-0.750			
0.2541	16262.96	3.7360	3.7362	-0.8701	6.81	0.82	-0.750			
0.2568	16432.26	3.7330	3.7329	-0.8800	6.82	0.83	-0.750			
0.2594	16599.72	3.7300	3.7301	-0.8852	6.82	0.83	-0.750			
0.2621	16771.71	3.7270	3.7269	-0.8897	6.83	0.84	-0.750			
0.2647	16941.96	3.7240	3.7241	-0.8864	6.84	0.85	-0.750			
0.2674	17113.35	3.7210	3.7209	-0.8886	6.85	0.86	-0.750			
0.2701	17285.79	3.7180	3.7180	-0.8920	6.86	0.87	-0.750			
0.2728	17456.58	3.7150	3.7149	-0.8927	6.86	0.87	-0.750			
0.2754	17625.76	3.7120	3.7121	-0.8962	6.87	0.88	-0.750			
0.2781	17797.13	3.7090	3.7090	-0.9024	6.88	0.89	-0.750			
0.2808	17973.21	3.7060	3.7060	-0.9131	6.88	0.89	-0.750			
0.2836	18150.65	3.7030	3.7031	-0.9234	6.89	0.90	-0.750			
0.2864	18327.95	3.7000	3.7001	-0.9282	6.90	0.91	-0.750			
0.2892	18508.89	3.6970	3.6969	-0.9361	6.90	0.91	-0.750			
0.2920	18689.93	3.6940	3.6940	-0.9323	6.91	0.92	-0.750			
0.2948	18868.51	3.6910	3.6910	-0.9293	6.92	0.93	-0.750			
0.2976	19045.97	3.6880	3.6881	-0.9337	6.92	0.93	-0.750			
0.3004	19226.64	3.6850	3.6849	-0.9385	6.93	0.94	-0.750			
0.3032	19405.93	3.6820	3.6820	-0.9378	6.94	0.95	-0.750			
0.3060	19586.00	3.6790	3.6790	-0.9404	6.94	0.95	-0.750			
0.3089	19767.51	3.6760	3.6761	-0.9420	6.95	0.96	-0.750			
0.3117	19948.43	3.6730	3.6730	-0.9541	6.96	0.97	-0.750			
0.3145	20129.48	3.6700	3.6700	-0.9638	6.96	0.97	-0.750			
0.3174	20311.95	3.6670	3.6669	-0.9781	6.97	0.98	-0.750			
0.3204	20502.68	3.6640	3.6640	-1.0028	6.98	0.99	-0.750			
0.3234	20699.11	3.6610	3.6610	-1.0141	6.98	0.99	-0.750			
0.3265	20898.37	3.6580	3.6580	-1.0288	6.99	1.00	-0.750			
0.3297	21099.80	3.6550	3.6550	-1.0288	6.99	1.00	-0.750			
0.3328	21297.39	3.6520	3.6519	-1.0223	7.00	1.01	-0.750			
0.3358	21492.27	3.6490	3.6490	-1.0217	7.00	1.01	-0.750			
0.3389	21687.19	3.6460	3.6461	-1.0205	7.01	1.02	-0.750			
0.3419	21880.45	3.6430	3.6429	-1.0227	7.01	1.02	-0.750			
0.3450	22078.26	3.6400	3.6399	-1.0277	7.02	1.03	-0.750			
0.3480	22273.03	3.6370	3.6370	-1.0477	7.02	1.03	-0.750			
0.3512	22477.30	3.6340	3.6339	-1.0628	7.03	1.04	-0.750			
0.3544	22682.81	3.6310	3.6310	-1.0808	7.03	1.04	-0.750			
0.3577	22892.07	3.6280	3.6282	-1.0945	7.04	1.05	-0.750			
0.3610	23105.87	3.6250	3.6250	-1.1112	7.05	1.06	-0.750			
0.3644	23320.07	3.6220	3.6220	-1.1283	7.05	1.06	-0.750			
0.3678	23539.85	3.6190	3.6190	-1.1327	7.06	1.07	-0.750			
0.3712	23754.41	3.6160	3.6160	-1.1419	7.07	1.08	-0.750			
0.3747	23980.43	3.6130	3.6130	-1.1536	7.07	1.08	-0.750			
0.3781	24200.87	3.6100	3.6101	-1.1566	7.08	1.09	-0.750			
0.3816	24421.23	3.6070	3.6070	-1.1756	7.08	1.09	-0.750			
0.3851	24647.78	3.6040	3.6040	-1.1863	7.08	1.09	-0.750			
0.3887	24878.93	3.6010	3.6008	-1.1866	7.09	1.10	-0.750			
0.3924	25111.07	3.5980	3.5977	-1.1991	7.09	1.10	-0.750			
0.3959	25338.31	3.5950	3.5953	-1.2081	7.10	1.11	-0.750	0.428	0.924	
0.3996	25572.66	3.5920	3.5918	-1.2172	7.11	1.12	-0.750			
0.4032	25805.03	3.5890	3.5889	-1.2204	7.12	1.13	-0.750			
0.4068	26035.02	3.5860	3.5860	-1.2218	7.13	1.14	-0.750			
0.4106	26279.90	3.5830	3.5830	-1.2477	7.13	1.14	-0.750			
0.4144	26520.06	3.5800	3.5800	-1.2543	7.13	1.14	-0.750			
0.4180	26754.74	3.5770	3.5770	-1.2659	7.14	1.15	-0.750			
0.4218	26995.91	3.5740	3.5741	-1.2807	7.14	1.15	-0.750			
0.4258	27249.39	3.5710	3.5709	-1.2980	7.14	1.15	-0.750			
0.4297	27501.60	3.5680	3.5679	-1.3051	7.15	1.16	-0.750			
0.4337	27757.14	3.5650	3.5652	-1.3165	7.15	1.16	-0.750			
0.4377	28011.66	3.5620	3.5621	-1.3256	7.16	1.17	-0.750			
0.4416	28262.88	3.5590	3.5588	-1.3248	7.16	1.17	-0.750			
0.4455	28514.81	3.5560	3.5561	-1.3334	7.17	1.18	-0.750			
0.4495	28769.25	3.5530	3.5530	-1.3443	7.18	1.19	-0.750			
0.4536	29031.25	3.5500	3.5499	-1.3581	7.18	1.19	-0.750			
0.4577	29295.64	3.5470	3.5470	-1.3750	7.19	1.20	-0.750			
0.4619	29558.87	3.5440	3.5441	-1.3880	7.19	1.20	-0.750			
0.4661	29829.32	3.5410	3.5410	-1.3928	7.20	1.21	-0.750			
0.4703	30099.36	3.5380	3.5380	-1.4053	7.20	1.21	-0.750			
0.4745	30370.37	3.5350	3.5350	-1.4045	7.20	1.21	-0.750			
0.4787	30638.99	3.5320	3.5320	-1.4124	7.21	1.22	-0.750			
0.4829	30908.79	3.5290	3.5292	-1.4315	7.21	1.22	-0.750			
0.4873	31186.66	3.5260	3.5259	-1.4269	7.22	1.23	-0.750			
0.4916	31463.15	3.5230	3.5227	-1.4280	7.22	1.23	-0.750			
0.4960	31741.67	3.5200	3.5203	-1.4282	7.23	1.24	-0.750			
0.5002	32015.12	3.5170	3.5171	-1.4286	7.23	1.24	-0.750			
0.5046	32293.23	3.5140	3.5138	-1.4283	7.24	1.25	-0.750			
0.5088	32560.29	3.5110	3.5112	-1.4150	7.24	1.25	-0.750			
0.5130	32831.84	3.5080	3.5081	-1.4269	7.25	1.26	-0.750			
0.5173	33108.27	3.5050	3.5050	-1.4377	7.26	1.27	-0.750			
0.5217	33386.63	3.5020	3.5021	-1.4355	7.27	1.28	-0.750			
0.5261	33667.74	3.4990	3.4987	-1.4366	7.27	1.28	-0.750			
0.5303	33939.95	3.4960	3.4961	-1.4138	7.28	1.29	-0.750			
0.5346	34212.57	3.4930	3.4931	-1.4228	7.28	1.29	-0.750			
0.5388	34484.25	3.4900	3.4899	-1.4321	7.29	1.30	-0.750			
0.5430	34750.83	3.4870	3.4868	-1.4261	7.30	1.31	-0.750			
0.5474	35034.31	3.4840	3.4841	-1.4227	7.31	1.32	-0.750			
0.5517	35307.95	3.4810	3.4809	-1.4309	7.32	1.33	-0.750			
0.5560	35585.41	3.4780	3.4782	-1.4326	7.33	1.34	-0.750			
0.5603	35860.27	3.4750	3.4748	-1.3992	7.33	1.34	-0.750			
0.5645	36129.93	3.4720	3.4719	-1.3805	7.34	1.35	-0.750			
0.5686	36387.72	3.4690	3.4689	-1.3611	7.35	1.36	-0.750			
0.5726	36648.26	3.4660	3.4658	-1.3626	7.35	1.36	-0.750			
0.5767	36911.44	3.4630	3.4629	-1.3632	7.36	1.37	-0.750			
0.5807	37164.08	3.4600	3.4599	-1.3508	7.37	1.38	-0.750			
0.5848	37427.16	3.4570	3.4571	-1.3456	7.38	1.39	-0.750			
0.5890	37692.83	3.4540	3.4540	-1.3517	7.39	1.40	-0.750			
0.5930	37952.90	3.4510	3.4509	-1.3340	7.40	1.41	-0.750			
0.5970	38206.31	3.4480	3.4480	-1.3027	7.41	1.42	-0.750			
0.6008	38453.49	3.4450	3.4451	-1.2845	7.42	1.43	-0.750			
0.6046	38696.81	3.4420	3.4419	-1.2656	7.43	1.44	-0.750			
0.6084	38935.29	3.4390	3.4392	-1.2476	7.44	1.45	-0.750			
0.6122	39178.57	3.4360	3.4359	-1.2363	7.45	1.46	-0.750			
0.6158	39413.04	3.4330	3.4330	-1.2214	7.46	1.47	-0.750			
0.6195	39647.34	3.4300	3.4300	-1.2091	7.48	1.49	-0.750			
0.6231	39877.19	3.4270	3.4271	-1.2008	7.49	1.50	-0.750			
0.6267	40106.82	3.4240	3.4239	-1.1743	7.50	1.51	-0.750			
0.6302	40330.36	3.4210	3.4210	-1.1551	7.51	1.52	-0.750			
0.6336	40550.62	3.4180	3.4182	-1.1354	7.52	1.53	-0.750			
0.6370	40770.30	3.4150	3.4148	-1.1185	7.53	1.54	-0.750			
0.6403	40980.55	3.4120	3.4120	-1.0813	7.54	1.55	-0.750			
0.6435	41184.92	3.4090	3.4090	-1.0499	7.55	1.56	-0.750			
0.6466	41382.50	3.4060	3.4061	-1.0334	7.56	1.57	-0.750			
0.6497	41579.62	3.4030	3.4029	-1.0156	7.58	1.59	-0.750			
0.6527	41771.05	3.4000	3.3999	-0.9856	7.59	1.60	-0.750			
0.6556	41958.43	3.3970	3.3971	-0.9649	7.60	1.61	-0.750			
0.6585	42142.97	3.3940	3.3942	-0.9454	7.61	1.62	-0.750			
0.6613	42322.68	3.3910	3.3909	-0.9271	7.62	1.63	-0.750			
0.6640	42498.50	3.3880	3.3879	-0.8967	7.64	1.65	-0.750			
0.6667	42665.71	3.3850	3.3850	-0.8713	7.65	1.66	-0.750			
0.6693	42832.02	3.3820	3.3820	-0.8513	7.66	1.67	-0.750			
0.6718	42993.40	3.3790	3.3790	-0.8292	7.67	1.68	-0.750			
0.6742	43148.15	3.3760	3.3760	-0.8089	7.69	1.70	-0.750			
0.6766	43301.19	3.3730	3.3730	-0.7920	7.70	1.71	-0.750			
0.6789	43452.05	3.3700	3.3700	-0.7707	7.71	1.72	-0.750			
0.6813	43600.70	3.3670	3.3670	-0.7560	7.72	1.73	-0.750			
0.6835	43744.11	3.3640	3.3641	-0.7313	7.73	1.74	-0.750			
0.6857	43883.17	3.3610	3.3610	-0.7086	7.74	1.75	-0.750			
0.6877	44015.52	3.3580	3.3579	-0.6859	7.75	1.76	-0.750			
0.6898	44144.27	3.3550	3.3550	-0.6647	7.76	1.77	-0.750			
0.6917	44270.50	3.3520	3.3519	-0.6431	7.77	1.78	-0.750			
0.6936	44391.42	3.3490	3.3490	-0.6275	7.78	1.79	-0.750			
0.6955	44509.99	3.3460	3.3461	-0.6101	7.79	1.80	-0.750			
0.6973	44625.48	3.3430	3.3429	-0.5991	7.80	1.81	-0.750			
0.6990	44737.65	3.3400	3.3400	-0.5862	7.81	1.82	-0.750			
0.7008	44848.81	3.3370	3.3370	-0.5757	7.82	1.83	-0.750			
0.7025	44958.70	3.3340	3.3341	-0.5672	7.83	1.84	-0.750			
0.7042	45069.93	3.3310	3.3309	-0.5543	7.84	1.85	-0.750			
0.7059	45174.43	3.3280	3.3280	-0.5359	7.85	1.86	-0.750			
0.7074	45275.07	3.3250	3.3250	-0.5233	7.86	1.87	-0.750			
0.7090	45372.97	3.3220	3.3220	-0.5089	7.87	1.88	-0.750			
0.7105	45468.85	3.3190	3.3189	-0.4940	7.88	1.89	-0.750			
0.7119	45562.51	3.3160	3.3159	-0.4827	7.89	1.90	-0.750			
0.7133	45653.80	3.3130	3.3132	-0.4743	7.90	1.91	-0.750			
0.7148	45744.70	3.3100	3.3100	-0.4681	7.91	1.92	-0.750			
0.7161	45833.23	3.3070	3.3069	-0.4593	7.92	1.93	-0.750			
0.7175	45920.61	3.3040	3.3040	-0.4505	7.93	1.94	-0.750			
0.7188	46006.04	3.3010	3.3010	-0.4440	7.94	1.95	-0.750			
0.7202	46092.10	3.2980	3.2980	-0.4344	7.95	1.96	-0.750			
0.7215	46174.96	3.2950	3.2951	-0.4242	7.96	1.97	-0.750			
0.7227	46254.23	3.2920	3.2920	-0.4149	7.97	1.98	-0.750			
0.7239	46332.48	3.2890	3.2891	-0.4049	7.98	1.99	-0.750			
0.7251	46409.47	3.2860	3.2859	-0.3953	7.98	1.99	-0.750			
0.7263	46484.36	3.2830	3.2830	-0.3870	7.99	2.00	-0.750			
0.7275	46557.84	3.2800	3.2801	-0.3771	8.00	2.01	-0.750			
0.7286	46629.69	3.2770	3.2770	-0.3705	8.01	2.02	-0.750			
0.7297	46698.97	3.2740	3.2740	-0.3637	8.02	2.03	-0.750			
0.7307	46767.86	3.2710	3.2708	-0.3579	8.03	2.04	-0.750			
0.7318	46836.37	3.2680	3.2681	-0.3524	8.04	2.05	-0.750			
0.7329	46903.90	3.2650	3.2650	-0.3459	8.05	2.06	-0.750			
0.7339	46970.30	3.2620	3.2621	-0.3394	8.06	2.07	-0.750			
0.7349	47034.92	3.2590	3.2590	-0.3331	8.07	2.08	-0.750			
0.7359	47096.93	3.2560	3.2558	-0.3246	8.07	2.08	-0.750			
0.7368	47158.23	3.2530	3.2531	-0.3187	8.08	2.09	-0.750			
0.7378	47218.65	3.2500	3.2500	-0.3133	8.09	2.10	-0.750			
0.7387	47279.09	3.2470	3.2470	-0.3101	8.10	2.11	-0.750			
0.7397	47338.23	3.2440	3.2440	-0.3045	8.11	2.12	-0.750			
0.7406	47396.36	3.2410	3.2410	-0.2978	8.12	2.13	-0.750			
0.7414	47452.50	3.2380	3.2380	-0.2927	8.13	2.14	-0.750			
0.7423	47507.78	3.2350	3.2350	-0.2878	8.14	2.15	-0.750			
0.7432	47562.53	3.2320	3.2319	-0.2835	8.14	2.15	-0.750			
0.7440	47616.09	3.2290	3.2289	-0.2800	8.15	2.16	-0.750			
0.7448	47669.15	3.2260	3.2261	-0.2774	8.16	2.17	-0.750			
0.7457	47722.59	3.2230	3.2230	-0.2756	8.16	2.17	-0.750			
0.7465	47775.73	3.2200	3.2199	-0.2725	8.17	2.18	-0.750			
0.7473	47827.73	3.2170	3.2170	-0.2686	8.18	2.19	-0.750			
0.7481	47878.98	3.2140	3.2141	-0.2648	8.19	2.20	-0.750			
0.7489	47929.70	3.2110	3.2110	-0.2600	8.19	2.20	-0.750			
0.7497	47978.48	3.2080	3.2081	-0.2562	8.20	2.21	-0.750			
0.7504	48027.09	3.2050	3.2050	-0.2529	8.21	2.22	-0.750			
0.7512	48074.92	3.2020	3.2020	-0.2498	8.22	2.23	-0.750			
0.7519	48123.05	3.1990	3.1989	-0.2462	8.23	2.24	-0.750			
0.7527	48170.22	3.1960	3.1961	-0.2434	8.24	2.25	-0.750			
0.7534	48216.67	3.1930	3.1930	-0.2402	8.25	2.26	-0.750			
0.7541	48262.25	3.1900	3.1901	-0.2372	8.25	2.26	-0.750			
0.7548	48307.70	3.1870	3.1869	-0.2342	8.26	2.27	-0.750			
0.7555	48351.78	3.1840	3.1840	-0.2302	8.27	2.28	-0.750			
0.7562	48396.00	3.1810	3.1810	-0.2272	8.27	2.28	-0.750			
0.7569	48439.05	3.1780	3.1781	-0.2254	8.28	2.29	-0.750			
0.7575	48482.32	3.1750	3.1750	-0.2233	8.28	2.29	-0.750			
0.7582	48524.63	3.1720	3.1719	-0.2212	8.29	2.30	-0.750			
0.7589	48567.39	3.1690	3.1688	-0.2172	8.30	2.31	-0.750			
0.7595	48608.63	3.1660	3.1661	-0.2146	8.31	2.32	-0.750			
0.7601	48649.57	3.1630	3.1631	-0.2118	8.31	2.32	-0.750			
0.7608	48690.06	3.1600	3.1601	-0.2103	8.32	2.33	-0.750			
0.7614	48730.35	3.1570	3.1568	-0.2075	8.33	2.34	-0.750			
0.7620	48769.28	3.1540	3.1540	-0.2039	8.34	2.35	-0.750			
0.7626	48808.30	3.1510	3.1511	-0.2025	8.35	2.36	-0.750			
0.7632	48847.02	3.1480	3.1481	-0.2009	8.35	2.36	-0.750			
0.7638	48886.12	3.1450	3.1449	-0.1997	8.36	2.37	-0.750			
0.7644	48923.66	3.1420	3.1421	-0.1967	8.37	2.38	-0.750			
0.7650	48961.26	3.1390	3.1389	-0.1950	8.38	2.39	-0.750			
0.7656	48998.34	3.1360	3.1361	-0.1932	8.38	2.39	-0.750			
0.7662	49035.52	3.1330	3.1330	-0.1921	8.39	2.40	-0.750			
0.7668	49072.66	3.1300	3.1300	-0.1890	8.40	2.41	-0.750			
0.7673	49108.66	3.1270	3.1270	-0.1860	8.41	2.42	-0.750			
0.7679	49144.12	3.1240	3.1239	-0.1842	8.41	2.42	-0.750			
0.7684	49179.00	3.1210	3.1212	-0.1832	8.42	2.43	-0.750			
0.7690	49213.71	3.1180	3.1179	-0.1808	8.43	2.44	-0.750			
0.7695	49248.35	3.1150	3.1148	-0.1799	8.43	2.44	-0.750			
0.7700	49282.72	3.1120	3.1120	-0.1776	8.44	2.45	-0.750			
0.7706	49316.65	3.1090	3.1091	-0.1766	8.45	2.46	-0.750			
0.7711	49351.10	3.1060	3.1061	-0.1763	8.45	2.46	-0.750			
0.7716	49384.69	3.1030	3.1029	-0.1736	8.46	2.47	-0.750			
0.7721	49417.43	3.1000	3.0999	-0.1717	8.47	2.48	-0.750			
0.7727	49449.77	3.0970	3.0971	-0.1705	8.48	2.49	-0.750			
0.7732	49482.70	3.0940	3.0940	-0.1698	8.49	2.50	-0.750			
0.7737	49515.21	3.0910	3.0909	-0.1688	8.49	2.50	-0.750			
0.7742	49547.64	3.0880	3.0880	-0.1680	8.50	2.51	-0.750			
0.7747	49579.80	3.0850	3.0851	-0.1659	8.51	2.52	-0.750			
0.7752	49611.65	3.0820	3.0820	-0.1652	8.52	2.53	-0.750			
0.7757	49643.21	3.0790	3.0789	-0.1635	8.53	2.54	-0.750			
0.7762	49674.41	3.0760	3.0761	-0.1620	8.53	2.54	-0.750			
0.7766	49705.33	3.0730	3.0729	-0.1597	8.54	2.55	-0.750			
0.7771	49735.75	3.0700	3.0700	-0.1587	8.55	2.56	-0.750			
0.7776	49766.08	3.0670	3.0670	-0.1573	8.56	2.57	-0.750			
0.7781	49795.84	3.0640	3.0641	-0.1567	8.56	2.57	-0.750			
0.7785	49825.86	3.0610	3.0610	-0.1564	8.57	2.58	-0.750			
0.7790	49855.83	3.0580	3.0579	-0.1549	8.57	2.58	-0.750			
0.7795	49885.52	3.0550	3.0550	-0.1544	8.58	2.59	-0.750			
0.7799	49915.49	3.0520	3.0520	-0.1528	8.59	2.60	-0.750			
0.7804	49945.03	3.0490	3.0491	-0.1521	8.59	2.60	-0.750			
0.7808	49973.67	3.0460	3.0460	-0.1502	8.60	2.61	-0.750			
0.7813	50002.38	3.0430	3.0430	-0.1488	8.60	2.61	-0.750			
0.7817	50030.64	3.0400	3.0399	-0.1469	8.61	2.62	-0.750			
0.7822	50058.54	3.0370	3.0370	-0.1458	8.62	2.63	-0.750			
0.7826	50086.28	3.0340	3.0341	-0.1458	8.62	2.63	-0.750			
0.7830	50114.26	3.0310	3.0311	-0.1457	8.63	2.64	-0.750			
0.7835	50142.25	3.0280	3.0279	-0.1456	8.63	2.64	-0.750			
0.7839	50170.16	3.0250	3.0249	-0.1447	8.64	2.65	-0.750			
0.7843	50197.93	3.0220	3.0220	-0.1444	8.64	2.65	-0.750			
0.7848	50225.79	3.0190	3.0191	-0.1430	8.65	2.66	-0.750			
0.7852	50253.54	3.0160	3.0160	-0.1424	8.65	2.66	-0.750			
0.7856	50280.52	3.0130	3.0131	-0.1414	8.66	2.67	-0.750			
0.7860	50307.13	3.0100	3.0099	-0.1398	8.67	2.68	-0.750			
0.7865	50333.97	3.0070	3.0070	-0.1398	8.67	2.68	-0.750			
0.7869	50360.66	3.0040	3.0040	-0.1410	8.68	2.69	-0.750			
0.7873	50387.98	3.0010	3.0010	-0.1448	8.68	2.69	-0.750			
