Ah_balance (normalized)	Ah_balance (mAh)	Voltage - fit (V)	Voltage -  interpolate (V)	dQ/dV (1/V)	Temperature (°C)	Temperature - diff (°C)	Current (C)	R_DC 0ms (mOhm)	R_DC 50ms (mOhm)	R_DC 50 ms PEC (mOhm)
0.0003	21.34	4.1630	4.1644	-0.2618	25.53	0.01	-0.750			
0.0011	70.83	4.1600	4.1605	-0.2640	25.53	0.01	-0.750			
0.0019	120.62	4.1570	4.1572	-0.2822	25.53	0.01	-0.750			
0.0028	176.87	4.1540	4.1538	-0.3121	25.53	0.01	-0.750			
0.0037	239.15	4.1510	4.1510	-0.3473	25.52	0.00	-0.750			
0.0048	306.66	4.1480	4.1479	-0.3798	25.52	0.00	-0.750			
0.0060	384.34	4.1450	4.1451	-0.4173	25.52	-0.00	-0.750			
0.0073	468.59	4.1420	4.1420	-0.4525	25.51	-0.01	-0.750			
0.0087	559.44	4.1390	4.1390	-0.4830	25.51	-0.01	-0.750			
0.0102	655.32	4.1360	4.1359	-0.5125	25.50	-0.02	-0.750			
0.0118	756.79	4.1330	4.1331	-0.5405	25.50	-0.02	-0.750			
0.0135	863.85	4.1300	4.1299	-0.5639	25.49	-0.03	-0.750			
0.0152	975.22	4.1270	4.1270	-0.5870	25.49	-0.03	-0.750			
0.0170	1091.05	4.1240	4.1240	-0.6030	25.48	-0.04	-0.750			
0.0189	1208.53	4.1210	4.1210	-0.6206	25.48	-0.04	-0.750			
0.0208	1329.38	4.1180	4.1179	-0.6371	25.47	-0.05	-0.750			
0.0227	1451.24	4.1150	4.1151	-0.6540	25.47	-0.05	-0.750			
0.0247	1580.44	4.1120	4.1119	-0.6628	25.47	-0.05	-0.750			
0.0267	1711.16	4.1090	4.1090	-0.6734	25.46	-0.06	-0.750			
0.0288	1841.22	4.1060	4.1060	-0.6791	25.46	-0.06	-0.750			
0.0308	1972.88	4.1030	4.1029	-0.6893	25.46	-0.06	-0.750			
0.0329	2105.20	4.1000	4.0999	-0.6915	25.46	-0.06	-0.750			
0.0349	2236.19	4.0970	4.0970	-0.6976	25.45	-0.07	-0.750			
0.0370	2370.33	4.0940	4.0940	-0.7010	25.45	-0.07	-0.750			
0.0392	2508.13	4.0910	4.0911	-0.7144	25.45	-0.07	-0.750			
0.0413	2646.31	4.0880	4.0879	-0.7184	25.44	-0.08	-0.750			
0.0435	2784.52	4.0850	4.0849	-0.7206	25.44	-0.08	-0.750			
0.0457	2922.49	4.0820	4.0821	-0.7243	25.44	-0.08	-0.750			
0.0479	3063.16	4.0790	4.0790	-0.7334	25.44	-0.08	-0.750			
0.0501	3205.58	4.0760	4.0759	-0.7337	25.43	-0.09	-0.750			
0.0523	3347.59	4.0730	4.0730	-0.7370	25.43	-0.09	-0.750			
0.0545	3488.40	4.0700	4.0702	-0.7377	25.43	-0.09	-0.750			
0.0567	3630.52	4.0670	4.0669	-0.7409	25.43	-0.09	-0.750			
0.0589	3772.25	4.0640	4.0640	-0.7423	25.43	-0.09	-0.750			
0.0612	3914.58	4.0610	4.0610	-0.7439	25.42	-0.10	-0.750			
0.0634	4057.36	4.0580	4.0580	-0.7443	25.42	-0.10	-0.750			
0.0657	4204.01	4.0550	4.0550	-0.7466	25.42	-0.10	-0.750			
0.0679	4346.87	4.0520	4.0520	-0.7450	25.42	-0.10	-0.750			
0.0701	4488.54	4.0490	4.0490	-0.7490	25.42	-0.10	-0.750			
0.0724	4631.85	4.0460	4.0460	-0.7573	25.42	-0.10	-0.750			
0.0746	4776.39	4.0430	4.0431	-0.7634	25.42	-0.10	-0.750			
0.0770	4926.58	4.0400	4.0399	-0.7680	25.42	-0.10	-0.750			
0.0793	5074.36	4.0370	4.0370	-0.7680	25.42	-0.10	-0.750			
0.0816	5223.45	4.0340	4.0340	-0.7683	25.42	-0.10	-0.750			
0.0839	5369.04	4.0310	4.0310	-0.7681	25.43	-0.09	-0.750			
0.0862	5515.24	4.0280	4.0280	-0.7639	25.43	-0.09	-0.750			
0.0885	5661.51	4.0250	4.0249	-0.7684	25.43	-0.09	-0.750			
0.0908	5810.03	4.0220	4.0220	-0.7723	25.44	-0.08	-0.750			
0.0931	5959.10	4.0190	4.0191	-0.7798	25.44	-0.08	-0.750			
0.0955	6109.14	4.0160	4.0159	-0.7832	25.44	-0.08	-0.750			
0.0978	6261.26	4.0130	4.0130	-0.7832	25.44	-0.08	-0.750			
0.1002	6410.78	4.0100	4.0100	-0.7795	25.44	-0.08	-0.750			
0.1025	6561.02	4.0070	4.0070	-0.7827	25.44	-0.08	-0.750			
0.1049	6710.66	4.0040	4.0043	-0.7826	25.44	-0.08	-0.750			
0.1072	6861.03	4.0010	4.0009	-0.7846	25.44	-0.08	-0.750			
0.1095	7010.88	3.9980	3.9980	-0.7864	25.44	-0.08	-0.750			
0.1119	7163.16	3.9950	3.9950	-0.7924	25.44	-0.08	-0.750			
0.1143	7318.05	3.9920	3.9919	-0.7924	25.44	-0.08	-0.750			
0.1167	7468.83	3.9890	3.9891	-0.7913	25.44	-0.08	-0.750			
0.1191	7619.24	3.9860	3.9860	-0.7917	25.44	-0.08	-0.750			
0.1214	7770.48	3.9830	3.9829	-0.7979	25.45	-0.07	-0.750			
0.1238	7923.50	3.9800	3.9799	-0.7977	25.45	-0.07	-0.750			
0.1262	8076.47	3.9770	3.9771	-0.8040	25.45	-0.07	-0.750			
0.1287	8234.53	3.9740	3.9740	-0.8071	25.46	-0.06	-0.750			
0.1311	8390.75	3.9710	3.9709	-0.8106	25.46	-0.06	-0.750			
0.1335	8543.49	3.9680	3.9681	-0.8105	25.46	-0.06	-0.750			
0.1360	8700.94	3.9650	3.9649	-0.8089	25.46	-0.06	-0.750			
0.1384	8856.54	3.9620	3.9619	-0.8069	25.46	-0.06	-0.750			
0.1408	9012.35	3.9590	3.9590	-0.8082	25.46	-0.06	-0.750			
0.1432	9165.57	3.9560	3.9560	-0.8095	25.46	-0.06	-0.750			
0.1456	9320.61	3.9530	3.9530	-0.8185	25.46	-0.06	-0.750			
0.1481	9476.79	3.9500	3.9499	-0.8191	25.46	-0.06	-0.750			
0.1505	9635.03	3.9470	3.9470	-0.8251	25.47	-0.05	-0.750			
0.1531	9797.23	3.9440	3.9440	-0.8316	25.47	-0.05	-0.750			
0.1556	9957.88	3.9410	3.9411	-0.8352	25.47	-0.05	-0.750			
0.1581	10118.35	3.9380	3.9379	-0.8325	25.47	-0.05	-0.750			
0.1606	10276.62	3.9350	3.9350	-0.8336	25.47	-0.05	-0.750			
0.1631	10437.16	3.9320	3.9320	-0.8317	25.48	-0.04	-0.750			
0.1656	10598.29	3.9290	3.9290	-0.8368	25.48	-0.04	-0.750			
0.1681	10759.98	3.9260	3.9261	-0.8378	25.48	-0.04	-0.750			
0.1706	10920.26	3.9230	3.9230	-0.8394	25.49	-0.03	-0.750			
0.1731	11080.58	3.9200	3.9200	-0.8397	25.49	-0.03	-0.750			
0.1756	11239.57	3.9170	3.9170	-0.8387	25.49	-0.03	-0.750			
0.1782	11403.15	3.9140	3.9139	-0.8466	25.50	-0.02	-0.750			
0.1807	11567.84	3.9110	3.9110	-0.8477	25.50	-0.02	-0.750			
0.1833	11729.53	3.9080	3.9080	-0.8468	25.51	-0.01	-0.750			
0.1858	11893.00	3.9050	3.9050	-0.8465	25.51	-0.01	-0.750			
0.1883	12053.15	3.9020	3.9021	-0.8456	25.51	-0.01	-0.750			
0.1909	12215.60	3.8990	3.8989	-0.8501	25.52	-0.00	-0.750			
0.1934	12378.40	3.8960	3.8960	-0.8526	25.52	0.00	-0.750			
0.1960	12544.09	3.8930	3.8930	-0.8588	25.52	0.00	-0.750			
0.1986	12711.36	3.8900	3.8900	-0.8648	25.52	0.00	-0.750			
0.2012	12876.06	3.8870	3.8871	-0.8640	25.52	0.00	-0.750			
0.2038	13044.00	3.8840	3.8840	-0.8659	25.52	0.00	-0.750			
0.2064	13209.36	3.8810	3.8809	-0.8629	25.52	0.00	-0.750			
0.2090	13375.66	3.8780	3.8779	-0.8680	25.53	0.01	-0.750			
0.2116	13542.61	3.8750	3.8751	-0.8646	25.54	0.02	-0.750			
0.2142	13707.97	3.8720	3.8720	-0.8652	25.54	0.02	-0.750			
0.2168	13875.65	3.8690	3.8690	-0.8657	25.55	0.03	-0.750			
0.2194	14040.96	3.8660	3.8659	-0.8661	25.55	0.03	-0.750			
0.2220	14206.44	3.8630	3.8630	-0.8715	25.55	0.03	-0.750			
0.2246	14373.84	3.8600	3.8600	-0.8717	25.56	0.04	-0.750			
0.2272	14541.54	3.8570	3.8570	-0.8707	25.56	0.04	-0.750			
0.2299	14712.05	3.8540	3.8542	-0.8764	25.56	0.04	-0.750			
0.2325	14878.29	3.8510	3.8510	-0.8789	25.56	0.04	-0.750			
0.2351	15047.78	3.8480	3.8480	-0.8794	25.57	0.05	-0.750			
0.2378	15216.35	3.8450	3.8449	-0.8771	25.57	0.05	-0.750			
0.2404	15385.65	3.8420	3.8419	-0.8774	25.58	0.06	-0.750			
0.2430	15554.50	3.8390	3.8392	-0.8760	25.58	0.06	-0.750			
0.2457	15721.75	3.8360	3.8360	-0.8826	25.59	0.07	-0.750			
0.2483	15890.88	3.8330	3.8330	-0.8806	25.59	0.07	-0.750			
0.2509	16058.88	3.8300	3.8299	-0.8752	25.59	0.07	-0.750			
0.2536	16229.13	3.8270	3.8269	-0.8764	25.60	0.08	-0.750			
0.2562	16397.98	3.8240	3.8240	-0.8766	25.60	0.08	-0.750			
0.2588	16564.89	3.8210	3.8210	-0.8785	25.61	0.09	-0.750			
0.2614	16731.85	3.8180	3.8179	-0.8774	25.61	0.09	-0.750			
0.2641	16899.96	3.8150	3.8150	-0.8724	25.61	0.09	-0.750			
0.2667	17070.11	3.8120	3.8120	-0.8803	25.62	0.10	-0.750			
0.2694	17239.65	3.8090	3.8090	-0.8881	25.62	0.10	-0.750			
0.2720	17410.68	3.8060	3.8060	-0.8868	25.63	0.11	-0.750			
0.2747	17580.56	3.8030	3.8029	-0.8811	25.63	0.11	-0.750			
0.2773	17749.62	3.8000	3.8000	-0.8761	25.64	0.12	-0.750			
0.2800	17918.43	3.7970	3.7974	-0.8771	25.64	0.12	-0.750			
0.2826	18086.97	3.7940	3.7939	-0.8747	25.64	0.12	-0.750			
0.2852	18253.80	3.7910	3.7910	-0.8751	25.65	0.13	-0.750			
0.2878	18421.36	3.7880	3.7880	-0.8760	25.65	0.13	-0.750			
0.2905	18592.22	3.7850	3.7849	-0.8774	25.66	0.14	-0.750			
0.2931	18761.11	3.7820	3.7821	-0.8746	25.66	0.14	-0.750			
0.2958	18928.46	3.7790	3.7789	-0.8771	25.67	0.15	-0.750			
0.2984	19096.17	3.7760	3.7760	-0.8720	25.67	0.15	-0.750			
0.3010	19261.28	3.7730	3.7729	-0.8654	25.67	0.15	-0.750			
0.3036	19429.50	3.7700	3.7700	-0.8702	25.68	0.16	-0.750			
0.3062	19597.68	3.7670	3.7671	-0.8654	25.68	0.16	-0.750			
0.3088	19763.20	3.7640	3.7639	-0.8677	25.69	0.17	-0.750			
0.3114	19928.83	3.7610	3.7610	-0.8645	25.69	0.17	-0.750			
0.3140	20094.45	3.7580	3.7580	-0.8622	25.69	0.17	-0.750			
0.3166	20260.63	3.7550	3.7549	-0.8694	25.70	0.18	-0.750			
0.3192	20427.70	3.7520	3.7520	-0.8711	25.70	0.18	-0.750			
0.3218	20595.33	3.7490	3.7491	-0.8727	25.70	0.18	-0.750			
0.3244	20764.47	3.7460	3.7459	-0.8744	25.70	0.18	-0.750			
0.3270	20930.60	3.7430	3.7430	-0.8705	25.70	0.18	-0.750			
0.3297	21098.51	3.7400	3.7402	-0.8735	25.70	0.18	-0.750			
0.3323	21265.42	3.7370	3.7370	-0.8769	25.70	0.18	-0.750			
0.3349	21432.95	3.7340	3.7340	-0.8784	25.71	0.19	-0.750			
0.3375	21602.37	3.7310	3.7309	-0.8887	25.71	0.19	-0.750			
0.3402	21772.81	3.7280	3.7281	-0.8994	25.72	0.20	-0.750			
0.3429	21946.39	3.7250	3.7250	-0.9139	25.72	0.20	-0.750			
0.3457	22123.13	3.7220	3.7220	-0.9324	25.72	0.20	-0.750			
0.3485	22305.04	3.7190	3.7190	-0.9452	25.72	0.20	-0.750			
0.3514	22487.72	3.7160	3.7160	-0.9543	25.72	0.20	-0.750			
0.3543	22673.78	3.7130	3.7131	-0.9689	25.72	0.20	-0.750			
0.3572	22860.39	3.7100	3.7099	-0.9829	25.72	0.20	-0.750			
0.3602	23050.76	3.7070	3.7069	-0.9889	25.73	0.21	-0.750			
0.3631	23240.07	3.7040	3.7040	-1.0004	25.73	0.21	-0.750			
0.3661	23431.19	3.7010	3.7008	-1.0153	25.74	0.22	-0.750			
0.3692	23629.34	3.6980	3.6979	-1.0394	25.74	0.22	-0.750			
0.3723	23829.65	3.6950	3.6949	-1.0579	25.74	0.22	-0.750			
0.3755	24032.94	3.6920	3.6920	-1.0774	25.74	0.22	-0.750			
0.3787	24239.57	3.6890	3.6891	-1.1002	25.74	0.22	-0.750			
0.3822	24459.60	3.6860	3.6860	-1.1382	25.74	0.22	-0.750			
0.3856	24680.68	3.6830	3.6829	-1.1542	25.74	0.22	-0.750			
0.3891	24903.85	3.6800	3.6800	-1.1746	25.74	0.22	-0.750			
0.3927	25131.24	3.6770	3.6772	-1.2002	25.74	0.22	-0.750			
0.3963	25364.35	3.6740	3.6740	-1.2252	25.73	0.21	-0.750			
0.4000	25601.65	3.6710	3.6709	-1.2472	25.73	0.21	-0.750			
0.4037	25839.04	3.6680	3.6680	-1.2750	25.72	0.20	-0.750			
0.4076	26089.13	3.6650	3.6650	-1.3096	25.72	0.20	-0.750			
0.4116	26344.51	3.6620	3.6620	-1.3330	25.71	0.19	-0.750			
0.4157	26602.14	3.6590	3.6590	-1.3703	25.70	0.18	-0.750			
0.4198	26868.62	3.6560	3.6560	-1.4018	25.70	0.18	-0.750			
0.4240	27138.48	3.6530	3.6529	-1.4424	25.69	0.17	-0.750			
0.4284	27420.70	3.6500	3.6501	-1.4858	25.69	0.17	-0.750			
0.4330	27711.24	3.6470	3.6469	-1.5180	25.69	0.17	-0.750			
0.4376	28008.84	3.6440	3.6438	-1.5558	25.68	0.16	-0.750			
0.4424	28312.17	3.6410	3.6413	-1.5870	25.68	0.16	-0.750			
0.4472	28619.58	3.6380	3.6381	-1.6087	25.67	0.15	-0.750			
0.4520	28930.02	3.6350	3.6349	-1.6550	25.66	0.14	-0.750			
0.4571	29251.96	3.6320	3.6318	-1.6824	25.66	0.14	-0.750			
0.4622	29580.56	3.6290	3.6289	-1.7248	25.65	0.13	-0.750			
0.4674	29912.45	3.6260	3.6260	-1.7599	25.64	0.12	-0.750	0.408	0.494	
0.4728	30257.14	3.6230	3.6231	-1.7882	25.63	0.11	-0.750			
0.4782	30602.51	3.6200	3.6200	-1.8276	25.62	0.10	-0.750			
0.4836	30949.76	3.6170	3.6169	-1.8451	25.61	0.09	-0.750			
0.4892	31308.56	3.6140	3.6138	-1.8854	25.60	0.08	-0.750			
0.4950	31677.18	3.6110	3.6110	-1.9214	25.60	0.08	-0.750			
0.5008	32050.06	3.6080	3.6079	-1.9570	25.59	0.07	-0.750			
0.5068	32434.83	3.6050	3.6050	-1.9848	25.58	0.06	-0.750			
0.5128	32818.25	3.6020	3.6020	-2.0109	25.57	0.05	-0.750			
0.5188	33204.06	3.5990	3.5991	-2.0466	25.56	0.04	-0.750			
0.5249	33596.45	3.5960	3.5961	-2.0909	25.56	0.04	-0.750			
0.5313	34004.24	3.5930	3.5928	-2.1414	25.56	0.04	-0.750			
0.5379	34423.60	3.5900	3.5899	-2.1665	25.55	0.03	-0.750			
0.5444	34841.25	3.5870	3.5872	-2.2055	25.54	0.02	-0.750			
0.5512	35277.18	3.5840	3.5840	-2.2375	25.54	0.02	-0.750			
0.5579	35708.04	3.5810	3.5808	-2.2644	25.53	0.01	-0.750			
0.5647	36138.82	3.5780	3.5780	-2.2805	25.52	0.00	-0.750			
0.5716	36583.07	3.5750	3.5751	-2.3133	25.52	0.00	-0.750			
0.5786	37033.30	3.5720	3.5718	-2.3363	25.52	0.00	-0.750			
0.5857	37482.59	3.5690	3.5691	-2.3631	25.52	0.00	-0.750			
0.5928	37937.13	3.5660	3.5661	-2.3698	25.52	0.00	-0.750			
0.6000	38399.80	3.5630	3.5630	-2.3880	25.52	0.00	-0.750			
0.6072	38861.84	3.5600	3.5599	-2.3671	25.52	0.00	-0.750			
0.6144	39319.81	3.5570	3.5570	-2.3659	25.52	0.00	-0.750			
0.6215	39774.14	3.5540	3.5541	-2.3686	25.52	0.00	-0.750			
0.6285	40226.91	3.5510	3.5510	-2.3514	25.52	0.00	-0.750			
0.6355	40672.23	3.5480	3.5480	-2.3311	25.52	0.00	-0.750			
0.6425	41122.43	3.5450	3.5452	-2.3268	25.52	0.00	-0.750			
0.6496	41575.87	3.5420	3.5420	-2.3073	25.52	0.00	-0.750			
0.6565	42017.82	3.5390	3.5390	-2.2676	25.52	0.00	-0.750			
0.6632	42447.03	3.5360	3.5359	-2.2299	25.53	0.01	-0.750			
0.6699	42871.85	3.5330	3.5331	-2.1857	25.54	0.02	-0.750			
0.6764	43289.51	3.5300	3.5299	-2.1362	25.54	0.02	-0.750			
0.6827	43691.47	3.5270	3.5272	-2.0790	25.54	0.02	-0.750			
0.6888	44085.53	3.5240	3.5240	-2.0260	25.55	0.03	-0.750			
0.6949	44473.71	3.5210	3.5207	-1.9880	25.56	0.04	-0.750			
0.7007	44847.45	3.5180	3.5179	-1.9188	25.57	0.05	-0.750			
0.7065	45212.95	3.5150	3.5151	-1.8599	25.59	0.07	-0.750			
0.7120	45568.07	3.5120	3.5121	-1.7928	25.60	0.08	-0.750			
0.7172	45902.84	3.5090	3.5089	-1.7224	25.62	0.10	-0.750			
0.7223	46227.66	3.5060	3.5059	-1.6574	25.64	0.12	-0.750			
0.7272	46541.18	3.5030	3.5030	-1.6038	25.65	0.13	-0.750			
0.7319	46841.95	3.5000	3.4999	-1.5450	25.67	0.15	-0.750			
0.7365	47134.11	3.4970	3.4971	-1.4912	25.68	0.16	-0.750			
0.7409	47416.88	3.4940	3.4938	-1.4450	25.70	0.18	-0.750			
0.7451	47686.63	3.4910	3.4910	-1.3862	25.71	0.19	-0.750			
0.7492	47950.54	3.4880	3.4880	-1.3401	25.72	0.20	-0.750			
0.7531	48200.09	3.4850	3.4850	-1.2992	25.73	0.21	-0.750			
0.7569	48443.21	3.4820	3.4820	-1.2514	25.75	0.23	-0.750			
0.7606	48680.86	3.4790	3.4790	-1.2140	25.76	0.24	-0.750			
0.7642	48909.58	3.4760	3.4761	-1.1755	25.78	0.26	-0.750			
0.7677	49131.52	3.4730	3.4732	-1.1389	25.79	0.27	-0.750			
0.7711	49348.62	3.4700	3.4699	-1.1030	25.80	0.28	-0.750			
0.7743	49556.54	3.4670	3.4670	-1.0581	25.81	0.29	-0.750			
0.7774	49754.17	3.4640	3.4640	-1.0159	25.81	0.29	-0.750			
0.7804	49944.41	3.4610	3.4611	-0.9892	25.82	0.30	-0.750			
0.7833	50128.83	3.4580	3.4577	-0.9682	25.83	0.31	-0.750			
0.7861	50309.45	3.4550	3.4550	-0.9440	25.85	0.33	-0.750			
0.7889	50486.70	3.4520	3.4520	-0.9431	25.86	0.34	-0.750			
0.7917	50666.45	3.4490	3.4491	-0.9495	25.87	0.35	-0.750			
0.7945	50848.63	3.4460	3.4459	-0.9698	25.88	0.36	-0.750			
0.7974	51031.60	3.4430	3.4430	-0.9902	25.89	0.37	-0.750			
0.8004	51222.88	3.4400	3.4400	-1.0187	25.90	0.38	-0.750			
0.8034	51419.28	3.4370	3.4370	-1.0625	25.91	0.39	-0.750			
0.8067	51631.02	3.4340	3.4340	-1.1148	25.92	0.40	-0.750			
0.8102	51851.10	3.4310	3.4308	-1.1430	25.93	0.41	-0.750			
0.8137	52077.62	3.4280	3.4280	-1.1739	25.94	0.42	-0.750			
0.8173	52307.19	3.4250	3.4254	-1.1904	25.95	0.43	-0.750			
0.8210	52542.77	3.4220	3.4219	-1.1807	25.96	0.44	-0.750			
0.8246	52774.93	3.4190	3.4189	-1.1612	25.97	0.45	-0.750			
0.8280	52993.94	3.4160	3.4160	-1.1243	25.98	0.46	-0.750			
0.8314	53209.27	3.4130	3.4130	-1.1005	25.99	0.47	-0.750			
0.8346	53415.81	3.4100	3.4099	-1.0546	26.00	0.48	-0.750			
0.8377	53612.51	3.4070	3.4070	-1.0089	26.00	0.48	-0.750			
0.8407	53802.20	3.4040	3.4040	-0.9706	26.01	0.49	-0.750			
0.8436	53987.53	3.4010	3.4011	-0.9382	26.01	0.49	-0.750			
0.8463	54162.76	3.3980	3.3979	-0.9065	26.02	0.50	-0.750			
0.8489	54332.75	3.3950	3.3950	-0.8688	26.03	0.51	-0.750			
0.8515	54495.26	3.3920	3.3919	-0.8320	26.04	0.52	-0.750			
0.8540	54653.63	3.3890	3.3889	-0.8033	26.05	0.53	-0.750			
0.8563	54805.10	3.3860	3.3860	-0.7714	26.05	0.53	-0.750			
0.8586	54949.08	3.3830	3.3829	-0.7378	26.06	0.54	-0.750			
0.8607	55086.82	3.3800	3.3800	-0.7071	26.07	0.55	-0.750			
0.8628	55218.12	3.3770	3.3770	-0.6753	26.08	0.56	-0.750			
0.8648	55347.27	3.3740	3.3740	-0.6544	26.08	0.56	-0.750			
0.8667	55470.07	3.3710	3.3710	-0.6262	26.09	0.57	-0.750			
0.8685	55586.98	3.3680	3.3679	-0.6018	26.09	0.57	-0.750			
0.8703	55700.23	3.3650	3.3650	-0.5766	26.10	0.58	-0.750			
0.8720	55808.09	3.3620	3.3620	-0.5520	26.11	0.59	-0.750			
0.8736	55911.60	3.3590	3.3590	-0.5290	26.11	0.59	-0.750			
0.8752	56011.09	3.3560	3.3560	-0.5095	26.12	0.60	-0.750			
0.8767	56106.79	3.3530	3.3529	-0.4864	26.12	0.60	-0.750			
0.8781	56197.97	3.3500	3.3500	-0.4666	26.12	0.60	-0.750			
0.8794	56284.79	3.3470	3.3471	-0.4472	26.13	0.61	-0.750			
0.8808	56369.25	3.3440	3.3440	-0.4308	26.13	0.61	-0.750			
0.8820	56450.29	3.3410	3.3409	-0.4115	26.14	0.62	-0.750			
0.8832	56527.19	3.3380	3.3380	-0.3938	26.15	0.63	-0.750			
0.8844	56600.64	3.3350	3.3351	-0.3777	26.15	0.63	-0.750			
0.8855	56672.39	3.3320	3.3320	-0.3635	26.16	0.64	-0.750			
0.8866	56739.92	3.3290	3.3290	-0.3473	26.16	0.64	-0.750			
0.8876	56804.52	3.3260	3.3260	-0.3327	26.17	0.65	-0.750			
0.8886	56867.46	3.3230	3.3231	-0.3196	26.17	0.65	-0.750			
0.8895	56927.71	3.3200	3.3198	-0.3088	26.18	0.66	-0.750			
0.8904	56985.30	3.3170	3.3171	-0.2961	26.18	0.66	-0.750			
0.8913	57040.75	3.3140	3.3140	-0.2842	26.19	0.67	-0.750			
0.8921	57094.54	3.3110	3.3111	-0.2741	26.19	0.67	-0.750			
0.8929	57145.94	3.3080	3.3080	-0.2629	26.19	0.67	-0.750			
0.8937	57195.03	3.3050	3.3050	-0.2543	26.20	0.68	-0.750			
0.8944	57242.76	3.3020	3.3020	-0.2474	26.20	0.68	-0.750			
0.8951	57288.83	3.2990	3.2989	-0.2385	26.21	0.69	-0.750			
0.8958	57334.12	3.2960	3.2959	-0.2331	26.21	0.69	-0.750			
0.8965	57378.56	3.2930	3.2930	-0.2264	26.22	0.70	-0.750			
0.8972	57421.50	3.2900	3.2901	-0.2202	26.22	0.70	-0.750			
0.8979	57463.34	3.2870	3.2870	-0.2149	26.23	0.71	-0.750			
0.8985	57503.92	3.2840	3.2840	-0.2079	26.23	0.71	-0.750			
0.8991	57542.67	3.2810	3.2810	-0.2016	26.23	0.71	-0.750			
0.8997	57580.48	3.2780	3.2780	-0.1953	26.24	0.72	-0.750			
0.9003	57617.24	3.2750	3.2751	-0.1913	26.24	0.72	-0.750			
0.9008	57653.56	3.2720	3.2720	-0.1871	26.24	0.72	-0.750			
0.9014	57689.13	3.2690	3.2690	-0.1822	26.25	0.73	-0.750			
0.9019	57723.37	3.2660	3.2659	-0.1780	26.25	0.73	-0.750			
0.9025	57756.98	3.2630	3.2631	-0.1742	26.26	0.74	-0.750			
0.9030	57790.12	3.2600	3.2601	-0.1710	26.26	0.74	-0.750			
0.9035	57822.65	3.2570	3.2569	-0.1676	26.26	0.74	-0.750			
0.9040	57854.65	3.2540	3.2539	-0.1644	26.26	0.74	-0.750			
0.9045	57885.56	3.2510	3.2511	-0.1603	26.27	0.75	-0.750			
0.9049	57915.96	3.2480	3.2481	-0.1580	26.27	0.75	-0.750			
0.9054	57946.32	3.2450	3.2449	-0.1557	26.28	0.76	-0.750			
0.9059	57975.66	3.2420	3.2421	-0.1524	26.28	0.76	-0.750			
0.9063	58004.66	3.2390	3.2389	-0.1504	26.28	0.76	-0.750			
0.9068	58033.24	3.2360	3.2361	-0.1478	26.29	0.77	-0.750			
0.9072	58061.54	3.2330	3.2329	-0.1457	26.29	0.77	-0.750			
0.9076	58089.42	3.2300	3.2300	-0.1434	26.30	0.78	-0.750			
0.9081	58116.59	3.2270	3.2271	-0.1413	26.30	0.78	-0.750			
0.9085	58143.23	3.2240	3.2240	-0.1393	26.31	0.79	-0.750			
0.9089	58170.03	3.2210	3.2210	-0.1372	26.31	0.79	-0.750			
0.9093	58196.16	3.2180	3.2179	-0.1350	26.31	0.79	-0.750			
0.9097	58221.73	3.2150	3.2151	-0.1333	26.32	0.80	-0.750			
0.9101	58247.18	3.2120	3.2121	-0.1318	26.32	0.80	-0.750			
0.9105	58272.32	3.2090	3.2089	-0.1300	26.32	0.80	-0.750			
0.9109	58297.11	3.2060	3.2060	-0.1283	26.33	0.81	-0.750			
0.9113	58321.43	3.2030	3.2030	-0.1265	26.33	0.81	-0.750			
0.9116	58345.47	3.2000	3.2001	-0.1250	26.33	0.81	-0.750			
0.9120	58369.57	3.1970	3.1969	-0.1241	26.34	0.82	-0.750			
0.9124	58392.97	3.1940	3.1940	-0.1231	26.34	0.82	-0.750			
0.9128	58416.18	3.1910	3.1909	-0.1215	26.35	0.83	-0.750			
0.9131	58439.57	3.1880	3.1881	-0.1204	26.35	0.83	-0.750			
0.9135	58462.57	3.1850	3.1849	-0.1194	26.35	0.83	-0.750			
0.9138	58485.48	3.1820	3.1819	-0.1183	26.36	0.84	-0.750			
0.9142	58508.27	3.1790	3.1790	-0.1175	26.36	0.84	-0.750			
0.9145	58530.73	3.1760	3.1761	-0.1160	26.36	0.84	-0.750			
0.9149	58552.98	3.1730	3.1730	-0.1147	26.37	0.85	-0.750			
0.9152	58574.65	3.1700	3.1699	-0.1137	26.37	0.85	-0.750			
0.9156	58596.12	3.1670	3.1670	-0.1121	26.37	0.85	-0.750			
0.9159	58617.52	3.1640	3.1640	-0.1115	26.38	0.86	-0.750			
0.9162	58638.77	3.1610	3.1609	-0.1108	26.38	0.86	-0.750			
0.9166	58660.13	3.1580	3.1580	-0.1097	26.38	0.86	-0.750			
0.9169	58681.12	3.1550	3.1550	-0.1089	26.39	0.87	-0.750			
0.9172	58701.98	3.1520	3.1521	-0.1079	26.39	0.87	-0.750			
0.9175	58722.82	3.1490	3.1489	-0.1072	26.39	0.87	-0.750			
0.9179	58743.19	3.1460	3.1460	-0.1062	26.40	0.88	-0.750			
0.9182	58763.35	3.1430	3.1430	-0.1050	26.40	0.88	-0.750			
0.9185	58783.34	3.1400	3.1399	-0.1044	26.41	0.89	-0.750			
0.9188	58803.15	3.1370	3.1371	-0.1036	26.41	0.89	-0.750			
0.9191	58823.03	3.1340	3.1340	-0.1029	26.41	0.89	-0.750			
0.9194	58842.79	3.1310	3.1310	-0.1024	26.42	0.90	-0.750			
0.9197	58862.40	3.1280	3.1281	-0.1017	26.42	0.90	-0.750			
0.9200	58881.89	3.1250	3.1251	-0.1011	26.43	0.91	-0.750			
0.9203	58901.20	3.1220	3.1220	-0.1006	26.43	0.91	-0.750			
0.9206	58920.44	3.1190	3.1189	-0.1000	26.43	0.91	-0.750			
0.9209	58939.69	3.1160	3.1160	-0.0988	26.44	0.92	-0.750			
0.9212	58958.63	3.1130	3.1129	-0.0980	26.44	0.92	-0.750			
0.9215	58977.25	3.1100	3.1101	-0.0974	26.45	0.93	-0.750			
0.9218	58995.90	3.1070	3.1071	-0.0967	26.45	0.93	-0.750			
0.9221	59014.41	3.1040	3.1039	-0.0960	26.45	0.93	-0.750			
0.9224	59032.71	3.1010	3.1010	-0.0952	26.46	0.94	-0.750			
0.9227	59050.90	3.0980	3.0980	-0.0946	26.46	0.94	-0.750			
0.9230	59068.87	3.0950	3.0951	-0.0939	26.47	0.95	-0.750			
0.9232	59086.90	3.0920	3.0920	-0.0934	26.47	0.95	-0.750			
0.9235	59104.96	3.0890	3.0889	-0.0931	26.47	0.95	-0.750			
0.9238	59122.71	3.0860	3.0860	-0.0927	26.48	0.96	-0.750			
0.9241	59140.28	3.0830	3.0830	-0.0919	26.48	0.96	-0.750			
0.9243	59157.90	3.0800	3.0801	-0.0916	26.48	0.96	-0.750			
0.9246	59175.58	3.0770	3.0769	-0.0910	26.49	0.97	-0.750			
0.9249	59192.99	3.0740	3.0739	-0.0904	26.49	0.97	-0.750			
0.9252	59210.24	3.0710	3.0710	-0.0900	26.50	0.98	-0.750			
0.9254	59227.48	3.0680	3.0680	-0.0896	26.50	0.98	-0.750			
0.9257	59244.65	3.0650	3.0649	-0.0890	26.50	0.98	-0.750			
0.9260	59261.68	3.0620	3.0620	-0.0885	26.51	0.99	-0.750			
0.9262	59278.59	3.0590	3.0590	-0.0879	26.51	0.99	-0.750			
0.9265	59295.42	3.0560	3.0561	-0.0874	26.51	0.99	-0.750			
0.9268	59312.22	3.0530	3.0530	-0.0870	26.52	1.00	-0.750			
0.9270	59328.88	3.0500	3.0500	-0.0864	26.52	1.00	-0.750			
0.9273	59345.26	3.0470	3.0471	-0.0859	26.53	1.01	-0.750			
0.9275	59361.73	3.0440	3.0440	-0.0857	26.53	1.01	-0.750			
0.9278	59378.15	3.0410	3.0410	-0.0854	26.53	1.01	-0.750			
0.9280	59394.52	3.0380	3.0380	-0.0852	26.54	1.02	-0.750			
0.9283	59410.85	3.0350	3.0350	-0.0849	26.54	1.02	-0.750			
0.9285	59427.13	3.0320	3.0320	-0.0847	26.54	1.02	-0.750			
0.9288	59443.53	3.0290	3.0290	-0.0843	26.55	1.03	-0.750			
0.9291	59459.67	3.0260	3.0259	-0.0838	26.55	1.03	-0.750			
0.9293	59475.77	3.0230	3.0230	-0.0833	26.55	1.03	-0.750			
0.9296	59491.71	3.0200	3.0200	-0.0826	26.56	1.04	-0.750			
0.9298	59507.56	3.0170	3.0171	-0.0820	26.56	1.04	-0.750			
0.9301	59523.23	3.0140	3.0140	-0.0812	26.56	1.04	-0.750			
0.9303	59538.73	3.0110	3.0110	-0.0803	26.57	1.05	-0.750			
0.9305	59554.01	3.0080	3.0081	-0.0798	26.57	1.05	-0.750			
0.9308	59569.27	3.0050	3.0050	-0.0792	26.57	1.05	-0.750			
