Ah_balance (normalized)	Ah_balance (mAh)	Voltage - fit (V)	Voltage -  interpolate (V)	dQ/dV (1/V)	Temperature (°C)	Temperature - diff (°C)	Current (C)	R_DC 0ms (mOhm)	R_DC 50ms (mOhm)	R_DC 50 ms PEC (mOhm)
0.0551	3523.56	4.1970	4.1970	0.7671	26.58	0.58	0.750			
0.0574	3671.11	4.1940	4.1940	0.7652	26.58	0.58	0.750			
0.0596	3816.53	4.1910	4.1910	0.7593	26.58	0.58	0.750			
0.0619	3963.85	4.1880	4.1881	0.7481	26.58	0.58	0.750			
0.0641	4104.89	4.1850	4.1850	0.7545	26.58	0.58	0.750			
0.0664	4248.62	4.1820	4.1820	0.7526	26.58	0.58	0.750			
0.0686	4392.24	4.1790	4.1789	0.7535	26.58	0.58	0.750			
0.0709	4537.39	4.1760	4.1761	0.7603	26.58	0.58	0.750			
0.0732	4686.72	4.1730	4.1731	0.7618	26.58	0.58	0.750			
0.0755	4833.53	4.1700	4.1700	0.7644	26.58	0.58	0.750			
0.0778	4980.07	4.1670	4.1670	0.7626	26.58	0.58	0.750			
0.0801	5126.91	4.1640	4.1642	0.7645	26.58	0.58	0.750			
0.0824	5273.88	4.1610	4.1611	0.7707	26.58	0.58	0.750			
0.0847	5421.67	4.1580	4.1580	0.7727	26.58	0.58	0.750			
0.0870	5570.57	4.1550	4.1550	0.7683	26.58	0.58	0.750			
0.0893	5718.17	4.1520	4.1521	0.7709	26.58	0.58	0.750			
0.0917	5867.88	4.1490	4.1490	0.7702	26.58	0.58	0.750			
0.0940	6014.59	4.1460	4.1456	0.7659	26.58	0.58	0.750			
0.0963	6161.22	4.1430	4.1430	0.7648	26.58	0.58	0.750			
0.0986	6307.31	4.1400	4.1400	0.7621	26.58	0.58	0.750			
0.1008	6454.02	4.1370	4.1370	0.7701	26.58	0.58	0.750			
0.1032	6603.22	4.1340	4.1340	0.7764	26.58	0.58	0.750			
0.1055	6751.29	4.1310	4.1309	0.7738	26.58	0.58	0.750			
0.1078	6900.65	4.1280	4.1281	0.7808	26.58	0.58	0.750			
0.1102	7050.17	4.1250	4.1250	0.7867	26.59	0.59	0.750			
0.1125	7202.49	4.1220	4.1220	0.7784	26.59	0.59	0.750			
0.1149	7352.09	4.1190	4.1190	0.7759	26.59	0.59	0.750			
0.1172	7501.17	4.1160	4.1162	0.7707	26.60	0.60	0.750			
0.1195	7646.17	4.1130	4.1125	0.7807	26.60	0.60	0.750			
0.1218	7795.83	4.1100	4.1101	0.7843	26.60	0.60	0.750			
0.1242	7946.17	4.1070	4.1069	0.7847	26.60	0.60	0.750			
0.1265	8097.75	4.1040	4.1041	0.7930	26.60	0.60	0.750			
0.1289	8251.91	4.1010	4.1012	0.7931	26.60	0.60	0.750			
0.1313	8405.87	4.0980	4.0979	0.8021	26.60	0.60	0.750			
0.1338	8561.30	4.0950	4.0950	0.7999	26.60	0.60	0.750			
0.1361	8713.53	4.0920	4.0920	0.7879	26.60	0.60	0.750			
0.1385	8865.75	4.0890	4.0890	0.7966	26.60	0.60	0.750			
0.1409	9018.76	4.0860	4.0860	0.7945	26.60	0.60	0.750			
0.1433	9168.31	4.0830	4.0830	0.7977	26.60	0.60	0.750			
0.1457	9322.33	4.0800	4.0800	0.8008	26.60	0.60	0.750			
0.1481	9478.70	4.0770	4.0770	0.7952	26.60	0.60	0.750			
0.1505	9631.80	4.0740	4.0742	0.8041	26.60	0.60	0.750			
0.1529	9786.19	4.0710	4.0710	0.8095	26.60	0.60	0.750			
0.1553	9939.52	4.0680	4.0680	0.8080	26.60	0.60	0.750			
0.1577	10094.36	4.0650	4.0651	0.8146	26.60	0.60	0.750			
0.1602	10250.84	4.0620	4.0621	0.8146	26.61	0.61	0.750			
0.1627	10410.87	4.0590	4.0590	0.8221	26.61	0.61	0.750			
0.1651	10569.35	4.0560	4.0560	0.8230	26.61	0.61	0.750			
0.1676	10725.45	4.0530	4.0530	0.8224	26.62	0.62	0.750			
0.1700	10882.97	4.0500	4.0500	0.8277	26.62	0.62	0.750			
0.1726	11045.33	4.0470	4.0469	0.8222	26.62	0.62	0.750			
0.1750	11202.39	4.0440	4.0440	0.8252	26.62	0.62	0.750			
0.1775	11360.60	4.0410	4.0411	0.8319	26.61	0.61	0.750			
0.1800	11520.43	4.0380	4.0380	0.8322	26.61	0.61	0.750			
0.1825	11679.31	4.0350	4.0350	0.8340	26.61	0.61	0.750			
0.1850	11840.27	4.0320	4.0321	0.8336	26.61	0.61	0.750			
0.1875	12000.91	4.0290	4.0290	0.8408	26.61	0.61	0.750			
0.1901	12163.85	4.0260	4.0260	0.8488	26.62	0.62	0.750			
0.1926	12325.59	4.0230	4.0230	0.8483	26.62	0.62	0.750			
0.1951	12488.66	4.0200	4.0200	0.8515	26.62	0.62	0.750			
0.1977	12655.23	4.0170	4.0170	0.8530	26.62	0.62	0.750			
0.2003	12818.31	4.0140	4.0140	0.8620	26.62	0.62	0.750			
0.2029	12985.72	4.0110	4.0110	0.8603	26.62	0.62	0.750			
0.2055	13150.59	4.0080	4.0079	0.8573	26.62	0.62	0.750			
0.2080	13314.02	4.0050	4.0051	0.8628	26.62	0.62	0.750			
0.2106	13479.12	4.0020	4.0020	0.8690	26.62	0.62	0.750			
0.2132	13646.27	3.9990	3.9989	0.8639	26.62	0.62	0.750			
0.2158	13812.38	3.9960	3.9961	0.8696	26.62	0.62	0.750			
0.2184	13977.74	3.9930	3.9930	0.8680	26.62	0.62	0.750			
0.2210	14146.77	3.9900	3.9900	0.8796	26.62	0.62	0.750			
0.2237	14315.99	3.9870	3.9870	0.8762	26.62	0.62	0.750			
0.2263	14483.76	3.9840	3.9840	0.8761	26.63	0.63	0.750			
0.2290	14655.27	3.9810	3.9810	0.8879	26.63	0.63	0.750			
0.2316	14822.11	3.9780	3.9778	0.8820	26.63	0.63	0.750			
0.2342	14991.24	3.9750	3.9750	0.8786	26.63	0.63	0.750			
0.2369	15160.31	3.9720	3.9720	0.8821	26.63	0.63	0.750			
0.2395	15329.34	3.9690	3.9690	0.8850	26.64	0.64	0.750			
0.2422	15500.38	3.9660	3.9660	0.8938	26.64	0.64	0.750			
0.2449	15671.36	3.9630	3.9630	0.8926	26.64	0.64	0.750			
0.2476	15843.78	3.9600	3.9600	0.8902	26.64	0.64	0.750			
0.2502	16015.56	3.9570	3.9570	0.8918	26.64	0.64	0.750			
0.2529	16187.50	3.9540	3.9540	0.8925	26.64	0.64	0.750			
0.2556	16358.05	3.9510	3.9510	0.8895	26.64	0.64	0.750			
0.2582	16527.70	3.9480	3.9480	0.8907	26.64	0.64	0.750			
0.2609	16697.88	3.9450	3.9450	0.8827	26.64	0.64	0.750			
0.2636	16867.69	3.9420	3.9421	0.8878	26.63	0.63	0.750			
0.2662	17038.27	3.9390	3.9390	0.8944	26.63	0.63	0.750			
0.2689	17208.82	3.9360	3.9357	0.8965	26.63	0.63	0.750			
0.2716	17381.71	3.9330	3.9331	0.8975	26.63	0.63	0.750			
0.2743	17555.08	3.9300	3.9301	0.9006	26.63	0.63	0.750			
0.2770	17729.81	3.9270	3.9270	0.9051	26.63	0.63	0.750			
0.2798	17905.43	3.9240	3.9239	0.9089	26.63	0.63	0.750			
0.2824	18076.15	3.9210	3.9211	0.9050	26.63	0.63	0.750			
0.2852	18251.53	3.9180	3.9180	0.8996	26.62	0.62	0.750			
0.2879	18422.75	3.9150	3.9150	0.9109	26.62	0.62	0.750			
0.2906	18598.46	3.9120	3.9121	0.9162	26.62	0.62	0.750			
0.2934	18774.83	3.9090	3.9088	0.9187	26.61	0.61	0.750			
0.2961	18952.46	3.9060	3.9061	0.9181	26.61	0.61	0.750			
0.2989	19129.09	3.9030	3.9030	0.9199	26.61	0.61	0.750			
0.3016	19305.41	3.9000	3.9001	0.9254	26.60	0.60	0.750			
0.3044	19484.67	3.8970	3.8970	0.9317	26.60	0.60	0.750			
0.3072	19660.09	3.8940	3.8939	0.9271	26.60	0.60	0.750			
0.3100	19841.17	3.8910	3.8909	0.9312	26.59	0.59	0.750			
0.3128	20020.63	3.8880	3.8881	0.9404	26.58	0.58	0.750			
0.3156	20201.09	3.8850	3.8850	0.9470	26.57	0.57	0.750			
0.3185	20383.57	3.8820	3.8819	0.9512	26.56	0.56	0.750			
0.3214	20567.00	3.8790	3.8791	0.9486	26.56	0.56	0.750			
0.3242	20749.93	3.8760	3.8759	0.9572	26.56	0.56	0.750			
0.3271	20934.16	3.8730	3.8731	0.9614	26.55	0.55	0.750			
0.3300	21118.56	3.8700	3.8700	0.9612	26.55	0.55	0.750			
0.3329	21304.36	3.8670	3.8671	0.9702	26.55	0.55	0.750			
0.3358	21490.83	3.8640	3.8640	0.9653	26.54	0.54	0.750			
0.3387	21676.58	3.8610	3.8610	0.9707	26.53	0.53	0.750			
0.3416	21862.20	3.8580	3.8581	0.9804	26.53	0.53	0.750			
0.3445	22049.98	3.8550	3.8548	0.9810	26.52	0.52	0.750			
0.3475	22239.61	3.8520	3.8520	0.9868	26.51	0.51	0.750			
0.3505	22429.47	3.8490	3.8490	0.9950	26.50	0.50	0.750			
0.3535	22622.06	3.8460	3.8461	1.0037	26.49	0.49	0.750			
0.3565	22819.03	3.8430	3.8429	1.0054	26.48	0.48	0.750			
0.3595	23010.23	3.8400	3.8399	0.9905	26.47	0.47	0.750			
0.3625	23198.25	3.8370	3.8371	0.9962	26.47	0.47	0.750			
0.3655	23389.58	3.8340	3.8340	0.9999	26.46	0.46	0.750			
0.3684	23580.27	3.8310	3.8308	1.0003	26.45	0.45	0.750			
0.3715	23772.83	3.8280	3.8281	1.0021	26.44	0.44	0.750			
0.3744	23964.53	3.8250	3.8251	1.0104	26.43	0.43	0.750			
0.3775	24161.06	3.8220	3.8220	1.0198	26.42	0.42	0.750			
0.3806	24357.23	3.8190	3.8189	1.0198	26.40	0.40	0.750			
0.3836	24553.01	3.8160	3.8161	1.0235	26.40	0.40	0.750			
0.3867	24748.97	3.8130	3.8131	1.0431	26.39	0.39	0.750			
0.3899	24951.35	3.8100	3.8099	1.0557	26.38	0.38	0.750			
0.3931	25156.47	3.8070	3.8069	1.0659	26.37	0.37	0.750			
0.3963	25361.62	3.8040	3.8041	1.0688	26.37	0.37	0.750			
0.3995	25569.81	3.8010	3.8011	1.0795	26.36	0.36	0.750			
0.4028	25776.51	3.7980	3.7981	1.0965	26.35	0.35	0.750			
0.4060	25986.90	3.7950	3.7949	1.1028	26.34	0.34	0.750			
0.4093	26197.82	3.7920	3.7920	1.1033	26.33	0.33	0.750			
0.4127	26410.71	3.7890	3.7892	1.1212	26.32	0.32	0.750			
0.4161	26627.97	3.7860	3.7861	1.1386	26.30	0.30	0.750			
0.4195	26848.87	3.7830	3.7827	1.1460	26.29	0.29	0.750			
0.4229	27067.24	3.7800	3.7800	1.1595	26.28	0.28	0.750			
0.4264	27289.48	3.7770	3.7771	1.1783	26.27	0.27	0.750			
0.4300	27520.21	3.7740	3.7740	1.2120	26.26	0.26	0.750			
0.4336	27750.80	3.7710	3.7710	1.2434	26.24	0.24	0.750			
0.4374	27992.69	3.7680	3.7680	1.2806	26.23	0.23	0.750			
0.4414	28246.42	3.7650	3.7650	1.3110	26.22	0.22	0.750	0.317	0.429	
0.4454	28503.94	3.7620	3.7620	1.3465	26.21	0.21	0.750			
0.4494	28764.62	3.7590	3.7591	1.3735	26.19	0.19	0.750			
0.4537	29034.51	3.7560	3.7560	1.3863	26.17	0.17	0.750			
0.4578	29302.16	3.7530	3.7529	1.4006	26.16	0.16	0.750			
0.4620	29567.43	3.7500	3.7501	1.4435	26.15	0.15	0.750			
0.4664	29849.61	3.7470	3.7472	1.4804	26.14	0.14	0.750			
0.4709	30136.85	3.7440	3.7443	1.5133	26.12	0.12	0.750			
0.4755	30431.52	3.7410	3.7412	1.5470	26.11	0.11	0.750			
0.4802	30729.82	3.7380	3.7381	1.5851	26.10	0.10	0.750			
0.4850	31040.46	3.7350	3.7351	1.6174	26.08	0.08	0.750			
0.4899	31352.35	3.7320	3.7321	1.6675	26.06	0.06	0.750			
0.4949	31673.58	3.7290	3.7288	1.6923	26.05	0.05	0.750			
0.5000	32002.69	3.7260	3.7258	1.7644	26.03	0.03	0.750			
0.5054	32343.10	3.7230	3.7231	1.8031	26.01	0.01	0.750			
0.5109	32699.45	3.7200	3.7201	1.8571	26.00	-0.00	0.750			
0.5166	33062.83	3.7170	3.7172	1.9016	25.98	-0.02	0.750			
0.5224	33432.55	3.7140	3.7140	1.9588	25.96	-0.04	0.750			
0.5283	33810.18	3.7110	3.7110	2.0298	25.94	-0.06	0.750			
0.5345	34208.04	3.7080	3.7079	2.0889	25.93	-0.07	0.750			
0.5408	34610.48	3.7050	3.7050	2.1603	25.92	-0.08	0.750			
0.5474	35035.18	3.7020	3.7021	2.2385	25.90	-0.10	0.750			
0.5543	35475.04	3.6990	3.6988	2.3010	25.89	-0.11	0.750			
0.5613	35920.48	3.6960	3.6960	2.3654	25.87	-0.13	0.750			
0.5684	36377.84	3.6930	3.6931	2.4322	25.85	-0.15	0.750			
0.5759	36857.83	3.6900	3.6899	2.5016	25.83	-0.17	0.750			
0.5834	37338.19	3.6870	3.6871	2.5703	25.82	-0.18	0.750			
0.5913	37840.52	3.6840	3.6841	2.6689	25.80	-0.20	0.750			
0.5994	38362.08	3.6810	3.6809	2.7830	25.78	-0.22	0.750			
0.6079	38906.57	3.6780	3.6779	2.8912	25.77	-0.23	0.750			
0.6169	39480.45	3.6750	3.6751	2.9449	25.75	-0.25	0.750			
0.6257	40047.69	3.6720	3.6720	2.9263	25.75	-0.25	0.750			
0.6347	40621.84	3.6690	3.6689	2.8429	25.75	-0.25	0.750			
0.6432	41167.36	3.6660	3.6659	2.6565	25.73	-0.27	0.750			
0.6510	41666.34	3.6630	3.6631	2.4190	25.73	-0.27	0.750			
0.6577	42092.40	3.6600	3.6599	2.1860	25.73	-0.27	0.750			
0.6638	42482.89	3.6570	3.6569	1.9596	25.72	-0.28	0.750			
0.6690	42819.07	3.6540	3.6536	1.7794	25.72	-0.28	0.750			
0.6741	43139.82	3.6510	3.6514	1.6548	25.73	-0.27	0.750			
0.6788	43442.23	3.6480	3.6481	1.5281	25.74	-0.26	0.750			
0.6832	43727.58	3.6450	3.6450	1.4469	25.74	-0.26	0.750			
0.6875	43998.31	3.6420	3.6422	1.3565	25.73	-0.27	0.750			
0.6914	44248.45	3.6390	3.6389	1.2909	25.72	-0.28	0.750			
0.6950	44482.38	3.6360	3.6359	1.2180	25.72	-0.28	0.750			
0.6985	44702.88	3.6330	3.6331	1.1889	25.72	-0.28	0.750			
0.7019	44921.89	3.6300	3.6301	1.1742	25.73	-0.27	0.750			
0.7054	45147.95	3.6270	3.6268	1.1867	25.73	-0.27	0.750			
0.7090	45372.87	3.6240	3.6240	1.1885	25.73	-0.27	0.750			
0.7126	45606.65	3.6210	3.6210	1.2048	25.73	-0.27	0.750			
0.7163	45841.94	3.6180	3.6181	1.1991	25.73	-0.27	0.750			
0.7200	46076.89	3.6150	3.6150	1.1903	25.73	-0.27	0.750			
0.7235	46301.88	3.6120	3.6120	1.1724	25.73	-0.27	0.750			
0.7269	46523.67	3.6090	3.6090	1.1588	25.74	-0.26	0.750			
0.7304	46743.46	3.6060	3.6060	1.1465	25.74	-0.26	0.750			
0.7338	46961.71	3.6030	3.6031	1.1387	25.74	-0.26	0.750			
0.7372	47177.67	3.6000	3.6000	1.1377	25.74	-0.26	0.750			
0.7405	47394.58	3.5970	3.5971	1.1502	25.75	-0.25	0.750			
0.7440	47616.56	3.5940	3.5938	1.1550	25.75	-0.25	0.750			
0.7474	47834.84	3.5910	3.5910	1.1874	25.75	-0.25	0.750			
0.7510	48062.90	3.5880	3.5881	1.2303	25.74	-0.26	0.750			
0.7547	48302.73	3.5850	3.5850	1.2716	25.74	-0.26	0.750			
0.7586	48552.02	3.5820	3.5821	1.3162	25.74	-0.26	0.750			
0.7626	48807.38	3.5790	3.5792	1.3798	25.73	-0.27	0.750			
0.7669	49082.67	3.5760	3.5760	1.4198	25.72	-0.28	0.750			
0.7713	49360.71	3.5730	3.5732	1.4669	25.72	-0.28	0.750			
0.7756	49640.31	3.5700	3.5702	1.5171	25.72	-0.28	0.750			
0.7804	49943.15	3.5670	3.5670	1.5482	25.72	-0.28	0.750			
0.7852	50251.37	3.5640	3.5640	1.5819	25.72	-0.28	0.750			
0.7900	50556.85	3.5610	3.5611	1.6236	25.72	-0.28	0.750			
0.7948	50866.68	3.5580	3.5582	1.6415	25.72	-0.28	0.750			
0.7999	51192.96	3.5550	3.5552	1.6722	25.72	-0.28	0.750			
0.8048	51506.85	3.5520	3.5523	1.6737	25.73	-0.27	0.750			
0.8098	51829.41	3.5490	3.5489	1.6872	25.73	-0.27	0.750			
0.8151	52164.37	3.5460	3.5461	1.7138	25.74	-0.26	0.750			
0.8201	52488.25	3.5430	3.5433	1.7176	25.74	-0.26	0.750			
0.8253	52817.41	3.5400	3.5398	1.7476	25.74	-0.26	0.750			
0.8306	53156.08	3.5370	3.5370	1.7680	25.75	-0.25	0.750			
0.8364	53528.28	3.5340	3.5337	1.6814	25.76	-0.24	0.750			
0.8417	53869.06	3.5310	3.5309	1.5409	25.77	-0.23	0.750			
0.8464	54170.27	3.5280	3.5286	1.3093	25.79	-0.21	0.750			
0.8500	54402.93	3.5250	3.5252	1.0326	25.81	-0.19	0.750			
0.8525	54557.32	3.5220	3.5216	0.7829	25.82	-0.18	0.750			
0.8538	54645.62	3.5190	3.5188	0.5721	25.83	-0.17	0.750			
0.8550	54721.57	3.5160	3.5158	0.4401	25.83	-0.17	0.750			
0.8561	54790.89	3.5130	3.5129	0.3851	25.84	-0.16	0.750			
0.8571	54855.33	3.5100	3.5099	0.3482	25.84	-0.16	0.750			
0.8581	54918.74	3.5070	3.5071	0.3290	25.85	-0.15	0.750			
0.8591	54979.57	3.5040	3.5039	0.3134	25.86	-0.14	0.750			
0.8600	55038.31	3.5010	3.5010	0.3019	25.86	-0.14	0.750			
0.8608	55094.28	3.4980	3.4980	0.2904	25.87	-0.13	0.750			
0.8617	55148.18	3.4950	3.4950	0.2817	25.87	-0.13	0.750			
0.8625	55201.68	3.4920	3.4919	0.2757	25.88	-0.12	0.750			
0.8633	55253.22	3.4890	3.4890	0.2687	25.88	-0.12	0.750			
0.8641	55304.34	3.4860	3.4861	0.2645	25.89	-0.11	0.750			
0.8649	55354.73	3.4830	3.4829	0.2602	25.89	-0.11	0.750			
0.8657	55404.58	3.4800	3.4799	0.2545	25.90	-0.10	0.750			
0.8665	55452.98	3.4770	3.4770	0.2480	25.90	-0.10	0.750			
0.8672	55500.11	3.4740	3.4740	0.2423	25.91	-0.09	0.750			
0.8679	55545.74	3.4710	3.4710	0.2370	25.91	-0.09	0.750			
0.8686	55590.73	3.4680	3.4680	0.2315	25.92	-0.08	0.750			
0.8693	55634.17	3.4650	3.4650	0.2261	25.92	-0.08	0.750			
0.8700	55677.02	3.4620	3.4620	0.2206	25.92	-0.08	0.750			
0.8706	55719.32	3.4590	3.4591	0.2164	25.93	-0.07	0.750			
0.8713	55760.37	3.4560	3.4560	0.2112	25.93	-0.07	0.750			
0.8719	55800.59	3.4530	3.4531	0.2066	25.94	-0.06	0.750			
0.8725	55839.56	3.4500	3.4500	0.2022	25.94	-0.06	0.750			
0.8731	55877.59	3.4470	3.4469	0.1970	25.94	-0.06	0.750			
0.8737	55915.05	3.4440	3.4441	0.1932	25.95	-0.05	0.750			
0.8742	55951.94	3.4410	3.4409	0.1878	25.95	-0.05	0.750			
0.8748	55987.91	3.4380	3.4380	0.1828	25.96	-0.04	0.750			
0.8753	56022.30	3.4350	3.4351	0.1782	25.96	-0.04	0.750			
0.8759	56056.01	3.4320	3.4320	0.1730	25.96	-0.04	0.750			
0.8764	56088.77	3.4290	3.4289	0.1665	25.97	-0.03	0.750			
0.8769	56120.07	3.4260	3.4259	0.1607	25.97	-0.03	0.750			
0.8774	56150.59	3.4230	3.4232	0.1548	25.97	-0.03	0.750			
0.8778	56179.73	3.4200	3.4201	0.1487	25.98	-0.02	0.750			
0.8782	56207.93	3.4170	3.4169	0.1432	25.98	-0.02	0.750			
0.8787	56234.75	3.4140	3.4141	0.1368	25.98	-0.02	0.750			
0.8791	56260.08	3.4110	3.4110	0.1299	25.98	-0.02	0.750			
0.8794	56284.75	3.4080	3.4079	0.1236	25.99	-0.01	0.750			
0.8798	56308.32	3.4050	3.4050	0.1180	25.99	-0.01	0.750			
0.8802	56330.30	3.4020	3.4020	0.1113	25.99	-0.01	0.750			
0.8805	56352.40	3.3990	3.3989	0.1028	25.99	-0.01	0.750			
0.8808	56371.17	3.3960	3.3960	0.0927	25.99	-0.01	0.750			
0.8811	56388.56	3.3930	3.3931	0.0837	26.00	-0.00	0.750			
0.8813	56403.60	3.3900	3.3903	0.0730	26.00	-0.00	0.750			
0.8815	56417.71	3.3870	3.3874	0.0625	26.00	-0.00	0.750			
0.8817	56428.55	3.3840	3.3846	0.0504	26.00	-0.00	0.750			
0.8818	56437.06	3.3810	3.3821	0.0382	26.00	0.00	0.750			
0.8819	56443.24	3.3780	3.3797	0.0261	26.00	0.00	0.750			
