Ah_balance (normalized)	Ah_balance (mAh)	Voltage - fit (V)	Voltage -  interpolate (V)	dQ/dV (1/V)	Temperature (°C)	Temperature - diff (°C)	Current (C)	R_DC 0ms (mOhm)	R_DC 50ms (mOhm)	R_DC 50 ms PEC (mOhm)
0.0547	3501.20	4.1960	4.1961	0.7467	26.60	0.65	0.750			
0.0569	3643.77	4.1930	4.1930	0.7476	26.59	0.64	0.750			
0.0592	3788.28	4.1900	4.1901	0.7548	26.59	0.64	0.750			
0.0615	3935.18	4.1870	4.1869	0.7533	26.59	0.64	0.750			
0.0638	4080.91	4.1840	4.1839	0.7559	26.59	0.64	0.750			
0.0660	4225.33	4.1810	4.1811	0.7523	26.59	0.64	0.750			
0.0683	4370.77	4.1780	4.1780	0.7535	26.58	0.63	0.750			
0.0705	4512.43	4.1750	4.1750	0.7545	26.58	0.63	0.750			
0.0728	4658.06	4.1720	4.1721	0.7588	26.58	0.63	0.750			
0.0751	4803.82	4.1690	4.1691	0.7608	26.58	0.63	0.750			
0.0774	4951.08	4.1660	4.1660	0.7672	26.58	0.63	0.750			
0.0797	5098.30	4.1630	4.1631	0.7677	26.58	0.63	0.750			
0.0820	5245.86	4.1600	4.1600	0.7716	26.58	0.63	0.750			
0.0843	5394.98	4.1570	4.1570	0.7730	26.58	0.63	0.750			
0.0866	5543.23	4.1540	4.1538	0.7743	26.58	0.63	0.750			
0.0890	5693.82	4.1510	4.1510	0.7739	26.58	0.63	0.750			
0.0913	5842.05	4.1480	4.1481	0.7732	26.58	0.63	0.750			
0.0936	5989.82	4.1450	4.1450	0.7736	26.58	0.63	0.750			
0.0959	6138.87	4.1420	4.1419	0.7735	26.58	0.63	0.750			
0.0982	6285.56	4.1390	4.1389	0.7747	26.58	0.63	0.750			
0.1005	6434.79	4.1360	4.1361	0.7782	26.58	0.63	0.750			
0.1029	6585.06	4.1330	4.1329	0.7829	26.58	0.63	0.750			
0.1053	6736.51	4.1300	4.1300	0.7861	26.58	0.63	0.750			
0.1076	6887.80	4.1270	4.1270	0.7834	26.58	0.63	0.750			
0.1100	7038.42	4.1240	4.1240	0.7833	26.58	0.63	0.750			
0.1123	7189.57	4.1210	4.1212	0.7851	26.58	0.63	0.750			
0.1147	7339.14	4.1180	4.1181	0.7847	26.58	0.63	0.750			
0.1170	7489.98	4.1150	4.1149	0.7845	26.57	0.62	0.750			
0.1194	7639.99	4.1120	4.1121	0.7858	26.57	0.62	0.750			
0.1217	7790.93	4.1090	4.1090	0.7889	26.56	0.61	0.750			
0.1241	7942.85	4.1060	4.1060	0.7918	26.56	0.61	0.750			
0.1265	8094.94	4.1030	4.1030	0.7930	26.56	0.61	0.750			
0.1289	8247.96	4.1000	4.0999	0.7904	26.56	0.61	0.750			
0.1312	8398.71	4.0970	4.0971	0.7982	26.57	0.62	0.750			
0.1336	8552.91	4.0940	4.0939	0.8028	26.57	0.62	0.750			
0.1360	8706.67	4.0910	4.0910	0.8068	26.57	0.62	0.750			
0.1385	8862.98	4.0880	4.0880	0.8071	26.57	0.62	0.750			
0.1409	9019.69	4.0850	4.0850	0.8058	26.57	0.62	0.750			
0.1433	9173.77	4.0820	4.0821	0.8088	26.56	0.61	0.750			
0.1458	9328.82	4.0790	4.0790	0.8124	26.56	0.61	0.750			
0.1482	9482.15	4.0760	4.0760	0.8102	26.56	0.61	0.750			
0.1506	9639.26	4.0730	4.0729	0.8172	26.56	0.61	0.750			
0.1531	9799.98	4.0700	4.0700	0.8113	26.56	0.61	0.750			
0.1555	9954.55	4.0670	4.0671	0.8214	26.56	0.61	0.750			
0.1580	10112.49	4.0640	4.0640	0.8272	26.56	0.61	0.750			
0.1605	10269.88	4.0610	4.0611	0.8293	26.56	0.61	0.750			
0.1629	10428.73	4.0580	4.0581	0.8301	26.56	0.61	0.750			
0.1655	10589.30	4.0550	4.0552	0.8352	26.56	0.61	0.750			
0.1680	10752.31	4.0520	4.0520	0.8370	26.56	0.61	0.750			
0.1705	10914.36	4.0490	4.0490	0.8336	26.56	0.61	0.750			
0.1730	11071.34	4.0460	4.0460	0.8239	26.56	0.61	0.750			
0.1755	11230.74	4.0430	4.0430	0.8281	26.56	0.61	0.750			
0.1780	11390.65	4.0400	4.0399	0.8223	26.56	0.61	0.750			
0.1804	11547.54	4.0370	4.0369	0.8283	26.56	0.61	0.750			
0.1829	11704.23	4.0340	4.0341	0.8384	26.56	0.61	0.750			
0.1854	11866.28	4.0310	4.0310	0.8485	26.56	0.61	0.750			
0.1880	12030.82	4.0280	4.0280	0.8542	26.56	0.61	0.750			
0.1906	12196.63	4.0250	4.0251	0.8556	26.56	0.61	0.750			
0.1932	12362.16	4.0220	4.0221	0.8591	26.56	0.61	0.750			
0.1958	12528.95	4.0190	4.0189	0.8626	26.56	0.61	0.750			
0.1983	12691.63	4.0160	4.0160	0.8560	26.56	0.61	0.750			
0.2009	12854.72	4.0130	4.0130	0.8601	26.56	0.61	0.750			
0.2035	13021.36	4.0100	4.0101	0.8623	26.56	0.61	0.750			
0.2061	13188.60	4.0070	4.0070	0.8635	26.56	0.61	0.750			
0.2087	13354.49	4.0040	4.0040	0.8706	26.56	0.61	0.750			
0.2113	13520.93	4.0010	4.0009	0.8716	26.56	0.61	0.750			
0.2139	13687.26	3.9980	3.9981	0.8751	26.56	0.61	0.750			
0.2165	13856.47	3.9950	3.9949	0.8755	26.56	0.61	0.750			
0.2191	14024.67	3.9920	3.9921	0.8772	26.56	0.61	0.750			
0.2218	14193.34	3.9890	3.9890	0.8786	26.56	0.61	0.750			
0.2244	14362.51	3.9860	3.9858	0.8829	26.56	0.61	0.750			
0.2271	14532.15	3.9830	3.9830	0.8779	26.56	0.61	0.750			
0.2297	14700.74	3.9800	3.9800	0.8852	26.56	0.61	0.750			
0.2324	14871.46	3.9770	3.9771	0.8883	26.55	0.60	0.750			
0.2350	15043.17	3.9740	3.9740	0.8936	26.55	0.60	0.750			
0.2377	15213.34	3.9710	3.9709	0.8961	26.55	0.60	0.750			
0.2404	15386.63	3.9680	3.9680	0.8951	26.55	0.60	0.750			
0.2431	15558.51	3.9650	3.9650	0.8969	26.55	0.60	0.750			
0.2458	15731.30	3.9620	3.9620	0.9005	26.55	0.60	0.750			
0.2485	15904.12	3.9590	3.9590	0.8989	26.55	0.60	0.750			
0.2512	16077.23	3.9560	3.9560	0.9033	26.55	0.60	0.750			
0.2539	16250.42	3.9530	3.9530	0.8975	26.55	0.60	0.750			
0.2566	16421.71	3.9500	3.9502	0.9004	26.54	0.59	0.750			
0.2593	16595.41	3.9470	3.9470	0.9055	26.54	0.59	0.750			
0.2620	16767.66	3.9440	3.9436	0.9094	26.54	0.59	0.750			
0.2647	16943.37	3.9410	3.9411	0.9051	26.54	0.59	0.750			
0.2675	17117.69	3.9380	3.9380	0.9088	26.54	0.59	0.750			
0.2702	17294.11	3.9350	3.9351	0.9137	26.54	0.59	0.750			
0.2729	17468.13	3.9320	3.9321	0.9124	26.54	0.59	0.750			
0.2757	17645.51	3.9290	3.9290	0.9151	26.54	0.59	0.750			
0.2785	17822.02	3.9260	3.9260	0.9105	26.54	0.59	0.750			
0.2812	17996.48	3.9230	3.9233	0.9091	26.54	0.59	0.750			
0.2839	18172.67	3.9200	3.9200	0.9156	26.54	0.59	0.750			
0.2867	18345.84	3.9170	3.9169	0.9084	26.54	0.59	0.750			
0.2894	18519.70	3.9140	3.9140	0.9016	26.54	0.59	0.750			
0.2921	18691.39	3.9110	3.9110	0.9058	26.53	0.58	0.750			
0.2948	18867.69	3.9080	3.9081	0.9166	26.53	0.58	0.750			
0.2976	19043.71	3.9050	3.9051	0.9213	26.52	0.57	0.750			
0.3003	19219.47	3.9020	3.9019	0.9245	26.52	0.57	0.750			
0.3031	19397.98	3.8990	3.8990	0.9262	26.51	0.56	0.750			
0.3059	19576.48	3.8960	3.8960	0.9345	26.51	0.56	0.750			
0.3087	19756.56	3.8930	3.8930	0.9399	26.50	0.55	0.750			
0.3115	19936.78	3.8900	3.8899	0.9441	26.50	0.55	0.750			
0.3144	20119.91	3.8870	3.8870	0.9409	26.49	0.54	0.750			
0.3172	20301.03	3.8840	3.8840	0.9515	26.49	0.54	0.750			
0.3201	20483.64	3.8810	3.8811	0.9616	26.48	0.53	0.750			
0.3229	20668.34	3.8780	3.8780	0.9683	26.47	0.52	0.750			
0.3259	20856.74	3.8750	3.8751	0.9673	26.47	0.52	0.750			
0.3288	21042.68	3.8720	3.8721	0.9745	26.46	0.51	0.750			
0.3317	21229.59	3.8690	3.8691	0.9819	26.45	0.50	0.750			
0.3347	21419.77	3.8660	3.8660	0.9923	26.44	0.49	0.750			
0.3377	21610.52	3.8630	3.8629	0.9870	26.44	0.49	0.750			
0.3406	21799.89	3.8600	3.8600	0.9916	26.43	0.48	0.750			
0.3436	21990.19	3.8570	3.8571	1.0033	26.43	0.48	0.750			
0.3466	22184.91	3.8540	3.8541	1.0118	26.42	0.47	0.750			
0.3497	22378.32	3.8510	3.8509	1.0123	26.42	0.47	0.750			
0.3527	22573.08	3.8480	3.8480	1.0123	26.41	0.46	0.750			
0.3557	22767.84	3.8450	3.8451	1.0173	26.40	0.45	0.750			
0.3588	22964.94	3.8420	3.8421	1.0224	26.39	0.44	0.750			
0.3619	23160.73	3.8390	3.8386	1.0205	26.38	0.43	0.750			
0.3649	23354.33	3.8360	3.8362	1.0210	26.37	0.42	0.750			
0.3680	23552.34	3.8330	3.8331	1.0296	26.37	0.42	0.750			
0.3711	23751.71	3.8300	3.8300	1.0379	26.36	0.41	0.750			
0.3742	23950.03	3.8270	3.8265	1.0376	26.35	0.40	0.750			
0.3774	24150.48	3.8240	3.8241	1.0448	26.34	0.39	0.750			
0.3805	24352.91	3.8210	3.8210	1.0485	26.33	0.38	0.750			
0.3837	24555.62	3.8180	3.8180	1.0533	26.32	0.37	0.750			
0.3868	24757.28	3.8150	3.8150	1.0595	26.31	0.36	0.750			
0.3900	24960.78	3.8120	3.8121	1.0528	26.30	0.35	0.750			
0.3931	25161.18	3.8090	3.8089	1.0580	26.29	0.34	0.750			
0.3963	25363.99	3.8060	3.8061	1.0642	26.28	0.33	0.750			
0.3995	25569.00	3.8030	3.8027	1.0645	26.27	0.32	0.750			
0.4027	25773.41	3.8000	3.8000	1.0785	26.26	0.31	0.750			
0.4060	25981.25	3.7970	3.7971	1.0942	26.26	0.31	0.750			
0.4092	26191.50	3.7940	3.7941	1.1061	26.25	0.30	0.750			
0.4126	26406.65	3.7910	3.7909	1.1169	26.25	0.30	0.750			
0.4160	26621.35	3.7880	3.7881	1.1354	26.24	0.29	0.750			
0.4194	26840.99	3.7850	3.7850	1.1541	26.23	0.28	0.750			
0.4229	27064.77	3.7820	3.7819	1.1831	26.21	0.26	0.750			
0.4265	27292.82	3.7790	3.7790	1.2097	26.20	0.25	0.750			
0.4301	27526.71	3.7760	3.7759	1.2391	26.20	0.25	0.750			
0.4339	27771.39	3.7730	3.7731	1.2654	26.19	0.24	0.750			
0.4378	28017.25	3.7700	3.7699	1.2964	26.18	0.23	0.750			
0.4417	28268.41	3.7670	3.7670	1.3147	26.17	0.22	0.750			
0.4457	28523.30	3.7640	3.7638	1.3365	26.16	0.21	0.750	0.309	0.423	
0.4497	28780.05	3.7610	3.7609	1.3468	26.15	0.20	0.750			
0.4538	29040.10	3.7580	3.7581	1.3716	26.13	0.18	0.750			
0.4579	29304.19	3.7550	3.7550	1.4007	26.11	0.16	0.750			
0.4621	29575.67	3.7520	3.7519	1.4248	26.09	0.14	0.750			
0.4664	29850.32	3.7490	3.7491	1.4459	26.08	0.13	0.750			
0.4708	30130.86	3.7460	3.7462	1.4846	26.08	0.13	0.750			
0.4753	30417.96	3.7430	3.7427	1.5267	26.07	0.12	0.750			
0.4800	30716.92	3.7400	3.7397	1.5462	26.05	0.10	0.750			
0.4846	31016.69	3.7370	3.7371	1.5929	26.04	0.09	0.750			
0.4895	31328.39	3.7340	3.7340	1.6425	26.02	0.07	0.750			
0.4945	31648.05	3.7310	3.7310	1.6914	26.01	0.06	0.750			
0.4997	31979.34	3.7280	3.7281	1.7526	26.00	0.05	0.750			
0.5050	32318.78	3.7250	3.7251	1.7890	25.99	0.04	0.750			
0.5105	32671.59	3.7220	3.7218	1.8515	25.97	0.02	0.750			
0.5162	33034.97	3.7190	3.7190	1.9052	25.96	0.01	0.750			
0.5218	33397.34	3.7160	3.7159	1.9605	25.94	-0.01	0.750			
0.5278	33779.66	3.7130	3.7132	2.0000	25.92	-0.03	0.750			
0.5339	34169.41	3.7100	3.7102	2.0548	25.90	-0.05	0.750			
0.5401	34569.02	3.7070	3.7070	2.1076	25.88	-0.07	0.750			
0.5466	34983.00	3.7040	3.7037	2.1645	25.87	-0.08	0.750			
0.5532	35402.23	3.7010	3.7010	2.2178	25.86	-0.09	0.750			
0.5599	35832.14	3.6980	3.6981	2.2816	25.84	-0.11	0.750			
0.5668	36274.83	3.6950	3.6950	2.3658	25.82	-0.13	0.750			
0.5739	36727.21	3.6920	3.6921	2.4570	25.81	-0.14	0.750			
0.5814	37210.53	3.6890	3.6891	2.5429	25.80	-0.15	0.750			
0.5892	37710.02	3.6860	3.6859	2.6367	25.79	-0.16	0.750			
0.5974	38231.18	3.6830	3.6831	2.7052	25.77	-0.18	0.750			
0.6056	38756.29	3.6800	3.6802	2.7827	25.76	-0.19	0.750			
0.6140	39295.02	3.6770	3.6770	2.8478	25.75	-0.20	0.750			
0.6227	39852.27	3.6740	3.6740	2.9332	25.73	-0.22	0.750			
0.6317	40426.75	3.6710	3.6709	2.9976	25.72	-0.23	0.750			
0.6409	41016.80	3.6680	3.6680	2.9787	25.72	-0.23	0.750			
0.6500	41598.74	3.6650	3.6650	2.8340	25.71	-0.24	0.750			
0.6583	42131.66	3.6620	3.6620	2.5758	25.72	-0.23	0.750			
0.6655	42592.22	3.6590	3.6593	2.3086	25.72	-0.23	0.750			
0.6718	42996.58	3.6560	3.6561	2.0747	25.71	-0.24	0.750			
0.6775	43360.25	3.6530	3.6531	1.8689	25.71	-0.24	0.750			
0.6827	43694.99	3.6500	3.6499	1.7099	25.72	-0.23	0.750			
0.6877	44011.06	3.6470	3.6469	1.5961	25.72	-0.23	0.750			
0.6923	44304.84	3.6440	3.6441	1.4874	25.72	-0.23	0.750			
0.6965	44576.96	3.6410	3.6412	1.3870	25.72	-0.23	0.750			
0.7005	44830.82	3.6380	3.6381	1.3028	25.72	-0.23	0.750			
0.7041	45062.72	3.6350	3.6350	1.2366	25.72	-0.23	0.750			
0.7076	45288.64	3.6320	3.6321	1.1992	25.72	-0.23	0.750			
0.7112	45516.05	3.6290	3.6288	1.1844	25.72	-0.23	0.750			
0.7147	45739.37	3.6260	3.6260	1.1844	25.72	-0.23	0.750			
0.7182	45965.05	3.6230	3.6231	1.1967	25.72	-0.23	0.750			
0.7218	46196.30	3.6200	3.6201	1.2070	25.72	-0.23	0.750			
0.7255	46429.90	3.6170	3.6170	1.2031	25.72	-0.23	0.750			
0.7291	46664.60	3.6140	3.6141	1.2051	25.72	-0.23	0.750			
0.7328	46899.23	3.6110	3.6111	1.1970	25.73	-0.22	0.750			
0.7364	47130.03	3.6080	3.6078	1.1745	25.73	-0.22	0.750			
0.7399	47352.03	3.6050	3.6051	1.1515	25.73	-0.22	0.750			
0.7432	47567.97	3.6020	3.6021	1.1450	25.73	-0.22	0.750			
0.7466	47783.78	3.5990	3.5991	1.1505	25.73	-0.22	0.750			
0.7500	48003.02	3.5960	3.5959	1.1461	25.73	-0.22	0.750			
0.7535	48223.48	3.5930	3.5930	1.1757	25.73	-0.22	0.750			
0.7571	48452.00	3.5900	3.5901	1.2041	25.74	-0.21	0.750			
0.7607	48687.49	3.5870	3.5868	1.2242	25.74	-0.21	0.750			
0.7644	48921.29	3.5840	3.5841	1.2846	25.74	-0.21	0.750			
0.7682	49167.18	3.5810	3.5811	1.3292	25.74	-0.21	0.750			
0.7724	49430.83	3.5780	3.5782	1.3759	25.74	-0.21	0.750			
0.7767	49708.13	3.5750	3.5751	1.4174	25.74	-0.21	0.750			
0.7810	49983.68	3.5720	3.5721	1.4586	25.73	-0.22	0.750			
0.7854	50267.37	3.5690	3.5690	1.4953	25.73	-0.22	0.750			
0.7900	50558.06	3.5660	3.5661	1.5000	25.73	-0.22	0.750			
0.7945	50847.08	3.5630	3.5629	1.5455	25.72	-0.23	0.750			
0.7992	51148.63	3.5600	3.5600	1.5858	25.72	-0.23	0.750			
0.8041	51459.37	3.5570	3.5570	1.6099	25.73	-0.22	0.750			
0.8090	51776.43	3.5540	3.5542	1.6397	25.74	-0.21	0.750			
0.8140	52093.58	3.5510	3.5510	1.6602	25.74	-0.21	0.750			
0.8190	52414.84	3.5480	3.5481	1.6920	25.74	-0.21	0.750			
0.8242	52749.47	3.5450	3.5448	1.7064	25.74	-0.21	0.750			
0.8293	53075.53	3.5420	3.5420	1.7206	25.74	-0.21	0.750			
0.8345	53409.96	3.5390	3.5389	1.7502	25.75	-0.20	0.750			
0.8398	53748.48	3.5360	3.5361	1.7683	25.75	-0.20	0.750			
0.8453	54100.53	3.5330	3.5328	1.6874	25.76	-0.19	0.750			
0.8506	54440.94	3.5300	3.5299	1.5477	25.77	-0.18	0.750			
0.8555	54750.25	3.5270	3.5271	1.3705	25.79	-0.16	0.750			
0.8594	55003.32	3.5240	3.5246	1.1275	25.80	-0.15	0.750			
0.8624	55190.76	3.5210	3.5209	0.8606	25.81	-0.14	0.750			
0.8642	55307.08	3.5180	3.5177	0.6499	25.83	-0.12	0.750			
0.8654	55386.00	3.5150	3.5147	0.4734	25.83	-0.12	0.750			
0.8665	55458.23	3.5120	3.5118	0.4057	25.84	-0.11	0.750			
0.8676	55524.13	3.5090	3.5089	0.3575	25.85	-0.10	0.750			
0.8685	55586.49	3.5060	3.5060	0.3332	25.85	-0.10	0.750			
0.8695	55648.16	3.5030	3.5030	0.3169	25.86	-0.09	0.750			
0.8704	55705.85	3.5000	3.4999	0.3054	25.87	-0.08	0.750			
0.8713	55763.41	3.4970	3.4970	0.2945	25.87	-0.08	0.750			
0.8722	55819.26	3.4940	3.4939	0.2857	25.88	-0.07	0.750			
0.8730	55873.31	3.4910	3.4910	0.2779	25.88	-0.07	0.750			
0.8738	55925.51	3.4880	3.4882	0.2701	25.89	-0.06	0.750			
0.8746	55976.15	3.4850	3.4850	0.2635	25.89	-0.06	0.750			
0.8754	56025.62	3.4820	3.4820	0.2578	25.90	-0.05	0.750			
0.8762	56074.31	3.4790	3.4790	0.2520	25.90	-0.05	0.750			
0.8769	56122.73	3.4760	3.4760	0.2481	25.90	-0.05	0.750			
0.8777	56170.80	3.4730	3.4731	0.2446	25.91	-0.04	0.750			
0.8784	56217.37	3.4700	3.4700	0.2389	25.91	-0.04	0.750			
0.8791	56262.82	3.4670	3.4670	0.2331	25.91	-0.04	0.750			
0.8798	56306.78	3.4640	3.4639	0.2273	25.92	-0.03	0.750			
0.8805	56349.66	3.4610	3.4611	0.2213	25.92	-0.03	0.750			
0.8811	56391.03	3.4580	3.4580	0.2176	25.92	-0.03	0.750			
0.8818	56432.75	3.4550	3.4549	0.2136	25.93	-0.02	0.750			
0.8824	56473.21	3.4520	3.4520	0.2091	25.93	-0.02	0.750			
0.8830	56513.00	3.4490	3.4490	0.2054	25.93	-0.02	0.750			
0.8836	56552.52	3.4460	3.4461	0.2000	25.94	-0.01	0.750			
0.8842	56590.90	3.4430	3.4429	0.1950	25.94	-0.01	0.750			
0.8848	56627.85	3.4400	3.4401	0.1891	25.94	-0.01	0.750			
0.8854	56663.34	3.4370	3.4369	0.1829	25.94	-0.01	0.750			
0.8859	56697.51	3.4340	3.4340	0.1764	25.95	-0.00	0.750			
0.8864	56730.77	3.4310	3.4310	0.1716	25.95	-0.00	0.750			
0.8869	56762.97	3.4280	3.4280	0.1657	25.95	0.00	0.750			
0.8874	56794.35	3.4250	3.4250	0.1612	25.95	0.00	0.750			
0.8879	56825.19	3.4220	3.4219	0.1556	25.96	0.01	0.750			
0.8884	56854.62	3.4190	3.4191	0.1501	25.96	0.01	0.750			
0.8888	56882.95	3.4160	3.4161	0.1445	25.96	0.01	0.750			
0.8892	56910.13	3.4130	3.4129	0.1385	25.96	0.01	0.750			
0.8896	56936.18	3.4100	3.4100	0.1322	25.96	0.01	0.750			
0.8900	56960.83	3.4070	3.4070	0.1259	25.97	0.02	0.750			
0.8904	56984.81	3.4040	3.4039	0.1192	25.97	0.02	0.750			
0.8907	57007.03	3.4010	3.4011	0.1122	25.97	0.02	0.750			
0.8911	57029.25	3.3980	3.3978	0.1034	25.97	0.02	0.750			
0.8914	57048.53	3.3950	3.3950	0.0949	25.97	0.02	0.750			
0.8917	57065.79	3.3920	3.3923	0.0849	25.97	0.02	0.750			
0.8919	57081.76	3.3890	3.3891	0.0755	25.97	0.02	0.750			
0.8921	57095.22	3.3860	3.3864	0.0647	25.98	0.03	0.750			
0.8923	57107.29	3.3830	3.3836	0.0534	25.98	0.03	0.750			
0.8924	57116.42	3.3800	3.3810	0.0416	25.98	0.03	0.750			
0.8926	57123.28	3.3770	3.3783	0.0299	25.98	0.03	0.750			
