Ah_balance (normalized)	Ah_balance (mAh)	Voltage - fit (V)	Voltage -  interpolate (V)	dQ/dV (1/V)	Temperature (°C)	Temperature - diff (°C)	Current (C)	R_DC 0ms (mOhm)	R_DC 50ms (mOhm)	R_DC 50 ms PEC (mOhm)
0.0505	3233.91	4.1980	4.1982	0.8350	26.19	0.26	0.750			
0.0530	3389.39	4.1950	4.1952	0.7931	26.19	0.26	0.750			
0.0553	3538.83	4.1920	4.1920	0.7733	26.19	0.26	0.750			
0.0576	3684.56	4.1890	4.1890	0.7625	26.19	0.26	0.750			
0.0598	3826.00	4.1860	4.1861	0.7565	26.19	0.26	0.750			
0.0621	3971.45	4.1830	4.1829	0.7637	26.19	0.26	0.750			
0.0644	4119.08	4.1800	4.1800	0.7709	26.19	0.26	0.750			
0.0667	4267.80	4.1770	4.1770	0.7767	26.20	0.27	0.750			
0.0691	4419.31	4.1740	4.1740	0.7813	26.20	0.27	0.750			
0.0714	4571.64	4.1710	4.1710	0.7827	26.20	0.27	0.750			
0.0738	4720.52	4.1680	4.1680	0.7812	26.21	0.28	0.750			
0.0761	4869.42	4.1650	4.1650	0.7827	26.21	0.28	0.750			
0.0784	5019.02	4.1620	4.1620	0.7831	26.21	0.28	0.750			
0.0808	5169.93	4.1590	4.1589	0.7751	26.21	0.28	0.750			
0.0831	5316.40	4.1560	4.1561	0.7838	26.20	0.27	0.750			
0.0854	5468.13	4.1530	4.1531	0.7867	26.20	0.27	0.750			
0.0878	5619.58	4.1500	4.1496	0.7913	26.20	0.27	0.750			
0.0902	5771.51	4.1470	4.1471	0.7934	26.20	0.27	0.750			
0.0926	5924.43	4.1440	4.1442	0.7930	26.20	0.27	0.750			
0.0950	6079.29	4.1410	4.1410	0.7968	26.19	0.26	0.750			
0.0974	6230.60	4.1380	4.1381	0.7918	26.19	0.26	0.750			
0.0997	6381.85	4.1350	4.1348	0.7907	26.19	0.26	0.750			
0.1021	6534.74	4.1320	4.1321	0.7959	26.19	0.26	0.750			
0.1045	6687.32	4.1290	4.1289	0.7923	26.19	0.26	0.750			
0.1069	6839.49	4.1260	4.1260	0.7956	26.20	0.27	0.750			
0.1093	6992.66	4.1230	4.1230	0.7974	26.20	0.27	0.750			
0.1116	7144.57	4.1200	4.1200	0.7985	26.20	0.27	0.750			
0.1140	7298.10	4.1170	4.1170	0.8023	26.20	0.27	0.750			
0.1165	7453.67	4.1140	4.1140	0.8007	26.20	0.27	0.750			
0.1189	7606.68	4.1110	4.1110	0.8051	26.21	0.28	0.750			
0.1213	7762.01	4.1080	4.1081	0.8108	26.21	0.28	0.750			
0.1237	7917.20	4.1050	4.1050	0.8073	26.21	0.28	0.750			
0.1261	8072.87	4.1020	4.1020	0.8102	26.21	0.28	0.750			
0.1286	8229.04	4.0990	4.0991	0.8073	26.21	0.28	0.750			
0.1310	8383.59	4.0960	4.0960	0.8085	26.21	0.28	0.750			
0.1334	8538.99	4.0930	4.0930	0.8156	26.21	0.28	0.750			
0.1358	8694.29	4.0900	4.0900	0.8136	26.21	0.28	0.750			
0.1383	8850.62	4.0870	4.0870	0.8192	26.21	0.28	0.750			
0.1408	9009.41	4.0840	4.0841	0.8260	26.22	0.29	0.750			
0.1433	9169.25	4.0810	4.0810	0.8282	26.22	0.29	0.750			
0.1458	9329.29	4.0780	4.0780	0.8308	26.22	0.29	0.750			
0.1483	9488.25	4.0750	4.0750	0.8313	26.23	0.30	0.750			
0.1507	9647.39	4.0720	4.0720	0.8333	26.23	0.30	0.750			
0.1533	9810.64	4.0690	4.0689	0.8316	26.23	0.30	0.750			
0.1557	9967.89	4.0660	4.0660	0.8333	26.23	0.30	0.750			
0.1583	10128.46	4.0630	4.0631	0.8372	26.23	0.30	0.750			
0.1608	10289.19	4.0600	4.0600	0.8402	26.23	0.30	0.750			
0.1633	10450.41	4.0570	4.0570	0.8413	26.23	0.30	0.750			
0.1658	10612.65	4.0540	4.0541	0.8420	26.23	0.30	0.750			
0.1684	10775.05	4.0510	4.0510	0.8491	26.23	0.30	0.750			
0.1709	10938.31	4.0480	4.0480	0.8558	26.24	0.31	0.750			
0.1735	11101.46	4.0450	4.0450	0.8552	26.24	0.31	0.750			
0.1761	11267.46	4.0420	4.0421	0.8603	26.24	0.31	0.750			
0.1787	11434.75	4.0390	4.0389	0.8590	26.24	0.31	0.750			
0.1812	11597.99	4.0360	4.0361	0.8644	26.25	0.32	0.750			
0.1838	11763.81	4.0330	4.0331	0.8686	26.25	0.32	0.750			
0.1864	11930.45	4.0300	4.0299	0.8704	26.25	0.32	0.750			
0.1890	12097.93	4.0270	4.0270	0.8741	26.25	0.32	0.750			
0.1917	12266.51	4.0240	4.0242	0.8759	26.25	0.32	0.750			
0.1943	12435.07	4.0210	4.0210	0.8805	26.25	0.32	0.750			
0.1970	12605.33	4.0180	4.0180	0.8807	26.25	0.32	0.750			
0.1996	12773.21	4.0150	4.0146	0.8828	26.25	0.32	0.750			
0.2022	12943.77	4.0120	4.0121	0.8844	26.25	0.32	0.750			
0.2049	13114.17	4.0090	4.0090	0.8889	26.25	0.32	0.750			
0.2076	13285.71	4.0060	4.0060	0.8941	26.26	0.33	0.750			
0.2103	13458.48	4.0030	4.0031	0.8946	26.26	0.33	0.750			
0.2129	13628.34	4.0000	4.0001	0.8937	26.26	0.33	0.750			
0.2156	13800.51	3.9970	3.9970	0.8975	26.26	0.33	0.750			
0.2183	13971.51	3.9940	3.9940	0.9027	26.26	0.33	0.750			
0.2210	14146.53	3.9910	3.9910	0.9083	26.27	0.34	0.750			
0.2238	14321.90	3.9880	3.9879	0.9112	26.27	0.34	0.750			
0.2265	14497.99	3.9850	3.9850	0.9130	26.27	0.34	0.750			
0.2293	14674.99	3.9820	3.9820	0.9106	26.27	0.34	0.750			
0.2320	14847.72	3.9790	3.9791	0.9111	26.28	0.35	0.750			
0.2347	15021.49	3.9760	3.9760	0.9126	26.28	0.35	0.750			
0.2374	15195.30	3.9730	3.9727	0.9205	26.28	0.35	0.750			
0.2402	15374.54	3.9700	3.9700	0.9194	26.28	0.35	0.750			
0.2430	15551.14	3.9670	3.9670	0.9231	26.28	0.35	0.750			
0.2458	15731.46	3.9640	3.9641	0.9313	26.29	0.36	0.750			
0.2486	15909.36	3.9610	3.9612	0.9307	26.29	0.36	0.750			
0.2514	16088.77	3.9580	3.9580	0.9331	26.29	0.36	0.750			
0.2542	16267.74	3.9550	3.9550	0.9253	26.30	0.37	0.750			
0.2569	16444.45	3.9520	3.9522	0.9269	26.30	0.37	0.750			
0.2598	16624.51	3.9490	3.9490	0.9371	26.31	0.38	0.750			
0.2625	16801.48	3.9460	3.9456	0.9358	26.31	0.38	0.750			
0.2653	16981.90	3.9430	3.9430	0.9298	26.31	0.38	0.750			
0.2681	17159.93	3.9400	3.9400	0.9413	26.31	0.38	0.750			
0.2710	17344.26	3.9370	3.9371	0.9478	26.31	0.38	0.750			
0.2738	17526.03	3.9340	3.9340	0.9445	26.31	0.38	0.750			
0.2767	17709.07	3.9310	3.9311	0.9422	26.31	0.38	0.750			
0.2795	17888.21	3.9280	3.9281	0.9438	26.31	0.38	0.750			
0.2823	18069.34	3.9250	3.9250	0.9511	26.32	0.39	0.750			
0.2852	18253.73	3.9220	3.9220	0.9563	26.32	0.39	0.750			
0.2880	18434.91	3.9190	3.9190	0.9572	26.32	0.39	0.750			
0.2909	18620.44	3.9160	3.9161	0.9641	26.32	0.39	0.750			
0.2939	18807.50	3.9130	3.9131	0.9665	26.33	0.40	0.750			
0.2968	18993.50	3.9100	3.9100	0.9694	26.33	0.40	0.750			
0.2997	19178.79	3.9070	3.9070	0.9682	26.33	0.40	0.750			
0.3026	19365.06	3.9040	3.9039	0.9650	26.33	0.40	0.750			
0.3055	19551.20	3.9010	3.9010	0.9723	26.34	0.41	0.750			
0.3084	19737.62	3.8980	3.8981	0.9740	26.34	0.41	0.750			
0.3113	19925.92	3.8950	3.8949	0.9737	26.35	0.42	0.750			
0.3143	20114.17	3.8920	3.8921	0.9731	26.35	0.42	0.750			
0.3172	20298.63	3.8890	3.8890	0.9761	26.35	0.42	0.750			
0.3201	20485.98	3.8860	3.8860	0.9828	26.34	0.41	0.750			
0.3230	20674.49	3.8830	3.8831	0.9915	26.34	0.41	0.750			
0.3260	20866.78	3.8800	3.8800	0.9940	26.34	0.41	0.750			
0.3290	21058.28	3.8770	3.8770	0.9987	26.34	0.41	0.750			
0.3321	21252.27	3.8740	3.8740	1.0042	26.34	0.41	0.750			
0.3351	21444.45	3.8710	3.8711	1.0073	26.34	0.41	0.750			
0.3381	21637.21	3.8680	3.8680	1.0071	26.34	0.41	0.750			
0.3411	21830.80	3.8650	3.8650	1.0077	26.34	0.41	0.750			
0.3441	22021.54	3.8620	3.8621	1.0168	26.34	0.41	0.750			
0.3472	22217.73	3.8590	3.8591	1.0332	26.34	0.41	0.750			
0.3503	22417.21	3.8560	3.8557	1.0457	26.34	0.41	0.750			
0.3534	22619.51	3.8530	3.8530	1.0598	26.33	0.40	0.750			
0.3566	22824.88	3.8500	3.8501	1.0752	26.32	0.39	0.750			
0.3599	23036.66	3.8470	3.8471	1.0875	26.32	0.39	0.750			
0.3632	23246.43	3.8440	3.8439	1.0836	26.31	0.38	0.750			
0.3665	23454.39	3.8410	3.8410	1.0934	26.30	0.37	0.750			
0.3697	23662.77	3.8380	3.8381	1.1021	26.30	0.37	0.750			
0.3730	23874.92	3.8350	3.8350	1.1171	26.29	0.36	0.750			
0.3765	24093.03	3.8320	3.8319	1.1146	26.29	0.36	0.750			
0.3798	24306.03	3.8290	3.8291	1.1382	26.28	0.35	0.750			
0.3832	24526.86	3.8260	3.8262	1.1563	26.28	0.35	0.750			
0.3867	24751.25	3.8230	3.8227	1.1750	26.27	0.34	0.750			
0.3903	24976.92	3.8200	3.8201	1.1884	26.27	0.34	0.750			
0.3939	25206.42	3.8170	3.8170	1.2070	26.26	0.33	0.750			
0.3975	25441.69	3.8140	3.8140	1.2222	26.25	0.32	0.750			
0.4013	25682.43	3.8110	3.8110	1.2167	26.25	0.32	0.750			
0.4049	25915.52	3.8080	3.8082	1.2231	26.24	0.31	0.750			
0.4086	26149.83	3.8050	3.8050	1.2346	26.23	0.30	0.750			
0.4123	26389.12	3.8020	3.8018	1.2251	26.22	0.29	0.750			
0.4160	26621.54	3.7990	3.7990	1.2386	26.21	0.28	0.750			
0.4197	26858.70	3.7960	3.7961	1.2523	26.20	0.27	0.750			
0.4235	27104.17	3.7930	3.7931	1.2697	26.19	0.26	0.750			
0.4273	27349.87	3.7900	3.7902	1.2763	26.18	0.25	0.750			
0.4312	27594.34	3.7870	3.7871	1.2873	26.18	0.25	0.750			
0.4351	27847.82	3.7840	3.7840	1.2873	26.17	0.24	0.750			
0.4390	28097.09	3.7810	3.7809	1.3034	26.16	0.23	0.750			
0.4429	28342.43	3.7780	3.7780	1.3008	26.15	0.22	0.750			
0.4467	28591.46	3.7750	3.7751	1.3135	26.14	0.21	0.750			
0.4508	28852.50	3.7720	3.7719	1.3048	26.13	0.20	0.750			
0.4547	29100.85	3.7690	3.7691	1.3170	26.11	0.18	0.750			
0.4585	29346.35	3.7660	3.7662	1.3567	26.10	0.17	0.750			
0.4626	29606.38	3.7630	3.7623	1.4225	26.09	0.16	0.750			
0.4669	29882.76	3.7600	3.7602	1.4599	26.08	0.15	0.750	0.320	0.403	
0.4715	30175.83	3.7570	3.7572	1.5012	26.08	0.15	0.750			
0.4761	30472.87	3.7540	3.7542	1.5223	26.07	0.14	0.750			
0.4809	30775.06	3.7510	3.7513	1.5514	26.05	0.12	0.750			
0.4856	31077.86	3.7480	3.7480	1.5673	26.04	0.11	0.750			
0.4901	31368.09	3.7450	3.7449	1.5826	26.02	0.09	0.750			
0.4948	31668.60	3.7420	3.7419	1.6174	26.01	0.08	0.750			
0.4998	31986.45	3.7390	3.7388	1.6843	26.00	0.07	0.750			
0.5050	32320.46	3.7360	3.7359	1.7434	25.99	0.06	0.750			
0.5103	32657.23	3.7330	3.7329	1.7545	25.98	0.05	0.750			
0.5157	33002.20	3.7300	3.7298	1.7989	25.96	0.03	0.750			
0.5211	33349.31	3.7270	3.7270	1.8491	25.94	0.01	0.750			
0.5267	33707.28	3.7240	3.7240	1.8835	25.92	-0.01	0.750			
0.5324	34073.45	3.7210	3.7211	1.9417	25.91	-0.02	0.750			
0.5382	34446.96	3.7180	3.7179	2.0003	25.89	-0.04	0.750			
0.5445	34847.24	3.7150	3.7150	2.0554	25.87	-0.06	0.750			
0.5508	35248.10	3.7120	3.7120	2.1486	25.86	-0.07	0.750			
0.5572	35663.94	3.7090	3.7088	2.2102	25.84	-0.09	0.750			
0.5639	36092.26	3.7060	3.7061	2.2804	25.82	-0.11	0.750			
0.5709	36540.64	3.7030	3.7032	2.3588	25.80	-0.13	0.750			
0.5781	36998.88	3.7000	3.6998	2.4207	25.78	-0.15	0.750			
0.5856	37477.73	3.6970	3.6970	2.4783	25.77	-0.16	0.750			
0.5931	37958.35	3.6940	3.6938	2.5212	25.75	-0.18	0.750			
0.6008	38450.00	3.6910	3.6912	2.6007	25.72	-0.21	0.750			
0.6086	38949.22	3.6880	3.6879	2.6721	25.71	-0.22	0.750			
0.6168	39473.53	3.6850	3.6850	2.7451	25.69	-0.24	0.750			
0.6251	40005.43	3.6820	3.6822	2.8618	25.68	-0.25	0.750			
0.6340	40575.86	3.6790	3.6790	2.9645	25.67	-0.26	0.750			
0.6429	41147.87	3.6760	3.6761	3.0936	25.65	-0.28	0.750			
0.6524	41755.52	3.6730	3.6728	3.1794	25.64	-0.29	0.750			
0.6623	42384.24	3.6700	3.6701	3.2675	25.62	-0.31	0.750			
0.6723	43025.76	3.6670	3.6671	3.3099	25.61	-0.32	0.750			
0.6824	43674.70	3.6640	3.6641	3.2070	25.60	-0.33	0.750			
0.6922	44301.32	3.6610	3.6611	3.0102	25.60	-0.33	0.750			
0.7009	44856.26	3.6580	3.6581	2.7314	25.61	-0.32	0.750			
0.7084	45336.51	3.6550	3.6551	2.4237	25.62	-0.31	0.750			
0.7150	45762.81	3.6520	3.6521	2.1527	25.62	-0.31	0.750			
0.7208	46133.74	3.6490	3.6490	1.9252	25.62	-0.31	0.750			
0.7262	46474.04	3.6460	3.6461	1.7439	25.62	-0.31	0.750			
0.7311	46787.28	3.6430	3.6430	1.5968	25.62	-0.31	0.750			
0.7356	47080.82	3.6400	3.6400	1.4756	25.62	-0.31	0.750			
0.7398	47349.50	3.6370	3.6371	1.3781	25.62	-0.31	0.750			
0.7437	47598.18	3.6340	3.6340	1.3025	25.63	-0.30	0.750			
0.7474	47830.58	3.6310	3.6310	1.2452	25.64	-0.29	0.750			
0.7510	48061.15	3.6280	3.6281	1.2251	25.64	-0.29	0.750			
0.7545	48289.11	3.6250	3.6250	1.2070	25.64	-0.29	0.750			
0.7581	48518.01	3.6220	3.6220	1.2113	25.65	-0.28	0.750			
0.7618	48753.89	3.6190	3.6188	1.2124	25.65	-0.28	0.750			
0.7654	48985.58	3.6160	3.6161	1.2263	25.65	-0.28	0.750			
0.7691	49224.66	3.6130	3.6130	1.2366	25.66	-0.27	0.750			
0.7729	49465.02	3.6100	3.6101	1.2311	25.66	-0.27	0.750			
0.7766	49704.32	3.6070	3.6071	1.2042	25.66	-0.27	0.750			
0.7803	49936.09	3.6040	3.6043	1.1954	25.66	-0.27	0.750			
0.7838	50160.83	3.6010	3.6010	1.1798	25.66	-0.27	0.750			
0.7873	50386.85	3.5980	3.5976	1.1614	25.66	-0.27	0.750			
0.7906	50598.17	3.5950	3.5951	1.1597	25.66	-0.27	0.750			
0.7940	50819.04	3.5920	3.5921	1.1842	25.67	-0.26	0.750			
0.7977	51050.44	3.5890	3.5891	1.2208	25.67	-0.26	0.750			
0.8014	51286.68	3.5860	3.5859	1.2551	25.67	-0.26	0.750			
0.8051	51528.92	3.5830	3.5831	1.3058	25.67	-0.26	0.750			
0.8092	51787.83	3.5800	3.5801	1.3442	25.67	-0.26	0.750			
0.8133	52052.66	3.5770	3.5770	1.3897	25.67	-0.26	0.750			
0.8176	52323.83	3.5740	3.5739	1.4076	25.67	-0.26	0.750			
0.8219	52602.34	3.5710	3.5710	1.4347	25.68	-0.25	0.750			
0.8262	52878.22	3.5680	3.5680	1.4680	25.68	-0.25	0.750			
0.8306	53158.14	3.5650	3.5651	1.5048	25.68	-0.25	0.750			
0.8352	53453.67	3.5620	3.5622	1.5241	25.68	-0.25	0.750			
0.8399	53750.85	3.5590	3.5591	1.5627	25.68	-0.25	0.750			
0.8446	54056.50	3.5560	3.5559	1.5777	25.68	-0.25	0.750			
0.8494	54364.29	3.5530	3.5531	1.6107	25.68	-0.25	0.750			
0.8543	54675.40	3.5500	3.5498	1.6325	25.68	-0.25	0.750			
0.8592	54988.40	3.5470	3.5470	1.6142	25.69	-0.24	0.750			
0.8640	55298.06	3.5440	3.5440	1.6267	25.69	-0.24	0.750			
0.8690	55613.13	3.5410	3.5411	1.6467	25.70	-0.23	0.750			
0.8738	55921.65	3.5380	3.5380	1.6845	25.70	-0.23	0.750			
0.8789	56246.56	3.5350	3.5345	1.7425	25.71	-0.22	0.750			
0.8843	56596.26	3.5320	3.5314	1.7098	25.72	-0.21	0.750			
0.8897	56943.40	3.5290	3.5290	1.6483	25.73	-0.20	0.750			
0.8952	57293.16	3.5260	3.5259	1.4735	25.75	-0.18	0.750			
0.8996	57572.78	3.5230	3.5232	1.2232	25.76	-0.17	0.750			
0.9028	57777.46	3.5200	3.5200	0.9572	25.78	-0.15	0.750			
0.9049	57913.35	3.5170	3.5166	0.6929	25.79	-0.14	0.750			
0.9061	57991.85	3.5140	3.5137	0.5177	25.79	-0.14	0.750			
0.9074	58071.04	3.5110	3.5107	0.4224	25.80	-0.13	0.750			
0.9083	58134.36	3.5080	3.5080	0.3676	25.81	-0.12	0.750			
0.9094	58200.54	3.5050	3.5050	0.3375	25.81	-0.12	0.750			
0.9103	58260.94	3.5020	3.5020	0.3199	25.82	-0.11	0.750			
0.9112	58319.66	3.4990	3.4990	0.3056	25.82	-0.11	0.750			
0.9121	58375.91	3.4960	3.4960	0.2954	25.83	-0.10	0.750			
0.9130	58431.77	3.4930	3.4930	0.2882	25.83	-0.10	0.750			
0.9138	58486.13	3.4900	3.4901	0.2814	25.84	-0.09	0.750			
0.9147	58539.61	3.4870	3.4870	0.2757	25.85	-0.08	0.750			
0.9155	58593.08	3.4840	3.4840	0.2712	25.85	-0.08	0.750			
0.9163	58643.21	3.4810	3.4811	0.2638	25.86	-0.07	0.750			
0.9171	58693.50	3.4780	3.4779	0.2581	25.87	-0.06	0.750			
0.9179	58742.44	3.4750	3.4750	0.2525	25.87	-0.06	0.750			
0.9186	58790.24	3.4720	3.4719	0.2476	25.88	-0.05	0.750			
0.9193	58837.05	3.4690	3.4690	0.2428	25.88	-0.05	0.750			
0.9200	58883.11	3.4660	3.4659	0.2382	25.89	-0.04	0.750			
0.9208	58928.31	3.4630	3.4630	0.2348	25.90	-0.03	0.750			
0.9215	58972.92	3.4600	3.4601	0.2301	25.90	-0.03	0.750			
0.9221	59017.50	3.4570	3.4569	0.2271	25.91	-0.02	0.750			
0.9228	59060.62	3.4540	3.4540	0.2220	25.91	-0.02	0.750			
0.9235	59102.84	3.4510	3.4511	0.2179	25.92	-0.01	0.750			
0.9241	59144.20	3.4480	3.4480	0.2134	25.92	-0.01	0.750			
0.9248	59184.33	3.4450	3.4449	0.2093	25.93	-0.00	0.750			
0.9254	59224.31	3.4420	3.4420	0.2054	25.93	0.00	0.750			
0.9260	59263.09	3.4390	3.4391	0.2013	25.94	0.01	0.750			
0.9266	59302.02	3.4360	3.4360	0.1963	25.94	0.01	0.750			
0.9272	59339.37	3.4330	3.4331	0.1923	25.95	0.02	0.750			
0.9277	59375.54	3.4300	3.4300	0.1869	25.95	0.02	0.750			
0.9283	59410.95	3.4270	3.4271	0.1819	25.96	0.03	0.750			
0.9288	59445.19	3.4240	3.4239	0.1780	25.96	0.03	0.750			
0.9294	59478.63	3.4210	3.4211	0.1728	25.97	0.04	0.750			
0.9299	59511.55	3.4180	3.4180	0.1694	25.97	0.04	0.750			
0.9304	59543.68	3.4150	3.4150	0.1659	25.97	0.04	0.750			
0.9309	59575.72	3.4120	3.4120	0.1615	25.98	0.05	0.750			
0.9313	59606.37	3.4090	3.4090	0.1558	25.98	0.05	0.750			
0.9318	59636.08	3.4060	3.4058	0.1507	25.99	0.06	0.750			
0.9323	59664.28	3.4030	3.4032	0.1453	25.99	0.06	0.750			
0.9327	59691.36	3.4000	3.4000	0.1400	25.99	0.06	0.750			
0.9331	59717.75	3.3970	3.3969	0.1349	26.00	0.07	0.750			
0.9335	59743.30	3.3940	3.3939	0.1293	26.00	0.07	0.750			
0.9339	59767.27	3.3910	3.3912	0.1235	26.00	0.07	0.750			
0.9342	59791.34	3.3880	3.3878	0.1177	26.01	0.08	0.750			
0.9346	59813.72	3.3850	3.3851	0.1119	26.01	0.08	0.750			
0.9349	59834.48	3.3820	3.3820	0.1044	26.01	0.08	0.750			
0.9352	59854.47	3.3790	3.3790	0.0958	26.01	0.08	0.750			
0.9355	59871.99	3.3760	3.3761	0.0867	26.02	0.09	0.750			
0.9358	59888.04	3.3730	3.3730	0.0781	26.02	0.09	0.750			
0.9360	59902.13	3.3700	3.3703	0.0687	26.02	0.09	0.750			
0.9362	59914.81	3.3670	3.3675	0.0593	26.02	0.09	0.750			
0.9363	59925.25	3.3640	3.3649	0.0494	26.02	0.09	0.750			
0.9365	59933.78	3.3610	3.3624	0.0395	26.02	0.09	0.750			
0.9366	59940.41	3.3580	3.3598	0.0296	26.03	0.10	0.750			
