Ah_balance (normalized)	Ah_balance (mAh)	Voltage - fit (V)	Voltage -  interpolate (V)	dQ/dV (1/V)	Temperature (°C)	Temperature - diff (°C)	Current (C)	R_DC 0ms (mOhm)	R_DC 50ms (mOhm)	R_DC 50 ms PEC (mOhm)
0.0005	28.88	4.1570	4.1573	-0.1469	26.00	0.01	-0.750			
0.0010	61.31	4.1540	4.1539	-0.1839	26.00	0.01	-0.750			
0.0016	99.94	4.1510	4.1510	-0.2185	26.00	0.01	-0.750			
0.0023	145.65	4.1480	4.1479	-0.2512	26.00	0.01	-0.750			
0.0031	197.15	4.1450	4.1451	-0.2827	26.00	0.01	-0.750			
0.0040	255.21	4.1420	4.1421	-0.3148	25.99	0.00	-0.750			
0.0050	318.97	4.1390	4.1390	-0.3460	25.99	0.00	-0.750			
0.0061	388.36	4.1360	4.1359	-0.3771	25.99	-0.00	-0.750			
0.0072	463.84	4.1330	4.1331	-0.4063	25.98	-0.01	-0.750			
0.0085	544.52	4.1300	4.1300	-0.4343	25.98	-0.01	-0.750			
0.0099	631.31	4.1270	4.1271	-0.4616	25.97	-0.02	-0.750			
0.0113	723.29	4.1240	4.1240	-0.4850	25.97	-0.02	-0.750			
0.0128	818.74	4.1210	4.1210	-0.5064	25.97	-0.02	-0.750			
0.0144	918.94	4.1180	4.1181	-0.5260	25.96	-0.03	-0.750			
0.0160	1022.22	4.1150	4.1149	-0.5424	25.95	-0.04	-0.750			
0.0176	1129.08	4.1120	4.1123	-0.5569	25.95	-0.04	-0.750			
0.0193	1236.80	4.1090	4.1090	-0.5720	25.95	-0.04	-0.750			
0.0211	1348.74	4.1060	4.1060	-0.5836	25.94	-0.05	-0.750			
0.0229	1462.52	4.1030	4.1029	-0.5930	25.94	-0.05	-0.750			
0.0246	1577.47	4.1000	4.1000	-0.6012	25.94	-0.05	-0.750			
0.0265	1694.26	4.0970	4.0970	-0.6073	25.94	-0.05	-0.750			
0.0283	1812.07	4.0940	4.0940	-0.6148	25.93	-0.06	-0.750			
0.0302	1930.21	4.0910	4.0911	-0.6206	25.93	-0.06	-0.750			
0.0320	2048.00	4.0880	4.0880	-0.6268	25.93	-0.06	-0.750			
0.0339	2170.05	4.0850	4.0849	-0.6370	25.92	-0.07	-0.750			
0.0358	2293.03	4.0820	4.0820	-0.6467	25.92	-0.07	-0.750			
0.0378	2419.54	4.0790	4.0789	-0.6562	25.92	-0.07	-0.750			
0.0398	2546.67	4.0760	4.0760	-0.6590	25.91	-0.08	-0.750			
0.0418	2674.88	4.0730	4.0730	-0.6610	25.91	-0.08	-0.750			
0.0438	2801.26	4.0700	4.0699	-0.6633	25.91	-0.08	-0.750			
0.0458	2928.13	4.0670	4.0670	-0.6620	25.91	-0.08	-0.750			
0.0477	3054.05	4.0640	4.0641	-0.6714	25.91	-0.08	-0.750			
0.0497	3182.42	4.0610	4.0610	-0.6746	25.91	-0.08	-0.750			
0.0518	3314.81	4.0580	4.0580	-0.6824	25.91	-0.08	-0.750			
0.0539	3447.55	4.0550	4.0549	-0.6834	25.91	-0.08	-0.750			
0.0559	3579.77	4.0520	4.0520	-0.6877	25.91	-0.08	-0.750			
0.0580	3711.21	4.0490	4.0491	-0.6887	25.91	-0.08	-0.750			
0.0600	3843.18	4.0460	4.0460	-0.6902	25.91	-0.08	-0.750			
0.0621	3974.71	4.0430	4.0429	-0.6863	25.91	-0.08	-0.750			
0.0642	4107.81	4.0400	4.0401	-0.6944	25.91	-0.08	-0.750			
0.0663	4241.51	4.0370	4.0370	-0.6974	25.91	-0.08	-0.750			
0.0684	4375.31	4.0340	4.0339	-0.7004	25.91	-0.08	-0.750			
0.0705	4509.49	4.0310	4.0310	-0.7005	25.91	-0.08	-0.750			
0.0726	4643.23	4.0280	4.0280	-0.7102	25.91	-0.08	-0.750			
0.0747	4782.62	4.0250	4.0250	-0.7091	25.91	-0.08	-0.750			
0.0769	4919.85	4.0220	4.0220	-0.7094	25.91	-0.08	-0.750			
0.0790	5054.64	4.0190	4.0190	-0.7111	25.91	-0.08	-0.750			
0.0811	5192.19	4.0160	4.0158	-0.7121	25.91	-0.08	-0.750			
0.0832	5327.91	4.0130	4.0129	-0.7109	25.91	-0.08	-0.750			
0.0854	5464.20	4.0100	4.0101	-0.7160	25.91	-0.08	-0.750			
0.0875	5601.29	4.0070	4.0071	-0.7167	25.91	-0.08	-0.750			
0.0897	5741.18	4.0040	4.0039	-0.7261	25.91	-0.08	-0.750			
0.0919	5880.83	4.0010	4.0011	-0.7238	25.91	-0.08	-0.750			
0.0941	6019.30	3.9980	3.9980	-0.7250	25.91	-0.08	-0.750			
0.0962	6159.64	3.9950	3.9949	-0.7298	25.91	-0.08	-0.750			
0.0984	6299.54	3.9920	3.9922	-0.7342	25.91	-0.08	-0.750			
0.1006	6440.25	3.9890	3.9889	-0.7334	25.92	-0.07	-0.750			
0.1029	6583.26	3.9860	3.9860	-0.7387	25.92	-0.07	-0.750			
0.1051	6725.04	3.9830	3.9832	-0.7364	25.92	-0.07	-0.750			
0.1073	6867.74	3.9800	3.9800	-0.7377	25.92	-0.07	-0.750			
0.1095	7006.81	3.9770	3.9770	-0.7387	25.92	-0.07	-0.750			
0.1117	7148.22	3.9740	3.9739	-0.7355	25.93	-0.06	-0.750			
0.1139	7290.43	3.9710	3.9710	-0.7393	25.93	-0.06	-0.750			
0.1161	7431.76	3.9680	3.9680	-0.7417	25.93	-0.06	-0.750			
0.1183	7574.38	3.9650	3.9651	-0.7466	25.93	-0.06	-0.750			
0.1206	7719.11	3.9620	3.9619	-0.7506	25.93	-0.06	-0.750			
0.1229	7862.74	3.9590	3.9589	-0.7546	25.93	-0.06	-0.750			
0.1251	8007.72	3.9560	3.9560	-0.7566	25.94	-0.05	-0.750			
0.1274	8155.47	3.9530	3.9530	-0.7593	25.94	-0.05	-0.750			
0.1297	8302.03	3.9500	3.9501	-0.7578	25.94	-0.05	-0.750			
0.1320	8446.12	3.9470	3.9470	-0.7593	25.94	-0.05	-0.750			
0.1342	8589.09	3.9440	3.9440	-0.7634	25.94	-0.05	-0.750			
0.1365	8738.12	3.9410	3.9409	-0.7577	25.95	-0.04	-0.750			
0.1388	8882.97	3.9380	3.9380	-0.7577	25.95	-0.04	-0.750			
0.1411	9029.86	3.9350	3.9351	-0.7659	25.95	-0.04	-0.750			
0.1434	9177.09	3.9320	3.9318	-0.7689	25.95	-0.04	-0.750			
0.1457	9323.57	3.9290	3.9289	-0.7730	25.96	-0.03	-0.750			
0.1480	9472.39	3.9260	3.9260	-0.7735	25.96	-0.03	-0.750			
0.1504	9622.66	3.9230	3.9230	-0.7746	25.96	-0.03	-0.750			
0.1527	9775.35	3.9200	3.9199	-0.7771	25.97	-0.02	-0.750			
0.1550	9921.30	3.9170	3.9173	-0.7769	25.97	-0.02	-0.750			
0.1573	10069.88	3.9140	3.9141	-0.7764	25.97	-0.02	-0.750			
0.1597	10218.56	3.9110	3.9108	-0.7803	25.97	-0.02	-0.750			
0.1620	10369.26	3.9080	3.9080	-0.7801	25.97	-0.02	-0.750			
0.1644	10522.19	3.9050	3.9050	-0.7805	25.97	-0.02	-0.750			
0.1667	10670.50	3.9020	3.9020	-0.7798	25.97	-0.02	-0.750			
0.1691	10820.72	3.8990	3.8989	-0.7814	25.97	-0.02	-0.750			
0.1714	10967.49	3.8960	3.8960	-0.7840	25.98	-0.01	-0.750			
0.1737	11118.62	3.8930	3.8928	-0.7865	25.98	-0.01	-0.750			
0.1761	11270.48	3.8900	3.8901	-0.7870	25.98	-0.01	-0.750			
0.1785	11424.49	3.8870	3.8869	-0.7975	25.99	-0.00	-0.750			
0.1809	11578.34	3.8840	3.8842	-0.7950	25.99	0.00	-0.750			
0.1833	11729.35	3.8810	3.8809	-0.7968	26.00	0.01	-0.750			
0.1857	11884.08	3.8780	3.8780	-0.7948	26.00	0.01	-0.750			
0.1881	12035.41	3.8750	3.8750	-0.7911	26.00	0.01	-0.750			
0.1905	12188.98	3.8720	3.8721	-0.7936	26.01	0.02	-0.750			
0.1928	12341.55	3.8690	3.8692	-0.7964	26.01	0.02	-0.750			
0.1952	12492.34	3.8660	3.8660	-0.7956	26.01	0.02	-0.750			
0.1976	12646.47	3.8630	3.8630	-0.8030	26.01	0.02	-0.750			
0.2000	12802.58	3.8600	3.8599	-0.7943	26.01	0.02	-0.750			
0.2025	12957.81	3.8570	3.8570	-0.8007	26.01	0.02	-0.750			
0.2048	13109.57	3.8540	3.8544	-0.7969	26.01	0.02	-0.750			
0.2072	13262.51	3.8510	3.8509	-0.7921	26.01	0.02	-0.750			
0.2096	13412.53	3.8480	3.8478	-0.7962	26.02	0.03	-0.750			
0.2119	13563.77	3.8450	3.8451	-0.7942	26.02	0.03	-0.750			
0.2144	13720.00	3.8420	3.8420	-0.8016	26.03	0.04	-0.750			
0.2168	13874.20	3.8390	3.8392	-0.8015	26.03	0.04	-0.750			
0.2192	14027.86	3.8360	3.8359	-0.7901	26.03	0.04	-0.750			
0.2215	14178.40	3.8330	3.8330	-0.7891	26.04	0.05	-0.750			
0.2239	14328.02	3.8300	3.8300	-0.7898	26.04	0.05	-0.750			
0.2262	14477.54	3.8270	3.8270	-0.7898	26.04	0.05	-0.750			
0.2286	14633.02	3.8240	3.8238	-0.7945	26.05	0.06	-0.750			
0.2310	14785.83	3.8210	3.8212	-0.7940	26.05	0.06	-0.750			
0.2334	14937.84	3.8180	3.8180	-0.7960	26.05	0.06	-0.750			
0.2358	15092.90	3.8150	3.8150	-0.7952	26.05	0.06	-0.750			
0.2382	15243.35	3.8120	3.8120	-0.7855	26.05	0.06	-0.750			
0.2405	15394.65	3.8090	3.8088	-0.7780	26.05	0.06	-0.750			
0.2429	15544.48	3.8060	3.8063	-0.7749	26.05	0.06	-0.750			
0.2452	15693.09	3.8030	3.8030	-0.7685	26.05	0.06	-0.750			
0.2475	15839.59	3.8000	3.7999	-0.7657	26.06	0.07	-0.750			
0.2498	15986.62	3.7970	3.7970	-0.7578	26.06	0.07	-0.750			
0.2521	16131.35	3.7940	3.7940	-0.7542	26.07	0.08	-0.750			
0.2543	16275.99	3.7910	3.7909	-0.7458	26.07	0.08	-0.750			
0.2565	16418.66	3.7880	3.7879	-0.7452	26.07	0.08	-0.750			
0.2588	16560.39	3.7850	3.7849	-0.7351	26.08	0.09	-0.750			
0.2609	16698.93	3.7820	3.7820	-0.7395	26.08	0.09	-0.750			
0.2631	16840.50	3.7790	3.7790	-0.7370	26.08	0.09	-0.750			
0.2654	16984.96	3.7760	3.7760	-0.7433	26.09	0.10	-0.750			
0.2676	17128.05	3.7730	3.7732	-0.7393	26.09	0.10	-0.750			
0.2699	17271.08	3.7700	3.7700	-0.7403	26.09	0.10	-0.750			
0.2720	17411.12	3.7670	3.7670	-0.7382	26.09	0.10	-0.750			
0.2743	17552.88	3.7640	3.7640	-0.7373	26.10	0.11	-0.750			
0.2765	17693.93	3.7610	3.7609	-0.7348	26.10	0.11	-0.750			
0.2787	17835.12	3.7580	3.7580	-0.7384	26.10	0.11	-0.750			
0.2809	17976.77	3.7550	3.7551	-0.7398	26.10	0.11	-0.750			
0.2831	18118.42	3.7520	3.7519	-0.7444	26.10	0.11	-0.750			
0.2853	18260.80	3.7490	3.7490	-0.7461	26.10	0.11	-0.750			
0.2876	18403.36	3.7460	3.7460	-0.7529	26.11	0.12	-0.750			
0.2898	18549.46	3.7430	3.7430	-0.7637	26.11	0.12	-0.750			
0.2922	18698.30	3.7400	3.7401	-0.7715	26.11	0.12	-0.750			
0.2945	18846.60	3.7370	3.7370	-0.7762	26.11	0.12	-0.750			
0.2968	18995.40	3.7340	3.7341	-0.7919	26.11	0.12	-0.750			
0.2992	19149.63	3.7310	3.7310	-0.7995	26.12	0.13	-0.750			
0.3016	19302.96	3.7280	3.7279	-0.8096	26.12	0.13	-0.750			
0.3041	19459.56	3.7250	3.7251	-0.8191	26.12	0.13	-0.750			
0.3065	19618.39	3.7220	3.7220	-0.8305	26.12	0.13	-0.750			
0.3091	19779.27	3.7190	3.7189	-0.8507	26.12	0.13	-0.750			
0.3116	19944.30	3.7160	3.7160	-0.8600	26.12	0.13	-0.750			
0.3142	20108.38	3.7130	3.7130	-0.8699	26.12	0.13	-0.750			
0.3169	20280.03	3.7100	3.7100	-0.8926	26.12	0.13	-0.750			
0.3195	20449.40	3.7070	3.7070	-0.9166	26.12	0.13	-0.750			
0.3223	20628.96	3.7040	3.7039	-0.9299	26.12	0.13	-0.750			
0.3251	20808.85	3.7010	3.7009	-0.9448	26.11	0.12	-0.750			
0.3280	20991.87	3.6980	3.6980	-0.9519	26.11	0.12	-0.750			
0.3309	21180.14	3.6950	3.6951	-0.9745	26.11	0.12	-0.750			
0.3339	21366.69	3.6920	3.6919	-0.9924	26.10	0.11	-0.750			
0.3368	21555.48	3.6890	3.6889	-1.0091	26.10	0.11	-0.750			
0.3398	21747.46	3.6860	3.6859	-1.0304	26.09	0.10	-0.750			
0.3430	21951.76	3.6830	3.6832	-1.0678	26.09	0.10	-0.750			
0.3463	22163.08	3.6800	3.6798	-1.0831	26.09	0.10	-0.750			
0.3496	22373.92	3.6770	3.6770	-1.1013	26.08	0.09	-0.750			
0.3529	22585.61	3.6740	3.6740	-1.1150	26.08	0.09	-0.750			
0.3563	22802.03	3.6710	3.6711	-1.1385	26.08	0.09	-0.750			
0.3597	23021.69	3.6680	3.6678	-1.1535	26.07	0.08	-0.750			
0.3632	23242.37	3.6650	3.6650	-1.1679	26.06	0.07	-0.750			
0.3667	23468.81	3.6620	3.6621	-1.1845	26.05	0.06	-0.750			
0.3703	23700.74	3.6590	3.6590	-1.2139	26.05	0.06	-0.750			
0.3740	23934.05	3.6560	3.6560	-1.2298	26.04	0.05	-0.750			
0.3777	24170.45	3.6530	3.6530	-1.2579	26.03	0.04	-0.750			
0.3815	24413.52	3.6500	3.6501	-1.2796	26.03	0.04	-0.750			
0.3854	24664.87	3.6470	3.6469	-1.3078	26.02	0.03	-0.750			
0.3894	24918.41	3.6440	3.6440	-1.3340	26.01	0.02	-0.750			
0.3934	25175.85	3.6410	3.6411	-1.3612	26.01	0.02	-0.750			
0.3976	25445.69	3.6380	3.6380	-1.3723	26.00	0.01	-0.750			
0.4017	25710.06	3.6350	3.6349	-1.3967	26.00	0.01	-0.750			
0.4059	25979.52	3.6320	3.6321	-1.4106	25.99	-0.00	-0.750			
0.4102	26252.65	3.6290	3.6291	-1.4291	25.98	-0.01	-0.750			
0.4145	26525.26	3.6260	3.6258	-1.4719	25.97	-0.02	-0.750			
0.4189	26809.00	3.6230	3.6230	-1.4980	25.97	-0.02	-0.750			
0.4235	27103.17	3.6200	3.6198	-1.5285	25.96	-0.03	-0.750			
0.4281	27401.56	3.6170	3.6172	-1.5789	25.95	-0.04	-0.750			
0.4330	27709.22	3.6140	3.6140	-1.6150	25.95	-0.04	-0.750	0.399	0.539	
0.4379	28028.56	3.6110	3.6108	-1.6622	25.94	-0.05	-0.750			
0.4429	28348.67	3.6080	3.6081	-1.6906	25.93	-0.06	-0.750			
0.4481	28675.94	3.6050	3.6052	-1.7214	25.93	-0.06	-0.750			
0.4534	29015.66	3.6020	3.6022	-1.7498	25.93	-0.06	-0.750			
0.4586	29353.24	3.5990	3.5988	-1.7684	25.93	-0.06	-0.750			
0.4639	29692.46	3.5960	3.5957	-1.8064	25.92	-0.07	-0.750			
0.4694	30042.49	3.5930	3.5931	-1.8381	25.92	-0.07	-0.750			
0.4750	30398.34	3.5900	3.5898	-1.8951	25.91	-0.08	-0.750			
0.4807	30763.22	3.5870	3.5872	-1.9415	25.90	-0.09	-0.750			
0.4866	31144.20	3.5840	3.5842	-1.9609	25.90	-0.09	-0.750			
0.4926	31528.53	3.5810	3.5811	-1.9980	25.90	-0.09	-0.750			
0.4987	31914.19	3.5780	3.5780	-2.0352	25.90	-0.09	-0.750			
0.5048	32308.32	3.5750	3.5750	-2.0696	25.89	-0.10	-0.750			
0.5111	32713.01	3.5720	3.5719	-2.0966	25.89	-0.10	-0.750			
0.5174	33114.74	3.5690	3.5690	-2.0970	25.89	-0.10	-0.750			
0.5237	33517.96	3.5660	3.5660	-2.1136	25.89	-0.10	-0.750			
0.5302	33931.46	3.5630	3.5630	-2.1500	25.89	-0.10	-0.750			
0.5366	34342.24	3.5600	3.5599	-2.1395	25.88	-0.11	-0.750			
0.5430	34751.29	3.5570	3.5570	-2.1506	25.88	-0.11	-0.750			
0.5495	35166.88	3.5540	3.5541	-2.1468	25.89	-0.10	-0.750			
0.5561	35590.42	3.5510	3.5510	-2.1364	25.89	-0.10	-0.750			
0.5624	35995.30	3.5480	3.5481	-2.1766	25.89	-0.10	-0.750			
0.5689	36410.71	3.5450	3.5449	-2.1853	25.89	-0.10	-0.750			
0.5755	36834.57	3.5420	3.5415	-2.1669	25.89	-0.10	-0.750			
0.5821	37255.07	3.5390	3.5393	-2.1527	25.89	-0.10	-0.750			
0.5886	37673.37	3.5360	3.5361	-2.1308	25.90	-0.09	-0.750			
0.5949	38073.36	3.5330	3.5329	-2.0876	25.90	-0.09	-0.750			
0.6011	38469.12	3.5300	3.5300	-2.0141	25.91	-0.08	-0.750			
0.6072	38859.56	3.5270	3.5271	-1.9843	25.91	-0.08	-0.750			
0.6131	39239.01	3.5240	3.5240	-1.9538	25.92	-0.07	-0.750			
0.6189	39607.59	3.5210	3.5209	-1.8983	25.93	-0.06	-0.750			
0.6244	39963.80	3.5180	3.5180	-1.8573	25.94	-0.05	-0.750			
0.6300	40318.13	3.5150	3.5149	-1.8149	25.95	-0.04	-0.750			
0.6353	40661.08	3.5120	3.5122	-1.7765	25.96	-0.03	-0.750			
0.6407	41004.22	3.5090	3.5090	-1.7440	25.97	-0.02	-0.750			
0.6459	41335.88	3.5060	3.5060	-1.6905	25.98	-0.01	-0.750			
0.6508	41653.85	3.5030	3.5030	-1.6305	25.99	0.00	-0.750			
0.6557	41962.64	3.5000	3.5003	-1.5786	26.00	0.01	-0.750			
0.6603	42260.21	3.4970	3.4970	-1.5242	26.01	0.02	-0.750			
0.6648	42547.06	3.4940	3.4939	-1.4832	26.02	0.03	-0.750			
0.6691	42824.89	3.4910	3.4909	-1.4307	26.04	0.05	-0.750			
0.6734	43095.26	3.4880	3.4880	-1.3908	26.06	0.07	-0.750			
0.6775	43358.83	3.4850	3.4849	-1.3491	26.08	0.09	-0.750			
0.6815	43613.30	3.4820	3.4820	-1.3042	26.09	0.10	-0.750			
0.6854	43862.65	3.4790	3.4790	-1.2659	26.11	0.12	-0.750			
0.6890	44098.05	3.4760	3.4759	-1.2201	26.12	0.13	-0.750			
0.6926	44324.74	3.4730	3.4734	-1.1833	26.13	0.14	-0.750			
0.6961	44553.16	3.4700	3.4699	-1.1510	26.14	0.15	-0.750			
0.6995	44770.24	3.4670	3.4670	-1.1130	26.15	0.16	-0.750			
0.7028	44980.91	3.4640	3.4640	-1.0791	26.16	0.17	-0.750			
0.7060	45184.59	3.4610	3.4610	-1.0444	26.18	0.19	-0.750			
0.7091	45381.56	3.4580	3.4579	-1.0167	26.19	0.20	-0.750			
0.7121	45571.36	3.4550	3.4550	-0.9809	26.21	0.22	-0.750			
0.7149	45756.10	3.4520	3.4519	-0.9492	26.23	0.24	-0.750			
0.7178	45938.17	3.4490	3.4492	-0.9275	26.24	0.25	-0.750			
0.7205	46111.28	3.4460	3.4460	-0.9037	26.25	0.26	-0.750			
0.7231	46280.92	3.4430	3.4430	-0.8827	26.26	0.27	-0.750			
0.7257	46446.01	3.4400	3.4399	-0.8661	26.27	0.28	-0.750			
0.7283	46610.97	3.4370	3.4369	-0.8595	26.28	0.29	-0.750			
0.7309	46774.94	3.4340	3.4340	-0.8572	26.29	0.30	-0.750			
0.7334	46937.76	3.4310	3.4310	-0.8631	26.30	0.31	-0.750			
0.7360	47103.39	3.4280	3.4280	-0.8691	26.31	0.32	-0.750			
0.7386	47269.07	3.4250	3.4249	-0.8735	26.32	0.33	-0.750			
0.7412	47439.81	3.4220	3.4220	-0.8808	26.34	0.35	-0.750			
0.7439	47608.35	3.4190	3.4191	-0.8916	26.34	0.35	-0.750			
0.7466	47780.76	3.4160	3.4160	-0.9063	26.35	0.36	-0.750			
0.7493	47957.48	3.4130	3.4128	-0.9083	26.36	0.37	-0.750			
0.7521	48131.96	3.4100	3.4100	-0.9117	26.36	0.37	-0.750			
0.7549	48310.40	3.4070	3.4073	-0.9110	26.37	0.38	-0.750			
0.7576	48487.47	3.4040	3.4039	-0.9110	26.38	0.39	-0.750			
0.7604	48663.20	3.4010	3.4009	-0.8972	26.39	0.40	-0.750			
0.7630	48831.96	3.3980	3.3980	-0.8752	26.40	0.41	-0.750			
0.7657	49002.28	3.3950	3.3949	-0.8615	26.40	0.41	-0.750			
0.7682	49165.76	3.3920	3.3921	-0.8371	26.41	0.42	-0.750			
0.7707	49322.40	3.3890	3.3890	-0.8108	26.42	0.43	-0.750			
0.7731	49476.40	3.3860	3.3860	-0.7867	26.43	0.44	-0.750			
0.7754	49624.16	3.3830	3.3829	-0.7582	26.44	0.45	-0.750			
0.7776	49769.19	3.3800	3.3800	-0.7327	26.44	0.45	-0.750			
0.7798	49906.63	3.3770	3.3772	-0.7078	26.45	0.46	-0.750			
0.7819	50039.62	3.3740	3.3740	-0.6832	26.45	0.46	-0.750			
0.7839	50167.81	3.3710	3.3710	-0.6563	26.46	0.47	-0.750			
0.7858	50290.73	3.3680	3.3679	-0.6355	26.46	0.47	-0.750			
0.7877	50410.65	3.3650	3.3651	-0.6143	26.47	0.48	-0.750			
0.7895	50526.72	3.3620	3.3620	-0.5934	26.47	0.48	-0.750			
0.7912	50639.60	3.3590	3.3590	-0.5754	26.48	0.49	-0.750			
0.7929	50746.74	3.3560	3.3560	-0.5540	26.48	0.49	-0.750			
0.7945	50850.60	3.3530	3.3530	-0.5355	26.49	0.50	-0.750			
0.7961	50952.33	3.3500	3.3500	-0.5173	26.50	0.51	-0.750			
0.7976	51049.33	3.3470	3.3470	-0.4985	26.51	0.52	-0.750			
0.7991	51143.37	3.3440	3.3440	-0.4842	26.51	0.52	-0.750			
0.8005	51234.22	3.3410	3.3410	-0.4715	26.52	0.53	-0.750			
0.8019	51323.55	3.3380	3.3379	-0.4540	26.53	0.54	-0.750			
0.8033	51409.26	3.3350	3.3349	-0.4404	26.53	0.54	-0.750			
0.8046	51492.72	3.3320	3.3322	-0.4259	26.54	0.55	-0.750			
0.8058	51573.24	3.3290	3.3289	-0.4140	26.54	0.55	-0.750			
0.8070	51650.94	3.3260	3.3260	-0.4011	26.55	0.56	-0.750			
0.8082	51725.96	3.3230	3.3230	-0.3898	26.56	0.57	-0.750			
0.8094	51798.54	3.3200	3.3201	-0.3779	26.56	0.57	-0.750			
0.8105	51872.19	3.3170	3.3169	-0.3718	26.57	0.58	-0.750			
0.8116	51941.58	3.3140	3.3141	-0.3605	26.57	0.58	-0.750			
0.8127	52010.50	3.3110	3.3110	-0.3509	26.58	0.59	-0.750			
0.8137	52076.36	3.3080	3.3080	-0.3403	26.58	0.59	-0.750			
0.8147	52140.77	3.3050	3.3050	-0.3298	26.59	0.60	-0.750			
0.8157	52203.02	3.3020	3.3020	-0.3215	26.59	0.60	-0.750			
0.8166	52263.97	3.2990	3.2990	-0.3132	26.60	0.61	-0.750			
0.8175	52322.49	3.2960	3.2961	-0.3054	26.60	0.61	-0.750			
0.8184	52379.64	3.2930	3.2930	-0.2992	26.61	0.62	-0.750			
0.8193	52436.91	3.2900	3.2900	-0.2951	26.61	0.62	-0.750			
0.8202	52493.22	3.2870	3.2868	-0.2891	26.62	0.63	-0.750			
0.8211	52548.69	3.2840	3.2841	-0.2841	26.62	0.63	-0.750			
0.8219	52602.67	3.2810	3.2811	-0.2776	26.63	0.64	-0.750			
0.8227	52655.65	3.2780	3.2780	-0.2720	26.63	0.64	-0.750			
0.8235	52706.98	3.2750	3.2750	-0.2661	26.64	0.65	-0.750			
0.8243	52756.41	3.2720	3.2720	-0.2594	26.64	0.65	-0.750			
0.8251	52805.86	3.2690	3.2690	-0.2552	26.65	0.66	-0.750			
0.8259	52854.73	3.2660	3.2660	-0.2516	26.65	0.66	-0.750			
0.8266	52902.06	3.2630	3.2631	-0.2487	26.66	0.67	-0.750			
0.8273	52949.66	3.2600	3.2600	-0.2455	26.66	0.67	-0.750			
0.8281	52996.77	3.2570	3.2569	-0.2416	26.67	0.68	-0.750			
0.8288	53043.19	3.2540	3.2539	-0.2370	26.67	0.68	-0.750			
0.8295	53088.34	3.2510	3.2511	-0.2323	26.68	0.69	-0.750			
0.8302	53132.56	3.2480	3.2480	-0.2293	26.68	0.69	-0.750			
0.8309	53175.90	3.2450	3.2450	-0.2255	26.69	0.70	-0.750			
0.8315	53218.70	3.2420	3.2419	-0.2222	26.69	0.70	-0.750			
0.8322	53260.22	3.2390	3.2389	-0.2182	26.70	0.71	-0.750			
0.8328	53301.97	3.2360	3.2361	-0.2163	26.70	0.71	-0.750			
0.8335	53343.71	3.2330	3.2330	-0.2134	26.71	0.72	-0.750			
0.8341	53384.63	3.2300	3.2300	-0.2113	26.72	0.73	-0.750			
0.8348	53424.84	3.2270	3.2269	-0.2075	26.72	0.73	-0.750			
0.8354	53463.85	3.2240	3.2241	-0.2047	26.73	0.74	-0.750			
0.8360	53502.98	3.2210	3.2210	-0.2020	26.73	0.74	-0.750			
0.8366	53541.44	3.2180	3.2179	-0.1993	26.74	0.75	-0.750			
0.8372	53579.52	3.2150	3.2150	-0.1967	26.74	0.75	-0.750			
0.8378	53616.76	3.2120	3.2121	-0.1947	26.75	0.76	-0.750			
0.8383	53654.21	3.2090	3.2090	-0.1932	26.75	0.76	-0.750			
0.8389	53691.08	3.2060	3.2059	-0.1909	26.76	0.77	-0.750			
0.8395	53727.36	3.2030	3.2030	-0.1885	26.76	0.77	-0.750			
0.8400	53763.13	3.2000	3.2001	-0.1866	26.77	0.78	-0.750			
0.8406	53799.20	3.1970	3.1970	-0.1849	26.77	0.78	-0.750			
0.8412	53834.61	3.1940	3.1940	-0.1820	26.77	0.78	-0.750			
0.8417	53869.49	3.1910	3.1909	-0.1793	26.78	0.79	-0.750			
0.8422	53903.51	3.1880	3.1880	-0.1766	26.78	0.79	-0.750			
0.8428	53937.14	3.1850	3.1851	-0.1743	26.78	0.79	-0.750			
0.8433	53970.17	3.1820	3.1820	-0.1724	26.79	0.80	-0.750			
0.8438	54002.84	3.1790	3.1789	-0.1702	26.80	0.81	-0.750			
0.8443	54034.77	3.1760	3.1760	-0.1696	26.80	0.81	-0.750			
0.8448	54067.58	3.1730	3.1730	-0.1685	26.81	0.82	-0.750			
0.8453	54100.12	3.1700	3.1699	-0.1677	26.81	0.82	-0.750			
0.8458	54132.18	3.1670	3.1670	-0.1663	26.82	0.83	-0.750			
0.8463	54164.16	3.1640	3.1641	-0.1646	26.82	0.83	-0.750			
0.8468	54195.86	3.1610	3.1609	-0.1629	26.83	0.84	-0.750			
0.8473	54226.70	3.1580	3.1580	-0.1606	26.84	0.85	-0.750			
0.8478	54257.34	3.1550	3.1550	-0.1585	26.84	0.85	-0.750			
0.8482	54287.15	3.1520	3.1520	-0.1568	26.85	0.86	-0.750			
0.8487	54317.38	3.1490	3.1490	-0.1557	26.85	0.86	-0.750			
0.8492	54347.00	3.1460	3.1459	-0.1539	26.86	0.87	-0.750			
0.8496	54376.34	3.1430	3.1431	-0.1535	26.86	0.87	-0.750			
0.8501	54405.81	3.1400	3.1400	-0.1520	26.87	0.88	-0.750			
0.8505	54435.04	3.1370	3.1370	-0.1510	26.87	0.88	-0.750			
0.8510	54463.88	3.1340	3.1340	-0.1495	26.88	0.89	-0.750			
0.8514	54492.40	3.1310	3.1311	-0.1482	26.88	0.89	-0.750			
0.8519	54520.80	3.1280	3.1279	-0.1465	26.89	0.90	-0.750			
0.8523	54548.75	3.1250	3.1250	-0.1454	26.89	0.90	-0.750			
0.8528	54576.52	3.1220	3.1220	-0.1439	26.90	0.91	-0.750			
0.8532	54603.69	3.1190	3.1191	-0.1428	26.90	0.91	-0.750			
0.8536	54631.21	3.1160	3.1159	-0.1417	26.91	0.92	-0.750			
0.8540	54658.27	3.1130	3.1130	-0.1404	26.91	0.92	-0.750			
0.8545	54685.13	3.1100	3.1100	-0.1393	26.92	0.93	-0.750			
0.8549	54711.69	3.1070	3.1071	-0.1386	26.92	0.93	-0.750			
0.8553	54738.33	3.1040	3.1040	-0.1380	26.93	0.94	-0.750			
0.8557	54764.68	3.1010	3.1010	-0.1365	26.93	0.94	-0.750			
0.8561	54790.78	3.0980	3.0980	-0.1355	26.94	0.95	-0.750			
0.8565	54816.75	3.0950	3.0950	-0.1343	26.94	0.95	-0.750			
0.8569	54842.56	3.0920	3.0920	-0.1334	26.95	0.96	-0.750			
0.8573	54868.06	3.0890	3.0889	-0.1320	26.96	0.97	-0.750			
0.8577	54893.14	3.0860	3.0861	-0.1310	26.96	0.97	-0.750			
0.8581	54917.96	3.0830	3.0829	-0.1298	26.97	0.98	-0.750			
0.8585	54942.73	3.0800	3.0800	-0.1290	26.98	0.99	-0.750			
0.8589	54967.48	3.0770	3.0770	-0.1285	26.98	0.99	-0.750			
0.8593	54992.09	3.0740	3.0742	-0.1279	26.99	1.00	-0.750			
0.8596	55016.73	3.0710	3.0710	-0.1268	26.99	1.00	-0.750			
0.8600	55040.93	3.0680	3.0679	-0.1259	27.00	1.01	-0.750			
0.8604	55065.08	3.0650	3.0651	-0.1250	27.00	1.01	-0.750			
0.8608	55088.92	3.0620	3.0620	-0.1240	27.01	1.02	-0.750			
0.8611	55112.63	3.0590	3.0590	-0.1230	27.02	1.03	-0.750			
0.8615	55136.10	3.0560	3.0559	-0.1221	27.02	1.03	-0.750			
0.8619	55159.40	3.0530	3.0530	-0.1212	27.03	1.04	-0.750			
0.8622	55182.59	3.0500	3.0500	-0.1206	27.03	1.04	-0.750			
0.8626	55205.76	3.0470	3.0470	-0.1201	27.04	1.05	-0.750			
0.8629	55228.71	3.0440	3.0439	-0.1194	27.04	1.05	-0.750			
0.8633	55251.47	3.0410	3.0411	-0.1186	27.05	1.06	-0.750			
0.8637	55274.30	3.0380	3.0379	-0.1178	27.05	1.06	-0.750			
0.8640	55296.92	3.0350	3.0350	-0.1171	27.06	1.07	-0.750			
0.8644	55319.26	3.0320	3.0321	-0.1165	27.06	1.07	-0.750			
0.8647	55341.57	3.0290	3.0290	-0.1157	27.07	1.08	-0.750			
0.8651	55363.69	3.0260	3.0260	-0.1151	27.07	1.08	-0.750			
0.8654	55385.63	3.0230	3.0229	-0.1142	27.08	1.09	-0.750			
0.8657	55407.58	3.0200	3.0200	-0.1134	27.09	1.10	-0.750			
0.8661	55429.28	3.0170	3.0171	-0.1127	27.09	1.10	-0.750			
0.8664	55450.80	3.0140	3.0139	-0.1121	27.10	1.11	-0.750			
0.8668	55472.38	3.0110	3.0109	-0.1115	27.10	1.11	-0.750			
0.8671	55493.71	3.0080	3.0081	-0.1106	27.11	1.12	-0.751			
0.8674	55514.76	3.0050	3.0050	-0.1102	27.11	1.12	-0.751			
0.8677	55535.88	3.0020	3.0020	-0.1098	27.11	1.12	-0.751			
