Ah_balance (normalized)	Ah_balance (mAh)	Voltage - fit (V)	Voltage -  interpolate (V)	dQ/dV (1/V)	Temperature (°C)	Temperature - diff (°C)	Current (C)	R_DC 0ms (mOhm)	R_DC 50ms (mOhm)	R_DC 50 ms PEC (mOhm)
0.0004	28.16	4.1640	4.1638	-0.1357	25.98	0.03	-0.750			
0.0009	60.16	4.1610	4.1608	-0.1858	25.97	0.02	-0.750			
0.0016	100.30	4.1580	4.1579	-0.2301	25.97	0.02	-0.750			
0.0023	149.06	4.1550	4.1551	-0.2722	25.97	0.02	-0.750			
0.0032	205.47	4.1520	4.1520	-0.3140	25.97	0.02	-0.750			
0.0042	271.03	4.1490	4.1490	-0.3553	25.96	0.01	-0.750			
0.0054	343.57	4.1460	4.1460	-0.3916	25.96	0.01	-0.750			
0.0066	423.10	4.1430	4.1430	-0.4265	25.96	0.01	-0.750			
0.0079	508.54	4.1400	4.1400	-0.4595	25.95	0.00	-0.750			
0.0094	600.45	4.1370	4.1370	-0.4901	25.95	-0.00	-0.750			
0.0109	697.82	4.1340	4.1339	-0.5179	25.94	-0.01	-0.750			
0.0125	799.87	4.1310	4.1310	-0.5423	25.94	-0.01	-0.750			
0.0142	907.33	4.1280	4.1281	-0.5650	25.93	-0.02	-0.750			
0.0159	1019.91	4.1250	4.1250	-0.5863	25.93	-0.02	-0.750			
0.0177	1134.42	4.1220	4.1220	-0.6018	25.92	-0.03	-0.750			
0.0196	1252.06	4.1190	4.1191	-0.6130	25.91	-0.04	-0.750			
0.0214	1370.98	4.1160	4.1161	-0.6255	25.91	-0.04	-0.750			
0.0233	1492.59	4.1130	4.1130	-0.6369	25.91	-0.04	-0.750			
0.0252	1615.42	4.1100	4.1100	-0.6475	25.90	-0.05	-0.750			
0.0272	1741.05	4.1070	4.1070	-0.6591	25.90	-0.05	-0.750			
0.0292	1868.71	4.1040	4.1040	-0.6684	25.90	-0.05	-0.750			
0.0312	1998.49	4.1010	4.1009	-0.6719	25.89	-0.06	-0.750			
0.0333	2129.16	4.0980	4.0981	-0.6801	25.89	-0.06	-0.750			
0.0353	2259.17	4.0950	4.0950	-0.6866	25.89	-0.06	-0.750			
0.0374	2391.21	4.0920	4.0918	-0.6943	25.89	-0.06	-0.750			
0.0395	2525.69	4.0890	4.0890	-0.6990	25.89	-0.06	-0.750			
0.0416	2660.34	4.0860	4.0860	-0.7034	25.89	-0.06	-0.750			
0.0437	2798.23	4.0830	4.0830	-0.7086	25.89	-0.06	-0.750			
0.0459	2934.77	4.0800	4.0800	-0.7123	25.89	-0.06	-0.750			
0.0480	3069.83	4.0770	4.0770	-0.7129	25.89	-0.06	-0.750			
0.0501	3206.00	4.0740	4.0740	-0.7191	25.88	-0.07	-0.750			
0.0523	3344.53	4.0710	4.0709	-0.7207	25.88	-0.07	-0.750			
0.0544	3484.66	4.0680	4.0680	-0.7293	25.88	-0.07	-0.750			
0.0566	3625.03	4.0650	4.0650	-0.7300	25.87	-0.08	-0.750			
0.0589	3767.10	4.0620	4.0620	-0.7330	25.87	-0.08	-0.750			
0.0610	3907.03	4.0590	4.0590	-0.7334	25.87	-0.08	-0.750			
0.0632	4045.62	4.0560	4.0560	-0.7383	25.87	-0.08	-0.750			
0.0655	4188.92	4.0530	4.0530	-0.7392	25.87	-0.08	-0.750			
0.0677	4332.57	4.0500	4.0499	-0.7424	25.87	-0.08	-0.750			
0.0699	4473.74	4.0470	4.0470	-0.7436	25.87	-0.08	-0.750			
0.0722	4618.13	4.0440	4.0439	-0.7458	25.87	-0.08	-0.750			
0.0744	4760.87	4.0410	4.0409	-0.7457	25.87	-0.08	-0.750			
0.0766	4903.44	4.0380	4.0380	-0.7465	25.87	-0.08	-0.750			
0.0789	5046.63	4.0350	4.0350	-0.7472	25.87	-0.08	-0.750			
0.0811	5192.31	4.0320	4.0319	-0.7528	25.87	-0.08	-0.750			
0.0834	5336.59	4.0290	4.0292	-0.7537	25.87	-0.08	-0.750			
0.0856	5480.74	4.0260	4.0259	-0.7551	25.87	-0.08	-0.750			
0.0879	5626.33	4.0230	4.0230	-0.7581	25.87	-0.08	-0.750			
0.0902	5771.65	4.0200	4.0200	-0.7584	25.88	-0.07	-0.750			
0.0925	5918.05	4.0170	4.0170	-0.7628	25.88	-0.07	-0.750			
0.0948	6064.03	4.0140	4.0140	-0.7617	25.88	-0.07	-0.750			
0.0970	6209.93	4.0110	4.0110	-0.7644	25.88	-0.07	-0.750			
0.0993	6355.96	4.0080	4.0080	-0.7678	25.88	-0.07	-0.750			
0.1016	6503.93	4.0050	4.0050	-0.7672	25.88	-0.07	-0.750			
0.1039	6652.12	4.0020	4.0020	-0.7700	25.89	-0.06	-0.750			
0.1063	6800.16	3.9990	3.9990	-0.7727	25.89	-0.06	-0.750			
0.1086	6949.47	3.9960	3.9963	-0.7721	25.89	-0.06	-0.750			
0.1109	7097.52	3.9930	3.9930	-0.7725	25.89	-0.06	-0.750			
0.1132	7244.37	3.9900	3.9900	-0.7761	25.89	-0.06	-0.750			
0.1155	7393.82	3.9870	3.9870	-0.7813	25.90	-0.05	-0.750			
0.1179	7545.19	3.9840	3.9839	-0.7860	25.90	-0.05	-0.750			
0.1202	7695.45	3.9810	3.9808	-0.7886	25.90	-0.05	-0.750			
0.1226	7848.03	3.9780	3.9780	-0.7912	25.90	-0.05	-0.750			
0.1250	8001.12	3.9750	3.9750	-0.7933	25.90	-0.05	-0.750			
0.1274	8153.21	3.9720	3.9720	-0.7910	25.91	-0.04	-0.750			
0.1297	8303.83	3.9690	3.9690	-0.7926	25.91	-0.04	-0.750			
0.1321	8457.44	3.9660	3.9660	-0.7922	25.91	-0.04	-0.750			
0.1345	8609.45	3.9630	3.9630	-0.7926	25.91	-0.04	-0.750			
0.1369	8759.79	3.9600	3.9600	-0.7963	25.91	-0.04	-0.750			
0.1393	8913.53	3.9570	3.9570	-0.8010	25.91	-0.04	-0.750			
0.1417	9068.39	3.9540	3.9539	-0.8019	25.91	-0.04	-0.750			
0.1441	9222.43	3.9510	3.9510	-0.8059	25.91	-0.04	-0.750			
0.1465	9377.87	3.9480	3.9481	-0.8068	25.91	-0.04	-0.750			
0.1490	9534.15	3.9450	3.9450	-0.8106	25.91	-0.04	-0.750			
0.1514	9688.95	3.9420	3.9420	-0.8152	25.92	-0.03	-0.750			
0.1538	9845.48	3.9390	3.9390	-0.8172	25.92	-0.03	-0.750			
0.1563	10003.54	3.9360	3.9359	-0.8207	25.93	-0.02	-0.750			
0.1588	10161.86	3.9330	3.9332	-0.8200	25.93	-0.02	-0.750			
0.1612	10319.39	3.9300	3.9300	-0.8184	25.93	-0.02	-0.750			
0.1637	10476.45	3.9270	3.9270	-0.8228	25.93	-0.02	-0.750			
0.1661	10633.19	3.9240	3.9240	-0.8214	25.93	-0.02	-0.750			
0.1686	10790.60	3.9210	3.9210	-0.8296	25.93	-0.02	-0.750			
0.1711	10950.66	3.9180	3.9181	-0.8321	25.93	-0.02	-0.750			
0.1736	11111.97	3.9150	3.9149	-0.8350	25.93	-0.02	-0.750			
0.1761	11272.75	3.9120	3.9120	-0.8389	25.94	-0.01	-0.750			
0.1787	11434.50	3.9090	3.9091	-0.8383	25.94	-0.01	-0.750			
0.1812	11596.18	3.9060	3.9059	-0.8387	25.95	-0.00	-0.750			
0.1837	11756.81	3.9030	3.9031	-0.8386	25.95	0.00	-0.750			
0.1862	11915.83	3.9000	3.9000	-0.8339	25.95	0.00	-0.750			
0.1887	12077.41	3.8970	3.8969	-0.8422	25.96	0.01	-0.750			
0.1913	12240.33	3.8940	3.8939	-0.8408	25.96	0.01	-0.750			
0.1938	12401.66	3.8910	3.8909	-0.8406	25.97	0.02	-0.750			
0.1963	12562.97	3.8880	3.8883	-0.8434	25.97	0.02	-0.750			
0.1988	12725.42	3.8850	3.8849	-0.8433	25.97	0.02	-0.750			
0.2014	12886.81	3.8820	3.8819	-0.8425	25.97	0.02	-0.750			
0.2039	13047.36	3.8790	3.8791	-0.8420	25.98	0.03	-0.750			
0.2064	13211.40	3.8760	3.8760	-0.8471	25.98	0.03	-0.750			
0.2090	13373.43	3.8730	3.8730	-0.8446	25.98	0.03	-0.750			
0.2115	13535.19	3.8700	3.8700	-0.8424	25.98	0.03	-0.750			
0.2140	13696.57	3.8670	3.8670	-0.8502	25.98	0.03	-0.750			
0.2166	13860.29	3.8640	3.8639	-0.8548	25.99	0.04	-0.750			
0.2191	14025.52	3.8610	3.8609	-0.8581	25.99	0.04	-0.750			
0.2217	14190.54	3.8580	3.8582	-0.8601	25.99	0.04	-0.750			
0.2243	14356.22	3.8550	3.8550	-0.8694	26.00	0.05	-0.750			
0.2270	14524.93	3.8520	3.8519	-0.8655	26.00	0.05	-0.750			
0.2295	14689.82	3.8490	3.8490	-0.8574	26.00	0.05	-0.750			
0.2321	14856.48	3.8460	3.8460	-0.8562	26.01	0.06	-0.750			
0.2347	15020.78	3.8430	3.8429	-0.8530	26.01	0.06	-0.750			
0.2372	15182.87	3.8400	3.8400	-0.8535	26.02	0.07	-0.750			
0.2398	15344.22	3.8370	3.8370	-0.8500	26.02	0.07	-0.750			
0.2423	15506.18	3.8340	3.8340	-0.8517	26.02	0.07	-0.750			
0.2449	15673.56	3.8310	3.8309	-0.8592	26.03	0.08	-0.750			
0.2475	15838.62	3.8280	3.8280	-0.8619	26.03	0.08	-0.750			
0.2501	16004.53	3.8250	3.8250	-0.8659	26.04	0.09	-0.750			
0.2527	16171.29	3.8220	3.8220	-0.8641	26.04	0.09	-0.750			
0.2553	16337.67	3.8190	3.8190	-0.8578	26.04	0.09	-0.750			
0.2579	16503.97	3.8160	3.8159	-0.8591	26.05	0.10	-0.750			
0.2604	16667.53	3.8130	3.8130	-0.8598	26.05	0.10	-0.750			
0.2630	16832.27	3.8100	3.8100	-0.8659	26.05	0.10	-0.750			
0.2656	16998.49	3.8070	3.8068	-0.8629	26.06	0.11	-0.750			
0.2682	17164.57	3.8040	3.8040	-0.8581	26.06	0.11	-0.750			
0.2708	17332.53	3.8010	3.8013	-0.8611	26.06	0.11	-0.750			
0.2734	17497.13	3.7980	3.7980	-0.8567	26.06	0.11	-0.750			
0.2759	17660.49	3.7950	3.7950	-0.8541	26.06	0.11	-0.750			
0.2785	17823.66	3.7920	3.7919	-0.8491	26.07	0.12	-0.750			
0.2810	17986.79	3.7890	3.7890	-0.8514	26.07	0.12	-0.750			
0.2836	18149.77	3.7860	3.7862	-0.8538	26.07	0.12	-0.750			
0.2862	18314.99	3.7830	3.7830	-0.8547	26.07	0.12	-0.750			
0.2887	18478.68	3.7800	3.7799	-0.8560	26.08	0.13	-0.750			
0.2913	18642.51	3.7770	3.7770	-0.8515	26.08	0.13	-0.750			
0.2939	18807.92	3.7740	3.7740	-0.8535	26.09	0.14	-0.750			
0.2964	18972.19	3.7710	3.7711	-0.8460	26.09	0.14	-0.750			
0.2990	19134.28	3.7680	3.7680	-0.8402	26.09	0.14	-0.750			
0.3015	19294.17	3.7650	3.7650	-0.8389	26.10	0.15	-0.750			
0.3040	19453.39	3.7620	3.7621	-0.8361	26.10	0.15	-0.750			
0.3065	19614.70	3.7590	3.7589	-0.8392	26.11	0.16	-0.750			
0.3090	19775.78	3.7560	3.7561	-0.8356	26.11	0.16	-0.750			
0.3115	19936.15	3.7530	3.7529	-0.8381	26.11	0.16	-0.750			
0.3140	20097.52	3.7500	3.7500	-0.8414	26.12	0.17	-0.750			
0.3165	20258.78	3.7470	3.7470	-0.8386	26.12	0.17	-0.750			
0.3191	20421.08	3.7440	3.7439	-0.8433	26.13	0.18	-0.750			
0.3216	20582.17	3.7410	3.7411	-0.8476	26.13	0.18	-0.750			
0.3241	20744.50	3.7380	3.7379	-0.8504	26.13	0.18	-0.750			
0.3267	20908.99	3.7350	3.7350	-0.8600	26.13	0.18	-0.750			
0.3293	21074.86	3.7320	3.7320	-0.8600	26.14	0.19	-0.750			
0.3319	21241.22	3.7290	3.7290	-0.8719	26.14	0.19	-0.750			
0.3345	21408.65	3.7260	3.7260	-0.8800	26.14	0.19	-0.750			
0.3371	21576.83	3.7230	3.7230	-0.8966	26.14	0.19	-0.750			
0.3398	21749.55	3.7200	3.7199	-0.9110	26.15	0.20	-0.750			
0.3426	21925.92	3.7170	3.7170	-0.9186	26.15	0.20	-0.750			
0.3454	22106.99	3.7140	3.7143	-0.9343	26.15	0.20	-0.750			
0.3483	22288.46	3.7110	3.7109	-0.9532	26.15	0.20	-0.750			
0.3511	22470.33	3.7080	3.7079	-0.9622	26.15	0.20	-0.750			
0.3539	22652.63	3.7050	3.7050	-0.9736	26.15	0.20	-0.750			
0.3569	22840.57	3.7020	3.7020	-0.9906	26.15	0.20	-0.750			
0.3599	23035.37	3.6990	3.6990	-1.0167	26.15	0.20	-0.750			
0.3630	23233.24	3.6960	3.6960	-1.0347	26.15	0.20	-0.750			
0.3662	23433.81	3.6930	3.6930	-1.0526	26.15	0.20	-0.750			
0.3693	23635.05	3.6900	3.6900	-1.0707	26.15	0.20	-0.750			
0.3726	23843.50	3.6870	3.6869	-1.1048	26.15	0.20	-0.750			
0.3759	24057.79	3.6840	3.6840	-1.1274	26.15	0.20	-0.750			
0.3794	24278.44	3.6810	3.6809	-1.1475	26.15	0.20	-0.750			
0.3828	24502.39	3.6780	3.6782	-1.1688	26.15	0.20	-0.750			
0.3864	24729.26	3.6750	3.6750	-1.1940	26.15	0.20	-0.750			
0.3900	24959.70	3.6720	3.6720	-1.2126	26.14	0.19	-0.750			
0.3936	25189.61	3.6690	3.6690	-1.2498	26.13	0.18	-0.750			
0.3974	25431.60	3.6660	3.6660	-1.2701	26.13	0.18	-0.750			
0.4013	25681.92	3.6630	3.6629	-1.3075	26.12	0.17	-0.750			
0.4052	25934.76	3.6600	3.6599	-1.3440	26.12	0.17	-0.750			
0.4093	26198.08	3.6570	3.6572	-1.3717	26.11	0.16	-0.750			
0.4135	26465.15	3.6540	3.6539	-1.4001	26.10	0.15	-0.750			
0.4177	26735.43	3.6510	3.6509	-1.4318	26.10	0.15	-0.750			
0.4220	27006.77	3.6480	3.6482	-1.4561	26.09	0.14	-0.750			
0.4265	27297.29	3.6450	3.6449	-1.5035	26.08	0.13	-0.750			
0.4311	27590.85	3.6420	3.6418	-1.5368	26.07	0.12	-0.750			
0.4358	27888.24	3.6390	3.6389	-1.5652	26.07	0.12	-0.750			
0.4406	28195.52	3.6360	3.6360	-1.6078	26.06	0.11	-0.750			
0.4454	28508.26	3.6330	3.6332	-1.6410	26.05	0.10	-0.750			
0.4504	28823.82	3.6300	3.6300	-1.6666	26.04	0.09	-0.750			
0.4554	29148.29	3.6270	3.6269	-1.7045	26.03	0.08	-0.750			
0.4606	29480.82	3.6240	3.6237	-1.7325	26.03	0.08	-0.750	0.390	0.493	
0.4659	29814.61	3.6210	3.6212	-1.7699	26.02	0.07	-0.750			
0.4713	30161.44	3.6180	3.6179	-1.7863	26.02	0.07	-0.750			
0.4767	30507.04	3.6150	3.6152	-1.8125	26.02	0.07	-0.750			
0.4821	30855.99	3.6120	3.6120	-1.8317	26.01	0.06	-0.750			
0.4876	31209.44	3.6090	3.6091	-1.8803	26.00	0.05	-0.750			
0.4932	31563.88	3.6060	3.6061	-1.9070	25.99	0.04	-0.750			
0.4990	31936.01	3.6030	3.6028	-1.9522	25.99	0.04	-0.750			
0.5049	32315.79	3.6000	3.6003	-2.0021	25.98	0.03	-0.750			
0.5111	32708.55	3.5970	3.5971	-2.0538	25.98	0.03	-0.750			
0.5173	33104.53	3.5940	3.5936	-2.0974	25.97	0.02	-0.750			
0.5236	33512.20	3.5910	3.5911	-2.1333	25.96	0.01	-0.750			
0.5302	33934.62	3.5880	3.5878	-2.1841	25.95	0.00	-0.750			
0.5367	34348.30	3.5850	3.5849	-2.2100	25.95	0.00	-0.750			
0.5434	34776.89	3.5820	3.5821	-2.2413	25.95	0.00	-0.750			
0.5503	35217.59	3.5790	3.5789	-2.2754	25.95	-0.00	-0.750			
0.5572	35658.03	3.5760	3.5759	-2.2815	25.94	-0.01	-0.750			
0.5640	36095.00	3.5730	3.5730	-2.3036	25.94	-0.01	-0.750			
0.5709	36540.25	3.5700	3.5700	-2.3342	25.94	-0.01	-0.750			
0.5780	36993.22	3.5670	3.5669	-2.3455	25.94	-0.01	-0.750			
0.5851	37444.30	3.5640	3.5639	-2.3438	25.94	-0.01	-0.750			
0.5922	37899.59	3.5610	3.5611	-2.3484	25.93	-0.02	-0.750			
0.5993	38356.43	3.5580	3.5580	-2.3435	25.93	-0.02	-0.750			
0.6063	38801.31	3.5550	3.5550	-2.3351	25.93	-0.02	-0.750			
0.6132	39245.57	3.5520	3.5520	-2.3191	25.93	-0.02	-0.750			
0.6202	39691.71	3.5490	3.5489	-2.3238	25.93	-0.02	-0.750			
0.6272	40140.29	3.5460	3.5463	-2.3246	25.93	-0.02	-0.750			
0.6342	40591.06	3.5430	3.5429	-2.2891	25.93	-0.02	-0.750			
0.6411	41032.12	3.5400	3.5400	-2.2686	25.94	-0.01	-0.750			
0.6479	41464.33	3.5370	3.5371	-2.2209	25.95	0.00	-0.750			
0.6545	41889.06	3.5340	3.5339	-2.1756	25.95	0.00	-0.750			
0.6609	42296.45	3.5310	3.5309	-2.1263	25.95	0.00	-0.750			
0.6672	42700.50	3.5280	3.5279	-2.0678	25.96	0.01	-0.750			
0.6734	43095.91	3.5250	3.5251	-2.0331	25.96	0.01	-0.750			
0.6794	43481.36	3.5220	3.5219	-1.9893	25.97	0.02	-0.750			
0.6852	43855.72	3.5190	3.5189	-1.9217	25.98	0.03	-0.750			
0.6910	44225.78	3.5160	3.5161	-1.8617	26.00	0.05	-0.750			
0.6965	44577.21	3.5130	3.5131	-1.8085	26.01	0.06	-0.750			
0.7019	44919.91	3.5100	3.5098	-1.7384	26.03	0.08	-0.750			
0.7071	45251.34	3.5070	3.5069	-1.6909	26.05	0.10	-0.750			
0.7119	45563.78	3.5040	3.5039	-1.6174	26.06	0.11	-0.750			
0.7167	45869.17	3.5010	3.5009	-1.5613	26.08	0.13	-0.750			
0.7213	46165.02	3.4980	3.4983	-1.5090	26.09	0.14	-0.750			
0.7258	46451.38	3.4950	3.4949	-1.4589	26.11	0.16	-0.750			
0.7301	46724.14	3.4920	3.4920	-1.3949	26.12	0.17	-0.750			
0.7342	46987.98	3.4890	3.4891	-1.3567	26.13	0.18	-0.750			
0.7382	47242.81	3.4860	3.4860	-1.3133	26.15	0.20	-0.750			
0.7420	47490.82	3.4830	3.4829	-1.2657	26.16	0.21	-0.750			
0.7457	47727.19	3.4800	3.4802	-1.2177	26.17	0.22	-0.750			
0.7494	47959.43	3.4770	3.4770	-1.1921	26.19	0.24	-0.750			
0.7529	48184.56	3.4740	3.4740	-1.1517	26.20	0.25	-0.750			
0.7563	48402.82	3.4710	3.4708	-1.1123	26.22	0.27	-0.750			
0.7596	48611.98	3.4680	3.4681	-1.0723	26.23	0.28	-0.750			
0.7627	48813.89	3.4650	3.4650	-1.0369	26.24	0.29	-0.750			
0.7657	49007.93	3.4620	3.4619	-1.0028	26.25	0.30	-0.750			
0.7686	49192.83	3.4590	3.4590	-0.9637	26.26	0.31	-0.750			
0.7715	49378.31	3.4560	3.4561	-0.9520	26.27	0.32	-0.750			
0.7743	49556.14	3.4530	3.4530	-0.9380	26.29	0.34	-0.750			
0.7771	49734.64	3.4500	3.4499	-0.9269	26.30	0.35	-0.750			
0.7798	49908.67	3.4470	3.4470	-0.9216	26.31	0.36	-0.750			
0.7826	50083.39	3.4440	3.4441	-0.9300	26.33	0.38	-0.750			
0.7853	50259.54	3.4410	3.4411	-0.9566	26.34	0.39	-0.750			
0.7882	50442.92	3.4380	3.4378	-0.9798	26.35	0.40	-0.750			
0.7911	50632.67	3.4350	3.4349	-1.0139	26.35	0.40	-0.750			
0.7942	50830.40	3.4320	3.4320	-1.0454	26.36	0.41	-0.750			
0.7975	51038.85	3.4290	3.4290	-1.0887	26.37	0.42	-0.750			
0.8008	51252.75	3.4260	3.4259	-1.1124	26.38	0.43	-0.750			
0.8042	51470.87	3.4230	3.4229	-1.1203	26.39	0.44	-0.750			
0.8076	51688.55	3.4200	3.4201	-1.1176	26.40	0.45	-0.750			
0.8111	51908.63	3.4170	3.4170	-1.1140	26.41	0.46	-0.750			
0.8145	52125.59	3.4140	3.4140	-1.0884	26.41	0.46	-0.750			
0.8177	52332.39	3.4110	3.4109	-1.0560	26.42	0.47	-0.750			
0.8208	52530.31	3.4080	3.4082	-1.0184	26.43	0.48	-0.750			
0.8238	52723.11	3.4050	3.4050	-0.9889	26.44	0.49	-0.750			
0.8267	52910.19	3.4020	3.4019	-0.9516	26.45	0.50	-0.750			
0.8295	53089.85	3.3990	3.3989	-0.9155	26.46	0.51	-0.750			
0.8322	53263.62	3.3960	3.3960	-0.8822	26.47	0.52	-0.750			
0.8348	53429.45	3.3930	3.3929	-0.8440	26.47	0.52	-0.750			
0.8373	53585.21	3.3900	3.3900	-0.8107	26.48	0.53	-0.750			
0.8396	53736.95	3.3870	3.3870	-0.7804	26.49	0.54	-0.750			
0.8419	53881.75	3.3840	3.3840	-0.7458	26.50	0.55	-0.750			
0.8442	54025.91	3.3810	3.3810	-0.7237	26.50	0.55	-0.750			
0.8463	54161.48	3.3780	3.3782	-0.6929	26.51	0.56	-0.750			
0.8483	54292.94	3.3750	3.3750	-0.6644	26.52	0.57	-0.750			
0.8502	54415.81	3.3720	3.3720	-0.6365	26.52	0.57	-0.750			
0.8521	54534.22	3.3690	3.3690	-0.6105	26.53	0.58	-0.750			
0.8539	54648.37	3.3660	3.3660	-0.5881	26.54	0.59	-0.750			
0.8556	54759.15	3.3630	3.3630	-0.5665	26.54	0.59	-0.750			
0.8573	54865.97	3.3600	3.3600	-0.5437	26.55	0.60	-0.750			
0.8589	54968.48	3.3570	3.3570	-0.5220	26.55	0.60	-0.750			
0.8604	55066.76	3.3540	3.3539	-0.5013	26.56	0.61	-0.750			
0.8619	55160.20	3.3510	3.3510	-0.4796	26.56	0.61	-0.750			
0.8633	55249.58	3.3480	3.3480	-0.4606	26.57	0.62	-0.750			
0.8646	55336.01	3.3450	3.3450	-0.4436	26.58	0.63	-0.750			
0.8659	55419.86	3.3420	3.3419	-0.4257	26.58	0.63	-0.750			
0.8672	55500.04	3.3390	3.3390	-0.4091	26.59	0.64	-0.750			
0.8684	55576.72	3.3360	3.3360	-0.3918	26.59	0.64	-0.750			
0.8695	55649.91	3.3330	3.3330	-0.3759	26.59	0.64	-0.750			
0.8706	55720.38	3.3300	3.3299	-0.3615	26.60	0.65	-0.750			
0.8717	55787.49	3.3270	3.3269	-0.3466	26.60	0.65	-0.750			
0.8727	55852.74	3.3240	3.3240	-0.3343	26.61	0.66	-0.750			
0.8737	55915.96	3.3210	3.3210	-0.3229	26.62	0.67	-0.750			
0.8746	55976.54	3.3180	3.3180	-0.3105	26.62	0.67	-0.750			
0.8755	56035.02	3.3150	3.3150	-0.2996	26.63	0.68	-0.750			
0.8764	56091.35	3.3120	3.3120	-0.2887	26.63	0.68	-0.750			
0.8773	56144.75	3.3090	3.3090	-0.2794	26.64	0.69	-0.750			
0.8781	56197.89	3.3060	3.3059	-0.2710	26.64	0.69	-0.750			
0.8789	56249.04	3.3030	3.3030	-0.2627	26.64	0.69	-0.750			
0.8797	56298.72	3.3000	3.3000	-0.2550	26.65	0.70	-0.750			
0.8804	56346.85	3.2970	3.2972	-0.2483	26.65	0.70	-0.750			
0.8812	56393.94	3.2940	3.2940	-0.2412	26.66	0.71	-0.750			
0.8819	56439.38	3.2910	3.2909	-0.2340	26.66	0.71	-0.750			
0.8826	56483.40	3.2880	3.2880	-0.2266	26.67	0.72	-0.750			
0.8832	56525.98	3.2850	3.2850	-0.2201	26.67	0.72	-0.750			
0.8839	56567.96	3.2820	3.2820	-0.2160	26.67	0.72	-0.750			
0.8845	56608.85	3.2790	3.2789	-0.2101	26.68	0.73	-0.750			
0.8851	56648.33	3.2760	3.2760	-0.2040	26.68	0.73	-0.750			
0.8857	56686.62	3.2730	3.2730	-0.1987	26.69	0.74	-0.750			
0.8863	56724.37	3.2700	3.2701	-0.1949	26.69	0.74	-0.750			
0.8869	56760.92	3.2670	3.2670	-0.1911	26.70	0.75	-0.750			
0.8875	56797.30	3.2640	3.2640	-0.1878	26.70	0.75	-0.750			
0.8880	56832.78	3.2610	3.2609	-0.1844	26.70	0.75	-0.750			
0.8886	56867.94	3.2580	3.2580	-0.1805	26.71	0.76	-0.750			
0.8891	56902.45	3.2550	3.2550	-0.1783	26.71	0.76	-0.750			
0.8896	56936.37	3.2520	3.2521	-0.1749	26.72	0.77	-0.750			
0.8902	56969.60	3.2490	3.2490	-0.1721	26.72	0.77	-0.750			
0.8907	57002.26	3.2460	3.2459	-0.1689	26.72	0.77	-0.750			
0.8912	57034.28	3.2430	3.2429	-0.1653	26.73	0.78	-0.750			
0.8917	57065.77	3.2400	3.2401	-0.1627	26.73	0.78	-0.750			
0.8921	57096.83	3.2370	3.2371	-0.1605	26.73	0.78	-0.750			
0.8926	57127.36	3.2340	3.2339	-0.1588	26.74	0.79	-0.750			
0.8931	57157.40	3.2310	3.2310	-0.1557	26.74	0.79	-0.750			
0.8935	57187.12	3.2280	3.2279	-0.1539	26.74	0.79	-0.750			
0.8940	57216.44	3.2250	3.2250	-0.1519	26.75	0.80	-0.750			
0.8945	57245.44	3.2220	3.2220	-0.1506	26.75	0.80	-0.750			
0.8949	57274.45	3.2190	3.2190	-0.1489	26.75	0.80	-0.750			
0.8954	57302.82	3.2160	3.2159	-0.1467	26.76	0.81	-0.750			
0.8958	57330.72	3.2130	3.2130	-0.1444	26.76	0.81	-0.750			
0.8962	57358.23	3.2100	3.2101	-0.1419	26.76	0.81	-0.750			
0.8966	57385.13	3.2070	3.2071	-0.1403	26.77	0.82	-0.750			
0.8971	57411.99	3.2040	3.2039	-0.1386	26.77	0.82	-0.750			
0.8975	57438.24	3.2010	3.2010	-0.1368	26.78	0.83	-0.750			
0.8979	57464.08	3.1980	3.1980	-0.1352	26.78	0.83	-0.750			
0.8983	57490.04	3.1950	3.1950	-0.1344	26.79	0.84	-0.750			
0.8987	57515.74	3.1920	3.1920	-0.1333	26.79	0.84	-0.750			
0.8991	57541.19	3.1890	3.1890	-0.1324	26.80	0.85	-0.750			
0.8995	57566.71	3.1860	3.1860	-0.1313	26.80	0.85	-0.750			
0.8999	57591.74	3.1830	3.1830	-0.1296	26.80	0.85	-0.750			
0.9003	57616.51	3.1800	3.1800	-0.1283	26.81	0.86	-0.750			
0.9006	57641.12	3.1770	3.1771	-0.1273	26.81	0.86	-0.750			
0.9010	57665.38	3.1740	3.1739	-0.1258	26.82	0.87	-0.750			
0.9014	57689.27	3.1710	3.1710	-0.1247	26.82	0.87	-0.750			
0.9018	57713.18	3.1680	3.1681	-0.1236	26.83	0.88	-0.750			
0.9021	57736.69	3.1650	3.1650	-0.1224	26.83	0.88	-0.750			
0.9025	57760.17	3.1620	3.1620	-0.1217	26.83	0.88	-0.750			
0.9029	57783.43	3.1590	3.1590	-0.1207	26.84	0.89	-0.750			
0.9032	57806.48	3.1560	3.1560	-0.1198	26.84	0.89	-0.750			
0.9036	57829.33	3.1530	3.1530	-0.1187	26.85	0.90	-0.750			
0.9039	57852.10	3.1500	3.1500	-0.1177	26.85	0.90	-0.750			
0.9043	57874.55	3.1470	3.1470	-0.1166	26.85	0.90	-0.750			
0.9046	57896.76	3.1440	3.1440	-0.1160	26.86	0.91	-0.750			
0.9050	57919.00	3.1410	3.1409	-0.1153	26.86	0.91	-0.750			
0.9053	57941.13	3.1380	3.1381	-0.1143	26.87	0.92	-0.750			
0.9057	57962.96	3.1350	3.1350	-0.1134	26.87	0.92	-0.750			
0.9060	57984.58	3.1320	3.1320	-0.1127	26.87	0.92	-0.750			
0.9063	58006.11	3.1290	3.1291	-0.1119	26.88	0.93	-0.750			
0.9067	58027.62	3.1260	3.1260	-0.1111	26.88	0.93	-0.750			
0.9070	58048.98	3.1230	3.1230	-0.1104	26.88	0.93	-0.750			
0.9073	58070.06	3.1200	3.1198	-0.1095	26.89	0.94	-0.750			
0.9077	58090.89	3.1170	3.1170	-0.1084	26.89	0.94	-0.750			
0.9080	58111.55	3.1140	3.1141	-0.1078	26.90	0.95	-0.750			
0.9083	58132.24	3.1110	3.1109	-0.1072	26.90	0.95	-0.750			
0.9086	58152.80	3.1080	3.1080	-0.1063	26.90	0.95	-0.750			
0.9090	58173.03	3.1050	3.1050	-0.1053	26.91	0.96	-0.750			
0.9093	58193.15	3.1020	3.1019	-0.1047	26.91	0.96	-0.750			
0.9096	58213.26	3.0990	3.0990	-0.1042	26.92	0.97	-0.750			
0.9099	58233.11	3.0960	3.0961	-0.1038	26.92	0.97	-0.750			
0.9102	58252.92	3.0930	3.0929	-0.1032	26.93	0.98	-0.750			
0.9105	58272.74	3.0900	3.0900	-0.1026	26.93	0.98	-0.750			
0.9108	58292.28	3.0870	3.0870	-0.1019	26.93	0.98	-0.750			
0.9111	58311.88	3.0840	3.0839	-0.1015	26.94	0.99	-0.750			
0.9114	58331.47	3.0810	3.0810	-0.1012	26.94	0.99	-0.750			
0.9117	58350.85	3.0780	3.0781	-0.1005	26.95	1.00	-0.750			
0.9120	58370.10	3.0750	3.0750	-0.0998	26.95	1.00	-0.750			
0.9123	58389.19	3.0720	3.0720	-0.0990	26.96	1.01	-0.750			
0.9126	58408.10	3.0690	3.0690	-0.0982	26.96	1.01	-0.750			
0.9129	58426.83	3.0660	3.0661	-0.0977	26.96	1.01	-0.750			
0.9132	58445.54	3.0630	3.0630	-0.0971	26.97	1.02	-0.750			
0.9135	58464.11	3.0600	3.0600	-0.0966	26.97	1.02	-0.750			
0.9138	58482.53	3.0570	3.0570	-0.0959	26.98	1.03	-0.750			
0.9141	58500.91	3.0540	3.0541	-0.0956	26.98	1.03	-0.750			
0.9144	58519.20	3.0510	3.0510	-0.0951	26.98	1.03	-0.750			
0.9146	58537.43	3.0480	3.0480	-0.0948	26.99	1.04	-0.750			
0.9149	58555.62	3.0450	3.0450	-0.0945	26.99	1.04	-0.750			
0.9152	58573.71	3.0420	3.0420	-0.0940	27.00	1.05	-0.750			
0.9155	58591.71	3.0390	3.0391	-0.0935	27.00	1.05	-0.750			
0.9158	58609.62	3.0360	3.0359	-0.0931	27.00	1.05	-0.750			
0.9161	58627.52	3.0330	3.0330	-0.0927	27.01	1.06	-0.750			
0.9163	58645.27	3.0300	3.0301	-0.0922	27.01	1.06	-0.750			
0.9166	58662.98	3.0270	3.0270	-0.0915	27.02	1.07	-0.750			
0.9169	58680.49	3.0240	3.0240	-0.0908	27.02	1.07	-0.750			
0.9172	58697.72	3.0210	3.0210	-0.0906	27.02	1.07	-0.750			
0.9174	58715.10	3.0180	3.0181	-0.0904	27.03	1.08	-0.750			
0.9177	58732.39	3.0150	3.0149	-0.0900	27.03	1.08	-0.750			
0.9180	58749.65	3.0120	3.0120	-0.0898	27.04	1.09	-0.750			
0.9182	58766.81	3.0090	3.0091	-0.0897	27.04	1.09	-0.750			
0.9185	58784.02	3.0060	3.0061	-0.0897	27.04	1.09	-0.750			
0.9188	58801.22	3.0030	3.0030	-0.0872	27.05	1.10	-0.751			
