Ah_balance (normalized)	Ah_balance (mAh)	Voltage - fit (V)	Voltage -  interpolate (V)	dQ/dV (1/V)	Temperature (°C)	Temperature - diff (°C)	Current (C)	R_DC 0ms (mOhm)	R_DC 50ms (mOhm)	R_DC 50 ms PEC (mOhm)
0.0003	18.44	4.1620	4.1621	-0.1336	25.72	0.02	-0.750			
0.0008	48.51	4.1590	4.1591	-0.1760	25.72	0.02	-0.750			
0.0014	86.77	4.1560	4.1558	-0.2146	25.72	0.02	-0.750			
0.0021	131.36	4.1530	4.1531	-0.2511	25.71	0.01	-0.750			
0.0029	183.48	4.1500	4.1501	-0.2861	25.71	0.01	-0.750			
0.0038	242.07	4.1470	4.1470	-0.3234	25.71	0.01	-0.750			
0.0048	308.48	4.1440	4.1439	-0.3569	25.71	0.01	-0.750			
0.0059	379.29	4.1410	4.1411	-0.3921	25.71	0.01	-0.750			
0.0072	458.24	4.1380	4.1381	-0.4255	25.71	0.01	-0.750			
0.0085	544.78	4.1350	4.1349	-0.4563	25.70	0.00	-0.750			
0.0099	635.93	4.1320	4.1320	-0.4815	25.70	0.00	-0.750			
0.0114	731.75	4.1290	4.1291	-0.5075	25.70	-0.00	-0.750			
0.0130	830.92	4.1260	4.1261	-0.5295	25.70	-0.00	-0.750			
0.0146	936.92	4.1230	4.1229	-0.5489	25.69	-0.01	-0.750			
0.0163	1043.08	4.1200	4.1200	-0.5636	25.69	-0.01	-0.750			
0.0180	1153.59	4.1170	4.1170	-0.5830	25.69	-0.01	-0.750			
0.0198	1267.59	4.1140	4.1141	-0.5967	25.69	-0.01	-0.750			
0.0216	1384.73	4.1110	4.1109	-0.6069	25.68	-0.02	-0.750			
0.0235	1501.75	4.1080	4.1081	-0.6145	25.68	-0.02	-0.750			
0.0253	1620.11	4.1050	4.1051	-0.6265	25.68	-0.02	-0.750			
0.0272	1742.27	4.1020	4.1019	-0.6353	25.67	-0.03	-0.750			
0.0291	1863.52	4.0990	4.0990	-0.6470	25.67	-0.03	-0.750			
0.0311	1990.57	4.0960	4.0960	-0.6475	25.67	-0.03	-0.750			
0.0331	2117.61	4.0930	4.0930	-0.6538	25.66	-0.04	-0.750			
0.0350	2243.01	4.0900	4.0900	-0.6595	25.66	-0.04	-0.750			
0.0370	2369.71	4.0870	4.0868	-0.6602	25.66	-0.04	-0.750			
0.0390	2495.34	4.0840	4.0839	-0.6671	25.66	-0.04	-0.750			
0.0410	2623.51	4.0810	4.0810	-0.6734	25.66	-0.04	-0.750			
0.0430	2753.80	4.0780	4.0780	-0.6819	25.66	-0.04	-0.750			
0.0451	2889.55	4.0750	4.0750	-0.6922	25.66	-0.04	-0.750			
0.0472	3022.85	4.0720	4.0719	-0.6939	25.66	-0.04	-0.750			
0.0493	3156.08	4.0690	4.0692	-0.6950	25.66	-0.04	-0.750			
0.0514	3290.01	4.0660	4.0659	-0.6966	25.66	-0.04	-0.750			
0.0535	3421.59	4.0630	4.0629	-0.6981	25.66	-0.04	-0.750			
0.0555	3554.09	4.0600	4.0601	-0.6969	25.66	-0.04	-0.750			
0.0577	3691.09	4.0570	4.0570	-0.7066	25.66	-0.04	-0.750			
0.0598	3828.10	4.0540	4.0539	-0.7111	25.66	-0.04	-0.750			
0.0620	3965.25	4.0510	4.0511	-0.7104	25.66	-0.04	-0.750			
0.0641	4101.28	4.0480	4.0480	-0.7124	25.66	-0.04	-0.750			
0.0662	4237.85	4.0450	4.0450	-0.7178	25.66	-0.04	-0.750			
0.0684	4374.71	4.0420	4.0421	-0.7180	25.66	-0.04	-0.750			
0.0705	4513.95	4.0390	4.0389	-0.7226	25.66	-0.04	-0.750			
0.0727	4654.28	4.0360	4.0360	-0.7214	25.66	-0.04	-0.750			
0.0749	4792.36	4.0330	4.0330	-0.7224	25.66	-0.04	-0.750			
0.0771	4931.51	4.0300	4.0300	-0.7250	25.66	-0.04	-0.750			
0.0792	5069.58	4.0270	4.0268	-0.7250	25.66	-0.04	-0.750			
0.0814	5207.04	4.0240	4.0240	-0.7257	25.66	-0.04	-0.750			
0.0836	5348.51	4.0210	4.0211	-0.7316	25.66	-0.04	-0.750			
0.0858	5490.02	4.0180	4.0180	-0.7347	25.66	-0.04	-0.750			
0.0880	5631.92	4.0150	4.0149	-0.7393	25.66	-0.04	-0.750			
0.0902	5773.29	4.0120	4.0120	-0.7353	25.66	-0.04	-0.750			
0.0924	5914.43	4.0090	4.0090	-0.7426	25.67	-0.03	-0.750			
0.0947	6058.23	4.0060	4.0061	-0.7409	25.67	-0.03	-0.750			
0.0969	6200.71	4.0030	4.0029	-0.7443	25.67	-0.03	-0.750			
0.0991	6343.70	4.0000	4.0002	-0.7459	25.67	-0.03	-0.750			
0.1014	6487.36	3.9970	3.9969	-0.7432	25.67	-0.03	-0.750			
0.1036	6628.49	3.9940	3.9940	-0.7475	25.67	-0.03	-0.750			
0.1058	6772.90	3.9910	3.9910	-0.7516	25.68	-0.02	-0.750			
0.1081	6917.53	3.9880	3.9880	-0.7526	25.68	-0.02	-0.750			
0.1104	7063.11	3.9850	3.9849	-0.7555	25.68	-0.02	-0.750			
0.1126	7208.06	3.9820	3.9820	-0.7556	25.68	-0.02	-0.750			
0.1149	7353.57	3.9790	3.9789	-0.7608	25.68	-0.02	-0.750			
0.1172	7500.60	3.9760	3.9760	-0.7620	25.68	-0.02	-0.750			
0.1194	7644.64	3.9730	3.9731	-0.7603	25.69	-0.01	-0.750			
0.1217	7791.87	3.9700	3.9699	-0.7687	25.69	-0.01	-0.750			
0.1241	7940.39	3.9670	3.9672	-0.7715	25.69	-0.01	-0.750			
0.1264	8088.18	3.9640	3.9639	-0.7736	25.69	-0.01	-0.750			
0.1287	8237.32	3.9610	3.9610	-0.7736	25.70	-0.00	-0.750			
0.1310	8387.02	3.9580	3.9579	-0.7758	25.70	0.00	-0.750			
0.1334	8536.09	3.9550	3.9550	-0.7781	25.71	0.01	-0.750			
0.1357	8685.28	3.9520	3.9519	-0.7764	25.71	0.01	-0.750			
0.1380	8833.78	3.9490	3.9490	-0.7744	25.71	0.01	-0.750			
0.1403	8981.75	3.9460	3.9461	-0.7830	25.71	0.01	-0.750			
0.1427	9131.08	3.9430	3.9430	-0.7888	25.72	0.02	-0.750			
0.1451	9285.01	3.9400	3.9399	-0.7881	25.72	0.02	-0.750			
0.1475	9437.42	3.9370	3.9369	-0.7910	25.72	0.02	-0.750			
0.1498	9589.91	3.9340	3.9341	-0.7900	25.72	0.02	-0.750			
0.1522	9742.90	3.9310	3.9310	-0.7934	25.72	0.02	-0.750			
0.1546	9894.97	3.9280	3.9280	-0.7886	25.72	0.02	-0.750			
0.1569	10043.13	3.9250	3.9250	-0.7843	25.73	0.03	-0.750			
0.1593	10194.13	3.9220	3.9221	-0.7931	25.73	0.03	-0.750			
0.1617	10348.65	3.9190	3.9190	-0.7990	25.73	0.03	-0.750			
0.1641	10500.05	3.9160	3.9161	-0.8002	25.73	0.03	-0.750			
0.1665	10654.96	3.9130	3.9130	-0.8099	25.74	0.04	-0.750			
0.1689	10812.47	3.9100	3.9099	-0.8075	25.74	0.04	-0.750			
0.1714	10969.19	3.9070	3.9069	-0.8123	25.75	0.05	-0.750			
0.1738	11125.11	3.9040	3.9042	-0.8071	25.75	0.05	-0.750			
0.1762	11279.09	3.9010	3.9009	-0.8076	25.75	0.05	-0.750			
0.1787	11434.81	3.8980	3.8979	-0.8153	25.75	0.05	-0.750			
0.1811	11590.63	3.8950	3.8949	-0.8107	25.76	0.06	-0.750			
0.1836	11748.12	3.8920	3.8918	-0.8156	25.76	0.06	-0.750			
0.1860	11904.78	3.8890	3.8894	-0.8177	25.76	0.06	-0.750			
0.1884	12060.61	3.8860	3.8859	-0.8172	25.76	0.06	-0.750			
0.1909	12218.89	3.8830	3.8829	-0.8204	25.76	0.06	-0.750			
0.1933	12374.20	3.8800	3.8799	-0.8138	25.77	0.07	-0.750			
0.1958	12531.45	3.8770	3.8771	-0.8265	25.77	0.07	-0.750			
0.1983	12689.60	3.8740	3.8742	-0.8347	25.77	0.07	-0.750			
0.2008	12850.20	3.8710	3.8708	-0.8399	25.77	0.07	-0.750			
0.2033	13012.25	3.8680	3.8678	-0.8460	25.77	0.07	-0.750			
0.2059	13176.05	3.8650	3.8651	-0.8461	25.78	0.08	-0.750			
0.2084	13339.98	3.8620	3.8620	-0.8451	25.78	0.08	-0.750			
0.2110	13505.46	3.8590	3.8590	-0.8452	25.78	0.08	-0.750			
0.2135	13665.69	3.8560	3.8559	-0.8382	25.78	0.08	-0.750			
0.2160	13823.59	3.8530	3.8530	-0.8366	25.78	0.08	-0.750			
0.2185	13986.43	3.8500	3.8500	-0.8314	25.79	0.09	-0.750			
0.2210	14145.89	3.8470	3.8470	-0.8268	25.79	0.09	-0.750			
0.2235	14305.59	3.8440	3.8443	-0.8288	25.79	0.09	-0.750			
0.2260	14463.25	3.8410	3.8410	-0.8223	25.79	0.09	-0.750			
0.2284	14618.81	3.8380	3.8379	-0.8253	25.79	0.09	-0.750			
0.2309	14776.74	3.8350	3.8350	-0.8279	25.80	0.10	-0.750			
0.2334	14938.03	3.8320	3.8319	-0.8262	25.80	0.10	-0.750			
0.2359	15096.79	3.8290	3.8292	-0.8280	25.80	0.10	-0.750			
0.2384	15255.08	3.8260	3.8261	-0.8267	25.80	0.10	-0.750			
0.2408	15413.65	3.8230	3.8229	-0.8244	25.80	0.10	-0.750			
0.2433	15570.93	3.8200	3.8200	-0.8239	25.81	0.11	-0.750			
0.2458	15729.05	3.8170	3.8170	-0.8186	25.81	0.11	-0.750			
0.2483	15888.45	3.8140	3.8141	-0.8210	25.81	0.11	-0.750			
0.2507	16046.68	3.8110	3.8109	-0.8195	25.81	0.11	-0.750			
0.2531	16201.22	3.8080	3.8080	-0.8195	25.81	0.11	-0.750			
0.2556	16359.74	3.8050	3.8049	-0.8193	25.82	0.12	-0.750			
0.2581	16518.00	3.8020	3.8020	-0.8130	25.82	0.12	-0.750			
0.2606	16675.58	3.7990	3.7991	-0.8083	25.82	0.12	-0.750			
0.2630	16830.82	3.7960	3.7960	-0.8041	25.82	0.12	-0.750			
0.2653	16982.36	3.7930	3.7931	-0.8028	25.83	0.13	-0.750			
0.2677	17135.92	3.7900	3.7898	-0.7964	25.84	0.14	-0.750			
0.2701	17286.41	3.7870	3.7869	-0.7901	25.84	0.14	-0.750			
0.2725	17440.80	3.7840	3.7841	-0.7930	25.85	0.15	-0.750			
0.2749	17592.75	3.7810	3.7810	-0.7915	25.85	0.15	-0.750			
0.2773	17744.76	3.7780	3.7779	-0.7922	25.85	0.15	-0.750			
0.2796	17896.04	3.7750	3.7750	-0.7902	25.85	0.15	-0.750			
0.2820	18044.92	3.7720	3.7720	-0.7895	25.85	0.15	-0.750			
0.2844	18199.92	3.7690	3.7689	-0.7938	25.85	0.15	-0.750			
0.2868	18353.49	3.7660	3.7660	-0.7904	25.85	0.15	-0.750			
0.2891	18505.30	3.7630	3.7630	-0.7833	25.85	0.15	-0.750			
0.2915	18654.95	3.7600	3.7601	-0.7883	25.86	0.16	-0.750			
0.2938	18806.26	3.7570	3.7570	-0.7846	25.86	0.16	-0.750			
0.2962	18956.21	3.7540	3.7539	-0.7827	25.87	0.17	-0.750			
0.2985	19105.89	3.7510	3.7513	-0.7813	25.87	0.17	-0.750			
0.3009	19256.26	3.7480	3.7479	-0.7855	25.87	0.17	-0.750			
0.3032	19405.90	3.7450	3.7451	-0.7955	25.87	0.17	-0.750			
0.3056	19558.47	3.7420	3.7419	-0.7997	25.87	0.17	-0.750			
0.3080	19713.11	3.7390	3.7389	-0.8080	25.87	0.17	-0.750			
0.3105	19870.57	3.7360	3.7361	-0.8144	25.87	0.17	-0.750			
0.3129	20026.89	3.7330	3.7330	-0.8213	25.87	0.17	-0.750			
0.3154	20184.99	3.7300	3.7300	-0.8300	25.88	0.18	-0.750			
0.3179	20343.80	3.7270	3.7270	-0.8371	25.88	0.18	-0.750			
0.3204	20503.13	3.7240	3.7239	-0.8420	25.88	0.18	-0.750			
0.3229	20667.81	3.7210	3.7211	-0.8576	25.89	0.19	-0.750			
0.3255	20830.32	3.7180	3.7180	-0.8839	25.89	0.19	-0.750			
0.3282	21002.38	3.7150	3.7150	-0.9022	25.89	0.19	-0.750			
0.3309	21178.15	3.7120	3.7119	-0.9127	25.89	0.19	-0.750			
0.3337	21355.33	3.7090	3.7090	-0.9203	25.89	0.19	-0.750			
0.3365	21535.37	3.7060	3.7063	-0.9397	25.89	0.19	-0.750			
0.3393	21717.91	3.7030	3.7028	-0.9532	25.89	0.19	-0.750			
0.3422	21900.49	3.7000	3.6999	-0.9594	25.89	0.19	-0.750			
0.3450	22082.09	3.6970	3.6970	-0.9716	25.89	0.19	-0.750			
0.3480	22271.60	3.6940	3.6942	-0.9974	25.89	0.19	-0.750			
0.3510	22465.26	3.6910	3.6909	-1.0213	25.89	0.19	-0.750			
0.3541	22663.08	3.6880	3.6878	-1.0435	25.88	0.18	-0.750			
0.3572	22863.56	3.6850	3.6851	-1.0626	25.88	0.18	-0.750			
0.3605	23069.44	3.6820	3.6820	-1.0868	25.87	0.17	-0.750			
0.3638	23284.93	3.6790	3.6789	-1.1110	25.87	0.17	-0.750			
0.3672	23498.56	3.6760	3.6760	-1.1325	25.86	0.16	-0.750			
0.3706	23715.35	3.6730	3.6730	-1.1535	25.85	0.15	-0.750			
0.3741	23940.12	3.6700	3.6700	-1.1744	25.85	0.15	-0.750			
0.3776	24168.73	3.6670	3.6669	-1.2004	25.84	0.14	-0.750			
0.3813	24400.86	3.6640	3.6641	-1.2236	25.83	0.13	-0.750			
0.3849	24635.49	3.6610	3.6610	-1.2568	25.82	0.12	-0.750			
0.3888	24881.03	3.6580	3.6579	-1.2898	25.82	0.12	-0.750			
0.3927	25130.98	3.6550	3.6549	-1.3134	25.81	0.11	-0.750			
0.3966	25384.00	3.6520	3.6520	-1.3544	25.81	0.11	-0.750			
0.4008	25649.73	3.6490	3.6491	-1.3912	25.81	0.11	-0.750			
0.4051	25926.85	3.6460	3.6458	-1.4090	25.80	0.10	-0.750			
0.4093	26198.24	3.6430	3.6429	-1.4374	25.79	0.09	-0.750			
0.4136	26472.75	3.6400	3.6401	-1.4541	25.79	0.09	-0.750			
0.4180	26753.16	3.6370	3.6369	-1.4914	25.78	0.08	-0.750			
0.4225	27041.14	3.6340	3.6339	-1.5295	25.77	0.07	-0.750			
0.4271	27335.10	3.6310	3.6310	-1.5633	25.76	0.06	-0.750			
0.4321	27651.70	3.6280	3.6275	-1.6091	25.76	0.06	-0.750			
0.4369	27964.54	3.6250	3.6251	-1.6446	25.75	0.05	-0.750			
0.4419	28280.38	3.6220	3.6223	-1.6575	25.74	0.04	-0.750			
0.4470	28607.37	3.6190	3.6190	-1.6819	25.72	0.02	-0.750	0.392	0.511	
0.4520	28925.69	3.6160	3.6158	-1.6887	25.72	0.02	-0.750			
0.4571	29256.97	3.6130	3.6129	-1.7385	25.71	0.01	-0.750			
0.4624	29595.00	3.6100	3.6099	-1.7699	25.71	0.01	-0.750			
0.4677	29935.61	3.6070	3.6070	-1.8081	25.70	0.00	-0.750			
0.4731	30281.14	3.6040	3.6042	-1.8474	25.70	0.00	-0.750			
0.4788	30642.97	3.6010	3.6011	-1.8845	25.70	0.00	-0.750			
0.4846	31012.98	3.5980	3.5980	-1.9214	25.70	0.00	-0.750			
0.4904	31383.24	3.5950	3.5950	-1.9452	25.69	-0.01	-0.750			
0.4962	31756.49	3.5920	3.5921	-2.0003	25.68	-0.02	-0.750			
0.5023	32144.17	3.5890	3.5887	-2.0562	25.68	-0.02	-0.750			
0.5085	32545.30	3.5860	3.5857	-2.0977	25.68	-0.02	-0.750			
0.5150	32957.88	3.5830	3.5833	-2.1363	25.68	-0.02	-0.750			
0.5216	33382.32	3.5800	3.5801	-2.1821	25.68	-0.02	-0.750			
0.5281	33800.82	3.5770	3.5771	-2.1858	25.68	-0.02	-0.750			
0.5347	34220.26	3.5740	3.5740	-2.1875	25.67	-0.03	-0.750			
0.5413	34643.66	3.5710	3.5709	-2.2175	25.67	-0.03	-0.750			
0.5480	35069.59	3.5680	3.5680	-2.2316	25.66	-0.04	-0.750			
0.5547	35497.70	3.5650	3.5650	-2.2499	25.66	-0.04	-0.750			
0.5615	35935.17	3.5620	3.5621	-2.2585	25.66	-0.04	-0.750			
0.5683	36371.38	3.5590	3.5589	-2.2721	25.66	-0.04	-0.750			
0.5752	36809.98	3.5560	3.5560	-2.2756	25.66	-0.04	-0.750			
0.5820	37248.41	3.5530	3.5529	-2.2683	25.66	-0.04	-0.750			
0.5888	37685.63	3.5500	3.5501	-2.2522	25.66	-0.04	-0.750			
0.5956	38115.50	3.5470	3.5469	-2.2373	25.67	-0.03	-0.750			
0.6022	38543.79	3.5440	3.5440	-2.2247	25.67	-0.03	-0.750			
0.6090	38973.51	3.5410	3.5409	-2.2011	25.68	-0.02	-0.750			
0.6155	39395.00	3.5380	3.5380	-2.1773	25.69	-0.01	-0.750			
0.6220	39807.30	3.5350	3.5350	-2.1565	25.70	-0.00	-0.750			
0.6285	40224.56	3.5320	3.5320	-2.1205	25.70	0.00	-0.750			
0.6348	40629.78	3.5290	3.5290	-2.0739	25.71	0.01	-0.750			
0.6409	41020.77	3.5260	3.5260	-2.0243	25.72	0.02	-0.750			
0.6470	41409.37	3.5230	3.5229	-1.9807	25.73	0.03	-0.750			
0.6530	41791.28	3.5200	3.5199	-1.9255	25.74	0.04	-0.750			
0.6586	42152.70	3.5170	3.5169	-1.8686	25.75	0.05	-0.750			
0.6642	42506.38	3.5140	3.5143	-1.8065	25.76	0.06	-0.750			
0.6695	42850.10	3.5110	3.5111	-1.7670	25.77	0.07	-0.750			
0.6747	43182.25	3.5080	3.5080	-1.7068	25.78	0.08	-0.750			
0.6797	43498.47	3.5050	3.5050	-1.6532	25.79	0.09	-0.750			
0.6847	43819.34	3.5020	3.5020	-1.6208	25.81	0.11	-0.750			
0.6895	44126.11	3.4990	3.4989	-1.5575	25.82	0.12	-0.750			
0.6941	44420.93	3.4960	3.4962	-1.4992	25.84	0.14	-0.750			
0.6985	44706.95	3.4930	3.4931	-1.4619	25.86	0.16	-0.750			
0.7028	44979.28	3.4900	3.4898	-1.4005	25.88	0.18	-0.750			
0.7069	45241.90	3.4870	3.4869	-1.3487	25.89	0.19	-0.750			
0.7108	45492.82	3.4840	3.4844	-1.3035	25.91	0.21	-0.750			
0.7147	45743.54	3.4810	3.4809	-1.2755	25.92	0.22	-0.750			
0.7185	45984.41	3.4780	3.4779	-1.2300	25.93	0.23	-0.750			
0.7221	46213.47	3.4750	3.4750	-1.1909	25.95	0.25	-0.750			
0.7256	46438.62	3.4720	3.4720	-1.1631	25.96	0.26	-0.750			
0.7291	46659.65	3.4690	3.4690	-1.1255	25.98	0.28	-0.750			
0.7324	46871.90	3.4660	3.4660	-1.0892	25.99	0.29	-0.750			
0.7356	47077.04	3.4630	3.4631	-1.0513	26.01	0.31	-0.750			
0.7387	47274.89	3.4600	3.4599	-1.0194	26.02	0.32	-0.750			
0.7417	47468.62	3.4570	3.4569	-0.9822	26.03	0.33	-0.750			
0.7445	47650.84	3.4540	3.4540	-0.9502	26.04	0.34	-0.750			
0.7473	47829.31	3.4510	3.4509	-0.9207	26.05	0.35	-0.750			
0.7501	48004.40	3.4480	3.4480	-0.9027	26.06	0.36	-0.750			
0.7527	48173.02	3.4450	3.4449	-0.8934	26.07	0.37	-0.750			
0.7553	48339.63	3.4420	3.4420	-0.8861	26.08	0.38	-0.750			
0.7579	48507.09	3.4390	3.4390	-0.8828	26.09	0.39	-0.750			
0.7606	48679.06	3.4360	3.4360	-0.8967	26.11	0.41	-0.750			
0.7633	48848.61	3.4330	3.4331	-0.9129	26.11	0.41	-0.750			
0.7660	49026.63	3.4300	3.4299	-0.9330	26.12	0.42	-0.750			
0.7688	49205.78	3.4270	3.4269	-0.9507	26.12	0.42	-0.750			
0.7717	49391.21	3.4240	3.4240	-0.9708	26.13	0.43	-0.750			
0.7747	49581.22	3.4210	3.4210	-0.9958	26.13	0.43	-0.750			
0.7778	49777.19	3.4180	3.4179	-1.0042	26.15	0.45	-0.750			
0.7808	49972.36	3.4150	3.4150	-1.0079	26.16	0.46	-0.750			
0.7839	50170.45	3.4120	3.4119	-0.9960	26.17	0.47	-0.750			
0.7869	50363.32	3.4090	3.4091	-0.9776	26.18	0.48	-0.750			
0.7898	50549.02	3.4060	3.4061	-0.9552	26.19	0.49	-0.750			
0.7926	50729.33	3.4030	3.4031	-0.9278	26.20	0.50	-0.750			
0.7954	50903.13	3.4000	3.3998	-0.8991	26.20	0.50	-0.750			
0.7980	51074.84	3.3970	3.3970	-0.8755	26.21	0.51	-0.750			
0.8006	51239.42	3.3940	3.3940	-0.8483	26.22	0.52	-0.750			
0.8031	51401.14	3.3910	3.3910	-0.8267	26.22	0.52	-0.750			
0.8056	51558.57	3.3880	3.3880	-0.7975	26.23	0.53	-0.750			
0.8079	51707.86	3.3850	3.3850	-0.7672	26.24	0.54	-0.750			
0.8102	51852.30	3.3820	3.3820	-0.7396	26.25	0.55	-0.750			
0.8124	51991.52	3.3790	3.3789	-0.7120	26.25	0.55	-0.750			
0.8145	52125.72	3.3760	3.3760	-0.6875	26.26	0.56	-0.750			
0.8165	52254.26	3.3730	3.3730	-0.6617	26.27	0.57	-0.750			
0.8184	52379.11	3.3700	3.3700	-0.6392	26.27	0.57	-0.750			
0.8203	52500.88	3.3670	3.3670	-0.6143	26.28	0.58	-0.750			
0.8221	52616.32	3.3640	3.3640	-0.5884	26.29	0.59	-0.750			
0.8239	52726.70	3.3610	3.3611	-0.5635	26.29	0.59	-0.750			
0.8255	52832.05	3.3580	3.3579	-0.5392	26.30	0.60	-0.750			
0.8271	52932.00	3.3550	3.3550	-0.5181	26.30	0.60	-0.750			
0.8286	53027.54	3.3520	3.3519	-0.4996	26.31	0.61	-0.750			
0.8300	53122.12	3.3490	3.3490	-0.4864	26.32	0.62	-0.750			
0.8315	53213.88	3.3460	3.3460	-0.4733	26.32	0.62	-0.750			
0.8329	53304.05	3.3430	3.3430	-0.4564	26.33	0.63	-0.750			
0.8342	53390.99	3.3400	3.3400	-0.4389	26.33	0.63	-0.750			
0.8355	53473.33	3.3370	3.3371	-0.4236	26.34	0.64	-0.750			
0.8368	53552.82	3.3340	3.3338	-0.4071	26.34	0.64	-0.750			
0.8379	53628.20	3.3310	3.3310	-0.3899	26.35	0.65	-0.750			
0.8391	53701.30	3.3280	3.3281	-0.3774	26.35	0.65	-0.750			
0.8402	53772.23	3.3250	3.3250	-0.3655	26.36	0.66	-0.750			
0.8413	53842.24	3.3220	3.3218	-0.3544	26.37	0.67	-0.750			
0.8423	53908.62	3.3190	3.3190	-0.3444	26.37	0.67	-0.750			
0.8433	53973.39	3.3160	3.3161	-0.3318	26.37	0.67	-0.750			
0.8443	54036.19	3.3130	3.3129	-0.3225	26.38	0.68	-0.750			
0.8453	54096.99	3.3100	3.3101	-0.3140	26.38	0.68	-0.750			
0.8462	54155.46	3.3070	3.3070	-0.3036	26.39	0.69	-0.750			
0.8471	54213.13	3.3040	3.3039	-0.2953	26.39	0.69	-0.750			
0.8480	54269.19	3.3010	3.3010	-0.2879	26.40	0.70	-0.750			
0.8488	54323.04	3.2980	3.2981	-0.2800	26.40	0.70	-0.750			
0.8496	54376.94	3.2950	3.2950	-0.2739	26.41	0.71	-0.750			
0.8504	54428.37	3.2920	3.2919	-0.2662	26.41	0.71	-0.750			
0.8512	54477.86	3.2890	3.2891	-0.2597	26.41	0.71	-0.750			
0.8520	54527.80	3.2860	3.2861	-0.2547	26.42	0.72	-0.750			
0.8528	54576.33	3.2830	3.2829	-0.2495	26.42	0.72	-0.750			
0.8535	54623.53	3.2800	3.2800	-0.2431	26.43	0.73	-0.750			
0.8542	54669.52	3.2770	3.2771	-0.2370	26.43	0.73	-0.750			
0.8549	54714.30	3.2740	3.2740	-0.2322	26.44	0.74	-0.750			
0.8556	54758.40	3.2710	3.2709	-0.2284	26.44	0.74	-0.750			
0.8563	54801.34	3.2680	3.2680	-0.2235	26.44	0.74	-0.750			
0.8569	54843.57	3.2650	3.2649	-0.2189	26.45	0.75	-0.750			
0.8576	54885.37	3.2620	3.2620	-0.2164	26.45	0.75	-0.750			
0.8582	54926.47	3.2590	3.2591	-0.2129	26.45	0.75	-0.750			
0.8589	54967.07	3.2560	3.2560	-0.2100	26.46	0.76	-0.750			
0.8595	55007.49	3.2530	3.2529	-0.2050	26.46	0.76	-0.750			
0.8601	55046.38	3.2500	3.2501	-0.2010	26.46	0.76	-0.750			
0.8607	55084.16	3.2470	3.2471	-0.1978	26.47	0.77	-0.750			
0.8613	55121.84	3.2440	3.2440	-0.1947	26.47	0.77	-0.750			
0.8619	55158.96	3.2410	3.2409	-0.1916	26.48	0.78	-0.750			
0.8624	55194.95	3.2380	3.2379	-0.1881	26.48	0.78	-0.750			
0.8630	55230.82	3.2350	3.2352	-0.1859	26.49	0.79	-0.750			
0.8635	55266.56	3.2320	3.2320	-0.1849	26.49	0.79	-0.750			
0.8641	55301.80	3.2290	3.2290	-0.1822	26.50	0.80	-0.750			
0.8646	55336.46	3.2260	3.2259	-0.1791	26.50	0.80	-0.750			
0.8652	55370.26	3.2230	3.2231	-0.1765	26.51	0.81	-0.750			
0.8657	55404.14	3.2200	3.2199	-0.1749	26.51	0.81	-0.750			
0.8662	55437.56	3.2170	3.2171	-0.1723	26.52	0.82	-0.750			
0.8667	55470.21	3.2140	3.2139	-0.1710	26.52	0.82	-0.750			
0.8672	55502.83	3.2110	3.2110	-0.1687	26.53	0.83	-0.750			
0.8677	55535.05	3.2080	3.2081	-0.1670	26.53	0.83	-0.750			
0.8682	55566.88	3.2050	3.2048	-0.1653	26.53	0.83	-0.750			
0.8687	55598.74	3.2020	3.2021	-0.1636	26.54	0.84	-0.750			
0.8692	55629.69	3.1990	3.1990	-0.1618	26.54	0.84	-0.750			
0.8697	55660.61	3.1960	3.1960	-0.1603	26.55	0.85	-0.750			
0.8702	55691.45	3.1930	3.1929	-0.1580	26.55	0.85	-0.750			
0.8706	55721.13	3.1900	3.1900	-0.1566	26.56	0.86	-0.750			
0.8711	55751.40	3.1870	3.1870	-0.1554	26.56	0.86	-0.750			
0.8716	55781.02	3.1840	3.1840	-0.1538	26.56	0.86	-0.750			
0.8720	55810.34	3.1810	3.1809	-0.1522	26.57	0.87	-0.750			
0.8725	55839.60	3.1780	3.1780	-0.1502	26.57	0.87	-0.750			
0.8729	55868.16	3.1750	3.1750	-0.1480	26.58	0.88	-0.750			
0.8734	55896.38	3.1720	3.1721	-0.1460	26.58	0.88	-0.750			
0.8738	55924.27	3.1690	3.1689	-0.1459	26.58	0.88	-0.750			
0.8742	55951.86	3.1660	3.1659	-0.1438	26.59	0.89	-0.750			
0.8747	55979.44	3.1630	3.1629	-0.1431	26.59	0.89	-0.750			
0.8751	56006.69	3.1600	3.1601	-0.1420	26.60	0.90	-0.750			
0.8755	56033.91	3.1570	3.1571	-0.1412	26.61	0.91	-0.750			
0.8760	56061.24	3.1540	3.1539	-0.1403	26.61	0.91	-0.750			
0.8764	56088.14	3.1510	3.1510	-0.1388	26.62	0.92	-0.750			
0.8768	56114.62	3.1480	3.1480	-0.1371	26.62	0.92	-0.750			
0.8772	56140.55	3.1450	3.1451	-0.1353	26.63	0.93	-0.750			
0.8776	56166.49	3.1420	3.1420	-0.1352	26.63	0.93	-0.750			
0.8780	56192.24	3.1390	3.1390	-0.1334	26.64	0.94	-0.750			
0.8784	56217.76	3.1360	3.1359	-0.1324	26.64	0.94	-0.750			
0.8788	56242.92	3.1330	3.1329	-0.1319	26.65	0.95	-0.750			
0.8792	56268.36	3.1300	3.1301	-0.1308	26.65	0.95	-0.750			
0.8796	56293.27	3.1270	3.1270	-0.1305	26.66	0.96	-0.750			
0.8800	56318.27	3.1240	3.1240	-0.1299	26.66	0.96	-0.750			
0.8804	56343.21	3.1210	3.1211	-0.1288	26.67	0.97	-0.750			
0.8807	56367.67	3.1180	3.1179	-0.1276	26.67	0.97	-0.750			
0.8811	56392.53	3.1150	3.1151	-0.1270	26.68	0.98	-0.750			
0.8815	56416.76	3.1120	3.1119	-0.1254	26.68	0.98	-0.750			
0.8819	56440.51	3.1090	3.1090	-0.1243	26.69	0.99	-0.750			
0.8823	56464.29	3.1060	3.1059	-0.1237	26.69	0.99	-0.750			
0.8826	56487.92	3.1030	3.1029	-0.1225	26.70	1.00	-0.750			
0.8830	56510.93	3.1000	3.1000	-0.1212	26.70	1.00	-0.750			
0.8833	56534.16	3.0970	3.0971	-0.1208	26.71	1.01	-0.750			
0.8837	56557.42	3.0940	3.0939	-0.1202	26.71	1.01	-0.750			
0.8841	56580.56	3.0910	3.0911	-0.1198	26.72	1.02	-0.750			
0.8844	56603.44	3.0880	3.0878	-0.1190	26.72	1.02	-0.750			
0.8848	56626.16	3.0850	3.0850	-0.1181	26.72	1.02	-0.750			
0.8851	56648.77	3.0820	3.0821	-0.1173	26.73	1.03	-0.750			
0.8855	56671.27	3.0790	3.0789	-0.1166	26.73	1.03	-0.750			
0.8858	56693.60	3.0760	3.0761	-0.1156	26.74	1.04	-0.750			
0.8862	56715.68	3.0730	3.0730	-0.1146	26.74	1.04	-0.750			
0.8865	56737.57	3.0700	3.0701	-0.1139	26.75	1.05	-0.750			
0.8869	56759.38	3.0670	3.0670	-0.1131	26.75	1.05	-0.750			
0.8872	56781.01	3.0640	3.0640	-0.1122	26.76	1.06	-0.750			
0.8875	56802.35	3.0610	3.0610	-0.1116	26.76	1.06	-0.750			
0.8879	56823.72	3.0580	3.0579	-0.1111	26.77	1.07	-0.750			
0.8882	56844.87	3.0550	3.0550	-0.1107	26.77	1.07	-0.750			
0.8885	56866.10	3.0520	3.0520	-0.1105	26.78	1.08	-0.750			
0.8889	56887.57	3.0490	3.0491	-0.1094	26.79	1.09	-0.750			
0.8892	56908.47	3.0460	3.0458	-0.1084	26.79	1.09	-0.750			
0.8895	56929.17	3.0430	3.0431	-0.1080	26.80	1.10	-0.750			
0.8898	56949.82	3.0400	3.0400	-0.1071	26.80	1.10	-0.750			
0.8902	56970.18	3.0370	3.0369	-0.1064	26.81	1.11	-0.750			
0.8905	56990.56	3.0340	3.0339	-0.1059	26.81	1.11	-0.750			
0.8908	57010.64	3.0310	3.0311	-0.1051	26.82	1.12	-0.750			
0.8911	57030.81	3.0280	3.0281	-0.1050	26.82	1.12	-0.750			
0.8914	57051.19	3.0250	3.0250	-0.1050	26.83	1.13	-0.750			
0.8917	57071.28	3.0220	3.0220	-0.1043	26.83	1.13	-0.750			
0.8921	57091.53	3.0190	3.0189	-0.1029	26.84	1.14	-0.750			
0.8924	57111.15	3.0160	3.0161	-0.1015	26.84	1.14	-0.750			
0.8927	57130.49	3.0130	3.0131	-0.1011	26.85	1.15	-0.750			
0.8930	57149.79	3.0100	3.0101	-0.1000	26.85	1.15	-0.750			
0.8933	57168.72	3.0070	3.0071	-0.0990	26.86	1.16	-0.751			
0.8936	57187.66	3.0040	3.0038	-0.0983	26.86	1.16	-0.751			
0.8939	57206.47	3.0010	3.0010	-0.0976	26.86	1.16	-0.751			
