Ah_balance (normalized)	Ah_balance (mAh)	Voltage - fit (V)	Voltage -  interpolate (V)	dQ/dV (1/V)	Temperature (°C)	Temperature - diff (°C)	Current (C)	R_DC 0ms (mOhm)	R_DC 50ms (mOhm)	R_DC 50 ms PEC (mOhm)
0.0516	3302.09	4.1980	4.1980	0.7672	26.58	0.61	0.750			
0.0539	3448.44	4.1950	4.1950	0.7642	26.58	0.61	0.750			
0.0562	3596.52	4.1920	4.1918	0.7691	26.58	0.61	0.750			
0.0585	3744.38	4.1890	4.1891	0.7704	26.58	0.61	0.750			
0.0608	3893.10	4.1860	4.1860	0.7646	26.58	0.61	0.750			
0.0631	4041.17	4.1830	4.1831	0.7642	26.58	0.61	0.750			
0.0654	4184.86	4.1800	4.1800	0.7625	26.58	0.61	0.750			
0.0677	4331.18	4.1770	4.1770	0.7668	26.58	0.61	0.750			
0.0700	4478.21	4.1740	4.1740	0.7664	26.58	0.61	0.750			
0.0723	4625.97	4.1710	4.1710	0.7717	26.58	0.61	0.750			
0.0746	4775.76	4.1680	4.1681	0.7721	26.58	0.61	0.750			
0.0769	4924.60	4.1650	4.1650	0.7773	26.58	0.61	0.750			
0.0793	5073.31	4.1620	4.1620	0.7761	26.58	0.61	0.750			
0.0816	5221.53	4.1590	4.1586	0.7782	26.58	0.61	0.750			
0.0839	5370.81	4.1560	4.1561	0.7806	26.58	0.61	0.750			
0.0863	5522.98	4.1530	4.1530	0.7783	26.59	0.62	0.750			
0.0886	5672.42	4.1500	4.1500	0.7829	26.59	0.62	0.750			
0.0910	5823.77	4.1470	4.1470	0.7826	26.59	0.62	0.750			
0.0933	5971.96	4.1440	4.1440	0.7789	26.60	0.63	0.750			
0.0957	6121.76	4.1410	4.1411	0.7830	26.60	0.63	0.750			
0.0980	6272.94	4.1380	4.1380	0.7774	26.59	0.62	0.750			
0.1003	6421.60	4.1350	4.1350	0.7814	26.59	0.62	0.750			
0.1027	6571.95	4.1320	4.1320	0.7868	26.59	0.62	0.750			
0.1050	6721.29	4.1290	4.1290	0.7841	26.58	0.61	0.750			
0.1074	6872.45	4.1260	4.1259	0.7896	26.58	0.61	0.750			
0.1098	7024.39	4.1230	4.1230	0.7916	26.58	0.61	0.750			
0.1121	7177.28	4.1200	4.1201	0.7902	26.59	0.62	0.750			
0.1145	7329.13	4.1170	4.1170	0.7976	26.59	0.62	0.750			
0.1169	7480.91	4.1140	4.1141	0.7956	26.60	0.63	0.750			
0.1193	7633.28	4.1110	4.1108	0.8015	26.60	0.63	0.750			
0.1217	7788.97	4.1080	4.1080	0.8091	26.60	0.63	0.750			
0.1242	7947.01	4.1050	4.1050	0.7994	26.60	0.63	0.750			
0.1266	8101.94	4.1020	4.1020	0.8007	26.60	0.63	0.750			
0.1290	8254.19	4.0990	4.0992	0.7973	26.60	0.63	0.750			
0.1313	8405.74	4.0960	4.0957	0.7949	26.60	0.63	0.750			
0.1337	8555.78	4.0930	4.0930	0.7998	26.60	0.63	0.750			
0.1361	8709.77	4.0900	4.0901	0.8004	26.60	0.63	0.750			
0.1386	8867.23	4.0870	4.0869	0.8078	26.60	0.63	0.750			
0.1410	9023.62	4.0840	4.0840	0.8157	26.60	0.63	0.750			
0.1434	9177.51	4.0810	4.0811	0.8102	26.60	0.63	0.750			
0.1458	9333.20	4.0780	4.0780	0.8163	26.60	0.63	0.750			
0.1483	9492.37	4.0750	4.0750	0.8101	26.60	0.63	0.750			
0.1507	9646.16	4.0720	4.0721	0.8182	26.61	0.64	0.750			
0.1532	9804.54	4.0690	4.0690	0.8260	26.61	0.64	0.750			
0.1557	9962.29	4.0660	4.0661	0.8306	26.61	0.64	0.750			
0.1582	10121.71	4.0630	4.0631	0.8315	26.61	0.64	0.750			
0.1607	10284.91	4.0600	4.0600	0.8297	26.61	0.64	0.750			
0.1632	10442.69	4.0570	4.0571	0.8368	26.61	0.64	0.750			
0.1657	10605.84	4.0540	4.0540	0.8424	26.61	0.64	0.750			
0.1682	10764.65	4.0510	4.0509	0.8388	26.61	0.64	0.750			
0.1707	10926.65	4.0480	4.0481	0.8434	26.61	0.64	0.750			
0.1733	11089.77	4.0450	4.0450	0.8380	26.61	0.64	0.750			
0.1758	11251.55	4.0420	4.0420	0.8451	26.62	0.65	0.750			
0.1784	11414.90	4.0390	4.0391	0.8489	26.62	0.65	0.750			
0.1808	11574.28	4.0360	4.0359	0.8479	26.62	0.65	0.750			
0.1834	11738.64	4.0330	4.0331	0.8540	26.62	0.65	0.750			
0.1860	11902.68	4.0300	4.0300	0.8547	26.62	0.65	0.750			
0.1886	12067.26	4.0270	4.0270	0.8608	26.62	0.65	0.750			
0.1912	12233.84	4.0240	4.0241	0.8609	26.62	0.65	0.750			
0.1938	12400.80	4.0210	4.0209	0.8647	26.62	0.65	0.750			
0.1964	12566.53	4.0180	4.0181	0.8683	26.62	0.65	0.750			
0.1990	12734.24	4.0150	4.0150	0.8644	26.62	0.65	0.750			
0.2016	12899.73	4.0120	4.0120	0.8684	26.63	0.66	0.750			
0.2041	13064.28	4.0090	4.0091	0.8751	26.63	0.66	0.750			
0.2068	13233.14	4.0060	4.0058	0.8775	26.63	0.66	0.750			
0.2094	13403.92	4.0030	4.0029	0.8783	26.63	0.66	0.750			
0.2121	13571.95	4.0000	4.0002	0.8854	26.63	0.66	0.750			
0.2147	13743.05	3.9970	3.9971	0.8910	26.64	0.67	0.750			
0.2174	13914.85	3.9940	3.9940	0.8927	26.64	0.67	0.750			
0.2201	14084.93	3.9910	3.9911	0.8936	26.64	0.67	0.750			
0.2228	14258.00	3.9880	3.9881	0.8934	26.64	0.67	0.750			
0.2255	14432.10	3.9850	3.9850	0.9052	26.64	0.67	0.750			
0.2282	14606.46	3.9820	3.9820	0.9012	26.64	0.67	0.750			
0.2309	14777.64	3.9790	3.9790	0.8972	26.64	0.67	0.750			
0.2336	14950.15	3.9760	3.9760	0.9000	26.64	0.67	0.750			
0.2363	15123.13	3.9730	3.9731	0.8972	26.64	0.67	0.750			
0.2390	15294.24	3.9700	3.9700	0.9002	26.64	0.67	0.750			
0.2417	15467.06	3.9670	3.9671	0.9089	26.64	0.67	0.750			
0.2444	15640.15	3.9640	3.9638	0.9071	26.64	0.67	0.750			
0.2471	15816.94	3.9610	3.9610	0.9166	26.64	0.67	0.750			
0.2499	15993.08	3.9580	3.9581	0.9227	26.64	0.67	0.750			
0.2527	16172.83	3.9550	3.9549	0.9247	26.64	0.67	0.750			
0.2555	16351.22	3.9520	3.9520	0.9185	26.64	0.67	0.750			
0.2582	16527.57	3.9490	3.9491	0.9181	26.64	0.67	0.750			
0.2610	16702.67	3.9460	3.9460	0.9144	26.64	0.67	0.750			
0.2637	16878.68	3.9430	3.9430	0.9155	26.64	0.67	0.750			
0.2664	17052.14	3.9400	3.9400	0.9134	26.64	0.67	0.750			
0.2692	17226.96	3.9370	3.9369	0.9165	26.64	0.67	0.750			
0.2720	17406.10	3.9340	3.9340	0.9182	26.64	0.67	0.750			
0.2747	17581.82	3.9310	3.9310	0.9236	26.64	0.67	0.750			
0.2775	17757.65	3.9280	3.9281	0.9311	26.64	0.67	0.750			
0.2803	17937.19	3.9250	3.9249	0.9359	26.64	0.67	0.750			
0.2831	18119.99	3.9220	3.9221	0.9351	26.64	0.67	0.750			
0.2859	18299.45	3.9190	3.9190	0.9386	26.64	0.67	0.750			
0.2888	18480.84	3.9160	3.9161	0.9374	26.64	0.67	0.750			
0.2916	18663.14	3.9130	3.9129	0.9369	26.64	0.67	0.750			
0.2944	18839.47	3.9100	3.9099	0.9347	26.64	0.67	0.750			
0.2972	19018.34	3.9070	3.9071	0.9295	26.64	0.67	0.750			
0.3000	19197.36	3.9040	3.9039	0.9371	26.63	0.66	0.750			
0.3028	19376.22	3.9010	3.9011	0.9468	26.63	0.66	0.750			
0.3056	19555.68	3.8980	3.8980	0.9533	26.62	0.65	0.750			
0.3085	19745.89	3.8950	3.8950	0.9478	26.62	0.65	0.750			
0.3114	19926.75	3.8920	3.8920	0.9589	26.62	0.65	0.750			
0.3142	20110.44	3.8890	3.8892	0.9640	26.61	0.64	0.750			
0.3172	20298.07	3.8860	3.8861	0.9700	26.61	0.64	0.750			
0.3200	20483.19	3.8830	3.8828	0.9686	26.61	0.64	0.750			
0.3229	20668.79	3.8800	3.8803	0.9632	26.60	0.63	0.750			
0.3258	20852.58	3.8770	3.8772	0.9686	26.60	0.63	0.750			
0.3287	21039.58	3.8740	3.8740	0.9846	26.59	0.62	0.750			
0.3317	21226.95	3.8710	3.8706	0.9847	26.59	0.62	0.750			
0.3346	21415.71	3.8680	3.8680	0.9952	26.58	0.61	0.750			
0.3377	21609.66	3.8650	3.8651	1.0082	26.58	0.61	0.750			
0.3407	21807.29	3.8620	3.8620	1.0224	26.57	0.60	0.750			
0.3438	22004.15	3.8590	3.8588	1.0229	26.56	0.59	0.750			
0.3469	22201.26	3.8560	3.8560	1.0277	26.56	0.59	0.750			
0.3500	22398.38	3.8530	3.8530	1.0344	26.55	0.58	0.750			
0.3531	22596.37	3.8500	3.8501	1.0505	26.55	0.58	0.750			
0.3562	22798.89	3.8470	3.8466	1.0550	26.54	0.57	0.750			
0.3595	23007.14	3.8440	3.8440	1.0550	26.53	0.56	0.750			
0.3626	23209.07	3.8410	3.8411	1.0531	26.52	0.55	0.750			
0.3658	23410.08	3.8380	3.8383	1.0679	26.51	0.54	0.750			
0.3690	23614.90	3.8350	3.8346	1.0756	26.50	0.53	0.750			
0.3722	23819.34	3.8320	3.8320	1.0694	26.49	0.52	0.750			
0.3754	24023.51	3.8290	3.8292	1.0827	26.48	0.51	0.750			
0.3787	24236.48	3.8260	3.8261	1.1018	26.47	0.50	0.750			
0.3821	24452.69	3.8230	3.8226	1.0922	26.46	0.49	0.750			
0.3853	24660.37	3.8200	3.8201	1.0954	26.45	0.48	0.750			
0.3886	24868.51	3.8170	3.8172	1.0992	26.44	0.47	0.750			
0.3919	25080.50	3.8140	3.8141	1.1158	26.43	0.46	0.750			
0.3953	25296.22	3.8110	3.8109	1.1072	26.41	0.44	0.750			
0.3986	25508.56	3.8080	3.8080	1.1219	26.40	0.43	0.750			
0.4020	25727.03	3.8050	3.8052	1.1361	26.38	0.41	0.750			
0.4054	25947.24	3.8020	3.8019	1.1494	26.37	0.40	0.750			
0.4089	26167.18	3.7990	3.7991	1.1509	26.35	0.38	0.750			
0.4123	26388.51	3.7960	3.7960	1.1555	26.34	0.37	0.750			
0.4158	26612.07	3.7930	3.7930	1.1606	26.32	0.35	0.750			
0.4194	26840.54	3.7900	3.7898	1.1569	26.31	0.34	0.750			
0.4228	27058.85	3.7870	3.7871	1.1729	26.30	0.33	0.750			
0.4263	27283.90	3.7840	3.7840	1.1836	26.29	0.32	0.750			
0.4299	27510.94	3.7810	3.7809	1.2004	26.28	0.31	0.750			
0.4335	27741.78	3.7780	3.7781	1.2057	26.26	0.29	0.750			
0.4371	27975.39	3.7750	3.7752	1.2343	26.25	0.28	0.750			
0.4409	28215.30	3.7720	3.7721	1.2454	26.24	0.27	0.750			
0.4445	28450.90	3.7690	3.7688	1.2706	26.23	0.26	0.750			
0.4484	28694.79	3.7660	3.7662	1.3128	26.22	0.25	0.750			
0.4524	28954.47	3.7630	3.7626	1.3468	26.20	0.23	0.750			
0.4565	29218.66	3.7600	3.7599	1.3950	26.19	0.22	0.750	0.310	0.391	
0.4609	29494.76	3.7570	3.7571	1.4127	26.17	0.20	0.750			
0.4652	29775.40	3.7540	3.7541	1.4447	26.16	0.19	0.750			
0.4696	30056.59	3.7510	3.7508	1.4789	26.14	0.17	0.750			
0.4740	30333.61	3.7480	3.7482	1.4797	26.12	0.15	0.750			
0.4784	30617.90	3.7450	3.7450	1.5110	26.10	0.13	0.750			
0.4831	30916.41	3.7420	3.7423	1.5460	26.09	0.12	0.750			
0.4877	31213.06	3.7390	3.7387	1.5858	26.07	0.10	0.750			
0.4926	31525.02	3.7360	3.7361	1.6521	26.06	0.09	0.750			
0.4975	31843.03	3.7330	3.7332	1.6871	26.04	0.07	0.750			
0.5027	32175.59	3.7300	3.7299	1.7503	26.02	0.05	0.750			
0.5081	32521.26	3.7270	3.7270	1.7832	26.00	0.03	0.750			
0.5136	32868.76	3.7240	3.7239	1.8335	25.98	0.01	0.750			
0.5191	33220.93	3.7210	3.7211	1.8940	25.96	-0.01	0.750			
0.5248	33588.36	3.7180	3.7181	1.9300	25.94	-0.03	0.750			
0.5307	33962.04	3.7150	3.7148	1.9804	25.92	-0.05	0.750			
0.5367	34350.85	3.7120	3.7120	2.0367	25.90	-0.07	0.750			
0.5429	34742.90	3.7090	3.7090	2.1015	25.88	-0.09	0.750			
0.5494	35160.54	3.7060	3.7060	2.1882	25.86	-0.11	0.750			
0.5558	35573.90	3.7030	3.7030	2.2591	25.85	-0.12	0.750			
0.5628	36018.91	3.7000	3.7000	2.3080	25.83	-0.14	0.750			
0.5699	36470.92	3.6970	3.6970	2.3924	25.81	-0.16	0.750			
0.5773	36944.98	3.6940	3.6942	2.4576	25.78	-0.19	0.750			
0.5846	37417.50	3.6910	3.6910	2.5021	25.77	-0.20	0.750			
0.5922	37900.00	3.6880	3.6880	2.5690	25.75	-0.22	0.750			
0.5999	38394.37	3.6850	3.6850	2.6412	25.73	-0.24	0.750			
0.6080	38910.07	3.6820	3.6821	2.7388	25.71	-0.26	0.750			
0.6166	39460.49	3.6790	3.6789	2.8463	25.70	-0.27	0.750			
0.6254	40023.16	3.6760	3.6762	2.8742	25.69	-0.28	0.750			
0.6339	40572.09	3.6730	3.6734	2.9545	25.67	-0.30	0.750			
0.6428	41139.36	3.6700	3.6698	3.0443	25.66	-0.31	0.750			
0.6522	41738.68	3.6670	3.6672	3.0550	25.65	-0.32	0.750			
0.6619	42361.28	3.6640	3.6640	3.0729	25.64	-0.33	0.750			
0.6708	42929.08	3.6610	3.6611	2.8319	25.65	-0.32	0.750			
0.6791	43461.19	3.6580	3.6579	2.6186	25.65	-0.32	0.750			
0.6865	43936.37	3.6550	3.6548	2.3304	25.65	-0.32	0.750			
0.6930	44353.76	3.6520	3.6522	2.0894	25.66	-0.31	0.750			
0.6989	44726.76	3.6490	3.6488	1.8916	25.66	-0.31	0.750			
0.7040	45054.36	3.6460	3.6458	1.6743	25.66	-0.31	0.750			
0.7085	45342.33	3.6430	3.6431	1.5073	25.66	-0.31	0.750			
0.7128	45616.21	3.6400	3.6402	1.4130	25.66	-0.31	0.750			
0.7168	45873.07	3.6370	3.6370	1.3197	25.66	-0.31	0.750			
0.7206	46119.42	3.6340	3.6340	1.2669	25.66	-0.31	0.750			
0.7241	46344.90	3.6310	3.6310	1.2035	25.66	-0.31	0.750			
0.7276	46567.42	3.6280	3.6282	1.1954	25.67	-0.30	0.750			
0.7312	46794.84	3.6250	3.6246	1.1908	25.67	-0.30	0.750			
0.7347	47019.69	3.6220	3.6221	1.2017	25.67	-0.30	0.750			
0.7384	47254.51	3.6190	3.6190	1.2152	25.68	-0.29	0.750			
0.7421	47493.90	3.6160	3.6160	1.2254	25.68	-0.29	0.750			
0.7458	47733.63	3.6130	3.6130	1.2187	25.68	-0.29	0.750			
0.7494	47963.00	3.6100	3.6100	1.2064	25.68	-0.29	0.750			
0.7530	48193.16	3.6070	3.6071	1.1915	25.68	-0.29	0.750			
0.7566	48423.08	3.6040	3.6037	1.1680	25.68	-0.29	0.750			
0.7600	48640.86	3.6010	3.6011	1.1524	25.68	-0.29	0.750			
0.7634	48859.61	3.5980	3.5982	1.1577	25.69	-0.28	0.750			
0.7669	49079.51	3.5950	3.5950	1.1649	25.69	-0.28	0.750			
0.7704	49305.74	3.5920	3.5918	1.1462	25.69	-0.28	0.750			
0.7738	49520.12	3.5890	3.5892	1.1873	25.69	-0.28	0.750			
0.7773	49747.84	3.5860	3.5862	1.2279	25.70	-0.27	0.750			
0.7811	49989.94	3.5830	3.5825	1.2646	25.70	-0.27	0.750			
0.7849	50233.57	3.5800	3.5801	1.3122	25.70	-0.27	0.750			
0.7888	50484.35	3.5770	3.5772	1.3723	25.70	-0.27	0.750			
0.7932	50761.98	3.5740	3.5740	1.4141	25.70	-0.27	0.750			
0.7975	51039.52	3.5710	3.5709	1.4540	25.70	-0.27	0.750			
0.8020	51325.15	3.5680	3.5679	1.4958	25.70	-0.27	0.750			
0.8066	51620.86	3.5650	3.5646	1.5276	25.70	-0.27	0.750			
0.8113	51920.58	3.5620	3.5619	1.5524	25.70	-0.27	0.750			
0.8159	52216.81	3.5590	3.5591	1.5675	25.69	-0.28	0.750			
0.8207	52523.32	3.5560	3.5562	1.5930	25.69	-0.28	0.750			
0.8256	52837.93	3.5530	3.5531	1.6216	25.70	-0.27	0.750			
0.8303	53142.02	3.5500	3.5500	1.6253	25.70	-0.27	0.750			
0.8352	53455.40	3.5470	3.5473	1.6568	25.70	-0.27	0.750			
0.8404	53783.44	3.5440	3.5440	1.6678	25.71	-0.26	0.750			
0.8453	54100.65	3.5410	3.5403	1.6824	25.71	-0.26	0.750			
0.8504	54424.89	3.5380	3.5381	1.7188	25.72	-0.25	0.750			
0.8556	54758.39	3.5350	3.5349	1.7504	25.73	-0.24	0.750			
0.8611	55111.07	3.5320	3.5319	1.7372	25.74	-0.23	0.750			
0.8668	55473.45	3.5290	3.5290	1.6050	25.75	-0.22	0.750			
0.8717	55787.28	3.5260	3.5263	1.4204	25.77	-0.20	0.750			
0.8761	56067.38	3.5230	3.5235	1.1968	25.79	-0.18	0.750			
0.8791	56262.93	3.5200	3.5200	0.9418	25.80	-0.17	0.750			
0.8812	56395.56	3.5170	3.5164	0.6896	25.81	-0.16	0.750			
0.8824	56476.15	3.5140	3.5137	0.5171	25.82	-0.15	0.750			
0.8835	56546.02	3.5110	3.5109	0.4106	25.82	-0.15	0.750			
0.8846	56615.33	3.5080	3.5080	0.3697	25.83	-0.14	0.750			
0.8856	56679.01	3.5050	3.5049	0.3375	25.84	-0.13	0.750			
0.8866	56740.05	3.5020	3.5019	0.3189	25.84	-0.13	0.750			
0.8875	56799.28	3.4990	3.4990	0.3056	25.85	-0.12	0.750			
0.8884	56856.12	3.4960	3.4960	0.2953	25.85	-0.12	0.750			
0.8893	56912.14	3.4930	3.4930	0.2868	25.86	-0.11	0.750			
0.8901	56964.76	3.4900	3.4901	0.2820	25.86	-0.11	0.750			
0.8909	57019.05	3.4870	3.4869	0.2752	25.87	-0.10	0.750			
0.8917	57071.27	3.4840	3.4839	0.2693	25.87	-0.10	0.750			
0.8925	57122.89	3.4810	3.4810	0.2647	25.88	-0.09	0.750			
0.8933	57173.71	3.4780	3.4784	0.2586	25.89	-0.08	0.750			
0.8941	57222.63	3.4750	3.4745	0.2521	25.89	-0.08	0.750			
0.8948	57269.94	3.4720	3.4720	0.2457	25.89	-0.08	0.750			
0.8956	57315.81	3.4690	3.4691	0.2383	25.90	-0.07	0.750			
0.8963	57360.62	3.4660	3.4659	0.2333	25.90	-0.07	0.750			
0.8970	57406.38	3.4630	3.4630	0.2313	25.91	-0.06	0.750			
0.8976	57449.56	3.4600	3.4601	0.2258	25.91	-0.06	0.750			
0.8983	57492.24	3.4570	3.4569	0.2225	25.92	-0.05	0.750			
0.8990	57535.13	3.4540	3.4539	0.2185	25.92	-0.05	0.750			
0.8996	57576.45	3.4510	3.4511	0.2140	25.93	-0.04	0.750			
0.9003	57617.48	3.4480	3.4479	0.2086	25.93	-0.04	0.750			
0.9009	57657.37	3.4450	3.4451	0.2048	25.93	-0.04	0.750			
0.9015	57695.83	3.4420	3.4421	0.1993	25.94	-0.03	0.750			
0.9021	57733.64	3.4390	3.4390	0.1945	25.94	-0.03	0.750			
0.9027	57770.42	3.4360	3.4359	0.1898	25.94	-0.03	0.750			
0.9032	57806.00	3.4330	3.4329	0.1845	25.95	-0.02	0.750			
0.9038	57841.58	3.4300	3.4301	0.1810	25.95	-0.02	0.750			
0.9043	57875.86	3.4270	3.4270	0.1761	25.96	-0.01	0.750			
0.9048	57909.51	3.4240	3.4240	0.1712	25.96	-0.01	0.750			
0.9053	57941.66	3.4210	3.4209	0.1657	25.96	-0.01	0.750			
0.9058	57972.85	3.4180	3.4181	0.1608	25.96	-0.01	0.750			
0.9063	58003.26	3.4150	3.4150	0.1560	25.97	-0.00	0.750			
0.9068	58032.83	3.4120	3.4119	0.1505	25.97	0.00	0.750			
0.9072	58061.25	3.4090	3.4090	0.1451	25.97	0.00	0.750			
0.9076	58088.75	3.4060	3.4060	0.1402	25.98	0.01	0.750			
0.9081	58115.34	3.4030	3.4031	0.1339	25.98	0.01	0.750			
0.9084	58140.66	3.4000	3.3999	0.1280	25.98	0.01	0.750			
0.9088	58164.87	3.3970	3.3969	0.1213	25.98	0.01	0.750			
0.9092	58187.52	3.3940	3.3940	0.1144	25.99	0.02	0.750			
0.9095	58208.79	3.3910	3.3912	0.1073	25.99	0.02	0.750			
0.9098	58229.73	3.3880	3.3879	0.0988	25.99	0.02	0.750			
0.9101	58247.79	3.3850	3.3850	0.0894	25.99	0.02	0.750			
0.9104	58264.40	3.3820	3.3822	0.0806	25.99	0.02	0.750			
0.9106	58278.93	3.3790	3.3792	0.0708	26.00	0.03	0.750			
0.9108	58292.50	3.3760	3.3764	0.0612	26.00	0.03	0.750			
0.9110	58303.19	3.3730	3.3737	0.0502	26.00	0.03	0.750			
0.9111	58311.76	3.3700	3.3713	0.0391	26.00	0.03	0.750			
0.9112	58318.22	3.3670	3.3685	0.0281	26.00	0.03	0.750			
