Ah_balance (normalized)	Ah_balance (mAh)	Voltage - fit (V)	Voltage -  interpolate (V)	dQ/dV (1/V)	Temperature (°C)	Temperature - diff (°C)	Current (C)	R_DC 0ms (mOhm)	R_DC 50ms (mOhm)	R_DC 50 ms PEC (mOhm)
0.0548	3505.45	4.1980	4.1980	0.7651	26.59	0.62	0.750			
0.0571	3651.28	4.1950	4.1950	0.7576	26.59	0.62	0.750			
0.0593	3796.68	4.1920	4.1920	0.7570	26.59	0.62	0.750			
0.0616	3942.05	4.1890	4.1890	0.7554	26.59	0.62	0.750			
0.0639	4087.59	4.1860	4.1859	0.7533	26.59	0.62	0.750			
0.0661	4231.37	4.1830	4.1831	0.7520	26.59	0.62	0.750			
0.0683	4374.28	4.1800	4.1800	0.7525	26.58	0.61	0.750			
0.0706	4519.58	4.1770	4.1770	0.7599	26.58	0.61	0.750			
0.0729	4665.23	4.1740	4.1739	0.7604	26.58	0.61	0.750			
0.0752	4811.21	4.1710	4.1710	0.7647	26.58	0.61	0.750			
0.0775	4963.01	4.1680	4.1680	0.7580	26.58	0.61	0.750			
0.0798	5106.97	4.1650	4.1651	0.7600	26.58	0.61	0.750			
0.0821	5251.86	4.1620	4.1619	0.7579	26.58	0.61	0.750			
0.0843	5395.70	4.1590	4.1594	0.7555	26.58	0.61	0.750			
0.0866	5540.86	4.1560	4.1561	0.7596	26.58	0.61	0.750			
0.0889	5687.99	4.1530	4.1530	0.7618	26.57	0.60	0.750			
0.0912	5834.48	4.1500	4.1500	0.7646	26.57	0.60	0.750			
0.0935	5982.12	4.1470	4.1470	0.7643	26.57	0.60	0.750			
0.0958	6129.90	4.1440	4.1440	0.7700	26.56	0.59	0.750			
0.0981	6276.99	4.1410	4.1411	0.7735	26.56	0.59	0.750			
0.1004	6426.39	4.1380	4.1381	0.7780	26.56	0.59	0.750			
0.1028	6576.76	4.1350	4.1349	0.7761	26.56	0.59	0.750			
0.1051	6726.43	4.1320	4.1320	0.7759	26.56	0.59	0.750			
0.1074	6874.95	4.1290	4.1292	0.7743	26.56	0.59	0.750			
0.1097	7022.59	4.1260	4.1258	0.7752	26.56	0.59	0.750			
0.1121	7171.31	4.1230	4.1231	0.7766	26.56	0.59	0.750			
0.1144	7322.90	4.1200	4.1199	0.7692	26.56	0.59	0.750			
0.1167	7468.79	4.1170	4.1170	0.7750	26.57	0.60	0.750			
0.1190	7618.06	4.1140	4.1141	0.7790	26.57	0.60	0.750			
0.1213	7765.11	4.1110	4.1111	0.7813	26.57	0.60	0.750			
0.1237	7915.20	4.1080	4.1079	0.7871	26.57	0.60	0.750			
0.1261	8067.97	4.1050	4.1051	0.7899	26.57	0.60	0.750			
0.1285	8221.75	4.1020	4.1020	0.7933	26.57	0.60	0.750			
0.1309	8375.65	4.0990	4.0991	0.7953	26.56	0.59	0.750			
0.1332	8527.87	4.0960	4.0961	0.7901	26.56	0.59	0.750			
0.1356	8678.53	4.0930	4.0931	0.7915	26.56	0.59	0.750			
0.1380	8830.08	4.0900	4.0900	0.7917	26.56	0.59	0.750			
0.1403	8981.50	4.0870	4.0870	0.7897	26.56	0.59	0.750			
0.1427	9132.82	4.0840	4.0840	0.7955	26.57	0.60	0.750			
0.1451	9287.04	4.0810	4.0810	0.7982	26.57	0.60	0.750			
0.1475	9439.70	4.0780	4.0778	0.8024	26.57	0.60	0.750			
0.1499	9593.89	4.0750	4.0751	0.8071	26.57	0.60	0.750			
0.1523	9750.15	4.0720	4.0720	0.8042	26.57	0.60	0.750			
0.1548	9905.23	4.0690	4.0690	0.8098	26.57	0.60	0.750			
0.1572	10059.79	4.0660	4.0660	0.8066	26.57	0.60	0.750			
0.1596	10214.09	4.0630	4.0629	0.8103	26.57	0.60	0.750			
0.1620	10369.49	4.0600	4.0601	0.8165	26.57	0.60	0.750			
0.1645	10526.68	4.0570	4.0571	0.8152	26.57	0.60	0.750			
0.1669	10684.75	4.0540	4.0539	0.8252	26.56	0.59	0.750			
0.1694	10844.24	4.0510	4.0511	0.8262	26.56	0.59	0.750			
0.1719	11003.51	4.0480	4.0479	0.8289	26.56	0.59	0.750			
0.1744	11163.75	4.0450	4.0451	0.8326	26.56	0.59	0.750			
0.1769	11323.90	4.0420	4.0420	0.8316	26.56	0.59	0.750			
0.1794	11482.14	4.0390	4.0390	0.8320	26.57	0.60	0.750			
0.1819	11642.39	4.0360	4.0360	0.8325	26.57	0.60	0.750			
0.1844	11801.45	4.0330	4.0330	0.8389	26.57	0.60	0.750			
0.1869	11963.97	4.0300	4.0300	0.8455	26.57	0.60	0.750			
0.1895	12127.74	4.0270	4.0269	0.8433	26.57	0.60	0.750			
0.1920	12288.65	4.0240	4.0241	0.8524	26.58	0.61	0.750			
0.1946	12453.57	4.0210	4.0211	0.8536	26.58	0.61	0.750			
0.1972	12617.86	4.0180	4.0178	0.8530	26.58	0.61	0.750			
0.1997	12781.56	4.0150	4.0151	0.8550	26.58	0.61	0.750			
0.2023	12946.04	4.0120	4.0121	0.8502	26.58	0.61	0.750			
0.2048	13110.39	4.0090	4.0089	0.8560	26.58	0.61	0.750			
0.2074	13272.86	4.0060	4.0060	0.8512	26.58	0.61	0.750			
0.2099	13435.29	4.0030	4.0028	0.8551	26.58	0.61	0.750			
0.2125	13602.33	4.0000	3.9999	0.8586	26.58	0.61	0.750			
0.2151	13765.94	3.9970	3.9970	0.8655	26.58	0.61	0.750			
0.2177	13932.33	3.9940	3.9941	0.8698	26.58	0.61	0.750			
0.2203	14101.68	3.9910	3.9909	0.8725	26.58	0.61	0.750			
0.2229	14268.17	3.9880	3.9880	0.8703	26.58	0.61	0.750			
0.2256	14436.97	3.9850	3.9851	0.8728	26.58	0.61	0.750			
0.2282	14603.69	3.9820	3.9820	0.8771	26.58	0.61	0.750			
0.2308	14773.37	3.9790	3.9789	0.8790	26.59	0.62	0.750			
0.2334	14940.09	3.9760	3.9761	0.8778	26.59	0.62	0.750			
0.2361	15110.32	3.9730	3.9730	0.8811	26.59	0.62	0.750			
0.2388	15280.54	3.9700	3.9700	0.8797	26.59	0.62	0.750			
0.2414	15449.18	3.9670	3.9670	0.8788	26.58	0.61	0.750			
0.2440	15616.73	3.9640	3.9640	0.8802	26.58	0.61	0.750			
0.2466	15785.15	3.9610	3.9609	0.8754	26.58	0.61	0.750			
0.2493	15953.57	3.9580	3.9580	0.8815	26.58	0.61	0.750			
0.2519	16123.06	3.9550	3.9550	0.8803	26.58	0.61	0.750			
0.2546	16292.37	3.9520	3.9519	0.8848	26.58	0.61	0.750			
0.2572	16463.04	3.9490	3.9490	0.8875	26.58	0.61	0.750			
0.2599	16633.25	3.9460	3.9458	0.8874	26.58	0.61	0.750			
0.2626	16804.15	3.9430	3.9430	0.8864	26.58	0.61	0.750			
0.2652	16975.38	3.9400	3.9400	0.8892	26.58	0.61	0.750			
0.2679	17144.55	3.9370	3.9370	0.8899	26.58	0.61	0.750			
0.2706	17316.47	3.9340	3.9340	0.8941	26.58	0.61	0.750			
0.2732	17487.18	3.9310	3.9311	0.8927	26.58	0.61	0.750			
0.2760	17661.17	3.9280	3.9280	0.8872	26.57	0.60	0.750			
0.2786	17830.38	3.9250	3.9250	0.8946	26.57	0.60	0.750			
0.2813	18001.55	3.9220	3.9220	0.8976	26.57	0.60	0.750			
0.2840	18172.86	3.9190	3.9190	0.8997	26.56	0.59	0.750			
0.2867	18345.83	3.9160	3.9161	0.9046	26.56	0.59	0.750			
0.2894	18521.02	3.9130	3.9130	0.9100	26.55	0.58	0.750			
0.2921	18696.90	3.9100	3.9100	0.9164	26.55	0.58	0.750			
0.2949	18874.81	3.9070	3.9070	0.9247	26.54	0.57	0.750			
0.2977	19050.47	3.9040	3.9040	0.9211	26.54	0.57	0.750			
0.3005	19231.24	3.9010	3.9009	0.9120	26.54	0.57	0.750			
0.3032	19403.28	3.8980	3.8981	0.9182	26.53	0.56	0.750			
0.3059	19578.50	3.8950	3.8951	0.9247	26.53	0.56	0.750			
0.3087	19754.63	3.8920	3.8920	0.9321	26.52	0.55	0.750			
0.3115	19933.21	3.8890	3.8890	0.9449	26.52	0.55	0.750			
0.3143	20116.14	3.8860	3.8861	0.9419	26.51	0.54	0.750			
0.3172	20298.87	3.8830	3.8831	0.9570	26.51	0.54	0.750			
0.3201	20484.47	3.8800	3.8801	0.9646	26.50	0.53	0.750			
0.3230	20668.99	3.8770	3.8764	0.9622	26.50	0.53	0.750			
0.3259	20856.79	3.8740	3.8740	0.9527	26.49	0.52	0.750			
0.3287	21039.27	3.8710	3.8712	0.9563	26.49	0.52	0.750			
0.3316	21223.45	3.8680	3.8682	0.9629	26.48	0.51	0.750			
0.3345	21406.44	3.8650	3.8647	0.9537	26.47	0.50	0.750			
0.3374	21592.44	3.8620	3.8620	0.9474	26.46	0.49	0.750			
0.3402	21773.26	3.8590	3.8592	0.9561	26.46	0.49	0.750			
0.3431	21956.17	3.8560	3.8561	0.9682	26.45	0.48	0.750			
0.3460	22146.14	3.8530	3.8531	0.9794	26.44	0.47	0.750			
0.3489	22331.52	3.8500	3.8501	0.9745	26.44	0.47	0.750			
0.3519	22519.58	3.8470	3.8471	0.9829	26.43	0.46	0.750			
0.3549	22711.43	3.8440	3.8441	0.9923	26.42	0.45	0.750			
0.3579	22903.44	3.8410	3.8411	0.9962	26.41	0.44	0.750			
0.3609	23094.64	3.8380	3.8380	0.9969	26.40	0.43	0.750			
0.3639	23286.91	3.8350	3.8350	0.9970	26.39	0.42	0.750			
0.3669	23479.80	3.8320	3.8319	1.0013	26.38	0.41	0.750			
0.3699	23672.19	3.8290	3.8292	1.0012	26.38	0.41	0.750			
0.3729	23863.61	3.8260	3.8259	1.0028	26.37	0.40	0.750			
0.3759	24055.43	3.8230	3.8230	1.0063	26.36	0.39	0.750			
0.3789	24247.42	3.8200	3.8200	1.0096	26.35	0.38	0.750			
0.3819	24441.02	3.8170	3.8171	1.0199	26.34	0.37	0.750			
0.3850	24641.50	3.8140	3.8137	1.0294	26.33	0.36	0.750			
0.3881	24840.05	3.8110	3.8110	1.0310	26.32	0.35	0.750			
0.3912	25037.09	3.8080	3.8081	1.0427	26.31	0.34	0.750			
0.3943	25235.35	3.8050	3.8051	1.0527	26.30	0.33	0.750			
0.3975	25440.52	3.8020	3.8016	1.0625	26.29	0.32	0.750			
0.4007	25643.53	3.7990	3.7991	1.0760	26.28	0.31	0.750			
0.4039	25850.70	3.7960	3.7961	1.0937	26.27	0.30	0.750			
0.4073	26065.81	3.7930	3.7930	1.1146	26.26	0.29	0.750			
0.4106	26281.21	3.7900	3.7899	1.1127	26.25	0.28	0.750			
0.4140	26494.97	3.7870	3.7871	1.1361	26.24	0.27	0.750			
0.4174	26714.63	3.7840	3.7841	1.1509	26.23	0.26	0.750			
0.4209	26937.78	3.7810	3.7809	1.1720	26.22	0.25	0.750			
0.4244	27163.47	3.7780	3.7781	1.1803	26.20	0.23	0.750			
0.4279	27387.65	3.7750	3.7751	1.2098	26.19	0.22	0.750			
0.4316	27621.49	3.7720	3.7721	1.2482	26.18	0.21	0.750			
0.4354	27864.10	3.7690	3.7688	1.2748	26.17	0.20	0.750			
0.4393	28115.12	3.7660	3.7662	1.3091	26.16	0.19	0.750	0.308	0.429	
0.4433	28374.28	3.7630	3.7631	1.3431	26.14	0.17	0.750			
0.4475	28637.58	3.7600	3.7600	1.3493	26.13	0.16	0.750			
0.4515	28896.15	3.7570	3.7570	1.3665	26.12	0.15	0.750			
0.4556	29159.59	3.7540	3.7540	1.3899	26.10	0.13	0.750			
0.4597	29418.99	3.7510	3.7507	1.3967	26.09	0.12	0.750			
0.4639	29688.52	3.7480	3.7481	1.4245	26.08	0.11	0.750			
0.4682	29962.02	3.7450	3.7452	1.4785	26.06	0.09	0.750			
0.4727	30254.79	3.7420	3.7417	1.5224	26.05	0.08	0.750			
0.4773	30548.41	3.7390	3.7391	1.5711	26.03	0.06	0.750			
0.4821	30854.13	3.7360	3.7363	1.6239	26.02	0.05	0.750			
0.4871	31173.52	3.7330	3.7331	1.6786	26.00	0.03	0.750			
0.4923	31505.06	3.7300	3.7297	1.7075	25.99	0.02	0.750			
0.4974	31835.61	3.7270	3.7269	1.7421	25.97	0.00	0.750			
0.5027	32170.53	3.7240	3.7242	1.7920	25.95	-0.02	0.750			
0.5081	32518.10	3.7210	3.7211	1.8361	25.94	-0.03	0.750			
0.5136	32869.12	3.7180	3.7180	1.8870	25.92	-0.05	0.750			
0.5193	33232.83	3.7150	3.7151	1.9454	25.90	-0.07	0.750			
0.5253	33621.50	3.7120	3.7119	2.0080	25.88	-0.09	0.750			
0.5315	34015.38	3.7090	3.7090	2.0853	25.87	-0.10	0.750			
0.5378	34418.04	3.7060	3.7058	2.1392	25.85	-0.12	0.750			
0.5443	34835.11	3.7030	3.7029	2.1992	25.83	-0.14	0.750			
0.5510	35265.11	3.7000	3.7000	2.2593	25.81	-0.16	0.750			
0.5578	35702.16	3.6970	3.6969	2.3305	25.80	-0.17	0.750			
0.5650	36157.96	3.6940	3.6940	2.4201	25.78	-0.19	0.750			
0.5722	36622.93	3.6910	3.6908	2.4876	25.77	-0.20	0.750			
0.5799	37111.05	3.6880	3.6880	2.5647	25.76	-0.21	0.750			
0.5877	37611.79	3.6850	3.6852	2.6503	25.74	-0.23	0.750			
0.5958	38129.07	3.6820	3.6821	2.7228	25.72	-0.25	0.750			
0.6040	38652.82	3.6790	3.6789	2.8199	25.71	-0.26	0.750			
0.6125	39202.04	3.6760	3.6758	2.9192	25.70	-0.27	0.750			
0.6216	39784.21	3.6730	3.6728	2.9628	25.69	-0.28	0.750			
0.6309	40380.58	3.6700	3.6698	2.9052	25.68	-0.29	0.750			
0.6395	40926.19	3.6670	3.6670	2.6683	25.68	-0.29	0.750			
0.6470	41411.09	3.6640	3.6640	2.4021	25.68	-0.29	0.750			
0.6538	41842.98	3.6610	3.6608	2.1554	25.69	-0.28	0.750			
0.6597	42220.38	3.6580	3.6577	1.9316	25.70	-0.27	0.750			
0.6649	42555.64	3.6550	3.6552	1.7636	25.70	-0.27	0.750			
0.6698	42870.25	3.6520	3.6518	1.6138	25.70	-0.27	0.750			
0.6746	43171.97	3.6490	3.6488	1.5102	25.70	-0.27	0.750			
0.6789	43452.17	3.6460	3.6461	1.4144	25.70	-0.27	0.750			
0.6831	43718.50	3.6430	3.6431	1.3395	25.70	-0.27	0.750			
0.6869	43960.26	3.6400	3.6400	1.2701	25.70	-0.27	0.750			
0.6905	44189.25	3.6370	3.6370	1.2105	25.70	-0.27	0.750			
0.6940	44414.94	3.6340	3.6340	1.1948	25.71	-0.26	0.750			
0.6975	44640.76	3.6310	3.6307	1.1823	25.71	-0.26	0.750			
0.7010	44866.20	3.6280	3.6281	1.1888	25.71	-0.26	0.750			
0.7046	45094.35	3.6250	3.6250	1.1963	25.71	-0.26	0.750			
0.7082	45326.73	3.6220	3.6219	1.2046	25.71	-0.26	0.750			
0.7119	45558.86	3.6190	3.6191	1.1852	25.71	-0.26	0.750			
0.7154	45788.57	3.6160	3.6160	1.1816	25.71	-0.26	0.750			
0.7190	46015.62	3.6130	3.6131	1.1672	25.72	-0.25	0.750			
0.7225	46237.64	3.6100	3.6097	1.1556	25.72	-0.25	0.750			
0.7259	46456.02	3.6070	3.6071	1.1301	25.72	-0.25	0.750			
0.7292	46667.34	3.6040	3.6041	1.1290	25.72	-0.25	0.750			
0.7325	46880.38	3.6010	3.6011	1.1368	25.72	-0.25	0.750			
0.7359	47096.17	3.5980	3.5981	1.1530	25.72	-0.25	0.750			
0.7394	47319.02	3.5950	3.5951	1.1873	25.72	-0.25	0.750			
0.7430	47552.17	3.5920	3.5919	1.2172	25.73	-0.24	0.750			
0.7468	47792.83	3.5890	3.5890	1.2369	25.73	-0.24	0.750			
0.7505	48030.54	3.5860	3.5861	1.2781	25.73	-0.24	0.750			
0.7543	48275.45	3.5830	3.5831	1.3227	25.72	-0.25	0.750			
0.7583	48534.30	3.5800	3.5799	1.3536	25.72	-0.25	0.750			
0.7625	48801.05	3.5770	3.5771	1.4000	25.72	-0.25	0.750			
0.7668	49074.87	3.5740	3.5739	1.4501	25.73	-0.24	0.750			
0.7712	49357.71	3.5710	3.5711	1.5023	25.73	-0.24	0.750			
0.7758	49653.30	3.5680	3.5682	1.5429	25.73	-0.24	0.750			
0.7804	49948.66	3.5650	3.5649	1.5833	25.72	-0.25	0.750			
0.7852	50255.37	3.5620	3.5619	1.6141	25.72	-0.25	0.750			
0.7901	50567.37	3.5590	3.5593	1.6437	25.72	-0.25	0.750			
0.7952	50891.42	3.5560	3.5561	1.6568	25.72	-0.25	0.750			
0.8002	51214.80	3.5530	3.5530	1.6576	25.72	-0.25	0.750			
0.8052	51534.52	3.5500	3.5504	1.6846	25.73	-0.24	0.750			
0.8103	51856.21	3.5470	3.5467	1.7060	25.74	-0.23	0.750			
0.8154	52186.16	3.5440	3.5440	1.7379	25.74	-0.23	0.750			
0.8205	52513.53	3.5410	3.5412	1.7534	25.75	-0.22	0.750			
0.8260	52863.70	3.5380	3.5377	1.7741	25.76	-0.21	0.750			
0.8316	53220.46	3.5350	3.5348	1.7167	25.76	-0.21	0.750			
0.8371	53572.48	3.5320	3.5320	1.5261	25.78	-0.19	0.750			
0.8417	53869.40	3.5290	3.5294	1.3196	25.80	-0.17	0.750			
0.8453	54098.04	3.5260	3.5267	1.0601	25.81	-0.16	0.750			
0.8480	54270.07	3.5230	3.5226	0.8070	25.82	-0.15	0.750			
0.8495	54365.64	3.5200	3.5198	0.5880	25.83	-0.14	0.750			
0.8508	54448.09	3.5170	3.5166	0.4557	25.84	-0.13	0.750			
0.8518	54512.61	3.5140	3.5139	0.3883	25.85	-0.12	0.750			
0.8528	54579.11	3.5110	3.5111	0.3499	25.85	-0.12	0.750			
0.8538	54640.80	3.5080	3.5080	0.3272	25.86	-0.11	0.750			
0.8547	54701.83	3.5050	3.5049	0.3122	25.87	-0.10	0.750			
0.8556	54759.07	3.5020	3.5019	0.2990	25.87	-0.10	0.750			
0.8565	54814.62	3.4990	3.4991	0.2897	25.88	-0.09	0.750			
0.8573	54870.20	3.4960	3.4961	0.2835	25.88	-0.09	0.750			
0.8582	54923.17	3.4930	3.4929	0.2759	25.89	-0.08	0.750			
0.8590	54975.22	3.4900	3.4900	0.2685	25.89	-0.08	0.750			
0.8598	55026.54	3.4870	3.4871	0.2638	25.90	-0.07	0.750			
0.8606	55076.73	3.4840	3.4840	0.2593	25.90	-0.07	0.750			
0.8613	55125.94	3.4810	3.4809	0.2528	25.91	-0.06	0.750			
0.8621	55173.58	3.4780	3.4780	0.2465	25.91	-0.06	0.750			
0.8628	55220.67	3.4750	3.4749	0.2418	25.92	-0.05	0.750			
0.8635	55266.35	3.4720	3.4721	0.2362	25.92	-0.05	0.750			
0.8642	55311.42	3.4690	3.4690	0.2315	25.92	-0.05	0.750			
0.8649	55355.33	3.4660	3.4659	0.2259	25.93	-0.04	0.750			
0.8656	55397.79	3.4630	3.4630	0.2209	25.93	-0.04	0.750			
0.8662	55439.67	3.4600	3.4600	0.2157	25.93	-0.04	0.750			
0.8669	55480.91	3.4570	3.4571	0.2116	25.94	-0.03	0.750			
0.8675	55521.03	3.4540	3.4539	0.2064	25.94	-0.03	0.750			
0.8681	55560.10	3.4510	3.4510	0.2009	25.95	-0.02	0.750			
0.8687	55598.15	3.4480	3.4480	0.1960	25.95	-0.02	0.750			
0.8693	55635.38	3.4450	3.4451	0.1909	25.95	-0.02	0.750			
0.8699	55671.52	3.4420	3.4420	0.1856	25.96	-0.01	0.750			
0.8704	55706.57	3.4390	3.4390	0.1801	25.96	-0.01	0.750			
0.8709	55740.73	3.4360	3.4361	0.1750	25.96	-0.01	0.750			
0.8715	55773.76	3.4330	3.4330	0.1696	25.96	-0.01	0.750			
0.8720	55805.73	3.4300	3.4300	0.1650	25.97	-0.00	0.750			
0.8725	55837.01	3.4270	3.4270	0.1599	25.97	-0.00	0.750			
0.8729	55867.42	3.4240	3.4240	0.1540	25.97	0.00	0.750			
0.8734	55896.67	3.4210	3.4210	0.1488	25.97	0.00	0.750			
0.8738	55924.74	3.4180	3.4180	0.1424	25.98	0.01	0.750			
0.8742	55951.72	3.4150	3.4151	0.1364	25.98	0.01	0.750			
0.8746	55977.33	3.4120	3.4120	0.1298	25.98	0.01	0.750			
0.8750	56001.54	3.4090	3.4089	0.1229	25.98	0.01	0.750			
0.8754	56024.27	3.4060	3.4060	0.1157	25.99	0.02	0.750			
0.8757	56047.73	3.4030	3.4027	0.1075	25.99	0.02	0.750			
0.8761	56067.73	3.4000	3.3998	0.0999	25.99	0.02	0.750			
0.8763	56085.89	3.3970	3.3970	0.0892	25.99	0.02	0.750			
0.8766	56102.76	3.3940	3.3942	0.0800	25.99	0.02	0.750			
0.8768	56117.00	3.3910	3.3913	0.0683	25.99	0.02	0.750			
0.8770	56130.40	3.3880	3.3883	0.0570	26.00	0.03	0.750			
0.8772	56140.05	3.3850	3.3857	0.0436	26.00	0.03	0.750			
0.8773	56147.12	3.3820	3.3831	0.0301	26.00	0.03	0.750			
0.8774	56151.62	3.3790	3.3812	0.0167	26.00	0.03	0.750			
