Ah_balance (normalized)	Ah_balance (mAh)	Voltage - fit (V)	Voltage -  interpolate (V)	dQ/dV (1/V)	Temperature (°C)	Temperature - diff (°C)	Current (C)	R_DC 0ms (mOhm)	R_DC 50ms (mOhm)	R_DC 50 ms PEC (mOhm)
0.0004	22.71	4.1600	4.1597	-0.1203	25.97	-0.00	-0.750			
0.0008	50.33	4.1570	4.1570	-0.1637	25.97	-0.00	-0.750			
0.0014	86.59	4.1540	4.1538	-0.2036	25.97	-0.00	-0.750			
0.0020	129.57	4.1510	4.1511	-0.2408	25.96	-0.01	-0.750			
0.0028	179.63	4.1480	4.1481	-0.2765	25.96	-0.01	-0.750			
0.0037	236.85	4.1450	4.1451	-0.3134	25.96	-0.01	-0.750			
0.0047	300.58	4.1420	4.1420	-0.3480	25.96	-0.01	-0.750			
0.0058	370.91	4.1390	4.1390	-0.3777	25.95	-0.02	-0.750			
0.0070	447.44	4.1360	4.1360	-0.4071	25.95	-0.02	-0.750			
0.0083	529.58	4.1330	4.1331	-0.4378	25.94	-0.03	-0.750			
0.0096	616.80	4.1300	4.1300	-0.4614	25.94	-0.03	-0.750			
0.0111	708.74	4.1270	4.1269	-0.4834	25.93	-0.04	-0.750			
0.0126	803.23	4.1240	4.1242	-0.5035	25.93	-0.04	-0.750			
0.0141	901.89	4.1210	4.1210	-0.5240	25.93	-0.04	-0.750			
0.0157	1004.64	4.1180	4.1180	-0.5438	25.92	-0.05	-0.750			
0.0174	1111.10	4.1150	4.1150	-0.5600	25.91	-0.06	-0.750			
0.0191	1221.28	4.1120	4.1120	-0.5759	25.91	-0.06	-0.750			
0.0208	1333.82	4.1090	4.1090	-0.5888	25.90	-0.07	-0.750			
0.0226	1449.47	4.1060	4.1061	-0.6007	25.90	-0.07	-0.750			
0.0245	1565.54	4.1030	4.1029	-0.6062	25.89	-0.08	-0.750			
0.0263	1682.99	4.1000	4.0999	-0.6130	25.89	-0.08	-0.750			
0.0281	1800.84	4.0970	4.0970	-0.6203	25.89	-0.08	-0.750			
0.0300	1920.18	4.0940	4.0940	-0.6287	25.89	-0.08	-0.750			
0.0319	2041.41	4.0910	4.0910	-0.6354	25.88	-0.09	-0.750			
0.0338	2164.60	4.0880	4.0879	-0.6431	25.88	-0.09	-0.750			
0.0358	2288.70	4.0850	4.0850	-0.6515	25.88	-0.09	-0.750			
0.0377	2415.13	4.0820	4.0820	-0.6594	25.88	-0.09	-0.750			
0.0397	2542.06	4.0790	4.0790	-0.6657	25.88	-0.09	-0.750			
0.0417	2670.84	4.0760	4.0760	-0.6690	25.88	-0.09	-0.750			
0.0438	2800.85	4.0730	4.0730	-0.6713	25.88	-0.09	-0.750			
0.0458	2930.67	4.0700	4.0700	-0.6751	25.87	-0.10	-0.750			
0.0478	3059.66	4.0670	4.0670	-0.6777	25.87	-0.10	-0.750			
0.0498	3189.47	4.0640	4.0641	-0.6791	25.87	-0.10	-0.750			
0.0519	3320.38	4.0610	4.0609	-0.6820	25.87	-0.10	-0.750			
0.0539	3451.02	4.0580	4.0580	-0.6852	25.87	-0.10	-0.750			
0.0560	3583.60	4.0550	4.0550	-0.6926	25.87	-0.10	-0.750			
0.0581	3716.68	4.0520	4.0520	-0.6955	25.87	-0.10	-0.750			
0.0602	3852.60	4.0490	4.0489	-0.6916	25.87	-0.10	-0.750			
0.0623	3984.97	4.0460	4.0460	-0.6932	25.87	-0.10	-0.750			
0.0643	4117.81	4.0430	4.0430	-0.6963	25.87	-0.10	-0.750			
0.0664	4251.17	4.0400	4.0399	-0.6976	25.87	-0.10	-0.750			
0.0685	4383.77	4.0370	4.0369	-0.6999	25.87	-0.10	-0.750			
0.0706	4518.02	4.0340	4.0341	-0.7044	25.87	-0.10	-0.750			
0.0727	4655.49	4.0310	4.0310	-0.7099	25.87	-0.10	-0.750			
0.0749	4793.30	4.0280	4.0280	-0.7133	25.87	-0.10	-0.750			
0.0770	4929.10	4.0250	4.0250	-0.7136	25.87	-0.10	-0.750			
0.0792	5066.92	4.0220	4.0220	-0.7167	25.87	-0.10	-0.750			
0.0813	5204.53	4.0190	4.0190	-0.7256	25.87	-0.10	-0.750			
0.0835	5345.50	4.0160	4.0159	-0.7252	25.87	-0.10	-0.750			
0.0857	5486.32	4.0130	4.0130	-0.7242	25.87	-0.10	-0.750			
0.0879	5625.30	4.0100	4.0102	-0.7247	25.87	-0.10	-0.750			
0.0901	5765.35	4.0070	4.0070	-0.7233	25.87	-0.10	-0.750			
0.0922	5902.06	4.0040	4.0039	-0.7272	25.87	-0.10	-0.750			
0.0944	6039.92	4.0010	4.0011	-0.7280	25.87	-0.10	-0.750			
0.0966	6180.92	3.9980	3.9979	-0.7318	25.87	-0.10	-0.750			
0.0988	6322.66	3.9950	3.9948	-0.7335	25.87	-0.10	-0.750			
0.1010	6464.46	3.9920	3.9921	-0.7378	25.87	-0.10	-0.750			
0.1032	6605.32	3.9890	3.9890	-0.7376	25.87	-0.10	-0.750			
0.1054	6747.16	3.9860	3.9859	-0.7407	25.87	-0.10	-0.750			
0.1076	6887.67	3.9830	3.9831	-0.7367	25.88	-0.09	-0.750			
0.1099	7031.50	3.9800	3.9800	-0.7422	25.88	-0.09	-0.750			
0.1121	7175.29	3.9770	3.9770	-0.7473	25.88	-0.09	-0.750			
0.1144	7318.52	3.9740	3.9740	-0.7476	25.88	-0.09	-0.750			
0.1166	7460.20	3.9710	3.9710	-0.7484	25.88	-0.09	-0.750			
0.1188	7604.37	3.9680	3.9680	-0.7541	25.89	-0.08	-0.750			
0.1211	7749.74	3.9650	3.9650	-0.7538	25.89	-0.08	-0.750			
0.1234	7896.46	3.9620	3.9620	-0.7575	25.89	-0.08	-0.750			
0.1256	8041.41	3.9590	3.9591	-0.7579	25.89	-0.08	-0.750			
0.1279	8186.60	3.9560	3.9560	-0.7572	25.89	-0.08	-0.750			
0.1302	8331.85	3.9530	3.9530	-0.7628	25.89	-0.08	-0.750			
0.1325	8477.43	3.9500	3.9500	-0.7627	25.90	-0.07	-0.750			
0.1348	8625.69	3.9470	3.9470	-0.7634	25.90	-0.07	-0.750			
0.1371	8773.43	3.9440	3.9438	-0.7634	25.90	-0.07	-0.750			
0.1394	8920.17	3.9410	3.9410	-0.7654	25.90	-0.07	-0.750			
0.1416	9065.55	3.9380	3.9381	-0.7718	25.90	-0.07	-0.750			
0.1440	9212.89	3.9350	3.9349	-0.7744	25.91	-0.06	-0.750			
0.1463	9361.49	3.9320	3.9320	-0.7783	25.91	-0.06	-0.750			
0.1486	9513.45	3.9290	3.9290	-0.7806	25.91	-0.06	-0.750			
0.1510	9664.22	3.9260	3.9261	-0.7820	25.91	-0.06	-0.750			
0.1534	9814.51	3.9230	3.9231	-0.7875	25.91	-0.06	-0.750			
0.1557	9965.21	3.9200	3.9199	-0.7869	25.91	-0.06	-0.750			
0.1581	10115.39	3.9170	3.9170	-0.7815	25.92	-0.05	-0.750			
0.1604	10266.79	3.9140	3.9141	-0.7871	25.92	-0.05	-0.750			
0.1628	10418.59	3.9110	3.9112	-0.7912	25.92	-0.05	-0.750			
0.1652	10570.77	3.9080	3.9079	-0.7942	25.92	-0.05	-0.750			
0.1675	10722.86	3.9050	3.9049	-0.7945	25.92	-0.05	-0.750			
0.1699	10875.49	3.9020	3.9020	-0.7935	25.93	-0.04	-0.750			
0.1723	11029.51	3.8990	3.8990	-0.7977	25.93	-0.04	-0.750			
0.1747	11183.11	3.8960	3.8962	-0.7975	25.93	-0.04	-0.750			
0.1771	11334.13	3.8930	3.8929	-0.7973	25.93	-0.04	-0.750			
0.1795	11487.07	3.8900	3.8900	-0.8004	25.94	-0.03	-0.750			
0.1819	11641.05	3.8870	3.8870	-0.8000	25.94	-0.03	-0.750			
0.1843	11795.31	3.8840	3.8840	-0.8020	25.94	-0.03	-0.750			
0.1868	11952.06	3.8810	3.8811	-0.8046	25.95	-0.02	-0.750			
0.1892	12105.99	3.8780	3.8780	-0.8014	25.95	-0.02	-0.750			
0.1915	12258.26	3.8750	3.8750	-0.8039	25.96	-0.01	-0.750			
0.1939	12412.30	3.8720	3.8721	-0.8030	25.96	-0.01	-0.750			
0.1963	12566.01	3.8690	3.8689	-0.8036	25.96	-0.01	-0.750			
0.1988	12722.75	3.8660	3.8659	-0.8052	25.97	-0.00	-0.750			
0.2012	12877.10	3.8630	3.8630	-0.8011	25.97	0.00	-0.750			
0.2036	13029.41	3.8600	3.8601	-0.8073	25.98	0.01	-0.750			
0.2060	13184.76	3.8570	3.8570	-0.8071	25.98	0.01	-0.750			
0.2084	13338.33	3.8540	3.8539	-0.8044	25.98	0.01	-0.750			
0.2109	13494.64	3.8510	3.8509	-0.8096	25.99	0.02	-0.750			
0.2133	13651.47	3.8480	3.8481	-0.8075	25.99	0.02	-0.750			
0.2157	13805.90	3.8450	3.8450	-0.8097	25.99	0.02	-0.750			
0.2181	13961.24	3.8420	3.8420	-0.8083	25.99	0.02	-0.750			
0.2205	14115.13	3.8390	3.8391	-0.7999	25.99	0.02	-0.750			
0.2230	14270.49	3.8360	3.8359	-0.8037	25.99	0.02	-0.750			
0.2254	14424.80	3.8330	3.8331	-0.8045	25.99	0.02	-0.750			
0.2278	14578.98	3.8300	3.8301	-0.8028	25.99	0.02	-0.750			
0.2302	14734.20	3.8270	3.8269	-0.8045	26.00	0.03	-0.750			
0.2326	14887.05	3.8240	3.8240	-0.7995	26.00	0.03	-0.750			
0.2350	15041.10	3.8210	3.8210	-0.8001	26.01	0.04	-0.750			
0.2374	15195.33	3.8180	3.8182	-0.7967	26.01	0.04	-0.750			
0.2398	15348.13	3.8150	3.8149	-0.7922	26.01	0.04	-0.750			
0.2422	15499.34	3.8120	3.8120	-0.7945	26.02	0.05	-0.750			
0.2446	15651.54	3.8090	3.8090	-0.7923	26.02	0.05	-0.750			
0.2470	15806.03	3.8060	3.8059	-0.7918	26.03	0.06	-0.750			
0.2493	15956.91	3.8030	3.8032	-0.7835	26.03	0.06	-0.750			
0.2517	16106.92	3.8000	3.7999	-0.7810	26.03	0.06	-0.750			
0.2540	16256.08	3.7970	3.7970	-0.7769	26.03	0.06	-0.750			
0.2563	16403.59	3.7940	3.7939	-0.7726	26.03	0.06	-0.750			
0.2586	16549.07	3.7910	3.7910	-0.7629	26.03	0.06	-0.750			
0.2609	16697.83	3.7880	3.7880	-0.7674	26.03	0.06	-0.750			
0.2632	16845.86	3.7850	3.7850	-0.7633	26.03	0.06	-0.750			
0.2655	16991.64	3.7820	3.7819	-0.7600	26.03	0.06	-0.750			
0.2678	17136.79	3.7790	3.7790	-0.7583	26.03	0.06	-0.750			
0.2700	17281.98	3.7760	3.7760	-0.7559	26.04	0.07	-0.750			
0.2723	17427.78	3.7730	3.7729	-0.7551	26.04	0.07	-0.750			
0.2746	17573.38	3.7700	3.7700	-0.7533	26.04	0.07	-0.750			
0.2768	17716.64	3.7670	3.7670	-0.7489	26.04	0.07	-0.750			
0.2791	17860.74	3.7640	3.7640	-0.7492	26.04	0.07	-0.750			
0.2813	18003.46	3.7610	3.7610	-0.7470	26.05	0.08	-0.750			
0.2835	18146.55	3.7580	3.7580	-0.7477	26.05	0.08	-0.750			
0.2858	18290.24	3.7550	3.7550	-0.7498	26.05	0.08	-0.750			
0.2880	18434.25	3.7520	3.7520	-0.7505	26.05	0.08	-0.750			
0.2903	18578.85	3.7490	3.7490	-0.7537	26.05	0.08	-0.750			
0.2925	18722.68	3.7460	3.7460	-0.7630	26.06	0.09	-0.750			
0.2948	18868.85	3.7430	3.7429	-0.7687	26.06	0.09	-0.750			
0.2971	19016.88	3.7400	3.7400	-0.7818	26.07	0.10	-0.750			
0.2995	19168.59	3.7370	3.7371	-0.7903	26.07	0.10	-0.750			
0.3019	19322.25	3.7340	3.7340	-0.7982	26.07	0.10	-0.750			
0.3043	19476.22	3.7310	3.7310	-0.8138	26.07	0.10	-0.750			
0.3068	19633.14	3.7280	3.7281	-0.8216	26.07	0.10	-0.750			
0.3092	19791.35	3.7250	3.7248	-0.8300	26.07	0.10	-0.750			
0.3118	19952.68	3.7220	3.7220	-0.8425	26.07	0.10	-0.750			
0.3143	20114.39	3.7190	3.7190	-0.8558	26.07	0.10	-0.750			
0.3169	20281.54	3.7160	3.7160	-0.8734	26.07	0.10	-0.750			
0.3196	20451.62	3.7130	3.7129	-0.8810	26.08	0.11	-0.750			
0.3222	20620.14	3.7100	3.7100	-0.8841	26.08	0.11	-0.750			
0.3249	20793.29	3.7070	3.7071	-0.9014	26.08	0.11	-0.750			
0.3276	20966.02	3.7040	3.7041	-0.9123	26.08	0.11	-0.750			
0.3303	21139.75	3.7010	3.7008	-0.9227	26.08	0.11	-0.750			
0.3331	21315.82	3.6980	3.6980	-0.9420	26.07	0.10	-0.750			
0.3359	21498.28	3.6950	3.6950	-0.9687	26.07	0.10	-0.750			
0.3389	21686.51	3.6920	3.6919	-0.9973	26.07	0.10	-0.750			
0.3419	21883.52	3.6890	3.6890	-1.0203	26.06	0.09	-0.750			
0.3450	22081.48	3.6860	3.6861	-1.0394	26.06	0.09	-0.750			
0.3482	22284.15	3.6830	3.6830	-1.0557	26.05	0.08	-0.750			
0.3514	22488.29	3.6800	3.6800	-1.0865	26.05	0.08	-0.750			
0.3546	22697.36	3.6770	3.6770	-1.1015	26.05	0.08	-0.750			
0.3580	22911.57	3.6740	3.6738	-1.1210	26.05	0.08	-0.750			
0.3614	23130.30	3.6710	3.6711	-1.1403	26.05	0.08	-0.750			
0.3649	23352.45	3.6680	3.6680	-1.1659	26.05	0.08	-0.750			
0.3684	23577.35	3.6650	3.6650	-1.1883	26.04	0.07	-0.750			
0.3720	23806.30	3.6620	3.6619	-1.2128	26.03	0.06	-0.750			
0.3756	24038.61	3.6590	3.6591	-1.2310	26.03	0.06	-0.750			
0.3794	24282.84	3.6560	3.6560	-1.2645	26.02	0.05	-0.750			
0.3833	24528.79	3.6530	3.6530	-1.2821	26.02	0.05	-0.750			
0.3871	24777.11	3.6500	3.6502	-1.3150	26.01	0.04	-0.750			
0.3911	25032.02	3.6470	3.6469	-1.3388	26.00	0.03	-0.750			
0.3951	25288.44	3.6440	3.6440	-1.3665	26.00	0.03	-0.750			
0.3993	25553.74	3.6410	3.6412	-1.3903	25.99	0.02	-0.750			
0.4035	25824.33	3.6380	3.6380	-1.4242	25.98	0.01	-0.750			
0.4079	26105.45	3.6350	3.6348	-1.4494	25.98	0.01	-0.750			
0.4123	26386.04	3.6320	3.6322	-1.4795	25.97	0.00	-0.750			
0.4167	26670.65	3.6290	3.6291	-1.5016	25.96	-0.01	-0.750			
0.4213	26962.47	3.6260	3.6259	-1.5566	25.96	-0.01	-0.750			
0.4260	27262.88	3.6230	3.6231	-1.5768	25.95	-0.02	-0.750			
0.4309	27577.09	3.6200	3.6199	-1.6097	25.94	-0.03	-0.750			
0.4357	27886.67	3.6170	3.6171	-1.6217	25.93	-0.04	-0.750	0.400	0.542	
0.4407	28203.59	3.6140	3.6139	-1.6556	25.93	-0.04	-0.750			
0.4457	28523.81	3.6110	3.6108	-1.6893	25.93	-0.04	-0.750			
0.4507	28847.84	3.6080	3.6079	-1.7150	25.93	-0.04	-0.750			
0.4559	29180.32	3.6050	3.6052	-1.7654	25.92	-0.05	-0.750			
0.4613	29523.42	3.6020	3.6023	-1.7855	25.91	-0.06	-0.750			
0.4667	29871.93	3.5990	3.5988	-1.8188	25.91	-0.06	-0.750			
0.4721	30217.56	3.5960	3.5962	-1.8603	25.90	-0.07	-0.750			
0.4778	30576.64	3.5930	3.5928	-1.8940	25.90	-0.07	-0.750			
0.4836	30949.49	3.5900	3.5903	-1.9160	25.89	-0.08	-0.750			
0.4894	31321.78	3.5870	3.5870	-1.9436	25.89	-0.08	-0.750			
0.4953	31697.61	3.5840	3.5839	-2.0027	25.89	-0.08	-0.750			
0.5013	32085.18	3.5810	3.5808	-2.0191	25.89	-0.08	-0.750			
0.5075	32481.23	3.5780	3.5780	-2.0663	25.89	-0.08	-0.750			
0.5136	32871.23	3.5750	3.5752	-2.0973	25.89	-0.08	-0.750			
0.5201	33283.75	3.5720	3.5718	-2.1322	25.89	-0.08	-0.750			
0.5266	33702.44	3.5690	3.5692	-2.1817	25.89	-0.08	-0.750			
0.5331	34121.40	3.5660	3.5660	-2.1755	25.89	-0.08	-0.750			
0.5398	34548.11	3.5630	3.5631	-2.1900	25.89	-0.08	-0.750			
0.5464	34970.93	3.5600	3.5600	-2.1915	25.89	-0.08	-0.750			
0.5530	35391.98	3.5570	3.5567	-2.1794	25.89	-0.08	-0.750			
0.5596	35814.35	3.5540	3.5541	-2.1701	25.89	-0.08	-0.750			
0.5661	36231.99	3.5510	3.5510	-2.1748	25.89	-0.08	-0.750			
0.5726	36649.44	3.5480	3.5479	-2.1540	25.89	-0.08	-0.750			
0.5791	37061.50	3.5450	3.5451	-2.1445	25.89	-0.08	-0.750			
0.5856	37476.55	3.5420	3.5421	-2.1460	25.90	-0.07	-0.750			
0.5919	37883.30	3.5390	3.5391	-2.1280	25.90	-0.07	-0.750			
0.5983	38292.37	3.5360	3.5359	-2.1048	25.91	-0.06	-0.750			
0.6047	38701.47	3.5330	3.5331	-2.0857	25.92	-0.05	-0.750			
0.6109	39096.60	3.5300	3.5300	-2.0413	25.93	-0.04	-0.750			
0.6170	39485.58	3.5270	3.5270	-2.0174	25.93	-0.04	-0.750			
0.6230	39869.84	3.5240	3.5240	-1.9701	25.93	-0.04	-0.750			
0.6288	40242.97	3.5210	3.5210	-1.9272	25.94	-0.03	-0.750			
0.6346	40611.82	3.5180	3.5182	-1.8814	25.96	-0.01	-0.750			
0.6402	40970.11	3.5150	3.5147	-1.8384	25.97	0.00	-0.750			
0.6456	41319.67	3.5120	3.5119	-1.7894	25.98	0.01	-0.750			
0.6509	41654.56	3.5090	3.5092	-1.7427	25.99	0.02	-0.750			
0.6560	41985.44	3.5060	3.5056	-1.6865	26.00	0.03	-0.750			
0.6610	42304.82	3.5030	3.5029	-1.6269	26.01	0.04	-0.750			
0.6659	42616.90	3.5000	3.4999	-1.5798	26.02	0.05	-0.750			
0.6706	42915.53	3.4970	3.4968	-1.5259	26.04	0.07	-0.750			
0.6749	43194.94	3.4940	3.4941	-1.4633	26.06	0.09	-0.750			
0.6793	43473.59	3.4910	3.4910	-1.4229	26.08	0.11	-0.750			
0.6835	43742.08	3.4880	3.4879	-1.3815	26.09	0.12	-0.750			
0.6876	44007.01	3.4850	3.4853	-1.3526	26.11	0.14	-0.750			
0.6916	44262.70	3.4820	3.4819	-1.3170	26.13	0.16	-0.750			
0.6955	44512.97	3.4790	3.4790	-1.2711	26.14	0.17	-0.750			
0.6993	44753.16	3.4760	3.4761	-1.2233	26.16	0.19	-0.750			
0.7029	44985.85	3.4730	3.4730	-1.1906	26.17	0.20	-0.750			
0.7064	45208.27	3.4700	3.4700	-1.1471	26.19	0.22	-0.750			
0.7097	45422.06	3.4670	3.4669	-1.1039	26.20	0.23	-0.750			
0.7130	45629.13	3.4640	3.4641	-1.0695	26.21	0.24	-0.750			
0.7161	45833.05	3.4610	3.4610	-1.0322	26.23	0.26	-0.750			
0.7192	46027.69	3.4580	3.4580	-1.0020	26.24	0.27	-0.750			
0.7221	46215.56	3.4550	3.4551	-0.9698	26.26	0.29	-0.750			
0.7250	46398.06	3.4520	3.4522	-0.9429	26.27	0.30	-0.750			
0.7277	46574.34	3.4490	3.4489	-0.9219	26.28	0.31	-0.750			
0.7304	46747.43	3.4460	3.4461	-0.9033	26.29	0.32	-0.750			
0.7331	46919.06	3.4430	3.4430	-0.8901	26.30	0.33	-0.750			
0.7358	47090.80	3.4400	3.4398	-0.8853	26.30	0.33	-0.750			
0.7384	47257.93	3.4370	3.4372	-0.8721	26.31	0.34	-0.750			
0.7410	47423.17	3.4340	3.4339	-0.8695	26.33	0.36	-0.750			
0.7436	47588.10	3.4310	3.4311	-0.8741	26.34	0.37	-0.750			
0.7461	47752.22	3.4280	3.4280	-0.8797	26.35	0.38	-0.750			
0.7488	47924.14	3.4250	3.4250	-0.8906	26.36	0.39	-0.750			
0.7515	48096.45	3.4220	3.4220	-0.9072	26.37	0.40	-0.750			
0.7543	48272.18	3.4190	3.4191	-0.9294	26.38	0.41	-0.750			
0.7571	48455.75	3.4160	3.4159	-0.9388	26.39	0.42	-0.750			
0.7600	48638.11	3.4130	3.4128	-0.9421	26.40	0.43	-0.750			
0.7628	48820.39	3.4100	3.4103	-0.9409	26.41	0.44	-0.750			
0.7657	49003.19	3.4070	3.4069	-0.9388	26.42	0.45	-0.750			
0.7685	49184.90	3.4040	3.4039	-0.9288	26.43	0.46	-0.750			
0.7713	49361.62	3.4010	3.4009	-0.9048	26.45	0.48	-0.750			
0.7740	49536.25	3.3980	3.3981	-0.8889	26.46	0.49	-0.750			
0.7767	49705.65	3.3950	3.3949	-0.8638	26.47	0.50	-0.750			
0.7792	49868.21	3.3920	3.3920	-0.8385	26.47	0.50	-0.750			
0.7817	50025.99	3.3890	3.3890	-0.8063	26.48	0.51	-0.750			
0.7840	50176.20	3.3860	3.3860	-0.7779	26.49	0.52	-0.750			
0.7863	50324.87	3.3830	3.3830	-0.7569	26.50	0.53	-0.750			
0.7886	50468.20	3.3800	3.3799	-0.7323	26.50	0.53	-0.750			
0.7907	50606.44	3.3770	3.3769	-0.7071	26.51	0.54	-0.750			
0.7928	50738.91	3.3740	3.3741	-0.6843	26.52	0.55	-0.750			
0.7948	50868.42	3.3710	3.3710	-0.6601	26.52	0.55	-0.750			
0.7968	50995.47	3.3680	3.3680	-0.6362	26.53	0.56	-0.750			
0.7987	51113.73	3.3650	3.3649	-0.6104	26.54	0.57	-0.750			
0.8004	51228.10	3.3620	3.3622	-0.5856	26.54	0.57	-0.750			
0.8022	51337.94	3.3590	3.3589	-0.5657	26.55	0.58	-0.750			
0.8038	51443.59	3.3560	3.3559	-0.5463	26.56	0.59	-0.750			
0.8054	51545.09	3.3530	3.3530	-0.5260	26.56	0.59	-0.750			
0.8069	51644.78	3.3500	3.3500	-0.5114	26.57	0.60	-0.750			
0.8085	51743.79	3.3470	3.3470	-0.4970	26.57	0.60	-0.750			
0.8099	51836.61	3.3440	3.3440	-0.4770	26.58	0.61	-0.750			
0.8114	51926.99	3.3410	3.3408	-0.4595	26.59	0.62	-0.750			
0.8127	52012.29	3.3380	3.3383	-0.4435	26.59	0.62	-0.750			
0.8140	52096.26	3.3350	3.3351	-0.4285	26.60	0.63	-0.750			
0.8153	52176.88	3.3320	3.3319	-0.4152	26.60	0.63	-0.750			
0.8165	52255.32	3.3290	3.3290	-0.4016	26.61	0.64	-0.750			
0.8177	52330.78	3.3260	3.3260	-0.3904	26.61	0.64	-0.750			
0.8188	52404.03	3.3230	3.3231	-0.3791	26.62	0.65	-0.750			
0.8199	52476.07	3.3200	3.3199	-0.3676	26.62	0.65	-0.750			
0.8210	52544.97	3.3170	3.3169	-0.3573	26.62	0.65	-0.750			
0.8221	52612.87	3.3140	3.3140	-0.3476	26.63	0.66	-0.750			
0.8231	52678.09	3.3110	3.3110	-0.3387	26.63	0.66	-0.750			
0.8241	52742.73	3.3080	3.3079	-0.3303	26.64	0.67	-0.750			
0.8251	52804.98	3.3050	3.3051	-0.3217	26.64	0.67	-0.750			
0.8260	52865.82	3.3020	3.3020	-0.3122	26.65	0.68	-0.750			
0.8270	52925.23	3.2990	3.2991	-0.3047	26.65	0.68	-0.750			
0.8279	52982.79	3.2960	3.2959	-0.2953	26.66	0.69	-0.750			
0.8287	53038.34	3.2930	3.2931	-0.2896	26.66	0.69	-0.750			
0.8296	53093.04	3.2900	3.2898	-0.2817	26.67	0.70	-0.750			
0.8304	53145.92	3.2870	3.2870	-0.2771	26.67	0.70	-0.750			
0.8312	53198.71	3.2840	3.2841	-0.2725	26.68	0.71	-0.750			
0.8320	53250.32	3.2810	3.2810	-0.2680	26.69	0.72	-0.750			
0.8328	53302.12	3.2780	3.2777	-0.2623	26.69	0.72	-0.750			
0.8336	53352.02	3.2750	3.2752	-0.2575	26.70	0.73	-0.750			
0.8344	53400.33	3.2720	3.2721	-0.2515	26.70	0.73	-0.750			
0.8351	53448.07	3.2690	3.2690	-0.2477	26.71	0.74	-0.750			
0.8359	53495.68	3.2660	3.2659	-0.2437	26.71	0.74	-0.750			
0.8366	53541.18	3.2630	3.2630	-0.2377	26.71	0.74	-0.750			
0.8373	53586.75	3.2600	3.2600	-0.2347	26.72	0.75	-0.750			
0.8380	53631.71	3.2570	3.2571	-0.2320	26.72	0.75	-0.750			
0.8387	53675.37	3.2540	3.2539	-0.2272	26.73	0.76	-0.750			
0.8394	53718.68	3.2510	3.2510	-0.2240	26.73	0.76	-0.750			
0.8400	53761.43	3.2480	3.2480	-0.2198	26.74	0.77	-0.750			
0.8407	53803.30	3.2450	3.2450	-0.2159	26.74	0.77	-0.750			
0.8413	53844.51	3.2420	3.2420	-0.2132	26.74	0.77	-0.750			
0.8420	53885.06	3.2390	3.2391	-0.2092	26.75	0.78	-0.750			
0.8426	53924.43	3.2360	3.2360	-0.2064	26.75	0.78	-0.750			
0.8432	53963.54	3.2330	3.2329	-0.2033	26.76	0.79	-0.750			
0.8438	54002.20	3.2300	3.2300	-0.2007	26.76	0.79	-0.750			
0.8444	54040.56	3.2270	3.2270	-0.1990	26.76	0.79	-0.750			
0.8450	54078.91	3.2240	3.2240	-0.1968	26.77	0.80	-0.750			
0.8456	54116.57	3.2210	3.2209	-0.1945	26.77	0.80	-0.750			
0.8462	54153.65	3.2180	3.2180	-0.1917	26.78	0.81	-0.750			
0.8467	54190.24	3.2150	3.2151	-0.1884	26.78	0.81	-0.750			
0.8473	54225.85	3.2120	3.2120	-0.1862	26.78	0.81	-0.750			
0.8478	54261.18	3.2090	3.2090	-0.1846	26.79	0.82	-0.750			
0.8484	54296.62	3.2060	3.2060	-0.1825	26.79	0.82	-0.750			
0.8489	54331.29	3.2030	3.2030	-0.1804	26.79	0.82	-0.750			
0.8495	54365.96	3.2000	3.2000	-0.1781	26.80	0.83	-0.750			
0.8500	54400.12	3.1970	3.1972	-0.1758	26.80	0.83	-0.750			
0.8505	54433.39	3.1940	3.1940	-0.1738	26.81	0.84	-0.750			
0.8510	54466.73	3.1910	3.1909	-0.1716	26.81	0.84	-0.750			
0.8515	54498.99	3.1880	3.1880	-0.1693	26.82	0.85	-0.750			
0.8521	54531.28	3.1850	3.1849	-0.1669	26.83	0.86	-0.750			
0.8526	54563.26	3.1820	3.1821	-0.1659	26.83	0.86	-0.750			
0.8530	54594.96	3.1790	3.1791	-0.1643	26.84	0.87	-0.750			
0.8535	54626.32	3.1760	3.1760	-0.1633	26.84	0.87	-0.750			
0.8540	54657.66	3.1730	3.1729	-0.1615	26.85	0.88	-0.750			
0.8545	54688.36	3.1700	3.1701	-0.1594	26.85	0.88	-0.750			
0.8550	54718.84	3.1670	3.1669	-0.1581	26.86	0.89	-0.750			
0.8555	54749.03	3.1640	3.1641	-0.1575	26.87	0.90	-0.750			
0.8559	54779.44	3.1610	3.1610	-0.1561	26.87	0.90	-0.750			
0.8564	54809.09	3.1580	3.1580	-0.1542	26.88	0.91	-0.750			
0.8569	54838.58	3.1550	3.1549	-0.1526	26.88	0.91	-0.750			
0.8573	54867.77	3.1520	3.1521	-0.1506	26.89	0.92	-0.750			
0.8578	54896.56	3.1490	3.1490	-0.1500	26.89	0.92	-0.750			
0.8582	54925.00	3.1460	3.1461	-0.1484	26.90	0.93	-0.750			
0.8586	54953.39	3.1430	3.1428	-0.1474	26.90	0.93	-0.750			
0.8591	54981.27	3.1400	3.1399	-0.1461	26.91	0.94	-0.750			
0.8595	55009.69	3.1370	3.1371	-0.1452	26.91	0.94	-0.750			
0.8600	55037.48	3.1340	3.1340	-0.1440	26.92	0.95	-0.750			
0.8604	55064.97	3.1310	3.1310	-0.1424	26.93	0.96	-0.750			
0.8608	55092.27	3.1280	3.1281	-0.1414	26.93	0.96	-0.750			
0.8612	55118.99	3.1250	3.1249	-0.1397	26.94	0.97	-0.750			
0.8617	55145.61	3.1220	3.1220	-0.1385	26.94	0.97	-0.750			
0.8621	55172.14	3.1190	3.1190	-0.1377	26.95	0.98	-0.750			
0.8625	55198.56	3.1160	3.1161	-0.1364	26.95	0.98	-0.750			
0.8629	55224.69	3.1130	3.1131	-0.1358	26.96	0.99	-0.750			
0.8633	55250.59	3.1100	3.1099	-0.1345	26.96	0.99	-0.750			
0.8637	55276.33	3.1070	3.1070	-0.1335	26.97	1.00	-0.750			
0.8641	55301.80	3.1040	3.1040	-0.1324	26.97	1.00	-0.750			
0.8645	55327.27	3.1010	3.1010	-0.1310	26.98	1.01	-0.750			
0.8649	55352.08	3.0980	3.0980	-0.1304	26.99	1.02	-0.750			
0.8653	55376.96	3.0950	3.0950	-0.1296	26.99	1.02	-0.750			
0.8657	55401.90	3.0920	3.0919	-0.1288	27.00	1.03	-0.750			
0.8660	55426.52	3.0890	3.0889	-0.1279	27.00	1.03	-0.750			
0.8664	55450.82	3.0860	3.0860	-0.1269	27.01	1.04	-0.750			
0.8668	55475.19	3.0830	3.0831	-0.1264	27.01	1.04	-0.750			
0.8672	55499.40	3.0800	3.0800	-0.1257	27.02	1.05	-0.750			
0.8676	55523.64	3.0770	3.0769	-0.1251	27.02	1.05	-0.750			
0.8679	55547.27	3.0740	3.0740	-0.1237	27.03	1.06	-0.750			
0.8683	55571.05	3.0710	3.0711	-0.1227	27.03	1.06	-0.750			
0.8687	55594.69	3.0680	3.0680	-0.1221	27.04	1.07	-0.750			
0.8690	55618.03	3.0650	3.0649	-0.1211	27.05	1.08	-0.750			
0.8694	55641.11	3.0620	3.0621	-0.1202	27.05	1.08	-0.750			
0.8698	55664.01	3.0590	3.0590	-0.1191	27.06	1.09	-0.750			
0.8701	55686.72	3.0560	3.0560	-0.1185	27.06	1.09	-0.750			
0.8705	55709.32	3.0530	3.0530	-0.1178	27.07	1.10	-0.750			
0.8708	55732.00	3.0500	3.0500	-0.1172	27.07	1.10	-0.750			
0.8712	55754.48	3.0470	3.0470	-0.1166	27.08	1.11	-0.750			
0.8715	55776.84	3.0440	3.0440	-0.1159	27.08	1.11	-0.750			
0.8719	55799.07	3.0410	3.0410	-0.1152	27.09	1.12	-0.750			
0.8722	55821.09	3.0380	3.0381	-0.1144	27.09	1.12	-0.750			
0.8725	55843.03	3.0350	3.0350	-0.1137	27.10	1.13	-0.750			
0.8729	55864.80	3.0320	3.0320	-0.1128	27.10	1.13	-0.750			
0.8732	55886.32	3.0290	3.0290	-0.1118	27.11	1.14	-0.750			
0.8736	55907.70	3.0260	3.0259	-0.1110	27.11	1.14	-0.750			
0.8739	55929.00	3.0230	3.0230	-0.1103	27.11	1.14	-0.750			
0.8742	55950.21	3.0200	3.0200	-0.1091	27.12	1.15	-0.750			
0.8745	55971.12	3.0170	3.0169	-0.1080	27.12	1.15	-0.750			
0.8749	55991.61	3.0140	3.0141	-0.1075	27.13	1.16	-0.750			
0.8752	56012.05	3.0110	3.0110	-0.1066	27.13	1.16	-0.751			
0.8755	56032.46	3.0080	3.0080	-0.1060	27.14	1.17	-0.751			
0.8758	56052.63	3.0050	3.0049	-0.1060	27.14	1.17	-0.751			
0.8761	56072.98	3.0020	3.0020	-0.1060	27.15	1.18	-0.751			
