Ah_balance (normalized)	Ah_balance (mAh)	Voltage - fit (V)	Voltage -  interpolate (V)	dQ/dV (1/V)	Temperature (°C)	Temperature - diff (°C)	Current (C)	R_DC 0ms (mOhm)	R_DC 50ms (mOhm)	R_DC 50 ms PEC (mOhm)
0.0002	10.44	4.1650	4.1649	-0.1108	25.97	0.01	-0.750			
0.0006	36.10	4.1620	4.1618	-0.1541	25.97	0.01	-0.750			
0.0011	68.98	4.1590	4.1590	-0.1949	25.97	0.01	-0.750			
0.0017	110.65	4.1560	4.1561	-0.2373	25.97	0.01	-0.750			
0.0025	160.38	4.1530	4.1530	-0.2790	25.97	0.01	-0.750			
0.0034	218.89	4.1500	4.1500	-0.3164	25.96	0.00	-0.750			
0.0044	283.22	4.1470	4.1471	-0.3534	25.96	0.00	-0.750			
0.0056	355.34	4.1440	4.1441	-0.3882	25.96	-0.00	-0.750			
0.0068	434.20	4.1410	4.1410	-0.4226	25.96	-0.00	-0.750			
0.0081	518.60	4.1380	4.1380	-0.4522	25.95	-0.01	-0.750			
0.0095	608.93	4.1350	4.1350	-0.4807	25.95	-0.01	-0.750			
0.0110	704.00	4.1320	4.1320	-0.5084	25.95	-0.01	-0.750			
0.0126	805.33	4.1290	4.1290	-0.5326	25.94	-0.02	-0.750			
0.0142	910.45	4.1260	4.1260	-0.5528	25.94	-0.02	-0.750			
0.0159	1019.33	4.1230	4.1230	-0.5711	25.93	-0.03	-0.750			
0.0177	1131.67	4.1200	4.1202	-0.5858	25.93	-0.03	-0.750			
0.0195	1245.80	4.1170	4.1170	-0.5999	25.93	-0.03	-0.750			
0.0213	1362.48	4.1140	4.1140	-0.6124	25.92	-0.04	-0.750			
0.0231	1480.53	4.1110	4.1109	-0.6229	25.92	-0.04	-0.750			
0.0250	1601.65	4.1080	4.1080	-0.6334	25.92	-0.04	-0.750			
0.0269	1724.59	4.1050	4.1050	-0.6410	25.92	-0.04	-0.750			
0.0289	1848.58	4.1020	4.1019	-0.6518	25.91	-0.05	-0.750			
0.0309	1975.29	4.0990	4.0991	-0.6575	25.91	-0.05	-0.750			
0.0328	2101.86	4.0960	4.0960	-0.6600	25.91	-0.05	-0.750			
0.0348	2228.57	4.0930	4.0930	-0.6684	25.90	-0.06	-0.750			
0.0368	2356.79	4.0900	4.0902	-0.6742	25.90	-0.06	-0.750			
0.0389	2487.59	4.0870	4.0869	-0.6822	25.90	-0.06	-0.750			
0.0409	2619.18	4.0840	4.0840	-0.6888	25.89	-0.07	-0.750			
0.0430	2752.87	4.0810	4.0811	-0.6900	25.89	-0.07	-0.750			
0.0451	2886.09	4.0780	4.0780	-0.6935	25.89	-0.07	-0.750			
0.0472	3019.41	4.0750	4.0751	-0.7012	25.89	-0.07	-0.750			
0.0493	3153.46	4.0720	4.0720	-0.7041	25.89	-0.07	-0.750			
0.0514	3289.06	4.0690	4.0689	-0.7060	25.89	-0.07	-0.750			
0.0535	3425.43	4.0660	4.0658	-0.7091	25.89	-0.07	-0.750			
0.0557	3562.00	4.0630	4.0632	-0.7138	25.89	-0.07	-0.750			
0.0578	3699.97	4.0600	4.0600	-0.7183	25.89	-0.07	-0.750			
0.0600	3837.48	4.0570	4.0569	-0.7240	25.89	-0.07	-0.750			
0.0621	3977.56	4.0540	4.0540	-0.7244	25.89	-0.07	-0.750			
0.0643	4117.36	4.0510	4.0509	-0.7262	25.89	-0.07	-0.750			
0.0665	4257.65	4.0480	4.0481	-0.7260	25.89	-0.07	-0.750			
0.0687	4396.86	4.0450	4.0450	-0.7272	25.89	-0.07	-0.750			
0.0709	4535.99	4.0420	4.0420	-0.7259	25.89	-0.07	-0.750			
0.0730	4673.80	4.0390	4.0390	-0.7278	25.89	-0.07	-0.750			
0.0752	4813.23	4.0360	4.0360	-0.7306	25.89	-0.07	-0.750			
0.0774	4955.51	4.0330	4.0331	-0.7358	25.89	-0.07	-0.750			
0.0797	5097.89	4.0300	4.0299	-0.7386	25.89	-0.07	-0.750			
0.0819	5239.66	4.0270	4.0271	-0.7398	25.89	-0.07	-0.750			
0.0841	5380.94	4.0240	4.0240	-0.7403	25.90	-0.06	-0.750			
0.0863	5524.11	4.0210	4.0209	-0.7456	25.90	-0.06	-0.750			
0.0886	5667.49	4.0180	4.0180	-0.7452	25.90	-0.06	-0.750			
0.0908	5811.80	4.0150	4.0149	-0.7464	25.91	-0.05	-0.750			
0.0930	5954.32	4.0120	4.0122	-0.7496	25.91	-0.05	-0.750			
0.0953	6098.78	4.0090	4.0090	-0.7511	25.91	-0.05	-0.750			
0.0975	6242.57	4.0060	4.0060	-0.7511	25.92	-0.04	-0.750			
0.0998	6386.50	4.0030	4.0030	-0.7499	25.92	-0.04	-0.750			
0.1021	6531.72	4.0000	4.0001	-0.7551	25.92	-0.04	-0.750			
0.1043	6676.60	3.9970	3.9969	-0.7543	25.93	-0.03	-0.750			
0.1066	6820.98	3.9940	3.9940	-0.7597	25.93	-0.03	-0.750			
0.1088	6966.17	3.9910	3.9910	-0.7574	25.93	-0.03	-0.750			
0.1111	7111.65	3.9880	3.9879	-0.7621	25.93	-0.03	-0.750			
0.1134	7258.20	3.9850	3.9851	-0.7575	25.93	-0.03	-0.750			
0.1157	7404.30	3.9820	3.9819	-0.7633	25.93	-0.03	-0.750			
0.1180	7550.61	3.9790	3.9792	-0.7638	25.93	-0.03	-0.750			
0.1203	7697.36	3.9760	3.9759	-0.7677	25.93	-0.03	-0.750			
0.1226	7843.91	3.9730	3.9730	-0.7686	25.94	-0.02	-0.750			
0.1249	7993.68	3.9700	3.9699	-0.7757	25.94	-0.02	-0.750			
0.1272	8142.51	3.9670	3.9670	-0.7783	25.95	-0.01	-0.750			
0.1296	8293.47	3.9640	3.9640	-0.7839	25.95	-0.01	-0.750			
0.1319	8442.60	3.9610	3.9610	-0.7840	25.95	-0.01	-0.750			
0.1343	8593.55	3.9580	3.9580	-0.7922	25.95	-0.01	-0.750			
0.1367	8746.62	3.9550	3.9549	-0.7879	25.96	-0.00	-0.750			
0.1390	8898.32	3.9520	3.9520	-0.7877	25.96	-0.00	-0.750			
0.1414	9049.79	3.9490	3.9490	-0.7885	25.96	-0.00	-0.750			
0.1438	9200.09	3.9460	3.9460	-0.7901	25.96	0.00	-0.750			
0.1461	9350.18	3.9430	3.9430	-0.7941	25.96	0.00	-0.750			
0.1485	9503.48	3.9400	3.9399	-0.7977	25.96	0.00	-0.750			
0.1509	9657.06	3.9370	3.9370	-0.7995	25.97	0.01	-0.750			
0.1534	9814.43	3.9340	3.9340	-0.8015	25.97	0.01	-0.750			
0.1557	9967.81	3.9310	3.9311	-0.8036	25.97	0.01	-0.750			
0.1581	10121.34	3.9280	3.9279	-0.8047	25.97	0.01	-0.750			
0.1605	10274.65	3.9250	3.9250	-0.8057	25.98	0.02	-0.750			
0.1630	10429.99	3.9220	3.9220	-0.8096	25.98	0.02	-0.750			
0.1654	10587.12	3.9190	3.9190	-0.8167	25.99	0.03	-0.750			
0.1679	10744.53	3.9160	3.9162	-0.8171	25.99	0.03	-0.750			
0.1704	10903.02	3.9130	3.9129	-0.8190	25.99	0.03	-0.750			
0.1728	11058.18	3.9100	3.9100	-0.8178	26.00	0.04	-0.750			
0.1752	11214.29	3.9070	3.9070	-0.8189	26.00	0.04	-0.750			
0.1777	11373.58	3.9040	3.9040	-0.8232	26.01	0.05	-0.750			
0.1802	11530.61	3.9010	3.9011	-0.8202	26.01	0.05	-0.750			
0.1826	11688.15	3.8980	3.8980	-0.8219	26.01	0.05	-0.750			
0.1851	11846.50	3.8950	3.8950	-0.8276	26.02	0.06	-0.750			
0.1876	12005.73	3.8920	3.8920	-0.8281	26.02	0.06	-0.750			
0.1901	12164.30	3.8890	3.8890	-0.8298	26.03	0.07	-0.750			
0.1926	12324.95	3.8860	3.8862	-0.8311	26.03	0.07	-0.750			
0.1951	12485.66	3.8830	3.8829	-0.8311	26.03	0.07	-0.750			
0.1976	12645.69	3.8800	3.8800	-0.8325	26.04	0.08	-0.750			
0.2001	12804.91	3.8770	3.8770	-0.8301	26.04	0.08	-0.750			
0.2026	12964.08	3.8740	3.8741	-0.8351	26.05	0.09	-0.750			
0.2051	13124.04	3.8710	3.8712	-0.8343	26.05	0.09	-0.750			
0.2076	13283.96	3.8680	3.8679	-0.8331	26.05	0.09	-0.750			
0.2101	13444.09	3.8650	3.8651	-0.8366	26.06	0.10	-0.750			
0.2126	13604.62	3.8620	3.8620	-0.8357	26.06	0.10	-0.750			
0.2151	13764.72	3.8590	3.8589	-0.8370	26.07	0.11	-0.750			
0.2176	13927.38	3.8560	3.8561	-0.8370	26.07	0.11	-0.750			
0.2201	14087.59	3.8530	3.8529	-0.8337	26.07	0.11	-0.750			
0.2226	14247.65	3.8500	3.8501	-0.8362	26.07	0.11	-0.750			
0.2251	14408.20	3.8470	3.8470	-0.8354	26.07	0.11	-0.750			
0.2276	14566.06	3.8440	3.8439	-0.8367	26.07	0.11	-0.750			
0.2301	14727.80	3.8410	3.8410	-0.8401	26.07	0.11	-0.750			
0.2326	14889.21	3.8380	3.8380	-0.8402	26.08	0.12	-0.750			
0.2352	15052.89	3.8350	3.8349	-0.8490	26.08	0.12	-0.750			
0.2378	15217.03	3.8320	3.8321	-0.8472	26.09	0.13	-0.750			
0.2403	15379.35	3.8290	3.8289	-0.8462	26.09	0.13	-0.750			
0.2429	15543.39	3.8260	3.8263	-0.8415	26.10	0.14	-0.750			
0.2454	15704.33	3.8230	3.8229	-0.8337	26.10	0.14	-0.750			
0.2479	15862.42	3.8200	3.8200	-0.8387	26.10	0.14	-0.750			
0.2504	16023.07	3.8170	3.8169	-0.8361	26.11	0.15	-0.750			
0.2529	16184.74	3.8140	3.8138	-0.8364	26.11	0.15	-0.750			
0.2554	16344.05	3.8110	3.8114	-0.8374	26.11	0.15	-0.750			
0.2579	16505.48	3.8080	3.8080	-0.8365	26.11	0.15	-0.750			
0.2604	16667.07	3.8050	3.8049	-0.8388	26.12	0.16	-0.750			
0.2629	16826.58	3.8020	3.8020	-0.8331	26.12	0.16	-0.750			
0.2654	16987.44	3.7990	3.7990	-0.8329	26.13	0.17	-0.750			
0.2679	17147.16	3.7960	3.7961	-0.8314	26.13	0.17	-0.750			
0.2704	17307.31	3.7930	3.7930	-0.8273	26.13	0.17	-0.750			
0.2729	17464.16	3.7900	3.7900	-0.8276	26.13	0.17	-0.750			
0.2754	17623.82	3.7870	3.7869	-0.8267	26.14	0.18	-0.750			
0.2779	17783.11	3.7840	3.7840	-0.8234	26.14	0.18	-0.750			
0.2803	17941.27	3.7810	3.7813	-0.8197	26.14	0.18	-0.750			
0.2828	18099.75	3.7780	3.7780	-0.8150	26.15	0.19	-0.750			
0.2852	18254.59	3.7750	3.7750	-0.8092	26.15	0.19	-0.750			
0.2876	18409.20	3.7720	3.7720	-0.7985	26.16	0.20	-0.750			
0.2900	18559.80	3.7690	3.7690	-0.8054	26.16	0.20	-0.750			
0.2924	18714.32	3.7660	3.7661	-0.8043	26.17	0.21	-0.750			
0.2948	18868.33	3.7630	3.7629	-0.8101	26.17	0.21	-0.750			
0.2973	19024.46	3.7600	3.7600	-0.8148	26.18	0.22	-0.750			
0.2997	19183.60	3.7570	3.7570	-0.8173	26.18	0.22	-0.750			
0.3022	19341.10	3.7540	3.7540	-0.8149	26.19	0.23	-0.750			
0.3047	19500.08	3.7510	3.7510	-0.8151	26.19	0.23	-0.750			
0.3071	19653.35	3.7480	3.7480	-0.8080	26.19	0.23	-0.750			
0.3095	19808.10	3.7450	3.7450	-0.8132	26.19	0.23	-0.750			
0.3119	19962.06	3.7420	3.7419	-0.8140	26.19	0.23	-0.750			
0.3144	20118.47	3.7390	3.7390	-0.8176	26.19	0.23	-0.750			
0.3168	20277.36	3.7360	3.7360	-0.8277	26.19	0.23	-0.750			
0.3193	20436.26	3.7330	3.7329	-0.8340	26.19	0.23	-0.750			
0.3218	20597.59	3.7300	3.7300	-0.8430	26.19	0.23	-0.750			
0.3244	20759.45	3.7270	3.7270	-0.8510	26.20	0.24	-0.750			
0.3269	20922.21	3.7240	3.7241	-0.8587	26.20	0.24	-0.750			
0.3295	21089.18	3.7210	3.7210	-0.8737	26.20	0.24	-0.750			
0.3321	21257.25	3.7180	3.7180	-0.8912	26.20	0.24	-0.750			
0.3348	21428.60	3.7150	3.7150	-0.9040	26.20	0.24	-0.750			
0.3376	21603.88	3.7120	3.7120	-0.9215	26.21	0.25	-0.750			
0.3404	21783.47	3.7090	3.7089	-0.9364	26.21	0.25	-0.750			
0.3432	21966.46	3.7060	3.7061	-0.9497	26.21	0.25	-0.750			
0.3461	22149.32	3.7030	3.7030	-0.9705	26.21	0.25	-0.750			
0.3490	22336.15	3.7000	3.7000	-0.9864	26.21	0.25	-0.750			
0.3520	22527.15	3.6970	3.6969	-1.0022	26.21	0.25	-0.750			
0.3550	22720.80	3.6940	3.6942	-1.0243	26.21	0.25	-0.750			
0.3581	22918.94	3.6910	3.6910	-1.0504	26.21	0.25	-0.750			
0.3613	23125.21	3.6880	3.6879	-1.0712	26.21	0.25	-0.750			
0.3646	23332.29	3.6850	3.6849	-1.0903	26.20	0.24	-0.750			
0.3678	23541.73	3.6820	3.6822	-1.1168	26.20	0.24	-0.750			
0.3712	23759.50	3.6790	3.6790	-1.1370	26.20	0.24	-0.750			
0.3747	23980.44	3.6760	3.6759	-1.1567	26.19	0.23	-0.750			
0.3782	24202.03	3.6730	3.6729	-1.1775	26.19	0.23	-0.750			
0.3817	24431.65	3.6700	3.6700	-1.2014	26.19	0.23	-0.750			
0.3854	24663.98	3.6670	3.6670	-1.2276	26.18	0.22	-0.750			
0.3891	24900.56	3.6640	3.6640	-1.2493	26.18	0.22	-0.750			
0.3928	25139.89	3.6610	3.6613	-1.2817	26.17	0.21	-0.750			
0.3968	25393.65	3.6580	3.6579	-1.3166	26.16	0.20	-0.750			
0.4008	25649.25	3.6550	3.6550	-1.3455	26.16	0.20	-0.750			
0.4049	25910.45	3.6520	3.6522	-1.3766	26.15	0.19	-0.750			
0.4090	26178.34	3.6490	3.6490	-1.4150	26.14	0.18	-0.750			
0.4133	26452.76	3.6460	3.6459	-1.4411	26.14	0.18	-0.750			
0.4177	26731.45	3.6430	3.6431	-1.4786	26.13	0.17	-0.750			
0.4221	27016.98	3.6400	3.6401	-1.5115	26.12	0.16	-0.750			
0.4268	27316.57	3.6370	3.6369	-1.5482	26.12	0.16	-0.750			
0.4315	27615.58	3.6340	3.6341	-1.5749	26.11	0.15	-0.750			
0.4363	27920.93	3.6310	3.6308	-1.5980	26.10	0.14	-0.750			
0.4410	28226.21	3.6280	3.6280	-1.6272	26.09	0.13	-0.750			
0.4460	28542.63	3.6250	3.6249	-1.6546	26.08	0.12	-0.750			
0.4510	28863.33	3.6220	3.6219	-1.6895	26.08	0.12	-0.750	0.396	0.502	
0.4561	29187.52	3.6190	3.6191	-1.7168	26.07	0.11	-0.750			
0.4613	29521.47	3.6160	3.6159	-1.7550	26.06	0.10	-0.750			
0.4667	29866.20	3.6130	3.6130	-1.7927	26.05	0.09	-0.750			
0.4721	30214.44	3.6100	3.6099	-1.8282	26.05	0.09	-0.750			
0.4776	30565.22	3.6070	3.6070	-1.8607	26.04	0.08	-0.750			
0.4832	30927.50	3.6040	3.6039	-1.8940	26.04	0.08	-0.750			
0.4890	31296.98	3.6010	3.6010	-1.9286	26.03	0.07	-0.750			
0.4949	31670.42	3.5980	3.5981	-1.9765	26.03	0.07	-0.750			
0.5008	32052.37	3.5950	3.5949	-2.0247	26.02	0.06	-0.750			
0.5070	32448.54	3.5920	3.5921	-2.0581	26.01	0.05	-0.750			
0.5133	32848.36	3.5890	3.5889	-2.1001	26.00	0.04	-0.750			
0.5196	33255.18	3.5860	3.5861	-2.1326	26.00	0.04	-0.750			
0.5261	33671.29	3.5830	3.5831	-2.1636	25.99	0.03	-0.750			
0.5326	34088.82	3.5800	3.5800	-2.1805	25.99	0.03	-0.750			
0.5392	34508.60	3.5770	3.5770	-2.2017	25.99	0.03	-0.750			
0.5458	34933.55	3.5740	3.5740	-2.2294	25.99	0.03	-0.750			
0.5526	35365.83	3.5710	3.5710	-2.2437	25.98	0.02	-0.750			
0.5593	35795.87	3.5680	3.5680	-2.2753	25.98	0.02	-0.750			
0.5662	36238.10	3.5650	3.5649	-2.2777	25.97	0.01	-0.750			
0.5731	36677.06	3.5620	3.5619	-2.2933	25.97	0.01	-0.750			
0.5801	37125.64	3.5590	3.5591	-2.2925	25.97	0.01	-0.750			
0.5869	37560.70	3.5560	3.5558	-2.2898	25.97	0.01	-0.750			
0.5938	38000.03	3.5530	3.5531	-2.2924	25.97	0.01	-0.750			
0.6007	38442.00	3.5500	3.5501	-2.2860	25.97	0.01	-0.750			
0.6076	38884.86	3.5470	3.5470	-2.2710	25.97	0.01	-0.750			
0.6144	39321.51	3.5440	3.5439	-2.2579	25.97	0.01	-0.750			
0.6212	39753.89	3.5410	3.5410	-2.2327	25.97	0.01	-0.750			
0.6279	40185.50	3.5380	3.5379	-2.2029	25.98	0.02	-0.750			
0.6345	40605.45	3.5350	3.5349	-2.1502	25.98	0.02	-0.750			
0.6408	41010.54	3.5320	3.5320	-2.1144	25.99	0.03	-0.750			
0.6472	41417.77	3.5290	3.5291	-2.0768	25.99	0.03	-0.750			
0.6532	41807.97	3.5260	3.5259	-2.0416	25.99	0.03	-0.750			
0.6594	42198.56	3.5230	3.5231	-1.9826	26.00	0.04	-0.750			
0.6653	42576.93	3.5200	3.5199	-1.9379	26.01	0.05	-0.750			
0.6711	42947.38	3.5170	3.5171	-1.8788	26.02	0.06	-0.750			
0.6766	43303.74	3.5140	3.5138	-1.8281	26.02	0.06	-0.750			
0.6820	43647.93	3.5110	3.5109	-1.7607	26.03	0.07	-0.750			
0.6871	43976.97	3.5080	3.5081	-1.7065	26.04	0.08	-0.750			
0.6922	44298.22	3.5050	3.5051	-1.6493	26.05	0.09	-0.750			
0.6971	44612.36	3.5020	3.5019	-1.5973	26.06	0.10	-0.750			
0.7018	44914.57	3.4990	3.4988	-1.5421	26.08	0.12	-0.750			
0.7063	45205.73	3.4960	3.4961	-1.4947	26.09	0.13	-0.750			
0.7107	45485.13	3.4930	3.4930	-1.4427	26.11	0.15	-0.750			
0.7150	45759.50	3.4900	3.4899	-1.4024	26.12	0.16	-0.750			
0.7191	46020.19	3.4870	3.4871	-1.3397	26.14	0.18	-0.750			
0.7231	46276.71	3.4840	3.4839	-1.3029	26.16	0.20	-0.750			
0.7269	46521.71	3.4810	3.4810	-1.2538	26.17	0.21	-0.750			
0.7305	46754.01	3.4780	3.4782	-1.2132	26.19	0.23	-0.750			
0.7342	46987.57	3.4750	3.4750	-1.1757	26.20	0.24	-0.750			
0.7376	47207.32	3.4720	3.4719	-1.1349	26.21	0.25	-0.750			
0.7410	47421.84	3.4690	3.4690	-1.0975	26.22	0.26	-0.750			
0.7442	47630.47	3.4660	3.4660	-1.0630	26.24	0.28	-0.750			
0.7473	47829.82	3.4630	3.4629	-1.0297	26.25	0.29	-0.750			
0.7504	48023.91	3.4600	3.4600	-0.9942	26.26	0.30	-0.750			
0.7533	48210.11	3.4570	3.4569	-0.9612	26.27	0.31	-0.750			
0.7561	48393.30	3.4540	3.4541	-0.9359	26.28	0.32	-0.750			
0.7589	48566.49	3.4510	3.4510	-0.9101	26.29	0.33	-0.750			
0.7615	48738.46	3.4480	3.4480	-0.8953	26.30	0.34	-0.750			
0.7641	48903.59	3.4450	3.4450	-0.8818	26.31	0.35	-0.750			
0.7668	49073.05	3.4420	3.4419	-0.8889	26.32	0.36	-0.750			
0.7694	49239.82	3.4390	3.4391	-0.9041	26.33	0.37	-0.750			
0.7721	49414.72	3.4360	3.4360	-0.9233	26.34	0.38	-0.750			
0.7749	49592.98	3.4330	3.4330	-0.9498	26.35	0.39	-0.750			
0.7778	49778.50	3.4300	3.4299	-0.9741	26.36	0.40	-0.750			
0.7808	49969.50	3.4270	3.4271	-1.0012	26.37	0.41	-0.750			
0.7838	50164.49	3.4240	3.4240	-1.0250	26.38	0.42	-0.750			
0.7870	50365.18	3.4210	3.4210	-1.0427	26.38	0.42	-0.750			
0.7901	50567.26	3.4180	3.4179	-1.0511	26.39	0.43	-0.750			
0.7933	50774.27	3.4150	3.4150	-1.0535	26.39	0.43	-0.750			
0.7965	50977.36	3.4120	3.4121	-1.0422	26.41	0.45	-0.750			
0.7997	51181.86	3.4090	3.4090	-1.0233	26.42	0.46	-0.750			
0.8028	51376.26	3.4060	3.4060	-0.9906	26.43	0.47	-0.750			
0.8057	51562.33	3.4030	3.4032	-0.9564	26.44	0.48	-0.750			
0.8085	51742.37	3.4000	3.4000	-0.9231	26.45	0.49	-0.750			
0.8112	51915.96	3.3970	3.3970	-0.8895	26.45	0.49	-0.750			
0.8138	52082.98	3.3940	3.3939	-0.8590	26.45	0.49	-0.750			
0.8163	52245.46	3.3910	3.3910	-0.8264	26.46	0.50	-0.750			
0.8188	52401.56	3.3880	3.3880	-0.7971	26.46	0.50	-0.750			
0.8211	52551.77	3.3850	3.3850	-0.7683	26.47	0.51	-0.750			
0.8234	52695.76	3.3820	3.3820	-0.7404	26.48	0.52	-0.750			
0.8255	52834.27	3.3790	3.3789	-0.7102	26.49	0.53	-0.750			
0.8276	52967.93	3.3760	3.3760	-0.6826	26.49	0.53	-0.750			
0.8296	53096.30	3.3730	3.3730	-0.6535	26.50	0.54	-0.750			
0.8315	53218.67	3.3700	3.3701	-0.6312	26.50	0.54	-0.750			
0.8334	53336.63	3.3670	3.3670	-0.6050	26.51	0.55	-0.750			
0.8352	53450.49	3.3640	3.3640	-0.5816	26.52	0.56	-0.750			
0.8369	53559.39	3.3610	3.3609	-0.5591	26.52	0.56	-0.750			
0.8385	53665.56	3.3580	3.3581	-0.5402	26.53	0.57	-0.750			
0.8401	53767.24	3.3550	3.3550	-0.5187	26.53	0.57	-0.750			
0.8416	53864.77	3.3520	3.3519	-0.4989	26.54	0.58	-0.750			
0.8431	53957.55	3.3490	3.3491	-0.4767	26.54	0.58	-0.750			
0.8445	54047.02	3.3460	3.3460	-0.4587	26.55	0.59	-0.750			
0.8458	54132.97	3.3430	3.3430	-0.4405	26.55	0.59	-0.750			
0.8471	54215.46	3.3400	3.3400	-0.4251	26.56	0.60	-0.750			
0.8484	54294.59	3.3370	3.3370	-0.4102	26.57	0.61	-0.750			
0.8496	54371.89	3.3340	3.3338	-0.3973	26.57	0.61	-0.750			
0.8507	54447.08	3.3310	3.3310	-0.3841	26.58	0.62	-0.750			
0.8519	54520.09	3.3280	3.3280	-0.3723	26.58	0.62	-0.750			
0.8530	54590.71	3.3250	3.3250	-0.3592	26.59	0.63	-0.750			
0.8540	54658.81	3.3220	3.3220	-0.3453	26.59	0.63	-0.750			
0.8550	54722.79	3.3190	3.3190	-0.3302	26.60	0.64	-0.750			
0.8560	54784.35	3.3160	3.3161	-0.3197	26.61	0.65	-0.750			
0.8569	54844.24	3.3130	3.3130	-0.3078	26.61	0.65	-0.750			
0.8578	54901.89	3.3100	3.3099	-0.2988	26.62	0.66	-0.750			
0.8587	54958.58	3.3070	3.3070	-0.2906	26.62	0.66	-0.750			
0.8596	55013.38	3.3040	3.3041	-0.2824	26.63	0.67	-0.750			
0.8604	55066.81	3.3010	3.3010	-0.2752	26.63	0.67	-0.750			
0.8612	55119.21	3.2980	3.2981	-0.2669	26.64	0.68	-0.750			
0.8620	55169.11	3.2950	3.2950	-0.2599	26.64	0.68	-0.750			
0.8628	55218.25	3.2920	3.2920	-0.2539	26.65	0.69	-0.750			
0.8635	55266.15	3.2890	3.2891	-0.2469	26.65	0.69	-0.750			
0.8643	55313.02	3.2860	3.2859	-0.2413	26.66	0.70	-0.750			
0.8650	55358.78	3.2830	3.2831	-0.2365	26.66	0.70	-0.750			
0.8657	55403.50	3.2800	3.2800	-0.2316	26.67	0.71	-0.750			
0.8664	55447.45	3.2770	3.2770	-0.2265	26.67	0.71	-0.750			
0.8670	55490.88	3.2740	3.2739	-0.2221	26.68	0.72	-0.750			
0.8677	55532.45	3.2710	3.2711	-0.2172	26.68	0.72	-0.750			
0.8683	55574.12	3.2680	3.2680	-0.2126	26.68	0.72	-0.750			
0.8690	55614.48	3.2650	3.2650	-0.2087	26.69	0.73	-0.750			
0.8696	55654.08	3.2620	3.2620	-0.2039	26.69	0.73	-0.750			
0.8702	55692.59	3.2590	3.2591	-0.1988	26.70	0.74	-0.750			
0.8708	55730.24	3.2560	3.2559	-0.1946	26.70	0.74	-0.750			
0.8714	55766.83	3.2530	3.2531	-0.1913	26.71	0.75	-0.750			
0.8719	55803.25	3.2500	3.2500	-0.1881	26.71	0.75	-0.750			
0.8725	55838.70	3.2470	3.2470	-0.1849	26.71	0.75	-0.750			
0.8730	55873.95	3.2440	3.2439	-0.1828	26.72	0.76	-0.750			
0.8736	55908.73	3.2410	3.2410	-0.1797	26.72	0.76	-0.750			
0.8741	55943.02	3.2380	3.2381	-0.1776	26.73	0.77	-0.750			
0.8746	55977.11	3.2350	3.2349	-0.1760	26.73	0.77	-0.750			
0.8752	56010.73	3.2320	3.2320	-0.1735	26.73	0.77	-0.750			
0.8757	56043.56	3.2290	3.2290	-0.1709	26.74	0.78	-0.750			
0.8762	56076.19	3.2260	3.2260	-0.1690	26.74	0.78	-0.750			
0.8767	56108.60	3.2230	3.2230	-0.1665	26.74	0.78	-0.750			
0.8772	56140.34	3.2200	3.2199	-0.1639	26.75	0.79	-0.750			
0.8777	56171.57	3.2170	3.2171	-0.1621	26.75	0.79	-0.750			
0.8782	56202.46	3.2140	3.2140	-0.1597	26.76	0.80	-0.750			
0.8786	56232.50	3.2110	3.2110	-0.1583	26.76	0.80	-0.750			
0.8791	56262.94	3.2080	3.2079	-0.1562	26.76	0.80	-0.750			
0.8796	56292.68	3.2050	3.2050	-0.1543	26.77	0.81	-0.750			
0.8800	56322.22	3.2020	3.2020	-0.1525	26.77	0.81	-0.750			
0.8805	56351.54	3.1990	3.1990	-0.1509	26.77	0.81	-0.750			
0.8809	56380.36	3.1960	3.1959	-0.1492	26.78	0.82	-0.750			
0.8814	56408.55	3.1930	3.1930	-0.1472	26.78	0.82	-0.750			
0.8818	56436.41	3.1900	3.1900	-0.1453	26.79	0.83	-0.750			
0.8823	56464.24	3.1870	3.1870	-0.1445	26.79	0.83	-0.750			
0.8827	56492.11	3.1840	3.1840	-0.1436	26.80	0.84	-0.750			
0.8831	56519.35	3.1810	3.1809	-0.1424	26.80	0.84	-0.750			
0.8835	56546.61	3.1780	3.1781	-0.1416	26.81	0.85	-0.750			
0.8840	56573.91	3.1750	3.1750	-0.1396	26.81	0.85	-0.750			
0.8844	56600.49	3.1720	3.1720	-0.1386	26.81	0.85	-0.750			
0.8848	56627.10	3.1690	3.1691	-0.1370	26.82	0.86	-0.750			
0.8852	56653.24	3.1660	3.1660	-0.1353	26.82	0.86	-0.750			
0.8856	56679.02	3.1630	3.1629	-0.1339	26.83	0.87	-0.750			
0.8860	56704.36	3.1600	3.1601	-0.1330	26.83	0.87	-0.750			
0.8864	56729.55	3.1570	3.1569	-0.1317	26.84	0.88	-0.750			
0.8868	56754.90	3.1540	3.1540	-0.1310	26.84	0.88	-0.750			
0.8872	56780.18	3.1510	3.1510	-0.1304	26.84	0.88	-0.750			
0.8876	56804.84	3.1480	3.1479	-0.1293	26.85	0.89	-0.750			
0.8880	56829.89	3.1450	3.1451	-0.1291	26.85	0.89	-0.750			
0.8884	56854.58	3.1420	3.1420	-0.1281	26.86	0.90	-0.750			
0.8887	56879.19	3.1390	3.1389	-0.1269	26.86	0.90	-0.750			
0.8891	56903.43	3.1360	3.1360	-0.1256	26.87	0.91	-0.750			
0.8895	56927.27	3.1330	3.1331	-0.1245	26.87	0.91	-0.750			
0.8899	56951.18	3.1300	3.1299	-0.1237	26.87	0.91	-0.750			
0.8902	56974.73	3.1270	3.1270	-0.1228	26.88	0.92	-0.750			
0.8906	56998.06	3.1240	3.1239	-0.1216	26.88	0.92	-0.750			
0.8910	57021.40	3.1210	3.1210	-0.1207	26.89	0.93	-0.750			
0.8913	57044.45	3.1180	3.1181	-0.1198	26.89	0.93	-0.750			
0.8917	57067.43	3.1150	3.1150	-0.1189	26.90	0.94	-0.750			
0.8920	57090.32	3.1120	3.1120	-0.1181	26.90	0.94	-0.750			
0.8924	57112.88	3.1090	3.1090	-0.1170	26.91	0.95	-0.750			
0.8927	57135.23	3.1060	3.1060	-0.1159	26.91	0.95	-0.750			
0.8931	57157.26	3.1030	3.1031	-0.1153	26.92	0.96	-0.750			
0.8934	57179.19	3.1000	3.0999	-0.1145	26.92	0.96	-0.750			
0.8938	57201.10	3.0970	3.0969	-0.1140	26.93	0.97	-0.750			
0.8941	57222.84	3.0940	3.0939	-0.1134	26.93	0.97	-0.750			
0.8944	57244.59	3.0910	3.0911	-0.1130	26.94	0.98	-0.750			
0.8948	57266.21	3.0880	3.0880	-0.1126	26.94	0.98	-0.750			
0.8951	57287.92	3.0850	3.0850	-0.1117	26.95	0.99	-0.750			
0.8955	57309.51	3.0820	3.0820	-0.1112	26.95	0.99	-0.750			
0.8958	57330.74	3.0790	3.0790	-0.1103	26.96	1.00	-0.750			
0.8961	57351.84	3.0760	3.0761	-0.1094	26.96	1.00	-0.750			
0.8964	57372.66	3.0730	3.0729	-0.1088	26.97	1.01	-0.750			
0.8968	57393.42	3.0700	3.0701	-0.1080	26.98	1.02	-0.750			
0.8971	57414.06	3.0670	3.0670	-0.1074	26.98	1.02	-0.750			
0.8974	57434.48	3.0640	3.0641	-0.1067	26.99	1.03	-0.750			
0.8977	57455.00	3.0610	3.0609	-0.1060	26.99	1.03	-0.750			
0.8981	57475.43	3.0580	3.0580	-0.1056	27.00	1.04	-0.750			
0.8984	57495.61	3.0550	3.0550	-0.1050	27.00	1.04	-0.750			
0.8987	57515.75	3.0520	3.0521	-0.1044	27.01	1.05	-0.750			
0.8990	57535.66	3.0490	3.0491	-0.1039	27.01	1.05	-0.750			
0.8993	57555.48	3.0460	3.0459	-0.1033	27.02	1.06	-0.750			
0.8996	57575.32	3.0430	3.0430	-0.1027	27.02	1.06	-0.750			
0.8999	57594.98	3.0400	3.0400	-0.1022	27.03	1.07	-0.750			
0.9002	57614.58	3.0370	3.0370	-0.1015	27.03	1.07	-0.750			
0.9005	57634.12	3.0340	3.0340	-0.1011	27.04	1.08	-0.750			
0.9008	57653.41	3.0310	3.0311	-0.1004	27.04	1.08	-0.750			
0.9011	57672.63	3.0280	3.0280	-0.0998	27.04	1.08	-0.750			
0.9014	57691.66	3.0250	3.0250	-0.0993	27.05	1.09	-0.750			
0.9017	57710.56	3.0220	3.0220	-0.0986	27.05	1.09	-0.750			
0.9020	57729.46	3.0190	3.0191	-0.0981	27.06	1.10	-0.750			
0.9023	57748.27	3.0160	3.0159	-0.0977	27.06	1.10	-0.750			
0.9026	57766.99	3.0130	3.0131	-0.0973	27.07	1.11	-0.750			
0.9029	57785.65	3.0100	3.0100	-0.0969	27.07	1.11	-0.750			
0.9032	57804.21	3.0070	3.0070	-0.0964	27.08	1.12	-0.751			
0.9035	57822.68	3.0040	3.0040	-0.0956	27.08	1.12	-0.751			
