Ah_balance (normalized)	Ah_balance (mAh)	Voltage - fit (V)	Voltage -  interpolate (V)	dQ/dV (1/V)	Temperature (°C)	Temperature - diff (°C)	Current (C)	R_DC 0ms (mOhm)	R_DC 50ms (mOhm)	R_DC 50 ms PEC (mOhm)
0.0003	21.36	4.1550	4.1546	-0.1110	25.17	0.01	-0.750			
0.0007	46.55	4.1520	4.1517	-0.1474	25.17	0.01	-0.750			
0.0012	77.96	4.1490	4.1490	-0.1814	25.17	0.01	-0.750			
0.0018	116.16	4.1460	4.1461	-0.2156	25.17	0.01	-0.750			
0.0025	161.11	4.1430	4.1430	-0.2485	25.17	0.01	-0.750			
0.0033	212.71	4.1400	4.1399	-0.2814	25.17	0.01	-0.750			
0.0042	270.12	4.1370	4.1370	-0.3097	25.17	0.01	-0.750			
0.0052	332.47	4.1340	4.1340	-0.3395	25.17	0.01	-0.750			
0.0063	400.99	4.1310	4.1310	-0.3681	25.16	0.00	-0.750			
0.0074	474.55	4.1280	4.1280	-0.3955	25.16	0.00	-0.750			
0.0086	553.44	4.1250	4.1250	-0.4205	25.16	0.00	-0.750			
0.0100	636.97	4.1220	4.1220	-0.4439	25.16	0.00	-0.750			
0.0113	725.58	4.1190	4.1190	-0.4653	25.16	0.00	-0.750			
0.0128	817.93	4.1160	4.1160	-0.4832	25.16	-0.00	-0.750			
0.0143	912.15	4.1130	4.1130	-0.5008	25.16	-0.00	-0.750			
0.0158	1009.76	4.1100	4.1101	-0.5185	25.16	-0.00	-0.750			
0.0174	1110.64	4.1070	4.1070	-0.5347	25.16	-0.00	-0.750			
0.0190	1215.61	4.1040	4.1038	-0.5537	25.15	-0.01	-0.750			
0.0207	1324.77	4.1010	4.1010	-0.5656	25.15	-0.01	-0.750			
0.0224	1435.80	4.0980	4.0980	-0.5795	25.15	-0.01	-0.750			
0.0242	1547.89	4.0950	4.0953	-0.5874	25.15	-0.01	-0.750			
0.0260	1661.60	4.0920	4.0919	-0.5940	25.15	-0.01	-0.750			
0.0278	1776.29	4.0890	4.0890	-0.6010	25.15	-0.01	-0.750			
0.0295	1891.18	4.0860	4.0860	-0.6081	25.15	-0.01	-0.750			
0.0314	2009.84	4.0830	4.0831	-0.6186	25.15	-0.01	-0.750			
0.0333	2129.54	4.0800	4.0800	-0.6237	25.15	-0.01	-0.750			
0.0352	2249.62	4.0770	4.0770	-0.6297	25.15	-0.01	-0.750			
0.0371	2371.46	4.0740	4.0741	-0.6337	25.15	-0.01	-0.750			
0.0390	2493.46	4.0710	4.0709	-0.6381	25.15	-0.01	-0.750			
0.0409	2616.71	4.0680	4.0680	-0.6414	25.15	-0.01	-0.750			
0.0428	2739.64	4.0650	4.0649	-0.6471	25.15	-0.01	-0.750			
0.0448	2864.01	4.0620	4.0620	-0.6540	25.15	-0.01	-0.750			
0.0467	2991.02	4.0590	4.0590	-0.6575	25.15	-0.01	-0.750			
0.0487	3117.46	4.0560	4.0560	-0.6619	25.15	-0.01	-0.750			
0.0507	3245.87	4.0530	4.0530	-0.6663	25.15	-0.01	-0.750			
0.0527	3373.50	4.0500	4.0500	-0.6696	25.16	-0.00	-0.750			
0.0547	3502.30	4.0470	4.0469	-0.6758	25.16	0.00	-0.750			
0.0568	3632.30	4.0440	4.0440	-0.6771	25.17	0.01	-0.750			
0.0588	3763.99	4.0410	4.0409	-0.6794	25.17	0.01	-0.750			
0.0609	3895.48	4.0380	4.0380	-0.6814	25.18	0.02	-0.750			
0.0629	4025.75	4.0350	4.0350	-0.6840	25.18	0.02	-0.750			
0.0650	4157.46	4.0320	4.0320	-0.6846	25.19	0.03	-0.750			
0.0670	4287.22	4.0290	4.0289	-0.6873	25.19	0.03	-0.750			
0.0691	4419.58	4.0260	4.0261	-0.6894	25.19	0.03	-0.750			
0.0712	4553.77	4.0230	4.0230	-0.6979	25.20	0.04	-0.750			
0.0733	4688.42	4.0200	4.0200	-0.7006	25.20	0.04	-0.750			
0.0754	4823.70	4.0170	4.0170	-0.7021	25.20	0.04	-0.750			
0.0775	4958.60	4.0140	4.0140	-0.6995	25.21	0.05	-0.750			
0.0796	5093.24	4.0110	4.0110	-0.7042	25.21	0.05	-0.750			
0.0817	5227.73	4.0080	4.0080	-0.7034	25.21	0.05	-0.750			
0.0838	5363.92	4.0050	4.0049	-0.7048	25.22	0.06	-0.750			
0.0859	5498.07	4.0020	4.0020	-0.7078	25.22	0.06	-0.750			
0.0880	5634.69	3.9990	3.9990	-0.7127	25.22	0.06	-0.750			
0.0902	5772.85	3.9960	3.9959	-0.7141	25.23	0.07	-0.750			
0.0924	5911.14	3.9930	3.9930	-0.7154	25.23	0.07	-0.750			
0.0945	6047.24	3.9900	3.9900	-0.7147	25.23	0.07	-0.750			
0.0966	6185.26	3.9870	3.9870	-0.7182	25.24	0.08	-0.750			
0.0988	6323.10	3.9840	3.9841	-0.7212	25.24	0.08	-0.750			
0.1010	6460.88	3.9810	3.9809	-0.7219	25.24	0.08	-0.750			
0.1031	6599.88	3.9780	3.9780	-0.7259	25.25	0.09	-0.750			
0.1053	6740.01	3.9750	3.9750	-0.7330	25.25	0.09	-0.750			
0.1075	6880.29	3.9720	3.9720	-0.7380	25.25	0.09	-0.750			
0.1097	7023.69	3.9690	3.9689	-0.7430	25.26	0.10	-0.750			
0.1120	7167.77	3.9660	3.9661	-0.7449	25.26	0.10	-0.750			
0.1142	7311.39	3.9630	3.9630	-0.7476	25.26	0.10	-0.750			
0.1165	7455.54	3.9600	3.9601	-0.7503	25.27	0.11	-0.750			
0.1187	7599.84	3.9570	3.9570	-0.7469	25.27	0.11	-0.750			
0.1210	7743.71	3.9540	3.9539	-0.7465	25.27	0.11	-0.750			
0.1232	7885.47	3.9510	3.9510	-0.7460	25.28	0.12	-0.750			
0.1254	8028.39	3.9480	3.9480	-0.7477	25.28	0.12	-0.750			
0.1277	8171.49	3.9450	3.9450	-0.7501	25.29	0.13	-0.750			
0.1299	8315.32	3.9420	3.9420	-0.7506	25.29	0.13	-0.750			
0.1322	8460.54	3.9390	3.9390	-0.7519	25.29	0.13	-0.750			
0.1345	8606.81	3.9360	3.9359	-0.7504	25.30	0.14	-0.750			
0.1367	8749.95	3.9330	3.9332	-0.7516	25.30	0.14	-0.750			
0.1390	8893.28	3.9300	3.9300	-0.7519	25.30	0.14	-0.750			
0.1412	9035.98	3.9270	3.9271	-0.7567	25.31	0.15	-0.750			
0.1435	9181.90	3.9240	3.9239	-0.7603	25.31	0.15	-0.750			
0.1458	9328.44	3.9210	3.9210	-0.7661	25.31	0.15	-0.750			
0.1481	9477.47	3.9180	3.9180	-0.7684	25.32	0.16	-0.750			
0.1504	9626.68	3.9150	3.9150	-0.7726	25.32	0.16	-0.750			
0.1527	9773.23	3.9120	3.9120	-0.7705	25.32	0.16	-0.750			
0.1550	9921.02	3.9090	3.9090	-0.7691	25.32	0.16	-0.750			
0.1573	10068.23	3.9060	3.9060	-0.7682	25.32	0.16	-0.750			
0.1596	10216.46	3.9030	3.9030	-0.7706	25.32	0.16	-0.750			
0.1619	10363.94	3.9000	3.9002	-0.7709	25.32	0.16	-0.750			
0.1643	10512.29	3.8970	3.8969	-0.7716	25.32	0.16	-0.750			
0.1666	10660.39	3.8940	3.8940	-0.7728	25.33	0.17	-0.750			
0.1689	10809.67	3.8910	3.8910	-0.7723	25.33	0.17	-0.750			
0.1712	10959.08	3.8880	3.8880	-0.7698	25.34	0.18	-0.750			
0.1735	11106.10	3.8850	3.8850	-0.7673	25.34	0.18	-0.750			
0.1758	11251.84	3.8820	3.8821	-0.7670	25.34	0.18	-0.750			
0.1781	11398.47	3.8790	3.8789	-0.7686	25.35	0.19	-0.750			
0.1804	11545.63	3.8760	3.8759	-0.7690	25.35	0.19	-0.750			
0.1827	11693.02	3.8730	3.8731	-0.7726	25.35	0.19	-0.750			
0.1851	11843.62	3.8700	3.8700	-0.7769	25.36	0.20	-0.750			
0.1874	11993.21	3.8670	3.8671	-0.7780	25.36	0.20	-0.750			
0.1897	12142.19	3.8640	3.8640	-0.7749	25.36	0.20	-0.750			
0.1920	12290.61	3.8610	3.8610	-0.7766	25.37	0.21	-0.750			
0.1944	12439.83	3.8580	3.8580	-0.7764	25.37	0.21	-0.750			
0.1967	12589.84	3.8550	3.8550	-0.7752	25.38	0.22	-0.750			
0.1991	12739.40	3.8520	3.8520	-0.7697	25.38	0.22	-0.750			
0.2014	12886.54	3.8490	3.8490	-0.7679	25.39	0.23	-0.750			
0.2036	13032.27	3.8460	3.8461	-0.7670	25.39	0.23	-0.750			
0.2059	13179.03	3.8430	3.8429	-0.7637	25.40	0.24	-0.750			
0.2082	13324.59	3.8400	3.8399	-0.7626	25.40	0.24	-0.750			
0.2105	13471.48	3.8370	3.8371	-0.7640	25.41	0.25	-0.750			
0.2128	13617.58	3.8340	3.8340	-0.7710	25.41	0.25	-0.750			
0.2151	13768.18	3.8310	3.8309	-0.7743	25.42	0.26	-0.750			
0.2175	13916.92	3.8280	3.8280	-0.7712	25.42	0.26	-0.750			
0.2198	14065.77	3.8250	3.8249	-0.7626	25.43	0.27	-0.750			
0.2221	14213.03	3.8220	3.8222	-0.7579	25.43	0.27	-0.750			
0.2243	14356.94	3.8190	3.8190	-0.7514	25.44	0.28	-0.750			
0.2265	14499.12	3.8160	3.8159	-0.7454	25.44	0.28	-0.750			
0.2287	14639.03	3.8130	3.8130	-0.7369	25.45	0.29	-0.750			
0.2310	14781.77	3.8100	3.8100	-0.7365	25.45	0.29	-0.750			
0.2332	14924.60	3.8070	3.8070	-0.7375	25.45	0.29	-0.750			
0.2354	15066.71	3.8040	3.8041	-0.7356	25.46	0.30	-0.750			
0.2376	15206.57	3.8010	3.8009	-0.7297	25.46	0.30	-0.750			
0.2398	15345.81	3.7980	3.7980	-0.7273	25.46	0.30	-0.750			
0.2419	15484.76	3.7950	3.7950	-0.7263	25.47	0.31	-0.750			
0.2442	15626.10	3.7920	3.7920	-0.7257	25.47	0.31	-0.750			
0.2463	15766.09	3.7890	3.7889	-0.7199	25.48	0.32	-0.750			
0.2485	15904.00	3.7860	3.7860	-0.7140	25.48	0.32	-0.750			
0.2506	16040.04	3.7830	3.7829	-0.7100	25.48	0.32	-0.750			
0.2527	16174.28	3.7800	3.7800	-0.7052	25.49	0.33	-0.750			
0.2548	16308.84	3.7770	3.7769	-0.7034	25.49	0.33	-0.750			
0.2569	16442.25	3.7740	3.7741	-0.7019	25.49	0.33	-0.750			
0.2591	16579.41	3.7710	3.7709	-0.7074	25.50	0.34	-0.750			
0.2612	16714.44	3.7680	3.7681	-0.7098	25.50	0.34	-0.750			
0.2633	16850.79	3.7650	3.7649	-0.7132	25.50	0.34	-0.750			
0.2654	16988.25	3.7620	3.7620	-0.7145	25.51	0.35	-0.750			
0.2676	17125.22	3.7590	3.7590	-0.7201	25.51	0.35	-0.750			
0.2698	17265.45	3.7560	3.7560	-0.7237	25.51	0.35	-0.750			
0.2720	17405.71	3.7530	3.7530	-0.7283	25.52	0.36	-0.750			
0.2741	17545.19	3.7500	3.7501	-0.7329	25.52	0.36	-0.750			
0.2763	17684.79	3.7470	3.7470	-0.7409	25.52	0.36	-0.750			
0.2786	17827.40	3.7440	3.7439	-0.7544	25.53	0.37	-0.750			
0.2808	17973.94	3.7410	3.7410	-0.7622	25.53	0.37	-0.750			
0.2832	18122.14	3.7380	3.7380	-0.7708	25.53	0.37	-0.750			
0.2855	18270.50	3.7350	3.7350	-0.7841	25.54	0.38	-0.750			
0.2878	18421.82	3.7320	3.7320	-0.7938	25.54	0.38	-0.750			
0.2902	18573.84	3.7290	3.7289	-0.8044	25.54	0.38	-0.750			
0.2927	18729.81	3.7260	3.7260	-0.8128	25.54	0.38	-0.750			
0.2951	18887.05	3.7230	3.7231	-0.8236	25.54	0.38	-0.750			
0.2976	19047.25	3.7200	3.7199	-0.8386	25.54	0.38	-0.750			
0.3002	19209.70	3.7170	3.7170	-0.8492	25.54	0.38	-0.750			
0.3027	19372.09	3.7140	3.7140	-0.8612	25.54	0.38	-0.750			
0.3053	19540.00	3.7110	3.7110	-0.8712	25.54	0.38	-0.750			
0.3079	19707.07	3.7080	3.7080	-0.8849	25.54	0.38	-0.750			
0.3106	19879.41	3.7050	3.7050	-0.9073	25.54	0.38	-0.750			
0.3133	20053.90	3.7020	3.7020	-0.9228	25.54	0.38	-0.750			
0.3162	20234.48	3.6990	3.6989	-0.9445	25.54	0.38	-0.750			
0.3191	20419.79	3.6960	3.6960	-0.9616	25.54	0.38	-0.750			
0.3220	20606.02	3.6930	3.6929	-0.9749	25.54	0.38	-0.750			
0.3249	20795.95	3.6900	3.6901	-0.9903	25.54	0.38	-0.750			
0.3279	20986.48	3.6870	3.6870	-1.0014	25.53	0.37	-0.750			
0.3309	21178.42	3.6840	3.6840	-1.0189	25.53	0.37	-0.750			
0.3339	21372.61	3.6810	3.6810	-1.0299	25.52	0.36	-0.750			
0.3371	21576.11	3.6780	3.6781	-1.0627	25.52	0.36	-0.750			
0.3404	21782.89	3.6750	3.6750	-1.0775	25.51	0.35	-0.750			
0.3436	21991.31	3.6720	3.6720	-1.0909	25.51	0.35	-0.750			
0.3469	22201.81	3.6690	3.6690	-1.1080	25.50	0.34	-0.750			
0.3503	22416.78	3.6660	3.6661	-1.1340	25.50	0.34	-0.750			
0.3537	22636.85	3.6630	3.6629	-1.1457	25.49	0.33	-0.750			
0.3572	22858.66	3.6600	3.6599	-1.1629	25.49	0.33	-0.750			
0.3607	23082.10	3.6570	3.6570	-1.1784	25.48	0.32	-0.750			
0.3643	23312.46	3.6540	3.6539	-1.2012	25.48	0.32	-0.750			
0.3679	23544.11	3.6510	3.6509	-1.2155	25.47	0.31	-0.750			
0.3715	23777.50	3.6480	3.6480	-1.2305	25.46	0.30	-0.750			
0.3752	24012.56	3.6450	3.6451	-1.2588	25.46	0.30	-0.750			
0.3791	24262.55	3.6420	3.6420	-1.2893	25.45	0.29	-0.750			
0.3830	24510.27	3.6390	3.6389	-1.3120	25.45	0.29	-0.750			
0.3869	24763.34	3.6360	3.6361	-1.3483	25.44	0.28	-0.750			
0.3911	25030.59	3.6330	3.6330	-1.3782	25.43	0.27	-0.750			
0.3953	25297.50	3.6300	3.6298	-1.3950	25.41	0.25	-0.750			
0.3995	25568.44	3.6270	3.6273	-1.4263	25.40	0.24	-0.750			
0.4038	25845.61	3.6240	3.6239	-1.4428	25.39	0.23	-0.750			
0.4082	26122.33	3.6210	3.6209	-1.4762	25.39	0.23	-0.750			
0.4126	26408.02	3.6180	3.6182	-1.4874	25.38	0.22	-0.750			
0.4171	26697.39	3.6150	3.6148	-1.5259	25.37	0.21	-0.750			
0.4218	26992.69	3.6120	3.6120	-1.5610	25.36	0.20	-0.750			
0.4265	27297.02	3.6090	3.6089	-1.5847	25.36	0.20	-0.750	0.403	0.583	
0.4313	27604.07	3.6060	3.6060	-1.6329	25.36	0.20	-0.750			
0.4363	27921.26	3.6030	3.6032	-1.6627	25.36	0.20	-0.750			
0.4413	28244.91	3.6000	3.6000	-1.6842	25.36	0.20	-0.750			
0.4465	28572.88	3.5970	3.5970	-1.7285	25.35	0.19	-0.750			
0.4516	28903.42	3.5940	3.5939	-1.7460	25.35	0.19	-0.750			
0.4570	29246.42	3.5910	3.5909	-1.7945	25.34	0.18	-0.750			
0.4623	29590.24	3.5880	3.5881	-1.8249	25.34	0.18	-0.750			
0.4680	29950.11	3.5850	3.5847	-1.8507	25.33	0.17	-0.750			
0.4735	30305.16	3.5820	3.5822	-1.8924	25.32	0.16	-0.750			
0.4792	30671.78	3.5790	3.5790	-1.9157	25.32	0.16	-0.750			
0.4850	31037.36	3.5760	3.5761	-1.9479	25.32	0.16	-0.750			
0.4909	31418.57	3.5730	3.5728	-1.9747	25.31	0.15	-0.750			
0.4970	31805.44	3.5700	3.5700	-1.9763	25.30	0.14	-0.750			
0.5029	32185.12	3.5670	3.5671	-2.0008	25.30	0.14	-0.750			
0.5089	32571.18	3.5640	3.5640	-2.0251	25.30	0.14	-0.750			
0.5150	32958.93	3.5610	3.5610	-2.0144	25.30	0.14	-0.750			
0.5211	33351.55	3.5580	3.5580	-2.0334	25.30	0.14	-0.750			
0.5272	33739.67	3.5550	3.5550	-2.0497	25.30	0.14	-0.750			
0.5334	34137.90	3.5520	3.5517	-2.0463	25.29	0.13	-0.750			
0.5396	34535.23	3.5490	3.5493	-2.0717	25.29	0.13	-0.750			
0.5457	34926.34	3.5460	3.5459	-2.0385	25.30	0.14	-0.750			
0.5519	35321.42	3.5430	3.5428	-2.0320	25.30	0.14	-0.750			
0.5580	35714.02	3.5400	3.5403	-2.0193	25.30	0.14	-0.750			
0.5641	36100.47	3.5370	3.5369	-2.0366	25.30	0.14	-0.750			
0.5701	36489.28	3.5340	3.5340	-1.9907	25.31	0.15	-0.750			
0.5762	36874.65	3.5310	3.5311	-1.9634	25.31	0.15	-0.750			
0.5821	37253.79	3.5280	3.5280	-1.9648	25.32	0.16	-0.750			
0.5879	37622.57	3.5250	3.5251	-1.9130	25.32	0.16	-0.750			
0.5935	37987.16	3.5220	3.5220	-1.8824	25.33	0.17	-0.750			
0.5991	38343.48	3.5190	3.5190	-1.8365	25.34	0.18	-0.750			
0.6046	38695.29	3.5160	3.5159	-1.8083	25.34	0.18	-0.750			
0.6101	39044.64	3.5130	3.5129	-1.7708	25.35	0.19	-0.750			
0.6153	39378.57	3.5100	3.5101	-1.7288	25.35	0.19	-0.750			
0.6204	39705.83	3.5070	3.5071	-1.6877	25.36	0.20	-0.750			
0.6254	40028.28	3.5040	3.5040	-1.6457	25.36	0.20	-0.750			
0.6303	40339.00	3.5010	3.5011	-1.5966	25.38	0.22	-0.750			
0.6350	40640.94	3.4980	3.4981	-1.5617	25.39	0.23	-0.750			
0.6396	40934.19	3.4950	3.4949	-1.5112	25.40	0.24	-0.750			
0.6441	41222.87	3.4920	3.4919	-1.4674	25.41	0.25	-0.750			
0.6484	41498.59	3.4890	3.4889	-1.4310	25.42	0.26	-0.750			
0.6526	41769.10	3.4860	3.4860	-1.3850	25.43	0.27	-0.750			
0.6568	42034.57	3.4830	3.4828	-1.3431	25.44	0.28	-0.750			
0.6607	42287.09	3.4800	3.4801	-1.2941	25.46	0.30	-0.750			
0.6645	42529.25	3.4770	3.4770	-1.2534	25.47	0.31	-0.750			
0.6683	42770.00	3.4740	3.4739	-1.2196	25.48	0.32	-0.750			
0.6719	42998.91	3.4710	3.4709	-1.1765	25.49	0.33	-0.750			
0.6753	43216.24	3.4680	3.4682	-1.1381	25.51	0.35	-0.750			
0.6787	43435.50	3.4650	3.4650	-1.1092	25.52	0.36	-0.750			
0.6819	43644.57	3.4620	3.4619	-1.0720	25.54	0.38	-0.750			
0.6851	43844.45	3.4590	3.4590	-1.0307	25.55	0.39	-0.750			
0.6882	44042.47	3.4560	3.4560	-1.0091	25.57	0.41	-0.750			
0.6911	44233.25	3.4530	3.4530	-0.9872	25.58	0.42	-0.750			
0.6941	44421.69	3.4500	3.4499	-0.9520	25.60	0.44	-0.750			
0.6969	44599.25	3.4470	3.4469	-0.9185	25.61	0.45	-0.750			
0.6996	44773.84	3.4440	3.4443	-0.8967	25.62	0.46	-0.750			
0.7022	44942.51	3.4410	3.4408	-0.8742	25.63	0.47	-0.750			
0.7048	45105.67	3.4380	3.4380	-0.8612	25.64	0.48	-0.750			
0.7073	45265.82	3.4350	3.4350	-0.8460	25.65	0.49	-0.750			
0.7098	45429.79	3.4320	3.4320	-0.8483	25.65	0.49	-0.750			
0.7124	45592.31	3.4290	3.4291	-0.8468	25.66	0.50	-0.750			
0.7149	45753.70	3.4260	3.4260	-0.8416	25.67	0.51	-0.750			
0.7174	45914.52	3.4230	3.4229	-0.8448	25.68	0.52	-0.750			
0.7199	46076.12	3.4200	3.4200	-0.8434	25.69	0.53	-0.750			
0.7225	46237.85	3.4170	3.4170	-0.8476	25.69	0.53	-0.750			
0.7250	46402.10	3.4140	3.4141	-0.8491	25.70	0.54	-0.750			
0.7276	46564.56	3.4110	3.4110	-0.8540	25.71	0.55	-0.750			
0.7301	46729.52	3.4080	3.4080	-0.8517	25.72	0.56	-0.750			
0.7327	46893.49	3.4050	3.4050	-0.8486	25.73	0.57	-0.750			
0.7353	47057.08	3.4020	3.4020	-0.8439	25.74	0.58	-0.750			
0.7378	47220.21	3.3990	3.3990	-0.8364	25.75	0.59	-0.750			
0.7403	47379.94	3.3960	3.3960	-0.8252	25.76	0.60	-0.750			
0.7428	47538.65	3.3930	3.3930	-0.8094	25.76	0.60	-0.750			
0.7452	47692.18	3.3900	3.3900	-0.7899	25.76	0.60	-0.750			
0.7476	47843.61	3.3870	3.3869	-0.7743	25.77	0.61	-0.750			
0.7498	47990.27	3.3840	3.3841	-0.7527	25.77	0.61	-0.750			
0.7521	48132.70	3.3810	3.3810	-0.7312	25.78	0.62	-0.750			
0.7542	48271.44	3.3780	3.3780	-0.7124	25.79	0.63	-0.750			
0.7563	48405.40	3.3750	3.3751	-0.6883	25.79	0.63	-0.750			
0.7584	48537.04	3.3720	3.3719	-0.6723	25.80	0.64	-0.750			
0.7604	48663.61	3.3690	3.3691	-0.6528	25.81	0.65	-0.750			
0.7623	48787.19	3.3660	3.3660	-0.6325	25.81	0.65	-0.750			
0.7642	48906.60	3.3630	3.3629	-0.6123	25.82	0.66	-0.750			
0.7660	49022.41	3.3600	3.3600	-0.5929	25.82	0.66	-0.750			
0.7677	49133.95	3.3570	3.3570	-0.5745	25.83	0.67	-0.750			
0.7694	49242.25	3.3540	3.3540	-0.5617	25.83	0.67	-0.750			
0.7711	49349.36	3.3510	3.3509	-0.5425	25.84	0.68	-0.750			
0.7727	49451.38	3.3480	3.3480	-0.5245	25.85	0.69	-0.750			
0.7742	49550.81	3.3450	3.3454	-0.5082	25.85	0.69	-0.750			
0.7757	49646.95	3.3420	3.3418	-0.4923	25.86	0.70	-0.750			
0.7772	49739.34	3.3390	3.3390	-0.4765	25.86	0.70	-0.750			
0.7786	49827.46	3.3360	3.3360	-0.4600	25.86	0.70	-0.750			
0.7799	49915.50	3.3330	3.3330	-0.4495	25.87	0.71	-0.750			
0.7813	50000.66	3.3300	3.3300	-0.4370	25.87	0.71	-0.750			
0.7825	50081.61	3.3270	3.3270	-0.4272	25.88	0.72	-0.750			
0.7838	50163.09	3.3240	3.3240	-0.4167	25.88	0.72	-0.750			
0.7850	50241.80	3.3210	3.3209	-0.4058	25.88	0.72	-0.750			
0.7862	50319.08	3.3180	3.3180	-0.3969	25.89	0.73	-0.750			
0.7874	50394.79	3.3150	3.3152	-0.3867	25.89	0.73	-0.750			
0.7886	50467.98	3.3120	3.3119	-0.3773	25.90	0.74	-0.750			
0.7897	50538.64	3.3090	3.3091	-0.3671	25.90	0.74	-0.750			
0.7907	50607.72	3.3060	3.3060	-0.3575	25.91	0.75	-0.750			
0.7918	50676.67	3.3030	3.3029	-0.3513	25.91	0.75	-0.750			
0.7929	50742.88	3.3000	3.3001	-0.3425	25.92	0.76	-0.750			
0.7939	50807.85	3.2970	3.2970	-0.3335	25.92	0.76	-0.750			
0.7949	50870.76	3.2940	3.2940	-0.3276	25.93	0.77	-0.750			
0.7958	50932.87	3.2910	3.2910	-0.3203	25.93	0.77	-0.750			
0.7968	50993.10	3.2880	3.2880	-0.3134	25.94	0.78	-0.750			
0.7977	51053.17	3.2850	3.2850	-0.3072	25.94	0.78	-0.750			
0.7986	51111.43	3.2820	3.2821	-0.3028	25.95	0.79	-0.750			
0.7995	51168.92	3.2790	3.2789	-0.2973	25.95	0.79	-0.750			
0.8004	51225.38	3.2760	3.2760	-0.2932	25.96	0.80	-0.750			
0.8013	51280.77	3.2730	3.2730	-0.2874	25.96	0.80	-0.750			
0.8021	51335.77	3.2700	3.2700	-0.2837	25.97	0.81	-0.750			
0.8030	51389.83	3.2670	3.2670	-0.2791	25.97	0.81	-0.750			
0.8038	51443.07	3.2640	3.2639	-0.2740	25.98	0.82	-0.750			
0.8046	51494.87	3.2610	3.2610	-0.2689	25.98	0.82	-0.750			
0.8054	51546.54	3.2580	3.2581	-0.2646	25.99	0.83	-0.750			
0.8062	51596.48	3.2550	3.2550	-0.2599	25.99	0.83	-0.750			
0.8070	51646.14	3.2520	3.2518	-0.2564	26.00	0.84	-0.750			
0.8077	51694.44	3.2490	3.2491	-0.2522	26.00	0.84	-0.750			
0.8085	51742.33	3.2460	3.2459	-0.2493	26.01	0.85	-0.750			
0.8092	51790.21	3.2430	3.2430	-0.2457	26.01	0.85	-0.750			
0.8100	51837.16	3.2400	3.2400	-0.2424	26.02	0.86	-0.750			
0.8107	51883.35	3.2370	3.2370	-0.2389	26.02	0.86	-0.750			
0.8114	51929.50	3.2340	3.2338	-0.2346	26.03	0.87	-0.750			
0.8121	51973.36	3.2310	3.2310	-0.2317	26.03	0.87	-0.750			
0.8128	52017.37	3.2280	3.2280	-0.2285	26.04	0.88	-0.750			
0.8134	52060.78	3.2250	3.2250	-0.2247	26.05	0.89	-0.750			
0.8141	52103.71	3.2220	3.2218	-0.2205	26.05	0.89	-0.750			
0.8148	52145.69	3.2190	3.2191	-0.2191	26.06	0.90	-0.750			
0.8154	52187.32	3.2160	3.2161	-0.2162	26.06	0.90	-0.750			
0.8161	52228.57	3.2130	3.2131	-0.2143	26.07	0.91	-0.750			
0.8167	52269.75	3.2100	3.2098	-0.2123	26.07	0.91	-0.750			
0.8173	52309.73	3.2070	3.2071	-0.2081	26.08	0.92	-0.750			
0.8180	52349.55	3.2040	3.2041	-0.2066	26.08	0.92	-0.750			
0.8186	52389.74	3.2010	3.2010	-0.2045	26.09	0.93	-0.750			
0.8192	52428.95	3.1980	3.1980	-0.2024	26.10	0.94	-0.750			
0.8198	52466.96	3.1950	3.1950	-0.1985	26.10	0.94	-0.750			
0.8204	52504.87	3.1920	3.1920	-0.1963	26.11	0.95	-0.750			
0.8210	52542.26	3.1890	3.1890	-0.1944	26.11	0.95	-0.750			
0.8216	52579.37	3.1860	3.1860	-0.1923	26.12	0.96	-0.750			
0.8221	52616.08	3.1830	3.1830	-0.1909	26.12	0.96	-0.750			
0.8227	52652.68	3.1800	3.1800	-0.1887	26.13	0.97	-0.750			
0.8233	52688.80	3.1770	3.1770	-0.1866	26.13	0.97	-0.750			
0.8238	52724.41	3.1740	3.1740	-0.1844	26.13	0.97	-0.750			
0.8244	52759.55	3.1710	3.1711	-0.1830	26.13	0.97	-0.750			
0.8249	52794.45	3.1680	3.1681	-0.1810	26.14	0.98	-0.750			
0.8255	52829.11	3.1650	3.1648	-0.1791	26.14	0.98	-0.750			
0.8260	52863.33	3.1620	3.1620	-0.1772	26.15	0.99	-0.750			
0.8265	52897.09	3.1590	3.1591	-0.1750	26.16	1.00	-0.750			
0.8270	52930.65	3.1560	3.1561	-0.1738	26.16	1.00	-0.750			
0.8276	52963.85	3.1530	3.1529	-0.1718	26.17	1.01	-0.750			
0.8281	52996.60	3.1500	3.1500	-0.1699	26.17	1.01	-0.750			
0.8286	53028.68	3.1470	3.1470	-0.1684	26.18	1.02	-0.750			
0.8291	53061.05	3.1440	3.1440	-0.1670	26.19	1.03	-0.750			
0.8296	53092.97	3.1410	3.1410	-0.1656	26.19	1.03	-0.750			
0.8301	53124.76	3.1380	3.1379	-0.1638	26.20	1.04	-0.750			
0.8306	53156.18	3.1350	3.1351	-0.1620	26.20	1.04	-0.750			
0.8310	53186.96	3.1320	3.1321	-0.1602	26.21	1.05	-0.750			
0.8315	53217.39	3.1290	3.1290	-0.1589	26.21	1.05	-0.750			
0.8320	53247.69	3.1260	3.1260	-0.1574	26.22	1.06	-0.750			
0.8325	53277.47	3.1230	3.1230	-0.1563	26.22	1.06	-0.750			
0.8329	53307.50	3.1200	3.1200	-0.1555	26.23	1.07	-0.750			
0.8334	53337.28	3.1170	3.1170	-0.1547	26.24	1.08	-0.750			
0.8339	53367.14	3.1140	3.1140	-0.1524	26.24	1.08	-0.750			
0.8343	53396.33	3.1110	3.1110	-0.1516	26.24	1.08	-0.750			
0.8348	53425.15	3.1080	3.1081	-0.1502	26.25	1.09	-0.750			
0.8352	53453.68	3.1050	3.1050	-0.1486	26.25	1.09	-0.750			
0.8357	53482.12	3.1020	3.1019	-0.1476	26.26	1.10	-0.750			
0.8361	53510.28	3.0990	3.0990	-0.1462	26.26	1.10	-0.750			
0.8365	53538.40	3.0960	3.0960	-0.1452	26.27	1.11	-0.750			
0.8370	53566.18	3.0930	3.0930	-0.1440	26.27	1.11	-0.750			
0.8374	53594.15	3.0900	3.0900	-0.1424	26.28	1.12	-0.750			
0.8378	53620.94	3.0870	3.0871	-0.1409	26.29	1.13	-0.750			
0.8382	53647.50	3.0840	3.0841	-0.1401	26.29	1.13	-0.750			
0.8387	53674.37	3.0810	3.0810	-0.1398	26.30	1.14	-0.750			
0.8391	53701.05	3.0780	3.0779	-0.1386	26.30	1.14	-0.750			
0.8395	53727.70	3.0750	3.0749	-0.1379	26.31	1.15	-0.750			
0.8399	53754.25	3.0720	3.0721	-0.1375	26.31	1.15	-0.750			
0.8403	53780.68	3.0690	3.0691	-0.1356	26.32	1.16	-0.750			
0.8407	53806.77	3.0660	3.0660	-0.1350	26.33	1.17	-0.750			
0.8411	53832.38	3.0630	3.0629	-0.1331	26.33	1.17	-0.750			
0.8415	53857.41	3.0600	3.0601	-0.1317	26.34	1.18	-0.750			
0.8419	53882.68	3.0570	3.0569	-0.1315	26.34	1.18	-0.750			
0.8423	53907.96	3.0540	3.0541	-0.1312	26.35	1.19	-0.750			
0.8427	53933.39	3.0510	3.0508	-0.1301	26.35	1.19	-0.750			
0.8431	53958.27	3.0480	3.0481	-0.1290	26.36	1.20	-0.750			
0.8435	53983.32	3.0450	3.0448	-0.1280	26.36	1.20	-0.750			
0.8439	54007.80	3.0420	3.0422	-0.1263	26.37	1.21	-0.750			
0.8442	54031.64	3.0390	3.0389	-0.1259	26.37	1.21	-0.750			
0.8446	54055.47	3.0360	3.0360	-0.1247	26.38	1.22	-0.750			
0.8450	54079.38	3.0330	3.0330	-0.1240	26.38	1.22	-0.750			
0.8454	54102.80	3.0300	3.0298	-0.1232	26.39	1.23	-0.750			
0.8457	54126.54	3.0270	3.0271	-0.1227	26.39	1.23	-0.750			
0.8461	54150.35	3.0240	3.0241	-0.1225	26.40	1.24	-0.750			
0.8465	54174.14	3.0210	3.0210	-0.1213	26.40	1.24	-0.750			
0.8468	54197.27	3.0180	3.0179	-0.1196	26.41	1.25	-0.750			
0.8472	54220.08	3.0150	3.0150	-0.1180	26.41	1.25	-0.750			
0.8475	54242.58	3.0120	3.0121	-0.1163	26.42	1.26	-0.750			
0.8479	54264.95	3.0090	3.0090	-0.1145	26.42	1.26	-0.750			
0.8482	54286.73	3.0060	3.0059	-0.1123	26.43	1.27	-0.751			
0.8486	54308.14	3.0030	3.0029	-0.1128	26.43	1.27	-0.751			
