Ah_balance (normalized)	Ah_balance (mAh)	Voltage - fit (V)	Voltage -  interpolate (V)	dQ/dV (1/V)	Temperature (°C)	Temperature - diff (°C)	Current (C)	R_DC 0ms (mOhm)	R_DC 50ms (mOhm)	R_DC 50 ms PEC (mOhm)
0.0004	23.15	4.1560	4.1559	-0.1223	25.07	0.01	-0.750			
0.0008	50.62	4.1530	4.1529	-0.1594	25.07	0.01	-0.750			
0.0013	84.46	4.1500	4.1500	-0.1938	25.06	0.00	-0.750			
0.0020	124.97	4.1470	4.1470	-0.2282	25.06	0.00	-0.750			
0.0027	172.56	4.1440	4.1441	-0.2606	25.06	0.00	-0.750			
0.0035	225.68	4.1410	4.1410	-0.2960	25.06	0.00	-0.750			
0.0045	285.94	4.1380	4.1380	-0.3267	25.06	0.00	-0.750			
0.0055	351.97	4.1350	4.1350	-0.3575	25.06	0.00	-0.750			
0.0066	424.34	4.1320	4.1320	-0.3849	25.06	0.00	-0.750			
0.0078	501.59	4.1290	4.1289	-0.4112	25.06	-0.00	-0.750			
0.0091	583.63	4.1260	4.1261	-0.4360	25.06	-0.00	-0.750			
0.0105	669.89	4.1230	4.1230	-0.4589	25.06	-0.00	-0.750			
0.0119	759.79	4.1200	4.1200	-0.4786	25.06	-0.00	-0.750			
0.0133	854.24	4.1170	4.1171	-0.5017	25.06	-0.00	-0.750			
0.0149	952.68	4.1140	4.1140	-0.5226	25.05	-0.01	-0.750			
0.0165	1055.71	4.1110	4.1109	-0.5389	25.05	-0.01	-0.750			
0.0182	1161.70	4.1080	4.1080	-0.5543	25.05	-0.01	-0.750			
0.0198	1269.90	4.1050	4.1052	-0.5666	25.05	-0.01	-0.750			
0.0216	1381.03	4.1020	4.1019	-0.5784	25.05	-0.01	-0.750			
0.0233	1493.50	4.0990	4.0990	-0.5857	25.05	-0.01	-0.750			
0.0251	1605.26	4.0960	4.0960	-0.5936	25.05	-0.01	-0.750			
0.0269	1720.96	4.0930	4.0930	-0.6067	25.05	-0.01	-0.750			
0.0287	1838.86	4.0900	4.0899	-0.6134	25.05	-0.01	-0.750			
0.0306	1957.26	4.0870	4.0869	-0.6200	25.05	-0.01	-0.750			
0.0325	2076.85	4.0840	4.0841	-0.6272	25.05	-0.01	-0.750			
0.0344	2198.47	4.0810	4.0810	-0.6348	25.05	-0.01	-0.750			
0.0363	2321.14	4.0780	4.0779	-0.6410	25.05	-0.01	-0.750			
0.0382	2443.99	4.0750	4.0750	-0.6462	25.05	-0.01	-0.750			
0.0402	2569.64	4.0720	4.0720	-0.6524	25.05	-0.01	-0.750			
0.0421	2695.91	4.0690	4.0690	-0.6568	25.05	-0.01	-0.750			
0.0441	2823.07	4.0660	4.0660	-0.6600	25.05	-0.01	-0.750			
0.0461	2949.32	4.0630	4.0630	-0.6606	25.05	-0.01	-0.750			
0.0481	3075.87	4.0600	4.0600	-0.6625	25.05	-0.01	-0.750			
0.0500	3203.01	4.0570	4.0571	-0.6677	25.05	-0.01	-0.750			
0.0520	3330.46	4.0540	4.0539	-0.6738	25.05	-0.01	-0.750			
0.0541	3461.53	4.0510	4.0511	-0.6824	25.05	-0.01	-0.750			
0.0562	3593.64	4.0480	4.0480	-0.6862	25.05	-0.01	-0.750			
0.0582	3727.00	4.0450	4.0448	-0.6925	25.05	-0.01	-0.750			
0.0603	3861.12	4.0420	4.0420	-0.6934	25.06	-0.00	-0.750			
0.0624	3993.21	4.0390	4.0390	-0.6928	25.06	-0.00	-0.750			
0.0645	4125.95	4.0360	4.0360	-0.6905	25.06	0.00	-0.750			
0.0666	4259.39	4.0330	4.0330	-0.6948	25.07	0.01	-0.750			
0.0686	4391.32	4.0300	4.0300	-0.6966	25.07	0.01	-0.750			
0.0707	4525.95	4.0270	4.0269	-0.6972	25.07	0.01	-0.750			
0.0728	4659.38	4.0240	4.0240	-0.6982	25.08	0.02	-0.750			
0.0749	4793.80	4.0210	4.0211	-0.7041	25.08	0.02	-0.750			
0.0770	4929.37	4.0180	4.0180	-0.7060	25.09	0.03	-0.750			
0.0792	5066.07	4.0150	4.0148	-0.7077	25.09	0.03	-0.750			
0.0813	5201.24	4.0120	4.0121	-0.7077	25.10	0.04	-0.750			
0.0834	5337.56	4.0090	4.0090	-0.7115	25.10	0.04	-0.750			
0.0856	5475.97	4.0060	4.0060	-0.7145	25.11	0.05	-0.750			
0.0877	5612.25	4.0030	4.0029	-0.7196	25.11	0.05	-0.750			
0.0898	5749.65	4.0000	4.0000	-0.7178	25.11	0.05	-0.750			
0.0920	5889.73	3.9970	3.9970	-0.7214	25.12	0.06	-0.750			
0.0942	6027.71	3.9940	3.9942	-0.7240	25.12	0.06	-0.750			
0.0964	6167.01	3.9910	3.9909	-0.7263	25.12	0.06	-0.750			
0.0985	6305.88	3.9880	3.9879	-0.7253	25.13	0.07	-0.750			
0.1007	6445.57	3.9850	3.9850	-0.7278	25.13	0.07	-0.750			
0.1029	6584.11	3.9820	3.9821	-0.7273	25.13	0.07	-0.750			
0.1051	6727.02	3.9790	3.9790	-0.7353	25.14	0.08	-0.750			
0.1073	6867.45	3.9760	3.9761	-0.7356	25.14	0.08	-0.750			
0.1095	7007.99	3.9730	3.9730	-0.7330	25.14	0.08	-0.750			
0.1117	7148.44	3.9700	3.9700	-0.7413	25.14	0.08	-0.750			
0.1139	7292.78	3.9670	3.9669	-0.7406	25.15	0.09	-0.750			
0.1162	7436.38	3.9640	3.9640	-0.7416	25.15	0.09	-0.750			
0.1184	7577.67	3.9610	3.9609	-0.7417	25.15	0.09	-0.750			
0.1206	7719.64	3.9580	3.9581	-0.7438	25.15	0.09	-0.750			
0.1228	7862.30	3.9550	3.9549	-0.7488	25.16	0.10	-0.750			
0.1251	8005.78	3.9520	3.9520	-0.7531	25.16	0.10	-0.750			
0.1273	8149.63	3.9490	3.9490	-0.7547	25.17	0.11	-0.750			
0.1296	8296.94	3.9460	3.9460	-0.7668	25.17	0.11	-0.750			
0.1320	8445.19	3.9430	3.9431	-0.7724	25.18	0.12	-0.750			
0.1343	8593.39	3.9400	3.9399	-0.7770	25.18	0.12	-0.750			
0.1366	8743.72	3.9370	3.9370	-0.7790	25.19	0.13	-0.750			
0.1390	8894.42	3.9340	3.9340	-0.7790	25.19	0.13	-0.750			
0.1413	9045.01	3.9310	3.9311	-0.7756	25.19	0.13	-0.750			
0.1437	9195.60	3.9280	3.9280	-0.7729	25.20	0.14	-0.750			
0.1460	9342.25	3.9250	3.9250	-0.7661	25.20	0.14	-0.750			
0.1482	9486.80	3.9220	3.9220	-0.7672	25.21	0.15	-0.750			
0.1505	9633.35	3.9190	3.9190	-0.7691	25.21	0.15	-0.750			
0.1528	9781.27	3.9160	3.9160	-0.7726	25.21	0.15	-0.750			
0.1552	9929.99	3.9130	3.9130	-0.7748	25.22	0.16	-0.750			
0.1575	10081.04	3.9100	3.9102	-0.7767	25.22	0.16	-0.750			
0.1598	10229.76	3.9070	3.9070	-0.7780	25.22	0.16	-0.750			
0.1622	10378.95	3.9040	3.9040	-0.7795	25.23	0.17	-0.750			
0.1645	10528.23	3.9010	3.9010	-0.7791	25.23	0.17	-0.750			
0.1668	10677.88	3.8980	3.8980	-0.7814	25.24	0.18	-0.750			
0.1692	10828.07	3.8950	3.8949	-0.7839	25.24	0.18	-0.750			
0.1716	10979.90	3.8920	3.8920	-0.7862	25.24	0.18	-0.750			
0.1739	11130.12	3.8890	3.8891	-0.7920	25.25	0.19	-0.750			
0.1763	11282.01	3.8860	3.8860	-0.7907	25.25	0.19	-0.750			
0.1787	11434.84	3.8830	3.8830	-0.7920	25.25	0.19	-0.750			
0.1811	11587.93	3.8800	3.8800	-0.7890	25.26	0.20	-0.750			
0.1834	11738.50	3.8770	3.8770	-0.7878	25.26	0.20	-0.750			
0.1858	11889.42	3.8740	3.8740	-0.7878	25.27	0.21	-0.750			
0.1881	12040.42	3.8710	3.8708	-0.7868	25.27	0.21	-0.750			
0.1905	12189.72	3.8680	3.8681	-0.7845	25.27	0.21	-0.750			
0.1929	12342.83	3.8650	3.8650	-0.7841	25.28	0.22	-0.750			
0.1952	12495.19	3.8620	3.8621	-0.7762	25.28	0.22	-0.750			
0.1976	12643.38	3.8590	3.8590	-0.7724	25.28	0.22	-0.750			
0.1998	12787.64	3.8560	3.8561	-0.7735	25.29	0.23	-0.750			
0.2021	12935.56	3.8530	3.8528	-0.7784	25.29	0.23	-0.750			
0.2044	13084.63	3.8500	3.8500	-0.7796	25.30	0.24	-0.750			
0.2068	13235.44	3.8470	3.8469	-0.7854	25.30	0.24	-0.750			
0.2092	13388.79	3.8440	3.8440	-0.7909	25.30	0.24	-0.750			
0.2116	13541.58	3.8410	3.8409	-0.7912	25.30	0.24	-0.750			
0.2139	13691.83	3.8380	3.8380	-0.7816	25.31	0.25	-0.750			
0.2163	13841.41	3.8350	3.8350	-0.7776	25.31	0.25	-0.750			
0.2186	13990.78	3.8320	3.8321	-0.7774	25.31	0.25	-0.750			
0.2209	14140.24	3.8290	3.8288	-0.7752	25.31	0.25	-0.750			
0.2232	14286.93	3.8260	3.8260	-0.7782	25.31	0.25	-0.750			
0.2256	14436.72	3.8230	3.8231	-0.7781	25.31	0.25	-0.750			
0.2279	14586.82	3.8200	3.8199	-0.7760	25.32	0.26	-0.750			
0.2303	14737.38	3.8170	3.8170	-0.7743	25.32	0.26	-0.750			
0.2326	14885.19	3.8140	3.8141	-0.7720	25.32	0.26	-0.750			
0.2349	15033.07	3.8110	3.8110	-0.7653	25.33	0.27	-0.750			
0.2372	15179.75	3.8080	3.8080	-0.7631	25.33	0.27	-0.750			
0.2394	15324.79	3.8050	3.8050	-0.7587	25.34	0.28	-0.750			
0.2417	15471.70	3.8020	3.8020	-0.7556	25.34	0.28	-0.750			
0.2440	15616.80	3.7990	3.7990	-0.7473	25.35	0.29	-0.750			
0.2462	15758.23	3.7960	3.7960	-0.7474	25.35	0.29	-0.750			
0.2484	15900.65	3.7930	3.7930	-0.7450	25.35	0.29	-0.750			
0.2507	16043.58	3.7900	3.7899	-0.7461	25.35	0.29	-0.750			
0.2529	16187.20	3.7870	3.7870	-0.7398	25.36	0.30	-0.750			
0.2552	16330.21	3.7840	3.7841	-0.7400	25.36	0.30	-0.750			
0.2574	16472.64	3.7810	3.7811	-0.7379	25.36	0.30	-0.750			
0.2596	16614.05	3.7780	3.7779	-0.7351	25.37	0.31	-0.750			
0.2618	16752.25	3.7750	3.7750	-0.7307	25.37	0.31	-0.750			
0.2639	16892.53	3.7720	3.7720	-0.7283	25.38	0.32	-0.750			
0.2661	17033.27	3.7690	3.7690	-0.7303	25.38	0.32	-0.750			
0.2683	17173.79	3.7660	3.7659	-0.7277	25.39	0.33	-0.750			
0.2705	17312.08	3.7630	3.7631	-0.7271	25.39	0.33	-0.750			
0.2727	17451.59	3.7600	3.7600	-0.7305	25.40	0.34	-0.750			
0.2749	17591.37	3.7570	3.7569	-0.7334	25.40	0.34	-0.750			
0.2771	17733.09	3.7540	3.7540	-0.7336	25.41	0.35	-0.750			
0.2793	17875.49	3.7510	3.7511	-0.7403	25.41	0.35	-0.750			
0.2815	18018.16	3.7480	3.7481	-0.7443	25.42	0.36	-0.750			
0.2838	18160.47	3.7450	3.7449	-0.7501	25.42	0.36	-0.750			
0.2860	18301.30	3.7420	3.7420	-0.7550	25.42	0.36	-0.750			
0.2882	18447.71	3.7390	3.7390	-0.7627	25.42	0.36	-0.750			
0.2905	18594.47	3.7360	3.7359	-0.7743	25.42	0.36	-0.750			
0.2929	18745.71	3.7330	3.7331	-0.7916	25.42	0.36	-0.750			
0.2953	18898.68	3.7300	3.7300	-0.8006	25.42	0.36	-0.750			
0.2977	19052.78	3.7270	3.7270	-0.8179	25.42	0.36	-0.750			
0.3002	19213.12	3.7240	3.7240	-0.8264	25.43	0.37	-0.750			
0.3027	19372.48	3.7210	3.7211	-0.8355	25.43	0.37	-0.750			
0.3052	19534.35	3.7180	3.7179	-0.8506	25.44	0.38	-0.750			
0.3078	19697.08	3.7150	3.7151	-0.8582	25.44	0.38	-0.750			
0.3103	19861.65	3.7120	3.7119	-0.8760	25.44	0.38	-0.750			
0.3130	20031.50	3.7090	3.7089	-0.8895	25.44	0.38	-0.750			
0.3157	20203.25	3.7060	3.7060	-0.8992	25.44	0.38	-0.750			
0.3184	20379.58	3.7030	3.7031	-0.9234	25.44	0.38	-0.750			
0.3212	20558.10	3.7000	3.7000	-0.9356	25.44	0.38	-0.750			
0.3241	20739.69	3.6970	3.6969	-0.9538	25.43	0.37	-0.750			
0.3269	20924.05	3.6940	3.6940	-0.9682	25.43	0.37	-0.750			
0.3299	21111.29	3.6910	3.6910	-0.9806	25.42	0.36	-0.750			
0.3328	21301.72	3.6880	3.6882	-1.0052	25.42	0.36	-0.750			
0.3359	21497.25	3.6850	3.6849	-1.0216	25.42	0.36	-0.750			
0.3389	21692.71	3.6820	3.6819	-1.0369	25.41	0.35	-0.750			
0.3421	21892.20	3.6790	3.6791	-1.0485	25.41	0.35	-0.750			
0.3453	22097.10	3.6760	3.6762	-1.0793	25.41	0.35	-0.750			
0.3485	22306.94	3.6730	3.6729	-1.0966	25.40	0.34	-0.750			
0.3519	22519.20	3.6700	3.6700	-1.1152	25.40	0.34	-0.750			
0.3552	22734.29	3.6670	3.6670	-1.1320	25.39	0.33	-0.750			
0.3587	22954.60	3.6640	3.6640	-1.1578	25.39	0.33	-0.750			
0.3622	23178.59	3.6610	3.6610	-1.1791	25.38	0.32	-0.750			
0.3657	23407.10	3.6580	3.6580	-1.2022	25.38	0.32	-0.750			
0.3693	23637.70	3.6550	3.6551	-1.2209	25.37	0.31	-0.750			
0.3731	23876.53	3.6520	3.6520	-1.2427	25.36	0.30	-0.750			
0.3768	24117.19	3.6490	3.6490	-1.2613	25.35	0.29	-0.750			
0.3806	24359.15	3.6460	3.6460	-1.2919	25.34	0.28	-0.750			
0.3845	24609.14	3.6430	3.6429	-1.3112	25.34	0.28	-0.750			
0.3885	24863.04	3.6400	3.6400	-1.3400	25.34	0.28	-0.750			
0.3925	25123.17	3.6370	3.6370	-1.3671	25.34	0.28	-0.750			
0.3967	25390.24	3.6340	3.6339	-1.3906	25.34	0.28	-0.750			
0.4009	25660.60	3.6310	3.6310	-1.4152	25.33	0.27	-0.750			
0.4052	25932.93	3.6280	3.6280	-1.4455	25.32	0.26	-0.750			
0.4096	26212.41	3.6250	3.6250	-1.4660	25.32	0.26	-0.750			
0.4140	26494.16	3.6220	3.6220	-1.5253	25.31	0.25	-0.750			
0.4186	26791.78	3.6190	3.6190	-1.5508	25.30	0.24	-0.750			
0.4234	27097.48	3.6160	3.6158	-1.5754	25.29	0.23	-0.750			
0.4282	27405.09	3.6130	3.6130	-1.6042	25.29	0.23	-0.750	0.389	0.558	
0.4331	27716.41	3.6100	3.6100	-1.6239	25.28	0.22	-0.750			
0.4379	28027.03	3.6070	3.6070	-1.6430	25.28	0.22	-0.750			
0.4429	28343.94	3.6040	3.6040	-1.6605	25.27	0.21	-0.750			
0.4477	28655.13	3.6010	3.6010	-1.7070	25.27	0.21	-0.750			
0.4531	28998.63	3.5980	3.5978	-1.7392	25.26	0.20	-0.750			
0.4584	29339.11	3.5950	3.5950	-1.7633	25.26	0.20	-0.750			
0.4637	29679.50	3.5920	3.5921	-1.7783	25.26	0.20	-0.750			
0.4691	30021.45	3.5890	3.5889	-1.8143	25.26	0.20	-0.750			
0.4745	30371.01	3.5860	3.5862	-1.8393	25.25	0.19	-0.750			
0.4800	30720.17	3.5830	3.5828	-1.8785	25.24	0.18	-0.750			
0.4856	31077.85	3.5800	3.5802	-1.9238	25.24	0.18	-0.750			
0.4916	31460.22	3.5770	3.5769	-1.9664	25.24	0.18	-0.750			
0.4976	31845.89	3.5740	3.5741	-1.9964	25.24	0.18	-0.750			
0.5037	32236.85	3.5710	3.5711	-2.0328	25.23	0.17	-0.750			
0.5098	32627.26	3.5680	3.5680	-2.0567	25.23	0.17	-0.750			
0.5161	33028.55	3.5650	3.5649	-2.0600	25.23	0.17	-0.750			
0.5222	33422.57	3.5620	3.5620	-2.0708	25.23	0.17	-0.750			
0.5285	33820.91	3.5590	3.5590	-2.0933	25.22	0.16	-0.750			
0.5349	34232.38	3.5560	3.5557	-2.1045	25.22	0.16	-0.750			
0.5411	34633.22	3.5530	3.5530	-2.1066	25.22	0.16	-0.750			
0.5474	35036.18	3.5500	3.5501	-2.1001	25.22	0.16	-0.750			
0.5538	35442.54	3.5470	3.5472	-2.0919	25.23	0.17	-0.750			
0.5601	35844.82	3.5440	3.5440	-2.0955	25.23	0.17	-0.750			
0.5663	36244.75	3.5410	3.5407	-2.0855	25.23	0.17	-0.750			
0.5726	36648.41	3.5380	3.5377	-2.0754	25.23	0.17	-0.750			
0.5789	37052.45	3.5350	3.5351	-2.0668	25.24	0.18	-0.750			
0.5850	37442.46	3.5320	3.5320	-2.0288	25.24	0.18	-0.750			
0.5911	37830.77	3.5290	3.5292	-1.9864	25.25	0.19	-0.750			
0.5970	38207.08	3.5260	3.5258	-1.9603	25.25	0.19	-0.750			
0.6029	38582.52	3.5230	3.5230	-1.9284	25.26	0.20	-0.750			
0.6086	38952.47	3.5200	3.5200	-1.8896	25.26	0.20	-0.750			
0.6143	39317.91	3.5170	3.5170	-1.8640	25.27	0.21	-0.750			
0.6197	39663.90	3.5140	3.5143	-1.8202	25.28	0.22	-0.750			
0.6252	40013.82	3.5110	3.5111	-1.7727	25.29	0.23	-0.750			
0.6305	40352.93	3.5080	3.5079	-1.7351	25.31	0.25	-0.750			
0.6355	40675.02	3.5050	3.5050	-1.6840	25.32	0.26	-0.750			
0.6406	40997.73	3.5020	3.5018	-1.6494	25.33	0.27	-0.750			
0.6455	41310.69	3.4990	3.4989	-1.5917	25.34	0.28	-0.750			
0.6502	41612.05	3.4960	3.4959	-1.5383	25.35	0.29	-0.750			
0.6547	41901.19	3.4930	3.4931	-1.4839	25.36	0.30	-0.750			
0.6591	42185.03	3.4900	3.4899	-1.4370	25.38	0.32	-0.750			
0.6633	42452.19	3.4870	3.4870	-1.3896	25.39	0.33	-0.750			
0.6673	42709.79	3.4840	3.4839	-1.3515	25.40	0.34	-0.750			
0.6714	42969.71	3.4810	3.4811	-1.3167	25.42	0.36	-0.750			
0.6754	43222.83	3.4780	3.4779	-1.2869	25.43	0.37	-0.750			
0.6792	43467.23	3.4750	3.4750	-1.2459	25.45	0.39	-0.750			
0.6828	43700.88	3.4720	3.4721	-1.2035	25.46	0.40	-0.750			
0.6864	43930.80	3.4690	3.4690	-1.1642	25.48	0.42	-0.750			
0.6898	44147.42	3.4660	3.4660	-1.1231	25.49	0.43	-0.750			
0.6931	44359.19	3.4630	3.4630	-1.0918	25.50	0.44	-0.750			
0.6964	44567.14	3.4600	3.4599	-1.0650	25.52	0.46	-0.750			
0.6995	44766.80	3.4570	3.4569	-1.0245	25.53	0.47	-0.750			
0.7025	44961.65	3.4540	3.4540	-0.9914	25.54	0.48	-0.750			
0.7054	45147.84	3.4510	3.4510	-0.9568	25.55	0.49	-0.750			
0.7082	45327.82	3.4480	3.4480	-0.9338	25.57	0.51	-0.750			
0.7109	45500.20	3.4450	3.4450	-0.9085	25.58	0.52	-0.750			
0.7136	45672.79	3.4420	3.4419	-0.8912	25.59	0.53	-0.750			
0.7163	45842.60	3.4390	3.4389	-0.8743	25.60	0.54	-0.750			
0.7189	46009.78	3.4360	3.4362	-0.8639	25.62	0.56	-0.750			
0.7215	46173.72	3.4330	3.4329	-0.8572	25.62	0.56	-0.750			
0.7240	46336.96	3.4300	3.4299	-0.8501	25.63	0.57	-0.750			
0.7265	46495.85	3.4270	3.4269	-0.8373	25.64	0.58	-0.750			
0.7290	46656.13	3.4240	3.4240	-0.8404	25.64	0.58	-0.750			
0.7315	46819.04	3.4210	3.4211	-0.8474	25.65	0.59	-0.750			
0.7341	46981.49	3.4180	3.4179	-0.8510	25.66	0.60	-0.750			
0.7366	47143.89	3.4150	3.4149	-0.8574	25.67	0.61	-0.750			
0.7392	47310.47	3.4120	3.4120	-0.8619	25.68	0.62	-0.750			
0.7418	47478.21	3.4090	3.4089	-0.8618	25.69	0.63	-0.750			
0.7445	47647.33	3.4060	3.4062	-0.8632	25.70	0.64	-0.750			
0.7471	47812.49	3.4030	3.4030	-0.8537	25.71	0.65	-0.750			
0.7496	47975.34	3.4000	3.4000	-0.8476	25.72	0.66	-0.750			
0.7522	48138.97	3.3970	3.3969	-0.8297	25.72	0.66	-0.750			
0.7546	48297.16	3.3940	3.3940	-0.8149	25.73	0.67	-0.750			
0.7571	48452.07	3.3910	3.3912	-0.7966	25.74	0.68	-0.750			
0.7594	48604.65	3.3880	3.3879	-0.7797	25.75	0.69	-0.750			
0.7617	48750.08	3.3850	3.3850	-0.7591	25.75	0.69	-0.750			
0.7640	48893.00	3.3820	3.3820	-0.7366	25.76	0.70	-0.750			
0.7662	49034.78	3.3790	3.3790	-0.7171	25.76	0.70	-0.750			
0.7683	49171.10	3.3760	3.3759	-0.6998	25.77	0.71	-0.750			
0.7704	49303.28	3.3730	3.3730	-0.6737	25.77	0.71	-0.750			
0.7723	49430.17	3.3700	3.3700	-0.6496	25.77	0.71	-0.750			
0.7743	49552.24	3.3670	3.3670	-0.6253	25.78	0.72	-0.750			
0.7761	49668.08	3.3640	3.3641	-0.6021	25.78	0.72	-0.750			
0.7779	49783.38	3.3610	3.3610	-0.5849	25.78	0.72	-0.750			
0.7796	49893.07	3.3580	3.3580	-0.5675	25.79	0.73	-0.750			
0.7812	49999.04	3.3550	3.3549	-0.5458	25.79	0.73	-0.750			
0.7829	50103.25	3.3520	3.3519	-0.5312	25.79	0.73	-0.750			
0.7844	50203.15	3.3490	3.3490	-0.5136	25.80	0.74	-0.750			
0.7859	50299.76	3.3460	3.3459	-0.4983	25.81	0.75	-0.750			
0.7874	50392.82	3.3430	3.3430	-0.4808	25.82	0.76	-0.750			
0.7888	50485.07	3.3400	3.3400	-0.4706	25.82	0.76	-0.750			
0.7902	50573.04	3.3370	3.3370	-0.4557	25.83	0.77	-0.750			
0.7916	50660.44	3.3340	3.3339	-0.4425	25.84	0.78	-0.750			
0.7929	50743.52	3.3310	3.3310	-0.4293	25.84	0.78	-0.750			
0.7941	50824.57	3.3280	3.3278	-0.4158	25.85	0.79	-0.750			
0.7954	50902.95	3.3250	3.3251	-0.4022	25.85	0.79	-0.750			
0.7965	50979.05	3.3220	3.3219	-0.3907	25.86	0.80	-0.750			
0.7977	51051.94	3.3190	3.3191	-0.3799	25.86	0.80	-0.750			
0.7988	51123.77	3.3160	3.3160	-0.3726	25.87	0.81	-0.750			
0.7999	51194.14	3.3130	3.3129	-0.3665	25.87	0.81	-0.750			
0.8010	51263.99	3.3100	3.3100	-0.3567	25.88	0.82	-0.750			
0.8021	51332.69	3.3070	3.3070	-0.3485	25.88	0.82	-0.750			
0.8031	51398.38	3.3040	3.3041	-0.3404	25.88	0.82	-0.750			
0.8041	51462.83	3.3010	3.3011	-0.3315	25.89	0.83	-0.750			
0.8051	51525.11	3.2980	3.2979	-0.3216	25.89	0.83	-0.750			
0.8060	51585.61	3.2950	3.2949	-0.3143	25.90	0.84	-0.750			
0.8069	51644.30	3.2920	3.2923	-0.3085	25.90	0.84	-0.750			
0.8079	51703.67	3.2890	3.2890	-0.3034	25.90	0.84	-0.750			
0.8088	51762.00	3.2860	3.2858	-0.2982	25.91	0.85	-0.750			
0.8097	51818.25	3.2830	3.2831	-0.2923	25.91	0.85	-0.750			
0.8105	51873.60	3.2800	3.2800	-0.2876	25.92	0.86	-0.750			
0.8114	51928.44	3.2770	3.2770	-0.2827	25.92	0.86	-0.750			
0.8122	51982.40	3.2740	3.2739	-0.2778	25.93	0.87	-0.750			
0.8130	52034.47	3.2710	3.2711	-0.2731	25.93	0.87	-0.750			
0.8139	52086.88	3.2680	3.2680	-0.2691	25.94	0.88	-0.750			
0.8147	52138.18	3.2650	3.2650	-0.2648	25.94	0.88	-0.750			
0.8154	52188.53	3.2620	3.2621	-0.2606	25.95	0.89	-0.750			
0.8162	52238.03	3.2590	3.2590	-0.2567	25.95	0.89	-0.750			
0.8170	52287.05	3.2560	3.2560	-0.2533	25.96	0.90	-0.750			
0.8177	52334.97	3.2530	3.2530	-0.2497	25.96	0.90	-0.750			
0.8185	52382.59	3.2500	3.2500	-0.2460	25.96	0.90	-0.750			
0.8192	52429.74	3.2470	3.2470	-0.2433	25.97	0.91	-0.750			
0.8199	52476.03	3.2440	3.2440	-0.2403	25.97	0.91	-0.750			
0.8207	52521.96	3.2410	3.2411	-0.2368	25.98	0.92	-0.750			
0.8214	52567.20	3.2380	3.2380	-0.2334	25.98	0.92	-0.750			
0.8221	52611.79	3.2350	3.2349	-0.2299	25.99	0.93	-0.750			
0.8227	52655.28	3.2320	3.2321	-0.2275	26.00	0.94	-0.750			
0.8234	52698.68	3.2290	3.2290	-0.2241	26.00	0.94	-0.750			
0.8241	52741.49	3.2260	3.2259	-0.2217	26.01	0.95	-0.750			
0.8247	52783.78	3.2230	3.2230	-0.2189	26.01	0.95	-0.750			
0.8254	52825.30	3.2200	3.2201	-0.2164	26.02	0.96	-0.750			
0.8260	52866.83	3.2170	3.2169	-0.2142	26.02	0.96	-0.750			
0.8267	52907.65	3.2140	3.2140	-0.2118	26.03	0.97	-0.750			
0.8273	52948.07	3.2110	3.2110	-0.2093	26.03	0.97	-0.750			
0.8279	52987.65	3.2080	3.2080	-0.2072	26.04	0.98	-0.750			
0.8286	53027.83	3.2050	3.2049	-0.2049	26.04	0.98	-0.750			
0.8292	53066.69	3.2020	3.2020	-0.2024	26.05	0.99	-0.750			
0.8298	53105.32	3.1990	3.1990	-0.2000	26.05	0.99	-0.750			
0.8304	53143.57	3.1960	3.1961	-0.1969	26.06	1.00	-0.750			
0.8310	53181.07	3.1930	3.1929	-0.1948	26.06	1.00	-0.750			
0.8315	53217.90	3.1900	3.1901	-0.1923	26.07	1.01	-0.750			
0.8321	53254.66	3.1870	3.1871	-0.1906	26.07	1.01	-0.750			
0.8327	53290.85	3.1840	3.1839	-0.1883	26.08	1.02	-0.750			
0.8332	53327.07	3.1810	3.1810	-0.1873	26.08	1.02	-0.750			
0.8338	53362.76	3.1780	3.1781	-0.1848	26.09	1.03	-0.750			
0.8343	53398.08	3.1750	3.1750	-0.1831	26.09	1.03	-0.750			
0.8349	53433.42	3.1720	3.1720	-0.1815	26.10	1.04	-0.750			
0.8354	53467.85	3.1690	3.1690	-0.1795	26.10	1.04	-0.750			
0.8360	53502.02	3.1660	3.1660	-0.1774	26.11	1.05	-0.750			
0.8365	53535.93	3.1630	3.1630	-0.1759	26.11	1.05	-0.750			
0.8370	53569.71	3.1600	3.1600	-0.1739	26.12	1.06	-0.750			
0.8375	53602.71	3.1570	3.1569	-0.1721	26.13	1.07	-0.750			
0.8381	53635.61	3.1540	3.1541	-0.1706	26.13	1.07	-0.750			
0.8386	53668.35	3.1510	3.1511	-0.1687	26.14	1.08	-0.750			
0.8391	53700.39	3.1480	3.1479	-0.1675	26.14	1.08	-0.750			
0.8396	53732.25	3.1450	3.1450	-0.1659	26.15	1.09	-0.750			
0.8401	53764.01	3.1420	3.1420	-0.1650	26.15	1.09	-0.750			
0.8406	53795.66	3.1390	3.1389	-0.1632	26.16	1.10	-0.750			
0.8411	53827.22	3.1360	3.1360	-0.1616	26.16	1.10	-0.750			
0.8415	53858.07	3.1330	3.1331	-0.1594	26.16	1.10	-0.750			
0.8420	53888.32	3.1300	3.1301	-0.1582	26.17	1.11	-0.750			
0.8425	53918.43	3.1270	3.1270	-0.1576	26.17	1.11	-0.750			
0.8429	53948.57	3.1240	3.1238	-0.1550	26.18	1.12	-0.750			
0.8434	53978.19	3.1210	3.1210	-0.1537	26.18	1.12	-0.750			
0.8439	54007.59	3.1180	3.1180	-0.1524	26.18	1.12	-0.750			
0.8443	54037.02	3.1150	3.1150	-0.1509	26.19	1.13	-0.750			
0.8448	54065.84	3.1120	3.1118	-0.1495	26.19	1.13	-0.750			
0.8452	54094.34	3.1090	3.1090	-0.1474	26.20	1.14	-0.750			
0.8457	54122.03	3.1060	3.1060	-0.1464	26.21	1.15	-0.750			
0.8461	54149.88	3.1030	3.1030	-0.1447	26.21	1.15	-0.750			
0.8465	54177.94	3.1000	3.1001	-0.1445	26.22	1.16	-0.750			
0.8470	54205.36	3.0970	3.0970	-0.1428	26.22	1.16	-0.750			
0.8474	54232.59	3.0940	3.0941	-0.1425	26.23	1.17	-0.750			
0.8478	54259.98	3.0910	3.0909	-0.1420	26.24	1.18	-0.750			
0.8482	54287.28	3.0880	3.0880	-0.1407	26.24	1.18	-0.750			
0.8487	54314.19	3.0850	3.0849	-0.1397	26.25	1.19	-0.750			
0.8491	54340.91	3.0820	3.0821	-0.1384	26.25	1.19	-0.750			
0.8495	54367.74	3.0790	3.0790	-0.1374	26.26	1.20	-0.750			
0.8499	54393.64	3.0760	3.0760	-0.1363	26.27	1.21	-0.750			
0.8503	54419.69	3.0730	3.0729	-0.1351	26.27	1.21	-0.750			
0.8507	54445.31	3.0700	3.0700	-0.1336	26.28	1.22	-0.750			
0.8511	54470.79	3.0670	3.0669	-0.1329	26.28	1.22	-0.750			
0.8515	54496.45	3.0640	3.0640	-0.1324	26.29	1.23	-0.750			
0.8519	54521.77	3.0610	3.0610	-0.1314	26.29	1.23	-0.750			
0.8523	54546.93	3.0580	3.0579	-0.1304	26.30	1.24	-0.750			
0.8527	54571.92	3.0550	3.0551	-0.1296	26.30	1.24	-0.750			
0.8531	54596.46	3.0520	3.0520	-0.1282	26.31	1.25	-0.750			
0.8535	54621.03	3.0490	3.0489	-0.1277	26.31	1.25	-0.750			
0.8538	54645.57	3.0460	3.0460	-0.1275	26.31	1.25	-0.750			
0.8542	54669.96	3.0430	3.0431	-0.1266	26.32	1.26	-0.750			
0.8546	54694.29	3.0400	3.0400	-0.1263	26.32	1.26	-0.750			
0.8550	54718.51	3.0370	3.0369	-0.1256	26.33	1.27	-0.750			
0.8554	54742.60	3.0340	3.0341	-0.1249	26.33	1.27	-0.750			
0.8557	54766.60	3.0310	3.0309	-0.1242	26.34	1.28	-0.750			
0.8561	54790.37	3.0280	3.0280	-0.1232	26.34	1.28	-0.750			
0.8565	54813.96	3.0250	3.0250	-0.1221	26.34	1.28	-0.750			
0.8568	54837.25	3.0220	3.0220	-0.1209	26.35	1.29	-0.750			
0.8572	54860.36	3.0190	3.0190	-0.1200	26.35	1.29	-0.750			
0.8576	54883.36	3.0160	3.0162	-0.1191	26.36	1.30	-0.750			
0.8579	54906.03	3.0130	3.0129	-0.1184	26.36	1.30	-0.750			
0.8583	54928.52	3.0100	3.0100	-0.1176	26.36	1.30	-0.751			
0.8586	54951.05	3.0070	3.0069	-0.1171	26.37	1.31	-0.751			
0.8590	54973.37	3.0040	3.0041	-0.1172	26.37	1.31	-0.751			
0.8593	54995.87	3.0010	3.0010	-0.1172	26.38	1.32	-0.751			
