Ah_balance (normalized)	Ah_balance (mAh)	Voltage - fit (V)	Voltage -  interpolate (V)	dQ/dV (1/V)	Temperature (°C)	Temperature - diff (°C)	Current (C)	R_DC 0ms (mOhm)	R_DC 50ms (mOhm)	R_DC 50 ms PEC (mOhm)
0.0002	11.03	4.1660	4.1657	-0.0942	25.87	-0.00	-0.750			
0.0005	34.59	4.1630	4.1628	-0.1463	25.87	-0.00	-0.750			
0.0010	66.84	4.1600	4.1599	-0.1907	25.87	-0.00	-0.750			
0.0017	108.05	4.1570	4.1570	-0.2348	25.86	-0.01	-0.750			
0.0025	157.76	4.1540	4.1540	-0.2769	25.86	-0.01	-0.750			
0.0034	215.60	4.1510	4.1509	-0.3161	25.86	-0.01	-0.750			
0.0044	281.09	4.1480	4.1480	-0.3571	25.86	-0.01	-0.750			
0.0055	354.11	4.1450	4.1450	-0.3936	25.85	-0.02	-0.750			
0.0068	432.96	4.1420	4.1421	-0.4308	25.85	-0.02	-0.750			
0.0081	520.16	4.1390	4.1389	-0.4621	25.84	-0.03	-0.750			
0.0096	612.57	4.1360	4.1360	-0.4919	25.84	-0.03	-0.750			
0.0111	711.03	4.1330	4.1329	-0.5198	25.83	-0.04	-0.750			
0.0127	813.58	4.1300	4.1303	-0.5430	25.83	-0.04	-0.750			
0.0144	920.89	4.1270	4.1270	-0.5635	25.83	-0.04	-0.750			
0.0161	1031.70	4.1240	4.1240	-0.5810	25.82	-0.05	-0.750			
0.0179	1145.07	4.1210	4.1210	-0.5978	25.82	-0.05	-0.750			
0.0197	1262.39	4.1180	4.1180	-0.6155	25.82	-0.05	-0.750			
0.0216	1382.27	4.1150	4.1150	-0.6227	25.82	-0.05	-0.750			
0.0235	1503.54	4.1120	4.1120	-0.6346	25.81	-0.06	-0.750			
0.0254	1626.16	4.1090	4.1091	-0.6432	25.81	-0.06	-0.750			
0.0274	1750.57	4.1060	4.1059	-0.6527	25.81	-0.06	-0.750			
0.0293	1876.51	4.1030	4.1030	-0.6620	25.80	-0.07	-0.750			
0.0313	2004.77	4.1000	4.1000	-0.6683	25.80	-0.07	-0.750			
0.0334	2135.36	4.0970	4.0970	-0.6776	25.80	-0.07	-0.750			
0.0354	2266.43	4.0940	4.0941	-0.6829	25.79	-0.08	-0.750			
0.0375	2396.99	4.0910	4.0912	-0.6869	25.79	-0.08	-0.750			
0.0395	2529.49	4.0880	4.0879	-0.6919	25.79	-0.08	-0.750			
0.0416	2660.08	4.0850	4.0851	-0.7024	25.79	-0.08	-0.750			
0.0437	2796.41	4.0820	4.0820	-0.7101	25.79	-0.08	-0.750			
0.0459	2937.18	4.0790	4.0789	-0.7204	25.79	-0.08	-0.750			
0.0481	3076.24	4.0760	4.0759	-0.7176	25.79	-0.08	-0.750			
0.0502	3214.41	4.0730	4.0732	-0.7197	25.79	-0.08	-0.750			
0.0524	3352.60	4.0700	4.0700	-0.7164	25.79	-0.08	-0.750			
0.0545	3487.91	4.0670	4.0669	-0.7168	25.79	-0.08	-0.750			
0.0566	3624.17	4.0640	4.0640	-0.7148	25.79	-0.08	-0.750			
0.0588	3763.30	4.0610	4.0610	-0.7197	25.79	-0.08	-0.750			
0.0610	3901.26	4.0580	4.0580	-0.7192	25.79	-0.08	-0.750			
0.0631	4040.53	4.0550	4.0550	-0.7239	25.79	-0.08	-0.750			
0.0653	4178.68	4.0520	4.0521	-0.7244	25.79	-0.08	-0.750			
0.0675	4316.80	4.0490	4.0490	-0.7329	25.79	-0.08	-0.750			
0.0697	4457.99	4.0460	4.0460	-0.7319	25.79	-0.08	-0.750			
0.0719	4600.60	4.0430	4.0430	-0.7385	25.79	-0.08	-0.750			
0.0741	4742.46	4.0400	4.0401	-0.7393	25.79	-0.08	-0.750			
0.0763	4885.90	4.0370	4.0368	-0.7417	25.79	-0.08	-0.750			
0.0786	5027.37	4.0340	4.0340	-0.7448	25.79	-0.08	-0.750			
0.0808	5169.44	4.0310	4.0310	-0.7512	25.79	-0.08	-0.750			
0.0831	5315.56	4.0280	4.0279	-0.7507	25.79	-0.08	-0.750			
0.0853	5461.36	4.0250	4.0249	-0.7543	25.79	-0.08	-0.750			
0.0876	5606.01	4.0220	4.0223	-0.7536	25.79	-0.08	-0.750			
0.0899	5750.47	4.0190	4.0188	-0.7542	25.79	-0.08	-0.750			
0.0921	5894.63	4.0160	4.0160	-0.7539	25.80	-0.07	-0.750			
0.0944	6038.46	4.0130	4.0130	-0.7536	25.80	-0.07	-0.750			
0.0966	6184.20	4.0100	4.0100	-0.7575	25.80	-0.07	-0.750			
0.0989	6329.23	4.0070	4.0070	-0.7648	25.81	-0.06	-0.750			
0.1012	6475.37	4.0040	4.0040	-0.7655	25.81	-0.06	-0.750			
0.1035	6622.92	4.0010	4.0010	-0.7697	25.81	-0.06	-0.750			
0.1058	6770.58	3.9980	3.9980	-0.7725	25.81	-0.06	-0.750			
0.1081	6921.46	3.9950	3.9950	-0.7735	25.82	-0.05	-0.750			
0.1105	7070.07	3.9920	3.9920	-0.7745	25.82	-0.05	-0.750			
0.1128	7218.83	3.9890	3.9892	-0.7737	25.82	-0.05	-0.750			
0.1151	7365.47	3.9860	3.9861	-0.7727	25.82	-0.05	-0.750			
0.1174	7514.36	3.9830	3.9829	-0.7775	25.83	-0.04	-0.750			
0.1198	7664.15	3.9800	3.9800	-0.7771	25.83	-0.04	-0.750			
0.1221	7812.62	3.9770	3.9770	-0.7818	25.84	-0.03	-0.750			
0.1244	7963.37	3.9740	3.9740	-0.7867	25.84	-0.03	-0.750			
0.1268	8114.80	3.9710	3.9709	-0.7882	25.84	-0.03	-0.750			
0.1292	8266.54	3.9680	3.9679	-0.7947	25.84	-0.03	-0.750			
0.1315	8419.15	3.9650	3.9651	-0.7949	25.85	-0.02	-0.750			
0.1340	8572.94	3.9620	3.9620	-0.7963	25.85	-0.02	-0.750			
0.1364	8727.75	3.9590	3.9590	-0.8012	25.85	-0.02	-0.750			
0.1388	8881.18	3.9560	3.9560	-0.7960	25.85	-0.02	-0.750			
0.1411	9031.79	3.9530	3.9530	-0.8020	25.86	-0.01	-0.750			
0.1435	9186.40	3.9500	3.9500	-0.8041	25.86	-0.01	-0.750			
0.1459	9340.71	3.9470	3.9470	-0.8042	25.86	-0.01	-0.750			
0.1484	9496.47	3.9440	3.9440	-0.8089	25.87	-0.00	-0.750			
0.1508	9653.27	3.9410	3.9411	-0.8122	25.87	0.00	-0.750			
0.1532	9807.89	3.9380	3.9380	-0.8153	25.87	0.00	-0.750			
0.1557	9965.89	3.9350	3.9350	-0.8142	25.87	0.00	-0.750			
0.1581	10119.46	3.9320	3.9320	-0.8108	25.88	0.01	-0.750			
0.1606	10277.43	3.9290	3.9289	-0.8143	25.88	0.01	-0.750			
0.1630	10432.99	3.9260	3.9261	-0.8180	25.88	0.01	-0.750			
0.1655	10589.25	3.9230	3.9229	-0.8207	25.88	0.01	-0.750			
0.1679	10747.66	3.9200	3.9200	-0.8255	25.89	0.02	-0.750			
0.1704	10907.48	3.9170	3.9169	-0.8255	25.89	0.02	-0.750			
0.1729	11067.76	3.9140	3.9140	-0.8319	25.90	0.03	-0.750			
0.1754	11226.91	3.9110	3.9111	-0.8303	25.90	0.03	-0.750			
0.1779	11387.16	3.9080	3.9079	-0.8281	25.90	0.03	-0.750			
0.1804	11544.69	3.9050	3.9050	-0.8297	25.91	0.04	-0.750			
0.1829	11703.24	3.9020	3.9020	-0.8288	25.91	0.04	-0.750			
0.1854	11863.33	3.8990	3.8990	-0.8344	25.92	0.05	-0.750			
0.1879	12023.24	3.8960	3.8961	-0.8364	25.92	0.05	-0.750			
0.1904	12183.97	3.8930	3.8930	-0.8349	25.92	0.05	-0.750			
0.1929	12345.34	3.8900	3.8900	-0.8411	25.92	0.05	-0.750			
0.1954	12507.71	3.8870	3.8870	-0.8403	25.93	0.06	-0.750			
0.1980	12669.74	3.8840	3.8840	-0.8397	25.93	0.06	-0.750			
0.2005	12829.84	3.8810	3.8812	-0.8403	25.93	0.06	-0.750			
0.2030	12989.92	3.8780	3.8780	-0.8396	25.93	0.06	-0.750			
0.2055	13151.22	3.8750	3.8750	-0.8452	25.94	0.07	-0.750			
0.2080	13314.09	3.8720	3.8719	-0.8442	25.94	0.07	-0.750			
0.2106	13477.66	3.8690	3.8691	-0.8487	25.95	0.08	-0.750			
0.2131	13640.71	3.8660	3.8661	-0.8520	25.95	0.08	-0.750			
0.2157	13805.31	3.8630	3.8629	-0.8522	25.96	0.09	-0.750			
0.2183	13968.59	3.8600	3.8599	-0.8498	25.96	0.09	-0.750			
0.2208	14130.49	3.8570	3.8572	-0.8476	25.96	0.09	-0.750			
0.2233	14294.00	3.8540	3.8540	-0.8532	25.97	0.10	-0.750			
0.2259	14458.16	3.8510	3.8510	-0.8499	25.97	0.10	-0.750			
0.2284	14619.43	3.8480	3.8480	-0.8489	25.97	0.10	-0.750			
0.2310	14781.65	3.8450	3.8451	-0.8485	25.97	0.10	-0.750			
0.2335	14945.65	3.8420	3.8420	-0.8522	25.98	0.11	-0.750			
0.2361	15109.49	3.8390	3.8390	-0.8559	25.98	0.11	-0.750			
0.2386	15273.39	3.8360	3.8360	-0.8576	25.98	0.11	-0.750			
0.2412	15437.94	3.8330	3.8330	-0.8615	25.99	0.12	-0.750			
0.2439	15606.68	3.8300	3.8300	-0.8593	26.00	0.13	-0.750			
0.2464	15772.50	3.8270	3.8270	-0.8536	26.00	0.13	-0.750			
0.2490	15935.81	3.8240	3.8240	-0.8537	26.01	0.14	-0.750			
0.2515	16098.01	3.8210	3.8210	-0.8500	26.01	0.14	-0.750			
0.2541	16260.56	3.8180	3.8179	-0.8511	26.01	0.14	-0.750			
0.2566	16423.39	3.8150	3.8150	-0.8494	26.01	0.14	-0.750			
0.2592	16587.40	3.8120	3.8120	-0.8490	26.01	0.14	-0.750			
0.2618	16752.13	3.8090	3.8090	-0.8529	26.01	0.14	-0.750			
0.2643	16915.64	3.8060	3.8059	-0.8529	26.01	0.14	-0.750			
0.2669	17078.97	3.8030	3.8030	-0.8527	26.02	0.15	-0.750			
0.2694	17242.10	3.8000	3.7999	-0.8527	26.02	0.15	-0.750			
0.2720	17405.09	3.7970	3.7970	-0.8530	26.03	0.16	-0.750			
0.2745	17570.86	3.7940	3.7941	-0.8586	26.03	0.16	-0.750			
0.2771	17735.84	3.7910	3.7909	-0.8548	26.03	0.16	-0.750			
0.2797	17900.30	3.7880	3.7879	-0.8530	26.04	0.17	-0.750			
0.2823	18064.20	3.7850	3.7851	-0.8487	26.04	0.17	-0.750			
0.2848	18225.78	3.7820	3.7820	-0.8419	26.05	0.18	-0.750			
0.2873	18389.47	3.7790	3.7791	-0.8392	26.05	0.18	-0.750			
0.2898	18549.55	3.7760	3.7760	-0.8351	26.05	0.18	-0.750			
0.2923	18707.61	3.7730	3.7729	-0.8351	26.06	0.19	-0.750			
0.2948	18868.24	3.7700	3.7700	-0.8369	26.06	0.19	-0.750			
0.2973	19029.37	3.7670	3.7669	-0.8321	26.07	0.20	-0.750			
0.2999	19190.63	3.7640	3.7641	-0.8325	26.07	0.20	-0.750			
0.3023	19350.16	3.7610	3.7610	-0.8294	26.07	0.20	-0.750			
0.3048	19508.98	3.7580	3.7581	-0.8307	26.07	0.20	-0.750			
0.3073	19668.46	3.7550	3.7549	-0.8266	26.08	0.21	-0.750			
0.3098	19825.88	3.7520	3.7519	-0.8217	26.08	0.21	-0.750			
0.3123	19984.30	3.7490	3.7492	-0.8245	26.08	0.21	-0.750			
0.3147	20142.73	3.7460	3.7460	-0.8283	26.08	0.21	-0.750			
0.3172	20301.48	3.7430	3.7429	-0.8328	26.09	0.22	-0.750			
0.3197	20461.04	3.7400	3.7400	-0.8395	26.09	0.22	-0.750			
0.3222	20623.07	3.7370	3.7370	-0.8449	26.10	0.23	-0.750			
0.3248	20785.22	3.7340	3.7341	-0.8519	26.10	0.23	-0.750			
0.3273	20949.55	3.7310	3.7310	-0.8618	26.10	0.23	-0.750			
0.3299	21113.76	3.7280	3.7278	-0.8686	26.10	0.23	-0.750			
0.3325	21281.38	3.7250	3.7250	-0.8788	26.10	0.23	-0.750			
0.3352	21451.06	3.7220	3.7220	-0.8865	26.10	0.23	-0.750			
0.3379	21625.10	3.7190	3.7191	-0.8956	26.10	0.23	-0.750			
0.3406	21796.58	3.7160	3.7160	-0.9199	26.10	0.23	-0.750			
0.3433	21972.87	3.7130	3.7130	-0.9290	26.10	0.23	-0.750			
0.3461	22152.69	3.7100	3.7099	-0.9445	26.11	0.24	-0.750			
0.3490	22335.70	3.7070	3.7070	-0.9588	26.11	0.24	-0.750			
0.3519	22520.74	3.7040	3.7041	-0.9820	26.11	0.24	-0.750			
0.3549	22712.40	3.7010	3.7009	-0.9990	26.11	0.24	-0.750			
0.3579	22905.26	3.6980	3.6980	-1.0117	26.11	0.24	-0.750			
0.3609	23097.18	3.6950	3.6950	-1.0236	26.11	0.24	-0.750			
0.3641	23300.51	3.6920	3.6918	-1.0595	26.11	0.24	-0.750			
0.3673	23506.79	3.6890	3.6890	-1.0742	26.10	0.23	-0.750			
0.3705	23713.69	3.6860	3.6860	-1.0961	26.10	0.23	-0.750			
0.3738	23924.63	3.6830	3.6832	-1.1122	26.09	0.22	-0.750			
0.3772	24143.38	3.6800	3.6798	-1.1444	26.09	0.22	-0.750			
0.3807	24362.80	3.6770	3.6769	-1.1667	26.08	0.21	-0.750			
0.3842	24587.47	3.6740	3.6740	-1.1923	26.08	0.21	-0.750			
0.3878	24817.11	3.6710	3.6712	-1.2188	26.07	0.20	-0.750			
0.3916	25059.38	3.6680	3.6678	-1.2527	26.06	0.19	-0.750			
0.3953	25299.53	3.6650	3.6651	-1.2789	26.06	0.19	-0.750			
0.3992	25548.21	3.6620	3.6620	-1.3158	26.05	0.18	-0.750			
0.4032	25807.09	3.6590	3.6589	-1.3482	26.04	0.17	-0.750			
0.4073	26069.39	3.6560	3.6558	-1.3694	26.04	0.17	-0.750			
0.4115	26332.98	3.6530	3.6532	-1.4054	26.03	0.16	-0.750			
0.4157	26607.03	3.6500	3.6499	-1.4304	26.02	0.15	-0.750			
0.4201	26884.19	3.6470	3.6469	-1.4624	26.02	0.15	-0.750			
0.4245	27166.77	3.6440	3.6442	-1.4922	26.01	0.14	-0.750			
0.4289	27451.93	3.6410	3.6410	-1.5248	26.00	0.13	-0.750			
0.4337	27754.68	3.6380	3.6378	-1.5602	26.00	0.13	-0.750			
0.4384	28058.34	3.6350	3.6351	-1.5786	25.99	0.12	-0.750			
0.4431	28360.59	3.6320	3.6319	-1.5887	25.98	0.11	-0.750			
0.4480	28673.36	3.6290	3.6290	-1.6141	25.97	0.10	-0.750			
0.4528	28978.76	3.6260	3.6261	-1.6355	25.97	0.10	-0.750			
0.4577	29294.25	3.6230	3.6235	-1.6948	25.96	0.09	-0.750	0.401	0.500	
0.4628	29621.94	3.6200	3.6201	-1.7151	25.95	0.08	-0.750			
0.4680	29954.63	3.6170	3.6172	-1.7728	25.94	0.07	-0.750			
0.4735	30306.80	3.6140	3.6141	-1.8041	25.92	0.05	-0.750			
0.4790	30656.92	3.6110	3.6110	-1.8382	25.92	0.05	-0.750			
0.4845	31009.24	3.6080	3.6079	-1.8739	25.91	0.04	-0.750			
0.4901	31369.07	3.6050	3.6047	-1.9105	25.91	0.04	-0.750			
0.4959	31738.98	3.6020	3.6016	-1.9675	25.91	0.04	-0.750			
0.5020	32127.80	3.5990	3.5990	-2.0166	25.91	0.04	-0.750			
0.5081	32519.09	3.5960	3.5959	-2.0467	25.90	0.03	-0.750			
0.5143	32912.84	3.5930	3.5931	-2.0894	25.89	0.02	-0.750			
0.5206	33315.39	3.5900	3.5901	-2.1103	25.88	0.01	-0.750			
0.5270	33728.36	3.5870	3.5868	-2.1500	25.87	0.00	-0.750			
0.5335	34146.63	3.5840	3.5841	-2.1675	25.87	0.00	-0.750			
0.5400	34558.97	3.5810	3.5811	-2.2060	25.87	0.00	-0.750			
0.5467	34992.00	3.5780	3.5781	-2.2370	25.87	0.00	-0.750			
0.5535	35424.58	3.5750	3.5748	-2.2726	25.87	-0.00	-0.750			
0.5603	35858.30	3.5720	3.5720	-2.2880	25.86	-0.01	-0.750			
0.5673	36306.03	3.5690	3.5690	-2.3147	25.86	-0.01	-0.750			
0.5744	36760.38	3.5660	3.5661	-2.3127	25.85	-0.02	-0.750			
0.5813	37203.22	3.5630	3.5629	-2.3234	25.85	-0.02	-0.750			
0.5882	37645.81	3.5600	3.5600	-2.3142	25.85	-0.02	-0.750			
0.5952	38093.09	3.5570	3.5568	-2.3362	25.85	-0.02	-0.750			
0.6022	38541.08	3.5540	3.5543	-2.3345	25.85	-0.02	-0.750			
0.6092	38988.47	3.5510	3.5510	-2.3383	25.85	-0.02	-0.750			
0.6163	39442.10	3.5480	3.5481	-2.3361	25.85	-0.02	-0.750			
0.6233	39891.18	3.5450	3.5450	-2.2988	25.85	-0.02	-0.750			
0.6303	40337.87	3.5420	3.5420	-2.2921	25.86	-0.01	-0.750			
0.6371	40777.49	3.5390	3.5389	-2.2394	25.87	-0.00	-0.750			
0.6438	41200.69	3.5360	3.5359	-2.2026	25.87	0.00	-0.750			
0.6504	41622.93	3.5330	3.5331	-2.1590	25.87	0.00	-0.750			
0.6567	42030.04	3.5300	3.5301	-2.1148	25.88	0.01	-0.750			
0.6630	42432.03	3.5270	3.5270	-2.0671	25.89	0.02	-0.750			
0.6692	42828.07	3.5240	3.5242	-2.0152	25.89	0.02	-0.750			
0.6751	43208.59	3.5210	3.5210	-1.9686	25.89	0.02	-0.750			
0.6811	43587.62	3.5180	3.5178	-1.9234	25.90	0.03	-0.750			
0.6866	43943.00	3.5150	3.5152	-1.8535	25.92	0.05	-0.750			
0.6922	44302.35	3.5120	3.5119	-1.8036	25.93	0.06	-0.750			
0.6975	44640.65	3.5090	3.5090	-1.7401	25.94	0.07	-0.750			
0.7026	44968.35	3.5060	3.5059	-1.6662	25.95	0.08	-0.750			
0.7076	45284.31	3.5030	3.5030	-1.6035	25.96	0.09	-0.750			
0.7123	45585.57	3.5000	3.5003	-1.5451	25.97	0.10	-0.750			
0.7168	45875.75	3.4970	3.4969	-1.4899	25.99	0.12	-0.750			
0.7211	46152.45	3.4940	3.4939	-1.4305	26.01	0.14	-0.750			
0.7254	46423.96	3.4910	3.4912	-1.3999	26.03	0.16	-0.750			
0.7295	46690.15	3.4880	3.4879	-1.3587	26.04	0.17	-0.750			
0.7335	46946.49	3.4850	3.4849	-1.3092	26.06	0.19	-0.750			
0.7374	47191.02	3.4820	3.4824	-1.2715	26.07	0.20	-0.750			
0.7412	47434.20	3.4790	3.4789	-1.2308	26.08	0.21	-0.750			
0.7448	47664.95	3.4760	3.4759	-1.1851	26.09	0.22	-0.750			
0.7482	47886.31	3.4730	3.4729	-1.1367	26.10	0.23	-0.750			
0.7516	48101.89	3.4700	3.4699	-1.1088	26.12	0.25	-0.750			
0.7549	48310.63	3.4670	3.4670	-1.0670	26.13	0.26	-0.750			
0.7580	48509.67	3.4640	3.4639	-1.0271	26.15	0.28	-0.750			
0.7609	48699.39	3.4610	3.4610	-0.9921	26.16	0.29	-0.750			
0.7639	48890.75	3.4580	3.4579	-0.9756	26.17	0.30	-0.750			
0.7668	49073.15	3.4550	3.4550	-0.9526	26.18	0.31	-0.750			
0.7696	49252.78	3.4520	3.4520	-0.9421	26.19	0.32	-0.750			
0.7723	49429.62	3.4490	3.4490	-0.9273	26.20	0.33	-0.750			
0.7751	49607.48	3.4460	3.4460	-0.9260	26.21	0.34	-0.750			
0.7778	49781.40	3.4430	3.4431	-0.9318	26.22	0.35	-0.750			
0.7806	49958.44	3.4400	3.4401	-0.9453	26.23	0.36	-0.750			
0.7834	50139.34	3.4370	3.4368	-0.9645	26.24	0.37	-0.750			
0.7863	50325.39	3.4340	3.4340	-0.9900	26.25	0.38	-0.750			
0.7893	50517.94	3.4310	3.4309	-1.0279	26.26	0.39	-0.750			
0.7925	50721.09	3.4280	3.4280	-1.0669	26.27	0.40	-0.750			
0.7958	50932.60	3.4250	3.4248	-1.0858	26.28	0.41	-0.750			
0.7991	51142.76	3.4220	3.4222	-1.0956	26.29	0.42	-0.750			
0.8025	51361.27	3.4190	3.4189	-1.1075	26.29	0.42	-0.750			
0.8059	51577.97	3.4160	3.4160	-1.0937	26.30	0.43	-0.750			
0.8092	51787.91	3.4130	3.4129	-1.0699	26.30	0.43	-0.750			
0.8123	51988.89	3.4100	3.4102	-1.0408	26.31	0.44	-0.750			
0.8154	52188.76	3.4070	3.4070	-1.0201	26.32	0.45	-0.750			
0.8185	52383.63	3.4040	3.4038	-0.9891	26.33	0.46	-0.750			
0.8214	52571.05	3.4010	3.4009	-0.9498	26.34	0.47	-0.750			
0.8242	52751.50	3.3980	3.3980	-0.9184	26.35	0.48	-0.750			
0.8269	52923.80	3.3950	3.3949	-0.8796	26.35	0.48	-0.750			
0.8295	53087.58	3.3920	3.3919	-0.8423	26.36	0.49	-0.750			
0.8319	53243.73	3.3890	3.3890	-0.8056	26.37	0.50	-0.750			
0.8343	53394.04	3.3860	3.3860	-0.7715	26.37	0.50	-0.750			
0.8366	53542.09	3.3830	3.3830	-0.7473	26.38	0.51	-0.750			
0.8388	53682.37	3.3800	3.3800	-0.7180	26.38	0.51	-0.750			
0.8409	53816.14	3.3770	3.3770	-0.6907	26.39	0.52	-0.750			
0.8429	53946.01	3.3740	3.3740	-0.6666	26.40	0.53	-0.750			
0.8449	54070.98	3.3710	3.3710	-0.6412	26.40	0.53	-0.750			
0.8468	54193.95	3.3680	3.3680	-0.6149	26.41	0.54	-0.750			
0.8486	54310.04	3.3650	3.3650	-0.5900	26.42	0.55	-0.750			
0.8503	54419.85	3.3620	3.3621	-0.5636	26.42	0.55	-0.750			
0.8520	54524.93	3.3590	3.3588	-0.5388	26.43	0.56	-0.750			
0.8535	54624.85	3.3560	3.3560	-0.5177	26.43	0.56	-0.750			
0.8550	54720.46	3.3530	3.3530	-0.4980	26.44	0.57	-0.750			
0.8565	54816.39	3.3500	3.3500	-0.4829	26.44	0.57	-0.750			
0.8579	54906.81	3.3470	3.3469	-0.4639	26.45	0.58	-0.750			
0.8593	54993.77	3.3440	3.3441	-0.4439	26.45	0.58	-0.750			
0.8606	55077.60	3.3410	3.3409	-0.4261	26.45	0.58	-0.750			
0.8618	55157.31	3.3380	3.3380	-0.4098	26.46	0.59	-0.750			
0.8630	55234.08	3.3350	3.3351	-0.3941	26.46	0.59	-0.750			
0.8642	55307.29	3.3320	3.3319	-0.3779	26.47	0.60	-0.750			
0.8653	55378.58	3.3290	3.3290	-0.3639	26.48	0.61	-0.750			
0.8663	55446.19	3.3260	3.3260	-0.3501	26.48	0.61	-0.750			
0.8674	55512.42	3.3230	3.3229	-0.3387	26.49	0.62	-0.750			
0.8684	55576.56	3.3200	3.3201	-0.3262	26.50	0.63	-0.750			
0.8693	55637.57	3.3170	3.3170	-0.3146	26.50	0.63	-0.750			
0.8703	55696.94	3.3140	3.3140	-0.3045	26.51	0.64	-0.750			
0.8712	55754.84	3.3110	3.3110	-0.2948	26.52	0.65	-0.750			
0.8720	55809.49	3.3080	3.3081	-0.2859	26.52	0.65	-0.750			
0.8729	55863.50	3.3050	3.3049	-0.2755	26.53	0.66	-0.750			
0.8737	55915.72	3.3020	3.3021	-0.2668	26.53	0.66	-0.750			
0.8745	55965.86	3.2990	3.2990	-0.2586	26.54	0.67	-0.750			
0.8752	56014.68	3.2960	3.2961	-0.2512	26.54	0.67	-0.750			
0.8760	56061.60	3.2930	3.2930	-0.2419	26.55	0.68	-0.750			
0.8767	56107.01	3.2900	3.2900	-0.2349	26.55	0.68	-0.750			
0.8774	56150.79	3.2870	3.2871	-0.2289	26.56	0.69	-0.750			
0.8780	56194.57	3.2840	3.2840	-0.2254	26.56	0.69	-0.750			
0.8787	56237.16	3.2810	3.2809	-0.2205	26.56	0.69	-0.750			
0.8794	56279.24	3.2780	3.2779	-0.2156	26.57	0.70	-0.750			
0.8800	56320.16	3.2750	3.2751	-0.2103	26.57	0.70	-0.750			
0.8806	56360.46	3.2720	3.2720	-0.2060	26.58	0.71	-0.750			
0.8812	56399.48	3.2690	3.2690	-0.2004	26.58	0.71	-0.750			
0.8818	56437.57	3.2660	3.2660	-0.1952	26.58	0.71	-0.750			
0.8824	56473.96	3.2630	3.2630	-0.1899	26.59	0.72	-0.750			
0.8830	56509.74	3.2600	3.2601	-0.1851	26.59	0.72	-0.750			
0.8835	56544.80	3.2570	3.2569	-0.1821	26.59	0.72	-0.750			
0.8841	56579.22	3.2540	3.2540	-0.1790	26.60	0.73	-0.750			
0.8846	56613.02	3.2510	3.2510	-0.1764	26.60	0.73	-0.750			
0.8851	56646.65	3.2480	3.2480	-0.1744	26.60	0.73	-0.750			
0.8856	56679.97	3.2450	3.2450	-0.1725	26.61	0.74	-0.750			
0.8861	56713.23	3.2420	3.2419	-0.1697	26.61	0.74	-0.750			
0.8867	56745.72	3.2390	3.2391	-0.1668	26.61	0.74	-0.750			
0.8871	56777.43	3.2360	3.2360	-0.1635	26.62	0.75	-0.750			
0.8876	56808.50	3.2330	3.2331	-0.1613	26.62	0.75	-0.750			
0.8881	56839.15	3.2300	3.2299	-0.1585	26.63	0.76	-0.750			
0.8886	56868.81	3.2270	3.2270	-0.1558	26.63	0.76	-0.750			
0.8890	56898.58	3.2240	3.2240	-0.1543	26.64	0.77	-0.750			
0.8895	56927.87	3.2210	3.2211	-0.1522	26.64	0.77	-0.750			
0.8900	56956.99	3.2180	3.2180	-0.1514	26.64	0.77	-0.750			
0.8904	56985.92	3.2150	3.2150	-0.1501	26.65	0.78	-0.750			
0.8909	57014.72	3.2120	3.2121	-0.1480	26.65	0.78	-0.750			
0.8913	57042.97	3.2090	3.2089	-0.1459	26.66	0.79	-0.750			
0.8917	57071.06	3.2060	3.2061	-0.1444	26.66	0.79	-0.750			
0.8922	57098.45	3.2030	3.2030	-0.1419	26.67	0.80	-0.750			
0.8926	57125.43	3.2000	3.2000	-0.1401	26.67	0.80	-0.750			
0.8930	57152.12	3.1970	3.1970	-0.1387	26.67	0.80	-0.750			
0.8934	57178.17	3.1940	3.1941	-0.1370	26.68	0.81	-0.750			
0.8938	57204.41	3.1910	3.1909	-0.1364	26.68	0.81	-0.750			
0.8942	57230.61	3.1880	3.1881	-0.1354	26.69	0.82	-0.750			
0.8946	57256.68	3.1850	3.1849	-0.1338	26.69	0.82	-0.750			
0.8950	57282.40	3.1820	3.1821	-0.1326	26.69	0.82	-0.750			
0.8954	57307.54	3.1790	3.1790	-0.1318	26.70	0.83	-0.750			
0.8958	57332.72	3.1760	3.1760	-0.1307	26.70	0.83	-0.750			
0.8962	57357.65	3.1730	3.1730	-0.1293	26.71	0.84	-0.750			
0.8966	57382.28	3.1700	3.1698	-0.1279	26.71	0.84	-0.750			
0.8970	57406.76	3.1670	3.1671	-0.1270	26.71	0.84	-0.750			
0.8974	57431.25	3.1640	3.1640	-0.1258	26.72	0.85	-0.750			
0.8977	57455.54	3.1610	3.1611	-0.1249	26.72	0.85	-0.750			
0.8981	57479.19	3.1580	3.1580	-0.1236	26.72	0.85	-0.750			
0.8985	57502.45	3.1550	3.1551	-0.1218	26.73	0.86	-0.750			
0.8988	57525.74	3.1520	3.1520	-0.1209	26.73	0.86	-0.750			
0.8992	57548.89	3.1490	3.1489	-0.1201	26.73	0.86	-0.750			
0.8996	57571.82	3.1460	3.1461	-0.1194	26.74	0.87	-0.750			
0.8999	57594.55	3.1430	3.1430	-0.1186	26.74	0.87	-0.750			
0.9003	57617.34	3.1400	3.1401	-0.1174	26.74	0.87	-0.750			
0.9006	57639.97	3.1370	3.1369	-0.1166	26.75	0.88	-0.750			
0.9010	57662.15	3.1340	3.1340	-0.1162	26.75	0.88	-0.750			
0.9013	57684.27	3.1310	3.1310	-0.1153	26.76	0.89	-0.750			
0.9017	57706.38	3.1280	3.1280	-0.1145	26.76	0.89	-0.750			
0.9020	57728.29	3.1250	3.1249	-0.1137	26.77	0.90	-0.750			
0.9023	57749.95	3.1220	3.1220	-0.1131	26.77	0.90	-0.750			
0.9027	57771.61	3.1190	3.1191	-0.1126	26.78	0.91	-0.750			
0.9030	57793.48	3.1160	3.1161	-0.1120	26.78	0.91	-0.750			
0.9034	57814.86	3.1130	3.1128	-0.1108	26.79	0.92	-0.750			
0.9037	57835.92	3.1100	3.1100	-0.1097	26.79	0.92	-0.750			
0.9040	57856.88	3.1070	3.1071	-0.1087	26.80	0.93	-0.750			
0.9043	57877.66	3.1040	3.1040	-0.1082	26.80	0.93	-0.750			
0.9047	57898.35	3.1010	3.1009	-0.1073	26.81	0.94	-0.750			
0.9050	57918.69	3.0980	3.0981	-0.1063	26.81	0.94	-0.750			
0.9053	57939.05	3.0950	3.0950	-0.1059	26.82	0.95	-0.750			
0.9056	57959.36	3.0920	3.0919	-0.1056	26.82	0.95	-0.750			
0.9059	57979.60	3.0890	3.0891	-0.1052	26.82	0.95	-0.750			
0.9062	57999.77	3.0860	3.0860	-0.1047	26.83	0.96	-0.750			
0.9066	58019.81	3.0830	3.0830	-0.1042	26.83	0.96	-0.750			
0.9069	58039.88	3.0800	3.0801	-0.1030	26.84	0.97	-0.750			
0.9072	58059.70	3.0770	3.0769	-0.1022	26.84	0.97	-0.750			
0.9075	58079.09	3.0740	3.0741	-0.1021	26.85	0.98	-0.750			
0.9078	58098.61	3.0710	3.0711	-0.1015	26.85	0.98	-0.750			
0.9081	58117.84	3.0680	3.0678	-0.1007	26.86	0.99	-0.750			
0.9084	58137.16	3.0650	3.0650	-0.1005	26.86	0.99	-0.750			
0.9087	58156.58	3.0620	3.0620	-0.0997	26.86	0.99	-0.750			
0.9090	58175.67	3.0590	3.0591	-0.0991	26.87	1.00	-0.750			
0.9093	58194.87	3.0560	3.0561	-0.0993	26.87	1.00	-0.750			
0.9096	58213.84	3.0530	3.0530	-0.0983	26.88	1.01	-0.750			
0.9099	58232.34	3.0500	3.0500	-0.0973	26.88	1.01	-0.750			
0.9102	58250.99	3.0470	3.0470	-0.0970	26.89	1.02	-0.750			
0.9105	58269.62	3.0440	3.0440	-0.0964	26.89	1.02	-0.750			
0.9108	58288.08	3.0410	3.0410	-0.0959	26.89	1.02	-0.750			
0.9110	58306.59	3.0380	3.0381	-0.0958	26.90	1.03	-0.750			
0.9113	58324.91	3.0350	3.0350	-0.0951	26.90	1.03	-0.750			
0.9116	58343.02	3.0320	3.0320	-0.0943	26.91	1.04	-0.750			
0.9119	58361.08	3.0290	3.0290	-0.0938	26.91	1.04	-0.750			
0.9122	58379.05	3.0260	3.0259	-0.0932	26.92	1.05	-0.750			
0.9125	58396.89	3.0230	3.0232	-0.0926	26.92	1.05	-0.750			
0.9127	58414.57	3.0200	3.0200	-0.0922	26.92	1.05	-0.750			
0.9130	58432.25	3.0170	3.0170	-0.0918	26.93	1.06	-0.750			
0.9133	58449.73	3.0140	3.0139	-0.0919	26.93	1.06	-0.750			
0.9135	58467.14	3.0110	3.0110	-0.0917	26.94	1.07	-0.750			
0.9138	58484.77	3.0080	3.0081	-0.0919	26.94	1.07	-0.751			
0.9141	58502.29	3.0050	3.0050	-0.0928	26.94	1.07	-0.751			
0.9144	58520.19	3.0020	3.0019	-0.0936	26.95	1.08	-0.751			
