Ah_balance (normalized)	Ah_balance (mAh)	Voltage - fit (V)	Voltage -  interpolate (V)	dQ/dV (1/V)	Temperature (°C)	Temperature - diff (°C)	Current (C)	R_DC 0ms (mOhm)	R_DC 50ms (mOhm)	R_DC 50 ms PEC (mOhm)
0.0556	3557.23	4.1970	4.1968	0.7681	26.80	0.83	0.750			
0.0579	3702.99	4.1940	4.1942	0.7565	26.80	0.83	0.750			
0.0601	3848.17	4.1910	4.1910	0.7545	26.79	0.82	0.750			
0.0624	3991.46	4.1880	4.1881	0.7564	26.79	0.82	0.750			
0.0646	4135.98	4.1850	4.1850	0.7534	26.79	0.82	0.750			
0.0669	4282.27	4.1820	4.1820	0.7553	26.78	0.81	0.750			
0.0692	4428.24	4.1790	4.1790	0.7565	26.78	0.81	0.750			
0.0715	4573.78	4.1760	4.1761	0.7573	26.78	0.81	0.750			
0.0737	4719.54	4.1730	4.1731	0.7551	26.78	0.81	0.750			
0.0760	4864.10	4.1700	4.1699	0.7571	26.78	0.81	0.750			
0.0782	5007.55	4.1670	4.1671	0.7563	26.78	0.81	0.750			
0.0805	5154.84	4.1640	4.1639	0.7587	26.78	0.81	0.750			
0.0828	5301.89	4.1610	4.1610	0.7611	26.78	0.81	0.750			
0.0851	5447.42	4.1580	4.1580	0.7604	26.78	0.81	0.750			
0.0874	5592.68	4.1550	4.1550	0.7626	26.78	0.81	0.750			
0.0897	5739.13	4.1520	4.1519	0.7690	26.78	0.81	0.750			
0.0920	5886.23	4.1490	4.1490	0.7736	26.78	0.81	0.750			
0.0943	6036.30	4.1460	4.1460	0.7733	26.78	0.81	0.750			
0.0967	6186.36	4.1430	4.1431	0.7737	26.78	0.81	0.750			
0.0990	6335.60	4.1400	4.1400	0.7719	26.78	0.81	0.750			
0.1013	6482.83	4.1370	4.1370	0.7687	26.78	0.81	0.750			
0.1036	6628.73	4.1340	4.1340	0.7665	26.78	0.81	0.750			
0.1059	6774.76	4.1310	4.1308	0.7684	26.78	0.81	0.750			
0.1082	6923.40	4.1280	4.1280	0.7709	26.78	0.81	0.750			
0.1105	7074.88	4.1250	4.1250	0.7662	26.77	0.80	0.750			
0.1128	7221.38	4.1220	4.1220	0.7730	26.77	0.80	0.750			
0.1151	7367.91	4.1190	4.1191	0.7836	26.77	0.80	0.750			
0.1175	7517.86	4.1160	4.1160	0.7855	26.76	0.79	0.750			
0.1198	7669.71	4.1130	4.1130	0.7921	26.76	0.79	0.750			
0.1222	7823.43	4.1100	4.1102	0.7981	26.76	0.79	0.750			
0.1247	7977.93	4.1070	4.1070	0.7862	26.76	0.79	0.750			
0.1270	8129.52	4.1040	4.1041	0.7869	26.76	0.79	0.750			
0.1293	8274.28	4.1010	4.1012	0.7794	26.76	0.79	0.750			
0.1316	8423.37	4.0980	4.0974	0.7816	26.76	0.79	0.750			
0.1340	8574.21	4.0950	4.0952	0.7888	26.76	0.79	0.750			
0.1363	8726.13	4.0920	4.0922	0.7898	26.76	0.79	0.750			
0.1388	8882.14	4.0890	4.0891	0.8026	26.76	0.79	0.750			
0.1412	9035.84	4.0860	4.0860	0.7916	26.76	0.79	0.750			
0.1436	9187.86	4.0830	4.0829	0.7919	26.76	0.79	0.750			
0.1459	9340.16	4.0800	4.0801	0.7933	26.76	0.79	0.750			
0.1483	9492.46	4.0770	4.0771	0.7979	26.76	0.79	0.750			
0.1507	9645.71	4.0740	4.0739	0.8006	26.76	0.79	0.750			
0.1531	9799.39	4.0710	4.0710	0.8035	26.76	0.79	0.750			
0.1555	9953.47	4.0680	4.0679	0.8097	26.76	0.79	0.750			
0.1580	10112.16	4.0650	4.0650	0.8165	26.76	0.79	0.750			
0.1605	10270.64	4.0620	4.0621	0.8106	26.76	0.79	0.750			
0.1629	10424.59	4.0590	4.0590	0.8149	26.75	0.78	0.750			
0.1653	10579.96	4.0560	4.0561	0.8163	26.75	0.78	0.750			
0.1677	10735.94	4.0530	4.0529	0.8157	26.75	0.78	0.750			
0.1702	10892.26	4.0500	4.0500	0.8171	26.75	0.78	0.750			
0.1727	11049.60	4.0470	4.0471	0.8216	26.75	0.78	0.750			
0.1751	11209.01	4.0440	4.0440	0.8231	26.76	0.79	0.750			
0.1776	11367.32	4.0410	4.0410	0.8257	26.76	0.79	0.750			
0.1801	11525.98	4.0380	4.0380	0.8281	26.76	0.79	0.750			
0.1826	11685.11	4.0350	4.0349	0.8328	26.76	0.79	0.750			
0.1851	11848.50	4.0320	4.0320	0.8313	26.76	0.79	0.750			
0.1876	12006.90	4.0290	4.0290	0.8395	26.76	0.79	0.750			
0.1901	12168.10	4.0260	4.0261	0.8429	26.76	0.79	0.750			
0.1927	12330.42	4.0230	4.0228	0.8460	26.76	0.79	0.750			
0.1952	12492.54	4.0200	4.0201	0.8475	26.76	0.79	0.750			
0.1978	12656.58	4.0170	4.0170	0.8485	26.76	0.79	0.750			
0.2003	12819.02	4.0140	4.0140	0.8514	26.76	0.79	0.750			
0.2029	12982.63	4.0110	4.0111	0.8501	26.76	0.79	0.750			
0.2054	13146.66	4.0080	4.0078	0.8552	26.76	0.79	0.750			
0.2080	13311.39	4.0050	4.0050	0.8625	26.76	0.79	0.750			
0.2106	13479.04	4.0020	4.0020	0.8614	26.76	0.79	0.750			
0.2132	13644.26	3.9990	3.9990	0.8637	26.76	0.79	0.750			
0.2158	13811.50	3.9960	3.9960	0.8686	26.76	0.79	0.750			
0.2184	13977.19	3.9930	3.9928	0.8680	26.76	0.79	0.750			
0.2210	14143.84	3.9900	3.9899	0.8701	26.76	0.79	0.750			
0.2236	14311.75	3.9870	3.9871	0.8710	26.75	0.78	0.750			
0.2262	14478.46	3.9840	3.9840	0.8750	26.75	0.78	0.750			
0.2289	14648.52	3.9810	3.9811	0.8783	26.74	0.77	0.750			
0.2315	14815.73	3.9780	3.9781	0.8765	26.74	0.77	0.750			
0.2341	14985.28	3.9750	3.9749	0.8741	26.74	0.77	0.750			
0.2368	15153.54	3.9720	3.9721	0.8751	26.74	0.77	0.750			
0.2394	15320.63	3.9690	3.9690	0.8777	26.75	0.78	0.750			
0.2420	15489.79	3.9660	3.9660	0.8806	26.75	0.78	0.750			
0.2447	15658.69	3.9630	3.9630	0.8788	26.75	0.78	0.750			
0.2473	15828.72	3.9600	3.9600	0.8784	26.75	0.78	0.750			
0.2499	15996.05	3.9570	3.9570	0.8813	26.74	0.77	0.750			
0.2526	16167.03	3.9540	3.9540	0.8832	26.74	0.77	0.750			
0.2552	16334.23	3.9510	3.9508	0.8821	26.74	0.77	0.750			
0.2579	16503.51	3.9480	3.9480	0.8821	26.74	0.77	0.750			
0.2605	16673.28	3.9450	3.9451	0.8843	26.74	0.77	0.750			
0.2632	16843.42	3.9420	3.9419	0.8895	26.74	0.77	0.750			
0.2659	17014.92	3.9390	3.9391	0.8939	26.74	0.77	0.750			
0.2685	17186.09	3.9360	3.9359	0.8915	26.74	0.77	0.750			
0.2713	17360.91	3.9330	3.9330	0.8870	26.74	0.77	0.750			
0.2739	17528.78	3.9300	3.9300	0.8901	26.73	0.76	0.750			
0.2765	17698.59	3.9270	3.9271	0.8934	26.73	0.76	0.750			
0.2792	17869.43	3.9240	3.9240	0.8960	26.72	0.75	0.750			
0.2819	18040.20	3.9210	3.9209	0.8983	26.72	0.75	0.750			
0.2846	18214.35	3.9180	3.9181	0.9026	26.71	0.74	0.750			
0.2873	18389.56	3.9150	3.9151	0.9114	26.71	0.74	0.750			
0.2901	18565.37	3.9120	3.9120	0.9128	26.71	0.74	0.750			
0.2928	18739.52	3.9090	3.9090	0.9093	26.70	0.73	0.750			
0.2955	18914.82	3.9060	3.9060	0.9099	26.70	0.73	0.750			
0.2983	19089.14	3.9030	3.9030	0.9170	26.69	0.72	0.750			
0.3010	19265.77	3.9000	3.9000	0.9222	26.68	0.71	0.750			
0.3038	19443.56	3.8970	3.8970	0.9272	26.68	0.71	0.750			
0.3066	19621.20	3.8940	3.8940	0.9312	26.67	0.70	0.750			
0.3094	19801.56	3.8910	3.8910	0.9353	26.66	0.69	0.750			
0.3122	19980.51	3.8880	3.8880	0.9397	26.66	0.69	0.750			
0.3150	20161.74	3.8850	3.8850	0.9426	26.65	0.68	0.750			
0.3178	20341.21	3.8820	3.8820	0.9477	26.64	0.67	0.750			
0.3207	20525.90	3.8790	3.8789	0.9517	26.63	0.66	0.750			
0.3236	20709.29	3.8760	3.8761	0.9552	26.62	0.65	0.750			
0.3265	20893.63	3.8730	3.8730	0.9542	26.61	0.64	0.750			
0.3293	21077.18	3.8700	3.8702	0.9534	26.61	0.64	0.750			
0.3322	21259.84	3.8670	3.8670	0.9520	26.60	0.63	0.750			
0.3350	21441.65	3.8640	3.8639	0.9508	26.59	0.62	0.750			
0.3378	21622.32	3.8610	3.8611	0.9533	26.58	0.61	0.750			
0.3407	21806.84	3.8580	3.8580	0.9614	26.58	0.61	0.750			
0.3436	21991.27	3.8550	3.8549	0.9619	26.57	0.60	0.750			
0.3466	22179.58	3.8520	3.8520	0.9565	26.56	0.59	0.750			
0.3494	22360.92	3.8490	3.8490	0.9644	26.56	0.59	0.750			
0.3523	22545.68	3.8460	3.8460	0.9698	26.55	0.58	0.750			
0.3552	22731.99	3.8430	3.8429	0.9718	26.54	0.57	0.750			
0.3581	22920.13	3.8400	3.8401	0.9711	26.53	0.56	0.750			
0.3611	23107.49	3.8370	3.8371	0.9792	26.53	0.56	0.750			
0.3640	23296.53	3.8340	3.8340	0.9820	26.52	0.55	0.750			
0.3669	23484.38	3.8310	3.8312	0.9739	26.51	0.54	0.750			
0.3699	23671.61	3.8280	3.8280	0.9824	26.50	0.53	0.750			
0.3728	23859.48	3.8250	3.8250	0.9963	26.49	0.52	0.750			
0.3758	24050.44	3.8220	3.8220	1.0098	26.48	0.51	0.750			
0.3788	24245.84	3.8190	3.8190	1.0221	26.47	0.50	0.750			
0.3820	24445.77	3.8160	3.8160	1.0263	26.46	0.49	0.750			
0.3851	24645.92	3.8130	3.8130	1.0348	26.45	0.48	0.750			
0.3882	24846.20	3.8100	3.8101	1.0436	26.45	0.48	0.750			
0.3913	25045.38	3.8070	3.8070	1.0461	26.44	0.47	0.750			
0.3945	25246.66	3.8040	3.8040	1.0402	26.44	0.47	0.750			
0.3976	25445.11	3.8010	3.8010	1.0569	26.42	0.45	0.750			
0.4007	25647.08	3.7980	3.7981	1.0773	26.41	0.44	0.750			
0.4040	25855.65	3.7950	3.7950	1.0970	26.40	0.43	0.750			
0.4073	26069.25	3.7920	3.7921	1.1079	26.39	0.42	0.750			
0.4107	26282.85	3.7890	3.7891	1.1256	26.38	0.41	0.750			
0.4141	26502.49	3.7860	3.7860	1.1410	26.36	0.39	0.750			
0.4176	26724.57	3.7830	3.7829	1.1515	26.35	0.38	0.750			
0.4210	26942.85	3.7800	3.7800	1.1519	26.34	0.37	0.750			
0.4244	27161.83	3.7770	3.7772	1.1699	26.33	0.36	0.750			
0.4279	27387.02	3.7740	3.7741	1.2165	26.32	0.35	0.750			
0.4316	27622.03	3.7710	3.7707	1.2523	26.31	0.34	0.750			
0.4354	27865.09	3.7680	3.7679	1.2801	26.30	0.33	0.750	0.315	0.433	
0.4393	28117.10	3.7650	3.7652	1.3214	26.28	0.31	0.750			
0.4435	28380.91	3.7620	3.7619	1.3492	26.27	0.30	0.750			
0.4475	28638.96	3.7590	3.7590	1.3658	26.26	0.29	0.750			
0.4516	28902.80	3.7560	3.7560	1.3929	26.24	0.27	0.750			
0.4559	29177.00	3.7530	3.7528	1.3909	26.23	0.26	0.750			
0.4600	29438.08	3.7500	3.7501	1.4252	26.22	0.25	0.750			
0.4643	29715.10	3.7470	3.7472	1.4590	26.20	0.23	0.750			
0.4687	29994.63	3.7440	3.7436	1.4900	26.19	0.22	0.750			
0.4732	30282.19	3.7410	3.7408	1.5284	26.18	0.21	0.750			
0.4778	30581.26	3.7380	3.7382	1.5586	26.16	0.19	0.750			
0.4826	30886.41	3.7350	3.7349	1.6119	26.15	0.18	0.750			
0.4875	31201.04	3.7320	3.7319	1.6597	26.14	0.17	0.750			
0.4925	31519.81	3.7290	3.7290	1.7110	26.13	0.16	0.750			
0.4979	31862.77	3.7260	3.7261	1.7659	26.12	0.15	0.750			
0.5032	32204.56	3.7230	3.7233	1.8147	26.10	0.13	0.750			
0.5087	32556.33	3.7200	3.7201	1.8745	26.08	0.11	0.750			
0.5145	32927.08	3.7170	3.7168	1.9104	26.06	0.09	0.750			
0.5202	33293.21	3.7140	3.7142	1.9817	26.04	0.07	0.750			
0.5262	33676.82	3.7110	3.7109	2.0299	26.03	0.06	0.750			
0.5324	34076.64	3.7080	3.7081	2.0992	26.01	0.04	0.750			
0.5389	34487.08	3.7050	3.7053	2.1541	26.00	0.03	0.750			
0.5455	34912.29	3.7020	3.7019	2.2194	25.98	0.01	0.750			
0.5522	35341.39	3.6990	3.6989	2.2750	25.96	-0.01	0.750			
0.5590	35773.29	3.6960	3.6961	2.3145	25.95	-0.02	0.750			
0.5661	36227.75	3.6930	3.6929	2.4267	25.93	-0.04	0.750			
0.5734	36698.99	3.6900	3.6900	2.5048	25.91	-0.06	0.750			
0.5811	37187.79	3.6870	3.6870	2.6084	25.89	-0.08	0.750			
0.5891	37700.71	3.6840	3.6839	2.6966	25.88	-0.09	0.750			
0.5973	38229.76	3.6810	3.6808	2.7890	25.87	-0.10	0.750			
0.6058	38772.47	3.6780	3.6780	2.8705	25.86	-0.11	0.750			
0.6147	39343.15	3.6750	3.6751	2.9037	25.84	-0.13	0.750			
0.6238	39921.09	3.6720	3.6720	2.8624	25.83	-0.14	0.750			
0.6324	40473.09	3.6690	3.6690	2.7134	25.82	-0.15	0.750			
0.6402	40974.34	3.6660	3.6662	2.4745	25.82	-0.15	0.750			
0.6471	41414.98	3.6630	3.6630	2.2194	25.82	-0.15	0.750			
0.6534	41815.54	3.6600	3.6601	1.9966	25.82	-0.15	0.750			
0.6588	42160.21	3.6570	3.6569	1.8131	25.82	-0.15	0.750			
0.6638	42484.22	3.6540	3.6541	1.6650	25.82	-0.15	0.750			
0.6686	42787.30	3.6510	3.6509	1.5413	25.82	-0.15	0.750			
0.6730	43072.25	3.6480	3.6481	1.4471	25.82	-0.15	0.750			
0.6770	43331.10	3.6450	3.6452	1.3614	25.81	-0.16	0.750			
0.6810	43584.63	3.6420	3.6416	1.2834	25.81	-0.16	0.750			
0.6847	43818.00	3.6390	3.6391	1.2346	25.81	-0.16	0.750			
0.6882	44043.68	3.6360	3.6361	1.2068	25.82	-0.15	0.750			
0.6917	44271.60	3.6330	3.6332	1.1995	25.82	-0.15	0.750			
0.6953	44499.04	3.6300	3.6301	1.1886	25.82	-0.15	0.750			
0.6988	44725.50	3.6270	3.6271	1.1972	25.82	-0.15	0.750			
0.7025	44958.09	3.6240	3.6241	1.2048	25.82	-0.15	0.750			
0.7062	45194.73	3.6210	3.6207	1.2108	25.82	-0.15	0.750			
0.7097	45423.88	3.6180	3.6181	1.1966	25.82	-0.15	0.750			
0.7134	45657.06	3.6150	3.6151	1.1943	25.81	-0.16	0.750			
0.7170	45889.50	3.6120	3.6119	1.1777	25.81	-0.16	0.750			
0.7205	46112.21	3.6090	3.6090	1.1548	25.81	-0.16	0.750			
0.7239	46330.00	3.6060	3.6061	1.1407	25.81	-0.16	0.750			
0.7273	46546.73	3.6030	3.6030	1.1363	25.81	-0.16	0.750			
0.7307	46762.94	3.6000	3.5996	1.1375	25.81	-0.16	0.750			
0.7340	46975.61	3.5970	3.5971	1.1531	25.81	-0.16	0.750			
0.7374	47196.18	3.5940	3.5940	1.1822	25.81	-0.16	0.750			
0.7411	47431.60	3.5910	3.5910	1.2137	25.81	-0.16	0.750			
0.7447	47659.95	3.5880	3.5879	1.2466	25.81	-0.16	0.750			
0.7485	47905.91	3.5850	3.5851	1.3042	25.81	-0.16	0.750			
0.7525	48162.19	3.5820	3.5821	1.3486	25.81	-0.16	0.750			
0.7566	48425.27	3.5790	3.5789	1.4063	25.81	-0.16	0.750			
0.7609	48700.48	3.5760	3.5761	1.4422	25.80	-0.17	0.750			
0.7653	48981.25	3.5730	3.5731	1.5024	25.80	-0.17	0.750			
0.7700	49278.22	3.5700	3.5702	1.5365	25.79	-0.18	0.750			
0.7746	49573.47	3.5670	3.5668	1.5742	25.79	-0.18	0.750			
0.7794	49881.57	3.5640	3.5640	1.6072	25.79	-0.18	0.750			
0.7843	50195.67	3.5610	3.5611	1.6311	25.79	-0.18	0.750			
0.7893	50517.64	3.5580	3.5580	1.6433	25.78	-0.19	0.750			
0.7943	50837.47	3.5550	3.5552	1.6603	25.78	-0.19	0.750			
0.7993	51154.55	3.5520	3.5519	1.6759	25.78	-0.19	0.750			
0.8043	51474.73	3.5490	3.5490	1.6864	25.78	-0.19	0.750			
0.8093	51797.74	3.5460	3.5463	1.7135	25.78	-0.19	0.750			
0.8145	52129.74	3.5430	3.5430	1.7458	25.79	-0.18	0.750			
0.8198	52469.36	3.5400	3.5402	1.7915	25.79	-0.18	0.750			
0.8256	52836.07	3.5370	3.5372	1.7263	25.79	-0.18	0.750			
0.8309	53175.88	3.5340	3.5340	1.5918	25.79	-0.18	0.750			
0.8359	53496.73	3.5310	3.5317	1.3813	25.80	-0.17	0.750			
0.8400	53760.15	3.5280	3.5285	1.1538	25.81	-0.16	0.750			
0.8429	53947.99	3.5250	3.5248	0.8834	25.82	-0.15	0.750			
0.8447	54060.77	3.5220	3.5218	0.6561	25.83	-0.14	0.750			
0.8460	54142.32	3.5190	3.5188	0.4796	25.84	-0.13	0.750			
0.8471	54215.53	3.5160	3.5159	0.4103	25.84	-0.13	0.750			
0.8482	54283.73	3.5130	3.5129	0.3636	25.85	-0.12	0.750			
0.8492	54346.07	3.5100	3.5100	0.3350	25.86	-0.11	0.750			
0.8501	54407.84	3.5070	3.5070	0.3180	25.86	-0.11	0.750			
0.8510	54466.04	3.5040	3.5040	0.3035	25.87	-0.10	0.750			
0.8519	54522.40	3.5010	3.5010	0.2958	25.87	-0.10	0.750			
0.8528	54578.14	3.4980	3.4980	0.2873	25.88	-0.09	0.750			
0.8536	54632.44	3.4950	3.4949	0.2800	25.88	-0.09	0.750			
0.8545	54685.95	3.4920	3.4919	0.2744	25.89	-0.08	0.750			
0.8553	54737.94	3.4890	3.4892	0.2668	25.90	-0.07	0.750			
0.8561	54788.66	3.4860	3.4859	0.2616	25.90	-0.07	0.750			
0.8568	54838.30	3.4830	3.4829	0.2548	25.90	-0.07	0.750			
0.8576	54884.92	3.4800	3.4801	0.2468	25.91	-0.06	0.750			
0.8583	54932.41	3.4770	3.4770	0.2456	25.91	-0.06	0.750			
0.8591	54979.93	3.4740	3.4739	0.2401	25.92	-0.05	0.750			
0.8598	55025.55	3.4710	3.4710	0.2351	25.92	-0.05	0.750			
0.8605	55070.39	3.4680	3.4680	0.2300	25.93	-0.04	0.750			
0.8612	55114.65	3.4650	3.4652	0.2252	25.93	-0.04	0.750			
0.8618	55156.77	3.4620	3.4620	0.2187	25.93	-0.04	0.750			
0.8625	55198.20	3.4590	3.4589	0.2129	25.94	-0.03	0.750			
0.8631	55238.09	3.4560	3.4560	0.2078	25.94	-0.03	0.750			
0.8637	55276.82	3.4530	3.4531	0.2027	25.94	-0.03	0.750			
0.8643	55315.95	3.4500	3.4499	0.2005	25.95	-0.02	0.750			
0.8649	55354.09	3.4470	3.4470	0.1959	25.95	-0.02	0.750			
0.8655	55391.19	3.4440	3.4440	0.1906	25.95	-0.02	0.750			
0.8661	55427.92	3.4410	3.4410	0.1859	25.96	-0.01	0.750			
0.8666	55463.25	3.4380	3.4380	0.1802	25.96	-0.01	0.750			
0.8671	55497.06	3.4350	3.4351	0.1752	25.96	-0.01	0.750			
0.8677	55530.03	3.4320	3.4320	0.1702	25.97	-0.00	0.750			
0.8682	55561.94	3.4290	3.4289	0.1647	25.97	-0.00	0.750			
0.8686	55593.24	3.4260	3.4260	0.1600	25.97	0.00	0.750			
0.8691	55623.51	3.4230	3.4230	0.1553	25.97	0.00	0.750			
0.8696	55653.14	3.4200	3.4201	0.1501	25.98	0.01	0.750			
0.8700	55681.97	3.4170	3.4170	0.1443	25.98	0.01	0.750			
0.8705	55708.99	3.4140	3.4139	0.1374	25.98	0.01	0.750			
0.8709	55734.70	3.4110	3.4111	0.1308	25.98	0.01	0.750			
0.8712	55759.28	3.4080	3.4081	0.1241	25.99	0.02	0.750			
0.8716	55782.52	3.4050	3.4050	0.1171	25.99	0.02	0.750			
0.8719	55804.25	3.4020	3.4019	0.1099	25.99	0.02	0.750			
0.8723	55825.84	3.3990	3.3990	0.1005	25.99	0.02	0.750			
0.8726	55844.62	3.3960	3.3959	0.0923	25.99	0.02	0.750			
0.8728	55862.14	3.3930	3.3930	0.0844	25.99	0.02	0.750			
0.8731	55877.30	3.3900	3.3902	0.0735	26.00	0.03	0.750			
0.8733	55891.15	3.3870	3.3874	0.0631	26.00	0.03	0.750			
0.8735	55902.11	3.3840	3.3848	0.0510	26.00	0.03	0.750			
0.8736	55910.75	3.3810	3.3819	0.0390	26.00	0.03	0.750			
0.8737	55917.08	3.3780	3.3796	0.0269	26.00	0.03	0.750			
