Ah_balance (normalized)	Ah_balance (mAh)	Voltage - fit (V)	Voltage -  interpolate (V)	dQ/dV (1/V)	Temperature (°C)	Temperature - diff (°C)	Current (C)	R_DC 0ms (mOhm)	R_DC 50ms (mOhm)	R_DC 50 ms PEC (mOhm)
0.0004	25.64	4.1550	4.1547	-0.1205	24.93	0.00	-0.750			
0.0008	52.29	4.1520	4.1519	-0.1576	24.93	0.00	-0.750			
0.0014	87.07	4.1490	4.1490	-0.1932	24.93	0.00	-0.750			
0.0020	127.64	4.1460	4.1460	-0.2271	24.93	-0.00	-0.750			
0.0027	174.44	4.1430	4.1429	-0.2608	24.93	-0.00	-0.750			
0.0036	228.67	4.1400	4.1400	-0.2931	24.92	-0.01	-0.750			
0.0045	288.14	4.1370	4.1370	-0.3236	24.92	-0.01	-0.750			
0.0055	353.37	4.1340	4.1340	-0.3519	24.92	-0.01	-0.750			
0.0066	423.95	4.1310	4.1311	-0.3815	24.92	-0.01	-0.750			
0.0078	500.88	4.1280	4.1280	-0.4089	24.91	-0.02	-0.750			
0.0091	581.43	4.1250	4.1250	-0.4354	24.91	-0.02	-0.750			
0.0104	667.95	4.1220	4.1220	-0.4607	24.91	-0.02	-0.750			
0.0119	759.69	4.1190	4.1190	-0.4831	24.90	-0.03	-0.750			
0.0134	855.33	4.1160	4.1160	-0.5046	24.90	-0.03	-0.750			
0.0149	954.73	4.1130	4.1130	-0.5215	24.90	-0.03	-0.750			
0.0165	1056.78	4.1100	4.1100	-0.5362	24.90	-0.03	-0.750			
0.0181	1161.45	4.1070	4.1070	-0.5507	24.90	-0.03	-0.750			
0.0198	1267.64	4.1040	4.1041	-0.5630	24.90	-0.03	-0.750			
0.0215	1378.14	4.1010	4.1009	-0.5755	24.89	-0.04	-0.750			
0.0233	1491.22	4.0980	4.0980	-0.5854	24.89	-0.04	-0.750			
0.0251	1604.04	4.0950	4.0950	-0.5947	24.89	-0.04	-0.750			
0.0269	1720.30	4.0920	4.0922	-0.6038	24.89	-0.04	-0.750			
0.0287	1837.02	4.0890	4.0890	-0.6084	24.89	-0.04	-0.750			
0.0305	1954.02	4.0860	4.0860	-0.6137	24.89	-0.04	-0.750			
0.0324	2072.56	4.0830	4.0831	-0.6238	24.89	-0.04	-0.750			
0.0343	2193.05	4.0800	4.0799	-0.6310	24.89	-0.04	-0.750			
0.0362	2315.17	4.0770	4.0769	-0.6379	24.89	-0.04	-0.750			
0.0381	2437.69	4.0740	4.0742	-0.6431	24.89	-0.04	-0.750			
0.0400	2562.39	4.0710	4.0708	-0.6494	24.89	-0.04	-0.750			
0.0420	2688.45	4.0680	4.0679	-0.6558	24.89	-0.04	-0.750			
0.0440	2814.61	4.0650	4.0651	-0.6578	24.89	-0.04	-0.750			
0.0460	2940.89	4.0620	4.0620	-0.6606	24.89	-0.04	-0.750			
0.0480	3071.33	4.0590	4.0589	-0.6682	24.89	-0.04	-0.750			
0.0500	3199.90	4.0560	4.0560	-0.6695	24.89	-0.04	-0.750			
0.0520	3327.95	4.0530	4.0531	-0.6713	24.89	-0.04	-0.750			
0.0540	3457.14	4.0500	4.0499	-0.6737	24.89	-0.04	-0.750			
0.0560	3585.18	4.0470	4.0470	-0.6795	24.90	-0.03	-0.750			
0.0580	3714.27	4.0440	4.0440	-0.6781	24.90	-0.03	-0.750			
0.0601	3848.13	4.0410	4.0410	-0.6831	24.90	-0.03	-0.750			
0.0622	3979.65	4.0380	4.0379	-0.6833	24.91	-0.02	-0.750			
0.0642	4109.82	4.0350	4.0353	-0.6883	24.91	-0.02	-0.750			
0.0663	4241.26	4.0320	4.0319	-0.6902	24.91	-0.02	-0.750			
0.0683	4374.06	4.0290	4.0290	-0.6938	24.92	-0.01	-0.750			
0.0704	4507.90	4.0260	4.0261	-0.6998	24.92	-0.01	-0.750			
0.0726	4643.90	4.0230	4.0230	-0.7052	24.92	-0.01	-0.750			
0.0747	4779.61	4.0200	4.0198	-0.7093	24.93	-0.00	-0.750			
0.0768	4915.20	4.0170	4.0171	-0.7095	24.93	0.00	-0.750			
0.0789	5051.12	4.0140	4.0140	-0.7109	24.93	0.00	-0.750			
0.0811	5188.22	4.0110	4.0110	-0.7159	24.93	0.00	-0.750			
0.0832	5327.80	4.0080	4.0079	-0.7129	24.93	0.00	-0.750			
0.0854	5464.51	4.0050	4.0050	-0.7097	24.93	0.00	-0.750			
0.0875	5600.59	4.0020	4.0020	-0.7081	24.93	0.00	-0.750			
0.0896	5734.78	3.9990	3.9991	-0.7082	24.93	0.00	-0.750			
0.0917	5870.34	3.9960	3.9959	-0.7146	24.94	0.01	-0.750			
0.0938	6005.42	3.9930	3.9930	-0.7203	24.94	0.01	-0.750			
0.0960	6144.97	3.9900	3.9900	-0.7232	24.95	0.02	-0.750			
0.0983	6288.04	3.9870	3.9870	-0.7276	24.95	0.02	-0.750			
0.1004	6428.10	3.9840	3.9840	-0.7301	24.96	0.03	-0.750			
0.1026	6567.42	3.9810	3.9809	-0.7300	24.96	0.03	-0.750			
0.1048	6707.06	3.9780	3.9780	-0.7307	24.96	0.03	-0.750			
0.1070	6846.19	3.9750	3.9749	-0.7296	24.96	0.03	-0.750			
0.1092	6987.25	3.9720	3.9721	-0.7315	24.97	0.04	-0.750			
0.1114	7128.90	3.9690	3.9690	-0.7356	24.97	0.04	-0.750			
0.1136	7269.93	3.9660	3.9661	-0.7432	24.97	0.04	-0.750			
0.1158	7411.90	3.9630	3.9629	-0.7423	24.97	0.04	-0.750			
0.1180	7554.00	3.9600	3.9599	-0.7444	24.98	0.05	-0.750			
0.1203	7699.16	3.9570	3.9570	-0.7469	24.98	0.05	-0.750			
0.1225	7842.81	3.9540	3.9540	-0.7489	24.98	0.05	-0.750			
0.1248	7988.30	3.9510	3.9510	-0.7507	24.99	0.06	-0.750			
0.1271	8131.75	3.9480	3.9480	-0.7488	24.99	0.06	-0.750			
0.1293	8273.02	3.9450	3.9450	-0.7483	24.99	0.06	-0.750			
0.1315	8418.82	3.9420	3.9420	-0.7539	24.99	0.06	-0.750			
0.1338	8563.71	3.9390	3.9390	-0.7516	25.00	0.07	-0.750			
0.1361	8709.41	3.9360	3.9360	-0.7578	25.00	0.07	-0.750			
0.1383	8854.38	3.9330	3.9330	-0.7553	25.00	0.07	-0.750			
0.1406	8997.56	3.9300	3.9299	-0.7640	25.00	0.07	-0.750			
0.1429	9143.97	3.9270	3.9270	-0.7732	25.00	0.07	-0.750			
0.1452	9293.32	3.9240	3.9240	-0.7723	25.01	0.08	-0.750			
0.1476	9443.62	3.9210	3.9210	-0.7756	25.01	0.08	-0.750			
0.1499	9595.44	3.9180	3.9181	-0.7833	25.01	0.08	-0.750			
0.1523	9745.11	3.9150	3.9151	-0.7815	25.01	0.08	-0.750			
0.1546	9894.02	3.9120	3.9119	-0.7843	25.02	0.09	-0.750			
0.1569	10044.33	3.9090	3.9090	-0.7769	25.02	0.09	-0.750			
0.1593	10194.54	3.9060	3.9060	-0.7753	25.02	0.09	-0.750			
0.1616	10344.94	3.9030	3.9030	-0.7743	25.03	0.10	-0.750			
0.1639	10492.74	3.9000	3.9005	-0.7745	25.03	0.10	-0.750			
0.1662	10638.83	3.8970	3.8969	-0.7742	25.03	0.10	-0.750			
0.1685	10786.60	3.8940	3.8940	-0.7772	25.04	0.11	-0.750			
0.1709	10936.45	3.8910	3.8910	-0.7828	25.04	0.11	-0.750			
0.1733	11091.03	3.8880	3.8879	-0.7888	25.04	0.11	-0.750			
0.1756	11241.44	3.8850	3.8851	-0.7866	25.05	0.12	-0.750			
0.1780	11392.79	3.8820	3.8820	-0.7863	25.05	0.12	-0.750			
0.1803	11541.68	3.8790	3.8789	-0.7865	25.06	0.13	-0.750			
0.1827	11692.01	3.8760	3.8760	-0.7822	25.06	0.13	-0.750			
0.1850	11842.83	3.8730	3.8730	-0.7836	25.06	0.13	-0.750			
0.1874	11995.64	3.8700	3.8699	-0.7834	25.07	0.14	-0.750			
0.1898	12146.34	3.8670	3.8671	-0.7819	25.07	0.14	-0.750			
0.1921	12294.21	3.8640	3.8640	-0.7782	25.07	0.14	-0.750			
0.1944	12443.23	3.8610	3.8609	-0.7795	25.07	0.14	-0.750			
0.1967	12591.44	3.8580	3.8580	-0.7785	25.07	0.14	-0.750			
0.1991	12742.46	3.8550	3.8550	-0.7850	25.07	0.14	-0.750			
0.2015	12893.72	3.8520	3.8523	-0.7891	25.07	0.14	-0.750			
0.2039	13047.03	3.8490	3.8490	-0.7880	25.07	0.14	-0.750			
0.2062	13198.47	3.8460	3.8460	-0.7872	25.07	0.14	-0.750			
0.2086	13349.73	3.8430	3.8430	-0.7836	25.08	0.15	-0.750			
0.2109	13500.53	3.8400	3.8400	-0.7767	25.08	0.15	-0.750			
0.2133	13648.24	3.8370	3.8369	-0.7738	25.08	0.15	-0.750			
0.2156	13795.30	3.8340	3.8340	-0.7699	25.08	0.15	-0.750			
0.2178	13941.72	3.8310	3.8310	-0.7718	25.09	0.16	-0.750			
0.2202	14091.35	3.8280	3.8279	-0.7702	25.10	0.17	-0.750			
0.2225	14237.97	3.8250	3.8250	-0.7683	25.10	0.17	-0.750			
0.2248	14387.49	3.8220	3.8220	-0.7671	25.11	0.18	-0.750			
0.2271	14534.55	3.8190	3.8191	-0.7655	25.11	0.18	-0.750			
0.2294	14679.06	3.8160	3.8160	-0.7621	25.11	0.18	-0.750			
0.2317	14825.63	3.8130	3.8129	-0.7640	25.12	0.19	-0.750			
0.2339	14971.89	3.8100	3.8100	-0.7611	25.12	0.19	-0.750			
0.2363	15120.01	3.8070	3.8070	-0.7617	25.13	0.20	-0.750			
0.2385	15266.01	3.8040	3.8038	-0.7594	25.13	0.20	-0.750			
0.2408	15412.65	3.8010	3.8010	-0.7568	25.13	0.20	-0.750			
0.2431	15556.14	3.7980	3.7979	-0.7482	25.13	0.20	-0.750			
0.2453	15698.98	3.7950	3.7950	-0.7502	25.14	0.21	-0.750			
0.2476	15843.58	3.7920	3.7920	-0.7493	25.14	0.21	-0.750			
0.2498	15986.78	3.7890	3.7889	-0.7514	25.14	0.21	-0.750			
0.2520	16130.49	3.7860	3.7862	-0.7531	25.14	0.21	-0.750			
0.2543	16275.35	3.7830	3.7830	-0.7513	25.14	0.21	-0.750			
0.2566	16420.60	3.7800	3.7798	-0.7527	25.15	0.22	-0.750			
0.2588	16564.87	3.7770	3.7772	-0.7457	25.15	0.22	-0.750			
0.2611	16711.26	3.7740	3.7740	-0.7442	25.16	0.23	-0.750			
0.2634	16854.51	3.7710	3.7709	-0.7386	25.16	0.23	-0.750			
0.2655	16994.01	3.7680	3.7679	-0.7315	25.16	0.23	-0.750			
0.2677	17130.97	3.7650	3.7650	-0.7216	25.17	0.24	-0.750			
0.2698	17268.23	3.7620	3.7619	-0.7258	25.17	0.24	-0.750			
0.2720	17406.78	3.7590	3.7591	-0.7270	25.17	0.24	-0.750			
0.2742	17548.33	3.7560	3.7559	-0.7338	25.18	0.25	-0.750			
0.2764	17689.40	3.7530	3.7531	-0.7369	25.18	0.25	-0.750			
0.2786	17830.74	3.7500	3.7501	-0.7428	25.18	0.25	-0.750			
0.2808	17973.83	3.7470	3.7470	-0.7491	25.18	0.25	-0.750			
0.2831	18118.16	3.7440	3.7439	-0.7558	25.19	0.26	-0.750			
0.2854	18263.41	3.7410	3.7410	-0.7620	25.19	0.26	-0.750			
0.2877	18410.45	3.7380	3.7380	-0.7702	25.19	0.26	-0.750			
0.2900	18560.32	3.7350	3.7350	-0.7786	25.19	0.26	-0.750			
0.2923	18709.07	3.7320	3.7320	-0.7906	25.19	0.26	-0.750			
0.2947	18860.00	3.7290	3.7290	-0.7979	25.19	0.26	-0.750			
0.2971	19015.06	3.7260	3.7260	-0.8108	25.20	0.27	-0.750			
0.2996	19172.18	3.7230	3.7230	-0.8219	25.20	0.27	-0.750			
0.3021	19332.27	3.7200	3.7201	-0.8322	25.20	0.27	-0.750			
0.3046	19491.89	3.7170	3.7170	-0.8472	25.19	0.26	-0.750			
0.3071	19655.80	3.7140	3.7140	-0.8567	25.19	0.26	-0.750			
0.3097	19820.33	3.7110	3.7110	-0.8670	25.19	0.26	-0.750			
0.3123	19987.54	3.7080	3.7080	-0.8833	25.18	0.25	-0.750			
0.3150	20157.94	3.7050	3.7051	-0.9006	25.18	0.25	-0.750			
0.3177	20333.49	3.7020	3.7019	-0.9183	25.18	0.25	-0.750			
0.3205	20511.21	3.6990	3.6989	-0.9353	25.18	0.25	-0.750			
0.3233	20691.69	3.6960	3.6960	-0.9489	25.18	0.25	-0.750			
0.3262	20877.28	3.6930	3.6932	-0.9712	25.18	0.25	-0.750			
0.3291	21064.64	3.6900	3.6899	-0.9935	25.17	0.24	-0.750			
0.3322	21257.75	3.6870	3.6870	-1.0097	25.17	0.24	-0.750			
0.3352	21453.81	3.6840	3.6839	-1.0212	25.16	0.23	-0.750			
0.3383	21654.12	3.6810	3.6809	-1.0452	25.15	0.22	-0.750			
0.3415	21853.53	3.6780	3.6780	-1.0608	25.15	0.22	-0.750			
0.3447	22058.38	3.6750	3.6750	-1.0763	25.15	0.22	-0.750			
0.3479	22265.07	3.6720	3.6719	-1.0930	25.15	0.22	-0.750			
0.3512	22475.32	3.6690	3.6691	-1.1098	25.15	0.22	-0.750			
0.3546	22695.09	3.6660	3.6660	-1.1451	25.14	0.21	-0.750			
0.3581	22917.32	3.6630	3.6630	-1.1664	25.14	0.21	-0.750			
0.3616	23143.80	3.6600	3.6599	-1.1833	25.13	0.20	-0.750			
0.3652	23372.33	3.6570	3.6571	-1.2041	25.13	0.20	-0.750			
0.3689	23607.01	3.6540	3.6539	-1.2278	25.13	0.20	-0.750			
0.3726	23843.73	3.6510	3.6510	-1.2465	25.12	0.19	-0.750			
0.3763	24081.32	3.6480	3.6480	-1.2603	25.12	0.19	-0.750			
0.3801	24328.85	3.6450	3.6450	-1.2910	25.11	0.18	-0.750			
0.3840	24578.51	3.6420	3.6419	-1.3150	25.11	0.18	-0.750			
0.3880	24833.77	3.6390	3.6390	-1.3440	25.10	0.17	-0.750			
0.3921	25094.43	3.6360	3.6361	-1.3684	25.09	0.16	-0.750			
0.3963	25360.36	3.6330	3.6330	-1.3918	25.08	0.15	-0.750			
0.4005	25630.34	3.6300	3.6300	-1.4234	25.06	0.13	-0.750			
0.4048	25906.51	3.6270	3.6269	-1.4469	25.06	0.13	-0.750			
0.4091	26185.03	3.6240	3.6238	-1.4748	25.05	0.12	-0.750			
0.4136	26470.45	3.6210	3.6212	-1.5086	25.05	0.12	-0.750			
0.4182	26764.68	3.6180	3.6179	-1.5349	25.05	0.12	-0.750			
0.4229	27066.48	3.6150	3.6148	-1.5686	25.04	0.11	-0.750			
0.4277	27370.31	3.6120	3.6121	-1.5916	25.04	0.11	-0.750	0.393	0.556	
0.4325	27677.09	3.6090	3.6090	-1.6174	25.04	0.11	-0.750			
0.4374	27994.49	3.6060	3.6059	-1.6465	25.03	0.10	-0.750			
0.4423	28309.99	3.6030	3.6029	-1.6657	25.03	0.10	-0.750			
0.4473	28628.93	3.6000	3.6003	-1.7028	25.02	0.09	-0.750			
0.4525	28961.33	3.5970	3.5970	-1.7434	25.02	0.09	-0.750			
0.4578	29299.82	3.5940	3.5941	-1.7830	25.01	0.08	-0.750			
0.4632	29645.24	3.5910	3.5909	-1.8239	25.01	0.08	-0.750			
0.4688	30000.40	3.5880	3.5881	-1.8572	25.01	0.08	-0.750			
0.4745	30367.96	3.5850	3.5850	-1.8962	25.01	0.08	-0.750			
0.4803	30736.02	3.5820	3.5819	-1.9288	25.00	0.07	-0.750			
0.4860	31105.82	3.5790	3.5790	-1.9270	24.99	0.06	-0.750			
0.4918	31478.09	3.5760	3.5761	-1.9511	24.99	0.06	-0.750			
0.4977	31851.37	3.5730	3.5730	-1.9708	24.99	0.06	-0.750			
0.5036	32231.76	3.5700	3.5699	-2.0051	24.99	0.06	-0.750			
0.5097	32621.24	3.5670	3.5671	-2.0316	24.99	0.06	-0.750			
0.5159	33015.28	3.5640	3.5640	-2.0559	24.99	0.06	-0.750			
0.5221	33412.51	3.5610	3.5611	-2.0815	24.99	0.06	-0.750			
0.5284	33818.96	3.5580	3.5580	-2.0884	24.99	0.06	-0.750			
0.5347	34223.23	3.5550	3.5550	-2.1046	24.99	0.06	-0.750			
0.5410	34626.33	3.5520	3.5520	-2.0983	24.99	0.06	-0.750			
0.5473	35029.17	3.5490	3.5489	-2.1022	24.99	0.06	-0.750			
0.5537	35437.23	3.5460	3.5460	-2.0942	24.99	0.06	-0.750			
0.5599	35836.76	3.5430	3.5430	-2.0847	24.99	0.06	-0.750			
0.5662	36237.27	3.5400	3.5400	-2.0720	24.99	0.06	-0.750			
0.5724	36634.59	3.5370	3.5370	-2.0501	25.00	0.07	-0.750			
0.5786	37027.78	3.5340	3.5340	-2.0311	25.01	0.08	-0.750			
0.5846	37416.48	3.5310	3.5310	-2.0100	25.02	0.09	-0.750			
0.5906	37798.18	3.5280	3.5280	-1.9838	25.02	0.09	-0.750			
0.5966	38180.50	3.5250	3.5250	-1.9468	25.03	0.10	-0.750			
0.6024	38551.88	3.5220	3.5219	-1.9104	25.03	0.10	-0.750			
0.6081	38915.88	3.5190	3.5190	-1.8761	25.04	0.11	-0.750			
0.6136	39272.26	3.5160	3.5158	-1.8328	25.04	0.11	-0.750			
0.6190	39618.88	3.5130	3.5131	-1.7958	25.05	0.12	-0.750			
0.6244	39960.87	3.5100	3.5100	-1.7512	25.07	0.14	-0.750			
0.6296	40292.37	3.5070	3.5069	-1.7098	25.08	0.15	-0.750			
0.6347	40619.03	3.5040	3.5041	-1.6587	25.09	0.16	-0.750			
0.6396	40931.58	3.5010	3.5012	-1.6113	25.10	0.17	-0.750			
0.6443	41236.08	3.4980	3.4979	-1.5643	25.12	0.19	-0.750			
0.6489	41532.76	3.4950	3.4951	-1.5258	25.13	0.20	-0.750			
0.6535	41821.19	3.4920	3.4920	-1.4783	25.15	0.22	-0.750			
0.6579	42104.11	3.4890	3.4889	-1.4396	25.16	0.23	-0.750			
0.6621	42371.89	3.4860	3.4860	-1.3957	25.17	0.24	-0.750			
0.6662	42639.80	3.4830	3.4830	-1.3564	25.19	0.26	-0.750			
0.6703	42896.49	3.4800	3.4799	-1.3102	25.20	0.27	-0.750			
0.6741	43143.55	3.4770	3.4769	-1.2667	25.21	0.28	-0.750			
0.6778	43381.93	3.4740	3.4741	-1.2246	25.22	0.29	-0.750			
0.6815	43615.48	3.4710	3.4710	-1.1872	25.24	0.31	-0.750			
0.6850	43838.32	3.4680	3.4679	-1.1460	25.25	0.32	-0.750			
0.6883	44051.42	3.4650	3.4652	-1.1055	25.26	0.33	-0.750			
0.6916	44262.70	3.4620	3.4619	-1.0811	25.27	0.34	-0.750			
0.6948	44467.16	3.4590	3.4589	-1.0475	25.28	0.35	-0.750			
0.6979	44664.03	3.4560	3.4560	-1.0142	25.30	0.37	-0.750			
0.7008	44853.79	3.4530	3.4530	-0.9838	25.31	0.38	-0.750			
0.7038	45041.89	3.4500	3.4500	-0.9617	25.32	0.39	-0.750			
0.7066	45223.78	3.4470	3.4470	-0.9343	25.33	0.40	-0.750			
0.7093	45398.29	3.4440	3.4440	-0.9088	25.34	0.41	-0.750			
0.7120	45570.10	3.4410	3.4410	-0.8905	25.35	0.42	-0.750			
0.7147	45739.70	3.4380	3.4380	-0.8757	25.36	0.43	-0.750			
0.7173	45905.40	3.4350	3.4349	-0.8622	25.37	0.44	-0.750			
0.7198	46067.91	3.4320	3.4320	-0.8503	25.38	0.45	-0.750			
0.7223	46229.14	3.4290	3.4290	-0.8415	25.39	0.46	-0.750			
0.7248	46390.07	3.4260	3.4260	-0.8428	25.40	0.47	-0.750			
0.7274	46551.50	3.4230	3.4229	-0.8403	25.40	0.47	-0.750			
0.7299	46711.52	3.4200	3.4200	-0.8403	25.41	0.48	-0.750			
0.7324	46873.45	3.4170	3.4170	-0.8415	25.42	0.49	-0.750			
0.7349	47035.76	3.4140	3.4141	-0.8452	25.43	0.50	-0.750			
0.7375	47197.48	3.4110	3.4110	-0.8472	25.44	0.51	-0.750			
0.7400	47360.09	3.4080	3.4080	-0.8491	25.44	0.51	-0.750			
0.7426	47523.80	3.4050	3.4050	-0.8452	25.45	0.52	-0.750			
0.7451	47688.46	3.4020	3.4020	-0.8415	25.46	0.53	-0.750			
0.7477	47849.81	3.3990	3.3990	-0.8315	25.47	0.54	-0.750			
0.7501	48008.93	3.3960	3.3959	-0.8204	25.48	0.55	-0.750			
0.7526	48165.16	3.3930	3.3930	-0.8043	25.48	0.55	-0.750			
0.7550	48318.34	3.3900	3.3899	-0.7840	25.49	0.56	-0.750			
0.7573	48468.10	3.3870	3.3870	-0.7642	25.49	0.56	-0.750			
0.7596	48613.07	3.3840	3.3841	-0.7415	25.49	0.56	-0.750			
0.7618	48753.84	3.3810	3.3809	-0.7200	25.50	0.57	-0.750			
0.7639	48889.05	3.3780	3.3781	-0.6979	25.50	0.57	-0.750			
0.7659	49020.16	3.3750	3.3750	-0.6777	25.51	0.58	-0.750			
0.7680	49148.86	3.3720	3.3720	-0.6575	25.51	0.58	-0.750			
0.7699	49272.82	3.3690	3.3690	-0.6425	25.52	0.59	-0.750			
0.7718	49394.90	3.3660	3.3660	-0.6222	25.53	0.60	-0.750			
0.7736	49512.66	3.3630	3.3630	-0.6014	25.53	0.60	-0.750			
0.7754	49626.38	3.3600	3.3599	-0.5812	25.54	0.61	-0.750			
0.7771	49735.54	3.3570	3.3570	-0.5607	25.54	0.61	-0.750			
0.7788	49841.40	3.3540	3.3540	-0.5392	25.55	0.62	-0.750			
0.7804	49942.76	3.3510	3.3509	-0.5207	25.55	0.62	-0.750			
0.7819	50038.51	3.3480	3.3481	-0.5029	25.56	0.63	-0.750			
0.7834	50135.16	3.3450	3.3450	-0.4907	25.56	0.63	-0.750			
0.7848	50227.58	3.3420	3.3419	-0.4782	25.57	0.64	-0.750			
0.7862	50318.39	3.3390	3.3391	-0.4633	25.57	0.64	-0.750			
0.7876	50406.02	3.3360	3.3360	-0.4495	25.58	0.65	-0.750			
0.7889	50491.06	3.3330	3.3331	-0.4388	25.58	0.65	-0.750			
0.7902	50573.44	3.3300	3.3299	-0.4233	25.59	0.66	-0.750			
0.7915	50653.28	3.3270	3.3270	-0.4098	25.59	0.66	-0.750			
0.7927	50731.11	3.3240	3.3240	-0.3996	25.60	0.67	-0.750			
0.7938	50806.31	3.3210	3.3211	-0.3899	25.60	0.67	-0.750			
0.7950	50880.40	3.3180	3.3179	-0.3810	25.60	0.67	-0.750			
0.7961	50951.97	3.3150	3.3149	-0.3699	25.61	0.68	-0.750			
0.7972	51021.97	3.3120	3.3120	-0.3597	25.61	0.68	-0.750			
0.7983	51090.74	3.3090	3.3090	-0.3531	25.62	0.69	-0.750			
0.7993	51157.56	3.3060	3.3060	-0.3440	25.62	0.69	-0.750			
0.8003	51222.05	3.3030	3.3030	-0.3344	25.63	0.70	-0.750			
0.8013	51285.39	3.3000	3.3000	-0.3260	25.63	0.70	-0.750			
0.8023	51346.75	3.2970	3.2971	-0.3202	25.64	0.71	-0.750			
0.8032	51407.87	3.2940	3.2939	-0.3145	25.64	0.71	-0.750			
0.8042	51467.94	3.2910	3.2910	-0.3093	25.65	0.72	-0.750			
0.8051	51526.76	3.2880	3.2880	-0.3030	25.65	0.72	-0.750			
0.8060	51584.49	3.2850	3.2850	-0.2969	25.66	0.73	-0.750			
0.8069	51641.03	3.2820	3.2820	-0.2912	25.66	0.73	-0.750			
0.8078	51696.18	3.2790	3.2790	-0.2856	25.67	0.74	-0.750			
0.8086	51749.76	3.2760	3.2760	-0.2804	25.67	0.74	-0.750			
0.8094	51803.10	3.2730	3.2730	-0.2759	25.68	0.75	-0.750			
0.8102	51855.52	3.2700	3.2700	-0.2708	25.68	0.75	-0.750			
0.8110	51907.19	3.2670	3.2670	-0.2685	25.68	0.75	-0.750			
0.8119	51958.57	3.2640	3.2641	-0.2638	25.69	0.76	-0.750			
0.8126	52009.03	3.2610	3.2609	-0.2590	25.69	0.76	-0.750			
0.8134	52058.27	3.2580	3.2580	-0.2554	25.70	0.77	-0.750			
0.8142	52106.30	3.2550	3.2552	-0.2511	25.70	0.77	-0.750			
0.8149	52154.28	3.2520	3.2518	-0.2495	25.71	0.78	-0.750			
0.8157	52202.08	3.2490	3.2490	-0.2462	25.71	0.78	-0.750			
0.8164	52248.72	3.2460	3.2460	-0.2427	25.72	0.79	-0.750			
0.8171	52295.85	3.2430	3.2430	-0.2411	25.72	0.79	-0.750			
0.8178	52341.81	3.2400	3.2401	-0.2379	25.73	0.80	-0.750			
0.8185	52386.97	3.2370	3.2370	-0.2337	25.73	0.80	-0.750			
0.8192	52431.46	3.2340	3.2340	-0.2300	25.74	0.81	-0.750			
0.8199	52474.89	3.2310	3.2310	-0.2268	25.74	0.81	-0.750			
0.8206	52517.97	3.2280	3.2280	-0.2244	25.75	0.82	-0.750			
0.8213	52560.92	3.2250	3.2250	-0.2226	25.75	0.82	-0.750			
0.8219	52603.54	3.2220	3.2220	-0.2199	25.76	0.83	-0.750			
0.8226	52645.45	3.2190	3.2190	-0.2176	25.76	0.83	-0.750			
0.8232	52687.01	3.2160	3.2160	-0.2152	25.77	0.84	-0.750			
0.8239	52728.35	3.2130	3.2130	-0.2133	25.77	0.84	-0.750			
0.8245	52769.21	3.2100	3.2100	-0.2106	25.78	0.85	-0.750			
0.8251	52809.34	3.2070	3.2070	-0.2077	25.78	0.85	-0.750			
0.8258	52848.89	3.2040	3.2040	-0.2052	25.79	0.86	-0.750			
0.8264	52887.99	3.2010	3.2012	-0.2029	25.79	0.86	-0.750			
0.8270	52926.67	3.1980	3.1980	-0.2011	25.80	0.87	-0.750			
0.8276	52964.82	3.1950	3.1949	-0.1987	25.80	0.87	-0.750			
0.8282	53002.72	3.1920	3.1920	-0.1964	25.81	0.88	-0.750			
0.8288	53040.21	3.1890	3.1889	-0.1944	25.81	0.88	-0.750			
0.8293	53077.93	3.1860	3.1861	-0.1933	25.82	0.89	-0.750			
0.8299	53114.77	3.1830	3.1830	-0.1904	25.82	0.89	-0.750			
0.8305	53150.90	3.1800	3.1800	-0.1884	25.83	0.90	-0.750			
0.8310	53186.52	3.1770	3.1771	-0.1869	25.83	0.90	-0.750			
0.8316	53222.26	3.1740	3.1740	-0.1847	25.84	0.91	-0.750			
0.8321	53257.60	3.1710	3.1709	-0.1834	25.84	0.91	-0.750			
0.8327	53292.85	3.1680	3.1680	-0.1818	25.85	0.92	-0.750			
0.8332	53327.67	3.1650	3.1651	-0.1801	25.85	0.92	-0.750			
0.8338	53362.40	3.1620	3.1620	-0.1786	25.86	0.93	-0.750			
0.8343	53396.34	3.1590	3.1590	-0.1766	25.86	0.93	-0.750			
0.8348	53429.83	3.1560	3.1560	-0.1747	25.87	0.94	-0.750			
0.8354	53463.02	3.1530	3.1530	-0.1723	25.87	0.94	-0.750			
0.8359	53496.10	3.1500	3.1500	-0.1715	25.88	0.95	-0.750			
0.8364	53528.87	3.1470	3.1469	-0.1698	25.88	0.95	-0.750			
0.8369	53561.28	3.1440	3.1440	-0.1681	25.89	0.96	-0.750			
0.8374	53593.53	3.1410	3.1409	-0.1661	25.89	0.96	-0.750			
0.8379	53625.21	3.1380	3.1380	-0.1641	25.90	0.97	-0.750			
0.8384	53656.31	3.1350	3.1351	-0.1628	25.90	0.97	-0.750			
0.8389	53687.33	3.1320	3.1321	-0.1612	25.91	0.98	-0.750			
0.8393	53718.05	3.1290	3.1290	-0.1603	25.92	0.99	-0.750			
0.8398	53748.72	3.1260	3.1259	-0.1586	25.92	0.99	-0.750			
0.8403	53779.08	3.1230	3.1230	-0.1577	25.93	1.00	-0.750			
0.8408	53809.36	3.1200	3.1200	-0.1564	25.93	1.00	-0.750			
0.8412	53839.53	3.1170	3.1171	-0.1553	25.94	1.01	-0.750			
0.8417	53869.14	3.1140	3.1140	-0.1540	25.95	1.02	-0.750			
0.8422	53898.28	3.1110	3.1110	-0.1519	25.95	1.02	-0.750			
0.8426	53927.35	3.1080	3.1081	-0.1510	25.96	1.03	-0.750			
0.8431	53956.21	3.1050	3.1050	-0.1497	25.96	1.03	-0.750			
0.8435	53984.99	3.1020	3.1020	-0.1491	25.97	1.04	-0.750			
0.8440	54013.50	3.0990	3.0990	-0.1479	25.97	1.04	-0.750			
0.8444	54041.79	3.0960	3.0960	-0.1463	25.98	1.05	-0.750			
0.8448	54069.86	3.0930	3.0930	-0.1449	25.99	1.06	-0.750			
0.8453	54097.40	3.0900	3.0900	-0.1436	25.99	1.06	-0.750			
0.8457	54124.85	3.0870	3.0870	-0.1423	26.00	1.07	-0.750			
0.8461	54152.03	3.0840	3.0840	-0.1408	26.00	1.07	-0.750			
0.8465	54178.83	3.0810	3.0809	-0.1399	26.01	1.08	-0.750			
0.8470	54205.42	3.0780	3.0781	-0.1388	26.01	1.08	-0.750			
0.8474	54232.02	3.0750	3.0750	-0.1382	26.02	1.09	-0.750			
0.8478	54258.63	3.0720	3.0720	-0.1370	26.02	1.09	-0.750			
0.8482	54284.73	3.0690	3.0690	-0.1365	26.03	1.10	-0.750			
0.8486	54310.98	3.0660	3.0661	-0.1352	26.03	1.10	-0.750			
0.8490	54336.84	3.0630	3.0630	-0.1342	26.03	1.10	-0.750			
0.8494	54362.62	3.0600	3.0599	-0.1334	26.04	1.11	-0.750			
0.8498	54388.05	3.0570	3.0571	-0.1320	26.04	1.11	-0.750			
0.8502	54413.32	3.0540	3.0541	-0.1309	26.05	1.12	-0.750			
0.8506	54438.34	3.0510	3.0508	-0.1298	26.05	1.12	-0.750			
0.8510	54463.15	3.0480	3.0480	-0.1293	26.06	1.13	-0.750			
0.8514	54487.71	3.0450	3.0451	-0.1278	26.06	1.13	-0.750			
0.8518	54512.26	3.0420	3.0420	-0.1276	26.06	1.13	-0.750			
0.8521	54536.68	3.0390	3.0389	-0.1268	26.07	1.14	-0.750			
0.8525	54560.94	3.0360	3.0361	-0.1257	26.07	1.14	-0.750			
0.8529	54585.11	3.0330	3.0329	-0.1250	26.08	1.15	-0.750			
0.8533	54608.94	3.0300	3.0300	-0.1243	26.08	1.15	-0.750			
0.8536	54632.74	3.0270	3.0271	-0.1235	26.08	1.15	-0.750			
0.8540	54656.33	3.0240	3.0240	-0.1223	26.09	1.16	-0.750			
0.8544	54679.91	3.0210	3.0210	-0.1217	26.09	1.16	-0.750			
0.8547	54703.16	3.0180	3.0179	-0.1206	26.10	1.17	-0.750			
0.8551	54726.12	3.0150	3.0151	-0.1193	26.10	1.17	-0.750			
0.8555	54748.94	3.0120	3.0120	-0.1183	26.10	1.17	-0.750			
0.8558	54771.78	3.0090	3.0090	-0.1170	26.11	1.18	-0.751			
0.8562	54794.09	3.0060	3.0059	-0.1154	26.11	1.18	-0.751			
0.8565	54816.16	3.0030	3.0030	-0.1158	26.12	1.19	-0.751			
