Ah_balance (normalized)	Ah_balance (mAh)	Voltage - fit (V)	Voltage -  interpolate (V)	dQ/dV (1/V)	Temperature (°C)	Temperature - diff (°C)	Current (C)	R_DC 0ms (mOhm)	R_DC 50ms (mOhm)	R_DC 50 ms PEC (mOhm)
0.0537	3433.89	4.1970	4.1967	0.7553	26.48	0.52	0.750			
0.0559	3580.59	4.1940	4.1941	0.7643	26.48	0.52	0.750			
0.0583	3731.22	4.1910	4.1910	0.7604	26.48	0.52	0.750			
0.0605	3874.46	4.1880	4.1881	0.7629	26.47	0.51	0.750			
0.0628	4020.09	4.1850	4.1850	0.7607	26.47	0.51	0.750			
0.0651	4166.29	4.1820	4.1820	0.7655	26.47	0.51	0.750			
0.0674	4313.28	4.1790	4.1793	0.7686	26.47	0.51	0.750			
0.0697	4461.85	4.1760	4.1760	0.7749	26.47	0.51	0.750			
0.0721	4614.66	4.1730	4.1731	0.7682	26.47	0.51	0.750			
0.0744	4759.89	4.1700	4.1700	0.7707	26.47	0.51	0.750			
0.0766	4905.22	4.1670	4.1672	0.7672	26.47	0.51	0.750			
0.0790	5052.94	4.1640	4.1636	0.7719	26.47	0.51	0.750			
0.0813	5201.68	4.1610	4.1608	0.7732	26.47	0.51	0.750			
0.0836	5353.21	4.1580	4.1582	0.7665	26.47	0.51	0.750			
0.0860	5501.51	4.1550	4.1550	0.7741	26.47	0.51	0.750			
0.0883	5648.46	4.1520	4.1521	0.7711	26.47	0.51	0.750			
0.0905	5793.82	4.1490	4.1489	0.7626	26.47	0.51	0.750			
0.0928	5942.38	4.1460	4.1461	0.7685	26.47	0.51	0.750			
0.0951	6089.47	4.1430	4.1431	0.7704	26.47	0.51	0.750			
0.0975	6238.13	4.1400	4.1401	0.7703	26.47	0.51	0.750			
0.0998	6386.73	4.1370	4.1371	0.7687	26.47	0.51	0.750			
0.1021	6534.47	4.1340	4.1340	0.7785	26.47	0.51	0.750			
0.1044	6683.64	4.1310	4.1311	0.7843	26.47	0.51	0.750			
0.1068	6836.14	4.1280	4.1280	0.7911	26.47	0.51	0.750			
0.1092	6989.88	4.1250	4.1249	0.7823	26.47	0.51	0.750			
0.1116	7141.81	4.1220	4.1221	0.7857	26.46	0.50	0.750			
0.1139	7290.30	4.1190	4.1192	0.7842	26.46	0.50	0.750			
0.1163	7440.24	4.1160	4.1157	0.7863	26.46	0.50	0.750			
0.1186	7589.72	4.1130	4.1130	0.7828	26.46	0.50	0.750			
0.1210	7741.40	4.1100	4.1101	0.7877	26.46	0.50	0.750			
0.1234	7896.31	4.1070	4.1071	0.7944	26.46	0.50	0.750			
0.1258	8050.04	4.1040	4.1039	0.7953	26.46	0.50	0.750			
0.1281	8198.09	4.1010	4.1010	0.7911	26.46	0.50	0.750			
0.1305	8349.98	4.0980	4.0980	0.7981	26.46	0.50	0.750			
0.1329	8506.04	4.0950	4.0949	0.7968	26.46	0.50	0.750			
0.1353	8659.60	4.0920	4.0920	0.7991	26.46	0.50	0.750			
0.1377	8813.26	4.0890	4.0891	0.8025	26.46	0.50	0.750			
0.1401	8966.63	4.0860	4.0862	0.8048	26.46	0.50	0.750			
0.1425	9120.11	4.0830	4.0829	0.8056	26.46	0.50	0.750			
0.1449	9275.73	4.0800	4.0800	0.8051	26.46	0.50	0.750			
0.1473	9430.26	4.0770	4.0770	0.8095	26.46	0.50	0.750			
0.1498	9586.51	4.0740	4.0740	0.8179	26.46	0.50	0.750			
0.1523	9745.14	4.0710	4.0710	0.8176	26.46	0.50	0.750			
0.1547	9902.22	4.0680	4.0680	0.8164	26.46	0.50	0.750			
0.1572	10059.85	4.0650	4.0649	0.8170	26.46	0.50	0.750			
0.1596	10215.94	4.0620	4.0620	0.8216	26.46	0.50	0.750			
0.1621	10372.93	4.0590	4.0590	0.8289	26.46	0.50	0.750			
0.1646	10531.66	4.0560	4.0560	0.8286	26.46	0.50	0.750			
0.1671	10692.19	4.0530	4.0529	0.8318	26.46	0.50	0.750			
0.1696	10855.32	4.0500	4.0500	0.8348	26.46	0.50	0.750			
0.1721	11015.93	4.0470	4.0470	0.8413	26.46	0.50	0.750			
0.1746	11177.04	4.0440	4.0440	0.8410	26.46	0.50	0.750			
0.1771	11337.25	4.0410	4.0411	0.8410	26.46	0.50	0.750			
0.1797	11498.51	4.0380	4.0379	0.8420	26.46	0.50	0.750			
0.1823	11664.14	4.0350	4.0350	0.8387	26.46	0.50	0.750			
0.1848	11824.68	4.0320	4.0320	0.8421	26.46	0.50	0.750			
0.1872	11983.45	4.0290	4.0291	0.8457	26.46	0.50	0.750			
0.1898	12145.06	4.0260	4.0261	0.8479	26.46	0.50	0.750			
0.1923	12308.09	4.0230	4.0231	0.8546	26.46	0.50	0.750			
0.1949	12474.07	4.0200	4.0200	0.8573	26.46	0.50	0.750			
0.1975	12639.75	4.0170	4.0171	0.8678	26.46	0.50	0.750			
0.2001	12807.93	4.0140	4.0140	0.8737	26.46	0.50	0.750			
0.2027	12975.54	4.0110	4.0111	0.8721	26.46	0.50	0.750			
0.2054	13143.33	4.0080	4.0080	0.8744	26.46	0.50	0.750			
0.2080	13312.14	4.0050	4.0051	0.8756	26.46	0.50	0.750			
0.2106	13480.16	4.0020	4.0020	0.8792	26.47	0.51	0.750			
0.2133	13650.11	3.9990	3.9990	0.8856	26.47	0.51	0.750			
0.2159	13818.71	3.9960	3.9958	0.8794	26.47	0.51	0.750			
0.2186	13987.25	3.9930	3.9930	0.8798	26.47	0.51	0.750			
0.2212	14157.62	3.9900	3.9901	0.8790	26.47	0.51	0.750			
0.2238	14325.61	3.9870	3.9870	0.8789	26.46	0.50	0.750			
0.2265	14493.25	3.9840	3.9840	0.8832	26.46	0.50	0.750			
0.2291	14661.36	3.9810	3.9808	0.8887	26.46	0.50	0.750			
0.2318	14832.52	3.9780	3.9780	0.8888	26.46	0.50	0.750			
0.2344	15004.67	3.9750	3.9750	0.8970	26.46	0.50	0.750			
0.2372	15178.94	3.9720	3.9721	0.9001	26.46	0.50	0.750			
0.2399	15351.69	3.9690	3.9690	0.9026	26.46	0.50	0.750			
0.2426	15525.89	3.9660	3.9660	0.9040	26.46	0.50	0.750			
0.2453	15700.81	3.9630	3.9630	0.8914	26.46	0.50	0.750			
0.2480	15869.91	3.9600	3.9600	0.8972	26.46	0.50	0.750			
0.2507	16042.54	3.9570	3.9571	0.9004	26.46	0.50	0.750			
0.2533	16214.00	3.9540	3.9538	0.8996	26.46	0.50	0.750			
0.2561	16388.18	3.9510	3.9511	0.8995	26.46	0.50	0.750			
0.2587	16559.79	3.9480	3.9481	0.9009	26.46	0.50	0.750			
0.2615	16733.41	3.9450	3.9450	0.9095	26.46	0.50	0.750			
0.2642	16911.10	3.9420	3.9420	0.9178	26.46	0.50	0.750			
0.2669	17084.55	3.9390	3.9388	0.9142	26.46	0.50	0.750			
0.2697	17263.27	3.9360	3.9360	0.9119	26.46	0.50	0.750			
0.2725	17438.65	3.9330	3.9331	0.9141	26.46	0.50	0.750			
0.2752	17613.79	3.9300	3.9301	0.9167	26.45	0.49	0.750			
0.2780	17789.18	3.9270	3.9269	0.9139	26.45	0.49	0.750			
0.2807	17963.96	3.9240	3.9240	0.9149	26.45	0.49	0.750			
0.2834	18139.01	3.9210	3.9211	0.9131	26.45	0.49	0.750			
0.2862	18314.92	3.9180	3.9181	0.9181	26.44	0.48	0.750			
0.2890	18494.13	3.9150	3.9150	0.9257	26.44	0.48	0.750			
0.2917	18669.77	3.9120	3.9118	0.9224	26.44	0.48	0.750			
0.2945	18846.73	3.9090	3.9091	0.9193	26.44	0.48	0.750			
0.2972	19023.72	3.9060	3.9060	0.9242	26.43	0.47	0.750			
0.3000	19201.71	3.9030	3.9030	0.9282	26.43	0.47	0.750			
0.3028	19379.09	3.9000	3.9000	0.9277	26.42	0.46	0.750			
0.3056	19557.42	3.8970	3.8970	0.9329	26.42	0.46	0.750			
0.3084	19736.81	3.8940	3.8941	0.9341	26.41	0.45	0.750			
0.3112	19916.88	3.8910	3.8911	0.9399	26.40	0.44	0.750			
0.3140	20098.09	3.8880	3.8880	0.9481	26.40	0.44	0.750			
0.3169	20279.36	3.8850	3.8847	0.9514	26.39	0.43	0.750			
0.3197	20463.10	3.8820	3.8821	0.9491	26.38	0.42	0.750			
0.3226	20646.09	3.8790	3.8791	0.9628	26.38	0.42	0.750			
0.3255	20833.48	3.8760	3.8760	0.9690	26.38	0.42	0.750			
0.3284	21017.20	3.8730	3.8729	0.9755	26.37	0.41	0.750			
0.3314	21207.35	3.8700	3.8701	0.9845	26.37	0.41	0.750			
0.3343	21397.46	3.8670	3.8670	0.9912	26.36	0.40	0.750			
0.3373	21590.35	3.8640	3.8641	1.0005	26.36	0.40	0.750			
0.3403	21781.71	3.8610	3.8610	0.9996	26.35	0.39	0.750			
0.3434	21975.29	3.8580	3.8580	1.0076	26.34	0.38	0.750			
0.3464	22169.56	3.8550	3.8550	1.0118	26.33	0.37	0.750			
0.3494	22362.33	3.8520	3.8520	1.0149	26.32	0.36	0.750			
0.3525	22559.89	3.8490	3.8490	1.0280	26.32	0.36	0.750			
0.3556	22758.44	3.8460	3.8460	1.0249	26.31	0.35	0.750			
0.3587	22955.58	3.8430	3.8430	1.0331	26.30	0.34	0.750			
0.3618	23154.34	3.8400	3.8401	1.0386	26.30	0.34	0.750			
0.3649	23353.36	3.8370	3.8370	1.0435	26.29	0.33	0.750			
0.3680	23555.05	3.8340	3.8340	1.0448	26.29	0.33	0.750			
0.3712	23755.26	3.8310	3.8310	1.0468	26.28	0.32	0.750			
0.3743	23956.03	3.8280	3.8281	1.0523	26.27	0.31	0.750			
0.3775	24160.64	3.8250	3.8250	1.0656	26.26	0.30	0.750			
0.3807	24364.98	3.8220	3.8220	1.0582	26.24	0.28	0.750			
0.3839	24568.14	3.8190	3.8190	1.0696	26.23	0.27	0.750			
0.3871	24774.40	3.8160	3.8161	1.0789	26.22	0.26	0.750			
0.3904	24983.26	3.8130	3.8129	1.0894	26.21	0.25	0.750			
0.3936	25192.79	3.8100	3.8101	1.0866	26.20	0.24	0.750			
0.3969	25400.76	3.8070	3.8071	1.0904	26.19	0.23	0.750			
0.4002	25610.33	3.8040	3.8040	1.0955	26.18	0.22	0.750			
0.4035	25823.72	3.8010	3.8008	1.1021	26.17	0.21	0.750			
0.4067	26031.14	3.7980	3.7981	1.1060	26.16	0.20	0.750			
0.4101	26243.93	3.7950	3.7951	1.1166	26.15	0.19	0.750			
0.4135	26460.84	3.7920	3.7920	1.1271	26.14	0.18	0.750			
0.4169	26678.89	3.7890	3.7889	1.1273	26.13	0.17	0.750			
0.4203	26896.29	3.7860	3.7861	1.1515	26.12	0.16	0.750			
0.4237	27117.93	3.7830	3.7830	1.1694	26.11	0.15	0.750			
0.4272	27343.86	3.7800	3.7800	1.1901	26.10	0.14	0.750			
0.4308	27571.82	3.7770	3.7771	1.2031	26.08	0.12	0.750			
0.4345	27805.90	3.7740	3.7740	1.2289	26.07	0.11	0.750			
0.4382	28043.09	3.7710	3.7711	1.2609	26.06	0.10	0.750			
0.4419	28284.71	3.7680	3.7678	1.2808	26.05	0.09	0.750			
0.4459	28535.71	3.7650	3.7650	1.3197	26.04	0.08	0.750			
0.4499	28793.67	3.7620	3.7622	1.3493	26.02	0.06	0.750	0.341	0.441	
0.4540	29056.96	3.7590	3.7590	1.3712	26.01	0.05	0.750			
0.4582	29322.44	3.7560	3.7560	1.3844	26.00	0.04	0.750			
0.4624	29592.20	3.7530	3.7531	1.4132	25.98	0.02	0.750			
0.4666	29861.08	3.7500	3.7496	1.4303	25.97	0.01	0.750			
0.4708	30133.80	3.7470	3.7472	1.4687	25.96	0.00	0.750			
0.4753	30418.94	3.7440	3.7441	1.5065	25.96	-0.00	0.750			
0.4799	30715.43	3.7410	3.7406	1.5423	25.95	-0.01	0.750			
0.4846	31015.01	3.7380	3.7380	1.5758	25.93	-0.03	0.750			
0.4894	31322.45	3.7350	3.7353	1.6383	25.92	-0.04	0.750			
0.4944	31639.85	3.7320	3.7319	1.6812	25.90	-0.06	0.750			
0.4994	31962.83	3.7290	3.7292	1.7258	25.88	-0.08	0.750			
0.5047	32301.20	3.7260	3.7259	1.7866	25.87	-0.09	0.750			
0.5102	32654.26	3.7230	3.7226	1.8342	25.86	-0.10	0.750			
0.5159	33014.86	3.7200	3.7199	1.8823	25.84	-0.12	0.750			
0.5216	33380.99	3.7170	3.7170	1.9360	25.83	-0.13	0.750			
0.5274	33752.19	3.7140	3.7141	1.9610	25.81	-0.15	0.750			
0.5333	34129.51	3.7110	3.7109	2.0071	25.80	-0.16	0.750			
0.5393	34517.35	3.7080	3.7081	2.0779	25.78	-0.18	0.750			
0.5457	34926.51	3.7050	3.7050	2.1517	25.76	-0.20	0.750			
0.5523	35345.17	3.7020	3.7020	2.2377	25.75	-0.21	0.750			
0.5590	35778.05	3.6990	3.6992	2.3531	25.74	-0.22	0.750			
0.5663	36245.85	3.6960	3.6958	2.4361	25.72	-0.24	0.750			
0.5738	36725.47	3.6930	3.6930	2.4955	25.71	-0.25	0.750			
0.5814	37211.75	3.6900	3.6902	2.5648	25.70	-0.26	0.750			
0.5894	37718.58	3.6870	3.6869	2.6284	25.68	-0.28	0.750			
0.5971	38216.70	3.6840	3.6842	2.6715	25.67	-0.29	0.750			
0.6053	38740.95	3.6810	3.6810	2.7448	25.66	-0.30	0.750			
0.6136	39273.23	3.6780	3.6780	2.8209	25.64	-0.32	0.750			
0.6222	39822.96	3.6750	3.6748	2.9171	25.63	-0.33	0.750			
0.6311	40393.07	3.6720	3.6719	2.9927	25.62	-0.34	0.750			
0.6403	40977.92	3.6690	3.6692	3.0613	25.62	-0.34	0.750			
0.6498	41584.20	3.6660	3.6658	2.9612	25.62	-0.34	0.750			
0.6587	42156.36	3.6630	3.6632	2.7508	25.62	-0.34	0.750			
0.6665	42657.50	3.6600	3.6601	2.4968	25.62	-0.34	0.750			
0.6734	43097.70	3.6570	3.6570	2.2050	25.63	-0.33	0.750			
0.6792	43469.27	3.6540	3.6537	1.9761	25.64	-0.32	0.750			
0.6847	43818.08	3.6510	3.6508	1.7969	25.64	-0.32	0.750			
0.6899	44151.91	3.6480	3.6480	1.6567	25.64	-0.32	0.750			
0.6946	44451.86	3.6450	3.6452	1.5358	25.64	-0.32	0.750			
0.6990	44734.35	3.6420	3.6421	1.4201	25.64	-0.32	0.750			
0.7031	44997.11	3.6390	3.6388	1.3373	25.64	-0.32	0.750			
0.7067	45231.31	3.6360	3.6361	1.2599	25.64	-0.32	0.750			
0.7103	45457.82	3.6330	3.6331	1.2217	25.65	-0.31	0.750			
0.7139	45690.48	3.6300	3.6300	1.2059	25.66	-0.30	0.750			
0.7175	45917.22	3.6270	3.6271	1.1967	25.66	-0.30	0.750			
0.7210	46146.02	3.6240	3.6241	1.1995	25.66	-0.30	0.750			
0.7247	46377.67	3.6210	3.6211	1.2111	25.66	-0.30	0.750			
0.7284	46614.73	3.6180	3.6178	1.2067	25.66	-0.30	0.750			
0.7320	46845.37	3.6150	3.6150	1.1985	25.66	-0.30	0.750			
0.7356	47076.38	3.6120	3.6121	1.1951	25.66	-0.30	0.750			
0.7392	47308.62	3.6090	3.6091	1.1843	25.66	-0.30	0.750			
0.7427	47533.73	3.6060	3.6059	1.1510	25.66	-0.30	0.750			
0.7461	47750.49	3.6030	3.6031	1.1525	25.67	-0.29	0.750			
0.7495	47966.14	3.6000	3.6000	1.1471	25.67	-0.29	0.750			
0.7529	48187.72	3.5970	3.5969	1.1528	25.68	-0.28	0.750			
0.7564	48406.71	3.5940	3.5941	1.1661	25.68	-0.28	0.750			
0.7598	48629.12	3.5910	3.5911	1.1918	25.68	-0.28	0.750			
0.7634	48859.92	3.5880	3.5881	1.2345	25.68	-0.28	0.750			
0.7672	49099.62	3.5850	3.5848	1.2511	25.68	-0.28	0.750			
0.7709	49340.40	3.5820	3.5821	1.2884	25.68	-0.28	0.750			
0.7749	49593.62	3.5790	3.5791	1.3327	25.69	-0.27	0.750			
0.7789	49852.08	3.5760	3.5757	1.3882	25.69	-0.27	0.750			
0.7832	50124.23	3.5730	3.5726	1.4210	25.69	-0.27	0.750			
0.7875	50401.28	3.5700	3.5703	1.4765	25.69	-0.27	0.750			
0.7921	50691.32	3.5670	3.5669	1.5123	25.69	-0.27	0.750			
0.7967	50986.62	3.5640	3.5641	1.5560	25.69	-0.27	0.750			
0.8014	51286.76	3.5610	3.5611	1.5817	25.69	-0.27	0.750			
0.8063	51600.11	3.5580	3.5582	1.6142	25.69	-0.27	0.750			
0.8112	51914.11	3.5550	3.5549	1.6402	25.69	-0.27	0.750			
0.8162	52238.93	3.5520	3.5519	1.6667	25.69	-0.27	0.750			
0.8212	52558.73	3.5490	3.5490	1.6609	25.69	-0.27	0.750			
0.8262	52878.32	3.5460	3.5463	1.6574	25.70	-0.26	0.750			
0.8312	53199.68	3.5430	3.5430	1.6560	25.70	-0.26	0.750			
0.8361	53511.26	3.5400	3.5401	1.6995	25.71	-0.25	0.750			
0.8412	53837.79	3.5370	3.5370	1.7423	25.72	-0.24	0.750			
0.8467	54186.12	3.5340	3.5338	1.7448	25.73	-0.23	0.750			
0.8521	54534.29	3.5310	3.5311	1.6767	25.75	-0.21	0.750			
0.8576	54883.80	3.5280	3.5279	1.5077	25.76	-0.20	0.750			
0.8621	55172.76	3.5250	3.5255	1.2790	25.78	-0.18	0.750			
0.8656	55399.88	3.5220	3.5223	1.0180	25.79	-0.17	0.750			
0.8680	55549.07	3.5190	3.5185	0.7461	25.80	-0.16	0.750			
0.8693	55636.97	3.5160	3.5157	0.5491	25.81	-0.15	0.750			
0.8706	55715.36	3.5130	3.5127	0.4384	25.82	-0.14	0.750			
0.8716	55781.03	3.5100	3.5099	0.3800	25.83	-0.13	0.750			
0.8726	55845.52	3.5070	3.5070	0.3435	25.83	-0.13	0.750			
0.8736	55908.58	3.5040	3.5040	0.3244	25.84	-0.12	0.750			
0.8745	55967.89	3.5010	3.5010	0.3086	25.85	-0.11	0.750			
0.8754	56024.73	3.4980	3.4980	0.2969	25.85	-0.11	0.750			
0.8763	56080.77	3.4950	3.4950	0.2891	25.86	-0.10	0.750			
0.8771	56134.81	3.4920	3.4920	0.2805	25.87	-0.09	0.750			
0.8779	56188.21	3.4890	3.4890	0.2746	25.87	-0.09	0.750			
0.8787	56239.86	3.4860	3.4860	0.2679	25.88	-0.08	0.750			
0.8795	56291.04	3.4830	3.4830	0.2627	25.88	-0.08	0.750			
0.8803	56340.60	3.4800	3.4800	0.2568	25.89	-0.07	0.750			
0.8811	56389.54	3.4770	3.4770	0.2521	25.89	-0.07	0.750			
0.8818	56437.36	3.4740	3.4739	0.2469	25.90	-0.06	0.750			
0.8826	56484.18	3.4710	3.4710	0.2419	25.90	-0.06	0.750			
0.8833	56529.95	3.4680	3.4680	0.2379	25.91	-0.05	0.750			
0.8840	56575.19	3.4650	3.4651	0.2339	25.91	-0.05	0.750			
0.8847	56619.96	3.4620	3.4619	0.2280	25.92	-0.04	0.750			
0.8854	56663.40	3.4590	3.4589	0.2232	25.92	-0.04	0.750			
0.8860	56705.75	3.4560	3.4562	0.2177	25.92	-0.04	0.750			
0.8867	56747.03	3.4530	3.4530	0.2122	25.93	-0.03	0.750			
0.8873	56787.27	3.4500	3.4499	0.2078	25.93	-0.03	0.750			
0.8879	56826.64	3.4470	3.4470	0.2020	25.94	-0.02	0.750			
0.8885	56864.68	3.4440	3.4439	0.1962	25.94	-0.02	0.750			
0.8891	56901.91	3.4410	3.4411	0.1916	25.94	-0.02	0.750			
0.8897	56938.75	3.4380	3.4381	0.1867	25.95	-0.01	0.750			
0.8902	56973.79	3.4350	3.4349	0.1815	25.95	-0.01	0.750			
0.8907	57007.77	3.4320	3.4320	0.1773	25.95	-0.01	0.750			
0.8913	57041.62	3.4290	3.4290	0.1729	25.96	-0.00	0.750			
0.8918	57074.09	3.4260	3.4261	0.1683	25.96	0.00	0.750			
0.8923	57106.62	3.4230	3.4229	0.1631	25.96	0.00	0.750			
0.8928	57137.57	3.4200	3.4201	0.1580	25.97	0.01	0.750			
0.8932	57167.27	3.4170	3.4172	0.1521	25.97	0.01	0.750			
0.8937	57196.15	3.4140	3.4139	0.1463	25.97	0.01	0.750			
0.8941	57223.52	3.4110	3.4109	0.1399	25.98	0.02	0.750			
0.8945	57249.40	3.4080	3.4081	0.1334	25.98	0.02	0.750			
0.8949	57274.76	3.4050	3.4050	0.1279	25.98	0.02	0.750			
0.8953	57298.72	3.4020	3.4022	0.1217	25.98	0.02	0.750			
0.8957	57322.05	3.3990	3.3989	0.1146	25.99	0.03	0.750			
0.8960	57343.33	3.3960	3.3960	0.1070	25.99	0.03	0.750			
0.8963	57364.28	3.3930	3.3929	0.0983	25.99	0.03	0.750			
0.8966	57382.17	3.3900	3.3902	0.0881	25.99	0.03	0.750			
0.8969	57398.74	3.3870	3.3871	0.0792	25.99	0.03	0.750			
0.8971	57412.89	3.3840	3.3841	0.0681	26.00	0.04	0.750			
0.8973	57425.26	3.3810	3.3813	0.0572	26.00	0.04	0.750			
0.8974	57435.12	3.3780	3.3787	0.0456	26.00	0.04	0.750			
0.8975	57442.77	3.3750	3.3759	0.0340	26.00	0.04	0.750			
0.8976	57448.19	3.3720	3.3734	0.0225	26.00	0.04	0.750			
