Ah_balance (normalized)	Ah_balance (mAh)	Voltage - fit (V)	Voltage -  interpolate (V)	dQ/dV (1/V)	Temperature (°C)	Temperature - diff (°C)	Current (C)	R_DC 0ms (mOhm)	R_DC 50ms (mOhm)	R_DC 50 ms PEC (mOhm)
0.0002	12.08	4.1650	4.1643	-0.0924	25.99	0.00	-0.750			
0.0005	34.06	4.1620	4.1618	-0.1397	25.99	0.00	-0.750			
0.0010	66.69	4.1590	4.1590	-0.1899	25.99	-0.00	-0.750			
0.0017	108.88	4.1560	4.1558	-0.2343	25.99	-0.00	-0.750			
0.0025	158.62	4.1530	4.1530	-0.2750	25.99	-0.00	-0.750			
0.0034	216.76	4.1500	4.1501	-0.3162	25.99	-0.00	-0.750			
0.0044	281.16	4.1470	4.1471	-0.3530	25.98	-0.01	-0.750			
0.0055	353.25	4.1440	4.1440	-0.3888	25.98	-0.01	-0.750			
0.0067	431.34	4.1410	4.1410	-0.4217	25.98	-0.01	-0.750			
0.0081	516.46	4.1380	4.1381	-0.4548	25.98	-0.01	-0.750			
0.0095	608.59	4.1350	4.1349	-0.4856	25.98	-0.01	-0.750			
0.0110	704.97	4.1320	4.1320	-0.5094	25.97	-0.02	-0.750			
0.0126	806.11	4.1290	4.1290	-0.5329	25.97	-0.02	-0.750			
0.0142	910.12	4.1260	4.1259	-0.5527	25.97	-0.02	-0.750			
0.0159	1018.95	4.1230	4.1230	-0.5716	25.96	-0.03	-0.750			
0.0177	1130.40	4.1200	4.1200	-0.5876	25.96	-0.03	-0.750			
0.0194	1244.76	4.1170	4.1170	-0.6033	25.95	-0.04	-0.750			
0.0213	1364.18	4.1140	4.1140	-0.6202	25.95	-0.04	-0.750			
0.0232	1485.33	4.1110	4.1110	-0.6288	25.95	-0.04	-0.750			
0.0251	1607.23	4.1080	4.1080	-0.6396	25.94	-0.05	-0.750			
0.0270	1730.84	4.1050	4.1050	-0.6464	25.94	-0.05	-0.750			
0.0290	1855.76	4.1020	4.1020	-0.6545	25.94	-0.05	-0.750			
0.0310	1980.83	4.0990	4.0990	-0.6651	25.94	-0.05	-0.750			
0.0330	2110.00	4.0960	4.0960	-0.6712	25.93	-0.06	-0.750			
0.0350	2240.42	4.0930	4.0930	-0.6814	25.93	-0.06	-0.750			
0.0371	2372.80	4.0900	4.0899	-0.6855	25.93	-0.06	-0.750			
0.0391	2504.82	4.0870	4.0870	-0.6890	25.93	-0.06	-0.750			
0.0412	2638.51	4.0840	4.0840	-0.6911	25.93	-0.06	-0.750			
0.0433	2769.87	4.0810	4.0809	-0.6952	25.92	-0.07	-0.750			
0.0454	2902.75	4.0780	4.0781	-0.6970	25.92	-0.07	-0.750			
0.0475	3038.83	4.0750	4.0750	-0.7048	25.92	-0.07	-0.750			
0.0496	3174.55	4.0720	4.0719	-0.7056	25.91	-0.08	-0.750			
0.0517	3311.22	4.0690	4.0691	-0.7089	25.91	-0.08	-0.750			
0.0539	3447.42	4.0660	4.0660	-0.7101	25.91	-0.08	-0.750			
0.0560	3583.85	4.0630	4.0629	-0.7170	25.91	-0.08	-0.750			
0.0581	3720.53	4.0600	4.0600	-0.7178	25.91	-0.08	-0.750			
0.0603	3860.06	4.0570	4.0570	-0.7205	25.91	-0.08	-0.750			
0.0625	3999.49	4.0540	4.0541	-0.7238	25.91	-0.08	-0.750			
0.0647	4138.55	4.0510	4.0509	-0.7266	25.91	-0.08	-0.750			
0.0668	4277.59	4.0480	4.0479	-0.7272	25.91	-0.08	-0.750			
0.0690	4416.96	4.0450	4.0450	-0.7330	25.91	-0.08	-0.750			
0.0712	4557.31	4.0420	4.0419	-0.7315	25.91	-0.08	-0.750			
0.0734	4700.66	4.0390	4.0390	-0.7387	25.91	-0.08	-0.750			
0.0757	4844.48	4.0360	4.0362	-0.7332	25.91	-0.08	-0.750			
0.0779	4985.17	4.0330	4.0330	-0.7290	25.91	-0.08	-0.750			
0.0800	5122.46	4.0300	4.0301	-0.7321	25.91	-0.08	-0.750			
0.0822	5261.01	4.0270	4.0270	-0.7305	25.91	-0.08	-0.750			
0.0844	5402.80	4.0240	4.0238	-0.7313	25.91	-0.08	-0.750			
0.0866	5541.74	4.0210	4.0209	-0.7406	25.91	-0.08	-0.750			
0.0888	5684.84	4.0180	4.0182	-0.7475	25.91	-0.08	-0.750			
0.0911	5830.15	4.0150	4.0149	-0.7580	25.91	-0.08	-0.750			
0.0934	5976.27	4.0120	4.0120	-0.7586	25.92	-0.07	-0.750			
0.0956	6121.06	4.0090	4.0091	-0.7558	25.92	-0.07	-0.750			
0.0980	6269.72	4.0060	4.0060	-0.7631	25.93	-0.06	-0.750			
0.1003	6418.11	4.0030	4.0031	-0.7633	25.93	-0.06	-0.750			
0.1025	6562.08	4.0000	3.9999	-0.7555	25.93	-0.06	-0.750			
0.1048	6706.12	3.9970	3.9970	-0.7606	25.93	-0.06	-0.750			
0.1071	6851.86	3.9940	3.9940	-0.7624	25.93	-0.06	-0.750			
0.1094	6998.69	3.9910	3.9910	-0.7649	25.93	-0.06	-0.750			
0.1117	7147.31	3.9880	3.9879	-0.7684	25.93	-0.06	-0.750			
0.1140	7294.95	3.9850	3.9852	-0.7682	25.93	-0.06	-0.750			
0.1163	7442.94	3.9820	3.9820	-0.7705	25.94	-0.05	-0.750			
0.1186	7590.18	3.9790	3.9790	-0.7723	25.94	-0.05	-0.750			
0.1209	7737.15	3.9760	3.9760	-0.7687	25.94	-0.05	-0.750			
0.1232	7885.05	3.9730	3.9730	-0.7770	25.95	-0.04	-0.750			
0.1255	8035.02	3.9700	3.9701	-0.7833	25.95	-0.04	-0.750			
0.1279	8186.21	3.9670	3.9670	-0.7877	25.95	-0.04	-0.750			
0.1303	8339.54	3.9640	3.9639	-0.7912	25.95	-0.04	-0.750			
0.1327	8491.99	3.9610	3.9610	-0.7918	25.96	-0.03	-0.750			
0.1351	8644.40	3.9580	3.9580	-0.7904	25.96	-0.03	-0.750			
0.1374	8795.94	3.9550	3.9550	-0.7918	25.96	-0.03	-0.750			
0.1398	8945.71	3.9520	3.9520	-0.7892	25.96	-0.03	-0.750			
0.1422	9097.63	3.9490	3.9490	-0.7928	25.96	-0.03	-0.750			
0.1445	9250.50	3.9460	3.9459	-0.7923	25.97	-0.02	-0.750			
0.1469	9404.03	3.9430	3.9430	-0.7913	25.97	-0.02	-0.750			
0.1493	9554.62	3.9400	3.9401	-0.7934	25.97	-0.02	-0.750			
0.1517	9706.12	3.9370	3.9370	-0.7983	25.97	-0.02	-0.750			
0.1540	9856.21	3.9340	3.9341	-0.8030	25.98	-0.01	-0.750			
0.1565	10013.00	3.9310	3.9307	-0.8113	25.98	-0.01	-0.750			
0.1589	10171.92	3.9280	3.9282	-0.8182	25.98	-0.01	-0.750			
0.1614	10331.36	3.9250	3.9250	-0.8207	25.99	-0.00	-0.750			
0.1639	10490.79	3.9220	3.9221	-0.8251	25.99	0.00	-0.750			
0.1664	10647.63	3.9190	3.9190	-0.8217	25.99	0.00	-0.750			
0.1688	10802.75	3.9160	3.9159	-0.8126	25.99	0.00	-0.750			
0.1712	10957.21	3.9130	3.9130	-0.8100	26.00	0.01	-0.750			
0.1737	11114.22	3.9100	3.9100	-0.8149	26.00	0.01	-0.750			
0.1761	11270.84	3.9070	3.9070	-0.8205	26.00	0.01	-0.750			
0.1786	11428.21	3.9040	3.9039	-0.8202	26.00	0.01	-0.750			
0.1810	11585.18	3.9010	3.9010	-0.8229	26.00	0.01	-0.750			
0.1835	11744.71	3.8980	3.8980	-0.8268	26.01	0.02	-0.750			
0.1860	11905.09	3.8950	3.8950	-0.8325	26.01	0.02	-0.750			
0.1885	12063.92	3.8920	3.8921	-0.8289	26.01	0.02	-0.750			
0.1910	12222.17	3.8890	3.8890	-0.8305	26.01	0.02	-0.750			
0.1935	12381.68	3.8860	3.8860	-0.8358	26.02	0.03	-0.750			
0.1960	12543.79	3.8830	3.8827	-0.8333	26.02	0.03	-0.750			
0.1985	12704.24	3.8800	3.8800	-0.8355	26.03	0.04	-0.750			
0.2010	12864.31	3.8770	3.8772	-0.8337	26.03	0.04	-0.750			
0.2035	13025.34	3.8740	3.8738	-0.8309	26.03	0.04	-0.750			
0.2060	13184.35	3.8710	3.8710	-0.8337	26.04	0.05	-0.750			
0.2085	13341.13	3.8680	3.8680	-0.8306	26.04	0.05	-0.750			
0.2110	13502.84	3.8650	3.8649	-0.8404	26.05	0.06	-0.750			
0.2135	13664.79	3.8620	3.8620	-0.8405	26.05	0.06	-0.750			
0.2160	13825.29	3.8590	3.8591	-0.8399	26.05	0.06	-0.750			
0.2185	13987.10	3.8560	3.8560	-0.8467	26.06	0.07	-0.750			
0.2211	14151.30	3.8530	3.8530	-0.8455	26.06	0.07	-0.750			
0.2236	14312.68	3.8500	3.8499	-0.8433	26.07	0.08	-0.750			
0.2262	14476.04	3.8470	3.8471	-0.8396	26.07	0.08	-0.750			
0.2287	14636.84	3.8440	3.8439	-0.8386	26.07	0.08	-0.750			
0.2312	14798.47	3.8410	3.8410	-0.8440	26.08	0.09	-0.750			
0.2337	14959.42	3.8380	3.8381	-0.8430	26.08	0.09	-0.750			
0.2363	15122.97	3.8350	3.8348	-0.8427	26.09	0.10	-0.750			
0.2388	15285.86	3.8320	3.8321	-0.8404	26.09	0.10	-0.750			
0.2413	15445.56	3.8290	3.8290	-0.8435	26.10	0.11	-0.750			
0.2439	15607.27	3.8260	3.8261	-0.8452	26.10	0.11	-0.750			
0.2464	15766.79	3.8230	3.8229	-0.8412	26.10	0.11	-0.750			
0.2489	15932.13	3.8200	3.8199	-0.8468	26.11	0.12	-0.750			
0.2515	16095.63	3.8170	3.8171	-0.8470	26.11	0.12	-0.750			
0.2540	16258.31	3.8140	3.8140	-0.8491	26.12	0.13	-0.750			
0.2566	16422.92	3.8110	3.8110	-0.8446	26.12	0.13	-0.750			
0.2591	16582.85	3.8080	3.8079	-0.8350	26.12	0.13	-0.750			
0.2616	16742.69	3.8050	3.8048	-0.8399	26.13	0.14	-0.750			
0.2641	16903.22	3.8020	3.8021	-0.8391	26.13	0.14	-0.750			
0.2666	17064.55	3.7990	3.7989	-0.8420	26.13	0.14	-0.750			
0.2692	17227.42	3.7960	3.7960	-0.8390	26.13	0.14	-0.750			
0.2717	17387.93	3.7930	3.7931	-0.8289	26.14	0.15	-0.750			
0.2742	17549.43	3.7900	3.7899	-0.8338	26.14	0.15	-0.750			
0.2767	17708.73	3.7870	3.7871	-0.8289	26.14	0.15	-0.750			
0.2792	17865.72	3.7840	3.7839	-0.8248	26.15	0.16	-0.750			
0.2816	18023.97	3.7810	3.7810	-0.8236	26.15	0.16	-0.750			
0.2841	18181.12	3.7780	3.7780	-0.8182	26.16	0.17	-0.750			
0.2866	18340.31	3.7750	3.7750	-0.8208	26.17	0.18	-0.750			
0.2890	18498.41	3.7720	3.7720	-0.8210	26.17	0.18	-0.750			
0.2915	18654.61	3.7690	3.7690	-0.8160	26.17	0.18	-0.750			
0.2939	18811.31	3.7660	3.7660	-0.8132	26.17	0.18	-0.750			
0.2964	18966.73	3.7630	3.7630	-0.8103	26.17	0.18	-0.750			
0.2988	19122.44	3.7600	3.7600	-0.8115	26.17	0.18	-0.750			
0.3012	19277.80	3.7570	3.7570	-0.8145	26.17	0.18	-0.750			
0.3037	19434.02	3.7540	3.7540	-0.8153	26.17	0.18	-0.750			
0.3061	19590.65	3.7510	3.7510	-0.8182	26.18	0.19	-0.750			
0.3086	19749.89	3.7480	3.7479	-0.8181	26.18	0.19	-0.750			
0.3111	19908.28	3.7450	3.7450	-0.8170	26.19	0.20	-0.750			
0.3135	20063.37	3.7420	3.7422	-0.8213	26.19	0.20	-0.750			
0.3160	20221.62	3.7390	3.7390	-0.8161	26.19	0.20	-0.750			
0.3184	20376.53	3.7360	3.7359	-0.8241	26.20	0.21	-0.750			
0.3208	20533.06	3.7330	3.7331	-0.8300	26.20	0.21	-0.750			
0.3233	20694.12	3.7300	3.7300	-0.8445	26.21	0.22	-0.750			
0.3259	20856.24	3.7270	3.7271	-0.8567	26.21	0.22	-0.750			
0.3284	21020.78	3.7240	3.7240	-0.8739	26.21	0.22	-0.750			
0.3311	21190.59	3.7210	3.7210	-0.8829	26.21	0.22	-0.750			
0.3338	21363.76	3.7180	3.7179	-0.9014	26.21	0.22	-0.750			
0.3365	21537.46	3.7150	3.7150	-0.9105	26.21	0.22	-0.750			
0.3393	21714.22	3.7120	3.7120	-0.9232	26.21	0.22	-0.750			
0.3421	21891.22	3.7090	3.7090	-0.9402	26.21	0.22	-0.750			
0.3449	22073.58	3.7060	3.7060	-0.9533	26.21	0.22	-0.750			
0.3478	22257.19	3.7030	3.7029	-0.9660	26.21	0.22	-0.750			
0.3507	22445.06	3.7000	3.7002	-0.9890	26.21	0.22	-0.750			
0.3537	22636.02	3.6970	3.6970	-1.0017	26.21	0.22	-0.750			
0.3567	22829.79	3.6940	3.6939	-1.0215	26.21	0.22	-0.750			
0.3598	23026.33	3.6910	3.6910	-1.0438	26.21	0.22	-0.750			
0.3629	23228.14	3.6880	3.6880	-1.0744	26.21	0.22	-0.750			
0.3662	23437.51	3.6850	3.6849	-1.1052	26.20	0.21	-0.750			
0.3696	23654.67	3.6820	3.6821	-1.1264	26.20	0.21	-0.750			
0.3730	23874.02	3.6790	3.6789	-1.1418	26.19	0.20	-0.750			
0.3765	24095.27	3.6760	3.6761	-1.1696	26.19	0.20	-0.750			
0.3800	24321.44	3.6730	3.6729	-1.1888	26.18	0.19	-0.750			
0.3836	24550.31	3.6700	3.6699	-1.2098	26.18	0.19	-0.750			
0.3872	24782.14	3.6670	3.6670	-1.2351	26.17	0.18	-0.750			
0.3910	25024.70	3.6640	3.6640	-1.2687	26.17	0.18	-0.750			
0.3949	25271.43	3.6610	3.6609	-1.2968	26.17	0.18	-0.750			
0.3988	25523.13	3.6580	3.6580	-1.3212	26.17	0.18	-0.750			
0.4028	25776.90	3.6550	3.6550	-1.3422	26.17	0.18	-0.750			
0.4069	26039.09	3.6520	3.6520	-1.3764	26.16	0.17	-0.750			
0.4110	26305.15	3.6490	3.6488	-1.4175	26.15	0.16	-0.750			
0.4153	26580.59	3.6460	3.6460	-1.4434	26.15	0.16	-0.750			
0.4197	26861.73	3.6430	3.6429	-1.4830	26.14	0.15	-0.750			
0.4242	27151.45	3.6400	3.6399	-1.5170	26.13	0.14	-0.750			
0.4288	27445.78	3.6370	3.6369	-1.5492	26.12	0.13	-0.750			
0.4336	27747.49	3.6340	3.6340	-1.5838	26.12	0.13	-0.750			
0.4384	28054.99	3.6310	3.6310	-1.6098	26.11	0.12	-0.750			
0.4433	28369.27	3.6280	3.6281	-1.6516	26.10	0.11	-0.750			
0.4483	28689.55	3.6250	3.6249	-1.6836	26.09	0.10	-0.750			
0.4533	29012.82	3.6220	3.6223	-1.7030	26.09	0.10	-0.750	0.410	0.505	
0.4585	29342.27	3.6190	3.6191	-1.7345	26.08	0.09	-0.750			
0.4637	29675.25	3.6160	3.6161	-1.7681	26.07	0.08	-0.750			
0.4690	30017.51	3.6130	3.6127	-1.8040	26.06	0.07	-0.750			
0.4746	30373.14	3.6100	3.6099	-1.8455	26.05	0.06	-0.750			
0.4801	30724.36	3.6070	3.6071	-1.8898	26.04	0.05	-0.750			
0.4859	31096.11	3.6040	3.6040	-1.9321	26.03	0.04	-0.750			
0.4917	31468.51	3.6010	3.6011	-1.9695	26.03	0.04	-0.750			
0.4977	31854.65	3.5980	3.5980	-2.0037	26.03	0.04	-0.750			
0.5038	32242.15	3.5950	3.5950	-2.0302	26.02	0.03	-0.750			
0.5099	32634.79	3.5920	3.5921	-2.0652	26.02	0.03	-0.750			
0.5162	33036.87	3.5890	3.5889	-2.0980	26.01	0.02	-0.750			
0.5224	33434.62	3.5860	3.5860	-2.1142	26.00	0.01	-0.750			
0.5288	33845.11	3.5830	3.5830	-2.1680	26.00	0.01	-0.750			
0.5354	34267.38	3.5800	3.5798	-2.2007	25.99	0.00	-0.750			
0.5422	34699.19	3.5770	3.5769	-2.2247	25.99	-0.00	-0.750			
0.5490	35134.52	3.5740	3.5741	-2.2209	25.98	-0.01	-0.750			
0.5556	35560.21	3.5710	3.5711	-2.2237	25.98	-0.01	-0.750			
0.5622	35983.40	3.5680	3.5681	-2.2207	25.97	-0.02	-0.750			
0.5688	36401.48	3.5650	3.5648	-2.2629	25.97	-0.02	-0.750			
0.5756	36835.62	3.5620	3.5620	-2.3085	25.97	-0.02	-0.750			
0.5826	37287.69	3.5590	3.5588	-2.3345	25.96	-0.03	-0.750			
0.5899	37753.62	3.5560	3.5560	-2.3407	25.95	-0.04	-0.750			
0.5970	38205.61	3.5530	3.5531	-2.3209	25.96	-0.03	-0.750			
0.6039	38650.82	3.5500	3.5500	-2.2819	25.96	-0.03	-0.750			
0.6106	39078.55	3.5470	3.5468	-2.2308	25.97	-0.02	-0.750			
0.6171	39493.11	3.5440	3.5441	-2.2066	25.97	-0.02	-0.750			
0.6237	39917.06	3.5410	3.5410	-2.2015	25.97	-0.02	-0.750			
0.6304	40346.03	3.5380	3.5378	-2.1798	25.97	-0.02	-0.750			
0.6369	40761.04	3.5350	3.5352	-2.1655	25.98	-0.01	-0.750			
0.6434	41175.23	3.5320	3.5321	-2.1447	25.98	-0.01	-0.750			
0.6498	41589.62	3.5290	3.5285	-2.1232	25.99	-0.00	-0.750			
0.6561	41993.40	3.5260	3.5260	-2.0865	26.00	0.01	-0.750			
0.6624	42392.78	3.5230	3.5230	-2.0308	26.01	0.02	-0.750			
0.6685	42784.79	3.5200	3.5200	-1.9859	26.02	0.03	-0.750			
0.6744	43160.55	3.5170	3.5170	-1.8890	26.03	0.04	-0.750			
0.6799	43510.87	3.5140	3.5140	-1.8149	26.04	0.05	-0.750			
0.6851	43849.42	3.5110	3.5111	-1.7527	26.05	0.06	-0.750			
0.6903	44177.17	3.5080	3.5076	-1.6936	26.06	0.07	-0.750			
0.6953	44497.99	3.5050	3.5051	-1.6419	26.07	0.08	-0.750			
0.7002	44814.98	3.5020	3.5021	-1.6021	26.09	0.10	-0.750			
0.7050	45117.90	3.4990	3.4990	-1.5458	26.10	0.11	-0.750			
0.7095	45405.57	3.4960	3.4960	-1.4757	26.12	0.13	-0.750			
0.7139	45687.28	3.4930	3.4931	-1.4390	26.13	0.14	-0.750			
0.7181	45957.31	3.4900	3.4899	-1.3844	26.15	0.16	-0.750			
0.7221	46216.60	3.4870	3.4870	-1.3418	26.17	0.18	-0.750			
0.7261	46471.82	3.4840	3.4842	-1.3027	26.19	0.20	-0.750			
0.7300	46720.35	3.4810	3.4808	-1.2633	26.20	0.21	-0.750			
0.7337	46956.72	3.4780	3.4780	-1.2187	26.22	0.23	-0.750			
0.7373	47185.21	3.4750	3.4750	-1.1728	26.23	0.24	-0.750			
0.7408	47408.50	3.4720	3.4719	-1.1421	26.24	0.25	-0.750			
0.7441	47622.55	3.4690	3.4690	-1.1038	26.26	0.27	-0.750			
0.7473	47827.32	3.4660	3.4660	-1.0617	26.27	0.28	-0.750			
0.7504	48028.49	3.4630	3.4631	-1.0300	26.29	0.30	-0.750			
0.7535	48223.52	3.4600	3.4600	-1.0013	26.30	0.31	-0.750			
0.7564	48412.18	3.4570	3.4570	-0.9692	26.31	0.32	-0.750			
0.7593	48597.54	3.4540	3.4539	-0.9353	26.32	0.33	-0.750			
0.7620	48770.88	3.4510	3.4509	-0.9122	26.33	0.34	-0.750			
0.7647	48939.88	3.4480	3.4481	-0.9008	26.34	0.35	-0.750			
0.7673	49109.97	3.4450	3.4450	-0.8957	26.34	0.35	-0.750			
0.7699	49276.42	3.4420	3.4417	-0.9010	26.35	0.36	-0.750			
0.7726	49447.35	3.4390	3.4391	-0.9114	26.36	0.37	-0.750			
0.7754	49625.01	3.4360	3.4360	-0.9424	26.37	0.38	-0.750			
0.7783	49809.24	3.4330	3.4329	-0.9772	26.38	0.39	-0.750			
0.7812	49997.69	3.4300	3.4300	-0.9985	26.39	0.40	-0.750			
0.7843	50195.22	3.4270	3.4269	-1.0262	26.41	0.42	-0.750			
0.7875	50397.02	3.4240	3.4240	-1.0541	26.42	0.43	-0.750			
0.7907	50603.03	3.4210	3.4209	-1.0715	26.42	0.43	-0.750			
0.7940	50815.35	3.4180	3.4179	-1.0724	26.43	0.44	-0.750			
0.7972	51023.29	3.4150	3.4149	-1.0516	26.43	0.44	-0.750			
0.8004	51222.86	3.4120	3.4123	-1.0331	26.44	0.45	-0.750			
0.8035	51423.06	3.4090	3.4089	-1.0163	26.45	0.46	-0.750			
0.8065	51614.65	3.4060	3.4061	-0.9885	26.46	0.47	-0.750			
0.8093	51798.12	3.4030	3.4029	-0.9589	26.47	0.48	-0.750			
0.8122	51982.79	3.4000	3.4001	-0.9345	26.48	0.49	-0.750			
0.8150	52161.34	3.3970	3.3970	-0.9043	26.49	0.50	-0.750			
0.8177	52334.28	3.3940	3.3940	-0.8756	26.49	0.50	-0.750			
0.8202	52495.87	3.3910	3.3910	-0.8344	26.50	0.51	-0.750			
0.8227	52652.47	3.3880	3.3879	-0.8004	26.51	0.52	-0.750			
0.8250	52801.72	3.3850	3.3850	-0.7680	26.52	0.53	-0.750			
0.8273	52946.08	3.3820	3.3819	-0.7329	26.52	0.53	-0.750			
0.8294	53084.17	3.3790	3.3789	-0.7021	26.53	0.54	-0.750			
0.8315	53214.37	3.3760	3.3761	-0.6777	26.53	0.54	-0.750			
0.8335	53341.07	3.3730	3.3730	-0.6514	26.54	0.55	-0.750			
0.8354	53464.15	3.3700	3.3698	-0.6268	26.54	0.55	-0.750			
0.8372	53582.99	3.3670	3.3669	-0.6025	26.55	0.56	-0.750			
0.8390	53695.81	3.3640	3.3640	-0.5776	26.55	0.56	-0.750			
0.8407	53804.89	3.3610	3.3610	-0.5575	26.56	0.57	-0.750			
0.8423	53908.50	3.3580	3.3580	-0.5333	26.57	0.58	-0.750			
0.8439	54007.77	3.3550	3.3549	-0.5016	26.57	0.58	-0.750			
0.8454	54102.65	3.3520	3.3520	-0.4882	26.58	0.59	-0.750			
0.8468	54193.47	3.3490	3.3492	-0.4716	26.58	0.59	-0.750			
0.8482	54281.97	3.3460	3.3457	-0.4584	26.59	0.60	-0.750			
0.8495	54367.75	3.3430	3.3429	-0.4440	26.60	0.61	-0.750			
0.8508	54452.36	3.3400	3.3402	-0.4281	26.60	0.61	-0.750			
0.8521	54534.51	3.3370	3.3371	-0.4159	26.61	0.62	-0.750			
0.8533	54614.35	3.3340	3.3339	-0.4008	26.61	0.62	-0.750			
0.8545	54687.39	3.3310	3.3310	-0.3787	26.62	0.63	-0.750			
0.8556	54758.63	3.3280	3.3280	-0.3634	26.62	0.63	-0.750			
0.8567	54826.27	3.3250	3.3250	-0.3497	26.62	0.63	-0.750			
0.8577	54891.91	3.3220	3.3220	-0.3375	26.63	0.64	-0.750			
0.8587	54955.40	3.3190	3.3189	-0.3274	26.63	0.64	-0.750			
0.8596	55016.58	3.3160	3.3160	-0.3161	26.64	0.65	-0.750			
0.8606	55076.43	3.3130	3.3130	-0.3080	26.64	0.65	-0.750			
0.8615	55135.11	3.3100	3.3100	-0.2978	26.64	0.65	-0.750			
0.8624	55191.50	3.3070	3.3069	-0.2890	26.65	0.66	-0.750			
0.8632	55245.59	3.3040	3.3041	-0.2799	26.65	0.66	-0.750			
0.8640	55298.62	3.3010	3.3010	-0.2715	26.66	0.67	-0.750			
0.8648	55349.58	3.2980	3.2979	-0.2636	26.66	0.67	-0.750			
0.8656	55399.64	3.2950	3.2951	-0.2569	26.67	0.68	-0.750			
0.8664	55447.61	3.2920	3.2920	-0.2498	26.67	0.68	-0.750			
0.8671	55495.30	3.2890	3.2891	-0.2443	26.68	0.69	-0.750			
0.8678	55541.33	3.2860	3.2860	-0.2373	26.68	0.69	-0.750			
0.8685	55586.28	3.2830	3.2830	-0.2320	26.69	0.70	-0.750			
0.8692	55630.41	3.2800	3.2800	-0.2271	26.69	0.70	-0.750			
0.8699	55673.37	3.2770	3.2770	-0.2212	26.70	0.71	-0.750			
0.8706	55715.36	3.2740	3.2740	-0.2162	26.70	0.71	-0.750			
0.8712	55756.43	3.2710	3.2709	-0.2114	26.71	0.72	-0.750			
0.8718	55796.52	3.2680	3.2680	-0.2059	26.71	0.72	-0.750			
0.8724	55835.17	3.2650	3.2651	-0.2019	26.72	0.73	-0.750			
0.8730	55873.54	3.2620	3.2619	-0.1978	26.72	0.73	-0.750			
0.8736	55910.59	3.2590	3.2591	-0.1953	26.73	0.74	-0.750			
0.8742	55947.62	3.2560	3.2559	-0.1923	26.73	0.74	-0.750			
0.8748	55984.70	3.2530	3.2529	-0.1892	26.73	0.74	-0.750			
0.8753	56020.91	3.2500	3.2501	-0.1857	26.74	0.75	-0.750			
0.8759	56056.53	3.2470	3.2469	-0.1825	26.74	0.75	-0.750			
0.8764	56091.63	3.2440	3.2440	-0.1796	26.75	0.76	-0.750			
0.8770	56124.81	3.2410	3.2410	-0.1758	26.75	0.76	-0.750			
0.8775	56157.80	3.2380	3.2380	-0.1725	26.76	0.77	-0.750			
0.8780	56190.85	3.2350	3.2351	-0.1713	26.76	0.77	-0.750			
0.8785	56223.74	3.2320	3.2319	-0.1685	26.77	0.78	-0.750			
0.8790	56255.97	3.2290	3.2292	-0.1673	26.77	0.78	-0.750			
0.8795	56288.05	3.2260	3.2260	-0.1655	26.78	0.79	-0.750			
0.8800	56319.62	3.2230	3.2231	-0.1629	26.78	0.79	-0.750			
0.8805	56350.64	3.2200	3.2199	-0.1608	26.78	0.79	-0.750			
0.8810	56380.93	3.2170	3.2171	-0.1581	26.79	0.80	-0.750			
0.8814	56411.13	3.2140	3.2140	-0.1565	26.79	0.80	-0.750			
0.8819	56441.10	3.2110	3.2110	-0.1544	26.80	0.81	-0.750			
0.8824	56470.78	3.2080	3.2080	-0.1531	26.80	0.81	-0.750			
0.8828	56499.67	3.2050	3.2049	-0.1505	26.81	0.82	-0.750			
0.8833	56528.41	3.2020	3.2021	-0.1489	26.81	0.82	-0.750			
0.8837	56556.87	3.1990	3.1990	-0.1482	26.81	0.82	-0.750			
0.8841	56585.16	3.1960	3.1960	-0.1463	26.82	0.83	-0.750			
0.8846	56613.25	3.1930	3.1929	-0.1446	26.82	0.83	-0.750			
0.8850	56640.84	3.1900	3.1901	-0.1429	26.83	0.84	-0.750			
0.8854	56668.23	3.1870	3.1870	-0.1416	26.83	0.84	-0.750			
0.8859	56695.05	3.1840	3.1840	-0.1405	26.83	0.84	-0.750			
0.8863	56721.89	3.1810	3.1810	-0.1391	26.84	0.85	-0.750			
0.8867	56748.49	3.1780	3.1780	-0.1380	26.84	0.85	-0.750			
0.8871	56774.62	3.1750	3.1750	-0.1367	26.84	0.85	-0.750			
0.8875	56801.03	3.1720	3.1721	-0.1360	26.85	0.86	-0.750			
0.8879	56827.17	3.1690	3.1690	-0.1351	26.85	0.86	-0.750			
0.8883	56852.96	3.1660	3.1658	-0.1336	26.85	0.86	-0.750			
0.8887	56878.41	3.1630	3.1630	-0.1321	26.86	0.87	-0.750			
0.8891	56903.51	3.1600	3.1600	-0.1309	26.86	0.87	-0.750			
0.8895	56928.61	3.1570	3.1570	-0.1299	26.87	0.88	-0.750			
0.8899	56953.45	3.1540	3.1540	-0.1287	26.87	0.88	-0.750			
0.8903	56977.83	3.1510	3.1510	-0.1278	26.88	0.89	-0.750			
0.8907	57002.20	3.1480	3.1481	-0.1269	26.88	0.89	-0.750			
0.8910	57026.57	3.1450	3.1450	-0.1261	26.89	0.90	-0.750			
0.8914	57050.72	3.1420	3.1420	-0.1254	26.89	0.90	-0.750			
0.8918	57074.90	3.1390	3.1390	-0.1243	26.90	0.91	-0.750			
0.8922	57098.75	3.1360	3.1360	-0.1233	26.90	0.91	-0.750			
0.8925	57122.20	3.1330	3.1331	-0.1222	26.90	0.91	-0.750			
0.8929	57145.69	3.1300	3.1299	-0.1212	26.91	0.92	-0.750			
0.8933	57168.74	3.1270	3.1269	-0.1201	26.91	0.92	-0.750			
0.8936	57191.47	3.1240	3.1240	-0.1187	26.92	0.93	-0.750			
0.8940	57214.22	3.1210	3.1210	-0.1178	26.92	0.93	-0.750			
0.8943	57236.72	3.1180	3.1180	-0.1169	26.93	0.94	-0.750			
0.8947	57258.98	3.1150	3.1149	-0.1165	26.93	0.94	-0.750			
0.8950	57281.30	3.1120	3.1120	-0.1159	26.93	0.94	-0.750			
0.8954	57303.50	3.1090	3.1090	-0.1153	26.94	0.95	-0.750			
0.8957	57325.43	3.1060	3.1059	-0.1145	26.94	0.95	-0.750			
0.8961	57347.45	3.1030	3.1030	-0.1139	26.95	0.96	-0.750			
0.8964	57369.33	3.1000	3.1001	-0.1134	26.95	0.96	-0.750			
0.8967	57391.10	3.0970	3.0970	-0.1124	26.96	0.97	-0.750			
0.8971	57412.82	3.0940	3.0940	-0.1118	26.96	0.97	-0.750			
0.8974	57434.10	3.0910	3.0910	-0.1109	26.96	0.97	-0.750			
0.8977	57455.18	3.0880	3.0881	-0.1098	26.97	0.98	-0.750			
0.8981	57476.14	3.0850	3.0851	-0.1093	26.97	0.98	-0.750			
0.8984	57497.01	3.0820	3.0819	-0.1086	26.98	0.99	-0.750			
0.8987	57517.76	3.0790	3.0789	-0.1082	26.98	0.99	-0.750			
0.8990	57538.37	3.0760	3.0760	-0.1076	26.99	1.00	-0.750			
0.8994	57559.06	3.0730	3.0730	-0.1071	26.99	1.00	-0.750			
0.8997	57579.64	3.0700	3.0700	-0.1067	27.00	1.01	-0.750			
0.9000	57600.12	3.0670	3.0670	-0.1060	27.00	1.01	-0.750			
0.9003	57620.48	3.0640	3.0641	-0.1054	27.01	1.02	-0.750			
0.9006	57640.62	3.0610	3.0611	-0.1047	27.01	1.02	-0.750			
0.9009	57660.67	3.0580	3.0580	-0.1040	27.02	1.03	-0.750			
0.9013	57680.58	3.0550	3.0550	-0.1031	27.02	1.03	-0.750			
0.9016	57700.28	3.0520	3.0520	-0.1023	27.03	1.04	-0.750			
0.9019	57719.83	3.0490	3.0490	-0.1015	27.03	1.04	-0.750			
0.9022	57739.28	3.0460	3.0460	-0.1008	27.04	1.05	-0.750			
0.9025	57758.43	3.0430	3.0431	-0.1005	27.04	1.05	-0.750			
0.9028	57777.57	3.0400	3.0399	-0.0999	27.05	1.06	-0.750			
0.9031	57796.73	3.0370	3.0370	-0.0995	27.06	1.07	-0.750			
0.9034	57815.69	3.0340	3.0339	-0.0991	27.06	1.07	-0.750			
0.9037	57834.77	3.0310	3.0310	-0.0987	27.07	1.08	-0.750			
0.9040	57853.78	3.0280	3.0280	-0.0985	27.07	1.08	-0.750			
0.9043	57872.82	3.0250	3.0251	-0.0974	27.08	1.09	-0.750			
0.9046	57891.68	3.0220	3.0221	-0.0968	27.08	1.09	-0.750			
0.9048	57910.11	3.0190	3.0190	-0.0957	27.09	1.10	-0.750			
0.9051	57928.40	3.0160	3.0160	-0.0946	27.09	1.10	-0.750			
0.9054	57946.45	3.0130	3.0130	-0.0934	27.10	1.11	-0.750			
0.9057	57964.29	3.0100	3.0100	-0.0922	27.10	1.11	-0.751			
0.9060	57981.88	3.0070	3.0069	-0.0910	27.11	1.12	-0.751			
0.9062	57999.25	3.0040	3.0039	-0.0918	27.11	1.12	-0.751			
