Ah_balance (normalized)	Ah_balance (mAh)	Voltage - fit (V)	Voltage -  interpolate (V)	dQ/dV (1/V)	Temperature (°C)	Temperature - diff (°C)	Current (C)	R_DC 0ms (mOhm)	R_DC 50ms (mOhm)	R_DC 50 ms PEC (mOhm)
0.0002	11.85	4.1620	4.1614	-0.0917	25.84	0.02	-0.750			
0.0005	34.26	4.1590	4.1588	-0.1368	25.84	0.02	-0.750			
0.0010	64.66	4.1560	4.1559	-0.1784	25.84	0.02	-0.750			
0.0016	102.76	4.1530	4.1530	-0.2194	25.83	0.01	-0.750			
0.0023	150.18	4.1500	4.1499	-0.2543	25.83	0.01	-0.750			
0.0032	202.86	4.1470	4.1471	-0.2874	25.83	0.01	-0.750			
0.0041	262.96	4.1440	4.1440	-0.3220	25.83	0.01	-0.750			
0.0051	328.04	4.1410	4.1411	-0.3540	25.83	0.01	-0.750			
0.0062	399.08	4.1380	4.1379	-0.3855	25.83	0.01	-0.750			
0.0074	475.88	4.1350	4.1350	-0.4142	25.83	0.01	-0.750			
0.0087	558.57	4.1320	4.1320	-0.4430	25.82	0.00	-0.750			
0.0101	647.53	4.1290	4.1291	-0.4688	25.82	0.00	-0.750			
0.0116	740.90	4.1260	4.1259	-0.4945	25.82	-0.00	-0.750			
0.0131	838.44	4.1230	4.1230	-0.5126	25.82	-0.00	-0.750			
0.0147	938.95	4.1200	4.1199	-0.5316	25.81	-0.01	-0.750			
0.0163	1042.78	4.1170	4.1171	-0.5488	25.81	-0.01	-0.750			
0.0180	1151.39	4.1140	4.1140	-0.5662	25.81	-0.01	-0.750			
0.0197	1261.83	4.1110	4.1109	-0.5794	25.81	-0.01	-0.750			
0.0215	1374.31	4.1080	4.1080	-0.5922	25.80	-0.02	-0.750			
0.0233	1488.68	4.1050	4.1051	-0.6037	25.80	-0.02	-0.750			
0.0251	1606.74	4.1020	4.1020	-0.6144	25.80	-0.02	-0.750			
0.0270	1725.76	4.0990	4.0989	-0.6231	25.79	-0.03	-0.750			
0.0288	1845.73	4.0960	4.0961	-0.6348	25.79	-0.03	-0.750			
0.0308	1969.90	4.0930	4.0930	-0.6381	25.79	-0.03	-0.750			
0.0327	2093.97	4.0900	4.0900	-0.6450	25.78	-0.04	-0.750			
0.0347	2217.85	4.0870	4.0869	-0.6493	25.78	-0.04	-0.750			
0.0366	2343.12	4.0840	4.0840	-0.6512	25.78	-0.04	-0.750			
0.0386	2468.07	4.0810	4.0809	-0.6567	25.78	-0.04	-0.750			
0.0405	2594.20	4.0780	4.0779	-0.6594	25.78	-0.04	-0.750			
0.0425	2719.77	4.0750	4.0751	-0.6672	25.77	-0.05	-0.750			
0.0445	2850.65	4.0720	4.0720	-0.6781	25.77	-0.05	-0.750			
0.0466	2981.94	4.0690	4.0689	-0.6804	25.77	-0.05	-0.750			
0.0487	3114.04	4.0660	4.0662	-0.6829	25.77	-0.05	-0.750			
0.0507	3246.05	4.0630	4.0629	-0.6873	25.77	-0.05	-0.750			
0.0528	3376.88	4.0600	4.0601	-0.6871	25.76	-0.06	-0.750			
0.0548	3508.48	4.0570	4.0570	-0.6878	25.76	-0.06	-0.750			
0.0569	3640.79	4.0540	4.0540	-0.6925	25.76	-0.06	-0.750			
0.0590	3773.63	4.0510	4.0510	-0.6964	25.75	-0.07	-0.750			
0.0611	3908.24	4.0480	4.0480	-0.7006	25.75	-0.07	-0.750			
0.0632	4042.71	4.0450	4.0450	-0.7029	25.75	-0.07	-0.750			
0.0653	4177.38	4.0420	4.0420	-0.7053	25.75	-0.07	-0.750			
0.0674	4313.96	4.0390	4.0390	-0.7075	25.75	-0.07	-0.750			
0.0695	4450.51	4.0360	4.0360	-0.7087	25.75	-0.07	-0.750			
0.0717	4586.85	4.0330	4.0329	-0.7057	25.75	-0.07	-0.750			
0.0738	4721.35	4.0300	4.0301	-0.7090	25.75	-0.07	-0.750			
0.0759	4857.52	4.0270	4.0271	-0.7130	25.75	-0.07	-0.750			
0.0780	4992.68	4.0240	4.0239	-0.7200	25.76	-0.06	-0.750			
0.0802	5133.59	4.0210	4.0209	-0.7209	25.76	-0.06	-0.750			
0.0824	5273.18	4.0180	4.0180	-0.7245	25.76	-0.06	-0.750			
0.0846	5413.12	4.0150	4.0150	-0.7214	25.77	-0.05	-0.750			
0.0868	5552.72	4.0120	4.0120	-0.7245	25.77	-0.05	-0.750			
0.0889	5689.87	4.0090	4.0089	-0.7224	25.77	-0.05	-0.750			
0.0910	5826.37	4.0060	4.0060	-0.7248	25.77	-0.05	-0.750			
0.0932	5965.14	4.0030	4.0030	-0.7278	25.77	-0.05	-0.750			
0.0954	6107.66	4.0000	4.0000	-0.7329	25.77	-0.05	-0.750			
0.0976	6249.24	3.9970	3.9971	-0.7346	25.77	-0.05	-0.750			
0.0999	6390.62	3.9940	3.9940	-0.7379	25.77	-0.05	-0.750			
0.1021	6531.69	3.9910	3.9908	-0.7339	25.77	-0.05	-0.750			
0.1043	6672.63	3.9880	3.9881	-0.7386	25.77	-0.05	-0.750			
0.1065	6813.61	3.9850	3.9850	-0.7372	25.78	-0.04	-0.750			
0.1087	6956.94	3.9820	3.9820	-0.7447	25.78	-0.04	-0.750			
0.1109	7100.38	3.9790	3.9791	-0.7488	25.78	-0.04	-0.750			
0.1132	7243.51	3.9760	3.9760	-0.7482	25.78	-0.04	-0.750			
0.1154	7386.61	3.9730	3.9730	-0.7533	25.78	-0.04	-0.750			
0.1177	7533.11	3.9700	3.9700	-0.7550	25.79	-0.03	-0.750			
0.1200	7678.68	3.9670	3.9670	-0.7534	25.79	-0.03	-0.750			
0.1222	7822.82	3.9640	3.9640	-0.7573	25.79	-0.03	-0.750			
0.1245	7967.16	3.9610	3.9610	-0.7563	25.79	-0.03	-0.750			
0.1268	8112.22	3.9580	3.9579	-0.7616	25.79	-0.03	-0.750			
0.1291	8259.63	3.9550	3.9550	-0.7637	25.79	-0.03	-0.750			
0.1313	8405.86	3.9520	3.9520	-0.7631	25.80	-0.02	-0.750			
0.1337	8554.27	3.9490	3.9490	-0.7651	25.80	-0.02	-0.750			
0.1360	8701.21	3.9460	3.9461	-0.7693	25.80	-0.02	-0.750			
0.1382	8847.78	3.9430	3.9429	-0.7688	25.80	-0.02	-0.750			
0.1405	8994.95	3.9400	3.9401	-0.7754	25.81	-0.01	-0.750			
0.1429	9144.58	3.9370	3.9370	-0.7777	25.81	-0.01	-0.750			
0.1453	9296.97	3.9340	3.9339	-0.7810	25.82	-0.00	-0.750			
0.1476	9446.55	3.9310	3.9310	-0.7819	25.82	-0.00	-0.750			
0.1499	9596.13	3.9280	3.9280	-0.7853	25.82	0.00	-0.750			
0.1523	9745.88	3.9250	3.9250	-0.7844	25.82	0.00	-0.750			
0.1546	9897.42	3.9220	3.9219	-0.7830	25.82	0.00	-0.750			
0.1570	10047.16	3.9190	3.9191	-0.7819	25.82	0.00	-0.750			
0.1594	10199.25	3.9160	3.9160	-0.7854	25.82	0.00	-0.750			
0.1617	10349.22	3.9130	3.9131	-0.7848	25.82	0.00	-0.750			
0.1640	10496.89	3.9100	3.9100	-0.7871	25.83	0.01	-0.750			
0.1664	10648.54	3.9070	3.9070	-0.7931	25.83	0.01	-0.750			
0.1688	10802.97	3.9040	3.9039	-0.7955	25.83	0.01	-0.750			
0.1712	10956.98	3.9010	3.9009	-0.7989	25.84	0.02	-0.750			
0.1736	11111.75	3.8980	3.8982	-0.7996	25.84	0.02	-0.750			
0.1760	11265.13	3.8950	3.8950	-0.7993	25.84	0.02	-0.750			
0.1784	11417.75	3.8920	3.8919	-0.8000	25.84	0.02	-0.750			
0.1808	11571.24	3.8890	3.8890	-0.7992	25.85	0.03	-0.750			
0.1832	11724.81	3.8860	3.8859	-0.8040	25.85	0.03	-0.750			
0.1856	11880.21	3.8830	3.8832	-0.8032	25.85	0.03	-0.750			
0.1880	12034.79	3.8800	3.8799	-0.8011	25.85	0.03	-0.750			
0.1904	12187.41	3.8770	3.8771	-0.8052	25.86	0.04	-0.750			
0.1928	12340.96	3.8740	3.8740	-0.8041	25.86	0.04	-0.750			
0.1953	12496.25	3.8710	3.8709	-0.8031	25.87	0.05	-0.750			
0.1977	12651.85	3.8680	3.8680	-0.8061	25.87	0.05	-0.750			
0.2001	12806.35	3.8650	3.8651	-0.8045	25.87	0.05	-0.750			
0.2025	12961.88	3.8620	3.8620	-0.8106	25.88	0.06	-0.750			
0.2050	13117.16	3.8590	3.8589	-0.8099	25.88	0.06	-0.750			
0.2074	13270.50	3.8560	3.8560	-0.8099	25.88	0.06	-0.750			
0.2098	13428.24	3.8530	3.8530	-0.8114	25.89	0.07	-0.750			
0.2123	13584.44	3.8500	3.8500	-0.8114	25.89	0.07	-0.750			
0.2147	13738.80	3.8470	3.8471	-0.8148	25.90	0.08	-0.750			
0.2171	13897.11	3.8440	3.8439	-0.8111	25.90	0.08	-0.750			
0.2196	14052.48	3.8410	3.8409	-0.8041	25.90	0.08	-0.750			
0.2220	14206.91	3.8380	3.8379	-0.8059	25.91	0.09	-0.750			
0.2244	14361.00	3.8350	3.8351	-0.8046	25.91	0.09	-0.750			
0.2268	14514.76	3.8320	3.8319	-0.8117	25.91	0.09	-0.750			
0.2292	14670.42	3.8290	3.8289	-0.8073	25.91	0.09	-0.750			
0.2316	14824.82	3.8260	3.8260	-0.8021	25.92	0.10	-0.750			
0.2341	14982.72	3.8230	3.8230	-0.8060	25.92	0.10	-0.750			
0.2365	15138.31	3.8200	3.8201	-0.8045	25.92	0.10	-0.750			
0.2389	15290.96	3.8170	3.8170	-0.7988	25.92	0.10	-0.750			
0.2413	15442.55	3.8140	3.8140	-0.7963	25.92	0.10	-0.750			
0.2437	15594.58	3.8110	3.8109	-0.7916	25.93	0.11	-0.750			
0.2461	15748.14	3.8080	3.8080	-0.7968	25.93	0.11	-0.750			
0.2485	15901.95	3.8050	3.8051	-0.7945	25.93	0.11	-0.750			
0.2508	16053.92	3.8020	3.8019	-0.7887	25.93	0.11	-0.750			
0.2532	16204.94	3.7990	3.7990	-0.7880	25.94	0.12	-0.750			
0.2556	16356.43	3.7960	3.7960	-0.7784	25.94	0.12	-0.750			
0.2579	16505.38	3.7930	3.7930	-0.7773	25.95	0.13	-0.750			
0.2602	16653.83	3.7900	3.7901	-0.7718	25.95	0.13	-0.750			
0.2625	16800.41	3.7870	3.7870	-0.7676	25.95	0.13	-0.750			
0.2648	16947.31	3.7840	3.7839	-0.7699	25.95	0.13	-0.750			
0.2671	17094.81	3.7810	3.7810	-0.7644	25.96	0.14	-0.750			
0.2694	17240.94	3.7780	3.7781	-0.7631	25.96	0.14	-0.750			
0.2717	17391.08	3.7750	3.7749	-0.7658	25.96	0.14	-0.750			
0.2740	17535.89	3.7720	3.7721	-0.7588	25.96	0.14	-0.750			
0.2763	17681.43	3.7690	3.7690	-0.7548	25.96	0.14	-0.750			
0.2785	17825.58	3.7660	3.7660	-0.7532	25.97	0.15	-0.750			
0.2808	17969.64	3.7630	3.7629	-0.7497	25.97	0.15	-0.750			
0.2830	18113.81	3.7600	3.7600	-0.7534	25.98	0.16	-0.750			
0.2853	18258.18	3.7570	3.7570	-0.7509	25.98	0.16	-0.750			
0.2875	18402.14	3.7540	3.7539	-0.7542	25.98	0.16	-0.750			
0.2898	18544.93	3.7510	3.7510	-0.7588	25.98	0.16	-0.750			
0.2921	18692.08	3.7480	3.7480	-0.7631	25.99	0.17	-0.750			
0.2944	18838.68	3.7450	3.7450	-0.7651	25.99	0.17	-0.750			
0.2967	18988.07	3.7420	3.7420	-0.7731	25.99	0.17	-0.750			
0.2990	19135.86	3.7390	3.7392	-0.7797	25.99	0.17	-0.750			
0.3013	19284.74	3.7360	3.7360	-0.7931	25.99	0.17	-0.750			
0.3037	19437.80	3.7330	3.7330	-0.8003	26.00	0.18	-0.750			
0.3061	19591.28	3.7300	3.7299	-0.8096	26.00	0.18	-0.750			
0.3086	19750.08	3.7270	3.7270	-0.8242	26.01	0.19	-0.750			
0.3111	19911.34	3.7240	3.7241	-0.8342	26.01	0.19	-0.750			
0.3136	20071.59	3.7210	3.7210	-0.8409	26.01	0.19	-0.750			
0.3161	20231.82	3.7180	3.7180	-0.8560	26.00	0.18	-0.750			
0.3187	20397.56	3.7150	3.7151	-0.8698	26.00	0.18	-0.750			
0.3213	20566.38	3.7120	3.7118	-0.8887	25.99	0.17	-0.750			
0.3240	20738.17	3.7090	3.7091	-0.9027	25.99	0.17	-0.750			
0.3268	20913.92	3.7060	3.7060	-0.9266	25.99	0.17	-0.750			
0.3296	21094.38	3.7030	3.7030	-0.9414	25.99	0.17	-0.750			
0.3324	21276.47	3.7000	3.7000	-0.9573	25.99	0.17	-0.750			
0.3353	21462.14	3.6970	3.6972	-0.9751	25.99	0.17	-0.750			
0.3383	21652.00	3.6940	3.6939	-0.9951	25.99	0.17	-0.750			
0.3413	21844.17	3.6910	3.6910	-1.0099	25.99	0.17	-0.750			
0.3444	22039.79	3.6880	3.6880	-1.0235	25.99	0.17	-0.750			
0.3474	22235.86	3.6850	3.6848	-1.0398	25.99	0.17	-0.750			
0.3506	22439.91	3.6820	3.6819	-1.0654	25.99	0.17	-0.750			
0.3538	22644.09	3.6790	3.6789	-1.0888	25.98	0.16	-0.750			
0.3571	22855.24	3.6760	3.6759	-1.1056	25.98	0.16	-0.750			
0.3604	23067.57	3.6730	3.6731	-1.1250	25.97	0.15	-0.750			
0.3639	23291.81	3.6700	3.6700	-1.1536	25.96	0.14	-0.750			
0.3674	23514.70	3.6670	3.6670	-1.1768	25.96	0.14	-0.750			
0.3709	23740.14	3.6640	3.6640	-1.1992	25.95	0.13	-0.750			
0.3746	23972.80	3.6610	3.6610	-1.2245	25.95	0.13	-0.750			
0.3783	24209.82	3.6580	3.6579	-1.2480	25.94	0.12	-0.750			
0.3821	24454.23	3.6550	3.6550	-1.2769	25.94	0.12	-0.750			
0.3859	24700.55	3.6520	3.6521	-1.3051	25.93	0.11	-0.750			
0.3899	24956.46	3.6490	3.6490	-1.3357	25.92	0.10	-0.750			
0.3940	25214.38	3.6460	3.6459	-1.3539	25.92	0.10	-0.750			
0.3981	25477.35	3.6430	3.6431	-1.3844	25.91	0.09	-0.750			
0.4023	25747.93	3.6400	3.6400	-1.4066	25.90	0.08	-0.750			
0.4065	26018.88	3.6370	3.6370	-1.4295	25.90	0.08	-0.750			
0.4108	26294.22	3.6340	3.6342	-1.4621	25.89	0.07	-0.750			
0.4153	26579.79	3.6310	3.6309	-1.4869	25.88	0.06	-0.750			
0.4198	26866.69	3.6280	3.6279	-1.5254	25.88	0.06	-0.750			
0.4244	27160.86	3.6250	3.6252	-1.5664	25.87	0.05	-0.750			
0.4292	27467.99	3.6220	3.6219	-1.6010	25.86	0.04	-0.750			
0.4340	27777.92	3.6190	3.6190	-1.6361	25.84	0.02	-0.750			
0.4390	28093.49	3.6160	3.6160	-1.6529	25.83	0.01	-0.750	0.399	0.541	
0.4440	28416.03	3.6130	3.6130	-1.6795	25.83	0.01	-0.750			
0.4491	28739.64	3.6100	3.6100	-1.7093	25.82	-0.00	-0.750			
0.4541	29065.27	3.6070	3.6067	-1.7340	25.82	-0.00	-0.750			
0.4594	29404.31	3.6040	3.6039	-1.7599	25.81	-0.01	-0.750			
0.4648	29746.76	3.6010	3.6011	-1.8093	25.80	-0.02	-0.750			
0.4702	30094.00	3.5980	3.5979	-1.8382	25.79	-0.03	-0.750			
0.4758	30452.21	3.5950	3.5951	-1.8723	25.79	-0.03	-0.750			
0.4815	30816.02	3.5920	3.5921	-1.9089	25.78	-0.04	-0.750			
0.4872	31182.05	3.5890	3.5891	-1.9447	25.78	-0.04	-0.750			
0.4931	31559.62	3.5860	3.5861	-1.9960	25.77	-0.05	-0.750			
0.4993	31952.25	3.5830	3.5829	-2.0206	25.77	-0.05	-0.750			
0.5054	32344.35	3.5800	3.5800	-2.0582	25.76	-0.06	-0.750			
0.5116	32744.28	3.5770	3.5770	-2.0902	25.75	-0.07	-0.750			
0.5180	33151.39	3.5740	3.5740	-2.1168	25.75	-0.07	-0.750			
0.5244	33562.62	3.5710	3.5710	-2.1360	25.75	-0.07	-0.750			
0.5308	33973.28	3.5680	3.5680	-2.1504	25.74	-0.08	-0.750			
0.5373	34386.68	3.5650	3.5650	-2.1601	25.74	-0.08	-0.750			
0.5440	34813.36	3.5620	3.5620	-2.1738	25.74	-0.08	-0.750			
0.5503	35221.80	3.5590	3.5589	-2.1765	25.74	-0.08	-0.750			
0.5569	35643.88	3.5560	3.5559	-2.1745	25.74	-0.08	-0.750			
0.5635	36064.49	3.5530	3.5532	-2.1767	25.74	-0.08	-0.750			
0.5700	36479.00	3.5500	3.5501	-2.1841	25.75	-0.07	-0.750			
0.5765	36898.74	3.5470	3.5468	-2.1787	25.74	-0.08	-0.750			
0.5831	37318.18	3.5440	3.5440	-2.1693	25.73	-0.09	-0.750			
0.5897	37740.67	3.5410	3.5411	-2.1834	25.73	-0.09	-0.750			
0.5962	38155.59	3.5380	3.5380	-2.1607	25.74	-0.08	-0.750			
0.6027	38575.03	3.5350	3.5349	-2.1293	25.74	-0.08	-0.750			
0.6092	38987.19	3.5320	3.5321	-2.0959	25.75	-0.07	-0.750			
0.6154	39384.29	3.5290	3.5290	-2.0487	25.75	-0.07	-0.750			
0.6216	39779.71	3.5260	3.5259	-2.0005	25.76	-0.06	-0.750			
0.6274	40153.64	3.5230	3.5231	-1.9527	25.76	-0.06	-0.750			
0.6331	40520.63	3.5200	3.5198	-1.8810	25.77	-0.05	-0.750			
0.6387	40878.08	3.5170	3.5172	-1.8437	25.77	-0.05	-0.750			
0.6442	41230.15	3.5140	3.5140	-1.8085	25.78	-0.04	-0.750			
0.6495	41570.45	3.5110	3.5110	-1.7575	25.79	-0.03	-0.750			
0.6548	41908.39	3.5080	3.5082	-1.7101	25.81	-0.01	-0.750			
0.6600	42237.33	3.5050	3.5052	-1.6741	25.82	-0.00	-0.750			
0.6649	42550.87	3.5020	3.5020	-1.6085	25.84	0.02	-0.750			
0.6696	42854.65	3.4990	3.4988	-1.5517	25.86	0.04	-0.750			
0.6742	43145.95	3.4960	3.4961	-1.5092	25.87	0.05	-0.750			
0.6786	43430.01	3.4930	3.4929	-1.4604	25.88	0.06	-0.750			
0.6829	43702.53	3.4900	3.4900	-1.4151	25.89	0.07	-0.750			
0.6871	43974.17	3.4870	3.4871	-1.3756	25.90	0.08	-0.750			
0.6911	44233.32	3.4840	3.4840	-1.3305	25.92	0.10	-0.750			
0.6951	44485.51	3.4810	3.4809	-1.2908	25.93	0.11	-0.750			
0.6988	44725.57	3.4780	3.4782	-1.2459	25.95	0.13	-0.750			
0.7026	44964.66	3.4750	3.4748	-1.2169	25.97	0.15	-0.750			
0.7062	45194.75	3.4720	3.4720	-1.1788	25.98	0.16	-0.750			
0.7096	45416.02	3.4690	3.4689	-1.1422	26.00	0.18	-0.750			
0.7130	45633.71	3.4660	3.4659	-1.1138	26.01	0.19	-0.750			
0.7163	45844.27	3.4630	3.4629	-1.0758	26.02	0.20	-0.750			
0.7195	46045.86	3.4600	3.4600	-1.0362	26.03	0.21	-0.750			
0.7225	46239.97	3.4570	3.4572	-0.9985	26.05	0.23	-0.750			
0.7255	46429.94	3.4540	3.4539	-0.9724	26.06	0.24	-0.750			
0.7283	46613.47	3.4510	3.4510	-0.9374	26.07	0.25	-0.750			
0.7310	46785.05	3.4480	3.4480	-0.9081	26.08	0.26	-0.750			
0.7337	46956.98	3.4450	3.4450	-0.8874	26.09	0.27	-0.750			
0.7363	47126.32	3.4420	3.4421	-0.8729	26.10	0.28	-0.750			
0.7389	47290.77	3.4390	3.4389	-0.8658	26.11	0.29	-0.750			
0.7415	47453.49	3.4360	3.4361	-0.8634	26.12	0.30	-0.750			
0.7440	47618.97	3.4330	3.4330	-0.8660	26.13	0.31	-0.750			
0.7466	47784.68	3.4300	3.4299	-0.8794	26.13	0.31	-0.750			
0.7493	47953.46	3.4270	3.4271	-0.8899	26.14	0.32	-0.750			
0.7520	48125.74	3.4240	3.4240	-0.9088	26.15	0.33	-0.750			
0.7547	48301.14	3.4210	3.4210	-0.9251	26.17	0.35	-0.750			
0.7575	48480.60	3.4180	3.4180	-0.9346	26.18	0.36	-0.750			
0.7604	48663.66	3.4150	3.4150	-0.9427	26.19	0.37	-0.750			
0.7632	48847.78	3.4120	3.4120	-0.9488	26.20	0.38	-0.750			
0.7661	49030.24	3.4090	3.4090	-0.9400	26.21	0.39	-0.750			
0.7689	49212.73	3.4060	3.4060	-0.9299	26.22	0.40	-0.750			
0.7717	49390.85	3.4030	3.4029	-0.9071	26.23	0.41	-0.750			
0.7744	49564.45	3.4000	3.4000	-0.8851	26.23	0.41	-0.750			
0.7771	49732.36	3.3970	3.3971	-0.8629	26.24	0.42	-0.750			
0.7796	49895.96	3.3940	3.3940	-0.8384	26.25	0.43	-0.750			
0.7821	50052.24	3.3910	3.3909	-0.8082	26.26	0.44	-0.750			
0.7845	50206.23	3.3880	3.3879	-0.7859	26.27	0.45	-0.750			
0.7868	50354.49	3.3850	3.3850	-0.7630	26.27	0.45	-0.750			
0.7890	50498.89	3.3820	3.3820	-0.7398	26.28	0.46	-0.750			
0.7912	50638.89	3.3790	3.3790	-0.7176	26.29	0.47	-0.750			
0.7933	50773.85	3.3760	3.3760	-0.6874	26.29	0.47	-0.750			
0.7954	50904.65	3.3730	3.3730	-0.6678	26.30	0.48	-0.750			
0.7974	51030.41	3.3700	3.3700	-0.6444	26.31	0.49	-0.750			
0.7992	51151.33	3.3670	3.3668	-0.6233	26.31	0.49	-0.750			
0.8011	51267.53	3.3640	3.3640	-0.6026	26.32	0.50	-0.750			
0.8028	51381.23	3.3610	3.3610	-0.5853	26.32	0.50	-0.750			
0.8046	51492.60	3.3580	3.3579	-0.5655	26.33	0.51	-0.750			
0.8063	51600.80	3.3550	3.3550	-0.5468	26.34	0.52	-0.750			
0.8079	51703.26	3.3520	3.3520	-0.5228	26.34	0.52	-0.750			
0.8094	51801.53	3.3490	3.3490	-0.5031	26.35	0.53	-0.750			
0.8109	51894.85	3.3460	3.3461	-0.4824	26.35	0.53	-0.750			
0.8123	51985.31	3.3430	3.3429	-0.4653	26.36	0.54	-0.750			
0.8136	52072.28	3.3400	3.3400	-0.4495	26.37	0.55	-0.750			
0.8150	52157.23	3.3370	3.3370	-0.4374	26.37	0.55	-0.750			
0.8163	52240.22	3.3340	3.3340	-0.4246	26.38	0.56	-0.750			
0.8175	52320.83	3.3310	3.3310	-0.4115	26.39	0.57	-0.750			
0.8187	52397.81	3.3280	3.3279	-0.3968	26.39	0.57	-0.750			
0.8199	52472.85	3.3250	3.3251	-0.3848	26.40	0.58	-0.750			
0.8210	52545.42	3.3220	3.3220	-0.3718	26.41	0.59	-0.750			
0.8221	52614.94	3.3190	3.3190	-0.3615	26.41	0.59	-0.750			
0.8232	52682.63	3.3160	3.3160	-0.3515	26.42	0.60	-0.750			
0.8242	52749.71	3.3130	3.3130	-0.3426	26.43	0.61	-0.750			
0.8252	52815.24	3.3100	3.3100	-0.3328	26.43	0.61	-0.750			
0.8262	52877.84	3.3070	3.3071	-0.3250	26.44	0.62	-0.750			
0.8272	52939.20	3.3040	3.3040	-0.3170	26.44	0.62	-0.750			
0.8281	52999.13	3.3010	3.3009	-0.3095	26.45	0.63	-0.750			
0.8290	53057.67	3.2980	3.2980	-0.3004	26.45	0.63	-0.750			
0.8299	53114.37	3.2950	3.2951	-0.2945	26.46	0.64	-0.750			
0.8308	53170.53	3.2920	3.2921	-0.2893	26.46	0.64	-0.750			
0.8317	53225.96	3.2890	3.2889	-0.2823	26.47	0.65	-0.750			
0.8325	53278.69	3.2860	3.2860	-0.2751	26.47	0.65	-0.750			
0.8333	53331.03	3.2830	3.2831	-0.2685	26.48	0.66	-0.750			
0.8341	53381.87	3.2800	3.2801	-0.2634	26.48	0.66	-0.750			
0.8349	53432.15	3.2770	3.2769	-0.2584	26.49	0.67	-0.750			
0.8356	53480.34	3.2740	3.2742	-0.2524	26.49	0.67	-0.750			
0.8364	53528.28	3.2710	3.2710	-0.2485	26.50	0.68	-0.750			
0.8371	53575.52	3.2680	3.2681	-0.2445	26.50	0.68	-0.750			
0.8379	53622.68	3.2650	3.2649	-0.2409	26.51	0.69	-0.750			
0.8386	53668.00	3.2620	3.2620	-0.2362	26.51	0.69	-0.750			
0.8393	53713.46	3.2590	3.2590	-0.2329	26.52	0.70	-0.750			
0.8400	53757.51	3.2560	3.2560	-0.2279	26.52	0.70	-0.750			
0.8406	53800.99	3.2530	3.2530	-0.2247	26.53	0.71	-0.750			
0.8413	53843.38	3.2500	3.2500	-0.2201	26.54	0.72	-0.750			
0.8420	53885.33	3.2470	3.2470	-0.2168	26.54	0.72	-0.750			
0.8426	53926.44	3.2440	3.2440	-0.2147	26.55	0.73	-0.750			
0.8432	53967.58	3.2410	3.2410	-0.2113	26.55	0.73	-0.750			
0.8439	54007.54	3.2380	3.2380	-0.2085	26.56	0.74	-0.750			
0.8445	54047.35	3.2350	3.2350	-0.2063	26.56	0.74	-0.750			
0.8451	54086.97	3.2320	3.2321	-0.2037	26.57	0.75	-0.750			
0.8457	54125.70	3.2290	3.2289	-0.2010	26.57	0.75	-0.750			
0.8463	54164.13	3.2260	3.2260	-0.1985	26.58	0.76	-0.750			
0.8469	54201.95	3.2230	3.2230	-0.1957	26.58	0.76	-0.750			
0.8475	54239.07	3.2200	3.2200	-0.1928	26.59	0.77	-0.750			
0.8481	54276.25	3.2170	3.2170	-0.1905	26.59	0.77	-0.750			
0.8486	54312.22	3.2140	3.2140	-0.1870	26.59	0.77	-0.750			
0.8492	54347.88	3.2110	3.2110	-0.1845	26.60	0.78	-0.750			
0.8497	54383.05	3.2080	3.2080	-0.1828	26.61	0.79	-0.750			
0.8503	54417.82	3.2050	3.2050	-0.1801	26.61	0.79	-0.750			
0.8508	54452.15	3.2020	3.2019	-0.1782	26.62	0.80	-0.750			
0.8513	54486.13	3.1990	3.1991	-0.1762	26.62	0.80	-0.750			
0.8519	54519.71	3.1960	3.1960	-0.1752	26.63	0.81	-0.750			
0.8524	54553.43	3.1930	3.1929	-0.1730	26.64	0.82	-0.750			
0.8529	54586.47	3.1900	3.1900	-0.1710	26.64	0.82	-0.750			
0.8534	54619.11	3.1870	3.1870	-0.1689	26.65	0.83	-0.750			
0.8539	54651.12	3.1840	3.1841	-0.1682	26.65	0.83	-0.750			
0.8544	54683.49	3.1810	3.1809	-0.1667	26.66	0.84	-0.750			
0.8549	54715.09	3.1780	3.1779	-0.1651	26.66	0.84	-0.750			
0.8554	54746.70	3.1750	3.1750	-0.1641	26.67	0.85	-0.750			
0.8559	54778.19	3.1720	3.1721	-0.1616	26.67	0.85	-0.750			
0.8564	54809.44	3.1690	3.1690	-0.1605	26.68	0.86	-0.750			
0.8569	54840.12	3.1660	3.1661	-0.1582	26.68	0.86	-0.750			
0.8573	54870.18	3.1630	3.1631	-0.1559	26.69	0.87	-0.750			
0.8578	54899.36	3.1600	3.1600	-0.1546	26.69	0.87	-0.750			
0.8583	54928.98	3.1570	3.1569	-0.1534	26.70	0.88	-0.750			
0.8587	54957.93	3.1540	3.1541	-0.1517	26.70	0.88	-0.750			
0.8592	54987.06	3.1510	3.1509	-0.1514	26.71	0.89	-0.750			
0.8596	55016.59	3.1480	3.1481	-0.1504	26.71	0.89	-0.750			
0.8601	55045.46	3.1450	3.1450	-0.1487	26.71	0.89	-0.750			
0.8605	55073.82	3.1420	3.1420	-0.1467	26.72	0.90	-0.750			
0.8610	55101.89	3.1390	3.1389	-0.1460	26.72	0.90	-0.750			
0.8614	55129.44	3.1360	3.1360	-0.1442	26.73	0.91	-0.750			
0.8618	55157.05	3.1330	3.1329	-0.1431	26.74	0.92	-0.750			
0.8623	55184.42	3.1300	3.1300	-0.1421	26.74	0.92	-0.750			
0.8627	55211.42	3.1270	3.1271	-0.1409	26.75	0.93	-0.750			
0.8631	55238.67	3.1240	3.1240	-0.1401	26.75	0.93	-0.750			
0.8635	55265.53	3.1210	3.1209	-0.1389	26.76	0.94	-0.750			
0.8639	55292.04	3.1180	3.1180	-0.1373	26.77	0.95	-0.750			
0.8643	55318.05	3.1150	3.1150	-0.1359	26.77	0.95	-0.750			
0.8648	55344.05	3.1120	3.1119	-0.1350	26.78	0.96	-0.750			
0.8652	55369.73	3.1090	3.1090	-0.1340	26.78	0.96	-0.750			
0.8656	55395.37	3.1060	3.1060	-0.1332	26.79	0.97	-0.750			
0.8659	55420.79	3.1030	3.1030	-0.1323	26.80	0.98	-0.750			
0.8663	55446.14	3.1000	3.1000	-0.1317	26.80	0.98	-0.750			
0.8667	55471.53	3.0970	3.0971	-0.1308	26.81	0.99	-0.750			
0.8671	55496.54	3.0940	3.0939	-0.1297	26.81	0.99	-0.750			
0.8675	55521.49	3.0910	3.0911	-0.1285	26.82	1.00	-0.750			
0.8679	55546.14	3.0880	3.0880	-0.1272	26.82	1.00	-0.750			
0.8683	55570.14	3.0850	3.0850	-0.1266	26.83	1.01	-0.750			
0.8687	55594.16	3.0820	3.0820	-0.1254	26.83	1.01	-0.750			
0.8690	55618.17	3.0790	3.0789	-0.1249	26.84	1.02	-0.750			
0.8694	55641.88	3.0760	3.0760	-0.1241	26.85	1.03	-0.750			
0.8698	55665.85	3.0730	3.0730	-0.1231	26.85	1.03	-0.750			
0.8701	55689.57	3.0700	3.0700	-0.1226	26.86	1.04	-0.750			
0.8705	55713.00	3.0670	3.0671	-0.1217	26.86	1.04	-0.750			
0.8709	55736.53	3.0640	3.0640	-0.1210	26.87	1.05	-0.750			
0.8712	55759.51	3.0610	3.0610	-0.1202	26.87	1.05	-0.750			
0.8716	55782.26	3.0580	3.0579	-0.1190	26.88	1.06	-0.750			
0.8720	55805.10	3.0550	3.0550	-0.1182	26.88	1.06	-0.750			
0.8723	55827.67	3.0520	3.0520	-0.1175	26.89	1.07	-0.750			
0.8727	55850.17	3.0490	3.0490	-0.1168	26.89	1.07	-0.750			
0.8730	55872.66	3.0460	3.0462	-0.1163	26.90	1.08	-0.750			
0.8734	55894.86	3.0430	3.0430	-0.1157	26.90	1.08	-0.750			
0.8737	55916.94	3.0400	3.0400	-0.1150	26.91	1.09	-0.750			
0.8740	55939.01	3.0370	3.0370	-0.1142	26.91	1.09	-0.750			
0.8744	55960.85	3.0340	3.0342	-0.1134	26.92	1.10	-0.750			
0.8747	55982.60	3.0310	3.0310	-0.1126	26.92	1.10	-0.750			
0.8751	56004.27	3.0280	3.0279	-0.1120	26.93	1.11	-0.750			
0.8754	56025.70	3.0250	3.0250	-0.1109	26.93	1.11	-0.750			
0.8757	56046.94	3.0220	3.0220	-0.1099	26.94	1.12	-0.750			
0.8761	56067.94	3.0190	3.0191	-0.1088	26.94	1.12	-0.750			
0.8764	56088.72	3.0160	3.0160	-0.1077	26.94	1.12	-0.750			
0.8767	56109.29	3.0130	3.0130	-0.1066	26.95	1.13	-0.750			
0.8770	56129.73	3.0100	3.0099	-0.1055	26.95	1.13	-0.750			
0.8773	56149.87	3.0070	3.0070	-0.1042	26.96	1.14	-0.751			
0.8777	56169.77	3.0040	3.0040	-0.1035	26.96	1.14	-0.751			
