Ah_balance (normalized)	Ah_balance (mAh)	Voltage - fit (V)	Voltage -  interpolate (V)	dQ/dV (1/V)	Temperature (°C)	Temperature - diff (°C)	Current (C)	R_DC 0ms (mOhm)	R_DC 50ms (mOhm)	R_DC 50 ms PEC (mOhm)
0.0516	3302.05	4.1980	4.1980	0.7311	26.73	0.75	0.750			
0.0539	3449.00	4.1950	4.1949	0.7803	26.73	0.75	0.750			
0.0562	3597.89	4.1920	4.1920	0.7688	26.72	0.74	0.750			
0.0585	3742.08	4.1890	4.1891	0.7623	26.72	0.74	0.750			
0.0607	3887.96	4.1860	4.1860	0.7609	26.72	0.74	0.750			
0.0630	4033.01	4.1830	4.1829	0.7599	26.72	0.74	0.750			
0.0653	4178.50	4.1800	4.1800	0.7598	26.72	0.74	0.750			
0.0675	4323.18	4.1770	4.1771	0.7599	26.71	0.73	0.750			
0.0699	4471.91	4.1740	4.1740	0.7667	26.71	0.73	0.750			
0.0722	4619.80	4.1710	4.1710	0.7667	26.71	0.73	0.750			
0.0745	4764.93	4.1680	4.1681	0.7696	26.71	0.73	0.750			
0.0768	4913.15	4.1650	4.1651	0.7729	26.71	0.73	0.750			
0.0791	5061.76	4.1620	4.1620	0.7753	26.71	0.73	0.750			
0.0814	5211.19	4.1590	4.1590	0.7801	26.70	0.72	0.750			
0.0838	5361.28	4.1560	4.1561	0.7831	26.70	0.72	0.750			
0.0861	5513.27	4.1530	4.1531	0.7797	26.70	0.72	0.750			
0.0885	5663.50	4.1500	4.1501	0.7817	26.70	0.72	0.750			
0.0908	5813.28	4.1470	4.1470	0.7773	26.70	0.72	0.750			
0.0932	5962.43	4.1440	4.1440	0.7794	26.70	0.72	0.750			
0.0955	6109.17	4.1410	4.1409	0.7771	26.70	0.72	0.750			
0.0978	6259.00	4.1380	4.1379	0.7796	26.70	0.72	0.750			
0.1002	6410.21	4.1350	4.1350	0.7836	26.70	0.72	0.750			
0.1026	6563.71	4.1320	4.1320	0.7797	26.70	0.72	0.750			
0.1048	6710.01	4.1290	4.1290	0.7809	26.70	0.72	0.750			
0.1072	6859.18	4.1260	4.1261	0.7902	26.70	0.72	0.750			
0.1096	7011.98	4.1230	4.1230	0.7867	26.70	0.72	0.750			
0.1119	7162.39	4.1200	4.1200	0.7894	26.70	0.72	0.750			
0.1143	7317.23	4.1170	4.1171	0.7885	26.70	0.72	0.750			
0.1167	7469.70	4.1140	4.1140	0.7926	26.70	0.72	0.750			
0.1191	7621.30	4.1110	4.1109	0.7964	26.70	0.72	0.750			
0.1214	7772.14	4.1080	4.1081	0.7911	26.70	0.72	0.750			
0.1238	7922.38	4.1050	4.1048	0.7938	26.70	0.72	0.750			
0.1262	8077.84	4.1020	4.1020	0.8026	26.70	0.72	0.750			
0.1286	8232.43	4.0990	4.0990	0.7940	26.70	0.72	0.750			
0.1310	8384.50	4.0960	4.0960	0.7972	26.70	0.72	0.750			
0.1334	8536.41	4.0930	4.0932	0.7941	26.70	0.72	0.750			
0.1358	8688.34	4.0900	4.0896	0.8011	26.70	0.72	0.750			
0.1382	8842.17	4.0870	4.0871	0.8069	26.70	0.72	0.750			
0.1406	8998.12	4.0840	4.0840	0.8048	26.70	0.72	0.750			
0.1430	9154.41	4.0810	4.0811	0.8145	26.70	0.72	0.750			
0.1455	9309.96	4.0780	4.0781	0.8175	26.70	0.72	0.750			
0.1479	9468.35	4.0750	4.0748	0.8205	26.70	0.72	0.750			
0.1504	9626.31	4.0720	4.0720	0.8241	26.70	0.72	0.750			
0.1529	9787.16	4.0690	4.0691	0.8133	26.70	0.72	0.750			
0.1554	9944.41	4.0660	4.0660	0.8228	26.70	0.72	0.750			
0.1578	10102.11	4.0630	4.0631	0.8235	26.70	0.72	0.750			
0.1602	10255.47	4.0600	4.0598	0.8247	26.70	0.72	0.750			
0.1627	10414.42	4.0570	4.0570	0.8310	26.70	0.72	0.750			
0.1652	10575.47	4.0540	4.0540	0.8398	26.70	0.72	0.750			
0.1678	10739.06	4.0510	4.0511	0.8387	26.70	0.72	0.750			
0.1704	10902.64	4.0480	4.0480	0.8371	26.70	0.72	0.750			
0.1729	11064.40	4.0450	4.0450	0.8381	26.70	0.72	0.750			
0.1754	11223.09	4.0420	4.0421	0.8368	26.70	0.72	0.750			
0.1779	11384.55	4.0390	4.0389	0.8253	26.70	0.72	0.750			
0.1803	11540.30	4.0360	4.0360	0.8416	26.69	0.71	0.750			
0.1828	11701.63	4.0330	4.0331	0.8462	26.69	0.71	0.750			
0.1854	11866.83	4.0300	4.0297	0.8561	26.69	0.71	0.750			
0.1880	12031.79	4.0270	4.0271	0.8627	26.69	0.71	0.750			
0.1906	12199.63	4.0240	4.0241	0.8619	26.69	0.71	0.750			
0.1932	12365.94	4.0210	4.0210	0.8632	26.69	0.71	0.750			
0.1958	12530.42	4.0180	4.0181	0.8577	26.69	0.71	0.750			
0.1983	12694.20	4.0150	4.0147	0.8618	26.69	0.71	0.750			
0.2010	12861.87	4.0120	4.0120	0.8637	26.69	0.71	0.750			
0.2035	13026.38	4.0090	4.0090	0.8688	26.69	0.71	0.750			
0.2062	13194.32	4.0060	4.0060	0.8719	26.68	0.70	0.750			
0.2088	13361.00	4.0030	4.0031	0.8783	26.68	0.70	0.750			
0.2114	13530.80	4.0000	4.0001	0.8815	26.68	0.70	0.750			
0.2141	13700.78	3.9970	3.9970	0.8853	26.68	0.70	0.750			
0.2167	13871.03	3.9940	3.9940	0.8893	26.68	0.70	0.750			
0.2194	14043.54	3.9910	3.9910	0.8940	26.68	0.70	0.750			
0.2221	14214.61	3.9880	3.9880	0.8930	26.68	0.70	0.750			
0.2248	14387.91	3.9850	3.9850	0.8966	26.68	0.70	0.750			
0.2275	14559.94	3.9820	3.9820	0.8854	26.68	0.70	0.750			
0.2302	14730.78	3.9790	3.9790	0.8860	26.69	0.71	0.750			
0.2328	14897.74	3.9760	3.9761	0.8910	26.69	0.71	0.750			
0.2354	15067.73	3.9730	3.9728	0.8968	26.69	0.71	0.750			
0.2381	15240.45	3.9700	3.9700	0.8985	26.69	0.71	0.750			
0.2408	15413.52	3.9670	3.9671	0.9057	26.69	0.71	0.750			
0.2436	15591.99	3.9640	3.9640	0.9156	26.68	0.70	0.750			
0.2464	15771.07	3.9610	3.9609	0.9135	26.68	0.70	0.750			
0.2491	15943.64	3.9580	3.9580	0.9054	26.68	0.70	0.750			
0.2518	16117.02	3.9550	3.9551	0.8956	26.68	0.70	0.750			
0.2545	16286.86	3.9520	3.9520	0.9016	26.68	0.70	0.750			
0.2572	16458.91	3.9490	3.9490	0.9105	26.68	0.70	0.750			
0.2599	16632.35	3.9460	3.9458	0.9086	26.68	0.70	0.750			
0.2626	16807.61	3.9430	3.9431	0.9171	26.68	0.70	0.750			
0.2654	16988.73	3.9400	3.9401	0.9152	26.68	0.70	0.750			
0.2682	17161.89	3.9370	3.9370	0.9196	26.68	0.70	0.750			
0.2709	17339.37	3.9340	3.9340	0.9209	26.68	0.70	0.750			
0.2736	17513.49	3.9310	3.9306	0.9169	26.68	0.70	0.750			
0.2764	17690.59	3.9280	3.9281	0.9108	26.68	0.70	0.750			
0.2792	17867.06	3.9250	3.9251	0.9198	26.67	0.69	0.750			
0.2819	18043.69	3.9220	3.9220	0.9261	26.67	0.69	0.750			
0.2847	18222.91	3.9190	3.9190	0.9151	26.66	0.68	0.750			
0.2875	18397.44	3.9160	3.9162	0.9188	26.66	0.68	0.750			
0.2902	18574.21	3.9130	3.9130	0.9283	26.66	0.68	0.750			
0.2930	18752.86	3.9100	3.9102	0.9344	26.65	0.67	0.750			
0.2958	18934.07	3.9070	3.9073	0.9387	26.65	0.67	0.750			
0.2986	19113.17	3.9040	3.9039	0.9439	26.65	0.67	0.750			
0.3015	19297.53	3.9010	3.9010	0.9336	26.65	0.67	0.750			
0.3043	19476.55	3.8980	3.8980	0.9389	26.65	0.67	0.750			
0.3071	19655.67	3.8950	3.8952	0.9411	26.64	0.66	0.750			
0.3099	19835.82	3.8920	3.8919	0.9420	26.64	0.66	0.750			
0.3128	20018.34	3.8890	3.8891	0.9471	26.64	0.66	0.750			
0.3156	20200.26	3.8860	3.8860	0.9488	26.63	0.65	0.750			
0.3185	20381.45	3.8830	3.8831	0.9545	26.63	0.65	0.750			
0.3214	20568.51	3.8800	3.8801	0.9701	26.62	0.64	0.750			
0.3243	20752.67	3.8770	3.8769	0.9654	26.62	0.64	0.750			
0.3272	20938.46	3.8740	3.8740	0.9739	26.61	0.63	0.750			
0.3301	21126.37	3.8710	3.8710	0.9823	26.61	0.63	0.750			
0.3331	21316.20	3.8680	3.8681	0.9870	26.60	0.62	0.750			
0.3361	21507.27	3.8650	3.8649	0.9900	26.60	0.62	0.750			
0.3390	21696.34	3.8620	3.8621	0.9941	26.59	0.61	0.750			
0.3420	21885.98	3.8590	3.8590	1.0030	26.59	0.61	0.750			
0.3450	22080.86	3.8560	3.8560	1.0187	26.58	0.60	0.750			
0.3481	22277.49	3.8530	3.8527	1.0263	26.57	0.59	0.750			
0.3512	22476.67	3.8500	3.8500	1.0296	26.56	0.58	0.750			
0.3543	22675.18	3.8470	3.8471	1.0377	26.56	0.58	0.750			
0.3574	22874.84	3.8440	3.8440	1.0473	26.55	0.57	0.750			
0.3606	23075.70	3.8410	3.8407	1.0541	26.54	0.56	0.750			
0.3637	23277.75	3.8380	3.8380	1.0449	26.53	0.55	0.750			
0.3669	23479.10	3.8350	3.8350	1.0478	26.53	0.55	0.750			
0.3700	23683.14	3.8320	3.8321	1.0570	26.52	0.54	0.750			
0.3732	23885.14	3.8290	3.8286	1.0655	26.51	0.53	0.750			
0.3764	24086.82	3.8260	3.8259	1.0551	26.50	0.52	0.750			
0.3795	24287.48	3.8230	3.8231	1.0681	26.49	0.51	0.750			
0.3827	24492.33	3.8200	3.8201	1.0831	26.48	0.50	0.750			
0.3860	24705.22	3.8170	3.8165	1.0963	26.47	0.49	0.750			
0.3893	24915.09	3.8140	3.8140	1.1039	26.46	0.48	0.750			
0.3926	25128.43	3.8110	3.8111	1.1062	26.45	0.47	0.750			
0.3960	25342.05	3.8080	3.8081	1.1172	26.45	0.47	0.750			
0.3994	25560.54	3.8050	3.8050	1.1047	26.44	0.46	0.750			
0.4027	25773.35	3.8020	3.8018	1.1082	26.42	0.44	0.750			
0.4060	25981.84	3.7990	3.7991	1.1195	26.41	0.43	0.750			
0.4093	26196.78	3.7960	3.7961	1.1366	26.40	0.42	0.750			
0.4127	26414.99	3.7930	3.7932	1.1504	26.38	0.40	0.750			
0.4162	26634.75	3.7900	3.7899	1.1452	26.37	0.39	0.750			
0.4196	26853.17	3.7870	3.7873	1.1548	26.36	0.38	0.750			
0.4231	27080.47	3.7840	3.7832	1.1722	26.35	0.37	0.750			
0.4266	27302.78	3.7810	3.7813	1.1770	26.34	0.36	0.750			
0.4301	27526.87	3.7780	3.7781	1.1881	26.33	0.35	0.750			
0.4338	27761.13	3.7750	3.7751	1.2078	26.32	0.34	0.750			
0.4376	28004.10	3.7720	3.7720	1.2441	26.30	0.32	0.750			
0.4410	28224.82	3.7690	3.7690	1.2532	26.29	0.31	0.750			
0.4448	28467.24	3.7660	3.7661	1.2977	26.28	0.30	0.750			
0.4488	28721.98	3.7630	3.7628	1.3197	26.27	0.29	0.750			
0.4528	28977.10	3.7600	3.7597	1.3591	26.26	0.28	0.750	0.308	0.407	
0.4569	29242.14	3.7570	3.7573	1.4051	26.24	0.26	0.750			
0.4613	29523.74	3.7540	3.7534	1.4127	26.23	0.25	0.750			
0.4656	29798.89	3.7510	3.7511	1.4323	26.21	0.23	0.750			
0.4698	30069.94	3.7480	3.7482	1.4515	26.20	0.22	0.750			
0.4743	30355.61	3.7450	3.7451	1.5021	26.19	0.21	0.750			
0.4789	30650.33	3.7420	3.7421	1.5691	26.17	0.19	0.750			
0.4836	30951.84	3.7390	3.7393	1.5512	26.16	0.18	0.750			
0.4883	31254.33	3.7360	3.7363	1.5978	26.14	0.16	0.750			
0.4933	31571.32	3.7330	3.7335	1.6546	26.13	0.15	0.750			
0.4982	31885.96	3.7300	3.7295	1.6910	26.12	0.14	0.750			
0.5033	32211.09	3.7270	3.7272	1.7459	26.10	0.12	0.750			
0.5086	32551.66	3.7240	3.7243	1.7954	26.08	0.10	0.750			
0.5143	32913.74	3.7210	3.7211	1.8513	26.06	0.08	0.750			
0.5199	33272.26	3.7180	3.7182	1.8971	26.06	0.08	0.750			
0.5255	33634.83	3.7150	3.7151	1.9426	26.04	0.06	0.750			
0.5314	34009.86	3.7120	3.7121	2.0028	26.02	0.04	0.750			
0.5374	34394.38	3.7090	3.7088	2.0685	26.00	0.02	0.750			
0.5438	34800.33	3.7060	3.7058	2.1242	25.98	0.00	0.750			
0.5503	35217.36	3.7030	3.7030	2.1873	25.96	-0.02	0.750			
0.5570	35647.58	3.7000	3.7002	2.2909	25.94	-0.04	0.750			
0.5639	36090.42	3.6970	3.6966	2.3281	25.92	-0.06	0.750			
0.5709	36540.45	3.6940	3.6939	2.3729	25.91	-0.07	0.750			
0.5782	37002.91	3.6910	3.6913	2.4366	25.89	-0.09	0.750			
0.5856	37480.90	3.6880	3.6880	2.5398	25.87	-0.11	0.750			
0.5933	37972.10	3.6850	3.6849	2.5538	25.86	-0.12	0.750			
0.6010	38464.90	3.6820	3.6819	2.6791	25.84	-0.14	0.750			
0.6092	38990.04	3.6790	3.6792	2.7607	25.82	-0.16	0.750			
0.6176	39527.25	3.6760	3.6762	2.9046	25.81	-0.17	0.750			
0.6266	40103.81	3.6730	3.6728	3.0287	25.80	-0.18	0.750			
0.6361	40707.67	3.6700	3.6700	3.1024	25.79	-0.19	0.750			
0.6456	41317.75	3.6670	3.6671	3.1099	25.77	-0.21	0.750			
0.6550	41920.80	3.6640	3.6637	2.9816	25.77	-0.21	0.750			
0.6641	42503.24	3.6610	3.6609	2.7595	25.77	-0.21	0.750			
0.6719	42999.23	3.6580	3.6582	2.5025	25.76	-0.22	0.750			
0.6789	43451.05	3.6550	3.6551	2.2431	25.76	-0.22	0.750			
0.6850	43842.30	3.6520	3.6517	2.0016	25.77	-0.21	0.750			
0.6906	44197.58	3.6490	3.6492	1.8172	25.77	-0.21	0.750			
0.6957	44521.62	3.6460	3.6461	1.6392	25.77	-0.21	0.750			
0.7004	44824.91	3.6430	3.6430	1.5233	25.77	-0.21	0.750			
0.7048	45104.40	3.6400	3.6400	1.4287	25.77	-0.21	0.750			
0.7087	45354.02	3.6370	3.6370	1.3197	25.77	-0.21	0.750			
0.7125	45597.53	3.6340	3.6340	1.2594	25.77	-0.21	0.750			
0.7160	45825.02	3.6310	3.6312	1.2125	25.77	-0.21	0.750			
0.7195	46049.40	3.6280	3.6280	1.2076	25.76	-0.22	0.750			
0.7231	46280.41	3.6250	3.6245	1.1996	25.76	-0.22	0.750			
0.7267	46507.07	3.6220	3.6220	1.2012	25.76	-0.22	0.750			
0.7303	46741.37	3.6190	3.6192	1.2138	25.76	-0.22	0.750			
0.7341	46980.09	3.6160	3.6160	1.2242	25.76	-0.22	0.750			
0.7378	47219.63	3.6130	3.6129	1.2115	25.76	-0.22	0.750			
0.7413	47444.43	3.6100	3.6101	1.1893	25.76	-0.22	0.750			
0.7449	47671.66	3.6070	3.6071	1.1812	25.76	-0.22	0.750			
0.7485	47901.44	3.6040	3.6036	1.1698	25.76	-0.22	0.750			
0.7519	48120.45	3.6010	3.6011	1.1530	25.76	-0.22	0.750			
0.7553	48338.72	3.5980	3.5981	1.1608	25.77	-0.21	0.750			
0.7588	48560.14	3.5950	3.5950	1.1725	25.77	-0.21	0.750			
0.7623	48784.43	3.5920	3.5920	1.1810	25.77	-0.21	0.750			
0.7658	49011.47	3.5890	3.5891	1.2098	25.76	-0.22	0.750			
0.7694	49244.43	3.5860	3.5861	1.2445	25.76	-0.22	0.750			
0.7733	49488.10	3.5830	3.5829	1.2784	25.75	-0.23	0.750			
0.7772	49738.27	3.5800	3.5800	1.2977	25.75	-0.23	0.750			
0.7810	49986.34	3.5770	3.5771	1.3741	25.75	-0.23	0.750			
0.7853	50257.33	3.5740	3.5737	1.3821	25.75	-0.23	0.750			
0.7894	50522.45	3.5710	3.5709	1.4222	25.75	-0.23	0.750			
0.7937	50794.30	3.5680	3.5688	1.4763	25.75	-0.23	0.750			
0.7981	51079.93	3.5650	3.5649	1.5368	25.75	-0.23	0.750			
0.8029	51386.64	3.5620	3.5617	1.5653	25.75	-0.23	0.750			
0.8077	51694.79	3.5590	3.5588	1.5888	25.75	-0.23	0.750			
0.8127	52012.18	3.5560	3.5564	1.6251	25.75	-0.23	0.750			
0.8176	52324.34	3.5530	3.5525	1.6201	25.75	-0.23	0.750			
0.8224	52634.37	3.5500	3.5500	1.6266	25.75	-0.23	0.750			
0.8273	52947.34	3.5470	3.5473	1.6382	25.75	-0.23	0.750			
0.8323	53269.46	3.5440	3.5441	1.6904	25.75	-0.23	0.750			
0.8374	53591.67	3.5410	3.5412	1.7252	25.75	-0.23	0.750			
0.8427	53932.55	3.5380	3.5382	1.7441	25.76	-0.22	0.750			
0.8479	54266.49	3.5350	3.5350	1.7803	25.77	-0.21	0.750			
0.8536	54631.67	3.5320	3.5320	1.7329	25.77	-0.21	0.750			
0.8592	54990.13	3.5290	3.5287	1.6495	25.78	-0.20	0.750			
0.8643	55318.27	3.5260	3.5266	1.4400	25.79	-0.19	0.750			
0.8683	55570.03	3.5230	3.5236	1.1703	25.81	-0.17	0.750			
0.8714	55767.65	3.5200	3.5203	0.9060	25.82	-0.16	0.750			
0.8735	55904.71	3.5170	3.5162	0.7056	25.83	-0.15	0.750			
0.8748	55987.79	3.5140	3.5141	0.4967	25.84	-0.14	0.750			
0.8760	56062.87	3.5110	3.5109	0.4188	25.85	-0.13	0.750			
0.8770	56130.63	3.5080	3.5078	0.3672	25.85	-0.13	0.750			
0.8780	56194.65	3.5050	3.5049	0.3381	25.86	-0.12	0.750			
0.8790	56255.99	3.5020	3.5021	0.3201	25.87	-0.11	0.750			
0.8799	56315.09	3.4990	3.4990	0.3076	25.87	-0.11	0.750			
0.8808	56373.55	3.4960	3.4960	0.2989	25.88	-0.10	0.750			
0.8817	56429.35	3.4930	3.4930	0.2882	25.88	-0.10	0.750			
0.8826	56484.01	3.4900	3.4899	0.2796	25.89	-0.09	0.750			
0.8834	56536.57	3.4870	3.4871	0.2743	25.89	-0.09	0.750			
0.8842	56588.40	3.4840	3.4840	0.2665	25.90	-0.08	0.750			
0.8850	56638.81	3.4810	3.4808	0.2609	25.90	-0.08	0.750			
0.8858	56688.27	3.4780	3.4777	0.2550	25.91	-0.07	0.750			
0.8865	56736.69	3.4750	3.4752	0.2494	25.91	-0.07	0.750			
0.8873	56784.27	3.4720	3.4718	0.2447	25.92	-0.06	0.750			
0.8880	56830.65	3.4690	3.4690	0.2385	25.92	-0.06	0.750			
0.8887	56875.07	3.4660	3.4660	0.2340	25.93	-0.05	0.750			
0.8894	56919.26	3.4630	3.4630	0.2293	25.93	-0.05	0.750			
0.8901	56963.77	3.4600	3.4599	0.2261	25.93	-0.05	0.750			
0.8907	57006.44	3.4570	3.4570	0.2213	25.94	-0.04	0.750			
0.8914	57048.87	3.4540	3.4541	0.2165	25.94	-0.04	0.750			
0.8920	57090.20	3.4510	3.4510	0.2122	25.95	-0.03	0.750			
0.8927	57130.08	3.4480	3.4480	0.2076	25.95	-0.03	0.750			
0.8933	57169.52	3.4450	3.4450	0.2032	25.95	-0.03	0.750			
0.8939	57207.69	3.4420	3.4419	0.1979	25.96	-0.02	0.750			
0.8945	57245.46	3.4390	3.4390	0.1940	25.96	-0.02	0.750			
0.8950	57282.64	3.4360	3.4361	0.1896	25.96	-0.02	0.750			
0.8956	57318.56	3.4330	3.4330	0.1845	25.97	-0.01	0.750			
0.8962	57353.95	3.4300	3.4299	0.1788	25.97	-0.01	0.750			
0.8967	57387.66	3.4270	3.4270	0.1732	25.97	-0.01	0.750			
0.8972	57419.99	3.4240	3.4241	0.1672	25.97	-0.01	0.750			
0.8977	57451.58	3.4210	3.4209	0.1619	25.98	-0.00	0.750			
0.8982	57482.18	3.4180	3.4179	0.1569	25.98	-0.00	0.750			
0.8986	57511.66	3.4150	3.4150	0.1510	25.98	0.00	0.750			
0.8991	57540.30	3.4120	3.4120	0.1463	25.98	0.00	0.750			
0.8995	57567.96	3.4090	3.4090	0.1406	25.99	0.01	0.750			
0.8999	57594.74	3.4060	3.4060	0.1352	25.99	0.01	0.750			
0.9003	57620.18	3.4030	3.4030	0.1285	25.99	0.01	0.750			
0.9007	57644.31	3.4000	3.3999	0.1221	25.99	0.01	0.750			
0.9010	57667.17	3.3970	3.3971	0.1151	26.00	0.02	0.750			
0.9014	57688.72	3.3940	3.3940	0.1083	26.00	0.02	0.750			
0.9017	57710.17	3.3910	3.3908	0.1000	26.00	0.02	0.750			
0.9020	57728.42	3.3880	3.3879	0.0901	26.00	0.02	0.750			
0.9023	57745.37	3.3850	3.3853	0.0819	26.00	0.02	0.750			
0.9025	57760.08	3.3820	3.3822	0.0713	26.00	0.02	0.750			
0.9027	57773.94	3.3790	3.3793	0.0619	26.00	0.02	0.750			
0.9029	57784.67	3.3760	3.3764	0.0499	26.01	0.03	0.750			
0.9030	57793.09	3.3730	3.3736	0.0379	26.01	0.03	0.750			
0.9031	57799.20	3.3700	3.3710	0.0258	26.01	0.03	0.750			
0.9032	57803.01	3.3670	3.3682	0.0138	26.01	0.03	0.750			
