Ah_balance (normalized)	Ah_balance (mAh)	Voltage - fit (V)	Voltage -  interpolate (V)	dQ/dV (1/V)	Temperature (°C)	Temperature - diff (°C)	Current (C)	R_DC 0ms (mOhm)	R_DC 50ms (mOhm)	R_DC 50 ms PEC (mOhm)
0.0580	3709.29	4.1980	4.1980	0.7360	26.07	0.14	0.750			
0.0601	3848.97	4.1950	4.1950	0.7296	26.07	0.14	0.750			
0.0623	3989.09	4.1920	4.1920	0.7350	26.07	0.14	0.750			
0.0645	4130.81	4.1890	4.1892	0.7422	26.07	0.14	0.750			
0.0668	4275.28	4.1860	4.1860	0.7449	26.07	0.14	0.750			
0.0690	4418.33	4.1830	4.1830	0.7468	26.07	0.14	0.750			
0.0713	4562.58	4.1800	4.1800	0.7452	26.07	0.14	0.750			
0.0735	4706.21	4.1770	4.1770	0.7484	26.07	0.14	0.750			
0.0757	4847.66	4.1740	4.1740	0.7490	26.07	0.14	0.750			
0.0780	4991.49	4.1710	4.1709	0.7502	26.07	0.14	0.750			
0.0802	5135.53	4.1680	4.1680	0.7521	26.07	0.14	0.750			
0.0825	5281.57	4.1650	4.1651	0.7533	26.07	0.14	0.750			
0.0848	5426.59	4.1620	4.1620	0.7551	26.06	0.13	0.750			
0.0871	5571.49	4.1590	4.1590	0.7541	26.06	0.13	0.750			
0.0893	5716.65	4.1560	4.1560	0.7527	26.06	0.13	0.750			
0.0915	5859.17	4.1530	4.1531	0.7557	26.06	0.13	0.750			
0.0938	6005.04	4.1500	4.1500	0.7625	26.06	0.13	0.750			
0.0961	6151.35	4.1470	4.1470	0.7669	26.06	0.13	0.750			
0.0984	6299.98	4.1440	4.1440	0.7686	26.06	0.13	0.750			
0.1008	6449.07	4.1410	4.1410	0.7656	26.06	0.13	0.750			
0.1031	6597.18	4.1380	4.1379	0.7624	26.06	0.13	0.750			
0.1054	6743.40	4.1350	4.1352	0.7620	26.06	0.13	0.750			
0.1076	6887.67	4.1320	4.1320	0.7566	26.06	0.13	0.750			
0.1099	7031.55	4.1290	4.1289	0.7536	26.07	0.14	0.750			
0.1121	7175.69	4.1260	4.1260	0.7558	26.07	0.14	0.750			
0.1144	7320.65	4.1230	4.1231	0.7612	26.07	0.14	0.750			
0.1167	7467.13	4.1200	4.1201	0.7680	26.07	0.14	0.750			
0.1190	7615.42	4.1170	4.1169	0.7729	26.07	0.14	0.750			
0.1213	7764.51	4.1140	4.1140	0.7715	26.07	0.14	0.750			
0.1236	7913.10	4.1110	4.1111	0.7734	26.07	0.14	0.750			
0.1260	8062.84	4.1080	4.1080	0.7775	26.07	0.14	0.750			
0.1283	8211.97	4.1050	4.1049	0.7764	26.07	0.14	0.750			
0.1306	8360.13	4.1020	4.1020	0.7747	26.07	0.14	0.750			
0.1329	8508.64	4.0990	4.0991	0.7740	26.07	0.14	0.750			
0.1353	8658.46	4.0960	4.0960	0.7769	26.07	0.14	0.750			
0.1376	8807.74	4.0930	4.0930	0.7805	26.07	0.14	0.750			
0.1399	8956.26	4.0900	4.0899	0.7791	26.07	0.14	0.750			
0.1423	9105.73	4.0870	4.0871	0.7811	26.07	0.14	0.750			
0.1447	9258.20	4.0840	4.0840	0.7803	26.08	0.15	0.750			
0.1470	9406.82	4.0810	4.0810	0.7864	26.08	0.15	0.750			
0.1493	9557.56	4.0780	4.0780	0.7899	26.08	0.15	0.750			
0.1517	9709.31	4.0750	4.0750	0.7932	26.09	0.16	0.750			
0.1541	9862.01	4.0720	4.0720	0.7950	26.09	0.16	0.750			
0.1565	10017.09	4.0690	4.0690	0.7985	26.09	0.16	0.750			
0.1589	10170.87	4.0660	4.0661	0.8036	26.09	0.16	0.750			
0.1613	10325.88	4.0630	4.0629	0.8045	26.09	0.16	0.750			
0.1637	10478.95	4.0600	4.0601	0.8016	26.09	0.16	0.750			
0.1661	10633.60	4.0570	4.0568	0.8054	26.09	0.16	0.750			
0.1686	10788.35	4.0540	4.0540	0.8075	26.09	0.16	0.750			
0.1710	10944.25	4.0510	4.0510	0.8078	26.09	0.16	0.750			
0.1734	11097.80	4.0480	4.0481	0.8122	26.10	0.17	0.750			
0.1758	11254.30	4.0450	4.0450	0.8137	26.10	0.17	0.750			
0.1783	11411.89	4.0420	4.0418	0.8175	26.10	0.17	0.750			
0.1808	11568.37	4.0390	4.0391	0.8244	26.10	0.17	0.750			
0.1832	11727.01	4.0360	4.0360	0.8272	26.10	0.17	0.750			
0.1857	11887.81	4.0330	4.0329	0.8300	26.11	0.18	0.750			
0.1882	12046.14	4.0300	4.0301	0.8331	26.11	0.18	0.750			
0.1907	12206.66	4.0270	4.0269	0.8352	26.11	0.18	0.750			
0.1933	12369.06	4.0240	4.0239	0.8380	26.11	0.18	0.750			
0.1958	12529.78	4.0210	4.0210	0.8365	26.11	0.18	0.750			
0.1983	12689.18	4.0180	4.0180	0.8349	26.11	0.18	0.750			
0.2008	12849.01	4.0150	4.0150	0.8393	26.11	0.18	0.750			
0.2033	13011.44	4.0120	4.0118	0.8424	26.11	0.18	0.750			
0.2058	13171.80	4.0090	4.0090	0.8440	26.11	0.18	0.750			
0.2084	13335.63	4.0060	4.0060	0.8401	26.11	0.18	0.750			
0.2109	13497.06	4.0030	4.0031	0.8438	26.12	0.19	0.750			
0.2134	13657.24	4.0000	4.0001	0.8416	26.12	0.19	0.750			
0.2159	13819.67	3.9970	3.9967	0.8469	26.12	0.19	0.750			
0.2185	13981.85	3.9940	3.9940	0.8441	26.12	0.19	0.750			
0.2210	14145.27	3.9910	3.9911	0.8495	26.12	0.19	0.750			
0.2236	14310.15	3.9880	3.9880	0.8533	26.13	0.20	0.750			
0.2261	14473.21	3.9850	3.9851	0.8522	26.13	0.20	0.750			
0.2287	14636.44	3.9820	3.9820	0.8522	26.13	0.20	0.750			
0.2313	14802.06	3.9790	3.9790	0.8508	26.13	0.20	0.750			
0.2338	14964.69	3.9760	3.9759	0.8547	26.12	0.19	0.750			
0.2364	15128.59	3.9730	3.9731	0.8588	26.12	0.19	0.750			
0.2390	15294.26	3.9700	3.9700	0.8572	26.11	0.18	0.750			
0.2416	15459.45	3.9670	3.9670	0.8571	26.11	0.18	0.750			
0.2441	15624.85	3.9640	3.9641	0.8538	26.11	0.18	0.750			
0.2467	15788.39	3.9610	3.9611	0.8574	26.11	0.18	0.750			
0.2493	15952.07	3.9580	3.9580	0.8596	26.12	0.19	0.750			
0.2518	16115.73	3.9550	3.9550	0.8556	26.12	0.19	0.750			
0.2544	16280.41	3.9520	3.9520	0.8619	26.12	0.19	0.750			
0.2570	16448.42	3.9490	3.9490	0.8651	26.12	0.19	0.750			
0.2596	16613.86	3.9460	3.9461	0.8686	26.11	0.18	0.750			
0.2622	16781.86	3.9430	3.9430	0.8714	26.11	0.18	0.750			
0.2648	16947.16	3.9400	3.9400	0.8722	26.11	0.18	0.750			
0.2674	17115.65	3.9370	3.9370	0.8788	26.11	0.18	0.750			
0.2701	17285.81	3.9340	3.9340	0.8788	26.11	0.18	0.750			
0.2727	17453.92	3.9310	3.9310	0.8803	26.10	0.17	0.750			
0.2754	17624.16	3.9280	3.9281	0.8848	26.10	0.17	0.750			
0.2780	17792.56	3.9250	3.9248	0.8827	26.10	0.17	0.750			
0.2807	17962.92	3.9220	3.9220	0.8837	26.09	0.16	0.750			
0.2833	18132.16	3.9190	3.9190	0.8837	26.09	0.16	0.750			
0.2860	18302.23	3.9160	3.9161	0.8882	26.08	0.15	0.750			
0.2887	18473.73	3.9130	3.9130	0.8923	26.08	0.15	0.750			
0.2913	18644.08	3.9100	3.9100	0.8920	26.07	0.14	0.750			
0.2940	18817.07	3.9070	3.9070	0.8903	26.06	0.13	0.750			
0.2967	18987.10	3.9040	3.9040	0.8961	26.06	0.13	0.750			
0.2994	19158.98	3.9010	3.9011	0.9014	26.06	0.13	0.750			
0.3021	19332.05	3.8980	3.8979	0.9072	26.05	0.12	0.750			
0.3048	19506.51	3.8950	3.8950	0.9123	26.05	0.12	0.750			
0.3075	19681.99	3.8920	3.8920	0.9193	26.05	0.12	0.750			
0.3103	19861.30	3.8890	3.8891	0.9208	26.04	0.11	0.750			
0.3131	20040.78	3.8860	3.8859	0.9238	26.04	0.11	0.750			
0.3159	20216.19	3.8830	3.8829	0.9155	26.04	0.11	0.750			
0.3186	20391.78	3.8800	3.8801	0.9127	26.03	0.10	0.750			
0.3213	20566.21	3.8770	3.8770	0.9114	26.02	0.09	0.750			
0.3241	20741.16	3.8740	3.8740	0.9114	26.01	0.08	0.750			
0.3268	20914.46	3.8710	3.8710	0.9068	26.00	0.07	0.750			
0.3295	21090.41	3.8680	3.8681	0.9160	26.00	0.07	0.750			
0.3323	21266.35	3.8650	3.8650	0.9167	25.99	0.06	0.750			
0.3350	21442.62	3.8620	3.8620	0.9197	25.98	0.05	0.750			
0.3378	21618.55	3.8590	3.8590	0.9213	25.98	0.05	0.750			
0.3406	21795.43	3.8560	3.8559	0.9260	25.97	0.04	0.750			
0.3434	21975.69	3.8530	3.8530	0.9223	25.96	0.03	0.750			
0.3461	22151.44	3.8500	3.8500	0.9315	25.96	0.03	0.750			
0.3489	22330.37	3.8470	3.8471	0.9366	25.95	0.02	0.750			
0.3517	22510.77	3.8440	3.8441	0.9408	25.94	0.01	0.750			
0.3546	22693.09	3.8410	3.8411	0.9474	25.94	0.01	0.750			
0.3574	22874.62	3.8380	3.8381	0.9493	25.93	-0.00	0.750			
0.3603	23056.79	3.8350	3.8352	0.9563	25.92	-0.01	0.750			
0.3632	23241.72	3.8320	3.8320	0.9615	25.92	-0.01	0.750			
0.3660	23425.19	3.8290	3.8288	0.9613	25.91	-0.02	0.750			
0.3689	23610.69	3.8260	3.8261	0.9679	25.90	-0.03	0.750			
0.3718	23796.56	3.8230	3.8230	0.9776	25.90	-0.03	0.750			
0.3748	23987.00	3.8200	3.8200	0.9885	25.89	-0.04	0.750			
0.3777	24174.82	3.8170	3.8169	0.9940	25.88	-0.05	0.750			
0.3807	24366.72	3.8140	3.8140	1.0066	25.87	-0.06	0.750			
0.3838	24561.97	3.8110	3.8111	1.0229	25.87	-0.06	0.750			
0.3869	24760.85	3.8080	3.8079	1.0346	25.86	-0.07	0.750			
0.3900	24960.48	3.8050	3.8049	1.0468	25.85	-0.08	0.750			
0.3932	25161.82	3.8020	3.8021	1.0540	25.84	-0.09	0.750			
0.3963	25362.88	3.7990	3.7991	1.0790	25.83	-0.10	0.750			
0.3996	25571.52	3.7960	3.7960	1.0947	25.82	-0.11	0.750			
0.4029	25788.08	3.7930	3.7928	1.1016	25.81	-0.12	0.750			
0.4063	26000.18	3.7900	3.7901	1.1136	25.81	-0.12	0.750			
0.4096	26216.26	3.7870	3.7872	1.1242	25.80	-0.13	0.750			
0.4130	26430.85	3.7840	3.7840	1.1409	25.79	-0.14	0.750			
0.4164	26646.79	3.7810	3.7809	1.1574	25.79	-0.14	0.750			
0.4198	26868.26	3.7780	3.7781	1.1863	25.78	-0.15	0.750			
0.4235	27102.05	3.7750	3.7749	1.2245	25.77	-0.16	0.750			
0.4273	27347.25	3.7720	3.7720	1.2357	25.75	-0.18	0.750	0.328	0.478	
0.4310	27585.11	3.7690	3.7692	1.2619	25.74	-0.19	0.750			
0.4348	27827.51	3.7660	3.7661	1.2908	25.73	-0.20	0.750			
0.4387	28075.55	3.7630	3.7631	1.3034	25.72	-0.21	0.750			
0.4426	28325.32	3.7600	3.7601	1.3324	25.72	-0.21	0.750			
0.4467	28585.65	3.7570	3.7571	1.3711	25.71	-0.22	0.750			
0.4509	28856.69	3.7540	3.7541	1.4000	25.70	-0.23	0.750			
0.4552	29130.51	3.7510	3.7510	1.4331	25.69	-0.24	0.750			
0.4594	29403.75	3.7480	3.7481	1.4622	25.68	-0.25	0.750			
0.4638	29685.57	3.7450	3.7450	1.5133	25.67	-0.26	0.750			
0.4686	29990.49	3.7420	3.7420	1.5326	25.66	-0.27	0.750			
0.4732	30284.85	3.7390	3.7388	1.5731	25.65	-0.28	0.750			
0.4780	30591.68	3.7360	3.7359	1.6139	25.64	-0.29	0.750			
0.4829	30905.95	3.7330	3.7333	1.6593	25.63	-0.30	0.750			
0.4879	31223.71	3.7300	3.7303	1.6896	25.62	-0.31	0.750			
0.4929	31547.50	3.7270	3.7271	1.7365	25.62	-0.31	0.750			
0.4983	31889.14	3.7240	3.7239	1.7708	25.61	-0.32	0.750			
0.5038	32243.25	3.7210	3.7212	1.8483	25.60	-0.33	0.750			
0.5093	32595.72	3.7180	3.7179	1.8815	25.59	-0.34	0.750			
0.5149	32954.43	3.7150	3.7150	1.9485	25.57	-0.36	0.750			
0.5209	33335.45	3.7120	3.7120	2.0175	25.56	-0.37	0.750			
0.5271	33731.53	3.7090	3.7089	2.0897	25.54	-0.39	0.750			
0.5334	34138.99	3.7060	3.7061	2.1519	25.54	-0.39	0.750			
0.5401	34568.40	3.7030	3.7030	2.2296	25.54	-0.39	0.750			
0.5468	34997.89	3.7000	3.7001	2.2820	25.53	-0.40	0.750			
0.5537	35437.65	3.6970	3.6970	2.3560	25.52	-0.41	0.750			
0.5608	35894.24	3.6940	3.6940	2.4267	25.51	-0.42	0.750			
0.5683	36368.55	3.6910	3.6910	2.5094	25.50	-0.43	0.750			
0.5759	36858.98	3.6880	3.6880	2.6270	25.48	-0.45	0.750			
0.5840	37376.67	3.6850	3.6850	2.7046	25.48	-0.45	0.750			
0.5923	37906.00	3.6820	3.6820	2.7685	25.48	-0.45	0.750			
0.6009	38455.58	3.6790	3.6790	2.7750	25.48	-0.45	0.750			
0.6095	39006.56	3.6760	3.6758	2.6384	25.48	-0.45	0.750			
0.6171	39493.48	3.6730	3.6731	2.4257	25.48	-0.45	0.750			
0.6240	39933.69	3.6700	3.6700	2.1722	25.49	-0.44	0.750			
0.6300	40321.10	3.6670	3.6670	1.9757	25.50	-0.43	0.750			
0.6353	40659.97	3.6640	3.6641	1.7845	25.51	-0.42	0.750			
0.6403	40977.26	3.6610	3.6610	1.6454	25.52	-0.41	0.750			
0.6450	41283.02	3.6580	3.6581	1.5540	25.52	-0.41	0.750			
0.6496	41571.79	3.6550	3.6551	1.4681	25.52	-0.41	0.750			
0.6539	41846.51	3.6520	3.6520	1.3861	25.52	-0.41	0.750			
0.6578	42098.39	3.6490	3.6491	1.3105	25.53	-0.40	0.750			
0.6615	42335.34	3.6460	3.6460	1.2423	25.55	-0.38	0.750			
0.6651	42568.38	3.6430	3.6428	1.1985	25.56	-0.37	0.750			
0.6686	42788.36	3.6400	3.6401	1.1661	25.56	-0.37	0.750			
0.6720	43006.52	3.6370	3.6370	1.1578	25.57	-0.36	0.750			
0.6754	43226.05	3.6340	3.6341	1.1631	25.58	-0.35	0.750			
0.6789	43450.97	3.6310	3.6309	1.1561	25.58	-0.35	0.750			
0.6824	43673.83	3.6280	3.6281	1.1721	25.59	-0.34	0.750			
0.6860	43902.29	3.6250	3.6251	1.1799	25.59	-0.34	0.750			
0.6896	44132.97	3.6220	3.6219	1.1758	25.60	-0.33	0.750			
0.6931	44358.50	3.6190	3.6191	1.1538	25.60	-0.33	0.750			
0.6966	44579.47	3.6160	3.6162	1.1389	25.60	-0.33	0.750			
0.6999	44796.79	3.6130	3.6130	1.1234	25.60	-0.33	0.750			
0.7033	45013.75	3.6100	3.6096	1.1061	25.60	-0.33	0.750			
0.7065	45216.07	3.6070	3.6072	1.0968	25.61	-0.32	0.750			
0.7097	45421.87	3.6040	3.6041	1.1140	25.61	-0.32	0.750			
0.7131	45636.26	3.6010	3.6010	1.1369	25.62	-0.31	0.750			
0.7165	45853.75	3.5980	3.5980	1.1478	25.62	-0.31	0.750			
0.7200	46076.87	3.5950	3.5953	1.1941	25.62	-0.31	0.750			
0.7236	46309.88	3.5920	3.5920	1.2400	25.62	-0.31	0.750			
0.7274	46554.06	3.5890	3.5888	1.2786	25.62	-0.31	0.750			
0.7313	46803.44	3.5860	3.5860	1.3111	25.62	-0.31	0.750			
0.7353	47058.73	3.5830	3.5831	1.3638	25.63	-0.30	0.750			
0.7395	47329.20	3.5800	3.5800	1.4155	25.64	-0.29	0.750			
0.7438	47600.20	3.5770	3.5772	1.4615	25.64	-0.29	0.750			
0.7483	47890.69	3.5740	3.5737	1.4973	25.64	-0.29	0.750			
0.7528	48180.96	3.5710	3.5708	1.5433	25.64	-0.29	0.750			
0.7576	48483.89	3.5680	3.5679	1.5753	25.65	-0.28	0.750			
0.7625	48797.59	3.5650	3.5652	1.5885	25.65	-0.28	0.750			
0.7673	49106.51	3.5620	3.5618	1.5931	25.66	-0.27	0.750			
0.7720	49405.93	3.5590	3.5593	1.6094	25.66	-0.27	0.750			
0.7768	49714.57	3.5560	3.5559	1.6086	25.66	-0.27	0.750			
0.7817	50025.81	3.5530	3.5531	1.6575	25.67	-0.26	0.750			
0.7866	50341.81	3.5500	3.5500	1.6694	25.67	-0.26	0.750			
0.7918	50672.09	3.5470	3.5471	1.7086	25.68	-0.25	0.750			
0.7970	51008.71	3.5440	3.5443	1.7526	25.69	-0.24	0.750			
0.8024	51355.41	3.5410	3.5408	1.7358	25.70	-0.23	0.750			
0.8081	51717.52	3.5380	3.5378	1.5973	25.72	-0.21	0.750			
0.8132	52042.71	3.5350	3.5353	1.4374	25.74	-0.19	0.750			
0.8174	52311.47	3.5320	3.5325	1.2088	25.76	-0.17	0.750			
0.8206	52517.41	3.5290	3.5289	0.9367	25.78	-0.15	0.750			
0.8226	52643.59	3.5260	3.5257	0.7089	25.79	-0.14	0.750			
0.8239	52730.20	3.5230	3.5227	0.5165	25.80	-0.13	0.750			
0.8250	52802.74	3.5200	3.5198	0.4147	25.80	-0.13	0.750			
0.8261	52871.71	3.5170	3.5169	0.3678	25.81	-0.12	0.750			
0.8271	52934.57	3.5140	3.5140	0.3376	25.81	-0.12	0.750			
0.8281	52995.65	3.5110	3.5109	0.3210	25.82	-0.11	0.750			
0.8290	53054.86	3.5080	3.5079	0.3069	25.83	-0.10	0.750			
0.8299	53111.76	3.5050	3.5050	0.2961	25.84	-0.09	0.750			
0.8307	53167.54	3.5020	3.5021	0.2877	25.84	-0.09	0.750			
0.8316	53222.38	3.4990	3.4990	0.2810	25.85	-0.08	0.750			
0.8324	53275.46	3.4960	3.4960	0.2731	25.86	-0.07	0.750			
0.8332	53326.20	3.4930	3.4930	0.2666	25.86	-0.07	0.750			
0.8340	53376.90	3.4900	3.4900	0.2604	25.87	-0.06	0.750			
0.8348	53426.44	3.4870	3.4870	0.2562	25.88	-0.05	0.750			
0.8355	53475.04	3.4840	3.4841	0.2510	25.89	-0.04	0.750			
0.8363	53522.70	3.4810	3.4810	0.2463	25.89	-0.04	0.750			
0.8370	53569.86	3.4780	3.4779	0.2406	25.90	-0.03	0.750			
0.8377	53615.68	3.4750	3.4750	0.2349	25.90	-0.03	0.750			
0.8384	53659.83	3.4720	3.4721	0.2292	25.91	-0.02	0.750			
0.8391	53703.24	3.4690	3.4690	0.2245	25.92	-0.01	0.750			
0.8398	53746.13	3.4660	3.4660	0.2198	25.92	-0.01	0.750			
0.8404	53787.27	3.4630	3.4629	0.2144	25.93	-0.00	0.750			
0.8411	53828.21	3.4600	3.4600	0.2096	25.93	0.00	0.750			
0.8417	53868.00	3.4570	3.4570	0.2052	25.94	0.01	0.750			
0.8423	53907.29	3.4540	3.4540	0.2009	25.94	0.01	0.750			
0.8429	53945.33	3.4510	3.4511	0.1968	25.95	0.02	0.750			
0.8435	53982.59	3.4480	3.4479	0.1914	25.95	0.02	0.750			
0.8440	54019.14	3.4450	3.4450	0.1864	25.96	0.03	0.750			
0.8446	54054.43	3.4420	3.4420	0.1812	25.96	0.03	0.750			
0.8451	54088.92	3.4390	3.4391	0.1759	25.97	0.04	0.750			
0.8457	54122.20	3.4360	3.4360	0.1714	25.97	0.04	0.750			
0.8462	54154.42	3.4330	3.4330	0.1655	25.98	0.05	0.750			
0.8467	54185.70	3.4300	3.4299	0.1604	25.98	0.05	0.750			
0.8471	54215.81	3.4270	3.4270	0.1550	25.99	0.06	0.750			
0.8476	54245.34	3.4240	3.4241	0.1501	25.99	0.06	0.750			
0.8480	54273.95	3.4210	3.4209	0.1447	25.99	0.06	0.750			
0.8485	54301.14	3.4180	3.4180	0.1386	26.00	0.07	0.750			
0.8489	54327.12	3.4150	3.4150	0.1330	26.00	0.07	0.750			
0.8492	54351.89	3.4120	3.4120	0.1269	26.00	0.07	0.750			
0.8496	54376.13	3.4090	3.4090	0.1209	26.01	0.08	0.750			
0.8500	54398.72	3.4060	3.4059	0.1144	26.01	0.08	0.750			
0.8503	54421.75	3.4030	3.4029	0.1056	26.01	0.08	0.750			
0.8506	54441.51	3.4000	3.3999	0.0979	26.02	0.09	0.750			
0.8509	54459.32	3.3970	3.3971	0.0877	26.02	0.09	0.750			
0.8512	54476.27	3.3940	3.3942	0.0791	26.02	0.09	0.750			
0.8514	54490.37	3.3910	3.3913	0.0678	26.02	0.09	0.750			
0.8516	54502.96	3.3880	3.3887	0.0565	26.03	0.10	0.750			
0.8518	54512.64	3.3850	3.3857	0.0444	26.03	0.10	0.750			
0.8519	54520.00	3.3820	3.3833	0.0323	26.03	0.10	0.750			
0.8520	54525.04	3.3790	3.3813	0.0202	26.03	0.10	0.750			
