Ah_balance (normalized)	Ah_balance (mAh)	Voltage - fit (V)	Voltage -  interpolate (V)	dQ/dV (1/V)	Temperature (°C)	Temperature - diff (°C)	Current (C)	R_DC 0ms (mOhm)	R_DC 50ms (mOhm)	R_DC 50 ms PEC (mOhm)
0.0002	13.14	4.1660	4.1660	-0.1182	25.67	0.01	-0.750			
0.0006	40.90	4.1630	4.1630	-0.1668	25.67	0.01	-0.750			
0.0012	77.25	4.1600	4.1600	-0.2111	25.66	0.00	-0.750			
0.0019	122.87	4.1570	4.1569	-0.2535	25.66	0.00	-0.750			
0.0027	175.60	4.1540	4.1539	-0.2949	25.66	-0.00	-0.750			
0.0037	236.52	4.1510	4.1510	-0.3371	25.66	-0.00	-0.750			
0.0048	305.21	4.1480	4.1481	-0.3776	25.65	-0.01	-0.750			
0.0060	382.55	4.1450	4.1449	-0.4114	25.65	-0.01	-0.750			
0.0073	465.30	4.1420	4.1420	-0.4485	25.64	-0.02	-0.750			
0.0087	555.18	4.1390	4.1391	-0.4840	25.64	-0.02	-0.750			
0.0102	652.05	4.1360	4.1360	-0.5157	25.64	-0.02	-0.750			
0.0118	755.59	4.1330	4.1328	-0.5413	25.63	-0.03	-0.750			
0.0135	862.42	4.1300	4.1300	-0.5646	25.62	-0.04	-0.750			
0.0152	974.43	4.1270	4.1271	-0.5851	25.62	-0.04	-0.750			
0.0170	1089.41	4.1240	4.1240	-0.6035	25.62	-0.04	-0.750			
0.0189	1206.66	4.1210	4.1210	-0.6146	25.61	-0.05	-0.750			
0.0207	1325.39	4.1180	4.1180	-0.6323	25.61	-0.05	-0.750			
0.0226	1449.47	4.1150	4.1150	-0.6405	25.61	-0.05	-0.750			
0.0246	1573.89	4.1120	4.1120	-0.6495	25.60	-0.06	-0.750			
0.0265	1698.89	4.1090	4.1091	-0.6633	25.60	-0.06	-0.750			
0.0286	1827.28	4.1060	4.1059	-0.6748	25.60	-0.06	-0.750			
0.0306	1957.38	4.1030	4.1029	-0.6823	25.60	-0.06	-0.750			
0.0327	2090.21	4.1000	4.1001	-0.6929	25.60	-0.06	-0.750			
0.0348	2224.03	4.0970	4.0971	-0.7000	25.59	-0.07	-0.750			
0.0369	2362.42	4.0940	4.0938	-0.7062	25.59	-0.07	-0.750			
0.0390	2498.17	4.0910	4.0909	-0.7076	25.59	-0.07	-0.750			
0.0411	2632.74	4.0880	4.0880	-0.7113	25.59	-0.07	-0.750			
0.0433	2769.78	4.0850	4.0850	-0.7166	25.59	-0.07	-0.750			
0.0454	2907.96	4.0820	4.0818	-0.7225	25.59	-0.07	-0.750			
0.0476	3045.74	4.0790	4.0790	-0.7247	25.58	-0.08	-0.750			
0.0498	3186.76	4.0760	4.0760	-0.7303	25.58	-0.08	-0.750			
0.0520	3328.03	4.0730	4.0731	-0.7331	25.58	-0.08	-0.750			
0.0542	3468.91	4.0700	4.0700	-0.7357	25.58	-0.08	-0.750			
0.0564	3609.68	4.0670	4.0669	-0.7383	25.58	-0.08	-0.750			
0.0586	3752.77	4.0640	4.0640	-0.7410	25.58	-0.08	-0.750			
0.0609	3895.15	4.0610	4.0610	-0.7425	25.58	-0.08	-0.750			
0.0631	4038.74	4.0580	4.0580	-0.7479	25.58	-0.08	-0.750			
0.0654	4182.73	4.0550	4.0551	-0.7489	25.58	-0.08	-0.750			
0.0676	4325.89	4.0520	4.0519	-0.7525	25.58	-0.08	-0.750			
0.0698	4470.31	4.0490	4.0490	-0.7540	25.59	-0.07	-0.750			
0.0721	4615.11	4.0460	4.0461	-0.7564	25.59	-0.07	-0.750			
0.0744	4763.50	4.0430	4.0429	-0.7631	25.60	-0.06	-0.750			
0.0767	4909.01	4.0400	4.0400	-0.7576	25.60	-0.06	-0.750			
0.0789	5052.73	4.0370	4.0370	-0.7591	25.60	-0.06	-0.750			
0.0812	5198.28	4.0340	4.0340	-0.7642	25.60	-0.06	-0.750			
0.0835	5343.58	4.0310	4.0310	-0.7680	25.60	-0.06	-0.750			
0.0858	5492.99	4.0280	4.0279	-0.7685	25.60	-0.06	-0.750			
0.0882	5642.90	4.0250	4.0250	-0.7703	25.60	-0.06	-0.750			
0.0905	5790.90	4.0220	4.0222	-0.7734	25.60	-0.06	-0.750			
0.0928	5940.14	4.0190	4.0190	-0.7723	25.60	-0.06	-0.750			
0.0951	6086.85	4.0160	4.0159	-0.7731	25.61	-0.05	-0.750			
0.0974	6234.75	4.0130	4.0130	-0.7727	25.61	-0.05	-0.750			
0.0997	6383.13	4.0100	4.0100	-0.7770	25.62	-0.04	-0.750			
0.1021	6533.71	4.0070	4.0070	-0.7800	25.62	-0.04	-0.750			
0.1044	6684.66	4.0040	4.0039	-0.7799	25.62	-0.04	-0.750			
0.1068	6833.20	4.0010	4.0010	-0.7788	25.62	-0.04	-0.750			
0.1091	6983.71	3.9980	3.9980	-0.7749	25.63	-0.03	-0.750			
0.1114	7130.71	3.9950	3.9951	-0.7740	25.63	-0.03	-0.750			
0.1138	7281.35	3.9920	3.9919	-0.7703	25.63	-0.03	-0.750			
0.1160	7426.97	3.9890	3.9889	-0.7716	25.63	-0.03	-0.750			
0.1183	7570.98	3.9860	3.9861	-0.7916	25.63	-0.03	-0.750			
0.1207	7726.07	3.9830	3.9830	-0.7998	25.63	-0.03	-0.750			
0.1232	7881.82	3.9800	3.9797	-0.8089	25.64	-0.02	-0.750			
0.1256	8040.65	3.9770	3.9770	-0.8155	25.64	-0.02	-0.750			
0.1281	8199.68	3.9740	3.9742	-0.8171	25.64	-0.02	-0.750			
0.1306	8357.68	3.9710	3.9709	-0.8186	25.65	-0.01	-0.750			
0.1330	8512.17	3.9680	3.9680	-0.8074	25.65	-0.01	-0.750			
0.1354	8663.17	3.9650	3.9651	-0.8019	25.65	-0.01	-0.750			
0.1378	8820.43	3.9620	3.9620	-0.8140	25.66	-0.00	-0.750			
0.1403	8977.57	3.9590	3.9590	-0.8126	25.66	0.00	-0.750			
0.1427	9133.40	3.9560	3.9560	-0.8133	25.66	0.00	-0.750			
0.1452	9290.26	3.9530	3.9530	-0.8196	25.67	0.01	-0.750			
0.1476	9447.84	3.9500	3.9500	-0.8172	25.67	0.01	-0.750			
0.1501	9605.23	3.9470	3.9469	-0.8194	25.68	0.02	-0.750			
0.1525	9761.84	3.9440	3.9442	-0.8198	25.68	0.02	-0.750			
0.1550	9919.24	3.9410	3.9409	-0.8213	25.68	0.02	-0.750			
0.1575	10077.61	3.9380	3.9380	-0.8235	25.68	0.02	-0.750			
0.1599	10234.38	3.9350	3.9350	-0.8227	25.68	0.02	-0.750			
0.1624	10392.96	3.9320	3.9320	-0.8299	25.68	0.02	-0.750			
0.1649	10552.72	3.9290	3.9289	-0.8338	25.68	0.02	-0.750			
0.1674	10712.82	3.9260	3.9260	-0.8312	25.68	0.02	-0.750			
0.1699	10872.72	3.9230	3.9229	-0.8344	25.69	0.03	-0.750			
0.1724	11033.53	3.9200	3.9201	-0.8380	25.69	0.03	-0.750			
0.1749	11195.05	3.9170	3.9169	-0.8380	25.70	0.04	-0.750			
0.1774	11354.83	3.9140	3.9141	-0.8424	25.70	0.04	-0.750			
0.1799	11516.58	3.9110	3.9110	-0.8452	25.70	0.04	-0.750			
0.1825	11679.73	3.9080	3.9080	-0.8501	25.71	0.05	-0.750			
0.1851	11844.88	3.9050	3.9049	-0.8521	25.71	0.05	-0.750			
0.1876	12009.51	3.9020	3.9021	-0.8534	25.72	0.06	-0.750			
0.1902	12173.14	3.8990	3.8992	-0.8493	25.72	0.06	-0.750			
0.1928	12336.47	3.8960	3.8960	-0.8478	25.72	0.06	-0.750			
0.1953	12497.43	3.8930	3.8930	-0.8481	25.73	0.07	-0.750			
0.1978	12658.63	3.8900	3.8899	-0.8514	25.73	0.07	-0.750			
0.2004	12823.96	3.8870	3.8869	-0.8617	25.74	0.08	-0.750			
0.2030	12989.52	3.8840	3.8841	-0.8607	25.74	0.08	-0.750			
0.2056	13156.14	3.8810	3.8810	-0.8671	25.74	0.08	-0.750			
0.2082	13324.24	3.8780	3.8780	-0.8633	25.74	0.08	-0.750			
0.2108	13488.99	3.8750	3.8750	-0.8598	25.75	0.09	-0.750			
0.2134	13654.53	3.8720	3.8720	-0.8611	25.75	0.09	-0.750			
0.2159	13818.09	3.8690	3.8690	-0.8573	25.75	0.09	-0.750			
0.2185	13980.85	3.8660	3.8660	-0.8621	25.76	0.10	-0.750			
0.2211	14147.21	3.8630	3.8630	-0.8671	25.76	0.10	-0.750			
0.2237	14314.98	3.8600	3.8599	-0.8685	25.76	0.10	-0.750			
0.2263	14484.21	3.8570	3.8569	-0.8731	25.77	0.11	-0.750			
0.2289	14651.70	3.8540	3.8540	-0.8743	25.77	0.11	-0.750			
0.2316	14819.55	3.8510	3.8510	-0.8770	25.78	0.12	-0.750			
0.2342	14988.12	3.8480	3.8479	-0.8747	25.78	0.12	-0.750			
0.2368	15155.75	3.8450	3.8450	-0.8704	25.79	0.13	-0.750			
0.2394	15324.65	3.8420	3.8420	-0.8693	25.79	0.13	-0.750			
0.2420	15489.77	3.8390	3.8390	-0.8703	25.79	0.13	-0.750			
0.2446	15656.55	3.8360	3.8360	-0.8682	25.80	0.14	-0.750			
0.2472	15821.99	3.8330	3.8329	-0.8692	25.80	0.14	-0.750			
0.2498	15988.34	3.8300	3.8300	-0.8736	25.81	0.15	-0.750			
0.2525	16158.39	3.8270	3.8272	-0.8796	25.81	0.15	-0.750			
0.2551	16327.31	3.8240	3.8240	-0.8855	25.81	0.15	-0.750			
0.2578	16499.54	3.8210	3.8209	-0.8856	25.81	0.15	-0.750			
0.2605	16668.94	3.8180	3.8180	-0.8813	25.81	0.15	-0.750			
0.2631	16839.01	3.8150	3.8150	-0.8800	25.81	0.15	-0.750			
0.2657	17006.37	3.8120	3.8120	-0.8771	25.81	0.15	-0.750			
0.2684	17174.54	3.8090	3.8091	-0.8737	25.81	0.15	-0.750			
0.2710	17342.73	3.8060	3.8059	-0.8705	25.81	0.15	-0.750			
0.2736	17509.23	3.8030	3.8030	-0.8673	25.82	0.16	-0.750			
0.2762	17676.56	3.8000	3.8000	-0.8727	25.82	0.16	-0.750			
0.2788	17842.64	3.7970	3.7970	-0.8731	25.82	0.16	-0.750			
0.2814	18010.61	3.7940	3.7939	-0.8750	25.83	0.17	-0.750			
0.2840	18177.98	3.7910	3.7911	-0.8732	25.84	0.18	-0.750			
0.2867	18347.05	3.7880	3.7880	-0.8742	25.84	0.18	-0.750			
0.2893	18516.40	3.7850	3.7851	-0.8741	25.85	0.19	-0.750			
0.2919	18682.78	3.7820	3.7820	-0.8702	25.85	0.19	-0.750			
0.2945	18848.62	3.7790	3.7790	-0.8677	25.86	0.20	-0.750			
0.2971	19015.00	3.7760	3.7760	-0.8661	25.86	0.20	-0.750			
0.2997	19180.84	3.7730	3.7729	-0.8690	25.87	0.21	-0.750			
0.3023	19349.46	3.7700	3.7702	-0.8686	25.87	0.21	-0.750			
0.3049	19516.13	3.7670	3.7670	-0.8686	25.87	0.21	-0.750			
0.3076	19683.78	3.7640	3.7639	-0.8699	25.88	0.22	-0.750			
0.3102	19851.91	3.7610	3.7609	-0.8637	25.88	0.22	-0.750			
0.3128	20016.14	3.7580	3.7579	-0.8590	25.89	0.23	-0.750			
0.3153	20179.05	3.7550	3.7552	-0.8605	25.89	0.23	-0.750			
0.3179	20344.13	3.7520	3.7520	-0.8559	25.89	0.23	-0.750			
0.3205	20509.80	3.7490	3.7489	-0.8620	25.90	0.24	-0.750			
0.3230	20674.00	3.7460	3.7459	-0.8611	25.90	0.24	-0.750			
0.3256	20841.14	3.7430	3.7431	-0.8711	25.91	0.25	-0.750			
0.3283	21008.72	3.7400	3.7401	-0.8737	25.91	0.25	-0.750			
0.3309	21176.14	3.7370	3.7369	-0.8780	25.91	0.25	-0.750			
0.3335	21345.45	3.7340	3.7340	-0.8798	25.91	0.25	-0.750			
0.3361	21513.23	3.7310	3.7310	-0.8823	25.91	0.25	-0.750			
0.3388	21684.67	3.7280	3.7280	-0.8936	25.91	0.25	-0.750			
0.3415	21856.92	3.7250	3.7250	-0.9001	25.91	0.25	-0.750			
0.3442	22029.32	3.7220	3.7219	-0.9086	25.92	0.26	-0.750			
0.3469	22203.90	3.7190	3.7190	-0.9216	25.92	0.26	-0.750			
0.3497	22381.14	3.7160	3.7160	-0.9375	25.93	0.27	-0.750			
0.3526	22563.61	3.7130	3.7130	-0.9585	25.93	0.27	-0.750			
0.3555	22749.13	3.7100	3.7100	-0.9758	25.93	0.27	-0.750			
0.3584	22938.78	3.7070	3.7070	-0.9939	25.93	0.27	-0.750			
0.3615	23132.94	3.7040	3.7040	-1.0066	25.93	0.27	-0.750			
0.3645	23327.88	3.7010	3.7011	-1.0229	25.93	0.27	-0.750			
0.3676	23523.95	3.6980	3.6980	-1.0402	25.93	0.27	-0.750			
0.3707	23724.43	3.6950	3.6949	-1.0532	25.93	0.27	-0.750			
0.3739	23927.67	3.6920	3.6920	-1.0730	25.92	0.26	-0.750			
0.3771	24134.71	3.6890	3.6889	-1.0953	25.92	0.26	-0.750			
0.3805	24349.45	3.6860	3.6860	-1.1219	25.92	0.26	-0.750			
0.3839	24567.41	3.6830	3.6830	-1.1449	25.91	0.25	-0.750			
0.3873	24788.57	3.6800	3.6800	-1.1622	25.91	0.25	-0.750			
0.3908	25013.39	3.6770	3.6771	-1.1908	25.91	0.25	-0.750			
0.3945	25244.98	3.6740	3.6739	-1.2196	25.90	0.24	-0.750			
0.3981	25480.93	3.6710	3.6710	-1.2393	25.90	0.24	-0.750			
0.4019	25719.60	3.6680	3.6680	-1.2671	25.89	0.23	-0.750			
0.4057	25967.91	3.6650	3.6650	-1.3027	25.89	0.23	-0.750			
0.4097	26219.69	3.6620	3.6619	-1.3318	25.89	0.23	-0.750			
0.4137	26478.00	3.6590	3.6591	-1.3672	25.89	0.23	-0.750			
0.4179	26742.67	3.6560	3.6559	-1.3973	25.89	0.23	-0.750			
0.4221	27016.21	3.6530	3.6530	-1.4309	25.88	0.22	-0.750			
0.4265	27295.52	3.6500	3.6500	-1.4680	25.87	0.21	-0.750			
0.4309	27579.11	3.6470	3.6469	-1.4972	25.86	0.20	-0.750			
0.4355	27870.48	3.6440	3.6440	-1.5385	25.86	0.20	-0.750			
0.4402	28171.18	3.6410	3.6411	-1.5680	25.85	0.19	-0.750			
0.4449	28470.48	3.6380	3.6381	-1.6232	25.84	0.18	-0.750			
0.4498	28789.82	3.6350	3.6350	-1.6656	25.83	0.17	-0.750			
0.4549	29115.28	3.6320	3.6319	-1.6927	25.82	0.16	-0.750			
0.4602	29449.65	3.6290	3.6290	-1.7178	25.81	0.15	-0.750			
0.4653	29779.38	3.6260	3.6260	-1.7364	25.81	0.15	-0.750	0.411	0.502	
0.4706	30115.40	3.6230	3.6228	-1.7644	25.80	0.14	-0.750			
0.4758	30450.51	3.6200	3.6200	-1.7922	25.78	0.12	-0.750			
0.4811	30788.65	3.6170	3.6169	-1.8290	25.78	0.12	-0.750			
0.4867	31149.46	3.6140	3.6138	-1.8700	25.77	0.11	-0.750			
0.4924	31511.05	3.6110	3.6111	-1.9005	25.77	0.11	-0.750			
0.4983	31888.02	3.6080	3.6082	-1.9265	25.76	0.10	-0.750			
0.5041	32262.69	3.6050	3.6050	-1.9513	25.75	0.09	-0.750			
0.5099	32632.31	3.6020	3.6021	-2.0014	25.73	0.07	-0.750			
0.5159	33020.80	3.5990	3.5990	-2.0569	25.72	0.06	-0.750			
0.5223	33425.36	3.5960	3.5959	-2.0905	25.72	0.06	-0.750			
0.5286	33833.57	3.5930	3.5930	-2.1332	25.72	0.06	-0.750			
0.5351	34248.91	3.5900	3.5901	-2.1770	25.71	0.05	-0.750			
0.5418	34673.11	3.5870	3.5869	-2.2274	25.71	0.05	-0.750			
0.5485	35102.35	3.5840	3.5840	-2.2318	25.70	0.04	-0.750			
0.5553	35536.38	3.5810	3.5810	-2.2636	25.69	0.03	-0.750			
0.5621	35976.46	3.5780	3.5782	-2.2852	25.69	0.03	-0.750			
0.5691	36420.97	3.5750	3.5750	-2.3217	25.69	0.03	-0.750			
0.5760	36862.33	3.5720	3.5720	-2.3311	25.68	0.02	-0.750			
0.5830	37309.56	3.5690	3.5689	-2.3486	25.68	0.02	-0.750			
0.5901	37765.37	3.5660	3.5661	-2.3712	25.68	0.02	-0.750			
0.5973	38225.52	3.5630	3.5629	-2.3799	25.68	0.02	-0.750			
0.6045	38688.22	3.5600	3.5599	-2.3934	25.68	0.02	-0.750			
0.6117	39147.17	3.5570	3.5569	-2.3696	25.67	0.01	-0.750			
0.6187	39599.71	3.5540	3.5540	-2.3659	25.67	0.01	-0.750			
0.6258	40053.50	3.5510	3.5510	-2.3515	25.68	0.02	-0.750			
0.6329	40503.98	3.5480	3.5480	-2.3279	25.68	0.02	-0.750			
0.6399	40951.10	3.5450	3.5450	-2.3164	25.68	0.02	-0.750			
0.6468	41397.50	3.5420	3.5420	-2.2973	25.69	0.03	-0.750			
0.6537	41835.70	3.5390	3.5389	-2.2720	25.70	0.04	-0.750			
0.6605	42275.19	3.5360	3.5361	-2.2354	25.70	0.04	-0.750			
0.6672	42699.98	3.5330	3.5330	-2.1901	25.70	0.04	-0.750			
0.6738	43121.95	3.5300	3.5300	-2.1501	25.71	0.05	-0.750			
0.6801	43528.83	3.5270	3.5272	-2.0850	25.72	0.06	-0.750			
0.6864	43927.95	3.5240	3.5241	-2.0170	25.72	0.06	-0.750			
0.6923	44307.24	3.5210	3.5210	-1.9607	25.73	0.07	-0.750			
0.6980	44674.95	3.5180	3.5181	-1.9024	25.75	0.09	-0.750			
0.7038	45040.54	3.5150	3.5148	-1.8451	25.76	0.10	-0.750			
0.7091	45384.84	3.5120	3.5122	-1.7831	25.78	0.12	-0.750			
0.7144	45719.93	3.5090	3.5092	-1.7187	25.79	0.13	-0.750			
0.7195	46046.24	3.5060	3.5059	-1.6529	25.80	0.14	-0.750			
0.7244	46359.83	3.5030	3.5031	-1.5914	25.81	0.15	-0.750			
0.7289	46651.32	3.5000	3.5002	-1.5415	25.83	0.17	-0.750			
0.7335	46940.85	3.4970	3.4971	-1.4848	25.84	0.18	-0.750			
0.7378	47220.45	3.4940	3.4938	-1.4494	25.86	0.20	-0.750			
0.7421	47493.60	3.4910	3.4907	-1.3982	25.88	0.22	-0.750			
0.7462	47759.68	3.4880	3.4883	-1.3568	25.90	0.24	-0.750			
0.7503	48020.15	3.4850	3.4849	-1.3186	25.91	0.25	-0.750			
0.7541	48265.14	3.4820	3.4819	-1.2610	25.93	0.27	-0.750			
0.7578	48498.21	3.4790	3.4791	-1.2030	25.94	0.28	-0.750			
0.7614	48731.67	3.4760	3.4759	-1.1781	25.96	0.30	-0.750			
0.7649	48950.72	3.4730	3.4730	-1.1316	25.97	0.31	-0.750			
0.7682	49167.90	3.4700	3.4700	-1.1010	25.98	0.32	-0.750			
0.7715	49374.64	3.4670	3.4669	-1.0598	25.99	0.33	-0.750			
0.7746	49573.23	3.4640	3.4640	-1.0251	26.00	0.34	-0.750			
0.7776	49764.38	3.4610	3.4611	-0.9924	26.01	0.35	-0.750			
0.7805	49950.56	3.4580	3.4580	-0.9717	26.03	0.37	-0.750			
0.7834	50134.71	3.4550	3.4549	-0.9544	26.04	0.38	-0.750			
0.7861	50311.87	3.4520	3.4520	-0.9469	26.05	0.39	-0.750			
0.7889	50492.40	3.4490	3.4490	-0.9483	26.07	0.41	-0.750			
0.7918	50672.35	3.4460	3.4459	-0.9609	26.07	0.41	-0.750			
0.7946	50853.76	3.4430	3.4430	-0.9731	26.08	0.42	-0.750			
0.7975	51040.97	3.4400	3.4401	-1.0055	26.08	0.42	-0.750			
0.8005	51234.54	3.4370	3.4369	-1.0420	26.09	0.43	-0.750			
0.8038	51440.40	3.4340	3.4338	-1.0914	26.09	0.43	-0.750			
0.8071	51655.61	3.4310	3.4310	-1.1283	26.11	0.45	-0.750			
0.8107	51882.14	3.4280	3.4280	-1.1568	26.12	0.46	-0.750			
0.8142	52108.75	3.4250	3.4251	-1.1673	26.13	0.47	-0.750			
0.8178	52339.87	3.4220	3.4219	-1.1706	26.14	0.48	-0.750			
0.8213	52566.02	3.4190	3.4190	-1.1444	26.15	0.49	-0.750			
0.8247	52783.45	3.4160	3.4160	-1.1153	26.16	0.50	-0.750			
0.8280	52994.06	3.4130	3.4132	-1.0827	26.17	0.51	-0.750			
0.8313	53201.61	3.4100	3.4098	-1.0529	26.18	0.52	-0.750			
0.8344	53399.90	3.4070	3.4070	-1.0125	26.18	0.52	-0.750			
0.8373	53590.08	3.4040	3.4040	-0.9765	26.19	0.53	-0.750			
0.8403	53776.64	3.4010	3.4012	-0.9486	26.19	0.53	-0.750			
0.8430	53954.75	3.3980	3.3980	-0.9141	26.20	0.54	-0.750			
0.8457	54124.85	3.3950	3.3949	-0.8754	26.21	0.55	-0.750			
0.8483	54289.60	3.3920	3.3920	-0.8417	26.22	0.56	-0.750			
0.8508	54448.18	3.3890	3.3890	-0.8090	26.22	0.56	-0.750			
0.8531	54600.60	3.3860	3.3860	-0.7766	26.23	0.57	-0.750			
0.8554	54745.40	3.3830	3.3830	-0.7436	26.24	0.58	-0.750			
0.8576	54883.63	3.3800	3.3799	-0.7175	26.25	0.59	-0.750			
0.8597	55018.51	3.3770	3.3771	-0.6870	26.25	0.59	-0.750			
0.8617	55149.49	3.3740	3.3739	-0.6603	26.26	0.60	-0.750			
0.8637	55274.04	3.3710	3.3710	-0.6338	26.27	0.61	-0.750			
0.8655	55392.81	3.3680	3.3681	-0.6072	26.27	0.61	-0.750			
0.8673	55505.40	3.3650	3.3650	-0.5802	26.28	0.62	-0.750			
0.8690	55614.33	3.3620	3.3619	-0.5522	26.28	0.62	-0.750			
0.8706	55715.58	3.3590	3.3590	-0.5267	26.29	0.63	-0.750			
0.8721	55815.57	3.3560	3.3561	-0.5111	26.29	0.63	-0.750			
0.8736	55912.09	3.3530	3.3531	-0.4907	26.30	0.64	-0.750			
0.8751	56003.53	3.3500	3.3499	-0.4698	26.30	0.64	-0.750			
0.8764	56091.49	3.3470	3.3471	-0.4500	26.31	0.65	-0.750			
0.8778	56176.43	3.3440	3.3442	-0.4341	26.31	0.65	-0.750			
0.8790	56258.87	3.3410	3.3409	-0.4171	26.32	0.66	-0.750			
0.8803	56336.12	3.3380	3.3379	-0.3964	26.32	0.66	-0.750			
0.8814	56409.52	3.3350	3.3351	-0.3792	26.33	0.67	-0.750			
0.8825	56480.96	3.3320	3.3320	-0.3661	26.33	0.67	-0.750			
0.8836	56549.61	3.3290	3.3290	-0.3497	26.34	0.68	-0.750			
0.8846	56615.35	3.3260	3.3259	-0.3359	26.34	0.68	-0.750			
0.8856	56678.10	3.3230	3.3231	-0.3218	26.35	0.69	-0.750			
0.8865	56738.97	3.3200	3.3200	-0.3106	26.35	0.69	-0.750			
0.8874	56796.73	3.3170	3.3170	-0.2985	26.36	0.70	-0.750			
0.8883	56852.68	3.3140	3.3140	-0.2874	26.36	0.70	-0.750			
0.8892	56906.90	3.3110	3.3110	-0.2759	26.37	0.71	-0.750			
0.8900	56959.22	3.3080	3.3080	-0.2673	26.37	0.71	-0.750			
0.8908	57008.83	3.3050	3.3051	-0.2579	26.38	0.72	-0.750			
0.8915	57057.18	3.3020	3.3021	-0.2498	26.38	0.72	-0.750			
0.8923	57104.02	3.2990	3.2988	-0.2421	26.38	0.72	-0.750			
0.8930	57149.23	3.2960	3.2960	-0.2345	26.39	0.73	-0.750			
0.8937	57194.03	3.2930	3.2931	-0.2280	26.39	0.73	-0.750			
0.8943	57237.47	3.2900	3.2900	-0.2220	26.40	0.74	-0.750			
0.8950	57279.51	3.2870	3.2871	-0.2165	26.40	0.74	-0.750			
0.8956	57319.91	3.2840	3.2840	-0.2091	26.40	0.74	-0.750			
0.8962	57359.17	3.2810	3.2809	-0.2029	26.41	0.75	-0.750			
0.8968	57397.37	3.2780	3.2781	-0.1983	26.41	0.75	-0.750			
0.8974	57434.80	3.2750	3.2750	-0.1935	26.41	0.75	-0.750			
0.8980	57471.58	3.2720	3.2720	-0.1896	26.42	0.76	-0.750			
0.8986	57507.88	3.2690	3.2689	-0.1850	26.42	0.76	-0.750			
0.8991	57542.83	3.2660	3.2660	-0.1805	26.42	0.76	-0.750			
0.8996	57576.98	3.2630	3.2630	-0.1760	26.42	0.76	-0.750			
0.9002	57610.24	3.2600	3.2601	-0.1727	26.43	0.77	-0.750			
0.9007	57643.08	3.2570	3.2569	-0.1695	26.43	0.77	-0.750			
0.9012	57674.87	3.2540	3.2539	-0.1656	26.43	0.77	-0.750			
0.9017	57706.39	3.2510	3.2510	-0.1624	26.44	0.78	-0.750			
0.9021	57737.31	3.2480	3.2481	-0.1596	26.44	0.78	-0.750			
0.9026	57767.65	3.2450	3.2450	-0.1577	26.44	0.78	-0.750			
0.9031	57797.52	3.2420	3.2420	-0.1550	26.45	0.79	-0.750			
0.9035	57827.15	3.2390	3.2390	-0.1520	26.45	0.79	-0.750			
0.9040	57855.81	3.2360	3.2360	-0.1499	26.46	0.80	-0.750			
0.9044	57884.57	3.2330	3.2330	-0.1475	26.46	0.80	-0.750			
0.9049	57912.67	3.2300	3.2300	-0.1452	26.47	0.81	-0.750			
0.9053	57940.40	3.2270	3.2270	-0.1432	26.47	0.81	-0.750			
0.9057	57967.57	3.2240	3.2241	-0.1410	26.47	0.81	-0.750			
0.9062	57994.12	3.2210	3.2210	-0.1389	26.48	0.82	-0.750			
0.9066	58020.67	3.2180	3.2179	-0.1376	26.48	0.82	-0.750			
0.9070	58047.12	3.2150	3.2151	-0.1360	26.49	0.83	-0.750			
0.9074	58072.83	3.2120	3.2119	-0.1340	26.49	0.83	-0.750			
0.9078	58098.66	3.2090	3.2090	-0.1330	26.50	0.84	-0.750			
0.9082	58124.05	3.2060	3.2060	-0.1311	26.50	0.84	-0.750			
0.9086	58148.89	3.2030	3.2030	-0.1295	26.50	0.84	-0.750			
0.9090	58173.61	3.2000	3.2001	-0.1280	26.51	0.85	-0.750			
0.9093	58198.00	3.1970	3.1970	-0.1260	26.51	0.85	-0.750			
0.9097	58222.06	3.1940	3.1940	-0.1246	26.52	0.86	-0.750			
0.9101	58245.86	3.1910	3.1911	-0.1233	26.52	0.86	-0.750			
0.9105	58269.33	3.1880	3.1880	-0.1217	26.52	0.86	-0.750			
0.9108	58292.43	3.1850	3.1850	-0.1210	26.53	0.87	-0.750			
0.9112	58315.60	3.1820	3.1819	-0.1199	26.53	0.87	-0.750			
0.9115	58338.52	3.1790	3.1789	-0.1189	26.53	0.87	-0.750			
0.9119	58361.06	3.1760	3.1759	-0.1178	26.54	0.88	-0.750			
0.9122	58383.68	3.1730	3.1731	-0.1165	26.54	0.88	-0.750			
0.9126	58406.22	3.1700	3.1701	-0.1156	26.54	0.88	-0.750			
0.9129	58428.24	3.1670	3.1671	-0.1146	26.55	0.89	-0.750			
0.9133	58450.16	3.1640	3.1639	-0.1134	26.55	0.89	-0.750			
0.9136	58471.66	3.1610	3.1610	-0.1118	26.55	0.89	-0.750			
0.9140	58492.94	3.1580	3.1580	-0.1110	26.55	0.89	-0.750			
0.9143	58514.15	3.1550	3.1550	-0.1101	26.56	0.90	-0.750			
0.9146	58535.27	3.1520	3.1520	-0.1092	26.56	0.90	-0.750			
0.9149	58556.17	3.1490	3.1490	-0.1083	26.56	0.90	-0.750			
0.9153	58576.88	3.1460	3.1458	-0.1074	26.57	0.91	-0.750			
0.9156	58597.18	3.1430	3.1430	-0.1070	26.57	0.91	-0.750			
0.9159	58617.70	3.1400	3.1401	-0.1068	26.58	0.92	-0.750			
0.9162	58638.23	3.1370	3.1368	-0.1063	26.58	0.92	-0.750			
0.9165	58658.60	3.1340	3.1340	-0.1059	26.58	0.92	-0.750			
0.9169	58678.94	3.1310	3.1310	-0.1049	26.59	0.93	-0.750			
0.9172	58699.01	3.1280	3.1281	-0.1041	26.59	0.93	-0.750			
0.9175	58719.26	3.1250	3.1250	-0.1034	26.60	0.94	-0.750			
0.9178	58738.97	3.1220	3.1220	-0.1020	26.60	0.94	-0.750			
0.9181	58758.26	3.1190	3.1190	-0.1008	26.61	0.95	-0.750			
0.9184	58777.51	3.1160	3.1160	-0.0997	26.61	0.95	-0.750			
0.9187	58796.41	3.1130	3.1129	-0.0989	26.61	0.95	-0.750			
0.9190	58815.34	3.1100	3.1101	-0.0982	26.62	0.96	-0.750			
0.9193	58833.92	3.1070	3.1070	-0.0980	26.62	0.96	-0.750			
0.9196	58852.74	3.1040	3.1040	-0.0980	26.63	0.97	-0.750			
0.9199	58871.65	3.1010	3.1009	-0.0972	26.63	0.97	-0.750			
0.9202	58890.27	3.0980	3.0980	-0.0967	26.64	0.98	-0.750			
0.9205	58908.87	3.0950	3.0951	-0.0965	26.64	0.98	-0.750			
0.9207	58927.34	3.0920	3.0921	-0.0959	26.64	0.98	-0.750			
0.9210	58945.77	3.0890	3.0890	-0.0954	26.65	0.99	-0.750			
0.9213	58964.00	3.0860	3.0858	-0.0946	26.65	0.99	-0.750			
0.9216	58981.96	3.0830	3.0829	-0.0937	26.66	1.00	-0.750			
0.9219	58999.91	3.0800	3.0802	-0.0933	26.66	1.00	-0.750			
0.9222	59017.90	3.0770	3.0770	-0.0930	26.66	1.00	-0.750			
0.9224	59035.68	3.0740	3.0740	-0.0923	26.67	1.01	-0.750			
0.9227	59053.30	3.0710	3.0709	-0.0914	26.67	1.01	-0.750			
0.9230	59070.77	3.0680	3.0681	-0.0907	26.67	1.01	-0.750			
0.9233	59088.05	3.0650	3.0650	-0.0905	26.67	1.01	-0.750			
0.9235	59105.38	3.0620	3.0621	-0.0901	26.68	1.02	-0.750			
0.9238	59122.60	3.0590	3.0589	-0.0895	26.68	1.02	-0.750			
0.9241	59139.75	3.0560	3.0560	-0.0892	26.68	1.02	-0.750			
0.9243	59156.76	3.0530	3.0531	-0.0889	26.69	1.03	-0.750			
0.9246	59173.81	3.0500	3.0500	-0.0887	26.69	1.03	-0.750			
0.9249	59191.03	3.0470	3.0470	-0.0883	26.69	1.03	-0.750			
0.9251	59207.93	3.0440	3.0439	-0.0877	26.70	1.04	-0.750			
0.9254	59224.57	3.0410	3.0410	-0.0873	26.70	1.04	-0.750			
0.9256	59241.30	3.0380	3.0381	-0.0870	26.70	1.04	-0.750			
0.9259	59258.01	3.0350	3.0351	-0.0867	26.70	1.04	-0.750			
0.9262	59274.61	3.0320	3.0319	-0.0863	26.71	1.05	-0.750			
0.9264	59291.19	3.0290	3.0290	-0.0856	26.71	1.05	-0.750			
0.9267	59307.57	3.0260	3.0261	-0.0850	26.71	1.05	-0.750			
0.9269	59323.84	3.0230	3.0231	-0.0850	26.72	1.06	-0.750			
0.9272	59340.10	3.0200	3.0200	-0.0845	26.72	1.06	-0.750			
0.9274	59356.29	3.0170	3.0170	-0.0836	26.72	1.06	-0.750			
0.9277	59372.28	3.0140	3.0139	-0.0830	26.72	1.06	-0.750			
0.9279	59388.17	3.0110	3.0110	-0.0825	26.73	1.07	-0.750			
0.9282	59403.99	3.0080	3.0081	-0.0819	26.73	1.07	-0.751			
0.9284	59419.65	3.0050	3.0051	-0.0813	26.73	1.07	-0.751			
0.9287	59435.18	3.0020	3.0021	-0.0780	26.73	1.07	-0.751			
