Ah_balance (normalized)	Ah_balance (mAh)	Voltage - fit (V)	Voltage -  interpolate (V)	dQ/dV (1/V)	Temperature (°C)	Temperature - diff (°C)	Current (C)	R_DC 0ms (mOhm)	R_DC 50ms (mOhm)	R_DC 50 ms PEC (mOhm)
0.0549	3513.69	4.1970	4.1971	0.7475	26.70	0.73	0.750			
0.0572	3659.21	4.1940	4.1941	0.7582	26.70	0.73	0.750			
0.0595	3805.25	4.1910	4.1910	0.7578	26.70	0.73	0.750			
0.0617	3950.12	4.1880	4.1880	0.7567	26.70	0.73	0.750			
0.0640	4095.21	4.1850	4.1850	0.7579	26.70	0.73	0.750			
0.0663	4240.07	4.1820	4.1820	0.7561	26.70	0.73	0.750			
0.0685	4385.24	4.1790	4.1788	0.7610	26.70	0.73	0.750			
0.0708	4531.32	4.1760	4.1761	0.7627	26.70	0.73	0.750			
0.0731	4679.18	4.1730	4.1730	0.7659	26.70	0.73	0.750			
0.0754	4827.64	4.1700	4.1700	0.7675	26.70	0.73	0.750			
0.0777	4974.85	4.1670	4.1670	0.7666	26.70	0.73	0.750			
0.0800	5121.51	4.1640	4.1640	0.7653	26.70	0.73	0.750			
0.0823	5268.02	4.1610	4.1610	0.7691	26.70	0.73	0.750			
0.0846	5415.66	4.1580	4.1580	0.7644	26.70	0.73	0.750			
0.0869	5563.03	4.1550	4.1550	0.7636	26.70	0.73	0.750			
0.0892	5709.60	4.1520	4.1521	0.7629	26.70	0.73	0.750			
0.0915	5855.83	4.1490	4.1490	0.7658	26.70	0.73	0.750			
0.0938	6002.24	4.1460	4.1458	0.7676	26.70	0.73	0.750			
0.0961	6149.20	4.1430	4.1430	0.7675	26.70	0.73	0.750			
0.0984	6296.90	4.1400	4.1401	0.7679	26.70	0.73	0.750			
0.1007	6446.53	4.1370	4.1370	0.7769	26.70	0.73	0.750			
0.1031	6595.78	4.1340	4.1340	0.7746	26.70	0.73	0.750			
0.1054	6743.66	4.1310	4.1309	0.7742	26.70	0.73	0.750			
0.1077	6891.56	4.1280	4.1281	0.7755	26.70	0.73	0.750			
0.1100	7041.42	4.1250	4.1250	0.7766	26.70	0.73	0.750			
0.1124	7191.16	4.1220	4.1220	0.7780	26.70	0.73	0.750			
0.1147	7341.04	4.1190	4.1190	0.7791	26.70	0.73	0.750			
0.1170	7489.45	4.1160	4.1160	0.7786	26.70	0.73	0.750			
0.1194	7639.42	4.1130	4.1130	0.7842	26.70	0.73	0.750			
0.1217	7789.55	4.1100	4.1100	0.7864	26.70	0.73	0.750			
0.1241	7940.96	4.1070	4.1070	0.7871	26.70	0.73	0.750			
0.1265	8093.23	4.1040	4.1040	0.7884	26.70	0.73	0.750			
0.1288	8244.78	4.1010	4.1010	0.7915	26.70	0.73	0.750			
0.1312	8396.73	4.0980	4.0978	0.7930	26.70	0.73	0.750			
0.1336	8548.97	4.0950	4.0950	0.7923	26.70	0.73	0.750			
0.1360	8702.32	4.0920	4.0920	0.7855	26.70	0.73	0.750			
0.1383	8852.60	4.0890	4.0890	0.7901	26.70	0.73	0.750			
0.1407	9003.89	4.0860	4.0861	0.7960	26.70	0.73	0.750			
0.1431	9156.10	4.0830	4.0829	0.7984	26.70	0.73	0.750			
0.1454	9308.78	4.0800	4.0800	0.8068	26.70	0.73	0.750			
0.1479	9465.29	4.0770	4.0771	0.8118	26.70	0.73	0.750			
0.1504	9623.18	4.0740	4.0739	0.8177	26.71	0.74	0.750			
0.1529	9783.76	4.0710	4.0711	0.8205	26.71	0.74	0.750			
0.1553	9939.02	4.0680	4.0680	0.8129	26.71	0.74	0.750			
0.1577	10094.54	4.0650	4.0651	0.8139	26.71	0.74	0.750			
0.1602	10252.33	4.0620	4.0619	0.8122	26.71	0.74	0.750			
0.1626	10406.03	4.0590	4.0590	0.8129	26.71	0.74	0.750			
0.1650	10563.07	4.0560	4.0560	0.8201	26.70	0.73	0.750			
0.1675	10720.90	4.0530	4.0533	0.8230	26.70	0.73	0.750			
0.1700	10879.57	4.0500	4.0500	0.8265	26.70	0.73	0.750			
0.1725	11039.37	4.0470	4.0470	0.8226	26.70	0.73	0.750			
0.1749	11195.76	4.0440	4.0441	0.8266	26.70	0.73	0.750			
0.1774	11354.42	4.0410	4.0410	0.8320	26.70	0.73	0.750			
0.1799	11514.00	4.0380	4.0381	0.8336	26.70	0.73	0.750			
0.1824	11675.36	4.0350	4.0350	0.8360	26.70	0.73	0.750			
0.1850	11838.55	4.0320	4.0320	0.8381	26.70	0.73	0.750			
0.1875	11998.81	4.0290	4.0291	0.8436	26.70	0.73	0.750			
0.1900	12161.82	4.0260	4.0260	0.8459	26.70	0.73	0.750			
0.1925	12322.98	4.0230	4.0230	0.8446	26.70	0.73	0.750			
0.1951	12486.16	4.0200	4.0201	0.8491	26.70	0.73	0.750			
0.1977	12651.25	4.0170	4.0170	0.8459	26.70	0.73	0.750			
0.2002	12813.39	4.0140	4.0140	0.8548	26.70	0.73	0.750			
0.2027	12974.97	4.0110	4.0111	0.8662	26.70	0.73	0.750			
0.2053	13141.04	4.0080	4.0079	0.8699	26.70	0.73	0.750			
0.2080	13313.23	4.0050	4.0050	0.8649	26.70	0.73	0.750			
0.2106	13480.05	4.0020	4.0021	0.8707	26.71	0.74	0.750			
0.2133	13649.54	3.9990	3.9991	0.8351	26.71	0.74	0.750			
0.2157	13802.17	3.9960	3.9963	0.8403	26.71	0.74	0.750			
0.2180	13953.12	3.9930	3.9935	0.8489	26.72	0.75	0.750			
0.2206	14116.88	3.9900	3.9902	0.8664	26.72	0.75	0.750			
0.2232	14285.21	3.9870	3.9875	0.8747	26.72	0.75	0.750			
0.2259	14458.11	3.9840	3.9844	0.8921	26.71	0.74	0.750			
0.2288	14640.27	3.9810	3.9811	0.8984	26.71	0.74	0.750			
0.2315	14814.42	3.9780	3.9776	0.8877	26.71	0.74	0.750			
0.2340	14976.40	3.9750	3.9751	0.8702	26.71	0.74	0.750			
0.2366	15143.76	3.9720	3.9720	0.8754	26.71	0.74	0.750			
0.2393	15314.21	3.9690	3.9690	0.8784	26.72	0.75	0.750			
0.2419	15480.48	3.9660	3.9661	0.8769	26.72	0.75	0.750			
0.2445	15650.66	3.9630	3.9631	0.8827	26.72	0.75	0.750			
0.2472	15821.17	3.9600	3.9599	0.8834	26.72	0.75	0.750			
0.2499	15990.79	3.9570	3.9570	0.8821	26.72	0.75	0.750			
0.2525	16159.72	3.9540	3.9541	0.8828	26.71	0.74	0.750			
0.2552	16329.77	3.9510	3.9510	0.8865	26.71	0.74	0.750			
0.2578	16500.05	3.9480	3.9480	0.8924	26.71	0.74	0.750			
0.2605	16670.99	3.9450	3.9449	0.8856	26.71	0.74	0.750			
0.2632	16841.60	3.9420	3.9421	0.8905	26.70	0.73	0.750			
0.2658	17013.86	3.9390	3.9390	0.8926	26.70	0.73	0.750			
0.2685	17184.22	3.9360	3.9359	0.8943	26.70	0.73	0.750			
0.2712	17356.35	3.9330	3.9330	0.8904	26.70	0.73	0.750			
0.2738	17526.18	3.9300	3.9300	0.8932	26.69	0.72	0.750			
0.2765	17697.66	3.9270	3.9270	0.8959	26.69	0.72	0.750			
0.2792	17871.85	3.9240	3.9240	0.9019	26.68	0.71	0.750			
0.2819	18043.95	3.9210	3.9211	0.8997	26.68	0.71	0.750			
0.2847	18218.64	3.9180	3.9179	0.8975	26.67	0.70	0.750			
0.2873	18389.06	3.9150	3.9151	0.9027	26.67	0.70	0.750			
0.2901	18563.73	3.9120	3.9121	0.9090	26.67	0.70	0.750			
0.2928	18737.29	3.9090	3.9089	0.9087	26.66	0.69	0.750			
0.2955	18913.56	3.9060	3.9061	0.9130	26.66	0.69	0.750			
0.2983	19088.87	3.9030	3.9031	0.9182	26.65	0.68	0.750			
0.3010	19265.47	3.9000	3.9000	0.9236	26.65	0.68	0.750			
0.3038	19444.79	3.8970	3.8970	0.9272	26.64	0.67	0.750			
0.3066	19620.68	3.8940	3.8939	0.9321	26.64	0.67	0.750			
0.3094	19801.50	3.8910	3.8909	0.9366	26.63	0.66	0.750			
0.3122	19981.91	3.8880	3.8880	0.9454	26.62	0.65	0.750			
0.3151	20164.29	3.8850	3.8852	0.9487	26.61	0.64	0.750			
0.3179	20347.72	3.8820	3.8819	0.9493	26.60	0.63	0.750			
0.3208	20532.42	3.8790	3.8790	0.9460	26.60	0.63	0.750			
0.3236	20712.55	3.8760	3.8760	0.9505	26.59	0.62	0.750			
0.3264	20892.72	3.8730	3.8731	0.9543	26.59	0.62	0.750			
0.3293	21076.47	3.8700	3.8701	0.9673	26.58	0.61	0.750			
0.3322	21260.86	3.8670	3.8669	0.9751	26.58	0.61	0.750			
0.3352	21453.92	3.8640	3.8640	0.9623	26.57	0.60	0.750			
0.3381	21635.42	3.8610	3.8611	0.9605	26.56	0.59	0.750			
0.3409	21816.99	3.8580	3.8584	0.9641	26.55	0.58	0.750			
0.3438	22000.30	3.8550	3.8549	0.9669	26.54	0.57	0.750			
0.3466	22185.45	3.8520	3.8526	0.9607	26.53	0.56	0.750			
0.3495	22370.02	3.8490	3.8493	0.9756	26.52	0.55	0.750			
0.3526	22563.52	3.8460	3.8461	0.9842	26.51	0.54	0.750			
0.3556	22759.71	3.8430	3.8428	0.9884	26.50	0.53	0.750			
0.3584	22940.80	3.8400	3.8402	0.9581	26.49	0.52	0.750			
0.3614	23126.85	3.8370	3.8370	0.9708	26.48	0.51	0.750			
0.3643	23312.69	3.8340	3.8341	0.9828	26.47	0.50	0.750			
0.3672	23502.49	3.8310	3.8311	0.9923	26.47	0.50	0.750			
0.3702	23692.72	3.8280	3.8280	0.9926	26.46	0.49	0.750			
0.3732	23884.99	3.8250	3.8251	1.0020	26.45	0.48	0.750			
0.3762	24078.62	3.8220	3.8221	1.0081	26.44	0.47	0.750			
0.3793	24273.37	3.8190	3.8190	1.0151	26.43	0.46	0.750			
0.3823	24468.78	3.8160	3.8159	1.0118	26.42	0.45	0.750			
0.3853	24662.19	3.8130	3.8130	1.0181	26.41	0.44	0.750			
0.3884	24857.17	3.8100	3.8101	1.0348	26.40	0.43	0.750			
0.3915	25056.57	3.8070	3.8071	1.0525	26.39	0.42	0.750			
0.3947	25262.42	3.8040	3.8038	1.0589	26.38	0.41	0.750			
0.3979	25465.33	3.8010	3.8010	1.0839	26.37	0.40	0.750			
0.4012	25675.24	3.7980	3.7981	1.1039	26.36	0.39	0.750			
0.4045	25890.71	3.7950	3.7952	1.1231	26.35	0.38	0.750			
0.4079	26108.33	3.7920	3.7921	1.1315	26.34	0.37	0.750			
0.4113	26326.30	3.7890	3.7891	1.1476	26.33	0.36	0.750			
0.4148	26547.69	3.7860	3.7861	1.1647	26.31	0.34	0.750			
0.4184	26775.80	3.7830	3.7828	1.1754	26.29	0.32	0.750			
0.4220	27005.21	3.7800	3.7801	1.1562	26.28	0.31	0.750			
0.4254	27227.87	3.7770	3.7770	1.1461	26.27	0.30	0.750			
0.4286	27433.06	3.7740	3.7746	1.1729	26.26	0.29	0.750			
0.4321	27653.55	3.7710	3.7714	1.2071	26.25	0.28	0.750			
0.4357	27887.38	3.7680	3.7692	1.2608	26.24	0.27	0.750			
0.4396	28133.61	3.7650	3.7655	1.3050	26.23	0.26	0.750			
0.4437	28394.46	3.7620	3.7618	1.3616	26.22	0.25	0.750			
0.4481	28678.96	3.7590	3.7591	1.4032	26.20	0.23	0.750			
0.4523	28948.82	3.7560	3.7560	1.4118	26.19	0.22	0.750			
0.4565	29213.21	3.7530	3.7531	1.4043	26.17	0.20	0.750			
0.4607	29487.99	3.7500	3.7500	1.4025	26.16	0.19	0.750			
0.4650	29757.18	3.7470	3.7471	1.4392	26.14	0.17	0.750			
0.4693	30032.51	3.7440	3.7436	1.4850	26.13	0.16	0.750			
0.4737	30317.41	3.7410	3.7412	1.5360	26.11	0.14	0.750			
0.4784	30617.05	3.7380	3.7382	1.5847	26.10	0.13	0.750			
0.4833	30930.13	3.7350	3.7351	1.6327	26.08	0.11	0.750			
0.4883	31250.11	3.7320	3.7320	1.6682	26.07	0.10	0.750			
0.4935	31584.76	3.7290	3.7288	1.7295	26.05	0.08	0.750			
0.4987	31913.92	3.7260	3.7260	1.7645	26.03	0.06	0.750			
0.5040	32258.60	3.7230	3.7231	1.8020	26.02	0.05	0.750			
0.5095	32607.34	3.7200	3.7202	1.8498	26.00	0.03	0.750			
0.5152	32971.42	3.7170	3.7172	1.9052	25.98	0.01	0.750			
0.5209	33340.13	3.7140	3.7140	1.9633	25.96	-0.01	0.750			
0.5268	33718.19	3.7110	3.7108	2.0282	25.94	-0.03	0.750			
0.5330	34111.84	3.7080	3.7081	2.0875	25.92	-0.05	0.750			
0.5393	34514.16	3.7050	3.7049	2.1665	25.90	-0.07	0.750			
0.5460	34944.42	3.7020	3.7019	2.2511	25.88	-0.09	0.750			
0.5528	35377.98	3.6990	3.6990	2.3076	25.87	-0.10	0.750			
0.5599	35835.81	3.6960	3.6961	2.4037	25.85	-0.12	0.750			
0.5672	36299.90	3.6930	3.6930	2.4658	25.83	-0.14	0.750			
0.5746	36776.60	3.6900	3.6900	2.5378	25.81	-0.16	0.750			
0.5823	37268.10	3.6870	3.6870	2.5937	25.79	-0.18	0.750			
0.5903	37777.31	3.6840	3.6839	2.6868	25.79	-0.18	0.750			
0.5984	38300.76	3.6810	3.6811	2.7761	25.78	-0.19	0.750			
0.6070	38847.24	3.6780	3.6782	2.8757	25.75	-0.22	0.750			
0.6158	39412.32	3.6750	3.6750	2.9032	25.75	-0.22	0.750			
0.6247	39979.03	3.6720	3.6722	2.8823	25.74	-0.23	0.750			
0.6336	40550.68	3.6690	3.6690	2.7064	25.72	-0.25	0.750			
0.6415	41055.82	3.6660	3.6660	2.4786	25.72	-0.25	0.750			
0.6483	41490.77	3.6630	3.6632	2.1995	25.72	-0.25	0.750			
0.6544	41880.24	3.6600	3.6601	1.9943	25.72	-0.25	0.750			
0.6598	42224.50	3.6570	3.6570	1.7969	25.72	-0.25	0.750			
0.6647	42539.56	3.6540	3.6539	1.6461	25.72	-0.25	0.750			
0.6695	42847.43	3.6510	3.6509	1.5514	25.72	-0.25	0.750			
0.6740	43137.62	3.6480	3.6481	1.4577	25.72	-0.25	0.750			
0.6782	43404.60	3.6450	3.6451	1.3701	25.72	-0.25	0.750			
0.6822	43658.96	3.6420	3.6419	1.2822	25.72	-0.25	0.750			
0.6857	43886.47	3.6390	3.6391	1.2287	25.72	-0.25	0.750			
0.6892	44110.75	3.6360	3.6360	1.1964	25.72	-0.25	0.750			
0.6928	44338.28	3.6330	3.6329	1.1836	25.72	-0.25	0.750			
0.6963	44562.39	3.6300	3.6300	1.1869	25.72	-0.25	0.750			
0.6998	44787.61	3.6270	3.6272	1.1970	25.72	-0.25	0.750			
0.7034	45020.06	3.6240	3.6240	1.2065	25.72	-0.25	0.750			
0.7071	45255.84	3.6210	3.6210	1.1986	25.72	-0.25	0.750			
0.7107	45487.97	3.6180	3.6181	1.1929	25.72	-0.25	0.750			
0.7144	45720.05	3.6150	3.6152	1.1803	25.72	-0.25	0.750			
0.7179	45946.45	3.6120	3.6119	1.1593	25.72	-0.25	0.750			
0.7213	46163.63	3.6090	3.6090	1.1329	25.72	-0.25	0.750			
0.7246	46373.56	3.6060	3.6061	1.1313	25.72	-0.25	0.750			
0.7280	46589.29	3.6030	3.6030	1.1385	25.72	-0.25	0.750			
0.7314	46811.67	3.6000	3.5997	1.1434	25.72	-0.25	0.750			
0.7348	47028.19	3.5970	3.5972	1.1634	25.72	-0.25	0.750			
0.7383	47252.86	3.5940	3.5940	1.1905	25.72	-0.25	0.750			
0.7419	47483.26	3.5910	3.5912	1.2254	25.72	-0.25	0.750			
0.7456	47718.42	3.5880	3.5880	1.2569	25.72	-0.25	0.750			
0.7494	47960.84	3.5850	3.5850	1.3051	25.72	-0.25	0.750			
0.7534	48220.31	3.5820	3.5821	1.3459	25.72	-0.25	0.750			
0.7575	48481.20	3.5790	3.5791	1.3974	25.72	-0.25	0.750			
0.7618	48752.60	3.5760	3.5761	1.4361	25.72	-0.25	0.750			
0.7662	49036.14	3.5730	3.5731	1.4710	25.72	-0.25	0.750			
0.7707	49323.51	3.5700	3.5698	1.5067	25.72	-0.25	0.750			
0.7752	49615.48	3.5670	3.5670	1.5532	25.72	-0.25	0.750			
0.7799	49915.68	3.5640	3.5642	1.5963	25.72	-0.25	0.750			
0.7848	50229.31	3.5610	3.5612	1.6305	25.72	-0.25	0.750			
0.7898	50545.91	3.5580	3.5580	1.6432	25.72	-0.25	0.750			
0.7949	50870.92	3.5550	3.5550	1.6632	25.72	-0.25	0.750			
0.7999	51191.09	3.5520	3.5519	1.6816	25.72	-0.25	0.750			
0.8049	51512.61	3.5490	3.5491	1.6827	25.72	-0.25	0.750			
0.8099	51832.69	3.5460	3.5462	1.7152	25.73	-0.24	0.750			
0.8151	52165.35	3.5430	3.5431	1.7296	25.73	-0.24	0.750			
0.8204	52503.37	3.5400	3.5400	1.7826	25.74	-0.23	0.750			
0.8261	52873.17	3.5370	3.5368	1.7291	25.76	-0.21	0.750			
0.8314	53207.21	3.5340	3.5339	1.5888	25.77	-0.20	0.750			
0.8363	53526.23	3.5310	3.5317	1.3800	25.79	-0.18	0.750			
0.8405	53791.27	3.5280	3.5285	1.1569	25.80	-0.17	0.750			
0.8434	53974.59	3.5250	3.5247	0.8740	25.81	-0.16	0.750			
0.8453	54102.36	3.5220	3.5216	0.6382	25.82	-0.15	0.750			
0.8465	54172.90	3.5190	3.5189	0.4778	25.83	-0.14	0.750			
0.8476	54246.62	3.5160	3.5158	0.3993	25.83	-0.14	0.750			
0.8486	54310.01	3.5130	3.5128	0.3560	25.84	-0.13	0.750			
0.8495	54370.52	3.5100	3.5100	0.3267	25.85	-0.12	0.750			
0.8505	54432.56	3.5070	3.5071	0.3167	25.85	-0.12	0.750			
0.8514	54491.59	3.5040	3.5039	0.3043	25.86	-0.11	0.750			
0.8523	54548.54	3.5010	3.5010	0.2941	25.86	-0.11	0.750			
0.8532	54603.75	3.4980	3.4980	0.2850	25.87	-0.10	0.750			
0.8540	54657.37	3.4950	3.4950	0.2781	25.88	-0.09	0.750			
0.8548	54709.74	3.4920	3.4921	0.2717	25.88	-0.09	0.750			
0.8556	54760.62	3.4890	3.4890	0.2660	25.89	-0.08	0.750			
0.8564	54811.00	3.4860	3.4858	0.2611	25.89	-0.08	0.750			
0.8572	54860.72	3.4830	3.4830	0.2565	25.90	-0.07	0.750			
0.8580	54910.02	3.4800	3.4800	0.2510	25.90	-0.07	0.750			
0.8587	54958.22	3.4770	3.4770	0.2461	25.91	-0.06	0.750			
0.8595	55005.11	3.4740	3.4740	0.2400	25.91	-0.06	0.750			
0.8602	55049.92	3.4710	3.4711	0.2338	25.91	-0.06	0.750			
0.8608	55093.92	3.4680	3.4680	0.2284	25.92	-0.05	0.750			
0.8615	55137.00	3.4650	3.4649	0.2232	25.92	-0.05	0.750			
0.8622	55179.36	3.4620	3.4619	0.2182	25.93	-0.04	0.750			
0.8628	55220.61	3.4590	3.4591	0.2139	25.93	-0.04	0.750			
0.8635	55261.56	3.4560	3.4561	0.2108	25.94	-0.03	0.750			
0.8641	55301.61	3.4530	3.4529	0.2064	25.94	-0.03	0.750			
0.8647	55340.90	3.4500	3.4499	0.2013	25.94	-0.03	0.750			
0.8653	55379.26	3.4470	3.4471	0.1956	25.95	-0.02	0.750			
0.8659	55416.49	3.4440	3.4439	0.1908	25.95	-0.02	0.750			
0.8664	55452.55	3.4410	3.4412	0.1849	25.95	-0.02	0.750			
0.8670	55487.58	3.4380	3.4380	0.1801	25.96	-0.01	0.750			
0.8675	55521.42	3.4350	3.4349	0.1740	25.96	-0.01	0.750			
0.8680	55554.10	3.4320	3.4320	0.1684	25.96	-0.01	0.750			
0.8685	55585.99	3.4290	3.4290	0.1636	25.97	-0.00	0.750			
0.8690	55617.11	3.4260	3.4260	0.1585	25.97	0.00	0.750			
0.8695	55647.06	3.4230	3.4230	0.1539	25.97	0.00	0.750			
0.8699	55675.93	3.4200	3.4200	0.1484	25.98	0.01	0.750			
0.8704	55704.06	3.4170	3.4170	0.1430	25.98	0.01	0.750			
0.8708	55730.90	3.4140	3.4140	0.1377	25.98	0.01	0.750			
0.8712	55757.42	3.4110	3.4111	0.1321	25.99	0.02	0.750			
0.8716	55782.17	3.4080	3.4080	0.1257	25.99	0.02	0.750			
0.8720	55806.08	3.4050	3.4051	0.1185	25.99	0.02	0.750			
0.8723	55828.49	3.4020	3.4020	0.1116	25.99	0.02	0.750			
0.8727	55850.39	3.3990	3.3989	0.1009	25.99	0.02	0.750			
0.8730	55869.16	3.3960	3.3959	0.0922	26.00	0.03	0.750			
0.8732	55885.85	3.3930	3.3930	0.0816	26.00	0.03	0.750			
0.8735	55901.42	3.3900	3.3904	0.0725	26.00	0.03	0.750			
0.8737	55914.24	3.3870	3.3872	0.0611	26.00	0.03	0.750			
0.8738	55926.03	3.3840	3.3843	0.0503	26.00	0.03	0.750			
0.8740	55934.50	3.3810	3.3822	0.0380	26.00	0.03	0.750			
0.8741	55940.62	3.3780	3.3796	0.0257	26.00	0.03	0.750			
0.8741	55944.38	3.3750	3.3774	0.0134	26.00	0.03	0.750			
0.8742	55945.78	3.3720	3.3763	0.0012	26.00	0.03	0.750			
