Ah_balance (normalized)	Ah_balance (mAh)	Voltage - fit (V)	Voltage -  interpolate (V)	dQ/dV (1/V)	Temperature (°C)	Temperature - diff (°C)	Current (C)	R_DC 0ms (mOhm)	R_DC 50ms (mOhm)	R_DC 50 ms PEC (mOhm)
0.0523	3348.63	4.1990	4.1991	0.7751	26.55	0.60	0.750			
0.0546	3492.11	4.1960	4.1960	0.7366	26.54	0.59	0.750			
0.0568	3635.12	4.1930	4.1931	0.7495	26.54	0.59	0.750			
0.0591	3781.57	4.1900	4.1899	0.7553	26.54	0.59	0.750			
0.0614	3927.35	4.1870	4.1870	0.7597	26.54	0.59	0.750			
0.0637	4074.22	4.1840	4.1841	0.7574	26.54	0.59	0.750			
0.0659	4219.64	4.1810	4.1810	0.7607	26.53	0.58	0.750			
0.0682	4365.59	4.1780	4.1780	0.7613	26.53	0.58	0.750			
0.0705	4511.15	4.1750	4.1750	0.7638	26.53	0.58	0.750			
0.0728	4658.16	4.1720	4.1720	0.7657	26.53	0.58	0.750			
0.0751	4806.13	4.1690	4.1691	0.7700	26.53	0.58	0.750			
0.0774	4954.43	4.1660	4.1659	0.7689	26.53	0.58	0.750			
0.0797	5102.43	4.1630	4.1630	0.7707	26.53	0.58	0.750			
0.0820	5247.70	4.1600	4.1601	0.7719	26.53	0.58	0.750			
0.0843	5396.18	4.1570	4.1568	0.7795	26.53	0.58	0.750			
0.0867	5548.49	4.1540	4.1540	0.7788	26.53	0.58	0.750			
0.0891	5699.95	4.1510	4.1510	0.7770	26.53	0.58	0.750			
0.0914	5849.64	4.1480	4.1481	0.7758	26.52	0.57	0.750			
0.0937	5998.92	4.1450	4.1450	0.7716	26.52	0.57	0.750			
0.0960	6143.15	4.1420	4.1420	0.7669	26.52	0.57	0.750			
0.0983	6288.24	4.1390	4.1390	0.7692	26.52	0.57	0.750			
0.1006	6436.84	4.1360	4.1360	0.7724	26.52	0.57	0.750			
0.1029	6587.19	4.1330	4.1329	0.7808	26.52	0.57	0.750			
0.1053	6738.05	4.1300	4.1300	0.7865	26.51	0.56	0.750			
0.1076	6888.75	4.1270	4.1271	0.7894	26.51	0.56	0.750			
0.1100	7041.77	4.1240	4.1239	0.7903	26.51	0.56	0.750			
0.1124	7192.63	4.1210	4.1210	0.7919	26.51	0.56	0.750			
0.1148	7344.68	4.1180	4.1180	0.7892	26.51	0.56	0.750			
0.1171	7496.64	4.1150	4.1150	0.7922	26.50	0.55	0.750			
0.1195	7649.06	4.1120	4.1120	0.7920	26.50	0.55	0.750			
0.1219	7800.99	4.1090	4.1088	0.7918	26.50	0.55	0.750			
0.1243	7953.15	4.1060	4.1060	0.7915	26.50	0.55	0.750			
0.1267	8107.50	4.1030	4.1030	0.7842	26.50	0.55	0.750			
0.1290	8255.96	4.1000	4.1000	0.7855	26.50	0.55	0.750			
0.1313	8406.28	4.0970	4.0971	0.7912	26.50	0.55	0.750			
0.1337	8556.54	4.0940	4.0940	0.7911	26.50	0.55	0.750			
0.1361	8709.04	4.0910	4.0911	0.7969	26.50	0.55	0.750			
0.1385	8863.58	4.0880	4.0881	0.8003	26.50	0.55	0.750			
0.1409	9017.49	4.0850	4.0850	0.8079	26.50	0.55	0.750			
0.1434	9176.02	4.0820	4.0820	0.8131	26.50	0.55	0.750			
0.1458	9329.54	4.0790	4.0790	0.8124	26.50	0.55	0.750			
0.1482	9485.95	4.0760	4.0760	0.8160	26.50	0.55	0.750			
0.1507	9645.31	4.0730	4.0730	0.8152	26.50	0.55	0.750			
0.1531	9800.49	4.0700	4.0701	0.8196	26.50	0.55	0.750			
0.1556	9959.22	4.0670	4.0670	0.8199	26.50	0.55	0.750			
0.1581	10115.21	4.0640	4.0640	0.8179	26.50	0.55	0.750			
0.1605	10272.08	4.0610	4.0610	0.8210	26.50	0.55	0.750			
0.1630	10430.54	4.0580	4.0581	0.8170	26.50	0.55	0.750			
0.1654	10587.59	4.0550	4.0550	0.8223	26.50	0.55	0.750			
0.1679	10745.70	4.0520	4.0520	0.8249	26.50	0.55	0.750			
0.1704	10903.03	4.0490	4.0491	0.8264	26.50	0.55	0.750			
0.1729	11062.78	4.0460	4.0460	0.8344	26.50	0.55	0.750			
0.1754	11223.52	4.0430	4.0430	0.8369	26.50	0.55	0.750			
0.1779	11384.04	4.0400	4.0400	0.8423	26.50	0.55	0.750			
0.1804	11547.54	4.0370	4.0370	0.8467	26.50	0.55	0.750			
0.1830	11710.85	4.0340	4.0341	0.8463	26.50	0.55	0.750			
0.1855	11873.96	4.0310	4.0310	0.8494	26.50	0.55	0.750			
0.1881	12038.32	4.0280	4.0280	0.8438	26.50	0.55	0.750			
0.1906	12199.06	4.0250	4.0250	0.8517	26.50	0.55	0.750			
0.1932	12362.27	4.0220	4.0220	0.8571	26.50	0.55	0.750			
0.1957	12526.66	4.0190	4.0190	0.8596	26.50	0.55	0.750			
0.1983	12693.67	4.0160	4.0161	0.8648	26.50	0.55	0.750			
0.2010	12862.94	4.0130	4.0130	0.8622	26.50	0.55	0.750			
0.2036	13027.47	4.0100	4.0101	0.8681	26.50	0.55	0.750			
0.2062	13194.09	4.0070	4.0071	0.8722	26.50	0.55	0.750			
0.2088	13360.21	4.0040	4.0038	0.8691	26.50	0.55	0.750			
0.2114	13527.63	4.0010	4.0011	0.8761	26.50	0.55	0.750			
0.2140	13696.46	3.9980	3.9980	0.8760	26.49	0.54	0.750			
0.2166	13865.25	3.9950	3.9951	0.8782	26.49	0.54	0.750			
0.2193	14034.20	3.9920	3.9920	0.8747	26.48	0.53	0.750			
0.2219	14202.67	3.9890	3.9887	0.8795	26.48	0.53	0.750			
0.2245	14371.17	3.9860	3.9861	0.8827	26.48	0.53	0.750			
0.2272	14542.03	3.9830	3.9830	0.8880	26.48	0.53	0.750			
0.2299	14712.94	3.9800	3.9800	0.8908	26.48	0.53	0.750			
0.2326	14885.51	3.9770	3.9770	0.8966	26.48	0.53	0.750			
0.2353	15057.61	3.9740	3.9741	0.8961	26.48	0.53	0.750			
0.2380	15231.02	3.9710	3.9709	0.8911	26.48	0.53	0.750			
0.2406	15399.67	3.9680	3.9681	0.8969	26.48	0.53	0.750			
0.2433	15571.93	3.9650	3.9651	0.8991	26.48	0.53	0.750			
0.2460	15745.35	3.9620	3.9618	0.9036	26.48	0.53	0.750			
0.2487	15918.86	3.9590	3.9590	0.9082	26.48	0.53	0.750			
0.2515	16094.17	3.9560	3.9561	0.9055	26.48	0.53	0.750			
0.2542	16268.26	3.9530	3.9531	0.9107	26.47	0.52	0.750			
0.2570	16444.82	3.9500	3.9500	0.9139	26.47	0.52	0.750			
0.2596	16616.02	3.9470	3.9466	0.9181	26.47	0.52	0.750			
0.2625	16798.95	3.9440	3.9439	0.9040	26.47	0.52	0.750			
0.2652	16970.85	3.9410	3.9410	0.8991	26.47	0.52	0.750			
0.2679	17143.31	3.9380	3.9381	0.8996	26.46	0.51	0.750			
0.2705	17313.89	3.9350	3.9353	0.9089	26.46	0.51	0.750			
0.2732	17484.06	3.9320	3.9319	0.9052	26.46	0.51	0.750			
0.2759	17659.20	3.9290	3.9289	0.9099	26.46	0.51	0.750			
0.2786	17833.50	3.9260	3.9262	0.9126	26.45	0.50	0.750			
0.2815	18015.20	3.9230	3.9231	0.9225	26.45	0.50	0.750			
0.2843	18192.04	3.9200	3.9199	0.9156	26.45	0.50	0.750			
0.2870	18366.85	3.9170	3.9170	0.9123	26.45	0.50	0.750			
0.2897	18541.20	3.9140	3.9140	0.9133	26.44	0.49	0.750			
0.2925	18717.63	3.9110	3.9110	0.9183	26.44	0.49	0.750			
0.2952	18894.72	3.9080	3.9081	0.9188	26.43	0.48	0.750			
0.2980	19070.83	3.9050	3.9050	0.9214	26.43	0.48	0.750			
0.3007	19246.95	3.9020	3.9020	0.9232	26.43	0.48	0.750			
0.3035	19423.79	3.8990	3.8990	0.9261	26.42	0.47	0.750			
0.3063	19601.31	3.8960	3.8960	0.9329	26.42	0.47	0.750			
0.3091	19781.45	3.8930	3.8930	0.9368	26.42	0.47	0.750			
0.3119	19963.42	3.8900	3.8900	0.9383	26.41	0.46	0.750			
0.3147	20143.41	3.8870	3.8870	0.9463	26.40	0.45	0.750			
0.3176	20324.09	3.8840	3.8840	0.9505	26.39	0.44	0.750			
0.3204	20506.76	3.8810	3.8811	0.9548	26.38	0.43	0.750			
0.3233	20693.28	3.8780	3.8780	0.9583	26.37	0.42	0.750			
0.3262	20876.37	3.8750	3.8750	0.9649	26.36	0.41	0.750			
0.3291	21063.22	3.8720	3.8721	0.9730	26.36	0.41	0.750			
0.3320	21249.61	3.8690	3.8691	0.9831	26.35	0.40	0.750			
0.3350	21437.74	3.8660	3.8659	0.9891	26.35	0.40	0.750			
0.3379	21628.78	3.8630	3.8630	0.9971	26.34	0.39	0.750			
0.3410	21821.33	3.8600	3.8601	1.0069	26.33	0.38	0.750			
0.3440	22016.93	3.8570	3.8570	1.0133	26.32	0.37	0.750			
0.3471	22212.46	3.8540	3.8538	1.0135	26.31	0.36	0.750			
0.3501	22407.10	3.8510	3.8512	1.0177	26.30	0.35	0.750			
0.3531	22601.56	3.8480	3.8481	1.0236	26.29	0.34	0.750			
0.3562	22799.67	3.8450	3.8450	1.0302	26.28	0.33	0.750			
0.3593	22997.87	3.8420	3.8416	1.0299	26.27	0.32	0.750			
0.3625	23197.01	3.8390	3.8391	1.0295	26.26	0.31	0.750			
0.3655	23394.36	3.8360	3.8361	1.0339	26.25	0.30	0.750			
0.3687	23593.76	3.8330	3.8331	1.0405	26.24	0.29	0.750			
0.3718	23792.76	3.8300	3.8298	1.0444	26.23	0.28	0.750			
0.3749	23991.73	3.8270	3.8270	1.0458	26.22	0.27	0.750			
0.3780	24194.13	3.8240	3.8241	1.0552	26.21	0.26	0.750			
0.3813	24400.61	3.8210	3.8209	1.0596	26.20	0.25	0.750			
0.3845	24605.01	3.8180	3.8180	1.0585	26.19	0.24	0.750			
0.3876	24805.36	3.8150	3.8150	1.0482	26.18	0.23	0.750			
0.3907	25003.45	3.8120	3.8121	1.0585	26.17	0.22	0.750			
0.3938	25205.56	3.8090	3.8090	1.0647	26.16	0.21	0.750			
0.3971	25412.76	3.8060	3.8057	1.0733	26.15	0.20	0.750			
0.4003	25618.75	3.8030	3.8030	1.0871	26.14	0.19	0.750			
0.4036	25828.86	3.8000	3.8001	1.1080	26.13	0.18	0.750			
0.4070	26046.05	3.7970	3.7971	1.1194	26.12	0.17	0.750			
0.4104	26263.42	3.7940	3.7938	1.1150	26.11	0.16	0.750			
0.4137	26476.53	3.7910	3.7910	1.1264	26.10	0.15	0.750			
0.4171	26692.14	3.7880	3.7881	1.1449	26.09	0.14	0.750			
0.4205	26912.36	3.7850	3.7849	1.1625	26.08	0.13	0.750			
0.4240	27137.39	3.7820	3.7820	1.1682	26.06	0.11	0.750			
0.4275	27360.17	3.7790	3.7792	1.1894	26.05	0.10	0.750			
0.4311	27593.13	3.7760	3.7761	1.2187	26.04	0.09	0.750			
0.4348	27829.84	3.7730	3.7730	1.2423	26.03	0.08	0.750			
0.4385	28065.72	3.7700	3.7700	1.2664	26.02	0.07	0.750			
0.4424	28311.23	3.7670	3.7671	1.3000	26.01	0.06	0.750			
0.4464	28567.84	3.7640	3.7636	1.3261	25.99	0.04	0.750	0.313	0.413	
0.4504	28824.69	3.7610	3.7612	1.3510	25.98	0.03	0.750			
0.4544	29084.77	3.7580	3.7581	1.3785	25.97	0.02	0.750			
0.4586	29353.59	3.7550	3.7549	1.4037	25.95	0.00	0.750			
0.4629	29624.01	3.7520	3.7518	1.4108	25.94	-0.01	0.750			
0.4672	29898.29	3.7490	3.7493	1.4475	25.93	-0.02	0.750			
0.4715	30177.31	3.7460	3.7459	1.4885	25.91	-0.04	0.750			
0.4760	30464.98	3.7430	3.7431	1.5244	25.90	-0.05	0.750			
0.4807	30764.27	3.7400	3.7400	1.5570	25.88	-0.07	0.750			
0.4854	31064.98	3.7370	3.7368	1.6017	25.87	-0.08	0.750			
0.4902	31373.03	3.7340	3.7342	1.6643	25.85	-0.10	0.750			
0.4953	31701.89	3.7310	3.7311	1.7025	25.84	-0.11	0.750			
0.5006	32036.22	3.7280	3.7282	1.7373	25.82	-0.13	0.750			
0.5058	32373.68	3.7250	3.7251	1.7740	25.82	-0.13	0.750			
0.5112	32716.66	3.7220	3.7222	1.8531	25.80	-0.15	0.750			
0.5168	33074.30	3.7190	3.7191	1.8904	25.79	-0.16	0.750			
0.5225	33441.34	3.7160	3.7160	1.9615	25.77	-0.18	0.750			
0.5285	33824.38	3.7130	3.7130	2.0211	25.75	-0.20	0.750			
0.5348	34226.49	3.7100	3.7096	2.0792	25.73	-0.22	0.750			
0.5412	34638.49	3.7070	3.7071	2.1205	25.71	-0.24	0.750			
0.5475	35042.30	3.7040	3.7040	2.1470	25.70	-0.25	0.750			
0.5539	35452.67	3.7010	3.7011	2.1933	25.68	-0.27	0.750			
0.5606	35875.65	3.6980	3.6980	2.2603	25.67	-0.28	0.750			
0.5674	36314.74	3.6950	3.6950	2.3616	25.66	-0.29	0.750			
0.5746	36775.73	3.6920	3.6920	2.4564	25.64	-0.31	0.750			
0.5821	37256.45	3.6890	3.6891	2.5832	25.63	-0.32	0.750			
0.5901	37769.42	3.6860	3.6861	2.6308	25.61	-0.34	0.750			
0.5981	38277.72	3.6830	3.6830	2.7160	25.60	-0.35	0.750			
0.6063	38803.88	3.6800	3.6795	2.7829	25.59	-0.36	0.750			
0.6148	39344.39	3.6770	3.6769	2.8673	25.58	-0.37	0.750			
0.6235	39906.45	3.6740	3.6739	2.9286	25.58	-0.37	0.750			
0.6326	40484.87	3.6710	3.6708	2.9600	25.57	-0.38	0.750			
0.6416	41059.70	3.6680	3.6683	2.9362	25.57	-0.38	0.750			
0.6506	41635.77	3.6650	3.6650	2.7996	25.57	-0.38	0.750			
0.6587	42159.84	3.6620	3.6622	2.5637	25.57	-0.38	0.750			
0.6662	42638.55	3.6590	3.6589	2.3762	25.58	-0.37	0.750			
0.6727	43054.55	3.6560	3.6562	2.1071	25.58	-0.37	0.750			
0.6786	43428.06	3.6530	3.6529	1.9020	25.58	-0.37	0.750			
0.6838	43762.62	3.6500	3.6497	1.7303	25.58	-0.37	0.750			
0.6887	44074.00	3.6470	3.6470	1.5961	25.59	-0.36	0.750			
0.6932	44364.16	3.6440	3.6441	1.4801	25.59	-0.36	0.750			
0.6974	44636.44	3.6410	3.6411	1.3837	25.60	-0.35	0.750			
0.7013	44886.17	3.6380	3.6380	1.3013	25.60	-0.35	0.750			
0.7051	45126.25	3.6350	3.6351	1.2488	25.60	-0.35	0.750			
0.7087	45354.97	3.6320	3.6319	1.2099	25.60	-0.35	0.750			
0.7122	45578.91	3.6290	3.6291	1.1900	25.60	-0.35	0.750			
0.7157	45804.40	3.6260	3.6260	1.1910	25.61	-0.34	0.750			
0.7193	46032.21	3.6230	3.6230	1.1997	25.62	-0.33	0.750			
0.7229	46265.17	3.6200	3.6199	1.1941	25.62	-0.33	0.750			
0.7265	46496.00	3.6170	3.6171	1.2074	25.62	-0.33	0.750			
0.7302	46731.84	3.6140	3.6140	1.2096	25.62	-0.33	0.750			
0.7339	46968.12	3.6110	3.6108	1.1912	25.62	-0.33	0.750			
0.7374	47193.53	3.6080	3.6082	1.1738	25.62	-0.33	0.750			
0.7409	47416.46	3.6050	3.6051	1.1664	25.63	-0.32	0.750			
0.7444	47638.87	3.6020	3.6020	1.1529	25.64	-0.31	0.750			
0.7478	47857.76	3.5990	3.5988	1.1273	25.64	-0.31	0.750			
0.7511	48069.86	3.5960	3.5962	1.1435	25.65	-0.30	0.750			
0.7545	48289.61	3.5930	3.5931	1.1605	25.65	-0.30	0.750			
0.7581	48517.10	3.5900	3.5898	1.1750	25.66	-0.29	0.750			
0.7616	48739.20	3.5870	3.5871	1.2061	25.66	-0.29	0.750			
0.7651	48968.91	3.5840	3.5842	1.2453	25.66	-0.29	0.750			
0.7689	49212.27	3.5810	3.5811	1.3028	25.67	-0.28	0.750			
0.7729	49462.43	3.5780	3.5778	1.3464	25.67	-0.28	0.750			
0.7770	49730.02	3.5750	3.5751	1.4078	25.67	-0.28	0.750			
0.7814	50011.33	3.5720	3.5717	1.4618	25.68	-0.27	0.750			
0.7859	50298.68	3.5690	3.5690	1.4956	25.68	-0.27	0.750			
0.7904	50585.07	3.5660	3.5663	1.5402	25.68	-0.27	0.750			
0.7951	50886.69	3.5630	3.5633	1.5847	25.67	-0.28	0.750			
0.7999	51195.34	3.5600	3.5603	1.5976	25.67	-0.28	0.750			
0.8048	51510.00	3.5570	3.5571	1.6250	25.68	-0.27	0.750			
0.8098	51828.69	3.5540	3.5542	1.6365	25.68	-0.27	0.750			
0.8148	52145.88	3.5510	3.5509	1.6619	25.69	-0.26	0.750			
0.8197	52460.76	3.5480	3.5480	1.6246	25.70	-0.25	0.750			
0.8246	52771.22	3.5450	3.5449	1.6389	25.70	-0.25	0.750			
0.8295	53089.51	3.5420	3.5420	1.6761	25.71	-0.24	0.750			
0.8346	53412.27	3.5390	3.5389	1.7206	25.72	-0.23	0.750			
0.8398	53745.40	3.5360	3.5362	1.7614	25.73	-0.22	0.750			
0.8452	54093.31	3.5330	3.5331	1.7402	25.74	-0.21	0.750			
0.8509	54458.73	3.5300	3.5302	1.6137	25.76	-0.19	0.750			
0.8561	54787.59	3.5270	3.5273	1.4464	25.78	-0.17	0.750			
0.8603	55060.15	3.5240	3.5245	1.2040	25.79	-0.16	0.750			
0.8635	55260.89	3.5210	3.5209	0.9158	25.81	-0.14	0.750			
0.8652	55375.30	3.5180	3.5176	0.6754	25.82	-0.13	0.750			
0.8665	55457.35	3.5150	3.5148	0.4904	25.82	-0.13	0.750			
0.8676	55528.76	3.5120	3.5120	0.4046	25.83	-0.12	0.750			
0.8687	55598.87	3.5090	3.5089	0.3631	25.83	-0.12	0.750			
0.8697	55660.67	3.5060	3.5061	0.3344	25.84	-0.11	0.750			
0.8707	55722.01	3.5030	3.5030	0.3172	25.84	-0.11	0.750			
0.8716	55780.59	3.5000	3.5000	0.3039	25.85	-0.10	0.750			
0.8725	55837.61	3.4970	3.4968	0.2952	25.85	-0.10	0.750			
0.8733	55893.10	3.4940	3.4941	0.2875	25.86	-0.09	0.750			
0.8742	55947.49	3.4910	3.4910	0.2789	25.86	-0.09	0.750			
0.8750	56000.66	3.4880	3.4881	0.2727	25.87	-0.08	0.750			
0.8758	56052.16	3.4850	3.4850	0.2657	25.88	-0.07	0.750			
0.8766	56101.79	3.4820	3.4820	0.2600	25.88	-0.07	0.750			
0.8774	56151.29	3.4790	3.4789	0.2546	25.89	-0.06	0.750			
0.8781	56199.56	3.4760	3.4760	0.2491	25.90	-0.05	0.750			
0.8789	56247.04	3.4730	3.4730	0.2448	25.90	-0.05	0.750			
0.8796	56294.09	3.4700	3.4700	0.2404	25.91	-0.04	0.750			
0.8803	56339.44	3.4670	3.4670	0.2344	25.91	-0.04	0.750			
0.8810	56383.99	3.4640	3.4640	0.2293	25.92	-0.03	0.750			
0.8817	56427.49	3.4610	3.4610	0.2238	25.93	-0.02	0.750			
0.8823	56469.55	3.4580	3.4580	0.2187	25.93	-0.02	0.750			
0.8830	56511.15	3.4550	3.4551	0.2143	25.94	-0.01	0.750			
0.8836	56551.92	3.4520	3.4519	0.2092	25.94	-0.01	0.750			
0.8842	56591.62	3.4490	3.4490	0.2045	25.95	-0.00	0.750			
0.8849	56630.47	3.4460	3.4461	0.1998	25.95	0.00	0.750			
0.8854	56668.45	3.4430	3.4430	0.1946	25.96	0.01	0.750			
0.8860	56705.46	3.4400	3.4400	0.1895	25.96	0.01	0.750			
0.8866	56741.31	3.4370	3.4370	0.1839	25.97	0.02	0.750			
0.8871	56775.95	3.4340	3.4341	0.1789	25.97	0.02	0.750			
0.8877	56809.76	3.4310	3.4310	0.1737	25.98	0.03	0.750			
0.8882	56842.69	3.4280	3.4280	0.1687	25.98	0.03	0.750			
0.8887	56874.58	3.4250	3.4250	0.1635	25.98	0.03	0.750			
0.8891	56905.35	3.4220	3.4221	0.1583	25.99	0.04	0.750			
0.8896	56935.65	3.4190	3.4190	0.1524	25.99	0.04	0.750			
0.8901	56964.55	3.4160	3.4158	0.1466	26.00	0.05	0.750			
0.8905	56991.95	3.4130	3.4131	0.1410	26.00	0.05	0.750			
0.8909	57018.37	3.4100	3.4101	0.1349	26.00	0.05	0.750			
0.8913	57043.91	3.4070	3.4070	0.1282	26.01	0.06	0.750			
0.8917	57067.92	3.4040	3.4037	0.1216	26.01	0.06	0.750			
0.8920	57090.74	3.4010	3.4011	0.1144	26.01	0.06	0.750			
0.8924	57112.09	3.3980	3.3981	0.1074	26.01	0.06	0.750			
0.8927	57133.41	3.3950	3.3948	0.0985	26.02	0.07	0.750			
0.8930	57151.30	3.3920	3.3919	0.0879	26.02	0.07	0.750			
0.8932	57167.56	3.3890	3.3890	0.0781	26.02	0.07	0.750			
0.8935	57181.50	3.3860	3.3864	0.0670	26.02	0.07	0.750			
0.8937	57194.65	3.3830	3.3833	0.0563	26.03	0.08	0.750			
0.8938	57204.22	3.3800	3.3809	0.0434	26.03	0.08	0.750			
0.8939	57211.30	3.3770	3.3782	0.0304	26.03	0.08	0.750			
0.8940	57215.90	3.3740	3.3762	0.0175	26.03	0.08	0.750			
