Ah_balance (normalized)	Ah_balance (mAh)	Voltage - fit (V)	Voltage -  interpolate (V)	dQ/dV (1/V)	Temperature (°C)	Temperature - diff (°C)	Current (C)	R_DC 0ms (mOhm)	R_DC 50ms (mOhm)	R_DC 50 ms PEC (mOhm)
0.0001	7.30	4.1620	4.1622	-0.0982	25.84	0.01	-0.750			
0.0005	29.37	4.1590	4.1590	-0.1347	25.84	0.01	-0.750			
0.0009	59.54	4.1560	4.1560	-0.1760	25.84	0.01	-0.750			
0.0015	97.69	4.1530	4.1530	-0.2148	25.84	0.01	-0.750			
0.0022	142.78	4.1500	4.1499	-0.2541	25.83	0.00	-0.750			
0.0031	195.43	4.1470	4.1471	-0.2912	25.83	0.00	-0.750			
0.0040	256.48	4.1440	4.1439	-0.3219	25.83	0.00	-0.750			
0.0050	322.06	4.1410	4.1409	-0.3550	25.83	0.00	-0.750			
0.0062	393.80	4.1380	4.1380	-0.3845	25.83	-0.00	-0.750			
0.0073	469.83	4.1350	4.1350	-0.4140	25.83	-0.00	-0.750			
0.0086	552.35	4.1320	4.1319	-0.4422	25.82	-0.01	-0.750			
0.0100	639.68	4.1290	4.1291	-0.4681	25.82	-0.01	-0.750			
0.0115	733.33	4.1260	4.1260	-0.4956	25.82	-0.01	-0.750			
0.0130	832.29	4.1230	4.1231	-0.5183	25.82	-0.01	-0.750			
0.0146	934.97	4.1200	4.1199	-0.5349	25.82	-0.01	-0.750			
0.0163	1040.07	4.1170	4.1170	-0.5505	25.81	-0.02	-0.750			
0.0179	1147.59	4.1140	4.1142	-0.5626	25.81	-0.02	-0.750			
0.0196	1256.63	4.1110	4.1111	-0.5771	25.81	-0.02	-0.750			
0.0214	1369.19	4.1080	4.1079	-0.5880	25.80	-0.03	-0.750			
0.0232	1482.93	4.1050	4.1050	-0.5971	25.80	-0.03	-0.750			
0.0250	1598.91	4.1020	4.1020	-0.6107	25.79	-0.04	-0.750			
0.0268	1717.80	4.0990	4.0990	-0.6186	25.79	-0.04	-0.750			
0.0287	1837.86	4.0960	4.0960	-0.6280	25.78	-0.05	-0.750			
0.0306	1959.33	4.0930	4.0931	-0.6357	25.78	-0.05	-0.750			
0.0325	2082.21	4.0900	4.0900	-0.6401	25.78	-0.05	-0.750			
0.0345	2206.50	4.0870	4.0870	-0.6455	25.78	-0.05	-0.750			
0.0364	2330.13	4.0840	4.0841	-0.6538	25.78	-0.05	-0.750			
0.0384	2456.49	4.0810	4.0810	-0.6595	25.77	-0.06	-0.750			
0.0404	2584.79	4.0780	4.0778	-0.6619	25.77	-0.06	-0.750			
0.0424	2712.07	4.0750	4.0751	-0.6636	25.77	-0.06	-0.750			
0.0444	2839.32	4.0720	4.0720	-0.6700	25.77	-0.06	-0.750			
0.0464	2969.71	4.0690	4.0690	-0.6739	25.76	-0.07	-0.750			
0.0484	3098.76	4.0660	4.0659	-0.6769	25.76	-0.07	-0.750			
0.0504	3226.96	4.0630	4.0630	-0.6776	25.76	-0.07	-0.750			
0.0525	3359.52	4.0600	4.0601	-0.6859	25.75	-0.08	-0.750			
0.0546	3491.73	4.0570	4.0569	-0.6910	25.75	-0.08	-0.750			
0.0566	3624.96	4.0540	4.0539	-0.6944	25.75	-0.08	-0.750			
0.0587	3758.27	4.0510	4.0510	-0.6970	25.75	-0.08	-0.750			
0.0608	3893.52	4.0480	4.0479	-0.7020	25.75	-0.08	-0.750			
0.0629	4028.36	4.0450	4.0450	-0.7019	25.75	-0.08	-0.750			
0.0651	4163.87	4.0420	4.0420	-0.7041	25.75	-0.08	-0.750			
0.0672	4299.03	4.0390	4.0389	-0.7033	25.75	-0.08	-0.750			
0.0693	4433.72	4.0360	4.0360	-0.7032	25.75	-0.08	-0.750			
0.0714	4568.22	4.0330	4.0330	-0.7067	25.75	-0.08	-0.750			
0.0735	4704.37	4.0300	4.0300	-0.7128	25.75	-0.08	-0.750			
0.0757	4841.71	4.0270	4.0269	-0.7182	25.75	-0.08	-0.750			
0.0778	4981.46	4.0240	4.0239	-0.7194	25.75	-0.08	-0.750			
0.0800	5120.10	4.0210	4.0213	-0.7184	25.75	-0.08	-0.750			
0.0822	5258.67	4.0180	4.0179	-0.7198	25.75	-0.08	-0.750			
0.0843	5396.17	4.0150	4.0149	-0.7174	25.75	-0.08	-0.750			
0.0864	5531.17	4.0120	4.0120	-0.7164	25.75	-0.08	-0.750			
0.0886	5668.70	4.0090	4.0090	-0.7211	25.75	-0.08	-0.750			
0.0908	5809.40	4.0060	4.0060	-0.7265	25.75	-0.08	-0.750			
0.0930	5949.74	4.0030	4.0030	-0.7327	25.75	-0.08	-0.750			
0.0952	6091.08	4.0000	4.0000	-0.7360	25.75	-0.08	-0.750			
0.0974	6232.36	3.9970	3.9970	-0.7396	25.75	-0.08	-0.750			
0.0996	6375.10	3.9940	3.9940	-0.7386	25.75	-0.08	-0.750			
0.1018	6517.00	3.9910	3.9911	-0.7401	25.75	-0.08	-0.750			
0.1040	6659.00	3.9880	3.9880	-0.7382	25.75	-0.08	-0.750			
0.1063	6801.37	3.9850	3.9849	-0.7381	25.75	-0.08	-0.750			
0.1085	6941.54	3.9820	3.9820	-0.7397	25.75	-0.08	-0.750			
0.1107	7083.61	3.9790	3.9790	-0.7442	25.75	-0.08	-0.750			
0.1129	7227.73	3.9760	3.9760	-0.7423	25.76	-0.07	-0.750			
0.1152	7371.24	3.9730	3.9730	-0.7492	25.76	-0.07	-0.750			
0.1174	7514.78	3.9700	3.9701	-0.7509	25.76	-0.07	-0.750			
0.1197	7659.44	3.9670	3.9668	-0.7532	25.76	-0.07	-0.750			
0.1219	7803.29	3.9640	3.9640	-0.7538	25.76	-0.07	-0.750			
0.1242	7947.42	3.9610	3.9611	-0.7530	25.77	-0.06	-0.750			
0.1264	8091.26	3.9580	3.9580	-0.7587	25.77	-0.06	-0.750			
0.1288	8240.65	3.9550	3.9550	-0.7631	25.77	-0.06	-0.750			
0.1310	8385.59	3.9520	3.9520	-0.7628	25.77	-0.06	-0.750			
0.1333	8533.15	3.9490	3.9490	-0.7642	25.77	-0.06	-0.750			
0.1356	8680.13	3.9460	3.9460	-0.7690	25.77	-0.06	-0.750			
0.1379	8827.42	3.9430	3.9431	-0.7720	25.78	-0.05	-0.750			
0.1403	8976.72	3.9400	3.9399	-0.7723	25.78	-0.05	-0.750			
0.1426	9124.52	3.9370	3.9369	-0.7710	25.78	-0.05	-0.750			
0.1449	9273.26	3.9340	3.9340	-0.7733	25.78	-0.05	-0.750			
0.1472	9420.29	3.9310	3.9310	-0.7770	25.78	-0.05	-0.750			
0.1495	9570.14	3.9280	3.9280	-0.7793	25.79	-0.04	-0.750			
0.1519	9720.54	3.9250	3.9249	-0.7800	25.79	-0.04	-0.750			
0.1542	9870.71	3.9220	3.9219	-0.7810	25.79	-0.04	-0.750			
0.1566	10021.56	3.9190	3.9190	-0.7829	25.79	-0.04	-0.750			
0.1589	10171.72	3.9160	3.9160	-0.7851	25.79	-0.04	-0.750			
0.1613	10322.20	3.9130	3.9128	-0.7844	25.79	-0.04	-0.750			
0.1636	10471.23	3.9100	3.9100	-0.7860	25.79	-0.04	-0.750			
0.1660	10623.43	3.9070	3.9070	-0.7921	25.79	-0.04	-0.750			
0.1684	10776.18	3.9040	3.9041	-0.7950	25.79	-0.04	-0.750			
0.1708	10930.97	3.9010	3.9011	-0.7975	25.79	-0.04	-0.750			
0.1732	11083.70	3.8980	3.8979	-0.8016	25.80	-0.03	-0.750			
0.1756	11238.97	3.8950	3.8950	-0.8000	25.80	-0.03	-0.750			
0.1780	11392.70	3.8920	3.8919	-0.7999	25.81	-0.02	-0.750			
0.1804	11545.22	3.8890	3.8893	-0.7999	25.81	-0.02	-0.750			
0.1828	11699.56	3.8860	3.8860	-0.8007	25.81	-0.02	-0.750			
0.1852	11852.57	3.8830	3.8829	-0.8032	25.81	-0.02	-0.750			
0.1876	12006.92	3.8800	3.8800	-0.8017	25.81	-0.02	-0.750			
0.1900	12162.03	3.8770	3.8770	-0.8040	25.81	-0.02	-0.750			
0.1924	12316.28	3.8740	3.8740	-0.8021	25.81	-0.02	-0.750			
0.1948	12469.27	3.8710	3.8711	-0.8009	25.81	-0.02	-0.750			
0.1972	12621.79	3.8680	3.8680	-0.8036	25.81	-0.02	-0.750			
0.1996	12776.12	3.8650	3.8650	-0.8051	25.82	-0.01	-0.750			
0.2021	12931.30	3.8620	3.8619	-0.8058	25.82	-0.01	-0.750			
0.2045	13087.34	3.8590	3.8591	-0.8118	25.82	-0.01	-0.750			
0.2069	13243.29	3.8560	3.8561	-0.8126	25.82	-0.01	-0.750			
0.2094	13400.04	3.8530	3.8529	-0.8149	25.83	-0.00	-0.750			
0.2118	13557.73	3.8500	3.8499	-0.8109	25.83	0.00	-0.750			
0.2143	13712.31	3.8470	3.8470	-0.8064	25.83	0.00	-0.750			
0.2167	13867.39	3.8440	3.8438	-0.8087	25.84	0.01	-0.750			
0.2191	14022.26	3.8410	3.8410	-0.8058	25.84	0.01	-0.750			
0.2215	14174.80	3.8380	3.8379	-0.8112	25.85	0.02	-0.750			
0.2239	14331.10	3.8350	3.8350	-0.8087	25.85	0.02	-0.750			
0.2263	14485.60	3.8320	3.8320	-0.8045	25.85	0.02	-0.750			
0.2288	14644.59	3.8290	3.8289	-0.8118	25.86	0.03	-0.750			
0.2312	14799.30	3.8260	3.8261	-0.8056	25.86	0.03	-0.750			
0.2336	14952.03	3.8230	3.8229	-0.8062	25.86	0.03	-0.750			
0.2360	15106.64	3.8200	3.8200	-0.8027	25.86	0.03	-0.750			
0.2384	15259.56	3.8170	3.8170	-0.7932	25.87	0.04	-0.750			
0.2408	15413.87	3.8140	3.8140	-0.7976	25.87	0.04	-0.750			
0.2432	15567.97	3.8110	3.8111	-0.7917	25.87	0.04	-0.750			
0.2456	15718.47	3.8080	3.8080	-0.7872	25.87	0.04	-0.750			
0.2479	15868.19	3.8050	3.8050	-0.7843	25.88	0.05	-0.750			
0.2503	16017.90	3.8020	3.8019	-0.7820	25.88	0.05	-0.750			
0.2526	16168.75	3.7990	3.7990	-0.7823	25.89	0.06	-0.750			
0.2550	16319.25	3.7960	3.7960	-0.7777	25.89	0.06	-0.750			
0.2573	16467.68	3.7930	3.7930	-0.7747	25.89	0.06	-0.750			
0.2596	16616.99	3.7900	3.7899	-0.7736	25.89	0.06	-0.750			
0.2619	16763.41	3.7870	3.7870	-0.7681	25.89	0.06	-0.750			
0.2642	16910.92	3.7840	3.7840	-0.7669	25.89	0.06	-0.750			
0.2666	17059.30	3.7810	3.7810	-0.7646	25.89	0.06	-0.750			
0.2688	17205.64	3.7780	3.7780	-0.7637	25.89	0.06	-0.750			
0.2711	17352.00	3.7750	3.7751	-0.7630	25.90	0.07	-0.750			
0.2734	17497.86	3.7720	3.7720	-0.7594	25.90	0.07	-0.750			
0.2757	17643.88	3.7690	3.7689	-0.7546	25.90	0.07	-0.750			
0.2779	17788.32	3.7660	3.7660	-0.7520	25.91	0.08	-0.750			
0.2802	17932.25	3.7630	3.7631	-0.7485	25.91	0.08	-0.750			
0.2824	18074.96	3.7600	3.7600	-0.7454	25.91	0.08	-0.750			
0.2846	18215.59	3.7570	3.7570	-0.7479	25.92	0.09	-0.750			
0.2869	18359.63	3.7540	3.7540	-0.7535	25.92	0.09	-0.750			
0.2891	18504.30	3.7510	3.7508	-0.7591	25.92	0.09	-0.750			
0.2914	18651.40	3.7480	3.7480	-0.7677	25.93	0.10	-0.750			
0.2937	18799.80	3.7450	3.7451	-0.7731	25.93	0.10	-0.750			
0.2961	18949.32	3.7420	3.7420	-0.7814	25.93	0.10	-0.750			
0.2984	19100.05	3.7390	3.7390	-0.7868	25.93	0.10	-0.750			
0.3008	19249.64	3.7360	3.7360	-0.7899	25.93	0.10	-0.750			
0.3032	19403.37	3.7330	3.7330	-0.7982	25.93	0.10	-0.750			
0.3056	19556.89	3.7300	3.7301	-0.8052	25.93	0.10	-0.750			
0.3080	19710.63	3.7270	3.7271	-0.8170	25.93	0.10	-0.750			
0.3104	19868.44	3.7240	3.7240	-0.8325	25.94	0.11	-0.750			
0.3130	20030.04	3.7210	3.7209	-0.8413	25.94	0.11	-0.750			
0.3155	20192.24	3.7180	3.7180	-0.8571	25.95	0.12	-0.750			
0.3181	20358.36	3.7150	3.7152	-0.8709	25.95	0.12	-0.750			
0.3207	20526.66	3.7120	3.7119	-0.8937	25.95	0.12	-0.750			
0.3235	20701.04	3.7090	3.7089	-0.9013	25.94	0.11	-0.750			
0.3262	20873.63	3.7060	3.7060	-0.9106	25.94	0.11	-0.750			
0.3289	21050.38	3.7030	3.7031	-0.9357	25.93	0.10	-0.750			
0.3317	21231.59	3.7000	3.6999	-0.9545	25.93	0.10	-0.750			
0.3346	21416.15	3.6970	3.6969	-0.9718	25.93	0.10	-0.750			
0.3376	21605.99	3.6940	3.6939	-0.9900	25.93	0.10	-0.750			
0.3406	21797.37	3.6910	3.6911	-1.0023	25.93	0.10	-0.750			
0.3437	21993.76	3.6880	3.6881	-1.0278	25.93	0.10	-0.750			
0.3468	22192.14	3.6850	3.6850	-1.0405	25.92	0.09	-0.750			
0.3499	22392.12	3.6820	3.6819	-1.0509	25.92	0.09	-0.750			
0.3530	22593.80	3.6790	3.6790	-1.0623	25.91	0.08	-0.750			
0.3563	22800.47	3.6760	3.6762	-1.0993	25.91	0.08	-0.750			
0.3596	23014.12	3.6730	3.6730	-1.1197	25.90	0.07	-0.750			
0.3630	23229.93	3.6700	3.6700	-1.1466	25.90	0.07	-0.750			
0.3664	23451.00	3.6670	3.6669	-1.1688	25.89	0.06	-0.750			
0.3700	23680.84	3.6640	3.6640	-1.2025	25.89	0.06	-0.750			
0.3737	23916.58	3.6610	3.6609	-1.2237	25.88	0.05	-0.750			
0.3774	24152.60	3.6580	3.6580	-1.2404	25.87	0.04	-0.750			
0.3811	24390.40	3.6550	3.6552	-1.2635	25.87	0.04	-0.750			
0.3850	24638.90	3.6520	3.6518	-1.2951	25.86	0.03	-0.750			
0.3889	24887.90	3.6490	3.6490	-1.3161	25.86	0.03	-0.750			
0.3929	25143.06	3.6460	3.6463	-1.3454	25.85	0.02	-0.750			
0.3970	25407.34	3.6430	3.6430	-1.3884	25.84	0.01	-0.750			
0.4012	25676.09	3.6400	3.6399	-1.4218	25.84	0.01	-0.750			
0.4056	25956.10	3.6370	3.6370	-1.4353	25.83	-0.00	-0.750			
0.4099	26234.17	3.6340	3.6342	-1.4717	25.82	-0.01	-0.750			
0.4143	26517.62	3.6310	3.6309	-1.4939	25.82	-0.01	-0.750			
0.4188	26803.89	3.6280	3.6280	-1.5190	25.81	-0.02	-0.750			
0.4234	27096.88	3.6250	3.6248	-1.5442	25.80	-0.03	-0.750			
0.4280	27394.07	3.6220	3.6221	-1.5723	25.79	-0.04	-0.750			
0.4329	27704.44	3.6190	3.6188	-1.6073	25.79	-0.04	-0.750			
0.4378	28019.19	3.6160	3.6162	-1.6578	25.78	-0.05	-0.750	0.406	0.548	
0.4427	28333.72	3.6130	3.6132	-1.6704	25.78	-0.05	-0.750			
0.4478	28658.11	3.6100	3.6101	-1.7063	25.77	-0.06	-0.750			
0.4530	28990.27	3.6070	3.6069	-1.7226	25.76	-0.07	-0.750			
0.4582	29325.93	3.6040	3.6038	-1.7660	25.76	-0.07	-0.750			
0.4636	29668.26	3.6010	3.6007	-1.7928	25.75	-0.08	-0.750			
0.4689	30009.43	3.5980	3.5980	-1.8329	25.74	-0.09	-0.750			
0.4745	30369.17	3.5950	3.5949	-1.8468	25.73	-0.10	-0.750			
0.4801	30727.47	3.5920	3.5922	-1.8813	25.72	-0.11	-0.750			
0.4858	31093.25	3.5890	3.5891	-1.9096	25.72	-0.11	-0.750			
0.4917	31466.36	3.5860	3.5858	-1.9810	25.71	-0.12	-0.750			
0.4976	31848.42	3.5830	3.5830	-1.9977	25.71	-0.12	-0.750			
0.5037	32235.27	3.5800	3.5801	-2.0579	25.70	-0.13	-0.750			
0.5100	32640.71	3.5770	3.5769	-2.0745	25.70	-0.13	-0.750			
0.5164	33047.02	3.5740	3.5742	-2.1338	25.69	-0.14	-0.750			
0.5228	33456.53	3.5710	3.5709	-2.1504	25.69	-0.14	-0.750			
0.5292	33871.80	3.5680	3.5678	-2.1540	25.68	-0.15	-0.750			
0.5357	34284.24	3.5650	3.5651	-2.1719	25.68	-0.15	-0.750			
0.5423	34709.09	3.5620	3.5619	-2.1905	25.68	-0.15	-0.750			
0.5489	35128.52	3.5590	3.5593	-2.2050	25.68	-0.15	-0.750			
0.5556	35558.68	3.5560	3.5561	-2.2264	25.67	-0.16	-0.750			
0.5623	35985.42	3.5530	3.5529	-2.2050	25.66	-0.17	-0.750			
0.5690	36415.35	3.5500	3.5500	-2.1886	25.66	-0.17	-0.750			
0.5756	36839.94	3.5470	3.5471	-2.1897	25.67	-0.16	-0.750			
0.5820	37249.63	3.5440	3.5440	-2.1750	25.67	-0.16	-0.750			
0.5885	37664.53	3.5410	3.5410	-2.1539	25.68	-0.15	-0.750			
0.5950	38077.39	3.5380	3.5378	-2.1222	25.68	-0.15	-0.750			
0.6013	38485.65	3.5350	3.5351	-2.1199	25.69	-0.14	-0.750			
0.6078	38896.36	3.5320	3.5320	-2.0968	25.69	-0.14	-0.750			
0.6140	39299.03	3.5290	3.5291	-2.0677	25.70	-0.13	-0.750			
0.6201	39686.67	3.5260	3.5261	-2.0305	25.70	-0.13	-0.750			
0.6262	40075.40	3.5230	3.5230	-2.0018	25.71	-0.12	-0.750			
0.6322	40462.38	3.5200	3.5200	-1.9583	25.72	-0.11	-0.750			
0.6381	40836.66	3.5170	3.5171	-1.9043	25.74	-0.09	-0.750			
0.6438	41202.27	3.5140	3.5142	-1.8435	25.75	-0.08	-0.750			
0.6492	41550.05	3.5110	3.5109	-1.7852	25.76	-0.07	-0.750			
0.6544	41882.55	3.5080	3.5080	-1.7169	25.77	-0.06	-0.750			
0.6594	42198.65	3.5050	3.5051	-1.6628	25.78	-0.05	-0.750			
0.6643	42517.40	3.5020	3.5020	-1.6220	25.78	-0.05	-0.750			
0.6692	42827.63	3.4990	3.4990	-1.5581	25.80	-0.03	-0.750			
0.6738	43124.17	3.4960	3.4959	-1.4960	25.81	-0.02	-0.750			
0.6782	43404.84	3.4930	3.4931	-1.4434	25.83	0.00	-0.750			
0.6824	43672.23	3.4900	3.4900	-1.3889	25.85	0.02	-0.750			
0.6864	43930.31	3.4870	3.4868	-1.3421	25.86	0.03	-0.750			
0.6903	44176.53	3.4840	3.4838	-1.2958	25.87	0.04	-0.750			
0.6941	44424.75	3.4810	3.4811	-1.2723	25.89	0.06	-0.750			
0.6980	44671.49	3.4780	3.4780	-1.2461	25.90	0.07	-0.750			
0.7017	44910.67	3.4750	3.4750	-1.2133	25.92	0.09	-0.750			
0.7052	45135.65	3.4720	3.4722	-1.1708	25.93	0.10	-0.750			
0.7087	45359.97	3.4690	3.4690	-1.1411	25.94	0.11	-0.750			
0.7121	45575.07	3.4660	3.4660	-1.0958	25.96	0.13	-0.750			
0.7154	45782.61	3.4630	3.4629	-1.0531	25.97	0.14	-0.750			
0.7185	45981.49	3.4600	3.4602	-1.0195	25.98	0.15	-0.750			
0.7214	46172.33	3.4570	3.4569	-0.9926	25.99	0.16	-0.750			
0.7243	46357.75	3.4540	3.4539	-0.9590	26.01	0.18	-0.750			
0.7272	46538.85	3.4510	3.4510	-0.9307	26.02	0.19	-0.750			
0.7299	46715.19	3.4480	3.4482	-0.9111	26.03	0.20	-0.750			
0.7326	46888.42	3.4450	3.4450	-0.8945	26.04	0.21	-0.750			
0.7353	47058.02	3.4420	3.4419	-0.8801	26.05	0.22	-0.750			
0.7378	47222.03	3.4390	3.4389	-0.8650	26.07	0.24	-0.750			
0.7404	47385.12	3.4360	3.4360	-0.8626	26.08	0.25	-0.750			
0.7430	47549.08	3.4330	3.4332	-0.8684	26.09	0.26	-0.750			
0.7455	47715.00	3.4300	3.4298	-0.8811	26.10	0.27	-0.750			
0.7482	47883.48	3.4270	3.4270	-0.8887	26.11	0.28	-0.750			
0.7509	48056.00	3.4240	3.4240	-0.9010	26.12	0.29	-0.750			
0.7537	48233.66	3.4210	3.4210	-0.9174	26.12	0.29	-0.750			
0.7564	48410.95	3.4180	3.4181	-0.9240	26.13	0.30	-0.750			
0.7592	48588.02	3.4150	3.4150	-0.9293	26.14	0.31	-0.750			
0.7620	48767.85	3.4120	3.4120	-0.9308	26.15	0.32	-0.750			
0.7648	48946.77	3.4090	3.4090	-0.9286	26.16	0.33	-0.750			
0.7676	49126.59	3.4060	3.4062	-0.9306	26.17	0.34	-0.750			
0.7704	49306.75	3.4030	3.4030	-0.9210	26.18	0.35	-0.750			
0.7732	49484.54	3.4000	3.4000	-0.8989	26.18	0.35	-0.750			
0.7759	49656.09	3.3970	3.3970	-0.8772	26.19	0.36	-0.750			
0.7785	49824.40	3.3940	3.3939	-0.8536	26.20	0.37	-0.750			
0.7810	49984.67	3.3910	3.3911	-0.8241	26.20	0.37	-0.750			
0.7834	50138.72	3.3880	3.3879	-0.7963	26.21	0.38	-0.750			
0.7857	50287.40	3.3850	3.3850	-0.7670	26.22	0.39	-0.750			
0.7880	50431.67	3.3820	3.3819	-0.7396	26.23	0.40	-0.750			
0.7902	50573.42	3.3790	3.3790	-0.7168	26.24	0.41	-0.750			
0.7923	50708.49	3.3760	3.3760	-0.6897	26.25	0.42	-0.750			
0.7944	50839.25	3.3730	3.3730	-0.6629	26.26	0.43	-0.750			
0.7963	50962.33	3.3700	3.3699	-0.6365	26.26	0.43	-0.750			
0.7981	51081.53	3.3670	3.3670	-0.6166	26.27	0.44	-0.750			
0.7999	51196.62	3.3640	3.3640	-0.5963	26.27	0.44	-0.750			
0.8017	51309.82	3.3610	3.3609	-0.5781	26.28	0.45	-0.750			
0.8034	51419.68	3.3580	3.3580	-0.5558	26.28	0.45	-0.750			
0.8051	51524.87	3.3550	3.3551	-0.5354	26.29	0.46	-0.750			
0.8066	51625.46	3.3520	3.3521	-0.5181	26.30	0.47	-0.750			
0.8081	51721.49	3.3490	3.3489	-0.4967	26.30	0.47	-0.750			
0.8096	51814.64	3.3460	3.3460	-0.4826	26.31	0.48	-0.750			
0.8110	51905.63	3.3430	3.3431	-0.4683	26.32	0.49	-0.750			
0.8124	51995.10	3.3400	3.3400	-0.4541	26.32	0.49	-0.750			
0.8138	52081.43	3.3370	3.3370	-0.4394	26.33	0.50	-0.750			
0.8151	52163.93	3.3340	3.3340	-0.4231	26.34	0.51	-0.750			
0.8163	52242.94	3.3310	3.3310	-0.4088	26.34	0.51	-0.750			
0.8175	52319.57	3.3280	3.3280	-0.3959	26.35	0.52	-0.750			
0.8187	52393.87	3.3250	3.3250	-0.3829	26.36	0.53	-0.750			
0.8198	52466.05	3.3220	3.3220	-0.3730	26.36	0.53	-0.750			
0.8209	52536.89	3.3190	3.3190	-0.3631	26.37	0.54	-0.750			
0.8220	52605.79	3.3160	3.3159	-0.3532	26.37	0.54	-0.750			
0.8230	52672.08	3.3130	3.3130	-0.3447	26.38	0.55	-0.750			
0.8240	52737.39	3.3100	3.3101	-0.3359	26.39	0.56	-0.750			
0.8250	52801.31	3.3070	3.3069	-0.3273	26.39	0.56	-0.750			
0.8260	52863.82	3.3040	3.3040	-0.3191	26.40	0.57	-0.750			
0.8269	52923.44	3.3010	3.3011	-0.3102	26.40	0.57	-0.750			
0.8278	52982.39	3.2980	3.2980	-0.3022	26.41	0.58	-0.750			
0.8287	53039.45	3.2950	3.2950	-0.2940	26.41	0.58	-0.750			
0.8296	53094.44	3.2920	3.2920	-0.2867	26.42	0.59	-0.750			
0.8305	53149.23	3.2890	3.2891	-0.2811	26.42	0.59	-0.750			
0.8313	53202.44	3.2860	3.2860	-0.2757	26.43	0.60	-0.750			
0.8321	53254.67	3.2830	3.2830	-0.2704	26.43	0.60	-0.750			
0.8329	53306.21	3.2800	3.2801	-0.2641	26.44	0.61	-0.750			
0.8337	53356.87	3.2770	3.2769	-0.2595	26.45	0.62	-0.750			
0.8345	53405.44	3.2740	3.2740	-0.2545	26.45	0.62	-0.750			
0.8352	53453.78	3.2710	3.2711	-0.2498	26.46	0.63	-0.750			
0.8360	53500.93	3.2680	3.2679	-0.2454	26.47	0.64	-0.750			
0.8367	53547.90	3.2650	3.2649	-0.2415	26.47	0.64	-0.750			
0.8374	53593.49	3.2620	3.2620	-0.2373	26.48	0.65	-0.750			
0.8381	53638.86	3.2590	3.2591	-0.2343	26.48	0.65	-0.750			
0.8388	53683.99	3.2560	3.2560	-0.2313	26.49	0.66	-0.750			
0.8395	53727.74	3.2530	3.2530	-0.2274	26.49	0.66	-0.750			
0.8402	53770.69	3.2500	3.2500	-0.2230	26.50	0.67	-0.750			
0.8408	53813.32	3.2470	3.2470	-0.2198	26.50	0.67	-0.750			
0.8415	53855.37	3.2440	3.2440	-0.2168	26.51	0.68	-0.750			
0.8421	53896.97	3.2410	3.2411	-0.2131	26.52	0.69	-0.750			
0.8428	53937.28	3.2380	3.2381	-0.2093	26.52	0.69	-0.750			
0.8434	53977.16	3.2350	3.2350	-0.2056	26.53	0.70	-0.750			
0.8440	54016.31	3.2320	3.2320	-0.2019	26.53	0.70	-0.750			
0.8446	54054.35	3.2290	3.2290	-0.1993	26.54	0.71	-0.750			
0.8452	54092.01	3.2260	3.2261	-0.1974	26.54	0.71	-0.750			
0.8458	54129.59	3.2230	3.2230	-0.1952	26.55	0.72	-0.750			
0.8464	54166.97	3.2200	3.2200	-0.1941	26.55	0.72	-0.750			
0.8469	54204.34	3.2170	3.2170	-0.1920	26.56	0.73	-0.750			
0.8475	54241.31	3.2140	3.2141	-0.1897	26.57	0.74	-0.750			
0.8481	54278.01	3.2110	3.2110	-0.1878	26.57	0.74	-0.750			
0.8486	54313.59	3.2080	3.2080	-0.1845	26.58	0.75	-0.750			
0.8492	54348.30	3.2050	3.2050	-0.1824	26.58	0.75	-0.750			
0.8497	54382.54	3.2020	3.2020	-0.1804	26.59	0.76	-0.750			
0.8503	54417.10	3.1990	3.1990	-0.1796	26.59	0.76	-0.750			
0.8508	54451.37	3.1960	3.1959	-0.1777	26.60	0.77	-0.750			
0.8513	54485.62	3.1930	3.1930	-0.1761	26.60	0.77	-0.750			
0.8519	54519.69	3.1900	3.1900	-0.1745	26.61	0.78	-0.750			
0.8524	54552.94	3.1870	3.1870	-0.1719	26.61	0.78	-0.750			
0.8529	54585.83	3.1840	3.1840	-0.1700	26.62	0.79	-0.750			
0.8534	54618.04	3.1810	3.1811	-0.1671	26.62	0.79	-0.750			
0.8539	54649.67	3.1780	3.1780	-0.1646	26.63	0.80	-0.750			
0.8544	54681.10	3.1750	3.1749	-0.1628	26.63	0.80	-0.750			
0.8549	54712.21	3.1720	3.1720	-0.1614	26.64	0.81	-0.750			
0.8554	54742.93	3.1690	3.1690	-0.1598	26.64	0.81	-0.750			
0.8558	54773.38	3.1660	3.1660	-0.1586	26.65	0.82	-0.750			
0.8563	54803.72	3.1630	3.1630	-0.1575	26.65	0.82	-0.750			
0.8568	54833.76	3.1600	3.1599	-0.1559	26.66	0.83	-0.750			
0.8572	54863.67	3.1570	3.1570	-0.1552	26.66	0.83	-0.750			
0.8577	54893.42	3.1540	3.1539	-0.1538	26.67	0.84	-0.750			
0.8582	54922.82	3.1510	3.1511	-0.1525	26.67	0.84	-0.750			
0.8586	54951.93	3.1480	3.1480	-0.1512	26.68	0.85	-0.750			
0.8591	54980.82	3.1450	3.1450	-0.1502	26.69	0.86	-0.750			
0.8595	55009.60	3.1420	3.1420	-0.1487	26.69	0.86	-0.750			
0.8600	55038.01	3.1390	3.1390	-0.1473	26.70	0.87	-0.750			
0.8604	55066.30	3.1360	3.1360	-0.1461	26.70	0.87	-0.750			
0.8608	55094.06	3.1330	3.1331	-0.1446	26.71	0.88	-0.750			
0.8613	55121.93	3.1300	3.1300	-0.1434	26.71	0.88	-0.750			
0.8617	55149.30	3.1270	3.1269	-0.1417	26.72	0.89	-0.750			
0.8621	55176.22	3.1240	3.1240	-0.1405	26.72	0.89	-0.750			
0.8625	55202.93	3.1210	3.1210	-0.1392	26.73	0.90	-0.750			
0.8630	55229.61	3.1180	3.1180	-0.1383	26.73	0.90	-0.750			
0.8634	55256.09	3.1150	3.1149	-0.1368	26.74	0.91	-0.750			
0.8638	55282.22	3.1120	3.1120	-0.1354	26.74	0.91	-0.750			
0.8642	55308.10	3.1090	3.1091	-0.1341	26.75	0.92	-0.750			
0.8646	55333.65	3.1060	3.1060	-0.1339	26.75	0.92	-0.750			
0.8650	55359.42	3.1030	3.1029	-0.1324	26.76	0.93	-0.750			
0.8654	55384.62	3.1000	3.0999	-0.1310	26.76	0.93	-0.750			
0.8658	55409.60	3.0970	3.0970	-0.1303	26.77	0.94	-0.750			
0.8662	55434.49	3.0940	3.0941	-0.1298	26.78	0.95	-0.750			
0.8666	55459.42	3.0910	3.0910	-0.1293	26.78	0.95	-0.750			
0.8669	55484.19	3.0880	3.0878	-0.1285	26.79	0.96	-0.750			
0.8673	55508.79	3.0850	3.0850	-0.1278	26.79	0.96	-0.750			
0.8677	55533.04	3.0820	3.0822	-0.1268	26.80	0.97	-0.750			
0.8681	55557.70	3.0790	3.0789	-0.1268	26.81	0.98	-0.750			
0.8685	55581.95	3.0760	3.0760	-0.1258	26.81	0.98	-0.750			
0.8688	55605.95	3.0730	3.0730	-0.1245	26.82	0.99	-0.750			
0.8692	55629.73	3.0700	3.0700	-0.1234	26.82	0.99	-0.750			
0.8696	55653.38	3.0670	3.0670	-0.1223	26.83	1.00	-0.750			
0.8700	55676.88	3.0640	3.0639	-0.1214	26.83	1.00	-0.750			
0.8703	55699.99	3.0610	3.0610	-0.1202	26.84	1.01	-0.750			
0.8707	55722.92	3.0580	3.0580	-0.1190	26.84	1.01	-0.750			
0.8710	55745.42	3.0550	3.0550	-0.1188	26.85	1.02	-0.750			
0.8714	55767.91	3.0520	3.0520	-0.1179	26.85	1.02	-0.750			
0.8717	55790.63	3.0490	3.0491	-0.1175	26.86	1.03	-0.750			
0.8721	55813.08	3.0460	3.0459	-0.1171	26.86	1.03	-0.750			
0.8724	55835.69	3.0430	3.0429	-0.1163	26.87	1.04	-0.750			
0.8728	55858.15	3.0400	3.0399	-0.1160	26.87	1.04	-0.750			
0.8731	55880.32	3.0370	3.0371	-0.1152	26.88	1.05	-0.750			
0.8735	55902.56	3.0340	3.0340	-0.1145	26.88	1.05	-0.750			
0.8738	55924.37	3.0310	3.0310	-0.1136	26.89	1.06	-0.750			
0.8742	55945.89	3.0280	3.0280	-0.1124	26.89	1.06	-0.750			
0.8745	55967.43	3.0250	3.0250	-0.1117	26.90	1.07	-0.750			
0.8748	55988.84	3.0220	3.0219	-0.1110	26.90	1.07	-0.750			
0.8752	56009.97	3.0190	3.0190	-0.1107	26.91	1.08	-0.750			
0.8755	56031.12	3.0160	3.0160	-0.1102	26.91	1.08	-0.750			
0.8758	56052.41	3.0130	3.0128	-0.1090	26.92	1.09	-0.750			
0.8761	56073.30	3.0100	3.0100	-0.1082	26.92	1.09	-0.750			
0.8765	56093.99	3.0070	3.0071	-0.1073	26.93	1.10	-0.750			
0.8768	56114.67	3.0040	3.0040	-0.1056	26.93	1.10	-0.751			
0.8771	56134.80	3.0010	3.0011	-0.1040	26.94	1.11	-0.751			
