Ah_balance (normalized)	Ah_balance (mAh)	Voltage - fit (V)	Voltage -  interpolate (V)	dQ/dV (1/V)	Temperature (°C)	Temperature - diff (°C)	Current (C)	R_DC 0ms (mOhm)	R_DC 50ms (mOhm)	R_DC 50 ms PEC (mOhm)
0.0001	8.99	4.1670	4.1658	-0.1118	25.89	0.02	-0.750			
0.0006	36.17	4.1640	4.1638	-0.1664	25.88	0.01	-0.750			
0.0011	72.55	4.1610	4.1609	-0.2126	25.88	0.01	-0.750			
0.0018	117.36	4.1580	4.1580	-0.2597	25.88	0.01	-0.750			
0.0027	172.00	4.1550	4.1551	-0.3067	25.88	0.01	-0.750			
0.0037	235.73	4.1520	4.1519	-0.3504	25.88	0.01	-0.750			
0.0048	307.61	4.1490	4.1490	-0.3979	25.88	0.01	-0.750			
0.0061	389.27	4.1460	4.1461	-0.4392	25.88	0.01	-0.750			
0.0075	478.47	4.1430	4.1430	-0.4777	25.87	0.00	-0.750			
0.0090	574.71	4.1400	4.1400	-0.5150	25.87	0.00	-0.750			
0.0106	677.03	4.1370	4.1371	-0.5491	25.87	-0.00	-0.750			
0.0123	786.40	4.1340	4.1340	-0.5827	25.87	-0.00	-0.750			
0.0141	902.09	4.1310	4.1309	-0.6108	25.86	-0.01	-0.750			
0.0160	1022.83	4.1280	4.1280	-0.6368	25.86	-0.01	-0.750			
0.0180	1150.26	4.1250	4.1250	-0.6582	25.86	-0.01	-0.750			
0.0200	1280.37	4.1220	4.1219	-0.6777	25.85	-0.02	-0.750			
0.0221	1412.09	4.1190	4.1193	-0.6892	25.85	-0.02	-0.750			
0.0242	1546.03	4.1160	4.1159	-0.6973	25.84	-0.03	-0.750			
0.0263	1680.19	4.1130	4.1130	-0.7064	25.84	-0.03	-0.750			
0.0284	1816.18	4.1100	4.1101	-0.7169	25.83	-0.04	-0.750			
0.0306	1956.04	4.1070	4.1069	-0.7290	25.82	-0.05	-0.750			
0.0328	2096.43	4.1040	4.1040	-0.7334	25.82	-0.05	-0.750			
0.0350	2238.08	4.1010	4.1010	-0.7412	25.81	-0.06	-0.750			
0.0372	2381.05	4.0980	4.0980	-0.7500	25.81	-0.06	-0.750			
0.0395	2526.16	4.0950	4.0950	-0.7579	25.81	-0.06	-0.750			
0.0418	2672.62	4.0920	4.0920	-0.7586	25.81	-0.06	-0.750			
0.0440	2818.94	4.0890	4.0890	-0.7645	25.81	-0.06	-0.750			
0.0464	2966.49	4.0860	4.0860	-0.7688	25.81	-0.06	-0.750			
0.0487	3114.86	4.0830	4.0830	-0.7732	25.81	-0.06	-0.750			
0.0510	3261.97	4.0800	4.0800	-0.7790	25.81	-0.06	-0.750			
0.0533	3411.98	4.0770	4.0770	-0.7809	25.81	-0.06	-0.750			
0.0557	3563.94	4.0740	4.0740	-0.7831	25.81	-0.06	-0.750			
0.0581	3717.16	4.0710	4.0709	-0.7866	25.81	-0.06	-0.750			
0.0604	3866.15	4.0680	4.0683	-0.7832	25.81	-0.06	-0.750			
0.0627	4015.98	4.0650	4.0650	-0.7869	25.81	-0.06	-0.750			
0.0651	4165.98	4.0620	4.0619	-0.7861	25.81	-0.06	-0.750			
0.0674	4315.97	4.0590	4.0590	-0.7847	25.81	-0.06	-0.750			
0.0698	4468.29	4.0560	4.0561	-0.7910	25.81	-0.06	-0.750			
0.0722	4622.49	4.0530	4.0532	-0.7976	25.81	-0.06	-0.750			
0.0746	4774.92	4.0500	4.0499	-0.7989	25.81	-0.06	-0.750			
0.0770	4926.89	4.0470	4.0470	-0.7995	25.81	-0.06	-0.750			
0.0794	5081.86	4.0440	4.0440	-0.8008	25.81	-0.06	-0.750			
0.0818	5237.30	4.0410	4.0409	-0.8033	25.81	-0.06	-0.750			
0.0842	5391.19	4.0380	4.0381	-0.8043	25.81	-0.06	-0.750			
0.0866	5544.76	4.0350	4.0350	-0.8046	25.81	-0.06	-0.750			
0.0890	5698.64	4.0320	4.0320	-0.8075	25.81	-0.06	-0.750			
0.0915	5854.39	4.0290	4.0289	-0.8067	25.81	-0.06	-0.750			
0.0939	6010.06	4.0260	4.0260	-0.8088	25.81	-0.06	-0.750			
0.0964	6167.65	4.0230	4.0230	-0.8120	25.81	-0.06	-0.750			
0.0988	6321.92	4.0200	4.0200	-0.8134	25.81	-0.06	-0.750			
0.1012	6477.33	4.0170	4.0170	-0.8109	25.81	-0.06	-0.750			
0.1036	6633.26	4.0140	4.0140	-0.8142	25.82	-0.05	-0.750			
0.1061	6788.82	4.0110	4.0110	-0.8162	25.82	-0.05	-0.750			
0.1086	6947.73	4.0080	4.0080	-0.8230	25.82	-0.05	-0.750			
0.1110	7105.29	4.0050	4.0051	-0.8245	25.82	-0.05	-0.750			
0.1135	7263.15	4.0020	4.0020	-0.8313	25.83	-0.04	-0.750			
0.1160	7424.91	3.9990	3.9989	-0.8256	25.84	-0.03	-0.750			
0.1185	7584.75	3.9960	3.9960	-0.8277	25.84	-0.03	-0.750			
0.1210	7742.57	3.9930	3.9930	-0.8251	25.85	-0.02	-0.750			
0.1235	7901.68	3.9900	3.9900	-0.8219	25.85	-0.02	-0.750			
0.1259	8056.66	3.9870	3.9869	-0.8357	25.86	-0.01	-0.750			
0.1284	8216.61	3.9840	3.9840	-0.8340	25.86	-0.01	-0.750			
0.1309	8377.17	3.9810	3.9809	-0.8382	25.86	-0.01	-0.750			
0.1335	8542.29	3.9780	3.9780	-0.8434	25.87	-0.00	-0.750			
0.1360	8704.73	3.9750	3.9749	-0.8431	25.87	0.00	-0.750			
0.1385	8866.75	3.9720	3.9720	-0.8462	25.87	0.00	-0.750			
0.1411	9028.44	3.9690	3.9689	-0.8440	25.87	0.00	-0.750			
0.1436	9187.29	3.9660	3.9660	-0.8401	25.87	0.00	-0.750			
0.1461	9352.62	3.9630	3.9631	-0.8499	25.87	0.00	-0.750			
0.1487	9515.54	3.9600	3.9600	-0.8508	25.87	0.00	-0.750			
0.1512	9679.35	3.9570	3.9570	-0.8531	25.88	0.01	-0.750			
0.1538	9842.41	3.9540	3.9540	-0.8524	25.88	0.01	-0.750			
0.1564	10007.28	3.9510	3.9510	-0.8533	25.88	0.01	-0.750			
0.1589	10170.96	3.9480	3.9481	-0.8553	25.89	0.02	-0.750			
0.1615	10333.35	3.9450	3.9450	-0.8612	25.89	0.02	-0.750			
0.1641	10499.57	3.9420	3.9420	-0.8626	25.90	0.03	-0.750			
0.1666	10665.24	3.9390	3.9389	-0.8667	25.90	0.03	-0.750			
0.1693	10832.42	3.9360	3.9361	-0.8703	25.91	0.04	-0.750			
0.1719	11001.13	3.9330	3.9330	-0.8769	25.91	0.04	-0.750			
0.1745	11169.50	3.9300	3.9299	-0.8807	25.91	0.04	-0.750			
0.1772	11338.74	3.9270	3.9270	-0.8767	25.92	0.05	-0.750			
0.1798	11506.65	3.9240	3.9240	-0.8788	25.92	0.05	-0.750			
0.1824	11676.28	3.9210	3.9210	-0.8819	25.93	0.06	-0.750			
0.1851	11846.64	3.9180	3.9181	-0.8826	25.93	0.06	-0.750			
0.1878	12016.08	3.9150	3.9150	-0.8834	25.93	0.06	-0.750			
0.1904	12185.12	3.9120	3.9120	-0.8832	25.94	0.07	-0.750			
0.1930	12354.69	3.9090	3.9090	-0.8867	25.94	0.07	-0.750			
0.1957	12525.00	3.9060	3.9060	-0.8919	25.95	0.08	-0.750			
0.1984	12696.13	3.9030	3.9030	-0.8899	25.95	0.08	-0.750			
0.2011	12868.12	3.9000	3.9000	-0.8937	25.96	0.09	-0.750			
0.2038	13040.21	3.8970	3.8970	-0.8946	25.96	0.09	-0.750			
0.2065	13212.90	3.8940	3.8940	-0.8951	25.96	0.09	-0.750			
0.2091	13384.93	3.8910	3.8909	-0.8936	25.97	0.10	-0.750			
0.2118	13553.57	3.8880	3.8880	-0.8959	25.97	0.10	-0.750			
0.2145	13726.28	3.8850	3.8850	-0.8983	25.97	0.10	-0.750			
0.2172	13899.15	3.8820	3.8819	-0.9047	25.97	0.10	-0.750			
0.2199	14072.70	3.8790	3.8789	-0.9062	25.97	0.10	-0.750			
0.2226	14249.15	3.8760	3.8761	-0.9097	25.97	0.10	-0.750			
0.2254	14423.48	3.8730	3.8730	-0.9161	25.98	0.11	-0.750			
0.2281	14601.00	3.8700	3.8700	-0.9120	25.98	0.11	-0.750			
0.2309	14774.68	3.8670	3.8670	-0.9125	25.99	0.12	-0.750			
0.2336	14949.78	3.8640	3.8640	-0.9153	26.00	0.13	-0.750			
0.2363	15124.52	3.8610	3.8608	-0.9159	26.00	0.13	-0.750			
0.2391	15301.96	3.8580	3.8580	-0.9263	26.00	0.13	-0.750			
0.2419	15482.47	3.8550	3.8549	-0.9196	26.01	0.14	-0.750			
0.2447	15659.28	3.8520	3.8519	-0.9184	26.01	0.14	-0.750			
0.2475	15837.15	3.8490	3.8494	-0.9241	26.01	0.14	-0.750			
0.2502	16011.37	3.8460	3.8459	-0.9245	26.01	0.14	-0.750			
0.2530	16190.30	3.8430	3.8428	-0.9228	26.02	0.15	-0.750			
0.2557	16366.88	3.8400	3.8400	-0.9146	26.02	0.15	-0.750			
0.2585	16544.71	3.8370	3.8371	-0.9260	26.03	0.16	-0.750			
0.2613	16722.28	3.8340	3.8340	-0.9223	26.03	0.16	-0.750			
0.2640	16896.24	3.8310	3.8308	-0.9261	26.03	0.16	-0.750			
0.2668	17074.26	3.8280	3.8280	-0.9271	26.04	0.17	-0.750			
0.2696	17251.26	3.8250	3.8250	-0.9310	26.04	0.17	-0.750			
0.2724	17434.35	3.8220	3.8222	-0.9383	26.04	0.17	-0.750			
0.2753	17616.87	3.8190	3.8190	-0.9485	26.04	0.17	-0.750			
0.2781	17798.52	3.8160	3.8159	-0.9419	26.04	0.17	-0.750			
0.2809	17980.00	3.8130	3.8129	-0.9388	26.05	0.18	-0.750			
0.2837	18159.73	3.8100	3.8101	-0.9377	26.05	0.18	-0.750			
0.2865	18339.05	3.8070	3.8069	-0.9397	26.05	0.18	-0.750			
0.2893	18518.18	3.8040	3.8038	-0.9348	26.06	0.19	-0.750			
0.2921	18697.18	3.8010	3.8011	-0.9355	26.06	0.19	-0.750			
0.2949	18873.45	3.7980	3.7980	-0.9360	26.07	0.20	-0.750			
0.2978	19058.51	3.7950	3.7951	-0.9480	26.07	0.20	-0.750			
0.3006	19241.56	3.7920	3.7919	-0.9505	26.08	0.21	-0.750			
0.3035	19424.45	3.7890	3.7889	-0.9465	26.08	0.21	-0.750			
0.3063	19605.80	3.7860	3.7859	-0.9462	26.08	0.21	-0.750			
0.3092	19787.54	3.7830	3.7832	-0.9510	26.09	0.22	-0.750			
0.3120	19967.80	3.7800	3.7799	-0.9606	26.09	0.22	-0.750			
0.3149	20152.39	3.7770	3.7769	-0.9566	26.10	0.23	-0.750			
0.3178	20338.73	3.7740	3.7740	-0.9503	26.10	0.23	-0.750			
0.3206	20519.53	3.7710	3.7709	-0.9534	26.11	0.24	-0.750			
0.3235	20706.14	3.7680	3.7679	-0.9601	26.11	0.24	-0.750			
0.3264	20888.62	3.7650	3.7648	-0.9643	26.11	0.24	-0.750			
0.3292	21070.93	3.7620	3.7619	-0.9648	26.12	0.25	-0.750			
0.3321	21255.16	3.7590	3.7591	-0.9701	26.12	0.25	-0.750			
0.3351	21447.49	3.7560	3.7561	-0.9862	26.12	0.25	-0.750			
0.3381	21640.17	3.7530	3.7530	-0.9999	26.12	0.25	-0.750			
0.3411	21831.87	3.7500	3.7499	-0.9913	26.13	0.26	-0.750			
0.3441	22022.32	3.7470	3.7469	-0.9901	26.13	0.26	-0.750			
0.3471	22212.40	3.7440	3.7443	-0.9942	26.13	0.26	-0.750			
0.3500	22403.12	3.7410	3.7409	-0.9982	26.13	0.26	-0.750			
0.3530	22594.38	3.7380	3.7379	-0.9965	26.14	0.27	-0.750			
0.3560	22785.46	3.7350	3.7349	-0.9965	26.14	0.27	-0.750			
0.3590	22977.92	3.7320	3.7320	-1.0040	26.15	0.28	-0.750			
0.3620	23170.55	3.7290	3.7289	-1.0114	26.15	0.28	-0.750			
0.3650	23362.94	3.7260	3.7260	-1.0130	26.15	0.28	-0.750			
0.3681	23557.96	3.7230	3.7230	-1.0154	26.15	0.28	-0.750			
0.3711	23752.07	3.7200	3.7200	-1.0206	26.15	0.28	-0.750			
0.3743	23952.09	3.7170	3.7170	-1.0492	26.15	0.28	-0.750			
0.3774	24153.75	3.7140	3.7140	-1.0688	26.16	0.29	-0.750			
0.3806	24360.75	3.7110	3.7108	-1.0772	26.16	0.29	-0.750			
0.3839	24568.82	3.7080	3.7083	-1.0884	26.17	0.30	-0.750			
0.3872	24781.51	3.7050	3.7050	-1.1165	26.17	0.30	-0.750			
0.3906	24999.75	3.7020	3.7017	-1.1271	26.17	0.30	-0.750			
0.3940	25216.34	3.6990	3.6989	-1.1371	26.17	0.30	-0.750			
0.3973	25429.25	3.6960	3.6965	-1.1505	26.17	0.30	-0.750			
0.4009	25656.19	3.6930	3.6929	-1.1744	26.17	0.30	-0.750			
0.4045	25885.52	3.6900	3.6899	-1.1969	26.17	0.30	-0.750			
0.4080	26112.67	3.6870	3.6869	-1.2128	26.17	0.30	-0.750			
0.4117	26348.67	3.6840	3.6841	-1.2457	26.17	0.30	-0.750			
0.4155	26589.50	3.6810	3.6810	-1.2749	26.17	0.30	-0.750			
0.4192	26831.84	3.6780	3.6778	-1.3113	26.17	0.30	-0.750			
0.4233	27089.79	3.6750	3.6752	-1.3294	26.17	0.30	-0.750			
0.4274	27352.54	3.6720	3.6719	-1.3618	26.16	0.29	-0.750			
0.4315	27617.64	3.6690	3.6689	-1.3976	26.16	0.29	-0.750			
0.4358	27889.48	3.6660	3.6662	-1.4208	26.15	0.28	-0.750			
0.4400	28159.63	3.6630	3.6629	-1.4531	26.14	0.27	-0.750			
0.4444	28441.48	3.6600	3.6599	-1.4724	26.13	0.26	-0.750			
0.4488	28720.34	3.6570	3.6571	-1.5113	26.13	0.26	-0.750			
0.4535	29021.88	3.6540	3.6540	-1.5656	26.12	0.25	-0.750			
0.4582	29326.56	3.6510	3.6507	-1.6061	26.12	0.25	-0.750			
0.4631	29639.67	3.6480	3.6479	-1.6406	26.11	0.24	-0.750			
0.4681	29960.99	3.6450	3.6448	-1.6852	26.11	0.24	-0.750			
0.4733	30289.74	3.6420	3.6421	-1.7058	26.10	0.23	-0.750			
0.4784	30620.41	3.6390	3.6392	-1.7444	26.10	0.23	-0.750			
0.4837	30958.16	3.6360	3.6362	-1.7791	26.09	0.22	-0.750	0.412	0.505	
0.4891	31301.29	3.6330	3.6329	-1.8235	26.08	0.21	-0.750			
0.4947	31658.86	3.6300	3.6301	-1.8712	26.07	0.20	-0.750			
0.5004	32025.38	3.6270	3.6273	-1.9179	26.07	0.20	-0.750			
0.5062	32399.27	3.6240	3.6239	-1.9424	26.06	0.19	-0.750			
0.5121	32776.79	3.6210	3.6208	-1.9824	26.06	0.19	-0.750			
0.5181	33159.79	3.6180	3.6183	-2.0148	26.05	0.18	-0.750			
0.5242	33551.29	3.6150	3.6151	-2.0519	26.05	0.18	-0.750			
0.5303	33941.28	3.6120	3.6119	-2.0736	26.04	0.17	-0.750			
0.5366	34343.83	3.6090	3.6091	-2.0964	26.04	0.17	-0.750			
0.5430	34751.00	3.6060	3.6060	-2.1402	26.03	0.16	-0.750			
0.5495	35170.51	3.6030	3.6031	-2.1634	26.02	0.15	-0.750			
0.5561	35590.01	3.6000	3.6001	-2.1948	26.01	0.14	-0.750			
0.5627	36012.46	3.5970	3.5970	-2.2397	26.01	0.14	-0.750			
0.5694	36444.05	3.5940	3.5938	-2.2765	26.00	0.13	-0.750			
0.5764	36890.61	3.5910	3.5911	-2.2990	26.00	0.13	-0.750			
0.5834	37337.45	3.5880	3.5881	-2.3393	25.99	0.12	-0.750			
0.5904	37785.41	3.5850	3.5850	-2.3664	25.99	0.12	-0.750			
0.5975	38237.65	3.5820	3.5818	-2.4077	25.99	0.12	-0.750			
0.6048	38708.62	3.5790	3.5790	-2.4385	25.98	0.11	-0.750			
0.6122	39181.77	3.5760	3.5761	-2.4577	25.97	0.10	-0.750			
0.6197	39658.13	3.5730	3.5732	-2.4857	25.97	0.10	-0.750			
0.6272	40140.05	3.5700	3.5699	-2.4837	25.97	0.10	-0.750			
0.6346	40615.34	3.5670	3.5669	-2.4840	25.97	0.10	-0.750			
0.6421	41095.63	3.5640	3.5641	-2.4727	25.97	0.10	-0.750			
0.6496	41572.51	3.5610	3.5610	-2.4754	25.97	0.10	-0.750			
0.6570	42047.80	3.5580	3.5580	-2.4484	25.97	0.10	-0.750			
0.6642	42510.78	3.5550	3.5549	-2.4559	25.97	0.10	-0.750			
0.6716	42983.25	3.5520	3.5520	-2.4482	25.98	0.11	-0.750			
0.6790	43453.39	3.5490	3.5489	-2.4339	25.97	0.10	-0.750			
0.6863	43924.63	3.5460	3.5462	-2.4190	25.97	0.10	-0.750			
0.6936	44390.31	3.5430	3.5427	-2.3781	25.98	0.11	-0.750			
0.7007	44846.24	3.5400	3.5400	-2.3432	25.99	0.12	-0.750			
0.7077	45293.51	3.5370	3.5370	-2.2886	25.99	0.12	-0.750			
0.7144	45724.42	3.5340	3.5341	-2.2420	26.00	0.13	-0.750			
0.7210	46145.06	3.5310	3.5310	-2.1830	26.01	0.14	-0.750			
0.7276	46566.40	3.5280	3.5279	-2.1240	26.02	0.15	-0.750			
0.7339	46971.88	3.5250	3.5251	-2.0515	26.03	0.16	-0.750			
0.7400	47359.46	3.5220	3.5221	-1.9839	26.04	0.17	-0.750			
0.7459	47735.93	3.5190	3.5189	-1.9199	26.05	0.18	-0.750			
0.7515	48094.39	3.5160	3.5160	-1.8454	26.06	0.19	-0.750			
0.7569	48441.81	3.5130	3.5131	-1.7810	26.07	0.20	-0.750			
0.7622	48779.47	3.5100	3.5101	-1.7162	26.09	0.22	-0.750			
0.7673	49107.12	3.5070	3.5070	-1.6568	26.10	0.23	-0.750			
0.7721	49417.08	3.5040	3.5042	-1.5869	26.11	0.24	-0.750			
0.7767	49710.66	3.5010	3.5009	-1.5236	26.12	0.25	-0.750			
0.7812	49993.66	3.4980	3.4980	-1.4653	26.14	0.27	-0.750			
0.7854	50267.07	3.4950	3.4950	-1.4279	26.15	0.28	-0.750			
0.7897	50542.60	3.4920	3.4919	-1.3897	26.17	0.30	-0.750			
0.7938	50805.01	3.4890	3.4889	-1.3436	26.19	0.32	-0.750			
0.7978	51059.34	3.4860	3.4862	-1.3044	26.21	0.34	-0.750			
0.8017	51307.80	3.4830	3.4829	-1.2539	26.23	0.36	-0.750			
0.8054	51543.12	3.4800	3.4799	-1.2019	26.24	0.37	-0.750			
0.8089	51767.29	3.4770	3.4770	-1.1488	26.26	0.39	-0.750			
0.8123	51984.00	3.4740	3.4739	-1.1147	26.27	0.40	-0.750			
0.8155	52192.86	3.4710	3.4710	-1.0704	26.27	0.40	-0.750			
0.8186	52388.93	3.4680	3.4679	-1.0335	26.28	0.41	-0.750			
0.8216	52581.50	3.4650	3.4650	-1.0087	26.29	0.42	-0.750			
0.8246	52774.36	3.4620	3.4620	-0.9997	26.30	0.43	-0.750			
0.8275	52961.61	3.4590	3.4589	-0.9890	26.31	0.44	-0.750			
0.8304	53147.90	3.4560	3.4560	-0.9893	26.32	0.45	-0.750			
0.8334	53334.69	3.4530	3.4531	-1.0124	26.33	0.46	-0.750			
0.8364	53527.81	3.4500	3.4499	-1.0540	26.35	0.48	-0.750			
0.8396	53732.66	3.4470	3.4469	-1.0972	26.36	0.49	-0.750			
0.8429	53946.51	3.4440	3.4440	-1.1438	26.37	0.50	-0.750			
0.8465	54173.09	3.4410	3.4411	-1.1964	26.39	0.52	-0.750			
0.8502	54411.11	3.4380	3.4380	-1.2374	26.40	0.53	-0.750			
0.8540	54657.30	3.4350	3.4350	-1.2621	26.41	0.54	-0.750			
0.8579	54904.62	3.4320	3.4319	-1.2598	26.42	0.55	-0.750			
0.8617	55149.01	3.4290	3.4291	-1.2457	26.42	0.55	-0.750			
0.8656	55395.62	3.4260	3.4260	-1.2227	26.43	0.56	-0.750			
0.8692	55627.41	3.4230	3.4229	-1.1793	26.44	0.57	-0.750			
0.8726	55848.72	3.4200	3.4201	-1.1356	26.45	0.58	-0.750			
0.8760	56061.88	3.4170	3.4170	-1.0877	26.46	0.59	-0.750			
0.8792	56267.99	3.4140	3.4139	-1.0414	26.47	0.60	-0.750			
0.8822	56462.78	3.4110	3.4110	-0.9925	26.47	0.60	-0.750			
0.8851	56646.93	3.4080	3.4083	-0.9534	26.48	0.61	-0.750			
0.8879	56824.71	3.4050	3.4049	-0.9188	26.49	0.62	-0.750			
0.8906	56996.32	3.4020	3.4020	-0.8791	26.49	0.62	-0.750			
0.8931	57161.28	3.3990	3.3989	-0.8462	26.49	0.62	-0.750			
0.8956	57321.52	3.3960	3.3961	-0.8203	26.50	0.63	-0.750			
0.8981	57476.51	3.3930	3.3929	-0.7903	26.50	0.63	-0.750			
0.9004	57624.10	3.3900	3.3900	-0.7616	26.51	0.64	-0.750			
0.9026	57766.95	3.3870	3.3870	-0.7341	26.52	0.65	-0.750			
0.9048	57904.54	3.3840	3.3840	-0.7066	26.52	0.65	-0.750			
0.9069	58039.55	3.3810	3.3809	-0.6839	26.53	0.66	-0.750			
0.9089	58167.67	3.3780	3.3780	-0.6560	26.54	0.67	-0.750			
0.9108	58290.53	3.3750	3.3749	-0.6298	26.55	0.68	-0.750			
0.9126	58408.68	3.3720	3.3720	-0.6058	26.55	0.68	-0.750			
0.9144	58522.39	3.3690	3.3689	-0.5799	26.56	0.69	-0.750			
0.9161	58629.80	3.3660	3.3661	-0.5568	26.57	0.70	-0.750			
0.9178	58736.32	3.3630	3.3630	-0.5382	26.58	0.71	-0.750			
0.9193	58837.17	3.3600	3.3600	-0.5147	26.59	0.72	-0.750			
0.9208	58934.35	3.3570	3.3569	-0.4918	26.59	0.72	-0.750			
0.9223	59025.87	3.3540	3.3544	-0.4707	26.60	0.73	-0.750			
0.9237	59114.41	3.3510	3.3510	-0.4496	26.60	0.73	-0.750			
0.9250	59198.31	3.3480	3.3479	-0.4319	26.61	0.74	-0.750			
0.9262	59278.61	3.3450	3.3450	-0.4125	26.61	0.74	-0.750			
0.9274	59355.40	3.3420	3.3420	-0.3956	26.62	0.75	-0.750			
0.9286	59429.99	3.3390	3.3390	-0.3794	26.62	0.75	-0.750			
0.9297	59502.04	3.3360	3.3360	-0.3616	26.62	0.75	-0.750			
0.9308	59569.33	3.3330	3.3330	-0.3433	26.63	0.76	-0.750			
0.9318	59633.54	3.3300	3.3301	-0.3285	26.63	0.76	-0.750			
0.9327	59694.34	3.3270	3.3270	-0.3131	26.63	0.76	-0.750			
0.9336	59752.37	3.3240	3.3239	-0.3004	26.64	0.77	-0.750			
0.9345	59808.72	3.3210	3.3212	-0.2885	26.64	0.77	-0.750			
0.9354	59863.16	3.3180	3.3179	-0.2772	26.64	0.77	-0.750			
0.9362	59915.35	3.3150	3.3150	-0.2677	26.65	0.78	-0.750			
0.9370	59965.51	3.3120	3.3121	-0.2565	26.65	0.78	-0.750			
0.9377	60013.30	3.3090	3.3089	-0.2460	26.66	0.79	-0.750			
0.9384	60059.76	3.3060	3.3060	-0.2371	26.66	0.79	-0.750			
0.9391	60104.17	3.3030	3.3031	-0.2282	26.67	0.80	-0.750			
0.9398	60146.69	3.3000	3.3000	-0.2202	26.67	0.80	-0.750			
0.9404	60188.71	3.2970	3.2970	-0.2125	26.68	0.81	-0.750			
0.9411	60228.80	3.2940	3.2939	-0.2043	26.68	0.81	-0.750			
0.9417	60266.74	3.2910	3.2910	-0.1960	26.68	0.81	-0.750			
0.9422	60303.75	3.2880	3.2882	-0.1898	26.69	0.82	-0.750			
0.9428	60339.14	3.2850	3.2850	-0.1828	26.69	0.82	-0.750			
0.9433	60373.63	3.2820	3.2819	-0.1765	26.70	0.83	-0.750			
0.9439	60406.64	3.2790	3.2789	-0.1705	26.70	0.83	-0.750			
0.9443	60438.30	3.2760	3.2761	-0.1652	26.70	0.83	-0.750			
0.9448	60469.89	3.2730	3.2729	-0.1611	26.71	0.84	-0.750			
0.9453	60500.34	3.2700	3.2702	-0.1562	26.71	0.84	-0.750			
0.9458	60529.71	3.2670	3.2669	-0.1517	26.71	0.84	-0.750			
0.9462	60558.02	3.2640	3.2642	-0.1476	26.71	0.84	-0.750			
0.9467	60585.94	3.2610	3.2610	-0.1440	26.72	0.85	-0.750			
0.9471	60613.33	3.2580	3.2579	-0.1404	26.72	0.85	-0.750			
0.9475	60639.97	3.2550	3.2549	-0.1367	26.72	0.85	-0.750			
0.9479	60665.73	3.2520	3.2520	-0.1329	26.73	0.86	-0.750			
0.9483	60690.86	3.2490	3.2491	-0.1299	26.73	0.86	-0.750			
0.9487	60715.72	3.2460	3.2460	-0.1269	26.73	0.86	-0.750			
0.9491	60739.62	3.2430	3.2430	-0.1236	26.74	0.87	-0.750			
0.9494	60762.80	3.2400	3.2400	-0.1200	26.74	0.87	-0.750			
0.9498	60785.60	3.2370	3.2371	-0.1175	26.74	0.87	-0.750			
0.9501	60807.98	3.2340	3.2340	-0.1150	26.75	0.88	-0.750			
0.9505	60829.70	3.2310	3.2309	-0.1129	26.75	0.88	-0.750			
0.9508	60851.09	3.2280	3.2280	-0.1105	26.75	0.88	-0.750			
0.9511	60871.96	3.2250	3.2251	-0.1078	26.76	0.89	-0.750			
0.9514	60892.46	3.2220	3.2219	-0.1058	26.76	0.89	-0.750			
0.9518	60912.64	3.2190	3.2190	-0.1040	26.76	0.89	-0.750			
0.9521	60932.41	3.2160	3.2161	-0.1019	26.77	0.90	-0.750			
0.9524	60951.58	3.2130	3.2129	-0.1002	26.77	0.90	-0.750			
0.9527	60970.65	3.2100	3.2100	-0.0985	26.77	0.90	-0.750			
0.9530	60989.33	3.2070	3.2070	-0.0965	26.77	0.90	-0.750			
0.9532	61007.71	3.2040	3.2040	-0.0950	26.78	0.91	-0.750			
0.9535	61025.99	3.2010	3.2011	-0.0935	26.78	0.91	-0.750			
0.9538	61043.75	3.1980	3.1980	-0.0916	26.78	0.91	-0.750			
0.9541	61061.01	3.1950	3.1950	-0.0905	26.78	0.91	-0.750			
0.9543	61078.16	3.1920	3.1920	-0.0889	26.79	0.92	-0.750			
0.9546	61095.05	3.1890	3.1889	-0.0877	26.79	0.92	-0.750			
0.9549	61111.55	3.1860	3.1860	-0.0862	26.79	0.92	-0.750			
0.9551	61128.00	3.1830	3.1832	-0.0852	26.79	0.92	-0.750			
0.9554	61144.37	3.1800	3.1800	-0.0840	26.80	0.93	-0.750			
0.9556	61160.37	3.1770	3.1769	-0.0827	26.80	0.93	-0.750			
0.9559	61176.34	3.1740	3.1740	-0.0816	26.80	0.93	-0.750			
0.9561	61191.77	3.1710	3.1711	-0.0805	26.80	0.93	-0.750			
0.9564	61206.95	3.1680	3.1679	-0.0791	26.80	0.93	-0.750			
0.9566	61222.02	3.1650	3.1649	-0.0780	26.81	0.94	-0.750			
0.9568	61236.91	3.1620	3.1621	-0.0770	26.81	0.94	-0.750			
0.9571	61251.54	3.1590	3.1590	-0.0759	26.81	0.94	-0.750			
0.9573	61266.01	3.1560	3.1560	-0.0750	26.81	0.94	-0.750			
0.9575	61280.32	3.1530	3.1530	-0.0741	26.82	0.95	-0.750			
0.9577	61294.45	3.1500	3.1500	-0.0731	26.82	0.95	-0.750			
0.9579	61308.42	3.1470	3.1470	-0.0721	26.82	0.95	-0.750			
0.9582	61322.16	3.1440	3.1439	-0.0711	26.82	0.95	-0.750			
0.9584	61335.55	3.1410	3.1411	-0.0704	26.82	0.95	-0.750			
0.9586	61348.99	3.1380	3.1380	-0.0697	26.83	0.96	-0.750			
0.9588	61362.18	3.1350	3.1350	-0.0688	26.83	0.96	-0.750			
0.9590	61375.42	3.1320	3.1319	-0.0680	26.83	0.96	-0.750			
0.9592	61388.39	3.1290	3.1290	-0.0672	26.83	0.96	-0.750			
0.9594	61401.22	3.1260	3.1263	-0.0665	26.84	0.97	-0.750			
0.9596	61413.87	3.1230	3.1230	-0.0659	26.84	0.97	-0.750			
0.9598	61426.53	3.1200	3.1200	-0.0654	26.84	0.97	-0.750			
0.9600	61439.02	3.1170	3.1169	-0.0647	26.84	0.97	-0.750			
0.9602	61451.40	3.1140	3.1138	-0.0639	26.85	0.98	-0.750			
0.9604	61463.52	3.1110	3.1110	-0.0630	26.85	0.98	-0.750			
0.9606	61475.56	3.1080	3.1080	-0.0624	26.85	0.98	-0.750			
0.9607	61487.47	3.1050	3.1051	-0.0617	26.85	0.98	-0.750			
0.9609	61499.30	3.1020	3.1022	-0.0613	26.86	0.99	-0.750			
0.9611	61510.99	3.0990	3.0990	-0.0606	26.86	0.99	-0.750			
0.9613	61522.56	3.0960	3.0959	-0.0599	26.86	0.99	-0.750			
0.9615	61533.80	3.0930	3.0930	-0.0592	26.86	0.99	-0.750			
0.9616	61545.12	3.0900	3.0901	-0.0588	26.86	0.99	-0.750			
0.9618	61556.36	3.0870	3.0871	-0.0584	26.87	1.00	-0.750			
0.9620	61567.53	3.0840	3.0840	-0.0580	26.87	1.00	-0.750			
0.9622	61578.71	3.0810	3.0809	-0.0574	26.87	1.00	-0.750			
0.9623	61589.67	3.0780	3.0779	-0.0568	26.87	1.00	-0.750			
0.9625	61600.52	3.0750	3.0750	-0.0562	26.87	1.00	-0.750			
0.9627	61611.24	3.0720	3.0722	-0.0558	26.88	1.01	-0.750			
0.9628	61621.90	3.0690	3.0690	-0.0553	26.88	1.01	-0.750			
0.9630	61632.46	3.0660	3.0660	-0.0547	26.88	1.01	-0.750			
0.9632	61642.81	3.0630	3.0631	-0.0542	26.88	1.01	-0.750			
0.9633	61653.18	3.0600	3.0600	-0.0538	26.88	1.01	-0.750			
0.9635	61663.48	3.0570	3.0570	-0.0535	26.89	1.02	-0.750			
0.9637	61673.72	3.0540	3.0540	-0.0531	26.89	1.02	-0.750			
0.9638	61683.93	3.0510	3.0509	-0.0527	26.89	1.02	-0.750			
0.9640	61694.00	3.0480	3.0479	-0.0522	26.89	1.02	-0.750			
0.9641	61703.99	3.0450	3.0451	-0.0518	26.89	1.02	-0.750			
0.9643	61713.87	3.0420	3.0421	-0.0515	26.90	1.03	-0.750			
0.9644	61723.71	3.0390	3.0390	-0.0511	26.90	1.03	-0.750			
0.9646	61733.47	3.0360	3.0360	-0.0507	26.90	1.03	-0.750			
0.9647	61743.07	3.0330	3.0332	-0.0502	26.90	1.03	-0.750			
0.9649	61752.75	3.0300	3.0300	-0.0498	26.90	1.03	-0.750			
0.9650	61762.28	3.0270	3.0271	-0.0495	26.90	1.03	-0.750			
0.9652	61771.74	3.0240	3.0240	-0.0491	26.91	1.04	-0.750			
0.9653	61781.20	3.0210	3.0210	-0.0487	26.91	1.04	-0.750			
0.9655	61790.49	3.0180	3.0180	-0.0484	26.91	1.04	-0.750			
0.9656	61799.74	3.0150	3.0149	-0.0480	26.91	1.04	-0.750			
0.9658	61808.86	3.0120	3.0120	-0.0476	26.91	1.04	-0.750			
0.9659	61817.96	3.0090	3.0090	-0.0472	26.91	1.04	-0.751			
0.9660	61827.00	3.0060	3.0061	-0.0469	26.92	1.05	-0.751			
0.9662	61835.98	3.0030	3.0030	-0.0466	26.92	1.05	-0.751			
