Ah_balance (normalized)	Ah_balance (mAh)	Voltage - fit (V)	Voltage -  interpolate (V)	dQ/dV (1/V)	Temperature (°C)	Temperature - diff (°C)	Current (C)	R_DC 0ms (mOhm)	R_DC 50ms (mOhm)	R_DC 50 ms PEC (mOhm)
0.0511	3272.91	4.1980	4.1978	0.7950	26.47	0.54	0.750			
0.0535	3421.16	4.1950	4.1951	0.7709	26.47	0.54	0.750			
0.0558	3568.36	4.1920	4.1921	0.7694	26.47	0.54	0.750			
0.0581	3716.04	4.1890	4.1889	0.7703	26.46	0.53	0.750			
0.0604	3864.05	4.1860	4.1860	0.7728	26.46	0.53	0.750			
0.0627	4011.61	4.1830	4.1830	0.7755	26.46	0.53	0.750			
0.0650	4162.90	4.1800	4.1800	0.7732	26.46	0.53	0.750			
0.0674	4312.44	4.1770	4.1771	0.7726	26.46	0.53	0.750			
0.0697	4458.89	4.1740	4.1740	0.7708	26.46	0.53	0.750			
0.0720	4606.00	4.1710	4.1710	0.7707	26.47	0.54	0.750			
0.0743	4753.72	4.1680	4.1680	0.7716	26.47	0.54	0.750			
0.0766	4900.68	4.1650	4.1650	0.7775	26.47	0.54	0.750			
0.0789	5051.69	4.1620	4.1621	0.7809	26.47	0.54	0.750			
0.0813	5203.91	4.1590	4.1589	0.7808	26.47	0.54	0.750			
0.0837	5353.92	4.1560	4.1560	0.7806	26.46	0.53	0.750			
0.0860	5502.56	4.1530	4.1532	0.7798	26.46	0.53	0.750			
0.0883	5652.37	4.1500	4.1499	0.7831	26.46	0.53	0.750			
0.0907	5802.33	4.1470	4.1470	0.7844	26.46	0.53	0.750			
0.0930	5952.97	4.1440	4.1440	0.7851	26.46	0.53	0.750			
0.0954	6105.80	4.1410	4.1410	0.7918	26.47	0.54	0.750			
0.0978	6258.84	4.1380	4.1380	0.7896	26.47	0.54	0.750			
0.1001	6408.12	4.1350	4.1351	0.7886	26.47	0.54	0.750			
0.1025	6559.27	4.1320	4.1319	0.7907	26.47	0.54	0.750			
0.1049	6711.12	4.1290	4.1290	0.7899	26.47	0.54	0.750			
0.1072	6863.20	4.1260	4.1260	0.7918	26.47	0.54	0.750			
0.1096	7015.70	4.1230	4.1231	0.7955	26.47	0.54	0.750			
0.1120	7168.56	4.1200	4.1200	0.7961	26.47	0.54	0.750			
0.1144	7321.17	4.1170	4.1170	0.7985	26.47	0.54	0.750			
0.1168	7473.49	4.1140	4.1140	0.8003	26.47	0.54	0.750			
0.1192	7627.68	4.1110	4.1110	0.7973	26.47	0.54	0.750			
0.1216	7780.74	4.1080	4.1080	0.8009	26.48	0.55	0.750			
0.1240	7934.13	4.1050	4.1051	0.8023	26.48	0.55	0.750			
0.1264	8087.76	4.1020	4.1016	0.8080	26.48	0.55	0.750			
0.1288	8243.36	4.0990	4.0990	0.8112	26.48	0.55	0.750			
0.1312	8399.91	4.0960	4.0960	0.8136	26.48	0.55	0.750			
0.1337	8557.15	4.0930	4.0931	0.8168	26.48	0.55	0.750			
0.1362	8713.96	4.0900	4.0900	0.8146	26.48	0.55	0.750			
0.1386	8871.64	4.0870	4.0870	0.8166	26.48	0.55	0.750			
0.1411	9027.89	4.0840	4.0840	0.8200	26.48	0.55	0.750			
0.1435	9186.69	4.0810	4.0811	0.8105	26.48	0.55	0.750			
0.1460	9341.88	4.0780	4.0780	0.8219	26.48	0.55	0.750			
0.1484	9498.86	4.0750	4.0751	0.8242	26.48	0.55	0.750			
0.1509	9657.34	4.0720	4.0718	0.8287	26.48	0.55	0.750			
0.1534	9816.55	4.0690	4.0691	0.8352	26.48	0.55	0.750			
0.1559	9979.15	4.0660	4.0660	0.8335	26.48	0.55	0.750			
0.1584	10138.93	4.0630	4.0630	0.8349	26.48	0.55	0.750			
0.1609	10299.02	4.0600	4.0601	0.8341	26.48	0.55	0.750			
0.1634	10460.18	4.0570	4.0568	0.8391	26.48	0.55	0.750			
0.1660	10621.36	4.0540	4.0540	0.8420	26.48	0.55	0.750			
0.1685	10783.42	4.0510	4.0510	0.8466	26.48	0.55	0.750			
0.1710	10945.82	4.0480	4.0481	0.8535	26.48	0.55	0.750			
0.1736	11110.98	4.0450	4.0450	0.8546	26.48	0.55	0.750			
0.1762	11275.63	4.0420	4.0419	0.8612	26.48	0.55	0.750			
0.1788	11441.08	4.0390	4.0389	0.8626	26.48	0.55	0.750			
0.1814	11608.43	4.0360	4.0361	0.8622	26.48	0.55	0.750			
0.1840	11774.41	4.0330	4.0330	0.8663	26.48	0.55	0.750			
0.1866	11940.32	4.0300	4.0301	0.8642	26.48	0.55	0.750			
0.1892	12105.86	4.0270	4.0272	0.8687	26.48	0.55	0.750			
0.1918	12272.01	4.0240	4.0241	0.8741	26.48	0.55	0.750			
0.1944	12440.26	4.0210	4.0209	0.8780	26.48	0.55	0.750			
0.1971	12611.57	4.0180	4.0179	0.8796	26.48	0.55	0.750			
0.1997	12779.91	4.0150	4.0150	0.8805	26.48	0.55	0.750			
0.2023	12948.61	4.0120	4.0121	0.8811	26.48	0.55	0.750			
0.2050	13121.30	4.0090	4.0089	0.8757	26.49	0.56	0.750			
0.2076	13289.24	4.0060	4.0059	0.8683	26.49	0.56	0.750			
0.2102	13453.18	4.0030	4.0031	0.8642	26.49	0.56	0.750			
0.2128	13618.97	4.0000	4.0001	0.8653	26.50	0.57	0.750			
0.2154	13783.55	3.9970	3.9970	0.8652	26.50	0.57	0.750			
0.2179	13946.67	3.9940	3.9939	0.8594	26.50	0.57	0.750			
0.2205	14111.52	3.9910	3.9911	0.8695	26.50	0.57	0.750			
0.2231	14278.79	3.9880	3.9881	0.8809	26.50	0.57	0.750			
0.2258	14452.00	3.9850	3.9849	0.8990	26.50	0.57	0.750			
0.2285	14623.78	3.9820	3.9820	0.9036	26.50	0.57	0.750			
0.2313	14800.41	3.9790	3.9791	0.9157	26.51	0.58	0.750			
0.2341	14979.21	3.9760	3.9760	0.9197	26.51	0.58	0.750			
0.2368	15158.18	3.9730	3.9729	0.9192	26.52	0.59	0.750			
0.2395	15331.08	3.9700	3.9702	0.9175	26.52	0.59	0.750			
0.2423	15508.29	3.9670	3.9670	0.9081	26.52	0.59	0.750			
0.2450	15680.99	3.9640	3.9640	0.9127	26.52	0.59	0.750			
0.2477	15854.90	3.9610	3.9610	0.9203	26.52	0.59	0.750			
0.2505	16031.66	3.9580	3.9581	0.9249	26.52	0.59	0.750			
0.2533	16212.38	3.9550	3.9549	0.9244	26.52	0.59	0.750			
0.2561	16391.61	3.9520	3.9521	0.9303	26.52	0.59	0.750			
0.2589	16571.05	3.9490	3.9490	0.9264	26.52	0.59	0.750			
0.2617	16750.12	3.9460	3.9460	0.9340	26.52	0.59	0.750			
0.2645	16924.97	3.9430	3.9429	0.9228	26.52	0.59	0.750			
0.2672	17101.79	3.9400	3.9400	0.9275	26.53	0.60	0.750			
0.2700	17280.35	3.9370	3.9371	0.9356	26.53	0.60	0.750			
0.2728	17462.12	3.9340	3.9339	0.9360	26.53	0.60	0.750			
0.2756	17641.32	3.9310	3.9310	0.9397	26.54	0.61	0.750			
0.2785	17826.70	3.9280	3.9280	0.9383	26.54	0.61	0.750			
0.2813	18003.62	3.9250	3.9250	0.9389	26.54	0.61	0.750			
0.2841	18185.59	3.9220	3.9219	0.9410	26.53	0.60	0.750			
0.2869	18364.59	3.9190	3.9192	0.9445	26.53	0.60	0.750			
0.2898	18544.49	3.9160	3.9159	0.9508	26.53	0.60	0.750			
0.2926	18729.55	3.9130	3.9130	0.9490	26.53	0.60	0.750			
0.2955	18910.98	3.9100	3.9100	0.9490	26.54	0.61	0.750			
0.2984	19094.48	3.9070	3.9071	0.9564	26.54	0.61	0.750			
0.3012	19277.77	3.9040	3.9037	0.9550	26.54	0.61	0.750			
0.3041	19463.17	3.9010	3.9010	0.9572	26.54	0.61	0.750			
0.3070	19646.04	3.8980	3.8980	0.9564	26.54	0.61	0.750			
0.3098	19829.04	3.8950	3.8951	0.9630	26.53	0.60	0.750			
0.3127	20015.42	3.8920	3.8920	0.9604	26.53	0.60	0.750			
0.3157	20202.73	3.8890	3.8889	0.9586	26.53	0.60	0.750			
0.3185	20385.14	3.8860	3.8861	0.9616	26.53	0.60	0.750			
0.3214	20569.34	3.8830	3.8831	0.9702	26.52	0.59	0.750			
0.3243	20757.14	3.8800	3.8801	0.9774	26.52	0.59	0.750			
0.3272	20943.34	3.8770	3.8770	0.9805	26.52	0.59	0.750			
0.3302	21131.63	3.8740	3.8741	0.9869	26.52	0.59	0.750			
0.3332	21323.02	3.8710	3.8711	1.0026	26.51	0.58	0.750			
0.3362	21516.17	3.8680	3.8680	1.0115	26.51	0.58	0.750			
0.3393	21713.12	3.8650	3.8650	1.0141	26.51	0.58	0.750			
0.3423	21908.99	3.8620	3.8621	1.0191	26.51	0.58	0.750			
0.3454	22104.73	3.8590	3.8590	1.0344	26.50	0.57	0.750			
0.3485	22305.57	3.8560	3.8561	1.0411	26.50	0.57	0.750			
0.3516	22504.42	3.8530	3.8528	1.0414	26.50	0.57	0.750			
0.3547	22703.97	3.8500	3.8500	1.0542	26.49	0.56	0.750			
0.3579	22908.54	3.8470	3.8472	1.0671	26.48	0.55	0.750			
0.3612	23116.62	3.8440	3.8439	1.0729	26.47	0.54	0.750			
0.3645	23328.34	3.8410	3.8412	1.0728	26.46	0.53	0.750			
0.3677	23530.08	3.8380	3.8382	1.0789	26.45	0.52	0.750			
0.3709	23738.15	3.8350	3.8350	1.0915	26.45	0.52	0.750			
0.3742	23946.51	3.8320	3.8321	1.1027	26.44	0.51	0.750			
0.3775	24158.02	3.8290	3.8289	1.1009	26.44	0.51	0.750			
0.3808	24370.37	3.8260	3.8261	1.1228	26.43	0.50	0.750			
0.3842	24589.02	3.8230	3.8231	1.1503	26.42	0.49	0.750			
0.3877	24811.74	3.8200	3.8199	1.1626	26.40	0.47	0.750			
0.3912	25035.66	3.8170	3.8170	1.1572	26.39	0.46	0.750			
0.3947	25260.75	3.8140	3.8142	1.1677	26.39	0.46	0.750			
0.3982	25486.89	3.8110	3.8111	1.1725	26.38	0.45	0.750			
0.4018	25715.94	3.8080	3.8077	1.1699	26.37	0.44	0.750			
0.4052	25933.74	3.8050	3.8052	1.1717	26.36	0.43	0.750			
0.4087	26158.21	3.8020	3.8021	1.1770	26.35	0.42	0.750			
0.4123	26387.71	3.7990	3.7989	1.1878	26.34	0.41	0.750			
0.4159	26614.98	3.7960	3.7960	1.1900	26.32	0.39	0.750			
0.4194	26843.65	3.7930	3.7932	1.2076	26.31	0.38	0.750			
0.4231	27077.60	3.7900	3.7900	1.2180	26.30	0.37	0.750			
0.4268	27316.90	3.7870	3.7870	1.2164	26.29	0.36	0.750			
0.4304	27547.69	3.7840	3.7841	1.2261	26.28	0.35	0.750			
0.4341	27783.71	3.7810	3.7811	1.2454	26.27	0.34	0.750			
0.4379	28024.68	3.7780	3.7779	1.2520	26.25	0.32	0.750			
0.4416	28264.82	3.7750	3.7750	1.2738	26.24	0.31	0.750			
0.4455	28512.89	3.7720	3.7720	1.2716	26.23	0.30	0.750			
0.4493	28757.49	3.7690	3.7691	1.3032	26.22	0.29	0.750			
0.4532	29007.76	3.7660	3.7661	1.3467	26.20	0.27	0.750			
0.4572	29263.31	3.7630	3.7631	1.3815	26.19	0.26	0.750			
0.4615	29537.06	3.7600	3.7601	1.4080	26.18	0.25	0.750	0.325	0.408	
0.4658	29811.48	3.7570	3.7572	1.4525	26.16	0.23	0.750			
0.4703	30096.25	3.7540	3.7542	1.4829	26.15	0.22	0.750			
0.4749	30390.91	3.7510	3.7510	1.4875	26.13	0.20	0.750			
0.4793	30675.84	3.7480	3.7482	1.5074	26.12	0.19	0.750			
0.4837	30959.74	3.7450	3.7448	1.5333	26.11	0.18	0.750			
0.4884	31256.91	3.7420	3.7417	1.5809	26.09	0.16	0.750			
0.4932	31566.68	3.7390	3.7393	1.6380	26.08	0.15	0.750			
0.4981	31880.40	3.7360	3.7362	1.6958	26.06	0.13	0.750			
0.5034	32214.53	3.7330	3.7330	1.7426	26.04	0.11	0.750			
0.5087	32558.82	3.7300	3.7299	1.7867	26.03	0.10	0.750			
0.5142	32909.52	3.7270	3.7266	1.8453	26.01	0.08	0.750			
0.5197	33260.40	3.7240	3.7239	1.8998	25.99	0.06	0.750			
0.5255	33630.55	3.7210	3.7209	1.9295	25.97	0.04	0.750			
0.5314	34012.42	3.7180	3.7179	1.9833	25.95	0.02	0.750			
0.5375	34397.60	3.7150	3.7150	2.0364	25.93	0.00	0.750			
0.5437	34798.25	3.7120	3.7121	2.0918	25.92	-0.01	0.750			
0.5501	35204.19	3.7090	3.7090	2.1569	25.91	-0.02	0.750			
0.5566	35620.47	3.7060	3.7058	2.1988	25.89	-0.04	0.750			
0.5632	36047.47	3.7030	3.7031	2.2613	25.87	-0.06	0.750			
0.5702	36495.53	3.7000	3.7000	2.3269	25.86	-0.07	0.750			
0.5774	36955.85	3.6970	3.6969	2.4010	25.85	-0.08	0.750			
0.5845	37409.62	3.6940	3.6941	2.4615	25.82	-0.11	0.750			
0.5920	37890.93	3.6910	3.6909	2.5183	25.80	-0.13	0.750			
0.5997	38379.06	3.6880	3.6880	2.6104	25.78	-0.15	0.750			
0.6077	38891.72	3.6850	3.6850	2.6962	25.76	-0.17	0.750			
0.6159	39418.25	3.6820	3.6819	2.7794	25.75	-0.18	0.750			
0.6243	39955.12	3.6790	3.6789	2.8831	25.73	-0.20	0.750			
0.6331	40520.95	3.6760	3.6761	2.9864	25.71	-0.22	0.750			
0.6422	41097.98	3.6730	3.6729	3.0747	25.70	-0.23	0.750			
0.6516	41703.07	3.6700	3.6701	3.1590	25.69	-0.24	0.750			
0.6612	42319.13	3.6670	3.6669	3.1681	25.68	-0.25	0.750			
0.6707	42926.48	3.6640	3.6641	3.1150	25.67	-0.26	0.750			
0.6803	43540.24	3.6610	3.6610	2.9573	25.67	-0.26	0.750			
0.6889	44087.61	3.6580	3.6579	2.6929	25.66	-0.27	0.750			
0.6964	44568.47	3.6550	3.6554	2.4131	25.67	-0.26	0.750			
0.7028	44980.64	3.6520	3.6516	2.1212	25.68	-0.25	0.750			
0.7087	45359.43	3.6490	3.6486	1.9178	25.68	-0.25	0.750			
0.7139	45687.88	3.6460	3.6457	1.7323	25.68	-0.25	0.750			
0.7189	46008.29	3.6430	3.6432	1.6168	25.68	-0.25	0.750			
0.7236	46307.35	3.6400	3.6402	1.4866	25.68	-0.25	0.750			
0.7279	46585.38	3.6370	3.6370	1.3885	25.68	-0.25	0.750			
0.7319	46839.20	3.6340	3.6341	1.2982	25.68	-0.25	0.750			
0.7354	47067.37	3.6310	3.6310	1.2477	25.68	-0.25	0.750			
0.7390	47296.97	3.6280	3.6278	1.2060	25.68	-0.25	0.750			
0.7425	47519.05	3.6250	3.6249	1.2065	25.69	-0.24	0.750			
0.7461	47750.11	3.6220	3.6220	1.2183	25.69	-0.24	0.750			
0.7499	47992.40	3.6190	3.6190	1.2246	25.70	-0.23	0.750			
0.7536	48227.40	3.6160	3.6161	1.2292	25.70	-0.23	0.750			
0.7573	48466.87	3.6130	3.6131	1.2339	25.70	-0.23	0.750			
0.7610	48705.98	3.6100	3.6101	1.2184	25.70	-0.23	0.750			
0.7647	48941.03	3.6070	3.6069	1.1878	25.70	-0.23	0.750			
0.7682	49164.86	3.6040	3.6041	1.1746	25.70	-0.23	0.750			
0.7717	49387.31	3.6010	3.6011	1.1729	25.70	-0.23	0.750			
0.7752	49610.81	3.5980	3.5978	1.1697	25.70	-0.23	0.750			
0.7786	49831.91	3.5950	3.5950	1.1576	25.70	-0.23	0.750			
0.7820	50049.96	3.5920	3.5922	1.1783	25.70	-0.23	0.750			
0.7856	50278.19	3.5890	3.5891	1.2085	25.71	-0.22	0.750			
0.7892	50511.93	3.5860	3.5856	1.2381	25.71	-0.22	0.750			
0.7929	50747.73	3.5830	3.5831	1.2724	25.71	-0.22	0.750			
0.7968	50994.82	3.5800	3.5801	1.3121	25.71	-0.22	0.750			
0.8008	51252.31	3.5770	3.5769	1.3612	25.71	-0.22	0.750			
0.8049	51513.81	3.5740	3.5742	1.4006	25.71	-0.22	0.750			
0.8093	51792.06	3.5710	3.5707	1.4400	25.72	-0.21	0.750			
0.8136	52073.13	3.5680	3.5676	1.4934	25.72	-0.21	0.750			
0.8182	52366.78	3.5650	3.5652	1.5254	25.72	-0.21	0.750			
0.8229	52664.57	3.5620	3.5621	1.5517	25.71	-0.22	0.750			
0.8275	52962.96	3.5590	3.5590	1.5842	25.71	-0.22	0.750			
0.8325	53277.74	3.5560	3.5557	1.6118	25.71	-0.22	0.750			
0.8373	53590.37	3.5530	3.5529	1.6108	25.72	-0.21	0.750			
0.8422	53899.71	3.5500	3.5499	1.6372	25.72	-0.21	0.750			
0.8471	54213.40	3.5470	3.5472	1.6493	25.71	-0.22	0.750			
0.8521	54532.76	3.5440	3.5439	1.6564	25.71	-0.22	0.750			
0.8569	54844.19	3.5410	3.5409	1.6586	25.71	-0.22	0.750			
0.8618	55157.67	3.5380	3.5381	1.6921	25.72	-0.21	0.750			
0.8670	55488.09	3.5350	3.5348	1.7491	25.73	-0.20	0.750			
0.8724	55835.64	3.5320	3.5319	1.7448	25.74	-0.19	0.750			
0.8780	56194.43	3.5290	3.5290	1.6397	25.76	-0.17	0.750			
0.8834	56539.76	3.5260	3.5259	1.5135	25.77	-0.16	0.750			
0.8879	56823.86	3.5230	3.5234	1.2583	25.79	-0.14	0.750			
0.8913	57044.48	3.5200	3.5201	0.9816	25.80	-0.13	0.750			
0.8934	57179.67	3.5170	3.5167	0.7306	25.81	-0.12	0.750			
0.8948	57267.01	3.5140	3.5137	0.5218	25.82	-0.11	0.750			
0.8960	57342.74	3.5110	3.5109	0.4289	25.82	-0.11	0.750			
0.8971	57411.95	3.5080	3.5080	0.3726	25.83	-0.10	0.750			
0.8980	57474.91	3.5050	3.5049	0.3400	25.83	-0.10	0.750			
0.8990	57536.58	3.5020	3.5020	0.3217	25.84	-0.09	0.750			
0.8999	57594.53	3.4990	3.4990	0.3076	25.84	-0.09	0.750			
0.9008	57652.56	3.4960	3.4960	0.2983	25.85	-0.08	0.750			
0.9017	57708.36	3.4930	3.4931	0.2891	25.85	-0.08	0.750			
0.9026	57763.35	3.4900	3.4901	0.2837	25.86	-0.07	0.750			
0.9034	57816.73	3.4870	3.4871	0.2786	25.86	-0.07	0.750			
0.9042	57870.13	3.4840	3.4840	0.2729	25.87	-0.06	0.750			
0.9050	57922.07	3.4810	3.4809	0.2654	25.87	-0.06	0.750			
0.9058	57972.73	3.4780	3.4780	0.2597	25.88	-0.05	0.750			
0.9066	58022.59	3.4750	3.4752	0.2540	25.88	-0.05	0.750			
0.9073	58070.22	3.4720	3.4719	0.2482	25.89	-0.04	0.750			
0.9081	58116.48	3.4690	3.4689	0.2417	25.89	-0.04	0.750			
0.9088	58162.03	3.4660	3.4660	0.2369	25.90	-0.03	0.750			
0.9095	58206.76	3.4630	3.4629	0.2332	25.90	-0.03	0.750			
0.9102	58252.16	3.4600	3.4600	0.2289	25.91	-0.02	0.750			
0.9109	58295.78	3.4570	3.4570	0.2249	25.91	-0.02	0.750			
0.9115	58338.12	3.4540	3.4540	0.2210	25.92	-0.01	0.750			
0.9122	58380.16	3.4510	3.4511	0.2169	25.92	-0.01	0.750			
0.9128	58420.92	3.4480	3.4479	0.2128	25.92	-0.01	0.750			
0.9135	58461.68	3.4450	3.4450	0.2085	25.93	-0.00	0.750			
0.9141	58501.66	3.4420	3.4420	0.2042	25.93	0.00	0.750			
0.9147	58540.43	3.4390	3.4392	0.1996	25.94	0.01	0.750			
0.9153	58579.00	3.4360	3.4359	0.1955	25.94	0.01	0.750			
0.9159	58615.51	3.4330	3.4330	0.1906	25.94	0.01	0.750			
0.9164	58651.36	3.4300	3.4299	0.1851	25.95	0.02	0.750			
0.9170	58686.52	3.4270	3.4270	0.1812	25.95	0.02	0.750			
0.9175	58721.01	3.4240	3.4240	0.1761	25.95	0.02	0.750			
0.9180	58754.66	3.4210	3.4211	0.1717	25.96	0.03	0.750			
0.9185	58787.18	3.4180	3.4180	0.1672	25.96	0.03	0.750			
0.9190	58818.79	3.4150	3.4151	0.1621	25.96	0.03	0.750			
0.9195	58849.35	3.4120	3.4119	0.1570	25.97	0.04	0.750			
0.9200	58878.85	3.4090	3.4090	0.1515	25.97	0.04	0.750			
0.9204	58907.53	3.4060	3.4060	0.1471	25.97	0.04	0.750			
0.9209	58935.30	3.4030	3.4031	0.1422	25.97	0.04	0.750			
0.9213	58962.50	3.4000	3.4000	0.1362	25.98	0.05	0.750			
0.9217	58988.15	3.3970	3.3969	0.1304	25.98	0.05	0.750			
0.9221	59012.61	3.3940	3.3940	0.1243	25.98	0.05	0.750			
0.9224	59036.09	3.3910	3.3911	0.1175	25.98	0.05	0.750			
0.9228	59058.24	3.3880	3.3878	0.1111	25.99	0.06	0.750			
0.9231	59079.04	3.3850	3.3852	0.1042	25.99	0.06	0.750			
0.9234	59099.16	3.3820	3.3819	0.0952	25.99	0.06	0.750			
0.9237	59116.55	3.3790	3.3789	0.0859	25.99	0.06	0.750			
0.9240	59132.98	3.3760	3.3761	0.0782	25.99	0.06	0.750			
0.9242	59147.02	3.3730	3.3733	0.0680	26.00	0.07	0.750			
0.9244	59159.39	3.3700	3.3703	0.0578	26.00	0.07	0.750			
0.9245	59169.47	3.3670	3.3678	0.0472	26.00	0.07	0.750			
0.9246	59177.51	3.3640	3.3654	0.0366	26.00	0.07	0.750			
0.9247	59183.51	3.3610	3.3628	0.0259	26.00	0.07	0.750			
