Ah_balance (normalized)	Ah_balance (mAh)	Voltage - fit (V)	Voltage -  interpolate (V)	dQ/dV (1/V)	Temperature (°C)	Temperature - diff (°C)	Current (C)	R_DC 0ms (mOhm)	R_DC 50ms (mOhm)	R_DC 50 ms PEC (mOhm)
0.0494	3164.36	4.1990	4.1990	0.7530	26.11	0.14	0.750			
0.0517	3309.28	4.1960	4.1960	0.7574	26.11	0.14	0.750			
0.0540	3456.01	4.1930	4.1930	0.7655	26.11	0.14	0.750			
0.0563	3604.21	4.1900	4.1901	0.7683	26.11	0.14	0.750			
0.0586	3752.65	4.1870	4.1869	0.7697	26.11	0.14	0.750			
0.0610	3900.88	4.1840	4.1840	0.7688	26.11	0.14	0.750			
0.0632	4047.27	4.1810	4.1810	0.7675	26.11	0.14	0.750			
0.0655	4194.25	4.1780	4.1780	0.7701	26.11	0.14	0.750			
0.0678	4341.47	4.1750	4.1750	0.7730	26.11	0.14	0.750			
0.0702	4491.41	4.1720	4.1720	0.7760	26.11	0.14	0.750			
0.0725	4640.76	4.1690	4.1690	0.7806	26.11	0.14	0.750			
0.0749	4791.64	4.1660	4.1660	0.7838	26.11	0.14	0.750			
0.0772	4942.59	4.1630	4.1630	0.7851	26.11	0.14	0.750			
0.0796	5093.36	4.1600	4.1601	0.7854	26.11	0.14	0.750			
0.0820	5245.01	4.1570	4.1570	0.7835	26.11	0.14	0.750			
0.0843	5395.52	4.1540	4.1540	0.7764	26.11	0.14	0.750			
0.0866	5542.91	4.1510	4.1511	0.7812	26.12	0.15	0.750			
0.0889	5690.91	4.1480	4.1481	0.7831	26.12	0.15	0.750			
0.0913	5841.76	4.1450	4.1447	0.7878	26.12	0.15	0.750			
0.0936	5993.22	4.1420	4.1421	0.7921	26.12	0.15	0.750			
0.0960	6146.69	4.1390	4.1390	0.7945	26.12	0.15	0.750			
0.0985	6301.53	4.1360	4.1360	0.8041	26.12	0.15	0.750			
0.1009	6455.28	4.1330	4.1330	0.8005	26.12	0.15	0.750			
0.1033	6608.56	4.1300	4.1299	0.7984	26.12	0.15	0.750			
0.1057	6762.40	4.1270	4.1271	0.7990	26.12	0.15	0.750			
0.1081	6917.62	4.1240	4.1239	0.7952	26.12	0.15	0.750			
0.1105	7069.50	4.1210	4.1211	0.8002	26.13	0.16	0.750			
0.1128	7222.19	4.1180	4.1180	0.8046	26.13	0.16	0.750			
0.1152	7375.84	4.1150	4.1149	0.8021	26.13	0.16	0.750			
0.1177	7531.95	4.1120	4.1121	0.8069	26.13	0.16	0.750			
0.1201	7688.88	4.1090	4.1090	0.8041	26.13	0.16	0.750			
0.1225	7842.09	4.1060	4.1061	0.8042	26.13	0.16	0.750			
0.1250	7996.92	4.1030	4.1030	0.8059	26.13	0.16	0.750			
0.1273	8148.34	4.1000	4.1000	0.8033	26.13	0.16	0.750			
0.1297	8302.61	4.0970	4.0970	0.8060	26.13	0.16	0.750			
0.1322	8460.29	4.0940	4.0940	0.8083	26.13	0.16	0.750			
0.1346	8613.89	4.0910	4.0911	0.8145	26.13	0.16	0.750			
0.1371	8771.87	4.0880	4.0880	0.8208	26.13	0.16	0.750			
0.1395	8929.23	4.0850	4.0850	0.8236	26.13	0.16	0.750			
0.1420	9087.15	4.0820	4.0820	0.8295	26.13	0.16	0.750			
0.1445	9249.12	4.0790	4.0790	0.8299	26.14	0.17	0.750			
0.1470	9409.98	4.0760	4.0761	0.8359	26.14	0.17	0.750			
0.1495	9570.06	4.0730	4.0730	0.8378	26.14	0.17	0.750			
0.1520	9729.07	4.0700	4.0701	0.8363	26.15	0.18	0.750			
0.1545	9890.40	4.0670	4.0670	0.8385	26.15	0.18	0.750			
0.1571	10051.51	4.0640	4.0641	0.8397	26.15	0.18	0.750			
0.1596	10213.00	4.0610	4.0610	0.8448	26.15	0.18	0.750			
0.1621	10375.90	4.0580	4.0580	0.8520	26.15	0.18	0.750			
0.1647	10539.49	4.0550	4.0550	0.8523	26.15	0.18	0.750			
0.1673	10704.25	4.0520	4.0520	0.8581	26.15	0.18	0.750			
0.1699	10870.62	4.0490	4.0490	0.8608	26.16	0.19	0.750			
0.1725	11037.14	4.0460	4.0460	0.8626	26.16	0.19	0.750			
0.1750	11201.96	4.0430	4.0430	0.8632	26.16	0.19	0.750			
0.1776	11366.55	4.0400	4.0400	0.8647	26.17	0.20	0.750			
0.1802	11532.45	4.0370	4.0370	0.8696	26.17	0.20	0.750			
0.1828	11700.65	4.0340	4.0339	0.8704	26.17	0.20	0.750			
0.1854	11867.72	4.0310	4.0310	0.8724	26.17	0.20	0.750			
0.1881	12036.69	4.0280	4.0280	0.8778	26.17	0.20	0.750			
0.1907	12204.88	4.0250	4.0249	0.8794	26.17	0.20	0.750			
0.1933	12372.85	4.0220	4.0220	0.8792	26.17	0.20	0.750			
0.1960	12541.89	4.0190	4.0190	0.8777	26.17	0.20	0.750			
0.1986	12710.22	4.0160	4.0160	0.8821	26.17	0.20	0.750			
0.2013	12880.11	4.0130	4.0131	0.8893	26.17	0.20	0.750			
0.2039	13050.01	4.0100	4.0097	0.8906	26.17	0.20	0.750			
0.2066	13220.70	4.0070	4.0071	0.8950	26.17	0.20	0.750			
0.2093	13393.95	4.0040	4.0040	0.8987	26.18	0.21	0.750			
0.2120	13568.46	4.0010	4.0009	0.9041	26.18	0.21	0.750			
0.2147	13741.17	3.9980	3.9981	0.9016	26.19	0.22	0.750			
0.2174	13915.24	3.9950	3.9950	0.9057	26.19	0.22	0.750			
0.2202	14089.93	3.9920	3.9920	0.9009	26.19	0.22	0.750			
0.2229	14262.88	3.9890	3.9890	0.9034	26.19	0.22	0.750			
0.2255	14433.78	3.9860	3.9861	0.9081	26.19	0.22	0.750			
0.2283	14608.63	3.9830	3.9827	0.9147	26.19	0.22	0.750			
0.2310	14785.23	3.9800	3.9801	0.9162	26.19	0.22	0.750			
0.2338	14961.94	3.9770	3.9771	0.9220	26.20	0.23	0.750			
0.2366	15142.11	3.9740	3.9740	0.9266	26.20	0.23	0.750			
0.2394	15320.06	3.9710	3.9710	0.9309	26.21	0.24	0.750			
0.2421	15495.49	3.9680	3.9680	0.9277	26.21	0.24	0.750			
0.2449	15674.15	3.9650	3.9650	0.9245	26.21	0.24	0.750			
0.2477	15851.07	3.9620	3.9620	0.9294	26.21	0.24	0.750			
0.2505	16030.11	3.9590	3.9591	0.9323	26.21	0.24	0.750			
0.2533	16208.80	3.9560	3.9559	0.9342	26.21	0.24	0.750			
0.2561	16390.16	3.9530	3.9530	0.9370	26.21	0.24	0.750			
0.2589	16568.76	3.9500	3.9501	0.9404	26.21	0.24	0.750			
0.2617	16749.62	3.9470	3.9470	0.9482	26.22	0.25	0.750			
0.2646	16932.01	3.9440	3.9440	0.9510	26.22	0.25	0.750			
0.2674	17116.13	3.9410	3.9410	0.9512	26.22	0.25	0.750			
0.2703	17300.64	3.9380	3.9380	0.9470	26.22	0.25	0.750			
0.2731	17480.82	3.9350	3.9350	0.9449	26.23	0.26	0.750			
0.2760	17661.95	3.9320	3.9321	0.9433	26.23	0.26	0.750			
0.2788	17840.31	3.9290	3.9288	0.9445	26.23	0.26	0.750			
0.2816	18020.45	3.9260	3.9260	0.9461	26.23	0.26	0.750			
0.2844	18202.46	3.9230	3.9231	0.9608	26.23	0.26	0.750			
0.2874	18391.98	3.9200	3.9199	0.9649	26.23	0.26	0.750			
0.2903	18577.05	3.9170	3.9170	0.9659	26.23	0.26	0.750			
0.2932	18765.44	3.9140	3.9141	0.9610	26.23	0.26	0.750			
0.2961	18948.48	3.9110	3.9110	0.9720	26.23	0.26	0.750			
0.2990	19134.55	3.9080	3.9079	0.9752	26.23	0.26	0.750			
0.3019	19320.94	3.9050	3.9051	0.9789	26.23	0.26	0.750			
0.3049	19511.44	3.9020	3.9021	0.9769	26.23	0.26	0.750			
0.3078	19700.05	3.8990	3.8991	0.9850	26.23	0.26	0.750			
0.3107	19887.24	3.8960	3.8960	0.9901	26.23	0.26	0.750			
0.3137	20078.52	3.8930	3.8931	0.9968	26.23	0.26	0.750			
0.3167	20268.34	3.8900	3.8900	0.9971	26.23	0.26	0.750			
0.3197	20462.61	3.8870	3.8871	1.0039	26.23	0.26	0.750			
0.3227	20655.91	3.8840	3.8841	1.0124	26.23	0.26	0.750			
0.3258	20852.03	3.8810	3.8810	1.0184	26.23	0.26	0.750			
0.3289	21048.14	3.8780	3.8780	1.0154	26.23	0.26	0.750			
0.3319	21242.26	3.8750	3.8750	1.0174	26.23	0.26	0.750			
0.3350	21438.92	3.8720	3.8721	1.0254	26.22	0.25	0.750			
0.3381	21637.04	3.8690	3.8690	1.0275	26.22	0.25	0.750			
0.3412	21833.68	3.8660	3.8660	1.0318	26.22	0.25	0.750			
0.3442	22031.41	3.8630	3.8630	1.0339	26.22	0.25	0.750			
0.3473	22229.94	3.8600	3.8600	1.0451	26.22	0.25	0.750			
0.3505	22431.28	3.8570	3.8570	1.0561	26.21	0.24	0.750			
0.3537	22636.15	3.8540	3.8538	1.0575	26.21	0.24	0.750			
0.3569	22839.72	3.8510	3.8511	1.0676	26.20	0.23	0.750			
0.3601	23045.62	3.8480	3.8480	1.0825	26.20	0.23	0.750			
0.3633	23252.88	3.8450	3.8451	1.0962	26.19	0.22	0.750			
0.3667	23467.32	3.8420	3.8418	1.0941	26.19	0.22	0.750			
0.3699	23676.73	3.8390	3.8391	1.1129	26.19	0.22	0.750			
0.3733	23892.65	3.8360	3.8361	1.1278	26.19	0.22	0.750			
0.3767	24110.54	3.8330	3.8330	1.1463	26.19	0.22	0.750			
0.3802	24329.92	3.8300	3.8302	1.1578	26.19	0.22	0.750			
0.3837	24554.00	3.8270	3.8270	1.1761	26.18	0.21	0.750			
0.3872	24782.47	3.8240	3.8240	1.1922	26.18	0.21	0.750			
0.3909	25016.03	3.8210	3.8209	1.2045	26.17	0.20	0.750			
0.3945	25247.53	3.8180	3.8180	1.2144	26.16	0.19	0.750			
0.3982	25482.39	3.8150	3.8150	1.2278	26.15	0.18	0.750			
0.4019	25719.75	3.8120	3.8120	1.2294	26.14	0.17	0.750			
0.4055	25953.89	3.8090	3.8090	1.2421	26.13	0.16	0.750			
0.4093	26193.83	3.8060	3.8061	1.2654	26.12	0.15	0.750			
0.4131	26438.84	3.8030	3.8030	1.2824	26.11	0.14	0.750			
0.4170	26688.80	3.8000	3.7998	1.2888	26.11	0.14	0.750			
0.4208	26933.63	3.7970	3.7971	1.3037	26.10	0.13	0.750			
0.4248	27186.78	3.7940	3.7941	1.3171	26.08	0.11	0.750			
0.4288	27443.32	3.7910	3.7907	1.3178	26.07	0.10	0.750			
0.4327	27691.97	3.7880	3.7881	1.3215	26.06	0.09	0.750			
0.4367	27947.13	3.7850	3.7853	1.3362	26.04	0.07	0.750			
0.4408	28210.00	3.7820	3.7817	1.3345	26.03	0.06	0.750			
0.4447	28461.97	3.7790	3.7791	1.3528	26.02	0.05	0.750			
0.4488	28722.50	3.7760	3.7761	1.3697	26.01	0.04	0.750			
0.4530	28989.03	3.7730	3.7727	1.3929	26.00	0.03	0.750			
0.4572	29259.31	3.7700	3.7701	1.3975	25.99	0.02	0.750			
0.4614	29527.46	3.7670	3.7671	1.4240	25.98	0.01	0.750			
0.4657	29805.50	3.7640	3.7639	1.4561	25.97	0.00	0.750			
0.4701	30084.04	3.7610	3.7610	1.4762	25.96	-0.01	0.750			
0.4746	30373.24	3.7580	3.7581	1.4938	25.94	-0.03	0.750	0.329	0.406	
0.4791	30663.74	3.7550	3.7550	1.5246	25.93	-0.04	0.750			
0.4837	30955.67	3.7520	3.7521	1.5526	25.91	-0.06	0.750			
0.4884	31255.06	3.7490	3.7492	1.5908	25.90	-0.07	0.750			
0.4931	31560.44	3.7460	3.7458	1.6150	25.89	-0.08	0.750			
0.4980	31874.44	3.7430	3.7428	1.6639	25.88	-0.09	0.750			
0.5031	32200.47	3.7400	3.7399	1.6981	25.87	-0.10	0.750			
0.5083	32533.82	3.7370	3.7370	1.7504	25.86	-0.11	0.750			
0.5136	32871.94	3.7340	3.7341	1.7741	25.84	-0.13	0.750			
0.5189	33208.66	3.7310	3.7310	1.8497	25.83	-0.14	0.750			
0.5247	33580.16	3.7280	3.7281	1.8885	25.82	-0.15	0.750			
0.5305	33949.05	3.7250	3.7248	1.9366	25.80	-0.17	0.750			
0.5363	34325.00	3.7220	3.7222	1.9974	25.79	-0.18	0.750			
0.5424	34711.93	3.7190	3.7191	2.0428	25.77	-0.20	0.750			
0.5486	35108.32	3.7160	3.7160	2.0911	25.75	-0.22	0.750			
0.5548	35510.04	3.7130	3.7131	2.1554	25.73	-0.24	0.750			
0.5614	35927.19	3.7100	3.7100	2.2140	25.71	-0.26	0.750			
0.5683	36370.98	3.7070	3.7070	2.3017	25.69	-0.28	0.750			
0.5753	36816.34	3.7040	3.7041	2.3441	25.68	-0.29	0.750			
0.5824	37273.55	3.7010	3.7009	2.3984	25.66	-0.31	0.750			
0.5897	37739.49	3.6980	3.6980	2.4667	25.64	-0.33	0.750			
0.5971	38212.08	3.6950	3.6950	2.5698	25.63	-0.34	0.750			
0.6049	38710.57	3.6920	3.6920	2.6735	25.62	-0.35	0.750			
0.6131	39237.55	3.6890	3.6889	2.7658	25.59	-0.38	0.750			
0.6216	39784.69	3.6860	3.6861	2.8558	25.57	-0.40	0.750			
0.6303	40340.56	3.6830	3.6829	2.9251	25.56	-0.41	0.750			
0.6391	40905.54	3.6800	3.6799	3.0190	25.55	-0.42	0.750			
0.6482	41487.01	3.6770	3.6769	3.1224	25.54	-0.43	0.750			
0.6579	42103.77	3.6740	3.6740	3.2133	25.53	-0.44	0.750			
0.6677	42732.18	3.6710	3.6711	3.3172	25.52	-0.45	0.750			
0.6779	43383.69	3.6680	3.6679	3.3427	25.52	-0.45	0.750			
0.6880	44033.08	3.6650	3.6651	3.3244	25.51	-0.46	0.750			
0.6984	44697.45	3.6620	3.6620	3.1689	25.52	-0.45	0.750			
0.7077	45293.94	3.6590	3.6591	2.8811	25.52	-0.45	0.750			
0.7156	45796.56	3.6560	3.6561	2.5496	25.52	-0.45	0.750			
0.7228	46257.86	3.6530	3.6527	2.2584	25.53	-0.44	0.750			
0.7289	46648.54	3.6500	3.6500	2.0047	25.54	-0.43	0.750			
0.7343	46995.66	3.6470	3.6469	1.8105	25.54	-0.43	0.750			
0.7394	47323.14	3.6440	3.6441	1.6527	25.55	-0.42	0.750			
0.7442	47627.04	3.6410	3.6409	1.5308	25.55	-0.42	0.750			
0.7485	47902.56	3.6380	3.6382	1.4137	25.56	-0.41	0.750			
0.7526	48163.93	3.6350	3.6349	1.3390	25.56	-0.41	0.750			
0.7563	48405.31	3.6320	3.6319	1.2733	25.56	-0.41	0.750			
0.7599	48631.33	3.6290	3.6291	1.2300	25.56	-0.41	0.750			
0.7635	48863.22	3.6260	3.6260	1.2211	25.57	-0.40	0.750			
0.7671	49094.47	3.6230	3.6230	1.2164	25.57	-0.40	0.750			
0.7708	49328.17	3.6200	3.6200	1.2277	25.58	-0.39	0.750			
0.7745	49565.92	3.6170	3.6171	1.2340	25.58	-0.39	0.750			
0.7782	49806.86	3.6140	3.6138	1.2301	25.59	-0.38	0.750			
0.7819	50042.84	3.6110	3.6110	1.2245	25.59	-0.38	0.750			
0.7856	50279.08	3.6080	3.6081	1.2187	25.60	-0.37	0.750			
0.7893	50514.52	3.6050	3.6051	1.2047	25.60	-0.37	0.750			
0.7928	50741.93	3.6020	3.6021	1.1872	25.60	-0.37	0.750			
0.7963	50965.91	3.5990	3.5991	1.1781	25.60	-0.37	0.750			
0.7998	51190.20	3.5960	3.5960	1.1854	25.60	-0.37	0.750			
0.8034	51417.66	3.5930	3.5929	1.1902	25.60	-0.37	0.750			
0.8069	51640.51	3.5900	3.5900	1.2205	25.61	-0.36	0.750			
0.8106	51875.36	3.5870	3.5871	1.2582	25.61	-0.36	0.750			
0.8145	52125.68	3.5840	3.5838	1.2863	25.62	-0.35	0.750			
0.8184	52374.47	3.5810	3.5811	1.3255	25.62	-0.35	0.750			
0.8224	52631.56	3.5780	3.5781	1.3607	25.62	-0.35	0.750			
0.8265	52898.30	3.5750	3.5752	1.3889	25.62	-0.35	0.750			
0.8307	53166.92	3.5720	3.5721	1.4245	25.62	-0.35	0.750			
0.8349	53436.12	3.5690	3.5689	1.4626	25.63	-0.34	0.750			
0.8394	53723.46	3.5660	3.5662	1.5085	25.64	-0.33	0.750			
0.8441	54023.74	3.5630	3.5630	1.5494	25.64	-0.33	0.750			
0.8488	54326.33	3.5600	3.5599	1.5707	25.64	-0.33	0.750			
0.8536	54633.06	3.5570	3.5569	1.5973	25.64	-0.33	0.750			
0.8585	54945.15	3.5540	3.5539	1.6003	25.65	-0.32	0.750			
0.8632	55246.79	3.5510	3.5511	1.5918	25.66	-0.31	0.750			
0.8680	55550.98	3.5480	3.5482	1.6058	25.66	-0.31	0.750			
0.8728	55860.32	3.5450	3.5446	1.6276	25.67	-0.30	0.750			
0.8778	56179.25	3.5420	3.5420	1.6432	25.68	-0.29	0.750			
0.8826	56488.98	3.5390	3.5390	1.6895	25.68	-0.29	0.750			
0.8877	56815.92	3.5360	3.5362	1.7377	25.69	-0.28	0.750			
0.8933	57170.30	3.5330	3.5327	1.7229	25.70	-0.27	0.750			
0.8987	57517.11	3.5300	3.5300	1.6549	25.71	-0.26	0.750			
0.9040	57855.57	3.5270	3.5269	1.4805	25.72	-0.25	0.750			
0.9084	58135.21	3.5240	3.5247	1.2477	25.75	-0.22	0.750			
0.9120	58368.52	3.5210	3.5213	1.0210	25.77	-0.20	0.750			
0.9142	58510.94	3.5180	3.5178	0.7455	25.78	-0.19	0.750			
0.9156	58598.25	3.5150	3.5148	0.5389	25.79	-0.18	0.750			
0.9169	58680.50	3.5120	3.5116	0.4384	25.79	-0.18	0.750			
0.9179	58746.94	3.5090	3.5090	0.3770	25.80	-0.17	0.750			
0.9190	58814.70	3.5060	3.5060	0.3473	25.81	-0.16	0.750			
0.9200	58876.85	3.5030	3.5030	0.3274	25.82	-0.15	0.750			
0.9209	58936.94	3.5000	3.5000	0.3109	25.82	-0.15	0.750			
0.9218	58993.71	3.4970	3.4970	0.2973	25.83	-0.14	0.750			
0.9227	59050.27	3.4940	3.4940	0.2901	25.84	-0.13	0.750			
0.9235	59104.80	3.4910	3.4910	0.2825	25.85	-0.12	0.750			
0.9243	59157.97	3.4880	3.4880	0.2763	25.85	-0.12	0.750			
0.9252	59210.53	3.4850	3.4850	0.2714	25.86	-0.11	0.750			
0.9260	59262.01	3.4820	3.4820	0.2650	25.87	-0.10	0.750			
0.9268	59312.81	3.4790	3.4789	0.2607	25.87	-0.10	0.750			
0.9275	59362.45	3.4760	3.4761	0.2548	25.88	-0.09	0.750			
0.9283	59410.76	3.4730	3.4731	0.2497	25.89	-0.08	0.750			
0.9290	59457.96	3.4700	3.4700	0.2442	25.89	-0.08	0.750			
0.9297	59503.76	3.4670	3.4670	0.2378	25.90	-0.07	0.750			
0.9304	59548.80	3.4640	3.4640	0.2336	25.90	-0.07	0.750			
0.9312	59593.99	3.4610	3.4610	0.2312	25.91	-0.06	0.750			
0.9318	59637.88	3.4580	3.4580	0.2266	25.91	-0.06	0.750			
0.9325	59680.78	3.4550	3.4550	0.2225	25.91	-0.06	0.750			
0.9332	59722.79	3.4520	3.4521	0.2184	25.92	-0.05	0.750			
0.9338	59764.45	3.4490	3.4490	0.2155	25.92	-0.05	0.750			
0.9345	59805.64	3.4460	3.4459	0.2119	25.93	-0.04	0.750			
0.9351	59846.31	3.4430	3.4430	0.2078	25.93	-0.04	0.750			
0.9357	59885.74	3.4400	3.4400	0.2036	25.94	-0.03	0.750			
0.9363	59924.44	3.4370	3.4370	0.1995	25.94	-0.03	0.750			
0.9369	59962.55	3.4340	3.4340	0.1953	25.94	-0.03	0.750			
0.9375	59999.53	3.4310	3.4310	0.1907	25.95	-0.02	0.750			
0.9381	60035.43	3.4280	3.4280	0.1864	25.95	-0.02	0.750			
0.9386	60070.87	3.4250	3.4251	0.1827	25.95	-0.02	0.750			
0.9392	60105.82	3.4220	3.4220	0.1771	25.96	-0.01	0.750			
0.9397	60139.45	3.4190	3.4190	0.1735	25.96	-0.01	0.750			
0.9402	60172.13	3.4160	3.4161	0.1689	25.96	-0.01	0.750			
0.9407	60204.18	3.4130	3.4131	0.1645	25.97	-0.00	0.750			
0.9412	60235.36	3.4100	3.4096	0.1602	25.97	0.00	0.750			
0.9417	60265.61	3.4070	3.4070	0.1563	25.97	0.00	0.750			
0.9421	60295.53	3.4040	3.4040	0.1507	25.98	0.01	0.750			
0.9426	60323.97	3.4010	3.4010	0.1456	25.98	0.01	0.750			
0.9430	60351.97	3.3980	3.3980	0.1412	25.98	0.01	0.750			
0.9434	60378.10	3.3950	3.3951	0.1355	25.98	0.01	0.750			
0.9438	60403.67	3.3920	3.3919	0.1305	25.99	0.02	0.750			
0.9442	60428.47	3.3890	3.3887	0.1244	25.99	0.02	0.750			
0.9446	60451.81	3.3860	3.3860	0.1187	25.99	0.02	0.750			
0.9449	60474.12	3.3830	3.3831	0.1122	25.99	0.02	0.750			
0.9452	60495.73	3.3800	3.3801	0.1072	26.00	0.03	0.750			
0.9456	60516.23	3.3770	3.3768	0.0986	26.00	0.03	0.750			
0.9459	60534.57	3.3740	3.3739	0.0907	26.00	0.03	0.750			
0.9461	60551.15	3.3710	3.3710	0.0820	26.00	0.03	0.750			
0.9463	60566.36	3.3680	3.3682	0.0735	26.00	0.03	0.750			
0.9466	60579.58	3.3650	3.3655	0.0643	26.00	0.03	0.750			
0.9468	60592.10	3.3620	3.3623	0.0539	26.01	0.04	0.750			
0.9469	60601.40	3.3590	3.3598	0.0429	26.01	0.04	0.750			
0.9470	60608.58	3.3560	3.3569	0.0319	26.01	0.04	0.750			
