Ah_balance (normalized)	Ah_balance (mAh)	Voltage - fit (V)	Voltage -  interpolate (V)	dQ/dV (1/V)	Temperature (°C)	Temperature - diff (°C)	Current (C)	R_DC 0ms (mOhm)	R_DC 50ms (mOhm)	R_DC 50 ms PEC (mOhm)
0.0523	3345.23	4.1950	4.1950	0.7639	26.49	0.50	0.750			
0.0546	3492.46	4.1920	4.1920	0.7640	26.49	0.50	0.750			
0.0569	3639.10	4.1890	4.1890	0.7640	26.49	0.50	0.750			
0.0591	3784.80	4.1860	4.1860	0.7677	26.49	0.50	0.750			
0.0614	3932.32	4.1830	4.1830	0.7728	26.48	0.49	0.750			
0.0637	4079.68	4.1800	4.1801	0.7761	26.48	0.49	0.750			
0.0661	4231.13	4.1770	4.1770	0.7816	26.48	0.49	0.750			
0.0685	4381.47	4.1740	4.1741	0.7782	26.48	0.49	0.750			
0.0708	4531.48	4.1710	4.1710	0.7797	26.48	0.49	0.750			
0.0731	4679.42	4.1680	4.1680	0.7809	26.48	0.49	0.750			
0.0755	4829.22	4.1650	4.1650	0.7771	26.48	0.49	0.750			
0.0778	4978.82	4.1620	4.1616	0.7791	26.48	0.49	0.750			
0.0801	5128.41	4.1590	4.1591	0.7805	26.48	0.49	0.750			
0.0825	5280.43	4.1560	4.1559	0.7770	26.48	0.49	0.750			
0.0848	5430.35	4.1530	4.1530	0.7780	26.48	0.49	0.750			
0.0871	5577.41	4.1500	4.1500	0.7789	26.48	0.49	0.750			
0.0895	5724.93	4.1470	4.1470	0.7799	26.48	0.49	0.750			
0.0918	5876.10	4.1440	4.1440	0.7871	26.48	0.49	0.750			
0.0942	6027.93	4.1410	4.1410	0.7871	26.49	0.50	0.750			
0.0966	6179.48	4.1380	4.1381	0.7912	26.49	0.50	0.750			
0.0990	6334.17	4.1350	4.1350	0.7962	26.49	0.50	0.750			
0.1013	6485.68	4.1320	4.1320	0.7910	26.50	0.51	0.750			
0.1037	6635.47	4.1290	4.1290	0.7909	26.50	0.51	0.750			
0.1061	6787.70	4.1260	4.1260	0.7975	26.50	0.51	0.750			
0.1085	6942.47	4.1230	4.1230	0.7883	26.50	0.51	0.750			
0.1108	7092.18	4.1200	4.1201	0.7958	26.50	0.51	0.750			
0.1132	7244.67	4.1170	4.1171	0.7954	26.50	0.51	0.750			
0.1156	7398.06	4.1140	4.1135	0.8003	26.50	0.51	0.750			
0.1180	7551.92	4.1110	4.1111	0.8034	26.50	0.51	0.750			
0.1204	7706.62	4.1080	4.1081	0.8005	26.50	0.51	0.750			
0.1228	7861.60	4.1050	4.1051	0.8064	26.50	0.51	0.750			
0.1252	8015.93	4.1020	4.1020	0.8028	26.50	0.51	0.750			
0.1276	8169.24	4.0990	4.0989	0.8061	26.50	0.51	0.750			
0.1301	8324.99	4.0960	4.0960	0.8155	26.50	0.51	0.750			
0.1326	8483.71	4.0930	4.0930	0.8064	26.50	0.51	0.750			
0.1350	8639.55	4.0900	4.0900	0.8149	26.50	0.51	0.750			
0.1374	8795.71	4.0870	4.0872	0.8212	26.50	0.51	0.750			
0.1399	8951.61	4.0840	4.0838	0.8206	26.50	0.51	0.750			
0.1423	9110.15	4.0810	4.0811	0.8222	26.50	0.51	0.750			
0.1448	9269.16	4.0780	4.0781	0.8156	26.50	0.51	0.750			
0.1473	9424.99	4.0750	4.0751	0.8219	26.50	0.51	0.750			
0.1498	9585.00	4.0720	4.0719	0.8321	26.50	0.51	0.750			
0.1522	9741.01	4.0690	4.0689	0.8297	26.50	0.51	0.750			
0.1547	9901.07	4.0660	4.0661	0.8373	26.50	0.51	0.750			
0.1572	10063.99	4.0630	4.0630	0.8411	26.51	0.52	0.750			
0.1598	10227.75	4.0600	4.0600	0.8421	26.51	0.52	0.750			
0.1623	10389.06	4.0570	4.0571	0.8423	26.52	0.53	0.750			
0.1648	10549.97	4.0540	4.0540	0.8483	26.52	0.53	0.750			
0.1674	10712.43	4.0510	4.0510	0.8470	26.52	0.53	0.750			
0.1699	10875.58	4.0480	4.0479	0.8526	26.52	0.53	0.750			
0.1725	11040.38	4.0450	4.0451	0.8567	26.52	0.53	0.750			
0.1751	11204.83	4.0420	4.0421	0.8639	26.52	0.53	0.750			
0.1777	11372.10	4.0390	4.0386	0.8661	26.52	0.53	0.750			
0.1803	11538.49	4.0360	4.0361	0.8618	26.52	0.53	0.750			
0.1829	11704.24	4.0330	4.0330	0.8660	26.53	0.54	0.750			
0.1855	11873.13	4.0300	4.0301	0.8680	26.53	0.54	0.750			
0.1881	12038.57	4.0270	4.0269	0.8675	26.54	0.55	0.750			
0.1907	12202.30	4.0240	4.0240	0.8716	26.54	0.55	0.750			
0.1933	12370.51	4.0210	4.0210	0.8730	26.54	0.55	0.750			
0.1959	12539.86	4.0180	4.0180	0.8823	26.54	0.55	0.750			
0.1986	12709.35	4.0150	4.0150	0.8910	26.54	0.55	0.750			
0.2013	12881.81	4.0120	4.0122	0.8920	26.54	0.55	0.750			
0.2040	13055.04	4.0090	4.0088	0.8905	26.54	0.55	0.750			
0.2066	13225.48	4.0060	4.0061	0.8834	26.55	0.56	0.750			
0.2093	13393.31	4.0030	4.0031	0.8802	26.55	0.56	0.750			
0.2119	13560.98	4.0000	4.0000	0.8891	26.55	0.56	0.750			
0.2145	13730.96	3.9970	3.9968	0.8936	26.56	0.57	0.750			
0.2172	13903.22	3.9940	3.9939	0.8982	26.56	0.57	0.750			
0.2200	14080.64	3.9910	3.9910	0.8967	26.56	0.57	0.750			
0.2227	14251.88	3.9880	3.9883	0.9020	26.55	0.56	0.750			
0.2254	14425.74	3.9850	3.9850	0.9015	26.55	0.56	0.750			
0.2281	14596.42	3.9820	3.9815	0.9056	26.55	0.56	0.750			
0.2307	14766.38	3.9790	3.9792	0.9029	26.55	0.56	0.750			
0.2335	14942.64	3.9760	3.9760	0.9122	26.55	0.56	0.750			
0.2363	15123.29	3.9730	3.9730	0.9267	26.56	0.57	0.750			
0.2391	15301.89	3.9700	3.9699	0.9151	26.56	0.57	0.750			
0.2418	15477.23	3.9670	3.9672	0.9154	26.56	0.57	0.750			
0.2446	15655.02	3.9640	3.9639	0.9083	26.56	0.57	0.750			
0.2473	15825.71	3.9610	3.9611	0.9044	26.56	0.57	0.750			
0.2500	15996.83	3.9580	3.9580	0.9106	26.56	0.57	0.750			
0.2527	16170.85	3.9550	3.9547	0.9175	26.56	0.57	0.750			
0.2555	16351.89	3.9520	3.9520	0.9129	26.56	0.57	0.750			
0.2582	16527.44	3.9490	3.9491	0.9268	26.56	0.57	0.750			
0.2610	16705.40	3.9460	3.9461	0.9377	26.57	0.58	0.750			
0.2639	16888.64	3.9430	3.9431	0.9421	26.57	0.58	0.750			
0.2666	17065.33	3.9400	3.9401	0.9407	26.57	0.58	0.750			
0.2695	17247.36	3.9370	3.9372	0.9370	26.57	0.58	0.750			
0.2723	17428.25	3.9340	3.9340	0.9486	26.58	0.59	0.750			
0.2752	17611.67	3.9310	3.9310	0.9548	26.58	0.59	0.750			
0.2781	17795.27	3.9280	3.9277	0.9417	26.58	0.59	0.750			
0.2809	17977.21	3.9250	3.9252	0.9349	26.58	0.59	0.750			
0.2837	18156.99	3.9220	3.9221	0.9454	26.58	0.59	0.750			
0.2865	18337.21	3.9190	3.9190	0.9459	26.58	0.59	0.750			
0.2893	18516.86	3.9160	3.9159	0.9495	26.58	0.59	0.750			
0.2922	18700.55	3.9130	3.9131	0.9433	26.58	0.59	0.750			
0.2951	18884.19	3.9100	3.9100	0.9523	26.58	0.59	0.750			
0.2980	19069.42	3.9070	3.9071	0.9582	26.58	0.59	0.750			
0.3008	19252.19	3.9040	3.9041	0.9625	26.58	0.59	0.750			
0.3037	19434.02	3.9010	3.9009	0.9621	26.58	0.59	0.750			
0.3066	19620.73	3.8980	3.8980	0.9643	26.58	0.59	0.750			
0.3094	19804.44	3.8950	3.8950	0.9678	26.58	0.59	0.750			
0.3124	19994.06	3.8920	3.8921	0.9724	26.58	0.59	0.750			
0.3153	20180.67	3.8890	3.8888	0.9722	26.58	0.59	0.750			
0.3183	20368.08	3.8860	3.8860	0.9653	26.58	0.59	0.750			
0.3211	20551.60	3.8830	3.8831	0.9769	26.58	0.59	0.750			
0.3240	20738.74	3.8800	3.8800	0.9838	26.57	0.58	0.750			
0.3270	20928.47	3.8770	3.8769	0.9893	26.57	0.58	0.750			
0.3300	21121.25	3.8740	3.8740	0.9862	26.57	0.58	0.750			
0.3330	21310.79	3.8710	3.8711	1.0013	26.57	0.58	0.750			
0.3360	21503.26	3.8680	3.8681	1.0055	26.56	0.57	0.750			
0.3390	21695.33	3.8650	3.8651	1.0090	26.56	0.57	0.750			
0.3421	21892.84	3.8620	3.8621	1.0091	26.56	0.57	0.750			
0.3451	22085.10	3.8590	3.8591	1.0289	26.55	0.56	0.750			
0.3482	22284.51	3.8560	3.8561	1.0418	26.55	0.56	0.750			
0.3513	22485.78	3.8530	3.8531	1.0502	26.54	0.55	0.750			
0.3545	22688.98	3.8500	3.8500	1.0601	26.54	0.55	0.750			
0.3577	22894.76	3.8470	3.8471	1.0813	26.53	0.54	0.750			
0.3610	23104.58	3.8440	3.8440	1.0944	26.52	0.53	0.750			
0.3644	23319.63	3.8410	3.8408	1.1122	26.51	0.52	0.750			
0.3677	23531.00	3.8380	3.8381	1.0940	26.50	0.51	0.750			
0.3710	23743.50	3.8350	3.8351	1.1102	26.50	0.51	0.750			
0.3743	23955.29	3.8320	3.8320	1.1165	26.49	0.50	0.750			
0.3777	24171.71	3.8290	3.8284	1.1191	26.48	0.49	0.750			
0.3810	24383.89	3.8260	3.8262	1.1244	26.47	0.48	0.750			
0.3844	24599.93	3.8230	3.8231	1.1391	26.46	0.47	0.750			
0.3879	24822.66	3.8200	3.8201	1.1553	26.46	0.47	0.750			
0.3913	25044.98	3.8170	3.8170	1.1455	26.45	0.46	0.750			
0.3948	25265.80	3.8140	3.8141	1.1635	26.44	0.45	0.750			
0.3983	25490.15	3.8110	3.8110	1.1758	26.42	0.43	0.750			
0.4019	25718.49	3.8080	3.8080	1.1904	26.41	0.42	0.750			
0.4054	25948.69	3.8050	3.8051	1.1843	26.40	0.41	0.750			
0.4090	26175.39	3.8020	3.8021	1.1961	26.39	0.40	0.750			
0.4126	26407.72	3.7990	3.7991	1.2015	26.38	0.39	0.750			
0.4162	26638.12	3.7960	3.7961	1.2027	26.37	0.38	0.750			
0.4198	26867.66	3.7930	3.7931	1.2057	26.36	0.37	0.750			
0.4235	27100.80	3.7900	3.7902	1.2169	26.35	0.36	0.750			
0.4271	27337.45	3.7870	3.7868	1.2213	26.34	0.35	0.750			
0.4308	27570.73	3.7840	3.7841	1.2341	26.33	0.34	0.750			
0.4345	27806.31	3.7810	3.7811	1.2537	26.31	0.32	0.750			
0.4384	28054.94	3.7780	3.7779	1.2709	26.30	0.31	0.750			
0.4421	28296.70	3.7750	3.7750	1.2922	26.28	0.29	0.750			
0.4460	28546.38	3.7720	3.7720	1.3099	26.27	0.28	0.750			
0.4500	28800.03	3.7690	3.7692	1.3282	26.26	0.27	0.750			
0.4540	29054.89	3.7660	3.7658	1.3670	26.25	0.26	0.750			
0.4581	29317.38	3.7630	3.7632	1.3938	26.23	0.24	0.750			
0.4623	29589.16	3.7600	3.7599	1.4237	26.21	0.22	0.750			
0.4667	29868.29	3.7570	3.7573	1.4402	26.20	0.21	0.750	0.303	0.374	
0.4710	30146.17	3.7540	3.7541	1.4623	26.19	0.20	0.750			
0.4755	30429.23	3.7510	3.7512	1.4951	26.18	0.19	0.750			
0.4800	30719.30	3.7480	3.7475	1.5109	26.16	0.17	0.750			
0.4845	31007.88	3.7450	3.7448	1.5459	26.14	0.15	0.750			
0.4892	31307.53	3.7420	3.7421	1.5957	26.12	0.13	0.750			
0.4941	31622.61	3.7390	3.7393	1.6395	26.10	0.11	0.750			
0.4991	31941.37	3.7360	3.7360	1.6605	26.08	0.09	0.750			
0.5041	32259.37	3.7330	3.7329	1.7126	26.07	0.08	0.750			
0.5092	32589.76	3.7300	3.7299	1.7852	26.05	0.06	0.750			
0.5147	32943.20	3.7270	3.7272	1.8260	26.03	0.04	0.750			
0.5203	33299.52	3.7240	3.7242	1.8567	26.01	0.02	0.750			
0.5260	33662.07	3.7210	3.7211	1.9060	26.00	0.01	0.750			
0.5318	34032.43	3.7180	3.7178	1.9827	25.98	-0.01	0.750			
0.5378	34420.85	3.7150	3.7147	2.0405	25.96	-0.03	0.750			
0.5439	34811.64	3.7120	3.7123	2.0935	25.94	-0.05	0.750			
0.5505	35229.37	3.7090	3.7092	2.1721	25.92	-0.07	0.750			
0.5568	35637.95	3.7060	3.7058	2.2300	25.90	-0.09	0.750			
0.5637	36075.18	3.7030	3.7029	2.2862	25.88	-0.11	0.750			
0.5707	36522.56	3.7000	3.7000	2.3572	25.85	-0.14	0.750			
0.5779	36984.29	3.6970	3.6972	2.4296	25.82	-0.17	0.750			
0.5852	37451.53	3.6940	3.6938	2.4770	25.80	-0.19	0.750			
0.5927	37935.77	3.6910	3.6908	2.5496	25.78	-0.21	0.750			
0.6006	38436.61	3.6880	3.6880	2.6047	25.76	-0.23	0.750			
0.6084	38937.87	3.6850	3.6849	2.7114	25.74	-0.25	0.750			
0.6166	39459.86	3.6820	3.6822	2.8026	25.72	-0.27	0.750			
0.6251	40008.40	3.6790	3.6789	2.8858	25.70	-0.29	0.750			
0.6341	40579.64	3.6760	3.6763	3.0100	25.69	-0.30	0.750			
0.6434	41178.13	3.6730	3.6729	3.1035	25.67	-0.32	0.750			
0.6529	41783.15	3.6700	3.6703	3.1479	25.66	-0.33	0.750			
0.6624	42393.64	3.6670	3.6671	3.1722	25.64	-0.35	0.750			
0.6721	43012.15	3.6640	3.6644	3.1423	25.63	-0.36	0.750			
0.6817	43630.62	3.6610	3.6610	3.0341	25.61	-0.38	0.750			
0.6908	44209.24	3.6580	3.6581	2.7968	25.60	-0.39	0.750			
0.6987	44719.93	3.6550	3.6553	2.5198	25.60	-0.39	0.750			
0.7053	45142.35	3.6520	3.6522	2.1988	25.60	-0.39	0.750			
0.7115	45537.92	3.6490	3.6490	1.9655	25.61	-0.38	0.750			
0.7168	45878.21	3.6460	3.6458	1.7716	25.61	-0.38	0.750			
0.7218	46194.02	3.6430	3.6424	1.6334	25.62	-0.37	0.750			
0.7265	46492.91	3.6400	3.6402	1.5099	25.62	-0.37	0.750			
0.7308	46772.90	3.6370	3.6372	1.4082	25.62	-0.37	0.750			
0.7348	47029.02	3.6340	3.6341	1.3293	25.62	-0.37	0.750			
0.7386	47269.17	3.6310	3.6311	1.2496	25.62	-0.37	0.750			
0.7422	47500.67	3.6280	3.6279	1.2155	25.62	-0.37	0.750			
0.7457	47724.25	3.6250	3.6250	1.2032	25.62	-0.37	0.750			
0.7493	47953.28	3.6220	3.6221	1.2144	25.62	-0.37	0.750			
0.7530	48190.22	3.6190	3.6186	1.2174	25.62	-0.37	0.750			
0.7567	48425.86	3.6160	3.6160	1.2252	25.62	-0.37	0.750			
0.7604	48663.44	3.6130	3.6131	1.2277	25.62	-0.37	0.750			
0.7642	48906.36	3.6100	3.6099	1.2199	25.62	-0.37	0.750			
0.7678	49138.48	3.6070	3.6072	1.2079	25.62	-0.37	0.750			
0.7713	49363.08	3.6040	3.6039	1.1831	25.63	-0.36	0.750			
0.7748	49587.74	3.6010	3.6011	1.1766	25.64	-0.35	0.750			
0.7783	49812.44	3.5980	3.5978	1.1516	25.64	-0.35	0.750			
0.7817	50031.37	3.5950	3.5952	1.1677	25.64	-0.35	0.750			
0.7852	50253.07	3.5920	3.5921	1.1844	25.64	-0.35	0.750			
0.7888	50482.77	3.5890	3.5890	1.2111	25.64	-0.35	0.750			
0.7924	50715.84	3.5860	3.5861	1.2354	25.64	-0.35	0.750			
0.7962	50955.07	3.5830	3.5830	1.2726	25.64	-0.35	0.750			
0.8001	51207.25	3.5800	3.5800	1.3020	25.64	-0.35	0.750			
0.8040	51459.16	3.5770	3.5769	1.3526	25.64	-0.35	0.750			
0.8081	51720.71	3.5740	3.5740	1.3669	25.64	-0.35	0.750			
0.8123	51989.41	3.5710	3.5711	1.4076	25.64	-0.35	0.750			
0.8166	52261.59	3.5680	3.5679	1.4492	25.64	-0.35	0.750			
0.8210	52541.38	3.5650	3.5652	1.4880	25.64	-0.35	0.750			
0.8255	52832.56	3.5620	3.5623	1.5119	25.64	-0.35	0.750			
0.8301	53128.15	3.5590	3.5588	1.5480	25.64	-0.35	0.750			
0.8348	53429.78	3.5560	3.5556	1.5676	25.65	-0.34	0.750			
0.8398	53744.89	3.5530	3.5530	1.5969	25.66	-0.33	0.750			
0.8446	54053.80	3.5500	3.5503	1.6145	25.66	-0.33	0.750			
0.8493	54353.53	3.5470	3.5472	1.6120	25.66	-0.33	0.750			
0.8540	54656.88	3.5440	3.5440	1.6423	25.66	-0.33	0.750			
0.8591	54984.85	3.5410	3.5412	1.6719	25.67	-0.32	0.750			
0.8642	55309.29	3.5380	3.5381	1.7025	25.67	-0.32	0.750			
0.8694	55639.21	3.5350	3.5349	1.7410	25.68	-0.31	0.750			
0.8748	55988.45	3.5320	3.5321	1.7593	25.69	-0.30	0.750			
0.8804	56343.22	3.5290	3.5288	1.7009	25.71	-0.28	0.750			
0.8858	56689.22	3.5260	3.5262	1.5196	25.73	-0.26	0.750			
0.8904	56984.80	3.5230	3.5230	1.3098	25.74	-0.25	0.750			
0.8941	57224.04	3.5200	3.5203	1.0635	25.76	-0.23	0.750			
0.8968	57396.03	3.5170	3.5166	0.7968	25.78	-0.21	0.750			
0.8983	57488.20	3.5140	3.5136	0.5914	25.78	-0.21	0.750			
0.8995	57570.77	3.5110	3.5107	0.4572	25.79	-0.20	0.750			
0.9005	57634.02	3.5080	3.5080	0.3827	25.80	-0.19	0.750			
0.9016	57701.81	3.5050	3.5049	0.3554	25.80	-0.19	0.750			
0.9026	57764.35	3.5020	3.5017	0.3296	25.81	-0.18	0.750			
0.9035	57824.71	3.4990	3.4990	0.3159	25.81	-0.18	0.750			
0.9044	57883.72	3.4960	3.4962	0.3061	25.82	-0.17	0.750			
0.9053	57941.98	3.4930	3.4929	0.2966	25.83	-0.16	0.750			
0.9062	57997.99	3.4900	3.4898	0.2875	25.83	-0.16	0.750			
0.9070	58050.85	3.4870	3.4872	0.2759	25.84	-0.15	0.750			
0.9079	58103.64	3.4840	3.4841	0.2708	25.85	-0.14	0.750			
0.9087	58155.45	3.4810	3.4809	0.2642	25.85	-0.14	0.750			
0.9095	58205.01	3.4780	3.4779	0.2576	25.86	-0.13	0.750			
0.9102	58252.83	3.4750	3.4750	0.2514	25.86	-0.13	0.750			
0.9109	58300.46	3.4720	3.4721	0.2476	25.87	-0.12	0.750			
0.9117	58347.92	3.4690	3.4689	0.2445	25.87	-0.12	0.750			
0.9124	58394.37	3.4660	3.4660	0.2399	25.88	-0.11	0.750			
0.9131	58440.36	3.4630	3.4630	0.2358	25.88	-0.11	0.750			
0.9138	58485.02	3.4600	3.4601	0.2317	25.89	-0.10	0.750			
0.9145	58529.12	3.4570	3.4571	0.2277	25.89	-0.10	0.750			
0.9152	58572.56	3.4540	3.4539	0.2236	25.90	-0.09	0.750			
0.9159	58614.84	3.4510	3.4510	0.2197	25.90	-0.09	0.750			
0.9165	58656.57	3.4480	3.4482	0.2155	25.91	-0.08	0.750			
0.9172	58697.63	3.4450	3.4449	0.2122	25.91	-0.08	0.750			
0.9178	58738.38	3.4420	3.4419	0.2080	25.92	-0.07	0.750			
0.9184	58778.39	3.4390	3.4390	0.2027	25.92	-0.07	0.750			
0.9190	58816.63	3.4360	3.4361	0.1976	25.93	-0.06	0.750			
0.9196	58854.06	3.4330	3.4330	0.1922	25.93	-0.06	0.750			
0.9202	58890.45	3.4300	3.4301	0.1877	25.93	-0.06	0.750			
0.9207	58925.50	3.4270	3.4269	0.1830	25.94	-0.05	0.750			
0.9213	58960.13	3.4240	3.4240	0.1786	25.94	-0.05	0.750			
0.9218	58994.10	3.4210	3.4210	0.1752	25.95	-0.04	0.750			
0.9223	59027.52	3.4180	3.4179	0.1708	25.95	-0.04	0.750			
0.9228	59060.45	3.4150	3.4150	0.1668	25.95	-0.04	0.750			
0.9233	59091.92	3.4120	3.4121	0.1617	25.96	-0.03	0.750			
0.9238	59122.47	3.4090	3.4089	0.1566	25.96	-0.03	0.750			
0.9243	59152.09	3.4060	3.4060	0.1516	25.96	-0.03	0.750			
0.9247	59180.67	3.4030	3.4030	0.1461	25.97	-0.02	0.750			
0.9251	59208.25	3.4000	3.3999	0.1409	25.97	-0.02	0.750			
0.9255	59234.87	3.3970	3.3971	0.1353	25.97	-0.02	0.750			
0.9259	59260.45	3.3940	3.3940	0.1300	25.98	-0.01	0.750			
0.9263	59284.98	3.3910	3.3911	0.1242	25.98	-0.01	0.750			
0.9267	59308.23	3.3880	3.3880	0.1182	25.98	-0.01	0.750			
0.9270	59330.45	3.3850	3.3850	0.1119	25.98	-0.01	0.750			
0.9274	59351.38	3.3820	3.3820	0.1058	25.99	-0.00	0.750			
0.9277	59372.30	3.3790	3.3790	0.0984	25.99	-0.00	0.750			
0.9280	59390.34	3.3760	3.3761	0.0895	25.99	0.00	0.750			
0.9282	59407.32	3.3730	3.3733	0.0822	25.99	0.00	0.750			
0.9285	59422.16	3.3700	3.3701	0.0723	25.99	0.00	0.750			
0.9287	59435.93	3.3670	3.3672	0.0630	26.00	0.01	0.750			
0.9289	59446.96	3.3640	3.3646	0.0519	26.00	0.01	0.750			
0.9290	59455.87	3.3610	3.3616	0.0409	26.00	0.01	0.750			
0.9291	59462.66	3.3580	3.3591	0.0298	26.00	0.01	0.750			
