Ah_balance (normalized)	Ah_balance (mAh)	Voltage - fit (V)	Voltage -  interpolate (V)	dQ/dV (1/V)	Temperature (°C)	Temperature - diff (°C)	Current (C)	R_DC 0ms (mOhm)	R_DC 50ms (mOhm)	R_DC 50 ms PEC (mOhm)
0.0579	3707.84	4.1970	4.1970	0.7001	25.85	-0.06	0.750			
0.0601	3844.37	4.1940	4.1941	0.7198	25.85	-0.06	0.750			
0.0623	3985.81	4.1910	4.1911	0.7374	25.85	-0.06	0.750			
0.0645	4130.60	4.1880	4.1880	0.7406	25.85	-0.06	0.750			
0.0668	4275.30	4.1850	4.1849	0.7423	25.85	-0.06	0.750			
0.0690	4416.88	4.1820	4.1823	0.7456	25.85	-0.06	0.750			
0.0713	4560.52	4.1790	4.1789	0.7432	25.85	-0.06	0.750			
0.0735	4702.14	4.1760	4.1759	0.7451	25.85	-0.06	0.750			
0.0757	4845.34	4.1730	4.1730	0.7451	25.85	-0.06	0.750			
0.0779	4988.31	4.1700	4.1701	0.7453	25.85	-0.06	0.750			
0.0802	5132.05	4.1670	4.1670	0.7476	25.85	-0.06	0.750			
0.0824	5274.34	4.1640	4.1641	0.7503	25.85	-0.06	0.750			
0.0846	5417.27	4.1610	4.1608	0.7563	25.85	-0.06	0.750			
0.0869	5564.68	4.1580	4.1581	0.7572	25.85	-0.06	0.750			
0.0892	5710.67	4.1550	4.1551	0.7519	25.85	-0.06	0.750			
0.0915	5856.93	4.1520	4.1520	0.7557	25.86	-0.05	0.750			
0.0937	5999.49	4.1490	4.1490	0.7489	25.86	-0.05	0.750			
0.0960	6142.06	4.1460	4.1459	0.7519	25.86	-0.05	0.750			
0.0982	6285.61	4.1430	4.1430	0.7546	25.86	-0.05	0.750			
0.1005	6431.90	4.1400	4.1400	0.7566	25.86	-0.05	0.750			
0.1028	6579.50	4.1370	4.1370	0.7647	25.86	-0.05	0.750			
0.1051	6727.26	4.1340	4.1340	0.7716	25.87	-0.04	0.750			
0.1074	6875.13	4.1310	4.1311	0.7663	25.87	-0.04	0.750			
0.1097	7022.53	4.1280	4.1280	0.7642	25.87	-0.04	0.750			
0.1120	7169.38	4.1250	4.1251	0.7618	25.87	-0.04	0.750			
0.1143	7315.17	4.1220	4.1219	0.7606	25.87	-0.04	0.750			
0.1166	7459.95	4.1190	4.1190	0.7639	25.88	-0.03	0.750			
0.1189	7606.58	4.1160	4.1160	0.7652	25.88	-0.03	0.750			
0.1211	7753.56	4.1130	4.1128	0.7650	25.88	-0.03	0.750			
0.1235	7901.41	4.1100	4.1101	0.7737	25.88	-0.03	0.750			
0.1258	8050.58	4.1070	4.1070	0.7762	25.88	-0.03	0.750			
0.1281	8199.82	4.1040	4.1040	0.7784	25.89	-0.02	0.750			
0.1305	8349.19	4.1010	4.1009	0.7799	25.89	-0.02	0.750			
0.1328	8498.73	4.0980	4.0982	0.7842	25.89	-0.02	0.750			
0.1352	8650.71	4.0950	4.0950	0.7856	25.89	-0.02	0.750			
0.1375	8803.01	4.0920	4.0920	0.7889	25.89	-0.02	0.750			
0.1399	8953.63	4.0890	4.0890	0.7799	25.89	-0.02	0.750			
0.1422	9100.65	4.0860	4.0861	0.7836	25.89	-0.02	0.750			
0.1445	9250.93	4.0830	4.0831	0.7873	25.89	-0.02	0.750			
0.1469	9402.66	4.0800	4.0796	0.7880	25.89	-0.02	0.750			
0.1493	9553.69	4.0770	4.0771	0.7913	25.89	-0.02	0.750			
0.1517	9707.23	4.0740	4.0742	0.7919	25.89	-0.02	0.750			
0.1541	9860.08	4.0710	4.0710	0.7979	25.90	-0.01	0.750			
0.1564	10012.50	4.0680	4.0680	0.7964	25.90	-0.01	0.750			
0.1588	10165.13	4.0650	4.0648	0.8016	25.90	-0.01	0.750			
0.1612	10319.38	4.0620	4.0621	0.8079	25.90	-0.01	0.750			
0.1637	10478.74	4.0590	4.0590	0.8029	25.90	-0.01	0.750			
0.1661	10632.79	4.0560	4.0560	0.8063	25.91	-0.00	0.750			
0.1685	10786.92	4.0530	4.0530	0.8115	25.91	-0.00	0.750			
0.1709	10939.48	4.0500	4.0502	0.8086	25.91	-0.00	0.750			
0.1734	11095.86	4.0470	4.0470	0.8121	25.91	0.00	0.750			
0.1758	11252.75	4.0440	4.0441	0.8128	25.92	0.01	0.750			
0.1783	11409.11	4.0410	4.0410	0.8191	25.92	0.01	0.750			
0.1808	11568.86	4.0380	4.0380	0.8278	25.92	0.01	0.750			
0.1832	11724.63	4.0350	4.0350	0.8188	25.93	0.02	0.750			
0.1857	11882.30	4.0320	4.0320	0.8222	25.93	0.02	0.750			
0.1882	12043.43	4.0290	4.0290	0.8193	25.93	0.02	0.750			
0.1906	12200.09	4.0260	4.0261	0.8240	25.94	0.03	0.750			
0.1931	12357.72	4.0230	4.0230	0.8285	25.94	0.03	0.750			
0.1955	12514.04	4.0200	4.0201	0.8298	25.94	0.03	0.750			
0.1981	12675.32	4.0170	4.0171	0.8360	25.94	0.03	0.750			
0.2006	12838.22	4.0140	4.0140	0.8363	25.94	0.03	0.750			
0.2031	12998.56	4.0110	4.0111	0.8407	25.95	0.04	0.750			
0.2056	13161.60	4.0080	4.0080	0.8496	25.95	0.04	0.750			
0.2082	13322.07	4.0050	4.0050	0.8499	25.95	0.04	0.750			
0.2107	13486.03	4.0020	4.0021	0.8544	25.95	0.04	0.750			
0.2133	13651.55	3.9990	3.9990	0.8510	25.95	0.04	0.750			
0.2159	13817.02	3.9960	3.9961	0.8572	25.95	0.04	0.750			
0.2185	13982.56	3.9930	3.9930	0.8593	25.95	0.04	0.750			
0.2210	14145.88	3.9900	3.9899	0.8563	25.95	0.04	0.750			
0.2236	14309.32	3.9870	3.9871	0.8565	25.95	0.04	0.750			
0.2261	14473.56	3.9840	3.9839	0.8522	25.96	0.05	0.750			
0.2287	14637.44	3.9810	3.9811	0.8575	25.96	0.05	0.750			
0.2313	14800.93	3.9780	3.9780	0.8614	25.97	0.06	0.750			
0.2339	14968.31	3.9750	3.9747	0.8613	25.97	0.06	0.750			
0.2365	15135.70	3.9720	3.9720	0.8631	25.97	0.06	0.750			
0.2391	15301.68	3.9690	3.9691	0.8612	25.97	0.06	0.750			
0.2417	15466.90	3.9660	3.9662	0.8625	25.97	0.06	0.750			
0.2443	15632.26	3.9630	3.9629	0.8632	25.97	0.06	0.750			
0.2468	15796.19	3.9600	3.9599	0.8580	25.97	0.06	0.750			
0.2494	15960.82	3.9570	3.9571	0.8517	25.97	0.06	0.750			
0.2520	16125.19	3.9540	3.9540	0.8603	25.97	0.06	0.750			
0.2546	16291.74	3.9510	3.9511	0.8620	25.96	0.05	0.750			
0.2571	16456.79	3.9480	3.9480	0.8608	25.96	0.05	0.750			
0.2597	16620.88	3.9450	3.9449	0.8634	25.96	0.05	0.750			
0.2623	16789.22	3.9420	3.9420	0.8625	25.96	0.05	0.750			
0.2649	16954.56	3.9390	3.9390	0.8663	25.96	0.05	0.750			
0.2675	17120.15	3.9360	3.9360	0.8723	25.95	0.04	0.750			
0.2701	17286.40	3.9330	3.9331	0.8724	25.95	0.04	0.750			
0.2727	17455.99	3.9300	3.9300	0.8816	25.95	0.04	0.750			
0.2754	17626.50	3.9270	3.9271	0.8839	25.94	0.03	0.750			
0.2781	17796.56	3.9240	3.9240	0.8866	25.94	0.03	0.750			
0.2808	17968.61	3.9210	3.9211	0.8894	25.94	0.03	0.750			
0.2834	18137.66	3.9180	3.9179	0.8891	25.93	0.02	0.750			
0.2861	18308.39	3.9150	3.9150	0.8921	25.93	0.02	0.750			
0.2888	18480.85	3.9120	3.9120	0.8919	25.93	0.02	0.750			
0.2914	18650.83	3.9090	3.9091	0.8980	25.93	0.02	0.750			
0.2941	18824.40	3.9060	3.9060	0.9057	25.93	0.02	0.750			
0.2969	18998.48	3.9030	3.9027	0.9085	25.93	0.02	0.750			
0.2996	19176.94	3.9000	3.9000	0.8991	25.92	0.01	0.750			
0.3023	19347.30	3.8970	3.8970	0.9000	25.92	0.01	0.750			
0.3050	19519.82	3.8940	3.8942	0.9061	25.91	0.00	0.750			
0.3077	19692.43	3.8910	3.8911	0.9152	25.90	-0.01	0.750			
0.3104	19864.39	3.8880	3.8879	0.9178	25.90	-0.01	0.750			
0.3132	20043.17	3.8850	3.8850	0.9215	25.89	-0.02	0.750			
0.3160	20223.16	3.8820	3.8821	0.9309	25.88	-0.03	0.750			
0.3188	20405.00	3.8790	3.8791	0.9335	25.88	-0.03	0.750			
0.3216	20583.87	3.8760	3.8757	0.9278	25.87	-0.04	0.750			
0.3244	20761.85	3.8730	3.8731	0.9192	25.87	-0.04	0.750			
0.3271	20936.32	3.8700	3.8700	0.9244	25.86	-0.05	0.750			
0.3299	21113.39	3.8670	3.8670	0.9290	25.86	-0.05	0.750			
0.3327	21291.46	3.8640	3.8640	0.9250	25.85	-0.06	0.750			
0.3355	21470.09	3.8610	3.8610	0.9331	25.85	-0.06	0.750			
0.3383	21648.45	3.8580	3.8582	0.9398	25.84	-0.07	0.750			
0.3411	21827.43	3.8550	3.8550	0.9536	25.83	-0.08	0.750			
0.3439	22012.21	3.8520	3.8520	0.9687	25.82	-0.09	0.750			
0.3469	22198.72	3.8490	3.8487	0.9749	25.81	-0.10	0.750			
0.3498	22389.79	3.8460	3.8462	0.9802	25.81	-0.10	0.750			
0.3528	22580.90	3.8430	3.8431	0.9822	25.80	-0.11	0.750			
0.3558	22772.29	3.8400	3.8401	0.9815	25.80	-0.11	0.750			
0.3587	22958.01	3.8370	3.8368	0.9724	25.79	-0.12	0.750			
0.3616	23142.12	3.8340	3.8340	0.9598	25.78	-0.13	0.750			
0.3645	23325.31	3.8310	3.8311	0.9720	25.78	-0.13	0.750			
0.3674	23512.26	3.8280	3.8280	0.9815	25.77	-0.14	0.750			
0.3703	23701.30	3.8250	3.8250	0.9829	25.76	-0.15	0.750			
0.3733	23893.24	3.8220	3.8221	0.9872	25.76	-0.15	0.750			
0.3763	24083.06	3.8190	3.8190	0.9937	25.75	-0.16	0.750			
0.3793	24273.27	3.8160	3.8161	1.0050	25.74	-0.17	0.750			
0.3823	24467.23	3.8130	3.8130	1.0118	25.73	-0.18	0.750			
0.3853	24660.02	3.8100	3.8100	1.0187	25.72	-0.19	0.750			
0.3884	24857.40	3.8070	3.8071	1.0372	25.71	-0.20	0.750			
0.3915	25058.81	3.8040	3.8040	1.0553	25.70	-0.21	0.750			
0.3947	25263.27	3.8010	3.8011	1.0697	25.69	-0.22	0.750			
0.3980	25470.51	3.7980	3.7980	1.0746	25.69	-0.22	0.750			
0.4012	25677.75	3.7950	3.7950	1.0881	25.68	-0.23	0.750			
0.4045	25888.77	3.7920	3.7921	1.1030	25.67	-0.24	0.750			
0.4078	26100.65	3.7890	3.7890	1.1117	25.66	-0.25	0.750			
0.4112	26315.01	3.7860	3.7861	1.1144	25.66	-0.25	0.750			
0.4144	26524.47	3.7830	3.7831	1.1341	25.65	-0.26	0.750			
0.4179	26742.46	3.7800	3.7801	1.1522	25.65	-0.26	0.750			
0.4213	26964.38	3.7770	3.7768	1.1794	25.64	-0.27	0.750			
0.4248	27188.83	3.7740	3.7740	1.2182	25.64	-0.27	0.750			
0.4285	27425.78	3.7710	3.7718	1.2709	25.63	-0.28	0.750	0.333	0.482	
0.4325	27683.05	3.7680	3.7681	1.2926	25.62	-0.29	0.750			
0.4365	27935.04	3.7650	3.7650	1.3304	25.61	-0.30	0.750			
0.4405	28194.51	3.7620	3.7622	1.3580	25.61	-0.30	0.750			
0.4446	28457.26	3.7590	3.7590	1.3959	25.60	-0.31	0.750			
0.4488	28720.25	3.7560	3.7560	1.3918	25.59	-0.32	0.750			
0.4529	28986.91	3.7530	3.7531	1.4125	25.58	-0.33	0.750			
0.4572	29259.63	3.7500	3.7503	1.4404	25.57	-0.34	0.750			
0.4616	29543.12	3.7470	3.7471	1.4700	25.55	-0.36	0.750			
0.4660	29822.90	3.7440	3.7441	1.4946	25.54	-0.37	0.750			
0.4705	30111.66	3.7410	3.7410	1.5288	25.52	-0.39	0.750			
0.4751	30409.47	3.7380	3.7381	1.5816	25.51	-0.40	0.750			
0.4799	30715.89	3.7350	3.7350	1.5978	25.51	-0.40	0.750			
0.4848	31026.52	3.7320	3.7319	1.6412	25.50	-0.41	0.750			
0.4897	31343.35	3.7290	3.7291	1.7020	25.49	-0.42	0.750			
0.4950	31679.26	3.7260	3.7261	1.7530	25.47	-0.44	0.750			
0.5003	32017.02	3.7230	3.7232	1.8034	25.46	-0.45	0.750			
0.5058	32370.63	3.7200	3.7202	1.8453	25.46	-0.45	0.750			
0.5115	32732.87	3.7170	3.7172	1.9062	25.45	-0.46	0.750			
0.5172	33103.15	3.7140	3.7138	1.9597	25.44	-0.47	0.750			
0.5231	33479.43	3.7110	3.7112	2.0009	25.44	-0.47	0.750			
0.5291	33864.54	3.7080	3.7081	2.0757	25.42	-0.49	0.750			
0.5356	34275.34	3.7050	3.7049	2.1279	25.40	-0.51	0.750			
0.5421	34692.75	3.7020	3.7020	2.1974	25.39	-0.52	0.750			
0.5488	35121.59	3.6990	3.6990	2.2649	25.39	-0.52	0.750			
0.5557	35562.65	3.6960	3.6959	2.3335	25.38	-0.53	0.750			
0.5627	36010.17	3.6930	3.6929	2.4015	25.38	-0.53	0.750			
0.5700	36476.95	3.6900	3.6901	2.5258	25.38	-0.53	0.750			
0.5778	36982.39	3.6870	3.6869	2.5625	25.37	-0.54	0.750			
0.5858	37493.51	3.6840	3.6841	2.6102	25.36	-0.55	0.750			
0.5936	37991.13	3.6810	3.6812	2.6404	25.36	-0.55	0.750			
0.6014	38490.55	3.6780	3.6776	2.6458	25.36	-0.55	0.750			
0.6092	38989.01	3.6750	3.6749	2.6485	25.36	-0.55	0.750			
0.6177	39535.77	3.6720	3.6718	2.6016	25.37	-0.54	0.750			
0.6257	40042.96	3.6690	3.6691	2.4572	25.38	-0.53	0.750			
0.6327	40490.52	3.6660	3.6662	2.2002	25.39	-0.52	0.750			
0.6388	40883.33	3.6630	3.6631	1.9861	25.40	-0.51	0.750			
0.6442	41226.12	3.6600	3.6602	1.7984	25.41	-0.50	0.750			
0.6491	41539.67	3.6570	3.6569	1.6364	25.42	-0.49	0.750			
0.6539	41847.34	3.6540	3.6540	1.5378	25.43	-0.48	0.750			
0.6584	42134.99	3.6510	3.6508	1.4383	25.43	-0.48	0.750			
0.6625	42400.37	3.6480	3.6482	1.3616	25.43	-0.48	0.750			
0.6664	42647.42	3.6450	3.6451	1.3034	25.44	-0.47	0.750			
0.6700	42883.04	3.6420	3.6419	1.2329	25.44	-0.47	0.750			
0.6736	43110.44	3.6390	3.6390	1.1900	25.44	-0.47	0.750			
0.6770	43329.62	3.6360	3.6360	1.1730	25.45	-0.46	0.750			
0.6805	43553.85	3.6330	3.6333	1.1723	25.45	-0.46	0.750			
0.6840	43779.15	3.6300	3.6294	1.1808	25.46	-0.45	0.750			
0.6876	44003.24	3.6270	3.6270	1.1804	25.47	-0.44	0.750			
0.6911	44231.84	3.6240	3.6240	1.1861	25.48	-0.43	0.750			
0.6948	44465.58	3.6210	3.6209	1.1907	25.49	-0.42	0.750			
0.6984	44697.87	3.6180	3.6181	1.1623	25.50	-0.41	0.750			
0.7018	44915.69	3.6150	3.6150	1.1454	25.50	-0.41	0.750			
0.7052	45134.17	3.6120	3.6120	1.1306	25.50	-0.41	0.750			
0.7085	45346.00	3.6090	3.6089	1.1067	25.50	-0.41	0.750			
0.7118	45554.66	3.6060	3.6062	1.1017	25.51	-0.40	0.750			
0.7150	45762.05	3.6030	3.6031	1.1044	25.51	-0.40	0.750			
0.7183	45972.26	3.6000	3.6000	1.1241	25.52	-0.39	0.750			
0.7217	46191.65	3.5970	3.5965	1.1364	25.53	-0.38	0.750			
0.7251	46405.44	3.5940	3.5940	1.1674	25.54	-0.37	0.750			
0.7286	46632.16	3.5910	3.5912	1.2106	25.55	-0.36	0.750			
0.7324	46872.20	3.5880	3.5879	1.2440	25.56	-0.35	0.750			
0.7361	47113.43	3.5850	3.5850	1.2681	25.56	-0.35	0.750			
0.7400	47358.29	3.5820	3.5822	1.3230	25.56	-0.35	0.750			
0.7441	47622.27	3.5790	3.5790	1.3578	25.56	-0.35	0.750			
0.7482	47886.32	3.5760	3.5760	1.4056	25.56	-0.35	0.750			
0.7524	48154.28	3.5730	3.5729	1.4437	25.57	-0.34	0.750			
0.7568	48433.96	3.5700	3.5703	1.4980	25.58	-0.33	0.750			
0.7614	48732.65	3.5670	3.5668	1.5396	25.59	-0.32	0.750			
0.7662	49034.23	3.5640	3.5637	1.5716	25.60	-0.31	0.750			
0.7709	49339.48	3.5610	3.5612	1.5926	25.60	-0.31	0.750			
0.7758	49652.36	3.5580	3.5582	1.6298	25.61	-0.30	0.750			
0.7807	49965.33	3.5550	3.5551	1.6317	25.61	-0.30	0.750			
0.7856	50278.24	3.5520	3.5517	1.6438	25.62	-0.29	0.750			
0.7906	50599.29	3.5490	3.5490	1.6593	25.63	-0.28	0.750			
0.7957	50924.76	3.5460	3.5460	1.6843	25.64	-0.27	0.750			
0.8007	51244.29	3.5430	3.5429	1.7218	25.65	-0.26	0.750			
0.8059	51579.37	3.5400	3.5396	1.7301	25.67	-0.24	0.750			
0.8114	51931.33	3.5370	3.5368	1.7109	25.69	-0.22	0.750			
0.8170	52288.97	3.5340	3.5340	1.5651	25.70	-0.21	0.750			
0.8219	52602.69	3.5310	3.5310	1.3934	25.72	-0.19	0.750			
0.8259	52856.61	3.5280	3.5286	1.1527	25.75	-0.16	0.750			
0.8288	53045.93	3.5250	3.5248	0.8850	25.77	-0.14	0.750			
0.8307	53162.40	3.5220	3.5214	0.6436	25.78	-0.13	0.750			
0.8320	53245.14	3.5190	3.5187	0.4900	25.79	-0.12	0.750			
0.8330	53314.04	3.5160	3.5160	0.4027	25.80	-0.11	0.750			
0.8341	53382.28	3.5130	3.5127	0.3634	25.81	-0.10	0.750			
0.8351	53444.00	3.5100	3.5099	0.3317	25.81	-0.10	0.750			
0.8360	53503.98	3.5070	3.5070	0.3151	25.82	-0.09	0.750			
0.8369	53562.65	3.5040	3.5040	0.3045	25.82	-0.09	0.750			
0.8378	53620.44	3.5010	3.5010	0.2948	25.83	-0.08	0.750			
0.8387	53675.74	3.4980	3.4979	0.2855	25.84	-0.07	0.750			
0.8395	53729.22	3.4950	3.4951	0.2775	25.85	-0.06	0.750			
0.8403	53781.96	3.4920	3.4920	0.2711	25.85	-0.06	0.750			
0.8411	53833.08	3.4890	3.4889	0.2638	25.86	-0.05	0.750			
0.8419	53883.10	3.4860	3.4860	0.2580	25.87	-0.04	0.750			
0.8427	53931.61	3.4830	3.4831	0.2509	25.87	-0.04	0.750			
0.8434	53979.84	3.4800	3.4800	0.2454	25.88	-0.03	0.750			
0.8442	54026.38	3.4770	3.4770	0.2384	25.89	-0.02	0.750			
0.8449	54071.37	3.4740	3.4740	0.2328	25.89	-0.02	0.750			
0.8455	54114.54	3.4710	3.4710	0.2291	25.90	-0.01	0.750			
0.8462	54158.71	3.4680	3.4679	0.2230	25.91	-0.00	0.750			
0.8469	54201.12	3.4650	3.4649	0.2175	25.91	0.00	0.750			
0.8475	54242.43	3.4620	3.4619	0.2117	25.92	0.01	0.750			
0.8482	54282.94	3.4590	3.4592	0.2066	25.92	0.01	0.750			
0.8488	54322.11	3.4560	3.4558	0.2018	25.93	0.02	0.750			
0.8494	54360.03	3.4530	3.4530	0.1967	25.93	0.02	0.750			
0.8500	54396.87	3.4500	3.4500	0.1905	25.94	0.03	0.750			
0.8505	54432.29	3.4470	3.4470	0.1852	25.94	0.03	0.750			
0.8511	54468.56	3.4440	3.4440	0.1811	25.95	0.04	0.750			
0.8516	54502.61	3.4410	3.4411	0.1752	25.95	0.04	0.750			
0.8521	54535.65	3.4380	3.4380	0.1700	25.96	0.05	0.750			
0.8526	54567.75	3.4350	3.4350	0.1643	25.96	0.05	0.750			
0.8531	54598.65	3.4320	3.4319	0.1577	25.97	0.06	0.750			
0.8536	54628.34	3.4290	3.4289	0.1517	25.97	0.06	0.750			
0.8540	54657.21	3.4260	3.4261	0.1464	25.97	0.06	0.750			
0.8544	54684.70	3.4230	3.4231	0.1399	25.98	0.07	0.750			
0.8549	54711.07	3.4200	3.4199	0.1334	25.98	0.07	0.750			
0.8553	54736.00	3.4170	3.4170	0.1266	25.98	0.07	0.750			
0.8556	54759.80	3.4140	3.4140	0.1194	25.99	0.08	0.750			
0.8560	54782.06	3.4110	3.4110	0.1124	25.99	0.08	0.750			
0.8563	54803.39	3.4080	3.4081	0.1056	25.99	0.08	0.750			
0.8566	54824.04	3.4050	3.4048	0.0955	26.00	0.09	0.750			
0.8569	54841.36	3.4020	3.4019	0.0849	26.00	0.09	0.750			
0.8571	54857.35	3.3990	3.3993	0.0758	26.00	0.09	0.750			
0.8574	54870.84	3.3960	3.3963	0.0646	26.00	0.09	0.750			
0.8576	54883.28	3.3930	3.3934	0.0541	26.00	0.09	0.750			
0.8577	54892.50	3.3900	3.3907	0.0419	26.01	0.10	0.750			
0.8578	54899.38	3.3870	3.3880	0.0297	26.01	0.10	0.750			
0.8579	54903.91	3.3840	3.3854	0.0175	26.01	0.10	0.750			
0.8579	54906.10	3.3810	3.3837	0.0053	26.01	0.10	0.750			
