Ah_balance (normalized)	Ah_balance (mAh)	Voltage - fit (V)	Voltage -  interpolate (V)	dQ/dV (1/V)	Temperature (°C)	Temperature - diff (°C)	Current (C)	R_DC 0ms (mOhm)	R_DC 50ms (mOhm)	R_DC 50 ms PEC (mOhm)
0.0003	20.13	4.1620	4.1623	-0.1423	25.66	0.02	-0.750			
0.0008	50.76	4.1590	4.1590	-0.1802	25.66	0.02	-0.750			
0.0014	89.88	4.1560	4.1561	-0.2192	25.66	0.02	-0.750			
0.0021	135.75	4.1530	4.1530	-0.2561	25.66	0.02	-0.750			
0.0030	188.83	4.1500	4.1499	-0.2916	25.65	0.01	-0.750			
0.0039	249.26	4.1470	4.1470	-0.3250	25.65	0.01	-0.750			
0.0049	314.71	4.1440	4.1440	-0.3612	25.65	0.01	-0.750			
0.0061	387.52	4.1410	4.1410	-0.3946	25.65	0.01	-0.750			
0.0073	466.20	4.1380	4.1380	-0.4274	25.65	0.01	-0.750			
0.0086	552.24	4.1350	4.1350	-0.4587	25.65	0.01	-0.750			
0.0101	644.41	4.1320	4.1320	-0.4863	25.64	0.00	-0.750			
0.0116	740.74	4.1290	4.1290	-0.5123	25.64	0.00	-0.750			
0.0132	842.97	4.1260	4.1261	-0.5362	25.64	-0.00	-0.750			
0.0148	947.49	4.1230	4.1230	-0.5519	25.64	-0.00	-0.750			
0.0165	1056.28	4.1200	4.1200	-0.5701	25.63	-0.01	-0.750			
0.0182	1166.99	4.1170	4.1171	-0.5848	25.63	-0.01	-0.750			
0.0200	1281.40	4.1140	4.1140	-0.5981	25.63	-0.01	-0.750			
0.0219	1398.80	4.1110	4.1110	-0.6101	25.62	-0.02	-0.750			
0.0237	1515.70	4.1080	4.1080	-0.6207	25.62	-0.02	-0.750			
0.0256	1636.37	4.1050	4.1051	-0.6315	25.62	-0.02	-0.750			
0.0275	1759.11	4.1020	4.1020	-0.6394	25.62	-0.02	-0.750			
0.0294	1882.55	4.0990	4.0989	-0.6477	25.61	-0.03	-0.750			
0.0314	2007.69	4.0960	4.0962	-0.6534	25.61	-0.03	-0.750			
0.0334	2135.25	4.0930	4.0930	-0.6585	25.61	-0.03	-0.750			
0.0354	2263.17	4.0900	4.0900	-0.6621	25.60	-0.04	-0.750			
0.0373	2389.09	4.0870	4.0871	-0.6675	25.60	-0.04	-0.750			
0.0393	2516.99	4.0840	4.0840	-0.6730	25.60	-0.04	-0.750			
0.0413	2645.47	4.0810	4.0810	-0.6810	25.60	-0.04	-0.750			
0.0434	2776.77	4.0780	4.0780	-0.6851	25.60	-0.04	-0.750			
0.0455	2910.89	4.0750	4.0750	-0.6894	25.59	-0.05	-0.750			
0.0476	3043.60	4.0720	4.0719	-0.6939	25.59	-0.05	-0.750			
0.0496	3177.34	4.0690	4.0692	-0.6959	25.59	-0.05	-0.750			
0.0517	3309.77	4.0660	4.0658	-0.6965	25.59	-0.05	-0.750			
0.0538	3443.51	4.0630	4.0630	-0.7013	25.59	-0.05	-0.750			
0.0559	3579.03	4.0600	4.0601	-0.7040	25.59	-0.05	-0.750			
0.0581	3715.41	4.0570	4.0569	-0.7112	25.58	-0.06	-0.750			
0.0602	3852.06	4.0540	4.0540	-0.7144	25.58	-0.06	-0.750			
0.0623	3987.90	4.0510	4.0513	-0.7147	25.58	-0.06	-0.750			
0.0645	4126.34	4.0480	4.0479	-0.7183	25.58	-0.06	-0.750			
0.0666	4263.91	4.0450	4.0450	-0.7236	25.58	-0.06	-0.750			
0.0688	4404.06	4.0420	4.0420	-0.7262	25.58	-0.06	-0.750			
0.0710	4545.23	4.0390	4.0389	-0.7278	25.58	-0.06	-0.750			
0.0732	4684.71	4.0360	4.0360	-0.7245	25.58	-0.06	-0.750			
0.0754	4824.01	4.0330	4.0330	-0.7215	25.58	-0.06	-0.750			
0.0775	4961.63	4.0300	4.0300	-0.7233	25.58	-0.06	-0.750			
0.0797	5098.29	4.0270	4.0270	-0.7302	25.58	-0.06	-0.750			
0.0819	5239.48	4.0240	4.0240	-0.7282	25.58	-0.06	-0.750			
0.0841	5381.49	4.0210	4.0209	-0.7308	25.58	-0.06	-0.750			
0.0863	5521.32	4.0180	4.0181	-0.7324	25.58	-0.06	-0.750			
0.0885	5662.89	4.0150	4.0149	-0.7334	25.58	-0.06	-0.750			
0.0907	5802.84	4.0120	4.0119	-0.7393	25.59	-0.05	-0.750			
0.0929	5942.69	4.0090	4.0089	-0.7424	25.59	-0.05	-0.750			
0.0951	6086.45	4.0060	4.0060	-0.7473	25.59	-0.05	-0.750			
0.0974	6233.85	4.0030	4.0030	-0.7508	25.60	-0.04	-0.750			
0.0997	6379.11	4.0000	4.0002	-0.7519	25.60	-0.04	-0.750			
0.1019	6522.68	3.9970	3.9970	-0.7535	25.60	-0.04	-0.750			
0.1042	6665.82	3.9940	3.9939	-0.7553	25.60	-0.04	-0.750			
0.1064	6810.03	3.9910	3.9910	-0.7546	25.60	-0.04	-0.750			
0.1087	6956.76	3.9880	3.9881	-0.7588	25.60	-0.04	-0.750			
0.1110	7102.97	3.9850	3.9850	-0.7633	25.60	-0.04	-0.750			
0.1133	7249.60	3.9820	3.9820	-0.7644	25.60	-0.04	-0.750			
0.1155	7394.94	3.9790	3.9790	-0.7663	25.61	-0.03	-0.750			
0.1179	7542.45	3.9760	3.9761	-0.7667	25.61	-0.03	-0.750			
0.1202	7691.49	3.9730	3.9729	-0.7646	25.61	-0.03	-0.750			
0.1225	7839.14	3.9700	3.9700	-0.7642	25.62	-0.02	-0.750			
0.1247	7983.88	3.9670	3.9674	-0.7696	25.62	-0.02	-0.750			
0.1270	8129.58	3.9640	3.9640	-0.7742	25.62	-0.02	-0.750			
0.1294	8278.41	3.9610	3.9608	-0.7814	25.63	-0.01	-0.750			
0.1317	8429.90	3.9580	3.9580	-0.7891	25.63	-0.01	-0.750			
0.1341	8585.33	3.9550	3.9550	-0.7965	25.64	-0.00	-0.750			
0.1366	8739.97	3.9520	3.9520	-0.7964	25.64	-0.00	-0.750			
0.1390	8894.19	3.9490	3.9490	-0.7916	25.64	0.00	-0.750			
0.1413	9043.19	3.9460	3.9460	-0.7869	25.64	0.00	-0.750			
0.1436	9192.06	3.9430	3.9430	-0.7830	25.64	0.00	-0.750			
0.1460	9342.16	3.9400	3.9399	-0.7850	25.64	0.00	-0.750			
0.1483	9493.72	3.9370	3.9370	-0.7857	25.64	0.00	-0.750			
0.1507	9645.44	3.9340	3.9340	-0.7835	25.64	0.00	-0.750			
0.1530	9794.10	3.9310	3.9311	-0.7962	25.65	0.01	-0.750			
0.1554	9948.47	3.9280	3.9280	-0.7998	25.65	0.01	-0.750			
0.1578	10100.13	3.9250	3.9249	-0.8013	25.65	0.01	-0.750			
0.1603	10256.80	3.9220	3.9219	-0.8064	25.66	0.02	-0.750			
0.1627	10412.94	3.9190	3.9192	-0.8095	25.66	0.02	-0.750			
0.1651	10569.53	3.9160	3.9160	-0.8102	25.66	0.02	-0.750			
0.1676	10725.20	3.9130	3.9130	-0.8143	25.67	0.03	-0.750			
0.1700	10879.09	3.9100	3.9099	-0.8106	25.67	0.03	-0.750			
0.1725	11037.37	3.9070	3.9070	-0.8145	25.68	0.04	-0.750			
0.1749	11192.50	3.9040	3.9042	-0.8163	25.68	0.04	-0.750			
0.1774	11351.04	3.9010	3.9010	-0.8189	25.68	0.04	-0.750			
0.1798	11507.91	3.8980	3.8980	-0.8158	25.69	0.05	-0.750			
0.1822	11663.29	3.8950	3.8950	-0.8140	25.69	0.05	-0.750			
0.1847	11820.09	3.8920	3.8921	-0.8160	25.70	0.06	-0.750			
0.1871	11976.06	3.8890	3.8890	-0.8156	25.70	0.06	-0.750			
0.1896	12134.53	3.8860	3.8859	-0.8078	25.70	0.06	-0.750			
0.1920	12287.02	3.8830	3.8830	-0.8027	25.71	0.07	-0.750			
0.1944	12440.38	3.8800	3.8801	-0.8041	25.71	0.07	-0.750			
0.1968	12594.13	3.8770	3.8768	-0.8040	25.72	0.08	-0.750			
0.1992	12747.08	3.8740	3.8740	-0.8062	25.72	0.08	-0.750			
0.2016	12901.99	3.8710	3.8710	-0.8118	25.72	0.08	-0.750			
0.2040	13058.95	3.8680	3.8680	-0.8194	25.73	0.09	-0.750			
0.2065	13218.74	3.8650	3.8649	-0.8289	25.74	0.10	-0.750			
0.2090	13378.00	3.8620	3.8620	-0.8260	25.74	0.10	-0.750			
0.2115	13537.67	3.8590	3.8590	-0.8274	25.75	0.11	-0.750			
0.2140	13696.91	3.8560	3.8560	-0.8297	25.75	0.11	-0.750			
0.2165	13855.66	3.8530	3.8530	-0.8294	25.76	0.12	-0.750			
0.2190	14015.11	3.8500	3.8500	-0.8301	25.76	0.12	-0.750			
0.2215	14173.53	3.8470	3.8470	-0.8319	25.76	0.12	-0.750			
0.2240	14334.88	3.8440	3.8440	-0.8334	25.77	0.13	-0.750			
0.2265	14496.36	3.8410	3.8409	-0.8343	25.77	0.13	-0.750			
0.2290	14656.43	3.8380	3.8380	-0.8377	25.78	0.14	-0.750			
0.2315	14817.26	3.8350	3.8350	-0.8354	25.78	0.14	-0.750			
0.2340	14976.73	3.8320	3.8319	-0.8340	25.78	0.14	-0.750			
0.2365	15138.69	3.8290	3.8289	-0.8305	25.79	0.15	-0.750			
0.2390	15297.44	3.8260	3.8259	-0.8223	25.79	0.15	-0.750			
0.2415	15455.97	3.8230	3.8230	-0.8214	25.80	0.16	-0.750			
0.2439	15611.65	3.8200	3.8201	-0.8142	25.80	0.16	-0.750			
0.2463	15765.17	3.8170	3.8169	-0.8095	25.80	0.16	-0.750			
0.2488	15921.45	3.8140	3.8140	-0.8148	25.81	0.17	-0.750			
0.2512	16077.83	3.8110	3.8109	-0.8164	25.81	0.17	-0.750			
0.2537	16235.40	3.8080	3.8080	-0.8262	25.82	0.18	-0.750			
0.2562	16395.11	3.8050	3.8050	-0.8257	25.82	0.18	-0.750			
0.2587	16553.91	3.8020	3.8020	-0.8229	25.82	0.18	-0.750			
0.2611	16712.84	3.7990	3.7990	-0.8224	25.83	0.19	-0.750			
0.2636	16870.33	3.7960	3.7960	-0.8185	25.83	0.19	-0.750			
0.2660	17025.88	3.7930	3.7930	-0.8193	25.84	0.20	-0.750			
0.2685	17183.72	3.7900	3.7899	-0.8127	25.84	0.20	-0.750			
0.2709	17337.91	3.7870	3.7871	-0.8106	25.85	0.21	-0.750			
0.2734	17494.57	3.7840	3.7840	-0.8119	25.86	0.22	-0.750			
0.2758	17651.06	3.7810	3.7809	-0.8100	25.86	0.22	-0.750			
0.2782	17805.74	3.7780	3.7780	-0.8048	25.87	0.23	-0.750			
0.2806	17958.82	3.7750	3.7750	-0.8013	25.87	0.23	-0.750			
0.2830	18113.18	3.7720	3.7721	-0.7958	25.88	0.24	-0.750			
0.2854	18267.70	3.7690	3.7688	-0.7934	25.89	0.25	-0.750			
0.2878	18416.75	3.7660	3.7661	-0.7889	25.89	0.25	-0.750			
0.2901	18568.39	3.7630	3.7631	-0.7885	25.89	0.25	-0.750			
0.2925	18719.08	3.7600	3.7599	-0.7945	25.90	0.26	-0.750			
0.2949	18872.95	3.7570	3.7570	-0.7943	25.90	0.26	-0.750			
0.2973	19025.83	3.7540	3.7539	-0.7917	25.91	0.27	-0.750			
0.2997	19177.98	3.7510	3.7513	-0.7924	25.91	0.27	-0.750			
0.3020	19330.44	3.7480	3.7480	-0.7929	25.91	0.27	-0.750			
0.3044	19480.51	3.7450	3.7450	-0.7992	25.92	0.28	-0.750			
0.3068	19633.39	3.7420	3.7419	-0.8008	25.92	0.28	-0.750			
0.3092	19788.84	3.7390	3.7390	-0.8089	25.93	0.29	-0.750			
0.3116	19944.94	3.7360	3.7362	-0.8153	25.93	0.29	-0.750			
0.3141	20103.58	3.7330	3.7330	-0.8240	25.93	0.29	-0.750			
0.3166	20260.92	3.7300	3.7300	-0.8331	25.94	0.30	-0.750			
0.3191	20419.53	3.7270	3.7269	-0.8388	25.94	0.30	-0.750			
0.3216	20581.28	3.7240	3.7240	-0.8490	25.94	0.30	-0.750			
0.3242	20748.22	3.7210	3.7211	-0.8645	25.95	0.31	-0.750			
0.3268	20912.98	3.7180	3.7180	-0.8816	25.95	0.31	-0.750			
0.3294	21083.94	3.7150	3.7150	-0.8928	25.95	0.31	-0.750			
0.3321	21256.56	3.7120	3.7119	-0.9063	25.95	0.31	-0.750			
0.3348	21429.83	3.7090	3.7090	-0.9197	25.95	0.31	-0.750			
0.3377	21610.61	3.7060	3.7062	-0.9418	25.95	0.31	-0.750			
0.3405	21794.50	3.7030	3.7029	-0.9566	25.95	0.31	-0.750			
0.3435	21981.29	3.7000	3.6999	-0.9679	25.95	0.31	-0.750			
0.3463	22165.65	3.6970	3.6971	-0.9850	25.95	0.31	-0.750			
0.3493	22357.37	3.6940	3.6941	-1.0042	25.95	0.31	-0.750			
0.3523	22550.15	3.6910	3.6908	-1.0271	25.95	0.31	-0.750			
0.3555	22748.88	3.6880	3.6880	-1.0430	25.95	0.31	-0.750			
0.3586	22951.35	3.6850	3.6850	-1.0627	25.94	0.30	-0.750			
0.3618	23157.93	3.6820	3.6819	-1.0879	25.94	0.30	-0.750			
0.3652	23372.87	3.6790	3.6790	-1.1194	25.94	0.30	-0.750			
0.3686	23588.67	3.6760	3.6759	-1.1378	25.93	0.29	-0.750			
0.3720	23809.18	3.6730	3.6729	-1.1618	25.93	0.29	-0.750			
0.3755	24034.93	3.6700	3.6702	-1.1874	25.93	0.29	-0.750			
0.3791	24265.19	3.6670	3.6669	-1.2104	25.92	0.28	-0.750			
0.3828	24499.02	3.6640	3.6640	-1.2312	25.92	0.28	-0.750			
0.3865	24734.27	3.6610	3.6610	-1.2542	25.91	0.27	-0.750			
0.3904	24983.39	3.6580	3.6579	-1.2905	25.91	0.27	-0.750			
0.3943	25233.51	3.6550	3.6550	-1.3172	25.90	0.26	-0.750			
0.3982	25487.69	3.6520	3.6520	-1.3498	25.89	0.25	-0.750			
0.4024	25750.62	3.6490	3.6489	-1.3756	25.89	0.25	-0.750			
0.4065	26018.36	3.6460	3.6460	-1.4035	25.88	0.24	-0.750			
0.4108	26290.13	3.6430	3.6429	-1.4386	25.87	0.23	-0.750			
0.4151	26568.09	3.6400	3.6400	-1.4624	25.87	0.23	-0.750			
0.4196	26856.16	3.6370	3.6369	-1.5061	25.86	0.22	-0.750			
0.4242	27147.62	3.6340	3.6341	-1.5328	25.85	0.21	-0.750			
0.4288	27446.19	3.6310	3.6309	-1.5573	25.84	0.20	-0.750			
0.4336	27750.71	3.6280	3.6282	-1.5994	25.83	0.19	-0.750			
0.4384	28058.64	3.6250	3.6250	-1.6257	25.82	0.18	-0.750			
0.4433	28370.12	3.6220	3.6221	-1.6516	25.82	0.18	-0.750			
0.4483	28690.15	3.6190	3.6186	-1.6949	25.81	0.17	-0.750	0.383	0.502	
0.4535	29020.94	3.6160	3.6160	-1.7189	25.80	0.16	-0.750			
0.4587	29358.18	3.6130	3.6127	-1.7617	25.80	0.16	-0.750			
0.4641	29700.99	3.6100	3.6100	-1.7976	25.79	0.15	-0.750			
0.4694	30044.13	3.6070	3.6070	-1.8319	25.78	0.14	-0.750			
0.4751	30404.23	3.6040	3.6039	-1.8619	25.78	0.14	-0.750			
0.4806	30759.12	3.6010	3.6013	-1.8878	25.77	0.13	-0.750			
0.4864	31129.68	3.5980	3.5981	-1.9165	25.75	0.11	-0.750			
0.4922	31500.78	3.5950	3.5949	-1.9647	25.75	0.11	-0.750			
0.4981	31878.56	3.5920	3.5918	-2.0051	25.74	0.10	-0.750			
0.5042	32268.18	3.5890	3.5890	-2.0569	25.73	0.09	-0.750			
0.5104	32665.73	3.5860	3.5861	-2.0940	25.72	0.08	-0.750			
0.5169	33079.70	3.5830	3.5829	-2.1243	25.72	0.08	-0.750			
0.5233	33493.60	3.5800	3.5801	-2.1395	25.71	0.07	-0.750			
0.5298	33908.29	3.5770	3.5769	-2.1735	25.71	0.07	-0.750			
0.5363	34323.16	3.5740	3.5739	-2.1897	25.70	0.06	-0.750			
0.5429	34744.27	3.5710	3.5713	-2.2063	25.70	0.06	-0.750			
0.5495	35167.83	3.5680	3.5681	-2.2307	25.70	0.06	-0.750			
0.5562	35598.39	3.5650	3.5652	-2.2588	25.70	0.06	-0.750			
0.5631	36038.80	3.5620	3.5620	-2.2779	25.70	0.06	-0.750			
0.5701	36486.26	3.5590	3.5589	-2.2905	25.69	0.05	-0.750			
0.5769	36922.98	3.5560	3.5560	-2.2699	25.69	0.05	-0.750			
0.5838	37361.13	3.5530	3.5530	-2.2702	25.68	0.04	-0.750			
0.5905	37793.17	3.5500	3.5500	-2.2517	25.68	0.04	-0.750			
0.5972	38220.24	3.5470	3.5468	-2.2199	25.68	0.04	-0.750			
0.6038	38645.18	3.5440	3.5441	-2.2074	25.68	0.04	-0.750			
0.6105	39072.84	3.5410	3.5410	-2.1999	25.68	0.04	-0.750			
0.6171	39494.83	3.5380	3.5379	-2.1902	25.68	0.04	-0.750			
0.6237	39914.16	3.5350	3.5350	-2.1578	25.68	0.04	-0.750			
0.6302	40333.26	3.5320	3.5323	-2.1207	25.69	0.05	-0.750			
0.6365	40735.31	3.5290	3.5291	-2.0823	25.70	0.06	-0.750			
0.6427	41133.55	3.5260	3.5261	-2.0194	25.70	0.06	-0.750			
0.6487	41514.90	3.5230	3.5230	-1.9670	25.71	0.07	-0.750			
0.6545	41886.44	3.5200	3.5200	-1.9235	25.72	0.08	-0.750			
0.6601	42249.37	3.5170	3.5170	-1.8789	25.73	0.09	-0.750			
0.6658	42612.37	3.5140	3.5138	-1.8313	25.74	0.10	-0.750			
0.6713	42961.07	3.5110	3.5108	-1.7928	25.74	0.10	-0.750			
0.6766	43301.67	3.5080	3.5080	-1.7287	25.76	0.12	-0.750			
0.6818	43635.67	3.5050	3.5050	-1.6864	25.77	0.13	-0.750			
0.6867	43946.58	3.5020	3.5023	-1.6045	25.79	0.15	-0.750			
0.6913	44246.31	3.4990	3.4989	-1.5440	25.80	0.16	-0.750			
0.6959	44537.68	3.4960	3.4958	-1.4971	25.81	0.17	-0.750			
0.7003	44820.16	3.4930	3.4930	-1.4514	25.82	0.18	-0.750			
0.7046	45091.22	3.4900	3.4900	-1.4051	25.84	0.20	-0.750			
0.7088	45361.14	3.4870	3.4870	-1.3690	25.86	0.22	-0.750			
0.7128	45617.90	3.4840	3.4841	-1.3300	25.87	0.23	-0.750			
0.7167	45870.53	3.4810	3.4809	-1.2889	25.88	0.24	-0.750			
0.7205	46112.31	3.4780	3.4780	-1.2419	25.90	0.26	-0.750			
0.7242	46347.66	3.4750	3.4752	-1.1964	25.91	0.27	-0.750			
0.7277	46575.82	3.4720	3.4719	-1.1630	25.92	0.28	-0.750			
0.7311	46792.78	3.4690	3.4689	-1.1145	25.94	0.30	-0.750			
0.7344	47000.58	3.4660	3.4659	-1.0664	25.96	0.32	-0.750			
0.7375	47199.77	3.4630	3.4632	-1.0299	25.97	0.33	-0.750			
0.7406	47395.55	3.4600	3.4600	-1.0069	25.98	0.34	-0.750			
0.7435	47584.11	3.4570	3.4569	-0.9766	25.99	0.35	-0.750			
0.7464	47766.99	3.4540	3.4540	-0.9522	26.00	0.36	-0.750			
0.7492	47948.31	3.4510	3.4510	-0.9335	26.01	0.37	-0.750			
0.7519	48124.36	3.4480	3.4480	-0.9194	26.02	0.38	-0.750			
0.7547	48299.94	3.4450	3.4450	-0.9025	26.03	0.39	-0.750			
0.7573	48468.69	3.4420	3.4420	-0.8910	26.03	0.39	-0.750			
0.7599	48636.37	3.4390	3.4390	-0.8872	26.04	0.40	-0.750			
0.7626	48805.59	3.4360	3.4363	-0.8944	26.05	0.41	-0.750			
0.7652	48975.28	3.4330	3.4329	-0.9173	26.06	0.42	-0.750			
0.7680	49153.07	3.4300	3.4300	-0.9334	26.07	0.43	-0.750			
0.7708	49334.05	3.4270	3.4269	-0.9558	26.08	0.44	-0.750			
0.7738	49522.24	3.4240	3.4241	-0.9828	26.09	0.45	-0.750			
0.7768	49714.23	3.4210	3.4210	-0.9985	26.10	0.46	-0.750			
0.7798	49909.51	3.4180	3.4179	-1.0097	26.11	0.47	-0.750			
0.7829	50105.87	3.4150	3.4150	-1.0112	26.12	0.48	-0.750			
0.7859	50299.65	3.4120	3.4121	-1.0004	26.13	0.49	-0.750			
0.7890	50497.15	3.4090	3.4089	-0.9996	26.13	0.49	-0.750			
0.7920	50688.74	3.4060	3.4059	-0.9763	26.14	0.50	-0.750			
0.7949	50876.19	3.4030	3.4029	-0.9503	26.15	0.51	-0.750			
0.7977	51055.84	3.4000	3.4000	-0.9203	26.16	0.52	-0.750			
0.8005	51231.78	3.3970	3.3970	-0.8897	26.16	0.52	-0.750			
0.8031	51397.48	3.3940	3.3940	-0.8632	26.17	0.53	-0.750			
0.8056	51559.71	3.3910	3.3909	-0.8305	26.17	0.53	-0.750			
0.8080	51714.29	3.3880	3.3880	-0.7943	26.18	0.54	-0.750			
0.8104	51868.12	3.3850	3.3849	-0.7703	26.19	0.55	-0.750			
0.8127	52013.46	3.3820	3.3821	-0.7340	26.19	0.55	-0.750			
0.8148	52149.32	3.3790	3.3789	-0.7018	26.20	0.56	-0.750			
0.8169	52278.86	3.3760	3.3760	-0.6768	26.20	0.56	-0.750			
0.8188	52404.18	3.3730	3.3729	-0.6553	26.21	0.57	-0.750			
0.8208	52529.82	3.3700	3.3699	-0.6372	26.22	0.58	-0.750			
0.8227	52650.96	3.3670	3.3671	-0.6134	26.22	0.58	-0.750			
0.8245	52768.12	3.3640	3.3642	-0.5922	26.23	0.59	-0.750			
0.8262	52879.74	3.3610	3.3609	-0.5695	26.24	0.60	-0.750			
0.8279	52984.62	3.3580	3.3580	-0.5418	26.25	0.61	-0.750			
0.8295	53085.95	3.3550	3.3549	-0.5200	26.25	0.61	-0.750			
0.8310	53182.56	3.3520	3.3520	-0.4996	26.26	0.62	-0.750			
0.8325	53278.45	3.3490	3.3490	-0.4832	26.27	0.63	-0.750			
0.8339	53368.55	3.3460	3.3460	-0.4665	26.27	0.63	-0.750			
0.8353	53456.50	3.3430	3.3429	-0.4486	26.28	0.64	-0.750			
0.8366	53540.99	3.3400	3.3400	-0.4317	26.29	0.65	-0.750			
0.8378	53621.68	3.3370	3.3370	-0.4176	26.29	0.65	-0.750			
0.8391	53699.96	3.3340	3.3341	-0.4056	26.30	0.66	-0.750			
0.8403	53776.23	3.3310	3.3309	-0.3924	26.30	0.66	-0.750			
0.8414	53850.69	3.3280	3.3279	-0.3792	26.31	0.67	-0.750			
0.8425	53921.96	3.3250	3.3251	-0.3671	26.32	0.68	-0.750			
0.8436	53992.29	3.3220	3.3221	-0.3562	26.32	0.68	-0.750			
0.8447	54059.13	3.3190	3.3189	-0.3433	26.33	0.69	-0.750			
0.8457	54122.57	3.3160	3.3160	-0.3307	26.33	0.69	-0.750			
0.8466	54185.22	3.3130	3.3130	-0.3205	26.34	0.70	-0.750			
0.8476	54245.80	3.3100	3.3100	-0.3114	26.34	0.70	-0.750			
0.8485	54304.71	3.3070	3.3070	-0.3037	26.34	0.70	-0.750			
0.8494	54362.04	3.3040	3.3040	-0.2942	26.35	0.71	-0.750			
0.8503	54417.91	3.3010	3.3009	-0.2869	26.35	0.71	-0.750			
0.8511	54471.35	3.2980	3.2980	-0.2777	26.36	0.72	-0.750			
0.8519	54523.76	3.2950	3.2951	-0.2705	26.36	0.72	-0.750			
0.8527	54575.14	3.2920	3.2919	-0.2645	26.37	0.73	-0.750			
0.8535	54625.52	3.2890	3.2891	-0.2575	26.37	0.73	-0.750			
0.8543	54673.88	3.2860	3.2860	-0.2517	26.38	0.74	-0.750			
0.8550	54722.14	3.2830	3.2830	-0.2456	26.38	0.74	-0.750			
0.8558	54768.51	3.2800	3.2800	-0.2414	26.38	0.74	-0.750			
0.8565	54814.07	3.2770	3.2769	-0.2354	26.39	0.75	-0.750			
0.8572	54858.52	3.2740	3.2741	-0.2302	26.39	0.75	-0.750			
0.8578	54902.23	3.2710	3.2708	-0.2262	26.40	0.76	-0.750			
0.8585	54945.42	3.2680	3.2681	-0.2223	26.40	0.76	-0.750			
0.8592	54987.69	3.2650	3.2650	-0.2185	26.40	0.76	-0.750			
0.8598	55028.89	3.2620	3.2620	-0.2140	26.41	0.77	-0.750			
0.8605	55070.31	3.2590	3.2589	-0.2103	26.41	0.77	-0.750			
0.8611	55109.39	3.2560	3.2560	-0.2054	26.41	0.77	-0.750			
0.8617	55148.97	3.2530	3.2531	-0.2025	26.42	0.78	-0.750			
0.8623	55187.46	3.2500	3.2500	-0.1984	26.42	0.78	-0.750			
0.8629	55224.77	3.2470	3.2469	-0.1959	26.43	0.79	-0.750			
0.8635	55261.98	3.2440	3.2440	-0.1932	26.43	0.79	-0.750			
0.8640	55299.07	3.2410	3.2411	-0.1898	26.44	0.80	-0.750			
0.8646	55335.22	3.2380	3.2378	-0.1868	26.44	0.80	-0.750			
0.8652	55371.05	3.2350	3.2351	-0.1843	26.45	0.81	-0.750			
0.8657	55405.90	3.2320	3.2321	-0.1812	26.45	0.81	-0.750			
0.8663	55440.38	3.2290	3.2289	-0.1791	26.46	0.82	-0.750			
0.8668	55474.51	3.2260	3.2260	-0.1764	26.46	0.82	-0.750			
0.8673	55507.47	3.2230	3.2230	-0.1741	26.47	0.83	-0.750			
0.8678	55540.83	3.2200	3.2199	-0.1723	26.47	0.83	-0.750			
0.8683	55574.12	3.2170	3.2170	-0.1714	26.48	0.84	-0.750			
0.8689	55606.82	3.2140	3.2140	-0.1692	26.48	0.84	-0.750			
0.8694	55639.02	3.2110	3.2110	-0.1671	26.49	0.85	-0.750			
0.8699	55670.81	3.2080	3.2080	-0.1656	26.49	0.85	-0.750			
0.8703	55702.33	3.2050	3.2050	-0.1637	26.50	0.86	-0.750			
0.8708	55733.60	3.2020	3.2021	-0.1623	26.50	0.86	-0.750			
0.8713	55764.64	3.1990	3.1990	-0.1602	26.51	0.87	-0.750			
0.8718	55795.47	3.1960	3.1959	-0.1586	26.51	0.87	-0.750			
0.8723	55825.72	3.1930	3.1931	-0.1565	26.51	0.87	-0.750			
0.8727	55855.56	3.1900	3.1901	-0.1552	26.52	0.88	-0.750			
0.8732	55885.13	3.1870	3.1869	-0.1534	26.52	0.88	-0.750			
0.8737	55914.40	3.1840	3.1840	-0.1511	26.52	0.88	-0.750			
0.8741	55943.25	3.1810	3.1809	-0.1494	26.53	0.89	-0.750			
0.8746	55971.79	3.1780	3.1779	-0.1477	26.53	0.89	-0.750			
0.8750	56000.00	3.1750	3.1751	-0.1467	26.53	0.89	-0.750			
0.8754	56027.66	3.1720	3.1719	-0.1455	26.54	0.90	-0.750			
0.8759	56055.52	3.1690	3.1690	-0.1448	26.54	0.90	-0.750			
0.8763	56082.94	3.1660	3.1659	-0.1434	26.55	0.91	-0.750			
0.8767	56110.75	3.1630	3.1629	-0.1423	26.55	0.91	-0.750			
0.8772	56138.32	3.1600	3.1600	-0.1416	26.56	0.92	-0.750			
0.8776	56165.28	3.1570	3.1572	-0.1398	26.56	0.92	-0.750			
0.8780	56191.97	3.1540	3.1540	-0.1387	26.57	0.93	-0.750			
0.8784	56218.29	3.1510	3.1509	-0.1370	26.57	0.93	-0.750			
0.8788	56244.17	3.1480	3.1479	-0.1353	26.58	0.94	-0.750			
0.8792	56270.16	3.1450	3.1451	-0.1341	26.58	0.94	-0.750			
0.8796	56295.85	3.1420	3.1421	-0.1335	26.59	0.95	-0.750			
0.8800	56321.53	3.1390	3.1390	-0.1327	26.59	0.95	-0.750			
0.8804	56346.90	3.1360	3.1360	-0.1315	26.60	0.96	-0.750			
0.8808	56371.93	3.1330	3.1330	-0.1306	26.60	0.96	-0.750			
0.8812	56396.89	3.1300	3.1301	-0.1293	26.61	0.97	-0.750			
0.8816	56421.57	3.1270	3.1270	-0.1289	26.61	0.97	-0.750			
0.8820	56446.25	3.1240	3.1240	-0.1282	26.62	0.98	-0.750			
0.8824	56470.75	3.1210	3.1210	-0.1278	26.62	0.98	-0.750			
0.8827	56495.27	3.1180	3.1179	-0.1265	26.62	0.98	-0.750			
0.8831	56519.61	3.1150	3.1150	-0.1259	26.63	0.99	-0.750			
0.8835	56543.80	3.1120	3.1119	-0.1242	26.63	0.99	-0.750			
0.8839	56567.67	3.1090	3.1091	-0.1229	26.64	1.00	-0.750			
0.8842	56591.20	3.1060	3.1061	-0.1221	26.65	1.01	-0.750			
0.8846	56614.17	3.1030	3.1030	-0.1201	26.65	1.01	-0.750			
0.8850	56636.87	3.1000	3.0999	-0.1206	26.66	1.02	-0.750			
0.8853	56659.99	3.0970	3.0970	-0.1195	26.66	1.02	-0.750			
0.8857	56682.99	3.0940	3.0938	-0.1195	26.67	1.03	-0.750			
0.8860	56706.18	3.0910	3.0912	-0.1182	26.67	1.03	-0.750			
0.8864	56728.76	3.0880	3.0881	-0.1171	26.68	1.04	-0.750			
0.8867	56751.42	3.0850	3.0850	-0.1169	26.68	1.04	-0.750			
0.8871	56773.69	3.0820	3.0819	-0.1156	26.69	1.05	-0.750			
0.8874	56795.61	3.0790	3.0790	-0.1153	26.69	1.05	-0.750			
0.8878	56817.09	3.0760	3.0759	-0.1142	26.70	1.06	-0.750			
0.8881	56839.31	3.0730	3.0731	-0.1133	26.70	1.06	-0.750			
0.8885	56861.28	3.0700	3.0700	-0.1131	26.71	1.07	-0.750			
0.8888	56883.12	3.0670	3.0672	-0.1131	26.71	1.07	-0.750			
0.8891	56904.73	3.0640	3.0640	-0.1120	26.72	1.08	-0.750			
0.8895	56925.88	3.0610	3.0609	-0.1109	26.72	1.08	-0.750			
0.8898	56947.11	3.0580	3.0579	-0.1102	26.73	1.09	-0.750			
0.8901	56968.13	3.0550	3.0550	-0.1092	26.73	1.09	-0.750			
0.8905	56989.06	3.0520	3.0521	-0.1088	26.74	1.10	-0.750			
0.8908	57009.88	3.0490	3.0490	-0.1085	26.74	1.10	-0.750			
0.8911	57030.84	3.0460	3.0460	-0.1082	26.75	1.11	-0.750			
0.8914	57051.61	3.0430	3.0428	-0.1072	26.75	1.11	-0.750			
0.8918	57072.06	3.0400	3.0400	-0.1064	26.76	1.12	-0.750			
0.8921	57092.39	3.0370	3.0371	-0.1058	26.76	1.12	-0.750			
0.8924	57112.67	3.0340	3.0340	-0.1052	26.77	1.13	-0.750			
0.8927	57132.83	3.0310	3.0309	-0.1045	26.77	1.13	-0.750			
0.8930	57152.89	3.0280	3.0280	-0.1038	26.78	1.14	-0.750			
0.8933	57172.70	3.0250	3.0250	-0.1032	26.78	1.14	-0.750			
0.8936	57192.29	3.0220	3.0220	-0.1023	26.79	1.15	-0.750			
0.8939	57211.83	3.0190	3.0192	-0.1021	26.79	1.15	-0.750			
0.8942	57231.44	3.0160	3.0160	-0.1017	26.80	1.16	-0.750			
0.8945	57250.93	3.0130	3.0130	-0.1013	26.80	1.16	-0.750			
0.8948	57270.13	3.0100	3.0101	-0.1012	26.80	1.16	-0.751			
0.8951	57289.57	3.0070	3.0069	-0.1013	26.81	1.17	-0.751			
0.8955	57309.03	3.0040	3.0041	-0.1018	26.81	1.17	-0.751			
