Ah_balance (normalized)	Ah_balance (mAh)	Voltage - fit (V)	Voltage -  interpolate (V)	dQ/dV (1/V)	Temperature (°C)	Temperature - diff (°C)	Current (C)	R_DC 0ms (mOhm)	R_DC 50ms (mOhm)	R_DC 50 ms PEC (mOhm)
0.0005	30.72	4.1580	4.1578	-0.1366	25.81	0.00	-0.750			
0.0010	61.04	4.1550	4.1549	-0.1759	25.81	0.00	-0.750			
0.0016	99.59	4.1520	4.1519	-0.2115	25.81	0.00	-0.750			
0.0022	143.21	4.1490	4.1491	-0.2469	25.81	-0.00	-0.750			
0.0030	194.09	4.1460	4.1461	-0.2814	25.81	-0.00	-0.750			
0.0039	251.89	4.1430	4.1430	-0.3167	25.81	-0.00	-0.750			
0.0049	315.88	4.1400	4.1400	-0.3500	25.81	-0.00	-0.750			
0.0060	386.32	4.1370	4.1370	-0.3821	25.80	-0.01	-0.750			
0.0072	463.82	4.1340	4.1340	-0.4111	25.80	-0.01	-0.750			
0.0085	546.59	4.1310	4.1310	-0.4412	25.80	-0.01	-0.750			
0.0099	633.87	4.1280	4.1280	-0.4650	25.80	-0.01	-0.750			
0.0113	726.34	4.1250	4.1250	-0.4883	25.80	-0.01	-0.750			
0.0129	822.43	4.1220	4.1219	-0.5065	25.79	-0.02	-0.750			
0.0144	921.92	4.1190	4.1192	-0.5265	25.79	-0.02	-0.750			
0.0160	1024.93	4.1160	4.1160	-0.5423	25.79	-0.02	-0.750			
0.0177	1131.90	4.1130	4.1129	-0.5579	25.79	-0.02	-0.750			
0.0194	1239.70	4.1100	4.1100	-0.5704	25.78	-0.03	-0.750			
0.0211	1350.28	4.1070	4.1069	-0.5821	25.78	-0.03	-0.750			
0.0229	1464.51	4.1040	4.1040	-0.5955	25.78	-0.03	-0.750			
0.0247	1580.23	4.1010	4.1010	-0.6052	25.77	-0.04	-0.750			
0.0265	1698.10	4.0980	4.0980	-0.6109	25.77	-0.04	-0.750			
0.0284	1817.02	4.0950	4.0950	-0.6154	25.77	-0.04	-0.750			
0.0302	1935.99	4.0920	4.0920	-0.6202	25.76	-0.05	-0.750			
0.0321	2054.27	4.0890	4.0891	-0.6255	25.76	-0.05	-0.750			
0.0340	2174.30	4.0860	4.0859	-0.6337	25.76	-0.05	-0.750			
0.0359	2296.23	4.0830	4.0831	-0.6400	25.76	-0.05	-0.750			
0.0378	2420.06	4.0800	4.0800	-0.6488	25.75	-0.06	-0.750			
0.0398	2546.97	4.0770	4.0771	-0.6577	25.75	-0.06	-0.750			
0.0418	2673.57	4.0740	4.0739	-0.6616	25.75	-0.06	-0.750			
0.0437	2799.89	4.0710	4.0711	-0.6699	25.75	-0.06	-0.750			
0.0458	2929.84	4.0680	4.0679	-0.6692	25.75	-0.06	-0.750			
0.0478	3059.81	4.0650	4.0650	-0.6748	25.75	-0.06	-0.750			
0.0498	3189.83	4.0620	4.0620	-0.6756	25.75	-0.06	-0.750			
0.0519	3319.39	4.0590	4.0592	-0.6785	25.75	-0.06	-0.750			
0.0539	3449.63	4.0560	4.0559	-0.6836	25.75	-0.06	-0.750			
0.0559	3579.41	4.0530	4.0530	-0.6876	25.75	-0.06	-0.750			
0.0580	3713.03	4.0500	4.0500	-0.6884	25.75	-0.06	-0.750			
0.0601	3848.40	4.0470	4.0470	-0.6976	25.75	-0.06	-0.750			
0.0622	3980.50	4.0440	4.0441	-0.6983	25.75	-0.06	-0.750			
0.0643	4115.82	4.0410	4.0410	-0.6985	25.75	-0.06	-0.750			
0.0664	4248.90	4.0380	4.0379	-0.6992	25.75	-0.06	-0.750			
0.0685	4383.39	4.0350	4.0350	-0.6990	25.75	-0.06	-0.750			
0.0706	4517.08	4.0320	4.0321	-0.7039	25.75	-0.06	-0.750			
0.0727	4653.49	4.0290	4.0290	-0.7082	25.75	-0.06	-0.750			
0.0748	4790.24	4.0260	4.0259	-0.7071	25.75	-0.06	-0.750			
0.0770	4925.91	4.0230	4.0232	-0.7079	25.75	-0.06	-0.750			
0.0791	5062.35	4.0200	4.0200	-0.7126	25.75	-0.06	-0.750			
0.0812	5198.20	4.0170	4.0169	-0.7143	25.76	-0.05	-0.750			
0.0834	5336.36	4.0140	4.0140	-0.7194	25.76	-0.05	-0.750			
0.0855	5474.66	4.0110	4.0110	-0.7167	25.76	-0.05	-0.750			
0.0877	5614.47	4.0080	4.0080	-0.7193	25.77	-0.04	-0.750			
0.0899	5752.44	4.0050	4.0052	-0.7209	25.77	-0.04	-0.750			
0.0920	5889.70	4.0020	4.0019	-0.7218	25.77	-0.04	-0.750			
0.0942	6027.43	3.9990	3.9990	-0.7246	25.77	-0.04	-0.750			
0.0963	6165.58	3.9960	3.9960	-0.7253	25.77	-0.04	-0.750			
0.0985	6306.80	3.9930	3.9930	-0.7364	25.77	-0.04	-0.750			
0.1008	6448.97	3.9900	3.9900	-0.7391	25.77	-0.04	-0.750			
0.1030	6591.78	3.9870	3.9869	-0.7410	25.77	-0.04	-0.750			
0.1052	6733.92	3.9840	3.9840	-0.7402	25.78	-0.03	-0.750			
0.1074	6875.73	3.9810	3.9811	-0.7434	25.78	-0.03	-0.750			
0.1097	7019.82	3.9780	3.9779	-0.7437	25.78	-0.03	-0.750			
0.1119	7162.19	3.9750	3.9749	-0.7464	25.79	-0.02	-0.750			
0.1141	7304.69	3.9720	3.9720	-0.7440	25.79	-0.02	-0.750			
0.1164	7447.75	3.9690	3.9689	-0.7483	25.79	-0.02	-0.750			
0.1186	7592.35	3.9660	3.9659	-0.7517	25.80	-0.01	-0.750			
0.1209	7737.99	3.9630	3.9630	-0.7532	25.80	-0.01	-0.750			
0.1232	7881.85	3.9600	3.9600	-0.7504	25.80	-0.01	-0.750			
0.1255	8028.87	3.9570	3.9570	-0.7537	25.81	-0.00	-0.750			
0.1277	8172.36	3.9540	3.9541	-0.7540	25.81	0.00	-0.750			
0.1299	8316.48	3.9510	3.9509	-0.7575	25.81	0.00	-0.750			
0.1322	8460.81	3.9480	3.9479	-0.7623	25.81	0.00	-0.750			
0.1345	8606.74	3.9450	3.9451	-0.7641	25.81	0.00	-0.750			
0.1368	8757.04	3.9420	3.9420	-0.7707	25.81	0.00	-0.750			
0.1392	8905.82	3.9390	3.9389	-0.7724	25.81	0.00	-0.750			
0.1415	9053.93	3.9360	3.9360	-0.7722	25.81	0.00	-0.750			
0.1438	9201.15	3.9330	3.9330	-0.7738	25.81	0.00	-0.750			
0.1461	9349.45	3.9300	3.9300	-0.7698	25.82	0.01	-0.750			
0.1484	9498.10	3.9270	3.9270	-0.7665	25.82	0.01	-0.750			
0.1507	9645.87	3.9240	3.9240	-0.7729	25.82	0.01	-0.750			
0.1530	9793.64	3.9210	3.9210	-0.7742	25.82	0.01	-0.750			
0.1553	9940.61	3.9180	3.9179	-0.7799	25.83	0.02	-0.750			
0.1577	10091.37	3.9150	3.9151	-0.7850	25.83	0.02	-0.750			
0.1600	10243.18	3.9120	3.9119	-0.7873	25.83	0.02	-0.750			
0.1625	10396.80	3.9090	3.9090	-0.7915	25.84	0.03	-0.750			
0.1648	10550.16	3.9060	3.9062	-0.7924	25.84	0.03	-0.750			
0.1672	10700.71	3.9030	3.9031	-0.7841	25.84	0.03	-0.750			
0.1695	10850.79	3.9000	3.9000	-0.7848	25.85	0.04	-0.750			
0.1719	10999.83	3.8970	3.8970	-0.7867	25.85	0.04	-0.750			
0.1742	11151.44	3.8940	3.8940	-0.7897	25.86	0.05	-0.750			
0.1766	11302.91	3.8910	3.8909	-0.7924	25.86	0.05	-0.750			
0.1790	11456.39	3.8880	3.8880	-0.7971	25.86	0.05	-0.750			
0.1814	11609.93	3.8850	3.8850	-0.8059	25.86	0.05	-0.750			
0.1839	11766.71	3.8820	3.8819	-0.8083	25.87	0.06	-0.750			
0.1863	11921.72	3.8790	3.8790	-0.8060	25.87	0.06	-0.750			
0.1887	12077.38	3.8760	3.8761	-0.8043	25.87	0.06	-0.750			
0.1911	12232.46	3.8730	3.8729	-0.8024	25.87	0.06	-0.750			
0.1935	12385.18	3.8700	3.8700	-0.8006	25.88	0.07	-0.750			
0.1959	12538.00	3.8670	3.8670	-0.7954	25.88	0.07	-0.750			
0.1983	12688.21	3.8640	3.8640	-0.7915	25.88	0.07	-0.750			
0.2007	12843.36	3.8610	3.8609	-0.7971	25.89	0.08	-0.750			
0.2031	12995.43	3.8580	3.8580	-0.7978	25.89	0.08	-0.750			
0.2054	13148.53	3.8550	3.8550	-0.8015	25.90	0.09	-0.750			
0.2079	13302.81	3.8520	3.8520	-0.8019	25.90	0.09	-0.750			
0.2103	13456.28	3.8490	3.8490	-0.8031	25.90	0.09	-0.750			
0.2127	13612.96	3.8460	3.8460	-0.8039	25.91	0.10	-0.750			
0.2151	13767.03	3.8430	3.8430	-0.8013	25.91	0.10	-0.750			
0.2175	13920.73	3.8400	3.8400	-0.7975	25.91	0.10	-0.750			
0.2199	14072.94	3.8370	3.8371	-0.7947	25.92	0.11	-0.750			
0.2223	14224.79	3.8340	3.8340	-0.7958	25.92	0.11	-0.750			
0.2247	14378.10	3.8310	3.8310	-0.7949	25.93	0.12	-0.750			
0.2270	14530.04	3.8280	3.8280	-0.7944	25.93	0.12	-0.750			
0.2294	14683.75	3.8250	3.8250	-0.7963	25.93	0.12	-0.750			
0.2318	14836.73	3.8220	3.8220	-0.7972	25.93	0.12	-0.750			
0.2342	14991.08	3.8190	3.8189	-0.7930	25.94	0.13	-0.750			
0.2366	15143.41	3.8160	3.8159	-0.7839	25.94	0.13	-0.750			
0.2390	15293.16	3.8130	3.8132	-0.7809	25.94	0.13	-0.750			
0.2413	15442.30	3.8100	3.8099	-0.7763	25.94	0.13	-0.750			
0.2436	15588.49	3.8070	3.8070	-0.7737	25.95	0.14	-0.750			
0.2459	15736.36	3.8040	3.8040	-0.7734	25.95	0.14	-0.750			
0.2482	15883.62	3.8010	3.8009	-0.7697	25.95	0.14	-0.750			
0.2506	16035.90	3.7980	3.7980	-0.7726	25.96	0.15	-0.750			
0.2529	16183.71	3.7950	3.7951	-0.7689	25.96	0.15	-0.750			
0.2552	16330.82	3.7920	3.7920	-0.7610	25.96	0.15	-0.750			
0.2575	16477.18	3.7890	3.7889	-0.7633	25.96	0.15	-0.750			
0.2597	16621.99	3.7860	3.7860	-0.7514	25.97	0.16	-0.750			
0.2620	16766.10	3.7830	3.7829	-0.7511	25.97	0.16	-0.750			
0.2642	16911.34	3.7800	3.7801	-0.7493	25.97	0.16	-0.750			
0.2665	17054.13	3.7770	3.7769	-0.7446	25.97	0.16	-0.750			
0.2687	17195.88	3.7740	3.7740	-0.7380	25.98	0.17	-0.750			
0.2709	17338.09	3.7710	3.7710	-0.7414	25.98	0.17	-0.750			
0.2731	17478.18	3.7680	3.7680	-0.7390	25.98	0.17	-0.750			
0.2754	17624.43	3.7650	3.7649	-0.7420	25.99	0.18	-0.750			
0.2776	17765.19	3.7620	3.7622	-0.7385	25.99	0.18	-0.750			
0.2798	17907.73	3.7590	3.7589	-0.7364	25.99	0.18	-0.750			
0.2820	18047.68	3.7560	3.7560	-0.7385	26.00	0.19	-0.750			
0.2842	18186.98	3.7530	3.7531	-0.7326	26.00	0.19	-0.750			
0.2864	18329.65	3.7500	3.7500	-0.7451	26.00	0.19	-0.750			
0.2886	18472.08	3.7470	3.7469	-0.7562	26.01	0.20	-0.750			
0.2909	18617.79	3.7440	3.7439	-0.7658	26.01	0.20	-0.750			
0.2932	18765.59	3.7410	3.7410	-0.7743	26.01	0.20	-0.750			
0.2956	18917.20	3.7380	3.7380	-0.7826	26.01	0.20	-0.750			
0.2979	19067.64	3.7350	3.7351	-0.7867	26.02	0.21	-0.750			
0.3003	19220.88	3.7320	3.7320	-0.7965	26.02	0.21	-0.750			
0.3027	19372.06	3.7290	3.7290	-0.8050	26.02	0.21	-0.750			
0.3051	19526.68	3.7260	3.7260	-0.8175	26.02	0.21	-0.750			
0.3076	19684.72	3.7230	3.7230	-0.8347	26.02	0.21	-0.750			
0.3101	19848.03	3.7200	3.7200	-0.8410	26.01	0.20	-0.750			
0.3127	20012.55	3.7170	3.7170	-0.8515	26.01	0.20	-0.750			
0.3152	20175.66	3.7140	3.7142	-0.8669	26.01	0.20	-0.750			
0.3178	20341.79	3.7110	3.7109	-0.8800	26.01	0.20	-0.750			
0.3205	20510.63	3.7080	3.7079	-0.8979	26.01	0.20	-0.750			
0.3232	20682.86	3.7050	3.7051	-0.9129	26.02	0.21	-0.750			
0.3260	20862.94	3.7020	3.7020	-0.9380	26.02	0.21	-0.750			
0.3288	21046.04	3.6990	3.6990	-0.9570	26.02	0.21	-0.750			
0.3317	21231.66	3.6960	3.6960	-0.9745	26.02	0.21	-0.750			
0.3347	21419.24	3.6930	3.6930	-0.9900	26.01	0.20	-0.750			
0.3377	21612.09	3.6900	3.6900	-1.0068	26.01	0.20	-0.750			
0.3407	21806.44	3.6870	3.6870	-1.0284	26.01	0.20	-0.750			
0.3438	22006.36	3.6840	3.6840	-1.0440	26.00	0.19	-0.750			
0.3470	22208.01	3.6810	3.6810	-1.0573	26.00	0.19	-0.750			
0.3502	22411.07	3.6780	3.6780	-1.0785	25.99	0.18	-0.750			
0.3534	22620.76	3.6750	3.6750	-1.1078	25.99	0.18	-0.750			
0.3568	22834.18	3.6720	3.6719	-1.1289	25.98	0.17	-0.750			
0.3602	23054.31	3.6690	3.6690	-1.1517	25.98	0.17	-0.750			
0.3637	23276.45	3.6660	3.6660	-1.1769	25.97	0.16	-0.750			
0.3673	23507.76	3.6630	3.6630	-1.2020	25.97	0.16	-0.750			
0.3710	23741.00	3.6600	3.6600	-1.2238	25.96	0.15	-0.750			
0.3746	23973.32	3.6570	3.6570	-1.2525	25.95	0.14	-0.750			
0.3784	24218.20	3.6540	3.6541	-1.2683	25.95	0.14	-0.750			
0.3823	24466.71	3.6510	3.6509	-1.2875	25.94	0.13	-0.750			
0.3862	24715.20	3.6480	3.6480	-1.3075	25.94	0.13	-0.750			
0.3901	24968.37	3.6450	3.6452	-1.3270	25.93	0.12	-0.750			
0.3941	25224.72	3.6420	3.6419	-1.3577	25.92	0.11	-0.750			
0.3982	25485.27	3.6390	3.6390	-1.3777	25.92	0.11	-0.750			
0.4024	25751.96	3.6360	3.6362	-1.4148	25.91	0.10	-0.750			
0.4067	26029.12	3.6330	3.6330	-1.4607	25.90	0.09	-0.750			
0.4111	26310.66	3.6300	3.6299	-1.4936	25.90	0.09	-0.750			
0.4156	26598.47	3.6270	3.6271	-1.5255	25.89	0.08	-0.750			
0.4203	26898.27	3.6240	3.6239	-1.5659	25.88	0.07	-0.750			
0.4250	27202.45	3.6210	3.6210	-1.5814	25.87	0.06	-0.750			
0.4299	27511.66	3.6180	3.6178	-1.6078	25.87	0.06	-0.750			
0.4348	27824.33	3.6150	3.6148	-1.6349	25.86	0.05	-0.750	0.386	0.535	
0.4396	28134.36	3.6120	3.6121	-1.6605	25.85	0.04	-0.750			
0.4446	28457.46	3.6090	3.6090	-1.6808	25.85	0.04	-0.750			
0.4497	28780.79	3.6060	3.6059	-1.7125	25.85	0.04	-0.750			
0.4549	29115.65	3.6030	3.6028	-1.7419	25.84	0.03	-0.750			
0.4602	29451.95	3.6000	3.5999	-1.7919	25.83	0.02	-0.750			
0.4656	29796.24	3.5970	3.5971	-1.8271	25.82	0.01	-0.750			
0.4711	30148.06	3.5940	3.5938	-1.8748	25.81	0.00	-0.750			
0.4768	30513.56	3.5910	3.5910	-1.9217	25.81	0.00	-0.750			
0.4827	30895.79	3.5880	3.5880	-1.9709	25.81	0.00	-0.750			
0.4887	31279.27	3.5850	3.5850	-2.0091	25.81	0.00	-0.750			
0.4948	31668.99	3.5820	3.5820	-2.0361	25.80	-0.01	-0.750			
0.5011	32069.37	3.5790	3.5790	-2.0448	25.79	-0.02	-0.750			
0.5072	32461.89	3.5760	3.5759	-2.0701	25.79	-0.02	-0.750			
0.5134	32857.57	3.5730	3.5730	-2.0873	25.79	-0.02	-0.750			
0.5197	33259.54	3.5700	3.5702	-2.1166	25.79	-0.02	-0.750			
0.5261	33669.51	3.5670	3.5669	-2.1447	25.79	-0.02	-0.750			
0.5327	34090.35	3.5640	3.5639	-2.1271	25.79	-0.02	-0.750			
0.5391	34504.99	3.5610	3.5611	-2.1215	25.79	-0.02	-0.750			
0.5456	34915.32	3.5580	3.5581	-2.1393	25.79	-0.02	-0.750			
0.5517	35310.20	3.5550	3.5545	-2.1222	25.79	-0.02	-0.750			
0.5581	35718.09	3.5520	3.5522	-2.1180	25.79	-0.02	-0.750			
0.5645	36125.59	3.5490	3.5490	-2.1286	25.79	-0.02	-0.750			
0.5709	36540.12	3.5460	3.5460	-2.1425	25.80	-0.01	-0.750			
0.5774	36956.38	3.5430	3.5432	-2.1350	25.81	0.00	-0.750			
0.5839	37370.36	3.5400	3.5399	-2.1302	25.81	0.00	-0.750			
0.5901	37768.90	3.5370	3.5371	-2.0990	25.81	0.00	-0.750			
0.5965	38173.79	3.5340	3.5340	-2.0631	25.82	0.01	-0.750			
0.6028	38576.44	3.5310	3.5310	-2.0403	25.82	0.01	-0.750			
0.6087	38956.20	3.5280	3.5280	-1.9985	25.84	0.03	-0.750			
0.6147	39338.04	3.5250	3.5253	-1.9649	25.85	0.04	-0.750			
0.6205	39712.83	3.5220	3.5218	-1.9195	25.85	0.04	-0.750			
0.6262	40077.36	3.5190	3.5191	-1.8837	25.86	0.05	-0.750			
0.6318	40434.71	3.5160	3.5162	-1.8412	25.87	0.06	-0.750			
0.6374	40792.97	3.5130	3.5128	-1.8028	25.88	0.07	-0.750			
0.6426	41129.10	3.5100	3.5101	-1.7456	25.89	0.08	-0.750			
0.6478	41459.50	3.5070	3.5071	-1.6914	25.90	0.09	-0.750			
0.6528	41779.20	3.5040	3.5042	-1.6472	25.91	0.10	-0.750			
0.6577	42095.43	3.5010	3.5012	-1.5951	25.93	0.12	-0.750			
0.6624	42392.10	3.4980	3.4979	-1.5443	25.94	0.13	-0.750			
0.6670	42685.18	3.4950	3.4948	-1.4907	25.96	0.15	-0.750			
0.6713	42966.04	3.4920	3.4921	-1.4474	25.98	0.17	-0.750			
0.6756	43238.08	3.4890	3.4890	-1.4168	26.00	0.19	-0.750			
0.6798	43506.22	3.4860	3.4860	-1.3682	26.02	0.21	-0.750			
0.6838	43765.19	3.4830	3.4828	-1.3317	26.03	0.22	-0.750			
0.6878	44017.69	3.4800	3.4800	-1.2892	26.04	0.23	-0.750			
0.6916	44259.31	3.4770	3.4769	-1.2496	26.06	0.25	-0.750			
0.6953	44501.12	3.4740	3.4740	-1.2157	26.07	0.26	-0.750			
0.6989	44727.01	3.4710	3.4709	-1.1646	26.09	0.28	-0.750			
0.7022	44942.37	3.4680	3.4683	-1.1220	26.10	0.29	-0.750			
0.7056	45157.72	3.4650	3.4649	-1.0926	26.11	0.30	-0.750			
0.7088	45360.77	3.4620	3.4620	-1.0523	26.13	0.32	-0.750			
0.7119	45559.86	3.4590	3.4589	-1.0214	26.14	0.33	-0.750			
0.7149	45752.30	3.4560	3.4562	-0.9931	26.15	0.34	-0.750			
0.7178	45940.83	3.4530	3.4529	-0.9669	26.17	0.36	-0.750			
0.7207	46123.07	3.4500	3.4500	-0.9377	26.18	0.37	-0.750			
0.7234	46299.75	3.4470	3.4470	-0.9126	26.19	0.38	-0.750			
0.7261	46472.16	3.4440	3.4441	-0.8908	26.21	0.40	-0.750			
0.7287	46639.52	3.4410	3.4408	-0.8753	26.22	0.41	-0.750			
0.7313	46801.83	3.4380	3.4380	-0.8637	26.23	0.42	-0.750			
0.7338	46965.54	3.4350	3.4350	-0.8602	26.24	0.43	-0.750			
0.7364	47127.83	3.4320	3.4320	-0.8613	26.25	0.44	-0.750			
0.7390	47295.43	3.4290	3.4290	-0.8707	26.26	0.45	-0.750			
0.7416	47461.69	3.4260	3.4260	-0.8879	26.27	0.46	-0.750			
0.7443	47632.83	3.4230	3.4229	-0.9033	26.28	0.47	-0.750			
0.7470	47809.39	3.4200	3.4200	-0.9099	26.29	0.48	-0.750			
0.7498	47984.50	3.4170	3.4169	-0.9197	26.30	0.49	-0.750			
0.7526	48165.58	3.4140	3.4142	-0.9275	26.31	0.50	-0.750			
0.7554	48344.35	3.4110	3.4109	-0.9347	26.32	0.51	-0.750			
0.7582	48525.51	3.4080	3.4079	-0.9318	26.33	0.52	-0.750			
0.7610	48704.92	3.4050	3.4048	-0.9174	26.34	0.53	-0.750			
0.7638	48882.24	3.4020	3.4022	-0.9054	26.35	0.54	-0.750			
0.7665	49056.19	3.3990	3.3990	-0.8882	26.35	0.54	-0.750			
0.7691	49224.73	3.3960	3.3960	-0.8661	26.36	0.55	-0.750			
0.7717	49389.49	3.3930	3.3929	-0.8399	26.37	0.56	-0.750			
0.7741	49545.28	3.3900	3.3900	-0.8120	26.37	0.56	-0.750			
0.7766	49702.00	3.3870	3.3871	-0.7943	26.38	0.57	-0.750			
0.7789	49852.35	3.3840	3.3839	-0.7682	26.39	0.58	-0.750			
0.7812	49998.13	3.3810	3.3810	-0.7402	26.40	0.59	-0.750			
0.7834	50136.63	3.3780	3.3780	-0.7165	26.41	0.60	-0.750			
0.7855	50271.71	3.3750	3.3750	-0.6883	26.41	0.60	-0.750			
0.7875	50402.38	3.3720	3.3719	-0.6661	26.42	0.61	-0.750			
0.7895	50526.78	3.3690	3.3693	-0.6393	26.43	0.62	-0.750			
0.7914	50646.89	3.3660	3.3659	-0.6171	26.44	0.63	-0.750			
0.7932	50763.09	3.3630	3.3630	-0.5954	26.44	0.63	-0.750			
0.7949	50874.54	3.3600	3.3600	-0.5742	26.45	0.64	-0.750			
0.7966	50982.94	3.3570	3.3570	-0.5594	26.45	0.64	-0.750			
0.7983	51088.62	3.3540	3.3540	-0.5413	26.46	0.65	-0.750			
0.7998	51189.91	3.3510	3.3510	-0.5224	26.46	0.65	-0.750			
0.8014	51289.36	3.3480	3.3479	-0.5054	26.47	0.66	-0.750			
0.8029	51384.72	3.3450	3.3450	-0.4863	26.47	0.66	-0.750			
0.8043	51476.35	3.3420	3.3420	-0.4716	26.48	0.67	-0.750			
0.8057	51564.44	3.3390	3.3390	-0.4541	26.48	0.67	-0.750			
0.8070	51649.53	3.3360	3.3359	-0.4388	26.49	0.68	-0.750			
0.8083	51732.46	3.3330	3.3331	-0.4271	26.50	0.69	-0.750			
0.8096	51813.22	3.3300	3.3300	-0.4143	26.50	0.69	-0.750			
0.8108	51891.57	3.3270	3.3269	-0.4038	26.51	0.70	-0.750			
0.8120	51968.26	3.3240	3.3240	-0.3918	26.51	0.70	-0.750			
0.8132	52042.12	3.3210	3.3210	-0.3775	26.51	0.70	-0.750			
0.8143	52113.70	3.3180	3.3180	-0.3668	26.52	0.71	-0.750			
0.8154	52182.51	3.3150	3.3151	-0.3575	26.53	0.72	-0.750			
0.8164	52249.29	3.3120	3.3119	-0.3464	26.53	0.72	-0.750			
0.8174	52315.12	3.3090	3.3089	-0.3367	26.54	0.73	-0.750			
0.8184	52378.38	3.3060	3.3061	-0.3281	26.54	0.73	-0.750			
0.8194	52441.04	3.3030	3.3031	-0.3227	26.55	0.74	-0.750			
0.8204	52502.51	3.3000	3.2999	-0.3153	26.56	0.75	-0.750			
0.8213	52561.47	3.2970	3.2969	-0.3063	26.56	0.75	-0.750			
0.8222	52619.58	3.2940	3.2940	-0.2995	26.57	0.76	-0.750			
0.8231	52677.23	3.2910	3.2910	-0.2929	26.57	0.76	-0.750			
0.8239	52732.44	3.2880	3.2880	-0.2869	26.58	0.77	-0.750			
0.8248	52786.27	3.2850	3.2851	-0.2790	26.59	0.78	-0.750			
0.8256	52839.00	3.2820	3.2819	-0.2739	26.59	0.78	-0.750			
0.8264	52890.81	3.2790	3.2790	-0.2699	26.60	0.79	-0.750			
0.8272	52942.09	3.2760	3.2761	-0.2664	26.60	0.79	-0.750			
0.8280	52993.54	3.2730	3.2729	-0.2601	26.61	0.80	-0.750			
0.8288	53042.79	3.2700	3.2700	-0.2569	26.61	0.80	-0.750			
0.8296	53091.34	3.2670	3.2672	-0.2516	26.62	0.81	-0.750			
0.8303	53139.03	3.2640	3.2640	-0.2471	26.63	0.82	-0.750			
0.8310	53186.32	3.2610	3.2610	-0.2426	26.63	0.82	-0.750			
0.8318	53232.21	3.2580	3.2581	-0.2377	26.64	0.83	-0.750			
0.8325	53277.29	3.2550	3.2550	-0.2336	26.64	0.83	-0.750			
0.8332	53322.64	3.2520	3.2519	-0.2306	26.65	0.84	-0.750			
0.8338	53365.57	3.2490	3.2490	-0.2258	26.65	0.84	-0.750			
0.8345	53408.34	3.2460	3.2460	-0.2225	26.66	0.85	-0.750			
0.8352	53450.76	3.2430	3.2430	-0.2200	26.67	0.86	-0.750			
0.8358	53492.76	3.2400	3.2400	-0.2175	26.67	0.86	-0.750			
0.8365	53534.40	3.2370	3.2370	-0.2144	26.68	0.87	-0.750			
0.8371	53575.31	3.2340	3.2340	-0.2116	26.68	0.87	-0.750			
0.8377	53615.85	3.2310	3.2310	-0.2082	26.69	0.88	-0.750			
0.8384	53655.49	3.2280	3.2280	-0.2047	26.69	0.88	-0.750			
0.8390	53694.50	3.2250	3.2250	-0.2016	26.70	0.89	-0.750			
0.8396	53732.68	3.2220	3.2220	-0.1986	26.70	0.89	-0.750			
0.8402	53770.18	3.2190	3.2190	-0.1957	26.71	0.90	-0.750			
0.8407	53807.55	3.2160	3.2160	-0.1936	26.71	0.90	-0.750			
0.8413	53844.35	3.2130	3.2130	-0.1919	26.72	0.91	-0.750			
0.8419	53881.07	3.2100	3.2100	-0.1894	26.72	0.91	-0.750			
0.8425	53917.55	3.2070	3.2070	-0.1880	26.73	0.92	-0.750			
0.8430	53953.34	3.2040	3.2040	-0.1859	26.73	0.92	-0.750			
0.8436	53988.98	3.2010	3.2010	-0.1833	26.74	0.93	-0.750			
0.8441	54023.94	3.1980	3.1979	-0.1808	26.74	0.93	-0.750			
0.8447	54058.38	3.1950	3.1950	-0.1781	26.75	0.94	-0.750			
0.8452	54092.30	3.1920	3.1921	-0.1756	26.75	0.94	-0.750			
0.8457	54125.48	3.1890	3.1890	-0.1738	26.76	0.95	-0.750			
0.8462	54158.58	3.1860	3.1860	-0.1726	26.76	0.95	-0.750			
0.8467	54191.59	3.1830	3.1830	-0.1713	26.77	0.96	-0.750			
0.8473	54224.12	3.1800	3.1800	-0.1694	26.77	0.96	-0.750			
0.8478	54256.77	3.1770	3.1770	-0.1682	26.78	0.97	-0.750			
0.8483	54288.90	3.1740	3.1741	-0.1670	26.78	0.97	-0.750			
0.8488	54320.83	3.1710	3.1710	-0.1655	26.79	0.98	-0.750			
0.8493	54352.64	3.1680	3.1680	-0.1635	26.79	0.98	-0.750			
0.8497	54383.70	3.1650	3.1650	-0.1616	26.80	0.99	-0.750			
0.8502	54414.55	3.1620	3.1621	-0.1597	26.80	0.99	-0.750			
0.8507	54445.13	3.1590	3.1590	-0.1578	26.81	1.00	-0.750			
0.8512	54475.43	3.1560	3.1560	-0.1560	26.81	1.00	-0.750			
0.8516	54504.92	3.1530	3.1530	-0.1551	26.82	1.01	-0.750			
0.8521	54534.43	3.1500	3.1499	-0.1534	26.82	1.01	-0.750			
0.8526	54563.78	3.1470	3.1471	-0.1527	26.83	1.02	-0.750			
0.8530	54593.06	3.1440	3.1439	-0.1520	26.83	1.02	-0.750			
0.8535	54622.22	3.1410	3.1411	-0.1503	26.84	1.03	-0.750			
0.8539	54651.14	3.1380	3.1380	-0.1491	26.85	1.04	-0.750			
0.8544	54679.80	3.1350	3.1350	-0.1478	26.85	1.04	-0.750			
0.8548	54707.96	3.1320	3.1321	-0.1456	26.86	1.05	-0.750			
0.8552	54735.44	3.1290	3.1290	-0.1437	26.86	1.05	-0.750			
0.8557	54762.81	3.1260	3.1261	-0.1427	26.87	1.06	-0.750			
0.8561	54789.78	3.1230	3.1230	-0.1412	26.88	1.07	-0.750			
0.8565	54816.85	3.1200	3.1199	-0.1408	26.88	1.07	-0.750			
0.8569	54844.01	3.1170	3.1170	-0.1398	26.89	1.08	-0.750			
0.8574	54870.89	3.1140	3.1140	-0.1385	26.89	1.08	-0.750			
0.8578	54897.60	3.1110	3.1110	-0.1376	26.90	1.09	-0.750			
0.8582	54923.74	3.1080	3.1081	-0.1363	26.90	1.09	-0.750			
0.8586	54949.81	3.1050	3.1050	-0.1349	26.91	1.10	-0.750			
0.8590	54975.24	3.1020	3.1019	-0.1336	26.92	1.11	-0.750			
0.8594	55000.64	3.0990	3.0990	-0.1325	26.92	1.11	-0.750			
0.8598	55026.06	3.0960	3.0961	-0.1321	26.93	1.12	-0.750			
0.8602	55051.42	3.0930	3.0930	-0.1318	26.93	1.12	-0.750			
0.8606	55076.98	3.0900	3.0900	-0.1306	26.93	1.12	-0.750			
0.8610	55101.86	3.0870	3.0871	-0.1294	26.94	1.13	-0.750			
0.8614	55126.60	3.0840	3.0839	-0.1282	26.94	1.13	-0.750			
0.8617	55151.05	3.0810	3.0812	-0.1277	26.95	1.14	-0.750			
0.8621	55175.47	3.0780	3.0779	-0.1267	26.95	1.14	-0.750			
0.8625	55199.41	3.0750	3.0749	-0.1257	26.96	1.15	-0.750			
0.8629	55223.30	3.0720	3.0720	-0.1250	26.96	1.15	-0.750			
0.8632	55247.43	3.0690	3.0692	-0.1242	26.97	1.16	-0.750			
0.8636	55271.50	3.0660	3.0660	-0.1240	26.97	1.16	-0.750			
0.8640	55295.20	3.0630	3.0632	-0.1229	26.97	1.16	-0.750			
0.8644	55318.55	3.0600	3.0600	-0.1223	26.98	1.17	-0.750			
0.8647	55341.79	3.0570	3.0569	-0.1212	26.98	1.17	-0.750			
0.8651	55365.19	3.0540	3.0540	-0.1204	26.99	1.18	-0.750			
0.8654	55388.26	3.0510	3.0510	-0.1197	27.00	1.19	-0.750			
0.8658	55411.09	3.0480	3.0479	-0.1192	27.00	1.19	-0.750			
0.8662	55434.01	3.0450	3.0451	-0.1187	27.01	1.20	-0.750			
0.8665	55456.79	3.0420	3.0420	-0.1178	27.01	1.20	-0.750			
0.8669	55479.33	3.0390	3.0390	-0.1169	27.02	1.21	-0.750			
0.8672	55501.77	3.0360	3.0359	-0.1157	27.02	1.21	-0.750			
0.8676	55523.87	3.0330	3.0330	-0.1146	27.03	1.22	-0.750			
0.8679	55545.62	3.0300	3.0302	-0.1140	27.04	1.23	-0.750			
0.8682	55567.53	3.0270	3.0270	-0.1134	27.04	1.23	-0.750			
0.8686	55589.31	3.0240	3.0239	-0.1123	27.05	1.24	-0.750			
0.8689	55610.62	3.0210	3.0208	-0.1110	27.05	1.24	-0.750			
0.8692	55631.86	3.0180	3.0181	-0.1102	27.06	1.25	-0.750			
0.8696	55653.16	3.0150	3.0150	-0.1091	27.06	1.25	-0.750			
0.8699	55673.97	3.0120	3.0122	-0.1077	27.07	1.26	-0.750			
0.8702	55694.90	3.0090	3.0090	-0.1058	27.07	1.26	-0.750			
0.8705	55714.99	3.0060	3.0060	-0.1035	27.08	1.27	-0.751			
0.8709	55734.74	3.0030	3.0030	-0.1036	27.08	1.27	-0.751			
