Ah_balance (normalized)	Ah_balance (mAh)	Voltage - fit (V)	Voltage -  interpolate (V)	dQ/dV (1/V)	Temperature (°C)	Temperature - diff (°C)	Current (C)	R_DC 0ms (mOhm)	R_DC 50ms (mOhm)	R_DC 50 ms PEC (mOhm)
0.0005	34.24	4.1630	4.1630	-0.1561	25.75	0.03	-0.750			
0.0011	68.01	4.1600	4.1599	-0.1998	25.75	0.03	-0.750			
0.0017	110.90	4.1570	4.1570	-0.2447	25.75	0.03	-0.750			
0.0025	162.63	4.1540	4.1541	-0.2846	25.74	0.02	-0.750			
0.0035	221.43	4.1510	4.1509	-0.3236	25.74	0.02	-0.750			
0.0045	287.83	4.1480	4.1482	-0.3672	25.74	0.02	-0.750			
0.0057	362.03	4.1450	4.1448	-0.4046	25.73	0.01	-0.750			
0.0069	444.49	4.1420	4.1419	-0.4382	25.73	0.01	-0.750			
0.0083	533.40	4.1390	4.1390	-0.4682	25.72	0.00	-0.750			
0.0098	626.67	4.1360	4.1363	-0.5013	25.72	-0.00	-0.750			
0.0114	726.91	4.1330	4.1329	-0.5282	25.71	-0.01	-0.750			
0.0130	830.95	4.1300	4.1299	-0.5531	25.71	-0.01	-0.750			
0.0147	938.73	4.1270	4.1271	-0.5756	25.70	-0.02	-0.750			
0.0165	1053.39	4.1240	4.1240	-0.5998	25.70	-0.02	-0.750			
0.0183	1172.43	4.1210	4.1210	-0.6129	25.69	-0.03	-0.750			
0.0202	1293.03	4.1180	4.1179	-0.6273	25.69	-0.03	-0.750			
0.0221	1413.36	4.1150	4.1153	-0.6367	25.68	-0.04	-0.750			
0.0240	1536.92	4.1120	4.1119	-0.6500	25.68	-0.04	-0.750			
0.0260	1661.65	4.1090	4.1090	-0.6585	25.67	-0.05	-0.750			
0.0280	1789.47	4.1060	4.1060	-0.6644	25.67	-0.05	-0.750			
0.0300	1919.79	4.1030	4.1030	-0.6792	25.67	-0.05	-0.750			
0.0321	2051.71	4.1000	4.0999	-0.6817	25.66	-0.06	-0.750			
0.0341	2181.90	4.0970	4.0971	-0.6854	25.66	-0.06	-0.750			
0.0361	2312.50	4.0940	4.0940	-0.6914	25.66	-0.06	-0.750			
0.0382	2445.07	4.0910	4.0910	-0.6982	25.65	-0.07	-0.750			
0.0403	2581.22	4.0880	4.0879	-0.7106	25.65	-0.07	-0.750			
0.0425	2718.36	4.0850	4.0849	-0.7138	25.65	-0.07	-0.750			
0.0447	2858.61	4.0820	4.0821	-0.7158	25.64	-0.08	-0.750			
0.0468	2997.63	4.0790	4.0793	-0.7167	25.64	-0.08	-0.750			
0.0490	3134.04	4.0760	4.0759	-0.7195	25.64	-0.08	-0.750			
0.0511	3272.06	4.0730	4.0729	-0.7205	25.64	-0.08	-0.750			
0.0532	3407.88	4.0700	4.0700	-0.7254	25.64	-0.08	-0.750			
0.0554	3547.97	4.0670	4.0671	-0.7295	25.64	-0.08	-0.750			
0.0577	3691.73	4.0640	4.0640	-0.7376	25.64	-0.08	-0.750			
0.0599	3833.79	4.0610	4.0612	-0.7384	25.64	-0.08	-0.750			
0.0621	3975.71	4.0580	4.0579	-0.7399	25.64	-0.08	-0.750			
0.0643	4116.28	4.0550	4.0551	-0.7444	25.64	-0.08	-0.750			
0.0666	4259.92	4.0520	4.0519	-0.7465	25.63	-0.09	-0.750			
0.0688	4405.08	4.0490	4.0490	-0.7494	25.63	-0.09	-0.750			
0.0711	4548.84	4.0460	4.0459	-0.7519	25.63	-0.09	-0.750			
0.0733	4693.59	4.0430	4.0431	-0.7540	25.63	-0.09	-0.750			
0.0756	4839.22	4.0400	4.0399	-0.7505	25.63	-0.09	-0.750			
0.0778	4981.26	4.0370	4.0370	-0.7525	25.63	-0.09	-0.750			
0.0801	5125.61	4.0340	4.0341	-0.7480	25.63	-0.09	-0.750			
0.0824	5271.02	4.0310	4.0310	-0.7527	25.63	-0.09	-0.750			
0.0846	5416.72	4.0280	4.0281	-0.7536	25.63	-0.09	-0.750			
0.0869	5560.29	4.0250	4.0250	-0.7525	25.63	-0.09	-0.750			
0.0891	5704.01	4.0220	4.0220	-0.7609	25.63	-0.09	-0.750			
0.0914	5851.18	4.0190	4.0190	-0.7651	25.64	-0.08	-0.750			
0.0937	5997.70	4.0160	4.0158	-0.7675	25.64	-0.08	-0.750			
0.0960	6146.97	4.0130	4.0130	-0.7738	25.64	-0.08	-0.750			
0.0984	6297.70	4.0100	4.0099	-0.7704	25.64	-0.08	-0.750			
0.1007	6444.00	4.0070	4.0070	-0.7715	25.64	-0.08	-0.750			
0.1030	6592.86	4.0040	4.0041	-0.7739	25.64	-0.08	-0.750			
0.1053	6737.42	4.0010	4.0010	-0.7710	25.64	-0.08	-0.750			
0.1076	6887.61	3.9980	3.9978	-0.7784	25.64	-0.08	-0.750			
0.1100	7036.89	3.9950	3.9952	-0.7834	25.64	-0.08	-0.750			
0.1123	7188.55	3.9920	3.9920	-0.7900	25.64	-0.08	-0.750			
0.1147	7342.85	3.9890	3.9890	-0.7959	25.64	-0.08	-0.750			
0.1171	7496.86	3.9860	3.9860	-0.7887	25.65	-0.07	-0.750			
0.1195	7647.66	3.9830	3.9830	-0.7884	25.65	-0.07	-0.750			
0.1219	7798.83	3.9800	3.9803	-0.7864	25.65	-0.07	-0.750			
0.1242	7948.69	3.9770	3.9768	-0.7851	25.65	-0.07	-0.750			
0.1265	8097.74	3.9740	3.9740	-0.7869	25.65	-0.07	-0.750			
0.1289	8247.21	3.9710	3.9711	-0.7907	25.66	-0.06	-0.750			
0.1313	8402.26	3.9680	3.9680	-0.8022	25.66	-0.06	-0.750			
0.1337	8556.55	3.9650	3.9648	-0.8054	25.66	-0.06	-0.750			
0.1361	8710.74	3.9620	3.9620	-0.8075	25.66	-0.06	-0.750			
0.1385	8865.44	3.9590	3.9590	-0.8160	25.66	-0.06	-0.750			
0.1410	9024.72	3.9560	3.9559	-0.8095	25.66	-0.06	-0.750			
0.1434	9179.62	3.9530	3.9531	-0.8111	25.66	-0.06	-0.750			
0.1459	9334.85	3.9500	3.9500	-0.8142	25.66	-0.06	-0.750			
0.1483	9491.13	3.9470	3.9468	-0.8174	25.66	-0.06	-0.750			
0.1507	9646.15	3.9440	3.9440	-0.8203	25.67	-0.05	-0.750			
0.1532	9805.97	3.9410	3.9409	-0.8175	25.67	-0.05	-0.750			
0.1557	9963.77	3.9380	3.9381	-0.8200	25.67	-0.05	-0.750			
0.1582	10124.71	3.9350	3.9350	-0.8212	25.68	-0.04	-0.750			
0.1606	10279.56	3.9320	3.9319	-0.8148	25.68	-0.04	-0.750			
0.1630	10434.19	3.9290	3.9290	-0.8257	25.68	-0.04	-0.750			
0.1655	10591.68	3.9260	3.9260	-0.8264	25.68	-0.04	-0.750			
0.1680	10751.86	3.9230	3.9228	-0.8297	25.69	-0.03	-0.750			
0.1705	10914.42	3.9200	3.9200	-0.8351	25.69	-0.03	-0.750			
0.1731	11075.39	3.9170	3.9170	-0.8313	25.69	-0.03	-0.750			
0.1755	11233.88	3.9140	3.9140	-0.8391	25.69	-0.03	-0.750			
0.1780	11393.22	3.9110	3.9110	-0.8344	25.69	-0.03	-0.750			
0.1805	11552.48	3.9080	3.9080	-0.8326	25.69	-0.03	-0.750			
0.1831	11715.84	3.9050	3.9049	-0.8382	25.69	-0.03	-0.750			
0.1856	11877.11	3.9020	3.9019	-0.8436	25.69	-0.03	-0.750			
0.1881	12038.59	3.8990	3.8991	-0.8519	25.69	-0.03	-0.750			
0.1907	12202.99	3.8960	3.8960	-0.8554	25.69	-0.03	-0.750			
0.1932	12366.15	3.8930	3.8928	-0.8525	25.70	-0.02	-0.750			
0.1958	12533.73	3.8900	3.8900	-0.8590	25.70	-0.02	-0.750			
0.1984	12699.29	3.8870	3.8869	-0.8596	25.70	-0.02	-0.750			
0.2010	12863.93	3.8840	3.8839	-0.8597	25.70	-0.02	-0.750			
0.2036	13027.61	3.8810	3.8809	-0.8528	25.71	-0.01	-0.750			
0.2061	13190.03	3.8780	3.8780	-0.8515	25.71	-0.01	-0.750			
0.2087	13357.34	3.8750	3.8750	-0.8584	25.71	-0.01	-0.750			
0.2113	13521.69	3.8720	3.8718	-0.8585	25.71	-0.01	-0.750			
0.2138	13685.42	3.8690	3.8690	-0.8599	25.72	-0.00	-0.750			
0.2164	13850.07	3.8660	3.8660	-0.8572	25.72	0.00	-0.750			
0.2189	14012.17	3.8630	3.8630	-0.8635	25.73	0.01	-0.750			
0.2216	14179.57	3.8600	3.8600	-0.8758	25.73	0.01	-0.750			
0.2242	14347.53	3.8570	3.8570	-0.8844	25.73	0.01	-0.750			
0.2269	14520.59	3.8540	3.8538	-0.8914	25.73	0.01	-0.750			
0.2296	14693.43	3.8510	3.8511	-0.8918	25.74	0.02	-0.750			
0.2323	14866.38	3.8480	3.8480	-0.8895	25.74	0.02	-0.750			
0.2350	15039.81	3.8450	3.8450	-0.8871	25.74	0.02	-0.750			
0.2376	15207.64	3.8420	3.8420	-0.8728	25.74	0.02	-0.750			
0.2402	15371.81	3.8390	3.8390	-0.8704	25.75	0.03	-0.750			
0.2428	15538.71	3.8360	3.8358	-0.8693	25.75	0.03	-0.750			
0.2454	15706.26	3.8330	3.8330	-0.8704	25.76	0.04	-0.750			
0.2480	15872.87	3.8300	3.8301	-0.8664	25.76	0.04	-0.750			
0.2506	16039.67	3.8270	3.8270	-0.8705	25.77	0.05	-0.750			
0.2532	16206.81	3.8240	3.8240	-0.8701	25.77	0.05	-0.750			
0.2558	16371.98	3.8210	3.8210	-0.8596	25.77	0.05	-0.750			
0.2584	16538.05	3.8180	3.8179	-0.8637	25.78	0.06	-0.750			
0.2610	16703.97	3.8150	3.8151	-0.8613	25.78	0.06	-0.750			
0.2636	16868.03	3.8120	3.8120	-0.8678	25.78	0.06	-0.750			
0.2662	17034.19	3.8090	3.8088	-0.8692	25.79	0.07	-0.750			
0.2688	17201.36	3.8060	3.8060	-0.8702	25.79	0.07	-0.750			
0.2714	17370.60	3.8030	3.8031	-0.8731	25.79	0.07	-0.750			
0.2741	17541.70	3.8000	3.8000	-0.8757	25.79	0.07	-0.750			
0.2767	17708.63	3.7970	3.7970	-0.8750	25.80	0.08	-0.750			
0.2793	17875.65	3.7940	3.7939	-0.8711	25.81	0.09	-0.750			
0.2819	18041.38	3.7910	3.7910	-0.8657	25.81	0.09	-0.750			
0.2845	18208.92	3.7880	3.7883	-0.8634	25.82	0.10	-0.750			
0.2871	18373.90	3.7850	3.7849	-0.8600	25.82	0.10	-0.750			
0.2897	18539.67	3.7820	3.7821	-0.8598	25.82	0.10	-0.750			
0.2922	18703.48	3.7790	3.7790	-0.8551	25.83	0.11	-0.750			
0.2948	18867.55	3.7760	3.7759	-0.8547	25.83	0.11	-0.750			
0.2974	19032.25	3.7730	3.7731	-0.8485	25.83	0.11	-0.750			
0.2999	19194.18	3.7700	3.7699	-0.8453	25.84	0.12	-0.750			
0.3024	19355.49	3.7670	3.7671	-0.8511	25.84	0.12	-0.750			
0.3050	19517.53	3.7640	3.7640	-0.8506	25.85	0.13	-0.750			
0.3075	19682.65	3.7610	3.7608	-0.8562	25.86	0.14	-0.750			
0.3101	19848.01	3.7580	3.7582	-0.8532	25.86	0.14	-0.750			
0.3127	20013.34	3.7550	3.7550	-0.8495	25.86	0.14	-0.750			
0.3153	20176.94	3.7520	3.7520	-0.8535	25.86	0.14	-0.750			
0.3178	20338.35	3.7490	3.7490	-0.8473	25.87	0.15	-0.750			
0.3203	20500.67	3.7460	3.7459	-0.8490	25.87	0.15	-0.750			
0.3229	20662.98	3.7430	3.7431	-0.8541	25.87	0.15	-0.750			
0.3254	20826.54	3.7400	3.7400	-0.8609	25.88	0.16	-0.750			
0.3280	20993.42	3.7370	3.7369	-0.8668	25.88	0.16	-0.750			
0.3306	21158.77	3.7340	3.7340	-0.8694	25.88	0.16	-0.750			
0.3333	21328.76	3.7310	3.7310	-0.8842	25.89	0.17	-0.750			
0.3359	21499.07	3.7280	3.7281	-0.8937	25.89	0.17	-0.750			
0.3386	21671.40	3.7250	3.7249	-0.9038	25.89	0.17	-0.750			
0.3413	21844.89	3.7220	3.7220	-0.9100	25.89	0.17	-0.750			
0.3441	22021.16	3.7190	3.7190	-0.9205	25.89	0.17	-0.750			
0.3469	22199.21	3.7160	3.7161	-0.9334	25.89	0.17	-0.750			
0.3497	22378.23	3.7130	3.7130	-0.9486	25.89	0.17	-0.750			
0.3525	22561.98	3.7100	3.7100	-0.9622	25.90	0.18	-0.750			
0.3554	22747.69	3.7070	3.7070	-0.9763	25.90	0.18	-0.750			
0.3584	22936.84	3.7040	3.7039	-0.9941	25.91	0.19	-0.750			
0.3614	23130.60	3.7010	3.7010	-1.0147	25.91	0.19	-0.750			
0.3645	23326.35	3.6980	3.6980	-1.0323	25.91	0.19	-0.750			
0.3676	23525.32	3.6950	3.6949	-1.0502	25.91	0.19	-0.750			
0.3707	23727.43	3.6920	3.6920	-1.0688	25.91	0.19	-0.750			
0.3740	23936.48	3.6890	3.6889	-1.0998	25.91	0.19	-0.750			
0.3773	24150.38	3.6860	3.6860	-1.1186	25.91	0.19	-0.750			
0.3807	24367.85	3.6830	3.6830	-1.1383	25.90	0.18	-0.750			
0.3842	24587.81	3.6800	3.6802	-1.1584	25.90	0.18	-0.750			
0.3877	24813.06	3.6770	3.6770	-1.1907	25.90	0.18	-0.750			
0.3913	25045.62	3.6740	3.6739	-1.2116	25.89	0.17	-0.750			
0.3950	25278.67	3.6710	3.6709	-1.2358	25.89	0.17	-0.750			
0.3987	25518.09	3.6680	3.6681	-1.2610	25.89	0.17	-0.750			
0.4026	25765.69	3.6650	3.6650	-1.2908	25.89	0.17	-0.750			
0.4065	26014.38	3.6620	3.6620	-1.3170	25.89	0.17	-0.750			
0.4104	26265.38	3.6590	3.6592	-1.3461	25.89	0.17	-0.750			
0.4145	26529.79	3.6560	3.6560	-1.3893	25.88	0.16	-0.750			
0.4188	26801.08	3.6530	3.6530	-1.4255	25.88	0.16	-0.750			
0.4231	27078.70	3.6500	3.6501	-1.4508	25.87	0.15	-0.750			
0.4275	27359.54	3.6470	3.6469	-1.4946	25.87	0.15	-0.750			
0.4321	27651.55	3.6440	3.6440	-1.5273	25.87	0.15	-0.750			
0.4367	27947.64	3.6410	3.6410	-1.5613	25.87	0.15	-0.750			
0.4414	28250.96	3.6380	3.6379	-1.6071	25.86	0.14	-0.750			
0.4463	28562.24	3.6350	3.6349	-1.6437	25.85	0.13	-0.750			
0.4513	28884.54	3.6320	3.6320	-1.6827	25.84	0.12	-0.750			
0.4565	29213.20	3.6290	3.6289	-1.7118	25.83	0.11	-0.750			
0.4616	29542.09	3.6260	3.6260	-1.7363	25.82	0.10	-0.750	0.404	0.494	
0.4669	29878.85	3.6230	3.6230	-1.7668	25.82	0.10	-0.750			
0.4722	30221.65	3.6200	3.6200	-1.7890	25.82	0.10	-0.750			
0.4776	30567.82	3.6170	3.6170	-1.8137	25.82	0.10	-0.750			
0.4831	30919.21	3.6140	3.6140	-1.8522	25.81	0.09	-0.750			
0.4887	31276.08	3.6110	3.6111	-1.8874	25.80	0.08	-0.750			
0.4944	31640.82	3.6080	3.6080	-1.9252	25.79	0.07	-0.750			
0.5002	32015.72	3.6050	3.6050	-1.9521	25.79	0.07	-0.750			
0.5062	32394.62	3.6020	3.6019	-1.9964	25.79	0.07	-0.750			
0.5122	32781.20	3.5990	3.5989	-2.0371	25.79	0.07	-0.750			
0.5184	33174.45	3.5960	3.5961	-2.0761	25.78	0.06	-0.750			
0.5246	33574.29	3.5930	3.5931	-2.1118	25.77	0.05	-0.750			
0.5310	33986.28	3.5900	3.5898	-2.1346	25.77	0.05	-0.750			
0.5375	34398.68	3.5870	3.5869	-2.1675	25.77	0.05	-0.750			
0.5441	34820.40	3.5840	3.5839	-2.2153	25.77	0.05	-0.750			
0.5507	35247.90	3.5810	3.5809	-2.2465	25.77	0.05	-0.750			
0.5575	35680.19	3.5780	3.5780	-2.2693	25.77	0.05	-0.750			
0.5644	36122.07	3.5750	3.5751	-2.2907	25.77	0.05	-0.750			
0.5714	36568.04	3.5720	3.5721	-2.3225	25.77	0.05	-0.750			
0.5785	37021.21	3.5690	3.5689	-2.3441	25.77	0.05	-0.750			
0.5855	37471.67	3.5660	3.5659	-2.3364	25.77	0.05	-0.750			
0.5925	37917.64	3.5630	3.5632	-2.3451	25.77	0.05	-0.750			
0.5996	38372.02	3.5600	3.5599	-2.3580	25.77	0.05	-0.750			
0.6066	38822.45	3.5570	3.5568	-2.3580	25.77	0.05	-0.750			
0.6137	39276.06	3.5540	3.5540	-2.3616	25.77	0.05	-0.750			
0.6208	39732.45	3.5510	3.5511	-2.3661	25.78	0.06	-0.750			
0.6279	40187.17	3.5480	3.5480	-2.3526	25.78	0.06	-0.750			
0.6350	40637.90	3.5450	3.5451	-2.3389	25.79	0.07	-0.750			
0.6420	41089.48	3.5420	3.5420	-2.3084	25.79	0.07	-0.750			
0.6489	41532.71	3.5390	3.5389	-2.2860	25.79	0.07	-0.750			
0.6557	41967.44	3.5360	3.5360	-2.2364	25.80	0.08	-0.750			
0.6624	42393.59	3.5330	3.5329	-2.1950	25.80	0.08	-0.750			
0.6689	42811.90	3.5300	3.5301	-2.1316	25.81	0.09	-0.750			
0.6752	43215.22	3.5270	3.5269	-2.0704	25.81	0.09	-0.750			
0.6814	43606.55	3.5240	3.5239	-2.0136	25.82	0.10	-0.750			
0.6873	43987.85	3.5210	3.5208	-1.9600	25.83	0.11	-0.750			
0.6931	44358.04	3.5180	3.5181	-1.9097	25.84	0.12	-0.750			
0.6988	44722.33	3.5150	3.5149	-1.8386	25.85	0.13	-0.750			
0.7042	45067.65	3.5120	3.5121	-1.7827	25.87	0.15	-0.750			
0.7095	45406.95	3.5090	3.5091	-1.7225	25.88	0.16	-0.750			
0.7146	45733.39	3.5060	3.5060	-1.6552	25.90	0.18	-0.750			
0.7195	46045.25	3.5030	3.5029	-1.5977	25.91	0.19	-0.750			
0.7241	46342.54	3.5000	3.5001	-1.5314	25.93	0.21	-0.750			
0.7286	46630.59	3.4970	3.4970	-1.4777	25.94	0.22	-0.750			
0.7330	46909.05	3.4940	3.4939	-1.4366	25.96	0.24	-0.750			
0.7371	47175.38	3.4910	3.4910	-1.3812	25.97	0.25	-0.750			
0.7412	47439.24	3.4880	3.4879	-1.3448	25.99	0.27	-0.750			
0.7452	47694.37	3.4850	3.4849	-1.3090	26.00	0.28	-0.750			
0.7491	47940.09	3.4820	3.4821	-1.2636	26.02	0.30	-0.750			
0.7528	48182.39	3.4790	3.4789	-1.2283	26.03	0.31	-0.750			
0.7565	48413.36	3.4760	3.4760	-1.1833	26.04	0.32	-0.750			
0.7599	48632.61	3.4730	3.4731	-1.1382	26.05	0.33	-0.750			
0.7633	48849.91	3.4700	3.4700	-1.1023	26.07	0.35	-0.750			
0.7665	49058.02	3.4670	3.4670	-1.0619	26.08	0.36	-0.750			
0.7696	49256.38	3.4640	3.4640	-1.0239	26.09	0.37	-0.750			
0.7726	49449.06	3.4610	3.4611	-0.9934	26.10	0.38	-0.750			
0.7755	49634.80	3.4580	3.4579	-0.9687	26.11	0.39	-0.750			
0.7784	49815.58	3.4550	3.4550	-0.9475	26.13	0.41	-0.750			
0.7812	49994.56	3.4520	3.4520	-0.9369	26.14	0.42	-0.750			
0.7840	50173.11	3.4490	3.4490	-0.9329	26.15	0.43	-0.750			
0.7867	50349.45	3.4460	3.4460	-0.9441	26.16	0.44	-0.750			
0.7895	50527.19	3.4430	3.4430	-0.9572	26.16	0.44	-0.750			
0.7924	50711.36	3.4400	3.4399	-0.9839	26.17	0.45	-0.750			
0.7953	50900.76	3.4370	3.4370	-1.0170	26.18	0.46	-0.750			
0.7984	51099.82	3.4340	3.4340	-1.0570	26.18	0.46	-0.750			
0.8017	51307.95	3.4310	3.4309	-1.0961	26.19	0.47	-0.750			
0.8051	51525.98	3.4280	3.4280	-1.1249	26.20	0.48	-0.750			
0.8086	51747.77	3.4250	3.4250	-1.1370	26.21	0.49	-0.750			
0.8121	51971.48	3.4220	3.4219	-1.1411	26.22	0.50	-0.750			
0.8156	52196.20	3.4190	3.4190	-1.1274	26.23	0.51	-0.750			
0.8189	52411.13	3.4160	3.4160	-1.1001	26.24	0.52	-0.750			
0.8222	52619.74	3.4130	3.4132	-1.0652	26.25	0.53	-0.750			
0.8253	52820.98	3.4100	3.4100	-1.0354	26.26	0.54	-0.750			
0.8284	53015.99	3.4070	3.4070	-1.0041	26.26	0.54	-0.750			
0.8314	53207.75	3.4040	3.4040	-0.9714	26.27	0.55	-0.750			
0.8343	53392.15	3.4010	3.4011	-0.9391	26.27	0.55	-0.750			
0.8370	53568.44	3.3980	3.3980	-0.9020	26.28	0.56	-0.750			
0.8397	53737.93	3.3950	3.3951	-0.8690	26.29	0.57	-0.750			
0.8422	53902.00	3.3920	3.3919	-0.8335	26.29	0.57	-0.750			
0.8446	54057.39	3.3890	3.3890	-0.7953	26.30	0.58	-0.750			
0.8470	54207.69	3.3860	3.3862	-0.7640	26.31	0.59	-0.750			
0.8492	54350.89	3.3830	3.3830	-0.7334	26.32	0.60	-0.750			
0.8514	54487.94	3.3800	3.3799	-0.7053	26.32	0.60	-0.750			
0.8534	54619.60	3.3770	3.3770	-0.6816	26.33	0.61	-0.750			
0.8554	54747.20	3.3740	3.3739	-0.6579	26.34	0.62	-0.750			
0.8574	54872.45	3.3710	3.3710	-0.6338	26.34	0.62	-0.750			
0.8593	54993.10	3.3680	3.3681	-0.6106	26.35	0.63	-0.750			
0.8611	55107.42	3.3650	3.3650	-0.5853	26.36	0.64	-0.750			
0.8628	55216.63	3.3620	3.3620	-0.5579	26.36	0.64	-0.750			
0.8644	55320.32	3.3590	3.3590	-0.5345	26.37	0.65	-0.750			
0.8659	55420.66	3.3560	3.3560	-0.5123	26.37	0.65	-0.750			
0.8675	55517.35	3.3530	3.3530	-0.4931	26.38	0.66	-0.750			
0.8689	55610.19	3.3500	3.3500	-0.4729	26.38	0.66	-0.750			
0.8703	55698.81	3.3470	3.3470	-0.4545	26.38	0.66	-0.750			
0.8716	55784.46	3.3440	3.3439	-0.4352	26.39	0.67	-0.750			
0.8729	55865.60	3.3410	3.3409	-0.4182	26.40	0.68	-0.750			
0.8741	55943.91	3.3380	3.3381	-0.4011	26.40	0.68	-0.750			
0.8753	56019.30	3.3350	3.3349	-0.3858	26.41	0.69	-0.750			
0.8764	56091.57	3.3320	3.3319	-0.3685	26.41	0.69	-0.750			
0.8775	56160.88	3.3290	3.3291	-0.3543	26.42	0.70	-0.750			
0.8785	56226.95	3.3260	3.3261	-0.3400	26.43	0.71	-0.750			
0.8796	56291.34	3.3230	3.3229	-0.3281	26.43	0.71	-0.750			
0.8805	56352.49	3.3200	3.3199	-0.3147	26.44	0.72	-0.750			
0.8814	56411.15	3.3170	3.3170	-0.3032	26.44	0.72	-0.750			
0.8823	56468.32	3.3140	3.3141	-0.2925	26.45	0.73	-0.750			
0.8832	56524.15	3.3110	3.3109	-0.2834	26.45	0.73	-0.750			
0.8840	56576.72	3.3080	3.3080	-0.2733	26.46	0.74	-0.750			
0.8848	56628.02	3.3050	3.3050	-0.2635	26.46	0.74	-0.750			
0.8856	56677.78	3.3020	3.3020	-0.2553	26.47	0.75	-0.750			
0.8863	56726.22	3.2990	3.2989	-0.2481	26.47	0.75	-0.750			
0.8871	56772.74	3.2960	3.2962	-0.2399	26.48	0.76	-0.750			
0.8878	56817.75	3.2930	3.2930	-0.2328	26.48	0.76	-0.750			
0.8885	56861.96	3.2900	3.2900	-0.2262	26.49	0.77	-0.750			
0.8891	56904.56	3.2870	3.2870	-0.2195	26.49	0.77	-0.750			
0.8898	56945.55	3.2840	3.2839	-0.2130	26.49	0.77	-0.750			
0.8904	56985.80	3.2810	3.2811	-0.2086	26.50	0.78	-0.750			
0.8910	57025.38	3.2780	3.2780	-0.2038	26.50	0.78	-0.750			
0.8916	57063.73	3.2750	3.2750	-0.1990	26.51	0.79	-0.750			
0.8922	57101.75	3.2720	3.2719	-0.1942	26.51	0.79	-0.750			
0.8928	57138.44	3.2690	3.2690	-0.1898	26.51	0.79	-0.750			
0.8934	57174.46	3.2660	3.2661	-0.1855	26.52	0.80	-0.750			
0.8939	57209.86	3.2630	3.2630	-0.1812	26.52	0.80	-0.750			
0.8944	57243.92	3.2600	3.2599	-0.1770	26.52	0.80	-0.750			
0.8950	57277.21	3.2570	3.2570	-0.1724	26.53	0.81	-0.750			
0.8955	57309.85	3.2540	3.2540	-0.1701	26.53	0.81	-0.750			
0.8960	57341.98	3.2510	3.2510	-0.1675	26.53	0.81	-0.750			
0.8965	57373.93	3.2480	3.2480	-0.1655	26.54	0.82	-0.750			
0.8970	57405.52	3.2450	3.2449	-0.1636	26.54	0.82	-0.750			
0.8974	57436.72	3.2420	3.2420	-0.1606	26.54	0.82	-0.750			
0.8979	57467.81	3.2390	3.2389	-0.1582	26.55	0.83	-0.750			
0.8984	57498.15	3.2360	3.2361	-0.1554	26.55	0.83	-0.750			
0.8989	57527.38	3.2330	3.2331	-0.1530	26.56	0.84	-0.750			
0.8993	57556.25	3.2300	3.2300	-0.1502	26.56	0.84	-0.750			
0.8998	57584.58	3.2270	3.2270	-0.1478	26.56	0.84	-0.750			
0.9002	57612.79	3.2240	3.2239	-0.1461	26.57	0.85	-0.750			
0.9006	57640.50	3.2210	3.2211	-0.1443	26.57	0.85	-0.750			
0.9011	57668.30	3.2180	3.2179	-0.1427	26.58	0.86	-0.750			
0.9015	57695.66	3.2150	3.2151	-0.1411	26.58	0.86	-0.750			
0.9019	57722.54	3.2120	3.2120	-0.1389	26.58	0.86	-0.750			
0.9023	57748.76	3.2090	3.2090	-0.1371	26.59	0.87	-0.750			
0.9027	57774.96	3.2060	3.2060	-0.1357	26.59	0.87	-0.750			
0.9031	57800.76	3.2030	3.2030	-0.1338	26.59	0.87	-0.750			
0.9035	57826.33	3.2000	3.1999	-0.1325	26.60	0.88	-0.750			
0.9039	57851.53	3.1970	3.1970	-0.1315	26.60	0.88	-0.750			
0.9043	57876.80	3.1940	3.1940	-0.1303	26.61	0.89	-0.750			
0.9047	57901.72	3.1910	3.1910	-0.1290	26.61	0.89	-0.750			
0.9051	57926.41	3.1880	3.1879	-0.1274	26.61	0.89	-0.750			
0.9055	57950.73	3.1850	3.1851	-0.1258	26.62	0.90	-0.750			
0.9059	57974.69	3.1820	3.1820	-0.1247	26.62	0.90	-0.750			
0.9062	57998.53	3.1790	3.1790	-0.1233	26.62	0.90	-0.750			
0.9066	58022.01	3.1760	3.1760	-0.1220	26.63	0.91	-0.750			
0.9070	58045.08	3.1730	3.1730	-0.1204	26.63	0.91	-0.750			
0.9073	58068.14	3.1700	3.1701	-0.1195	26.63	0.91	-0.750			
0.9077	58091.03	3.1670	3.1670	-0.1186	26.63	0.91	-0.750			
0.9080	58113.69	3.1640	3.1639	-0.1177	26.64	0.92	-0.750			
0.9084	58136.30	3.1610	3.1611	-0.1168	26.64	0.92	-0.750			
0.9087	58158.54	3.1580	3.1579	-0.1155	26.64	0.92	-0.750			
0.9091	58180.61	3.1550	3.1550	-0.1146	26.64	0.92	-0.750			
0.9094	58202.57	3.1520	3.1520	-0.1138	26.64	0.92	-0.750			
0.9098	58224.27	3.1490	3.1490	-0.1130	26.64	0.92	-0.750			
0.9101	58245.83	3.1460	3.1460	-0.1121	26.65	0.93	-0.750			
0.9104	58267.35	3.1430	3.1430	-0.1113	26.65	0.93	-0.750			
0.9108	58288.59	3.1400	3.1400	-0.1104	26.66	0.94	-0.750			
0.9111	58309.76	3.1370	3.1370	-0.1095	26.66	0.94	-0.750			
0.9114	58330.82	3.1340	3.1340	-0.1089	26.67	0.95	-0.750			
0.9117	58351.52	3.1310	3.1311	-0.1082	26.67	0.95	-0.750			
0.9121	58372.14	3.1280	3.1280	-0.1073	26.68	0.96	-0.750			
0.9124	58392.64	3.1250	3.1250	-0.1067	26.68	0.96	-0.750			
0.9127	58412.95	3.1220	3.1220	-0.1060	26.69	0.97	-0.750			
0.9130	58433.40	3.1190	3.1190	-0.1052	26.69	0.97	-0.750			
0.9133	58453.63	3.1160	3.1160	-0.1047	26.70	0.98	-0.750			
0.9136	58473.53	3.1130	3.1131	-0.1042	26.70	0.98	-0.750			
0.9140	58493.51	3.1100	3.1100	-0.1037	26.71	0.99	-0.750			
0.9143	58513.46	3.1070	3.1071	-0.1028	26.71	0.99	-0.750			
0.9146	58533.10	3.1040	3.1039	-0.1019	26.72	1.00	-0.750			
0.9149	58552.59	3.1010	3.1009	-0.1011	26.72	1.00	-0.750			
0.9152	58571.90	3.0980	3.0980	-0.1005	26.73	1.01	-0.750			
0.9155	58591.13	3.0950	3.0952	-0.0998	26.73	1.01	-0.750			
0.9158	58610.23	3.0920	3.0918	-0.0994	26.73	1.01	-0.750			
0.9161	58629.26	3.0890	3.0890	-0.0987	26.74	1.02	-0.750			
0.9164	58647.94	3.0860	3.0861	-0.0978	26.74	1.02	-0.750			
0.9167	58666.69	3.0830	3.0830	-0.0976	26.75	1.03	-0.750			
0.9170	58685.56	3.0800	3.0801	-0.0973	26.75	1.03	-0.750			
0.9173	58704.19	3.0770	3.0770	-0.0967	26.76	1.04	-0.750			
0.9175	58722.75	3.0740	3.0739	-0.0960	26.76	1.04	-0.750			
0.9178	58741.10	3.0710	3.0710	-0.0952	26.76	1.04	-0.750			
0.9181	58759.25	3.0680	3.0681	-0.0946	26.77	1.05	-0.750			
0.9184	58777.36	3.0650	3.0650	-0.0941	26.77	1.05	-0.750			
0.9187	58795.27	3.0620	3.0620	-0.0937	26.77	1.05	-0.750			
0.9190	58813.23	3.0590	3.0590	-0.0934	26.78	1.06	-0.750			
0.9192	58831.12	3.0560	3.0559	-0.0929	26.78	1.06	-0.750			
0.9195	58848.92	3.0530	3.0530	-0.0926	26.79	1.07	-0.750			
0.9198	58866.83	3.0500	3.0501	-0.0922	26.79	1.07	-0.750			
0.9201	58884.48	3.0470	3.0470	-0.0916	26.79	1.07	-0.750			
0.9203	58901.99	3.0440	3.0440	-0.0911	26.80	1.08	-0.750			
0.9206	58919.42	3.0410	3.0410	-0.0905	26.80	1.08	-0.750			
0.9209	58936.61	3.0380	3.0380	-0.0899	26.80	1.08	-0.750			
0.9212	58953.83	3.0350	3.0350	-0.0895	26.81	1.09	-0.750			
0.9214	58971.06	3.0320	3.0319	-0.0889	26.81	1.09	-0.750			
0.9217	58988.08	3.0290	3.0291	-0.0883	26.82	1.10	-0.750			
0.9220	59005.02	3.0260	3.0260	-0.0879	26.82	1.10	-0.750			
0.9222	59021.84	3.0230	3.0230	-0.0873	26.82	1.10	-0.750			
0.9225	59038.59	3.0200	3.0198	-0.0866	26.83	1.11	-0.750			
0.9227	59055.14	3.0170	3.0170	-0.0858	26.83	1.11	-0.750			
0.9230	59071.52	3.0140	3.0141	-0.0851	26.83	1.11	-0.750			
0.9232	59087.78	3.0110	3.0110	-0.0844	26.84	1.12	-0.750			
0.9235	59103.92	3.0080	3.0080	-0.0837	26.84	1.12	-0.751			
0.9237	59119.90	3.0050	3.0050	-0.0819	26.84	1.12	-0.751			
