Ah_balance (normalized)	Ah_balance (mAh)	Voltage - fit (V)	Voltage -  interpolate (V)	dQ/dV (1/V)	Temperature (°C)	Temperature - diff (°C)	Current (C)	R_DC 0ms (mOhm)	R_DC 50ms (mOhm)	R_DC 50 ms PEC (mOhm)
0.0556	3560.55	4.1970	4.1970	0.7602	26.76	0.82	0.750			
0.0579	3704.45	4.1940	4.1940	0.7490	26.76	0.82	0.750			
0.0601	3846.80	4.1910	4.1910	0.7488	26.76	0.82	0.750			
0.0624	3991.32	4.1880	4.1879	0.7515	26.76	0.82	0.750			
0.0646	4135.38	4.1850	4.1850	0.7557	26.76	0.82	0.750			
0.0669	4281.26	4.1820	4.1819	0.7567	26.76	0.82	0.750			
0.0692	4427.22	4.1790	4.1790	0.7596	26.76	0.82	0.750			
0.0715	4573.91	4.1760	4.1759	0.7649	26.76	0.82	0.750			
0.0738	4720.66	4.1730	4.1731	0.7622	26.76	0.82	0.750			
0.0760	4865.94	4.1700	4.1699	0.7624	26.76	0.82	0.750			
0.0783	5013.69	4.1670	4.1670	0.7614	26.76	0.82	0.750			
0.0806	5159.55	4.1640	4.1639	0.7581	26.76	0.82	0.750			
0.0829	5304.53	4.1610	4.1611	0.7614	26.75	0.81	0.750			
0.0852	5451.36	4.1580	4.1580	0.7640	26.75	0.81	0.750			
0.0875	5596.81	4.1550	4.1549	0.7602	26.75	0.81	0.750			
0.0897	5743.82	4.1520	4.1520	0.7629	26.75	0.81	0.750			
0.0920	5890.26	4.1490	4.1491	0.7615	26.75	0.81	0.750			
0.0943	6037.56	4.1460	4.1459	0.7622	26.75	0.81	0.750			
0.0966	6182.50	4.1430	4.1430	0.7660	26.75	0.81	0.750			
0.0989	6328.14	4.1400	4.1401	0.7713	26.75	0.81	0.750			
0.1012	6476.96	4.1370	4.1369	0.7741	26.75	0.81	0.750			
0.1035	6626.61	4.1340	4.1340	0.7812	26.75	0.81	0.750			
0.1059	6776.23	4.1310	4.1311	0.7848	26.75	0.81	0.750			
0.1082	6927.62	4.1280	4.1280	0.7913	26.74	0.80	0.750			
0.1107	7082.96	4.1250	4.1249	0.7884	26.74	0.80	0.750			
0.1130	7234.59	4.1220	4.1218	0.7797	26.74	0.80	0.750			
0.1154	7383.78	4.1190	4.1192	0.7757	26.74	0.80	0.750			
0.1177	7533.34	4.1160	4.1161	0.7697	26.75	0.81	0.750			
0.1200	7677.26	4.1130	4.1129	0.7670	26.75	0.81	0.750			
0.1222	7823.05	4.1100	4.1099	0.7697	26.75	0.81	0.750			
0.1245	7968.37	4.1070	4.1070	0.7709	26.76	0.82	0.750			
0.1269	8119.33	4.1040	4.1040	0.7797	26.76	0.82	0.750			
0.1293	8272.90	4.1010	4.1010	0.7827	26.76	0.82	0.750			
0.1316	8422.39	4.0980	4.0981	0.7812	26.76	0.82	0.750			
0.1339	8571.98	4.0950	4.0950	0.7862	26.76	0.82	0.750			
0.1363	8721.93	4.0920	4.0920	0.7837	26.76	0.82	0.750			
0.1386	8870.71	4.0890	4.0889	0.7885	26.76	0.82	0.750			
0.1410	9023.35	4.0860	4.0861	0.7948	26.76	0.82	0.750			
0.1434	9177.61	4.0830	4.0830	0.8003	26.76	0.82	0.750			
0.1458	9332.27	4.0800	4.0800	0.8017	26.76	0.82	0.750			
0.1482	9486.46	4.0770	4.0770	0.7988	26.76	0.82	0.750			
0.1506	9639.00	4.0740	4.0738	0.8050	26.76	0.82	0.750			
0.1530	9794.27	4.0710	4.0711	0.8094	26.76	0.82	0.750			
0.1555	9949.26	4.0680	4.0679	0.8069	26.76	0.82	0.750			
0.1579	10105.82	4.0650	4.0650	0.8114	26.76	0.82	0.750			
0.1603	10260.13	4.0620	4.0621	0.8113	26.76	0.82	0.750			
0.1628	10417.59	4.0590	4.0588	0.8163	26.76	0.82	0.750			
0.1652	10574.36	4.0560	4.0561	0.8175	26.76	0.82	0.750			
0.1677	10729.78	4.0530	4.0530	0.8177	26.76	0.82	0.750			
0.1701	10888.59	4.0500	4.0501	0.8259	26.76	0.82	0.750			
0.1726	11046.73	4.0470	4.0470	0.8264	26.76	0.82	0.750			
0.1751	11206.99	4.0440	4.0440	0.8303	26.76	0.82	0.750			
0.1776	11366.51	4.0410	4.0410	0.8328	26.76	0.82	0.750			
0.1801	11528.15	4.0380	4.0380	0.8327	26.76	0.82	0.750			
0.1826	11687.82	4.0350	4.0350	0.8343	26.76	0.82	0.750			
0.1851	11846.33	4.0320	4.0321	0.8354	26.76	0.82	0.750			
0.1876	12007.70	4.0290	4.0289	0.8361	26.76	0.82	0.750			
0.1901	12168.24	4.0260	4.0260	0.8394	26.76	0.82	0.750			
0.1927	12330.88	4.0230	4.0230	0.8394	26.76	0.82	0.750			
0.1952	12490.97	4.0200	4.0201	0.8448	26.77	0.83	0.750			
0.1977	12652.79	4.0170	4.0170	0.8485	26.77	0.83	0.750			
0.2003	12816.44	4.0140	4.0138	0.8528	26.77	0.83	0.750			
0.2028	12980.78	4.0110	4.0112	0.8542	26.77	0.83	0.750			
0.2054	13146.48	4.0080	4.0080	0.8567	26.77	0.83	0.750			
0.2080	13310.25	4.0050	4.0051	0.8597	26.78	0.84	0.750			
0.2105	13474.50	4.0020	4.0020	0.8567	26.78	0.84	0.750			
0.2131	13638.36	3.9990	3.9988	0.8648	26.78	0.84	0.750			
0.2157	13807.15	3.9960	3.9960	0.8638	26.78	0.84	0.750			
0.2183	13973.97	3.9930	3.9931	0.8682	26.78	0.84	0.750			
0.2210	14142.76	3.9900	3.9899	0.8741	26.78	0.84	0.750			
0.2236	14308.93	3.9870	3.9871	0.8701	26.78	0.84	0.750			
0.2262	14475.03	3.9840	3.9840	0.8705	26.78	0.84	0.750			
0.2288	14643.50	3.9810	3.9810	0.8735	26.78	0.84	0.750			
0.2314	14811.04	3.9780	3.9780	0.8736	26.77	0.83	0.750			
0.2341	14979.92	3.9750	3.9750	0.8839	26.77	0.83	0.750			
0.2367	15149.23	3.9720	3.9721	0.8827	26.76	0.82	0.750			
0.2394	15319.57	3.9690	3.9690	0.8836	26.76	0.82	0.750			
0.2420	15490.61	3.9660	3.9660	0.8822	26.76	0.82	0.750			
0.2447	15659.01	3.9630	3.9631	0.8882	26.76	0.82	0.750			
0.2473	15830.16	3.9600	3.9600	0.8874	26.76	0.82	0.750			
0.2500	16000.16	3.9570	3.9568	0.8891	26.76	0.82	0.750			
0.2526	16169.48	3.9540	3.9541	0.8943	26.76	0.82	0.750			
0.2554	16343.52	3.9510	3.9510	0.8921	26.75	0.81	0.750			
0.2581	16515.43	3.9480	3.9480	0.8906	26.75	0.81	0.750			
0.2607	16687.32	3.9450	3.9451	0.8865	26.74	0.80	0.750			
0.2634	16855.53	3.9420	3.9419	0.8795	26.74	0.80	0.750			
0.2660	17025.64	3.9390	3.9389	0.8743	26.74	0.80	0.750			
0.2686	17191.08	3.9360	3.9359	0.8671	26.74	0.80	0.750			
0.2712	17354.52	3.9330	3.9331	0.8687	26.74	0.80	0.750			
0.2738	17521.10	3.9300	3.9301	0.8738	26.74	0.80	0.750			
0.2764	17688.02	3.9270	3.9270	0.8845	26.74	0.80	0.750			
0.2791	17861.61	3.9240	3.9240	0.8854	26.73	0.79	0.750			
0.2817	18031.37	3.9210	3.9210	0.8936	26.73	0.79	0.750			
0.2844	18204.16	3.9180	3.9180	0.9040	26.73	0.79	0.750			
0.2872	18379.38	3.9150	3.9152	0.9026	26.72	0.78	0.750			
0.2899	18552.33	3.9120	3.9120	0.9035	26.72	0.78	0.750			
0.2926	18725.59	3.9090	3.9091	0.9042	26.71	0.77	0.750			
0.2953	18898.13	3.9060	3.9061	0.9128	26.71	0.77	0.750			
0.2981	19076.12	3.9030	3.9029	0.9230	26.70	0.76	0.750			
0.3008	19251.26	3.9000	3.8998	0.9214	26.70	0.76	0.750			
0.3036	19429.10	3.8970	3.8971	0.9238	26.69	0.75	0.750			
0.3064	19608.53	3.8940	3.8941	0.9306	26.68	0.74	0.750			
0.3092	19788.16	3.8910	3.8910	0.9335	26.67	0.73	0.750			
0.3120	19965.63	3.8880	3.8880	0.9340	26.66	0.72	0.750			
0.3148	20144.85	3.8850	3.8850	0.9401	26.66	0.72	0.750			
0.3176	20325.75	3.8820	3.8820	0.9426	26.65	0.71	0.750			
0.3204	20506.69	3.8790	3.8790	0.9494	26.65	0.71	0.750			
0.3233	20688.70	3.8760	3.8761	0.9619	26.64	0.70	0.750			
0.3262	20873.80	3.8730	3.8727	0.9700	26.64	0.70	0.750			
0.3291	21062.40	3.8700	3.8700	0.9663	26.63	0.69	0.750			
0.3320	21249.06	3.8670	3.8670	0.9674	26.62	0.68	0.750			
0.3350	21437.34	3.8640	3.8642	0.9687	26.61	0.67	0.750			
0.3378	21621.24	3.8610	3.8608	0.9570	26.60	0.66	0.750			
0.3407	21807.30	3.8580	3.8580	0.9485	26.59	0.65	0.750			
0.3435	21986.53	3.8550	3.8551	0.9484	26.58	0.64	0.750			
0.3464	22166.79	3.8520	3.8521	0.9576	26.57	0.63	0.750			
0.3492	22350.23	3.8490	3.8490	0.9616	26.56	0.62	0.750			
0.3522	22538.64	3.8460	3.8460	0.9607	26.56	0.62	0.750			
0.3550	22723.07	3.8430	3.8430	0.9690	26.55	0.61	0.750			
0.3580	22910.18	3.8400	3.8401	0.9748	26.55	0.61	0.750			
0.3609	23100.10	3.8370	3.8371	0.9839	26.54	0.60	0.750			
0.3639	23286.98	3.8340	3.8339	0.9773	26.54	0.60	0.750			
0.3668	23473.12	3.8310	3.8311	0.9809	26.52	0.58	0.750			
0.3697	23661.63	3.8280	3.8281	0.9891	26.51	0.57	0.750			
0.3727	23853.30	3.8250	3.8250	1.0005	26.49	0.55	0.750			
0.3757	24044.67	3.8220	3.8218	1.0067	26.48	0.54	0.750			
0.3787	24239.68	3.8190	3.8191	1.0137	26.47	0.53	0.750			
0.3818	24435.73	3.8160	3.8160	1.0211	26.47	0.53	0.750			
0.3849	24633.93	3.8130	3.8130	1.0333	26.46	0.52	0.750			
0.3880	24832.29	3.8100	3.8098	1.0383	26.45	0.51	0.750			
0.3911	25031.57	3.8070	3.8070	1.0387	26.44	0.50	0.750			
0.3942	25228.90	3.8040	3.8041	1.0524	26.44	0.50	0.750			
0.3974	25431.86	3.8010	3.8011	1.0605	26.43	0.49	0.750			
0.4006	25638.33	3.7980	3.7976	1.0738	26.42	0.48	0.750			
0.4038	25843.77	3.7950	3.7951	1.0892	26.41	0.47	0.750			
0.4071	26052.68	3.7920	3.7922	1.1101	26.39	0.45	0.750			
0.4105	26270.05	3.7890	3.7890	1.1260	26.37	0.43	0.750			
0.4138	26486.38	3.7860	3.7860	1.1367	26.36	0.42	0.750			
0.4173	26707.24	3.7830	3.7831	1.1512	26.34	0.40	0.750			
0.4208	26930.25	3.7800	3.7800	1.1752	26.33	0.39	0.750			
0.4244	27159.35	3.7770	3.7770	1.1755	26.32	0.38	0.750			
0.4278	27381.48	3.7740	3.7740	1.2066	26.30	0.36	0.750			
0.4314	27610.84	3.7710	3.7711	1.2364	26.30	0.36	0.750			
0.4352	27851.91	3.7680	3.7681	1.2809	26.29	0.35	0.750	0.328	0.444	
0.4391	28099.67	3.7650	3.7650	1.3037	26.28	0.34	0.750			
0.4431	28355.41	3.7620	3.7621	1.3415	26.27	0.33	0.750			
0.4472	28620.86	3.7590	3.7591	1.3612	26.26	0.32	0.750			
0.4514	28889.22	3.7560	3.7557	1.3853	26.25	0.31	0.750			
0.4554	29146.48	3.7530	3.7533	1.3998	26.24	0.30	0.750			
0.4597	29418.67	3.7500	3.7502	1.4238	26.22	0.28	0.750			
0.4640	29693.35	3.7470	3.7465	1.4598	26.21	0.27	0.750			
0.4683	29972.39	3.7440	3.7443	1.4970	26.19	0.25	0.750			
0.4730	30270.15	3.7410	3.7412	1.5341	26.18	0.24	0.750			
0.4776	30568.62	3.7380	3.7379	1.5798	26.17	0.23	0.750			
0.4825	30878.02	3.7350	3.7350	1.6180	26.15	0.21	0.750			
0.4873	31186.49	3.7320	3.7321	1.6502	26.14	0.20	0.750			
0.4923	31509.85	3.7290	3.7288	1.7097	26.13	0.19	0.750			
0.4975	31841.68	3.7260	3.7259	1.7352	26.11	0.17	0.750			
0.5028	32177.83	3.7230	3.7230	1.7945	26.09	0.15	0.750			
0.5083	32530.12	3.7200	3.7200	1.8568	26.07	0.13	0.750			
0.5140	32894.87	3.7170	3.7171	1.9050	26.05	0.11	0.750			
0.5198	33267.26	3.7140	3.7141	1.9590	26.04	0.10	0.750			
0.5257	33646.11	3.7110	3.7110	2.0229	26.03	0.09	0.750			
0.5319	34041.97	3.7080	3.7083	2.0681	26.01	0.07	0.750			
0.5382	34446.67	3.7050	3.7050	2.1403	25.99	0.05	0.750			
0.5446	34855.56	3.7020	3.7021	2.2114	25.97	0.03	0.750			
0.5514	35287.59	3.6990	3.6988	2.2706	25.95	0.01	0.750			
0.5584	35736.58	3.6960	3.6960	2.3565	25.94	-0.00	0.750			
0.5655	36191.86	3.6930	3.6931	2.4376	25.92	-0.02	0.750			
0.5731	36675.27	3.6900	3.6898	2.5024	25.90	-0.04	0.750			
0.5805	37150.76	3.6870	3.6871	2.5873	25.88	-0.06	0.750			
0.5884	37659.20	3.6840	3.6839	2.6692	25.87	-0.07	0.750			
0.5966	38179.83	3.6810	3.6810	2.7476	25.86	-0.08	0.750			
0.6049	38711.78	3.6780	3.6781	2.9035	25.84	-0.10	0.750			
0.6140	39295.39	3.6750	3.6749	2.9338	25.83	-0.11	0.750			
0.6228	39857.43	3.6720	3.6723	2.8644	25.82	-0.12	0.750			
0.6316	40422.15	3.6690	3.6689	2.7108	25.82	-0.12	0.750			
0.6394	40921.64	3.6660	3.6659	2.4733	25.81	-0.13	0.750			
0.6462	41359.62	3.6630	3.6632	2.2257	25.81	-0.13	0.750			
0.6526	41767.78	3.6600	3.6599	2.0259	25.81	-0.13	0.750			
0.6582	42125.65	3.6570	3.6570	1.8493	25.81	-0.13	0.750			
0.6633	42451.04	3.6540	3.6538	1.6671	25.81	-0.13	0.750			
0.6682	42764.65	3.6510	3.6509	1.5755	25.81	-0.13	0.750			
0.6726	43044.60	3.6480	3.6482	1.4589	25.81	-0.13	0.750			
0.6768	43316.82	3.6450	3.6451	1.3674	25.81	-0.13	0.750			
0.6807	43566.72	3.6420	3.6421	1.2945	25.81	-0.13	0.750			
0.6844	43800.56	3.6390	3.6391	1.2331	25.81	-0.13	0.750			
0.6880	44033.66	3.6360	3.6357	1.2048	25.81	-0.13	0.750			
0.6915	44256.20	3.6330	3.6329	1.1810	25.81	-0.13	0.750			
0.6950	44479.66	3.6300	3.6301	1.1824	25.81	-0.13	0.750			
0.6985	44705.27	3.6270	3.6271	1.1889	25.81	-0.13	0.750			
0.7021	44935.60	3.6240	3.6240	1.1912	25.81	-0.13	0.750			
0.7057	45165.87	3.6210	3.6210	1.2008	25.81	-0.13	0.750			
0.7094	45398.92	3.6180	3.6180	1.2003	25.81	-0.13	0.750			
0.7130	45633.06	3.6150	3.6148	1.1846	25.81	-0.13	0.750			
0.7166	45860.42	3.6120	3.6121	1.1718	25.81	-0.13	0.750			
0.7201	46084.63	3.6090	3.6090	1.1546	25.81	-0.13	0.750			
0.7235	46302.46	3.6060	3.6061	1.1439	25.81	-0.13	0.750			
0.7268	46518.07	3.6030	3.6031	1.1274	25.81	-0.13	0.750			
0.7302	46730.01	3.6000	3.6000	1.1432	25.81	-0.13	0.750			
0.7336	46947.80	3.5970	3.5970	1.1641	25.81	-0.13	0.750			
0.7371	47174.65	3.5940	3.5939	1.1822	25.81	-0.13	0.750			
0.7406	47400.15	3.5910	3.5910	1.2242	25.81	-0.13	0.750			
0.7444	47640.48	3.5880	3.5881	1.2655	25.81	-0.13	0.750			
0.7483	47888.41	3.5850	3.5850	1.3019	25.81	-0.13	0.750			
0.7522	48139.74	3.5820	3.5821	1.3513	25.81	-0.13	0.750			
0.7563	48400.65	3.5790	3.5792	1.3914	25.80	-0.14	0.750			
0.7605	48672.62	3.5760	3.5760	1.4363	25.79	-0.15	0.750			
0.7650	48957.53	3.5730	3.5728	1.4872	25.79	-0.15	0.750			
0.7695	49247.72	3.5700	3.5698	1.5297	25.79	-0.15	0.750			
0.7742	49546.05	3.5670	3.5671	1.5916	25.79	-0.15	0.750			
0.7791	49863.47	3.5640	3.5641	1.6242	25.78	-0.16	0.750			
0.7841	50179.88	3.5610	3.5609	1.6257	25.78	-0.16	0.750			
0.7891	50499.95	3.5580	3.5579	1.6496	25.77	-0.17	0.750			
0.7939	50808.12	3.5550	3.5552	1.6664	25.77	-0.17	0.750			
0.7990	51134.74	3.5520	3.5520	1.6767	25.77	-0.17	0.750			
0.8040	51454.01	3.5490	3.5491	1.6878	25.77	-0.17	0.750			
0.8090	51777.65	3.5460	3.5460	1.7063	25.77	-0.17	0.750			
0.8142	52109.80	3.5430	3.5432	1.7608	25.77	-0.17	0.750			
0.8196	52452.70	3.5400	3.5401	1.8002	25.78	-0.16	0.750			
0.8254	52824.32	3.5370	3.5366	1.7282	25.78	-0.16	0.750			
0.8309	53179.36	3.5340	3.5338	1.6083	25.79	-0.15	0.750			
0.8361	53512.02	3.5310	3.5313	1.4238	25.81	-0.13	0.750			
0.8403	53776.93	3.5280	3.5284	1.1754	25.82	-0.12	0.750			
0.8431	53956.87	3.5250	3.5247	0.9081	25.83	-0.11	0.750			
0.8449	54075.12	3.5220	3.5212	0.6489	25.84	-0.10	0.750			
0.8460	54143.83	3.5190	3.5190	0.4650	25.85	-0.09	0.750			
0.8471	54214.64	3.5160	3.5160	0.3994	25.85	-0.09	0.750			
0.8482	54281.65	3.5130	3.5129	0.3570	25.86	-0.08	0.750			
0.8492	54345.87	3.5100	3.5099	0.3329	25.86	-0.08	0.750			
0.8501	54405.65	3.5070	3.5070	0.3155	25.87	-0.07	0.750			
0.8510	54465.19	3.5040	3.5040	0.3047	25.87	-0.07	0.750			
0.8519	54522.40	3.5010	3.5010	0.2953	25.88	-0.06	0.750			
0.8528	54577.49	3.4980	3.4980	0.2852	25.88	-0.06	0.750			
0.8536	54631.47	3.4950	3.4950	0.2783	25.89	-0.05	0.750			
0.8544	54683.89	3.4920	3.4920	0.2719	25.89	-0.05	0.750			
0.8552	54735.23	3.4890	3.4890	0.2664	25.90	-0.04	0.750			
0.8560	54785.71	3.4860	3.4860	0.2617	25.90	-0.04	0.750			
0.8568	54835.79	3.4830	3.4829	0.2556	25.90	-0.04	0.750			
0.8576	54884.17	3.4800	3.4800	0.2504	25.91	-0.03	0.750			
0.8583	54931.93	3.4770	3.4770	0.2456	25.91	-0.03	0.750			
0.8590	54978.31	3.4740	3.4739	0.2398	25.92	-0.02	0.750			
0.8597	55023.66	3.4710	3.4709	0.2344	25.92	-0.02	0.750			
0.8604	55068.33	3.4680	3.4680	0.2282	25.92	-0.02	0.750			
0.8611	55111.29	3.4650	3.4650	0.2236	25.93	-0.01	0.750			
0.8618	55154.10	3.4620	3.4620	0.2201	25.93	-0.01	0.750			
0.8624	55195.86	3.4590	3.4592	0.2149	25.94	-0.00	0.750			
0.8631	55236.03	3.4560	3.4558	0.2103	25.94	-0.00	0.750			
0.8637	55276.04	3.4530	3.4531	0.2061	25.94	0.00	0.750			
0.8643	55315.63	3.4500	3.4501	0.2014	25.95	0.01	0.750			
0.8649	55353.83	3.4470	3.4469	0.1965	25.95	0.01	0.750			
0.8655	55391.70	3.4440	3.4440	0.1917	25.95	0.01	0.750			
0.8661	55427.58	3.4410	3.4410	0.1856	25.96	0.02	0.750			
0.8666	55462.73	3.4380	3.4379	0.1807	25.96	0.02	0.750			
0.8671	55496.89	3.4350	3.4349	0.1752	25.96	0.02	0.750			
0.8677	55529.72	3.4320	3.4321	0.1701	25.96	0.02	0.750			
0.8682	55562.09	3.4290	3.4290	0.1644	25.97	0.03	0.750			
0.8686	55593.39	3.4260	3.4260	0.1595	25.97	0.03	0.750			
0.8691	55623.46	3.4230	3.4231	0.1536	25.97	0.03	0.750			
0.8696	55652.41	3.4200	3.4201	0.1479	25.98	0.04	0.750			
0.8700	55680.14	3.4170	3.4169	0.1423	25.98	0.04	0.750			
0.8704	55706.79	3.4140	3.4140	0.1365	25.98	0.04	0.750			
0.8708	55732.64	3.4110	3.4110	0.1301	25.98	0.04	0.750			
0.8712	55757.04	3.4080	3.4080	0.1241	25.98	0.04	0.750			
0.8716	55780.80	3.4050	3.4050	0.1176	25.99	0.05	0.750			
0.8719	55802.77	3.4020	3.4022	0.1104	25.99	0.05	0.750			
0.8723	55824.31	3.3990	3.3988	0.1004	25.99	0.05	0.750			
0.8725	55843.12	3.3960	3.3959	0.0919	25.99	0.05	0.750			
0.8728	55860.21	3.3930	3.3931	0.0826	25.99	0.05	0.750			
0.8730	55875.02	3.3900	3.3904	0.0717	26.00	0.06	0.750			
0.8733	55888.84	3.3870	3.3872	0.0612	26.00	0.06	0.750			
0.8734	55899.39	3.3840	3.3846	0.0487	26.00	0.06	0.750			
0.8736	55907.54	3.3810	3.3819	0.0362	26.00	0.06	0.750			
0.8736	55913.28	3.3780	3.3795	0.0236	26.00	0.06	0.750			
