Ah_balance (normalized)	Ah_balance (mAh)	Voltage - fit (V)	Voltage -  interpolate (V)	dQ/dV (1/V)	Temperature (°C)	Temperature - diff (°C)	Current (C)	R_DC 0ms (mOhm)	R_DC 50ms (mOhm)	R_DC 50 ms PEC (mOhm)
0.0002	10.08	4.1640	4.1632	-0.0808	25.75	0.03	-0.750			
0.0005	29.60	4.1610	4.1607	-0.1260	25.74	0.02	-0.750			
0.0009	58.62	4.1580	4.1580	-0.1738	25.74	0.02	-0.750			
0.0015	97.92	4.1550	4.1551	-0.2170	25.74	0.02	-0.750			
0.0023	144.01	4.1520	4.1519	-0.2584	25.74	0.02	-0.750			
0.0031	198.05	4.1490	4.1491	-0.2969	25.74	0.02	-0.750			
0.0041	260.07	4.1460	4.1460	-0.3375	25.74	0.02	-0.750			
0.0051	328.99	4.1430	4.1431	-0.3723	25.73	0.01	-0.750			
0.0063	404.57	4.1400	4.1400	-0.4070	25.73	0.01	-0.750			
0.0076	486.76	4.1370	4.1369	-0.4377	25.73	0.01	-0.750			
0.0090	575.21	4.1340	4.1340	-0.4640	25.72	0.00	-0.750			
0.0104	667.24	4.1310	4.1309	-0.4882	25.72	0.00	-0.750			
0.0119	762.86	4.1280	4.1280	-0.5126	25.72	-0.00	-0.750			
0.0135	863.63	4.1250	4.1250	-0.5333	25.71	-0.01	-0.750			
0.0151	968.70	4.1220	4.1219	-0.5499	25.71	-0.01	-0.750			
0.0168	1075.28	4.1190	4.1191	-0.5677	25.71	-0.01	-0.750			
0.0186	1188.36	4.1160	4.1160	-0.5837	25.70	-0.02	-0.750			
0.0203	1302.05	4.1130	4.1129	-0.5955	25.70	-0.02	-0.750			
0.0221	1417.55	4.1100	4.1099	-0.6072	25.69	-0.03	-0.750			
0.0240	1534.92	4.1070	4.1071	-0.6167	25.69	-0.03	-0.750			
0.0259	1655.55	4.1040	4.1039	-0.6282	25.69	-0.03	-0.750			
0.0278	1777.90	4.1010	4.1010	-0.6339	25.68	-0.04	-0.750			
0.0297	1899.49	4.0980	4.0980	-0.6426	25.68	-0.04	-0.750			
0.0316	2024.43	4.0950	4.0950	-0.6502	25.68	-0.04	-0.750			
0.0336	2150.30	4.0920	4.0919	-0.6557	25.67	-0.05	-0.750			
0.0356	2276.43	4.0890	4.0891	-0.6604	25.67	-0.05	-0.750			
0.0376	2403.95	4.0860	4.0860	-0.6680	25.67	-0.05	-0.750			
0.0396	2532.66	4.0830	4.0830	-0.6732	25.66	-0.06	-0.750			
0.0416	2663.83	4.0800	4.0799	-0.6796	25.66	-0.06	-0.750			
0.0436	2793.35	4.0770	4.0770	-0.6844	25.66	-0.06	-0.750			
0.0457	2926.85	4.0740	4.0740	-0.6890	25.65	-0.07	-0.750			
0.0478	3059.23	4.0710	4.0708	-0.6935	25.65	-0.07	-0.750			
0.0499	3193.00	4.0680	4.0679	-0.6954	25.65	-0.07	-0.750			
0.0520	3326.48	4.0650	4.0649	-0.6968	25.65	-0.07	-0.750			
0.0541	3459.66	4.0620	4.0621	-0.7025	25.65	-0.07	-0.750			
0.0562	3594.66	4.0590	4.0590	-0.7065	25.64	-0.08	-0.750			
0.0583	3732.11	4.0560	4.0560	-0.7079	25.64	-0.08	-0.750			
0.0605	3869.21	4.0530	4.0529	-0.7112	25.64	-0.08	-0.750			
0.0626	4005.43	4.0500	4.0501	-0.7133	25.64	-0.08	-0.750			
0.0647	4143.26	4.0470	4.0470	-0.7162	25.64	-0.08	-0.750			
0.0669	4279.81	4.0440	4.0439	-0.7203	25.64	-0.08	-0.750			
0.0690	4418.26	4.0410	4.0410	-0.7216	25.63	-0.09	-0.750			
0.0712	4557.91	4.0380	4.0380	-0.7243	25.63	-0.09	-0.750			
0.0734	4697.80	4.0350	4.0350	-0.7245	25.63	-0.09	-0.750			
0.0756	4836.81	4.0320	4.0321	-0.7272	25.63	-0.09	-0.750			
0.0778	4977.13	4.0290	4.0290	-0.7224	25.63	-0.09	-0.750			
0.0799	5115.22	4.0260	4.0259	-0.7315	25.63	-0.09	-0.750			
0.0821	5255.61	4.0230	4.0230	-0.7320	25.63	-0.09	-0.750			
0.0843	5398.05	4.0200	4.0198	-0.7333	25.63	-0.09	-0.750			
0.0866	5540.13	4.0170	4.0170	-0.7343	25.63	-0.09	-0.750			
0.0887	5679.67	4.0140	4.0142	-0.7351	25.63	-0.09	-0.750			
0.0909	5820.10	4.0110	4.0109	-0.7373	25.63	-0.09	-0.750			
0.0931	5959.86	4.0080	4.0080	-0.7343	25.62	-0.10	-0.750			
0.0954	6104.04	4.0050	4.0049	-0.7428	25.62	-0.10	-0.750			
0.0976	6247.51	4.0020	4.0021	-0.7479	25.62	-0.10	-0.750			
0.0999	6392.63	3.9990	3.9989	-0.7475	25.62	-0.10	-0.750			
0.1021	6536.22	3.9960	3.9960	-0.7468	25.62	-0.10	-0.750			
0.1044	6678.44	3.9930	3.9930	-0.7498	25.62	-0.10	-0.750			
0.1066	6822.47	3.9900	3.9900	-0.7481	25.62	-0.10	-0.750			
0.1089	6967.64	3.9870	3.9868	-0.7488	25.62	-0.10	-0.750			
0.1111	7110.24	3.9840	3.9842	-0.7553	25.62	-0.10	-0.750			
0.1134	7254.87	3.9810	3.9810	-0.7596	25.62	-0.10	-0.750			
0.1157	7402.13	3.9780	3.9778	-0.7631	25.62	-0.10	-0.750			
0.1179	7547.92	3.9750	3.9750	-0.7650	25.63	-0.09	-0.750			
0.1203	7697.42	3.9720	3.9721	-0.7695	25.63	-0.09	-0.750			
0.1226	7845.50	3.9690	3.9688	-0.7710	25.63	-0.09	-0.750			
0.1249	7993.87	3.9660	3.9659	-0.7719	25.63	-0.09	-0.750			
0.1272	8140.11	3.9630	3.9630	-0.7723	25.63	-0.09	-0.750			
0.1295	8289.10	3.9600	3.9600	-0.7746	25.64	-0.08	-0.750			
0.1318	8437.96	3.9570	3.9570	-0.7736	25.64	-0.08	-0.750			
0.1342	8588.65	3.9540	3.9539	-0.7761	25.64	-0.08	-0.750			
0.1365	8738.78	3.9510	3.9511	-0.7739	25.64	-0.08	-0.750			
0.1388	8884.43	3.9480	3.9480	-0.7774	25.64	-0.08	-0.750			
0.1411	9033.52	3.9450	3.9450	-0.7814	25.64	-0.08	-0.750			
0.1435	9183.85	3.9420	3.9420	-0.7809	25.64	-0.08	-0.750			
0.1459	9334.72	3.9390	3.9389	-0.7881	25.64	-0.08	-0.750			
0.1482	9487.44	3.9360	3.9362	-0.7971	25.64	-0.08	-0.750			
0.1506	9641.41	3.9330	3.9330	-0.7999	25.64	-0.08	-0.750			
0.1531	9797.06	3.9300	3.9298	-0.8071	25.64	-0.08	-0.750			
0.1555	9951.71	3.9270	3.9270	-0.8015	25.64	-0.08	-0.750			
0.1579	10107.34	3.9240	3.9239	-0.8022	25.64	-0.08	-0.750			
0.1603	10261.10	3.9210	3.9214	-0.8003	25.64	-0.08	-0.750			
0.1627	10413.33	3.9180	3.9178	-0.7971	25.64	-0.08	-0.750			
0.1651	10565.64	3.9150	3.9150	-0.7995	25.65	-0.07	-0.750			
0.1675	10719.87	3.9120	3.9120	-0.7996	25.65	-0.07	-0.750			
0.1699	10875.03	3.9090	3.9090	-0.8104	25.65	-0.07	-0.750			
0.1723	11029.73	3.9060	3.9061	-0.8070	25.66	-0.06	-0.750			
0.1747	11183.96	3.9030	3.9028	-0.8078	25.66	-0.06	-0.750			
0.1771	11337.27	3.9000	3.9000	-0.8114	25.66	-0.06	-0.750			
0.1796	11493.86	3.8970	3.8970	-0.8123	25.66	-0.06	-0.750			
0.1820	11648.95	3.8940	3.8940	-0.8125	25.66	-0.06	-0.750			
0.1845	11809.15	3.8910	3.8909	-0.8173	25.66	-0.06	-0.750			
0.1869	11964.74	3.8880	3.8880	-0.8160	25.66	-0.06	-0.750			
0.1894	12118.89	3.8850	3.8850	-0.8261	25.66	-0.06	-0.750			
0.1919	12280.11	3.8820	3.8819	-0.8225	25.66	-0.06	-0.750			
0.1944	12438.50	3.8790	3.8789	-0.8217	25.66	-0.06	-0.750			
0.1968	12597.95	3.8760	3.8760	-0.8249	25.66	-0.06	-0.750			
0.1993	12756.58	3.8730	3.8728	-0.8264	25.66	-0.06	-0.750			
0.2018	12915.22	3.8700	3.8699	-0.8221	25.66	-0.06	-0.750			
0.2042	13070.33	3.8670	3.8670	-0.8173	25.66	-0.06	-0.750			
0.2066	13224.92	3.8640	3.8641	-0.8172	25.67	-0.05	-0.750			
0.2092	13386.88	3.8610	3.8609	-0.8254	25.67	-0.05	-0.750			
0.2116	13544.66	3.8580	3.8580	-0.8191	25.67	-0.05	-0.750			
0.2141	13700.41	3.8550	3.8550	-0.8221	25.67	-0.05	-0.750			
0.2166	13859.80	3.8520	3.8520	-0.8300	25.67	-0.05	-0.750			
0.2191	14021.16	3.8490	3.8487	-0.8330	25.68	-0.04	-0.750			
0.2216	14181.81	3.8460	3.8459	-0.8308	25.68	-0.04	-0.750			
0.2241	14341.33	3.8430	3.8433	-0.8311	25.68	-0.04	-0.750			
0.2266	14500.62	3.8400	3.8399	-0.8413	25.69	-0.03	-0.750			
0.2291	14663.95	3.8370	3.8369	-0.8331	25.69	-0.03	-0.750			
0.2316	14819.84	3.8340	3.8339	-0.8207	25.69	-0.03	-0.750			
0.2341	14979.65	3.8310	3.8309	-0.8266	25.70	-0.02	-0.750			
0.2366	15139.39	3.8280	3.8280	-0.8248	25.70	-0.02	-0.750			
0.2390	15295.92	3.8250	3.8249	-0.8237	25.70	-0.02	-0.750			
0.2414	15450.49	3.8220	3.8220	-0.8205	25.70	-0.02	-0.750			
0.2439	15608.26	3.8190	3.8191	-0.8132	25.71	-0.01	-0.750			
0.2464	15769.63	3.8160	3.8159	-0.8244	25.71	-0.01	-0.750			
0.2489	15927.10	3.8130	3.8132	-0.8257	25.71	-0.01	-0.750			
0.2513	16084.81	3.8100	3.8100	-0.8241	25.71	-0.01	-0.750			
0.2538	16243.41	3.8070	3.8069	-0.8257	25.71	-0.01	-0.750			
0.2563	16403.17	3.8040	3.8040	-0.8191	25.72	-0.00	-0.750			
0.2587	16559.87	3.8010	3.8010	-0.8185	25.72	-0.00	-0.750			
0.2612	16717.65	3.7980	3.7981	-0.8156	25.72	0.00	-0.750			
0.2636	16873.29	3.7950	3.7949	-0.8073	25.72	0.00	-0.750			
0.2660	17026.61	3.7920	3.7920	-0.8093	25.73	0.01	-0.750			
0.2685	17181.51	3.7890	3.7890	-0.8068	25.73	0.01	-0.750			
0.2709	17337.84	3.7860	3.7859	-0.8096	25.74	0.02	-0.750			
0.2733	17493.23	3.7830	3.7832	-0.8072	25.74	0.02	-0.750			
0.2757	17647.47	3.7800	3.7800	-0.8018	25.74	0.02	-0.750			
0.2782	17801.69	3.7770	3.7770	-0.8042	25.74	0.02	-0.750			
0.2806	17956.21	3.7740	3.7739	-0.7998	25.75	0.03	-0.750			
0.2830	18109.22	3.7710	3.7710	-0.7975	25.75	0.03	-0.750			
0.2854	18262.67	3.7680	3.7681	-0.7936	25.75	0.03	-0.750			
0.2877	18414.43	3.7650	3.7650	-0.7899	25.75	0.03	-0.750			
0.2901	18565.16	3.7620	3.7619	-0.7881	25.75	0.03	-0.750			
0.2924	18714.68	3.7590	3.7591	-0.7860	25.76	0.04	-0.750			
0.2948	18864.46	3.7560	3.7560	-0.7876	25.76	0.04	-0.750			
0.2972	19018.16	3.7530	3.7530	-0.7888	25.76	0.04	-0.750			
0.2995	19168.84	3.7500	3.7500	-0.7916	25.76	0.04	-0.750			
0.3019	19319.91	3.7470	3.7471	-0.8001	25.76	0.04	-0.750			
0.3043	19474.62	3.7440	3.7439	-0.8017	25.76	0.04	-0.750			
0.3067	19629.16	3.7410	3.7409	-0.8019	25.77	0.05	-0.750			
0.3091	19783.53	3.7380	3.7380	-0.8073	25.77	0.05	-0.750			
0.3115	19939.07	3.7350	3.7350	-0.8106	25.77	0.05	-0.750			
0.3140	20093.46	3.7320	3.7320	-0.8267	25.77	0.05	-0.750			
0.3164	20252.61	3.7290	3.7289	-0.8253	25.77	0.05	-0.750			
0.3189	20409.02	3.7260	3.7260	-0.8421	25.77	0.05	-0.750			
0.3215	20573.86	3.7230	3.7230	-0.8640	25.77	0.05	-0.750			
0.3241	20741.74	3.7200	3.7200	-0.8815	25.77	0.05	-0.750			
0.3268	20912.05	3.7170	3.7168	-0.8982	25.77	0.05	-0.750			
0.3295	21086.72	3.7140	3.7141	-0.9158	25.77	0.05	-0.750			
0.3323	21264.64	3.7110	3.7110	-0.9232	25.77	0.05	-0.750			
0.3351	21447.58	3.7080	3.7080	-0.9383	25.77	0.05	-0.750			
0.3379	21623.09	3.7050	3.7051	-0.9473	25.77	0.05	-0.750			
0.3408	21808.54	3.7020	3.7020	-0.9615	25.77	0.05	-0.750			
0.3436	21993.15	3.6990	3.6989	-0.9741	25.78	0.06	-0.750			
0.3466	22180.72	3.6960	3.6959	-0.9912	25.78	0.06	-0.750			
0.3496	22372.91	3.6930	3.6930	-1.0139	25.78	0.06	-0.750			
0.3527	22570.58	3.6900	3.6899	-1.0342	25.78	0.06	-0.750			
0.3558	22769.99	3.6870	3.6870	-1.0535	25.77	0.05	-0.750			
0.3589	22971.25	3.6840	3.6840	-1.0726	25.77	0.05	-0.750			
0.3623	23184.05	3.6810	3.6809	-1.1058	25.77	0.05	-0.750			
0.3656	23398.45	3.6780	3.6780	-1.1276	25.76	0.04	-0.750			
0.3690	23618.43	3.6750	3.6750	-1.1434	25.76	0.04	-0.750			
0.3725	23837.45	3.6720	3.6721	-1.1789	25.75	0.03	-0.750			
0.3761	24070.47	3.6690	3.6689	-1.1928	25.75	0.03	-0.750			
0.3797	24301.45	3.6660	3.6659	-1.2052	25.74	0.02	-0.750			
0.3833	24532.11	3.6630	3.6629	-1.2242	25.73	0.01	-0.750			
0.3870	24768.27	3.6600	3.6602	-1.2418	25.73	0.01	-0.750			
0.3907	25008.00	3.6570	3.6568	-1.2723	25.72	0.00	-0.750			
0.3946	25254.54	3.6540	3.6539	-1.2972	25.72	-0.00	-0.750			
0.3985	25501.85	3.6510	3.6513	-1.3434	25.71	-0.01	-0.750			
0.4026	25766.49	3.6480	3.6480	-1.3809	25.70	-0.02	-0.750			
0.4069	26039.26	3.6450	3.6449	-1.4083	25.70	-0.02	-0.750			
0.4111	26311.91	3.6420	3.6422	-1.4506	25.69	-0.03	-0.750			
0.4156	26597.28	3.6390	3.6390	-1.4741	25.69	-0.03	-0.750			
0.4200	26881.45	3.6360	3.6359	-1.5151	25.68	-0.04	-0.750			
0.4246	27176.65	3.6330	3.6330	-1.5505	25.68	-0.04	-0.750			
0.4294	27479.00	3.6300	3.6299	-1.5817	25.67	-0.05	-0.750			
0.4341	27784.93	3.6270	3.6272	-1.6120	25.66	-0.06	-0.750			
0.4390	28093.76	3.6240	3.6239	-1.6328	25.65	-0.07	-0.750			
0.4440	28418.87	3.6210	3.6208	-1.6537	25.65	-0.07	-0.750			
0.4490	28734.99	3.6180	3.6180	-1.6764	25.64	-0.08	-0.750	0.405	0.520	
0.4540	29053.29	3.6150	3.6149	-1.6943	25.64	-0.08	-0.750			
0.4590	29376.47	3.6120	3.6120	-1.7522	25.63	-0.09	-0.750			
0.4644	29721.21	3.6090	3.6088	-1.7919	25.62	-0.10	-0.750			
0.4698	30069.84	3.6060	3.6058	-1.8324	25.62	-0.10	-0.750			
0.4754	30428.22	3.6030	3.6031	-1.8735	25.61	-0.11	-0.750			
0.4813	30802.21	3.6000	3.6000	-1.9096	25.60	-0.12	-0.750			
0.4870	31166.74	3.5970	3.5971	-1.9571	25.60	-0.12	-0.750			
0.4929	31547.92	3.5940	3.5939	-1.9724	25.60	-0.12	-0.750			
0.4989	31929.11	3.5910	3.5911	-1.9950	25.60	-0.12	-0.750			
0.5050	32317.19	3.5880	3.5882	-2.0495	25.59	-0.13	-0.750			
0.5111	32711.04	3.5850	3.5851	-2.0764	25.59	-0.13	-0.750			
0.5174	33113.27	3.5820	3.5818	-2.1170	25.58	-0.14	-0.750			
0.5238	33525.14	3.5790	3.5791	-2.1602	25.58	-0.14	-0.750			
0.5303	33939.13	3.5760	3.5760	-2.1830	25.59	-0.13	-0.750			
0.5371	34372.81	3.5730	3.5730	-2.2128	25.59	-0.13	-0.750			
0.5437	34795.27	3.5700	3.5701	-2.2400	25.58	-0.14	-0.750			
0.5504	35228.41	3.5670	3.5668	-2.2422	25.58	-0.14	-0.750			
0.5572	35658.54	3.5640	3.5640	-2.2590	25.58	-0.14	-0.750			
0.5640	36096.52	3.5610	3.5612	-2.2524	25.58	-0.14	-0.750			
0.5708	36529.01	3.5580	3.5577	-2.2630	25.59	-0.13	-0.750			
0.5776	36966.32	3.5550	3.5550	-2.2518	25.59	-0.13	-0.750			
0.5844	37401.04	3.5520	3.5519	-2.2522	25.60	-0.12	-0.750			
0.5912	37833.97	3.5490	3.5492	-2.2464	25.60	-0.12	-0.750			
0.5979	38263.02	3.5460	3.5460	-2.2388	25.60	-0.12	-0.750			
0.6046	38695.40	3.5430	3.5430	-2.2249	25.60	-0.12	-0.750			
0.6114	39129.30	3.5400	3.5400	-2.2141	25.60	-0.12	-0.750			
0.6180	39553.59	3.5370	3.5371	-2.1915	25.61	-0.11	-0.750			
0.6246	39973.80	3.5340	3.5340	-2.1454	25.62	-0.10	-0.750			
0.6309	40379.82	3.5310	3.5310	-2.0994	25.62	-0.10	-0.750			
0.6371	40777.02	3.5280	3.5280	-2.0644	25.62	-0.10	-0.750			
0.6432	41165.95	3.5250	3.5250	-2.0075	25.64	-0.08	-0.750			
0.6492	41548.63	3.5220	3.5220	-1.9672	25.65	-0.07	-0.750			
0.6551	41923.85	3.5190	3.5191	-1.9123	25.67	-0.05	-0.750			
0.6607	42285.26	3.5160	3.5159	-1.8619	25.68	-0.04	-0.750			
0.6662	42637.15	3.5130	3.5129	-1.8364	25.69	-0.03	-0.750			
0.6717	42988.89	3.5100	3.5099	-1.7577	25.70	-0.02	-0.750			
0.6769	43321.45	3.5070	3.5069	-1.7084	25.71	-0.01	-0.750			
0.6820	43645.52	3.5040	3.5043	-1.6458	25.72	0.00	-0.750			
0.6868	43954.69	3.5010	3.5012	-1.5808	25.73	0.01	-0.750			
0.6915	44256.88	3.4980	3.4977	-1.5294	25.75	0.03	-0.750			
0.6958	44534.15	3.4950	3.4950	-1.4695	25.77	0.05	-0.750			
0.7002	44812.52	3.4920	3.4921	-1.4258	25.79	0.07	-0.750			
0.7044	45084.72	3.4890	3.4889	-1.3938	25.80	0.08	-0.750			
0.7085	45343.84	3.4860	3.4860	-1.3456	25.81	0.09	-0.750			
0.7125	45600.16	3.4830	3.4829	-1.3071	25.83	0.11	-0.750			
0.7164	45849.85	3.4800	3.4800	-1.2711	25.85	0.13	-0.750			
0.7202	46091.27	3.4770	3.4770	-1.2328	25.87	0.15	-0.750			
0.7238	46320.55	3.4740	3.4742	-1.1977	25.88	0.16	-0.750			
0.7274	46552.33	3.4710	3.4709	-1.1551	25.90	0.18	-0.750			
0.7308	46768.88	3.4680	3.4679	-1.1050	25.91	0.19	-0.750			
0.7340	46976.51	3.4650	3.4650	-1.0681	25.92	0.20	-0.750			
0.7372	47177.95	3.4620	3.4619	-1.0314	25.94	0.22	-0.750			
0.7402	47370.48	3.4590	3.4588	-1.0015	25.95	0.23	-0.750			
0.7431	47556.62	3.4560	3.4560	-0.9679	25.97	0.25	-0.750			
0.7459	47738.70	3.4530	3.4530	-0.9403	25.98	0.26	-0.750			
0.7488	47920.37	3.4500	3.4501	-0.9254	25.99	0.27	-0.750			
0.7515	48094.08	3.4470	3.4470	-0.9066	26.00	0.28	-0.750			
0.7541	48264.12	3.4440	3.4440	-0.8901	26.01	0.29	-0.750			
0.7567	48430.66	3.4410	3.4409	-0.8828	26.02	0.30	-0.750			
0.7594	48599.00	3.4380	3.4380	-0.8865	26.03	0.31	-0.750			
0.7620	48769.05	3.4350	3.4350	-0.8932	26.05	0.33	-0.750			
0.7647	48939.58	3.4320	3.4320	-0.9157	26.06	0.34	-0.750			
0.7674	49116.80	3.4290	3.4290	-0.9345	26.07	0.35	-0.750			
0.7703	49296.80	3.4260	3.4259	-0.9540	26.08	0.36	-0.750			
0.7732	49485.30	3.4230	3.4232	-0.9709	26.09	0.37	-0.750			
0.7762	49675.74	3.4200	3.4200	-0.9846	26.10	0.38	-0.750			
0.7792	49868.81	3.4170	3.4169	-0.9855	26.10	0.38	-0.750			
0.7822	50058.82	3.4140	3.4140	-0.9846	26.11	0.39	-0.750			
0.7851	50248.23	3.4110	3.4110	-0.9780	26.12	0.40	-0.750			
0.7880	50434.14	3.4080	3.4079	-0.9698	26.13	0.41	-0.750			
0.7910	50621.08	3.4050	3.4049	-0.9502	26.13	0.41	-0.750			
0.7938	50803.75	3.4020	3.4021	-0.9294	26.14	0.42	-0.750			
0.7966	50980.25	3.3990	3.3990	-0.9033	26.15	0.43	-0.750			
0.7993	51153.48	3.3960	3.3959	-0.8870	26.15	0.43	-0.750			
0.8019	51318.73	3.3930	3.3930	-0.8619	26.16	0.44	-0.750			
0.8044	51483.30	3.3900	3.3899	-0.8297	26.17	0.45	-0.750			
0.8069	51640.00	3.3870	3.3870	-0.7968	26.18	0.46	-0.750			
0.8093	51793.24	3.3840	3.3840	-0.7698	26.19	0.47	-0.750			
0.8115	51938.27	3.3810	3.3809	-0.7347	26.19	0.47	-0.750			
0.8137	52073.87	3.3780	3.3780	-0.7009	26.20	0.48	-0.750			
0.8156	52201.44	3.3750	3.3751	-0.6642	26.21	0.49	-0.750			
0.8176	52325.37	3.3720	3.3720	-0.6422	26.21	0.49	-0.750			
0.8195	52449.35	3.3690	3.3690	-0.6260	26.22	0.50	-0.750			
0.8214	52566.57	3.3660	3.3659	-0.6009	26.22	0.50	-0.750			
0.8231	52679.25	3.3630	3.3632	-0.5785	26.23	0.51	-0.750			
0.8248	52788.98	3.3600	3.3600	-0.5589	26.24	0.52	-0.750			
0.8265	52893.71	3.3570	3.3570	-0.5373	26.25	0.53	-0.750			
0.8280	52993.94	3.3540	3.3539	-0.5168	26.25	0.53	-0.750			
0.8295	53091.09	3.3510	3.3511	-0.4987	26.26	0.54	-0.750			
0.8310	53185.00	3.3480	3.3480	-0.4816	26.27	0.55	-0.750			
0.8324	53276.42	3.3450	3.3448	-0.4634	26.27	0.55	-0.750			
0.8338	53362.88	3.3420	3.3421	-0.4465	26.28	0.56	-0.750			
0.8351	53446.46	3.3390	3.3390	-0.4293	26.29	0.57	-0.750			
0.8364	53527.81	3.3360	3.3358	-0.4133	26.29	0.57	-0.750			
0.8376	53605.09	3.3330	3.3330	-0.4016	26.30	0.58	-0.750			
0.8388	53680.05	3.3300	3.3300	-0.3884	26.30	0.58	-0.750			
0.8399	53753.69	3.3270	3.3269	-0.3747	26.31	0.59	-0.750			
0.8410	53824.85	3.3240	3.3240	-0.3636	26.32	0.60	-0.750			
0.8421	53892.37	3.3210	3.3211	-0.3504	26.32	0.60	-0.750			
0.8431	53959.10	3.3180	3.3179	-0.3402	26.33	0.61	-0.750			
0.8441	54023.34	3.3150	3.3150	-0.3293	26.33	0.61	-0.750			
0.8451	54084.57	3.3120	3.3120	-0.3173	26.34	0.62	-0.750			
0.8460	54144.88	3.3090	3.3090	-0.3092	26.34	0.62	-0.750			
0.8469	54203.47	3.3060	3.3060	-0.3015	26.34	0.62	-0.750			
0.8478	54259.51	3.3030	3.3029	-0.2920	26.35	0.63	-0.750			
0.8487	54315.08	3.3000	3.3000	-0.2844	26.35	0.63	-0.750			
0.8495	54369.08	3.2970	3.2970	-0.2773	26.36	0.64	-0.750			
0.8503	54421.54	3.2940	3.2940	-0.2701	26.37	0.65	-0.750			
0.8511	54472.75	3.2910	3.2910	-0.2643	26.37	0.65	-0.750			
0.8519	54522.57	3.2880	3.2879	-0.2569	26.38	0.66	-0.750			
0.8527	54570.85	3.2850	3.2850	-0.2501	26.38	0.66	-0.750			
0.8534	54618.39	3.2820	3.2820	-0.2456	26.39	0.67	-0.750			
0.8541	54664.79	3.2790	3.2791	-0.2407	26.39	0.67	-0.750			
0.8549	54710.72	3.2760	3.2761	-0.2364	26.40	0.68	-0.750			
0.8556	54755.49	3.2730	3.2728	-0.2315	26.40	0.68	-0.750			
0.8562	54799.46	3.2700	3.2700	-0.2267	26.41	0.69	-0.750			
0.8569	54842.34	3.2670	3.2671	-0.2221	26.41	0.69	-0.750			
0.8576	54884.79	3.2640	3.2640	-0.2193	26.42	0.70	-0.750			
0.8582	54926.49	3.2610	3.2610	-0.2150	26.42	0.70	-0.750			
0.8589	54967.01	3.2580	3.2580	-0.2107	26.43	0.71	-0.750			
0.8595	55006.95	3.2550	3.2551	-0.2072	26.43	0.71	-0.750			
0.8601	55046.59	3.2520	3.2519	-0.2039	26.44	0.72	-0.750			
0.8607	55085.41	3.2490	3.2491	-0.2004	26.44	0.72	-0.750			
0.8613	55123.84	3.2460	3.2460	-0.1963	26.45	0.73	-0.750			
0.8619	55160.83	3.2430	3.2431	-0.1931	26.45	0.73	-0.750			
0.8625	55197.24	3.2400	3.2400	-0.1909	26.46	0.74	-0.750			
0.8630	55233.24	3.2370	3.2370	-0.1882	26.46	0.74	-0.750			
0.8636	55269.14	3.2340	3.2339	-0.1854	26.46	0.74	-0.750			
0.8641	55304.30	3.2310	3.2310	-0.1833	26.47	0.75	-0.750			
0.8647	55339.49	3.2280	3.2281	-0.1821	26.47	0.75	-0.750			
0.8652	55374.49	3.2250	3.2251	-0.1790	26.48	0.76	-0.750			
0.8658	55408.82	3.2220	3.2219	-0.1777	26.48	0.76	-0.750			
0.8663	55442.38	3.2190	3.2190	-0.1747	26.49	0.77	-0.750			
0.8668	55475.43	3.2160	3.2160	-0.1722	26.49	0.77	-0.750			
0.8673	55508.56	3.2130	3.2129	-0.1696	26.50	0.78	-0.750			
0.8678	55541.06	3.2100	3.2101	-0.1681	26.50	0.78	-0.750			
0.8683	55572.84	3.2070	3.2071	-0.1657	26.50	0.78	-0.750			
0.8688	55604.50	3.2040	3.2040	-0.1641	26.51	0.79	-0.750			
0.8693	55636.02	3.2010	3.2009	-0.1625	26.51	0.79	-0.750			
0.8698	55666.75	3.1980	3.1980	-0.1598	26.52	0.80	-0.750			
0.8703	55697.17	3.1950	3.1950	-0.1590	26.52	0.80	-0.750			
0.8707	55727.58	3.1920	3.1920	-0.1578	26.52	0.80	-0.750			
0.8712	55757.96	3.1890	3.1891	-0.1565	26.53	0.81	-0.750			
0.8717	55787.66	3.1860	3.1859	-0.1546	26.53	0.81	-0.750			
0.8721	55817.33	3.1830	3.1831	-0.1531	26.54	0.82	-0.750			
0.8726	55846.57	3.1800	3.1801	-0.1515	26.54	0.82	-0.750			
0.8731	55875.56	3.1770	3.1769	-0.1504	26.54	0.82	-0.750			
0.8735	55904.53	3.1740	3.1740	-0.1486	26.54	0.82	-0.750			
0.8739	55932.66	3.1710	3.1710	-0.1461	26.55	0.83	-0.750			
0.8744	55960.54	3.1680	3.1679	-0.1444	26.56	0.84	-0.750			
0.8748	55988.04	3.1650	3.1651	-0.1437	26.56	0.84	-0.750			
0.8752	56015.45	3.1620	3.1619	-0.1423	26.57	0.85	-0.750			
0.8757	56042.59	3.1590	3.1589	-0.1411	26.57	0.85	-0.750			
0.8761	56069.53	3.1560	3.1559	-0.1407	26.58	0.86	-0.750			
0.8765	56096.30	3.1530	3.1531	-0.1397	26.58	0.86	-0.750			
0.8769	56123.46	3.1500	3.1500	-0.1392	26.59	0.87	-0.750			
0.8773	56150.08	3.1470	3.1470	-0.1380	26.59	0.87	-0.750			
0.8778	56176.56	3.1440	3.1439	-0.1371	26.60	0.88	-0.750			
0.8782	56202.69	3.1410	3.1410	-0.1355	26.60	0.88	-0.750			
0.8786	56228.69	3.1380	3.1379	-0.1346	26.61	0.89	-0.750			
0.8790	56254.39	3.1350	3.1350	-0.1332	26.61	0.89	-0.750			
0.8794	56279.65	3.1320	3.1320	-0.1319	26.62	0.90	-0.750			
0.8798	56304.84	3.1290	3.1290	-0.1308	26.62	0.90	-0.750			
0.8802	56329.93	3.1260	3.1260	-0.1300	26.63	0.91	-0.750			
0.8805	56354.81	3.1230	3.1230	-0.1287	26.63	0.91	-0.750			
0.8809	56379.34	3.1200	3.1198	-0.1274	26.64	0.92	-0.750			
0.8813	56403.69	3.1170	3.1170	-0.1269	26.64	0.92	-0.750			
0.8817	56427.84	3.1140	3.1140	-0.1258	26.65	0.93	-0.750			
0.8821	56451.96	3.1110	3.1110	-0.1250	26.65	0.93	-0.750			
0.8824	56475.82	3.1080	3.1080	-0.1241	26.66	0.94	-0.750			
0.8828	56499.58	3.1050	3.1051	-0.1235	26.66	0.94	-0.750			
0.8832	56523.44	3.1020	3.1020	-0.1222	26.67	0.95	-0.750			
0.8835	56546.80	3.0990	3.0990	-0.1211	26.67	0.95	-0.750			
0.8839	56569.89	3.0960	3.0961	-0.1210	26.68	0.96	-0.750			
0.8843	56593.05	3.0930	3.0932	-0.1202	26.68	0.96	-0.750			
0.8846	56616.04	3.0900	3.0898	-0.1187	26.69	0.97	-0.750			
0.8850	56638.82	3.0870	3.0868	-0.1178	26.69	0.97	-0.750			
0.8853	56661.15	3.0840	3.0840	-0.1172	26.70	0.98	-0.750			
0.8857	56683.48	3.0810	3.0812	-0.1164	26.70	0.98	-0.750			
0.8860	56705.78	3.0780	3.0781	-0.1158	26.71	0.99	-0.750			
0.8864	56728.14	3.0750	3.0749	-0.1155	26.71	0.99	-0.750			
0.8867	56750.20	3.0720	3.0719	-0.1148	26.72	1.00	-0.750			
0.8871	56771.78	3.0690	3.0691	-0.1136	26.72	1.00	-0.750			
0.8874	56793.72	3.0660	3.0661	-0.1130	26.73	1.01	-0.750			
0.8877	56815.79	3.0630	3.0631	-0.1129	26.73	1.01	-0.750			
0.8881	56837.19	3.0600	3.0599	-0.1126	26.74	1.02	-0.750			
0.8884	56858.48	3.0570	3.0570	-0.1117	26.74	1.02	-0.750			
0.8888	56880.05	3.0540	3.0540	-0.1108	26.75	1.03	-0.750			
0.8891	56901.31	3.0510	3.0509	-0.1102	26.75	1.03	-0.750			
0.8894	56922.44	3.0480	3.0480	-0.1094	26.76	1.04	-0.750			
0.8897	56943.48	3.0450	3.0452	-0.1088	26.77	1.05	-0.750			
0.8901	56964.19	3.0420	3.0420	-0.1081	26.77	1.05	-0.750			
0.8904	56984.92	3.0390	3.0389	-0.1074	26.78	1.06	-0.750			
0.8907	57005.44	3.0360	3.0360	-0.1066	26.78	1.06	-0.750			
0.8910	57025.58	3.0330	3.0330	-0.1055	26.79	1.07	-0.750			
0.8913	57045.81	3.0300	3.0300	-0.1051	26.79	1.07	-0.750			
0.8917	57066.05	3.0270	3.0269	-0.1048	26.80	1.08	-0.750			
0.8920	57086.25	3.0240	3.0241	-0.1037	26.80	1.08	-0.750			
0.8923	57106.18	3.0210	3.0209	-0.1029	26.81	1.09	-0.750			
0.8926	57125.72	3.0180	3.0180	-0.1023	26.81	1.09	-0.750			
0.8929	57145.22	3.0150	3.0151	-0.1014	26.82	1.10	-0.750			
0.8932	57164.62	3.0120	3.0121	-0.1007	26.82	1.10	-0.750			
0.8935	57183.87	3.0090	3.0088	-0.1001	26.83	1.11	-0.751			
0.8938	57203.02	3.0060	3.0060	-0.0994	26.83	1.11	-0.751			
0.8941	57222.07	3.0030	3.0030	-0.1022	26.83	1.11	-0.751			
