Ah_balance (normalized)	Ah_balance (mAh)	Voltage - fit (V)	Voltage -  interpolate (V)	dQ/dV (1/V)	Temperature (°C)	Temperature - diff (°C)	Current (C)	R_DC 0ms (mOhm)	R_DC 50ms (mOhm)	R_DC 50 ms PEC (mOhm)
0.0541	3460.29	4.1970	4.1970	0.7511	26.58	0.63	0.750			
0.0563	3606.22	4.1940	4.1941	0.7585	26.58	0.63	0.750			
0.0586	3751.79	4.1910	4.1910	0.7584	26.58	0.63	0.750			
0.0609	3897.63	4.1880	4.1880	0.7541	26.58	0.63	0.750			
0.0632	4041.70	4.1850	4.1850	0.7575	26.58	0.63	0.750			
0.0654	4186.67	4.1820	4.1820	0.7575	26.58	0.63	0.750			
0.0677	4331.32	4.1790	4.1785	0.7589	26.58	0.63	0.750			
0.0700	4477.08	4.1760	4.1760	0.7627	26.58	0.63	0.750			
0.0723	4625.10	4.1730	4.1731	0.7636	26.58	0.63	0.750			
0.0746	4772.33	4.1700	4.1700	0.7686	26.57	0.62	0.750			
0.0769	4920.59	4.1670	4.1669	0.7713	26.57	0.62	0.750			
0.0792	5065.93	4.1640	4.1641	0.7676	26.57	0.62	0.750			
0.0815	5215.09	4.1610	4.1610	0.7723	26.57	0.62	0.750			
0.0838	5364.62	4.1580	4.1579	0.7706	26.57	0.62	0.750			
0.0861	5511.37	4.1550	4.1550	0.7724	26.57	0.62	0.750			
0.0884	5660.09	4.1520	4.1521	0.7737	26.58	0.63	0.750			
0.0907	5807.03	4.1490	4.1490	0.7716	26.58	0.63	0.750			
0.0931	5955.93	4.1460	4.1459	0.7737	26.58	0.63	0.750			
0.0954	6104.43	4.1430	4.1432	0.7740	26.58	0.63	0.750			
0.0977	6253.90	4.1400	4.1400	0.7695	26.57	0.62	0.750			
0.1000	6402.66	4.1370	4.1370	0.7742	26.57	0.62	0.750			
0.1023	6550.08	4.1340	4.1340	0.7741	26.56	0.61	0.750			
0.1046	6697.17	4.1310	4.1308	0.7749	26.56	0.61	0.750			
0.1070	6845.49	4.1280	4.1280	0.7801	26.56	0.61	0.750			
0.1093	6997.19	4.1250	4.1250	0.7767	26.56	0.61	0.750			
0.1117	7145.99	4.1220	4.1219	0.7803	26.56	0.61	0.750			
0.1140	7296.73	4.1190	4.1191	0.7864	26.56	0.61	0.750			
0.1164	7446.51	4.1160	4.1160	0.7851	26.56	0.61	0.750			
0.1187	7596.88	4.1130	4.1129	0.7885	26.56	0.61	0.750			
0.1211	7749.89	4.1100	4.1100	0.7903	26.56	0.61	0.750			
0.1235	7901.08	4.1070	4.1070	0.7928	26.56	0.61	0.750			
0.1259	8055.12	4.1040	4.1040	0.7964	26.56	0.61	0.750			
0.1282	8207.45	4.1010	4.1010	0.7945	26.56	0.61	0.750			
0.1306	8359.84	4.0980	4.0979	0.7936	26.56	0.61	0.750			
0.1330	8512.55	4.0950	4.0950	0.7983	26.56	0.61	0.750			
0.1354	8666.57	4.0920	4.0920	0.7922	26.56	0.61	0.750			
0.1378	8817.24	4.0890	4.0890	0.7963	26.56	0.61	0.750			
0.1401	8969.38	4.0860	4.0861	0.7967	26.56	0.61	0.750			
0.1425	9121.96	4.0830	4.0829	0.8056	26.56	0.61	0.750			
0.1450	9277.50	4.0800	4.0800	0.8084	26.56	0.61	0.750			
0.1474	9435.31	4.0770	4.0770	0.8037	26.56	0.61	0.750			
0.1498	9590.27	4.0740	4.0741	0.8111	26.56	0.61	0.750			
0.1523	9746.53	4.0710	4.0711	0.8124	26.56	0.61	0.750			
0.1547	9901.16	4.0680	4.0678	0.8114	26.56	0.61	0.750			
0.1571	10056.25	4.0650	4.0651	0.8172	26.56	0.61	0.750			
0.1596	10213.44	4.0620	4.0620	0.8141	26.56	0.61	0.750			
0.1621	10371.28	4.0590	4.0590	0.8231	26.56	0.61	0.750			
0.1646	10531.88	4.0560	4.0560	0.8256	26.56	0.61	0.750			
0.1670	10688.81	4.0530	4.0530	0.8230	26.56	0.61	0.750			
0.1695	10846.72	4.0500	4.0501	0.8262	26.56	0.61	0.750			
0.1720	11007.11	4.0470	4.0469	0.8166	26.56	0.61	0.750			
0.1744	11161.47	4.0440	4.0440	0.8286	26.56	0.61	0.750			
0.1769	11321.64	4.0410	4.0410	0.8350	26.56	0.61	0.750			
0.1794	11480.41	4.0380	4.0379	0.8415	26.56	0.61	0.750			
0.1819	11644.02	4.0350	4.0352	0.8462	26.56	0.61	0.750			
0.1845	11808.32	4.0320	4.0320	0.8455	26.56	0.61	0.750			
0.1870	11970.52	4.0290	4.0290	0.8508	26.56	0.61	0.750			
0.1896	12135.85	4.0260	4.0260	0.8563	26.56	0.61	0.750			
0.1921	12296.24	4.0230	4.0228	0.8517	26.56	0.61	0.750			
0.1947	12461.97	4.0200	4.0200	0.8588	26.56	0.61	0.750			
0.1973	12627.74	4.0170	4.0170	0.8570	26.56	0.61	0.750			
0.1999	12793.52	4.0140	4.0141	0.8610	26.56	0.61	0.750			
0.2025	12959.53	4.0110	4.0110	0.8662	26.56	0.61	0.750			
0.2051	13123.59	4.0080	4.0079	0.8642	26.56	0.61	0.750			
0.2077	13289.97	4.0050	4.0049	0.8633	26.56	0.61	0.750			
0.2103	13456.68	4.0020	4.0020	0.8648	26.56	0.61	0.750			
0.2129	13623.78	3.9990	3.9991	0.8669	26.56	0.61	0.750			
0.2155	13789.78	3.9960	3.9960	0.8719	26.56	0.61	0.750			
0.2181	13957.00	3.9930	3.9930	0.8709	26.56	0.61	0.750			
0.2207	14125.95	3.9900	3.9899	0.8670	26.56	0.61	0.750			
0.2233	14290.98	3.9870	3.9871	0.8732	26.56	0.61	0.750			
0.2259	14459.45	3.9840	3.9840	0.8764	26.56	0.61	0.750			
0.2285	14626.09	3.9810	3.9811	0.8835	26.56	0.61	0.750			
0.2312	14795.78	3.9780	3.9779	0.8875	26.56	0.61	0.750			
0.2339	14966.77	3.9750	3.9751	0.8914	26.56	0.61	0.750			
0.2366	15141.27	3.9720	3.9720	0.8952	26.56	0.61	0.750			
0.2393	15313.53	3.9690	3.9692	0.8985	26.56	0.61	0.750			
0.2420	15485.92	3.9660	3.9659	0.8962	26.56	0.61	0.750			
0.2447	15659.04	3.9630	3.9630	0.8986	26.56	0.61	0.750			
0.2473	15830.31	3.9600	3.9600	0.8939	26.56	0.61	0.750			
0.2500	16001.92	3.9570	3.9571	0.8977	26.56	0.61	0.750			
0.2527	16174.19	3.9540	3.9540	0.9061	26.56	0.61	0.750			
0.2554	16348.61	3.9510	3.9509	0.9070	26.56	0.61	0.750			
0.2582	16525.91	3.9480	3.9479	0.8951	26.56	0.61	0.750			
0.2609	16697.07	3.9450	3.9452	0.8961	26.56	0.61	0.750			
0.2636	16870.09	3.9420	3.9420	0.8953	26.57	0.62	0.750			
0.2663	17040.66	3.9390	3.9391	0.8942	26.57	0.62	0.750			
0.2689	17207.33	3.9360	3.9359	0.8917	26.57	0.62	0.750			
0.2715	17377.60	3.9330	3.9331	0.8954	26.57	0.62	0.750			
0.2743	17552.01	3.9300	3.9300	0.9069	26.56	0.61	0.750			
0.2770	17728.43	3.9270	3.9270	0.9116	26.56	0.61	0.750			
0.2798	17904.69	3.9240	3.9240	0.9084	26.56	0.61	0.750			
0.2825	18081.45	3.9210	3.9210	0.9081	26.56	0.61	0.750			
0.2852	18254.60	3.9180	3.9180	0.9103	26.55	0.60	0.750			
0.2879	18426.95	3.9150	3.9151	0.9096	26.55	0.60	0.750			
0.2907	18601.66	3.9120	3.9120	0.9175	26.54	0.59	0.750			
0.2934	18778.63	3.9090	3.9090	0.9205	26.54	0.59	0.750			
0.2962	18959.93	3.9060	3.9059	0.9100	26.53	0.58	0.750			
0.2990	19135.42	3.9030	3.9031	0.9205	26.53	0.58	0.750			
0.3017	19309.79	3.9000	3.9002	0.9255	26.53	0.58	0.750			
0.3044	19484.73	3.8970	3.8968	0.9278	26.52	0.57	0.750			
0.3073	19664.74	3.8940	3.8941	0.9346	26.52	0.57	0.750			
0.3101	19843.33	3.8910	3.8911	0.9408	26.51	0.56	0.750			
0.3129	20025.93	3.8880	3.8881	0.9547	26.51	0.56	0.750			
0.3159	20215.58	3.8850	3.8850	0.9647	26.50	0.55	0.750			
0.3187	20398.01	3.8820	3.8820	0.9561	26.50	0.55	0.750			
0.3216	20583.44	3.8790	3.8790	0.9465	26.49	0.54	0.750			
0.3244	20761.88	3.8760	3.8761	0.9566	26.49	0.54	0.750			
0.3273	20945.63	3.8730	3.8731	0.9635	26.48	0.53	0.750			
0.3301	21128.80	3.8700	3.8693	0.9727	26.48	0.53	0.750			
0.3331	21318.69	3.8670	3.8672	0.9690	26.47	0.52	0.750			
0.3360	21506.17	3.8640	3.8641	0.9856	26.47	0.52	0.750			
0.3391	21699.42	3.8610	3.8611	0.9952	26.46	0.51	0.750			
0.3420	21888.47	3.8580	3.8578	0.9893	26.45	0.50	0.750			
0.3450	22080.11	3.8550	3.8551	0.9892	26.44	0.49	0.750			
0.3480	22271.55	3.8520	3.8521	0.9985	26.44	0.49	0.750			
0.3510	22462.55	3.8490	3.8492	1.0076	26.43	0.48	0.750			
0.3540	22658.15	3.8460	3.8458	1.0084	26.42	0.47	0.750			
0.3571	22851.75	3.8430	3.8430	1.0199	26.41	0.46	0.750			
0.3601	23046.67	3.8400	3.8401	1.0131	26.40	0.45	0.750			
0.3631	23240.12	3.8370	3.8371	1.0178	26.39	0.44	0.750			
0.3662	23438.51	3.8340	3.8342	1.0286	26.38	0.43	0.750			
0.3693	23635.44	3.8310	3.8311	1.0239	26.38	0.43	0.750			
0.3724	23832.09	3.8280	3.8282	1.0227	26.37	0.42	0.750			
0.3755	24031.06	3.8250	3.8251	1.0286	26.36	0.41	0.750			
0.3786	24230.14	3.8220	3.8220	1.0355	26.35	0.40	0.750			
0.3816	24425.11	3.8190	3.8190	1.0234	26.35	0.40	0.750			
0.3847	24620.09	3.8160	3.8160	1.0318	26.34	0.39	0.750			
0.3878	24819.26	3.8130	3.8130	1.0396	26.33	0.38	0.750			
0.3910	25021.97	3.8100	3.8101	1.0553	26.32	0.37	0.750			
0.3942	25226.12	3.8070	3.8071	1.0552	26.31	0.36	0.750			
0.3973	25428.00	3.8040	3.8040	1.0667	26.30	0.35	0.750			
0.4005	25632.79	3.8010	3.8010	1.0808	26.29	0.34	0.750			
0.4038	25840.53	3.7980	3.7980	1.0909	26.27	0.32	0.750			
0.4071	26052.89	3.7950	3.7950	1.0847	26.26	0.31	0.750			
0.4103	26261.39	3.7920	3.7921	1.1126	26.25	0.30	0.750			
0.4137	26474.72	3.7890	3.7891	1.1295	26.24	0.29	0.750			
0.4171	26694.54	3.7860	3.7857	1.1434	26.23	0.28	0.750			
0.4205	26912.23	3.7830	3.7831	1.1622	26.23	0.28	0.750			
0.4240	27137.26	3.7800	3.7802	1.1819	26.22	0.27	0.750			
0.4276	27368.85	3.7770	3.7769	1.2040	26.21	0.26	0.750			
0.4313	27604.05	3.7740	3.7740	1.2085	26.21	0.26	0.750			
0.4349	27833.51	3.7710	3.7712	1.2474	26.20	0.25	0.750			
0.4387	28074.74	3.7680	3.7680	1.2790	26.18	0.23	0.750			
0.4426	28324.96	3.7650	3.7646	1.3071	26.17	0.22	0.750	0.304	0.414	
0.4465	28576.43	3.7620	3.7622	1.3328	26.16	0.21	0.750			
0.4506	28837.12	3.7590	3.7591	1.3720	26.14	0.19	0.750			
0.4549	29111.10	3.7560	3.7557	1.3838	26.13	0.18	0.750			
0.4590	29376.08	3.7530	3.7530	1.3883	26.12	0.17	0.750			
0.4632	29642.88	3.7500	3.7501	1.4166	26.10	0.15	0.750			
0.4675	29922.05	3.7470	3.7468	1.4324	26.09	0.14	0.750			
0.4717	30190.64	3.7440	3.7442	1.4810	26.08	0.13	0.750			
0.4762	30477.28	3.7410	3.7410	1.5572	26.06	0.11	0.750			
0.4810	30782.18	3.7380	3.7376	1.5822	26.05	0.10	0.750			
0.4859	31095.58	3.7350	3.7352	1.6359	26.04	0.09	0.750			
0.4908	31410.41	3.7320	3.7326	1.6751	26.03	0.08	0.750			
0.4959	31736.51	3.7290	3.7287	1.7215	26.02	0.07	0.750			
0.5012	32074.58	3.7260	3.7261	1.7616	26.00	0.05	0.750			
0.5064	32412.32	3.7230	3.7228	1.8002	25.99	0.04	0.750			
0.5120	32768.89	3.7200	3.7198	1.9308	25.98	0.03	0.750			
0.5178	33141.56	3.7170	3.7167	1.9864	25.97	0.02	0.750			
0.5240	33538.25	3.7140	3.7140	2.0404	25.95	-0.00	0.750			
0.5303	33941.68	3.7110	3.7115	2.0783	25.93	-0.02	0.750			
0.5367	34347.15	3.7080	3.7085	2.1235	25.91	-0.04	0.750			
0.5432	34764.28	3.7050	3.7049	2.1588	25.89	-0.06	0.750			
0.5495	35169.12	3.7020	3.7020	2.2024	25.88	-0.07	0.750			
0.5561	35593.33	3.6990	3.6989	2.2922	25.87	-0.08	0.750			
0.5632	36047.67	3.6960	3.6964	2.3606	25.84	-0.11	0.750			
0.5705	36511.64	3.6930	3.6930	2.4176	25.83	-0.12	0.750			
0.5778	36976.03	3.6900	3.6901	2.5216	25.81	-0.14	0.750			
0.5856	37477.35	3.6870	3.6868	2.6187	25.80	-0.15	0.750			
0.5933	37974.03	3.6840	3.6837	2.6343	25.79	-0.16	0.750			
0.6014	38488.38	3.6810	3.6812	2.7529	25.78	-0.17	0.750			
0.6098	39030.02	3.6780	3.6780	2.8650	25.76	-0.19	0.750			
0.6185	39585.00	3.6750	3.6751	2.9411	25.75	-0.20	0.750			
0.6278	40178.44	3.6720	3.6720	3.0426	25.75	-0.20	0.750			
0.6371	40772.51	3.6690	3.6688	2.9764	25.74	-0.21	0.750			
0.6461	41349.01	3.6660	3.6661	2.8212	25.73	-0.22	0.750			
0.6542	41869.88	3.6630	3.6630	2.5605	25.72	-0.23	0.750			
0.6615	42333.90	3.6600	3.6602	2.2869	25.73	-0.22	0.750			
0.6678	42738.19	3.6570	3.6569	2.0603	25.73	-0.22	0.750			
0.6735	43102.68	3.6540	3.6539	1.8614	25.73	-0.22	0.750			
0.6785	43425.72	3.6510	3.6510	1.6940	25.74	-0.21	0.750			
0.6834	43735.35	3.6480	3.6478	1.5749	25.74	-0.21	0.750			
0.6879	44026.21	3.6450	3.6452	1.4609	25.75	-0.20	0.750			
0.6922	44302.08	3.6420	3.6420	1.3709	25.75	-0.20	0.750			
0.6961	44549.49	3.6390	3.6390	1.2844	25.75	-0.20	0.750			
0.6997	44781.71	3.6360	3.6360	1.2386	25.75	-0.20	0.750			
0.7032	45003.12	3.6330	3.6330	1.2001	25.75	-0.20	0.750			
0.7067	45227.88	3.6300	3.6301	1.1928	25.75	-0.20	0.750			
0.7103	45456.51	3.6270	3.6271	1.2011	25.75	-0.20	0.750			
0.7139	45689.01	3.6240	3.6240	1.2115	25.75	-0.20	0.750			
0.7176	45924.01	3.6210	3.6208	1.2172	25.75	-0.20	0.750			
0.7212	46159.10	3.6180	3.6181	1.2163	25.75	-0.20	0.750			
0.7249	46395.88	3.6150	3.6150	1.2071	25.75	-0.20	0.750			
0.7286	46629.84	3.6120	3.6120	1.1950	25.75	-0.20	0.750			
0.7322	46858.98	3.6090	3.6090	1.1702	25.75	-0.20	0.750			
0.7356	47077.96	3.6060	3.6060	1.1517	25.75	-0.20	0.750			
0.7390	47294.56	3.6030	3.6031	1.1402	25.75	-0.20	0.750			
0.7423	47509.45	3.6000	3.5998	1.1371	25.75	-0.20	0.750			
0.7457	47724.24	3.5970	3.5970	1.1467	25.75	-0.20	0.750			
0.7491	47944.66	3.5940	3.5940	1.1723	25.75	-0.20	0.750			
0.7527	48170.94	3.5910	3.5911	1.2031	25.75	-0.20	0.750			
0.7564	48407.16	3.5880	3.5881	1.2181	25.75	-0.20	0.750			
0.7600	48640.79	3.5850	3.5851	1.2805	25.75	-0.20	0.750			
0.7639	48892.35	3.5820	3.5820	1.3158	25.75	-0.20	0.750			
0.7679	49148.25	3.5790	3.5787	1.3560	25.75	-0.20	0.750			
0.7721	49412.45	3.5760	3.5765	1.3954	25.75	-0.20	0.750			
0.7763	49684.48	3.5730	3.5731	1.4530	25.75	-0.20	0.750			
0.7808	49970.15	3.5700	3.5696	1.4946	25.75	-0.20	0.750			
0.7853	50258.98	3.5670	3.5672	1.5361	25.75	-0.20	0.750			
0.7900	50560.54	3.5640	3.5643	1.5831	25.74	-0.21	0.750			
0.7949	50873.80	3.5610	3.5609	1.6104	25.74	-0.21	0.750			
0.7998	51189.28	3.5580	3.5578	1.6311	25.74	-0.21	0.750			
0.8048	51506.67	3.5550	3.5548	1.6043	25.74	-0.21	0.750			
0.8096	51812.90	3.5520	3.5522	1.6170	25.74	-0.21	0.750			
0.8143	52113.27	3.5490	3.5492	1.6277	25.75	-0.20	0.750			
0.8191	52423.22	3.5460	3.5461	1.6405	25.75	-0.20	0.750			
0.8240	52736.77	3.5430	3.5432	1.6796	25.75	-0.20	0.750			
0.8291	53064.90	3.5400	3.5400	1.7412	25.75	-0.20	0.750			
0.8345	53406.49	3.5370	3.5371	1.7899	25.76	-0.19	0.750			
0.8403	53780.04	3.5340	3.5340	1.7484	25.77	-0.18	0.750			
0.8459	54139.04	3.5310	3.5307	1.6120	25.78	-0.17	0.750			
0.8507	54445.16	3.5280	3.5285	1.3996	25.80	-0.15	0.750			
0.8548	54709.75	3.5250	3.5253	1.1710	25.81	-0.14	0.750			
0.8579	54903.20	3.5220	3.5219	0.9048	25.82	-0.13	0.750			
0.8597	55020.34	3.5190	3.5186	0.6796	25.84	-0.11	0.750			
0.8610	55103.45	3.5160	3.5157	0.4949	25.84	-0.11	0.750			
0.8621	55174.37	3.5130	3.5129	0.4006	25.85	-0.10	0.750			
0.8632	55242.81	3.5100	3.5100	0.3641	25.85	-0.10	0.750			
0.8642	55306.57	3.5070	3.5070	0.3340	25.86	-0.09	0.750			
0.8651	55367.60	3.5040	3.5039	0.3164	25.87	-0.08	0.750			
0.8660	55425.31	3.5010	3.5011	0.3013	25.87	-0.08	0.750			
0.8669	55481.88	3.4980	3.4981	0.2930	25.88	-0.07	0.750			
0.8678	55537.07	3.4950	3.4948	0.2848	25.88	-0.07	0.750			
0.8686	55590.46	3.4920	3.4920	0.2768	25.89	-0.06	0.750			
0.8694	55642.56	3.4890	3.4890	0.2718	25.89	-0.06	0.750			
0.8702	55694.56	3.4860	3.4860	0.2673	25.89	-0.06	0.750			
0.8710	55745.54	3.4830	3.4829	0.2627	25.90	-0.05	0.750			
0.8718	55795.19	3.4800	3.4800	0.2566	25.90	-0.05	0.750			
0.8726	55844.12	3.4770	3.4770	0.2516	25.91	-0.04	0.750			
0.8733	55892.21	3.4740	3.4740	0.2468	25.91	-0.04	0.750			
0.8741	55939.32	3.4710	3.4710	0.2408	25.92	-0.03	0.750			
0.8748	55984.77	3.4680	3.4680	0.2340	25.92	-0.03	0.750			
0.8754	56028.51	3.4650	3.4651	0.2276	25.92	-0.03	0.750			
0.8761	56071.90	3.4620	3.4619	0.2226	25.93	-0.02	0.750			
0.8768	56113.77	3.4590	3.4590	0.2170	25.93	-0.02	0.750			
0.8774	56154.87	3.4560	3.4559	0.2123	25.93	-0.02	0.750			
0.8780	56194.94	3.4530	3.4531	0.2074	25.94	-0.01	0.750			
0.8787	56234.33	3.4500	3.4501	0.2039	25.94	-0.01	0.750			
0.8793	56273.37	3.4470	3.4470	0.1996	25.94	-0.01	0.750			
0.8799	56311.58	3.4440	3.4439	0.1949	25.95	-0.00	0.750			
0.8804	56348.52	3.4410	3.4412	0.1898	25.95	0.00	0.750			
0.8810	56384.46	3.4380	3.4381	0.1846	25.95	0.00	0.750			
0.8816	56419.61	3.4350	3.4350	0.1796	25.96	0.01	0.750			
0.8821	56453.66	3.4320	3.4320	0.1738	25.96	0.01	0.750			
0.8826	56486.47	3.4290	3.4290	0.1679	25.96	0.01	0.750			
0.8831	56517.99	3.4260	3.4260	0.1620	25.97	0.02	0.750			
0.8836	56548.64	3.4230	3.4230	0.1568	25.97	0.02	0.750			
0.8840	56578.30	3.4200	3.4199	0.1511	25.97	0.02	0.750			
0.8845	56606.73	3.4170	3.4170	0.1451	25.97	0.02	0.750			
0.8849	56633.92	3.4140	3.4140	0.1394	25.98	0.03	0.750			
0.8853	56660.27	3.4110	3.4111	0.1333	25.98	0.03	0.750			
0.8857	56685.47	3.4080	3.4079	0.1277	25.98	0.03	0.750			
0.8861	56709.48	3.4050	3.4050	0.1209	25.98	0.03	0.750			
0.8864	56732.17	3.4020	3.4020	0.1143	25.99	0.04	0.750			
0.8868	56755.17	3.3990	3.3988	0.1056	25.99	0.04	0.750			
0.8871	56774.83	3.3960	3.3958	0.0977	25.99	0.04	0.750			
0.8874	56792.55	3.3930	3.3930	0.0869	25.99	0.04	0.750			
0.8876	56808.87	3.3900	3.3902	0.0773	25.99	0.04	0.750			
0.8879	56822.60	3.3870	3.3873	0.0657	25.99	0.04	0.750			
0.8881	56835.45	3.3840	3.3841	0.0543	25.99	0.04	0.750			
0.8882	56844.61	3.3810	3.3814	0.0411	25.99	0.04	0.750			
0.8883	56851.23	3.3780	3.3792	0.0279	26.00	0.05	0.750			
0.8884	56855.32	3.3750	3.3774	0.0147	26.00	0.05	0.750			
