Ah_balance (normalized)	Ah_balance (mAh)	Voltage - fit (V)	Voltage -  interpolate (V)	dQ/dV (1/V)	Temperature (°C)	Temperature - diff (°C)	Current (C)	R_DC 0ms (mOhm)	R_DC 50ms (mOhm)	R_DC 50 ms PEC (mOhm)
0.0588	3764.84	4.1960	4.1961	0.7331	25.70	-0.29	0.750			
0.0610	3904.98	4.1930	4.1930	0.7341	25.70	-0.29	0.750			
0.0632	4047.36	4.1900	4.1900	0.7386	25.70	-0.29	0.750			
0.0655	4189.80	4.1870	4.1869	0.7409	25.70	-0.29	0.750			
0.0677	4332.92	4.1840	4.1840	0.7407	25.70	-0.29	0.750			
0.0699	4475.84	4.1810	4.1810	0.7393	25.70	-0.29	0.750			
0.0721	4615.83	4.1780	4.1781	0.7421	25.70	-0.29	0.750			
0.0743	4758.21	4.1750	4.1750	0.7406	25.70	-0.29	0.750			
0.0766	4901.24	4.1720	4.1719	0.7442	25.70	-0.29	0.750			
0.0788	5044.76	4.1690	4.1690	0.7452	25.70	-0.29	0.750			
0.0811	5187.44	4.1660	4.1661	0.7484	25.70	-0.29	0.750			
0.0833	5334.33	4.1630	4.1630	0.7471	25.71	-0.28	0.750			
0.0856	5475.60	4.1600	4.1600	0.7510	25.71	-0.28	0.750			
0.0878	5618.30	4.1570	4.1571	0.7508	25.72	-0.27	0.750			
0.0901	5763.71	4.1540	4.1539	0.7579	25.72	-0.27	0.750			
0.0923	5909.47	4.1510	4.1510	0.7606	25.72	-0.27	0.750			
0.0946	6056.95	4.1480	4.1480	0.7644	25.72	-0.27	0.750			
0.0969	6204.05	4.1450	4.1450	0.7583	25.72	-0.27	0.750			
0.0992	6350.11	4.1420	4.1420	0.7555	25.72	-0.27	0.750			
0.1015	6494.22	4.1390	4.1391	0.7548	25.72	-0.27	0.750			
0.1037	6637.93	4.1360	4.1361	0.7547	25.72	-0.27	0.750			
0.1060	6782.55	4.1330	4.1330	0.7581	25.72	-0.27	0.750			
0.1083	6929.70	4.1300	4.1300	0.7599	25.73	-0.26	0.750			
0.1106	7076.47	4.1270	4.1270	0.7604	25.73	-0.26	0.750			
0.1128	7221.40	4.1240	4.1242	0.7679	25.74	-0.25	0.750			
0.1151	7368.48	4.1210	4.1209	0.7797	25.74	-0.25	0.750			
0.1175	7517.81	4.1180	4.1178	0.7861	25.74	-0.25	0.750			
0.1199	7672.43	4.1150	4.1150	0.7871	25.74	-0.25	0.750			
0.1223	7825.33	4.1120	4.1122	0.7850	25.75	-0.24	0.750			
0.1247	7979.27	4.1090	4.1090	0.7895	25.75	-0.24	0.750			
0.1270	8129.89	4.1060	4.1061	0.7830	25.75	-0.24	0.750			
0.1293	8275.36	4.1030	4.1030	0.7775	25.75	-0.24	0.750			
0.1316	8424.46	4.1000	4.1000	0.7801	25.75	-0.24	0.750			
0.1340	8575.74	4.0970	4.0970	0.7760	25.75	-0.24	0.750			
0.1363	8724.60	4.0940	4.0941	0.7793	25.75	-0.24	0.750			
0.1387	8874.63	4.0910	4.0911	0.7820	25.75	-0.24	0.750			
0.1410	9022.72	4.0880	4.0877	0.7866	25.75	-0.24	0.750			
0.1433	9173.30	4.0850	4.0850	0.7896	25.75	-0.24	0.750			
0.1457	9325.86	4.0820	4.0820	0.7917	25.75	-0.24	0.750			
0.1481	9480.71	4.0790	4.0790	0.7994	25.75	-0.24	0.750			
0.1505	9635.15	4.0760	4.0761	0.7947	25.75	-0.24	0.750			
0.1529	9787.53	4.0730	4.0729	0.7941	25.75	-0.24	0.750			
0.1553	9938.88	4.0700	4.0701	0.7934	25.75	-0.24	0.750			
0.1577	10092.56	4.0670	4.0669	0.7860	25.75	-0.24	0.750			
0.1600	10242.50	4.0640	4.0640	0.7943	25.75	-0.24	0.750			
0.1624	10394.25	4.0610	4.0611	0.7993	25.75	-0.24	0.750			
0.1648	10547.25	4.0580	4.0580	0.8015	25.75	-0.24	0.750			
0.1672	10701.85	4.0550	4.0551	0.8087	25.75	-0.24	0.750			
0.1697	10858.86	4.0520	4.0521	0.8064	25.76	-0.23	0.750			
0.1721	11013.62	4.0490	4.0490	0.8134	25.76	-0.23	0.750			
0.1746	11171.37	4.0460	4.0459	0.8207	25.76	-0.23	0.750			
0.1770	11326.38	4.0430	4.0432	0.8166	25.77	-0.22	0.750			
0.1794	11483.56	4.0400	4.0401	0.8229	25.77	-0.22	0.750			
0.1820	11645.05	4.0370	4.0370	0.8223	25.77	-0.22	0.750			
0.1844	11801.70	4.0340	4.0341	0.8244	25.77	-0.22	0.750			
0.1869	11959.63	4.0310	4.0311	0.8303	25.77	-0.22	0.750			
0.1893	12117.02	4.0280	4.0280	0.8279	25.77	-0.22	0.750			
0.1918	12276.97	4.0250	4.0249	0.8320	25.77	-0.22	0.750			
0.1943	12437.44	4.0220	4.0221	0.8313	25.78	-0.21	0.750			
0.1968	12597.60	4.0190	4.0191	0.8385	25.78	-0.21	0.750			
0.1994	12760.24	4.0160	4.0160	0.8433	25.78	-0.21	0.750			
0.2019	12921.41	4.0130	4.0130	0.8382	25.79	-0.20	0.750			
0.2044	13083.27	4.0100	4.0100	0.8408	25.79	-0.20	0.750			
0.2070	13245.95	4.0070	4.0071	0.8390	25.79	-0.20	0.750			
0.2095	13405.89	4.0040	4.0040	0.8422	25.79	-0.20	0.750			
0.2120	13567.93	4.0010	4.0010	0.8444	25.80	-0.19	0.750			
0.2145	13725.83	3.9980	3.9981	0.8480	25.80	-0.19	0.750			
0.2170	13890.94	3.9950	3.9951	0.8554	25.80	-0.19	0.750			
0.2197	14058.12	3.9920	3.9919	0.8625	25.80	-0.19	0.750			
0.2223	14225.77	3.9890	3.9890	0.8630	25.80	-0.19	0.750			
0.2249	14393.54	3.9860	3.9860	0.8650	25.80	-0.19	0.750			
0.2275	14557.18	3.9830	3.9830	0.8608	25.80	-0.19	0.750			
0.2300	14723.11	3.9800	3.9800	0.8583	25.80	-0.19	0.750			
0.2326	14887.01	3.9770	3.9769	0.8450	25.80	-0.19	0.750			
0.2351	15048.69	3.9740	3.9741	0.8487	25.81	-0.18	0.750			
0.2376	15209.50	3.9710	3.9710	0.8473	25.81	-0.18	0.750			
0.2402	15371.93	3.9680	3.9679	0.8527	25.81	-0.18	0.750			
0.2427	15535.24	3.9650	3.9650	0.8535	25.81	-0.18	0.750			
0.2453	15699.41	3.9620	3.9621	0.8511	25.81	-0.18	0.750			
0.2479	15864.88	3.9590	3.9591	0.8613	25.81	-0.18	0.750			
0.2505	16030.45	3.9560	3.9561	0.8635	25.81	-0.18	0.750			
0.2531	16197.05	3.9530	3.9526	0.8652	25.81	-0.18	0.750			
0.2557	16362.17	3.9500	3.9501	0.8672	25.81	-0.18	0.750			
0.2583	16530.03	3.9470	3.9471	0.8663	25.81	-0.18	0.750			
0.2609	16697.84	3.9440	3.9440	0.8750	25.81	-0.18	0.750			
0.2635	16864.60	3.9410	3.9410	0.8693	25.81	-0.18	0.750			
0.2661	17031.55	3.9380	3.9379	0.8721	25.81	-0.18	0.750			
0.2688	17201.37	3.9350	3.9350	0.8684	25.81	-0.18	0.750			
0.2714	17368.20	3.9320	3.9320	0.8743	25.81	-0.18	0.750			
0.2740	17535.87	3.9290	3.9290	0.8766	25.80	-0.19	0.750			
0.2766	17704.74	3.9260	3.9259	0.8789	25.80	-0.19	0.750			
0.2792	17870.88	3.9230	3.9231	0.8768	25.80	-0.19	0.750			
0.2819	18041.95	3.9200	3.9200	0.8748	25.80	-0.19	0.750			
0.2845	18209.24	3.9170	3.9170	0.8862	25.80	-0.19	0.750			
0.2872	18379.06	3.9140	3.9140	0.8960	25.79	-0.20	0.750			
0.2899	18550.44	3.9110	3.9109	0.8993	25.79	-0.20	0.750			
0.2926	18725.82	3.9080	3.9081	0.9045	25.79	-0.20	0.750			
0.2953	18901.16	3.9050	3.9051	0.9111	25.78	-0.21	0.750			
0.2981	19077.57	3.9020	3.9021	0.9120	25.78	-0.21	0.750			
0.3009	19254.55	3.8990	3.8990	0.9169	25.77	-0.22	0.750			
0.3035	19427.16	3.8960	3.8959	0.9071	25.77	-0.22	0.750			
0.3063	19601.60	3.8930	3.8929	0.9066	25.77	-0.22	0.750			
0.3090	19775.25	3.8900	3.8901	0.9117	25.76	-0.23	0.750			
0.3117	19950.23	3.8870	3.8870	0.9147	25.76	-0.23	0.750			
0.3145	20127.17	3.8840	3.8840	0.9153	25.75	-0.24	0.750			
0.3172	20303.12	3.8810	3.8810	0.9193	25.75	-0.24	0.750			
0.3200	20478.77	3.8780	3.8780	0.9172	25.74	-0.25	0.750			
0.3227	20655.47	3.8750	3.8750	0.9239	25.73	-0.26	0.750			
0.3255	20831.84	3.8720	3.8720	0.9277	25.73	-0.26	0.750			
0.3283	21009.17	3.8690	3.8687	0.9357	25.72	-0.27	0.750			
0.3311	21190.42	3.8660	3.8660	0.9412	25.71	-0.28	0.750			
0.3339	21372.26	3.8630	3.8630	0.9471	25.71	-0.28	0.750			
0.3368	21556.80	3.8600	3.8601	0.9497	25.70	-0.29	0.750			
0.3397	21739.18	3.8570	3.8570	0.9445	25.69	-0.30	0.750			
0.3425	21922.76	3.8540	3.8539	0.9412	25.69	-0.30	0.750			
0.3453	22101.20	3.8510	3.8511	0.9399	25.68	-0.31	0.750			
0.3481	22280.02	3.8480	3.8480	0.9417	25.67	-0.32	0.750			
0.3510	22461.40	3.8450	3.8450	0.9464	25.67	-0.32	0.750			
0.3538	22640.79	3.8420	3.8419	0.9472	25.66	-0.33	0.750			
0.3567	22827.78	3.8390	3.8390	0.9381	25.65	-0.34	0.750			
0.3595	23009.61	3.8360	3.8361	0.9360	25.65	-0.34	0.750			
0.3623	23187.37	3.8330	3.8331	0.9308	25.64	-0.35	0.750			
0.3650	23360.48	3.8300	3.8302	0.9345	25.63	-0.36	0.750			
0.3678	23537.37	3.8270	3.8268	0.9342	25.63	-0.36	0.750			
0.3706	23717.11	3.8240	3.8240	0.9536	25.62	-0.37	0.750			
0.3735	23902.62	3.8210	3.8211	0.9733	25.61	-0.38	0.750			
0.3765	24096.71	3.8180	3.8181	1.0018	25.60	-0.39	0.750			
0.3795	24290.87	3.8150	3.8150	0.9986	25.60	-0.39	0.750			
0.3825	24482.38	3.8120	3.8120	1.0038	25.59	-0.40	0.750			
0.3855	24673.26	3.8090	3.8091	1.0178	25.59	-0.40	0.750			
0.3886	24869.17	3.8060	3.8061	1.0342	25.58	-0.41	0.750			
0.3917	25071.18	3.8030	3.8028	1.0384	25.58	-0.41	0.750			
0.3948	25268.06	3.8000	3.8001	1.0653	25.57	-0.42	0.750			
0.3980	25474.53	3.7970	3.7971	1.0886	25.56	-0.43	0.750			
0.4014	25689.33	3.7940	3.7940	1.0993	25.55	-0.44	0.750			
0.4047	25903.18	3.7910	3.7910	1.0981	25.54	-0.45	0.750			
0.4080	26113.38	3.7880	3.7882	1.1150	25.53	-0.46	0.750			
0.4114	26328.50	3.7850	3.7849	1.1298	25.53	-0.46	0.750			
0.4148	26547.32	3.7820	3.7818	1.1304	25.52	-0.47	0.750			
0.4181	26757.69	3.7790	3.7792	1.1519	25.52	-0.47	0.750			
0.4215	26979.08	3.7760	3.7762	1.1998	25.51	-0.48	0.750			
0.4252	27214.53	3.7730	3.7724	1.2463	25.50	-0.49	0.750			
0.4290	27458.77	3.7700	3.7703	1.2598	25.50	-0.49	0.750	0.289	0.431	
0.4329	27706.91	3.7670	3.7673	1.2905	25.49	-0.50	0.750			
0.4369	27962.93	3.7640	3.7641	1.3272	25.47	-0.52	0.750			
0.4410	28224.57	3.7610	3.7604	1.3329	25.46	-0.53	0.750			
0.4448	28466.33	3.7580	3.7582	1.3344	25.45	-0.54	0.750			
0.4488	28724.30	3.7550	3.7551	1.3672	25.45	-0.54	0.750			
0.4530	28990.89	3.7520	3.7517	1.4054	25.44	-0.55	0.750			
0.4573	29264.15	3.7490	3.7491	1.4264	25.43	-0.56	0.750			
0.4617	29545.66	3.7460	3.7460	1.4572	25.43	-0.56	0.750			
0.4661	29827.27	3.7430	3.7428	1.5081	25.42	-0.57	0.750			
0.4706	30119.08	3.7400	3.7401	1.5484	25.41	-0.58	0.750			
0.4753	30421.86	3.7370	3.7371	1.5833	25.40	-0.59	0.750			
0.4801	30728.20	3.7340	3.7339	1.6399	25.40	-0.59	0.750			
0.4851	31047.10	3.7310	3.7310	1.6732	25.39	-0.60	0.750			
0.4903	31379.81	3.7280	3.7279	1.7268	25.38	-0.61	0.750			
0.4955	31715.04	3.7250	3.7249	1.7626	25.37	-0.62	0.750			
0.5009	32057.10	3.7220	3.7221	1.7944	25.36	-0.63	0.750			
0.5062	32399.93	3.7190	3.7192	1.8687	25.35	-0.64	0.750			
0.5120	32768.99	3.7160	3.7161	1.9124	25.33	-0.66	0.750			
0.5178	33141.86	3.7130	3.7130	1.9599	25.32	-0.67	0.750			
0.5238	33523.08	3.7100	3.7100	2.0306	25.32	-0.67	0.750			
0.5299	33916.68	3.7070	3.7072	2.0773	25.32	-0.67	0.750			
0.5363	34322.72	3.7040	3.7042	2.1489	25.32	-0.67	0.750			
0.5429	34743.44	3.7010	3.7008	2.2140	25.32	-0.67	0.750			
0.5496	35172.67	3.6980	3.6979	2.2988	25.31	-0.68	0.750			
0.5565	35616.97	3.6950	3.6952	2.3395	25.30	-0.69	0.750			
0.5637	36077.44	3.6920	3.6920	2.4419	25.30	-0.69	0.750			
0.5711	36547.69	3.6890	3.6891	2.5163	25.30	-0.69	0.750			
0.5787	37038.52	3.6860	3.6859	2.5750	25.29	-0.70	0.750			
0.5867	37547.57	3.6830	3.6831	2.6797	25.29	-0.70	0.750			
0.5948	38069.66	3.6800	3.6801	2.7387	25.29	-0.70	0.750			
0.6032	38604.41	3.6770	3.6772	2.7432	25.29	-0.70	0.750			
0.6116	39141.01	3.6740	3.6740	2.7093	25.30	-0.69	0.750			
0.6198	39666.81	3.6710	3.6709	2.5607	25.31	-0.68	0.750			
0.6274	40151.18	3.6680	3.6681	2.3693	25.32	-0.67	0.750			
0.6340	40575.61	3.6650	3.6653	2.1333	25.33	-0.66	0.750			
0.6399	40955.65	3.6620	3.6620	1.9234	25.34	-0.65	0.750			
0.6452	41292.46	3.6590	3.6591	1.7437	25.35	-0.64	0.750			
0.6500	41601.64	3.6560	3.6561	1.6005	25.35	-0.64	0.750			
0.6546	41897.42	3.6530	3.6528	1.5101	25.36	-0.63	0.750			
0.6590	42177.63	3.6500	3.6501	1.4274	25.37	-0.62	0.750			
0.6631	42438.87	3.6470	3.6472	1.3417	25.38	-0.61	0.750			
0.6670	42689.28	3.6440	3.6439	1.2475	25.38	-0.61	0.750			
0.6706	42915.83	3.6410	3.6411	1.2069	25.39	-0.60	0.750			
0.6739	43130.69	3.6380	3.6381	1.1610	25.39	-0.60	0.750			
0.6773	43349.54	3.6350	3.6349	1.1554	25.40	-0.59	0.750			
0.6807	43566.04	3.6320	3.6321	1.1509	25.41	-0.58	0.750			
0.6841	43784.87	3.6290	3.6291	1.1621	25.42	-0.57	0.750			
0.6877	44015.23	3.6260	3.6261	1.1750	25.43	-0.56	0.750			
0.6914	44247.77	3.6230	3.6228	1.1612	25.44	-0.55	0.750			
0.6948	44470.14	3.6200	3.6201	1.1591	25.45	-0.54	0.750			
0.6983	44693.35	3.6170	3.6171	1.1526	25.45	-0.54	0.750			
0.7018	44913.96	3.6140	3.6140	1.1392	25.46	-0.53	0.750			
0.7052	45131.69	3.6110	3.6111	1.1242	25.46	-0.53	0.750			
0.7085	45342.56	3.6080	3.6082	1.1158	25.47	-0.52	0.750			
0.7118	45557.42	3.6050	3.6049	1.1144	25.47	-0.52	0.750			
0.7152	45771.38	3.6020	3.6019	1.1204	25.48	-0.51	0.750			
0.7184	45978.03	3.5990	3.5991	1.1322	25.49	-0.50	0.750			
0.7218	46197.76	3.5960	3.5961	1.1550	25.49	-0.50	0.750			
0.7254	46423.36	3.5930	3.5929	1.1844	25.50	-0.49	0.750			
0.7290	46653.56	3.5900	3.5901	1.2069	25.51	-0.48	0.750			
0.7326	46884.75	3.5870	3.5873	1.2484	25.51	-0.48	0.750			
0.7364	47127.68	3.5840	3.5839	1.2936	25.52	-0.47	0.750			
0.7403	47378.66	3.5810	3.5807	1.3313	25.52	-0.47	0.750			
0.7443	47632.93	3.5780	3.5781	1.3689	25.53	-0.46	0.750			
0.7485	47905.10	3.5750	3.5751	1.4318	25.54	-0.45	0.750			
0.7530	48188.86	3.5720	3.5718	1.4567	25.55	-0.44	0.750			
0.7573	48465.30	3.5690	3.5690	1.4972	25.55	-0.44	0.750			
0.7619	48758.74	3.5660	3.5662	1.5298	25.56	-0.43	0.750			
0.7665	49058.24	3.5630	3.5627	1.5663	25.56	-0.43	0.750			
0.7713	49363.39	3.5600	3.5602	1.5963	25.58	-0.41	0.750			
0.7762	49679.94	3.5570	3.5572	1.6116	25.59	-0.40	0.750			
0.7812	49994.71	3.5540	3.5541	1.6484	25.60	-0.39	0.750			
0.7861	50311.94	3.5510	3.5510	1.6297	25.61	-0.38	0.750			
0.7911	50627.84	3.5480	3.5480	1.6441	25.62	-0.37	0.750			
0.7960	50946.66	3.5450	3.5450	1.6738	25.64	-0.35	0.750			
0.8010	51261.27	3.5420	3.5420	1.7010	25.65	-0.34	0.750			
0.8062	51597.41	3.5390	3.5389	1.7034	25.67	-0.32	0.750			
0.8116	51941.19	3.5360	3.5358	1.6610	25.69	-0.30	0.750			
0.8168	52272.08	3.5330	3.5329	1.4959	25.71	-0.28	0.750			
0.8216	52583.49	3.5300	3.5305	1.3287	25.73	-0.26	0.750			
0.8252	52812.06	3.5270	3.5276	1.0769	25.75	-0.24	0.750			
0.8279	52986.87	3.5240	3.5239	0.8247	25.77	-0.22	0.750			
0.8297	53098.41	3.5210	3.5209	0.5838	25.78	-0.21	0.750			
0.8310	53181.75	3.5180	3.5177	0.4688	25.80	-0.19	0.750			
0.8321	53251.28	3.5150	3.5148	0.3896	25.81	-0.18	0.750			
0.8331	53316.65	3.5120	3.5120	0.3562	25.81	-0.18	0.750			
0.8340	53378.94	3.5090	3.5090	0.3297	25.82	-0.17	0.750			
0.8350	53439.35	3.5060	3.5059	0.3129	25.83	-0.16	0.750			
0.8359	53497.91	3.5030	3.5028	0.3010	25.84	-0.15	0.750			
0.8368	53553.94	3.5000	3.5002	0.2903	25.85	-0.14	0.750			
0.8376	53608.77	3.4970	3.4970	0.2826	25.85	-0.14	0.750			
0.8385	53661.82	3.4940	3.4940	0.2746	25.86	-0.13	0.750			
0.8393	53713.64	3.4910	3.4910	0.2666	25.87	-0.12	0.750			
0.8401	53763.94	3.4880	3.4880	0.2602	25.87	-0.12	0.750			
0.8408	53813.01	3.4850	3.4848	0.2558	25.88	-0.11	0.750			
0.8416	53861.73	3.4820	3.4821	0.2486	25.88	-0.11	0.750			
0.8423	53908.72	3.4790	3.4789	0.2433	25.89	-0.10	0.750			
0.8430	53955.15	3.4760	3.4759	0.2366	25.89	-0.10	0.750			
0.8438	54000.16	3.4730	3.4732	0.2314	25.90	-0.09	0.750			
0.8444	54043.39	3.4700	3.4698	0.2248	25.91	-0.08	0.750			
0.8451	54086.47	3.4670	3.4671	0.2199	25.91	-0.08	0.750			
0.8457	54127.73	3.4640	3.4639	0.2137	25.92	-0.07	0.750			
0.8464	54167.63	3.4610	3.4610	0.2079	25.92	-0.07	0.750			
0.8470	54207.95	3.4580	3.4581	0.2043	25.93	-0.06	0.750			
0.8476	54246.19	3.4550	3.4550	0.1983	25.94	-0.05	0.750			
0.8482	54284.32	3.4520	3.4519	0.1938	25.94	-0.05	0.750			
0.8488	54320.97	3.4490	3.4489	0.1874	25.95	-0.04	0.750			
0.8493	54356.43	3.4460	3.4461	0.1815	25.95	-0.04	0.750			
0.8499	54390.62	3.4430	3.4430	0.1760	25.96	-0.03	0.750			
0.8504	54423.82	3.4400	3.4400	0.1711	25.96	-0.03	0.750			
0.8509	54456.06	3.4370	3.4369	0.1651	25.97	-0.02	0.750			
0.8514	54487.27	3.4340	3.4340	0.1599	25.97	-0.02	0.750			
0.8518	54517.60	3.4310	3.4310	0.1539	25.98	-0.01	0.750			
0.8523	54546.67	3.4280	3.4281	0.1482	25.98	-0.01	0.750			
0.8527	54574.67	3.4250	3.4251	0.1429	25.98	-0.01	0.750			
0.8531	54601.52	3.4220	3.4218	0.1368	25.99	-0.00	0.750			
0.8535	54627.12	3.4190	3.4190	0.1302	25.99	0.00	0.750			
0.8539	54651.38	3.4160	3.4160	0.1239	26.00	0.01	0.750			
0.8543	54675.23	3.4130	3.4131	0.1173	26.00	0.01	0.750			
0.8546	54697.03	3.4100	3.4100	0.1098	26.00	0.01	0.750			
0.8550	54718.79	3.4070	3.4068	0.1009	26.01	0.02	0.750			
0.8553	54737.54	3.4040	3.4040	0.0923	26.01	0.02	0.750			
0.8555	54754.25	3.4010	3.4011	0.0818	26.01	0.02	0.750			
0.8558	54769.40	3.3980	3.3980	0.0720	26.01	0.02	0.750			
0.8560	54782.17	3.3950	3.3954	0.0611	26.02	0.03	0.750			
0.8561	54793.50	3.3920	3.3927	0.0501	26.02	0.03	0.750			
0.8563	54802.00	3.3890	3.3898	0.0384	26.02	0.03	0.750			
0.8564	54808.25	3.3860	3.3876	0.0267	26.02	0.03	0.750			
0.8564	54812.25	3.3830	3.3851	0.0150	26.02	0.03	0.750			
