Ah_balance (normalized)	Ah_balance (mAh)	Voltage - fit (V)	Voltage -  interpolate (V)	dQ/dV (1/V)	Temperature (°C)	Temperature - diff (°C)	Current (C)	R_DC 0ms (mOhm)	R_DC 50ms (mOhm)	R_DC 50 ms PEC (mOhm)
0.0004	23.25	4.1580	4.1577	-0.1134	25.84	0.02	-0.750			
0.0008	50.27	4.1550	4.1548	-0.1567	25.84	0.02	-0.750			
0.0013	83.73	4.1520	4.1521	-0.1967	25.84	0.02	-0.750			
0.0020	126.74	4.1490	4.1490	-0.2330	25.83	0.01	-0.750			
0.0027	175.10	4.1460	4.1460	-0.2689	25.83	0.01	-0.750			
0.0036	230.52	4.1430	4.1430	-0.3068	25.83	0.01	-0.750			
0.0046	293.04	4.1400	4.1401	-0.3400	25.83	0.01	-0.750			
0.0057	362.60	4.1370	4.1368	-0.3696	25.83	0.01	-0.750			
0.0068	437.08	4.1340	4.1339	-0.3973	25.82	0.00	-0.750			
0.0081	516.11	4.1310	4.1313	-0.4238	25.82	-0.00	-0.750			
0.0094	600.46	4.1280	4.1280	-0.4508	25.82	-0.00	-0.750			
0.0108	690.48	4.1250	4.1249	-0.4704	25.81	-0.01	-0.750			
0.0122	782.54	4.1220	4.1220	-0.4910	25.81	-0.01	-0.750			
0.0137	878.88	4.1190	4.1191	-0.5127	25.81	-0.01	-0.750			
0.0153	979.36	4.1160	4.1161	-0.5328	25.80	-0.02	-0.750			
0.0169	1084.45	4.1130	4.1129	-0.5486	25.80	-0.02	-0.750			
0.0186	1191.41	4.1100	4.1100	-0.5626	25.79	-0.03	-0.750			
0.0203	1301.23	4.1070	4.1072	-0.5768	25.79	-0.03	-0.750			
0.0221	1414.37	4.1040	4.1041	-0.5899	25.79	-0.03	-0.750			
0.0239	1528.93	4.1010	4.1009	-0.5979	25.78	-0.04	-0.750			
0.0257	1643.94	4.0980	4.0980	-0.6095	25.78	-0.04	-0.750			
0.0275	1761.55	4.0950	4.0951	-0.6174	25.78	-0.04	-0.750			
0.0294	1882.61	4.0920	4.0919	-0.6240	25.78	-0.04	-0.750			
0.0313	2003.60	4.0890	4.0890	-0.6305	25.77	-0.05	-0.750			
0.0332	2124.56	4.0860	4.0863	-0.6361	25.77	-0.05	-0.750			
0.0351	2248.18	4.0830	4.0831	-0.6400	25.77	-0.05	-0.750			
0.0370	2370.76	4.0800	4.0799	-0.6463	25.76	-0.06	-0.750			
0.0390	2494.08	4.0770	4.0770	-0.6568	25.76	-0.06	-0.750			
0.0410	2621.90	4.0740	4.0740	-0.6640	25.76	-0.06	-0.750			
0.0430	2751.40	4.0710	4.0709	-0.6641	25.75	-0.07	-0.750			
0.0450	2880.35	4.0680	4.0682	-0.6670	25.75	-0.07	-0.750			
0.0470	3008.56	4.0650	4.0650	-0.6708	25.75	-0.07	-0.750			
0.0490	3138.14	4.0620	4.0619	-0.6708	25.74	-0.08	-0.750			
0.0510	3265.40	4.0590	4.0589	-0.6714	25.74	-0.08	-0.750			
0.0530	3392.21	4.0560	4.0561	-0.6730	25.73	-0.09	-0.750			
0.0551	3524.47	4.0530	4.0530	-0.6825	25.73	-0.09	-0.750			
0.0571	3655.80	4.0500	4.0500	-0.6870	25.72	-0.10	-0.750			
0.0592	3788.07	4.0470	4.0469	-0.6878	25.72	-0.10	-0.750			
0.0613	3920.36	4.0440	4.0440	-0.6911	25.72	-0.10	-0.750			
0.0633	4054.07	4.0410	4.0410	-0.6978	25.72	-0.10	-0.750			
0.0654	4187.76	4.0380	4.0380	-0.6996	25.72	-0.10	-0.750			
0.0676	4323.40	4.0350	4.0349	-0.7000	25.72	-0.10	-0.750			
0.0697	4457.73	4.0320	4.0319	-0.7025	25.72	-0.10	-0.750			
0.0718	4592.66	4.0290	4.0290	-0.7049	25.72	-0.10	-0.750			
0.0739	4728.34	4.0260	4.0259	-0.7089	25.72	-0.10	-0.750			
0.0760	4864.99	4.0230	4.0230	-0.7102	25.72	-0.10	-0.750			
0.0781	5001.25	4.0200	4.0200	-0.7124	25.72	-0.10	-0.750			
0.0803	5139.86	4.0170	4.0169	-0.7141	25.72	-0.10	-0.750			
0.0825	5277.46	4.0140	4.0141	-0.7139	25.72	-0.10	-0.750			
0.0846	5412.99	4.0110	4.0109	-0.7136	25.72	-0.10	-0.750			
0.0867	5549.54	4.0080	4.0080	-0.7163	25.72	-0.10	-0.750			
0.0889	5686.69	4.0050	4.0050	-0.7210	25.72	-0.10	-0.750			
0.0911	5827.64	4.0020	4.0020	-0.7196	25.72	-0.10	-0.750			
0.0932	5967.41	3.9990	3.9990	-0.7214	25.72	-0.10	-0.750			
0.0954	6105.96	3.9960	3.9963	-0.7229	25.72	-0.10	-0.750			
0.0976	6243.80	3.9930	3.9929	-0.7227	25.72	-0.10	-0.750			
0.0997	6380.26	3.9900	3.9899	-0.7302	25.73	-0.09	-0.750			
0.1019	6520.22	3.9870	3.9870	-0.7323	25.73	-0.09	-0.750			
0.1041	6664.61	3.9840	3.9839	-0.7401	25.73	-0.09	-0.750			
0.1064	6807.67	3.9810	3.9810	-0.7432	25.74	-0.08	-0.750			
0.1086	6950.60	3.9780	3.9781	-0.7451	25.74	-0.08	-0.750			
0.1108	7093.52	3.9750	3.9750	-0.7438	25.74	-0.08	-0.750			
0.1130	7234.83	3.9720	3.9719	-0.7435	25.74	-0.08	-0.750			
0.1153	7376.80	3.9690	3.9690	-0.7437	25.75	-0.07	-0.750			
0.1175	7521.77	3.9660	3.9660	-0.7490	25.75	-0.07	-0.750			
0.1198	7667.55	3.9630	3.9630	-0.7510	25.75	-0.07	-0.750			
0.1220	7809.76	3.9600	3.9600	-0.7515	25.75	-0.07	-0.750			
0.1243	7953.09	3.9570	3.9570	-0.7542	25.75	-0.07	-0.750			
0.1266	8099.60	3.9540	3.9540	-0.7549	25.75	-0.07	-0.750			
0.1288	8243.85	3.9510	3.9510	-0.7532	25.75	-0.07	-0.750			
0.1311	8390.21	3.9480	3.9481	-0.7563	25.75	-0.07	-0.750			
0.1334	8535.49	3.9450	3.9451	-0.7571	25.75	-0.07	-0.750			
0.1356	8680.55	3.9420	3.9420	-0.7600	25.75	-0.07	-0.750			
0.1379	8825.48	3.9390	3.9390	-0.7624	25.76	-0.06	-0.750			
0.1402	8972.94	3.9360	3.9361	-0.7643	25.76	-0.06	-0.750			
0.1425	9121.28	3.9330	3.9329	-0.7696	25.77	-0.05	-0.750			
0.1448	9268.65	3.9300	3.9301	-0.7699	25.77	-0.05	-0.750			
0.1471	9416.88	3.9270	3.9269	-0.7717	25.77	-0.05	-0.750			
0.1494	9564.24	3.9240	3.9240	-0.7754	25.77	-0.05	-0.750			
0.1518	9713.92	3.9210	3.9210	-0.7720	25.77	-0.05	-0.750			
0.1541	9861.92	3.9180	3.9181	-0.7753	25.77	-0.05	-0.750			
0.1565	10012.98	3.9150	3.9150	-0.7805	25.77	-0.05	-0.750			
0.1588	10162.03	3.9120	3.9121	-0.7799	25.77	-0.05	-0.750			
0.1611	10309.25	3.9090	3.9089	-0.7902	25.78	-0.04	-0.750			
0.1635	10463.08	3.9060	3.9060	-0.7918	25.78	-0.04	-0.750			
0.1659	10617.65	3.9030	3.9029	-0.7868	25.78	-0.04	-0.750			
0.1683	10770.45	3.9000	3.9000	-0.7843	25.79	-0.03	-0.750			
0.1706	10920.00	3.8970	3.8973	-0.7824	25.79	-0.03	-0.750			
0.1730	11069.32	3.8940	3.8939	-0.7802	25.79	-0.03	-0.750			
0.1752	11215.72	3.8910	3.8909	-0.7846	25.80	-0.02	-0.750			
0.1776	11365.67	3.8880	3.8880	-0.7891	25.80	-0.02	-0.750			
0.1800	11521.62	3.8850	3.8849	-0.7998	25.81	-0.01	-0.750			
0.1824	11676.58	3.8820	3.8822	-0.7977	25.81	-0.01	-0.750			
0.1849	11830.70	3.8790	3.8790	-0.8001	25.81	-0.01	-0.750			
0.1872	11982.94	3.8760	3.8759	-0.7996	25.81	-0.01	-0.750			
0.1896	12135.81	3.8730	3.8730	-0.7963	25.82	-0.00	-0.750			
0.1920	12287.54	3.8700	3.8701	-0.7944	25.82	-0.00	-0.750			
0.1944	12443.27	3.8670	3.8670	-0.7968	25.82	-0.00	-0.750			
0.1968	12595.94	3.8640	3.8640	-0.7955	25.82	0.00	-0.750			
0.1992	12747.16	3.8610	3.8610	-0.7986	25.82	0.00	-0.750			
0.2016	12899.63	3.8580	3.8580	-0.7943	25.82	0.00	-0.750			
0.2039	13052.69	3.8550	3.8550	-0.7941	25.82	0.00	-0.750			
0.2064	13206.49	3.8520	3.8520	-0.7939	25.82	0.00	-0.750			
0.2087	13359.72	3.8490	3.8490	-0.7911	25.82	0.00	-0.750			
0.2111	13508.79	3.8460	3.8461	-0.8001	25.83	0.01	-0.750			
0.2135	13661.40	3.8430	3.8430	-0.8004	25.83	0.01	-0.750			
0.2159	13816.95	3.8400	3.8399	-0.7950	25.84	0.02	-0.750			
0.2183	13972.48	3.8370	3.8369	-0.7921	25.85	0.03	-0.750			
0.2207	14124.20	3.8340	3.8343	-0.7916	25.85	0.03	-0.750			
0.2231	14275.29	3.8310	3.8309	-0.7878	25.85	0.03	-0.750			
0.2254	14424.06	3.8280	3.8279	-0.7866	25.85	0.03	-0.750			
0.2277	14572.86	3.8250	3.8250	-0.7831	25.85	0.03	-0.750			
0.2301	14726.92	3.8220	3.8220	-0.7822	25.85	0.03	-0.750			
0.2325	14877.05	3.8190	3.8192	-0.7848	25.85	0.03	-0.750			
0.2348	15026.89	3.8160	3.8160	-0.7882	25.85	0.03	-0.750			
0.2371	15176.39	3.8130	3.8129	-0.7919	25.86	0.04	-0.750			
0.2395	15327.89	3.8100	3.8099	-0.7927	25.86	0.04	-0.750			
0.2419	15481.17	3.8070	3.8069	-0.7952	25.86	0.04	-0.750			
0.2444	15638.55	3.8040	3.8041	-0.7984	25.87	0.05	-0.750			
0.2468	15793.30	3.8010	3.8009	-0.7911	25.87	0.05	-0.750			
0.2491	15942.85	3.7980	3.7979	-0.7818	25.88	0.06	-0.750			
0.2514	16091.29	3.7950	3.7951	-0.7808	25.88	0.06	-0.750			
0.2537	16238.64	3.7920	3.7919	-0.7708	25.88	0.06	-0.750			
0.2561	16388.81	3.7890	3.7890	-0.7732	25.89	0.07	-0.750			
0.2584	16537.62	3.7860	3.7861	-0.7639	25.89	0.07	-0.750			
0.2607	16683.36	3.7830	3.7831	-0.7572	25.89	0.07	-0.750			
0.2630	16829.03	3.7800	3.7800	-0.7548	25.90	0.08	-0.750			
0.2652	16972.97	3.7770	3.7769	-0.7449	25.90	0.08	-0.750			
0.2674	17113.19	3.7740	3.7740	-0.7382	25.91	0.09	-0.750			
0.2696	17255.37	3.7710	3.7710	-0.7391	25.91	0.09	-0.750			
0.2718	17397.11	3.7680	3.7679	-0.7354	25.91	0.09	-0.750			
0.2740	17538.68	3.7650	3.7649	-0.7354	25.92	0.10	-0.750			
0.2762	17679.00	3.7620	3.7620	-0.7303	25.92	0.10	-0.750			
0.2784	17817.22	3.7590	3.7591	-0.7333	25.92	0.10	-0.750			
0.2806	17959.55	3.7560	3.7560	-0.7396	25.93	0.11	-0.750			
0.2828	18101.63	3.7530	3.7530	-0.7372	25.93	0.11	-0.750			
0.2850	18242.07	3.7500	3.7500	-0.7460	25.93	0.11	-0.750			
0.2873	18385.72	3.7470	3.7471	-0.7583	25.93	0.11	-0.750			
0.2896	18532.60	3.7440	3.7439	-0.7639	25.94	0.12	-0.750			
0.2919	18681.57	3.7410	3.7410	-0.7730	25.94	0.12	-0.750			
0.2942	18829.12	3.7380	3.7380	-0.7770	25.94	0.12	-0.750			
0.2966	18979.31	3.7350	3.7350	-0.7853	25.94	0.12	-0.750			
0.2989	19131.69	3.7320	3.7320	-0.7988	25.94	0.12	-0.750			
0.3013	19284.40	3.7290	3.7290	-0.8040	25.94	0.12	-0.750			
0.3037	19438.66	3.7260	3.7260	-0.8168	25.95	0.13	-0.750			
0.3062	19597.90	3.7230	3.7230	-0.8318	25.95	0.13	-0.750			
0.3087	19758.53	3.7200	3.7201	-0.8451	25.95	0.13	-0.750			
0.3113	19921.27	3.7170	3.7169	-0.8616	25.95	0.13	-0.750			
0.3139	20089.21	3.7140	3.7140	-0.8677	25.95	0.13	-0.750			
0.3165	20256.82	3.7110	3.7109	-0.8790	25.94	0.12	-0.750			
0.3192	20425.85	3.7080	3.7081	-0.8916	25.94	0.12	-0.750			
0.3218	20596.61	3.7050	3.7049	-0.9043	25.94	0.12	-0.750			
0.3246	20771.36	3.7020	3.7020	-0.9321	25.94	0.12	-0.750			
0.3274	20953.22	3.6990	3.6988	-0.9482	25.93	0.11	-0.750			
0.3303	21137.15	3.6960	3.6960	-0.9672	25.93	0.11	-0.750			
0.3332	21327.56	3.6930	3.6932	-0.9865	25.93	0.11	-0.750			
0.3362	21518.71	3.6900	3.6899	-1.0034	25.93	0.11	-0.750			
0.3393	21712.13	3.6870	3.6870	-1.0197	25.93	0.11	-0.750			
0.3423	21906.36	3.6840	3.6840	-1.0327	25.93	0.11	-0.750			
0.3454	22105.47	3.6810	3.6811	-1.0617	25.93	0.11	-0.750			
0.3486	22312.96	3.6780	3.6780	-1.0814	25.92	0.10	-0.750			
0.3519	22522.31	3.6750	3.6750	-1.1031	25.92	0.10	-0.750			
0.3553	22736.85	3.6720	3.6719	-1.1223	25.91	0.09	-0.750			
0.3587	22953.88	3.6690	3.6691	-1.1489	25.91	0.09	-0.750			
0.3621	23177.31	3.6660	3.6660	-1.1715	25.90	0.08	-0.750			
0.3657	23405.89	3.6630	3.6629	-1.1863	25.90	0.08	-0.750			
0.3693	23632.20	3.6600	3.6599	-1.2053	25.89	0.07	-0.750			
0.3730	23868.98	3.6570	3.6570	-1.2331	25.89	0.07	-0.750			
0.3767	24106.38	3.6540	3.6539	-1.2498	25.88	0.06	-0.750			
0.3804	24345.89	3.6510	3.6509	-1.2776	25.87	0.05	-0.750			
0.3842	24590.60	3.6480	3.6481	-1.2997	25.87	0.05	-0.750			
0.3882	24847.01	3.6450	3.6450	-1.3299	25.86	0.04	-0.750			
0.3923	25105.82	3.6420	3.6420	-1.3563	25.85	0.03	-0.750			
0.3963	25366.23	3.6390	3.6391	-1.3845	25.85	0.03	-0.750			
0.4006	25638.45	3.6360	3.6358	-1.4136	25.84	0.02	-0.750			
0.4049	25912.06	3.6330	3.6330	-1.4385	25.83	0.01	-0.750			
0.4092	26190.07	3.6300	3.6300	-1.4603	25.83	0.01	-0.750			
0.4137	26476.09	3.6270	3.6271	-1.4791	25.83	0.01	-0.750			
0.4181	26759.89	3.6240	3.6239	-1.5236	25.82	0.00	-0.750			
0.4227	27052.20	3.6210	3.6210	-1.5387	25.82	-0.00	-0.750			
0.4274	27353.20	3.6180	3.6178	-1.5749	25.81	-0.01	-0.750			
0.4321	27656.17	3.6150	3.6153	-1.6121	25.81	-0.01	-0.750	0.387	0.542	
0.4370	27967.45	3.6120	3.6118	-1.6363	25.81	-0.01	-0.750			
0.4420	28287.59	3.6090	3.6088	-1.6756	25.80	-0.02	-0.750			
0.4471	28611.36	3.6060	3.6060	-1.7122	25.80	-0.02	-0.750			
0.4523	28945.74	3.6030	3.6031	-1.7446	25.79	-0.03	-0.750			
0.4576	29286.56	3.6000	3.6001	-1.7754	25.78	-0.04	-0.750			
0.4629	29624.56	3.5970	3.5970	-1.8092	25.78	-0.04	-0.750			
0.4684	29980.56	3.5940	3.5939	-1.8502	25.77	-0.05	-0.750			
0.4741	30339.43	3.5910	3.5911	-1.8899	25.77	-0.05	-0.750			
0.4798	30706.63	3.5880	3.5881	-1.9281	25.76	-0.06	-0.750			
0.4856	31079.74	3.5850	3.5852	-1.9501	25.76	-0.06	-0.750			
0.4915	31458.87	3.5820	3.5819	-1.9859	25.75	-0.07	-0.750			
0.4975	31839.89	3.5790	3.5790	-2.0208	25.75	-0.07	-0.750			
0.5036	32227.77	3.5760	3.5760	-2.0467	25.76	-0.06	-0.750			
0.5099	32632.09	3.5730	3.5730	-2.0848	25.76	-0.06	-0.750			
0.5162	33034.45	3.5700	3.5700	-2.0977	25.75	-0.07	-0.750			
0.5225	33437.86	3.5670	3.5671	-2.1291	25.75	-0.07	-0.750			
0.5289	33849.13	3.5640	3.5640	-2.1456	25.75	-0.07	-0.750			
0.5354	34263.30	3.5610	3.5610	-2.1551	25.75	-0.07	-0.750			
0.5419	34678.42	3.5580	3.5579	-2.1506	25.75	-0.07	-0.750			
0.5484	35099.07	3.5550	3.5550	-2.1634	25.75	-0.07	-0.750			
0.5549	35515.43	3.5520	3.5520	-2.1641	25.75	-0.07	-0.750			
0.5614	35931.97	3.5490	3.5489	-2.1387	25.75	-0.07	-0.750			
0.5677	36334.22	3.5460	3.5462	-2.1227	25.75	-0.07	-0.750			
0.5741	36743.37	3.5430	3.5430	-2.1221	25.75	-0.07	-0.750			
0.5805	37150.47	3.5400	3.5400	-2.1107	25.76	-0.06	-0.750			
0.5868	37554.62	3.5370	3.5371	-2.0976	25.76	-0.06	-0.750			
0.5931	37961.30	3.5340	3.5339	-2.0760	25.77	-0.05	-0.750			
0.5993	38354.18	3.5310	3.5310	-2.0399	25.78	-0.04	-0.750			
0.6055	38751.92	3.5280	3.5280	-2.0043	25.79	-0.03	-0.750			
0.6114	39129.81	3.5250	3.5249	-1.9643	25.79	-0.03	-0.750			
0.6172	39500.07	3.5220	3.5220	-1.9111	25.80	-0.02	-0.750			
0.6229	39862.41	3.5190	3.5191	-1.8834	25.80	-0.02	-0.750			
0.6285	40223.64	3.5160	3.5160	-1.8348	25.81	-0.01	-0.750			
0.6340	40574.82	3.5130	3.5130	-1.7691	25.82	0.00	-0.750			
0.6392	40910.86	3.5100	3.5101	-1.7304	25.84	0.02	-0.750			
0.6444	41238.41	3.5070	3.5069	-1.6892	25.85	0.03	-0.750			
0.6493	41556.52	3.5040	3.5037	-1.6278	25.86	0.04	-0.750			
0.6541	41864.91	3.5010	3.5014	-1.5830	25.88	0.06	-0.750			
0.6588	42163.29	3.4980	3.4982	-1.5421	25.89	0.07	-0.750			
0.6634	42459.31	3.4950	3.4948	-1.5050	25.91	0.09	-0.750			
0.6679	42744.75	3.4920	3.4919	-1.4618	25.92	0.10	-0.750			
0.6722	43019.22	3.4890	3.4891	-1.4172	25.94	0.12	-0.750			
0.6764	43287.11	3.4860	3.4859	-1.3711	25.95	0.13	-0.750			
0.6804	43546.44	3.4830	3.4829	-1.3299	25.97	0.15	-0.750			
0.6843	43792.66	3.4800	3.4800	-1.2761	25.99	0.17	-0.750			
0.6881	44036.76	3.4770	3.4771	-1.2455	26.00	0.18	-0.750			
0.6918	44272.46	3.4740	3.4740	-1.2054	26.02	0.20	-0.750			
0.6953	44498.63	3.4710	3.4711	-1.1597	26.03	0.21	-0.750			
0.6987	44718.82	3.4680	3.4680	-1.1325	26.05	0.23	-0.750			
0.7021	44932.80	3.4650	3.4650	-1.0949	26.06	0.24	-0.750			
0.7053	45139.47	3.4620	3.4619	-1.0550	26.08	0.26	-0.750			
0.7084	45338.51	3.4590	3.4591	-1.0246	26.09	0.27	-0.750			
0.7114	45530.93	3.4560	3.4559	-0.9941	26.10	0.28	-0.750			
0.7143	45718.13	3.4530	3.4530	-0.9652	26.12	0.30	-0.750			
0.7172	45900.25	3.4500	3.4500	-0.9368	26.13	0.31	-0.750			
0.7200	46076.91	3.4470	3.4471	-0.9159	26.14	0.32	-0.750			
0.7227	46251.10	3.4440	3.4440	-0.8949	26.15	0.33	-0.750			
0.7253	46419.94	3.4410	3.4409	-0.8761	26.16	0.34	-0.750			
0.7279	46583.99	3.4380	3.4380	-0.8595	26.17	0.35	-0.750			
0.7304	46745.77	3.4350	3.4351	-0.8509	26.18	0.36	-0.750			
0.7329	46908.67	3.4320	3.4321	-0.8488	26.19	0.37	-0.750			
0.7355	47070.28	3.4290	3.4290	-0.8523	26.20	0.38	-0.750			
0.7380	47231.42	3.4260	3.4259	-0.8537	26.21	0.39	-0.750			
0.7406	47395.64	3.4230	3.4231	-0.8675	26.23	0.41	-0.750			
0.7432	47563.17	3.4200	3.4199	-0.8812	26.24	0.42	-0.750			
0.7458	47734.19	3.4170	3.4171	-0.8915	26.25	0.43	-0.750			
0.7485	47906.00	3.4140	3.4140	-0.9027	26.26	0.44	-0.750			
0.7513	48083.53	3.4110	3.4110	-0.9058	26.27	0.45	-0.750			
0.7541	48260.03	3.4080	3.4080	-0.9069	26.28	0.46	-0.750			
0.7568	48435.28	3.4050	3.4050	-0.9042	26.29	0.47	-0.750			
0.7595	48607.87	3.4020	3.4021	-0.8949	26.29	0.47	-0.750			
0.7622	48778.85	3.3990	3.3989	-0.8878	26.30	0.48	-0.750			
0.7648	48949.63	3.3960	3.3961	-0.8726	26.30	0.48	-0.750			
0.7675	49117.48	3.3930	3.3929	-0.8489	26.31	0.49	-0.750			
0.7700	49280.33	3.3900	3.3900	-0.8249	26.31	0.49	-0.750			
0.7725	49437.24	3.3870	3.3870	-0.7984	26.32	0.50	-0.750			
0.7748	49586.77	3.3840	3.3840	-0.7710	26.33	0.51	-0.750			
0.7771	49733.05	3.3810	3.3809	-0.7420	26.34	0.52	-0.750			
0.7792	49871.75	3.3780	3.3780	-0.7160	26.35	0.53	-0.750			
0.7814	50008.24	3.3750	3.3750	-0.6955	26.36	0.54	-0.750			
0.7834	50139.01	3.3720	3.3720	-0.6717	26.37	0.55	-0.750			
0.7854	50265.67	3.3690	3.3688	-0.6471	26.38	0.56	-0.750			
0.7873	50386.84	3.3660	3.3660	-0.6228	26.39	0.57	-0.750			
0.7891	50501.79	3.3630	3.3630	-0.6013	26.40	0.58	-0.750			
0.7909	50619.25	3.3600	3.3600	-0.5852	26.40	0.58	-0.750			
0.7926	50727.41	3.3570	3.3569	-0.5608	26.41	0.59	-0.750			
0.7943	50832.89	3.3540	3.3540	-0.5424	26.42	0.60	-0.750			
0.7959	50935.05	3.3510	3.3510	-0.5238	26.42	0.60	-0.750			
0.7974	51034.08	3.3480	3.3479	-0.5075	26.43	0.61	-0.750			
0.7989	51129.19	3.3450	3.3451	-0.4905	26.44	0.62	-0.750			
0.8003	51221.66	3.3420	3.3420	-0.4746	26.44	0.62	-0.750			
0.8018	51312.81	3.3390	3.3389	-0.4617	26.45	0.63	-0.750			
0.8031	51398.45	3.3360	3.3361	-0.4452	26.46	0.64	-0.750			
0.8044	51483.12	3.3330	3.3331	-0.4313	26.46	0.64	-0.750			
0.8057	51564.61	3.3300	3.3299	-0.4189	26.47	0.65	-0.750			
0.8069	51643.44	3.3270	3.3270	-0.4065	26.48	0.66	-0.750			
0.8081	51719.74	3.3240	3.3240	-0.3929	26.48	0.66	-0.750			
0.8093	51793.79	3.3210	3.3210	-0.3832	26.49	0.67	-0.750			
0.8104	51867.12	3.3180	3.3180	-0.3728	26.49	0.67	-0.750			
0.8115	51936.88	3.3150	3.3151	-0.3622	26.50	0.68	-0.750			
0.8126	52006.08	3.3120	3.3119	-0.3535	26.50	0.68	-0.750			
0.8136	52072.66	3.3090	3.3090	-0.3430	26.51	0.69	-0.750			
0.8146	52137.20	3.3060	3.3060	-0.3346	26.51	0.69	-0.750			
0.8156	52200.96	3.3030	3.3031	-0.3260	26.52	0.70	-0.750			
0.8166	52262.37	3.3000	3.2999	-0.3176	26.52	0.70	-0.750			
0.8175	52322.88	3.2970	3.2970	-0.3107	26.53	0.71	-0.750			
0.8185	52381.40	3.2940	3.2940	-0.3018	26.53	0.71	-0.750			
0.8194	52438.61	3.2910	3.2910	-0.2966	26.54	0.72	-0.750			
0.8202	52494.91	3.2880	3.2881	-0.2903	26.54	0.72	-0.750			
0.8211	52549.78	3.2850	3.2850	-0.2846	26.55	0.73	-0.750			
0.8219	52604.24	3.2820	3.2820	-0.2804	26.55	0.73	-0.750			
0.8228	52657.27	3.2790	3.2791	-0.2752	26.56	0.74	-0.750			
0.8236	52709.79	3.2760	3.2758	-0.2702	26.56	0.74	-0.750			
0.8244	52761.67	3.2730	3.2730	-0.2657	26.57	0.75	-0.750			
0.8252	52812.00	3.2700	3.2699	-0.2598	26.58	0.76	-0.750			
0.8260	52861.18	3.2670	3.2671	-0.2543	26.58	0.76	-0.750			
0.8267	52909.73	3.2640	3.2640	-0.2500	26.59	0.77	-0.750			
0.8275	52957.05	3.2610	3.2610	-0.2450	26.59	0.77	-0.750			
0.8282	53003.05	3.2580	3.2581	-0.2418	26.60	0.78	-0.750			
0.8289	53048.62	3.2550	3.2550	-0.2383	26.60	0.78	-0.750			
0.8296	53094.18	3.2520	3.2520	-0.2357	26.61	0.79	-0.750			
0.8303	53139.01	3.2490	3.2489	-0.2336	26.61	0.79	-0.750			
0.8310	53184.69	3.2460	3.2460	-0.2297	26.62	0.80	-0.750			
0.8317	53228.46	3.2430	3.2430	-0.2250	26.62	0.80	-0.750			
0.8324	53271.66	3.2400	3.2400	-0.2206	26.63	0.81	-0.750			
0.8330	53313.60	3.2370	3.2371	-0.2172	26.63	0.81	-0.750			
0.8337	53353.69	3.2340	3.2339	-0.2128	26.64	0.82	-0.750			
0.8343	53394.40	3.2310	3.2309	-0.2106	26.64	0.82	-0.750			
0.8349	53434.16	3.2280	3.2280	-0.2082	26.65	0.83	-0.750			
0.8355	53473.76	3.2250	3.2250	-0.2056	26.65	0.83	-0.750			
0.8362	53514.05	3.2220	3.2221	-0.2047	26.66	0.84	-0.750			
0.8368	53553.26	3.2190	3.2189	-0.2017	26.67	0.85	-0.750			
0.8374	53591.62	3.2160	3.2160	-0.1978	26.67	0.85	-0.750			
0.8380	53629.21	3.2130	3.2130	-0.1943	26.68	0.86	-0.750			
0.8385	53665.49	3.2100	3.2101	-0.1916	26.68	0.86	-0.750			
0.8391	53701.97	3.2070	3.2070	-0.1895	26.69	0.87	-0.750			
0.8397	53738.18	3.2040	3.2040	-0.1882	26.69	0.87	-0.750			
0.8402	53773.84	3.2010	3.2009	-0.1869	26.70	0.88	-0.750			
0.8408	53809.86	3.1980	3.1980	-0.1854	26.70	0.88	-0.750			
0.8413	53845.34	3.1950	3.1952	-0.1842	26.71	0.89	-0.750			
0.8419	53880.82	3.1920	3.1918	-0.1831	26.71	0.89	-0.750			
0.8424	53916.29	3.1890	3.1890	-0.1807	26.72	0.90	-0.750			
0.8430	53950.45	3.1860	3.1858	-0.1780	26.72	0.90	-0.750			
0.8435	53984.41	3.1830	3.1831	-0.1757	26.73	0.91	-0.750			
0.8440	54018.08	3.1800	3.1801	-0.1732	26.73	0.91	-0.750			
0.8445	54050.70	3.1770	3.1770	-0.1713	26.74	0.92	-0.750			
0.8451	54083.39	3.1740	3.1739	-0.1696	26.76	0.94	-0.750			
0.8456	54115.83	3.1710	3.1710	-0.1678	26.76	0.94	-0.750			
0.8461	54147.63	3.1680	3.1679	-0.1658	26.77	0.95	-0.750			
0.8466	54179.90	3.1650	3.1649	-0.1642	26.77	0.95	-0.750			
0.8470	54211.20	3.1620	3.1622	-0.1616	26.78	0.96	-0.750			
0.8475	54241.83	3.1590	3.1588	-0.1601	26.79	0.97	-0.750			
0.8480	54272.29	3.1560	3.1560	-0.1592	26.79	0.97	-0.750			
0.8485	54302.18	3.1530	3.1529	-0.1574	26.80	0.98	-0.750			
0.8489	54332.38	3.1500	3.1500	-0.1572	26.80	0.98	-0.750			
0.8494	54362.67	3.1470	3.1470	-0.1556	26.81	0.99	-0.750			
0.8499	54392.51	3.1440	3.1441	-0.1548	26.81	0.99	-0.750			
0.8504	54422.54	3.1410	3.1411	-0.1544	26.82	1.00	-0.750			
0.8508	54451.98	3.1380	3.1379	-0.1524	26.82	1.00	-0.750			
0.8513	54481.05	3.1350	3.1349	-0.1498	26.83	1.01	-0.750			
0.8517	54509.36	3.1320	3.1320	-0.1483	26.83	1.01	-0.750			
0.8521	54537.56	3.1290	3.1291	-0.1468	26.84	1.02	-0.750			
0.8526	54565.63	3.1260	3.1260	-0.1457	26.84	1.02	-0.750			
0.8530	54593.61	3.1230	3.1229	-0.1446	26.85	1.03	-0.750			
0.8535	54621.02	3.1200	3.1201	-0.1430	26.85	1.03	-0.750			
0.8539	54648.44	3.1170	3.1170	-0.1422	26.86	1.04	-0.750			
0.8543	54675.62	3.1140	3.1139	-0.1415	26.86	1.04	-0.750			
0.8547	54702.97	3.1110	3.1110	-0.1404	26.87	1.05	-0.750			
0.8551	54729.59	3.1080	3.1080	-0.1389	26.87	1.05	-0.750			
0.8556	54756.20	3.1050	3.1050	-0.1379	26.88	1.06	-0.750			
0.8560	54782.56	3.1020	3.1020	-0.1367	26.88	1.06	-0.750			
0.8564	54808.72	3.0990	3.0990	-0.1356	26.89	1.07	-0.750			
0.8568	54834.64	3.0960	3.0960	-0.1344	26.89	1.07	-0.750			
0.8572	54860.30	3.0930	3.0930	-0.1335	26.89	1.07	-0.750			
0.8576	54885.67	3.0900	3.0900	-0.1325	26.90	1.08	-0.750			
0.8580	54911.08	3.0870	3.0869	-0.1318	26.90	1.08	-0.750			
0.8584	54936.24	3.0840	3.0841	-0.1309	26.91	1.09	-0.750			
0.8588	54961.38	3.0810	3.0810	-0.1299	26.92	1.10	-0.750			
0.8592	54986.31	3.0780	3.0780	-0.1291	26.92	1.10	-0.750			
0.8595	55010.96	3.0750	3.0751	-0.1286	26.93	1.11	-0.750			
0.8599	55035.61	3.0720	3.0719	-0.1277	26.94	1.12	-0.750			
0.8603	55060.03	3.0690	3.0690	-0.1268	26.94	1.12	-0.750			
0.8607	55084.35	3.0660	3.0659	-0.1259	26.95	1.13	-0.750			
0.8611	55108.43	3.0630	3.0631	-0.1250	26.95	1.13	-0.750			
0.8614	55132.49	3.0600	3.0600	-0.1239	26.96	1.14	-0.750			
0.8618	55156.33	3.0570	3.0569	-0.1230	26.97	1.15	-0.750			
0.8622	55179.64	3.0540	3.0540	-0.1219	26.97	1.15	-0.750			
0.8625	55202.78	3.0510	3.0510	-0.1205	26.98	1.16	-0.750			
0.8629	55225.77	3.0480	3.0480	-0.1197	26.98	1.16	-0.750			
0.8633	55248.61	3.0450	3.0450	-0.1188	26.99	1.17	-0.750			
0.8636	55271.24	3.0420	3.0420	-0.1184	27.00	1.18	-0.750			
0.8640	55293.77	3.0390	3.0391	-0.1177	27.00	1.18	-0.750			
0.8643	55316.48	3.0360	3.0360	-0.1173	27.01	1.19	-0.750			
0.8647	55339.05	3.0330	3.0330	-0.1170	27.01	1.19	-0.750			
0.8650	55361.45	3.0300	3.0299	-0.1164	27.02	1.20	-0.750			
0.8654	55383.75	3.0270	3.0270	-0.1159	27.03	1.21	-0.750			
0.8657	55406.20	3.0240	3.0240	-0.1146	27.03	1.21	-0.750			
0.8661	55428.37	3.0210	3.0210	-0.1139	27.04	1.22	-0.750			
0.8664	55450.08	3.0180	3.0179	-0.1123	27.04	1.22	-0.750			
0.8667	55471.56	3.0150	3.0151	-0.1109	27.05	1.23	-0.750			
0.8671	55492.69	3.0120	3.0120	-0.1092	27.05	1.23	-0.750			
0.8674	55513.67	3.0090	3.0090	-0.1074	27.06	1.24	-0.750			
0.8677	55534.09	3.0060	3.0059	-0.1053	27.06	1.24	-0.751			
0.8680	55554.21	3.0030	3.0030	-0.1064	27.07	1.25	-0.751			
