Ah_balance (normalized)	Ah_balance (mAh)	Voltage - fit (V)	Voltage -  interpolate (V)	dQ/dV (1/V)	Temperature (°C)	Temperature - diff (°C)	Current (C)	R_DC 0ms (mOhm)	R_DC 50ms (mOhm)	R_DC 50 ms PEC (mOhm)
0.0516	3304.91	4.1970	4.1970	0.7678	26.53	0.60	0.750			
0.0539	3451.92	4.1940	4.1938	0.7677	26.53	0.60	0.750			
0.0562	3599.94	4.1910	4.1910	0.7692	26.53	0.60	0.750			
0.0586	3747.94	4.1880	4.1879	0.7686	26.53	0.60	0.750			
0.0609	3895.05	4.1850	4.1850	0.7717	26.53	0.60	0.750			
0.0632	4043.34	4.1820	4.1820	0.7732	26.53	0.60	0.750			
0.0655	4192.19	4.1790	4.1789	0.7764	26.53	0.60	0.750			
0.0678	4341.69	4.1760	4.1760	0.7768	26.53	0.60	0.750			
0.0702	4491.33	4.1730	4.1730	0.7745	26.53	0.60	0.750			
0.0725	4640.11	4.1700	4.1700	0.7715	26.53	0.60	0.750			
0.0748	4786.39	4.1670	4.1671	0.7744	26.54	0.61	0.750			
0.0771	4933.64	4.1640	4.1640	0.7760	26.54	0.61	0.750			
0.0794	5083.38	4.1610	4.1611	0.7797	26.54	0.61	0.750			
0.0818	5233.14	4.1580	4.1580	0.7814	26.54	0.61	0.750			
0.0841	5384.59	4.1550	4.1551	0.7792	26.54	0.61	0.750			
0.0865	5536.57	4.1520	4.1520	0.7836	26.54	0.61	0.750			
0.0888	5684.06	4.1490	4.1491	0.7845	26.54	0.61	0.750			
0.0912	5834.74	4.1460	4.1458	0.7883	26.54	0.61	0.750			
0.0935	5986.36	4.1430	4.1430	0.7889	26.54	0.61	0.750			
0.0959	6139.61	4.1400	4.1401	0.7905	26.54	0.61	0.750			
0.0983	6293.05	4.1370	4.1371	0.7955	26.54	0.61	0.750			
0.1007	6446.19	4.1340	4.1339	0.7953	26.54	0.61	0.750			
0.1030	6595.16	4.1310	4.1310	0.7943	26.54	0.61	0.750			
0.1054	6747.19	4.1280	4.1280	0.7989	26.54	0.61	0.750			
0.1079	6904.03	4.1250	4.1250	0.7939	26.54	0.61	0.750			
0.1103	7056.33	4.1220	4.1220	0.7956	26.54	0.61	0.750			
0.1126	7209.10	4.1190	4.1191	0.7967	26.54	0.61	0.750			
0.1150	7360.51	4.1160	4.1159	0.7967	26.54	0.61	0.750			
0.1174	7511.67	4.1130	4.1130	0.7997	26.54	0.61	0.750			
0.1198	7666.17	4.1100	4.1100	0.8003	26.54	0.61	0.750			
0.1222	7820.60	4.1070	4.1070	0.8076	26.54	0.61	0.750			
0.1246	7977.28	4.1040	4.1040	0.8163	26.54	0.61	0.750			
0.1271	8133.36	4.1010	4.1010	0.8139	26.54	0.61	0.750			
0.1295	8290.35	4.0980	4.0979	0.8167	26.54	0.61	0.750			
0.1320	8449.16	4.0950	4.0950	0.8130	26.54	0.61	0.750			
0.1345	8605.70	4.0920	4.0920	0.8101	26.54	0.61	0.750			
0.1369	8760.88	4.0890	4.0891	0.8133	26.54	0.61	0.750			
0.1393	8914.92	4.0860	4.0860	0.8133	26.54	0.61	0.750			
0.1417	9069.35	4.0830	4.0829	0.8167	26.54	0.61	0.750			
0.1442	9228.18	4.0800	4.0801	0.8242	26.54	0.61	0.750			
0.1467	9387.88	4.0770	4.0770	0.8229	26.54	0.61	0.750			
0.1492	9545.88	4.0740	4.0740	0.8295	26.55	0.62	0.750			
0.1516	9704.55	4.0710	4.0711	0.8319	26.55	0.62	0.750			
0.1541	9864.26	4.0680	4.0677	0.8315	26.55	0.62	0.750			
0.1566	10024.11	4.0650	4.0650	0.8317	26.55	0.62	0.750			
0.1591	10184.29	4.0620	4.0621	0.8328	26.55	0.62	0.750			
0.1616	10345.36	4.0590	4.0590	0.8388	26.55	0.62	0.750			
0.1641	10504.97	4.0560	4.0560	0.8407	26.55	0.62	0.750			
0.1667	10666.76	4.0530	4.0528	0.8454	26.55	0.62	0.750			
0.1692	10830.11	4.0500	4.0500	0.8452	26.55	0.62	0.750			
0.1718	10992.97	4.0470	4.0472	0.8542	26.55	0.62	0.750			
0.1743	11157.46	4.0440	4.0440	0.8640	26.56	0.63	0.750			
0.1769	11324.35	4.0410	4.0409	0.8579	26.56	0.63	0.750			
0.1795	11489.36	4.0380	4.0379	0.8591	26.56	0.63	0.750			
0.1821	11655.32	4.0350	4.0351	0.8562	26.56	0.63	0.750			
0.1847	11821.61	4.0320	4.0320	0.8619	26.56	0.63	0.750			
0.1873	11986.40	4.0290	4.0289	0.8649	26.57	0.64	0.750			
0.1898	12150.11	4.0260	4.0260	0.8623	26.57	0.64	0.750			
0.1924	12314.57	4.0230	4.0231	0.8678	26.57	0.64	0.750			
0.1951	12484.37	4.0200	4.0201	0.8773	26.57	0.64	0.750			
0.1977	12653.87	4.0170	4.0170	0.8811	26.57	0.64	0.750			
0.2004	12823.72	4.0140	4.0141	0.8861	26.56	0.63	0.750			
0.2030	12993.35	4.0110	4.0110	0.8839	26.56	0.63	0.750			
0.2057	13163.90	4.0080	4.0080	0.8867	26.56	0.63	0.750			
0.2084	13334.43	4.0050	4.0050	0.8860	26.56	0.63	0.750			
0.2110	13503.84	4.0020	4.0020	0.8848	26.57	0.64	0.750			
0.2137	13673.77	3.9990	3.9991	0.8897	26.57	0.64	0.750			
0.2163	13844.40	3.9960	3.9958	0.8914	26.57	0.64	0.750			
0.2190	14016.14	3.9930	3.9931	0.8914	26.57	0.64	0.750			
0.2217	14187.89	3.9900	3.9900	0.8984	26.57	0.64	0.750			
0.2244	14360.31	3.9870	3.9870	0.9067	26.57	0.64	0.750			
0.2271	14535.33	3.9840	3.9840	0.9149	26.57	0.64	0.750			
0.2299	14711.11	3.9810	3.9809	0.9164	26.57	0.64	0.750			
0.2326	14889.26	3.9780	3.9780	0.9072	26.57	0.64	0.750			
0.2354	15064.51	3.9750	3.9751	0.9152	26.58	0.65	0.750			
0.2381	15239.65	3.9720	3.9721	0.9161	26.58	0.65	0.750			
0.2408	15413.36	3.9690	3.9688	0.9148	26.58	0.65	0.750			
0.2436	15589.80	3.9660	3.9661	0.9136	26.58	0.65	0.750			
0.2463	15764.64	3.9630	3.9631	0.9179	26.58	0.65	0.750			
0.2491	15942.22	3.9600	3.9600	0.9250	26.58	0.65	0.750			
0.2519	16122.18	3.9570	3.9570	0.9336	26.58	0.65	0.750			
0.2547	16299.03	3.9540	3.9539	0.9325	26.58	0.65	0.750			
0.2575	16480.93	3.9510	3.9510	0.9243	26.59	0.66	0.750			
0.2603	16658.90	3.9480	3.9480	0.9305	26.59	0.66	0.750			
0.2631	16837.76	3.9450	3.9451	0.9337	26.59	0.66	0.750			
0.2659	17015.79	3.9420	3.9418	0.9313	26.60	0.67	0.750			
0.2687	17195.58	3.9390	3.9391	0.9316	26.60	0.67	0.750			
0.2715	17373.41	3.9360	3.9360	0.9373	26.60	0.67	0.750			
0.2743	17554.59	3.9330	3.9330	0.9449	26.60	0.67	0.750			
0.2772	17739.34	3.9300	3.9301	0.9527	26.60	0.67	0.750			
0.2800	17920.68	3.9270	3.9270	0.9509	26.60	0.67	0.750			
0.2829	18104.32	3.9240	3.9240	0.9419	26.60	0.67	0.750			
0.2857	18283.28	3.9210	3.9211	0.9476	26.60	0.67	0.750			
0.2885	18465.18	3.9180	3.9181	0.9468	26.60	0.67	0.750			
0.2913	18645.76	3.9150	3.9147	0.9465	26.60	0.67	0.750			
0.2942	18830.14	3.9120	3.9121	0.9424	26.60	0.67	0.750			
0.2970	19009.58	3.9090	3.9092	0.9540	26.60	0.67	0.750			
0.2999	19194.12	3.9060	3.9060	0.9655	26.60	0.67	0.750			
0.3028	19380.29	3.9030	3.9030	0.9642	26.60	0.67	0.750			
0.3058	19568.33	3.9000	3.9001	0.9558	26.60	0.67	0.750			
0.3087	19753.77	3.8970	3.8971	0.9631	26.60	0.67	0.750			
0.3115	19937.51	3.8940	3.8941	0.9599	26.60	0.67	0.750			
0.3144	20120.93	3.8910	3.8910	0.9707	26.60	0.67	0.750			
0.3172	20302.57	3.8880	3.8880	0.9670	26.60	0.67	0.750			
0.3202	20490.27	3.8850	3.8850	0.9715	26.59	0.66	0.750			
0.3231	20679.47	3.8820	3.8822	0.9865	26.59	0.66	0.750			
0.3261	20871.18	3.8790	3.8790	0.9921	26.58	0.65	0.750			
0.3291	21061.30	3.8760	3.8758	0.9933	26.58	0.65	0.750			
0.3321	21251.33	3.8730	3.8730	0.9970	26.58	0.65	0.750			
0.3350	21442.57	3.8700	3.8701	1.0011	26.57	0.64	0.750			
0.3381	21637.17	3.8670	3.8670	1.0106	26.57	0.64	0.750			
0.3411	21831.54	3.8640	3.8638	1.0133	26.56	0.63	0.750			
0.3441	22025.56	3.8610	3.8611	1.0156	26.56	0.63	0.750			
0.3472	22220.90	3.8580	3.8580	1.0287	26.56	0.63	0.750			
0.3502	22416.00	3.8550	3.8551	1.0456	26.55	0.62	0.750			
0.3534	22618.18	3.8520	3.8518	1.0538	26.55	0.62	0.750			
0.3566	22825.14	3.8490	3.8491	1.0691	26.54	0.61	0.750			
0.3598	23029.66	3.8460	3.8461	1.0896	26.54	0.61	0.750			
0.3632	23243.24	3.8430	3.8431	1.1058	26.53	0.60	0.750			
0.3665	23458.53	3.8400	3.8395	1.1092	26.52	0.59	0.750			
0.3698	23670.04	3.8370	3.8371	1.1032	26.51	0.58	0.750			
0.3732	23882.09	3.8340	3.8342	1.1074	26.50	0.57	0.750			
0.3765	24096.82	3.8310	3.8309	1.1159	26.50	0.57	0.750			
0.3798	24307.74	3.8280	3.8279	1.1024	26.49	0.56	0.750			
0.3831	24518.75	3.8250	3.8250	1.1139	26.48	0.55	0.750			
0.3864	24732.56	3.8220	3.8220	1.1330	26.47	0.54	0.750			
0.3899	24951.91	3.8190	3.8191	1.1494	26.46	0.53	0.750			
0.3934	25175.12	3.8160	3.8160	1.1610	26.46	0.53	0.750			
0.3969	25398.60	3.8130	3.8131	1.1718	26.45	0.52	0.750			
0.4004	25626.39	3.8100	3.8100	1.1841	26.44	0.51	0.750			
0.4040	25856.90	3.8070	3.8068	1.1869	26.43	0.50	0.750			
0.4076	26084.00	3.8040	3.8040	1.1914	26.42	0.49	0.750			
0.4111	26312.23	3.8010	3.8011	1.1983	26.41	0.48	0.750			
0.4147	26542.80	3.7980	3.7980	1.2097	26.40	0.47	0.750			
0.4184	26775.40	3.7950	3.7951	1.2046	26.38	0.45	0.750			
0.4220	27007.98	3.7920	3.7921	1.2101	26.37	0.44	0.750			
0.4256	27239.35	3.7890	3.7891	1.2221	26.36	0.43	0.750			
0.4293	27477.29	3.7860	3.7859	1.2210	26.35	0.42	0.750			
0.4330	27710.05	3.7830	3.7830	1.2346	26.34	0.41	0.750			
0.4366	27945.03	3.7800	3.7801	1.2559	26.33	0.40	0.750			
0.4404	28188.78	3.7770	3.7769	1.2703	26.31	0.38	0.750			
0.4443	28435.63	3.7740	3.7740	1.2931	26.30	0.37	0.750			
0.4482	28687.41	3.7710	3.7711	1.3181	26.28	0.35	0.750			
0.4523	28944.06	3.7680	3.7680	1.3372	26.27	0.34	0.750			
0.4563	29202.43	3.7650	3.7651	1.3799	26.25	0.32	0.750			
0.4604	29465.36	3.7620	3.7619	1.4050	26.24	0.31	0.750			
0.4647	29738.41	3.7590	3.7592	1.4354	26.23	0.30	0.750	0.305	0.397	
0.4691	30020.22	3.7560	3.7561	1.4573	26.22	0.29	0.750			
0.4735	30306.16	3.7530	3.7531	1.4911	26.21	0.28	0.750			
0.4780	30595.14	3.7500	3.7500	1.5135	26.19	0.26	0.750			
0.4825	30882.23	3.7470	3.7471	1.5318	26.18	0.25	0.750			
0.4872	31179.38	3.7440	3.7439	1.5703	26.16	0.23	0.750			
0.4919	31483.14	3.7410	3.7409	1.6012	26.14	0.21	0.750			
0.4967	31791.14	3.7380	3.7380	1.6629	26.13	0.20	0.750			
0.5018	32118.35	3.7350	3.7352	1.7112	26.12	0.19	0.750			
0.5071	32451.61	3.7320	3.7321	1.7591	26.10	0.17	0.750			
0.5124	32794.81	3.7290	3.7291	1.8104	26.07	0.14	0.750			
0.5179	33148.11	3.7260	3.7261	1.8693	26.05	0.12	0.750			
0.5236	33512.94	3.7230	3.7229	1.9217	26.03	0.10	0.750			
0.5294	33884.59	3.7200	3.7200	1.9525	26.02	0.09	0.750			
0.5353	34262.20	3.7170	3.7171	2.0099	25.99	0.06	0.750			
0.5416	34659.79	3.7140	3.7139	2.0738	25.97	0.04	0.750			
0.5477	35055.70	3.7110	3.7110	2.1307	25.95	0.02	0.750			
0.5542	35471.30	3.7080	3.7082	2.2023	25.93	-0.00	0.750			
0.5610	35903.24	3.7050	3.7049	2.2682	25.91	-0.02	0.750			
0.5679	36346.63	3.7020	3.7019	2.3379	25.89	-0.04	0.750			
0.5751	36805.31	3.6990	3.6991	2.4011	25.87	-0.06	0.750			
0.5824	37273.80	3.6960	3.6961	2.4505	25.85	-0.08	0.750			
0.5898	37747.44	3.6930	3.6931	2.5152	25.83	-0.10	0.750			
0.5973	38230.32	3.6900	3.6900	2.5729	25.81	-0.12	0.750			
0.6052	38732.96	3.6870	3.6869	2.6579	25.79	-0.14	0.750			
0.6132	39244.94	3.6840	3.6838	2.7713	25.78	-0.15	0.750			
0.6217	39790.56	3.6810	3.6809	2.8776	25.76	-0.17	0.750			
0.6305	40354.67	3.6780	3.6780	2.9784	25.74	-0.19	0.750			
0.6397	40942.55	3.6750	3.6750	3.0480	25.71	-0.22	0.750			
0.6489	41532.30	3.6720	3.6721	3.1328	25.69	-0.24	0.750			
0.6584	42137.48	3.6690	3.6690	3.1881	25.68	-0.25	0.750			
0.6683	42773.72	3.6660	3.6660	3.1814	25.67	-0.26	0.750			
0.6780	43393.39	3.6630	3.6630	3.0711	25.66	-0.27	0.750			
0.6873	43984.71	3.6600	3.6598	2.8478	25.65	-0.28	0.750			
0.6953	44500.69	3.6570	3.6571	2.5583	25.64	-0.29	0.750			
0.7025	44960.71	3.6540	3.6541	2.2564	25.64	-0.29	0.750			
0.7086	45352.57	3.6510	3.6507	2.0241	25.65	-0.28	0.750			
0.7140	45698.12	3.6480	3.6480	1.8186	25.66	-0.27	0.750			
0.7191	46022.73	3.6450	3.6449	1.6662	25.66	-0.27	0.750			
0.7239	46327.51	3.6420	3.6422	1.5521	25.66	-0.27	0.750			
0.7284	46615.58	3.6390	3.6389	1.4300	25.66	-0.27	0.750			
0.7325	46880.54	3.6360	3.6362	1.3449	25.66	-0.27	0.750			
0.7362	47119.42	3.6330	3.6330	1.2852	25.66	-0.27	0.750			
0.7398	47348.55	3.6300	3.6302	1.2341	25.66	-0.27	0.750			
0.7434	47579.28	3.6270	3.6270	1.2083	25.66	-0.27	0.750			
0.7470	47807.75	3.6240	3.6240	1.2077	25.67	-0.26	0.750			
0.7506	48038.20	3.6210	3.6212	1.2233	25.67	-0.26	0.750			
0.7544	48278.62	3.6180	3.6179	1.2252	25.68	-0.25	0.750			
0.7580	48511.83	3.6150	3.6150	1.2244	25.68	-0.25	0.750			
0.7617	48748.53	3.6120	3.6121	1.2231	25.68	-0.25	0.750			
0.7655	48989.90	3.6090	3.6089	1.2122	25.68	-0.25	0.750			
0.7691	49222.66	3.6060	3.6060	1.2008	25.68	-0.25	0.750			
0.7726	49447.01	3.6030	3.6031	1.1740	25.69	-0.24	0.750			
0.7760	49667.07	3.6000	3.6001	1.1687	25.70	-0.23	0.750			
0.7795	49890.04	3.5970	3.5969	1.1555	25.70	-0.23	0.750			
0.7829	50108.50	3.5940	3.5941	1.1818	25.70	-0.23	0.750			
0.7865	50334.23	3.5910	3.5910	1.2079	25.70	-0.23	0.750			
0.7902	50572.82	3.5880	3.5879	1.2266	25.70	-0.23	0.750			
0.7939	50808.45	3.5850	3.5852	1.2683	25.70	-0.23	0.750			
0.7977	51053.94	3.5820	3.5821	1.3150	25.70	-0.23	0.750			
0.8017	51310.01	3.5790	3.5790	1.3566	25.70	-0.23	0.750			
0.8058	51572.62	3.5760	3.5761	1.4169	25.70	-0.23	0.750			
0.8101	51847.95	3.5730	3.5730	1.4594	25.70	-0.23	0.750			
0.8147	52142.14	3.5700	3.5699	1.4951	25.70	-0.23	0.750			
0.8194	52438.88	3.5670	3.5671	1.5104	25.70	-0.23	0.750			
0.8239	52730.10	3.5640	3.5640	1.5332	25.70	-0.23	0.750			
0.8285	53025.36	3.5610	3.5609	1.5524	25.70	-0.23	0.750			
0.8331	53320.76	3.5580	3.5580	1.5713	25.70	-0.23	0.750			
0.8378	53617.38	3.5550	3.5551	1.5767	25.70	-0.23	0.750			
0.8427	53930.89	3.5520	3.5519	1.6050	25.70	-0.23	0.750			
0.8475	54239.93	3.5490	3.5490	1.6301	25.70	-0.23	0.750			
0.8525	54561.52	3.5460	3.5460	1.6546	25.70	-0.23	0.750			
0.8574	54873.66	3.5430	3.5432	1.6763	25.70	-0.23	0.750			
0.8625	55198.01	3.5400	3.5401	1.6927	25.71	-0.22	0.750			
0.8676	55526.22	3.5370	3.5372	1.7287	25.71	-0.22	0.750			
0.8729	55864.95	3.5340	3.5340	1.7605	25.73	-0.20	0.750			
0.8786	56227.87	3.5310	3.5304	1.6871	25.75	-0.18	0.750			
0.8837	56554.64	3.5280	3.5280	1.5398	25.76	-0.17	0.750			
0.8887	56876.45	3.5250	3.5255	1.3666	25.78	-0.15	0.750			
0.8925	57122.40	3.5220	3.5225	1.1049	25.79	-0.14	0.750			
0.8952	57293.33	3.5190	3.5187	0.8649	25.80	-0.13	0.750			
0.8969	57400.40	3.5160	3.5156	0.6110	25.81	-0.12	0.750			
0.8980	57473.74	3.5130	3.5129	0.4611	25.82	-0.11	0.750			
0.8992	57547.87	3.5100	3.5100	0.3943	25.82	-0.11	0.750			
0.9002	57613.99	3.5070	3.5068	0.3523	25.82	-0.11	0.750			
0.9012	57676.88	3.5040	3.5040	0.3313	25.83	-0.10	0.750			
0.9021	57737.11	3.5010	3.5009	0.3123	25.83	-0.10	0.750			
0.9031	57795.58	3.4980	3.4980	0.3024	25.84	-0.09	0.750			
0.9039	57852.31	3.4950	3.4951	0.2930	25.84	-0.09	0.750			
0.9048	57907.84	3.4920	3.4919	0.2854	25.85	-0.08	0.750			
0.9056	57961.03	3.4890	3.4890	0.2774	25.85	-0.08	0.750			
0.9065	58013.60	3.4860	3.4860	0.2729	25.86	-0.07	0.750			
0.9073	58065.58	3.4830	3.4830	0.2666	25.86	-0.07	0.750			
0.9081	58116.97	3.4800	3.4800	0.2604	25.87	-0.06	0.750			
0.9088	58165.95	3.4770	3.4770	0.2535	25.88	-0.05	0.750			
0.9096	58213.67	3.4740	3.4741	0.2496	25.88	-0.05	0.750			
0.9103	58260.69	3.4710	3.4710	0.2443	25.89	-0.04	0.750			
0.9110	58306.63	3.4680	3.4678	0.2398	25.89	-0.04	0.750			
0.9118	58352.34	3.4650	3.4649	0.2355	25.90	-0.03	0.750			
0.9125	58397.84	3.4620	3.4620	0.2334	25.90	-0.03	0.750			
0.9132	58442.28	3.4590	3.4591	0.2295	25.91	-0.02	0.750			
0.9139	58486.67	3.4560	3.4560	0.2240	25.91	-0.02	0.750			
0.9145	58528.97	3.4530	3.4530	0.2200	25.92	-0.01	0.750			
0.9152	58570.23	3.4500	3.4500	0.2142	25.92	-0.01	0.750			
0.9158	58610.95	3.4470	3.4471	0.2103	25.93	-0.00	0.750			
0.9164	58651.01	3.4440	3.4438	0.2065	25.93	-0.00	0.750			
0.9170	58690.26	3.4410	3.4411	0.2025	25.93	0.00	0.750			
0.9176	58728.73	3.4380	3.4380	0.1982	25.94	0.01	0.750			
0.9182	58766.55	3.4350	3.4350	0.1938	25.94	0.01	0.750			
0.9188	58803.86	3.4320	3.4320	0.1899	25.95	0.02	0.750			
0.9194	58839.40	3.4290	3.4290	0.1851	25.95	0.02	0.750			
0.9199	58874.61	3.4260	3.4260	0.1817	25.95	0.02	0.750			
0.9205	58908.87	3.4230	3.4230	0.1773	25.96	0.03	0.750			
0.9210	58942.89	3.4200	3.4199	0.1712	25.96	0.03	0.750			
0.9215	58975.42	3.4170	3.4170	0.1661	25.97	0.04	0.750			
0.9220	59006.90	3.4140	3.4140	0.1610	25.97	0.04	0.750			
0.9225	59037.26	3.4110	3.4112	0.1552	25.97	0.04	0.750			
0.9229	59066.32	3.4080	3.4079	0.1513	25.98	0.05	0.750			
0.9234	59094.61	3.4050	3.4050	0.1459	25.98	0.05	0.750			
0.9238	59121.86	3.4020	3.4020	0.1412	25.98	0.05	0.750			
0.9242	59149.04	3.3990	3.3990	0.1355	25.99	0.06	0.750			
0.9246	59175.41	3.3960	3.3962	0.1309	25.99	0.06	0.750			
0.9250	59199.91	3.3930	3.3930	0.1257	25.99	0.06	0.750			
0.9254	59223.62	3.3900	3.3901	0.1199	25.99	0.06	0.750			
0.9257	59246.19	3.3870	3.3868	0.1127	26.00	0.07	0.750			
0.9260	59266.93	3.3840	3.3839	0.1055	26.00	0.07	0.750			
0.9264	59287.51	3.3810	3.3811	0.0962	26.00	0.07	0.750			
0.9267	59305.77	3.3780	3.3781	0.0891	26.00	0.07	0.750			
0.9269	59322.79	3.3750	3.3749	0.0818	26.01	0.08	0.750			
0.9271	59337.50	3.3720	3.3721	0.0714	26.01	0.08	0.750			
0.9273	59349.95	3.3690	3.3695	0.0610	26.01	0.08	0.750			
0.9275	59360.70	3.3660	3.3666	0.0510	26.01	0.08	0.750			
0.9276	59369.54	3.3630	3.3640	0.0411	26.01	0.08	0.750			
0.9278	59376.47	3.3600	3.3614	0.0311	26.01	0.08	0.750			
