Ah_balance (normalized)	Ah_balance (mAh)	Voltage - fit (V)	Voltage -  interpolate (V)	dQ/dV (1/V)	Temperature (°C)	Temperature - diff (°C)	Current (C)	R_DC 0ms (mOhm)	R_DC 50ms (mOhm)	R_DC 50 ms PEC (mOhm)
0.0002	12.60	4.1660	4.1659	-0.1096	25.68	0.02	-0.750			
0.0006	39.40	4.1630	4.1628	-0.1623	25.68	0.02	-0.750			
0.0012	74.65	4.1600	4.1598	-0.2072	25.68	0.02	-0.750			
0.0019	118.70	4.1570	4.1571	-0.2528	25.68	0.02	-0.750			
0.0027	171.85	4.1540	4.1540	-0.2978	25.68	0.02	-0.750			
0.0037	233.67	4.1510	4.1510	-0.3390	25.67	0.01	-0.750			
0.0048	304.30	4.1480	4.1480	-0.3793	25.67	0.01	-0.750			
0.0059	380.77	4.1450	4.1451	-0.4218	25.67	0.01	-0.750			
0.0073	466.13	4.1420	4.1420	-0.4596	25.67	0.01	-0.750			
0.0087	558.56	4.1390	4.1390	-0.4939	25.67	0.01	-0.750			
0.0103	658.61	4.1360	4.1359	-0.5207	25.66	0.00	-0.750			
0.0119	762.89	4.1330	4.1330	-0.5485	25.66	0.00	-0.750			
0.0136	870.70	4.1300	4.1301	-0.5734	25.66	-0.00	-0.750			
0.0154	983.58	4.1270	4.1270	-0.5937	25.66	-0.00	-0.750			
0.0172	1098.14	4.1240	4.1239	-0.6109	25.65	-0.01	-0.750			
0.0190	1217.38	4.1210	4.1211	-0.6303	25.65	-0.01	-0.750			
0.0210	1342.62	4.1180	4.1180	-0.6463	25.65	-0.01	-0.750			
0.0230	1469.29	4.1150	4.1150	-0.6575	25.64	-0.02	-0.750			
0.0250	1597.03	4.1120	4.1121	-0.6668	25.64	-0.02	-0.750			
0.0270	1726.34	4.1090	4.1090	-0.6699	25.63	-0.03	-0.750			
0.0290	1853.62	4.1060	4.1060	-0.6834	25.63	-0.03	-0.750			
0.0310	1985.47	4.1030	4.1030	-0.6908	25.62	-0.04	-0.750			
0.0331	2119.25	4.1000	4.1000	-0.6997	25.61	-0.05	-0.750			
0.0352	2255.82	4.0970	4.0968	-0.7077	25.61	-0.05	-0.750			
0.0374	2393.60	4.0940	4.0943	-0.7142	25.60	-0.06	-0.750			
0.0395	2530.60	4.0910	4.0910	-0.7199	25.60	-0.06	-0.750			
0.0417	2670.11	4.0880	4.0880	-0.7256	25.60	-0.06	-0.750			
0.0439	2807.91	4.0850	4.0849	-0.7243	25.60	-0.06	-0.750			
0.0461	2947.35	4.0820	4.0820	-0.7327	25.60	-0.06	-0.750			
0.0483	3088.31	4.0790	4.0789	-0.7357	25.60	-0.06	-0.750			
0.0505	3230.90	4.0760	4.0761	-0.7421	25.60	-0.06	-0.750			
0.0527	3373.61	4.0730	4.0730	-0.7442	25.60	-0.06	-0.750			
0.0550	3517.09	4.0700	4.0700	-0.7450	25.59	-0.07	-0.750			
0.0572	3660.30	4.0670	4.0669	-0.7461	25.59	-0.07	-0.750			
0.0594	3804.58	4.0640	4.0640	-0.7498	25.58	-0.08	-0.750			
0.0617	3947.85	4.0610	4.0609	-0.7512	25.58	-0.08	-0.750			
0.0639	4092.65	4.0580	4.0579	-0.7541	25.58	-0.08	-0.750			
0.0662	4236.32	4.0550	4.0550	-0.7607	25.58	-0.08	-0.750			
0.0685	4382.32	4.0520	4.0520	-0.7646	25.58	-0.08	-0.750			
0.0708	4529.86	4.0490	4.0490	-0.7674	25.57	-0.09	-0.750			
0.0731	4680.30	4.0460	4.0459	-0.7682	25.57	-0.09	-0.750			
0.0754	4828.09	4.0430	4.0432	-0.7688	25.57	-0.09	-0.750			
0.0777	4975.83	4.0400	4.0401	-0.7641	25.57	-0.09	-0.750			
0.0800	5121.39	4.0370	4.0369	-0.7649	25.57	-0.09	-0.750			
0.0823	5265.75	4.0340	4.0340	-0.7589	25.57	-0.09	-0.750			
0.0846	5412.59	4.0310	4.0310	-0.7636	25.57	-0.09	-0.750			
0.0869	5559.29	4.0280	4.0280	-0.7686	25.57	-0.09	-0.750			
0.0892	5707.95	4.0250	4.0250	-0.7703	25.57	-0.09	-0.750			
0.0915	5853.41	4.0220	4.0220	-0.7789	25.57	-0.09	-0.750			
0.0938	6005.79	4.0190	4.0189	-0.7814	25.58	-0.08	-0.750			
0.0962	6154.77	4.0160	4.0160	-0.7831	25.58	-0.08	-0.750			
0.0986	6308.00	4.0130	4.0129	-0.7865	25.58	-0.08	-0.750			
0.1009	6458.73	4.0100	4.0099	-0.7860	25.58	-0.08	-0.750			
0.1033	6608.87	4.0070	4.0070	-0.7879	25.58	-0.08	-0.750			
0.1056	6760.72	4.0040	4.0041	-0.7882	25.58	-0.08	-0.750			
0.1080	6910.61	4.0010	4.0009	-0.7819	25.58	-0.08	-0.750			
0.1104	7063.45	3.9980	3.9979	-0.7893	25.58	-0.08	-0.750			
0.1127	7212.73	3.9950	3.9952	-0.7913	25.58	-0.08	-0.750			
0.1151	7365.58	3.9920	3.9921	-0.7940	25.58	-0.08	-0.750			
0.1175	7518.42	3.9890	3.9889	-0.7945	25.58	-0.08	-0.750			
0.1199	7671.09	3.9860	3.9859	-0.7975	25.58	-0.08	-0.750			
0.1223	7824.28	3.9830	3.9832	-0.8035	25.58	-0.08	-0.750			
0.1247	7978.98	3.9800	3.9800	-0.8070	25.58	-0.08	-0.750			
0.1271	8134.24	3.9770	3.9770	-0.8061	25.58	-0.08	-0.750			
0.1295	8290.15	3.9740	3.9740	-0.8125	25.58	-0.08	-0.750			
0.1320	8446.98	3.9710	3.9710	-0.8168	25.58	-0.08	-0.750			
0.1344	8604.61	3.9680	3.9678	-0.8148	25.58	-0.08	-0.750			
0.1369	8760.66	3.9650	3.9653	-0.8167	25.58	-0.08	-0.750			
0.1393	8916.94	3.9620	3.9619	-0.8167	25.58	-0.08	-0.750			
0.1418	9074.06	3.9590	3.9590	-0.8227	25.58	-0.08	-0.750			
0.1443	9232.27	3.9560	3.9559	-0.8260	25.59	-0.07	-0.750			
0.1467	9389.14	3.9530	3.9529	-0.8213	25.59	-0.07	-0.750			
0.1492	9549.89	3.9500	3.9502	-0.8270	25.59	-0.07	-0.750			
0.1517	9708.76	3.9470	3.9470	-0.8299	25.59	-0.07	-0.750			
0.1542	9867.65	3.9440	3.9438	-0.8323	25.59	-0.07	-0.750			
0.1567	10028.73	3.9410	3.9410	-0.8339	25.60	-0.06	-0.750			
0.1592	10187.08	3.9380	3.9380	-0.8315	25.60	-0.06	-0.750			
0.1617	10349.32	3.9350	3.9351	-0.8380	25.60	-0.06	-0.750			
0.1642	10511.08	3.9320	3.9319	-0.8405	25.60	-0.06	-0.750			
0.1667	10670.72	3.9290	3.9289	-0.8441	25.60	-0.06	-0.750			
0.1693	10834.14	3.9260	3.9260	-0.8427	25.61	-0.05	-0.750			
0.1718	10995.55	3.9230	3.9230	-0.8423	25.61	-0.05	-0.750			
0.1744	11160.89	3.9200	3.9201	-0.8428	25.61	-0.05	-0.750			
0.1769	11321.48	3.9170	3.9169	-0.8409	25.61	-0.05	-0.750			
0.1794	11481.40	3.9140	3.9140	-0.8435	25.61	-0.05	-0.750			
0.1820	11646.88	3.9110	3.9109	-0.8298	25.62	-0.04	-0.750			
0.1844	11802.30	3.9080	3.9080	-0.8299	25.62	-0.04	-0.750			
0.1869	11963.52	3.9050	3.9054	-0.8440	25.62	-0.04	-0.750			
0.1894	12123.60	3.9020	3.9018	-0.8498	25.62	-0.04	-0.750			
0.1920	12286.99	3.8990	3.8987	-0.8611	25.63	-0.03	-0.750			
0.1946	12454.27	3.8960	3.8962	-0.8636	25.63	-0.03	-0.750			
0.1973	12625.76	3.8930	3.8928	-0.8821	25.64	-0.02	-0.750			
0.1999	12795.99	3.8900	3.8903	-0.8821	25.64	-0.02	-0.750			
0.2025	12959.80	3.8870	3.8871	-0.8702	25.64	-0.02	-0.750			
0.2051	13128.19	3.8840	3.8839	-0.8672	25.64	-0.02	-0.750			
0.2077	13295.87	3.8810	3.8809	-0.8660	25.64	-0.02	-0.750			
0.2103	13461.24	3.8780	3.8781	-0.8706	25.64	-0.02	-0.750			
0.2129	13627.44	3.8750	3.8753	-0.8679	25.64	-0.02	-0.750			
0.2155	13793.00	3.8720	3.8719	-0.8732	25.65	-0.01	-0.750			
0.2182	13961.92	3.8690	3.8689	-0.8739	25.65	-0.01	-0.750			
0.2207	14127.87	3.8660	3.8661	-0.8755	25.65	-0.01	-0.750			
0.2234	14299.29	3.8630	3.8629	-0.8786	25.66	-0.00	-0.750			
0.2261	14469.00	3.8600	3.8599	-0.8789	25.66	0.00	-0.750			
0.2287	14636.43	3.8570	3.8570	-0.8808	25.67	0.01	-0.750			
0.2313	14805.98	3.8540	3.8539	-0.8767	25.67	0.01	-0.750			
0.2340	14972.98	3.8510	3.8510	-0.8735	25.67	0.01	-0.750			
0.2366	15142.62	3.8480	3.8480	-0.8791	25.68	0.02	-0.750			
0.2392	15310.10	3.8450	3.8450	-0.8818	25.68	0.02	-0.750			
0.2419	15480.77	3.8420	3.8420	-0.8840	25.68	0.02	-0.750			
0.2445	15649.41	3.8390	3.8389	-0.8818	25.69	0.03	-0.750			
0.2472	15818.87	3.8360	3.8361	-0.8807	25.69	0.03	-0.750			
0.2499	15990.99	3.8330	3.8332	-0.8851	25.69	0.03	-0.750			
0.2525	16158.35	3.8300	3.8300	-0.8845	25.69	0.03	-0.750			
0.2551	16326.56	3.8270	3.8271	-0.8851	25.70	0.04	-0.750			
0.2578	16497.14	3.8240	3.8239	-0.8863	25.70	0.04	-0.750			
0.2605	16669.34	3.8210	3.8210	-0.8893	25.71	0.05	-0.750			
0.2631	16839.92	3.8180	3.8181	-0.8913	25.71	0.05	-0.750			
0.2658	17012.70	3.8150	3.8151	-0.8949	25.71	0.05	-0.750			
0.2685	17184.73	3.8120	3.8119	-0.8900	25.71	0.05	-0.750			
0.2711	17353.54	3.8090	3.8090	-0.8826	25.72	0.06	-0.750			
0.2738	17523.70	3.8060	3.8060	-0.8821	25.72	0.06	-0.750			
0.2764	17691.85	3.8030	3.8030	-0.8881	25.72	0.06	-0.750			
0.2791	17861.67	3.8000	3.7999	-0.8883	25.73	0.07	-0.750			
0.2818	18033.04	3.7970	3.7970	-0.8823	25.74	0.08	-0.750			
0.2844	18203.47	3.7940	3.7940	-0.8814	25.74	0.08	-0.750			
0.2871	18374.74	3.7910	3.7910	-0.8840	25.75	0.09	-0.750			
0.2897	18542.58	3.7880	3.7880	-0.8826	25.75	0.09	-0.750			
0.2924	18710.57	3.7850	3.7849	-0.8783	25.75	0.09	-0.750			
0.2950	18877.67	3.7820	3.7820	-0.8763	25.75	0.09	-0.750			
0.2976	19046.54	3.7790	3.7789	-0.8808	25.75	0.09	-0.750			
0.3003	19217.31	3.7760	3.7762	-0.8836	25.75	0.09	-0.750			
0.3029	19387.49	3.7730	3.7730	-0.8866	25.76	0.10	-0.750			
0.3056	19556.88	3.7700	3.7700	-0.8814	25.76	0.10	-0.750			
0.3082	19725.89	3.7670	3.7670	-0.8837	25.76	0.10	-0.750			
0.3109	19895.90	3.7640	3.7640	-0.8793	25.77	0.11	-0.750			
0.3135	20063.93	3.7610	3.7609	-0.8778	25.77	0.11	-0.750			
0.3161	20232.75	3.7580	3.7581	-0.8763	25.78	0.12	-0.750			
0.3188	20400.67	3.7550	3.7549	-0.8753	25.79	0.13	-0.750			
0.3214	20568.30	3.7520	3.7520	-0.8728	25.79	0.13	-0.750			
0.3240	20737.44	3.7490	3.7489	-0.8708	25.80	0.14	-0.750			
0.3266	20901.24	3.7460	3.7460	-0.8748	25.80	0.14	-0.750			
0.3292	21070.79	3.7430	3.7430	-0.8805	25.80	0.14	-0.750			
0.3318	21236.58	3.7400	3.7400	-0.8844	25.81	0.15	-0.750			
0.3345	21407.42	3.7370	3.7370	-0.8953	25.81	0.15	-0.750			
0.3372	21582.22	3.7340	3.7341	-0.9002	25.81	0.15	-0.750			
0.3399	21755.32	3.7310	3.7310	-0.9131	25.81	0.15	-0.750			
0.3427	21933.13	3.7280	3.7281	-0.9184	25.81	0.15	-0.750			
0.3454	22108.63	3.7250	3.7249	-0.9179	25.82	0.16	-0.750			
0.3482	22285.21	3.7220	3.7219	-0.9288	25.82	0.16	-0.750			
0.3510	22462.21	3.7190	3.7189	-0.9391	25.82	0.16	-0.750			
0.3538	22642.93	3.7160	3.7160	-0.9576	25.82	0.16	-0.750			
0.3567	22829.34	3.7130	3.7130	-0.9740	25.82	0.16	-0.750			
0.3596	23017.13	3.7100	3.7099	-0.9839	25.82	0.16	-0.750			
0.3627	23209.69	3.7070	3.7072	-1.0042	25.82	0.16	-0.750			
0.3657	23403.70	3.7040	3.7039	-1.0180	25.82	0.16	-0.750			
0.3687	23599.24	3.7010	3.7010	-1.0289	25.82	0.16	-0.750			
0.3718	23795.80	3.6980	3.6980	-1.0413	25.82	0.16	-0.750			
0.3750	23996.99	3.6950	3.6952	-1.0713	25.82	0.16	-0.750			
0.3782	24205.75	3.6920	3.6920	-1.0870	25.82	0.16	-0.750			
0.3815	24415.90	3.6890	3.6889	-1.1115	25.82	0.16	-0.750			
0.3849	24630.88	3.6860	3.6860	-1.1322	25.82	0.16	-0.750			
0.3883	24850.94	3.6830	3.6830	-1.1599	25.82	0.16	-0.750			
0.3918	25076.87	3.6800	3.6799	-1.1834	25.82	0.16	-0.750			
0.3954	25306.62	3.6770	3.6770	-1.2016	25.81	0.15	-0.750			
0.3990	25536.97	3.6740	3.6741	-1.2339	25.81	0.15	-0.750			
0.4028	25780.14	3.6710	3.6709	-1.2652	25.81	0.15	-0.750			
0.4066	26024.66	3.6680	3.6678	-1.2804	25.80	0.14	-0.750			
0.4105	26271.09	3.6650	3.6651	-1.3135	25.80	0.14	-0.750			
0.4145	26525.69	3.6620	3.6620	-1.3373	25.80	0.14	-0.750			
0.4185	26787.03	3.6590	3.6589	-1.3704	25.79	0.13	-0.750			
0.4227	27051.66	3.6560	3.6559	-1.4045	25.79	0.13	-0.750			
0.4268	27314.99	3.6530	3.6531	-1.4462	25.79	0.13	-0.750			
0.4313	27604.95	3.6500	3.6499	-1.4865	25.78	0.12	-0.750			
0.4359	27896.71	3.6470	3.6466	-1.5111	25.77	0.11	-0.750			
0.4405	28189.55	3.6440	3.6440	-1.5391	25.76	0.10	-0.750			
0.4451	28488.47	3.6410	3.6408	-1.5916	25.76	0.10	-0.750			
0.4499	28795.91	3.6380	3.6379	-1.6176	25.75	0.09	-0.750			
0.4548	29104.06	3.6350	3.6351	-1.6463	25.74	0.08	-0.750			
0.4598	29427.76	3.6320	3.6320	-1.6944	25.73	0.07	-0.750			
0.4651	29765.96	3.6290	3.6287	-1.7301	25.72	0.06	-0.750			
0.4704	30104.00	3.6260	3.6257	-1.7595	25.71	0.05	-0.750	0.409	0.498	
0.4756	30439.17	3.6230	3.6232	-1.7969	25.70	0.04	-0.750			
0.4811	30793.44	3.6200	3.6201	-1.8171	25.70	0.04	-0.750			
0.4866	31144.05	3.6170	3.6170	-1.8430	25.70	0.04	-0.750			
0.4921	31494.44	3.6140	3.6140	-1.8699	25.69	0.03	-0.750			
0.4979	31862.86	3.6110	3.6111	-1.9191	25.68	0.02	-0.750			
0.5037	32238.98	3.6080	3.6078	-1.9556	25.67	0.01	-0.750			
0.5096	32613.40	3.6050	3.6048	-1.9890	25.66	0.00	-0.750			
0.5155	32994.99	3.6020	3.6020	-2.0317	25.66	0.00	-0.750			
0.5218	33394.36	3.5990	3.5991	-2.0926	25.66	0.00	-0.750			
0.5281	33798.92	3.5960	3.5963	-2.1253	25.65	-0.01	-0.750			
0.5346	34214.61	3.5930	3.5930	-2.1603	25.64	-0.02	-0.750			
0.5412	34637.66	3.5900	3.5901	-2.1868	25.64	-0.02	-0.750			
0.5479	35062.56	3.5870	3.5870	-2.2172	25.64	-0.02	-0.750			
0.5545	35488.55	3.5840	3.5839	-2.2511	25.64	-0.02	-0.750			
0.5612	35915.46	3.5810	3.5810	-2.2728	25.64	-0.02	-0.750			
0.5681	36355.46	3.5780	3.5780	-2.3019	25.63	-0.03	-0.750			
0.5750	36803.02	3.5750	3.5750	-2.3342	25.62	-0.04	-0.750			
0.5822	37259.06	3.5720	3.5719	-2.3595	25.62	-0.04	-0.750			
0.5894	37719.87	3.5690	3.5689	-2.3747	25.62	-0.04	-0.750			
0.5965	38173.42	3.5660	3.5661	-2.3772	25.62	-0.04	-0.750			
0.6036	38628.00	3.5630	3.5631	-2.3740	25.62	-0.04	-0.750			
0.6107	39083.61	3.5600	3.5600	-2.3855	25.62	-0.04	-0.750			
0.6179	39546.18	3.5570	3.5568	-2.3853	25.62	-0.04	-0.750			
0.6251	40005.38	3.5540	3.5541	-2.3911	25.62	-0.04	-0.750			
0.6323	40470.10	3.5510	3.5511	-2.3830	25.62	-0.04	-0.750			
0.6395	40925.93	3.5480	3.5480	-2.3743	25.62	-0.04	-0.750			
0.6466	41381.48	3.5450	3.5450	-2.3182	25.63	-0.03	-0.750			
0.6534	41820.42	3.5420	3.5420	-2.2950	25.63	-0.03	-0.750			
0.6604	42263.59	3.5390	3.5390	-2.2757	25.64	-0.02	-0.750			
0.6672	42698.24	3.5360	3.5358	-2.2442	25.64	-0.02	-0.750			
0.6738	43121.88	3.5330	3.5331	-2.2081	25.64	-0.02	-0.750			
0.6805	43548.87	3.5300	3.5299	-2.1583	25.65	-0.01	-0.750			
0.6869	43964.20	3.5270	3.5270	-2.1047	25.66	-0.00	-0.750			
0.6932	44365.39	3.5240	3.5240	-2.0339	25.67	0.01	-0.750			
0.6992	44748.54	3.5210	3.5210	-1.9839	25.68	0.02	-0.750			
0.7050	45121.07	3.5180	3.5181	-1.9231	25.69	0.03	-0.750			
0.7107	45484.81	3.5150	3.5149	-1.8686	25.70	0.04	-0.750			
0.7162	45839.35	3.5120	3.5120	-1.8048	25.71	0.05	-0.750			
0.7216	46184.11	3.5090	3.5089	-1.7388	25.73	0.07	-0.750			
0.7267	46509.10	3.5060	3.5060	-1.6745	25.74	0.08	-0.750			
0.7317	46825.74	3.5030	3.5030	-1.5961	25.76	0.10	-0.750			
0.7363	47121.26	3.5000	3.4998	-1.5309	25.77	0.11	-0.750			
0.7408	47410.16	3.4970	3.4971	-1.4779	25.78	0.12	-0.750			
0.7452	47692.04	3.4940	3.4940	-1.4346	25.80	0.14	-0.750			
0.7494	47961.70	3.4910	3.4911	-1.3954	25.82	0.16	-0.750			
0.7535	48222.79	3.4880	3.4880	-1.3346	25.83	0.17	-0.750			
0.7574	48475.09	3.4850	3.4849	-1.2941	25.85	0.19	-0.750			
0.7613	48723.54	3.4820	3.4822	-1.2542	25.87	0.21	-0.750			
0.7650	48957.57	3.4790	3.4789	-1.2119	25.88	0.22	-0.750			
0.7686	49187.44	3.4760	3.4760	-1.1740	25.89	0.23	-0.750			
0.7720	49409.31	3.4730	3.4730	-1.1297	25.90	0.24	-0.750			
0.7753	49618.19	3.4700	3.4702	-1.0921	25.91	0.25	-0.750			
0.7786	49829.04	3.4670	3.4669	-1.0674	25.92	0.26	-0.750			
0.7817	50027.49	3.4640	3.4640	-1.0314	25.93	0.27	-0.750			
0.7847	50223.39	3.4610	3.4609	-0.9971	25.94	0.28	-0.750			
0.7876	50409.47	3.4580	3.4582	-0.9762	25.95	0.29	-0.750			
0.7905	50592.56	3.4550	3.4550	-0.9656	25.96	0.30	-0.750			
0.7933	50773.73	3.4520	3.4520	-0.9588	25.97	0.31	-0.750			
0.7962	50955.09	3.4490	3.4489	-0.9539	25.98	0.32	-0.750			
0.7990	51135.96	3.4460	3.4460	-0.9632	25.99	0.33	-0.750			
0.8019	51318.86	3.4430	3.4431	-1.0021	25.99	0.33	-0.750			
0.8049	51512.90	3.4400	3.4400	-1.0372	26.00	0.34	-0.750			
0.8080	51711.85	3.4370	3.4368	-1.0851	26.00	0.34	-0.750			
0.8113	51923.46	3.4340	3.4339	-1.1354	26.01	0.35	-0.750			
0.8149	52153.30	3.4310	3.4309	-1.1805	26.02	0.36	-0.750			
0.8186	52389.54	3.4280	3.4280	-1.2122	26.03	0.37	-0.750			
0.8224	52632.20	3.4250	3.4249	-1.2148	26.04	0.38	-0.750			
0.8260	52865.05	3.4220	3.4221	-1.1992	26.05	0.39	-0.750			
0.8297	53100.09	3.4190	3.4190	-1.1838	26.06	0.40	-0.750			
0.8332	53324.74	3.4160	3.4160	-1.1386	26.06	0.40	-0.750			
0.8366	53540.75	3.4130	3.4129	-1.0956	26.07	0.41	-0.750			
0.8398	53747.04	3.4100	3.4101	-1.0577	26.08	0.42	-0.750			
0.8429	53944.40	3.4070	3.4070	-1.0168	26.09	0.43	-0.750			
0.8459	54135.56	3.4040	3.4039	-0.9784	26.10	0.44	-0.750			
0.8487	54318.08	3.4010	3.4009	-0.9419	26.11	0.45	-0.750			
0.8515	54496.60	3.3980	3.3979	-0.9105	26.11	0.45	-0.750			
0.8542	54669.97	3.3950	3.3949	-0.8821	26.12	0.46	-0.750			
0.8568	54835.87	3.3920	3.3920	-0.8487	26.12	0.46	-0.750			
0.8593	54994.49	3.3890	3.3891	-0.8134	26.13	0.47	-0.750			
0.8617	55149.41	3.3860	3.3860	-0.7830	26.13	0.47	-0.750			
0.8640	55296.76	3.3830	3.3829	-0.7538	26.14	0.48	-0.750			
0.8662	55435.96	3.3800	3.3800	-0.7200	26.14	0.48	-0.750			
0.8683	55571.76	3.3770	3.3770	-0.6938	26.15	0.49	-0.750			
0.8703	55702.29	3.3740	3.3739	-0.6623	26.16	0.50	-0.750			
0.8723	55828.63	3.3710	3.3710	-0.6324	26.16	0.50	-0.750			
0.8742	55946.91	3.3680	3.3681	-0.6038	26.17	0.51	-0.750			
0.8759	56058.62	3.3650	3.3650	-0.5805	26.17	0.51	-0.750			
0.8776	56166.52	3.3620	3.3618	-0.5560	26.18	0.52	-0.750			
0.8792	56269.63	3.3590	3.3590	-0.5318	26.18	0.52	-0.750			
0.8808	56370.46	3.3560	3.3561	-0.5110	26.19	0.53	-0.750			
0.8823	56468.80	3.3530	3.3530	-0.4962	26.19	0.53	-0.750			
0.8838	56562.19	3.3500	3.3500	-0.4740	26.20	0.54	-0.750			
0.8851	56649.48	3.3470	3.3469	-0.4490	26.20	0.54	-0.750			
0.8864	56732.54	3.3440	3.3439	-0.4299	26.21	0.55	-0.750			
0.8877	56813.88	3.3410	3.3411	-0.4108	26.21	0.55	-0.750			
0.8889	56890.85	3.3380	3.3379	-0.3930	26.22	0.56	-0.750			
0.8901	56964.87	3.3350	3.3350	-0.3763	26.22	0.56	-0.750			
0.8912	57034.10	3.3320	3.3321	-0.3582	26.23	0.57	-0.750			
0.8922	57101.74	3.3290	3.3289	-0.3446	26.23	0.57	-0.750			
0.8932	57165.83	3.3260	3.3260	-0.3302	26.23	0.57	-0.750			
0.8942	57227.67	3.3230	3.3230	-0.3168	26.24	0.58	-0.750			
0.8951	57287.81	3.3200	3.3200	-0.3062	26.24	0.58	-0.750			
0.8960	57344.99	3.3170	3.3169	-0.2931	26.25	0.59	-0.750			
0.8969	57399.76	3.3140	3.3141	-0.2827	26.25	0.59	-0.750			
0.8977	57452.84	3.3110	3.3110	-0.2728	26.25	0.59	-0.750			
0.8985	57504.15	3.3080	3.3080	-0.2632	26.26	0.60	-0.750			
0.8993	57553.87	3.3050	3.3050	-0.2539	26.26	0.60	-0.750			
0.9000	57601.47	3.3020	3.3021	-0.2440	26.26	0.60	-0.750			
0.9007	57647.97	3.2990	3.2990	-0.2356	26.27	0.61	-0.750			
0.9014	57691.94	3.2960	3.2960	-0.2275	26.27	0.61	-0.750			
0.9021	57733.94	3.2930	3.2930	-0.2196	26.28	0.62	-0.750			
0.9027	57775.42	3.2900	3.2901	-0.2135	26.28	0.62	-0.750			
0.9034	57815.89	3.2870	3.2869	-0.2081	26.28	0.62	-0.750			
0.9040	57855.14	3.2840	3.2840	-0.2026	26.29	0.63	-0.750			
0.9046	57893.58	3.2810	3.2811	-0.1979	26.29	0.63	-0.750			
0.9052	57931.16	3.2780	3.2780	-0.1933	26.29	0.63	-0.750			
0.9057	57967.79	3.2750	3.2750	-0.1882	26.30	0.64	-0.750			
0.9063	58003.38	3.2720	3.2720	-0.1826	26.30	0.64	-0.750			
0.9068	58037.54	3.2690	3.2690	-0.1782	26.31	0.65	-0.750			
0.9074	58071.39	3.2660	3.2661	-0.1742	26.31	0.65	-0.750			
0.9079	58104.39	3.2630	3.2629	-0.1704	26.31	0.65	-0.750			
0.9084	58136.55	3.2600	3.2599	-0.1668	26.32	0.66	-0.750			
0.9089	58168.04	3.2570	3.2571	-0.1632	26.32	0.66	-0.750			
0.9094	58199.08	3.2540	3.2540	-0.1603	26.32	0.66	-0.750			
0.9098	58229.61	3.2510	3.2510	-0.1572	26.32	0.66	-0.750			
0.9103	58259.71	3.2480	3.2480	-0.1545	26.33	0.67	-0.750			
0.9108	58288.74	3.2450	3.2449	-0.1510	26.33	0.67	-0.750			
0.9112	58317.32	3.2420	3.2420	-0.1489	26.33	0.67	-0.750			
0.9117	58345.62	3.2390	3.2391	-0.1466	26.34	0.68	-0.750			
0.9121	58373.46	3.2360	3.2360	-0.1443	26.34	0.68	-0.750			
0.9125	58401.01	3.2330	3.2329	-0.1419	26.34	0.68	-0.750			
0.9129	58428.06	3.2300	3.2300	-0.1399	26.35	0.69	-0.750			
0.9134	58454.81	3.2270	3.2270	-0.1377	26.35	0.69	-0.750			
0.9138	58480.98	3.2240	3.2240	-0.1359	26.36	0.70	-0.750			
0.9142	58506.84	3.2210	3.2209	-0.1338	26.36	0.70	-0.750			
0.9146	58532.11	3.2180	3.2180	-0.1315	26.36	0.70	-0.750			
0.9150	58557.24	3.2150	3.2150	-0.1300	26.37	0.71	-0.750			
0.9153	58582.17	3.2120	3.2120	-0.1282	26.37	0.71	-0.750			
0.9157	58606.72	3.2090	3.2090	-0.1266	26.38	0.72	-0.750			
0.9161	58630.74	3.2060	3.2060	-0.1250	26.38	0.72	-0.750			
0.9165	58654.55	3.2030	3.2030	-0.1232	26.38	0.72	-0.750			
0.9168	58677.84	3.2000	3.2000	-0.1215	26.39	0.73	-0.750			
0.9172	58701.04	3.1970	3.1970	-0.1202	26.39	0.73	-0.750			
0.9176	58723.99	3.1940	3.1940	-0.1189	26.39	0.73	-0.750			
0.9179	58746.59	3.1910	3.1910	-0.1175	26.40	0.74	-0.750			
0.9183	58768.96	3.1880	3.1880	-0.1166	26.40	0.74	-0.750			
0.9186	58791.26	3.1850	3.1849	-0.1156	26.41	0.75	-0.750			
0.9190	58813.47	3.1820	3.1820	-0.1143	26.41	0.75	-0.750			
0.9193	58835.29	3.1790	3.1790	-0.1131	26.41	0.75	-0.750			
0.9196	58856.84	3.1760	3.1760	-0.1120	26.42	0.76	-0.750			
0.9200	58878.27	3.1730	3.1731	-0.1109	26.42	0.76	-0.750			
0.9203	58899.33	3.1700	3.1701	-0.1102	26.42	0.76	-0.750			
0.9206	58920.34	3.1670	3.1670	-0.1092	26.43	0.77	-0.750			
0.9210	58941.32	3.1640	3.1639	-0.1081	26.43	0.77	-0.750			
0.9213	58961.85	3.1610	3.1608	-0.1069	26.43	0.77	-0.750			
0.9216	58982.37	3.1580	3.1580	-0.1060	26.44	0.78	-0.750			
0.9219	59002.85	3.1550	3.1550	-0.1054	26.44	0.78	-0.750			
0.9222	59022.85	3.1520	3.1520	-0.1044	26.44	0.78	-0.750			
0.9225	59042.76	3.1490	3.1490	-0.1033	26.44	0.78	-0.750			
0.9229	59062.46	3.1460	3.1460	-0.1024	26.45	0.79	-0.750			
0.9232	59081.87	3.1430	3.1431	-0.1012	26.45	0.79	-0.750			
0.9235	59101.23	3.1400	3.1399	-0.1005	26.45	0.79	-0.750			
0.9238	59120.48	3.1370	3.1371	-0.1001	26.45	0.79	-0.750			
0.9241	59139.63	3.1340	3.1339	-0.0994	26.46	0.80	-0.750			
0.9244	59158.79	3.1310	3.1310	-0.0983	26.46	0.80	-0.750			
0.9246	59177.57	3.1280	3.1278	-0.0973	26.46	0.80	-0.750			
0.9249	59196.06	3.1250	3.1251	-0.0967	26.46	0.80	-0.750			
0.9252	59214.56	3.1220	3.1221	-0.0960	26.47	0.81	-0.750			
0.9255	59232.98	3.1190	3.1189	-0.0951	26.47	0.81	-0.750			
0.9258	59251.17	3.1160	3.1160	-0.0943	26.47	0.81	-0.750			
0.9261	59268.97	3.1130	3.1129	-0.0935	26.48	0.82	-0.750			
0.9264	59286.89	3.1100	3.1102	-0.0931	26.48	0.82	-0.750			
0.9266	59304.74	3.1070	3.1070	-0.0931	26.48	0.82	-0.750			
0.9269	59322.58	3.1040	3.1039	-0.0927	26.49	0.83	-0.750			
0.9272	59340.36	3.1010	3.1010	-0.0918	26.49	0.83	-0.750			
0.9275	59357.93	3.0980	3.0980	-0.0913	26.50	0.84	-0.750			
0.9277	59375.56	3.0950	3.0950	-0.0912	26.50	0.84	-0.750			
0.9280	59393.00	3.0920	3.0921	-0.0905	26.50	0.84	-0.750			
0.9283	59410.29	3.0890	3.0890	-0.0897	26.51	0.85	-0.750			
0.9286	59427.44	3.0860	3.0859	-0.0890	26.51	0.85	-0.750			
0.9288	59444.39	3.0830	3.0831	-0.0880	26.51	0.85	-0.750			
0.9291	59461.23	3.0800	3.0800	-0.0874	26.52	0.86	-0.750			
0.9293	59477.92	3.0770	3.0770	-0.0870	26.52	0.86	-0.750			
0.9296	59494.68	3.0740	3.0740	-0.0866	26.52	0.86	-0.750			
0.9299	59511.20	3.0710	3.0709	-0.0861	26.53	0.87	-0.750			
0.9301	59527.52	3.0680	3.0680	-0.0854	26.53	0.87	-0.750			
0.9304	59543.87	3.0650	3.0649	-0.0852	26.53	0.87	-0.750			
0.9306	59560.19	3.0620	3.0622	-0.0849	26.54	0.88	-0.750			
0.9309	59576.48	3.0590	3.0592	-0.0847	26.54	0.88	-0.750			
0.9311	59592.83	3.0560	3.0558	-0.0842	26.54	0.88	-0.750			
0.9314	59608.94	3.0530	3.0530	-0.0837	26.55	0.89	-0.750			
0.9316	59624.93	3.0500	3.0500	-0.0832	26.55	0.89	-0.750			
0.9319	59640.86	3.0470	3.0471	-0.0827	26.55	0.89	-0.750			
0.9321	59656.70	3.0440	3.0440	-0.0824	26.56	0.90	-0.750			
0.9324	59672.48	3.0410	3.0410	-0.0820	26.56	0.90	-0.750			
0.9326	59688.06	3.0380	3.0381	-0.0814	26.56	0.90	-0.750			
0.9329	59703.65	3.0350	3.0350	-0.0811	26.57	0.91	-0.750			
0.9331	59719.20	3.0320	3.0319	-0.0808	26.57	0.91	-0.750			
0.9334	59734.84	3.0290	3.0290	-0.0803	26.57	0.91	-0.750			
0.9336	59750.21	3.0260	3.0260	-0.0798	26.58	0.92	-0.750			
0.9338	59765.55	3.0230	3.0231	-0.0793	26.58	0.92	-0.750			
0.9341	59780.75	3.0200	3.0199	-0.0784	26.58	0.92	-0.750			
0.9343	59795.82	3.0170	3.0170	-0.0778	26.58	0.92	-0.750			
0.9345	59810.66	3.0140	3.0141	-0.0769	26.59	0.93	-0.750			
0.9348	59825.33	3.0110	3.0109	-0.0760	26.59	0.93	-0.750			
0.9350	59839.84	3.0080	3.0079	-0.0751	26.59	0.93	-0.751			
0.9352	59854.17	3.0050	3.0050	-0.0742	26.60	0.94	-0.751			
