Ah_balance (normalized)	Ah_balance (mAh)	Voltage - fit (V)	Voltage -  interpolate (V)	dQ/dV (1/V)	Temperature (°C)	Temperature - diff (°C)	Current (C)	R_DC 0ms (mOhm)	R_DC 50ms (mOhm)	R_DC 50 ms PEC (mOhm)
0.0003	21.60	4.1630	4.1627	-0.1210	25.76	0.01	-0.750			
0.0008	49.68	4.1600	4.1598	-0.1669	25.76	0.01	-0.750			
0.0013	86.17	4.1570	4.1570	-0.2100	25.76	0.01	-0.750			
0.0021	131.27	4.1540	4.1539	-0.2495	25.76	0.01	-0.750			
0.0029	183.02	4.1510	4.1511	-0.2892	25.75	0.00	-0.750			
0.0038	243.46	4.1480	4.1480	-0.3276	25.75	-0.00	-0.750			
0.0048	309.77	4.1450	4.1450	-0.3644	25.75	-0.00	-0.750			
0.0060	384.19	4.1420	4.1420	-0.3974	25.74	-0.01	-0.750			
0.0073	464.27	4.1390	4.1390	-0.4315	25.74	-0.01	-0.750			
0.0086	551.19	4.1360	4.1360	-0.4606	25.73	-0.02	-0.750			
0.0100	642.87	4.1330	4.1330	-0.4886	25.73	-0.02	-0.750			
0.0116	739.88	4.1300	4.1299	-0.5115	25.72	-0.03	-0.750			
0.0131	840.88	4.1270	4.1270	-0.5327	25.72	-0.03	-0.750			
0.0148	945.40	4.1240	4.1240	-0.5521	25.71	-0.04	-0.750			
0.0165	1054.19	4.1210	4.1211	-0.5693	25.71	-0.04	-0.750			
0.0182	1165.52	4.1180	4.1180	-0.5831	25.71	-0.04	-0.750			
0.0200	1279.55	4.1150	4.1150	-0.5958	25.70	-0.05	-0.750			
0.0218	1394.49	4.1120	4.1121	-0.6091	25.70	-0.05	-0.750			
0.0236	1513.36	4.1090	4.1090	-0.6209	25.69	-0.06	-0.750			
0.0255	1633.26	4.1060	4.1060	-0.6309	25.69	-0.06	-0.750			
0.0274	1756.08	4.1030	4.1029	-0.6401	25.68	-0.07	-0.750			
0.0294	1879.97	4.1000	4.1002	-0.6506	25.68	-0.07	-0.750			
0.0314	2007.27	4.0970	4.0969	-0.6573	25.68	-0.07	-0.750			
0.0333	2134.25	4.0940	4.0940	-0.6606	25.68	-0.07	-0.750			
0.0353	2260.40	4.0910	4.0910	-0.6646	25.67	-0.08	-0.750			
0.0373	2389.12	4.0880	4.0880	-0.6698	25.67	-0.08	-0.750			
0.0393	2517.94	4.0850	4.0849	-0.6732	25.67	-0.08	-0.750			
0.0414	2647.02	4.0820	4.0820	-0.6801	25.67	-0.08	-0.750			
0.0434	2777.62	4.0790	4.0790	-0.6863	25.67	-0.08	-0.750			
0.0455	2910.41	4.0760	4.0760	-0.6966	25.67	-0.08	-0.750			
0.0476	3045.31	4.0730	4.0730	-0.7034	25.66	-0.09	-0.750			
0.0497	3182.36	4.0700	4.0700	-0.7040	25.66	-0.09	-0.750			
0.0518	3318.28	4.0670	4.0670	-0.7090	25.66	-0.09	-0.750			
0.0540	3455.19	4.0640	4.0642	-0.7086	25.66	-0.09	-0.750			
0.0561	3590.60	4.0610	4.0609	-0.7073	25.66	-0.09	-0.750			
0.0582	3724.47	4.0580	4.0580	-0.7126	25.66	-0.09	-0.750			
0.0604	3862.62	4.0550	4.0550	-0.7133	25.66	-0.09	-0.750			
0.0625	3999.90	4.0520	4.0519	-0.7186	25.66	-0.09	-0.750			
0.0647	4138.82	4.0490	4.0490	-0.7215	25.66	-0.09	-0.750			
0.0668	4277.47	4.0460	4.0460	-0.7206	25.66	-0.09	-0.750			
0.0690	4417.18	4.0430	4.0429	-0.7208	25.66	-0.09	-0.750			
0.0712	4554.57	4.0400	4.0400	-0.7193	25.66	-0.09	-0.750			
0.0733	4691.01	4.0370	4.0371	-0.7188	25.67	-0.08	-0.750			
0.0755	4829.99	4.0340	4.0340	-0.7266	25.67	-0.08	-0.750			
0.0776	4969.36	4.0310	4.0309	-0.7250	25.67	-0.08	-0.750			
0.0798	5109.17	4.0280	4.0279	-0.7297	25.67	-0.08	-0.750			
0.0820	5249.53	4.0250	4.0251	-0.7329	25.67	-0.08	-0.750			
0.0842	5391.11	4.0220	4.0221	-0.7417	25.67	-0.08	-0.750			
0.0865	5533.77	4.0190	4.0189	-0.7443	25.68	-0.07	-0.750			
0.0887	5678.18	4.0160	4.0159	-0.7445	25.68	-0.07	-0.750			
0.0910	5821.20	4.0130	4.0131	-0.7438	25.68	-0.07	-0.750			
0.0932	5965.16	4.0100	4.0100	-0.7440	25.68	-0.07	-0.750			
0.0954	6108.03	4.0070	4.0070	-0.7420	25.68	-0.07	-0.750			
0.0977	6250.03	4.0040	4.0039	-0.7452	25.68	-0.07	-0.750			
0.0999	6391.43	4.0010	4.0010	-0.7454	25.68	-0.07	-0.750			
0.1021	6536.77	3.9980	3.9979	-0.7485	25.68	-0.07	-0.750			
0.1044	6681.26	3.9950	3.9951	-0.7481	25.68	-0.07	-0.750			
0.1066	6825.39	3.9920	3.9919	-0.7498	25.68	-0.07	-0.750			
0.1089	6967.80	3.9890	3.9891	-0.7572	25.68	-0.07	-0.750			
0.1111	7111.61	3.9860	3.9859	-0.7570	25.69	-0.06	-0.750			
0.1134	7260.06	3.9830	3.9829	-0.7636	25.69	-0.06	-0.750			
0.1157	7406.87	3.9800	3.9799	-0.7684	25.69	-0.06	-0.750			
0.1181	7556.58	3.9770	3.9771	-0.7678	25.69	-0.06	-0.750			
0.1204	7704.93	3.9740	3.9740	-0.7699	25.69	-0.06	-0.750			
0.1227	7850.93	3.9710	3.9710	-0.7672	25.70	-0.05	-0.750			
0.1249	7995.99	3.9680	3.9680	-0.7652	25.70	-0.05	-0.750			
0.1273	8144.48	3.9650	3.9649	-0.7745	25.70	-0.05	-0.750			
0.1296	8293.37	3.9620	3.9620	-0.7793	25.70	-0.05	-0.750			
0.1319	8442.32	3.9590	3.9590	-0.7854	25.71	-0.04	-0.750			
0.1343	8596.05	3.9560	3.9560	-0.7905	25.71	-0.04	-0.750			
0.1367	8749.01	3.9530	3.9530	-0.7899	25.71	-0.04	-0.750			
0.1391	8902.03	3.9500	3.9499	-0.7887	25.72	-0.03	-0.750			
0.1414	9052.60	3.9470	3.9472	-0.7882	25.72	-0.03	-0.750			
0.1438	9203.14	3.9440	3.9440	-0.7861	25.73	-0.02	-0.750			
0.1461	9353.27	3.9410	3.9409	-0.7873	25.73	-0.02	-0.750			
0.1485	9504.33	3.9380	3.9380	-0.7880	25.74	-0.01	-0.750			
0.1509	9656.52	3.9350	3.9350	-0.7944	25.74	-0.01	-0.750			
0.1533	9808.58	3.9320	3.9320	-0.7976	25.75	-0.00	-0.750			
0.1557	9963.08	3.9290	3.9290	-0.7992	25.75	0.00	-0.750			
0.1581	10116.07	3.9260	3.9260	-0.8012	25.75	0.00	-0.750			
0.1605	10270.92	3.9230	3.9230	-0.8039	25.75	0.00	-0.750			
0.1629	10425.17	3.9200	3.9200	-0.8050	25.75	0.00	-0.750			
0.1653	10580.03	3.9170	3.9170	-0.8080	25.75	0.00	-0.750			
0.1677	10734.97	3.9140	3.9140	-0.8064	25.75	0.00	-0.750			
0.1701	10889.04	3.9110	3.9110	-0.8144	25.76	0.01	-0.750			
0.1726	11048.12	3.9080	3.9080	-0.8149	25.76	0.01	-0.750			
0.1751	11204.28	3.9050	3.9049	-0.8125	25.76	0.01	-0.750			
0.1775	11361.95	3.9020	3.9020	-0.8137	25.77	0.02	-0.750			
0.1800	11517.44	3.8990	3.8991	-0.8117	25.77	0.02	-0.750			
0.1824	11671.78	3.8960	3.8959	-0.8176	25.78	0.03	-0.750			
0.1848	11828.95	3.8930	3.8930	-0.8173	25.78	0.03	-0.750			
0.1873	11984.60	3.8900	3.8900	-0.8182	25.78	0.03	-0.750			
0.1897	12143.72	3.8870	3.8870	-0.8234	25.79	0.04	-0.750			
0.1922	12303.61	3.8840	3.8841	-0.8235	25.79	0.04	-0.750			
0.1947	12460.80	3.8810	3.8809	-0.8255	25.80	0.05	-0.750			
0.1972	12618.58	3.8780	3.8779	-0.8227	25.80	0.05	-0.750			
0.1996	12775.28	3.8750	3.8751	-0.8236	25.80	0.05	-0.750			
0.2021	12935.32	3.8720	3.8719	-0.8278	25.81	0.06	-0.750			
0.2046	13095.46	3.8690	3.8690	-0.8270	25.81	0.06	-0.750			
0.2071	13253.63	3.8660	3.8660	-0.8315	25.81	0.06	-0.750			
0.2096	13414.05	3.8630	3.8630	-0.8301	25.81	0.06	-0.750			
0.2121	13572.56	3.8600	3.8600	-0.8245	25.81	0.06	-0.750			
0.2146	13731.86	3.8570	3.8570	-0.8259	25.81	0.06	-0.750			
0.2170	13889.31	3.8540	3.8540	-0.8236	25.81	0.06	-0.750			
0.2195	14046.20	3.8510	3.8510	-0.8316	25.81	0.06	-0.750			
0.2220	14207.10	3.8480	3.8479	-0.8332	25.81	0.06	-0.750			
0.2245	14367.57	3.8450	3.8449	-0.8328	25.82	0.07	-0.750			
0.2270	14529.17	3.8420	3.8420	-0.8377	25.82	0.07	-0.750			
0.2295	14690.92	3.8390	3.8391	-0.8385	25.82	0.07	-0.750			
0.2320	14850.02	3.8360	3.8359	-0.8413	25.83	0.08	-0.750			
0.2345	15010.91	3.8330	3.8329	-0.8372	25.83	0.08	-0.750			
0.2371	15171.88	3.8300	3.8300	-0.8360	25.84	0.09	-0.750			
0.2396	15334.02	3.8270	3.8269	-0.8339	25.85	0.10	-0.750			
0.2421	15495.00	3.8240	3.8241	-0.8346	25.85	0.10	-0.750			
0.2446	15652.69	3.8210	3.8210	-0.8344	25.86	0.11	-0.750			
0.2471	15811.95	3.8180	3.8178	-0.8315	25.86	0.11	-0.750			
0.2495	15970.40	3.8150	3.8150	-0.8291	25.86	0.11	-0.750			
0.2521	16133.28	3.8120	3.8120	-0.8307	25.87	0.12	-0.750			
0.2546	16293.91	3.8090	3.8091	-0.8325	25.87	0.12	-0.750			
0.2571	16452.95	3.8060	3.8060	-0.8304	25.88	0.13	-0.750			
0.2595	16609.58	3.8030	3.8029	-0.8233	25.88	0.13	-0.750			
0.2620	16767.20	3.8000	3.8000	-0.8201	25.88	0.13	-0.750			
0.2645	16925.57	3.7970	3.7970	-0.8233	25.89	0.14	-0.750			
0.2669	17084.24	3.7940	3.7941	-0.8229	25.89	0.14	-0.750			
0.2694	17242.97	3.7910	3.7909	-0.8216	25.89	0.14	-0.750			
0.2719	17398.55	3.7880	3.7880	-0.8207	25.89	0.14	-0.750			
0.2743	17556.71	3.7850	3.7849	-0.8147	25.90	0.15	-0.750			
0.2768	17714.31	3.7820	3.7820	-0.8134	25.90	0.15	-0.750			
0.2792	17870.97	3.7790	3.7791	-0.8055	25.90	0.15	-0.750			
0.2816	18024.42	3.7760	3.7759	-0.7992	25.90	0.15	-0.750			
0.2840	18177.39	3.7730	3.7730	-0.7988	25.91	0.16	-0.750			
0.2864	18329.48	3.7700	3.7698	-0.7918	25.91	0.16	-0.750			
0.2888	18481.34	3.7670	3.7670	-0.7908	25.92	0.17	-0.750			
0.2912	18633.68	3.7640	3.7643	-0.7867	25.92	0.17	-0.750			
0.2935	18784.32	3.7610	3.7610	-0.7854	25.92	0.17	-0.750			
0.2959	18934.47	3.7580	3.7579	-0.7851	25.92	0.17	-0.750			
0.2982	19081.92	3.7550	3.7550	-0.7803	25.93	0.18	-0.750			
0.3005	19233.45	3.7520	3.7520	-0.7839	25.93	0.18	-0.750			
0.3029	19383.36	3.7490	3.7490	-0.7869	25.93	0.18	-0.750			
0.3052	19533.86	3.7460	3.7460	-0.7930	25.93	0.18	-0.750			
0.3076	19685.85	3.7430	3.7430	-0.8074	25.94	0.19	-0.750			
0.3100	19841.02	3.7400	3.7400	-0.8108	25.94	0.19	-0.750			
0.3125	19998.63	3.7370	3.7369	-0.8203	25.94	0.19	-0.750			
0.3150	20158.50	3.7340	3.7339	-0.8284	25.95	0.20	-0.750			
0.3175	20318.83	3.7310	3.7309	-0.8330	25.95	0.20	-0.750			
0.3200	20477.76	3.7280	3.7280	-0.8387	25.95	0.20	-0.750			
0.3225	20637.01	3.7250	3.7250	-0.8453	25.95	0.20	-0.750			
0.3250	20798.58	3.7220	3.7220	-0.8547	25.95	0.20	-0.750			
0.3276	20966.39	3.7190	3.7190	-0.8729	25.95	0.20	-0.750			
0.3302	21134.40	3.7160	3.7159	-0.8870	25.95	0.20	-0.750			
0.3329	21305.60	3.7130	3.7131	-0.9065	25.96	0.21	-0.750			
0.3356	21481.13	3.7100	3.7101	-0.9259	25.96	0.21	-0.750			
0.3384	21660.21	3.7070	3.7069	-0.9448	25.97	0.22	-0.750			
0.3413	21843.85	3.7040	3.7040	-0.9694	25.97	0.22	-0.750			
0.3442	22031.43	3.7010	3.7010	-0.9941	25.97	0.22	-0.750			
0.3473	22227.09	3.6980	3.6979	-1.0087	25.97	0.22	-0.750			
0.3504	22424.68	3.6950	3.6950	-1.0236	25.97	0.22	-0.750			
0.3535	22622.85	3.6920	3.6920	-1.0353	25.97	0.22	-0.750			
0.3566	22821.58	3.6890	3.6891	-1.0593	25.97	0.22	-0.750			
0.3598	23025.60	3.6860	3.6859	-1.0727	25.96	0.21	-0.750			
0.3630	23232.20	3.6830	3.6829	-1.0892	25.96	0.21	-0.750			
0.3663	23441.73	3.6800	3.6803	-1.1199	25.95	0.20	-0.750			
0.3697	23661.82	3.6770	3.6770	-1.1427	25.95	0.20	-0.750			
0.3732	23884.48	3.6740	3.6739	-1.1629	25.95	0.20	-0.750			
0.3767	24107.11	3.6710	3.6710	-1.1857	25.95	0.20	-0.750			
0.3803	24337.04	3.6680	3.6680	-1.2117	25.95	0.20	-0.750			
0.3839	24572.80	3.6650	3.6650	-1.2361	25.94	0.19	-0.750			
0.3877	24811.17	3.6620	3.6619	-1.2592	25.94	0.19	-0.750			
0.3915	25055.09	3.6590	3.6593	-1.2866	25.93	0.18	-0.750			
0.3954	25308.75	3.6560	3.6559	-1.3187	25.92	0.17	-0.750			
0.3994	25564.57	3.6530	3.6529	-1.3415	25.92	0.17	-0.750			
0.4035	25824.17	3.6500	3.6504	-1.3679	25.91	0.16	-0.750			
0.4076	26089.02	3.6470	3.6469	-1.3989	25.90	0.15	-0.750			
0.4118	26357.91	3.6440	3.6440	-1.4366	25.90	0.15	-0.750			
0.4162	26634.82	3.6410	3.6412	-1.4732	25.89	0.14	-0.750			
0.4208	26928.82	3.6380	3.6380	-1.5154	25.88	0.13	-0.750			
0.4254	27223.20	3.6350	3.6348	-1.5464	25.88	0.13	-0.750			
0.4300	27522.46	3.6320	3.6320	-1.5816	25.87	0.12	-0.750			
0.4349	27834.74	3.6290	3.6290	-1.6005	25.86	0.11	-0.750			
0.4397	28139.04	3.6260	3.6262	-1.6259	25.85	0.10	-0.750			
0.4445	28451.05	3.6230	3.6229	-1.6480	25.84	0.09	-0.750			
0.4496	28773.81	3.6200	3.6200	-1.6796	25.83	0.08	-0.750	0.404	0.514	
0.4546	29097.41	3.6170	3.6171	-1.7083	25.82	0.07	-0.750			
0.4598	29425.15	3.6140	3.6139	-1.7402	25.82	0.07	-0.750			
0.4651	29764.82	3.6110	3.6107	-1.7714	25.81	0.06	-0.750			
0.4705	30109.55	3.6080	3.6080	-1.8202	25.81	0.06	-0.750			
0.4758	30454.23	3.6050	3.6049	-1.8544	25.81	0.06	-0.750			
0.4816	30819.66	3.6020	3.6022	-1.8975	25.81	0.06	-0.750			
0.4874	31191.32	3.5990	3.5989	-1.9537	25.80	0.05	-0.750			
0.4932	31563.09	3.5960	3.5959	-1.9918	25.79	0.04	-0.750			
0.4993	31956.87	3.5930	3.5928	-2.0198	25.78	0.03	-0.750			
0.5055	32351.04	3.5900	3.5901	-2.0699	25.78	0.03	-0.750			
0.5117	32745.77	3.5870	3.5870	-2.0926	25.77	0.02	-0.750			
0.5180	33154.89	3.5840	3.5839	-2.1127	25.77	0.02	-0.750			
0.5244	33563.37	3.5810	3.5810	-2.1331	25.77	0.02	-0.750			
0.5309	33975.30	3.5780	3.5781	-2.1666	25.77	0.02	-0.750			
0.5374	34395.17	3.5750	3.5749	-2.1913	25.76	0.01	-0.750			
0.5441	34824.52	3.5720	3.5720	-2.2222	25.75	0.00	-0.750			
0.5508	35248.74	3.5690	3.5690	-2.2288	25.75	0.00	-0.750			
0.5575	35681.02	3.5660	3.5660	-2.2598	25.75	-0.00	-0.750			
0.5644	36120.22	3.5630	3.5630	-2.2709	25.74	-0.01	-0.750			
0.5712	36557.29	3.5600	3.5601	-2.2738	25.74	-0.01	-0.750			
0.5780	36992.95	3.5570	3.5570	-2.2837	25.75	-0.00	-0.750			
0.5849	37433.20	3.5540	3.5540	-2.2842	25.75	0.00	-0.750			
0.5918	37873.71	3.5510	3.5510	-2.2928	25.75	-0.00	-0.750			
0.5987	38313.76	3.5480	3.5481	-2.2762	25.74	-0.01	-0.750			
0.6055	38754.96	3.5450	3.5450	-2.2538	25.74	-0.01	-0.750			
0.6123	39188.26	3.5420	3.5420	-2.2298	25.75	-0.00	-0.750			
0.6190	39613.07	3.5390	3.5390	-2.1978	25.75	0.00	-0.750			
0.6254	40027.29	3.5360	3.5359	-2.1592	25.75	0.00	-0.750			
0.6319	40441.57	3.5330	3.5330	-2.1164	25.75	0.00	-0.750			
0.6382	40844.96	3.5300	3.5301	-2.0753	25.76	0.01	-0.750			
0.6444	41241.76	3.5270	3.5269	-2.0440	25.76	0.01	-0.750			
0.6505	41632.56	3.5240	3.5238	-1.9864	25.77	0.02	-0.750			
0.6564	42007.54	3.5210	3.5212	-1.9408	25.77	0.02	-0.750			
0.6621	42376.21	3.5180	3.5179	-1.8938	25.78	0.03	-0.750			
0.6677	42734.41	3.5150	3.5151	-1.8326	25.79	0.04	-0.750			
0.6731	43080.57	3.5120	3.5119	-1.7900	25.80	0.05	-0.750			
0.6785	43422.11	3.5090	3.5089	-1.7420	25.81	0.06	-0.750			
0.6835	43746.56	3.5060	3.5060	-1.6746	25.83	0.08	-0.750			
0.6886	44067.45	3.5030	3.5030	-1.6343	25.84	0.09	-0.750			
0.6934	44376.95	3.5000	3.4999	-1.5727	25.86	0.11	-0.750			
0.6981	44675.71	3.4970	3.4970	-1.5184	25.87	0.12	-0.750			
0.7025	44961.81	3.4940	3.4939	-1.4679	25.88	0.13	-0.750			
0.7068	45234.56	3.4910	3.4909	-1.4050	25.89	0.14	-0.750			
0.7110	45502.09	3.4880	3.4879	-1.3627	25.91	0.16	-0.750			
0.7149	45753.49	3.4850	3.4850	-1.3187	25.93	0.18	-0.750			
0.7188	46000.73	3.4820	3.4821	-1.2702	25.94	0.19	-0.750			
0.7226	46246.12	3.4790	3.4789	-1.2398	25.95	0.20	-0.750			
0.7262	46479.59	3.4760	3.4759	-1.1971	25.96	0.21	-0.750			
0.7297	46702.91	3.4730	3.4732	-1.1643	25.98	0.23	-0.750			
0.7332	46924.37	3.4700	3.4699	-1.1271	25.99	0.24	-0.750			
0.7365	47136.90	3.4670	3.4669	-1.0872	26.01	0.26	-0.750			
0.7397	47340.76	3.4640	3.4640	-1.0438	26.02	0.27	-0.750			
0.7428	47539.56	3.4610	3.4610	-1.0154	26.04	0.29	-0.750			
0.7458	47730.55	3.4580	3.4580	-0.9862	26.04	0.29	-0.750			
0.7487	47915.83	3.4550	3.4549	-0.9570	26.05	0.30	-0.750			
0.7515	48093.32	3.4520	3.4520	-0.9264	26.06	0.31	-0.750			
0.7542	48271.00	3.4490	3.4491	-0.9100	26.07	0.32	-0.750			
0.7569	48442.45	3.4460	3.4460	-0.8952	26.08	0.33	-0.750			
0.7595	48610.39	3.4430	3.4430	-0.8909	26.09	0.34	-0.750			
0.7621	48775.74	3.4400	3.4399	-0.8899	26.10	0.35	-0.750			
0.7648	48945.21	3.4370	3.4370	-0.9040	26.11	0.36	-0.750			
0.7675	49119.55	3.4340	3.4339	-0.9244	26.11	0.36	-0.750			
0.7703	49299.11	3.4310	3.4310	-0.9535	26.12	0.37	-0.750			
0.7732	49486.57	3.4280	3.4279	-0.9726	26.13	0.38	-0.750			
0.7762	49675.92	3.4250	3.4250	-0.9930	26.14	0.39	-0.750			
0.7792	49870.25	3.4220	3.4222	-1.0081	26.15	0.40	-0.750			
0.7823	50066.45	3.4190	3.4189	-1.0217	26.16	0.41	-0.750			
0.7854	50265.72	3.4160	3.4159	-1.0224	26.17	0.42	-0.750			
0.7885	50462.25	3.4130	3.4131	-1.0182	26.18	0.43	-0.750			
0.7916	50661.40	3.4100	3.4101	-1.0101	26.19	0.44	-0.750			
0.7946	50854.88	3.4070	3.4069	-0.9931	26.20	0.45	-0.750			
0.7976	51044.38	3.4040	3.4040	-0.9663	26.21	0.46	-0.750			
0.8004	51228.57	3.4010	3.4010	-0.9316	26.22	0.47	-0.750			
0.8032	51406.74	3.3980	3.3981	-0.9004	26.23	0.48	-0.750			
0.8059	51575.13	3.3950	3.3950	-0.8661	26.23	0.48	-0.750			
0.8084	51736.53	3.3920	3.3919	-0.8334	26.24	0.49	-0.750			
0.8108	51893.51	3.3890	3.3889	-0.8012	26.24	0.49	-0.750			
0.8132	52042.63	3.3860	3.3860	-0.7695	26.25	0.50	-0.750			
0.8155	52190.58	3.3830	3.3831	-0.7440	26.25	0.50	-0.750			
0.8177	52330.49	3.3800	3.3799	-0.7158	26.25	0.50	-0.750			
0.8198	52464.00	3.3770	3.3770	-0.6869	26.26	0.51	-0.750			
0.8217	52591.70	3.3740	3.3740	-0.6617	26.27	0.52	-0.750			
0.8237	52714.78	3.3710	3.3710	-0.6357	26.27	0.52	-0.750			
0.8256	52837.19	3.3680	3.3680	-0.6130	26.28	0.53	-0.750			
0.8274	52952.18	3.3650	3.3650	-0.5866	26.29	0.54	-0.750			
0.8291	53063.75	3.3620	3.3620	-0.5633	26.29	0.54	-0.750			
0.8308	53168.36	3.3590	3.3590	-0.5388	26.30	0.55	-0.750			
0.8323	53267.87	3.3560	3.3560	-0.5177	26.30	0.55	-0.750			
0.8338	53364.72	3.3530	3.3531	-0.5015	26.31	0.56	-0.750			
0.8353	53459.39	3.3500	3.3499	-0.4854	26.32	0.57	-0.750			
0.8367	53551.23	3.3470	3.3471	-0.4697	26.32	0.57	-0.750			
0.8381	53640.62	3.3440	3.3440	-0.4541	26.33	0.58	-0.750			
0.8395	53726.06	3.3410	3.3410	-0.4386	26.33	0.58	-0.750			
0.8408	53808.74	3.3380	3.3380	-0.4207	26.34	0.59	-0.750			
0.8420	53887.87	3.3350	3.3350	-0.4049	26.34	0.59	-0.750			
0.8432	53963.57	3.3320	3.3320	-0.3889	26.35	0.60	-0.750			
0.8443	54036.82	3.3290	3.3291	-0.3760	26.35	0.60	-0.750			
0.8454	54106.97	3.3260	3.3260	-0.3640	26.36	0.61	-0.750			
0.8465	54175.73	3.3230	3.3228	-0.3522	26.36	0.61	-0.750			
0.8475	54241.98	3.3200	3.3200	-0.3404	26.37	0.62	-0.750			
0.8485	54306.82	3.3170	3.3171	-0.3315	26.37	0.62	-0.750			
0.8495	54369.26	3.3140	3.3140	-0.3214	26.37	0.62	-0.750			
0.8505	54430.08	3.3110	3.3109	-0.3117	26.38	0.63	-0.750			
0.8514	54488.26	3.3080	3.3080	-0.3005	26.38	0.63	-0.750			
0.8523	54544.91	3.3050	3.3051	-0.2916	26.38	0.63	-0.750			
0.8531	54600.27	3.3020	3.3019	-0.2844	26.39	0.64	-0.750			
0.8540	54653.85	3.2990	3.2990	-0.2762	26.39	0.64	-0.750			
0.8548	54705.42	3.2960	3.2960	-0.2680	26.40	0.65	-0.750			
0.8556	54756.24	3.2930	3.2930	-0.2609	26.40	0.65	-0.750			
0.8563	54805.97	3.2900	3.2900	-0.2547	26.41	0.66	-0.750			
0.8571	54854.45	3.2870	3.2870	-0.2490	26.41	0.66	-0.750			
0.8578	54901.03	3.2840	3.2841	-0.2435	26.42	0.67	-0.750			
0.8586	54947.37	3.2810	3.2810	-0.2377	26.43	0.68	-0.750			
0.8593	54992.60	3.2780	3.2779	-0.2321	26.43	0.68	-0.750			
0.8599	55036.40	3.2750	3.2751	-0.2274	26.44	0.69	-0.750			
0.8606	55079.49	3.2720	3.2721	-0.2225	26.44	0.69	-0.750			
0.8613	55121.92	3.2690	3.2689	-0.2185	26.45	0.70	-0.750			
0.8619	55163.06	3.2660	3.2659	-0.2132	26.45	0.70	-0.750			
0.8626	55203.42	3.2630	3.2630	-0.2087	26.45	0.70	-0.750			
0.8632	55243.18	3.2600	3.2601	-0.2054	26.46	0.71	-0.750			
0.8638	55282.47	3.2570	3.2570	-0.2032	26.46	0.71	-0.750			
0.8644	55321.16	3.2540	3.2540	-0.1998	26.47	0.72	-0.750			
0.8650	55359.09	3.2510	3.2509	-0.1957	26.47	0.72	-0.750			
0.8656	55396.41	3.2480	3.2480	-0.1926	26.48	0.73	-0.750			
0.8661	55433.23	3.2450	3.2450	-0.1896	26.48	0.73	-0.750			
0.8667	55469.34	3.2420	3.2420	-0.1870	26.49	0.74	-0.750			
0.8673	55504.65	3.2390	3.2390	-0.1842	26.49	0.74	-0.750			
0.8678	55539.78	3.2360	3.2359	-0.1818	26.49	0.74	-0.750			
0.8683	55574.13	3.2330	3.2331	-0.1789	26.50	0.75	-0.750			
0.8689	55608.30	3.2300	3.2300	-0.1774	26.50	0.75	-0.750			
0.8694	55642.46	3.2270	3.2270	-0.1752	26.51	0.76	-0.750			
0.8699	55675.96	3.2240	3.2240	-0.1729	26.51	0.76	-0.750			
0.8705	55708.93	3.2210	3.2210	-0.1698	26.52	0.77	-0.750			
0.8710	55741.10	3.2180	3.2181	-0.1675	26.52	0.77	-0.750			
0.8714	55772.70	3.2150	3.2151	-0.1656	26.53	0.78	-0.750			
0.8719	55804.35	3.2120	3.2119	-0.1641	26.53	0.78	-0.750			
0.8724	55835.68	3.2090	3.2089	-0.1622	26.54	0.79	-0.750			
0.8729	55866.47	3.2060	3.2060	-0.1599	26.54	0.79	-0.750			
0.8734	55897.20	3.2030	3.2031	-0.1590	26.54	0.79	-0.750			
0.8739	55927.56	3.2000	3.2000	-0.1573	26.55	0.80	-0.750			
0.8743	55957.73	3.1970	3.1971	-0.1559	26.55	0.80	-0.750			
0.8748	55987.31	3.1940	3.1939	-0.1540	26.56	0.81	-0.750			
0.8753	56016.65	3.1910	3.1910	-0.1521	26.56	0.81	-0.750			
0.8757	56045.73	3.1880	3.1880	-0.1508	26.57	0.82	-0.750			
0.8762	56074.69	3.1850	3.1850	-0.1497	26.57	0.82	-0.750			
0.8766	56103.37	3.1820	3.1820	-0.1482	26.57	0.82	-0.750			
0.8771	56131.45	3.1790	3.1789	-0.1465	26.58	0.83	-0.750			
0.8775	56159.47	3.1760	3.1761	-0.1453	26.58	0.83	-0.750			
0.8779	56187.27	3.1730	3.1730	-0.1439	26.58	0.83	-0.750			
0.8784	56214.75	3.1700	3.1699	-0.1427	26.58	0.83	-0.750			
0.8788	56242.20	3.1670	3.1671	-0.1413	26.58	0.83	-0.750			
0.8792	56269.18	3.1640	3.1640	-0.1397	26.59	0.84	-0.750			
0.8796	56295.90	3.1610	3.1610	-0.1378	26.59	0.84	-0.750			
0.8800	56322.00	3.1580	3.1580	-0.1370	26.60	0.85	-0.750			
0.8804	56348.04	3.1550	3.1551	-0.1354	26.61	0.86	-0.750			
0.8808	56373.96	3.1520	3.1520	-0.1346	26.61	0.86	-0.750			
0.8812	56399.70	3.1490	3.1489	-0.1336	26.62	0.87	-0.750			
0.8816	56425.21	3.1460	3.1461	-0.1326	26.63	0.88	-0.750			
0.8820	56450.80	3.1430	3.1430	-0.1321	26.63	0.88	-0.750			
0.8824	56476.00	3.1400	3.1401	-0.1313	26.64	0.89	-0.750			
0.8828	56501.26	3.1370	3.1370	-0.1302	26.64	0.89	-0.750			
0.8832	56525.88	3.1340	3.1340	-0.1286	26.65	0.90	-0.750			
0.8836	56550.44	3.1310	3.1311	-0.1280	26.65	0.90	-0.750			
0.8840	56575.08	3.1280	3.1281	-0.1274	26.66	0.91	-0.750			
0.8844	56599.60	3.1250	3.1249	-0.1260	26.67	0.92	-0.750			
0.8847	56623.58	3.1220	3.1219	-0.1249	26.67	0.92	-0.750			
0.8851	56647.46	3.1190	3.1191	-0.1238	26.68	0.93	-0.750			
0.8855	56670.95	3.1160	3.1160	-0.1230	26.68	0.93	-0.750			
0.8859	56694.49	3.1130	3.1129	-0.1222	26.69	0.94	-0.750			
0.8862	56717.86	3.1100	3.1101	-0.1217	26.69	0.94	-0.750			
0.8866	56740.88	3.1070	3.1070	-0.1207	26.70	0.95	-0.750			
0.8869	56764.26	3.1040	3.1040	-0.1198	26.70	0.95	-0.750			
0.8873	56787.55	3.1010	3.1010	-0.1195	26.71	0.96	-0.750			
0.8877	56810.29	3.0980	3.0980	-0.1186	26.71	0.96	-0.750			
0.8880	56832.97	3.0950	3.0950	-0.1176	26.72	0.97	-0.750			
0.8884	56855.39	3.0920	3.0920	-0.1171	26.72	0.97	-0.750			
0.8887	56877.66	3.0890	3.0889	-0.1162	26.73	0.98	-0.750			
0.8891	56899.98	3.0860	3.0861	-0.1154	26.73	0.98	-0.750			
0.8894	56921.98	3.0830	3.0830	-0.1146	26.74	0.99	-0.750			
0.8897	56943.99	3.0800	3.0800	-0.1138	26.74	0.99	-0.750			
0.8901	56965.98	3.0770	3.0770	-0.1132	26.75	1.00	-0.750			
0.8904	56987.62	3.0740	3.0740	-0.1120	26.75	1.00	-0.750			
0.8908	57009.05	3.0710	3.0710	-0.1109	26.76	1.01	-0.750			
0.8911	57030.07	3.0680	3.0680	-0.1104	26.76	1.01	-0.750			
0.8914	57051.00	3.0650	3.0651	-0.1095	26.76	1.01	-0.750			
0.8918	57072.00	3.0620	3.0619	-0.1091	26.77	1.02	-0.750			
0.8921	57092.81	3.0590	3.0590	-0.1085	26.77	1.02	-0.750			
0.8924	57113.62	3.0560	3.0560	-0.1081	26.78	1.03	-0.750			
0.8927	57134.31	3.0530	3.0530	-0.1077	26.78	1.03	-0.750			
0.8930	57155.07	3.0500	3.0501	-0.1069	26.79	1.04	-0.750			
0.8934	57175.78	3.0470	3.0470	-0.1065	26.79	1.04	-0.750			
0.8937	57196.13	3.0440	3.0440	-0.1056	26.80	1.05	-0.750			
0.8940	57216.28	3.0410	3.0410	-0.1047	26.80	1.05	-0.750			
0.8943	57236.17	3.0380	3.0379	-0.1044	26.81	1.06	-0.750			
0.8946	57256.10	3.0350	3.0351	-0.1038	26.81	1.06	-0.750			
0.8949	57275.98	3.0320	3.0320	-0.1035	26.82	1.07	-0.750			
0.8952	57295.61	3.0290	3.0289	-0.1029	26.82	1.07	-0.750			
0.8956	57315.45	3.0260	3.0260	-0.1025	26.83	1.08	-0.750			
0.8959	57335.20	3.0230	3.0230	-0.1023	26.83	1.08	-0.750			
0.8962	57354.89	3.0200	3.0200	-0.1014	26.84	1.09	-0.750			
0.8965	57374.53	3.0170	3.0170	-0.1009	26.84	1.09	-0.750			
0.8968	57393.79	3.0140	3.0141	-0.0998	26.85	1.10	-0.750			
0.8971	57412.85	3.0110	3.0110	-0.0988	26.85	1.10	-0.750			
0.8974	57431.72	3.0080	3.0080	-0.0977	26.86	1.11	-0.750			
0.8977	57450.40	3.0050	3.0050	-0.0965	26.86	1.11	-0.751			
0.8980	57468.81	3.0020	3.0020	-0.0953	26.87	1.12	-0.751			
