Ah_balance (normalized)	Ah_balance (mAh)	Voltage - fit (V)	Voltage -  interpolate (V)	dQ/dV (1/V)	Temperature (°C)	Temperature - diff (°C)	Current (C)	R_DC 0ms (mOhm)	R_DC 50ms (mOhm)	R_DC 50 ms PEC (mOhm)
0.0002	14.06	4.1670	4.1666	-0.1103	25.63	0.03	-0.750			
0.0006	40.73	4.1640	4.1640	-0.1655	25.63	0.03	-0.750			
0.0012	78.68	4.1610	4.1609	-0.2179	25.62	0.02	-0.750			
0.0020	125.52	4.1580	4.1580	-0.2656	25.62	0.02	-0.750			
0.0028	181.20	4.1550	4.1551	-0.3127	25.62	0.02	-0.750			
0.0039	246.67	4.1520	4.1521	-0.3574	25.62	0.02	-0.750			
0.0050	320.55	4.1490	4.1489	-0.3988	25.61	0.01	-0.750			
0.0063	400.59	4.1460	4.1461	-0.4396	25.61	0.01	-0.750			
0.0076	489.03	4.1430	4.1430	-0.4789	25.60	0.00	-0.750			
0.0092	586.09	4.1400	4.1400	-0.5158	25.60	-0.00	-0.750			
0.0108	688.58	4.1370	4.1370	-0.5499	25.59	-0.01	-0.750			
0.0125	797.81	4.1340	4.1341	-0.5827	25.59	-0.01	-0.750			
0.0143	913.67	4.1310	4.1310	-0.6129	25.58	-0.02	-0.750			
0.0162	1035.90	4.1280	4.1279	-0.6347	25.58	-0.02	-0.750			
0.0181	1160.54	4.1250	4.1250	-0.6496	25.57	-0.03	-0.750			
0.0201	1288.25	4.1220	4.1220	-0.6646	25.56	-0.04	-0.750			
0.0221	1417.38	4.1190	4.1190	-0.6753	25.56	-0.04	-0.750			
0.0242	1547.10	4.1160	4.1160	-0.6886	25.56	-0.04	-0.750			
0.0262	1679.60	4.1130	4.1129	-0.7034	25.56	-0.04	-0.750			
0.0284	1816.73	4.1100	4.1100	-0.7117	25.56	-0.04	-0.750			
0.0306	1955.86	4.1070	4.1071	-0.7213	25.56	-0.04	-0.750			
0.0328	2096.48	4.1040	4.1040	-0.7307	25.56	-0.04	-0.750			
0.0350	2237.39	4.1010	4.1010	-0.7330	25.56	-0.04	-0.750			
0.0371	2377.46	4.0980	4.0980	-0.7369	25.55	-0.05	-0.750			
0.0393	2518.31	4.0950	4.0950	-0.7403	25.55	-0.05	-0.750			
0.0416	2660.46	4.0920	4.0921	-0.7480	25.55	-0.05	-0.750			
0.0438	2806.13	4.0890	4.0890	-0.7555	25.54	-0.06	-0.750			
0.0461	2951.46	4.0860	4.0860	-0.7631	25.54	-0.06	-0.750			
0.0484	3098.86	4.0830	4.0830	-0.7669	25.54	-0.06	-0.750			
0.0507	3246.99	4.0800	4.0800	-0.7745	25.54	-0.06	-0.750			
0.0531	3396.91	4.0770	4.0770	-0.7730	25.53	-0.07	-0.750			
0.0554	3545.99	4.0740	4.0740	-0.7729	25.53	-0.07	-0.750			
0.0577	3694.90	4.0710	4.0710	-0.7727	25.53	-0.07	-0.750			
0.0601	3843.53	4.0680	4.0680	-0.7715	25.53	-0.07	-0.750			
0.0623	3989.44	4.0650	4.0650	-0.7732	25.53	-0.07	-0.750			
0.0647	4138.24	4.0620	4.0621	-0.7775	25.53	-0.07	-0.750			
0.0670	4286.81	4.0590	4.0589	-0.7818	25.53	-0.07	-0.750			
0.0694	4439.03	4.0560	4.0560	-0.7868	25.53	-0.07	-0.750			
0.0717	4590.62	4.0530	4.0531	-0.7895	25.53	-0.07	-0.750			
0.0741	4742.75	4.0500	4.0501	-0.7907	25.53	-0.07	-0.750			
0.0765	4895.67	4.0470	4.0470	-0.7971	25.53	-0.07	-0.750			
0.0789	5049.20	4.0440	4.0440	-0.7954	25.53	-0.07	-0.750			
0.0813	5201.77	4.0410	4.0410	-0.7968	25.53	-0.07	-0.750			
0.0837	5354.73	4.0380	4.0382	-0.7963	25.53	-0.07	-0.750			
0.0861	5508.87	4.0350	4.0350	-0.7989	25.53	-0.07	-0.750			
0.0885	5661.11	4.0320	4.0319	-0.8018	25.53	-0.07	-0.750			
0.0909	5814.46	4.0290	4.0290	-0.8034	25.53	-0.07	-0.750			
0.0933	5969.96	4.0260	4.0260	-0.8040	25.53	-0.07	-0.750			
0.0957	6124.64	4.0230	4.0231	-0.8057	25.53	-0.07	-0.750			
0.0981	6279.25	4.0200	4.0200	-0.8047	25.53	-0.07	-0.750			
0.1005	6433.23	4.0170	4.0169	-0.8091	25.53	-0.07	-0.750			
0.1029	6588.04	4.0140	4.0140	-0.8104	25.54	-0.06	-0.750			
0.1054	6742.57	4.0110	4.0109	-0.8110	25.54	-0.06	-0.750			
0.1078	6901.22	4.0080	4.0080	-0.8115	25.54	-0.06	-0.750			
0.1103	7057.36	4.0050	4.0050	-0.8146	25.54	-0.06	-0.750			
0.1127	7212.17	4.0020	4.0020	-0.8192	25.54	-0.06	-0.750			
0.1152	7369.94	3.9990	3.9990	-0.8233	25.54	-0.06	-0.750			
0.1176	7527.26	3.9960	3.9959	-0.8198	25.54	-0.06	-0.750			
0.1201	7687.83	3.9930	3.9929	-0.8192	25.54	-0.06	-0.750			
0.1226	7845.03	3.9900	3.9901	-0.8184	25.54	-0.06	-0.750			
0.1250	8000.74	3.9870	3.9870	-0.8275	25.54	-0.06	-0.750			
0.1275	8158.79	3.9840	3.9839	-0.8224	25.54	-0.06	-0.750			
0.1299	8315.51	3.9810	3.9809	-0.8231	25.55	-0.05	-0.750			
0.1324	8475.41	3.9780	3.9781	-0.8329	25.55	-0.05	-0.750			
0.1350	8638.17	3.9750	3.9750	-0.8399	25.55	-0.05	-0.750			
0.1375	8799.18	3.9720	3.9719	-0.8442	25.55	-0.05	-0.750			
0.1400	8960.91	3.9690	3.9690	-0.8394	25.56	-0.04	-0.750			
0.1425	9121.34	3.9660	3.9660	-0.8396	25.56	-0.04	-0.750			
0.1451	9284.63	3.9630	3.9630	-0.8471	25.56	-0.04	-0.750			
0.1476	9446.79	3.9600	3.9600	-0.8465	25.56	-0.04	-0.750			
0.1501	9608.50	3.9570	3.9569	-0.8487	25.56	-0.04	-0.750			
0.1527	9772.87	3.9540	3.9540	-0.8478	25.57	-0.03	-0.750			
0.1552	9935.06	3.9510	3.9510	-0.8480	25.57	-0.03	-0.750			
0.1578	10099.59	3.9480	3.9480	-0.8503	25.57	-0.03	-0.750			
0.1603	10261.65	3.9450	3.9449	-0.8516	25.57	-0.03	-0.750			
0.1629	10424.87	3.9420	3.9420	-0.8565	25.57	-0.03	-0.750			
0.1655	10589.45	3.9390	3.9390	-0.8603	25.58	-0.02	-0.750			
0.1681	10755.99	3.9360	3.9359	-0.8644	25.58	-0.02	-0.750			
0.1707	10924.06	3.9330	3.9330	-0.8683	25.58	-0.02	-0.750			
0.1733	11089.91	3.9300	3.9299	-0.8716	25.58	-0.02	-0.750			
0.1759	11257.69	3.9270	3.9271	-0.8739	25.59	-0.01	-0.750			
0.1785	11424.48	3.9240	3.9239	-0.8705	25.59	-0.01	-0.750			
0.1811	11591.54	3.9210	3.9210	-0.8738	25.60	-0.00	-0.750			
0.1838	11760.53	3.9180	3.9182	-0.8771	25.60	0.00	-0.750			
0.1864	11928.55	3.9150	3.9149	-0.8804	25.60	0.00	-0.750			
0.1891	12099.58	3.9120	3.9120	-0.8813	25.60	0.00	-0.750			
0.1917	12268.21	3.9090	3.9090	-0.8826	25.61	0.01	-0.750			
0.1944	12439.54	3.9060	3.9060	-0.8845	25.61	0.01	-0.750			
0.1970	12609.71	3.9030	3.9031	-0.8842	25.61	0.01	-0.750			
0.1997	12777.61	3.9000	3.8999	-0.8866	25.61	0.01	-0.750			
0.2023	12948.48	3.8970	3.8970	-0.8871	25.61	0.01	-0.750			
0.2050	13118.44	3.8940	3.8938	-0.8870	25.62	0.02	-0.750			
0.2077	13289.89	3.8910	3.8910	-0.8881	25.62	0.02	-0.750			
0.2103	13459.23	3.8880	3.8879	-0.8893	25.62	0.02	-0.750			
0.2130	13630.49	3.8850	3.8850	-0.8928	25.63	0.03	-0.750			
0.2156	13801.18	3.8820	3.8820	-0.8907	25.63	0.03	-0.750			
0.2183	13971.58	3.8790	3.8790	-0.8930	25.64	0.04	-0.750			
0.2210	14146.22	3.8760	3.8761	-0.8997	25.64	0.04	-0.750			
0.2237	14319.40	3.8730	3.8730	-0.9004	25.64	0.04	-0.750			
0.2265	14493.65	3.8700	3.8700	-0.9011	25.65	0.05	-0.750			
0.2291	14665.16	3.8670	3.8670	-0.9023	25.65	0.05	-0.750			
0.2318	14837.15	3.8640	3.8641	-0.9037	25.66	0.06	-0.750			
0.2346	15012.10	3.8610	3.8610	-0.9073	25.66	0.06	-0.750			
0.2373	15186.21	3.8580	3.8580	-0.9131	25.66	0.06	-0.750			
0.2400	15363.09	3.8550	3.8550	-0.9152	25.67	0.07	-0.750			
0.2428	15539.91	3.8520	3.8520	-0.9128	25.67	0.07	-0.750			
0.2456	15716.76	3.8490	3.8491	-0.9115	25.67	0.07	-0.750			
0.2483	15891.95	3.8460	3.8459	-0.9026	25.67	0.07	-0.750			
0.2510	16065.92	3.8430	3.8429	-0.8909	25.67	0.07	-0.750			
0.2537	16234.47	3.8400	3.8400	-0.8830	25.68	0.08	-0.750			
0.2563	16400.19	3.8370	3.8372	-0.8750	25.68	0.08	-0.750			
0.2589	16566.63	3.8340	3.8341	-0.8840	25.68	0.08	-0.750			
0.2615	16734.13	3.8310	3.8310	-0.8980	25.68	0.08	-0.750			
0.2642	16908.17	3.8280	3.8279	-0.9019	25.68	0.08	-0.750			
0.2669	17083.99	3.8250	3.8250	-0.9133	25.69	0.09	-0.750			
0.2698	17264.72	3.8220	3.8220	-0.9261	25.69	0.09	-0.750			
0.2725	17442.25	3.8190	3.8191	-0.9269	25.69	0.09	-0.750			
0.2753	17621.49	3.8160	3.8159	-0.9285	25.69	0.09	-0.750			
0.2781	17799.07	3.8130	3.8130	-0.9222	25.70	0.10	-0.750			
0.2809	17975.86	3.8100	3.8100	-0.9182	25.70	0.10	-0.750			
0.2837	18154.05	3.8070	3.8074	-0.9207	25.70	0.10	-0.750			
0.2864	18328.15	3.8040	3.8039	-0.9254	25.70	0.10	-0.750			
0.2891	18505.51	3.8010	3.8010	-0.9260	25.70	0.10	-0.750			
0.2919	18682.40	3.7980	3.7979	-0.9253	25.70	0.10	-0.750			
0.2948	18865.01	3.7950	3.7949	-0.9355	25.70	0.10	-0.750			
0.2976	19043.87	3.7920	3.7921	-0.9311	25.70	0.10	-0.750			
0.3004	19223.28	3.7890	3.7889	-0.9329	25.71	0.11	-0.750			
0.3031	19401.02	3.7860	3.7860	-0.9292	25.71	0.11	-0.750			
0.3059	19576.49	3.7830	3.7829	-0.9203	25.72	0.12	-0.750			
0.3087	19755.76	3.7800	3.7802	-0.9271	25.72	0.12	-0.750			
0.3115	19933.19	3.7770	3.7770	-0.9342	25.72	0.12	-0.750			
0.3143	20112.98	3.7740	3.7740	-0.9336	25.72	0.12	-0.750			
0.3171	20292.25	3.7710	3.7709	-0.9325	25.72	0.12	-0.750			
0.3199	20473.86	3.7680	3.7679	-0.9358	25.72	0.12	-0.750			
0.3227	20652.56	3.7650	3.7651	-0.9321	25.72	0.12	-0.750			
0.3255	20831.54	3.7620	3.7619	-0.9376	25.72	0.12	-0.750			
0.3283	21010.72	3.7590	3.7590	-0.9369	25.73	0.13	-0.750			
0.3311	21188.47	3.7560	3.7559	-0.9373	25.73	0.13	-0.750			
0.3339	21370.94	3.7530	3.7532	-0.9438	25.73	0.13	-0.750			
0.3368	21554.02	3.7500	3.7500	-0.9490	25.73	0.13	-0.750			
0.3396	21737.07	3.7470	3.7469	-0.9478	25.74	0.14	-0.750			
0.3425	21918.84	3.7440	3.7439	-0.9434	25.74	0.14	-0.750			
0.3453	22100.46	3.7410	3.7411	-0.9443	25.75	0.15	-0.750			
0.3481	22279.02	3.7380	3.7380	-0.9505	25.75	0.15	-0.750			
0.3509	22460.41	3.7350	3.7350	-0.9543	25.75	0.15	-0.750			
0.3538	22644.80	3.7320	3.7319	-0.9631	25.75	0.15	-0.750			
0.3567	22829.53	3.7290	3.7289	-0.9702	25.75	0.15	-0.750			
0.3597	23019.48	3.7260	3.7261	-0.9844	25.75	0.15	-0.750			
0.3627	23210.32	3.7230	3.7230	-0.9988	25.76	0.16	-0.750			
0.3657	23403.19	3.7200	3.7199	-1.0047	25.76	0.16	-0.750			
0.3687	23594.61	3.7170	3.7169	-1.0066	25.77	0.17	-0.750			
0.3717	23789.58	3.7140	3.7143	-1.0290	25.77	0.17	-0.750			
0.3748	23988.71	3.7110	3.7109	-1.0401	25.77	0.17	-0.750			
0.3780	24189.25	3.7080	3.7080	-1.0470	25.77	0.17	-0.750			
0.3811	24389.71	3.7050	3.7050	-1.0582	25.77	0.17	-0.750			
0.3843	24594.75	3.7020	3.7023	-1.0858	25.77	0.17	-0.750			
0.3876	24805.51	3.6990	3.6988	-1.0957	25.77	0.17	-0.750			
0.3909	25017.31	3.6960	3.6959	-1.1055	25.76	0.16	-0.750			
0.3942	25228.97	3.6930	3.6929	-1.1241	25.76	0.16	-0.750			
0.3976	25447.88	3.6900	3.6900	-1.1530	25.76	0.16	-0.750			
0.4011	25671.04	3.6870	3.6869	-1.1760	25.76	0.16	-0.750			
0.4046	25895.06	3.6840	3.6840	-1.2071	25.76	0.16	-0.750			
0.4083	26128.67	3.6810	3.6811	-1.2420	25.76	0.16	-0.750			
0.4121	26376.03	3.6780	3.6779	-1.2841	25.75	0.15	-0.750			
0.4161	26630.91	3.6750	3.6750	-1.3038	25.75	0.15	-0.750			
0.4200	26881.05	3.6720	3.6721	-1.3296	25.74	0.14	-0.750			
0.4240	27138.47	3.6690	3.6690	-1.3467	25.74	0.14	-0.750			
0.4281	27400.15	3.6660	3.6659	-1.3690	25.73	0.13	-0.750			
0.4322	27661.12	3.6630	3.6630	-1.3994	25.72	0.12	-0.750			
0.4364	27930.89	3.6600	3.6600	-1.4226	25.72	0.12	-0.750			
0.4408	28209.82	3.6570	3.6569	-1.4758	25.71	0.11	-0.750			
0.4453	28499.31	3.6540	3.6540	-1.5143	25.70	0.10	-0.750			
0.4499	28791.27	3.6510	3.6509	-1.5453	25.70	0.10	-0.750			
0.4547	29098.73	3.6480	3.6482	-1.6004	25.69	0.09	-0.750			
0.4595	29407.69	3.6450	3.6451	-1.6391	25.69	0.09	-0.750			
0.4645	29726.53	3.6420	3.6422	-1.6540	25.68	0.08	-0.750			
0.4695	30050.96	3.6390	3.6390	-1.6916	25.66	0.06	-0.750			
0.4746	30373.34	3.6360	3.6359	-1.7430	25.65	0.05	-0.750			
0.4799	30712.51	3.6330	3.6337	-1.7898	25.65	0.05	-0.750	0.420	0.497	
0.4853	31058.09	3.6300	3.6300	-1.8378	25.64	0.04	-0.750			
0.4909	31416.90	3.6270	3.6271	-1.8670	25.63	0.03	-0.750			
0.4967	31787.46	3.6240	3.6242	-1.9103	25.62	0.02	-0.750			
0.5025	32157.81	3.6210	3.6211	-1.9455	25.61	0.01	-0.750			
0.5084	32537.18	3.6180	3.6176	-1.9785	25.60	0.00	-0.750			
0.5143	32915.05	3.6150	3.6153	-1.9973	25.60	0.00	-0.750			
0.5204	33304.27	3.6120	3.6120	-2.0255	25.60	0.00	-0.750			
0.5265	33695.38	3.6090	3.6090	-2.0580	25.59	-0.01	-0.750			
0.5327	34091.07	3.6060	3.6060	-2.0974	25.58	-0.02	-0.750			
0.5391	34500.78	3.6030	3.6031	-2.1362	25.57	-0.03	-0.750			
0.5455	34910.63	3.6000	3.5999	-2.1641	25.56	-0.04	-0.750			
0.5520	35329.95	3.5970	3.5971	-2.2111	25.56	-0.04	-0.750			
0.5587	35758.99	3.5940	3.5941	-2.2514	25.55	-0.05	-0.750			
0.5656	36196.44	3.5910	3.5910	-2.2882	25.54	-0.06	-0.750			
0.5725	36641.96	3.5880	3.5881	-2.3085	25.54	-0.06	-0.750			
0.5795	37085.83	3.5850	3.5850	-2.3387	25.53	-0.07	-0.750			
0.5866	37540.75	3.5820	3.5820	-2.3704	25.52	-0.08	-0.750			
0.5937	37996.64	3.5790	3.5789	-2.3800	25.52	-0.08	-0.750			
0.6009	38454.99	3.5760	3.5760	-2.3977	25.52	-0.08	-0.750			
0.6080	38915.13	3.5730	3.5731	-2.4367	25.52	-0.08	-0.750			
0.6155	39389.31	3.5700	3.5699	-2.4598	25.52	-0.08	-0.750			
0.6229	39866.57	3.5670	3.5669	-2.4659	25.52	-0.08	-0.750			
0.6303	40337.79	3.5640	3.5639	-2.4817	25.52	-0.08	-0.750			
0.6378	40819.62	3.5610	3.5610	-2.5018	25.52	-0.08	-0.750			
0.6454	41305.00	3.5580	3.5579	-2.4686	25.52	-0.08	-0.750			
0.6527	41775.98	3.5550	3.5551	-2.4532	25.52	-0.08	-0.750			
0.6601	42248.43	3.5520	3.5521	-2.4325	25.52	-0.08	-0.750			
0.6674	42713.45	3.5490	3.5489	-2.3955	25.53	-0.07	-0.750			
0.6744	43163.09	3.5460	3.5463	-2.3515	25.54	-0.06	-0.750			
0.6815	43615.05	3.5430	3.5428	-2.3177	25.54	-0.06	-0.750			
0.6884	44057.23	3.5400	3.5401	-2.2925	25.55	-0.05	-0.750			
0.6952	44492.51	3.5370	3.5371	-2.2600	25.56	-0.04	-0.750			
0.7020	44925.22	3.5340	3.5339	-2.2380	25.57	-0.03	-0.750			
0.7086	45352.30	3.5310	3.5310	-2.1770	25.58	-0.02	-0.750			
0.7152	45772.65	3.5280	3.5281	-2.1221	25.58	-0.02	-0.750			
0.7215	46176.10	3.5250	3.5251	-2.0774	25.58	-0.02	-0.750			
0.7277	46570.26	3.5220	3.5216	-1.9991	25.60	0.00	-0.750			
0.7335	46941.89	3.5190	3.5189	-1.9288	25.62	0.02	-0.750			
0.7392	47306.23	3.5160	3.5160	-1.8630	25.63	0.03	-0.750			
0.7447	47660.40	3.5130	3.5129	-1.7947	25.64	0.04	-0.750			
0.7500	48000.25	3.5100	3.5099	-1.7162	25.66	0.06	-0.750			
0.7551	48325.08	3.5070	3.5068	-1.6692	25.68	0.08	-0.750			
0.7599	48636.21	3.5040	3.5040	-1.5853	25.69	0.09	-0.750			
0.7646	48937.43	3.5010	3.5011	-1.5301	25.71	0.11	-0.750			
0.7690	49218.73	3.4980	3.4982	-1.4754	25.72	0.12	-0.750			
0.7734	49496.13	3.4950	3.4949	-1.4271	25.74	0.14	-0.750			
0.7777	49769.90	3.4920	3.4918	-1.3894	25.76	0.16	-0.750			
0.7817	50030.75	3.4890	3.4889	-1.3480	25.77	0.17	-0.750			
0.7857	50283.59	3.4860	3.4861	-1.3027	25.79	0.19	-0.750			
0.7896	50533.52	3.4830	3.4829	-1.2624	25.81	0.21	-0.750			
0.7933	50769.34	3.4800	3.4800	-1.2116	25.83	0.23	-0.750			
0.7968	50992.68	3.4770	3.4771	-1.1641	25.84	0.24	-0.750			
0.8003	51216.73	3.4740	3.4739	-1.1261	25.85	0.25	-0.750			
0.8036	51429.75	3.4710	3.4710	-1.0849	25.86	0.26	-0.750			
0.8067	51631.62	3.4680	3.4681	-1.0464	25.87	0.27	-0.750			
0.8098	51828.02	3.4650	3.4650	-1.0127	25.88	0.28	-0.750			
0.8128	52018.06	3.4620	3.4619	-0.9922	25.90	0.30	-0.750			
0.8157	52201.65	3.4590	3.4589	-0.9729	25.91	0.31	-0.750			
0.8185	52384.42	3.4560	3.4561	-0.9689	25.92	0.32	-0.750			
0.8214	52568.00	3.4530	3.4533	-0.9929	25.93	0.33	-0.750			
0.8243	52755.10	3.4500	3.4500	-1.0166	25.94	0.34	-0.750			
0.8274	52950.96	3.4470	3.4469	-1.0605	25.95	0.35	-0.750			
0.8305	53153.98	3.4440	3.4440	-1.1130	25.96	0.36	-0.750			
0.8340	53374.57	3.4410	3.4412	-1.1927	25.97	0.37	-0.750			
0.8377	53613.36	3.4380	3.4379	-1.2493	25.98	0.38	-0.750			
0.8417	53867.28	3.4350	3.4348	-1.2795	25.98	0.38	-0.750			
0.8457	54122.14	3.4320	3.4323	-1.2867	25.99	0.39	-0.750			
0.8497	54378.19	3.4290	3.4290	-1.2838	26.00	0.40	-0.750			
0.8535	54624.58	3.4260	3.4260	-1.2529	26.01	0.41	-0.750			
0.8572	54859.38	3.4230	3.4230	-1.2078	26.03	0.43	-0.750			
0.8607	55084.90	3.4200	3.4199	-1.1673	26.03	0.43	-0.750			
0.8642	55309.76	3.4170	3.4169	-1.1327	26.04	0.44	-0.750			
0.8676	55523.54	3.4140	3.4140	-1.0870	26.04	0.44	-0.750			
0.8707	55727.69	3.4110	3.4111	-1.0416	26.05	0.45	-0.750			
0.8738	55924.46	3.4080	3.4080	-1.0123	26.06	0.46	-0.750			
0.8768	56114.89	3.4050	3.4049	-0.9695	26.07	0.47	-0.750			
0.8796	56294.82	3.4020	3.4019	-0.9289	26.08	0.48	-0.750			
0.8823	56469.81	3.3990	3.3990	-0.8927	26.09	0.49	-0.750			
0.8850	56640.19	3.3960	3.3960	-0.8606	26.09	0.49	-0.750			
0.8875	56800.92	3.3930	3.3929	-0.8286	26.10	0.50	-0.750			
0.8899	56955.17	3.3900	3.3900	-0.7944	26.11	0.51	-0.750			
0.8922	57103.21	3.3870	3.3870	-0.7557	26.12	0.52	-0.750			
0.8945	57247.97	3.3840	3.3840	-0.7293	26.12	0.52	-0.750			
0.8966	57384.58	3.3810	3.3812	-0.6999	26.13	0.53	-0.750			
0.8987	57515.60	3.3780	3.3780	-0.6730	26.14	0.54	-0.750			
0.9007	57641.80	3.3750	3.3749	-0.6435	26.14	0.54	-0.750			
0.9025	57761.28	3.3720	3.3720	-0.6184	26.15	0.55	-0.750			
0.9043	57877.39	3.3690	3.3690	-0.5951	26.16	0.56	-0.750			
0.9061	57990.08	3.3660	3.3660	-0.5738	26.16	0.56	-0.750			
0.9078	58098.13	3.3630	3.3629	-0.5488	26.17	0.57	-0.750			
0.9094	58201.11	3.3600	3.3600	-0.5234	26.17	0.57	-0.750			
0.9109	58298.79	3.3570	3.3571	-0.5013	26.18	0.58	-0.750			
0.9124	58393.24	3.3540	3.3540	-0.4817	26.18	0.58	-0.750			
0.9138	58482.73	3.3510	3.3510	-0.4583	26.19	0.59	-0.750			
0.9151	58568.82	3.3480	3.3480	-0.4405	26.20	0.60	-0.750			
0.9164	58650.93	3.3450	3.3450	-0.4219	26.20	0.60	-0.750			
0.9177	58730.70	3.3420	3.3420	-0.4050	26.21	0.61	-0.750			
0.9189	58807.52	3.3390	3.3389	-0.3854	26.21	0.61	-0.750			
0.9200	58878.75	3.3360	3.3360	-0.3677	26.22	0.62	-0.750			
0.9211	58947.83	3.3330	3.3330	-0.3504	26.22	0.62	-0.750			
0.9221	59013.44	3.3300	3.3299	-0.3355	26.23	0.63	-0.750			
0.9231	59075.36	3.3270	3.3271	-0.3186	26.23	0.63	-0.750			
0.9240	59135.13	3.3240	3.3240	-0.3053	26.24	0.64	-0.750			
0.9249	59192.18	3.3210	3.3210	-0.2929	26.24	0.64	-0.750			
0.9257	59247.55	3.3180	3.3180	-0.2821	26.25	0.65	-0.750			
0.9266	59299.89	3.3150	3.3150	-0.2680	26.25	0.65	-0.750			
0.9274	59350.53	3.3120	3.3120	-0.2583	26.25	0.65	-0.750			
0.9281	59398.74	3.3090	3.3091	-0.2475	26.26	0.66	-0.750			
0.9288	59445.04	3.3060	3.3060	-0.2385	26.26	0.66	-0.750			
0.9295	59489.51	3.3030	3.3031	-0.2298	26.27	0.67	-0.750			
0.9302	59532.35	3.3000	3.3000	-0.2211	26.27	0.67	-0.750			
0.9309	59574.42	3.2970	3.2969	-0.2130	26.27	0.67	-0.750			
0.9315	59614.68	3.2940	3.2940	-0.2074	26.28	0.68	-0.750			
0.9321	59653.33	3.2910	3.2910	-0.1992	26.28	0.68	-0.750			
0.9327	59690.98	3.2880	3.2881	-0.1929	26.28	0.68	-0.750			
0.9332	59727.59	3.2850	3.2848	-0.1862	26.29	0.69	-0.750			
0.9338	59762.18	3.2820	3.2822	-0.1805	26.29	0.69	-0.750			
0.9343	59796.32	3.2790	3.2790	-0.1746	26.30	0.70	-0.750			
0.9348	59829.33	3.2760	3.2760	-0.1693	26.30	0.70	-0.750			
0.9353	59861.57	3.2730	3.2729	-0.1647	26.30	0.70	-0.750			
0.9358	59892.03	3.2700	3.2702	-0.1593	26.31	0.71	-0.750			
0.9363	59922.19	3.2670	3.2669	-0.1558	26.31	0.71	-0.750			
0.9367	59951.74	3.2640	3.2640	-0.1520	26.32	0.72	-0.750			
0.9372	59980.49	3.2610	3.2609	-0.1486	26.32	0.72	-0.750			
0.9376	60008.29	3.2580	3.2580	-0.1448	26.32	0.72	-0.750			
0.9381	60036.27	3.2550	3.2549	-0.1419	26.33	0.73	-0.750			
0.9385	60063.16	3.2520	3.2521	-0.1381	26.33	0.73	-0.750			
0.9389	60089.30	3.2490	3.2490	-0.1349	26.33	0.73	-0.750			
0.9393	60114.69	3.2460	3.2461	-0.1320	26.34	0.74	-0.750			
0.9397	60139.55	3.2430	3.2430	-0.1287	26.34	0.74	-0.750			
0.9401	60163.94	3.2400	3.2399	-0.1266	26.34	0.74	-0.750			
0.9404	60187.83	3.2370	3.2370	-0.1243	26.35	0.75	-0.750			
0.9408	60211.37	3.2340	3.2340	-0.1222	26.35	0.75	-0.750			
0.9412	60235.19	3.2310	3.2310	-0.1203	26.35	0.75	-0.750			
0.9415	60258.00	3.2280	3.2280	-0.1174	26.35	0.75	-0.750			
0.9419	60280.14	3.2250	3.2252	-0.1152	26.36	0.76	-0.750			
0.9422	60302.02	3.2220	3.2221	-0.1128	26.36	0.76	-0.750			
0.9426	60323.33	3.2190	3.2189	-0.1107	26.36	0.76	-0.750			
0.9429	60344.15	3.2160	3.2161	-0.1082	26.37	0.77	-0.750			
0.9432	60364.63	3.2130	3.2129	-0.1068	26.37	0.77	-0.750			
0.9435	60384.74	3.2100	3.2101	-0.1050	26.37	0.77	-0.750			
0.9438	60404.84	3.2070	3.2069	-0.1038	26.37	0.77	-0.750			
0.9441	60424.81	3.2040	3.2041	-0.1028	26.38	0.78	-0.750			
0.9444	60444.38	3.2010	3.2009	-0.1014	26.38	0.78	-0.750			
0.9447	60463.58	3.1980	3.1981	-0.0999	26.38	0.78	-0.750			
0.9450	60482.66	3.1950	3.1951	-0.0986	26.38	0.78	-0.750			
0.9453	60501.58	3.1920	3.1919	-0.0976	26.39	0.79	-0.750			
0.9456	60520.18	3.1890	3.1890	-0.0962	26.39	0.79	-0.750			
0.9459	60538.51	3.1860	3.1859	-0.0946	26.39	0.79	-0.750			
0.9462	60556.53	3.1830	3.1830	-0.0931	26.39	0.79	-0.750			
0.9465	60574.23	3.1800	3.1800	-0.0921	26.39	0.79	-0.750			
0.9467	60591.79	3.1770	3.1771	-0.0908	26.40	0.80	-0.750			
0.9470	60609.10	3.1740	3.1738	-0.0894	26.40	0.80	-0.750			
0.9473	60626.13	3.1710	3.1711	-0.0881	26.40	0.80	-0.750			
0.9475	60642.79	3.1680	3.1682	-0.0870	26.41	0.81	-0.750			
0.9478	60659.40	3.1650	3.1649	-0.0860	26.41	0.81	-0.750			
0.9481	60675.72	3.1620	3.1620	-0.0853	26.41	0.81	-0.750			
0.9483	60692.03	3.1590	3.1590	-0.0846	26.42	0.82	-0.750			
0.9486	60707.96	3.1560	3.1561	-0.0837	26.42	0.82	-0.750			
0.9488	60724.15	3.1530	3.1530	-0.0829	26.42	0.82	-0.750			
0.9491	60740.15	3.1500	3.1500	-0.0825	26.43	0.83	-0.750			
0.9493	60755.98	3.1470	3.1470	-0.0814	26.43	0.83	-0.750			
0.9496	60771.52	3.1440	3.1441	-0.0804	26.43	0.83	-0.750			
0.9498	60786.99	3.1410	3.1409	-0.0795	26.44	0.84	-0.750			
0.9500	60802.03	3.1380	3.1381	-0.0786	26.44	0.84	-0.750			
0.9503	60816.90	3.1350	3.1351	-0.0773	26.44	0.84	-0.750			
0.9505	60831.67	3.1320	3.1319	-0.0765	26.45	0.85	-0.750			
0.9507	60846.23	3.1290	3.1290	-0.0759	26.45	0.85	-0.750			
0.9509	60860.62	3.1260	3.1259	-0.0750	26.45	0.85	-0.750			
0.9512	60874.96	3.1230	3.1229	-0.0744	26.45	0.85	-0.750			
0.9514	60889.15	3.1200	3.1200	-0.0741	26.46	0.86	-0.750			
0.9516	60903.28	3.1170	3.1170	-0.0736	26.46	0.86	-0.750			
0.9518	60917.45	3.1140	3.1140	-0.0730	26.46	0.86	-0.750			
0.9521	60931.45	3.1110	3.1110	-0.0726	26.47	0.87	-0.750			
0.9523	60945.33	3.1080	3.1081	-0.0720	26.47	0.87	-0.750			
0.9525	60959.15	3.1050	3.1051	-0.0713	26.47	0.87	-0.750			
0.9527	60972.90	3.1020	3.1019	-0.0708	26.47	0.87	-0.750			
0.9529	60986.40	3.0990	3.0990	-0.0699	26.48	0.88	-0.750			
0.9531	60999.68	3.0960	3.0960	-0.0694	26.48	0.88	-0.750			
0.9533	61012.82	3.0930	3.0930	-0.0686	26.48	0.88	-0.750			
0.9535	61025.99	3.0900	3.0900	-0.0681	26.48	0.88	-0.750			
0.9537	61039.01	3.0870	3.0869	-0.0675	26.49	0.89	-0.750			
0.9539	61051.91	3.0840	3.0841	-0.0669	26.49	0.89	-0.750			
0.9541	61064.62	3.0810	3.0810	-0.0666	26.49	0.89	-0.750			
0.9543	61077.35	3.0780	3.0780	-0.0662	26.49	0.89	-0.750			
0.9545	61090.02	3.0750	3.0748	-0.0658	26.50	0.90	-0.750			
0.9547	61102.65	3.0720	3.0720	-0.0654	26.50	0.90	-0.750			
0.9549	61115.11	3.0690	3.0690	-0.0649	26.50	0.90	-0.750			
0.9551	61127.55	3.0660	3.0660	-0.0646	26.50	0.90	-0.750			
0.9553	61139.99	3.0630	3.0630	-0.0640	26.51	0.91	-0.750			
0.9555	61152.38	3.0600	3.0600	-0.0637	26.51	0.91	-0.750			
0.9557	61164.55	3.0570	3.0569	-0.0631	26.51	0.91	-0.750			
0.9559	61176.50	3.0540	3.0541	-0.0628	26.51	0.91	-0.750			
0.9561	61188.40	3.0510	3.0511	-0.0622	26.51	0.91	-0.750			
0.9563	61200.31	3.0480	3.0479	-0.0619	26.52	0.92	-0.750			
0.9564	61212.19	3.0450	3.0451	-0.0615	26.52	0.92	-0.750			
0.9566	61223.93	3.0420	3.0418	-0.0611	26.52	0.92	-0.750			
0.9568	61235.63	3.0390	3.0390	-0.0608	26.52	0.92	-0.750			
0.9570	61247.27	3.0360	3.0360	-0.0605	26.52	0.92	-0.750			
0.9572	61258.95	3.0330	3.0330	-0.0601	26.52	0.92	-0.750			
0.9574	61270.44	3.0300	3.0301	-0.0596	26.53	0.93	-0.750			
0.9575	61281.84	3.0270	3.0269	-0.0591	26.53	0.93	-0.750			
0.9577	61293.07	3.0240	3.0240	-0.0587	26.53	0.93	-0.750			
0.9579	61304.31	3.0210	3.0212	-0.0584	26.53	0.93	-0.750			
0.9581	61315.48	3.0180	3.0180	-0.0580	26.53	0.93	-0.750			
0.9582	61326.53	3.0150	3.0149	-0.0576	26.54	0.94	-0.750			
0.9584	61337.57	3.0120	3.0121	-0.0573	26.54	0.94	-0.750			
0.9586	61348.56	3.0090	3.0092	-0.0571	26.54	0.94	-0.751			
0.9587	61359.49	3.0060	3.0060	-0.0568	26.54	0.94	-0.751			
