Ah_balance (normalized)	Ah_balance (mAh)	Voltage - fit (V)	Voltage -  interpolate (V)	dQ/dV (1/V)	Temperature (°C)	Temperature - diff (°C)	Current (C)	R_DC 0ms (mOhm)	R_DC 50ms (mOhm)	R_DC 50 ms PEC (mOhm)
0.0003	21.28	4.1620	4.1619	-0.1438	25.94	0.01	-0.750			
0.0008	51.87	4.1590	4.1589	-0.1777	25.94	0.01	-0.750			
0.0014	88.88	4.1560	4.1561	-0.2128	25.94	0.01	-0.750			
0.0021	133.10	4.1530	4.1530	-0.2493	25.94	0.01	-0.750			
0.0029	183.81	4.1500	4.1501	-0.2900	25.94	0.01	-0.750			
0.0038	243.60	4.1470	4.1469	-0.3239	25.94	0.01	-0.750			
0.0048	309.69	4.1440	4.1440	-0.3595	25.93	0.00	-0.750			
0.0060	383.37	4.1410	4.1410	-0.3905	25.93	0.00	-0.750			
0.0072	461.52	4.1380	4.1380	-0.4186	25.93	-0.00	-0.750			
0.0085	544.89	4.1350	4.1350	-0.4476	25.93	-0.00	-0.750			
0.0099	633.69	4.1320	4.1320	-0.4724	25.92	-0.01	-0.750			
0.0113	726.39	4.1290	4.1290	-0.4954	25.92	-0.01	-0.750			
0.0129	825.60	4.1260	4.1259	-0.5201	25.91	-0.02	-0.750			
0.0145	928.47	4.1230	4.1231	-0.5381	25.91	-0.02	-0.750			
0.0162	1034.79	4.1200	4.1201	-0.5541	25.91	-0.02	-0.750			
0.0179	1143.23	4.1170	4.1170	-0.5681	25.90	-0.03	-0.750			
0.0196	1252.79	4.1140	4.1140	-0.5817	25.90	-0.03	-0.750			
0.0213	1365.29	4.1110	4.1111	-0.5960	25.90	-0.03	-0.750			
0.0231	1480.92	4.1080	4.1079	-0.6059	25.90	-0.03	-0.750			
0.0250	1598.91	4.1050	4.1050	-0.6209	25.90	-0.03	-0.750			
0.0269	1720.47	4.1020	4.1020	-0.6296	25.89	-0.04	-0.750			
0.0288	1842.35	4.0990	4.0989	-0.6366	25.89	-0.04	-0.750			
0.0307	1966.17	4.0960	4.0960	-0.6420	25.89	-0.04	-0.750			
0.0326	2089.59	4.0930	4.0930	-0.6478	25.89	-0.04	-0.750			
0.0346	2214.13	4.0900	4.0900	-0.6545	25.89	-0.04	-0.750			
0.0366	2340.39	4.0870	4.0869	-0.6632	25.88	-0.05	-0.750			
0.0386	2469.86	4.0840	4.0839	-0.6698	25.88	-0.05	-0.750			
0.0406	2601.37	4.0810	4.0810	-0.6719	25.88	-0.05	-0.750			
0.0427	2731.76	4.0780	4.0779	-0.6725	25.87	-0.06	-0.750			
0.0447	2860.07	4.0750	4.0751	-0.6749	25.87	-0.06	-0.750			
0.0467	2987.48	4.0720	4.0719	-0.6788	25.87	-0.06	-0.750			
0.0487	3117.85	4.0690	4.0688	-0.6806	25.87	-0.06	-0.750			
0.0507	3245.79	4.0660	4.0660	-0.6856	25.87	-0.06	-0.750			
0.0529	3383.97	4.0630	4.0631	-0.6955	25.87	-0.06	-0.750			
0.0550	3518.97	4.0600	4.0600	-0.7008	25.87	-0.06	-0.750			
0.0571	3652.58	4.0570	4.0571	-0.7020	25.87	-0.06	-0.750			
0.0591	3785.00	4.0540	4.0540	-0.7006	25.87	-0.06	-0.750			
0.0612	3919.95	4.0510	4.0510	-0.7046	25.87	-0.06	-0.750			
0.0634	4057.34	4.0480	4.0480	-0.7064	25.87	-0.06	-0.750			
0.0655	4193.26	4.0450	4.0451	-0.7064	25.87	-0.06	-0.750			
0.0676	4328.96	4.0420	4.0419	-0.7110	25.87	-0.06	-0.750			
0.0698	4464.60	4.0390	4.0390	-0.7106	25.87	-0.06	-0.750			
0.0719	4601.12	4.0360	4.0360	-0.7159	25.87	-0.06	-0.750			
0.0740	4737.87	4.0330	4.0330	-0.7225	25.87	-0.06	-0.750			
0.0762	4879.20	4.0300	4.0299	-0.7200	25.87	-0.06	-0.750			
0.0784	5019.29	4.0270	4.0270	-0.7224	25.87	-0.06	-0.750			
0.0806	5156.45	4.0240	4.0240	-0.7243	25.87	-0.06	-0.750			
0.0827	5295.00	4.0210	4.0208	-0.7212	25.87	-0.06	-0.750			
0.0849	5432.52	4.0180	4.0179	-0.7258	25.88	-0.05	-0.750			
0.0871	5572.30	4.0150	4.0150	-0.7302	25.88	-0.05	-0.750			
0.0893	5713.51	4.0120	4.0120	-0.7358	25.88	-0.05	-0.750			
0.0915	5857.42	4.0090	4.0090	-0.7404	25.89	-0.04	-0.750			
0.0937	5999.50	4.0060	4.0061	-0.7396	25.89	-0.04	-0.750			
0.0960	6141.62	4.0030	4.0029	-0.7366	25.89	-0.04	-0.750			
0.0982	6283.65	4.0000	3.9999	-0.7362	25.89	-0.04	-0.750			
0.1004	6422.60	3.9970	3.9971	-0.7393	25.89	-0.04	-0.750			
0.1026	6564.80	3.9940	3.9940	-0.7418	25.89	-0.04	-0.750			
0.1048	6708.54	3.9910	3.9909	-0.7451	25.89	-0.04	-0.750			
0.1071	6852.51	3.9880	3.9881	-0.7470	25.89	-0.04	-0.750			
0.1093	6996.60	3.9850	3.9851	-0.7490	25.89	-0.04	-0.750			
0.1116	7141.10	3.9820	3.9819	-0.7533	25.90	-0.03	-0.750			
0.1138	7285.44	3.9790	3.9790	-0.7505	25.90	-0.03	-0.750			
0.1161	7429.40	3.9760	3.9759	-0.7536	25.91	-0.02	-0.750			
0.1183	7573.63	3.9730	3.9730	-0.7592	25.91	-0.02	-0.750			
0.1206	7720.43	3.9700	3.9699	-0.7599	25.91	-0.02	-0.750			
0.1229	7866.35	3.9670	3.9671	-0.7614	25.92	-0.01	-0.750			
0.1252	8012.83	3.9640	3.9640	-0.7670	25.92	-0.01	-0.750			
0.1275	8160.19	3.9610	3.9609	-0.7703	25.92	-0.01	-0.750			
0.1299	8310.68	3.9580	3.9579	-0.7743	25.93	-0.00	-0.750			
0.1322	8458.32	3.9550	3.9551	-0.7756	25.93	0.00	-0.750			
0.1345	8608.65	3.9520	3.9520	-0.7728	25.93	0.00	-0.750			
0.1368	8758.40	3.9490	3.9490	-0.7748	25.94	0.01	-0.750			
0.1391	8904.40	3.9460	3.9460	-0.7708	25.94	0.01	-0.750			
0.1415	9053.73	3.9430	3.9430	-0.7778	25.95	0.02	-0.750			
0.1438	9202.74	3.9400	3.9400	-0.7777	25.95	0.02	-0.750			
0.1461	9352.16	3.9370	3.9370	-0.7820	25.95	0.02	-0.750			
0.1485	9503.27	3.9340	3.9340	-0.7854	25.95	0.02	-0.750			
0.1509	9656.04	3.9310	3.9310	-0.7905	25.96	0.03	-0.750			
0.1532	9806.70	3.9280	3.9280	-0.7904	25.96	0.03	-0.750			
0.1556	9959.44	3.9250	3.9251	-0.7892	25.96	0.03	-0.750			
0.1580	10110.68	3.9220	3.9218	-0.7922	25.96	0.03	-0.750			
0.1603	10262.20	3.9190	3.9190	-0.7979	25.97	0.04	-0.750			
0.1627	10415.54	3.9160	3.9159	-0.7968	25.97	0.04	-0.750			
0.1651	10567.84	3.9130	3.9130	-0.7989	25.97	0.04	-0.750			
0.1676	10725.44	3.9100	3.9100	-0.7997	25.98	0.05	-0.750			
0.1700	10878.64	3.9070	3.9070	-0.7970	25.98	0.05	-0.750			
0.1724	11030.45	3.9040	3.9040	-0.8009	25.98	0.05	-0.750			
0.1747	11182.55	3.9010	3.9011	-0.7962	25.98	0.05	-0.750			
0.1771	11334.26	3.8980	3.8978	-0.7985	25.99	0.06	-0.750			
0.1795	11489.19	3.8950	3.8949	-0.8030	25.99	0.06	-0.750			
0.1819	11643.01	3.8920	3.8922	-0.8061	25.99	0.06	-0.750			
0.1844	11799.66	3.8890	3.8889	-0.8094	25.99	0.06	-0.750			
0.1868	11955.41	3.8860	3.8861	-0.8161	26.00	0.07	-0.750			
0.1893	12113.11	3.8830	3.8830	-0.8157	26.00	0.07	-0.750			
0.1917	12271.06	3.8800	3.8799	-0.8209	26.01	0.08	-0.750			
0.1942	12428.70	3.8770	3.8773	-0.8144	26.01	0.08	-0.750			
0.1966	12584.73	3.8740	3.8739	-0.8146	26.01	0.08	-0.750			
0.1991	12739.86	3.8710	3.8710	-0.8163	26.02	0.09	-0.750			
0.2015	12896.55	3.8680	3.8679	-0.8142	26.02	0.09	-0.750			
0.2040	13054.11	3.8650	3.8649	-0.8168	26.03	0.10	-0.750			
0.2064	13210.88	3.8620	3.8622	-0.8143	26.03	0.10	-0.750			
0.2089	13367.00	3.8590	3.8590	-0.8146	26.03	0.10	-0.750			
0.2113	13523.43	3.8560	3.8559	-0.8203	26.04	0.11	-0.750			
0.2137	13677.85	3.8530	3.8530	-0.8176	26.04	0.11	-0.750			
0.2162	13837.74	3.8500	3.8499	-0.8193	26.05	0.12	-0.750			
0.2187	13994.68	3.8470	3.8471	-0.8196	26.05	0.12	-0.750			
0.2211	14152.84	3.8440	3.8440	-0.8222	26.05	0.12	-0.750			
0.2236	14310.17	3.8410	3.8409	-0.8280	26.06	0.13	-0.750			
0.2261	14470.31	3.8380	3.8379	-0.8236	26.06	0.13	-0.750			
0.2286	14627.76	3.8350	3.8349	-0.8190	26.07	0.14	-0.750			
0.2311	14787.21	3.8320	3.8322	-0.8194	26.07	0.14	-0.750			
0.2335	14944.86	3.8290	3.8289	-0.8161	26.07	0.14	-0.750			
0.2359	15098.89	3.8260	3.8259	-0.8121	26.07	0.14	-0.750			
0.2383	15253.07	3.8230	3.8230	-0.8131	26.08	0.15	-0.750			
0.2407	15407.32	3.8200	3.8200	-0.8095	26.08	0.15	-0.750			
0.2432	15567.66	3.8170	3.8170	-0.8185	26.08	0.15	-0.750			
0.2457	15724.73	3.8140	3.8139	-0.8131	26.08	0.15	-0.750			
0.2481	15881.07	3.8110	3.8110	-0.8126	26.09	0.16	-0.750			
0.2506	16036.56	3.8080	3.8081	-0.8096	26.10	0.17	-0.750			
0.2530	16190.45	3.8050	3.8050	-0.8050	26.10	0.17	-0.750			
0.2554	16345.84	3.8020	3.8019	-0.8011	26.11	0.18	-0.750			
0.2578	16500.31	3.7990	3.7990	-0.7986	26.11	0.18	-0.750			
0.2602	16651.75	3.7960	3.7960	-0.7993	26.11	0.18	-0.750			
0.2626	16806.60	3.7930	3.7930	-0.7939	26.11	0.18	-0.750			
0.2650	16958.01	3.7900	3.7899	-0.7892	26.11	0.18	-0.750			
0.2673	17109.67	3.7870	3.7870	-0.7860	26.11	0.18	-0.750			
0.2697	17260.49	3.7840	3.7841	-0.7802	26.11	0.18	-0.750			
0.2720	17410.57	3.7810	3.7809	-0.7724	26.11	0.18	-0.750			
0.2743	17557.23	3.7780	3.7781	-0.7715	26.12	0.19	-0.750			
0.2766	17704.05	3.7750	3.7749	-0.7649	26.12	0.19	-0.750			
0.2789	17851.36	3.7720	3.7719	-0.7700	26.13	0.20	-0.750			
0.2812	17998.84	3.7690	3.7690	-0.7709	26.13	0.20	-0.750			
0.2835	18146.91	3.7660	3.7660	-0.7717	26.13	0.20	-0.750			
0.2859	18296.30	3.7630	3.7629	-0.7698	26.14	0.21	-0.750			
0.2882	18444.08	3.7600	3.7601	-0.7693	26.14	0.21	-0.750			
0.2905	18591.81	3.7570	3.7571	-0.7688	26.14	0.21	-0.750			
0.2928	18737.44	3.7540	3.7539	-0.7715	26.15	0.22	-0.750			
0.2951	18883.53	3.7510	3.7510	-0.7691	26.15	0.22	-0.750			
0.2973	19030.40	3.7480	3.7480	-0.7807	26.15	0.22	-0.750			
0.2997	19181.76	3.7450	3.7450	-0.7886	26.15	0.22	-0.750			
0.3021	19336.20	3.7420	3.7420	-0.7959	26.15	0.22	-0.750			
0.3045	19490.12	3.7390	3.7389	-0.7973	26.15	0.22	-0.750			
0.3069	19643.72	3.7360	3.7362	-0.8025	26.15	0.22	-0.750			
0.3093	19796.35	3.7330	3.7330	-0.8082	26.15	0.22	-0.750			
0.3117	19950.84	3.7300	3.7300	-0.8209	26.16	0.23	-0.750			
0.3142	20109.42	3.7270	3.7269	-0.8288	26.16	0.23	-0.750			
0.3167	20270.48	3.7240	3.7240	-0.8436	26.17	0.24	-0.750			
0.3193	20433.16	3.7210	3.7211	-0.8574	26.17	0.24	-0.750			
0.3219	20599.72	3.7180	3.7180	-0.8743	26.17	0.24	-0.750			
0.3245	20768.22	3.7150	3.7149	-0.8852	26.17	0.24	-0.750			
0.3271	20936.96	3.7120	3.7120	-0.8988	26.17	0.24	-0.750			
0.3299	21111.59	3.7090	3.7090	-0.9165	26.17	0.24	-0.750			
0.3327	21289.69	3.7060	3.7060	-0.9363	26.17	0.24	-0.750			
0.3355	21472.11	3.7030	3.7030	-0.9560	26.17	0.24	-0.750			
0.3384	21657.79	3.7000	3.6999	-0.9688	26.17	0.24	-0.750			
0.3413	21846.21	3.6970	3.6970	-0.9828	26.17	0.24	-0.750			
0.3443	22035.66	3.6940	3.6943	-1.0054	26.17	0.24	-0.750			
0.3473	22229.83	3.6910	3.6909	-1.0169	26.16	0.23	-0.750			
0.3504	22426.83	3.6880	3.6880	-1.0351	26.16	0.23	-0.750			
0.3535	22622.09	3.6850	3.6851	-1.0572	26.15	0.22	-0.750			
0.3567	22829.15	3.6820	3.6822	-1.0965	26.15	0.22	-0.750			
0.3601	23043.71	3.6790	3.6789	-1.1155	26.14	0.21	-0.750			
0.3635	23261.56	3.6760	3.6758	-1.1352	26.14	0.21	-0.750			
0.3669	23480.41	3.6730	3.6730	-1.1568	26.13	0.20	-0.750			
0.3704	23705.50	3.6700	3.6701	-1.1989	26.13	0.20	-0.750			
0.3740	23938.21	3.6670	3.6668	-1.2225	26.12	0.19	-0.750			
0.3777	24174.10	3.6640	3.6639	-1.2417	26.12	0.19	-0.750			
0.3815	24417.03	3.6610	3.6613	-1.2670	26.11	0.18	-0.750			
0.3854	24667.46	3.6580	3.6581	-1.2958	26.10	0.17	-0.750			
0.3894	24920.36	3.6550	3.6549	-1.3144	26.10	0.17	-0.750			
0.3933	25171.31	3.6520	3.6521	-1.3271	26.09	0.16	-0.750			
0.3973	25425.50	3.6490	3.6489	-1.3403	26.08	0.15	-0.750			
0.4013	25684.72	3.6460	3.6460	-1.3653	26.08	0.15	-0.750			
0.4054	25947.47	3.6430	3.6431	-1.3980	26.07	0.14	-0.750			
0.4097	26219.12	3.6400	3.6399	-1.4217	26.07	0.14	-0.750			
0.4140	26497.56	3.6370	3.6369	-1.4574	26.06	0.13	-0.750			
0.4185	26781.93	3.6340	3.6341	-1.4879	26.05	0.12	-0.750			
0.4230	27070.14	3.6310	3.6309	-1.5241	26.04	0.11	-0.750			
0.4276	27367.51	3.6280	3.6281	-1.5610	26.04	0.11	-0.750			
0.4323	27670.25	3.6250	3.6251	-1.5806	26.03	0.10	-0.750			
0.4371	27973.04	3.6220	3.6222	-1.6172	26.02	0.09	-0.750			
0.4421	28292.67	3.6190	3.6188	-1.6428	26.01	0.08	-0.750	0.377	0.511	
0.4470	28605.94	3.6160	3.6158	-1.6780	26.00	0.07	-0.750			
0.4521	28932.87	3.6130	3.6131	-1.7068	25.98	0.05	-0.750			
0.4572	29262.78	3.6100	3.6100	-1.7357	25.97	0.04	-0.750			
0.4625	29598.09	3.6070	3.6070	-1.7756	25.97	0.04	-0.750			
0.4679	29944.64	3.6040	3.6038	-1.8035	25.96	0.03	-0.750			
0.4733	30288.03	3.6010	3.6011	-1.8482	25.95	0.02	-0.750			
0.4790	30652.97	3.5980	3.5978	-1.8783	25.94	0.01	-0.750			
0.4846	31014.25	3.5950	3.5952	-1.9131	25.94	0.01	-0.750			
0.4904	31384.91	3.5920	3.5921	-1.9703	25.93	-0.00	-0.750			
0.4963	31765.37	3.5890	3.5889	-1.9871	25.92	-0.01	-0.750			
0.5023	32150.08	3.5860	3.5861	-2.0256	25.91	-0.02	-0.750			
0.5086	32548.14	3.5830	3.5830	-2.0771	25.90	-0.03	-0.750			
0.5148	32949.13	3.5800	3.5799	-2.0971	25.89	-0.04	-0.750			
0.5212	33359.94	3.5770	3.5770	-2.1156	25.89	-0.04	-0.750			
0.5276	33763.74	3.5740	3.5742	-2.1429	25.89	-0.04	-0.750			
0.5340	34175.69	3.5710	3.5711	-2.1687	25.89	-0.04	-0.750			
0.5406	34601.29	3.5680	3.5679	-2.1993	25.88	-0.05	-0.750			
0.5472	35022.88	3.5650	3.5651	-2.2096	25.87	-0.06	-0.750			
0.5540	35454.62	3.5620	3.5619	-2.2285	25.87	-0.06	-0.750			
0.5607	35885.67	3.5590	3.5590	-2.2287	25.86	-0.07	-0.750			
0.5674	36312.16	3.5560	3.5561	-2.2219	25.85	-0.08	-0.750			
0.5740	36733.44	3.5530	3.5529	-2.2152	25.85	-0.08	-0.750			
0.5806	37156.61	3.5500	3.5500	-2.2075	25.85	-0.08	-0.750			
0.5872	37583.66	3.5470	3.5471	-2.2072	25.85	-0.08	-0.750			
0.5939	38007.01	3.5440	3.5439	-2.2081	25.85	-0.08	-0.750			
0.6005	38434.80	3.5410	3.5408	-2.1926	25.85	-0.08	-0.750			
0.6071	38857.42	3.5380	3.5380	-2.1693	25.85	-0.08	-0.750			
0.6137	39275.26	3.5350	3.5351	-2.1397	25.86	-0.07	-0.750			
0.6200	39681.20	3.5320	3.5320	-2.0886	25.87	-0.06	-0.750			
0.6263	40080.41	3.5290	3.5290	-2.0336	25.87	-0.06	-0.750			
0.6323	40466.59	3.5260	3.5259	-1.9895	25.87	-0.06	-0.750			
0.6381	40841.23	3.5230	3.5231	-1.9406	25.88	-0.05	-0.750			
0.6439	41209.89	3.5200	3.5199	-1.9099	25.88	-0.05	-0.750			
0.6496	41571.76	3.5170	3.5171	-1.8631	25.88	-0.05	-0.750			
0.6550	41922.97	3.5140	3.5140	-1.8126	25.89	-0.04	-0.750			
0.6605	42272.50	3.5110	3.5110	-1.7697	25.90	-0.03	-0.750			
0.6657	42607.28	3.5080	3.5078	-1.7126	25.92	-0.01	-0.750			
0.6708	42929.90	3.5050	3.5049	-1.6517	25.93	0.00	-0.750			
0.6757	43243.02	3.5020	3.5022	-1.5970	25.94	0.01	-0.750			
0.6804	43542.90	3.4990	3.4988	-1.5419	25.95	0.02	-0.750			
0.6849	43835.05	3.4960	3.4960	-1.4862	25.96	0.03	-0.750			
0.6893	44115.91	3.4930	3.4930	-1.4459	25.97	0.04	-0.750			
0.6935	44387.11	3.4900	3.4901	-1.4082	25.99	0.06	-0.750			
0.6977	44651.11	3.4870	3.4869	-1.3596	26.00	0.07	-0.750			
0.7018	44913.69	3.4840	3.4839	-1.3179	26.02	0.09	-0.750			
0.7056	45161.24	3.4810	3.4812	-1.2715	26.04	0.11	-0.750			
0.7094	45402.07	3.4780	3.4780	-1.2382	26.05	0.12	-0.750			
0.7131	45638.29	3.4750	3.4748	-1.1974	26.07	0.14	-0.750			
0.7166	45861.49	3.4720	3.4719	-1.1502	26.08	0.15	-0.750			
0.7199	46075.64	3.4690	3.4692	-1.1086	26.09	0.16	-0.750			
0.7233	46288.08	3.4660	3.4660	-1.0797	26.10	0.17	-0.750			
0.7264	46491.53	3.4630	3.4628	-1.0425	26.11	0.18	-0.750			
0.7294	46681.10	3.4600	3.4601	-0.9988	26.12	0.19	-0.750			
0.7324	46874.85	3.4570	3.4571	-0.9778	26.13	0.20	-0.750			
0.7353	47059.51	3.4540	3.4540	-0.9547	26.15	0.22	-0.750			
0.7381	47240.50	3.4510	3.4510	-0.9258	26.16	0.23	-0.750			
0.7408	47413.51	3.4480	3.4479	-0.8996	26.17	0.24	-0.750			
0.7435	47583.20	3.4450	3.4451	-0.8821	26.19	0.26	-0.750			
0.7461	47748.16	3.4420	3.4420	-0.8779	26.20	0.27	-0.750			
0.7486	47913.30	3.4390	3.4389	-0.8731	26.20	0.27	-0.750			
0.7513	48080.25	3.4360	3.4359	-0.8771	26.21	0.28	-0.750			
0.7538	48245.45	3.4330	3.4330	-0.8855	26.22	0.29	-0.750			
0.7565	48418.28	3.4300	3.4304	-0.9079	26.23	0.30	-0.750			
0.7593	48593.27	3.4270	3.4270	-0.9291	26.24	0.31	-0.750			
0.7621	48773.54	3.4240	3.4239	-0.9448	26.25	0.32	-0.750			
0.7650	48956.91	3.4210	3.4211	-0.9636	26.26	0.33	-0.750			
0.7679	49145.96	3.4180	3.4180	-0.9764	26.27	0.34	-0.750			
0.7709	49336.65	3.4150	3.4149	-0.9775	26.28	0.35	-0.750			
0.7739	49527.53	3.4120	3.4120	-0.9749	26.29	0.36	-0.750			
0.7768	49714.49	3.4090	3.4090	-0.9644	26.29	0.36	-0.750			
0.7797	49900.38	3.4060	3.4059	-0.9455	26.30	0.37	-0.750			
0.7825	50081.43	3.4030	3.4031	-0.9274	26.31	0.38	-0.750			
0.7853	50257.35	3.4000	3.3999	-0.9040	26.32	0.39	-0.750			
0.7880	50429.56	3.3970	3.3970	-0.8793	26.33	0.40	-0.750			
0.7905	50595.03	3.3940	3.3940	-0.8474	26.34	0.41	-0.750			
0.7931	50756.89	3.3910	3.3910	-0.8251	26.35	0.42	-0.750			
0.7955	50912.69	3.3880	3.3880	-0.7952	26.35	0.42	-0.750			
0.7979	51062.54	3.3850	3.3849	-0.7701	26.36	0.43	-0.750			
0.8001	51207.37	3.3820	3.3820	-0.7402	26.36	0.43	-0.750			
0.8023	51347.18	3.3790	3.3790	-0.7125	26.37	0.44	-0.750			
0.8044	51482.11	3.3760	3.3759	-0.6892	26.37	0.44	-0.750			
0.8064	51611.98	3.3730	3.3732	-0.6619	26.38	0.45	-0.750			
0.8084	51735.78	3.3700	3.3699	-0.6341	26.39	0.46	-0.750			
0.8102	51854.57	3.3670	3.3670	-0.6110	26.40	0.47	-0.750			
0.8120	51968.27	3.3640	3.3641	-0.5858	26.41	0.48	-0.750			
0.8138	52080.20	3.3610	3.3610	-0.5705	26.41	0.48	-0.750			
0.8154	52186.87	3.3580	3.3580	-0.5473	26.42	0.49	-0.750			
0.8170	52289.40	3.3550	3.3550	-0.5285	26.43	0.50	-0.750			
0.8186	52389.23	3.3520	3.3521	-0.5097	26.44	0.51	-0.750			
0.8201	52485.11	3.3490	3.3489	-0.4907	26.45	0.52	-0.750			
0.8215	52576.55	3.3460	3.3460	-0.4728	26.45	0.52	-0.750			
0.8229	52665.80	3.3430	3.3431	-0.4576	26.46	0.53	-0.750			
0.8242	52751.04	3.3400	3.3399	-0.4419	26.47	0.54	-0.750			
0.8256	52835.32	3.3370	3.3370	-0.4278	26.47	0.54	-0.750			
0.8268	52915.54	3.3340	3.3340	-0.4148	26.48	0.55	-0.750			
0.8280	52994.27	3.3310	3.3310	-0.4038	26.48	0.55	-0.750			
0.8292	53070.72	3.3280	3.3280	-0.3890	26.49	0.56	-0.750			
0.8304	53143.51	3.3250	3.3249	-0.3744	26.49	0.56	-0.750			
0.8315	53213.94	3.3220	3.3222	-0.3640	26.50	0.57	-0.750			
0.8325	53281.98	3.3190	3.3190	-0.3528	26.51	0.58	-0.750			
0.8336	53348.92	3.3160	3.3160	-0.3432	26.51	0.58	-0.750			
0.8346	53413.71	3.3130	3.3130	-0.3338	26.52	0.59	-0.750			
0.8356	53476.61	3.3100	3.3100	-0.3247	26.53	0.60	-0.750			
0.8365	53538.81	3.3070	3.3070	-0.3169	26.53	0.60	-0.750			
0.8375	53598.72	3.3040	3.3040	-0.3060	26.54	0.61	-0.750			
0.8384	53655.80	3.3010	3.3010	-0.2977	26.54	0.61	-0.750			
0.8392	53711.88	3.2980	3.2981	-0.2895	26.55	0.62	-0.750			
0.8401	53766.70	3.2950	3.2949	-0.2830	26.56	0.63	-0.750			
0.8409	53820.12	3.2920	3.2920	-0.2766	26.56	0.63	-0.750			
0.8418	53872.65	3.2890	3.2890	-0.2701	26.57	0.64	-0.750			
0.8426	53923.92	3.2860	3.2860	-0.2642	26.57	0.64	-0.750			
0.8434	53974.53	3.2830	3.2830	-0.2588	26.58	0.65	-0.750			
0.8441	54023.06	3.2800	3.2800	-0.2521	26.58	0.65	-0.750			
0.8449	54071.24	3.2770	3.2769	-0.2463	26.59	0.66	-0.750			
0.8456	54117.40	3.2740	3.2740	-0.2412	26.59	0.66	-0.750			
0.8463	54162.66	3.2710	3.2710	-0.2360	26.60	0.67	-0.750			
0.8470	54207.63	3.2680	3.2681	-0.2324	26.60	0.67	-0.750			
0.8477	54251.78	3.2650	3.2649	-0.2289	26.61	0.68	-0.750			
0.8484	54295.30	3.2620	3.2621	-0.2248	26.61	0.68	-0.750			
0.8490	54338.50	3.2590	3.2590	-0.2212	26.62	0.69	-0.750			
0.8497	54380.78	3.2560	3.2560	-0.2174	26.62	0.69	-0.750			
0.8503	54422.22	3.2530	3.2530	-0.2147	26.63	0.70	-0.750			
0.8510	54462.51	3.2500	3.2500	-0.2100	26.63	0.70	-0.750			
0.8516	54502.54	3.2470	3.2470	-0.2066	26.63	0.70	-0.750			
0.8522	54541.92	3.2440	3.2439	-0.2036	26.64	0.71	-0.750			
0.8528	54580.74	3.2410	3.2411	-0.1999	26.64	0.71	-0.750			
0.8534	54618.77	3.2380	3.2379	-0.1977	26.65	0.72	-0.750			
0.8540	54656.25	3.2350	3.2351	-0.1952	26.65	0.72	-0.750			
0.8546	54693.50	3.2320	3.2321	-0.1928	26.66	0.73	-0.750			
0.8552	54730.00	3.2290	3.2289	-0.1892	26.66	0.73	-0.750			
0.8557	54766.28	3.2260	3.2259	-0.1869	26.66	0.73	-0.750			
0.8563	54802.13	3.2230	3.2231	-0.1846	26.67	0.74	-0.750			
0.8568	54837.24	3.2200	3.2200	-0.1819	26.67	0.74	-0.750			
0.8574	54872.08	3.2170	3.2169	-0.1792	26.68	0.75	-0.750			
0.8579	54905.71	3.2140	3.2139	-0.1761	26.68	0.75	-0.750			
0.8584	54939.10	3.2110	3.2110	-0.1736	26.69	0.76	-0.750			
0.8589	54972.19	3.2080	3.2081	-0.1728	26.69	0.76	-0.750			
0.8595	55005.28	3.2050	3.2049	-0.1717	26.70	0.77	-0.750			
0.8600	55038.07	3.2020	3.2020	-0.1701	26.70	0.77	-0.750			
0.8605	55070.63	3.1990	3.1990	-0.1690	26.71	0.78	-0.750			
0.8610	55103.18	3.1960	3.1961	-0.1668	26.71	0.78	-0.750			
0.8615	55135.25	3.1930	3.1930	-0.1655	26.72	0.79	-0.750			
0.8620	55166.91	3.1900	3.1900	-0.1631	26.72	0.79	-0.750			
0.8625	55197.98	3.1870	3.1870	-0.1606	26.73	0.80	-0.750			
0.8629	55228.41	3.1840	3.1840	-0.1583	26.73	0.80	-0.750			
0.8634	55258.42	3.1810	3.1811	-0.1567	26.74	0.81	-0.750			
0.8639	55288.22	3.1780	3.1780	-0.1551	26.74	0.81	-0.750			
0.8643	55317.89	3.1750	3.1749	-0.1540	26.75	0.82	-0.750			
0.8648	55347.49	3.1720	3.1720	-0.1521	26.75	0.82	-0.750			
0.8653	55376.32	3.1690	3.1691	-0.1505	26.76	0.83	-0.750			
0.8657	55405.33	3.1660	3.1661	-0.1496	26.76	0.83	-0.750			
0.8662	55433.84	3.1630	3.1630	-0.1483	26.77	0.84	-0.750			
0.8666	55462.04	3.1600	3.1600	-0.1472	26.77	0.84	-0.750			
0.8670	55489.84	3.1570	3.1570	-0.1462	26.78	0.85	-0.750			
0.8675	55517.75	3.1540	3.1540	-0.1457	26.78	0.85	-0.750			
0.8679	55545.98	3.1510	3.1510	-0.1443	26.79	0.86	-0.750			
0.8683	55573.90	3.1480	3.1479	-0.1434	26.79	0.86	-0.750			
0.8688	55601.36	3.1450	3.1450	-0.1419	26.80	0.87	-0.750			
0.8692	55628.34	3.1420	3.1421	-0.1407	26.80	0.87	-0.750			
0.8696	55655.29	3.1390	3.1389	-0.1394	26.81	0.88	-0.750			
0.8700	55681.82	3.1360	3.1360	-0.1378	26.81	0.88	-0.750			
0.8704	55707.94	3.1330	3.1330	-0.1362	26.82	0.89	-0.750			
0.8708	55734.15	3.1300	3.1301	-0.1346	26.82	0.89	-0.750			
0.8713	55760.01	3.1270	3.1270	-0.1340	26.83	0.90	-0.750			
0.8716	55785.18	3.1240	3.1240	-0.1331	26.84	0.91	-0.750			
0.8720	55810.69	3.1210	3.1211	-0.1327	26.84	0.91	-0.750			
0.8724	55836.02	3.1180	3.1179	-0.1313	26.85	0.92	-0.750			
0.8728	55861.40	3.1150	3.1150	-0.1305	26.85	0.92	-0.750			
0.8732	55886.52	3.1120	3.1121	-0.1299	26.86	0.93	-0.750			
0.8736	55911.34	3.1090	3.1091	-0.1285	26.86	0.93	-0.750			
0.8740	55936.27	3.1060	3.1059	-0.1275	26.87	0.94	-0.750			
0.8744	55960.23	3.1030	3.1030	-0.1261	26.87	0.94	-0.750			
0.8747	55983.97	3.1000	3.1000	-0.1243	26.88	0.95	-0.750			
0.8751	56007.76	3.0970	3.0971	-0.1243	26.88	0.95	-0.750			
0.8755	56031.62	3.0940	3.0939	-0.1242	26.89	0.96	-0.750			
0.8759	56055.59	3.0910	3.0910	-0.1233	26.89	0.96	-0.750			
0.8762	56079.25	3.0880	3.0880	-0.1227	26.90	0.97	-0.750			
0.8766	56102.94	3.0850	3.0851	-0.1218	26.90	0.97	-0.750			
0.8770	56126.20	3.0820	3.0819	-0.1205	26.91	0.98	-0.750			
0.8773	56149.15	3.0790	3.0790	-0.1199	26.91	0.98	-0.750			
0.8777	56172.09	3.0760	3.0759	-0.1190	26.92	0.99	-0.750			
0.8780	56194.68	3.0730	3.0730	-0.1176	26.92	0.99	-0.750			
0.8784	56217.18	3.0700	3.0698	-0.1169	26.93	1.00	-0.750			
0.8787	56239.63	3.0670	3.0671	-0.1163	26.93	1.00	-0.750			
0.8791	56261.88	3.0640	3.0640	-0.1155	26.94	1.01	-0.750			
0.8794	56283.87	3.0610	3.0611	-0.1152	26.94	1.01	-0.750			
0.8798	56305.96	3.0580	3.0578	-0.1148	26.95	1.02	-0.750			
0.8801	56327.85	3.0550	3.0550	-0.1138	26.95	1.02	-0.750			
0.8805	56349.66	3.0520	3.0519	-0.1134	26.96	1.03	-0.750			
0.8808	56371.57	3.0490	3.0491	-0.1132	26.96	1.03	-0.750			
0.8811	56393.24	3.0460	3.0461	-0.1125	26.96	1.03	-0.750			
0.8815	56414.90	3.0430	3.0431	-0.1116	26.97	1.04	-0.750			
0.8818	56436.23	3.0400	3.0398	-0.1106	26.97	1.04	-0.750			
0.8821	56457.11	3.0370	3.0369	-0.1098	26.98	1.05	-0.750			
0.8825	56478.15	3.0340	3.0341	-0.1093	26.98	1.05	-0.750			
0.8828	56499.17	3.0310	3.0310	-0.1087	26.99	1.06	-0.750			
0.8831	56519.98	3.0280	3.0279	-0.1081	26.99	1.06	-0.750			
0.8834	56540.70	3.0250	3.0251	-0.1072	27.00	1.07	-0.750			
0.8838	56561.18	3.0220	3.0220	-0.1064	27.00	1.07	-0.750			
0.8841	56581.60	3.0190	3.0189	-0.1054	27.01	1.08	-0.750			
0.8844	56601.99	3.0160	3.0161	-0.1047	27.01	1.08	-0.750			
0.8847	56621.93	3.0130	3.0130	-0.1037	27.01	1.08	-0.750			
0.8850	56641.60	3.0100	3.0100	-0.1025	27.02	1.09	-0.750			
0.8853	56661.20	3.0070	3.0070	-0.1016	27.02	1.09	-0.750			
0.8856	56680.61	3.0040	3.0040	-0.1008	27.03	1.10	-0.751			
0.8859	56699.89	3.0010	3.0010	-0.0999	27.03	1.10	-0.751			
