Ah_balance (normalized)	Ah_balance (mAh)	Voltage - fit (V)	Voltage -  interpolate (V)	dQ/dV (1/V)	Temperature (°C)	Temperature - diff (°C)	Current (C)	R_DC 0ms (mOhm)	R_DC 50ms (mOhm)	R_DC 50 ms PEC (mOhm)
0.0001	8.30	4.1670	4.1677	-0.1579	25.63	0.01	-0.750			
0.0006	40.19	4.1640	4.1642	-0.1846	25.63	0.01	-0.750			
0.0012	78.96	4.1610	4.1611	-0.2264	25.63	0.01	-0.750			
0.0020	127.20	4.1580	4.1580	-0.2704	25.63	0.01	-0.750			
0.0029	182.87	4.1550	4.1550	-0.3153	25.62	0.00	-0.750			
0.0039	247.46	4.1520	4.1520	-0.3592	25.62	0.00	-0.750			
0.0050	321.48	4.1490	4.1491	-0.4033	25.62	-0.00	-0.750			
0.0063	405.91	4.1460	4.1458	-0.4353	25.62	-0.00	-0.750			
0.0077	491.01	4.1430	4.1432	-0.4723	25.61	-0.01	-0.750			
0.0091	583.97	4.1400	4.1402	-0.5123	25.61	-0.01	-0.750			
0.0107	685.68	4.1370	4.1366	-0.5524	25.60	-0.02	-0.750			
0.0124	795.30	4.1340	4.1338	-0.5840	25.60	-0.02	-0.750			
0.0143	912.39	4.1310	4.1311	-0.6169	25.60	-0.02	-0.750			
0.0162	1038.34	4.1280	4.1281	-0.6437	25.59	-0.03	-0.750			
0.0182	1166.86	4.1250	4.1249	-0.6621	25.59	-0.03	-0.750			
0.0202	1293.65	4.1220	4.1220	-0.6654	25.58	-0.04	-0.750			
0.0222	1421.94	4.1190	4.1190	-0.6804	25.58	-0.04	-0.750			
0.0243	1553.95	4.1160	4.1160	-0.6908	25.58	-0.04	-0.750			
0.0264	1688.02	4.1130	4.1130	-0.7025	25.57	-0.05	-0.750			
0.0285	1823.70	4.1100	4.1100	-0.7127	25.57	-0.05	-0.750			
0.0307	1962.15	4.1070	4.1071	-0.7197	25.57	-0.05	-0.750			
0.0328	2101.81	4.1040	4.1040	-0.7266	25.57	-0.05	-0.750			
0.0350	2241.55	4.1010	4.1010	-0.7383	25.57	-0.05	-0.750			
0.0372	2383.12	4.0980	4.0980	-0.7411	25.56	-0.06	-0.750			
0.0395	2527.21	4.0950	4.0950	-0.7500	25.56	-0.06	-0.750			
0.0418	2672.92	4.0920	4.0921	-0.7530	25.56	-0.06	-0.750			
0.0440	2818.11	4.0890	4.0890	-0.7570	25.56	-0.06	-0.750			
0.0463	2964.45	4.0860	4.0860	-0.7614	25.56	-0.06	-0.750			
0.0486	3109.79	4.0830	4.0830	-0.7641	25.56	-0.06	-0.750			
0.0509	3255.01	4.0800	4.0800	-0.7668	25.56	-0.06	-0.750			
0.0532	3404.09	4.0770	4.0770	-0.7751	25.56	-0.06	-0.750			
0.0555	3552.98	4.0740	4.0740	-0.7792	25.56	-0.06	-0.750			
0.0579	3704.15	4.0710	4.0710	-0.7863	25.56	-0.06	-0.750			
0.0603	3856.27	4.0680	4.0680	-0.7832	25.56	-0.06	-0.750			
0.0626	4007.66	4.0650	4.0650	-0.7809	25.56	-0.06	-0.750			
0.0650	4157.07	4.0620	4.0620	-0.7786	25.56	-0.06	-0.750			
0.0673	4304.55	4.0590	4.0591	-0.7804	25.56	-0.06	-0.750			
0.0696	4453.62	4.0560	4.0559	-0.7851	25.56	-0.06	-0.750			
0.0719	4604.12	4.0530	4.0530	-0.7874	25.56	-0.06	-0.750			
0.0743	4756.26	4.0500	4.0500	-0.7931	25.56	-0.06	-0.750			
0.0767	4911.11	4.0470	4.0470	-0.8016	25.56	-0.06	-0.750			
0.0791	5065.33	4.0440	4.0439	-0.8010	25.56	-0.06	-0.750			
0.0816	5219.80	4.0410	4.0410	-0.7959	25.56	-0.06	-0.750			
0.0839	5371.52	4.0380	4.0380	-0.7944	25.56	-0.06	-0.750			
0.0863	5524.27	4.0350	4.0351	-0.7899	25.56	-0.06	-0.750			
0.0887	5675.83	4.0320	4.0320	-0.7884	25.56	-0.06	-0.750			
0.0910	5825.56	4.0290	4.0290	-0.7907	25.56	-0.06	-0.750			
0.0934	5976.44	4.0260	4.0260	-0.7958	25.56	-0.06	-0.750			
0.0958	6128.56	4.0230	4.0230	-0.8027	25.56	-0.06	-0.750			
0.0982	6285.76	4.0200	4.0200	-0.8032	25.57	-0.05	-0.750			
0.1006	6440.22	4.0170	4.0170	-0.8061	25.57	-0.05	-0.750			
0.1031	6596.12	4.0140	4.0140	-0.8124	25.57	-0.05	-0.750			
0.1055	6752.38	4.0110	4.0110	-0.8121	25.57	-0.05	-0.750			
0.1079	6906.43	4.0080	4.0079	-0.8208	25.57	-0.05	-0.750			
0.1104	7065.18	4.0050	4.0050	-0.8180	25.57	-0.05	-0.750			
0.1129	7223.54	4.0020	4.0020	-0.8216	25.58	-0.04	-0.750			
0.1154	7382.73	3.9990	3.9990	-0.8250	25.58	-0.04	-0.750			
0.1178	7539.87	3.9960	3.9960	-0.8237	25.58	-0.04	-0.750			
0.1203	7696.92	3.9930	3.9929	-0.8275	25.59	-0.03	-0.750			
0.1228	7856.76	3.9900	3.9899	-0.8262	25.59	-0.03	-0.750			
0.1252	8013.99	3.9870	3.9870	-0.8261	25.59	-0.03	-0.750			
0.1278	8176.06	3.9840	3.9839	-0.8338	25.60	-0.02	-0.750			
0.1302	8335.57	3.9810	3.9811	-0.8342	25.60	-0.02	-0.750			
0.1327	8495.05	3.9780	3.9779	-0.8372	25.61	-0.01	-0.750			
0.1353	8656.10	3.9750	3.9750	-0.8348	25.61	-0.01	-0.750			
0.1377	8815.66	3.9720	3.9720	-0.8330	25.61	-0.01	-0.750			
0.1403	8977.52	3.9690	3.9689	-0.8428	25.62	-0.00	-0.750			
0.1428	9138.67	3.9660	3.9661	-0.8429	25.62	0.00	-0.750			
0.1453	9300.64	3.9630	3.9629	-0.8467	25.62	0.00	-0.750			
0.1479	9464.95	3.9600	3.9599	-0.8430	25.62	0.00	-0.750			
0.1504	9627.16	3.9570	3.9571	-0.8383	25.62	0.00	-0.750			
0.1529	9788.34	3.9540	3.9541	-0.8451	25.62	0.00	-0.750			
0.1555	9949.77	3.9510	3.9510	-0.8428	25.62	0.00	-0.750			
0.1580	10110.38	3.9480	3.9479	-0.8455	25.63	0.01	-0.750			
0.1605	10270.88	3.9450	3.9450	-0.8534	25.63	0.01	-0.750			
0.1631	10435.56	3.9420	3.9421	-0.8661	25.63	0.01	-0.750			
0.1657	10605.86	3.9390	3.9389	-0.8724	25.64	0.02	-0.750			
0.1684	10774.72	3.9360	3.9361	-0.8780	25.64	0.02	-0.750			
0.1710	10943.42	3.9330	3.9330	-0.8758	25.64	0.02	-0.750			
0.1736	11113.21	3.9300	3.9299	-0.8777	25.65	0.03	-0.750			
0.1763	11280.62	3.9270	3.9270	-0.8712	25.65	0.03	-0.750			
0.1788	11445.60	3.9240	3.9240	-0.8705	25.65	0.03	-0.750			
0.1814	11611.34	3.9210	3.9210	-0.8749	25.65	0.03	-0.750			
0.1841	11781.08	3.9180	3.9178	-0.8797	25.65	0.03	-0.750			
0.1867	11949.32	3.9150	3.9150	-0.8806	25.66	0.04	-0.750			
0.1894	12120.10	3.9120	3.9120	-0.8850	25.66	0.04	-0.750			
0.1921	12291.51	3.9090	3.9094	-0.8882	25.66	0.04	-0.750			
0.1947	12463.78	3.9060	3.9060	-0.8856	25.66	0.04	-0.750			
0.1974	12632.00	3.9030	3.9030	-0.8831	25.67	0.05	-0.750			
0.2000	12801.71	3.9000	3.9000	-0.8823	25.67	0.05	-0.750			
0.2026	12969.54	3.8970	3.8970	-0.8882	25.68	0.06	-0.750			
0.2053	13139.55	3.8940	3.8941	-0.8912	25.68	0.06	-0.750			
0.2080	13312.14	3.8910	3.8909	-0.8938	25.68	0.06	-0.750			
0.2107	13484.50	3.8880	3.8880	-0.8946	25.69	0.07	-0.750			
0.2134	13657.32	3.8850	3.8851	-0.8931	25.69	0.07	-0.750			
0.2161	13829.25	3.8820	3.8820	-0.8968	25.69	0.07	-0.750			
0.2187	13999.12	3.8790	3.8789	-0.9007	25.69	0.07	-0.750			
0.2214	14171.56	3.8760	3.8760	-0.9014	25.69	0.07	-0.750			
0.2241	14344.88	3.8730	3.8729	-0.9031	25.70	0.08	-0.750			
0.2269	14520.02	3.8700	3.8700	-0.9059	25.70	0.08	-0.750			
0.2296	14696.21	3.8670	3.8672	-0.9094	25.70	0.08	-0.750			
0.2323	14869.97	3.8640	3.8639	-0.9117	25.70	0.08	-0.750			
0.2351	15044.44	3.8610	3.8611	-0.9063	25.71	0.09	-0.750			
0.2378	15218.25	3.8580	3.8580	-0.9066	25.71	0.09	-0.750			
0.2405	15393.08	3.8550	3.8550	-0.9093	25.72	0.10	-0.750			
0.2432	15567.25	3.8520	3.8520	-0.9102	25.72	0.10	-0.750			
0.2460	15741.23	3.8490	3.8490	-0.9156	25.73	0.11	-0.750			
0.2487	15917.99	3.8460	3.8459	-0.9128	25.74	0.12	-0.750			
0.2515	16093.69	3.8430	3.8430	-0.9117	25.74	0.12	-0.750			
0.2542	16270.53	3.8400	3.8402	-0.9136	25.75	0.13	-0.750			
0.2569	16443.88	3.8370	3.8370	-0.9198	25.75	0.13	-0.750			
0.2597	16622.27	3.8340	3.8339	-0.9163	25.75	0.13	-0.750			
0.2624	16796.80	3.8310	3.8309	-0.9096	25.75	0.13	-0.750			
0.2652	16972.71	3.8280	3.8280	-0.9154	25.75	0.13	-0.750			
0.2679	17147.75	3.8250	3.8251	-0.9158	25.75	0.13	-0.750			
0.2707	17323.07	3.8220	3.8219	-0.9232	25.76	0.14	-0.750			
0.2734	17498.90	3.8190	3.8190	-0.9224	25.76	0.14	-0.750			
0.2762	17676.23	3.8160	3.8159	-0.9171	25.76	0.14	-0.750			
0.2790	17856.12	3.8130	3.8132	-0.9203	25.77	0.15	-0.750			
0.2817	18031.71	3.8100	3.8100	-0.9292	25.77	0.15	-0.750			
0.2845	18208.87	3.8070	3.8069	-0.9299	25.78	0.16	-0.750			
0.2873	18386.34	3.8040	3.8039	-0.9282	25.78	0.16	-0.750			
0.2901	18565.42	3.8010	3.8010	-0.9297	25.79	0.17	-0.750			
0.2929	18747.52	3.7980	3.7981	-0.9385	25.79	0.17	-0.750			
0.2958	18928.76	3.7950	3.7950	-0.9420	25.79	0.17	-0.750			
0.2986	19110.09	3.7920	3.7919	-0.9381	25.79	0.17	-0.750			
0.3014	19286.90	3.7890	3.7890	-0.9306	25.79	0.17	-0.750			
0.3042	19467.34	3.7860	3.7861	-0.9358	25.79	0.17	-0.750			
0.3070	19648.32	3.7830	3.7830	-0.9365	25.80	0.18	-0.750			
0.3098	19827.44	3.7800	3.7800	-0.9337	25.80	0.18	-0.750			
0.3126	20004.75	3.7770	3.7770	-0.9328	25.81	0.19	-0.750			
0.3154	20184.44	3.7740	3.7740	-0.9305	25.82	0.20	-0.750			
0.3182	20364.06	3.7710	3.7710	-0.9339	25.82	0.20	-0.750			
0.3210	20542.71	3.7680	3.7680	-0.9408	25.82	0.20	-0.750			
0.3238	20724.33	3.7650	3.7650	-0.9394	25.83	0.21	-0.750			
0.3267	20905.84	3.7620	3.7619	-0.9422	25.83	0.21	-0.750			
0.3295	21086.56	3.7590	3.7593	-0.9407	25.83	0.21	-0.750			
0.3323	21266.25	3.7560	3.7559	-0.9422	25.83	0.21	-0.750			
0.3351	21447.90	3.7530	3.7530	-0.9453	25.84	0.22	-0.750			
0.3379	21626.95	3.7500	3.7500	-0.9437	25.84	0.22	-0.750			
0.3408	21810.37	3.7470	3.7470	-0.9518	25.85	0.23	-0.750			
0.3436	21993.60	3.7440	3.7440	-0.9567	25.85	0.23	-0.750			
0.3465	22178.40	3.7410	3.7410	-0.9625	25.85	0.23	-0.750			
0.3494	22364.62	3.7380	3.7379	-0.9633	25.86	0.24	-0.750			
0.3523	22549.14	3.7350	3.7350	-0.9645	25.86	0.24	-0.750			
0.3552	22735.32	3.7320	3.7321	-0.9677	25.86	0.24	-0.750			
0.3581	22920.96	3.7290	3.7290	-0.9750	25.86	0.24	-0.750			
0.3610	23106.79	3.7260	3.7260	-0.9852	25.87	0.25	-0.750			
0.3640	23294.03	3.7230	3.7230	-0.9903	25.87	0.25	-0.750			
0.3670	23488.16	3.7200	3.7202	-1.0088	25.87	0.25	-0.750			
0.3701	23683.47	3.7170	3.7170	-1.0210	25.87	0.25	-0.750			
0.3731	23880.13	3.7140	3.7141	-1.0292	25.87	0.25	-0.750			
0.3762	24078.92	3.7110	3.7109	-1.0386	25.87	0.25	-0.750			
0.3793	24277.59	3.7080	3.7082	-1.0559	25.87	0.25	-0.750			
0.3825	24479.71	3.7050	3.7050	-1.0720	25.87	0.25	-0.750			
0.3858	24688.75	3.7020	3.7020	-1.0875	25.87	0.25	-0.750			
0.3890	24898.86	3.6990	3.6989	-1.1064	25.87	0.25	-0.750			
0.3924	25111.36	3.6960	3.6962	-1.1309	25.87	0.25	-0.750			
0.3958	25331.60	3.6930	3.6930	-1.1513	25.87	0.25	-0.750			
0.3993	25554.46	3.6900	3.6899	-1.1737	25.87	0.25	-0.750			
0.4029	25784.14	3.6870	3.6868	-1.1798	25.87	0.25	-0.750			
0.4065	26013.76	3.6840	3.6839	-1.1998	25.87	0.25	-0.750			
0.4101	26245.04	3.6810	3.6811	-1.2222	25.87	0.25	-0.750			
0.4138	26480.41	3.6780	3.6780	-1.2319	25.87	0.25	-0.750			
0.4174	26715.97	3.6750	3.6752	-1.2476	25.87	0.25	-0.750			
0.4212	26955.76	3.6720	3.6721	-1.3059	25.86	0.24	-0.750			
0.4251	27204.74	3.6690	3.6690	-1.3482	25.85	0.23	-0.750			
0.4292	27471.59	3.6660	3.6657	-1.4033	25.84	0.22	-0.750			
0.4336	27753.00	3.6630	3.6630	-1.4376	25.83	0.21	-0.750			
0.4380	28030.17	3.6600	3.6601	-1.4770	25.83	0.21	-0.750			
0.4425	28322.06	3.6570	3.6572	-1.5180	25.82	0.20	-0.750			
0.4471	28614.78	3.6540	3.6538	-1.5368	25.81	0.19	-0.750			
0.4516	28903.67	3.6510	3.6510	-1.5722	25.80	0.18	-0.750			
0.4564	29210.30	3.6480	3.6479	-1.6129	25.80	0.18	-0.750			
0.4614	29532.14	3.6450	3.6450	-1.6532	25.79	0.17	-0.750			
0.4665	29853.11	3.6420	3.6420	-1.6886	25.79	0.17	-0.750			
0.4715	30178.68	3.6390	3.6390	-1.7213	25.78	0.16	-0.750			
0.4768	30513.49	3.6360	3.6360	-1.7545	25.77	0.15	-0.750			
0.4821	30856.06	3.6330	3.6329	-1.7676	25.77	0.15	-0.750	0.413	0.494	
0.4874	31190.95	3.6300	3.6301	-1.8117	25.76	0.14	-0.750			
0.4929	31545.22	3.6270	3.6270	-1.8670	25.75	0.13	-0.750			
0.4986	31909.77	3.6240	3.6240	-1.8985	25.73	0.11	-0.750			
0.5043	32276.86	3.6210	3.6210	-1.9462	25.72	0.10	-0.750			
0.5102	32650.90	3.6180	3.6182	-1.9892	25.72	0.10	-0.750			
0.5163	33041.14	3.6150	3.6150	-2.0298	25.71	0.09	-0.750			
0.5225	33439.88	3.6120	3.6118	-2.0668	25.70	0.08	-0.750			
0.5287	33834.00	3.6090	3.6091	-2.0822	25.69	0.07	-0.750			
0.5350	34242.53	3.6060	3.6061	-2.1187	25.69	0.07	-0.750			
0.5414	34652.40	3.6030	3.6029	-2.1429	25.68	0.06	-0.750			
0.5478	35056.66	3.6000	3.6000	-2.1600	25.67	0.05	-0.750			
0.5544	35479.17	3.5970	3.5972	-2.1941	25.66	0.04	-0.750			
0.5611	35907.75	3.5940	3.5939	-2.2291	25.65	0.03	-0.750			
0.5677	36333.04	3.5910	3.5911	-2.2682	25.65	0.03	-0.750			
0.5746	36772.60	3.5880	3.5881	-2.3041	25.64	0.02	-0.750			
0.5816	37221.92	3.5850	3.5849	-2.3567	25.64	0.02	-0.750			
0.5887	37675.73	3.5820	3.5821	-2.3779	25.63	0.01	-0.750			
0.5959	38137.88	3.5790	3.5790	-2.4103	25.63	0.01	-0.750			
0.6033	38609.98	3.5760	3.5761	-2.4375	25.62	0.00	-0.750			
0.6107	39082.06	3.5730	3.5728	-2.4262	25.62	0.00	-0.750			
0.6178	39541.83	3.5700	3.5700	-2.4382	25.62	0.00	-0.750			
0.6251	40008.86	3.5670	3.5671	-2.4515	25.62	0.00	-0.750			
0.6326	40486.07	3.5640	3.5638	-2.4580	25.61	-0.01	-0.750			
0.6400	40958.85	3.5610	3.5611	-2.4526	25.60	-0.02	-0.750			
0.6474	41431.42	3.5580	3.5581	-2.4579	25.60	-0.02	-0.750			
0.6548	41907.04	3.5550	3.5549	-2.4627	25.61	-0.01	-0.750			
0.6621	42376.75	3.5520	3.5519	-2.4441	25.61	-0.01	-0.750			
0.6694	42843.10	3.5490	3.5489	-2.4200	25.61	-0.01	-0.750			
0.6767	43308.77	3.5460	3.5461	-2.3977	25.61	-0.01	-0.750			
0.6839	43768.81	3.5430	3.5430	-2.3785	25.61	-0.01	-0.750			
0.6910	44221.43	3.5400	3.5400	-2.3303	25.62	-0.00	-0.750			
0.6979	44667.44	3.5370	3.5369	-2.2871	25.63	0.01	-0.750			
0.7048	45108.78	3.5340	3.5340	-2.2353	25.64	0.02	-0.750			
0.7115	45533.03	3.5310	3.5309	-2.1737	25.64	0.02	-0.750			
0.7180	45949.81	3.5280	3.5280	-2.0993	25.64	0.02	-0.750			
0.7241	46344.31	3.5250	3.5251	-2.0300	25.65	0.03	-0.750			
0.7300	46722.71	3.5220	3.5219	-1.9734	25.66	0.04	-0.750			
0.7359	47094.43	3.5190	3.5192	-1.9132	25.68	0.06	-0.750			
0.7415	47453.10	3.5160	3.5163	-1.8623	25.69	0.07	-0.750			
0.7471	47816.71	3.5130	3.5129	-1.7996	25.70	0.08	-0.750			
0.7524	48150.98	3.5100	3.5101	-1.7196	25.72	0.10	-0.750			
0.7575	48479.48	3.5070	3.5069	-1.6654	25.73	0.11	-0.750			
0.7623	48785.56	3.5040	3.5039	-1.5840	25.75	0.13	-0.750			
0.7669	49081.02	3.5010	3.5011	-1.5291	25.76	0.14	-0.750			
0.7714	49367.88	3.4980	3.4979	-1.4770	25.78	0.16	-0.750			
0.7757	49642.40	3.4950	3.4950	-1.4263	25.80	0.18	-0.750			
0.7800	49920.58	3.4920	3.4921	-1.3934	25.81	0.19	-0.750			
0.7841	50184.11	3.4890	3.4890	-1.3433	25.83	0.21	-0.750			
0.7881	50436.28	3.4860	3.4859	-1.2930	25.84	0.22	-0.750			
0.7918	50675.56	3.4830	3.4832	-1.2448	25.85	0.23	-0.750			
0.7955	50911.81	3.4800	3.4799	-1.2021	25.86	0.24	-0.750			
0.7990	51137.57	3.4770	3.4769	-1.1580	25.88	0.26	-0.750			
0.8024	51354.21	3.4740	3.4740	-1.1129	25.89	0.27	-0.750			
0.8057	51565.95	3.4710	3.4710	-1.0860	25.91	0.29	-0.750			
0.8089	51769.78	3.4680	3.4679	-1.0427	25.92	0.30	-0.750			
0.8119	51963.49	3.4650	3.4650	-1.0036	25.93	0.31	-0.750			
0.8148	52149.63	3.4620	3.4620	-0.9788	25.94	0.32	-0.750			
0.8177	52335.64	3.4590	3.4591	-0.9670	25.95	0.33	-0.750			
0.8205	52515.01	3.4560	3.4559	-0.9689	25.96	0.34	-0.750			
0.8234	52697.45	3.4530	3.4530	-0.9885	25.97	0.35	-0.750			
0.8263	52884.80	3.4500	3.4500	-1.0123	25.98	0.36	-0.750			
0.8294	53080.67	3.4470	3.4474	-1.0754	25.99	0.37	-0.750			
0.8327	53289.92	3.4440	3.4439	-1.1287	26.00	0.38	-0.750			
0.8362	53513.85	3.4410	3.4409	-1.1852	26.01	0.39	-0.750			
0.8398	53746.62	3.4380	3.4380	-1.2468	26.01	0.39	-0.750			
0.8438	54001.37	3.4350	3.4350	-1.2861	26.02	0.40	-0.750			
0.8477	54255.65	3.4320	3.4319	-1.2976	26.03	0.41	-0.750			
0.8518	54514.71	3.4290	3.4289	-1.2867	26.04	0.42	-0.750			
0.8556	54760.23	3.4260	3.4261	-1.2528	26.05	0.43	-0.750			
0.8594	55001.14	3.4230	3.4230	-1.2178	26.06	0.44	-0.750			
0.8630	55230.26	3.4200	3.4199	-1.1728	26.06	0.44	-0.750			
0.8663	55445.30	3.4170	3.4171	-1.1196	26.07	0.45	-0.750			
0.8697	55660.00	3.4140	3.4139	-1.0964	26.07	0.45	-0.750			
0.8729	55866.56	3.4110	3.4110	-1.0556	26.08	0.46	-0.750			
0.8760	56066.46	3.4080	3.4079	-1.0150	26.08	0.46	-0.750			
0.8790	56257.12	3.4050	3.4051	-0.9725	26.09	0.47	-0.750			
0.8819	56441.48	3.4020	3.4020	-0.9350	26.10	0.48	-0.750			
0.8846	56617.34	3.3990	3.3990	-0.8929	26.11	0.49	-0.750			
0.8872	56782.48	3.3960	3.3960	-0.8500	26.12	0.50	-0.750			
0.8897	56940.64	3.3930	3.3930	-0.8126	26.12	0.50	-0.750			
0.8921	57093.66	3.3900	3.3902	-0.7849	26.13	0.51	-0.750			
0.8944	57240.55	3.3870	3.3869	-0.7536	26.14	0.52	-0.750			
0.8966	57381.07	3.3840	3.3840	-0.7257	26.15	0.53	-0.750			
0.8987	57518.07	3.3810	3.3810	-0.6971	26.15	0.53	-0.750			
0.9008	57650.97	3.3780	3.3780	-0.6681	26.16	0.54	-0.750			
0.9028	57776.10	3.3750	3.3749	-0.6394	26.16	0.54	-0.750			
0.9046	57894.87	3.3720	3.3722	-0.6115	26.17	0.55	-0.750			
0.9064	58008.44	3.3690	3.3689	-0.5857	26.18	0.56	-0.750			
0.9081	58118.06	3.3660	3.3659	-0.5623	26.19	0.57	-0.750			
0.9097	58223.66	3.3630	3.3630	-0.5403	26.20	0.58	-0.750			
0.9113	58326.16	3.3600	3.3600	-0.5196	26.20	0.58	-0.750			
0.9129	58423.94	3.3570	3.3570	-0.4968	26.21	0.59	-0.750			
0.9143	58515.92	3.3540	3.3540	-0.4739	26.22	0.60	-0.750			
0.9157	58605.08	3.3510	3.3509	-0.4531	26.22	0.60	-0.750			
0.9170	58688.90	3.3480	3.3481	-0.4323	26.23	0.61	-0.750			
0.9183	58770.10	3.3450	3.3450	-0.4143	26.24	0.62	-0.750			
0.9195	58847.93	3.3420	3.3421	-0.3976	26.24	0.62	-0.750			
0.9207	58922.64	3.3390	3.3389	-0.3820	26.25	0.63	-0.750			
0.9218	58994.35	3.3360	3.3361	-0.3638	26.25	0.63	-0.750			
0.9228	59062.37	3.3330	3.3330	-0.3477	26.25	0.63	-0.750			
0.9239	59127.83	3.3300	3.3300	-0.3328	26.26	0.64	-0.750			
0.9248	59189.81	3.3270	3.3270	-0.3172	26.26	0.64	-0.750			
0.9258	59248.18	3.3240	3.3240	-0.3032	26.27	0.65	-0.750			
0.9266	59304.77	3.3210	3.3210	-0.2905	26.27	0.65	-0.750			
0.9275	59359.47	3.3180	3.3180	-0.2784	26.27	0.65	-0.750			
0.9283	59412.30	3.3150	3.3149	-0.2682	26.28	0.66	-0.750			
0.9291	59462.27	3.3120	3.3121	-0.2565	26.28	0.66	-0.750			
0.9299	59510.52	3.3090	3.3091	-0.2469	26.28	0.66	-0.750			
0.9306	59556.66	3.3060	3.3060	-0.2361	26.29	0.67	-0.750			
0.9313	59600.91	3.3030	3.3029	-0.2268	26.29	0.67	-0.750			
0.9319	59642.83	3.3000	3.3000	-0.2175	26.30	0.68	-0.750			
0.9326	59683.67	3.2970	3.2971	-0.2107	26.30	0.68	-0.750			
0.9332	59723.52	3.2940	3.2940	-0.2040	26.31	0.69	-0.750			
0.9338	59761.94	3.2910	3.2909	-0.1977	26.31	0.69	-0.750			
0.9344	59799.12	3.2880	3.2879	-0.1904	26.32	0.70	-0.750			
0.9349	59834.89	3.2850	3.2851	-0.1843	26.32	0.70	-0.750			
0.9355	59869.70	3.2820	3.2820	-0.1784	26.32	0.70	-0.750			
0.9360	59903.42	3.2790	3.2791	-0.1735	26.33	0.71	-0.750			
0.9365	59936.03	3.2760	3.2759	-0.1679	26.33	0.71	-0.750			
0.9370	59967.48	3.2730	3.2730	-0.1624	26.33	0.71	-0.750			
0.9375	59998.24	3.2700	3.2700	-0.1579	26.34	0.72	-0.750			
0.9379	60027.94	3.2670	3.2670	-0.1544	26.34	0.72	-0.750			
0.9384	60057.29	3.2640	3.2640	-0.1509	26.34	0.72	-0.750			
0.9388	60085.77	3.2610	3.2610	-0.1466	26.35	0.73	-0.750			
0.9393	60113.58	3.2580	3.2580	-0.1430	26.35	0.73	-0.750			
0.9397	60140.56	3.2550	3.2550	-0.1398	26.35	0.73	-0.750			
0.9401	60167.19	3.2520	3.2521	-0.1369	26.36	0.74	-0.750			
0.9405	60193.10	3.2490	3.2489	-0.1338	26.36	0.74	-0.750			
0.9409	60218.48	3.2460	3.2460	-0.1306	26.36	0.74	-0.750			
0.9413	60243.02	3.2430	3.2430	-0.1275	26.37	0.75	-0.750			
0.9417	60267.26	3.2400	3.2399	-0.1249	26.37	0.75	-0.750			
0.9420	60290.98	3.2370	3.2370	-0.1226	26.37	0.75	-0.750			
0.9424	60314.27	3.2340	3.2340	-0.1201	26.37	0.75	-0.750			
0.9428	60336.85	3.2310	3.2310	-0.1176	26.38	0.76	-0.750			
0.9431	60359.16	3.2280	3.2280	-0.1154	26.38	0.76	-0.750			
0.9435	60381.09	3.2250	3.2250	-0.1136	26.38	0.76	-0.750			
0.9438	60402.67	3.2220	3.2220	-0.1116	26.39	0.77	-0.750			
0.9441	60423.98	3.2190	3.2190	-0.1095	26.39	0.77	-0.750			
0.9445	60444.88	3.2160	3.2160	-0.1075	26.39	0.77	-0.750			
0.9448	60465.26	3.2130	3.2130	-0.1057	26.40	0.78	-0.750			
0.9451	60485.33	3.2100	3.2102	-0.1037	26.40	0.78	-0.750			
0.9454	60504.94	3.2070	3.2071	-0.1024	26.40	0.78	-0.750			
0.9457	60524.30	3.2040	3.2039	-0.1007	26.41	0.79	-0.750			
0.9460	60543.55	3.2010	3.2010	-0.0993	26.41	0.79	-0.750			
0.9463	60562.34	3.1980	3.1980	-0.0978	26.41	0.79	-0.750			
0.9466	60581.01	3.1950	3.1950	-0.0965	26.41	0.79	-0.750			
0.9469	60599.53	3.1920	3.1920	-0.0954	26.42	0.80	-0.750			
0.9472	60617.67	3.1890	3.1890	-0.0942	26.42	0.80	-0.750			
0.9474	60635.62	3.1860	3.1860	-0.0929	26.42	0.80	-0.750			
0.9477	60653.28	3.1830	3.1829	-0.0919	26.42	0.80	-0.750			
0.9480	60670.65	3.1800	3.1800	-0.0906	26.43	0.81	-0.750			
0.9483	60688.12	3.1770	3.1771	-0.0892	26.43	0.81	-0.750			
0.9485	60705.29	3.1740	3.1739	-0.0881	26.43	0.81	-0.750			
0.9488	60721.97	3.1710	3.1710	-0.0870	26.43	0.81	-0.750			
0.9490	60738.55	3.1680	3.1682	-0.0857	26.44	0.82	-0.750			
0.9493	60754.89	3.1650	3.1650	-0.0845	26.44	0.82	-0.750			
0.9495	60770.82	3.1620	3.1618	-0.0836	26.44	0.82	-0.750			
0.9498	60786.79	3.1590	3.1590	-0.0828	26.44	0.82	-0.750			
0.9500	60802.58	3.1560	3.1561	-0.0815	26.45	0.83	-0.750			
0.9503	60818.16	3.1530	3.1529	-0.0807	26.45	0.83	-0.750			
0.9505	60833.85	3.1500	3.1499	-0.0801	26.45	0.83	-0.750			
0.9508	60848.93	3.1470	3.1472	-0.0796	26.45	0.83	-0.750			
0.9510	60864.00	3.1440	3.1440	-0.0786	26.45	0.83	-0.750			
0.9512	60879.03	3.1410	3.1409	-0.0779	26.46	0.84	-0.750			
0.9515	60894.00	3.1380	3.1380	-0.0769	26.46	0.84	-0.750			
0.9517	60908.64	3.1350	3.1350	-0.0761	26.46	0.84	-0.750			
0.9519	60923.19	3.1320	3.1321	-0.0753	26.46	0.84	-0.750			
0.9521	60937.58	3.1290	3.1291	-0.0746	26.46	0.84	-0.750			
0.9524	60952.03	3.1260	3.1258	-0.0739	26.47	0.85	-0.750			
0.9526	60966.02	3.1230	3.1231	-0.0733	26.47	0.85	-0.750			
0.9528	60979.80	3.1200	3.1200	-0.0721	26.47	0.85	-0.750			
0.9530	60993.60	3.1170	3.1171	-0.0717	26.48	0.86	-0.750			
0.9532	61007.30	3.1140	3.1139	-0.0713	26.48	0.86	-0.750			
0.9535	61020.95	3.1110	3.1111	-0.0708	26.48	0.86	-0.750			
0.9537	61034.60	3.1080	3.1081	-0.0701	26.49	0.87	-0.750			
0.9539	61048.01	3.1050	3.1049	-0.0695	26.49	0.87	-0.750			
0.9541	61061.36	3.1020	3.1019	-0.0689	26.49	0.87	-0.750			
0.9543	61074.48	3.0990	3.0992	-0.0684	26.50	0.88	-0.750			
0.9545	61087.57	3.0960	3.0960	-0.0678	26.50	0.88	-0.750			
0.9547	61100.53	3.0930	3.0929	-0.0672	26.51	0.89	-0.750			
0.9549	61113.32	3.0900	3.0900	-0.0668	26.51	0.89	-0.750			
0.9551	61125.94	3.0870	3.0870	-0.0662	26.51	0.89	-0.750			
0.9553	61138.72	3.0840	3.0838	-0.0656	26.52	0.90	-0.750			
0.9555	61151.28	3.0810	3.0811	-0.0652	26.52	0.90	-0.750			
0.9557	61163.87	3.0780	3.0780	-0.0648	26.52	0.90	-0.750			
0.9559	61176.16	3.0750	3.0750	-0.0645	26.53	0.91	-0.750			
0.9561	61188.45	3.0720	3.0721	-0.0639	26.53	0.91	-0.750			
0.9563	61200.68	3.0690	3.0690	-0.0635	26.53	0.91	-0.750			
0.9565	61212.85	3.0660	3.0659	-0.0632	26.54	0.92	-0.750			
0.9566	61224.93	3.0630	3.0630	-0.0625	26.54	0.92	-0.750			
0.9568	61236.90	3.0600	3.0600	-0.0621	26.54	0.92	-0.750			
0.9570	61248.79	3.0570	3.0571	-0.0617	26.55	0.93	-0.750			
0.9572	61260.67	3.0540	3.0540	-0.0615	26.55	0.93	-0.750			
0.9574	61272.42	3.0510	3.0510	-0.0610	26.55	0.93	-0.750			
0.9576	61284.08	3.0480	3.0479	-0.0605	26.56	0.94	-0.750			
0.9577	61295.55	3.0450	3.0451	-0.0599	26.56	0.94	-0.750			
0.9579	61307.01	3.0420	3.0420	-0.0595	26.56	0.94	-0.750			
0.9581	61318.40	3.0390	3.0390	-0.0591	26.57	0.95	-0.750			
0.9583	61329.72	3.0360	3.0361	-0.0588	26.57	0.95	-0.750			
0.9585	61340.99	3.0330	3.0329	-0.0584	26.57	0.95	-0.750			
0.9586	61352.17	3.0300	3.0301	-0.0581	26.58	0.96	-0.750			
0.9588	61363.28	3.0270	3.0270	-0.0577	26.58	0.96	-0.750			
0.9590	61374.35	3.0240	3.0240	-0.0572	26.58	0.96	-0.750			
0.9591	61385.29	3.0210	3.0208	-0.0568	26.59	0.97	-0.750			
0.9593	61396.14	3.0180	3.0181	-0.0563	26.59	0.97	-0.750			
0.9595	61406.99	3.0150	3.0149	-0.0559	26.59	0.97	-0.750			
0.9597	61417.67	3.0120	3.0121	-0.0553	26.60	0.98	-0.750			
0.9598	61428.24	3.0090	3.0090	-0.0548	26.60	0.98	-0.751			
0.9600	61438.69	3.0060	3.0060	-0.0542	26.60	0.98	-0.751			
