Ah_balance (normalized)	Ah_balance (mAh)	Voltage - fit (V)	Voltage -  interpolate (V)	dQ/dV (1/V)	Temperature (°C)	Temperature - diff (°C)	Current (C)	R_DC 0ms (mOhm)	R_DC 50ms (mOhm)	R_DC 50 ms PEC (mOhm)
0.0508	3252.29	4.1970	4.1970	0.7534	26.17	0.22	0.750			
0.0531	3397.16	4.1940	4.1941	0.7641	26.17	0.22	0.750			
0.0554	3547.14	4.1910	4.1910	0.7721	26.17	0.22	0.750			
0.0578	3696.02	4.1880	4.1880	0.7765	26.16	0.21	0.750			
0.0601	3847.66	4.1850	4.1850	0.7798	26.16	0.21	0.750			
0.0624	3996.43	4.1820	4.1816	0.7797	26.16	0.21	0.750			
0.0648	4147.71	4.1790	4.1790	0.7781	26.16	0.21	0.750			
0.0672	4297.63	4.1760	4.1761	0.7761	26.16	0.21	0.750			
0.0695	4445.88	4.1730	4.1730	0.7744	26.17	0.22	0.750			
0.0718	4595.75	4.1700	4.1701	0.7755	26.17	0.22	0.750			
0.0741	4741.92	4.1670	4.1668	0.7764	26.17	0.22	0.750			
0.0764	4890.95	4.1640	4.1641	0.7788	26.17	0.22	0.750			
0.0788	5042.89	4.1610	4.1609	0.7765	26.17	0.22	0.750			
0.0811	5191.62	4.1580	4.1582	0.7826	26.17	0.22	0.750			
0.0835	5342.09	4.1550	4.1550	0.7864	26.17	0.22	0.750			
0.0858	5492.87	4.1520	4.1520	0.7881	26.17	0.22	0.750			
0.0882	5644.49	4.1490	4.1489	0.7865	26.17	0.22	0.750			
0.0905	5794.86	4.1460	4.1460	0.7874	26.17	0.22	0.750			
0.0929	5948.22	4.1430	4.1431	0.7880	26.17	0.22	0.750			
0.0953	6097.92	4.1400	4.1400	0.7927	26.17	0.22	0.750			
0.0976	6247.88	4.1370	4.1371	0.7927	26.17	0.22	0.750			
0.1000	6402.11	4.1340	4.1338	0.7994	26.17	0.22	0.750			
0.1024	6556.21	4.1310	4.1310	0.8053	26.17	0.22	0.750			
0.1049	6713.27	4.1280	4.1281	0.8025	26.17	0.22	0.750			
0.1073	6868.86	4.1250	4.1250	0.8028	26.18	0.23	0.750			
0.1097	7021.49	4.1220	4.1220	0.8013	26.18	0.23	0.750			
0.1121	7174.33	4.1190	4.1189	0.8029	26.18	0.23	0.750			
0.1145	7326.61	4.1160	4.1160	0.8052	26.18	0.23	0.750			
0.1169	7483.45	4.1130	4.1130	0.8033	26.18	0.23	0.750			
0.1194	7638.83	4.1100	4.1100	0.8068	26.17	0.22	0.750			
0.1218	7794.14	4.1070	4.1070	0.8111	26.17	0.22	0.750			
0.1242	7948.69	4.1040	4.1040	0.8079	26.17	0.22	0.750			
0.1266	8103.07	4.1010	4.1010	0.8112	26.17	0.22	0.750			
0.1290	8258.92	4.0980	4.0980	0.8109	26.17	0.22	0.750			
0.1315	8415.21	4.0950	4.0950	0.8163	26.18	0.23	0.750			
0.1340	8574.28	4.0920	4.0920	0.8227	26.18	0.23	0.750			
0.1364	8729.99	4.0890	4.0890	0.8230	26.18	0.23	0.750			
0.1389	8888.18	4.0860	4.0860	0.8275	26.18	0.23	0.750			
0.1414	9048.40	4.0830	4.0830	0.8303	26.18	0.23	0.750			
0.1439	9207.18	4.0800	4.0800	0.8330	26.19	0.24	0.750			
0.1464	9368.79	4.0770	4.0770	0.8375	26.19	0.24	0.750			
0.1489	9529.15	4.0740	4.0740	0.8385	26.19	0.24	0.750			
0.1514	9690.58	4.0710	4.0710	0.8407	26.19	0.24	0.750			
0.1540	9852.90	4.0680	4.0680	0.8360	26.20	0.25	0.750			
0.1565	10013.35	4.0650	4.0650	0.8424	26.20	0.25	0.750			
0.1590	10174.68	4.0620	4.0621	0.8506	26.20	0.25	0.750			
0.1615	10336.75	4.0590	4.0589	0.8524	26.21	0.26	0.750			
0.1641	10502.23	4.0560	4.0560	0.8573	26.21	0.26	0.750			
0.1667	10670.07	4.0530	4.0531	0.8509	26.21	0.26	0.750			
0.1693	10832.48	4.0500	4.0501	0.8553	26.21	0.26	0.750			
0.1718	10996.44	4.0470	4.0471	0.8607	26.21	0.26	0.750			
0.1744	11159.27	4.0440	4.0438	0.8600	26.21	0.26	0.750			
0.1769	11324.17	4.0410	4.0410	0.8671	26.21	0.26	0.750			
0.1796	11491.27	4.0380	4.0381	0.8708	26.21	0.26	0.750			
0.1822	11660.20	4.0350	4.0351	0.8765	26.21	0.26	0.750			
0.1849	11831.05	4.0320	4.0320	0.8763	26.21	0.26	0.750			
0.1875	11998.41	4.0290	4.0285	0.8795	26.21	0.26	0.750			
0.1901	12166.99	4.0260	4.0261	0.8777	26.21	0.26	0.750			
0.1928	12336.54	4.0230	4.0230	0.8824	26.21	0.26	0.750			
0.1954	12506.56	4.0200	4.0200	0.8859	26.21	0.26	0.750			
0.1981	12677.71	4.0170	4.0170	0.8898	26.21	0.26	0.750			
0.2007	12847.39	4.0140	4.0141	0.8899	26.21	0.26	0.750			
0.2034	13020.30	4.0110	4.0109	0.8821	26.22	0.27	0.750			
0.2061	13187.80	4.0080	4.0081	0.8839	26.22	0.27	0.750			
0.2087	13357.70	4.0050	4.0051	0.8880	26.22	0.27	0.750			
0.2114	13526.81	4.0020	4.0020	0.8916	26.23	0.28	0.750			
0.2140	13698.06	3.9990	3.9990	0.8979	26.23	0.28	0.750			
0.2167	13870.86	3.9960	3.9960	0.8981	26.23	0.28	0.750			
0.2194	14044.16	3.9930	3.9931	0.9071	26.23	0.28	0.750			
0.2222	14222.16	3.9900	3.9900	0.9143	26.23	0.28	0.750			
0.2249	14394.65	3.9870	3.9868	0.9136	26.23	0.28	0.750			
0.2277	14571.82	3.9840	3.9840	0.9102	26.23	0.28	0.750			
0.2304	14745.48	3.9810	3.9811	0.9149	26.24	0.29	0.750			
0.2331	14921.15	3.9780	3.9780	0.9231	26.24	0.29	0.750			
0.2359	15098.94	3.9750	3.9751	0.9244	26.25	0.30	0.750			
0.2387	15276.58	3.9720	3.9719	0.9272	26.25	0.30	0.750			
0.2415	15455.80	3.9690	3.9691	0.9291	26.25	0.30	0.750			
0.2443	15634.00	3.9660	3.9661	0.9342	26.25	0.30	0.750			
0.2471	15815.23	3.9630	3.9630	0.9396	26.25	0.30	0.750			
0.2499	15995.99	3.9600	3.9598	0.9393	26.25	0.30	0.750			
0.2528	16177.98	3.9570	3.9570	0.9286	26.25	0.30	0.750			
0.2556	16355.96	3.9540	3.9541	0.9338	26.25	0.30	0.750			
0.2584	16534.82	3.9510	3.9511	0.9391	26.26	0.31	0.750			
0.2611	16713.31	3.9480	3.9481	0.9362	26.26	0.31	0.750			
0.2640	16894.03	3.9450	3.9450	0.9360	26.26	0.31	0.750			
0.2668	17074.10	3.9420	3.9421	0.9430	26.26	0.31	0.750			
0.2696	17256.28	3.9390	3.9391	0.9488	26.27	0.32	0.750			
0.2725	17442.05	3.9360	3.9360	0.9573	26.27	0.32	0.750			
0.2754	17622.64	3.9330	3.9329	0.9475	26.27	0.32	0.750			
0.2782	17805.93	3.9300	3.9300	0.9434	26.27	0.32	0.750			
0.2810	17986.54	3.9270	3.9270	0.9528	26.27	0.32	0.750			
0.2839	18169.41	3.9240	3.9241	0.9580	26.27	0.32	0.750			
0.2868	18352.00	3.9210	3.9209	0.9620	26.27	0.32	0.750			
0.2897	18538.48	3.9180	3.9180	0.9693	26.27	0.32	0.750			
0.2926	18724.31	3.9150	3.9151	0.9845	26.28	0.33	0.750			
0.2956	18919.53	3.9120	3.9120	0.9846	26.28	0.33	0.750			
0.2986	19107.63	3.9090	3.9090	0.9802	26.29	0.34	0.750			
0.3015	19297.96	3.9060	3.9061	0.9798	26.29	0.34	0.750			
0.3044	19484.60	3.9030	3.9031	0.9800	26.29	0.34	0.750			
0.3074	19672.37	3.9000	3.8998	0.9763	26.29	0.34	0.750			
0.3103	19858.93	3.8970	3.8972	0.9738	26.29	0.34	0.750			
0.3132	20043.88	3.8940	3.8939	0.9668	26.29	0.34	0.750			
0.3161	20231.42	3.8910	3.8911	0.9743	26.29	0.34	0.750			
0.3190	20414.07	3.8880	3.8880	0.9747	26.29	0.34	0.750			
0.3219	20601.80	3.8850	3.8851	0.9859	26.29	0.34	0.750			
0.3249	20792.64	3.8820	3.8815	0.9959	26.29	0.34	0.750			
0.3279	20985.99	3.8790	3.8791	1.0083	26.29	0.34	0.750			
0.3310	21181.40	3.8760	3.8761	1.0189	26.29	0.34	0.750			
0.3341	21380.55	3.8730	3.8729	1.0316	26.29	0.34	0.750			
0.3372	21581.23	3.8700	3.8698	1.0364	26.29	0.34	0.750			
0.3402	21775.51	3.8670	3.8670	1.0312	26.29	0.34	0.750			
0.3433	21974.21	3.8640	3.8641	1.0396	26.28	0.33	0.750			
0.3465	22175.65	3.8610	3.8610	1.0439	26.28	0.33	0.750			
0.3496	22375.96	3.8580	3.8577	1.0476	26.27	0.32	0.750			
0.3528	22577.04	3.8550	3.8550	1.0414	26.27	0.32	0.750			
0.3558	22773.12	3.8520	3.8521	1.0557	26.27	0.32	0.750			
0.3590	22977.94	3.8490	3.8490	1.0681	26.27	0.32	0.750			
0.3623	23184.55	3.8460	3.8456	1.0758	26.27	0.32	0.750			
0.3655	23390.24	3.8430	3.8431	1.0884	26.27	0.32	0.750			
0.3688	23601.83	3.8400	3.8402	1.1063	26.26	0.31	0.750			
0.3721	23817.50	3.8370	3.8370	1.1239	26.25	0.30	0.750			
0.3756	24035.47	3.8340	3.8339	1.1194	26.25	0.30	0.750			
0.3789	24249.05	3.8310	3.8310	1.1426	26.24	0.29	0.750			
0.3824	24471.04	3.8280	3.8280	1.1668	26.24	0.29	0.750			
0.3859	24696.42	3.8250	3.8250	1.1871	26.23	0.28	0.750			
0.3895	24926.14	3.8220	3.8221	1.1919	26.22	0.27	0.750			
0.3931	25157.05	3.8190	3.8191	1.2127	26.21	0.26	0.750			
0.3967	25391.54	3.8160	3.8161	1.2299	26.20	0.25	0.750			
0.4005	25630.16	3.8130	3.8130	1.2428	26.19	0.24	0.750			
0.4042	25866.66	3.8100	3.8101	1.2486	26.18	0.23	0.750			
0.4079	26108.78	3.8070	3.8071	1.2631	26.18	0.23	0.750			
0.4118	26355.33	3.8040	3.8038	1.2750	26.17	0.22	0.750			
0.4156	26599.13	3.8010	3.8011	1.2868	26.16	0.21	0.750			
0.4195	26847.05	3.7980	3.7980	1.3004	26.15	0.20	0.750			
0.4235	27104.54	3.7950	3.7948	1.2969	26.14	0.19	0.750			
0.4274	27351.64	3.7920	3.7920	1.3115	26.13	0.18	0.750			
0.4313	27601.33	3.7890	3.7892	1.3190	26.12	0.17	0.750			
0.4353	27857.06	3.7860	3.7860	1.3205	26.12	0.17	0.750			
0.4392	28109.35	3.7830	3.7830	1.3351	26.10	0.15	0.750			
0.4432	28364.72	3.7800	3.7802	1.3451	26.09	0.14	0.750			
0.4473	28627.87	3.7770	3.7770	1.3511	26.08	0.13	0.750			
0.4514	28888.27	3.7740	3.7740	1.3711	26.07	0.12	0.750			
0.4555	29151.43	3.7710	3.7711	1.3652	26.05	0.10	0.750			
0.4595	29410.95	3.7680	3.7681	1.4029	26.04	0.09	0.750			
0.4638	29684.56	3.7650	3.7650	1.4341	26.03	0.08	0.750			
0.4681	29959.01	3.7620	3.7619	1.4746	26.01	0.06	0.750			
0.4727	30250.27	3.7590	3.7592	1.5058	26.00	0.05	0.750	0.317	0.406	
0.4773	30548.27	3.7560	3.7559	1.5232	25.99	0.04	0.750			
0.4819	30842.41	3.7530	3.7533	1.5456	25.98	0.03	0.750			
0.4866	31142.44	3.7500	3.7500	1.5748	25.97	0.02	0.750			
0.4912	31438.25	3.7470	3.7471	1.5942	25.96	0.01	0.750			
0.4960	31744.34	3.7440	3.7440	1.6388	25.94	-0.01	0.750			
0.5009	32059.92	3.7410	3.7409	1.6772	25.93	-0.02	0.750			
0.5061	32390.13	3.7380	3.7378	1.7273	25.91	-0.04	0.750			
0.5115	32735.27	3.7350	3.7349	1.7877	25.89	-0.06	0.750			
0.5168	33077.53	3.7320	3.7321	1.8291	25.88	-0.07	0.750			
0.5224	33435.66	3.7290	3.7291	1.8722	25.86	-0.09	0.750			
0.5281	33799.97	3.7260	3.7262	1.9157	25.84	-0.11	0.750			
0.5339	34172.61	3.7230	3.7232	1.9704	25.82	-0.13	0.750			
0.5399	34555.20	3.7200	3.7202	2.0185	25.80	-0.15	0.750			
0.5460	34944.88	3.7170	3.7169	2.0808	25.78	-0.17	0.750			
0.5523	35347.67	3.7140	3.7140	2.1464	25.76	-0.19	0.750			
0.5588	35761.34	3.7110	3.7111	2.2151	25.74	-0.21	0.750			
0.5656	36195.87	3.7080	3.7080	2.2733	25.72	-0.23	0.750			
0.5724	36636.34	3.7050	3.7050	2.3624	25.71	-0.24	0.750			
0.5797	37103.47	3.7020	3.7020	2.4216	25.68	-0.27	0.750			
0.5872	37577.96	3.6990	3.6988	2.4954	25.66	-0.29	0.750			
0.5947	38061.48	3.6960	3.6960	2.5426	25.65	-0.30	0.750			
0.6024	38555.59	3.6930	3.6927	2.6017	25.64	-0.31	0.750			
0.6103	39060.11	3.6900	3.6902	2.6563	25.62	-0.33	0.750			
0.6182	39565.08	3.6870	3.6871	2.7650	25.61	-0.34	0.750			
0.6267	40111.76	3.6840	3.6840	2.8784	25.59	-0.36	0.750			
0.6355	40670.60	3.6810	3.6809	2.9799	25.57	-0.38	0.750			
0.6447	41262.33	3.6780	3.6781	3.0947	25.55	-0.40	0.750			
0.6541	41862.04	3.6750	3.6750	3.1660	25.54	-0.41	0.750			
0.6637	42475.02	3.6720	3.6720	3.2782	25.54	-0.41	0.750			
0.6737	43118.66	3.6690	3.6688	3.3600	25.54	-0.41	0.750			
0.6842	43788.25	3.6660	3.6662	3.3459	25.53	-0.42	0.750			
0.6944	44438.48	3.6630	3.6630	3.2291	25.52	-0.43	0.750			
0.7038	45045.54	3.6600	3.6602	2.9372	25.52	-0.43	0.750			
0.7122	45583.67	3.6570	3.6572	2.6683	25.53	-0.42	0.750			
0.7196	46051.79	3.6540	3.6540	2.3475	25.54	-0.41	0.750			
0.7261	46468.97	3.6510	3.6512	2.0909	25.54	-0.41	0.750			
0.7318	46836.89	3.6480	3.6481	1.8899	25.55	-0.40	0.750			
0.7370	47165.19	3.6450	3.6449	1.7069	25.56	-0.39	0.750			
0.7418	47476.06	3.6420	3.6422	1.5723	25.57	-0.38	0.750			
0.7463	47760.85	3.6390	3.6390	1.4616	25.57	-0.38	0.750			
0.7505	48032.45	3.6360	3.6359	1.3561	25.58	-0.37	0.750			
0.7542	48271.09	3.6330	3.6331	1.2857	25.58	-0.37	0.750			
0.7579	48503.37	3.6300	3.6301	1.2313	25.58	-0.37	0.750			
0.7614	48731.60	3.6270	3.6268	1.2107	25.58	-0.37	0.750			
0.7650	48958.48	3.6240	3.6240	1.2081	25.58	-0.37	0.750			
0.7685	49186.82	3.6210	3.6212	1.2166	25.59	-0.36	0.750			
0.7722	49422.46	3.6180	3.6181	1.2308	25.60	-0.35	0.750			
0.7760	49664.53	3.6150	3.6150	1.2314	25.60	-0.35	0.750			
0.7797	49902.36	3.6120	3.6120	1.2332	25.60	-0.35	0.750			
0.7835	50142.34	3.6090	3.6091	1.2289	25.61	-0.34	0.750			
0.7872	50379.69	3.6060	3.6059	1.2037	25.61	-0.34	0.750			
0.7907	50607.85	3.6030	3.6030	1.1840	25.61	-0.34	0.750			
0.7942	50830.29	3.6000	3.6001	1.1808	25.62	-0.33	0.750			
0.7977	51052.99	3.5970	3.5970	1.1790	25.62	-0.33	0.750			
0.8012	51276.55	3.5940	3.5940	1.1830	25.62	-0.33	0.750			
0.8047	51500.41	3.5910	3.5911	1.2149	25.63	-0.32	0.750			
0.8083	51733.70	3.5880	3.5881	1.2543	25.63	-0.32	0.750			
0.8122	51979.93	3.5850	3.5846	1.2905	25.64	-0.31	0.750			
0.8161	52232.19	3.5820	3.5821	1.3242	25.64	-0.31	0.750			
0.8202	52490.80	3.5790	3.5791	1.3582	25.64	-0.31	0.750			
0.8243	52757.99	3.5760	3.5760	1.3959	25.64	-0.31	0.750			
0.8285	53023.00	3.5730	3.5730	1.4264	25.64	-0.31	0.750			
0.8329	53304.58	3.5700	3.5700	1.4557	25.64	-0.31	0.750			
0.8373	53588.31	3.5670	3.5668	1.4807	25.64	-0.31	0.750			
0.8418	53875.11	3.5640	3.5640	1.5116	25.65	-0.30	0.750			
0.8464	54167.82	3.5610	3.5613	1.5377	25.65	-0.30	0.750			
0.8510	54467.14	3.5580	3.5575	1.5552	25.66	-0.29	0.750			
0.8557	54763.01	3.5550	3.5550	1.5746	25.66	-0.29	0.750			
0.8604	55065.60	3.5520	3.5522	1.6033	25.67	-0.28	0.750			
0.8653	55380.58	3.5490	3.5491	1.6486	25.67	-0.28	0.750			
0.8703	55701.99	3.5460	3.5458	1.6582	25.68	-0.27	0.750			
0.8754	56028.56	3.5430	3.5433	1.6869	25.68	-0.27	0.750			
0.8805	56353.47	3.5400	3.5399	1.7157	25.69	-0.26	0.750			
0.8856	56677.55	3.5370	3.5372	1.7627	25.70	-0.25	0.750			
0.8911	57027.79	3.5340	3.5342	1.7803	25.71	-0.24	0.750			
0.8969	57400.03	3.5310	3.5306	1.6889	25.74	-0.21	0.750			
0.9021	57732.92	3.5280	3.5282	1.5204	25.76	-0.19	0.750			
0.9069	58038.43	3.5250	3.5255	1.3250	25.77	-0.18	0.750			
0.9106	58277.42	3.5220	3.5222	1.0766	25.78	-0.17	0.750			
0.9130	58434.89	3.5190	3.5187	0.7831	25.79	-0.16	0.750			
0.9146	58534.14	3.5160	3.5156	0.5841	25.80	-0.15	0.750			
0.9158	58609.82	3.5130	3.5128	0.4486	25.81	-0.14	0.750			
0.9169	58680.55	3.5100	3.5098	0.3909	25.81	-0.14	0.750			
0.9179	58746.31	3.5070	3.5069	0.3531	25.82	-0.13	0.750			
0.9189	58808.36	3.5040	3.5040	0.3294	25.82	-0.13	0.750			
0.9198	58868.86	3.5010	3.5009	0.3133	25.83	-0.12	0.750			
0.9207	58927.02	3.4980	3.4980	0.3018	25.83	-0.12	0.750			
0.9216	58983.62	3.4950	3.4949	0.2909	25.83	-0.12	0.750			
0.9225	59037.62	3.4920	3.4920	0.2840	25.84	-0.11	0.750			
0.9233	59091.72	3.4890	3.4890	0.2784	25.84	-0.11	0.750			
0.9241	59143.78	3.4860	3.4860	0.2709	25.85	-0.10	0.750			
0.9249	59195.80	3.4830	3.4826	0.2670	25.85	-0.10	0.750			
0.9257	59246.57	3.4800	3.4801	0.2609	25.86	-0.09	0.750			
0.9265	59296.20	3.4770	3.4771	0.2557	25.86	-0.09	0.750			
0.9273	59344.85	3.4740	3.4740	0.2509	25.87	-0.08	0.750			
0.9280	59392.40	3.4710	3.4709	0.2463	25.87	-0.08	0.750			
0.9287	59438.32	3.4680	3.4679	0.2402	25.88	-0.07	0.750			
0.9294	59484.21	3.4650	3.4650	0.2369	25.89	-0.06	0.750			
0.9301	59529.46	3.4620	3.4620	0.2320	25.89	-0.06	0.750			
0.9308	59573.59	3.4590	3.4591	0.2276	25.90	-0.05	0.750			
0.9315	59617.19	3.4560	3.4559	0.2235	25.90	-0.05	0.750			
0.9322	59659.54	3.4530	3.4531	0.2184	25.91	-0.04	0.750			
0.9328	59700.70	3.4500	3.4500	0.2145	25.91	-0.04	0.750			
0.9335	59741.14	3.4470	3.4470	0.2109	25.92	-0.03	0.750			
0.9341	59781.04	3.4440	3.4440	0.2076	25.92	-0.03	0.750			
0.9347	59820.82	3.4410	3.4409	0.2044	25.93	-0.02	0.750			
0.9353	59860.27	3.4380	3.4380	0.2001	25.93	-0.02	0.750			
0.9359	59898.34	3.4350	3.4351	0.1963	25.94	-0.01	0.750			
0.9365	59935.85	3.4320	3.4320	0.1923	25.94	-0.01	0.750			
0.9371	59972.28	3.4290	3.4291	0.1872	25.95	-0.00	0.750			
0.9376	60007.49	3.4260	3.4259	0.1827	25.95	0.00	0.750			
0.9382	60041.90	3.4230	3.4230	0.1783	25.96	0.01	0.750			
0.9387	60075.87	3.4200	3.4200	0.1743	25.96	0.01	0.750			
0.9392	60108.99	3.4170	3.4170	0.1704	25.96	0.01	0.750			
0.9397	60141.69	3.4140	3.4140	0.1658	25.97	0.02	0.750			
0.9402	60173.02	3.4110	3.4110	0.1604	25.97	0.02	0.750			
0.9407	60203.44	3.4080	3.4081	0.1561	25.98	0.03	0.750			
0.9411	60232.90	3.4050	3.4050	0.1508	25.98	0.03	0.750			
0.9416	60261.23	3.4020	3.4020	0.1455	25.98	0.03	0.750			
0.9420	60288.55	3.3990	3.3989	0.1403	25.99	0.04	0.750			
0.9424	60315.07	3.3960	3.3961	0.1352	25.99	0.04	0.750			
0.9428	60340.74	3.3930	3.3931	0.1298	25.99	0.04	0.750			
0.9432	60365.32	3.3900	3.3899	0.1246	26.00	0.05	0.750			
0.9436	60389.11	3.3870	3.3870	0.1187	26.00	0.05	0.750			
0.9439	60411.27	3.3840	3.3841	0.1122	26.00	0.05	0.750			
0.9443	60432.32	3.3810	3.3809	0.1057	26.00	0.05	0.750			
0.9446	60452.84	3.3780	3.3779	0.0981	26.01	0.06	0.750			
0.9449	60470.83	3.3750	3.3752	0.0893	26.01	0.06	0.750			
0.9451	60487.49	3.3720	3.3720	0.0811	26.01	0.06	0.750			
0.9453	60502.17	3.3690	3.3693	0.0718	26.01	0.06	0.750			
0.9456	60515.50	3.3660	3.3665	0.0626	26.02	0.07	0.750			
0.9457	60526.57	3.3630	3.3637	0.0527	26.02	0.07	0.750			
0.9459	60535.73	3.3600	3.3610	0.0427	26.02	0.07	0.750			
0.9460	60542.98	3.3570	3.3583	0.0328	26.02	0.07	0.750			
