Ah_balance (normalized)	Ah_balance (mAh)	Voltage - fit (V)	Voltage -  interpolate (V)	dQ/dV (1/V)	Temperature (°C)	Temperature - diff (°C)	Current (C)	R_DC 0ms (mOhm)	R_DC 50ms (mOhm)	R_DC 50 ms PEC (mOhm)
0.0528	3378.39	4.1960	4.1961	0.7827	26.62	0.63	0.750			
0.0551	3527.22	4.1930	4.1931	0.7704	26.62	0.63	0.750			
0.0574	3671.61	4.1900	4.1900	0.7642	26.63	0.64	0.750			
0.0597	3817.61	4.1870	4.1870	0.7669	26.63	0.64	0.750			
0.0619	3962.95	4.1840	4.1840	0.7656	26.63	0.64	0.750			
0.0642	4111.51	4.1810	4.1810	0.7709	26.63	0.64	0.750			
0.0666	4261.87	4.1780	4.1781	0.7742	26.63	0.64	0.750			
0.0689	4409.84	4.1750	4.1751	0.7752	26.63	0.64	0.750			
0.0712	4558.96	4.1720	4.1720	0.7775	26.63	0.64	0.750			
0.0735	4707.12	4.1690	4.1690	0.7786	26.63	0.64	0.750			
0.0759	4856.32	4.1660	4.1660	0.7749	26.63	0.64	0.750			
0.0782	5005.19	4.1630	4.1630	0.7797	26.63	0.64	0.750			
0.0806	5155.77	4.1600	4.1601	0.7806	26.63	0.64	0.750			
0.0829	5305.37	4.1570	4.1570	0.7820	26.62	0.63	0.750			
0.0852	5455.44	4.1540	4.1540	0.7790	26.62	0.63	0.750			
0.0876	5605.48	4.1510	4.1508	0.7804	26.62	0.63	0.750			
0.0899	5754.43	4.1480	4.1481	0.7819	26.62	0.63	0.750			
0.0923	5907.16	4.1450	4.1450	0.7798	26.62	0.63	0.750			
0.0946	6054.29	4.1420	4.1420	0.7818	26.62	0.63	0.750			
0.0969	6204.53	4.1390	4.1391	0.7907	26.62	0.63	0.750			
0.0993	6355.85	4.1360	4.1360	0.7917	26.62	0.63	0.750			
0.1017	6509.49	4.1330	4.1330	0.7963	26.62	0.63	0.750			
0.1041	6663.98	4.1300	4.1300	0.7952	26.62	0.63	0.750			
0.1065	6817.33	4.1270	4.1270	0.7918	26.62	0.63	0.750			
0.1089	6970.03	4.1240	4.1240	0.7964	26.62	0.63	0.750			
0.1112	7118.81	4.1210	4.1210	0.7972	26.62	0.63	0.750			
0.1136	7272.12	4.1180	4.1179	0.7958	26.62	0.63	0.750			
0.1160	7426.79	4.1150	4.1150	0.7994	26.62	0.63	0.750			
0.1185	7581.27	4.1120	4.1121	0.7969	26.63	0.64	0.750			
0.1208	7733.43	4.1090	4.1092	0.8020	26.63	0.64	0.750			
0.1232	7887.41	4.1060	4.1059	0.8031	26.64	0.65	0.750			
0.1256	8040.09	4.1030	4.1026	0.8065	26.64	0.65	0.750			
0.1280	8193.75	4.1000	4.1002	0.8071	26.64	0.65	0.750			
0.1305	8353.11	4.0970	4.0970	0.8024	26.64	0.65	0.750			
0.1329	8507.99	4.0940	4.0941	0.8086	26.63	0.64	0.750			
0.1353	8659.13	4.0910	4.0912	0.8011	26.63	0.64	0.750			
0.1377	8812.85	4.0880	4.0876	0.8080	26.63	0.64	0.750			
0.1401	8967.97	4.0850	4.0850	0.8131	26.63	0.64	0.750			
0.1426	9125.40	4.0820	4.0821	0.8146	26.63	0.64	0.750			
0.1451	9284.86	4.0790	4.0790	0.8307	26.64	0.65	0.750			
0.1476	9445.27	4.0760	4.0761	0.8262	26.64	0.65	0.750			
0.1501	9604.41	4.0730	4.0728	0.8269	26.64	0.65	0.750			
0.1525	9763.08	4.0700	4.0701	0.8263	26.64	0.65	0.750			
0.1550	9922.08	4.0670	4.0672	0.8293	26.64	0.65	0.750			
0.1575	10081.76	4.0640	4.0639	0.8333	26.64	0.65	0.750			
0.1600	10241.59	4.0610	4.0610	0.8290	26.64	0.65	0.750			
0.1625	10399.36	4.0580	4.0580	0.8321	26.64	0.65	0.750			
0.1650	10560.93	4.0550	4.0551	0.8396	26.64	0.65	0.750			
0.1675	10721.69	4.0520	4.0520	0.8402	26.64	0.65	0.750			
0.1700	10882.75	4.0490	4.0489	0.8434	26.64	0.65	0.750			
0.1726	11043.29	4.0460	4.0462	0.8464	26.64	0.65	0.750			
0.1751	11206.74	4.0430	4.0426	0.8506	26.64	0.65	0.750			
0.1777	11372.82	4.0400	4.0401	0.8547	26.64	0.65	0.750			
0.1803	11536.76	4.0370	4.0370	0.8537	26.64	0.65	0.750			
0.1828	11700.99	4.0340	4.0339	0.8596	26.64	0.65	0.750			
0.1854	11866.03	4.0310	4.0310	0.8635	26.64	0.65	0.750			
0.1880	12028.85	4.0280	4.0279	0.8645	26.64	0.65	0.750			
0.1906	12197.49	4.0250	4.0249	0.8668	26.64	0.65	0.750			
0.1932	12364.96	4.0220	4.0220	0.8710	26.64	0.65	0.750			
0.1958	12532.98	4.0190	4.0190	0.8746	26.64	0.65	0.750			
0.1985	12701.16	4.0160	4.0161	0.8719	26.64	0.65	0.750			
0.2010	12865.31	4.0130	4.0130	0.8781	26.64	0.65	0.750			
0.2037	13036.31	4.0100	4.0099	0.8781	26.65	0.66	0.750			
0.2063	13204.01	4.0070	4.0071	0.8796	26.65	0.66	0.750			
0.2090	13374.04	4.0040	4.0040	0.8847	26.65	0.66	0.750			
0.2116	13545.20	4.0010	4.0013	0.8881	26.66	0.67	0.750			
0.2143	13716.55	3.9980	3.9979	0.8895	26.66	0.67	0.750			
0.2170	13885.97	3.9950	3.9950	0.8925	26.66	0.67	0.750			
0.2196	14055.84	3.9920	3.9921	0.8929	26.66	0.67	0.750			
0.2224	14230.99	3.9890	3.9889	0.9057	26.66	0.67	0.750			
0.2251	14403.34	3.9860	3.9859	0.9059	26.66	0.67	0.750			
0.2278	14578.77	3.9830	3.9831	0.9072	26.66	0.67	0.750			
0.2305	14753.32	3.9800	3.9801	0.9091	26.66	0.67	0.750			
0.2333	14929.31	3.9770	3.9770	0.9154	26.67	0.68	0.750			
0.2360	15104.72	3.9740	3.9741	0.9155	26.67	0.68	0.750			
0.2387	15279.99	3.9710	3.9709	0.9169	26.67	0.68	0.750			
0.2415	15457.16	3.9680	3.9681	0.9071	26.67	0.68	0.750			
0.2442	15630.69	3.9650	3.9650	0.9116	26.68	0.69	0.750			
0.2469	15803.54	3.9620	3.9621	0.9235	26.68	0.69	0.750			
0.2497	15981.95	3.9590	3.9588	0.9235	26.68	0.69	0.750			
0.2525	16161.10	3.9560	3.9560	0.9195	26.68	0.69	0.750			
0.2553	16339.85	3.9530	3.9531	0.9208	26.68	0.69	0.750			
0.2581	16515.72	3.9500	3.9503	0.9241	26.68	0.69	0.750			
0.2609	16695.71	3.9470	3.9469	0.9274	26.68	0.69	0.750			
0.2636	16869.40	3.9440	3.9441	0.9177	26.68	0.69	0.750			
0.2664	17047.20	3.9410	3.9409	0.9054	26.68	0.69	0.750			
0.2691	17223.03	3.9380	3.9382	0.9214	26.68	0.69	0.750			
0.2718	17398.29	3.9350	3.9352	0.9267	26.68	0.69	0.750			
0.2746	17576.82	3.9320	3.9317	0.9243	26.68	0.69	0.750			
0.2774	17755.44	3.9290	3.9291	0.9218	26.68	0.69	0.750			
0.2802	17929.65	3.9260	3.9261	0.9331	26.68	0.69	0.750			
0.2830	18109.71	3.9230	3.9231	0.9440	26.68	0.69	0.750			
0.2859	18296.77	3.9200	3.9200	0.9491	26.68	0.69	0.750			
0.2887	18476.40	3.9170	3.9168	0.9421	26.68	0.69	0.750			
0.2915	18658.22	3.9140	3.9142	0.9334	26.68	0.69	0.750			
0.2943	18837.70	3.9110	3.9111	0.9394	26.68	0.69	0.750			
0.2971	19015.03	3.9080	3.9080	0.9369	26.68	0.69	0.750			
0.2999	19192.21	3.9050	3.9048	0.9345	26.68	0.69	0.750			
0.3027	19373.81	3.9020	3.9020	0.9359	26.68	0.69	0.750			
0.3055	19554.58	3.8990	3.8991	0.9491	26.67	0.68	0.750			
0.3084	19739.90	3.8960	3.8961	0.9559	26.67	0.68	0.750			
0.3113	19922.02	3.8930	3.8931	0.9580	26.66	0.67	0.750			
0.3142	20106.12	3.8900	3.8900	0.9626	26.66	0.67	0.750			
0.3171	20291.43	3.8870	3.8870	0.9571	26.66	0.67	0.750			
0.3199	20475.04	3.8840	3.8840	0.9632	26.66	0.67	0.750			
0.3228	20660.26	3.8810	3.8812	0.9701	26.66	0.67	0.750			
0.3257	20844.95	3.8780	3.8778	0.9796	26.66	0.67	0.750			
0.3287	21033.78	3.8750	3.8751	0.9900	26.65	0.66	0.750			
0.3316	21224.89	3.8720	3.8720	0.9995	26.65	0.66	0.750			
0.3347	21421.04	3.8690	3.8690	1.0090	26.65	0.66	0.750			
0.3377	21615.47	3.8660	3.8659	1.0095	26.64	0.65	0.750			
0.3408	21809.80	3.8630	3.8631	1.0127	26.64	0.65	0.750			
0.3438	22003.75	3.8600	3.8600	1.0198	26.63	0.64	0.750			
0.3468	22197.41	3.8570	3.8570	1.0232	26.63	0.64	0.750			
0.3499	22396.55	3.8540	3.8538	1.0329	26.62	0.63	0.750			
0.3530	22594.66	3.8510	3.8510	1.0406	26.62	0.63	0.750			
0.3562	22794.78	3.8480	3.8481	1.0533	26.61	0.62	0.750			
0.3594	22998.73	3.8450	3.8451	1.0613	26.61	0.62	0.750			
0.3626	23204.01	3.8420	3.8415	1.0697	26.60	0.61	0.750			
0.3658	23408.46	3.8390	3.8391	1.0684	26.59	0.60	0.750			
0.3690	23614.08	3.8360	3.8360	1.0797	26.58	0.59	0.750			
0.3722	23821.42	3.8330	3.8331	1.0956	26.57	0.58	0.750			
0.3756	24035.24	3.8300	3.8297	1.0947	26.56	0.57	0.750			
0.3788	24243.96	3.8270	3.8270	1.0991	26.55	0.56	0.750			
0.3821	24455.59	3.8240	3.8241	1.1144	26.55	0.56	0.750			
0.3855	24671.31	3.8210	3.8212	1.1263	26.54	0.55	0.750			
0.3889	24891.51	3.8180	3.8178	1.1116	26.54	0.55	0.750			
0.3923	25104.05	3.8150	3.8150	1.1226	26.53	0.54	0.750			
0.3956	25318.01	3.8120	3.8122	1.1276	26.52	0.53	0.750			
0.3990	25537.94	3.8090	3.8090	1.1349	26.50	0.51	0.750			
0.4024	25754.93	3.8060	3.8061	1.1370	26.49	0.50	0.750			
0.4058	25970.54	3.8030	3.8031	1.1367	26.48	0.49	0.750			
0.4092	26191.12	3.8000	3.8001	1.1499	26.47	0.48	0.750			
0.4128	26417.22	3.7970	3.7969	1.1647	26.46	0.47	0.750			
0.4162	26637.10	3.7940	3.7940	1.1654	26.45	0.46	0.750			
0.4197	26862.35	3.7910	3.7909	1.1778	26.44	0.45	0.750			
0.4233	27089.78	3.7880	3.7881	1.1920	26.43	0.44	0.750			
0.4269	27319.19	3.7850	3.7850	1.1902	26.42	0.43	0.750			
0.4305	27548.96	3.7820	3.7820	1.2082	26.41	0.42	0.750			
0.4341	27779.36	3.7790	3.7791	1.2287	26.40	0.41	0.750			
0.4378	28016.83	3.7760	3.7757	1.2405	26.39	0.40	0.750			
0.4415	28256.24	3.7730	3.7730	1.2640	26.38	0.39	0.750			
0.4454	28502.68	3.7700	3.7700	1.2773	26.36	0.37	0.750			
0.4492	28749.89	3.7670	3.7670	1.3169	26.34	0.35	0.750			
0.4532	29006.72	3.7640	3.7640	1.3608	26.33	0.34	0.750			
0.4573	29267.92	3.7610	3.7611	1.3847	26.32	0.33	0.750	0.346	0.424	
0.4616	29540.85	3.7580	3.7581	1.4010	26.30	0.31	0.750			
0.4658	29814.17	3.7550	3.7552	1.4333	26.29	0.30	0.750			
0.4701	30088.49	3.7520	3.7521	1.4621	26.28	0.29	0.750			
0.4745	30370.85	3.7490	3.7488	1.4853	26.27	0.28	0.750			
0.4789	30650.71	3.7460	3.7459	1.5167	26.26	0.27	0.750			
0.4836	30950.21	3.7430	3.7431	1.5652	26.24	0.25	0.750			
0.4885	31262.80	3.7400	3.7400	1.5981	26.23	0.24	0.750			
0.4934	31578.73	3.7370	3.7371	1.6514	26.21	0.22	0.750			
0.4984	31894.51	3.7340	3.7340	1.6699	26.20	0.21	0.750			
0.5034	32220.51	3.7310	3.7311	1.7068	26.18	0.19	0.750			
0.5086	32550.20	3.7280	3.7279	1.7530	26.16	0.17	0.750			
0.5138	32883.13	3.7250	3.7252	1.8069	26.15	0.16	0.750			
0.5193	33237.17	3.7220	3.7222	1.8566	26.13	0.14	0.750			
0.5250	33600.42	3.7190	3.7189	1.9347	26.11	0.12	0.750			
0.5309	33974.56	3.7160	3.7159	1.9855	26.09	0.10	0.750			
0.5370	34368.84	3.7130	3.7129	2.0489	26.07	0.08	0.750			
0.5432	34765.62	3.7100	3.7101	2.1255	26.05	0.06	0.750			
0.5497	35180.88	3.7070	3.7069	2.1841	26.03	0.04	0.750			
0.5563	35602.26	3.7040	3.7039	2.2257	26.01	0.02	0.750			
0.5631	36037.19	3.7010	3.7010	2.2942	25.99	-0.00	0.750			
0.5701	36486.76	3.6980	3.6979	2.3470	25.97	-0.02	0.750			
0.5773	36946.94	3.6950	3.6949	2.4263	25.95	-0.04	0.750			
0.5847	37418.53	3.6920	3.6921	2.4748	25.93	-0.06	0.750			
0.5922	37902.93	3.6890	3.6890	2.5521	25.91	-0.08	0.750			
0.6000	38401.62	3.6860	3.6860	2.6555	25.89	-0.10	0.750			
0.6079	38908.44	3.6830	3.6828	2.7414	25.87	-0.12	0.750			
0.6162	39435.42	3.6800	3.6801	2.8704	25.84	-0.15	0.750			
0.6251	40007.71	3.6770	3.6770	2.9439	25.82	-0.17	0.750			
0.6342	40591.19	3.6740	3.6740	3.0516	25.81	-0.18	0.750			
0.6435	41185.97	3.6710	3.6708	3.0817	25.79	-0.20	0.750			
0.6527	41774.35	3.6680	3.6681	3.1185	25.77	-0.22	0.750			
0.6623	42389.05	3.6650	3.6648	3.1139	25.77	-0.22	0.750			
0.6720	43007.20	3.6620	3.6617	2.9483	25.76	-0.23	0.750			
0.6805	43551.46	3.6590	3.6591	2.7220	25.75	-0.24	0.750			
0.6879	44024.30	3.6560	3.6560	2.3784	25.75	-0.24	0.750			
0.6945	44450.87	3.6530	3.6528	2.1249	25.75	-0.24	0.750			
0.7002	44810.84	3.6500	3.6498	1.9065	25.75	-0.24	0.750			
0.7055	45151.42	3.6470	3.6470	1.7419	25.75	-0.24	0.750			
0.7106	45478.83	3.6440	3.6441	1.6072	25.75	-0.24	0.750			
0.7151	45764.90	3.6410	3.6411	1.4764	25.75	-0.24	0.750			
0.7193	46033.96	3.6380	3.6382	1.3903	25.75	-0.24	0.750			
0.7232	46284.79	3.6350	3.6351	1.3052	25.75	-0.24	0.750			
0.7268	46518.08	3.6320	3.6321	1.2444	25.75	-0.24	0.750			
0.7304	46746.56	3.6290	3.6291	1.2165	25.75	-0.24	0.750			
0.7340	46974.69	3.6260	3.6261	1.2128	25.75	-0.24	0.750			
0.7376	47208.30	3.6230	3.6225	1.2124	25.75	-0.24	0.750			
0.7412	47438.98	3.6200	3.6200	1.2136	25.75	-0.24	0.750			
0.7449	47673.60	3.6170	3.6171	1.2237	25.75	-0.24	0.750			
0.7487	47913.98	3.6140	3.6140	1.2314	25.75	-0.24	0.750			
0.7524	48152.56	3.6110	3.6110	1.2106	25.75	-0.24	0.750			
0.7560	48380.96	3.6080	3.6081	1.1968	25.75	-0.24	0.750			
0.7595	48609.45	3.6050	3.6052	1.1898	25.75	-0.24	0.750			
0.7630	48834.40	3.6020	3.6018	1.1866	25.75	-0.24	0.750			
0.7665	49057.84	3.5990	3.5990	1.1657	25.75	-0.24	0.750			
0.7700	49279.30	3.5960	3.5961	1.1713	25.75	-0.24	0.750			
0.7736	49508.14	3.5930	3.5931	1.1695	25.75	-0.24	0.750			
0.7770	49727.17	3.5900	3.5903	1.1970	25.75	-0.24	0.750			
0.7805	49954.77	3.5870	3.5874	1.2316	25.75	-0.24	0.750			
0.7843	50192.61	3.5840	3.5841	1.2700	25.74	-0.25	0.750			
0.7882	50442.67	3.5810	3.5805	1.3068	25.74	-0.25	0.750			
0.7921	50693.71	3.5780	3.5784	1.3257	25.74	-0.25	0.750			
0.7961	50951.49	3.5750	3.5752	1.3919	25.74	-0.25	0.750			
0.8004	51227.39	3.5720	3.5716	1.4414	25.74	-0.25	0.750			
0.8047	51499.68	3.5690	3.5684	1.4574	25.74	-0.25	0.750			
0.8092	51788.58	3.5660	3.5662	1.5221	25.73	-0.26	0.750			
0.8140	52098.29	3.5630	3.5633	1.5427	25.73	-0.26	0.750			
0.8187	52395.22	3.5600	3.5598	1.5720	25.73	-0.26	0.750			
0.8234	52698.46	3.5570	3.5572	1.5743	25.72	-0.27	0.750			
0.8282	53005.45	3.5540	3.5540	1.6012	25.72	-0.27	0.750			
0.8330	53314.85	3.5510	3.5507	1.6196	25.73	-0.26	0.750			
0.8380	53632.17	3.5480	3.5480	1.6590	25.73	-0.26	0.750			
0.8430	53952.42	3.5450	3.5452	1.6762	25.73	-0.26	0.750			
0.8481	54281.16	3.5420	3.5421	1.6905	25.73	-0.26	0.750			
0.8531	54599.86	3.5390	3.5394	1.7217	25.73	-0.26	0.750			
0.8584	54936.07	3.5360	3.5360	1.7573	25.74	-0.25	0.750			
0.8638	55280.57	3.5330	3.5330	1.7708	25.75	-0.24	0.750			
0.8694	55638.79	3.5300	3.5299	1.6610	25.76	-0.23	0.750			
0.8744	55963.46	3.5270	3.5271	1.5047	25.77	-0.22	0.750			
0.8792	56269.89	3.5240	3.5245	1.2733	25.78	-0.21	0.750			
0.8828	56500.05	3.5210	3.5214	0.9972	25.79	-0.20	0.750			
0.8851	56646.32	3.5180	3.5177	0.7295	25.80	-0.19	0.750			
0.8866	56742.68	3.5150	3.5144	0.5688	25.81	-0.18	0.750			
0.8877	56809.98	3.5120	3.5115	0.4273	25.81	-0.18	0.750			
0.8887	56879.75	3.5090	3.5091	0.3795	25.82	-0.17	0.750			
0.8898	56945.52	3.5060	3.5061	0.3463	25.82	-0.17	0.750			
0.8908	57009.56	3.5030	3.5029	0.3293	25.83	-0.16	0.750			
0.8917	57070.44	3.5000	3.4999	0.3131	25.84	-0.15	0.750			
0.8926	57127.15	3.4970	3.4970	0.2985	25.84	-0.15	0.750			
0.8935	57183.08	3.4940	3.4941	0.2893	25.85	-0.14	0.750			
0.8943	57237.48	3.4910	3.4910	0.2831	25.86	-0.13	0.750			
0.8952	57291.05	3.4880	3.4880	0.2759	25.86	-0.13	0.750			
0.8960	57343.33	3.4850	3.4849	0.2694	25.87	-0.12	0.750			
0.8968	57394.38	3.4820	3.4821	0.2634	25.87	-0.12	0.750			
0.8976	57444.83	3.4790	3.4790	0.2588	25.88	-0.11	0.750			
0.8983	57493.77	3.4760	3.4759	0.2540	25.89	-0.10	0.750			
0.8991	57541.67	3.4730	3.4729	0.2485	25.89	-0.10	0.750			
0.8998	57588.86	3.4700	3.4701	0.2434	25.90	-0.09	0.750			
0.9006	57635.28	3.4670	3.4668	0.2404	25.90	-0.09	0.750			
0.9013	57681.40	3.4640	3.4640	0.2361	25.91	-0.08	0.750			
0.9020	57726.04	3.4610	3.4610	0.2316	25.91	-0.08	0.750			
0.9027	57769.82	3.4580	3.4580	0.2273	25.92	-0.07	0.750			
0.9033	57813.37	3.4550	3.4551	0.2225	25.92	-0.07	0.750			
0.9040	57855.75	3.4520	3.4520	0.2183	25.93	-0.06	0.750			
0.9047	57897.70	3.4490	3.4492	0.2135	25.93	-0.06	0.750			
0.9053	57938.44	3.4460	3.4459	0.2084	25.94	-0.05	0.750			
0.9059	57977.60	3.4430	3.4430	0.2031	25.94	-0.05	0.750			
0.9065	58016.24	3.4400	3.4401	0.1993	25.94	-0.05	0.750			
0.9071	58053.74	3.4370	3.4368	0.1939	25.95	-0.04	0.750			
0.9077	58090.55	3.4340	3.4340	0.1896	25.95	-0.04	0.750			
0.9082	58126.55	3.4310	3.4310	0.1849	25.96	-0.03	0.750			
0.9088	58161.45	3.4280	3.4281	0.1807	25.96	-0.03	0.750			
0.9093	58195.99	3.4250	3.4250	0.1771	25.96	-0.03	0.750			
0.9098	58229.55	3.4220	3.4220	0.1726	25.97	-0.02	0.750			
0.9103	58262.21	3.4190	3.4189	0.1675	25.97	-0.02	0.750			
0.9108	58294.00	3.4160	3.4160	0.1624	25.98	-0.01	0.750			
0.9113	58324.85	3.4130	3.4130	0.1580	25.98	-0.01	0.750			
0.9118	58354.68	3.4100	3.4101	0.1528	25.98	-0.01	0.750			
0.9122	58383.52	3.4070	3.4069	0.1481	25.99	-0.00	0.750			
0.9127	58411.36	3.4040	3.4039	0.1424	25.99	-0.00	0.750			
0.9131	58438.22	3.4010	3.4010	0.1375	25.99	0.00	0.750			
0.9135	58464.47	3.3980	3.3981	0.1315	25.99	0.00	0.750			
0.9139	58489.52	3.3950	3.3951	0.1262	26.00	0.01	0.750			
0.9143	58513.55	3.3920	3.3919	0.1202	26.00	0.01	0.750			
0.9146	58535.99	3.3890	3.3890	0.1133	26.00	0.01	0.750			
0.9150	58557.06	3.3860	3.3860	0.1061	26.00	0.01	0.750			
0.9153	58577.59	3.3830	3.3829	0.0972	26.01	0.02	0.750			
0.9156	58595.39	3.3800	3.3800	0.0881	26.01	0.02	0.750			
0.9158	58611.96	3.3770	3.3772	0.0799	26.01	0.02	0.750			
0.9160	58626.37	3.3740	3.3741	0.0702	26.01	0.02	0.750			
0.9162	58639.97	3.3710	3.3713	0.0607	26.01	0.02	0.750			
0.9164	58650.55	3.3680	3.3686	0.0496	26.02	0.03	0.750			
0.9165	58659.00	3.3650	3.3663	0.0385	26.02	0.03	0.750			
0.9166	58665.32	3.3620	3.3637	0.0273	26.02	0.03	0.750			
