Ah_balance (normalized)	Ah_balance (mAh)	Voltage - fit (V)	Voltage -  interpolate (V)	dQ/dV (1/V)	Temperature (°C)	Temperature - diff (°C)	Current (C)	R_DC 0ms (mOhm)	R_DC 50ms (mOhm)	R_DC 50 ms PEC (mOhm)
0.0003	21.20	4.1630	4.1626	-0.1104	25.98	0.01	-0.750			
0.0008	49.02	4.1600	4.1598	-0.1625	25.98	0.01	-0.750			
0.0013	84.82	4.1570	4.1570	-0.2087	25.98	0.01	-0.750			
0.0020	130.00	4.1540	4.1540	-0.2523	25.98	0.01	-0.750			
0.0029	182.93	4.1510	4.1510	-0.2942	25.98	0.01	-0.750			
0.0038	244.70	4.1480	4.1480	-0.3364	25.98	0.01	-0.750			
0.0049	313.76	4.1450	4.1450	-0.3717	25.98	0.01	-0.750			
0.0061	389.50	4.1420	4.1420	-0.4057	25.97	0.00	-0.750			
0.0074	471.22	4.1390	4.1390	-0.4367	25.97	0.00	-0.750			
0.0087	557.68	4.1360	4.1361	-0.4669	25.97	-0.00	-0.750			
0.0102	650.72	4.1330	4.1330	-0.4952	25.97	-0.00	-0.750			
0.0117	749.14	4.1300	4.1299	-0.5210	25.96	-0.01	-0.750			
0.0133	852.25	4.1270	4.1270	-0.5422	25.96	-0.01	-0.750			
0.0150	959.15	4.1240	4.1241	-0.5647	25.96	-0.01	-0.750			
0.0167	1070.99	4.1210	4.1210	-0.5830	25.96	-0.01	-0.750			
0.0185	1184.66	4.1180	4.1179	-0.5971	25.95	-0.02	-0.750			
0.0203	1300.73	4.1150	4.1150	-0.6067	25.95	-0.02	-0.750			
0.0222	1418.36	4.1120	4.1121	-0.6199	25.95	-0.02	-0.750			
0.0241	1539.85	4.1090	4.1090	-0.6310	25.94	-0.03	-0.750			
0.0260	1661.48	4.1060	4.1060	-0.6421	25.94	-0.03	-0.750			
0.0279	1784.79	4.1030	4.1030	-0.6487	25.94	-0.03	-0.750			
0.0299	1911.30	4.1000	4.1000	-0.6582	25.94	-0.03	-0.750			
0.0318	2038.33	4.0970	4.0970	-0.6646	25.93	-0.04	-0.750			
0.0339	2167.34	4.0940	4.0940	-0.6738	25.93	-0.04	-0.750			
0.0359	2296.23	4.0910	4.0911	-0.6807	25.93	-0.04	-0.750			
0.0379	2426.31	4.0880	4.0880	-0.6947	25.93	-0.04	-0.750			
0.0400	2562.34	4.0850	4.0850	-0.6989	25.93	-0.04	-0.750			
0.0422	2699.20	4.0820	4.0819	-0.7033	25.93	-0.04	-0.750			
0.0443	2836.05	4.0790	4.0789	-0.7084	25.93	-0.04	-0.750			
0.0464	2972.05	4.0760	4.0761	-0.7069	25.93	-0.04	-0.750			
0.0485	3107.01	4.0730	4.0729	-0.7053	25.93	-0.04	-0.750			
0.0506	3240.07	4.0700	4.0700	-0.7100	25.93	-0.04	-0.750			
0.0527	3375.69	4.0670	4.0670	-0.7072	25.92	-0.05	-0.750			
0.0549	3515.49	4.0640	4.0640	-0.7095	25.92	-0.05	-0.750			
0.0571	3651.72	4.0610	4.0610	-0.7148	25.92	-0.05	-0.750			
0.0592	3788.38	4.0580	4.0580	-0.7128	25.92	-0.05	-0.750			
0.0613	3924.47	4.0550	4.0549	-0.7172	25.92	-0.05	-0.750			
0.0635	4061.57	4.0520	4.0520	-0.7250	25.92	-0.05	-0.750			
0.0656	4200.27	4.0490	4.0490	-0.7287	25.91	-0.06	-0.750			
0.0679	4344.25	4.0460	4.0460	-0.7356	25.91	-0.06	-0.750			
0.0701	4488.30	4.0430	4.0431	-0.7394	25.91	-0.06	-0.750			
0.0723	4629.10	4.0400	4.0400	-0.7340	25.91	-0.06	-0.750			
0.0746	4771.65	4.0370	4.0369	-0.7310	25.92	-0.05	-0.750			
0.0767	4910.34	4.0340	4.0340	-0.7338	25.92	-0.05	-0.750			
0.0789	5049.80	4.0310	4.0310	-0.7332	25.92	-0.05	-0.750			
0.0811	5191.80	4.0280	4.0278	-0.7376	25.93	-0.04	-0.750			
0.0833	5333.77	4.0250	4.0253	-0.7398	25.93	-0.04	-0.750			
0.0856	5475.91	4.0220	4.0220	-0.7427	25.93	-0.04	-0.750			
0.0878	5618.33	4.0190	4.0190	-0.7465	25.93	-0.04	-0.750			
0.0900	5762.07	4.0160	4.0160	-0.7462	25.93	-0.04	-0.750			
0.0923	5906.69	4.0130	4.0130	-0.7511	25.93	-0.04	-0.750			
0.0945	6050.68	4.0100	4.0100	-0.7473	25.93	-0.04	-0.750			
0.0968	6193.97	4.0070	4.0070	-0.7486	25.93	-0.04	-0.750			
0.0990	6336.86	4.0040	4.0040	-0.7509	25.94	-0.03	-0.750			
0.1012	6479.68	4.0010	4.0009	-0.7531	25.94	-0.03	-0.750			
0.1035	6624.39	3.9980	3.9980	-0.7556	25.94	-0.03	-0.750			
0.1058	6771.25	3.9950	3.9949	-0.7601	25.95	-0.02	-0.750			
0.1081	6918.20	3.9920	3.9922	-0.7609	25.95	-0.02	-0.750			
0.1104	7064.76	3.9890	3.9890	-0.7634	25.95	-0.02	-0.750			
0.1127	7209.83	3.9860	3.9861	-0.7665	25.95	-0.02	-0.750			
0.1150	7357.68	3.9830	3.9829	-0.7698	25.96	-0.01	-0.750			
0.1173	7506.67	3.9800	3.9799	-0.7677	25.96	-0.01	-0.750			
0.1196	7653.93	3.9770	3.9770	-0.7722	25.96	-0.01	-0.750			
0.1219	7803.80	3.9740	3.9740	-0.7724	25.96	-0.01	-0.750			
0.1242	7950.80	3.9710	3.9710	-0.7729	25.96	-0.01	-0.750			
0.1265	8096.14	3.9680	3.9679	-0.7724	25.96	-0.01	-0.750			
0.1288	8244.10	3.9650	3.9651	-0.7783	25.97	-0.00	-0.750			
0.1312	8395.37	3.9620	3.9619	-0.7884	25.97	-0.00	-0.750			
0.1336	8549.11	3.9590	3.9591	-0.7937	25.97	0.00	-0.750			
0.1360	8702.64	3.9560	3.9560	-0.7959	25.97	0.00	-0.750			
0.1384	8857.08	3.9530	3.9530	-0.7983	25.98	0.01	-0.750			
0.1408	9010.09	3.9500	3.9500	-0.7942	25.98	0.01	-0.750			
0.1431	9161.21	3.9470	3.9470	-0.7914	25.99	0.02	-0.750			
0.1455	9312.64	3.9440	3.9440	-0.7920	25.99	0.02	-0.750			
0.1479	9463.87	3.9410	3.9410	-0.7936	25.99	0.02	-0.750			
0.1502	9615.93	3.9380	3.9380	-0.8028	25.99	0.02	-0.750			
0.1527	9771.06	3.9350	3.9350	-0.8080	25.99	0.02	-0.750			
0.1551	9928.41	3.9320	3.9320	-0.8072	25.99	0.02	-0.750			
0.1576	10085.04	3.9290	3.9291	-0.8096	25.99	0.02	-0.750			
0.1600	10239.96	3.9260	3.9260	-0.8093	25.99	0.02	-0.750			
0.1624	10394.90	3.9230	3.9230	-0.8070	26.00	0.03	-0.750			
0.1648	10548.50	3.9200	3.9199	-0.8079	26.00	0.03	-0.750			
0.1672	10701.06	3.9170	3.9170	-0.8099	26.00	0.03	-0.750			
0.1697	10859.12	3.9140	3.9141	-0.8148	26.01	0.04	-0.750			
0.1721	11016.31	3.9110	3.9110	-0.8200	26.01	0.04	-0.750			
0.1746	11174.98	3.9080	3.9080	-0.8246	26.02	0.05	-0.750			
0.1771	11334.00	3.9050	3.9049	-0.8280	26.02	0.05	-0.750			
0.1796	11494.22	3.9020	3.9019	-0.8281	26.02	0.05	-0.750			
0.1821	11653.26	3.8990	3.8989	-0.8267	26.03	0.06	-0.750			
0.1846	11812.05	3.8960	3.8958	-0.8235	26.03	0.06	-0.750			
0.1870	11969.45	3.8930	3.8930	-0.8281	26.03	0.06	-0.750			
0.1895	12126.16	3.8900	3.8900	-0.8255	26.03	0.06	-0.750			
0.1919	12283.72	3.8870	3.8870	-0.8248	26.03	0.06	-0.750			
0.1944	12444.78	3.8840	3.8839	-0.8290	26.03	0.06	-0.750			
0.1969	12604.52	3.8810	3.8809	-0.8333	26.03	0.06	-0.750			
0.1994	12764.53	3.8780	3.8780	-0.8375	26.04	0.07	-0.750			
0.2020	12925.74	3.8750	3.8750	-0.8402	26.04	0.07	-0.750			
0.2045	13086.35	3.8720	3.8720	-0.8352	26.04	0.07	-0.750			
0.2070	13249.19	3.8690	3.8690	-0.8360	26.05	0.08	-0.750			
0.2095	13409.43	3.8660	3.8660	-0.8366	26.05	0.08	-0.750			
0.2120	13568.97	3.8630	3.8630	-0.8395	26.06	0.09	-0.750			
0.2145	13728.62	3.8600	3.8598	-0.8400	26.06	0.09	-0.750			
0.2170	13890.77	3.8570	3.8570	-0.8393	26.06	0.09	-0.750			
0.2196	14053.21	3.8540	3.8539	-0.8432	26.07	0.10	-0.750			
0.2221	14217.27	3.8510	3.8509	-0.8478	26.07	0.10	-0.750			
0.2247	14379.63	3.8480	3.8480	-0.8481	26.07	0.10	-0.750			
0.2272	14540.96	3.8450	3.8449	-0.8437	26.08	0.11	-0.750			
0.2297	14702.33	3.8420	3.8420	-0.8405	26.08	0.11	-0.750			
0.2323	14865.84	3.8390	3.8389	-0.8411	26.08	0.11	-0.750			
0.2348	15027.87	3.8360	3.8359	-0.8383	26.08	0.11	-0.750			
0.2373	15188.10	3.8330	3.8330	-0.8378	26.09	0.12	-0.750			
0.2398	15347.27	3.8300	3.8300	-0.8354	26.10	0.13	-0.750			
0.2423	15505.97	3.8270	3.8270	-0.8354	26.10	0.13	-0.750			
0.2448	15667.62	3.8240	3.8240	-0.8431	26.11	0.14	-0.750			
0.2474	15830.60	3.8210	3.8209	-0.8435	26.11	0.14	-0.750			
0.2499	15995.20	3.8180	3.8180	-0.8484	26.11	0.14	-0.750			
0.2525	16159.05	3.8150	3.8150	-0.8420	26.11	0.14	-0.750			
0.2550	16319.83	3.8120	3.8120	-0.8352	26.11	0.14	-0.750			
0.2575	16480.94	3.8090	3.8090	-0.8315	26.11	0.14	-0.750			
0.2600	16638.17	3.8060	3.8059	-0.8329	26.11	0.14	-0.750			
0.2624	16795.97	3.8030	3.8030	-0.8338	26.12	0.15	-0.750			
0.2650	16957.36	3.8000	3.7999	-0.8385	26.12	0.15	-0.750			
0.2675	17119.14	3.7970	3.7971	-0.8369	26.13	0.16	-0.750			
0.2701	17284.08	3.7940	3.7940	-0.8412	26.13	0.16	-0.750			
0.2726	17445.50	3.7910	3.7910	-0.8335	26.13	0.16	-0.750			
0.2751	17604.23	3.7880	3.7880	-0.8324	26.14	0.17	-0.750			
0.2775	17762.20	3.7850	3.7850	-0.8267	26.14	0.17	-0.750			
0.2800	17920.97	3.7820	3.7820	-0.8216	26.15	0.18	-0.750			
0.2825	18080.13	3.7790	3.7790	-0.8206	26.15	0.18	-0.750			
0.2849	18236.55	3.7760	3.7760	-0.8180	26.15	0.18	-0.750			
0.2874	18392.47	3.7730	3.7730	-0.8183	26.15	0.18	-0.750			
0.2898	18549.24	3.7700	3.7699	-0.8174	26.16	0.19	-0.750			
0.2923	18705.61	3.7670	3.7669	-0.8086	26.16	0.19	-0.750			
0.2947	18862.80	3.7640	3.7641	-0.8124	26.16	0.19	-0.750			
0.2972	19018.88	3.7610	3.7611	-0.8099	26.16	0.19	-0.750			
0.2996	19172.52	3.7580	3.7579	-0.8155	26.16	0.19	-0.750			
0.3020	19330.06	3.7550	3.7550	-0.8081	26.17	0.20	-0.750			
0.3044	19483.78	3.7520	3.7520	-0.8057	26.17	0.20	-0.750			
0.3069	19640.03	3.7490	3.7489	-0.8082	26.17	0.20	-0.750			
0.3093	19795.51	3.7460	3.7458	-0.8093	26.17	0.20	-0.750			
0.3117	19947.71	3.7430	3.7430	-0.8137	26.18	0.21	-0.750			
0.3141	20102.57	3.7400	3.7399	-0.8191	26.18	0.21	-0.750			
0.3165	20258.89	3.7370	3.7370	-0.8241	26.18	0.21	-0.750			
0.3191	20422.18	3.7340	3.7339	-0.8416	26.19	0.22	-0.750			
0.3216	20584.33	3.7310	3.7310	-0.8477	26.19	0.22	-0.750			
0.3242	20748.27	3.7280	3.7280	-0.8556	26.19	0.22	-0.750			
0.3267	20911.31	3.7250	3.7250	-0.8662	26.19	0.22	-0.750			
0.3293	21076.59	3.7220	3.7220	-0.8769	26.19	0.22	-0.750			
0.3320	21247.63	3.7190	3.7188	-0.8943	26.19	0.22	-0.750			
0.3347	21420.26	3.7160	3.7159	-0.9099	26.19	0.22	-0.750			
0.3375	21596.82	3.7130	3.7131	-0.9290	26.19	0.22	-0.750			
0.3403	21779.92	3.7100	3.7099	-0.9429	26.20	0.23	-0.750			
0.3431	21961.12	3.7070	3.7070	-0.9527	26.20	0.23	-0.750			
0.3460	22145.33	3.7040	3.7042	-0.9703	26.20	0.23	-0.750			
0.3489	22332.02	3.7010	3.7009	-0.9850	26.20	0.23	-0.750			
0.3519	22522.29	3.6980	3.6979	-1.0023	26.19	0.22	-0.750			
0.3549	22715.17	3.6950	3.6950	-1.0171	26.19	0.22	-0.750			
0.3580	22913.48	3.6920	3.6920	-1.0436	26.19	0.22	-0.750			
0.3612	23115.95	3.6890	3.6890	-1.0636	26.19	0.22	-0.750			
0.3644	23321.46	3.6860	3.6860	-1.0776	26.18	0.21	-0.750			
0.3676	23529.17	3.6830	3.6830	-1.1008	26.18	0.21	-0.750			
0.3710	23741.77	3.6800	3.6801	-1.1325	26.18	0.21	-0.750			
0.3744	23961.99	3.6770	3.6768	-1.1575	26.18	0.21	-0.750			
0.3779	24188.22	3.6740	3.6739	-1.1811	26.17	0.20	-0.750			
0.3815	24416.57	3.6710	3.6710	-1.2066	26.17	0.20	-0.750			
0.3852	24654.35	3.6680	3.6679	-1.2337	26.17	0.20	-0.750			
0.3890	24893.52	3.6650	3.6649	-1.2426	26.16	0.19	-0.750			
0.3926	25127.99	3.6620	3.6620	-1.2596	26.15	0.18	-0.750			
0.3964	25368.91	3.6590	3.6592	-1.2892	26.15	0.18	-0.750			
0.4003	25619.33	3.6560	3.6557	-1.3305	26.14	0.17	-0.750			
0.4044	25879.45	3.6530	3.6530	-1.3632	26.14	0.17	-0.750			
0.4086	26149.05	3.6500	3.6501	-1.3974	26.13	0.16	-0.750			
0.4129	26422.92	3.6470	3.6468	-1.4394	26.12	0.15	-0.750			
0.4172	26703.59	3.6440	3.6441	-1.4714	26.12	0.15	-0.750			
0.4217	26985.89	3.6410	3.6411	-1.4864	26.11	0.14	-0.750			
0.4262	27274.77	3.6380	3.6379	-1.5246	26.10	0.13	-0.750			
0.4307	27565.58	3.6350	3.6350	-1.5670	26.09	0.12	-0.750			
0.4354	27867.39	3.6320	3.6320	-1.5921	26.09	0.12	-0.750			
0.4404	28182.41	3.6290	3.6289	-1.6470	26.08	0.11	-0.750			
0.4453	28501.01	3.6260	3.6261	-1.6679	26.07	0.10	-0.750			
0.4504	28826.61	3.6230	3.6230	-1.7006	26.06	0.09	-0.750	0.392	0.499	
0.4556	29159.12	3.6200	3.6198	-1.7272	26.05	0.08	-0.750			
0.4608	29490.29	3.6170	3.6169	-1.7477	26.05	0.08	-0.750			
0.4660	29824.07	3.6140	3.6141	-1.7845	26.04	0.07	-0.750			
0.4714	30171.86	3.6110	3.6109	-1.8158	26.03	0.06	-0.750			
0.4769	30522.07	3.6080	3.6080	-1.8625	26.02	0.05	-0.750			
0.4826	30888.75	3.6050	3.6050	-1.8971	26.01	0.04	-0.750			
0.4884	31257.76	3.6020	3.6019	-1.9370	26.01	0.04	-0.750			
0.4944	31638.65	3.5990	3.5992	-1.9683	26.01	0.04	-0.750			
0.5003	32019.38	3.5960	3.5959	-1.9901	26.00	0.03	-0.750			
0.5062	32398.12	3.5930	3.5931	-2.0285	25.99	0.02	-0.750			
0.5123	32789.04	3.5900	3.5900	-2.0818	25.99	0.02	-0.750			
0.5186	33188.79	3.5870	3.5868	-2.1103	25.99	0.02	-0.750			
0.5251	33604.74	3.5840	3.5840	-2.1548	25.98	0.01	-0.750			
0.5316	34021.36	3.5810	3.5811	-2.1834	25.97	0.00	-0.750			
0.5383	34450.00	3.5780	3.5780	-2.2146	25.97	0.00	-0.750			
0.5450	34882.99	3.5750	3.5749	-2.2182	25.97	0.00	-0.750			
0.5517	35311.03	3.5720	3.5719	-2.2059	25.97	0.00	-0.750			
0.5583	35731.39	3.5690	3.5691	-2.2148	25.97	0.00	-0.750			
0.5649	36154.47	3.5660	3.5661	-2.2249	25.97	0.00	-0.750			
0.5715	36578.47	3.5630	3.5629	-2.2366	25.97	0.00	-0.750			
0.5782	37007.95	3.5600	3.5600	-2.2437	25.97	0.00	-0.750			
0.5850	37441.39	3.5570	3.5570	-2.2785	25.97	-0.00	-0.750			
0.5920	37887.82	3.5540	3.5540	-2.2835	25.96	-0.01	-0.750			
0.5989	38332.76	3.5510	3.5508	-2.2906	25.96	-0.01	-0.750			
0.6058	38770.15	3.5480	3.5481	-2.2803	25.95	-0.02	-0.750			
0.6126	39207.03	3.5450	3.5449	-2.2726	25.96	-0.01	-0.750			
0.6194	39643.83	3.5420	3.5420	-2.2541	25.97	-0.00	-0.750			
0.6262	40074.89	3.5390	3.5391	-2.2306	25.97	0.00	-0.750			
0.6329	40503.04	3.5360	3.5360	-2.1803	25.97	0.00	-0.750			
0.6395	40924.92	3.5330	3.5330	-2.1626	25.98	0.01	-0.750			
0.6458	41330.39	3.5300	3.5300	-2.1033	25.99	0.02	-0.750			
0.6521	41731.34	3.5270	3.5267	-2.0541	26.00	0.03	-0.750			
0.6581	42120.75	3.5240	3.5239	-1.9991	26.00	0.03	-0.750			
0.6641	42502.73	3.5210	3.5207	-1.9567	26.00	0.03	-0.750			
0.6699	42873.73	3.5180	3.5178	-1.9121	26.01	0.04	-0.750			
0.6755	43234.44	3.5150	3.5151	-1.8553	26.02	0.05	-0.750			
0.6810	43586.42	3.5120	3.5119	-1.7757	26.04	0.07	-0.750			
0.6863	43922.14	3.5090	3.5090	-1.7266	26.05	0.08	-0.750			
0.6914	44247.93	3.5060	3.5059	-1.6713	26.06	0.09	-0.750			
0.6963	44565.13	3.5030	3.5032	-1.6134	26.07	0.10	-0.750			
0.7011	44868.75	3.5000	3.5003	-1.5541	26.09	0.12	-0.750			
0.7057	45161.86	3.4970	3.4969	-1.5132	26.10	0.13	-0.750			
0.7102	45452.08	3.4940	3.4940	-1.4624	26.12	0.15	-0.750			
0.7145	45726.31	3.4910	3.4909	-1.4102	26.14	0.17	-0.750			
0.7186	45989.13	3.4880	3.4880	-1.3683	26.16	0.19	-0.750			
0.7226	46246.21	3.4850	3.4849	-1.3131	26.18	0.21	-0.750			
0.7265	46497.58	3.4820	3.4819	-1.2807	26.19	0.22	-0.750			
0.7303	46738.76	3.4790	3.4790	-1.2304	26.20	0.23	-0.750			
0.7339	46967.48	3.4760	3.4761	-1.1941	26.21	0.24	-0.750			
0.7375	47197.79	3.4730	3.4730	-1.1632	26.23	0.26	-0.750			
0.7409	47416.30	3.4700	3.4699	-1.1202	26.24	0.27	-0.750			
0.7442	47627.86	3.4670	3.4670	-1.0805	26.25	0.28	-0.750			
0.7474	47833.92	3.4640	3.4639	-1.0459	26.27	0.30	-0.750			
0.7504	48028.31	3.4610	3.4609	-1.0125	26.28	0.31	-0.750			
0.7534	48220.05	3.4580	3.4579	-0.9798	26.29	0.32	-0.750			
0.7563	48400.74	3.4550	3.4549	-0.9487	26.30	0.33	-0.750			
0.7591	48583.31	3.4520	3.4521	-0.9292	26.31	0.34	-0.750			
0.7618	48757.66	3.4490	3.4490	-0.9107	26.32	0.35	-0.750			
0.7645	48929.05	3.4460	3.4459	-0.8975	26.33	0.36	-0.750			
0.7671	49093.91	3.4430	3.4431	-0.8898	26.34	0.37	-0.750			
0.7698	49265.16	3.4400	3.4399	-0.9049	26.35	0.38	-0.750			
0.7724	49436.49	3.4370	3.4369	-0.9266	26.36	0.39	-0.750			
0.7753	49616.89	3.4340	3.4339	-0.9466	26.37	0.40	-0.750			
0.7781	49800.28	3.4310	3.4310	-0.9799	26.37	0.40	-0.750			
0.7811	49991.51	3.4280	3.4280	-1.0071	26.38	0.41	-0.750			
0.7842	50188.97	3.4250	3.4250	-1.0396	26.39	0.42	-0.750			
0.7874	50392.47	3.4220	3.4219	-1.0621	26.41	0.44	-0.750			
0.7907	50601.70	3.4190	3.4190	-1.0715	26.42	0.45	-0.750			
0.7940	50812.82	3.4160	3.4159	-1.0673	26.43	0.46	-0.750			
0.7972	51020.00	3.4130	3.4130	-1.0598	26.44	0.47	-0.750			
0.8004	51222.77	3.4100	3.4101	-1.0322	26.45	0.48	-0.750			
0.8034	51419.79	3.4070	3.4069	-1.0044	26.45	0.48	-0.750			
0.8064	51608.26	3.4040	3.4040	-0.9702	26.46	0.49	-0.750			
0.8093	51792.61	3.4010	3.4011	-0.9373	26.46	0.49	-0.750			
0.8120	51970.72	3.3980	3.3980	-0.9121	26.47	0.50	-0.750			
0.8147	52142.54	3.3950	3.3950	-0.8735	26.48	0.51	-0.750			
0.8173	52305.30	3.3920	3.3920	-0.8382	26.49	0.52	-0.750			
0.8198	52464.47	3.3890	3.3889	-0.8072	26.50	0.53	-0.750			
0.8221	52615.17	3.3860	3.3861	-0.7758	26.50	0.53	-0.750			
0.8244	52760.77	3.3830	3.3830	-0.7448	26.51	0.54	-0.750			
0.8266	52900.34	3.3800	3.3800	-0.7217	26.51	0.54	-0.750			
0.8287	53035.50	3.3770	3.3769	-0.6930	26.52	0.55	-0.750			
0.8308	53168.28	3.3740	3.3740	-0.6686	26.52	0.55	-0.750			
0.8327	53293.52	3.3710	3.3712	-0.6377	26.53	0.56	-0.750			
0.8346	53413.83	3.3680	3.3680	-0.6148	26.53	0.56	-0.750			
0.8364	53528.45	3.3650	3.3650	-0.5862	26.54	0.57	-0.750			
0.8381	53636.79	3.3620	3.3619	-0.5599	26.55	0.58	-0.750			
0.8397	53740.80	3.3590	3.3590	-0.5370	26.55	0.58	-0.750			
0.8413	53843.18	3.3560	3.3560	-0.5219	26.56	0.59	-0.750			
0.8428	53941.66	3.3530	3.3530	-0.5023	26.56	0.59	-0.750			
0.8443	54036.50	3.3500	3.3499	-0.4837	26.57	0.60	-0.750			
0.8457	54127.23	3.3470	3.3471	-0.4643	26.57	0.60	-0.750			
0.8471	54215.30	3.3440	3.3440	-0.4469	26.58	0.61	-0.750			
0.8484	54298.48	3.3410	3.3410	-0.4317	26.58	0.61	-0.750			
0.8497	54378.79	3.3380	3.3381	-0.4155	26.59	0.62	-0.750			
0.8509	54457.05	3.3350	3.3349	-0.4008	26.60	0.63	-0.750			
0.8521	54532.94	3.3320	3.3320	-0.3865	26.60	0.63	-0.750			
0.8532	54605.79	3.3290	3.3291	-0.3731	26.61	0.64	-0.750			
0.8543	54676.08	3.3260	3.3260	-0.3599	26.61	0.64	-0.750			
0.8554	54743.99	3.3230	3.3230	-0.3465	26.62	0.65	-0.750			
0.8564	54808.44	3.3200	3.3200	-0.3335	26.62	0.65	-0.750			
0.8574	54871.33	3.3170	3.3170	-0.3234	26.63	0.66	-0.750			
0.8583	54932.71	3.3140	3.3140	-0.3128	26.63	0.66	-0.750			
0.8592	54991.40	3.3110	3.3110	-0.3036	26.64	0.67	-0.750			
0.8601	55048.49	3.3080	3.3080	-0.2938	26.64	0.67	-0.750			
0.8610	55104.07	3.3050	3.3050	-0.2842	26.65	0.68	-0.750			
0.8618	55157.77	3.3020	3.3020	-0.2759	26.65	0.68	-0.750			
0.8627	55209.63	3.2990	3.2991	-0.2682	26.66	0.69	-0.750			
0.8634	55260.19	3.2960	3.2959	-0.2604	26.66	0.69	-0.750			
0.8642	55309.30	3.2930	3.2930	-0.2545	26.66	0.69	-0.750			
0.8649	55356.78	3.2900	3.2900	-0.2472	26.67	0.70	-0.750			
0.8657	55404.19	3.2870	3.2870	-0.2420	26.67	0.70	-0.750			
0.8664	55450.16	3.2840	3.2839	-0.2368	26.68	0.71	-0.750			
0.8671	55494.74	3.2810	3.2810	-0.2312	26.68	0.71	-0.750			
0.8678	55538.67	3.2780	3.2780	-0.2264	26.68	0.71	-0.750			
0.8685	55581.52	3.2750	3.2750	-0.2219	26.69	0.72	-0.750			
0.8691	55624.05	3.2720	3.2720	-0.2165	26.69	0.72	-0.750			
0.8698	55665.03	3.2690	3.2690	-0.2107	26.70	0.73	-0.750			
0.8704	55704.78	3.2660	3.2661	-0.2061	26.70	0.73	-0.750			
0.8710	55744.12	3.2630	3.2629	-0.2015	26.70	0.73	-0.750			
0.8716	55781.82	3.2600	3.2599	-0.1976	26.71	0.74	-0.750			
0.8722	55818.93	3.2570	3.2569	-0.1936	26.72	0.75	-0.750			
0.8727	55855.63	3.2540	3.2541	-0.1908	26.72	0.75	-0.750			
0.8733	55892.09	3.2510	3.2509	-0.1890	26.73	0.76	-0.750			
0.8739	55928.53	3.2480	3.2480	-0.1863	26.73	0.76	-0.750			
0.8744	55964.28	3.2450	3.2449	-0.1835	26.74	0.77	-0.750			
0.8750	55998.97	3.2420	3.2421	-0.1806	26.74	0.77	-0.750			
0.8755	56033.37	3.2390	3.2391	-0.1777	26.75	0.78	-0.750			
0.8760	56067.19	3.2360	3.2360	-0.1744	26.75	0.78	-0.750			
0.8766	56100.40	3.2330	3.2330	-0.1717	26.76	0.79	-0.750			
0.8771	56132.89	3.2300	3.2300	-0.1685	26.76	0.79	-0.750			
0.8776	56164.87	3.2270	3.2271	-0.1672	26.77	0.80	-0.750			
0.8781	56196.87	3.2240	3.2239	-0.1653	26.77	0.80	-0.750			
0.8786	56228.42	3.2210	3.2209	-0.1631	26.78	0.81	-0.750			
0.8791	56259.50	3.2180	3.2181	-0.1608	26.78	0.81	-0.750			
0.8795	56290.20	3.2150	3.2150	-0.1590	26.79	0.82	-0.750			
0.8800	56320.83	3.2120	3.2120	-0.1575	26.79	0.82	-0.750			
0.8805	56350.78	3.2090	3.2089	-0.1553	26.80	0.83	-0.750			
0.8809	56380.34	3.2060	3.2060	-0.1533	26.80	0.83	-0.750			
0.8814	56409.31	3.2030	3.2029	-0.1511	26.80	0.83	-0.750			
0.8818	56438.14	3.2000	3.2000	-0.1499	26.80	0.83	-0.750			
0.8823	56466.75	3.1970	3.1970	-0.1485	26.80	0.83	-0.750			
0.8827	56495.09	3.1940	3.1939	-0.1471	26.80	0.83	-0.750			
0.8832	56523.24	3.1910	3.1910	-0.1459	26.80	0.83	-0.750			
0.8836	56551.21	3.1880	3.1881	-0.1443	26.81	0.84	-0.750			
0.8840	56578.88	3.1850	3.1850	-0.1430	26.81	0.84	-0.750			
0.8845	56606.19	3.1820	3.1819	-0.1411	26.82	0.85	-0.750			
0.8849	56633.09	3.1790	3.1790	-0.1399	26.82	0.85	-0.750			
0.8853	56659.72	3.1760	3.1760	-0.1381	26.83	0.86	-0.750			
0.8857	56686.09	3.1730	3.1729	-0.1367	26.83	0.86	-0.750			
0.8861	56712.10	3.1700	3.1700	-0.1357	26.84	0.87	-0.750			
0.8865	56738.03	3.1670	3.1671	-0.1343	26.84	0.87	-0.750			
0.8869	56763.72	3.1640	3.1639	-0.1335	26.85	0.88	-0.750			
0.8873	56789.25	3.1610	3.1610	-0.1325	26.85	0.88	-0.750			
0.8877	56814.62	3.1580	3.1580	-0.1315	26.86	0.89	-0.750			
0.8881	56839.60	3.1550	3.1550	-0.1302	26.86	0.89	-0.750			
0.8885	56864.58	3.1520	3.1521	-0.1299	26.87	0.90	-0.750			
0.8889	56889.66	3.1490	3.1490	-0.1284	26.87	0.90	-0.750			
0.8893	56914.19	3.1460	3.1459	-0.1271	26.88	0.91	-0.750			
0.8897	56938.52	3.1430	3.1430	-0.1263	26.88	0.91	-0.750			
0.8900	56962.64	3.1400	3.1401	-0.1250	26.89	0.92	-0.750			
0.8904	56986.38	3.1370	3.1371	-0.1238	26.89	0.92	-0.750			
0.8908	57010.00	3.1340	3.1339	-0.1227	26.90	0.93	-0.750			
0.8911	57033.34	3.1310	3.1310	-0.1221	26.90	0.93	-0.750			
0.8915	57056.41	3.1280	3.1281	-0.1211	26.91	0.94	-0.750			
0.8919	57079.78	3.1250	3.1250	-0.1205	26.91	0.94	-0.750			
0.8922	57103.15	3.1220	3.1220	-0.1204	26.92	0.95	-0.750			
0.8926	57126.19	3.1190	3.1190	-0.1196	26.92	0.95	-0.750			
0.8930	57149.00	3.1160	3.1160	-0.1187	26.93	0.96	-0.750			
0.8933	57171.74	3.1130	3.1130	-0.1178	26.93	0.96	-0.750			
0.8937	57194.42	3.1100	3.1100	-0.1172	26.94	0.97	-0.750			
0.8940	57216.77	3.1070	3.1071	-0.1164	26.94	0.97	-0.750			
0.8944	57238.91	3.1040	3.1039	-0.1154	26.94	0.97	-0.750			
0.8947	57261.08	3.1010	3.1010	-0.1145	26.95	0.98	-0.750			
0.8950	57283.04	3.0980	3.0978	-0.1137	26.95	0.98	-0.750			
0.8954	57304.80	3.0950	3.0951	-0.1127	26.96	0.99	-0.750			
0.8957	57326.39	3.0920	3.0920	-0.1118	26.96	0.99	-0.750			
0.8961	57347.76	3.0890	3.0890	-0.1108	26.97	1.00	-0.750			
0.8964	57368.96	3.0860	3.0860	-0.1098	26.97	1.00	-0.750			
0.8967	57389.72	3.0830	3.0829	-0.1094	26.98	1.01	-0.750			
0.8970	57410.47	3.0800	3.0801	-0.1086	26.98	1.01	-0.750			
0.8974	57431.25	3.0770	3.0770	-0.1085	26.99	1.02	-0.750			
0.8977	57451.90	3.0740	3.0740	-0.1081	26.99	1.02	-0.750			
0.8980	57472.90	3.0710	3.0708	-0.1074	26.99	1.02	-0.750			
0.8983	57493.61	3.0680	3.0681	-0.1072	27.00	1.03	-0.750			
0.8987	57514.12	3.0650	3.0649	-0.1065	27.00	1.03	-0.750			
0.8990	57534.75	3.0620	3.0620	-0.1062	27.01	1.04	-0.750			
0.8993	57554.87	3.0590	3.0591	-0.1057	27.01	1.04	-0.750			
0.8996	57574.90	3.0560	3.0560	-0.1047	27.02	1.05	-0.750			
0.8999	57594.98	3.0530	3.0529	-0.1044	27.02	1.05	-0.750			
0.9002	57614.99	3.0500	3.0500	-0.1031	27.02	1.05	-0.750			
0.9005	57634.72	3.0470	3.0471	-0.1024	27.03	1.06	-0.750			
0.9009	57654.59	3.0440	3.0441	-0.1019	27.03	1.06	-0.750			
0.9012	57674.05	3.0410	3.0410	-0.1008	27.04	1.07	-0.750			
0.9015	57692.96	3.0380	3.0380	-0.1006	27.04	1.07	-0.750			
0.9018	57712.25	3.0350	3.0350	-0.1004	27.05	1.08	-0.750			
0.9021	57731.47	3.0320	3.0319	-0.0990	27.05	1.08	-0.750			
0.9024	57750.44	3.0290	3.0289	-0.0986	27.05	1.08	-0.750			
0.9027	57769.62	3.0260	3.0260	-0.0984	27.06	1.09	-0.750			
0.9029	57788.42	3.0230	3.0232	-0.0974	27.06	1.09	-0.750			
0.9032	57807.02	3.0200	3.0198	-0.0969	27.07	1.10	-0.750			
0.9035	57825.53	3.0170	3.0170	-0.0960	27.07	1.10	-0.750			
0.9038	57843.44	3.0140	3.0142	-0.0950	27.07	1.10	-0.750			
0.9041	57861.69	3.0110	3.0110	-0.0951	27.08	1.11	-0.750			
0.9044	57880.10	3.0080	3.0079	-0.0951	27.08	1.11	-0.751			
0.9047	57898.32	3.0050	3.0050	-0.0947	27.09	1.12	-0.751			
0.9049	57916.47	3.0020	3.0020	-0.0953	27.09	1.12	-0.751			
