Ah_balance (normalized)	Ah_balance (mAh)	Voltage - fit (V)	Voltage -  interpolate (V)	dQ/dV (1/V)	Temperature (°C)	Temperature - diff (°C)	Current (C)	R_DC 0ms (mOhm)	R_DC 50ms (mOhm)	R_DC 50 ms PEC (mOhm)
0.0002	15.57	4.1660	4.1662	-0.1411	25.48	0.01	-0.750			
0.0007	46.09	4.1630	4.1631	-0.1827	25.48	0.01	-0.750			
0.0013	85.21	4.1600	4.1600	-0.2306	25.48	0.01	-0.750			
0.0021	135.50	4.1570	4.1569	-0.2750	25.48	0.01	-0.750			
0.0030	192.66	4.1540	4.1540	-0.3182	25.47	0.00	-0.750			
0.0040	257.87	4.1510	4.1510	-0.3626	25.47	0.00	-0.750			
0.0052	332.15	4.1480	4.1480	-0.4058	25.47	-0.00	-0.750			
0.0065	414.51	4.1450	4.1450	-0.4456	25.47	-0.00	-0.750			
0.0079	503.81	4.1420	4.1420	-0.4831	25.46	-0.01	-0.750			
0.0094	600.83	4.1390	4.1391	-0.5196	25.46	-0.01	-0.750			
0.0110	705.97	4.1360	4.1359	-0.5545	25.45	-0.02	-0.750			
0.0128	816.34	4.1330	4.1330	-0.5855	25.45	-0.02	-0.750			
0.0146	932.78	4.1300	4.1299	-0.6078	25.45	-0.02	-0.750			
0.0165	1053.66	4.1270	4.1271	-0.6298	25.44	-0.03	-0.750			
0.0184	1177.01	4.1240	4.1239	-0.6465	25.44	-0.03	-0.750			
0.0204	1302.96	4.1210	4.1210	-0.6608	25.43	-0.04	-0.750			
0.0223	1430.26	4.1180	4.1180	-0.6764	25.43	-0.04	-0.750			
0.0244	1560.61	4.1150	4.1150	-0.6871	25.43	-0.04	-0.750			
0.0265	1694.69	4.1120	4.1120	-0.6997	25.43	-0.04	-0.750			
0.0286	1831.57	4.1090	4.1090	-0.7092	25.42	-0.05	-0.750			
0.0308	1969.50	4.1060	4.1059	-0.7174	25.42	-0.05	-0.750			
0.0329	2107.28	4.1030	4.1031	-0.7247	25.41	-0.06	-0.750			
0.0351	2247.17	4.1000	4.0999	-0.7339	25.41	-0.06	-0.750			
0.0373	2387.92	4.0970	4.0970	-0.7417	25.41	-0.06	-0.750			
0.0396	2533.31	4.0940	4.0940	-0.7474	25.40	-0.07	-0.750			
0.0418	2677.95	4.0910	4.0912	-0.7539	25.40	-0.07	-0.750			
0.0441	2824.15	4.0880	4.0879	-0.7543	25.40	-0.07	-0.750			
0.0464	2968.90	4.0850	4.0850	-0.7543	25.40	-0.07	-0.750			
0.0486	3112.96	4.0820	4.0820	-0.7588	25.40	-0.07	-0.750			
0.0509	3258.04	4.0790	4.0790	-0.7591	25.40	-0.07	-0.750			
0.0532	3405.24	4.0760	4.0759	-0.7629	25.40	-0.07	-0.750			
0.0555	3551.97	4.0730	4.0731	-0.7693	25.40	-0.07	-0.750			
0.0578	3699.07	4.0700	4.0700	-0.7739	25.40	-0.07	-0.750			
0.0601	3849.03	4.0670	4.0669	-0.7790	25.40	-0.07	-0.750			
0.0625	3998.87	4.0640	4.0640	-0.7740	25.39	-0.08	-0.750			
0.0648	4149.51	4.0610	4.0610	-0.7811	25.39	-0.08	-0.750			
0.0672	4299.45	4.0580	4.0585	-0.7842	25.39	-0.08	-0.750			
0.0695	4449.88	4.0550	4.0549	-0.7834	25.39	-0.08	-0.750			
0.0719	4598.55	4.0520	4.0520	-0.7849	25.39	-0.08	-0.750			
0.0742	4750.27	4.0490	4.0490	-0.7895	25.40	-0.07	-0.750			
0.0766	4903.24	4.0460	4.0460	-0.7914	25.40	-0.07	-0.750			
0.0790	5055.48	4.0430	4.0429	-0.7937	25.40	-0.07	-0.750			
0.0814	5206.53	4.0400	4.0400	-0.7924	25.40	-0.07	-0.750			
0.0837	5358.09	4.0370	4.0368	-0.7990	25.40	-0.07	-0.750			
0.0861	5512.61	4.0340	4.0340	-0.7995	25.39	-0.08	-0.750			
0.0885	5665.55	4.0310	4.0310	-0.8029	25.39	-0.08	-0.750			
0.0910	5823.17	4.0280	4.0280	-0.8036	25.39	-0.08	-0.750			
0.0934	5977.91	4.0250	4.0250	-0.8027	25.39	-0.08	-0.750			
0.0958	6128.87	4.0220	4.0220	-0.8038	25.39	-0.08	-0.750			
0.0982	6283.30	4.0190	4.0190	-0.8054	25.39	-0.08	-0.750			
0.1006	6437.36	4.0160	4.0159	-0.8036	25.40	-0.07	-0.750			
0.1030	6593.21	4.0130	4.0130	-0.8078	25.40	-0.07	-0.750			
0.1054	6748.10	4.0100	4.0100	-0.8093	25.40	-0.07	-0.750			
0.1079	6903.43	4.0070	4.0071	-0.8194	25.41	-0.06	-0.750			
0.1103	7061.97	4.0040	4.0039	-0.8156	25.41	-0.06	-0.750			
0.1128	7218.37	4.0010	4.0010	-0.8164	25.41	-0.06	-0.750			
0.1153	7376.55	3.9980	3.9980	-0.8212	25.42	-0.05	-0.750			
0.1177	7535.88	3.9950	3.9950	-0.8193	25.42	-0.05	-0.750			
0.1202	7692.15	3.9920	3.9919	-0.8154	25.42	-0.05	-0.750			
0.1226	7845.88	3.9890	3.9891	-0.8187	25.42	-0.05	-0.750			
0.1250	8002.54	3.9860	3.9860	-0.8196	25.42	-0.05	-0.750			
0.1276	8163.37	3.9830	3.9829	-0.8290	25.42	-0.05	-0.750			
0.1300	8322.25	3.9800	3.9801	-0.8279	25.42	-0.05	-0.750			
0.1325	8481.31	3.9770	3.9770	-0.8317	25.42	-0.05	-0.750			
0.1350	8642.37	3.9740	3.9740	-0.8425	25.43	-0.04	-0.750			
0.1376	8804.64	3.9710	3.9709	-0.8366	25.43	-0.04	-0.750			
0.1401	8965.63	3.9680	3.9679	-0.8368	25.44	-0.03	-0.750			
0.1426	9126.70	3.9650	3.9653	-0.8361	25.44	-0.03	-0.750			
0.1451	9287.26	3.9620	3.9618	-0.8377	25.44	-0.03	-0.750			
0.1476	9448.28	3.9590	3.9590	-0.8434	25.44	-0.03	-0.750			
0.1501	9608.57	3.9560	3.9559	-0.8413	25.45	-0.02	-0.750			
0.1527	9773.98	3.9530	3.9529	-0.8429	25.45	-0.02	-0.750			
0.1553	9936.44	3.9500	3.9502	-0.8419	25.45	-0.02	-0.750			
0.1578	10096.19	3.9470	3.9470	-0.8455	25.45	-0.02	-0.750			
0.1603	10258.84	3.9440	3.9439	-0.8510	25.45	-0.02	-0.750			
0.1628	10419.32	3.9410	3.9408	-0.8469	25.46	-0.01	-0.750			
0.1654	10586.09	3.9380	3.9380	-0.8567	25.46	-0.01	-0.750			
0.1680	10752.74	3.9350	3.9352	-0.8604	25.46	-0.01	-0.750			
0.1706	10918.39	3.9320	3.9318	-0.8621	25.47	-0.00	-0.750			
0.1732	11082.72	3.9290	3.9289	-0.8571	25.47	-0.00	-0.750			
0.1757	11243.02	3.9260	3.9261	-0.8520	25.47	0.00	-0.750			
0.1782	11406.51	3.9230	3.9230	-0.8610	25.48	0.01	-0.750			
0.1809	11574.43	3.9200	3.9199	-0.8657	25.48	0.01	-0.750			
0.1834	11740.72	3.9170	3.9170	-0.8736	25.49	0.02	-0.750			
0.1861	11909.44	3.9140	3.9140	-0.8769	25.49	0.02	-0.750			
0.1887	12078.36	3.9110	3.9110	-0.8780	25.49	0.02	-0.750			
0.1914	12248.95	3.9080	3.9079	-0.8814	25.50	0.03	-0.750			
0.1940	12416.86	3.9050	3.9050	-0.8827	25.50	0.03	-0.750			
0.1967	12586.44	3.9020	3.9019	-0.8797	25.50	0.03	-0.750			
0.1993	12755.90	3.8990	3.8990	-0.8804	25.50	0.03	-0.750			
0.2019	12923.75	3.8960	3.8960	-0.8761	25.50	0.03	-0.750			
0.2046	13092.68	3.8930	3.8933	-0.8842	25.50	0.03	-0.750			
0.2072	13261.39	3.8900	3.8900	-0.8890	25.50	0.03	-0.750			
0.2099	13432.52	3.8870	3.8869	-0.8896	25.51	0.04	-0.750			
0.2126	13603.60	3.8840	3.8840	-0.8935	25.51	0.04	-0.750			
0.2153	13777.60	3.8810	3.8810	-0.8976	25.52	0.05	-0.750			
0.2180	13950.38	3.8780	3.8781	-0.8931	25.52	0.05	-0.750			
0.2206	14121.04	3.8750	3.8750	-0.8985	25.53	0.06	-0.750			
0.2233	14292.78	3.8720	3.8720	-0.8935	25.53	0.06	-0.750			
0.2260	14463.75	3.8690	3.8690	-0.8940	25.53	0.06	-0.750			
0.2287	14636.88	3.8660	3.8659	-0.8969	25.54	0.07	-0.750			
0.2314	14808.20	3.8630	3.8630	-0.9000	25.54	0.07	-0.750			
0.2341	14981.74	3.8600	3.8600	-0.9045	25.55	0.08	-0.750			
0.2368	15155.57	3.8570	3.8570	-0.9039	25.55	0.08	-0.750			
0.2395	15327.53	3.8540	3.8540	-0.9020	25.56	0.09	-0.750			
0.2423	15504.85	3.8510	3.8512	-0.9044	25.56	0.09	-0.750			
0.2449	15675.99	3.8480	3.8480	-0.9071	25.56	0.09	-0.750			
0.2477	15850.23	3.8450	3.8450	-0.9093	25.56	0.09	-0.750			
0.2504	16023.68	3.8420	3.8420	-0.9131	25.57	0.10	-0.750			
0.2531	16200.21	3.8390	3.8389	-0.9128	25.57	0.10	-0.750			
0.2559	16377.22	3.8360	3.8360	-0.9123	25.57	0.10	-0.750			
0.2586	16553.49	3.8330	3.8330	-0.9196	25.58	0.11	-0.750			
0.2614	16731.29	3.8300	3.8299	-0.9161	25.58	0.11	-0.750			
0.2641	16904.63	3.8270	3.8269	-0.9075	25.59	0.12	-0.750			
0.2669	17080.04	3.8240	3.8244	-0.9095	25.59	0.12	-0.750			
0.2696	17251.75	3.8210	3.8210	-0.9145	25.59	0.12	-0.750			
0.2723	17429.76	3.8180	3.8179	-0.9154	25.59	0.12	-0.750			
0.2751	17605.11	3.8150	3.8150	-0.9118	25.60	0.13	-0.750			
0.2778	17781.20	3.8120	3.8119	-0.9196	25.60	0.13	-0.750			
0.2806	17957.74	3.8090	3.8091	-0.9160	25.60	0.13	-0.750			
0.2833	18131.98	3.8060	3.8060	-0.9235	25.61	0.14	-0.750			
0.2861	18309.81	3.8030	3.8029	-0.9252	25.61	0.14	-0.750			
0.2889	18487.56	3.8000	3.8000	-0.9207	25.61	0.14	-0.750			
0.2917	18667.57	3.7970	3.7972	-0.9273	25.62	0.15	-0.750			
0.2945	18845.02	3.7940	3.7940	-0.9344	25.62	0.15	-0.750			
0.2973	19024.53	3.7910	3.7910	-0.9296	25.63	0.16	-0.750			
0.3000	19202.19	3.7880	3.7879	-0.9257	25.63	0.16	-0.750			
0.3028	19378.89	3.7850	3.7850	-0.9184	25.64	0.17	-0.750			
0.3056	19559.59	3.7820	3.7820	-0.9195	25.64	0.17	-0.750			
0.3083	19734.12	3.7790	3.7790	-0.9258	25.65	0.18	-0.750			
0.3111	19908.80	3.7760	3.7760	-0.9295	25.65	0.18	-0.750			
0.3138	20086.09	3.7730	3.7729	-0.9344	25.65	0.18	-0.750			
0.3167	20269.07	3.7700	3.7701	-0.9514	25.66	0.19	-0.750			
0.3196	20454.03	3.7670	3.7670	-0.9583	25.66	0.19	-0.750			
0.3225	20641.53	3.7640	3.7641	-0.9576	25.67	0.20	-0.750			
0.3254	20827.09	3.7610	3.7609	-0.9536	25.67	0.20	-0.750			
0.3282	21006.98	3.7580	3.7580	-0.9400	25.68	0.21	-0.750			
0.3311	21188.03	3.7550	3.7551	-0.9314	25.68	0.21	-0.750			
0.3338	21365.03	3.7520	3.7520	-0.9348	25.69	0.22	-0.750			
0.3366	21542.35	3.7490	3.7489	-0.9341	25.69	0.22	-0.750			
0.3394	21721.12	3.7460	3.7460	-0.9361	25.70	0.23	-0.750			
0.3422	21903.08	3.7430	3.7432	-0.9398	25.70	0.23	-0.750			
0.3451	22085.25	3.7400	3.7400	-0.9466	25.70	0.23	-0.750			
0.3479	22267.85	3.7370	3.7370	-0.9505	25.71	0.24	-0.750			
0.3508	22450.44	3.7340	3.7339	-0.9529	25.71	0.24	-0.750			
0.3536	22632.17	3.7310	3.7310	-0.9569	25.72	0.25	-0.750			
0.3565	22816.12	3.7280	3.7279	-0.9645	25.72	0.25	-0.750			
0.3594	23001.59	3.7250	3.7250	-0.9725	25.72	0.25	-0.750			
0.3623	23189.40	3.7220	3.7219	-0.9801	25.72	0.25	-0.750			
0.3652	23375.72	3.7190	3.7191	-0.9904	25.72	0.25	-0.750			
0.3682	23565.51	3.7160	3.7160	-1.0138	25.72	0.25	-0.750			
0.3713	23764.18	3.7130	3.7130	-1.0234	25.73	0.26	-0.750			
0.3744	23962.98	3.7100	3.7099	-1.0346	25.74	0.27	-0.750			
0.3776	24163.60	3.7070	3.7071	-1.0524	25.75	0.28	-0.750			
0.3807	24365.04	3.7040	3.7040	-1.0739	25.75	0.28	-0.750			
0.3840	24573.44	3.7010	3.7009	-1.0879	25.75	0.28	-0.750			
0.3872	24782.59	3.6980	3.6980	-1.1019	25.75	0.28	-0.750			
0.3905	24993.29	3.6950	3.6950	-1.1170	25.75	0.28	-0.750			
0.3940	25214.47	3.6920	3.6919	-1.1511	25.75	0.28	-0.750			
0.3975	25436.88	3.6890	3.6890	-1.1670	25.75	0.28	-0.750			
0.4010	25661.55	3.6860	3.6859	-1.1830	25.75	0.28	-0.750			
0.4045	25888.37	3.6830	3.6832	-1.2060	25.75	0.28	-0.750			
0.4082	26125.30	3.6800	3.6799	-1.2360	25.74	0.27	-0.750			
0.4119	26363.32	3.6770	3.6770	-1.2605	25.73	0.26	-0.750			
0.4157	26605.67	3.6740	3.6739	-1.2960	25.72	0.25	-0.750			
0.4197	26859.43	3.6710	3.6710	-1.3246	25.72	0.25	-0.750			
0.4237	27116.98	3.6680	3.6679	-1.3511	25.72	0.25	-0.750			
0.4278	27378.34	3.6650	3.6650	-1.3788	25.72	0.25	-0.750			
0.4319	27644.70	3.6620	3.6620	-1.4045	25.72	0.25	-0.750			
0.4362	27915.94	3.6590	3.6590	-1.4401	25.71	0.24	-0.750			
0.4405	28194.54	3.6560	3.6559	-1.4814	25.70	0.23	-0.750			
0.4450	28482.01	3.6530	3.6529	-1.5148	25.70	0.23	-0.750			
0.4497	28778.68	3.6500	3.6498	-1.5679	25.69	0.22	-0.750			
0.4544	29082.52	3.6470	3.6473	-1.6112	25.68	0.21	-0.750			
0.4593	29396.78	3.6440	3.6440	-1.6462	25.67	0.20	-0.750			
0.4644	29718.44	3.6410	3.6409	-1.6951	25.66	0.19	-0.750			
0.4695	30050.97	3.6380	3.6379	-1.7130	25.66	0.19	-0.750			
0.4748	30385.18	3.6350	3.6350	-1.7480	25.65	0.18	-0.750			
0.4800	30718.08	3.6320	3.6320	-1.7814	25.64	0.17	-0.750	0.411	0.487	
0.4853	31062.02	3.6290	3.6289	-1.8140	25.63	0.16	-0.750			
0.4908	31411.46	3.6260	3.6260	-1.8413	25.62	0.15	-0.750			
0.4964	31767.41	3.6230	3.6228	-1.8835	25.61	0.14	-0.750			
0.5021	32134.87	3.6200	3.6202	-1.9310	25.60	0.13	-0.750			
0.5080	32513.49	3.6170	3.6168	-1.9892	25.60	0.13	-0.750			
0.5141	32900.83	3.6140	3.6142	-1.9987	25.60	0.13	-0.750			
0.5201	33288.69	3.6110	3.6111	-2.0255	25.59	0.12	-0.750			
0.5263	33680.96	3.6080	3.6081	-2.0641	25.58	0.11	-0.750			
0.5325	34077.70	3.6050	3.6047	-2.0811	25.57	0.10	-0.750			
0.5387	34478.29	3.6020	3.6021	-2.1283	25.56	0.09	-0.750			
0.5451	34887.92	3.5990	3.5991	-2.1676	25.56	0.09	-0.750			
0.5517	35306.63	3.5960	3.5960	-2.2180	25.56	0.09	-0.750			
0.5585	35745.28	3.5930	3.5930	-2.2410	25.55	0.08	-0.750			
0.5653	36181.25	3.5900	3.5900	-2.2708	25.54	0.07	-0.750			
0.5721	36616.10	3.5870	3.5870	-2.3046	25.54	0.07	-0.750			
0.5791	37060.40	3.5840	3.5839	-2.3350	25.53	0.06	-0.750			
0.5861	37508.74	3.5810	3.5810	-2.3532	25.52	0.05	-0.750			
0.5932	37963.35	3.5780	3.5780	-2.3815	25.52	0.05	-0.750			
0.6004	38424.46	3.5750	3.5751	-2.4241	25.52	0.05	-0.750			
0.6078	38898.49	3.5720	3.5717	-2.4592	25.52	0.05	-0.750			
0.6152	39375.73	3.5690	3.5689	-2.4565	25.51	0.04	-0.750			
0.6227	39850.27	3.5660	3.5661	-2.4490	25.51	0.04	-0.750			
0.6300	40322.80	3.5630	3.5631	-2.4582	25.51	0.04	-0.750			
0.6374	40791.35	3.5600	3.5599	-2.4452	25.51	0.04	-0.750			
0.6446	41255.92	3.5570	3.5570	-2.4299	25.51	0.04	-0.750			
0.6520	41726.58	3.5540	3.5542	-2.4192	25.51	0.04	-0.750			
0.6593	42192.15	3.5510	3.5510	-2.4271	25.51	0.04	-0.750			
0.6665	42656.99	3.5480	3.5479	-2.4017	25.52	0.05	-0.750			
0.6737	43118.07	3.5450	3.5448	-2.3834	25.52	0.05	-0.750			
0.6809	43578.27	3.5420	3.5420	-2.3420	25.52	0.05	-0.750			
0.6879	44025.58	3.5390	3.5392	-2.3000	25.53	0.06	-0.750			
0.6947	44460.07	3.5360	3.5361	-2.2589	25.53	0.06	-0.750			
0.7015	44893.30	3.5330	3.5326	-2.2016	25.54	0.07	-0.750			
0.7079	45308.75	3.5300	3.5302	-2.1297	25.55	0.08	-0.750			
0.7143	45717.29	3.5270	3.5271	-2.0967	25.56	0.09	-0.750			
0.7205	46113.62	3.5240	3.5238	-2.0369	25.57	0.10	-0.750			
0.7265	46497.36	3.5210	3.5209	-1.9666	25.58	0.11	-0.750			
0.7324	46874.55	3.5180	3.5179	-1.9008	25.60	0.13	-0.750			
0.7380	47230.75	3.5150	3.5151	-1.8288	25.61	0.14	-0.750			
0.7434	47575.47	3.5120	3.5120	-1.7688	25.62	0.15	-0.750			
0.7486	47913.07	3.5090	3.5090	-1.6955	25.64	0.17	-0.750			
0.7535	48225.63	3.5060	3.5060	-1.6210	25.66	0.19	-0.750			
0.7583	48532.61	3.5030	3.5030	-1.5630	25.67	0.20	-0.750			
0.7629	48826.84	3.5000	3.4999	-1.5066	25.68	0.21	-0.750			
0.7674	49110.52	3.4970	3.4971	-1.4609	25.69	0.22	-0.750			
0.7716	49383.63	3.4940	3.4939	-1.4009	25.71	0.24	-0.750			
0.7757	49646.15	3.4910	3.4909	-1.3516	25.73	0.26	-0.750			
0.7798	49904.42	3.4880	3.4883	-1.3235	25.75	0.28	-0.750			
0.7837	50154.20	3.4850	3.4848	-1.2743	25.76	0.29	-0.750			
0.7874	50394.90	3.4820	3.4819	-1.2304	25.78	0.31	-0.750			
0.7910	50624.54	3.4790	3.4790	-1.1826	25.79	0.32	-0.750			
0.7945	50849.68	3.4760	3.4760	-1.1527	25.80	0.33	-0.750			
0.7979	51067.33	3.4730	3.4729	-1.1095	25.81	0.34	-0.750			
0.8011	51272.51	3.4700	3.4700	-1.0664	25.83	0.36	-0.750			
0.8043	51472.02	3.4670	3.4671	-1.0307	25.84	0.37	-0.750			
0.8073	51668.74	3.4640	3.4640	-1.0140	25.85	0.38	-0.750			
0.8103	51857.73	3.4610	3.4610	-0.9899	25.86	0.39	-0.750			
0.8132	52042.90	3.4580	3.4580	-0.9752	25.87	0.40	-0.750			
0.8160	52226.38	3.4550	3.4550	-0.9802	25.89	0.42	-0.750			
0.8189	52411.33	3.4520	3.4519	-1.0006	25.90	0.43	-0.750			
0.8219	52602.07	3.4490	3.4490	-1.0332	25.91	0.44	-0.750			
0.8250	52799.23	3.4460	3.4460	-1.0768	25.92	0.45	-0.750			
0.8283	53008.02	3.4430	3.4430	-1.1333	25.93	0.46	-0.750			
0.8318	53232.71	3.4400	3.4399	-1.1957	25.94	0.47	-0.750			
0.8355	53471.43	3.4370	3.4370	-1.2460	25.95	0.48	-0.750			
0.8394	53719.16	3.4340	3.4339	-1.2826	25.96	0.49	-0.750			
0.8434	53977.23	3.4310	3.4311	-1.2969	25.97	0.50	-0.750			
0.8475	54237.29	3.4280	3.4280	-1.2839	25.98	0.51	-0.750			
0.8513	54484.12	3.4250	3.4250	-1.2490	25.98	0.51	-0.750			
0.8550	54718.87	3.4220	3.4222	-1.2069	25.99	0.52	-0.750			
0.8585	54947.17	3.4190	3.4189	-1.1525	26.00	0.53	-0.750			
0.8619	55162.36	3.4160	3.4159	-1.1047	26.01	0.54	-0.750			
0.8651	55367.11	3.4130	3.4130	-1.0577	26.02	0.55	-0.750			
0.8683	55569.62	3.4100	3.4100	-1.0235	26.02	0.55	-0.750			
0.8712	55759.82	3.4070	3.4069	-0.9846	26.03	0.56	-0.750			
0.8741	55942.69	3.4040	3.4040	-0.9441	26.04	0.57	-0.750			
0.8769	56118.87	3.4010	3.4010	-0.9084	26.04	0.57	-0.750			
0.8796	56293.45	3.3980	3.3980	-0.8846	26.05	0.58	-0.750			
0.8822	56459.26	3.3950	3.3950	-0.8471	26.06	0.59	-0.750			
0.8847	56618.96	3.3920	3.3920	-0.8179	26.07	0.60	-0.750			
0.8871	56774.07	3.3890	3.3890	-0.7851	26.07	0.60	-0.750			
0.8894	56920.72	3.3860	3.3859	-0.7519	26.08	0.61	-0.750			
0.8916	57062.50	3.3830	3.3830	-0.7220	26.09	0.62	-0.750			
0.8937	57197.05	3.3800	3.3800	-0.6897	26.10	0.63	-0.750			
0.8957	57326.29	3.3770	3.3770	-0.6615	26.10	0.63	-0.750			
0.8977	57449.96	3.3740	3.3740	-0.6387	26.11	0.64	-0.750			
0.8995	57568.98	3.3710	3.3710	-0.6112	26.11	0.64	-0.750			
0.9013	57685.24	3.3680	3.3679	-0.5882	26.12	0.65	-0.750			
0.9031	57795.56	3.3650	3.3650	-0.5613	26.13	0.66	-0.750			
0.9047	57900.75	3.3620	3.3623	-0.5375	26.13	0.66	-0.750			
0.9063	58001.59	3.3590	3.3590	-0.5133	26.14	0.67	-0.750			
0.9078	58096.67	3.3560	3.3560	-0.4900	26.15	0.68	-0.750			
0.9092	58187.88	3.3530	3.3530	-0.4692	26.15	0.68	-0.750			
0.9106	58276.93	3.3500	3.3500	-0.4506	26.16	0.69	-0.750			
0.9119	58361.69	3.3470	3.3470	-0.4290	26.17	0.70	-0.750			
0.9132	58441.73	3.3440	3.3441	-0.4125	26.17	0.70	-0.750			
0.9144	58518.67	3.3410	3.3411	-0.3943	26.18	0.71	-0.750			
0.9155	58592.27	3.3380	3.3379	-0.3771	26.18	0.71	-0.750			
0.9166	58662.68	3.3350	3.3350	-0.3610	26.19	0.72	-0.750			
0.9177	58730.23	3.3320	3.3320	-0.3459	26.19	0.72	-0.750			
0.9187	58795.80	3.3290	3.3290	-0.3313	26.20	0.73	-0.750			
0.9197	58858.25	3.3260	3.3260	-0.3174	26.20	0.73	-0.750			
0.9206	58916.75	3.3230	3.3230	-0.3023	26.21	0.74	-0.750			
0.9215	58973.71	3.3200	3.3200	-0.2900	26.21	0.74	-0.750			
0.9223	59028.04	3.3170	3.3169	-0.2771	26.22	0.75	-0.750			
0.9231	59079.91	3.3140	3.3141	-0.2650	26.22	0.75	-0.750			
0.9239	59129.32	3.3110	3.3110	-0.2545	26.22	0.75	-0.750			
0.9246	59177.05	3.3080	3.3080	-0.2443	26.23	0.76	-0.750			
0.9254	59222.40	3.3050	3.3050	-0.2334	26.23	0.76	-0.750			
0.9260	59266.13	3.3020	3.3019	-0.2252	26.23	0.76	-0.750			
0.9267	59308.37	3.2990	3.2991	-0.2182	26.24	0.77	-0.750			
0.9273	59349.55	3.2960	3.2959	-0.2107	26.24	0.77	-0.750			
0.9280	59389.15	3.2930	3.2930	-0.2042	26.24	0.77	-0.750			
0.9286	59427.57	3.2900	3.2899	-0.1975	26.25	0.78	-0.750			
0.9291	59464.61	3.2870	3.2870	-0.1911	26.25	0.78	-0.750			
0.9297	59500.97	3.2840	3.2839	-0.1856	26.25	0.78	-0.750			
0.9302	59535.98	3.2810	3.2810	-0.1796	26.26	0.79	-0.750			
0.9308	59569.78	3.2780	3.2780	-0.1734	26.26	0.79	-0.750			
0.9313	59602.15	3.2750	3.2750	-0.1686	26.26	0.79	-0.750			
0.9318	59634.02	3.2720	3.2720	-0.1644	26.27	0.80	-0.750			
0.9323	59664.75	3.2690	3.2688	-0.1596	26.27	0.80	-0.750			
0.9327	59695.05	3.2660	3.2661	-0.1560	26.28	0.81	-0.750			
0.9332	59724.60	3.2630	3.2630	-0.1523	26.28	0.81	-0.750			
0.9336	59753.48	3.2600	3.2600	-0.1491	26.28	0.81	-0.750			
0.9341	59781.77	3.2570	3.2570	-0.1461	26.29	0.82	-0.750			
0.9345	59809.52	3.2540	3.2540	-0.1429	26.29	0.82	-0.750			
0.9349	59836.48	3.2510	3.2510	-0.1394	26.29	0.82	-0.750			
0.9354	59863.00	3.2480	3.2480	-0.1365	26.30	0.83	-0.750			
0.9358	59888.92	3.2450	3.2450	-0.1335	26.30	0.83	-0.750			
0.9362	59914.19	3.2420	3.2420	-0.1306	26.30	0.83	-0.750			
0.9365	59939.03	3.2390	3.2391	-0.1278	26.31	0.84	-0.750			
0.9369	59962.95	3.2360	3.2359	-0.1250	26.31	0.84	-0.750			
0.9373	59986.58	3.2330	3.2330	-0.1224	26.31	0.84	-0.750			
0.9377	60009.90	3.2300	3.2300	-0.1205	26.32	0.85	-0.750			
0.9380	60032.80	3.2270	3.2270	-0.1184	26.32	0.85	-0.750			
0.9384	60055.31	3.2240	3.2240	-0.1167	26.32	0.85	-0.750			
0.9387	60077.48	3.2210	3.2211	-0.1148	26.33	0.86	-0.750			
0.9391	60099.33	3.2180	3.2180	-0.1131	26.33	0.86	-0.750			
0.9394	60120.89	3.2150	3.2150	-0.1114	26.33	0.86	-0.750			
0.9397	60142.16	3.2120	3.2119	-0.1097	26.33	0.86	-0.750			
0.9400	60163.02	3.2090	3.2090	-0.1079	26.34	0.87	-0.750			
0.9404	60183.58	3.2060	3.2060	-0.1062	26.34	0.87	-0.750			
0.9407	60203.81	3.2030	3.2030	-0.1048	26.34	0.87	-0.750			
0.9410	60223.79	3.2000	3.2001	-0.1033	26.34	0.87	-0.750			
0.9413	60243.41	3.1970	3.1969	-0.1016	26.35	0.88	-0.750			
0.9416	60262.77	3.1940	3.1940	-0.1001	26.35	0.88	-0.750			
0.9419	60281.80	3.1910	3.1910	-0.0986	26.35	0.88	-0.750			
0.9422	60300.59	3.1880	3.1879	-0.0971	26.35	0.88	-0.750			
0.9425	60319.04	3.1850	3.1849	-0.0961	26.35	0.88	-0.750			
0.9428	60337.38	3.1820	3.1821	-0.0949	26.36	0.89	-0.750			
0.9431	60355.23	3.1790	3.1790	-0.0938	26.36	0.89	-0.750			
0.9433	60373.19	3.1760	3.1760	-0.0932	26.36	0.89	-0.750			
0.9436	60391.23	3.1730	3.1730	-0.0919	26.37	0.90	-0.750			
0.9439	60408.75	3.1700	3.1700	-0.0906	26.37	0.90	-0.750			
0.9442	60426.09	3.1670	3.1671	-0.0898	26.37	0.90	-0.750			
0.9444	60443.22	3.1640	3.1641	-0.0885	26.38	0.91	-0.750			
0.9447	60459.94	3.1610	3.1610	-0.0875	26.38	0.91	-0.750			
0.9449	60476.66	3.1580	3.1579	-0.0866	26.38	0.91	-0.750			
0.9452	60493.06	3.1550	3.1551	-0.0854	26.39	0.92	-0.750			
0.9455	60509.40	3.1520	3.1519	-0.0848	26.39	0.92	-0.750			
0.9457	60525.81	3.1490	3.1490	-0.0844	26.39	0.92	-0.750			
0.9460	60541.92	3.1460	3.1460	-0.0834	26.39	0.92	-0.750			
0.9462	60557.80	3.1430	3.1431	-0.0824	26.40	0.93	-0.750			
0.9465	60573.52	3.1400	3.1400	-0.0816	26.40	0.93	-0.750			
0.9467	60589.06	3.1370	3.1369	-0.0807	26.40	0.93	-0.750			
0.9469	60604.47	3.1340	3.1340	-0.0800	26.41	0.94	-0.750			
0.9472	60619.75	3.1310	3.1311	-0.0792	26.41	0.94	-0.750			
0.9474	60634.88	3.1280	3.1280	-0.0785	26.41	0.94	-0.750			
0.9477	60649.84	3.1250	3.1250	-0.0779	26.41	0.94	-0.750			
0.9479	60664.69	3.1220	3.1220	-0.0771	26.42	0.95	-0.750			
0.9481	60679.45	3.1190	3.1189	-0.0766	26.42	0.95	-0.750			
0.9483	60694.09	3.1160	3.1160	-0.0760	26.42	0.95	-0.750			
0.9486	60708.61	3.1130	3.1130	-0.0754	26.42	0.95	-0.750			
0.9488	60723.03	3.1100	3.1100	-0.0749	26.43	0.96	-0.750			
0.9490	60737.39	3.1070	3.1070	-0.0741	26.43	0.96	-0.750			
0.9492	60751.61	3.1040	3.1040	-0.0735	26.43	0.96	-0.750			
0.9495	60765.55	3.1010	3.1011	-0.0730	26.43	0.96	-0.750			
0.9497	60779.50	3.0980	3.0980	-0.0724	26.44	0.97	-0.750			
0.9499	60793.28	3.0950	3.0949	-0.0718	26.44	0.97	-0.750			
0.9501	60806.98	3.0920	3.0919	-0.0715	26.44	0.97	-0.750			
0.9503	60820.55	3.0890	3.0891	-0.0709	26.44	0.97	-0.750			
0.9505	60834.14	3.0860	3.0861	-0.0707	26.45	0.98	-0.750			
0.9507	60847.76	3.0830	3.0829	-0.0701	26.45	0.98	-0.750			
0.9510	60861.30	3.0800	3.0800	-0.0698	26.45	0.98	-0.750			
0.9512	60874.68	3.0770	3.0770	-0.0692	26.45	0.98	-0.750			
0.9514	60887.90	3.0740	3.0741	-0.0685	26.46	0.99	-0.750			
0.9516	60901.07	3.0710	3.0710	-0.0680	26.46	0.99	-0.750			
0.9518	60913.96	3.0680	3.0680	-0.0675	26.46	0.99	-0.750			
0.9520	60926.78	3.0650	3.0651	-0.0668	26.47	1.00	-0.750			
0.9522	60939.56	3.0620	3.0621	-0.0663	26.47	1.00	-0.750			
0.9524	60952.22	3.0590	3.0590	-0.0660	26.47	1.00	-0.750			
0.9526	60964.79	3.0560	3.0558	-0.0656	26.47	1.00	-0.750			
0.9528	60977.36	3.0530	3.0530	-0.0653	26.48	1.01	-0.750			
0.9530	60989.90	3.0500	3.0500	-0.0649	26.48	1.01	-0.750			
0.9532	61002.38	3.0470	3.0470	-0.0646	26.48	1.01	-0.750			
0.9534	61014.74	3.0440	3.0439	-0.0642	26.48	1.01	-0.750			
0.9535	61027.01	3.0410	3.0410	-0.0639	26.49	1.02	-0.750			
0.9537	61039.24	3.0380	3.0381	-0.0635	26.49	1.02	-0.750			
0.9539	61051.40	3.0350	3.0349	-0.0632	26.49	1.02	-0.750			
0.9541	61063.49	3.0320	3.0320	-0.0628	26.49	1.02	-0.750			
0.9543	61075.51	3.0290	3.0290	-0.0624	26.50	1.03	-0.750			
0.9545	61087.46	3.0260	3.0261	-0.0621	26.50	1.03	-0.750			
0.9547	61099.40	3.0230	3.0229	-0.0617	26.50	1.03	-0.750			
0.9549	61111.21	3.0200	3.0200	-0.0613	26.50	1.03	-0.750			
0.9550	61122.95	3.0170	3.0170	-0.0609	26.51	1.04	-0.750			
0.9552	61134.58	3.0140	3.0140	-0.0605	26.51	1.04	-0.750			
0.9554	61146.15	3.0110	3.0110	-0.0601	26.51	1.04	-0.750			
0.9556	61157.65	3.0080	3.0081	-0.0596	26.51	1.04	-0.750			
0.9558	61169.06	3.0050	3.0049	-0.0592	26.52	1.05	-0.751			
