Ah_balance (normalized)	Ah_balance (mAh)	Voltage - fit (V)	Voltage -  interpolate (V)	dQ/dV (1/V)	Temperature (°C)	Temperature - diff (°C)	Current (C)	R_DC 0ms (mOhm)	R_DC 50ms (mOhm)	R_DC 50 ms PEC (mOhm)
0.0004	24.85	4.1610	4.1608	-0.1281	25.86	0.01	-0.750			
0.0008	53.75	4.1580	4.1578	-0.1715	25.86	0.01	-0.750			
0.0014	91.79	4.1550	4.1550	-0.2120	25.86	0.01	-0.750			
0.0021	136.71	4.1520	4.1520	-0.2492	25.86	0.01	-0.750			
0.0029	188.07	4.1490	4.1491	-0.2866	25.86	0.01	-0.750			
0.0039	247.11	4.1460	4.1460	-0.3251	25.86	0.01	-0.750			
0.0049	312.60	4.1430	4.1430	-0.3625	25.86	0.01	-0.750			
0.0060	385.92	4.1400	4.1400	-0.3940	25.86	0.01	-0.750			
0.0073	466.10	4.1370	4.1370	-0.4251	25.85	0.00	-0.750			
0.0086	552.03	4.1340	4.1339	-0.4508	25.85	0.00	-0.750			
0.0100	641.95	4.1310	4.1311	-0.4786	25.85	-0.00	-0.750			
0.0115	735.76	4.1280	4.1281	-0.5022	25.85	-0.00	-0.750			
0.0130	834.59	4.1250	4.1249	-0.5224	25.84	-0.01	-0.750			
0.0146	936.64	4.1220	4.1221	-0.5408	25.84	-0.01	-0.750			
0.0163	1044.44	4.1190	4.1190	-0.5656	25.84	-0.01	-0.750			
0.0181	1155.72	4.1160	4.1160	-0.5764	25.84	-0.01	-0.750			
0.0198	1269.57	4.1130	4.1129	-0.5900	25.83	-0.02	-0.750			
0.0216	1382.88	4.1100	4.1100	-0.5974	25.83	-0.02	-0.750			
0.0234	1498.21	4.1070	4.1071	-0.6084	25.83	-0.02	-0.750			
0.0253	1616.10	4.1040	4.1039	-0.6191	25.83	-0.02	-0.750			
0.0271	1734.20	4.1010	4.1011	-0.6295	25.82	-0.03	-0.750			
0.0290	1856.47	4.0980	4.0980	-0.6383	25.82	-0.03	-0.750			
0.0310	1983.82	4.0950	4.0950	-0.6501	25.82	-0.03	-0.750			
0.0330	2108.98	4.0920	4.0919	-0.6511	25.81	-0.04	-0.750			
0.0349	2233.32	4.0890	4.0892	-0.6594	25.81	-0.04	-0.750			
0.0369	2360.43	4.0860	4.0860	-0.6635	25.81	-0.04	-0.750			
0.0389	2487.88	4.0830	4.0829	-0.6680	25.80	-0.05	-0.750			
0.0409	2617.19	4.0800	4.0800	-0.6709	25.80	-0.05	-0.750			
0.0429	2748.10	4.0770	4.0771	-0.6761	25.80	-0.05	-0.750			
0.0450	2877.45	4.0740	4.0740	-0.6792	25.79	-0.06	-0.750			
0.0470	3007.57	4.0710	4.0711	-0.6831	25.79	-0.06	-0.750			
0.0490	3137.52	4.0680	4.0679	-0.6869	25.79	-0.06	-0.750			
0.0511	3270.82	4.0650	4.0650	-0.6921	25.79	-0.06	-0.750			
0.0532	3404.34	4.0620	4.0620	-0.7011	25.79	-0.06	-0.750			
0.0553	3540.82	4.0590	4.0590	-0.7045	25.79	-0.06	-0.750			
0.0575	3678.08	4.0560	4.0559	-0.7079	25.79	-0.06	-0.750			
0.0596	3813.69	4.0530	4.0533	-0.7064	25.79	-0.06	-0.750			
0.0617	3949.03	4.0500	4.0500	-0.7068	25.79	-0.06	-0.750			
0.0638	4084.92	4.0470	4.0470	-0.7061	25.79	-0.06	-0.750			
0.0659	4219.92	4.0440	4.0440	-0.7088	25.79	-0.06	-0.750			
0.0681	4356.31	4.0410	4.0410	-0.7136	25.79	-0.06	-0.750			
0.0702	4493.06	4.0380	4.0380	-0.7155	25.79	-0.06	-0.750			
0.0724	4631.17	4.0350	4.0351	-0.7182	25.79	-0.06	-0.750			
0.0745	4769.69	4.0320	4.0320	-0.7192	25.79	-0.06	-0.750			
0.0767	4906.81	4.0290	4.0290	-0.7242	25.79	-0.06	-0.750			
0.0788	5046.34	4.0260	4.0260	-0.7265	25.79	-0.06	-0.750			
0.0810	5186.22	4.0230	4.0230	-0.7306	25.79	-0.06	-0.750			
0.0832	5326.94	4.0200	4.0200	-0.7302	25.79	-0.06	-0.750			
0.0854	5467.99	4.0170	4.0170	-0.7303	25.79	-0.06	-0.750			
0.0876	5608.61	4.0140	4.0140	-0.7292	25.79	-0.06	-0.750			
0.0898	5747.26	4.0110	4.0110	-0.7331	25.79	-0.06	-0.750			
0.0920	5887.31	4.0080	4.0080	-0.7339	25.80	-0.05	-0.750			
0.0942	6029.46	4.0050	4.0049	-0.7377	25.80	-0.05	-0.750			
0.0964	6169.33	4.0020	4.0018	-0.7488	25.80	-0.05	-0.750			
0.0987	6314.25	3.9990	3.9990	-0.7591	25.80	-0.05	-0.750			
0.1010	6461.25	3.9960	3.9959	-0.7666	25.80	-0.05	-0.750			
0.1033	6610.81	3.9930	3.9929	-0.7691	25.80	-0.05	-0.750			
0.1056	6758.70	3.9900	3.9902	-0.7627	25.80	-0.05	-0.750			
0.1080	6909.81	3.9870	3.9870	-0.7652	25.80	-0.05	-0.750			
0.1102	7055.07	3.9840	3.9841	-0.7590	25.80	-0.05	-0.750			
0.1124	7195.80	3.9810	3.9810	-0.7485	25.80	-0.05	-0.750			
0.1147	7340.20	3.9780	3.9780	-0.7531	25.80	-0.05	-0.750			
0.1169	7484.78	3.9750	3.9750	-0.7555	25.81	-0.04	-0.750			
0.1192	7630.73	3.9720	3.9720	-0.7596	25.81	-0.04	-0.750			
0.1215	7776.75	3.9690	3.9689	-0.7621	25.81	-0.04	-0.750			
0.1238	7923.72	3.9660	3.9659	-0.7653	25.81	-0.04	-0.750			
0.1261	8070.27	3.9630	3.9630	-0.7699	25.81	-0.04	-0.750			
0.1284	8218.63	3.9600	3.9600	-0.7694	25.81	-0.04	-0.750			
0.1307	8365.76	3.9570	3.9570	-0.7711	25.82	-0.03	-0.750			
0.1331	8516.42	3.9540	3.9540	-0.7741	25.82	-0.03	-0.750			
0.1354	8665.79	3.9510	3.9511	-0.7706	25.82	-0.03	-0.750			
0.1377	8811.58	3.9480	3.9480	-0.7733	25.83	-0.02	-0.750			
0.1400	8960.00	3.9450	3.9450	-0.7740	25.83	-0.02	-0.750			
0.1423	9107.53	3.9420	3.9421	-0.7744	25.84	-0.01	-0.750			
0.1447	9257.96	3.9390	3.9389	-0.7795	25.84	-0.01	-0.750			
0.1470	9407.35	3.9360	3.9360	-0.7838	25.85	-0.00	-0.750			
0.1494	9559.91	3.9330	3.9330	-0.7867	25.85	0.00	-0.750			
0.1517	9711.06	3.9300	3.9300	-0.7931	25.85	0.00	-0.750			
0.1541	9862.45	3.9270	3.9270	-0.7921	25.85	0.00	-0.750			
0.1565	10015.79	3.9240	3.9239	-0.7952	25.85	0.00	-0.750			
0.1589	10168.43	3.9210	3.9211	-0.7952	25.85	0.00	-0.750			
0.1612	10319.88	3.9180	3.9180	-0.8026	25.85	0.00	-0.750			
0.1636	10472.17	3.9150	3.9150	-0.8126	25.86	0.01	-0.750			
0.1661	10631.15	3.9120	3.9119	-0.8149	25.86	0.01	-0.750			
0.1686	10787.41	3.9090	3.9089	-0.8144	25.86	0.01	-0.750			
0.1711	10947.99	3.9060	3.9061	-0.8169	25.87	0.02	-0.750			
0.1735	11105.20	3.9030	3.9029	-0.8125	25.87	0.02	-0.750			
0.1759	11259.14	3.9000	3.9000	-0.8093	25.87	0.02	-0.750			
0.1783	11412.23	3.8970	3.8970	-0.8046	25.87	0.02	-0.750			
0.1807	11564.83	3.8940	3.8940	-0.8013	25.87	0.02	-0.750			
0.1832	11721.75	3.8910	3.8909	-0.8060	25.87	0.02	-0.750			
0.1856	11876.21	3.8880	3.8881	-0.8085	25.87	0.02	-0.750			
0.1880	12030.91	3.8850	3.8850	-0.8130	25.88	0.03	-0.750			
0.1904	12187.13	3.8820	3.8820	-0.8134	25.88	0.03	-0.750			
0.1929	12342.71	3.8790	3.8789	-0.8101	25.88	0.03	-0.750			
0.1953	12499.90	3.8760	3.8761	-0.8142	25.89	0.04	-0.750			
0.1978	12657.20	3.8730	3.8731	-0.8171	25.89	0.04	-0.750			
0.2002	12812.94	3.8700	3.8699	-0.8190	25.89	0.04	-0.750			
0.2026	12969.39	3.8670	3.8670	-0.8198	25.90	0.05	-0.750			
0.2051	13128.88	3.8640	3.8640	-0.8197	25.90	0.05	-0.750			
0.2076	13287.90	3.8610	3.8609	-0.8235	25.91	0.06	-0.750			
0.2101	13445.92	3.8580	3.8581	-0.8227	25.91	0.06	-0.750			
0.2126	13603.55	3.8550	3.8550	-0.8202	25.91	0.06	-0.750			
0.2150	13760.16	3.8520	3.8519	-0.8234	25.91	0.06	-0.750			
0.2175	13917.70	3.8490	3.8490	-0.8202	25.92	0.07	-0.750			
0.2200	14077.26	3.8460	3.8459	-0.8222	25.92	0.07	-0.750			
0.2224	14235.07	3.8430	3.8432	-0.8215	25.92	0.07	-0.750			
0.2249	14392.48	3.8400	3.8399	-0.8197	25.93	0.08	-0.750			
0.2273	14549.60	3.8370	3.8370	-0.8245	25.93	0.08	-0.750			
0.2298	14707.78	3.8340	3.8340	-0.8215	25.94	0.09	-0.750			
0.2323	14866.95	3.8310	3.8309	-0.8237	25.94	0.09	-0.750			
0.2348	15025.05	3.8280	3.8283	-0.8224	25.95	0.10	-0.750			
0.2372	15183.70	3.8250	3.8249	-0.8193	25.95	0.10	-0.750			
0.2397	15339.66	3.8220	3.8220	-0.8219	25.95	0.10	-0.750			
0.2421	15496.97	3.8190	3.8190	-0.8164	25.95	0.10	-0.750			
0.2446	15655.71	3.8160	3.8159	-0.8167	25.95	0.10	-0.750			
0.2471	15812.11	3.8130	3.8134	-0.8128	25.95	0.10	-0.750			
0.2495	15968.28	3.8100	3.8099	-0.8067	25.95	0.10	-0.750			
0.2519	16120.96	3.8070	3.8071	-0.8036	25.96	0.11	-0.750			
0.2543	16273.46	3.8040	3.8040	-0.7980	25.96	0.11	-0.750			
0.2567	16427.24	3.8010	3.8010	-0.8006	25.97	0.12	-0.750			
0.2591	16580.30	3.7980	3.7980	-0.7997	25.97	0.12	-0.750			
0.2615	16734.07	3.7950	3.7950	-0.7992	25.97	0.12	-0.750			
0.2638	16885.95	3.7920	3.7919	-0.8019	25.98	0.13	-0.750			
0.2663	17042.16	3.7890	3.7890	-0.7983	25.98	0.13	-0.750			
0.2687	17195.30	3.7860	3.7860	-0.7906	25.98	0.13	-0.750			
0.2711	17347.49	3.7830	3.7829	-0.7896	25.99	0.14	-0.750			
0.2734	17497.94	3.7800	3.7800	-0.7847	25.99	0.14	-0.750			
0.2757	17645.78	3.7770	3.7769	-0.7806	26.00	0.15	-0.750			
0.2781	17796.03	3.7740	3.7739	-0.7760	26.00	0.15	-0.750			
0.2804	17944.43	3.7710	3.7711	-0.7715	26.00	0.15	-0.750			
0.2827	18094.25	3.7680	3.7680	-0.7753	26.01	0.16	-0.750			
0.2850	18243.13	3.7650	3.7652	-0.7758	26.01	0.16	-0.750			
0.2874	18391.24	3.7620	3.7620	-0.7722	26.01	0.16	-0.750			
0.2897	18538.22	3.7590	3.7590	-0.7741	26.01	0.16	-0.750			
0.2920	18687.18	3.7560	3.7561	-0.7775	26.01	0.16	-0.750			
0.2943	18838.14	3.7530	3.7529	-0.7803	26.01	0.16	-0.750			
0.2967	18986.96	3.7500	3.7500	-0.7795	26.01	0.16	-0.750			
0.2990	19135.97	3.7470	3.7470	-0.7815	26.01	0.16	-0.750			
0.3013	19286.29	3.7440	3.7439	-0.7856	26.02	0.17	-0.750			
0.3037	19437.02	3.7410	3.7410	-0.7903	26.02	0.17	-0.750			
0.3061	19587.98	3.7380	3.7380	-0.7964	26.02	0.17	-0.750			
0.3085	19741.80	3.7350	3.7350	-0.8065	26.03	0.18	-0.750			
0.3109	19898.05	3.7320	3.7319	-0.8164	26.03	0.18	-0.750			
0.3133	20053.72	3.7290	3.7291	-0.8301	26.03	0.18	-0.750			
0.3159	20215.56	3.7260	3.7259	-0.8384	26.03	0.18	-0.750			
0.3184	20377.96	3.7230	3.7230	-0.8507	26.03	0.18	-0.750			
0.3210	20542.21	3.7200	3.7199	-0.8622	26.03	0.18	-0.750			
0.3236	20707.98	3.7170	3.7169	-0.8755	26.03	0.18	-0.750			
0.3262	20877.68	3.7140	3.7140	-0.8899	26.03	0.18	-0.750			
0.3289	21048.51	3.7110	3.7110	-0.9050	26.03	0.18	-0.750			
0.3316	21222.91	3.7080	3.7080	-0.9195	26.03	0.18	-0.750			
0.3344	21404.02	3.7050	3.7050	-0.9403	26.03	0.18	-0.750			
0.3373	21584.90	3.7020	3.7020	-0.9600	26.03	0.18	-0.750			
0.3402	21771.81	3.6990	3.6990	-0.9763	26.03	0.18	-0.750			
0.3431	21960.35	3.6960	3.6959	-0.9917	26.03	0.18	-0.750			
0.3461	22152.47	3.6930	3.6929	-1.0106	26.03	0.18	-0.750			
0.3492	22347.95	3.6900	3.6900	-1.0325	26.03	0.18	-0.750			
0.3523	22548.46	3.6870	3.6869	-1.0516	26.03	0.18	-0.750			
0.3555	22751.71	3.6840	3.6840	-1.0709	26.02	0.17	-0.750			
0.3587	22957.51	3.6810	3.6810	-1.0890	26.02	0.17	-0.750			
0.3621	23172.07	3.6780	3.6780	-1.1221	26.02	0.17	-0.750			
0.3655	23390.26	3.6750	3.6749	-1.1384	26.02	0.17	-0.750			
0.3689	23609.60	3.6720	3.6720	-1.1578	26.01	0.16	-0.750			
0.3724	23833.31	3.6690	3.6692	-1.1804	26.01	0.16	-0.750			
0.3760	24064.13	3.6660	3.6659	-1.2051	26.00	0.15	-0.750			
0.3796	24296.62	3.6630	3.6630	-1.2267	26.00	0.15	-0.750			
0.3833	24530.74	3.6600	3.6600	-1.2585	25.99	0.14	-0.750			
0.3871	24777.07	3.6570	3.6570	-1.2878	25.99	0.14	-0.750			
0.3911	25028.96	3.6540	3.6539	-1.3126	25.98	0.13	-0.750			
0.3950	25280.20	3.6510	3.6509	-1.3475	25.97	0.12	-0.750			
0.3991	25544.24	3.6480	3.6480	-1.3681	25.97	0.12	-0.750			
0.4033	25811.41	3.6450	3.6449	-1.4008	25.96	0.11	-0.750			
0.4075	26081.33	3.6420	3.6420	-1.4275	25.95	0.10	-0.750			
0.4118	26356.73	3.6390	3.6390	-1.4476	25.95	0.10	-0.750			
0.4162	26637.81	3.6360	3.6360	-1.4946	25.94	0.09	-0.750			
0.4208	26928.24	3.6330	3.6330	-1.5214	25.93	0.08	-0.750			
0.4253	27221.51	3.6300	3.6300	-1.5501	25.92	0.07	-0.750			
0.4301	27527.80	3.6270	3.6269	-1.5969	25.92	0.07	-0.750			
0.4350	27838.87	3.6240	3.6243	-1.6180	25.91	0.06	-0.750			
0.4399	28153.66	3.6210	3.6211	-1.6460	25.90	0.05	-0.750			
0.4449	28472.06	3.6180	3.6178	-1.6772	25.89	0.04	-0.750	0.389	0.511	
0.4499	28793.31	3.6150	3.6148	-1.6964	25.89	0.04	-0.750			
0.4550	29120.44	3.6120	3.6121	-1.7354	25.89	0.04	-0.750			
0.4602	29453.63	3.6090	3.6090	-1.7712	25.89	0.04	-0.750			
0.4656	29800.66	3.6060	3.6058	-1.8139	25.88	0.03	-0.750			
0.4712	30154.22	3.6030	3.6031	-1.8329	25.87	0.02	-0.750			
0.4767	30507.79	3.6000	3.6000	-1.8696	25.87	0.02	-0.750			
0.4824	30871.70	3.5970	3.5971	-1.9029	25.86	0.01	-0.750			
0.4881	31235.92	3.5940	3.5938	-1.9419	25.86	0.01	-0.750			
0.4940	31613.17	3.5910	3.5909	-1.9867	25.85	0.00	-0.750			
0.5000	32001.38	3.5880	3.5881	-2.0224	25.85	-0.00	-0.750			
0.5062	32397.52	3.5850	3.5850	-2.0603	25.84	-0.01	-0.750			
0.5124	32796.12	3.5820	3.5821	-2.0915	25.84	-0.01	-0.750			
0.5187	33198.19	3.5790	3.5790	-2.1169	25.83	-0.02	-0.750			
0.5252	33611.18	3.5760	3.5759	-2.1520	25.82	-0.03	-0.750			
0.5316	34024.64	3.5730	3.5729	-2.1669	25.82	-0.03	-0.750			
0.5382	34447.20	3.5700	3.5701	-2.1981	25.82	-0.03	-0.750			
0.5449	34874.70	3.5670	3.5670	-2.2156	25.81	-0.04	-0.750			
0.5515	35299.17	3.5640	3.5640	-2.2247	25.81	-0.04	-0.750			
0.5582	35724.75	3.5610	3.5609	-2.2360	25.81	-0.04	-0.750			
0.5650	36159.07	3.5580	3.5580	-2.2497	25.81	-0.04	-0.750			
0.5718	36593.70	3.5550	3.5549	-2.2442	25.80	-0.05	-0.750			
0.5785	37026.97	3.5520	3.5520	-2.2334	25.81	-0.04	-0.750			
0.5853	37458.85	3.5490	3.5491	-2.2166	25.81	-0.04	-0.750			
0.5919	37881.44	3.5460	3.5460	-2.2112	25.81	-0.04	-0.750			
0.5984	38299.59	3.5430	3.5429	-2.1806	25.81	-0.04	-0.750			
0.6050	38717.44	3.5400	3.5400	-2.1598	25.81	-0.04	-0.750			
0.6115	39136.43	3.5370	3.5371	-2.1473	25.81	-0.04	-0.750			
0.6179	39546.08	3.5340	3.5339	-2.1158	25.82	-0.03	-0.750			
0.6243	39957.66	3.5310	3.5309	-2.0767	25.82	-0.03	-0.750			
0.6305	40353.37	3.5280	3.5282	-2.0351	25.83	-0.02	-0.750			
0.6365	40738.09	3.5250	3.5250	-1.9888	25.84	-0.01	-0.750			
0.6424	41115.99	3.5220	3.5219	-1.9359	25.86	0.01	-0.750			
0.6481	41480.93	3.5190	3.5191	-1.8855	25.87	0.02	-0.750			
0.6537	41838.17	3.5160	3.5158	-1.8480	25.88	0.03	-0.750			
0.6592	42191.25	3.5130	3.5133	-1.8000	25.88	0.03	-0.750			
0.6646	42536.73	3.5100	3.5100	-1.7525	25.89	0.04	-0.750			
0.6698	42866.03	3.5070	3.5070	-1.6917	25.90	0.05	-0.750			
0.6748	43188.99	3.5040	3.5037	-1.6317	25.92	0.07	-0.750			
0.6796	43495.79	3.5010	3.5011	-1.5893	25.93	0.08	-0.750			
0.6843	43796.99	3.4980	3.4981	-1.5360	25.94	0.09	-0.750			
0.6889	44088.10	3.4950	3.4948	-1.4858	25.96	0.11	-0.750			
0.6932	44367.17	3.4920	3.4923	-1.4280	25.97	0.12	-0.750			
0.6975	44640.20	3.4890	3.4891	-1.3862	25.99	0.14	-0.750			
0.7016	44900.92	3.4860	3.4859	-1.3368	26.00	0.15	-0.750			
0.7055	45152.25	3.4830	3.4830	-1.2942	26.02	0.17	-0.750			
0.7093	45394.49	3.4800	3.4802	-1.2507	26.03	0.18	-0.750			
0.7130	45633.27	3.4770	3.4769	-1.2198	26.05	0.20	-0.750			
0.7166	45861.09	3.4740	3.4740	-1.1815	26.06	0.21	-0.750			
0.7201	46084.20	3.4710	3.4710	-1.1441	26.08	0.23	-0.750			
0.7234	46299.44	3.4680	3.4679	-1.1101	26.09	0.24	-0.750			
0.7267	46511.02	3.4650	3.4650	-1.0763	26.10	0.25	-0.750			
0.7299	46714.00	3.4620	3.4620	-1.0414	26.11	0.26	-0.750			
0.7330	46910.38	3.4590	3.4590	-1.0015	26.12	0.27	-0.750			
0.7360	47102.03	3.4560	3.4561	-0.9735	26.14	0.29	-0.750			
0.7388	47281.62	3.4530	3.4530	-0.9417	26.15	0.30	-0.750			
0.7416	47460.09	3.4500	3.4499	-0.9189	26.16	0.31	-0.750			
0.7442	47631.17	3.4470	3.4470	-0.8976	26.17	0.32	-0.750			
0.7469	47801.76	3.4440	3.4441	-0.8852	26.18	0.33	-0.750			
0.7495	47968.69	3.4410	3.4410	-0.8839	26.19	0.34	-0.750			
0.7522	48138.00	3.4380	3.4381	-0.8848	26.20	0.35	-0.750			
0.7548	48304.70	3.4350	3.4349	-0.8883	26.21	0.36	-0.750			
0.7574	48474.56	3.4320	3.4320	-0.9020	26.22	0.37	-0.750			
0.7602	48649.89	3.4290	3.4291	-0.9164	26.23	0.38	-0.750			
0.7629	48826.65	3.4260	3.4260	-0.9381	26.24	0.39	-0.750			
0.7658	49010.15	3.4230	3.4230	-0.9547	26.25	0.40	-0.750			
0.7687	49195.31	3.4200	3.4200	-0.9662	26.26	0.41	-0.750			
0.7716	49383.88	3.4170	3.4171	-0.9799	26.27	0.42	-0.750			
0.7746	49574.18	3.4140	3.4140	-0.9852	26.28	0.43	-0.750			
0.7776	49766.03	3.4110	3.4110	-0.9848	26.29	0.44	-0.750			
0.7806	49957.59	3.4080	3.4080	-0.9723	26.30	0.45	-0.750			
0.7835	50143.30	3.4050	3.4049	-0.9532	26.31	0.46	-0.750			
0.7864	50328.83	3.4020	3.4020	-0.9339	26.32	0.47	-0.750			
0.7891	50505.24	3.3990	3.3989	-0.9059	26.32	0.47	-0.750			
0.7918	50675.67	3.3960	3.3960	-0.8749	26.33	0.48	-0.750			
0.7944	50839.29	3.3930	3.3930	-0.8414	26.34	0.49	-0.750			
0.7969	51000.47	3.3900	3.3900	-0.8166	26.35	0.50	-0.750			
0.7993	51154.40	3.3870	3.3870	-0.7871	26.36	0.51	-0.750			
0.8016	51302.14	3.3840	3.3839	-0.7571	26.36	0.51	-0.750			
0.8038	51444.66	3.3810	3.3810	-0.7332	26.37	0.52	-0.750			
0.8060	51582.52	3.3780	3.3780	-0.7034	26.37	0.52	-0.750			
0.8081	51716.19	3.3750	3.3749	-0.6745	26.38	0.53	-0.750			
0.8100	51842.44	3.3720	3.3721	-0.6492	26.38	0.53	-0.750			
0.8119	51963.74	3.3690	3.3690	-0.6241	26.39	0.54	-0.750			
0.8138	52080.65	3.3660	3.3659	-0.6003	26.40	0.55	-0.750			
0.8155	52191.82	3.3630	3.3630	-0.5786	26.41	0.56	-0.750			
0.8172	52301.18	3.3600	3.3601	-0.5598	26.42	0.57	-0.750			
0.8189	52407.41	3.3570	3.3570	-0.5416	26.42	0.57	-0.750			
0.8205	52510.32	3.3540	3.3540	-0.5238	26.43	0.58	-0.750			
0.8220	52608.10	3.3510	3.3510	-0.5029	26.44	0.59	-0.750			
0.8235	52702.28	3.3480	3.3480	-0.4855	26.44	0.59	-0.750			
0.8249	52794.23	3.3450	3.3450	-0.4679	26.45	0.60	-0.750			
0.8263	52881.47	3.3420	3.3420	-0.4506	26.45	0.60	-0.750			
0.8276	52966.78	3.3390	3.3390	-0.4356	26.46	0.61	-0.750			
0.8289	53048.76	3.3360	3.3360	-0.4204	26.46	0.61	-0.750			
0.8301	53127.83	3.3330	3.3330	-0.4060	26.47	0.62	-0.750			
0.8313	53204.06	3.3300	3.3300	-0.3922	26.47	0.62	-0.750			
0.8325	53277.76	3.3270	3.3269	-0.3797	26.47	0.62	-0.750			
0.8336	53349.52	3.3240	3.3241	-0.3685	26.48	0.63	-0.750			
0.8347	53418.80	3.3210	3.3211	-0.3565	26.48	0.63	-0.750			
0.8357	53486.50	3.3180	3.3179	-0.3460	26.49	0.64	-0.750			
0.8367	53551.59	3.3150	3.3150	-0.3365	26.49	0.64	-0.750			
0.8377	53614.80	3.3120	3.3120	-0.3257	26.50	0.65	-0.750			
0.8387	53676.75	3.3090	3.3090	-0.3170	26.51	0.66	-0.750			
0.8396	53736.56	3.3060	3.3060	-0.3071	26.51	0.66	-0.750			
0.8405	53794.32	3.3030	3.3031	-0.2984	26.52	0.67	-0.750			
0.8414	53850.59	3.3000	3.3000	-0.2913	26.52	0.67	-0.750			
0.8423	53905.67	3.2970	3.2971	-0.2833	26.53	0.68	-0.750			
0.8431	53958.94	3.2940	3.2940	-0.2766	26.53	0.68	-0.750			
0.8439	54011.47	3.2910	3.2910	-0.2720	26.54	0.69	-0.750			
0.8447	54063.23	3.2880	3.2880	-0.2656	26.54	0.69	-0.750			
0.8455	54113.82	3.2850	3.2848	-0.2595	26.55	0.70	-0.750			
0.8463	54163.28	3.2820	3.2821	-0.2533	26.55	0.70	-0.750			
0.8471	54211.31	3.2790	3.2790	-0.2479	26.56	0.71	-0.750			
0.8478	54258.04	3.2760	3.2760	-0.2441	26.56	0.71	-0.750			
0.8485	54304.63	3.2730	3.2730	-0.2392	26.57	0.72	-0.750			
0.8492	54349.70	3.2700	3.2699	-0.2340	26.57	0.72	-0.750			
0.8499	54393.95	3.2670	3.2672	-0.2300	26.58	0.73	-0.750			
0.8506	54438.16	3.2640	3.2640	-0.2269	26.58	0.73	-0.750			
0.8513	54481.44	3.2610	3.2610	-0.2228	26.59	0.74	-0.750			
0.8519	54523.68	3.2580	3.2579	-0.2177	26.59	0.74	-0.750			
0.8526	54564.62	3.2550	3.2551	-0.2133	26.59	0.74	-0.750			
0.8532	54605.25	3.2520	3.2521	-0.2100	26.60	0.75	-0.750			
0.8538	54645.71	3.2490	3.2490	-0.2058	26.60	0.75	-0.750			
0.8544	54684.49	3.2460	3.2459	-0.2026	26.61	0.76	-0.750			
0.8550	54722.46	3.2430	3.2431	-0.1990	26.61	0.76	-0.750			
0.8556	54760.47	3.2400	3.2400	-0.1969	26.61	0.76	-0.750			
0.8562	54797.93	3.2370	3.2369	-0.1949	26.62	0.77	-0.750			
0.8568	54835.43	3.2340	3.2340	-0.1923	26.62	0.77	-0.750			
0.8574	54872.14	3.2310	3.2310	-0.1895	26.63	0.78	-0.750			
0.8579	54908.28	3.2280	3.2281	-0.1869	26.63	0.78	-0.750			
0.8585	54944.41	3.2250	3.2250	-0.1847	26.63	0.78	-0.750			
0.8591	54979.23	3.2220	3.2219	-0.1816	26.64	0.79	-0.750			
0.8596	55013.49	3.2190	3.2190	-0.1790	26.64	0.79	-0.750			
0.8601	55047.70	3.2160	3.2160	-0.1773	26.65	0.80	-0.750			
0.8606	55081.38	3.2130	3.2129	-0.1754	26.65	0.80	-0.750			
0.8612	55115.18	3.2100	3.2100	-0.1735	26.66	0.81	-0.750			
0.8617	55148.13	3.2070	3.2069	-0.1719	26.66	0.81	-0.750			
0.8622	55180.97	3.2040	3.2042	-0.1702	26.67	0.82	-0.750			
0.8627	55213.51	3.2010	3.2010	-0.1684	26.67	0.82	-0.750			
0.8632	55245.77	3.1980	3.1979	-0.1664	26.68	0.83	-0.750			
0.8637	55277.56	3.1950	3.1950	-0.1639	26.68	0.83	-0.750			
0.8642	55308.83	3.1920	3.1921	-0.1617	26.69	0.84	-0.750			
0.8647	55339.69	3.1890	3.1890	-0.1603	26.70	0.85	-0.750			
0.8652	55370.34	3.1860	3.1860	-0.1585	26.70	0.85	-0.750			
0.8656	55400.21	3.1830	3.1829	-0.1560	26.71	0.86	-0.750			
0.8661	55430.05	3.1800	3.1800	-0.1548	26.71	0.86	-0.750			
0.8666	55459.50	3.1770	3.1771	-0.1542	26.72	0.87	-0.750			
0.8670	55489.11	3.1740	3.1739	-0.1531	26.72	0.87	-0.750			
0.8675	55518.56	3.1710	3.1710	-0.1521	26.73	0.88	-0.750			
0.8679	55547.64	3.1680	3.1679	-0.1508	26.73	0.88	-0.750			
0.8684	55576.45	3.1650	3.1651	-0.1492	26.74	0.89	-0.750			
0.8688	55605.10	3.1620	3.1621	-0.1483	26.74	0.89	-0.750			
0.8693	55633.43	3.1590	3.1590	-0.1466	26.75	0.90	-0.750			
0.8697	55661.42	3.1560	3.1560	-0.1449	26.75	0.90	-0.750			
0.8701	55688.86	3.1530	3.1530	-0.1435	26.76	0.91	-0.750			
0.8706	55716.38	3.1500	3.1500	-0.1425	26.76	0.91	-0.750			
0.8710	55743.59	3.1470	3.1471	-0.1412	26.77	0.92	-0.750			
0.8714	55770.64	3.1440	3.1439	-0.1397	26.77	0.92	-0.750			
0.8718	55797.36	3.1410	3.1409	-0.1384	26.78	0.93	-0.750			
0.8722	55823.72	3.1380	3.1381	-0.1370	26.78	0.93	-0.750			
0.8727	55849.94	3.1350	3.1350	-0.1361	26.79	0.94	-0.750			
0.8731	55875.89	3.1320	3.1320	-0.1351	26.79	0.94	-0.750			
0.8735	55901.57	3.1290	3.1291	-0.1339	26.80	0.95	-0.750			
0.8739	55927.21	3.1260	3.1259	-0.1331	26.80	0.95	-0.750			
0.8743	55952.71	3.1230	3.1230	-0.1321	26.81	0.96	-0.750			
0.8747	55978.12	3.1200	3.1201	-0.1314	26.81	0.96	-0.750			
0.8751	56003.31	3.1170	3.1168	-0.1303	26.82	0.97	-0.750			
0.8754	56028.19	3.1140	3.1140	-0.1290	26.82	0.97	-0.750			
0.8758	56052.75	3.1110	3.1110	-0.1285	26.83	0.98	-0.750			
0.8762	56077.26	3.1080	3.1080	-0.1276	26.83	0.98	-0.750			
0.8766	56101.70	3.1050	3.1050	-0.1270	26.84	0.99	-0.750			
0.8770	56126.14	3.1020	3.1019	-0.1256	26.84	0.99	-0.750			
0.8773	56150.15	3.0990	3.0991	-0.1245	26.85	1.00	-0.750			
0.8777	56174.15	3.0960	3.0961	-0.1233	26.85	1.00	-0.750			
0.8781	56197.58	3.0930	3.0929	-0.1226	26.86	1.01	-0.750			
0.8785	56221.01	3.0900	3.0900	-0.1214	26.86	1.01	-0.750			
0.8788	56243.83	3.0870	3.0870	-0.1208	26.87	1.02	-0.750			
0.8792	56267.00	3.0840	3.0839	-0.1200	26.87	1.02	-0.750			
0.8795	56290.02	3.0810	3.0811	-0.1198	26.88	1.03	-0.750			
0.8799	56313.17	3.0780	3.0780	-0.1197	26.88	1.03	-0.750			
0.8803	56336.21	3.0750	3.0751	-0.1183	26.89	1.04	-0.750			
0.8806	56359.19	3.0720	3.0719	-0.1174	26.89	1.04	-0.750			
0.8810	56381.24	3.0690	3.0691	-0.1166	26.90	1.05	-0.750			
0.8813	56403.57	3.0660	3.0660	-0.1159	26.90	1.05	-0.750			
0.8816	56425.53	3.0630	3.0629	-0.1153	26.91	1.06	-0.750			
0.8820	56447.64	3.0600	3.0600	-0.1150	26.91	1.06	-0.750			
0.8823	56469.76	3.0570	3.0570	-0.1142	26.92	1.07	-0.750			
0.8827	56491.64	3.0540	3.0541	-0.1137	26.92	1.07	-0.750			
0.8830	56513.76	3.0510	3.0510	-0.1132	26.93	1.08	-0.750			
0.8834	56535.37	3.0480	3.0480	-0.1119	26.93	1.08	-0.750			
0.8837	56556.71	3.0450	3.0450	-0.1106	26.94	1.09	-0.750			
0.8840	56577.70	3.0420	3.0420	-0.1098	26.94	1.09	-0.750			
0.8844	56598.57	3.0390	3.0390	-0.1086	26.95	1.10	-0.750			
0.8847	56619.21	3.0360	3.0362	-0.1084	26.95	1.10	-0.750			
0.8850	56639.81	3.0330	3.0331	-0.1077	26.96	1.11	-0.750			
0.8853	56660.58	3.0300	3.0298	-0.1073	26.96	1.11	-0.750			
0.8856	56681.11	3.0270	3.0270	-0.1070	26.96	1.11	-0.750			
0.8860	56701.69	3.0240	3.0241	-0.1066	26.97	1.12	-0.750			
0.8863	56722.27	3.0210	3.0211	-0.1064	26.97	1.12	-0.750			
0.8866	56742.71	3.0180	3.0180	-0.1056	26.98	1.13	-0.750			
0.8869	56763.02	3.0150	3.0149	-0.1050	26.98	1.13	-0.750			
0.8872	56783.09	3.0120	3.0120	-0.1040	26.99	1.14	-0.750			
0.8875	56802.92	3.0090	3.0091	-0.1032	26.99	1.14	-0.750			
0.8879	56822.65	3.0060	3.0060	-0.1024	27.00	1.15	-0.751			
0.8882	56842.22	3.0030	3.0030	-0.1001	27.00	1.15	-0.751			
