Ah_balance (normalized)	Ah_balance (mAh)	Voltage - fit (V)	Voltage -  interpolate (V)	dQ/dV (1/V)	Temperature (°C)	Temperature - diff (°C)	Current (C)	R_DC 0ms (mOhm)	R_DC 50ms (mOhm)	R_DC 50 ms PEC (mOhm)
0.0004	25.17	4.1650	4.1648	-0.1349	25.96	0.01	-0.750			
0.0009	58.37	4.1620	4.1618	-0.1924	25.96	0.01	-0.750			
0.0016	100.40	4.1590	4.1589	-0.2419	25.95	0.00	-0.750			
0.0024	152.51	4.1560	4.1561	-0.2876	25.95	0.00	-0.750			
0.0033	212.15	4.1530	4.1530	-0.3330	25.95	-0.00	-0.750			
0.0044	281.71	4.1500	4.1501	-0.3780	25.95	-0.00	-0.750			
0.0056	358.43	4.1470	4.1470	-0.4195	25.94	-0.01	-0.750			
0.0069	443.04	4.1440	4.1439	-0.4609	25.94	-0.01	-0.750			
0.0084	536.02	4.1410	4.1410	-0.5014	25.93	-0.02	-0.750			
0.0099	636.53	4.1380	4.1380	-0.5452	25.93	-0.02	-0.750			
0.0117	747.37	4.1350	4.1350	-0.5770	25.92	-0.03	-0.750			
0.0135	863.70	4.1320	4.1318	-0.6060	25.92	-0.03	-0.750			
0.0154	984.06	4.1290	4.1295	-0.6269	25.91	-0.04	-0.750			
0.0173	1106.96	4.1260	4.1258	-0.6466	25.91	-0.04	-0.750			
0.0192	1230.41	4.1230	4.1232	-0.6654	25.90	-0.05	-0.750			
0.0212	1359.47	4.1200	4.1200	-0.6774	25.90	-0.05	-0.750			
0.0233	1494.32	4.1170	4.1168	-0.6948	25.90	-0.05	-0.750			
0.0255	1629.28	4.1140	4.1140	-0.7064	25.89	-0.06	-0.750			
0.0276	1766.49	4.1110	4.1111	-0.7171	25.89	-0.06	-0.750			
0.0298	1904.49	4.1080	4.1079	-0.7247	25.89	-0.06	-0.750			
0.0319	2043.44	4.1050	4.1049	-0.7322	25.89	-0.06	-0.750			
0.0341	2184.68	4.1020	4.1020	-0.7428	25.89	-0.06	-0.750			
0.0364	2330.21	4.0990	4.0989	-0.7510	25.89	-0.06	-0.750			
0.0387	2475.02	4.0960	4.0960	-0.7531	25.89	-0.06	-0.750			
0.0409	2620.09	4.0930	4.0931	-0.7598	25.89	-0.06	-0.750			
0.0432	2766.15	4.0900	4.0898	-0.7626	25.89	-0.06	-0.750			
0.0455	2912.86	4.0870	4.0870	-0.7682	25.88	-0.07	-0.750			
0.0478	3060.76	4.0840	4.0841	-0.7687	25.88	-0.07	-0.750			
0.0502	3209.95	4.0810	4.0810	-0.7747	25.87	-0.08	-0.750			
0.0525	3359.89	4.0780	4.0778	-0.7755	25.87	-0.08	-0.750			
0.0548	3507.81	4.0750	4.0750	-0.7750	25.87	-0.08	-0.750			
0.0571	3654.31	4.0720	4.0719	-0.7825	25.87	-0.08	-0.750			
0.0595	3805.62	4.0690	4.0690	-0.7831	25.87	-0.08	-0.750			
0.0618	3957.52	4.0660	4.0658	-0.7865	25.87	-0.08	-0.750			
0.0642	4108.65	4.0630	4.0630	-0.7866	25.87	-0.08	-0.750			
0.0666	4260.44	4.0600	4.0601	-0.7911	25.87	-0.08	-0.750			
0.0689	4411.03	4.0570	4.0569	-0.7955	25.87	-0.08	-0.750			
0.0713	4564.20	4.0540	4.0539	-0.7952	25.87	-0.08	-0.750			
0.0737	4714.78	4.0510	4.0510	-0.7927	25.87	-0.08	-0.750			
0.0761	4870.08	4.0480	4.0479	-0.7967	25.87	-0.08	-0.750			
0.0785	5024.82	4.0450	4.0451	-0.7973	25.87	-0.08	-0.750			
0.0809	5176.72	4.0420	4.0420	-0.7973	25.87	-0.08	-0.750			
0.0833	5328.63	4.0390	4.0390	-0.7994	25.87	-0.08	-0.750			
0.0857	5483.15	4.0360	4.0360	-0.8013	25.87	-0.08	-0.750			
0.0881	5637.83	4.0330	4.0329	-0.8045	25.87	-0.08	-0.750			
0.0905	5792.88	4.0300	4.0302	-0.8032	25.87	-0.08	-0.750			
0.0929	5947.65	4.0270	4.0270	-0.8073	25.87	-0.08	-0.750			
0.0953	6101.61	4.0240	4.0240	-0.8129	25.87	-0.08	-0.750			
0.0977	6255.92	4.0210	4.0211	-0.8148	25.87	-0.08	-0.750			
0.1003	6416.26	4.0180	4.0178	-0.8183	25.87	-0.08	-0.750			
0.1027	6573.42	4.0150	4.0152	-0.8142	25.87	-0.08	-0.750			
0.1052	6730.02	4.0120	4.0120	-0.8159	25.87	-0.08	-0.750			
0.1076	6885.66	4.0090	4.0090	-0.8175	25.88	-0.07	-0.750			
0.1100	7040.96	4.0060	4.0059	-0.8139	25.88	-0.07	-0.750			
0.1125	7197.46	4.0030	4.0030	-0.8123	25.89	-0.06	-0.750			
0.1149	7354.28	4.0000	4.0002	-0.8193	25.89	-0.06	-0.750			
0.1174	7512.79	3.9970	3.9970	-0.8241	25.89	-0.06	-0.750			
0.1199	7671.09	3.9940	3.9937	-0.8285	25.89	-0.06	-0.750			
0.1223	7830.37	3.9910	3.9910	-0.8280	25.90	-0.05	-0.750			
0.1248	7989.18	3.9880	3.9881	-0.8289	25.90	-0.05	-0.750			
0.1274	8151.52	3.9850	3.9850	-0.8337	25.90	-0.05	-0.750			
0.1299	8311.19	3.9820	3.9820	-0.8376	25.90	-0.05	-0.750			
0.1323	8469.36	3.9790	3.9790	-0.8394	25.91	-0.04	-0.750			
0.1349	8631.38	3.9760	3.9760	-0.8459	25.91	-0.04	-0.750			
0.1374	8795.72	3.9730	3.9729	-0.8430	25.92	-0.03	-0.750			
0.1400	8959.90	3.9700	3.9701	-0.8482	25.92	-0.03	-0.750			
0.1425	9122.38	3.9670	3.9670	-0.8455	25.92	-0.03	-0.750			
0.1451	9284.92	3.9640	3.9639	-0.8475	25.92	-0.03	-0.750			
0.1476	9446.49	3.9610	3.9609	-0.8440	25.93	-0.02	-0.750			
0.1501	9607.15	3.9580	3.9581	-0.8425	25.93	-0.02	-0.750			
0.1527	9771.62	3.9550	3.9552	-0.8466	25.93	-0.02	-0.750			
0.1552	9933.87	3.9520	3.9520	-0.8551	25.93	-0.02	-0.750			
0.1578	10097.14	3.9490	3.9489	-0.8601	25.93	-0.02	-0.750			
0.1604	10263.49	3.9460	3.9459	-0.8611	25.94	-0.01	-0.750			
0.1630	10431.57	3.9430	3.9430	-0.8666	25.94	-0.01	-0.750			
0.1656	10596.85	3.9400	3.9403	-0.8664	25.94	-0.01	-0.750			
0.1682	10762.58	3.9370	3.9368	-0.8792	25.95	-0.00	-0.750			
0.1708	10930.08	3.9340	3.9341	-0.8730	25.95	0.00	-0.750			
0.1734	11098.27	3.9310	3.9309	-0.8687	25.96	0.01	-0.750			
0.1761	11267.38	3.9280	3.9279	-0.8766	25.97	0.02	-0.750			
0.1787	11435.56	3.9250	3.9251	-0.8739	25.97	0.02	-0.750			
0.1813	11601.87	3.9220	3.9220	-0.8753	25.98	0.03	-0.750			
0.1839	11768.20	3.9190	3.9189	-0.8724	25.98	0.03	-0.750			
0.1865	11934.14	3.9160	3.9160	-0.8823	25.98	0.03	-0.750			
0.1891	12102.74	3.9130	3.9131	-0.8875	25.99	0.04	-0.750			
0.1918	12276.72	3.9100	3.9098	-0.8913	25.99	0.04	-0.750			
0.1945	12446.20	3.9070	3.9070	-0.8955	25.99	0.04	-0.750			
0.1972	12619.52	3.9040	3.9040	-0.8978	26.00	0.05	-0.750			
0.1999	12793.11	3.9010	3.9010	-0.8908	26.00	0.05	-0.750			
0.2026	12964.40	3.8980	3.8981	-0.8947	26.00	0.05	-0.750			
0.2052	13131.99	3.8950	3.8951	-0.8971	26.00	0.05	-0.750			
0.2079	13304.80	3.8920	3.8918	-0.9013	26.00	0.05	-0.750			
0.2106	13479.50	3.8890	3.8889	-0.9045	26.01	0.06	-0.750			
0.2133	13652.27	3.8860	3.8860	-0.9015	26.01	0.06	-0.750			
0.2161	13829.16	3.8830	3.8831	-0.9103	26.01	0.06	-0.750			
0.2188	14004.59	3.8800	3.8800	-0.9171	26.02	0.07	-0.750			
0.2215	14177.92	3.8770	3.8769	-0.9111	26.02	0.07	-0.750			
0.2243	14354.46	3.8740	3.8740	-0.9073	26.02	0.07	-0.750			
0.2270	14529.44	3.8710	3.8711	-0.9111	26.03	0.08	-0.750			
0.2297	14703.27	3.8680	3.8680	-0.9115	26.03	0.08	-0.750			
0.2325	14877.98	3.8650	3.8648	-0.9121	26.04	0.09	-0.750			
0.2352	15051.35	3.8620	3.8620	-0.9110	26.05	0.10	-0.750			
0.2379	15225.63	3.8590	3.8590	-0.9057	26.05	0.10	-0.750			
0.2407	15404.04	3.8560	3.8562	-0.9118	26.06	0.11	-0.750			
0.2434	15578.09	3.8530	3.8530	-0.9195	26.06	0.11	-0.750			
0.2461	15753.42	3.8500	3.8500	-0.9162	26.06	0.11	-0.750			
0.2489	15929.60	3.8470	3.8470	-0.9204	26.07	0.12	-0.750			
0.2517	16107.43	3.8440	3.8439	-0.9186	26.07	0.12	-0.750			
0.2544	16284.78	3.8410	3.8411	-0.9176	26.07	0.12	-0.750			
0.2572	16462.19	3.8380	3.8379	-0.9293	26.08	0.13	-0.750			
0.2600	16637.92	3.8350	3.8350	-0.9309	26.08	0.13	-0.750			
0.2627	16815.41	3.8320	3.8318	-0.9264	26.09	0.14	-0.750			
0.2656	16996.50	3.8290	3.8292	-0.9346	26.09	0.14	-0.750			
0.2684	17177.84	3.8260	3.8260	-0.9379	26.09	0.14	-0.750			
0.2712	17359.82	3.8230	3.8231	-0.9363	26.10	0.15	-0.750			
0.2740	17538.34	3.8200	3.8200	-0.9376	26.10	0.15	-0.750			
0.2768	17717.89	3.8170	3.8170	-0.9399	26.11	0.16	-0.750			
0.2797	17898.45	3.8140	3.8139	-0.9376	26.11	0.16	-0.750			
0.2825	18081.10	3.8110	3.8109	-0.9454	26.12	0.17	-0.750			
0.2853	18261.93	3.8080	3.8081	-0.9412	26.12	0.17	-0.750			
0.2882	18442.89	3.8050	3.8049	-0.9397	26.13	0.18	-0.750			
0.2910	18623.98	3.8020	3.8021	-0.9466	26.13	0.18	-0.750			
0.2938	18803.12	3.7990	3.7990	-0.9445	26.14	0.19	-0.750			
0.2967	18985.89	3.7960	3.7959	-0.9484	26.14	0.19	-0.750			
0.2995	19167.90	3.7930	3.7930	-0.9421	26.14	0.19	-0.750			
0.3024	19351.84	3.7900	3.7901	-0.9537	26.15	0.20	-0.750			
0.3052	19533.60	3.7870	3.7870	-0.9567	26.15	0.20	-0.750			
0.3081	19718.00	3.7840	3.7838	-0.9528	26.15	0.20	-0.750			
0.3110	19900.81	3.7810	3.7810	-0.9472	26.15	0.20	-0.750			
0.3138	20081.73	3.7780	3.7781	-0.9504	26.15	0.20	-0.750			
0.3167	20265.96	3.7750	3.7750	-0.9560	26.15	0.20	-0.750			
0.3195	20449.79	3.7720	3.7719	-0.9662	26.16	0.21	-0.750			
0.3224	20633.18	3.7690	3.7689	-0.9655	26.16	0.21	-0.750			
0.3253	20819.91	3.7660	3.7660	-0.9730	26.17	0.22	-0.750			
0.3283	21010.24	3.7630	3.7633	-0.9764	26.17	0.22	-0.750			
0.3312	21198.79	3.7600	3.7599	-0.9827	26.18	0.23	-0.750			
0.3341	21385.40	3.7570	3.7570	-0.9801	26.18	0.23	-0.750			
0.3371	21572.07	3.7540	3.7539	-0.9786	26.18	0.23	-0.750			
0.3400	21762.61	3.7510	3.7510	-0.9844	26.19	0.24	-0.750			
0.3430	21950.90	3.7480	3.7480	-0.9864	26.19	0.24	-0.750			
0.3459	22140.78	3.7450	3.7450	-0.9879	26.19	0.24	-0.750			
0.3489	22330.51	3.7420	3.7420	-0.9915	26.19	0.24	-0.750			
0.3519	22519.68	3.7390	3.7390	-0.9894	26.19	0.24	-0.750			
0.3548	22709.85	3.7360	3.7360	-1.0005	26.19	0.24	-0.750			
0.3579	22903.18	3.7330	3.7330	-1.0070	26.20	0.25	-0.750			
0.3609	23098.70	3.7300	3.7299	-1.0108	26.20	0.25	-0.750			
0.3639	23292.49	3.7270	3.7269	-1.0123	26.21	0.26	-0.750			
0.3670	23487.03	3.7240	3.7240	-1.0238	26.21	0.26	-0.750			
0.3701	23683.56	3.7210	3.7210	-1.0282	26.21	0.26	-0.750			
0.3732	23881.80	3.7180	3.7179	-1.0363	26.21	0.26	-0.750			
0.3762	24078.14	3.7150	3.7150	-1.0472	26.21	0.26	-0.750			
0.3794	24282.74	3.7120	3.7119	-1.0709	26.21	0.26	-0.750			
0.3827	24491.84	3.7090	3.7089	-1.0828	26.21	0.26	-0.750			
0.3860	24701.01	3.7060	3.7061	-1.0985	26.21	0.26	-0.750			
0.3893	24913.30	3.7030	3.7031	-1.1057	26.21	0.26	-0.750			
0.3926	25128.25	3.7000	3.6999	-1.1369	26.21	0.26	-0.750			
0.3961	25347.26	3.6970	3.6969	-1.1485	26.21	0.26	-0.750			
0.3995	25568.94	3.6940	3.6939	-1.1591	26.22	0.27	-0.750			
0.4030	25792.30	3.6910	3.6914	-1.1789	26.22	0.27	-0.750			
0.4066	26023.06	3.6880	3.6880	-1.2092	26.22	0.27	-0.750			
0.4102	26254.24	3.6850	3.6850	-1.2290	26.21	0.26	-0.750			
0.4139	26488.72	3.6820	3.6820	-1.2637	26.21	0.26	-0.750			
0.4178	26737.26	3.6790	3.6790	-1.2926	26.21	0.26	-0.750			
0.4217	26990.44	3.6760	3.6760	-1.3201	26.21	0.26	-0.750			
0.4257	27246.51	3.6730	3.6729	-1.3588	26.21	0.26	-0.750			
0.4299	27510.94	3.6700	3.6700	-1.3750	26.21	0.26	-0.750			
0.4340	27777.83	3.6670	3.6669	-1.3945	26.20	0.25	-0.750			
0.4382	28046.58	3.6640	3.6640	-1.4351	26.19	0.24	-0.750			
0.4425	28321.18	3.6610	3.6610	-1.4690	26.19	0.24	-0.750			
0.4470	28610.40	3.6580	3.6578	-1.5125	26.19	0.24	-0.750			
0.4516	28904.62	3.6550	3.6552	-1.5464	26.19	0.24	-0.750			
0.4563	29204.78	3.6520	3.6519	-1.5752	26.18	0.23	-0.750			
0.4612	29515.35	3.6490	3.6489	-1.6213	26.18	0.23	-0.750			
0.4660	29826.61	3.6460	3.6461	-1.6650	26.17	0.22	-0.750			
0.4711	30147.61	3.6430	3.6430	-1.7093	26.17	0.22	-0.750			
0.4762	30479.01	3.6400	3.6399	-1.7468	26.16	0.21	-0.750			
0.4816	30821.45	3.6370	3.6369	-1.7928	26.16	0.21	-0.750	0.423	0.499	
0.4871	31176.05	3.6340	3.6340	-1.8215	26.15	0.20	-0.750			
0.4926	31526.00	3.6310	3.6310	-1.8518	26.15	0.20	-0.750			
0.4982	31885.51	3.6280	3.6281	-1.8728	26.14	0.19	-0.750			
0.5038	32243.21	3.6250	3.6250	-1.9086	26.13	0.18	-0.750			
0.5096	32616.78	3.6220	3.6220	-1.9413	26.13	0.18	-0.750			
0.5155	32991.76	3.6190	3.6193	-1.9807	26.13	0.18	-0.750			
0.5215	33376.26	3.6160	3.6161	-2.0218	26.12	0.17	-0.750			
0.5277	33772.96	3.6130	3.6129	-2.0660	26.11	0.16	-0.750			
0.5339	34168.63	3.6100	3.6104	-2.0995	26.10	0.15	-0.750			
0.5403	34577.99	3.6070	3.6069	-2.1495	26.09	0.14	-0.750			
0.5468	34992.64	3.6040	3.6040	-2.1809	26.09	0.14	-0.750			
0.5534	35417.25	3.6010	3.6012	-2.2200	26.09	0.14	-0.750			
0.5602	35853.28	3.5980	3.5979	-2.2627	26.09	0.14	-0.750			
0.5670	36287.19	3.5950	3.5951	-2.2755	26.09	0.14	-0.750			
0.5738	36723.86	3.5920	3.5919	-2.2998	26.09	0.14	-0.750			
0.5808	37170.44	3.5890	3.5892	-2.3304	26.09	0.14	-0.750			
0.5877	37612.92	3.5860	3.5860	-2.3461	26.09	0.14	-0.750			
0.5948	38066.61	3.5830	3.5830	-2.3979	26.08	0.13	-0.750			
0.6020	38529.95	3.5800	3.5799	-2.4254	26.07	0.12	-0.750			
0.6095	39007.80	3.5770	3.5771	-2.4622	26.07	0.12	-0.750			
0.6170	39486.08	3.5740	3.5741	-2.4780	26.07	0.12	-0.750			
0.6244	39963.14	3.5710	3.5709	-2.4843	26.08	0.13	-0.750			
0.6319	40439.39	3.5680	3.5679	-2.4836	26.08	0.13	-0.750			
0.6393	40914.45	3.5650	3.5650	-2.4852	26.09	0.14	-0.750			
0.6469	41399.68	3.5620	3.5622	-2.4656	26.09	0.14	-0.750			
0.6542	41869.77	3.5590	3.5590	-2.4539	26.09	0.14	-0.750			
0.6616	42342.28	3.5560	3.5560	-2.4420	26.09	0.14	-0.750			
0.6689	42807.97	3.5530	3.5528	-2.4411	26.10	0.15	-0.750			
0.6762	43279.20	3.5500	3.5501	-2.4141	26.11	0.16	-0.750			
0.6835	43741.44	3.5470	3.5472	-2.3911	26.12	0.17	-0.750			
0.6906	44198.71	3.5440	3.5441	-2.3627	26.13	0.18	-0.750			
0.6977	44653.46	3.5410	3.5409	-2.3435	26.13	0.18	-0.750			
0.7047	45100.01	3.5380	3.5380	-2.2959	26.13	0.18	-0.750			
0.7116	45544.89	3.5350	3.5352	-2.2508	26.14	0.19	-0.750			
0.7182	45967.10	3.5320	3.5320	-2.1898	26.15	0.20	-0.750			
0.7248	46385.87	3.5290	3.5290	-2.1243	26.17	0.22	-0.750			
0.7310	46786.05	3.5260	3.5263	-2.0575	26.18	0.23	-0.750			
0.7371	47175.58	3.5230	3.5229	-2.0164	26.18	0.23	-0.750			
0.7430	47553.95	3.5200	3.5198	-1.9398	26.20	0.25	-0.750			
0.7489	47928.11	3.5170	3.5172	-1.8874	26.22	0.27	-0.750			
0.7546	48291.66	3.5140	3.5138	-1.8330	26.24	0.29	-0.750			
0.7599	48632.70	3.5110	3.5111	-1.7405	26.25	0.30	-0.750			
0.7650	48959.47	3.5080	3.5082	-1.6687	26.27	0.32	-0.750			
0.7699	49271.27	3.5050	3.5050	-1.6018	26.28	0.33	-0.750			
0.7745	49571.10	3.5020	3.5019	-1.5365	26.28	0.33	-0.750			
0.7791	49859.66	3.4990	3.4990	-1.4887	26.30	0.35	-0.750			
0.7835	50141.36	3.4960	3.4960	-1.4485	26.32	0.37	-0.750			
0.7876	50408.40	3.4930	3.4930	-1.3958	26.34	0.39	-0.750			
0.7918	50673.86	3.4900	3.4900	-1.3447	26.35	0.40	-0.750			
0.7958	50931.65	3.4870	3.4869	-1.3054	26.37	0.42	-0.750			
0.7996	51175.62	3.4840	3.4839	-1.2570	26.38	0.43	-0.750			
0.8033	51410.56	3.4810	3.4812	-1.2105	26.39	0.44	-0.750			
0.8069	51642.50	3.4780	3.4779	-1.1660	26.41	0.46	-0.750			
0.8103	51859.74	3.4750	3.4750	-1.1173	26.43	0.48	-0.750			
0.8136	52068.53	3.4720	3.4720	-1.0801	26.44	0.49	-0.750			
0.8167	52271.81	3.4690	3.4689	-1.0487	26.46	0.51	-0.750			
0.8198	52467.61	3.4660	3.4659	-1.0161	26.47	0.52	-0.750			
0.8228	52657.29	3.4630	3.4630	-0.9868	26.48	0.53	-0.750			
0.8257	52842.50	3.4600	3.4601	-0.9732	26.49	0.54	-0.750			
0.8286	53028.00	3.4570	3.4571	-0.9813	26.50	0.55	-0.750			
0.8314	53211.23	3.4540	3.4538	-0.9936	26.51	0.56	-0.750			
0.8344	53399.65	3.4510	3.4509	-1.0277	26.52	0.57	-0.750			
0.8374	53595.55	3.4480	3.4481	-1.0747	26.53	0.58	-0.750			
0.8407	53807.76	3.4450	3.4453	-1.1442	26.54	0.59	-0.750			
0.8443	54035.05	3.4420	3.4419	-1.2027	26.55	0.60	-0.750			
0.8481	54275.59	3.4390	3.4389	-1.2384	26.56	0.61	-0.750			
0.8519	54518.71	3.4360	3.4359	-1.2769	26.58	0.63	-0.750			
0.8559	54776.40	3.4330	3.4330	-1.2854	26.59	0.64	-0.750			
0.8598	55025.43	3.4300	3.4298	-1.2677	26.60	0.65	-0.750			
0.8636	55270.53	3.4270	3.4271	-1.2308	26.61	0.66	-0.750			
0.8673	55506.33	3.4240	3.4239	-1.2048	26.61	0.66	-0.750			
0.8708	55732.83	3.4210	3.4210	-1.1592	26.62	0.67	-0.750			
0.8742	55950.60	3.4180	3.4179	-1.1164	26.63	0.68	-0.750			
0.8775	56157.49	3.4150	3.4152	-1.0646	26.64	0.69	-0.750			
0.8806	56361.14	3.4120	3.4119	-1.0363	26.64	0.69	-0.750			
0.8837	56555.96	3.4090	3.4090	-0.9928	26.65	0.70	-0.750			
0.8866	56742.16	3.4060	3.4059	-0.9521	26.65	0.70	-0.750			
0.8894	56919.10	3.4030	3.4029	-0.9080	26.66	0.71	-0.750			
0.8920	57090.68	3.4000	3.3999	-0.8776	26.67	0.72	-0.750			
0.8946	57255.20	3.3970	3.3969	-0.8456	26.67	0.72	-0.750			
0.8971	57413.41	3.3940	3.3940	-0.8122	26.68	0.73	-0.750			
0.8994	57563.00	3.3910	3.3910	-0.7784	26.69	0.74	-0.750			
0.9018	57714.21	3.3880	3.3880	-0.7559	26.70	0.75	-0.750			
0.9040	57856.38	3.3850	3.3849	-0.7250	26.70	0.75	-0.750			
0.9061	57991.71	3.3820	3.3820	-0.6965	26.71	0.76	-0.750			
0.9082	58121.80	3.3790	3.3789	-0.6662	26.72	0.77	-0.750			
0.9101	58247.08	3.3760	3.3760	-0.6415	26.72	0.77	-0.750			
0.9120	58368.71	3.3730	3.3729	-0.6163	26.73	0.78	-0.750			
0.9138	58483.77	3.3700	3.3700	-0.5902	26.74	0.79	-0.750			
0.9155	58595.01	3.3670	3.3671	-0.5651	26.74	0.79	-0.750			
0.9172	58700.50	3.3640	3.3640	-0.5407	26.75	0.80	-0.750			
0.9188	58801.42	3.3610	3.3610	-0.5178	26.76	0.81	-0.750			
0.9203	58897.80	3.3580	3.3580	-0.4966	26.76	0.81	-0.750			
0.9217	58991.42	3.3550	3.3549	-0.4768	26.77	0.82	-0.750			
0.9231	59080.35	3.3520	3.3520	-0.4583	26.78	0.83	-0.750			
0.9245	59166.43	3.3490	3.3490	-0.4388	26.78	0.83	-0.750			
0.9258	59249.35	3.3460	3.3460	-0.4207	26.79	0.84	-0.750			
0.9270	59328.03	3.3430	3.3429	-0.4020	26.80	0.85	-0.750			
0.9282	59403.50	3.3400	3.3401	-0.3850	26.80	0.85	-0.750			
0.9293	59475.49	3.3370	3.3370	-0.3665	26.81	0.86	-0.750			
0.9304	59544.44	3.3340	3.3340	-0.3492	26.81	0.86	-0.750			
0.9314	59608.83	3.3310	3.3311	-0.3324	26.82	0.87	-0.750			
0.9324	59671.53	3.3280	3.3280	-0.3189	26.82	0.87	-0.750			
0.9333	59730.77	3.3250	3.3250	-0.3050	26.83	0.88	-0.750			
0.9342	59787.73	3.3220	3.3220	-0.2923	26.83	0.88	-0.750			
0.9350	59842.46	3.3190	3.3190	-0.2805	26.83	0.88	-0.750			
0.9359	59895.47	3.3160	3.3160	-0.2705	26.84	0.89	-0.750			
0.9367	59946.33	3.3130	3.3129	-0.2596	26.84	0.89	-0.750			
0.9374	59994.59	3.3100	3.3100	-0.2483	26.85	0.90	-0.750			
0.9381	60041.34	3.3070	3.3071	-0.2387	26.85	0.90	-0.750			
0.9388	60085.92	3.3040	3.3039	-0.2289	26.85	0.90	-0.750			
0.9395	60128.99	3.3010	3.3011	-0.2198	26.86	0.91	-0.750			
0.9402	60170.19	3.2980	3.2980	-0.2113	26.86	0.91	-0.750			
0.9408	60209.55	3.2950	3.2951	-0.2034	26.86	0.91	-0.750			
0.9414	60247.67	3.2920	3.2919	-0.1969	26.87	0.92	-0.750			
0.9419	60284.44	3.2890	3.2891	-0.1899	26.87	0.92	-0.750			
0.9425	60320.18	3.2860	3.2860	-0.1837	26.87	0.92	-0.750			
0.9430	60354.78	3.2830	3.2830	-0.1779	26.88	0.93	-0.750			
0.9436	60388.44	3.2800	3.2800	-0.1723	26.88	0.93	-0.750			
0.9441	60420.98	3.2770	3.2769	-0.1667	26.88	0.93	-0.750			
0.9446	60452.45	3.2740	3.2740	-0.1616	26.89	0.94	-0.750			
0.9450	60482.53	3.2710	3.2710	-0.1568	26.89	0.94	-0.750			
0.9455	60511.91	3.2680	3.2681	-0.1521	26.89	0.94	-0.750			
0.9459	60540.80	3.2650	3.2648	-0.1483	26.90	0.95	-0.750			
0.9464	60568.93	3.2620	3.2619	-0.1443	26.90	0.95	-0.750			
0.9468	60596.20	3.2590	3.2590	-0.1405	26.90	0.95	-0.750			
0.9472	60622.97	3.2560	3.2561	-0.1372	26.90	0.95	-0.750			
0.9476	60648.82	3.2530	3.2530	-0.1337	26.91	0.96	-0.750			
0.9480	60674.08	3.2500	3.2500	-0.1301	26.91	0.96	-0.750			
0.9484	60698.40	3.2470	3.2470	-0.1266	26.91	0.96	-0.750			
0.9488	60722.45	3.2440	3.2440	-0.1239	26.91	0.96	-0.750			
0.9492	60745.98	3.2410	3.2410	-0.1213	26.92	0.97	-0.750			
0.9495	60769.05	3.2380	3.2380	-0.1187	26.92	0.97	-0.750			
0.9499	60791.48	3.2350	3.2350	-0.1165	26.92	0.97	-0.750			
0.9502	60813.50	3.2320	3.2320	-0.1141	26.92	0.97	-0.750			
0.9505	60835.18	3.2290	3.2289	-0.1119	26.93	0.98	-0.750			
0.9509	60856.39	3.2260	3.2260	-0.1097	26.93	0.98	-0.750			
0.9512	60877.26	3.2230	3.2230	-0.1077	26.93	0.98	-0.750			
0.9515	60897.72	3.2200	3.2201	-0.1056	26.93	0.98	-0.750			
0.9518	60917.83	3.2170	3.2170	-0.1033	26.93	0.98	-0.750			
0.9521	60937.57	3.2140	3.2140	-0.1012	26.94	0.99	-0.750			
0.9524	60956.62	3.2110	3.2109	-0.1000	26.94	0.99	-0.750			
0.9527	60975.43	3.2080	3.2081	-0.0981	26.94	0.99	-0.750			
0.9530	60994.20	3.2050	3.2048	-0.0962	26.94	0.99	-0.750			
0.9533	61012.49	3.2020	3.2020	-0.0946	26.95	1.00	-0.750			
0.9536	61030.46	3.1990	3.1991	-0.0931	26.95	1.00	-0.750			
0.9539	61048.19	3.1960	3.1961	-0.0916	26.95	1.00	-0.750			
0.9542	61065.64	3.1930	3.1928	-0.0905	26.96	1.01	-0.750			
0.9544	61082.88	3.1900	3.1900	-0.0891	26.96	1.01	-0.750			
0.9547	61099.58	3.1870	3.1871	-0.0873	26.96	1.01	-0.750			
0.9549	61116.26	3.1840	3.1840	-0.0864	26.96	1.01	-0.750			
0.9552	61132.98	3.1810	3.1811	-0.0857	26.97	1.02	-0.750			
0.9555	61149.30	3.1780	3.1779	-0.0844	26.97	1.02	-0.750			
0.9557	61165.37	3.1750	3.1752	-0.0830	26.97	1.02	-0.750			
0.9560	61181.13	3.1720	3.1720	-0.0819	26.98	1.03	-0.750			
0.9562	61196.74	3.1690	3.1689	-0.0807	26.98	1.03	-0.750			
0.9564	61212.08	3.1660	3.1661	-0.0795	26.98	1.03	-0.750			
0.9567	61227.22	3.1630	3.1629	-0.0786	26.98	1.03	-0.750			
0.9569	61242.12	3.1600	3.1599	-0.0775	26.99	1.04	-0.750			
0.9571	61256.98	3.1570	3.1571	-0.0764	26.99	1.04	-0.750			
0.9574	61271.54	3.1540	3.1540	-0.0754	26.99	1.04	-0.750			
0.9576	61285.99	3.1510	3.1510	-0.0744	27.00	1.05	-0.750			
0.9578	61300.02	3.1480	3.1480	-0.0738	27.00	1.05	-0.750			
0.9580	61313.98	3.1450	3.1451	-0.0727	27.00	1.05	-0.750			
0.9582	61327.89	3.1420	3.1419	-0.0721	27.00	1.05	-0.750			
0.9585	61341.68	3.1390	3.1389	-0.0714	27.01	1.06	-0.750			
0.9587	61355.23	3.1360	3.1361	-0.0706	27.01	1.06	-0.750			
0.9589	61368.85	3.1330	3.1332	-0.0698	27.01	1.06	-0.750			
0.9591	61382.18	3.1300	3.1299	-0.0691	27.01	1.06	-0.750			
0.9593	61395.58	3.1270	3.1270	-0.0684	27.02	1.07	-0.750			
0.9595	61408.52	3.1240	3.1239	-0.0678	27.02	1.07	-0.750			
0.9597	61421.34	3.1210	3.1211	-0.0668	27.02	1.07	-0.750			
0.9599	61434.10	3.1180	3.1179	-0.0661	27.02	1.07	-0.750			
0.9601	61446.77	3.1150	3.1149	-0.0654	27.03	1.08	-0.750			
0.9603	61459.23	3.1120	3.1120	-0.0646	27.03	1.08	-0.750			
0.9605	61471.58	3.1090	3.1090	-0.0640	27.03	1.08	-0.750			
0.9607	61483.76	3.1060	3.1060	-0.0634	27.03	1.08	-0.750			
0.9609	61495.90	3.1030	3.1031	-0.0629	27.03	1.08	-0.750			
0.9611	61507.91	3.1000	3.1000	-0.0622	27.04	1.09	-0.750			
0.9612	61519.71	3.0970	3.0970	-0.0615	27.04	1.09	-0.750			
0.9614	61531.47	3.0940	3.0939	-0.0610	27.04	1.09	-0.750			
0.9616	61543.15	3.0910	3.0911	-0.0606	27.04	1.09	-0.750			
0.9618	61554.72	3.0880	3.0879	-0.0602	27.05	1.10	-0.750			
0.9620	61566.23	3.0850	3.0850	-0.0598	27.05	1.10	-0.750			
0.9622	61577.66	3.0820	3.0820	-0.0593	27.05	1.10	-0.750			
0.9623	61589.01	3.0790	3.0790	-0.0589	27.05	1.10	-0.750			
0.9625	61600.30	3.0760	3.0759	-0.0582	27.05	1.10	-0.750			
0.9627	61611.43	3.0730	3.0731	-0.0577	27.06	1.11	-0.750			
0.9629	61622.46	3.0700	3.0701	-0.0572	27.06	1.11	-0.750			
0.9630	61633.44	3.0670	3.0670	-0.0568	27.06	1.11	-0.750			
0.9632	61644.28	3.0640	3.0640	-0.0562	27.06	1.11	-0.750			
0.9634	61655.03	3.0610	3.0610	-0.0557	27.07	1.12	-0.750			
0.9635	61665.51	3.0580	3.0580	-0.0551	27.07	1.12	-0.750			
0.9637	61676.05	3.0550	3.0550	-0.0547	27.07	1.12	-0.750			
0.9639	61686.52	3.0520	3.0521	-0.0544	27.07	1.12	-0.750			
0.9640	61696.93	3.0490	3.0491	-0.0540	27.07	1.12	-0.750			
0.9642	61707.30	3.0460	3.0459	-0.0536	27.08	1.13	-0.750			
0.9643	61717.56	3.0430	3.0428	-0.0532	27.08	1.13	-0.750			
0.9645	61727.74	3.0400	3.0400	-0.0528	27.08	1.13	-0.750			
0.9647	61737.90	3.0370	3.0371	-0.0525	27.08	1.13	-0.750			
0.9648	61747.93	3.0340	3.0342	-0.0520	27.08	1.13	-0.750			
0.9650	61757.87	3.0310	3.0310	-0.0515	27.09	1.14	-0.750			
0.9651	61767.70	3.0280	3.0281	-0.0511	27.09	1.14	-0.750			
0.9653	61777.42	3.0250	3.0249	-0.0507	27.09	1.14	-0.750			
0.9654	61787.13	3.0220	3.0219	-0.0504	27.09	1.14	-0.750			
0.9656	61796.78	3.0190	3.0191	-0.0500	27.09	1.14	-0.750			
0.9657	61806.29	3.0160	3.0160	-0.0497	27.09	1.14	-0.750			
0.9659	61815.81	3.0130	3.0131	-0.0494	27.10	1.15	-0.750			
0.9660	61825.27	3.0100	3.0101	-0.0492	27.10	1.15	-0.750			
0.9662	61834.68	3.0070	3.0070	-0.0489	27.10	1.15	-0.751			
