Ah_balance (normalized)	Ah_balance (mAh)	Voltage - fit (V)	Voltage -  interpolate (V)	dQ/dV (1/V)	Temperature (°C)	Temperature - diff (°C)	Current (C)	R_DC 0ms (mOhm)	R_DC 50ms (mOhm)	R_DC 50 ms PEC (mOhm)
0.0003	16.86	4.1610	4.1606	-0.1062	25.81	0.02	-0.750			
0.0007	42.59	4.1580	4.1577	-0.1524	25.81	0.02	-0.750			
0.0012	76.12	4.1550	4.1549	-0.1924	25.81	0.02	-0.750			
0.0018	116.73	4.1520	4.1521	-0.2317	25.81	0.02	-0.750			
0.0026	165.67	4.1490	4.1491	-0.2684	25.81	0.02	-0.750			
0.0035	221.97	4.1460	4.1459	-0.3058	25.80	0.01	-0.750			
0.0044	283.92	4.1430	4.1430	-0.3391	25.80	0.01	-0.750			
0.0055	352.39	4.1400	4.1401	-0.3705	25.80	0.01	-0.750			
0.0067	427.13	4.1370	4.1370	-0.4031	25.80	0.01	-0.750			
0.0079	507.61	4.1340	4.1340	-0.4358	25.80	0.01	-0.750			
0.0093	595.48	4.1310	4.1308	-0.4602	25.79	0.00	-0.750			
0.0107	687.01	4.1280	4.1280	-0.4857	25.79	0.00	-0.750			
0.0122	783.55	4.1250	4.1253	-0.5069	25.79	-0.00	-0.750			
0.0138	883.68	4.1220	4.1219	-0.5265	25.79	-0.00	-0.750			
0.0154	986.95	4.1190	4.1190	-0.5427	25.78	-0.01	-0.750			
0.0171	1092.07	4.1160	4.1160	-0.5539	25.78	-0.01	-0.750			
0.0188	1200.95	4.1130	4.1130	-0.5736	25.78	-0.01	-0.750			
0.0205	1313.14	4.1100	4.1100	-0.5842	25.78	-0.01	-0.750			
0.0223	1426.28	4.1070	4.1069	-0.5923	25.77	-0.02	-0.750			
0.0241	1540.84	4.1040	4.1040	-0.6031	25.77	-0.02	-0.750			
0.0259	1656.61	4.1010	4.1010	-0.6157	25.77	-0.02	-0.750			
0.0277	1776.00	4.0980	4.0979	-0.6281	25.76	-0.03	-0.750			
0.0297	1898.40	4.0950	4.0949	-0.6360	25.76	-0.03	-0.750			
0.0316	2020.90	4.0920	4.0921	-0.6416	25.76	-0.03	-0.750			
0.0336	2147.59	4.0890	4.0891	-0.6520	25.76	-0.03	-0.750			
0.0355	2273.22	4.0860	4.0859	-0.6559	25.75	-0.04	-0.750			
0.0375	2398.31	4.0830	4.0830	-0.6581	25.75	-0.04	-0.750			
0.0394	2524.78	4.0800	4.0800	-0.6617	25.74	-0.05	-0.750			
0.0414	2652.13	4.0770	4.0770	-0.6694	25.74	-0.05	-0.750			
0.0435	2782.03	4.0740	4.0739	-0.6756	25.73	-0.06	-0.750			
0.0455	2912.47	4.0710	4.0710	-0.6769	25.73	-0.06	-0.750			
0.0475	3042.13	4.0680	4.0680	-0.6802	25.72	-0.07	-0.750			
0.0496	3174.09	4.0650	4.0651	-0.6823	25.72	-0.07	-0.750			
0.0516	3304.97	4.0620	4.0619	-0.6857	25.72	-0.07	-0.750			
0.0537	3436.27	4.0590	4.0590	-0.6874	25.72	-0.07	-0.750			
0.0557	3567.82	4.0560	4.0561	-0.6943	25.72	-0.07	-0.750			
0.0579	3703.01	4.0530	4.0529	-0.6982	25.72	-0.07	-0.750			
0.0600	3838.18	4.0500	4.0500	-0.7010	25.72	-0.07	-0.750			
0.0621	3972.25	4.0470	4.0472	-0.7001	25.72	-0.07	-0.750			
0.0642	4107.23	4.0440	4.0439	-0.7021	25.72	-0.07	-0.750			
0.0663	4241.70	4.0410	4.0410	-0.7042	25.72	-0.07	-0.750			
0.0684	4375.50	4.0380	4.0380	-0.7107	25.72	-0.07	-0.750			
0.0705	4513.62	4.0350	4.0350	-0.7127	25.72	-0.07	-0.750			
0.0727	4651.29	4.0320	4.0320	-0.7147	25.72	-0.07	-0.750			
0.0748	4788.89	4.0290	4.0293	-0.7161	25.72	-0.07	-0.750			
0.0770	4926.43	4.0260	4.0258	-0.7164	25.72	-0.07	-0.750			
0.0791	5061.92	4.0230	4.0231	-0.7205	25.72	-0.07	-0.750			
0.0812	5199.97	4.0200	4.0200	-0.7185	25.72	-0.07	-0.750			
0.0834	5340.76	4.0170	4.0169	-0.7226	25.72	-0.07	-0.750			
0.0856	5479.28	4.0140	4.0139	-0.7243	25.72	-0.07	-0.750			
0.0878	5617.67	4.0110	4.0112	-0.7227	25.72	-0.07	-0.750			
0.0899	5755.88	4.0080	4.0079	-0.7255	25.72	-0.07	-0.750			
0.0921	5893.73	4.0050	4.0049	-0.7307	25.72	-0.07	-0.750			
0.0943	6034.45	4.0020	4.0021	-0.7285	25.72	-0.07	-0.750			
0.0965	6176.73	3.9990	3.9990	-0.7405	25.72	-0.07	-0.750			
0.0988	6320.32	3.9960	3.9960	-0.7488	25.72	-0.07	-0.750			
0.1010	6464.05	3.9930	3.9929	-0.7491	25.72	-0.07	-0.750			
0.1032	6607.70	3.9900	3.9899	-0.7522	25.72	-0.07	-0.750			
0.1055	6752.61	3.9870	3.9870	-0.7520	25.72	-0.07	-0.750			
0.1078	6897.42	3.9840	3.9840	-0.7497	25.72	-0.07	-0.750			
0.1101	7045.02	3.9810	3.9810	-0.7555	25.72	-0.07	-0.750			
0.1123	7187.18	3.9780	3.9781	-0.7495	25.72	-0.07	-0.750			
0.1145	7329.91	3.9750	3.9750	-0.7481	25.73	-0.06	-0.750			
0.1168	7473.40	3.9720	3.9720	-0.7526	25.73	-0.06	-0.750			
0.1190	7616.95	3.9690	3.9690	-0.7545	25.74	-0.05	-0.750			
0.1213	7764.70	3.9660	3.9660	-0.7601	25.74	-0.05	-0.750			
0.1236	7910.32	3.9630	3.9628	-0.7571	25.75	-0.04	-0.750			
0.1259	8056.29	3.9600	3.9601	-0.7585	25.75	-0.04	-0.750			
0.1281	8200.84	3.9570	3.9570	-0.7626	25.75	-0.04	-0.750			
0.1304	8345.70	3.9540	3.9539	-0.7650	25.75	-0.04	-0.750			
0.1327	8492.34	3.9510	3.9510	-0.7630	25.75	-0.04	-0.750			
0.1350	8641.50	3.9480	3.9480	-0.7690	25.75	-0.04	-0.750			
0.1374	8791.24	3.9450	3.9452	-0.7763	25.75	-0.04	-0.750			
0.1397	8940.77	3.9420	3.9420	-0.7765	25.75	-0.04	-0.750			
0.1420	9089.03	3.9390	3.9389	-0.7764	25.75	-0.04	-0.750			
0.1443	9237.89	3.9360	3.9360	-0.7767	25.75	-0.04	-0.750			
0.1467	9387.07	3.9330	3.9330	-0.7762	25.75	-0.04	-0.750			
0.1490	9536.65	3.9300	3.9300	-0.7772	25.75	-0.04	-0.750			
0.1513	9685.43	3.9270	3.9270	-0.7787	25.75	-0.04	-0.750			
0.1536	9832.33	3.9240	3.9240	-0.7863	25.76	-0.03	-0.750			
0.1560	9985.56	3.9210	3.9210	-0.7866	25.76	-0.03	-0.750			
0.1584	10136.97	3.9180	3.9179	-0.7902	25.76	-0.03	-0.750			
0.1608	10290.34	3.9150	3.9150	-0.7943	25.77	-0.02	-0.750			
0.1632	10444.09	3.9120	3.9121	-0.7934	25.77	-0.02	-0.750			
0.1655	10594.27	3.9090	3.9089	-0.7993	25.78	-0.01	-0.750			
0.1679	10748.52	3.9060	3.9060	-0.7963	25.78	-0.01	-0.750			
0.1703	10899.85	3.9030	3.9030	-0.7904	25.78	-0.01	-0.750			
0.1727	11053.83	3.9000	3.9000	-0.7989	25.79	-0.00	-0.750			
0.1751	11207.77	3.8970	3.8971	-0.7989	25.79	0.00	-0.750			
0.1775	11361.95	3.8940	3.8940	-0.7958	25.79	0.00	-0.750			
0.1799	11513.92	3.8910	3.8910	-0.7968	25.79	0.00	-0.750			
0.1823	11665.04	3.8880	3.8882	-0.7974	25.79	0.00	-0.750			
0.1847	11819.93	3.8850	3.8849	-0.8054	25.79	0.00	-0.750			
0.1871	11974.14	3.8820	3.8819	-0.8038	25.79	0.00	-0.750			
0.1895	12127.94	3.8790	3.8790	-0.8037	25.79	0.00	-0.750			
0.1919	12283.40	3.8760	3.8761	-0.8130	25.80	0.01	-0.750			
0.1944	12442.56	3.8730	3.8729	-0.8167	25.80	0.01	-0.750			
0.1969	12598.95	3.8700	3.8700	-0.8127	25.81	0.02	-0.750			
0.1993	12754.84	3.8670	3.8672	-0.8103	25.81	0.02	-0.750			
0.2017	12910.17	3.8640	3.8640	-0.8102	25.81	0.02	-0.750			
0.2042	13065.98	3.8610	3.8609	-0.8127	25.82	0.03	-0.750			
0.2066	13220.92	3.8580	3.8580	-0.8103	25.82	0.03	-0.750			
0.2090	13376.48	3.8550	3.8550	-0.8031	25.83	0.04	-0.750			
0.2115	13532.89	3.8520	3.8521	-0.8083	25.83	0.04	-0.750			
0.2139	13687.09	3.8490	3.8490	-0.8119	25.83	0.04	-0.750			
0.2163	13842.07	3.8460	3.8459	-0.8117	25.84	0.05	-0.750			
0.2187	13998.19	3.8430	3.8429	-0.8077	25.84	0.05	-0.750			
0.2211	14152.43	3.8400	3.8401	-0.8065	25.84	0.05	-0.750			
0.2236	14309.39	3.8370	3.8371	-0.8126	25.85	0.06	-0.750			
0.2260	14465.73	3.8340	3.8339	-0.8132	25.85	0.06	-0.750			
0.2284	14618.63	3.8310	3.8310	-0.8131	25.86	0.07	-0.750			
0.2309	14776.74	3.8280	3.8280	-0.8124	25.86	0.07	-0.750			
0.2334	14934.88	3.8250	3.8250	-0.8141	25.86	0.07	-0.750			
0.2358	15092.53	3.8220	3.8219	-0.8101	25.87	0.08	-0.750			
0.2382	15247.46	3.8190	3.8191	-0.8041	25.87	0.08	-0.750			
0.2406	15398.77	3.8160	3.8160	-0.8061	25.88	0.09	-0.750			
0.2430	15553.58	3.8130	3.8130	-0.8005	25.88	0.09	-0.750			
0.2454	15706.53	3.8100	3.8099	-0.7952	25.88	0.09	-0.750			
0.2478	15861.19	3.8070	3.8069	-0.7949	25.89	0.10	-0.750			
0.2502	16014.19	3.8040	3.8042	-0.7923	25.89	0.10	-0.750			
0.2526	16165.35	3.8010	3.8009	-0.7892	25.89	0.10	-0.750			
0.2549	16315.62	3.7980	3.7979	-0.7835	25.89	0.10	-0.750			
0.2572	16462.73	3.7950	3.7951	-0.7761	25.89	0.10	-0.750			
0.2596	16615.55	3.7920	3.7920	-0.7796	25.89	0.10	-0.750			
0.2620	16766.45	3.7890	3.7890	-0.7755	25.89	0.10	-0.750			
0.2643	16914.32	3.7860	3.7860	-0.7719	25.90	0.11	-0.750			
0.2666	17060.20	3.7830	3.7830	-0.7695	25.90	0.11	-0.750			
0.2689	17208.06	3.7800	3.7800	-0.7670	25.91	0.12	-0.750			
0.2712	17355.27	3.7770	3.7770	-0.7658	25.91	0.12	-0.750			
0.2735	17502.23	3.7740	3.7740	-0.7636	25.92	0.13	-0.750			
0.2758	17649.18	3.7710	3.7710	-0.7621	25.92	0.13	-0.750			
0.2781	17795.47	3.7680	3.7680	-0.7601	25.93	0.14	-0.750			
0.2803	17940.98	3.7650	3.7649	-0.7621	25.93	0.14	-0.750			
0.2826	18087.70	3.7620	3.7620	-0.7582	25.93	0.14	-0.750			
0.2849	18234.28	3.7590	3.7589	-0.7577	25.94	0.15	-0.750			
0.2872	18379.84	3.7560	3.7564	-0.7573	25.94	0.15	-0.750			
0.2894	18524.66	3.7530	3.7529	-0.7579	25.94	0.15	-0.750			
0.2917	18667.90	3.7500	3.7500	-0.7609	25.94	0.15	-0.750			
0.2940	18813.44	3.7470	3.7470	-0.7665	25.95	0.16	-0.750			
0.2963	18962.84	3.7440	3.7439	-0.7749	25.95	0.16	-0.750			
0.2986	19111.24	3.7410	3.7410	-0.7797	25.95	0.16	-0.750			
0.3010	19261.95	3.7380	3.7381	-0.7859	25.95	0.16	-0.750			
0.3033	19412.45	3.7350	3.7350	-0.7939	25.95	0.16	-0.750			
0.3057	19564.40	3.7320	3.7320	-0.7992	25.95	0.16	-0.750			
0.3081	19717.99	3.7290	3.7290	-0.8098	25.96	0.17	-0.750			
0.3105	19875.19	3.7260	3.7259	-0.8209	25.96	0.17	-0.750			
0.3130	20034.30	3.7230	3.7230	-0.8363	25.96	0.17	-0.750			
0.3156	20195.30	3.7200	3.7200	-0.8512	25.96	0.17	-0.750			
0.3181	20360.78	3.7170	3.7169	-0.8633	25.96	0.17	-0.750			
0.3207	20526.87	3.7140	3.7139	-0.8762	25.96	0.17	-0.750			
0.3234	20697.43	3.7110	3.7110	-0.8956	25.96	0.17	-0.750			
0.3261	20870.22	3.7080	3.7080	-0.9114	25.96	0.17	-0.750			
0.3289	21047.37	3.7050	3.7049	-0.9276	25.96	0.17	-0.750			
0.3316	21224.84	3.7020	3.7020	-0.9398	25.97	0.18	-0.750			
0.3345	21406.87	3.6990	3.6991	-0.9588	25.97	0.18	-0.750			
0.3374	21594.31	3.6960	3.6960	-0.9814	25.97	0.18	-0.750			
0.3404	21783.54	3.6930	3.6929	-0.9964	25.97	0.18	-0.750			
0.3434	21975.60	3.6900	3.6901	-1.0154	25.96	0.17	-0.750			
0.3464	22172.56	3.6870	3.6870	-1.0390	25.96	0.17	-0.750			
0.3496	22372.73	3.6840	3.6843	-1.0697	25.96	0.17	-0.750			
0.3529	22582.85	3.6810	3.6809	-1.0902	25.96	0.17	-0.750			
0.3562	22795.04	3.6780	3.6780	-1.1095	25.95	0.16	-0.750			
0.3595	23010.47	3.6750	3.6749	-1.1288	25.95	0.16	-0.750			
0.3630	23229.95	3.6720	3.6722	-1.1502	25.95	0.16	-0.750			
0.3664	23450.64	3.6690	3.6690	-1.1695	25.94	0.15	-0.750			
0.3699	23674.40	3.6660	3.6660	-1.1896	25.94	0.15	-0.750			
0.3735	23901.93	3.6630	3.6630	-1.2121	25.93	0.14	-0.750			
0.3772	24143.85	3.6600	3.6599	-1.2409	25.93	0.14	-0.750			
0.3810	24384.74	3.6570	3.6570	-1.2671	25.92	0.13	-0.750			
0.3848	24626.87	3.6540	3.6541	-1.2973	25.91	0.12	-0.750			
0.3887	24879.33	3.6510	3.6510	-1.3175	25.91	0.12	-0.750			
0.3927	25134.86	3.6480	3.6479	-1.3400	25.90	0.11	-0.750			
0.3968	25393.01	3.6450	3.6450	-1.3783	25.89	0.10	-0.750			
0.4010	25662.79	3.6420	3.6420	-1.4005	25.89	0.10	-0.750			
0.4052	25933.94	3.6390	3.6390	-1.4431	25.88	0.09	-0.750			
0.4096	26214.56	3.6360	3.6359	-1.4598	25.87	0.08	-0.750			
0.4140	26497.56	3.6330	3.6329	-1.4796	25.87	0.08	-0.750			
0.4185	26783.71	3.6300	3.6300	-1.5337	25.86	0.07	-0.750			
0.4231	27077.59	3.6270	3.6271	-1.5684	25.85	0.06	-0.750			
0.4279	27386.17	3.6240	3.6238	-1.5874	25.84	0.05	-0.750			
0.4328	27696.84	3.6210	3.6210	-1.6295	25.84	0.05	-0.750			
0.4377	28010.06	3.6180	3.6182	-1.6457	25.83	0.04	-0.750	0.391	0.530	
0.4427	28333.75	3.6150	3.6148	-1.6695	25.83	0.04	-0.750			
0.4478	28657.21	3.6120	3.6121	-1.6817	25.82	0.03	-0.750			
0.4527	28973.42	3.6090	3.6088	-1.7124	25.82	0.03	-0.750			
0.4580	29309.20	3.6060	3.6058	-1.7513	25.81	0.02	-0.750			
0.4632	29643.02	3.6030	3.6030	-1.7932	25.81	0.02	-0.750			
0.4686	29987.45	3.6000	3.6002	-1.8431	25.81	0.02	-0.750			
0.4742	30349.27	3.5970	3.5970	-1.8850	25.81	0.02	-0.750			
0.4800	30718.51	3.5940	3.5939	-1.9440	25.81	0.02	-0.750			
0.4859	31100.69	3.5910	3.5911	-1.9779	25.80	0.01	-0.750			
0.4919	31482.83	3.5880	3.5881	-2.0049	25.80	0.01	-0.750			
0.4980	31869.64	3.5850	3.5849	-2.0475	25.79	0.00	-0.750			
0.5041	32262.22	3.5820	3.5821	-2.0593	25.79	0.00	-0.750			
0.5104	32663.17	3.5790	3.5789	-2.0958	25.79	0.00	-0.750			
0.5167	33069.87	3.5760	3.5760	-2.1286	25.79	0.00	-0.750			
0.5232	33487.88	3.5730	3.5730	-2.1319	25.79	0.00	-0.750			
0.5298	33907.24	3.5700	3.5700	-2.1371	25.79	-0.00	-0.750			
0.5361	34311.01	3.5670	3.5671	-2.1332	25.78	-0.01	-0.750			
0.5425	34717.14	3.5640	3.5640	-2.1269	25.78	-0.01	-0.750			
0.5489	35126.59	3.5610	3.5609	-2.1404	25.78	-0.01	-0.750			
0.5552	35531.86	3.5580	3.5580	-2.1621	25.78	-0.01	-0.750			
0.5618	35953.65	3.5550	3.5548	-2.1530	25.79	-0.00	-0.750			
0.5683	36369.93	3.5520	3.5522	-2.1845	25.79	0.00	-0.750			
0.5748	36789.99	3.5490	3.5491	-2.1830	25.79	0.00	-0.750			
0.5813	37205.62	3.5460	3.5456	-2.1876	25.80	0.01	-0.750			
0.5880	37632.85	3.5430	3.5430	-2.1607	25.80	0.01	-0.750			
0.5946	38054.42	3.5400	3.5400	-2.1494	25.81	0.02	-0.750			
0.6010	38460.90	3.5370	3.5371	-2.1431	25.81	0.02	-0.750			
0.6074	38875.96	3.5340	3.5338	-2.0942	25.82	0.03	-0.750			
0.6136	39271.67	3.5310	3.5310	-2.0611	25.82	0.03	-0.750			
0.6198	39665.43	3.5280	3.5281	-2.0205	25.83	0.04	-0.750			
0.6258	40049.55	3.5250	3.5251	-1.9851	25.84	0.05	-0.750			
0.6317	40427.76	3.5220	3.5220	-1.9475	25.85	0.06	-0.750			
0.6375	40802.59	3.5190	3.5188	-1.9094	25.85	0.06	-0.750			
0.6432	41162.96	3.5160	3.5164	-1.8490	25.86	0.07	-0.750			
0.6488	41522.56	3.5130	3.5129	-1.8162	25.88	0.09	-0.750			
0.6541	41864.15	3.5100	3.5100	-1.7471	25.89	0.10	-0.750			
0.6592	42191.84	3.5070	3.5071	-1.6865	25.90	0.11	-0.750			
0.6643	42512.05	3.5040	3.5040	-1.6389	25.92	0.13	-0.750			
0.6690	42814.46	3.5010	3.5010	-1.5743	25.93	0.14	-0.750			
0.6737	43116.24	3.4980	3.4979	-1.5405	25.94	0.15	-0.750			
0.6782	43404.64	3.4950	3.4949	-1.4834	25.95	0.16	-0.750			
0.6826	43688.69	3.4920	3.4920	-1.4461	25.97	0.18	-0.750			
0.6869	43962.02	3.4890	3.4892	-1.4119	25.99	0.20	-0.750			
0.6910	44226.97	3.4860	3.4860	-1.3630	26.00	0.21	-0.750			
0.6951	44486.93	3.4830	3.4829	-1.3193	26.02	0.23	-0.750			
0.6990	44735.91	3.4800	3.4802	-1.2736	26.03	0.24	-0.750			
0.7028	44979.15	3.4770	3.4770	-1.2404	26.04	0.25	-0.750			
0.7064	45212.27	3.4740	3.4740	-1.1936	26.05	0.26	-0.750			
0.7099	45434.94	3.4710	3.4709	-1.1496	26.06	0.27	-0.750			
0.7133	45649.60	3.4680	3.4681	-1.1122	26.08	0.29	-0.750			
0.7166	45862.26	3.4650	3.4649	-1.0793	26.09	0.30	-0.750			
0.7198	46065.32	3.4620	3.4620	-1.0445	26.11	0.32	-0.750			
0.7228	46260.30	3.4590	3.4590	-1.0069	26.12	0.33	-0.750			
0.7258	46453.41	3.4560	3.4560	-0.9813	26.14	0.35	-0.750			
0.7287	46638.15	3.4530	3.4530	-0.9569	26.15	0.36	-0.750			
0.7315	46818.58	3.4500	3.4500	-0.9306	26.16	0.37	-0.750			
0.7343	46994.51	3.4470	3.4469	-0.9045	26.17	0.38	-0.750			
0.7370	47166.20	3.4440	3.4443	-0.8875	26.18	0.39	-0.750			
0.7396	47332.11	3.4410	3.4410	-0.8709	26.19	0.40	-0.750			
0.7421	47495.90	3.4380	3.4380	-0.8684	26.20	0.41	-0.750			
0.7447	47659.16	3.4350	3.4350	-0.8658	26.20	0.41	-0.750			
0.7473	47824.42	3.4320	3.4319	-0.8762	26.21	0.42	-0.750			
0.7499	47993.11	3.4290	3.4291	-0.8903	26.22	0.43	-0.750			
0.7526	48166.16	3.4260	3.4259	-0.9113	26.23	0.44	-0.750			
0.7554	48343.71	3.4230	3.4230	-0.9238	26.24	0.45	-0.750			
0.7582	48522.65	3.4200	3.4200	-0.9347	26.25	0.46	-0.750			
0.7610	48704.34	3.4170	3.4171	-0.9486	26.27	0.48	-0.750			
0.7639	48887.99	3.4140	3.4140	-0.9634	26.27	0.48	-0.750			
0.7668	49076.29	3.4110	3.4109	-0.9578	26.28	0.49	-0.750			
0.7697	49261.96	3.4080	3.4080	-0.9491	26.29	0.50	-0.750			
0.7726	49443.81	3.4050	3.4050	-0.9345	26.30	0.51	-0.750			
0.7754	49626.25	3.4020	3.4021	-0.9237	26.30	0.51	-0.750			
0.7781	49800.37	3.3990	3.3989	-0.8980	26.31	0.52	-0.750			
0.7808	49969.13	3.3960	3.3959	-0.8669	26.32	0.53	-0.750			
0.7833	50131.75	3.3930	3.3931	-0.8395	26.33	0.54	-0.750			
0.7858	50294.08	3.3900	3.3900	-0.8207	26.34	0.55	-0.750			
0.7883	50449.18	3.3870	3.3869	-0.7914	26.34	0.55	-0.750			
0.7906	50597.58	3.3840	3.3840	-0.7611	26.35	0.56	-0.750			
0.7928	50740.70	3.3810	3.3810	-0.7337	26.35	0.56	-0.750			
0.7950	50878.72	3.3780	3.3780	-0.7075	26.36	0.57	-0.750			
0.7971	51012.52	3.3750	3.3750	-0.6828	26.36	0.57	-0.750			
0.7991	51140.05	3.3720	3.3720	-0.6552	26.37	0.58	-0.750			
0.8010	51263.26	3.3690	3.3690	-0.6314	26.38	0.59	-0.750			
0.8028	51382.33	3.3660	3.3660	-0.6078	26.38	0.59	-0.750			
0.8046	51496.45	3.3630	3.3630	-0.5854	26.39	0.60	-0.750			
0.8063	51605.73	3.3600	3.3600	-0.5653	26.40	0.61	-0.750			
0.8080	51712.12	3.3570	3.3570	-0.5460	26.40	0.61	-0.750			
0.8096	51815.47	3.3540	3.3540	-0.5279	26.41	0.62	-0.750			
0.8112	51914.73	3.3510	3.3509	-0.5095	26.42	0.63	-0.750			
0.8127	52010.95	3.3480	3.3481	-0.4910	26.42	0.63	-0.750			
0.8141	52103.30	3.3450	3.3450	-0.4753	26.43	0.64	-0.750			
0.8155	52192.29	3.3420	3.3419	-0.4588	26.43	0.64	-0.750			
0.8169	52278.53	3.3390	3.3390	-0.4406	26.44	0.65	-0.750			
0.8182	52361.86	3.3360	3.3360	-0.4276	26.44	0.65	-0.750			
0.8194	52442.36	3.3330	3.3331	-0.4162	26.45	0.66	-0.750			
0.8206	52521.30	3.3300	3.3299	-0.4038	26.45	0.66	-0.750			
0.8218	52597.64	3.3270	3.3269	-0.3910	26.46	0.67	-0.750			
0.8230	52671.21	3.3240	3.3240	-0.3778	26.46	0.67	-0.750			
0.8241	52742.56	3.3210	3.3211	-0.3668	26.47	0.68	-0.750			
0.8252	52812.33	3.3180	3.3178	-0.3551	26.47	0.68	-0.750			
0.8262	52877.91	3.3150	3.3150	-0.3449	26.48	0.69	-0.750			
0.8272	52943.03	3.3120	3.3120	-0.3349	26.49	0.70	-0.750			
0.8282	53006.37	3.3090	3.3090	-0.3255	26.49	0.70	-0.750			
0.8292	53068.70	3.3060	3.3060	-0.3194	26.50	0.71	-0.750			
0.8301	53129.01	3.3030	3.3031	-0.3103	26.50	0.71	-0.750			
0.8311	53187.65	3.3000	3.2998	-0.3028	26.51	0.72	-0.750			
0.8320	53244.93	3.2970	3.2970	-0.2963	26.51	0.72	-0.750			
0.8328	53300.74	3.2940	3.2941	-0.2890	26.52	0.73	-0.750			
0.8337	53356.06	3.2910	3.2909	-0.2851	26.52	0.73	-0.750			
0.8345	53410.27	3.2880	3.2880	-0.2779	26.53	0.74	-0.750			
0.8354	53462.64	3.2850	3.2849	-0.2706	26.53	0.74	-0.750			
0.8362	53514.13	3.2820	3.2821	-0.2654	26.54	0.75	-0.750			
0.8369	53564.63	3.2790	3.2791	-0.2579	26.54	0.75	-0.750			
0.8377	53613.18	3.2760	3.2760	-0.2522	26.54	0.75	-0.750			
0.8384	53660.67	3.2730	3.2730	-0.2470	26.55	0.76	-0.750			
0.8392	53707.13	3.2700	3.2702	-0.2420	26.55	0.76	-0.750			
0.8399	53753.26	3.2670	3.2669	-0.2386	26.56	0.77	-0.750			
0.8406	53799.00	3.2640	3.2640	-0.2348	26.56	0.77	-0.750			
0.8413	53843.66	3.2610	3.2610	-0.2307	26.57	0.78	-0.750			
0.8420	53887.52	3.2580	3.2580	-0.2267	26.57	0.78	-0.750			
0.8427	53931.10	3.2550	3.2551	-0.2242	26.58	0.79	-0.750			
0.8433	53973.17	3.2520	3.2521	-0.2199	26.58	0.79	-0.750			
0.8440	54015.05	3.2490	3.2489	-0.2164	26.58	0.79	-0.750			
0.8446	54056.32	3.2460	3.2461	-0.2135	26.59	0.80	-0.750			
0.8453	54096.99	3.2430	3.2430	-0.2106	26.59	0.80	-0.750			
0.8459	54137.30	3.2400	3.2401	-0.2080	26.60	0.81	-0.750			
0.8465	54176.81	3.2370	3.2370	-0.2051	26.60	0.81	-0.750			
0.8471	54215.93	3.2340	3.2340	-0.2023	26.60	0.81	-0.750			
0.8477	54254.42	3.2310	3.2309	-0.1988	26.61	0.82	-0.750			
0.8483	54292.25	3.2280	3.2280	-0.1962	26.61	0.82	-0.750			
0.8489	54329.77	3.2250	3.2251	-0.1936	26.62	0.83	-0.750			
0.8495	54366.75	3.2220	3.2220	-0.1900	26.62	0.83	-0.750			
0.8500	54402.62	3.2190	3.2190	-0.1882	26.63	0.84	-0.750			
0.8506	54438.33	3.2160	3.2160	-0.1858	26.63	0.84	-0.750			
0.8512	54473.83	3.2130	3.2130	-0.1840	26.64	0.85	-0.750			
0.8517	54508.85	3.2100	3.2098	-0.1814	26.64	0.85	-0.750			
0.8522	54543.62	3.2070	3.2071	-0.1800	26.65	0.86	-0.750			
0.8528	54577.83	3.2040	3.2040	-0.1781	26.65	0.86	-0.750			
0.8533	54611.87	3.2010	3.2010	-0.1765	26.66	0.87	-0.750			
0.8538	54645.93	3.1980	3.1979	-0.1742	26.67	0.88	-0.750			
0.8544	54678.76	3.1950	3.1950	-0.1718	26.67	0.88	-0.750			
0.8549	54711.83	3.1920	3.1921	-0.1700	26.68	0.89	-0.750			
0.8554	54744.27	3.1890	3.1890	-0.1679	26.68	0.89	-0.750			
0.8559	54776.42	3.1860	3.1859	-0.1661	26.69	0.90	-0.750			
0.8564	54807.85	3.1830	3.1831	-0.1640	26.69	0.90	-0.750			
0.8569	54838.95	3.1800	3.1800	-0.1623	26.70	0.91	-0.750			
0.8573	54870.01	3.1770	3.1770	-0.1612	26.70	0.91	-0.750			
0.8578	54901.01	3.1740	3.1740	-0.1596	26.71	0.92	-0.750			
0.8583	54931.40	3.1710	3.1710	-0.1579	26.71	0.92	-0.750			
0.8588	54961.71	3.1680	3.1679	-0.1569	26.72	0.93	-0.750			
0.8592	54991.67	3.1650	3.1650	-0.1552	26.72	0.93	-0.750			
0.8597	55021.23	3.1620	3.1620	-0.1537	26.73	0.94	-0.750			
0.8602	55050.50	3.1590	3.1591	-0.1524	26.73	0.94	-0.750			
0.8606	55079.60	3.1560	3.1560	-0.1508	26.74	0.95	-0.750			
0.8611	55108.45	3.1530	3.1530	-0.1497	26.74	0.95	-0.750			
0.8615	55137.23	3.1500	3.1500	-0.1485	26.75	0.96	-0.750			
0.8620	55165.54	3.1470	3.1470	-0.1471	26.75	0.96	-0.750			
0.8624	55193.65	3.1440	3.1441	-0.1457	26.75	0.96	-0.750			
0.8628	55221.52	3.1410	3.1409	-0.1443	26.76	0.97	-0.750			
0.8633	55249.13	3.1380	3.1380	-0.1428	26.77	0.98	-0.750			
0.8637	55276.26	3.1350	3.1350	-0.1414	26.77	0.98	-0.750			
0.8641	55303.30	3.1320	3.1320	-0.1402	26.78	0.99	-0.750			
0.8645	55330.00	3.1290	3.1290	-0.1397	26.78	0.99	-0.750			
0.8649	55356.76	3.1260	3.1260	-0.1385	26.79	1.00	-0.750			
0.8654	55383.34	3.1230	3.1229	-0.1373	26.79	1.00	-0.750			
0.8658	55409.61	3.1200	3.1200	-0.1363	26.80	1.01	-0.750			
0.8662	55435.81	3.1170	3.1171	-0.1352	26.81	1.02	-0.750			
0.8666	55461.68	3.1140	3.1140	-0.1343	26.81	1.02	-0.750			
0.8670	55487.23	3.1110	3.1109	-0.1327	26.82	1.03	-0.750			
0.8674	55512.49	3.1080	3.1080	-0.1320	26.82	1.03	-0.750			
0.8678	55537.51	3.1050	3.1051	-0.1310	26.83	1.04	-0.750			
0.8682	55562.65	3.1020	3.1019	-0.1307	26.83	1.04	-0.750			
0.8686	55587.83	3.0990	3.0990	-0.1299	26.84	1.05	-0.750			
0.8689	55612.73	3.0960	3.0961	-0.1289	26.84	1.05	-0.750			
0.8693	55637.49	3.0930	3.0930	-0.1281	26.85	1.06	-0.750			
0.8697	55661.94	3.0900	3.0898	-0.1271	26.85	1.06	-0.750			
0.8701	55686.36	3.0870	3.0870	-0.1260	26.86	1.07	-0.750			
0.8705	55710.36	3.0840	3.0840	-0.1246	26.86	1.07	-0.750			
0.8708	55734.17	3.0810	3.0810	-0.1236	26.87	1.08	-0.750			
0.8712	55757.80	3.0780	3.0781	-0.1225	26.87	1.08	-0.750			
0.8716	55781.07	3.0750	3.0749	-0.1219	26.88	1.09	-0.750			
0.8719	55804.30	3.0720	3.0720	-0.1210	26.88	1.09	-0.750			
0.8723	55827.46	3.0690	3.0690	-0.1207	26.89	1.10	-0.750			
0.8727	55850.42	3.0660	3.0660	-0.1202	26.89	1.10	-0.750			
0.8730	55873.55	3.0630	3.0631	-0.1197	26.90	1.11	-0.750			
0.8734	55896.67	3.0600	3.0600	-0.1195	26.90	1.11	-0.750			
0.8737	55919.65	3.0570	3.0570	-0.1183	26.91	1.12	-0.750			
0.8741	55942.45	3.0540	3.0540	-0.1174	26.91	1.12	-0.750			
0.8745	55964.89	3.0510	3.0510	-0.1162	26.92	1.13	-0.750			
0.8748	55987.00	3.0480	3.0480	-0.1150	26.92	1.13	-0.750			
0.8751	56008.92	3.0450	3.0450	-0.1137	26.93	1.14	-0.750			
0.8755	56030.31	3.0420	3.0420	-0.1134	26.93	1.14	-0.750			
0.8758	56051.77	3.0390	3.0390	-0.1125	26.94	1.15	-0.750			
0.8761	56073.56	3.0360	3.0361	-0.1121	26.94	1.15	-0.750			
0.8765	56095.05	3.0330	3.0329	-0.1118	26.95	1.16	-0.750			
0.8768	56116.50	3.0300	3.0300	-0.1116	26.95	1.16	-0.750			
0.8772	56138.13	3.0270	3.0271	-0.1109	26.96	1.17	-0.750			
0.8775	56159.34	3.0240	3.0240	-0.1101	26.96	1.17	-0.750			
0.8778	56180.46	3.0210	3.0210	-0.1100	26.97	1.18	-0.750			
0.8781	56201.50	3.0180	3.0180	-0.1092	26.97	1.18	-0.750			
0.8785	56222.14	3.0150	3.0150	-0.1079	26.98	1.19	-0.750			
0.8788	56242.81	3.0120	3.0119	-0.1074	26.98	1.19	-0.750			
0.8791	56263.57	3.0090	3.0091	-0.1068	26.98	1.19	-0.751			
0.8794	56283.99	3.0060	3.0061	-0.1059	26.99	1.20	-0.751			
0.8798	56304.12	3.0030	3.0030	-0.1014	26.99	1.20	-0.751			
