Ah_balance (normalized)	Ah_balance (mAh)	Voltage - fit (V)	Voltage -  interpolate (V)	dQ/dV (1/V)	Temperature (°C)	Temperature - diff (°C)	Current (C)	R_DC 0ms (mOhm)	R_DC 50ms (mOhm)	R_DC 50 ms PEC (mOhm)
0.0003	22.22	4.1550	4.1546	-0.1112	25.14	0.01	-0.750			
0.0008	48.57	4.1520	4.1517	-0.1496	25.14	0.01	-0.750			
0.0012	79.69	4.1490	4.1490	-0.1828	25.14	0.01	-0.750			
0.0018	118.36	4.1460	4.1461	-0.2163	25.14	0.01	-0.750			
0.0026	163.24	4.1430	4.1431	-0.2492	25.14	0.01	-0.750			
0.0034	215.00	4.1400	4.1399	-0.2813	25.14	0.01	-0.750			
0.0042	272.00	4.1370	4.1371	-0.3108	25.13	0.00	-0.750			
0.0052	334.77	4.1340	4.1340	-0.3407	25.13	0.00	-0.750			
0.0063	404.14	4.1310	4.1310	-0.3680	25.13	0.00	-0.750			
0.0075	477.94	4.1280	4.1280	-0.3939	25.13	0.00	-0.750			
0.0087	556.44	4.1250	4.1250	-0.4194	25.13	0.00	-0.750			
0.0100	640.26	4.1220	4.1220	-0.4418	25.13	0.00	-0.750			
0.0114	727.03	4.1190	4.1189	-0.4636	25.13	-0.00	-0.750			
0.0128	817.72	4.1160	4.1161	-0.4845	25.13	-0.00	-0.750			
0.0143	913.68	4.1130	4.1130	-0.5019	25.13	-0.00	-0.750			
0.0158	1012.38	4.1100	4.1099	-0.5204	25.13	-0.00	-0.750			
0.0174	1114.49	4.1070	4.1071	-0.5379	25.12	-0.01	-0.750			
0.0191	1219.75	4.1040	4.1041	-0.5519	25.12	-0.01	-0.750			
0.0208	1328.84	4.1010	4.1008	-0.5641	25.12	-0.01	-0.750			
0.0225	1438.00	4.0980	4.0981	-0.5703	25.12	-0.01	-0.750			
0.0242	1548.40	4.0950	4.0950	-0.5779	25.12	-0.01	-0.750			
0.0259	1659.85	4.0920	4.0920	-0.5869	25.12	-0.01	-0.750			
0.0277	1772.49	4.0890	4.0890	-0.5926	25.12	-0.01	-0.750			
0.0295	1886.76	4.0860	4.0860	-0.6051	25.12	-0.01	-0.750			
0.0313	2004.81	4.0830	4.0829	-0.6166	25.12	-0.01	-0.750			
0.0332	2125.19	4.0800	4.0799	-0.6222	25.12	-0.01	-0.750			
0.0351	2246.40	4.0770	4.0772	-0.6289	25.12	-0.01	-0.750			
0.0370	2367.40	4.0740	4.0740	-0.6341	25.12	-0.01	-0.750			
0.0389	2489.66	4.0710	4.0709	-0.6360	25.12	-0.01	-0.750			
0.0408	2611.28	4.0680	4.0680	-0.6433	25.12	-0.01	-0.750			
0.0427	2735.32	4.0650	4.0651	-0.6501	25.12	-0.01	-0.750			
0.0447	2860.61	4.0620	4.0619	-0.6547	25.12	-0.01	-0.750			
0.0467	2987.36	4.0590	4.0589	-0.6594	25.12	-0.01	-0.750			
0.0487	3114.53	4.0560	4.0561	-0.6612	25.12	-0.01	-0.750			
0.0506	3241.39	4.0530	4.0530	-0.6640	25.12	-0.01	-0.750			
0.0527	3370.19	4.0500	4.0500	-0.6667	25.13	-0.00	-0.750			
0.0546	3497.01	4.0470	4.0470	-0.6673	25.13	0.00	-0.750			
0.0567	3626.55	4.0440	4.0439	-0.6725	25.13	0.00	-0.750			
0.0587	3756.51	4.0410	4.0410	-0.6736	25.14	0.01	-0.750			
0.0607	3885.84	4.0380	4.0381	-0.6768	25.14	0.01	-0.750			
0.0628	4016.03	4.0350	4.0350	-0.6809	25.14	0.01	-0.750			
0.0648	4145.59	4.0320	4.0320	-0.6865	25.14	0.01	-0.750			
0.0668	4277.83	4.0290	4.0290	-0.6886	25.15	0.02	-0.750			
0.0689	4411.62	4.0260	4.0260	-0.6923	25.15	0.02	-0.750			
0.0710	4544.78	4.0230	4.0230	-0.6920	25.15	0.02	-0.750			
0.0731	4679.02	4.0200	4.0202	-0.6941	25.15	0.02	-0.750			
0.0752	4811.53	4.0170	4.0170	-0.6920	25.16	0.03	-0.750			
0.0772	4942.61	4.0140	4.0140	-0.6927	25.16	0.03	-0.750			
0.0793	5075.72	4.0110	4.0110	-0.6937	25.17	0.04	-0.750			
0.0814	5209.64	4.0080	4.0080	-0.6992	25.17	0.04	-0.750			
0.0835	5343.72	4.0050	4.0049	-0.7009	25.18	0.05	-0.750			
0.0856	5479.32	4.0020	4.0023	-0.7029	25.18	0.05	-0.750			
0.0877	5614.77	3.9990	3.9990	-0.7022	25.18	0.05	-0.750			
0.0898	5748.27	3.9960	3.9960	-0.7096	25.18	0.05	-0.750			
0.0920	5886.49	3.9930	3.9930	-0.7042	25.19	0.06	-0.750			
0.0941	6021.96	3.9900	3.9899	-0.7024	25.19	0.06	-0.750			
0.0962	6156.45	3.9870	3.9870	-0.6981	25.19	0.06	-0.750			
0.0983	6288.41	3.9840	3.9841	-0.7065	25.19	0.06	-0.750			
0.1004	6423.40	3.9810	3.9809	-0.7194	25.19	0.06	-0.750			
0.1025	6561.67	3.9780	3.9780	-0.7324	25.20	0.07	-0.750			
0.1048	6704.37	3.9750	3.9748	-0.7408	25.20	0.07	-0.750			
0.1071	6852.93	3.9720	3.9721	-0.7501	25.20	0.07	-0.750			
0.1094	6999.34	3.9690	3.9691	-0.7520	25.21	0.08	-0.750			
0.1116	7143.38	3.9660	3.9658	-0.7454	25.21	0.08	-0.750			
0.1138	7281.93	3.9630	3.9630	-0.7342	25.21	0.08	-0.750			
0.1160	7421.49	3.9600	3.9600	-0.7438	25.21	0.08	-0.750			
0.1182	7564.85	3.9570	3.9569	-0.7409	25.22	0.09	-0.750			
0.1205	7711.84	3.9540	3.9538	-0.7500	25.22	0.09	-0.750			
0.1227	7855.48	3.9510	3.9513	-0.7489	25.22	0.09	-0.750			
0.1250	7999.65	3.9480	3.9480	-0.7501	25.23	0.10	-0.750			
0.1272	8142.88	3.9450	3.9449	-0.7542	25.23	0.10	-0.750			
0.1295	8285.38	3.9420	3.9419	-0.7470	25.24	0.11	-0.750			
0.1317	8430.81	3.9390	3.9390	-0.7519	25.24	0.11	-0.750			
0.1340	8575.84	3.9360	3.9360	-0.7539	25.25	0.12	-0.750			
0.1363	8720.89	3.9330	3.9330	-0.7556	25.25	0.12	-0.750			
0.1385	8864.32	3.9300	3.9300	-0.7593	25.26	0.13	-0.750			
0.1408	9008.25	3.9270	3.9269	-0.7599	25.26	0.13	-0.750			
0.1431	9155.78	3.9240	3.9240	-0.7595	25.26	0.13	-0.750			
0.1454	9304.00	3.9210	3.9209	-0.7647	25.27	0.14	-0.750			
0.1477	9451.15	3.9180	3.9184	-0.7678	25.27	0.14	-0.750			
0.1500	9598.80	3.9150	3.9149	-0.7643	25.27	0.14	-0.750			
0.1523	9744.07	3.9120	3.9119	-0.7640	25.28	0.15	-0.750			
0.1545	9890.06	3.9090	3.9090	-0.7676	25.28	0.15	-0.750			
0.1568	10037.65	3.9060	3.9061	-0.7712	25.28	0.15	-0.750			
0.1592	10187.42	3.9030	3.9029	-0.7718	25.29	0.16	-0.750			
0.1615	10336.24	3.9000	3.9000	-0.7681	25.29	0.16	-0.750			
0.1638	10481.63	3.8970	3.8971	-0.7726	25.30	0.17	-0.750			
0.1661	10630.46	3.8940	3.8940	-0.7766	25.30	0.17	-0.750			
0.1684	10778.90	3.8910	3.8909	-0.7742	25.30	0.17	-0.750			
0.1708	10928.41	3.8880	3.8880	-0.7736	25.31	0.18	-0.750			
0.1731	11077.59	3.8850	3.8851	-0.7776	25.31	0.18	-0.750			
0.1754	11227.85	3.8820	3.8819	-0.7760	25.31	0.18	-0.750			
0.1778	11377.20	3.8790	3.8790	-0.7838	25.31	0.18	-0.750			
0.1801	11526.60	3.8760	3.8759	-0.7809	25.32	0.19	-0.750			
0.1825	11678.06	3.8730	3.8729	-0.7808	25.32	0.19	-0.750			
0.1848	11828.78	3.8700	3.8704	-0.7799	25.32	0.19	-0.750			
0.1872	11978.72	3.8670	3.8669	-0.7786	25.32	0.19	-0.750			
0.1895	12127.02	3.8640	3.8639	-0.7695	25.33	0.20	-0.750			
0.1918	12273.34	3.8610	3.8610	-0.7688	25.33	0.20	-0.750			
0.1941	12422.25	3.8580	3.8579	-0.7748	25.33	0.20	-0.750			
0.1964	12567.92	3.8550	3.8550	-0.7811	25.34	0.21	-0.750			
0.1987	12718.46	3.8520	3.8518	-0.7865	25.34	0.21	-0.750			
0.2011	12870.23	3.8490	3.8490	-0.7876	25.35	0.22	-0.750			
0.2035	13023.06	3.8460	3.8460	-0.7885	25.35	0.22	-0.750			
0.2059	13177.02	3.8430	3.8431	-0.7792	25.35	0.22	-0.750			
0.2083	13329.56	3.8400	3.8400	-0.7767	25.36	0.23	-0.750			
0.2105	13474.60	3.8370	3.8371	-0.7669	25.36	0.23	-0.750			
0.2128	13618.65	3.8340	3.8340	-0.7568	25.36	0.23	-0.750			
0.2150	13762.96	3.8310	3.8309	-0.7565	25.37	0.24	-0.750			
0.2173	13908.33	3.8280	3.8280	-0.7543	25.37	0.24	-0.750			
0.2196	14053.62	3.8250	3.8250	-0.7551	25.37	0.24	-0.750			
0.2219	14199.57	3.8220	3.8220	-0.7533	25.38	0.25	-0.750			
0.2241	14344.89	3.8190	3.8189	-0.7458	25.38	0.25	-0.750			
0.2264	14487.36	3.8160	3.8160	-0.7384	25.39	0.26	-0.750			
0.2286	14627.71	3.8130	3.8131	-0.7351	25.39	0.26	-0.750			
0.2307	14767.17	3.8100	3.8100	-0.7317	25.39	0.26	-0.750			
0.2329	14908.49	3.8070	3.8069	-0.7281	25.40	0.27	-0.750			
0.2351	15047.27	3.8040	3.8041	-0.7235	25.40	0.27	-0.750			
0.2373	15186.43	3.8010	3.8010	-0.7244	25.40	0.27	-0.750			
0.2395	15326.15	3.7980	3.7980	-0.7203	25.41	0.28	-0.750			
0.2416	15463.52	3.7950	3.7950	-0.7165	25.41	0.28	-0.750			
0.2438	15600.59	3.7920	3.7920	-0.7115	25.41	0.28	-0.750			
0.2459	15737.41	3.7890	3.7890	-0.7085	25.42	0.29	-0.750			
0.2480	15873.37	3.7860	3.7860	-0.7057	25.42	0.29	-0.750			
0.2501	16008.34	3.7830	3.7830	-0.6997	25.42	0.29	-0.750			
0.2522	16140.04	3.7800	3.7800	-0.7030	25.42	0.29	-0.750			
0.2543	16275.01	3.7770	3.7770	-0.7039	25.42	0.29	-0.750			
0.2564	16409.89	3.7740	3.7740	-0.7031	25.42	0.29	-0.750			
0.2585	16545.48	3.7710	3.7709	-0.7060	25.42	0.29	-0.750			
0.2607	16682.90	3.7680	3.7682	-0.7040	25.42	0.29	-0.750			
0.2628	16818.12	3.7650	3.7650	-0.7019	25.42	0.29	-0.750			
0.2649	16951.00	3.7620	3.7621	-0.7051	25.43	0.30	-0.750			
0.2670	17085.20	3.7590	3.7589	-0.7037	25.43	0.30	-0.750			
0.2691	17220.31	3.7560	3.7560	-0.7094	25.43	0.30	-0.750			
0.2712	17356.54	3.7530	3.7530	-0.7148	25.44	0.31	-0.750			
0.2733	17493.66	3.7500	3.7501	-0.7236	25.44	0.31	-0.750			
0.2755	17634.20	3.7470	3.7469	-0.7334	25.44	0.31	-0.750			
0.2777	17774.47	3.7440	3.7440	-0.7443	25.45	0.32	-0.750			
0.2800	17918.67	3.7410	3.7409	-0.7541	25.45	0.32	-0.750			
0.2823	18065.43	3.7380	3.7380	-0.7668	25.46	0.33	-0.750			
0.2846	18213.79	3.7350	3.7350	-0.7740	25.46	0.33	-0.750			
0.2869	18363.61	3.7320	3.7320	-0.7852	25.46	0.33	-0.750			
0.2893	18513.94	3.7290	3.7289	-0.8019	25.46	0.33	-0.750			
0.2917	18668.56	3.7260	3.7260	-0.8111	25.46	0.33	-0.750			
0.2941	18825.03	3.7230	3.7230	-0.8235	25.46	0.33	-0.750			
0.2967	18986.85	3.7200	3.7199	-0.8378	25.46	0.33	-0.750			
0.2992	19148.77	3.7170	3.7170	-0.8466	25.46	0.33	-0.750			
0.3017	19311.79	3.7140	3.7140	-0.8606	25.46	0.33	-0.750			
0.3043	19476.85	3.7110	3.7110	-0.8697	25.46	0.33	-0.750			
0.3069	19644.19	3.7080	3.7080	-0.8797	25.46	0.33	-0.750			
0.3096	19816.24	3.7050	3.7050	-0.9004	25.46	0.33	-0.750			
0.3123	19988.60	3.7020	3.7020	-0.9231	25.46	0.33	-0.750			
0.3151	20169.14	3.6990	3.6990	-0.9372	25.46	0.33	-0.750			
0.3180	20350.82	3.6960	3.6959	-0.9544	25.45	0.32	-0.750			
0.3209	20535.61	3.6930	3.6930	-0.9697	25.45	0.32	-0.750			
0.3238	20724.61	3.6900	3.6900	-0.9884	25.45	0.32	-0.750			
0.3268	20917.16	3.6870	3.6869	-1.0054	25.45	0.32	-0.750			
0.3299	21111.31	3.6840	3.6839	-1.0180	25.45	0.32	-0.750			
0.3329	21306.86	3.6810	3.6810	-1.0316	25.45	0.32	-0.750			
0.3361	21509.28	3.6780	3.6781	-1.0540	25.45	0.32	-0.750			
0.3392	21711.92	3.6750	3.6749	-1.0666	25.45	0.32	-0.750			
0.3425	21917.98	3.6720	3.6720	-1.0818	25.44	0.31	-0.750			
0.3457	22125.03	3.6690	3.6691	-1.0931	25.44	0.31	-0.750			
0.3491	22339.94	3.6660	3.6660	-1.1222	25.44	0.31	-0.750			
0.3524	22555.48	3.6630	3.6630	-1.1383	25.44	0.31	-0.750			
0.3559	22775.89	3.6600	3.6600	-1.1565	25.44	0.31	-0.750			
0.3593	22998.30	3.6570	3.6570	-1.1834	25.44	0.31	-0.750			
0.3629	23228.30	3.6540	3.6540	-1.2051	25.44	0.31	-0.750			
0.3666	23463.32	3.6510	3.6509	-1.2242	25.43	0.30	-0.750			
0.3703	23699.11	3.6480	3.6480	-1.2474	25.43	0.30	-0.750			
0.3741	23940.58	3.6450	3.6451	-1.2673	25.43	0.30	-0.750			
0.3779	24186.49	3.6420	3.6420	-1.2914	25.43	0.30	-0.750			
0.3818	24437.64	3.6390	3.6389	-1.3105	25.42	0.29	-0.750			
0.3858	24688.69	3.6360	3.6361	-1.3354	25.42	0.29	-0.750			
0.3898	24950.05	3.6330	3.6330	-1.3652	25.42	0.29	-0.750			
0.3940	25216.14	3.6300	3.6299	-1.3890	25.42	0.29	-0.750			
0.3982	25483.64	3.6270	3.6272	-1.4169	25.42	0.29	-0.750			
0.4025	25760.21	3.6240	3.6240	-1.4376	25.41	0.28	-0.750			
0.4068	26036.63	3.6210	3.6210	-1.4681	25.41	0.28	-0.750			
0.4113	26322.10	3.6180	3.6181	-1.4911	25.40	0.27	-0.750			
0.4158	26611.23	3.6150	3.6149	-1.5215	25.40	0.27	-0.750			
0.4204	26905.31	3.6120	3.6121	-1.5483	25.40	0.27	-0.750			
0.4251	27204.46	3.6090	3.6090	-1.5770	25.40	0.27	-0.750	0.390	0.566	
0.4298	27509.00	3.6060	3.6062	-1.6320	25.39	0.26	-0.750			
0.4348	27826.02	3.6030	3.6030	-1.6528	25.38	0.25	-0.750			
0.4398	28146.06	3.6000	3.5999	-1.6813	25.38	0.25	-0.750			
0.4449	28472.41	3.5970	3.5972	-1.7101	25.38	0.25	-0.750			
0.4500	28802.72	3.5940	3.5939	-1.7491	25.38	0.25	-0.750			
0.4553	29138.73	3.5910	3.5909	-1.7762	25.37	0.24	-0.750			
0.4607	29483.46	3.5880	3.5880	-1.7927	25.36	0.23	-0.750			
0.4661	29833.40	3.5850	3.5850	-1.8515	25.36	0.23	-0.750			
0.4717	30189.19	3.5820	3.5818	-1.8646	25.36	0.23	-0.750			
0.4774	30552.98	3.5790	3.5789	-1.9015	25.36	0.23	-0.750			
0.4831	30917.38	3.5760	3.5762	-1.9323	25.35	0.22	-0.750			
0.4889	31289.88	3.5730	3.5730	-1.9655	25.34	0.21	-0.750			
0.4949	31675.61	3.5700	3.5700	-1.9912	25.33	0.20	-0.750			
0.5010	32062.70	3.5670	3.5669	-2.0126	25.33	0.20	-0.750			
0.5070	32449.64	3.5640	3.5640	-2.0258	25.34	0.21	-0.750			
0.5132	32844.80	3.5610	3.5611	-2.0392	25.34	0.21	-0.750			
0.5193	33235.94	3.5580	3.5580	-2.0420	25.33	0.20	-0.750			
0.5254	33626.43	3.5550	3.5550	-2.0273	25.33	0.20	-0.750			
0.5315	34015.73	3.5520	3.5521	-2.0324	25.33	0.20	-0.750			
0.5376	34407.37	3.5490	3.5490	-2.0455	25.33	0.20	-0.750			
0.5437	34799.52	3.5460	3.5459	-2.0346	25.32	0.19	-0.750			
0.5499	35194.10	3.5430	3.5430	-2.0128	25.32	0.19	-0.750			
0.5560	35582.12	3.5400	3.5400	-2.0005	25.33	0.20	-0.750			
0.5619	35962.84	3.5370	3.5371	-1.9912	25.34	0.21	-0.750			
0.5679	36345.33	3.5340	3.5339	-1.9710	25.34	0.21	-0.750			
0.5737	36714.77	3.5310	3.5310	-1.9555	25.34	0.21	-0.750			
0.5795	37090.97	3.5280	3.5281	-1.9313	25.34	0.21	-0.750			
0.5854	37465.70	3.5250	3.5251	-1.9244	25.34	0.21	-0.750			
0.5912	37838.82	3.5220	3.5219	-1.9019	25.35	0.22	-0.750			
0.5969	38199.92	3.5190	3.5189	-1.8640	25.36	0.23	-0.750			
0.6024	38552.05	3.5160	3.5161	-1.8299	25.36	0.23	-0.750			
0.6079	38906.64	3.5130	3.5129	-1.7904	25.36	0.23	-0.750			
0.6131	39238.16	3.5100	3.5101	-1.7401	25.36	0.23	-0.750			
0.6183	39571.14	3.5070	3.5071	-1.7093	25.37	0.24	-0.750			
0.6234	39895.64	3.5040	3.5041	-1.6523	25.38	0.25	-0.750			
0.6283	40213.02	3.5010	3.5009	-1.6063	25.40	0.27	-0.750			
0.6330	40514.77	3.4980	3.4980	-1.5581	25.41	0.28	-0.750			
0.6376	40808.94	3.4950	3.4950	-1.5087	25.42	0.29	-0.750			
0.6421	41096.46	3.4920	3.4919	-1.4706	25.43	0.30	-0.750			
0.6463	41366.29	3.4890	3.4890	-1.4191	25.44	0.31	-0.750			
0.6506	41635.81	3.4860	3.4861	-1.3813	25.45	0.32	-0.750			
0.6547	41902.79	3.4830	3.4830	-1.3539	25.46	0.33	-0.750			
0.6587	42159.41	3.4800	3.4800	-1.3127	25.48	0.35	-0.750			
0.6626	42407.89	3.4770	3.4770	-1.2684	25.49	0.36	-0.750			
0.6664	42648.60	3.4740	3.4740	-1.2268	25.50	0.37	-0.750			
0.6700	42878.51	3.4710	3.4710	-1.1848	25.51	0.38	-0.750			
0.6734	43098.28	3.4680	3.4682	-1.1460	25.52	0.39	-0.750			
0.6768	43316.39	3.4650	3.4649	-1.1109	25.53	0.40	-0.750			
0.6801	43525.32	3.4620	3.4620	-1.0779	25.54	0.41	-0.750			
0.6833	43729.16	3.4590	3.4589	-1.0472	25.55	0.42	-0.750			
0.6864	43928.38	3.4560	3.4560	-1.0163	25.56	0.43	-0.750			
0.6894	44119.97	3.4530	3.4530	-0.9892	25.58	0.45	-0.750			
0.6923	44306.20	3.4500	3.4500	-0.9558	25.59	0.46	-0.750			
0.6951	44486.12	3.4470	3.4470	-0.9262	25.60	0.47	-0.750			
0.6979	44662.43	3.4440	3.4442	-0.9059	25.61	0.48	-0.750			
0.7005	44831.54	3.4410	3.4409	-0.8790	25.62	0.49	-0.750			
0.7031	44998.28	3.4380	3.4380	-0.8673	25.63	0.50	-0.750			
0.7057	45161.94	3.4350	3.4349	-0.8542	25.64	0.51	-0.750			
0.7082	45325.34	3.4320	3.4319	-0.8467	25.65	0.52	-0.750			
0.7107	45487.17	3.4290	3.4292	-0.8380	25.66	0.53	-0.750			
0.7132	45646.01	3.4260	3.4260	-0.8325	25.67	0.54	-0.750			
0.7157	45804.40	3.4230	3.4230	-0.8405	25.67	0.54	-0.750			
0.7182	45964.94	3.4200	3.4199	-0.8292	25.68	0.55	-0.750			
0.7208	46128.08	3.4170	3.4169	-0.8380	25.69	0.56	-0.750			
0.7232	46287.52	3.4140	3.4143	-0.8418	25.69	0.56	-0.750			
0.7258	46450.14	3.4110	3.4109	-0.8452	25.70	0.57	-0.750			
0.7283	46612.42	3.4080	3.4079	-0.8512	25.71	0.58	-0.750			
0.7309	46774.46	3.4050	3.4051	-0.8448	25.72	0.59	-0.750			
0.7334	46938.98	3.4020	3.4020	-0.8500	25.72	0.59	-0.750			
0.7360	47104.51	3.3990	3.3991	-0.8409	25.73	0.60	-0.750			
0.7385	47266.01	3.3960	3.3959	-0.8260	25.74	0.61	-0.750			
0.7410	47422.97	3.3930	3.3931	-0.8147	25.75	0.62	-0.750			
0.7434	47579.18	3.3900	3.3899	-0.7939	25.76	0.63	-0.750			
0.7458	47731.12	3.3870	3.3869	-0.7758	25.76	0.63	-0.750			
0.7481	47878.53	3.3840	3.3842	-0.7567	25.77	0.64	-0.750			
0.7503	48020.84	3.3810	3.3809	-0.7333	25.77	0.64	-0.750			
0.7525	48159.76	3.3780	3.3779	-0.7150	25.78	0.65	-0.750			
0.7546	48293.38	3.3750	3.3750	-0.6926	25.78	0.65	-0.750			
0.7567	48426.27	3.3720	3.3720	-0.6730	25.78	0.65	-0.750			
0.7586	48553.26	3.3690	3.3690	-0.6510	25.79	0.66	-0.750			
0.7606	48675.72	3.3660	3.3662	-0.6305	25.79	0.66	-0.750			
0.7624	48794.30	3.3630	3.3630	-0.6098	25.80	0.67	-0.750			
0.7642	48909.03	3.3600	3.3599	-0.5916	25.80	0.67	-0.750			
0.7659	49020.30	3.3570	3.3570	-0.5737	25.80	0.67	-0.750			
0.7676	49128.82	3.3540	3.3540	-0.5590	25.81	0.68	-0.750			
0.7693	49235.34	3.3510	3.3510	-0.5422	25.81	0.68	-0.750			
0.7709	49337.35	3.3480	3.3479	-0.5259	25.82	0.69	-0.750			
0.7725	49437.07	3.3450	3.3450	-0.5088	25.82	0.69	-0.750			
0.7740	49532.91	3.3420	3.3420	-0.4930	25.82	0.69	-0.750			
0.7754	49625.53	3.3390	3.3390	-0.4780	25.83	0.70	-0.750			
0.7768	49715.46	3.3360	3.3360	-0.4657	25.84	0.71	-0.750			
0.7782	49803.58	3.3330	3.3329	-0.4527	25.84	0.71	-0.750			
0.7795	49889.96	3.3300	3.3300	-0.4406	25.85	0.72	-0.750			
0.7808	49972.49	3.3270	3.3271	-0.4293	25.85	0.72	-0.750			
0.7821	50054.57	3.3240	3.3240	-0.4193	25.86	0.73	-0.750			
0.7833	50133.63	3.3210	3.3209	-0.4070	25.86	0.73	-0.750			
0.7845	50210.14	3.3180	3.3179	-0.3951	25.87	0.74	-0.750			
0.7857	50284.46	3.3150	3.3151	-0.3861	25.87	0.74	-0.750			
0.7869	50358.47	3.3120	3.3120	-0.3782	25.88	0.75	-0.750			
0.7880	50429.98	3.3090	3.3090	-0.3688	25.88	0.75	-0.750			
0.7891	50499.35	3.3060	3.3060	-0.3571	25.89	0.76	-0.750			
0.7901	50567.31	3.3030	3.3031	-0.3503	25.89	0.76	-0.750			
0.7911	50633.33	3.3000	3.3000	-0.3433	25.90	0.77	-0.750			
0.7922	50698.39	3.2970	3.2968	-0.3362	25.90	0.77	-0.750			
0.7932	50761.89	3.2940	3.2940	-0.3284	25.91	0.78	-0.750			
0.7941	50824.72	3.2910	3.2910	-0.3231	25.91	0.78	-0.750			
0.7951	50886.43	3.2880	3.2881	-0.3179	25.92	0.79	-0.750			
0.7961	50947.49	3.2850	3.2850	-0.3115	25.92	0.79	-0.750			
0.7970	51005.79	3.2820	3.2820	-0.3034	25.93	0.80	-0.750			
0.7979	51063.29	3.2790	3.2791	-0.2977	25.93	0.80	-0.750			
0.7987	51119.75	3.2760	3.2760	-0.2923	25.94	0.81	-0.750			
0.7996	51175.16	3.2730	3.2729	-0.2870	25.94	0.81	-0.750			
0.8005	51229.64	3.2700	3.2700	-0.2824	25.95	0.82	-0.750			
0.8013	51283.06	3.2670	3.2670	-0.2775	25.95	0.82	-0.750			
0.8021	51336.21	3.2640	3.2640	-0.2741	25.95	0.82	-0.750			
0.8029	51388.29	3.2610	3.2611	-0.2700	25.96	0.83	-0.750			
0.8037	51439.94	3.2580	3.2580	-0.2661	25.96	0.83	-0.750			
0.8045	51490.82	3.2550	3.2549	-0.2625	25.97	0.84	-0.750			
0.8053	51540.99	3.2520	3.2520	-0.2583	25.97	0.84	-0.750			
0.8061	51590.04	3.2490	3.2491	-0.2536	25.98	0.85	-0.750			
0.8068	51637.98	3.2460	3.2460	-0.2498	25.98	0.85	-0.750			
0.8076	51685.40	3.2430	3.2430	-0.2460	25.99	0.86	-0.750			
0.8083	51732.21	3.2400	3.2400	-0.2420	25.99	0.86	-0.750			
0.8090	51778.23	3.2370	3.2370	-0.2393	25.99	0.86	-0.750			
0.8097	51823.80	3.2340	3.2340	-0.2372	26.00	0.87	-0.750			
0.8105	51869.38	3.2310	3.2310	-0.2338	26.00	0.87	-0.750			
0.8112	51914.10	3.2280	3.2281	-0.2310	26.01	0.88	-0.750			
0.8118	51958.32	3.2250	3.2250	-0.2279	26.01	0.88	-0.750			
0.8125	52001.51	3.2220	3.2221	-0.2245	26.02	0.89	-0.750			
0.8132	52044.55	3.2190	3.2189	-0.2218	26.02	0.89	-0.750			
0.8139	52086.50	3.2160	3.2160	-0.2183	26.03	0.90	-0.750			
0.8145	52128.14	3.2130	3.2130	-0.2156	26.03	0.90	-0.750			
0.8151	52168.91	3.2100	3.2100	-0.2138	26.04	0.91	-0.750			
0.8158	52210.04	3.2070	3.2070	-0.2120	26.05	0.92	-0.750			
0.8164	52250.66	3.2040	3.2040	-0.2089	26.05	0.92	-0.750			
0.8170	52290.52	3.2010	3.2010	-0.2063	26.06	0.93	-0.750			
0.8177	52329.98	3.1980	3.1981	-0.2038	26.06	0.93	-0.750			
0.8183	52368.90	3.1950	3.1951	-0.2018	26.07	0.94	-0.750			
0.8189	52407.18	3.1920	3.1919	-0.1993	26.07	0.94	-0.750			
0.8195	52445.24	3.1890	3.1890	-0.1971	26.07	0.94	-0.750			
0.8200	52482.48	3.1860	3.1860	-0.1951	26.08	0.95	-0.750			
0.8206	52519.82	3.1830	3.1830	-0.1937	26.08	0.95	-0.750			
0.8212	52557.42	3.1800	3.1801	-0.1920	26.09	0.96	-0.750			
0.8218	52593.90	3.1770	3.1769	-0.1897	26.09	0.96	-0.750			
0.8223	52630.11	3.1740	3.1740	-0.1874	26.10	0.97	-0.750			
0.8229	52665.99	3.1710	3.1710	-0.1844	26.10	0.97	-0.750			
0.8235	52700.97	3.1680	3.1679	-0.1823	26.11	0.98	-0.750			
0.8240	52735.62	3.1650	3.1651	-0.1804	26.11	0.98	-0.750			
0.8245	52769.79	3.1620	3.1620	-0.1782	26.12	0.99	-0.750			
0.8251	52803.71	3.1590	3.1589	-0.1766	26.12	0.99	-0.750			
0.8256	52837.60	3.1560	3.1560	-0.1755	26.13	1.00	-0.750			
0.8261	52870.93	3.1530	3.1531	-0.1738	26.13	1.00	-0.750			
0.8266	52904.35	3.1500	3.1500	-0.1720	26.14	1.01	-0.750			
0.8271	52937.52	3.1470	3.1470	-0.1709	26.14	1.01	-0.750			
0.8277	52969.93	3.1440	3.1440	-0.1690	26.15	1.02	-0.750			
0.8282	53002.19	3.1410	3.1410	-0.1674	26.16	1.03	-0.750			
0.8287	53034.25	3.1380	3.1379	-0.1657	26.16	1.03	-0.750			
0.8292	53065.76	3.1350	3.1350	-0.1645	26.17	1.04	-0.750			
0.8296	53097.33	3.1320	3.1320	-0.1628	26.17	1.04	-0.750			
0.8301	53128.44	3.1290	3.1290	-0.1613	26.18	1.05	-0.750			
0.8306	53159.36	3.1260	3.1260	-0.1602	26.18	1.05	-0.750			
0.8311	53190.00	3.1230	3.1230	-0.1580	26.19	1.06	-0.750			
0.8316	53220.17	3.1200	3.1199	-0.1564	26.19	1.06	-0.750			
0.8320	53250.02	3.1170	3.1170	-0.1546	26.19	1.06	-0.750			
0.8325	53279.55	3.1140	3.1139	-0.1534	26.20	1.07	-0.750			
0.8329	53308.63	3.1110	3.1110	-0.1518	26.21	1.08	-0.750			
0.8334	53337.75	3.1080	3.1080	-0.1507	26.21	1.08	-0.750			
0.8339	53366.56	3.1050	3.1050	-0.1494	26.22	1.09	-0.750			
0.8343	53394.89	3.1020	3.1021	-0.1487	26.23	1.10	-0.750			
0.8347	53423.58	3.0990	3.0990	-0.1481	26.23	1.10	-0.750			
0.8352	53451.99	3.0960	3.0960	-0.1467	26.24	1.11	-0.750			
0.8356	53480.04	3.0930	3.0930	-0.1455	26.25	1.12	-0.750			
0.8361	53507.88	3.0900	3.0901	-0.1442	26.25	1.12	-0.750			
0.8365	53535.52	3.0870	3.0871	-0.1431	26.26	1.13	-0.750			
0.8369	53562.85	3.0840	3.0840	-0.1418	26.26	1.13	-0.750			
0.8373	53589.92	3.0810	3.0809	-0.1403	26.27	1.14	-0.750			
0.8378	53616.47	3.0780	3.0780	-0.1392	26.27	1.14	-0.750			
0.8382	53643.08	3.0750	3.0750	-0.1383	26.28	1.15	-0.750			
0.8386	53669.77	3.0720	3.0719	-0.1373	26.29	1.16	-0.750			
0.8390	53696.01	3.0690	3.0690	-0.1360	26.29	1.16	-0.750			
0.8394	53721.96	3.0660	3.0660	-0.1352	26.30	1.17	-0.750			
0.8398	53747.76	3.0630	3.0631	-0.1343	26.30	1.17	-0.750			
0.8402	53773.30	3.0600	3.0600	-0.1336	26.31	1.18	-0.750			
0.8406	53798.90	3.0570	3.0569	-0.1330	26.31	1.18	-0.750			
0.8410	53824.34	3.0540	3.0540	-0.1319	26.32	1.19	-0.750			
0.8414	53849.76	3.0510	3.0509	-0.1310	26.32	1.19	-0.750			
0.8418	53875.07	3.0480	3.0480	-0.1304	26.33	1.20	-0.750			
0.8422	53899.85	3.0450	3.0451	-0.1293	26.34	1.21	-0.750			
0.8426	53924.48	3.0420	3.0419	-0.1280	26.34	1.21	-0.750			
0.8430	53948.92	3.0390	3.0389	-0.1268	26.35	1.22	-0.750			
0.8433	53972.92	3.0360	3.0360	-0.1256	26.35	1.22	-0.750			
0.8437	53996.99	3.0330	3.0331	-0.1251	26.36	1.23	-0.750			
0.8441	54021.20	3.0300	3.0300	-0.1243	26.36	1.23	-0.750			
0.8445	54045.06	3.0270	3.0270	-0.1235	26.37	1.24	-0.750			
0.8448	54068.37	3.0240	3.0240	-0.1230	26.37	1.24	-0.750			
0.8452	54091.78	3.0210	3.0211	-0.1222	26.38	1.25	-0.750			
0.8456	54115.21	3.0180	3.0181	-0.1219	26.38	1.25	-0.750			
0.8459	54138.58	3.0150	3.0149	-0.1213	26.39	1.26	-0.750			
0.8463	54161.85	3.0120	3.0119	-0.1210	26.39	1.26	-0.750			
0.8466	54184.80	3.0090	3.0091	-0.1209	26.40	1.27	-0.751			
0.8470	54208.05	3.0060	3.0060	-0.1212	26.40	1.27	-0.751			
0.8474	54231.13	3.0030	3.0030	-0.1162	26.41	1.28	-0.751			
