Ah_balance (normalized)	Ah_balance (mAh)	Voltage - fit (V)	Voltage -  interpolate (V)	dQ/dV (1/V)	Temperature (°C)	Temperature - diff (°C)	Current (C)	R_DC 0ms (mOhm)	R_DC 50ms (mOhm)	R_DC 50 ms PEC (mOhm)
0.0001	4.59	4.1590	4.1597	0.0517	25.10	0.00	-0.750			
0.0002	14.49	4.1560	4.1580	-0.0944	25.10	0.00	-0.750			
0.0008	51.31	4.1530	4.1533	-0.1833	25.10	0.00	-0.750			
0.0015	95.04	4.1500	4.1507	-0.2399	25.10	0.00	-0.750			
0.0023	148.38	4.1470	4.1475	-0.2822	25.10	0.00	-0.750			
0.0032	207.18	4.1440	4.1444	-0.3248	25.10	0.00	-0.750			
0.0044	280.96	4.1410	4.1409	-0.3670	25.10	0.00	-0.750			
0.0055	350.68	4.1380	4.1380	-0.3891	25.10	0.00	-0.750			
0.0067	429.19	4.1350	4.1350	-0.4233	25.10	0.00	-0.750			
0.0080	514.15	4.1320	4.1319	-0.4560	25.10	0.00	-0.750			
0.0095	605.61	4.1290	4.1290	-0.4863	25.10	0.00	-0.750			
0.0110	702.14	4.1260	4.1259	-0.5125	25.10	0.00	-0.750			
0.0126	803.88	4.1230	4.1230	-0.5358	25.10	0.00	-0.750			
0.0142	910.88	4.1200	4.1200	-0.5595	25.10	0.00	-0.750			
0.0159	1019.94	4.1170	4.1170	-0.5773	25.10	0.00	-0.750			
0.0177	1133.01	4.1140	4.1141	-0.5947	25.10	0.00	-0.750			
0.0195	1249.13	4.1110	4.1109	-0.6081	25.10	0.00	-0.750	0.383	0.517	
0.0214	1367.15	4.1080	4.1081	-0.6224	25.10	0.00	-0.750			
0.0233	1488.85	4.1050	4.1050	-0.6337	25.10	0.00	-0.750			
0.0252	1611.45	4.1020	4.1020	-0.6439	25.10	0.00	-0.750			
0.0271	1737.47	4.0990	4.0989	-0.6515	25.10	0.00	-0.750			
0.0291	1863.65	4.0960	4.0960	-0.6583	25.10	0.00	-0.750			
0.0311	1990.66	4.0930	4.0930	-0.6645	25.10	0.00	-0.750			
0.0331	2118.36	4.0900	4.0901	-0.6730	25.10	0.00	-0.750			
0.0351	2248.19	4.0870	4.0869	-0.6748	25.10	0.00	-0.750			
0.0371	2377.22	4.0840	4.0840	-0.6840	25.10	0.00	-0.750			
0.0392	2508.70	4.0810	4.0811	-0.6906	25.10	0.00	-0.750	0.373	0.507	
0.0413	2642.87	4.0780	4.0781	-0.6968	25.10	0.00	-0.750			
0.0434	2777.96	4.0750	4.0749	-0.7029	25.10	0.00	-0.750			
0.0455	2914.61	4.0720	4.0722	-0.7031	25.10	0.00	-0.750			
0.0477	3049.95	4.0690	4.0690	-0.7058	25.10	0.00	-0.750			
0.0498	3184.92	4.0660	4.0660	-0.7116	25.10	0.00	-0.750			
0.0519	3321.76	4.0630	4.0629	-0.7105	25.10	0.00	-0.750			
0.0540	3458.04	4.0600	4.0599	-0.7184	25.10	0.00	-0.750			
0.0562	3597.92	4.0570	4.0570	-0.7212	25.10	0.00	-0.750			
0.0584	3737.32	4.0540	4.0541	-0.7255	25.10	0.00	-0.750			
0.0606	3877.69	4.0510	4.0512	-0.7268	25.10	0.00	-0.750	0.377	0.495	
0.0627	4014.82	4.0480	4.0479	-0.7295	25.11	0.01	-0.750			
0.0649	4155.64	4.0450	4.0449	-0.7275	25.11	0.01	-0.750			
0.0671	4295.17	4.0420	4.0420	-0.7301	25.11	0.01	-0.750			
0.0693	4436.52	4.0390	4.0389	-0.7349	25.12	0.02	-0.750			
0.0715	4577.42	4.0360	4.0359	-0.7335	25.12	0.02	-0.750			
0.0737	4718.54	4.0330	4.0330	-0.7453	25.12	0.02	-0.750			
0.0760	4863.67	4.0300	4.0299	-0.7473	25.13	0.03	-0.750			
0.0783	5008.07	4.0270	4.0268	-0.7426	25.13	0.03	-0.750			
0.0805	5153.42	4.0240	4.0243	-0.7423	25.14	0.04	-0.750	0.386	0.510	
0.0827	5295.09	4.0210	4.0211	-0.7358	25.14	0.04	-0.750			
0.0849	5434.27	4.0180	4.0178	-0.7351	25.14	0.04	-0.750			
0.0870	5570.53	4.0150	4.0149	-0.7341	25.15	0.05	-0.750			
0.0892	5709.48	4.0120	4.0120	-0.7390	25.15	0.05	-0.750			
0.0915	5853.27	4.0090	4.0091	-0.7537	25.15	0.05	-0.750			
0.0938	6002.95	4.0060	4.0060	-0.7631	25.16	0.06	-0.750			
0.0961	6150.95	4.0030	4.0029	-0.7642	25.16	0.06	-0.750			
0.0984	6299.86	4.0000	3.9999	-0.7581	25.17	0.07	-0.750			
0.1007	6444.50	3.9970	3.9971	-0.7600	25.18	0.08	-0.750	0.391	0.507	
0.1030	6590.03	3.9940	3.9940	-0.7572	25.18	0.08	-0.750			
0.1052	6733.89	3.9910	3.9909	-0.7580	25.19	0.09	-0.750			
0.1075	6877.11	3.9880	3.9881	-0.7570	25.20	0.10	-0.750			
0.1098	7024.93	3.9850	3.9849	-0.7655	25.20	0.10	-0.750			
0.1122	7182.98	3.9820	3.9818	-0.7573	25.21	0.11	-0.750			
0.1145	7329.29	3.9790	3.9789	-0.7366	25.21	0.11	-0.750			
0.1166	7465.01	3.9760	3.9761	-0.7576	25.21	0.11	-0.750			
0.1189	7610.40	3.9730	3.9732	-0.7647	25.22	0.12	-0.750			
0.1212	7756.48	3.9700	3.9699	-0.7709	25.22	0.12	-0.750	0.378	0.501	
0.1235	7903.34	3.9670	3.9673	-0.7761	25.22	0.12	-0.750			
0.1258	8053.84	3.9640	3.9642	-0.7867	25.23	0.13	-0.750			
0.1283	8209.20	3.9610	3.9611	-0.7952	25.23	0.13	-0.750			
0.1307	8365.63	3.9580	3.9579	-0.7864	25.24	0.14	-0.750			
0.1332	8525.78	3.9550	3.9549	-0.7676	25.24	0.14	-0.750			
0.1354	8667.94	3.9520	3.9521	-0.7785	25.24	0.14	-0.750			
0.1377	8814.56	3.9490	3.9491	-0.7861	25.25	0.15	-0.750			
0.1401	8963.46	3.9460	3.9465	-0.7895	25.25	0.15	-0.750	0.399	0.518	
0.1424	9115.60	3.9430	3.9429	-0.7940	25.25	0.15	-0.750			
0.1448	9269.76	3.9400	3.9402	-0.8037	25.26	0.16	-0.750			
0.1473	9428.10	3.9370	3.9371	-0.8103	25.26	0.16	-0.750			
0.1498	9586.60	3.9340	3.9340	-0.8134	25.27	0.17	-0.750			
0.1522	9743.74	3.9310	3.9310	-0.8004	25.28	0.18	-0.750			
0.1546	9896.43	3.9280	3.9280	-0.7986	25.28	0.18	-0.750			
0.1570	10050.93	3.9250	3.9250	-0.8003	25.29	0.19	-0.750			
0.1594	10203.39	3.9220	3.9218	-0.8027	25.29	0.19	-0.750	0.398	0.511	
0.1618	10356.10	3.9190	3.9189	-0.8044	25.30	0.20	-0.750			
0.1642	10511.05	3.9160	3.9161	-0.8064	25.30	0.20	-0.750			
0.1666	10665.24	3.9130	3.9130	-0.8092	25.30	0.20	-0.750			
0.1691	10823.05	3.9100	3.9100	-0.8150	25.31	0.21	-0.750			
0.1716	10982.17	3.9070	3.9070	-0.8220	25.31	0.21	-0.750			
0.1740	11138.77	3.9040	3.9039	-0.8289	25.32	0.22	-0.750			
0.1766	11300.14	3.9010	3.9009	-0.8277	25.32	0.22	-0.750			
0.1791	11460.78	3.8980	3.8980	-0.8270	25.33	0.23	-0.750	0.407	0.524	
0.1816	11620.20	3.8950	3.8951	-0.8242	25.34	0.24	-0.750			
0.1840	11778.00	3.8920	3.8920	-0.8213	25.34	0.24	-0.750			
0.1864	11932.44	3.8890	3.8890	-0.8244	25.35	0.25	-0.750			
0.1889	12088.44	3.8860	3.8859	-0.8175	25.35	0.25	-0.750			
0.1914	12247.78	3.8830	3.8829	-0.8244	25.35	0.25	-0.750			
0.1939	12408.49	3.8800	3.8799	-0.8343	25.36	0.26	-0.750			
0.1964	12570.47	3.8770	3.8770	-0.8351	25.36	0.26	-0.750			
0.1989	12730.51	3.8740	3.8739	-0.8332	25.37	0.27	-0.750			
0.2014	12890.30	3.8710	3.8711	-0.8324	25.37	0.27	-0.750	0.402	0.517	
0.2039	13048.45	3.8680	3.8678	-0.8289	25.37	0.27	-0.750			
0.2064	13211.55	3.8650	3.8650	-0.8320	25.38	0.28	-0.750			
0.2089	13368.63	3.8620	3.8622	-0.8241	25.38	0.28	-0.750			
0.2114	13528.35	3.8590	3.8589	-0.8363	25.39	0.29	-0.750			
0.2139	13689.45	3.8560	3.8560	-0.8396	25.40	0.30	-0.750			
0.2164	13849.02	3.8530	3.8528	-0.8375	25.41	0.31	-0.750			
0.2190	14013.24	3.8500	3.8499	-0.8396	25.41	0.31	-0.750	0.392	0.504	
0.2215	14175.61	3.8470	3.8472	-0.8387	25.42	0.32	-0.750			
0.2240	14336.04	3.8440	3.8439	-0.8420	25.43	0.33	-0.750			
0.2265	14496.19	3.8410	3.8410	-0.8331	25.43	0.33	-0.750			
0.2290	14654.39	3.8380	3.8379	-0.8269	25.43	0.33	-0.750			
0.2315	14813.50	3.8350	3.8350	-0.8389	25.44	0.34	-0.750			
0.2340	14976.18	3.8320	3.8320	-0.8426	25.44	0.34	-0.750			
0.2365	15138.29	3.8290	3.8289	-0.8485	25.45	0.35	-0.750			
0.2391	15302.62	3.8260	3.8259	-0.8424	25.45	0.35	-0.750	0.397	0.507	
0.2416	15464.26	3.8230	3.8231	-0.8348	25.45	0.35	-0.750			
0.2442	15626.47	3.8200	3.8200	-0.8348	25.46	0.36	-0.750			
0.2466	15784.87	3.8170	3.8169	-0.8258	25.46	0.36	-0.750			
0.2490	15937.79	3.8140	3.8141	-0.8234	25.47	0.37	-0.750			
0.2515	16097.26	3.8110	3.8110	-0.8295	25.48	0.38	-0.750			
0.2540	16258.63	3.8080	3.8079	-0.8273	25.49	0.39	-0.750			
0.2566	16420.57	3.8050	3.8048	-0.8276	25.50	0.40	-0.750			
0.2591	16580.45	3.8020	3.8018	-0.8242	25.50	0.40	-0.750	0.390	0.511	
0.2615	16736.50	3.7990	3.7992	-0.8249	25.51	0.41	-0.750			
0.2640	16892.97	3.7960	3.7958	-0.8222	25.51	0.41	-0.750			
0.2664	17047.28	3.7930	3.7929	-0.8185	25.51	0.41	-0.750			
0.2689	17206.87	3.7900	3.7900	-0.8208	25.52	0.42	-0.750			
0.2714	17367.16	3.7870	3.7872	-0.8333	25.52	0.42	-0.750			
0.2739	17529.29	3.7840	3.7840	-0.8342	25.53	0.43	-0.750			
0.2764	17689.18	3.7810	3.7810	-0.8256	25.53	0.43	-0.750			
0.2789	17846.57	3.7780	3.7778	-0.8171	25.54	0.44	-0.750			
0.2813	18003.90	3.7750	3.7751	-0.8123	25.55	0.45	-0.750	0.396	0.507	
0.2837	18158.66	3.7720	3.7720	-0.8078	25.55	0.45	-0.750			
0.2861	18312.46	3.7690	3.7690	-0.8036	25.56	0.46	-0.750			
0.2885	18464.03	3.7660	3.7660	-0.8032	25.56	0.46	-0.750			
0.2909	18620.07	3.7630	3.7630	-0.8064	25.57	0.47	-0.750			
0.2934	18775.42	3.7600	3.7600	-0.8093	25.57	0.47	-0.750			
0.2958	18931.36	3.7570	3.7572	-0.8091	25.58	0.48	-0.750			
0.2982	19086.78	3.7540	3.7538	-0.8103	25.58	0.48	-0.750			
0.3007	19242.07	3.7510	3.7513	-0.8122	25.59	0.49	-0.750	0.400	0.510	
0.3031	19397.61	3.7480	3.7480	-0.8124	25.59	0.49	-0.750			
0.3055	19554.80	3.7450	3.7448	-0.8173	25.60	0.50	-0.750			
0.3080	19711.51	3.7420	3.7421	-0.8178	25.60	0.50	-0.750			
0.3104	19867.31	3.7390	3.7390	-0.8189	25.60	0.50	-0.750			
0.3129	20028.18	3.7360	3.7359	-0.8226	25.61	0.51	-0.750			
0.3154	20184.25	3.7330	3.7329	-0.8322	25.61	0.51	-0.750			
0.3179	20343.10	3.7300	3.7300	-0.8433	25.62	0.52	-0.750			
0.3204	20505.54	3.7270	3.7274	-0.8554	25.62	0.52	-0.750	0.382	0.504	
0.3230	20670.99	3.7240	3.7241	-0.8663	25.62	0.52	-0.750			
0.3256	20839.17	3.7210	3.7210	-0.8763	25.63	0.53	-0.750			
0.3282	21007.04	3.7180	3.7181	-0.8878	25.63	0.53	-0.750			
0.3309	21180.22	3.7150	3.7149	-0.9154	25.64	0.54	-0.750			
0.3337	21354.79	3.7120	3.7120	-0.9208	25.64	0.54	-0.750			
0.3365	21534.35	3.7090	3.7089	-0.9393	25.64	0.54	-0.750			
0.3393	21717.54	3.7060	3.7060	-0.9550	25.65	0.55	-0.750	0.396	0.505	
0.3422	21903.55	3.7030	3.7029	-0.9669	25.65	0.55	-0.750			
0.3452	22091.14	3.7000	3.7001	-0.9783	25.65	0.55	-0.750			
0.3481	22276.06	3.6970	3.6970	-0.9966	25.65	0.55	-0.750			
0.3511	22467.67	3.6940	3.6940	-1.0119	25.65	0.55	-0.750			
0.3541	22665.28	3.6910	3.6909	-1.0316	25.64	0.54	-0.750			
0.3572	22863.78	3.6880	3.6878	-1.0498	25.64	0.54	-0.750			
0.3605	23069.33	3.6850	3.6852	-1.0794	25.64	0.54	-0.750	0.398	0.509	
0.3638	23280.03	3.6820	3.6818	-1.0974	25.64	0.54	-0.750			
0.3671	23493.07	3.6790	3.6789	-1.1154	25.64	0.54	-0.750			
0.3704	23707.11	3.6760	3.6762	-1.1463	25.64	0.54	-0.750			
0.3739	23932.14	3.6730	3.6729	-1.1699	25.64	0.54	-0.750			
0.3776	24163.20	3.6700	3.6698	-1.1895	25.64	0.54	-0.750			
0.3811	24392.37	3.6670	3.6671	-1.2031	25.64	0.54	-0.750	0.394	0.509	
0.3848	24625.91	3.6640	3.6638	-1.2315	25.64	0.54	-0.750			
0.3885	24863.10	3.6610	3.6609	-1.2645	25.63	0.53	-0.750			
0.3923	25106.28	3.6580	3.6579	-1.2820	25.63	0.53	-0.750			
0.3962	25354.00	3.6550	3.6551	-1.3114	25.62	0.52	-0.750			
0.4002	25615.62	3.6520	3.6524	-1.3512	25.61	0.51	-0.750	0.404	0.521	
0.4043	25876.10	3.6490	3.6488	-1.3726	25.61	0.51	-0.750			
0.4085	26144.63	3.6460	3.6460	-1.4191	25.60	0.50	-0.750			
0.4128	26418.75	3.6430	3.6428	-1.4448	25.60	0.50	-0.750			
0.4172	26699.82	3.6400	3.6399	-1.4723	25.60	0.50	-0.750			
0.4217	26990.04	3.6370	3.6374	-1.5112	25.60	0.50	-0.750	0.409	0.531	
0.4263	27281.82	3.6340	3.6339	-1.5484	25.59	0.49	-0.750			
0.4310	27582.00	3.6310	3.6308	-1.5806	25.58	0.48	-0.750			
0.4357	27885.72	3.6280	3.6280	-1.5891	25.58	0.48	-0.750			
0.4406	28199.28	3.6250	3.6253	-1.6517	25.57	0.47	-0.750	0.387	0.515	
0.4457	28524.13	3.6220	3.6222	-1.6739	25.56	0.46	-0.750			
0.4507	28845.29	3.6190	3.6189	-1.6857	25.56	0.46	-0.750			
0.4558	29168.78	3.6160	3.6159	-1.7068	25.56	0.46	-0.750			
0.4609	29497.14	3.6130	3.6130	-1.7323	25.56	0.46	-0.750	0.391	0.517	
0.4661	29833.52	3.6100	3.6098	-1.7884	25.55	0.45	-0.750			
0.4716	30180.79	3.6070	3.6069	-1.8143	25.54	0.44	-0.750			
0.4771	30532.06	3.6040	3.6041	-1.8342	25.54	0.44	-0.750			
0.4827	30892.00	3.6010	3.6010	-1.8938	25.54	0.44	-0.750	0.407	0.530	
0.4884	31258.30	3.5980	3.5979	-1.9363	25.53	0.43	-0.750			
0.4943	31632.16	3.5950	3.5947	-1.9761	25.52	0.42	-0.750			
0.5002	32015.94	3.5920	3.5920	-2.0140	25.52	0.42	-0.750	0.396	0.524	
0.5064	32409.60	3.5890	3.5890	-2.0636	25.52	0.42	-0.750			
0.5128	32818.74	3.5860	3.5861	-2.1034	25.51	0.41	-0.750			
0.5192	33227.75	3.5830	3.5828	-2.1302	25.50	0.40	-0.750	0.386	0.519	
0.5255	33633.21	3.5800	3.5800	-2.1540	25.50	0.40	-0.750			
0.5321	34052.58	3.5770	3.5773	-2.1784	25.50	0.40	-0.750			
0.5386	34469.82	3.5740	3.5741	-2.2063	25.50	0.40	-0.750	0.406	0.534	
0.5453	34896.80	3.5710	3.5709	-2.2461	25.50	0.40	-0.750			
0.5521	35332.98	3.5680	3.5681	-2.2646	25.50	0.40	-0.750			
0.5589	35771.07	3.5650	3.5649	-2.2808	25.50	0.40	-0.750	0.379	0.524	
0.5658	36214.29	3.5620	3.5621	-2.2782	25.50	0.40	-0.750			
0.5727	36650.39	3.5590	3.5592	-2.2749	25.50	0.40	-0.750			
0.5796	37094.08	3.5560	3.5559	-2.2920	25.50	0.40	-0.750	0.383	0.532	
0.5864	37530.99	3.5530	3.5530	-2.2706	25.50	0.40	-0.750			
0.5932	37967.51	3.5500	3.5501	-2.2729	25.51	0.41	-0.750			
0.6002	38411.32	3.5470	3.5468	-2.2706	25.51	0.41	-0.750	0.403	0.539	
0.6070	38847.56	3.5440	3.5441	-2.2487	25.52	0.42	-0.750			
0.6136	39269.05	3.5410	3.5410	-2.2124	25.52	0.42	-0.750			
0.6202	39694.28	3.5380	3.5381	-2.1880	25.53	0.43	-0.750	0.388	0.543	
0.6268	40115.52	3.5350	3.5351	-2.1607	25.54	0.44	-0.750			
0.6332	40526.91	3.5320	3.5319	-2.1234	25.54	0.44	-0.750			
0.6395	40931.15	3.5290	3.5289	-2.0782	25.55	0.45	-0.750	0.404	0.564	
0.6457	41327.61	3.5260	3.5262	-2.0492	25.56	0.46	-0.750			
0.6519	41719.18	3.5230	3.5230	-2.0153	25.57	0.47	-0.750			
0.6578	42100.76	3.5200	3.5198	-1.9560	25.58	0.48	-0.750	0.399	0.558	
0.6636	42471.27	3.5170	3.5171	-1.9104	25.59	0.49	-0.750			
0.6694	42843.33	3.5140	3.5139	-1.8668	25.60	0.50	-0.750			
0.6749	43195.54	3.5110	3.5109	-1.7894	25.61	0.51	-0.750			
0.6801	43528.63	3.5080	3.5081	-1.7202	25.63	0.53	-0.750	0.397	0.560	
0.6852	43854.07	3.5050	3.5048	-1.6693	25.65	0.55	-0.750			
0.6901	44168.72	3.5020	3.5019	-1.6090	25.67	0.57	-0.750			
0.6949	44472.79	3.4990	3.4990	-1.5550	25.69	0.59	-0.750			
0.6994	44763.05	3.4960	3.4961	-1.5009	25.71	0.61	-0.750	0.397	0.564	
0.7039	45047.71	3.4930	3.4928	-1.4494	25.72	0.62	-0.750			
0.7082	45322.72	3.4900	3.4901	-1.4165	25.74	0.64	-0.750			
0.7123	45586.69	3.4870	3.4869	-1.3596	25.76	0.66	-0.750			
0.7163	45844.70	3.4840	3.4839	-1.3124	25.77	0.67	-0.750			
0.7202	46095.44	3.4810	3.4813	-1.2712	25.79	0.69	-0.750	0.393	0.572	
0.7240	46335.71	3.4780	3.4779	-1.2255	25.81	0.71	-0.750			
0.7275	46563.14	3.4750	3.4749	-1.1770	25.83	0.73	-0.750			
0.7309	46778.97	3.4720	3.4721	-1.1426	25.84	0.74	-0.750			
0.7343	46995.83	3.4690	3.4689	-1.1117	25.86	0.76	-0.750			
0.7377	47212.09	3.4660	3.4659	-1.0857	25.87	0.77	-0.750			
0.7409	47417.12	3.4630	3.4634	-1.0477	25.88	0.78	-0.750	0.392	0.578	
0.7440	47615.42	3.4600	3.4600	-1.0135	25.89	0.79	-0.750			
0.7470	47807.20	3.4570	3.4569	-0.9804	25.90	0.80	-0.750			
0.7498	47986.42	3.4540	3.4539	-0.9554	25.91	0.81	-0.750			
0.7526	48167.40	3.4510	3.4509	-0.9472	25.93	0.83	-0.750			
0.7555	48349.36	3.4480	3.4479	-0.9293	25.94	0.84	-0.750			
0.7583	48529.52	3.4450	3.4450	-0.9211	25.95	0.85	-0.750			
0.7610	48704.23	3.4420	3.4422	-0.9066	25.96	0.86	-0.750	0.397	0.587	
0.7637	48874.17	3.4390	3.4388	-0.9049	25.97	0.87	-0.750			
0.7663	49043.90	3.4360	3.4359	-0.9067	25.98	0.88	-0.750			
0.7690	49213.25	3.4330	3.4330	-0.9210	25.99	0.89	-0.750			
0.7718	49394.03	3.4300	3.4300	-0.9704	26.01	0.91	-0.750			
0.7748	49586.99	3.4270	3.4269	-0.9895	26.01	0.91	-0.750			
0.7778	49782.17	3.4240	3.4238	-1.0115	26.02	0.92	-0.750			
0.7809	49979.00	3.4210	3.4213	-1.0205	26.03	0.93	-0.750	0.386	0.587	
0.7840	50176.05	3.4180	3.4179	-1.0276	26.05	0.95	-0.750			
0.7871	50376.49	3.4150	3.4149	-1.0217	26.06	0.96	-0.750			
0.7901	50568.97	3.4120	3.4120	-1.0190	26.07	0.97	-0.750			
0.7933	50768.18	3.4090	3.4090	-1.0140	26.08	0.98	-0.750			
0.7963	50963.98	3.4060	3.4061	-0.9865	26.09	0.99	-0.750			
0.7993	51152.67	3.4030	3.4028	-0.9624	26.10	1.00	-0.750	0.385	0.600	
0.8021	51334.99	3.4000	3.4000	-0.9276	26.11	1.01	-0.750			
0.8048	51508.60	3.3970	3.3969	-0.8905	26.12	1.02	-0.750			
0.8075	51677.12	3.3940	3.3942	-0.8575	26.13	1.03	-0.750			
0.8099	51836.71	3.3910	3.3910	-0.8214	26.14	1.04	-0.750			
0.8124	51992.44	3.3880	3.3879	-0.7930	26.15	1.05	-0.750			
0.8147	52141.03	3.3850	3.3850	-0.7670	26.15	1.05	-0.750			
0.8169	52284.36	3.3820	3.3820	-0.7344	26.16	1.06	-0.750			
0.8191	52424.70	3.3790	3.3788	-0.7069	26.17	1.07	-0.750			
0.8212	52557.33	3.3760	3.3762	-0.6784	26.17	1.07	-0.750	0.391	0.620	
0.8232	52684.72	3.3730	3.3729	-0.6510	26.18	1.08	-0.750			
0.8251	52806.23	3.3700	3.3699	-0.6261	26.19	1.09	-0.750			
0.8269	52920.83	3.3670	3.3670	-0.5977	26.19	1.09	-0.750			
0.8287	53035.42	3.3640	3.3640	-0.5822	26.20	1.10	-0.750			
0.8304	53146.67	3.3610	3.3609	-0.5610	26.20	1.10	-0.750			
0.8321	53251.67	3.3580	3.3580	-0.5398	26.21	1.11	-0.750			
0.8336	53352.28	3.3550	3.3550	-0.5203	26.21	1.11	-0.750			
0.8351	53448.54	3.3520	3.3520	-0.5109	26.22	1.12	-0.750			
0.8367	53546.47	3.3490	3.3489	-0.4898	26.23	1.13	-0.750			
0.8381	53640.42	3.3460	3.3459	-0.4722	26.24	1.14	-0.750			
0.8395	53730.36	3.3430	3.3428	-0.4522	26.24	1.14	-0.750			
0.8409	53816.75	3.3400	3.3405	-0.4344	26.25	1.15	-0.750	0.399	0.634	
0.8421	53896.63	3.3370	3.3368	-0.4143	26.26	1.16	-0.750			
0.8433	53971.86	3.3340	3.3339	-0.3940	26.26	1.16	-0.750			
0.8444	54043.15	3.3310	3.3310	-0.3723	26.27	1.17	-0.750			
0.8456	54115.74	3.3280	3.3280	-0.3678	26.27	1.17	-0.750			
0.8467	54186.53	3.3250	3.3250	-0.3572	26.28	1.18	-0.750			
0.8477	54253.34	3.3220	3.3220	-0.3442	26.29	1.19	-0.750			
0.8487	54317.87	3.3190	3.3190	-0.3322	26.29	1.19	-0.750			
0.8497	54380.15	3.3160	3.3160	-0.3237	26.30	1.20	-0.750			
0.8506	54441.08	3.3130	3.3129	-0.3142	26.31	1.21	-0.750			
0.8516	54501.01	3.3100	3.3100	-0.3062	26.31	1.21	-0.750			
0.8525	54558.71	3.3070	3.3071	-0.2971	26.32	1.22	-0.750			
0.8534	54615.13	3.3040	3.3040	-0.2881	26.32	1.22	-0.750			
0.8542	54669.86	3.3010	3.3009	-0.2797	26.33	1.23	-0.750			
0.8550	54722.00	3.2980	3.2980	-0.2720	26.33	1.23	-0.750			
0.8558	54773.05	3.2950	3.2950	-0.2649	26.34	1.24	-0.750			
0.8566	54823.38	3.2920	3.2920	-0.2592	26.34	1.24	-0.750			
0.8574	54872.55	3.2890	3.2890	-0.2533	26.35	1.25	-0.750			
0.8581	54920.64	3.2860	3.2859	-0.2546	26.35	1.25	-0.750			
0.8589	54970.77	3.2830	3.2828	-0.2491	26.36	1.26	-0.750			
0.8597	55018.73	3.2800	3.2797	-0.2443	26.37	1.27	-0.750			
0.8604	55065.89	3.2770	3.2764	-0.2347	26.37	1.27	-0.750	0.392	0.650	
0.8611	55110.63	3.2740	3.2743	-0.2279	26.38	1.28	-0.750			
0.8618	55152.79	3.2710	3.2709	-0.2205	26.38	1.28	-0.750			
0.8624	55193.28	3.2680	3.2678	-0.2107	26.39	1.29	-0.750			
0.8630	55229.90	3.2650	3.2650	-0.2038	26.39	1.29	-0.750			
0.8636	55270.07	3.2620	3.2620	-0.2038	26.40	1.30	-0.750			
0.8642	55309.65	3.2590	3.2591	-0.2028	26.40	1.30	-0.750			
0.8648	55348.33	3.2560	3.2559	-0.2001	26.41	1.31	-0.750			
0.8654	55386.80	3.2530	3.2531	-0.1974	26.41	1.31	-0.750			
0.8660	55424.28	3.2500	3.2500	-0.1943	26.42	1.32	-0.750			
0.8666	55461.25	3.2470	3.2470	-0.1913	26.42	1.32	-0.750			
0.8672	55497.70	3.2440	3.2440	-0.1884	26.43	1.33	-0.750			
0.8677	55533.48	3.2410	3.2410	-0.1856	26.43	1.33	-0.750			
0.8683	55568.95	3.2380	3.2380	-0.1832	26.43	1.33	-0.750			
0.8688	55603.72	3.2350	3.2350	-0.1805	26.44	1.34	-0.750			
0.8693	55638.09	3.2320	3.2320	-0.1784	26.44	1.34	-0.750			
0.8699	55672.06	3.2290	3.2290	-0.1762	26.45	1.35	-0.750			
0.8704	55705.83	3.2260	3.2260	-0.1730	26.45	1.35	-0.750			
0.8709	55738.71	3.2230	3.2230	-0.1711	26.46	1.36	-0.750			
0.8714	55771.29	3.2200	3.2201	-0.1689	26.46	1.36	-0.750			
0.8719	55803.45	3.2170	3.2170	-0.1666	26.47	1.37	-0.750			
0.8724	55835.06	3.2140	3.2139	-0.1650	26.47	1.37	-0.750			
0.8729	55866.42	3.2110	3.2110	-0.1631	26.48	1.38	-0.750			
0.8734	55897.52	3.2080	3.2080	-0.1616	26.48	1.38	-0.750			
0.8739	55928.45	3.2050	3.2051	-0.1606	26.48	1.38	-0.750			
0.8744	55959.66	3.2020	3.2020	-0.1585	26.49	1.39	-0.750			
0.8748	55989.66	3.1990	3.1990	-0.1564	26.49	1.39	-0.750			
0.8753	56019.73	3.1960	3.1960	-0.1545	26.50	1.40	-0.750			
0.8758	56049.15	3.1930	3.1930	-0.1520	26.50	1.40	-0.750			
0.8762	56077.91	3.1900	3.1899	-0.1501	26.51	1.41	-0.750			
0.8767	56106.24	3.1870	3.1871	-0.1488	26.51	1.41	-0.750			
0.8771	56134.43	3.1840	3.1840	-0.1473	26.51	1.41	-0.750			
0.8775	56162.67	3.1810	3.1810	-0.1469	26.52	1.42	-0.750			
0.8780	56191.11	3.1780	3.1779	-0.1457	26.52	1.42	-0.750			
0.8784	56218.99	3.1750	3.1750	-0.1441	26.53	1.43	-0.750			
0.8788	56245.56	3.1720	3.1722	-0.1462	26.53	1.43	-0.750			
0.8793	56274.50	3.1690	3.1690	-0.1462	26.53	1.43	-0.750			
0.8797	56302.46	3.1660	3.1658	-0.1462	26.54	1.44	-0.750			
0.8802	56331.42	3.1630	3.1625	-0.1434	26.54	1.44	-0.750			
0.8806	56359.50	3.1600	3.1596	-0.1421	26.55	1.45	-0.750	0.400	0.656	
0.8810	56386.31	3.1570	3.1582	-0.1378	26.55	1.45	-0.750			
0.8815	56413.02	3.1540	3.1540	-0.1355	26.56	1.46	-0.750			
0.8818	56437.52	3.1510	3.1508	-0.1319	26.56	1.46	-0.750			
0.8822	56461.14	3.1480	3.1480	-0.1269	26.56	1.46	-0.750			
0.8826	56485.71	3.1450	3.1450	-0.1270	26.57	1.47	-0.750			
0.8830	56510.30	3.1420	3.1420	-0.1269	26.57	1.47	-0.750			
0.8834	56535.07	3.1390	3.1390	-0.1274	26.58	1.48	-0.750			
0.8837	56559.38	3.1360	3.1361	-0.1269	26.59	1.49	-0.750			
0.8841	56583.63	3.1330	3.1329	-0.1262	26.59	1.49	-0.750			
0.8845	56607.85	3.1300	3.1301	-0.1250	26.60	1.50	-0.750			
0.8849	56631.59	3.1270	3.1269	-0.1243	26.60	1.50	-0.750			
0.8852	56655.40	3.1240	3.1241	-0.1237	26.61	1.51	-0.750			
0.8856	56679.29	3.1210	3.1210	-0.1229	26.61	1.51	-0.750			
0.8860	56702.80	3.1180	3.1179	-0.1219	26.62	1.52	-0.750			
0.8863	56725.95	3.1150	3.1150	-0.1214	26.62	1.52	-0.750			
0.8867	56749.02	3.1120	3.1122	-0.1205	26.63	1.53	-0.750			
0.8871	56772.22	3.1090	3.1090	-0.1200	26.63	1.53	-0.750			
0.8874	56795.37	3.1060	3.1059	-0.1197	26.64	1.54	-0.750			
0.8878	56818.36	3.1030	3.1031	-0.1186	26.64	1.54	-0.750			
0.8881	56840.93	3.1000	3.1000	-0.1175	26.65	1.55	-0.750			
0.8885	56863.43	3.0970	3.0970	-0.1166	26.65	1.55	-0.750			
0.8888	56886.02	3.0940	3.0941	-0.1159	26.66	1.56	-0.750			
0.8892	56908.04	3.0910	3.0910	-0.1151	26.66	1.56	-0.750			
0.8895	56929.80	3.0880	3.0880	-0.1139	26.67	1.57	-0.750			
0.8899	56951.63	3.0850	3.0849	-0.1131	26.67	1.57	-0.750			
0.8902	56973.22	3.0820	3.0821	-0.1123	26.68	1.58	-0.750			
0.8905	56994.74	3.0790	3.0790	-0.1117	26.68	1.58	-0.750			
0.8909	57016.20	3.0760	3.0760	-0.1110	26.69	1.59	-0.750			
0.8912	57037.42	3.0730	3.0731	-0.1104	26.69	1.59	-0.750			
0.8915	57058.50	3.0700	3.0699	-0.1096	26.70	1.60	-0.750			
0.8919	57079.46	3.0670	3.0670	-0.1091	26.70	1.60	-0.750			
0.8922	57100.27	3.0640	3.0640	-0.1085	26.71	1.61	-0.750			
0.8925	57121.13	3.0610	3.0611	-0.1077	26.71	1.61	-0.750			
0.8928	57141.83	3.0580	3.0579	-0.1072	26.72	1.62	-0.750			
0.8932	57162.35	3.0550	3.0550	-0.1064	26.72	1.62	-0.750			
0.8935	57182.76	3.0520	3.0520	-0.1056	26.73	1.63	-0.750			
0.8938	57202.94	3.0490	3.0490	-0.1049	26.73	1.63	-0.750			
0.8941	57223.01	3.0460	3.0460	-0.1041	26.73	1.63	-0.750			
0.8944	57242.85	3.0430	3.0430	-0.1035	26.74	1.64	-0.750			
0.8947	57262.54	3.0400	3.0400	-0.1028	26.74	1.64	-0.750			
0.8950	57282.21	3.0370	3.0370	-0.1023	26.75	1.65	-0.750			
0.8953	57301.79	3.0340	3.0340	-0.1019	26.75	1.65	-0.750			
0.8956	57321.32	3.0310	3.0309	-0.1015	26.76	1.66	-0.750			
0.8959	57340.75	3.0280	3.0279	-0.1011	26.76	1.66	-0.750			
0.8963	57360.18	3.0250	3.0251	-0.1004	26.77	1.67	-0.750			
0.8966	57379.48	3.0220	3.0219	-0.1000	26.77	1.67	-0.750			
0.8969	57398.73	3.0190	3.0191	-0.0988	26.78	1.68	-0.750			
0.8972	57417.79	3.0160	3.0159	-0.0980	26.78	1.68	-0.750			
0.8974	57436.49	3.0130	3.0131	-0.0968	26.78	1.68	-0.750			
0.8977	57455.11	3.0100	3.0101	-0.0954	26.79	1.69	-0.750			
0.8980	57473.27	3.0070	3.0069	-0.0938	26.79	1.69	-0.750			
0.8983	57491.11	3.0040	3.0040	-0.0914	26.80	1.70	-0.751			
