Ah_balance (normalized)	Ah_balance (mAh)	Voltage - fit (V)	Voltage -  interpolate (V)	dQ/dV (1/V)	Temperature (°C)	Temperature - diff (°C)	Current (C)	R_DC 0ms (mOhm)	R_DC 50ms (mOhm)	R_DC 50 ms PEC (mOhm)
0.0002	15.75	4.1660	4.1658	-0.1147	25.72	0.02	-0.750			
0.0007	43.24	4.1630	4.1629	-0.1667	25.72	0.02	-0.750			
0.0013	80.29	4.1600	4.1599	-0.2144	25.72	0.02	-0.750			
0.0020	127.05	4.1570	4.1570	-0.2579	25.72	0.02	-0.750			
0.0028	180.21	4.1540	4.1539	-0.3028	25.72	0.02	-0.750			
0.0038	244.06	4.1510	4.1510	-0.3437	25.71	0.01	-0.750			
0.0049	313.76	4.1480	4.1480	-0.3839	25.71	0.01	-0.750			
0.0061	391.37	4.1450	4.1450	-0.4218	25.71	0.01	-0.750			
0.0075	477.19	4.1420	4.1420	-0.4586	25.71	0.01	-0.750			
0.0089	568.77	4.1390	4.1390	-0.4934	25.71	0.01	-0.750			
0.0105	668.98	4.1360	4.1360	-0.5247	25.70	0.00	-0.750			
0.0121	772.35	4.1330	4.1331	-0.5482	25.70	0.00	-0.750			
0.0138	880.92	4.1300	4.1299	-0.5755	25.70	-0.00	-0.750			
0.0155	994.74	4.1270	4.1270	-0.5920	25.69	-0.01	-0.750			
0.0173	1110.28	4.1240	4.1239	-0.6112	25.69	-0.01	-0.750			
0.0192	1229.34	4.1210	4.1211	-0.6275	25.69	-0.01	-0.750			
0.0211	1352.20	4.1180	4.1180	-0.6420	25.69	-0.01	-0.750			
0.0231	1477.42	4.1150	4.1150	-0.6567	25.68	-0.02	-0.750			
0.0251	1605.61	4.1120	4.1120	-0.6668	25.68	-0.02	-0.750			
0.0271	1734.44	4.1090	4.1090	-0.6748	25.68	-0.02	-0.750			
0.0292	1866.18	4.1060	4.1060	-0.6881	25.67	-0.03	-0.750			
0.0312	1997.52	4.1030	4.1030	-0.6939	25.67	-0.03	-0.750			
0.0333	2132.84	4.1000	4.1000	-0.6991	25.67	-0.03	-0.750			
0.0354	2267.27	4.0970	4.0969	-0.7068	25.66	-0.04	-0.750			
0.0376	2404.56	4.0940	4.0942	-0.7102	25.66	-0.04	-0.750			
0.0397	2541.20	4.0910	4.0910	-0.7171	25.66	-0.04	-0.750			
0.0418	2678.10	4.0880	4.0880	-0.7269	25.65	-0.05	-0.750			
0.0441	2819.35	4.0850	4.0850	-0.7295	25.65	-0.05	-0.750			
0.0462	2959.71	4.0820	4.0818	-0.7339	25.65	-0.05	-0.750			
0.0485	3102.70	4.0790	4.0789	-0.7345	25.64	-0.06	-0.750			
0.0507	3243.58	4.0760	4.0761	-0.7353	25.64	-0.06	-0.750			
0.0529	3385.51	4.0730	4.0730	-0.7352	25.64	-0.06	-0.750			
0.0551	3524.43	4.0700	4.0700	-0.7351	25.64	-0.06	-0.750			
0.0572	3663.77	4.0670	4.0670	-0.7362	25.64	-0.06	-0.750			
0.0595	3808.68	4.0640	4.0639	-0.7456	25.64	-0.06	-0.750			
0.0618	3952.25	4.0610	4.0610	-0.7488	25.64	-0.06	-0.750			
0.0640	4096.98	4.0580	4.0580	-0.7537	25.64	-0.06	-0.750			
0.0663	4241.28	4.0550	4.0550	-0.7588	25.64	-0.06	-0.750			
0.0686	4388.58	4.0520	4.0520	-0.7627	25.63	-0.07	-0.750			
0.0709	4535.73	4.0490	4.0490	-0.7547	25.63	-0.07	-0.750			
0.0732	4682.49	4.0460	4.0459	-0.7549	25.63	-0.07	-0.750			
0.0754	4825.78	4.0430	4.0432	-0.7612	25.63	-0.07	-0.750			
0.0777	4970.80	4.0400	4.0401	-0.7619	25.63	-0.07	-0.750			
0.0800	5117.19	4.0370	4.0368	-0.7653	25.63	-0.07	-0.750			
0.0823	5264.11	4.0340	4.0340	-0.7653	25.63	-0.07	-0.750			
0.0846	5414.15	4.0310	4.0311	-0.7656	25.63	-0.07	-0.750			
0.0869	5564.28	4.0280	4.0280	-0.7726	25.63	-0.07	-0.750			
0.0892	5707.79	4.0250	4.0250	-0.7677	25.63	-0.07	-0.750			
0.0914	5852.57	4.0220	4.0220	-0.7736	25.63	-0.07	-0.750			
0.0938	6000.29	4.0190	4.0190	-0.7790	25.64	-0.06	-0.750			
0.0961	6151.24	4.0160	4.0158	-0.7845	25.64	-0.06	-0.750			
0.0985	6306.88	4.0130	4.0131	-0.7888	25.64	-0.06	-0.750			
0.1009	6459.12	4.0100	4.0101	-0.7891	25.64	-0.06	-0.750			
0.1033	6610.38	4.0070	4.0070	-0.7884	25.64	-0.06	-0.750			
0.1057	6762.03	4.0040	4.0040	-0.7852	25.64	-0.06	-0.750			
0.1079	6908.73	4.0010	4.0009	-0.7840	25.65	-0.05	-0.750			
0.1103	7060.30	3.9980	3.9981	-0.7898	25.65	-0.05	-0.750			
0.1127	7213.31	3.9950	3.9950	-0.7933	25.65	-0.05	-0.750			
0.1151	7365.42	3.9920	3.9920	-0.7953	25.65	-0.05	-0.750			
0.1175	7518.97	3.9890	3.9890	-0.8000	25.65	-0.05	-0.750			
0.1199	7673.75	3.9860	3.9860	-0.8012	25.66	-0.04	-0.750			
0.1223	7828.80	3.9830	3.9829	-0.8034	25.66	-0.04	-0.750			
0.1247	7981.85	3.9800	3.9803	-0.7987	25.66	-0.04	-0.750			
0.1271	8134.43	3.9770	3.9770	-0.8027	25.66	-0.04	-0.750			
0.1295	8288.55	3.9740	3.9740	-0.8104	25.66	-0.04	-0.750			
0.1319	8443.28	3.9710	3.9708	-0.8104	25.66	-0.04	-0.750			
0.1344	8602.45	3.9680	3.9680	-0.8162	25.66	-0.04	-0.750			
0.1369	8759.09	3.9650	3.9653	-0.8138	25.66	-0.04	-0.750			
0.1393	8915.83	3.9620	3.9619	-0.8115	25.66	-0.04	-0.750			
0.1417	9070.16	3.9590	3.9589	-0.8142	25.66	-0.04	-0.750			
0.1441	9221.31	3.9560	3.9561	-0.8065	25.67	-0.03	-0.750			
0.1465	9376.68	3.9530	3.9526	-0.8127	25.67	-0.03	-0.750			
0.1490	9535.21	3.9500	3.9502	-0.8252	25.67	-0.03	-0.750			
0.1515	9695.22	3.9470	3.9470	-0.8303	25.67	-0.03	-0.750			
0.1540	9856.20	3.9440	3.9439	-0.8412	25.67	-0.03	-0.750			
0.1566	10020.17	3.9410	3.9409	-0.8442	25.68	-0.02	-0.750			
0.1591	10180.29	3.9380	3.9380	-0.8442	25.68	-0.02	-0.750			
0.1616	10345.41	3.9350	3.9349	-0.8490	25.68	-0.02	-0.750			
0.1642	10508.09	3.9320	3.9319	-0.8458	25.68	-0.02	-0.750			
0.1667	10669.10	3.9290	3.9291	-0.8439	25.69	-0.01	-0.750			
0.1692	10831.68	3.9260	3.9260	-0.8416	25.69	-0.01	-0.750			
0.1717	10990.91	3.9230	3.9230	-0.8421	25.70	-0.00	-0.750			
0.1743	11154.88	3.9200	3.9200	-0.8456	25.70	-0.00	-0.750			
0.1768	11316.58	3.9170	3.9170	-0.8441	25.70	0.00	-0.750			
0.1794	11479.71	3.9140	3.9140	-0.8496	25.70	0.00	-0.750			
0.1819	11643.49	3.9110	3.9111	-0.8483	25.70	0.00	-0.750			
0.1845	11805.18	3.9080	3.9080	-0.8516	25.70	0.00	-0.750			
0.1870	11969.99	3.9050	3.9051	-0.8560	25.70	0.00	-0.750			
0.1896	12133.88	3.9020	3.9019	-0.8542	25.70	0.00	-0.750			
0.1922	12300.12	3.8990	3.8990	-0.8608	25.71	0.01	-0.750			
0.1948	12465.28	3.8960	3.8960	-0.8610	25.71	0.01	-0.750			
0.1973	12630.23	3.8930	3.8930	-0.8599	25.72	0.02	-0.750			
0.2000	12796.91	3.8900	3.8902	-0.8619	25.72	0.02	-0.750			
0.2025	12961.36	3.8870	3.8870	-0.8568	25.72	0.02	-0.750			
0.2051	13125.81	3.8840	3.8840	-0.8618	25.72	0.02	-0.750			
0.2077	13291.62	3.8810	3.8810	-0.8599	25.73	0.03	-0.750			
0.2103	13457.51	3.8780	3.8779	-0.8633	25.73	0.03	-0.750			
0.2128	13621.83	3.8750	3.8752	-0.8623	25.73	0.03	-0.750			
0.2154	13787.02	3.8720	3.8719	-0.8683	25.73	0.03	-0.750			
0.2180	13954.51	3.8690	3.8690	-0.8700	25.74	0.04	-0.750			
0.2206	14121.54	3.8660	3.8660	-0.8706	25.74	0.04	-0.750			
0.2233	14290.23	3.8630	3.8629	-0.8763	25.75	0.05	-0.750			
0.2259	14458.92	3.8600	3.8601	-0.8785	25.75	0.05	-0.750			
0.2286	14627.40	3.8570	3.8569	-0.8823	25.75	0.05	-0.750			
0.2312	14797.33	3.8540	3.8540	-0.8824	25.76	0.06	-0.750			
0.2339	14966.85	3.8510	3.8509	-0.8787	25.76	0.06	-0.750			
0.2365	15136.75	3.8480	3.8480	-0.8805	25.76	0.06	-0.750			
0.2391	15305.34	3.8450	3.8450	-0.8809	25.76	0.06	-0.750			
0.2418	15473.51	3.8420	3.8419	-0.8783	25.76	0.06	-0.750			
0.2444	15640.87	3.8390	3.8390	-0.8772	25.77	0.07	-0.750			
0.2470	15808.80	3.8360	3.8360	-0.8795	25.77	0.07	-0.750			
0.2497	15980.83	3.8330	3.8331	-0.8836	25.77	0.07	-0.750			
0.2523	16150.05	3.8300	3.8300	-0.8867	25.77	0.07	-0.750			
0.2550	16320.10	3.8270	3.8270	-0.8866	25.78	0.08	-0.750			
0.2577	16491.17	3.8240	3.8240	-0.8841	25.78	0.08	-0.750			
0.2603	16660.84	3.8210	3.8209	-0.8843	25.79	0.09	-0.750			
0.2630	16830.06	3.8180	3.8182	-0.8824	25.79	0.09	-0.750			
0.2656	16998.47	3.8150	3.8150	-0.8844	25.80	0.10	-0.750			
0.2683	17168.86	3.8120	3.8120	-0.8829	25.80	0.10	-0.750			
0.2709	17336.98	3.8090	3.8090	-0.8819	25.80	0.10	-0.750			
0.2736	17507.67	3.8060	3.8060	-0.8829	25.81	0.11	-0.750			
0.2762	17678.16	3.8030	3.8029	-0.8799	25.81	0.11	-0.750			
0.2788	17845.80	3.8000	3.8000	-0.8815	25.81	0.11	-0.750			
0.2815	18014.86	3.7970	3.7969	-0.8836	25.82	0.12	-0.750			
0.2841	18183.70	3.7940	3.7940	-0.8826	25.82	0.12	-0.750			
0.2868	18355.01	3.7910	3.7910	-0.8844	25.82	0.12	-0.750			
0.2894	18524.62	3.7880	3.7880	-0.8834	25.82	0.12	-0.750			
0.2921	18695.02	3.7850	3.7850	-0.8849	25.83	0.13	-0.750			
0.2948	18865.68	3.7820	3.7820	-0.8778	25.83	0.13	-0.750			
0.2974	19032.38	3.7790	3.7789	-0.8695	25.84	0.14	-0.750			
0.3000	19198.40	3.7760	3.7763	-0.8644	25.84	0.14	-0.750			
0.3026	19363.29	3.7730	3.7730	-0.8637	25.84	0.14	-0.750			
0.3051	19528.75	3.7700	3.7700	-0.8642	25.84	0.14	-0.750			
0.3077	19694.84	3.7670	3.7669	-0.8620	25.85	0.15	-0.750			
0.3103	19859.94	3.7640	3.7640	-0.8618	25.85	0.15	-0.750			
0.3129	20027.21	3.7610	3.7610	-0.8575	25.85	0.15	-0.750			
0.3155	20190.31	3.7580	3.7581	-0.8580	25.85	0.15	-0.750			
0.3180	20353.34	3.7550	3.7550	-0.8638	25.85	0.15	-0.750			
0.3206	20515.52	3.7520	3.7518	-0.8691	25.86	0.16	-0.750			
0.3232	20684.35	3.7490	3.7489	-0.8815	25.86	0.16	-0.750			
0.3259	20855.49	3.7460	3.7461	-0.8913	25.86	0.16	-0.750			
0.3286	21031.15	3.7430	3.7430	-0.8981	25.86	0.16	-0.750			
0.3313	21206.26	3.7400	3.7400	-0.8993	25.87	0.17	-0.750			
0.3340	21375.79	3.7370	3.7370	-0.8994	25.87	0.17	-0.750			
0.3367	21548.92	3.7340	3.7339	-0.9013	25.87	0.17	-0.750			
0.3394	21719.15	3.7310	3.7310	-0.9062	25.87	0.17	-0.750			
0.3421	21894.07	3.7280	3.7280	-0.9145	25.87	0.17	-0.750			
0.3449	22072.03	3.7250	3.7250	-0.9048	25.87	0.17	-0.750			
0.3476	22243.48	3.7220	3.7221	-0.9153	25.87	0.17	-0.750			
0.3503	22416.51	3.7190	3.7193	-0.9330	25.87	0.17	-0.750			
0.3531	22595.67	3.7160	3.7153	-0.9518	25.88	0.18	-0.750			
0.3559	22780.03	3.7130	3.7131	-0.9716	25.88	0.18	-0.750			
0.3589	22970.74	3.7100	3.7101	-0.9882	25.88	0.18	-0.750			
0.3620	23168.10	3.7070	3.7071	-1.0145	25.89	0.19	-0.750			
0.3651	23367.61	3.7040	3.7038	-1.0347	25.89	0.19	-0.750			
0.3681	23559.34	3.7010	3.7010	-1.0239	25.89	0.19	-0.750			
0.3712	23755.64	3.6980	3.6980	-1.0409	25.88	0.18	-0.750			
0.3743	23956.01	3.6950	3.6951	-1.0579	25.88	0.18	-0.750			
0.3775	24161.94	3.6920	3.6919	-1.0899	25.88	0.18	-0.750			
0.3808	24372.91	3.6890	3.6889	-1.1117	25.88	0.18	-0.750			
0.3842	24588.41	3.6860	3.6860	-1.1357	25.87	0.17	-0.750			
0.3876	24809.29	3.6830	3.6833	-1.1611	25.87	0.17	-0.750			
0.3912	25039.79	3.6800	3.6799	-1.1900	25.86	0.16	-0.750			
0.3948	25266.86	3.6770	3.6770	-1.2080	25.86	0.16	-0.750			
0.3984	25498.09	3.6740	3.6739	-1.2300	25.85	0.15	-0.750			
0.4022	25738.53	3.6710	3.6710	-1.2635	25.85	0.15	-0.750			
0.4060	25982.67	3.6680	3.6679	-1.2848	25.85	0.15	-0.750			
0.4098	26227.79	3.6650	3.6651	-1.3258	25.84	0.14	-0.750			
0.4139	26486.76	3.6620	3.6621	-1.3506	25.84	0.14	-0.750			
0.4180	26754.12	3.6590	3.6589	-1.3872	25.83	0.13	-0.750			
0.4222	27021.94	3.6560	3.6559	-1.4165	25.82	0.12	-0.750			
0.4265	27297.51	3.6530	3.6531	-1.4422	25.82	0.12	-0.750			
0.4309	27575.44	3.6500	3.6499	-1.4810	25.81	0.11	-0.750			
0.4354	27863.05	3.6470	3.6469	-1.5120	25.79	0.09	-0.750			
0.4399	28154.46	3.6440	3.6439	-1.5364	25.79	0.09	-0.750			
0.4446	28456.15	3.6410	3.6410	-1.5930	25.78	0.08	-0.750			
0.4495	28767.10	3.6380	3.6381	-1.6251	25.77	0.07	-0.750			
0.4543	29078.06	3.6350	3.6350	-1.6647	25.77	0.07	-0.750			
0.4595	29405.18	3.6320	3.6319	-1.7021	25.76	0.06	-0.750			
0.4646	29736.12	3.6290	3.6288	-1.7255	25.75	0.05	-0.750	0.408	0.495	
0.4699	30071.17	3.6260	3.6260	-1.7665	25.74	0.04	-0.750			
0.4753	30416.95	3.6230	3.6230	-1.7881	25.73	0.03	-0.750			
0.4807	30762.37	3.6200	3.6202	-1.8231	25.72	0.02	-0.750			
0.4861	31112.69	3.6170	3.6169	-1.8512	25.71	0.01	-0.750			
0.4917	31469.45	3.6140	3.6141	-1.8806	25.71	0.01	-0.750			
0.4975	31841.39	3.6110	3.6110	-1.9241	25.70	0.00	-0.750			
0.5034	32217.09	3.6080	3.6081	-1.9742	25.69	-0.01	-0.750			
0.5093	32594.83	3.6050	3.6051	-2.0055	25.68	-0.02	-0.750			
0.5154	32986.56	3.6020	3.6022	-2.0405	25.67	-0.03	-0.750			
0.5217	33388.03	3.5990	3.5991	-2.0120	25.66	-0.04	-0.750			
0.5279	33784.76	3.5960	3.5962	-1.9751	25.66	-0.04	-0.750			
0.5334	34136.12	3.5930	3.5932	-2.0748	25.65	-0.05	-0.750			
0.5394	34522.58	3.5900	3.5907	-2.1492	25.65	-0.05	-0.750			
0.5459	34940.24	3.5870	3.5862	-2.2219	25.64	-0.06	-0.750			
0.5529	35384.44	3.5840	3.5844	-2.3148	25.64	-0.06	-0.750			
0.5602	35855.75	3.5810	3.5814	-2.3645	25.64	-0.06	-0.750			
0.5679	36343.54	3.5780	3.5779	-2.4261	25.63	-0.07	-0.750			
0.5748	36789.44	3.5750	3.5750	-2.3582	25.62	-0.08	-0.750			
0.5816	37224.27	3.5720	3.5719	-2.3434	25.62	-0.08	-0.750			
0.5890	37698.67	3.5690	3.5688	-2.3368	25.62	-0.08	-0.750			
0.5960	38141.95	3.5660	3.5661	-2.3458	25.62	-0.08	-0.750			
0.6030	38591.21	3.5630	3.5632	-2.3721	25.62	-0.08	-0.750			
0.6101	39046.33	3.5600	3.5601	-2.3821	25.62	-0.08	-0.750			
0.6172	39502.31	3.5570	3.5571	-2.3935	25.61	-0.09	-0.750			
0.6245	39967.28	3.5540	3.5541	-2.3931	25.60	-0.10	-0.750			
0.6317	40431.39	3.5510	3.5511	-2.3976	25.61	-0.09	-0.750			
0.6391	40899.85	3.5480	3.5481	-2.3753	25.61	-0.09	-0.750			
0.6458	41332.02	3.5450	3.5451	-2.3164	25.62	-0.08	-0.750			
0.6527	41775.25	3.5420	3.5422	-2.2963	25.62	-0.08	-0.750			
0.6596	42213.80	3.5390	3.5392	-2.2775	25.62	-0.08	-0.750			
0.6666	42659.93	3.5360	3.5361	-2.2342	25.63	-0.07	-0.750			
0.6734	43099.44	3.5330	3.5329	-2.1608	25.64	-0.06	-0.750			
0.6798	43510.08	3.5300	3.5301	-2.1646	25.64	-0.06	-0.750			
0.6859	43897.91	3.5270	3.5267	-2.0611	25.64	-0.06	-0.750			
0.6920	44286.82	3.5240	3.5235	-2.0312	25.65	-0.05	-0.750			
0.6980	44674.68	3.5210	3.5212	-2.0025	25.66	-0.04	-0.750			
0.7041	45062.33	3.5180	3.5182	-1.9569	25.67	-0.03	-0.750			
0.7101	45447.91	3.5150	3.5149	-1.9037	25.68	-0.02	-0.750			
0.7155	45794.99	3.5120	3.5120	-1.7795	25.70	-0.00	-0.750			
0.7209	46136.66	3.5090	3.5087	-1.6913	25.71	0.01	-0.750			
0.7258	46451.71	3.5060	3.5060	-1.6011	25.72	0.02	-0.750			
0.7304	46747.04	3.5030	3.5034	-1.5315	25.74	0.04	-0.750			
0.7347	47021.06	3.5000	3.4998	-1.4769	25.75	0.05	-0.750			
0.7391	47299.96	3.4970	3.4969	-1.4220	25.77	0.07	-0.750			
0.7433	47572.98	3.4940	3.4939	-1.3985	25.78	0.08	-0.750			
0.7475	47839.95	3.4910	3.4910	-1.3884	25.79	0.09	-0.750			
0.7517	48106.79	3.4880	3.4880	-1.3463	25.81	0.11	-0.750			
0.7557	48363.57	3.4850	3.4847	-1.3072	25.82	0.12	-0.750			
0.7595	48604.87	3.4820	3.4820	-1.2496	25.84	0.14	-0.750			
0.7632	48843.58	3.4790	3.4792	-1.2118	25.85	0.15	-0.750			
0.7668	49078.34	3.4760	3.4760	-1.1801	25.86	0.16	-0.750			
0.7703	49297.54	3.4730	3.4729	-1.1280	25.87	0.17	-0.750			
0.7735	49504.96	3.4700	3.4701	-1.0835	25.88	0.18	-0.750			
0.7768	49712.55	3.4670	3.4669	-1.0604	25.89	0.19	-0.750			
0.7799	49911.61	3.4640	3.4638	-1.0233	25.90	0.20	-0.750			
0.7829	50105.52	3.4610	3.4610	-0.9909	25.91	0.21	-0.750			
0.7858	50289.95	3.4580	3.4581	-0.9647	25.92	0.22	-0.750			
0.7886	50472.91	3.4550	3.4551	-0.9497	25.93	0.23	-0.750			
0.7914	50652.05	3.4520	3.4519	-0.9489	25.94	0.24	-0.750			
0.7942	50826.75	3.4490	3.4488	-0.9438	25.95	0.25	-0.750			
0.7970	51007.72	3.4460	3.4460	-0.9609	25.96	0.26	-0.750			
0.7999	51191.92	3.4430	3.4433	-0.9986	25.97	0.27	-0.750			
0.8029	51386.35	3.4400	3.4399	-1.0342	25.98	0.28	-0.750			
0.8061	51587.29	3.4370	3.4369	-1.0758	25.98	0.28	-0.750			
0.8093	51793.80	3.4340	3.4338	-1.1204	25.99	0.29	-0.750			
0.8128	52019.38	3.4310	3.4312	-1.1654	25.99	0.29	-0.750			
0.8164	52250.99	3.4280	3.4280	-1.1929	26.00	0.30	-0.750			
0.8201	52485.41	3.4250	3.4250	-1.2126	26.01	0.31	-0.750			
0.8238	52720.11	3.4220	3.4219	-1.2183	26.02	0.32	-0.750			
0.8275	52960.91	3.4190	3.4189	-1.2074	26.02	0.32	-0.750			
0.8312	53194.93	3.4160	3.4158	-1.1725	26.03	0.33	-0.750			
0.8347	53421.70	3.4130	3.4132	-1.1284	26.04	0.34	-0.750			
0.8380	53633.67	3.4100	3.4102	-1.0764	26.04	0.34	-0.750			
0.8412	53837.68	3.4070	3.4069	-1.0330	26.05	0.35	-0.750			
0.8442	54026.67	3.4040	3.4038	-0.9780	26.06	0.36	-0.750			
0.8469	54202.20	3.4010	3.4010	-0.9327	26.06	0.36	-0.750			
0.8497	54382.16	3.3980	3.3980	-0.9084	26.07	0.37	-0.750			
0.8524	54554.39	3.3950	3.3950	-0.8732	26.08	0.38	-0.750			
0.8550	54717.16	3.3920	3.3919	-0.8370	26.08	0.38	-0.750			
0.8574	54873.25	3.3890	3.3891	-0.8018	26.09	0.39	-0.750			
0.8597	55023.81	3.3860	3.3858	-0.7713	26.09	0.39	-0.750			
0.8620	55169.34	3.3830	3.3831	-0.7442	26.10	0.40	-0.750			
0.8642	55309.57	3.3800	3.3799	-0.7139	26.10	0.40	-0.750			
0.8663	55443.64	3.3770	3.3769	-0.6866	26.11	0.41	-0.750			
0.8683	55572.33	3.3740	3.3740	-0.6626	26.11	0.41	-0.750			
0.8703	55696.07	3.3710	3.3710	-0.6320	26.12	0.42	-0.750			
0.8721	55815.57	3.3680	3.3679	-0.6075	26.12	0.42	-0.750			
0.8739	55929.81	3.3650	3.3649	-0.5792	26.13	0.43	-0.750			
0.8756	56037.86	3.3620	3.3620	-0.5538	26.13	0.43	-0.750			
0.8772	56141.78	3.3590	3.3590	-0.5305	26.14	0.44	-0.750			
0.8787	56239.90	3.3560	3.3559	-0.5068	26.14	0.44	-0.750			
0.8802	56334.25	3.3530	3.3530	-0.4832	26.15	0.45	-0.750			
0.8817	56426.40	3.3500	3.3500	-0.4671	26.15	0.45	-0.750			
0.8830	56513.73	3.3470	3.3470	-0.4472	26.16	0.46	-0.750			
0.8843	56598.30	3.3440	3.3439	-0.4300	26.16	0.46	-0.750			
0.8856	56678.03	3.3410	3.3410	-0.4103	26.16	0.46	-0.750			
0.8868	56755.62	3.3380	3.3380	-0.3917	26.17	0.47	-0.750			
0.8880	56828.93	3.3350	3.3350	-0.3734	26.17	0.47	-0.750			
0.8890	56898.70	3.3320	3.3320	-0.3593	26.18	0.48	-0.750			
0.8901	56965.39	3.3290	3.3290	-0.3427	26.18	0.48	-0.750			
0.8911	57029.34	3.3260	3.3259	-0.3298	26.19	0.49	-0.750			
0.8920	57091.07	3.3230	3.3230	-0.3171	26.19	0.49	-0.750			
0.8930	57150.92	3.3200	3.3200	-0.3043	26.20	0.50	-0.750			
0.8939	57208.47	3.3170	3.3169	-0.2925	26.20	0.50	-0.750			
0.8947	57263.17	3.3140	3.3141	-0.2816	26.21	0.51	-0.750			
0.8956	57315.73	3.3110	3.3109	-0.2711	26.21	0.51	-0.750			
0.8964	57366.63	3.3080	3.3080	-0.2625	26.21	0.51	-0.750			
0.8971	57415.93	3.3050	3.3051	-0.2541	26.22	0.52	-0.750			
0.8979	57464.07	3.3020	3.3019	-0.2458	26.22	0.52	-0.750			
0.8986	57510.89	3.2990	3.2990	-0.2372	26.22	0.52	-0.750			
0.8993	57555.03	3.2960	3.2960	-0.2293	26.23	0.53	-0.750			
0.9000	57597.64	3.2930	3.2930	-0.2211	26.23	0.53	-0.750			
0.9006	57639.32	3.2900	3.2901	-0.2144	26.24	0.54	-0.750			
0.9012	57679.47	3.2870	3.2869	-0.2077	26.24	0.54	-0.750			
0.9019	57718.73	3.2840	3.2840	-0.2023	26.24	0.54	-0.750			
0.9025	57757.34	3.2810	3.2811	-0.1980	26.25	0.55	-0.750			
0.9030	57794.78	3.2780	3.2781	-0.1932	26.25	0.55	-0.750			
0.9036	57831.49	3.2750	3.2750	-0.1886	26.25	0.55	-0.750			
0.9042	57866.72	3.2720	3.2720	-0.1835	26.26	0.56	-0.750			
0.9047	57901.55	3.2690	3.2690	-0.1797	26.26	0.56	-0.750			
0.9052	57935.81	3.2660	3.2661	-0.1751	26.27	0.57	-0.750			
0.9058	57968.97	3.2630	3.2630	-0.1716	26.27	0.57	-0.750			
0.9063	58001.39	3.2600	3.2600	-0.1677	26.27	0.57	-0.750			
0.9068	58033.25	3.2570	3.2571	-0.1641	26.27	0.57	-0.750			
0.9073	58064.28	3.2540	3.2539	-0.1607	26.28	0.58	-0.750			
0.9077	58094.74	3.2510	3.2511	-0.1575	26.28	0.58	-0.750			
0.9082	58124.41	3.2480	3.2480	-0.1547	26.28	0.58	-0.750			
0.9087	58153.88	3.2450	3.2450	-0.1524	26.29	0.59	-0.750			
0.9091	58182.98	3.2420	3.2420	-0.1503	26.29	0.59	-0.750			
0.9096	58211.45	3.2390	3.2390	-0.1474	26.29	0.59	-0.750			
0.9100	58239.48	3.2360	3.2360	-0.1456	26.30	0.60	-0.750			
0.9104	58267.26	3.2330	3.2331	-0.1437	26.30	0.60	-0.750			
0.9109	58294.78	3.2300	3.2300	-0.1415	26.30	0.60	-0.750			
0.9113	58321.75	3.2270	3.2269	-0.1394	26.30	0.60	-0.750			
0.9117	58348.17	3.2240	3.2240	-0.1370	26.31	0.61	-0.750			
0.9121	58374.35	3.2210	3.2211	-0.1347	26.31	0.61	-0.750			
0.9125	58399.95	3.2180	3.2180	-0.1329	26.31	0.61	-0.750			
0.9129	58425.22	3.2150	3.2151	-0.1312	26.32	0.62	-0.750			
0.9133	58450.22	3.2120	3.2119	-0.1293	26.32	0.62	-0.750			
0.9137	58474.66	3.2090	3.2089	-0.1271	26.32	0.62	-0.750			
0.9140	58498.99	3.2060	3.2060	-0.1257	26.33	0.63	-0.750			
0.9144	58522.85	3.2030	3.2030	-0.1241	26.33	0.63	-0.750			
0.9148	58546.55	3.2000	3.2000	-0.1228	26.34	0.64	-0.750			
0.9152	58569.96	3.1970	3.1970	-0.1217	26.34	0.64	-0.750			
0.9155	58593.03	3.1940	3.1939	-0.1201	26.34	0.64	-0.750			
0.9159	58615.96	3.1910	3.1911	-0.1194	26.35	0.65	-0.750			
0.9162	58638.68	3.1880	3.1879	-0.1184	26.35	0.65	-0.750			
0.9166	58661.70	3.1850	3.1850	-0.1165	26.36	0.66	-0.750			
0.9169	58684.27	3.1820	3.1819	-0.1154	26.36	0.66	-0.750			
0.9173	58705.95	3.1790	3.1791	-0.1144	26.36	0.66	-0.750			
0.9176	58727.76	3.1760	3.1761	-0.1130	26.37	0.67	-0.750			
0.9180	58749.26	3.1730	3.1731	-0.1120	26.37	0.67	-0.750			
0.9183	58770.46	3.1700	3.1696	-0.1107	26.37	0.67	-0.750			
0.9186	58791.72	3.1670	3.1670	-0.1096	26.38	0.68	-0.750			
0.9189	58812.48	3.1640	3.1641	-0.1084	26.38	0.68	-0.750			
0.9193	58833.27	3.1610	3.1611	-0.1077	26.38	0.68	-0.750			
0.9196	58854.29	3.1580	3.1580	-0.1075	26.39	0.69	-0.750			
0.9199	58874.63	3.1550	3.1550	-0.1066	26.39	0.69	-0.750			
0.9202	58894.69	3.1520	3.1519	-0.1051	26.39	0.69	-0.750			
0.9205	58914.83	3.1490	3.1490	-0.1046	26.40	0.70	-0.750			
0.9209	58934.93	3.1460	3.1460	-0.1037	26.40	0.70	-0.750			
0.9212	58954.76	3.1430	3.1430	-0.1029	26.40	0.70	-0.750			
0.9215	58974.54	3.1400	3.1400	-0.1024	26.41	0.71	-0.750			
0.9218	58994.11	3.1370	3.1370	-0.1015	26.41	0.71	-0.750			
0.9221	59013.56	3.1340	3.1340	-0.1002	26.41	0.71	-0.750			
0.9224	59032.70	3.1310	3.1309	-0.0991	26.42	0.72	-0.750			
0.9227	59051.46	3.1280	3.1281	-0.0986	26.42	0.72	-0.750			
0.9230	59070.33	3.1250	3.1251	-0.0980	26.42	0.72	-0.750			
0.9233	59089.08	3.1220	3.1219	-0.0974	26.42	0.72	-0.750			
0.9236	59107.73	3.1190	3.1190	-0.0968	26.43	0.73	-0.750			
0.9238	59126.20	3.1160	3.1160	-0.0960	26.43	0.73	-0.750			
0.9241	59144.58	3.1130	3.1131	-0.0955	26.43	0.73	-0.750			
0.9244	59163.08	3.1100	3.1100	-0.0953	26.44	0.74	-0.750			
0.9247	59181.29	3.1070	3.1071	-0.0944	26.44	0.74	-0.750			
0.9250	59199.17	3.1040	3.1039	-0.0936	26.44	0.74	-0.750			
0.9253	59217.09	3.1010	3.1011	-0.0931	26.45	0.75	-0.750			
0.9255	59234.92	3.0980	3.0980	-0.0925	26.45	0.75	-0.750			
0.9258	59252.64	3.0950	3.0950	-0.0920	26.46	0.76	-0.750			
0.9261	59270.38	3.0920	3.0920	-0.0913	26.46	0.76	-0.750			
0.9264	59287.82	3.0890	3.0889	-0.0904	26.46	0.76	-0.750			
0.9266	59305.00	3.0860	3.0861	-0.0900	26.47	0.77	-0.750			
0.9269	59322.24	3.0830	3.0830	-0.0895	26.47	0.77	-0.750			
0.9272	59339.31	3.0800	3.0799	-0.0889	26.48	0.78	-0.750			
0.9274	59356.34	3.0770	3.0769	-0.0884	26.48	0.78	-0.750			
0.9277	59373.28	3.0740	3.0740	-0.0878	26.48	0.78	-0.750			
0.9280	59390.10	3.0710	3.0711	-0.0874	26.49	0.79	-0.750			
0.9282	59406.90	3.0680	3.0679	-0.0873	26.49	0.79	-0.750			
0.9285	59423.60	3.0650	3.0650	-0.0867	26.49	0.79	-0.750			
0.9288	59440.09	3.0620	3.0620	-0.0860	26.50	0.80	-0.750			
0.9290	59456.57	3.0590	3.0590	-0.0857	26.50	0.80	-0.750			
0.9293	59473.03	3.0560	3.0561	-0.0854	26.51	0.81	-0.750			
0.9295	59489.39	3.0530	3.0530	-0.0850	26.51	0.81	-0.750			
0.9298	59505.72	3.0500	3.0499	-0.0847	26.51	0.81	-0.750			
0.9300	59521.94	3.0470	3.0470	-0.0843	26.52	0.82	-0.750			
0.9303	59538.09	3.0440	3.0441	-0.0836	26.52	0.82	-0.750			
0.9305	59554.10	3.0410	3.0409	-0.0831	26.52	0.82	-0.750			
0.9308	59569.94	3.0380	3.0381	-0.0828	26.53	0.83	-0.750			
0.9310	59585.78	3.0350	3.0350	-0.0823	26.53	0.83	-0.750			
0.9313	59601.54	3.0320	3.0320	-0.0820	26.54	0.84	-0.750			
0.9315	59617.24	3.0290	3.0290	-0.0816	26.54	0.84	-0.750			
0.9318	59632.80	3.0260	3.0259	-0.0811	26.54	0.84	-0.750			
0.9320	59648.52	3.0230	3.0230	-0.0804	26.55	0.85	-0.750			
0.9322	59663.89	3.0200	3.0201	-0.0797	26.55	0.85	-0.750			
0.9325	59679.41	3.0170	3.0170	-0.0792	26.55	0.85	-0.750			
0.9327	59694.42	3.0140	3.0140	-0.0788	26.56	0.86	-0.750			
0.9330	59709.39	3.0110	3.0111	-0.0781	26.56	0.86	-0.751			
0.9332	59724.33	3.0080	3.0079	-0.0775	26.56	0.86	-0.751			
0.9334	59739.16	3.0050	3.0049	-0.0770	26.57	0.87	-0.751			
0.9337	59753.97	3.0020	3.0020	-0.0791	26.57	0.87	-0.751			
