Ah_balance (normalized)	Ah_balance (mAh)	Voltage - fit (V)	Voltage -  interpolate (V)	dQ/dV (1/V)	Temperature (°C)	Temperature - diff (°C)	Current (C)	R_DC 0ms (mOhm)	R_DC 50ms (mOhm)	R_DC 50 ms PEC (mOhm)
0.0001	9.11	4.1670	4.1670	-0.1094	25.68	0.02	-0.750			
0.0006	35.35	4.1640	4.1640	-0.1613	25.68	0.02	-0.750			
0.0011	71.28	4.1610	4.1608	-0.2098	25.68	0.02	-0.750			
0.0018	116.20	4.1580	4.1581	-0.2570	25.67	0.01	-0.750			
0.0027	170.90	4.1550	4.1550	-0.2996	25.67	0.01	-0.750			
0.0037	233.99	4.1520	4.1520	-0.3435	25.67	0.01	-0.750			
0.0048	304.11	4.1490	4.1490	-0.3820	25.67	0.01	-0.750			
0.0060	381.30	4.1460	4.1460	-0.4220	25.67	0.01	-0.750			
0.0073	466.22	4.1430	4.1430	-0.4601	25.67	0.01	-0.750			
0.0087	558.35	4.1400	4.1399	-0.4957	25.66	0.00	-0.750			
0.0103	657.94	4.1370	4.1369	-0.5296	25.66	0.00	-0.750			
0.0119	764.18	4.1340	4.1339	-0.5607	25.66	-0.00	-0.750			
0.0137	876.35	4.1310	4.1310	-0.5876	25.66	-0.00	-0.750			
0.0155	991.91	4.1280	4.1281	-0.6084	25.65	-0.01	-0.750			
0.0174	1111.06	4.1250	4.1250	-0.6227	25.65	-0.01	-0.750			
0.0193	1234.20	4.1220	4.1220	-0.6387	25.65	-0.01	-0.750			
0.0212	1357.31	4.1190	4.1190	-0.6539	25.64	-0.02	-0.750			
0.0232	1483.82	4.1160	4.1159	-0.6683	25.64	-0.02	-0.750			
0.0252	1614.10	4.1130	4.1129	-0.6769	25.64	-0.02	-0.750			
0.0273	1745.62	4.1100	4.1100	-0.6892	25.63	-0.03	-0.750			
0.0294	1879.93	4.1070	4.1071	-0.7002	25.63	-0.03	-0.750			
0.0315	2016.33	4.1040	4.1040	-0.7062	25.63	-0.03	-0.750			
0.0336	2153.53	4.1010	4.1009	-0.7122	25.62	-0.04	-0.750			
0.0358	2290.06	4.0980	4.0982	-0.7162	25.62	-0.04	-0.750			
0.0379	2427.19	4.0950	4.0950	-0.7250	25.62	-0.04	-0.750			
0.0401	2567.47	4.0920	4.0919	-0.7329	25.62	-0.04	-0.750			
0.0423	2709.90	4.0890	4.0889	-0.7343	25.61	-0.05	-0.750			
0.0446	2853.77	4.0860	4.0860	-0.7421	25.61	-0.05	-0.750			
0.0468	2995.15	4.0830	4.0830	-0.7431	25.61	-0.05	-0.750			
0.0490	3137.84	4.0800	4.0800	-0.7435	25.61	-0.05	-0.750			
0.0512	3279.54	4.0770	4.0769	-0.7439	25.61	-0.05	-0.750			
0.0535	3421.58	4.0740	4.0739	-0.7507	25.61	-0.05	-0.750			
0.0557	3565.93	4.0710	4.0711	-0.7557	25.60	-0.06	-0.750			
0.0580	3714.48	4.0680	4.0679	-0.7626	25.60	-0.06	-0.750			
0.0603	3861.50	4.0650	4.0649	-0.7638	25.60	-0.06	-0.750			
0.0626	4008.24	4.0620	4.0619	-0.7625	25.60	-0.06	-0.750			
0.0649	4153.37	4.0590	4.0590	-0.7655	25.61	-0.05	-0.750			
0.0672	4300.25	4.0560	4.0560	-0.7651	25.61	-0.05	-0.750			
0.0695	4445.85	4.0530	4.0530	-0.7662	25.61	-0.05	-0.750			
0.0718	4595.40	4.0500	4.0499	-0.7716	25.62	-0.04	-0.750			
0.0741	4745.56	4.0470	4.0471	-0.7668	25.62	-0.04	-0.750			
0.0764	4890.69	4.0440	4.0440	-0.7715	25.62	-0.04	-0.750			
0.0787	5038.37	4.0410	4.0411	-0.7749	25.62	-0.04	-0.750			
0.0810	5186.12	4.0380	4.0381	-0.7735	25.62	-0.04	-0.750			
0.0834	5336.70	4.0350	4.0349	-0.7786	25.62	-0.04	-0.750			
0.0857	5486.30	4.0320	4.0321	-0.7814	25.62	-0.04	-0.750			
0.0881	5637.47	4.0290	4.0290	-0.7854	25.62	-0.04	-0.750			
0.0905	5790.45	4.0260	4.0260	-0.7931	25.62	-0.04	-0.750			
0.0928	5940.03	4.0230	4.0230	-0.7885	25.62	-0.04	-0.750			
0.0952	6092.47	4.0200	4.0200	-0.7892	25.62	-0.04	-0.750			
0.0976	6244.11	4.0170	4.0170	-0.7935	25.62	-0.04	-0.750			
0.1000	6397.32	4.0140	4.0140	-0.7944	25.62	-0.04	-0.750			
0.1023	6548.97	4.0110	4.0110	-0.7926	25.62	-0.04	-0.750			
0.1047	6700.53	4.0080	4.0079	-0.7938	25.62	-0.04	-0.750			
0.1071	6852.52	4.0050	4.0051	-0.7953	25.62	-0.04	-0.750			
0.1095	7006.61	4.0020	4.0020	-0.7978	25.62	-0.04	-0.750			
0.1119	7160.08	3.9990	3.9990	-0.8016	25.62	-0.04	-0.750			
0.1142	7311.30	3.9960	3.9961	-0.8078	25.63	-0.03	-0.750			
0.1167	7470.89	3.9930	3.9930	-0.8101	25.63	-0.03	-0.750			
0.1192	7627.64	3.9900	3.9898	-0.8105	25.63	-0.03	-0.750			
0.1216	7782.65	3.9870	3.9869	-0.8110	25.64	-0.02	-0.750			
0.1240	7937.76	3.9840	3.9843	-0.8131	25.64	-0.02	-0.750			
0.1264	8092.28	3.9810	3.9809	-0.8198	25.64	-0.02	-0.750			
0.1289	8248.50	3.9780	3.9779	-0.8202	25.65	-0.01	-0.750			
0.1314	8406.42	3.9750	3.9750	-0.8175	25.65	-0.01	-0.750			
0.1339	8568.14	3.9720	3.9720	-0.8311	25.66	-0.00	-0.750			
0.1364	8728.78	3.9690	3.9692	-0.8322	25.66	0.00	-0.750			
0.1389	8888.42	3.9660	3.9660	-0.8297	25.66	0.00	-0.750			
0.1413	9046.00	3.9630	3.9630	-0.8307	25.66	0.00	-0.750			
0.1438	9205.86	3.9600	3.9599	-0.8310	25.66	0.00	-0.750			
0.1464	9367.00	3.9570	3.9570	-0.8325	25.66	0.00	-0.750			
0.1488	9526.36	3.9540	3.9541	-0.8331	25.66	0.00	-0.750			
0.1513	9686.05	3.9510	3.9510	-0.8315	25.66	0.00	-0.750			
0.1538	9846.19	3.9480	3.9480	-0.8384	25.67	0.01	-0.750			
0.1564	10007.56	3.9450	3.9449	-0.8371	25.67	0.01	-0.750			
0.1589	10168.12	3.9420	3.9420	-0.8435	25.68	0.02	-0.750			
0.1614	10331.17	3.9390	3.9391	-0.8402	25.68	0.02	-0.750			
0.1639	10492.62	3.9360	3.9361	-0.8445	25.68	0.02	-0.750			
0.1665	10654.25	3.9330	3.9330	-0.8512	25.68	0.02	-0.750			
0.1690	10817.02	3.9300	3.9298	-0.8487	25.68	0.02	-0.750			
0.1716	10983.70	3.9270	3.9269	-0.8580	25.68	0.02	-0.750			
0.1742	11148.08	3.9240	3.9242	-0.8552	25.68	0.02	-0.750			
0.1768	11312.42	3.9210	3.9210	-0.8572	25.68	0.02	-0.750			
0.1794	11478.71	3.9180	3.9179	-0.8578	25.68	0.02	-0.750			
0.1819	11639.45	3.9150	3.9151	-0.8496	25.68	0.02	-0.750			
0.1844	11804.30	3.9120	3.9119	-0.8588	25.68	0.02	-0.750			
0.1870	11969.64	3.9090	3.9090	-0.8646	25.68	0.02	-0.750			
0.1896	12136.08	3.9060	3.9059	-0.8673	25.69	0.03	-0.750			
0.1922	12303.80	3.9030	3.9030	-0.8690	25.69	0.03	-0.750			
0.1949	12470.71	3.9000	3.9000	-0.8656	25.69	0.03	-0.750			
0.1975	12638.20	3.8970	3.8969	-0.8680	25.70	0.04	-0.750			
0.2001	12804.35	3.8940	3.8939	-0.8636	25.70	0.04	-0.750			
0.2026	12967.87	3.8910	3.8910	-0.8670	25.70	0.04	-0.750			
0.2052	13132.79	3.8880	3.8880	-0.8701	25.71	0.05	-0.750			
0.2078	13300.33	3.8850	3.8848	-0.8744	25.71	0.05	-0.750			
0.2105	13472.59	3.8820	3.8821	-0.8805	25.71	0.05	-0.750			
0.2131	13641.23	3.8790	3.8790	-0.8839	25.71	0.05	-0.750			
0.2158	13811.58	3.8760	3.8760	-0.8862	25.71	0.05	-0.750			
0.2185	13982.33	3.8730	3.8729	-0.8835	25.72	0.06	-0.750			
0.2211	14148.21	3.8700	3.8699	-0.8784	25.72	0.06	-0.750			
0.2237	14318.77	3.8670	3.8673	-0.8815	25.72	0.06	-0.750			
0.2264	14487.31	3.8640	3.8639	-0.8870	25.72	0.06	-0.750			
0.2291	14660.41	3.8610	3.8610	-0.8860	25.72	0.06	-0.750			
0.2317	14828.35	3.8580	3.8579	-0.8871	25.73	0.07	-0.750			
0.2344	14998.50	3.8550	3.8550	-0.8897	25.73	0.07	-0.750			
0.2370	15170.69	3.8520	3.8520	-0.8916	25.73	0.07	-0.750			
0.2397	15340.93	3.8490	3.8489	-0.9000	25.74	0.08	-0.750			
0.2424	15514.49	3.8460	3.8460	-0.9048	25.74	0.08	-0.750			
0.2451	15688.46	3.8430	3.8429	-0.9064	25.74	0.08	-0.750			
0.2479	15865.19	3.8400	3.8402	-0.9115	25.75	0.09	-0.750			
0.2506	16039.06	3.8370	3.8370	-0.9090	25.75	0.09	-0.750			
0.2534	16215.21	3.8340	3.8340	-0.9090	25.75	0.09	-0.750			
0.2561	16389.38	3.8310	3.8310	-0.9036	25.75	0.09	-0.750			
0.2588	16560.87	3.8280	3.8280	-0.8965	25.75	0.09	-0.750			
0.2615	16735.42	3.8250	3.8251	-0.8983	25.75	0.09	-0.750			
0.2642	16906.23	3.8220	3.8220	-0.9022	25.76	0.10	-0.750			
0.2669	17079.12	3.8190	3.8189	-0.9021	25.76	0.10	-0.750			
0.2696	17252.66	3.8160	3.8161	-0.9023	25.76	0.10	-0.750			
0.2723	17427.33	3.8130	3.8130	-0.8998	25.77	0.11	-0.750			
0.2750	17600.18	3.8100	3.8101	-0.8963	25.77	0.11	-0.750			
0.2777	17771.54	3.8070	3.8070	-0.9019	25.78	0.12	-0.750			
0.2804	17943.96	3.8040	3.8039	-0.8989	25.78	0.12	-0.750			
0.2831	18115.21	3.8010	3.8009	-0.8967	25.79	0.13	-0.750			
0.2858	18289.16	3.7980	3.7980	-0.8992	25.79	0.13	-0.750			
0.2885	18462.27	3.7950	3.7950	-0.9051	25.79	0.13	-0.750			
0.2912	18637.72	3.7920	3.7920	-0.9012	25.79	0.13	-0.750			
0.2939	18811.02	3.7890	3.7889	-0.8921	25.79	0.13	-0.750			
0.2966	18980.22	3.7860	3.7860	-0.8936	25.79	0.13	-0.750			
0.2992	19151.49	3.7830	3.7832	-0.8963	25.79	0.13	-0.750			
0.3019	19322.37	3.7800	3.7799	-0.8975	25.80	0.14	-0.750			
0.3046	19497.48	3.7770	3.7769	-0.8905	25.80	0.14	-0.750			
0.3073	19667.91	3.7740	3.7740	-0.8818	25.80	0.14	-0.750			
0.3100	19838.91	3.7710	3.7711	-0.8774	25.81	0.15	-0.750			
0.3126	20004.06	3.7680	3.7682	-0.8811	25.81	0.15	-0.750			
0.3152	20169.91	3.7650	3.7649	-0.8759	25.81	0.15	-0.750			
0.3178	20336.64	3.7620	3.7619	-0.8732	25.81	0.15	-0.750			
0.3204	20505.52	3.7590	3.7590	-0.8807	25.81	0.15	-0.750			
0.3231	20680.12	3.7560	3.7561	-0.8950	25.81	0.15	-0.750			
0.3258	20850.33	3.7530	3.7530	-0.8961	25.81	0.15	-0.750			
0.3285	21022.54	3.7500	3.7499	-0.8973	25.81	0.15	-0.750			
0.3311	21192.57	3.7470	3.7470	-0.9000	25.82	0.16	-0.750			
0.3339	21367.53	3.7440	3.7440	-0.9062	25.82	0.16	-0.750			
0.3366	21542.95	3.7410	3.7410	-0.9060	25.82	0.16	-0.750			
0.3393	21716.30	3.7380	3.7381	-0.9118	25.82	0.16	-0.750			
0.3420	21891.17	3.7350	3.7350	-0.9135	25.82	0.16	-0.750			
0.3448	22065.91	3.7320	3.7319	-0.9206	25.83	0.17	-0.750			
0.3475	22243.17	3.7290	3.7290	-0.9258	25.83	0.17	-0.750			
0.3503	22419.77	3.7260	3.7260	-0.9411	25.83	0.17	-0.750			
0.3532	22604.55	3.7230	3.7230	-0.9506	25.84	0.18	-0.750			
0.3561	22787.96	3.7200	3.7199	-0.9578	25.84	0.18	-0.750			
0.3589	22971.31	3.7170	3.7170	-0.9660	25.85	0.19	-0.750			
0.3619	23158.78	3.7140	3.7140	-0.9777	25.85	0.19	-0.750			
0.3648	23346.56	3.7110	3.7109	-0.9907	25.85	0.19	-0.750			
0.3678	23537.05	3.7080	3.7080	-1.0052	25.84	0.18	-0.750			
0.3708	23730.26	3.7050	3.7050	-1.0178	25.84	0.18	-0.750			
0.3739	23928.54	3.7020	3.7021	-1.0443	25.84	0.18	-0.750			
0.3770	24129.71	3.6990	3.6989	-1.0607	25.84	0.18	-0.750			
0.3803	24336.04	3.6960	3.6960	-1.0738	25.85	0.19	-0.750			
0.3835	24544.30	3.6930	3.6930	-1.0921	25.85	0.19	-0.750			
0.3868	24755.65	3.6900	3.6901	-1.1265	25.85	0.19	-0.750			
0.3902	24974.91	3.6870	3.6869	-1.1459	25.85	0.19	-0.750			
0.3937	25196.59	3.6840	3.6839	-1.1686	25.85	0.19	-0.750			
0.3972	25422.29	3.6810	3.6809	-1.1911	25.85	0.19	-0.750			
0.4009	25655.92	3.6780	3.6779	-1.2215	25.84	0.18	-0.750			
0.4046	25893.20	3.6750	3.6749	-1.2464	25.84	0.18	-0.750			
0.4083	26131.36	3.6720	3.6720	-1.2721	25.83	0.17	-0.750			
0.4121	26375.87	3.6690	3.6691	-1.2919	25.82	0.16	-0.750			
0.4161	26631.86	3.6660	3.6659	-1.3290	25.82	0.16	-0.750			
0.4201	26887.39	3.6630	3.6630	-1.3583	25.81	0.15	-0.750			
0.4242	27151.60	3.6600	3.6600	-1.3940	25.81	0.15	-0.750			
0.4286	27427.48	3.6570	3.6568	-1.4334	25.81	0.15	-0.750			
0.4329	27703.99	3.6540	3.6540	-1.4643	25.80	0.14	-0.750			
0.4373	27985.99	3.6510	3.6512	-1.5069	25.80	0.14	-0.750			
0.4419	28281.57	3.6480	3.6479	-1.5430	25.79	0.13	-0.750			
0.4465	28579.18	3.6450	3.6449	-1.5768	25.77	0.11	-0.750			
0.4512	28878.67	3.6420	3.6420	-1.6076	25.77	0.11	-0.750			
0.4563	29200.82	3.6390	3.6390	-1.6576	25.76	0.10	-0.750			
0.4613	29520.34	3.6360	3.6361	-1.7030	25.76	0.10	-0.750			
0.4664	29849.02	3.6330	3.6328	-1.7322	25.76	0.10	-0.750			
0.4717	30186.78	3.6300	3.6301	-1.7676	25.75	0.09	-0.750	0.412	0.496	
0.4771	30532.23	3.6270	3.6269	-1.8132	25.74	0.08	-0.750			
0.4826	30886.17	3.6240	3.6238	-1.8271	25.73	0.07	-0.750			
0.4880	31234.27	3.6210	3.6210	-1.8522	25.72	0.06	-0.750			
0.4938	31602.56	3.6180	3.6180	-1.8818	25.71	0.05	-0.750			
0.4993	31957.63	3.6150	3.6150	-1.9130	25.71	0.05	-0.750			
0.5051	32326.37	3.6120	3.6121	-1.9638	25.70	0.04	-0.750			
0.5111	32708.59	3.6090	3.6091	-1.9949	25.69	0.03	-0.750			
0.5171	33094.66	3.6060	3.6060	-2.0400	25.68	0.02	-0.750			
0.5234	33495.08	3.6030	3.6031	-2.0861	25.68	0.02	-0.750			
0.5296	33897.05	3.6000	3.5996	-2.1110	25.67	0.01	-0.750			
0.5361	34312.10	3.5970	3.5968	-2.1562	25.67	0.01	-0.750			
0.5425	34720.92	3.5940	3.5940	-2.1705	25.66	0.00	-0.750			
0.5491	35140.88	3.5910	3.5911	-2.2207	25.66	-0.00	-0.750			
0.5558	35568.59	3.5880	3.5880	-2.2623	25.65	-0.01	-0.750			
0.5627	36011.42	3.5850	3.5850	-2.3008	25.64	-0.02	-0.750			
0.5697	36460.56	3.5820	3.5821	-2.3337	25.64	-0.02	-0.750			
0.5769	36919.10	3.5790	3.5791	-2.3437	25.64	-0.02	-0.750			
0.5840	37374.21	3.5760	3.5759	-2.3532	25.64	-0.02	-0.750			
0.5909	37818.49	3.5730	3.5729	-2.3791	25.64	-0.02	-0.750			
0.5980	38273.46	3.5700	3.5699	-2.3998	25.64	-0.02	-0.750			
0.6053	38739.73	3.5670	3.5672	-2.4135	25.64	-0.02	-0.750			
0.6127	39211.06	3.5640	3.5641	-2.4277	25.64	-0.02	-0.750			
0.6200	39678.06	3.5610	3.5609	-2.4343	25.64	-0.02	-0.750			
0.6274	40150.81	3.5580	3.5580	-2.4350	25.64	-0.02	-0.750			
0.6346	40615.47	3.5550	3.5548	-2.4138	25.64	-0.02	-0.750			
0.6419	41079.64	3.5520	3.5523	-2.4118	25.64	-0.02	-0.750			
0.6491	41543.55	3.5490	3.5489	-2.3856	25.64	-0.02	-0.750			
0.6563	42002.66	3.5460	3.5460	-2.3581	25.65	-0.01	-0.750			
0.6634	42458.18	3.5430	3.5430	-2.3143	25.66	0.00	-0.750			
0.6703	42901.66	3.5400	3.5401	-2.2910	25.66	0.00	-0.750			
0.6771	43334.50	3.5370	3.5369	-2.2450	25.67	0.01	-0.750			
0.6837	43756.23	3.5340	3.5341	-2.2125	25.68	0.02	-0.750			
0.6904	44186.48	3.5310	3.5307	-2.1635	25.69	0.03	-0.750			
0.6969	44600.23	3.5280	3.5281	-2.1321	25.70	0.04	-0.750			
0.7032	45002.46	3.5250	3.5249	-2.0736	25.71	0.05	-0.750			
0.7093	45395.92	3.5220	3.5221	-1.9965	25.72	0.06	-0.750			
0.7152	45773.78	3.5190	3.5188	-1.9324	25.74	0.08	-0.750			
0.7209	46136.64	3.5160	3.5162	-1.8607	25.76	0.10	-0.750			
0.7263	46484.34	3.5130	3.5129	-1.7862	25.78	0.12	-0.750			
0.7317	46829.55	3.5100	3.5099	-1.7381	25.80	0.14	-0.750			
0.7368	47153.19	3.5070	3.5072	-1.6647	25.81	0.15	-0.750			
0.7418	47473.32	3.5040	3.5041	-1.6115	25.83	0.17	-0.750			
0.7464	47769.75	3.5010	3.5009	-1.5339	25.84	0.18	-0.750			
0.7509	48059.16	3.4980	3.4980	-1.4739	25.86	0.20	-0.750			
0.7552	48333.17	3.4950	3.4950	-1.4225	25.87	0.21	-0.750			
0.7593	48597.88	3.4920	3.4919	-1.3811	25.89	0.23	-0.750			
0.7634	48857.85	3.4890	3.4889	-1.3298	25.90	0.24	-0.750			
0.7673	49109.84	3.4860	3.4860	-1.2953	25.92	0.26	-0.750			
0.7712	49356.17	3.4830	3.4829	-1.2588	25.94	0.28	-0.750			
0.7749	49594.13	3.4800	3.4801	-1.2231	25.96	0.30	-0.750			
0.7786	49829.76	3.4770	3.4768	-1.1841	25.97	0.31	-0.750			
0.7821	50051.91	3.4740	3.4740	-1.1319	25.98	0.32	-0.750			
0.7854	50263.35	3.4710	3.4712	-1.0843	26.00	0.34	-0.750			
0.7886	50468.74	3.4680	3.4679	-1.0538	26.01	0.35	-0.750			
0.7916	50663.50	3.4650	3.4649	-1.0115	26.02	0.36	-0.750			
0.7946	50852.04	3.4620	3.4620	-0.9843	26.03	0.37	-0.750			
0.7975	51037.90	3.4590	3.4589	-0.9677	26.05	0.39	-0.750			
0.8003	51218.27	3.4560	3.4560	-0.9652	26.06	0.40	-0.750			
0.8031	51400.78	3.4530	3.4529	-0.9682	26.07	0.41	-0.750			
0.8060	51582.06	3.4500	3.4500	-0.9773	26.08	0.42	-0.750			
0.8089	51766.97	3.4470	3.4469	-1.0081	26.09	0.43	-0.750			
0.8119	51962.42	3.4440	3.4441	-1.0551	26.10	0.44	-0.750			
0.8152	52170.26	3.4410	3.4409	-1.1025	26.11	0.45	-0.750			
0.8185	52385.64	3.4380	3.4379	-1.1519	26.12	0.46	-0.750			
0.8220	52609.16	3.4350	3.4351	-1.2020	26.13	0.47	-0.750			
0.8258	52854.34	3.4320	3.4320	-1.2387	26.14	0.48	-0.750			
0.8297	53102.37	3.4290	3.4289	-1.2580	26.15	0.49	-0.750			
0.8336	53349.18	3.4260	3.4260	-1.2439	26.16	0.50	-0.750			
0.8373	53590.00	3.4230	3.4231	-1.2289	26.17	0.51	-0.750			
0.8411	53830.76	3.4200	3.4199	-1.1958	26.18	0.52	-0.750			
0.8446	54053.24	3.4170	3.4170	-1.1486	26.19	0.53	-0.750			
0.8479	54267.03	3.4140	3.4142	-1.1009	26.20	0.54	-0.750			
0.8512	54476.41	3.4110	3.4109	-1.0703	26.21	0.55	-0.750			
0.8543	54677.83	3.4080	3.4080	-1.0271	26.21	0.55	-0.750			
0.8574	54871.01	3.4050	3.4050	-0.9821	26.22	0.56	-0.750			
0.8602	55053.65	3.4020	3.4021	-0.9415	26.23	0.57	-0.750			
0.8630	55234.58	3.3990	3.3989	-0.9157	26.24	0.58	-0.750			
0.8657	55404.86	3.3960	3.3960	-0.8776	26.25	0.59	-0.750			
0.8683	55568.50	3.3930	3.3928	-0.8425	26.25	0.59	-0.750			
0.8707	55725.89	3.3900	3.3901	-0.8129	26.26	0.60	-0.750			
0.8731	55881.39	3.3870	3.3871	-0.7884	26.27	0.61	-0.750			
0.8755	56030.25	3.3840	3.3839	-0.7558	26.28	0.62	-0.750			
0.8777	56172.62	3.3810	3.3810	-0.7205	26.28	0.62	-0.750			
0.8798	56306.89	3.3780	3.3781	-0.6937	26.29	0.63	-0.750			
0.8818	56438.03	3.3750	3.3750	-0.6642	26.30	0.64	-0.750			
0.8838	56563.35	3.3720	3.3719	-0.6343	26.30	0.64	-0.750			
0.8856	56680.50	3.3690	3.3690	-0.6094	26.31	0.65	-0.750			
0.8874	56794.44	3.3660	3.3660	-0.5852	26.32	0.66	-0.750			
0.8891	56905.05	3.3630	3.3629	-0.5621	26.32	0.66	-0.750			
0.8908	57010.97	3.3600	3.3599	-0.5364	26.33	0.67	-0.750			
0.8924	57111.36	3.3570	3.3571	-0.5126	26.33	0.67	-0.750			
0.8939	57207.43	3.3540	3.3540	-0.4921	26.34	0.68	-0.750			
0.8953	57299.54	3.3510	3.3510	-0.4698	26.34	0.68	-0.750			
0.8967	57386.16	3.3480	3.3479	-0.4483	26.34	0.68	-0.750			
0.8980	57470.27	3.3450	3.3451	-0.4297	26.35	0.69	-0.750			
0.8992	57551.64	3.3420	3.3420	-0.4130	26.36	0.70	-0.750			
0.9005	57629.73	3.3390	3.3390	-0.3935	26.36	0.70	-0.750			
0.9016	57702.93	3.3360	3.3360	-0.3763	26.37	0.71	-0.750			
0.9027	57773.06	3.3330	3.3330	-0.3579	26.37	0.71	-0.750			
0.9037	57839.94	3.3300	3.3301	-0.3415	26.38	0.72	-0.750			
0.9047	57903.49	3.3270	3.3270	-0.3282	26.39	0.73	-0.750			
0.9057	57965.08	3.3240	3.3241	-0.3159	26.39	0.73	-0.750			
0.9066	58024.51	3.3210	3.3209	-0.3030	26.40	0.74	-0.750			
0.9075	58082.02	3.3180	3.3181	-0.2915	26.40	0.74	-0.750			
0.9084	58136.00	3.3150	3.3150	-0.2788	26.41	0.75	-0.750			
0.9092	58188.63	3.3120	3.3120	-0.2684	26.41	0.75	-0.750			
0.9100	58238.72	3.3090	3.3090	-0.2562	26.42	0.76	-0.750			
0.9107	58286.48	3.3060	3.3059	-0.2451	26.42	0.76	-0.750			
0.9114	58332.32	3.3030	3.3031	-0.2362	26.42	0.76	-0.750			
0.9121	58376.58	3.3000	3.3000	-0.2284	26.43	0.77	-0.750			
0.9128	58419.54	3.2970	3.2970	-0.2204	26.43	0.77	-0.750			
0.9134	58460.37	3.2940	3.2940	-0.2138	26.44	0.78	-0.750			
0.9141	58500.69	3.2910	3.2910	-0.2075	26.44	0.78	-0.750			
0.9147	58540.17	3.2880	3.2880	-0.2025	26.45	0.79	-0.750			
0.9153	58578.54	3.2850	3.2850	-0.1971	26.45	0.79	-0.750			
0.9159	58616.15	3.2820	3.2820	-0.1915	26.46	0.80	-0.750			
0.9164	58652.07	3.2790	3.2790	-0.1860	26.46	0.80	-0.750			
0.9170	58687.40	3.2760	3.2759	-0.1804	26.46	0.80	-0.750			
0.9175	58721.48	3.2730	3.2731	-0.1747	26.47	0.81	-0.750			
0.9180	58754.20	3.2700	3.2700	-0.1701	26.47	0.81	-0.750			
0.9185	58786.09	3.2670	3.2672	-0.1666	26.48	0.82	-0.750			
0.9190	58817.44	3.2640	3.2640	-0.1623	26.48	0.82	-0.750			
0.9195	58848.33	3.2610	3.2609	-0.1594	26.48	0.82	-0.750			
0.9200	58878.73	3.2580	3.2579	-0.1556	26.49	0.83	-0.750			
0.9204	58907.91	3.2550	3.2552	-0.1530	26.49	0.83	-0.750			
0.9209	58937.41	3.2520	3.2520	-0.1510	26.49	0.83	-0.750			
0.9213	58966.08	3.2490	3.2490	-0.1478	26.50	0.84	-0.750			
0.9218	58993.93	3.2460	3.2459	-0.1447	26.50	0.84	-0.750			
0.9222	59021.34	3.2430	3.2431	-0.1416	26.50	0.84	-0.750			
0.9226	59048.48	3.2400	3.2400	-0.1395	26.51	0.85	-0.750			
0.9230	59075.03	3.2370	3.2370	-0.1363	26.51	0.85	-0.750			
0.9235	59100.82	3.2340	3.2340	-0.1342	26.51	0.85	-0.750			
0.9238	59125.85	3.2310	3.2310	-0.1308	26.52	0.86	-0.750			
0.9242	59150.78	3.2280	3.2280	-0.1292	26.52	0.86	-0.750			
0.9246	59175.42	3.2250	3.2249	-0.1275	26.52	0.86	-0.750			
0.9250	59199.64	3.2220	3.2220	-0.1252	26.53	0.87	-0.750			
0.9254	59223.53	3.2190	3.2192	-0.1236	26.53	0.87	-0.750			
0.9257	59247.16	3.2160	3.2159	-0.1220	26.53	0.87	-0.750			
0.9261	59270.62	3.2130	3.2131	-0.1205	26.54	0.88	-0.750			
0.9265	59293.38	3.2100	3.2099	-0.1190	26.54	0.88	-0.750			
0.9268	59315.82	3.2070	3.2070	-0.1171	26.54	0.88	-0.750			
0.9272	59338.16	3.2040	3.2040	-0.1159	26.55	0.89	-0.750			
0.9275	59360.14	3.2010	3.2009	-0.1146	26.55	0.89	-0.750			
0.9278	59382.18	3.1980	3.1981	-0.1130	26.55	0.89	-0.750			
0.9282	59403.92	3.1950	3.1950	-0.1119	26.56	0.90	-0.750			
0.9285	59425.20	3.1920	3.1919	-0.1105	26.56	0.90	-0.750			
0.9288	59446.33	3.1890	3.1890	-0.1091	26.56	0.90	-0.750			
0.9292	59467.08	3.1860	3.1860	-0.1076	26.57	0.91	-0.750			
0.9295	59487.54	3.1830	3.1829	-0.1061	26.57	0.91	-0.750			
0.9298	59507.67	3.1800	3.1801	-0.1051	26.57	0.91	-0.750			
0.9301	59527.59	3.1770	3.1769	-0.1038	26.58	0.92	-0.750			
0.9304	59547.50	3.1740	3.1740	-0.1028	26.58	0.92	-0.750			
0.9307	59567.20	3.1710	3.1710	-0.1019	26.58	0.92	-0.750			
0.9310	59586.61	3.1680	3.1679	-0.1009	26.59	0.93	-0.750			
0.9313	59605.84	3.1650	3.1650	-0.0999	26.59	0.93	-0.750			
0.9316	59624.93	3.1620	3.1621	-0.0989	26.59	0.93	-0.750			
0.9319	59643.89	3.1590	3.1591	-0.0981	26.59	0.93	-0.750			
0.9322	59662.60	3.1560	3.1559	-0.0972	26.60	0.94	-0.750			
0.9325	59681.06	3.1530	3.1530	-0.0962	26.60	0.94	-0.750			
0.9328	59699.49	3.1500	3.1500	-0.0954	26.60	0.94	-0.750			
0.9331	59717.79	3.1470	3.1469	-0.0947	26.61	0.95	-0.750			
0.9334	59735.88	3.1440	3.1440	-0.0937	26.61	0.95	-0.750			
0.9337	59753.77	3.1410	3.1411	-0.0928	26.61	0.95	-0.750			
0.9339	59771.39	3.1380	3.1379	-0.0923	26.62	0.96	-0.750			
0.9342	59788.98	3.1350	3.1349	-0.0915	26.62	0.96	-0.750			
0.9345	59806.57	3.1320	3.1321	-0.0908	26.62	0.96	-0.750			
0.9347	59823.92	3.1290	3.1289	-0.0901	26.63	0.97	-0.750			
0.9350	59841.16	3.1260	3.1260	-0.0895	26.63	0.97	-0.750			
0.9353	59858.31	3.1230	3.1231	-0.0890	26.63	0.97	-0.750			
0.9356	59875.34	3.1200	3.1200	-0.0884	26.64	0.98	-0.750			
0.9358	59892.35	3.1170	3.1169	-0.0878	26.64	0.98	-0.750			
0.9361	59909.13	3.1140	3.1140	-0.0870	26.64	0.98	-0.750			
0.9363	59925.73	3.1110	3.1110	-0.0860	26.65	0.99	-0.750			
0.9366	59942.18	3.1080	3.1080	-0.0853	26.65	0.99	-0.750			
0.9369	59958.41	3.1050	3.1049	-0.0850	26.66	1.00	-0.750			
0.9371	59974.67	3.1020	3.1021	-0.0844	26.66	1.00	-0.750			
0.9374	59990.83	3.0990	3.0990	-0.0838	26.66	1.00	-0.750			
0.9376	60006.72	3.0960	3.0960	-0.0832	26.67	1.01	-0.750			
0.9379	60022.65	3.0930	3.0928	-0.0828	26.67	1.01	-0.750			
0.9381	60038.53	3.0900	3.0901	-0.0824	26.67	1.01	-0.750			
0.9383	60054.31	3.0870	3.0869	-0.0820	26.68	1.02	-0.750			
0.9386	60070.15	3.0840	3.0840	-0.0816	26.68	1.02	-0.750			
0.9388	60085.78	3.0810	3.0810	-0.0810	26.68	1.02	-0.750			
0.9391	60101.26	3.0780	3.0780	-0.0803	26.69	1.03	-0.750			
0.9393	60116.53	3.0750	3.0751	-0.0798	26.69	1.03	-0.750			
0.9396	60131.80	3.0720	3.0719	-0.0793	26.69	1.03	-0.750			
0.9398	60146.99	3.0690	3.0691	-0.0788	26.70	1.04	-0.750			
0.9400	60161.98	3.0660	3.0658	-0.0785	26.70	1.04	-0.750			
0.9403	60176.89	3.0630	3.0630	-0.0779	26.70	1.04	-0.750			
0.9405	60191.85	3.0600	3.0600	-0.0778	26.71	1.05	-0.750			
0.9407	60206.80	3.0570	3.0570	-0.0774	26.71	1.05	-0.750			
0.9410	60221.70	3.0540	3.0539	-0.0772	26.72	1.06	-0.750			
0.9412	60236.59	3.0510	3.0509	-0.0767	26.72	1.06	-0.750			
0.9414	60251.27	3.0480	3.0482	-0.0762	26.72	1.06	-0.750			
0.9417	60265.98	3.0450	3.0450	-0.0759	26.73	1.07	-0.750			
0.9419	60280.39	3.0420	3.0421	-0.0755	26.73	1.07	-0.750			
0.9421	60294.77	3.0390	3.0390	-0.0749	26.73	1.07	-0.750			
0.9423	60309.12	3.0360	3.0360	-0.0745	26.73	1.07	-0.750			
0.9426	60323.39	3.0330	3.0330	-0.0742	26.74	1.08	-0.750			
0.9428	60337.53	3.0300	3.0299	-0.0737	26.74	1.08	-0.750			
0.9430	60351.67	3.0270	3.0270	-0.0735	26.74	1.08	-0.750			
0.9432	60365.78	3.0240	3.0240	-0.0731	26.75	1.09	-0.750			
0.9434	60379.87	3.0210	3.0211	-0.0728	26.75	1.09	-0.750			
0.9437	60393.72	3.0180	3.0180	-0.0726	26.75	1.09	-0.750			
0.9439	60407.62	3.0150	3.0149	-0.0723	26.76	1.10	-0.750			
0.9441	60421.35	3.0120	3.0120	-0.0719	26.76	1.10	-0.750			
0.9443	60435.15	3.0090	3.0089	-0.0718	26.76	1.10	-0.750			
0.9445	60448.83	3.0060	3.0061	-0.0720	26.77	1.11	-0.751			
0.9447	60462.68	3.0030	3.0030	-0.0722	26.77	1.11	-0.751			
