Ah_balance (normalized)	Ah_balance (mAh)	Voltage - fit (V)	Voltage -  interpolate (V)	dQ/dV (1/V)	Temperature (°C)	Temperature - diff (°C)	Current (C)	R_DC 0ms (mOhm)	R_DC 50ms (mOhm)	R_DC 50 ms PEC (mOhm)
0.0537	3435.54	4.1970	4.1970	0.7722	26.49	0.50	0.750			
0.0560	3583.23	4.1940	4.1940	0.7703	26.49	0.50	0.750			
0.0583	3732.98	4.1910	4.1909	0.7679	26.49	0.50	0.750			
0.0606	3879.34	4.1880	4.1880	0.7645	26.49	0.50	0.750			
0.0629	4026.24	4.1850	4.1850	0.7610	26.49	0.50	0.750			
0.0652	4170.34	4.1820	4.1821	0.7643	26.49	0.50	0.750			
0.0675	4317.24	4.1790	4.1789	0.7663	26.48	0.49	0.750			
0.0698	4464.79	4.1760	4.1760	0.7626	26.48	0.49	0.750			
0.0720	4611.04	4.1730	4.1730	0.7615	26.48	0.49	0.750			
0.0743	4757.74	4.1700	4.1702	0.7608	26.48	0.49	0.750			
0.0766	4904.46	4.1670	4.1669	0.7560	26.48	0.49	0.750			
0.0789	5047.90	4.1640	4.1640	0.7627	26.48	0.49	0.750			
0.0811	5193.32	4.1610	4.1609	0.7620	26.48	0.49	0.750			
0.0834	5340.27	4.1580	4.1578	0.7671	26.48	0.49	0.750			
0.0858	5488.77	4.1550	4.1551	0.7719	26.48	0.49	0.750			
0.0881	5638.67	4.1520	4.1520	0.7715	26.48	0.49	0.750			
0.0904	5787.20	4.1490	4.1489	0.7712	26.48	0.49	0.750			
0.0927	5934.61	4.1460	4.1460	0.7743	26.48	0.49	0.750			
0.0950	6081.73	4.1430	4.1430	0.7718	26.48	0.49	0.750			
0.0974	6231.55	4.1400	4.1401	0.7740	26.48	0.49	0.750			
0.0997	6379.42	4.1370	4.1371	0.7754	26.48	0.49	0.750			
0.1020	6527.61	4.1340	4.1341	0.7769	26.48	0.49	0.750			
0.1043	6676.94	4.1310	4.1310	0.7822	26.47	0.48	0.750			
0.1067	6827.23	4.1280	4.1280	0.7839	26.47	0.48	0.750			
0.1090	6978.03	4.1250	4.1249	0.7862	26.47	0.48	0.750			
0.1114	7131.28	4.1220	4.1221	0.7898	26.47	0.48	0.750			
0.1138	7283.40	4.1190	4.1191	0.7884	26.47	0.48	0.750			
0.1162	7434.44	4.1160	4.1160	0.7877	26.48	0.49	0.750			
0.1185	7583.11	4.1130	4.1131	0.7855	26.48	0.49	0.750			
0.1209	7734.67	4.1100	4.1098	0.7895	26.48	0.49	0.750			
0.1232	7886.39	4.1070	4.1070	0.7955	26.48	0.49	0.750			
0.1257	8041.63	4.1040	4.1039	0.7942	26.48	0.49	0.750			
0.1280	8194.35	4.1010	4.1011	0.7950	26.48	0.49	0.750			
0.1305	8348.90	4.0980	4.0980	0.7946	26.48	0.49	0.750			
0.1328	8499.94	4.0950	4.0952	0.7933	26.48	0.49	0.750			
0.1352	8652.53	4.0920	4.0920	0.7891	26.48	0.49	0.750			
0.1376	8804.76	4.0890	4.0889	0.7838	26.48	0.49	0.750			
0.1399	8952.03	4.0860	4.0861	0.7870	26.48	0.49	0.750			
0.1422	9103.32	4.0830	4.0831	0.7969	26.48	0.49	0.750			
0.1446	9254.94	4.0800	4.0800	0.8013	26.48	0.49	0.750			
0.1470	9409.04	4.0770	4.0769	0.8131	26.48	0.49	0.750			
0.1495	9568.13	4.0740	4.0740	0.8151	26.48	0.49	0.750			
0.1520	9728.70	4.0710	4.0711	0.8272	26.48	0.49	0.750			
0.1545	9888.31	4.0680	4.0679	0.8285	26.47	0.48	0.750			
0.1570	10046.38	4.0650	4.0650	0.8216	26.47	0.48	0.750			
0.1594	10203.55	4.0620	4.0619	0.8258	26.47	0.48	0.750			
0.1619	10363.78	4.0590	4.0592	0.8208	26.47	0.48	0.750			
0.1644	10522.46	4.0560	4.0559	0.8096	26.47	0.48	0.750			
0.1668	10675.06	4.0530	4.0532	0.8184	26.48	0.49	0.750			
0.1692	10828.31	4.0500	4.0502	0.8212	26.48	0.49	0.750			
0.1717	10986.74	4.0470	4.0465	0.8317	26.48	0.49	0.750			
0.1742	11148.45	4.0440	4.0441	0.8368	26.48	0.49	0.750			
0.1767	11311.05	4.0410	4.0411	0.8306	26.49	0.50	0.750			
0.1793	11477.57	4.0380	4.0382	0.8395	26.49	0.50	0.750			
0.1817	11631.72	4.0350	4.0351	0.8405	26.50	0.51	0.750			
0.1842	11791.55	4.0320	4.0317	0.8510	26.50	0.51	0.750			
0.1868	11955.42	4.0290	4.0290	0.8532	26.50	0.51	0.750			
0.1894	12121.40	4.0260	4.0261	0.8677	26.50	0.51	0.750			
0.1921	12294.39	4.0230	4.0231	0.8840	26.50	0.51	0.750			
0.1948	12467.63	4.0200	4.0200	0.8918	26.50	0.51	0.750			
0.1974	12635.51	4.0170	4.0170	0.8816	26.50	0.51	0.750			
0.2001	12805.14	4.0140	4.0140	0.8681	26.50	0.51	0.750			
0.2027	12972.03	4.0110	4.0111	0.8682	26.50	0.51	0.750			
0.2053	13137.02	4.0080	4.0081	0.8754	26.50	0.51	0.750			
0.2079	13304.02	4.0050	4.0049	0.8698	26.50	0.51	0.750			
0.2105	13470.41	4.0020	4.0020	0.8690	26.50	0.51	0.750			
0.2131	13639.01	3.9990	3.9992	0.8683	26.50	0.51	0.750			
0.2157	13805.84	3.9960	3.9961	0.8756	26.50	0.51	0.750			
0.2184	13975.90	3.9930	3.9930	0.8839	26.50	0.51	0.750			
0.2210	14142.73	3.9900	3.9896	0.8786	26.50	0.51	0.750			
0.2236	14310.87	3.9870	3.9871	0.8836	26.50	0.51	0.750			
0.2263	14483.54	3.9840	3.9841	0.8858	26.51	0.52	0.750			
0.2290	14653.43	3.9810	3.9810	0.8856	26.51	0.52	0.750			
0.2316	14823.22	3.9780	3.9780	0.8921	26.52	0.53	0.750			
0.2343	14992.22	3.9750	3.9748	0.8890	26.52	0.53	0.750			
0.2370	15165.40	3.9720	3.9720	0.8849	26.52	0.53	0.750			
0.2396	15335.90	3.9690	3.9691	0.8952	26.52	0.53	0.750			
0.2423	15508.62	3.9660	3.9661	0.8968	26.52	0.53	0.750			
0.2450	15680.46	3.9630	3.9630	0.8969	26.52	0.53	0.750			
0.2477	15852.21	3.9600	3.9602	0.9033	26.52	0.53	0.750			
0.2504	16026.54	3.9570	3.9570	0.9039	26.52	0.53	0.750			
0.2531	16200.68	3.9540	3.9541	0.9168	26.52	0.53	0.750			
0.2559	16379.93	3.9510	3.9509	0.9140	26.52	0.53	0.750			
0.2587	16554.19	3.9480	3.9478	0.9045	26.52	0.53	0.750			
0.2614	16730.29	3.9450	3.9450	0.9074	26.52	0.53	0.750			
0.2641	16902.71	3.9420	3.9421	0.9036	26.52	0.53	0.750			
0.2668	17075.36	3.9390	3.9389	0.9026	26.53	0.54	0.750			
0.2695	17248.79	3.9360	3.9361	0.9056	26.53	0.54	0.750			
0.2722	17420.59	3.9330	3.9331	0.9015	26.53	0.54	0.750			
0.2750	17597.68	3.9300	3.9300	0.9057	26.53	0.54	0.750			
0.2777	17770.09	3.9270	3.9270	0.9161	26.53	0.54	0.750			
0.2804	17947.28	3.9240	3.9240	0.9117	26.52	0.53	0.750			
0.2832	18123.89	3.9210	3.9207	0.9105	26.52	0.53	0.750			
0.2859	18299.38	3.9180	3.9182	0.9098	26.52	0.53	0.750			
0.2887	18473.93	3.9150	3.9151	0.9108	26.52	0.53	0.750			
0.2914	18647.61	3.9120	3.9119	0.9168	26.52	0.53	0.750			
0.2941	18822.76	3.9090	3.9090	0.9206	26.52	0.53	0.750			
0.2968	18997.35	3.9060	3.9059	0.9271	26.52	0.53	0.750			
0.2997	19181.69	3.9030	3.9030	0.9283	26.52	0.53	0.750			
0.3025	19359.58	3.9000	3.9000	0.9410	26.52	0.53	0.750			
0.3053	19540.23	3.8970	3.8971	0.9457	26.51	0.52	0.750			
0.3082	19722.81	3.8940	3.8938	0.9479	26.51	0.52	0.750			
0.3111	19909.60	3.8910	3.8911	0.9331	26.51	0.52	0.750			
0.3139	20087.25	3.8880	3.8881	0.9365	26.50	0.51	0.750			
0.3166	20264.26	3.8850	3.8851	0.9406	26.50	0.51	0.750			
0.3195	20445.88	3.8820	3.8821	0.9535	26.49	0.50	0.750			
0.3222	20623.85	3.8790	3.8790	0.9531	26.49	0.50	0.750			
0.3251	20809.12	3.8760	3.8761	0.9621	26.48	0.49	0.750			
0.3281	20998.04	3.8730	3.8731	0.9789	26.47	0.48	0.750			
0.3311	21190.27	3.8700	3.8700	0.9854	26.47	0.48	0.750			
0.3340	21378.14	3.8670	3.8669	0.9801	26.46	0.47	0.750			
0.3370	21567.61	3.8640	3.8640	0.9706	26.46	0.47	0.750			
0.3399	21752.89	3.8610	3.8611	0.9893	26.45	0.46	0.750			
0.3429	21942.97	3.8580	3.8580	0.9975	26.45	0.46	0.750			
0.3458	22134.07	3.8550	3.8548	1.0052	26.44	0.45	0.750			
0.3489	22329.55	3.8520	3.8520	1.0116	26.44	0.45	0.750			
0.3520	22526.32	3.8490	3.8491	1.0219	26.43	0.44	0.750			
0.3550	22723.09	3.8460	3.8460	1.0315	26.43	0.44	0.750			
0.3582	22921.78	3.8430	3.8429	1.0273	26.42	0.43	0.750			
0.3613	23121.43	3.8400	3.8401	1.0295	26.41	0.42	0.750			
0.3644	23319.64	3.8370	3.8370	1.0371	26.40	0.41	0.750			
0.3675	23519.01	3.8340	3.8340	1.0402	26.39	0.40	0.750			
0.3706	23718.96	3.8310	3.8308	1.0498	26.37	0.38	0.750			
0.3738	23920.50	3.8280	3.8281	1.0409	26.36	0.37	0.750			
0.3769	24120.19	3.8250	3.8250	1.0452	26.36	0.37	0.750			
0.3800	24321.79	3.8220	3.8220	1.0545	26.35	0.36	0.750			
0.3832	24525.09	3.8190	3.8189	1.0603	26.34	0.35	0.750			
0.3864	24727.84	3.8160	3.8161	1.0591	26.33	0.34	0.750			
0.3895	24930.99	3.8130	3.8130	1.0630	26.33	0.34	0.750			
0.3927	25134.29	3.8100	3.8101	1.0699	26.32	0.33	0.750			
0.3960	25342.51	3.8070	3.8068	1.0837	26.31	0.32	0.750			
0.3992	25549.54	3.8040	3.8040	1.0870	26.30	0.31	0.750			
0.4025	25757.39	3.8010	3.8010	1.0971	26.29	0.30	0.750			
0.4058	25969.31	3.7980	3.7981	1.1132	26.28	0.29	0.750			
0.4092	26186.76	3.7950	3.7950	1.1151	26.27	0.28	0.750			
0.4125	26401.83	3.7920	3.7920	1.1276	26.26	0.27	0.750			
0.4159	26616.44	3.7890	3.7891	1.1408	26.25	0.26	0.750			
0.4193	26836.59	3.7860	3.7861	1.1595	26.24	0.25	0.750			
0.4228	27061.16	3.7830	3.7829	1.1699	26.23	0.24	0.750			
0.4263	27286.35	3.7800	3.7801	1.1828	26.22	0.23	0.750			
0.4299	27514.74	3.7770	3.7771	1.2021	26.21	0.22	0.750			
0.4336	27751.25	3.7740	3.7738	1.2069	26.20	0.21	0.750			
0.4372	27979.60	3.7710	3.7710	1.2324	26.19	0.20	0.750			
0.4408	28214.18	3.7680	3.7682	1.2758	26.18	0.19	0.750			
0.4447	28463.01	3.7650	3.7649	1.3055	26.17	0.18	0.750			
0.4487	28717.55	3.7620	3.7624	1.3478	26.16	0.17	0.750	0.303	0.414	
0.4529	28983.99	3.7590	3.7592	1.3834	26.14	0.15	0.750			
0.4571	29254.11	3.7560	3.7561	1.4161	26.13	0.14	0.750			
0.4614	29530.63	3.7530	3.7531	1.4415	26.11	0.12	0.750			
0.4656	29798.83	3.7500	3.7501	1.4481	26.10	0.11	0.750			
0.4700	30080.89	3.7470	3.7469	1.4776	26.09	0.10	0.750			
0.4746	30371.26	3.7440	3.7440	1.5091	26.08	0.09	0.750			
0.4791	30661.51	3.7410	3.7412	1.5439	26.07	0.08	0.750			
0.4838	30961.16	3.7380	3.7378	1.5816	26.05	0.06	0.750			
0.4886	31270.86	3.7350	3.7350	1.6305	26.04	0.05	0.750			
0.4934	31577.53	3.7320	3.7322	1.6611	26.02	0.03	0.750			
0.4984	31897.78	3.7290	3.7289	1.7347	26.00	0.01	0.750			
0.5038	32244.92	3.7260	3.7257	1.7756	25.99	-0.00	0.750			
0.5093	32593.69	3.7230	3.7233	1.8299	25.97	-0.02	0.750			
0.5149	32950.65	3.7200	3.7202	1.8846	25.95	-0.04	0.750			
0.5205	33310.29	3.7170	3.7169	1.9318	25.93	-0.06	0.750			
0.5264	33688.18	3.7140	3.7141	1.9727	25.91	-0.08	0.750			
0.5324	34072.37	3.7110	3.7110	2.0340	25.89	-0.10	0.750			
0.5385	34464.65	3.7080	3.7081	2.1142	25.88	-0.11	0.750			
0.5450	34879.66	3.7050	3.7050	2.1590	25.85	-0.14	0.750			
0.5517	35309.14	3.7020	3.7020	2.2316	25.83	-0.16	0.750			
0.5584	35739.08	3.6990	3.6990	2.2926	25.81	-0.18	0.750			
0.5654	36182.91	3.6960	3.6960	2.3599	25.80	-0.19	0.750			
0.5726	36645.29	3.6930	3.6930	2.4556	25.79	-0.20	0.750			
0.5801	37123.53	3.6900	3.6900	2.4859	25.76	-0.23	0.750			
0.5877	37610.45	3.6870	3.6871	2.6085	25.74	-0.25	0.750			
0.5956	38118.53	3.6840	3.6839	2.6676	25.72	-0.27	0.750			
0.6036	38629.17	3.6810	3.6807	2.7636	25.71	-0.28	0.750			
0.6120	39166.10	3.6780	3.6774	2.8594	25.70	-0.29	0.750			
0.6209	39734.98	3.6750	3.6750	2.9579	25.68	-0.31	0.750			
0.6299	40315.27	3.6720	3.6719	3.0026	25.67	-0.32	0.750			
0.6391	40902.71	3.6690	3.6689	3.0004	25.66	-0.33	0.750			
0.6482	41485.20	3.6660	3.6661	2.9397	25.66	-0.33	0.750			
0.6572	42058.05	3.6630	3.6630	2.7557	25.65	-0.34	0.750			
0.6651	42569.53	3.6600	3.6600	2.5062	25.65	-0.34	0.750			
0.6721	43016.02	3.6570	3.6570	2.2346	25.65	-0.34	0.750			
0.6784	43417.23	3.6540	3.6537	2.0044	25.66	-0.33	0.750			
0.6837	43755.90	3.6510	3.6507	1.7905	25.66	-0.33	0.750			
0.6886	44073.25	3.6480	3.6481	1.6374	25.66	-0.33	0.750			
0.6933	44371.53	3.6450	3.6451	1.5149	25.66	-0.33	0.750			
0.6977	44653.58	3.6420	3.6422	1.4240	25.66	-0.33	0.750			
0.7017	44911.39	3.6390	3.6391	1.3361	25.66	-0.33	0.750			
0.7056	45159.19	3.6360	3.6360	1.2869	25.66	-0.33	0.750			
0.7093	45394.37	3.6330	3.6328	1.2138	25.66	-0.33	0.750			
0.7128	45620.30	3.6300	3.6300	1.1964	25.66	-0.33	0.750			
0.7163	45842.60	3.6270	3.6272	1.1922	25.66	-0.33	0.750			
0.7199	46072.55	3.6240	3.6240	1.1895	25.66	-0.33	0.750			
0.7234	46298.34	3.6210	3.6211	1.1942	25.66	-0.33	0.750			
0.7270	46525.01	3.6180	3.6182	1.2074	25.67	-0.32	0.750			
0.7307	46764.25	3.6150	3.6150	1.2091	25.67	-0.32	0.750			
0.7344	47003.70	3.6120	3.6117	1.2020	25.68	-0.31	0.750			
0.7380	47230.83	3.6090	3.6092	1.1850	25.68	-0.31	0.750			
0.7415	47457.97	3.6060	3.6061	1.1727	25.68	-0.31	0.750			
0.7451	47684.96	3.6030	3.6029	1.1609	25.68	-0.31	0.750			
0.7484	47898.27	3.6000	3.6001	1.1315	25.68	-0.31	0.750			
0.7517	48110.68	3.5970	3.5971	1.1349	25.68	-0.31	0.750			
0.7552	48330.21	3.5940	3.5940	1.1552	25.68	-0.31	0.750			
0.7587	48554.81	3.5910	3.5907	1.1680	25.68	-0.31	0.750			
0.7621	48774.68	3.5880	3.5880	1.2042	25.68	-0.31	0.750			
0.7657	49007.88	3.5850	3.5851	1.2509	25.69	-0.30	0.750			
0.7696	49255.31	3.5820	3.5822	1.2920	25.69	-0.30	0.750			
0.7735	49505.61	3.5790	3.5791	1.3366	25.69	-0.30	0.750			
0.7776	49767.78	3.5760	3.5762	1.3768	25.69	-0.30	0.750			
0.7818	50037.36	3.5730	3.5730	1.4147	25.68	-0.31	0.750			
0.7861	50311.77	3.5700	3.5701	1.4752	25.68	-0.31	0.750			
0.7906	50596.25	3.5670	3.5667	1.5069	25.68	-0.31	0.750			
0.7952	50894.17	3.5640	3.5640	1.5363	25.68	-0.31	0.750			
0.7999	51195.79	3.5610	3.5613	1.5768	25.68	-0.31	0.750			
0.8047	51503.84	3.5580	3.5580	1.5933	25.69	-0.30	0.750			
0.8096	51811.93	3.5550	3.5544	1.6115	25.69	-0.30	0.750			
0.8144	52122.40	3.5520	3.5520	1.6445	25.69	-0.30	0.750			
0.8195	52446.71	3.5490	3.5490	1.6442	25.70	-0.29	0.750			
0.8244	52763.29	3.5460	3.5462	1.6644	25.70	-0.29	0.750			
0.8294	53079.97	3.5430	3.5431	1.6748	25.70	-0.29	0.750			
0.8344	53403.41	3.5400	3.5400	1.6803	25.70	-0.29	0.750			
0.8393	53718.31	3.5370	3.5369	1.7235	25.71	-0.28	0.750			
0.8447	54058.28	3.5340	3.5339	1.7429	25.72	-0.27	0.750			
0.8501	54407.08	3.5310	3.5307	1.7009	25.73	-0.26	0.750			
0.8557	54762.56	3.5280	3.5284	1.5334	25.75	-0.24	0.750			
0.8604	55065.81	3.5250	3.5255	1.3119	25.77	-0.22	0.750			
0.8643	55316.32	3.5220	3.5222	1.0773	25.79	-0.20	0.750			
0.8667	55470.93	3.5190	3.5187	0.7726	25.80	-0.19	0.750			
0.8681	55558.03	3.5160	3.5157	0.5694	25.80	-0.19	0.750			
0.8694	55639.45	3.5130	3.5126	0.4487	25.81	-0.18	0.750			
0.8704	55704.71	3.5100	3.5100	0.3818	25.82	-0.17	0.750			
0.8714	55770.74	3.5070	3.5068	0.3483	25.82	-0.17	0.750			
0.8724	55832.85	3.5040	3.5040	0.3260	25.83	-0.16	0.750			
0.8733	55892.87	3.5010	3.5011	0.3116	25.83	-0.16	0.750			
0.8742	55950.31	3.4980	3.4979	0.3002	25.84	-0.15	0.750			
0.8751	56006.74	3.4950	3.4950	0.2919	25.85	-0.14	0.750			
0.8760	56061.24	3.4920	3.4919	0.2830	25.85	-0.14	0.750			
0.8768	56115.23	3.4890	3.4890	0.2770	25.86	-0.13	0.750			
0.8776	56167.93	3.4860	3.4860	0.2698	25.86	-0.13	0.750			
0.8784	56218.84	3.4830	3.4831	0.2661	25.87	-0.12	0.750			
0.8792	56268.87	3.4800	3.4800	0.2594	25.88	-0.11	0.750			
0.8800	56318.25	3.4770	3.4769	0.2556	25.88	-0.11	0.750			
0.8807	56367.27	3.4740	3.4738	0.2486	25.89	-0.10	0.750			
0.8815	56414.97	3.4710	3.4712	0.2404	25.89	-0.10	0.750			
0.8822	56460.76	3.4680	3.4683	0.2348	25.90	-0.09	0.750			
0.8829	56504.78	3.4650	3.4649	0.2291	25.90	-0.09	0.750			
0.8836	56548.05	3.4620	3.4620	0.2223	25.91	-0.08	0.750			
0.8842	56588.48	3.4590	3.4589	0.2161	25.91	-0.08	0.750			
0.8848	56629.31	3.4560	3.4562	0.2130	25.92	-0.07	0.750			
0.8855	56670.37	3.4530	3.4530	0.2102	25.92	-0.07	0.750			
0.8861	56710.88	3.4500	3.4501	0.2080	25.92	-0.07	0.750			
0.8867	56751.22	3.4470	3.4469	0.2045	25.93	-0.06	0.750			
0.8873	56789.82	3.4440	3.4440	0.1995	25.93	-0.06	0.750			
0.8879	56828.14	3.4410	3.4411	0.1949	25.94	-0.05	0.750			
0.8885	56865.03	3.4380	3.4379	0.1894	25.94	-0.05	0.750			
0.8891	56901.00	3.4350	3.4350	0.1843	25.94	-0.05	0.750			
0.8896	56935.79	3.4320	3.4320	0.1781	25.95	-0.04	0.750			
0.8902	56969.64	3.4290	3.4290	0.1727	25.95	-0.04	0.750			
0.8907	57002.06	3.4260	3.4260	0.1676	25.95	-0.04	0.750			
0.8912	57033.63	3.4230	3.4230	0.1620	25.96	-0.03	0.750			
0.8916	57064.24	3.4200	3.4198	0.1561	25.96	-0.03	0.750			
0.8921	57093.95	3.4170	3.4170	0.1512	25.96	-0.03	0.750			
0.8925	57122.37	3.4140	3.4141	0.1454	25.97	-0.02	0.750			
0.8930	57149.68	3.4110	3.4110	0.1395	25.97	-0.02	0.750			
0.8934	57176.14	3.4080	3.4081	0.1338	25.97	-0.02	0.750			
0.8938	57201.23	3.4050	3.4049	0.1275	25.97	-0.02	0.750			
0.8941	57225.11	3.4020	3.4020	0.1205	25.98	-0.01	0.750			
0.8945	57247.81	3.3990	3.3990	0.1142	25.98	-0.01	0.750			
0.8949	57270.40	3.3960	3.3958	0.1044	25.98	-0.01	0.750			
0.8952	57290.13	3.3930	3.3929	0.0970	25.98	-0.01	0.750			
0.8954	57307.81	3.3900	3.3902	0.0871	25.98	-0.01	0.750			
0.8957	57324.43	3.3870	3.3872	0.0783	25.99	-0.00	0.750			
0.8959	57338.43	3.3840	3.3843	0.0676	25.99	-0.00	0.750			
0.8961	57351.34	3.3810	3.3812	0.0568	25.99	-0.00	0.750			
0.8963	57361.10	3.3780	3.3786	0.0449	25.99	-0.00	0.750			
0.8964	57368.59	3.3750	3.3762	0.0331	25.99	-0.00	0.750			
0.8965	57373.80	3.3720	3.3739	0.0212	25.99	0.00	0.750			
