Ah_balance (normalized)	Ah_balance (mAh)	Voltage - fit (V)	Voltage -  interpolate (V)	dQ/dV (1/V)	Temperature (°C)	Temperature - diff (°C)	Current (C)	R_DC 0ms (mOhm)	R_DC 50ms (mOhm)	R_DC 50 ms PEC (mOhm)
0.0003	21.63	4.1560	4.1557	-0.1122	25.20	0.01	-0.750			
0.0007	46.81	4.1530	4.1529	-0.1493	25.19	0.00	-0.750			
0.0012	79.60	4.1500	4.1499	-0.1853	25.19	0.00	-0.750			
0.0019	118.78	4.1470	4.1470	-0.2190	25.19	0.00	-0.750			
0.0026	164.92	4.1440	4.1440	-0.2488	25.19	0.00	-0.750			
0.0034	217.16	4.1410	4.1410	-0.2791	25.19	0.00	-0.750			
0.0043	273.22	4.1380	4.1380	-0.3060	25.19	0.00	-0.750			
0.0052	334.91	4.1350	4.1351	-0.3331	25.19	0.00	-0.750			
0.0063	400.75	4.1320	4.1320	-0.3632	25.19	0.00	-0.750			
0.0074	472.42	4.1290	4.1290	-0.3935	25.19	-0.00	-0.750			
0.0086	551.23	4.1260	4.1260	-0.4209	25.19	-0.00	-0.750			
0.0099	635.56	4.1230	4.1230	-0.4487	25.19	-0.00	-0.750			
0.0114	726.78	4.1200	4.1200	-0.4724	25.19	-0.00	-0.750			
0.0128	820.39	4.1170	4.1170	-0.4906	25.19	-0.00	-0.750			
0.0143	916.48	4.1140	4.1141	-0.5108	25.18	-0.01	-0.750			
0.0159	1015.45	4.1110	4.1110	-0.5263	25.18	-0.01	-0.750			
0.0175	1118.18	4.1080	4.1079	-0.5427	25.18	-0.01	-0.750			
0.0191	1225.07	4.1050	4.1051	-0.5578	25.18	-0.01	-0.750			
0.0209	1334.47	4.1020	4.1020	-0.5699	25.18	-0.01	-0.750			
0.0226	1445.32	4.0990	4.0991	-0.5818	25.18	-0.01	-0.750			
0.0244	1558.47	4.0960	4.0960	-0.5910	25.18	-0.01	-0.750			
0.0261	1672.18	4.0930	4.0930	-0.5991	25.18	-0.01	-0.750			
0.0279	1788.62	4.0900	4.0900	-0.6076	25.18	-0.01	-0.750			
0.0298	1905.95	4.0870	4.0870	-0.6160	25.18	-0.01	-0.750			
0.0317	2025.94	4.0840	4.0841	-0.6255	25.18	-0.01	-0.750			
0.0336	2147.30	4.0810	4.0809	-0.6282	25.18	-0.01	-0.750			
0.0354	2268.23	4.0780	4.0780	-0.6320	25.18	-0.01	-0.750			
0.0373	2389.61	4.0750	4.0751	-0.6389	25.18	-0.01	-0.750			
0.0393	2512.69	4.0720	4.0721	-0.6427	25.18	-0.01	-0.750			
0.0412	2637.25	4.0690	4.0689	-0.6486	25.18	-0.01	-0.750			
0.0432	2762.05	4.0660	4.0660	-0.6528	25.18	-0.01	-0.750			
0.0451	2888.06	4.0630	4.0631	-0.6578	25.18	-0.01	-0.750			
0.0471	3015.61	4.0600	4.0599	-0.6614	25.18	-0.01	-0.750			
0.0491	3143.05	4.0570	4.0570	-0.6639	25.18	-0.01	-0.750			
0.0511	3269.47	4.0540	4.0540	-0.6670	25.19	-0.00	-0.750			
0.0531	3398.58	4.0510	4.0510	-0.6735	25.19	-0.00	-0.750			
0.0551	3528.27	4.0480	4.0479	-0.6775	25.19	-0.00	-0.750			
0.0572	3658.95	4.0450	4.0450	-0.6832	25.19	0.00	-0.750			
0.0593	3792.20	4.0420	4.0420	-0.6866	25.19	0.00	-0.750			
0.0613	3924.06	4.0390	4.0390	-0.6906	25.19	0.00	-0.750			
0.0634	4057.10	4.0360	4.0361	-0.6929	25.20	0.01	-0.750			
0.0655	4189.60	4.0330	4.0330	-0.6935	25.20	0.01	-0.750			
0.0676	4323.33	4.0300	4.0299	-0.6957	25.20	0.01	-0.750			
0.0696	4457.17	4.0270	4.0272	-0.6957	25.20	0.01	-0.750			
0.0717	4590.53	4.0240	4.0240	-0.6966	25.20	0.01	-0.750			
0.0738	4724.44	4.0210	4.0210	-0.7039	25.21	0.02	-0.750			
0.0759	4859.84	4.0180	4.0179	-0.7018	25.21	0.02	-0.750			
0.0780	4994.59	4.0150	4.0150	-0.7053	25.21	0.02	-0.750			
0.0802	5130.51	4.0120	4.0121	-0.7076	25.22	0.03	-0.750			
0.0823	5267.41	4.0090	4.0090	-0.7106	25.22	0.03	-0.750			
0.0844	5404.12	4.0060	4.0060	-0.7118	25.22	0.03	-0.750			
0.0866	5539.80	4.0030	4.0030	-0.7116	25.23	0.04	-0.750			
0.0887	5675.94	4.0000	4.0000	-0.7137	25.23	0.04	-0.750			
0.0908	5814.17	3.9970	3.9970	-0.7212	25.23	0.04	-0.750			
0.0930	5952.26	3.9940	3.9940	-0.7203	25.24	0.05	-0.750			
0.0952	6090.93	3.9910	3.9910	-0.7244	25.24	0.05	-0.750			
0.0974	6230.43	3.9880	3.9880	-0.7265	25.25	0.06	-0.750			
0.0995	6370.69	3.9850	3.9850	-0.7320	25.25	0.06	-0.750			
0.1017	6511.81	3.9820	3.9819	-0.7343	25.26	0.07	-0.750			
0.1040	6653.88	3.9790	3.9789	-0.7329	25.26	0.07	-0.750			
0.1062	6794.93	3.9760	3.9760	-0.7324	25.27	0.08	-0.750			
0.1084	6935.72	3.9730	3.9729	-0.7324	25.27	0.08	-0.750			
0.1105	7074.75	3.9700	3.9700	-0.7306	25.27	0.08	-0.750			
0.1127	7214.86	3.9670	3.9670	-0.7319	25.27	0.08	-0.750			
0.1149	7353.29	3.9640	3.9640	-0.7346	25.28	0.09	-0.750			
0.1171	7496.62	3.9610	3.9610	-0.7419	25.28	0.09	-0.750			
0.1194	7640.50	3.9580	3.9581	-0.7456	25.28	0.09	-0.750			
0.1216	7784.80	3.9550	3.9550	-0.7479	25.28	0.09	-0.750			
0.1239	7928.53	3.9520	3.9521	-0.7504	25.29	0.10	-0.750			
0.1261	8072.50	3.9490	3.9490	-0.7495	25.29	0.10	-0.750			
0.1284	8217.57	3.9460	3.9460	-0.7501	25.29	0.10	-0.750			
0.1306	8360.13	3.9430	3.9430	-0.7489	25.30	0.11	-0.750			
0.1329	8504.26	3.9400	3.9401	-0.7525	25.30	0.11	-0.750			
0.1351	8647.97	3.9370	3.9369	-0.7565	25.31	0.12	-0.750			
0.1374	8792.88	3.9340	3.9340	-0.7596	25.31	0.12	-0.750			
0.1397	8939.40	3.9310	3.9309	-0.7613	25.31	0.12	-0.750			
0.1420	9086.72	3.9280	3.9280	-0.7661	25.32	0.13	-0.750			
0.1443	9235.50	3.9250	3.9251	-0.7676	25.32	0.13	-0.750			
0.1466	9382.46	3.9220	3.9220	-0.7655	25.33	0.14	-0.750			
0.1489	9529.45	3.9190	3.9190	-0.7652	25.33	0.14	-0.750			
0.1512	9675.72	3.9160	3.9160	-0.7661	25.34	0.15	-0.750			
0.1535	9822.04	3.9130	3.9130	-0.7681	25.34	0.15	-0.750			
0.1558	9970.10	3.9100	3.9099	-0.7715	25.35	0.16	-0.750			
0.1581	10118.12	3.9070	3.9070	-0.7759	25.35	0.16	-0.750			
0.1604	10267.45	3.9040	3.9040	-0.7822	25.35	0.16	-0.750			
0.1628	10418.45	3.9010	3.9010	-0.7797	25.35	0.16	-0.750			
0.1652	10569.97	3.8980	3.8980	-0.7782	25.36	0.17	-0.750			
0.1675	10719.51	3.8950	3.8950	-0.7751	25.36	0.17	-0.750			
0.1698	10867.71	3.8920	3.8921	-0.7744	25.36	0.17	-0.750			
0.1721	11015.88	3.8890	3.8890	-0.7727	25.36	0.17	-0.750			
0.1744	11162.35	3.8860	3.8859	-0.7745	25.37	0.18	-0.750			
0.1767	11311.19	3.8830	3.8830	-0.7794	25.37	0.18	-0.750			
0.1791	11462.74	3.8800	3.8799	-0.7841	25.38	0.19	-0.750			
0.1815	11613.17	3.8770	3.8770	-0.7837	25.38	0.19	-0.750			
0.1838	11765.24	3.8740	3.8740	-0.7825	25.38	0.19	-0.750			
0.1862	11914.69	3.8710	3.8710	-0.7827	25.39	0.20	-0.750			
0.1885	12064.61	3.8680	3.8680	-0.7796	25.39	0.20	-0.750			
0.1908	12213.11	3.8650	3.8650	-0.7784	25.39	0.20	-0.750			
0.1932	12363.05	3.8620	3.8620	-0.7781	25.40	0.21	-0.750			
0.1955	12512.65	3.8590	3.8589	-0.7786	25.40	0.21	-0.750			
0.1978	12662.01	3.8560	3.8561	-0.7796	25.41	0.22	-0.750			
0.2002	12812.23	3.8530	3.8530	-0.7782	25.41	0.22	-0.750			
0.2025	12962.04	3.8500	3.8500	-0.7727	25.41	0.22	-0.750			
0.2049	13110.72	3.8470	3.8470	-0.7730	25.42	0.23	-0.750			
0.2072	13258.51	3.8440	3.8442	-0.7669	25.42	0.23	-0.750			
0.2095	13405.50	3.8410	3.8409	-0.7626	25.42	0.23	-0.750			
0.2117	13550.46	3.8380	3.8380	-0.7624	25.43	0.24	-0.750			
0.2140	13696.26	3.8350	3.8351	-0.7622	25.43	0.24	-0.750			
0.2163	13843.27	3.8320	3.8319	-0.7632	25.44	0.25	-0.750			
0.2186	13989.79	3.8290	3.8290	-0.7636	25.44	0.25	-0.750			
0.2209	14136.25	3.8260	3.8260	-0.7594	25.44	0.25	-0.750			
0.2232	14283.35	3.8230	3.8230	-0.7579	25.44	0.25	-0.750			
0.2254	14428.76	3.8200	3.8200	-0.7562	25.44	0.25	-0.750			
0.2277	14573.54	3.8170	3.8170	-0.7483	25.45	0.26	-0.750			
0.2300	14717.54	3.8140	3.8140	-0.7426	25.45	0.26	-0.750			
0.2322	14859.22	3.8110	3.8111	-0.7380	25.45	0.26	-0.750			
0.2344	15000.06	3.8080	3.8080	-0.7315	25.45	0.26	-0.750			
0.2365	15139.05	3.8050	3.8050	-0.7335	25.46	0.27	-0.750			
0.2387	15279.84	3.8020	3.8020	-0.7271	25.46	0.27	-0.750			
0.2409	15419.36	3.7990	3.7990	-0.7255	25.46	0.27	-0.750			
0.2431	15559.19	3.7960	3.7960	-0.7220	25.47	0.28	-0.750			
0.2453	15697.35	3.7930	3.7930	-0.7200	25.47	0.28	-0.750			
0.2474	15834.45	3.7900	3.7900	-0.7161	25.47	0.28	-0.750			
0.2496	15971.73	3.7870	3.7869	-0.7166	25.47	0.28	-0.750			
0.2517	16108.18	3.7840	3.7840	-0.7137	25.48	0.29	-0.750			
0.2539	16247.99	3.7810	3.7809	-0.7148	25.48	0.29	-0.750			
0.2560	16385.19	3.7780	3.7781	-0.7115	25.48	0.29	-0.750			
0.2581	16520.93	3.7750	3.7748	-0.7127	25.48	0.29	-0.750			
0.2602	16655.62	3.7720	3.7719	-0.7102	25.49	0.30	-0.750			
0.2624	16792.11	3.7690	3.7690	-0.7133	25.49	0.30	-0.750			
0.2645	16927.48	3.7660	3.7660	-0.7126	25.49	0.30	-0.750			
0.2667	17067.44	3.7630	3.7630	-0.7199	25.50	0.31	-0.750			
0.2689	17206.44	3.7600	3.7601	-0.7230	25.50	0.31	-0.750			
0.2710	17344.42	3.7570	3.7570	-0.7265	25.50	0.31	-0.750			
0.2732	17483.39	3.7540	3.7539	-0.7306	25.51	0.32	-0.750			
0.2754	17623.90	3.7510	3.7510	-0.7377	25.51	0.32	-0.750			
0.2776	17766.56	3.7480	3.7480	-0.7451	25.51	0.32	-0.750			
0.2799	17911.20	3.7450	3.7450	-0.7551	25.52	0.33	-0.750			
0.2821	18056.86	3.7420	3.7421	-0.7624	25.52	0.33	-0.750			
0.2844	18203.32	3.7390	3.7390	-0.7715	25.52	0.33	-0.750			
0.2867	18351.97	3.7360	3.7360	-0.7847	25.52	0.33	-0.750			
0.2891	18503.82	3.7330	3.7330	-0.7956	25.52	0.33	-0.750			
0.2915	18659.01	3.7300	3.7299	-0.8071	25.52	0.33	-0.750			
0.2940	18814.91	3.7270	3.7272	-0.8140	25.52	0.33	-0.750			
0.2964	18971.28	3.7240	3.7240	-0.8242	25.52	0.33	-0.750			
0.2989	19129.90	3.7210	3.7209	-0.8368	25.52	0.33	-0.750			
0.3014	19290.04	3.7180	3.7180	-0.8478	25.52	0.33	-0.750			
0.3040	19453.80	3.7150	3.7150	-0.8639	25.52	0.33	-0.750			
0.3066	19623.41	3.7120	3.7120	-0.8799	25.52	0.33	-0.750			
0.3093	19793.61	3.7090	3.7090	-0.8973	25.52	0.33	-0.750			
0.3120	19968.43	3.7060	3.7060	-0.9098	25.52	0.33	-0.750			
0.3148	20144.09	3.7030	3.7030	-0.9208	25.52	0.33	-0.750			
0.3175	20320.96	3.7000	3.7000	-0.9353	25.52	0.33	-0.750			
0.3203	20501.84	3.6970	3.6971	-0.9499	25.52	0.33	-0.750			
0.3232	20685.90	3.6940	3.6939	-0.9734	25.51	0.32	-0.750			
0.3262	20876.64	3.6910	3.6909	-0.9866	25.51	0.32	-0.750			
0.3292	21067.29	3.6880	3.6880	-0.9969	25.50	0.31	-0.750			
0.3322	21260.54	3.6850	3.6853	-1.0151	25.50	0.31	-0.750			
0.3353	21456.13	3.6820	3.6819	-1.0292	25.49	0.30	-0.750			
0.3383	21653.65	3.6790	3.6789	-1.0438	25.49	0.30	-0.750			
0.3415	21853.04	3.6760	3.6760	-1.0589	25.48	0.29	-0.750			
0.3447	22060.92	3.6730	3.6730	-1.0834	25.48	0.29	-0.750			
0.3480	22270.68	3.6700	3.6700	-1.1017	25.47	0.28	-0.750			
0.3513	22484.58	3.6670	3.6670	-1.1181	25.47	0.28	-0.750			
0.3547	22699.41	3.6640	3.6639	-1.1347	25.46	0.27	-0.750			
0.3581	22917.93	3.6610	3.6610	-1.1570	25.46	0.27	-0.750			
0.3616	23143.02	3.6580	3.6580	-1.1780	25.45	0.26	-0.750			
0.3652	23371.63	3.6550	3.6549	-1.2012	25.45	0.26	-0.750			
0.3688	23604.10	3.6520	3.6521	-1.2216	25.44	0.25	-0.750			
0.3725	23842.08	3.6490	3.6489	-1.2408	25.43	0.24	-0.750			
0.3763	24083.29	3.6460	3.6460	-1.2615	25.43	0.24	-0.750			
0.3801	24323.75	3.6430	3.6430	-1.2890	25.42	0.23	-0.750			
0.3839	24572.09	3.6400	3.6400	-1.3057	25.42	0.23	-0.750			
0.3879	24827.27	3.6370	3.6369	-1.3337	25.41	0.22	-0.750			
0.3919	25083.25	3.6340	3.6339	-1.3662	25.40	0.21	-0.750			
0.3961	25351.33	3.6310	3.6310	-1.3854	25.40	0.21	-0.750			
0.4003	25620.89	3.6280	3.6279	-1.4062	25.39	0.20	-0.750			
0.4046	25891.57	3.6250	3.6250	-1.4302	25.38	0.19	-0.750			
0.4088	26165.55	3.6220	3.6219	-1.4474	25.38	0.19	-0.750			
0.4132	26446.45	3.6190	3.6190	-1.4952	25.38	0.19	-0.750			
0.4178	26736.34	3.6160	3.6159	-1.5161	25.38	0.19	-0.750			
0.4224	27031.14	3.6130	3.6129	-1.5435	25.38	0.19	-0.750			
0.4271	27335.33	3.6100	3.6093	-1.5820	25.37	0.18	-0.750	0.401	0.583	
0.4319	27640.37	3.6070	3.6070	-1.6093	25.36	0.17	-0.750			
0.4367	27950.45	3.6040	3.6041	-1.6256	25.36	0.17	-0.750			
0.4416	28264.44	3.6010	3.6009	-1.6556	25.35	0.16	-0.750			
0.4465	28578.87	3.5980	3.5980	-1.6935	25.35	0.16	-0.750			
0.4517	28909.45	3.5950	3.5951	-1.7481	25.35	0.16	-0.750			
0.4571	29251.76	3.5920	3.5919	-1.7764	25.35	0.16	-0.750			
0.4625	29600.38	3.5890	3.5890	-1.8181	25.35	0.16	-0.750			
0.4680	29954.82	3.5860	3.5860	-1.8430	25.34	0.15	-0.750			
0.4736	30310.87	3.5830	3.5830	-1.8895	25.34	0.15	-0.750			
0.4793	30673.53	3.5800	3.5801	-1.9150	25.34	0.15	-0.750			
0.4850	31043.03	3.5770	3.5767	-1.9358	25.34	0.15	-0.750			
0.4909	31419.03	3.5740	3.5741	-1.9738	25.33	0.14	-0.750			
0.4970	31808.55	3.5710	3.5710	-2.0052	25.33	0.14	-0.750			
0.5031	32196.93	3.5680	3.5678	-2.0240	25.32	0.13	-0.750			
0.5091	32585.56	3.5650	3.5650	-2.0264	25.32	0.13	-0.750			
0.5153	32976.22	3.5620	3.5621	-2.0334	25.32	0.13	-0.750			
0.5214	33368.91	3.5590	3.5591	-2.0419	25.32	0.13	-0.750			
0.5275	33758.63	3.5560	3.5561	-2.0469	25.33	0.14	-0.750			
0.5336	34149.69	3.5530	3.5529	-2.0648	25.33	0.14	-0.750			
0.5399	34553.22	3.5500	3.5499	-2.0790	25.32	0.13	-0.750			
0.5461	34953.57	3.5470	3.5471	-2.0836	25.32	0.13	-0.750			
0.5525	35359.13	3.5440	3.5439	-2.0883	25.33	0.14	-0.750			
0.5588	35760.87	3.5410	3.5410	-2.0632	25.34	0.15	-0.750			
0.5649	36155.91	3.5380	3.5380	-2.0329	25.34	0.15	-0.750			
0.5710	36542.72	3.5350	3.5350	-2.0063	25.34	0.15	-0.750			
0.5769	36922.55	3.5320	3.5320	-1.9852	25.35	0.16	-0.750			
0.5829	37306.01	3.5290	3.5291	-1.9614	25.35	0.16	-0.750			
0.5888	37680.28	3.5260	3.5258	-1.9221	25.36	0.17	-0.750			
0.5945	38049.03	3.5230	3.5229	-1.8972	25.36	0.17	-0.750			
0.6002	38409.95	3.5200	3.5199	-1.8733	25.37	0.18	-0.750			
0.6057	38764.86	3.5170	3.5170	-1.8418	25.38	0.19	-0.750			
0.6112	39119.93	3.5140	3.5139	-1.8077	25.39	0.20	-0.750			
0.6166	39464.88	3.5110	3.5109	-1.7654	25.40	0.21	-0.750			
0.6220	39806.88	3.5080	3.5082	-1.7311	25.40	0.21	-0.750			
0.6271	40135.76	3.5050	3.5050	-1.6780	25.41	0.22	-0.750			
0.6320	40450.57	3.5020	3.5022	-1.6265	25.42	0.23	-0.750			
0.6368	40754.86	3.4990	3.4990	-1.5712	25.43	0.24	-0.750			
0.6414	41051.66	3.4960	3.4960	-1.5313	25.44	0.25	-0.750			
0.6460	41342.33	3.4930	3.4931	-1.4887	25.46	0.27	-0.750			
0.6504	41628.41	3.4900	3.4900	-1.4538	25.47	0.28	-0.750			
0.6547	41899.45	3.4870	3.4870	-1.4106	25.48	0.29	-0.750			
0.6589	42168.17	3.4840	3.4840	-1.3640	25.50	0.31	-0.750			
0.6629	42426.19	3.4810	3.4810	-1.3216	25.51	0.32	-0.750			
0.6668	42676.67	3.4780	3.4779	-1.2793	25.53	0.34	-0.750			
0.6706	42916.41	3.4750	3.4751	-1.2357	25.54	0.35	-0.750			
0.6742	43151.78	3.4720	3.4720	-1.1963	25.56	0.37	-0.750			
0.6778	43376.03	3.4690	3.4689	-1.1551	25.57	0.38	-0.750			
0.6811	43591.41	3.4660	3.4661	-1.1126	25.58	0.39	-0.750			
0.6844	43804.76	3.4630	3.4630	-1.0860	25.59	0.40	-0.750			
0.6876	44009.05	3.4600	3.4599	-1.0486	25.60	0.41	-0.750			
0.6907	44206.12	3.4570	3.4570	-1.0183	25.61	0.42	-0.750			
0.6937	44396.95	3.4540	3.4540	-0.9865	25.62	0.43	-0.750			
0.6966	44583.34	3.4510	3.4509	-0.9698	25.63	0.44	-0.750			
0.6995	44767.65	3.4480	3.4479	-0.9422	25.64	0.45	-0.750			
0.7023	44945.24	3.4450	3.4450	-0.9181	25.65	0.46	-0.750			
0.7050	45118.55	3.4420	3.4420	-0.9032	25.65	0.46	-0.750			
0.7077	45290.95	3.4390	3.4390	-0.8888	25.66	0.47	-0.750			
0.7103	45458.73	3.4360	3.4359	-0.8772	25.67	0.48	-0.750			
0.7129	45624.16	3.4330	3.4330	-0.8712	25.68	0.49	-0.750			
0.7155	45789.37	3.4300	3.4300	-0.8649	25.69	0.50	-0.750			
0.7181	45957.42	3.4270	3.4269	-0.8705	25.71	0.52	-0.750			
0.7207	46123.57	3.4240	3.4241	-0.8694	25.71	0.52	-0.750			
0.7233	46290.18	3.4210	3.4210	-0.8710	25.72	0.53	-0.750			
0.7259	46458.51	3.4180	3.4180	-0.8741	25.73	0.54	-0.750			
0.7285	46626.36	3.4150	3.4150	-0.8754	25.74	0.55	-0.750			
0.7312	46794.85	3.4120	3.4120	-0.8776	25.75	0.56	-0.750			
0.7338	46964.86	3.4090	3.4089	-0.8796	25.76	0.57	-0.750			
0.7365	47133.55	3.4060	3.4061	-0.8756	25.76	0.57	-0.750			
0.7391	47301.96	3.4030	3.4029	-0.8703	25.77	0.58	-0.750			
0.7417	47468.47	3.4000	3.4000	-0.8651	25.78	0.59	-0.750			
0.7443	47637.15	3.3970	3.3971	-0.8517	25.79	0.60	-0.750			
0.7469	47799.59	3.3940	3.3940	-0.8344	25.80	0.61	-0.750			
0.7494	47959.47	3.3910	3.3910	-0.8181	25.80	0.61	-0.750			
0.7518	48115.18	3.3880	3.3880	-0.7957	25.81	0.62	-0.750			
0.7542	48265.75	3.3850	3.3849	-0.7730	25.81	0.62	-0.750			
0.7564	48411.64	3.3820	3.3820	-0.7484	25.82	0.63	-0.750			
0.7586	48551.86	3.3790	3.3791	-0.7271	25.83	0.64	-0.750			
0.7608	48690.67	3.3760	3.3759	-0.7092	25.83	0.64	-0.750			
0.7629	48823.63	3.3730	3.3730	-0.6897	25.84	0.65	-0.750			
0.7649	48954.15	3.3700	3.3700	-0.6721	25.85	0.66	-0.750			
0.7669	49083.04	3.3670	3.3670	-0.6520	25.85	0.66	-0.750			
0.7688	49206.04	3.3640	3.3640	-0.6323	25.86	0.67	-0.750			
0.7707	49326.17	3.3610	3.3610	-0.6106	25.87	0.68	-0.750			
0.7725	49440.37	3.3580	3.3579	-0.5887	25.87	0.68	-0.750			
0.7742	49550.71	3.3550	3.3550	-0.5684	25.88	0.69	-0.750			
0.7759	49656.83	3.3520	3.3520	-0.5499	25.89	0.70	-0.750			
0.7775	49760.83	3.3490	3.3490	-0.5355	25.89	0.70	-0.750			
0.7791	49862.68	3.3460	3.3460	-0.5210	25.90	0.71	-0.750			
0.7806	49960.16	3.3430	3.3430	-0.5034	25.91	0.72	-0.750			
0.7821	50056.17	3.3400	3.3400	-0.4906	25.91	0.72	-0.750			
0.7836	50148.22	3.3370	3.3370	-0.4767	25.92	0.73	-0.750			
0.7850	50239.01	3.3340	3.3340	-0.4618	25.92	0.73	-0.750			
0.7863	50325.83	3.3310	3.3310	-0.4464	25.92	0.73	-0.750			
0.7877	50409.85	3.3280	3.3280	-0.4328	25.93	0.74	-0.750			
0.7889	50491.62	3.3250	3.3250	-0.4216	25.93	0.74	-0.750			
0.7902	50571.21	3.3220	3.3220	-0.4097	25.94	0.75	-0.750			
0.7914	50648.34	3.3190	3.3188	-0.3978	25.94	0.75	-0.750			
0.7926	50723.39	3.3160	3.3161	-0.3869	25.94	0.75	-0.750			
0.7937	50797.80	3.3130	3.3130	-0.3775	25.95	0.76	-0.750			
0.7948	50868.96	3.3100	3.3100	-0.3672	25.95	0.76	-0.750			
0.7959	50938.20	3.3070	3.3070	-0.3575	25.96	0.77	-0.750			
0.7970	51005.00	3.3040	3.3040	-0.3459	25.96	0.77	-0.750			
0.7980	51070.50	3.3010	3.3009	-0.3380	25.97	0.78	-0.750			
0.7990	51134.78	3.2980	3.2980	-0.3300	25.97	0.78	-0.750			
0.8000	51196.95	3.2950	3.2951	-0.3226	25.98	0.79	-0.750			
0.8009	51257.92	3.2920	3.2920	-0.3171	25.98	0.79	-0.750			
0.8018	51318.13	3.2890	3.2890	-0.3099	25.99	0.80	-0.750			
0.8028	51377.58	3.2860	3.2860	-0.3035	25.99	0.80	-0.750			
0.8037	51435.29	3.2830	3.2830	-0.2986	26.00	0.81	-0.750			
0.8046	51491.83	3.2800	3.2800	-0.2919	26.00	0.81	-0.750			
0.8054	51547.25	3.2770	3.2770	-0.2855	26.00	0.81	-0.750			
0.8063	51600.89	3.2740	3.2740	-0.2797	26.01	0.82	-0.750			
0.8071	51653.99	3.2710	3.2711	-0.2741	26.01	0.82	-0.750			
0.8079	51706.35	3.2680	3.2680	-0.2710	26.02	0.83	-0.750			
0.8087	51758.02	3.2650	3.2650	-0.2667	26.02	0.83	-0.750			
0.8095	51808.64	3.2620	3.2620	-0.2605	26.03	0.84	-0.750			
0.8103	51858.55	3.2590	3.2589	-0.2568	26.04	0.85	-0.750			
0.8111	51907.30	3.2560	3.2561	-0.2526	26.04	0.85	-0.750			
0.8118	51954.88	3.2530	3.2530	-0.2482	26.05	0.86	-0.750			
0.8125	52001.98	3.2500	3.2500	-0.2443	26.05	0.86	-0.750			
0.8133	52048.67	3.2470	3.2469	-0.2403	26.06	0.87	-0.750			
0.8140	52094.06	3.2440	3.2441	-0.2365	26.06	0.87	-0.750			
0.8147	52139.39	3.2410	3.2410	-0.2339	26.07	0.88	-0.750			
0.8154	52184.38	3.2380	3.2381	-0.2312	26.07	0.88	-0.750			
0.8161	52228.17	3.2350	3.2349	-0.2273	26.08	0.89	-0.750			
0.8167	52271.05	3.2320	3.2320	-0.2246	26.08	0.89	-0.750			
0.8174	52314.08	3.2290	3.2290	-0.2216	26.09	0.90	-0.750			
0.8181	52356.40	3.2260	3.2260	-0.2192	26.09	0.90	-0.750			
0.8187	52398.57	3.2230	3.2229	-0.2167	26.10	0.91	-0.750			
0.8194	52439.78	3.2200	3.2201	-0.2134	26.10	0.91	-0.750			
0.8200	52480.48	3.2170	3.2170	-0.2103	26.11	0.92	-0.750			
0.8206	52520.70	3.2140	3.2140	-0.2073	26.11	0.92	-0.750			
0.8213	52560.12	3.2110	3.2110	-0.2046	26.12	0.93	-0.750			
0.8219	52598.77	3.2080	3.2080	-0.2013	26.12	0.93	-0.750			
0.8225	52637.35	3.2050	3.2050	-0.1994	26.13	0.94	-0.750			
0.8231	52675.40	3.2020	3.2020	-0.1969	26.13	0.94	-0.750			
0.8236	52712.72	3.1990	3.1991	-0.1952	26.14	0.95	-0.750			
0.8242	52749.94	3.1960	3.1960	-0.1935	26.14	0.95	-0.750			
0.8248	52787.21	3.1930	3.1930	-0.1916	26.15	0.96	-0.750			
0.8254	52823.79	3.1900	3.1899	-0.1895	26.15	0.96	-0.750			
0.8259	52859.97	3.1870	3.1870	-0.1876	26.16	0.97	-0.750			
0.8265	52896.13	3.1840	3.1840	-0.1853	26.16	0.97	-0.750			
0.8270	52931.07	3.1810	3.1810	-0.1834	26.17	0.98	-0.750			
0.8276	52966.09	3.1780	3.1780	-0.1814	26.17	0.98	-0.750			
0.8281	53000.57	3.1750	3.1750	-0.1786	26.18	0.99	-0.750			
0.8287	53034.46	3.1720	3.1719	-0.1773	26.18	0.99	-0.750			
0.8292	53068.69	3.1690	3.1690	-0.1758	26.19	1.00	-0.750			
0.8297	53102.30	3.1660	3.1662	-0.1737	26.19	1.00	-0.750			
0.8302	53135.43	3.1630	3.1629	-0.1715	26.20	1.01	-0.750			
0.8308	53168.29	3.1600	3.1600	-0.1705	26.20	1.01	-0.750			
0.8313	53200.51	3.1570	3.1570	-0.1677	26.21	1.02	-0.750			
0.8318	53232.53	3.1540	3.1540	-0.1665	26.21	1.02	-0.750			
0.8323	53264.57	3.1510	3.1510	-0.1653	26.22	1.03	-0.750			
0.8327	53295.85	3.1480	3.1480	-0.1636	26.22	1.03	-0.750			
0.8332	53327.38	3.1450	3.1450	-0.1627	26.23	1.04	-0.750			
0.8337	53358.56	3.1420	3.1420	-0.1612	26.23	1.04	-0.750			
0.8342	53389.37	3.1390	3.1390	-0.1597	26.24	1.05	-0.750			
0.8347	53419.78	3.1360	3.1360	-0.1581	26.25	1.06	-0.750			
0.8352	53450.21	3.1330	3.1330	-0.1567	26.25	1.06	-0.750			
0.8356	53480.04	3.1300	3.1299	-0.1548	26.26	1.07	-0.750			
0.8361	53509.60	3.1270	3.1270	-0.1531	26.26	1.07	-0.750			
0.8365	53538.80	3.1240	3.1240	-0.1518	26.27	1.08	-0.750			
0.8370	53567.64	3.1210	3.1210	-0.1506	26.27	1.08	-0.750			
0.8374	53596.45	3.1180	3.1180	-0.1495	26.28	1.09	-0.750			
0.8379	53625.06	3.1150	3.1150	-0.1485	26.29	1.10	-0.750			
0.8383	53653.38	3.1120	3.1120	-0.1476	26.29	1.10	-0.750			
0.8388	53681.92	3.1090	3.1090	-0.1460	26.30	1.11	-0.750			
0.8392	53709.94	3.1060	3.1061	-0.1448	26.30	1.11	-0.750			
0.8396	53737.56	3.1030	3.1029	-0.1429	26.31	1.12	-0.750			
0.8401	53764.73	3.1000	3.1001	-0.1419	26.31	1.12	-0.750			
0.8405	53791.65	3.0970	3.0970	-0.1406	26.32	1.13	-0.750			
0.8409	53818.50	3.0940	3.0939	-0.1394	26.32	1.13	-0.750			
0.8413	53845.20	3.0910	3.0910	-0.1386	26.32	1.13	-0.750			
0.8417	53871.66	3.0880	3.0881	-0.1375	26.33	1.14	-0.750			
0.8422	53898.31	3.0850	3.0850	-0.1367	26.33	1.14	-0.750			
0.8426	53924.35	3.0820	3.0820	-0.1355	26.33	1.14	-0.750			
0.8430	53950.23	3.0790	3.0791	-0.1341	26.34	1.15	-0.750			
0.8434	53975.74	3.0760	3.0760	-0.1328	26.34	1.15	-0.750			
0.8438	54001.05	3.0730	3.0730	-0.1319	26.35	1.16	-0.750			
0.8442	54026.32	3.0700	3.0700	-0.1309	26.35	1.16	-0.750			
0.8446	54051.38	3.0670	3.0670	-0.1300	26.35	1.16	-0.750			
0.8449	54076.20	3.0640	3.0640	-0.1295	26.36	1.17	-0.750			
0.8453	54100.94	3.0610	3.0610	-0.1289	26.37	1.18	-0.750			
0.8457	54125.55	3.0580	3.0581	-0.1282	26.37	1.18	-0.750			
0.8461	54150.25	3.0550	3.0549	-0.1273	26.38	1.19	-0.750			
0.8465	54174.75	3.0520	3.0520	-0.1267	26.38	1.19	-0.750			
0.8469	54199.07	3.0490	3.0490	-0.1257	26.39	1.20	-0.750			
0.8472	54223.28	3.0460	3.0460	-0.1249	26.40	1.21	-0.750			
0.8476	54246.99	3.0430	3.0430	-0.1238	26.40	1.21	-0.750			
0.8480	54270.53	3.0400	3.0400	-0.1225	26.41	1.22	-0.750			
0.8483	54293.93	3.0370	3.0370	-0.1217	26.41	1.22	-0.750			
0.8487	54317.05	3.0340	3.0340	-0.1207	26.42	1.23	-0.750			
0.8491	54340.19	3.0310	3.0310	-0.1198	26.42	1.23	-0.750			
0.8494	54363.21	3.0280	3.0280	-0.1191	26.43	1.24	-0.750			
0.8498	54385.96	3.0250	3.0251	-0.1185	26.44	1.25	-0.750			
0.8501	54408.64	3.0220	3.0220	-0.1178	26.44	1.25	-0.750			
0.8505	54431.32	3.0190	3.0190	-0.1163	26.45	1.26	-0.750			
0.8508	54453.63	3.0160	3.0160	-0.1152	26.45	1.26	-0.750			
0.8512	54475.55	3.0130	3.0131	-0.1145	26.46	1.27	-0.750			
0.8515	54497.47	3.0100	3.0101	-0.1135	26.46	1.27	-0.750			
0.8519	54519.16	3.0070	3.0069	-0.1125	26.47	1.28	-0.751			
0.8522	54540.64	3.0040	3.0039	-0.1116	26.47	1.28	-0.751			
0.8525	54561.98	3.0010	3.0010	-0.1107	26.48	1.29	-0.751			
