Ah_balance (normalized)	Ah_balance (mAh)	Voltage - fit (V)	Voltage -  interpolate (V)	dQ/dV (1/V)	Temperature (°C)	Temperature - diff (°C)	Current (C)	R_DC 0ms (mOhm)	R_DC 50ms (mOhm)	R_DC 50 ms PEC (mOhm)
0.0526	3365.55	4.1970	4.1969	0.7821	26.76	0.79	0.750			
0.0549	3516.40	4.1940	4.1940	0.7785	26.76	0.79	0.750			
0.0573	3666.17	4.1910	4.1910	0.7646	26.75	0.78	0.750			
0.0595	3807.82	4.1880	4.1881	0.7639	26.75	0.78	0.750			
0.0618	3954.45	4.1850	4.1850	0.7636	26.74	0.77	0.750			
0.0640	4098.47	4.1820	4.1818	0.7639	26.74	0.77	0.750			
0.0663	4244.76	4.1790	4.1790	0.7710	26.74	0.77	0.750			
0.0687	4396.60	4.1760	4.1761	0.7705	26.74	0.77	0.750			
0.0710	4545.77	4.1730	4.1730	0.7698	26.74	0.77	0.750			
0.0733	4692.89	4.1700	4.1700	0.7690	26.74	0.77	0.750			
0.0756	4839.77	4.1670	4.1671	0.7683	26.74	0.77	0.750			
0.0779	4986.68	4.1640	4.1642	0.7723	26.74	0.77	0.750			
0.0802	5134.53	4.1610	4.1610	0.7739	26.74	0.77	0.750			
0.0826	5284.19	4.1580	4.1581	0.7745	26.74	0.77	0.750			
0.0849	5435.65	4.1550	4.1551	0.7804	26.74	0.77	0.750			
0.0873	5585.62	4.1520	4.1520	0.7767	26.74	0.77	0.750			
0.0896	5733.40	4.1490	4.1487	0.7777	26.74	0.77	0.750			
0.0919	5880.97	4.1460	4.1462	0.7843	26.74	0.77	0.750			
0.0942	6031.94	4.1430	4.1429	0.7866	26.74	0.77	0.750			
0.0967	6185.71	4.1400	4.1399	0.7947	26.73	0.76	0.750			
0.0990	6337.92	4.1370	4.1370	0.7940	26.73	0.76	0.750			
0.1014	6492.31	4.1340	4.1340	0.7946	26.73	0.76	0.750			
0.1038	6646.34	4.1310	4.1310	0.7964	26.73	0.76	0.750			
0.1062	6799.26	4.1280	4.1280	0.7855	26.73	0.76	0.750			
0.1086	6949.16	4.1250	4.1248	0.7811	26.72	0.75	0.750			
0.1109	7097.07	4.1220	4.1222	0.7813	26.72	0.75	0.750			
0.1132	7246.32	4.1190	4.1192	0.7868	26.72	0.75	0.750			
0.1156	7397.84	4.1160	4.1160	0.7875	26.72	0.75	0.750			
0.1180	7550.83	4.1130	4.1130	0.7893	26.72	0.75	0.750			
0.1203	7701.71	4.1100	4.1101	0.7858	26.72	0.75	0.750			
0.1227	7852.23	4.1070	4.1070	0.7921	26.72	0.75	0.750			
0.1251	8003.44	4.1040	4.1040	0.7925	26.72	0.75	0.750			
0.1274	8155.06	4.1010	4.1007	0.7961	26.72	0.75	0.750			
0.1298	8307.48	4.0980	4.0980	0.7990	26.72	0.75	0.750			
0.1322	8462.24	4.0950	4.0951	0.8076	26.72	0.75	0.750			
0.1347	8620.06	4.0920	4.0919	0.8122	26.73	0.76	0.750			
0.1371	8775.14	4.0890	4.0890	0.8100	26.73	0.76	0.750			
0.1395	8931.14	4.0860	4.0859	0.8140	26.73	0.76	0.750			
0.1420	9087.80	4.0830	4.0831	0.8139	26.73	0.76	0.750			
0.1445	9246.71	4.0800	4.0800	0.8021	26.73	0.76	0.750			
0.1468	9398.20	4.0770	4.0771	0.8127	26.73	0.76	0.750			
0.1493	9553.30	4.0740	4.0739	0.8139	26.73	0.76	0.750			
0.1517	9708.89	4.0710	4.0708	0.8175	26.73	0.76	0.750			
0.1542	9865.82	4.0680	4.0681	0.8220	26.73	0.76	0.750			
0.1566	10024.87	4.0650	4.0651	0.8263	26.73	0.76	0.750			
0.1591	10185.28	4.0620	4.0620	0.8325	26.72	0.75	0.750			
0.1616	10343.80	4.0590	4.0591	0.8310	26.72	0.75	0.750			
0.1642	10505.91	4.0560	4.0559	0.8323	26.72	0.75	0.750			
0.1667	10665.85	4.0530	4.0530	0.8392	26.72	0.75	0.750			
0.1692	10827.36	4.0500	4.0501	0.8403	26.72	0.75	0.750			
0.1717	10989.10	4.0470	4.0470	0.8430	26.72	0.75	0.750			
0.1742	11150.39	4.0440	4.0439	0.8413	26.72	0.75	0.750			
0.1767	11311.70	4.0410	4.0409	0.8498	26.72	0.75	0.750			
0.1793	11475.26	4.0380	4.0381	0.8518	26.72	0.75	0.750			
0.1819	11641.73	4.0350	4.0349	0.8508	26.72	0.75	0.750			
0.1844	11803.14	4.0320	4.0320	0.8507	26.72	0.75	0.750			
0.1870	11965.89	4.0290	4.0292	0.8532	26.72	0.75	0.750			
0.1895	12130.49	4.0260	4.0256	0.8585	26.72	0.75	0.750			
0.1921	12294.83	4.0230	4.0230	0.8626	26.72	0.75	0.750			
0.1947	12460.52	4.0200	4.0201	0.8623	26.72	0.75	0.750			
0.1973	12628.43	4.0170	4.0170	0.8717	26.72	0.75	0.750			
0.1999	12794.09	4.0140	4.0141	0.8713	26.72	0.75	0.750			
0.2025	12963.11	4.0110	4.0111	0.8752	26.72	0.75	0.750			
0.2052	13131.60	4.0080	4.0080	0.8774	26.72	0.75	0.750			
0.2078	13301.04	4.0050	4.0050	0.8814	26.72	0.75	0.750			
0.2105	13470.87	4.0020	4.0020	0.8869	26.72	0.75	0.750			
0.2131	13640.73	3.9990	3.9990	0.8880	26.72	0.75	0.750			
0.2158	13812.56	3.9960	3.9960	0.8888	26.72	0.75	0.750			
0.2185	13985.40	3.9930	3.9930	0.8800	26.72	0.75	0.750			
0.2212	14153.67	3.9900	3.9900	0.8863	26.71	0.74	0.750			
0.2238	14323.05	3.9870	3.9870	0.8870	26.71	0.74	0.750			
0.2264	14492.45	3.9840	3.9838	0.8858	26.71	0.74	0.750			
0.2291	14661.49	3.9810	3.9811	0.8901	26.71	0.74	0.750			
0.2318	14832.51	3.9780	3.9781	0.8925	26.71	0.74	0.750			
0.2345	15005.60	3.9750	3.9751	0.8991	26.72	0.75	0.750			
0.2372	15180.04	3.9720	3.9720	0.9077	26.72	0.75	0.750			
0.2399	15351.64	3.9690	3.9688	0.9095	26.72	0.75	0.750			
0.2426	15528.69	3.9660	3.9660	0.9090	26.72	0.75	0.750			
0.2454	15704.11	3.9630	3.9629	0.9125	26.72	0.75	0.750			
0.2481	15880.17	3.9600	3.9601	0.9148	26.72	0.75	0.750			
0.2509	16055.69	3.9570	3.9571	0.9133	26.72	0.75	0.750			
0.2536	16231.25	3.9540	3.9540	0.9158	26.72	0.75	0.750			
0.2563	16405.90	3.9510	3.9510	0.9134	26.72	0.75	0.750			
0.2591	16582.19	3.9480	3.9481	0.9136	26.72	0.75	0.750			
0.2619	16759.68	3.9450	3.9450	0.9218	26.72	0.75	0.750			
0.2646	16934.80	3.9420	3.9419	0.9180	26.72	0.75	0.750			
0.2674	17112.66	3.9390	3.9390	0.9133	26.72	0.75	0.750			
0.2701	17286.88	3.9360	3.9361	0.9201	26.72	0.75	0.750			
0.2729	17463.66	3.9330	3.9330	0.9257	26.72	0.75	0.750			
0.2757	17642.35	3.9300	3.9301	0.9297	26.72	0.75	0.750			
0.2785	17821.07	3.9270	3.9270	0.9310	26.72	0.75	0.750			
0.2812	17999.47	3.9240	3.9240	0.9256	26.71	0.74	0.750			
0.2840	18178.29	3.9210	3.9210	0.9286	26.71	0.74	0.750			
0.2868	18356.47	3.9180	3.9181	0.9294	26.70	0.73	0.750			
0.2896	18533.65	3.9150	3.9147	0.9235	26.70	0.73	0.750			
0.2924	18714.78	3.9120	3.9120	0.9079	26.70	0.73	0.750			
0.2951	18884.39	3.9090	3.9092	0.9257	26.70	0.73	0.750			
0.2978	19060.94	3.9060	3.9061	0.9370	26.70	0.73	0.750			
0.3007	19242.74	3.9030	3.9027	0.9464	26.70	0.73	0.750			
0.3035	19425.79	3.9000	3.9002	0.9449	26.70	0.73	0.750			
0.3064	19608.94	3.8970	3.8973	0.9511	26.69	0.72	0.750			
0.3093	19797.31	3.8940	3.8940	0.9575	26.69	0.72	0.750			
0.3122	19980.14	3.8910	3.8910	0.9596	26.68	0.71	0.750			
0.3149	20156.30	3.8880	3.8879	0.9430	26.68	0.71	0.750			
0.3178	20339.94	3.8850	3.8851	0.9493	26.67	0.70	0.750			
0.3207	20523.44	3.8820	3.8820	0.9605	26.67	0.70	0.750			
0.3236	20708.49	3.8790	3.8791	0.9704	26.66	0.69	0.750			
0.3265	20895.48	3.8760	3.8759	0.9784	26.65	0.68	0.750			
0.3295	21087.66	3.8730	3.8730	0.9794	26.64	0.67	0.750			
0.3324	21273.85	3.8700	3.8701	0.9866	26.64	0.67	0.750			
0.3354	21465.39	3.8670	3.8670	0.9937	26.63	0.66	0.750			
0.3384	21655.85	3.8640	3.8641	1.0032	26.62	0.65	0.750			
0.3414	21846.65	3.8610	3.8611	1.0027	26.61	0.64	0.750			
0.3444	22039.92	3.8580	3.8580	1.0114	26.61	0.64	0.750			
0.3474	22235.05	3.8550	3.8550	1.0219	26.60	0.63	0.750			
0.3506	22435.71	3.8520	3.8520	1.0363	26.59	0.62	0.750			
0.3536	22630.58	3.8490	3.8491	1.0320	26.58	0.61	0.750			
0.3567	22831.28	3.8460	3.8460	1.0457	26.57	0.60	0.750			
0.3599	23031.80	3.8430	3.8430	1.0529	26.57	0.60	0.750			
0.3631	23236.30	3.8400	3.8399	1.0612	26.56	0.59	0.750			
0.3663	23443.37	3.8370	3.8370	1.0515	26.55	0.58	0.750			
0.3695	23645.13	3.8340	3.8341	1.0553	26.54	0.57	0.750			
0.3726	23844.62	3.8310	3.8311	1.0676	26.53	0.56	0.750			
0.3757	24046.64	3.8280	3.8281	1.0774	26.52	0.55	0.750			
0.3790	24256.13	3.8250	3.8249	1.0809	26.51	0.54	0.750			
0.3823	24464.80	3.8220	3.8221	1.0908	26.50	0.53	0.750			
0.3856	24678.47	3.8190	3.8191	1.0942	26.49	0.52	0.750			
0.3890	24894.67	3.8160	3.8160	1.1020	26.48	0.51	0.750			
0.3922	25100.12	3.8130	3.8130	1.0873	26.47	0.50	0.750			
0.3954	25304.60	3.8100	3.8100	1.0922	26.46	0.49	0.750			
0.3986	25512.88	3.8070	3.8071	1.1002	26.45	0.48	0.750			
0.4020	25731.03	3.8040	3.8037	1.1093	26.44	0.47	0.750			
0.4054	25943.07	3.8010	3.8011	1.1196	26.43	0.46	0.750			
0.4087	26159.54	3.7980	3.7981	1.1318	26.42	0.45	0.750			
0.4122	26378.21	3.7950	3.7951	1.1392	26.41	0.44	0.750			
0.4156	26597.75	3.7920	3.7919	1.1319	26.40	0.43	0.750			
0.4190	26813.19	3.7890	3.7891	1.1496	26.39	0.42	0.750			
0.4224	27032.93	3.7860	3.7861	1.1688	26.38	0.41	0.750			
0.4259	27260.45	3.7830	3.7829	1.1861	26.37	0.40	0.750			
0.4295	27489.37	3.7800	3.7800	1.1996	26.36	0.39	0.750			
0.4331	27718.20	3.7770	3.7772	1.2287	26.35	0.38	0.750			
0.4369	27960.38	3.7740	3.7741	1.2622	26.33	0.36	0.750			
0.4407	28202.35	3.7710	3.7712	1.2956	26.32	0.35	0.750			
0.4447	28459.35	3.7680	3.7676	1.3229	26.30	0.33	0.750			
0.4487	28718.06	3.7650	3.7653	1.3545	26.29	0.32	0.750			
0.4528	28981.61	3.7620	3.7618	1.3908	26.28	0.31	0.750	0.316	0.412	
0.4571	29254.26	3.7590	3.7592	1.4109	26.26	0.29	0.750			
0.4613	29522.95	3.7560	3.7560	1.4112	26.25	0.28	0.750			
0.4656	29795.70	3.7530	3.7530	1.4600	26.24	0.27	0.750			
0.4700	30078.54	3.7500	3.7501	1.4810	26.22	0.25	0.750			
0.4746	30373.77	3.7470	3.7471	1.5182	26.20	0.23	0.750			
0.4791	30661.48	3.7440	3.7443	1.5433	26.18	0.21	0.750			
0.4838	30962.84	3.7410	3.7409	1.5665	26.17	0.20	0.750			
0.4886	31267.71	3.7380	3.7379	1.6064	26.15	0.18	0.750			
0.4934	31576.79	3.7350	3.7349	1.6463	26.14	0.17	0.750			
0.4984	31896.18	3.7320	3.7320	1.6898	26.12	0.15	0.750			
0.5036	32228.42	3.7290	3.7289	1.7492	26.11	0.14	0.750			
0.5089	32571.05	3.7260	3.7263	1.7985	26.09	0.12	0.750			
0.5144	32918.79	3.7230	3.7229	1.8364	26.07	0.10	0.750			
0.5199	33276.62	3.7200	3.7201	1.9032	26.06	0.09	0.750			
0.5257	33642.35	3.7170	3.7169	1.9423	26.04	0.07	0.750			
0.5317	34026.47	3.7140	3.7139	2.0120	26.03	0.06	0.750			
0.5377	34409.97	3.7110	3.7111	2.0694	26.01	0.04	0.750			
0.5441	34821.80	3.7080	3.7081	2.1089	25.99	0.02	0.750			
0.5506	35238.66	3.7050	3.7050	2.1569	25.97	-0.00	0.750			
0.5571	35657.21	3.7020	3.7018	2.2104	25.95	-0.02	0.750			
0.5638	36080.45	3.6990	3.6989	2.2595	25.93	-0.04	0.750			
0.5706	36516.10	3.6960	3.6959	2.3448	25.92	-0.05	0.750			
0.5777	36973.49	3.6930	3.6930	2.4595	25.90	-0.07	0.750			
0.5853	37459.30	3.6900	3.6899	2.5501	25.88	-0.09	0.750			
0.5930	37955.02	3.6870	3.6870	2.5992	25.86	-0.11	0.750			
0.6010	38460.85	3.6840	3.6840	2.6884	25.85	-0.12	0.750			
0.6090	38978.39	3.6810	3.6810	2.7934	25.83	-0.14	0.750			
0.6175	39519.33	3.6780	3.6781	2.8955	25.81	-0.16	0.750			
0.6265	40096.91	3.6750	3.6751	2.9970	25.79	-0.18	0.750			
0.6357	40685.76	3.6720	3.6721	3.0659	25.78	-0.19	0.750			
0.6450	41280.68	3.6690	3.6690	3.0566	25.78	-0.19	0.750			
0.6542	41871.30	3.6660	3.6660	3.0240	25.77	-0.20	0.750			
0.6634	42458.68	3.6630	3.6630	2.8508	25.76	-0.21	0.750			
0.6718	42992.86	3.6600	3.6600	2.6117	25.77	-0.20	0.750			
0.6789	43451.93	3.6570	3.6572	2.3254	25.77	-0.20	0.750			
0.6855	43874.27	3.6540	3.6541	2.0737	25.76	-0.21	0.750			
0.6912	44234.97	3.6510	3.6512	1.8983	25.76	-0.21	0.750			
0.6965	44573.09	3.6480	3.6480	1.7323	25.77	-0.20	0.750			
0.7015	44894.01	3.6450	3.6447	1.5949	25.77	-0.20	0.750			
0.7059	45179.20	3.6420	3.6423	1.4691	25.77	-0.20	0.750			
0.7102	45451.52	3.6390	3.6391	1.3785	25.77	-0.20	0.750			
0.7141	45699.21	3.6360	3.6358	1.2978	25.77	-0.20	0.750			
0.7177	45929.73	3.6330	3.6331	1.2251	25.77	-0.20	0.750			
0.7213	46160.52	3.6300	3.6300	1.2103	25.77	-0.20	0.750			
0.7249	46390.95	3.6270	3.6271	1.2048	25.77	-0.20	0.750			
0.7284	46619.91	3.6240	3.6241	1.1986	25.77	-0.20	0.750			
0.7320	46849.90	3.6210	3.6210	1.2046	25.77	-0.20	0.750			
0.7356	47079.65	3.6180	3.6180	1.2091	25.77	-0.20	0.750			
0.7393	47317.12	3.6150	3.6148	1.2020	25.77	-0.20	0.750			
0.7429	47548.75	3.6120	3.6121	1.2014	25.77	-0.20	0.750			
0.7466	47780.75	3.6090	3.6091	1.1915	25.77	-0.20	0.750			
0.7501	48009.47	3.6060	3.6061	1.1798	25.77	-0.20	0.750			
0.7537	48234.44	3.6030	3.6031	1.1563	25.77	-0.20	0.750			
0.7570	48449.58	3.6000	3.6001	1.1501	25.77	-0.20	0.750			
0.7604	48668.07	3.5970	3.5970	1.1557	25.77	-0.20	0.750			
0.7639	48890.86	3.5940	3.5939	1.1700	25.77	-0.20	0.750			
0.7674	49112.30	3.5910	3.5910	1.1878	25.77	-0.20	0.750			
0.7710	49341.42	3.5880	3.5881	1.2286	25.76	-0.21	0.750			
0.7747	49579.91	3.5850	3.5851	1.2725	25.75	-0.22	0.750			
0.7786	49829.19	3.5820	3.5820	1.3127	25.75	-0.22	0.750			
0.7826	50084.73	3.5790	3.5790	1.3570	25.75	-0.22	0.750			
0.7868	50353.13	3.5760	3.5760	1.3946	25.76	-0.21	0.750			
0.7910	50623.11	3.5730	3.5730	1.4459	25.76	-0.21	0.750			
0.7953	50900.92	3.5700	3.5701	1.4988	25.76	-0.21	0.750			
0.8000	51201.73	3.5670	3.5669	1.4844	25.75	-0.22	0.750			
0.8045	51488.99	3.5640	3.5641	1.5076	25.75	-0.22	0.750			
0.8090	51777.58	3.5610	3.5614	1.5379	25.75	-0.22	0.750			
0.8136	52070.55	3.5580	3.5585	1.5631	25.75	-0.22	0.750			
0.8183	52369.09	3.5550	3.5551	1.5783	25.75	-0.22	0.750			
0.8231	52676.10	3.5520	3.5521	1.6161	25.75	-0.22	0.750			
0.8280	52993.57	3.5490	3.5488	1.6635	25.75	-0.22	0.750			
0.8332	53325.27	3.5460	3.5458	1.6872	25.75	-0.22	0.750			
0.8382	53645.00	3.5430	3.5432	1.6929	25.75	-0.22	0.750			
0.8433	53968.00	3.5400	3.5401	1.7253	25.75	-0.22	0.750			
0.8484	54298.37	3.5370	3.5371	1.7459	25.75	-0.22	0.750			
0.8538	54640.71	3.5340	3.5338	1.7639	25.75	-0.22	0.750			
0.8595	55009.27	3.5310	3.5305	1.6852	25.76	-0.21	0.750			
0.8649	55350.46	3.5280	3.5276	1.5590	25.77	-0.20	0.750			
0.8695	55650.45	3.5250	3.5257	1.3125	25.79	-0.18	0.750			
0.8734	55895.18	3.5220	3.5224	1.0579	25.80	-0.17	0.750			
0.8757	56047.30	3.5190	3.5189	0.7999	25.81	-0.16	0.750			
0.8775	56158.67	3.5160	3.5154	0.5827	25.82	-0.15	0.750			
0.8785	56226.40	3.5130	3.5128	0.4506	25.83	-0.14	0.750			
0.8797	56298.87	3.5100	3.5099	0.3888	25.84	-0.13	0.750			
0.8807	56363.29	3.5070	3.5070	0.3508	25.85	-0.12	0.750			
0.8817	56427.27	3.5040	3.5040	0.3304	25.85	-0.12	0.750			
0.8826	56486.61	3.5010	3.5010	0.3124	25.86	-0.11	0.750			
0.8835	56545.31	3.4980	3.4980	0.3014	25.87	-0.10	0.750			
0.8844	56601.67	3.4950	3.4950	0.2911	25.87	-0.10	0.750			
0.8853	56656.28	3.4920	3.4920	0.2824	25.88	-0.09	0.750			
0.8861	56709.50	3.4890	3.4891	0.2748	25.88	-0.09	0.750			
0.8869	56761.69	3.4860	3.4859	0.2682	25.89	-0.08	0.750			
0.8877	56811.77	3.4830	3.4831	0.2624	25.90	-0.07	0.750			
0.8885	56861.86	3.4800	3.4800	0.2582	25.90	-0.07	0.750			
0.8892	56910.98	3.4770	3.4771	0.2531	25.91	-0.06	0.750			
0.8900	56959.16	3.4740	3.4740	0.2489	25.91	-0.06	0.750			
0.8907	57006.52	3.4710	3.4712	0.2437	25.92	-0.05	0.750			
0.8915	57052.89	3.4680	3.4679	0.2387	25.92	-0.05	0.750			
0.8922	57098.35	3.4650	3.4650	0.2335	25.92	-0.05	0.750			
0.8928	57142.10	3.4620	3.4621	0.2288	25.93	-0.04	0.750			
0.8935	57185.94	3.4590	3.4590	0.2240	25.93	-0.04	0.750			
0.8942	57228.50	3.4560	3.4560	0.2193	25.93	-0.04	0.750			
0.8948	57270.28	3.4530	3.4529	0.2146	25.93	-0.04	0.750			
0.8955	57310.81	3.4500	3.4501	0.2098	25.94	-0.03	0.750			
0.8961	57350.69	3.4470	3.4470	0.2058	25.94	-0.03	0.750			
0.8967	57389.76	3.4440	3.4439	0.2013	25.94	-0.03	0.750			
0.8973	57428.04	3.4410	3.4410	0.1960	25.95	-0.02	0.750			
0.8979	57465.01	3.4380	3.4380	0.1905	25.95	-0.02	0.750			
0.8985	57501.38	3.4350	3.4351	0.1869	25.95	-0.02	0.750			
0.8990	57536.79	3.4320	3.4320	0.1818	25.95	-0.02	0.750			
0.8995	57571.14	3.4290	3.4290	0.1767	25.96	-0.01	0.750			
0.9001	57604.81	3.4260	3.4259	0.1707	25.96	-0.01	0.750			
0.9006	57637.09	3.4230	3.4231	0.1651	25.96	-0.01	0.750			
0.9011	57668.04	3.4200	3.4201	0.1611	25.96	-0.01	0.750			
0.9015	57698.73	3.4170	3.4170	0.1561	25.97	-0.00	0.750			
0.9020	57728.17	3.4140	3.4138	0.1508	25.97	-0.00	0.750			
0.9024	57756.36	3.4110	3.4111	0.1452	25.97	0.00	0.750			
0.9029	57784.10	3.4080	3.4081	0.1389	25.97	0.00	0.750			
0.9033	57810.53	3.4050	3.4050	0.1333	25.98	0.01	0.750			
0.9037	57835.97	3.4020	3.4020	0.1278	25.98	0.01	0.750			
0.9041	57859.78	3.3990	3.3989	0.1205	25.98	0.01	0.750			
0.9044	57881.84	3.3960	3.3960	0.1127	25.98	0.01	0.750			
0.9047	57903.07	3.3930	3.3930	0.1062	25.98	0.01	0.750			
0.9051	57923.77	3.3900	3.3900	0.0971	25.98	0.01	0.750			
0.9053	57941.49	3.3870	3.3870	0.0875	25.99	0.02	0.750			
0.9056	57958.23	3.3840	3.3840	0.0795	25.99	0.02	0.750			
0.9058	57972.48	3.3810	3.3812	0.0689	25.99	0.02	0.750			
0.9060	57985.15	3.3780	3.3785	0.0584	25.99	0.02	0.750			
0.9062	57995.30	3.3750	3.3759	0.0473	25.99	0.02	0.750			
0.9063	58003.30	3.3720	3.3734	0.0361	25.99	0.02	0.750			
0.9064	58009.15	3.3690	3.3708	0.0249	25.99	0.02	0.750			
