Ah_balance (normalized)	Ah_balance (mAh)	Voltage - fit (V)	Voltage -  interpolate (V)	dQ/dV (1/V)	Temperature (°C)	Temperature - diff (°C)	Current (C)	R_DC 0ms (mOhm)	R_DC 50ms (mOhm)	R_DC 50 ms PEC (mOhm)
0.0549	3510.97	4.1980	4.1980	0.7200	26.70	0.73	0.750			
0.0570	3650.83	4.1950	4.1951	0.7352	26.70	0.73	0.750			
0.0593	3794.33	4.1920	4.1920	0.7454	26.70	0.73	0.750			
0.0615	3938.13	4.1890	4.1891	0.7493	26.70	0.73	0.750			
0.0638	4083.10	4.1860	4.1860	0.7519	26.70	0.73	0.750			
0.0661	4227.53	4.1830	4.1830	0.7548	26.70	0.73	0.750			
0.0683	4372.26	4.1800	4.1800	0.7545	26.70	0.73	0.750			
0.0706	4517.58	4.1770	4.1768	0.7566	26.70	0.73	0.750			
0.0729	4662.52	4.1740	4.1741	0.7623	26.70	0.73	0.750			
0.0752	4811.02	4.1710	4.1710	0.7618	26.70	0.73	0.750			
0.0775	4956.93	4.1680	4.1680	0.7646	26.70	0.73	0.750			
0.0797	5103.99	4.1650	4.1650	0.7649	26.70	0.73	0.750			
0.0820	5250.18	4.1620	4.1620	0.7660	26.70	0.73	0.750			
0.0843	5398.33	4.1590	4.1590	0.7652	26.70	0.73	0.750			
0.0866	5545.21	4.1560	4.1560	0.7646	26.70	0.73	0.750			
0.0889	5691.09	4.1530	4.1530	0.7622	26.69	0.72	0.750			
0.0912	5838.13	4.1500	4.1500	0.7664	26.69	0.72	0.750			
0.0935	5984.40	4.1470	4.1470	0.7630	26.68	0.71	0.750			
0.0958	6131.08	4.1440	4.1437	0.7674	26.68	0.71	0.750			
0.0981	6278.44	4.1410	4.1411	0.7678	26.68	0.71	0.750			
0.1004	6427.25	4.1380	4.1380	0.7699	26.68	0.71	0.750			
0.1027	6574.59	4.1350	4.1350	0.7743	26.69	0.72	0.750			
0.1051	6723.45	4.1320	4.1320	0.7781	26.69	0.72	0.750			
0.1074	6873.04	4.1290	4.1289	0.7764	26.69	0.72	0.750			
0.1097	7022.91	4.1260	4.1260	0.7796	26.69	0.72	0.750			
0.1121	7174.59	4.1230	4.1230	0.7749	26.69	0.72	0.750			
0.1144	7323.42	4.1200	4.1201	0.7731	26.69	0.72	0.750			
0.1167	7469.96	4.1170	4.1169	0.7760	26.68	0.71	0.750			
0.1190	7617.20	4.1140	4.1141	0.7760	26.68	0.71	0.750			
0.1213	7766.04	4.1110	4.1108	0.7776	26.68	0.71	0.750			
0.1237	7916.16	4.1080	4.1080	0.7845	26.68	0.71	0.750			
0.1261	8068.00	4.1050	4.1051	0.7880	26.68	0.71	0.750			
0.1285	8221.03	4.1020	4.1020	0.7923	26.68	0.71	0.750			
0.1308	8373.22	4.0990	4.0989	0.7905	26.68	0.71	0.750			
0.1332	8524.84	4.0960	4.0959	0.7887	26.68	0.71	0.750			
0.1356	8676.29	4.0930	4.0931	0.7909	26.68	0.71	0.750			
0.1380	8829.42	4.0900	4.0900	0.7867	26.68	0.71	0.750			
0.1403	8979.25	4.0870	4.0870	0.7898	26.68	0.71	0.750			
0.1427	9130.69	4.0840	4.0840	0.7941	26.68	0.71	0.750			
0.1450	9282.15	4.0810	4.0810	0.7977	26.68	0.71	0.750			
0.1474	9436.13	4.0780	4.0781	0.8010	26.68	0.71	0.750			
0.1499	9591.97	4.0750	4.0750	0.8037	26.68	0.71	0.750			
0.1523	9745.75	4.0720	4.0720	0.8084	26.68	0.71	0.750			
0.1547	9902.49	4.0690	4.0690	0.8141	26.68	0.71	0.750			
0.1571	10057.23	4.0660	4.0660	0.8141	26.68	0.71	0.750			
0.1596	10214.21	4.0630	4.0630	0.8167	26.68	0.71	0.750			
0.1621	10372.70	4.0600	4.0600	0.8165	26.68	0.71	0.750			
0.1645	10529.75	4.0570	4.0570	0.8191	26.68	0.71	0.750			
0.1670	10687.07	4.0540	4.0540	0.8199	26.68	0.71	0.750			
0.1694	10843.19	4.0510	4.0510	0.8187	26.68	0.71	0.750			
0.1719	10999.88	4.0480	4.0480	0.8224	26.68	0.71	0.750			
0.1744	11159.03	4.0450	4.0450	0.8228	26.68	0.71	0.750			
0.1768	11317.01	4.0420	4.0421	0.8308	26.68	0.71	0.750			
0.1793	11476.43	4.0390	4.0390	0.8370	26.68	0.71	0.750			
0.1818	11637.53	4.0360	4.0360	0.8407	26.68	0.71	0.750			
0.1844	11800.34	4.0330	4.0330	0.8415	26.68	0.71	0.750			
0.1869	11962.85	4.0300	4.0300	0.8414	26.68	0.71	0.750			
0.1895	12125.07	4.0270	4.0271	0.8498	26.68	0.71	0.750			
0.1920	12289.23	4.0240	4.0240	0.8526	26.68	0.71	0.750			
0.1946	12451.61	4.0210	4.0209	0.8533	26.68	0.71	0.750			
0.1971	12617.02	4.0180	4.0184	0.8558	26.68	0.71	0.750			
0.1998	12784.23	4.0150	4.0149	0.8534	26.69	0.72	0.750			
0.2023	12947.47	4.0120	4.0120	0.8579	26.69	0.72	0.750			
0.2048	13109.09	4.0090	4.0091	0.8593	26.69	0.72	0.750			
0.2074	13275.84	4.0060	4.0059	0.8601	26.70	0.73	0.750			
0.2100	13440.80	4.0030	4.0031	0.8588	26.70	0.73	0.750			
0.2126	13605.42	4.0000	4.0000	0.8586	26.70	0.73	0.750			
0.2152	13771.44	3.9970	3.9971	0.8615	26.69	0.72	0.750			
0.2177	13935.52	3.9940	3.9940	0.8587	26.69	0.72	0.750			
0.2203	14101.83	3.9910	3.9909	0.8656	26.69	0.72	0.750			
0.2229	14266.31	3.9880	3.9880	0.8673	26.69	0.72	0.750			
0.2256	14436.39	3.9850	3.9850	0.8736	26.69	0.72	0.750			
0.2282	14605.21	3.9820	3.9820	0.8745	26.69	0.72	0.750			
0.2308	14772.43	3.9790	3.9790	0.8783	26.69	0.72	0.750			
0.2335	14941.71	3.9760	3.9758	0.8765	26.69	0.72	0.750			
0.2361	15109.23	3.9730	3.9730	0.8753	26.69	0.72	0.750			
0.2387	15277.42	3.9700	3.9701	0.8784	26.69	0.72	0.750			
0.2413	15446.27	3.9670	3.9670	0.8792	26.68	0.71	0.750			
0.2440	15616.04	3.9640	3.9640	0.8795	26.68	0.71	0.750			
0.2466	15782.81	3.9610	3.9610	0.8822	26.68	0.71	0.750			
0.2493	15952.79	3.9580	3.9580	0.8796	26.68	0.71	0.750			
0.2519	16122.62	3.9550	3.9550	0.8881	26.68	0.71	0.750			
0.2546	16292.99	3.9520	3.9520	0.8887	26.68	0.71	0.750			
0.2573	16464.83	3.9490	3.9491	0.8878	26.68	0.71	0.750			
0.2599	16635.43	3.9460	3.9460	0.8916	26.68	0.71	0.750			
0.2626	16807.49	3.9430	3.9431	0.8888	26.67	0.70	0.750			
0.2653	16976.77	3.9400	3.9400	0.8866	26.67	0.70	0.750			
0.2679	17147.51	3.9370	3.9369	0.8888	26.67	0.70	0.750			
0.2706	17315.72	3.9340	3.9340	0.8843	26.66	0.69	0.750			
0.2732	17486.22	3.9310	3.9310	0.8872	26.66	0.69	0.750			
0.2759	17656.73	3.9280	3.9280	0.8886	26.66	0.69	0.750			
0.2785	17826.00	3.9250	3.9251	0.8931	26.65	0.68	0.750			
0.2812	17999.73	3.9220	3.9221	0.8998	26.65	0.68	0.750			
0.2839	18172.50	3.9190	3.9189	0.9019	26.65	0.68	0.750			
0.2867	18348.23	3.9160	3.9159	0.9002	26.65	0.68	0.750			
0.2894	18519.72	3.9130	3.9131	0.9072	26.64	0.67	0.750			
0.2921	18694.10	3.9100	3.9101	0.9105	26.64	0.67	0.750			
0.2948	18869.83	3.9070	3.9069	0.9153	26.63	0.66	0.750			
0.2976	19045.41	3.9040	3.9041	0.9169	26.63	0.66	0.750			
0.3004	19222.41	3.9010	3.9010	0.9191	26.62	0.65	0.750			
0.3031	19398.64	3.8980	3.8982	0.9222	26.61	0.64	0.750			
0.3059	19577.13	3.8950	3.8950	0.9294	26.61	0.64	0.750			
0.3086	19753.14	3.8920	3.8918	0.9314	26.60	0.63	0.750			
0.3115	19933.77	3.8890	3.8890	0.9344	26.60	0.63	0.750			
0.3143	20113.29	3.8860	3.8860	0.9413	26.59	0.62	0.750			
0.3171	20296.34	3.8830	3.8831	0.9508	26.59	0.62	0.750			
0.3200	20478.93	3.8800	3.8800	0.9519	26.58	0.61	0.750			
0.3229	20665.27	3.8770	3.8770	0.9468	26.57	0.60	0.750			
0.3257	20846.33	3.8740	3.8740	0.9492	26.57	0.60	0.750			
0.3286	21028.22	3.8710	3.8711	0.9513	26.56	0.59	0.750			
0.3314	21210.59	3.8680	3.8681	0.9605	26.55	0.58	0.750			
0.3343	21393.22	3.8650	3.8649	0.9622	26.54	0.57	0.750			
0.3372	21578.85	3.8620	3.8620	0.9635	26.53	0.56	0.750			
0.3401	21765.42	3.8590	3.8591	0.9728	26.52	0.55	0.750			
0.3430	21953.32	3.8560	3.8561	0.9812	26.52	0.55	0.750			
0.3460	22141.55	3.8530	3.8529	0.9814	26.51	0.54	0.750			
0.3489	22331.55	3.8500	3.8499	0.9779	26.50	0.53	0.750			
0.3519	22518.70	3.8470	3.8471	0.9779	26.49	0.52	0.750			
0.3548	22707.59	3.8440	3.8439	0.9816	26.48	0.51	0.750			
0.3578	22896.23	3.8410	3.8410	0.9810	26.47	0.50	0.750			
0.3607	23084.34	3.8380	3.8379	0.9773	26.46	0.49	0.750			
0.3636	23270.59	3.8350	3.8351	0.9827	26.45	0.48	0.750			
0.3666	23460.11	3.8320	3.8321	0.9914	26.44	0.47	0.750			
0.3695	23649.13	3.8290	3.8289	1.0029	26.43	0.46	0.750			
0.3726	23844.82	3.8260	3.8260	1.0104	26.43	0.46	0.750			
0.3756	24039.15	3.8230	3.8230	1.0150	26.42	0.45	0.750			
0.3787	24235.94	3.8200	3.8201	1.0211	26.41	0.44	0.750			
0.3818	24435.60	3.8170	3.8172	1.0287	26.40	0.43	0.750			
0.3849	24632.98	3.8140	3.8139	1.0256	26.39	0.42	0.750			
0.3879	24826.43	3.8110	3.8110	1.0314	26.38	0.41	0.750			
0.3910	25023.73	3.8080	3.8080	1.0397	26.37	0.40	0.750			
0.3941	25223.90	3.8050	3.8052	1.0573	26.36	0.39	0.750			
0.3974	25432.85	3.8020	3.8018	1.0577	26.35	0.38	0.750			
0.4005	25633.73	3.7990	3.7991	1.0761	26.34	0.37	0.750			
0.4038	25841.92	3.7960	3.7961	1.0887	26.33	0.36	0.750			
0.4071	26051.65	3.7930	3.7932	1.1054	26.31	0.34	0.750			
0.4104	26264.96	3.7900	3.7900	1.1107	26.30	0.33	0.750			
0.4137	26478.28	3.7870	3.7872	1.1275	26.29	0.32	0.750			
0.4171	26695.43	3.7840	3.7840	1.1490	26.28	0.31	0.750			
0.4207	26923.16	3.7810	3.7806	1.1671	26.27	0.30	0.750			
0.4241	27142.42	3.7780	3.7781	1.1726	26.26	0.29	0.750			
0.4276	27368.00	3.7750	3.7752	1.2144	26.25	0.28	0.750			
0.4313	27601.56	3.7720	3.7721	1.2518	26.24	0.27	0.750			
0.4351	27847.02	3.7690	3.7689	1.2621	26.23	0.26	0.750			
0.4390	28093.19	3.7660	3.7659	1.2991	26.21	0.24	0.750	0.339	0.451	
0.4430	28349.69	3.7630	3.7632	1.3200	26.20	0.23	0.750			
0.4470	28606.68	3.7600	3.7597	1.3496	26.19	0.22	0.750			
0.4511	28869.37	3.7570	3.7570	1.3523	26.17	0.20	0.750			
0.4550	29123.02	3.7540	3.7541	1.3830	26.15	0.18	0.750			
0.4593	29393.43	3.7510	3.7510	1.4345	26.14	0.17	0.750			
0.4636	29671.60	3.7480	3.7479	1.4502	26.13	0.16	0.750			
0.4681	29958.43	3.7450	3.7452	1.4839	26.12	0.15	0.750			
0.4726	30248.55	3.7420	3.7423	1.5323	26.10	0.13	0.750			
0.4772	30540.35	3.7390	3.7388	1.5859	26.09	0.12	0.750			
0.4821	30852.57	3.7360	3.7359	1.6317	26.07	0.10	0.750			
0.4870	31167.03	3.7330	3.7332	1.6530	26.06	0.09	0.750			
0.4920	31487.88	3.7300	3.7301	1.7119	26.04	0.07	0.750			
0.4973	31825.75	3.7270	3.7273	1.7529	26.03	0.06	0.750			
0.5026	32163.99	3.7240	3.7235	1.7773	26.01	0.04	0.750			
0.5080	32510.23	3.7210	3.7208	1.8225	26.00	0.03	0.750			
0.5135	32863.61	3.7180	3.7182	1.8862	25.98	0.01	0.750			
0.5193	33235.79	3.7150	3.7150	1.9412	25.97	-0.00	0.750			
0.5252	33610.53	3.7120	3.7123	1.9899	25.95	-0.02	0.750			
0.5312	33994.18	3.7090	3.7094	2.0542	25.94	-0.03	0.750			
0.5375	34400.69	3.7060	3.7059	2.1497	25.92	-0.05	0.750			
0.5441	34821.13	3.7030	3.7032	2.1705	25.90	-0.07	0.750			
0.5507	35242.12	3.7000	3.7001	2.2327	25.88	-0.09	0.750			
0.5576	35683.63	3.6970	3.6971	2.2866	25.85	-0.12	0.750			
0.5644	36123.17	3.6940	3.6939	2.3565	25.84	-0.13	0.750			
0.5716	36582.66	3.6910	3.6910	2.4274	25.83	-0.14	0.750			
0.5790	37056.83	3.6880	3.6879	2.5102	25.82	-0.15	0.750			
0.5867	37548.49	3.6850	3.6848	2.6541	25.80	-0.17	0.750			
0.5948	38068.14	3.6820	3.6817	2.7462	25.78	-0.19	0.750			
0.6032	38605.84	3.6790	3.6791	2.8827	25.77	-0.20	0.750			
0.6124	39192.50	3.6760	3.6758	2.9235	25.76	-0.21	0.750			
0.6212	39754.41	3.6730	3.6732	2.9078	25.75	-0.22	0.750			
0.6301	40324.38	3.6700	3.6701	2.8143	25.75	-0.22	0.750			
0.6386	40869.64	3.6670	3.6671	2.6257	25.75	-0.22	0.750			
0.6461	41351.98	3.6640	3.6641	2.3971	25.75	-0.22	0.750			
0.6528	41779.24	3.6610	3.6610	2.1488	25.75	-0.22	0.750			
0.6588	42163.25	3.6580	3.6578	1.9414	25.75	-0.22	0.750			
0.6640	42493.33	3.6550	3.6550	1.7573	25.75	-0.22	0.750			
0.6689	42812.62	3.6520	3.6519	1.6121	25.75	-0.22	0.750			
0.6736	43108.19	3.6490	3.6491	1.5133	25.75	-0.22	0.750			
0.6779	43384.15	3.6460	3.6462	1.4122	25.74	-0.23	0.750			
0.6820	43647.01	3.6430	3.6429	1.3366	25.74	-0.23	0.750			
0.6858	43888.72	3.6400	3.6400	1.2725	25.74	-0.23	0.750			
0.6894	44118.40	3.6370	3.6371	1.2142	25.74	-0.23	0.750			
0.6929	44346.01	3.6340	3.6340	1.2003	25.75	-0.22	0.750			
0.6965	44574.39	3.6310	3.6309	1.1749	25.75	-0.22	0.750			
0.6999	44796.10	3.6280	3.6281	1.1837	25.75	-0.22	0.750			
0.7035	45022.46	3.6250	3.6250	1.1948	25.75	-0.22	0.750			
0.7071	45257.32	3.6220	3.6219	1.1964	25.75	-0.22	0.750			
0.7107	45486.15	3.6190	3.6191	1.2017	25.75	-0.22	0.750			
0.7144	45722.73	3.6160	3.6160	1.2044	25.75	-0.22	0.750			
0.7181	45955.46	3.6130	3.6130	1.1868	25.76	-0.21	0.750			
0.7217	46185.65	3.6100	3.6098	1.1554	25.76	-0.21	0.750			
0.7250	46402.44	3.6070	3.6072	1.1427	25.76	-0.21	0.750			
0.7284	46614.89	3.6040	3.6040	1.1322	25.75	-0.22	0.750			
0.7317	46830.19	3.6010	3.6011	1.1354	25.75	-0.22	0.750			
0.7350	47042.15	3.5980	3.5981	1.1358	25.75	-0.22	0.750			
0.7385	47261.51	3.5950	3.5951	1.1747	25.75	-0.22	0.750			
0.7420	47490.45	3.5920	3.5920	1.2058	25.75	-0.22	0.750			
0.7457	47724.47	3.5890	3.5886	1.2476	25.75	-0.22	0.750			
0.7495	47965.73	3.5860	3.5861	1.2749	25.75	-0.22	0.750			
0.7533	48214.35	3.5830	3.5831	1.3359	25.75	-0.22	0.750			
0.7575	48480.19	3.5800	3.5799	1.3690	25.75	-0.22	0.750			
0.7616	48745.51	3.5770	3.5769	1.3969	25.75	-0.22	0.750			
0.7659	49016.74	3.5740	3.5743	1.4503	25.75	-0.22	0.750			
0.7703	49299.03	3.5710	3.5709	1.5034	25.75	-0.22	0.750			
0.7748	49589.68	3.5680	3.5681	1.5512	25.75	-0.22	0.750			
0.7796	49894.43	3.5650	3.5650	1.5904	25.74	-0.23	0.750			
0.7845	50207.08	3.5620	3.5619	1.6229	25.74	-0.23	0.750			
0.7895	50526.71	3.5590	3.5590	1.6428	25.74	-0.23	0.750			
0.7944	50841.27	3.5560	3.5561	1.6619	25.75	-0.22	0.750			
0.7994	51160.27	3.5530	3.5532	1.6755	25.75	-0.22	0.750			
0.8044	51480.64	3.5500	3.5501	1.6879	25.75	-0.22	0.750			
0.8095	51808.86	3.5470	3.5468	1.7147	25.75	-0.22	0.750			
0.8147	52142.17	3.5440	3.5439	1.7305	25.75	-0.22	0.750			
0.8198	52469.58	3.5410	3.5409	1.7656	25.75	-0.22	0.750			
0.8254	52827.19	3.5380	3.5381	1.7555	25.76	-0.21	0.750			
0.8310	53183.44	3.5350	3.5347	1.6816	25.77	-0.20	0.750			
0.8363	53526.20	3.5320	3.5320	1.5413	25.78	-0.19	0.750			
0.8410	53821.34	3.5290	3.5295	1.2905	25.79	-0.18	0.750			
0.8447	54057.83	3.5260	3.5263	1.0305	25.81	-0.16	0.750			
0.8470	54205.59	3.5230	3.5227	0.7779	25.82	-0.15	0.750			
0.8484	54299.84	3.5200	3.5197	0.5463	25.83	-0.14	0.750			
0.8496	54375.98	3.5170	3.5168	0.4451	25.83	-0.14	0.750			
0.8507	54445.36	3.5140	3.5139	0.3799	25.84	-0.13	0.750			
0.8517	54511.78	3.5110	3.5110	0.3494	25.85	-0.12	0.750			
0.8527	54575.51	3.5080	3.5079	0.3279	25.85	-0.12	0.750			
0.8537	54634.92	3.5050	3.5050	0.3111	25.86	-0.11	0.750			
0.8546	54692.91	3.5020	3.5020	0.2990	25.86	-0.11	0.750			
0.8554	54748.30	3.4990	3.4990	0.2895	25.87	-0.10	0.750			
0.8563	54802.87	3.4960	3.4960	0.2828	25.88	-0.09	0.750			
0.8571	54856.28	3.4930	3.4930	0.2756	25.88	-0.09	0.750			
0.8579	54908.51	3.4900	3.4900	0.2692	25.89	-0.08	0.750			
0.8587	54959.70	3.4870	3.4869	0.2632	25.89	-0.08	0.750			
0.8595	55009.57	3.4840	3.4841	0.2573	25.90	-0.07	0.750			
0.8603	55058.28	3.4810	3.4809	0.2511	25.90	-0.07	0.750			
0.8610	55105.47	3.4780	3.4780	0.2475	25.91	-0.06	0.750			
0.8618	55152.71	3.4750	3.4750	0.2424	25.91	-0.06	0.750			
0.8625	55198.70	3.4720	3.4720	0.2366	25.92	-0.05	0.750			
0.8632	55244.16	3.4690	3.4690	0.2319	25.92	-0.05	0.750			
0.8639	55288.12	3.4660	3.4660	0.2265	25.92	-0.05	0.750			
0.8646	55331.24	3.4630	3.4630	0.2209	25.93	-0.04	0.750			
0.8652	55372.76	3.4600	3.4599	0.2158	25.93	-0.04	0.750			
0.8658	55412.88	3.4570	3.4570	0.2110	25.94	-0.03	0.750			
0.8665	55453.53	3.4540	3.4540	0.2080	25.94	-0.03	0.750			
0.8671	55493.10	3.4510	3.4510	0.2043	25.94	-0.03	0.750			
0.8677	55532.16	3.4480	3.4480	0.1993	25.95	-0.02	0.750			
0.8683	55570.35	3.4450	3.4451	0.1941	25.95	-0.02	0.750			
0.8689	55607.44	3.4420	3.4420	0.1887	25.96	-0.01	0.750			
0.8694	55643.05	3.4390	3.4390	0.1822	25.96	-0.01	0.750			
0.8700	55677.42	3.4360	3.4361	0.1766	25.96	-0.01	0.750			
0.8705	55710.23	3.4330	3.4331	0.1710	25.97	-0.00	0.750			
0.8710	55742.44	3.4300	3.4299	0.1659	25.97	-0.00	0.750			
0.8715	55773.85	3.4270	3.4271	0.1613	25.97	0.00	0.750			
0.8719	55804.31	3.4240	3.4239	0.1566	25.98	0.01	0.750			
0.8724	55834.20	3.4210	3.4210	0.1514	25.98	0.01	0.750			
0.8729	55863.15	3.4180	3.4179	0.1462	25.98	0.01	0.750			
0.8733	55890.62	3.4150	3.4151	0.1400	25.98	0.01	0.750			
0.8737	55917.11	3.4120	3.4121	0.1338	25.99	0.02	0.750			
0.8741	55942.18	3.4090	3.4089	0.1272	25.99	0.02	0.750			
0.8745	55966.27	3.4060	3.4061	0.1201	25.99	0.02	0.750			
0.8748	55988.62	3.4030	3.4030	0.1127	25.99	0.02	0.750			
0.8752	56010.99	3.4000	3.3998	0.1034	26.00	0.03	0.750			
0.8755	56030.29	3.3970	3.3970	0.0952	26.00	0.03	0.750			
0.8757	56047.54	3.3940	3.3941	0.0846	26.00	0.03	0.750			
0.8760	56063.48	3.3910	3.3911	0.0750	26.00	0.03	0.750			
0.8762	56076.78	3.3880	3.3883	0.0636	26.00	0.03	0.750			
0.8764	56088.59	3.3850	3.3855	0.0522	26.00	0.03	0.750			
0.8765	56097.43	3.3820	3.3834	0.0400	26.01	0.04	0.750			
0.8766	56103.93	3.3790	3.3808	0.0278	26.01	0.04	0.750			
0.8767	56108.09	3.3760	3.3789	0.0155	26.01	0.04	0.750			
