Ah_balance (normalized)	Ah_balance (mAh)	Voltage - fit (V)	Voltage -  interpolate (V)	dQ/dV (1/V)	Temperature (°C)	Temperature - diff (°C)	Current (C)	R_DC 0ms (mOhm)	R_DC 50ms (mOhm)	R_DC 50 ms PEC (mOhm)
0.0497	3180.11	4.1980	4.1980	0.7509	26.19	0.24	0.750			
0.0520	3325.22	4.1950	4.1950	0.7611	26.19	0.24	0.750			
0.0543	3474.75	4.1920	4.1920	0.7731	26.19	0.24	0.750			
0.0566	3622.68	4.1890	4.1889	0.7754	26.19	0.24	0.750			
0.0589	3772.71	4.1860	4.1860	0.7774	26.19	0.24	0.750			
0.0613	3923.28	4.1830	4.1831	0.7769	26.19	0.24	0.750			
0.0636	4071.69	4.1800	4.1799	0.7744	26.19	0.24	0.750			
0.0659	4220.24	4.1770	4.1771	0.7756	26.19	0.24	0.750			
0.0682	4367.32	4.1740	4.1740	0.7748	26.19	0.24	0.750			
0.0706	4516.06	4.1710	4.1710	0.7796	26.19	0.24	0.750			
0.0729	4667.81	4.1680	4.1679	0.7761	26.19	0.24	0.750			
0.0753	4816.91	4.1650	4.1650	0.7805	26.19	0.24	0.750			
0.0776	4966.97	4.1620	4.1621	0.7865	26.19	0.24	0.750			
0.0800	5117.24	4.1590	4.1591	0.7899	26.19	0.24	0.750			
0.0823	5269.13	4.1560	4.1558	0.7898	26.19	0.24	0.750			
0.0847	5421.61	4.1530	4.1530	0.7924	26.19	0.24	0.750			
0.0871	5574.85	4.1500	4.1501	0.7903	26.19	0.24	0.750			
0.0895	5727.41	4.1470	4.1470	0.7915	26.20	0.25	0.750			
0.0918	5878.39	4.1440	4.1441	0.7871	26.20	0.25	0.750			
0.0942	6029.40	4.1410	4.1409	0.7861	26.20	0.25	0.750			
0.0966	6179.54	4.1380	4.1380	0.7869	26.20	0.25	0.750			
0.0989	6331.39	4.1350	4.1351	0.7906	26.20	0.25	0.750			
0.1013	6482.06	4.1320	4.1320	0.7969	26.21	0.26	0.750			
0.1037	6636.83	4.1290	4.1290	0.7981	26.21	0.26	0.750			
0.1061	6788.27	4.1260	4.1260	0.8001	26.21	0.26	0.750			
0.1085	6942.75	4.1230	4.1230	0.8048	26.21	0.26	0.750			
0.1110	7103.02	4.1200	4.1200	0.7960	26.21	0.26	0.750			
0.1133	7253.17	4.1170	4.1169	0.8011	26.21	0.26	0.750			
0.1157	7405.04	4.1140	4.1142	0.8046	26.21	0.26	0.750			
0.1181	7559.00	4.1110	4.1111	0.8088	26.21	0.26	0.750			
0.1205	7714.86	4.1080	4.1081	0.8183	26.21	0.26	0.750			
0.1230	7872.54	4.1050	4.1051	0.8197	26.21	0.26	0.750			
0.1255	8031.34	4.1020	4.1020	0.8294	26.21	0.26	0.750			
0.1280	8192.70	4.0990	4.0990	0.8349	26.21	0.26	0.750			
0.1305	8352.67	4.0960	4.0960	0.8298	26.21	0.26	0.750			
0.1330	8512.73	4.0930	4.0930	0.8300	26.21	0.26	0.750			
0.1355	8673.29	4.0900	4.0900	0.8264	26.22	0.27	0.750			
0.1380	8830.61	4.0870	4.0871	0.8250	26.22	0.27	0.750			
0.1405	8989.03	4.0840	4.0840	0.8282	26.22	0.27	0.750			
0.1429	9146.29	4.0810	4.0810	0.8281	26.23	0.28	0.750			
0.1454	9305.82	4.0780	4.0780	0.8357	26.23	0.28	0.750			
0.1480	9469.08	4.0750	4.0750	0.8311	26.23	0.28	0.750			
0.1505	9630.43	4.0720	4.0722	0.8377	26.23	0.28	0.750			
0.1530	9790.27	4.0690	4.0690	0.8417	26.23	0.28	0.750			
0.1555	9951.70	4.0660	4.0661	0.8393	26.23	0.28	0.750			
0.1580	10110.88	4.0630	4.0632	0.8422	26.23	0.28	0.750			
0.1605	10273.83	4.0600	4.0600	0.8427	26.24	0.29	0.750			
0.1631	10436.19	4.0570	4.0571	0.8526	26.24	0.29	0.750			
0.1656	10601.34	4.0540	4.0540	0.8608	26.24	0.29	0.750			
0.1682	10766.63	4.0510	4.0511	0.8650	26.25	0.30	0.750			
0.1708	10933.95	4.0480	4.0481	0.8688	26.25	0.30	0.750			
0.1735	11105.40	4.0450	4.0449	0.8644	26.25	0.30	0.750			
0.1761	11267.73	4.0420	4.0421	0.8651	26.25	0.30	0.750			
0.1787	11433.65	4.0390	4.0392	0.8686	26.25	0.30	0.750			
0.1812	11597.89	4.0360	4.0359	0.8696	26.25	0.30	0.750			
0.1838	11765.58	4.0330	4.0330	0.8748	26.25	0.30	0.750			
0.1865	11934.31	4.0300	4.0301	0.8732	26.26	0.31	0.750			
0.1891	12103.34	4.0270	4.0271	0.8775	26.26	0.31	0.750			
0.1918	12273.73	4.0240	4.0240	0.8835	26.27	0.32	0.750			
0.1944	12442.15	4.0210	4.0204	0.8819	26.27	0.32	0.750			
0.1971	12612.36	4.0180	4.0180	0.8815	26.27	0.32	0.750			
0.1997	12781.42	4.0150	4.0151	0.8855	26.27	0.32	0.750			
0.2024	12953.94	4.0120	4.0121	0.8939	26.27	0.32	0.750			
0.2051	13126.38	4.0090	4.0090	0.8962	26.27	0.32	0.750			
0.2077	13295.56	4.0060	4.0060	0.8991	26.27	0.32	0.750			
0.2105	13468.94	4.0030	4.0030	0.8989	26.28	0.33	0.750			
0.2132	13645.17	4.0000	4.0000	0.9017	26.28	0.33	0.750			
0.2159	13818.32	3.9970	3.9971	0.8998	26.28	0.33	0.750			
0.2186	13990.15	3.9940	3.9940	0.8976	26.29	0.34	0.750			
0.2213	14161.72	3.9910	3.9911	0.8977	26.29	0.34	0.750			
0.2239	14332.25	3.9880	3.9879	0.8936	26.29	0.34	0.750			
0.2266	14502.30	3.9850	3.9850	0.8978	26.30	0.35	0.750			
0.2293	14675.51	3.9820	3.9821	0.9098	26.30	0.35	0.750			
0.2320	14850.62	3.9790	3.9786	0.9150	26.30	0.35	0.750			
0.2348	15028.32	3.9760	3.9760	0.9199	26.30	0.35	0.750			
0.2376	15206.12	3.9730	3.9730	0.9293	26.30	0.35	0.750			
0.2404	15386.73	3.9700	3.9700	0.9323	26.31	0.36	0.750			
0.2432	15564.96	3.9670	3.9670	0.9261	26.31	0.36	0.750			
0.2460	15744.99	3.9640	3.9641	0.9312	26.31	0.36	0.750			
0.2488	15922.26	3.9610	3.9610	0.9330	26.32	0.37	0.750			
0.2516	16101.93	3.9580	3.9580	0.9383	26.32	0.37	0.750			
0.2544	16282.88	3.9550	3.9550	0.9395	26.33	0.38	0.750			
0.2572	16463.14	3.9520	3.9518	0.9434	26.33	0.38	0.750			
0.2601	16646.52	3.9490	3.9490	0.9407	26.33	0.38	0.750			
0.2629	16824.96	3.9460	3.9460	0.9459	26.33	0.38	0.750			
0.2657	17006.13	3.9430	3.9430	0.9479	26.34	0.39	0.750			
0.2685	17187.15	3.9400	3.9400	0.9554	26.34	0.39	0.750			
0.2715	17373.27	3.9370	3.9370	0.9550	26.34	0.39	0.750			
0.2744	17558.72	3.9340	3.9340	0.9581	26.34	0.39	0.750			
0.2772	17742.66	3.9310	3.9311	0.9568	26.35	0.40	0.750			
0.2801	17926.25	3.9280	3.9280	0.9578	26.35	0.40	0.750			
0.2830	18109.07	3.9250	3.9250	0.9616	26.35	0.40	0.750			
0.2858	18293.47	3.9220	3.9220	0.9618	26.35	0.40	0.750			
0.2887	18477.45	3.9190	3.9192	0.9639	26.35	0.40	0.750			
0.2916	18664.27	3.9160	3.9160	0.9754	26.35	0.40	0.750			
0.2946	18852.52	3.9130	3.9126	0.9756	26.35	0.40	0.750			
0.2975	19041.39	3.9100	3.9101	0.9685	26.35	0.40	0.750			
0.3004	19224.65	3.9070	3.9071	0.9804	26.36	0.41	0.750			
0.3033	19414.17	3.9040	3.9042	0.9893	26.36	0.41	0.750			
0.3063	19605.23	3.9010	3.9007	0.9861	26.37	0.42	0.750			
0.3093	19797.40	3.8980	3.8980	0.9845	26.37	0.42	0.750			
0.3123	19985.90	3.8950	3.8952	0.9846	26.37	0.42	0.750			
0.3152	20175.17	3.8920	3.8920	0.9919	26.37	0.42	0.750			
0.3182	20364.81	3.8890	3.8890	0.9902	26.37	0.42	0.750			
0.3212	20555.76	3.8860	3.8860	0.9902	26.37	0.42	0.750			
0.3242	20745.74	3.8830	3.8831	1.0007	26.37	0.42	0.750			
0.3272	20940.43	3.8800	3.8800	1.0086	26.38	0.43	0.750			
0.3302	21135.95	3.8770	3.8770	1.0178	26.38	0.43	0.750			
0.3333	21332.07	3.8740	3.8740	1.0121	26.38	0.43	0.750			
0.3363	21523.30	3.8710	3.8711	1.0205	26.38	0.43	0.750			
0.3394	21719.09	3.8680	3.8681	1.0318	26.37	0.42	0.750			
0.3425	21919.20	3.8650	3.8650	1.0429	26.37	0.42	0.750			
0.3456	22119.88	3.8620	3.8619	1.0461	26.37	0.42	0.750			
0.3488	22322.75	3.8590	3.8591	1.0567	26.37	0.42	0.750			
0.3520	22526.99	3.8560	3.8561	1.0662	26.37	0.42	0.750			
0.3552	22733.99	3.8530	3.8530	1.0731	26.37	0.42	0.750			
0.3585	22941.11	3.8500	3.8500	1.0623	26.37	0.42	0.750			
0.3616	23142.70	3.8470	3.8471	1.0769	26.37	0.42	0.750			
0.3648	23348.92	3.8440	3.8440	1.0944	26.36	0.41	0.750			
0.3681	23559.52	3.8410	3.8410	1.1112	26.36	0.41	0.750			
0.3715	23774.67	3.8380	3.8381	1.1181	26.36	0.41	0.750			
0.3749	23990.49	3.8350	3.8351	1.1368	26.35	0.40	0.750			
0.3783	24211.73	3.8320	3.8321	1.1540	26.35	0.40	0.750			
0.3818	24436.89	3.8290	3.8287	1.1672	26.34	0.39	0.750			
0.3853	24657.38	3.8260	3.8260	1.1845	26.34	0.39	0.750			
0.3889	24888.30	3.8230	3.8230	1.2018	26.34	0.39	0.750			
0.3925	25121.52	3.8200	3.8200	1.2245	26.34	0.39	0.750			
0.3962	25358.53	3.8170	3.8171	1.2272	26.34	0.39	0.750			
0.3999	25595.28	3.8140	3.8141	1.2442	26.33	0.38	0.750			
0.4037	25835.97	3.8110	3.8110	1.2610	26.32	0.37	0.750			
0.4075	26076.90	3.8080	3.8077	1.2595	26.31	0.36	0.750			
0.4113	26322.24	3.8050	3.8051	1.2768	26.30	0.35	0.750			
0.4151	26566.14	3.8020	3.8021	1.3129	26.30	0.35	0.750			
0.4190	26818.80	3.7990	3.7989	1.3408	26.29	0.34	0.750			
0.4231	27079.07	3.7960	3.7960	1.3572	26.28	0.33	0.750			
0.4273	27345.86	3.7930	3.7928	1.3851	26.27	0.32	0.750			
0.4316	27619.95	3.7900	3.7899	1.3956	26.26	0.31	0.750			
0.4358	27890.95	3.7870	3.7871	1.4004	26.25	0.30	0.750			
0.4400	28159.75	3.7840	3.7840	1.3985	26.24	0.29	0.750			
0.4441	28422.27	3.7810	3.7809	1.3832	26.23	0.28	0.750			
0.4482	28687.46	3.7780	3.7781	1.3889	26.22	0.27	0.750			
0.4524	28956.48	3.7750	3.7750	1.4033	26.20	0.25	0.750			
0.4567	29227.10	3.7720	3.7718	1.4095	26.19	0.24	0.750			
0.4609	29498.10	3.7690	3.7690	1.4168	26.18	0.23	0.750			
0.4651	29767.26	3.7660	3.7661	1.4439	26.18	0.23	0.750			
0.4694	30043.75	3.7630	3.7628	1.4828	26.17	0.22	0.750			
0.4739	30331.48	3.7600	3.7599	1.5132	26.16	0.21	0.750			
0.4786	30629.75	3.7570	3.7571	1.5433	26.15	0.20	0.750	0.346	0.405	
0.4833	30932.34	3.7540	3.7542	1.5770	26.14	0.19	0.750			
0.4881	31238.21	3.7510	3.7510	1.6166	26.13	0.18	0.750			
0.4930	31554.97	3.7480	3.7479	1.6298	26.11	0.16	0.750			
0.4979	31867.01	3.7450	3.7451	1.6523	26.10	0.15	0.750			
0.5029	32187.78	3.7420	3.7421	1.6889	26.08	0.13	0.750			
0.5080	32511.80	3.7390	3.7392	1.7372	26.07	0.12	0.750			
0.5133	32849.85	3.7360	3.7361	1.7670	26.05	0.10	0.750			
0.5186	33190.34	3.7330	3.7330	1.8137	26.03	0.08	0.750			
0.5240	33538.52	3.7300	3.7299	1.8638	26.02	0.07	0.750			
0.5299	33912.02	3.7270	3.7271	1.9394	26.01	0.06	0.750			
0.5357	34286.12	3.7240	3.7240	1.9954	26.00	0.05	0.750			
0.5418	34674.70	3.7210	3.7209	2.0508	25.98	0.03	0.750			
0.5480	35074.09	3.7180	3.7184	2.1115	25.96	0.01	0.750			
0.5546	35493.17	3.7150	3.7149	2.1661	25.94	-0.01	0.750			
0.5611	35910.91	3.7120	3.7122	2.2115	25.92	-0.03	0.750			
0.5677	36332.13	3.7090	3.7088	2.2739	25.90	-0.05	0.750			
0.5747	36777.66	3.7060	3.7060	2.3579	25.88	-0.07	0.750			
0.5817	37231.16	3.7030	3.7028	2.4125	25.87	-0.08	0.750			
0.5891	37699.87	3.7000	3.7001	2.5123	25.84	-0.11	0.750			
0.5968	38196.17	3.6970	3.6970	2.5721	25.82	-0.13	0.750			
0.6048	38704.19	3.6940	3.6939	2.6501	25.80	-0.15	0.750			
0.6127	39214.81	3.6910	3.6911	2.6689	25.79	-0.16	0.750			
0.6209	39734.50	3.6880	3.6880	2.7342	25.77	-0.18	0.750			
0.6292	40266.52	3.6850	3.6851	2.8167	25.75	-0.20	0.750			
0.6376	40808.45	3.6820	3.6818	2.9242	25.74	-0.21	0.750			
0.6465	41378.94	3.6790	3.6791	3.0380	25.71	-0.24	0.750			
0.6559	41974.49	3.6760	3.6758	3.2023	25.68	-0.27	0.750			
0.6657	42605.88	3.6730	3.6730	3.2586	25.68	-0.27	0.750			
0.6757	43243.52	3.6700	3.6701	3.3523	25.67	-0.28	0.750			
0.6859	43898.68	3.6670	3.6671	3.3796	25.65	-0.30	0.750			
0.6964	44568.85	3.6640	3.6639	3.3268	25.64	-0.31	0.750			
0.7067	45226.60	3.6610	3.6610	3.1595	25.62	-0.33	0.750			
0.7158	45812.83	3.6580	3.6582	2.8664	25.63	-0.32	0.750			
0.7235	46302.20	3.6550	3.6552	2.4973	25.64	-0.31	0.750			
0.7303	46742.14	3.6520	3.6519	2.2063	25.64	-0.31	0.750			
0.7362	47119.56	3.6490	3.6491	1.9740	25.64	-0.31	0.750			
0.7417	47466.67	3.6460	3.6462	1.7851	25.64	-0.31	0.750			
0.7467	47788.45	3.6430	3.6432	1.6307	25.64	-0.31	0.750			
0.7513	48085.64	3.6400	3.6401	1.5041	25.64	-0.31	0.750			
0.7556	48355.54	3.6370	3.6370	1.3958	25.64	-0.31	0.750			
0.7595	48606.02	3.6340	3.6341	1.3127	25.64	-0.31	0.750			
0.7631	48840.86	3.6310	3.6311	1.2568	25.65	-0.30	0.750			
0.7668	49075.60	3.6280	3.6280	1.2350	25.66	-0.29	0.750			
0.7705	49312.28	3.6250	3.6250	1.2253	25.66	-0.29	0.750			
0.7740	49538.72	3.6220	3.6220	1.2154	25.66	-0.29	0.750			
0.7777	49771.05	3.6190	3.6192	1.2265	25.66	-0.29	0.750			
0.7814	50008.69	3.6160	3.6159	1.2401	25.66	-0.29	0.750			
0.7851	50246.17	3.6130	3.6130	1.2294	25.66	-0.29	0.750			
0.7888	50484.39	3.6100	3.6101	1.2304	25.66	-0.29	0.750			
0.7925	50722.28	3.6070	3.6072	1.2307	25.66	-0.29	0.750			
0.7962	50957.10	3.6040	3.6042	1.2206	25.66	-0.29	0.750			
0.7998	51189.70	3.6010	3.6012	1.2077	25.66	-0.29	0.750			
0.8034	51417.42	3.5980	3.5980	1.2099	25.67	-0.28	0.750			
0.8071	51654.37	3.5950	3.5947	1.1989	25.67	-0.28	0.750			
0.8106	51878.87	3.5920	3.5922	1.2085	25.67	-0.28	0.750			
0.8142	52109.02	3.5890	3.5891	1.2504	25.68	-0.27	0.750			
0.8180	52351.28	3.5860	3.5861	1.2765	25.68	-0.27	0.750			
0.8218	52595.84	3.5830	3.5831	1.3295	25.68	-0.27	0.750			
0.8260	52860.88	3.5800	3.5801	1.3710	25.67	-0.28	0.750			
0.8301	53128.35	3.5770	3.5770	1.4095	25.67	-0.28	0.750			
0.8345	53408.39	3.5740	3.5742	1.4559	25.67	-0.28	0.750			
0.8388	53685.09	3.5710	3.5713	1.4736	25.68	-0.27	0.750			
0.8433	53973.65	3.5680	3.5680	1.4781	25.68	-0.27	0.750			
0.8478	54259.16	3.5650	3.5649	1.5041	25.68	-0.27	0.750			
0.8523	54548.94	3.5620	3.5623	1.5394	25.68	-0.27	0.750			
0.8570	54850.31	3.5590	3.5588	1.5460	25.68	-0.27	0.750			
0.8616	55145.47	3.5560	3.5563	1.5923	25.68	-0.27	0.750			
0.8666	55460.57	3.5530	3.5531	1.5968	25.68	-0.27	0.750			
0.8714	55772.63	3.5500	3.5500	1.6118	25.68	-0.27	0.750			
0.8764	56086.48	3.5470	3.5475	1.6263	25.69	-0.26	0.750			
0.8813	56400.36	3.5440	3.5439	1.6293	25.69	-0.26	0.750			
0.8861	56707.70	3.5410	3.5412	1.6617	25.69	-0.26	0.750			
0.8910	57021.03	3.5380	3.5381	1.6918	25.70	-0.25	0.750			
0.8961	57351.96	3.5350	3.5350	1.7536	25.70	-0.25	0.750			
0.9019	57721.88	3.5320	3.5320	1.7018	25.71	-0.24	0.750			
0.9074	58071.88	3.5290	3.5288	1.5990	25.72	-0.23	0.750			
0.9121	58374.02	3.5260	3.5267	1.3514	25.74	-0.21	0.750			
0.9162	58639.89	3.5230	3.5233	1.1149	25.76	-0.19	0.750			
0.9189	58807.80	3.5200	3.5196	0.8617	25.77	-0.18	0.750			
0.9206	58920.44	3.5170	3.5166	0.6159	25.78	-0.17	0.750			
0.9218	58995.24	3.5140	3.5139	0.4708	25.79	-0.16	0.750			
0.9230	59071.63	3.5110	3.5110	0.4012	25.80	-0.15	0.750			
0.9240	59137.36	3.5080	3.5080	0.3601	25.80	-0.15	0.750			
0.9250	59201.09	3.5050	3.5048	0.3326	25.81	-0.14	0.750			
0.9260	59260.99	3.5020	3.5020	0.3148	25.82	-0.13	0.750			
0.9269	59318.86	3.4990	3.4991	0.3025	25.82	-0.13	0.750			
0.9277	59375.58	3.4960	3.4960	0.2947	25.83	-0.12	0.750			
0.9286	59431.35	3.4930	3.4930	0.2875	25.84	-0.11	0.750			
0.9295	59485.65	3.4900	3.4899	0.2791	25.84	-0.11	0.750			
0.9303	59538.29	3.4870	3.4870	0.2718	25.85	-0.10	0.750			
0.9311	59590.14	3.4840	3.4841	0.2664	25.85	-0.10	0.750			
0.9319	59640.45	3.4810	3.4809	0.2605	25.86	-0.09	0.750			
0.9326	59689.31	3.4780	3.4780	0.2550	25.86	-0.09	0.750			
0.9334	59737.80	3.4750	3.4750	0.2506	25.87	-0.08	0.750			
0.9341	59785.58	3.4720	3.4721	0.2468	25.88	-0.07	0.750			
0.9349	59832.99	3.4690	3.4689	0.2433	25.88	-0.07	0.750			
0.9356	59879.13	3.4660	3.4660	0.2383	25.89	-0.06	0.750			
0.9363	59924.30	3.4630	3.4630	0.2334	25.89	-0.06	0.750			
0.9370	59968.64	3.4600	3.4600	0.2296	25.90	-0.05	0.750			
0.9377	60012.28	3.4570	3.4570	0.2253	25.90	-0.05	0.750			
0.9384	60055.39	3.4540	3.4540	0.2213	25.91	-0.04	0.750			
0.9390	60097.45	3.4510	3.4510	0.2168	25.91	-0.04	0.750			
0.9397	60138.63	3.4480	3.4480	0.2123	25.92	-0.03	0.750			
0.9403	60179.09	3.4450	3.4450	0.2078	25.92	-0.03	0.750			
0.9409	60218.45	3.4420	3.4421	0.2037	25.92	-0.03	0.750			
0.9415	60257.13	3.4390	3.4389	0.1992	25.93	-0.02	0.750			
0.9421	60294.58	3.4360	3.4360	0.1956	25.93	-0.02	0.750			
0.9427	60331.71	3.4330	3.4330	0.1920	25.94	-0.01	0.750			
0.9433	60368.47	3.4300	3.4300	0.1881	25.94	-0.01	0.750			
0.9438	60404.24	3.4270	3.4270	0.1843	25.95	-0.00	0.750			
0.9444	60439.32	3.4240	3.4240	0.1804	25.95	-0.00	0.750			
0.9449	60473.84	3.4210	3.4210	0.1761	25.95	0.00	0.750			
0.9454	60507.33	3.4180	3.4179	0.1709	25.96	0.01	0.750			
0.9459	60539.52	3.4150	3.4150	0.1660	25.96	0.01	0.750			
0.9464	60570.82	3.4120	3.4120	0.1610	25.96	0.01	0.750			
0.9469	60601.24	3.4090	3.4091	0.1566	25.97	0.02	0.750			
0.9474	60630.83	3.4060	3.4059	0.1520	25.97	0.02	0.750			
0.9478	60659.50	3.4030	3.4030	0.1469	25.97	0.02	0.750			
0.9482	60687.27	3.4000	3.4000	0.1424	25.98	0.03	0.750			
0.9487	60714.38	3.3970	3.3971	0.1377	25.98	0.03	0.750			
0.9491	60740.61	3.3940	3.3940	0.1332	25.98	0.03	0.750			
0.9495	60765.70	3.3910	3.3911	0.1275	25.99	0.04	0.750			
0.9498	60789.65	3.3880	3.3879	0.1220	25.99	0.04	0.750			
0.9502	60813.04	3.3850	3.3849	0.1153	25.99	0.04	0.750			
0.9505	60834.81	3.3820	3.3821	0.1091	25.99	0.04	0.750			
0.9509	60855.69	3.3790	3.3790	0.1006	26.00	0.05	0.750			
0.9512	60874.59	3.3760	3.3762	0.0934	26.00	0.05	0.750			
0.9514	60891.69	3.3730	3.3730	0.0847	26.00	0.05	0.750			
0.9517	60907.49	3.3700	3.3700	0.0763	26.00	0.05	0.750			
0.9519	60921.24	3.3670	3.3673	0.0670	26.00	0.05	0.750			
0.9521	60933.24	3.3640	3.3644	0.0578	26.00	0.05	0.750			
0.9522	60943.44	3.3610	3.3616	0.0485	26.01	0.06	0.750			
0.9524	60951.87	3.3580	3.3587	0.0393	26.01	0.06	0.750			
