Ah_balance (normalized)	Ah_balance (mAh)	Voltage - fit (V)	Voltage -  interpolate (V)	dQ/dV (1/V)	Temperature (°C)	Temperature - diff (°C)	Current (C)	R_DC 0ms (mOhm)	R_DC 50ms (mOhm)	R_DC 50 ms PEC (mOhm)
0.0562	3599.80	4.1960	4.1959	0.7691	26.68	0.73	0.750			
0.0585	3743.44	4.1930	4.1931	0.7507	26.68	0.73	0.750			
0.0607	3887.13	4.1900	4.1899	0.7495	26.68	0.73	0.750			
0.0630	4030.70	4.1870	4.1871	0.7504	26.68	0.73	0.750			
0.0652	4174.01	4.1840	4.1840	0.7503	26.68	0.73	0.750			
0.0675	4317.95	4.1810	4.1811	0.7528	26.68	0.73	0.750			
0.0697	4463.15	4.1780	4.1780	0.7532	26.68	0.73	0.750			
0.0720	4608.76	4.1750	4.1750	0.7595	26.68	0.73	0.750			
0.0743	4754.06	4.1720	4.1721	0.7593	26.68	0.73	0.750			
0.0766	4901.40	4.1690	4.1689	0.7646	26.68	0.73	0.750			
0.0789	5048.88	4.1660	4.1660	0.7640	26.68	0.73	0.750			
0.0812	5196.99	4.1630	4.1630	0.7604	26.67	0.72	0.750			
0.0835	5342.97	4.1600	4.1600	0.7583	26.67	0.72	0.750			
0.0857	5486.18	4.1570	4.1571	0.7632	26.67	0.72	0.750			
0.0880	5631.65	4.1540	4.1540	0.7634	26.66	0.71	0.750			
0.0903	5779.03	4.1510	4.1510	0.7630	26.66	0.71	0.750			
0.0926	5926.24	4.1480	4.1480	0.7650	26.66	0.71	0.750			
0.0949	6075.07	4.1450	4.1451	0.7684	26.66	0.71	0.750			
0.0972	6222.51	4.1420	4.1420	0.7675	26.66	0.71	0.750			
0.0995	6368.04	4.1390	4.1389	0.7645	26.66	0.71	0.750			
0.1018	6513.19	4.1360	4.1358	0.7635	26.66	0.71	0.750			
0.1041	6660.22	4.1330	4.1331	0.7698	26.66	0.71	0.750			
0.1064	6809.41	4.1300	4.1300	0.7731	26.66	0.71	0.750			
0.1087	6959.48	4.1270	4.1270	0.7755	26.66	0.71	0.750			
0.1111	7108.37	4.1240	4.1240	0.7775	26.66	0.71	0.750			
0.1134	7257.04	4.1210	4.1211	0.7776	26.66	0.71	0.750			
0.1157	7406.19	4.1180	4.1180	0.7807	26.66	0.71	0.750			
0.1181	7556.00	4.1150	4.1150	0.7818	26.66	0.71	0.750			
0.1204	7706.73	4.1120	4.1120	0.7786	26.66	0.71	0.750			
0.1228	7856.69	4.1090	4.1090	0.7828	26.65	0.70	0.750			
0.1251	8005.72	4.1060	4.1061	0.7844	26.65	0.70	0.750			
0.1274	8156.33	4.1030	4.1029	0.7811	26.65	0.70	0.750			
0.1298	8306.07	4.1000	4.1000	0.7842	26.65	0.70	0.750			
0.1322	8458.18	4.0970	4.0969	0.7762	26.65	0.70	0.750			
0.1345	8606.74	4.0940	4.0941	0.7857	26.66	0.71	0.750			
0.1368	8757.79	4.0910	4.0910	0.7910	26.66	0.71	0.750			
0.1392	8907.95	4.0880	4.0879	0.7925	26.66	0.71	0.750			
0.1416	9061.42	4.0850	4.0851	0.7988	26.66	0.71	0.750			
0.1440	9216.87	4.0820	4.0821	0.8042	26.66	0.71	0.750			
0.1464	9371.42	4.0790	4.0790	0.8074	26.66	0.71	0.750			
0.1489	9529.18	4.0760	4.0760	0.8117	26.66	0.71	0.750			
0.1513	9681.71	4.0730	4.0729	0.8128	26.66	0.71	0.750			
0.1537	9838.49	4.0700	4.0701	0.8198	26.66	0.71	0.750			
0.1563	10000.58	4.0670	4.0668	0.8111	26.66	0.71	0.750			
0.1587	10153.61	4.0640	4.0641	0.8156	26.66	0.71	0.750			
0.1611	10311.01	4.0610	4.0611	0.8165	26.66	0.71	0.750			
0.1635	10466.95	4.0580	4.0582	0.8145	26.66	0.71	0.750			
0.1660	10623.38	4.0550	4.0548	0.8123	26.66	0.71	0.750			
0.1684	10780.56	4.0520	4.0522	0.8022	26.66	0.71	0.750			
0.1708	10933.41	4.0490	4.0491	0.8099	26.66	0.71	0.750			
0.1733	11088.64	4.0460	4.0460	0.8198	26.66	0.71	0.750			
0.1757	11244.58	4.0430	4.0431	0.8208	26.66	0.71	0.750			
0.1782	11402.56	4.0400	4.0400	0.8288	26.66	0.71	0.750			
0.1807	11563.86	4.0370	4.0372	0.8346	26.66	0.71	0.750			
0.1832	11727.65	4.0340	4.0340	0.8433	26.66	0.71	0.750			
0.1858	11889.38	4.0310	4.0310	0.8484	26.66	0.71	0.750			
0.1883	12051.00	4.0280	4.0281	0.8397	26.66	0.71	0.750			
0.1908	12213.48	4.0250	4.0250	0.8431	26.66	0.71	0.750			
0.1934	12377.70	4.0220	4.0220	0.8412	26.66	0.71	0.750			
0.1959	12536.81	4.0190	4.0192	0.8542	26.66	0.71	0.750			
0.1985	12701.85	4.0160	4.0160	0.8600	26.66	0.71	0.750			
0.2011	12867.49	4.0130	4.0129	0.8586	26.66	0.71	0.750			
0.2036	13033.33	4.0100	4.0101	0.8556	26.66	0.71	0.750			
0.2063	13200.14	4.0070	4.0071	0.8570	26.66	0.71	0.750			
0.2088	13363.11	4.0040	4.0040	0.8557	26.66	0.71	0.750			
0.2113	13526.25	4.0010	4.0008	0.8539	26.66	0.71	0.750			
0.2138	13685.29	3.9980	3.9980	0.8472	26.66	0.71	0.750			
0.2164	13850.73	3.9950	3.9951	0.8591	26.66	0.71	0.750			
0.2190	14017.70	3.9920	3.9920	0.8664	26.66	0.71	0.750			
0.2216	14184.94	3.9890	3.9890	0.8684	26.65	0.70	0.750			
0.2242	14351.67	3.9860	3.9860	0.8707	26.65	0.70	0.750			
0.2268	14518.32	3.9830	3.9830	0.8707	26.65	0.70	0.750			
0.2295	14684.99	3.9800	3.9800	0.8787	26.65	0.70	0.750			
0.2321	14854.59	3.9770	3.9770	0.8773	26.65	0.70	0.750			
0.2347	15021.79	3.9740	3.9740	0.8813	26.64	0.69	0.750			
0.2374	15191.63	3.9710	3.9711	0.8853	26.64	0.69	0.750			
0.2400	15362.65	3.9680	3.9680	0.8888	26.64	0.69	0.750			
0.2427	15535.41	3.9650	3.9649	0.8825	26.64	0.69	0.750			
0.2454	15704.64	3.9620	3.9621	0.8828	26.64	0.69	0.750			
0.2480	15872.54	3.9590	3.9591	0.8833	26.64	0.69	0.750			
0.2507	16042.10	3.9560	3.9560	0.8832	26.64	0.69	0.750			
0.2533	16212.00	3.9530	3.9530	0.8831	26.64	0.69	0.750			
0.2560	16381.20	3.9500	3.9501	0.8778	26.64	0.69	0.750			
0.2586	16551.11	3.9470	3.9471	0.8845	26.64	0.69	0.750			
0.2613	16721.96	3.9440	3.9440	0.8841	26.64	0.69	0.750			
0.2639	16890.02	3.9410	3.9409	0.8844	26.64	0.69	0.750			
0.2666	17059.70	3.9380	3.9381	0.8857	26.64	0.69	0.750			
0.2692	17230.75	3.9350	3.9350	0.8851	26.64	0.69	0.750			
0.2719	17400.90	3.9320	3.9320	0.8909	26.63	0.68	0.750			
0.2746	17572.98	3.9290	3.9290	0.8930	26.63	0.68	0.750			
0.2772	17742.07	3.9260	3.9259	0.8937	26.63	0.68	0.750			
0.2799	17916.47	3.9230	3.9230	0.8923	26.62	0.67	0.750			
0.2826	18086.07	3.9200	3.9200	0.8953	26.62	0.67	0.750			
0.2853	18259.50	3.9170	3.9170	0.8980	26.61	0.66	0.750			
0.2880	18431.27	3.9140	3.9141	0.9021	26.60	0.65	0.750			
0.2907	18602.82	3.9110	3.9109	0.9011	26.60	0.65	0.750			
0.2934	18777.63	3.9080	3.9081	0.9022	26.60	0.65	0.750			
0.2961	18949.32	3.9050	3.9050	0.9086	26.60	0.65	0.750			
0.2988	19124.65	3.9020	3.9021	0.9181	26.60	0.65	0.750			
0.3016	19300.87	3.8990	3.8989	0.9217	26.60	0.65	0.750			
0.3044	19481.47	3.8960	3.8960	0.9223	26.59	0.64	0.750			
0.3071	19656.87	3.8930	3.8930	0.9275	26.58	0.63	0.750			
0.3099	19835.91	3.8900	3.8901	0.9371	26.58	0.63	0.750			
0.3128	20016.91	3.8870	3.8870	0.9411	26.57	0.62	0.750			
0.3155	20194.22	3.8840	3.8839	0.9441	26.56	0.61	0.750			
0.3184	20377.54	3.8810	3.8811	0.9492	26.55	0.60	0.750			
0.3213	20561.60	3.8780	3.8780	0.9567	26.54	0.59	0.750			
0.3242	20747.33	3.8750	3.8750	0.9588	26.53	0.58	0.750			
0.3270	20930.22	3.8720	3.8717	0.9575	26.52	0.57	0.750			
0.3299	21115.64	3.8690	3.8692	0.9551	26.52	0.57	0.750			
0.3328	21299.07	3.8660	3.8659	0.9581	26.51	0.56	0.750			
0.3357	21481.79	3.8630	3.8631	0.9561	26.51	0.56	0.750			
0.3385	21663.22	3.8600	3.8600	0.9569	26.50	0.55	0.750			
0.3414	21850.84	3.8570	3.8570	0.9588	26.49	0.54	0.750			
0.3443	22034.90	3.8540	3.8540	0.9654	26.49	0.54	0.750			
0.3472	22218.72	3.8510	3.8511	0.9742	26.48	0.53	0.750			
0.3501	22408.30	3.8480	3.8481	0.9797	26.47	0.52	0.750			
0.3530	22594.97	3.8450	3.8449	0.9830	26.46	0.51	0.750			
0.3560	22785.81	3.8420	3.8421	0.9766	26.45	0.50	0.750			
0.3589	22971.64	3.8390	3.8390	0.9780	26.44	0.49	0.750			
0.3619	23160.05	3.8360	3.8361	0.9877	26.43	0.48	0.750			
0.3648	23349.44	3.8330	3.8326	0.9864	26.42	0.47	0.750			
0.3678	23537.60	3.8300	3.8300	0.9850	26.41	0.46	0.750			
0.3708	23728.65	3.8270	3.8271	0.9964	26.40	0.45	0.750			
0.3738	23920.97	3.8240	3.8241	1.0019	26.39	0.44	0.750			
0.3768	24113.76	3.8210	3.8208	1.0060	26.38	0.43	0.750			
0.3798	24305.15	3.8180	3.8180	1.0074	26.37	0.42	0.750			
0.3828	24499.26	3.8150	3.8150	1.0184	26.36	0.41	0.750			
0.3859	24698.17	3.8120	3.8120	1.0303	26.35	0.40	0.750			
0.3890	24896.99	3.8090	3.8089	1.0371	26.34	0.39	0.750			
0.3921	25095.94	3.8060	3.8061	1.0396	26.33	0.38	0.750			
0.3953	25296.54	3.8030	3.8031	1.0493	26.32	0.37	0.750			
0.3984	25497.23	3.8000	3.8000	1.0570	26.31	0.36	0.750			
0.4016	25701.41	3.7970	3.7969	1.0695	26.30	0.35	0.750			
0.4048	25904.67	3.7940	3.7940	1.0808	26.29	0.34	0.750			
0.4080	26113.27	3.7910	3.7910	1.1006	26.29	0.34	0.750			
0.4114	26326.58	3.7880	3.7880	1.1209	26.28	0.33	0.750			
0.4148	26546.76	3.7850	3.7848	1.1310	26.27	0.32	0.750			
0.4182	26763.76	3.7820	3.7821	1.1543	26.26	0.31	0.750			
0.4217	26988.14	3.7790	3.7791	1.1729	26.25	0.30	0.750			
0.4252	27215.11	3.7760	3.7761	1.1946	26.24	0.29	0.750			
0.4288	27441.01	3.7730	3.7732	1.2227	26.23	0.28	0.750			
0.4325	27676.98	3.7700	3.7701	1.2565	26.21	0.26	0.750			
0.4363	27925.43	3.7670	3.7660	1.2866	26.20	0.25	0.750	0.311	0.445	
0.4403	28176.59	3.7640	3.7639	1.3173	26.19	0.24	0.750			
0.4443	28433.81	3.7610	3.7612	1.3456	26.18	0.23	0.750			
0.4484	28698.38	3.7580	3.7581	1.3670	26.16	0.21	0.750			
0.4525	28958.79	3.7550	3.7549	1.3783	26.15	0.20	0.750			
0.4567	29226.83	3.7520	3.7521	1.3916	26.14	0.19	0.750			
0.4609	29494.69	3.7490	3.7491	1.4275	26.12	0.17	0.750			
0.4652	29770.19	3.7460	3.7459	1.4683	26.11	0.16	0.750			
0.4696	30052.12	3.7430	3.7432	1.5127	26.09	0.14	0.750			
0.4742	30348.15	3.7400	3.7401	1.5512	26.08	0.13	0.750			
0.4789	30649.76	3.7370	3.7370	1.6122	26.07	0.12	0.750			
0.4839	30966.88	3.7340	3.7339	1.6547	26.05	0.10	0.750			
0.4889	31290.91	3.7310	3.7310	1.6984	26.04	0.09	0.750			
0.4941	31621.01	3.7280	3.7279	1.7110	26.03	0.08	0.750			
0.4992	31950.86	3.7250	3.7249	1.7587	26.01	0.06	0.750			
0.5045	32290.49	3.7220	3.7221	1.8064	25.99	0.04	0.750			
0.5100	32643.05	3.7190	3.7189	1.8663	25.98	0.03	0.750			
0.5156	32999.05	3.7160	3.7160	1.9238	25.97	0.02	0.750			
0.5216	33379.51	3.7130	3.7132	1.9820	25.95	-0.00	0.750			
0.5277	33770.67	3.7100	3.7097	2.0458	25.93	-0.02	0.750			
0.5339	34168.75	3.7070	3.7068	2.1347	25.91	-0.04	0.750			
0.5403	34579.83	3.7040	3.7039	2.1885	25.90	-0.05	0.750			
0.5471	35014.55	3.7010	3.7010	2.2536	25.88	-0.07	0.750			
0.5540	35453.48	3.6980	3.6982	2.2974	25.87	-0.08	0.750			
0.5609	35898.34	3.6950	3.6950	2.3611	25.86	-0.09	0.750			
0.5679	36347.34	3.6920	3.6919	2.4119	25.84	-0.11	0.750			
0.5752	36812.84	3.6890	3.6890	2.5081	25.82	-0.13	0.750			
0.5829	37302.82	3.6860	3.6861	2.6424	25.80	-0.15	0.750			
0.5911	37827.30	3.6830	3.6830	2.7419	25.79	-0.16	0.750			
0.5995	38366.74	3.6800	3.6800	2.8188	25.77	-0.18	0.750			
0.6080	38911.07	3.6770	3.6767	2.9055	25.76	-0.19	0.750			
0.6169	39482.04	3.6740	3.6740	2.9180	25.75	-0.20	0.750			
0.6260	40062.08	3.6710	3.6709	2.8693	25.75	-0.20	0.750			
0.6345	40608.99	3.6680	3.6680	2.6426	25.75	-0.20	0.750			
0.6420	41089.27	3.6650	3.6651	2.3912	25.75	-0.20	0.750			
0.6485	41502.88	3.6620	3.6623	2.1280	25.74	-0.21	0.750			
0.6545	41886.35	3.6590	3.6590	1.9254	25.73	-0.22	0.750			
0.6598	42227.59	3.6560	3.6559	1.7712	25.74	-0.21	0.750			
0.6648	42549.90	3.6530	3.6529	1.6469	25.75	-0.20	0.750			
0.6696	42854.25	3.6500	3.6502	1.5331	25.75	-0.20	0.750			
0.6741	43140.30	3.6470	3.6472	1.4311	25.75	-0.20	0.750			
0.6782	43407.54	3.6440	3.6440	1.3400	25.75	-0.20	0.750			
0.6820	43651.06	3.6410	3.6410	1.2744	25.75	-0.20	0.750			
0.6855	43875.16	3.6380	3.6380	1.2110	25.75	-0.20	0.750			
0.6891	44101.32	3.6350	3.6349	1.1974	25.75	-0.20	0.750			
0.6926	44325.78	3.6320	3.6321	1.1858	25.75	-0.20	0.750			
0.6962	44554.51	3.6290	3.6290	1.1959	25.75	-0.20	0.750			
0.6998	44785.29	3.6260	3.6261	1.2012	25.75	-0.20	0.750			
0.7034	45016.47	3.6230	3.6230	1.2032	25.75	-0.20	0.750			
0.7070	45249.49	3.6200	3.6200	1.2016	25.75	-0.20	0.750			
0.7107	45483.86	3.6170	3.6170	1.1959	25.75	-0.20	0.750			
0.7143	45715.70	3.6140	3.6140	1.1717	25.75	-0.20	0.750			
0.7178	45939.30	3.6110	3.6111	1.1594	25.75	-0.20	0.750			
0.7212	46157.85	3.6080	3.6081	1.1412	25.75	-0.20	0.750			
0.7246	46372.43	3.6050	3.6050	1.1320	25.75	-0.20	0.750			
0.7279	46588.23	3.6020	3.6018	1.1160	25.75	-0.20	0.750			
0.7312	46796.82	3.5990	3.5991	1.1366	25.75	-0.20	0.750			
0.7346	47013.26	3.5960	3.5961	1.1628	25.75	-0.20	0.750			
0.7381	47239.70	3.5930	3.5929	1.1935	25.75	-0.20	0.750			
0.7417	47469.39	3.5900	3.5899	1.2274	25.75	-0.20	0.750			
0.7454	47708.24	3.5870	3.5872	1.2749	25.75	-0.20	0.750			
0.7494	47959.37	3.5840	3.5841	1.3213	25.75	-0.20	0.750			
0.7535	48223.25	3.5810	3.5810	1.3661	25.75	-0.20	0.750			
0.7575	48481.52	3.5780	3.5780	1.4101	25.75	-0.20	0.750			
0.7618	48755.40	3.5750	3.5751	1.4634	25.74	-0.21	0.750			
0.7663	49044.30	3.5720	3.5720	1.4883	25.74	-0.21	0.750			
0.7708	49334.33	3.5690	3.5690	1.5297	25.74	-0.21	0.750			
0.7755	49630.06	3.5660	3.5661	1.5674	25.74	-0.21	0.750			
0.7802	49934.49	3.5630	3.5631	1.5989	25.74	-0.21	0.750			
0.7851	50247.51	3.5600	3.5600	1.6233	25.74	-0.21	0.750			
0.7900	50561.64	3.5570	3.5569	1.6332	25.74	-0.21	0.750			
0.7950	50881.34	3.5540	3.5540	1.6855	25.74	-0.21	0.750			
0.8000	51202.16	3.5510	3.5512	1.6814	25.74	-0.21	0.750			
0.8051	51526.84	3.5480	3.5481	1.6983	25.74	-0.21	0.750			
0.8102	51853.90	3.5450	3.5450	1.7209	25.75	-0.20	0.750			
0.8154	52187.43	3.5420	3.5422	1.7715	25.75	-0.20	0.750			
0.8209	52538.44	3.5390	3.5391	1.7806	25.76	-0.19	0.750			
0.8264	52890.75	3.5360	3.5357	1.7119	25.77	-0.18	0.750			
0.8319	53244.56	3.5330	3.5329	1.5449	25.78	-0.17	0.750			
0.8368	53557.41	3.5300	3.5304	1.3657	25.79	-0.16	0.750			
0.8405	53793.85	3.5270	3.5275	1.0983	25.80	-0.15	0.750			
0.8433	53972.77	3.5240	3.5237	0.8248	25.82	-0.13	0.750			
0.8449	54073.06	3.5210	3.5207	0.6072	25.83	-0.12	0.750			
0.8461	54152.71	3.5180	3.5179	0.4623	25.84	-0.11	0.750			
0.8472	54222.26	3.5150	3.5149	0.3904	25.84	-0.11	0.750			
0.8483	54290.83	3.5120	3.5119	0.3558	25.85	-0.10	0.750			
0.8493	54352.58	3.5090	3.5090	0.3293	25.85	-0.10	0.750			
0.8502	54413.58	3.5060	3.5060	0.3145	25.86	-0.09	0.750			
0.8511	54472.14	3.5030	3.5030	0.3024	25.86	-0.09	0.750			
0.8520	54528.67	3.5000	3.4999	0.2925	25.87	-0.08	0.750			
0.8529	54583.97	3.4970	3.4971	0.2840	25.87	-0.08	0.750			
0.8537	54637.42	3.4940	3.4940	0.2768	25.88	-0.07	0.750			
0.8545	54689.68	3.4910	3.4910	0.2706	25.88	-0.07	0.750			
0.8553	54741.09	3.4880	3.4880	0.2658	25.89	-0.06	0.750			
0.8561	54791.00	3.4850	3.4849	0.2601	25.89	-0.06	0.750			
0.8569	54840.68	3.4820	3.4820	0.2550	25.90	-0.05	0.750			
0.8576	54889.26	3.4790	3.4790	0.2496	25.90	-0.05	0.750			
0.8584	54936.87	3.4760	3.4760	0.2449	25.91	-0.04	0.750			
0.8591	54983.22	3.4730	3.4730	0.2387	25.91	-0.04	0.750			
0.8598	55028.37	3.4700	3.4700	0.2337	25.92	-0.03	0.750			
0.8605	55072.69	3.4670	3.4670	0.2282	25.92	-0.03	0.750			
0.8612	55115.90	3.4640	3.4640	0.2224	25.93	-0.02	0.750			
0.8618	55158.19	3.4610	3.4609	0.2174	25.93	-0.02	0.750			
0.8625	55199.55	3.4580	3.4581	0.2128	25.94	-0.01	0.750			
0.8631	55239.64	3.4550	3.4550	0.2085	25.94	-0.01	0.750			
0.8637	55279.27	3.4520	3.4520	0.2031	25.94	-0.01	0.750			
0.8643	55317.88	3.4490	3.4489	0.1982	25.95	-0.00	0.750			
0.8649	55355.38	3.4460	3.4461	0.1933	25.95	0.00	0.750			
0.8655	55392.47	3.4430	3.4431	0.1880	25.96	0.01	0.750			
0.8661	55428.08	3.4400	3.4399	0.1831	25.96	0.01	0.750			
0.8666	55462.49	3.4370	3.4370	0.1776	25.96	0.01	0.750			
0.8671	55495.80	3.4340	3.4341	0.1718	25.97	0.02	0.750			
0.8676	55527.94	3.4310	3.4309	0.1665	25.97	0.02	0.750			
0.8681	55559.85	3.4280	3.4281	0.1616	25.97	0.02	0.750			
0.8686	55590.48	3.4250	3.4249	0.1561	25.97	0.02	0.750			
0.8691	55619.91	3.4220	3.4221	0.1505	25.98	0.03	0.750			
0.8695	55648.50	3.4190	3.4191	0.1452	25.98	0.03	0.750			
0.8699	55675.68	3.4160	3.4159	0.1389	25.98	0.03	0.750			
0.8703	55701.92	3.4130	3.4130	0.1326	25.99	0.04	0.750			
0.8707	55726.78	3.4100	3.4098	0.1263	25.99	0.04	0.750			
0.8711	55750.65	3.4070	3.4069	0.1195	25.99	0.04	0.750			
0.8715	55773.25	3.4040	3.4042	0.1132	25.99	0.04	0.750			
0.8718	55795.79	3.4010	3.4009	0.1028	26.00	0.05	0.750			
0.8721	55815.03	3.3980	3.3978	0.0946	26.00	0.05	0.750			
0.8724	55832.17	3.3950	3.3949	0.0838	26.00	0.05	0.750			
0.8726	55848.12	3.3920	3.3922	0.0744	26.00	0.05	0.750			
0.8728	55861.27	3.3890	3.3895	0.0626	26.00	0.05	0.750			
0.8730	55873.54	3.3860	3.3862	0.0508	26.00	0.05	0.750			
0.8732	55882.01	3.3830	3.3838	0.0374	26.00	0.05	0.750			
0.8732	55887.91	3.3800	3.3815	0.0240	26.00	0.05	0.750			
0.8733	55891.22	3.3770	3.3799	0.0106	26.01	0.06	0.750			
