Ah_balance (normalized)	Ah_balance (mAh)	Voltage - fit (V)	Voltage -  interpolate (V)	dQ/dV (1/V)	Temperature (°C)	Temperature - diff (°C)	Current (C)	R_DC 0ms (mOhm)	R_DC 50ms (mOhm)	R_DC 50 ms PEC (mOhm)
0.0486	3109.12	4.1990	4.1990	0.7645	26.76	0.81	0.750			
0.0509	3256.30	4.1960	4.1960	0.7684	26.76	0.81	0.750			
0.0532	3404.61	4.1930	4.1930	0.7732	26.76	0.81	0.750			
0.0555	3552.60	4.1900	4.1899	0.7776	26.76	0.81	0.750			
0.0579	3702.82	4.1870	4.1870	0.7787	26.76	0.81	0.750			
0.0602	3855.13	4.1840	4.1840	0.7754	26.76	0.81	0.750			
0.0625	4002.61	4.1810	4.1810	0.7796	26.76	0.81	0.750			
0.0649	4151.68	4.1780	4.1781	0.7791	26.76	0.81	0.750			
0.0672	4301.11	4.1750	4.1750	0.7786	26.76	0.81	0.750			
0.0695	4449.92	4.1720	4.1719	0.7805	26.76	0.81	0.750			
0.0719	4600.53	4.1690	4.1692	0.7789	26.76	0.81	0.750			
0.0742	4751.16	4.1660	4.1660	0.7837	26.76	0.81	0.750			
0.0766	4902.90	4.1630	4.1630	0.7904	26.76	0.81	0.750			
0.0789	5052.17	4.1600	4.1600	0.7874	26.76	0.81	0.750			
0.0813	5204.09	4.1570	4.1570	0.7916	26.76	0.81	0.750			
0.0837	5356.55	4.1540	4.1540	0.7955	26.76	0.81	0.750			
0.0861	5510.13	4.1510	4.1510	0.7925	26.76	0.81	0.750			
0.0885	5661.30	4.1480	4.1481	0.7977	26.76	0.81	0.750			
0.0908	5813.99	4.1450	4.1450	0.7962	26.76	0.81	0.750			
0.0932	5966.56	4.1420	4.1416	0.8003	26.76	0.81	0.750			
0.0956	6120.57	4.1390	4.1391	0.8009	26.76	0.81	0.750			
0.0981	6276.29	4.1360	4.1362	0.7953	26.76	0.81	0.750			
0.1005	6430.21	4.1330	4.1330	0.8013	26.76	0.81	0.750			
0.1028	6582.24	4.1300	4.1301	0.7947	26.76	0.81	0.750			
0.1052	6734.87	4.1270	4.1268	0.7993	26.76	0.81	0.750			
0.1076	6887.53	4.1240	4.1241	0.8032	26.76	0.81	0.750			
0.1100	7042.72	4.1210	4.1210	0.8060	26.76	0.81	0.750			
0.1125	7198.65	4.1180	4.1180	0.8098	26.77	0.82	0.750			
0.1149	7356.61	4.1150	4.1150	0.8146	26.77	0.82	0.750			
0.1173	7509.71	4.1120	4.1120	0.8171	26.77	0.82	0.750			
0.1198	7668.03	4.1090	4.1089	0.8200	26.77	0.82	0.750			
0.1223	7827.12	4.1060	4.1060	0.8136	26.77	0.82	0.750			
0.1247	7982.40	4.1030	4.1030	0.8202	26.76	0.81	0.750			
0.1272	8140.51	4.1000	4.1001	0.8265	26.76	0.81	0.750			
0.1297	8298.61	4.0970	4.0971	0.8251	26.76	0.81	0.750			
0.1322	8458.05	4.0940	4.0941	0.8243	26.76	0.81	0.750			
0.1346	8616.11	4.0910	4.0911	0.8208	26.76	0.81	0.750			
0.1371	8775.75	4.0880	4.0881	0.8268	26.77	0.82	0.750			
0.1396	8933.67	4.0850	4.0850	0.8329	26.77	0.82	0.750			
0.1420	9090.38	4.0820	4.0820	0.8308	26.77	0.82	0.750			
0.1446	9251.78	4.0790	4.0790	0.8328	26.77	0.82	0.750			
0.1471	9413.99	4.0760	4.0760	0.8358	26.77	0.82	0.750			
0.1496	9575.02	4.0730	4.0731	0.8381	26.77	0.82	0.750			
0.1521	9735.39	4.0700	4.0700	0.8422	26.77	0.82	0.750			
0.1546	9895.35	4.0670	4.0670	0.8428	26.77	0.82	0.750			
0.1571	10057.08	4.0640	4.0640	0.8463	26.77	0.82	0.750			
0.1597	10221.18	4.0610	4.0610	0.8490	26.77	0.82	0.750			
0.1623	10385.98	4.0580	4.0580	0.8591	26.78	0.83	0.750			
0.1649	10552.17	4.0550	4.0549	0.8616	26.78	0.83	0.750			
0.1674	10716.69	4.0520	4.0519	0.8630	26.78	0.83	0.750			
0.1700	10882.56	4.0490	4.0491	0.8650	26.78	0.83	0.750			
0.1726	11048.13	4.0460	4.0460	0.8701	26.78	0.83	0.750			
0.1753	11216.40	4.0430	4.0430	0.8726	26.78	0.83	0.750			
0.1779	11382.53	4.0400	4.0401	0.8743	26.78	0.83	0.750			
0.1805	11552.09	4.0370	4.0368	0.8803	26.78	0.83	0.750			
0.1832	11723.49	4.0340	4.0341	0.8846	26.78	0.83	0.750			
0.1858	11893.45	4.0310	4.0310	0.8854	26.78	0.83	0.750			
0.1885	12063.42	4.0280	4.0281	0.8906	26.79	0.84	0.750			
0.1912	12234.19	4.0250	4.0250	0.8932	26.79	0.84	0.750			
0.1938	12405.97	4.0220	4.0220	0.8945	26.79	0.84	0.750			
0.1965	12577.68	4.0190	4.0190	0.8909	26.79	0.84	0.750			
0.1992	12749.24	4.0160	4.0161	0.8965	26.79	0.84	0.750			
0.2019	12921.24	4.0130	4.0130	0.8965	26.79	0.84	0.750			
0.2046	13092.27	4.0100	4.0100	0.9016	26.79	0.84	0.750			
0.2073	13265.99	4.0070	4.0070	0.9022	26.79	0.84	0.750			
0.2100	13439.77	4.0040	4.0040	0.9044	26.79	0.84	0.750			
0.2127	13614.78	4.0010	4.0011	0.9071	26.80	0.85	0.750			
0.2155	13789.03	3.9980	3.9980	0.9119	26.80	0.85	0.750			
0.2182	13962.21	3.9950	3.9947	0.9155	26.80	0.85	0.750			
0.2210	14140.88	3.9920	3.9920	0.9098	26.80	0.85	0.750			
0.2237	14313.63	3.9890	3.9890	0.9143	26.80	0.85	0.750			
0.2264	14491.80	3.9860	3.9861	0.9231	26.80	0.85	0.750			
0.2292	14668.32	3.9830	3.9831	0.9255	26.80	0.85	0.750			
0.2320	14845.36	3.9800	3.9799	0.9260	26.80	0.85	0.750			
0.2347	15022.32	3.9770	3.9771	0.9268	26.80	0.85	0.750			
0.2375	15199.01	3.9740	3.9741	0.9354	26.80	0.85	0.750			
0.2403	15381.52	3.9710	3.9710	0.9450	26.80	0.85	0.750			
0.2432	15562.76	3.9680	3.9677	0.9437	26.80	0.85	0.750			
0.2461	15748.87	3.9650	3.9651	0.9382	26.80	0.85	0.750			
0.2489	15928.40	3.9620	3.9621	0.9400	26.80	0.85	0.750			
0.2517	16107.82	3.9590	3.9590	0.9447	26.81	0.86	0.750			
0.2545	16285.66	3.9560	3.9563	0.9360	26.81	0.86	0.750			
0.2573	16465.69	3.9530	3.9531	0.9418	26.81	0.86	0.750			
0.2601	16647.56	3.9500	3.9501	0.9433	26.81	0.86	0.750			
0.2629	16828.16	3.9470	3.9471	0.9536	26.82	0.87	0.750			
0.2659	17014.57	3.9440	3.9440	0.9644	26.82	0.87	0.750			
0.2687	17196.91	3.9410	3.9407	0.9593	26.82	0.87	0.750			
0.2716	17381.99	3.9380	3.9381	0.9616	26.82	0.87	0.750			
0.2745	17567.09	3.9350	3.9351	0.9688	26.82	0.87	0.750			
0.2774	17756.28	3.9320	3.9320	0.9749	26.82	0.87	0.750			
0.2803	17942.13	3.9290	3.9289	0.9697	26.82	0.87	0.750			
0.2833	18128.61	3.9260	3.9260	0.9659	26.82	0.87	0.750			
0.2862	18315.17	3.9230	3.9231	0.9727	26.82	0.87	0.750			
0.2891	18502.12	3.9200	3.9200	0.9759	26.82	0.87	0.750			
0.2920	18688.37	3.9170	3.9170	0.9780	26.82	0.87	0.750			
0.2950	18877.73	3.9140	3.9140	0.9768	26.82	0.87	0.750			
0.2979	19065.49	3.9110	3.9109	0.9844	26.82	0.87	0.750			
0.3009	19255.43	3.9080	3.9081	0.9868	26.82	0.87	0.750			
0.3038	19445.24	3.9050	3.9051	0.9954	26.82	0.87	0.750			
0.3068	19636.89	3.9020	3.9021	0.9908	26.82	0.87	0.750			
0.3098	19825.92	3.8990	3.8990	1.0010	26.82	0.87	0.750			
0.3128	20017.21	3.8960	3.8960	1.0055	26.82	0.87	0.750			
0.3158	20211.53	3.8930	3.8931	1.0128	26.82	0.87	0.750			
0.3189	20407.19	3.8900	3.8900	1.0180	26.82	0.87	0.750			
0.3219	20603.45	3.8870	3.8871	1.0192	26.82	0.87	0.750			
0.3250	20797.84	3.8840	3.8839	1.0213	26.82	0.87	0.750			
0.3281	20995.83	3.8810	3.8811	1.0292	26.82	0.87	0.750			
0.3311	21192.97	3.8780	3.8780	1.0259	26.82	0.87	0.750			
0.3342	21391.25	3.8750	3.8751	1.0280	26.82	0.87	0.750			
0.3373	21587.23	3.8720	3.8721	1.0380	26.82	0.87	0.750			
0.3404	21785.10	3.8690	3.8691	1.0506	26.82	0.87	0.750			
0.3436	21989.20	3.8660	3.8657	1.0593	26.82	0.87	0.750			
0.3468	22192.05	3.8630	3.8631	1.0632	26.82	0.87	0.750			
0.3500	22398.13	3.8600	3.8600	1.0672	26.81	0.86	0.750			
0.3532	22606.47	3.8570	3.8571	1.0780	26.81	0.86	0.750			
0.3564	22812.64	3.8540	3.8540	1.0715	26.81	0.86	0.750			
0.3596	23016.57	3.8510	3.8509	1.0820	26.81	0.86	0.750			
0.3629	23223.29	3.8480	3.8481	1.0903	26.80	0.85	0.750			
0.3662	23433.98	3.8450	3.8451	1.1105	26.80	0.85	0.750			
0.3696	23651.45	3.8420	3.8420	1.1171	26.80	0.85	0.750			
0.3729	23865.67	3.8390	3.8390	1.1377	26.79	0.84	0.750			
0.3763	24082.67	3.8360	3.8360	1.1557	26.79	0.84	0.750			
0.3798	24308.77	3.8330	3.8329	1.1682	26.78	0.83	0.750			
0.3833	24533.90	3.8300	3.8301	1.1824	26.78	0.83	0.750			
0.3869	24761.89	3.8270	3.8271	1.2087	26.77	0.82	0.750			
0.3906	24996.24	3.8240	3.8240	1.2265	26.76	0.81	0.750			
0.3943	25236.04	3.8210	3.8210	1.2268	26.76	0.81	0.750			
0.3980	25469.56	3.8180	3.8181	1.2455	26.75	0.80	0.750			
0.4017	25711.02	3.8150	3.8152	1.2647	26.74	0.79	0.750			
0.4056	25958.25	3.8120	3.8117	1.2787	26.73	0.78	0.750			
0.4094	26200.51	3.8090	3.8090	1.2941	26.72	0.77	0.750			
0.4133	26449.20	3.8060	3.8061	1.3189	26.71	0.76	0.750			
0.4173	26709.87	3.8030	3.8029	1.3381	26.70	0.75	0.750			
0.4214	26967.23	3.8000	3.8000	1.3620	26.69	0.74	0.750			
0.4255	27230.70	3.7970	3.7970	1.3802	26.68	0.73	0.750			
0.4297	27500.94	3.7940	3.7939	1.4005	26.67	0.72	0.750			
0.4339	27770.08	3.7910	3.7911	1.4253	26.66	0.71	0.750			
0.4382	28042.55	3.7880	3.7881	1.4356	26.65	0.70	0.750			
0.4425	28323.13	3.7850	3.7847	1.4386	26.63	0.68	0.750			
0.4469	28599.10	3.7820	3.7822	1.4395	26.62	0.67	0.750			
0.4512	28876.92	3.7790	3.7792	1.4591	26.61	0.66	0.750			
0.4556	29160.44	3.7760	3.7756	1.4727	26.60	0.65	0.750			
0.4600	29439.67	3.7730	3.7727	1.4763	26.59	0.64	0.750			
0.4645	29728.38	3.7700	3.7702	1.4886	26.57	0.62	0.750			
0.4690	30015.35	3.7670	3.7670	1.5348	26.56	0.61	0.750			
0.4736	30310.61	3.7640	3.7640	1.5604	26.54	0.59	0.750			
0.4783	30611.17	3.7610	3.7610	1.5663	26.53	0.58	0.750			
0.4831	30916.84	3.7580	3.7582	1.5992	26.51	0.56	0.750	0.307	0.376	
0.4879	31228.26	3.7550	3.7553	1.6469	26.50	0.55	0.750			
0.4930	31551.73	3.7520	3.7517	1.6571	26.48	0.53	0.750			
0.4980	31871.48	3.7490	3.7491	1.6754	26.46	0.51	0.750			
0.5031	32196.38	3.7460	3.7465	1.7084	26.45	0.50	0.750			
0.5083	32529.74	3.7430	3.7429	1.7483	26.43	0.48	0.750			
0.5135	32864.20	3.7400	3.7399	1.7980	26.41	0.46	0.750			
0.5189	33210.04	3.7370	3.7370	1.8346	26.39	0.44	0.750			
0.5246	33572.55	3.7340	3.7342	1.8876	26.37	0.42	0.750			
0.5303	33937.62	3.7310	3.7310	1.9304	26.35	0.40	0.750			
0.5362	34316.25	3.7280	3.7279	1.9755	26.33	0.38	0.750			
0.5422	34700.73	3.7250	3.7250	2.0268	26.31	0.36	0.750			
0.5484	35094.73	3.7220	3.7219	2.0888	26.29	0.34	0.750			
0.5546	35497.36	3.7190	3.7190	2.1186	26.27	0.32	0.750			
0.5611	35907.51	3.7160	3.7160	2.2061	26.25	0.30	0.750			
0.5679	36342.64	3.7130	3.7131	2.2642	26.23	0.28	0.750			
0.5747	36781.92	3.7100	3.7098	2.3398	26.21	0.26	0.750			
0.5819	37242.87	3.7070	3.7072	2.4212	26.19	0.24	0.750			
0.5893	37713.04	3.7040	3.7040	2.4608	26.16	0.21	0.750			
0.5968	38192.02	3.7010	3.7012	2.5241	26.14	0.19	0.750			
0.6043	38673.37	3.6980	3.6980	2.5590	26.11	0.16	0.750			
0.6121	39173.03	3.6950	3.6950	2.6507	26.09	0.14	0.750			
0.6200	39683.04	3.6920	3.6921	2.7292	26.07	0.12	0.750			
0.6285	40222.50	3.6890	3.6890	2.8104	26.05	0.10	0.750			
0.6371	40772.54	3.6860	3.6862	2.9326	26.03	0.08	0.750			
0.6460	41346.76	3.6830	3.6831	3.0208	26.01	0.06	0.750			
0.6552	41935.50	3.6800	3.6802	3.1549	25.99	0.04	0.750			
0.6649	42552.50	3.6770	3.6771	3.2545	25.96	0.01	0.750			
0.6748	43188.03	3.6740	3.6743	3.4081	25.93	-0.02	0.750			
0.6852	43854.40	3.6710	3.6710	3.5174	25.91	-0.04	0.750			
0.6960	44542.84	3.6680	3.6679	3.5735	25.89	-0.06	0.750			
0.7070	45251.00	3.6650	3.6649	3.5493	25.87	-0.08	0.750			
0.7179	45944.09	3.6620	3.6619	3.3096	25.85	-0.10	0.750			
0.7273	46548.76	3.6590	3.6591	2.9832	25.84	-0.11	0.750			
0.7357	47086.81	3.6560	3.6560	2.6169	25.84	-0.11	0.750			
0.7429	47545.28	3.6530	3.6529	2.3186	25.83	-0.12	0.750			
0.7491	47943.20	3.6500	3.6499	2.0581	25.83	-0.12	0.750			
0.7547	48300.47	3.6470	3.6468	1.8354	25.82	-0.13	0.750			
0.7598	48629.77	3.6440	3.6441	1.6757	25.82	-0.13	0.750			
0.7645	48930.91	3.6410	3.6412	1.5349	25.82	-0.13	0.750			
0.7690	49214.51	3.6380	3.6381	1.4386	25.82	-0.13	0.750			
0.7730	49471.43	3.6350	3.6350	1.3381	25.82	-0.13	0.750			
0.7767	49707.10	3.6320	3.6320	1.2745	25.81	-0.14	0.750			
0.7804	49945.60	3.6290	3.6286	1.2472	25.81	-0.14	0.750			
0.7840	50178.36	3.6260	3.6261	1.2360	25.81	-0.14	0.750			
0.7877	50414.54	3.6230	3.6230	1.2392	25.81	-0.14	0.750			
0.7915	50653.88	3.6200	3.6200	1.2476	25.81	-0.14	0.750			
0.7952	50895.37	3.6170	3.6170	1.2641	25.81	-0.14	0.750			
0.7990	51137.95	3.6140	3.6140	1.2675	25.81	-0.14	0.750			
0.8029	51385.15	3.6110	3.6110	1.2642	25.81	-0.14	0.750			
0.8067	51631.65	3.6080	3.6082	1.2498	25.81	-0.14	0.750			
0.8105	51869.44	3.6050	3.6050	1.2294	25.80	-0.15	0.750			
0.8141	52099.49	3.6020	3.6023	1.2242	25.80	-0.15	0.750			
0.8177	52332.88	3.5990	3.5987	1.2093	25.79	-0.16	0.750			
0.8212	52557.76	3.5960	3.5960	1.2137	25.79	-0.16	0.750			
0.8248	52789.14	3.5930	3.5930	1.2384	25.79	-0.16	0.750			
0.8286	53029.68	3.5900	3.5902	1.2743	25.79	-0.16	0.750			
0.8325	53279.67	3.5870	3.5870	1.3046	25.79	-0.16	0.750			
0.8364	53527.85	3.5840	3.5841	1.3480	25.78	-0.17	0.750			
0.8405	53791.82	3.5810	3.5811	1.3861	25.77	-0.18	0.750			
0.8447	54061.60	3.5780	3.5781	1.4273	25.77	-0.18	0.750			
0.8491	54339.61	3.5750	3.5751	1.4695	25.77	-0.18	0.750			
0.8535	54625.31	3.5720	3.5721	1.5067	25.77	-0.18	0.750			
0.8581	54920.31	3.5690	3.5689	1.5377	25.77	-0.18	0.750			
0.8629	55225.54	3.5660	3.5661	1.5697	25.76	-0.19	0.750			
0.8676	55525.13	3.5630	3.5629	1.5754	25.76	-0.19	0.750			
0.8724	55832.90	3.5600	3.5598	1.5993	25.76	-0.19	0.750			
0.8772	56142.83	3.5570	3.5573	1.6029	25.75	-0.20	0.750			
0.8820	56449.10	3.5540	3.5537	1.6080	25.75	-0.20	0.750			
0.8868	56757.58	3.5510	3.5509	1.6214	25.75	-0.20	0.750			
0.8917	57067.57	3.5480	3.5483	1.6459	25.75	-0.20	0.750			
0.8966	57384.53	3.5450	3.5451	1.6886	25.75	-0.20	0.750			
0.9018	57715.10	3.5420	3.5421	1.7058	25.75	-0.20	0.750			
0.9069	58038.41	3.5390	3.5388	1.7579	25.75	-0.20	0.750			
0.9126	58405.34	3.5360	3.5357	1.7618	25.76	-0.19	0.750			
0.9181	58759.82	3.5330	3.5328	1.6510	25.77	-0.18	0.750			
0.9233	59091.42	3.5300	3.5300	1.4917	25.78	-0.17	0.750			
0.9279	59385.83	3.5270	3.5277	1.2578	25.79	-0.16	0.750			
0.9313	59604.69	3.5240	3.5241	0.9792	25.80	-0.15	0.750			
0.9336	59750.16	3.5210	3.5205	0.7459	25.82	-0.13	0.750			
0.9349	59835.80	3.5180	3.5177	0.5192	25.82	-0.13	0.750			
0.9361	59911.96	3.5150	3.5148	0.4377	25.83	-0.12	0.750			
0.9372	59980.41	3.5120	3.5118	0.3768	25.84	-0.11	0.750			
0.9382	60043.36	3.5090	3.5089	0.3434	25.84	-0.11	0.750			
0.9392	60105.73	3.5060	3.5061	0.3232	25.85	-0.10	0.750			
0.9401	60164.88	3.5030	3.5030	0.3084	25.85	-0.10	0.750			
0.9410	60222.46	3.5000	3.5001	0.2977	25.86	-0.09	0.750			
0.9418	60277.89	3.4970	3.4969	0.2881	25.86	-0.09	0.750			
0.9427	60331.58	3.4940	3.4940	0.2789	25.87	-0.08	0.750			
0.9435	60384.40	3.4910	3.4911	0.2736	25.87	-0.08	0.750			
0.9443	60436.24	3.4880	3.4880	0.2678	25.88	-0.07	0.750			
0.9451	60487.12	3.4850	3.4850	0.2624	25.88	-0.07	0.750			
0.9459	60537.23	3.4820	3.4819	0.2565	25.89	-0.06	0.750			
0.9467	60586.08	3.4790	3.4791	0.2510	25.89	-0.06	0.750			
0.9474	60633.44	3.4760	3.4762	0.2460	25.90	-0.05	0.750			
0.9481	60680.17	3.4730	3.4729	0.2414	25.90	-0.05	0.750			
0.9488	60726.03	3.4700	3.4701	0.2364	25.91	-0.04	0.750			
0.9495	60770.72	3.4670	3.4669	0.2307	25.91	-0.04	0.750			
0.9502	60814.82	3.4640	3.4640	0.2266	25.91	-0.04	0.750			
0.9509	60858.14	3.4610	3.4610	0.2221	25.92	-0.03	0.750			
0.9516	60899.94	3.4580	3.4580	0.2175	25.92	-0.03	0.750			
0.9522	60940.95	3.4550	3.4550	0.2128	25.93	-0.02	0.750			
0.9528	60981.59	3.4520	3.4519	0.2086	25.93	-0.02	0.750			
0.9535	61021.25	3.4490	3.4490	0.2046	25.94	-0.01	0.750			
0.9541	61060.33	3.4460	3.4460	0.2000	25.94	-0.01	0.750			
0.9547	61098.67	3.4430	3.4430	0.1952	25.94	-0.01	0.750			
0.9552	61135.51	3.4400	3.4400	0.1905	25.95	-0.00	0.750			
0.9558	61171.62	3.4370	3.4370	0.1851	25.95	0.00	0.750			
0.9564	61206.52	3.4340	3.4338	0.1797	25.95	0.00	0.750			
0.9569	61240.41	3.4310	3.4310	0.1750	25.96	0.01	0.750			
0.9574	61273.57	3.4280	3.4282	0.1704	25.96	0.01	0.750			
0.9579	61305.86	3.4250	3.4250	0.1659	25.96	0.01	0.750			
0.9584	61337.32	3.4220	3.4219	0.1608	25.97	0.02	0.750			
0.9589	61367.89	3.4190	3.4190	0.1556	25.97	0.02	0.750			
0.9593	61397.37	3.4160	3.4160	0.1498	25.97	0.02	0.750			
0.9598	61425.92	3.4130	3.4130	0.1446	25.98	0.03	0.750			
0.9602	61452.92	3.4100	3.4100	0.1390	25.98	0.03	0.750			
0.9606	61479.10	3.4070	3.4070	0.1324	25.98	0.03	0.750			
0.9610	61503.97	3.4040	3.4039	0.1263	25.98	0.03	0.750			
0.9614	61527.75	3.4010	3.4010	0.1189	25.99	0.04	0.750			
0.9617	61550.13	3.3980	3.3982	0.1122	25.99	0.04	0.750			
0.9621	61572.03	3.3950	3.3949	0.1031	25.99	0.04	0.750			
0.9624	61591.34	3.3920	3.3919	0.0948	25.99	0.04	0.750			
0.9626	61608.53	3.3890	3.3892	0.0843	25.99	0.04	0.750			
0.9629	61623.87	3.3860	3.3863	0.0740	26.00	0.05	0.750			
0.9631	61638.00	3.3830	3.3832	0.0639	26.00	0.05	0.750			
0.9633	61649.13	3.3800	3.3805	0.0520	26.00	0.05	0.750			
0.9634	61657.98	3.3770	3.3779	0.0402	26.00	0.05	0.750			
0.9635	61664.55	3.3740	3.3757	0.0283	26.00	0.05	0.750			
