Ah_balance (normalized)	Ah_balance (mAh)	Voltage - fit (V)	Voltage -  interpolate (V)	dQ/dV (1/V)	Temperature (°C)	Temperature - diff (°C)	Current (C)	R_DC 0ms (mOhm)	R_DC 50ms (mOhm)	R_DC 50 ms PEC (mOhm)
0.0002	15.55	4.1570	4.1568	-0.0951	25.13	0.00	-0.750			
0.0006	39.40	4.1540	4.1539	-0.1415	25.13	0.00	-0.750			
0.0011	71.02	4.1510	4.1509	-0.1804	25.13	0.00	-0.750			
0.0017	109.81	4.1480	4.1480	-0.2160	25.13	-0.00	-0.750			
0.0024	154.99	4.1450	4.1452	-0.2499	25.13	-0.00	-0.750			
0.0032	206.51	4.1420	4.1420	-0.2810	25.13	-0.00	-0.750			
0.0041	264.77	4.1390	4.1390	-0.3148	25.13	-0.00	-0.750			
0.0051	328.34	4.1360	4.1360	-0.3439	25.13	-0.00	-0.750			
0.0062	397.74	4.1330	4.1330	-0.3732	25.13	-0.00	-0.750			
0.0074	472.88	4.1300	4.1300	-0.4001	25.13	-0.00	-0.750			
0.0086	552.14	4.1270	4.1271	-0.4282	25.12	-0.01	-0.750			
0.0100	638.63	4.1240	4.1239	-0.4509	25.12	-0.01	-0.750			
0.0114	727.29	4.1210	4.1210	-0.4730	25.12	-0.01	-0.750			
0.0128	819.71	4.1180	4.1179	-0.4945	25.12	-0.01	-0.750			
0.0143	917.64	4.1150	4.1151	-0.5141	25.12	-0.01	-0.750			
0.0159	1019.02	4.1120	4.1119	-0.5323	25.12	-0.01	-0.750			
0.0176	1123.23	4.1090	4.1091	-0.5462	25.11	-0.02	-0.750			
0.0192	1229.08	4.1060	4.1061	-0.5596	25.11	-0.02	-0.750			
0.0209	1338.74	4.1030	4.1030	-0.5746	25.11	-0.02	-0.750			
0.0227	1450.60	4.1000	4.1000	-0.5802	25.11	-0.02	-0.750			
0.0244	1562.89	4.0970	4.0968	-0.5889	25.10	-0.03	-0.750			
0.0262	1677.63	4.0940	4.0944	-0.6006	25.10	-0.03	-0.750			
0.0280	1793.09	4.0910	4.0909	-0.6095	25.10	-0.03	-0.750			
0.0299	1911.89	4.0880	4.0879	-0.6188	25.10	-0.03	-0.750			
0.0317	2031.13	4.0850	4.0850	-0.6265	25.10	-0.03	-0.750			
0.0336	2151.96	4.0820	4.0820	-0.6346	25.11	-0.02	-0.750			
0.0356	2276.12	4.0790	4.0790	-0.6407	25.11	-0.02	-0.750			
0.0375	2398.89	4.0760	4.0759	-0.6451	25.11	-0.02	-0.750			
0.0394	2522.98	4.0730	4.0730	-0.6483	25.11	-0.02	-0.750			
0.0414	2647.45	4.0700	4.0701	-0.6537	25.11	-0.02	-0.750			
0.0433	2773.85	4.0670	4.0669	-0.6593	25.11	-0.02	-0.750			
0.0453	2901.37	4.0640	4.0641	-0.6656	25.12	-0.01	-0.750			
0.0474	3031.49	4.0610	4.0609	-0.6651	25.12	-0.01	-0.750			
0.0494	3159.88	4.0580	4.0580	-0.6698	25.12	-0.01	-0.750			
0.0514	3287.50	4.0550	4.0552	-0.6705	25.12	-0.01	-0.750			
0.0534	3415.35	4.0520	4.0519	-0.6742	25.12	-0.01	-0.750			
0.0554	3543.55	4.0490	4.0489	-0.6782	25.12	-0.01	-0.750			
0.0574	3673.93	4.0460	4.0460	-0.6826	25.13	-0.00	-0.750			
0.0595	3808.46	4.0430	4.0430	-0.6882	25.13	-0.00	-0.750			
0.0616	3942.03	4.0400	4.0399	-0.6855	25.13	-0.00	-0.750			
0.0636	4071.16	4.0370	4.0374	-0.6891	25.13	-0.00	-0.750			
0.0657	4204.10	4.0340	4.0340	-0.6915	25.13	0.00	-0.750			
0.0677	4333.56	4.0310	4.0310	-0.6988	25.14	0.01	-0.750			
0.0698	4469.07	4.0280	4.0280	-0.7104	25.14	0.01	-0.750			
0.0720	4608.32	4.0250	4.0251	-0.7159	25.14	0.01	-0.750			
0.0742	4747.65	4.0220	4.0219	-0.7205	25.15	0.02	-0.750			
0.0764	4888.10	4.0190	4.0193	-0.7241	25.15	0.02	-0.750			
0.0785	5026.35	4.0160	4.0160	-0.7159	25.15	0.02	-0.750			
0.0807	5163.43	4.0130	4.0129	-0.7192	25.15	0.02	-0.750			
0.0828	5299.98	4.0100	4.0101	-0.7137	25.15	0.02	-0.750			
0.0850	5437.10	4.0070	4.0070	-0.7131	25.15	0.02	-0.750			
0.0871	5574.20	4.0040	4.0039	-0.7139	25.15	0.02	-0.750			
0.0892	5710.26	4.0010	4.0011	-0.7146	25.15	0.02	-0.750			
0.0914	5847.25	3.9980	3.9981	-0.7173	25.16	0.03	-0.750			
0.0935	5984.77	3.9950	3.9949	-0.7262	25.16	0.03	-0.750			
0.0957	6124.95	3.9920	3.9919	-0.7225	25.17	0.04	-0.750			
0.0979	6264.73	3.9890	3.9890	-0.7285	25.17	0.04	-0.750			
0.1001	6404.81	3.9860	3.9861	-0.7305	25.18	0.05	-0.750			
0.1023	6546.03	3.9830	3.9828	-0.7309	25.18	0.05	-0.750			
0.1045	6686.07	3.9800	3.9800	-0.7317	25.19	0.06	-0.750			
0.1066	6825.40	3.9770	3.9771	-0.7344	25.19	0.06	-0.750			
0.1089	6966.55	3.9740	3.9740	-0.7366	25.19	0.06	-0.750			
0.1111	7110.81	3.9710	3.9709	-0.7406	25.20	0.07	-0.750			
0.1133	7251.35	3.9680	3.9681	-0.7390	25.20	0.07	-0.750			
0.1155	7393.85	3.9650	3.9650	-0.7389	25.20	0.07	-0.750			
0.1178	7536.28	3.9620	3.9620	-0.7411	25.21	0.08	-0.750			
0.1200	7678.02	3.9590	3.9590	-0.7450	25.21	0.08	-0.750			
0.1222	7820.65	3.9560	3.9559	-0.7434	25.21	0.08	-0.750			
0.1244	7964.35	3.9530	3.9530	-0.7493	25.22	0.09	-0.750			
0.1267	8108.35	3.9500	3.9501	-0.7513	25.22	0.09	-0.750			
0.1289	8252.64	3.9470	3.9470	-0.7546	25.22	0.09	-0.750			
0.1312	8398.96	3.9440	3.9440	-0.7537	25.22	0.09	-0.750			
0.1335	8542.95	3.9410	3.9410	-0.7507	25.23	0.10	-0.750			
0.1357	8687.14	3.9380	3.9381	-0.7536	25.23	0.10	-0.750			
0.1380	8832.16	3.9350	3.9349	-0.7527	25.23	0.10	-0.750			
0.1402	8975.81	3.9320	3.9320	-0.7504	25.23	0.10	-0.750			
0.1425	9119.78	3.9290	3.9290	-0.7532	25.24	0.11	-0.750			
0.1447	9263.00	3.9260	3.9261	-0.7579	25.24	0.11	-0.750			
0.1470	9409.72	3.9230	3.9230	-0.7587	25.24	0.11	-0.750			
0.1493	9556.35	3.9200	3.9199	-0.7643	25.25	0.12	-0.750			
0.1516	9703.16	3.9170	3.9171	-0.7661	25.25	0.12	-0.750			
0.1539	9850.44	3.9140	3.9140	-0.7729	25.25	0.12	-0.750			
0.1562	9999.04	3.9110	3.9110	-0.7785	25.25	0.12	-0.750			
0.1586	10149.42	3.9080	3.9079	-0.7827	25.26	0.13	-0.750			
0.1609	10300.12	3.9050	3.9050	-0.7836	25.26	0.13	-0.750			
0.1633	10452.56	3.9020	3.9021	-0.7857	25.26	0.13	-0.750			
0.1657	10604.40	3.8990	3.8990	-0.7820	25.26	0.13	-0.750			
0.1680	10753.78	3.8960	3.8960	-0.7824	25.27	0.14	-0.750			
0.1703	10901.72	3.8930	3.8930	-0.7777	25.27	0.14	-0.750			
0.1727	11050.47	3.8900	3.8900	-0.7804	25.27	0.14	-0.750			
0.1750	11201.02	3.8870	3.8869	-0.7816	25.28	0.15	-0.750			
0.1774	11351.08	3.8840	3.8839	-0.7847	25.28	0.15	-0.750			
0.1797	11502.57	3.8810	3.8810	-0.7872	25.29	0.16	-0.750			
0.1821	11653.79	3.8780	3.8780	-0.7901	25.29	0.16	-0.750			
0.1845	11805.46	3.8750	3.8750	-0.7848	25.29	0.16	-0.750			
0.1868	11957.03	3.8720	3.8719	-0.7873	25.30	0.17	-0.750			
0.1892	12107.58	3.8690	3.8691	-0.7855	25.30	0.17	-0.750			
0.1915	12258.31	3.8660	3.8659	-0.7876	25.30	0.17	-0.750			
0.1939	12409.83	3.8630	3.8630	-0.7874	25.31	0.18	-0.750			
0.1963	12561.12	3.8600	3.8600	-0.7898	25.31	0.18	-0.750			
0.1986	12712.36	3.8570	3.8570	-0.7912	25.32	0.19	-0.750			
0.2010	12865.92	3.8540	3.8541	-0.7922	25.32	0.19	-0.750			
0.2034	13017.71	3.8510	3.8509	-0.7899	25.32	0.19	-0.750			
0.2058	13169.52	3.8480	3.8480	-0.7944	25.33	0.20	-0.750			
0.2082	13321.83	3.8450	3.8450	-0.7920	25.33	0.20	-0.750			
0.2105	13474.87	3.8420	3.8420	-0.7893	25.34	0.21	-0.750			
0.2129	13626.91	3.8390	3.8391	-0.7874	25.34	0.21	-0.750			
0.2153	13778.20	3.8360	3.8359	-0.7827	25.34	0.21	-0.750			
0.2176	13928.43	3.8330	3.8330	-0.7793	25.35	0.22	-0.750			
0.2199	14076.33	3.8300	3.8300	-0.7759	25.35	0.22	-0.750			
0.2222	14222.66	3.8270	3.8270	-0.7738	25.35	0.22	-0.750			
0.2246	14373.53	3.8240	3.8240	-0.7774	25.36	0.23	-0.750			
0.2269	14522.99	3.8210	3.8210	-0.7777	25.36	0.23	-0.750			
0.2293	14673.49	3.8180	3.8181	-0.7742	25.37	0.24	-0.750			
0.2316	14822.76	3.8150	3.8150	-0.7694	25.37	0.24	-0.750			
0.2339	14969.53	3.8120	3.8121	-0.7639	25.37	0.24	-0.750			
0.2362	15114.67	3.8090	3.8090	-0.7598	25.38	0.25	-0.750			
0.2384	15258.92	3.8060	3.8060	-0.7610	25.38	0.25	-0.750			
0.2407	15405.32	3.8030	3.8030	-0.7585	25.38	0.25	-0.750			
0.2430	15550.56	3.8000	3.8000	-0.7593	25.38	0.25	-0.750			
0.2453	15698.83	3.7970	3.7970	-0.7577	25.39	0.26	-0.750			
0.2476	15844.85	3.7940	3.7940	-0.7489	25.39	0.26	-0.750			
0.2498	15987.77	3.7910	3.7909	-0.7406	25.39	0.26	-0.750			
0.2520	16128.73	3.7880	3.7880	-0.7319	25.39	0.26	-0.750			
0.2542	16265.95	3.7850	3.7851	-0.7268	25.39	0.26	-0.750			
0.2563	16405.92	3.7820	3.7820	-0.7278	25.39	0.26	-0.750			
0.2585	16544.30	3.7790	3.7790	-0.7261	25.40	0.27	-0.750			
0.2607	16685.04	3.7760	3.7760	-0.7286	25.40	0.27	-0.750			
0.2629	16825.78	3.7730	3.7730	-0.7314	25.40	0.27	-0.750			
0.2651	16966.07	3.7700	3.7699	-0.7293	25.40	0.27	-0.750			
0.2673	17105.22	3.7670	3.7670	-0.7317	25.41	0.28	-0.750			
0.2695	17245.25	3.7640	3.7640	-0.7351	25.41	0.28	-0.750			
0.2717	17388.35	3.7610	3.7609	-0.7333	25.41	0.28	-0.750			
0.2739	17530.65	3.7580	3.7580	-0.7341	25.42	0.29	-0.750			
0.2761	17671.23	3.7550	3.7553	-0.7326	25.42	0.29	-0.750			
0.2783	17810.78	3.7520	3.7520	-0.7326	25.42	0.29	-0.750			
0.2804	17948.74	3.7490	3.7490	-0.7403	25.42	0.29	-0.750			
0.2827	18090.91	3.7460	3.7459	-0.7438	25.42	0.29	-0.750			
0.2849	18234.72	3.7430	3.7430	-0.7561	25.42	0.29	-0.750			
0.2872	18381.25	3.7400	3.7399	-0.7663	25.42	0.29	-0.750			
0.2895	18529.66	3.7370	3.7370	-0.7764	25.42	0.29	-0.750			
0.2919	18679.53	3.7340	3.7339	-0.7856	25.43	0.30	-0.750			
0.2942	18830.11	3.7310	3.7310	-0.7895	25.43	0.30	-0.750			
0.2966	18981.25	3.7280	3.7280	-0.7976	25.43	0.30	-0.750			
0.2990	19137.63	3.7250	3.7250	-0.8174	25.44	0.31	-0.750			
0.3015	19295.29	3.7220	3.7221	-0.8266	25.44	0.31	-0.750			
0.3040	19454.71	3.7190	3.7190	-0.8411	25.44	0.31	-0.750			
0.3065	19618.60	3.7160	3.7159	-0.8515	25.44	0.31	-0.750			
0.3091	19782.31	3.7130	3.7131	-0.8696	25.43	0.30	-0.750			
0.3117	19951.47	3.7100	3.7099	-0.8832	25.43	0.30	-0.750			
0.3144	20121.58	3.7070	3.7069	-0.8910	25.43	0.30	-0.750			
0.3171	20292.98	3.7040	3.7041	-0.9090	25.43	0.30	-0.750			
0.3198	20470.16	3.7010	3.7011	-0.9244	25.43	0.30	-0.750			
0.3226	20649.51	3.6980	3.6979	-0.9362	25.42	0.29	-0.750			
0.3255	20831.14	3.6950	3.6951	-0.9558	25.42	0.29	-0.750			
0.3283	21012.97	3.6920	3.6920	-0.9771	25.42	0.29	-0.750			
0.3313	21204.24	3.6890	3.6889	-0.9970	25.41	0.28	-0.750			
0.3343	21397.81	3.6860	3.6859	-1.0147	25.41	0.28	-0.750			
0.3374	21594.47	3.6830	3.6830	-1.0211	25.40	0.27	-0.750			
0.3405	21794.06	3.6800	3.6800	-1.0494	25.40	0.27	-0.750			
0.3437	21996.65	3.6770	3.6770	-1.0637	25.39	0.26	-0.750			
0.3469	22198.69	3.6740	3.6740	-1.0791	25.39	0.26	-0.750			
0.3501	22406.98	3.6710	3.6710	-1.1016	25.38	0.25	-0.750			
0.3535	22622.51	3.6680	3.6680	-1.1288	25.38	0.25	-0.750			
0.3569	22843.16	3.6650	3.6650	-1.1490	25.37	0.24	-0.750			
0.3604	23066.15	3.6620	3.6620	-1.1716	25.37	0.24	-0.750			
0.3639	23292.18	3.6590	3.6591	-1.1867	25.36	0.23	-0.750			
0.3675	23522.71	3.6560	3.6560	-1.2117	25.35	0.22	-0.750			
0.3712	23756.75	3.6530	3.6529	-1.2324	25.35	0.22	-0.750			
0.3749	23992.92	3.6500	3.6500	-1.2634	25.34	0.21	-0.750			
0.3788	24240.29	3.6470	3.6469	-1.2881	25.33	0.20	-0.750			
0.3827	24491.49	3.6440	3.6440	-1.3091	25.32	0.19	-0.750			
0.3866	24743.26	3.6410	3.6410	-1.3382	25.31	0.18	-0.750			
0.3907	25005.83	3.6380	3.6380	-1.3540	25.31	0.18	-0.750			
0.3948	25268.02	3.6350	3.6349	-1.3696	25.30	0.17	-0.750			
0.3989	25530.37	3.6320	3.6319	-1.3976	25.29	0.16	-0.750			
0.4031	25797.76	3.6290	3.6290	-1.4145	25.29	0.16	-0.750			
0.4074	26075.87	3.6260	3.6259	-1.4404	25.28	0.15	-0.750			
0.4118	26353.51	3.6230	3.6230	-1.4743	25.28	0.15	-0.750			
0.4161	26633.33	3.6200	3.6199	-1.5125	25.28	0.15	-0.750			
0.4209	26934.46	3.6170	3.6170	-1.5514	25.27	0.14	-0.750			
0.4256	27237.51	3.6140	3.6140	-1.5662	25.26	0.13	-0.750			
0.4303	27537.96	3.6110	3.6100	-1.5951	25.25	0.12	-0.750	0.392	0.565	
0.4351	27846.41	3.6080	3.6080	-1.6260	25.25	0.12	-0.750			
0.4400	28163.11	3.6050	3.6049	-1.6554	25.24	0.11	-0.750			
0.4450	28478.06	3.6020	3.6020	-1.6961	25.23	0.10	-0.750			
0.4501	28806.92	3.5990	3.5989	-1.7461	25.23	0.10	-0.750			
0.4555	29153.28	3.5960	3.5960	-1.8024	25.23	0.10	-0.750			
0.4611	29508.27	3.5930	3.5931	-1.8393	25.22	0.09	-0.750			
0.4666	29865.55	3.5900	3.5901	-1.8483	25.22	0.09	-0.750			
0.4722	30223.44	3.5870	3.5871	-1.8848	25.21	0.08	-0.750			
0.4779	30587.89	3.5840	3.5839	-1.9086	25.21	0.08	-0.750			
0.4836	30951.25	3.5810	3.5810	-1.9450	25.20	0.07	-0.750			
0.4895	31328.95	3.5780	3.5780	-1.9652	25.20	0.07	-0.750			
0.4955	31712.17	3.5750	3.5750	-1.9850	25.20	0.07	-0.750			
0.5015	32099.00	3.5720	3.5721	-2.0219	25.20	0.07	-0.750			
0.5077	32491.13	3.5690	3.5689	-2.0348	25.19	0.06	-0.750			
0.5137	32877.21	3.5660	3.5662	-2.0519	25.19	0.06	-0.750			
0.5199	33271.11	3.5630	3.5629	-2.0905	25.18	0.05	-0.750			
0.5261	33672.83	3.5600	3.5601	-2.1020	25.18	0.05	-0.750			
0.5326	34084.30	3.5570	3.5571	-2.1231	25.19	0.06	-0.750			
0.5391	34504.30	3.5540	3.5540	-2.1303	25.19	0.06	-0.750			
0.5454	34906.83	3.5510	3.5508	-2.1044	25.20	0.07	-0.750			
0.5517	35310.79	3.5480	3.5482	-2.1195	25.20	0.07	-0.750			
0.5580	35713.20	3.5450	3.5452	-2.1228	25.19	0.06	-0.750			
0.5644	36121.02	3.5420	3.5419	-2.0990	25.19	0.06	-0.750			
0.5707	36524.94	3.5390	3.5392	-2.0857	25.20	0.07	-0.750			
0.5770	36928.46	3.5360	3.5361	-2.0737	25.20	0.07	-0.750			
0.5834	37336.92	3.5330	3.5328	-2.0629	25.21	0.08	-0.750			
0.5894	37720.72	3.5300	3.5301	-1.9944	25.22	0.09	-0.750			
0.5954	38102.43	3.5270	3.5269	-1.9611	25.23	0.10	-0.750			
0.6012	38477.69	3.5240	3.5241	-1.9304	25.23	0.10	-0.750			
0.6069	38842.96	3.5210	3.5207	-1.9007	25.24	0.11	-0.750			
0.6126	39205.21	3.5180	3.5182	-1.8665	25.26	0.13	-0.750			
0.6182	39564.17	3.5150	3.5149	-1.7984	25.26	0.13	-0.750			
0.6236	39911.18	3.5120	3.5119	-1.7565	25.27	0.14	-0.750			
0.6287	40238.90	3.5090	3.5090	-1.7015	25.28	0.15	-0.750			
0.6337	40557.81	3.5060	3.5061	-1.6622	25.29	0.16	-0.750			
0.6386	40870.15	3.5030	3.5030	-1.6204	25.30	0.17	-0.750			
0.6434	41175.26	3.5000	3.5001	-1.5766	25.32	0.19	-0.750			
0.6481	41480.48	3.4970	3.4970	-1.5484	25.33	0.20	-0.750			
0.6528	41780.85	3.4940	3.4938	-1.5171	25.34	0.21	-0.750			
0.6573	42067.68	3.4910	3.4912	-1.4664	25.35	0.22	-0.750			
0.6616	42341.70	3.4880	3.4879	-1.4159	25.37	0.24	-0.750			
0.6658	42610.04	3.4850	3.4849	-1.3759	25.38	0.25	-0.750			
0.6699	42871.00	3.4820	3.4820	-1.3362	25.40	0.27	-0.750			
0.6738	43121.78	3.4790	3.4788	-1.2927	25.41	0.28	-0.750			
0.6775	43362.60	3.4760	3.4761	-1.2421	25.43	0.30	-0.750			
0.6813	43603.45	3.4730	3.4730	-1.2167	25.44	0.31	-0.750			
0.6849	43830.44	3.4700	3.4700	-1.1773	25.46	0.33	-0.750			
0.6883	44051.17	3.4670	3.4670	-1.1319	25.48	0.35	-0.750			
0.6917	44266.58	3.4640	3.4640	-1.1108	25.49	0.36	-0.750			
0.6950	44478.19	3.4610	3.4609	-1.0738	25.51	0.38	-0.750			
0.6981	44681.55	3.4580	3.4580	-1.0412	25.53	0.40	-0.750			
0.7012	44879.91	3.4550	3.4552	-1.0036	25.54	0.41	-0.750			
0.7042	45066.35	3.4520	3.4519	-0.9747	25.55	0.42	-0.750			
0.7070	45249.90	3.4490	3.4490	-0.9474	25.56	0.43	-0.750			
0.7098	45426.39	3.4460	3.4460	-0.9232	25.57	0.44	-0.750			
0.7125	45601.34	3.4430	3.4429	-0.9041	25.58	0.45	-0.750			
0.7152	45773.84	3.4400	3.4400	-0.8889	25.59	0.46	-0.750			
0.7178	45941.35	3.4370	3.4370	-0.8735	25.60	0.47	-0.750			
0.7204	46107.97	3.4340	3.4340	-0.8627	25.61	0.48	-0.750			
0.7230	46270.07	3.4310	3.4310	-0.8489	25.62	0.49	-0.750			
0.7255	46433.62	3.4280	3.4279	-0.8469	25.63	0.50	-0.750			
0.7281	46595.44	3.4250	3.4249	-0.8397	25.64	0.51	-0.750			
0.7306	46756.28	3.4220	3.4221	-0.8425	25.64	0.51	-0.750			
0.7331	46916.39	3.4190	3.4189	-0.8442	25.65	0.52	-0.750			
0.7356	47077.82	3.4160	3.4158	-0.8464	25.66	0.53	-0.750			
0.7381	47240.98	3.4130	3.4131	-0.8535	25.67	0.54	-0.750			
0.7407	47406.46	3.4100	3.4099	-0.8518	25.68	0.55	-0.750			
0.7433	47572.27	3.4070	3.4070	-0.8576	25.69	0.56	-0.750			
0.7459	47737.87	3.4040	3.4040	-0.8556	25.69	0.56	-0.750			
0.7485	47901.01	3.4010	3.4009	-0.8423	25.70	0.57	-0.750			
0.7510	48064.85	3.3980	3.3981	-0.8355	25.71	0.58	-0.750			
0.7535	48225.00	3.3950	3.3950	-0.8228	25.72	0.59	-0.750			
0.7560	48383.08	3.3920	3.3921	-0.8070	25.73	0.60	-0.750			
0.7584	48538.28	3.3890	3.3888	-0.7855	25.73	0.60	-0.750			
0.7607	48684.75	3.3860	3.3860	-0.7640	25.74	0.61	-0.750			
0.7630	48830.48	3.3830	3.3831	-0.7423	25.75	0.62	-0.750			
0.7652	48970.39	3.3800	3.3799	-0.7223	25.75	0.62	-0.750			
0.7673	49107.20	3.3770	3.3770	-0.7000	25.76	0.63	-0.750			
0.7694	49238.96	3.3740	3.3741	-0.6812	25.76	0.63	-0.750			
0.7714	49368.52	3.3710	3.3709	-0.6569	25.76	0.63	-0.750			
0.7733	49494.02	3.3680	3.3681	-0.6392	25.77	0.64	-0.750			
0.7752	49613.86	3.3650	3.3649	-0.6120	25.77	0.64	-0.750			
0.7770	49730.63	3.3620	3.3620	-0.5907	25.77	0.64	-0.750			
0.7787	49839.29	3.3590	3.3590	-0.5719	25.78	0.65	-0.750			
0.7804	49946.29	3.3560	3.3559	-0.5511	25.79	0.66	-0.750			
0.7820	50050.32	3.3530	3.3529	-0.5352	25.79	0.66	-0.750			
0.7836	50152.22	3.3500	3.3500	-0.5231	25.80	0.67	-0.750			
0.7852	50250.93	3.3470	3.3471	-0.5080	25.81	0.68	-0.750			
0.7867	50348.60	3.3440	3.3441	-0.4946	25.81	0.68	-0.750			
0.7882	50441.96	3.3410	3.3410	-0.4788	25.82	0.69	-0.750			
0.7896	50531.47	3.3380	3.3379	-0.4625	25.82	0.69	-0.750			
0.7909	50619.58	3.3350	3.3350	-0.4477	25.83	0.70	-0.750			
0.7922	50702.72	3.3320	3.3320	-0.4318	25.83	0.70	-0.750			
0.7935	50784.24	3.3290	3.3291	-0.4169	25.84	0.71	-0.750			
0.7947	50862.79	3.3260	3.3260	-0.4069	25.84	0.71	-0.750			
0.7959	50939.77	3.3230	3.3229	-0.3968	25.85	0.72	-0.750			
0.7971	51014.35	3.3200	3.3200	-0.3859	25.85	0.72	-0.750			
0.7982	51087.91	3.3170	3.3170	-0.3763	25.86	0.73	-0.750			
0.7994	51160.19	3.3140	3.3141	-0.3686	25.86	0.73	-0.750			
0.8005	51229.60	3.3110	3.3110	-0.3581	25.87	0.74	-0.750			
0.8015	51297.66	3.3080	3.3079	-0.3480	25.87	0.74	-0.750			
0.8025	51362.96	3.3050	3.3050	-0.3364	25.88	0.75	-0.750			
0.8035	51425.92	3.3020	3.3021	-0.3304	25.88	0.75	-0.750			
0.8045	51488.43	3.2990	3.2991	-0.3244	25.89	0.76	-0.750			
0.8055	51550.41	3.2960	3.2959	-0.3163	25.89	0.76	-0.750			
0.8064	51609.95	3.2930	3.2930	-0.3110	25.90	0.77	-0.750			
0.8073	51668.96	3.2900	3.2902	-0.3067	25.90	0.77	-0.750			
0.8082	51727.74	3.2870	3.2868	-0.3021	25.90	0.77	-0.750			
0.8091	51785.53	3.2840	3.2839	-0.2967	25.91	0.78	-0.750			
0.8100	51841.48	3.2810	3.2810	-0.2907	25.91	0.78	-0.750			
0.8109	51897.19	3.2780	3.2781	-0.2864	25.92	0.79	-0.750			
0.8118	51952.34	3.2750	3.2749	-0.2813	25.92	0.79	-0.750			
0.8126	52004.84	3.2720	3.2720	-0.2744	25.93	0.80	-0.750			
0.8134	52057.19	3.2690	3.2688	-0.2696	25.93	0.80	-0.750			
0.8142	52108.56	3.2660	3.2660	-0.2649	25.93	0.80	-0.750			
0.8150	52158.82	3.2630	3.2630	-0.2603	25.94	0.81	-0.750			
0.8158	52208.23	3.2600	3.2600	-0.2552	25.94	0.81	-0.750			
0.8165	52256.35	3.2570	3.2570	-0.2514	25.95	0.82	-0.750			
0.8173	52304.36	3.2540	3.2540	-0.2478	25.95	0.82	-0.750			
0.8180	52350.92	3.2510	3.2510	-0.2458	25.96	0.83	-0.750			
0.8187	52398.43	3.2480	3.2479	-0.2421	25.96	0.83	-0.750			
0.8194	52444.44	3.2450	3.2450	-0.2401	25.97	0.84	-0.750			
0.8202	52490.31	3.2420	3.2420	-0.2377	25.97	0.84	-0.750			
0.8209	52535.66	3.2390	3.2392	-0.2354	25.98	0.85	-0.750			
0.8216	52580.92	3.2360	3.2359	-0.2329	25.98	0.85	-0.750			
0.8223	52625.17	3.2330	3.2329	-0.2298	25.99	0.86	-0.750			
0.8230	52669.17	3.2300	3.2301	-0.2273	25.99	0.86	-0.750			
0.8236	52712.22	3.2270	3.2271	-0.2235	25.99	0.86	-0.750			
0.8243	52756.01	3.2240	3.2239	-0.2210	26.00	0.87	-0.750			
0.8250	52797.25	3.2210	3.2210	-0.2164	26.00	0.87	-0.750			
0.8256	52838.26	3.2180	3.2181	-0.2141	26.01	0.88	-0.750			
0.8262	52878.97	3.2150	3.2151	-0.2115	26.01	0.88	-0.750			
0.8269	52919.30	3.2120	3.2119	-0.2087	26.02	0.89	-0.750			
0.8275	52958.95	3.2090	3.2091	-0.2064	26.02	0.89	-0.750			
0.8281	52998.46	3.2060	3.2061	-0.2047	26.03	0.90	-0.750			
0.8287	53037.75	3.2030	3.2030	-0.2031	26.04	0.91	-0.750			
0.8293	53076.83	3.2000	3.2000	-0.2009	26.04	0.91	-0.750			
0.8299	53114.95	3.1970	3.1970	-0.1984	26.05	0.92	-0.750			
0.8305	53152.82	3.1940	3.1940	-0.1958	26.05	0.92	-0.750			
0.8311	53190.21	3.1910	3.1910	-0.1936	26.06	0.93	-0.750			
0.8317	53227.39	3.1880	3.1879	-0.1916	26.06	0.93	-0.750			
0.8322	53263.73	3.1850	3.1850	-0.1892	26.07	0.94	-0.750			
0.8328	53299.79	3.1820	3.1820	-0.1870	26.07	0.94	-0.750			
0.8334	53335.51	3.1790	3.1790	-0.1851	26.08	0.95	-0.750			
0.8339	53370.84	3.1760	3.1760	-0.1837	26.09	0.96	-0.750			
0.8345	53405.83	3.1730	3.1730	-0.1817	26.09	0.96	-0.750			
0.8350	53440.71	3.1700	3.1700	-0.1803	26.10	0.97	-0.750			
0.8355	53475.16	3.1670	3.1670	-0.1786	26.10	0.97	-0.750			
0.8361	53509.34	3.1640	3.1640	-0.1765	26.11	0.98	-0.750			
0.8366	53543.01	3.1610	3.1610	-0.1749	26.11	0.98	-0.750			
0.8371	53576.49	3.1580	3.1580	-0.1730	26.12	0.99	-0.750			
0.8376	53609.50	3.1550	3.1550	-0.1709	26.12	0.99	-0.750			
0.8382	53641.82	3.1520	3.1519	-0.1700	26.13	1.00	-0.750			
0.8387	53674.62	3.1490	3.1490	-0.1677	26.13	1.00	-0.750			
0.8392	53706.54	3.1460	3.1460	-0.1663	26.14	1.01	-0.750			
0.8397	53738.30	3.1430	3.1430	-0.1646	26.14	1.01	-0.750			
0.8402	53769.71	3.1400	3.1401	-0.1636	26.15	1.02	-0.750			
0.8406	53800.80	3.1370	3.1369	-0.1622	26.15	1.02	-0.750			
0.8411	53832.16	3.1340	3.1339	-0.1607	26.16	1.03	-0.750			
0.8416	53862.85	3.1310	3.1310	-0.1590	26.16	1.03	-0.750			
0.8421	53893.02	3.1280	3.1280	-0.1574	26.17	1.04	-0.750			
0.8426	53923.82	3.1250	3.1250	-0.1562	26.17	1.04	-0.750			
0.8430	53953.01	3.1220	3.1220	-0.1539	26.18	1.05	-0.750			
0.8435	53982.40	3.1190	3.1189	-0.1523	26.18	1.05	-0.750			
0.8439	54011.24	3.1160	3.1161	-0.1508	26.19	1.06	-0.750			
0.8444	54039.93	3.1130	3.1129	-0.1495	26.19	1.06	-0.750			
0.8448	54068.72	3.1100	3.1100	-0.1491	26.20	1.07	-0.750			
0.8453	54097.30	3.1070	3.1071	-0.1478	26.20	1.07	-0.750			
0.8457	54125.44	3.1040	3.1040	-0.1467	26.21	1.08	-0.750			
0.8462	54153.84	3.1010	3.1010	-0.1462	26.21	1.08	-0.750			
0.8466	54181.76	3.0980	3.0979	-0.1446	26.22	1.09	-0.750			
0.8470	54209.03	3.0950	3.0950	-0.1433	26.22	1.09	-0.750			
0.8474	54236.45	3.0920	3.0920	-0.1427	26.23	1.10	-0.750			
0.8479	54263.68	3.0890	3.0891	-0.1419	26.23	1.10	-0.750			
0.8483	54290.99	3.0860	3.0859	-0.1406	26.24	1.11	-0.750			
0.8487	54317.98	3.0830	3.0830	-0.1397	26.24	1.11	-0.750			
0.8491	54344.66	3.0800	3.0800	-0.1385	26.25	1.12	-0.750			
0.8495	54371.15	3.0770	3.0771	-0.1374	26.25	1.12	-0.750			
0.8500	54397.62	3.0740	3.0740	-0.1362	26.26	1.13	-0.750			
0.8504	54423.53	3.0710	3.0710	-0.1346	26.26	1.13	-0.750			
0.8508	54449.19	3.0680	3.0680	-0.1332	26.27	1.14	-0.750			
0.8512	54474.67	3.0650	3.0651	-0.1320	26.27	1.14	-0.750			
0.8516	54500.04	3.0620	3.0620	-0.1309	26.28	1.15	-0.750			
0.8519	54524.76	3.0590	3.0590	-0.1300	26.28	1.15	-0.750			
0.8523	54549.74	3.0560	3.0561	-0.1291	26.29	1.16	-0.750			
0.8527	54574.37	3.0530	3.0530	-0.1282	26.30	1.17	-0.750			
0.8531	54598.94	3.0500	3.0500	-0.1277	26.30	1.17	-0.750			
0.8535	54623.38	3.0470	3.0471	-0.1269	26.31	1.18	-0.750			
0.8539	54647.67	3.0440	3.0441	-0.1262	26.31	1.18	-0.750			
0.8542	54671.89	3.0410	3.0409	-0.1256	26.32	1.19	-0.750			
0.8546	54695.92	3.0380	3.0380	-0.1247	26.32	1.19	-0.750			
0.8550	54719.64	3.0350	3.0350	-0.1237	26.33	1.20	-0.750			
0.8554	54743.39	3.0320	3.0321	-0.1229	26.34	1.21	-0.750			
0.8557	54767.10	3.0290	3.0289	-0.1223	26.34	1.21	-0.750			
0.8561	54790.49	3.0260	3.0260	-0.1212	26.35	1.22	-0.750			
0.8565	54813.62	3.0230	3.0229	-0.1201	26.35	1.22	-0.750			
0.8568	54836.64	3.0200	3.0200	-0.1189	26.36	1.23	-0.750			
0.8572	54859.42	3.0170	3.0171	-0.1178	26.36	1.23	-0.750			
0.8575	54881.93	3.0140	3.0142	-0.1164	26.37	1.24	-0.750			
0.8579	54904.25	3.0110	3.0109	-0.1151	26.38	1.25	-0.750			
0.8582	54926.19	3.0080	3.0079	-0.1136	26.38	1.25	-0.751			
0.8586	54947.87	3.0050	3.0050	-0.1119	26.39	1.26	-0.751			
0.8589	54969.21	3.0020	3.0020	-0.1102	26.39	1.26	-0.751			
