Ah_balance (normalized)	Ah_balance (mAh)	Voltage - fit (V)	Voltage -  interpolate (V)	dQ/dV (1/V)	Temperature (°C)	Temperature - diff (°C)	Current (C)	R_DC 0ms (mOhm)	R_DC 50ms (mOhm)	R_DC 50 ms PEC (mOhm)
0.0003	18.81	4.1560	4.1558	-0.1011	25.30	0.02	-0.750			
0.0007	43.19	4.1530	4.1528	-0.1438	25.30	0.02	-0.750			
0.0012	74.81	4.1500	4.1499	-0.1811	25.30	0.02	-0.750			
0.0018	114.14	4.1470	4.1470	-0.2150	25.30	0.02	-0.750			
0.0025	158.89	4.1440	4.1441	-0.2471	25.30	0.02	-0.750			
0.0033	210.48	4.1410	4.1410	-0.2802	25.29	0.01	-0.750			
0.0042	267.14	4.1380	4.1381	-0.3100	25.29	0.01	-0.750			
0.0051	329.43	4.1350	4.1349	-0.3391	25.29	0.01	-0.750			
0.0062	397.35	4.1320	4.1320	-0.3677	25.29	0.01	-0.750			
0.0074	470.52	4.1290	4.1290	-0.3975	25.29	0.01	-0.750			
0.0086	550.73	4.1260	4.1260	-0.4227	25.29	0.01	-0.750			
0.0099	635.60	4.1230	4.1229	-0.4471	25.28	0.00	-0.750			
0.0113	723.53	4.1200	4.1200	-0.4690	25.28	0.00	-0.750			
0.0128	816.35	4.1170	4.1171	-0.4889	25.28	-0.00	-0.750			
0.0143	912.80	4.1140	4.1139	-0.5043	25.28	-0.00	-0.750			
0.0158	1011.09	4.1110	4.1110	-0.5198	25.27	-0.01	-0.750			
0.0174	1112.29	4.1080	4.1081	-0.5344	25.27	-0.01	-0.750			
0.0190	1216.62	4.1050	4.1050	-0.5548	25.27	-0.01	-0.750			
0.0207	1325.44	4.1020	4.1019	-0.5679	25.27	-0.01	-0.750			
0.0224	1436.73	4.0990	4.0990	-0.5754	25.26	-0.02	-0.750			
0.0242	1549.46	4.0960	4.0961	-0.5864	25.26	-0.02	-0.750			
0.0260	1662.57	4.0930	4.0930	-0.5950	25.26	-0.02	-0.750			
0.0278	1776.80	4.0900	4.0900	-0.6007	25.26	-0.02	-0.750			
0.0296	1892.32	4.0870	4.0869	-0.6073	25.26	-0.02	-0.750			
0.0314	2008.30	4.0840	4.0840	-0.6138	25.26	-0.02	-0.750			
0.0333	2129.45	4.0810	4.0811	-0.6259	25.26	-0.02	-0.750			
0.0352	2250.73	4.0780	4.0780	-0.6315	25.26	-0.02	-0.750			
0.0371	2371.89	4.0750	4.0750	-0.6399	25.26	-0.02	-0.750			
0.0390	2495.81	4.0720	4.0720	-0.6448	25.26	-0.02	-0.750			
0.0409	2620.12	4.0690	4.0690	-0.6507	25.26	-0.02	-0.750			
0.0429	2745.76	4.0660	4.0660	-0.6569	25.26	-0.02	-0.750			
0.0449	2873.05	4.0630	4.0630	-0.6606	25.26	-0.02	-0.750			
0.0469	3001.30	4.0600	4.0599	-0.6616	25.26	-0.02	-0.750			
0.0489	3127.88	4.0570	4.0569	-0.6646	25.26	-0.02	-0.750			
0.0509	3254.87	4.0540	4.0540	-0.6644	25.26	-0.02	-0.750			
0.0529	3383.23	4.0510	4.0509	-0.6693	25.27	-0.01	-0.750			
0.0549	3510.53	4.0480	4.0480	-0.6746	25.27	-0.01	-0.750			
0.0569	3639.83	4.0450	4.0451	-0.6742	25.27	-0.01	-0.750			
0.0589	3772.57	4.0420	4.0419	-0.6814	25.27	-0.01	-0.750			
0.0610	3903.46	4.0390	4.0390	-0.6853	25.28	-0.00	-0.750			
0.0630	4033.50	4.0360	4.0360	-0.6873	25.28	0.00	-0.750			
0.0651	4167.56	4.0330	4.0330	-0.6903	25.28	0.00	-0.750			
0.0672	4299.77	4.0300	4.0300	-0.6921	25.29	0.01	-0.750			
0.0693	4433.16	4.0270	4.0271	-0.6933	25.29	0.01	-0.750			
0.0714	4567.60	4.0240	4.0241	-0.6971	25.29	0.01	-0.750			
0.0735	4701.24	4.0210	4.0209	-0.6986	25.30	0.02	-0.750			
0.0755	4834.54	4.0180	4.0180	-0.6994	25.30	0.02	-0.750			
0.0776	4968.48	4.0150	4.0150	-0.7000	25.30	0.02	-0.750			
0.0797	5103.05	4.0120	4.0120	-0.7091	25.31	0.03	-0.750			
0.0819	5240.41	4.0090	4.0090	-0.7095	25.31	0.03	-0.750			
0.0840	5378.05	4.0060	4.0059	-0.7101	25.32	0.04	-0.750			
0.0862	5514.26	4.0030	4.0030	-0.7131	25.32	0.04	-0.750			
0.0883	5651.77	4.0000	4.0000	-0.7122	25.32	0.04	-0.750			
0.0904	5788.19	3.9970	3.9969	-0.7132	25.33	0.05	-0.750			
0.0926	5925.00	3.9940	3.9940	-0.7155	25.33	0.05	-0.750			
0.0947	6060.74	3.9910	3.9910	-0.7161	25.33	0.05	-0.750			
0.0969	6200.78	3.9880	3.9880	-0.7197	25.34	0.06	-0.750			
0.0991	6339.99	3.9850	3.9850	-0.7212	25.34	0.06	-0.750			
0.1012	6477.69	3.9820	3.9820	-0.7216	25.34	0.06	-0.750			
0.1034	6616.30	3.9790	3.9791	-0.7265	25.35	0.07	-0.750			
0.1056	6755.44	3.9760	3.9759	-0.7297	25.35	0.07	-0.750			
0.1078	6896.03	3.9730	3.9730	-0.7328	25.35	0.07	-0.750			
0.1100	7037.86	3.9700	3.9699	-0.7369	25.36	0.08	-0.750			
0.1122	7180.46	3.9670	3.9671	-0.7406	25.36	0.08	-0.750			
0.1144	7323.99	3.9640	3.9640	-0.7403	25.36	0.08	-0.750			
0.1166	7464.20	3.9610	3.9610	-0.7469	25.37	0.09	-0.750			
0.1189	7607.47	3.9580	3.9580	-0.7461	25.37	0.09	-0.750			
0.1211	7752.74	3.9550	3.9549	-0.7496	25.37	0.09	-0.750			
0.1234	7896.44	3.9520	3.9519	-0.7461	25.38	0.10	-0.750			
0.1256	8040.38	3.9490	3.9490	-0.7482	25.38	0.10	-0.750			
0.1279	8183.29	3.9460	3.9460	-0.7507	25.38	0.10	-0.750			
0.1301	8327.03	3.9430	3.9428	-0.7515	25.38	0.10	-0.750			
0.1323	8469.59	3.9400	3.9400	-0.7468	25.39	0.11	-0.750			
0.1346	8616.13	3.9370	3.9370	-0.7564	25.39	0.11	-0.750			
0.1369	8761.99	3.9340	3.9341	-0.7614	25.39	0.11	-0.750			
0.1392	8908.62	3.9310	3.9309	-0.7626	25.40	0.12	-0.750			
0.1415	9053.88	3.9280	3.9280	-0.7619	25.40	0.12	-0.750			
0.1438	9200.68	3.9250	3.9250	-0.7631	25.41	0.13	-0.750			
0.1461	9348.08	3.9220	3.9220	-0.7635	25.41	0.13	-0.750			
0.1484	9495.21	3.9190	3.9189	-0.7682	25.42	0.14	-0.750			
0.1506	9641.44	3.9160	3.9161	-0.7677	25.42	0.14	-0.750			
0.1529	9788.06	3.9130	3.9130	-0.7706	25.43	0.15	-0.750			
0.1553	9937.29	3.9100	3.9100	-0.7734	25.43	0.15	-0.750			
0.1576	10086.63	3.9070	3.9070	-0.7738	25.43	0.15	-0.750			
0.1599	10235.98	3.9040	3.9040	-0.7723	25.44	0.16	-0.750			
0.1623	10384.33	3.9010	3.9012	-0.7733	25.44	0.16	-0.750			
0.1646	10531.73	3.8980	3.8979	-0.7703	25.44	0.16	-0.750			
0.1669	10679.02	3.8950	3.8950	-0.7732	25.45	0.17	-0.750			
0.1692	10827.45	3.8920	3.8920	-0.7756	25.45	0.17	-0.750			
0.1715	10977.67	3.8890	3.8890	-0.7777	25.46	0.18	-0.750			
0.1739	11127.31	3.8860	3.8858	-0.7778	25.46	0.18	-0.750			
0.1762	11276.21	3.8830	3.8830	-0.7801	25.46	0.18	-0.750			
0.1785	11425.45	3.8800	3.8800	-0.7795	25.47	0.19	-0.750			
0.1809	11575.22	3.8770	3.8770	-0.7796	25.47	0.19	-0.750			
0.1832	11724.44	3.8740	3.8739	-0.7792	25.47	0.19	-0.750			
0.1855	11874.90	3.8710	3.8711	-0.7813	25.48	0.20	-0.750			
0.1879	12025.02	3.8680	3.8680	-0.7838	25.48	0.20	-0.750			
0.1902	12174.67	3.8650	3.8650	-0.7862	25.48	0.20	-0.750			
0.1926	12326.34	3.8620	3.8620	-0.7861	25.48	0.20	-0.750			
0.1950	12478.09	3.8590	3.8590	-0.7843	25.48	0.20	-0.750			
0.1973	12629.08	3.8560	3.8560	-0.7816	25.48	0.20	-0.750			
0.1997	12779.09	3.8530	3.8532	-0.7802	25.48	0.20	-0.750			
0.2020	12928.19	3.8500	3.8499	-0.7766	25.48	0.20	-0.750			
0.2043	13076.08	3.8470	3.8470	-0.7725	25.49	0.21	-0.750			
0.2066	13225.24	3.8440	3.8440	-0.7673	25.49	0.21	-0.750			
0.2089	13372.28	3.8410	3.8410	-0.7686	25.49	0.21	-0.750			
0.2112	13519.10	3.8380	3.8380	-0.7665	25.50	0.22	-0.750			
0.2135	13665.31	3.8350	3.8350	-0.7649	25.50	0.22	-0.750			
0.2158	13812.93	3.8320	3.8319	-0.7585	25.51	0.23	-0.750			
0.2181	13958.85	3.8290	3.8290	-0.7584	25.51	0.23	-0.750			
0.2204	14103.86	3.8260	3.8261	-0.7596	25.51	0.23	-0.750			
0.2227	14251.34	3.8230	3.8230	-0.7602	25.52	0.24	-0.750			
0.2249	14395.61	3.8200	3.8201	-0.7543	25.52	0.24	-0.750			
0.2272	14539.41	3.8170	3.8171	-0.7521	25.52	0.24	-0.750			
0.2295	14684.99	3.8140	3.8140	-0.7504	25.53	0.25	-0.750			
0.2317	14830.96	3.8110	3.8109	-0.7477	25.53	0.25	-0.750			
0.2340	14974.28	3.8080	3.8080	-0.7415	25.54	0.26	-0.750			
0.2362	15114.50	3.8050	3.8049	-0.7325	25.54	0.26	-0.750			
0.2384	15254.95	3.8020	3.8018	-0.7300	25.54	0.26	-0.750			
0.2405	15394.01	3.7990	3.7989	-0.7245	25.55	0.27	-0.750			
0.2427	15531.23	3.7960	3.7960	-0.7222	25.55	0.27	-0.750			
0.2448	15669.47	3.7930	3.7931	-0.7197	25.55	0.27	-0.750			
0.2470	15810.80	3.7900	3.7899	-0.7205	25.56	0.28	-0.750			
0.2492	15948.83	3.7870	3.7871	-0.7149	25.56	0.28	-0.750			
0.2513	16085.13	3.7840	3.7839	-0.7097	25.56	0.28	-0.750			
0.2534	16220.44	3.7810	3.7810	-0.7058	25.56	0.28	-0.750			
0.2556	16355.59	3.7780	3.7780	-0.7072	25.56	0.28	-0.750			
0.2576	16489.47	3.7750	3.7750	-0.7047	25.57	0.29	-0.750			
0.2598	16626.36	3.7720	3.7720	-0.7043	25.57	0.29	-0.750			
0.2619	16761.61	3.7690	3.7691	-0.7030	25.57	0.29	-0.750			
0.2640	16896.11	3.7660	3.7660	-0.7079	25.57	0.29	-0.750			
0.2661	17032.06	3.7630	3.7629	-0.7090	25.57	0.29	-0.750			
0.2682	17167.36	3.7600	3.7600	-0.7172	25.57	0.29	-0.750			
0.2704	17306.46	3.7570	3.7570	-0.7183	25.58	0.30	-0.750			
0.2726	17446.33	3.7540	3.7540	-0.7253	25.58	0.30	-0.750			
0.2748	17585.88	3.7510	3.7513	-0.7329	25.58	0.30	-0.750			
0.2770	17726.53	3.7480	3.7479	-0.7380	25.58	0.30	-0.750			
0.2792	17867.22	3.7450	3.7449	-0.7498	25.58	0.30	-0.750			
0.2814	18011.82	3.7420	3.7420	-0.7595	25.58	0.30	-0.750			
0.2838	18160.94	3.7390	3.7389	-0.7707	25.58	0.30	-0.750			
0.2861	18310.07	3.7360	3.7360	-0.7786	25.58	0.30	-0.750			
0.2884	18460.22	3.7330	3.7330	-0.7835	25.58	0.30	-0.750			
0.2908	18609.76	3.7300	3.7300	-0.7963	25.58	0.30	-0.750			
0.2932	18762.20	3.7270	3.7270	-0.8049	25.58	0.30	-0.750			
0.2956	18916.90	3.7240	3.7240	-0.8139	25.58	0.30	-0.750			
0.2981	19076.13	3.7210	3.7210	-0.8332	25.58	0.30	-0.750			
0.3006	19238.04	3.7180	3.7180	-0.8467	25.58	0.30	-0.750			
0.3031	19400.97	3.7150	3.7151	-0.8653	25.58	0.30	-0.750			
0.3058	19568.29	3.7120	3.7119	-0.8816	25.58	0.30	-0.750			
0.3084	19739.37	3.7090	3.7090	-0.8941	25.58	0.30	-0.750			
0.3112	19914.07	3.7060	3.7059	-0.9117	25.58	0.30	-0.750			
0.3139	20089.96	3.7030	3.7030	-0.9315	25.58	0.30	-0.750			
0.3167	20269.91	3.7000	3.7000	-0.9439	25.57	0.29	-0.750			
0.3196	20452.35	3.6970	3.6969	-0.9563	25.57	0.29	-0.750			
0.3224	20636.47	3.6940	3.6940	-0.9662	25.56	0.28	-0.750			
0.3254	20824.92	3.6910	3.6911	-0.9831	25.56	0.28	-0.750			
0.3284	21014.75	3.6880	3.6880	-0.9991	25.55	0.27	-0.750			
0.3314	21206.75	3.6850	3.6850	-1.0123	25.55	0.27	-0.750			
0.3344	21401.30	3.6820	3.6820	-1.0305	25.54	0.26	-0.750			
0.3375	21599.83	3.6790	3.6791	-1.0602	25.54	0.26	-0.750			
0.3408	21808.06	3.6760	3.6760	-1.0763	25.53	0.25	-0.750			
0.3440	22018.30	3.6730	3.6729	-1.0961	25.53	0.25	-0.750			
0.3473	22230.29	3.6700	3.6700	-1.1109	25.52	0.24	-0.750			
0.3507	22445.02	3.6670	3.6671	-1.1305	25.52	0.24	-0.750			
0.3541	22664.85	3.6640	3.6639	-1.1439	25.51	0.23	-0.750			
0.3576	22884.35	3.6610	3.6610	-1.1606	25.51	0.23	-0.750			
0.3611	23107.48	3.6580	3.6581	-1.1744	25.50	0.22	-0.750			
0.3647	23338.23	3.6550	3.6549	-1.2024	25.50	0.22	-0.750			
0.3683	23569.42	3.6520	3.6520	-1.2196	25.49	0.21	-0.750			
0.3719	23801.92	3.6490	3.6491	-1.2513	25.48	0.20	-0.750			
0.3757	24044.40	3.6460	3.6460	-1.2698	25.48	0.20	-0.750			
0.3796	24295.50	3.6430	3.6429	-1.2948	25.47	0.19	-0.750			
0.3835	24545.21	3.6400	3.6400	-1.3108	25.47	0.19	-0.750			
0.3875	24800.40	3.6370	3.6373	-1.3386	25.46	0.18	-0.750			
0.3916	25060.44	3.6340	3.6339	-1.3616	25.45	0.17	-0.750			
0.3956	25321.03	3.6310	3.6309	-1.3781	25.45	0.17	-0.750			
0.3998	25586.44	3.6280	3.6283	-1.4103	25.44	0.16	-0.750			
0.4041	25861.33	3.6250	3.6249	-1.4482	25.43	0.15	-0.750			
0.4084	26140.13	3.6220	3.6220	-1.4785	25.43	0.15	-0.750			
0.4129	26428.67	3.6190	3.6191	-1.5099	25.42	0.14	-0.750			
0.4176	26727.68	3.6160	3.6157	-1.5387	25.41	0.13	-0.750			
0.4223	27024.68	3.6130	3.6129	-1.5578	25.40	0.12	-0.750			
0.4270	27324.97	3.6100	3.6100	-1.5812	25.40	0.12	-0.750	0.382	0.552	
0.4317	27630.74	3.6070	3.6070	-1.6131	25.39	0.11	-0.750			
0.4365	27936.52	3.6040	3.6039	-1.6328	25.39	0.11	-0.750			
0.4414	28250.58	3.6010	3.6011	-1.6747	25.39	0.11	-0.750			
0.4466	28583.24	3.5980	3.5979	-1.7250	25.38	0.10	-0.750			
0.4518	28917.48	3.5950	3.5952	-1.7737	25.38	0.10	-0.750			
0.4572	29261.98	3.5920	3.5918	-1.7945	25.37	0.09	-0.750			
0.4627	29613.47	3.5890	3.5891	-1.8191	25.36	0.08	-0.750			
0.4682	29965.80	3.5860	3.5861	-1.8544	25.36	0.08	-0.750			
0.4738	30324.50	3.5830	3.5828	-1.8645	25.35	0.07	-0.750			
0.4794	30684.38	3.5800	3.5801	-1.9010	25.35	0.07	-0.750			
0.4852	31052.04	3.5770	3.5769	-1.9234	25.34	0.06	-0.750			
0.4909	31420.30	3.5740	3.5741	-1.9558	25.35	0.07	-0.750			
0.4969	31802.75	3.5710	3.5711	-1.9842	25.36	0.08	-0.750			
0.5029	32184.72	3.5680	3.5680	-2.0092	25.36	0.08	-0.750			
0.5090	32575.33	3.5650	3.5651	-2.0259	25.35	0.07	-0.750			
0.5151	32968.21	3.5620	3.5618	-2.0484	25.35	0.07	-0.750			
0.5213	33363.05	3.5590	3.5591	-2.0433	25.35	0.07	-0.750			
0.5275	33757.56	3.5560	3.5560	-2.0519	25.35	0.07	-0.750			
0.5336	34151.96	3.5530	3.5529	-2.0469	25.35	0.07	-0.750			
0.5397	34542.44	3.5500	3.5498	-2.0393	25.35	0.07	-0.750			
0.5459	34934.43	3.5470	3.5471	-2.0507	25.36	0.08	-0.750			
0.5520	35327.88	3.5440	3.5440	-2.0526	25.36	0.08	-0.750			
0.5582	35725.46	3.5410	3.5410	-2.0332	25.37	0.09	-0.750			
0.5643	36118.28	3.5380	3.5381	-2.0242	25.38	0.10	-0.750			
0.5705	36508.84	3.5350	3.5349	-2.0119	25.38	0.10	-0.750			
0.5765	36893.81	3.5320	3.5319	-1.9858	25.38	0.10	-0.750			
0.5824	37271.10	3.5290	3.5291	-1.9481	25.38	0.10	-0.750			
0.5882	37643.70	3.5260	3.5260	-1.9196	25.38	0.10	-0.750			
0.5939	38008.77	3.5230	3.5230	-1.8833	25.39	0.11	-0.750			
0.5996	38371.51	3.5200	3.5199	-1.8577	25.40	0.12	-0.750			
0.6050	38720.81	3.5170	3.5170	-1.8232	25.41	0.13	-0.750			
0.6105	39071.78	3.5140	3.5140	-1.7863	25.43	0.15	-0.750			
0.6158	39412.44	3.5110	3.5109	-1.7505	25.44	0.16	-0.750			
0.6210	39746.73	3.5080	3.5084	-1.7061	25.45	0.17	-0.750			
0.6261	40069.79	3.5050	3.5049	-1.6551	25.46	0.18	-0.750			
0.6310	40380.88	3.5020	3.5022	-1.6098	25.47	0.19	-0.750			
0.6357	40683.79	3.4990	3.4990	-1.5599	25.48	0.20	-0.750			
0.6404	40982.54	3.4960	3.4960	-1.5255	25.49	0.21	-0.750			
0.6448	41269.20	3.4930	3.4930	-1.4802	25.50	0.22	-0.750			
0.6492	41548.33	3.4900	3.4901	-1.4457	25.52	0.24	-0.750			
0.6535	41823.40	3.4870	3.4869	-1.4028	25.53	0.25	-0.750			
0.6576	42089.48	3.4840	3.4839	-1.3586	25.55	0.27	-0.750			
0.6616	42344.57	3.4810	3.4811	-1.3151	25.56	0.28	-0.750			
0.6655	42594.60	3.4780	3.4780	-1.2751	25.57	0.29	-0.750			
0.6693	42834.21	3.4750	3.4749	-1.2309	25.58	0.30	-0.750			
0.6729	43065.75	3.4720	3.4720	-1.1889	25.59	0.31	-0.750			
0.6764	43289.06	3.4690	3.4690	-1.1506	25.61	0.33	-0.750			
0.6798	43509.67	3.4660	3.4659	-1.1147	25.63	0.35	-0.750			
0.6831	43718.34	3.4630	3.4630	-1.0801	25.64	0.36	-0.750			
0.6863	43920.28	3.4600	3.4602	-1.0439	25.66	0.38	-0.750			
0.6893	44117.35	3.4570	3.4568	-1.0181	25.67	0.39	-0.750			
0.6923	44308.59	3.4540	3.4540	-0.9879	25.68	0.40	-0.750			
0.6952	44495.80	3.4510	3.4510	-0.9609	25.69	0.41	-0.750			
0.6981	44676.74	3.4480	3.4480	-0.9335	25.70	0.42	-0.750			
0.7009	44857.58	3.4450	3.4450	-0.9117	25.71	0.43	-0.750			
0.7036	45027.70	3.4420	3.4420	-0.8875	25.72	0.44	-0.750			
0.7062	45194.70	3.4390	3.4390	-0.8677	25.73	0.45	-0.750			
0.7087	45356.34	3.4360	3.4360	-0.8548	25.74	0.46	-0.750			
0.7112	45519.22	3.4330	3.4329	-0.8505	25.75	0.47	-0.750			
0.7138	45680.84	3.4300	3.4300	-0.8474	25.76	0.48	-0.750			
0.7163	45843.11	3.4270	3.4270	-0.8481	25.77	0.49	-0.750			
0.7189	46007.46	3.4240	3.4240	-0.8513	25.78	0.50	-0.750			
0.7214	46170.57	3.4210	3.4210	-0.8528	25.80	0.52	-0.750			
0.7240	46334.03	3.4180	3.4180	-0.8576	25.81	0.53	-0.750			
0.7265	46498.38	3.4150	3.4149	-0.8620	25.82	0.54	-0.750			
0.7291	46664.76	3.4120	3.4120	-0.8637	25.82	0.54	-0.750			
0.7318	46832.07	3.4090	3.4090	-0.8631	25.83	0.55	-0.750			
0.7343	46998.37	3.4060	3.4060	-0.8612	25.84	0.56	-0.750			
0.7370	47165.60	3.4030	3.4031	-0.8582	25.85	0.57	-0.750			
0.7395	47329.86	3.4000	3.4000	-0.8477	25.85	0.57	-0.750			
0.7421	47491.99	3.3970	3.3969	-0.8328	25.86	0.58	-0.750			
0.7446	47651.70	3.3940	3.3940	-0.8177	25.86	0.58	-0.750			
0.7470	47808.93	3.3910	3.3910	-0.7973	25.87	0.59	-0.750			
0.7494	47959.30	3.3880	3.3880	-0.7727	25.87	0.59	-0.750			
0.7516	48104.91	3.3850	3.3851	-0.7496	25.88	0.60	-0.750			
0.7538	48245.54	3.3820	3.3818	-0.7303	25.88	0.60	-0.750			
0.7560	48383.13	3.3790	3.3790	-0.7143	25.89	0.61	-0.750			
0.7581	48519.37	3.3760	3.3760	-0.6987	25.90	0.62	-0.750			
0.7602	48653.30	3.3730	3.3729	-0.6809	25.90	0.62	-0.750			
0.7622	48783.02	3.3700	3.3701	-0.6623	25.91	0.63	-0.750			
0.7642	48907.64	3.3670	3.3670	-0.6419	25.92	0.64	-0.750			
0.7661	49029.05	3.3640	3.3640	-0.6199	25.92	0.64	-0.750			
0.7679	49144.86	3.3610	3.3609	-0.5973	25.93	0.65	-0.750			
0.7697	49258.12	3.3580	3.3581	-0.5824	25.93	0.65	-0.750			
0.7714	49367.81	3.3550	3.3550	-0.5635	25.94	0.66	-0.750			
0.7730	49475.00	3.3520	3.3519	-0.5487	25.95	0.67	-0.750			
0.7747	49578.36	3.3490	3.3492	-0.5296	25.95	0.67	-0.750			
0.7762	49677.75	3.3460	3.3460	-0.5128	25.96	0.68	-0.750			
0.7777	49774.55	3.3430	3.3430	-0.4992	25.96	0.68	-0.750			
0.7792	49868.23	3.3400	3.3400	-0.4829	25.96	0.68	-0.750			
0.7806	49959.79	3.3370	3.3369	-0.4712	25.97	0.69	-0.750			
0.7820	50048.54	3.3340	3.3339	-0.4586	25.97	0.69	-0.750			
0.7834	50135.47	3.3310	3.3311	-0.4440	25.98	0.70	-0.750			
0.7847	50219.77	3.3280	3.3280	-0.4326	25.98	0.70	-0.750			
0.7860	50301.59	3.3250	3.3250	-0.4196	25.99	0.71	-0.750			
0.7872	50380.55	3.3220	3.3221	-0.4094	25.99	0.71	-0.750			
0.7884	50457.86	3.3190	3.3190	-0.3980	26.00	0.72	-0.750			
0.7896	50532.95	3.3160	3.3160	-0.3876	26.00	0.72	-0.750			
0.7907	50606.03	3.3130	3.3130	-0.3792	26.00	0.72	-0.750			
0.7919	50678.61	3.3100	3.3100	-0.3708	26.01	0.73	-0.750			
0.7929	50748.50	3.3070	3.3070	-0.3604	26.01	0.73	-0.750			
0.7940	50816.53	3.3040	3.3040	-0.3529	26.02	0.74	-0.750			
0.7951	50883.38	3.3010	3.3010	-0.3444	26.02	0.74	-0.750			
0.7961	50948.88	3.2980	3.2980	-0.3381	26.03	0.75	-0.750			
0.7971	51012.95	3.2950	3.2950	-0.3303	26.03	0.75	-0.750			
0.7981	51075.36	3.2920	3.2920	-0.3237	26.03	0.75	-0.750			
0.7990	51137.69	3.2890	3.2890	-0.3169	26.04	0.76	-0.750			
0.8000	51197.63	3.2860	3.2861	-0.3096	26.04	0.76	-0.750			
0.8009	51255.90	3.2830	3.2830	-0.3029	26.05	0.77	-0.750			
0.8018	51313.70	3.2800	3.2800	-0.2968	26.05	0.77	-0.750			
0.8026	51369.47	3.2770	3.2769	-0.2913	26.06	0.78	-0.750			
0.8035	51424.84	3.2740	3.2740	-0.2868	26.06	0.78	-0.750			
0.8044	51479.52	3.2710	3.2710	-0.2816	26.07	0.79	-0.750			
0.8052	51533.59	3.2680	3.2680	-0.2775	26.07	0.79	-0.750			
0.8060	51586.23	3.2650	3.2650	-0.2720	26.08	0.80	-0.750			
0.8068	51638.01	3.2620	3.2620	-0.2670	26.08	0.80	-0.750			
0.8076	51688.97	3.2590	3.2589	-0.2624	26.09	0.81	-0.750			
0.8084	51738.21	3.2560	3.2560	-0.2576	26.09	0.81	-0.750			
0.8092	51786.73	3.2530	3.2530	-0.2552	26.09	0.81	-0.750			
0.8099	51835.96	3.2500	3.2499	-0.2520	26.10	0.82	-0.750			
0.8107	51884.31	3.2470	3.2469	-0.2479	26.10	0.82	-0.750			
0.8114	51931.67	3.2440	3.2441	-0.2445	26.11	0.83	-0.750			
0.8122	51978.21	3.2410	3.2411	-0.2402	26.11	0.83	-0.750			
0.8129	52024.25	3.2380	3.2380	-0.2368	26.12	0.84	-0.750			
0.8136	52068.58	3.2350	3.2350	-0.2323	26.12	0.84	-0.750			
0.8143	52112.56	3.2320	3.2321	-0.2288	26.13	0.85	-0.750			
0.8149	52156.34	3.2290	3.2290	-0.2273	26.13	0.85	-0.750			
0.8156	52200.32	3.2260	3.2260	-0.2244	26.14	0.86	-0.750			
0.8163	52243.30	3.2230	3.2230	-0.2215	26.14	0.86	-0.750			
0.8170	52285.45	3.2200	3.2201	-0.2183	26.15	0.87	-0.750			
0.8176	52327.04	3.2170	3.2170	-0.2149	26.15	0.87	-0.750			
0.8182	52367.95	3.2140	3.2139	-0.2119	26.15	0.87	-0.750			
0.8189	52407.98	3.2110	3.2110	-0.2093	26.16	0.88	-0.750			
0.8195	52447.74	3.2080	3.2080	-0.2069	26.16	0.88	-0.750			
0.8201	52487.30	3.2050	3.2050	-0.2053	26.17	0.89	-0.750			
0.8207	52526.84	3.2020	3.2019	-0.2022	26.17	0.89	-0.750			
0.8213	52565.38	3.1990	3.1991	-0.1999	26.18	0.90	-0.750			
0.8219	52603.41	3.1960	3.1960	-0.1978	26.18	0.90	-0.750			
0.8225	52641.17	3.1930	3.1930	-0.1955	26.19	0.91	-0.750			
0.8231	52678.52	3.1900	3.1899	-0.1929	26.19	0.91	-0.750			
0.8237	52715.27	3.1870	3.1869	-0.1898	26.19	0.91	-0.750			
0.8242	52751.52	3.1840	3.1841	-0.1874	26.20	0.92	-0.750			
0.8248	52787.05	3.1810	3.1809	-0.1864	26.20	0.92	-0.750			
0.8254	52822.91	3.1780	3.1780	-0.1847	26.21	0.93	-0.750			
0.8259	52857.88	3.1750	3.1749	-0.1825	26.21	0.93	-0.750			
0.8264	52892.58	3.1720	3.1720	-0.1808	26.22	0.94	-0.750			
0.8270	52927.26	3.1690	3.1691	-0.1794	26.23	0.95	-0.750			
0.8275	52961.90	3.1660	3.1660	-0.1778	26.23	0.95	-0.750			
0.8281	52996.14	3.1630	3.1630	-0.1759	26.24	0.96	-0.750			
0.8286	53029.64	3.1600	3.1600	-0.1731	26.24	0.96	-0.750			
0.8291	53062.29	3.1570	3.1570	-0.1708	26.25	0.97	-0.750			
0.8296	53094.84	3.1540	3.1540	-0.1697	26.25	0.97	-0.750			
0.8301	53126.95	3.1510	3.1509	-0.1678	26.26	0.98	-0.750			
0.8306	53159.09	3.1480	3.1480	-0.1670	26.27	0.99	-0.750			
0.8311	53190.98	3.1450	3.1450	-0.1655	26.27	0.99	-0.750			
0.8316	53222.83	3.1420	3.1420	-0.1643	26.28	1.00	-0.750			
0.8321	53254.50	3.1390	3.1391	-0.1633	26.28	1.00	-0.750			
0.8326	53285.71	3.1360	3.1359	-0.1608	26.29	1.01	-0.750			
0.8331	53316.40	3.1330	3.1330	-0.1591	26.29	1.01	-0.750			
0.8335	53346.46	3.1300	3.1300	-0.1572	26.30	1.02	-0.750			
0.8340	53376.38	3.1270	3.1271	-0.1556	26.30	1.02	-0.750			
0.8345	53406.13	3.1240	3.1239	-0.1545	26.31	1.03	-0.750			
0.8349	53435.55	3.1210	3.1210	-0.1537	26.31	1.03	-0.750			
0.8354	53465.12	3.1180	3.1180	-0.1523	26.32	1.04	-0.750			
0.8358	53494.25	3.1150	3.1150	-0.1512	26.33	1.05	-0.750			
0.8363	53523.44	3.1120	3.1119	-0.1499	26.33	1.05	-0.750			
0.8368	53552.08	3.1090	3.1090	-0.1483	26.34	1.06	-0.750			
0.8372	53580.14	3.1060	3.1061	-0.1472	26.34	1.06	-0.750			
0.8376	53608.30	3.1030	3.1029	-0.1461	26.35	1.07	-0.750			
0.8381	53636.12	3.1000	3.1000	-0.1449	26.35	1.07	-0.750			
0.8385	53663.83	3.0970	3.0970	-0.1432	26.36	1.08	-0.750			
0.8389	53691.48	3.0940	3.0940	-0.1427	26.36	1.08	-0.750			
0.8394	53718.72	3.0910	3.0910	-0.1411	26.37	1.09	-0.750			
0.8398	53745.66	3.0880	3.0880	-0.1400	26.38	1.10	-0.750			
0.8402	53772.40	3.0850	3.0851	-0.1386	26.38	1.10	-0.750			
0.8406	53798.57	3.0820	3.0819	-0.1369	26.39	1.11	-0.750			
0.8410	53824.79	3.0790	3.0790	-0.1362	26.39	1.11	-0.750			
0.8414	53850.94	3.0760	3.0760	-0.1352	26.40	1.12	-0.750			
0.8418	53876.86	3.0730	3.0729	-0.1347	26.40	1.12	-0.750			
0.8422	53902.56	3.0700	3.0701	-0.1336	26.41	1.13	-0.750			
0.8426	53928.21	3.0670	3.0670	-0.1325	26.41	1.13	-0.750			
0.8430	53953.54	3.0640	3.0640	-0.1315	26.42	1.14	-0.750			
0.8434	53978.78	3.0610	3.0611	-0.1309	26.42	1.14	-0.750			
0.8438	54003.73	3.0580	3.0580	-0.1299	26.43	1.15	-0.750			
0.8442	54028.53	3.0550	3.0550	-0.1293	26.43	1.15	-0.750			
0.8446	54053.32	3.0520	3.0520	-0.1287	26.44	1.16	-0.750			
0.8450	54077.96	3.0490	3.0491	-0.1275	26.44	1.16	-0.750			
0.8453	54102.36	3.0460	3.0460	-0.1267	26.45	1.17	-0.750			
0.8457	54126.71	3.0430	3.0431	-0.1263	26.45	1.17	-0.750			
0.8461	54150.96	3.0400	3.0400	-0.1252	26.46	1.18	-0.750			
0.8465	54174.89	3.0370	3.0368	-0.1241	26.46	1.18	-0.750			
0.8469	54198.61	3.0340	3.0341	-0.1234	26.47	1.19	-0.750			
0.8472	54222.20	3.0310	3.0311	-0.1224	26.47	1.19	-0.750			
0.8476	54245.50	3.0280	3.0280	-0.1216	26.48	1.20	-0.750			
0.8480	54268.84	3.0250	3.0249	-0.1209	26.48	1.20	-0.750			
0.8483	54292.01	3.0220	3.0221	-0.1198	26.49	1.21	-0.750			
0.8487	54314.86	3.0190	3.0189	-0.1186	26.49	1.21	-0.750			
0.8490	54337.55	3.0160	3.0160	-0.1177	26.49	1.21	-0.750			
0.8494	54360.29	3.0130	3.0130	-0.1168	26.50	1.22	-0.750			
0.8497	54382.53	3.0100	3.0101	-0.1155	26.50	1.22	-0.750			
0.8501	54404.59	3.0070	3.0069	-0.1143	26.51	1.23	-0.751			
0.8504	54426.45	3.0040	3.0039	-0.1143	26.51	1.23	-0.751			
