Ah_balance (normalized)	Ah_balance (mAh)	Voltage - fit (V)	Voltage -  interpolate (V)	dQ/dV (1/V)	Temperature (°C)	Temperature - diff (°C)	Current (C)	R_DC 0ms (mOhm)	R_DC 50ms (mOhm)	R_DC 50 ms PEC (mOhm)
0.0003	17.78	4.1560	4.1556	-0.1064	24.98	0.01	-0.750			
0.0007	41.71	4.1530	4.1528	-0.1421	24.98	0.01	-0.750			
0.0011	71.70	4.1500	4.1501	-0.1781	24.98	0.01	-0.750			
0.0017	109.83	4.1470	4.1470	-0.2146	24.98	0.01	-0.750			
0.0024	155.02	4.1440	4.1439	-0.2482	24.98	0.01	-0.750			
0.0032	206.94	4.1410	4.1409	-0.2816	24.98	0.01	-0.750			
0.0041	264.07	4.1380	4.1381	-0.3139	24.98	0.01	-0.750			
0.0051	328.00	4.1350	4.1350	-0.3430	24.97	0.00	-0.750			
0.0062	397.38	4.1320	4.1320	-0.3729	24.97	0.00	-0.750			
0.0074	472.11	4.1290	4.1290	-0.3987	24.97	0.00	-0.750			
0.0086	551.59	4.1260	4.1260	-0.4243	24.97	-0.00	-0.750			
0.0099	635.44	4.1230	4.1230	-0.4491	24.97	-0.00	-0.750			
0.0113	724.95	4.1200	4.1200	-0.4694	24.96	-0.01	-0.750			
0.0128	817.14	4.1170	4.1170	-0.4877	24.96	-0.01	-0.750			
0.0143	912.50	4.1140	4.1141	-0.5125	24.96	-0.01	-0.750			
0.0158	1013.40	4.1110	4.1110	-0.5278	24.96	-0.01	-0.750			
0.0175	1117.60	4.1080	4.1079	-0.5452	24.95	-0.02	-0.750			
0.0191	1224.15	4.1050	4.1049	-0.5562	24.95	-0.02	-0.750			
0.0208	1332.70	4.1020	4.1021	-0.5678	24.95	-0.02	-0.750			
0.0226	1443.28	4.0990	4.0990	-0.5797	24.95	-0.02	-0.750			
0.0243	1555.19	4.0960	4.0960	-0.5867	24.95	-0.02	-0.750			
0.0261	1667.47	4.0930	4.0930	-0.5914	24.95	-0.02	-0.750			
0.0279	1783.52	4.0900	4.0900	-0.6046	24.94	-0.03	-0.750			
0.0297	1899.97	4.0870	4.0870	-0.6140	24.94	-0.03	-0.750			
0.0315	2018.88	4.0840	4.0840	-0.6234	24.94	-0.03	-0.750			
0.0334	2139.52	4.0810	4.0809	-0.6296	24.94	-0.03	-0.750			
0.0353	2261.05	4.0780	4.0780	-0.6361	24.94	-0.03	-0.750			
0.0373	2384.96	4.0750	4.0750	-0.6435	24.94	-0.03	-0.750			
0.0392	2509.34	4.0720	4.0720	-0.6497	24.95	-0.02	-0.750			
0.0412	2634.79	4.0690	4.0690	-0.6525	24.95	-0.02	-0.750			
0.0431	2760.31	4.0660	4.0660	-0.6559	24.95	-0.02	-0.750			
0.0451	2887.21	4.0630	4.0632	-0.6574	24.95	-0.02	-0.750			
0.0471	3013.72	4.0600	4.0599	-0.6613	24.95	-0.02	-0.750			
0.0491	3140.08	4.0570	4.0570	-0.6650	24.95	-0.02	-0.750			
0.0511	3268.29	4.0540	4.0540	-0.6682	24.95	-0.02	-0.750			
0.0531	3396.80	4.0510	4.0510	-0.6692	24.95	-0.02	-0.750			
0.0551	3526.81	4.0480	4.0480	-0.6754	24.95	-0.02	-0.750			
0.0571	3656.56	4.0450	4.0451	-0.6786	24.95	-0.02	-0.750			
0.0592	3787.32	4.0420	4.0419	-0.6824	24.95	-0.02	-0.750			
0.0612	3917.92	4.0390	4.0389	-0.6833	24.96	-0.01	-0.750			
0.0633	4049.74	4.0360	4.0361	-0.6848	24.96	-0.01	-0.750			
0.0653	4181.33	4.0330	4.0331	-0.6910	24.96	-0.01	-0.750			
0.0674	4315.65	4.0300	4.0300	-0.6952	24.97	-0.00	-0.750			
0.0695	4448.65	4.0270	4.0270	-0.6960	24.97	-0.00	-0.750			
0.0716	4581.94	4.0240	4.0239	-0.6986	24.97	0.00	-0.750			
0.0737	4716.81	4.0210	4.0210	-0.7019	24.97	0.00	-0.750			
0.0758	4852.45	4.0180	4.0180	-0.7065	24.97	0.00	-0.750			
0.0779	4988.50	4.0150	4.0150	-0.7076	24.97	0.00	-0.750			
0.0801	5125.35	4.0120	4.0120	-0.7066	24.97	0.00	-0.750			
0.0822	5261.83	4.0090	4.0091	-0.7083	24.97	0.00	-0.750			
0.0843	5396.18	4.0060	4.0060	-0.7100	24.97	0.00	-0.750			
0.0865	5533.29	4.0030	4.0029	-0.7077	24.98	0.01	-0.750			
0.0886	5668.18	4.0000	4.0000	-0.7135	24.99	0.02	-0.750			
0.0907	5805.01	3.9970	3.9971	-0.7146	25.00	0.03	-0.750			
0.0929	5944.15	3.9940	3.9940	-0.7205	25.00	0.03	-0.750			
0.0950	6083.10	3.9910	3.9911	-0.7226	25.01	0.04	-0.750			
0.0972	6222.36	3.9880	3.9880	-0.7203	25.01	0.04	-0.750			
0.0994	6359.95	3.9850	3.9850	-0.7211	25.02	0.05	-0.750			
0.1016	6499.83	3.9820	3.9820	-0.7250	25.02	0.05	-0.750			
0.1037	6637.26	3.9790	3.9790	-0.7245	25.02	0.05	-0.750			
0.1059	6777.62	3.9760	3.9759	-0.7288	25.03	0.06	-0.750			
0.1081	6916.91	3.9730	3.9731	-0.7306	25.03	0.06	-0.750			
0.1103	7057.31	3.9700	3.9701	-0.7372	25.03	0.06	-0.750			
0.1125	7199.85	3.9670	3.9669	-0.7405	25.03	0.06	-0.750			
0.1147	7342.15	3.9640	3.9639	-0.7400	25.03	0.06	-0.750			
0.1170	7486.05	3.9610	3.9610	-0.7432	25.03	0.06	-0.750			
0.1192	7628.11	3.9580	3.9580	-0.7424	25.03	0.06	-0.750			
0.1214	7771.90	3.9550	3.9550	-0.7429	25.03	0.06	-0.750			
0.1236	7912.84	3.9520	3.9520	-0.7473	25.04	0.07	-0.750			
0.1259	8055.36	3.9490	3.9490	-0.7454	25.04	0.07	-0.750			
0.1281	8200.12	3.9460	3.9459	-0.7478	25.04	0.07	-0.750			
0.1304	8344.12	3.9430	3.9430	-0.7495	25.05	0.08	-0.750			
0.1326	8487.80	3.9400	3.9403	-0.7555	25.05	0.08	-0.750			
0.1349	8632.79	3.9370	3.9370	-0.7578	25.05	0.08	-0.750			
0.1372	8778.61	3.9340	3.9339	-0.7617	25.06	0.09	-0.750			
0.1395	8924.83	3.9310	3.9311	-0.7632	25.06	0.09	-0.750			
0.1418	9074.04	3.9280	3.9280	-0.7687	25.06	0.09	-0.750			
0.1441	9221.57	3.9250	3.9249	-0.7646	25.07	0.10	-0.750			
0.1464	9367.42	3.9220	3.9221	-0.7642	25.07	0.10	-0.750			
0.1486	9512.56	3.9190	3.9190	-0.7668	25.07	0.10	-0.750			
0.1509	9660.64	3.9160	3.9159	-0.7697	25.07	0.10	-0.750			
0.1533	9808.25	3.9130	3.9130	-0.7666	25.07	0.10	-0.750			
0.1556	9957.16	3.9100	3.9101	-0.7729	25.07	0.10	-0.750			
0.1579	10106.93	3.9070	3.9072	-0.7763	25.07	0.10	-0.750			
0.1603	10256.42	3.9040	3.9039	-0.7744	25.08	0.11	-0.750			
0.1625	10402.70	3.9010	3.9010	-0.7726	25.08	0.11	-0.750			
0.1649	10551.01	3.8980	3.8980	-0.7759	25.09	0.12	-0.750			
0.1672	10701.11	3.8950	3.8950	-0.7819	25.09	0.12	-0.750			
0.1696	10851.61	3.8920	3.8920	-0.7850	25.10	0.13	-0.750			
0.1719	11003.60	3.8890	3.8890	-0.7839	25.10	0.13	-0.750			
0.1743	11154.19	3.8860	3.8860	-0.7867	25.10	0.13	-0.750			
0.1767	11305.67	3.8830	3.8830	-0.7872	25.11	0.14	-0.750			
0.1790	11455.85	3.8800	3.8800	-0.7857	25.11	0.14	-0.750			
0.1814	11607.44	3.8770	3.8769	-0.7832	25.11	0.14	-0.750			
0.1837	11757.10	3.8740	3.8740	-0.7823	25.11	0.14	-0.750			
0.1860	11906.02	3.8710	3.8710	-0.7854	25.11	0.14	-0.750			
0.1884	12058.07	3.8680	3.8680	-0.7855	25.11	0.14	-0.750			
0.1908	12208.37	3.8650	3.8649	-0.7831	25.12	0.15	-0.750			
0.1931	12360.00	3.8620	3.8619	-0.7833	25.12	0.15	-0.750			
0.1955	12509.95	3.8590	3.8592	-0.7849	25.12	0.15	-0.750			
0.1978	12661.71	3.8560	3.8560	-0.7836	25.12	0.15	-0.750			
0.2002	12810.75	3.8530	3.8530	-0.7838	25.13	0.16	-0.750			
0.2025	12961.69	3.8500	3.8500	-0.7825	25.13	0.16	-0.750			
0.2049	13113.06	3.8470	3.8470	-0.7832	25.14	0.17	-0.750			
0.2072	13263.01	3.8440	3.8440	-0.7779	25.14	0.17	-0.750			
0.2096	13411.87	3.8410	3.8411	-0.7783	25.14	0.17	-0.750			
0.2119	13559.76	3.8380	3.8380	-0.7765	25.14	0.17	-0.750			
0.2142	13709.36	3.8350	3.8350	-0.7748	25.15	0.18	-0.750			
0.2165	13857.08	3.8320	3.8320	-0.7714	25.15	0.18	-0.750			
0.2188	14005.84	3.8290	3.8291	-0.7739	25.15	0.18	-0.750			
0.2212	14154.81	3.8260	3.8260	-0.7697	25.15	0.18	-0.750			
0.2235	14301.60	3.8230	3.8230	-0.7715	25.15	0.18	-0.750			
0.2258	14448.81	3.8200	3.8200	-0.7708	25.15	0.18	-0.750			
0.2281	14597.88	3.8170	3.8170	-0.7677	25.15	0.18	-0.750			
0.2304	14746.54	3.8140	3.8139	-0.7659	25.15	0.18	-0.750			
0.2327	14894.04	3.8110	3.8113	-0.7606	25.15	0.18	-0.750			
0.2350	15039.21	3.8080	3.8081	-0.7538	25.15	0.18	-0.750			
0.2372	15182.20	3.8050	3.8049	-0.7532	25.16	0.19	-0.750			
0.2395	15325.61	3.8020	3.8020	-0.7431	25.16	0.19	-0.750			
0.2417	15467.08	3.7990	3.7989	-0.7409	25.16	0.19	-0.750			
0.2439	15609.68	3.7960	3.7960	-0.7392	25.17	0.20	-0.750			
0.2461	15752.05	3.7930	3.7929	-0.7364	25.17	0.20	-0.750			
0.2483	15893.20	3.7900	3.7900	-0.7324	25.18	0.21	-0.750			
0.2505	16032.07	3.7870	3.7870	-0.7313	25.18	0.21	-0.750			
0.2527	16172.29	3.7840	3.7840	-0.7261	25.19	0.22	-0.750			
0.2549	16313.93	3.7810	3.7810	-0.7294	25.19	0.22	-0.750			
0.2571	16452.44	3.7780	3.7780	-0.7251	25.20	0.23	-0.750			
0.2592	16591.87	3.7750	3.7751	-0.7242	25.20	0.23	-0.750			
0.2614	16730.49	3.7720	3.7719	-0.7227	25.20	0.23	-0.750			
0.2636	16868.70	3.7690	3.7690	-0.7240	25.20	0.23	-0.750			
0.2657	17006.80	3.7660	3.7660	-0.7221	25.20	0.23	-0.750			
0.2679	17147.95	3.7630	3.7629	-0.7254	25.20	0.23	-0.750			
0.2701	17286.28	3.7600	3.7602	-0.7241	25.20	0.23	-0.750			
0.2723	17424.42	3.7570	3.7570	-0.7267	25.20	0.23	-0.750			
0.2744	17564.34	3.7540	3.7540	-0.7286	25.21	0.24	-0.750			
0.2766	17704.20	3.7510	3.7510	-0.7358	25.21	0.24	-0.750			
0.2788	17845.98	3.7480	3.7480	-0.7421	25.21	0.24	-0.750			
0.2811	17991.80	3.7450	3.7449	-0.7464	25.22	0.25	-0.750			
0.2834	18134.86	3.7420	3.7422	-0.7517	25.22	0.25	-0.750			
0.2856	18278.84	3.7390	3.7390	-0.7574	25.22	0.25	-0.750			
0.2879	18423.85	3.7360	3.7360	-0.7695	25.22	0.25	-0.750			
0.2901	18569.29	3.7330	3.7329	-0.7757	25.22	0.25	-0.750			
0.2925	18722.41	3.7300	3.7300	-0.7945	25.22	0.25	-0.750			
0.2950	18876.98	3.7270	3.7270	-0.8080	25.22	0.25	-0.750			
0.2974	19033.96	3.7240	3.7240	-0.8204	25.22	0.25	-0.750			
0.2999	19192.18	3.7210	3.7210	-0.8338	25.22	0.25	-0.750			
0.3024	19351.62	3.7180	3.7180	-0.8447	25.22	0.25	-0.750			
0.3049	19515.52	3.7150	3.7149	-0.8558	25.22	0.25	-0.750			
0.3075	19681.94	3.7120	3.7121	-0.8695	25.22	0.25	-0.750			
0.3101	19848.98	3.7090	3.7090	-0.8889	25.22	0.25	-0.750			
0.3128	20021.76	3.7060	3.7060	-0.9027	25.22	0.25	-0.750			
0.3156	20197.48	3.7030	3.7029	-0.9136	25.22	0.25	-0.750			
0.3183	20372.86	3.7000	3.7000	-0.9259	25.22	0.25	-0.750			
0.3211	20552.49	3.6970	3.6971	-0.9422	25.22	0.25	-0.750			
0.3240	20735.17	3.6940	3.6940	-0.9615	25.21	0.24	-0.750			
0.3269	20920.42	3.6910	3.6909	-0.9771	25.21	0.24	-0.750			
0.3298	21108.06	3.6880	3.6880	-0.9917	25.20	0.23	-0.750			
0.3328	21301.60	3.6850	3.6852	-1.0189	25.20	0.23	-0.750			
0.3359	21500.49	3.6820	3.6820	-1.0418	25.19	0.22	-0.750			
0.3391	21701.46	3.6790	3.6790	-1.0586	25.19	0.22	-0.750			
0.3423	21906.64	3.6760	3.6760	-1.0727	25.18	0.21	-0.750			
0.3455	22114.77	3.6730	3.6731	-1.0988	25.18	0.21	-0.750			
0.3489	22327.89	3.6700	3.6700	-1.1114	25.18	0.21	-0.750			
0.3522	22542.67	3.6670	3.6670	-1.1294	25.17	0.20	-0.750			
0.3556	22760.50	3.6640	3.6639	-1.1465	25.17	0.20	-0.750			
0.3591	22981.52	3.6610	3.6611	-1.1715	25.17	0.20	-0.750			
0.3626	23208.91	3.6580	3.6579	-1.1943	25.16	0.19	-0.750			
0.3663	23441.80	3.6550	3.6550	-1.2145	25.16	0.19	-0.750			
0.3699	23674.81	3.6520	3.6521	-1.2321	25.15	0.18	-0.750			
0.3737	23915.27	3.6490	3.6490	-1.2607	25.14	0.17	-0.750			
0.3775	24158.63	3.6460	3.6460	-1.2790	25.14	0.17	-0.750			
0.3813	24404.61	3.6430	3.6429	-1.3093	25.13	0.16	-0.750			
0.3853	24658.32	3.6400	3.6400	-1.3282	25.13	0.16	-0.750			
0.3893	24918.33	3.6370	3.6370	-1.3553	25.12	0.15	-0.750			
0.3935	25181.04	3.6340	3.6339	-1.3829	25.12	0.15	-0.750			
0.3976	25448.72	3.6310	3.6309	-1.4046	25.11	0.14	-0.750			
0.4019	25718.57	3.6280	3.6280	-1.4296	25.10	0.13	-0.750			
0.4062	25996.79	3.6250	3.6250	-1.4598	25.09	0.12	-0.750			
0.4106	26279.87	3.6220	3.6219	-1.4789	25.09	0.12	-0.750			
0.4151	26567.94	3.6190	3.6189	-1.5237	25.08	0.11	-0.750			
0.4198	26864.89	3.6160	3.6161	-1.5425	25.07	0.10	-0.750			
0.4244	27160.72	3.6130	3.6129	-1.5718	25.07	0.10	-0.750			
0.4292	27467.14	3.6100	3.6101	-1.6004	25.06	0.09	-0.750	0.403	0.568	
0.4340	27774.63	3.6070	3.6070	-1.6313	25.06	0.09	-0.750			
0.4389	28087.98	3.6040	3.6039	-1.6638	25.06	0.09	-0.750			
0.4439	28409.57	3.6010	3.6009	-1.6885	25.05	0.08	-0.750			
0.4491	28741.22	3.5980	3.5981	-1.7324	25.05	0.08	-0.750			
0.4544	29083.48	3.5950	3.5947	-1.7575	25.05	0.08	-0.750			
0.4597	29421.50	3.5920	3.5920	-1.7730	25.05	0.08	-0.750			
0.4651	29765.04	3.5890	3.5891	-1.8036	25.05	0.08	-0.750			
0.4705	30112.37	3.5860	3.5861	-1.8381	25.05	0.08	-0.750			
0.4761	30471.48	3.5830	3.5831	-1.8503	25.05	0.08	-0.750			
0.4817	30830.54	3.5800	3.5801	-1.8933	25.04	0.07	-0.750			
0.4874	31196.58	3.5770	3.5772	-1.9257	25.04	0.07	-0.750			
0.4933	31573.06	3.5740	3.5739	-1.9651	25.04	0.07	-0.750			
0.4992	31949.63	3.5710	3.5708	-1.9907	25.04	0.07	-0.750			
0.5052	32331.78	3.5680	3.5679	-2.0237	25.04	0.07	-0.750			
0.5113	32723.03	3.5650	3.5649	-2.0447	25.04	0.07	-0.750			
0.5176	33127.07	3.5620	3.5621	-2.0891	25.05	0.08	-0.750			
0.5239	33526.77	3.5590	3.5590	-2.1021	25.04	0.07	-0.750			
0.5303	33938.08	3.5560	3.5558	-2.1155	25.03	0.06	-0.750			
0.5367	34348.08	3.5530	3.5532	-2.1195	25.04	0.07	-0.750			
0.5431	34760.96	3.5500	3.5500	-2.1141	25.05	0.08	-0.750			
0.5494	35163.01	3.5470	3.5470	-2.0957	25.05	0.08	-0.750			
0.5557	35565.94	3.5440	3.5440	-2.0747	25.05	0.08	-0.750			
0.5620	35964.84	3.5410	3.5409	-2.0733	25.05	0.08	-0.750			
0.5681	36359.41	3.5380	3.5380	-2.0475	25.05	0.08	-0.750			
0.5743	36753.20	3.5350	3.5351	-2.0155	25.06	0.09	-0.750			
0.5802	37133.75	3.5320	3.5322	-2.0138	25.07	0.10	-0.750			
0.5862	37519.25	3.5290	3.5288	-1.9892	25.08	0.11	-0.750			
0.5922	37900.28	3.5260	3.5258	-1.9676	25.09	0.12	-0.750			
0.5981	38281.00	3.5230	3.5230	-1.9483	25.10	0.13	-0.750			
0.6040	38656.80	3.5200	3.5198	-1.9124	25.11	0.14	-0.750			
0.6097	39020.42	3.5170	3.5171	-1.8557	25.11	0.14	-0.750			
0.6153	39376.46	3.5140	3.5139	-1.8106	25.12	0.15	-0.750			
0.6205	39714.41	3.5110	3.5111	-1.7427	25.12	0.15	-0.750			
0.6257	40045.39	3.5080	3.5081	-1.7064	25.13	0.16	-0.750			
0.6308	40368.97	3.5050	3.5049	-1.6667	25.15	0.18	-0.750			
0.6357	40686.36	3.5020	3.5019	-1.6209	25.16	0.19	-0.750			
0.6406	40995.40	3.4990	3.4991	-1.5813	25.17	0.20	-0.750			
0.6452	41293.28	3.4960	3.4961	-1.5402	25.18	0.21	-0.750			
0.6498	41586.20	3.4930	3.4929	-1.4970	25.20	0.23	-0.750			
0.6542	41870.79	3.4900	3.4899	-1.4531	25.22	0.25	-0.750			
0.6584	42140.79	3.4870	3.4872	-1.4061	25.23	0.26	-0.750			
0.6627	42413.13	3.4840	3.4841	-1.3692	25.25	0.28	-0.750			
0.6667	42671.22	3.4810	3.4809	-1.3238	25.26	0.29	-0.750			
0.6706	42917.88	3.4780	3.4781	-1.2806	25.27	0.30	-0.750			
0.6744	43161.54	3.4750	3.4749	-1.2414	25.29	0.32	-0.750			
0.6780	43394.41	3.4720	3.4719	-1.2022	25.30	0.33	-0.750			
0.6816	43622.76	3.4690	3.4690	-1.1613	25.32	0.35	-0.750			
0.6850	43843.05	3.4660	3.4660	-1.1319	25.33	0.36	-0.750			
0.6884	44057.54	3.4630	3.4630	-1.0917	25.35	0.38	-0.750			
0.6916	44261.40	3.4600	3.4600	-1.0544	25.36	0.39	-0.750			
0.6947	44459.73	3.4570	3.4572	-1.0206	25.38	0.41	-0.750			
0.6977	44652.55	3.4540	3.4539	-0.9986	25.39	0.42	-0.750			
0.7006	44840.48	3.4510	3.4510	-0.9686	25.40	0.43	-0.750			
0.7035	45023.65	3.4480	3.4480	-0.9444	25.41	0.44	-0.750			
0.7063	45201.91	3.4450	3.4450	-0.9166	25.42	0.45	-0.750			
0.7090	45378.91	3.4420	3.4420	-0.9005	25.43	0.46	-0.750			
0.7117	45547.54	3.4390	3.4390	-0.8838	25.44	0.47	-0.750			
0.7143	45713.99	3.4360	3.4360	-0.8669	25.45	0.48	-0.750			
0.7168	45877.10	3.4330	3.4329	-0.8553	25.46	0.49	-0.750			
0.7194	46040.93	3.4300	3.4298	-0.8535	25.48	0.51	-0.750			
0.7219	46203.53	3.4270	3.4270	-0.8517	25.49	0.52	-0.750			
0.7245	46367.97	3.4240	3.4240	-0.8546	25.49	0.52	-0.750			
0.7271	46532.76	3.4210	3.4209	-0.8508	25.50	0.53	-0.750			
0.7296	46694.80	3.4180	3.4180	-0.8470	25.51	0.54	-0.750			
0.7322	46859.50	3.4150	3.4151	-0.8533	25.52	0.55	-0.750			
0.7347	47022.84	3.4120	3.4118	-0.8513	25.53	0.56	-0.750			
0.7373	47185.82	3.4090	3.4089	-0.8485	25.53	0.56	-0.750			
0.7398	47349.25	3.4060	3.4060	-0.8435	25.54	0.57	-0.750			
0.7424	47511.66	3.4030	3.4030	-0.8333	25.55	0.58	-0.750			
0.7449	47676.16	3.4000	3.4001	-0.8238	25.56	0.59	-0.750			
0.7474	47831.03	3.3970	3.3970	-0.8135	25.57	0.60	-0.750			
0.7497	47983.97	3.3940	3.3940	-0.7994	25.57	0.60	-0.750			
0.7521	48136.79	3.3910	3.3909	-0.7866	25.58	0.61	-0.750			
0.7545	48285.56	3.3880	3.3881	-0.7747	25.59	0.62	-0.750			
0.7568	48436.37	3.3850	3.3850	-0.7587	25.60	0.63	-0.750			
0.7591	48580.85	3.3820	3.3819	-0.7384	25.60	0.63	-0.750			
0.7613	48721.85	3.3790	3.3790	-0.7191	25.61	0.64	-0.750			
0.7634	48855.40	3.3760	3.3759	-0.6946	25.62	0.65	-0.750			
0.7654	48987.33	3.3730	3.3730	-0.6746	25.62	0.65	-0.750			
0.7674	49115.09	3.3700	3.3699	-0.6542	25.63	0.66	-0.750			
0.7693	49238.39	3.3670	3.3669	-0.6310	25.64	0.67	-0.750			
0.7712	49358.56	3.3640	3.3640	-0.6101	25.64	0.67	-0.750			
0.7730	49474.45	3.3610	3.3610	-0.5809	25.65	0.68	-0.750			
0.7747	49582.79	3.3580	3.3580	-0.5557	25.65	0.68	-0.750			
0.7763	49684.67	3.3550	3.3551	-0.5370	25.66	0.69	-0.750			
0.7779	49785.48	3.3520	3.3518	-0.5195	25.66	0.69	-0.750			
0.7794	49882.53	3.3490	3.3489	-0.5020	25.67	0.70	-0.750			
0.7809	49976.99	3.3460	3.3461	-0.4905	25.67	0.70	-0.750			
0.7823	50070.38	3.3430	3.3431	-0.4793	25.68	0.71	-0.750			
0.7838	50161.86	3.3400	3.3400	-0.4707	25.68	0.71	-0.750			
0.7852	50249.63	3.3370	3.3369	-0.4567	25.69	0.72	-0.750			
0.7865	50336.43	3.3340	3.3342	-0.4450	25.69	0.72	-0.750			
0.7878	50421.80	3.3310	3.3309	-0.4353	25.70	0.73	-0.750			
0.7891	50504.96	3.3280	3.3281	-0.4242	25.70	0.73	-0.750			
0.7904	50584.70	3.3250	3.3250	-0.4121	25.70	0.73	-0.750			
0.7916	50662.58	3.3220	3.3220	-0.4016	25.71	0.74	-0.750			
0.7928	50738.19	3.3190	3.3189	-0.3898	25.71	0.74	-0.750			
0.7939	50811.75	3.3160	3.3160	-0.3804	25.72	0.75	-0.750			
0.7951	50884.19	3.3130	3.3131	-0.3706	25.72	0.75	-0.750			
0.7962	50954.54	3.3100	3.3099	-0.3606	25.73	0.76	-0.750			
0.7972	51022.58	3.3070	3.3071	-0.3495	25.73	0.76	-0.750			
0.7983	51088.06	3.3040	3.3040	-0.3410	25.74	0.77	-0.750			
0.7993	51152.42	3.3010	3.3010	-0.3310	25.74	0.77	-0.750			
0.8002	51214.99	3.2980	3.2980	-0.3246	25.75	0.78	-0.750			
0.8012	51276.15	3.2950	3.2950	-0.3191	25.75	0.78	-0.750			
0.8021	51337.45	3.2920	3.2920	-0.3121	25.76	0.79	-0.750			
0.8031	51396.74	3.2890	3.2891	-0.3059	25.76	0.79	-0.750			
0.8040	51454.63	3.2860	3.2860	-0.3017	25.77	0.80	-0.750			
0.8049	51511.91	3.2830	3.2829	-0.2962	25.77	0.80	-0.750			
0.8058	51568.28	3.2800	3.2799	-0.2913	25.78	0.81	-0.750			
0.8066	51623.16	3.2770	3.2770	-0.2850	25.78	0.81	-0.750			
0.8075	51677.77	3.2740	3.2741	-0.2816	25.79	0.82	-0.750			
0.8083	51732.24	3.2710	3.2710	-0.2777	25.79	0.82	-0.750			
0.8091	51784.83	3.2680	3.2679	-0.2712	25.80	0.83	-0.750			
0.8099	51835.75	3.2650	3.2650	-0.2667	25.80	0.83	-0.750			
0.8107	51886.21	3.2620	3.2621	-0.2627	25.81	0.84	-0.750			
0.8115	51936.52	3.2590	3.2590	-0.2597	25.81	0.84	-0.750			
0.8123	51986.03	3.2560	3.2560	-0.2560	25.82	0.85	-0.750			
0.8130	52034.80	3.2530	3.2530	-0.2526	25.82	0.85	-0.750			
0.8138	52082.87	3.2500	3.2500	-0.2484	25.83	0.86	-0.750			
0.8145	52131.06	3.2470	3.2470	-0.2451	25.83	0.86	-0.750			
0.8153	52177.20	3.2440	3.2440	-0.2405	25.84	0.87	-0.750			
0.8160	52222.69	3.2410	3.2410	-0.2373	25.84	0.87	-0.750			
0.8167	52267.55	3.2380	3.2381	-0.2355	25.85	0.88	-0.750			
0.8174	52312.60	3.2350	3.2348	-0.2325	25.85	0.88	-0.750			
0.8181	52357.06	3.2320	3.2320	-0.2306	25.86	0.89	-0.750			
0.8188	52401.16	3.2290	3.2289	-0.2280	25.86	0.89	-0.750			
0.8195	52445.08	3.2260	3.2261	-0.2256	25.87	0.90	-0.750			
0.8201	52488.23	3.2230	3.2231	-0.2230	25.87	0.90	-0.750			
0.8208	52530.77	3.2200	3.2199	-0.2198	25.88	0.91	-0.750			
0.8215	52572.89	3.2170	3.2170	-0.2139	25.88	0.91	-0.750			
0.8221	52612.87	3.2140	3.2141	-0.2121	25.89	0.92	-0.750			
0.8227	52653.29	3.2110	3.2111	-0.2108	25.89	0.92	-0.750			
0.8233	52693.52	3.2080	3.2080	-0.2093	25.90	0.93	-0.750			
0.8240	52733.32	3.2050	3.2050	-0.2071	25.90	0.93	-0.750			
0.8246	52772.83	3.2020	3.2021	-0.2058	25.91	0.94	-0.750			
0.8252	52812.76	3.1990	3.1990	-0.2038	25.92	0.95	-0.750			
0.8258	52852.31	3.1960	3.1960	-0.2030	25.92	0.95	-0.750			
0.8264	52890.29	3.1930	3.1930	-0.1979	25.93	0.96	-0.750			
0.8270	52928.05	3.1900	3.1900	-0.1954	25.93	0.96	-0.750			
0.8276	52965.46	3.1870	3.1869	-0.1929	25.94	0.97	-0.750			
0.8282	53001.98	3.1840	3.1840	-0.1905	25.94	0.97	-0.750			
0.8287	53038.04	3.1810	3.1811	-0.1888	25.95	0.98	-0.750			
0.8293	53074.16	3.1780	3.1779	-0.1875	25.95	0.98	-0.750			
0.8298	53109.87	3.1750	3.1749	-0.1868	25.96	0.99	-0.750			
0.8304	53145.48	3.1720	3.1719	-0.1851	25.96	0.99	-0.750			
0.8310	53181.44	3.1690	3.1691	-0.1841	25.97	1.00	-0.750			
0.8315	53216.77	3.1660	3.1659	-0.1817	25.97	1.00	-0.750			
0.8321	53251.83	3.1630	3.1630	-0.1797	25.97	1.00	-0.750			
0.8326	53286.04	3.1600	3.1600	-0.1776	25.97	1.00	-0.750			
0.8331	53319.76	3.1570	3.1570	-0.1746	25.98	1.01	-0.750			
0.8336	53352.78	3.1540	3.1540	-0.1731	25.98	1.01	-0.750			
0.8341	53385.50	3.1510	3.1509	-0.1712	25.99	1.02	-0.750			
0.8347	53418.28	3.1480	3.1480	-0.1696	26.00	1.03	-0.750			
0.8352	53450.79	3.1450	3.1449	-0.1684	26.00	1.03	-0.750			
0.8357	53482.88	3.1420	3.1419	-0.1673	26.01	1.04	-0.750			
0.8362	53514.90	3.1390	3.1392	-0.1662	26.02	1.05	-0.750			
0.8367	53546.75	3.1360	3.1360	-0.1642	26.02	1.05	-0.750			
0.8372	53578.29	3.1330	3.1330	-0.1633	26.03	1.06	-0.750			
0.8376	53609.22	3.1300	3.1300	-0.1613	26.03	1.06	-0.750			
0.8381	53640.10	3.1270	3.1271	-0.1601	26.04	1.07	-0.750			
0.8386	53670.98	3.1240	3.1239	-0.1587	26.05	1.08	-0.750			
0.8391	53701.41	3.1210	3.1211	-0.1565	26.05	1.08	-0.750			
0.8396	53731.26	3.1180	3.1180	-0.1544	26.06	1.09	-0.750			
0.8400	53760.49	3.1150	3.1151	-0.1535	26.06	1.09	-0.750			
0.8405	53789.94	3.1120	3.1121	-0.1525	26.07	1.10	-0.750			
0.8409	53818.89	3.1090	3.1089	-0.1507	26.08	1.11	-0.750			
0.8414	53847.73	3.1060	3.1060	-0.1497	26.08	1.11	-0.750			
0.8418	53876.37	3.1030	3.1031	-0.1484	26.09	1.12	-0.750			
0.8423	53904.72	3.1000	3.1000	-0.1481	26.09	1.12	-0.750			
0.8427	53933.11	3.0970	3.0970	-0.1476	26.10	1.13	-0.750			
0.8431	53961.35	3.0940	3.0939	-0.1467	26.10	1.13	-0.750			
0.8436	53989.10	3.0910	3.0909	-0.1455	26.11	1.14	-0.750			
0.8440	54017.32	3.0880	3.0881	-0.1445	26.12	1.15	-0.750			
0.8445	54045.21	3.0850	3.0850	-0.1437	26.12	1.15	-0.750			
0.8449	54072.65	3.0820	3.0821	-0.1418	26.13	1.16	-0.750			
0.8453	54099.96	3.0790	3.0790	-0.1400	26.13	1.16	-0.750			
0.8457	54126.14	3.0760	3.0761	-0.1383	26.14	1.17	-0.750			
0.8461	54152.39	3.0730	3.0730	-0.1368	26.14	1.17	-0.750			
0.8465	54178.61	3.0700	3.0700	-0.1360	26.15	1.18	-0.750			
0.8469	54204.46	3.0670	3.0669	-0.1351	26.15	1.18	-0.750			
0.8474	54230.42	3.0640	3.0640	-0.1345	26.16	1.19	-0.750			
0.8478	54256.18	3.0610	3.0611	-0.1339	26.17	1.20	-0.750			
0.8482	54281.89	3.0580	3.0580	-0.1332	26.17	1.20	-0.750			
0.8486	54307.64	3.0550	3.0550	-0.1323	26.18	1.21	-0.750			
0.8489	54332.76	3.0520	3.0520	-0.1308	26.18	1.21	-0.750			
0.8493	54357.78	3.0490	3.0490	-0.1298	26.19	1.22	-0.750			
0.8497	54382.69	3.0460	3.0460	-0.1291	26.19	1.22	-0.750			
0.8501	54407.37	3.0430	3.0430	-0.1278	26.20	1.23	-0.750			
0.8505	54431.82	3.0400	3.0400	-0.1267	26.20	1.23	-0.750			
0.8509	54455.92	3.0370	3.0370	-0.1260	26.21	1.24	-0.750			
0.8512	54479.92	3.0340	3.0341	-0.1251	26.21	1.24	-0.750			
0.8516	54503.94	3.0310	3.0310	-0.1245	26.22	1.25	-0.750			
0.8520	54527.69	3.0280	3.0279	-0.1236	26.22	1.25	-0.750			
0.8524	54551.51	3.0250	3.0249	-0.1225	26.23	1.26	-0.750			
0.8527	54574.98	3.0220	3.0221	-0.1217	26.23	1.26	-0.750			
0.8531	54598.22	3.0190	3.0190	-0.1207	26.24	1.27	-0.750			
0.8535	54621.52	3.0160	3.0159	-0.1201	26.24	1.27	-0.750			
0.8538	54644.44	3.0130	3.0131	-0.1188	26.25	1.28	-0.750			
0.8542	54666.91	3.0100	3.0099	-0.1177	26.25	1.28	-0.751			
0.8545	54689.45	3.0070	3.0070	-0.1170	26.26	1.29	-0.751			
0.8549	54711.89	3.0040	3.0041	-0.1179	26.26	1.29	-0.751			
