Ah_balance (normalized)	Ah_balance (mAh)	Voltage - fit (V)	Voltage -  interpolate (V)	dQ/dV (1/V)	Temperature (°C)	Temperature - diff (°C)	Current (C)	R_DC 0ms (mOhm)	R_DC 50ms (mOhm)	R_DC 50 ms PEC (mOhm)
0.0004	22.48	4.1600	4.1596	-0.1232	25.91	0.02	-0.750			
0.0008	49.37	4.1570	4.1569	-0.1591	25.91	0.02	-0.750			
0.0013	82.89	4.1540	4.1541	-0.1974	25.91	0.02	-0.750			
0.0019	124.53	4.1510	4.1510	-0.2366	25.90	0.01	-0.750			
0.0027	174.01	4.1480	4.1479	-0.2751	25.90	0.01	-0.750			
0.0036	231.24	4.1450	4.1450	-0.3108	25.90	0.01	-0.750			
0.0046	295.65	4.1420	4.1420	-0.3446	25.89	0.00	-0.750			
0.0057	365.55	4.1390	4.1389	-0.3772	25.89	0.00	-0.750			
0.0069	441.07	4.1360	4.1360	-0.4052	25.89	-0.00	-0.750			
0.0082	521.69	4.1330	4.1330	-0.4311	25.88	-0.01	-0.750			
0.0095	607.45	4.1300	4.1299	-0.4556	25.88	-0.01	-0.750			
0.0109	697.40	4.1270	4.1271	-0.4789	25.87	-0.02	-0.750			
0.0124	792.38	4.1240	4.1240	-0.5047	25.87	-0.02	-0.750			
0.0139	891.38	4.1210	4.1210	-0.5260	25.86	-0.03	-0.750			
0.0156	995.56	4.1180	4.1179	-0.5411	25.86	-0.03	-0.750			
0.0172	1101.64	4.1150	4.1150	-0.5578	25.85	-0.04	-0.750			
0.0189	1210.97	4.1120	4.1121	-0.5714	25.85	-0.04	-0.750			
0.0207	1322.10	4.1090	4.1089	-0.5812	25.85	-0.04	-0.750			
0.0224	1434.18	4.1060	4.1060	-0.5925	25.84	-0.05	-0.750			
0.0242	1548.19	4.1030	4.1029	-0.6039	25.84	-0.05	-0.750			
0.0260	1666.45	4.1000	4.1000	-0.6138	25.83	-0.06	-0.750			
0.0279	1786.58	4.0970	4.0970	-0.6218	25.83	-0.06	-0.750			
0.0298	1907.46	4.0940	4.0940	-0.6273	25.82	-0.07	-0.750			
0.0317	2028.13	4.0910	4.0912	-0.6355	25.82	-0.07	-0.750			
0.0336	2149.50	4.0880	4.0880	-0.6425	25.82	-0.07	-0.750			
0.0355	2272.78	4.0850	4.0850	-0.6487	25.82	-0.07	-0.750			
0.0375	2397.64	4.0820	4.0819	-0.6623	25.81	-0.08	-0.750			
0.0395	2528.88	4.0790	4.0789	-0.6669	25.81	-0.08	-0.750			
0.0416	2659.59	4.0760	4.0760	-0.6725	25.81	-0.08	-0.750			
0.0436	2787.78	4.0730	4.0735	-0.6749	25.81	-0.08	-0.750			
0.0456	2916.85	4.0700	4.0699	-0.6752	25.81	-0.08	-0.750			
0.0476	3046.02	4.0670	4.0669	-0.6811	25.81	-0.08	-0.750			
0.0496	3175.02	4.0640	4.0639	-0.6832	25.81	-0.08	-0.750			
0.0517	3308.99	4.0610	4.0611	-0.6937	25.81	-0.08	-0.750			
0.0538	3443.97	4.0580	4.0580	-0.6955	25.81	-0.08	-0.750			
0.0559	3578.88	4.0550	4.0551	-0.6937	25.81	-0.08	-0.750			
0.0580	3710.50	4.0520	4.0520	-0.6956	25.81	-0.08	-0.750			
0.0601	3843.61	4.0490	4.0489	-0.6943	25.81	-0.08	-0.750			
0.0621	3976.23	4.0460	4.0460	-0.6974	25.81	-0.08	-0.750			
0.0642	4109.45	4.0430	4.0430	-0.7019	25.81	-0.08	-0.750			
0.0663	4245.04	4.0400	4.0400	-0.7081	25.81	-0.08	-0.750			
0.0685	4382.23	4.0370	4.0369	-0.7117	25.81	-0.08	-0.750			
0.0706	4519.97	4.0340	4.0340	-0.7144	25.81	-0.08	-0.750			
0.0728	4656.59	4.0310	4.0310	-0.7141	25.81	-0.08	-0.750			
0.0749	4795.16	4.0280	4.0280	-0.7208	25.81	-0.08	-0.750			
0.0771	4933.60	4.0250	4.0249	-0.7172	25.81	-0.08	-0.750			
0.0792	5071.43	4.0220	4.0220	-0.7166	25.81	-0.08	-0.750			
0.0814	5209.22	4.0190	4.0192	-0.7150	25.81	-0.08	-0.750			
0.0835	5346.28	4.0160	4.0159	-0.7173	25.81	-0.08	-0.750			
0.0857	5482.75	4.0130	4.0130	-0.7208	25.81	-0.08	-0.750			
0.0878	5620.78	4.0100	4.0100	-0.7189	25.81	-0.08	-0.750			
0.0900	5759.76	4.0070	4.0070	-0.7265	25.81	-0.08	-0.750			
0.0922	5899.60	4.0040	4.0040	-0.7306	25.81	-0.08	-0.750			
0.0944	6039.93	4.0010	4.0010	-0.7339	25.81	-0.08	-0.750			
0.0966	6182.16	3.9980	3.9979	-0.7345	25.81	-0.08	-0.750			
0.0988	6322.72	3.9950	3.9950	-0.7347	25.81	-0.08	-0.750			
0.1010	6464.32	3.9920	3.9920	-0.7364	25.81	-0.08	-0.750			
0.1032	6606.89	3.9890	3.9890	-0.7383	25.81	-0.08	-0.750			
0.1054	6747.27	3.9860	3.9859	-0.7362	25.81	-0.08	-0.750			
0.1076	6888.36	3.9830	3.9830	-0.7392	25.81	-0.08	-0.750			
0.1099	7030.46	3.9800	3.9800	-0.7397	25.81	-0.08	-0.750			
0.1121	7173.52	3.9770	3.9770	-0.7458	25.81	-0.08	-0.750			
0.1143	7316.88	3.9740	3.9740	-0.7471	25.81	-0.08	-0.750			
0.1166	7461.91	3.9710	3.9710	-0.7507	25.81	-0.08	-0.750			
0.1188	7606.10	3.9680	3.9682	-0.7527	25.81	-0.08	-0.750			
0.1211	7749.74	3.9650	3.9650	-0.7534	25.81	-0.08	-0.750			
0.1234	7895.02	3.9620	3.9620	-0.7560	25.81	-0.08	-0.750			
0.1256	8040.55	3.9590	3.9590	-0.7565	25.82	-0.07	-0.750			
0.1279	8187.18	3.9560	3.9560	-0.7616	25.82	-0.07	-0.750			
0.1302	8333.23	3.9530	3.9530	-0.7584	25.82	-0.07	-0.750			
0.1325	8480.19	3.9500	3.9499	-0.7537	25.82	-0.07	-0.750			
0.1347	8622.06	3.9470	3.9470	-0.7610	25.82	-0.07	-0.750			
0.1370	8766.30	3.9440	3.9441	-0.7650	25.82	-0.07	-0.750			
0.1393	8914.73	3.9410	3.9408	-0.7681	25.83	-0.06	-0.750			
0.1416	9063.07	3.9380	3.9380	-0.7778	25.83	-0.06	-0.750			
0.1440	9213.73	3.9350	3.9353	-0.7790	25.83	-0.06	-0.750			
0.1463	9365.43	3.9320	3.9319	-0.7798	25.83	-0.06	-0.750			
0.1487	9516.65	3.9290	3.9290	-0.7863	25.84	-0.05	-0.750			
0.1510	9666.33	3.9260	3.9260	-0.7779	25.84	-0.05	-0.750			
0.1534	9815.59	3.9230	3.9229	-0.7792	25.85	-0.04	-0.750			
0.1557	9966.02	3.9200	3.9200	-0.7773	25.85	-0.04	-0.750			
0.1580	10112.77	3.9170	3.9170	-0.7810	25.85	-0.04	-0.750			
0.1604	10263.81	3.9140	3.9139	-0.7866	25.85	-0.04	-0.750			
0.1627	10415.30	3.9110	3.9109	-0.7868	25.85	-0.04	-0.750			
0.1651	10567.23	3.9080	3.9081	-0.7925	25.85	-0.04	-0.750			
0.1675	10720.09	3.9050	3.9050	-0.7969	25.85	-0.04	-0.750			
0.1699	10873.65	3.9020	3.9020	-0.7947	25.85	-0.04	-0.750			
0.1723	11024.76	3.8990	3.8990	-0.8006	25.86	-0.03	-0.750			
0.1747	11179.05	3.8960	3.8961	-0.7923	25.86	-0.03	-0.750			
0.1771	11332.47	3.8930	3.8929	-0.7939	25.86	-0.03	-0.750			
0.1794	11484.32	3.8900	3.8901	-0.7962	25.87	-0.02	-0.750			
0.1818	11636.48	3.8870	3.8870	-0.7942	25.87	-0.02	-0.750			
0.1842	11787.00	3.8840	3.8839	-0.8014	25.87	-0.02	-0.750			
0.1866	11941.80	3.8810	3.8811	-0.8058	25.87	-0.02	-0.750			
0.1890	12097.76	3.8780	3.8779	-0.8040	25.87	-0.02	-0.750			
0.1915	12255.47	3.8750	3.8749	-0.8089	25.87	-0.02	-0.750			
0.1939	12409.08	3.8720	3.8722	-0.8053	25.87	-0.02	-0.750			
0.1963	12563.13	3.8690	3.8689	-0.8015	25.87	-0.02	-0.750			
0.1987	12716.20	3.8660	3.8660	-0.8028	25.88	-0.01	-0.750			
0.2011	12869.10	3.8630	3.8630	-0.8020	25.88	-0.01	-0.750			
0.2035	13024.88	3.8600	3.8600	-0.8068	25.89	-0.00	-0.750			
0.2059	13180.38	3.8570	3.8570	-0.8080	25.89	-0.00	-0.750			
0.2084	13335.17	3.8540	3.8540	-0.8080	25.89	0.00	-0.750			
0.2108	13490.89	3.8510	3.8510	-0.8113	25.90	0.01	-0.750			
0.2132	13647.95	3.8480	3.8479	-0.8107	25.90	0.01	-0.750			
0.2157	13803.15	3.8450	3.8450	-0.8076	25.91	0.02	-0.750			
0.2181	13959.05	3.8420	3.8422	-0.8068	25.91	0.02	-0.750			
0.2205	14113.28	3.8390	3.8389	-0.8049	25.91	0.02	-0.750			
0.2229	14267.60	3.8360	3.8360	-0.8043	25.91	0.02	-0.750			
0.2253	14421.32	3.8330	3.8330	-0.8028	25.92	0.03	-0.750			
0.2277	14574.74	3.8300	3.8300	-0.8004	25.92	0.03	-0.750			
0.2302	14732.84	3.8270	3.8271	-0.7974	25.92	0.03	-0.750			
0.2326	14884.75	3.8240	3.8238	-0.7899	25.92	0.03	-0.750			
0.2349	15034.85	3.8210	3.8211	-0.7860	25.92	0.03	-0.750			
0.2373	15185.16	3.8180	3.8181	-0.7774	25.92	0.03	-0.750			
0.2395	15331.15	3.8150	3.8149	-0.7729	25.93	0.04	-0.750			
0.2419	15479.06	3.8120	3.8120	-0.7755	25.93	0.04	-0.750			
0.2442	15628.71	3.8090	3.8091	-0.7778	25.93	0.04	-0.750			
0.2466	15780.78	3.8060	3.8058	-0.7857	25.93	0.04	-0.750			
0.2489	15931.59	3.8030	3.8030	-0.7827	25.94	0.05	-0.750			
0.2513	16080.92	3.8000	3.8001	-0.7829	25.94	0.05	-0.750			
0.2536	16233.09	3.7970	3.7970	-0.7862	25.95	0.06	-0.750			
0.2560	16382.44	3.7940	3.7940	-0.7839	25.95	0.06	-0.750			
0.2583	16533.52	3.7910	3.7909	-0.7841	25.95	0.06	-0.750			
0.2607	16685.75	3.7880	3.7880	-0.7856	25.96	0.07	-0.750			
0.2631	16836.66	3.7850	3.7851	-0.7786	25.96	0.07	-0.750			
0.2654	16987.92	3.7820	3.7819	-0.7778	25.96	0.07	-0.750			
0.2677	17134.76	3.7790	3.7790	-0.7655	25.97	0.08	-0.750			
0.2700	17279.70	3.7760	3.7760	-0.7577	25.97	0.08	-0.750			
0.2722	17423.17	3.7730	3.7729	-0.7514	25.98	0.09	-0.750			
0.2745	17567.06	3.7700	3.7701	-0.7502	25.98	0.09	-0.750			
0.2767	17710.73	3.7670	3.7670	-0.7484	25.98	0.09	-0.750			
0.2790	17856.70	3.7640	3.7640	-0.7485	25.99	0.10	-0.750			
0.2812	17998.77	3.7610	3.7611	-0.7490	25.99	0.10	-0.750			
0.2835	18141.36	3.7580	3.7580	-0.7502	25.99	0.10	-0.750			
0.2857	18285.80	3.7550	3.7550	-0.7536	25.99	0.10	-0.750			
0.2880	18430.55	3.7520	3.7519	-0.7530	25.99	0.10	-0.750			
0.2903	18576.12	3.7490	3.7491	-0.7593	25.99	0.10	-0.750			
0.2925	18720.62	3.7460	3.7460	-0.7682	25.99	0.10	-0.750			
0.2948	18869.64	3.7430	3.7430	-0.7762	25.99	0.10	-0.750			
0.2972	19017.78	3.7400	3.7399	-0.7824	25.99	0.10	-0.750			
0.2995	19168.62	3.7370	3.7370	-0.7883	25.99	0.10	-0.750			
0.3019	19322.06	3.7340	3.7341	-0.7958	25.99	0.10	-0.750			
0.3043	19475.65	3.7310	3.7310	-0.8079	25.99	0.10	-0.750			
0.3067	19630.27	3.7280	3.7282	-0.8150	25.99	0.10	-0.750			
0.3092	19786.23	3.7250	3.7250	-0.8287	25.99	0.10	-0.750			
0.3117	19948.78	3.7220	3.7219	-0.8358	26.00	0.11	-0.750			
0.3142	20110.91	3.7190	3.7190	-0.8414	26.00	0.11	-0.750			
0.3167	20269.86	3.7160	3.7161	-0.8687	26.01	0.12	-0.750			
0.3193	20437.13	3.7130	3.7131	-0.8880	26.01	0.12	-0.750			
0.3220	20608.58	3.7100	3.7097	-0.9110	26.00	0.11	-0.750			
0.3248	20785.82	3.7070	3.7069	-0.9320	26.00	0.11	-0.750			
0.3277	20969.89	3.7040	3.7042	-0.9542	26.00	0.11	-0.750			
0.3306	21159.20	3.7010	3.7011	-0.9709	25.99	0.10	-0.750			
0.3335	21346.91	3.6980	3.6979	-0.9882	25.99	0.10	-0.750			
0.3365	21534.11	3.6950	3.6950	-0.9904	25.98	0.09	-0.750			
0.3395	21726.38	3.6920	3.6919	-1.0014	25.98	0.09	-0.750			
0.3425	21918.83	3.6890	3.6889	-1.0148	25.97	0.08	-0.750			
0.3456	22115.61	3.6860	3.6860	-1.0392	25.97	0.08	-0.750			
0.3487	22315.47	3.6830	3.6830	-1.0579	25.97	0.08	-0.750			
0.3519	22519.96	3.6800	3.6798	-1.0691	25.96	0.07	-0.750			
0.3551	22723.49	3.6770	3.6771	-1.0849	25.96	0.07	-0.750			
0.3584	22937.15	3.6740	3.6741	-1.1195	25.95	0.06	-0.750			
0.3618	23155.41	3.6710	3.6707	-1.1433	25.95	0.06	-0.750			
0.3653	23376.18	3.6680	3.6680	-1.1634	25.94	0.05	-0.750			
0.3688	23601.17	3.6650	3.6652	-1.1921	25.93	0.04	-0.750			
0.3724	23835.55	3.6620	3.6620	-1.2227	25.92	0.03	-0.750			
0.3762	24074.97	3.6590	3.6589	-1.2486	25.92	0.03	-0.750			
0.3799	24311.34	3.6560	3.6560	-1.2646	25.91	0.02	-0.750			
0.3837	24558.73	3.6530	3.6530	-1.2879	25.91	0.02	-0.750			
0.3876	24808.39	3.6500	3.6499	-1.3017	25.90	0.01	-0.750			
0.3915	25056.00	3.6470	3.6471	-1.3470	25.89	0.00	-0.750			
0.3956	25318.98	3.6440	3.6439	-1.3720	25.89	-0.00	-0.750			
0.3998	25588.86	3.6410	3.6408	-1.3998	25.88	-0.01	-0.750			
0.4041	25860.59	3.6380	3.6382	-1.4350	25.87	-0.02	-0.750			
0.4085	26140.84	3.6350	3.6349	-1.4602	25.87	-0.02	-0.750			
0.4129	26425.06	3.6320	3.6319	-1.4901	25.86	-0.03	-0.750			
0.4174	26712.57	3.6290	3.6288	-1.5056	25.85	-0.04	-0.750			
0.4219	26999.07	3.6260	3.6259	-1.5376	25.85	-0.04	-0.750			
0.4266	27299.46	3.6230	3.6231	-1.5703	25.84	-0.05	-0.750			
0.4313	27601.11	3.6200	3.6200	-1.6002	25.84	-0.05	-0.750			
0.4360	27907.15	3.6170	3.6170	-1.6240	25.83	-0.06	-0.750	0.399	0.544	
0.4411	28228.31	3.6140	3.6138	-1.6621	25.82	-0.07	-0.750			
0.4461	28549.82	3.6110	3.6109	-1.6948	25.82	-0.07	-0.750			
0.4513	28880.24	3.6080	3.6080	-1.7325	25.81	-0.08	-0.750			
0.4565	29216.45	3.6050	3.6052	-1.7638	25.81	-0.08	-0.750			
0.4619	29560.95	3.6020	3.6021	-1.7836	25.81	-0.08	-0.750			
0.4673	29906.78	3.5990	3.5990	-1.8224	25.81	-0.08	-0.750			
0.4728	30258.93	3.5960	3.5961	-1.8778	25.80	-0.09	-0.750			
0.4785	30623.50	3.5930	3.5928	-1.9141	25.79	-0.10	-0.750			
0.4843	30994.90	3.5900	3.5903	-1.9588	25.79	-0.10	-0.750			
0.4902	31373.74	3.5870	3.5871	-1.9918	25.79	-0.10	-0.750			
0.4963	31762.61	3.5840	3.5840	-2.0227	25.79	-0.10	-0.750			
0.5025	32159.66	3.5810	3.5811	-2.0449	25.78	-0.11	-0.750			
0.5087	32553.81	3.5780	3.5779	-2.0753	25.77	-0.12	-0.750			
0.5148	32948.41	3.5750	3.5751	-2.0925	25.77	-0.12	-0.750			
0.5212	33355.75	3.5720	3.5718	-2.1205	25.77	-0.12	-0.750			
0.5276	33768.52	3.5690	3.5692	-2.1461	25.77	-0.12	-0.750			
0.5341	34182.80	3.5660	3.5659	-2.1633	25.77	-0.12	-0.750			
0.5408	34609.88	3.5630	3.5631	-2.1684	25.77	-0.12	-0.750			
0.5472	35023.60	3.5600	3.5600	-2.1620	25.77	-0.12	-0.750			
0.5537	35436.16	3.5570	3.5568	-2.1786	25.77	-0.12	-0.750			
0.5602	35849.71	3.5540	3.5540	-2.1684	25.77	-0.12	-0.750			
0.5667	36271.46	3.5510	3.5510	-2.1738	25.77	-0.12	-0.750			
0.5732	36685.13	3.5480	3.5480	-2.1702	25.78	-0.11	-0.750			
0.5798	37107.69	3.5450	3.5451	-2.1721	25.79	-0.10	-0.750			
0.5865	37534.35	3.5420	3.5420	-2.1632	25.79	-0.10	-0.750			
0.5928	37937.73	3.5390	3.5391	-2.1350	25.79	-0.10	-0.750			
0.5992	38348.85	3.5360	3.5361	-2.1045	25.80	-0.09	-0.750			
0.6056	38756.37	3.5330	3.5329	-2.0636	25.81	-0.08	-0.750			
0.6116	39144.48	3.5300	3.5300	-2.0354	25.81	-0.08	-0.750			
0.6177	39533.27	3.5270	3.5268	-1.9844	25.82	-0.07	-0.750			
0.6236	39909.43	3.5240	3.5238	-1.9524	25.83	-0.06	-0.750			
0.6294	40279.96	3.5210	3.5210	-1.9198	25.84	-0.05	-0.750			
0.6351	40643.21	3.5180	3.5182	-1.8749	25.85	-0.04	-0.750			
0.6408	41008.85	3.5150	3.5150	-1.8303	25.86	-0.03	-0.750			
0.6462	41358.31	3.5120	3.5118	-1.7920	25.87	-0.02	-0.750			
0.6514	41690.63	3.5090	3.5090	-1.7381	25.88	-0.01	-0.750			
0.6566	42023.47	3.5060	3.5058	-1.6822	25.89	0.00	-0.750			
0.6615	42335.18	3.5030	3.5031	-1.6169	25.91	0.02	-0.750			
0.6663	42641.39	3.5000	3.4999	-1.5672	25.92	0.03	-0.750			
0.6710	42941.01	3.4970	3.4969	-1.5213	25.94	0.05	-0.750			
0.6754	43227.70	3.4940	3.4939	-1.4748	25.95	0.06	-0.750			
0.6797	43500.76	3.4910	3.4910	-1.4239	25.97	0.08	-0.750			
0.6840	43774.08	3.4880	3.4879	-1.3958	25.98	0.09	-0.750			
0.6881	44035.52	3.4850	3.4850	-1.3479	26.00	0.11	-0.750			
0.6920	44287.72	3.4820	3.4820	-1.3134	26.01	0.12	-0.750			
0.6959	44535.77	3.4790	3.4791	-1.2758	26.03	0.14	-0.750			
0.6997	44782.28	3.4760	3.4759	-1.2363	26.04	0.15	-0.750			
0.7034	45014.49	3.4730	3.4730	-1.1924	26.06	0.17	-0.750			
0.7068	45237.58	3.4700	3.4702	-1.1556	26.07	0.18	-0.750			
0.7103	45457.00	3.4670	3.4669	-1.1146	26.09	0.20	-0.750			
0.7136	45667.78	3.4640	3.4639	-1.0725	26.11	0.22	-0.750			
0.7167	45867.79	3.4610	3.4610	-1.0318	26.12	0.23	-0.750			
0.7197	46062.97	3.4580	3.4580	-0.9970	26.14	0.25	-0.750			
0.7227	46250.78	3.4550	3.4550	-0.9633	26.15	0.26	-0.750			
0.7255	46429.32	3.4520	3.4519	-0.9277	26.16	0.27	-0.750			
0.7282	46601.76	3.4490	3.4491	-0.9022	26.18	0.29	-0.750			
0.7308	46774.09	3.4460	3.4461	-0.8870	26.19	0.30	-0.750			
0.7335	46941.98	3.4430	3.4429	-0.8709	26.20	0.31	-0.750			
0.7360	47106.45	3.4400	3.4399	-0.8647	26.21	0.32	-0.750			
0.7386	47269.17	3.4370	3.4370	-0.8618	26.21	0.32	-0.750			
0.7412	47433.98	3.4340	3.4340	-0.8639	26.22	0.33	-0.750			
0.7437	47598.85	3.4310	3.4312	-0.8713	26.23	0.34	-0.750			
0.7463	47766.15	3.4280	3.4280	-0.8836	26.24	0.35	-0.750			
0.7490	47935.48	3.4250	3.4250	-0.8973	26.26	0.37	-0.750			
0.7517	48109.03	3.4220	3.4219	-0.9134	26.27	0.38	-0.750			
0.7545	48287.76	3.4190	3.4191	-0.9250	26.28	0.39	-0.750			
0.7573	48466.81	3.4160	3.4160	-0.9347	26.29	0.40	-0.750			
0.7601	48649.23	3.4130	3.4131	-0.9463	26.30	0.41	-0.750			
0.7630	48833.05	3.4100	3.4099	-0.9453	26.30	0.41	-0.750			
0.7659	49015.99	3.4070	3.4069	-0.9375	26.31	0.42	-0.750			
0.7687	49197.33	3.4040	3.4041	-0.9225	26.31	0.42	-0.750			
0.7715	49374.13	3.4010	3.4010	-0.9076	26.32	0.43	-0.750			
0.7742	49547.58	3.3980	3.3980	-0.8838	26.33	0.44	-0.750			
0.7768	49713.70	3.3950	3.3950	-0.8539	26.34	0.45	-0.750			
0.7793	49875.35	3.3920	3.3919	-0.8278	26.35	0.46	-0.750			
0.7817	50031.79	3.3890	3.3892	-0.7994	26.36	0.47	-0.750			
0.7841	50182.63	3.3860	3.3860	-0.7765	26.37	0.48	-0.750			
0.7864	50327.87	3.3830	3.3830	-0.7539	26.37	0.48	-0.750			
0.7886	50470.23	3.3800	3.3800	-0.7281	26.38	0.49	-0.750			
0.7908	50609.64	3.3770	3.3769	-0.7039	26.38	0.49	-0.750			
0.7929	50743.03	3.3740	3.3740	-0.6803	26.39	0.50	-0.750			
0.7949	50870.98	3.3710	3.3710	-0.6540	26.40	0.51	-0.750			
0.7968	50993.78	3.3680	3.3679	-0.6280	26.41	0.52	-0.750			
0.7986	51110.20	3.3650	3.3650	-0.6014	26.41	0.52	-0.750			
0.8003	51221.24	3.3620	3.3620	-0.5786	26.42	0.53	-0.750			
0.8021	51332.30	3.3590	3.3591	-0.5625	26.43	0.54	-0.750			
0.8037	51438.66	3.3560	3.3560	-0.5415	26.44	0.55	-0.750			
0.8053	51539.92	3.3530	3.3530	-0.5227	26.45	0.56	-0.750			
0.8069	51638.74	3.3500	3.3500	-0.5060	26.45	0.56	-0.750			
0.8083	51733.27	3.3470	3.3470	-0.4895	26.46	0.57	-0.750			
0.8098	51825.93	3.3440	3.3439	-0.4738	26.47	0.58	-0.750			
0.8112	51914.99	3.3410	3.3410	-0.4567	26.47	0.58	-0.750			
0.8125	52001.69	3.3380	3.3380	-0.4430	26.48	0.59	-0.750			
0.8138	52085.50	3.3350	3.3350	-0.4300	26.48	0.59	-0.750			
0.8151	52166.13	3.3320	3.3320	-0.4146	26.49	0.60	-0.750			
0.8163	52243.71	3.3290	3.3290	-0.4008	26.49	0.60	-0.750			
0.8175	52319.13	3.3260	3.3260	-0.3887	26.50	0.61	-0.750			
0.8186	52392.57	3.3230	3.3231	-0.3784	26.50	0.61	-0.750			
0.8198	52464.08	3.3200	3.3199	-0.3678	26.51	0.62	-0.750			
0.8208	52533.54	3.3170	3.3170	-0.3568	26.51	0.62	-0.750			
0.8219	52601.14	3.3140	3.3140	-0.3468	26.52	0.63	-0.750			
0.8229	52666.82	3.3110	3.3110	-0.3383	26.52	0.63	-0.750			
0.8239	52730.98	3.3080	3.3080	-0.3284	26.53	0.64	-0.750			
0.8249	52792.30	3.3050	3.3050	-0.3201	26.53	0.64	-0.750			
0.8258	52853.17	3.3020	3.3020	-0.3114	26.54	0.65	-0.750			
0.8268	52912.05	3.2990	3.2990	-0.3037	26.54	0.65	-0.750			
0.8276	52969.32	3.2960	3.2960	-0.2975	26.54	0.65	-0.750			
0.8285	53025.77	3.2930	3.2931	-0.2910	26.55	0.66	-0.750			
0.8294	53080.88	3.2900	3.2899	-0.2847	26.55	0.66	-0.750			
0.8302	53135.07	3.2870	3.2869	-0.2788	26.56	0.67	-0.750			
0.8311	53187.70	3.2840	3.2843	-0.2723	26.56	0.67	-0.750			
0.8319	53240.23	3.2810	3.2810	-0.2685	26.57	0.68	-0.750			
0.8327	53290.82	3.2780	3.2780	-0.2619	26.57	0.68	-0.750			
0.8334	53340.27	3.2750	3.2749	-0.2560	26.58	0.69	-0.750			
0.8342	53388.70	3.2720	3.2720	-0.2508	26.58	0.69	-0.750			
0.8349	53436.26	3.2690	3.2690	-0.2460	26.59	0.70	-0.750			
0.8357	53482.94	3.2660	3.2660	-0.2416	26.59	0.70	-0.750			
0.8364	53528.84	3.2630	3.2630	-0.2376	26.60	0.71	-0.750			
0.8371	53573.88	3.2600	3.2600	-0.2333	26.60	0.71	-0.750			
0.8378	53618.10	3.2570	3.2570	-0.2301	26.61	0.72	-0.750			
0.8385	53661.94	3.2540	3.2540	-0.2268	26.61	0.72	-0.750			
0.8391	53705.32	3.2510	3.2509	-0.2234	26.62	0.73	-0.750			
0.8398	53747.90	3.2480	3.2480	-0.2201	26.62	0.73	-0.750			
0.8405	53789.75	3.2450	3.2450	-0.2175	26.63	0.74	-0.750			
0.8411	53831.15	3.2420	3.2421	-0.2148	26.63	0.74	-0.750			
0.8418	53872.42	3.2390	3.2390	-0.2114	26.64	0.75	-0.750			
0.8424	53912.68	3.2360	3.2358	-0.2079	26.64	0.75	-0.750			
0.8430	53952.22	3.2330	3.2330	-0.2046	26.65	0.76	-0.750			
0.8436	53991.01	3.2300	3.2301	-0.2026	26.65	0.76	-0.750			
0.8442	54029.82	3.2270	3.2269	-0.1998	26.66	0.77	-0.750			
0.8448	54067.89	3.2240	3.2239	-0.1968	26.66	0.77	-0.750			
0.8454	54105.11	3.2210	3.2209	-0.1933	26.67	0.78	-0.750			
0.8460	54141.85	3.2180	3.2181	-0.1913	26.67	0.78	-0.750			
0.8465	54178.53	3.2150	3.2150	-0.1899	26.68	0.79	-0.750			
0.8471	54214.77	3.2120	3.2119	-0.1875	26.69	0.80	-0.750			
0.8477	54250.36	3.2090	3.2089	-0.1850	26.69	0.80	-0.750			
0.8482	54285.52	3.2060	3.2061	-0.1820	26.70	0.81	-0.750			
0.8488	54320.51	3.2030	3.2031	-0.1810	26.70	0.81	-0.750			
0.8493	54355.04	3.2000	3.2000	-0.1787	26.71	0.82	-0.750			
0.8498	54389.34	3.1970	3.1970	-0.1758	26.71	0.82	-0.750			
0.8504	54422.53	3.1940	3.1939	-0.1732	26.72	0.83	-0.750			
0.8509	54455.07	3.1910	3.1911	-0.1715	26.72	0.83	-0.750			
0.8514	54487.90	3.1880	3.1881	-0.1705	26.73	0.84	-0.750			
0.8519	54520.50	3.1850	3.1849	-0.1690	26.73	0.84	-0.750			
0.8524	54553.03	3.1820	3.1819	-0.1675	26.74	0.85	-0.750			
0.8529	54584.95	3.1790	3.1790	-0.1658	26.74	0.85	-0.750			
0.8534	54616.66	3.1760	3.1761	-0.1645	26.75	0.86	-0.750			
0.8539	54648.50	3.1730	3.1730	-0.1635	26.75	0.86	-0.750			
0.8544	54679.59	3.1700	3.1699	-0.1616	26.76	0.87	-0.750			
0.8549	54710.45	3.1670	3.1670	-0.1598	26.77	0.88	-0.750			
0.8553	54740.71	3.1640	3.1640	-0.1575	26.77	0.88	-0.750			
0.8558	54771.08	3.1610	3.1609	-0.1559	26.78	0.89	-0.750			
0.8563	54800.84	3.1580	3.1580	-0.1543	26.78	0.89	-0.750			
0.8567	54830.25	3.1550	3.1550	-0.1521	26.79	0.90	-0.750			
0.8572	54858.84	3.1520	3.1521	-0.1515	26.79	0.90	-0.750			
0.8576	54887.71	3.1490	3.1490	-0.1503	26.80	0.91	-0.750			
0.8581	54916.69	3.1460	3.1459	-0.1490	26.81	0.92	-0.750			
0.8585	54945.20	3.1430	3.1430	-0.1480	26.81	0.92	-0.750			
0.8590	54973.73	3.1400	3.1401	-0.1471	26.82	0.93	-0.750			
0.8594	55002.05	3.1370	3.1370	-0.1459	26.82	0.93	-0.750			
0.8598	55029.69	3.1340	3.1339	-0.1445	26.83	0.94	-0.750			
0.8603	55057.31	3.1310	3.1309	-0.1432	26.83	0.94	-0.750			
0.8607	55084.34	3.1280	3.1281	-0.1416	26.84	0.95	-0.750			
0.8611	55111.64	3.1250	3.1249	-0.1405	26.84	0.95	-0.750			
0.8615	55138.55	3.1220	3.1221	-0.1398	26.85	0.96	-0.750			
0.8620	55165.25	3.1190	3.1190	-0.1384	26.86	0.97	-0.750			
0.8624	55191.58	3.1160	3.1160	-0.1372	26.86	0.97	-0.750			
0.8628	55217.84	3.1130	3.1130	-0.1362	26.87	0.98	-0.750			
0.8632	55243.72	3.1100	3.1100	-0.1349	26.87	0.98	-0.750			
0.8636	55269.63	3.1070	3.1070	-0.1337	26.88	0.99	-0.750			
0.8640	55295.32	3.1040	3.1040	-0.1327	26.88	0.99	-0.750			
0.8644	55320.70	3.1010	3.1011	-0.1317	26.89	1.00	-0.750			
0.8648	55345.75	3.0980	3.0980	-0.1302	26.89	1.00	-0.750			
0.8652	55370.50	3.0950	3.0950	-0.1297	26.90	1.01	-0.750			
0.8656	55395.24	3.0920	3.0920	-0.1289	26.90	1.01	-0.750			
0.8659	55419.88	3.0890	3.0890	-0.1280	26.91	1.02	-0.750			
0.8663	55444.43	3.0860	3.0859	-0.1277	26.91	1.02	-0.750			
0.8667	55468.98	3.0830	3.0831	-0.1273	26.92	1.03	-0.750			
0.8671	55493.74	3.0800	3.0800	-0.1261	26.92	1.03	-0.750			
0.8675	55517.82	3.0770	3.0769	-0.1247	26.93	1.04	-0.750			
0.8678	55541.74	3.0740	3.0741	-0.1240	26.93	1.04	-0.750			
0.8682	55565.40	3.0710	3.0710	-0.1225	26.94	1.05	-0.750			
0.8686	55588.56	3.0680	3.0681	-0.1217	26.94	1.05	-0.750			
0.8689	55611.72	3.0650	3.0650	-0.1207	26.95	1.06	-0.750			
0.8693	55634.88	3.0620	3.0620	-0.1200	26.95	1.06	-0.750			
0.8697	55657.62	3.0590	3.0590	-0.1192	26.96	1.07	-0.750			
0.8700	55680.52	3.0560	3.0560	-0.1190	26.96	1.07	-0.750			
0.8704	55703.62	3.0530	3.0530	-0.1189	26.97	1.08	-0.750			
0.8707	55726.35	3.0500	3.0499	-0.1178	26.97	1.08	-0.750			
0.8711	55748.91	3.0470	3.0470	-0.1171	26.98	1.09	-0.750			
0.8714	55771.31	3.0440	3.0440	-0.1165	26.99	1.10	-0.750			
0.8718	55793.62	3.0410	3.0411	-0.1158	26.99	1.10	-0.750			
0.8721	55815.95	3.0380	3.0380	-0.1150	27.00	1.11	-0.750			
0.8725	55837.94	3.0350	3.0349	-0.1140	27.00	1.11	-0.750			
0.8728	55859.55	3.0320	3.0322	-0.1132	27.01	1.12	-0.750			
0.8731	55881.22	3.0290	3.0289	-0.1126	27.01	1.12	-0.750			
0.8735	55902.77	3.0260	3.0260	-0.1121	27.02	1.13	-0.750			
0.8738	55924.25	3.0230	3.0230	-0.1116	27.02	1.13	-0.750			
0.8741	55945.60	3.0200	3.0200	-0.1107	27.03	1.14	-0.750			
0.8745	55966.80	3.0170	3.0170	-0.1101	27.03	1.14	-0.750			
0.8748	55988.07	3.0140	3.0140	-0.1097	27.04	1.15	-0.750			
0.8751	56009.03	3.0110	3.0110	-0.1087	27.04	1.15	-0.750			
0.8755	56029.81	3.0080	3.0079	-0.1078	27.05	1.16	-0.751			
0.8758	56050.42	3.0050	3.0050	-0.1069	27.05	1.16	-0.751			
0.8761	56070.87	3.0020	3.0020	-0.1068	27.06	1.17	-0.751			
