Ah_balance (normalized)	Ah_balance (mAh)	Voltage - fit (V)	Voltage -  interpolate (V)	dQ/dV (1/V)	Temperature (°C)	Temperature - diff (°C)	Current (C)	R_DC 0ms (mOhm)	R_DC 50ms (mOhm)	R_DC 50 ms PEC (mOhm)
0.0002	14.99	4.1560	4.1560	-0.1152	25.28	0.02	-0.750			
0.0006	41.24	4.1530	4.1529	-0.1526	25.28	0.02	-0.750			
0.0012	74.01	4.1500	4.1500	-0.1854	25.27	0.01	-0.750			
0.0018	112.18	4.1470	4.1470	-0.2182	25.27	0.01	-0.750			
0.0025	157.55	4.1440	4.1441	-0.2501	25.27	0.01	-0.750			
0.0033	209.21	4.1410	4.1410	-0.2813	25.27	0.01	-0.750			
0.0042	266.05	4.1380	4.1380	-0.3117	25.27	0.01	-0.750			
0.0051	329.06	4.1350	4.1351	-0.3403	25.27	0.01	-0.750			
0.0062	397.21	4.1320	4.1320	-0.3715	25.27	0.01	-0.750			
0.0074	472.07	4.1290	4.1290	-0.3994	25.27	0.01	-0.750			
0.0086	551.79	4.1260	4.1259	-0.4243	25.26	0.00	-0.750			
0.0099	636.04	4.1230	4.1230	-0.4500	25.26	0.00	-0.750			
0.0113	725.02	4.1200	4.1200	-0.4729	25.26	-0.00	-0.750			
0.0128	818.60	4.1170	4.1170	-0.4927	25.26	-0.00	-0.750			
0.0143	915.62	4.1140	4.1139	-0.5110	25.25	-0.01	-0.750			
0.0159	1015.25	4.1110	4.1111	-0.5264	25.25	-0.01	-0.750			
0.0175	1118.83	4.1080	4.1080	-0.5435	25.25	-0.01	-0.750			
0.0192	1225.61	4.1050	4.1050	-0.5577	25.25	-0.01	-0.750			
0.0208	1333.95	4.1020	4.1020	-0.5674	25.24	-0.02	-0.750			
0.0226	1444.17	4.0990	4.0990	-0.5778	25.24	-0.02	-0.750			
0.0243	1556.24	4.0960	4.0960	-0.5872	25.24	-0.02	-0.750			
0.0261	1670.18	4.0930	4.0930	-0.5949	25.24	-0.02	-0.750			
0.0279	1784.67	4.0900	4.0900	-0.6033	25.24	-0.02	-0.750			
0.0297	1900.97	4.0870	4.0870	-0.6108	25.24	-0.02	-0.750			
0.0316	2019.97	4.0840	4.0840	-0.6184	25.24	-0.02	-0.750			
0.0334	2139.35	4.0810	4.0810	-0.6264	25.24	-0.02	-0.750			
0.0353	2260.29	4.0780	4.0780	-0.6333	25.24	-0.02	-0.750			
0.0372	2382.76	4.0750	4.0750	-0.6388	25.24	-0.02	-0.750			
0.0392	2506.30	4.0720	4.0720	-0.6449	25.25	-0.01	-0.750			
0.0411	2629.40	4.0690	4.0690	-0.6533	25.25	-0.01	-0.750			
0.0431	2756.88	4.0660	4.0660	-0.6554	25.25	-0.01	-0.750			
0.0451	2884.12	4.0630	4.0629	-0.6596	25.26	-0.00	-0.750			
0.0470	3010.77	4.0600	4.0598	-0.6610	25.26	-0.00	-0.750			
0.0490	3138.11	4.0570	4.0570	-0.6653	25.26	0.00	-0.750			
0.0510	3265.68	4.0540	4.0539	-0.6702	25.26	0.00	-0.750			
0.0530	3394.17	4.0510	4.0510	-0.6716	25.27	0.01	-0.750			
0.0550	3522.72	4.0480	4.0480	-0.6715	25.27	0.01	-0.750			
0.0571	3654.82	4.0450	4.0450	-0.6789	25.27	0.01	-0.750			
0.0591	3785.50	4.0420	4.0420	-0.6802	25.28	0.02	-0.750			
0.0612	3915.94	4.0390	4.0390	-0.6820	25.28	0.02	-0.750			
0.0632	4046.23	4.0360	4.0361	-0.6846	25.28	0.02	-0.750			
0.0653	4177.63	4.0330	4.0330	-0.6904	25.28	0.02	-0.750			
0.0674	4310.72	4.0300	4.0300	-0.6934	25.29	0.03	-0.750			
0.0695	4445.62	4.0270	4.0270	-0.6999	25.29	0.03	-0.750			
0.0716	4580.91	4.0240	4.0240	-0.7016	25.29	0.03	-0.750			
0.0737	4715.02	4.0210	4.0211	-0.7041	25.29	0.03	-0.750			
0.0758	4850.73	4.0180	4.0180	-0.7030	25.29	0.03	-0.750			
0.0779	4984.46	4.0150	4.0150	-0.7075	25.30	0.04	-0.750			
0.0800	5121.23	4.0120	4.0120	-0.7072	25.30	0.04	-0.750			
0.0822	5258.17	4.0090	4.0090	-0.7084	25.30	0.04	-0.750			
0.0843	5394.68	4.0060	4.0059	-0.7093	25.31	0.05	-0.750			
0.0864	5530.89	4.0030	4.0030	-0.7088	25.31	0.05	-0.750			
0.0885	5664.78	4.0000	4.0000	-0.7088	25.31	0.05	-0.750			
0.0906	5801.56	3.9970	3.9970	-0.7161	25.32	0.06	-0.750			
0.0928	5938.35	3.9940	3.9940	-0.7159	25.32	0.06	-0.750			
0.0950	6078.30	3.9910	3.9910	-0.7228	25.33	0.07	-0.750			
0.0972	6217.97	3.9880	3.9881	-0.7273	25.33	0.07	-0.750			
0.0993	6358.02	3.9850	3.9849	-0.7273	25.33	0.07	-0.750			
0.1015	6498.29	3.9820	3.9819	-0.7266	25.34	0.08	-0.750			
0.1037	6636.69	3.9790	3.9790	-0.7287	25.34	0.08	-0.750			
0.1059	6775.90	3.9760	3.9760	-0.7284	25.35	0.09	-0.750			
0.1081	6917.58	3.9730	3.9730	-0.7323	25.35	0.09	-0.750			
0.1103	7058.45	3.9700	3.9701	-0.7296	25.36	0.10	-0.750			
0.1125	7198.07	3.9670	3.9670	-0.7316	25.36	0.10	-0.750			
0.1147	7338.67	3.9640	3.9640	-0.7358	25.37	0.11	-0.750			
0.1169	7479.42	3.9610	3.9610	-0.7440	25.37	0.11	-0.750			
0.1191	7622.72	3.9580	3.9581	-0.7427	25.37	0.11	-0.750			
0.1214	7767.42	3.9550	3.9549	-0.7473	25.38	0.12	-0.750			
0.1236	7911.11	3.9520	3.9521	-0.7477	25.38	0.12	-0.750			
0.1259	8055.64	3.9490	3.9490	-0.7490	25.38	0.12	-0.750			
0.1281	8197.82	3.9460	3.9460	-0.7487	25.39	0.13	-0.750			
0.1303	8340.54	3.9430	3.9430	-0.7498	25.39	0.13	-0.750			
0.1326	8485.22	3.9400	3.9400	-0.7531	25.40	0.14	-0.750			
0.1349	8631.28	3.9370	3.9369	-0.7558	25.40	0.14	-0.750			
0.1371	8776.67	3.9340	3.9340	-0.7581	25.40	0.14	-0.750			
0.1394	8922.17	3.9310	3.9310	-0.7608	25.40	0.14	-0.750			
0.1417	9068.44	3.9280	3.9280	-0.7605	25.40	0.14	-0.750			
0.1440	9213.95	3.9250	3.9250	-0.7581	25.41	0.15	-0.750			
0.1463	9360.52	3.9220	3.9220	-0.7623	25.41	0.15	-0.750			
0.1485	9506.91	3.9190	3.9191	-0.7673	25.41	0.15	-0.750			
0.1509	9655.02	3.9160	3.9160	-0.7684	25.42	0.16	-0.750			
0.1532	9802.57	3.9130	3.9129	-0.7700	25.42	0.16	-0.750			
0.1555	9951.18	3.9100	3.9101	-0.7713	25.43	0.17	-0.750			
0.1578	10099.99	3.9070	3.9070	-0.7750	25.43	0.17	-0.750			
0.1601	10248.34	3.9040	3.9040	-0.7766	25.44	0.18	-0.750			
0.1625	10397.58	3.9010	3.9009	-0.7742	25.44	0.18	-0.750			
0.1648	10546.03	3.8980	3.8980	-0.7751	25.45	0.19	-0.750			
0.1671	10695.19	3.8950	3.8950	-0.7781	25.45	0.19	-0.750			
0.1694	10844.13	3.8920	3.8920	-0.7772	25.45	0.19	-0.750			
0.1718	10994.49	3.8890	3.8890	-0.7783	25.46	0.20	-0.750			
0.1741	11143.49	3.8860	3.8860	-0.7775	25.46	0.20	-0.750			
0.1764	11291.86	3.8830	3.8831	-0.7813	25.46	0.20	-0.750			
0.1788	11442.97	3.8800	3.8800	-0.7846	25.46	0.20	-0.750			
0.1812	11594.15	3.8770	3.8770	-0.7820	25.46	0.20	-0.750			
0.1835	11744.40	3.8740	3.8740	-0.7819	25.46	0.20	-0.750			
0.1859	11894.97	3.8710	3.8711	-0.7814	25.46	0.20	-0.750			
0.1882	12044.11	3.8680	3.8679	-0.7815	25.46	0.20	-0.750			
0.1905	12193.39	3.8650	3.8650	-0.7850	25.47	0.21	-0.750			
0.1929	12344.31	3.8620	3.8619	-0.7846	25.47	0.21	-0.750			
0.1953	12497.93	3.8590	3.8589	-0.7790	25.48	0.22	-0.750			
0.1976	12647.76	3.8560	3.8563	-0.7738	25.48	0.22	-0.750			
0.1999	12794.49	3.8530	3.8530	-0.7759	25.48	0.22	-0.750			
0.2022	12942.66	3.8500	3.8499	-0.7752	25.49	0.23	-0.750			
0.2045	13088.00	3.8470	3.8469	-0.7710	25.49	0.23	-0.750			
0.2068	13236.39	3.8440	3.8441	-0.7744	25.49	0.23	-0.750			
0.2092	13389.53	3.8410	3.8410	-0.7782	25.50	0.24	-0.750			
0.2116	13540.59	3.8380	3.8380	-0.7742	25.50	0.24	-0.750			
0.2139	13687.29	3.8350	3.8350	-0.7701	25.51	0.25	-0.750			
0.2162	13833.82	3.8320	3.8320	-0.7639	25.51	0.25	-0.750			
0.2184	13980.20	3.8290	3.8290	-0.7615	25.51	0.25	-0.750			
0.2207	14126.21	3.8260	3.8260	-0.7590	25.52	0.26	-0.750			
0.2230	14272.08	3.8230	3.8232	-0.7583	25.52	0.26	-0.750			
0.2253	14417.83	3.8200	3.8200	-0.7556	25.52	0.26	-0.750			
0.2275	14561.92	3.8170	3.8170	-0.7569	25.52	0.26	-0.750			
0.2298	14707.51	3.8140	3.8140	-0.7503	25.52	0.26	-0.750			
0.2321	14852.40	3.8110	3.8110	-0.7474	25.52	0.26	-0.750			
0.2343	14995.67	3.8080	3.8079	-0.7392	25.52	0.26	-0.750			
0.2365	15137.56	3.8050	3.8050	-0.7321	25.52	0.26	-0.750			
0.2387	15276.37	3.8020	3.8020	-0.7257	25.53	0.27	-0.750			
0.2408	15413.63	3.7990	3.7990	-0.7213	25.53	0.27	-0.750			
0.2430	15550.29	3.7960	3.7960	-0.7167	25.53	0.27	-0.750			
0.2452	15690.19	3.7930	3.7930	-0.7186	25.54	0.28	-0.750			
0.2473	15828.17	3.7900	3.7900	-0.7158	25.54	0.28	-0.750			
0.2495	15965.89	3.7870	3.7870	-0.7108	25.54	0.28	-0.750			
0.2516	16102.04	3.7840	3.7840	-0.7074	25.55	0.29	-0.750			
0.2537	16236.41	3.7810	3.7810	-0.7067	25.55	0.29	-0.750			
0.2558	16371.60	3.7780	3.7779	-0.7015	25.55	0.29	-0.750			
0.2579	16505.65	3.7750	3.7750	-0.7049	25.56	0.30	-0.750			
0.2600	16641.04	3.7720	3.7721	-0.7092	25.56	0.30	-0.750			
0.2622	16778.83	3.7690	3.7689	-0.7103	25.56	0.30	-0.750			
0.2643	16915.21	3.7660	3.7660	-0.7136	25.57	0.31	-0.750			
0.2664	17051.96	3.7630	3.7630	-0.7167	25.57	0.31	-0.750			
0.2686	17188.90	3.7600	3.7600	-0.7198	25.57	0.31	-0.750			
0.2708	17329.05	3.7570	3.7569	-0.7276	25.58	0.32	-0.750			
0.2729	17467.71	3.7540	3.7542	-0.7296	25.58	0.32	-0.750			
0.2751	17609.29	3.7510	3.7509	-0.7349	25.58	0.32	-0.750			
0.2774	17750.46	3.7480	3.7480	-0.7457	25.58	0.32	-0.750			
0.2796	17892.73	3.7450	3.7450	-0.7504	25.58	0.32	-0.750			
0.2819	18039.13	3.7420	3.7420	-0.7631	25.58	0.32	-0.750			
0.2842	18185.89	3.7390	3.7389	-0.7680	25.58	0.32	-0.750			
0.2865	18334.71	3.7360	3.7361	-0.7757	25.58	0.32	-0.750			
0.2888	18483.43	3.7330	3.7330	-0.7883	25.58	0.32	-0.750			
0.2912	18635.76	3.7300	3.7300	-0.7972	25.58	0.32	-0.750			
0.2936	18787.76	3.7270	3.7270	-0.8052	25.58	0.32	-0.750			
0.2960	18945.16	3.7240	3.7240	-0.8204	25.58	0.32	-0.750			
0.2985	19104.00	3.7210	3.7211	-0.8374	25.58	0.32	-0.750			
0.3010	19266.16	3.7180	3.7180	-0.8542	25.58	0.32	-0.750			
0.3036	19431.21	3.7150	3.7149	-0.8681	25.58	0.32	-0.750			
0.3062	19599.14	3.7120	3.7120	-0.8794	25.58	0.32	-0.750			
0.3089	19770.88	3.7090	3.7089	-0.8942	25.58	0.32	-0.750			
0.3116	19942.71	3.7060	3.7060	-0.9085	25.58	0.32	-0.750			
0.3144	20119.31	3.7030	3.7030	-0.9288	25.57	0.31	-0.750			
0.3172	20298.87	3.7000	3.7000	-0.9398	25.57	0.31	-0.750			
0.3200	20481.87	3.6970	3.6969	-0.9530	25.56	0.30	-0.750			
0.3229	20666.48	3.6940	3.6944	-0.9683	25.56	0.30	-0.750			
0.3258	20854.20	3.6910	3.6909	-0.9859	25.56	0.30	-0.750			
0.3288	21044.28	3.6880	3.6880	-0.9961	25.55	0.29	-0.750			
0.3318	21234.80	3.6850	3.6849	-1.0055	25.55	0.29	-0.750			
0.3349	21431.00	3.6820	3.6821	-1.0317	25.54	0.28	-0.750			
0.3380	21630.18	3.6790	3.6789	-1.0517	25.54	0.28	-0.750			
0.3412	21834.08	3.6760	3.6759	-1.0693	25.54	0.28	-0.750			
0.3444	22040.76	3.6730	3.6729	-1.0838	25.53	0.27	-0.750			
0.3476	22249.19	3.6700	3.6703	-1.1039	25.53	0.27	-0.750			
0.3510	22466.65	3.6670	3.6669	-1.1280	25.52	0.26	-0.750			
0.3544	22684.12	3.6640	3.6640	-1.1444	25.51	0.25	-0.750			
0.3579	22903.27	3.6610	3.6610	-1.1606	25.51	0.25	-0.750			
0.3614	23127.41	3.6580	3.6581	-1.1839	25.50	0.24	-0.750			
0.3650	23360.05	3.6550	3.6549	-1.2056	25.49	0.23	-0.750			
0.3686	23593.14	3.6520	3.6520	-1.2261	25.49	0.23	-0.750			
0.3723	23828.41	3.6490	3.6490	-1.2494	25.48	0.22	-0.750			
0.3761	24073.29	3.6460	3.6460	-1.2724	25.47	0.21	-0.750			
0.3800	24318.77	3.6430	3.6430	-1.2917	25.47	0.21	-0.750			
0.3839	24566.57	3.6400	3.6400	-1.3179	25.46	0.20	-0.750			
0.3879	24822.45	3.6370	3.6370	-1.3353	25.46	0.20	-0.750			
0.3919	25082.69	3.6340	3.6340	-1.3632	25.45	0.19	-0.750			
0.3960	25344.95	3.6310	3.6310	-1.3884	25.44	0.18	-0.750			
0.4002	25614.43	3.6280	3.6279	-1.4096	25.44	0.18	-0.750			
0.4045	25890.08	3.6250	3.6249	-1.4344	25.43	0.17	-0.750			
0.4089	26167.12	3.6220	3.6220	-1.4632	25.42	0.16	-0.750			
0.4132	26447.78	3.6190	3.6190	-1.4928	25.42	0.16	-0.750			
0.4178	26739.74	3.6160	3.6160	-1.5251	25.41	0.15	-0.750			
0.4224	27035.04	3.6130	3.6131	-1.5446	25.40	0.14	-0.750			
0.4271	27333.48	3.6100	3.6101	-1.5727	25.40	0.14	-0.750	0.378	0.556	
0.4318	27637.93	3.6070	3.6070	-1.6210	25.40	0.14	-0.750			
0.4368	27953.01	3.6040	3.6040	-1.6452	25.40	0.14	-0.750			
0.4417	28270.60	3.6010	3.6011	-1.6790	25.39	0.13	-0.750			
0.4469	28598.68	3.5980	3.5981	-1.7167	25.38	0.12	-0.750			
0.4521	28935.75	3.5950	3.5950	-1.7601	25.38	0.12	-0.750			
0.4575	29278.83	3.5920	3.5921	-1.7891	25.38	0.12	-0.750			
0.4629	29622.48	3.5890	3.5888	-1.8283	25.38	0.12	-0.750			
0.4684	29974.93	3.5860	3.5862	-1.8491	25.37	0.11	-0.750			
0.4740	30338.81	3.5830	3.5829	-1.8834	25.36	0.10	-0.750			
0.4797	30699.87	3.5800	3.5801	-1.9065	25.36	0.10	-0.750			
0.4854	31063.74	3.5770	3.5768	-1.9355	25.36	0.10	-0.750			
0.4913	31442.45	3.5740	3.5740	-1.9710	25.36	0.10	-0.750			
0.4973	31827.63	3.5710	3.5710	-2.0023	25.36	0.10	-0.750			
0.5034	32217.17	3.5680	3.5679	-2.0199	25.36	0.10	-0.750			
0.5095	32609.24	3.5650	3.5651	-2.0313	25.36	0.10	-0.750			
0.5156	33000.51	3.5620	3.5620	-2.0546	25.36	0.10	-0.750			
0.5218	33394.26	3.5590	3.5589	-2.0593	25.36	0.10	-0.750			
0.5280	33789.73	3.5560	3.5560	-2.0516	25.36	0.10	-0.750			
0.5342	34189.70	3.5530	3.5530	-2.0728	25.36	0.10	-0.750			
0.5404	34587.29	3.5500	3.5500	-2.0737	25.36	0.10	-0.750			
0.5467	34987.72	3.5470	3.5470	-2.0636	25.36	0.10	-0.750			
0.5528	35380.82	3.5440	3.5440	-2.0612	25.36	0.10	-0.750			
0.5590	35776.21	3.5410	3.5409	-2.0460	25.36	0.10	-0.750			
0.5652	36171.76	3.5380	3.5381	-2.0433	25.37	0.11	-0.750			
0.5713	36565.29	3.5350	3.5349	-2.0275	25.38	0.12	-0.750			
0.5774	36953.68	3.5320	3.5320	-1.9944	25.38	0.12	-0.750			
0.5834	37334.53	3.5290	3.5290	-1.9787	25.38	0.12	-0.750			
0.5893	37713.23	3.5260	3.5260	-1.9414	25.39	0.13	-0.750			
0.5950	38082.79	3.5230	3.5230	-1.9003	25.40	0.14	-0.750			
0.6007	38445.56	3.5200	3.5201	-1.8754	25.40	0.14	-0.750			
0.6062	38799.53	3.5170	3.5169	-1.8328	25.41	0.15	-0.750			
0.6117	39150.53	3.5140	3.5140	-1.7908	25.42	0.16	-0.750			
0.6171	39492.12	3.5110	3.5110	-1.7600	25.43	0.17	-0.750			
0.6223	39826.28	3.5080	3.5079	-1.7092	25.44	0.18	-0.750			
0.6274	40152.65	3.5050	3.5049	-1.6726	25.45	0.19	-0.750			
0.6323	40468.84	3.5020	3.5022	-1.6206	25.45	0.19	-0.750			
0.6371	40772.44	3.4990	3.4990	-1.5641	25.47	0.21	-0.750			
0.6417	41070.18	3.4960	3.4959	-1.5227	25.48	0.22	-0.750			
0.6462	41356.40	3.4930	3.4930	-1.4824	25.49	0.23	-0.750			
0.6506	41636.68	3.4900	3.4898	-1.4419	25.51	0.25	-0.750			
0.6548	41908.88	3.4870	3.4870	-1.4012	25.52	0.26	-0.750			
0.6589	42170.67	3.4840	3.4840	-1.3600	25.54	0.28	-0.750			
0.6630	42431.07	3.4810	3.4810	-1.3196	25.55	0.29	-0.750			
0.6670	42684.94	3.4780	3.4779	-1.2807	25.56	0.30	-0.750			
0.6707	42924.19	3.4750	3.4750	-1.2362	25.57	0.31	-0.750			
0.6743	43156.14	3.4720	3.4721	-1.1957	25.59	0.33	-0.750			
0.6779	43383.04	3.4690	3.4689	-1.1568	25.60	0.34	-0.750			
0.6813	43600.06	3.4660	3.4659	-1.1157	25.62	0.36	-0.750			
0.6845	43809.86	3.4630	3.4631	-1.0776	25.64	0.38	-0.750			
0.6877	44014.44	3.4600	3.4600	-1.0503	25.65	0.39	-0.750			
0.6908	44214.03	3.4570	3.4570	-1.0149	25.66	0.40	-0.750			
0.6938	44403.66	3.4540	3.4539	-0.9797	25.67	0.41	-0.750			
0.6967	44586.56	3.4510	3.4510	-0.9506	25.68	0.42	-0.750			
0.6995	44767.35	3.4480	3.4480	-0.9266	25.69	0.43	-0.750			
0.7022	44941.36	3.4450	3.4449	-0.9046	25.70	0.44	-0.750			
0.7049	45111.76	3.4420	3.4420	-0.8828	25.71	0.45	-0.750			
0.7075	45277.55	3.4390	3.4391	-0.8702	25.73	0.47	-0.750			
0.7101	45445.00	3.4360	3.4360	-0.8632	25.74	0.48	-0.750			
0.7126	45608.24	3.4330	3.4330	-0.8538	25.75	0.49	-0.750			
0.7152	45771.26	3.4300	3.4300	-0.8533	25.76	0.50	-0.750			
0.7177	45933.84	3.4270	3.4270	-0.8524	25.76	0.50	-0.750			
0.7203	46097.02	3.4240	3.4239	-0.8546	25.77	0.51	-0.750			
0.7228	46261.26	3.4210	3.4212	-0.8595	25.78	0.52	-0.750			
0.7254	46425.71	3.4180	3.4180	-0.8680	25.79	0.53	-0.750			
0.7280	46593.71	3.4150	3.4150	-0.8753	25.80	0.54	-0.750			
0.7307	46762.91	3.4120	3.4120	-0.8767	25.80	0.54	-0.750			
0.7333	46933.21	3.4090	3.4090	-0.8813	25.81	0.55	-0.750			
0.7360	47103.11	3.4060	3.4060	-0.8759	25.82	0.56	-0.750			
0.7386	47271.15	3.4030	3.4029	-0.8699	25.83	0.57	-0.750			
0.7412	47437.99	3.4000	3.4000	-0.8586	25.84	0.58	-0.750			
0.7438	47602.74	3.3970	3.3970	-0.8412	25.85	0.59	-0.750			
0.7463	47765.06	3.3940	3.3939	-0.8277	25.85	0.59	-0.750			
0.7488	47922.45	3.3910	3.3911	-0.8080	25.86	0.60	-0.750			
0.7512	48074.62	3.3880	3.3880	-0.7880	25.87	0.61	-0.750			
0.7535	48223.86	3.3850	3.3850	-0.7675	25.87	0.61	-0.750			
0.7558	48368.49	3.3820	3.3819	-0.7443	25.88	0.62	-0.750			
0.7580	48510.12	3.3790	3.3790	-0.7241	25.88	0.62	-0.750			
0.7601	48648.73	3.3760	3.3760	-0.7069	25.89	0.63	-0.750			
0.7622	48780.88	3.3730	3.3730	-0.6830	25.90	0.64	-0.750			
0.7642	48910.22	3.3700	3.3700	-0.6612	25.90	0.64	-0.750			
0.7662	49034.73	3.3670	3.3670	-0.6415	25.91	0.65	-0.750			
0.7681	49156.26	3.3640	3.3640	-0.6207	25.91	0.65	-0.750			
0.7699	49274.15	3.3610	3.3610	-0.6005	25.92	0.66	-0.750			
0.7717	49386.85	3.3580	3.3580	-0.5804	25.93	0.67	-0.750			
0.7734	49495.62	3.3550	3.3550	-0.5611	25.93	0.67	-0.750			
0.7750	49601.56	3.3520	3.3520	-0.5444	25.94	0.68	-0.750			
0.7766	49704.07	3.3490	3.3490	-0.5268	25.94	0.68	-0.750			
0.7782	49803.33	3.3460	3.3460	-0.5099	25.95	0.69	-0.750			
0.7797	49899.79	3.3430	3.3431	-0.4969	25.95	0.69	-0.750			
0.7811	49993.35	3.3400	3.3399	-0.4828	25.96	0.70	-0.750			
0.7826	50084.09	3.3370	3.3370	-0.4685	25.96	0.70	-0.750			
0.7840	50172.99	3.3340	3.3340	-0.4560	25.97	0.71	-0.750			
0.7853	50259.22	3.3310	3.3311	-0.4436	25.97	0.71	-0.750			
0.7866	50343.25	3.3280	3.3280	-0.4336	25.97	0.71	-0.750			
0.7879	50425.03	3.3250	3.3250	-0.4227	25.98	0.72	-0.750			
0.7891	50505.33	3.3220	3.3220	-0.4093	25.98	0.72	-0.750			
0.7904	50582.47	3.3190	3.3190	-0.3993	25.99	0.73	-0.750			
0.7915	50658.21	3.3160	3.3161	-0.3901	25.99	0.73	-0.750			
0.7927	50732.23	3.3130	3.3129	-0.3797	26.00	0.74	-0.750			
0.7938	50803.69	3.3100	3.3099	-0.3695	26.00	0.74	-0.750			
0.7949	50873.30	3.3070	3.3070	-0.3600	26.01	0.75	-0.750			
0.7960	50941.63	3.3040	3.3040	-0.3523	26.01	0.75	-0.750			
0.7970	51008.81	3.3010	3.3009	-0.3450	26.02	0.76	-0.750			
0.7980	51073.51	3.2980	3.2980	-0.3361	26.02	0.76	-0.750			
0.7990	51137.78	3.2950	3.2950	-0.3287	26.03	0.77	-0.750			
0.8000	51200.32	3.2920	3.2919	-0.3223	26.03	0.77	-0.750			
0.8010	51261.56	3.2890	3.2890	-0.3144	26.04	0.78	-0.750			
0.8019	51320.73	3.2860	3.2861	-0.3071	26.04	0.78	-0.750			
0.8028	51378.83	3.2830	3.2830	-0.3003	26.05	0.79	-0.750			
0.8037	51435.80	3.2800	3.2800	-0.2946	26.05	0.79	-0.750			
0.8046	51491.70	3.2770	3.2770	-0.2893	26.06	0.80	-0.750			
0.8054	51546.70	3.2740	3.2740	-0.2855	26.06	0.80	-0.750			
0.8063	51600.86	3.2710	3.2710	-0.2802	26.07	0.81	-0.750			
0.8071	51654.66	3.2680	3.2679	-0.2754	26.07	0.81	-0.750			
0.8079	51707.06	3.2650	3.2650	-0.2700	26.08	0.82	-0.750			
0.8087	51758.52	3.2620	3.2621	-0.2647	26.08	0.82	-0.750			
0.8095	51808.66	3.2590	3.2590	-0.2589	26.08	0.82	-0.750			
0.8103	51857.86	3.2560	3.2559	-0.2549	26.09	0.83	-0.750			
0.8110	51905.85	3.2530	3.2530	-0.2499	26.09	0.83	-0.750			
0.8118	51953.17	3.2500	3.2500	-0.2453	26.10	0.84	-0.750			
0.8125	52000.20	3.2470	3.2470	-0.2421	26.11	0.85	-0.750			
0.8132	52045.86	3.2440	3.2441	-0.2391	26.11	0.85	-0.750			
0.8139	52091.88	3.2410	3.2410	-0.2362	26.12	0.86	-0.750			
0.8146	52136.84	3.2380	3.2380	-0.2328	26.12	0.86	-0.750			
0.8153	52181.27	3.2350	3.2349	-0.2296	26.13	0.87	-0.750			
0.8160	52224.81	3.2320	3.2321	-0.2262	26.14	0.88	-0.750			
0.8167	52268.19	3.2290	3.2290	-0.2232	26.14	0.88	-0.750			
0.8174	52310.67	3.2260	3.2260	-0.2205	26.15	0.89	-0.750			
0.8180	52352.68	3.2230	3.2230	-0.2172	26.15	0.89	-0.750			
0.8187	52393.78	3.2200	3.2200	-0.2134	26.16	0.90	-0.750			
0.8193	52434.68	3.2170	3.2170	-0.2107	26.16	0.90	-0.750			
0.8199	52474.47	3.2140	3.2140	-0.2080	26.17	0.91	-0.750			
0.8205	52514.19	3.2110	3.2111	-0.2057	26.17	0.91	-0.750			
0.8211	52553.37	3.2080	3.2079	-0.2031	26.18	0.92	-0.750			
0.8218	52592.16	3.2050	3.2049	-0.2008	26.18	0.92	-0.750			
0.8223	52630.33	3.2020	3.2020	-0.1983	26.19	0.93	-0.750			
0.8229	52668.28	3.1990	3.1990	-0.1961	26.19	0.93	-0.750			
0.8235	52705.93	3.1960	3.1960	-0.1944	26.20	0.94	-0.750			
0.8241	52743.11	3.1930	3.1930	-0.1919	26.20	0.94	-0.750			
0.8247	52779.49	3.1900	3.1900	-0.1890	26.21	0.95	-0.750			
0.8252	52815.62	3.1870	3.1870	-0.1866	26.21	0.95	-0.750			
0.8258	52851.34	3.1840	3.1841	-0.1846	26.22	0.96	-0.750			
0.8263	52886.26	3.1810	3.1809	-0.1827	26.22	0.96	-0.750			
0.8269	52921.17	3.1780	3.1780	-0.1810	26.23	0.97	-0.750			
0.8274	52955.58	3.1750	3.1750	-0.1795	26.23	0.97	-0.750			
0.8280	52989.79	3.1720	3.1720	-0.1778	26.24	0.98	-0.750			
0.8285	53024.01	3.1690	3.1690	-0.1767	26.24	0.98	-0.750			
0.8290	53057.79	3.1660	3.1660	-0.1752	26.25	0.99	-0.750			
0.8296	53091.50	3.1630	3.1630	-0.1730	26.25	0.99	-0.750			
0.8301	53124.52	3.1600	3.1600	-0.1712	26.26	1.00	-0.750			
0.8306	53157.02	3.1570	3.1570	-0.1690	26.26	1.00	-0.750			
0.8311	53189.30	3.1540	3.1540	-0.1672	26.27	1.01	-0.750			
0.8316	53221.15	3.1510	3.1510	-0.1658	26.27	1.01	-0.750			
0.8321	53252.81	3.1480	3.1480	-0.1642	26.28	1.02	-0.750			
0.8326	53284.18	3.1450	3.1451	-0.1626	26.28	1.02	-0.750			
0.8331	53315.26	3.1420	3.1420	-0.1612	26.29	1.03	-0.750			
0.8335	53346.13	3.1390	3.1390	-0.1604	26.29	1.03	-0.750			
0.8340	53376.89	3.1360	3.1361	-0.1584	26.29	1.03	-0.750			
0.8345	53407.26	3.1330	3.1329	-0.1570	26.30	1.04	-0.750			
0.8350	53437.24	3.1300	3.1300	-0.1549	26.30	1.04	-0.750			
0.8354	53466.56	3.1270	3.1271	-0.1538	26.30	1.04	-0.750			
0.8359	53495.95	3.1240	3.1241	-0.1525	26.31	1.05	-0.750			
0.8363	53525.11	3.1210	3.1208	-0.1511	26.31	1.05	-0.750			
0.8368	53553.95	3.1180	3.1179	-0.1495	26.32	1.06	-0.750			
0.8372	53582.29	3.1150	3.1151	-0.1482	26.32	1.06	-0.750			
0.8377	53610.67	3.1120	3.1121	-0.1474	26.33	1.07	-0.750			
0.8381	53639.08	3.1090	3.1089	-0.1470	26.33	1.07	-0.750			
0.8386	53667.32	3.1060	3.1059	-0.1456	26.34	1.08	-0.750			
0.8390	53694.93	3.1030	3.1030	-0.1440	26.35	1.09	-0.750			
0.8394	53722.50	3.1000	3.1000	-0.1431	26.35	1.09	-0.750			
0.8398	53750.07	3.0970	3.0971	-0.1423	26.36	1.10	-0.750			
0.8403	53777.38	3.0940	3.0939	-0.1412	26.36	1.10	-0.750			
0.8407	53804.28	3.0910	3.0910	-0.1396	26.37	1.11	-0.750			
0.8411	53830.95	3.0880	3.0880	-0.1383	26.37	1.11	-0.750			
0.8415	53857.26	3.0850	3.0850	-0.1374	26.38	1.12	-0.750			
0.8419	53883.69	3.0820	3.0820	-0.1367	26.38	1.12	-0.750			
0.8423	53909.71	3.0790	3.0789	-0.1354	26.39	1.13	-0.750			
0.8427	53935.59	3.0760	3.0760	-0.1347	26.39	1.13	-0.750			
0.8431	53961.37	3.0730	3.0731	-0.1336	26.40	1.14	-0.750			
0.8435	53987.16	3.0700	3.0700	-0.1325	26.41	1.15	-0.750			
0.8439	54012.62	3.0670	3.0670	-0.1314	26.41	1.15	-0.750			
0.8443	54037.59	3.0640	3.0640	-0.1303	26.42	1.16	-0.750			
0.8447	54062.24	3.0610	3.0610	-0.1295	26.42	1.16	-0.750			
0.8451	54087.05	3.0580	3.0580	-0.1285	26.43	1.17	-0.750			
0.8455	54111.65	3.0550	3.0549	-0.1278	26.43	1.17	-0.750			
0.8459	54136.00	3.0520	3.0520	-0.1270	26.44	1.18	-0.750			
0.8463	54160.41	3.0490	3.0491	-0.1266	26.45	1.19	-0.750			
0.8466	54184.99	3.0460	3.0461	-0.1260	26.45	1.19	-0.750			
0.8470	54209.05	3.0430	3.0428	-0.1246	26.46	1.20	-0.750			
0.8474	54232.67	3.0400	3.0401	-0.1236	26.46	1.20	-0.750			
0.8478	54256.18	3.0370	3.0370	-0.1224	26.47	1.21	-0.750			
0.8481	54279.62	3.0340	3.0340	-0.1217	26.47	1.21	-0.750			
0.8485	54302.98	3.0310	3.0309	-0.1210	26.48	1.22	-0.750			
0.8488	54326.13	3.0280	3.0281	-0.1201	26.48	1.22	-0.750			
0.8492	54348.95	3.0250	3.0250	-0.1192	26.49	1.23	-0.750			
0.8496	54371.72	3.0220	3.0220	-0.1190	26.49	1.23	-0.750			
0.8499	54394.79	3.0190	3.0190	-0.1184	26.50	1.24	-0.750			
0.8503	54417.43	3.0160	3.0159	-0.1175	26.50	1.24	-0.750			
0.8506	54439.88	3.0130	3.0130	-0.1167	26.51	1.25	-0.750			
0.8510	54462.21	3.0100	3.0101	-0.1159	26.51	1.25	-0.750			
0.8513	54484.50	3.0070	3.0070	-0.1145	26.52	1.26	-0.750			
0.8517	54506.39	3.0040	3.0040	-0.1097	26.52	1.26	-0.750			
