Ah_balance (normalized)	Ah_balance (mAh)	Voltage - fit (V)	Voltage -  interpolate (V)	dQ/dV (1/V)	Temperature (°C)	Temperature - diff (°C)	Current (C)	R_DC 0ms (mOhm)	R_DC 50ms (mOhm)	R_DC 50 ms PEC (mOhm)
0.0563	3601.93	4.1990	4.1990	0.7343	25.72	-0.22	0.750			
0.0584	3738.85	4.1960	4.1961	0.7105	25.72	-0.22	0.750			
0.0606	3877.98	4.1930	4.1931	0.7278	25.72	-0.22	0.750			
0.0628	4020.19	4.1900	4.1898	0.7363	25.72	-0.22	0.750			
0.0650	4162.62	4.1870	4.1869	0.7418	25.72	-0.22	0.750			
0.0673	4306.14	4.1840	4.1842	0.7401	25.72	-0.22	0.750			
0.0695	4450.16	4.1810	4.1810	0.7455	25.72	-0.22	0.750			
0.0718	4592.03	4.1780	4.1780	0.7435	25.72	-0.22	0.750			
0.0740	4734.55	4.1750	4.1749	0.7445	25.72	-0.22	0.750			
0.0762	4876.64	4.1720	4.1720	0.7485	25.72	-0.22	0.750			
0.0785	5021.08	4.1690	4.1690	0.7481	25.72	-0.22	0.750			
0.0807	5166.95	4.1660	4.1660	0.7440	25.72	-0.22	0.750			
0.0829	5307.72	4.1630	4.1631	0.7514	25.72	-0.22	0.750			
0.0852	5451.30	4.1600	4.1600	0.7504	25.72	-0.22	0.750			
0.0874	5595.46	4.1570	4.1569	0.7500	25.72	-0.22	0.750			
0.0897	5739.48	4.1540	4.1540	0.7565	25.72	-0.22	0.750			
0.0920	5886.98	4.1510	4.1513	0.7541	25.72	-0.22	0.750			
0.0943	6032.53	4.1480	4.1479	0.7579	25.72	-0.22	0.750			
0.0965	6177.33	4.1450	4.1450	0.7564	25.73	-0.21	0.750			
0.0988	6322.48	4.1420	4.1421	0.7566	25.73	-0.21	0.750			
0.1011	6467.38	4.1390	4.1389	0.7634	25.73	-0.21	0.750			
0.1034	6614.84	4.1360	4.1361	0.7629	25.73	-0.21	0.750			
0.1057	6761.66	4.1330	4.1329	0.7580	25.74	-0.20	0.750			
0.1079	6908.14	4.1300	4.1300	0.7621	25.74	-0.20	0.750			
0.1102	7055.68	4.1270	4.1270	0.7605	25.75	-0.19	0.750			
0.1125	7198.58	4.1240	4.1238	0.7586	25.75	-0.19	0.750			
0.1148	7344.50	4.1210	4.1210	0.7609	25.75	-0.19	0.750			
0.1170	7489.92	4.1180	4.1180	0.7590	25.75	-0.19	0.750			
0.1193	7635.52	4.1150	4.1151	0.7714	25.75	-0.19	0.750			
0.1216	7785.48	4.1120	4.1120	0.7772	25.76	-0.18	0.750			
0.1240	7933.80	4.1090	4.1090	0.7815	25.76	-0.18	0.750			
0.1264	8087.37	4.1060	4.1059	0.7789	25.76	-0.18	0.750			
0.1287	8236.47	4.1030	4.1031	0.7769	25.76	-0.18	0.750			
0.1310	8385.96	4.1000	4.1000	0.7755	25.76	-0.18	0.750			
0.1333	8533.25	4.0970	4.0970	0.7757	25.77	-0.17	0.750			
0.1356	8678.82	4.0940	4.0939	0.7715	25.77	-0.17	0.750			
0.1379	8828.59	4.0910	4.0907	0.7799	25.77	-0.17	0.750			
0.1403	8978.80	4.0880	4.0881	0.7843	25.77	-0.17	0.750			
0.1427	9133.04	4.0850	4.0851	0.7876	25.77	-0.17	0.750			
0.1451	9283.53	4.0820	4.0820	0.7941	25.77	-0.17	0.750			
0.1475	9437.51	4.0790	4.0789	0.7950	25.77	-0.17	0.750			
0.1498	9588.27	4.0760	4.0759	0.7917	25.77	-0.17	0.750			
0.1522	9740.32	4.0730	4.0732	0.7987	25.77	-0.17	0.750			
0.1546	9896.19	4.0700	4.0700	0.7956	25.78	-0.16	0.750			
0.1570	10048.24	4.0670	4.0669	0.7957	25.78	-0.16	0.750			
0.1594	10200.83	4.0640	4.0641	0.7978	25.78	-0.16	0.750			
0.1617	10351.87	4.0610	4.0611	0.7938	25.79	-0.15	0.750			
0.1641	10505.20	4.0580	4.0580	0.8008	25.79	-0.15	0.750			
0.1666	10661.49	4.0550	4.0550	0.7949	25.79	-0.15	0.750			
0.1689	10811.69	4.0520	4.0520	0.7990	25.79	-0.15	0.750			
0.1714	10967.16	4.0490	4.0490	0.8095	25.80	-0.14	0.750			
0.1738	11120.72	4.0460	4.0462	0.8094	25.80	-0.14	0.750			
0.1762	11275.94	4.0430	4.0427	0.8140	25.80	-0.14	0.750			
0.1787	11436.21	4.0400	4.0400	0.8116	25.80	-0.14	0.750			
0.1811	11590.42	4.0370	4.0370	0.8132	25.81	-0.13	0.750			
0.1836	11747.28	4.0340	4.0341	0.8171	25.81	-0.13	0.750			
0.1860	11902.38	4.0310	4.0311	0.8185	25.82	-0.12	0.750			
0.1884	12059.34	4.0280	4.0278	0.8265	25.82	-0.12	0.750			
0.1909	12220.59	4.0250	4.0250	0.8331	25.82	-0.12	0.750			
0.1935	12382.75	4.0220	4.0221	0.8389	25.83	-0.11	0.750			
0.1960	12543.55	4.0190	4.0190	0.8578	25.83	-0.11	0.750			
0.1986	12708.15	4.0160	4.0161	0.8636	25.84	-0.10	0.750			
0.2012	12875.68	4.0130	4.0130	0.8688	25.84	-0.10	0.750			
0.2038	13044.81	4.0100	4.0100	0.8683	25.84	-0.10	0.750			
0.2065	13214.77	4.0070	4.0071	0.8715	25.84	-0.10	0.750			
0.2091	13381.49	4.0040	4.0041	0.8718	25.85	-0.09	0.750			
0.2117	13548.49	4.0010	4.0010	0.8652	25.85	-0.09	0.750			
0.2142	13711.12	3.9980	3.9980	0.8532	25.85	-0.09	0.750			
0.2169	13878.41	3.9950	3.9949	0.8453	25.86	-0.08	0.750			
0.2194	14039.80	3.9920	3.9922	0.8462	25.86	-0.08	0.750			
0.2219	14201.20	3.9890	3.9891	0.8520	25.86	-0.08	0.750			
0.2244	14362.16	3.9860	3.9861	0.8481	25.87	-0.07	0.750			
0.2270	14525.58	3.9830	3.9831	0.8500	25.87	-0.07	0.750			
0.2295	14690.49	3.9800	3.9800	0.8493	25.87	-0.07	0.750			
0.2321	14854.17	3.9770	3.9771	0.8555	25.87	-0.07	0.750			
0.2347	15020.64	3.9740	3.9740	0.8597	25.87	-0.07	0.750			
0.2372	15182.01	3.9710	3.9709	0.8585	25.87	-0.07	0.750			
0.2398	15347.08	3.9680	3.9681	0.8601	25.87	-0.07	0.750			
0.2424	15513.41	3.9650	3.9650	0.8592	25.87	-0.07	0.750			
0.2450	15678.68	3.9620	3.9620	0.8623	25.87	-0.07	0.750			
0.2476	15844.74	3.9590	3.9592	0.8586	25.87	-0.07	0.750			
0.2501	16009.48	3.9560	3.9558	0.8613	25.87	-0.07	0.750			
0.2527	16174.69	3.9530	3.9531	0.8619	25.87	-0.07	0.750			
0.2553	16339.44	3.9500	3.9500	0.8601	25.87	-0.07	0.750			
0.2579	16507.43	3.9470	3.9470	0.8613	25.87	-0.07	0.750			
0.2605	16670.88	3.9440	3.9441	0.8551	25.87	-0.07	0.750			
0.2631	16835.32	3.9410	3.9408	0.8544	25.87	-0.07	0.750			
0.2656	16999.23	3.9380	3.9382	0.8553	25.87	-0.07	0.750			
0.2682	17161.93	3.9350	3.9349	0.8593	25.87	-0.07	0.750			
0.2707	17325.56	3.9320	3.9321	0.8661	25.87	-0.07	0.750			
0.2733	17492.18	3.9290	3.9290	0.8724	25.87	-0.07	0.750			
0.2760	17663.40	3.9260	3.9262	0.8831	25.87	-0.07	0.750			
0.2787	17833.91	3.9230	3.9230	0.8826	25.87	-0.07	0.750			
0.2813	18002.69	3.9200	3.9202	0.8901	25.87	-0.07	0.750			
0.2840	18173.67	3.9170	3.9170	0.8920	25.86	-0.08	0.750			
0.2866	18344.33	3.9140	3.9139	0.8925	25.86	-0.08	0.750			
0.2893	18517.58	3.9110	3.9109	0.8943	25.86	-0.08	0.750			
0.2920	18689.36	3.9080	3.9082	0.8942	25.86	-0.08	0.750			
0.2947	18860.72	3.9050	3.9051	0.8976	25.85	-0.09	0.750			
0.2974	19033.11	3.9020	3.9020	0.9023	25.85	-0.09	0.750			
0.3001	19205.38	3.8990	3.8988	0.9011	25.85	-0.09	0.750			
0.3028	19378.75	3.8960	3.8961	0.9032	25.84	-0.10	0.750			
0.3055	19551.92	3.8930	3.8931	0.9089	25.84	-0.10	0.750			
0.3083	19729.01	3.8900	3.8900	0.9197	25.83	-0.11	0.750			
0.3110	19905.57	3.8870	3.8870	0.9242	25.82	-0.12	0.750			
0.3138	20081.98	3.8840	3.8839	0.9230	25.82	-0.12	0.750			
0.3166	20260.22	3.8810	3.8810	0.9256	25.82	-0.12	0.750			
0.3194	20439.71	3.8780	3.8781	0.9287	25.82	-0.12	0.750			
0.3221	20616.81	3.8750	3.8750	0.9314	25.82	-0.12	0.750			
0.3249	20794.72	3.8720	3.8719	0.9353	25.82	-0.12	0.750			
0.3278	20977.71	3.8690	3.8690	0.9236	25.82	-0.12	0.750			
0.3305	21153.09	3.8660	3.8660	0.9258	25.81	-0.13	0.750			
0.3333	21331.54	3.8630	3.8632	0.9326	25.81	-0.13	0.750			
0.3361	21509.97	3.8600	3.8601	0.9348	25.80	-0.14	0.750			
0.3389	21687.66	3.8570	3.8568	0.9367	25.80	-0.14	0.750			
0.3417	21867.91	3.8540	3.8541	0.9351	25.79	-0.15	0.750			
0.3445	22047.93	3.8510	3.8511	0.9427	25.78	-0.16	0.750			
0.3474	22232.50	3.8480	3.8480	0.9516	25.78	-0.16	0.750			
0.3502	22413.15	3.8450	3.8449	0.9504	25.77	-0.17	0.750			
0.3531	22597.50	3.8420	3.8420	0.9443	25.77	-0.17	0.750			
0.3559	22779.28	3.8390	3.8390	0.9504	25.76	-0.18	0.750			
0.3588	22961.17	3.8360	3.8361	0.9571	25.76	-0.18	0.750			
0.3616	23144.60	3.8330	3.8332	0.9609	25.75	-0.19	0.750			
0.3645	23329.49	3.8300	3.8301	0.9626	25.75	-0.19	0.750			
0.3674	23515.07	3.8270	3.8271	0.9709	25.74	-0.20	0.750			
0.3703	23701.87	3.8240	3.8240	0.9813	25.73	-0.21	0.750			
0.3733	23893.55	3.8210	3.8210	0.9957	25.73	-0.21	0.750			
0.3763	24083.08	3.8180	3.8181	0.9987	25.72	-0.22	0.750			
0.3793	24274.45	3.8150	3.8150	1.0107	25.71	-0.23	0.750			
0.3824	24470.54	3.8120	3.8120	1.0260	25.70	-0.24	0.750			
0.3855	24670.79	3.8090	3.8090	1.0359	25.70	-0.24	0.750			
0.3886	24870.80	3.8060	3.8059	1.0441	25.69	-0.25	0.750			
0.3917	25071.28	3.8030	3.8031	1.0565	25.68	-0.26	0.750			
0.3949	25276.69	3.8000	3.7999	1.0652	25.67	-0.27	0.750			
0.3981	25481.54	3.7970	3.7970	1.0756	25.67	-0.27	0.750			
0.4014	25692.02	3.7940	3.7940	1.0692	25.66	-0.28	0.750			
0.4046	25894.33	3.7910	3.7912	1.0887	25.65	-0.29	0.750			
0.4079	26102.90	3.7880	3.7880	1.1128	25.64	-0.30	0.750			
0.4112	26316.87	3.7850	3.7851	1.1310	25.63	-0.31	0.750			
0.4146	26536.43	3.7820	3.7821	1.1351	25.62	-0.32	0.750			
0.4181	26755.40	3.7790	3.7793	1.1546	25.61	-0.33	0.750			
0.4215	26974.35	3.7760	3.7762	1.1930	25.61	-0.33	0.750			
0.4252	27209.87	3.7730	3.7727	1.2179	25.60	-0.34	0.750			
0.4288	27440.81	3.7700	3.7704	1.2407	25.59	-0.35	0.750	0.317	0.450	
0.4326	27684.59	3.7670	3.7674	1.2788	25.58	-0.36	0.750			
0.4367	27946.01	3.7640	3.7640	1.2973	25.56	-0.38	0.750			
0.4406	28197.27	3.7610	3.7611	1.3154	25.56	-0.38	0.750			
0.4444	28440.18	3.7580	3.7582	1.3180	25.55	-0.39	0.750			
0.4484	28696.90	3.7550	3.7550	1.3600	25.54	-0.40	0.750			
0.4525	28961.22	3.7520	3.7520	1.3944	25.53	-0.41	0.750			
0.4567	29226.66	3.7490	3.7492	1.4252	25.52	-0.42	0.750			
0.4611	29508.12	3.7460	3.7461	1.4640	25.51	-0.43	0.750			
0.4656	29798.01	3.7430	3.7425	1.4975	25.50	-0.44	0.750			
0.4701	30084.22	3.7400	3.7397	1.5372	25.49	-0.45	0.750			
0.4748	30385.71	3.7370	3.7370	1.5864	25.48	-0.46	0.750			
0.4796	30694.65	3.7340	3.7343	1.6436	25.47	-0.47	0.750			
0.4845	31008.28	3.7310	3.7311	1.6989	25.45	-0.49	0.750			
0.4897	31341.66	3.7280	3.7281	1.7551	25.44	-0.50	0.750			
0.4951	31689.15	3.7250	3.7247	1.8185	25.43	-0.51	0.750			
0.5007	32044.96	3.7220	3.7220	1.8662	25.42	-0.52	0.750			
0.5064	32410.67	3.7190	3.7189	1.9041	25.40	-0.54	0.750			
0.5123	32787.98	3.7160	3.7158	1.9392	25.38	-0.56	0.750			
0.5182	33162.27	3.7130	3.7130	1.9811	25.37	-0.57	0.750			
0.5241	33545.48	3.7100	3.7099	2.0152	25.36	-0.58	0.750			
0.5303	33936.04	3.7070	3.7071	2.0629	25.35	-0.59	0.750			
0.5364	34332.69	3.7040	3.7041	2.1301	25.34	-0.60	0.750			
0.5429	34747.11	3.7010	3.7010	2.2067	25.33	-0.61	0.750			
0.5497	35182.95	3.6980	3.6980	2.2724	25.32	-0.62	0.750			
0.5567	35631.05	3.6950	3.6953	2.3389	25.31	-0.63	0.750			
0.5638	36084.68	3.6920	3.6921	2.4397	25.30	-0.64	0.750			
0.5711	36551.44	3.6890	3.6889	2.5426	25.29	-0.65	0.750			
0.5789	37052.04	3.6860	3.6858	2.6005	25.28	-0.66	0.750			
0.5872	37577.68	3.6830	3.6830	2.7072	25.28	-0.66	0.750			
0.5954	38108.36	3.6800	3.6800	2.8051	25.28	-0.66	0.750			
0.6039	38652.41	3.6770	3.6772	2.7883	25.27	-0.67	0.750			
0.6125	39200.32	3.6740	3.6743	2.7263	25.26	-0.68	0.750			
0.6209	39740.01	3.6710	3.6708	2.5954	25.27	-0.67	0.750			
0.6283	40212.47	3.6680	3.6681	2.3617	25.28	-0.66	0.750			
0.6347	40622.55	3.6650	3.6651	2.0940	25.28	-0.66	0.750			
0.6408	41009.49	3.6620	3.6619	1.9097	25.28	-0.66	0.750			
0.6459	41339.23	3.6590	3.6589	1.7241	25.29	-0.65	0.750			
0.6507	41647.51	3.6560	3.6561	1.5969	25.30	-0.64	0.750			
0.6553	41942.21	3.6530	3.6531	1.4949	25.31	-0.63	0.750			
0.6598	42224.45	3.6500	3.6500	1.4098	25.31	-0.63	0.750			
0.6639	42487.59	3.6470	3.6469	1.3089	25.32	-0.62	0.750			
0.6675	42720.23	3.6440	3.6441	1.2551	25.33	-0.61	0.750			
0.6710	42943.98	3.6410	3.6410	1.1949	25.33	-0.61	0.750			
0.6745	43168.67	3.6380	3.6378	1.1758	25.34	-0.60	0.750			
0.6779	43387.21	3.6350	3.6352	1.1656	25.35	-0.59	0.750			
0.6814	43608.30	3.6320	3.6321	1.1756	25.35	-0.59	0.750			
0.6850	43837.45	3.6290	3.6291	1.1826	25.36	-0.58	0.750			
0.6886	44067.23	3.6260	3.6258	1.1679	25.37	-0.57	0.750			
0.6921	44292.34	3.6230	3.6231	1.1733	25.38	-0.56	0.750			
0.6956	44521.11	3.6200	3.6202	1.1696	25.38	-0.56	0.750			
0.6991	44744.59	3.6170	3.6169	1.1572	25.39	-0.55	0.750			
0.7026	44967.06	3.6140	3.6140	1.1263	25.39	-0.55	0.750			
0.7059	45176.16	3.6110	3.6111	1.1148	25.40	-0.54	0.750			
0.7092	45389.44	3.6080	3.6081	1.1135	25.41	-0.53	0.750			
0.7125	45603.00	3.6050	3.6047	1.1129	25.42	-0.52	0.750			
0.7158	45810.38	3.6020	3.6021	1.1115	25.42	-0.52	0.750			
0.7191	46025.46	3.5990	3.5991	1.1334	25.42	-0.52	0.750			
0.7226	46243.99	3.5960	3.5960	1.1565	25.43	-0.51	0.750			
0.7261	46468.85	3.5930	3.5929	1.1693	25.43	-0.51	0.750			
0.7296	46692.40	3.5900	3.5901	1.2102	25.44	-0.50	0.750			
0.7332	46926.93	3.5870	3.5870	1.2544	25.45	-0.49	0.750			
0.7371	47176.36	3.5840	3.5838	1.2806	25.46	-0.48	0.750			
0.7409	47418.71	3.5810	3.5811	1.3238	25.46	-0.48	0.750			
0.7450	47682.47	3.5780	3.5781	1.3577	25.47	-0.47	0.750			
0.7491	47943.12	3.5750	3.5751	1.4248	25.48	-0.46	0.750			
0.7535	48223.76	3.5720	3.5719	1.4679	25.48	-0.46	0.750			
0.7580	48510.80	3.5690	3.5691	1.5042	25.49	-0.45	0.750			
0.7626	48809.47	3.5660	3.5660	1.5357	25.50	-0.44	0.750			
0.7674	49114.71	3.5630	3.5630	1.5787	25.51	-0.43	0.750			
0.7721	49412.98	3.5600	3.5601	1.5702	25.52	-0.42	0.750			
0.7769	49719.58	3.5570	3.5571	1.6037	25.53	-0.41	0.750			
0.7817	50025.60	3.5540	3.5541	1.5864	25.54	-0.40	0.750			
0.7865	50333.83	3.5510	3.5510	1.6168	25.56	-0.38	0.750			
0.7913	50640.21	3.5480	3.5482	1.6388	25.57	-0.37	0.750			
0.7962	50956.62	3.5450	3.5449	1.6769	25.59	-0.35	0.750			
0.8012	51274.91	3.5420	3.5419	1.7080	25.60	-0.34	0.750			
0.8066	51624.67	3.5390	3.5387	1.7098	25.62	-0.32	0.750			
0.8120	51965.96	3.5360	3.5359	1.6389	25.65	-0.29	0.750			
0.8173	52309.69	3.5330	3.5328	1.5446	25.67	-0.27	0.750			
0.8220	52610.32	3.5300	3.5304	1.3273	25.70	-0.24	0.750			
0.8257	52847.58	3.5270	3.5270	1.0668	25.72	-0.22	0.750			
0.8283	53011.08	3.5240	3.5240	0.8180	25.74	-0.20	0.750			
0.8300	53120.20	3.5210	3.5208	0.5862	25.75	-0.19	0.750			
0.8313	53202.74	3.5180	3.5178	0.4761	25.76	-0.18	0.750			
0.8324	53276.43	3.5150	3.5148	0.3983	25.77	-0.17	0.750			
0.8334	53340.38	3.5120	3.5119	0.3543	25.78	-0.16	0.750			
0.8344	53404.15	3.5090	3.5090	0.3304	25.79	-0.15	0.750			
0.8354	53463.66	3.5060	3.5060	0.3114	25.80	-0.14	0.750			
0.8363	53521.57	3.5030	3.5029	0.2985	25.80	-0.14	0.750			
0.8371	53576.74	3.5000	3.5001	0.2874	25.81	-0.13	0.750			
0.8380	53630.47	3.4970	3.4967	0.2785	25.82	-0.12	0.750			
0.8388	53683.09	3.4940	3.4941	0.2719	25.83	-0.11	0.750			
0.8396	53734.38	3.4910	3.4909	0.2661	25.84	-0.10	0.750			
0.8404	53784.45	3.4880	3.4880	0.2607	25.85	-0.09	0.750			
0.8412	53834.95	3.4850	3.4849	0.2554	25.85	-0.09	0.750			
0.8419	53883.07	3.4820	3.4820	0.2486	25.86	-0.08	0.750			
0.8427	53930.63	3.4790	3.4790	0.2427	25.87	-0.07	0.750			
0.8434	53976.76	3.4760	3.4761	0.2359	25.87	-0.07	0.750			
0.8441	54021.27	3.4730	3.4729	0.2297	25.88	-0.06	0.750			
0.8448	54064.48	3.4700	3.4699	0.2227	25.89	-0.05	0.750			
0.8454	54106.12	3.4670	3.4671	0.2169	25.89	-0.05	0.750			
0.8460	54146.84	3.4640	3.4640	0.2124	25.90	-0.04	0.750			
0.8467	54187.57	3.4610	3.4610	0.2086	25.90	-0.04	0.750			
0.8473	54227.18	3.4580	3.4580	0.2041	25.91	-0.03	0.750			
0.8479	54265.95	3.4550	3.4549	0.1982	25.92	-0.02	0.750			
0.8485	54303.92	3.4520	3.4520	0.1933	25.92	-0.02	0.750			
0.8491	54340.65	3.4490	3.4490	0.1874	25.93	-0.01	0.750			
0.8496	54376.01	3.4460	3.4461	0.1810	25.93	-0.01	0.750			
0.8502	54410.19	3.4430	3.4429	0.1754	25.94	-0.00	0.750			
0.8507	54442.95	3.4400	3.4401	0.1692	25.94	0.00	0.750			
0.8512	54475.01	3.4370	3.4370	0.1635	25.95	0.01	0.750			
0.8517	54505.86	3.4340	3.4340	0.1579	25.95	0.01	0.750			
0.8521	54535.69	3.4310	3.4310	0.1528	25.95	0.01	0.750			
0.8526	54564.39	3.4280	3.4280	0.1470	25.96	0.02	0.750			
0.8530	54592.40	3.4250	3.4249	0.1414	25.96	0.02	0.750			
0.8534	54618.96	3.4220	3.4220	0.1353	25.97	0.03	0.750			
0.8538	54644.41	3.4190	3.4190	0.1289	25.97	0.03	0.750			
0.8542	54668.75	3.4160	3.4160	0.1229	25.97	0.03	0.750			
0.8546	54692.09	3.4130	3.4131	0.1160	25.98	0.04	0.750			
0.8549	54713.62	3.4100	3.4099	0.1083	25.98	0.04	0.750			
0.8552	54734.74	3.4070	3.4069	0.0991	25.98	0.04	0.750			
0.8555	54753.16	3.4040	3.4040	0.0909	25.99	0.05	0.750			
0.8558	54769.66	3.4010	3.4010	0.0809	25.99	0.05	0.750			
0.8560	54784.93	3.3980	3.3981	0.0719	25.99	0.05	0.750			
0.8562	54797.71	3.3950	3.3954	0.0613	25.99	0.05	0.750			
0.8564	54808.86	3.3920	3.3925	0.0506	25.99	0.05	0.750			
0.8565	54817.52	3.3890	3.3900	0.0395	26.00	0.06	0.750			
0.8566	54824.04	3.3860	3.3875	0.0284	26.00	0.06	0.750			
0.8567	54828.42	3.3830	3.3853	0.0173	26.00	0.06	0.750			
