Ah_balance (normalized)	Ah_balance (mAh)	Voltage - fit (V)	Voltage -  interpolate (V)	dQ/dV (1/V)	Temperature (°C)	Temperature - diff (°C)	Current (C)	R_DC 0ms (mOhm)	R_DC 50ms (mOhm)	R_DC 50 ms PEC (mOhm)
0.5045	32286.24	3.7520	3.7519	1.8071	26.12	1.47	0.750			
0.5099	32631.53	3.7490	3.7489	1.7977	26.10	1.45	0.750			
0.5151	32967.69	3.7460	3.7460	1.8147	26.07	1.42	0.750			
0.5207	33322.55	3.7430	3.7429	1.8523	26.05	1.40	0.750			
0.5263	33681.64	3.7400	3.7398	1.8855	26.03	1.38	0.750			
0.5319	34041.90	3.7370	3.7373	1.9297	26.00	1.35	0.750			
0.5378	34420.52	3.7340	3.7339	2.0009	25.97	1.32	0.750			
0.5440	34812.96	3.7310	3.7310	2.0354	25.95	1.30	0.750			
0.5502	35215.45	3.7280	3.7280	2.1007	25.91	1.26	0.750			
0.5565	35618.86	3.7250	3.7250	2.1407	25.89	1.24	0.750			
0.5629	36027.53	3.7220	3.7220	2.2049	25.86	1.21	0.750			
0.5696	36457.09	3.7190	3.7191	2.2929	25.83	1.18	0.750			
0.5767	36909.47	3.7160	3.7160	2.4031	25.80	1.15	0.750			
0.5842	37385.73	3.7130	3.7129	2.4047	25.76	1.11	0.750			
0.5913	37843.62	3.7100	3.7102	2.4569	25.73	1.08	0.750			
0.5987	38317.89	3.7070	3.7069	2.4676	25.69	1.04	0.750			
0.6061	38789.28	3.7040	3.7041	2.5960	25.66	1.01	0.750			
0.6141	39303.46	3.7010	3.7009	2.7651	25.62	0.97	0.750			
0.6225	39841.97	3.6980	3.6982	2.8182	25.58	0.93	0.750			
0.6313	40402.01	3.6950	3.6950	2.8842	25.54	0.89	0.750			
0.6399	40954.64	3.6920	3.6921	2.9506	25.52	0.87	0.750			
0.6490	41538.35	3.6890	3.6890	3.0753	25.48	0.83	0.750			
0.6584	42137.79	3.6860	3.6860	3.2147	25.44	0.79	0.750			
0.6683	42770.84	3.6830	3.6831	3.3290	25.40	0.75	0.750			
0.6784	43417.67	3.6800	3.6800	3.5215	25.35	0.70	0.750			
0.6894	44120.65	3.6770	3.6770	3.7316	25.32	0.67	0.750			
0.7007	44846.34	3.6740	3.6739	3.7562	25.27	0.62	0.750			
0.7120	45565.02	3.6710	3.6710	3.7721	25.24	0.59	0.750			
0.7235	46301.34	3.6680	3.6678	3.7148	25.19	0.54	0.750			
0.7343	46994.35	3.6650	3.6650	3.3520	25.15	0.50	0.750			
0.7433	47573.88	3.6620	3.6621	2.8172	25.13	0.48	0.750			
0.7511	48070.09	3.6590	3.6590	2.4074	25.12	0.47	0.750			
0.7577	48491.87	3.6560	3.6561	2.1199	25.10	0.45	0.750			
0.7637	48875.73	3.6530	3.6528	1.9468	25.09	0.44	0.750			
0.7692	49228.97	3.6500	3.6501	1.7744	25.07	0.42	0.750			
0.7743	49557.12	3.6470	3.6473	1.6363	25.06	0.41	0.750			
0.7789	49852.18	3.6440	3.6440	1.4889	25.04	0.39	0.750			
0.7830	50114.75	3.6410	3.6410	1.3898	25.03	0.38	0.750			
0.7871	50373.19	3.6380	3.6379	1.3301	25.02	0.37	0.750			
0.7907	50606.69	3.6350	3.6350	1.2828	25.01	0.36	0.750			
0.7945	50847.69	3.6320	3.6322	1.2809	25.00	0.35	0.750			
0.7983	51091.59	3.6290	3.6290	1.2899	24.99	0.34	0.750			
0.8022	51339.47	3.6260	3.6258	1.3166	24.98	0.33	0.750			
0.8062	51594.85	3.6230	3.6231	1.3322	24.96	0.31	0.750			
0.8103	51859.28	3.6200	3.6200	1.3357	24.95	0.30	0.750			
0.8145	52125.93	3.6170	3.6170	1.3286	24.94	0.29	0.750			
0.8183	52371.88	3.6140	3.6141	1.3021	24.93	0.28	0.750			
0.8222	52618.85	3.6110	3.6110	1.2871	24.91	0.26	0.750			
0.8260	52865.60	3.6080	3.6075	1.2608	24.90	0.25	0.750			
0.8296	53096.24	3.6050	3.6052	1.2667	24.89	0.24	0.750			
0.8334	53340.17	3.6020	3.6021	1.2920	24.87	0.22	0.750			
0.8373	53589.68	3.5990	3.5989	1.3151	24.86	0.21	0.750			
0.8414	53847.42	3.5960	3.5960	1.3228	24.84	0.19	0.750			
0.8454	54102.67	3.5930	3.5931	1.3596	24.83	0.18	0.750			
0.8495	54370.39	3.5900	3.5902	1.3884	24.82	0.17	0.750			
0.8537	54637.25	3.5870	3.5868	1.4101	24.80	0.15	0.750			
0.8579	54903.58	3.5840	3.5842	1.4545	24.79	0.14	0.750			
0.8623	55189.56	3.5810	3.5811	1.4973	24.77	0.12	0.750			
0.8670	55487.20	3.5780	3.5781	1.5636	24.75	0.10	0.750			
0.8718	55792.44	3.5750	3.5751	1.6014	24.73	0.08	0.750			
0.8765	56097.99	3.5720	3.5719	1.6257	24.71	0.06	0.750			
0.8815	56416.31	3.5690	3.5690	1.6352	24.69	0.04	0.750			
0.8864	56728.18	3.5660	3.5658	1.6512	24.68	0.03	0.750			
0.8913	57042.20	3.5630	3.5629	1.6927	24.66	0.01	0.750			
0.8965	57377.05	3.5600	3.5600	1.7106	24.65	-0.00	0.750			
0.9018	57716.09	3.5570	3.5569	1.6875	24.63	-0.02	0.750			
0.9068	58036.11	3.5540	3.5543	1.7399	24.61	-0.04	0.750			
0.9119	58359.51	3.5510	3.5513	1.7706	24.59	-0.06	0.750			
0.9171	58696.54	3.5480	3.5481	1.8454	24.57	-0.08	0.750			
0.9228	59061.83	3.5450	3.5447	2.0292	24.55	-0.10	0.750			
0.9297	59499.04	3.5420	3.5417	1.8961	24.53	-0.12	0.750			
0.9352	59852.51	3.5390	3.5395	1.5544	24.52	-0.13	0.750			
0.9396	60136.08	3.5360	3.5366	1.2639	24.51	-0.14	0.750			
0.9427	60331.62	3.5330	3.5331	0.9647	24.52	-0.13	0.750			
0.9446	60457.53	3.5300	3.5295	0.6751	24.52	-0.13	0.750			
0.9458	60534.12	3.5270	3.5269	0.4935	24.52	-0.13	0.750			
0.9471	60611.57	3.5240	3.5239	0.4137	24.52	-0.13	0.750			
0.9481	60678.89	3.5210	3.5209	0.3637	24.53	-0.12	0.750			
0.9491	60744.45	3.5180	3.5178	0.3384	24.53	-0.12	0.750			
0.9501	60804.88	3.5150	3.5152	0.3190	24.53	-0.12	0.750			
0.9510	60864.06	3.5120	3.5119	0.3076	24.53	-0.12	0.750			
0.9519	60921.40	3.5090	3.5090	0.2988	24.53	-0.12	0.750			
0.9528	60977.54	3.5060	3.5060	0.2907	24.53	-0.12	0.750			
0.9536	61031.95	3.5030	3.5030	0.2850	24.53	-0.12	0.750			
0.9545	61086.58	3.5000	3.5000	0.2821	24.54	-0.11	0.750			
0.9553	61140.27	3.4970	3.4970	0.2764	24.54	-0.11	0.750			
0.9561	61192.81	3.4940	3.4940	0.2712	24.54	-0.11	0.750			
0.9569	61244.33	3.4910	3.4911	0.2657	24.54	-0.11	0.750			
0.9577	61295.16	3.4880	3.4881	0.2611	24.54	-0.11	0.750			
0.9585	61344.56	3.4850	3.4849	0.2577	24.54	-0.11	0.750			
0.9593	61393.10	3.4820	3.4820	0.2543	24.54	-0.11	0.750			
0.9600	61441.28	3.4790	3.4790	0.2504	24.54	-0.11	0.750			
0.9608	61490.30	3.4760	3.4757	0.2459	24.55	-0.10	0.750			
0.9615	61537.04	3.4730	3.4731	0.2414	24.55	-0.10	0.750			
0.9622	61582.53	3.4700	3.4702	0.2380	24.55	-0.10	0.750			
0.9629	61627.80	3.4670	3.4669	0.2336	24.55	-0.10	0.750			
0.9636	61671.99	3.4640	3.4637	0.2296	24.55	-0.10	0.750			
0.9643	61714.70	3.4610	3.4610	0.2248	24.55	-0.10	0.750			
0.9650	61757.93	3.4580	3.4581	0.2234	24.55	-0.10	0.750			
0.9656	61800.60	3.4550	3.4551	0.2211	24.55	-0.10	0.750			
0.9663	61843.65	3.4520	3.4520	0.2182	24.56	-0.09	0.750			
0.9669	61884.60	3.4490	3.4490	0.2150	24.56	-0.09	0.750			
0.9676	61925.28	3.4460	3.4461	0.2114	24.56	-0.09	0.750			
0.9682	61965.69	3.4430	3.4430	0.2095	24.56	-0.09	0.750			
0.9688	62006.00	3.4400	3.4399	0.2071	24.56	-0.09	0.750			
0.9695	62045.42	3.4370	3.4370	0.2048	24.56	-0.09	0.750			
0.9701	62084.38	3.4340	3.4339	0.2022	24.57	-0.08	0.750			
0.9707	62123.01	3.4310	3.4311	0.2002	24.57	-0.08	0.750			
0.9713	62161.59	3.4280	3.4279	0.1972	24.57	-0.08	0.750			
0.9719	62198.85	3.4250	3.4250	0.1944	24.57	-0.08	0.750			
0.9724	62236.12	3.4220	3.4221	0.1922	24.57	-0.08	0.750			
0.9730	62272.75	3.4190	3.4190	0.1894	24.57	-0.08	0.750			
0.9736	62308.81	3.4160	3.4159	0.1869	24.57	-0.08	0.750			
0.9741	62344.16	3.4130	3.4130	0.1844	24.57	-0.08	0.750			
0.9747	62379.22	3.4100	3.4101	0.1826	24.58	-0.07	0.750			
0.9752	62414.14	3.4070	3.4069	0.1811	24.58	-0.07	0.750			
0.9758	62448.91	3.4040	3.4040	0.1794	24.58	-0.07	0.750			
0.9763	62483.13	3.4010	3.4010	0.1770	24.58	-0.07	0.750			
0.9768	62517.18	3.3980	3.3980	0.1756	24.58	-0.07	0.750			
0.9774	62550.73	3.3950	3.3951	0.1727	24.58	-0.07	0.750			
0.9779	62583.57	3.3920	3.3920	0.1710	24.59	-0.06	0.750			
0.9784	62616.27	3.3890	3.3890	0.1683	24.59	-0.06	0.750			
0.9789	62648.33	3.3860	3.3860	0.1657	24.59	-0.06	0.750			
0.9794	62679.69	3.3830	3.3829	0.1639	24.59	-0.06	0.750			
0.9799	62710.88	3.3800	3.3801	0.1623	24.59	-0.06	0.750			
0.9803	62741.98	3.3770	3.3770	0.1605	24.59	-0.06	0.750			
0.9808	62772.62	3.3740	3.3739	0.1587	24.59	-0.06	0.750			
0.9813	62802.89	3.3710	3.3711	0.1576	24.60	-0.05	0.750			
0.9818	62832.81	3.3680	3.3680	0.1557	24.60	-0.05	0.750			
0.9822	62863.17	3.3650	3.3650	0.1543	24.60	-0.05	0.750			
0.9827	62892.54	3.3620	3.3619	0.1516	24.60	-0.05	0.750			
0.9831	62921.31	3.3590	3.3590	0.1494	24.60	-0.05	0.750			
0.9836	62949.59	3.3560	3.3561	0.1479	24.60	-0.05	0.750			
0.9840	62978.15	3.3530	3.3528	0.1455	24.60	-0.05	0.750			
0.9845	63005.84	3.3500	3.3500	0.1429	24.61	-0.04	0.750			
0.9849	63032.71	3.3470	3.3469	0.1409	24.61	-0.04	0.750			
0.9853	63059.42	3.3440	3.3442	0.1398	24.61	-0.04	0.750			
0.9857	63086.30	3.3410	3.3410	0.1388	24.61	-0.04	0.750			
0.9861	63112.79	3.3380	3.3379	0.1372	24.61	-0.04	0.750			
0.9865	63138.43	3.3350	3.3350	0.1373	24.61	-0.04	0.750			
0.9870	63165.17	3.3320	3.3320	0.1350	24.61	-0.04	0.750			
0.9874	63191.69	3.3290	3.3288	0.1350	24.62	-0.03	0.750			
0.9878	63217.34	3.3260	3.3260	0.1322	24.62	-0.03	0.750			
0.9882	63242.28	3.3230	3.3234	0.1305	24.62	-0.03	0.750			
0.9885	63267.07	3.3200	3.3200	0.1283	24.62	-0.03	0.750			
0.9889	63291.34	3.3170	3.3170	0.1265	24.62	-0.03	0.750			
0.9893	63315.48	3.3140	3.3139	0.1249	24.62	-0.03	0.750			
0.9897	63338.63	3.3110	3.3112	0.1229	24.62	-0.03	0.750			
0.9900	63362.75	3.3080	3.3080	0.1233	24.62	-0.03	0.750			
0.9904	63386.28	3.3050	3.3049	0.1218	24.62	-0.03	0.750			
0.9908	63409.62	3.3020	3.3020	0.1201	24.62	-0.03	0.750			
0.9911	63432.43	3.2990	3.2989	0.1183	24.63	-0.02	0.750			
0.9915	63455.02	3.2960	3.2960	0.1167	24.63	-0.02	0.750			
0.9918	63477.43	3.2930	3.2930	0.1154	24.63	-0.02	0.750			
0.9922	63499.29	3.2900	3.2901	0.1139	24.63	-0.02	0.750			
0.9925	63520.97	3.2870	3.2868	0.1123	24.63	-0.02	0.750			
0.9928	63542.28	3.2840	3.2841	0.1111	24.63	-0.02	0.750			
0.9932	63563.23	3.2810	3.2810	0.1095	24.63	-0.02	0.750			
0.9935	63584.25	3.2780	3.2780	0.1084	24.63	-0.02	0.750			
0.9938	63605.05	3.2750	3.2751	0.1075	24.63	-0.02	0.750			
0.9941	63625.57	3.2720	3.2719	0.1063	24.63	-0.02	0.750			
0.9945	63645.90	3.2690	3.2689	0.1052	24.63	-0.02	0.750			
0.9948	63665.66	3.2660	3.2661	0.1050	24.63	-0.02	0.750			
0.9951	63685.53	3.2630	3.2631	0.1042	24.64	-0.01	0.750			
0.9954	63706.01	3.2600	3.2599	0.1026	24.64	-0.01	0.750			
0.9957	63725.75	3.2570	3.2568	0.1017	24.64	-0.01	0.750			
0.9960	63745.35	3.2540	3.2539	0.0997	24.64	-0.01	0.750			
0.9963	63764.77	3.2510	3.2512	0.0985	24.64	-0.01	0.750			
0.9966	63783.20	3.2480	3.2484	0.0966	24.64	-0.01	0.750			
0.9969	63801.68	3.2450	3.2449	0.0946	24.64	-0.01	0.750			
0.9972	63819.27	3.2420	3.2418	0.0934	24.64	-0.01	0.750			
0.9974	63836.26	3.2390	3.2389	0.0907	24.64	-0.01	0.750			
0.9977	63853.77	3.2360	3.2362	0.0902	24.64	-0.01	0.750			
0.9980	63871.15	3.2330	3.2330	0.0900	24.64	-0.01	0.750			
0.9983	63888.36	3.2300	3.2300	0.0894	24.64	-0.01	0.750			
0.9985	63905.67	3.2270	3.2270	0.0884	24.64	-0.01	0.750			
0.9988	63922.52	3.2240	3.2240	0.0872	24.64	-0.01	0.750			
0.9991	63939.36	3.2210	3.2210	0.0861	24.64	-0.01	0.750			
0.9993	63955.75	3.2180	3.2180	0.0846	24.65	-0.00	0.750			
0.9996	63971.66	3.2150	3.2150	0.0835	24.65	-0.00	0.750			
0.9998	63987.57	3.2120	3.2120	0.0823	24.65	-0.00	0.750			
1.0000	64003.08	3.2090	3.2090	0.0809	24.65	-0.00	0.750			
1.0003	64018.59	3.2060	3.2059	0.0800	24.65	-0.00	0.750			
1.0005	64033.86	3.2030	3.2030	0.0791	24.65	-0.00	0.750			
1.0008	64048.93	3.2000	3.2003	0.0782	24.65	-0.00	0.750			
1.0010	64063.95	3.1970	3.1969	0.0769	24.65	-0.00	0.750			
1.0012	64078.79	3.1940	3.1940	0.0760	24.65	0.00	0.750			
1.0015	64093.12	3.1910	3.1912	0.0750	24.65	0.00	0.750			
1.0017	64107.42	3.1880	3.1879	0.0739	24.65	0.00	0.750			
1.0019	64121.35	3.1850	3.1850	0.0727	24.65	0.00	0.750			
1.0021	64135.25	3.1820	3.1820	0.0717	24.65	0.00	0.750			
1.0023	64148.88	3.1790	3.1788	0.0706	24.65	0.00	0.750			
1.0025	64162.36	3.1760	3.1761	0.0697	24.65	0.00	0.750			
1.0027	64175.71	3.1730	3.1730	0.0685	24.65	0.00	0.750			
1.0030	64188.89	3.1700	3.1700	0.0676	24.65	0.00	0.750			
1.0032	64201.75	3.1670	3.1669	0.0663	24.65	0.00	0.750			
1.0033	64214.29	3.1640	3.1641	0.0655	24.66	0.01	0.750			
1.0035	64226.65	3.1610	3.1612	0.0643	24.66	0.01	0.750			
1.0037	64238.89	3.1580	3.1580	0.0633	24.66	0.01	0.750			
1.0039	64251.14	3.1550	3.1549	0.0620	24.66	0.01	0.750			
1.0041	64262.93	3.1520	3.1519	0.0608	24.66	0.01	0.750			
1.0043	64274.47	3.1490	3.1491	0.0595	24.66	0.01	0.750			
1.0045	64285.88	3.1460	3.1459	0.0585	24.66	0.01	0.750			
1.0046	64296.96	3.1430	3.1432	0.0570	24.66	0.01	0.750			
1.0048	64307.77	3.1400	3.1400	0.0556	24.66	0.01	0.750			
1.0050	64318.31	3.1370	3.1370	0.0542	24.66	0.01	0.750			
1.0051	64328.53	3.1340	3.1341	0.0525	24.66	0.01	0.750			
1.0053	64338.48	3.1310	3.1309	0.0511	24.66	0.01	0.750			
1.0054	64348.16	3.1280	3.1282	0.0497	24.66	0.01	0.750			
1.0056	64358.55	3.1250	3.1248	0.0479	24.66	0.01	0.750			
1.0057	64367.49	3.1220	3.1219	0.0452	24.66	0.01	0.750			
1.0059	64375.90	3.1190	3.1190	0.0424	24.66	0.01	0.750			
1.0060	64384.31	3.1160	3.1162	0.0409	24.66	0.01	0.750			
1.0061	64391.86	3.1130	3.1131	0.0377	24.66	0.01	0.750			
1.0062	64398.79	3.1100	3.1106	0.0345	24.66	0.01	0.750			
1.0063	64405.11	3.1070	3.1080	0.0313	24.66	0.01	0.750			
1.0064	64410.80	3.1040	3.1054	0.0281	24.66	0.01	0.750			
1.0065	64415.88	3.1010	3.1028	0.0248	24.66	0.01	0.750			
1.0066	64420.35	3.0980	3.1004	0.0216	24.66	0.01	0.750			
1.0066	64424.19	3.0950	3.0979	0.0184	24.66	0.01	0.750			
