Ah_balance (normalized)	Ah_balance (mAh)	Voltage - fit (V)	Voltage -  interpolate (V)	dQ/dV (1/V)	Temperature (°C)	Temperature - diff (°C)	Current (C)	R_DC 0ms (mOhm)	R_DC 50ms (mOhm)	R_DC 50 ms PEC (mOhm)
0.0600	3841.99	4.1980	4.1980	0.7421	25.97	0.06	0.750			
0.0622	3983.98	4.1950	4.1952	0.7386	25.97	0.06	0.750			
0.0645	4126.40	4.1920	4.1919	0.7348	25.97	0.06	0.750			
0.0666	4265.04	4.1890	4.1891	0.7366	25.97	0.06	0.750			
0.0688	4406.25	4.1860	4.1860	0.7360	25.97	0.06	0.750			
0.0710	4546.94	4.1830	4.1830	0.7366	25.97	0.06	0.750			
0.0733	4690.89	4.1800	4.1800	0.7400	25.97	0.06	0.750			
0.0755	4831.75	4.1770	4.1771	0.7403	25.97	0.06	0.750			
0.0777	4975.81	4.1740	4.1740	0.7388	25.97	0.06	0.750			
0.0800	5117.10	4.1710	4.1710	0.7417	25.97	0.06	0.750			
0.0821	5256.95	4.1680	4.1680	0.7452	25.97	0.06	0.750			
0.0844	5400.89	4.1650	4.1649	0.7518	25.97	0.06	0.750			
0.0866	5545.26	4.1620	4.1620	0.7582	25.97	0.06	0.750			
0.0889	5692.77	4.1590	4.1590	0.7595	25.97	0.06	0.750			
0.0912	5839.32	4.1560	4.1561	0.7576	25.97	0.06	0.750			
0.0936	5987.36	4.1530	4.1530	0.7571	25.97	0.06	0.750			
0.0958	6130.31	4.1500	4.1498	0.7523	25.97	0.06	0.750			
0.0980	6272.47	4.1470	4.1470	0.7488	25.97	0.06	0.750			
0.1002	6415.78	4.1440	4.1440	0.7537	25.97	0.06	0.750			
0.1025	6562.46	4.1410	4.1410	0.7474	25.97	0.06	0.750			
0.1048	6706.59	4.1380	4.1380	0.7554	25.97	0.06	0.750			
0.1070	6851.04	4.1350	4.1350	0.7568	25.97	0.06	0.750			
0.1093	6996.82	4.1320	4.1320	0.7570	25.97	0.06	0.750			
0.1116	7141.62	4.1290	4.1291	0.7566	25.97	0.06	0.750			
0.1139	7287.49	4.1260	4.1261	0.7555	25.97	0.06	0.750			
0.1161	7432.16	4.1230	4.1230	0.7572	25.97	0.06	0.750			
0.1184	7576.78	4.1200	4.1200	0.7553	25.97	0.06	0.750			
0.1207	7723.14	4.1170	4.1171	0.7645	25.97	0.06	0.750			
0.1230	7870.04	4.1140	4.1140	0.7682	25.97	0.06	0.750			
0.1253	8018.79	4.1110	4.1110	0.7717	25.97	0.06	0.750			
0.1276	8167.58	4.1080	4.1080	0.7736	25.97	0.06	0.750			
0.1300	8316.85	4.1050	4.1051	0.7750	25.97	0.06	0.750			
0.1323	8465.58	4.1020	4.1020	0.7748	25.97	0.06	0.750			
0.1346	8614.75	4.0990	4.0989	0.7740	25.97	0.06	0.750			
0.1369	8762.14	4.0960	4.0960	0.7753	25.97	0.06	0.750			
0.1392	8911.64	4.0930	4.0930	0.7781	25.97	0.06	0.750			
0.1416	9061.99	4.0900	4.0900	0.7798	25.97	0.06	0.750			
0.1439	9211.13	4.0870	4.0870	0.7820	25.97	0.06	0.750			
0.1463	9361.20	4.0840	4.0841	0.7840	25.97	0.06	0.750			
0.1486	9511.95	4.0810	4.0810	0.7861	25.97	0.06	0.750			
0.1510	9664.69	4.0780	4.0780	0.7878	25.98	0.07	0.750			
0.1534	9814.80	4.0750	4.0750	0.7889	25.98	0.07	0.750			
0.1557	9966.25	4.0720	4.0720	0.7951	25.98	0.07	0.750			
0.1581	10119.17	4.0690	4.0690	0.7994	25.99	0.08	0.750			
0.1605	10271.77	4.0660	4.0661	0.8000	25.99	0.08	0.750			
0.1629	10427.35	4.0630	4.0630	0.8006	25.99	0.08	0.750			
0.1654	10582.82	4.0600	4.0600	0.7964	25.99	0.08	0.750			
0.1677	10733.53	4.0570	4.0570	0.7988	25.99	0.08	0.750			
0.1701	10884.14	4.0540	4.0542	0.8001	25.99	0.08	0.750			
0.1725	11039.05	4.0510	4.0506	0.8020	25.99	0.08	0.750			
0.1749	11192.51	4.0480	4.0481	0.8081	25.99	0.08	0.750			
0.1773	11350.12	4.0450	4.0450	0.8071	25.99	0.08	0.750			
0.1798	11505.98	4.0420	4.0421	0.8190	26.00	0.09	0.750			
0.1822	11661.71	4.0390	4.0389	0.8142	26.00	0.09	0.750			
0.1847	11818.07	4.0360	4.0358	0.8158	26.00	0.09	0.750			
0.1871	11973.71	4.0330	4.0331	0.8194	26.00	0.09	0.750			
0.1896	12134.99	4.0300	4.0301	0.8165	26.00	0.09	0.750			
0.1920	12290.33	4.0270	4.0270	0.8251	26.01	0.10	0.750			
0.1945	12448.64	4.0240	4.0240	0.8256	26.01	0.10	0.750			
0.1970	12606.40	4.0210	4.0209	0.8306	26.01	0.10	0.750			
0.1995	12767.54	4.0180	4.0180	0.8367	26.01	0.10	0.750			
0.2021	12932.40	4.0150	4.0151	0.8314	26.01	0.10	0.750			
0.2045	13090.64	4.0120	4.0121	0.8388	26.01	0.10	0.750			
0.2071	13251.83	4.0090	4.0092	0.8373	26.01	0.10	0.750			
0.2096	13413.00	4.0060	4.0057	0.8363	26.01	0.10	0.750			
0.2121	13573.68	4.0030	4.0030	0.8371	26.01	0.10	0.750			
0.2146	13734.41	4.0000	4.0002	0.8353	26.01	0.10	0.750			
0.2171	13893.83	3.9970	3.9971	0.8417	26.01	0.10	0.750			
0.2196	14055.92	3.9940	3.9940	0.8390	26.01	0.10	0.750			
0.2222	14219.14	3.9910	3.9907	0.8426	26.01	0.10	0.750			
0.2247	14380.32	3.9880	3.9881	0.8443	26.01	0.10	0.750			
0.2273	14544.60	3.9850	3.9851	0.8407	26.01	0.10	0.750			
0.2298	14706.10	3.9820	3.9820	0.8439	26.01	0.10	0.750			
0.2323	14864.70	3.9790	3.9791	0.8375	26.01	0.10	0.750			
0.2348	15026.55	3.9760	3.9757	0.8419	26.01	0.10	0.750			
0.2373	15188.04	3.9730	3.9731	0.8502	26.01	0.10	0.750			
0.2399	15352.57	3.9700	3.9701	0.8508	26.01	0.10	0.750			
0.2425	15516.83	3.9670	3.9670	0.8561	26.01	0.10	0.750			
0.2450	15681.62	3.9640	3.9641	0.8528	26.01	0.10	0.750			
0.2476	15845.54	3.9610	3.9608	0.8561	26.01	0.10	0.750			
0.2502	16010.73	3.9580	3.9580	0.8577	26.01	0.10	0.750			
0.2528	16176.05	3.9550	3.9550	0.8607	26.01	0.10	0.750			
0.2553	16340.37	3.9520	3.9520	0.8634	26.01	0.10	0.750			
0.2579	16506.97	3.9490	3.9491	0.8646	26.01	0.10	0.750			
0.2605	16673.39	3.9460	3.9460	0.8638	26.01	0.10	0.750			
0.2631	16840.23	3.9430	3.9430	0.8649	26.01	0.10	0.750			
0.2657	17005.17	3.9400	3.9401	0.8682	26.01	0.10	0.750			
0.2683	17171.20	3.9370	3.9370	0.8763	26.01	0.10	0.750			
0.2709	17340.71	3.9340	3.9340	0.8764	26.01	0.10	0.750			
0.2736	17510.38	3.9310	3.9310	0.8747	26.01	0.10	0.750			
0.2762	17679.55	3.9280	3.9281	0.8708	26.00	0.09	0.750			
0.2789	17847.55	3.9250	3.9251	0.8757	26.00	0.09	0.750			
0.2815	18014.16	3.9220	3.9219	0.8745	26.00	0.09	0.750			
0.2840	18178.51	3.9190	3.9189	0.8741	25.99	0.08	0.750			
0.2867	18346.10	3.9160	3.9161	0.8847	25.99	0.08	0.750			
0.2894	18519.45	3.9130	3.9130	0.8891	25.98	0.07	0.750			
0.2920	18690.86	3.9100	3.9099	0.8921	25.98	0.07	0.750			
0.2947	18862.89	3.9070	3.9071	0.8987	25.97	0.06	0.750			
0.2974	19034.69	3.9040	3.9037	0.8967	25.97	0.06	0.750			
0.3001	19207.27	3.9010	3.9010	0.8985	25.97	0.06	0.750			
0.3028	19379.67	3.8980	3.8980	0.9024	25.96	0.05	0.750			
0.3055	19551.86	3.8950	3.8951	0.9064	25.96	0.05	0.750			
0.3083	19728.67	3.8920	3.8920	0.9101	25.95	0.04	0.750			
0.3110	19902.73	3.8890	3.8891	0.9066	25.95	0.04	0.750			
0.3137	20076.90	3.8860	3.8859	0.9035	25.94	0.03	0.750			
0.3164	20250.25	3.8830	3.8831	0.9079	25.93	0.02	0.750			
0.3191	20423.79	3.8800	3.8800	0.9074	25.93	0.02	0.750			
0.3218	20597.44	3.8770	3.8768	0.9063	25.92	0.01	0.750			
0.3246	20772.97	3.8740	3.8740	0.9064	25.92	0.01	0.750			
0.3273	20946.73	3.8710	3.8711	0.9113	25.91	-0.00	0.750			
0.3300	21121.84	3.8680	3.8680	0.9128	25.90	-0.01	0.750			
0.3328	21298.27	3.8650	3.8650	0.9144	25.90	-0.01	0.750			
0.3355	21472.38	3.8620	3.8620	0.9087	25.89	-0.02	0.750			
0.3383	21650.25	3.8590	3.8590	0.9012	25.88	-0.03	0.750			
0.3409	21820.68	3.8560	3.8560	0.9083	25.88	-0.03	0.750			
0.3436	21992.84	3.8530	3.8531	0.9166	25.87	-0.04	0.750			
0.3464	22168.07	3.8500	3.8500	0.9200	25.86	-0.05	0.750			
0.3492	22347.09	3.8470	3.8471	0.9257	25.85	-0.06	0.750			
0.3520	22527.36	3.8440	3.8441	0.9334	25.85	-0.06	0.750			
0.3548	22707.55	3.8410	3.8411	0.9418	25.84	-0.07	0.750			
0.3577	22890.41	3.8380	3.8379	0.9501	25.83	-0.08	0.750			
0.3604	23068.56	3.8350	3.8350	0.9465	25.82	-0.09	0.750			
0.3633	23251.95	3.8320	3.8319	0.9496	25.81	-0.10	0.750			
0.3662	23434.15	3.8290	3.8291	0.9653	25.81	-0.10	0.750			
0.3691	23620.76	3.8260	3.8260	0.9772	25.81	-0.10	0.750			
0.3720	23808.66	3.8230	3.8228	0.9875	25.80	-0.11	0.750			
0.3750	23999.31	3.8200	3.8200	0.9932	25.79	-0.12	0.750			
0.3780	24192.00	3.8170	3.8171	1.0063	25.78	-0.13	0.750			
0.3810	24386.80	3.8140	3.8141	1.0208	25.77	-0.14	0.750			
0.3841	24583.76	3.8110	3.8109	1.0255	25.76	-0.15	0.750			
0.3872	24782.20	3.8080	3.8079	1.0295	25.75	-0.16	0.750			
0.3903	24979.97	3.8050	3.8050	1.0419	25.74	-0.17	0.750			
0.3934	25179.92	3.8020	3.8021	1.0582	25.73	-0.18	0.750			
0.3966	25384.72	3.7990	3.7989	1.0743	25.72	-0.19	0.750			
0.3998	25589.93	3.7960	3.7960	1.0873	25.71	-0.20	0.750			
0.4031	25801.43	3.7930	3.7931	1.1037	25.70	-0.21	0.750			
0.4065	26017.37	3.7900	3.7900	1.1254	25.69	-0.22	0.750			
0.4100	26239.90	3.7870	3.7868	1.1254	25.68	-0.23	0.750			
0.4133	26448.09	3.7840	3.7842	1.1450	25.67	-0.24	0.750			
0.4166	26665.03	3.7810	3.7811	1.1765	25.66	-0.25	0.750			
0.4202	26893.20	3.7780	3.7781	1.2031	25.66	-0.25	0.750			
0.4238	27125.72	3.7750	3.7750	1.2350	25.65	-0.26	0.750	0.344	0.503	
0.4276	27369.53	3.7720	3.7724	1.2770	25.64	-0.27	0.750			
0.4316	27624.32	3.7690	3.7692	1.3132	25.63	-0.28	0.750			
0.4357	27881.83	3.7660	3.7659	1.3441	25.62	-0.29	0.750			
0.4396	28136.01	3.7630	3.7630	1.3476	25.61	-0.30	0.750			
0.4438	28406.33	3.7600	3.7599	1.3564	25.60	-0.31	0.750			
0.4479	28667.12	3.7570	3.7570	1.3786	25.59	-0.32	0.750			
0.4520	28926.31	3.7540	3.7542	1.4052	25.58	-0.33	0.750			
0.4562	29197.84	3.7510	3.7512	1.4294	25.57	-0.34	0.750			
0.4605	29473.04	3.7480	3.7480	1.4659	25.56	-0.35	0.750			
0.4649	29755.24	3.7450	3.7452	1.4949	25.54	-0.37	0.750			
0.4695	30046.20	3.7420	3.7422	1.5516	25.53	-0.38	0.750			
0.4743	30356.16	3.7390	3.7391	1.6114	25.52	-0.39	0.750			
0.4791	30664.44	3.7360	3.7355	1.6217	25.51	-0.40	0.750			
0.4841	30983.58	3.7330	3.7329	1.6700	25.50	-0.41	0.750			
0.4892	31309.86	3.7300	3.7303	1.7315	25.49	-0.42	0.750			
0.4945	31649.54	3.7270	3.7271	1.7703	25.48	-0.43	0.750			
0.4998	31989.61	3.7240	3.7241	1.8131	25.46	-0.45	0.750			
0.5054	32345.87	3.7210	3.7209	1.8671	25.45	-0.46	0.750			
0.5110	32706.30	3.7180	3.7181	1.9415	25.44	-0.47	0.750			
0.5170	33088.25	3.7150	3.7153	1.9974	25.43	-0.48	0.750			
0.5231	33478.12	3.7120	3.7120	2.0361	25.43	-0.48	0.750			
0.5293	33875.29	3.7090	3.7092	2.0788	25.42	-0.49	0.750			
0.5357	34286.07	3.7060	3.7060	2.1418	25.42	-0.49	0.750			
0.5422	34700.25	3.7030	3.7029	2.2199	25.40	-0.51	0.750			
0.5489	35126.64	3.7000	3.7001	2.3089	25.39	-0.52	0.750			
0.5558	35573.95	3.6970	3.6969	2.3963	25.38	-0.53	0.750			
0.5632	36045.44	3.6940	3.6941	2.4909	25.38	-0.53	0.750			
0.5709	36539.42	3.6910	3.6910	2.5561	25.38	-0.53	0.750			
0.5787	37036.24	3.6880	3.6880	2.6296	25.38	-0.53	0.750			
0.5865	37537.97	3.6850	3.6851	2.6595	25.38	-0.53	0.750			
0.5948	38069.61	3.6820	3.6819	2.6551	25.38	-0.53	0.750			
0.6030	38594.27	3.6790	3.6789	2.5924	25.39	-0.52	0.750			
0.6108	39090.92	3.6760	3.6761	2.4426	25.40	-0.51	0.750			
0.6178	39540.31	3.6730	3.6729	2.2189	25.41	-0.50	0.750			
0.6240	39938.79	3.6700	3.6699	1.9983	25.41	-0.50	0.750			
0.6295	40289.38	3.6670	3.6669	1.8157	25.42	-0.49	0.750			
0.6345	40610.87	3.6640	3.6639	1.6666	25.43	-0.48	0.750			
0.6392	40910.17	3.6610	3.6611	1.5542	25.44	-0.47	0.750			
0.6437	41194.40	3.6580	3.6579	1.4545	25.45	-0.46	0.750			
0.6480	41470.67	3.6550	3.6551	1.3773	25.46	-0.45	0.750			
0.6520	41727.00	3.6520	3.6522	1.3100	25.47	-0.44	0.750			
0.6558	41971.38	3.6490	3.6490	1.2476	25.47	-0.44	0.750			
0.6593	42197.39	3.6460	3.6459	1.1926	25.48	-0.43	0.750			
0.6628	42416.32	3.6430	3.6430	1.1592	25.48	-0.43	0.750			
0.6661	42633.54	3.6400	3.6401	1.1512	25.49	-0.42	0.750			
0.6696	42852.35	3.6370	3.6370	1.1598	25.50	-0.41	0.750			
0.6732	43082.35	3.6340	3.6339	1.1400	25.50	-0.41	0.750			
0.6766	43299.91	3.6310	3.6309	1.1450	25.51	-0.40	0.750			
0.6800	43519.81	3.6280	3.6282	1.1512	25.51	-0.40	0.750			
0.6834	43739.94	3.6250	3.6251	1.1486	25.52	-0.39	0.750			
0.6869	43958.82	3.6220	3.6220	1.1337	25.52	-0.39	0.750			
0.6902	44175.88	3.6190	3.6192	1.1367	25.53	-0.38	0.750			
0.6936	44392.72	3.6160	3.6161	1.1348	25.54	-0.37	0.750			
0.6971	44616.35	3.6130	3.6128	1.1293	25.55	-0.36	0.750			
0.7004	44828.48	3.6100	3.6100	1.1174	25.55	-0.36	0.750			
0.7038	45041.81	3.6070	3.6071	1.1231	25.56	-0.35	0.750			
0.7071	45256.39	3.6040	3.6040	1.1376	25.56	-0.35	0.750			
0.7106	45475.24	3.6010	3.6010	1.1449	25.56	-0.35	0.750			
0.7140	45693.39	3.5980	3.5980	1.1783	25.57	-0.34	0.750			
0.7175	45921.22	3.5950	3.5950	1.2158	25.57	-0.34	0.750			
0.7213	46161.22	3.5920	3.5919	1.2497	25.58	-0.33	0.750			
0.7250	46402.17	3.5890	3.5891	1.2920	25.58	-0.33	0.750			
0.7289	46652.11	3.5860	3.5861	1.3438	25.59	-0.32	0.750			
0.7331	46917.25	3.5830	3.5830	1.3849	25.60	-0.31	0.750			
0.7373	47189.55	3.5800	3.5800	1.4312	25.60	-0.31	0.750			
0.7417	47465.91	3.5770	3.5769	1.4764	25.61	-0.30	0.750			
0.7462	47755.55	3.5740	3.5741	1.5133	25.62	-0.29	0.750			
0.7508	48053.68	3.5710	3.5711	1.5462	25.62	-0.29	0.750			
0.7555	48353.46	3.5680	3.5679	1.5708	25.63	-0.28	0.750			
0.7603	48656.91	3.5650	3.5649	1.5928	25.63	-0.28	0.750			
0.7651	48968.13	3.5620	3.5620	1.6291	25.64	-0.27	0.750			
0.7700	49282.64	3.5590	3.5592	1.6314	25.65	-0.26	0.750			
0.7750	49601.82	3.5560	3.5560	1.6423	25.65	-0.26	0.750			
0.7800	49917.53	3.5530	3.5530	1.6585	25.66	-0.25	0.750			
0.7849	50234.56	3.5500	3.5500	1.6879	25.67	-0.24	0.750			
0.7900	50557.78	3.5470	3.5472	1.7287	25.68	-0.23	0.750			
0.7953	50899.66	3.5440	3.5441	1.7281	25.69	-0.22	0.750			
0.8008	51250.29	3.5410	3.5407	1.6850	25.71	-0.20	0.750			
0.8063	51602.16	3.5380	3.5380	1.5308	25.74	-0.17	0.750			
0.8111	51908.79	3.5350	3.5353	1.3412	25.76	-0.15	0.750			
0.8148	52144.04	3.5320	3.5323	1.0911	25.78	-0.13	0.750			
0.8173	52306.90	3.5290	3.5287	0.8023	25.79	-0.12	0.750			
0.8191	52420.39	3.5260	3.5254	0.5962	25.80	-0.11	0.750			
0.8201	52486.40	3.5230	3.5229	0.4600	25.81	-0.10	0.750			
0.8212	52556.60	3.5200	3.5199	0.3870	25.81	-0.10	0.750			
0.8222	52623.45	3.5170	3.5169	0.3533	25.82	-0.09	0.750			
0.8232	52685.40	3.5140	3.5138	0.3269	25.83	-0.08	0.750			
0.8242	52746.05	3.5110	3.5111	0.3142	25.83	-0.08	0.750			
0.8251	52804.39	3.5080	3.5080	0.3009	25.84	-0.07	0.750			
0.8259	52860.78	3.5050	3.5049	0.2928	25.84	-0.07	0.750			
0.8268	52915.75	3.5020	3.5020	0.2840	25.85	-0.06	0.750			
0.8276	52968.83	3.4990	3.4990	0.2762	25.86	-0.05	0.750			
0.8285	53021.61	3.4960	3.4960	0.2710	25.86	-0.05	0.750			
0.8293	53073.18	3.4930	3.4931	0.2644	25.87	-0.04	0.750			
0.8300	53123.12	3.4900	3.4900	0.2574	25.87	-0.04	0.750			
0.8308	53171.86	3.4870	3.4870	0.2520	25.88	-0.03	0.750			
0.8316	53219.36	3.4840	3.4840	0.2458	25.89	-0.02	0.750			
0.8323	53265.93	3.4810	3.4809	0.2405	25.89	-0.02	0.750			
0.8330	53311.35	3.4780	3.4779	0.2358	25.90	-0.01	0.750			
0.8337	53356.16	3.4750	3.4751	0.2305	25.90	-0.01	0.750			
0.8344	53400.30	3.4720	3.4720	0.2261	25.91	-0.00	0.750			
0.8350	53443.16	3.4690	3.4690	0.2209	25.91	0.00	0.750			
0.8357	53485.21	3.4660	3.4660	0.2157	25.92	0.01	0.750			
0.8363	53525.89	3.4630	3.4631	0.2106	25.92	0.01	0.750			
0.8370	53565.87	3.4600	3.4600	0.2057	25.92	0.01	0.750			
0.8376	53604.82	3.4570	3.4570	0.2002	25.93	0.02	0.750			
0.8382	53642.80	3.4540	3.4539	0.1955	25.93	0.02	0.750			
0.8388	53680.10	3.4510	3.4511	0.1905	25.94	0.03	0.750			
0.8393	53716.29	3.4480	3.4480	0.1850	25.94	0.03	0.750			
0.8399	53751.09	3.4450	3.4451	0.1798	25.95	0.04	0.750			
0.8404	53785.13	3.4420	3.4419	0.1747	25.95	0.04	0.750			
0.8409	53818.11	3.4390	3.4390	0.1690	25.95	0.04	0.750			
0.8414	53850.05	3.4360	3.4359	0.1639	25.96	0.05	0.750			
0.8419	53881.05	3.4330	3.4331	0.1587	25.96	0.05	0.750			
0.8424	53911.02	3.4300	3.4300	0.1535	25.96	0.05	0.750			
0.8428	53940.07	3.4270	3.4270	0.1478	25.97	0.06	0.750			
0.8433	53968.06	3.4240	3.4240	0.1423	25.97	0.06	0.750			
0.8437	53994.69	3.4210	3.4210	0.1362	25.97	0.06	0.750			
0.8441	54020.37	3.4180	3.4180	0.1301	25.98	0.07	0.750			
0.8445	54045.00	3.4150	3.4150	0.1243	25.98	0.07	0.750			
0.8448	54068.45	3.4120	3.4120	0.1170	25.98	0.07	0.750			
0.8452	54090.39	3.4090	3.4091	0.1101	25.98	0.07	0.750			
0.8455	54112.18	3.4060	3.4059	0.0996	25.99	0.08	0.750			
0.8458	54130.86	3.4030	3.4029	0.0911	25.99	0.08	0.750			
0.8461	54147.91	3.4000	3.4001	0.0820	25.99	0.08	0.750			
0.8463	54162.54	3.3970	3.3972	0.0704	25.99	0.08	0.750			
0.8465	54175.74	3.3940	3.3943	0.0595	25.99	0.08	0.750			
0.8467	54185.96	3.3910	3.3917	0.0470	25.99	0.08	0.750			
0.8468	54193.78	3.3880	3.3891	0.0345	25.99	0.08	0.750			
0.8469	54199.20	3.3850	3.3869	0.0219	26.00	0.09	0.750			
0.8469	54202.21	3.3820	3.3851	0.0094	26.00	0.09	0.750			
