Ah_balance (normalized)	Ah_balance (mAh)	Voltage - fit (V)	Voltage -  interpolate (V)	dQ/dV (1/V)	Temperature (°C)	Temperature - diff (°C)	Current (C)	R_DC 0ms (mOhm)	R_DC 50ms (mOhm)	R_DC 50 ms PEC (mOhm)
0.0003	20.15	4.1560	4.1556	-0.1161	24.93	0.01	-0.750			
0.0007	45.51	4.1530	4.1528	-0.1502	24.93	0.01	-0.750			
0.0012	78.13	4.1500	4.1500	-0.1853	24.93	0.01	-0.750			
0.0018	116.66	4.1470	4.1470	-0.2197	24.93	0.01	-0.750			
0.0025	162.28	4.1440	4.1440	-0.2541	24.93	0.01	-0.750			
0.0034	214.83	4.1410	4.1410	-0.2871	24.92	0.00	-0.750			
0.0043	273.31	4.1380	4.1379	-0.3178	24.92	0.00	-0.750			
0.0053	338.15	4.1350	4.1351	-0.3474	24.92	0.00	-0.750			
0.0064	408.02	4.1320	4.1320	-0.3769	24.92	0.00	-0.750			
0.0076	484.13	4.1290	4.1290	-0.4035	24.92	0.00	-0.750			
0.0088	563.89	4.1260	4.1259	-0.4293	24.92	0.00	-0.750			
0.0101	648.99	4.1230	4.1229	-0.4537	24.92	-0.00	-0.750			
0.0115	738.70	4.1200	4.1201	-0.4769	24.92	-0.00	-0.750			
0.0130	833.59	4.1170	4.1169	-0.4964	24.92	-0.00	-0.750			
0.0145	930.67	4.1140	4.1141	-0.5147	24.92	-0.00	-0.750			
0.0161	1031.62	4.1110	4.1110	-0.5325	24.91	-0.01	-0.750			
0.0178	1136.39	4.1080	4.1079	-0.5474	24.91	-0.01	-0.750			
0.0194	1243.31	4.1050	4.1050	-0.5585	24.91	-0.01	-0.750			
0.0211	1351.93	4.1020	4.1020	-0.5712	24.91	-0.01	-0.750			
0.0229	1463.40	4.0990	4.0991	-0.5828	24.91	-0.01	-0.750			
0.0246	1576.80	4.0960	4.0959	-0.5926	24.91	-0.01	-0.750			
0.0264	1690.33	4.0930	4.0930	-0.6009	24.91	-0.01	-0.750			
0.0282	1806.92	4.0900	4.0900	-0.6087	24.91	-0.01	-0.750			
0.0301	1925.28	4.0870	4.0870	-0.6202	24.91	-0.01	-0.750			
0.0320	2045.61	4.0840	4.0840	-0.6257	24.91	-0.01	-0.750			
0.0339	2166.55	4.0810	4.0809	-0.6306	24.91	-0.01	-0.750			
0.0358	2288.40	4.0780	4.0780	-0.6356	24.91	-0.01	-0.750			
0.0377	2410.90	4.0750	4.0751	-0.6407	24.91	-0.01	-0.750			
0.0396	2533.10	4.0720	4.0720	-0.6482	24.91	-0.01	-0.750			
0.0416	2659.71	4.0690	4.0689	-0.6510	24.91	-0.01	-0.750			
0.0435	2784.67	4.0660	4.0660	-0.6540	24.91	-0.01	-0.750			
0.0455	2910.63	4.0630	4.0630	-0.6582	24.91	-0.01	-0.750			
0.0475	3037.39	4.0600	4.0601	-0.6634	24.91	-0.01	-0.750			
0.0494	3164.53	4.0570	4.0569	-0.6678	24.91	-0.01	-0.750			
0.0514	3291.59	4.0540	4.0539	-0.6729	24.92	-0.00	-0.750			
0.0535	3421.07	4.0510	4.0512	-0.6782	24.92	0.00	-0.750			
0.0555	3554.89	4.0480	4.0480	-0.6847	24.92	0.00	-0.750			
0.0576	3687.54	4.0450	4.0450	-0.6879	24.93	0.01	-0.750			
0.0597	3820.35	4.0420	4.0421	-0.6897	24.93	0.01	-0.750			
0.0618	3952.51	4.0390	4.0390	-0.6855	24.93	0.01	-0.750			
0.0638	4083.27	4.0360	4.0360	-0.6869	24.93	0.01	-0.750			
0.0658	4213.47	4.0330	4.0331	-0.6868	24.94	0.02	-0.750			
0.0679	4345.49	4.0300	4.0300	-0.6933	24.94	0.02	-0.750			
0.0700	4478.63	4.0270	4.0269	-0.6991	24.94	0.02	-0.750			
0.0721	4613.63	4.0240	4.0241	-0.7001	24.94	0.02	-0.750			
0.0742	4749.30	4.0210	4.0210	-0.7030	24.94	0.02	-0.750			
0.0763	4885.94	4.0180	4.0181	-0.7099	24.95	0.03	-0.750			
0.0785	5021.98	4.0150	4.0150	-0.7084	24.95	0.03	-0.750			
0.0806	5157.52	4.0120	4.0119	-0.7082	24.95	0.03	-0.750			
0.0827	5293.65	4.0090	4.0089	-0.7075	24.96	0.04	-0.750			
0.0848	5429.65	4.0060	4.0061	-0.7085	24.96	0.04	-0.750			
0.0870	5566.07	4.0030	4.0030	-0.7117	24.96	0.04	-0.750			
0.0891	5702.14	4.0000	4.0000	-0.7153	24.96	0.04	-0.750			
0.0912	5838.67	3.9970	3.9971	-0.7146	24.97	0.05	-0.750			
0.0934	5977.38	3.9940	3.9939	-0.7206	24.97	0.05	-0.750			
0.0956	6116.45	3.9910	3.9910	-0.7230	24.97	0.05	-0.750			
0.0978	6256.47	3.9880	3.9880	-0.7231	24.97	0.05	-0.750			
0.0999	6394.53	3.9850	3.9850	-0.7207	24.98	0.06	-0.750			
0.1021	6531.30	3.9820	3.9820	-0.7273	24.99	0.07	-0.750			
0.1042	6671.52	3.9790	3.9791	-0.7303	24.99	0.07	-0.750			
0.1065	6813.19	3.9760	3.9757	-0.7331	25.00	0.08	-0.750			
0.1087	6954.70	3.9730	3.9731	-0.7353	25.01	0.09	-0.750			
0.1109	7096.13	3.9700	3.9700	-0.7397	25.01	0.09	-0.750			
0.1131	7240.37	3.9670	3.9670	-0.7413	25.01	0.09	-0.750			
0.1153	7382.39	3.9640	3.9639	-0.7411	25.01	0.09	-0.750			
0.1175	7521.51	3.9610	3.9610	-0.7380	25.01	0.09	-0.750			
0.1198	7665.81	3.9580	3.9580	-0.7460	25.01	0.09	-0.750			
0.1220	7809.22	3.9550	3.9551	-0.7446	25.01	0.09	-0.750			
0.1243	7952.48	3.9520	3.9520	-0.7445	25.01	0.09	-0.750			
0.1265	8094.30	3.9490	3.9490	-0.7466	25.02	0.10	-0.750			
0.1287	8237.57	3.9460	3.9460	-0.7516	25.02	0.10	-0.750			
0.1310	8382.77	3.9430	3.9429	-0.7565	25.02	0.10	-0.750			
0.1332	8527.45	3.9400	3.9400	-0.7583	25.03	0.11	-0.750			
0.1355	8674.09	3.9370	3.9370	-0.7612	25.03	0.11	-0.750			
0.1378	8820.99	3.9340	3.9340	-0.7663	25.04	0.12	-0.750			
0.1401	8968.49	3.9310	3.9310	-0.7673	25.04	0.12	-0.750			
0.1424	9116.00	3.9280	3.9280	-0.7642	25.04	0.12	-0.750			
0.1447	9262.50	3.9250	3.9250	-0.7634	25.05	0.13	-0.750			
0.1470	9409.02	3.9220	3.9222	-0.7661	25.05	0.13	-0.750			
0.1493	9555.70	3.9190	3.9189	-0.7675	25.05	0.13	-0.750			
0.1516	9703.24	3.9160	3.9160	-0.7714	25.05	0.13	-0.750			
0.1539	9851.71	3.9130	3.9130	-0.7706	25.06	0.14	-0.750			
0.1563	10000.99	3.9100	3.9100	-0.7725	25.06	0.14	-0.750			
0.1586	10150.41	3.9070	3.9070	-0.7699	25.06	0.14	-0.750			
0.1609	10295.97	3.9040	3.9040	-0.7718	25.06	0.14	-0.750			
0.1632	10443.28	3.9010	3.9009	-0.7735	25.07	0.15	-0.750			
0.1655	10591.48	3.8980	3.8980	-0.7735	25.07	0.15	-0.750			
0.1678	10739.90	3.8950	3.8950	-0.7782	25.07	0.15	-0.750			
0.1702	10893.38	3.8920	3.8920	-0.7813	25.08	0.16	-0.750			
0.1725	11043.10	3.8890	3.8891	-0.7804	25.08	0.16	-0.750			
0.1749	11191.26	3.8860	3.8860	-0.7856	25.09	0.17	-0.750			
0.1772	11340.81	3.8830	3.8830	-0.7872	25.09	0.17	-0.750			
0.1796	11493.80	3.8800	3.8798	-0.7863	25.09	0.17	-0.750			
0.1820	11645.97	3.8770	3.8770	-0.7855	25.10	0.18	-0.750			
0.1843	11797.45	3.8740	3.8741	-0.7849	25.10	0.18	-0.750			
0.1867	11948.46	3.8710	3.8710	-0.7843	25.10	0.18	-0.750			
0.1890	12096.80	3.8680	3.8679	-0.7807	25.11	0.19	-0.750			
0.1913	12245.53	3.8650	3.8650	-0.7800	25.11	0.19	-0.750			
0.1937	12395.59	3.8620	3.8620	-0.7831	25.12	0.20	-0.750			
0.1961	12547.76	3.8590	3.8591	-0.7857	25.12	0.20	-0.750			
0.1984	12699.65	3.8560	3.8559	-0.7860	25.12	0.20	-0.750			
0.2008	12849.14	3.8530	3.8530	-0.7871	25.13	0.21	-0.750			
0.2031	13000.32	3.8500	3.8500	-0.7837	25.13	0.21	-0.750			
0.2055	13151.16	3.8470	3.8469	-0.7804	25.13	0.21	-0.750			
0.2078	13301.40	3.8440	3.8440	-0.7805	25.14	0.22	-0.750			
0.2102	13451.05	3.8410	3.8411	-0.7778	25.14	0.22	-0.750			
0.2125	13600.69	3.8380	3.8379	-0.7754	25.14	0.22	-0.750			
0.2148	13748.48	3.8350	3.8350	-0.7708	25.14	0.22	-0.750			
0.2171	13893.70	3.8320	3.8321	-0.7683	25.14	0.22	-0.750			
0.2194	14042.14	3.8290	3.8289	-0.7755	25.14	0.22	-0.750			
0.2217	14191.55	3.8260	3.8261	-0.7769	25.14	0.22	-0.750			
0.2241	14340.56	3.8230	3.8230	-0.7777	25.14	0.22	-0.750			
0.2265	14493.11	3.8200	3.8200	-0.7776	25.14	0.22	-0.750			
0.2288	14642.93	3.8170	3.8170	-0.7745	25.15	0.23	-0.750			
0.2311	14790.84	3.8140	3.8140	-0.7675	25.15	0.23	-0.750			
0.2334	14936.57	3.8110	3.8110	-0.7594	25.15	0.23	-0.750			
0.2356	15080.51	3.8080	3.8079	-0.7534	25.15	0.23	-0.750			
0.2379	15225.19	3.8050	3.8050	-0.7501	25.16	0.24	-0.750			
0.2401	15368.19	3.8020	3.8020	-0.7490	25.16	0.24	-0.750			
0.2424	15512.81	3.7990	3.7990	-0.7474	25.17	0.25	-0.750			
0.2446	15656.43	3.7960	3.7960	-0.7442	25.18	0.26	-0.750			
0.2469	15799.37	3.7930	3.7932	-0.7425	25.18	0.26	-0.750			
0.2491	15941.00	3.7900	3.7900	-0.7388	25.18	0.26	-0.750			
0.2513	16082.69	3.7870	3.7870	-0.7343	25.18	0.26	-0.750			
0.2535	16222.96	3.7840	3.7840	-0.7285	25.18	0.26	-0.750			
0.2557	16362.71	3.7810	3.7810	-0.7264	25.18	0.26	-0.750			
0.2578	16500.66	3.7780	3.7780	-0.7255	25.18	0.26	-0.750			
0.2600	16639.24	3.7750	3.7749	-0.7229	25.18	0.26	-0.750			
0.2622	16777.71	3.7720	3.7720	-0.7236	25.18	0.26	-0.750			
0.2643	16916.31	3.7690	3.7690	-0.7277	25.19	0.27	-0.750			
0.2665	17058.16	3.7660	3.7661	-0.7296	25.19	0.27	-0.750			
0.2687	17199.12	3.7630	3.7629	-0.7302	25.20	0.28	-0.750			
0.2709	17339.17	3.7600	3.7600	-0.7265	25.20	0.28	-0.750			
0.2731	17477.06	3.7570	3.7571	-0.7268	25.20	0.28	-0.750			
0.2752	17616.00	3.7540	3.7539	-0.7276	25.20	0.28	-0.750			
0.2774	17754.20	3.7510	3.7511	-0.7329	25.20	0.28	-0.750			
0.2796	17894.40	3.7480	3.7480	-0.7377	25.21	0.29	-0.750			
0.2819	18038.87	3.7450	3.7450	-0.7486	25.21	0.29	-0.750			
0.2841	18182.89	3.7420	3.7421	-0.7555	25.21	0.29	-0.750			
0.2864	18328.71	3.7390	3.7390	-0.7668	25.21	0.29	-0.750			
0.2887	18475.57	3.7360	3.7360	-0.7764	25.21	0.29	-0.750			
0.2910	18625.74	3.7330	3.7330	-0.7807	25.21	0.29	-0.750			
0.2934	18778.24	3.7300	3.7300	-0.7886	25.21	0.29	-0.750			
0.2958	18929.65	3.7270	3.7270	-0.7970	25.21	0.29	-0.750			
0.2982	19082.48	3.7240	3.7239	-0.8069	25.21	0.29	-0.750			
0.3006	19236.94	3.7210	3.7210	-0.8226	25.21	0.29	-0.750			
0.3031	19397.01	3.7180	3.7178	-0.8333	25.21	0.29	-0.750			
0.3056	19558.79	3.7150	3.7150	-0.8467	25.21	0.29	-0.750			
0.3082	19724.13	3.7120	3.7120	-0.8626	25.21	0.29	-0.750			
0.3108	19889.31	3.7090	3.7089	-0.8793	25.21	0.29	-0.750			
0.3134	20059.64	3.7060	3.7059	-0.8962	25.21	0.29	-0.750			
0.3161	20229.80	3.7030	3.7029	-0.9071	25.20	0.28	-0.750			
0.3188	20404.75	3.7000	3.7000	-0.9235	25.20	0.28	-0.750			
0.3217	20588.42	3.6970	3.6974	-0.9477	25.20	0.28	-0.750			
0.3245	20770.87	3.6940	3.6939	-0.9644	25.20	0.28	-0.750			
0.3275	20958.67	3.6910	3.6910	-0.9796	25.19	0.27	-0.750			
0.3304	21147.61	3.6880	3.6879	-0.9943	25.19	0.27	-0.750			
0.3334	21339.98	3.6850	3.6850	-1.0103	25.18	0.26	-0.750			
0.3365	21535.49	3.6820	3.6820	-1.0334	25.18	0.26	-0.750			
0.3396	21735.67	3.6790	3.6789	-1.0479	25.17	0.25	-0.750			
0.3428	21937.47	3.6760	3.6760	-1.0670	25.17	0.25	-0.750			
0.3460	22142.83	3.6730	3.6730	-1.0832	25.16	0.24	-0.750			
0.3493	22354.62	3.6700	3.6700	-1.1090	25.16	0.24	-0.750			
0.3526	22567.20	3.6670	3.6670	-1.1344	25.15	0.23	-0.750			
0.3560	22786.46	3.6640	3.6640	-1.1572	25.15	0.23	-0.750			
0.3595	23010.40	3.6610	3.6610	-1.1856	25.14	0.22	-0.750			
0.3632	23244.74	3.6580	3.6579	-1.2127	25.14	0.22	-0.750			
0.3669	23479.78	3.6550	3.6551	-1.2312	25.13	0.21	-0.750			
0.3706	23719.28	3.6520	3.6519	-1.2570	25.13	0.21	-0.750			
0.3744	23963.05	3.6490	3.6490	-1.2695	25.12	0.20	-0.750			
0.3782	24207.91	3.6460	3.6459	-1.2842	25.11	0.19	-0.750			
0.3821	24453.01	3.6430	3.6430	-1.3099	25.11	0.19	-0.750			
0.3860	24705.77	3.6400	3.6401	-1.3322	25.10	0.18	-0.750			
0.3901	24965.86	3.6370	3.6369	-1.3639	25.09	0.17	-0.750			
0.3942	25228.68	3.6340	3.6340	-1.3899	25.08	0.16	-0.750			
0.3984	25498.96	3.6310	3.6310	-1.4118	25.08	0.16	-0.750			
0.4027	25775.73	3.6280	3.6280	-1.4344	25.08	0.16	-0.750			
0.4071	26052.95	3.6250	3.6250	-1.4687	25.07	0.15	-0.750			
0.4115	26334.83	3.6220	3.6220	-1.4968	25.07	0.15	-0.750			
0.4160	26625.30	3.6190	3.6189	-1.5315	25.06	0.14	-0.750			
0.4207	26925.12	3.6160	3.6162	-1.5512	25.05	0.13	-0.750			
0.4254	27225.60	3.6130	3.6129	-1.5797	25.05	0.13	-0.750			
0.4302	27534.28	3.6100	3.6098	-1.6031	25.04	0.12	-0.750	0.412	0.577	
0.4350	27840.39	3.6070	3.6069	-1.6362	25.04	0.12	-0.750			
0.4399	28153.76	3.6040	3.6042	-1.6723	25.04	0.12	-0.750			
0.4449	28476.28	3.6010	3.6007	-1.7063	25.03	0.11	-0.750			
0.4501	28806.17	3.5980	3.5979	-1.7485	25.02	0.10	-0.750			
0.4555	29153.62	3.5950	3.5948	-1.7924	25.02	0.10	-0.750			
0.4610	29505.01	3.5920	3.5920	-1.8339	25.01	0.09	-0.750			
0.4666	29861.32	3.5890	3.5891	-1.8629	25.01	0.09	-0.750			
0.4721	30216.07	3.5860	3.5860	-1.8655	25.01	0.09	-0.750			
0.4777	30575.09	3.5830	3.5831	-1.9033	25.01	0.09	-0.750			
0.4835	30945.11	3.5800	3.5799	-1.9401	25.01	0.09	-0.750			
0.4894	31323.01	3.5770	3.5770	-1.9508	25.01	0.09	-0.750			
0.4954	31704.45	3.5740	3.5740	-1.9838	25.00	0.08	-0.750			
0.5014	32087.24	3.5710	3.5710	-1.9947	25.00	0.08	-0.750			
0.5073	32468.20	3.5680	3.5682	-2.0198	25.00	0.08	-0.750			
0.5134	32857.83	3.5650	3.5648	-2.0467	25.00	0.08	-0.750			
0.5195	33249.73	3.5620	3.5620	-2.0603	25.01	0.09	-0.750			
0.5258	33649.60	3.5590	3.5591	-2.0928	25.01	0.09	-0.750			
0.5322	34057.86	3.5560	3.5560	-2.1118	25.01	0.09	-0.750			
0.5386	34469.31	3.5530	3.5530	-2.1051	25.01	0.09	-0.750			
0.5449	34876.65	3.5500	3.5500	-2.0981	25.01	0.09	-0.750			
0.5512	35277.33	3.5470	3.5470	-2.0901	25.02	0.10	-0.750			
0.5575	35677.90	3.5440	3.5439	-2.0758	25.03	0.11	-0.750			
0.5637	36074.96	3.5410	3.5410	-2.0727	25.03	0.11	-0.750			
0.5698	36467.57	3.5380	3.5380	-2.0611	25.04	0.12	-0.750			
0.5761	36867.84	3.5350	3.5350	-2.0391	25.04	0.12	-0.750			
0.5822	37258.44	3.5320	3.5320	-2.0231	25.05	0.13	-0.750			
0.5884	37656.63	3.5290	3.5290	-1.9754	25.06	0.14	-0.750			
0.5942	38030.23	3.5260	3.5259	-1.9122	25.07	0.15	-0.750			
0.5999	38390.63	3.5230	3.5232	-1.8675	25.08	0.16	-0.750			
0.6053	38738.77	3.5200	3.5203	-1.8185	25.09	0.17	-0.750			
0.6106	39079.08	3.5170	3.5169	-1.7944	25.10	0.18	-0.750			
0.6159	39418.06	3.5140	3.5138	-1.7781	25.11	0.19	-0.750			
0.6212	39757.28	3.5110	3.5109	-1.7631	25.12	0.20	-0.750			
0.6266	40101.14	3.5080	3.5082	-1.7467	25.13	0.21	-0.750			
0.6319	40442.17	3.5050	3.5049	-1.7045	25.14	0.22	-0.750			
0.6370	40766.52	3.5020	3.5018	-1.6518	25.15	0.23	-0.750			
0.6419	41082.94	3.4990	3.4989	-1.6025	25.16	0.24	-0.750			
0.6466	41382.63	3.4960	3.4961	-1.5476	25.18	0.26	-0.750			
0.6512	41677.13	3.4930	3.4930	-1.4947	25.19	0.27	-0.750			
0.6556	41955.48	3.4900	3.4898	-1.4398	25.20	0.28	-0.750			
0.6598	42229.95	3.4870	3.4872	-1.4049	25.21	0.29	-0.750			
0.6640	42495.94	3.4840	3.4839	-1.3628	25.23	0.31	-0.750			
0.6680	42749.37	3.4810	3.4810	-1.3149	25.25	0.33	-0.750			
0.6719	42998.67	3.4780	3.4782	-1.2821	25.26	0.34	-0.750			
0.6757	43244.07	3.4750	3.4748	-1.2485	25.27	0.35	-0.750			
0.6794	43480.69	3.4720	3.4719	-1.2031	25.28	0.36	-0.750			
0.6829	43707.00	3.4690	3.4690	-1.1573	25.30	0.38	-0.750			
0.6863	43925.16	3.4660	3.4660	-1.1346	25.31	0.39	-0.750			
0.6897	44140.46	3.4630	3.4629	-1.0945	25.33	0.41	-0.750			
0.6929	44342.99	3.4600	3.4598	-1.0521	25.34	0.42	-0.750			
0.6960	44540.96	3.4570	3.4572	-1.0188	25.36	0.44	-0.750			
0.6990	44734.70	3.4540	3.4541	-1.0042	25.37	0.45	-0.750			
0.7020	44925.35	3.4510	3.4509	-0.9757	25.38	0.46	-0.750			
0.7048	45109.12	3.4480	3.4479	-0.9457	25.39	0.47	-0.750			
0.7076	45286.21	3.4450	3.4450	-0.9205	25.39	0.47	-0.750			
0.7104	45465.13	3.4420	3.4419	-0.9069	25.40	0.48	-0.750			
0.7131	45635.90	3.4390	3.4390	-0.8886	25.42	0.50	-0.750			
0.7157	45803.27	3.4360	3.4360	-0.8692	25.43	0.51	-0.750			
0.7182	45965.00	3.4330	3.4330	-0.8530	25.44	0.52	-0.750			
0.7208	46130.87	3.4300	3.4300	-0.8472	25.45	0.53	-0.750			
0.7233	46289.96	3.4270	3.4269	-0.8431	25.46	0.54	-0.750			
0.7258	46450.29	3.4240	3.4239	-0.8435	25.47	0.55	-0.750			
0.7283	46611.08	3.4210	3.4211	-0.8465	25.48	0.56	-0.750			
0.7308	46773.53	3.4180	3.4180	-0.8503	25.49	0.57	-0.750			
0.7334	46939.44	3.4150	3.4150	-0.8584	25.50	0.58	-0.750			
0.7360	47106.27	3.4120	3.4119	-0.8556	25.50	0.58	-0.750			
0.7386	47271.73	3.4090	3.4090	-0.8577	25.51	0.59	-0.750			
0.7412	47434.37	3.4060	3.4061	-0.8493	25.52	0.60	-0.750			
0.7437	47597.71	3.4030	3.4030	-0.8388	25.52	0.60	-0.750			
0.7462	47758.85	3.4000	3.4000	-0.8331	25.53	0.61	-0.750			
0.7487	47918.98	3.3970	3.3970	-0.8212	25.53	0.61	-0.750			
0.7512	48076.68	3.3940	3.3940	-0.8116	25.54	0.62	-0.750			
0.7536	48232.32	3.3910	3.3909	-0.7972	25.55	0.63	-0.750			
0.7560	48383.09	3.3880	3.3880	-0.7772	25.55	0.63	-0.750			
0.7583	48531.99	3.3850	3.3850	-0.7601	25.56	0.64	-0.750			
0.7606	48676.57	3.3820	3.3819	-0.7398	25.57	0.65	-0.750			
0.7628	48816.21	3.3790	3.3790	-0.7160	25.57	0.65	-0.750			
0.7649	48952.08	3.3760	3.3760	-0.6954	25.58	0.66	-0.750			
0.7669	49083.01	3.3730	3.3730	-0.6710	25.59	0.67	-0.750			
0.7689	49210.94	3.3700	3.3700	-0.6510	25.60	0.68	-0.750			
0.7708	49333.70	3.3670	3.3669	-0.6267	25.61	0.69	-0.750			
0.7727	49451.17	3.3640	3.3641	-0.6051	25.61	0.69	-0.750			
0.7744	49564.36	3.3610	3.3610	-0.5858	25.62	0.70	-0.750			
0.7762	49674.80	3.3580	3.3579	-0.5663	25.62	0.70	-0.750			
0.7778	49780.67	3.3550	3.3550	-0.5500	25.62	0.70	-0.750			
0.7795	49885.21	3.3520	3.3519	-0.5331	25.63	0.71	-0.750			
0.7810	49986.75	3.3490	3.3491	-0.5177	25.63	0.71	-0.750			
0.7826	50085.13	3.3460	3.3460	-0.5021	25.64	0.72	-0.750			
0.7840	50178.96	3.3430	3.3431	-0.4855	25.64	0.72	-0.750			
0.7855	50270.64	3.3400	3.3399	-0.4715	25.65	0.73	-0.750			
0.7869	50359.19	3.3370	3.3370	-0.4571	25.65	0.73	-0.750			
0.7882	50444.88	3.3340	3.3340	-0.4427	25.66	0.74	-0.750			
0.7895	50528.62	3.3310	3.3310	-0.4323	25.67	0.75	-0.750			
0.7908	50610.63	3.3280	3.3280	-0.4204	25.67	0.75	-0.750			
0.7920	50690.17	3.3250	3.3249	-0.4095	25.68	0.76	-0.750			
0.7932	50767.47	3.3220	3.3220	-0.3993	25.68	0.76	-0.750			
0.7944	50843.90	3.3190	3.3189	-0.3873	25.69	0.77	-0.750			
0.7956	50917.48	3.3160	3.3160	-0.3764	25.69	0.77	-0.750			
0.7967	50988.31	3.3130	3.3132	-0.3651	25.70	0.78	-0.750			
0.7978	51056.81	3.3100	3.3100	-0.3526	25.71	0.79	-0.750			
0.7988	51123.21	3.3070	3.3069	-0.3441	25.71	0.79	-0.750			
0.7998	51187.06	3.3040	3.3040	-0.3346	25.72	0.80	-0.750			
0.8008	51250.54	3.3010	3.3011	-0.3294	25.72	0.80	-0.750			
0.8018	51313.56	3.2980	3.2979	-0.3224	25.72	0.80	-0.750			
0.8027	51374.38	3.2950	3.2950	-0.3171	25.73	0.81	-0.750			
0.8037	51434.94	3.2920	3.2921	-0.3123	25.73	0.81	-0.750			
0.8046	51494.83	3.2890	3.2889	-0.3060	25.74	0.82	-0.750			
0.8055	51552.15	3.2860	3.2860	-0.3002	25.74	0.82	-0.750			
0.8064	51609.34	3.2830	3.2831	-0.2949	25.75	0.83	-0.750			
0.8073	51665.47	3.2800	3.2800	-0.2887	25.75	0.83	-0.750			
0.8081	51720.43	3.2770	3.2769	-0.2851	25.76	0.84	-0.750			
0.8090	51773.92	3.2740	3.2742	-0.2790	25.76	0.84	-0.750			
0.8098	51827.61	3.2710	3.2710	-0.2749	25.76	0.84	-0.750			
0.8106	51880.31	3.2680	3.2680	-0.2720	25.77	0.85	-0.750			
0.8114	51931.80	3.2650	3.2650	-0.2662	25.77	0.85	-0.750			
0.8122	51982.13	3.2620	3.2620	-0.2604	25.78	0.86	-0.750			
0.8130	52032.48	3.2590	3.2589	-0.2568	25.78	0.86	-0.750			
0.8138	52080.69	3.2560	3.2560	-0.2516	25.79	0.87	-0.750			
0.8145	52128.51	3.2530	3.2531	-0.2488	25.79	0.87	-0.750			
0.8152	52175.69	3.2500	3.2500	-0.2456	25.79	0.87	-0.750			
0.8160	52222.75	3.2470	3.2468	-0.2418	25.80	0.88	-0.750			
0.8167	52268.33	3.2440	3.2441	-0.2390	25.80	0.88	-0.750			
0.8174	52314.06	3.2410	3.2411	-0.2376	25.81	0.89	-0.750			
0.8181	52359.65	3.2380	3.2381	-0.2356	25.81	0.89	-0.750			
0.8188	52404.50	3.2350	3.2349	-0.2330	25.81	0.89	-0.750			
0.8195	52448.88	3.2320	3.2321	-0.2303	25.82	0.90	-0.750			
0.8202	52493.27	3.2290	3.2290	-0.2266	25.82	0.90	-0.750			
0.8209	52536.81	3.2260	3.2261	-0.2242	25.83	0.91	-0.750			
0.8216	52579.63	3.2230	3.2230	-0.2220	25.83	0.91	-0.750			
0.8222	52621.44	3.2200	3.2200	-0.2179	25.84	0.92	-0.750			
0.8229	52662.85	3.2170	3.2169	-0.2146	25.84	0.92	-0.750			
0.8235	52703.59	3.2140	3.2140	-0.2124	25.85	0.93	-0.750			
0.8241	52744.16	3.2110	3.2111	-0.2107	25.85	0.93	-0.750			
0.8248	52784.46	3.2080	3.2080	-0.2091	25.86	0.94	-0.750			
0.8254	52824.96	3.2050	3.2049	-0.2064	25.87	0.95	-0.750			
0.8260	52864.11	3.2020	3.2019	-0.2034	25.87	0.95	-0.750			
0.8266	52902.94	3.1990	3.1991	-0.2009	25.88	0.96	-0.750			
0.8272	52941.15	3.1960	3.1960	-0.1992	25.88	0.96	-0.750			
0.8278	52979.42	3.1930	3.1929	-0.1968	25.89	0.97	-0.750			
0.8284	53016.70	3.1900	3.1900	-0.1938	25.90	0.98	-0.750			
0.8290	53053.62	3.1870	3.1870	-0.1915	25.90	0.98	-0.750			
0.8295	53090.10	3.1840	3.1841	-0.1904	25.91	0.99	-0.750			
0.8301	53126.61	3.1810	3.1810	-0.1897	25.91	0.99	-0.750			
0.8307	53162.90	3.1780	3.1779	-0.1873	25.92	1.00	-0.750			
0.8312	53198.70	3.1750	3.1750	-0.1857	25.92	1.00	-0.750			
0.8318	53234.09	3.1720	3.1719	-0.1841	25.93	1.01	-0.750			
0.8323	53269.70	3.1690	3.1691	-0.1826	25.93	1.01	-0.750			
0.8329	53304.73	3.1660	3.1658	-0.1805	25.94	1.02	-0.750			
0.8334	53339.11	3.1630	3.1630	-0.1776	25.94	1.02	-0.750			
0.8339	53372.52	3.1600	3.1600	-0.1761	25.95	1.03	-0.750			
0.8345	53405.87	3.1570	3.1570	-0.1746	25.95	1.03	-0.750			
0.8350	53439.38	3.1540	3.1540	-0.1739	25.96	1.04	-0.750			
0.8355	53472.81	3.1510	3.1510	-0.1720	25.97	1.05	-0.750			
0.8360	53505.60	3.1480	3.1481	-0.1702	25.97	1.05	-0.750			
0.8365	53538.41	3.1450	3.1451	-0.1690	25.98	1.06	-0.750			
0.8370	53570.66	3.1420	3.1420	-0.1670	25.98	1.06	-0.750			
0.8375	53602.69	3.1390	3.1389	-0.1654	25.99	1.07	-0.750			
0.8380	53633.93	3.1360	3.1360	-0.1630	25.99	1.07	-0.750			
0.8385	53665.01	3.1330	3.1330	-0.1613	26.00	1.08	-0.750			
0.8390	53695.85	3.1300	3.1300	-0.1599	26.00	1.08	-0.750			
0.8395	53726.54	3.1270	3.1271	-0.1588	26.01	1.09	-0.750			
0.8400	53756.84	3.1240	3.1239	-0.1570	26.01	1.09	-0.750			
0.8404	53786.82	3.1210	3.1210	-0.1556	26.02	1.10	-0.750			
0.8409	53816.55	3.1180	3.1181	-0.1541	26.03	1.11	-0.750			
0.8413	53845.80	3.1150	3.1150	-0.1536	26.03	1.11	-0.750			
0.8418	53875.35	3.1120	3.1119	-0.1523	26.04	1.12	-0.750			
0.8423	53904.47	3.1090	3.1090	-0.1512	26.04	1.12	-0.750			
0.8427	53933.40	3.1060	3.1059	-0.1501	26.05	1.13	-0.750			
0.8432	53962.19	3.1030	3.1031	-0.1487	26.05	1.13	-0.750			
0.8436	53990.83	3.1000	3.1001	-0.1475	26.06	1.14	-0.750			
0.8440	54019.03	3.0970	3.0969	-0.1458	26.06	1.14	-0.750			
0.8445	54046.66	3.0940	3.0940	-0.1449	26.07	1.15	-0.750			
0.8449	54074.02	3.0910	3.0910	-0.1437	26.07	1.15	-0.750			
0.8453	54101.89	3.0880	3.0879	-0.1429	26.08	1.16	-0.750			
0.8458	54129.21	3.0850	3.0850	-0.1417	26.08	1.16	-0.750			
0.8462	54156.40	3.0820	3.0820	-0.1400	26.08	1.16	-0.750			
0.8466	54183.04	3.0790	3.0791	-0.1395	26.09	1.17	-0.750			
0.8470	54209.72	3.0760	3.0761	-0.1383	26.10	1.18	-0.750			
0.8474	54236.08	3.0730	3.0729	-0.1376	26.10	1.18	-0.750			
0.8478	54262.16	3.0700	3.0699	-0.1361	26.11	1.19	-0.750			
0.8483	54288.23	3.0670	3.0670	-0.1354	26.11	1.19	-0.750			
0.8487	54314.18	3.0640	3.0641	-0.1349	26.12	1.20	-0.750			
0.8491	54340.36	3.0610	3.0610	-0.1339	26.12	1.20	-0.750			
0.8495	54366.05	3.0580	3.0579	-0.1331	26.13	1.21	-0.750			
0.8499	54391.19	3.0550	3.0550	-0.1313	26.13	1.21	-0.750			
0.8503	54416.33	3.0520	3.0520	-0.1305	26.14	1.22	-0.750			
0.8506	54441.39	3.0490	3.0490	-0.1291	26.14	1.22	-0.750			
0.8510	54466.12	3.0460	3.0460	-0.1282	26.15	1.23	-0.750			
0.8514	54490.54	3.0430	3.0431	-0.1269	26.16	1.24	-0.750			
0.8518	54514.81	3.0400	3.0400	-0.1259	26.16	1.24	-0.750			
0.8522	54538.78	3.0370	3.0369	-0.1252	26.17	1.25	-0.750			
0.8525	54562.57	3.0340	3.0340	-0.1242	26.17	1.25	-0.750			
0.8529	54586.24	3.0310	3.0311	-0.1238	26.18	1.26	-0.750			
0.8533	54610.01	3.0280	3.0279	-0.1238	26.18	1.26	-0.750			
0.8537	54634.09	3.0250	3.0249	-0.1228	26.19	1.27	-0.750			
0.8540	54657.62	3.0220	3.0220	-0.1220	26.19	1.27	-0.750			
0.8544	54681.07	3.0190	3.0191	-0.1205	26.20	1.28	-0.750			
0.8548	54704.41	3.0160	3.0160	-0.1194	26.20	1.28	-0.750			
0.8551	54727.13	3.0130	3.0130	-0.1178	26.21	1.29	-0.750			
0.8555	54749.66	3.0100	3.0100	-0.1161	26.21	1.29	-0.751			
0.8558	54771.77	3.0070	3.0069	-0.1142	26.22	1.30	-0.751			
0.8561	54793.30	3.0040	3.0040	-0.1134	26.22	1.30	-0.751			
0.8565	54814.99	3.0010	3.0010	-0.1125	26.22	1.30	-0.751			
