Ah_balance (normalized)	Ah_balance (mAh)	Voltage - fit (V)	Voltage -  interpolate (V)	dQ/dV (1/V)	Temperature (°C)	Temperature - diff (°C)	Current (C)	R_DC 0ms (mOhm)	R_DC 50ms (mOhm)	R_DC 50 ms PEC (mOhm)
0.0004	27.51	4.1600	4.1598	-0.1281	25.82	0.02	-0.750			
0.0009	57.76	4.1570	4.1569	-0.1728	25.82	0.02	-0.750			
0.0015	94.95	4.1540	4.1538	-0.2102	25.82	0.02	-0.750			
0.0022	138.53	4.1510	4.1509	-0.2484	25.82	0.02	-0.750			
0.0030	190.07	4.1480	4.1481	-0.2851	25.82	0.02	-0.750			
0.0039	249.12	4.1450	4.1449	-0.3209	25.81	0.01	-0.750			
0.0049	314.33	4.1420	4.1420	-0.3565	25.81	0.01	-0.750			
0.0060	386.12	4.1390	4.1390	-0.3883	25.81	0.01	-0.750			
0.0073	464.69	4.1360	4.1360	-0.4189	25.81	0.01	-0.750			
0.0086	549.00	4.1330	4.1329	-0.4469	25.80	0.00	-0.750			
0.0100	637.30	4.1300	4.1301	-0.4718	25.80	-0.00	-0.750			
0.0114	731.19	4.1270	4.1270	-0.4970	25.80	-0.00	-0.750			
0.0130	829.52	4.1240	4.1240	-0.5144	25.79	-0.01	-0.750			
0.0145	930.46	4.1210	4.1210	-0.5319	25.79	-0.01	-0.750			
0.0162	1034.28	4.1180	4.1181	-0.5521	25.78	-0.02	-0.750			
0.0179	1142.47	4.1150	4.1149	-0.5669	25.78	-0.02	-0.750			
0.0196	1253.00	4.1120	4.1119	-0.5827	25.78	-0.02	-0.750			
0.0214	1366.47	4.1090	4.1089	-0.5943	25.77	-0.03	-0.750			
0.0232	1482.80	4.1060	4.1060	-0.6062	25.77	-0.03	-0.750			
0.0250	1601.52	4.1030	4.1030	-0.6149	25.77	-0.03	-0.750			
0.0269	1719.87	4.1000	4.1000	-0.6226	25.76	-0.04	-0.750			
0.0287	1839.05	4.0970	4.0970	-0.6299	25.76	-0.04	-0.750			
0.0307	1963.14	4.0940	4.0941	-0.6389	25.76	-0.04	-0.750			
0.0326	2085.80	4.0910	4.0909	-0.6434	25.75	-0.05	-0.750			
0.0345	2210.28	4.0880	4.0882	-0.6500	25.75	-0.05	-0.750			
0.0365	2336.27	4.0850	4.0850	-0.6532	25.75	-0.05	-0.750			
0.0385	2461.31	4.0820	4.0819	-0.6573	25.75	-0.05	-0.750			
0.0404	2586.99	4.0790	4.0791	-0.6625	25.75	-0.05	-0.750			
0.0424	2715.91	4.0760	4.0760	-0.6685	25.75	-0.05	-0.750			
0.0444	2844.32	4.0730	4.0729	-0.6730	25.75	-0.05	-0.750			
0.0465	2974.32	4.0700	4.0701	-0.6751	25.75	-0.05	-0.750			
0.0485	3104.39	4.0670	4.0671	-0.6800	25.75	-0.05	-0.750			
0.0506	3235.82	4.0640	4.0639	-0.6871	25.75	-0.05	-0.750			
0.0526	3367.68	4.0610	4.0611	-0.6899	25.75	-0.05	-0.750			
0.0547	3499.97	4.0580	4.0580	-0.6917	25.75	-0.05	-0.750			
0.0568	3635.00	4.0550	4.0549	-0.6985	25.75	-0.05	-0.750			
0.0589	3768.79	4.0520	4.0520	-0.6999	25.75	-0.05	-0.750			
0.0610	3903.64	4.0490	4.0489	-0.7020	25.75	-0.05	-0.750			
0.0631	4037.64	4.0460	4.0460	-0.7012	25.75	-0.05	-0.750			
0.0652	4172.21	4.0430	4.0430	-0.7055	25.75	-0.05	-0.750			
0.0673	4309.13	4.0400	4.0400	-0.7077	25.75	-0.05	-0.750			
0.0695	4446.89	4.0370	4.0369	-0.7074	25.75	-0.05	-0.750			
0.0716	4582.33	4.0340	4.0342	-0.7040	25.75	-0.05	-0.750			
0.0737	4716.21	4.0310	4.0309	-0.7071	25.75	-0.05	-0.750			
0.0758	4851.83	4.0280	4.0279	-0.7098	25.75	-0.05	-0.750			
0.0779	4986.36	4.0250	4.0250	-0.7126	25.75	-0.05	-0.750			
0.0801	5123.76	4.0220	4.0220	-0.7168	25.75	-0.05	-0.750			
0.0823	5265.96	4.0190	4.0190	-0.7245	25.75	-0.05	-0.750			
0.0845	5406.50	4.0160	4.0162	-0.7202	25.75	-0.05	-0.750			
0.0866	5544.76	4.0130	4.0129	-0.7215	25.75	-0.05	-0.750			
0.0888	5681.89	4.0100	4.0101	-0.7196	25.76	-0.04	-0.750			
0.0909	5818.76	4.0070	4.0069	-0.7232	25.76	-0.04	-0.750			
0.0931	5957.87	4.0040	4.0040	-0.7296	25.76	-0.04	-0.750			
0.0953	6097.70	4.0010	4.0010	-0.7352	25.77	-0.03	-0.750			
0.0975	6241.75	3.9980	3.9981	-0.7409	25.77	-0.03	-0.750			
0.0998	6384.62	3.9950	3.9949	-0.7426	25.77	-0.03	-0.750			
0.1020	6526.59	3.9920	3.9920	-0.7445	25.77	-0.03	-0.750			
0.1042	6670.41	3.9890	3.9890	-0.7445	25.78	-0.02	-0.750			
0.1065	6814.47	3.9860	3.9859	-0.7440	25.78	-0.02	-0.750			
0.1087	6956.19	3.9830	3.9828	-0.7421	25.78	-0.02	-0.750			
0.1109	7097.84	3.9800	3.9799	-0.7424	25.78	-0.02	-0.750			
0.1131	7240.82	3.9770	3.9769	-0.7435	25.78	-0.02	-0.750			
0.1153	7381.77	3.9740	3.9740	-0.7492	25.78	-0.02	-0.750			
0.1176	7526.01	3.9710	3.9711	-0.7464	25.79	-0.01	-0.750			
0.1199	7672.74	3.9680	3.9679	-0.7598	25.79	-0.01	-0.750			
0.1222	7819.58	3.9650	3.9653	-0.7611	25.79	-0.01	-0.750			
0.1244	7964.31	3.9620	3.9619	-0.7626	25.79	-0.01	-0.750			
0.1267	8111.27	3.9590	3.9590	-0.7649	25.80	-0.00	-0.750			
0.1290	8257.91	3.9560	3.9560	-0.7676	25.80	0.00	-0.750			
0.1313	8405.86	3.9530	3.9530	-0.7759	25.80	0.00	-0.750			
0.1337	8556.12	3.9500	3.9499	-0.7784	25.81	0.01	-0.750			
0.1360	8705.05	3.9470	3.9470	-0.7740	25.81	0.01	-0.750			
0.1383	8854.05	3.9440	3.9441	-0.7795	25.81	0.01	-0.750			
0.1407	9004.34	3.9410	3.9410	-0.7752	25.81	0.01	-0.750			
0.1430	9152.15	3.9380	3.9380	-0.7736	25.82	0.02	-0.750			
0.1453	9301.90	3.9350	3.9349	-0.7745	25.82	0.02	-0.750			
0.1477	9450.34	3.9320	3.9322	-0.7702	25.82	0.02	-0.750			
0.1500	9599.08	3.9290	3.9289	-0.7702	25.82	0.02	-0.750			
0.1523	9746.83	3.9260	3.9261	-0.7775	25.82	0.02	-0.750			
0.1546	9894.15	3.9230	3.9229	-0.7725	25.83	0.03	-0.750			
0.1569	10044.56	3.9200	3.9199	-0.7804	25.83	0.03	-0.750			
0.1593	10194.00	3.9170	3.9171	-0.7792	25.83	0.03	-0.750			
0.1616	10343.99	3.9140	3.9140	-0.7868	25.83	0.03	-0.750			
0.1640	10496.70	3.9110	3.9110	-0.7923	25.84	0.04	-0.750			
0.1664	10648.50	3.9080	3.9079	-0.7909	25.84	0.04	-0.750			
0.1688	10801.50	3.9050	3.9050	-0.7958	25.84	0.04	-0.750			
0.1712	10954.47	3.9020	3.9021	-0.7988	25.85	0.05	-0.750			
0.1736	11107.94	3.8990	3.8989	-0.8004	25.85	0.05	-0.750			
0.1759	11260.42	3.8960	3.8960	-0.8067	25.86	0.06	-0.750			
0.1784	11415.93	3.8930	3.8929	-0.8029	25.86	0.06	-0.750			
0.1808	11570.42	3.8900	3.8900	-0.8034	25.86	0.06	-0.750			
0.1832	11726.71	3.8870	3.8869	-0.8067	25.87	0.07	-0.750			
0.1856	11880.14	3.8840	3.8839	-0.8056	25.87	0.07	-0.750			
0.1880	12032.66	3.8810	3.8810	-0.8088	25.88	0.08	-0.750			
0.1905	12189.88	3.8780	3.8780	-0.8080	25.88	0.08	-0.750			
0.1929	12344.93	3.8750	3.8750	-0.8059	25.88	0.08	-0.750			
0.1953	12502.30	3.8720	3.8720	-0.8103	25.89	0.09	-0.750			
0.1978	12657.40	3.8690	3.8691	-0.8077	25.89	0.09	-0.750			
0.2002	12810.47	3.8660	3.8660	-0.8095	25.89	0.09	-0.750			
0.2026	12964.63	3.8630	3.8630	-0.8069	25.89	0.09	-0.750			
0.2050	13119.30	3.8600	3.8600	-0.8090	25.90	0.10	-0.750			
0.2075	13277.97	3.8570	3.8569	-0.8173	25.90	0.10	-0.750			
0.2099	13435.21	3.8540	3.8541	-0.8194	25.90	0.10	-0.750			
0.2124	13592.94	3.8510	3.8510	-0.8179	25.90	0.10	-0.750			
0.2148	13749.62	3.8480	3.8480	-0.8262	25.90	0.10	-0.750			
0.2174	13910.67	3.8450	3.8449	-0.8187	25.91	0.11	-0.750			
0.2198	14069.00	3.8420	3.8419	-0.8164	25.91	0.11	-0.750			
0.2223	14224.08	3.8390	3.8394	-0.8128	25.91	0.11	-0.750			
0.2247	14380.74	3.8360	3.8359	-0.8076	25.91	0.11	-0.750			
0.2271	14533.81	3.8330	3.8329	-0.8059	25.92	0.12	-0.750			
0.2295	14686.48	3.8300	3.8301	-0.7996	25.92	0.12	-0.750			
0.2319	14840.87	3.8270	3.8270	-0.8065	25.93	0.13	-0.750			
0.2343	14996.47	3.8240	3.8241	-0.8088	25.93	0.13	-0.750			
0.2367	15149.94	3.8210	3.8209	-0.8101	25.94	0.14	-0.750			
0.2391	15305.47	3.8180	3.8180	-0.8147	25.94	0.14	-0.750			
0.2416	15464.57	3.8150	3.8150	-0.8161	25.95	0.15	-0.750			
0.2441	15621.28	3.8120	3.8119	-0.8120	25.95	0.15	-0.750			
0.2466	15780.97	3.8090	3.8091	-0.8078	25.96	0.16	-0.750			
0.2490	15933.97	3.8060	3.8060	-0.8013	25.96	0.16	-0.750			
0.2514	16086.48	3.8030	3.8030	-0.7951	25.96	0.16	-0.750			
0.2537	16237.57	3.8000	3.8000	-0.7895	25.97	0.17	-0.750			
0.2561	16387.25	3.7970	3.7970	-0.7830	25.97	0.17	-0.750			
0.2584	16539.26	3.7940	3.7940	-0.7822	25.97	0.17	-0.750			
0.2607	16687.92	3.7910	3.7911	-0.7791	25.97	0.17	-0.750			
0.2631	16837.50	3.7880	3.7880	-0.7794	25.98	0.18	-0.750			
0.2654	16985.86	3.7850	3.7849	-0.7722	25.98	0.18	-0.750			
0.2677	17134.29	3.7820	3.7820	-0.7708	25.98	0.18	-0.750			
0.2701	17283.33	3.7790	3.7791	-0.7659	25.99	0.19	-0.750			
0.2724	17430.42	3.7760	3.7761	-0.7659	25.99	0.19	-0.750			
0.2746	17576.36	3.7730	3.7730	-0.7625	25.99	0.19	-0.750			
0.2769	17720.68	3.7700	3.7700	-0.7564	26.00	0.20	-0.750			
0.2792	17866.28	3.7670	3.7670	-0.7555	26.00	0.20	-0.750			
0.2814	18012.32	3.7640	3.7640	-0.7542	26.01	0.21	-0.750			
0.2837	18156.08	3.7610	3.7609	-0.7527	26.01	0.21	-0.750			
0.2860	18301.57	3.7580	3.7580	-0.7530	26.01	0.21	-0.750			
0.2882	18443.02	3.7550	3.7550	-0.7601	26.02	0.22	-0.750			
0.2905	18589.63	3.7520	3.7520	-0.7612	26.02	0.22	-0.750			
0.2927	18735.99	3.7490	3.7489	-0.7656	26.02	0.22	-0.750			
0.2951	18884.88	3.7460	3.7460	-0.7745	26.03	0.23	-0.750			
0.2974	19035.21	3.7430	3.7434	-0.7802	26.03	0.23	-0.750			
0.2998	19184.86	3.7400	3.7399	-0.7855	26.03	0.23	-0.750			
0.3022	19338.22	3.7370	3.7370	-0.7796	26.03	0.23	-0.750			
0.3045	19486.21	3.7340	3.7340	-0.7762	26.03	0.23	-0.750			
0.3068	19634.11	3.7310	3.7311	-0.7912	26.03	0.23	-0.750			
0.3091	19784.28	3.7280	3.7279	-0.7940	26.03	0.23	-0.750			
0.3115	19935.69	3.7250	3.7248	-0.8115	26.03	0.23	-0.750			
0.3140	20092.95	3.7220	3.7221	-0.8323	26.03	0.23	-0.750			
0.3165	20253.95	3.7190	3.7191	-0.8569	26.03	0.23	-0.750			
0.3191	20423.97	3.7160	3.7159	-0.8736	26.03	0.23	-0.750			
0.3218	20594.84	3.7130	3.7131	-0.8926	26.03	0.23	-0.750			
0.3245	20766.12	3.7100	3.7100	-0.9121	26.03	0.23	-0.750			
0.3273	20946.05	3.7070	3.7070	-0.9272	26.03	0.23	-0.750			
0.3301	21124.69	3.7040	3.7039	-0.9362	26.03	0.23	-0.750			
0.3329	21305.00	3.7010	3.7010	-0.9487	26.03	0.23	-0.750			
0.3358	21488.52	3.6980	3.6980	-0.9608	26.03	0.23	-0.750			
0.3387	21675.14	3.6950	3.6949	-0.9875	26.03	0.23	-0.750			
0.3416	21865.49	3.6920	3.6919	-1.0018	26.03	0.23	-0.750			
0.3447	22059.57	3.6890	3.6889	-1.0169	26.03	0.23	-0.750			
0.3478	22257.78	3.6860	3.6862	-1.0473	26.03	0.23	-0.750			
0.3509	22460.39	3.6830	3.6830	-1.0691	26.02	0.22	-0.750			
0.3542	22668.23	3.6800	3.6799	-1.0856	26.02	0.22	-0.750			
0.3574	22876.26	3.6770	3.6770	-1.0963	26.01	0.21	-0.750			
0.3608	23091.67	3.6740	3.6741	-1.1327	26.01	0.21	-0.750			
0.3643	23313.17	3.6710	3.6711	-1.1555	26.00	0.20	-0.750			
0.3678	23537.98	3.6680	3.6679	-1.1708	26.00	0.20	-0.750			
0.3713	23760.92	3.6650	3.6650	-1.1876	25.99	0.19	-0.750			
0.3749	23992.60	3.6620	3.6620	-1.2123	25.99	0.19	-0.750			
0.3785	24227.07	3.6590	3.6590	-1.2410	25.98	0.18	-0.750			
0.3822	24463.01	3.6560	3.6559	-1.2759	25.97	0.17	-0.750			
0.3861	24711.17	3.6530	3.6530	-1.2994	25.97	0.17	-0.750			
0.3901	24968.22	3.6500	3.6499	-1.3337	25.96	0.16	-0.750			
0.3942	25227.87	3.6470	3.6470	-1.3599	25.95	0.15	-0.750			
0.3983	25492.60	3.6440	3.6441	-1.3808	25.95	0.15	-0.750			
0.4025	25760.83	3.6410	3.6410	-1.4051	25.94	0.14	-0.750			
0.4067	26026.78	3.6380	3.6380	-1.4335	25.93	0.13	-0.750			
0.4110	26303.47	3.6350	3.6350	-1.4575	25.93	0.13	-0.750			
0.4155	26590.32	3.6320	3.6320	-1.4948	25.93	0.13	-0.750			
0.4200	26881.11	3.6290	3.6291	-1.5320	25.93	0.13	-0.750			
0.4247	27179.43	3.6260	3.6257	-1.5567	25.92	0.12	-0.750			
0.4294	27480.67	3.6230	3.6229	-1.5938	25.91	0.11	-0.750			
0.4342	27789.79	3.6200	3.6203	-1.6156	25.90	0.10	-0.750			
0.4391	28099.87	3.6170	3.6173	-1.6605	25.90	0.10	-0.750	0.416	0.549	
0.4441	28422.57	3.6140	3.6140	-1.6738	25.89	0.09	-0.750			
0.4492	28748.52	3.6110	3.6109	-1.7090	25.89	0.09	-0.750			
0.4544	29080.15	3.6080	3.6081	-1.7531	25.88	0.08	-0.750			
0.4597	29422.31	3.6050	3.6051	-1.7827	25.87	0.07	-0.750			
0.4651	29764.48	3.6020	3.6021	-1.8186	25.86	0.06	-0.750			
0.4706	30118.50	3.5990	3.5991	-1.8603	25.85	0.05	-0.750			
0.4762	30477.01	3.5960	3.5960	-1.8922	25.85	0.05	-0.750			
0.4819	30844.30	3.5930	3.5928	-1.9455	25.85	0.05	-0.750			
0.4879	31223.24	3.5900	3.5900	-1.9563	25.84	0.04	-0.750			
0.4938	31602.59	3.5870	3.5872	-1.9888	25.83	0.03	-0.750			
0.4998	31988.89	3.5840	3.5841	-2.0338	25.82	0.02	-0.750			
0.5060	32381.97	3.5810	3.5808	-2.0710	25.82	0.02	-0.750			
0.5123	32784.91	3.5780	3.5782	-2.0972	25.82	0.02	-0.750			
0.5187	33197.65	3.5750	3.5750	-2.1353	25.81	0.01	-0.750			
0.5251	33608.76	3.5720	3.5720	-2.1568	25.81	0.01	-0.750			
0.5318	34034.74	3.5690	3.5689	-2.1702	25.81	0.01	-0.750			
0.5383	34454.08	3.5660	3.5660	-2.1759	25.81	0.01	-0.750			
0.5448	34864.68	3.5630	3.5629	-2.1762	25.81	0.01	-0.750			
0.5513	35282.71	3.5600	3.5601	-2.1765	25.81	0.01	-0.750			
0.5579	35703.28	3.5570	3.5570	-2.1866	25.81	0.01	-0.750			
0.5643	36115.32	3.5540	3.5538	-2.1960	25.80	0.00	-0.750			
0.5710	36543.60	3.5510	3.5510	-2.2066	25.79	-0.01	-0.750			
0.5778	36976.90	3.5480	3.5481	-2.2092	25.79	-0.01	-0.750			
0.5843	37397.89	3.5450	3.5450	-2.1949	25.80	-0.00	-0.750			
0.5909	37819.18	3.5420	3.5419	-2.1628	25.80	0.00	-0.750			
0.5975	38238.95	3.5390	3.5390	-2.1465	25.80	0.00	-0.750			
0.6039	38647.79	3.5360	3.5360	-2.1249	25.81	0.01	-0.750			
0.6102	39051.21	3.5330	3.5330	-2.0619	25.81	0.01	-0.750			
0.6164	39446.96	3.5300	3.5300	-2.0056	25.81	0.01	-0.750			
0.6223	39828.86	3.5270	3.5270	-1.9740	25.81	0.01	-0.750			
0.6281	40196.55	3.5240	3.5238	-1.9297	25.81	0.01	-0.750			
0.6338	40562.95	3.5210	3.5206	-1.9060	25.82	0.02	-0.750			
0.6395	40926.29	3.5180	3.5181	-1.8733	25.83	0.03	-0.750			
0.6451	41285.54	3.5150	3.5151	-1.8339	25.85	0.05	-0.750			
0.6507	41644.40	3.5120	3.5119	-1.7930	25.86	0.06	-0.750			
0.6561	41989.66	3.5090	3.5092	-1.7527	25.86	0.06	-0.750			
0.6611	42309.96	3.5060	3.5060	-1.6851	25.87	0.07	-0.750			
0.6661	42628.54	3.5030	3.5030	-1.6265	25.88	0.08	-0.750			
0.6709	42935.55	3.5000	3.5003	-1.5755	25.89	0.09	-0.750			
0.6756	43236.40	3.4970	3.4969	-1.5298	25.90	0.10	-0.750			
0.6801	43527.14	3.4940	3.4939	-1.4865	25.92	0.12	-0.750			
0.6845	43807.57	3.4910	3.4910	-1.4353	25.93	0.13	-0.750			
0.6887	44076.25	3.4880	3.4880	-1.3758	25.94	0.14	-0.750			
0.6927	44335.81	3.4850	3.4850	-1.3313	25.96	0.16	-0.750			
0.6967	44588.56	3.4820	3.4822	-1.2970	25.97	0.17	-0.750			
0.7005	44831.86	3.4790	3.4788	-1.2495	25.99	0.19	-0.750			
0.7042	45066.65	3.4760	3.4759	-1.2107	26.00	0.20	-0.750			
0.7077	45295.17	3.4730	3.4731	-1.1718	26.02	0.22	-0.750			
0.7112	45515.98	3.4700	3.4700	-1.1427	26.04	0.24	-0.750			
0.7146	45736.47	3.4670	3.4669	-1.1106	26.05	0.25	-0.750			
0.7179	45944.58	3.4640	3.4640	-1.0696	26.06	0.26	-0.750			
0.7210	46145.11	3.4610	3.4611	-1.0342	26.08	0.28	-0.750			
0.7241	46340.90	3.4580	3.4580	-1.0092	26.09	0.29	-0.750			
0.7270	46530.74	3.4550	3.4550	-0.9708	26.10	0.30	-0.750			
0.7299	46713.66	3.4520	3.4519	-0.9403	26.11	0.31	-0.750			
0.7326	46888.95	3.4490	3.4490	-0.9085	26.12	0.32	-0.750			
0.7353	47062.32	3.4460	3.4460	-0.8915	26.13	0.33	-0.750			
0.7379	47228.57	3.4430	3.4430	-0.8804	26.14	0.34	-0.750			
0.7405	47393.47	3.4400	3.4400	-0.8669	26.15	0.35	-0.750			
0.7431	47556.88	3.4370	3.4369	-0.8633	26.16	0.36	-0.750			
0.7457	47725.85	3.4340	3.4341	-0.8743	26.17	0.37	-0.750			
0.7483	47891.75	3.4310	3.4310	-0.8806	26.17	0.37	-0.750			
0.7510	48061.30	3.4280	3.4280	-0.8966	26.18	0.38	-0.750			
0.7536	48232.99	3.4250	3.4250	-0.9086	26.19	0.39	-0.750			
0.7564	48408.84	3.4220	3.4219	-0.9206	26.20	0.40	-0.750			
0.7592	48590.24	3.4190	3.4191	-0.9371	26.21	0.41	-0.750			
0.7621	48771.40	3.4160	3.4160	-0.9491	26.22	0.42	-0.750			
0.7649	48956.12	3.4130	3.4129	-0.9537	26.23	0.43	-0.750			
0.7678	49140.56	3.4100	3.4100	-0.9512	26.24	0.44	-0.750			
0.7707	49324.49	3.4070	3.4070	-0.9422	26.25	0.45	-0.750			
0.7736	49507.27	3.4040	3.4040	-0.9354	26.25	0.45	-0.750			
0.7764	49687.60	3.4010	3.4010	-0.9141	26.26	0.46	-0.750			
0.7791	49861.94	3.3980	3.3980	-0.8910	26.27	0.47	-0.750			
0.7817	50029.52	3.3950	3.3950	-0.8627	26.27	0.47	-0.750			
0.7843	50193.96	3.3920	3.3919	-0.8353	26.28	0.48	-0.750			
0.7867	50351.64	3.3890	3.3890	-0.8072	26.29	0.49	-0.750			
0.7891	50502.90	3.3860	3.3860	-0.7789	26.29	0.49	-0.750			
0.7914	50650.39	3.3830	3.3830	-0.7466	26.30	0.50	-0.750			
0.7936	50791.34	3.3800	3.3800	-0.7215	26.31	0.51	-0.750			
0.7957	50925.74	3.3770	3.3770	-0.6941	26.32	0.52	-0.750			
0.7978	51056.43	3.3740	3.3741	-0.6690	26.32	0.52	-0.750			
0.7997	51181.77	3.3710	3.3709	-0.6477	26.33	0.53	-0.750			
0.8016	51303.65	3.3680	3.3680	-0.6240	26.33	0.53	-0.750			
0.8034	51420.61	3.3650	3.3651	-0.6047	26.34	0.54	-0.750			
0.8052	51535.89	3.3620	3.3620	-0.5867	26.35	0.55	-0.750			
0.8070	51646.36	3.3590	3.3590	-0.5644	26.35	0.55	-0.750			
0.8087	51753.75	3.3560	3.3559	-0.5434	26.36	0.56	-0.750			
0.8102	51855.67	3.3530	3.3531	-0.5224	26.36	0.56	-0.750			
0.8118	51953.10	3.3500	3.3500	-0.5014	26.37	0.57	-0.750			
0.8132	52047.27	3.3470	3.3470	-0.4842	26.38	0.58	-0.750			
0.8146	52136.79	3.3440	3.3440	-0.4677	26.38	0.58	-0.750			
0.8160	52225.44	3.3410	3.3410	-0.4542	26.39	0.59	-0.750			
0.8174	52311.19	3.3380	3.3379	-0.4418	26.40	0.60	-0.750			
0.8187	52395.54	3.3350	3.3350	-0.4279	26.40	0.60	-0.750			
0.8199	52476.45	3.3320	3.3321	-0.4139	26.41	0.61	-0.750			
0.8212	52554.79	3.3290	3.3288	-0.3993	26.42	0.62	-0.750			
0.8223	52629.31	3.3260	3.3261	-0.3846	26.42	0.62	-0.750			
0.8235	52701.48	3.3230	3.3230	-0.3724	26.43	0.63	-0.750			
0.8246	52771.74	3.3200	3.3200	-0.3615	26.43	0.63	-0.750			
0.8256	52838.77	3.3170	3.3169	-0.3498	26.44	0.64	-0.750			
0.8267	52906.18	3.3140	3.3140	-0.3422	26.44	0.64	-0.750			
0.8277	52970.74	3.3110	3.3109	-0.3324	26.45	0.65	-0.750			
0.8287	53033.72	3.3080	3.3081	-0.3256	26.45	0.65	-0.750			
0.8296	53095.75	3.3050	3.3049	-0.3164	26.46	0.66	-0.750			
0.8306	53155.45	3.3020	3.3019	-0.3085	26.46	0.66	-0.750			
0.8315	53214.04	3.2990	3.2991	-0.3007	26.47	0.67	-0.750			
0.8323	53270.36	3.2960	3.2960	-0.2931	26.47	0.67	-0.750			
0.8332	53326.10	3.2930	3.2931	-0.2873	26.47	0.67	-0.750			
0.8341	53379.99	3.2900	3.2899	-0.2800	26.48	0.68	-0.750			
0.8349	53432.73	3.2870	3.2870	-0.2738	26.48	0.68	-0.750			
0.8357	53485.65	3.2840	3.2841	-0.2694	26.49	0.69	-0.750			
0.8365	53536.53	3.2810	3.2810	-0.2626	26.49	0.69	-0.750			
0.8373	53586.91	3.2780	3.2780	-0.2574	26.50	0.70	-0.750			
0.8381	53635.56	3.2750	3.2750	-0.2523	26.50	0.70	-0.750			
0.8388	53683.06	3.2720	3.2721	-0.2465	26.51	0.71	-0.750			
0.8395	53729.73	3.2690	3.2689	-0.2418	26.51	0.71	-0.750			
0.8402	53775.63	3.2660	3.2660	-0.2374	26.52	0.72	-0.750			
0.8409	53820.67	3.2630	3.2631	-0.2337	26.52	0.72	-0.750			
0.8416	53865.21	3.2600	3.2600	-0.2304	26.53	0.73	-0.750			
0.8423	53909.08	3.2570	3.2569	-0.2268	26.53	0.73	-0.750			
0.8430	53952.31	3.2540	3.2540	-0.2232	26.53	0.73	-0.750			
0.8437	53994.51	3.2510	3.2510	-0.2201	26.54	0.74	-0.750			
0.8443	54036.51	3.2480	3.2480	-0.2177	26.54	0.74	-0.750			
0.8450	54078.07	3.2450	3.2451	-0.2151	26.55	0.75	-0.750			
0.8456	54119.24	3.2420	3.2419	-0.2111	26.55	0.75	-0.750			
0.8462	54159.53	3.2390	3.2390	-0.2076	26.56	0.76	-0.750			
0.8469	54199.00	3.2360	3.2361	-0.2048	26.56	0.76	-0.750			
0.8475	54237.99	3.2330	3.2329	-0.2014	26.56	0.76	-0.750			
0.8481	54276.36	3.2300	3.2299	-0.1982	26.57	0.77	-0.750			
0.8487	54313.73	3.2270	3.2269	-0.1948	26.58	0.78	-0.750			
0.8492	54350.67	3.2240	3.2240	-0.1921	26.58	0.78	-0.750			
0.8498	54387.36	3.2210	3.2211	-0.1901	26.59	0.79	-0.750			
0.8504	54423.81	3.2180	3.2180	-0.1883	26.59	0.79	-0.750			
0.8509	54459.72	3.2150	3.2149	-0.1858	26.60	0.80	-0.750			
0.8515	54495.11	3.2120	3.2121	-0.1833	26.60	0.80	-0.750			
0.8520	54530.10	3.2090	3.2089	-0.1812	26.61	0.81	-0.750			
0.8526	54564.87	3.2060	3.2060	-0.1791	26.61	0.81	-0.750			
0.8531	54598.85	3.2030	3.2030	-0.1773	26.62	0.82	-0.750			
0.8536	54632.60	3.2000	3.1999	-0.1751	26.62	0.82	-0.750			
0.8542	54666.07	3.1970	3.1971	-0.1735	26.63	0.83	-0.750			
0.8547	54699.22	3.1940	3.1939	-0.1713	26.63	0.83	-0.750			
0.8552	54731.82	3.1910	3.1911	-0.1703	26.64	0.84	-0.750			
0.8557	54764.44	3.1880	3.1880	-0.1688	26.64	0.84	-0.750			
0.8562	54796.70	3.1850	3.1850	-0.1673	26.65	0.85	-0.750			
0.8567	54828.87	3.1820	3.1819	-0.1650	26.65	0.85	-0.750			
0.8572	54860.20	3.1790	3.1790	-0.1630	26.66	0.86	-0.750			
0.8577	54891.30	3.1760	3.1761	-0.1612	26.66	0.86	-0.750			
0.8582	54922.24	3.1730	3.1730	-0.1594	26.66	0.86	-0.750			
0.8586	54952.74	3.1700	3.1700	-0.1573	26.67	0.87	-0.750			
0.8591	54982.40	3.1670	3.1670	-0.1550	26.67	0.87	-0.750			
0.8596	55011.95	3.1640	3.1641	-0.1541	26.67	0.87	-0.750			
0.8600	55041.29	3.1610	3.1611	-0.1534	26.68	0.88	-0.750			
0.8605	55070.65	3.1580	3.1578	-0.1527	26.68	0.88	-0.750			
0.8609	55099.56	3.1550	3.1550	-0.1518	26.69	0.89	-0.750			
0.8614	55129.08	3.1520	3.1520	-0.1505	26.69	0.89	-0.750			
0.8618	55158.16	3.1490	3.1489	-0.1498	26.70	0.90	-0.750			
0.8623	55186.74	3.1460	3.1461	-0.1479	26.70	0.90	-0.750			
0.8627	55215.13	3.1430	3.1431	-0.1466	26.71	0.91	-0.750			
0.8632	55243.02	3.1400	3.1400	-0.1444	26.72	0.92	-0.750			
0.8636	55270.27	3.1370	3.1369	-0.1424	26.72	0.92	-0.750			
0.8640	55297.49	3.1340	3.1341	-0.1412	26.73	0.93	-0.750			
0.8644	55324.39	3.1310	3.1311	-0.1397	26.73	0.93	-0.750			
0.8649	55351.29	3.1280	3.1279	-0.1390	26.74	0.94	-0.750			
0.8653	55377.69	3.1250	3.1250	-0.1374	26.74	0.94	-0.750			
0.8657	55403.98	3.1220	3.1221	-0.1363	26.75	0.95	-0.750			
0.8661	55429.85	3.1190	3.1190	-0.1358	26.75	0.95	-0.750			
0.8665	55455.90	3.1160	3.1159	-0.1353	26.76	0.96	-0.750			
0.8669	55481.66	3.1130	3.1130	-0.1344	26.76	0.96	-0.750			
0.8673	55507.54	3.1100	3.1100	-0.1337	26.77	0.97	-0.750			
0.8677	55533.39	3.1070	3.1070	-0.1327	26.77	0.97	-0.750			
0.8681	55558.88	3.1040	3.1041	-0.1316	26.78	0.98	-0.750			
0.8685	55584.00	3.1010	3.1009	-0.1300	26.78	0.98	-0.750			
0.8689	55608.85	3.0980	3.0980	-0.1290	26.79	0.99	-0.750			
0.8693	55633.26	3.0950	3.0950	-0.1274	26.80	1.00	-0.750			
0.8696	55657.39	3.0920	3.0920	-0.1267	26.80	1.00	-0.750			
0.8700	55681.83	3.0890	3.0891	-0.1260	26.81	1.01	-0.750			
0.8704	55705.93	3.0860	3.0860	-0.1253	26.81	1.01	-0.750			
0.8708	55730.03	3.0830	3.0829	-0.1247	26.82	1.02	-0.750			
0.8712	55753.90	3.0800	3.0801	-0.1239	26.83	1.03	-0.750			
0.8715	55777.75	3.0770	3.0770	-0.1231	26.83	1.03	-0.750			
0.8719	55801.32	3.0740	3.0740	-0.1221	26.84	1.04	-0.750			
0.8723	55824.65	3.0710	3.0709	-0.1210	26.84	1.04	-0.750			
0.8726	55847.54	3.0680	3.0680	-0.1201	26.85	1.05	-0.750			
0.8730	55870.55	3.0650	3.0651	-0.1196	26.86	1.06	-0.750			
0.8733	55893.48	3.0620	3.0621	-0.1190	26.86	1.06	-0.750			
0.8737	55916.28	3.0590	3.0587	-0.1184	26.87	1.07	-0.750			
0.8740	55938.94	3.0560	3.0560	-0.1176	26.87	1.07	-0.750			
0.8744	55961.46	3.0530	3.0530	-0.1170	26.88	1.08	-0.750			
0.8747	55984.00	3.0500	3.0500	-0.1163	26.88	1.08	-0.750			
0.8751	56006.23	3.0470	3.0470	-0.1153	26.89	1.09	-0.750			
0.8754	56028.22	3.0440	3.0441	-0.1146	26.89	1.09	-0.750			
0.8758	56050.14	3.0410	3.0408	-0.1138	26.90	1.10	-0.750			
0.8761	56071.79	3.0380	3.0380	-0.1132	26.90	1.10	-0.750			
0.8765	56093.49	3.0350	3.0350	-0.1128	26.91	1.11	-0.750			
0.8768	56115.12	3.0320	3.0320	-0.1121	26.91	1.11	-0.750			
0.8771	56136.58	3.0290	3.0290	-0.1115	26.92	1.12	-0.750			
0.8775	56158.03	3.0260	3.0260	-0.1108	26.92	1.12	-0.750			
0.8778	56179.12	3.0230	3.0230	-0.1102	26.93	1.13	-0.750			
0.8781	56200.20	3.0200	3.0200	-0.1095	26.93	1.13	-0.750			
0.8785	56221.16	3.0170	3.0171	-0.1089	26.94	1.14	-0.750			
0.8788	56241.95	3.0140	3.0140	-0.1079	26.94	1.14	-0.750			
0.8791	56262.61	3.0110	3.0110	-0.1073	26.95	1.15	-0.750			
0.8794	56283.23	3.0080	3.0080	-0.1066	26.95	1.15	-0.751			
0.8797	56303.61	3.0050	3.0051	-0.1057	26.96	1.16	-0.751			
0.8801	56323.74	3.0020	3.0020	-0.1027	26.96	1.16	-0.751			
