Ah_balance (normalized)	Ah_balance (mAh)	Voltage - fit (V)	Voltage -  interpolate (V)	dQ/dV (1/V)	Temperature (°C)	Temperature - diff (°C)	Current (C)	R_DC 0ms (mOhm)	R_DC 50ms (mOhm)	R_DC 50 ms PEC (mOhm)
0.0548	3505.23	4.1980	4.1980	0.7222	26.66	0.71	0.750			
0.0570	3646.15	4.1950	4.1948	0.7429	26.66	0.71	0.750			
0.0593	3792.40	4.1920	4.1920	0.7571	26.66	0.71	0.750			
0.0616	3940.52	4.1890	4.1890	0.7573	26.66	0.71	0.750			
0.0638	4085.70	4.1860	4.1860	0.7567	26.66	0.71	0.750			
0.0661	4231.70	4.1830	4.1830	0.7596	26.66	0.71	0.750			
0.0684	4376.28	4.1800	4.1801	0.7554	26.66	0.71	0.750			
0.0706	4519.30	4.1770	4.1769	0.7555	26.66	0.71	0.750			
0.0729	4663.99	4.1740	4.1740	0.7576	26.66	0.71	0.750			
0.0752	4810.94	4.1710	4.1710	0.7579	26.66	0.71	0.750			
0.0774	4956.20	4.1680	4.1680	0.7588	26.66	0.71	0.750			
0.0797	5102.91	4.1650	4.1651	0.7573	26.66	0.71	0.750			
0.0820	5248.18	4.1620	4.1618	0.7572	26.66	0.71	0.750			
0.0843	5392.47	4.1590	4.1590	0.7616	26.66	0.71	0.750			
0.0865	5538.98	4.1560	4.1560	0.7621	26.66	0.71	0.750			
0.0888	5685.66	4.1530	4.1529	0.7655	26.66	0.71	0.750			
0.0911	5833.30	4.1500	4.1501	0.7697	26.66	0.71	0.750			
0.0934	5980.68	4.1470	4.1470	0.7698	26.66	0.71	0.750			
0.0958	6129.39	4.1440	4.1439	0.7713	26.66	0.71	0.750			
0.0981	6276.80	4.1410	4.1410	0.7719	26.65	0.70	0.750			
0.1004	6424.71	4.1380	4.1380	0.7696	26.65	0.70	0.750			
0.1027	6573.85	4.1350	4.1350	0.7745	26.65	0.70	0.750			
0.1050	6722.01	4.1320	4.1320	0.7738	26.64	0.69	0.750			
0.1073	6869.85	4.1290	4.1290	0.7738	26.64	0.69	0.750			
0.1097	7018.92	4.1260	4.1260	0.7771	26.64	0.69	0.750			
0.1120	7168.37	4.1230	4.1230	0.7783	26.64	0.69	0.750			
0.1143	7318.26	4.1200	4.1200	0.7785	26.64	0.69	0.750			
0.1167	7467.65	4.1170	4.1170	0.7787	26.64	0.69	0.750			
0.1190	7617.32	4.1140	4.1139	0.7799	26.64	0.69	0.750			
0.1214	7766.91	4.1110	4.1110	0.7828	26.64	0.69	0.750			
0.1237	7918.05	4.1080	4.1080	0.7806	26.64	0.69	0.750			
0.1260	8066.89	4.1050	4.1050	0.7833	26.64	0.69	0.750			
0.1284	8217.06	4.1020	4.1020	0.7868	26.64	0.69	0.750			
0.1308	8369.11	4.0990	4.0991	0.7899	26.64	0.69	0.750			
0.1331	8520.85	4.0960	4.0959	0.7910	26.64	0.69	0.750			
0.1355	8674.89	4.0930	4.0930	0.7906	26.64	0.69	0.750			
0.1379	8826.54	4.0900	4.0901	0.7896	26.64	0.69	0.750			
0.1403	8977.70	4.0870	4.0869	0.7969	26.64	0.69	0.750			
0.1426	9129.15	4.0840	4.0840	0.7954	26.64	0.69	0.750			
0.1450	9280.71	4.0810	4.0808	0.7980	26.64	0.69	0.750			
0.1474	9434.74	4.0780	4.0781	0.8035	26.64	0.69	0.750			
0.1499	9591.23	4.0750	4.0750	0.8062	26.65	0.70	0.750			
0.1523	9746.84	4.0720	4.0720	0.8077	26.65	0.70	0.750			
0.1547	9901.18	4.0690	4.0690	0.8078	26.66	0.71	0.750			
0.1571	10055.67	4.0660	4.0660	0.8108	26.66	0.71	0.750			
0.1596	10212.20	4.0630	4.0630	0.8134	26.66	0.71	0.750			
0.1620	10368.61	4.0600	4.0600	0.8137	26.66	0.71	0.750			
0.1644	10524.68	4.0570	4.0571	0.8194	26.66	0.71	0.750			
0.1669	10682.48	4.0540	4.0540	0.8223	26.66	0.71	0.750			
0.1694	10840.58	4.0510	4.0509	0.8251	26.66	0.71	0.750			
0.1719	10998.62	4.0480	4.0480	0.8264	26.66	0.71	0.750			
0.1744	11158.48	4.0450	4.0451	0.8264	26.66	0.71	0.750			
0.1768	11318.04	4.0420	4.0420	0.8300	26.66	0.71	0.750			
0.1793	11476.43	4.0390	4.0391	0.8298	26.66	0.71	0.750			
0.1818	11635.34	4.0360	4.0359	0.8310	26.66	0.71	0.750			
0.1843	11794.88	4.0330	4.0330	0.8347	26.66	0.71	0.750			
0.1868	11955.39	4.0300	4.0300	0.8373	26.66	0.71	0.750			
0.1893	12116.67	4.0270	4.0270	0.8427	26.66	0.71	0.750			
0.1919	12278.44	4.0240	4.0240	0.8454	26.66	0.71	0.750			
0.1944	12442.20	4.0210	4.0209	0.8494	26.66	0.71	0.750			
0.1970	12605.59	4.0180	4.0180	0.8511	26.66	0.71	0.750			
0.1995	12769.52	4.0150	4.0150	0.8538	26.66	0.71	0.750			
0.2021	12933.28	4.0120	4.0120	0.8573	26.66	0.71	0.750			
0.2047	13098.46	4.0090	4.0090	0.8590	26.66	0.71	0.750			
0.2072	13261.94	4.0060	4.0059	0.8605	26.66	0.71	0.750			
0.2098	13429.75	4.0030	4.0030	0.8588	26.66	0.71	0.750			
0.2124	13595.30	4.0000	4.0000	0.8664	26.66	0.71	0.750			
0.2150	13761.11	3.9970	3.9970	0.8678	26.66	0.71	0.750			
0.2176	13927.47	3.9940	3.9941	0.8673	26.66	0.71	0.750			
0.2202	14093.82	3.9910	3.9911	0.8682	26.66	0.71	0.750			
0.2228	14261.39	3.9880	3.9880	0.8703	26.66	0.71	0.750			
0.2254	14428.07	3.9850	3.9851	0.8704	26.66	0.71	0.750			
0.2281	14596.45	3.9820	3.9820	0.8756	26.66	0.71	0.750			
0.2307	14763.93	3.9790	3.9790	0.8749	26.66	0.71	0.750			
0.2333	14933.19	3.9760	3.9761	0.8794	26.66	0.71	0.750			
0.2360	15103.40	3.9730	3.9731	0.8793	26.67	0.72	0.750			
0.2386	15271.54	3.9700	3.9700	0.8814	26.67	0.72	0.750			
0.2413	15441.33	3.9670	3.9671	0.8816	26.67	0.72	0.750			
0.2439	15609.08	3.9640	3.9639	0.8837	26.68	0.73	0.750			
0.2465	15778.54	3.9610	3.9610	0.8841	26.68	0.73	0.750			
0.2492	15949.43	3.9580	3.9580	0.8799	26.67	0.72	0.750			
0.2518	16117.15	3.9550	3.9550	0.8870	26.67	0.72	0.750			
0.2545	16287.24	3.9520	3.9522	0.8948	26.66	0.71	0.750			
0.2572	16458.23	3.9490	3.9487	0.9018	26.66	0.71	0.750			
0.2599	16633.91	3.9460	3.9460	0.9030	26.66	0.71	0.750			
0.2626	16809.09	3.9430	3.9429	0.9000	26.66	0.71	0.750			
0.2654	16984.90	3.9400	3.9401	0.9026	26.66	0.71	0.750			
0.2681	17158.24	3.9370	3.9371	0.8978	26.66	0.71	0.750			
0.2707	17325.59	3.9340	3.9340	0.8922	26.66	0.71	0.750			
0.2734	17498.07	3.9310	3.9309	0.8873	26.65	0.70	0.750			
0.2760	17666.58	3.9280	3.9280	0.8836	26.65	0.70	0.750			
0.2787	17836.24	3.9250	3.9251	0.8881	26.65	0.70	0.750			
0.2814	18007.61	3.9220	3.9220	0.8896	26.64	0.69	0.750			
0.2840	18178.23	3.9190	3.9189	0.8889	26.64	0.69	0.750			
0.2867	18346.71	3.9160	3.9160	0.8907	26.63	0.68	0.750			
0.2893	18518.31	3.9130	3.9130	0.8979	26.63	0.68	0.750			
0.2921	18692.51	3.9100	3.9100	0.9116	26.62	0.67	0.750			
0.2948	18867.57	3.9070	3.9069	0.9124	26.62	0.67	0.750			
0.2976	19043.83	3.9040	3.9040	0.9139	26.62	0.67	0.750			
0.3003	19220.53	3.9010	3.9010	0.9248	26.61	0.66	0.750			
0.3031	19398.88	3.8980	3.8980	0.9299	26.61	0.66	0.750			
0.3059	19577.55	3.8950	3.8949	0.9295	26.60	0.65	0.750			
0.3087	19757.60	3.8920	3.8920	0.9299	26.60	0.65	0.750			
0.3115	19934.71	3.8890	3.8891	0.9336	26.59	0.64	0.750			
0.3143	20114.80	3.8860	3.8860	0.9433	26.58	0.63	0.750			
0.3171	20296.33	3.8830	3.8830	0.9465	26.57	0.62	0.750			
0.3199	20475.84	3.8800	3.8798	0.9512	26.56	0.61	0.750			
0.3228	20661.74	3.8770	3.8771	0.9498	26.55	0.60	0.750			
0.3257	20845.73	3.8740	3.8740	0.9591	26.55	0.60	0.750			
0.3286	21029.73	3.8710	3.8710	0.9612	26.55	0.60	0.750			
0.3315	21213.07	3.8680	3.8680	0.9622	26.54	0.59	0.750			
0.3343	21397.59	3.8650	3.8650	0.9642	26.53	0.58	0.750			
0.3372	21583.76	3.8620	3.8621	0.9693	26.52	0.57	0.750			
0.3401	21769.48	3.8590	3.8590	0.9752	26.51	0.56	0.750			
0.3431	21958.61	3.8560	3.8561	0.9785	26.51	0.56	0.750			
0.3461	22149.62	3.8530	3.8529	0.9716	26.50	0.55	0.750			
0.3490	22335.61	3.8500	3.8500	0.9748	26.49	0.54	0.750			
0.3519	22521.35	3.8470	3.8471	0.9791	26.48	0.53	0.750			
0.3548	22708.68	3.8440	3.8441	0.9828	26.47	0.52	0.750			
0.3578	22896.17	3.8410	3.8409	0.9825	26.46	0.51	0.750			
0.3607	23085.47	3.8380	3.8381	0.9837	26.45	0.50	0.750			
0.3637	23276.19	3.8350	3.8350	0.9905	26.44	0.49	0.750			
0.3667	23467.19	3.8320	3.8321	0.9966	26.43	0.48	0.750			
0.3697	23657.76	3.8290	3.8287	0.9955	26.42	0.47	0.750			
0.3726	23846.89	3.8260	3.8260	1.0000	26.41	0.46	0.750			
0.3756	24041.11	3.8230	3.8230	1.0101	26.40	0.45	0.750			
0.3787	24235.73	3.8200	3.8201	1.0185	26.39	0.44	0.750			
0.3818	24433.02	3.8170	3.8169	1.0251	26.38	0.43	0.750			
0.3848	24629.72	3.8140	3.8141	1.0282	26.37	0.42	0.750			
0.3879	24827.10	3.8110	3.8110	1.0341	26.36	0.41	0.750			
0.3910	25025.33	3.8080	3.8081	1.0437	26.35	0.40	0.750			
0.3941	25225.52	3.8050	3.8048	1.0570	26.34	0.39	0.750			
0.3973	25429.33	3.8020	3.8021	1.0640	26.33	0.38	0.750			
0.4005	25633.50	3.7990	3.7991	1.0782	26.32	0.37	0.750			
0.4038	25842.91	3.7960	3.7960	1.0938	26.30	0.35	0.750			
0.4071	26055.58	3.7930	3.7928	1.1042	26.29	0.34	0.750			
0.4104	26265.70	3.7900	3.7900	1.1192	26.28	0.33	0.750			
0.4138	26482.00	3.7870	3.7871	1.1344	26.27	0.32	0.750			
0.4172	26700.85	3.7840	3.7841	1.1543	26.26	0.31	0.750			
0.4208	26928.09	3.7810	3.7810	1.1526	26.25	0.30	0.750			
0.4242	27151.33	3.7780	3.7780	1.1700	26.24	0.29	0.750			
0.4277	27371.42	3.7750	3.7752	1.2028	26.22	0.27	0.750			
0.4313	27605.63	3.7720	3.7718	1.2239	26.21	0.26	0.750			
0.4350	27839.01	3.7690	3.7691	1.2724	26.20	0.25	0.750			
0.4389	28086.98	3.7660	3.7659	1.3166	26.18	0.23	0.750	0.340	0.456	
0.4429	28347.74	3.7630	3.7631	1.3450	26.16	0.21	0.750			
0.4471	28614.66	3.7600	3.7602	1.3767	26.14	0.19	0.750			
0.4513	28882.75	3.7570	3.7572	1.3985	26.13	0.18	0.750			
0.4555	29154.40	3.7540	3.7540	1.3978	26.12	0.17	0.750			
0.4598	29426.99	3.7510	3.7510	1.4233	26.10	0.15	0.750			
0.4640	29692.99	3.7480	3.7481	1.4413	26.09	0.14	0.750			
0.4683	29972.40	3.7450	3.7451	1.4764	26.07	0.12	0.750			
0.4728	30261.59	3.7420	3.7420	1.5121	26.06	0.11	0.750			
0.4774	30553.36	3.7390	3.7389	1.5550	26.05	0.10	0.750			
0.4821	30856.46	3.7360	3.7358	1.6156	26.03	0.08	0.750			
0.4871	31175.19	3.7330	3.7330	1.6605	26.01	0.06	0.750			
0.4921	31495.70	3.7300	3.7298	1.6988	26.00	0.05	0.750			
0.4972	31823.32	3.7270	3.7270	1.7502	25.98	0.03	0.750			
0.5026	32164.63	3.7240	3.7241	1.7954	25.96	0.01	0.750			
0.5081	32517.04	3.7210	3.7207	1.8305	25.95	-0.00	0.750			
0.5136	32870.43	3.7180	3.7180	1.8845	25.93	-0.02	0.750			
0.5193	33236.94	3.7150	3.7147	1.9503	25.91	-0.04	0.750			
0.5254	33623.16	3.7120	3.7118	2.0167	25.89	-0.06	0.750			
0.5314	34008.40	3.7090	3.7092	2.0849	25.87	-0.08	0.750			
0.5378	34417.57	3.7060	3.7061	2.1543	25.85	-0.10	0.750			
0.5444	34842.91	3.7030	3.7030	2.2225	25.82	-0.13	0.750			
0.5513	35283.89	3.7000	3.7002	2.2624	25.80	-0.15	0.750			
0.5582	35725.93	3.6970	3.6970	2.3164	25.79	-0.16	0.750			
0.5651	36169.57	3.6940	3.6941	2.3624	25.78	-0.17	0.750			
0.5722	36617.91	3.6910	3.6909	2.4136	25.76	-0.19	0.750			
0.5795	37088.30	3.6880	3.6880	2.5329	25.75	-0.20	0.750			
0.5872	37581.91	3.6850	3.6850	2.6613	25.73	-0.22	0.750			
0.5955	38110.06	3.6820	3.6821	2.7758	25.71	-0.24	0.750			
0.6040	38658.56	3.6790	3.6790	2.8688	25.70	-0.25	0.750			
0.6128	39218.05	3.6760	3.6759	2.9299	25.69	-0.26	0.750			
0.6217	39791.60	3.6730	3.6728	2.9348	25.68	-0.27	0.750			
0.6306	40359.34	3.6700	3.6700	2.8181	25.66	-0.29	0.750			
0.6392	40906.09	3.6670	3.6670	2.6314	25.66	-0.29	0.750			
0.6467	41388.77	3.6640	3.6640	2.3791	25.66	-0.29	0.750			
0.6531	41799.25	3.6610	3.6613	2.1312	25.67	-0.28	0.750			
0.6591	42183.16	3.6580	3.6581	1.9198	25.67	-0.28	0.750			
0.6644	42521.06	3.6550	3.6547	1.7528	25.68	-0.27	0.750			
0.6694	42841.82	3.6520	3.6518	1.6275	25.68	-0.27	0.750			
0.6740	43136.79	3.6490	3.6491	1.5162	25.68	-0.27	0.750			
0.6784	43420.15	3.6460	3.6461	1.4197	25.68	-0.27	0.750			
0.6825	43681.79	3.6430	3.6430	1.3221	25.68	-0.27	0.750			
0.6863	43923.30	3.6400	3.6400	1.2558	25.68	-0.27	0.750			
0.6899	44151.15	3.6370	3.6370	1.2145	25.68	-0.27	0.750			
0.6934	44378.11	3.6340	3.6339	1.1868	25.68	-0.27	0.750			
0.6969	44600.51	3.6310	3.6311	1.1778	25.68	-0.27	0.750			
0.7004	44822.60	3.6280	3.6282	1.1788	25.68	-0.27	0.750			
0.7039	45049.38	3.6250	3.6250	1.1938	25.68	-0.27	0.750			
0.7075	45281.17	3.6220	3.6218	1.1928	25.68	-0.27	0.750			
0.7111	45510.69	3.6190	3.6191	1.1955	25.68	-0.27	0.750			
0.7147	45742.39	3.6160	3.6161	1.1943	25.69	-0.26	0.750			
0.7184	45977.59	3.6130	3.6130	1.1880	25.69	-0.26	0.750			
0.7219	46203.40	3.6100	3.6100	1.1496	25.69	-0.26	0.750			
0.7253	46420.40	3.6070	3.6072	1.1395	25.69	-0.26	0.750			
0.7287	46635.36	3.6040	3.6041	1.1326	25.70	-0.25	0.750			
0.7321	46851.94	3.6010	3.6007	1.1323	25.70	-0.25	0.750			
0.7353	47061.40	3.5980	3.5981	1.1447	25.70	-0.25	0.750			
0.7388	47280.72	3.5950	3.5951	1.1702	25.70	-0.25	0.750			
0.7424	47510.69	3.5920	3.5921	1.2058	25.70	-0.25	0.750			
0.7460	47743.99	3.5890	3.5889	1.2439	25.70	-0.25	0.750			
0.7498	47984.29	3.5860	3.5861	1.2861	25.70	-0.25	0.750			
0.7537	48239.15	3.5830	3.5830	1.3231	25.70	-0.25	0.750			
0.7578	48501.79	3.5800	3.5799	1.3581	25.70	-0.25	0.750			
0.7620	48764.90	3.5770	3.5770	1.4014	25.70	-0.25	0.750			
0.7663	49041.54	3.5740	3.5741	1.4532	25.70	-0.25	0.750			
0.7706	49321.06	3.5710	3.5713	1.5053	25.70	-0.25	0.750			
0.7753	49616.24	3.5680	3.5684	1.5343	25.70	-0.25	0.750			
0.7799	49915.20	3.5650	3.5654	1.5776	25.70	-0.25	0.750			
0.7848	50225.63	3.5620	3.5622	1.6047	25.70	-0.25	0.750			
0.7897	50542.87	3.5590	3.5590	1.6349	25.70	-0.25	0.750			
0.7946	50856.72	3.5560	3.5561	1.6534	25.70	-0.25	0.750			
0.7995	51171.00	3.5530	3.5530	1.6764	25.70	-0.25	0.750			
0.8046	51493.56	3.5500	3.5502	1.6915	25.71	-0.24	0.750			
0.8098	51827.65	3.5470	3.5471	1.7154	25.71	-0.24	0.750			
0.8150	52158.08	3.5440	3.5438	1.7200	25.72	-0.23	0.750			
0.8201	52488.33	3.5410	3.5412	1.7609	25.72	-0.23	0.750			
0.8256	52837.63	3.5380	3.5376	1.7516	25.73	-0.22	0.750			
0.8309	53180.43	3.5350	3.5348	1.6785	25.75	-0.20	0.750			
0.8364	53528.61	3.5320	3.5317	1.5082	25.76	-0.19	0.750			
0.8411	53830.93	3.5290	3.5296	1.3231	25.78	-0.17	0.750			
0.8447	54061.15	3.5260	3.5264	1.0644	25.79	-0.16	0.750			
0.8473	54224.02	3.5230	3.5227	0.7865	25.81	-0.14	0.750			
0.8487	54319.26	3.5200	3.5199	0.5671	25.82	-0.13	0.750			
0.8500	54402.84	3.5170	3.5167	0.4505	25.82	-0.13	0.750			
0.8511	54468.02	3.5140	3.5142	0.3815	25.83	-0.12	0.750			
0.8521	54535.48	3.5110	3.5109	0.3495	25.84	-0.11	0.750			
0.8531	54596.96	3.5080	3.5079	0.3265	25.84	-0.11	0.750			
0.8540	54657.23	3.5050	3.5049	0.3108	25.85	-0.10	0.750			
0.8549	54715.12	3.5020	3.5022	0.3003	25.86	-0.09	0.750			
0.8558	54771.74	3.4990	3.4990	0.2909	25.86	-0.09	0.750			
0.8567	54826.30	3.4960	3.4959	0.2818	25.87	-0.08	0.750			
0.8575	54879.06	3.4930	3.4930	0.2747	25.87	-0.08	0.750			
0.8583	54930.72	3.4900	3.4900	0.2702	25.88	-0.07	0.750			
0.8591	54982.16	3.4870	3.4870	0.2647	25.88	-0.07	0.750			
0.8599	55033.14	3.4840	3.4840	0.2596	25.89	-0.06	0.750			
0.8607	55082.27	3.4810	3.4810	0.2537	25.89	-0.06	0.750			
0.8614	55130.34	3.4780	3.4781	0.2481	25.90	-0.05	0.750			
0.8621	55177.49	3.4750	3.4749	0.2423	25.90	-0.05	0.750			
0.8629	55223.26	3.4720	3.4719	0.2366	25.91	-0.04	0.750			
0.8636	55267.81	3.4690	3.4690	0.2311	25.91	-0.04	0.750			
0.8642	55311.93	3.4660	3.4660	0.2273	25.92	-0.03	0.750			
0.8649	55355.12	3.4630	3.4630	0.2226	25.92	-0.03	0.750			
0.8656	55397.44	3.4600	3.4599	0.2177	25.92	-0.03	0.750			
0.8662	55438.71	3.4570	3.4570	0.2125	25.93	-0.02	0.750			
0.8669	55479.17	3.4540	3.4540	0.2077	25.93	-0.02	0.750			
0.8675	55518.56	3.4510	3.4510	0.2026	25.94	-0.01	0.750			
0.8681	55557.08	3.4480	3.4481	0.1977	25.94	-0.01	0.750			
0.8687	55594.64	3.4450	3.4450	0.1919	25.94	-0.01	0.750			
0.8692	55630.66	3.4420	3.4421	0.1867	25.95	-0.00	0.750			
0.8698	55666.02	3.4390	3.4391	0.1817	25.95	0.00	0.750			
0.8703	55700.42	3.4360	3.4361	0.1768	25.95	0.00	0.750			
0.8708	55733.88	3.4330	3.4329	0.1717	25.96	0.01	0.750			
0.8713	55766.28	3.4300	3.4301	0.1667	25.96	0.01	0.750			
0.8718	55797.90	3.4270	3.4270	0.1614	25.96	0.01	0.750			
0.8723	55828.68	3.4240	3.4240	0.1552	25.97	0.02	0.750			
0.8728	55858.21	3.4210	3.4211	0.1499	25.97	0.02	0.750			
0.8732	55886.20	3.4180	3.4180	0.1430	25.97	0.02	0.750			
0.8736	55912.95	3.4150	3.4151	0.1373	25.98	0.03	0.750			
0.8740	55938.72	3.4120	3.4119	0.1313	25.98	0.03	0.750			
0.8744	55963.23	3.4090	3.4089	0.1252	25.98	0.03	0.750			
0.8748	55987.01	3.4060	3.4060	0.1183	25.98	0.03	0.750			
0.8751	56009.29	3.4030	3.4031	0.1120	25.99	0.04	0.750			
0.8755	56031.92	3.4000	3.3999	0.1036	25.99	0.04	0.750			
0.8758	56051.19	3.3970	3.3969	0.0949	25.99	0.04	0.750			
0.8761	56068.38	3.3940	3.3941	0.0841	25.99	0.04	0.750			
0.8763	56084.18	3.3910	3.3910	0.0740	25.99	0.04	0.750			
0.8765	56097.26	3.3880	3.3884	0.0622	25.99	0.04	0.750			
0.8767	56108.71	3.3850	3.3854	0.0498	26.00	0.05	0.750			
0.8768	56117.04	3.3820	3.3829	0.0369	26.00	0.05	0.750			
0.8769	56122.89	3.3790	3.3809	0.0240	26.00	0.05	0.750			
