Ah_balance (normalized)	Ah_balance (mAh)	Voltage - fit (V)	Voltage -  interpolate (V)	dQ/dV (1/V)	Temperature (°C)	Temperature - diff (°C)	Current (C)	R_DC 0ms (mOhm)	R_DC 50ms (mOhm)	R_DC 50 ms PEC (mOhm)
0.0002	11.81	4.1660	4.1658	-0.1173	25.75	0.03	-0.750			
0.0006	38.82	4.1630	4.1628	-0.1634	25.75	0.03	-0.750			
0.0012	74.84	4.1600	4.1600	-0.2086	25.75	0.03	-0.750			
0.0019	119.79	4.1570	4.1570	-0.2516	25.75	0.03	-0.750			
0.0027	172.44	4.1540	4.1540	-0.2926	25.74	0.02	-0.750			
0.0036	233.28	4.1510	4.1510	-0.3335	25.74	0.02	-0.750			
0.0047	301.53	4.1480	4.1480	-0.3674	25.74	0.02	-0.750			
0.0059	375.74	4.1450	4.1450	-0.4057	25.73	0.01	-0.750			
0.0071	457.12	4.1420	4.1420	-0.4423	25.73	0.01	-0.750			
0.0085	545.70	4.1390	4.1390	-0.4756	25.73	0.01	-0.750			
0.0100	641.02	4.1360	4.1359	-0.5056	25.72	0.00	-0.750			
0.0116	742.96	4.1330	4.1330	-0.5316	25.72	-0.00	-0.750			
0.0133	848.16	4.1300	4.1300	-0.5546	25.71	-0.01	-0.750			
0.0150	957.89	4.1270	4.1270	-0.5783	25.70	-0.02	-0.750			
0.0167	1069.83	4.1240	4.1240	-0.5966	25.70	-0.02	-0.750			
0.0185	1186.70	4.1210	4.1209	-0.6136	25.69	-0.03	-0.750			
0.0204	1307.30	4.1180	4.1180	-0.6265	25.69	-0.03	-0.750			
0.0224	1430.53	4.1150	4.1151	-0.6403	25.68	-0.04	-0.750			
0.0243	1554.36	4.1120	4.1120	-0.6512	25.68	-0.04	-0.750			
0.0263	1680.30	4.1090	4.1089	-0.6608	25.67	-0.05	-0.750			
0.0283	1808.76	4.1060	4.1059	-0.6675	25.67	-0.05	-0.750			
0.0303	1937.93	4.1030	4.1030	-0.6720	25.67	-0.05	-0.750			
0.0323	2068.77	4.1000	4.1000	-0.6815	25.66	-0.06	-0.750			
0.0344	2200.17	4.0970	4.0970	-0.6853	25.66	-0.06	-0.750			
0.0364	2331.64	4.0940	4.0938	-0.6896	25.66	-0.06	-0.750			
0.0385	2463.47	4.0910	4.0909	-0.6944	25.66	-0.06	-0.750			
0.0406	2596.58	4.0880	4.0881	-0.7013	25.66	-0.06	-0.750			
0.0427	2732.55	4.0850	4.0850	-0.7079	25.65	-0.07	-0.750			
0.0449	2870.99	4.0820	4.0819	-0.7177	25.65	-0.07	-0.750			
0.0470	3009.25	4.0790	4.0790	-0.7192	25.65	-0.07	-0.750			
0.0492	3148.00	4.0760	4.0760	-0.7235	25.65	-0.07	-0.750			
0.0514	3287.20	4.0730	4.0730	-0.7244	25.65	-0.07	-0.750			
0.0535	3426.41	4.0700	4.0701	-0.7290	25.65	-0.07	-0.750			
0.0557	3567.67	4.0670	4.0669	-0.7291	25.64	-0.08	-0.750			
0.0579	3708.56	4.0640	4.0640	-0.7316	25.64	-0.08	-0.750			
0.0601	3848.70	4.0610	4.0612	-0.7289	25.64	-0.08	-0.750			
0.0623	3989.57	4.0580	4.0580	-0.7295	25.64	-0.08	-0.750			
0.0645	4126.74	4.0550	4.0550	-0.7349	25.64	-0.08	-0.750			
0.0667	4267.67	4.0520	4.0520	-0.7347	25.64	-0.08	-0.750			
0.0689	4408.97	4.0490	4.0490	-0.7426	25.64	-0.08	-0.750			
0.0711	4553.58	4.0460	4.0459	-0.7439	25.64	-0.08	-0.750			
0.0734	4697.37	4.0430	4.0431	-0.7470	25.64	-0.08	-0.750			
0.0756	4841.48	4.0400	4.0400	-0.7497	25.64	-0.08	-0.750			
0.0779	4984.50	4.0370	4.0370	-0.7504	25.64	-0.08	-0.750			
0.0801	5126.57	4.0340	4.0339	-0.7466	25.64	-0.08	-0.750			
0.0824	5272.67	4.0310	4.0310	-0.7555	25.64	-0.08	-0.750			
0.0846	5417.30	4.0280	4.0280	-0.7547	25.64	-0.08	-0.750			
0.0869	5563.17	4.0250	4.0250	-0.7620	25.64	-0.08	-0.750			
0.0892	5709.11	4.0220	4.0220	-0.7634	25.64	-0.08	-0.750			
0.0915	5856.19	4.0190	4.0190	-0.7662	25.64	-0.08	-0.750			
0.0938	6004.59	4.0160	4.0160	-0.7659	25.64	-0.08	-0.750			
0.0961	6153.21	4.0130	4.0130	-0.7687	25.64	-0.08	-0.750			
0.0984	6300.02	4.0100	4.0101	-0.7686	25.64	-0.08	-0.750			
0.1007	6447.56	4.0070	4.0070	-0.7671	25.64	-0.08	-0.750			
0.1030	6593.59	4.0040	4.0040	-0.7677	25.65	-0.07	-0.750			
0.1053	6740.84	4.0010	4.0009	-0.7720	25.65	-0.07	-0.750			
0.1076	6889.44	3.9980	3.9980	-0.7782	25.66	-0.06	-0.750			
0.1100	7040.31	3.9950	3.9950	-0.7860	25.66	-0.06	-0.750			
0.1124	7191.67	3.9920	3.9919	-0.7865	25.66	-0.06	-0.750			
0.1148	7344.11	3.9890	3.9891	-0.7892	25.66	-0.06	-0.750			
0.1171	7496.24	3.9860	3.9860	-0.7880	25.66	-0.06	-0.750			
0.1195	7646.76	3.9830	3.9830	-0.7869	25.66	-0.06	-0.750			
0.1218	7797.52	3.9800	3.9799	-0.7856	25.66	-0.06	-0.750			
0.1242	7947.70	3.9770	3.9769	-0.7873	25.66	-0.06	-0.750			
0.1265	8097.74	3.9740	3.9741	-0.7944	25.66	-0.06	-0.750			
0.1289	8251.85	3.9710	3.9709	-0.7977	25.67	-0.05	-0.750			
0.1314	8406.72	3.9680	3.9679	-0.7998	25.67	-0.05	-0.750			
0.1338	8561.04	3.9650	3.9650	-0.7987	25.67	-0.05	-0.750			
0.1362	8713.85	3.9620	3.9621	-0.8000	25.67	-0.05	-0.750			
0.1385	8865.33	3.9590	3.9591	-0.8076	25.67	-0.05	-0.750			
0.1410	9022.02	3.9560	3.9559	-0.8070	25.67	-0.05	-0.750			
0.1434	9178.30	3.9530	3.9529	-0.8048	25.68	-0.04	-0.750			
0.1458	9333.97	3.9500	3.9500	-0.8085	25.68	-0.04	-0.750			
0.1483	9489.79	3.9470	3.9472	-0.8126	25.68	-0.04	-0.750			
0.1507	9644.68	3.9440	3.9440	-0.8157	25.68	-0.04	-0.750			
0.1531	9798.26	3.9410	3.9409	-0.8205	25.69	-0.03	-0.750			
0.1556	9957.17	3.9380	3.9379	-0.8198	25.69	-0.03	-0.750			
0.1581	10119.83	3.9350	3.9350	-0.8267	25.70	-0.02	-0.750			
0.1606	10280.51	3.9320	3.9322	-0.8295	25.70	-0.02	-0.750			
0.1631	10438.19	3.9290	3.9289	-0.8182	25.70	-0.02	-0.750			
0.1655	10591.91	3.9260	3.9260	-0.8177	25.71	-0.01	-0.750			
0.1679	10747.72	3.9230	3.9230	-0.8206	25.71	-0.01	-0.750			
0.1704	10907.93	3.9200	3.9199	-0.8242	25.72	-0.00	-0.750			
0.1729	11066.64	3.9170	3.9172	-0.8272	25.72	0.00	-0.750			
0.1754	11227.14	3.9140	3.9140	-0.8279	25.72	0.00	-0.750			
0.1779	11384.89	3.9110	3.9110	-0.8357	25.73	0.01	-0.750			
0.1804	11545.07	3.9080	3.9079	-0.8419	25.73	0.01	-0.750			
0.1829	11707.31	3.9050	3.9049	-0.8454	25.74	0.02	-0.750			
0.1855	11871.63	3.9020	3.9022	-0.8425	25.74	0.02	-0.750			
0.1881	12036.19	3.8990	3.8991	-0.8485	25.74	0.02	-0.750			
0.1906	12197.04	3.8960	3.8960	-0.8512	25.74	0.02	-0.750			
0.1931	12360.60	3.8930	3.8929	-0.8461	25.75	0.03	-0.750			
0.1957	12522.32	3.8900	3.8898	-0.8478	25.75	0.03	-0.750			
0.1982	12684.73	3.8870	3.8872	-0.8477	25.75	0.03	-0.750			
0.2008	12849.35	3.8840	3.8839	-0.8520	25.75	0.03	-0.750			
0.2033	13013.49	3.8810	3.8810	-0.8521	25.76	0.04	-0.750			
0.2059	13174.69	3.8780	3.8781	-0.8499	25.76	0.04	-0.750			
0.2084	13339.29	3.8750	3.8750	-0.8527	25.77	0.05	-0.750			
0.2110	13503.93	3.8720	3.8720	-0.8559	25.77	0.05	-0.750			
0.2135	13666.15	3.8690	3.8690	-0.8582	25.77	0.05	-0.750			
0.2161	13832.09	3.8660	3.8660	-0.8588	25.77	0.05	-0.750			
0.2187	13997.56	3.8630	3.8630	-0.8597	25.78	0.06	-0.750			
0.2213	14163.47	3.8600	3.8600	-0.8630	25.78	0.06	-0.750			
0.2239	14328.39	3.8570	3.8571	-0.8607	25.78	0.06	-0.750			
0.2265	14494.36	3.8540	3.8540	-0.8645	25.78	0.06	-0.750			
0.2291	14660.29	3.8510	3.8509	-0.8620	25.79	0.07	-0.750			
0.2316	14825.55	3.8480	3.8481	-0.8584	25.79	0.07	-0.750			
0.2342	14991.16	3.8450	3.8450	-0.8608	25.79	0.07	-0.750			
0.2368	15156.47	3.8420	3.8420	-0.8603	25.79	0.07	-0.750			
0.2394	15320.23	3.8390	3.8389	-0.8672	25.80	0.08	-0.750			
0.2420	15486.19	3.8360	3.8360	-0.8678	25.80	0.08	-0.750			
0.2446	15653.64	3.8330	3.8330	-0.8663	25.81	0.09	-0.750			
0.2472	15822.57	3.8300	3.8299	-0.8725	25.81	0.09	-0.750			
0.2498	15989.02	3.8270	3.8271	-0.8759	25.81	0.09	-0.750			
0.2524	16156.15	3.8240	3.8239	-0.8743	25.81	0.09	-0.750			
0.2551	16324.70	3.8210	3.8210	-0.8702	25.82	0.10	-0.750			
0.2577	16489.87	3.8180	3.8180	-0.8665	25.82	0.10	-0.750			
0.2603	16660.13	3.8150	3.8153	-0.8722	25.82	0.10	-0.750			
0.2629	16827.30	3.8120	3.8119	-0.8676	25.82	0.10	-0.750			
0.2655	16992.56	3.8090	3.8090	-0.8682	25.82	0.10	-0.750			
0.2681	17159.08	3.8060	3.8060	-0.8662	25.83	0.11	-0.750			
0.2707	17325.92	3.8030	3.8029	-0.8685	25.83	0.11	-0.750			
0.2733	17493.54	3.8000	3.8001	-0.8721	25.83	0.11	-0.750			
0.2759	17659.89	3.7970	3.7970	-0.8708	25.84	0.12	-0.750			
0.2786	17828.12	3.7940	3.7939	-0.8672	25.84	0.12	-0.750			
0.2812	17993.73	3.7910	3.7912	-0.8612	25.84	0.12	-0.750			
0.2838	18160.85	3.7880	3.7880	-0.8645	25.85	0.13	-0.750			
0.2863	18326.06	3.7850	3.7850	-0.8598	25.85	0.13	-0.750			
0.2889	18489.42	3.7820	3.7819	-0.8606	25.86	0.14	-0.750			
0.2915	18655.12	3.7790	3.7790	-0.8569	25.86	0.14	-0.750			
0.2941	18820.92	3.7760	3.7760	-0.8552	25.86	0.14	-0.750			
0.2966	18985.21	3.7730	3.7729	-0.8551	25.87	0.15	-0.750			
0.2992	19149.38	3.7700	3.7699	-0.8510	25.87	0.15	-0.750			
0.3017	19311.81	3.7670	3.7669	-0.8497	25.88	0.16	-0.750			
0.3043	19473.72	3.7640	3.7640	-0.8451	25.88	0.16	-0.750			
0.3068	19634.41	3.7610	3.7610	-0.8411	25.88	0.16	-0.750			
0.3094	19799.73	3.7580	3.7580	-0.8497	25.89	0.17	-0.750			
0.3119	19961.56	3.7550	3.7550	-0.8483	25.89	0.17	-0.750			
0.3144	20124.02	3.7520	3.7520	-0.8473	25.89	0.17	-0.750			
0.3170	20287.95	3.7490	3.7490	-0.8474	25.90	0.18	-0.750			
0.3195	20449.15	3.7460	3.7460	-0.8468	25.90	0.18	-0.750			
0.3221	20612.54	3.7430	3.7431	-0.8542	25.90	0.18	-0.750			
0.3246	20775.70	3.7400	3.7399	-0.8603	25.90	0.18	-0.750			
0.3272	20940.48	3.7370	3.7369	-0.8660	25.90	0.18	-0.750			
0.3298	21107.38	3.7340	3.7340	-0.8754	25.91	0.19	-0.750			
0.3325	21277.65	3.7310	3.7311	-0.8782	25.91	0.19	-0.750			
0.3352	21450.04	3.7280	3.7280	-0.8829	25.91	0.19	-0.750			
0.3378	21616.79	3.7250	3.7251	-0.8948	25.91	0.19	-0.750			
0.3404	21787.07	3.7220	3.7220	-0.9006	25.91	0.19	-0.750			
0.3431	21960.70	3.7190	3.7189	-0.9147	25.92	0.20	-0.750			
0.3459	22138.48	3.7160	3.7161	-0.9265	25.92	0.20	-0.750			
0.3487	22317.53	3.7130	3.7131	-0.9428	25.92	0.20	-0.750			
0.3516	22501.41	3.7100	3.7100	-0.9621	25.92	0.20	-0.750			
0.3545	22687.95	3.7070	3.7069	-0.9740	25.93	0.21	-0.750			
0.3574	22874.60	3.7040	3.7039	-0.9848	25.93	0.21	-0.750			
0.3604	23064.75	3.7010	3.7012	-1.0069	25.93	0.21	-0.750			
0.3634	23259.50	3.6980	3.6979	-1.0243	25.93	0.21	-0.750			
0.3665	23457.84	3.6950	3.6950	-1.0466	25.93	0.21	-0.750			
0.3697	23658.91	3.6920	3.6920	-1.0617	25.93	0.21	-0.750			
0.3729	23866.44	3.6890	3.6893	-1.0896	25.93	0.21	-0.750			
0.3762	24078.09	3.6860	3.6860	-1.1066	25.92	0.20	-0.750			
0.3796	24291.68	3.6830	3.6830	-1.1269	25.92	0.20	-0.750			
0.3829	24506.33	3.6800	3.6800	-1.1528	25.91	0.19	-0.750			
0.3864	24729.33	3.6770	3.6770	-1.1756	25.91	0.19	-0.750			
0.3899	24956.08	3.6740	3.6740	-1.2056	25.90	0.18	-0.750			
0.3936	25190.27	3.6710	3.6709	-1.2417	25.90	0.18	-0.750			
0.3974	25431.64	3.6680	3.6681	-1.2749	25.89	0.17	-0.750			
0.4013	25683.99	3.6650	3.6649	-1.3066	25.89	0.17	-0.750			
0.4053	25939.25	3.6620	3.6620	-1.3295	25.88	0.16	-0.750			
0.4093	26196.44	3.6590	3.6591	-1.3607	25.88	0.16	-0.750			
0.4134	26458.79	3.6560	3.6560	-1.3870	25.87	0.15	-0.750			
0.4176	26726.31	3.6530	3.6529	-1.4122	25.87	0.15	-0.750			
0.4218	26997.37	3.6500	3.6501	-1.4484	25.86	0.14	-0.750			
0.4263	27280.27	3.6470	3.6470	-1.4901	25.85	0.13	-0.750			
0.4309	27576.17	3.6440	3.6439	-1.5264	25.84	0.12	-0.750			
0.4354	27868.59	3.6410	3.6413	-1.5717	25.83	0.11	-0.750			
0.4402	28173.40	3.6380	3.6381	-1.5943	25.82	0.10	-0.750			
0.4450	28482.90	3.6350	3.6349	-1.6419	25.81	0.09	-0.750			
0.4501	28805.10	3.6320	3.6319	-1.6653	25.81	0.09	-0.750			
0.4551	29129.37	3.6290	3.6290	-1.6981	25.80	0.08	-0.750			
0.4603	29457.73	3.6260	3.6260	-1.7215	25.79	0.07	-0.750	0.402	0.493	
0.4655	29790.05	3.6230	3.6231	-1.7535	25.79	0.07	-0.750			
0.4707	30127.90	3.6200	3.6201	-1.7828	25.79	0.07	-0.750			
0.4763	30480.91	3.6170	3.6170	-1.8157	25.78	0.06	-0.750			
0.4817	30829.00	3.6140	3.6141	-1.8360	25.77	0.05	-0.750			
0.4873	31189.53	3.6110	3.6110	-1.8772	25.76	0.04	-0.750			
0.4929	31546.71	3.6080	3.6080	-1.9204	25.75	0.03	-0.750			
0.4988	31920.09	3.6050	3.6049	-1.9515	25.75	0.03	-0.750			
0.5046	32297.17	3.6020	3.6020	-1.9838	25.74	0.02	-0.750			
0.5107	32681.99	3.5990	3.5992	-2.0238	25.73	0.01	-0.750			
0.5168	33075.98	3.5960	3.5960	-2.0792	25.72	0.00	-0.750			
0.5231	33477.29	3.5930	3.5931	-2.1189	25.72	0.00	-0.750			
0.5295	33889.43	3.5900	3.5899	-2.1517	25.72	0.00	-0.750			
0.5360	34305.27	3.5870	3.5871	-2.1908	25.72	-0.00	-0.750			
0.5428	34736.26	3.5840	3.5840	-2.2206	25.71	-0.01	-0.750			
0.5495	35166.05	3.5810	3.5809	-2.2449	25.70	-0.02	-0.750			
0.5561	35592.43	3.5780	3.5779	-2.2620	25.70	-0.02	-0.750			
0.5630	36029.96	3.5750	3.5750	-2.2871	25.70	-0.02	-0.750			
0.5699	36471.78	3.5720	3.5720	-2.3129	25.70	-0.02	-0.750			
0.5769	36919.60	3.5690	3.5690	-2.3565	25.70	-0.02	-0.750			
0.5840	37375.11	3.5660	3.5660	-2.3604	25.70	-0.02	-0.750			
0.5912	37836.15	3.5630	3.5630	-2.3760	25.70	-0.02	-0.750			
0.5983	38293.28	3.5600	3.5601	-2.3750	25.70	-0.02	-0.750			
0.6054	38748.80	3.5570	3.5570	-2.3685	25.70	-0.02	-0.750			
0.6127	39210.89	3.5540	3.5538	-2.3522	25.70	-0.02	-0.750			
0.6197	39659.27	3.5510	3.5511	-2.3232	25.70	-0.02	-0.750			
0.6265	40098.59	3.5480	3.5481	-2.3106	25.70	-0.02	-0.750			
0.6335	40540.97	3.5450	3.5450	-2.3103	25.70	-0.02	-0.750			
0.6404	40983.23	3.5420	3.5418	-2.2754	25.71	-0.01	-0.750			
0.6472	41422.30	3.5390	3.5390	-2.2605	25.72	-0.00	-0.750			
0.6540	41858.74	3.5360	3.5363	-2.2202	25.72	0.00	-0.750			
0.6607	42285.25	3.5330	3.5329	-2.1778	25.72	0.00	-0.750			
0.6671	42696.17	3.5300	3.5301	-2.1241	25.74	0.02	-0.750			
0.6734	43098.51	3.5270	3.5270	-2.0635	25.75	0.03	-0.750			
0.6796	43491.34	3.5240	3.5240	-2.0375	25.76	0.04	-0.750			
0.6856	43880.34	3.5210	3.5211	-1.9763	25.76	0.04	-0.750			
0.6915	44256.87	3.5180	3.5181	-1.9178	25.78	0.06	-0.750			
0.6972	44622.40	3.5150	3.5152	-1.8484	25.79	0.07	-0.750			
0.7026	44966.93	3.5120	3.5120	-1.7713	25.80	0.08	-0.750			
0.7078	45300.37	3.5090	3.5090	-1.7160	25.81	0.09	-0.750			
0.7129	45623.18	3.5060	3.5057	-1.6538	25.82	0.10	-0.750			
0.7177	45930.26	3.5030	3.5031	-1.5898	25.83	0.11	-0.750			
0.7224	46234.61	3.5000	3.5002	-1.5425	25.85	0.13	-0.750			
0.7269	46524.44	3.4970	3.4969	-1.4906	25.86	0.14	-0.750			
0.7313	46802.11	3.4940	3.4940	-1.4285	25.88	0.16	-0.750			
0.7355	47072.25	3.4910	3.4911	-1.3943	25.89	0.17	-0.750			
0.7396	47337.51	3.4880	3.4879	-1.3506	25.91	0.19	-0.750			
0.7436	47592.13	3.4850	3.4850	-1.3059	25.93	0.21	-0.750			
0.7474	47836.11	3.4820	3.4823	-1.2678	25.95	0.23	-0.750			
0.7512	48079.86	3.4790	3.4789	-1.2299	25.96	0.24	-0.750			
0.7549	48310.45	3.4760	3.4759	-1.1806	25.98	0.26	-0.750			
0.7583	48531.31	3.4730	3.4730	-1.1372	25.99	0.27	-0.750			
0.7617	48746.13	3.4700	3.4700	-1.1057	26.00	0.28	-0.750			
0.7649	48953.90	3.4670	3.4669	-1.0683	26.01	0.29	-0.750			
0.7680	49152.16	3.4640	3.4640	-1.0290	26.02	0.30	-0.750			
0.7710	49345.10	3.4610	3.4610	-0.9934	26.03	0.31	-0.750			
0.7740	49535.62	3.4580	3.4580	-0.9742	26.04	0.32	-0.750			
0.7769	49719.10	3.4550	3.4550	-0.9496	26.05	0.33	-0.750			
0.7796	49897.59	3.4520	3.4519	-0.9292	26.06	0.34	-0.750			
0.7823	50068.30	3.4490	3.4491	-0.9311	26.08	0.36	-0.750			
0.7851	50246.50	3.4460	3.4460	-0.9422	26.09	0.37	-0.750			
0.7879	50425.38	3.4430	3.4429	-0.9639	26.10	0.38	-0.750			
0.7908	50613.65	3.4400	3.4400	-0.9899	26.11	0.39	-0.750			
0.7938	50804.36	3.4370	3.4370	-1.0227	26.12	0.40	-0.750			
0.7970	51004.84	3.4340	3.4340	-1.0563	26.13	0.41	-0.750			
0.8002	51212.06	3.4310	3.4309	-1.0920	26.14	0.42	-0.750			
0.8035	51425.74	3.4280	3.4279	-1.1110	26.15	0.43	-0.750			
0.8070	51645.55	3.4250	3.4250	-1.1294	26.16	0.44	-0.750			
0.8104	51864.31	3.4220	3.4222	-1.1346	26.17	0.45	-0.750			
0.8139	52091.26	3.4190	3.4190	-1.1318	26.18	0.46	-0.750			
0.8173	52307.21	3.4160	3.4159	-1.1086	26.18	0.46	-0.750			
0.8206	52519.79	3.4130	3.4130	-1.0793	26.19	0.47	-0.750			
0.8238	52725.19	3.4100	3.4101	-1.0468	26.19	0.47	-0.750			
0.8269	52922.71	3.4070	3.4069	-1.0131	26.20	0.48	-0.750			
0.8299	53113.89	3.4040	3.4040	-0.9755	26.21	0.49	-0.750			
0.8328	53296.39	3.4010	3.4010	-0.9352	26.21	0.49	-0.750			
0.8355	53473.64	3.3980	3.3981	-0.9044	26.22	0.50	-0.750			
0.8382	53643.63	3.3950	3.3950	-0.8671	26.23	0.51	-0.750			
0.8407	53806.91	3.3920	3.3920	-0.8357	26.24	0.52	-0.750			
0.8432	53963.20	3.3890	3.3890	-0.7993	26.25	0.53	-0.750			
0.8455	54114.02	3.3860	3.3860	-0.7673	26.25	0.53	-0.750			
0.8478	54257.87	3.3830	3.3831	-0.7345	26.26	0.54	-0.750			
0.8499	54395.47	3.3800	3.3799	-0.7032	26.27	0.55	-0.750			
0.8520	54525.67	3.3770	3.3771	-0.6764	26.27	0.55	-0.750			
0.8539	54651.83	3.3740	3.3740	-0.6529	26.28	0.56	-0.750			
0.8559	54775.62	3.3710	3.3709	-0.6294	26.29	0.57	-0.750			
0.8577	54894.94	3.3680	3.3680	-0.6074	26.29	0.57	-0.750			
0.8595	55009.37	3.3650	3.3650	-0.5846	26.30	0.58	-0.750			
0.8612	55119.66	3.3620	3.3620	-0.5596	26.30	0.58	-0.750			
0.8629	55224.66	3.3590	3.3589	-0.5338	26.31	0.59	-0.750			
0.8644	55323.26	3.3560	3.3560	-0.5095	26.32	0.60	-0.750			
0.8659	55417.49	3.3530	3.3531	-0.4884	26.32	0.60	-0.750			
0.8673	55510.22	3.3500	3.3499	-0.4714	26.33	0.61	-0.750			
0.8687	55597.98	3.3470	3.3469	-0.4523	26.33	0.61	-0.750			
0.8700	55682.92	3.3440	3.3441	-0.4353	26.34	0.62	-0.750			
0.8713	55765.55	3.3410	3.3411	-0.4188	26.34	0.62	-0.750			
0.8726	55845.22	3.3380	3.3380	-0.4014	26.35	0.63	-0.750			
0.8738	55920.25	3.3350	3.3350	-0.3835	26.36	0.64	-0.750			
0.8749	55991.08	3.3320	3.3320	-0.3655	26.36	0.64	-0.750			
0.8759	56059.63	3.3290	3.3290	-0.3514	26.37	0.65	-0.750			
0.8770	56125.26	3.3260	3.3260	-0.3384	26.37	0.65	-0.750			
0.8779	56188.46	3.3230	3.3230	-0.3255	26.38	0.66	-0.750			
0.8789	56249.62	3.3200	3.3200	-0.3151	26.38	0.66	-0.750			
0.8798	56309.27	3.3170	3.3170	-0.3053	26.38	0.66	-0.750			
0.8807	56366.89	3.3140	3.3140	-0.2944	26.39	0.67	-0.750			
0.8816	56422.38	3.3110	3.3109	-0.2844	26.39	0.67	-0.750			
0.8824	56476.12	3.3080	3.3081	-0.2745	26.40	0.68	-0.750			
0.8832	56527.49	3.3050	3.3050	-0.2648	26.40	0.68	-0.750			
0.8840	56577.53	3.3020	3.3020	-0.2565	26.40	0.68	-0.750			
0.8848	56625.33	3.2990	3.2990	-0.2475	26.41	0.69	-0.750			
0.8855	56672.06	3.2960	3.2961	-0.2404	26.41	0.69	-0.750			
0.8862	56717.76	3.2930	3.2929	-0.2337	26.42	0.70	-0.750			
0.8869	56761.58	3.2900	3.2900	-0.2268	26.42	0.70	-0.750			
0.8876	56804.47	3.2870	3.2870	-0.2210	26.43	0.71	-0.750			
0.8882	56846.11	3.2840	3.2840	-0.2150	26.43	0.71	-0.750			
0.8889	56886.89	3.2810	3.2810	-0.2098	26.44	0.72	-0.750			
0.8895	56926.60	3.2780	3.2779	-0.2045	26.44	0.72	-0.750			
0.8901	56965.34	3.2750	3.2749	-0.1993	26.45	0.73	-0.750			
0.8907	57002.75	3.2720	3.2721	-0.1950	26.45	0.73	-0.750			
0.8912	57039.80	3.2690	3.2690	-0.1909	26.45	0.73	-0.750			
0.8918	57075.91	3.2660	3.2660	-0.1867	26.46	0.74	-0.750			
0.8924	57111.35	3.2630	3.2630	-0.1825	26.46	0.74	-0.750			
0.8929	57145.82	3.2600	3.2600	-0.1791	26.47	0.75	-0.750			
0.8934	57179.90	3.2570	3.2571	-0.1759	26.47	0.75	-0.750			
0.8940	57213.43	3.2540	3.2540	-0.1725	26.47	0.75	-0.750			
0.8945	57246.03	3.2510	3.2509	-0.1700	26.48	0.76	-0.750			
0.8950	57278.19	3.2480	3.2480	-0.1663	26.48	0.76	-0.750			
0.8955	57309.90	3.2450	3.2450	-0.1640	26.48	0.76	-0.750			
0.8960	57341.35	3.2420	3.2419	-0.1617	26.49	0.77	-0.750			
0.8964	57372.33	3.2390	3.2390	-0.1591	26.49	0.77	-0.750			
0.8969	57402.30	3.2360	3.2361	-0.1562	26.49	0.77	-0.750			
0.8974	57432.07	3.2330	3.2330	-0.1539	26.50	0.78	-0.750			
0.8978	57461.42	3.2300	3.2300	-0.1519	26.50	0.78	-0.750			
0.8983	57490.12	3.2270	3.2269	-0.1491	26.51	0.79	-0.750			
0.8987	57518.67	3.2240	3.2241	-0.1476	26.51	0.79	-0.750			
0.8992	57546.82	3.2210	3.2209	-0.1456	26.52	0.80	-0.750			
0.8996	57574.55	3.2180	3.2180	-0.1436	26.52	0.80	-0.750			
0.9000	57601.96	3.2150	3.2150	-0.1421	26.52	0.80	-0.750			
0.9005	57629.00	3.2120	3.2120	-0.1398	26.53	0.81	-0.750			
0.9009	57655.66	3.2090	3.2090	-0.1380	26.53	0.81	-0.750			
0.9013	57681.93	3.2060	3.2060	-0.1367	26.54	0.82	-0.750			
0.9017	57708.10	3.2030	3.2030	-0.1353	26.54	0.82	-0.750			
0.9021	57733.85	3.2000	3.2000	-0.1336	26.54	0.82	-0.750			
0.9025	57759.36	3.1970	3.1969	-0.1321	26.55	0.83	-0.750			
0.9029	57784.49	3.1940	3.1941	-0.1311	26.55	0.83	-0.750			
0.9033	57809.62	3.1910	3.1909	-0.1296	26.56	0.84	-0.750			
0.9037	57834.51	3.1880	3.1880	-0.1287	26.56	0.84	-0.750			
0.9040	57859.10	3.1850	3.1849	-0.1271	26.56	0.84	-0.750			
0.9044	57883.28	3.1820	3.1821	-0.1254	26.57	0.85	-0.750			
0.9048	57907.01	3.1790	3.1791	-0.1246	26.57	0.85	-0.750			
0.9052	57930.74	3.1760	3.1760	-0.1233	26.57	0.85	-0.750			
0.9055	57954.38	3.1730	3.1730	-0.1224	26.58	0.86	-0.750			
0.9059	57977.55	3.1700	3.1699	-0.1210	26.58	0.86	-0.750			
0.9063	58000.74	3.1670	3.1670	-0.1205	26.58	0.86	-0.750			
0.9066	58023.98	3.1640	3.1640	-0.1198	26.59	0.87	-0.750			
0.9070	58047.03	3.1610	3.1611	-0.1185	26.59	0.87	-0.750			
0.9073	58069.94	3.1580	3.1580	-0.1177	26.60	0.88	-0.750			
0.9077	58092.32	3.1550	3.1550	-0.1163	26.60	0.88	-0.750			
0.9080	58114.35	3.1520	3.1519	-0.1146	26.60	0.88	-0.750			
0.9084	58136.09	3.1490	3.1489	-0.1138	26.60	0.88	-0.750			
0.9087	58157.80	3.1460	3.1460	-0.1129	26.61	0.89	-0.750			
0.9091	58179.37	3.1430	3.1430	-0.1122	26.61	0.89	-0.750			
0.9094	58200.68	3.1400	3.1399	-0.1113	26.61	0.89	-0.750			
0.9097	58222.11	3.1370	3.1370	-0.1105	26.62	0.90	-0.750			
0.9101	58243.38	3.1340	3.1340	-0.1100	26.62	0.90	-0.750			
0.9104	58264.42	3.1310	3.1311	-0.1092	26.62	0.90	-0.750			
0.9107	58285.44	3.1280	3.1280	-0.1086	26.63	0.91	-0.750			
0.9110	58306.12	3.1250	3.1249	-0.1078	26.63	0.91	-0.750			
0.9114	58326.62	3.1220	3.1220	-0.1068	26.64	0.92	-0.750			
0.9117	58347.09	3.1190	3.1190	-0.1060	26.64	0.92	-0.750			
0.9120	58367.36	3.1160	3.1159	-0.1053	26.65	0.93	-0.750			
0.9123	58387.44	3.1130	3.1131	-0.1047	26.65	0.93	-0.750			
0.9126	58407.50	3.1100	3.1102	-0.1042	26.66	0.94	-0.750			
0.9129	58427.43	3.1070	3.1069	-0.1036	26.66	0.94	-0.750			
0.9132	58447.21	3.1040	3.1040	-0.1030	26.67	0.95	-0.750			
0.9135	58467.07	3.1010	3.1009	-0.1022	26.67	0.95	-0.750			
0.9139	58486.68	3.0980	3.0981	-0.1016	26.67	0.95	-0.750			
0.9142	58506.01	3.0950	3.0950	-0.1010	26.68	0.96	-0.750			
0.9145	58525.42	3.0920	3.0920	-0.1005	26.68	0.96	-0.750			
0.9148	58544.64	3.0890	3.0890	-0.0997	26.69	0.97	-0.750			
0.9151	58563.63	3.0860	3.0859	-0.0989	26.69	0.97	-0.750			
0.9154	58582.53	3.0830	3.0830	-0.0983	26.70	0.98	-0.750			
0.9156	58601.31	3.0800	3.0801	-0.0977	26.70	0.98	-0.750			
0.9159	58619.96	3.0770	3.0771	-0.0974	26.70	0.98	-0.750			
0.9162	58638.69	3.0740	3.0739	-0.0972	26.71	0.99	-0.750			
0.9165	58657.41	3.0710	3.0710	-0.0964	26.71	0.99	-0.750			
0.9168	58675.80	3.0680	3.0680	-0.0957	26.72	1.00	-0.750			
0.9171	58694.12	3.0650	3.0650	-0.0951	26.72	1.00	-0.750			
0.9174	58712.46	3.0620	3.0621	-0.0947	26.72	1.00	-0.750			
0.9177	58730.47	3.0590	3.0589	-0.0943	26.73	1.01	-0.750			
0.9179	58748.45	3.0560	3.0560	-0.0936	26.73	1.01	-0.750			
0.9182	58766.41	3.0530	3.0530	-0.0931	26.74	1.02	-0.750			
0.9185	58784.10	3.0500	3.0500	-0.0925	26.74	1.02	-0.750			
0.9188	58801.91	3.0470	3.0470	-0.0920	26.74	1.02	-0.750			
0.9191	58819.71	3.0440	3.0440	-0.0918	26.75	1.03	-0.750			
0.9193	58837.23	3.0410	3.0410	-0.0912	26.75	1.03	-0.750			
0.9196	58854.69	3.0380	3.0381	-0.0906	26.75	1.03	-0.750			
0.9199	58871.97	3.0350	3.0350	-0.0902	26.76	1.04	-0.750			
0.9201	58889.12	3.0320	3.0320	-0.0895	26.76	1.04	-0.750			
0.9204	58906.22	3.0290	3.0290	-0.0894	26.76	1.04	-0.750			
0.9207	58923.30	3.0260	3.0261	-0.0891	26.77	1.05	-0.750			
0.9209	58940.45	3.0230	3.0230	-0.0889	26.77	1.05	-0.750			
0.9212	58957.49	3.0200	3.0200	-0.0887	26.77	1.05	-0.750			
0.9215	58974.51	3.0170	3.0170	-0.0885	26.78	1.06	-0.750			
0.9217	58991.72	3.0140	3.0140	-0.0876	26.78	1.06	-0.750			
0.9220	59008.46	3.0110	3.0110	-0.0868	26.78	1.06	-0.750			
0.9223	59025.30	3.0080	3.0080	-0.0857	26.79	1.07	-0.750			
0.9225	59041.61	3.0050	3.0051	-0.0842	26.79	1.07	-0.751			
0.9228	59057.63	3.0020	3.0020	-0.0814	26.79	1.07	-0.751			
