Ah_balance (normalized)	Ah_balance (mAh)	Voltage - fit (V)	Voltage -  interpolate (V)	dQ/dV (1/V)	Temperature (°C)	Temperature - diff (°C)	Current (C)	R_DC 0ms (mOhm)	R_DC 50ms (mOhm)	R_DC 50 ms PEC (mOhm)
0.0579	3705.95	4.1970	4.1970	0.7382	25.72	-0.26	0.750			
0.0600	3841.50	4.1940	4.1940	0.7122	25.72	-0.26	0.750			
0.0622	3982.57	4.1910	4.1911	0.7301	25.72	-0.26	0.750			
0.0644	4122.96	4.1880	4.1881	0.7422	25.73	-0.25	0.750			
0.0667	4269.34	4.1850	4.1851	0.7448	25.73	-0.25	0.750			
0.0690	4412.84	4.1820	4.1820	0.7453	25.74	-0.24	0.750			
0.0712	4555.95	4.1790	4.1790	0.7445	25.74	-0.24	0.750			
0.0734	4700.65	4.1760	4.1760	0.7487	25.74	-0.24	0.750			
0.0756	4840.79	4.1730	4.1729	0.7424	25.75	-0.23	0.750			
0.0779	4985.08	4.1700	4.1698	0.7456	25.75	-0.23	0.750			
0.0801	5126.92	4.1670	4.1672	0.7455	25.75	-0.23	0.750			
0.0824	5272.82	4.1640	4.1639	0.7470	25.75	-0.23	0.750			
0.0846	5415.90	4.1610	4.1611	0.7469	25.75	-0.23	0.750			
0.0868	5557.61	4.1580	4.1580	0.7438	25.75	-0.23	0.750			
0.0891	5700.12	4.1550	4.1550	0.7516	25.75	-0.23	0.750			
0.0913	5845.47	4.1520	4.1520	0.7550	25.75	-0.23	0.750			
0.0936	5991.62	4.1490	4.1490	0.7572	25.75	-0.23	0.750			
0.0959	6137.72	4.1460	4.1460	0.7599	25.75	-0.23	0.750			
0.0982	6284.72	4.1430	4.1431	0.7620	25.75	-0.23	0.750			
0.1005	6430.34	4.1400	4.1400	0.7615	25.75	-0.23	0.750			
0.1028	6577.54	4.1370	4.1368	0.7586	25.75	-0.23	0.750			
0.1050	6722.24	4.1340	4.1340	0.7543	25.75	-0.23	0.750			
0.1073	6868.45	4.1310	4.1310	0.7537	25.75	-0.23	0.750			
0.1096	7012.89	4.1280	4.1280	0.7555	25.75	-0.23	0.750			
0.1118	7154.94	4.1250	4.1250	0.7546	25.75	-0.23	0.750			
0.1141	7301.25	4.1220	4.1221	0.7613	25.75	-0.23	0.750			
0.1164	7447.24	4.1190	4.1191	0.7675	25.75	-0.23	0.750			
0.1187	7596.70	4.1160	4.1161	0.7736	25.75	-0.23	0.750			
0.1210	7746.64	4.1130	4.1130	0.7735	25.75	-0.23	0.750			
0.1234	7895.30	4.1100	4.1101	0.7732	25.76	-0.22	0.750			
0.1257	8042.60	4.1070	4.1071	0.7739	25.76	-0.22	0.750			
0.1280	8191.30	4.1040	4.1037	0.7768	25.76	-0.22	0.750			
0.1303	8340.91	4.1010	4.1010	0.7771	25.76	-0.22	0.750			
0.1327	8491.04	4.0980	4.0980	0.7708	25.76	-0.22	0.750			
0.1350	8639.98	4.0950	4.0951	0.7766	25.77	-0.21	0.750			
0.1373	8788.72	4.0920	4.0920	0.7785	25.77	-0.21	0.750			
0.1396	8935.58	4.0890	4.0890	0.7839	25.77	-0.21	0.750			
0.1420	9086.76	4.0860	4.0860	0.7864	25.77	-0.21	0.750			
0.1444	9240.79	4.0830	4.0830	0.7830	25.77	-0.21	0.750			
0.1467	9391.14	4.0800	4.0802	0.7870	25.77	-0.21	0.750			
0.1491	9543.72	4.0770	4.0770	0.7917	25.77	-0.21	0.750			
0.1514	9692.44	4.0740	4.0740	0.7897	25.77	-0.21	0.750			
0.1538	9842.75	4.0710	4.0709	0.7886	25.77	-0.21	0.750			
0.1562	9994.97	4.0680	4.0680	0.7894	25.77	-0.21	0.750			
0.1586	10149.50	4.0650	4.0651	0.7985	25.78	-0.20	0.750			
0.1610	10302.49	4.0620	4.0621	0.8034	25.78	-0.20	0.750			
0.1633	10454.32	4.0590	4.0590	0.8063	25.79	-0.19	0.750			
0.1658	10610.51	4.0560	4.0560	0.8084	25.79	-0.19	0.750			
0.1682	10766.64	4.0530	4.0530	0.8153	25.79	-0.19	0.750			
0.1707	10927.07	4.0500	4.0500	0.8127	25.79	-0.19	0.750			
0.1732	11081.92	4.0470	4.0471	0.8098	25.80	-0.18	0.750			
0.1755	11234.88	4.0440	4.0441	0.8092	25.80	-0.18	0.750			
0.1779	11386.28	4.0410	4.0405	0.8257	25.80	-0.18	0.750			
0.1804	11544.02	4.0380	4.0380	0.8354	25.80	-0.18	0.750			
0.1830	11709.00	4.0350	4.0349	0.8553	25.80	-0.18	0.750			
0.1856	11879.41	4.0320	4.0318	0.8696	25.81	-0.17	0.750			
0.1883	12053.23	4.0290	4.0293	0.8762	25.81	-0.17	0.750			
0.1909	12219.07	4.0260	4.0259	0.8636	25.81	-0.17	0.750			
0.1935	12384.61	4.0230	4.0230	0.8503	25.81	-0.17	0.750			
0.1959	12540.26	4.0200	4.0200	0.8314	25.81	-0.17	0.750			
0.1984	12700.25	4.0170	4.0170	0.8359	25.81	-0.17	0.750			
0.2009	12860.45	4.0140	4.0141	0.8376	25.81	-0.17	0.750			
0.2035	13021.67	4.0110	4.0109	0.8408	25.81	-0.17	0.750			
0.2060	13185.45	4.0080	4.0080	0.8394	25.81	-0.17	0.750			
0.2085	13345.83	4.0050	4.0050	0.8410	25.81	-0.17	0.750			
0.2111	13507.92	4.0020	4.0021	0.8429	25.82	-0.16	0.750			
0.2136	13668.81	3.9990	3.9991	0.8444	25.82	-0.16	0.750			
0.2161	13830.89	3.9960	3.9959	0.8485	25.82	-0.16	0.750			
0.2187	13995.36	3.9930	3.9930	0.8487	25.82	-0.16	0.750			
0.2212	14159.36	3.9900	3.9901	0.8510	25.82	-0.16	0.750			
0.2238	14322.50	3.9870	3.9870	0.8535	25.82	-0.16	0.750			
0.2264	14487.06	3.9840	3.9840	0.8527	25.82	-0.16	0.750			
0.2289	14650.01	3.9810	3.9810	0.8513	25.82	-0.16	0.750			
0.2315	14813.68	3.9780	3.9780	0.8470	25.82	-0.16	0.750			
0.2340	14976.86	3.9750	3.9751	0.8498	25.82	-0.16	0.750			
0.2366	15139.62	3.9720	3.9720	0.8547	25.82	-0.16	0.750			
0.2391	15302.74	3.9690	3.9691	0.8569	25.82	-0.16	0.750			
0.2417	15469.45	3.9660	3.9660	0.8473	25.82	-0.16	0.750			
0.2443	15634.85	3.9630	3.9630	0.8409	25.82	-0.16	0.750			
0.2468	15795.17	3.9600	3.9601	0.8429	25.82	-0.16	0.750			
0.2493	15955.29	3.9570	3.9570	0.8440	25.82	-0.16	0.750			
0.2518	16114.24	3.9540	3.9539	0.8418	25.82	-0.16	0.750			
0.2543	16275.63	3.9510	3.9512	0.8454	25.82	-0.16	0.750			
0.2569	16439.15	3.9480	3.9480	0.8534	25.82	-0.16	0.750			
0.2595	16606.39	3.9450	3.9450	0.8692	25.82	-0.16	0.750			
0.2621	16772.86	3.9420	3.9420	0.8723	25.82	-0.16	0.750			
0.2647	16940.90	3.9390	3.9388	0.8721	25.82	-0.16	0.750			
0.2673	17109.45	3.9360	3.9361	0.8753	25.82	-0.16	0.750			
0.2700	17277.49	3.9330	3.9331	0.8770	25.82	-0.16	0.750			
0.2726	17445.96	3.9300	3.9300	0.8806	25.81	-0.17	0.750			
0.2752	17615.22	3.9270	3.9269	0.8794	25.81	-0.17	0.750			
0.2779	17782.77	3.9240	3.9238	0.8785	25.81	-0.17	0.750			
0.2805	17955.01	3.9210	3.9211	0.8761	25.81	-0.17	0.750			
0.2832	18122.04	3.9180	3.9180	0.8806	25.81	-0.17	0.750			
0.2858	18289.88	3.9150	3.9150	0.8899	25.80	-0.18	0.750			
0.2884	18460.73	3.9120	3.9120	0.8986	25.80	-0.18	0.750			
0.2911	18632.96	3.9090	3.9087	0.9023	25.80	-0.18	0.750			
0.2939	18809.65	3.9060	3.9062	0.9053	25.80	-0.18	0.750			
0.2966	18984.90	3.9030	3.9030	0.9108	25.80	-0.18	0.750			
0.2994	19160.31	3.9000	3.9000	0.9109	25.79	-0.19	0.750			
0.3021	19331.81	3.8970	3.8970	0.9046	25.79	-0.19	0.750			
0.3048	19506.80	3.8940	3.8940	0.9048	25.79	-0.19	0.750			
0.3075	19681.38	3.8910	3.8910	0.9069	25.78	-0.20	0.750			
0.3102	19855.63	3.8880	3.8880	0.9124	25.78	-0.20	0.750			
0.3130	20030.51	3.8850	3.8851	0.9250	25.77	-0.21	0.750			
0.3157	20206.61	3.8820	3.8819	0.9287	25.77	-0.21	0.750			
0.3186	20390.53	3.8790	3.8789	0.9239	25.77	-0.21	0.750			
0.3214	20567.56	3.8760	3.8760	0.9285	25.76	-0.22	0.750			
0.3242	20747.58	3.8730	3.8732	0.9315	25.76	-0.22	0.750			
0.3270	20926.50	3.8700	3.8702	0.9298	25.75	-0.23	0.750			
0.3298	21104.00	3.8670	3.8671	0.9232	25.75	-0.23	0.750			
0.3325	21277.58	3.8640	3.8641	0.9157	25.74	-0.24	0.750			
0.3352	21455.17	3.8610	3.8610	0.9246	25.73	-0.25	0.750			
0.3381	21636.19	3.8580	3.8580	0.9333	25.73	-0.25	0.750			
0.3408	21811.46	3.8550	3.8549	0.9282	25.72	-0.26	0.750			
0.3436	21990.11	3.8520	3.8521	0.9288	25.72	-0.26	0.750			
0.3464	22168.44	3.8490	3.8490	0.9377	25.71	-0.27	0.750			
0.3492	22349.68	3.8460	3.8459	0.9454	25.71	-0.27	0.750			
0.3520	22531.00	3.8430	3.8430	0.9501	25.70	-0.28	0.750			
0.3550	22716.87	3.8400	3.8400	0.9417	25.70	-0.28	0.750			
0.3578	22899.66	3.8370	3.8370	0.9467	25.69	-0.29	0.750			
0.3606	23078.52	3.8340	3.8341	0.9547	25.68	-0.30	0.750			
0.3634	23259.62	3.8310	3.8311	0.9614	25.68	-0.30	0.750			
0.3663	23442.12	3.8280	3.8280	0.9692	25.67	-0.31	0.750			
0.3692	23630.19	3.8250	3.8250	0.9785	25.66	-0.32	0.750			
0.3722	23819.03	3.8220	3.8221	0.9962	25.65	-0.33	0.750			
0.3752	24015.55	3.8190	3.8191	1.0047	25.65	-0.33	0.750			
0.3783	24208.80	3.8160	3.8159	1.0112	25.64	-0.34	0.750			
0.3813	24402.06	3.8130	3.8131	1.0146	25.63	-0.35	0.750			
0.3843	24596.27	3.8100	3.8100	1.0273	25.63	-0.35	0.750			
0.3874	24794.77	3.8070	3.8070	1.0420	25.63	-0.35	0.750			
0.3906	24997.27	3.8040	3.8037	1.0529	25.62	-0.36	0.750			
0.3937	25198.66	3.8010	3.8011	1.0571	25.61	-0.37	0.750			
0.3970	25404.94	3.7980	3.7980	1.0726	25.61	-0.37	0.750			
0.4002	25612.79	3.7950	3.7950	1.0740	25.60	-0.38	0.750			
0.4034	25817.92	3.7920	3.7917	1.0832	25.60	-0.38	0.750			
0.4067	26026.38	3.7890	3.7893	1.1008	25.59	-0.39	0.750			
0.4100	26238.20	3.7860	3.7859	1.1250	25.59	-0.39	0.750			
0.4134	26460.44	3.7830	3.7831	1.1293	25.58	-0.40	0.750			
0.4168	26673.02	3.7800	3.7801	1.1370	25.58	-0.40	0.750			
0.4202	26891.88	3.7770	3.7771	1.1681	25.57	-0.41	0.750			
0.4237	27118.02	3.7740	3.7740	1.1984	25.57	-0.41	0.750			
0.4274	27351.53	3.7710	3.7715	1.2066	25.56	-0.42	0.750	0.302	0.445	
0.4310	27584.28	3.7680	3.7682	1.2440	25.56	-0.42	0.750			
0.4348	27826.03	3.7650	3.7652	1.2839	25.55	-0.43	0.750			
0.4388	28082.89	3.7620	3.7621	1.3203	25.54	-0.44	0.750			
0.4427	28334.56	3.7590	3.7592	1.3496	25.54	-0.44	0.750			
0.4468	28593.73	3.7560	3.7561	1.3827	25.53	-0.45	0.750			
0.4511	28867.68	3.7530	3.7530	1.4153	25.52	-0.46	0.750			
0.4554	29143.68	3.7500	3.7501	1.4592	25.52	-0.46	0.750			
0.4597	29422.65	3.7470	3.7471	1.4841	25.51	-0.47	0.750			
0.4642	29710.16	3.7440	3.7440	1.5054	25.50	-0.48	0.750			
0.4687	29999.71	3.7410	3.7409	1.5487	25.49	-0.49	0.750			
0.4734	30296.61	3.7380	3.7383	1.5845	25.49	-0.49	0.750			
0.4782	30603.98	3.7350	3.7347	1.6416	25.48	-0.50	0.750			
0.4832	30923.73	3.7320	3.7321	1.6867	25.47	-0.51	0.750			
0.4884	31255.00	3.7290	3.7291	1.7378	25.46	-0.52	0.750			
0.4938	31600.84	3.7260	3.7258	1.7832	25.45	-0.53	0.750			
0.4992	31947.07	3.7230	3.7230	1.8050	25.45	-0.53	0.750			
0.5047	32299.03	3.7200	3.7200	1.8563	25.44	-0.54	0.750			
0.5103	32659.58	3.7170	3.7171	1.8871	25.43	-0.55	0.750			
0.5159	33017.73	3.7140	3.7137	1.9224	25.42	-0.56	0.750			
0.5218	33394.12	3.7110	3.7114	1.9881	25.41	-0.57	0.750			
0.5277	33771.16	3.7080	3.7079	2.0714	25.41	-0.57	0.750			
0.5340	34177.70	3.7050	3.7050	2.1253	25.41	-0.57	0.750			
0.5405	34595.01	3.7020	3.7022	2.1845	25.40	-0.58	0.750			
0.5473	35025.19	3.6990	3.6989	2.2667	25.40	-0.58	0.750			
0.5542	35466.67	3.6960	3.6958	2.3068	25.40	-0.58	0.750			
0.5611	35909.66	3.6930	3.6930	2.4016	25.39	-0.59	0.750			
0.5683	36370.89	3.6900	3.6901	2.4754	25.38	-0.60	0.750			
0.5760	36863.08	3.6870	3.6870	2.6135	25.38	-0.60	0.750			
0.5840	37374.04	3.6840	3.6840	2.6610	25.38	-0.60	0.750			
0.5921	37895.84	3.6810	3.6810	2.7185	25.38	-0.60	0.750			
0.6003	38417.26	3.6780	3.6779	2.7802	25.38	-0.60	0.750			
0.6090	38974.84	3.6750	3.6747	2.7386	25.38	-0.60	0.750			
0.6174	39513.90	3.6720	3.6720	2.6211	25.38	-0.60	0.750			
0.6252	40011.03	3.6690	3.6689	2.4294	25.40	-0.58	0.750			
0.6319	40442.56	3.6660	3.6659	2.1733	25.41	-0.57	0.750			
0.6378	40822.36	3.6630	3.6632	1.9370	25.42	-0.56	0.750			
0.6430	41153.57	3.6600	3.6601	1.7536	25.42	-0.56	0.750			
0.6479	41467.42	3.6570	3.6572	1.6167	25.42	-0.56	0.750			
0.6526	41765.05	3.6540	3.6536	1.5020	25.42	-0.56	0.750			
0.6569	42044.43	3.6510	3.6512	1.4245	25.43	-0.55	0.750			
0.6611	42312.44	3.6480	3.6481	1.3558	25.43	-0.55	0.750			
0.6650	42558.07	3.6450	3.6447	1.2715	25.44	-0.54	0.750			
0.6686	42787.74	3.6420	3.6421	1.2042	25.44	-0.54	0.750			
0.6721	43014.32	3.6390	3.6390	1.1818	25.45	-0.53	0.750			
0.6755	43233.70	3.6360	3.6362	1.1737	25.46	-0.52	0.750			
0.6790	43457.83	3.6330	3.6330	1.1542	25.46	-0.52	0.750			
0.6825	43677.68	3.6300	3.6300	1.1645	25.47	-0.51	0.750			
0.6860	43901.80	3.6270	3.6271	1.1723	25.47	-0.51	0.750			
0.6896	44133.66	3.6240	3.6239	1.1685	25.48	-0.50	0.750			
0.6931	44358.75	3.6210	3.6211	1.1611	25.48	-0.50	0.750			
0.6966	44581.20	3.6180	3.6181	1.1581	25.49	-0.49	0.750			
0.7001	44803.70	3.6150	3.6151	1.1472	25.50	-0.48	0.750			
0.7035	45027.16	3.6120	3.6117	1.1216	25.50	-0.48	0.750			
0.7068	45237.93	3.6090	3.6090	1.1127	25.50	-0.48	0.750			
0.7101	45449.45	3.6060	3.6062	1.1052	25.50	-0.48	0.750			
0.7134	45658.36	3.6030	3.6032	1.1161	25.50	-0.48	0.750			
0.7168	45872.09	3.6000	3.6000	1.1095	25.50	-0.48	0.750			
0.7200	46082.18	3.5970	3.5971	1.1426	25.51	-0.47	0.750			
0.7235	46301.75	3.5940	3.5941	1.1777	25.51	-0.47	0.750			
0.7271	46534.33	3.5910	3.5909	1.2051	25.52	-0.46	0.750			
0.7307	46767.51	3.5880	3.5881	1.2448	25.52	-0.46	0.750			
0.7345	47009.97	3.5850	3.5852	1.2962	25.53	-0.45	0.750			
0.7385	47263.22	3.5820	3.5821	1.3390	25.54	-0.44	0.750			
0.7426	47525.82	3.5790	3.5791	1.3827	25.54	-0.44	0.750			
0.7467	47789.41	3.5760	3.5761	1.4102	25.55	-0.43	0.750			
0.7510	48065.93	3.5730	3.5731	1.4561	25.56	-0.42	0.750			
0.7556	48358.05	3.5700	3.5696	1.4867	25.56	-0.42	0.750			
0.7600	48642.79	3.5670	3.5666	1.5176	25.56	-0.42	0.750			
0.7646	48935.19	3.5640	3.5641	1.5478	25.56	-0.42	0.750			
0.7694	49242.59	3.5610	3.5611	1.5751	25.57	-0.41	0.750			
0.7741	49544.97	3.5580	3.5580	1.5841	25.59	-0.39	0.750			
0.7789	49851.31	3.5550	3.5546	1.6009	25.60	-0.38	0.750			
0.7838	50165.59	3.5520	3.5523	1.6180	25.61	-0.37	0.750			
0.7888	50480.06	3.5490	3.5489	1.6430	25.62	-0.36	0.750			
0.7936	50791.93	3.5460	3.5461	1.6575	25.62	-0.36	0.750			
0.7986	51109.45	3.5430	3.5431	1.6621	25.63	-0.35	0.750			
0.8037	51434.69	3.5400	3.5396	1.7115	25.64	-0.34	0.750			
0.8092	51791.75	3.5370	3.5366	1.6707	25.67	-0.31	0.750			
0.8144	52118.69	3.5340	3.5339	1.5508	25.70	-0.28	0.750			
0.8193	52432.47	3.5310	3.5317	1.3630	25.73	-0.25	0.750			
0.8234	52696.75	3.5280	3.5285	1.1373	25.75	-0.23	0.750			
0.8262	52878.06	3.5250	3.5253	0.8810	25.77	-0.21	0.750			
0.8282	53005.57	3.5220	3.5217	0.6411	25.78	-0.20	0.750			
0.8294	53081.60	3.5190	3.5188	0.4795	25.79	-0.19	0.750			
0.8306	53157.20	3.5160	3.5159	0.4041	25.80	-0.18	0.750			
0.8316	53220.10	3.5130	3.5130	0.3607	25.81	-0.17	0.750			
0.8326	53286.11	3.5100	3.5099	0.3391	25.81	-0.17	0.750			
0.8335	53346.78	3.5070	3.5070	0.3180	25.82	-0.16	0.750			
0.8345	53406.02	3.5040	3.5039	0.3052	25.83	-0.15	0.750			
0.8354	53463.66	3.5010	3.5012	0.2939	25.83	-0.15	0.750			
0.8362	53518.59	3.4980	3.4980	0.2837	25.84	-0.14	0.750			
0.8371	53571.53	3.4950	3.4950	0.2740	25.85	-0.13	0.750			
0.8379	53623.31	3.4920	3.4919	0.2663	25.85	-0.13	0.750			
0.8386	53672.77	3.4890	3.4890	0.2590	25.86	-0.12	0.750			
0.8394	53722.13	3.4860	3.4860	0.2546	25.86	-0.12	0.750			
0.8402	53770.58	3.4830	3.4829	0.2483	25.87	-0.11	0.750			
0.8409	53817.94	3.4800	3.4799	0.2429	25.88	-0.10	0.750			
0.8416	53863.75	3.4770	3.4770	0.2372	25.89	-0.09	0.750			
0.8423	53908.87	3.4740	3.4741	0.2329	25.89	-0.09	0.750			
0.8430	53953.06	3.4710	3.4710	0.2275	25.90	-0.08	0.750			
0.8437	53996.31	3.4680	3.4679	0.2222	25.90	-0.08	0.750			
0.8443	54038.27	3.4650	3.4650	0.2156	25.91	-0.07	0.750			
0.8450	54079.05	3.4620	3.4621	0.2103	25.91	-0.07	0.750			
0.8456	54119.51	3.4590	3.4590	0.2059	25.92	-0.06	0.750			
0.8462	54158.21	3.4560	3.4561	0.2010	25.92	-0.06	0.750			
0.8468	54195.91	3.4530	3.4529	0.1955	25.93	-0.05	0.750			
0.8474	54233.11	3.4500	3.4500	0.1894	25.93	-0.05	0.750			
0.8480	54269.20	3.4470	3.4469	0.1845	25.94	-0.04	0.750			
0.8485	54304.12	3.4440	3.4441	0.1782	25.94	-0.04	0.750			
0.8490	54338.06	3.4410	3.4411	0.1729	25.95	-0.03	0.750			
0.8495	54370.18	3.4380	3.4379	0.1669	25.95	-0.03	0.750			
0.8500	54401.70	3.4350	3.4350	0.1614	25.96	-0.02	0.750			
0.8505	54431.86	3.4320	3.4320	0.1553	25.96	-0.02	0.750			
0.8510	54461.32	3.4290	3.4289	0.1494	25.96	-0.02	0.750			
0.8514	54489.88	3.4260	3.4262	0.1443	25.97	-0.01	0.750			
0.8518	54516.92	3.4230	3.4230	0.1383	25.97	-0.01	0.750			
0.8522	54542.96	3.4200	3.4199	0.1323	25.97	-0.01	0.750			
0.8526	54567.66	3.4170	3.4170	0.1258	25.98	-0.00	0.750			
0.8530	54591.40	3.4140	3.4138	0.1188	25.98	-0.00	0.750			
0.8533	54613.57	3.4110	3.4111	0.1121	25.98	0.00	0.750			
0.8537	54634.82	3.4080	3.4080	0.1057	25.99	0.01	0.750			
0.8540	54655.66	3.4050	3.4050	0.0968	25.99	0.01	0.750			
0.8543	54673.27	3.4020	3.4019	0.0866	25.99	0.01	0.750			
0.8545	54689.42	3.3990	3.3992	0.0775	25.99	0.01	0.750			
0.8547	54703.26	3.3960	3.3962	0.0667	25.99	0.01	0.750			
0.8549	54715.79	3.3930	3.3936	0.0565	26.00	0.02	0.750			
0.8551	54725.53	3.3900	3.3908	0.0450	26.00	0.02	0.750			
0.8552	54733.07	3.3870	3.3884	0.0336	26.00	0.02	0.750			
0.8553	54738.42	3.3840	3.3860	0.0221	26.00	0.02	0.750			
0.8553	54741.57	3.3810	3.3847	0.0107	26.00	0.02	0.750			
