Ah_balance (normalized)	Ah_balance (mAh)	Voltage - fit (V)	Voltage -  interpolate (V)	dQ/dV (1/V)	Temperature (°C)	Temperature - diff (°C)	Current (C)	R_DC 0ms (mOhm)	R_DC 50ms (mOhm)	R_DC 50 ms PEC (mOhm)
0.0003	20.11	4.1660	4.1657	-0.1301	25.47	0.00	-0.750			
0.0008	49.04	4.1630	4.1626	-0.1755	25.47	0.00	-0.750			
0.0014	88.25	4.1600	4.1600	-0.2226	25.47	0.00	-0.750			
0.0021	135.56	4.1570	4.1570	-0.2672	25.47	-0.00	-0.750			
0.0030	191.32	4.1540	4.1540	-0.3103	25.47	-0.00	-0.750			
0.0040	255.09	4.1510	4.1511	-0.3572	25.46	-0.01	-0.750			
0.0051	327.83	4.1480	4.1480	-0.3984	25.46	-0.01	-0.750			
0.0064	410.02	4.1450	4.1449	-0.4394	25.46	-0.01	-0.750			
0.0078	498.22	4.1420	4.1420	-0.4770	25.46	-0.01	-0.750			
0.0093	594.75	4.1390	4.1391	-0.5148	25.45	-0.02	-0.750			
0.0109	697.75	4.1360	4.1360	-0.5428	25.45	-0.02	-0.750			
0.0126	806.30	4.1330	4.1329	-0.5704	25.44	-0.03	-0.750			
0.0143	917.60	4.1300	4.1302	-0.5944	25.44	-0.03	-0.750			
0.0162	1035.58	4.1270	4.1270	-0.6181	25.43	-0.04	-0.750			
0.0181	1156.89	4.1240	4.1240	-0.6347	25.43	-0.04	-0.750			
0.0200	1280.44	4.1210	4.1210	-0.6527	25.43	-0.04	-0.750			
0.0220	1408.30	4.1180	4.1181	-0.6663	25.42	-0.05	-0.750			
0.0240	1538.57	4.1150	4.1149	-0.6777	25.42	-0.05	-0.750			
0.0261	1669.82	4.1120	4.1120	-0.6874	25.41	-0.06	-0.750			
0.0282	1802.39	4.1090	4.1091	-0.6934	25.41	-0.06	-0.750			
0.0303	1936.97	4.1060	4.1060	-0.7024	25.41	-0.06	-0.750			
0.0324	2072.35	4.1030	4.1030	-0.7149	25.41	-0.06	-0.750			
0.0345	2210.63	4.1000	4.0999	-0.7197	25.40	-0.07	-0.750			
0.0368	2352.03	4.0970	4.0969	-0.7274	25.40	-0.07	-0.750			
0.0389	2491.29	4.0940	4.0944	-0.7307	25.40	-0.07	-0.750			
0.0411	2632.01	4.0910	4.0910	-0.7344	25.40	-0.07	-0.750			
0.0433	2773.16	4.0880	4.0880	-0.7376	25.40	-0.07	-0.750			
0.0455	2913.01	4.0850	4.0849	-0.7368	25.40	-0.07	-0.750			
0.0478	3056.34	4.0820	4.0821	-0.7444	25.40	-0.07	-0.750			
0.0500	3199.39	4.0790	4.0790	-0.7457	25.40	-0.07	-0.750			
0.0522	3343.55	4.0760	4.0760	-0.7527	25.40	-0.07	-0.750			
0.0545	3487.68	4.0730	4.0730	-0.7544	25.40	-0.07	-0.750			
0.0568	3632.40	4.0700	4.0700	-0.7594	25.40	-0.07	-0.750			
0.0591	3779.67	4.0670	4.0671	-0.7612	25.39	-0.08	-0.750			
0.0613	3926.18	4.0640	4.0640	-0.7657	25.39	-0.08	-0.750			
0.0636	4073.22	4.0610	4.0610	-0.7681	25.39	-0.08	-0.750			
0.0660	4221.01	4.0580	4.0579	-0.7693	25.39	-0.08	-0.750			
0.0682	4367.88	4.0550	4.0550	-0.7719	25.39	-0.08	-0.750			
0.0706	4517.29	4.0520	4.0520	-0.7709	25.40	-0.07	-0.750			
0.0729	4664.52	4.0490	4.0490	-0.7748	25.40	-0.07	-0.750			
0.0752	4815.72	4.0460	4.0460	-0.7766	25.40	-0.07	-0.750			
0.0776	4963.62	4.0430	4.0430	-0.7763	25.40	-0.07	-0.750			
0.0799	5112.20	4.0400	4.0399	-0.7791	25.40	-0.07	-0.750			
0.0822	5262.53	4.0370	4.0370	-0.7808	25.40	-0.07	-0.750			
0.0846	5412.86	4.0340	4.0339	-0.7800	25.40	-0.07	-0.750			
0.0869	5563.19	4.0310	4.0311	-0.7831	25.40	-0.07	-0.750			
0.0893	5712.03	4.0280	4.0281	-0.7865	25.40	-0.07	-0.750			
0.0916	5864.74	4.0250	4.0250	-0.7923	25.40	-0.07	-0.750			
0.0940	6016.59	4.0220	4.0219	-0.7938	25.41	-0.06	-0.750			
0.0964	6170.32	4.0190	4.0191	-0.7955	25.41	-0.06	-0.750			
0.0988	6325.53	4.0160	4.0160	-0.7979	25.42	-0.05	-0.750			
0.1012	6478.31	4.0130	4.0131	-0.7965	25.42	-0.05	-0.750			
0.1036	6629.93	4.0100	4.0099	-0.7949	25.42	-0.05	-0.750			
0.1060	6780.82	4.0070	4.0070	-0.7994	25.42	-0.05	-0.750			
0.1084	6934.62	4.0040	4.0039	-0.8055	25.42	-0.05	-0.750			
0.1108	7090.71	4.0010	4.0010	-0.8085	25.42	-0.05	-0.750			
0.1133	7249.09	3.9980	3.9980	-0.8132	25.42	-0.05	-0.750			
0.1157	7405.13	3.9950	3.9950	-0.8126	25.42	-0.05	-0.750			
0.1181	7560.52	3.9920	3.9921	-0.8160	25.43	-0.04	-0.750			
0.1206	7717.51	3.9890	3.9890	-0.8151	25.43	-0.04	-0.750			
0.1230	7872.88	3.9860	3.9859	-0.8132	25.43	-0.04	-0.750			
0.1255	8030.30	3.9830	3.9830	-0.8161	25.44	-0.03	-0.750			
0.1279	8187.50	3.9800	3.9800	-0.8181	25.44	-0.03	-0.750			
0.1304	8344.99	3.9770	3.9770	-0.8231	25.45	-0.02	-0.750			
0.1329	8502.58	3.9740	3.9740	-0.8224	25.45	-0.02	-0.750			
0.1353	8659.83	3.9710	3.9710	-0.8190	25.45	-0.02	-0.750			
0.1378	8818.80	3.9680	3.9680	-0.8234	25.46	-0.01	-0.750			
0.1403	8976.35	3.9650	3.9650	-0.8260	25.46	-0.01	-0.750			
0.1427	9134.07	3.9620	3.9620	-0.8317	25.46	-0.01	-0.750			
0.1452	9294.42	3.9590	3.9589	-0.8331	25.46	-0.01	-0.750			
0.1477	9454.54	3.9560	3.9560	-0.8347	25.47	-0.00	-0.750			
0.1503	9616.74	3.9530	3.9530	-0.8371	25.47	-0.00	-0.750			
0.1528	9778.65	3.9500	3.9500	-0.8408	25.47	0.00	-0.750			
0.1553	9938.66	3.9470	3.9470	-0.8424	25.47	0.00	-0.750			
0.1578	10099.75	3.9440	3.9439	-0.8406	25.47	0.00	-0.750			
0.1603	10261.26	3.9410	3.9410	-0.8402	25.48	0.01	-0.750			
0.1629	10423.39	3.9380	3.9380	-0.8480	25.48	0.01	-0.750			
0.1654	10586.78	3.9350	3.9351	-0.8527	25.48	0.01	-0.750			
0.1680	10750.85	3.9320	3.9319	-0.8564	25.49	0.02	-0.750			
0.1705	10914.95	3.9290	3.9289	-0.8565	25.49	0.02	-0.750			
0.1731	11080.60	3.9260	3.9261	-0.8566	25.49	0.02	-0.750			
0.1757	11246.21	3.9230	3.9229	-0.8596	25.50	0.03	-0.750			
0.1783	11411.43	3.9200	3.9200	-0.8616	25.50	0.03	-0.750			
0.1809	11575.83	3.9170	3.9170	-0.8629	25.51	0.04	-0.750			
0.1835	11741.06	3.9140	3.9139	-0.8635	25.51	0.04	-0.750			
0.1861	11907.69	3.9110	3.9109	-0.8596	25.52	0.05	-0.750			
0.1887	12074.60	3.9080	3.9081	-0.8656	25.52	0.05	-0.750			
0.1912	12239.78	3.9050	3.9050	-0.8691	25.52	0.05	-0.750			
0.1938	12406.13	3.9020	3.9020	-0.8684	25.53	0.06	-0.750			
0.1965	12572.86	3.8990	3.8989	-0.8685	25.53	0.06	-0.750			
0.1990	12738.53	3.8960	3.8961	-0.8700	25.54	0.07	-0.750			
0.2017	12908.22	3.8930	3.8931	-0.8741	25.54	0.07	-0.750			
0.2043	13075.48	3.8900	3.8900	-0.8781	25.54	0.07	-0.750			
0.2069	13243.55	3.8870	3.8870	-0.8774	25.55	0.08	-0.750			
0.2096	13412.15	3.8840	3.8839	-0.8809	25.55	0.08	-0.750			
0.2122	13583.29	3.8810	3.8810	-0.8843	25.56	0.09	-0.750			
0.2149	13753.85	3.8780	3.8781	-0.8840	25.56	0.09	-0.750			
0.2175	13923.13	3.8750	3.8750	-0.8865	25.57	0.10	-0.750			
0.2202	14093.69	3.8720	3.8720	-0.8870	25.57	0.10	-0.750			
0.2228	14262.26	3.8690	3.8689	-0.8823	25.58	0.11	-0.750			
0.2255	14432.39	3.8660	3.8659	-0.8848	25.59	0.12	-0.750			
0.2282	14601.99	3.8630	3.8630	-0.8865	25.59	0.12	-0.750			
0.2308	14773.06	3.8600	3.8600	-0.8870	25.60	0.13	-0.750			
0.2335	14942.46	3.8570	3.8570	-0.8891	25.60	0.13	-0.750			
0.2362	15113.97	3.8540	3.8540	-0.8851	25.61	0.14	-0.750			
0.2388	15285.83	3.8510	3.8510	-0.8855	25.61	0.14	-0.750			
0.2415	15455.74	3.8480	3.8480	-0.8801	25.61	0.14	-0.750			
0.2441	15623.72	3.8450	3.8451	-0.8757	25.62	0.15	-0.750			
0.2467	15789.06	3.8420	3.8420	-0.8785	25.62	0.15	-0.750			
0.2493	15956.17	3.8390	3.8389	-0.8827	25.63	0.16	-0.750			
0.2519	16124.28	3.8360	3.8361	-0.8877	25.63	0.16	-0.750			
0.2546	16297.35	3.8330	3.8330	-0.9024	25.64	0.17	-0.750			
0.2574	16474.62	3.8300	3.8300	-0.9100	25.64	0.17	-0.750			
0.2602	16651.56	3.8270	3.8269	-0.9134	25.65	0.18	-0.750			
0.2629	16827.90	3.8240	3.8241	-0.9098	25.66	0.19	-0.750			
0.2657	17001.93	3.8210	3.8210	-0.9049	25.66	0.19	-0.750			
0.2684	17174.42	3.8180	3.8180	-0.9036	25.67	0.20	-0.750			
0.2710	17347.02	3.8150	3.8149	-0.9005	25.67	0.20	-0.750			
0.2737	17517.51	3.8120	3.8120	-0.8969	25.68	0.21	-0.750			
0.2764	17692.07	3.8090	3.8090	-0.9046	25.68	0.21	-0.750			
0.2791	17865.23	3.8060	3.8060	-0.9066	25.68	0.21	-0.750			
0.2819	18040.84	3.8030	3.8030	-0.9048	25.68	0.21	-0.750			
0.2846	18213.86	3.8000	3.8000	-0.9018	25.69	0.22	-0.750			
0.2873	18386.90	3.7970	3.7970	-0.9017	25.69	0.22	-0.750			
0.2900	18560.50	3.7940	3.7940	-0.9023	25.69	0.22	-0.750			
0.2927	18733.17	3.7910	3.7910	-0.9088	25.70	0.23	-0.750			
0.2954	18908.07	3.7880	3.7880	-0.9064	25.71	0.24	-0.750			
0.2982	19084.23	3.7850	3.7848	-0.9036	25.71	0.24	-0.750			
0.3009	19259.16	3.7820	3.7822	-0.9021	25.72	0.25	-0.750			
0.3036	19430.34	3.7790	3.7789	-0.9000	25.72	0.25	-0.750			
0.3063	19601.53	3.7760	3.7760	-0.8961	25.73	0.26	-0.750			
0.3089	19771.85	3.7730	3.7729	-0.8920	25.74	0.27	-0.750			
0.3116	19941.91	3.7700	3.7701	-0.8938	25.74	0.27	-0.750			
0.3143	20117.75	3.7670	3.7671	-0.9019	25.75	0.28	-0.750			
0.3170	20290.00	3.7640	3.7640	-0.9073	25.75	0.28	-0.750			
0.3198	20465.85	3.7610	3.7609	-0.9041	25.76	0.29	-0.750			
0.3225	20639.72	3.7580	3.7580	-0.9002	25.76	0.29	-0.750			
0.3252	20812.99	3.7550	3.7550	-0.9005	25.77	0.30	-0.750			
0.3279	20984.95	3.7520	3.7521	-0.9010	25.77	0.30	-0.750			
0.3306	21157.21	3.7490	3.7489	-0.9089	25.78	0.31	-0.750			
0.3333	21333.89	3.7460	3.7459	-0.9068	25.78	0.31	-0.750			
0.3361	21507.72	3.7430	3.7429	-0.9058	25.79	0.32	-0.750			
0.3388	21682.85	3.7400	3.7404	-0.9160	25.79	0.32	-0.750			
0.3416	21860.02	3.7370	3.7369	-0.9179	25.79	0.32	-0.750			
0.3443	22034.84	3.7340	3.7338	-0.9181	25.79	0.32	-0.750			
0.3470	22207.88	3.7310	3.7310	-0.9193	25.80	0.33	-0.750			
0.3498	22386.11	3.7280	3.7281	-0.9377	25.80	0.33	-0.750			
0.3526	22567.19	3.7250	3.7250	-0.9479	25.80	0.33	-0.750			
0.3555	22750.18	3.7220	3.7219	-0.9591	25.80	0.33	-0.750			
0.3584	22935.75	3.7190	3.7190	-0.9664	25.81	0.34	-0.750			
0.3613	23123.39	3.7160	3.7160	-0.9842	25.81	0.34	-0.750			
0.3643	23312.00	3.7130	3.7132	-0.9994	25.81	0.34	-0.750			
0.3672	23503.83	3.7100	3.7099	-1.0112	25.81	0.34	-0.750			
0.3703	23699.98	3.7070	3.7069	-1.0217	25.81	0.34	-0.750			
0.3734	23897.65	3.7040	3.7040	-1.0348	25.81	0.34	-0.750			
0.3765	24098.82	3.7010	3.7014	-1.0557	25.81	0.34	-0.750			
0.3797	24302.14	3.6980	3.6979	-1.0690	25.81	0.34	-0.750			
0.3829	24505.89	3.6950	3.6950	-1.0827	25.82	0.35	-0.750			
0.3862	24715.76	3.6920	3.6920	-1.1027	25.82	0.35	-0.750			
0.3895	24927.92	3.6890	3.6891	-1.1378	25.82	0.35	-0.750			
0.3930	25151.31	3.6860	3.6860	-1.1674	25.82	0.35	-0.750			
0.3965	25378.41	3.6830	3.6829	-1.1912	25.82	0.35	-0.750			
0.4001	25608.31	3.6800	3.6800	-1.2213	25.82	0.35	-0.750			
0.4039	25846.72	3.6770	3.6770	-1.2480	25.82	0.35	-0.750			
0.4077	26089.68	3.6740	3.6739	-1.2694	25.82	0.35	-0.750			
0.4115	26333.38	3.6710	3.6710	-1.2958	25.81	0.34	-0.750			
0.4153	26581.86	3.6680	3.6682	-1.3183	25.81	0.34	-0.750			
0.4194	26841.79	3.6650	3.6650	-1.3509	25.81	0.34	-0.750			
0.4235	27102.39	3.6620	3.6619	-1.3794	25.80	0.33	-0.750			
0.4276	27368.32	3.6590	3.6591	-1.4107	25.80	0.33	-0.750			
0.4320	27645.22	3.6560	3.6559	-1.4470	25.80	0.33	-0.750			
0.4364	27926.65	3.6530	3.6530	-1.4942	25.79	0.32	-0.750			
0.4409	28215.35	3.6500	3.6500	-1.5350	25.79	0.32	-0.750			
0.4456	28516.32	3.6470	3.6469	-1.5688	25.78	0.31	-0.750			
0.4503	28822.04	3.6440	3.6440	-1.6010	25.77	0.30	-0.750			
0.4552	29129.89	3.6410	3.6410	-1.6408	25.76	0.29	-0.750			
0.4603	29456.99	3.6380	3.6378	-1.6583	25.76	0.29	-0.750			
0.4653	29778.09	3.6350	3.6350	-1.6747	25.75	0.28	-0.750			
0.4703	30097.11	3.6320	3.6323	-1.6970	25.75	0.28	-0.750			
0.4754	30425.15	3.6290	3.6291	-1.7261	25.74	0.27	-0.750	0.409	0.488	
0.4805	30754.40	3.6260	3.6258	-1.7613	25.73	0.26	-0.750			
0.4859	31098.91	3.6230	3.6231	-1.7798	25.71	0.24	-0.750			
0.4912	31439.33	3.6200	3.6199	-1.8413	25.70	0.23	-0.750			
0.4969	31800.93	3.6170	3.6172	-1.8988	25.70	0.23	-0.750			
0.5027	32169.79	3.6140	3.6139	-1.9381	25.70	0.23	-0.750			
0.5086	32548.71	3.6110	3.6111	-1.9900	25.69	0.22	-0.750			
0.5146	32934.75	3.6080	3.6081	-2.0083	25.68	0.21	-0.750			
0.5208	33328.23	3.6050	3.6049	-2.0453	25.67	0.20	-0.750			
0.5271	33733.25	3.6020	3.6021	-2.0737	25.66	0.19	-0.750			
0.5332	34126.12	3.5990	3.5988	-2.0906	25.65	0.18	-0.750			
0.5395	34527.82	3.5960	3.5961	-2.1533	25.64	0.17	-0.750			
0.5460	34943.71	3.5930	3.5931	-2.1901	25.64	0.17	-0.750			
0.5527	35371.85	3.5900	3.5901	-2.2380	25.64	0.17	-0.750			
0.5595	35805.19	3.5870	3.5871	-2.2710	25.63	0.16	-0.750			
0.5664	36250.21	3.5840	3.5840	-2.3155	25.62	0.15	-0.750			
0.5735	36703.92	3.5810	3.5809	-2.3291	25.62	0.15	-0.750			
0.5804	37143.18	3.5780	3.5780	-2.3305	25.62	0.15	-0.750			
0.5874	37594.72	3.5750	3.5751	-2.3718	25.61	0.14	-0.750			
0.5946	38057.07	3.5720	3.5718	-2.3893	25.61	0.14	-0.750			
0.6018	38517.17	3.5690	3.5689	-2.4032	25.62	0.15	-0.750			
0.6092	38986.97	3.5660	3.5661	-2.4107	25.61	0.14	-0.750			
0.6164	39451.49	3.5630	3.5629	-2.4207	25.60	0.13	-0.750			
0.6236	39911.70	3.5600	3.5602	-2.4171	25.60	0.13	-0.750			
0.6308	40370.54	3.5570	3.5571	-2.4098	25.60	0.13	-0.750			
0.6381	40837.20	3.5540	3.5540	-2.4238	25.60	0.13	-0.750			
0.6454	41304.01	3.5510	3.5509	-2.4130	25.60	0.13	-0.750			
0.6527	41771.32	3.5480	3.5480	-2.4137	25.60	0.13	-0.750			
0.6600	42238.64	3.5450	3.5449	-2.3893	25.61	0.14	-0.750			
0.6671	42695.12	3.5420	3.5420	-2.3395	25.61	0.14	-0.750			
0.6740	43137.54	3.5390	3.5391	-2.2854	25.62	0.15	-0.750			
0.6808	43571.68	3.5360	3.5360	-2.2439	25.62	0.15	-0.750			
0.6874	43996.10	3.5330	3.5329	-2.1974	25.62	0.15	-0.750			
0.6940	44415.37	3.5300	3.5300	-2.1622	25.62	0.15	-0.750			
0.7005	44829.43	3.5270	3.5269	-2.1019	25.63	0.16	-0.750			
0.7068	45233.44	3.5240	3.5240	-2.0412	25.63	0.16	-0.750			
0.7128	45622.18	3.5210	3.5210	-1.9841	25.64	0.17	-0.750			
0.7187	45994.28	3.5180	3.5180	-1.9039	25.65	0.18	-0.750			
0.7242	46347.79	3.5150	3.5149	-1.8250	25.67	0.20	-0.750			
0.7296	46693.48	3.5120	3.5118	-1.7581	25.68	0.21	-0.750			
0.7347	47022.92	3.5090	3.5088	-1.7157	25.69	0.22	-0.750			
0.7399	47355.50	3.5060	3.5060	-1.6571	25.70	0.23	-0.750			
0.7448	47667.30	3.5030	3.5032	-1.5888	25.72	0.25	-0.750			
0.7494	47960.94	3.5000	3.5001	-1.5246	25.73	0.26	-0.750			
0.7539	48248.44	3.4970	3.4970	-1.4693	25.75	0.28	-0.750			
0.7582	48526.79	3.4940	3.4938	-1.4225	25.76	0.29	-0.750			
0.7624	48791.38	3.4910	3.4910	-1.3834	25.77	0.30	-0.750			
0.7664	49052.06	3.4880	3.4879	-1.3341	25.79	0.32	-0.750			
0.7704	49308.64	3.4850	3.4849	-1.2914	25.80	0.33	-0.750			
0.7743	49552.10	3.4820	3.4820	-1.2370	25.81	0.34	-0.750			
0.7778	49781.59	3.4790	3.4791	-1.1945	25.83	0.36	-0.750			
0.7814	50009.28	3.4760	3.4759	-1.1570	25.84	0.37	-0.750			
0.7848	50225.14	3.4730	3.4729	-1.1082	25.85	0.38	-0.750			
0.7880	50431.38	3.4700	3.4700	-1.0630	25.87	0.40	-0.750			
0.7911	50632.71	3.4670	3.4670	-1.0444	25.88	0.41	-0.750			
0.7942	50830.55	3.4640	3.4640	-1.0123	25.89	0.42	-0.750			
0.7972	51020.46	3.4610	3.4608	-0.9813	25.90	0.43	-0.750			
0.8000	51201.04	3.4580	3.4580	-0.9618	25.91	0.44	-0.750			
0.8029	51384.41	3.4550	3.4550	-0.9600	25.91	0.44	-0.750			
0.8057	51566.68	3.4520	3.4519	-0.9689	25.92	0.45	-0.750			
0.8085	51746.91	3.4490	3.4489	-0.9863	25.93	0.46	-0.750			
0.8115	51935.44	3.4460	3.4461	-1.0153	25.94	0.47	-0.750			
0.8146	52135.39	3.4430	3.4430	-1.0758	25.95	0.48	-0.750			
0.8179	52346.94	3.4400	3.4400	-1.1220	25.96	0.49	-0.750			
0.8214	52567.70	3.4370	3.4369	-1.1667	25.96	0.49	-0.750			
0.8250	52798.29	3.4340	3.4339	-1.2099	25.97	0.50	-0.750			
0.8287	53039.40	3.4310	3.4309	-1.2349	25.98	0.51	-0.750			
0.8325	53282.28	3.4280	3.4279	-1.2427	25.99	0.52	-0.750			
0.8364	53527.56	3.4250	3.4251	-1.2372	26.00	0.53	-0.750			
0.8401	53763.91	3.4220	3.4221	-1.2039	26.01	0.54	-0.750			
0.8438	54000.46	3.4190	3.4190	-1.1808	26.02	0.55	-0.750			
0.8472	54222.44	3.4160	3.4159	-1.1325	26.02	0.55	-0.750			
0.8505	54434.49	3.4130	3.4130	-1.0870	26.03	0.56	-0.750			
0.8537	54637.84	3.4100	3.4100	-1.0504	26.04	0.57	-0.750			
0.8568	54835.96	3.4070	3.4069	-1.0086	26.04	0.57	-0.750			
0.8598	55025.16	3.4040	3.4039	-0.9674	26.05	0.58	-0.750			
0.8626	55206.01	3.4010	3.4010	-0.9288	26.06	0.59	-0.750			
0.8654	55382.84	3.3980	3.3981	-0.8981	26.06	0.59	-0.750			
0.8680	55551.13	3.3950	3.3949	-0.8711	26.07	0.60	-0.750			
0.8705	55714.56	3.3920	3.3919	-0.8349	26.08	0.61	-0.750			
0.8730	55871.33	3.3890	3.3889	-0.8005	26.08	0.61	-0.750			
0.8754	56024.50	3.3860	3.3860	-0.7694	26.09	0.62	-0.750			
0.8777	56170.06	3.3830	3.3829	-0.7368	26.09	0.62	-0.750			
0.8798	56306.76	3.3800	3.3799	-0.7051	26.10	0.63	-0.750			
0.8818	56435.49	3.3770	3.3768	-0.6737	26.11	0.64	-0.750			
0.8838	56561.98	3.3740	3.3741	-0.6473	26.11	0.64	-0.750			
0.8858	56688.15	3.3710	3.3709	-0.6290	26.12	0.65	-0.750			
0.8876	56807.62	3.3680	3.3679	-0.6024	26.13	0.66	-0.750			
0.8894	56920.64	3.3650	3.3652	-0.5777	26.13	0.66	-0.750			
0.8911	57027.49	3.3620	3.3619	-0.5503	26.14	0.67	-0.750			
0.8927	57130.10	3.3590	3.3589	-0.5253	26.14	0.67	-0.750			
0.8941	57225.59	3.3560	3.3560	-0.4985	26.15	0.68	-0.750			
0.8957	57322.27	3.3530	3.3531	-0.4820	26.15	0.68	-0.750			
0.8971	57412.41	3.3500	3.3500	-0.4605	26.16	0.69	-0.750			
0.8984	57497.72	3.3470	3.3470	-0.4412	26.16	0.69	-0.750			
0.8997	57580.13	3.3440	3.3438	-0.4221	26.16	0.69	-0.750			
0.9009	57659.14	3.3410	3.3410	-0.4041	26.17	0.70	-0.750			
0.9021	57735.77	3.3380	3.3381	-0.3859	26.17	0.70	-0.750			
0.9033	57808.16	3.3350	3.3350	-0.3705	26.18	0.71	-0.750			
0.9043	57878.13	3.3320	3.3320	-0.3534	26.18	0.71	-0.750			
0.9054	57943.03	3.3290	3.3289	-0.3355	26.19	0.72	-0.750			
0.9063	58005.66	3.3260	3.3260	-0.3196	26.19	0.72	-0.750			
0.9073	58065.03	3.3230	3.3231	-0.3078	26.20	0.73	-0.750			
0.9082	58122.89	3.3200	3.3200	-0.2953	26.20	0.73	-0.750			
0.9090	58178.73	3.3170	3.3169	-0.2843	26.21	0.74	-0.750			
0.9099	58231.31	3.3140	3.3140	-0.2724	26.21	0.74	-0.750			
0.9107	58283.08	3.3110	3.3111	-0.2635	26.21	0.74	-0.750			
0.9114	58332.52	3.3080	3.3079	-0.2532	26.22	0.75	-0.750			
0.9122	58380.16	3.3050	3.3049	-0.2447	26.22	0.75	-0.750			
0.9129	58425.71	3.3020	3.3021	-0.2344	26.22	0.75	-0.750			
0.9136	58470.20	3.2990	3.2990	-0.2273	26.23	0.76	-0.750			
0.9143	58513.41	3.2960	3.2960	-0.2196	26.23	0.76	-0.750			
0.9149	58554.37	3.2930	3.2930	-0.2128	26.24	0.77	-0.750			
0.9155	58594.25	3.2900	3.2899	-0.2051	26.24	0.77	-0.750			
0.9161	58632.93	3.2870	3.2869	-0.1990	26.25	0.78	-0.750			
0.9167	58670.24	3.2840	3.2841	-0.1923	26.25	0.78	-0.750			
0.9173	58706.58	3.2810	3.2809	-0.1872	26.25	0.78	-0.750			
0.9178	58742.15	3.2780	3.2780	-0.1825	26.26	0.79	-0.750			
0.9184	58776.23	3.2750	3.2750	-0.1773	26.26	0.79	-0.750			
0.9189	58809.87	3.2720	3.2720	-0.1731	26.27	0.80	-0.750			
0.9194	58842.39	3.2690	3.2691	-0.1689	26.27	0.80	-0.750			
0.9199	58874.65	3.2660	3.2660	-0.1654	26.27	0.80	-0.750			
0.9204	58905.96	3.2630	3.2630	-0.1613	26.28	0.81	-0.750			
0.9209	58936.57	3.2600	3.2600	-0.1575	26.28	0.81	-0.750			
0.9213	58966.36	3.2570	3.2569	-0.1542	26.28	0.81	-0.750			
0.9218	58995.55	3.2540	3.2540	-0.1511	26.29	0.82	-0.750			
0.9223	59024.02	3.2510	3.2509	-0.1478	26.29	0.82	-0.750			
0.9227	59052.16	3.2480	3.2481	-0.1453	26.29	0.82	-0.750			
0.9231	59079.95	3.2450	3.2450	-0.1419	26.30	0.83	-0.750			
0.9235	59106.73	3.2420	3.2421	-0.1395	26.30	0.83	-0.750			
0.9240	59133.31	3.2390	3.2390	-0.1370	26.30	0.83	-0.750			
0.9244	59159.27	3.2360	3.2361	-0.1351	26.30	0.83	-0.750			
0.9248	59184.87	3.2330	3.2329	-0.1326	26.31	0.84	-0.750			
0.9252	59210.33	3.2300	3.2300	-0.1299	26.31	0.84	-0.750			
0.9255	59235.17	3.2270	3.2270	-0.1276	26.31	0.84	-0.750			
0.9259	59259.17	3.2240	3.2241	-0.1260	26.32	0.85	-0.750			
0.9263	59283.37	3.2210	3.2210	-0.1243	26.32	0.85	-0.750			
0.9267	59306.71	3.2180	3.2179	-0.1213	26.32	0.85	-0.750			
0.9270	59329.74	3.2150	3.2149	-0.1199	26.33	0.86	-0.750			
0.9274	59352.42	3.2120	3.2122	-0.1182	26.33	0.86	-0.750			
0.9277	59375.04	3.2090	3.2091	-0.1171	26.33	0.86	-0.750			
0.9281	59397.64	3.2060	3.2059	-0.1162	26.34	0.87	-0.750			
0.9284	59419.77	3.2030	3.2029	-0.1144	26.34	0.87	-0.750			
0.9288	59441.29	3.2000	3.2000	-0.1122	26.34	0.87	-0.750			
0.9291	59462.71	3.1970	3.1970	-0.1109	26.35	0.88	-0.750			
0.9294	59484.14	3.1940	3.1941	-0.1099	26.35	0.88	-0.750			
0.9298	59505.07	3.1910	3.1910	-0.1081	26.35	0.88	-0.750			
0.9301	59525.35	3.1880	3.1879	-0.1068	26.36	0.89	-0.750			
0.9304	59545.76	3.1850	3.1851	-0.1058	26.36	0.89	-0.750			
0.9307	59565.75	3.1820	3.1820	-0.1049	26.36	0.89	-0.750			
0.9310	59585.86	3.1790	3.1790	-0.1045	26.37	0.90	-0.750			
0.9313	59606.06	3.1760	3.1761	-0.1034	26.37	0.90	-0.750			
0.9317	59625.82	3.1730	3.1729	-0.1024	26.37	0.90	-0.750			
0.9320	59645.57	3.1700	3.1700	-0.1014	26.38	0.91	-0.750			
0.9323	59664.90	3.1670	3.1671	-0.0999	26.38	0.91	-0.750			
0.9326	59683.94	3.1640	3.1639	-0.0987	26.38	0.91	-0.750			
0.9329	59702.75	3.1610	3.1610	-0.0973	26.39	0.92	-0.750			
0.9331	59721.06	3.1580	3.1580	-0.0959	26.39	0.92	-0.750			
0.9334	59739.40	3.1550	3.1550	-0.0951	26.39	0.92	-0.750			
0.9337	59757.55	3.1520	3.1521	-0.0943	26.40	0.93	-0.750			
0.9340	59775.58	3.1490	3.1490	-0.0936	26.40	0.93	-0.750			
0.9343	59793.33	3.1460	3.1461	-0.0930	26.40	0.93	-0.750			
0.9345	59811.14	3.1430	3.1430	-0.0926	26.40	0.93	-0.750			
0.9348	59829.07	3.1400	3.1401	-0.0917	26.41	0.94	-0.750			
0.9351	59846.59	3.1370	3.1369	-0.0908	26.41	0.94	-0.750			
0.9354	59863.97	3.1340	3.1340	-0.0896	26.41	0.94	-0.750			
0.9356	59881.23	3.1310	3.1311	-0.0887	26.42	0.95	-0.750			
0.9359	59897.99	3.1280	3.1281	-0.0882	26.42	0.95	-0.750			
0.9362	59914.76	3.1250	3.1249	-0.0873	26.42	0.95	-0.750			
0.9364	59931.39	3.1220	3.1219	-0.0867	26.42	0.95	-0.750			
0.9367	59947.73	3.1190	3.1190	-0.0857	26.43	0.96	-0.750			
0.9369	59964.15	3.1160	3.1161	-0.0854	26.43	0.96	-0.750			
0.9372	59980.53	3.1130	3.1131	-0.0852	26.43	0.96	-0.750			
0.9375	59996.86	3.1100	3.1100	-0.0849	26.43	0.96	-0.750			
0.9377	60013.18	3.1070	3.1070	-0.0846	26.44	0.97	-0.750			
0.9380	60029.39	3.1040	3.1040	-0.0841	26.44	0.97	-0.750			
0.9382	60045.39	3.1010	3.1009	-0.0836	26.44	0.97	-0.750			
0.9385	60061.60	3.0980	3.0980	-0.0828	26.44	0.97	-0.750			
0.9387	60077.45	3.0950	3.0950	-0.0822	26.45	0.98	-0.750			
0.9390	60093.43	3.0920	3.0918	-0.0818	26.45	0.98	-0.750			
0.9392	60108.94	3.0890	3.0890	-0.0812	26.45	0.98	-0.750			
0.9394	60124.36	3.0860	3.0859	-0.0803	26.45	0.98	-0.750			
0.9397	60139.71	3.0830	3.0831	-0.0797	26.46	0.99	-0.750			
0.9399	60154.84	3.0800	3.0800	-0.0796	26.46	0.99	-0.750			
0.9402	60169.88	3.0770	3.0770	-0.0791	26.46	0.99	-0.750			
0.9404	60185.27	3.0740	3.0740	-0.0785	26.46	0.99	-0.750			
0.9406	60200.30	3.0710	3.0708	-0.0781	26.47	1.00	-0.750			
0.9409	60215.45	3.0680	3.0680	-0.0778	26.47	1.00	-0.750			
0.9411	60230.22	3.0650	3.0651	-0.0774	26.47	1.00	-0.750			
0.9413	60245.06	3.0620	3.0621	-0.0770	26.47	1.00	-0.750			
0.9416	60259.80	3.0590	3.0590	-0.0765	26.48	1.01	-0.750			
0.9418	60274.45	3.0560	3.0559	-0.0759	26.48	1.01	-0.750			
0.9420	60288.82	3.0530	3.0529	-0.0752	26.48	1.01	-0.750			
0.9422	60303.23	3.0500	3.0500	-0.0748	26.48	1.01	-0.750			
0.9425	60317.57	3.0470	3.0471	-0.0745	26.49	1.02	-0.750			
0.9427	60331.98	3.0440	3.0440	-0.0743	26.49	1.02	-0.750			
0.9429	60346.12	3.0410	3.0409	-0.0739	26.49	1.02	-0.750			
0.9431	60360.13	3.0380	3.0381	-0.0732	26.49	1.02	-0.750			
0.9433	60374.17	3.0350	3.0351	-0.0731	26.49	1.02	-0.750			
0.9436	60388.21	3.0320	3.0320	-0.0728	26.50	1.03	-0.750			
0.9438	60402.22	3.0290	3.0290	-0.0726	26.50	1.03	-0.750			
0.9440	60416.13	3.0260	3.0261	-0.0723	26.50	1.03	-0.750			
0.9442	60430.01	3.0230	3.0228	-0.0718	26.50	1.03	-0.750			
0.9444	60443.80	3.0200	3.0200	-0.0715	26.51	1.04	-0.750			
0.9446	60457.45	3.0170	3.0171	-0.0711	26.51	1.04	-0.750			
0.9449	60471.06	3.0140	3.0140	-0.0707	26.51	1.04	-0.750			
0.9451	60484.60	3.0110	3.0110	-0.0703	26.51	1.04	-0.750			
0.9453	60498.06	3.0080	3.0080	-0.0699	26.51	1.04	-0.751			
0.9455	60511.37	3.0050	3.0049	-0.0698	26.52	1.05	-0.751			
0.9457	60524.76	3.0020	3.0020	-0.0697	26.52	1.05	-0.751			
