Ah_balance (normalized)	Ah_balance (mAh)	Voltage - fit (V)	Voltage -  interpolate (V)	dQ/dV (1/V)	Temperature (°C)	Temperature - diff (°C)	Current (C)	R_DC 0ms (mOhm)	R_DC 50ms (mOhm)	R_DC 50 ms PEC (mOhm)
0.0003	19.35	4.1560	4.1555	-0.1058	24.90	0.01	-0.750			
0.0007	44.10	4.1530	4.1528	-0.1453	24.90	0.01	-0.750			
0.0012	75.33	4.1500	4.1500	-0.1809	24.90	0.01	-0.750			
0.0018	113.87	4.1470	4.1470	-0.2153	24.90	0.01	-0.750			
0.0025	158.78	4.1440	4.1441	-0.2484	24.90	0.01	-0.750			
0.0033	210.08	4.1410	4.1409	-0.2832	24.90	0.01	-0.750			
0.0042	268.15	4.1380	4.1380	-0.3136	24.89	0.00	-0.750			
0.0052	331.47	4.1350	4.1350	-0.3448	24.89	0.00	-0.750			
0.0063	400.98	4.1320	4.1320	-0.3740	24.89	0.00	-0.750			
0.0074	476.23	4.1290	4.1292	-0.4007	24.89	-0.00	-0.750			
0.0087	556.84	4.1260	4.1259	-0.4255	24.89	-0.00	-0.750			
0.0100	640.56	4.1230	4.1231	-0.4475	24.89	-0.00	-0.750			
0.0114	728.45	4.1200	4.1200	-0.4689	24.88	-0.01	-0.750			
0.0128	821.51	4.1170	4.1170	-0.4882	24.88	-0.01	-0.750			
0.0143	917.35	4.1140	4.1139	-0.5075	24.88	-0.01	-0.750			
0.0159	1016.36	4.1110	4.1111	-0.5257	24.88	-0.01	-0.750			
0.0175	1119.38	4.1080	4.1080	-0.5413	24.87	-0.02	-0.750			
0.0192	1226.12	4.1050	4.1049	-0.5556	24.87	-0.02	-0.750			
0.0208	1334.06	4.1020	4.1021	-0.5683	24.87	-0.02	-0.750			
0.0226	1444.22	4.0990	4.0990	-0.5806	24.87	-0.02	-0.750			
0.0243	1558.08	4.0960	4.0961	-0.5888	24.87	-0.02	-0.750			
0.0261	1672.98	4.0930	4.0930	-0.5964	24.87	-0.02	-0.750			
0.0279	1788.70	4.0900	4.0900	-0.6019	24.87	-0.02	-0.750			
0.0298	1904.84	4.0870	4.0870	-0.6058	24.87	-0.02	-0.750			
0.0316	2020.61	4.0840	4.0840	-0.6124	24.87	-0.02	-0.750			
0.0334	2137.05	4.0810	4.0809	-0.6197	24.87	-0.02	-0.750			
0.0352	2255.58	4.0780	4.0779	-0.6290	24.87	-0.02	-0.750			
0.0372	2378.58	4.0750	4.0750	-0.6384	24.87	-0.02	-0.750			
0.0391	2502.88	4.0720	4.0721	-0.6451	24.87	-0.02	-0.750			
0.0411	2630.22	4.0690	4.0690	-0.6524	24.87	-0.02	-0.750			
0.0431	2755.83	4.0660	4.0660	-0.6551	24.87	-0.02	-0.750			
0.0450	2879.76	4.0630	4.0631	-0.6561	24.87	-0.02	-0.750			
0.0470	3005.91	4.0600	4.0600	-0.6619	24.87	-0.02	-0.750			
0.0490	3133.32	4.0570	4.0570	-0.6648	24.87	-0.02	-0.750			
0.0510	3262.16	4.0540	4.0540	-0.6715	24.87	-0.02	-0.750			
0.0530	3391.96	4.0510	4.0511	-0.6766	24.87	-0.02	-0.750			
0.0550	3522.35	4.0480	4.0479	-0.6786	24.87	-0.02	-0.750			
0.0571	3652.44	4.0450	4.0451	-0.6812	24.87	-0.02	-0.750			
0.0591	3783.78	4.0420	4.0420	-0.6828	24.87	-0.02	-0.750			
0.0612	3914.97	4.0390	4.0390	-0.6860	24.88	-0.01	-0.750			
0.0632	4047.68	4.0360	4.0360	-0.6895	24.88	-0.01	-0.750			
0.0653	4179.50	4.0330	4.0330	-0.6899	24.88	-0.01	-0.750			
0.0674	4312.08	4.0300	4.0300	-0.6931	24.89	-0.00	-0.750			
0.0695	4445.39	4.0270	4.0269	-0.6958	24.89	-0.00	-0.750			
0.0715	4579.01	4.0240	4.0239	-0.6987	24.89	0.00	-0.750			
0.0737	4713.84	4.0210	4.0210	-0.7018	24.90	0.01	-0.750			
0.0758	4848.85	4.0180	4.0180	-0.7037	24.90	0.01	-0.750			
0.0779	4985.45	4.0150	4.0150	-0.7081	24.90	0.01	-0.750			
0.0800	5121.38	4.0120	4.0120	-0.7070	24.91	0.02	-0.750			
0.0822	5257.62	4.0090	4.0091	-0.7031	24.91	0.02	-0.750			
0.0843	5392.28	4.0060	4.0060	-0.7006	24.92	0.03	-0.750			
0.0863	5524.26	4.0030	4.0031	-0.7084	24.92	0.03	-0.750			
0.0884	5658.89	4.0000	4.0000	-0.7130	24.93	0.04	-0.750			
0.0906	5797.45	3.9970	3.9968	-0.7170	24.93	0.04	-0.750			
0.0927	5935.11	3.9940	3.9940	-0.7227	24.94	0.05	-0.750			
0.0949	6076.12	3.9910	3.9912	-0.7292	24.94	0.05	-0.750			
0.0971	6217.52	3.9880	3.9879	-0.7328	24.94	0.05	-0.750			
0.0993	6356.96	3.9850	3.9850	-0.7340	24.94	0.05	-0.750			
0.1015	6497.93	3.9820	3.9820	-0.7286	24.95	0.06	-0.750			
0.1037	6639.71	3.9790	3.9790	-0.7294	24.95	0.06	-0.750			
0.1059	6779.22	3.9760	3.9760	-0.7320	24.95	0.06	-0.750			
0.1081	6918.77	3.9730	3.9729	-0.7282	24.95	0.06	-0.750			
0.1103	7058.66	3.9700	3.9699	-0.7286	24.96	0.07	-0.750			
0.1125	7197.19	3.9670	3.9670	-0.7324	24.97	0.08	-0.750			
0.1147	7337.91	3.9640	3.9641	-0.7365	24.97	0.08	-0.750			
0.1169	7481.65	3.9610	3.9609	-0.7432	24.98	0.09	-0.750			
0.1191	7624.40	3.9580	3.9581	-0.7466	24.99	0.10	-0.750			
0.1214	7767.51	3.9550	3.9550	-0.7466	24.99	0.10	-0.750			
0.1236	7912.26	3.9520	3.9520	-0.7503	25.00	0.11	-0.750			
0.1259	8056.12	3.9490	3.9490	-0.7515	25.00	0.11	-0.750			
0.1281	8199.51	3.9460	3.9460	-0.7493	25.00	0.11	-0.750			
0.1304	8345.25	3.9430	3.9430	-0.7523	25.01	0.12	-0.750			
0.1327	8489.76	3.9400	3.9400	-0.7533	25.01	0.12	-0.750			
0.1349	8633.76	3.9370	3.9370	-0.7547	25.01	0.12	-0.750			
0.1372	8779.09	3.9340	3.9340	-0.7610	25.02	0.13	-0.750			
0.1395	8925.86	3.9310	3.9311	-0.7596	25.02	0.13	-0.750			
0.1418	9073.42	3.9280	3.9279	-0.7577	25.03	0.14	-0.750			
0.1441	9219.59	3.9250	3.9251	-0.7502	25.03	0.14	-0.750			
0.1463	9361.25	3.9220	3.9221	-0.7542	25.03	0.14	-0.750			
0.1485	9503.59	3.9190	3.9190	-0.7613	25.04	0.15	-0.750			
0.1508	9648.61	3.9160	3.9159	-0.7614	25.04	0.15	-0.750			
0.1530	9795.13	3.9130	3.9130	-0.7704	25.04	0.15	-0.750			
0.1554	9948.14	3.9100	3.9100	-0.7793	25.05	0.16	-0.750			
0.1578	10098.87	3.9070	3.9071	-0.7819	25.05	0.16	-0.750			
0.1602	10250.44	3.9040	3.9040	-0.7853	25.05	0.16	-0.750			
0.1625	10399.41	3.9010	3.9010	-0.7784	25.06	0.17	-0.750			
0.1648	10547.53	3.8980	3.8979	-0.7757	25.06	0.17	-0.750			
0.1672	10697.98	3.8950	3.8950	-0.7804	25.07	0.18	-0.750			
0.1695	10846.16	3.8920	3.8921	-0.7815	25.07	0.18	-0.750			
0.1718	10997.70	3.8890	3.8889	-0.7802	25.08	0.19	-0.750			
0.1742	11147.19	3.8860	3.8860	-0.7820	25.08	0.19	-0.750			
0.1765	11297.86	3.8830	3.8830	-0.7823	25.09	0.20	-0.750			
0.1789	11447.88	3.8800	3.8800	-0.7827	25.09	0.20	-0.750			
0.1812	11598.81	3.8770	3.8769	-0.7828	25.10	0.21	-0.750			
0.1836	11748.63	3.8740	3.8740	-0.7810	25.10	0.21	-0.750			
0.1859	11897.33	3.8710	3.8710	-0.7830	25.11	0.22	-0.750			
0.1883	12048.98	3.8680	3.8680	-0.7828	25.11	0.22	-0.750			
0.1906	12197.51	3.8650	3.8650	-0.7828	25.11	0.22	-0.750			
0.1929	12348.78	3.8620	3.8620	-0.7891	25.12	0.23	-0.750			
0.1953	12501.12	3.8590	3.8590	-0.7887	25.12	0.23	-0.750			
0.1977	12653.59	3.8560	3.8559	-0.7892	25.12	0.23	-0.750			
0.2001	12805.48	3.8530	3.8531	-0.7860	25.13	0.24	-0.750			
0.2024	12955.35	3.8500	3.8500	-0.7833	25.13	0.24	-0.750			
0.2048	13106.30	3.8470	3.8470	-0.7836	25.14	0.25	-0.750			
0.2071	13254.37	3.8440	3.8440	-0.7767	25.14	0.25	-0.750			
0.2094	13403.79	3.8410	3.8410	-0.7749	25.14	0.25	-0.750			
0.2118	13553.24	3.8380	3.8380	-0.7783	25.14	0.25	-0.750			
0.2141	13703.49	3.8350	3.8350	-0.7775	25.14	0.25	-0.750			
0.2164	13852.42	3.8320	3.8319	-0.7764	25.14	0.25	-0.750			
0.2188	14000.53	3.8290	3.8291	-0.7754	25.14	0.25	-0.750			
0.2211	14150.39	3.8260	3.8259	-0.7734	25.14	0.25	-0.750			
0.2234	14298.53	3.8230	3.8229	-0.7732	25.15	0.26	-0.750			
0.2257	14447.24	3.8200	3.8200	-0.7676	25.15	0.26	-0.750			
0.2280	14593.10	3.8170	3.8171	-0.7628	25.15	0.26	-0.750			
0.2303	14741.65	3.8140	3.8139	-0.7615	25.16	0.27	-0.750			
0.2326	14886.38	3.8110	3.8110	-0.7583	25.16	0.27	-0.750			
0.2349	15030.89	3.8080	3.8080	-0.7529	25.16	0.27	-0.750			
0.2371	15175.94	3.8050	3.8050	-0.7517	25.17	0.28	-0.750			
0.2394	15319.93	3.8020	3.8020	-0.7508	25.17	0.28	-0.750			
0.2416	15463.79	3.7990	3.7990	-0.7488	25.18	0.29	-0.750			
0.2439	15607.31	3.7960	3.7959	-0.7419	25.18	0.29	-0.750			
0.2461	15750.15	3.7930	3.7929	-0.7365	25.18	0.29	-0.750			
0.2483	15890.26	3.7900	3.7900	-0.7307	25.19	0.30	-0.750			
0.2505	16029.88	3.7870	3.7871	-0.7311	25.19	0.30	-0.750			
0.2526	16169.33	3.7840	3.7839	-0.7238	25.19	0.30	-0.750			
0.2548	16308.55	3.7810	3.7809	-0.7232	25.20	0.31	-0.750			
0.2570	16448.01	3.7780	3.7782	-0.7232	25.20	0.31	-0.750			
0.2592	16587.34	3.7750	3.7750	-0.7249	25.20	0.31	-0.750			
0.2613	16725.98	3.7720	3.7719	-0.7223	25.21	0.32	-0.750			
0.2635	16862.98	3.7690	3.7690	-0.7232	25.21	0.32	-0.750			
0.2657	17003.19	3.7660	3.7660	-0.7246	25.21	0.32	-0.750			
0.2679	17142.71	3.7630	3.7630	-0.7253	25.22	0.33	-0.750			
0.2700	17281.90	3.7600	3.7601	-0.7230	25.22	0.33	-0.750			
0.2722	17420.06	3.7570	3.7569	-0.7253	25.22	0.33	-0.750			
0.2743	17557.63	3.7540	3.7540	-0.7356	25.23	0.34	-0.750			
0.2765	17698.18	3.7510	3.7509	-0.7380	25.23	0.34	-0.750			
0.2788	17842.09	3.7480	3.7480	-0.7465	25.23	0.34	-0.750			
0.2810	17986.36	3.7450	3.7450	-0.7519	25.24	0.35	-0.750			
0.2833	18132.07	3.7420	3.7418	-0.7572	25.24	0.35	-0.750			
0.2856	18277.13	3.7390	3.7390	-0.7692	25.24	0.35	-0.750			
0.2879	18423.04	3.7360	3.7360	-0.7741	25.24	0.35	-0.750			
0.2902	18572.51	3.7330	3.7329	-0.7779	25.24	0.35	-0.750			
0.2926	18725.10	3.7300	3.7300	-0.7917	25.24	0.35	-0.750			
0.2950	18877.27	3.7270	3.7273	-0.8014	25.24	0.35	-0.750			
0.2974	19031.10	3.7240	3.7239	-0.8128	25.24	0.35	-0.750			
0.2998	19187.15	3.7210	3.7210	-0.8281	25.24	0.35	-0.750			
0.3023	19346.79	3.7180	3.7179	-0.8410	25.24	0.35	-0.750			
0.3049	19510.59	3.7150	3.7150	-0.8596	25.24	0.35	-0.750			
0.3075	19678.13	3.7120	3.7121	-0.8761	25.24	0.35	-0.750			
0.3101	19847.44	3.7090	3.7090	-0.8915	25.24	0.35	-0.750			
0.3128	20020.70	3.7060	3.7060	-0.9040	25.24	0.35	-0.750			
0.3155	20194.44	3.7030	3.7030	-0.9171	25.24	0.35	-0.750			
0.3183	20371.86	3.7000	3.7000	-0.9326	25.24	0.35	-0.750			
0.3211	20553.05	3.6970	3.6969	-0.9462	25.24	0.35	-0.750			
0.3240	20735.71	3.6940	3.6940	-0.9638	25.23	0.34	-0.750			
0.3269	20922.47	3.6910	3.6910	-0.9786	25.23	0.34	-0.750			
0.3299	21112.54	3.6880	3.6880	-0.9925	25.22	0.33	-0.750			
0.3329	21304.60	3.6850	3.6851	-1.0140	25.22	0.33	-0.750			
0.3359	21499.85	3.6820	3.6820	-1.0301	25.22	0.33	-0.750			
0.3390	21699.17	3.6790	3.6789	-1.0477	25.21	0.32	-0.750			
0.3422	21899.76	3.6760	3.6761	-1.0650	25.21	0.32	-0.750			
0.3454	22108.10	3.6730	3.6731	-1.0929	25.21	0.32	-0.750			
0.3487	22319.58	3.6700	3.6699	-1.1117	25.21	0.32	-0.750			
0.3521	22536.40	3.6670	3.6670	-1.1306	25.20	0.31	-0.750			
0.3555	22754.76	3.6640	3.6639	-1.1467	25.20	0.31	-0.750			
0.3590	22977.54	3.6610	3.6610	-1.1736	25.20	0.31	-0.750			
0.3626	23205.42	3.6580	3.6580	-1.1935	25.19	0.30	-0.750			
0.3662	23435.73	3.6550	3.6549	-1.2102	25.18	0.29	-0.750			
0.3698	23669.07	3.6520	3.6522	-1.2294	25.17	0.28	-0.750			
0.3736	23909.24	3.6490	3.6490	-1.2531	25.16	0.27	-0.750			
0.3774	24151.99	3.6460	3.6460	-1.2749	25.16	0.27	-0.750			
0.3812	24396.82	3.6430	3.6431	-1.3043	25.15	0.26	-0.750			
0.3852	24649.94	3.6400	3.6400	-1.3279	25.15	0.26	-0.750			
0.3892	24907.44	3.6370	3.6369	-1.3530	25.14	0.25	-0.750			
0.3933	25170.05	3.6340	3.6340	-1.3816	25.14	0.25	-0.750			
0.3975	25437.91	3.6310	3.6310	-1.4036	25.13	0.24	-0.750			
0.4017	25711.33	3.6280	3.6279	-1.4296	25.12	0.23	-0.750			
0.4061	25988.03	3.6250	3.6250	-1.4501	25.10	0.21	-0.750			
0.4104	26264.34	3.6220	3.6220	-1.4785	25.09	0.20	-0.750			
0.4149	26553.72	3.6190	3.6190	-1.5197	25.08	0.19	-0.750			
0.4195	26848.70	3.6160	3.6161	-1.5499	25.07	0.18	-0.750			
0.4242	27151.22	3.6130	3.6130	-1.5683	25.07	0.18	-0.750			
0.4291	27459.76	3.6100	3.6099	-1.6019	25.07	0.18	-0.750	0.405	0.571	
0.4339	27767.87	3.6070	3.6069	-1.6263	25.07	0.18	-0.750			
0.4388	28080.90	3.6040	3.6040	-1.6554	25.06	0.17	-0.750			
0.4437	28396.11	3.6010	3.6012	-1.6817	25.05	0.16	-0.750			
0.4488	28722.39	3.5980	3.5979	-1.7107	25.04	0.15	-0.750			
0.4540	29057.74	3.5950	3.5949	-1.7555	25.03	0.14	-0.750			
0.4593	29398.33	3.5920	3.5919	-1.7949	25.03	0.14	-0.750			
0.4648	29744.02	3.5890	3.5890	-1.8389	25.03	0.14	-0.750			
0.4703	30100.60	3.5860	3.5859	-1.8589	25.03	0.14	-0.750			
0.4760	30462.78	3.5830	3.5831	-1.8888	25.02	0.13	-0.750			
0.4817	30827.16	3.5800	3.5801	-1.9334	25.02	0.13	-0.750			
0.4876	31203.56	3.5770	3.5768	-1.9587	25.02	0.13	-0.750			
0.4935	31582.44	3.5740	3.5738	-1.9794	25.01	0.12	-0.750			
0.4995	31967.27	3.5710	3.5710	-2.0039	25.01	0.12	-0.750			
0.5055	32352.32	3.5680	3.5679	-2.0334	25.00	0.11	-0.750			
0.5117	32749.17	3.5650	3.5651	-2.0444	25.00	0.11	-0.750			
0.5179	33144.80	3.5620	3.5620	-2.0622	25.01	0.12	-0.750			
0.5241	33540.46	3.5590	3.5590	-2.0629	25.01	0.12	-0.750			
0.5303	33941.44	3.5560	3.5560	-2.0739	25.01	0.12	-0.750			
0.5365	34336.55	3.5530	3.5530	-2.0766	25.01	0.12	-0.750			
0.5427	34734.96	3.5500	3.5500	-2.0769	25.01	0.12	-0.750			
0.5490	35133.39	3.5470	3.5470	-2.0719	25.01	0.12	-0.750			
0.5552	35535.47	3.5440	3.5440	-2.0711	25.01	0.12	-0.750			
0.5614	35931.99	3.5410	3.5410	-2.0654	25.01	0.12	-0.750			
0.5677	36331.21	3.5380	3.5380	-2.0605	25.01	0.12	-0.750			
0.5738	36724.88	3.5350	3.5349	-2.0389	25.01	0.12	-0.750			
0.5800	37117.32	3.5320	3.5320	-1.9964	25.01	0.12	-0.750			
0.5859	37499.06	3.5290	3.5291	-1.9753	25.02	0.13	-0.750			
0.5918	37873.98	3.5260	3.5259	-1.9505	25.03	0.14	-0.750			
0.5976	38244.39	3.5230	3.5227	-1.9032	25.03	0.14	-0.750			
0.6032	38604.54	3.5200	3.5201	-1.8846	25.04	0.15	-0.750			
0.6089	38966.49	3.5170	3.5170	-1.8507	25.04	0.15	-0.750			
0.6144	39320.77	3.5140	3.5140	-1.8137	25.05	0.16	-0.750			
0.6198	39670.19	3.5110	3.5110	-1.7657	25.05	0.16	-0.750			
0.6251	40004.17	3.5080	3.5078	-1.7151	25.06	0.17	-0.750			
0.6301	40327.36	3.5050	3.5050	-1.6687	25.08	0.19	-0.750			
0.6351	40645.72	3.5020	3.5019	-1.6238	25.09	0.20	-0.750			
0.6398	40948.56	3.4990	3.4989	-1.5651	25.10	0.21	-0.750			
0.6444	41243.43	3.4960	3.4961	-1.5216	25.11	0.22	-0.750			
0.6489	41532.62	3.4930	3.4930	-1.4862	25.12	0.23	-0.750			
0.6534	41816.88	3.4900	3.4900	-1.4534	25.14	0.25	-0.750			
0.6577	42090.69	3.4870	3.4871	-1.4233	25.15	0.26	-0.750			
0.6619	42362.87	3.4840	3.4839	-1.3760	25.17	0.28	-0.750			
0.6660	42624.54	3.4810	3.4809	-1.3360	25.19	0.30	-0.750			
0.6700	42877.55	3.4780	3.4784	-1.2911	25.20	0.31	-0.750			
0.6738	43121.78	3.4750	3.4748	-1.2414	25.21	0.32	-0.750			
0.6774	43353.38	3.4720	3.4720	-1.1952	25.23	0.34	-0.750			
0.6808	43573.90	3.4690	3.4690	-1.1499	25.24	0.35	-0.750			
0.6843	43793.14	3.4660	3.4660	-1.1259	25.25	0.36	-0.750			
0.6876	44006.53	3.4630	3.4629	-1.0918	25.26	0.37	-0.750			
0.6908	44209.71	3.4600	3.4600	-1.0556	25.27	0.38	-0.750			
0.6939	44409.41	3.4570	3.4571	-1.0277	25.29	0.40	-0.750			
0.6970	44605.53	3.4540	3.4540	-1.0091	25.30	0.41	-0.750			
0.6999	44796.79	3.4510	3.4510	-0.9773	25.31	0.42	-0.750			
0.7028	44980.38	3.4480	3.4479	-0.9449	25.32	0.43	-0.750			
0.7056	45158.92	3.4450	3.4448	-0.9215	25.33	0.44	-0.750			
0.7084	45334.62	3.4420	3.4420	-0.9021	25.34	0.45	-0.750			
0.7110	45505.00	3.4390	3.4389	-0.8850	25.35	0.46	-0.750			
0.7136	45671.38	3.4360	3.4360	-0.8660	25.36	0.47	-0.750			
0.7161	45833.56	3.4330	3.4330	-0.8503	25.37	0.48	-0.750			
0.7187	45998.39	3.4300	3.4300	-0.8521	25.38	0.49	-0.750			
0.7213	46160.92	3.4270	3.4268	-0.8467	25.39	0.50	-0.750			
0.7238	46321.81	3.4240	3.4240	-0.8434	25.39	0.50	-0.750			
0.7263	46482.75	3.4210	3.4210	-0.8416	25.40	0.51	-0.750			
0.7288	46643.65	3.4180	3.4181	-0.8434	25.41	0.52	-0.750			
0.7314	46807.63	3.4150	3.4150	-0.8479	25.42	0.53	-0.750			
0.7339	46970.57	3.4120	3.4119	-0.8465	25.43	0.54	-0.750			
0.7365	47133.18	3.4090	3.4090	-0.8489	25.43	0.54	-0.750			
0.7390	47298.16	3.4060	3.4060	-0.8458	25.44	0.55	-0.750			
0.7416	47461.20	3.4030	3.4029	-0.8383	25.45	0.56	-0.750			
0.7441	47623.51	3.4000	3.4001	-0.8289	25.46	0.57	-0.750			
0.7466	47780.93	3.3970	3.3969	-0.8172	25.47	0.58	-0.750			
0.7490	47935.75	3.3940	3.3940	-0.8068	25.47	0.58	-0.750			
0.7514	48090.38	3.3910	3.3910	-0.7892	25.48	0.59	-0.750			
0.7537	48239.74	3.3880	3.3880	-0.7684	25.49	0.60	-0.750			
0.7561	48389.23	3.3850	3.3851	-0.7538	25.50	0.61	-0.750			
0.7583	48531.27	3.3820	3.3820	-0.7316	25.50	0.61	-0.750			
0.7605	48670.15	3.3790	3.3789	-0.7100	25.51	0.62	-0.750			
0.7625	48802.69	3.3760	3.3760	-0.6881	25.51	0.62	-0.750			
0.7646	48932.63	3.3730	3.3730	-0.6656	25.51	0.62	-0.750			
0.7666	49059.44	3.3700	3.3700	-0.6502	25.52	0.63	-0.750			
0.7685	49183.23	3.3670	3.3669	-0.6308	25.52	0.63	-0.750			
0.7703	49301.96	3.3640	3.3641	-0.6085	25.52	0.63	-0.750			
0.7721	49416.81	3.3610	3.3609	-0.5883	25.53	0.64	-0.750			
0.7739	49528.32	3.3580	3.3581	-0.5674	25.53	0.64	-0.750			
0.7755	49633.71	3.3550	3.3550	-0.5480	25.54	0.65	-0.750			
0.7771	49737.34	3.3520	3.3520	-0.5307	25.54	0.65	-0.750			
0.7787	49836.44	3.3490	3.3490	-0.5133	25.55	0.66	-0.750			
0.7802	49933.79	3.3460	3.3460	-0.5002	25.55	0.66	-0.750			
0.7817	50028.58	3.3430	3.3431	-0.4867	25.56	0.67	-0.750			
0.7831	50120.66	3.3400	3.3400	-0.4724	25.56	0.67	-0.750			
0.7845	50210.74	3.3370	3.3370	-0.4603	25.57	0.68	-0.750			
0.7859	50297.33	3.3340	3.3340	-0.4456	25.57	0.68	-0.750			
0.7872	50381.32	3.3310	3.3309	-0.4319	25.58	0.69	-0.750			
0.7885	50462.91	3.3280	3.3281	-0.4188	25.58	0.69	-0.750			
0.7897	50542.23	3.3250	3.3250	-0.4070	25.58	0.69	-0.750			
0.7909	50618.83	3.3220	3.3220	-0.3965	25.59	0.70	-0.750			
0.7921	50693.87	3.3190	3.3189	-0.3864	25.59	0.70	-0.750			
0.7932	50766.61	3.3160	3.3160	-0.3753	25.60	0.71	-0.750			
0.7943	50837.76	3.3130	3.3130	-0.3664	25.60	0.71	-0.750			
0.7954	50907.11	3.3100	3.3100	-0.3592	25.61	0.72	-0.750			
0.7965	50975.13	3.3070	3.3070	-0.3520	25.61	0.72	-0.750			
0.7975	51041.87	3.3040	3.3039	-0.3436	25.62	0.73	-0.750			
0.7986	51107.21	3.3010	3.3010	-0.3351	25.63	0.74	-0.750			
0.7995	51170.99	3.2980	3.2980	-0.3288	25.63	0.74	-0.750			
0.8005	51233.58	3.2950	3.2950	-0.3217	25.64	0.75	-0.750			
0.8015	51294.38	3.2920	3.2919	-0.3138	25.64	0.75	-0.750			
0.8024	51353.67	3.2890	3.2890	-0.3063	25.65	0.76	-0.750			
0.8033	51411.41	3.2860	3.2860	-0.3002	25.66	0.77	-0.750			
0.8042	51468.74	3.2830	3.2830	-0.2952	25.66	0.77	-0.750			
0.8051	51525.00	3.2800	3.2800	-0.2898	25.67	0.78	-0.750			
0.8059	51579.56	3.2770	3.2770	-0.2841	25.67	0.78	-0.750			
0.8068	51633.58	3.2740	3.2740	-0.2799	25.68	0.79	-0.750			
0.8076	51686.90	3.2710	3.2710	-0.2759	25.68	0.79	-0.750			
0.8084	51739.61	3.2680	3.2680	-0.2716	25.69	0.80	-0.750			
0.8092	51791.14	3.2650	3.2651	-0.2675	25.69	0.80	-0.750			
0.8100	51842.07	3.2620	3.2620	-0.2639	25.70	0.81	-0.750			
0.8108	51892.64	3.2590	3.2590	-0.2605	25.70	0.81	-0.750			
0.8116	51942.20	3.2560	3.2560	-0.2571	25.71	0.82	-0.750			
0.8124	51990.98	3.2530	3.2530	-0.2532	25.71	0.82	-0.750			
0.8131	52039.46	3.2500	3.2500	-0.2494	25.71	0.82	-0.750			
0.8139	52086.86	3.2470	3.2471	-0.2468	25.72	0.83	-0.750			
0.8146	52133.91	3.2440	3.2440	-0.2429	25.72	0.83	-0.750			
0.8153	52180.24	3.2410	3.2411	-0.2397	25.73	0.84	-0.750			
0.8160	52225.88	3.2380	3.2379	-0.2368	25.73	0.84	-0.750			
0.8167	52271.03	3.2350	3.2350	-0.2341	25.73	0.84	-0.750			
0.8174	52315.82	3.2320	3.2320	-0.2308	25.74	0.85	-0.750			
0.8181	52359.85	3.2290	3.2290	-0.2278	25.74	0.85	-0.750			
0.8188	52403.55	3.2260	3.2260	-0.2249	25.75	0.86	-0.750			
0.8195	52445.99	3.2230	3.2230	-0.2216	25.75	0.86	-0.750			
0.8201	52488.44	3.2200	3.2200	-0.2192	25.76	0.87	-0.750			
0.8208	52530.23	3.2170	3.2168	-0.2164	25.76	0.87	-0.750			
0.8214	52571.40	3.2140	3.2140	-0.2131	25.77	0.88	-0.750			
0.8221	52611.50	3.2110	3.2111	-0.2116	25.77	0.88	-0.750			
0.8227	52652.00	3.2080	3.2080	-0.2104	25.78	0.89	-0.750			
0.8233	52692.31	3.2050	3.2050	-0.2085	25.79	0.90	-0.750			
0.8239	52732.18	3.2020	3.2019	-0.2066	25.79	0.90	-0.750			
0.8246	52771.59	3.1990	3.1992	-0.2049	25.80	0.91	-0.750			
0.8252	52810.82	3.1960	3.1961	-0.2037	25.80	0.91	-0.750			
0.8258	52850.17	3.1930	3.1929	-0.2013	25.81	0.92	-0.750			
0.8264	52888.86	3.1900	3.1900	-0.1993	25.82	0.93	-0.750			
0.8270	52926.46	3.1870	3.1870	-0.1957	25.82	0.93	-0.750			
0.8276	52963.82	3.1840	3.1840	-0.1935	25.83	0.94	-0.750			
0.8281	53001.06	3.1810	3.1810	-0.1913	25.83	0.94	-0.750			
0.8287	53037.37	3.1780	3.1780	-0.1890	25.84	0.95	-0.750			
0.8293	53073.10	3.1750	3.1750	-0.1868	25.84	0.95	-0.750			
0.8298	53108.83	3.1720	3.1720	-0.1856	25.85	0.96	-0.750			
0.8304	53144.36	3.1690	3.1689	-0.1843	25.85	0.96	-0.750			
0.8309	53179.64	3.1660	3.1660	-0.1820	25.86	0.97	-0.750			
0.8315	53214.76	3.1630	3.1630	-0.1797	25.86	0.97	-0.750			
0.8320	53248.80	3.1600	3.1601	-0.1781	25.87	0.98	-0.750			
0.8325	53282.78	3.1570	3.1570	-0.1759	25.88	0.99	-0.750			
0.8331	53316.18	3.1540	3.1541	-0.1742	25.88	0.99	-0.750			
0.8336	53349.20	3.1510	3.1509	-0.1723	25.89	1.00	-0.750			
0.8341	53382.11	3.1480	3.1481	-0.1709	25.89	1.00	-0.750			
0.8346	53414.83	3.1450	3.1450	-0.1700	25.90	1.01	-0.750			
0.8351	53447.63	3.1420	3.1420	-0.1684	25.91	1.02	-0.750			
0.8356	53480.07	3.1390	3.1390	-0.1668	25.91	1.02	-0.750			
0.8361	53511.48	3.1360	3.1360	-0.1647	25.92	1.03	-0.750			
0.8366	53542.97	3.1330	3.1330	-0.1634	25.92	1.03	-0.750			
0.8371	53574.16	3.1300	3.1301	-0.1623	25.93	1.04	-0.750			
0.8376	53605.23	3.1270	3.1270	-0.1608	25.93	1.04	-0.750			
0.8381	53635.86	3.1240	3.1240	-0.1596	25.94	1.05	-0.750			
0.8385	53666.41	3.1210	3.1210	-0.1587	25.95	1.06	-0.750			
0.8390	53696.97	3.1180	3.1180	-0.1572	25.95	1.06	-0.750			
0.8395	53727.16	3.1150	3.1149	-0.1556	25.96	1.07	-0.750			
0.8399	53756.72	3.1120	3.1121	-0.1538	25.96	1.07	-0.750			
0.8404	53785.99	3.1090	3.1091	-0.1527	25.97	1.08	-0.750			
0.8409	53815.12	3.1060	3.1058	-0.1514	25.97	1.08	-0.750			
0.8413	53844.06	3.1030	3.1030	-0.1504	25.98	1.09	-0.750			
0.8418	53872.76	3.1000	3.1000	-0.1488	25.98	1.09	-0.750			
0.8422	53901.40	3.0970	3.0970	-0.1482	25.99	1.10	-0.750			
0.8427	53929.80	3.0940	3.0939	-0.1465	25.99	1.10	-0.750			
0.8431	53957.82	3.0910	3.0910	-0.1455	26.00	1.11	-0.750			
0.8435	53985.60	3.0880	3.0881	-0.1440	26.00	1.11	-0.750			
0.8440	54013.06	3.0850	3.0848	-0.1430	26.00	1.11	-0.750			
0.8444	54040.22	3.0820	3.0820	-0.1417	26.01	1.12	-0.750			
0.8448	54067.28	3.0790	3.0791	-0.1409	26.01	1.12	-0.750			
0.8452	54094.28	3.0760	3.0760	-0.1403	26.02	1.13	-0.750			
0.8456	54121.20	3.0730	3.0730	-0.1390	26.03	1.14	-0.750			
0.8461	54148.03	3.0700	3.0700	-0.1376	26.03	1.14	-0.750			
0.8465	54174.09	3.0670	3.0671	-0.1365	26.04	1.15	-0.750			
0.8469	54200.19	3.0640	3.0640	-0.1354	26.05	1.16	-0.750			
0.8473	54226.00	3.0610	3.0610	-0.1346	26.05	1.16	-0.750			
0.8477	54251.70	3.0580	3.0579	-0.1337	26.06	1.17	-0.750			
0.8481	54277.19	3.0550	3.0550	-0.1328	26.06	1.17	-0.750			
0.8485	54302.65	3.0520	3.0520	-0.1325	26.07	1.18	-0.750			
0.8489	54328.25	3.0490	3.0490	-0.1315	26.08	1.19	-0.750			
0.8493	54353.57	3.0460	3.0460	-0.1308	26.08	1.19	-0.750			
0.8497	54378.43	3.0430	3.0431	-0.1293	26.09	1.20	-0.750			
0.8500	54403.11	3.0400	3.0400	-0.1284	26.10	1.21	-0.750			
0.8504	54427.70	3.0370	3.0370	-0.1274	26.10	1.21	-0.750			
0.8508	54452.04	3.0340	3.0339	-0.1264	26.11	1.22	-0.750			
0.8512	54476.13	3.0310	3.0310	-0.1253	26.11	1.22	-0.750			
0.8516	54500.18	3.0280	3.0280	-0.1241	26.12	1.23	-0.750			
0.8519	54524.07	3.0250	3.0250	-0.1232	26.12	1.23	-0.750			
0.8523	54547.51	3.0220	3.0220	-0.1226	26.13	1.24	-0.750			
0.8527	54570.80	3.0190	3.0190	-0.1218	26.14	1.25	-0.750			
0.8530	54593.97	3.0160	3.0159	-0.1209	26.14	1.25	-0.750			
0.8534	54617.22	3.0130	3.0130	-0.1203	26.15	1.26	-0.750			
0.8538	54640.26	3.0100	3.0099	-0.1198	26.15	1.26	-0.750			
0.8541	54663.22	3.0070	3.0072	-0.1194	26.16	1.27	-0.751			
0.8545	54686.29	3.0040	3.0039	-0.1181	26.16	1.27	-0.751			
0.8548	54708.82	3.0010	3.0010	-0.1166	26.17	1.28	-0.751			
