Ah_balance (normalized)	Ah_balance (mAh)	Voltage - fit (V)	Voltage -  interpolate (V)	dQ/dV (1/V)	Temperature (°C)	Temperature - diff (°C)	Current (C)	R_DC 0ms (mOhm)	R_DC 50ms (mOhm)	R_DC 50 ms PEC (mOhm)
0.0576	3689.55	4.1960	4.1960	0.7624	26.70	0.75	0.750			
0.0600	3837.44	4.1930	4.1929	0.7600	26.70	0.75	0.750			
0.0622	3979.69	4.1900	4.1901	0.7517	26.70	0.75	0.750			
0.0644	4121.54	4.1870	4.1870	0.7520	26.70	0.75	0.750			
0.0666	4265.36	4.1840	4.1841	0.7601	26.70	0.75	0.750			
0.0689	4411.59	4.1810	4.1811	0.7576	26.70	0.75	0.750			
0.0712	4558.28	4.1780	4.1780	0.7608	26.70	0.75	0.750			
0.0736	4707.40	4.1750	4.1750	0.7593	26.70	0.75	0.750			
0.0758	4852.36	4.1720	4.1721	0.7606	26.70	0.75	0.750			
0.0781	4997.96	4.1690	4.1690	0.7565	26.70	0.75	0.750			
0.0804	5142.49	4.1660	4.1658	0.7550	26.70	0.75	0.750			
0.0826	5285.31	4.1630	4.1631	0.7543	26.70	0.75	0.750			
0.0849	5433.25	4.1600	4.1600	0.7583	26.70	0.75	0.750			
0.0872	5579.82	4.1570	4.1570	0.7618	26.70	0.75	0.750			
0.0895	5725.83	4.1540	4.1540	0.7634	26.70	0.75	0.750			
0.0917	5871.26	4.1510	4.1511	0.7599	26.70	0.75	0.750			
0.0940	6017.35	4.1480	4.1481	0.7637	26.70	0.75	0.750			
0.0963	6164.36	4.1450	4.1450	0.7644	26.70	0.75	0.750			
0.0986	6310.93	4.1420	4.1420	0.7622	26.70	0.75	0.750			
0.1009	6456.59	4.1390	4.1391	0.7664	26.70	0.75	0.750			
0.1032	6604.06	4.1360	4.1360	0.7693	26.70	0.75	0.750			
0.1055	6751.76	4.1330	4.1327	0.7713	26.70	0.75	0.750			
0.1078	6900.67	4.1300	4.1300	0.7743	26.70	0.75	0.750			
0.1102	7049.90	4.1270	4.1271	0.7723	26.70	0.75	0.750			
0.1125	7199.97	4.1240	4.1240	0.7769	26.70	0.75	0.750			
0.1148	7349.70	4.1210	4.1210	0.7730	26.70	0.75	0.750			
0.1171	7494.54	4.1180	4.1180	0.7721	26.70	0.75	0.750			
0.1194	7643.25	4.1150	4.1150	0.7768	26.70	0.75	0.750			
0.1218	7793.25	4.1120	4.1119	0.7782	26.70	0.75	0.750			
0.1241	7942.91	4.1090	4.1090	0.7809	26.70	0.75	0.750			
0.1265	8093.89	4.1060	4.1061	0.7848	26.70	0.75	0.750			
0.1288	8243.77	4.1030	4.1031	0.7849	26.70	0.75	0.750			
0.1312	8395.35	4.1000	4.0999	0.7876	26.70	0.75	0.750			
0.1335	8545.29	4.0970	4.0970	0.7871	26.70	0.75	0.750			
0.1359	8696.05	4.0940	4.0941	0.7878	26.71	0.76	0.750			
0.1383	8848.22	4.0910	4.0910	0.7886	26.71	0.76	0.750			
0.1406	9000.15	4.0880	4.0881	0.7889	26.72	0.77	0.750			
0.1430	9151.65	4.0850	4.0847	0.7901	26.72	0.77	0.750			
0.1454	9302.77	4.0820	4.0823	0.7919	26.72	0.77	0.750			
0.1478	9456.30	4.0790	4.0790	0.7898	26.72	0.77	0.750			
0.1501	9607.81	4.0760	4.0760	0.7959	26.71	0.76	0.750			
0.1525	9760.94	4.0730	4.0731	0.8008	26.71	0.76	0.750			
0.1549	9913.21	4.0700	4.0699	0.8042	26.71	0.76	0.750			
0.1573	10067.80	4.0670	4.0671	0.8067	26.71	0.76	0.750			
0.1597	10223.79	4.0640	4.0640	0.8073	26.71	0.76	0.750			
0.1622	10379.07	4.0610	4.0610	0.8121	26.70	0.75	0.750			
0.1646	10536.06	4.0580	4.0580	0.8184	26.70	0.75	0.750			
0.1671	10692.34	4.0550	4.0550	0.8192	26.70	0.75	0.750			
0.1695	10849.78	4.0520	4.0521	0.8225	26.70	0.75	0.750			
0.1720	11009.92	4.0490	4.0489	0.8174	26.71	0.76	0.750			
0.1745	11166.42	4.0460	4.0461	0.8203	26.71	0.76	0.750			
0.1769	11323.66	4.0430	4.0431	0.8229	26.71	0.76	0.750			
0.1794	11480.28	4.0400	4.0401	0.8233	26.72	0.77	0.750			
0.1818	11637.45	4.0370	4.0370	0.8285	26.72	0.77	0.750			
0.1843	11797.93	4.0340	4.0340	0.8237	26.72	0.77	0.750			
0.1868	11957.31	4.0310	4.0310	0.8319	26.72	0.77	0.750			
0.1893	12118.18	4.0280	4.0281	0.8371	26.72	0.77	0.750			
0.1918	12278.23	4.0250	4.0250	0.8363	26.72	0.77	0.750			
0.1944	12439.22	4.0220	4.0221	0.8416	26.72	0.77	0.750			
0.1969	12601.77	4.0190	4.0191	0.8422	26.72	0.77	0.750			
0.1994	12763.15	4.0160	4.0160	0.8469	26.72	0.77	0.750			
0.2020	12927.52	4.0130	4.0131	0.8520	26.73	0.78	0.750			
0.2045	13090.31	4.0100	4.0100	0.8527	26.73	0.78	0.750			
0.2071	13255.23	4.0070	4.0070	0.8521	26.73	0.78	0.750			
0.2097	13420.44	4.0040	4.0040	0.8500	26.73	0.78	0.750			
0.2122	13581.88	4.0010	4.0010	0.8543	26.73	0.78	0.750			
0.2148	13746.77	3.9980	3.9981	0.8584	26.73	0.78	0.750			
0.2173	13910.17	3.9950	3.9948	0.8563	26.73	0.78	0.750			
0.2199	14074.99	3.9920	3.9921	0.8597	26.73	0.78	0.750			
0.2225	14240.70	3.9890	3.9891	0.8609	26.73	0.78	0.750			
0.2251	14406.29	3.9860	3.9860	0.8671	26.73	0.78	0.750			
0.2277	14574.03	3.9830	3.9830	0.8691	26.73	0.78	0.750			
0.2303	14739.81	3.9800	3.9799	0.8664	26.73	0.78	0.750			
0.2329	14907.09	3.9770	3.9769	0.8687	26.73	0.78	0.750			
0.2355	15074.41	3.9740	3.9741	0.8673	26.73	0.78	0.750			
0.2381	15239.71	3.9710	3.9711	0.8689	26.74	0.79	0.750			
0.2407	15405.34	3.9680	3.9680	0.8707	26.74	0.79	0.750			
0.2433	15572.94	3.9650	3.9648	0.8735	26.74	0.79	0.750			
0.2460	15742.49	3.9620	3.9620	0.8721	26.74	0.79	0.750			
0.2486	15910.20	3.9590	3.9591	0.8722	26.73	0.78	0.750			
0.2512	16078.85	3.9560	3.9561	0.8766	26.73	0.78	0.750			
0.2538	16245.92	3.9530	3.9531	0.8733	26.72	0.77	0.750			
0.2564	16411.18	3.9500	3.9500	0.8751	26.72	0.77	0.750			
0.2591	16580.46	3.9470	3.9471	0.8786	26.72	0.77	0.750			
0.2617	16750.65	3.9440	3.9440	0.8829	26.72	0.77	0.750			
0.2644	16921.64	3.9410	3.9410	0.8826	26.72	0.77	0.750			
0.2670	17090.96	3.9380	3.9381	0.8822	26.72	0.77	0.750			
0.2697	17259.54	3.9350	3.9351	0.8830	26.72	0.77	0.750			
0.2723	17428.29	3.9320	3.9320	0.8855	26.71	0.76	0.750			
0.2750	17599.01	3.9290	3.9289	0.8855	26.70	0.75	0.750			
0.2776	17769.43	3.9260	3.9260	0.8913	26.70	0.75	0.750			
0.2803	17940.21	3.9230	3.9229	0.8941	26.69	0.74	0.750			
0.2830	18115.10	3.9200	3.9201	0.8962	26.69	0.74	0.750			
0.2857	18285.80	3.9170	3.9170	0.8968	26.69	0.74	0.750			
0.2884	18456.48	3.9140	3.9140	0.9024	26.68	0.73	0.750			
0.2911	18630.53	3.9110	3.9111	0.9079	26.68	0.73	0.750			
0.2938	18805.49	3.9080	3.9078	0.9152	26.68	0.73	0.750			
0.2966	18982.61	3.9050	3.9050	0.9085	26.67	0.72	0.750			
0.2993	19157.01	3.9020	3.9021	0.9155	26.67	0.72	0.750			
0.3021	19333.97	3.8990	3.8991	0.9181	26.67	0.72	0.750			
0.3048	19509.55	3.8960	3.8959	0.9178	26.66	0.71	0.750			
0.3076	19686.89	3.8930	3.8931	0.9159	26.65	0.70	0.750			
0.3103	19861.37	3.8900	3.8901	0.9231	26.65	0.70	0.750			
0.3131	20038.32	3.8870	3.8870	0.9297	26.64	0.69	0.750			
0.3159	20219.75	3.8840	3.8840	0.9369	26.63	0.68	0.750			
0.3187	20398.06	3.8810	3.8809	0.9351	26.62	0.67	0.750			
0.3216	20580.65	3.8780	3.8780	0.9279	26.61	0.66	0.750			
0.3244	20758.93	3.8750	3.8751	0.9319	26.61	0.66	0.750			
0.3272	20937.69	3.8720	3.8720	0.9359	26.60	0.65	0.750			
0.3299	21114.09	3.8690	3.8689	0.9318	26.59	0.64	0.750			
0.3327	21295.81	3.8660	3.8660	0.9324	26.59	0.64	0.750			
0.3355	21474.11	3.8630	3.8632	0.9417	26.58	0.63	0.750			
0.3384	21655.64	3.8600	3.8600	0.9477	26.57	0.62	0.750			
0.3413	21840.13	3.8570	3.8570	0.9569	26.56	0.61	0.750			
0.3441	22020.74	3.8540	3.8539	0.9546	26.56	0.61	0.750			
0.3470	22206.10	3.8510	3.8510	0.9492	26.55	0.60	0.750			
0.3498	22388.13	3.8480	3.8481	0.9574	26.54	0.59	0.750			
0.3527	22572.34	3.8450	3.8451	0.9621	26.53	0.58	0.750			
0.3555	22755.02	3.8420	3.8417	0.9635	26.52	0.57	0.750			
0.3585	22943.12	3.8390	3.8390	0.9616	26.52	0.57	0.750			
0.3614	23127.68	3.8360	3.8361	0.9681	26.51	0.56	0.750			
0.3643	23316.35	3.8330	3.8330	0.9724	26.51	0.56	0.750			
0.3672	23502.27	3.8300	3.8302	0.9734	26.50	0.55	0.750			
0.3701	23686.70	3.8270	3.8271	0.9807	26.49	0.54	0.750			
0.3731	23875.58	3.8240	3.8240	0.9898	26.48	0.53	0.750			
0.3761	24068.56	3.8210	3.8210	0.9968	26.47	0.52	0.750			
0.3791	24264.22	3.8180	3.8179	1.0086	26.46	0.51	0.750			
0.3821	24456.18	3.8150	3.8150	1.0013	26.45	0.50	0.750			
0.3851	24649.30	3.8120	3.8121	1.0115	26.44	0.49	0.750			
0.3882	24841.81	3.8090	3.8089	1.0134	26.43	0.48	0.750			
0.3911	25032.11	3.8060	3.8061	1.0286	26.42	0.47	0.750			
0.3943	25234.38	3.8030	3.8029	1.0422	26.41	0.46	0.750			
0.3974	25435.03	3.8000	3.8000	1.0590	26.40	0.45	0.750			
0.4006	25640.98	3.7970	3.7971	1.0793	26.39	0.44	0.750			
0.4039	25851.34	3.7940	3.7941	1.0931	26.38	0.43	0.750			
0.4072	26063.18	3.7910	3.7911	1.1027	26.37	0.42	0.750			
0.4105	26273.23	3.7880	3.7881	1.1222	26.35	0.40	0.750			
0.4139	26489.36	3.7850	3.7851	1.1365	26.34	0.39	0.750			
0.4174	26714.35	3.7820	3.7818	1.1590	26.33	0.38	0.750			
0.4208	26934.28	3.7790	3.7791	1.1834	26.32	0.37	0.750			
0.4244	27162.81	3.7760	3.7761	1.2143	26.31	0.36	0.750			
0.4281	27400.66	3.7730	3.7730	1.2490	26.30	0.35	0.750			
0.4319	27642.19	3.7700	3.7692	1.2617	26.29	0.34	0.750	0.328	0.458	
0.4357	27885.77	3.7670	3.7672	1.2891	26.27	0.32	0.750			
0.4397	28139.40	3.7640	3.7641	1.3216	26.26	0.31	0.750			
0.4436	28392.59	3.7610	3.7606	1.3591	26.25	0.30	0.750			
0.4477	28654.13	3.7580	3.7581	1.3881	26.24	0.29	0.750			
0.4520	28929.25	3.7550	3.7550	1.4030	26.22	0.27	0.750			
0.4564	29208.05	3.7520	3.7519	1.4293	26.21	0.26	0.750			
0.4606	29478.94	3.7490	3.7491	1.4496	26.20	0.25	0.750			
0.4650	29758.93	3.7460	3.7460	1.4756	26.20	0.25	0.750			
0.4695	30045.54	3.7430	3.7430	1.5053	26.19	0.24	0.750			
0.4739	30332.27	3.7400	3.7401	1.5416	26.17	0.22	0.750			
0.4787	30637.03	3.7370	3.7370	1.5901	26.16	0.21	0.750			
0.4835	30945.77	3.7340	3.7342	1.6566	26.14	0.19	0.750			
0.4886	31270.96	3.7310	3.7309	1.6930	26.12	0.17	0.750			
0.4937	31596.89	3.7280	3.7281	1.7415	26.10	0.15	0.750			
0.4990	31938.87	3.7250	3.7251	1.8090	26.09	0.14	0.750			
0.5047	32298.41	3.7220	3.7219	1.8367	26.07	0.12	0.750			
0.5103	32657.01	3.7190	3.7190	1.8663	26.06	0.11	0.750			
0.5159	33019.81	3.7160	3.7164	1.9184	26.04	0.09	0.750			
0.5216	33383.47	3.7130	3.7133	1.9667	26.02	0.07	0.750			
0.5276	33766.26	3.7100	3.7100	2.0417	26.00	0.05	0.750			
0.5337	34159.06	3.7070	3.7073	2.0995	25.99	0.04	0.750			
0.5402	34575.72	3.7040	3.7040	2.1744	25.97	0.02	0.750			
0.5470	35006.16	3.7010	3.7010	2.2475	25.96	0.01	0.750			
0.5537	35438.93	3.6980	3.6979	2.3191	25.94	-0.01	0.750			
0.5607	35886.66	3.6950	3.6949	2.3919	25.92	-0.03	0.750			
0.5680	36349.65	3.6920	3.6918	2.4975	25.91	-0.04	0.750			
0.5756	36841.30	3.6890	3.6890	2.5792	25.90	-0.05	0.750			
0.5834	37340.74	3.6860	3.6860	2.6597	25.89	-0.06	0.750			
0.5916	37864.35	3.6830	3.6830	2.7476	25.87	-0.08	0.750			
0.6001	38408.02	3.6800	3.6798	2.8093	25.87	-0.08	0.750			
0.6087	38956.99	3.6770	3.6771	2.8386	25.87	-0.08	0.750			
0.6176	39524.30	3.6740	3.6741	2.7865	25.85	-0.10	0.750			
0.6259	40058.15	3.6710	3.6711	2.5943	25.85	-0.10	0.750			
0.6334	40540.58	3.6680	3.6678	2.3910	25.85	-0.10	0.750			
0.6399	40956.67	3.6650	3.6650	2.1363	25.85	-0.10	0.750			
0.6461	41347.65	3.6620	3.6617	1.9280	25.85	-0.10	0.750			
0.6512	41677.71	3.6590	3.6590	1.7397	25.84	-0.11	0.750			
0.6560	41984.54	3.6560	3.6559	1.5958	25.83	-0.12	0.750			
0.6606	42281.37	3.6530	3.6531	1.4992	25.83	-0.12	0.750			
0.6651	42567.22	3.6500	3.6500	1.4177	25.82	-0.13	0.750			
0.6691	42823.35	3.6470	3.6471	1.3332	25.82	-0.13	0.750			
0.6729	43065.42	3.6440	3.6441	1.2673	25.82	-0.13	0.750			
0.6765	43297.68	3.6410	3.6410	1.2146	25.83	-0.12	0.750			
0.6801	43524.39	3.6380	3.6379	1.1924	25.83	-0.12	0.750			
0.6835	43743.22	3.6350	3.6350	1.1859	25.83	-0.12	0.750			
0.6870	43970.76	3.6320	3.6320	1.1941	25.82	-0.13	0.750			
0.6907	44202.63	3.6290	3.6290	1.2040	25.82	-0.13	0.750			
0.6943	44436.02	3.6260	3.6260	1.1965	25.82	-0.13	0.750			
0.6980	44668.91	3.6230	3.6231	1.1976	25.82	-0.13	0.750			
0.7016	44902.28	3.6200	3.6202	1.1886	25.82	-0.13	0.750			
0.7051	45127.98	3.6170	3.6167	1.1693	25.82	-0.13	0.750			
0.7086	45347.73	3.6140	3.6142	1.1459	25.82	-0.13	0.750			
0.7120	45568.18	3.6110	3.6110	1.1411	25.82	-0.13	0.750			
0.7153	45782.01	3.6080	3.6080	1.1415	25.82	-0.13	0.750			
0.7187	45998.49	3.6050	3.6051	1.1350	25.82	-0.13	0.750			
0.7221	46216.26	3.6020	3.6019	1.1551	25.82	-0.13	0.750			
0.7256	46440.39	3.5990	3.5989	1.1763	25.82	-0.13	0.750			
0.7292	46669.43	3.5960	3.5961	1.1938	25.82	-0.13	0.750			
0.7328	46897.73	3.5930	3.5931	1.2279	25.82	-0.13	0.750			
0.7365	47135.14	3.5900	3.5900	1.2650	25.82	-0.13	0.750			
0.7403	47381.60	3.5870	3.5870	1.3032	25.81	-0.14	0.750			
0.7443	47632.24	3.5840	3.5840	1.3517	25.81	-0.14	0.750			
0.7483	47893.92	3.5810	3.5811	1.4026	25.81	-0.14	0.750			
0.7527	48171.65	3.5780	3.5781	1.4522	25.80	-0.15	0.750			
0.7571	48455.04	3.5750	3.5749	1.5062	25.80	-0.15	0.750			
0.7617	48750.84	3.5720	3.5720	1.5438	25.80	-0.15	0.750			
0.7664	49052.59	3.5690	3.5691	1.5944	25.79	-0.16	0.750			
0.7713	49363.89	3.5660	3.5657	1.6338	25.79	-0.16	0.750			
0.7763	49682.10	3.5630	3.5632	1.6551	25.79	-0.16	0.750			
0.7814	50011.03	3.5600	3.5598	1.6516	25.79	-0.16	0.750			
0.7864	50327.45	3.5570	3.5570	1.6636	25.79	-0.16	0.750			
0.7913	50641.85	3.5540	3.5543	1.6699	25.79	-0.16	0.750			
0.7963	50963.52	3.5510	3.5510	1.7023	25.79	-0.16	0.750			
0.8014	51289.86	3.5480	3.5479	1.7162	25.78	-0.17	0.750			
0.8066	51622.79	3.5450	3.5449	1.7576	25.78	-0.17	0.750			
0.8121	51974.77	3.5420	3.5418	1.7734	25.79	-0.16	0.750			
0.8177	52332.43	3.5390	3.5387	1.6991	25.80	-0.15	0.750			
0.8231	52678.75	3.5360	3.5358	1.5315	25.81	-0.14	0.750			
0.8279	52983.12	3.5330	3.5335	1.3391	25.82	-0.13	0.750			
0.8316	53221.81	3.5300	3.5304	1.0907	25.82	-0.13	0.750			
0.8343	53394.23	3.5270	3.5268	0.8207	25.84	-0.11	0.750			
0.8360	53502.51	3.5240	3.5237	0.5881	25.85	-0.10	0.750			
0.8371	53573.67	3.5210	3.5208	0.4572	25.86	-0.09	0.750			
0.8382	53644.09	3.5180	3.5178	0.3821	25.86	-0.09	0.750			
0.8392	53709.65	3.5150	3.5151	0.3501	25.87	-0.08	0.750			
0.8402	53772.69	3.5120	3.5120	0.3278	25.87	-0.08	0.750			
0.8411	53832.53	3.5090	3.5090	0.3137	25.88	-0.07	0.750			
0.8420	53890.74	3.5060	3.5059	0.3030	25.88	-0.07	0.750			
0.8429	53947.31	3.5030	3.5030	0.2939	25.89	-0.06	0.750			
0.8438	54002.61	3.5000	3.5000	0.2875	25.89	-0.06	0.750			
0.8447	54057.60	3.4970	3.4970	0.2803	25.90	-0.05	0.750			
0.8455	54110.69	3.4940	3.4940	0.2727	25.90	-0.05	0.750			
0.8463	54162.57	3.4910	3.4910	0.2659	25.90	-0.05	0.750			
0.8471	54212.46	3.4880	3.4882	0.2589	25.91	-0.04	0.750			
0.8478	54261.33	3.4850	3.4849	0.2531	25.91	-0.04	0.750			
0.8486	54309.00	3.4820	3.4820	0.2467	25.92	-0.03	0.750			
0.8493	54355.51	3.4790	3.4790	0.2412	25.92	-0.03	0.750			
0.8500	54401.34	3.4760	3.4761	0.2364	25.92	-0.03	0.750			
0.8507	54446.73	3.4730	3.4731	0.2337	25.93	-0.02	0.750			
0.8514	54491.11	3.4700	3.4699	0.2287	25.93	-0.02	0.750			
0.8521	54534.62	3.4670	3.4669	0.2242	25.93	-0.02	0.750			
0.8528	54576.84	3.4640	3.4640	0.2203	25.94	-0.01	0.750			
0.8534	54619.08	3.4610	3.4611	0.2155	25.94	-0.01	0.750			
0.8541	54660.64	3.4580	3.4578	0.2109	25.94	-0.01	0.750			
0.8547	54700.49	3.4550	3.4550	0.2051	25.95	-0.00	0.750			
0.8553	54739.51	3.4520	3.4521	0.1994	25.95	-0.00	0.750			
0.8559	54776.92	3.4490	3.4490	0.1938	25.95	0.00	0.750			
0.8565	54813.57	3.4460	3.4459	0.1889	25.95	0.00	0.750			
0.8570	54849.40	3.4430	3.4430	0.1836	25.96	0.01	0.750			
0.8576	54883.74	3.4400	3.4400	0.1782	25.96	0.01	0.750			
0.8581	54917.60	3.4370	3.4370	0.1744	25.96	0.01	0.750			
0.8586	54950.99	3.4340	3.4340	0.1691	25.96	0.01	0.750			
0.8591	54982.72	3.4310	3.4309	0.1641	25.97	0.02	0.750			
0.8596	55013.76	3.4280	3.4280	0.1592	25.97	0.02	0.750			
0.8601	55044.12	3.4250	3.4251	0.1528	25.97	0.02	0.750			
0.8605	55073.01	3.4220	3.4219	0.1470	25.97	0.02	0.750			
0.8610	55100.90	3.4190	3.4191	0.1411	25.98	0.03	0.750			
0.8614	55127.13	3.4160	3.4160	0.1358	25.98	0.03	0.750			
0.8618	55152.49	3.4130	3.4129	0.1290	25.98	0.03	0.750			
0.8621	55177.00	3.4100	3.4098	0.1235	25.98	0.03	0.750			
0.8625	55200.17	3.4070	3.4069	0.1155	25.98	0.03	0.750			
0.8628	55221.68	3.4040	3.4044	0.1085	25.98	0.03	0.750			
0.8632	55243.37	3.4010	3.4009	0.1000	25.99	0.04	0.750			
0.8635	55261.92	3.3980	3.3978	0.0907	25.99	0.04	0.750			
0.8637	55278.28	3.3950	3.3951	0.0798	25.99	0.04	0.750			
0.8639	55292.63	3.3920	3.3923	0.0689	25.99	0.04	0.750			
0.8642	55305.65	3.3890	3.3894	0.0583	25.99	0.04	0.750			
0.8643	55315.68	3.3860	3.3868	0.0461	25.99	0.04	0.750			
0.8644	55323.37	3.3830	3.3843	0.0340	25.99	0.04	0.750			
0.8645	55328.72	3.3800	3.3820	0.0218	25.99	0.04	0.750			
