Ah_balance (normalized)	Ah_balance (mAh)	Voltage - fit (V)	Voltage -  interpolate (V)	dQ/dV (1/V)	Temperature (°C)	Temperature - diff (°C)	Current (C)	R_DC 0ms (mOhm)	R_DC 50ms (mOhm)	R_DC 50 ms PEC (mOhm)
0.0558	3569.98	4.1980	4.1980	0.7315	26.72	0.75	0.750			
0.0579	3706.69	4.1950	4.1951	0.7092	26.72	0.75	0.750			
0.0601	3847.46	4.1920	4.1921	0.7327	26.72	0.75	0.750			
0.0623	3989.53	4.1890	4.1891	0.7428	26.72	0.75	0.750			
0.0646	4132.96	4.1860	4.1860	0.7506	26.72	0.75	0.750			
0.0668	4278.03	4.1830	4.1831	0.7504	26.72	0.75	0.750			
0.0691	4425.24	4.1800	4.1799	0.7519	26.71	0.74	0.750			
0.0714	4569.65	4.1770	4.1771	0.7526	26.71	0.74	0.750			
0.0737	4713.74	4.1740	4.1738	0.7557	26.71	0.74	0.750			
0.0759	4859.48	4.1710	4.1710	0.7604	26.71	0.74	0.750			
0.0782	5005.76	4.1680	4.1679	0.7566	26.71	0.74	0.750			
0.0805	5150.53	4.1650	4.1650	0.7612	26.70	0.73	0.750			
0.0828	5296.59	4.1620	4.1620	0.7607	26.70	0.73	0.750			
0.0851	5444.31	4.1590	4.1590	0.7601	26.70	0.73	0.750			
0.0874	5590.57	4.1560	4.1560	0.7612	26.70	0.73	0.750			
0.0896	5735.32	4.1530	4.1531	0.7604	26.70	0.73	0.750			
0.0919	5882.24	4.1500	4.1499	0.7590	26.70	0.73	0.750			
0.0942	6028.71	4.1470	4.1471	0.7609	26.70	0.73	0.750			
0.0964	6171.94	4.1440	4.1440	0.7642	26.70	0.73	0.750			
0.0987	6318.85	4.1410	4.1409	0.7684	26.70	0.73	0.750			
0.1011	6468.96	4.1380	4.1379	0.7713	26.70	0.73	0.750			
0.1034	6616.72	4.1350	4.1352	0.7700	26.70	0.73	0.750			
0.1057	6765.80	4.1320	4.1320	0.7734	26.70	0.73	0.750			
0.1081	6915.21	4.1290	4.1290	0.7740	26.70	0.73	0.750			
0.1103	7061.96	4.1260	4.1258	0.7713	26.70	0.73	0.750			
0.1126	7209.25	4.1230	4.1231	0.7692	26.70	0.73	0.750			
0.1150	7358.50	4.1200	4.1200	0.7736	26.70	0.73	0.750			
0.1173	7507.21	4.1170	4.1169	0.7744	26.70	0.73	0.750			
0.1196	7655.58	4.1140	4.1140	0.7755	26.69	0.72	0.750			
0.1219	7803.74	4.1110	4.1111	0.7779	26.69	0.72	0.750			
0.1243	7953.18	4.1080	4.1080	0.7829	26.69	0.72	0.750			
0.1266	8103.93	4.1050	4.1050	0.7884	26.69	0.72	0.750			
0.1290	8256.84	4.1020	4.1020	0.7860	26.69	0.72	0.750			
0.1314	8406.75	4.0990	4.0990	0.7879	26.68	0.71	0.750			
0.1337	8559.51	4.0960	4.0961	0.7892	26.68	0.71	0.750			
0.1361	8710.81	4.0930	4.0927	0.7896	26.68	0.71	0.750			
0.1384	8860.54	4.0900	4.0900	0.7955	26.68	0.71	0.750			
0.1409	9015.91	4.0870	4.0869	0.7879	26.68	0.71	0.750			
0.1432	9166.29	4.0840	4.0840	0.7981	26.68	0.71	0.750			
0.1456	9321.58	4.0810	4.0811	0.8007	26.68	0.71	0.750			
0.1480	9474.32	4.0780	4.0778	0.7973	26.68	0.71	0.750			
0.1504	9628.37	4.0750	4.0751	0.7976	26.68	0.71	0.750			
0.1528	9781.91	4.0720	4.0721	0.7903	26.68	0.71	0.750			
0.1552	9931.68	4.0690	4.0690	0.7921	26.67	0.70	0.750			
0.1576	10084.47	4.0660	4.0660	0.8052	26.67	0.70	0.750			
0.1599	10234.67	4.0630	4.0630	0.8026	26.67	0.70	0.750			
0.1624	10390.87	4.0600	4.0600	0.8154	26.67	0.70	0.750			
0.1649	10552.34	4.0570	4.0570	0.8117	26.67	0.70	0.750			
0.1673	10708.37	4.0540	4.0541	0.8128	26.67	0.70	0.750			
0.1698	10866.37	4.0510	4.0511	0.8154	26.67	0.70	0.750			
0.1722	11017.69	4.0480	4.0481	0.8141	26.67	0.70	0.750			
0.1746	11173.61	4.0450	4.0450	0.8168	26.67	0.70	0.750			
0.1771	11332.84	4.0420	4.0420	0.8189	26.67	0.70	0.750			
0.1795	11490.91	4.0390	4.0391	0.8283	26.67	0.70	0.750			
0.1821	11651.92	4.0360	4.0360	0.8351	26.66	0.69	0.750			
0.1846	11812.23	4.0330	4.0331	0.8355	26.66	0.69	0.750			
0.1871	11971.84	4.0300	4.0301	0.8380	26.66	0.69	0.750			
0.1896	12134.22	4.0270	4.0270	0.8357	26.66	0.69	0.750			
0.1921	12296.50	4.0240	4.0240	0.8419	26.66	0.69	0.750			
0.1946	12457.39	4.0210	4.0210	0.8442	26.66	0.69	0.750			
0.1972	12618.93	4.0180	4.0181	0.8454	26.66	0.69	0.750			
0.1997	12781.97	4.0150	4.0151	0.8481	26.66	0.69	0.750			
0.2023	12945.81	4.0120	4.0120	0.8463	26.66	0.69	0.750			
0.2048	13108.33	4.0090	4.0090	0.8483	26.66	0.69	0.750			
0.2074	13272.04	4.0060	4.0061	0.8544	26.66	0.69	0.750			
0.2099	13434.55	4.0030	4.0030	0.8537	26.66	0.69	0.750			
0.2125	13598.04	4.0000	4.0000	0.8571	26.66	0.69	0.750			
0.2150	13763.06	3.9970	3.9971	0.8586	26.66	0.69	0.750			
0.2176	13928.91	3.9940	3.9940	0.8641	26.65	0.68	0.750			
0.2203	14096.71	3.9910	3.9910	0.8691	26.65	0.68	0.750			
0.2229	14262.54	3.9880	3.9878	0.8683	26.65	0.68	0.750			
0.2255	14428.81	3.9850	3.9850	0.8740	26.65	0.68	0.750			
0.2281	14597.57	3.9820	3.9820	0.8731	26.65	0.68	0.750			
0.2307	14766.02	3.9790	3.9790	0.8719	26.64	0.67	0.750			
0.2334	14934.41	3.9760	3.9760	0.8727	26.64	0.67	0.750			
0.2359	15100.68	3.9730	3.9729	0.8753	26.64	0.67	0.750			
0.2386	15268.29	3.9700	3.9700	0.8777	26.64	0.67	0.750			
0.2412	15436.90	3.9670	3.9669	0.8748	26.64	0.67	0.750			
0.2438	15603.33	3.9640	3.9642	0.8782	26.64	0.67	0.750			
0.2464	15772.69	3.9610	3.9610	0.8840	26.64	0.67	0.750			
0.2491	15943.67	3.9580	3.9583	0.8836	26.64	0.67	0.750			
0.2518	16113.26	3.9550	3.9551	0.8809	26.63	0.66	0.750			
0.2544	16282.18	3.9520	3.9521	0.8773	26.63	0.66	0.750			
0.2571	16452.72	3.9490	3.9489	0.8790	26.63	0.66	0.750			
0.2597	16619.54	3.9460	3.9461	0.8706	26.62	0.65	0.750			
0.2623	16787.19	3.9430	3.9430	0.8752	26.62	0.65	0.750			
0.2649	16955.12	3.9400	3.9400	0.8754	26.61	0.64	0.750			
0.2676	17124.96	3.9370	3.9371	0.8786	26.61	0.64	0.750			
0.2702	17293.01	3.9340	3.9339	0.8823	26.61	0.64	0.750			
0.2728	17461.96	3.9310	3.9309	0.8837	26.60	0.63	0.750			
0.2755	17629.93	3.9280	3.9281	0.8861	26.60	0.63	0.750			
0.2781	17800.94	3.9250	3.9250	0.8832	26.59	0.62	0.750			
0.2808	17969.37	3.9220	3.9220	0.8919	26.59	0.62	0.750			
0.2835	18141.96	3.9190	3.9191	0.8997	26.58	0.61	0.750			
0.2862	18315.23	3.9160	3.9155	0.9045	26.58	0.61	0.750			
0.2889	18490.56	3.9130	3.9131	0.9040	26.57	0.60	0.750			
0.2916	18664.93	3.9100	3.9101	0.9101	26.56	0.59	0.750			
0.2944	18841.28	3.9070	3.9070	0.9110	26.55	0.58	0.750			
0.2971	19013.27	3.9040	3.9041	0.9104	26.54	0.57	0.750			
0.2998	19188.87	3.9010	3.9009	0.9164	26.54	0.57	0.750			
0.3026	19367.38	3.8980	3.8980	0.9143	26.53	0.56	0.750			
0.3053	19542.15	3.8950	3.8951	0.9180	26.53	0.56	0.750			
0.3081	19720.13	3.8920	3.8921	0.9232	26.52	0.55	0.750			
0.3109	19894.77	3.8890	3.8888	0.9253	26.52	0.55	0.750			
0.3137	20074.04	3.8860	3.8860	0.9228	26.51	0.54	0.750			
0.3164	20248.90	3.8830	3.8831	0.9284	26.51	0.54	0.750			
0.3192	20429.34	3.8800	3.8800	0.9394	26.50	0.53	0.750			
0.3220	20609.92	3.8770	3.8771	0.9438	26.49	0.52	0.750			
0.3249	20791.75	3.8740	3.8741	0.9491	26.48	0.51	0.750			
0.3277	20975.18	3.8710	3.8710	0.9564	26.47	0.50	0.750			
0.3306	21161.23	3.8680	3.8680	0.9483	26.46	0.49	0.750			
0.3335	21347.02	3.8650	3.8651	0.9464	26.45	0.48	0.750			
0.3363	21523.46	3.8620	3.8620	0.9459	26.44	0.47	0.750			
0.3392	21706.79	3.8590	3.8587	0.9363	26.43	0.46	0.750			
0.3419	21883.07	3.8560	3.8559	0.9423	26.43	0.46	0.750			
0.3447	22063.74	3.8530	3.8532	0.9481	26.42	0.45	0.750			
0.3476	22247.32	3.8500	3.8499	0.9615	26.41	0.44	0.750			
0.3506	22437.21	3.8470	3.8471	0.9599	26.40	0.43	0.750			
0.3534	22619.09	3.8440	3.8439	0.9594	26.39	0.42	0.750			
0.3563	22801.01	3.8410	3.8412	0.9587	26.39	0.42	0.750			
0.3592	22988.47	3.8380	3.8381	0.9675	26.38	0.41	0.750			
0.3621	23173.07	3.8350	3.8349	0.9661	26.37	0.40	0.750			
0.3650	23358.02	3.8320	3.8320	0.9705	26.35	0.38	0.750			
0.3679	23543.00	3.8290	3.8291	0.9747	26.34	0.37	0.750			
0.3708	23732.62	3.8260	3.8260	0.9892	26.33	0.36	0.750			
0.3738	23921.64	3.8230	3.8229	0.9930	26.32	0.35	0.750			
0.3768	24113.93	3.8200	3.8200	1.0053	26.31	0.34	0.750			
0.3798	24307.39	3.8170	3.8171	1.0173	26.30	0.33	0.750			
0.3829	24504.17	3.8140	3.8140	1.0299	26.30	0.33	0.750			
0.3860	24703.78	3.8110	3.8107	1.0444	26.29	0.32	0.750			
0.3891	24905.59	3.8080	3.8080	1.0410	26.28	0.31	0.750			
0.3922	25103.86	3.8050	3.8050	1.0510	26.27	0.30	0.750			
0.3954	25306.97	3.8020	3.8021	1.0619	26.26	0.29	0.750			
0.3987	25513.72	3.7990	3.7985	1.0642	26.25	0.28	0.750			
0.4018	25715.40	3.7960	3.7961	1.0761	26.24	0.27	0.750			
0.4050	25922.14	3.7930	3.7931	1.0935	26.23	0.26	0.750			
0.4083	26133.32	3.7900	3.7901	1.1146	26.22	0.25	0.750			
0.4117	26349.38	3.7870	3.7869	1.1228	26.21	0.24	0.750			
0.4151	26566.57	3.7840	3.7841	1.1469	26.20	0.23	0.750			
0.4186	26790.78	3.7810	3.7811	1.1711	26.19	0.22	0.750			
0.4222	27018.03	3.7780	3.7779	1.1923	26.17	0.20	0.750			
0.4257	27245.07	3.7750	3.7751	1.2188	26.16	0.19	0.750			
0.4294	27479.93	3.7720	3.7721	1.2477	26.15	0.18	0.750			
0.4332	27724.75	3.7690	3.7683	1.2747	26.14	0.17	0.750	0.316	0.443	
0.4371	27974.46	3.7660	3.7660	1.3057	26.13	0.16	0.750			
0.4410	28226.86	3.7630	3.7631	1.3315	26.11	0.14	0.750			
0.4451	28487.51	3.7600	3.7600	1.3515	26.10	0.13	0.750			
0.4492	28749.48	3.7570	3.7569	1.3772	26.09	0.12	0.750			
0.4533	29013.13	3.7540	3.7541	1.3905	26.07	0.10	0.750			
0.4576	29284.99	3.7510	3.7510	1.4169	26.06	0.09	0.750			
0.4618	29556.89	3.7480	3.7480	1.4448	26.05	0.08	0.750			
0.4662	29833.66	3.7450	3.7451	1.4767	26.04	0.07	0.750			
0.4706	30118.57	3.7420	3.7422	1.5049	26.03	0.06	0.750			
0.4752	30411.87	3.7390	3.7388	1.5533	26.02	0.05	0.750			
0.4799	30712.26	3.7360	3.7358	1.6066	26.00	0.03	0.750			
0.4848	31029.48	3.7330	3.7330	1.6598	25.99	0.02	0.750			
0.4899	31355.08	3.7300	3.7301	1.7029	25.98	0.01	0.750			
0.4951	31688.39	3.7270	3.7271	1.7388	25.96	-0.01	0.750			
0.5005	32028.96	3.7240	3.7240	1.7842	25.94	-0.03	0.750			
0.5059	32378.98	3.7210	3.7210	1.8371	25.93	-0.04	0.750			
0.5114	32731.40	3.7180	3.7182	1.8874	25.91	-0.06	0.750			
0.5171	33095.05	3.7150	3.7152	1.9347	25.90	-0.07	0.750			
0.5231	33476.14	3.7120	3.7121	1.9940	25.88	-0.09	0.750			
0.5291	33861.18	3.7090	3.7090	2.0603	25.87	-0.10	0.750			
0.5353	34258.99	3.7060	3.7061	2.1274	25.85	-0.12	0.750			
0.5418	34673.64	3.7030	3.7029	2.2023	25.84	-0.13	0.750			
0.5485	35105.58	3.7000	3.7000	2.2625	25.82	-0.15	0.750			
0.5554	35542.97	3.6970	3.6971	2.3388	25.80	-0.17	0.750			
0.5626	36005.91	3.6940	3.6940	2.4194	25.79	-0.18	0.750			
0.5699	36473.22	3.6910	3.6908	2.4907	25.78	-0.19	0.750			
0.5775	36959.38	3.6880	3.6881	2.5591	25.76	-0.21	0.750			
0.5852	37455.63	3.6850	3.6849	2.6737	25.75	-0.22	0.750			
0.5934	37977.27	3.6820	3.6819	2.7740	25.75	-0.22	0.750			
0.6018	38517.44	3.6790	3.6789	2.8395	25.74	-0.23	0.750			
0.6107	39083.95	3.6760	3.6760	2.8554	25.72	-0.25	0.750			
0.6196	39652.52	3.6730	3.6729	2.8095	25.72	-0.25	0.750			
0.6280	40188.94	3.6700	3.6700	2.6260	25.72	-0.25	0.750			
0.6356	40677.49	3.6670	3.6672	2.4093	25.72	-0.25	0.750			
0.6424	41112.39	3.6640	3.6639	2.1554	25.72	-0.25	0.750			
0.6483	41492.70	3.6610	3.6608	1.9615	25.72	-0.25	0.750			
0.6537	41837.33	3.6580	3.6580	1.7993	25.72	-0.25	0.750			
0.6586	42152.39	3.6550	3.6551	1.6452	25.72	-0.25	0.750			
0.6635	42463.17	3.6520	3.6523	1.5447	25.72	-0.25	0.750			
0.6681	42755.93	3.6490	3.6491	1.4535	25.72	-0.25	0.750			
0.6722	43023.06	3.6460	3.6459	1.3587	25.72	-0.25	0.750			
0.6760	43262.54	3.6430	3.6430	1.2746	25.72	-0.25	0.750			
0.6795	43490.39	3.6400	3.6401	1.2130	25.72	-0.25	0.750			
0.6831	43716.39	3.6370	3.6371	1.1941	25.72	-0.25	0.750			
0.6866	43941.44	3.6340	3.6338	1.1703	25.72	-0.25	0.750			
0.6900	44161.03	3.6310	3.6312	1.1800	25.72	-0.25	0.750			
0.6936	44387.28	3.6280	3.6281	1.1944	25.72	-0.25	0.750			
0.6972	44621.66	3.6250	3.6248	1.1991	25.72	-0.25	0.750			
0.7008	44853.13	3.6220	3.6221	1.1959	25.73	-0.24	0.750			
0.7045	45086.80	3.6190	3.6191	1.1981	25.73	-0.24	0.750			
0.7081	45319.72	3.6160	3.6161	1.1833	25.74	-0.23	0.750			
0.7117	45548.08	3.6130	3.6129	1.1551	25.75	-0.22	0.750			
0.7151	45764.20	3.6100	3.6101	1.1350	25.75	-0.22	0.750			
0.7184	45977.64	3.6070	3.6070	1.1271	25.75	-0.22	0.750			
0.7217	46191.27	3.6040	3.6040	1.1329	25.75	-0.22	0.750			
0.7251	46405.69	3.6010	3.6010	1.1391	25.75	-0.22	0.750			
0.7285	46623.67	3.5980	3.5981	1.1597	25.75	-0.22	0.750			
0.7320	46848.21	3.5950	3.5950	1.1883	25.74	-0.23	0.750			
0.7357	47082.46	3.5920	3.5917	1.2075	25.74	-0.23	0.750			
0.7393	47312.75	3.5890	3.5891	1.2493	25.74	-0.23	0.750			
0.7430	47552.65	3.5860	3.5860	1.3007	25.75	-0.22	0.750			
0.7470	47808.16	3.5830	3.5829	1.3354	25.75	-0.22	0.750			
0.7511	48070.01	3.5800	3.5801	1.3893	25.75	-0.22	0.750			
0.7553	48341.08	3.5770	3.5771	1.4404	25.74	-0.23	0.750			
0.7597	48623.35	3.5740	3.5740	1.4879	25.73	-0.24	0.750			
0.7644	48919.27	3.5710	3.5711	1.5197	25.73	-0.24	0.750			
0.7689	49211.09	3.5680	3.5680	1.5623	25.73	-0.24	0.750			
0.7737	49517.04	3.5650	3.5649	1.5979	25.73	-0.24	0.750			
0.7786	49831.56	3.5620	3.5620	1.6291	25.73	-0.24	0.750			
0.7835	50143.76	3.5590	3.5594	1.6524	25.73	-0.24	0.750			
0.7886	50467.20	3.5560	3.5560	1.6714	25.73	-0.24	0.750			
0.7937	50798.33	3.5530	3.5529	1.6821	25.74	-0.23	0.750			
0.7988	51120.70	3.5500	3.5498	1.6965	25.74	-0.23	0.750			
0.8038	51440.75	3.5470	3.5470	1.7212	25.74	-0.23	0.750			
0.8089	51772.69	3.5440	3.5440	1.7442	25.75	-0.22	0.750			
0.8143	52113.27	3.5410	3.5412	1.7657	25.76	-0.21	0.750			
0.8198	52469.66	3.5380	3.5381	1.7408	25.76	-0.21	0.750			
0.8254	52822.85	3.5350	3.5350	1.5964	25.78	-0.19	0.750			
0.8304	53146.22	3.5320	3.5322	1.4015	25.80	-0.17	0.750			
0.8342	53391.37	3.5290	3.5297	1.1303	25.81	-0.16	0.750			
0.8372	53579.15	3.5260	3.5261	0.8950	25.83	-0.14	0.750			
0.8392	53711.04	3.5230	3.5225	0.6649	25.84	-0.13	0.750			
0.8404	53786.21	3.5200	3.5199	0.5001	25.84	-0.13	0.750			
0.8415	53857.68	3.5170	3.5168	0.4072	25.85	-0.12	0.750			
0.8426	53923.97	3.5140	3.5139	0.3564	25.86	-0.11	0.750			
0.8435	53987.07	3.5110	3.5110	0.3357	25.86	-0.11	0.750			
0.8445	54048.82	3.5080	3.5081	0.3195	25.87	-0.10	0.750			
0.8455	54109.08	3.5050	3.5049	0.3060	25.87	-0.10	0.750			
0.8464	54166.55	3.5020	3.5019	0.2940	25.88	-0.09	0.750			
0.8472	54221.38	3.4990	3.4991	0.2833	25.88	-0.09	0.750			
0.8480	54274.61	3.4960	3.4961	0.2750	25.89	-0.08	0.750			
0.8488	54326.19	3.4930	3.4930	0.2687	25.89	-0.08	0.750			
0.8496	54376.33	3.4900	3.4900	0.2622	25.90	-0.07	0.750			
0.8504	54425.73	3.4870	3.4871	0.2585	25.90	-0.07	0.750			
0.8512	54475.20	3.4840	3.4840	0.2544	25.91	-0.06	0.750			
0.8519	54524.63	3.4810	3.4810	0.2504	25.91	-0.06	0.750			
0.8527	54571.94	3.4780	3.4779	0.2443	25.92	-0.05	0.750			
0.8534	54618.50	3.4750	3.4751	0.2392	25.92	-0.05	0.750			
0.8541	54663.68	3.4720	3.4721	0.2336	25.93	-0.04	0.750			
0.8548	54707.94	3.4690	3.4689	0.2291	25.93	-0.04	0.750			
0.8555	54751.43	3.4660	3.4660	0.2239	25.93	-0.04	0.750			
0.8561	54793.39	3.4630	3.4630	0.2194	25.94	-0.03	0.750			
0.8568	54835.73	3.4600	3.4600	0.2132	25.94	-0.03	0.750			
0.8574	54876.35	3.4570	3.4570	0.2087	25.95	-0.02	0.750			
0.8581	54915.83	3.4540	3.4539	0.2025	25.95	-0.02	0.750			
0.8587	54954.10	3.4510	3.4512	0.1971	25.96	-0.01	0.750			
0.8592	54991.10	3.4480	3.4478	0.1918	25.96	-0.01	0.750			
0.8598	55026.96	3.4450	3.4449	0.1860	25.96	-0.01	0.750			
0.8603	55062.36	3.4420	3.4422	0.1813	25.97	-0.00	0.750			
0.8609	55096.60	3.4390	3.4390	0.1761	25.97	-0.00	0.750			
0.8614	55130.64	3.4360	3.4361	0.1724	25.97	0.00	0.750			
0.8619	55162.97	3.4330	3.4330	0.1663	25.98	0.01	0.750			
0.8624	55194.39	3.4300	3.4300	0.1611	25.98	0.01	0.750			
0.8629	55225.02	3.4270	3.4270	0.1556	25.98	0.01	0.750			
0.8633	55254.31	3.4240	3.4240	0.1499	25.99	0.02	0.750			
0.8638	55282.59	3.4210	3.4210	0.1441	25.99	0.02	0.750			
0.8642	55309.86	3.4180	3.4180	0.1385	25.99	0.02	0.750			
0.8646	55336.04	3.4150	3.4151	0.1321	25.99	0.02	0.750			
0.8650	55360.85	3.4120	3.4119	0.1257	26.00	0.03	0.750			
0.8654	55384.51	3.4090	3.4090	0.1184	26.00	0.03	0.750			
0.8657	55406.66	3.4060	3.4060	0.1113	26.00	0.03	0.750			
0.8661	55428.88	3.4030	3.4028	0.1029	26.00	0.03	0.750			
0.8664	55447.62	3.4000	3.3999	0.0924	26.00	0.03	0.750			
0.8666	55464.98	3.3970	3.3971	0.0836	26.01	0.04	0.750			
0.8669	55479.94	3.3940	3.3942	0.0722	26.01	0.04	0.750			
0.8671	55493.78	3.3910	3.3914	0.0619	26.01	0.04	0.750			
0.8673	55504.44	3.3880	3.3887	0.0492	26.01	0.04	0.750			
0.8674	55512.69	3.3850	3.3860	0.0366	26.01	0.04	0.750			
0.8675	55518.50	3.3820	3.3835	0.0240	26.01	0.04	0.750			
0.8675	55521.89	3.3790	3.3815	0.0113	26.01	0.04	0.750			
