Ah_balance (normalized)	Ah_balance (mAh)	Voltage - fit (V)	Voltage -  interpolate (V)	dQ/dV (1/V)	Temperature (°C)	Temperature - diff (°C)	Current (C)	R_DC 0ms (mOhm)	R_DC 50ms (mOhm)	R_DC 50 ms PEC (mOhm)
0.0002	15.35	4.1660	4.1657	-0.1190	25.60	0.00	-0.750			
0.0007	42.90	4.1630	4.1627	-0.1657	25.60	0.00	-0.750			
0.0012	78.85	4.1600	4.1602	-0.2103	25.60	-0.00	-0.750			
0.0019	123.61	4.1570	4.1571	-0.2551	25.60	-0.00	-0.750			
0.0028	177.44	4.1540	4.1540	-0.2967	25.60	-0.00	-0.750			
0.0037	238.68	4.1510	4.1510	-0.3363	25.59	-0.01	-0.750			
0.0048	307.97	4.1480	4.1481	-0.3794	25.59	-0.01	-0.750			
0.0060	384.98	4.1450	4.1450	-0.4162	25.59	-0.01	-0.750			
0.0073	468.99	4.1420	4.1419	-0.4525	25.59	-0.01	-0.750			
0.0088	560.30	4.1390	4.1390	-0.4830	25.58	-0.02	-0.750			
0.0103	657.34	4.1360	4.1361	-0.5138	25.58	-0.02	-0.750			
0.0119	759.06	4.1330	4.1329	-0.5426	25.57	-0.03	-0.750			
0.0135	866.46	4.1300	4.1301	-0.5678	25.57	-0.03	-0.750			
0.0153	978.11	4.1270	4.1270	-0.5858	25.57	-0.03	-0.750			
0.0171	1093.87	4.1240	4.1239	-0.6084	25.56	-0.04	-0.750			
0.0189	1212.12	4.1210	4.1210	-0.6264	25.56	-0.04	-0.750			
0.0209	1335.47	4.1180	4.1181	-0.6433	25.55	-0.05	-0.750			
0.0228	1459.97	4.1150	4.1149	-0.6524	25.55	-0.05	-0.750			
0.0248	1587.89	4.1120	4.1119	-0.6601	25.54	-0.06	-0.750			
0.0268	1715.90	4.1090	4.1092	-0.6681	25.54	-0.06	-0.750			
0.0288	1844.27	4.1060	4.1060	-0.6810	25.54	-0.06	-0.750			
0.0309	1974.42	4.1030	4.1030	-0.6871	25.53	-0.07	-0.750			
0.0329	2107.72	4.1000	4.0999	-0.6913	25.53	-0.07	-0.750			
0.0350	2242.42	4.0970	4.0970	-0.6983	25.53	-0.07	-0.750			
0.0372	2378.38	4.0940	4.0941	-0.7056	25.52	-0.08	-0.750			
0.0393	2513.67	4.0910	4.0911	-0.7119	25.52	-0.08	-0.750			
0.0414	2649.51	4.0880	4.0880	-0.7143	25.52	-0.08	-0.750			
0.0435	2785.28	4.0850	4.0850	-0.7237	25.52	-0.08	-0.750			
0.0457	2926.97	4.0820	4.0819	-0.7322	25.52	-0.08	-0.750			
0.0480	3070.49	4.0790	4.0790	-0.7364	25.52	-0.08	-0.750			
0.0502	3213.39	4.0760	4.0760	-0.7392	25.52	-0.08	-0.750			
0.0524	3355.16	4.0730	4.0730	-0.7359	25.52	-0.08	-0.750			
0.0546	3495.54	4.0700	4.0700	-0.7372	25.51	-0.09	-0.750			
0.0568	3635.95	4.0670	4.0670	-0.7378	25.51	-0.09	-0.750			
0.0590	3776.37	4.0640	4.0640	-0.7395	25.51	-0.09	-0.750			
0.0612	3919.73	4.0610	4.0610	-0.7457	25.50	-0.10	-0.750			
0.0635	4064.55	4.0580	4.0581	-0.7498	25.50	-0.10	-0.750			
0.0658	4208.68	4.0550	4.0549	-0.7494	25.50	-0.10	-0.750			
0.0680	4352.35	4.0520	4.0520	-0.7551	25.51	-0.09	-0.750			
0.0703	4497.00	4.0490	4.0490	-0.7557	25.51	-0.09	-0.750			
0.0725	4642.36	4.0460	4.0460	-0.7554	25.51	-0.09	-0.750			
0.0748	4788.09	4.0430	4.0429	-0.7593	25.52	-0.08	-0.750			
0.0771	4934.62	4.0400	4.0400	-0.7584	25.52	-0.08	-0.750			
0.0794	5081.04	4.0370	4.0370	-0.7609	25.52	-0.08	-0.750			
0.0817	5226.26	4.0340	4.0340	-0.7660	25.52	-0.08	-0.750			
0.0840	5373.58	4.0310	4.0310	-0.7642	25.52	-0.08	-0.750			
0.0863	5521.94	4.0280	4.0280	-0.7681	25.52	-0.08	-0.750			
0.0886	5669.77	4.0250	4.0252	-0.7700	25.52	-0.08	-0.750			
0.0909	5816.73	4.0220	4.0220	-0.7715	25.52	-0.08	-0.750			
0.0932	5965.48	4.0190	4.0189	-0.7772	25.52	-0.08	-0.750			
0.0955	6113.90	4.0160	4.0160	-0.7773	25.52	-0.08	-0.750			
0.0979	6263.85	4.0130	4.0130	-0.7810	25.52	-0.08	-0.750			
0.1002	6414.72	4.0100	4.0100	-0.7840	25.52	-0.08	-0.750			
0.1026	6565.96	4.0070	4.0070	-0.7835	25.52	-0.08	-0.750			
0.1049	6714.65	4.0040	4.0040	-0.7877	25.52	-0.08	-0.750			
0.1073	6866.41	4.0010	4.0009	-0.7864	25.52	-0.08	-0.750			
0.1096	7016.83	3.9980	3.9980	-0.7892	25.52	-0.08	-0.750			
0.1120	7169.82	3.9950	3.9949	-0.7930	25.52	-0.08	-0.750			
0.1144	7322.16	3.9920	3.9920	-0.7961	25.52	-0.08	-0.750			
0.1168	7475.27	3.9890	3.9890	-0.7974	25.52	-0.08	-0.750			
0.1192	7629.18	3.9860	3.9860	-0.7973	25.53	-0.07	-0.750			
0.1216	7781.01	3.9830	3.9830	-0.7942	25.53	-0.07	-0.750			
0.1240	7936.06	3.9800	3.9800	-0.7977	25.54	-0.06	-0.750			
0.1264	8088.79	3.9770	3.9771	-0.7907	25.54	-0.06	-0.750			
0.1288	8240.10	3.9740	3.9740	-0.7891	25.54	-0.06	-0.750			
0.1311	8389.13	3.9710	3.9711	-0.7975	25.54	-0.06	-0.750			
0.1335	8543.48	3.9680	3.9680	-0.8033	25.54	-0.06	-0.750			
0.1359	8697.89	3.9650	3.9648	-0.8089	25.54	-0.06	-0.750			
0.1383	8853.53	3.9620	3.9623	-0.8152	25.54	-0.06	-0.750			
0.1408	9012.61	3.9590	3.9590	-0.8233	25.54	-0.06	-0.750			
0.1433	9171.72	3.9560	3.9559	-0.8320	25.54	-0.06	-0.750			
0.1458	9332.24	3.9530	3.9530	-0.8267	25.54	-0.06	-0.750			
0.1483	9490.54	3.9500	3.9500	-0.8195	25.54	-0.06	-0.750			
0.1508	9651.39	3.9470	3.9472	-0.8232	25.54	-0.06	-0.750			
0.1532	9807.78	3.9440	3.9439	-0.8192	25.54	-0.06	-0.750			
0.1557	9962.34	3.9410	3.9409	-0.8246	25.55	-0.05	-0.750			
0.1581	10120.36	3.9380	3.9380	-0.8276	25.55	-0.05	-0.750			
0.1606	10278.73	3.9350	3.9348	-0.8266	25.56	-0.04	-0.750			
0.1632	10442.51	3.9320	3.9322	-0.8369	25.56	-0.04	-0.750			
0.1657	10602.64	3.9290	3.9290	-0.8403	25.56	-0.04	-0.750			
0.1682	10763.80	3.9260	3.9259	-0.8435	25.57	-0.03	-0.750			
0.1707	10926.49	3.9230	3.9229	-0.8442	25.57	-0.03	-0.750			
0.1732	11086.66	3.9200	3.9200	-0.8388	25.58	-0.02	-0.750			
0.1758	11251.96	3.9170	3.9171	-0.8449	25.58	-0.02	-0.750			
0.1783	11413.91	3.9140	3.9140	-0.8450	25.58	-0.02	-0.750			
0.1809	11575.12	3.9110	3.9110	-0.8477	25.58	-0.02	-0.750			
0.1834	11737.39	3.9080	3.9079	-0.8484	25.58	-0.02	-0.750			
0.1859	11899.94	3.9050	3.9050	-0.8499	25.58	-0.02	-0.750			
0.1885	12065.59	3.9020	3.9022	-0.8548	25.58	-0.02	-0.750			
0.1911	12230.03	3.8990	3.8990	-0.8567	25.58	-0.02	-0.750			
0.1937	12395.32	3.8960	3.8960	-0.8584	25.59	-0.01	-0.750			
0.1962	12559.83	3.8930	3.8929	-0.8561	25.59	-0.01	-0.750			
0.1988	12725.30	3.8900	3.8900	-0.8580	25.60	-0.00	-0.750			
0.2014	12889.51	3.8870	3.8872	-0.8547	25.60	0.00	-0.750			
0.2040	13053.14	3.8840	3.8840	-0.8544	25.60	0.00	-0.750			
0.2065	13217.15	3.8810	3.8810	-0.8594	25.61	0.01	-0.750			
0.2091	13381.79	3.8780	3.8779	-0.8614	25.61	0.01	-0.750			
0.2117	13548.41	3.8750	3.8749	-0.8694	25.62	0.02	-0.750			
0.2143	13715.44	3.8720	3.8722	-0.8669	25.62	0.02	-0.750			
0.2169	13882.86	3.8690	3.8689	-0.8694	25.62	0.02	-0.750			
0.2195	14050.92	3.8660	3.8660	-0.8757	25.62	0.02	-0.750			
0.2221	14217.51	3.8630	3.8628	-0.8704	25.62	0.02	-0.750			
0.2248	14387.84	3.8600	3.8599	-0.8755	25.62	0.02	-0.750			
0.2275	14556.86	3.8570	3.8570	-0.8700	25.62	0.02	-0.750			
0.2300	14722.63	3.8540	3.8540	-0.8711	25.63	0.03	-0.750			
0.2327	14890.01	3.8510	3.8510	-0.8708	25.63	0.03	-0.750			
0.2352	15053.85	3.8480	3.8479	-0.8624	25.63	0.03	-0.750			
0.2378	15221.47	3.8450	3.8449	-0.8727	25.64	0.04	-0.750			
0.2404	15388.62	3.8420	3.8420	-0.8774	25.64	0.04	-0.750			
0.2431	15557.84	3.8390	3.8390	-0.8795	25.64	0.04	-0.750			
0.2458	15728.45	3.8360	3.8359	-0.8820	25.65	0.05	-0.750			
0.2484	15896.94	3.8330	3.8330	-0.8766	25.65	0.05	-0.750			
0.2511	16067.25	3.8300	3.8300	-0.8798	25.65	0.05	-0.750			
0.2537	16233.72	3.8270	3.8270	-0.8874	25.65	0.05	-0.750			
0.2563	16404.12	3.8240	3.8240	-0.8754	25.66	0.06	-0.750			
0.2589	16571.98	3.8210	3.8209	-0.8759	25.66	0.06	-0.750			
0.2616	16741.22	3.8180	3.8179	-0.8764	25.67	0.07	-0.750			
0.2642	16909.34	3.8150	3.8152	-0.8724	25.67	0.07	-0.750			
0.2668	17077.07	3.8120	3.8120	-0.8745	25.67	0.07	-0.750			
0.2694	17244.64	3.8090	3.8090	-0.8769	25.67	0.07	-0.750			
0.2721	17413.49	3.8060	3.8059	-0.8717	25.68	0.08	-0.750			
0.2747	17582.08	3.8030	3.8029	-0.8766	25.68	0.08	-0.750			
0.2773	17748.97	3.8000	3.8001	-0.8759	25.68	0.08	-0.750			
0.2800	17917.37	3.7970	3.7969	-0.8806	25.69	0.09	-0.750			
0.2826	18086.77	3.7940	3.7939	-0.8835	25.69	0.09	-0.750			
0.2852	18254.77	3.7910	3.7910	-0.8776	25.69	0.09	-0.750			
0.2879	18426.82	3.7880	3.7880	-0.8827	25.70	0.10	-0.750			
0.2906	18597.61	3.7850	3.7850	-0.8832	25.70	0.10	-0.750			
0.2932	18764.92	3.7820	3.7820	-0.8762	25.71	0.11	-0.750			
0.2958	18930.73	3.7790	3.7790	-0.8711	25.71	0.11	-0.750			
0.2984	19098.36	3.7760	3.7759	-0.8670	25.72	0.12	-0.750			
0.3010	19265.43	3.7730	3.7731	-0.8666	25.72	0.12	-0.750			
0.3036	19431.76	3.7700	3.7700	-0.8678	25.72	0.12	-0.750			
0.3062	19599.35	3.7670	3.7671	-0.8646	25.72	0.12	-0.750			
0.3088	19764.15	3.7640	3.7639	-0.8646	25.73	0.13	-0.750			
0.3114	19927.96	3.7610	3.7610	-0.8631	25.73	0.13	-0.750			
0.3140	20093.79	3.7580	3.7581	-0.8676	25.73	0.13	-0.750			
0.3166	20261.03	3.7550	3.7550	-0.8748	25.73	0.13	-0.750			
0.3192	20429.90	3.7520	3.7520	-0.8717	25.74	0.14	-0.750			
0.3218	20598.24	3.7490	3.7490	-0.8705	25.74	0.14	-0.750			
0.3245	20766.50	3.7460	3.7460	-0.8746	25.75	0.15	-0.750			
0.3271	20933.89	3.7430	3.7431	-0.8681	25.75	0.15	-0.750			
0.3297	21098.62	3.7400	3.7399	-0.8738	25.75	0.15	-0.750			
0.3323	21266.01	3.7370	3.7370	-0.8777	25.75	0.15	-0.750			
0.3349	21433.50	3.7340	3.7340	-0.8838	25.76	0.16	-0.750			
0.3376	21605.23	3.7310	3.7310	-0.8949	25.76	0.16	-0.750			
0.3403	21777.50	3.7280	3.7279	-0.9037	25.76	0.16	-0.750			
0.3430	21950.65	3.7250	3.7250	-0.9138	25.76	0.16	-0.750			
0.3458	22128.19	3.7220	3.7221	-0.9242	25.76	0.16	-0.750			
0.3485	22304.38	3.7190	3.7189	-0.9322	25.76	0.16	-0.750			
0.3513	22486.33	3.7160	3.7161	-0.9509	25.76	0.16	-0.750			
0.3542	22670.52	3.7130	3.7131	-0.9649	25.76	0.16	-0.750			
0.3571	22857.32	3.7100	3.7099	-0.9806	25.76	0.16	-0.750			
0.3601	23047.14	3.7070	3.7070	-0.9908	25.76	0.16	-0.750			
0.3631	23236.09	3.7040	3.7041	-1.0068	25.76	0.16	-0.750			
0.3661	23431.49	3.7010	3.7010	-1.0278	25.76	0.16	-0.750			
0.3692	23630.00	3.6980	3.6978	-1.0449	25.76	0.16	-0.750			
0.3724	23832.94	3.6950	3.6950	-1.0626	25.75	0.15	-0.750			
0.3756	24038.60	3.6920	3.6920	-1.0840	25.75	0.15	-0.750			
0.3789	24250.65	3.6890	3.6890	-1.1083	25.75	0.15	-0.750			
0.3823	24466.00	3.6860	3.6860	-1.1290	25.75	0.15	-0.750			
0.3857	24681.68	3.6830	3.6829	-1.1437	25.75	0.15	-0.750			
0.3891	24903.18	3.6800	3.6801	-1.1680	25.75	0.15	-0.750			
0.3927	25129.71	3.6770	3.6770	-1.1933	25.74	0.14	-0.750			
0.3963	25360.38	3.6740	3.6740	-1.2195	25.73	0.13	-0.750			
0.3999	25593.83	3.6710	3.6709	-1.2541	25.72	0.12	-0.750			
0.4038	25840.20	3.6680	3.6680	-1.2850	25.72	0.12	-0.750			
0.4077	26090.34	3.6650	3.6649	-1.3091	25.71	0.11	-0.750			
0.4116	26343.07	3.6620	3.6620	-1.3589	25.71	0.11	-0.750			
0.4157	26605.94	3.6590	3.6589	-1.3871	25.71	0.11	-0.750			
0.4200	26878.07	3.6560	3.6559	-1.4207	25.70	0.10	-0.750			
0.4243	27156.93	3.6530	3.6532	-1.4498	25.70	0.10	-0.750			
0.4287	27436.70	3.6500	3.6497	-1.4813	25.69	0.09	-0.750			
0.4332	27727.66	3.6470	3.6468	-1.5177	25.68	0.08	-0.750			
0.4378	28022.40	3.6440	3.6442	-1.5490	25.67	0.07	-0.750			
0.4425	28320.87	3.6410	3.6409	-1.5766	25.66	0.06	-0.750			
0.4472	28622.27	3.6380	3.6379	-1.6054	25.65	0.05	-0.750			
0.4522	28939.00	3.6350	3.6351	-1.6428	25.64	0.04	-0.750			
0.4571	29251.85	3.6320	3.6318	-1.6837	25.64	0.04	-0.750			
0.4622	29578.26	3.6290	3.6287	-1.7106	25.63	0.03	-0.750			
0.4673	29910.34	3.6260	3.6260	-1.7496	25.63	0.03	-0.750	0.401	0.495	
0.4728	30260.70	3.6230	3.6230	-1.7909	25.62	0.02	-0.750			
0.4782	30604.61	3.6200	3.6198	-1.8071	25.62	0.02	-0.750			
0.4836	30950.01	3.6170	3.6171	-1.8453	25.61	0.01	-0.750			
0.4893	31313.59	3.6140	3.6141	-1.8819	25.60	-0.00	-0.750			
0.4949	31672.96	3.6110	3.6112	-1.9260	25.59	-0.01	-0.750			
0.5007	32047.62	3.6080	3.6080	-1.9654	25.58	-0.02	-0.750			
0.5067	32428.36	3.6050	3.6048	-1.9951	25.58	-0.02	-0.750			
0.5128	32818.02	3.6020	3.6021	-2.0419	25.57	-0.03	-0.750			
0.5190	33214.72	3.5990	3.5990	-2.0763	25.57	-0.03	-0.750			
0.5252	33611.83	3.5960	3.5960	-2.0987	25.56	-0.04	-0.750			
0.5315	34015.94	3.5930	3.5930	-2.1422	25.56	-0.04	-0.750			
0.5380	34432.59	3.5900	3.5901	-2.1771	25.55	-0.05	-0.750			
0.5447	34858.80	3.5870	3.5870	-2.2049	25.55	-0.05	-0.750			
0.5513	35285.23	3.5840	3.5840	-2.2311	25.54	-0.06	-0.750			
0.5581	35716.36	3.5810	3.5811	-2.2471	25.54	-0.06	-0.750			
0.5648	36148.05	3.5780	3.5779	-2.2857	25.54	-0.06	-0.750			
0.5717	36586.76	3.5750	3.5750	-2.3106	25.54	-0.06	-0.750			
0.5786	37031.85	3.5720	3.5719	-2.3326	25.54	-0.06	-0.750			
0.5858	37489.89	3.5690	3.5691	-2.3726	25.52	-0.08	-0.750			
0.5930	37949.92	3.5660	3.5660	-2.3858	25.52	-0.08	-0.750			
0.6002	38415.20	3.5630	3.5630	-2.3847	25.52	-0.08	-0.750			
0.6074	38870.47	3.5600	3.5599	-2.3843	25.52	-0.08	-0.750			
0.6144	39324.28	3.5570	3.5571	-2.3829	25.52	-0.08	-0.750			
0.6217	39787.57	3.5540	3.5539	-2.3632	25.53	-0.07	-0.750			
0.6287	40239.75	3.5510	3.5512	-2.3530	25.54	-0.06	-0.750			
0.6357	40687.83	3.5480	3.5479	-2.3356	25.54	-0.06	-0.750			
0.6428	41138.75	3.5450	3.5448	-2.3278	25.55	-0.05	-0.750			
0.6498	41587.17	3.5420	3.5420	-2.2921	25.56	-0.04	-0.750			
0.6566	42021.85	3.5390	3.5391	-2.2761	25.56	-0.04	-0.750			
0.6633	42454.34	3.5360	3.5361	-2.2397	25.56	-0.04	-0.750			
0.6702	42890.26	3.5330	3.5328	-2.1888	25.57	-0.03	-0.750			
0.6767	43307.79	3.5300	3.5302	-2.1357	25.58	-0.02	-0.750			
0.6830	43713.34	3.5270	3.5270	-2.0827	25.59	-0.01	-0.750			
0.6892	44110.99	3.5240	3.5239	-2.0148	25.60	0.00	-0.750			
0.6951	44485.00	3.5210	3.5213	-1.9580	25.61	0.01	-0.750			
0.7009	44854.59	3.5180	3.5181	-1.9006	25.62	0.02	-0.750			
0.7064	45211.97	3.5150	3.5152	-1.8576	25.64	0.04	-0.750			
0.7120	45565.38	3.5120	3.5119	-1.8060	25.65	0.05	-0.750			
0.7174	45915.03	3.5090	3.5090	-1.7581	25.67	0.07	-0.750			
0.7226	46244.51	3.5060	3.5062	-1.6835	25.69	0.09	-0.750			
0.7276	46564.31	3.5030	3.5030	-1.6145	25.71	0.11	-0.750			
0.7323	46865.70	3.5000	3.5002	-1.5403	25.72	0.12	-0.750			
0.7367	47151.97	3.4970	3.4969	-1.4898	25.74	0.14	-0.750			
0.7411	47429.90	3.4940	3.4940	-1.4282	25.76	0.16	-0.750			
0.7453	47699.43	3.4910	3.4909	-1.3831	25.77	0.17	-0.750			
0.7494	47960.46	3.4880	3.4879	-1.3474	25.78	0.18	-0.750			
0.7533	48213.54	3.4850	3.4849	-1.2973	25.80	0.20	-0.750			
0.7572	48460.55	3.4820	3.4819	-1.2557	25.81	0.21	-0.750			
0.7609	48696.22	3.4790	3.4790	-1.2086	25.82	0.22	-0.750			
0.7644	48920.68	3.4760	3.4763	-1.1729	25.83	0.23	-0.750			
0.7679	49147.13	3.4730	3.4730	-1.1375	25.85	0.25	-0.750			
0.7713	49360.47	3.4700	3.4699	-1.0905	25.86	0.26	-0.750			
0.7744	49564.69	3.4670	3.4670	-1.0549	25.87	0.27	-0.750			
0.7776	49763.52	3.4640	3.4640	-1.0244	25.89	0.29	-0.750			
0.7806	49956.80	3.4610	3.4609	-0.9984	25.90	0.30	-0.750			
0.7835	50143.34	3.4580	3.4579	-0.9709	25.91	0.31	-0.750			
0.7863	50324.64	3.4550	3.4550	-0.9510	25.92	0.32	-0.750			
0.7892	50506.09	3.4520	3.4522	-0.9510	25.93	0.33	-0.750			
0.7920	50685.50	3.4490	3.4489	-0.9523	25.94	0.34	-0.750			
0.7948	50865.39	3.4460	3.4459	-0.9594	25.95	0.35	-0.750			
0.7976	51046.20	3.4430	3.4428	-0.9815	25.96	0.36	-0.750			
0.8006	51237.14	3.4400	3.4402	-1.0195	25.97	0.37	-0.750			
0.8037	51434.96	3.4370	3.4369	-1.0725	25.98	0.38	-0.750			
0.8070	51645.73	3.4340	3.4339	-1.1132	25.99	0.39	-0.750			
0.8104	51865.35	3.4310	3.4309	-1.1542	26.00	0.40	-0.750			
0.8140	52094.36	3.4280	3.4283	-1.1756	26.01	0.41	-0.750			
0.8177	52332.00	3.4250	3.4250	-1.1959	26.02	0.42	-0.750			
0.8213	52566.01	3.4220	3.4219	-1.1796	26.03	0.43	-0.750			
0.8249	52792.90	3.4190	3.4190	-1.1548	26.05	0.45	-0.750			
0.8283	53013.61	3.4160	3.4160	-1.1315	26.05	0.45	-0.750			
0.8317	53229.07	3.4130	3.4129	-1.0873	26.06	0.46	-0.750			
0.8349	53432.28	3.4100	3.4100	-1.0470	26.06	0.46	-0.750			
0.8379	53628.09	3.4070	3.4072	-1.0111	26.07	0.47	-0.750			
0.8409	53819.47	3.4040	3.4039	-0.9794	26.08	0.48	-0.750			
0.8438	54003.79	3.4010	3.4008	-0.9457	26.09	0.49	-0.750			
0.8466	54181.12	3.3980	3.3981	-0.9050	26.10	0.50	-0.750			
0.8492	54351.24	3.3950	3.3950	-0.8710	26.10	0.50	-0.750			
0.8519	54520.38	3.3920	3.3920	-0.8423	26.11	0.51	-0.750			
0.8543	54675.97	3.3890	3.3889	-0.8031	26.12	0.52	-0.750			
0.8566	54823.93	3.3860	3.3860	-0.7720	26.12	0.52	-0.750			
0.8589	54970.00	3.3830	3.3829	-0.7425	26.12	0.52	-0.750			
0.8611	55109.61	3.3800	3.3800	-0.7127	26.13	0.53	-0.750			
0.8632	55244.32	3.3770	3.3770	-0.6860	26.13	0.53	-0.750			
0.8652	55373.03	3.3740	3.3740	-0.6594	26.14	0.54	-0.750			
0.8671	55497.02	3.3710	3.3709	-0.6325	26.14	0.54	-0.750			
0.8690	55614.63	3.3680	3.3680	-0.6013	26.15	0.55	-0.750			
0.8707	55726.81	3.3650	3.3651	-0.5789	26.15	0.55	-0.750			
0.8725	55837.47	3.3620	3.3620	-0.5576	26.16	0.56	-0.750			
0.8741	55941.66	3.3590	3.3589	-0.5330	26.16	0.56	-0.750			
0.8756	56041.21	3.3560	3.3560	-0.5075	26.17	0.57	-0.750			
0.8771	56135.94	3.3530	3.3531	-0.4872	26.17	0.57	-0.750			
0.8786	56227.44	3.3500	3.3500	-0.4672	26.18	0.58	-0.750			
0.8799	56314.96	3.3470	3.3470	-0.4490	26.19	0.59	-0.750			
0.8812	56398.02	3.3440	3.3440	-0.4285	26.19	0.59	-0.750			
0.8825	56479.92	3.3410	3.3410	-0.4120	26.20	0.60	-0.750			
0.8837	56557.16	3.3380	3.3380	-0.3944	26.21	0.61	-0.750			
0.8849	56631.06	3.3350	3.3351	-0.3784	26.21	0.61	-0.750			
0.8860	56701.21	3.3320	3.3320	-0.3618	26.22	0.62	-0.750			
0.8870	56769.26	3.3290	3.3290	-0.3471	26.22	0.62	-0.750			
0.8880	56834.28	3.3260	3.3259	-0.3332	26.23	0.63	-0.750			
0.8890	56896.94	3.3230	3.3231	-0.3196	26.23	0.63	-0.750			
0.8900	56957.38	3.3200	3.3200	-0.3083	26.24	0.64	-0.750			
0.8909	57014.82	3.3170	3.3170	-0.2956	26.24	0.64	-0.750			
0.8917	57069.76	3.3140	3.3140	-0.2840	26.25	0.65	-0.750			
0.8926	57123.46	3.3110	3.3110	-0.2738	26.26	0.66	-0.750			
0.8934	57174.75	3.3080	3.3080	-0.2647	26.26	0.66	-0.750			
0.8941	57224.57	3.3050	3.3050	-0.2557	26.27	0.67	-0.750			
0.8949	57272.99	3.3020	3.3021	-0.2475	26.27	0.67	-0.750			
0.8956	57319.29	3.2990	3.2989	-0.2393	26.27	0.67	-0.750			
0.8963	57364.34	3.2960	3.2961	-0.2315	26.28	0.68	-0.750			
0.8970	57408.15	3.2930	3.2930	-0.2244	26.28	0.68	-0.750			
0.8977	57450.56	3.2900	3.2900	-0.2174	26.29	0.69	-0.750			
0.8983	57491.85	3.2870	3.2870	-0.2109	26.29	0.69	-0.750			
0.8989	57530.68	3.2840	3.2841	-0.2046	26.30	0.70	-0.750			
0.8995	57569.42	3.2810	3.2810	-0.1999	26.30	0.70	-0.750			
0.9001	57607.37	3.2780	3.2781	-0.1954	26.30	0.70	-0.750			
0.9007	57644.47	3.2750	3.2749	-0.1886	26.31	0.71	-0.750			
0.9012	57679.89	3.2720	3.2722	-0.1855	26.31	0.71	-0.750			
0.9018	57715.08	3.2690	3.2690	-0.1819	26.32	0.72	-0.750			
0.9023	57749.64	3.2660	3.2658	-0.1781	26.32	0.72	-0.750			
0.9029	57783.33	3.2630	3.2629	-0.1743	26.33	0.73	-0.750			
0.9034	57816.10	3.2600	3.2601	-0.1697	26.33	0.73	-0.750			
0.9039	57848.68	3.2570	3.2571	-0.1671	26.33	0.73	-0.750			
0.9044	57880.43	3.2540	3.2540	-0.1637	26.34	0.74	-0.750			
0.9049	57912.06	3.2510	3.2509	-0.1606	26.34	0.74	-0.750			
0.9053	57941.77	3.2480	3.2480	-0.1562	26.35	0.75	-0.750			
0.9058	57971.14	3.2450	3.2451	-0.1543	26.35	0.75	-0.750			
0.9063	58000.59	3.2420	3.2419	-0.1524	26.35	0.75	-0.750			
0.9067	58029.52	3.2390	3.2391	-0.1505	26.36	0.76	-0.750			
0.9072	58058.34	3.2360	3.2359	-0.1484	26.36	0.76	-0.750			
0.9076	58086.80	3.2330	3.2331	-0.1461	26.37	0.77	-0.750			
0.9080	58114.62	3.2300	3.2300	-0.1438	26.37	0.77	-0.750			
0.9085	58142.28	3.2270	3.2270	-0.1414	26.37	0.77	-0.750			
0.9089	58169.18	3.2240	3.2240	-0.1394	26.38	0.78	-0.750			
0.9093	58195.24	3.2210	3.2210	-0.1364	26.38	0.78	-0.750			
0.9097	58221.26	3.2180	3.2180	-0.1347	26.38	0.78	-0.750			
0.9101	58246.96	3.2150	3.2150	-0.1328	26.39	0.79	-0.750			
0.9105	58272.23	3.2120	3.2120	-0.1313	26.39	0.79	-0.750			
0.9109	58297.23	3.2090	3.2091	-0.1300	26.40	0.80	-0.750			
0.9113	58322.07	3.2060	3.2060	-0.1287	26.40	0.80	-0.750			
0.9117	58346.68	3.2030	3.2029	-0.1270	26.40	0.80	-0.750			
0.9120	58370.85	3.2000	3.2000	-0.1254	26.41	0.81	-0.750			
0.9124	58394.79	3.1970	3.1970	-0.1242	26.41	0.81	-0.750			
0.9128	58418.53	3.1940	3.1939	-0.1228	26.41	0.81	-0.750			
0.9132	58442.07	3.1910	3.1910	-0.1215	26.42	0.82	-0.750			
0.9135	58465.06	3.1880	3.1879	-0.1201	26.42	0.82	-0.750			
0.9139	58487.88	3.1850	3.1850	-0.1187	26.42	0.82	-0.750			
0.9142	58510.65	3.1820	3.1820	-0.1176	26.43	0.83	-0.750			
0.9146	58533.25	3.1790	3.1791	-0.1167	26.43	0.83	-0.750			
0.9149	58555.52	3.1760	3.1759	-0.1155	26.44	0.84	-0.750			
0.9153	58577.50	3.1730	3.1731	-0.1141	26.44	0.84	-0.750			
0.9156	58599.24	3.1700	3.1700	-0.1133	26.44	0.84	-0.750			
0.9160	58620.91	3.1670	3.1671	-0.1124	26.45	0.85	-0.750			
0.9163	58642.48	3.1640	3.1640	-0.1110	26.45	0.85	-0.750			
0.9166	58663.65	3.1610	3.1609	-0.1098	26.46	0.86	-0.750			
0.9169	58684.56	3.1580	3.1580	-0.1089	26.46	0.86	-0.750			
0.9173	58705.42	3.1550	3.1550	-0.1080	26.46	0.86	-0.750			
0.9176	58726.01	3.1520	3.1520	-0.1071	26.47	0.87	-0.750			
0.9179	58746.44	3.1490	3.1490	-0.1062	26.47	0.87	-0.750			
0.9182	58766.63	3.1460	3.1459	-0.1057	26.48	0.88	-0.750			
0.9185	58786.63	3.1430	3.1431	-0.1049	26.48	0.88	-0.750			
0.9189	58806.93	3.1400	3.1401	-0.1040	26.48	0.88	-0.750			
0.9192	58827.06	3.1370	3.1370	-0.1036	26.49	0.89	-0.750			
0.9195	58846.84	3.1340	3.1340	-0.1028	26.49	0.89	-0.750			
0.9198	58866.50	3.1310	3.1310	-0.1019	26.49	0.89	-0.750			
0.9201	58885.90	3.1280	3.1281	-0.1012	26.50	0.90	-0.750			
0.9204	58905.26	3.1250	3.1250	-0.1004	26.50	0.90	-0.750			
0.9207	58924.40	3.1220	3.1219	-0.0998	26.50	0.90	-0.750			
0.9210	58943.26	3.1190	3.1189	-0.0989	26.51	0.91	-0.750			
0.9213	58962.38	3.1160	3.1161	-0.0981	26.51	0.91	-0.750			
0.9216	58981.34	3.1130	3.1130	-0.0977	26.52	0.92	-0.750			
0.9219	58999.96	3.1100	3.1100	-0.0970	26.52	0.92	-0.750			
0.9222	59018.53	3.1070	3.1071	-0.0962	26.52	0.92	-0.750			
0.9225	59036.91	3.1040	3.1039	-0.0955	26.52	0.92	-0.750			
0.9227	59055.11	3.1010	3.1010	-0.0946	26.53	0.93	-0.750			
0.9230	59073.12	3.0980	3.0980	-0.0942	26.53	0.93	-0.750			
0.9233	59091.04	3.0950	3.0951	-0.0936	26.53	0.93	-0.750			
0.9236	59108.96	3.0920	3.0919	-0.0933	26.54	0.94	-0.750			
0.9239	59126.86	3.0890	3.0890	-0.0930	26.54	0.94	-0.750			
0.9241	59144.79	3.0860	3.0860	-0.0923	26.54	0.94	-0.750			
0.9244	59162.49	3.0830	3.0830	-0.0918	26.54	0.94	-0.750			
0.9247	59180.05	3.0800	3.0800	-0.0912	26.55	0.95	-0.750			
0.9250	59197.63	3.0770	3.0770	-0.0908	26.55	0.95	-0.750			
0.9252	59214.87	3.0740	3.0740	-0.0903	26.55	0.95	-0.750			
0.9255	59232.05	3.0710	3.0712	-0.0896	26.55	0.95	-0.750			
0.9258	59249.22	3.0680	3.0679	-0.0893	26.56	0.96	-0.750			
0.9260	59266.30	3.0650	3.0649	-0.0884	26.56	0.96	-0.750			
0.9263	59283.22	3.0620	3.0621	-0.0879	26.56	0.96	-0.750			
0.9266	59300.13	3.0590	3.0591	-0.0877	26.56	0.96	-0.750			
0.9268	59316.92	3.0560	3.0559	-0.0871	26.57	0.97	-0.750			
0.9271	59333.43	3.0530	3.0529	-0.0870	26.57	0.97	-0.750			
0.9273	59350.14	3.0500	3.0500	-0.0870	26.57	0.97	-0.750			
0.9276	59366.77	3.0470	3.0470	-0.0862	26.57	0.97	-0.750			
0.9279	59383.31	3.0440	3.0440	-0.0861	26.58	0.98	-0.750			
0.9281	59400.16	3.0410	3.0410	-0.0857	26.58	0.98	-0.750			
0.9284	59416.52	3.0380	3.0381	-0.0848	26.58	0.98	-0.750			
0.9286	59432.62	3.0350	3.0350	-0.0844	26.58	0.98	-0.750			
0.9289	59448.77	3.0320	3.0319	-0.0838	26.59	0.99	-0.750			
0.9291	59464.65	3.0290	3.0290	-0.0830	26.59	0.99	-0.750			
0.9294	59480.56	3.0260	3.0260	-0.0827	26.59	0.99	-0.750			
0.9296	59496.44	3.0230	3.0231	-0.0825	26.59	0.99	-0.750			
0.9299	59512.25	3.0200	3.0201	-0.0822	26.60	1.00	-0.750			
0.9301	59528.09	3.0170	3.0170	-0.0820	26.60	1.00	-0.750			
0.9304	59543.79	3.0140	3.0140	-0.0816	26.60	1.00	-0.750			
0.9306	59559.40	3.0110	3.0109	-0.0811	26.60	1.00	-0.750			
0.9309	59574.82	3.0080	3.0081	-0.0811	26.61	1.01	-0.751			
0.9311	59590.39	3.0050	3.0049	-0.0811	26.61	1.01	-0.751			
