Ah_balance (normalized)	Ah_balance (mAh)	Voltage - fit (V)	Voltage -  interpolate (V)	dQ/dV (1/V)	Temperature (°C)	Temperature - diff (°C)	Current (C)	R_DC 0ms (mOhm)	R_DC 50ms (mOhm)	R_DC 50 ms PEC (mOhm)
0.0513	3285.32	4.1990	4.1990	0.7680	26.70	0.71	0.750			
0.0537	3435.41	4.1960	4.1960	0.7859	26.70	0.71	0.750			
0.0560	3587.01	4.1930	4.1930	0.7871	26.70	0.71	0.750			
0.0584	3737.08	4.1900	4.1900	0.7886	26.70	0.71	0.750			
0.0608	3889.29	4.1870	4.1870	0.7940	26.70	0.71	0.750			
0.0631	4040.29	4.1840	4.1839	0.7955	26.70	0.71	0.750			
0.0655	4194.41	4.1810	4.1810	0.7988	26.70	0.71	0.750			
0.0680	4350.53	4.1780	4.1780	0.7928	26.70	0.71	0.750			
0.0704	4504.01	4.1750	4.1750	0.7959	26.70	0.71	0.750			
0.0727	4655.35	4.1720	4.1721	0.7972	26.71	0.72	0.750			
0.0751	4806.99	4.1690	4.1690	0.7989	26.71	0.72	0.750			
0.0775	4959.19	4.1660	4.1657	0.7979	26.71	0.72	0.750			
0.0799	5112.86	4.1630	4.1631	0.8016	26.71	0.72	0.750			
0.0823	5269.02	4.1600	4.1600	0.8063	26.71	0.72	0.750			
0.0847	5423.71	4.1570	4.1570	0.8089	26.71	0.72	0.750			
0.0872	5578.12	4.1540	4.1540	0.8040	26.71	0.72	0.750			
0.0896	5732.88	4.1510	4.1509	0.8068	26.71	0.72	0.750			
0.0920	5887.73	4.1480	4.1480	0.8084	26.71	0.72	0.750			
0.0944	6044.25	4.1450	4.1451	0.8084	26.71	0.72	0.750			
0.0969	6199.84	4.1420	4.1420	0.8118	26.72	0.73	0.750			
0.0993	6355.51	4.1390	4.1390	0.8098	26.72	0.73	0.750			
0.1017	6510.37	4.1360	4.1359	0.8160	26.72	0.73	0.750			
0.1042	6667.27	4.1330	4.1331	0.8190	26.72	0.73	0.750			
0.1066	6824.71	4.1300	4.1299	0.8203	26.72	0.73	0.750			
0.1091	6984.42	4.1270	4.1270	0.8215	26.72	0.73	0.750			
0.1116	7141.72	4.1240	4.1241	0.8190	26.72	0.73	0.750			
0.1140	7298.11	4.1210	4.1210	0.8199	26.72	0.73	0.750			
0.1165	7456.00	4.1180	4.1181	0.8217	26.72	0.73	0.750			
0.1190	7612.95	4.1150	4.1149	0.8186	26.72	0.73	0.750			
0.1214	7770.19	4.1120	4.1120	0.8257	26.72	0.73	0.750			
0.1239	7927.84	4.1090	4.1091	0.8298	26.72	0.73	0.750			
0.1264	8089.51	4.1060	4.1059	0.8368	26.72	0.73	0.750			
0.1289	8250.57	4.1030	4.1030	0.8406	26.72	0.73	0.750			
0.1315	8413.35	4.1000	4.1000	0.8404	26.72	0.73	0.750			
0.1340	8573.73	4.0970	4.0971	0.8473	26.73	0.74	0.750			
0.1365	8737.64	4.0940	4.0940	0.8484	26.73	0.74	0.750			
0.1391	8900.83	4.0910	4.0908	0.8488	26.73	0.74	0.750			
0.1416	9063.91	4.0880	4.0881	0.8524	26.73	0.74	0.750			
0.1442	9229.37	4.0850	4.0851	0.8516	26.73	0.74	0.750			
0.1468	9393.38	4.0820	4.0821	0.8521	26.74	0.75	0.750			
0.1493	9554.58	4.0790	4.0790	0.8499	26.74	0.75	0.750			
0.1518	9717.56	4.0760	4.0758	0.8522	26.74	0.75	0.750			
0.1544	9881.21	4.0730	4.0730	0.8608	26.74	0.75	0.750			
0.1570	10046.94	4.0700	4.0700	0.8592	26.74	0.75	0.750			
0.1596	10213.30	4.0670	4.0671	0.8644	26.74	0.75	0.750			
0.1622	10379.84	4.0640	4.0641	0.8656	26.74	0.75	0.750			
0.1648	10546.39	4.0610	4.0608	0.8689	26.74	0.75	0.750			
0.1674	10713.85	4.0580	4.0580	0.8700	26.74	0.75	0.750			
0.1700	10879.79	4.0550	4.0550	0.8784	26.74	0.75	0.750			
0.1726	11048.96	4.0520	4.0520	0.8853	26.75	0.76	0.750			
0.1753	11220.17	4.0490	4.0490	0.8903	26.75	0.76	0.750			
0.1780	11393.31	4.0460	4.0461	0.8927	26.75	0.76	0.750			
0.1807	11567.03	4.0430	4.0430	0.8869	26.75	0.76	0.750			
0.1834	11737.40	4.0400	4.0401	0.8913	26.76	0.77	0.750			
0.1861	11908.23	4.0370	4.0371	0.8889	26.76	0.77	0.750			
0.1887	12076.44	4.0340	4.0339	0.8853	26.76	0.77	0.750			
0.1914	12246.90	4.0310	4.0311	0.8908	26.76	0.77	0.750			
0.1940	12417.31	4.0280	4.0280	0.8935	26.76	0.77	0.750			
0.1967	12590.38	4.0250	4.0250	0.8967	26.76	0.77	0.750			
0.1994	12764.37	4.0220	4.0220	0.9032	26.76	0.77	0.750			
0.2021	12935.45	4.0190	4.0189	0.9048	26.76	0.77	0.750			
0.2049	13112.44	4.0160	4.0160	0.9058	26.76	0.77	0.750			
0.2076	13285.43	4.0130	4.0129	0.9118	26.76	0.77	0.750			
0.2103	13460.45	4.0100	4.0101	0.9179	26.76	0.77	0.750			
0.2131	13637.72	4.0070	4.0070	0.9176	26.76	0.77	0.750			
0.2159	13814.85	4.0040	4.0039	0.9224	26.76	0.77	0.750			
0.2186	13990.76	4.0010	4.0011	0.9205	26.76	0.77	0.750			
0.2214	14167.47	3.9980	3.9981	0.9241	26.77	0.78	0.750			
0.2242	14347.82	3.9950	3.9950	0.9312	26.77	0.78	0.750			
0.2269	14524.39	3.9920	3.9917	0.9279	26.77	0.78	0.750			
0.2298	14704.22	3.9890	3.9891	0.9263	26.77	0.78	0.750			
0.2325	14882.31	3.9860	3.9860	0.9346	26.77	0.78	0.750			
0.2353	15061.82	3.9830	3.9830	0.9379	26.78	0.79	0.750			
0.2381	15240.36	3.9800	3.9801	0.9343	26.78	0.79	0.750			
0.2410	15421.99	3.9770	3.9771	0.9463	26.78	0.79	0.750			
0.2438	15604.66	3.9740	3.9740	0.9444	26.78	0.79	0.750			
0.2466	15785.48	3.9710	3.9711	0.9482	26.78	0.79	0.750			
0.2495	15968.51	3.9680	3.9680	0.9533	26.78	0.79	0.750			
0.2523	16149.99	3.9650	3.9647	0.9518	26.78	0.79	0.750			
0.2552	16334.22	3.9620	3.9620	0.9497	26.78	0.79	0.750			
0.2581	16515.22	3.9590	3.9591	0.9645	26.78	0.79	0.750			
0.2610	16703.37	3.9560	3.9561	0.9684	26.78	0.79	0.750			
0.2639	16890.25	3.9530	3.9528	0.9681	26.78	0.79	0.750			
0.2668	17077.46	3.9500	3.9501	0.9618	26.78	0.79	0.750			
0.2697	17262.47	3.9470	3.9472	0.9671	26.78	0.79	0.750			
0.2726	17447.52	3.9440	3.9440	0.9711	26.78	0.79	0.750			
0.2755	17632.62	3.9410	3.9411	0.9651	26.78	0.79	0.750			
0.2784	17819.89	3.9380	3.9380	0.9624	26.78	0.79	0.750			
0.2814	18007.47	3.9350	3.9351	0.9746	26.78	0.79	0.750			
0.2843	18193.24	3.9320	3.9321	0.9747	26.78	0.79	0.750			
0.2872	18380.58	3.9290	3.9291	0.9862	26.78	0.79	0.750			
0.2901	18568.37	3.9260	3.9259	0.9840	26.78	0.79	0.750			
0.2931	18758.29	3.9230	3.9230	0.9855	26.79	0.80	0.750			
0.2961	18949.27	3.9200	3.9201	0.9930	26.79	0.80	0.750			
0.2991	19140.80	3.9170	3.9171	0.9976	26.80	0.81	0.750			
0.3021	19331.87	3.9140	3.9136	0.9986	26.80	0.81	0.750			
0.3050	19522.66	3.9110	3.9110	1.0012	26.80	0.81	0.750			
0.3080	19714.69	3.9080	3.9080	1.0078	26.80	0.81	0.750			
0.3111	19912.30	3.9050	3.9050	1.0179	26.80	0.81	0.750			
0.3142	20109.12	3.9020	3.9019	1.0199	26.80	0.81	0.750			
0.3173	20304.67	3.8990	3.8990	1.0177	26.80	0.81	0.750			
0.3203	20499.92	3.8960	3.8961	1.0175	26.80	0.81	0.750			
0.3233	20693.96	3.8930	3.8930	1.0209	26.80	0.81	0.750			
0.3264	20889.64	3.8900	3.8899	1.0271	26.80	0.81	0.750			
0.3295	21087.69	3.8870	3.8869	1.0221	26.80	0.81	0.750			
0.3325	21283.13	3.8840	3.8840	1.0349	26.80	0.81	0.750			
0.3357	21482.03	3.8810	3.8811	1.0525	26.79	0.80	0.750			
0.3389	21686.90	3.8780	3.8778	1.0614	26.79	0.80	0.750			
0.3421	21892.22	3.8750	3.8750	1.0612	26.79	0.80	0.750			
0.3453	22096.24	3.8720	3.8721	1.0661	26.79	0.80	0.750			
0.3485	22302.44	3.8690	3.8691	1.0769	26.78	0.79	0.750			
0.3517	22512.00	3.8660	3.8658	1.0839	26.78	0.79	0.750			
0.3550	22716.94	3.8630	3.8630	1.0752	26.78	0.79	0.750			
0.3581	22920.74	3.8600	3.8602	1.0870	26.78	0.79	0.750			
0.3614	23132.52	3.8570	3.8570	1.1059	26.78	0.79	0.750			
0.3648	23348.32	3.8540	3.8537	1.1062	26.78	0.79	0.750			
0.3681	23557.51	3.8510	3.8511	1.1175	26.77	0.78	0.750			
0.3714	23772.63	3.8480	3.8481	1.1318	26.77	0.78	0.750			
0.3749	23992.85	3.8450	3.8450	1.1525	26.76	0.77	0.750			
0.3784	24215.89	3.8420	3.8420	1.1529	26.76	0.77	0.750			
0.3818	24437.21	3.8390	3.8391	1.1649	26.75	0.76	0.750			
0.3854	24662.40	3.8360	3.8361	1.1834	26.75	0.76	0.750			
0.3890	24894.02	3.8330	3.8328	1.1919	26.74	0.75	0.750			
0.3925	25119.75	3.8300	3.8300	1.2052	26.74	0.75	0.750			
0.3961	25353.09	3.8270	3.8271	1.2302	26.73	0.74	0.750			
0.3999	25592.95	3.8240	3.8240	1.2492	26.72	0.73	0.750			
0.4037	25833.85	3.8210	3.8210	1.2731	26.72	0.73	0.750			
0.4075	26081.32	3.8180	3.8180	1.3018	26.70	0.71	0.750			
0.4115	26335.65	3.8150	3.8150	1.3176	26.69	0.70	0.750			
0.4155	26591.42	3.8120	3.8119	1.3407	26.68	0.69	0.750			
0.4195	26847.70	3.8090	3.8091	1.3605	26.67	0.68	0.750			
0.4236	27113.54	3.8060	3.8061	1.3860	26.67	0.68	0.750			
0.4279	27383.34	3.8030	3.8029	1.4065	26.66	0.67	0.750			
0.4320	27650.84	3.8000	3.8001	1.4403	26.65	0.66	0.750			
0.4365	27932.96	3.7970	3.7972	1.4674	26.64	0.65	0.750			
0.4409	28218.56	3.7940	3.7940	1.4973	26.62	0.63	0.750			
0.4454	28508.10	3.7910	3.7911	1.5227	26.61	0.62	0.750			
0.4500	28800.53	3.7880	3.7881	1.5462	26.59	0.60	0.750			
0.4547	29102.52	3.7850	3.7849	1.5713	26.57	0.58	0.750			
0.4595	29408.62	3.7820	3.7821	1.5980	26.56	0.57	0.750			
0.4643	29715.41	3.7790	3.7789	1.6173	26.55	0.56	0.750			
0.4693	30033.07	3.7760	3.7761	1.6527	26.54	0.55	0.750			
0.4743	30352.27	3.7730	3.7731	1.6868	26.53	0.54	0.750			
0.4794	30678.66	3.7700	3.7701	1.7046	26.51	0.52	0.750			
0.4845	31005.62	3.7670	3.7669	1.7412	26.48	0.49	0.750			
0.4898	31346.71	3.7640	3.7638	1.7553	26.46	0.47	0.750			
0.4951	31684.09	3.7610	3.7609	1.7760	26.44	0.45	0.750			
0.5004	32026.61	3.7580	3.7581	1.7925	26.43	0.44	0.750			
0.5058	32372.92	3.7550	3.7545	1.8168	26.41	0.42	0.750			
0.5113	32722.19	3.7520	3.7519	1.8458	26.38	0.39	0.750			
0.5170	33084.80	3.7490	3.7491	1.8585	26.36	0.37	0.750			
0.5225	33441.32	3.7460	3.7460	1.8892	26.34	0.35	0.750			
0.5282	33805.75	3.7430	3.7430	1.9188	26.33	0.34	0.750			
0.5339	34171.78	3.7400	3.7397	1.9713	26.31	0.32	0.750			
0.5400	34557.62	3.7370	3.7371	2.0121	26.29	0.30	0.750			
0.5461	34948.49	3.7340	3.7344	2.0563	26.26	0.27	0.750			
0.5524	35356.06	3.7310	3.7311	2.1043	26.23	0.24	0.750			
0.5589	35771.95	3.7280	3.7278	2.0978	26.20	0.21	0.750			
0.5652	36171.16	3.7250	3.7249	2.1194	26.18	0.19	0.750			
0.5715	36575.94	3.7220	3.7225	2.1619	26.15	0.16	0.750			
0.5778	36978.66	3.7190	3.7188	2.2004	26.13	0.14	0.750			
0.5844	37403.59	3.7160	3.7158	2.2730	26.11	0.12	0.750			
0.5913	37841.05	3.7130	3.7132	2.3668	26.08	0.09	0.750			
0.5987	38318.18	3.7100	3.7098	2.4864	26.06	0.07	0.750			
0.6064	38808.72	3.7070	3.7069	2.5491	26.04	0.05	0.750			
0.6141	39304.13	3.7040	3.7040	2.6169	26.01	0.02	0.750			
0.6222	39818.46	3.7010	3.7010	2.7140	25.99	-0.00	0.750			
0.6304	40342.76	3.6980	3.6979	2.7733	25.96	-0.03	0.750			
0.6388	40881.97	3.6950	3.6948	2.8044	25.95	-0.04	0.750			
0.6473	41426.61	3.6920	3.6919	2.8623	25.93	-0.06	0.750			
0.6558	41972.04	3.6890	3.6892	2.9537	25.90	-0.09	0.750			
0.6647	42541.82	3.6860	3.6859	3.0809	25.89	-0.10	0.750			
0.6741	43141.80	3.6830	3.6829	3.2266	25.87	-0.12	0.750			
0.6841	43784.33	3.6800	3.6799	3.3051	25.85	-0.14	0.750			
0.6942	44426.26	3.6770	3.6770	3.4182	25.84	-0.15	0.750			
0.7045	45085.48	3.6740	3.6738	3.4282	25.82	-0.17	0.750			
0.7148	45748.69	3.6710	3.6710	3.4348	25.82	-0.17	0.750			
0.7254	46422.62	3.6680	3.6679	3.3398	25.80	-0.19	0.750			
0.7354	47068.39	3.6650	3.6650	3.1004	25.81	-0.18	0.750			
0.7444	47643.92	3.6620	3.6619	2.7915	25.81	-0.18	0.750			
0.7524	48156.27	3.6590	3.6585	2.4874	25.81	-0.18	0.750			
0.7592	48586.96	3.6560	3.6563	2.2030	25.81	-0.18	0.750			
0.7650	48962.08	3.6530	3.6530	1.9971	25.81	-0.18	0.750			
0.7705	49310.53	3.6500	3.6500	1.8087	25.81	-0.18	0.750			
0.7756	49640.04	3.6470	3.6472	1.6625	25.81	-0.18	0.750			
0.7805	49952.15	3.6440	3.6441	1.5648	25.81	-0.18	0.750			
0.7850	50239.80	3.6410	3.6412	1.4675	25.81	-0.18	0.750			
0.7892	50509.17	3.6380	3.6378	1.3668	25.81	-0.18	0.750			
0.7931	50756.66	3.6350	3.6349	1.2957	25.81	-0.18	0.750			
0.7966	50982.64	3.6320	3.6321	1.2409	25.81	-0.18	0.750			
0.8002	51215.72	3.6290	3.6290	1.2304	25.81	-0.18	0.750			
0.8039	51449.66	3.6260	3.6261	1.2236	25.81	-0.18	0.750			
0.8075	51680.33	3.6230	3.6231	1.2366	25.81	-0.18	0.750			
0.8113	51920.83	3.6200	3.6201	1.2556	25.82	-0.17	0.750			
0.8151	52166.13	3.6170	3.6170	1.2653	25.82	-0.17	0.750			
0.8189	52410.73	3.6140	3.6141	1.2685	25.82	-0.17	0.750			
0.8228	52657.69	3.6110	3.6111	1.2619	25.82	-0.17	0.750			
0.8266	52902.75	3.6080	3.6077	1.2566	25.82	-0.17	0.750			
0.8303	53140.13	3.6050	3.6051	1.2442	25.82	-0.17	0.750			
0.8340	53375.57	3.6020	3.6020	1.2388	25.82	-0.17	0.750			
0.8377	53613.62	3.5990	3.5989	1.2444	25.82	-0.17	0.750			
0.8414	53849.20	3.5960	3.5960	1.2675	25.82	-0.17	0.750			
0.8451	54088.76	3.5930	3.5930	1.2959	25.82	-0.17	0.750			
0.8491	54344.69	3.5900	3.5900	1.3204	25.82	-0.17	0.750			
0.8531	54598.61	3.5870	3.5869	1.3531	25.82	-0.17	0.750			
0.8572	54858.85	3.5840	3.5842	1.4010	25.82	-0.17	0.750			
0.8614	55131.93	3.5810	3.5812	1.4426	25.81	-0.18	0.750			
0.8658	55413.86	3.5780	3.5776	1.4683	25.81	-0.18	0.750			
0.8703	55696.73	3.5750	3.5753	1.4964	25.81	-0.18	0.750			
0.8749	55994.65	3.5720	3.5721	1.5092	25.81	-0.18	0.750			
0.8795	56290.06	3.5690	3.5687	1.5407	25.81	-0.18	0.750			
0.8841	56584.51	3.5660	3.5659	1.5300	25.81	-0.18	0.750			
0.8888	56881.28	3.5630	3.5630	1.5647	25.81	-0.18	0.750			
0.8936	57190.21	3.5600	3.5597	1.5692	25.81	-0.18	0.750			
0.8983	57490.12	3.5570	3.5571	1.5765	25.81	-0.18	0.750			
0.9031	57796.24	3.5540	3.5541	1.5896	25.81	-0.18	0.750			
0.9078	58097.00	3.5510	3.5509	1.5963	25.81	-0.18	0.750			
0.9125	58401.74	3.5480	3.5483	1.6206	25.81	-0.18	0.750			
0.9175	58718.95	3.5450	3.5447	1.6478	25.81	-0.18	0.750			
0.9225	59038.93	3.5420	3.5420	1.6719	25.82	-0.17	0.750			
0.9278	59380.75	3.5390	3.5389	1.6436	25.82	-0.17	0.750			
0.9331	59719.07	3.5360	3.5359	1.5134	25.84	-0.15	0.750			
0.9377	60014.85	3.5330	3.5336	1.3296	25.86	-0.13	0.750			
0.9415	60254.41	3.5300	3.5303	1.0920	25.88	-0.11	0.750			
0.9443	60435.75	3.5270	3.5269	0.8467	25.89	-0.10	0.750			
0.9461	60551.38	3.5240	3.5237	0.6507	25.90	-0.09	0.750			
0.9475	60638.71	3.5210	3.5207	0.4947	25.91	-0.08	0.750			
0.9486	60709.02	3.5180	3.5179	0.4052	25.91	-0.08	0.750			
0.9496	60775.95	3.5150	3.5149	0.3582	25.92	-0.07	0.750			
0.9506	60837.10	3.5120	3.5120	0.3223	25.92	-0.07	0.750			
0.9515	60895.10	3.5090	3.5088	0.3014	25.93	-0.06	0.750			
0.9523	60948.90	3.5060	3.5059	0.2815	25.93	-0.06	0.750			
0.9532	61002.08	3.5030	3.5033	0.2692	25.94	-0.05	0.750			
0.9539	61052.04	3.5000	3.4997	0.2600	25.94	-0.05	0.750			
0.9547	61101.00	3.4970	3.4970	0.2498	25.94	-0.05	0.750			
0.9554	61147.35	3.4940	3.4939	0.2397	25.95	-0.04	0.750			
0.9561	61191.74	3.4910	3.4910	0.2293	25.95	-0.04	0.750			
0.9568	61236.25	3.4880	3.4880	0.2231	25.95	-0.04	0.750			
0.9575	61278.00	3.4850	3.4849	0.2131	25.96	-0.03	0.750			
0.9581	61317.78	3.4820	3.4821	0.2055	25.96	-0.03	0.750			
0.9587	61355.74	3.4790	3.4790	0.1959	25.96	-0.03	0.750			
0.9593	61393.21	3.4760	3.4758	0.1892	25.96	-0.03	0.750			
0.9598	61428.77	3.4730	3.4731	0.1813	25.97	-0.02	0.750			
0.9604	61462.83	3.4700	3.4702	0.1734	25.97	-0.02	0.750			
0.9609	61495.41	3.4670	3.4670	0.1662	25.97	-0.02	0.750			
0.9614	61526.64	3.4640	3.4639	0.1582	25.97	-0.02	0.750			
0.9618	61556.24	3.4610	3.4610	0.1501	25.98	-0.01	0.750			
0.9622	61583.96	3.4580	3.4580	0.1420	25.98	-0.01	0.750			
0.9627	61610.70	3.4550	3.4551	0.1349	25.98	-0.01	0.750			
0.9631	61638.50	3.4520	3.4518	0.1241	25.98	-0.01	0.750			
0.9635	61660.99	3.4490	3.4487	0.1101	25.98	-0.01	0.750			
0.9638	61681.93	3.4460	3.4457	0.0981	25.99	-0.00	0.750			
0.9641	61700.49	3.4430	3.4434	0.0843	25.99	-0.00	0.751			
0.9643	61715.03	3.4400	3.4396	0.0673	25.99	-0.00	0.750			
0.9645	61728.98	3.4370	3.4366	0.0480	25.99	-0.00	0.750			
0.9646	61736.16	3.4340	3.4338	0.0267	25.99	0.00	0.750			
0.9647	61739.25	3.4310	3.4328	0.0054	25.99	0.00	0.750			
