Ah_balance (normalized)	Ah_balance (mAh)	Voltage - fit (V)	Voltage -  interpolate (V)	dQ/dV (1/V)	Temperature (°C)	Temperature - diff (°C)	Current (C)	R_DC 0ms (mOhm)	R_DC 50ms (mOhm)	R_DC 50 ms PEC (mOhm)
0.0004	22.77	4.1630	4.1628	-0.1205	25.71	0.02	-0.750			
0.0008	52.15	4.1600	4.1597	-0.1697	25.71	0.02	-0.750			
0.0014	89.02	4.1570	4.1570	-0.2104	25.71	0.02	-0.750			
0.0021	133.18	4.1540	4.1541	-0.2510	25.71	0.02	-0.750			
0.0029	185.73	4.1510	4.1510	-0.2888	25.71	0.02	-0.750			
0.0038	245.72	4.1480	4.1479	-0.3281	25.70	0.01	-0.750			
0.0049	311.77	4.1450	4.1451	-0.3643	25.70	0.01	-0.750			
0.0060	386.28	4.1420	4.1420	-0.3992	25.70	0.01	-0.750			
0.0073	467.28	4.1390	4.1390	-0.4312	25.69	0.00	-0.750			
0.0086	553.14	4.1360	4.1359	-0.4601	25.69	0.00	-0.750			
0.0101	644.69	4.1330	4.1331	-0.4877	25.69	-0.00	-0.750			
0.0116	741.56	4.1300	4.1300	-0.5124	25.68	-0.01	-0.750			
0.0132	843.09	4.1270	4.1269	-0.5332	25.68	-0.01	-0.750			
0.0148	947.16	4.1240	4.1241	-0.5522	25.68	-0.01	-0.750			
0.0165	1056.35	4.1210	4.1210	-0.5690	25.67	-0.02	-0.750			
0.0183	1168.20	4.1180	4.1180	-0.5834	25.67	-0.02	-0.750			
0.0200	1281.65	4.1150	4.1149	-0.5929	25.66	-0.03	-0.750			
0.0218	1395.85	4.1120	4.1124	-0.6068	25.66	-0.03	-0.750			
0.0237	1513.68	4.1090	4.1090	-0.6179	25.66	-0.03	-0.750			
0.0255	1634.09	4.1060	4.1060	-0.6295	25.65	-0.04	-0.750			
0.0274	1755.44	4.1030	4.1030	-0.6409	25.65	-0.04	-0.750			
0.0294	1880.70	4.1000	4.1001	-0.6494	25.65	-0.04	-0.750			
0.0314	2006.48	4.0970	4.0970	-0.6546	25.64	-0.05	-0.750			
0.0333	2133.20	4.0940	4.0940	-0.6618	25.64	-0.05	-0.750			
0.0353	2259.63	4.0910	4.0910	-0.6664	25.64	-0.05	-0.750			
0.0373	2388.60	4.0880	4.0880	-0.6730	25.64	-0.05	-0.750			
0.0393	2517.61	4.0850	4.0850	-0.6801	25.63	-0.06	-0.750			
0.0414	2648.79	4.0820	4.0820	-0.6831	25.63	-0.06	-0.750			
0.0435	2781.66	4.0790	4.0790	-0.6892	25.63	-0.06	-0.750			
0.0455	2914.59	4.0760	4.0759	-0.6936	25.62	-0.07	-0.750			
0.0476	3047.98	4.0730	4.0729	-0.6949	25.62	-0.07	-0.750			
0.0497	3181.19	4.0700	4.0700	-0.6974	25.62	-0.07	-0.750			
0.0518	3315.30	4.0670	4.0670	-0.7020	25.62	-0.07	-0.750			
0.0539	3450.33	4.0640	4.0640	-0.7046	25.62	-0.07	-0.750			
0.0560	3587.19	4.0610	4.0609	-0.7083	25.62	-0.07	-0.750			
0.0582	3723.68	4.0580	4.0580	-0.7078	25.62	-0.07	-0.750			
0.0603	3858.97	4.0550	4.0551	-0.7111	25.62	-0.07	-0.750			
0.0624	3995.65	4.0520	4.0520	-0.7149	25.62	-0.07	-0.750			
0.0646	4132.56	4.0490	4.0490	-0.7194	25.62	-0.07	-0.750			
0.0667	4270.30	4.0460	4.0459	-0.7228	25.62	-0.07	-0.750			
0.0689	4410.48	4.0430	4.0429	-0.7259	25.62	-0.07	-0.750			
0.0711	4551.43	4.0400	4.0401	-0.7292	25.62	-0.07	-0.750			
0.0733	4691.64	4.0370	4.0370	-0.7285	25.62	-0.07	-0.750			
0.0755	4831.31	4.0340	4.0340	-0.7267	25.62	-0.07	-0.750			
0.0777	4971.43	4.0310	4.0310	-0.7287	25.62	-0.07	-0.750			
0.0798	5110.01	4.0280	4.0279	-0.7256	25.62	-0.07	-0.750			
0.0820	5250.17	4.0250	4.0250	-0.7272	25.62	-0.07	-0.750			
0.0842	5390.03	4.0220	4.0222	-0.7277	25.62	-0.07	-0.750			
0.0864	5529.81	4.0190	4.0189	-0.7284	25.62	-0.07	-0.750			
0.0886	5667.79	4.0160	4.0161	-0.7361	25.63	-0.06	-0.750			
0.0908	5809.71	4.0130	4.0130	-0.7360	25.63	-0.06	-0.750			
0.0930	5953.60	4.0100	4.0099	-0.7413	25.63	-0.06	-0.750			
0.0953	6096.32	4.0070	4.0069	-0.7397	25.64	-0.05	-0.750			
0.0975	6238.61	4.0040	4.0042	-0.7388	25.64	-0.05	-0.750			
0.0997	6378.88	4.0010	4.0009	-0.7403	25.64	-0.05	-0.750			
0.1018	6518.35	3.9980	3.9980	-0.7438	25.64	-0.05	-0.750			
0.1041	6659.47	3.9950	3.9950	-0.7471	25.65	-0.04	-0.750			
0.1064	6807.56	3.9920	3.9919	-0.7569	25.65	-0.04	-0.750			
0.1087	6955.06	3.9890	3.9891	-0.7632	25.65	-0.04	-0.750			
0.1110	7102.93	3.9860	3.9860	-0.7605	25.65	-0.04	-0.750			
0.1133	7248.76	3.9830	3.9829	-0.7633	25.65	-0.04	-0.750			
0.1155	7394.46	3.9800	3.9800	-0.7590	25.66	-0.03	-0.750			
0.1178	7537.84	3.9770	3.9770	-0.7572	25.66	-0.03	-0.750			
0.1201	7683.37	3.9740	3.9740	-0.7641	25.66	-0.03	-0.750			
0.1224	7830.93	3.9710	3.9711	-0.7694	25.66	-0.03	-0.750			
0.1247	7978.19	3.9680	3.9680	-0.7748	25.66	-0.03	-0.750			
0.1270	8129.02	3.9650	3.9650	-0.7794	25.66	-0.03	-0.750			
0.1294	8278.65	3.9620	3.9621	-0.7794	25.66	-0.03	-0.750			
0.1317	8430.51	3.9590	3.9590	-0.7853	25.66	-0.03	-0.750			
0.1341	8580.66	3.9560	3.9562	-0.7835	25.66	-0.03	-0.750			
0.1364	8730.81	3.9530	3.9530	-0.7833	25.66	-0.03	-0.750			
0.1388	8881.81	3.9500	3.9500	-0.7831	25.67	-0.02	-0.750			
0.1411	9031.10	3.9470	3.9470	-0.7840	25.67	-0.02	-0.750			
0.1435	9181.92	3.9440	3.9440	-0.7876	25.67	-0.02	-0.750			
0.1458	9332.64	3.9410	3.9410	-0.7883	25.68	-0.01	-0.750			
0.1482	9483.67	3.9380	3.9379	-0.7925	25.68	-0.01	-0.750			
0.1506	9636.29	3.9350	3.9351	-0.7955	25.69	-0.00	-0.750			
0.1530	9789.53	3.9320	3.9320	-0.7986	25.69	-0.00	-0.750			
0.1554	9943.66	3.9290	3.9290	-0.8014	25.69	0.00	-0.750			
0.1578	10098.71	3.9260	3.9258	-0.8026	25.70	0.01	-0.750			
0.1602	10251.88	3.9230	3.9231	-0.8037	25.70	0.01	-0.750			
0.1626	10405.52	3.9200	3.9200	-0.8090	25.71	0.02	-0.750			
0.1650	10561.82	3.9170	3.9169	-0.8052	25.71	0.02	-0.750			
0.1674	10716.03	3.9140	3.9140	-0.8034	25.71	0.02	-0.750			
0.1699	10870.78	3.9110	3.9110	-0.8069	25.72	0.03	-0.750			
0.1723	11026.31	3.9080	3.9081	-0.8116	25.72	0.03	-0.750			
0.1747	11181.96	3.9050	3.9049	-0.8158	25.72	0.03	-0.750			
0.1772	11337.73	3.9020	3.9020	-0.8186	25.72	0.03	-0.750			
0.1796	11496.41	3.8990	3.8990	-0.8191	25.73	0.04	-0.750			
0.1821	11656.90	3.8960	3.8960	-0.8276	25.73	0.04	-0.750			
0.1846	11815.00	3.8930	3.8931	-0.8235	25.73	0.04	-0.750			
0.1871	11972.47	3.8900	3.8900	-0.8226	25.73	0.04	-0.750			
0.1895	12130.58	3.8870	3.8870	-0.8229	25.74	0.05	-0.750			
0.1920	12288.09	3.8840	3.8839	-0.8214	25.74	0.05	-0.750			
0.1945	12447.19	3.8810	3.8810	-0.8229	25.75	0.06	-0.750			
0.1969	12604.58	3.8780	3.8782	-0.8231	25.75	0.06	-0.750			
0.1994	12762.41	3.8750	3.8749	-0.8222	25.75	0.06	-0.750			
0.2019	12920.60	3.8720	3.8720	-0.8259	25.76	0.07	-0.750			
0.2043	13077.67	3.8690	3.8690	-0.8258	25.76	0.07	-0.750			
0.2069	13238.94	3.8660	3.8660	-0.8314	25.77	0.08	-0.750			
0.2093	13397.62	3.8630	3.8631	-0.8301	25.77	0.08	-0.750			
0.2118	13557.72	3.8600	3.8600	-0.8310	25.77	0.08	-0.750			
0.2143	13716.37	3.8570	3.8570	-0.8338	25.78	0.09	-0.750			
0.2168	13877.02	3.8540	3.8539	-0.8321	25.78	0.09	-0.750			
0.2193	14037.49	3.8510	3.8510	-0.8342	25.79	0.10	-0.750			
0.2218	14197.19	3.8480	3.8482	-0.8317	25.79	0.10	-0.750			
0.2243	14357.70	3.8450	3.8450	-0.8324	25.79	0.10	-0.750			
0.2268	14516.38	3.8420	3.8420	-0.8317	25.80	0.11	-0.750			
0.2293	14675.07	3.8390	3.8390	-0.8318	25.80	0.11	-0.750			
0.2318	14836.21	3.8360	3.8360	-0.8329	25.81	0.12	-0.750			
0.2343	14995.93	3.8330	3.8331	-0.8362	25.81	0.12	-0.750			
0.2368	15157.36	3.8300	3.8300	-0.8338	25.81	0.12	-0.750			
0.2393	15317.86	3.8270	3.8270	-0.8373	25.81	0.12	-0.750			
0.2419	15478.77	3.8240	3.8240	-0.8327	25.82	0.13	-0.750			
0.2444	15639.12	3.8210	3.8210	-0.8296	25.82	0.13	-0.750			
0.2468	15796.68	3.8180	3.8183	-0.8292	25.82	0.13	-0.750			
0.2493	15956.55	3.8150	3.8149	-0.8278	25.82	0.13	-0.750			
0.2518	16113.69	3.8120	3.8120	-0.8269	25.83	0.14	-0.750			
0.2543	16273.01	3.8090	3.8090	-0.8278	25.83	0.14	-0.750			
0.2568	16433.64	3.8060	3.8060	-0.8308	25.84	0.15	-0.750			
0.2593	16593.29	3.8030	3.8032	-0.8286	25.84	0.15	-0.750			
0.2618	16752.35	3.8000	3.8000	-0.8259	25.84	0.15	-0.750			
0.2642	16909.42	3.7970	3.7970	-0.8244	25.84	0.15	-0.750			
0.2667	17068.47	3.7940	3.7940	-0.8214	25.85	0.16	-0.750			
0.2692	17226.34	3.7910	3.7909	-0.8201	25.85	0.16	-0.750			
0.2716	17383.20	3.7880	3.7882	-0.8143	25.85	0.16	-0.750			
0.2741	17539.62	3.7850	3.7850	-0.8125	25.86	0.17	-0.750			
0.2765	17694.70	3.7820	3.7819	-0.8095	25.86	0.17	-0.750			
0.2789	17850.03	3.7790	3.7790	-0.8017	25.87	0.18	-0.750			
0.2813	18003.74	3.7760	3.7760	-0.8006	25.87	0.18	-0.750			
0.2837	18157.01	3.7730	3.7731	-0.7970	25.88	0.19	-0.750			
0.2861	18309.60	3.7700	3.7700	-0.7950	25.88	0.19	-0.750			
0.2884	18460.76	3.7670	3.7670	-0.7985	25.89	0.20	-0.750			
0.2908	18614.15	3.7640	3.7640	-0.7960	25.89	0.20	-0.750			
0.2932	18766.52	3.7610	3.7611	-0.7973	25.89	0.20	-0.750			
0.2957	18921.78	3.7580	3.7580	-0.8011	25.90	0.21	-0.750			
0.2981	19075.23	3.7550	3.7549	-0.7952	25.90	0.21	-0.750			
0.3004	19226.43	3.7520	3.7520	-0.7989	25.91	0.22	-0.750			
0.3028	19380.08	3.7490	3.7490	-0.7967	25.91	0.22	-0.750			
0.3052	19532.01	3.7460	3.7460	-0.7967	25.91	0.22	-0.750			
0.3076	19685.93	3.7430	3.7429	-0.8053	25.92	0.23	-0.750			
0.3100	19840.28	3.7400	3.7401	-0.8068	25.92	0.23	-0.750			
0.3124	19994.31	3.7370	3.7370	-0.8199	25.92	0.23	-0.750			
0.3149	20153.57	3.7340	3.7339	-0.8274	25.92	0.23	-0.750			
0.3174	20312.21	3.7310	3.7311	-0.8307	25.93	0.24	-0.750			
0.3199	20474.26	3.7280	3.7279	-0.8452	25.93	0.24	-0.750			
0.3225	20637.10	3.7250	3.7251	-0.8533	25.93	0.24	-0.750			
0.3250	20801.53	3.7220	3.7219	-0.8664	25.93	0.24	-0.750			
0.3276	20968.06	3.7190	3.7189	-0.8778	25.93	0.24	-0.750			
0.3302	21135.83	3.7160	3.7160	-0.8868	25.93	0.24	-0.750			
0.3330	21309.67	3.7130	3.7129	-0.9085	25.93	0.24	-0.750			
0.3357	21486.39	3.7100	3.7099	-0.9229	25.93	0.24	-0.750			
0.3385	21664.50	3.7070	3.7070	-0.9412	25.93	0.24	-0.750			
0.3414	21847.01	3.7040	3.7040	-0.9533	25.93	0.24	-0.750			
0.3443	22032.89	3.7010	3.7009	-0.9729	25.93	0.24	-0.750			
0.3472	22219.89	3.6980	3.6982	-0.9840	25.93	0.24	-0.750			
0.3501	22409.45	3.6950	3.6949	-1.0054	25.93	0.24	-0.750			
0.3532	22603.22	3.6920	3.6920	-1.0249	25.93	0.24	-0.750			
0.3563	22800.77	3.6890	3.6890	-1.0454	25.93	0.24	-0.750			
0.3594	23003.55	3.6860	3.6863	-1.0788	25.93	0.24	-0.750			
0.3627	23214.59	3.6830	3.6829	-1.0979	25.93	0.24	-0.750			
0.3661	23428.53	3.6800	3.6800	-1.1163	25.93	0.24	-0.750			
0.3694	23643.29	3.6770	3.6770	-1.1384	25.93	0.24	-0.750			
0.3729	23865.20	3.6740	3.6741	-1.1655	25.93	0.24	-0.750			
0.3764	24091.95	3.6710	3.6709	-1.1813	25.92	0.23	-0.750			
0.3800	24318.23	3.6680	3.6679	-1.2042	25.91	0.22	-0.750			
0.3836	24549.04	3.6650	3.6651	-1.2325	25.90	0.21	-0.750			
0.3874	24791.74	3.6620	3.6619	-1.2642	25.89	0.20	-0.750			
0.3912	25036.73	3.6590	3.6590	-1.2910	25.89	0.20	-0.750			
0.3951	25286.76	3.6560	3.6560	-1.3182	25.88	0.19	-0.750			
0.3991	25542.92	3.6530	3.6530	-1.3445	25.87	0.18	-0.750			
0.4032	25806.85	3.6500	3.6499	-1.3788	25.86	0.17	-0.750			
0.4074	26073.38	3.6470	3.6469	-1.3985	25.85	0.16	-0.750			
0.4116	26344.15	3.6440	3.6438	-1.4186	25.84	0.15	-0.750			
0.4159	26618.53	3.6410	3.6410	-1.4585	25.83	0.14	-0.750			
0.4203	26899.43	3.6380	3.6380	-1.4999	25.82	0.13	-0.750			
0.4249	27192.16	3.6350	3.6348	-1.5304	25.82	0.13	-0.750			
0.4296	27492.78	3.6320	3.6320	-1.5790	25.82	0.13	-0.750			
0.4344	27802.39	3.6290	3.6293	-1.6036	25.82	0.13	-0.750			
0.4393	28117.00	3.6260	3.6260	-1.6295	25.81	0.12	-0.750			
0.4443	28433.41	3.6230	3.6229	-1.6577	25.80	0.11	-0.750			
0.4492	28748.16	3.6200	3.6202	-1.6829	25.79	0.10	-0.750	0.401	0.512	
0.4543	29077.89	3.6170	3.6171	-1.7160	25.78	0.09	-0.750			
0.4595	29409.31	3.6140	3.6142	-1.7436	25.77	0.08	-0.750			
0.4648	29744.75	3.6110	3.6110	-1.7760	25.76	0.07	-0.750			
0.4702	30092.10	3.6080	3.6080	-1.8249	25.75	0.06	-0.750			
0.4757	30444.02	3.6050	3.6049	-1.8527	25.74	0.05	-0.750			
0.4813	30804.99	3.6020	3.6018	-1.8952	25.73	0.04	-0.750			
0.4870	31170.93	3.5990	3.5990	-1.9210	25.72	0.03	-0.750			
0.4929	31542.57	3.5960	3.5960	-1.9642	25.72	0.03	-0.750			
0.4988	31923.35	3.5930	3.5931	-2.0035	25.72	0.03	-0.750			
0.5049	32311.35	3.5900	3.5899	-2.0453	25.71	0.02	-0.750			
0.5111	32712.27	3.5870	3.5869	-2.0805	25.70	0.01	-0.750			
0.5174	33115.79	3.5840	3.5842	-2.1219	25.69	0.00	-0.750			
0.5239	33527.03	3.5810	3.5809	-2.1472	25.69	-0.00	-0.750			
0.5304	33945.99	3.5780	3.5780	-2.1722	25.68	-0.01	-0.750			
0.5369	34362.20	3.5750	3.5751	-2.1780	25.68	-0.01	-0.750			
0.5435	34783.02	3.5720	3.5718	-2.2103	25.67	-0.02	-0.750			
0.5502	35209.79	3.5690	3.5689	-2.2310	25.66	-0.03	-0.750			
0.5570	35645.81	3.5660	3.5660	-2.2463	25.66	-0.03	-0.750			
0.5638	36080.11	3.5630	3.5631	-2.2561	25.66	-0.03	-0.750			
0.5705	36510.96	3.5600	3.5599	-2.2635	25.66	-0.03	-0.750			
0.5773	36946.64	3.5570	3.5570	-2.2769	25.66	-0.03	-0.750			
0.5842	37388.77	3.5540	3.5542	-2.2799	25.66	-0.03	-0.750			
0.5910	37824.66	3.5510	3.5510	-2.2675	25.66	-0.03	-0.750			
0.5979	38263.30	3.5480	3.5480	-2.2642	25.66	-0.03	-0.750			
0.6047	38702.35	3.5450	3.5450	-2.2497	25.66	-0.03	-0.750			
0.6115	39136.06	3.5420	3.5421	-2.2252	25.66	-0.03	-0.750			
0.6180	39555.05	3.5390	3.5390	-2.1866	25.66	-0.03	-0.750			
0.6246	39971.27	3.5360	3.5360	-2.1504	25.66	-0.03	-0.750			
0.6310	40383.36	3.5330	3.5330	-2.1169	25.67	-0.02	-0.750			
0.6373	40787.86	3.5300	3.5299	-2.0912	25.67	-0.02	-0.750			
0.6435	41186.25	3.5270	3.5268	-2.0359	25.68	-0.01	-0.750			
0.6496	41574.07	3.5240	3.5241	-2.0002	25.68	-0.01	-0.750			
0.6556	41957.27	3.5210	3.5209	-1.9470	25.69	0.00	-0.750			
0.6613	42322.32	3.5180	3.5178	-1.8934	25.70	0.01	-0.750			
0.6669	42680.16	3.5150	3.5151	-1.8445	25.71	0.02	-0.750			
0.6724	43032.82	3.5120	3.5121	-1.8011	25.71	0.02	-0.750			
0.6777	43372.81	3.5090	3.5090	-1.7398	25.73	0.04	-0.750			
0.6829	43704.24	3.5060	3.5059	-1.6820	25.75	0.06	-0.750			
0.6878	44021.98	3.5030	3.5032	-1.6245	25.76	0.07	-0.750			
0.6927	44331.89	3.5000	3.4998	-1.5720	25.76	0.07	-0.750			
0.6972	44623.73	3.4970	3.4971	-1.5144	25.77	0.08	-0.750			
0.7017	44909.71	3.4940	3.4940	-1.4678	25.79	0.10	-0.750			
0.7060	45187.04	3.4910	3.4909	-1.4211	25.80	0.11	-0.750			
0.7103	45456.22	3.4880	3.4881	-1.3799	25.81	0.12	-0.750			
0.7143	45716.59	3.4850	3.4851	-1.3309	25.83	0.14	-0.750			
0.7182	45967.17	3.4820	3.4819	-1.2833	25.84	0.15	-0.750			
0.7220	46204.83	3.4790	3.4792	-1.2383	25.85	0.16	-0.750			
0.7257	46442.71	3.4760	3.4759	-1.2009	25.87	0.18	-0.750			
0.7292	46667.50	3.4730	3.4729	-1.1571	25.89	0.20	-0.750			
0.7326	46885.41	3.4700	3.4700	-1.1191	25.90	0.21	-0.750			
0.7359	47097.33	3.4670	3.4669	-1.0878	25.92	0.23	-0.750			
0.7391	47301.96	3.4640	3.4639	-1.0513	25.93	0.24	-0.750			
0.7422	47498.54	3.4610	3.4610	-1.0133	25.94	0.25	-0.750			
0.7451	47687.73	3.4580	3.4580	-0.9794	25.95	0.26	-0.750			
0.7481	47876.16	3.4550	3.4550	-0.9558	25.95	0.26	-0.750			
0.7508	48053.68	3.4520	3.4520	-0.9335	25.96	0.27	-0.750			
0.7536	48229.61	3.4490	3.4489	-0.9156	25.97	0.28	-0.750			
0.7563	48401.88	3.4460	3.4460	-0.8998	25.98	0.29	-0.750			
0.7590	48573.57	3.4430	3.4431	-0.8927	25.99	0.30	-0.750			
0.7616	48740.98	3.4400	3.4401	-0.9011	26.00	0.31	-0.750			
0.7643	48913.11	3.4370	3.4369	-0.9104	26.01	0.32	-0.750			
0.7670	49086.08	3.4340	3.4339	-0.9241	26.01	0.32	-0.750			
0.7697	49263.90	3.4310	3.4309	-0.9444	26.02	0.33	-0.750			
0.7726	49449.49	3.4280	3.4280	-0.9650	26.03	0.34	-0.750			
0.7756	49637.70	3.4250	3.4250	-0.9913	26.04	0.35	-0.750			
0.7786	49831.28	3.4220	3.4220	-1.0087	26.05	0.36	-0.750			
0.7817	50026.48	3.4190	3.4190	-1.0153	26.06	0.37	-0.750			
0.7848	50226.09	3.4160	3.4161	-1.0225	26.07	0.38	-0.750			
0.7879	50424.49	3.4130	3.4130	-1.0166	26.08	0.39	-0.750			
0.7909	50620.76	3.4100	3.4100	-1.0017	26.09	0.40	-0.750			
0.7940	50813.59	3.4070	3.4070	-0.9844	26.09	0.40	-0.750			
0.7969	51000.20	3.4040	3.4043	-0.9553	26.10	0.41	-0.750			
0.7997	51181.19	3.4010	3.4010	-0.9294	26.11	0.42	-0.750			
0.8025	51358.99	3.3980	3.3980	-0.8975	26.11	0.42	-0.750			
0.8051	51527.85	3.3950	3.3950	-0.8628	26.12	0.43	-0.750			
0.8077	51690.87	3.3920	3.3920	-0.8302	26.13	0.44	-0.750			
0.8101	51845.85	3.3890	3.3891	-0.7953	26.13	0.44	-0.750			
0.8124	51994.00	3.3860	3.3860	-0.7651	26.14	0.45	-0.750			
0.8147	52137.96	3.3830	3.3830	-0.7388	26.15	0.46	-0.750			
0.8168	52276.56	3.3800	3.3799	-0.7079	26.15	0.46	-0.750			
0.8189	52410.95	3.3770	3.3770	-0.6832	26.16	0.47	-0.750			
0.8209	52539.05	3.3740	3.3740	-0.6594	26.17	0.48	-0.750			
0.8229	52663.26	3.3710	3.3710	-0.6355	26.17	0.48	-0.750			
0.8247	52782.11	3.3680	3.3679	-0.6112	26.18	0.49	-0.750			
0.8265	52896.96	3.3650	3.3651	-0.5884	26.19	0.50	-0.750			
0.8282	53007.88	3.3620	3.3620	-0.5680	26.19	0.50	-0.750			
0.8299	53115.79	3.3590	3.3590	-0.5470	26.20	0.51	-0.750			
0.8315	53218.37	3.3560	3.3560	-0.5247	26.20	0.51	-0.750			
0.8331	53316.64	3.3530	3.3529	-0.5024	26.21	0.52	-0.750			
0.8345	53411.01	3.3500	3.3501	-0.4842	26.21	0.52	-0.750			
0.8360	53502.01	3.3470	3.3470	-0.4652	26.22	0.53	-0.750			
0.8373	53589.18	3.3440	3.3439	-0.4482	26.23	0.54	-0.750			
0.8386	53673.10	3.3410	3.3410	-0.4322	26.23	0.54	-0.750			
0.8399	53754.11	3.3380	3.3380	-0.4179	26.24	0.55	-0.750			
0.8411	53832.58	3.3350	3.3349	-0.4048	26.24	0.55	-0.750			
0.8423	53909.42	3.3320	3.3320	-0.3909	26.25	0.56	-0.750			
0.8435	53982.88	3.3290	3.3289	-0.3768	26.25	0.56	-0.750			
0.8446	54054.10	3.3260	3.3261	-0.3654	26.26	0.57	-0.750			
0.8457	54122.89	3.3230	3.3229	-0.3528	26.27	0.58	-0.750			
0.8467	54188.88	3.3200	3.3201	-0.3409	26.27	0.58	-0.750			
0.8477	54253.49	3.3170	3.3170	-0.3289	26.28	0.59	-0.750			
0.8487	54314.69	3.3140	3.3140	-0.3192	26.28	0.59	-0.750			
0.8496	54375.34	3.3110	3.3110	-0.3108	26.29	0.60	-0.750			
0.8505	54433.77	3.3080	3.3080	-0.3011	26.29	0.60	-0.750			
0.8514	54490.49	3.3050	3.3049	-0.2926	26.30	0.61	-0.750			
0.8523	54546.07	3.3020	3.3021	-0.2848	26.30	0.61	-0.750			
0.8531	54600.05	3.2990	3.2990	-0.2769	26.31	0.62	-0.750			
0.8540	54652.82	3.2960	3.2959	-0.2695	26.31	0.62	-0.750			
0.8547	54703.02	3.2930	3.2930	-0.2617	26.32	0.63	-0.750			
0.8555	54752.41	3.2900	3.2900	-0.2555	26.32	0.63	-0.750			
0.8563	54800.79	3.2870	3.2869	-0.2497	26.32	0.63	-0.750			
0.8570	54848.07	3.2840	3.2840	-0.2438	26.33	0.64	-0.750			
0.8577	54894.48	3.2810	3.2811	-0.2387	26.33	0.64	-0.750			
0.8584	54939.84	3.2780	3.2779	-0.2333	26.34	0.65	-0.750			
0.8591	54984.03	3.2750	3.2750	-0.2285	26.34	0.65	-0.750			
0.8598	55027.10	3.2720	3.2720	-0.2233	26.35	0.66	-0.750			
0.8605	55069.68	3.2690	3.2689	-0.2184	26.35	0.66	-0.750			
0.8611	55111.25	3.2660	3.2660	-0.2138	26.36	0.67	-0.750			
0.8617	55151.64	3.2630	3.2630	-0.2102	26.36	0.67	-0.750			
0.8624	55191.37	3.2600	3.2601	-0.2071	26.37	0.68	-0.750			
0.8630	55230.83	3.2570	3.2569	-0.2033	26.37	0.68	-0.750			
0.8636	55269.56	3.2540	3.2539	-0.2001	26.38	0.69	-0.750			
0.8642	55307.49	3.2510	3.2510	-0.1972	26.38	0.69	-0.750			
0.8648	55345.13	3.2480	3.2481	-0.1945	26.39	0.70	-0.750			
0.8654	55382.44	3.2450	3.2450	-0.1923	26.39	0.70	-0.750			
0.8659	55419.04	3.2420	3.2419	-0.1890	26.40	0.71	-0.750			
0.8665	55454.83	3.2390	3.2390	-0.1855	26.40	0.71	-0.750			
0.8670	55490.00	3.2360	3.2360	-0.1828	26.41	0.72	-0.750			
0.8676	55524.95	3.2330	3.2331	-0.1808	26.41	0.72	-0.750			
0.8681	55559.41	3.2300	3.2299	-0.1781	26.42	0.73	-0.750			
0.8686	55593.06	3.2270	3.2270	-0.1759	26.42	0.73	-0.750			
0.8692	55626.66	3.2240	3.2240	-0.1734	26.43	0.74	-0.750			
0.8697	55659.83	3.2210	3.2210	-0.1713	26.43	0.74	-0.750			
0.8702	55692.41	3.2180	3.2180	-0.1693	26.43	0.74	-0.750			
0.8707	55724.85	3.2150	3.2150	-0.1673	26.44	0.75	-0.750			
0.8712	55756.46	3.2120	3.2120	-0.1658	26.44	0.75	-0.750			
0.8717	55788.28	3.2090	3.2090	-0.1636	26.44	0.75	-0.750			
0.8722	55819.58	3.2060	3.2059	-0.1615	26.45	0.76	-0.750			
0.8727	55850.45	3.2030	3.2031	-0.1596	26.45	0.76	-0.750			
0.8731	55880.99	3.2000	3.2001	-0.1584	26.46	0.77	-0.750			
0.8736	55911.18	3.1970	3.1969	-0.1566	26.46	0.77	-0.750			
0.8741	55940.70	3.1940	3.1940	-0.1547	26.47	0.78	-0.750			
0.8745	55970.32	3.1910	3.1909	-0.1538	26.47	0.78	-0.750			
0.8750	55999.66	3.1880	3.1880	-0.1516	26.47	0.78	-0.750			
0.8755	56029.08	3.1850	3.1850	-0.1505	26.48	0.79	-0.750			
0.8759	56057.95	3.1820	3.1820	-0.1486	26.48	0.79	-0.750			
0.8763	56086.05	3.1790	3.1791	-0.1474	26.49	0.80	-0.750			
0.8768	56113.94	3.1760	3.1760	-0.1459	26.49	0.80	-0.750			
0.8772	56141.82	3.1730	3.1729	-0.1447	26.50	0.81	-0.750			
0.8776	56169.23	3.1700	3.1701	-0.1433	26.50	0.81	-0.750			
0.8781	56196.73	3.1670	3.1670	-0.1429	26.51	0.82	-0.750			
0.8785	56224.54	3.1640	3.1640	-0.1418	26.51	0.82	-0.750			
0.8789	56251.76	3.1610	3.1610	-0.1405	26.52	0.83	-0.750			
0.8794	56278.55	3.1580	3.1580	-0.1386	26.52	0.83	-0.750			
0.8798	56304.89	3.1550	3.1551	-0.1369	26.52	0.83	-0.750			
0.8802	56331.10	3.1520	3.1520	-0.1354	26.53	0.84	-0.750			
0.8806	56356.63	3.1490	3.1490	-0.1342	26.53	0.84	-0.750			
0.8810	56382.32	3.1460	3.1460	-0.1333	26.54	0.85	-0.750			
0.8814	56407.52	3.1430	3.1431	-0.1324	26.54	0.85	-0.750			
0.8818	56433.10	3.1400	3.1398	-0.1316	26.55	0.86	-0.750			
0.8822	56458.30	3.1370	3.1371	-0.1308	26.55	0.86	-0.750			
0.8826	56483.34	3.1340	3.1340	-0.1299	26.56	0.87	-0.750			
0.8829	56508.31	3.1310	3.1310	-0.1291	26.56	0.87	-0.750			
0.8833	56533.13	3.1280	3.1281	-0.1281	26.57	0.88	-0.750			
0.8837	56557.35	3.1250	3.1249	-0.1264	26.57	0.88	-0.750			
0.8841	56581.55	3.1220	3.1220	-0.1256	26.58	0.89	-0.750			
0.8845	56605.54	3.1190	3.1191	-0.1249	26.58	0.89	-0.750			
0.8848	56629.48	3.1160	3.1161	-0.1242	26.59	0.90	-0.750			
0.8852	56653.30	3.1130	3.1129	-0.1232	26.59	0.90	-0.750			
0.8856	56676.77	3.1100	3.1100	-0.1223	26.60	0.91	-0.750			
0.8859	56700.18	3.1070	3.1070	-0.1215	26.60	0.91	-0.750			
0.8863	56723.53	3.1040	3.1040	-0.1207	26.61	0.92	-0.750			
0.8867	56746.62	3.1010	3.1010	-0.1197	26.61	0.92	-0.750			
0.8870	56769.50	3.0980	3.0981	-0.1189	26.62	0.93	-0.750			
0.8874	56792.18	3.0950	3.0950	-0.1179	26.62	0.93	-0.750			
0.8877	56814.62	3.0920	3.0919	-0.1175	26.63	0.94	-0.750			
0.8881	56837.10	3.0890	3.0891	-0.1170	26.63	0.94	-0.750			
0.8884	56859.64	3.0860	3.0859	-0.1163	26.64	0.95	-0.750			
0.8888	56881.84	3.0830	3.0830	-0.1155	26.64	0.95	-0.750			
0.8891	56904.03	3.0800	3.0800	-0.1147	26.65	0.96	-0.750			
0.8895	56926.16	3.0770	3.0772	-0.1142	26.65	0.96	-0.750			
0.8898	56947.98	3.0740	3.0740	-0.1132	26.66	0.97	-0.750			
0.8902	56969.73	3.0710	3.0708	-0.1123	26.66	0.97	-0.750			
0.8905	56991.00	3.0680	3.0681	-0.1120	26.67	0.98	-0.750			
0.8908	57012.13	3.0650	3.0650	-0.1111	26.67	0.98	-0.750			
0.8911	57033.59	3.0620	3.0619	-0.1103	26.68	0.99	-0.750			
0.8915	57054.80	3.0590	3.0590	-0.1099	26.68	0.99	-0.750			
0.8918	57075.87	3.0560	3.0560	-0.1090	26.69	1.00	-0.750			
0.8921	57096.84	3.0530	3.0531	-0.1084	26.69	1.00	-0.750			
0.8925	57117.50	3.0500	3.0501	-0.1077	26.70	1.01	-0.750			
0.8928	57138.17	3.0470	3.0469	-0.1070	26.70	1.01	-0.750			
0.8931	57158.55	3.0440	3.0440	-0.1063	26.71	1.02	-0.750			
0.8934	57178.64	3.0410	3.0409	-0.1054	26.71	1.02	-0.750			
0.8937	57198.88	3.0380	3.0380	-0.1049	26.72	1.03	-0.750			
0.8940	57219.07	3.0350	3.0349	-0.1046	26.72	1.03	-0.750			
0.8944	57239.09	3.0320	3.0320	-0.1040	26.72	1.03	-0.750			
0.8947	57259.03	3.0290	3.0289	-0.1035	26.73	1.04	-0.750			
0.8950	57278.83	3.0260	3.0260	-0.1030	26.73	1.04	-0.750			
0.8953	57298.52	3.0230	3.0231	-0.1024	26.74	1.05	-0.750			
0.8956	57318.33	3.0200	3.0200	-0.1011	26.74	1.05	-0.750			
0.8959	57337.83	3.0170	3.0169	-0.1003	26.75	1.06	-0.750			
0.8962	57356.89	3.0140	3.0140	-0.0995	26.75	1.06	-0.750			
0.8965	57375.98	3.0110	3.0110	-0.0985	26.76	1.07	-0.750			
0.8968	57394.77	3.0080	3.0080	-0.0973	26.76	1.07	-0.751			
0.8971	57413.31	3.0050	3.0049	-0.0964	26.77	1.08	-0.751			
0.8974	57431.73	3.0020	3.0020	-0.0955	26.77	1.08	-0.751			
