Ah_balance (normalized)	Ah_balance (mAh)	Voltage - fit (V)	Voltage -  interpolate (V)	dQ/dV (1/V)	Temperature (°C)	Temperature - diff (°C)	Current (C)	R_DC 0ms (mOhm)	R_DC 50ms (mOhm)	R_DC 50 ms PEC (mOhm)
0.0004	27.69	4.1610	4.1610	-0.1387	25.80	0.01	-0.750			
0.0010	61.07	4.1580	4.1580	-0.1850	25.80	0.01	-0.750			
0.0016	100.50	4.1550	4.1548	-0.2206	25.79	0.00	-0.750			
0.0023	145.27	4.1520	4.1521	-0.2607	25.79	0.00	-0.750			
0.0031	199.20	4.1490	4.1491	-0.2987	25.79	-0.00	-0.750			
0.0041	260.51	4.1460	4.1459	-0.3355	25.79	-0.00	-0.750			
0.0051	329.43	4.1430	4.1430	-0.3685	25.78	-0.01	-0.750			
0.0063	403.60	4.1400	4.1401	-0.4005	25.78	-0.01	-0.750			
0.0076	484.32	4.1370	4.1371	-0.4344	25.77	-0.02	-0.750			
0.0089	570.53	4.1340	4.1340	-0.4654	25.77	-0.02	-0.750			
0.0104	663.05	4.1310	4.1308	-0.4890	25.77	-0.02	-0.750			
0.0119	760.74	4.1280	4.1280	-0.5158	25.76	-0.03	-0.750			
0.0135	862.94	4.1250	4.1251	-0.5378	25.76	-0.03	-0.750			
0.0152	970.63	4.1220	4.1222	-0.5593	25.75	-0.04	-0.750			
0.0169	1078.74	4.1190	4.1189	-0.5762	25.75	-0.04	-0.750			
0.0186	1189.83	4.1160	4.1161	-0.5911	25.74	-0.05	-0.750			
0.0204	1305.68	4.1130	4.1130	-0.6058	25.74	-0.05	-0.750			
0.0223	1426.26	4.1100	4.1099	-0.6188	25.73	-0.06	-0.750			
0.0241	1545.27	4.1070	4.1071	-0.6232	25.73	-0.06	-0.750			
0.0260	1665.54	4.1040	4.1041	-0.6315	25.72	-0.07	-0.750			
0.0279	1787.36	4.1010	4.1011	-0.6411	25.72	-0.07	-0.750			
0.0299	1911.23	4.0980	4.0978	-0.6455	25.72	-0.07	-0.750			
0.0318	2035.06	4.0950	4.0950	-0.6514	25.72	-0.07	-0.750			
0.0338	2161.29	4.0920	4.0921	-0.6596	25.72	-0.07	-0.750			
0.0358	2290.05	4.0890	4.0890	-0.6702	25.71	-0.08	-0.750			
0.0378	2419.21	4.0860	4.0858	-0.6723	25.71	-0.08	-0.750			
0.0398	2547.98	4.0830	4.0831	-0.6727	25.71	-0.08	-0.750			
0.0418	2677.39	4.0800	4.0800	-0.6793	25.71	-0.08	-0.750			
0.0439	2811.09	4.0770	4.0770	-0.6838	25.71	-0.08	-0.750			
0.0460	2941.48	4.0740	4.0739	-0.6861	25.71	-0.08	-0.750			
0.0480	3071.59	4.0710	4.0711	-0.6898	25.70	-0.09	-0.750			
0.0501	3205.12	4.0680	4.0680	-0.6939	25.70	-0.09	-0.750			
0.0522	3339.28	4.0650	4.0649	-0.7001	25.70	-0.09	-0.750			
0.0543	3475.38	4.0620	4.0619	-0.7014	25.70	-0.09	-0.750			
0.0564	3609.33	4.0590	4.0591	-0.7024	25.70	-0.09	-0.750			
0.0585	3746.24	4.0560	4.0559	-0.7088	25.70	-0.09	-0.750			
0.0606	3880.93	4.0530	4.0531	-0.7066	25.69	-0.10	-0.750			
0.0628	4017.06	4.0500	4.0498	-0.7070	25.69	-0.10	-0.750			
0.0649	4152.89	4.0470	4.0471	-0.7119	25.69	-0.10	-0.750			
0.0670	4289.10	4.0440	4.0440	-0.7180	25.69	-0.10	-0.750			
0.0692	4429.26	4.0410	4.0410	-0.7188	25.69	-0.10	-0.750			
0.0714	4567.85	4.0380	4.0379	-0.7228	25.69	-0.10	-0.750			
0.0736	4707.52	4.0350	4.0351	-0.7245	25.68	-0.11	-0.750			
0.0757	4847.61	4.0320	4.0320	-0.7283	25.68	-0.11	-0.750			
0.0779	4987.63	4.0290	4.0292	-0.7289	25.68	-0.11	-0.750			
0.0801	5126.69	4.0260	4.0260	-0.7290	25.68	-0.11	-0.750			
0.0823	5265.83	4.0230	4.0230	-0.7345	25.68	-0.11	-0.750			
0.0845	5408.93	4.0200	4.0200	-0.7360	25.68	-0.11	-0.750			
0.0867	5550.75	4.0170	4.0169	-0.7377	25.68	-0.11	-0.750			
0.0889	5691.78	4.0140	4.0140	-0.7367	25.68	-0.11	-0.750			
0.0911	5833.27	4.0110	4.0109	-0.7364	25.68	-0.11	-0.750			
0.0934	5974.90	4.0080	4.0081	-0.7385	25.68	-0.11	-0.750			
0.0956	6117.13	4.0050	4.0050	-0.7405	25.68	-0.11	-0.750			
0.0978	6258.88	4.0020	4.0019	-0.7420	25.68	-0.11	-0.750			
0.1001	6403.73	3.9990	3.9990	-0.7500	25.68	-0.11	-0.750			
0.1023	6546.77	3.9960	3.9961	-0.7503	25.68	-0.11	-0.750			
0.1045	6690.98	3.9930	3.9929	-0.7511	25.68	-0.11	-0.750			
0.1068	6835.69	3.9900	3.9900	-0.7520	25.68	-0.11	-0.750			
0.1091	6980.09	3.9870	3.9870	-0.7569	25.68	-0.11	-0.750			
0.1113	7126.02	3.9840	3.9840	-0.7565	25.68	-0.11	-0.750			
0.1136	7273.38	3.9810	3.9809	-0.7584	25.68	-0.11	-0.750			
0.1159	7419.00	3.9780	3.9781	-0.7581	25.68	-0.11	-0.750			
0.1182	7563.85	3.9750	3.9750	-0.7614	25.68	-0.11	-0.750			
0.1205	7710.68	3.9720	3.9720	-0.7607	25.68	-0.11	-0.750			
0.1227	7854.21	3.9690	3.9690	-0.7591	25.69	-0.10	-0.750			
0.1250	8002.08	3.9660	3.9660	-0.7676	25.69	-0.10	-0.750			
0.1274	8150.44	3.9630	3.9630	-0.7735	25.69	-0.10	-0.750			
0.1297	8298.18	3.9600	3.9599	-0.7791	25.69	-0.10	-0.750			
0.1320	8447.73	3.9570	3.9571	-0.7872	25.69	-0.10	-0.750			
0.1344	8600.37	3.9540	3.9540	-0.7895	25.70	-0.09	-0.750			
0.1368	8753.29	3.9510	3.9510	-0.7914	25.70	-0.09	-0.750			
0.1392	8906.70	3.9480	3.9480	-0.7891	25.70	-0.09	-0.750			
0.1415	9057.89	3.9450	3.9450	-0.7898	25.70	-0.09	-0.750			
0.1439	9206.94	3.9420	3.9421	-0.7974	25.70	-0.09	-0.750			
0.1463	9361.51	3.9390	3.9388	-0.7947	25.70	-0.09	-0.750			
0.1487	9514.29	3.9360	3.9360	-0.7941	25.70	-0.09	-0.750			
0.1511	9668.35	3.9330	3.9329	-0.7955	25.70	-0.09	-0.750			
0.1535	9822.56	3.9300	3.9301	-0.7953	25.70	-0.09	-0.750			
0.1558	9974.00	3.9270	3.9269	-0.7934	25.70	-0.09	-0.750			
0.1582	10122.69	3.9240	3.9240	-0.7905	25.70	-0.09	-0.750			
0.1605	10272.47	3.9210	3.9211	-0.7881	25.71	-0.08	-0.750			
0.1629	10427.57	3.9180	3.9179	-0.8031	25.71	-0.08	-0.750			
0.1653	10582.11	3.9150	3.9151	-0.8074	25.71	-0.08	-0.750			
0.1678	10738.31	3.9120	3.9121	-0.8093	25.71	-0.08	-0.750			
0.1702	10894.69	3.9090	3.9089	-0.8179	25.71	-0.08	-0.750			
0.1727	11053.60	3.9060	3.9059	-0.8147	25.72	-0.07	-0.750			
0.1751	11209.52	3.9030	3.9030	-0.8102	25.72	-0.07	-0.750			
0.1776	11363.79	3.9000	3.9002	-0.8110	25.72	-0.07	-0.750			
0.1800	11518.54	3.8970	3.8970	-0.8103	25.72	-0.07	-0.750			
0.1824	11673.92	3.8940	3.8940	-0.8168	25.73	-0.06	-0.750			
0.1849	11830.58	3.8910	3.8909	-0.8168	25.73	-0.06	-0.750			
0.1873	11990.02	3.8880	3.8880	-0.8181	25.74	-0.05	-0.750			
0.1898	12147.28	3.8850	3.8852	-0.8219	25.74	-0.05	-0.750			
0.1923	12307.11	3.8820	3.8819	-0.8148	25.74	-0.05	-0.750			
0.1947	12463.87	3.8790	3.8788	-0.8022	25.74	-0.05	-0.750			
0.1971	12614.15	3.8760	3.8760	-0.7939	25.75	-0.04	-0.750			
0.1994	12763.43	3.8730	3.8732	-0.7964	25.75	-0.04	-0.750			
0.2018	12917.35	3.8700	3.8700	-0.8022	25.75	-0.04	-0.750			
0.2042	13070.62	3.8670	3.8666	-0.8056	25.75	-0.04	-0.750			
0.2066	13222.18	3.8640	3.8642	-0.8064	25.75	-0.04	-0.750			
0.2091	13381.32	3.8610	3.8610	-0.8127	25.76	-0.03	-0.750			
0.2116	13539.24	3.8580	3.8580	-0.8166	25.76	-0.03	-0.750			
0.2140	13696.27	3.8550	3.8548	-0.8131	25.76	-0.03	-0.750			
0.2164	13851.01	3.8520	3.8520	-0.8183	25.76	-0.03	-0.750			
0.2189	14008.62	3.8490	3.8490	-0.8329	25.76	-0.03	-0.750			
0.2214	14169.86	3.8460	3.8459	-0.8336	25.76	-0.03	-0.750			
0.2239	14331.16	3.8430	3.8429	-0.8315	25.77	-0.02	-0.750			
0.2265	14493.23	3.8400	3.8399	-0.8369	25.77	-0.02	-0.750			
0.2290	14654.03	3.8370	3.8369	-0.8371	25.77	-0.02	-0.750			
0.2315	14814.49	3.8340	3.8339	-0.8352	25.78	-0.01	-0.750			
0.2339	14972.10	3.8310	3.8310	-0.8288	25.78	-0.01	-0.750			
0.2364	15130.72	3.8280	3.8281	-0.8241	25.78	-0.01	-0.750			
0.2389	15291.83	3.8250	3.8249	-0.8306	25.79	-0.00	-0.750			
0.2414	15450.89	3.8220	3.8220	-0.8306	25.79	0.00	-0.750			
0.2439	15608.27	3.8190	3.8191	-0.8324	25.79	0.00	-0.750			
0.2464	15768.67	3.8160	3.8159	-0.8306	25.79	0.00	-0.750			
0.2489	15928.80	3.8130	3.8130	-0.8281	25.80	0.01	-0.750			
0.2514	16089.95	3.8100	3.8100	-0.8281	25.80	0.01	-0.750			
0.2539	16249.82	3.8070	3.8069	-0.8244	25.80	0.01	-0.750			
0.2563	16404.79	3.8040	3.8040	-0.8262	25.80	0.01	-0.750			
0.2588	16563.05	3.8010	3.8010	-0.8171	25.80	0.01	-0.750			
0.2612	16719.51	3.7980	3.7979	-0.8122	25.81	0.02	-0.750			
0.2637	16876.90	3.7950	3.7949	-0.8111	25.81	0.02	-0.750			
0.2661	17032.52	3.7920	3.7919	-0.8056	25.81	0.02	-0.750			
0.2685	17184.55	3.7890	3.7890	-0.8087	25.81	0.02	-0.750			
0.2709	17339.64	3.7860	3.7860	-0.8029	25.81	0.02	-0.750			
0.2733	17492.75	3.7830	3.7830	-0.7930	25.82	0.03	-0.750			
0.2758	17648.12	3.7800	3.7800	-0.8019	25.82	0.03	-0.750			
0.2781	17801.58	3.7770	3.7771	-0.7985	25.82	0.03	-0.750			
0.2805	17954.16	3.7740	3.7739	-0.7966	25.82	0.03	-0.750			
0.2829	18106.26	3.7710	3.7709	-0.7972	25.82	0.03	-0.750			
0.2853	18259.10	3.7680	3.7681	-0.7905	25.82	0.03	-0.750			
0.2877	18413.81	3.7650	3.7649	-0.7908	25.82	0.03	-0.750			
0.2901	18564.09	3.7620	3.7622	-0.7862	25.82	0.03	-0.750			
0.2924	18711.95	3.7590	3.7590	-0.7836	25.83	0.04	-0.750			
0.2947	18862.45	3.7560	3.7559	-0.7908	25.83	0.04	-0.750			
0.2971	19013.38	3.7530	3.7530	-0.7911	25.84	0.05	-0.750			
0.2995	19167.38	3.7500	3.7500	-0.7914	25.84	0.05	-0.750			
0.3019	19324.31	3.7470	3.7471	-0.7959	25.85	0.06	-0.750			
0.3043	19474.90	3.7440	3.7440	-0.7975	25.85	0.06	-0.750			
0.3066	19624.90	3.7410	3.7411	-0.8016	25.85	0.06	-0.750			
0.3091	19779.42	3.7380	3.7379	-0.8049	25.86	0.07	-0.750			
0.3114	19932.69	3.7350	3.7349	-0.8079	25.86	0.07	-0.750			
0.3139	20090.64	3.7320	3.7320	-0.8209	25.86	0.07	-0.750			
0.3164	20248.77	3.7290	3.7291	-0.8333	25.86	0.07	-0.750			
0.3189	20409.69	3.7260	3.7259	-0.8496	25.86	0.07	-0.750			
0.3215	20573.11	3.7230	3.7230	-0.8585	25.86	0.07	-0.750			
0.3240	20738.29	3.7200	3.7200	-0.8701	25.86	0.07	-0.750			
0.3267	20909.54	3.7170	3.7170	-0.8858	25.86	0.07	-0.750			
0.3294	21081.98	3.7140	3.7140	-0.8970	25.86	0.07	-0.750			
0.3321	21254.44	3.7110	3.7109	-0.9116	25.86	0.07	-0.750			
0.3348	21429.26	3.7080	3.7080	-0.9207	25.85	0.06	-0.750			
0.3376	21606.66	3.7050	3.7050	-0.9369	25.85	0.06	-0.750			
0.3405	21789.88	3.7020	3.7022	-0.9517	25.85	0.06	-0.750			
0.3434	21974.46	3.6990	3.6990	-0.9659	25.85	0.06	-0.750			
0.3463	22160.53	3.6960	3.6960	-0.9802	25.85	0.06	-0.750			
0.3492	22347.11	3.6930	3.6930	-1.0015	25.85	0.06	-0.750			
0.3522	22541.74	3.6900	3.6900	-1.0265	25.85	0.06	-0.750			
0.3553	22740.56	3.6870	3.6869	-1.0590	25.85	0.06	-0.750			
0.3586	22948.39	3.6840	3.6839	-1.0813	25.85	0.06	-0.750			
0.3619	23160.98	3.6810	3.6810	-1.1032	25.85	0.06	-0.750			
0.3652	23373.98	3.6780	3.6784	-1.1289	25.85	0.06	-0.750			
0.3687	23595.62	3.6750	3.6749	-1.1441	25.84	0.05	-0.750			
0.3721	23815.28	3.6720	3.6719	-1.1598	25.83	0.04	-0.750			
0.3756	24036.53	3.6690	3.6690	-1.1807	25.83	0.04	-0.750			
0.3791	24265.50	3.6660	3.6661	-1.2128	25.82	0.03	-0.750			
0.3828	24500.44	3.6630	3.6629	-1.2371	25.82	0.03	-0.750			
0.3866	24739.31	3.6600	3.6600	-1.2670	25.81	0.02	-0.750			
0.3904	24985.34	3.6570	3.6571	-1.3016	25.81	0.02	-0.750			
0.3944	25244.08	3.6540	3.6539	-1.3309	25.80	0.01	-0.750			
0.3985	25503.96	3.6510	3.6509	-1.3516	25.80	0.01	-0.750			
0.4026	25765.94	3.6480	3.6485	-1.3825	25.79	0.00	-0.750			
0.4068	26032.05	3.6450	3.6448	-1.4212	25.78	-0.01	-0.750			
0.4111	26309.82	3.6420	3.6419	-1.4474	25.77	-0.02	-0.750			
0.4154	26587.97	3.6390	3.6392	-1.4832	25.76	-0.03	-0.750			
0.4201	26885.09	3.6360	3.6363	-1.5274	25.76	-0.03	-0.750			
0.4247	27180.34	3.6330	3.6328	-1.5382	25.75	-0.04	-0.750			
0.4293	27472.45	3.6300	3.6301	-1.5640	25.75	-0.04	-0.750			
0.4339	27770.99	3.6270	3.6271	-1.6038	25.74	-0.05	-0.750			
0.4388	28083.53	3.6240	3.6238	-1.6207	25.72	-0.07	-0.750			
0.4437	28398.04	3.6210	3.6209	-1.6560	25.71	-0.08	-0.750			
0.4489	28727.87	3.6180	3.6177	-1.6814	25.71	-0.08	-0.750	0.408	0.524	
0.4540	29054.91	3.6150	3.6151	-1.7174	25.70	-0.09	-0.750			
0.4591	29382.83	3.6120	3.6120	-1.7340	25.69	-0.10	-0.750			
0.4643	29713.41	3.6090	3.6088	-1.7652	25.69	-0.10	-0.750			
0.4696	30056.95	3.6060	3.6060	-1.8224	25.69	-0.10	-0.750			
0.4752	30413.96	3.6030	3.6029	-1.8586	25.68	-0.11	-0.750			
0.4808	30769.42	3.6000	3.6003	-1.9063	25.68	-0.11	-0.750			
0.4866	31140.75	3.5970	3.5972	-1.9604	25.67	-0.12	-0.750			
0.4925	31518.55	3.5940	3.5937	-2.0100	25.66	-0.13	-0.750			
0.4987	31915.36	3.5910	3.5911	-2.0520	25.66	-0.13	-0.750			
0.5050	32322.01	3.5880	3.5879	-2.0935	25.66	-0.13	-0.750			
0.5114	32727.25	3.5850	3.5851	-2.1240	25.65	-0.14	-0.750			
0.5177	33134.52	3.5820	3.5821	-2.1330	25.65	-0.14	-0.750			
0.5242	33549.23	3.5790	3.5787	-2.1556	25.64	-0.15	-0.750			
0.5306	33960.06	3.5760	3.5760	-2.1813	25.64	-0.15	-0.750			
0.5373	34385.38	3.5730	3.5731	-2.2058	25.65	-0.14	-0.750			
0.5440	34817.41	3.5700	3.5700	-2.2368	25.65	-0.14	-0.750			
0.5507	35242.71	3.5670	3.5669	-2.2397	25.65	-0.14	-0.750			
0.5574	35672.63	3.5640	3.5640	-2.2612	25.65	-0.14	-0.750			
0.5643	36113.62	3.5610	3.5611	-2.2785	25.65	-0.14	-0.750			
0.5711	36548.45	3.5580	3.5579	-2.2798	25.65	-0.14	-0.750			
0.5780	36989.88	3.5550	3.5551	-2.2845	25.64	-0.15	-0.750			
0.5850	37438.44	3.5520	3.5520	-2.2674	25.65	-0.14	-0.750			
0.5918	37873.90	3.5490	3.5490	-2.2613	25.65	-0.14	-0.750			
0.5984	38299.08	3.5460	3.5460	-2.2320	25.66	-0.13	-0.750			
0.6051	38728.52	3.5430	3.5427	-2.2120	25.66	-0.13	-0.750			
0.6118	39153.48	3.5400	3.5402	-2.1978	25.67	-0.12	-0.750			
0.6183	39568.33	3.5370	3.5370	-2.1755	25.68	-0.11	-0.750			
0.6248	39990.34	3.5340	3.5338	-2.1385	25.69	-0.10	-0.750			
0.6312	40399.74	3.5310	3.5312	-2.0952	25.69	-0.10	-0.750			
0.6375	40799.90	3.5280	3.5281	-2.0607	25.70	-0.09	-0.750			
0.6436	41187.23	3.5250	3.5247	-2.0118	25.71	-0.08	-0.750			
0.6495	41569.06	3.5220	3.5218	-1.9601	25.71	-0.08	-0.750			
0.6554	41946.87	3.5190	3.5188	-1.9150	25.73	-0.06	-0.750			
0.6611	42310.23	3.5160	3.5159	-1.8702	25.75	-0.04	-0.750			
0.6667	42665.60	3.5130	3.5131	-1.8132	25.76	-0.03	-0.750			
0.6720	43010.84	3.5100	3.5100	-1.7535	25.78	-0.01	-0.750			
0.6772	43341.70	3.5070	3.5074	-1.6914	25.79	-0.00	-0.750			
0.6822	43663.17	3.5040	3.5040	-1.6289	25.80	0.01	-0.750			
0.6871	43971.66	3.5010	3.5010	-1.5903	25.81	0.02	-0.750			
0.6917	44269.88	3.4980	3.4978	-1.5357	25.83	0.04	-0.750			
0.6962	44556.25	3.4950	3.4951	-1.4764	25.84	0.05	-0.750			
0.7006	44835.62	3.4920	3.4921	-1.4418	25.86	0.07	-0.750			
0.7049	45110.70	3.4890	3.4890	-1.3953	25.88	0.09	-0.750			
0.7090	45378.45	3.4860	3.4859	-1.3533	25.90	0.11	-0.750			
0.7130	45631.26	3.4830	3.4827	-1.2995	25.92	0.13	-0.750			
0.7168	45873.22	3.4800	3.4801	-1.2570	25.94	0.15	-0.750			
0.7205	46110.56	3.4770	3.4770	-1.2172	25.95	0.16	-0.750			
0.7240	46339.00	3.4740	3.4738	-1.1778	25.97	0.18	-0.750			
0.7274	46555.93	3.4710	3.4711	-1.1302	25.98	0.19	-0.750			
0.7309	46777.43	3.4680	3.4680	-1.1045	26.00	0.21	-0.750			
0.7342	46986.56	3.4650	3.4649	-1.0733	26.01	0.22	-0.750			
0.7373	47189.46	3.4620	3.4620	-1.0365	26.03	0.24	-0.750			
0.7403	47381.12	3.4590	3.4592	-0.9994	26.04	0.25	-0.750			
0.7433	47569.29	3.4560	3.4560	-0.9729	26.05	0.26	-0.750			
0.7461	47753.58	3.4530	3.4530	-0.9440	26.06	0.27	-0.750			
0.7489	47930.73	3.4500	3.4499	-0.9185	26.07	0.28	-0.750			
0.7517	48106.15	3.4470	3.4470	-0.9057	26.09	0.30	-0.750			
0.7543	48274.31	3.4440	3.4440	-0.8844	26.10	0.31	-0.750			
0.7569	48440.27	3.4410	3.4410	-0.8841	26.11	0.32	-0.750			
0.7595	48607.83	3.4380	3.4380	-0.8901	26.12	0.33	-0.750			
0.7621	48776.39	3.4350	3.4350	-0.9026	26.14	0.35	-0.750			
0.7649	48951.92	3.4320	3.4320	-0.9253	26.15	0.36	-0.750			
0.7677	49131.70	3.4290	3.4290	-0.9479	26.16	0.37	-0.750			
0.7706	49316.24	3.4260	3.4260	-0.9713	26.17	0.38	-0.750			
0.7736	49507.36	3.4230	3.4229	-0.9876	26.18	0.39	-0.750			
0.7765	49699.09	3.4200	3.4199	-0.9986	26.19	0.40	-0.750			
0.7796	49892.63	3.4170	3.4169	-1.0148	26.19	0.40	-0.750			
0.7827	50090.08	3.4140	3.4140	-1.0133	26.20	0.41	-0.750			
0.7857	50287.33	3.4110	3.4109	-1.0066	26.21	0.42	-0.750			
0.7888	50483.45	3.4080	3.4080	-0.9693	26.22	0.43	-0.750			
0.7917	50670.85	3.4050	3.4050	-0.9461	26.22	0.43	-0.750			
0.7945	50848.58	3.4020	3.4021	-0.9189	26.23	0.44	-0.750			
0.7972	51020.63	3.3990	3.3988	-0.8900	26.24	0.45	-0.750			
0.7997	51183.47	3.3960	3.3959	-0.8580	26.25	0.46	-0.750			
0.8023	51347.40	3.3930	3.3929	-0.8401	26.26	0.47	-0.750			
0.8048	51508.10	3.3900	3.3900	-0.8193	26.27	0.48	-0.750			
0.8073	51665.75	3.3870	3.3870	-0.7995	26.27	0.48	-0.750			
0.8096	51815.61	3.3840	3.3840	-0.7635	26.28	0.49	-0.750			
0.8119	51959.80	3.3810	3.3810	-0.7325	26.29	0.50	-0.750			
0.8140	52098.12	3.3780	3.3779	-0.7037	26.30	0.51	-0.750			
0.8161	52230.37	3.3750	3.3750	-0.6755	26.30	0.51	-0.750			
0.8181	52356.24	3.3720	3.3719	-0.6502	26.31	0.52	-0.750			
0.8200	52478.03	3.3690	3.3690	-0.6246	26.32	0.53	-0.750			
0.8218	52594.19	3.3660	3.3660	-0.6026	26.33	0.54	-0.750			
0.8236	52709.37	3.3630	3.3631	-0.5831	26.33	0.54	-0.750			
0.8253	52819.65	3.3600	3.3599	-0.5603	26.34	0.55	-0.750			
0.8269	52924.60	3.3570	3.3568	-0.5359	26.35	0.56	-0.750			
0.8285	53024.84	3.3540	3.3541	-0.5160	26.35	0.56	-0.750			
0.8300	53121.29	3.3510	3.3510	-0.4952	26.36	0.57	-0.750			
0.8315	53214.36	3.3480	3.3479	-0.4778	26.37	0.58	-0.750			
0.8329	53302.91	3.3450	3.3451	-0.4575	26.37	0.58	-0.750			
0.8342	53390.11	3.3420	3.3419	-0.4470	26.38	0.59	-0.750			
0.8355	53474.69	3.3390	3.3390	-0.4352	26.38	0.59	-0.750			
0.8368	53557.23	3.3360	3.3359	-0.4209	26.39	0.60	-0.750			
0.8381	53636.30	3.3330	3.3330	-0.4046	26.39	0.60	-0.750			
0.8393	53713.66	3.3300	3.3301	-0.3912	26.40	0.61	-0.750			
0.8404	53786.92	3.3270	3.3272	-0.3751	26.40	0.61	-0.750			
0.8415	53857.24	3.3240	3.3239	-0.3621	26.41	0.62	-0.750			
0.8426	53923.59	3.3210	3.3211	-0.3488	26.41	0.62	-0.750			
0.8436	53989.73	3.3180	3.3178	-0.3370	26.42	0.63	-0.750			
0.8446	54053.52	3.3150	3.3150	-0.3303	26.42	0.63	-0.750			
0.8456	54116.26	3.3120	3.3120	-0.3209	26.43	0.64	-0.750			
0.8465	54176.89	3.3090	3.3089	-0.3121	26.44	0.65	-0.750			
0.8474	54236.26	3.3060	3.3060	-0.3029	26.44	0.65	-0.750			
0.8483	54292.57	3.3030	3.3031	-0.2926	26.45	0.66	-0.750			
0.8492	54348.14	3.3000	3.2999	-0.2850	26.45	0.66	-0.750			
0.8500	54402.43	3.2970	3.2971	-0.2783	26.46	0.67	-0.750			
0.8508	54453.83	3.2940	3.2939	-0.2694	26.46	0.67	-0.750			
0.8516	54505.01	3.2910	3.2910	-0.2650	26.46	0.67	-0.750			
0.8524	54555.57	3.2880	3.2880	-0.2579	26.47	0.68	-0.750			
0.8532	54603.91	3.2850	3.2849	-0.2517	26.47	0.68	-0.750			
0.8539	54652.13	3.2820	3.2821	-0.2472	26.48	0.69	-0.750			
0.8547	54698.81	3.2790	3.2791	-0.2419	26.48	0.69	-0.750			
0.8554	54744.75	3.2760	3.2759	-0.2369	26.49	0.70	-0.750			
0.8561	54789.74	3.2730	3.2730	-0.2323	26.49	0.70	-0.750			
0.8568	54833.77	3.2700	3.2700	-0.2264	26.50	0.71	-0.750			
0.8574	54876.66	3.2670	3.2671	-0.2216	26.50	0.71	-0.750			
0.8581	54919.45	3.2640	3.2640	-0.2172	26.51	0.72	-0.750			
0.8588	54960.09	3.2610	3.2611	-0.2127	26.51	0.72	-0.750			
0.8594	55000.26	3.2580	3.2579	-0.2089	26.52	0.73	-0.750			
0.8600	55039.41	3.2550	3.2551	-0.2057	26.52	0.73	-0.750			
0.8606	55078.71	3.2520	3.2519	-0.2037	26.53	0.74	-0.750			
0.8612	55117.67	3.2490	3.2491	-0.1996	26.53	0.74	-0.750			
0.8618	55156.25	3.2460	3.2459	-0.1967	26.54	0.75	-0.750			
0.8624	55193.35	3.2430	3.2432	-0.1936	26.54	0.75	-0.750			
0.8630	55230.21	3.2400	3.2400	-0.1903	26.54	0.75	-0.750			
0.8635	55266.43	3.2370	3.2370	-0.1866	26.55	0.76	-0.750			
0.8641	55301.40	3.2340	3.2339	-0.1844	26.55	0.76	-0.750			
0.8646	55336.29	3.2310	3.2310	-0.1812	26.56	0.77	-0.750			
0.8652	55370.97	3.2280	3.2284	-0.1800	26.56	0.77	-0.750			
0.8657	55405.88	3.2250	3.2248	-0.1781	26.56	0.77	-0.750			
0.8663	55440.20	3.2220	3.2220	-0.1749	26.57	0.78	-0.750			
0.8668	55472.92	3.2190	3.2191	-0.1725	26.57	0.78	-0.750			
0.8673	55505.83	3.2160	3.2161	-0.1703	26.58	0.79	-0.750			
0.8678	55538.34	3.2130	3.2130	-0.1692	26.58	0.79	-0.750			
0.8683	55570.36	3.2100	3.2098	-0.1656	26.59	0.80	-0.750			
0.8688	55601.98	3.2070	3.2069	-0.1646	26.59	0.80	-0.750			
0.8693	55633.45	3.2040	3.2042	-0.1632	26.60	0.81	-0.750			
0.8698	55664.70	3.2010	3.2011	-0.1621	26.60	0.81	-0.750			
0.8702	55695.88	3.1980	3.1979	-0.1613	26.61	0.82	-0.750			
0.8707	55726.07	3.1950	3.1950	-0.1587	26.61	0.82	-0.750			
0.8712	55756.66	3.1920	3.1919	-0.1573	26.62	0.83	-0.750			
0.8717	55787.13	3.1890	3.1890	-0.1551	26.62	0.83	-0.750			
0.8721	55817.19	3.1860	3.1861	-0.1539	26.62	0.83	-0.750			
0.8726	55846.44	3.1830	3.1830	-0.1507	26.63	0.84	-0.750			
0.8730	55874.64	3.1800	3.1799	-0.1496	26.63	0.84	-0.750			
0.8735	55902.95	3.1770	3.1769	-0.1479	26.64	0.85	-0.750			
0.8739	55930.85	3.1740	3.1740	-0.1467	26.64	0.85	-0.750			
0.8744	55959.02	3.1710	3.1709	-0.1467	26.64	0.85	-0.750			
0.8748	55987.44	3.1680	3.1681	-0.1450	26.65	0.86	-0.750			
0.8752	56015.66	3.1650	3.1650	-0.1443	26.65	0.86	-0.750			
0.8757	56043.35	3.1620	3.1619	-0.1427	26.66	0.87	-0.750			
0.8761	56070.39	3.1590	3.1592	-0.1412	26.66	0.87	-0.750			
0.8765	56097.14	3.1560	3.1560	-0.1392	26.67	0.88	-0.750			
0.8769	56123.83	3.1530	3.1529	-0.1378	26.67	0.88	-0.750			
0.8773	56150.08	3.1500	3.1499	-0.1366	26.68	0.89	-0.750			
0.8777	56175.75	3.1470	3.1471	-0.1354	26.68	0.89	-0.750			
0.8782	56201.76	3.1440	3.1440	-0.1353	26.69	0.90	-0.750			
0.8786	56227.69	3.1410	3.1409	-0.1348	26.69	0.90	-0.750			
0.8790	56253.47	3.1380	3.1380	-0.1333	26.70	0.91	-0.750			
0.8794	56278.97	3.1350	3.1350	-0.1325	26.70	0.91	-0.750			
0.8798	56304.59	3.1320	3.1320	-0.1320	26.71	0.92	-0.750			
0.8802	56329.80	3.1290	3.1291	-0.1306	26.71	0.92	-0.750			
0.8805	56354.81	3.1260	3.1259	-0.1294	26.72	0.93	-0.750			
0.8809	56379.41	3.1230	3.1231	-0.1278	26.72	0.93	-0.750			
0.8813	56403.70	3.1200	3.1201	-0.1264	26.73	0.94	-0.750			
0.8817	56427.73	3.1170	3.1170	-0.1259	26.73	0.94	-0.750			
0.8821	56451.90	3.1140	3.1140	-0.1253	26.74	0.95	-0.750			
0.8824	56475.91	3.1110	3.1110	-0.1237	26.74	0.95	-0.750			
0.8828	56499.57	3.1080	3.1080	-0.1227	26.75	0.96	-0.750			
0.8832	56523.03	3.1050	3.1051	-0.1223	26.75	0.96	-0.750			
0.8835	56546.43	3.1020	3.1021	-0.1215	26.76	0.97	-0.750			
0.8839	56569.66	3.0990	3.0989	-0.1212	26.76	0.97	-0.750			
0.8843	56592.74	3.0960	3.0959	-0.1206	26.77	0.98	-0.750			
0.8846	56615.87	3.0930	3.0929	-0.1203	26.77	0.98	-0.750			
0.8850	56639.06	3.0900	3.0900	-0.1188	26.78	0.99	-0.750			
0.8853	56661.80	3.0870	3.0870	-0.1181	26.78	0.99	-0.750			
0.8857	56684.79	3.0840	3.0840	-0.1179	26.79	1.00	-0.750			
0.8861	56707.26	3.0810	3.0811	-0.1165	26.79	1.00	-0.750			
0.8864	56729.31	3.0780	3.0780	-0.1158	26.79	1.00	-0.750			
0.8867	56751.30	3.0750	3.0750	-0.1147	26.80	1.01	-0.750			
0.8871	56773.32	3.0720	3.0719	-0.1140	26.80	1.01	-0.750			
0.8874	56794.91	3.0690	3.0690	-0.1130	26.81	1.02	-0.750			
0.8878	56816.76	3.0660	3.0660	-0.1122	26.81	1.02	-0.750			
0.8881	56838.59	3.0630	3.0631	-0.1121	26.82	1.03	-0.750			
0.8884	56860.00	3.0600	3.0598	-0.1108	26.82	1.03	-0.750			
0.8888	56880.90	3.0570	3.0571	-0.1105	26.82	1.03	-0.750			
0.8891	56902.12	3.0540	3.0539	-0.1100	26.83	1.04	-0.750			
0.8894	56923.04	3.0510	3.0510	-0.1092	26.83	1.04	-0.750			
0.8898	56944.10	3.0480	3.0478	-0.1086	26.83	1.04	-0.750			
0.8901	56965.01	3.0450	3.0451	-0.1082	26.84	1.05	-0.750			
0.8904	56985.73	3.0420	3.0420	-0.1075	26.84	1.05	-0.750			
0.8907	57006.48	3.0390	3.0389	-0.1070	26.85	1.06	-0.750			
0.8910	57026.93	3.0360	3.0360	-0.1060	26.85	1.06	-0.750			
0.8914	57046.91	3.0330	3.0330	-0.1051	26.85	1.06	-0.750			
0.8917	57067.05	3.0300	3.0300	-0.1047	26.86	1.07	-0.750			
0.8920	57087.26	3.0270	3.0270	-0.1037	26.86	1.07	-0.750			
0.8923	57107.09	3.0240	3.0240	-0.1028	26.87	1.08	-0.750			
0.8926	57126.63	3.0210	3.0211	-0.1026	26.87	1.08	-0.750			
0.8929	57146.30	3.0180	3.0180	-0.1022	26.87	1.08	-0.750			
0.8932	57165.85	3.0150	3.0149	-0.1013	26.88	1.09	-0.750			
0.8935	57185.24	3.0120	3.0119	-0.1007	26.88	1.09	-0.750			
0.8938	57204.42	3.0090	3.0092	-0.1003	26.88	1.09	-0.751			
0.8941	57223.65	3.0060	3.0059	-0.1000	26.89	1.10	-0.751			
0.8944	57242.78	3.0030	3.0029	-0.0953	26.89	1.10	-0.751			
