Ah_balance (normalized)	Ah_balance (mAh)	Voltage - fit (V)	Voltage -  interpolate (V)	dQ/dV (1/V)	Temperature (°C)	Temperature - diff (°C)	Current (C)	R_DC 0ms (mOhm)	R_DC 50ms (mOhm)	R_DC 50 ms PEC (mOhm)
0.0003	16.91	4.1650	4.1647	-0.1153	25.88	0.01	-0.750			
0.0007	43.87	4.1620	4.1620	-0.1640	25.88	0.01	-0.750			
0.0013	80.57	4.1590	4.1591	-0.2105	25.88	0.01	-0.750			
0.0020	125.55	4.1560	4.1559	-0.2543	25.88	0.01	-0.750			
0.0028	179.25	4.1530	4.1531	-0.2935	25.88	0.01	-0.750			
0.0038	240.26	4.1500	4.1500	-0.3351	25.88	0.01	-0.750			
0.0048	309.20	4.1470	4.1470	-0.3728	25.88	0.01	-0.750			
0.0060	384.21	4.1440	4.1440	-0.4077	25.87	0.00	-0.750			
0.0073	466.32	4.1410	4.1409	-0.4408	25.87	0.00	-0.750			
0.0087	554.75	4.1380	4.1380	-0.4714	25.87	-0.00	-0.750			
0.0101	649.42	4.1350	4.1350	-0.4989	25.87	-0.00	-0.750			
0.0117	748.60	4.1320	4.1320	-0.5227	25.86	-0.01	-0.750			
0.0133	851.09	4.1290	4.1290	-0.5454	25.86	-0.01	-0.750			
0.0150	958.74	4.1260	4.1260	-0.5653	25.86	-0.01	-0.750			
0.0167	1069.37	4.1230	4.1230	-0.5825	25.86	-0.01	-0.750			
0.0185	1183.46	4.1200	4.1200	-0.5990	25.85	-0.02	-0.750			
0.0203	1301.22	4.1170	4.1171	-0.6138	25.85	-0.02	-0.750			
0.0222	1420.37	4.1140	4.1140	-0.6268	25.84	-0.03	-0.750			
0.0241	1542.20	4.1110	4.1111	-0.6393	25.84	-0.03	-0.750			
0.0260	1665.72	4.1080	4.1079	-0.6483	25.83	-0.04	-0.750			
0.0280	1792.05	4.1050	4.1050	-0.6548	25.83	-0.04	-0.750			
0.0300	1920.81	4.1020	4.1020	-0.6577	25.82	-0.05	-0.750			
0.0320	2046.54	4.0990	4.0990	-0.6650	25.81	-0.06	-0.750			
0.0340	2174.70	4.0960	4.0961	-0.6729	25.81	-0.06	-0.750			
0.0360	2303.33	4.0930	4.0929	-0.6811	25.81	-0.06	-0.750			
0.0380	2433.49	4.0900	4.0901	-0.6910	25.81	-0.06	-0.750			
0.0401	2568.82	4.0870	4.0869	-0.6950	25.81	-0.06	-0.750			
0.0423	2704.15	4.0840	4.0840	-0.7025	25.81	-0.06	-0.750			
0.0444	2840.87	4.0810	4.0810	-0.7103	25.81	-0.06	-0.750			
0.0465	2975.39	4.0780	4.0780	-0.7109	25.81	-0.06	-0.750			
0.0486	3112.46	4.0750	4.0749	-0.7140	25.81	-0.06	-0.750			
0.0508	3250.53	4.0720	4.0720	-0.7210	25.81	-0.06	-0.750			
0.0530	3390.66	4.0690	4.0690	-0.7236	25.80	-0.07	-0.750			
0.0552	3532.03	4.0660	4.0659	-0.7222	25.80	-0.07	-0.750			
0.0573	3670.35	4.0630	4.0631	-0.7197	25.80	-0.07	-0.750			
0.0595	3806.80	4.0600	4.0600	-0.7228	25.80	-0.07	-0.750			
0.0616	3944.28	4.0570	4.0569	-0.7216	25.80	-0.07	-0.750			
0.0638	4082.89	4.0540	4.0539	-0.7259	25.80	-0.07	-0.750			
0.0660	4220.98	4.0510	4.0511	-0.7302	25.79	-0.08	-0.750			
0.0682	4365.91	4.0480	4.0480	-0.7363	25.79	-0.08	-0.750			
0.0704	4507.65	4.0450	4.0451	-0.7372	25.79	-0.08	-0.750			
0.0726	4648.23	4.0420	4.0420	-0.7369	25.79	-0.08	-0.750			
0.0748	4789.27	4.0390	4.0391	-0.7376	25.79	-0.08	-0.750			
0.0771	4933.03	4.0360	4.0359	-0.7465	25.80	-0.07	-0.750			
0.0793	5076.51	4.0330	4.0329	-0.7476	25.80	-0.07	-0.750			
0.0816	5221.16	4.0300	4.0299	-0.7493	25.80	-0.07	-0.750			
0.0838	5365.78	4.0270	4.0269	-0.7502	25.80	-0.07	-0.750			
0.0861	5510.13	4.0240	4.0239	-0.7502	25.80	-0.07	-0.750			
0.0883	5653.85	4.0210	4.0210	-0.7516	25.80	-0.07	-0.750			
0.0906	5795.59	4.0180	4.0180	-0.7462	25.80	-0.07	-0.750			
0.0929	5943.02	4.0150	4.0150	-0.7544	25.80	-0.07	-0.750			
0.0951	6087.14	4.0120	4.0121	-0.7533	25.80	-0.07	-0.750			
0.0974	6231.68	4.0090	4.0089	-0.7525	25.80	-0.07	-0.750			
0.0996	6375.74	4.0060	4.0060	-0.7534	25.80	-0.07	-0.750			
0.1019	6520.63	4.0030	4.0030	-0.7582	25.81	-0.06	-0.750			
0.1041	6665.31	4.0000	4.0000	-0.7633	25.81	-0.06	-0.750			
0.1065	6816.40	3.9970	3.9969	-0.7608	25.81	-0.06	-0.750			
0.1088	6962.78	3.9940	3.9941	-0.7537	25.81	-0.06	-0.750			
0.1110	7105.02	3.9910	3.9910	-0.7591	25.81	-0.06	-0.750			
0.1133	7250.03	3.9880	3.9882	-0.7616	25.81	-0.06	-0.750			
0.1155	7392.95	3.9850	3.9847	-0.7581	25.82	-0.05	-0.750			
0.1178	7539.43	3.9820	3.9819	-0.7690	25.82	-0.05	-0.750			
0.1201	7687.35	3.9790	3.9791	-0.7793	25.82	-0.05	-0.750			
0.1225	7842.38	3.9760	3.9760	-0.7854	25.82	-0.05	-0.750			
0.1249	7994.96	3.9730	3.9729	-0.7888	25.82	-0.05	-0.750			
0.1273	8144.23	3.9700	3.9701	-0.7868	25.83	-0.04	-0.750			
0.1296	8294.71	3.9670	3.9669	-0.7896	25.83	-0.04	-0.750			
0.1320	8448.68	3.9640	3.9639	-0.7944	25.83	-0.04	-0.750			
0.1344	8600.70	3.9610	3.9610	-0.7928	25.83	-0.04	-0.750			
0.1368	8752.06	3.9580	3.9580	-0.7984	25.84	-0.03	-0.750			
0.1392	8907.37	3.9550	3.9550	-0.8027	25.84	-0.03	-0.750			
0.1416	9061.29	3.9520	3.9519	-0.8001	25.84	-0.03	-0.750			
0.1440	9214.95	3.9490	3.9490	-0.8020	25.85	-0.02	-0.750			
0.1464	9369.89	3.9460	3.9461	-0.8019	25.85	-0.02	-0.750			
0.1488	9522.47	3.9430	3.9430	-0.8087	25.85	-0.02	-0.750			
0.1512	9677.87	3.9400	3.9400	-0.8103	25.85	-0.02	-0.750			
0.1537	9833.82	3.9370	3.9370	-0.8058	25.85	-0.02	-0.750			
0.1561	9989.55	3.9340	3.9339	-0.8083	25.85	-0.02	-0.750			
0.1585	10145.74	3.9310	3.9312	-0.8117	25.85	-0.02	-0.750			
0.1609	10300.47	3.9280	3.9279	-0.8124	25.86	-0.01	-0.750			
0.1634	10456.32	3.9250	3.9249	-0.8134	25.86	-0.01	-0.750			
0.1658	10611.47	3.9220	3.9220	-0.8139	25.87	-0.00	-0.750			
0.1683	10769.22	3.9190	3.9190	-0.8203	25.87	0.00	-0.750			
0.1707	10927.97	3.9160	3.9160	-0.8232	25.88	0.01	-0.750			
0.1732	11086.10	3.9130	3.9130	-0.8232	25.88	0.01	-0.750			
0.1757	11244.15	3.9100	3.9100	-0.8274	25.88	0.01	-0.750			
0.1782	11403.18	3.9070	3.9071	-0.8286	25.89	0.02	-0.750			
0.1807	11563.46	3.9040	3.9039	-0.8301	25.89	0.02	-0.750			
0.1832	11722.41	3.9010	3.9012	-0.8312	25.89	0.02	-0.750			
0.1857	11882.19	3.8980	3.8980	-0.8321	25.89	0.02	-0.750			
0.1882	12041.72	3.8950	3.8950	-0.8348	25.90	0.03	-0.750			
0.1907	12203.25	3.8920	3.8920	-0.8330	25.90	0.03	-0.750			
0.1932	12364.04	3.8890	3.8890	-0.8353	25.91	0.04	-0.750			
0.1957	12523.45	3.8860	3.8862	-0.8352	25.91	0.04	-0.750			
0.1982	12684.07	3.8830	3.8830	-0.8357	25.91	0.04	-0.750			
0.2007	12843.19	3.8800	3.8799	-0.8384	25.92	0.05	-0.750			
0.2032	13003.81	3.8770	3.8770	-0.8401	25.92	0.05	-0.750			
0.2057	13166.80	3.8740	3.8740	-0.8451	25.93	0.06	-0.750			
0.2083	13329.82	3.8710	3.8710	-0.8455	25.93	0.06	-0.750			
0.2108	13492.90	3.8680	3.8680	-0.8452	25.93	0.06	-0.750			
0.2134	13655.53	3.8650	3.8650	-0.8467	25.93	0.06	-0.750			
0.2159	13817.11	3.8620	3.8620	-0.8472	25.94	0.07	-0.750			
0.2184	13979.59	3.8590	3.8590	-0.8466	25.94	0.07	-0.750			
0.2210	14142.75	3.8560	3.8561	-0.8476	25.94	0.07	-0.750			
0.2235	14305.95	3.8530	3.8530	-0.8500	25.94	0.07	-0.750			
0.2261	14470.72	3.8500	3.8500	-0.8531	25.94	0.07	-0.750			
0.2287	14635.10	3.8470	3.8470	-0.8494	25.95	0.08	-0.750			
0.2312	14799.18	3.8440	3.8439	-0.8505	25.95	0.08	-0.750			
0.2338	14960.96	3.8410	3.8412	-0.8464	25.95	0.08	-0.750			
0.2363	15121.96	3.8380	3.8379	-0.8500	25.96	0.09	-0.750			
0.2388	15284.39	3.8350	3.8349	-0.8506	25.96	0.09	-0.750			
0.2413	15445.62	3.8320	3.8320	-0.8484	25.96	0.09	-0.750			
0.2439	15612.62	3.8290	3.8290	-0.8571	25.97	0.10	-0.750			
0.2465	15779.07	3.8260	3.8260	-0.8591	25.97	0.10	-0.750			
0.2491	15943.11	3.8230	3.8230	-0.8590	25.98	0.11	-0.750			
0.2517	16107.31	3.8200	3.8200	-0.8544	25.98	0.11	-0.750			
0.2542	16270.30	3.8170	3.8170	-0.8514	25.98	0.11	-0.750			
0.2568	16434.82	3.8140	3.8140	-0.8548	25.99	0.12	-0.750			
0.2594	16599.18	3.8110	3.8109	-0.8536	25.99	0.12	-0.750			
0.2619	16763.04	3.8080	3.8080	-0.8560	26.00	0.13	-0.750			
0.2645	16927.63	3.8050	3.8049	-0.8550	26.00	0.13	-0.750			
0.2671	17092.46	3.8020	3.8020	-0.8492	26.00	0.13	-0.750			
0.2696	17256.97	3.7990	3.7989	-0.8448	26.01	0.14	-0.750			
0.2722	17418.27	3.7960	3.7959	-0.8409	26.01	0.14	-0.750			
0.2747	17578.44	3.7930	3.7930	-0.8393	26.02	0.15	-0.750			
0.2771	17737.26	3.7900	3.7900	-0.8375	26.02	0.15	-0.750			
0.2796	17896.73	3.7870	3.7870	-0.8346	26.02	0.15	-0.750			
0.2822	18060.08	3.7840	3.7840	-0.8392	26.03	0.16	-0.750			
0.2847	18221.93	3.7810	3.7809	-0.8370	26.03	0.16	-0.750			
0.2872	18383.72	3.7780	3.7780	-0.8373	26.03	0.16	-0.750			
0.2897	18542.55	3.7750	3.7750	-0.8331	26.04	0.17	-0.750			
0.2922	18701.83	3.7720	3.7719	-0.8259	26.04	0.17	-0.750			
0.2947	18860.40	3.7690	3.7691	-0.8256	26.04	0.17	-0.750			
0.2972	19018.89	3.7660	3.7659	-0.8282	26.04	0.17	-0.750			
0.2997	19178.90	3.7630	3.7629	-0.8306	26.04	0.17	-0.750			
0.3022	19338.94	3.7600	3.7599	-0.8273	26.05	0.18	-0.750			
0.3046	19496.27	3.7570	3.7571	-0.8235	26.05	0.18	-0.750			
0.3071	19655.64	3.7540	3.7540	-0.8264	26.05	0.18	-0.750			
0.3096	19815.24	3.7510	3.7509	-0.8259	26.05	0.18	-0.750			
0.3120	19970.91	3.7480	3.7480	-0.8270	26.06	0.19	-0.750			
0.3145	20130.04	3.7450	3.7450	-0.8299	26.06	0.19	-0.750			
0.3170	20290.41	3.7420	3.7420	-0.8325	26.06	0.19	-0.750			
0.3196	20452.22	3.7390	3.7390	-0.8397	26.07	0.20	-0.750			
0.3221	20612.87	3.7360	3.7360	-0.8411	26.07	0.20	-0.750			
0.3246	20772.95	3.7330	3.7329	-0.8515	26.08	0.21	-0.750			
0.3272	20937.74	3.7300	3.7300	-0.8619	26.08	0.21	-0.750			
0.3298	21104.50	3.7270	3.7269	-0.8653	26.08	0.21	-0.750			
0.3324	21273.74	3.7240	3.7239	-0.8798	26.09	0.22	-0.750			
0.3350	21441.91	3.7210	3.7210	-0.8932	26.09	0.22	-0.750			
0.3377	21613.13	3.7180	3.7180	-0.9019	26.09	0.22	-0.750			
0.3404	21786.61	3.7150	3.7149	-0.9145	26.09	0.22	-0.750			
0.3431	21961.04	3.7120	3.7120	-0.9281	26.09	0.22	-0.750			
0.3460	22144.09	3.7090	3.7092	-0.9493	26.09	0.22	-0.750			
0.3489	22328.13	3.7060	3.7061	-0.9684	26.09	0.22	-0.750			
0.3518	22515.26	3.7030	3.7030	-0.9825	26.10	0.23	-0.750			
0.3548	22705.60	3.7000	3.6999	-0.9967	26.10	0.23	-0.750			
0.3578	22899.09	3.6970	3.6970	-1.0134	26.10	0.23	-0.750			
0.3609	23094.59	3.6940	3.6940	-1.0395	26.10	0.23	-0.750			
0.3640	23296.17	3.6910	3.6909	-1.0586	26.10	0.23	-0.750			
0.3672	23501.14	3.6880	3.6879	-1.0822	26.09	0.22	-0.750			
0.3705	23708.84	3.6850	3.6853	-1.1119	26.09	0.22	-0.750			
0.3739	23927.68	3.6820	3.6819	-1.1328	26.09	0.22	-0.750			
0.3773	24148.31	3.6790	3.6789	-1.1525	26.08	0.21	-0.750			
0.3808	24371.61	3.6760	3.6759	-1.1692	26.08	0.21	-0.750			
0.3843	24597.74	3.6730	3.6730	-1.1966	26.08	0.21	-0.750			
0.3879	24828.37	3.6700	3.6700	-1.2169	26.07	0.20	-0.750			
0.3916	25061.52	3.6670	3.6670	-1.2404	26.07	0.20	-0.750			
0.3953	25301.08	3.6640	3.6641	-1.2725	26.06	0.19	-0.750			
0.3993	25554.14	3.6610	3.6610	-1.3097	26.06	0.19	-0.750			
0.4033	25808.91	3.6580	3.6580	-1.3388	26.05	0.18	-0.750			
0.4073	26068.72	3.6550	3.6552	-1.3760	26.05	0.18	-0.750			
0.4115	26336.55	3.6520	3.6518	-1.3976	26.04	0.17	-0.750			
0.4158	26608.61	3.6490	3.6490	-1.4259	26.03	0.16	-0.750			
0.4201	26884.84	3.6460	3.6463	-1.4549	26.02	0.15	-0.750			
0.4245	27164.95	3.6430	3.6429	-1.4864	26.02	0.15	-0.750			
0.4290	27458.62	3.6400	3.6399	-1.5154	26.01	0.14	-0.750			
0.4336	27748.71	3.6370	3.6371	-1.5634	26.01	0.14	-0.750			
0.4383	28053.41	3.6340	3.6341	-1.6061	26.00	0.13	-0.750			
0.4432	28367.58	3.6310	3.6308	-1.6427	25.99	0.12	-0.750			
0.4483	28688.65	3.6280	3.6279	-1.6651	25.98	0.11	-0.750			
0.4533	29011.54	3.6250	3.6250	-1.7050	25.97	0.10	-0.750			
0.4584	29339.42	3.6220	3.6222	-1.7288	25.97	0.10	-0.750	0.400	0.502	
0.4636	29671.65	3.6190	3.6190	-1.7488	25.96	0.09	-0.750			
0.4690	30014.10	3.6160	3.6160	-1.7730	25.95	0.08	-0.750			
0.4743	30353.51	3.6130	3.6131	-1.8171	25.94	0.07	-0.750			
0.4799	30716.49	3.6100	3.6098	-1.8315	25.93	0.06	-0.750			
0.4853	31060.07	3.6070	3.6072	-1.8761	25.93	0.06	-0.750			
0.4910	31423.64	3.6040	3.6041	-1.8872	25.92	0.05	-0.750			
0.4967	31787.63	3.6010	3.6010	-1.9496	25.91	0.04	-0.750			
0.5026	32165.22	3.5980	3.5981	-2.0055	25.91	0.04	-0.750			
0.5087	32558.00	3.5950	3.5951	-2.0774	25.91	0.04	-0.750			
0.5151	32964.44	3.5920	3.5923	-2.1345	25.90	0.03	-0.750			
0.5218	33393.01	3.5890	3.5891	-2.1720	25.90	0.03	-0.750			
0.5283	33808.71	3.5860	3.5859	-2.1884	25.89	0.02	-0.750			
0.5349	34234.48	3.5830	3.5830	-2.2117	25.89	0.02	-0.750			
0.5416	34662.29	3.5800	3.5801	-2.2325	25.89	0.02	-0.750			
0.5483	35090.72	3.5770	3.5768	-2.2444	25.89	0.02	-0.750			
0.5550	35520.14	3.5740	3.5739	-2.2525	25.88	0.01	-0.750			
0.5618	35953.89	3.5710	3.5711	-2.2809	25.88	0.01	-0.750			
0.5687	36399.38	3.5680	3.5680	-2.3111	25.87	0.00	-0.750			
0.5757	36843.09	3.5650	3.5648	-2.3031	25.87	0.00	-0.750			
0.5826	37285.46	3.5620	3.5620	-2.3226	25.88	0.01	-0.750			
0.5897	37739.67	3.5590	3.5592	-2.3252	25.88	0.01	-0.750			
0.5967	38187.53	3.5560	3.5559	-2.3150	25.88	0.01	-0.750			
0.6036	38629.26	3.5530	3.5531	-2.3123	25.89	0.02	-0.750			
0.6105	39073.29	3.5500	3.5499	-2.3065	25.89	0.02	-0.750			
0.6175	39522.48	3.5470	3.5468	-2.3084	25.89	0.02	-0.750			
0.6244	39962.60	3.5440	3.5441	-2.2793	25.89	0.02	-0.750			
0.6313	40401.97	3.5410	3.5410	-2.2664	25.89	0.02	-0.750			
0.6381	40838.92	3.5380	3.5379	-2.2308	25.89	0.02	-0.750			
0.6447	41259.58	3.5350	3.5351	-2.1873	25.90	0.03	-0.750			
0.6512	41676.61	3.5320	3.5320	-2.1423	25.90	0.03	-0.750			
0.6576	42088.10	3.5290	3.5288	-2.0911	25.91	0.04	-0.750			
0.6638	42484.57	3.5260	3.5262	-2.0449	25.92	0.05	-0.750			
0.6699	42876.09	3.5230	3.5229	-2.0014	25.93	0.06	-0.750			
0.6759	43254.55	3.5200	3.5198	-1.9438	25.94	0.07	-0.750			
0.6816	43623.51	3.5170	3.5170	-1.8763	25.95	0.08	-0.750			
0.6872	43981.67	3.5140	3.5141	-1.8328	25.96	0.09	-0.750			
0.6927	44330.75	3.5110	3.5108	-1.7695	25.97	0.10	-0.750			
0.6978	44661.91	3.5080	3.5080	-1.7097	25.98	0.11	-0.750			
0.7028	44977.85	3.5050	3.5050	-1.6389	25.99	0.12	-0.750			
0.7076	45287.41	3.5020	3.5020	-1.5903	26.01	0.14	-0.750			
0.7124	45593.82	3.4990	3.4988	-1.5292	26.02	0.15	-0.750			
0.7169	45880.92	3.4960	3.4962	-1.4720	26.04	0.17	-0.750			
0.7212	46156.39	3.4930	3.4932	-1.4166	26.05	0.18	-0.750			
0.7254	46423.48	3.4900	3.4899	-1.3788	26.07	0.20	-0.750			
0.7294	46680.15	3.4870	3.4869	-1.3306	26.09	0.22	-0.750			
0.7333	46929.10	3.4840	3.4841	-1.2868	26.10	0.23	-0.750			
0.7371	47176.38	3.4810	3.4810	-1.2607	26.12	0.25	-0.750			
0.7409	47416.36	3.4780	3.4780	-1.2158	26.13	0.26	-0.750			
0.7444	47644.12	3.4750	3.4749	-1.1703	26.15	0.28	-0.750			
0.7479	47865.54	3.4720	3.4720	-1.1357	26.16	0.29	-0.750			
0.7512	48077.86	3.4690	3.4690	-1.0928	26.18	0.31	-0.750			
0.7544	48283.86	3.4660	3.4658	-1.0534	26.19	0.32	-0.750			
0.7575	48482.33	3.4630	3.4632	-1.0175	26.21	0.34	-0.750			
0.7605	48671.90	3.4600	3.4600	-0.9866	26.22	0.35	-0.750			
0.7634	48858.99	3.4570	3.4568	-0.9617	26.23	0.36	-0.750			
0.7663	49040.12	3.4540	3.4540	-0.9265	26.24	0.37	-0.750			
0.7689	49212.30	3.4510	3.4510	-0.9170	26.25	0.38	-0.750			
0.7717	49387.09	3.4480	3.4481	-0.9103	26.25	0.38	-0.750			
0.7744	49559.13	3.4450	3.4448	-0.9173	26.26	0.39	-0.750			
0.7770	49730.68	3.4420	3.4420	-0.9241	26.27	0.40	-0.750			
0.7798	49907.62	3.4390	3.4391	-0.9397	26.28	0.41	-0.750			
0.7827	50090.87	3.4360	3.4360	-0.9683	26.29	0.42	-0.750			
0.7856	50279.98	3.4330	3.4330	-1.0131	26.30	0.43	-0.750			
0.7887	50476.56	3.4300	3.4299	-1.0359	26.31	0.44	-0.750			
0.7919	50680.90	3.4270	3.4269	-1.0667	26.33	0.46	-0.750			
0.7951	50889.19	3.4240	3.4243	-1.0877	26.34	0.47	-0.750			
0.7985	51105.25	3.4210	3.4210	-1.1030	26.35	0.48	-0.750			
0.8019	51321.59	3.4180	3.4180	-1.0971	26.36	0.49	-0.750			
0.8052	51532.45	3.4150	3.4150	-1.0839	26.36	0.49	-0.750			
0.8085	51741.51	3.4120	3.4121	-1.0650	26.37	0.50	-0.750			
0.8116	51945.52	3.4090	3.4090	-1.0347	26.38	0.51	-0.750			
0.8147	52140.64	3.4060	3.4060	-1.0018	26.39	0.52	-0.750			
0.8177	52329.82	3.4030	3.4030	-0.9648	26.39	0.52	-0.750			
0.8205	52511.29	3.4000	3.4000	-0.9315	26.40	0.53	-0.750			
0.8232	52685.05	3.3970	3.3970	-0.9021	26.41	0.54	-0.750			
0.8258	52854.05	3.3940	3.3941	-0.8684	26.42	0.55	-0.750			
0.8284	53020.05	3.3910	3.3909	-0.8325	26.43	0.56	-0.750			
0.8309	53177.93	3.3880	3.3880	-0.8014	26.43	0.56	-0.750			
0.8332	53327.07	3.3850	3.3854	-0.7663	26.44	0.57	-0.750			
0.8355	53471.31	3.3820	3.3819	-0.7368	26.45	0.58	-0.750			
0.8376	53607.98	3.3790	3.3789	-0.7065	26.46	0.59	-0.750			
0.8397	53739.20	3.3760	3.3759	-0.6784	26.46	0.59	-0.750			
0.8417	53867.43	3.3730	3.3730	-0.6549	26.47	0.60	-0.750			
0.8436	53991.67	3.3700	3.3700	-0.6308	26.47	0.60	-0.750			
0.8455	54110.35	3.3670	3.3670	-0.6031	26.48	0.61	-0.750			
0.8473	54224.01	3.3640	3.3640	-0.5771	26.49	0.62	-0.750			
0.8489	54330.85	3.3610	3.3610	-0.5529	26.49	0.62	-0.750			
0.8505	54434.63	3.3580	3.3580	-0.5299	26.50	0.63	-0.750			
0.8521	54533.20	3.3550	3.3549	-0.5078	26.50	0.63	-0.750			
0.8536	54628.95	3.3520	3.3520	-0.4881	26.51	0.64	-0.750			
0.8550	54720.47	3.3490	3.3490	-0.4690	26.51	0.64	-0.750			
0.8564	54808.87	3.3460	3.3460	-0.4510	26.52	0.65	-0.750			
0.8577	54893.48	3.3430	3.3429	-0.4332	26.52	0.65	-0.750			
0.8590	54974.26	3.3400	3.3400	-0.4161	26.52	0.65	-0.750			
0.8602	55052.58	3.3370	3.3370	-0.4017	26.53	0.66	-0.750			
0.8614	55128.06	3.3340	3.3340	-0.3865	26.53	0.66	-0.750			
0.8625	55201.12	3.3310	3.3310	-0.3719	26.54	0.67	-0.750			
0.8636	55271.10	3.3280	3.3280	-0.3574	26.54	0.67	-0.750			
0.8647	55338.24	3.3250	3.3251	-0.3439	26.55	0.68	-0.750			
0.8657	55402.29	3.3220	3.3220	-0.3315	26.55	0.68	-0.750			
0.8666	55464.61	3.3190	3.3188	-0.3202	26.55	0.68	-0.750			
0.8676	55524.36	3.3160	3.3161	-0.3104	26.56	0.69	-0.750			
0.8685	55583.41	3.3130	3.3131	-0.3005	26.56	0.69	-0.750			
0.8694	55640.67	3.3100	3.3100	-0.2924	26.57	0.70	-0.750			
0.8702	55695.86	3.3070	3.3070	-0.2830	26.57	0.70	-0.750			
0.8711	55748.95	3.3040	3.3040	-0.2724	26.57	0.70	-0.750			
0.8719	55800.12	3.3010	3.3010	-0.2632	26.58	0.71	-0.750			
0.8727	55849.61	3.2980	3.2981	-0.2553	26.58	0.71	-0.750			
0.8734	55897.42	3.2950	3.2951	-0.2469	26.59	0.72	-0.750			
0.8741	55944.39	3.2920	3.2920	-0.2403	26.59	0.72	-0.750			
0.8748	55989.21	3.2890	3.2889	-0.2342	26.60	0.73	-0.750			
0.8755	56033.57	3.2860	3.2860	-0.2283	26.60	0.73	-0.750			
0.8762	56076.91	3.2830	3.2830	-0.2232	26.61	0.74	-0.750			
0.8769	56119.57	3.2800	3.2799	-0.2182	26.61	0.74	-0.750			
0.8775	56160.75	3.2770	3.2771	-0.2128	26.62	0.75	-0.750			
0.8781	56201.00	3.2740	3.2739	-0.2076	26.62	0.75	-0.750			
0.8788	56240.26	3.2710	3.2711	-0.2032	26.62	0.75	-0.750			
0.8794	56278.83	3.2680	3.2680	-0.1986	26.63	0.76	-0.750			
0.8799	56316.12	3.2650	3.2650	-0.1943	26.63	0.76	-0.750			
0.8805	56353.00	3.2620	3.2620	-0.1913	26.63	0.76	-0.750			
0.8811	56389.50	3.2590	3.2590	-0.1872	26.64	0.77	-0.750			
0.8816	56425.10	3.2560	3.2560	-0.1837	26.64	0.77	-0.750			
0.8822	56460.00	3.2530	3.2530	-0.1809	26.65	0.78	-0.750			
0.8827	56494.52	3.2500	3.2501	-0.1775	26.65	0.78	-0.750			
0.8832	56527.99	3.2470	3.2469	-0.1745	26.65	0.78	-0.750			
0.8838	56561.23	3.2440	3.2440	-0.1718	26.66	0.79	-0.750			
0.8843	56593.85	3.2410	3.2410	-0.1690	26.66	0.79	-0.750			
0.8848	56625.79	3.2380	3.2379	-0.1666	26.67	0.80	-0.750			
0.8853	56658.04	3.2350	3.2351	-0.1645	26.67	0.80	-0.750			
0.8858	56689.33	3.2320	3.2319	-0.1615	26.67	0.80	-0.750			
0.8862	56719.80	3.2290	3.2290	-0.1594	26.68	0.81	-0.750			
0.8867	56750.36	3.2260	3.2261	-0.1573	26.68	0.81	-0.750			
0.8872	56780.21	3.2230	3.2228	-0.1545	26.69	0.82	-0.750			
0.8877	56809.66	3.2200	3.2200	-0.1523	26.69	0.82	-0.750			
0.8881	56838.61	3.2170	3.2171	-0.1511	26.70	0.83	-0.750			
0.8886	56867.26	3.2140	3.2140	-0.1492	26.70	0.83	-0.750			
0.8890	56895.85	3.2110	3.2109	-0.1484	26.70	0.83	-0.750			
0.8894	56924.21	3.2080	3.2080	-0.1470	26.71	0.84	-0.750			
0.8899	56952.12	3.2050	3.2050	-0.1449	26.71	0.84	-0.750			
0.8903	56980.10	3.2020	3.2020	-0.1436	26.71	0.84	-0.750			
0.8907	57007.59	3.1990	3.1991	-0.1422	26.72	0.85	-0.750			
0.8912	57034.70	3.1960	3.1960	-0.1401	26.72	0.85	-0.750			
0.8916	57061.20	3.1930	3.1930	-0.1383	26.73	0.86	-0.750			
0.8920	57087.62	3.1900	3.1899	-0.1367	26.73	0.86	-0.750			
0.8924	57113.52	3.1870	3.1871	-0.1349	26.73	0.86	-0.750			
0.8928	57139.32	3.1840	3.1840	-0.1338	26.74	0.87	-0.750			
0.8932	57164.90	3.1810	3.1810	-0.1330	26.74	0.87	-0.750			
0.8936	57190.37	3.1780	3.1780	-0.1317	26.74	0.87	-0.750			
0.8940	57215.53	3.1750	3.1749	-0.1305	26.75	0.88	-0.750			
0.8944	57240.52	3.1720	3.1721	-0.1294	26.75	0.88	-0.750			
0.8948	57265.32	3.1690	3.1691	-0.1283	26.75	0.88	-0.750			
0.8952	57289.96	3.1660	3.1660	-0.1272	26.76	0.89	-0.750			
0.8955	57314.18	3.1630	3.1630	-0.1261	26.76	0.89	-0.750			
0.8959	57338.21	3.1600	3.1598	-0.1249	26.77	0.90	-0.750			
0.8963	57361.91	3.1570	3.1570	-0.1237	26.77	0.90	-0.750			
0.8966	57385.60	3.1540	3.1540	-0.1230	26.77	0.90	-0.750			
0.8970	57409.28	3.1510	3.1510	-0.1220	26.78	0.91	-0.750			
0.8974	57432.61	3.1480	3.1480	-0.1210	26.78	0.91	-0.750			
0.8977	57455.59	3.1450	3.1451	-0.1205	26.79	0.92	-0.750			
0.8981	57478.65	3.1420	3.1420	-0.1198	26.79	0.92	-0.750			
0.8985	57501.69	3.1390	3.1389	-0.1185	26.80	0.93	-0.750			
0.8988	57524.35	3.1360	3.1360	-0.1176	26.80	0.93	-0.750			
0.8992	57546.80	3.1330	3.1331	-0.1169	26.80	0.93	-0.750			
0.8995	57569.17	3.1300	3.1301	-0.1161	26.81	0.94	-0.750			
0.8999	57591.42	3.1270	3.1269	-0.1155	26.81	0.94	-0.750			
0.9002	57613.50	3.1240	3.1240	-0.1146	26.82	0.95	-0.750			
0.9005	57635.18	3.1210	3.1210	-0.1136	26.82	0.95	-0.750			
0.9009	57656.95	3.1180	3.1181	-0.1132	26.83	0.96	-0.750			
0.9012	57678.82	3.1150	3.1150	-0.1130	26.83	0.96	-0.750			
0.9016	57700.45	3.1120	3.1120	-0.1123	26.83	0.96	-0.750			
0.9019	57721.94	3.1090	3.1090	-0.1113	26.84	0.97	-0.750			
0.9022	57743.24	3.1060	3.1060	-0.1106	26.84	0.97	-0.750			
0.9026	57764.55	3.1030	3.1031	-0.1097	26.85	0.98	-0.750			
0.9029	57785.46	3.1000	3.0999	-0.1087	26.85	0.98	-0.750			
0.9032	57806.24	3.0970	3.0969	-0.1076	26.85	0.98	-0.750			
0.9035	57826.67	3.0940	3.0941	-0.1069	26.86	0.99	-0.750			
0.9039	57846.97	3.0910	3.0910	-0.1058	26.86	0.99	-0.750			
0.9042	57867.23	3.0880	3.0879	-0.1053	26.87	1.00	-0.750			
0.9045	57887.32	3.0850	3.0850	-0.1047	26.87	1.00	-0.750			
0.9048	57907.39	3.0820	3.0819	-0.1043	26.88	1.01	-0.750			
0.9051	57927.46	3.0790	3.0791	-0.1038	26.88	1.01	-0.750			
0.9054	57947.33	3.0760	3.0759	-0.1032	26.88	1.01	-0.750			
0.9057	57967.15	3.0730	3.0729	-0.1027	26.89	1.02	-0.750			
0.9060	57986.81	3.0700	3.0701	-0.1020	26.89	1.02	-0.750			
0.9063	58006.24	3.0670	3.0670	-0.1015	26.90	1.03	-0.750			
0.9067	58025.69	3.0640	3.0640	-0.1011	26.90	1.03	-0.750			
0.9070	58045.02	3.0610	3.0611	-0.1005	26.91	1.04	-0.750			
0.9073	58064.28	3.0580	3.0579	-0.1001	26.91	1.04	-0.750			
0.9076	58083.59	3.0550	3.0551	-0.0995	26.91	1.04	-0.750			
0.9079	58102.62	3.0520	3.0519	-0.0988	26.92	1.05	-0.750			
0.9081	58121.53	3.0490	3.0490	-0.0983	26.92	1.05	-0.750			
0.9084	58140.33	3.0460	3.0460	-0.0976	26.93	1.06	-0.750			
0.9087	58158.87	3.0430	3.0429	-0.0971	26.93	1.06	-0.750			
0.9090	58177.48	3.0400	3.0400	-0.0967	26.94	1.07	-0.750			
0.9093	58195.97	3.0370	3.0369	-0.0962	26.94	1.07	-0.750			
0.9096	58214.41	3.0340	3.0340	-0.0959	26.94	1.07	-0.750			
0.9099	58232.95	3.0310	3.0311	-0.0956	26.95	1.08	-0.750			
0.9102	58251.24	3.0280	3.0280	-0.0949	26.95	1.08	-0.750			
0.9105	58269.43	3.0250	3.0250	-0.0944	26.96	1.09	-0.750			
0.9107	58287.49	3.0220	3.0220	-0.0937	26.96	1.09	-0.750			
0.9110	58305.46	3.0190	3.0190	-0.0929	26.96	1.09	-0.750			
0.9113	58323.22	3.0160	3.0160	-0.0921	26.97	1.10	-0.750			
0.9116	58340.84	3.0130	3.0129	-0.0913	26.97	1.10	-0.750			
0.9118	58358.28	3.0100	3.0101	-0.0904	26.98	1.11	-0.750			
0.9121	58375.55	3.0070	3.0071	-0.0895	26.98	1.11	-0.751			
0.9124	58392.69	3.0040	3.0040	-0.0884	26.98	1.11	-0.751			
0.9126	58409.56	3.0010	3.0010	-0.0873	26.99	1.12	-0.751			
