Ah_balance (normalized)	Ah_balance (mAh)	Voltage - fit (V)	Voltage -  interpolate (V)	dQ/dV (1/V)	Temperature (°C)	Temperature - diff (°C)	Current (C)	R_DC 0ms (mOhm)	R_DC 50ms (mOhm)	R_DC 50 ms PEC (mOhm)
0.0002	15.23	4.1610	4.1609	-0.1147	25.89	0.02	-0.750			
0.0007	42.67	4.1580	4.1580	-0.1583	25.89	0.02	-0.750			
0.0012	75.46	4.1550	4.1549	-0.1942	25.89	0.02	-0.750			
0.0018	116.62	4.1520	4.1522	-0.2320	25.89	0.02	-0.750			
0.0026	164.51	4.1490	4.1490	-0.2712	25.88	0.01	-0.750			
0.0035	220.95	4.1460	4.1459	-0.3049	25.88	0.01	-0.750			
0.0044	282.93	4.1430	4.1431	-0.3402	25.88	0.01	-0.750			
0.0055	352.30	4.1400	4.1401	-0.3711	25.87	0.00	-0.750			
0.0067	427.43	4.1370	4.1368	-0.4024	25.87	-0.00	-0.750			
0.0079	507.04	4.1340	4.1341	-0.4289	25.86	-0.01	-0.750			
0.0093	592.37	4.1310	4.1309	-0.4561	25.86	-0.01	-0.750			
0.0107	682.84	4.1280	4.1280	-0.4798	25.85	-0.02	-0.750			
0.0122	778.29	4.1250	4.1249	-0.5051	25.85	-0.02	-0.750			
0.0137	877.73	4.1220	4.1221	-0.5304	25.84	-0.03	-0.750			
0.0154	984.87	4.1190	4.1189	-0.5425	25.83	-0.04	-0.750			
0.0170	1091.13	4.1160	4.1159	-0.5572	25.83	-0.04	-0.750			
0.0187	1199.20	4.1130	4.1134	-0.5707	25.82	-0.05	-0.750			
0.0205	1309.42	4.1100	4.1099	-0.5826	25.82	-0.05	-0.750			
0.0222	1421.98	4.1070	4.1069	-0.5925	25.82	-0.05	-0.750			
0.0240	1534.83	4.1040	4.1041	-0.6019	25.82	-0.05	-0.750			
0.0259	1654.81	4.1010	4.1010	-0.6215	25.81	-0.06	-0.750			
0.0277	1775.73	4.0980	4.0979	-0.6330	25.81	-0.06	-0.750			
0.0297	1898.60	4.0950	4.0949	-0.6369	25.81	-0.06	-0.750			
0.0316	2021.64	4.0920	4.0921	-0.6444	25.81	-0.06	-0.750			
0.0335	2146.86	4.0890	4.0890	-0.6497	25.81	-0.06	-0.750			
0.0355	2271.94	4.0860	4.0860	-0.6565	25.80	-0.07	-0.750			
0.0374	2396.62	4.0830	4.0829	-0.6562	25.80	-0.07	-0.750			
0.0394	2524.68	4.0800	4.0800	-0.6674	25.80	-0.07	-0.750			
0.0415	2653.67	4.0770	4.0769	-0.6689	25.79	-0.08	-0.750			
0.0435	2783.45	4.0740	4.0740	-0.6733	25.79	-0.08	-0.750			
0.0455	2913.14	4.0710	4.0710	-0.6750	25.79	-0.08	-0.750			
0.0475	3042.85	4.0680	4.0681	-0.6777	25.79	-0.08	-0.750			
0.0496	3172.18	4.0650	4.0649	-0.6856	25.79	-0.08	-0.750			
0.0516	3304.35	4.0620	4.0620	-0.6894	25.79	-0.08	-0.750			
0.0537	3436.48	4.0590	4.0589	-0.6941	25.79	-0.08	-0.750			
0.0558	3571.83	4.0560	4.0559	-0.6964	25.79	-0.08	-0.750			
0.0579	3707.24	4.0530	4.0530	-0.6980	25.79	-0.08	-0.750			
0.0600	3840.24	4.0500	4.0500	-0.7016	25.78	-0.09	-0.750			
0.0621	3973.64	4.0470	4.0470	-0.7021	25.78	-0.09	-0.750			
0.0642	4109.44	4.0440	4.0440	-0.7036	25.78	-0.09	-0.750			
0.0663	4244.76	4.0410	4.0410	-0.7057	25.77	-0.10	-0.750			
0.0685	4380.89	4.0380	4.0380	-0.7074	25.77	-0.10	-0.750			
0.0706	4517.88	4.0350	4.0350	-0.7095	25.77	-0.10	-0.750			
0.0727	4653.37	4.0320	4.0320	-0.7096	25.77	-0.10	-0.750			
0.0748	4788.90	4.0290	4.0290	-0.7136	25.77	-0.10	-0.750			
0.0770	4927.24	4.0260	4.0259	-0.7149	25.77	-0.10	-0.750			
0.0792	5066.57	4.0230	4.0229	-0.7118	25.77	-0.10	-0.750			
0.0813	5201.62	4.0200	4.0203	-0.7140	25.77	-0.10	-0.750			
0.0834	5338.45	4.0170	4.0170	-0.7147	25.77	-0.10	-0.750			
0.0855	5474.11	4.0140	4.0139	-0.7169	25.77	-0.10	-0.750			
0.0877	5612.99	4.0110	4.0110	-0.7131	25.77	-0.10	-0.750			
0.0899	5752.12	4.0080	4.0080	-0.7168	25.77	-0.10	-0.750			
0.0920	5888.71	4.0050	4.0050	-0.7170	25.77	-0.10	-0.750			
0.0942	6026.39	4.0020	4.0021	-0.7199	25.77	-0.10	-0.750			
0.0963	6162.38	3.9990	3.9989	-0.7185	25.77	-0.10	-0.750			
0.0984	6299.05	3.9960	3.9959	-0.7265	25.77	-0.10	-0.750			
0.1006	6439.74	3.9930	3.9931	-0.7303	25.77	-0.10	-0.750			
0.1029	6582.97	3.9900	3.9900	-0.7429	25.77	-0.10	-0.750			
0.1051	6727.20	3.9870	3.9869	-0.7436	25.77	-0.10	-0.750			
0.1073	6869.69	3.9840	3.9840	-0.7430	25.77	-0.10	-0.750			
0.1096	7011.78	3.9810	3.9810	-0.7438	25.78	-0.09	-0.750			
0.1118	7155.64	3.9780	3.9779	-0.7461	25.78	-0.09	-0.750			
0.1140	7297.68	3.9750	3.9750	-0.7458	25.78	-0.09	-0.750			
0.1163	7442.37	3.9720	3.9720	-0.7494	25.79	-0.08	-0.750			
0.1185	7586.18	3.9690	3.9693	-0.7500	25.79	-0.08	-0.750			
0.1208	7730.84	3.9660	3.9659	-0.7550	25.79	-0.08	-0.750			
0.1230	7873.91	3.9630	3.9631	-0.7592	25.79	-0.08	-0.750			
0.1253	8020.23	3.9600	3.9600	-0.7618	25.79	-0.08	-0.750			
0.1276	8169.42	3.9570	3.9569	-0.7677	25.79	-0.08	-0.750			
0.1299	8315.92	3.9540	3.9540	-0.7657	25.79	-0.08	-0.750			
0.1323	8464.43	3.9510	3.9510	-0.7664	25.79	-0.08	-0.750			
0.1345	8609.98	3.9480	3.9480	-0.7687	25.79	-0.08	-0.750			
0.1368	8756.21	3.9450	3.9450	-0.7665	25.79	-0.08	-0.750			
0.1391	8903.18	3.9420	3.9420	-0.7695	25.80	-0.07	-0.750			
0.1414	9052.27	3.9390	3.9390	-0.7752	25.80	-0.07	-0.750			
0.1438	9201.38	3.9360	3.9361	-0.7791	25.80	-0.07	-0.750			
0.1461	9350.64	3.9330	3.9330	-0.7837	25.80	-0.07	-0.750			
0.1485	9501.28	3.9300	3.9301	-0.7899	25.81	-0.06	-0.750			
0.1508	9653.18	3.9270	3.9269	-0.7922	25.81	-0.06	-0.750			
0.1532	9806.77	3.9240	3.9241	-0.7965	25.82	-0.05	-0.750			
0.1556	9960.53	3.9210	3.9209	-0.7967	25.82	-0.05	-0.750			
0.1580	10114.55	3.9180	3.9181	-0.7970	25.82	-0.05	-0.750			
0.1604	10267.44	3.9150	3.9149	-0.8004	25.83	-0.04	-0.750			
0.1628	10420.18	3.9120	3.9120	-0.7974	25.83	-0.04	-0.750			
0.1652	10573.82	3.9090	3.9090	-0.7960	25.83	-0.04	-0.750			
0.1676	10727.15	3.9060	3.9061	-0.7976	25.84	-0.03	-0.750			
0.1700	10879.84	3.9030	3.9029	-0.7963	25.84	-0.03	-0.750			
0.1724	11031.66	3.9000	3.9000	-0.7969	25.84	-0.03	-0.750			
0.1747	11183.93	3.8970	3.8970	-0.7965	25.84	-0.03	-0.750			
0.1771	11335.07	3.8940	3.8941	-0.7942	25.85	-0.02	-0.750			
0.1796	11491.33	3.8910	3.8909	-0.7990	25.85	-0.02	-0.750			
0.1819	11644.25	3.8880	3.8881	-0.8001	25.85	-0.02	-0.750			
0.1843	11796.94	3.8850	3.8850	-0.8001	25.86	-0.01	-0.750			
0.1867	11950.50	3.8820	3.8820	-0.8037	25.86	-0.01	-0.750			
0.1891	12104.65	3.8790	3.8790	-0.8056	25.86	-0.01	-0.750			
0.1916	12261.28	3.8760	3.8760	-0.8066	25.87	-0.00	-0.750			
0.1940	12417.23	3.8730	3.8730	-0.8099	25.87	0.00	-0.750			
0.1964	12572.69	3.8700	3.8701	-0.8109	25.87	0.00	-0.750			
0.1989	12727.45	3.8670	3.8670	-0.8125	25.87	0.00	-0.750			
0.2013	12885.01	3.8640	3.8640	-0.8113	25.88	0.01	-0.750			
0.2038	13040.77	3.8610	3.8609	-0.8079	25.88	0.01	-0.750			
0.2062	13195.55	3.8580	3.8582	-0.8077	25.88	0.01	-0.750			
0.2086	13352.01	3.8550	3.8550	-0.8083	25.88	0.01	-0.750			
0.2110	13504.93	3.8520	3.8519	-0.8057	25.89	0.02	-0.750			
0.2134	13657.97	3.8490	3.8490	-0.8044	25.89	0.02	-0.750			
0.2158	13814.01	3.8460	3.8460	-0.8084	25.90	0.03	-0.750			
0.2183	13968.97	3.8430	3.8430	-0.8123	25.90	0.03	-0.750			
0.2207	14126.77	3.8400	3.8400	-0.8118	25.91	0.04	-0.750			
0.2232	14281.88	3.8370	3.8370	-0.8149	25.91	0.04	-0.750			
0.2256	14439.31	3.8340	3.8340	-0.8150	25.92	0.05	-0.750			
0.2281	14596.14	3.8310	3.8310	-0.8101	25.92	0.05	-0.750			
0.2305	14752.19	3.8280	3.8281	-0.8073	25.93	0.06	-0.750			
0.2329	14906.71	3.8250	3.8250	-0.8029	25.93	0.06	-0.750			
0.2353	15058.69	3.8220	3.8219	-0.7996	25.93	0.06	-0.750			
0.2377	15212.21	3.8190	3.8190	-0.7993	25.93	0.06	-0.750			
0.2400	15363.16	3.8160	3.8160	-0.7982	25.93	0.06	-0.750			
0.2425	15519.16	3.8130	3.8130	-0.8011	25.93	0.06	-0.750			
0.2449	15673.51	3.8100	3.8099	-0.8007	25.93	0.06	-0.750			
0.2473	15826.14	3.8070	3.8070	-0.8020	25.94	0.07	-0.750			
0.2497	15981.51	3.8040	3.8039	-0.7978	25.94	0.07	-0.750			
0.2521	16134.29	3.8010	3.8010	-0.7934	25.94	0.07	-0.750			
0.2545	16287.71	3.7980	3.7979	-0.7877	25.95	0.08	-0.750			
0.2568	16438.07	3.7950	3.7951	-0.7809	25.95	0.08	-0.750			
0.2592	16587.08	3.7920	3.7919	-0.7772	25.95	0.08	-0.750			
0.2615	16734.58	3.7890	3.7890	-0.7704	25.96	0.09	-0.750			
0.2638	16880.17	3.7860	3.7860	-0.7630	25.96	0.09	-0.750			
0.2661	17028.25	3.7830	3.7829	-0.7676	25.97	0.10	-0.750			
0.2684	17175.42	3.7800	3.7801	-0.7662	25.97	0.10	-0.750			
0.2707	17323.14	3.7770	3.7770	-0.7653	25.97	0.10	-0.750			
0.2730	17469.41	3.7740	3.7740	-0.7658	25.98	0.11	-0.750			
0.2753	17617.54	3.7710	3.7710	-0.7604	25.98	0.11	-0.750			
0.2776	17763.27	3.7680	3.7679	-0.7561	25.98	0.11	-0.750			
0.2798	17906.94	3.7650	3.7650	-0.7550	25.99	0.12	-0.750			
0.2821	18052.43	3.7620	3.7620	-0.7503	25.99	0.12	-0.750			
0.2843	18194.92	3.7590	3.7589	-0.7524	26.00	0.13	-0.750			
0.2865	18339.01	3.7560	3.7561	-0.7548	26.00	0.13	-0.750			
0.2888	18482.62	3.7530	3.7530	-0.7563	26.00	0.13	-0.750			
0.2911	18629.48	3.7500	3.7500	-0.7630	26.01	0.14	-0.750			
0.2934	18776.13	3.7470	3.7470	-0.7669	26.01	0.14	-0.750			
0.2957	18923.08	3.7440	3.7440	-0.7724	26.01	0.14	-0.750			
0.2980	19073.03	3.7410	3.7410	-0.7855	26.02	0.15	-0.750			
0.3004	19223.89	3.7380	3.7380	-0.7899	26.02	0.15	-0.750			
0.3028	19376.48	3.7350	3.7349	-0.7974	26.02	0.15	-0.750			
0.3052	19530.93	3.7320	3.7321	-0.8067	26.03	0.16	-0.750			
0.3076	19686.29	3.7290	3.7289	-0.8155	26.03	0.16	-0.750			
0.3101	19843.52	3.7260	3.7259	-0.8276	26.03	0.16	-0.750			
0.3126	20003.38	3.7230	3.7230	-0.8363	26.03	0.16	-0.750			
0.3150	20162.91	3.7200	3.7200	-0.8477	26.03	0.16	-0.750			
0.3176	20328.80	3.7170	3.7170	-0.8685	26.03	0.16	-0.750			
0.3203	20496.70	3.7140	3.7138	-0.8827	26.03	0.16	-0.750			
0.3229	20666.40	3.7110	3.7110	-0.8973	26.03	0.16	-0.750			
0.3256	20840.11	3.7080	3.7080	-0.9127	26.03	0.16	-0.750			
0.3284	21016.28	3.7050	3.7051	-0.9266	26.03	0.16	-0.750			
0.3312	21198.26	3.7020	3.7021	-0.9481	26.03	0.16	-0.750			
0.3341	21380.92	3.6990	3.6990	-0.9678	26.03	0.16	-0.750			
0.3370	21568.48	3.6960	3.6960	-0.9837	26.03	0.16	-0.750			
0.3400	21759.86	3.6930	3.6929	-1.0016	26.03	0.16	-0.750			
0.3430	21953.48	3.6900	3.6901	-1.0226	26.03	0.16	-0.750			
0.3461	22152.35	3.6870	3.6869	-1.0444	26.03	0.16	-0.750			
0.3493	22355.60	3.6840	3.6839	-1.0591	26.03	0.16	-0.750			
0.3525	22558.72	3.6810	3.6810	-1.0769	26.03	0.16	-0.750			
0.3557	22765.60	3.6780	3.6779	-1.0903	26.03	0.16	-0.750			
0.3591	22981.40	3.6750	3.6749	-1.1209	26.03	0.16	-0.750			
0.3625	23197.92	3.6720	3.6719	-1.1383	26.02	0.15	-0.750			
0.3659	23416.72	3.6690	3.6690	-1.1554	26.01	0.14	-0.750			
0.3694	23642.56	3.6660	3.6661	-1.1881	26.01	0.14	-0.750			
0.3730	23873.18	3.6630	3.6629	-1.2122	26.01	0.14	-0.750			
0.3767	24107.03	3.6600	3.6599	-1.2293	26.00	0.13	-0.750			
0.3804	24343.52	3.6570	3.6571	-1.2578	26.00	0.13	-0.750			
0.3842	24591.91	3.6540	3.6539	-1.2957	25.99	0.12	-0.750			
0.3882	24843.13	3.6510	3.6510	-1.3207	25.98	0.11	-0.750			
0.3922	25098.12	3.6480	3.6480	-1.3478	25.97	0.10	-0.750			
0.3962	25359.84	3.6450	3.6450	-1.3682	25.97	0.10	-0.750			
0.4004	25626.57	3.6420	3.6420	-1.4029	25.97	0.10	-0.750			
0.4047	25899.49	3.6390	3.6390	-1.4303	25.97	0.10	-0.750			
0.4090	26175.61	3.6360	3.6360	-1.4522	25.96	0.09	-0.750			
0.4134	26459.14	3.6330	3.6330	-1.4918	25.95	0.08	-0.750			
0.4180	26749.79	3.6300	3.6300	-1.5209	25.94	0.07	-0.750			
0.4225	27042.71	3.6270	3.6270	-1.5525	25.94	0.07	-0.750			
0.4273	27347.76	3.6240	3.6238	-1.5762	25.93	0.06	-0.750			
0.4320	27648.13	3.6210	3.6211	-1.5992	25.93	0.06	-0.750			
0.4368	27958.13	3.6180	3.6179	-1.6291	25.93	0.06	-0.750			
0.4418	28274.12	3.6150	3.6149	-1.6586	25.93	0.06	-0.750	0.391	0.524	
0.4468	28594.41	3.6120	3.6119	-1.6890	25.92	0.05	-0.750			
0.4520	28929.24	3.6090	3.6089	-1.7279	25.92	0.05	-0.750			
0.4572	29257.71	3.6060	3.6060	-1.7553	25.91	0.04	-0.750			
0.4625	29600.30	3.6030	3.6028	-1.7905	25.90	0.03	-0.750			
0.4679	29944.88	3.6000	3.6002	-1.8260	25.90	0.03	-0.750			
0.4734	30300.36	3.5970	3.5968	-1.8703	25.90	0.03	-0.750			
0.4791	30664.23	3.5940	3.5940	-1.9042	25.89	0.02	-0.750			
0.4849	31034.94	3.5910	3.5910	-1.9529	25.89	0.02	-0.750			
0.4909	31415.76	3.5880	3.5879	-1.9874	25.89	0.02	-0.750			
0.4970	31806.68	3.5850	3.5852	-1.9909	25.89	0.02	-0.750			
0.5030	32191.81	3.5820	3.5820	-2.0247	25.89	0.02	-0.750			
0.5090	32575.98	3.5790	3.5791	-2.0295	25.89	0.02	-0.750			
0.5152	32971.33	3.5760	3.5759	-2.0527	25.88	0.01	-0.750			
0.5214	33366.80	3.5730	3.5728	-2.1083	25.88	0.01	-0.750			
0.5277	33773.86	3.5700	3.5699	-2.1257	25.89	0.02	-0.750			
0.5343	34192.94	3.5670	3.5671	-2.1685	25.89	0.02	-0.750			
0.5409	34616.75	3.5640	3.5642	-2.1957	25.89	0.02	-0.750			
0.5474	35031.51	3.5610	3.5611	-2.2018	25.89	0.02	-0.750			
0.5541	35463.93	3.5580	3.5578	-2.2027	25.88	0.01	-0.750			
0.5607	35886.33	3.5550	3.5550	-2.2148	25.88	0.01	-0.750			
0.5673	36306.07	3.5520	3.5520	-2.2023	25.89	0.02	-0.750			
0.5740	36732.93	3.5490	3.5489	-2.1947	25.89	0.02	-0.750			
0.5806	37156.44	3.5460	3.5461	-2.1896	25.89	0.02	-0.750			
0.5871	37576.83	3.5430	3.5429	-2.1617	25.89	0.02	-0.750			
0.5936	37988.26	3.5400	3.5398	-2.1363	25.90	0.03	-0.750			
0.6001	38404.45	3.5370	3.5371	-2.1054	25.91	0.04	-0.750			
0.6064	38808.76	3.5340	3.5338	-2.0709	25.91	0.04	-0.750			
0.6125	39198.29	3.5310	3.5310	-2.0464	25.91	0.04	-0.750			
0.6185	39584.98	3.5280	3.5283	-2.0107	25.91	0.04	-0.750			
0.6246	39976.16	3.5250	3.5252	-1.9752	25.92	0.05	-0.750			
0.6305	40354.64	3.5220	3.5220	-1.9304	25.93	0.06	-0.750			
0.6362	40719.82	3.5190	3.5190	-1.8935	25.94	0.07	-0.750			
0.6420	41085.44	3.5160	3.5160	-1.8706	25.95	0.08	-0.750			
0.6475	41442.94	3.5130	3.5129	-1.8037	25.96	0.09	-0.750			
0.6528	41776.53	3.5100	3.5097	-1.7304	25.96	0.09	-0.750			
0.6579	42106.51	3.5070	3.5070	-1.6777	25.97	0.10	-0.750			
0.6629	42425.13	3.5040	3.5041	-1.6330	25.99	0.12	-0.750			
0.6677	42731.60	3.5010	3.5010	-1.5778	26.00	0.13	-0.750			
0.6723	43027.49	3.4980	3.4980	-1.5325	26.01	0.14	-0.750			
0.6769	43322.31	3.4950	3.4951	-1.4994	26.02	0.15	-0.750			
0.6814	43610.41	3.4920	3.4921	-1.4656	26.03	0.16	-0.750			
0.6857	43884.79	3.4890	3.4891	-1.4068	26.05	0.18	-0.750			
0.6899	44151.76	3.4860	3.4860	-1.3588	26.07	0.20	-0.750			
0.6938	44405.32	3.4830	3.4832	-1.3146	26.08	0.21	-0.750			
0.6978	44657.22	3.4800	3.4798	-1.2698	26.10	0.23	-0.750			
0.7014	44891.18	3.4770	3.4770	-1.2212	26.11	0.24	-0.750			
0.7050	45122.24	3.4740	3.4741	-1.1828	26.13	0.26	-0.750			
0.7085	45346.06	3.4710	3.4709	-1.1549	26.14	0.27	-0.750			
0.7119	45564.58	3.4680	3.4678	-1.1198	26.15	0.28	-0.750			
0.7152	45774.65	3.4650	3.4651	-1.0807	26.16	0.29	-0.750			
0.7184	45977.84	3.4620	3.4623	-1.0469	26.17	0.30	-0.750			
0.7216	46179.94	3.4590	3.4589	-1.0274	26.18	0.31	-0.750			
0.7246	46373.60	3.4560	3.4560	-0.9888	26.20	0.33	-0.750			
0.7275	46560.07	3.4530	3.4529	-0.9484	26.21	0.34	-0.750			
0.7303	46738.61	3.4500	3.4500	-0.9222	26.23	0.36	-0.750			
0.7330	46909.84	3.4470	3.4470	-0.9001	26.24	0.37	-0.750			
0.7356	47076.98	3.4440	3.4439	-0.8820	26.24	0.37	-0.750			
0.7382	47242.97	3.4410	3.4408	-0.8692	26.25	0.38	-0.750			
0.7407	47406.65	3.4380	3.4380	-0.8635	26.26	0.39	-0.750			
0.7434	47574.57	3.4350	3.4352	-0.8742	26.27	0.40	-0.750			
0.7460	47741.91	3.4320	3.4319	-0.8828	26.28	0.41	-0.750			
0.7486	47908.56	3.4290	3.4290	-0.8838	26.29	0.42	-0.750			
0.7512	48078.52	3.4260	3.4260	-0.8982	26.29	0.42	-0.750			
0.7540	48253.70	3.4230	3.4230	-0.9150	26.30	0.43	-0.750			
0.7567	48431.25	3.4200	3.4201	-0.9272	26.31	0.44	-0.750			
0.7595	48610.50	3.4170	3.4171	-0.9424	26.32	0.45	-0.750			
0.7624	48793.10	3.4140	3.4139	-0.9514	26.33	0.46	-0.750			
0.7653	48978.47	3.4110	3.4110	-0.9545	26.34	0.47	-0.750			
0.7682	49164.67	3.4080	3.4082	-0.9563	26.35	0.48	-0.750			
0.7711	49348.56	3.4050	3.4049	-0.9470	26.35	0.48	-0.750			
0.7739	49532.75	3.4020	3.4020	-0.9242	26.36	0.49	-0.750			
0.7767	49707.54	3.3990	3.3990	-0.8971	26.36	0.49	-0.750			
0.7793	49876.17	3.3960	3.3960	-0.8647	26.37	0.50	-0.750			
0.7819	50041.15	3.3930	3.3930	-0.8392	26.37	0.50	-0.750			
0.7843	50195.76	3.3900	3.3900	-0.8266	26.38	0.51	-0.750			
0.7867	50351.05	3.3870	3.3869	-0.8045	26.38	0.51	-0.750			
0.7891	50504.91	3.3840	3.3839	-0.7808	26.39	0.52	-0.750			
0.7915	50656.96	3.3810	3.3810	-0.7629	26.40	0.53	-0.750			
0.7938	50803.53	3.3780	3.3782	-0.7333	26.40	0.53	-0.750			
0.7960	50942.81	3.3750	3.3749	-0.7004	26.41	0.54	-0.750			
0.7980	51070.77	3.3720	3.3720	-0.6661	26.41	0.54	-0.750			
0.7999	51193.15	3.3690	3.3689	-0.6338	26.42	0.55	-0.750			
0.8018	51313.57	3.3660	3.3659	-0.6122	26.43	0.56	-0.750			
0.8036	51427.75	3.3630	3.3631	-0.5867	26.43	0.56	-0.750			
0.8053	51537.90	3.3600	3.3601	-0.5669	26.44	0.57	-0.750			
0.8070	51644.82	3.3570	3.3568	-0.5460	26.44	0.57	-0.750			
0.8085	51746.34	3.3540	3.3540	-0.5246	26.45	0.58	-0.750			
0.8101	51844.47	3.3510	3.3510	-0.5056	26.46	0.59	-0.750			
0.8116	51939.68	3.3480	3.3481	-0.4883	26.47	0.60	-0.750			
0.8130	52032.81	3.3450	3.3450	-0.4750	26.47	0.60	-0.750			
0.8144	52122.02	3.3420	3.3420	-0.4594	26.48	0.61	-0.750			
0.8158	52208.84	3.3390	3.3390	-0.4434	26.49	0.62	-0.750			
0.8171	52292.50	3.3360	3.3360	-0.4289	26.49	0.62	-0.750			
0.8183	52373.19	3.3330	3.3330	-0.4158	26.50	0.63	-0.750			
0.8196	52451.40	3.3300	3.3300	-0.4013	26.51	0.64	-0.750			
0.8207	52526.66	3.3270	3.3269	-0.3885	26.51	0.64	-0.750			
0.8219	52599.27	3.3240	3.3241	-0.3758	26.52	0.65	-0.750			
0.8230	52670.55	3.3210	3.3209	-0.3664	26.52	0.65	-0.750			
0.8241	52740.18	3.3180	3.3180	-0.3572	26.53	0.66	-0.750			
0.8251	52807.60	3.3150	3.3150	-0.3469	26.53	0.66	-0.750			
0.8261	52873.06	3.3120	3.3120	-0.3359	26.54	0.67	-0.750			
0.8271	52936.95	3.3090	3.3090	-0.3282	26.54	0.67	-0.750			
0.8281	52998.36	3.3060	3.3061	-0.3194	26.55	0.68	-0.750			
0.8290	53058.96	3.3030	3.3030	-0.3120	26.55	0.68	-0.750			
0.8300	53117.83	3.3000	3.2999	-0.3040	26.56	0.69	-0.750			
0.8309	53175.70	3.2970	3.2971	-0.2965	26.56	0.69	-0.750			
0.8317	53231.96	3.2940	3.2940	-0.2897	26.56	0.69	-0.750			
0.8326	53287.06	3.2910	3.2910	-0.2822	26.57	0.70	-0.750			
0.8334	53339.92	3.2880	3.2880	-0.2741	26.57	0.70	-0.750			
0.8342	53391.71	3.2850	3.2851	-0.2686	26.58	0.71	-0.750			
0.8350	53442.51	3.2820	3.2820	-0.2640	26.58	0.71	-0.750			
0.8358	53492.84	3.2790	3.2790	-0.2590	26.59	0.72	-0.750			
0.8366	53542.30	3.2760	3.2759	-0.2542	26.59	0.72	-0.750			
0.8373	53590.39	3.2730	3.2731	-0.2494	26.60	0.73	-0.750			
0.8381	53638.12	3.2700	3.2700	-0.2453	26.60	0.73	-0.750			
0.8388	53684.68	3.2670	3.2670	-0.2401	26.60	0.73	-0.750			
0.8395	53729.91	3.2640	3.2639	-0.2352	26.61	0.74	-0.750			
0.8402	53774.27	3.2610	3.2611	-0.2312	26.61	0.74	-0.750			
0.8409	53818.38	3.2580	3.2580	-0.2283	26.62	0.75	-0.750			
0.8416	53862.12	3.2550	3.2549	-0.2247	26.62	0.75	-0.750			
0.8423	53905.00	3.2520	3.2521	-0.2213	26.62	0.75	-0.750			
0.8429	53946.90	3.2490	3.2489	-0.2176	26.63	0.76	-0.750			
0.8436	53988.38	3.2460	3.2462	-0.2145	26.63	0.76	-0.750			
0.8442	54029.48	3.2430	3.2430	-0.2116	26.64	0.77	-0.750			
0.8448	54069.70	3.2400	3.2399	-0.2078	26.64	0.77	-0.750			
0.8455	54109.20	3.2370	3.2370	-0.2040	26.65	0.78	-0.750			
0.8461	54148.07	3.2340	3.2340	-0.2008	26.65	0.78	-0.750			
0.8467	54186.44	3.2310	3.2311	-0.1985	26.66	0.79	-0.750			
0.8473	54224.04	3.2280	3.2280	-0.1956	26.66	0.79	-0.750			
0.8478	54261.12	3.2250	3.2250	-0.1926	26.67	0.80	-0.750			
0.8484	54297.90	3.2220	3.2220	-0.1905	26.67	0.80	-0.750			
0.8490	54334.16	3.2190	3.2190	-0.1887	26.68	0.81	-0.750			
0.8495	54370.37	3.2160	3.2160	-0.1867	26.68	0.81	-0.750			
0.8501	54406.03	3.2130	3.2130	-0.1849	26.68	0.81	-0.750			
0.8506	54441.31	3.2100	3.2099	-0.1827	26.69	0.82	-0.750			
0.8512	54476.14	3.2070	3.2070	-0.1801	26.69	0.82	-0.750			
0.8517	54510.87	3.2040	3.2040	-0.1772	26.70	0.83	-0.750			
0.8523	54544.67	3.2010	3.2009	-0.1745	26.70	0.83	-0.750			
0.8528	54577.83	3.1980	3.1981	-0.1710	26.71	0.84	-0.750			
0.8533	54609.80	3.1950	3.1951	-0.1699	26.71	0.84	-0.750			
0.8538	54642.04	3.1920	3.1921	-0.1680	26.72	0.85	-0.750			
0.8543	54673.73	3.1890	3.1889	-0.1662	26.72	0.85	-0.750			
0.8548	54705.81	3.1860	3.1859	-0.1653	26.72	0.85	-0.750			
0.8553	54737.72	3.1830	3.1831	-0.1641	26.73	0.86	-0.750			
0.8558	54769.64	3.1800	3.1801	-0.1634	26.73	0.86	-0.750			
0.8563	54800.82	3.1770	3.1770	-0.1620	26.74	0.87	-0.750			
0.8567	54831.58	3.1740	3.1740	-0.1603	26.75	0.88	-0.750			
0.8572	54861.71	3.1710	3.1710	-0.1582	26.75	0.88	-0.750			
0.8577	54892.05	3.1680	3.1680	-0.1575	26.76	0.89	-0.750			
0.8582	54922.29	3.1650	3.1650	-0.1559	26.77	0.90	-0.750			
0.8586	54952.10	3.1620	3.1620	-0.1548	26.77	0.90	-0.750			
0.8591	54981.81	3.1590	3.1590	-0.1536	26.78	0.91	-0.750			
0.8595	55011.14	3.1560	3.1560	-0.1520	26.78	0.91	-0.750			
0.8600	55040.26	3.1530	3.1530	-0.1497	26.79	0.92	-0.750			
0.8604	55068.60	3.1500	3.1501	-0.1487	26.79	0.92	-0.750			
0.8609	55096.86	3.1470	3.1471	-0.1472	26.80	0.93	-0.750			
0.8613	55125.04	3.1440	3.1440	-0.1463	26.80	0.93	-0.750			
0.8618	55153.05	3.1410	3.1409	-0.1451	26.81	0.94	-0.750			
0.8622	55180.82	3.1380	3.1380	-0.1434	26.81	0.94	-0.750			
0.8626	55208.43	3.1350	3.1351	-0.1425	26.82	0.95	-0.750			
0.8631	55235.60	3.1320	3.1320	-0.1412	26.82	0.95	-0.750			
0.8635	55262.75	3.1290	3.1290	-0.1403	26.83	0.96	-0.750			
0.8639	55289.11	3.1260	3.1259	-0.1385	26.83	0.96	-0.750			
0.8643	55315.56	3.1230	3.1229	-0.1377	26.84	0.97	-0.750			
0.8647	55342.00	3.1200	3.1201	-0.1369	26.84	0.97	-0.750			
0.8651	55368.23	3.1170	3.1171	-0.1361	26.85	0.98	-0.750			
0.8655	55394.45	3.1140	3.1140	-0.1354	26.85	0.98	-0.750			
0.8659	55420.32	3.1110	3.1110	-0.1342	26.86	0.99	-0.750			
0.8663	55445.95	3.1080	3.1080	-0.1330	26.86	0.99	-0.750			
0.8667	55471.45	3.1050	3.1049	-0.1319	26.87	1.00	-0.750			
0.8671	55496.62	3.1020	3.1021	-0.1306	26.87	1.00	-0.750			
0.8675	55521.54	3.0990	3.0989	-0.1296	26.88	1.01	-0.750			
0.8679	55546.44	3.0960	3.0960	-0.1284	26.88	1.01	-0.750			
0.8683	55570.96	3.0930	3.0930	-0.1271	26.89	1.02	-0.750			
0.8687	55595.08	3.0900	3.0900	-0.1266	26.89	1.02	-0.750			
0.8691	55619.33	3.0870	3.0870	-0.1259	26.90	1.03	-0.750			
0.8694	55643.49	3.0840	3.0840	-0.1249	26.90	1.03	-0.750			
0.8698	55667.40	3.0810	3.0809	-0.1241	26.91	1.04	-0.750			
0.8702	55691.24	3.0780	3.0781	-0.1232	26.91	1.04	-0.750			
0.8705	55714.82	3.0750	3.0751	-0.1222	26.92	1.05	-0.750			
0.8709	55738.25	3.0720	3.0721	-0.1217	26.92	1.05	-0.750			
0.8713	55761.51	3.0690	3.0689	-0.1206	26.93	1.06	-0.750			
0.8716	55784.24	3.0660	3.0659	-0.1198	26.93	1.06	-0.750			
0.8720	55807.13	3.0630	3.0630	-0.1194	26.94	1.07	-0.750			
0.8723	55830.03	3.0600	3.0600	-0.1192	26.94	1.07	-0.750			
0.8727	55853.11	3.0570	3.0570	-0.1184	26.95	1.08	-0.750			
0.8731	55875.89	3.0540	3.0539	-0.1178	26.95	1.08	-0.750			
0.8734	55898.38	3.0510	3.0512	-0.1168	26.96	1.09	-0.750			
0.8738	55920.77	3.0480	3.0480	-0.1158	26.96	1.09	-0.750			
0.8741	55942.86	3.0450	3.0450	-0.1149	26.97	1.10	-0.750			
0.8745	55964.81	3.0420	3.0420	-0.1139	26.97	1.10	-0.750			
0.8748	55986.48	3.0390	3.0389	-0.1135	26.98	1.11	-0.750			
0.8751	56008.03	3.0360	3.0360	-0.1127	26.98	1.11	-0.750			
0.8755	56029.65	3.0330	3.0330	-0.1124	26.99	1.12	-0.750			
0.8758	56051.24	3.0300	3.0299	-0.1121	26.99	1.12	-0.750			
0.8761	56072.81	3.0270	3.0270	-0.1109	27.00	1.13	-0.750			
0.8765	56094.18	3.0240	3.0240	-0.1101	27.00	1.13	-0.750			
0.8768	56115.25	3.0210	3.0210	-0.1096	27.01	1.14	-0.750			
0.8771	56136.21	3.0180	3.0181	-0.1086	27.01	1.14	-0.750			
0.8775	56156.91	3.0150	3.0149	-0.1074	27.02	1.15	-0.750			
0.8778	56177.43	3.0120	3.0120	-0.1064	27.02	1.15	-0.750			
0.8781	56197.69	3.0090	3.0090	-0.1056	27.03	1.16	-0.750			
0.8784	56217.89	3.0060	3.0061	-0.1049	27.03	1.16	-0.751			
0.8787	56237.84	3.0030	3.0030	-0.1006	27.03	1.16	-0.751			
