Ah_balance (normalized)	Ah_balance (mAh)	Voltage - fit (V)	Voltage -  interpolate (V)	dQ/dV (1/V)	Temperature (°C)	Temperature - diff (°C)	Current (C)	R_DC 0ms (mOhm)	R_DC 50ms (mOhm)	R_DC 50 ms PEC (mOhm)
0.0525	3361.63	4.1990	4.1990	0.7506	26.50	0.57	0.750			
0.0547	3500.30	4.1960	4.1961	0.7154	26.50	0.57	0.750			
0.0569	3639.80	4.1930	4.1931	0.7378	26.50	0.57	0.750			
0.0592	3785.67	4.1900	4.1897	0.7529	26.50	0.57	0.750			
0.0614	3932.61	4.1870	4.1871	0.7601	26.50	0.57	0.750			
0.0638	4080.90	4.1840	4.1841	0.7572	26.50	0.57	0.750			
0.0661	4229.55	4.1810	4.1811	0.7599	26.50	0.57	0.750			
0.0683	4372.20	4.1780	4.1780	0.7544	26.50	0.57	0.750			
0.0706	4515.65	4.1750	4.1750	0.7561	26.50	0.57	0.750			
0.0728	4659.56	4.1720	4.1720	0.7614	26.50	0.57	0.750			
0.0751	4806.85	4.1690	4.1690	0.7708	26.50	0.57	0.750			
0.0775	4956.97	4.1660	4.1660	0.7765	26.50	0.57	0.750			
0.0798	5107.12	4.1630	4.1631	0.7814	26.50	0.57	0.750			
0.0822	5258.41	4.1600	4.1600	0.7807	26.50	0.57	0.750			
0.0845	5407.97	4.1570	4.1566	0.7829	26.50	0.57	0.750			
0.0869	5559.00	4.1540	4.1541	0.7765	26.50	0.57	0.750			
0.0892	5708.19	4.1510	4.1510	0.7684	26.50	0.57	0.750			
0.0915	5856.00	4.1480	4.1480	0.7685	26.50	0.57	0.750			
0.0938	6002.40	4.1450	4.1450	0.7686	26.50	0.57	0.750			
0.0960	6146.63	4.1420	4.1419	0.7696	26.50	0.57	0.750			
0.0984	6294.84	4.1390	4.1391	0.7747	26.50	0.57	0.750			
0.1007	6444.58	4.1360	4.1360	0.7750	26.50	0.57	0.750			
0.1031	6595.29	4.1330	4.1330	0.7848	26.50	0.57	0.750			
0.1054	6747.69	4.1300	4.1300	0.7869	26.50	0.57	0.750			
0.1078	6897.77	4.1270	4.1270	0.7831	26.50	0.57	0.750			
0.1101	7046.63	4.1240	4.1240	0.7857	26.50	0.57	0.750			
0.1125	7198.52	4.1210	4.1211	0.7864	26.50	0.57	0.750			
0.1149	7350.62	4.1180	4.1179	0.7842	26.50	0.57	0.750			
0.1172	7501.16	4.1150	4.1149	0.7817	26.50	0.57	0.750			
0.1195	7649.07	4.1120	4.1122	0.7827	26.50	0.57	0.750			
0.1219	7799.69	4.1090	4.1087	0.7908	26.50	0.57	0.750			
0.1242	7951.62	4.1060	4.1059	0.7933	26.50	0.57	0.750			
0.1266	8105.14	4.1030	4.1030	0.7891	26.50	0.57	0.750			
0.1290	8257.41	4.1000	4.1001	0.8051	26.50	0.57	0.750			
0.1314	8412.76	4.0970	4.0970	0.8101	26.50	0.57	0.750			
0.1339	8568.52	4.0940	4.0938	0.8134	26.50	0.57	0.750			
0.1363	8724.75	4.0910	4.0912	0.8156	26.50	0.57	0.750			
0.1388	8882.53	4.0880	4.0880	0.8144	26.50	0.57	0.750			
0.1413	9040.76	4.0850	4.0850	0.8120	26.50	0.57	0.750			
0.1437	9198.32	4.0820	4.0820	0.8071	26.50	0.57	0.750			
0.1461	9348.31	4.0790	4.0790	0.8062	26.50	0.57	0.750			
0.1485	9502.90	4.0760	4.0760	0.8088	26.50	0.57	0.750			
0.1510	9661.18	4.0730	4.0729	0.7965	26.51	0.58	0.750			
0.1533	9812.59	4.0700	4.0700	0.8001	26.51	0.58	0.750			
0.1557	9964.73	4.0670	4.0672	0.8128	26.51	0.58	0.750			
0.1581	10121.30	4.0640	4.0641	0.8150	26.52	0.59	0.750			
0.1606	10277.06	4.0610	4.0611	0.8192	26.52	0.59	0.750			
0.1630	10434.34	4.0580	4.0581	0.8219	26.52	0.59	0.750			
0.1655	10594.17	4.0550	4.0552	0.8303	26.52	0.59	0.750			
0.1681	10755.52	4.0520	4.0519	0.8331	26.52	0.59	0.750			
0.1705	10914.25	4.0490	4.0491	0.8293	26.52	0.59	0.750			
0.1730	11073.08	4.0460	4.0461	0.8317	26.52	0.59	0.750			
0.1756	11236.22	4.0430	4.0428	0.8352	26.52	0.59	0.750			
0.1780	11395.15	4.0400	4.0402	0.8365	26.52	0.59	0.750			
0.1806	11555.63	4.0370	4.0371	0.8417	26.52	0.59	0.750			
0.1831	11717.06	4.0340	4.0340	0.8462	26.52	0.59	0.750			
0.1856	11880.18	4.0310	4.0310	0.8522	26.52	0.59	0.750			
0.1882	12043.52	4.0280	4.0280	0.8482	26.52	0.59	0.750			
0.1907	12206.55	4.0250	4.0250	0.8528	26.52	0.59	0.750			
0.1933	12372.60	4.0220	4.0220	0.8593	26.52	0.59	0.750			
0.1959	12535.80	4.0190	4.0190	0.8554	26.52	0.59	0.750			
0.1984	12700.28	4.0160	4.0160	0.8583	26.52	0.59	0.750			
0.2010	12865.15	4.0130	4.0131	0.8588	26.52	0.59	0.750			
0.2036	13029.58	4.0100	4.0101	0.8700	26.52	0.59	0.750			
0.2062	13199.37	4.0070	4.0069	0.8772	26.52	0.59	0.750			
0.2089	13366.81	4.0040	4.0038	0.8696	26.52	0.59	0.750			
0.2115	13533.80	4.0010	4.0011	0.8724	26.52	0.59	0.750			
0.2141	13701.68	3.9980	3.9981	0.8722	26.52	0.59	0.750			
0.2167	13869.01	3.9950	3.9948	0.8710	26.53	0.60	0.750			
0.2193	14035.22	3.9920	3.9921	0.8711	26.53	0.60	0.750			
0.2219	14200.86	3.9890	3.9888	0.8721	26.53	0.60	0.750			
0.2246	14372.39	3.9860	3.9860	0.8744	26.53	0.60	0.750			
0.2272	14540.45	3.9830	3.9829	0.8788	26.53	0.60	0.750			
0.2298	14706.20	3.9800	3.9801	0.8871	26.54	0.61	0.750			
0.2325	14876.92	3.9770	3.9771	0.8913	26.54	0.61	0.750			
0.2352	15051.12	3.9740	3.9737	0.8952	26.54	0.61	0.750			
0.2379	15223.93	3.9710	3.9711	0.8953	26.54	0.61	0.750			
0.2406	15395.42	3.9680	3.9681	0.9011	26.54	0.61	0.750			
0.2432	15567.51	3.9650	3.9651	0.9140	26.54	0.61	0.750			
0.2460	15743.79	3.9620	3.9618	0.9086	26.54	0.61	0.750			
0.2487	15918.86	3.9590	3.9590	0.9160	26.54	0.61	0.750			
0.2515	16097.92	3.9560	3.9562	0.9230	26.54	0.61	0.750			
0.2543	16276.97	3.9530	3.9531	0.9219	26.54	0.61	0.750			
0.2571	16455.88	3.9500	3.9499	0.9175	26.54	0.61	0.750			
0.2598	16628.14	3.9470	3.9472	0.9138	26.54	0.61	0.750			
0.2626	16803.33	3.9440	3.9440	0.9078	26.54	0.61	0.750			
0.2653	16979.31	3.9410	3.9409	0.9160	26.54	0.61	0.750			
0.2680	17152.89	3.9380	3.9381	0.9101	26.54	0.61	0.750			
0.2708	17328.35	3.9350	3.9350	0.9138	26.54	0.61	0.750			
0.2735	17503.76	3.9320	3.9319	0.9159	26.54	0.61	0.750			
0.2763	17680.49	3.9290	3.9291	0.9106	26.54	0.61	0.750			
0.2790	17853.29	3.9260	3.9261	0.9121	26.54	0.61	0.750			
0.2817	18029.93	3.9230	3.9230	0.9173	26.54	0.61	0.750			
0.2845	18205.13	3.9200	3.9196	0.9129	26.54	0.61	0.750			
0.2872	18382.37	3.9170	3.9171	0.9080	26.54	0.61	0.750			
0.2899	18553.84	3.9140	3.9141	0.9132	26.54	0.61	0.750			
0.2927	18730.01	3.9110	3.9111	0.9185	26.54	0.61	0.750			
0.2954	18904.58	3.9080	3.9080	0.9165	26.54	0.61	0.750			
0.2981	19080.95	3.9050	3.9050	0.9276	26.54	0.61	0.750			
0.3010	19261.63	3.9020	3.9021	0.9305	26.53	0.60	0.750			
0.3038	19440.83	3.8990	3.8990	0.9428	26.53	0.60	0.750			
0.3066	19623.51	3.8960	3.8960	0.9488	26.52	0.59	0.750			
0.3095	19805.01	3.8930	3.8926	0.9471	26.52	0.59	0.750			
0.3123	19988.82	3.8900	3.8901	0.9488	26.52	0.59	0.750			
0.3152	20170.28	3.8870	3.8871	0.9539	26.51	0.58	0.750			
0.3180	20353.06	3.8840	3.8840	0.9610	26.51	0.58	0.750			
0.3209	20537.79	3.8810	3.8809	0.9581	26.50	0.57	0.750			
0.3238	20721.75	3.8780	3.8780	0.9685	26.50	0.57	0.750			
0.3267	20910.20	3.8750	3.8751	0.9723	26.49	0.56	0.750			
0.3297	21097.99	3.8720	3.8721	0.9777	26.49	0.56	0.750			
0.3326	21286.34	3.8690	3.8689	0.9809	26.48	0.55	0.750			
0.3356	21476.30	3.8660	3.8658	0.9820	26.48	0.55	0.750			
0.3385	21662.47	3.8630	3.8631	0.9898	26.47	0.54	0.750			
0.3415	21853.10	3.8600	3.8600	1.0030	26.46	0.53	0.750			
0.3445	22047.18	3.8570	3.8571	1.0114	26.45	0.52	0.750			
0.3476	22244.44	3.8540	3.8541	1.0144	26.44	0.51	0.750			
0.3506	22439.85	3.8510	3.8510	1.0182	26.43	0.50	0.750			
0.3537	22635.78	3.8480	3.8482	1.0249	26.42	0.49	0.750			
0.3568	22832.43	3.8450	3.8451	1.0308	26.42	0.49	0.750			
0.3599	23031.89	3.8420	3.8420	1.0248	26.41	0.48	0.750			
0.3629	23228.33	3.8390	3.8390	1.0295	26.40	0.47	0.750			
0.3660	23426.73	3.8360	3.8361	1.0335	26.39	0.46	0.750			
0.3691	23624.70	3.8330	3.8330	1.0399	26.39	0.46	0.750			
0.3723	23826.53	3.8300	3.8301	1.0357	26.38	0.45	0.750			
0.3754	24024.21	3.8270	3.8270	1.0366	26.37	0.44	0.750			
0.3785	24221.67	3.8240	3.8241	1.0499	26.36	0.43	0.750			
0.3816	24425.01	3.8210	3.8211	1.0663	26.35	0.42	0.750			
0.3849	24630.89	3.8180	3.8178	1.0680	26.34	0.41	0.750			
0.3881	24838.13	3.8150	3.8151	1.0774	26.33	0.40	0.750			
0.3913	25045.53	3.8120	3.8121	1.0839	26.32	0.39	0.750			
0.3946	25256.74	3.8090	3.8091	1.0921	26.32	0.39	0.750			
0.3979	25466.79	3.8060	3.8059	1.0859	26.31	0.38	0.750			
0.4011	25673.10	3.8030	3.8030	1.0895	26.30	0.37	0.750			
0.4044	25881.26	3.8000	3.8001	1.0979	26.29	0.36	0.750			
0.4077	26093.23	3.7970	3.7970	1.1110	26.28	0.35	0.750			
0.4110	26306.92	3.7940	3.7940	1.1189	26.26	0.33	0.750			
0.4144	26521.09	3.7910	3.7911	1.1320	26.25	0.32	0.750			
0.4178	26740.19	3.7880	3.7880	1.1497	26.23	0.30	0.750			
0.4213	26964.20	3.7850	3.7847	1.1657	26.21	0.28	0.750			
0.4248	27187.00	3.7820	3.7821	1.1831	26.21	0.28	0.750			
0.4284	27418.16	3.7790	3.7790	1.1911	26.20	0.27	0.750			
0.4320	27648.92	3.7760	3.7759	1.2090	26.19	0.26	0.750			
0.4357	27882.80	3.7730	3.7731	1.2226	26.19	0.26	0.750			
0.4393	28114.00	3.7700	3.7700	1.2562	26.17	0.24	0.750			
0.4431	28356.34	3.7670	3.7669	1.2897	26.16	0.23	0.750			
0.4470	28606.55	3.7640	3.7637	1.3214	26.15	0.22	0.750	0.336	0.417	
0.4510	28861.92	3.7610	3.7612	1.3593	26.14	0.21	0.750			
0.4552	29133.27	3.7580	3.7580	1.3889	26.12	0.19	0.750			
0.4594	29401.98	3.7550	3.7546	1.4251	26.11	0.18	0.750			
0.4637	29674.42	3.7520	3.7522	1.4485	26.10	0.17	0.750			
0.4682	29963.38	3.7490	3.7491	1.4668	26.08	0.15	0.750			
0.4726	30247.32	3.7460	3.7460	1.5051	26.07	0.14	0.750			
0.4771	30534.99	3.7430	3.7432	1.5223	26.05	0.12	0.750			
0.4817	30831.89	3.7400	3.7401	1.5506	26.04	0.11	0.750			
0.4864	31131.44	3.7370	3.7371	1.5901	26.02	0.09	0.750			
0.4912	31437.65	3.7340	3.7338	1.6113	26.01	0.08	0.750			
0.4961	31752.02	3.7310	3.7309	1.6573	25.99	0.06	0.750			
0.5011	32072.10	3.7280	3.7280	1.7256	25.98	0.05	0.750			
0.5063	32402.28	3.7250	3.7248	1.7691	25.97	0.04	0.750			
0.5118	32753.50	3.7220	3.7221	1.8358	25.96	0.03	0.750			
0.5174	33116.42	3.7190	3.7189	1.8897	25.94	0.01	0.750			
0.5232	33487.63	3.7160	3.7159	1.9555	25.93	-0.00	0.750			
0.5292	33869.91	3.7130	3.7131	2.0118	25.91	-0.02	0.750			
0.5353	34258.79	3.7100	3.7098	2.0747	25.89	-0.04	0.750			
0.5416	34662.71	3.7070	3.7070	2.1261	25.87	-0.06	0.750			
0.5481	35076.10	3.7040	3.7039	2.1910	25.86	-0.07	0.750			
0.5548	35507.16	3.7010	3.7010	2.2817	25.83	-0.10	0.750			
0.5617	35946.60	3.6980	3.6979	2.3115	25.81	-0.12	0.750			
0.5687	36398.89	3.6950	3.6950	2.3855	25.80	-0.13	0.750			
0.5759	36859.04	3.6920	3.6921	2.4481	25.78	-0.15	0.750			
0.5834	37335.12	3.6890	3.6889	2.5437	25.76	-0.17	0.750			
0.5910	37825.75	3.6860	3.6859	2.6028	25.75	-0.18	0.750			
0.5989	38329.73	3.6830	3.6830	2.7185	25.74	-0.19	0.750			
0.6074	38872.69	3.6800	3.6801	2.7963	25.72	-0.21	0.750			
0.6159	39418.51	3.6770	3.6773	2.8972	25.71	-0.22	0.750			
0.6247	39981.12	3.6740	3.6740	2.9846	25.70	-0.23	0.750			
0.6338	40564.74	3.6710	3.6710	2.9959	25.68	-0.25	0.750			
0.6431	41158.19	3.6680	3.6681	2.9959	25.68	-0.25	0.750			
0.6523	41745.48	3.6650	3.6650	2.8713	25.67	-0.26	0.750			
0.6607	42284.57	3.6620	3.6621	2.6398	25.66	-0.27	0.750			
0.6681	42755.39	3.6590	3.6591	2.3653	25.67	-0.26	0.750			
0.6746	43175.80	3.6560	3.6561	2.1213	25.68	-0.25	0.750			
0.6804	43544.95	3.6530	3.6529	1.9029	25.68	-0.25	0.750			
0.6856	43881.59	3.6500	3.6499	1.7468	25.68	-0.25	0.750			
0.6906	44195.33	3.6470	3.6469	1.6110	25.68	-0.25	0.750			
0.6952	44493.08	3.6440	3.6442	1.4978	25.68	-0.25	0.750			
0.6996	44774.78	3.6410	3.6411	1.3994	25.68	-0.25	0.750			
0.7035	45024.97	3.6380	3.6381	1.3118	25.69	-0.24	0.750			
0.7073	45266.06	3.6350	3.6349	1.2525	25.69	-0.24	0.750			
0.7108	45490.03	3.6320	3.6320	1.2186	25.69	-0.24	0.750			
0.7143	45717.33	3.6290	3.6291	1.2003	25.69	-0.24	0.750			
0.7179	45946.56	3.6260	3.6260	1.2026	25.69	-0.24	0.750			
0.7216	46181.57	3.6230	3.6228	1.2053	25.69	-0.24	0.750			
0.7252	46411.69	3.6200	3.6201	1.2077	25.69	-0.24	0.750			
0.7288	46645.37	3.6170	3.6170	1.2049	25.70	-0.23	0.750			
0.7325	46880.04	3.6140	3.6140	1.1978	25.70	-0.23	0.750			
0.7361	47108.34	3.6110	3.6111	1.1726	25.70	-0.23	0.750			
0.7396	47333.03	3.6080	3.6081	1.1629	25.70	-0.23	0.750			
0.7430	47551.76	3.6050	3.6051	1.1505	25.70	-0.23	0.750			
0.7464	47771.27	3.6020	3.6017	1.1397	25.70	-0.23	0.750			
0.7498	47984.14	3.5990	3.5991	1.1337	25.70	-0.23	0.750			
0.7531	48199.45	3.5960	3.5960	1.1565	25.70	-0.23	0.750			
0.7566	48423.25	3.5930	3.5931	1.1803	25.70	-0.23	0.750			
0.7602	48650.02	3.5900	3.5900	1.1966	25.70	-0.23	0.750			
0.7638	48882.50	3.5870	3.5871	1.2399	25.70	-0.23	0.750			
0.7676	49123.82	3.5840	3.5841	1.2751	25.70	-0.23	0.750			
0.7715	49376.89	3.5810	3.5808	1.3025	25.70	-0.23	0.750			
0.7754	49623.09	3.5780	3.5782	1.3548	25.71	-0.22	0.750			
0.7795	49888.41	3.5750	3.5750	1.4036	25.71	-0.22	0.750			
0.7838	50163.81	3.5720	3.5717	1.4467	25.72	-0.21	0.750			
0.7882	50444.48	3.5690	3.5692	1.4899	25.72	-0.21	0.750			
0.7927	50733.71	3.5660	3.5663	1.5399	25.72	-0.21	0.750			
0.7975	51042.39	3.5630	3.5626	1.5729	25.72	-0.21	0.750			
0.8023	51345.43	3.5600	3.5601	1.5950	25.72	-0.21	0.750			
0.8071	51652.66	3.5570	3.5571	1.6086	25.72	-0.21	0.750			
0.8120	51965.49	3.5540	3.5541	1.6449	25.72	-0.21	0.750			
0.8170	52285.56	3.5510	3.5509	1.6473	25.71	-0.22	0.750			
0.8220	52607.23	3.5480	3.5478	1.6560	25.71	-0.22	0.750			
0.8269	52924.13	3.5450	3.5451	1.6866	25.71	-0.22	0.750			
0.8320	53245.68	3.5420	3.5422	1.6932	25.72	-0.21	0.750			
0.8370	53568.13	3.5390	3.5391	1.7224	25.73	-0.20	0.750			
0.8423	53907.29	3.5360	3.5359	1.7532	25.74	-0.19	0.750			
0.8478	54256.91	3.5330	3.5330	1.7312	25.75	-0.18	0.750			
0.8536	54630.04	3.5300	3.5297	1.6067	25.77	-0.16	0.750			
0.8584	54938.05	3.5270	3.5272	1.4039	25.79	-0.14	0.750			
0.8626	55204.09	3.5240	3.5245	1.1736	25.81	-0.12	0.750			
0.8657	55404.96	3.5210	3.5209	0.9133	25.82	-0.11	0.750			
0.8674	55515.27	3.5180	3.5179	0.6705	25.83	-0.10	0.750			
0.8688	55603.66	3.5150	3.5147	0.5011	25.84	-0.09	0.750			
0.8699	55674.70	3.5120	3.5119	0.4023	25.84	-0.09	0.750			
0.8710	55744.47	3.5090	3.5091	0.3655	25.85	-0.08	0.750			
0.8720	55808.73	3.5060	3.5057	0.3369	25.85	-0.08	0.750			
0.8730	55869.79	3.5030	3.5031	0.3191	25.86	-0.07	0.750			
0.8739	55928.23	3.5000	3.5000	0.3032	25.86	-0.07	0.750			
0.8748	55984.59	3.4970	3.4969	0.2938	25.87	-0.06	0.750			
0.8756	56040.89	3.4940	3.4940	0.2873	25.87	-0.06	0.750			
0.8765	56094.23	3.4910	3.4910	0.2785	25.88	-0.05	0.750			
0.8773	56147.18	3.4880	3.4879	0.2714	25.88	-0.05	0.750			
0.8781	56198.78	3.4850	3.4851	0.2640	25.89	-0.04	0.750			
0.8789	56248.80	3.4820	3.4820	0.2578	25.89	-0.04	0.750			
0.8796	56297.15	3.4790	3.4790	0.2528	25.90	-0.03	0.750			
0.8804	56344.66	3.4760	3.4760	0.2476	25.90	-0.03	0.750			
0.8811	56391.67	3.4730	3.4729	0.2430	25.91	-0.02	0.750			
0.8818	56438.03	3.4700	3.4699	0.2393	25.91	-0.02	0.750			
0.8826	56483.70	3.4670	3.4671	0.2356	25.92	-0.01	0.750			
0.8833	56528.95	3.4640	3.4640	0.2321	25.92	-0.01	0.750			
0.8840	56573.45	3.4610	3.4610	0.2273	25.93	-0.00	0.750			
0.8846	56616.38	3.4580	3.4580	0.2223	25.93	0.00	0.750			
0.8853	56658.46	3.4550	3.4551	0.2164	25.94	0.01	0.750			
0.8859	56699.85	3.4520	3.4520	0.2118	25.94	0.01	0.750			
0.8866	56740.28	3.4490	3.4490	0.2063	25.94	0.01	0.750			
0.8872	56779.07	3.4460	3.4461	0.2008	25.95	0.02	0.750			
0.8878	56816.97	3.4430	3.4431	0.1951	25.95	0.02	0.750			
0.8883	56853.93	3.4400	3.4399	0.1899	25.96	0.03	0.750			
0.8889	56889.78	3.4370	3.4370	0.1858	25.96	0.03	0.750			
0.8895	56925.04	3.4340	3.4340	0.1798	25.96	0.03	0.750			
0.8900	56959.30	3.4310	3.4310	0.1753	25.97	0.04	0.750			
0.8905	56992.44	3.4280	3.4280	0.1699	25.97	0.04	0.750			
0.8910	57024.58	3.4250	3.4250	0.1648	25.97	0.04	0.750			
0.8915	57055.71	3.4220	3.4219	0.1590	25.98	0.05	0.750			
0.8920	57085.91	3.4190	3.4188	0.1533	25.98	0.05	0.750			
0.8924	57114.76	3.4160	3.4162	0.1472	25.98	0.05	0.750			
0.8928	57142.23	3.4130	3.4131	0.1414	25.98	0.05	0.750			
0.8933	57169.27	3.4100	3.4102	0.1361	25.99	0.06	0.750			
0.8937	57194.63	3.4070	3.4069	0.1293	25.99	0.06	0.750			
0.8940	57219.05	3.4040	3.4040	0.1226	25.99	0.06	0.750			
0.8944	57242.01	3.4010	3.4011	0.1161	25.99	0.06	0.750			
0.8947	57263.95	3.3980	3.3980	0.1097	26.00	0.07	0.750			
0.8951	57285.62	3.3950	3.3948	0.1012	26.00	0.07	0.750			
0.8954	57304.06	3.3920	3.3920	0.0910	26.00	0.07	0.750			
0.8956	57321.01	3.3890	3.3892	0.0817	26.00	0.07	0.750			
0.8959	57335.66	3.3860	3.3862	0.0709	26.00	0.07	0.750			
0.8961	57349.35	3.3830	3.3833	0.0606	26.01	0.08	0.750			
0.8962	57359.81	3.3800	3.3807	0.0484	26.01	0.08	0.750			
0.8964	57367.94	3.3770	3.3781	0.0363	26.01	0.08	0.750			
0.8965	57373.73	3.3740	3.3756	0.0241	26.01	0.08	0.750			
