Ah_balance (normalized)	Ah_balance (mAh)	Voltage - fit (V)	Voltage -  interpolate (V)	dQ/dV (1/V)	Temperature (°C)	Temperature - diff (°C)	Current (C)	R_DC 0ms (mOhm)	R_DC 50ms (mOhm)	R_DC 50 ms PEC (mOhm)
0.0547	3500.74	4.1970	4.1970	0.7570	26.66	0.69	0.750			
0.0570	3646.42	4.1940	4.1941	0.7554	26.66	0.69	0.750			
0.0592	3790.45	4.1910	4.1909	0.7524	26.66	0.69	0.750			
0.0615	3934.48	4.1880	4.1880	0.7518	26.66	0.69	0.750			
0.0637	4077.44	4.1850	4.1850	0.7535	26.66	0.69	0.750			
0.0660	4221.97	4.1820	4.1820	0.7586	26.66	0.69	0.750			
0.0683	4368.18	4.1790	4.1790	0.7602	26.66	0.69	0.750			
0.0705	4515.06	4.1760	4.1760	0.7663	26.66	0.69	0.750			
0.0729	4663.40	4.1730	4.1730	0.7704	26.66	0.69	0.750			
0.0752	4811.73	4.1700	4.1699	0.7669	26.66	0.69	0.750			
0.0775	4958.98	4.1670	4.1670	0.7676	26.66	0.69	0.750			
0.0798	5106.01	4.1640	4.1641	0.7659	26.66	0.69	0.750			
0.0821	5253.39	4.1610	4.1608	0.7639	26.66	0.69	0.750			
0.0844	5399.74	4.1580	4.1580	0.7665	26.66	0.69	0.750			
0.0867	5545.81	4.1550	4.1551	0.7659	26.66	0.69	0.750			
0.0890	5693.38	4.1520	4.1519	0.7685	26.66	0.69	0.750			
0.0913	5841.57	4.1490	4.1490	0.7714	26.66	0.69	0.750			
0.0936	5989.74	4.1460	4.1460	0.7673	26.66	0.69	0.750			
0.0959	6137.63	4.1430	4.1430	0.7677	26.66	0.69	0.750			
0.0982	6284.62	4.1400	4.1400	0.7722	26.66	0.69	0.750			
0.1005	6432.09	4.1370	4.1370	0.7719	26.66	0.69	0.750			
0.1028	6580.54	4.1340	4.1340	0.7744	26.66	0.69	0.750			
0.1052	6729.94	4.1310	4.1310	0.7752	26.66	0.69	0.750			
0.1075	6879.60	4.1280	4.1280	0.7747	26.65	0.68	0.750			
0.1098	7028.23	4.1250	4.1251	0.7787	26.65	0.68	0.750			
0.1121	7176.84	4.1220	4.1220	0.7809	26.64	0.67	0.750			
0.1145	7326.44	4.1190	4.1187	0.7824	26.64	0.67	0.750			
0.1168	7478.34	4.1160	4.1160	0.7828	26.64	0.67	0.750			
0.1192	7630.12	4.1130	4.1131	0.7778	26.64	0.67	0.750			
0.1216	7780.14	4.1100	4.1100	0.7827	26.64	0.67	0.750			
0.1239	7929.33	4.1070	4.1070	0.7818	26.64	0.67	0.750			
0.1262	8075.56	4.1040	4.1040	0.7814	26.64	0.67	0.750			
0.1285	8225.69	4.1010	4.1010	0.7908	26.64	0.67	0.750			
0.1309	8380.75	4.0980	4.0980	0.7944	26.64	0.67	0.750			
0.1334	8534.85	4.0950	4.0950	0.7981	26.64	0.67	0.750			
0.1358	8690.48	4.0920	4.0920	0.7998	26.64	0.67	0.750			
0.1381	8841.32	4.0890	4.0890	0.7963	26.64	0.67	0.750			
0.1405	8993.20	4.0860	4.0860	0.7969	26.64	0.67	0.750			
0.1429	9146.90	4.0830	4.0830	0.7953	26.65	0.68	0.750			
0.1453	9298.70	4.0800	4.0800	0.7996	26.65	0.68	0.750			
0.1477	9453.43	4.0770	4.0770	0.8047	26.65	0.68	0.750			
0.1501	9607.72	4.0740	4.0741	0.8097	26.66	0.69	0.750			
0.1526	9764.20	4.0710	4.0708	0.8137	26.66	0.69	0.750			
0.1550	9920.82	4.0680	4.0680	0.8138	26.66	0.69	0.750			
0.1575	10077.43	4.0650	4.0651	0.8179	26.66	0.69	0.750			
0.1599	10235.34	4.0620	4.0620	0.8223	26.65	0.68	0.750			
0.1624	10392.59	4.0590	4.0590	0.8233	26.65	0.68	0.750			
0.1649	10551.44	4.0560	4.0559	0.8223	26.65	0.68	0.750			
0.1673	10708.28	4.0530	4.0531	0.8255	26.65	0.68	0.750			
0.1698	10869.28	4.0500	4.0500	0.8248	26.65	0.68	0.750			
0.1723	11026.96	4.0470	4.0469	0.8256	26.65	0.68	0.750			
0.1747	11183.38	4.0440	4.0441	0.8272	26.65	0.68	0.750			
0.1772	11343.02	4.0410	4.0406	0.8291	26.65	0.68	0.750			
0.1797	11503.00	4.0380	4.0381	0.8319	26.65	0.68	0.750			
0.1822	11663.98	4.0350	4.0350	0.8349	26.65	0.68	0.750			
0.1847	11822.97	4.0320	4.0321	0.8367	26.65	0.68	0.750			
0.1872	11982.63	4.0290	4.0290	0.8390	26.65	0.68	0.750			
0.1898	12145.26	4.0260	4.0259	0.8458	26.65	0.68	0.750			
0.1923	12308.98	4.0230	4.0230	0.8472	26.65	0.68	0.750			
0.1949	12473.47	4.0200	4.0200	0.8515	26.65	0.68	0.750			
0.1975	12638.85	4.0170	4.0171	0.8530	26.66	0.69	0.750			
0.2000	12801.77	4.0140	4.0140	0.8525	26.66	0.69	0.750			
0.2026	12964.30	4.0110	4.0109	0.8521	26.66	0.69	0.750			
0.2051	13128.72	4.0080	4.0080	0.8517	26.66	0.69	0.750			
0.2077	13292.37	4.0050	4.0050	0.8567	26.66	0.69	0.750			
0.2102	13455.45	4.0020	4.0020	0.8663	26.66	0.69	0.750			
0.2129	13622.82	3.9990	3.9991	0.8732	26.66	0.69	0.750			
0.2155	13792.87	3.9960	3.9960	0.8746	26.66	0.69	0.750			
0.2182	13962.47	3.9930	3.9930	0.8715	26.66	0.69	0.750			
0.2208	14129.41	3.9900	3.9901	0.8763	26.66	0.69	0.750			
0.2234	14298.19	3.9870	3.9870	0.8761	26.66	0.69	0.750			
0.2260	14463.42	3.9840	3.9840	0.8753	26.66	0.69	0.750			
0.2286	14630.68	3.9810	3.9810	0.8790	26.66	0.69	0.750			
0.2313	14802.02	3.9780	3.9781	0.8832	26.66	0.69	0.750			
0.2340	14972.99	3.9750	3.9749	0.8891	26.67	0.70	0.750			
0.2366	15145.22	3.9720	3.9721	0.8943	26.67	0.70	0.750			
0.2393	15315.65	3.9690	3.9689	0.8895	26.67	0.70	0.750			
0.2420	15487.64	3.9660	3.9659	0.8896	26.67	0.70	0.750			
0.2446	15657.53	3.9630	3.9630	0.8866	26.67	0.70	0.750			
0.2473	15827.65	3.9600	3.9601	0.8871	26.66	0.69	0.750			
0.2500	15998.19	3.9570	3.9570	0.8860	26.66	0.69	0.750			
0.2526	16167.00	3.9540	3.9540	0.8830	26.66	0.69	0.750			
0.2553	16336.50	3.9510	3.9510	0.8835	26.66	0.69	0.750			
0.2579	16506.26	3.9480	3.9480	0.8874	26.66	0.69	0.750			
0.2606	16676.91	3.9450	3.9450	0.8884	26.67	0.70	0.750			
0.2632	16847.54	3.9420	3.9419	0.8894	26.67	0.70	0.750			
0.2659	17018.30	3.9390	3.9391	0.8924	26.67	0.70	0.750			
0.2686	17189.38	3.9360	3.9360	0.8954	26.67	0.70	0.750			
0.2713	17361.60	3.9330	3.9330	0.8981	26.66	0.69	0.750			
0.2740	17534.48	3.9300	3.9300	0.9015	26.66	0.69	0.750			
0.2767	17708.28	3.9270	3.9269	0.9019	26.66	0.69	0.750			
0.2795	17885.77	3.9240	3.9240	0.9001	26.66	0.69	0.750			
0.2821	18057.17	3.9210	3.9210	0.8978	26.65	0.68	0.750			
0.2848	18226.34	3.9180	3.9181	0.9044	26.65	0.68	0.750			
0.2875	18399.83	3.9150	3.9151	0.9108	26.64	0.67	0.750			
0.2902	18573.79	3.9120	3.9117	0.9185	26.64	0.67	0.750			
0.2930	18754.43	3.9090	3.9091	0.9137	26.63	0.66	0.750			
0.2958	18931.14	3.9060	3.9061	0.9308	26.63	0.66	0.750			
0.2986	19110.81	3.9030	3.9031	0.9341	26.63	0.66	0.750			
0.3014	19290.11	3.9000	3.8999	0.9289	26.62	0.65	0.750			
0.3042	19468.19	3.8970	3.8972	0.9272	26.61	0.64	0.750			
0.3070	19646.16	3.8940	3.8941	0.9304	26.60	0.63	0.750			
0.3098	19824.92	3.8910	3.8910	0.9320	26.60	0.63	0.750			
0.3126	20004.88	3.8880	3.8879	0.9452	26.59	0.62	0.750			
0.3154	20182.85	3.8850	3.8850	0.9427	26.58	0.61	0.750			
0.3182	20366.90	3.8820	3.8820	0.9431	26.57	0.60	0.750			
0.3211	20548.46	3.8790	3.8790	0.9530	26.57	0.60	0.750			
0.3239	20731.70	3.8760	3.8762	0.9586	26.57	0.60	0.750			
0.3268	20916.07	3.8730	3.8727	0.9613	26.56	0.59	0.750			
0.3297	21102.64	3.8700	3.8700	0.9570	26.55	0.58	0.750			
0.3326	21284.62	3.8670	3.8671	0.9647	26.54	0.57	0.750			
0.3355	21472.58	3.8640	3.8641	0.9764	26.53	0.56	0.750			
0.3384	21658.87	3.8610	3.8609	0.9785	26.52	0.55	0.750			
0.3414	21849.11	3.8580	3.8581	0.9777	26.52	0.55	0.750			
0.3443	22037.43	3.8550	3.8551	0.9835	26.51	0.54	0.750			
0.3473	22226.32	3.8520	3.8520	0.9911	26.51	0.54	0.750			
0.3503	22418.69	3.8490	3.8490	0.9935	26.50	0.53	0.750			
0.3533	22608.64	3.8460	3.8460	0.9915	26.50	0.53	0.750			
0.3562	22799.22	3.8430	3.8430	0.9900	26.48	0.51	0.750			
0.3592	22989.75	3.8400	3.8401	0.9919	26.47	0.50	0.750			
0.3622	23181.86	3.8370	3.8371	0.9962	26.46	0.49	0.750			
0.3652	23371.58	3.8340	3.8340	0.9945	26.45	0.48	0.750			
0.3681	23561.59	3.8310	3.8310	0.9987	26.44	0.47	0.750			
0.3712	23753.79	3.8280	3.8281	1.0079	26.42	0.45	0.750			
0.3742	23947.56	3.8250	3.8250	1.0134	26.41	0.44	0.750			
0.3773	24145.46	3.8220	3.8219	1.0211	26.40	0.43	0.750			
0.3803	24340.85	3.8190	3.8190	1.0219	26.39	0.42	0.750			
0.3834	24537.18	3.8160	3.8160	1.0288	26.38	0.41	0.750			
0.3865	24735.07	3.8130	3.8130	1.0357	26.37	0.40	0.750			
0.3896	24934.72	3.8100	3.8097	1.0415	26.36	0.39	0.750			
0.3927	25134.54	3.8070	3.8070	1.0418	26.35	0.38	0.750			
0.3958	25333.46	3.8040	3.8041	1.0582	26.34	0.37	0.750			
0.3990	25537.14	3.8010	3.8010	1.0743	26.33	0.36	0.750			
0.4023	25746.01	3.7980	3.7976	1.0830	26.32	0.35	0.750			
0.4055	25952.91	3.7950	3.7951	1.0967	26.31	0.34	0.750			
0.4088	26165.57	3.7920	3.7921	1.1150	26.29	0.32	0.750			
0.4122	26383.40	3.7890	3.7890	1.1336	26.28	0.31	0.750			
0.4157	26601.66	3.7860	3.7860	1.1324	26.27	0.30	0.750			
0.4190	26819.13	3.7830	3.7831	1.1552	26.26	0.29	0.750			
0.4225	27041.70	3.7800	3.7800	1.1772	26.25	0.28	0.750			
0.4262	27273.71	3.7770	3.7769	1.1878	26.23	0.26	0.750			
0.4297	27499.35	3.7740	3.7740	1.2212	26.22	0.25	0.750			
0.4333	27733.91	3.7710	3.7711	1.2540	26.20	0.23	0.750			
0.4372	27980.89	3.7680	3.7680	1.2806	26.18	0.21	0.750			
0.4411	28230.18	3.7650	3.7649	1.3101	26.17	0.20	0.750	0.315	0.431	
0.4451	28485.56	3.7620	3.7622	1.3429	26.15	0.18	0.750			
0.4492	28750.21	3.7590	3.7591	1.3668	26.14	0.17	0.750			
0.4534	29015.11	3.7560	3.7560	1.3957	26.13	0.16	0.750			
0.4575	29280.70	3.7530	3.7530	1.4139	26.11	0.14	0.750			
0.4618	29556.24	3.7500	3.7501	1.4393	26.10	0.13	0.750			
0.4662	29837.80	3.7470	3.7470	1.4697	26.09	0.12	0.750			
0.4706	30120.19	3.7440	3.7441	1.5005	26.07	0.10	0.750			
0.4751	30409.43	3.7410	3.7410	1.5392	26.06	0.09	0.750			
0.4798	30707.62	3.7380	3.7381	1.5835	26.04	0.07	0.750			
0.4846	31011.96	3.7350	3.7349	1.6228	26.03	0.06	0.750			
0.4896	31332.17	3.7320	3.7317	1.6597	26.01	0.04	0.750			
0.4946	31652.99	3.7290	3.7291	1.7153	25.99	0.02	0.750			
0.4999	31991.39	3.7260	3.7261	1.7574	25.98	0.01	0.750			
0.5052	32332.14	3.7230	3.7229	1.8106	25.96	-0.01	0.750			
0.5107	32682.11	3.7200	3.7200	1.8541	25.94	-0.03	0.750			
0.5163	33045.90	3.7170	3.7171	1.9194	25.92	-0.05	0.750			
0.5222	33421.53	3.7140	3.7141	1.9787	25.91	-0.06	0.750			
0.5282	33807.64	3.7110	3.7109	2.0413	25.89	-0.08	0.750			
0.5344	34202.52	3.7080	3.7080	2.0755	25.87	-0.10	0.750			
0.5407	34605.92	3.7050	3.7051	2.1598	25.85	-0.12	0.750			
0.5473	35028.50	3.7020	3.7020	2.2192	25.83	-0.14	0.750			
0.5540	35456.90	3.6990	3.6988	2.2775	25.82	-0.15	0.750			
0.5609	35900.14	3.6960	3.6962	2.3295	25.80	-0.17	0.750			
0.5680	36352.52	3.6930	3.6929	2.4334	25.78	-0.19	0.750			
0.5755	36829.22	3.6900	3.6900	2.5210	25.76	-0.21	0.750			
0.5830	37312.05	3.6870	3.6869	2.6036	25.75	-0.22	0.750			
0.5911	37832.42	3.6840	3.6840	2.6876	25.74	-0.23	0.750			
0.5994	38358.66	3.6810	3.6810	2.7733	25.72	-0.25	0.750			
0.6077	38891.97	3.6780	3.6779	2.7902	25.71	-0.26	0.750			
0.6162	39439.57	3.6750	3.6751	2.9027	25.70	-0.27	0.750			
0.6251	40006.91	3.6720	3.6719	2.9556	25.68	-0.29	0.750			
0.6343	40595.45	3.6690	3.6692	2.8862	25.68	-0.29	0.750			
0.6432	41162.48	3.6660	3.6661	2.7050	25.68	-0.29	0.750			
0.6507	41644.46	3.6630	3.6633	2.4181	25.68	-0.29	0.750			
0.6574	42070.97	3.6600	3.6600	2.1308	25.68	-0.29	0.750			
0.6632	42443.05	3.6570	3.6571	1.9300	25.68	-0.29	0.750			
0.6685	42782.08	3.6540	3.6541	1.7584	25.68	-0.29	0.750			
0.6734	43099.37	3.6510	3.6509	1.6232	25.68	-0.29	0.750			
0.6781	43399.03	3.6480	3.6479	1.5230	25.68	-0.29	0.750			
0.6826	43683.69	3.6450	3.6451	1.4305	25.68	-0.29	0.750			
0.6866	43944.71	3.6420	3.6422	1.3478	25.68	-0.29	0.750			
0.6905	44194.73	3.6390	3.6388	1.2557	25.68	-0.29	0.750			
0.6940	44418.71	3.6360	3.6361	1.2117	25.68	-0.29	0.750			
0.6975	44640.04	3.6330	3.6331	1.1811	25.68	-0.29	0.750			
0.7010	44864.62	3.6300	3.6300	1.1786	25.68	-0.29	0.750			
0.7045	45087.66	3.6270	3.6271	1.1860	25.68	-0.29	0.750			
0.7081	45315.32	3.6240	3.6241	1.2025	25.68	-0.29	0.750			
0.7117	45550.88	3.6210	3.6210	1.2106	25.68	-0.29	0.750			
0.7155	45789.23	3.6180	3.6180	1.1995	25.68	-0.29	0.750			
0.7191	46019.96	3.6150	3.6151	1.1980	25.69	-0.28	0.750			
0.7227	46253.63	3.6120	3.6121	1.1831	25.69	-0.28	0.750			
0.7262	46478.13	3.6090	3.6089	1.1629	25.70	-0.27	0.750			
0.7296	46695.73	3.6060	3.6062	1.1419	25.70	-0.27	0.750			
0.7330	46910.42	3.6030	3.6030	1.1319	25.70	-0.27	0.750			
0.7363	47124.59	3.6000	3.6000	1.1408	25.70	-0.27	0.750			
0.7398	47344.82	3.5970	3.5967	1.1417	25.70	-0.27	0.750			
0.7431	47559.87	3.5940	3.5941	1.1629	25.70	-0.27	0.750			
0.7466	47785.18	3.5910	3.5911	1.1980	25.71	-0.26	0.750			
0.7503	48017.56	3.5880	3.5881	1.2271	25.71	-0.26	0.750			
0.7540	48257.42	3.5850	3.5850	1.2587	25.71	-0.26	0.750			
0.7578	48499.46	3.5820	3.5821	1.3109	25.71	-0.26	0.750			
0.7619	48758.99	3.5790	3.5790	1.3534	25.70	-0.27	0.750			
0.7661	49027.24	3.5760	3.5760	1.4093	25.70	-0.27	0.750			
0.7702	49295.03	3.5730	3.5729	1.4537	25.70	-0.27	0.750			
0.7747	49579.47	3.5700	3.5703	1.5000	25.70	-0.27	0.750			
0.7793	49875.70	3.5670	3.5672	1.5494	25.70	-0.27	0.750			
0.7840	50177.08	3.5640	3.5638	1.5962	25.70	-0.27	0.750			
0.7889	50488.91	3.5610	3.5611	1.6156	25.70	-0.27	0.750			
0.7939	50808.76	3.5580	3.5583	1.6412	25.70	-0.27	0.750			
0.7989	51131.53	3.5550	3.5551	1.6636	25.70	-0.27	0.750			
0.8038	51444.60	3.5520	3.5521	1.6666	25.70	-0.27	0.750			
0.8089	51769.67	3.5490	3.5492	1.6758	25.71	-0.26	0.750			
0.8140	52095.34	3.5460	3.5458	1.6901	25.71	-0.26	0.750			
0.8190	52414.17	3.5430	3.5431	1.7099	25.72	-0.25	0.750			
0.8241	52743.27	3.5400	3.5399	1.7469	25.73	-0.24	0.750			
0.8295	53086.65	3.5370	3.5370	1.7734	25.73	-0.24	0.750			
0.8351	53448.15	3.5340	3.5337	1.6743	25.74	-0.23	0.750			
0.8405	53790.31	3.5310	3.5309	1.5460	25.75	-0.22	0.750			
0.8453	54099.95	3.5280	3.5285	1.3288	25.78	-0.19	0.750			
0.8489	54330.89	3.5250	3.5255	1.0750	25.79	-0.18	0.750			
0.8515	54498.42	3.5220	3.5218	0.8030	25.81	-0.16	0.750			
0.8531	54600.35	3.5190	3.5187	0.5945	25.82	-0.15	0.750			
0.8543	54676.07	3.5160	3.5159	0.4449	25.82	-0.15	0.750			
0.8554	54747.22	3.5130	3.5130	0.3901	25.83	-0.14	0.750			
0.8565	54813.73	3.5100	3.5099	0.3521	25.84	-0.13	0.750			
0.8574	54875.95	3.5070	3.5069	0.3273	25.84	-0.13	0.750			
0.8584	54936.40	3.5040	3.5041	0.3136	25.85	-0.12	0.750			
0.8593	54994.44	3.5010	3.5010	0.3022	25.86	-0.11	0.750			
0.8602	55051.59	3.4980	3.4979	0.2932	25.86	-0.11	0.750			
0.8610	55106.34	3.4950	3.4949	0.2828	25.87	-0.10	0.750			
0.8619	55159.88	3.4920	3.4921	0.2756	25.87	-0.10	0.750			
0.8627	55212.43	3.4890	3.4890	0.2696	25.88	-0.09	0.750			
0.8635	55262.96	3.4860	3.4860	0.2644	25.88	-0.09	0.750			
0.8643	55312.67	3.4830	3.4830	0.2568	25.89	-0.08	0.750			
0.8650	55361.61	3.4800	3.4800	0.2527	25.89	-0.08	0.750			
0.8658	55410.14	3.4770	3.4770	0.2481	25.90	-0.07	0.750			
0.8665	55457.32	3.4740	3.4741	0.2436	25.90	-0.07	0.750			
0.8672	55503.54	3.4710	3.4710	0.2385	25.91	-0.06	0.750			
0.8679	55548.59	3.4680	3.4680	0.2329	25.91	-0.06	0.750			
0.8686	55592.70	3.4650	3.4650	0.2269	25.92	-0.05	0.750			
0.8693	55635.63	3.4620	3.4621	0.2225	25.92	-0.05	0.750			
0.8700	55678.31	3.4590	3.4590	0.2189	25.92	-0.05	0.750			
0.8706	55719.85	3.4560	3.4560	0.2139	25.93	-0.04	0.750			
0.8713	55760.42	3.4530	3.4529	0.2089	25.93	-0.04	0.750			
0.8719	55800.01	3.4500	3.4500	0.2032	25.94	-0.03	0.750			
0.8725	55838.71	3.4470	3.4471	0.1984	25.94	-0.03	0.750			
0.8731	55876.30	3.4440	3.4439	0.1929	25.94	-0.03	0.750			
0.8736	55913.04	3.4410	3.4410	0.1878	25.95	-0.02	0.750			
0.8742	55948.30	3.4380	3.4380	0.1817	25.95	-0.02	0.750			
0.8747	55982.66	3.4350	3.4350	0.1763	25.95	-0.02	0.750			
0.8752	56015.97	3.4320	3.4320	0.1712	25.96	-0.01	0.750			
0.8758	56048.13	3.4290	3.4290	0.1664	25.96	-0.01	0.750			
0.8762	56079.88	3.4260	3.4260	0.1613	25.96	-0.01	0.750			
0.8767	56110.34	3.4230	3.4229	0.1560	25.97	-0.00	0.750			
0.8772	56139.86	3.4200	3.4200	0.1505	25.97	-0.00	0.750			
0.8776	56168.53	3.4170	3.4172	0.1445	25.97	0.00	0.750			
0.8781	56195.91	3.4140	3.4140	0.1386	25.98	0.01	0.750			
0.8785	56221.77	3.4110	3.4109	0.1323	25.98	0.01	0.750			
0.8789	56246.54	3.4080	3.4080	0.1257	25.98	0.01	0.750			
0.8792	56270.00	3.4050	3.4049	0.1186	25.98	0.01	0.750			
0.8796	56292.36	3.4020	3.4020	0.1125	25.98	0.01	0.750			
0.8799	56314.72	3.3990	3.3989	0.1029	25.99	0.02	0.750			
0.8802	56333.93	3.3960	3.3959	0.0947	25.99	0.02	0.750			
0.8805	56351.13	3.3930	3.3931	0.0845	25.99	0.02	0.750			
0.8807	56367.49	3.3900	3.3903	0.0757	25.99	0.02	0.750			
0.8810	56380.95	3.3870	3.3874	0.0645	25.99	0.02	0.750			
0.8811	56393.11	3.3840	3.3847	0.0531	26.00	0.03	0.750			
0.8813	56402.13	3.3810	3.3819	0.0409	26.00	0.03	0.750			
0.8814	56408.81	3.3780	3.3794	0.0286	26.00	0.03	0.750			
0.8815	56413.13	3.3750	3.3772	0.0164	26.00	0.03	0.750			
