Ah_balance (normalized)	Ah_balance (mAh)	Voltage - fit (V)	Voltage -  interpolate (V)	dQ/dV (1/V)	Temperature (°C)	Temperature - diff (°C)	Current (C)	R_DC 0ms (mOhm)	R_DC 50ms (mOhm)	R_DC 50 ms PEC (mOhm)
0.0509	3255.57	4.1990	4.1990	0.7839	26.62	0.69	0.750			
0.0532	3404.74	4.1960	4.1961	0.7723	26.62	0.69	0.750			
0.0555	3553.38	4.1930	4.1930	0.7725	26.62	0.69	0.750			
0.0578	3701.27	4.1900	4.1900	0.7704	26.62	0.69	0.750			
0.0601	3848.81	4.1870	4.1869	0.7701	26.61	0.68	0.750			
0.0625	3996.95	4.1840	4.1840	0.7686	26.61	0.68	0.750			
0.0648	4144.04	4.1810	4.1809	0.7663	26.61	0.68	0.750			
0.0670	4291.13	4.1780	4.1780	0.7693	26.61	0.68	0.750			
0.0694	4439.11	4.1750	4.1750	0.7649	26.61	0.68	0.750			
0.0716	4584.76	4.1720	4.1720	0.7704	26.60	0.67	0.750			
0.0739	4731.75	4.1690	4.1690	0.7725	26.60	0.67	0.750			
0.0762	4879.96	4.1660	4.1660	0.7788	26.60	0.67	0.750			
0.0786	5031.48	4.1630	4.1631	0.7828	26.60	0.67	0.750			
0.0810	5185.01	4.1600	4.1600	0.7805	26.60	0.67	0.750			
0.0834	5334.79	4.1570	4.1570	0.7767	26.60	0.67	0.750			
0.0857	5483.68	4.1540	4.1542	0.7815	26.60	0.67	0.750			
0.0880	5631.39	4.1510	4.1511	0.7757	26.60	0.67	0.750			
0.0903	5779.99	4.1480	4.1478	0.7766	26.60	0.67	0.750			
0.0926	5928.72	4.1450	4.1451	0.7802	26.60	0.67	0.750			
0.0950	6079.61	4.1420	4.1420	0.7847	26.60	0.67	0.750			
0.0974	6230.91	4.1390	4.1391	0.7856	26.60	0.67	0.750			
0.0997	6382.36	4.1360	4.1359	0.7844	26.60	0.67	0.750			
0.1021	6531.31	4.1330	4.1329	0.7896	26.60	0.67	0.750			
0.1044	6684.43	4.1300	4.1300	0.7900	26.60	0.67	0.750			
0.1068	6836.78	4.1270	4.1270	0.7851	26.60	0.67	0.750			
0.1092	6987.43	4.1240	4.1240	0.7880	26.60	0.67	0.750			
0.1115	7138.76	4.1210	4.1210	0.7896	26.60	0.67	0.750			
0.1139	7289.37	4.1180	4.1179	0.7916	26.60	0.67	0.750			
0.1163	7441.01	4.1150	4.1150	0.7960	26.60	0.67	0.750			
0.1186	7593.55	4.1120	4.1120	0.7953	26.60	0.67	0.750			
0.1211	7748.57	4.1090	4.1090	0.8031	26.60	0.67	0.750			
0.1235	7904.59	4.1060	4.1061	0.8070	26.60	0.67	0.750			
0.1259	8058.11	4.1030	4.1030	0.8054	26.60	0.67	0.750			
0.1283	8213.23	4.1000	4.1000	0.8095	26.60	0.67	0.750			
0.1308	8370.01	4.0970	4.0970	0.8040	26.60	0.67	0.750			
0.1332	8523.18	4.0940	4.0940	0.8068	26.60	0.67	0.750			
0.1356	8679.68	4.0910	4.0910	0.8102	26.60	0.67	0.750			
0.1380	8833.25	4.0880	4.0881	0.8130	26.60	0.67	0.750			
0.1405	8988.80	4.0850	4.0849	0.8165	26.60	0.67	0.750			
0.1429	9147.96	4.0820	4.0820	0.8155	26.60	0.67	0.750			
0.1454	9304.78	4.0790	4.0790	0.8180	26.60	0.67	0.750			
0.1479	9462.90	4.0760	4.0761	0.8204	26.60	0.67	0.750			
0.1503	9618.84	4.0730	4.0732	0.8231	26.60	0.67	0.750			
0.1528	9776.87	4.0700	4.0698	0.8262	26.60	0.67	0.750			
0.1552	9935.94	4.0670	4.0670	0.8282	26.60	0.67	0.750			
0.1577	10095.86	4.0640	4.0640	0.8352	26.60	0.67	0.750			
0.1603	10258.66	4.0610	4.0611	0.8386	26.59	0.66	0.750			
0.1628	10421.07	4.0580	4.0580	0.8382	26.59	0.66	0.750			
0.1653	10581.51	4.0550	4.0551	0.8381	26.59	0.66	0.750			
0.1678	10741.31	4.0520	4.0520	0.8419	26.59	0.66	0.750			
0.1703	10901.80	4.0490	4.0489	0.8471	26.59	0.66	0.750			
0.1729	11065.52	4.0460	4.0460	0.8484	26.60	0.67	0.750			
0.1755	11229.52	4.0430	4.0430	0.8528	26.60	0.67	0.750			
0.1780	11394.12	4.0400	4.0399	0.8518	26.60	0.67	0.750			
0.1806	11558.90	4.0370	4.0370	0.8507	26.60	0.67	0.750			
0.1831	11720.65	4.0340	4.0340	0.8514	26.60	0.67	0.750			
0.1857	11883.84	4.0310	4.0309	0.8496	26.60	0.67	0.750			
0.1882	12045.09	4.0280	4.0281	0.8488	26.60	0.67	0.750			
0.1908	12209.81	4.0250	4.0250	0.8592	26.60	0.67	0.750			
0.1934	12375.88	4.0220	4.0220	0.8605	26.60	0.67	0.750			
0.1960	12542.16	4.0190	4.0189	0.8652	26.60	0.67	0.750			
0.1985	12706.90	4.0160	4.0161	0.8642	26.60	0.67	0.750			
0.2011	12872.51	4.0130	4.0130	0.8686	26.60	0.67	0.750			
0.2038	13041.17	4.0100	4.0100	0.8732	26.60	0.67	0.750			
0.2064	13208.63	4.0070	4.0070	0.8692	26.60	0.67	0.750			
0.2090	13374.57	4.0040	4.0041	0.8734	26.60	0.67	0.750			
0.2116	13542.36	4.0010	4.0011	0.8843	26.60	0.67	0.750			
0.2143	13712.20	3.9980	3.9978	0.8873	26.60	0.67	0.750			
0.2169	13882.79	3.9950	3.9950	0.8925	26.60	0.67	0.750			
0.2196	14055.18	3.9920	3.9920	0.8980	26.60	0.67	0.750			
0.2224	14230.87	3.9890	3.9891	0.9063	26.60	0.67	0.750			
0.2251	14406.14	3.9860	3.9860	0.9066	26.60	0.67	0.750			
0.2278	14578.10	3.9830	3.9830	0.9029	26.60	0.67	0.750			
0.2305	14752.17	3.9800	3.9800	0.8999	26.60	0.67	0.750			
0.2332	14924.45	3.9770	3.9770	0.9033	26.60	0.67	0.750			
0.2359	15096.90	3.9740	3.9740	0.9031	26.60	0.67	0.750			
0.2386	15270.34	3.9710	3.9710	0.9070	26.60	0.67	0.750			
0.2413	15444.22	3.9680	3.9680	0.9107	26.60	0.67	0.750			
0.2441	15620.20	3.9650	3.9650	0.9072	26.60	0.67	0.750			
0.2468	15793.73	3.9620	3.9621	0.9098	26.60	0.67	0.750			
0.2495	15968.72	3.9590	3.9590	0.9134	26.60	0.67	0.750			
0.2522	16143.06	3.9560	3.9555	0.9133	26.60	0.67	0.750			
0.2550	16319.84	3.9530	3.9531	0.9082	26.60	0.67	0.750			
0.2577	16492.08	3.9500	3.9501	0.9163	26.60	0.67	0.750			
0.2605	16670.07	3.9470	3.9471	0.9240	26.60	0.67	0.750			
0.2632	16845.36	3.9440	3.9441	0.9238	26.60	0.67	0.750			
0.2660	17025.60	3.9410	3.9410	0.9327	26.60	0.67	0.750			
0.2689	17206.62	3.9380	3.9381	0.9284	26.60	0.67	0.750			
0.2716	17385.29	3.9350	3.9350	0.9293	26.60	0.67	0.750			
0.2745	17566.00	3.9320	3.9322	0.9306	26.60	0.67	0.750			
0.2772	17740.53	3.9290	3.9287	0.9250	26.60	0.67	0.750			
0.2800	17918.91	3.9260	3.9260	0.9206	26.60	0.67	0.750			
0.2827	18094.22	3.9230	3.9230	0.9252	26.60	0.67	0.750			
0.2855	18272.64	3.9200	3.9201	0.9336	26.60	0.67	0.750			
0.2883	18450.58	3.9170	3.9170	0.9365	26.60	0.67	0.750			
0.2911	18631.37	3.9140	3.9141	0.9435	26.60	0.67	0.750			
0.2940	18813.80	3.9110	3.9110	0.9391	26.60	0.67	0.750			
0.2968	18992.82	3.9080	3.9081	0.9470	26.60	0.67	0.750			
0.2997	19178.21	3.9050	3.9051	0.9539	26.60	0.67	0.750			
0.3025	19359.57	3.9020	3.9017	0.9529	26.60	0.67	0.750			
0.3054	19544.72	3.8990	3.8991	0.9461	26.59	0.66	0.750			
0.3082	19725.00	3.8960	3.8961	0.9511	26.59	0.66	0.750			
0.3111	19909.00	3.8930	3.8931	0.9586	26.59	0.66	0.750			
0.3139	20091.06	3.8900	3.8899	0.9597	26.58	0.65	0.750			
0.3168	20277.14	3.8870	3.8870	0.9558	26.58	0.65	0.750			
0.3197	20460.75	3.8840	3.8841	0.9688	26.58	0.65	0.750			
0.3226	20647.96	3.8810	3.8811	0.9722	26.58	0.65	0.750			
0.3256	20835.33	3.8780	3.8781	0.9730	26.58	0.65	0.750			
0.3285	21022.69	3.8750	3.8750	0.9746	26.58	0.65	0.750			
0.3314	21209.02	3.8720	3.8721	0.9760	26.57	0.64	0.750			
0.3343	21393.59	3.8690	3.8691	0.9874	26.57	0.64	0.750			
0.3373	21585.26	3.8660	3.8661	1.0019	26.56	0.63	0.750			
0.3403	21779.74	3.8630	3.8631	0.9987	26.56	0.63	0.750			
0.3433	21973.87	3.8600	3.8601	1.0129	26.55	0.62	0.750			
0.3464	22168.04	3.8570	3.8572	1.0251	26.55	0.62	0.750			
0.3495	22367.37	3.8540	3.8541	1.0401	26.54	0.61	0.750			
0.3526	22565.74	3.8510	3.8507	1.0321	26.54	0.61	0.750			
0.3557	22765.51	3.8480	3.8480	1.0481	26.53	0.60	0.750			
0.3589	22969.92	3.8450	3.8451	1.0625	26.52	0.59	0.750			
0.3621	23176.59	3.8420	3.8421	1.0716	26.52	0.59	0.750			
0.3654	23384.13	3.8390	3.8388	1.0695	26.51	0.58	0.750			
0.3686	23587.94	3.8360	3.8361	1.0772	26.50	0.57	0.750			
0.3718	23793.94	3.8330	3.8330	1.0845	26.49	0.56	0.750			
0.3751	24003.35	3.8300	3.8301	1.0969	26.49	0.56	0.750			
0.3784	24216.44	3.8270	3.8269	1.0915	26.48	0.55	0.750			
0.3816	24425.54	3.8240	3.8241	1.1037	26.47	0.54	0.750			
0.3850	24638.70	3.8210	3.8210	1.1117	26.46	0.53	0.750			
0.3883	24853.52	3.8180	3.8181	1.1152	26.44	0.51	0.750			
0.3917	25067.85	3.8150	3.8151	1.1133	26.44	0.51	0.750			
0.3950	25281.17	3.8120	3.8121	1.1205	26.43	0.50	0.750			
0.3984	25496.82	3.8090	3.8091	1.1283	26.43	0.50	0.750			
0.4018	25717.35	3.8060	3.8058	1.1341	26.42	0.49	0.750			
0.4052	25930.72	3.8030	3.8030	1.1340	26.41	0.48	0.750			
0.4086	26150.26	3.8000	3.8001	1.1450	26.39	0.46	0.750			
0.4121	26371.94	3.7970	3.7970	1.1599	26.38	0.45	0.750			
0.4156	26596.85	3.7940	3.7939	1.1507	26.37	0.44	0.750			
0.4190	26817.70	3.7910	3.7910	1.1709	26.36	0.43	0.750			
0.4225	27042.84	3.7880	3.7881	1.1835	26.35	0.42	0.750			
0.4262	27273.71	3.7850	3.7848	1.1897	26.34	0.41	0.750			
0.4297	27500.39	3.7820	3.7821	1.2042	26.33	0.40	0.750			
0.4333	27732.05	3.7790	3.7791	1.2251	26.33	0.40	0.750			
0.4370	27968.13	3.7760	3.7761	1.2463	26.32	0.39	0.750			
0.4408	28214.15	3.7730	3.7729	1.2332	26.31	0.38	0.750			
0.4445	28448.40	3.7700	3.7702	1.2601	26.29	0.36	0.750			
0.4482	28686.67	3.7670	3.7672	1.2977	26.28	0.35	0.750			
0.4521	28937.43	3.7640	3.7636	1.3448	26.26	0.33	0.750			
0.4562	29195.80	3.7610	3.7617	1.3766	26.25	0.32	0.750	0.317	0.404	
0.4605	29470.31	3.7580	3.7582	1.4174	26.24	0.31	0.750			
0.4650	29758.57	3.7550	3.7549	1.4428	26.23	0.30	0.750			
0.4693	30035.99	3.7520	3.7521	1.4730	26.22	0.29	0.750			
0.4737	30316.15	3.7490	3.7491	1.4829	26.20	0.27	0.750			
0.4780	30592.52	3.7460	3.7460	1.4988	26.19	0.26	0.750			
0.4825	30882.40	3.7430	3.7431	1.5452	26.18	0.25	0.750			
0.4873	31186.29	3.7400	3.7401	1.5963	26.17	0.24	0.750			
0.4922	31497.92	3.7370	3.7369	1.6551	26.16	0.23	0.750			
0.4972	31823.09	3.7340	3.7341	1.6995	26.15	0.22	0.750			
0.5023	32149.09	3.7310	3.7310	1.7388	26.13	0.20	0.750			
0.5077	32495.97	3.7280	3.7279	1.7804	26.11	0.18	0.750			
0.5130	32834.20	3.7250	3.7251	1.8079	26.10	0.17	0.750			
0.5185	33184.69	3.7220	3.7219	1.8559	26.08	0.15	0.750			
0.5242	33548.48	3.7190	3.7188	1.9238	26.06	0.13	0.750			
0.5300	33919.24	3.7160	3.7161	1.9681	26.04	0.11	0.750			
0.5360	34303.87	3.7130	3.7128	2.0288	26.03	0.10	0.750			
0.5421	34696.00	3.7100	3.7100	2.0888	26.01	0.08	0.750			
0.5485	35105.95	3.7070	3.7070	2.1548	26.00	0.07	0.750			
0.5551	35526.22	3.7040	3.7039	2.2279	25.98	0.05	0.750			
0.5618	35957.13	3.7010	3.7011	2.2773	25.97	0.04	0.750			
0.5688	36402.11	3.6980	3.6980	2.3542	25.95	0.02	0.750			
0.5760	36863.33	3.6950	3.6950	2.4343	25.92	-0.01	0.750			
0.5834	37335.27	3.6920	3.6919	2.4983	25.91	-0.02	0.750			
0.5910	37826.38	3.6890	3.6889	2.5686	25.89	-0.04	0.750			
0.5988	38322.80	3.6860	3.6861	2.6762	25.88	-0.05	0.750			
0.6070	38847.35	3.6830	3.6830	2.7358	25.85	-0.08	0.750			
0.6154	39386.96	3.6800	3.6801	2.8139	25.83	-0.10	0.750			
0.6240	39933.36	3.6770	3.6770	2.9232	25.82	-0.11	0.750			
0.6328	40501.05	3.6740	3.6740	2.9972	25.81	-0.12	0.750			
0.6420	41085.10	3.6710	3.6710	3.0347	25.79	-0.14	0.750			
0.6513	41682.61	3.6680	3.6681	3.1117	25.79	-0.14	0.750			
0.6608	42288.63	3.6650	3.6649	3.0615	25.78	-0.15	0.750			
0.6701	42888.95	3.6620	3.6622	2.9369	25.77	-0.16	0.750			
0.6788	43445.95	3.6590	3.6591	2.7206	25.77	-0.16	0.750			
0.6862	43914.70	3.6560	3.6563	2.3745	25.77	-0.16	0.750			
0.6925	44322.68	3.6530	3.6531	2.0919	25.77	-0.16	0.750			
0.6985	44702.84	3.6500	3.6500	1.8843	25.77	-0.16	0.750			
0.7036	45028.25	3.6470	3.6471	1.7079	25.77	-0.16	0.750			
0.7084	45338.24	3.6440	3.6440	1.5789	25.77	-0.16	0.750			
0.7130	45628.93	3.6410	3.6410	1.4649	25.77	-0.16	0.750			
0.7171	45896.77	3.6380	3.6381	1.3718	25.77	-0.16	0.750			
0.7210	46143.76	3.6350	3.6350	1.3000	25.77	-0.16	0.750			
0.7247	46379.83	3.6320	3.6320	1.2433	25.77	-0.16	0.750			
0.7283	46609.30	3.6290	3.6290	1.2098	25.77	-0.16	0.750			
0.7318	46834.27	3.6260	3.6260	1.2050	25.77	-0.16	0.750			
0.7354	47063.11	3.6230	3.6230	1.2091	25.77	-0.16	0.750			
0.7391	47299.71	3.6200	3.6198	1.2077	25.77	-0.16	0.750			
0.7427	47532.61	3.6170	3.6172	1.2172	25.77	-0.16	0.750			
0.7464	47768.43	3.6140	3.6140	1.2157	25.76	-0.17	0.750			
0.7501	48003.43	3.6110	3.6110	1.2140	25.76	-0.17	0.750			
0.7537	48236.67	3.6080	3.6082	1.1894	25.76	-0.17	0.750			
0.7572	48462.17	3.6050	3.6051	1.1743	25.76	-0.17	0.750			
0.7607	48687.35	3.6020	3.6020	1.1633	25.77	-0.16	0.750			
0.7642	48907.71	3.5990	3.5989	1.1615	25.77	-0.16	0.750			
0.7676	49124.99	3.5960	3.5959	1.1603	25.77	-0.16	0.750			
0.7710	49346.76	3.5930	3.5930	1.1780	25.77	-0.16	0.750			
0.7746	49572.65	3.5900	3.5900	1.2006	25.77	-0.16	0.750			
0.7783	49808.09	3.5870	3.5870	1.2199	25.77	-0.16	0.750			
0.7819	50041.05	3.5840	3.5841	1.2656	25.76	-0.17	0.750			
0.7857	50285.05	3.5810	3.5810	1.3073	25.76	-0.17	0.750			
0.7897	50538.92	3.5780	3.5776	1.3480	25.75	-0.18	0.750			
0.7938	50804.57	3.5750	3.5752	1.3794	25.75	-0.18	0.750			
0.7980	51073.53	3.5720	3.5721	1.4332	25.75	-0.18	0.750			
0.8025	51358.06	3.5690	3.5688	1.4771	25.75	-0.18	0.750			
0.8069	51642.21	3.5660	3.5661	1.5188	25.75	-0.18	0.750			
0.8115	51938.99	3.5630	3.5632	1.5486	25.75	-0.18	0.750			
0.8164	52248.80	3.5600	3.5599	1.5780	25.75	-0.18	0.750			
0.8212	52558.10	3.5570	3.5572	1.5889	25.75	-0.18	0.750			
0.8260	52866.00	3.5540	3.5540	1.6180	25.75	-0.18	0.750			
0.8308	53168.67	3.5510	3.5512	1.6250	25.75	-0.18	0.750			
0.8357	53485.73	3.5480	3.5478	1.6378	25.75	-0.18	0.750			
0.8406	53796.01	3.5450	3.5448	1.6618	25.75	-0.18	0.750			
0.8456	54120.32	3.5420	3.5419	1.6965	25.75	-0.18	0.750			
0.8508	54450.53	3.5390	3.5392	1.7225	25.75	-0.18	0.750			
0.8560	54787.18	3.5360	3.5363	1.7622	25.75	-0.18	0.750			
0.8615	55137.00	3.5330	3.5331	1.7583	25.75	-0.18	0.750			
0.8671	55492.69	3.5300	3.5299	1.6993	25.76	-0.17	0.750			
0.8725	55839.33	3.5270	3.5269	1.5146	25.78	-0.15	0.750			
0.8771	56133.69	3.5240	3.5243	1.2923	25.79	-0.14	0.750			
0.8805	56353.00	3.5210	3.5213	1.0218	25.81	-0.12	0.750			
0.8830	56514.05	3.5180	3.5174	0.7553	25.82	-0.11	0.750			
0.8844	56601.02	3.5150	3.5146	0.5608	25.82	-0.11	0.750			
0.8856	56678.29	3.5120	3.5118	0.4405	25.83	-0.10	0.750			
0.8866	56741.36	3.5090	3.5090	0.3798	25.84	-0.09	0.750			
0.8876	56808.56	3.5060	3.5058	0.3486	25.84	-0.09	0.750			
0.8886	56870.65	3.5030	3.5030	0.3260	25.84	-0.09	0.750			
0.8895	56930.55	3.5000	3.5001	0.3107	25.85	-0.08	0.750			
0.8904	56988.58	3.4970	3.4970	0.2992	25.85	-0.08	0.750			
0.8913	57044.36	3.4940	3.4940	0.2904	25.86	-0.07	0.750			
0.8922	57098.32	3.4910	3.4910	0.2816	25.87	-0.06	0.750			
0.8930	57151.05	3.4880	3.4880	0.2761	25.87	-0.06	0.750			
0.8938	57204.18	3.4850	3.4850	0.2709	25.88	-0.05	0.750			
0.8946	57255.80	3.4820	3.4820	0.2665	25.88	-0.05	0.750			
0.8954	57306.82	3.4790	3.4790	0.2611	25.89	-0.04	0.750			
0.8962	57356.41	3.4760	3.4761	0.2552	25.89	-0.04	0.750			
0.8969	57404.67	3.4730	3.4728	0.2496	25.90	-0.03	0.750			
0.8977	57451.74	3.4700	3.4701	0.2434	25.90	-0.03	0.750			
0.8984	57497.69	3.4670	3.4670	0.2384	25.91	-0.02	0.750			
0.8991	57543.09	3.4640	3.4640	0.2323	25.91	-0.02	0.750			
0.8998	57587.99	3.4610	3.4610	0.2278	25.91	-0.02	0.750			
0.9005	57630.38	3.4580	3.4580	0.2242	25.92	-0.01	0.750			
0.9011	57673.25	3.4550	3.4551	0.2208	25.92	-0.01	0.750			
0.9018	57715.17	3.4520	3.4519	0.2164	25.93	-0.00	0.750			
0.9024	57756.04	3.4490	3.4491	0.2127	25.93	0.00	0.750			
0.9031	57796.87	3.4460	3.4460	0.2087	25.94	0.01	0.750			
0.9037	57836.74	3.4430	3.4431	0.2051	25.94	0.01	0.750			
0.9043	57876.44	3.4400	3.4399	0.2009	25.94	0.01	0.750			
0.9049	57914.21	3.4370	3.4371	0.1943	25.95	0.02	0.750			
0.9055	57951.22	3.4340	3.4340	0.1894	25.95	0.02	0.750			
0.9060	57987.03	3.4310	3.4309	0.1836	25.95	0.02	0.750			
0.9066	58021.77	3.4280	3.4281	0.1786	25.96	0.03	0.750			
0.9071	58054.91	3.4250	3.4250	0.1736	25.96	0.03	0.750			
0.9076	58088.16	3.4220	3.4220	0.1688	25.96	0.03	0.750			
0.9081	58120.09	3.4190	3.4190	0.1639	25.97	0.04	0.750			
0.9086	58151.12	3.4160	3.4159	0.1587	25.97	0.04	0.750			
0.9091	58181.42	3.4130	3.4131	0.1535	25.97	0.04	0.750			
0.9095	58210.30	3.4100	3.4100	0.1483	25.98	0.05	0.750			
0.9100	58238.22	3.4070	3.4070	0.1426	25.98	0.05	0.750			
0.9104	58264.97	3.4040	3.4040	0.1368	25.98	0.05	0.750			
0.9108	58290.74	3.4010	3.4010	0.1305	25.99	0.06	0.750			
0.9112	58315.59	3.3980	3.3980	0.1255	25.99	0.06	0.750			
0.9115	58339.18	3.3950	3.3951	0.1188	25.99	0.06	0.750			
0.9119	58361.47	3.3920	3.3920	0.1124	25.99	0.06	0.750			
0.9122	58382.61	3.3890	3.3890	0.1057	25.99	0.06	0.750			
0.9125	58402.91	3.3860	3.3859	0.0970	26.00	0.07	0.750			
0.9128	58420.68	3.3830	3.3829	0.0881	26.00	0.07	0.750			
0.9131	58437.25	3.3800	3.3801	0.0799	26.00	0.07	0.750			
0.9133	58451.66	3.3770	3.3772	0.0702	26.00	0.07	0.750			
0.9135	58464.96	3.3740	3.3743	0.0600	26.00	0.07	0.750			
0.9137	58475.43	3.3710	3.3715	0.0490	26.00	0.07	0.750			
0.9138	58483.77	3.3680	3.3689	0.0379	26.00	0.07	0.750			
