Ah_balance (normalized)	Ah_balance (mAh)	Voltage - fit (V)	Voltage -  interpolate (V)	dQ/dV (1/V)	Temperature (°C)	Temperature - diff (°C)	Current (C)	R_DC 0ms (mOhm)	R_DC 50ms (mOhm)	R_DC 50 ms PEC (mOhm)
0.0515	3294.78	4.1980	4.1981	0.7738	26.58	0.59	0.750			
0.0538	3444.85	4.1950	4.1950	0.7796	26.58	0.59	0.750			
0.0561	3593.37	4.1920	4.1920	0.7695	26.58	0.59	0.750			
0.0584	3738.37	4.1890	4.1890	0.7665	26.58	0.59	0.750			
0.0607	3884.35	4.1860	4.1861	0.7659	26.58	0.59	0.750			
0.0630	4031.42	4.1830	4.1827	0.7679	26.58	0.59	0.750			
0.0653	4179.41	4.1800	4.1800	0.7704	26.58	0.59	0.750			
0.0676	4326.86	4.1770	4.1771	0.7726	26.58	0.59	0.750			
0.0700	4477.64	4.1740	4.1740	0.7775	26.58	0.59	0.750			
0.0723	4625.70	4.1710	4.1710	0.7751	26.58	0.59	0.750			
0.0746	4774.50	4.1680	4.1681	0.7782	26.58	0.59	0.750			
0.0769	4923.09	4.1650	4.1650	0.7814	26.58	0.59	0.750			
0.0793	5075.37	4.1620	4.1620	0.7809	26.58	0.59	0.750			
0.0817	5226.83	4.1590	4.1589	0.7822	26.58	0.59	0.750			
0.0840	5376.90	4.1560	4.1560	0.7791	26.58	0.59	0.750			
0.0863	5526.39	4.1530	4.1531	0.7769	26.58	0.59	0.750			
0.0887	5673.65	4.1500	4.1500	0.7752	26.58	0.59	0.750			
0.0910	5821.57	4.1470	4.1470	0.7786	26.58	0.59	0.750			
0.0933	5969.97	4.1440	4.1440	0.7769	26.58	0.59	0.750			
0.0956	6119.71	4.1410	4.1410	0.7842	26.58	0.59	0.750			
0.0980	6270.20	4.1380	4.1381	0.7928	26.58	0.59	0.750			
0.1004	6424.02	4.1350	4.1348	0.7966	26.58	0.59	0.750			
0.1028	6577.78	4.1320	4.1320	0.8029	26.58	0.59	0.750			
0.1052	6733.46	4.1290	4.1290	0.8029	26.58	0.59	0.750			
0.1076	6889.30	4.1260	4.1260	0.8008	26.58	0.59	0.750			
0.1100	7041.57	4.1230	4.1230	0.8021	26.58	0.59	0.750			
0.1124	7196.03	4.1200	4.1199	0.7983	26.58	0.59	0.750			
0.1148	7348.08	4.1170	4.1170	0.7929	26.58	0.59	0.750			
0.1172	7501.26	4.1140	4.1140	0.7943	26.58	0.59	0.750			
0.1195	7651.02	4.1110	4.1113	0.7951	26.58	0.59	0.750			
0.1220	7805.30	4.1080	4.1079	0.7984	26.58	0.59	0.750			
0.1243	7957.21	4.1050	4.1050	0.8019	26.58	0.59	0.750			
0.1267	8110.51	4.1020	4.1019	0.8023	26.58	0.59	0.750			
0.1292	8269.69	4.0990	4.0991	0.8036	26.58	0.59	0.750			
0.1316	8422.25	4.0960	4.0959	0.8032	26.58	0.59	0.750			
0.1340	8574.65	4.0930	4.0932	0.8038	26.58	0.59	0.750			
0.1364	8728.11	4.0900	4.0901	0.8076	26.58	0.59	0.750			
0.1388	8883.22	4.0870	4.0869	0.8097	26.58	0.59	0.750			
0.1412	9039.74	4.0840	4.0840	0.8074	26.59	0.60	0.750			
0.1437	9194.65	4.0810	4.0811	0.8150	26.59	0.60	0.750			
0.1461	9352.40	4.0780	4.0780	0.8164	26.59	0.60	0.750			
0.1485	9506.39	4.0750	4.0750	0.8238	26.60	0.61	0.750			
0.1510	9663.47	4.0720	4.0719	0.8292	26.60	0.61	0.750			
0.1536	9827.87	4.0690	4.0690	0.8238	26.60	0.61	0.750			
0.1561	9987.77	4.0660	4.0660	0.8310	26.60	0.61	0.750			
0.1586	10147.21	4.0630	4.0633	0.8283	26.60	0.61	0.750			
0.1610	10303.58	4.0600	4.0601	0.8315	26.60	0.61	0.750			
0.1635	10461.88	4.0570	4.0568	0.8353	26.60	0.61	0.750			
0.1660	10622.50	4.0540	4.0541	0.8318	26.60	0.61	0.750			
0.1685	10784.27	4.0510	4.0510	0.8444	26.60	0.61	0.750			
0.1711	10947.98	4.0480	4.0482	0.8563	26.60	0.61	0.750			
0.1736	11111.50	4.0450	4.0450	0.8593	26.60	0.61	0.750			
0.1762	11277.53	4.0420	4.0420	0.8631	26.60	0.61	0.750			
0.1788	11444.70	4.0390	4.0390	0.8597	26.60	0.61	0.750			
0.1814	11611.03	4.0360	4.0361	0.8666	26.60	0.61	0.750			
0.1840	11777.92	4.0330	4.0331	0.8695	26.61	0.62	0.750			
0.1866	11944.87	4.0300	4.0300	0.8636	26.61	0.62	0.750			
0.1892	12108.60	4.0270	4.0271	0.8698	26.61	0.62	0.750			
0.1918	12277.58	4.0240	4.0239	0.8624	26.61	0.62	0.750			
0.1944	12443.49	4.0210	4.0210	0.8685	26.62	0.63	0.750			
0.1971	12611.55	4.0180	4.0181	0.8696	26.62	0.63	0.750			
0.1997	12777.70	4.0150	4.0150	0.8614	26.62	0.63	0.750			
0.2022	12942.52	4.0120	4.0120	0.8593	26.62	0.63	0.750			
0.2048	13104.35	4.0090	4.0092	0.8634	26.62	0.63	0.750			
0.2073	13268.42	4.0060	4.0060	0.8638	26.62	0.63	0.750			
0.2099	13435.53	4.0030	4.0030	0.8710	26.62	0.63	0.750			
0.2126	13604.66	4.0000	3.9997	0.8811	26.62	0.63	0.750			
0.2153	13777.68	3.9970	3.9972	0.8881	26.62	0.63	0.750			
0.2180	13950.19	3.9940	3.9940	0.8921	26.62	0.63	0.750			
0.2206	14121.45	3.9910	3.9910	0.8949	26.62	0.63	0.750			
0.2233	14292.84	3.9880	3.9881	0.8947	26.62	0.63	0.750			
0.2260	14463.68	3.9850	3.9848	0.9008	26.62	0.63	0.750			
0.2287	14636.13	3.9820	3.9821	0.8978	26.63	0.64	0.750			
0.2314	14809.93	3.9790	3.9789	0.9008	26.63	0.64	0.750			
0.2341	14982.32	3.9760	3.9761	0.9048	26.63	0.64	0.750			
0.2368	15155.77	3.9730	3.9730	0.9091	26.64	0.65	0.750			
0.2395	15330.93	3.9700	3.9700	0.9083	26.64	0.65	0.750			
0.2423	15506.87	3.9670	3.9670	0.9062	26.64	0.65	0.750			
0.2450	15679.51	3.9640	3.9641	0.9109	26.64	0.65	0.750			
0.2477	15855.36	3.9610	3.9611	0.9196	26.64	0.65	0.750			
0.2505	16031.91	3.9580	3.9579	0.9182	26.64	0.65	0.750			
0.2532	16207.87	3.9550	3.9550	0.9146	26.64	0.65	0.750			
0.2560	16384.60	3.9520	3.9521	0.9172	26.64	0.65	0.750			
0.2588	16562.76	3.9490	3.9490	0.9240	26.64	0.65	0.750			
0.2615	16738.66	3.9460	3.9460	0.9233	26.64	0.65	0.750			
0.2643	16914.72	3.9430	3.9430	0.9224	26.64	0.65	0.750			
0.2671	17092.51	3.9400	3.9400	0.9194	26.65	0.66	0.750			
0.2698	17269.18	3.9370	3.9371	0.9285	26.65	0.66	0.750			
0.2726	17447.90	3.9340	3.9340	0.9309	26.66	0.67	0.750			
0.2754	17625.43	3.9310	3.9308	0.9346	26.66	0.67	0.750			
0.2782	17805.65	3.9280	3.9280	0.9336	26.66	0.67	0.750			
0.2810	17986.42	3.9250	3.9251	0.9356	26.66	0.67	0.750			
0.2839	18167.54	3.9220	3.9221	0.9412	26.65	0.66	0.750			
0.2867	18347.56	3.9190	3.9190	0.9387	26.65	0.66	0.750			
0.2895	18528.56	3.9160	3.9160	0.9328	26.65	0.66	0.750			
0.2923	18707.36	3.9130	3.9130	0.9357	26.65	0.66	0.750			
0.2951	18885.34	3.9100	3.9101	0.9401	26.64	0.65	0.750			
0.2979	19067.33	3.9070	3.9070	0.9473	26.64	0.65	0.750			
0.3008	19249.55	3.9040	3.9038	0.9480	26.64	0.65	0.750			
0.3036	19433.35	3.9010	3.9010	0.9380	26.64	0.65	0.750			
0.3064	19612.76	3.8980	3.8981	0.9516	26.64	0.65	0.750			
0.3093	19795.59	3.8950	3.8951	0.9593	26.64	0.65	0.750			
0.3122	19978.23	3.8920	3.8918	0.9602	26.64	0.65	0.750			
0.3151	20164.57	3.8890	3.8891	0.9623	26.64	0.65	0.750			
0.3180	20350.41	3.8860	3.8861	0.9703	26.64	0.65	0.750			
0.3209	20538.30	3.8830	3.8831	0.9766	26.63	0.64	0.750			
0.3238	20726.08	3.8800	3.8801	0.9756	26.63	0.64	0.750			
0.3268	20915.86	3.8770	3.8770	0.9793	26.63	0.64	0.750			
0.3297	21102.08	3.8740	3.8741	0.9893	26.63	0.64	0.750			
0.3327	21293.54	3.8710	3.8710	1.0007	26.62	0.63	0.750			
0.3358	21488.90	3.8680	3.8680	1.0080	26.62	0.63	0.750			
0.3388	21681.91	3.8650	3.8651	1.0079	26.62	0.63	0.750			
0.3418	21875.92	3.8620	3.8621	1.0055	26.61	0.62	0.750			
0.3448	22067.95	3.8590	3.8590	1.0144	26.61	0.62	0.750			
0.3479	22263.30	3.8560	3.8560	1.0222	26.60	0.61	0.750			
0.3509	22458.80	3.8530	3.8530	1.0233	26.60	0.61	0.750			
0.3540	22656.20	3.8500	3.8501	1.0415	26.59	0.60	0.750			
0.3572	22858.48	3.8470	3.8470	1.0533	26.58	0.59	0.750			
0.3604	23063.43	3.8440	3.8441	1.0656	26.57	0.58	0.750			
0.3636	23269.68	3.8410	3.8409	1.0629	26.56	0.57	0.750			
0.3667	23471.96	3.8380	3.8380	1.0730	26.55	0.56	0.750			
0.3700	23678.89	3.8350	3.8351	1.0857	26.55	0.56	0.750			
0.3732	23887.66	3.8320	3.8320	1.0973	26.54	0.55	0.750			
0.3766	24100.78	3.8290	3.8289	1.0941	26.54	0.55	0.750			
0.3799	24313.17	3.8260	3.8261	1.1064	26.53	0.54	0.750			
0.3832	24526.35	3.8230	3.8231	1.1166	26.52	0.53	0.750			
0.3866	24742.28	3.8200	3.8200	1.1232	26.50	0.51	0.750			
0.3900	24957.40	3.8170	3.8171	1.1174	26.50	0.51	0.750			
0.3933	25170.71	3.8140	3.8140	1.1244	26.49	0.50	0.750			
0.3967	25387.22	3.8110	3.8111	1.1349	26.48	0.49	0.750			
0.4001	25609.49	3.8080	3.8077	1.1479	26.47	0.48	0.750			
0.4036	25828.58	3.8050	3.8051	1.1505	26.46	0.47	0.750			
0.4070	26049.55	3.8020	3.8020	1.1577	26.45	0.46	0.750			
0.4106	26275.62	3.7990	3.7992	1.1646	26.44	0.45	0.750			
0.4141	26501.35	3.7960	3.7959	1.1469	26.43	0.44	0.750			
0.4175	26718.81	3.7930	3.7931	1.1693	26.42	0.43	0.750			
0.4210	26941.76	3.7900	3.7901	1.1763	26.40	0.41	0.750			
0.4245	27169.57	3.7870	3.7867	1.1831	26.39	0.40	0.750			
0.4281	27399.02	3.7840	3.7841	1.1962	26.38	0.39	0.750			
0.4317	27629.03	3.7810	3.7812	1.2134	26.37	0.38	0.750			
0.4354	27863.98	3.7780	3.7780	1.2347	26.37	0.38	0.750			
0.4391	28100.85	3.7750	3.7751	1.2349	26.36	0.37	0.750			
0.4428	28341.43	3.7720	3.7721	1.2596	26.34	0.35	0.750			
0.4466	28582.88	3.7690	3.7691	1.2963	26.33	0.34	0.750			
0.4505	28833.81	3.7660	3.7658	1.3314	26.31	0.32	0.750			
0.4545	29089.98	3.7630	3.7630	1.3672	26.30	0.31	0.750			
0.4588	29360.82	3.7600	3.7600	1.3891	26.28	0.29	0.750	0.314	0.407	
0.4630	29632.26	3.7570	3.7569	1.4298	26.27	0.28	0.750			
0.4674	29910.62	3.7540	3.7541	1.4580	26.26	0.27	0.750			
0.4718	30196.24	3.7510	3.7510	1.4775	26.24	0.25	0.750			
0.4762	30478.04	3.7480	3.7481	1.5069	26.23	0.24	0.750			
0.4808	30770.45	3.7450	3.7451	1.5277	26.21	0.22	0.750			
0.4854	31063.92	3.7420	3.7421	1.5586	26.20	0.21	0.750			
0.4901	31365.72	3.7390	3.7392	1.6142	26.18	0.19	0.750			
0.4949	31675.31	3.7360	3.7357	1.6509	26.17	0.18	0.750			
0.5000	31997.63	3.7330	3.7328	1.7088	26.15	0.16	0.750			
0.5052	32334.21	3.7300	3.7302	1.7541	26.13	0.14	0.750			
0.5107	32682.07	3.7270	3.7270	1.8008	26.12	0.13	0.750			
0.5161	33030.35	3.7240	3.7239	1.8383	26.10	0.11	0.750			
0.5216	33381.26	3.7210	3.7209	1.8744	26.10	0.11	0.750			
0.5272	33742.31	3.7180	3.7181	1.9493	26.08	0.09	0.750			
0.5332	34126.92	3.7150	3.7149	2.0048	26.06	0.07	0.750			
0.5394	34519.29	3.7120	3.7119	2.0524	26.04	0.05	0.750			
0.5456	34917.39	3.7090	3.7091	2.1222	26.02	0.03	0.750			
0.5521	35336.15	3.7060	3.7061	2.1901	26.00	0.01	0.750			
0.5587	35759.36	3.7030	3.7029	2.2521	25.98	-0.01	0.750			
0.5655	36192.92	3.7000	3.7000	2.3108	25.96	-0.03	0.750			
0.5726	36643.30	3.6970	3.6970	2.4005	25.94	-0.05	0.750			
0.5800	37117.13	3.6940	3.6940	2.5026	25.92	-0.07	0.750			
0.5876	37607.78	3.6910	3.6909	2.5502	25.91	-0.08	0.750			
0.5954	38108.13	3.6880	3.6881	2.6081	25.89	-0.10	0.750			
0.6034	38616.17	3.6850	3.6852	2.6871	25.87	-0.12	0.750			
0.6115	39133.35	3.6820	3.6819	2.7747	25.85	-0.14	0.750			
0.6198	39665.62	3.6790	3.6791	2.8684	25.83	-0.16	0.750			
0.6286	40233.00	3.6760	3.6760	3.0021	25.80	-0.19	0.750			
0.6378	40818.23	3.6730	3.6731	3.0836	25.79	-0.20	0.750			
0.6472	41419.54	3.6700	3.6698	3.1317	25.78	-0.21	0.750			
0.6568	42036.44	3.6670	3.6668	3.1176	25.76	-0.23	0.750			
0.6662	42638.22	3.6640	3.6639	3.0367	25.75	-0.24	0.750			
0.6754	43223.91	3.6610	3.6609	2.8369	25.75	-0.24	0.750			
0.6835	43744.62	3.6580	3.6581	2.5700	25.74	-0.25	0.750			
0.6907	44203.02	3.6550	3.6552	2.2770	25.73	-0.26	0.750			
0.6969	44601.69	3.6520	3.6519	2.0353	25.73	-0.26	0.750			
0.7024	44953.07	3.6490	3.6489	1.8161	25.73	-0.26	0.750			
0.7073	45266.71	3.6460	3.6459	1.6545	25.72	-0.27	0.750			
0.7121	45572.09	3.6430	3.6429	1.5269	25.72	-0.27	0.750			
0.7164	45851.84	3.6400	3.6401	1.4294	25.72	-0.27	0.750			
0.7205	46113.13	3.6370	3.6371	1.3386	25.72	-0.27	0.750			
0.7243	46355.05	3.6340	3.6339	1.2734	25.72	-0.27	0.750			
0.7280	46591.25	3.6310	3.6310	1.2328	25.72	-0.27	0.750			
0.7315	46816.40	3.6280	3.6280	1.2084	25.72	-0.27	0.750			
0.7351	47044.22	3.6250	3.6250	1.2069	25.73	-0.26	0.750			
0.7387	47275.16	3.6220	3.6220	1.2021	25.73	-0.26	0.750			
0.7423	47506.68	3.6190	3.6189	1.2136	25.73	-0.26	0.750			
0.7460	47741.70	3.6160	3.6161	1.2238	25.73	-0.26	0.750			
0.7497	47980.23	3.6130	3.6129	1.2244	25.73	-0.26	0.750			
0.7534	48219.00	3.6100	3.6099	1.2212	25.73	-0.26	0.750			
0.7571	48452.97	3.6070	3.6071	1.2109	25.72	-0.27	0.750			
0.7607	48684.92	3.6040	3.6041	1.1972	25.72	-0.27	0.750			
0.7643	48915.62	3.6010	3.6010	1.1761	25.72	-0.27	0.750			
0.7677	49133.22	3.5980	3.5980	1.1665	25.72	-0.27	0.750			
0.7712	49354.27	3.5950	3.5951	1.1686	25.73	-0.26	0.750			
0.7747	49578.89	3.5920	3.5917	1.1815	25.73	-0.26	0.750			
0.7782	49802.63	3.5890	3.5890	1.2115	25.73	-0.26	0.750			
0.7818	50034.53	3.5860	3.5861	1.2421	25.72	-0.27	0.750			
0.7856	50278.90	3.5830	3.5831	1.2782	25.72	-0.27	0.750			
0.7895	50529.56	3.5800	3.5800	1.3182	25.72	-0.27	0.750			
0.7935	50781.46	3.5770	3.5771	1.3592	25.72	-0.27	0.750			
0.7976	51045.28	3.5740	3.5741	1.4056	25.72	-0.27	0.750			
0.8018	51318.39	3.5710	3.5708	1.4507	25.72	-0.27	0.750			
0.8062	51599.63	3.5680	3.5680	1.4844	25.72	-0.27	0.750			
0.8109	51897.41	3.5650	3.5651	1.5069	25.72	-0.27	0.750			
0.8154	52186.97	3.5620	3.5619	1.5737	25.72	-0.27	0.750			
0.8202	52491.81	3.5590	3.5587	1.6086	25.72	-0.27	0.750			
0.8252	52811.35	3.5560	3.5559	1.6190	25.72	-0.27	0.750			
0.8301	53126.87	3.5530	3.5536	1.6408	25.72	-0.27	0.750			
0.8350	53442.23	3.5500	3.5503	1.6522	25.72	-0.27	0.750			
0.8401	53764.38	3.5470	3.5471	1.6391	25.72	-0.27	0.750			
0.8449	54075.27	3.5440	3.5438	1.6759	25.72	-0.27	0.750			
0.8499	54392.14	3.5410	3.5408	1.6785	25.72	-0.27	0.750			
0.8549	54716.59	3.5380	3.5381	1.7292	25.73	-0.26	0.750			
0.8602	55051.47	3.5350	3.5352	1.7621	25.74	-0.25	0.750			
0.8658	55413.55	3.5320	3.5317	1.7213	25.74	-0.25	0.750			
0.8712	55754.47	3.5290	3.5289	1.6077	25.75	-0.24	0.750			
0.8764	56092.68	3.5260	3.5261	1.4273	25.77	-0.22	0.750			
0.8806	56359.15	3.5230	3.5233	1.1849	25.79	-0.20	0.750			
0.8834	56539.51	3.5200	3.5203	0.9072	25.80	-0.19	0.750			
0.8855	56671.30	3.5170	3.5163	0.6714	25.81	-0.18	0.750			
0.8866	56743.58	3.5140	3.5138	0.4929	25.81	-0.18	0.750			
0.8878	56819.29	3.5110	3.5107	0.4110	25.82	-0.17	0.750			
0.8888	56885.99	3.5080	3.5080	0.3662	25.83	-0.16	0.750			
0.8899	56951.69	3.5050	3.5049	0.3399	25.83	-0.16	0.750			
0.8908	57012.60	3.5020	3.5021	0.3194	25.84	-0.15	0.750			
0.8918	57072.20	3.4990	3.4990	0.3057	25.85	-0.14	0.750			
0.8926	57128.50	3.4960	3.4959	0.2950	25.85	-0.14	0.750			
0.8935	57183.56	3.4930	3.4929	0.2854	25.86	-0.13	0.750			
0.8943	57236.93	3.4900	3.4900	0.2780	25.87	-0.12	0.750			
0.8952	57289.75	3.4870	3.4870	0.2726	25.87	-0.12	0.750			
0.8960	57341.61	3.4840	3.4841	0.2664	25.88	-0.11	0.750			
0.8968	57392.51	3.4810	3.4809	0.2617	25.88	-0.11	0.750			
0.8975	57442.00	3.4780	3.4781	0.2556	25.89	-0.10	0.750			
0.8983	57490.34	3.4750	3.4750	0.2498	25.89	-0.10	0.750			
0.8990	57537.26	3.4720	3.4720	0.2457	25.90	-0.09	0.750			
0.8998	57584.05	3.4690	3.4690	0.2417	25.91	-0.08	0.750			
0.9005	57629.79	3.4660	3.4660	0.2369	25.91	-0.08	0.750			
0.9012	57674.80	3.4630	3.4629	0.2337	25.91	-0.08	0.750			
0.9019	57719.82	3.4600	3.4601	0.2297	25.92	-0.07	0.750			
0.9026	57763.73	3.4570	3.4571	0.2249	25.92	-0.07	0.750			
0.9032	57806.52	3.4540	3.4537	0.2207	25.93	-0.06	0.750			
0.9039	57848.47	3.4510	3.4510	0.2156	25.93	-0.06	0.750			
0.9045	57888.86	3.4480	3.4480	0.2105	25.94	-0.05	0.750			
0.9051	57928.90	3.4450	3.4450	0.2067	25.94	-0.05	0.750			
0.9058	57968.52	3.4420	3.4421	0.2020	25.94	-0.05	0.750			
0.9064	58006.65	3.4390	3.4389	0.1972	25.95	-0.04	0.750			
0.9069	58044.45	3.4360	3.4361	0.1932	25.95	-0.04	0.750			
0.9075	58081.18	3.4330	3.4330	0.1886	25.96	-0.03	0.750			
0.9081	58116.94	3.4300	3.4299	0.1831	25.96	-0.03	0.750			
0.9086	58151.59	3.4270	3.4270	0.1778	25.96	-0.03	0.750			
0.9091	58185.15	3.4240	3.4240	0.1728	25.97	-0.02	0.750			
0.9097	58217.69	3.4210	3.4210	0.1680	25.97	-0.02	0.750			
0.9101	58249.59	3.4180	3.4181	0.1638	25.97	-0.02	0.750			
0.9106	58280.57	3.4150	3.4149	0.1590	25.98	-0.01	0.750			
0.9111	58310.43	3.4120	3.4120	0.1538	25.98	-0.01	0.750			
0.9116	58339.67	3.4090	3.4091	0.1491	25.98	-0.01	0.750			
0.9120	58368.08	3.4060	3.4060	0.1447	25.98	-0.01	0.750			
0.9124	58395.44	3.4030	3.4030	0.1388	25.99	-0.00	0.750			
0.9128	58421.66	3.4000	3.3999	0.1331	25.99	-0.00	0.750			
0.9132	58446.73	3.3970	3.3970	0.1271	25.99	0.00	0.750			
0.9136	58470.59	3.3940	3.3941	0.1210	25.99	0.00	0.750			
0.9140	58493.43	3.3910	3.3910	0.1141	26.00	0.01	0.750			
0.9143	58514.88	3.3880	3.3880	0.1076	26.00	0.01	0.750			
0.9146	58535.74	3.3850	3.3850	0.0984	26.00	0.01	0.750			
0.9149	58554.20	3.3820	3.3819	0.0907	26.00	0.01	0.750			
0.9152	58570.73	3.3790	3.3792	0.0815	26.00	0.01	0.750			
0.9154	58586.31	3.3760	3.3761	0.0729	26.01	0.02	0.750			
0.9156	58599.32	3.3730	3.3734	0.0626	26.01	0.02	0.750			
0.9158	58610.85	3.3700	3.3704	0.0519	26.01	0.02	0.750			
0.9159	58619.74	3.3670	3.3677	0.0408	26.01	0.02	0.750			
0.9160	58626.52	3.3640	3.3651	0.0297	26.01	0.02	0.750			
