Ah_balance (normalized)	Ah_balance (mAh)	Voltage - fit (V)	Voltage -  interpolate (V)	dQ/dV (1/V)	Temperature (°C)	Temperature - diff (°C)	Current (C)	R_DC 0ms (mOhm)	R_DC 50ms (mOhm)	R_DC 50 ms PEC (mOhm)
0.0514	3286.91	4.1960	4.1960	0.7702	26.27	0.30	0.750			
0.0536	3432.55	4.1930	4.1928	0.7647	26.27	0.30	0.750			
0.0559	3580.68	4.1900	4.1901	0.7695	26.27	0.30	0.750			
0.0583	3729.22	4.1870	4.1870	0.7699	26.27	0.30	0.750			
0.0606	3877.63	4.1840	4.1839	0.7736	26.27	0.30	0.750			
0.0629	4025.81	4.1810	4.1811	0.7754	26.27	0.30	0.750			
0.0652	4174.71	4.1780	4.1779	0.7795	26.27	0.30	0.750			
0.0676	4324.35	4.1750	4.1751	0.7814	26.27	0.30	0.750			
0.0699	4474.81	4.1720	4.1719	0.7771	26.27	0.30	0.750			
0.0723	4624.76	4.1690	4.1690	0.7802	26.27	0.30	0.750			
0.0746	4775.69	4.1660	4.1660	0.7818	26.27	0.30	0.750			
0.0769	4924.42	4.1630	4.1630	0.7801	26.27	0.30	0.750			
0.0793	5073.48	4.1600	4.1600	0.7798	26.27	0.30	0.750			
0.0816	5223.29	4.1570	4.1571	0.7818	26.27	0.30	0.750			
0.0840	5373.34	4.1540	4.1540	0.7817	26.27	0.30	0.750			
0.0863	5523.25	4.1510	4.1510	0.7885	26.27	0.30	0.750			
0.0887	5674.34	4.1480	4.1481	0.7911	26.27	0.30	0.750			
0.0911	5827.59	4.1450	4.1447	0.7941	26.27	0.30	0.750			
0.0935	5980.87	4.1420	4.1421	0.7974	26.27	0.30	0.750			
0.0959	6135.90	4.1390	4.1391	0.7959	26.27	0.30	0.750			
0.0983	6288.93	4.1360	4.1360	0.8000	26.27	0.30	0.750			
0.1007	6442.17	4.1330	4.1330	0.8024	26.27	0.30	0.750			
0.1030	6593.08	4.1300	4.1300	0.7998	26.27	0.30	0.750			
0.1054	6748.21	4.1270	4.1270	0.8022	26.27	0.30	0.750			
0.1079	6904.47	4.1240	4.1241	0.8021	26.27	0.30	0.750			
0.1103	7057.45	4.1210	4.1210	0.8042	26.27	0.30	0.750			
0.1127	7212.88	4.1180	4.1180	0.8090	26.27	0.30	0.750			
0.1151	7366.23	4.1150	4.1150	0.8044	26.27	0.30	0.750			
0.1175	7520.74	4.1120	4.1121	0.8090	26.27	0.30	0.750			
0.1200	7677.80	4.1090	4.1090	0.8068	26.27	0.30	0.750			
0.1224	7833.02	4.1060	4.1060	0.8087	26.27	0.30	0.750			
0.1248	7988.32	4.1030	4.1030	0.8109	26.27	0.30	0.750			
0.1272	8141.58	4.1000	4.0999	0.8133	26.27	0.30	0.750			
0.1297	8297.74	4.0970	4.0970	0.8195	26.27	0.30	0.750			
0.1321	8457.07	4.0940	4.0940	0.8204	26.28	0.31	0.750			
0.1346	8614.86	4.0910	4.0910	0.8270	26.28	0.31	0.750			
0.1371	8775.79	4.0880	4.0881	0.8305	26.28	0.31	0.750			
0.1396	8935.15	4.0850	4.0850	0.8292	26.29	0.32	0.750			
0.1421	9093.65	4.0820	4.0820	0.8305	26.29	0.32	0.750			
0.1446	9255.14	4.0790	4.0791	0.8263	26.29	0.32	0.750			
0.1471	9413.45	4.0760	4.0760	0.8323	26.29	0.32	0.750			
0.1496	9573.41	4.0730	4.0730	0.8364	26.29	0.32	0.750			
0.1521	9732.55	4.0700	4.0701	0.8387	26.29	0.32	0.750			
0.1546	9894.85	4.0670	4.0670	0.8416	26.29	0.32	0.750			
0.1572	10057.77	4.0640	4.0640	0.8392	26.29	0.32	0.750			
0.1597	10218.66	4.0610	4.0610	0.8411	26.29	0.32	0.750			
0.1622	10379.09	4.0580	4.0581	0.8496	26.29	0.32	0.750			
0.1647	10541.61	4.0550	4.0551	0.8508	26.29	0.32	0.750			
0.1673	10706.05	4.0520	4.0520	0.8552	26.29	0.32	0.750			
0.1699	10872.01	4.0490	4.0490	0.8581	26.29	0.32	0.750			
0.1725	11039.02	4.0460	4.0461	0.8636	26.29	0.32	0.750			
0.1751	11205.10	4.0430	4.0430	0.8622	26.29	0.32	0.750			
0.1776	11369.46	4.0400	4.0400	0.8633	26.29	0.32	0.750			
0.1802	11534.31	4.0370	4.0370	0.8645	26.29	0.32	0.750			
0.1828	11701.47	4.0340	4.0340	0.8661	26.29	0.32	0.750			
0.1854	11867.83	4.0310	4.0310	0.8718	26.29	0.32	0.750			
0.1881	12035.85	4.0280	4.0281	0.8809	26.29	0.32	0.750			
0.1907	12205.04	4.0250	4.0248	0.8829	26.29	0.32	0.750			
0.1934	12375.43	4.0220	4.0220	0.8829	26.29	0.32	0.750			
0.1960	12544.72	4.0190	4.0190	0.8844	26.30	0.33	0.750			
0.1987	12715.69	4.0160	4.0161	0.8891	26.30	0.33	0.750			
0.2014	12887.04	4.0130	4.0130	0.8951	26.31	0.34	0.750			
0.2040	13058.45	4.0100	4.0101	0.8905	26.31	0.34	0.750			
0.2067	13229.65	4.0070	4.0070	0.8894	26.31	0.34	0.750			
0.2094	13400.64	4.0040	4.0040	0.8963	26.31	0.34	0.750			
0.2121	13572.61	4.0010	4.0010	0.9010	26.31	0.34	0.750			
0.2148	13744.28	3.9980	3.9980	0.9035	26.31	0.34	0.750			
0.2175	13918.34	3.9950	3.9950	0.9090	26.31	0.34	0.750			
0.2202	14094.79	3.9920	3.9920	0.9060	26.31	0.34	0.750			
0.2230	14270.81	3.9890	3.9890	0.9090	26.31	0.34	0.750			
0.2257	14445.35	3.9860	3.9861	0.9092	26.31	0.34	0.750			
0.2284	14617.95	3.9830	3.9828	0.9060	26.31	0.34	0.750			
0.2311	14792.32	3.9800	3.9800	0.9004	26.31	0.34	0.750			
0.2338	14963.67	3.9770	3.9771	0.9038	26.31	0.34	0.750			
0.2365	15137.00	3.9740	3.9740	0.9103	26.31	0.34	0.750			
0.2393	15312.69	3.9710	3.9710	0.9198	26.31	0.34	0.750			
0.2420	15487.81	3.9680	3.9678	0.9197	26.31	0.34	0.750			
0.2448	15665.79	3.9650	3.9651	0.9197	26.31	0.34	0.750			
0.2476	15844.16	3.9620	3.9621	0.9272	26.31	0.34	0.750			
0.2504	16022.75	3.9590	3.9591	0.9365	26.32	0.35	0.750			
0.2532	16202.73	3.9560	3.9558	0.9348	26.32	0.35	0.750			
0.2560	16382.17	3.9530	3.9530	0.9379	26.32	0.35	0.750			
0.2588	16563.29	3.9500	3.9501	0.9462	26.32	0.35	0.750			
0.2617	16748.12	3.9470	3.9470	0.9561	26.32	0.35	0.750			
0.2646	16931.50	3.9440	3.9441	0.9624	26.32	0.35	0.750			
0.2674	17115.31	3.9410	3.9411	0.9584	26.32	0.35	0.750			
0.2703	17300.49	3.9380	3.9379	0.9492	26.33	0.36	0.750			
0.2732	17482.75	3.9350	3.9350	0.9539	26.33	0.36	0.750			
0.2760	17664.73	3.9320	3.9322	0.9471	26.34	0.37	0.750			
0.2788	17845.16	3.9290	3.9286	0.9484	26.34	0.37	0.750			
0.2817	18028.14	3.9260	3.9261	0.9445	26.34	0.37	0.750			
0.2845	18208.32	3.9230	3.9231	0.9511	26.34	0.37	0.750			
0.2874	18393.26	3.9200	3.9200	0.9594	26.34	0.37	0.750			
0.2903	18576.68	3.9170	3.9170	0.9561	26.34	0.37	0.750			
0.2931	18760.97	3.9140	3.9141	0.9605	26.34	0.37	0.750			
0.2960	18946.54	3.9110	3.9110	0.9752	26.34	0.37	0.750			
0.2990	19134.12	3.9080	3.9080	0.9772	26.34	0.37	0.750			
0.3019	19324.50	3.9050	3.9050	0.9812	26.34	0.37	0.750			
0.3049	19511.97	3.9020	3.9021	0.9774	26.34	0.37	0.750			
0.3078	19699.97	3.8990	3.8991	0.9757	26.34	0.37	0.750			
0.3107	19886.58	3.8960	3.8960	0.9764	26.34	0.37	0.750			
0.3136	20072.12	3.8930	3.8930	0.9806	26.34	0.37	0.750			
0.3165	20258.67	3.8900	3.8898	0.9832	26.34	0.37	0.750			
0.3195	20450.51	3.8870	3.8871	0.9877	26.34	0.37	0.750			
0.3225	20639.82	3.8840	3.8841	0.9951	26.34	0.37	0.750			
0.3255	20832.78	3.8810	3.8810	1.0026	26.34	0.37	0.750			
0.3285	21024.56	3.8780	3.8779	1.0023	26.34	0.37	0.750			
0.3315	21218.86	3.8750	3.8750	1.0012	26.33	0.36	0.750			
0.3345	21410.40	3.8720	3.8721	1.0105	26.33	0.36	0.750			
0.3376	21605.90	3.8690	3.8691	1.0180	26.32	0.35	0.750			
0.3407	21801.82	3.8660	3.8658	1.0243	26.31	0.34	0.750			
0.3437	21999.31	3.8630	3.8630	1.0197	26.31	0.34	0.750			
0.3468	22194.64	3.8600	3.8601	1.0356	26.31	0.34	0.750			
0.3499	22394.01	3.8570	3.8571	1.0501	26.31	0.34	0.750			
0.3531	22598.51	3.8540	3.8538	1.0641	26.31	0.34	0.750			
0.3563	22801.35	3.8510	3.8511	1.0692	26.30	0.33	0.750			
0.3595	23008.62	3.8480	3.8481	1.0817	26.30	0.33	0.750			
0.3628	23217.99	3.8450	3.8450	1.0921	26.29	0.32	0.750			
0.3661	23432.49	3.8420	3.8419	1.0986	26.28	0.31	0.750			
0.3694	23639.89	3.8390	3.8390	1.1059	26.28	0.31	0.750			
0.3727	23851.91	3.8360	3.8361	1.1171	26.27	0.30	0.750			
0.3761	24067.28	3.8330	3.8330	1.1331	26.26	0.29	0.750			
0.3795	24286.90	3.8300	3.8299	1.1389	26.26	0.29	0.750			
0.3829	24506.34	3.8270	3.8271	1.1637	26.25	0.28	0.750			
0.3864	24731.60	3.8240	3.8241	1.1849	26.24	0.27	0.750			
0.3901	24963.27	3.8210	3.8208	1.1999	26.23	0.26	0.750			
0.3936	25193.32	3.8180	3.8181	1.2161	26.22	0.25	0.750			
0.3973	25430.24	3.8150	3.8150	1.2304	26.22	0.25	0.750			
0.4011	25668.60	3.8120	3.8121	1.2421	26.21	0.24	0.750			
0.4048	25910.20	3.8090	3.8090	1.2520	26.20	0.23	0.750			
0.4085	26145.12	3.8060	3.8061	1.2627	26.19	0.22	0.750			
0.4123	26389.74	3.8030	3.8030	1.2789	26.18	0.21	0.750			
0.4162	26638.49	3.8000	3.7997	1.2881	26.17	0.20	0.750			
0.4201	26885.33	3.7970	3.7971	1.3024	26.16	0.19	0.750			
0.4240	27137.84	3.7940	3.7942	1.3258	26.15	0.18	0.750			
0.4281	27396.15	3.7910	3.7908	1.3375	26.13	0.16	0.750			
0.4321	27652.57	3.7880	3.7880	1.3357	26.12	0.15	0.750			
0.4361	27911.70	3.7850	3.7850	1.3402	26.11	0.14	0.750			
0.4403	28179.28	3.7820	3.7819	1.3336	26.09	0.12	0.750			
0.4442	28430.34	3.7790	3.7790	1.3464	26.08	0.11	0.750			
0.4481	28681.43	3.7760	3.7761	1.3435	26.07	0.10	0.750			
0.4522	28940.60	3.7730	3.7730	1.3487	26.06	0.09	0.750			
0.4562	29197.38	3.7700	3.7703	1.3790	26.05	0.08	0.750			
0.4603	29458.96	3.7670	3.7670	1.4077	26.04	0.07	0.750			
0.4646	29736.24	3.7640	3.7641	1.4401	26.03	0.06	0.750			
0.4690	30017.64	3.7610	3.7611	1.4801	26.01	0.04	0.750			
0.4735	30304.10	3.7580	3.7580	1.4987	26.00	0.03	0.750	0.326	0.397	
0.4781	30596.80	3.7550	3.7549	1.5355	25.98	0.01	0.750			
0.4827	30890.71	3.7520	3.7518	1.5604	25.97	0.00	0.750			
0.4874	31194.68	3.7490	3.7492	1.5844	25.96	-0.01	0.750			
0.4923	31504.54	3.7460	3.7459	1.6092	25.95	-0.02	0.750			
0.4971	31816.50	3.7430	3.7430	1.6453	25.93	-0.04	0.750			
0.5021	32134.38	3.7400	3.7401	1.6841	25.92	-0.05	0.750			
0.5073	32464.33	3.7370	3.7371	1.7415	25.90	-0.07	0.750			
0.5125	32799.53	3.7340	3.7340	1.7866	25.88	-0.09	0.750			
0.5180	33153.08	3.7310	3.7309	1.8404	25.86	-0.11	0.750			
0.5236	33512.49	3.7280	3.7279	1.8921	25.85	-0.12	0.750			
0.5294	33880.08	3.7250	3.7248	1.9425	25.83	-0.14	0.750			
0.5353	34257.67	3.7220	3.7223	1.9865	25.81	-0.16	0.750			
0.5413	34644.32	3.7190	3.7191	2.0469	25.80	-0.17	0.750			
0.5475	35040.40	3.7160	3.7159	2.1145	25.79	-0.18	0.750			
0.5540	35456.78	3.7130	3.7133	2.1713	25.77	-0.20	0.750			
0.5607	35885.94	3.7100	3.7099	2.2558	25.75	-0.22	0.750			
0.5675	36321.68	3.7070	3.7070	2.3205	25.73	-0.24	0.750			
0.5746	36773.57	3.7040	3.7040	2.3677	25.71	-0.26	0.750			
0.5819	37239.15	3.7010	3.7011	2.4375	25.69	-0.28	0.750			
0.5892	37706.86	3.6980	3.6981	2.4750	25.67	-0.30	0.750			
0.5968	38192.90	3.6950	3.6949	2.5423	25.65	-0.32	0.750			
0.6044	38684.65	3.6920	3.6920	2.6115	25.64	-0.33	0.750			
0.6122	39182.91	3.6890	3.6889	2.7050	25.62	-0.35	0.750			
0.6205	39713.31	3.6860	3.6860	2.8199	25.60	-0.37	0.750			
0.6291	40264.15	3.6830	3.6830	2.9053	25.58	-0.39	0.750			
0.6381	40838.24	3.6800	3.6800	3.0039	25.57	-0.40	0.750			
0.6473	41425.95	3.6770	3.6769	3.1008	25.56	-0.41	0.750			
0.6566	42023.84	3.6740	3.6740	3.1525	25.54	-0.43	0.750			
0.6663	42640.80	3.6710	3.6712	3.2734	25.54	-0.43	0.750			
0.6763	43285.54	3.6680	3.6681	3.3605	25.52	-0.45	0.750			
0.6867	43948.65	3.6650	3.6651	3.2966	25.52	-0.45	0.750			
0.6966	44584.32	3.6620	3.6620	3.1990	25.52	-0.45	0.750			
0.7062	45194.96	3.6590	3.6589	2.9128	25.52	-0.45	0.750			
0.7144	45719.47	3.6560	3.6560	2.5837	25.54	-0.43	0.750			
0.7215	46175.56	3.6530	3.6532	2.2708	25.54	-0.43	0.750			
0.7277	46573.34	3.6500	3.6499	2.0268	25.54	-0.43	0.750			
0.7332	46922.96	3.6470	3.6467	1.8070	25.55	-0.42	0.750			
0.7381	47235.39	3.6440	3.6440	1.6182	25.55	-0.42	0.750			
0.7428	47537.93	3.6410	3.6411	1.5162	25.56	-0.41	0.750			
0.7472	47820.27	3.6380	3.6381	1.4329	25.56	-0.41	0.750			
0.7511	48073.41	3.6350	3.6351	1.3239	25.56	-0.41	0.750			
0.7549	48313.46	3.6320	3.6322	1.2622	25.56	-0.41	0.750			
0.7586	48547.45	3.6290	3.6290	1.2237	25.57	-0.40	0.750			
0.7621	48772.67	3.6260	3.6260	1.2054	25.57	-0.40	0.750			
0.7657	49002.14	3.6230	3.6228	1.2083	25.58	-0.39	0.750			
0.7692	49231.40	3.6200	3.6200	1.2156	25.58	-0.39	0.750			
0.7729	49467.54	3.6170	3.6169	1.2272	25.58	-0.39	0.750			
0.7767	49706.08	3.6140	3.6140	1.2349	25.58	-0.39	0.750			
0.7804	49947.69	3.6110	3.6110	1.2314	25.58	-0.39	0.750			
0.7841	50183.61	3.6080	3.6080	1.2201	25.59	-0.38	0.750			
0.7877	50415.64	3.6050	3.6051	1.2065	25.59	-0.38	0.750			
0.7913	50643.59	3.6020	3.6015	1.1902	25.60	-0.37	0.750			
0.7948	50868.03	3.5990	3.5992	1.1844	25.60	-0.37	0.750			
0.7984	51095.12	3.5960	3.5960	1.1883	25.61	-0.36	0.750			
0.8019	51324.31	3.5930	3.5930	1.1963	25.61	-0.36	0.750			
0.8055	51550.31	3.5900	3.5901	1.2096	25.61	-0.36	0.750			
0.8091	51782.01	3.5870	3.5871	1.2454	25.61	-0.36	0.750			
0.8129	52024.71	3.5840	3.5840	1.2802	25.62	-0.35	0.750			
0.8168	52272.44	3.5810	3.5808	1.3136	25.62	-0.35	0.750			
0.8207	52526.59	3.5780	3.5782	1.3580	25.62	-0.35	0.750			
0.8249	52792.83	3.5750	3.5750	1.4056	25.62	-0.35	0.750			
0.8292	53066.25	3.5720	3.5719	1.4448	25.62	-0.35	0.750			
0.8335	53346.27	3.5690	3.5691	1.4664	25.63	-0.34	0.750			
0.8380	53634.01	3.5660	3.5662	1.5028	25.63	-0.34	0.750			
0.8426	53929.06	3.5630	3.5627	1.5424	25.64	-0.33	0.750			
0.8473	54229.19	3.5600	3.5598	1.5721	25.64	-0.33	0.750			
0.8520	54531.14	3.5570	3.5571	1.5665	25.65	-0.32	0.750			
0.8568	54837.67	3.5540	3.5539	1.5745	25.65	-0.32	0.750			
0.8616	55141.44	3.5510	3.5512	1.5946	25.65	-0.32	0.750			
0.8664	55451.37	3.5480	3.5477	1.6166	25.65	-0.32	0.750			
0.8712	55753.97	3.5450	3.5453	1.6306	25.65	-0.32	0.750			
0.8761	56070.59	3.5420	3.5424	1.6527	25.66	-0.31	0.750			
0.8810	56386.37	3.5390	3.5390	1.6915	25.67	-0.30	0.750			
0.8862	56715.74	3.5360	3.5360	1.7207	25.68	-0.29	0.750			
0.8917	57066.23	3.5330	3.5323	1.7436	25.69	-0.28	0.750			
0.8972	57419.89	3.5300	3.5297	1.6791	25.70	-0.27	0.750			
0.9024	57754.08	3.5270	3.5270	1.4806	25.72	-0.25	0.750			
0.9070	58047.49	3.5240	3.5246	1.2791	25.74	-0.23	0.750			
0.9105	58273.69	3.5210	3.5213	1.0234	25.76	-0.21	0.750			
0.9128	58422.02	3.5180	3.5179	0.7421	25.77	-0.20	0.750			
0.9143	58515.23	3.5150	3.5148	0.5522	25.78	-0.19	0.750			
0.9156	58596.11	3.5120	3.5116	0.4431	25.79	-0.18	0.750			
0.9166	58661.82	3.5090	3.5089	0.3808	25.79	-0.18	0.750			
0.9176	58728.54	3.5060	3.5059	0.3479	25.80	-0.17	0.750			
0.9186	58791.59	3.5030	3.5031	0.3261	25.81	-0.16	0.750			
0.9196	58852.38	3.5000	3.5000	0.3103	25.81	-0.16	0.750			
0.9204	58908.76	3.4970	3.4970	0.2975	25.82	-0.15	0.750			
0.9213	58964.15	3.4940	3.4939	0.2867	25.83	-0.14	0.750			
0.9221	59017.22	3.4910	3.4909	0.2797	25.83	-0.14	0.750			
0.9230	59070.31	3.4880	3.4880	0.2738	25.84	-0.13	0.750			
0.9238	59122.75	3.4850	3.4850	0.2693	25.84	-0.13	0.750			
0.9246	59174.05	3.4820	3.4819	0.2641	25.85	-0.12	0.750			
0.9254	59224.15	3.4790	3.4791	0.2581	25.86	-0.11	0.750			
0.9261	59272.88	3.4760	3.4760	0.2527	25.86	-0.11	0.750			
0.9269	59320.68	3.4730	3.4730	0.2508	25.87	-0.10	0.750			
0.9276	59368.20	3.4700	3.4699	0.2466	25.87	-0.10	0.750			
0.9284	59415.43	3.4670	3.4669	0.2413	25.88	-0.09	0.750			
0.9291	59461.89	3.4640	3.4639	0.2378	25.88	-0.09	0.750			
0.9298	59507.49	3.4610	3.4612	0.2333	25.89	-0.08	0.750			
0.9305	59552.16	3.4580	3.4578	0.2281	25.89	-0.08	0.750			
0.9312	59595.08	3.4550	3.4549	0.2232	25.90	-0.07	0.750			
0.9318	59636.17	3.4520	3.4521	0.2170	25.90	-0.07	0.750			
0.9325	59677.94	3.4490	3.4489	0.2146	25.91	-0.06	0.750			
0.9331	59718.83	3.4460	3.4460	0.2113	25.91	-0.06	0.750			
0.9337	59759.34	3.4430	3.4430	0.2068	25.92	-0.05	0.750			
0.9344	59798.48	3.4400	3.4400	0.2029	25.92	-0.05	0.750			
0.9350	59837.30	3.4370	3.4370	0.1994	25.92	-0.05	0.750			
0.9355	59875.16	3.4340	3.4340	0.1949	25.93	-0.04	0.750			
0.9361	59912.01	3.4310	3.4310	0.1905	25.93	-0.04	0.750			
0.9367	59948.10	3.4280	3.4281	0.1862	25.94	-0.03	0.750			
0.9372	59983.53	3.4250	3.4250	0.1823	25.94	-0.03	0.750			
0.9378	60018.13	3.4220	3.4220	0.1782	25.94	-0.03	0.750			
0.9383	60051.95	3.4190	3.4190	0.1752	25.95	-0.02	0.750			
0.9388	60085.35	3.4160	3.4160	0.1698	25.95	-0.02	0.750			
0.9393	60117.71	3.4130	3.4130	0.1657	25.96	-0.01	0.750			
0.9398	60149.07	3.4100	3.4099	0.1609	25.96	-0.01	0.750			
0.9403	60179.68	3.4070	3.4072	0.1561	25.96	-0.01	0.750			
0.9408	60209.18	3.4040	3.4039	0.1513	25.97	-0.00	0.750			
0.9412	60237.66	3.4010	3.4009	0.1460	25.97	-0.00	0.750			
0.9416	60265.22	3.3980	3.3980	0.1411	25.97	0.00	0.750			
0.9421	60291.68	3.3950	3.3951	0.1353	25.98	0.01	0.750			
0.9425	60317.71	3.3920	3.3920	0.1311	25.98	0.01	0.750			
0.9428	60342.35	3.3890	3.3890	0.1249	25.98	0.01	0.750			
0.9432	60365.76	3.3860	3.3860	0.1189	25.98	0.01	0.750			
0.9436	60388.21	3.3830	3.3830	0.1129	25.99	0.02	0.750			
0.9439	60409.28	3.3800	3.3800	0.1065	25.99	0.02	0.750			
0.9442	60430.05	3.3770	3.3768	0.0980	25.99	0.02	0.750			
0.9445	60448.48	3.3740	3.3739	0.0909	25.99	0.02	0.750			
0.9448	60465.11	3.3710	3.3711	0.0823	25.99	0.02	0.750			
0.9450	60480.81	3.3680	3.3682	0.0743	26.00	0.03	0.750			
0.9452	60494.17	3.3650	3.3655	0.0649	26.00	0.03	0.750			
0.9454	60506.61	3.3620	3.3625	0.0547	26.00	0.03	0.750			
0.9456	60516.06	3.3590	3.3597	0.0438	26.00	0.03	0.750			
0.9457	60523.44	3.3560	3.3571	0.0330	26.00	0.03	0.750			
