Ah_balance (normalized)	Ah_balance (mAh)	Voltage - fit (V)	Voltage -  interpolate (V)	dQ/dV (1/V)	Temperature (°C)	Temperature - diff (°C)	Current (C)	R_DC 0ms (mOhm)	R_DC 50ms (mOhm)	R_DC 50 ms PEC (mOhm)
0.0588	3764.54	4.1970	4.1970	0.7355	26.19	0.20	0.750			
0.0610	3906.22	4.1940	4.1939	0.7415	26.19	0.20	0.750			
0.0633	4049.84	4.1910	4.1912	0.7481	26.19	0.20	0.750			
0.0656	4195.42	4.1880	4.1880	0.7468	26.18	0.19	0.750			
0.0678	4340.15	4.1850	4.1849	0.7489	26.18	0.19	0.750			
0.0701	4483.91	4.1820	4.1821	0.7434	26.18	0.19	0.750			
0.0723	4625.31	4.1790	4.1791	0.7416	26.17	0.18	0.750			
0.0745	4768.64	4.1760	4.1760	0.7426	26.17	0.18	0.750			
0.0767	4910.25	4.1730	4.1730	0.7429	26.17	0.18	0.750			
0.0790	5052.93	4.1700	4.1700	0.7404	26.17	0.18	0.750			
0.0812	5194.28	4.1670	4.1670	0.7468	26.17	0.18	0.750			
0.0834	5337.82	4.1640	4.1641	0.7473	26.17	0.18	0.750			
0.0857	5483.33	4.1610	4.1609	0.7479	26.17	0.18	0.750			
0.0879	5626.18	4.1580	4.1580	0.7481	26.17	0.18	0.750			
0.0902	5770.21	4.1550	4.1551	0.7489	26.17	0.18	0.750			
0.0924	5913.42	4.1520	4.1520	0.7513	26.17	0.18	0.750			
0.0947	6058.56	4.1490	4.1489	0.7559	26.17	0.18	0.750			
0.0969	6201.79	4.1460	4.1461	0.7566	26.17	0.18	0.750			
0.0992	6349.10	4.1430	4.1430	0.7627	26.17	0.18	0.750			
0.1015	6496.52	4.1400	4.1400	0.7628	26.17	0.18	0.750			
0.1038	6642.84	4.1370	4.1369	0.7611	26.17	0.18	0.750			
0.1061	6789.15	4.1340	4.1340	0.7624	26.17	0.18	0.750			
0.1084	6934.52	4.1310	4.1309	0.7615	26.17	0.18	0.750			
0.1106	7080.48	4.1280	4.1280	0.7650	26.17	0.18	0.750			
0.1129	7228.49	4.1250	4.1251	0.7671	26.17	0.18	0.750			
0.1153	7376.70	4.1220	4.1219	0.7688	26.17	0.18	0.750			
0.1176	7524.39	4.1190	4.1190	0.7703	26.17	0.18	0.750			
0.1199	7672.23	4.1160	4.1160	0.7692	26.17	0.18	0.750			
0.1222	7819.49	4.1130	4.1130	0.7684	26.17	0.18	0.750			
0.1245	7966.82	4.1100	4.1101	0.7687	26.17	0.18	0.750			
0.1268	8114.05	4.1070	4.1070	0.7714	26.17	0.18	0.750			
0.1291	8262.77	4.1040	4.1040	0.7716	26.17	0.18	0.750			
0.1314	8410.25	4.1010	4.1011	0.7732	26.17	0.18	0.750			
0.1337	8558.54	4.0980	4.0980	0.7770	26.17	0.18	0.750			
0.1361	8709.12	4.0950	4.0948	0.7796	26.17	0.18	0.750			
0.1384	8858.70	4.0920	4.0920	0.7818	26.17	0.18	0.750			
0.1408	9009.33	4.0890	4.0890	0.7826	26.17	0.18	0.750			
0.1431	9160.28	4.0860	4.0860	0.7862	26.17	0.18	0.750			
0.1455	9312.46	4.0830	4.0830	0.7874	26.17	0.18	0.750			
0.1478	9462.17	4.0800	4.0799	0.7849	26.17	0.18	0.750			
0.1502	9612.49	4.0770	4.0770	0.7874	26.17	0.18	0.750			
0.1526	9765.30	4.0740	4.0740	0.7889	26.18	0.19	0.750			
0.1549	9915.28	4.0710	4.0710	0.7920	26.18	0.19	0.750			
0.1573	10067.61	4.0680	4.0680	0.7979	26.18	0.19	0.750			
0.1597	10221.28	4.0650	4.0651	0.7995	26.19	0.20	0.750			
0.1621	10375.38	4.0620	4.0619	0.8067	26.19	0.20	0.750			
0.1646	10531.92	4.0590	4.0590	0.8047	26.19	0.20	0.750			
0.1670	10685.34	4.0560	4.0560	0.8073	26.19	0.20	0.750			
0.1694	10841.15	4.0530	4.0530	0.8089	26.20	0.21	0.750			
0.1718	10996.16	4.0500	4.0500	0.8110	26.20	0.21	0.750			
0.1742	11151.83	4.0470	4.0469	0.8129	26.20	0.21	0.750			
0.1767	11309.65	4.0440	4.0441	0.8142	26.20	0.21	0.750			
0.1791	11465.56	4.0410	4.0410	0.8159	26.20	0.21	0.750			
0.1816	11622.72	4.0380	4.0380	0.8233	26.21	0.22	0.750			
0.1841	11780.16	4.0350	4.0350	0.8207	26.21	0.22	0.750			
0.1865	11937.95	4.0320	4.0319	0.8251	26.21	0.22	0.750			
0.1890	12095.84	4.0290	4.0290	0.8283	26.22	0.23	0.750			
0.1915	12257.07	4.0260	4.0260	0.8292	26.22	0.23	0.750			
0.1940	12416.04	4.0230	4.0230	0.8314	26.23	0.24	0.750			
0.1965	12574.22	4.0200	4.0201	0.8343	26.23	0.24	0.750			
0.1990	12734.22	4.0170	4.0169	0.8353	26.24	0.25	0.750			
0.2015	12896.60	4.0140	4.0140	0.8421	26.24	0.25	0.750			
0.2040	13058.01	4.0110	4.0111	0.8346	26.24	0.25	0.750			
0.2065	13218.68	4.0080	4.0080	0.8368	26.25	0.26	0.750			
0.2090	13378.50	4.0050	4.0051	0.8390	26.25	0.26	0.750			
0.2115	13539.09	4.0020	4.0017	0.8408	26.25	0.26	0.750			
0.2141	13700.44	3.9990	3.9990	0.8381	26.25	0.26	0.750			
0.2166	13862.26	3.9960	3.9961	0.8455	26.25	0.26	0.750			
0.2192	14025.99	3.9930	3.9930	0.8516	26.26	0.27	0.750			
0.2217	14189.52	3.9900	3.9900	0.8534	26.26	0.27	0.750			
0.2243	14353.37	3.9870	3.9869	0.8560	26.26	0.27	0.750			
0.2269	14520.29	3.9840	3.9840	0.8482	26.26	0.27	0.750			
0.2294	14683.65	3.9810	3.9811	0.8511	26.26	0.27	0.750			
0.2320	14846.74	3.9780	3.9781	0.8487	26.27	0.28	0.750			
0.2345	15007.20	3.9750	3.9750	0.8507	26.27	0.28	0.750			
0.2370	15169.79	3.9720	3.9721	0.8512	26.27	0.28	0.750			
0.2396	15334.56	3.9690	3.9690	0.8530	26.27	0.28	0.750			
0.2422	15500.23	3.9660	3.9660	0.8589	26.27	0.28	0.750			
0.2448	15666.91	3.9630	3.9630	0.8619	26.28	0.29	0.750			
0.2474	15830.94	3.9600	3.9601	0.8563	26.28	0.29	0.750			
0.2499	15995.90	3.9570	3.9570	0.8571	26.28	0.29	0.750			
0.2525	16159.66	3.9540	3.9540	0.8562	26.28	0.29	0.750			
0.2551	16324.29	3.9510	3.9510	0.8577	26.28	0.29	0.750			
0.2576	16487.96	3.9480	3.9481	0.8604	26.27	0.28	0.750			
0.2602	16653.67	3.9450	3.9450	0.8627	26.27	0.28	0.750			
0.2628	16819.59	3.9420	3.9420	0.8665	26.27	0.28	0.750			
0.2654	16986.98	3.9390	3.9390	0.8660	26.27	0.28	0.750			
0.2680	17152.73	3.9360	3.9361	0.8709	26.27	0.28	0.750			
0.2706	17321.39	3.9330	3.9330	0.8722	26.27	0.28	0.750			
0.2733	17488.60	3.9300	3.9298	0.8773	26.27	0.28	0.750			
0.2759	17656.56	3.9270	3.9270	0.8812	26.27	0.28	0.750			
0.2785	17826.14	3.9240	3.9240	0.8816	26.27	0.28	0.750			
0.2812	17995.15	3.9210	3.9211	0.8866	26.27	0.28	0.750			
0.2838	18166.14	3.9180	3.9180	0.8931	26.27	0.28	0.750			
0.2865	18337.07	3.9150	3.9148	0.8931	26.27	0.28	0.750			
0.2892	18509.65	3.9120	3.9120	0.8979	26.27	0.28	0.750			
0.2919	18681.91	3.9090	3.9091	0.8976	26.26	0.27	0.750			
0.2946	18855.76	3.9060	3.9060	0.9032	26.26	0.27	0.750			
0.2973	19029.08	3.9030	3.9030	0.9003	26.25	0.26	0.750			
0.3000	19202.06	3.9000	3.9000	0.9027	26.25	0.26	0.750			
0.3027	19375.13	3.8970	3.8970	0.8988	26.24	0.25	0.750			
0.3054	19547.45	3.8940	3.8940	0.9017	26.24	0.25	0.750			
0.3081	19720.24	3.8910	3.8911	0.9025	26.24	0.25	0.750			
0.3108	19893.29	3.8880	3.8879	0.9065	26.23	0.24	0.750			
0.3136	20068.22	3.8850	3.8850	0.9058	26.23	0.24	0.750			
0.3163	20243.32	3.8820	3.8820	0.9094	26.22	0.23	0.750			
0.3190	20417.80	3.8790	3.8790	0.9117	26.22	0.23	0.750			
0.3218	20593.99	3.8760	3.8760	0.9141	26.21	0.22	0.750			
0.3245	20767.03	3.8730	3.8729	0.9135	26.21	0.22	0.750			
0.3273	20944.15	3.8700	3.8700	0.9111	26.20	0.21	0.750			
0.3300	21118.12	3.8670	3.8670	0.9139	26.20	0.21	0.750			
0.3327	21293.82	3.8640	3.8640	0.9193	26.19	0.20	0.750			
0.3355	21470.50	3.8610	3.8610	0.9205	26.18	0.19	0.750			
0.3382	21647.28	3.8580	3.8580	0.9244	26.18	0.19	0.750			
0.3410	21825.10	3.8550	3.8550	0.9304	26.17	0.18	0.750			
0.3438	22004.51	3.8520	3.8520	0.9360	26.16	0.17	0.750			
0.3467	22186.87	3.8490	3.8490	0.9411	26.16	0.17	0.750			
0.3495	22366.51	3.8460	3.8460	0.9415	26.15	0.16	0.750			
0.3523	22548.01	3.8430	3.8430	0.9405	26.14	0.15	0.750			
0.3551	22728.17	3.8400	3.8400	0.9453	26.14	0.15	0.750			
0.3580	22909.50	3.8370	3.8370	0.9456	26.14	0.15	0.750			
0.3608	23089.85	3.8340	3.8339	0.9492	26.13	0.14	0.750			
0.3637	23274.39	3.8310	3.8310	0.9503	26.12	0.13	0.750			
0.3665	23456.62	3.8280	3.8280	0.9586	26.11	0.12	0.750			
0.3694	23640.52	3.8250	3.8250	0.9661	26.10	0.11	0.750			
0.3723	23825.75	3.8220	3.8221	0.9747	26.10	0.11	0.750			
0.3752	24014.98	3.8190	3.8190	0.9833	26.09	0.10	0.750			
0.3782	24205.55	3.8160	3.8160	0.9973	26.08	0.09	0.750			
0.3812	24396.79	3.8130	3.8130	1.0105	26.07	0.08	0.750			
0.3843	24592.95	3.8100	3.8102	1.0289	26.07	0.08	0.750			
0.3874	24792.58	3.8070	3.8068	1.0291	26.06	0.07	0.750			
0.3905	24990.19	3.8040	3.8040	1.0432	26.05	0.06	0.750			
0.3936	25190.59	3.8010	3.8011	1.0542	26.04	0.05	0.750			
0.3968	25393.68	3.7980	3.7980	1.0714	26.04	0.05	0.750			
0.4000	25601.42	3.7950	3.7949	1.0812	26.03	0.04	0.750			
0.4033	25809.99	3.7920	3.7921	1.0998	26.02	0.03	0.750			
0.4066	26021.98	3.7890	3.7890	1.1173	26.01	0.02	0.750			
0.4100	26240.49	3.7860	3.7860	1.1371	25.99	0.00	0.750			
0.4134	26460.17	3.7830	3.7830	1.1393	25.99	-0.00	0.750			
0.4168	26677.15	3.7800	3.7800	1.1763	25.98	-0.01	0.750			
0.4204	26902.41	3.7770	3.7771	1.2189	25.97	-0.02	0.750			
0.4241	27143.54	3.7740	3.7735	1.2326	25.96	-0.03	0.750	0.319	0.471	
0.4279	27382.99	3.7710	3.7712	1.2658	25.95	-0.04	0.750			
0.4317	27628.78	3.7680	3.7683	1.2992	25.94	-0.05	0.750			
0.4357	27887.77	3.7650	3.7647	1.3126	25.93	-0.06	0.750			
0.4396	28135.47	3.7620	3.7620	1.3380	25.92	-0.07	0.750			
0.4436	28393.29	3.7590	3.7591	1.3559	25.91	-0.08	0.750			
0.4478	28656.84	3.7560	3.7559	1.3811	25.89	-0.10	0.750			
0.4520	28930.06	3.7530	3.7531	1.4205	25.88	-0.11	0.750			
0.4563	29200.52	3.7500	3.7501	1.4337	25.88	-0.11	0.750			
0.4606	29476.98	3.7470	3.7468	1.4670	25.87	-0.12	0.750			
0.4650	29758.07	3.7440	3.7441	1.5006	25.86	-0.13	0.750			
0.4695	30050.60	3.7410	3.7411	1.5429	25.84	-0.15	0.750			
0.4743	30356.77	3.7380	3.7377	1.5887	25.82	-0.17	0.750			
0.4791	30663.76	3.7350	3.7349	1.6192	25.81	-0.18	0.750			
0.4840	30977.90	3.7320	3.7323	1.6725	25.80	-0.19	0.750			
0.4891	31304.06	3.7290	3.7291	1.7160	25.79	-0.20	0.750			
0.4943	31636.60	3.7260	3.7260	1.7505	25.78	-0.21	0.750			
0.4996	31973.49	3.7230	3.7229	1.8063	25.77	-0.22	0.750			
0.5051	32327.56	3.7200	3.7198	1.8590	25.76	-0.23	0.750			
0.5108	32690.08	3.7170	3.7169	1.9165	25.75	-0.24	0.750			
0.5166	33062.69	3.7140	3.7139	1.9756	25.73	-0.26	0.750			
0.5226	33444.89	3.7110	3.7111	2.0428	25.71	-0.28	0.750			
0.5288	33844.93	3.7080	3.7081	2.1072	25.70	-0.29	0.750			
0.5353	34260.36	3.7050	3.7049	2.1577	25.68	-0.31	0.750			
0.5418	34673.33	3.7020	3.7021	2.2214	25.67	-0.32	0.750			
0.5486	35107.30	3.6990	3.6989	2.3053	25.66	-0.33	0.750			
0.5556	35559.80	3.6960	3.6958	2.3931	25.65	-0.34	0.750			
0.5628	36021.40	3.6930	3.6930	2.4598	25.65	-0.34	0.750			
0.5704	36506.27	3.6900	3.6900	2.5593	25.64	-0.35	0.750			
0.5783	37009.54	3.6870	3.6870	2.6610	25.63	-0.36	0.750			
0.5863	37520.50	3.6840	3.6839	2.7159	25.62	-0.37	0.750			
0.5948	38064.90	3.6810	3.6811	2.7892	25.62	-0.37	0.750			
0.6034	38617.32	3.6780	3.6779	2.7205	25.62	-0.37	0.750			
0.6117	39150.17	3.6750	3.6754	2.5774	25.62	-0.37	0.750			
0.6192	39626.51	3.6720	3.6719	2.3400	25.62	-0.37	0.750			
0.6255	40034.87	3.6690	3.6692	2.0998	25.62	-0.37	0.750			
0.6315	40414.11	3.6660	3.6659	1.8937	25.63	-0.36	0.750			
0.6367	40751.12	3.6630	3.6630	1.7565	25.63	-0.36	0.750			
0.6417	41067.79	3.6600	3.6599	1.6311	25.63	-0.36	0.750			
0.6463	41364.27	3.6570	3.6570	1.5082	25.64	-0.35	0.750			
0.6507	41647.23	3.6540	3.6540	1.4296	25.64	-0.35	0.750			
0.6549	41913.56	3.6510	3.6512	1.3471	25.64	-0.35	0.750			
0.6587	42159.53	3.6480	3.6481	1.2776	25.65	-0.34	0.750			
0.6624	42396.35	3.6450	3.6449	1.2119	25.65	-0.34	0.750			
0.6659	42615.49	3.6420	3.6421	1.1830	25.65	-0.34	0.750			
0.6693	42835.39	3.6390	3.6390	1.1675	25.66	-0.33	0.750			
0.6728	43060.15	3.6360	3.6359	1.1679	25.66	-0.33	0.750			
0.6763	43281.44	3.6330	3.6331	1.1686	25.66	-0.33	0.750			
0.6798	43506.67	3.6300	3.6300	1.1811	25.67	-0.32	0.750			
0.6834	43736.46	3.6270	3.6271	1.1849	25.68	-0.31	0.750			
0.6870	43969.04	3.6240	3.6239	1.1698	25.68	-0.31	0.750			
0.6905	44192.74	3.6210	3.6211	1.1601	25.68	-0.31	0.750			
0.6940	44415.90	3.6180	3.6181	1.1495	25.68	-0.31	0.750			
0.6974	44634.65	3.6150	3.6151	1.1337	25.68	-0.31	0.750			
0.7008	44849.94	3.6120	3.6120	1.1112	25.68	-0.31	0.750			
0.7040	45057.26	3.6090	3.6091	1.1046	25.68	-0.31	0.750			
0.7073	45267.61	3.6060	3.6061	1.1124	25.69	-0.30	0.750			
0.7106	45481.08	3.6030	3.6029	1.1315	25.69	-0.30	0.750			
0.7140	45693.77	3.6000	3.6001	1.1488	25.69	-0.30	0.750			
0.7174	45914.77	3.5970	3.5970	1.1929	25.69	-0.30	0.750			
0.7210	46146.87	3.5940	3.5940	1.2403	25.70	-0.29	0.750			
0.7249	46392.41	3.5910	3.5910	1.2620	25.70	-0.29	0.750			
0.7287	46638.10	3.5880	3.5880	1.2984	25.70	-0.29	0.750			
0.7327	46891.96	3.5850	3.5853	1.3348	25.71	-0.28	0.750			
0.7368	47152.83	3.5820	3.5815	1.3698	25.71	-0.28	0.750			
0.7408	47413.28	3.5790	3.5791	1.4141	25.71	-0.28	0.750			
0.7452	47691.52	3.5760	3.5760	1.4503	25.71	-0.28	0.750			
0.7497	47978.01	3.5730	3.5730	1.4961	25.71	-0.28	0.750			
0.7542	48266.71	3.5700	3.5700	1.5479	25.71	-0.28	0.750			
0.7590	48575.39	3.5670	3.5671	1.5707	25.72	-0.27	0.750			
0.7638	48882.69	3.5640	3.5640	1.5899	25.72	-0.27	0.750			
0.7686	49189.66	3.5610	3.5614	1.6166	25.72	-0.27	0.750			
0.7735	49503.05	3.5580	3.5578	1.6273	25.72	-0.27	0.750			
0.7784	49818.23	3.5550	3.5551	1.6621	25.72	-0.27	0.750			
0.7834	50138.70	3.5520	3.5523	1.6760	25.72	-0.27	0.750			
0.7884	50458.09	3.5490	3.5490	1.7113	25.72	-0.27	0.750			
0.7937	50793.68	3.5460	3.5458	1.7368	25.73	-0.26	0.750			
0.7989	51131.43	3.5430	3.5429	1.7687	25.73	-0.26	0.750			
0.8047	51498.43	3.5400	3.5397	1.6912	25.75	-0.24	0.750			
0.8099	51832.71	3.5370	3.5369	1.5491	25.77	-0.22	0.750			
0.8147	52140.57	3.5340	3.5346	1.3340	25.78	-0.21	0.750			
0.8185	52384.74	3.5310	3.5315	1.0856	25.80	-0.19	0.750			
0.8212	52556.75	3.5280	3.5278	0.8502	25.81	-0.18	0.750			
0.8230	52670.54	3.5250	3.5245	0.6186	25.82	-0.17	0.750			
0.8241	52740.31	3.5220	3.5220	0.4635	25.82	-0.17	0.750			
0.8252	52815.54	3.5190	3.5188	0.3984	25.83	-0.16	0.750			
0.8263	52881.61	3.5160	3.5160	0.3573	25.84	-0.15	0.750			
0.8273	52945.44	3.5130	3.5129	0.3320	25.84	-0.15	0.750			
0.8282	53005.59	3.5100	3.5100	0.3152	25.85	-0.14	0.750			
0.8291	53064.96	3.5070	3.5070	0.3030	25.85	-0.14	0.750			
0.8300	53120.66	3.5040	3.5039	0.2937	25.86	-0.13	0.750			
0.8309	53175.82	3.5010	3.5011	0.2862	25.87	-0.12	0.750			
0.8317	53230.12	3.4980	3.4979	0.2782	25.87	-0.12	0.750			
0.8325	53283.18	3.4950	3.4949	0.2713	25.88	-0.11	0.750			
0.8334	53334.79	3.4920	3.4921	0.2640	25.88	-0.11	0.750			
0.8341	53384.49	3.4890	3.4891	0.2574	25.89	-0.10	0.750			
0.8349	53433.25	3.4860	3.4859	0.2518	25.89	-0.10	0.750			
0.8356	53479.97	3.4830	3.4830	0.2453	25.90	-0.09	0.750			
0.8364	53526.77	3.4800	3.4799	0.2402	25.90	-0.09	0.750			
0.8371	53572.90	3.4770	3.4770	0.2372	25.91	-0.08	0.750			
0.8378	53617.89	3.4740	3.4740	0.2324	25.91	-0.08	0.750			
0.8385	53662.18	3.4710	3.4711	0.2275	25.92	-0.07	0.750			
0.8392	53705.61	3.4680	3.4679	0.2225	25.92	-0.07	0.750			
0.8398	53747.32	3.4650	3.4650	0.2177	25.93	-0.06	0.750			
0.8404	53788.55	3.4620	3.4620	0.2135	25.93	-0.06	0.750			
0.8411	53829.44	3.4590	3.4590	0.2083	25.93	-0.06	0.750			
0.8417	53869.44	3.4560	3.4559	0.2042	25.94	-0.05	0.750			
0.8423	53908.02	3.4530	3.4531	0.1986	25.94	-0.05	0.750			
0.8429	53945.64	3.4500	3.4501	0.1928	25.95	-0.04	0.750			
0.8435	53982.14	3.4470	3.4470	0.1876	25.95	-0.04	0.750			
0.8440	54017.61	3.4440	3.4439	0.1818	25.96	-0.03	0.750			
0.8446	54051.72	3.4410	3.4411	0.1762	25.96	-0.03	0.750			
0.8451	54084.84	3.4380	3.4380	0.1708	25.96	-0.03	0.750			
0.8456	54117.09	3.4350	3.4351	0.1670	25.97	-0.02	0.750			
0.8461	54148.72	3.4320	3.4320	0.1625	25.97	-0.02	0.750			
0.8466	54179.40	3.4290	3.4290	0.1568	25.97	-0.02	0.750			
0.8470	54209.55	3.4260	3.4259	0.1508	25.98	-0.01	0.750			
0.8475	54237.98	3.4230	3.4232	0.1452	25.98	-0.01	0.750			
0.8479	54265.24	3.4200	3.4200	0.1388	25.98	-0.01	0.750			
0.8483	54291.29	3.4170	3.4170	0.1334	25.99	-0.00	0.750			
0.8487	54316.12	3.4140	3.4139	0.1270	25.99	-0.00	0.750			
0.8491	54339.99	3.4110	3.4110	0.1193	25.99	0.00	0.750			
0.8494	54362.31	3.4080	3.4080	0.1131	25.99	0.00	0.750			
0.8498	54385.45	3.4050	3.4048	0.1050	26.00	0.01	0.750			
0.8501	54405.28	3.4020	3.4020	0.0980	26.00	0.01	0.750			
0.8504	54423.08	3.3990	3.3991	0.0874	26.00	0.01	0.750			
0.8506	54439.42	3.3960	3.3961	0.0776	26.00	0.01	0.750			
0.8508	54453.23	3.3930	3.3933	0.0663	26.00	0.01	0.750			
0.8510	54465.13	3.3900	3.3907	0.0549	26.01	0.02	0.750			
0.8512	54474.56	3.3870	3.3882	0.0433	26.01	0.02	0.750			
0.8513	54481.75	3.3840	3.3856	0.0316	26.01	0.02	0.750			
0.8514	54486.70	3.3810	3.3833	0.0200	26.01	0.02	0.750			
