Ah_balance (normalized)	Ah_balance (mAh)	Voltage - fit (V)	Voltage -  interpolate (V)	dQ/dV (1/V)	Temperature (°C)	Temperature - diff (°C)	Current (C)	R_DC 0ms (mOhm)	R_DC 50ms (mOhm)	R_DC 50 ms PEC (mOhm)
0.0005	29.51	4.1630	4.1629	-0.1345	25.96	0.01	-0.750			
0.0009	60.66	4.1600	4.1600	-0.1853	25.96	0.01	-0.750			
0.0016	101.63	4.1570	4.1569	-0.2323	25.96	0.01	-0.750			
0.0024	151.62	4.1540	4.1541	-0.2739	25.95	0.00	-0.750			
0.0033	208.60	4.1510	4.1510	-0.3126	25.95	0.00	-0.750			
0.0043	273.72	4.1480	4.1481	-0.3547	25.95	-0.00	-0.750			
0.0054	345.80	4.1450	4.1450	-0.3916	25.94	-0.01	-0.750			
0.0066	424.38	4.1420	4.1419	-0.4233	25.94	-0.01	-0.750			
0.0080	509.41	4.1390	4.1390	-0.4560	25.94	-0.01	-0.750			
0.0094	600.47	4.1360	4.1361	-0.4897	25.93	-0.02	-0.750			
0.0109	698.38	4.1330	4.1329	-0.5180	25.93	-0.02	-0.750			
0.0125	802.15	4.1300	4.1300	-0.5434	25.92	-0.03	-0.750			
0.0142	908.83	4.1270	4.1270	-0.5635	25.92	-0.03	-0.750			
0.0160	1021.09	4.1240	4.1242	-0.5810	25.91	-0.04	-0.750			
0.0177	1134.91	4.1210	4.1210	-0.5953	25.91	-0.04	-0.750			
0.0195	1250.12	4.1180	4.1180	-0.6083	25.90	-0.05	-0.750			
0.0214	1366.82	4.1150	4.1150	-0.6225	25.90	-0.05	-0.750			
0.0233	1488.76	4.1120	4.1120	-0.6315	25.90	-0.05	-0.750			
0.0252	1610.95	4.1090	4.1090	-0.6405	25.90	-0.05	-0.750			
0.0271	1735.54	4.1060	4.1060	-0.6519	25.89	-0.06	-0.750			
0.0291	1861.90	4.1030	4.1029	-0.6610	25.89	-0.06	-0.750			
0.0311	1989.50	4.1000	4.1000	-0.6659	25.89	-0.06	-0.750			
0.0331	2118.13	4.0970	4.0970	-0.6700	25.88	-0.07	-0.750			
0.0351	2246.80	4.0940	4.0941	-0.6809	25.88	-0.07	-0.750			
0.0372	2380.21	4.0910	4.0910	-0.6884	25.88	-0.07	-0.750			
0.0393	2512.72	4.0880	4.0879	-0.6907	25.87	-0.08	-0.750			
0.0413	2645.01	4.0850	4.0852	-0.6974	25.87	-0.08	-0.750			
0.0434	2779.94	4.0820	4.0819	-0.6998	25.87	-0.08	-0.750			
0.0455	2913.58	4.0790	4.0790	-0.7124	25.86	-0.09	-0.750			
0.0477	3052.26	4.0760	4.0760	-0.7134	25.86	-0.09	-0.750			
0.0499	3190.73	4.0730	4.0729	-0.7153	25.86	-0.09	-0.750			
0.0520	3328.66	4.0700	4.0700	-0.7200	25.85	-0.10	-0.750			
0.0542	3467.88	4.0670	4.0671	-0.7200	25.85	-0.10	-0.750			
0.0563	3605.17	4.0640	4.0639	-0.7185	25.85	-0.10	-0.750			
0.0585	3742.22	4.0610	4.0610	-0.7241	25.85	-0.10	-0.750			
0.0606	3878.89	4.0580	4.0581	-0.7235	25.85	-0.10	-0.750			
0.0628	4021.15	4.0550	4.0549	-0.7323	25.85	-0.10	-0.750			
0.0650	4162.97	4.0520	4.0520	-0.7353	25.85	-0.10	-0.750			
0.0672	4303.97	4.0490	4.0490	-0.7343	25.85	-0.10	-0.750			
0.0695	4446.85	4.0460	4.0460	-0.7369	25.85	-0.10	-0.750			
0.0717	4587.38	4.0430	4.0430	-0.7395	25.85	-0.10	-0.750			
0.0739	4728.50	4.0400	4.0400	-0.7354	25.85	-0.10	-0.750			
0.0761	4870.42	4.0370	4.0370	-0.7399	25.85	-0.10	-0.750			
0.0783	5012.31	4.0340	4.0342	-0.7424	25.85	-0.10	-0.750			
0.0806	5155.33	4.0310	4.0310	-0.7447	25.85	-0.10	-0.750			
0.0828	5298.01	4.0280	4.0279	-0.7492	25.85	-0.10	-0.750			
0.0850	5441.91	4.0250	4.0250	-0.7487	25.85	-0.10	-0.750			
0.0873	5585.84	4.0220	4.0221	-0.7560	25.85	-0.10	-0.750			
0.0896	5732.57	4.0190	4.0190	-0.7582	25.85	-0.10	-0.750			
0.0918	5878.35	4.0160	4.0160	-0.7569	25.85	-0.10	-0.750			
0.0941	6023.01	4.0130	4.0130	-0.7614	25.85	-0.10	-0.750			
0.0964	6169.06	4.0100	4.0101	-0.7637	25.85	-0.10	-0.750			
0.0987	6315.94	4.0070	4.0069	-0.7631	25.85	-0.10	-0.750			
0.1010	6463.60	4.0040	4.0040	-0.7654	25.85	-0.10	-0.750			
0.1033	6609.25	4.0010	4.0013	-0.7657	25.85	-0.10	-0.750			
0.1056	6757.87	3.9980	3.9980	-0.7684	25.85	-0.10	-0.750			
0.1079	6905.82	3.9950	3.9950	-0.7714	25.85	-0.10	-0.750			
0.1102	7053.09	3.9920	3.9920	-0.7714	25.85	-0.10	-0.750			
0.1125	7202.17	3.9890	3.9890	-0.7738	25.85	-0.10	-0.750			
0.1149	7351.41	3.9860	3.9860	-0.7751	25.85	-0.10	-0.750			
0.1172	7499.81	3.9830	3.9829	-0.7780	25.85	-0.10	-0.750			
0.1195	7648.54	3.9800	3.9800	-0.7787	25.85	-0.10	-0.750			
0.1219	7798.93	3.9770	3.9769	-0.7781	25.85	-0.10	-0.750			
0.1242	7946.74	3.9740	3.9741	-0.7812	25.85	-0.10	-0.750			
0.1265	8097.27	3.9710	3.9709	-0.7865	25.85	-0.10	-0.750			
0.1289	8249.50	3.9680	3.9681	-0.7899	25.85	-0.10	-0.750			
0.1313	8402.80	3.9650	3.9650	-0.7897	25.85	-0.10	-0.750			
0.1337	8554.41	3.9620	3.9620	-0.7935	25.86	-0.09	-0.750			
0.1361	8708.46	3.9590	3.9590	-0.7943	25.86	-0.09	-0.750			
0.1385	8861.34	3.9560	3.9559	-0.7944	25.87	-0.08	-0.750			
0.1408	9011.44	3.9530	3.9533	-0.7931	25.87	-0.08	-0.750			
0.1432	9163.56	3.9500	3.9500	-0.7923	25.87	-0.08	-0.750			
0.1456	9315.45	3.9470	3.9470	-0.8022	25.87	-0.08	-0.750			
0.1480	9469.82	3.9440	3.9439	-0.8073	25.87	-0.08	-0.750			
0.1504	9626.96	3.9410	3.9410	-0.8129	25.87	-0.08	-0.750			
0.1529	9783.77	3.9380	3.9382	-0.8125	25.87	-0.08	-0.750			
0.1553	9940.82	3.9350	3.9350	-0.8140	25.87	-0.08	-0.750			
0.1578	10096.74	3.9320	3.9320	-0.8153	25.88	-0.07	-0.750			
0.1602	10251.49	3.9290	3.9289	-0.8158	25.88	-0.07	-0.750			
0.1626	10407.81	3.9260	3.9260	-0.8107	25.88	-0.07	-0.750			
0.1651	10565.83	3.9230	3.9231	-0.8143	25.89	-0.06	-0.750			
0.1675	10721.16	3.9200	3.9200	-0.8198	25.89	-0.06	-0.750			
0.1700	10877.69	3.9170	3.9170	-0.8270	25.89	-0.06	-0.750			
0.1724	11036.48	3.9140	3.9139	-0.8325	25.89	-0.06	-0.750			
0.1750	11197.59	3.9110	3.9109	-0.8316	25.89	-0.06	-0.750			
0.1775	11360.35	3.9080	3.9080	-0.8357	25.89	-0.06	-0.750			
0.1800	11522.00	3.9050	3.9051	-0.8396	25.89	-0.06	-0.750			
0.1826	11683.76	3.9020	3.9020	-0.8403	25.90	-0.05	-0.750			
0.1851	11843.71	3.8990	3.8989	-0.8359	25.90	-0.05	-0.750			
0.1875	12003.18	3.8960	3.8960	-0.8332	25.90	-0.05	-0.750			
0.1901	12164.58	3.8930	3.8930	-0.8336	25.91	-0.04	-0.750			
0.1926	12325.07	3.8900	3.8899	-0.8324	25.91	-0.04	-0.750			
0.1951	12483.37	3.8870	3.8870	-0.8373	25.91	-0.04	-0.750			
0.1975	12643.15	3.8840	3.8840	-0.8371	25.91	-0.04	-0.750			
0.2001	12803.86	3.8810	3.8809	-0.8377	25.91	-0.04	-0.750			
0.2026	12967.31	3.8780	3.8780	-0.8449	25.91	-0.04	-0.750			
0.2052	13130.54	3.8750	3.8750	-0.8444	25.91	-0.04	-0.750			
0.2077	13293.66	3.8720	3.8720	-0.8500	25.92	-0.03	-0.750			
0.2103	13456.07	3.8690	3.8690	-0.8467	25.92	-0.03	-0.750			
0.2128	13616.46	3.8660	3.8660	-0.8427	25.93	-0.02	-0.750			
0.2153	13781.24	3.8630	3.8631	-0.8496	25.93	-0.02	-0.750			
0.2179	13944.12	3.8600	3.8599	-0.8479	25.93	-0.02	-0.750			
0.2204	14106.71	3.8570	3.8569	-0.8501	25.94	-0.01	-0.750			
0.2230	14271.07	3.8540	3.8540	-0.8481	25.94	-0.01	-0.750			
0.2255	14431.38	3.8510	3.8510	-0.8500	25.95	-0.00	-0.750			
0.2281	14597.07	3.8480	3.8482	-0.8559	25.95	-0.00	-0.750			
0.2307	14761.70	3.8450	3.8449	-0.8540	25.95	0.00	-0.750			
0.2332	14926.76	3.8420	3.8420	-0.8560	25.95	0.00	-0.750			
0.2358	15092.01	3.8390	3.8391	-0.8523	25.96	0.01	-0.750			
0.2383	15254.32	3.8360	3.8360	-0.8498	25.96	0.01	-0.750			
0.2409	15418.95	3.8330	3.8333	-0.8516	25.96	0.01	-0.750			
0.2434	15580.45	3.8300	3.8299	-0.8473	25.96	0.01	-0.750			
0.2460	15741.55	3.8270	3.8270	-0.8572	25.96	0.01	-0.750			
0.2486	15907.78	3.8240	3.8240	-0.8571	25.97	0.02	-0.750			
0.2512	16075.29	3.8210	3.8209	-0.8645	25.97	0.02	-0.750			
0.2538	16240.15	3.8180	3.8182	-0.8602	25.97	0.02	-0.750			
0.2563	16405.07	3.8150	3.8149	-0.8562	25.97	0.02	-0.750			
0.2589	16569.87	3.8120	3.8120	-0.8553	25.98	0.03	-0.750			
0.2614	16731.87	3.8090	3.8089	-0.8511	25.98	0.03	-0.750			
0.2640	16896.66	3.8060	3.8060	-0.8491	25.99	0.04	-0.750			
0.2666	17059.69	3.8030	3.8031	-0.8520	25.99	0.04	-0.750			
0.2691	17222.25	3.8000	3.7999	-0.8511	26.00	0.05	-0.750			
0.2717	17388.34	3.7970	3.7969	-0.8548	26.00	0.05	-0.750			
0.2743	17552.98	3.7940	3.7940	-0.8493	26.00	0.05	-0.750			
0.2768	17716.83	3.7910	3.7909	-0.8480	26.01	0.06	-0.750			
0.2794	17879.53	3.7880	3.7879	-0.8419	26.01	0.06	-0.750			
0.2819	18039.11	3.7850	3.7849	-0.8438	26.01	0.06	-0.750			
0.2844	18199.09	3.7820	3.7819	-0.8371	26.01	0.06	-0.750			
0.2868	18356.40	3.7790	3.7790	-0.8334	26.01	0.06	-0.750			
0.2894	18522.44	3.7760	3.7758	-0.8364	26.01	0.06	-0.750			
0.2919	18682.70	3.7730	3.7730	-0.8367	26.01	0.06	-0.750			
0.2944	18842.03	3.7700	3.7700	-0.8338	26.02	0.07	-0.750			
0.2969	19001.33	3.7670	3.7669	-0.8293	26.02	0.07	-0.750			
0.2993	19158.35	3.7640	3.7640	-0.8214	26.02	0.07	-0.750			
0.3019	19318.70	3.7610	3.7610	-0.8256	26.03	0.08	-0.750			
0.3043	19476.52	3.7580	3.7580	-0.8253	26.03	0.08	-0.750			
0.3068	19635.19	3.7550	3.7550	-0.8269	26.04	0.09	-0.750			
0.3092	19791.75	3.7520	3.7520	-0.8220	26.04	0.09	-0.750			
0.3117	19950.18	3.7490	3.7490	-0.8243	26.04	0.09	-0.750			
0.3142	20109.68	3.7460	3.7460	-0.8280	26.05	0.10	-0.750			
0.3167	20268.24	3.7430	3.7430	-0.8338	26.05	0.10	-0.750			
0.3192	20427.43	3.7400	3.7400	-0.8416	26.05	0.10	-0.750			
0.3217	20588.95	3.7370	3.7369	-0.8429	26.05	0.10	-0.750			
0.3243	20752.31	3.7340	3.7339	-0.8480	26.06	0.11	-0.750			
0.3268	20917.18	3.7310	3.7310	-0.8541	26.06	0.11	-0.750			
0.3294	21080.50	3.7280	3.7278	-0.8647	26.06	0.11	-0.750			
0.3320	21246.69	3.7250	3.7251	-0.8759	26.06	0.11	-0.750			
0.3346	21413.04	3.7220	3.7220	-0.8834	26.07	0.12	-0.750			
0.3372	21583.89	3.7190	3.7189	-0.8999	26.07	0.12	-0.750			
0.3400	21761.29	3.7160	3.7160	-0.9210	26.07	0.12	-0.750			
0.3428	21938.41	3.7130	3.7129	-0.9366	26.07	0.12	-0.750			
0.3456	22121.50	3.7100	3.7100	-0.9437	26.07	0.12	-0.750			
0.3485	22302.83	3.7070	3.7070	-0.9495	26.07	0.12	-0.750			
0.3513	22485.90	3.7040	3.7039	-0.9630	26.07	0.12	-0.750			
0.3542	22671.18	3.7010	3.7011	-0.9771	26.07	0.12	-0.750			
0.3572	22858.96	3.6980	3.6979	-0.9969	26.07	0.12	-0.750			
0.3602	23050.66	3.6950	3.6949	-1.0174	26.07	0.12	-0.750			
0.3632	23247.64	3.6920	3.6920	-1.0335	26.07	0.12	-0.750			
0.3664	23450.38	3.6890	3.6891	-1.0732	26.07	0.12	-0.750			
0.3697	23660.35	3.6860	3.6860	-1.0943	26.07	0.12	-0.750			
0.3730	23873.46	3.6830	3.6829	-1.1130	26.06	0.11	-0.750			
0.3764	24087.00	3.6800	3.6800	-1.1336	26.06	0.11	-0.750			
0.3798	24309.12	3.6770	3.6770	-1.1624	26.06	0.11	-0.750			
0.3833	24533.94	3.6740	3.6740	-1.1838	26.06	0.11	-0.750			
0.3869	24763.90	3.6710	3.6709	-1.2047	26.05	0.10	-0.750			
0.3906	24995.77	3.6680	3.6682	-1.2271	26.05	0.10	-0.750			
0.3943	25236.31	3.6650	3.6649	-1.2558	26.04	0.09	-0.750			
0.3981	25477.34	3.6620	3.6620	-1.2875	26.04	0.09	-0.750			
0.4020	25726.01	3.6590	3.6591	-1.3226	26.03	0.08	-0.750			
0.4060	25982.31	3.6560	3.6558	-1.3694	26.03	0.08	-0.750			
0.4101	26245.34	3.6530	3.6530	-1.4146	26.02	0.07	-0.750			
0.4145	26526.06	3.6500	3.6500	-1.4480	26.02	0.07	-0.750			
0.4189	26810.74	3.6470	3.6468	-1.4699	26.01	0.06	-0.750			
0.4235	27102.22	3.6440	3.6438	-1.5001	26.00	0.05	-0.750			
0.4280	27390.77	3.6410	3.6412	-1.5170	25.99	0.04	-0.750			
0.4325	27679.40	3.6380	3.6378	-1.5562	25.98	0.03	-0.750			
0.4372	27981.19	3.6350	3.6350	-1.5831	25.98	0.03	-0.750			
0.4420	28287.22	3.6320	3.6320	-1.6151	25.97	0.02	-0.750			
0.4470	28604.83	3.6290	3.6293	-1.6758	25.96	0.01	-0.750			
0.4521	28934.35	3.6260	3.6257	-1.7125	25.95	0.00	-0.750			
0.4573	29267.21	3.6230	3.6231	-1.7325	25.94	-0.01	-0.750	0.414	0.510	
0.4625	29603.08	3.6200	3.6201	-1.7490	25.94	-0.01	-0.750			
0.4678	29941.91	3.6170	3.6169	-1.7780	25.93	-0.02	-0.750			
0.4731	30279.76	3.6140	3.6141	-1.8019	25.92	-0.03	-0.750			
0.4786	30631.00	3.6110	3.6109	-1.8402	25.91	-0.04	-0.750			
0.4841	30983.20	3.6080	3.6081	-1.8755	25.91	-0.04	-0.750			
0.4898	31346.81	3.6050	3.6050	-1.9149	25.91	-0.04	-0.750			
0.4956	31721.16	3.6020	3.6021	-1.9791	25.90	-0.05	-0.750			
0.5016	32103.70	3.5990	3.5990	-2.0352	25.89	-0.06	-0.750			
0.5078	32498.77	3.5960	3.5959	-2.0814	25.88	-0.07	-0.750			
0.5142	32908.14	3.5930	3.5929	-2.1162	25.87	-0.08	-0.750			
0.5206	33321.31	3.5900	3.5902	-2.1550	25.87	-0.08	-0.750			
0.5272	33742.71	3.5870	3.5869	-2.1828	25.86	-0.09	-0.750			
0.5339	34167.11	3.5840	3.5840	-2.2029	25.86	-0.09	-0.750			
0.5404	34586.86	3.5810	3.5811	-2.1980	25.85	-0.10	-0.750			
0.5470	35010.69	3.5780	3.5781	-2.2327	25.85	-0.10	-0.750			
0.5538	35441.28	3.5750	3.5750	-2.2590	25.85	-0.10	-0.750			
0.5608	35889.96	3.5720	3.5719	-2.2636	25.85	-0.10	-0.750			
0.5676	36323.80	3.5690	3.5690	-2.2662	25.85	-0.10	-0.750			
0.5744	36759.14	3.5660	3.5661	-2.2783	25.85	-0.10	-0.750			
0.5811	37192.19	3.5630	3.5632	-2.2872	25.85	-0.10	-0.750			
0.5880	37631.48	3.5600	3.5599	-2.2904	25.85	-0.10	-0.750			
0.5948	38066.20	3.5570	3.5571	-2.3018	25.85	-0.10	-0.750			
0.6018	38515.52	3.5540	3.5540	-2.3124	25.85	-0.10	-0.750			
0.6089	38969.77	3.5510	3.5509	-2.3424	25.85	-0.10	-0.750			
0.6158	39412.14	3.5480	3.5483	-2.3187	25.85	-0.10	-0.750			
0.6229	39863.23	3.5450	3.5448	-2.3000	25.86	-0.09	-0.750			
0.6298	40304.32	3.5420	3.5420	-2.2672	25.87	-0.08	-0.750			
0.6365	40737.69	3.5390	3.5391	-2.2457	25.87	-0.08	-0.750			
0.6433	41172.06	3.5360	3.5360	-2.2113	25.87	-0.08	-0.750			
0.6499	41591.73	3.5330	3.5329	-2.1553	25.88	-0.07	-0.750			
0.6562	41995.79	3.5300	3.5301	-2.1154	25.89	-0.06	-0.750			
0.6626	42403.55	3.5270	3.5271	-2.0709	25.89	-0.06	-0.750			
0.6687	42797.58	3.5240	3.5240	-2.0323	25.89	-0.06	-0.750			
0.6747	43181.19	3.5210	3.5210	-1.9597	25.90	-0.05	-0.750			
0.6805	43552.95	3.5180	3.5179	-1.9051	25.92	-0.03	-0.750			
0.6862	43918.68	3.5150	3.5151	-1.8613	25.94	-0.01	-0.750			
0.6917	44267.62	3.5120	3.5121	-1.8020	25.95	0.00	-0.750			
0.6970	44608.32	3.5090	3.5091	-1.7260	25.97	0.02	-0.750			
0.7021	44935.88	3.5060	3.5061	-1.6687	25.98	0.03	-0.750			
0.7069	45243.78	3.5030	3.5030	-1.6027	25.99	0.04	-0.750			
0.7117	45548.64	3.5000	3.4999	-1.5548	26.00	0.05	-0.750			
0.7162	45838.97	3.4970	3.4970	-1.4989	26.01	0.06	-0.750			
0.7206	46119.56	3.4940	3.4940	-1.4506	26.03	0.08	-0.750			
0.7249	46394.31	3.4910	3.4911	-1.4023	26.05	0.10	-0.750			
0.7291	46662.71	3.4880	3.4880	-1.3667	26.07	0.12	-0.750			
0.7331	46920.00	3.4850	3.4850	-1.3191	26.09	0.14	-0.750			
0.7370	47168.16	3.4820	3.4819	-1.2723	26.10	0.15	-0.750			
0.7407	47406.38	3.4790	3.4792	-1.2286	26.11	0.16	-0.750			
0.7444	47640.83	3.4760	3.4760	-1.1911	26.13	0.18	-0.750			
0.7479	47863.23	3.4730	3.4730	-1.1433	26.14	0.19	-0.750			
0.7512	48077.98	3.4700	3.4699	-1.1044	26.16	0.21	-0.750			
0.7544	48284.30	3.4670	3.4670	-1.0703	26.17	0.22	-0.750			
0.7576	48486.62	3.4640	3.4640	-1.0334	26.19	0.24	-0.750			
0.7606	48681.28	3.4610	3.4610	-1.0003	26.20	0.25	-0.750			
0.7636	48869.09	3.4580	3.4580	-0.9673	26.21	0.26	-0.750			
0.7665	49052.92	3.4550	3.4551	-0.9468	26.22	0.27	-0.750			
0.7692	49230.16	3.4520	3.4520	-0.9285	26.23	0.28	-0.750			
0.7719	49404.52	3.4490	3.4490	-0.9164	26.24	0.29	-0.750			
0.7746	49576.70	3.4460	3.4461	-0.9068	26.26	0.31	-0.750			
0.7774	49750.60	3.4430	3.4431	-0.9158	26.27	0.32	-0.750			
0.7800	49922.13	3.4400	3.4399	-0.9437	26.28	0.33	-0.750			
0.7828	50102.16	3.4370	3.4370	-0.9684	26.28	0.33	-0.750			
0.7858	50289.62	3.4340	3.4338	-1.0056	26.29	0.34	-0.750			
0.7889	50486.64	3.4310	3.4310	-1.0360	26.30	0.35	-0.750			
0.7921	50693.54	3.4280	3.4281	-1.0829	26.31	0.36	-0.750			
0.7955	50909.18	3.4250	3.4249	-1.1101	26.33	0.38	-0.750			
0.7989	51128.43	3.4220	3.4218	-1.1152	26.34	0.39	-0.750			
0.8022	51343.04	3.4190	3.4191	-1.1094	26.35	0.40	-0.750			
0.8056	51560.89	3.4160	3.4159	-1.1004	26.36	0.41	-0.750			
0.8089	51772.72	3.4130	3.4129	-1.0767	26.37	0.42	-0.750			
0.8121	51977.25	3.4100	3.4100	-1.0431	26.38	0.43	-0.750			
0.8152	52170.46	3.4070	3.4070	-1.0020	26.39	0.44	-0.750			
0.8182	52363.02	3.4040	3.4040	-0.9802	26.40	0.45	-0.750			
0.8211	52548.77	3.4010	3.4009	-0.9425	26.40	0.45	-0.750			
0.8238	52725.37	3.3980	3.3980	-0.9066	26.41	0.46	-0.750			
0.8265	52896.59	3.3950	3.3949	-0.8710	26.42	0.47	-0.750			
0.8291	53061.70	3.3920	3.3921	-0.8397	26.42	0.47	-0.750			
0.8315	53219.14	3.3890	3.3889	-0.8100	26.43	0.48	-0.750			
0.8339	53370.23	3.3860	3.3860	-0.7768	26.44	0.49	-0.750			
0.8361	53513.39	3.3830	3.3830	-0.7442	26.45	0.50	-0.750			
0.8384	53656.74	3.3800	3.3800	-0.7224	26.45	0.50	-0.750			
0.8405	53793.10	3.3770	3.3770	-0.6931	26.46	0.51	-0.750			
0.8426	53923.97	3.3740	3.3740	-0.6648	26.47	0.52	-0.750			
0.8445	54048.07	3.3710	3.3710	-0.6343	26.47	0.52	-0.750			
0.8463	54165.79	3.3680	3.3680	-0.6100	26.48	0.53	-0.750			
0.8481	54280.52	3.3650	3.3650	-0.5856	26.48	0.53	-0.750			
0.8498	54389.54	3.3620	3.3620	-0.5630	26.49	0.54	-0.750			
0.8515	54495.63	3.3590	3.3590	-0.5436	26.49	0.54	-0.750			
0.8531	54598.87	3.3560	3.3561	-0.5233	26.50	0.55	-0.750			
0.8546	54697.49	3.3530	3.3529	-0.5029	26.51	0.56	-0.750			
0.8561	54791.90	3.3500	3.3500	-0.4834	26.51	0.56	-0.750			
0.8575	54882.39	3.3470	3.3470	-0.4639	26.52	0.57	-0.750			
0.8589	54969.62	3.3440	3.3440	-0.4437	26.53	0.58	-0.750			
0.8602	55052.78	3.3410	3.3410	-0.4251	26.53	0.58	-0.750			
0.8614	55132.34	3.3380	3.3381	-0.4088	26.54	0.59	-0.750			
0.8626	55209.20	3.3350	3.3349	-0.3931	26.55	0.60	-0.750			
0.8638	55282.30	3.3320	3.3319	-0.3781	26.55	0.60	-0.750			
0.8649	55353.00	3.3290	3.3290	-0.3633	26.56	0.61	-0.750			
0.8660	55421.88	3.3260	3.3261	-0.3503	26.56	0.61	-0.750			
0.8670	55488.60	3.3230	3.3229	-0.3387	26.57	0.62	-0.750			
0.8680	55552.03	3.3200	3.3200	-0.3242	26.57	0.62	-0.750			
0.8689	55612.26	3.3170	3.3171	-0.3114	26.58	0.63	-0.750			
0.8699	55670.72	3.3140	3.3140	-0.3009	26.58	0.63	-0.750			
0.8707	55727.25	3.3110	3.3109	-0.2900	26.59	0.64	-0.750			
0.8716	55781.57	3.3080	3.3080	-0.2803	26.59	0.64	-0.750			
0.8724	55834.24	3.3050	3.3050	-0.2717	26.60	0.65	-0.750			
0.8732	55885.47	3.3020	3.3020	-0.2643	26.60	0.65	-0.750			
0.8740	55935.73	3.2990	3.2989	-0.2577	26.61	0.66	-0.750			
0.8747	55983.86	3.2960	3.2960	-0.2501	26.61	0.66	-0.750			
0.8755	56031.35	3.2930	3.2931	-0.2447	26.61	0.66	-0.750			
0.8762	56078.28	3.2900	3.2899	-0.2387	26.62	0.67	-0.750			
0.8769	56123.56	3.2870	3.2869	-0.2318	26.62	0.67	-0.750			
0.8776	56167.21	3.2840	3.2840	-0.2251	26.63	0.68	-0.750			
0.8783	56209.48	3.2810	3.2812	-0.2192	26.63	0.68	-0.750			
0.8789	56251.06	3.2780	3.2780	-0.2133	26.64	0.69	-0.750			
0.8796	56291.48	3.2750	3.2748	-0.2075	26.64	0.69	-0.750			
0.8802	56330.22	3.2720	3.2720	-0.2025	26.64	0.69	-0.750			
0.8808	56368.38	3.2690	3.2691	-0.1980	26.65	0.70	-0.750			
0.8813	56405.97	3.2660	3.2660	-0.1952	26.65	0.70	-0.750			
0.8819	56443.13	3.2630	3.2630	-0.1919	26.66	0.71	-0.750			
0.8825	56479.56	3.2600	3.2600	-0.1874	26.66	0.71	-0.750			
0.8831	56515.21	3.2570	3.2570	-0.1835	26.66	0.71	-0.750			
0.8836	56550.26	3.2540	3.2540	-0.1809	26.67	0.72	-0.750			
0.8841	56584.62	3.2510	3.2511	-0.1769	26.67	0.72	-0.750			
0.8847	56617.88	3.2480	3.2480	-0.1738	26.68	0.73	-0.750			
0.8852	56650.76	3.2450	3.2450	-0.1708	26.68	0.73	-0.750			
0.8857	56682.88	3.2420	3.2420	-0.1677	26.68	0.73	-0.750			
0.8862	56714.95	3.2390	3.2390	-0.1663	26.69	0.74	-0.750			
0.8867	56747.13	3.2360	3.2360	-0.1641	26.69	0.74	-0.750			
0.8872	56778.37	3.2330	3.2331	-0.1620	26.69	0.74	-0.750			
0.8876	56809.19	3.2300	3.2300	-0.1595	26.70	0.75	-0.750			
0.8881	56839.68	3.2270	3.2271	-0.1565	26.70	0.75	-0.750			
0.8886	56869.15	3.2240	3.2240	-0.1552	26.70	0.75	-0.750			
0.8890	56898.87	3.2210	3.2211	-0.1529	26.71	0.76	-0.750			
0.8895	56927.85	3.2180	3.2180	-0.1506	26.71	0.76	-0.750			
0.8899	56956.64	3.2150	3.2149	-0.1491	26.71	0.76	-0.750			
0.8904	56985.31	3.2120	3.2121	-0.1476	26.72	0.77	-0.750			
0.8908	57013.39	3.2090	3.2091	-0.1456	26.72	0.77	-0.750			
0.8913	57041.20	3.2060	3.2059	-0.1436	26.73	0.78	-0.750			
0.8917	57068.68	3.2030	3.2030	-0.1424	26.73	0.78	-0.750			
0.8921	57095.34	3.2000	3.2000	-0.1402	26.74	0.79	-0.750			
0.8925	57122.20	3.1970	3.1971	-0.1395	26.74	0.79	-0.750			
0.8930	57149.13	3.1940	3.1939	-0.1383	26.74	0.79	-0.750			
0.8934	57175.52	3.1910	3.1910	-0.1366	26.75	0.80	-0.750			
0.8938	57201.73	3.1880	3.1881	-0.1353	26.75	0.80	-0.750			
0.8942	57227.55	3.1850	3.1849	-0.1336	26.76	0.81	-0.750			
0.8946	57253.06	3.1820	3.1821	-0.1328	26.76	0.81	-0.750			
0.8950	57278.28	3.1790	3.1789	-0.1312	26.77	0.82	-0.750			
0.8954	57303.26	3.1760	3.1758	-0.1301	26.77	0.82	-0.750			
0.8958	57328.15	3.1730	3.1731	-0.1293	26.78	0.83	-0.750			
0.8961	57353.02	3.1700	3.1701	-0.1280	26.78	0.83	-0.750			
0.8965	57377.63	3.1670	3.1669	-0.1269	26.78	0.83	-0.750			
0.8969	57401.75	3.1640	3.1641	-0.1261	26.79	0.84	-0.750			
0.8973	57425.86	3.1610	3.1609	-0.1250	26.79	0.84	-0.750			
0.8977	57449.60	3.1580	3.1579	-0.1237	26.80	0.85	-0.750			
0.8980	57473.27	3.1550	3.1550	-0.1231	26.80	0.85	-0.750			
0.8984	57496.83	3.1520	3.1520	-0.1223	26.81	0.86	-0.750			
0.8988	57520.28	3.1490	3.1490	-0.1210	26.81	0.86	-0.750			
0.8991	57543.65	3.1460	3.1460	-0.1204	26.81	0.86	-0.750			
0.8995	57566.53	3.1430	3.1430	-0.1193	26.82	0.87	-0.750			
0.8998	57589.19	3.1400	3.1399	-0.1179	26.82	0.87	-0.750			
0.9002	57611.60	3.1370	3.1371	-0.1172	26.83	0.88	-0.750			
0.9005	57634.02	3.1340	3.1340	-0.1165	26.83	0.88	-0.750			
0.9009	57656.40	3.1310	3.1309	-0.1155	26.83	0.88	-0.750			
0.9012	57678.34	3.1280	3.1279	-0.1144	26.84	0.89	-0.750			
0.9016	57700.31	3.1250	3.1251	-0.1135	26.84	0.89	-0.750			
0.9019	57722.26	3.1220	3.1221	-0.1130	26.85	0.90	-0.750			
0.9022	57743.76	3.1190	3.1190	-0.1121	26.85	0.90	-0.750			
0.9026	57765.18	3.1160	3.1160	-0.1112	26.85	0.90	-0.750			
0.9029	57786.33	3.1130	3.1130	-0.1106	26.86	0.91	-0.750			
0.9032	57807.26	3.1100	3.1100	-0.1096	26.86	0.91	-0.750			
0.9036	57828.43	3.1070	3.1069	-0.1088	26.86	0.91	-0.750			
0.9039	57849.41	3.1040	3.1040	-0.1084	26.87	0.92	-0.750			
0.9042	57870.08	3.1010	3.1011	-0.1077	26.87	0.92	-0.750			
0.9045	57890.74	3.0980	3.0982	-0.1071	26.88	0.93	-0.750			
0.9049	57911.17	3.0950	3.0948	-0.1065	26.88	0.93	-0.750			
0.9052	57931.49	3.0920	3.0921	-0.1057	26.89	0.94	-0.750			
0.9055	57951.79	3.0890	3.0890	-0.1050	26.89	0.94	-0.750			
0.9058	57971.80	3.0860	3.0859	-0.1042	26.90	0.95	-0.750			
0.9061	57991.74	3.0830	3.0830	-0.1037	26.90	0.95	-0.750			
0.9064	58011.71	3.0800	3.0801	-0.1033	26.91	0.96	-0.750			
0.9067	58031.40	3.0770	3.0770	-0.1028	26.91	0.96	-0.750			
0.9070	58050.96	3.0740	3.0741	-0.1021	26.91	0.96	-0.750			
0.9074	58070.57	3.0710	3.0710	-0.1015	26.92	0.97	-0.750			
0.9077	58089.98	3.0680	3.0680	-0.1009	26.92	0.97	-0.750			
0.9080	58109.36	3.0650	3.0650	-0.1002	26.93	0.98	-0.750			
0.9083	58128.69	3.0620	3.0619	-0.0998	26.93	0.98	-0.750			
0.9086	58147.69	3.0590	3.0591	-0.0992	26.94	0.99	-0.750			
0.9089	58166.62	3.0560	3.0559	-0.0985	26.94	0.99	-0.750			
0.9091	58185.49	3.0530	3.0529	-0.0980	26.94	0.99	-0.750			
0.9094	58204.09	3.0500	3.0501	-0.0976	26.95	1.00	-0.750			
0.9097	58222.80	3.0470	3.0470	-0.0974	26.95	1.00	-0.750			
0.9100	58241.53	3.0440	3.0441	-0.0969	26.96	1.01	-0.750			
0.9103	58260.09	3.0410	3.0408	-0.0965	26.96	1.01	-0.750			
0.9106	58278.74	3.0380	3.0381	-0.0958	26.96	1.01	-0.750			
0.9109	58297.06	3.0350	3.0349	-0.0950	26.97	1.02	-0.750			
0.9112	58315.12	3.0320	3.0319	-0.0948	26.97	1.02	-0.750			
0.9115	58333.28	3.0290	3.0291	-0.0944	26.98	1.03	-0.750			
0.9117	58351.26	3.0260	3.0259	-0.0937	26.98	1.03	-0.750			
0.9120	58369.23	3.0230	3.0230	-0.0934	26.98	1.03	-0.750			
0.9123	58387.47	3.0200	3.0200	-0.0922	26.99	1.04	-0.750			
0.9126	58405.06	3.0170	3.0170	-0.0910	26.99	1.04	-0.750			
0.9129	58422.59	3.0140	3.0141	-0.0905	27.00	1.05	-0.750			
0.9131	58439.82	3.0110	3.0111	-0.0890	27.00	1.05	-0.750			
0.9134	58456.56	3.0080	3.0079	-0.0878	27.00	1.05	-0.751			
0.9136	58473.34	3.0050	3.0050	-0.0869	27.01	1.06	-0.751			
0.9139	58490.02	3.0020	3.0020	-0.0902	27.01	1.06	-0.751			
