Ah_balance (normalized)	Ah_balance (mAh)	Voltage - fit (V)	Voltage -  interpolate (V)	dQ/dV (1/V)	Temperature (°C)	Temperature - diff (°C)	Current (C)	R_DC 0ms (mOhm)	R_DC 50ms (mOhm)	R_DC 50 ms PEC (mOhm)
0.0002	15.17	4.1550	4.1546	-0.1067	25.22	0.00	-0.750			
0.0006	39.93	4.1520	4.1520	-0.1481	25.22	0.00	-0.750			
0.0011	72.32	4.1490	4.1489	-0.1869	25.22	0.00	-0.750			
0.0018	112.12	4.1460	4.1460	-0.2244	25.22	0.00	-0.750			
0.0025	158.57	4.1430	4.1431	-0.2641	25.22	0.00	-0.750			
0.0033	213.81	4.1400	4.1400	-0.2993	25.22	0.00	-0.750			
0.0043	275.28	4.1370	4.1369	-0.3371	25.22	0.00	-0.750			
0.0054	344.21	4.1340	4.1341	-0.3715	25.22	0.00	-0.750			
0.0066	419.77	4.1310	4.1309	-0.4047	25.22	0.00	-0.750			
0.0078	500.92	4.1280	4.1282	-0.4311	25.22	-0.00	-0.750			
0.0092	586.77	4.1250	4.1250	-0.4586	25.22	-0.00	-0.750			
0.0106	676.71	4.1220	4.1221	-0.4865	25.22	-0.00	-0.750			
0.0121	772.29	4.1190	4.1189	-0.5098	25.22	-0.00	-0.750			
0.0137	874.71	4.1160	4.1160	-0.5384	25.22	-0.00	-0.750			
0.0153	981.16	4.1130	4.1131	-0.5581	25.22	-0.00	-0.750			
0.0171	1092.34	4.1100	4.1100	-0.5766	25.22	-0.00	-0.750			
0.0189	1206.42	4.1070	4.1069	-0.5850	25.22	-0.00	-0.750			
0.0206	1319.61	4.1040	4.1041	-0.5936	25.21	-0.01	-0.750	0.393	0.548	
0.0224	1433.63	4.1010	4.1010	-0.6031	25.21	-0.01	-0.750			
0.0242	1550.62	4.0980	4.0979	-0.6109	25.21	-0.01	-0.750			
0.0260	1666.85	4.0950	4.0950	-0.6205	25.21	-0.01	-0.750			
0.0279	1788.46	4.0920	4.0921	-0.6328	25.21	-0.01	-0.750			
0.0299	1911.10	4.0890	4.0890	-0.6419	25.21	-0.01	-0.750			
0.0318	2036.01	4.0860	4.0860	-0.6488	25.21	-0.01	-0.750			
0.0338	2160.14	4.0830	4.0830	-0.6598	25.21	-0.01	-0.750			
0.0358	2289.09	4.0800	4.0800	-0.6626	25.21	-0.01	-0.750			
0.0378	2417.37	4.0770	4.0769	-0.6705	25.21	-0.01	-0.750			
0.0398	2547.24	4.0740	4.0741	-0.6688	25.22	-0.00	-0.750	0.393	0.547	
0.0418	2676.16	4.0710	4.0709	-0.6699	25.22	-0.00	-0.750			
0.0438	2803.62	4.0680	4.0680	-0.6740	25.22	-0.00	-0.750			
0.0458	2932.53	4.0650	4.0650	-0.6781	25.22	0.00	-0.750			
0.0478	3061.59	4.0620	4.0619	-0.6825	25.22	0.00	-0.750			
0.0499	3194.76	4.0590	4.0590	-0.6906	25.23	0.01	-0.750			
0.0520	3326.30	4.0560	4.0561	-0.6968	25.23	0.01	-0.750			
0.0541	3463.43	4.0530	4.0530	-0.7061	25.23	0.01	-0.750			
0.0563	3600.40	4.0500	4.0499	-0.7053	25.24	0.02	-0.750			
0.0584	3735.97	4.0470	4.0469	-0.7036	25.24	0.02	-0.750			
0.0605	3871.84	4.0440	4.0440	-0.7009	25.24	0.02	-0.750	0.404	0.552	
0.0626	4005.37	4.0410	4.0409	-0.7026	25.25	0.03	-0.750			
0.0647	4139.12	4.0380	4.0380	-0.7020	25.25	0.03	-0.750			
0.0668	4272.74	4.0350	4.0350	-0.7037	25.25	0.03	-0.750			
0.0689	4407.95	4.0320	4.0320	-0.7078	25.26	0.04	-0.750			
0.0710	4546.04	4.0290	4.0290	-0.7135	25.26	0.04	-0.750			
0.0732	4682.54	4.0260	4.0260	-0.7250	25.27	0.05	-0.750			
0.0754	4823.49	4.0230	4.0230	-0.7092	25.27	0.05	-0.750			
0.0774	4956.17	4.0200	4.0201	-0.7094	25.27	0.05	-0.750			
0.0795	5091.00	4.0170	4.0172	-0.7199	25.28	0.06	-0.750	0.392	0.532	
0.0817	5227.80	4.0140	4.0141	-0.7255	25.28	0.06	-0.750			
0.0839	5368.28	4.0110	4.0113	-0.7334	25.28	0.06	-0.750			
0.0861	5509.91	4.0080	4.0082	-0.7428	25.29	0.07	-0.750			
0.0884	5655.40	4.0050	4.0051	-0.7464	25.29	0.07	-0.750			
0.0908	5810.13	4.0020	4.0018	-0.7633	25.30	0.08	-0.750			
0.0930	5953.10	3.9990	3.9989	-0.7284	25.31	0.09	-0.750			
0.0951	6088.08	3.9960	3.9961	-0.7303	25.31	0.09	-0.750			
0.0973	6226.86	3.9930	3.9930	-0.7292	25.32	0.10	-0.750			
0.0994	6364.13	3.9900	3.9901	-0.7376	25.32	0.10	-0.750	0.392	0.536	
0.1016	6504.07	3.9870	3.9872	-0.7415	25.33	0.11	-0.750			
0.1039	6647.96	3.9840	3.9842	-0.7510	25.33	0.11	-0.750			
0.1062	6794.43	3.9810	3.9810	-0.7527	25.34	0.12	-0.750			
0.1085	6941.27	3.9780	3.9781	-0.7552	25.34	0.12	-0.750			
0.1108	7088.06	3.9750	3.9750	-0.7494	25.35	0.13	-0.750			
0.1130	7232.48	3.9720	3.9719	-0.7572	25.35	0.13	-0.750			
0.1153	7378.24	3.9690	3.9689	-0.7551	25.35	0.13	-0.750			
0.1176	7525.04	3.9660	3.9660	-0.7570	25.36	0.14	-0.750			
0.1199	7671.36	3.9630	3.9631	-0.7583	25.36	0.14	-0.750	0.389	0.536	
0.1221	7816.84	3.9600	3.9599	-0.7588	25.36	0.14	-0.750			
0.1244	7960.11	3.9570	3.9569	-0.7640	25.37	0.15	-0.750			
0.1267	8106.17	3.9540	3.9539	-0.7629	25.37	0.15	-0.750			
0.1290	8253.62	3.9510	3.9510	-0.7665	25.37	0.15	-0.750			
0.1313	8401.81	3.9480	3.9480	-0.7768	25.38	0.16	-0.750			
0.1336	8552.66	3.9450	3.9450	-0.7843	25.38	0.16	-0.750			
0.1360	8703.89	3.9420	3.9418	-0.7847	25.39	0.17	-0.750			
0.1384	8855.30	3.9390	3.9388	-0.7796	25.40	0.18	-0.750			
0.1407	9004.31	3.9360	3.9362	-0.7769	25.41	0.19	-0.750	0.402	0.545	
0.1431	9155.51	3.9330	3.9329	-0.7777	25.41	0.19	-0.750			
0.1454	9303.74	3.9300	3.9300	-0.7736	25.42	0.20	-0.750			
0.1477	9449.65	3.9270	3.9269	-0.7688	25.42	0.20	-0.750			
0.1499	9596.46	3.9240	3.9241	-0.7782	25.43	0.21	-0.750			
0.1523	9746.08	3.9210	3.9210	-0.7904	25.43	0.21	-0.750			
0.1547	9901.14	3.9180	3.9179	-0.7986	25.44	0.22	-0.750			
0.1571	10055.99	3.9150	3.9148	-0.7950	25.44	0.22	-0.750			
0.1595	10210.53	3.9120	3.9120	-0.7925	25.45	0.23	-0.750	0.404	0.545	
0.1619	10361.98	3.9090	3.9089	-0.7912	25.45	0.23	-0.750			
0.1642	10511.64	3.9060	3.9059	-0.7889	25.46	0.24	-0.750			
0.1666	10660.40	3.9030	3.9028	-0.7858	25.47	0.25	-0.750			
0.1689	10807.23	3.9000	3.9001	-0.7811	25.48	0.26	-0.750			
0.1713	10964.32	3.8970	3.8970	-0.7970	25.48	0.26	-0.750			
0.1737	11118.02	3.8940	3.8940	-0.8002	25.49	0.27	-0.750			
0.1761	11271.12	3.8910	3.8910	-0.8007	25.49	0.27	-0.750			
0.1785	11422.96	3.8880	3.8880	-0.7984	25.49	0.27	-0.750			
0.1809	11577.56	3.8850	3.8849	-0.8038	25.50	0.28	-0.750	0.395	0.537	
0.1833	11732.39	3.8820	3.8821	-0.8067	25.50	0.28	-0.750			
0.1857	11886.48	3.8790	3.8790	-0.8104	25.51	0.29	-0.750			
0.1882	12043.80	3.8760	3.8760	-0.8100	25.52	0.30	-0.750			
0.1906	12198.95	3.8730	3.8730	-0.8012	25.53	0.31	-0.750			
0.1930	12354.13	3.8700	3.8699	-0.8080	25.53	0.31	-0.750			
0.1955	12508.98	3.8670	3.8671	-0.8075	25.54	0.32	-0.750			
0.1979	12663.29	3.8640	3.8639	-0.8088	25.54	0.32	-0.750			
0.2003	12819.17	3.8610	3.8615	-0.8068	25.55	0.33	-0.750	0.395	0.538	
0.2027	12973.85	3.8580	3.8579	-0.8057	25.55	0.33	-0.750			
0.2051	13129.35	3.8550	3.8550	-0.8104	25.56	0.34	-0.750			
0.2076	13284.43	3.8520	3.8523	-0.8093	25.56	0.34	-0.750			
0.2100	13438.19	3.8490	3.8489	-0.8071	25.56	0.34	-0.750			
0.2124	13595.79	3.8460	3.8460	-0.8045	25.57	0.35	-0.750			
0.2148	13749.12	3.8430	3.8431	-0.8053	25.57	0.35	-0.750			
0.2173	13904.37	3.8400	3.8400	-0.8093	25.58	0.36	-0.750			
0.2197	14058.84	3.8370	3.8370	-0.8070	25.58	0.36	-0.750	0.398	0.540	
0.2221	14211.92	3.8340	3.8333	-0.8055	25.59	0.37	-0.750			
0.2245	14367.99	3.8310	3.8311	-0.8100	25.59	0.37	-0.750			
0.2270	14524.89	3.8280	3.8280	-0.8113	25.60	0.38	-0.750			
0.2294	14683.01	3.8250	3.8249	-0.8166	25.60	0.38	-0.750			
0.2318	14835.85	3.8220	3.8221	-0.8069	25.61	0.39	-0.750			
0.2343	14992.18	3.8190	3.8189	-0.8076	25.61	0.39	-0.750			
0.2367	15147.05	3.8160	3.8159	-0.8077	25.62	0.40	-0.750			
0.2391	15302.89	3.8130	3.8129	-0.7983	25.63	0.41	-0.750	0.379	0.526	
0.2415	15455.59	3.8100	3.8101	-0.7902	25.63	0.41	-0.750			
0.2439	15607.48	3.8070	3.8070	-0.7894	25.64	0.42	-0.750			
0.2462	15757.78	3.8040	3.8038	-0.7831	25.64	0.42	-0.750			
0.2485	15902.55	3.8010	3.8010	-0.7754	25.65	0.43	-0.750			
0.2508	16052.05	3.7980	3.7981	-0.7831	25.65	0.43	-0.750			
0.2532	16204.08	3.7950	3.7950	-0.7819	25.65	0.43	-0.750			
0.2556	16357.43	3.7920	3.7915	-0.7814	25.66	0.44	-0.750			
0.2579	16506.76	3.7890	3.7890	-0.7768	25.66	0.44	-0.750			
0.2602	16654.42	3.7860	3.7865	-0.7745	25.67	0.45	-0.749	0.388	0.533	
0.2626	16804.18	3.7830	3.7827	-0.7778	25.67	0.45	-0.750			
0.2648	16949.75	3.7800	3.7798	-0.7644	25.68	0.46	-0.750			
0.2672	17100.03	3.7770	3.7770	-0.7643	25.68	0.46	-0.750			
0.2695	17245.45	3.7740	3.7743	-0.7628	25.69	0.47	-0.750			
0.2718	17393.26	3.7710	3.7709	-0.7697	25.69	0.47	-0.750			
0.2741	17540.25	3.7680	3.7678	-0.7679	25.70	0.48	-0.750			
0.2764	17687.06	3.7650	3.7649	-0.7555	25.71	0.49	-0.750			
0.2786	17831.85	3.7620	3.7620	-0.7552	25.71	0.49	-0.750			
0.2809	17979.05	3.7590	3.7594	-0.7597	25.72	0.50	-0.750	0.400	0.538	
0.2832	18124.58	3.7560	3.7559	-0.7557	25.72	0.50	-0.750			
0.2854	18265.55	3.7530	3.7528	-0.7549	25.72	0.50	-0.750			
0.2876	18407.99	3.7500	3.7500	-0.7549	25.73	0.51	-0.750			
0.2899	18556.24	3.7470	3.7471	-0.7703	25.73	0.51	-0.750			
0.2925	18716.99	3.7440	3.7438	-0.7629	25.74	0.52	-0.750			
0.2947	18859.65	3.7410	3.7409	-0.7643	25.74	0.52	-0.750			
0.2969	19002.68	3.7380	3.7381	-0.7712	25.74	0.52	-0.750			
0.2992	19146.25	3.7350	3.7353	-0.7880	25.75	0.53	-0.750	0.398	0.542	
0.3015	19297.45	3.7320	3.7312	-0.8022	25.76	0.54	-0.750			
0.3040	19453.78	3.7290	3.7293	-0.8184	25.76	0.54	-0.750			
0.3065	19613.10	3.7260	3.7261	-0.8343	25.77	0.55	-0.750			
0.3091	19779.36	3.7230	3.7231	-0.8542	25.77	0.55	-0.750			
0.3118	19953.04	3.7200	3.7199	-0.8833	25.77	0.55	-0.750			
0.3143	20112.36	3.7170	3.7169	-0.8704	25.78	0.56	-0.750			
0.3169	20282.30	3.7140	3.7139	-0.8814	25.78	0.56	-0.750			
0.3196	20455.80	3.7110	3.7109	-0.8859	25.78	0.56	-0.750	0.390	0.526	
0.3223	20625.84	3.7080	3.7080	-0.8888	25.78	0.56	-0.750			
0.3250	20796.84	3.7050	3.7050	-0.8978	25.78	0.56	-0.750			
0.3276	20966.60	3.7020	3.7017	-0.9077	25.79	0.57	-0.750			
0.3302	21135.68	3.6990	3.6990	-0.9347	25.79	0.57	-0.750			
0.3331	21319.91	3.6960	3.6961	-0.9675	25.79	0.57	-0.750			
0.3361	21511.82	3.6930	3.6929	-0.9879	25.79	0.57	-0.750			
0.3391	21705.46	3.6900	3.6898	-1.0056	25.79	0.57	-0.750	0.397	0.535	
0.3422	21899.74	3.6870	3.6870	-1.0192	25.79	0.57	-0.750			
0.3452	22095.88	3.6840	3.6841	-1.0429	25.79	0.57	-0.750			
0.3484	22296.88	3.6810	3.6809	-1.0596	25.79	0.57	-0.750			
0.3516	22499.90	3.6780	3.6780	-1.0837	25.79	0.57	-0.750			
0.3549	22712.98	3.6750	3.6749	-1.1042	25.79	0.57	-0.750			
0.3583	22929.26	3.6720	3.6720	-1.1379	25.79	0.57	-0.750			
0.3617	23148.83	3.6690	3.6690	-1.1526	25.79	0.57	-0.750	0.397	0.541	
0.3652	23370.95	3.6660	3.6658	-1.1705	25.78	0.56	-0.750			
0.3687	23594.84	3.6630	3.6631	-1.2045	25.78	0.56	-0.750			
0.3724	23831.62	3.6600	3.6599	-1.2193	25.78	0.56	-0.750			
0.3761	24072.17	3.6570	3.6568	-1.2498	25.77	0.55	-0.750			
0.3799	24312.47	3.6540	3.6540	-1.2675	25.77	0.55	-0.750	0.400	0.540	
0.3837	24555.21	3.6510	3.6510	-1.2849	25.77	0.55	-0.750			
0.3876	24805.46	3.6480	3.6479	-1.3222	25.77	0.55	-0.750			
0.3916	25062.45	3.6450	3.6449	-1.3427	25.76	0.54	-0.750			
0.3957	25323.41	3.6420	3.6420	-1.3739	25.76	0.54	-0.750			
0.3998	25590.38	3.6390	3.6392	-1.4204	25.76	0.54	-0.750	0.410	0.548	
0.4041	25862.29	3.6360	3.6358	-1.4608	25.75	0.53	-0.750			
0.4086	26148.68	3.6330	3.6329	-1.4983	25.75	0.53	-0.750			
0.4131	26441.31	3.6300	3.6301	-1.5241	25.75	0.53	-0.750			
0.4178	26740.41	3.6270	3.6268	-1.5412	25.75	0.53	-0.750			
0.4226	27043.71	3.6240	3.6239	-1.5764	25.75	0.53	-0.750	0.395	0.548	
0.4273	27348.20	3.6210	3.6210	-1.5863	25.74	0.52	-0.750			
0.4320	27647.87	3.6180	3.6179	-1.6003	25.74	0.52	-0.750			
0.4368	27958.29	3.6150	3.6150	-1.6142	25.73	0.51	-0.750			
0.4417	28267.99	3.6120	3.6121	-1.6716	25.72	0.50	-0.750	0.393	0.537	
0.4468	28593.51	3.6090	3.6091	-1.7028	25.72	0.50	-0.750			
0.4519	28922.84	3.6060	3.6057	-1.7396	25.72	0.50	-0.750			
0.4572	29262.61	3.6030	3.6031	-1.7480	25.72	0.50	-0.750			
0.4626	29604.90	3.6000	3.5999	-1.7931	25.71	0.49	-0.750	0.395	0.543	
0.4680	29949.86	3.5970	3.5971	-1.8191	25.70	0.48	-0.750			
0.4735	30301.90	3.5940	3.5939	-1.8572	25.70	0.48	-0.750			
0.4790	30655.72	3.5910	3.5911	-1.8860	25.70	0.48	-0.750	0.394	0.541	
0.4847	31023.45	3.5880	3.5881	-1.9382	25.70	0.48	-0.750			
0.4906	31397.50	3.5850	3.5850	-1.9804	25.70	0.48	-0.750			
0.4967	31790.79	3.5820	3.5819	-2.0206	25.70	0.48	-0.750			
0.5028	32180.89	3.5790	3.5791	-2.0405	25.70	0.48	-0.750	0.402	0.558	
0.5090	32574.38	3.5760	3.5761	-2.0902	25.70	0.48	-0.750			
0.5153	32978.90	3.5730	3.5730	-2.1141	25.69	0.47	-0.750			
0.5217	33387.85	3.5700	3.5701	-2.1277	25.69	0.47	-0.750	0.403	0.561	
0.5281	33798.34	3.5670	3.5672	-2.1537	25.70	0.48	-0.750			
0.5346	34217.04	3.5640	3.5639	-2.1632	25.70	0.48	-0.750			
0.5412	34634.92	3.5610	3.5610	-2.1725	25.70	0.48	-0.750	0.397	0.550	
0.5477	35050.67	3.5580	3.5580	-2.1874	25.70	0.48	-0.750			
0.5542	35468.94	3.5550	3.5548	-2.1887	25.72	0.50	-0.750			
0.5608	35894.00	3.5520	3.5521	-2.1887	25.72	0.50	-0.750	0.384	0.556	
0.5674	36316.14	3.5490	3.5490	-2.1441	25.72	0.50	-0.750			
0.5738	36720.49	3.5460	3.5460	-2.1273	25.72	0.50	-0.750			
0.5800	37120.85	3.5430	3.5434	-2.1579	25.72	0.50	-0.750	0.397	0.560	
0.5865	37537.66	3.5400	3.5401	-2.1491	25.73	0.51	-0.750			
0.5930	37953.82	3.5370	3.5373	-2.1536	25.74	0.52	-0.750			
0.5995	38370.88	3.5340	3.5342	-2.1270	25.75	0.53	-0.750	0.386	0.562	
0.6064	38812.55	3.5310	3.5308	-2.1702	25.76	0.54	-0.750			
0.6123	39188.48	3.5280	3.5279	-2.0101	25.76	0.54	-0.750			
0.6183	39570.00	3.5250	3.5250	-1.9648	25.77	0.55	-0.750	0.408	0.580	
0.6241	39944.46	3.5220	3.5222	-1.9374	25.78	0.56	-0.750			
0.6299	40314.13	3.5190	3.5188	-1.8994	25.79	0.57	-0.750			
0.6355	40672.79	3.5160	3.5158	-1.8474	25.80	0.58	-0.750			
0.6411	41028.18	3.5130	3.5133	-1.8179	25.81	0.59	-0.750	0.387	0.585	
0.6466	41380.06	3.5100	3.5099	-1.7812	25.82	0.60	-0.750			
0.6517	41709.15	3.5070	3.5071	-1.7278	25.84	0.62	-0.750			
0.6569	42039.25	3.5040	3.5039	-1.6649	25.85	0.63	-0.750			
0.6618	42357.77	3.5010	3.5009	-1.6158	25.87	0.65	-0.750	0.400	0.589	
0.6665	42658.12	3.4980	3.4981	-1.5712	25.88	0.66	-0.750			
0.6712	42954.36	3.4950	3.4950	-1.5089	25.89	0.67	-0.750			
0.6756	43241.25	3.4920	3.4918	-1.4553	25.90	0.68	-0.750			
0.6799	43515.34	3.4890	3.4893	-1.4077	25.91	0.69	-0.750	0.394	0.594	
0.6840	43778.15	3.4860	3.4859	-1.3603	25.93	0.71	-0.750			
0.6881	44036.52	3.4830	3.4829	-1.3370	25.94	0.72	-0.750			
0.6920	44286.67	3.4800	3.4798	-1.2862	25.96	0.74	-0.750			
0.6958	44530.60	3.4770	3.4770	-1.2466	25.98	0.76	-0.750			
0.6996	44771.65	3.4740	3.4738	-1.2127	25.99	0.77	-0.750	0.404	0.597	
0.7031	44999.83	3.4710	3.4709	-1.1701	26.01	0.79	-0.750			
0.7066	45220.00	3.4680	3.4681	-1.1242	26.03	0.81	-0.750			
0.7098	45425.77	3.4650	3.4649	-1.0910	26.04	0.82	-0.750			
0.7130	45631.91	3.4620	3.4620	-1.0581	26.05	0.83	-0.750			
0.7162	45835.69	3.4590	3.4589	-1.0312	26.06	0.84	-0.750			
0.7192	46030.80	3.4560	3.4559	-0.9947	26.07	0.85	-0.750	0.398	0.602	
0.7222	46221.04	3.4530	3.4530	-0.9680	26.08	0.86	-0.750			
0.7250	46402.23	3.4500	3.4499	-0.9347	26.10	0.88	-0.750			
0.7277	46575.52	3.4470	3.4470	-0.9037	26.11	0.89	-0.750			
0.7303	46740.73	3.4440	3.4440	-0.8856	26.12	0.90	-0.750			
0.7330	46912.68	3.4410	3.4410	-0.8861	26.13	0.91	-0.750			
0.7356	47080.31	3.4380	3.4379	-0.8757	26.14	0.92	-0.750			
0.7382	47247.43	3.4350	3.4350	-0.8731	26.15	0.93	-0.750			
0.7408	47414.34	3.4320	3.4323	-0.8731	26.16	0.94	-0.750	0.406	0.619	
0.7435	47582.58	3.4290	3.4289	-0.8802	26.17	0.95	-0.750			
0.7461	47750.63	3.4260	3.4259	-0.8802	26.17	0.95	-0.750			
0.7487	47918.45	3.4230	3.4230	-0.8959	26.18	0.96	-0.750			
0.7514	48089.59	3.4200	3.4200	-0.9222	26.19	0.97	-0.750			
0.7543	48274.34	3.4170	3.4168	-0.9282	26.20	0.98	-0.750			
0.7571	48455.21	3.4140	3.4143	-0.9291	26.21	0.99	-0.750			
0.7599	48635.11	3.4110	3.4108	-0.9328	26.22	1.00	-0.750	0.403	0.620	
0.7627	48815.02	3.4080	3.4078	-0.9260	26.23	1.01	-0.750			
0.7655	48992.59	3.4050	3.4049	-0.9118	26.24	1.02	-0.750			
0.7682	49165.77	3.4020	3.4019	-0.9000	26.25	1.03	-0.750			
0.7709	49337.73	3.3990	3.3991	-0.8797	26.25	1.03	-0.750			
0.7736	49510.29	3.3960	3.3959	-0.8775	26.26	1.04	-0.750			
0.7762	49677.98	3.3930	3.3930	-0.8534	26.27	1.05	-0.750			
0.7787	49839.24	3.3900	3.3898	-0.8226	26.28	1.06	-0.750			
0.7812	49996.30	3.3870	3.3873	-0.7947	26.29	1.07	-0.750	0.384	0.617	
0.7835	50147.11	3.3840	3.3838	-0.7656	26.29	1.07	-0.750			
0.7858	50289.02	3.3810	3.3809	-0.7321	26.30	1.08	-0.750			
0.7878	50421.90	3.3780	3.3781	-0.6964	26.30	1.08	-0.750			
0.7900	50557.08	3.3750	3.3750	-0.6824	26.31	1.09	-0.750			
0.7920	50686.99	3.3720	3.3719	-0.6606	26.31	1.09	-0.750			
0.7939	50808.71	3.3690	3.3691	-0.6435	26.32	1.10	-0.750			
0.7958	50932.70	3.3660	3.3659	-0.6280	26.33	1.11	-0.750			
0.7977	51052.90	3.3630	3.3628	-0.6046	26.33	1.11	-0.750			
0.7995	51168.37	3.3600	3.3596	-0.5759	26.34	1.12	-0.750			
0.8012	51276.78	3.3570	3.3569	-0.5477	26.35	1.13	-0.750	0.394	0.634	
0.8028	51379.88	3.3540	3.3538	-0.5281	26.35	1.13	-0.750			
0.8043	51475.63	3.3510	3.3507	-0.5039	26.36	1.14	-0.750			
0.8057	51565.18	3.3480	3.3480	-0.4771	26.36	1.14	-0.750			
0.8071	51656.65	3.3450	3.3453	-0.4674	26.37	1.15	-0.750			
0.8086	51749.76	3.3420	3.3419	-0.4606	26.38	1.16	-0.750			
0.8100	51837.06	3.3390	3.3390	-0.4473	26.38	1.16	-0.750			
0.8113	51920.63	3.3360	3.3359	-0.4304	26.39	1.17	-0.750			
0.8125	52001.26	3.3330	3.3331	-0.4181	26.39	1.17	-0.750			
0.8138	52080.69	3.3300	3.3300	-0.4064	26.40	1.18	-0.750			
0.8149	52156.79	3.3270	3.3270	-0.3948	26.40	1.18	-0.750			
0.8161	52233.02	3.3240	3.3239	-0.3993	26.41	1.19	-0.750			
0.8174	52311.08	3.3210	3.3207	-0.3915	26.41	1.19	-0.750			
0.8186	52387.55	3.3180	3.3174	-0.3743	26.42	1.20	-0.750			
0.8197	52460.66	3.3150	3.3144	-0.3588	26.42	1.20	-0.750			
0.8207	52526.84	3.3120	3.3150	-0.3366	26.43	1.21	-0.750	0.396	0.642	
0.8217	52586.46	3.3090	3.3087	-0.3202	26.43	1.21	-0.750			
0.8225	52642.53	3.3060	3.3057	-0.3061	26.44	1.22	-0.750			
0.8233	52693.53	3.3030	3.3034	-0.2886	26.44	1.22	-0.750			
0.8244	52758.62	3.3000	3.3000	-0.3036	26.45	1.23	-0.750			
0.8253	52817.78	3.2970	3.2970	-0.3000	26.46	1.24	-0.750			
0.8262	52874.78	3.2940	3.2940	-0.2930	26.46	1.24	-0.750			
0.8270	52929.69	3.2910	3.2910	-0.2868	26.47	1.25	-0.750			
0.8279	52984.16	3.2880	3.2880	-0.2818	26.47	1.25	-0.750			
0.8287	53037.19	3.2850	3.2850	-0.2761	26.48	1.26	-0.750			
0.8295	53089.98	3.2820	3.2820	-0.2710	26.48	1.26	-0.750			
0.8303	53141.95	3.2790	3.2790	-0.2667	26.49	1.27	-0.750			
0.8311	53192.78	3.2760	3.2760	-0.2614	26.49	1.27	-0.750			
0.8319	53242.37	3.2730	3.2731	-0.2563	26.50	1.28	-0.750			
0.8327	53290.81	3.2700	3.2700	-0.2513	26.50	1.28	-0.750			
0.8334	53338.48	3.2670	3.2670	-0.2467	26.51	1.29	-0.750			
0.8341	53385.18	3.2640	3.2640	-0.2423	26.52	1.30	-0.750			
0.8349	53431.42	3.2610	3.2609	-0.2375	26.52	1.30	-0.750			
0.8356	53476.63	3.2580	3.2580	-0.2347	26.53	1.31	-0.750			
0.8363	53521.25	3.2550	3.2550	-0.2302	26.53	1.31	-0.750			
0.8370	53565.07	3.2520	3.2520	-0.2263	26.54	1.32	-0.750			
0.8376	53607.94	3.2490	3.2489	-0.2232	26.54	1.32	-0.750			
0.8383	53651.41	3.2460	3.2460	-0.2255	26.55	1.33	-0.750			
0.8390	53694.75	3.2430	3.2429	-0.2248	26.55	1.33	-0.750			
0.8397	53738.51	3.2400	3.2395	-0.2193	26.55	1.33	-0.750			
0.8403	53781.28	3.2370	3.2366	-0.2151	26.56	1.34	-0.750			
0.8410	53822.11	3.2340	3.2351	-0.2108	26.56	1.34	-0.750	0.397	0.654	
0.8416	53862.54	3.2310	3.2309	-0.2048	26.57	1.35	-0.750			
0.8422	53900.62	3.2280	3.2278	-0.1998	26.57	1.35	-0.750			
0.8427	53934.77	3.2250	3.2250	-0.1902	26.58	1.36	-0.750			
0.8433	53973.40	3.2220	3.2220	-0.1949	26.58	1.36	-0.750			
0.8439	54010.66	3.2190	3.2191	-0.1932	26.59	1.37	-0.750			
0.8445	54047.63	3.2160	3.2160	-0.1909	26.59	1.37	-0.750			
0.8451	54084.06	3.2130	3.2130	-0.1894	26.60	1.38	-0.750			
0.8456	54120.20	3.2100	3.2101	-0.1873	26.60	1.38	-0.750			
0.8462	54156.00	3.2070	3.2070	-0.1856	26.61	1.39	-0.750			
0.8467	54191.67	3.2040	3.2039	-0.1832	26.61	1.39	-0.750			
0.8473	54226.44	3.2010	3.2010	-0.1814	26.62	1.40	-0.750			
0.8478	54261.05	3.1980	3.1981	-0.1795	26.62	1.40	-0.750			
0.8484	54295.34	3.1950	3.1950	-0.1777	26.63	1.41	-0.750			
0.8489	54329.32	3.1920	3.1919	-0.1761	26.63	1.41	-0.750			
0.8494	54362.70	3.1890	3.1891	-0.1742	26.64	1.42	-0.750			
0.8499	54396.12	3.1860	3.1860	-0.1729	26.65	1.43	-0.750			
0.8505	54429.17	3.1830	3.1830	-0.1714	26.65	1.43	-0.750			
0.8510	54462.16	3.1800	3.1800	-0.1697	26.66	1.44	-0.750			
0.8515	54494.55	3.1770	3.1770	-0.1671	26.66	1.44	-0.750			
0.8520	54526.42	3.1740	3.1739	-0.1656	26.67	1.45	-0.750			
0.8525	54558.02	3.1710	3.1711	-0.1635	26.67	1.45	-0.750			
0.8530	54589.10	3.1680	3.1680	-0.1619	26.68	1.46	-0.750			
0.8534	54619.95	3.1650	3.1649	-0.1598	26.68	1.46	-0.750			
0.8539	54650.44	3.1620	3.1620	-0.1582	26.69	1.47	-0.750			
0.8544	54680.66	3.1590	3.1590	-0.1567	26.69	1.47	-0.750			
0.8549	54710.57	3.1560	3.1561	-0.1557	26.70	1.48	-0.750			
0.8553	54740.32	3.1530	3.1530	-0.1549	26.70	1.48	-0.750			
0.8558	54769.89	3.1500	3.1499	-0.1531	26.71	1.49	-0.750			
0.8562	54799.20	3.1470	3.1470	-0.1522	26.71	1.49	-0.750			
0.8567	54828.29	3.1440	3.1440	-0.1515	26.72	1.50	-0.750			
0.8571	54857.50	3.1410	3.1411	-0.1505	26.72	1.50	-0.750			
0.8576	54886.37	3.1380	3.1381	-0.1492	26.73	1.51	-0.750			
0.8580	54914.87	3.1350	3.1349	-0.1476	26.73	1.51	-0.750			
0.8585	54943.13	3.1320	3.1320	-0.1453	26.74	1.52	-0.750			
0.8589	54969.59	3.1290	3.1292	-0.1499	26.74	1.52	-0.750			
0.8594	54998.90	3.1260	3.1259	-0.1500	26.75	1.53	-0.750			
0.8598	55029.15	3.1230	3.1226	-0.1471	26.76	1.54	-0.750			
0.8603	55057.69	3.1200	3.1193	-0.1458	26.76	1.54	-0.750			
0.8607	55086.68	3.1170	3.1229	-0.1426	26.77	1.55	-0.750	0.404	0.652	
0.8612	55114.14	3.1140	3.1143	-0.1402	26.77	1.55	-0.750			
0.8616	55139.71	3.1110	3.1108	-0.1360	26.78	1.56	-0.750			
0.8620	55165.09	3.1080	3.1076	-0.1311	26.78	1.56	-0.750			
0.8623	55187.44	3.1050	3.1050	-0.1273	26.79	1.57	-0.750			
0.8627	55212.09	3.1020	3.1021	-0.1283	26.79	1.57	-0.750			
0.8631	55237.25	3.0990	3.0990	-0.1301	26.80	1.58	-0.750			
0.8635	55262.25	3.0960	3.0960	-0.1302	26.80	1.58	-0.750			
0.8639	55287.42	3.0930	3.0930	-0.1296	26.81	1.59	-0.750			
0.8643	55312.27	3.0900	3.0900	-0.1292	26.81	1.59	-0.750			
0.8646	55337.25	3.0870	3.0870	-0.1288	26.82	1.60	-0.750			
0.8650	55361.87	3.0840	3.0841	-0.1276	26.82	1.60	-0.750			
0.8654	55386.38	3.0810	3.0809	-0.1266	26.83	1.61	-0.750			
0.8658	55410.26	3.0780	3.0780	-0.1259	26.83	1.61	-0.750			
0.8662	55434.38	3.0750	3.0750	-0.1254	26.84	1.62	-0.750			
0.8665	55458.31	3.0720	3.0720	-0.1240	26.84	1.62	-0.750			
0.8669	55482.09	3.0690	3.0689	-0.1239	26.85	1.63	-0.750			
0.8673	55505.81	3.0660	3.0661	-0.1232	26.85	1.63	-0.750			
0.8676	55529.34	3.0630	3.0631	-0.1227	26.86	1.64	-0.750			
0.8680	55552.85	3.0600	3.0599	-0.1222	26.86	1.64	-0.750			
0.8684	55576.49	3.0570	3.0570	-0.1208	26.87	1.65	-0.750			
0.8687	55599.54	3.0540	3.0540	-0.1196	26.87	1.65	-0.750			
0.8691	55622.39	3.0510	3.0511	-0.1185	26.87	1.65	-0.750			
0.8695	55645.42	3.0480	3.0481	-0.1177	26.88	1.66	-0.750			
0.8698	55667.74	3.0450	3.0449	-0.1166	26.88	1.66	-0.750			
0.8702	55689.74	3.0420	3.0420	-0.1152	26.89	1.67	-0.750			
0.8705	55711.39	3.0390	3.0390	-0.1144	26.89	1.67	-0.750			
0.8708	55733.36	3.0360	3.0360	-0.1144	26.90	1.68	-0.750			
0.8712	55755.49	3.0330	3.0330	-0.1143	26.90	1.68	-0.750			
0.8715	55777.39	3.0300	3.0299	-0.1139	26.91	1.69	-0.750			
0.8719	55799.32	3.0270	3.0270	-0.1131	26.91	1.69	-0.750			
0.8722	55820.97	3.0240	3.0240	-0.1124	26.92	1.70	-0.750			
0.8725	55842.76	3.0210	3.0210	-0.1117	26.92	1.70	-0.750			
0.8729	55864.08	3.0180	3.0180	-0.1104	26.92	1.70	-0.750			
0.8732	55885.10	3.0150	3.0150	-0.1092	26.93	1.71	-0.750			
0.8735	55905.97	3.0120	3.0120	-0.1081	26.93	1.71	-0.750			
0.8739	55926.59	3.0090	3.0090	-0.1070	26.94	1.72	-0.750			
0.8742	55947.03	3.0060	3.0060	-0.1060	26.94	1.72	-0.751			
0.8745	55967.27	3.0030	3.0030	-0.1053	26.95	1.73	-0.751			
