Ah_balance (normalized)	Ah_balance (mAh)	Voltage - fit (V)	Voltage -  interpolate (V)	dQ/dV (1/V)	Temperature (°C)	Temperature - diff (°C)	Current (C)	R_DC 0ms (mOhm)	R_DC 50ms (mOhm)	R_DC 50 ms PEC (mOhm)
0.0498	3187.36	4.1980	4.1980	0.7665	26.20	0.28	0.750			
0.0521	3332.96	4.1950	4.1950	0.7604	26.19	0.27	0.750			
0.0544	3479.90	4.1920	4.1921	0.7680	26.19	0.27	0.750			
0.0567	3628.49	4.1890	4.1889	0.7734	26.19	0.27	0.750			
0.0590	3778.46	4.1860	4.1860	0.7774	26.19	0.27	0.750			
0.0614	3927.92	4.1830	4.1830	0.7769	26.19	0.27	0.750			
0.0637	4078.37	4.1800	4.1800	0.7803	26.18	0.26	0.750			
0.0661	4228.86	4.1770	4.1771	0.7784	26.18	0.26	0.750			
0.0684	4376.58	4.1740	4.1738	0.7746	26.18	0.26	0.750			
0.0707	4525.11	4.1710	4.1711	0.7767	26.18	0.26	0.750			
0.0730	4673.48	4.1680	4.1680	0.7774	26.18	0.26	0.750			
0.0753	4821.83	4.1650	4.1650	0.7849	26.19	0.27	0.750			
0.0777	4974.18	4.1620	4.1620	0.7890	26.19	0.27	0.750			
0.0801	5127.11	4.1590	4.1589	0.7907	26.19	0.27	0.750			
0.0825	5280.03	4.1560	4.1561	0.7921	26.19	0.27	0.750			
0.0849	5433.42	4.1530	4.1530	0.7901	26.19	0.27	0.750			
0.0873	5584.00	4.1500	4.1499	0.7884	26.19	0.27	0.750			
0.0896	5733.43	4.1470	4.1470	0.7890	26.18	0.26	0.750			
0.0919	5883.96	4.1440	4.1441	0.7892	26.18	0.26	0.750			
0.0943	6037.42	4.1410	4.1407	0.7968	26.18	0.26	0.750			
0.0967	6190.50	4.1380	4.1381	0.8011	26.18	0.26	0.750			
0.0991	6345.01	4.1350	4.1350	0.7981	26.18	0.26	0.750			
0.1015	6497.90	4.1320	4.1320	0.7996	26.19	0.27	0.750			
0.1039	6651.96	4.1290	4.1290	0.7985	26.19	0.27	0.750			
0.1063	6804.88	4.1260	4.1258	0.8023	26.19	0.27	0.750			
0.1087	6959.25	4.1230	4.1231	0.8082	26.19	0.27	0.750			
0.1112	7116.14	4.1200	4.1201	0.8021	26.19	0.27	0.750			
0.1136	7270.66	4.1170	4.1169	0.8068	26.19	0.27	0.750			
0.1160	7426.18	4.1140	4.1141	0.8120	26.19	0.27	0.750			
0.1184	7579.24	4.1110	4.1109	0.8125	26.19	0.27	0.750			
0.1209	7736.29	4.1080	4.1080	0.8165	26.19	0.27	0.750			
0.1233	7894.18	4.1050	4.1050	0.8140	26.19	0.27	0.750			
0.1258	8051.21	4.1020	4.1020	0.8193	26.19	0.27	0.750			
0.1283	8211.96	4.0990	4.0992	0.8246	26.19	0.27	0.750			
0.1308	8368.13	4.0960	4.0958	0.8172	26.19	0.27	0.750			
0.1332	8523.82	4.0930	4.0931	0.8210	26.19	0.27	0.750			
0.1357	8681.78	4.0900	4.0900	0.8151	26.20	0.28	0.750			
0.1381	8837.83	4.0870	4.0870	0.8228	26.20	0.28	0.750			
0.1406	8997.26	4.0840	4.0840	0.8276	26.20	0.28	0.750			
0.1431	9155.54	4.0810	4.0810	0.8314	26.21	0.29	0.750			
0.1456	9315.70	4.0780	4.0781	0.8341	26.21	0.29	0.750			
0.1481	9477.83	4.0750	4.0749	0.8336	26.21	0.29	0.750			
0.1506	9636.30	4.0720	4.0721	0.8378	26.21	0.29	0.750			
0.1531	9798.92	4.0690	4.0690	0.8431	26.21	0.29	0.750			
0.1556	9958.81	4.0660	4.0660	0.8444	26.21	0.29	0.750			
0.1581	10121.52	4.0630	4.0630	0.8513	26.21	0.29	0.750			
0.1607	10285.97	4.0600	4.0600	0.8500	26.22	0.30	0.750			
0.1633	10450.19	4.0570	4.0570	0.8532	26.22	0.30	0.750			
0.1658	10614.37	4.0540	4.0541	0.8538	26.22	0.30	0.750			
0.1684	10777.52	4.0510	4.0510	0.8577	26.23	0.31	0.750			
0.1710	10942.49	4.0480	4.0480	0.8632	26.23	0.31	0.750			
0.1736	11108.86	4.0450	4.0450	0.8613	26.23	0.31	0.750			
0.1762	11275.68	4.0420	4.0421	0.8644	26.23	0.31	0.750			
0.1788	11442.05	4.0390	4.0390	0.8645	26.23	0.31	0.750			
0.1814	11606.55	4.0360	4.0358	0.8686	26.23	0.31	0.750			
0.1840	11772.99	4.0330	4.0330	0.8698	26.23	0.31	0.750			
0.1866	11940.41	4.0300	4.0299	0.8734	26.23	0.31	0.750			
0.1892	12109.35	4.0270	4.0270	0.8800	26.24	0.32	0.750			
0.1919	12280.68	4.0240	4.0241	0.8842	26.24	0.32	0.750			
0.1945	12449.98	4.0210	4.0210	0.8850	26.24	0.32	0.750			
0.1972	12619.97	4.0180	4.0180	0.8841	26.24	0.32	0.750			
0.1998	12787.39	4.0150	4.0151	0.8839	26.24	0.32	0.750			
0.2025	12957.61	4.0120	4.0119	0.8931	26.25	0.33	0.750			
0.2052	13130.26	4.0090	4.0090	0.8980	26.25	0.33	0.750			
0.2079	13302.77	4.0060	4.0061	0.9037	26.25	0.33	0.750			
0.2106	13479.55	4.0030	4.0029	0.9020	26.26	0.34	0.750			
0.2133	13651.87	4.0000	4.0001	0.9032	26.26	0.34	0.750			
0.2160	13823.76	3.9970	3.9971	0.9068	26.27	0.35	0.750			
0.2187	13996.77	3.9940	3.9937	0.9094	26.27	0.35	0.750			
0.2214	14172.17	3.9910	3.9911	0.9079	26.27	0.35	0.750			
0.2242	14347.32	3.9880	3.9880	0.9163	26.27	0.35	0.750			
0.2270	14524.87	3.9850	3.9851	0.9244	26.27	0.35	0.750			
0.2298	14704.91	3.9820	3.9819	0.9295	26.27	0.35	0.750			
0.2325	14879.29	3.9790	3.9790	0.9284	26.27	0.35	0.750			
0.2353	15058.61	3.9760	3.9760	0.9296	26.28	0.36	0.750			
0.2381	15238.21	3.9730	3.9730	0.9309	26.28	0.36	0.750			
0.2409	15417.11	3.9700	3.9700	0.9341	26.28	0.36	0.750			
0.2437	15595.36	3.9670	3.9669	0.9326	26.29	0.37	0.750			
0.2465	15776.61	3.9640	3.9640	0.9310	26.29	0.37	0.750			
0.2493	15954.92	3.9610	3.9610	0.9360	26.29	0.37	0.750			
0.2521	16133.49	3.9580	3.9581	0.9394	26.30	0.38	0.750			
0.2549	16315.93	3.9550	3.9551	0.9444	26.30	0.38	0.750			
0.2578	16496.61	3.9520	3.9521	0.9464	26.30	0.38	0.750			
0.2606	16677.97	3.9490	3.9490	0.9452	26.30	0.38	0.750			
0.2634	16859.29	3.9460	3.9460	0.9468	26.31	0.39	0.750			
0.2663	17040.65	3.9430	3.9431	0.9520	26.31	0.39	0.750			
0.2691	17222.98	3.9400	3.9398	0.9519	26.31	0.39	0.750			
0.2720	17407.32	3.9370	3.9369	0.9505	26.31	0.39	0.750			
0.2749	17590.54	3.9340	3.9341	0.9567	26.31	0.39	0.750			
0.2777	17774.45	3.9310	3.9310	0.9600	26.32	0.40	0.750			
0.2806	17958.67	3.9280	3.9280	0.9598	26.32	0.40	0.750			
0.2835	18145.24	3.9250	3.9250	0.9572	26.32	0.40	0.750			
0.2864	18326.47	3.9220	3.9221	0.9634	26.32	0.40	0.750			
0.2893	18512.93	3.9190	3.9190	0.9701	26.32	0.40	0.750			
0.2922	18700.09	3.9160	3.9159	0.9760	26.32	0.40	0.750			
0.2951	18887.10	3.9130	3.9131	0.9746	26.32	0.40	0.750			
0.2980	19075.03	3.9100	3.9101	0.9808	26.32	0.40	0.750			
0.3010	19264.69	3.9070	3.9070	0.9861	26.33	0.41	0.750			
0.3040	19454.05	3.9040	3.9040	0.9916	26.33	0.41	0.750			
0.3069	19643.24	3.9010	3.9010	0.9901	26.33	0.41	0.750			
0.3099	19834.75	3.8980	3.8980	0.9905	26.33	0.41	0.750			
0.3129	20025.74	3.8950	3.8950	0.9929	26.34	0.42	0.750			
0.3159	20216.51	3.8920	3.8921	0.9935	26.34	0.42	0.750			
0.3188	20405.64	3.8890	3.8889	0.9963	26.34	0.42	0.750			
0.3218	20596.20	3.8860	3.8860	1.0022	26.34	0.42	0.750			
0.3248	20788.92	3.8830	3.8830	1.0105	26.34	0.42	0.750			
0.3279	20984.62	3.8800	3.8800	1.0244	26.34	0.42	0.750			
0.3310	21183.18	3.8770	3.8769	1.0298	26.34	0.42	0.750			
0.3341	21383.16	3.8740	3.8740	1.0365	26.34	0.42	0.750			
0.3372	21583.73	3.8710	3.8711	1.0386	26.34	0.42	0.750			
0.3403	21782.37	3.8680	3.8680	1.0374	26.34	0.42	0.750			
0.3435	21981.57	3.8650	3.8649	1.0398	26.34	0.42	0.750			
0.3466	22180.09	3.8620	3.8621	1.0355	26.34	0.42	0.750			
0.3496	22376.00	3.8590	3.8591	1.0433	26.34	0.42	0.750			
0.3528	22577.32	3.8560	3.8560	1.0623	26.33	0.41	0.750			
0.3560	22782.20	3.8530	3.8528	1.0770	26.33	0.41	0.750			
0.3592	22991.82	3.8500	3.8500	1.0791	26.33	0.41	0.750			
0.3625	23198.88	3.8470	3.8472	1.0932	26.32	0.40	0.750			
0.3658	23409.81	3.8440	3.8441	1.1132	26.32	0.40	0.750			
0.3692	23627.68	3.8410	3.8405	1.1216	26.31	0.39	0.750			
0.3725	23838.97	3.8380	3.8380	1.1288	26.31	0.39	0.750			
0.3759	24057.40	3.8350	3.8351	1.1463	26.30	0.38	0.750			
0.3794	24282.79	3.8320	3.8321	1.1680	26.30	0.38	0.750			
0.3829	24507.49	3.8290	3.8291	1.1722	26.30	0.38	0.750			
0.3864	24732.77	3.8260	3.8260	1.1944	26.29	0.37	0.750			
0.3900	24960.48	3.8230	3.8231	1.2161	26.28	0.36	0.750			
0.3938	25201.76	3.8200	3.8196	1.2257	26.27	0.35	0.750			
0.3975	25438.16	3.8170	3.8170	1.2561	26.26	0.34	0.750			
0.4013	25682.45	3.8140	3.8141	1.2736	26.26	0.34	0.750			
0.4052	25931.25	3.8110	3.8110	1.2886	26.25	0.33	0.750			
0.4091	26179.55	3.8080	3.8082	1.3035	26.24	0.32	0.750			
0.4129	26427.03	3.8050	3.8052	1.3124	26.23	0.31	0.750			
0.4169	26683.28	3.8020	3.8019	1.3212	26.23	0.31	0.750			
0.4209	26939.84	3.7990	3.7990	1.3439	26.22	0.30	0.750			
0.4249	27193.56	3.7960	3.7961	1.3450	26.21	0.29	0.750			
0.4290	27456.74	3.7930	3.7930	1.3536	26.20	0.28	0.750			
0.4331	27717.45	3.7900	3.7899	1.3762	26.19	0.27	0.750			
0.4372	27980.80	3.7870	3.7871	1.3867	26.18	0.26	0.750			
0.4414	28252.42	3.7840	3.7840	1.3959	26.17	0.25	0.750			
0.4457	28524.38	3.7810	3.7811	1.4032	26.16	0.24	0.750			
0.4499	28791.37	3.7780	3.7782	1.4241	26.15	0.23	0.750			
0.4542	29067.71	3.7750	3.7750	1.4332	26.14	0.22	0.750			
0.4585	29343.14	3.7720	3.7721	1.4476	26.12	0.20	0.750			
0.4628	29620.11	3.7690	3.7691	1.4492	26.11	0.19	0.750			
0.4672	29901.20	3.7660	3.7661	1.4849	26.10	0.18	0.750			
0.4718	30192.12	3.7630	3.7630	1.5162	26.08	0.16	0.750			
0.4763	30485.64	3.7600	3.7604	1.5389	26.07	0.15	0.750	0.338	0.405	
0.4809	30778.11	3.7570	3.7571	1.5662	26.05	0.13	0.750			
0.4857	31086.88	3.7540	3.7541	1.6010	26.04	0.12	0.750			
0.4906	31397.12	3.7510	3.7511	1.6148	26.02	0.10	0.750			
0.4954	31707.22	3.7480	3.7481	1.6310	26.01	0.09	0.750			
0.5004	32024.40	3.7450	3.7449	1.6724	25.99	0.07	0.750			
0.5054	32347.32	3.7420	3.7419	1.7142	25.98	0.06	0.750			
0.5106	32677.87	3.7390	3.7388	1.7537	25.97	0.05	0.750			
0.5159	33019.35	3.7360	3.7362	1.8035	25.95	0.03	0.750			
0.5215	33373.19	3.7330	3.7332	1.8592	25.93	0.01	0.750			
0.5272	33738.10	3.7300	3.7299	1.9082	25.92	0.00	0.750			
0.5330	34111.47	3.7270	3.7270	1.9579	25.91	-0.01	0.750			
0.5389	34492.46	3.7240	3.7238	2.0142	25.89	-0.03	0.750			
0.5450	34880.83	3.7210	3.7212	2.0584	25.87	-0.05	0.750			
0.5513	35283.97	3.7180	3.7181	2.1077	25.85	-0.07	0.750			
0.5576	35686.31	3.7150	3.7149	2.1709	25.84	-0.08	0.750			
0.5642	36110.94	3.7120	3.7120	2.2419	25.82	-0.10	0.750			
0.5711	36548.71	3.7090	3.7090	2.3193	25.81	-0.11	0.750			
0.5781	36999.60	3.7060	3.7060	2.3698	25.79	-0.13	0.750			
0.5854	37462.60	3.7030	3.7031	2.4625	25.77	-0.15	0.750			
0.5929	37945.21	3.7000	3.6999	2.5395	25.74	-0.18	0.750			
0.6006	38441.53	3.6970	3.6968	2.6004	25.72	-0.20	0.750			
0.6085	38946.70	3.6940	3.6941	2.6637	25.70	-0.22	0.750			
0.6167	39470.00	3.6910	3.6910	2.7022	25.68	-0.24	0.750			
0.6249	39990.46	3.6880	3.6879	2.7957	25.67	-0.25	0.750			
0.6332	40526.34	3.6850	3.6850	2.8672	25.65	-0.27	0.750			
0.6420	41086.65	3.6820	3.6819	2.9902	25.63	-0.29	0.750			
0.6511	41672.26	3.6790	3.6791	3.1408	25.62	-0.30	0.750			
0.6608	42291.14	3.6760	3.6759	3.2792	25.61	-0.31	0.750			
0.6709	42935.61	3.6730	3.6730	3.3456	25.60	-0.32	0.750			
0.6812	43594.08	3.6700	3.6702	3.4475	25.58	-0.34	0.750			
0.6916	44262.66	3.6670	3.6669	3.4257	25.57	-0.35	0.750			
0.7020	44925.95	3.6640	3.6641	3.3201	25.58	-0.34	0.750			
0.7121	45576.03	3.6610	3.6609	3.1301	25.58	-0.34	0.750			
0.7210	46143.29	3.6580	3.6581	2.7871	25.58	-0.34	0.750			
0.7285	46622.58	3.6550	3.6554	2.4664	25.58	-0.34	0.750			
0.7355	47069.26	3.6520	3.6519	2.1937	25.59	-0.33	0.750			
0.7413	47441.18	3.6490	3.6488	1.9533	25.60	-0.32	0.750			
0.7466	47784.79	3.6460	3.6460	1.7736	25.60	-0.32	0.750			
0.7517	48108.76	3.6430	3.6429	1.6407	25.61	-0.31	0.750			
0.7564	48409.35	3.6400	3.6398	1.5208	25.61	-0.31	0.750			
0.7607	48684.33	3.6370	3.6370	1.4101	25.61	-0.31	0.750			
0.7646	48934.94	3.6340	3.6342	1.3188	25.62	-0.30	0.750			
0.7684	49176.71	3.6310	3.6309	1.2688	25.62	-0.30	0.750			
0.7721	49411.43	3.6280	3.6281	1.2373	25.62	-0.30	0.750			
0.7757	49645.99	3.6250	3.6250	1.2368	25.63	-0.29	0.750			
0.7794	49880.59	3.6220	3.6220	1.2380	25.63	-0.29	0.750			
0.7831	50119.48	3.6190	3.6190	1.2452	25.63	-0.29	0.750			
0.7869	50361.37	3.6160	3.6159	1.2501	25.63	-0.29	0.750			
0.7907	50604.38	3.6130	3.6131	1.2473	25.64	-0.28	0.750			
0.7945	50849.32	3.6100	3.6099	1.2303	25.64	-0.28	0.750			
0.7981	51080.62	3.6070	3.6071	1.2157	25.64	-0.28	0.750			
0.8017	51309.67	3.6040	3.6041	1.1950	25.65	-0.27	0.750			
0.8053	51536.55	3.6010	3.6009	1.1873	25.65	-0.27	0.750			
0.8088	51761.34	3.5980	3.5981	1.1841	25.65	-0.27	0.750			
0.8123	51984.16	3.5950	3.5951	1.2008	25.65	-0.27	0.750			
0.8158	52213.31	3.5920	3.5920	1.2293	25.66	-0.26	0.750			
0.8196	52453.19	3.5890	3.5891	1.2443	25.66	-0.26	0.750			
0.8233	52691.57	3.5860	3.5861	1.2868	25.66	-0.26	0.750			
0.8273	52949.87	3.5830	3.5830	1.3126	25.66	-0.26	0.750			
0.8313	53200.45	3.5800	3.5797	1.3528	25.66	-0.26	0.750			
0.8353	53461.66	3.5770	3.5771	1.3838	25.66	-0.26	0.750			
0.8395	53728.93	3.5740	3.5743	1.4295	25.66	-0.26	0.750			
0.8439	54006.58	3.5710	3.5710	1.4742	25.66	-0.26	0.750			
0.8484	54295.79	3.5680	3.5683	1.5058	25.66	-0.26	0.750			
0.8530	54592.12	3.5650	3.5652	1.5348	25.66	-0.26	0.750			
0.8578	54900.54	3.5620	3.5618	1.5805	25.66	-0.26	0.750			
0.8625	55200.80	3.5590	3.5589	1.5910	25.66	-0.26	0.750			
0.8673	55508.37	3.5560	3.5560	1.5940	25.67	-0.25	0.750			
0.8721	55816.65	3.5530	3.5531	1.5835	25.67	-0.25	0.750			
0.8768	56117.95	3.5500	3.5501	1.6114	25.68	-0.24	0.750			
0.8818	56432.02	3.5470	3.5468	1.6316	25.68	-0.24	0.750			
0.8866	56740.44	3.5440	3.5440	1.6578	25.69	-0.23	0.750			
0.8916	57059.57	3.5410	3.5414	1.7159	25.70	-0.22	0.750			
0.8968	57393.05	3.5380	3.5379	1.7641	25.70	-0.22	0.750			
0.9025	57759.23	3.5350	3.5349	1.7495	25.70	-0.22	0.750			
0.9081	58116.66	3.5320	3.5314	1.6914	25.71	-0.21	0.750			
0.9134	58460.45	3.5290	3.5289	1.5277	25.73	-0.19	0.750			
0.9179	58747.81	3.5260	3.5263	1.2930	25.75	-0.17	0.750			
0.9215	58977.60	3.5230	3.5232	1.0169	25.77	-0.15	0.750			
0.9238	59125.30	3.5200	3.5198	0.7567	25.78	-0.14	0.750			
0.9254	59227.19	3.5170	3.5168	0.5574	25.79	-0.13	0.750			
0.9266	59304.76	3.5140	3.5138	0.4496	25.80	-0.12	0.750			
0.9277	59374.15	3.5110	3.5109	0.3803	25.80	-0.12	0.750			
0.9287	59439.98	3.5080	3.5080	0.3495	25.81	-0.11	0.750			
0.9297	59501.47	3.5050	3.5050	0.3261	25.81	-0.11	0.750			
0.9307	59561.90	3.5020	3.5020	0.3141	25.82	-0.10	0.750			
0.9316	59620.85	3.4990	3.4991	0.3020	25.82	-0.10	0.750			
0.9325	59677.15	3.4960	3.4960	0.2916	25.83	-0.09	0.750			
0.9333	59732.46	3.4930	3.4930	0.2851	25.83	-0.09	0.750			
0.9342	59786.02	3.4900	3.4901	0.2778	25.84	-0.08	0.750			
0.9350	59838.46	3.4870	3.4868	0.2696	25.85	-0.07	0.750			
0.9358	59889.86	3.4840	3.4839	0.2639	25.85	-0.07	0.750			
0.9365	59939.12	3.4810	3.4811	0.2579	25.86	-0.06	0.750			
0.9373	59989.20	3.4780	3.4780	0.2544	25.87	-0.05	0.750			
0.9381	60037.08	3.4750	3.4748	0.2483	25.87	-0.05	0.750			
0.9388	60084.05	3.4720	3.4721	0.2426	25.88	-0.04	0.750			
0.9395	60129.75	3.4690	3.4690	0.2381	25.88	-0.04	0.750			
0.9402	60174.80	3.4660	3.4659	0.2366	25.89	-0.03	0.750			
0.9409	60220.67	3.4630	3.4629	0.2316	25.90	-0.02	0.750			
0.9416	60264.88	3.4600	3.4599	0.2254	25.90	-0.02	0.750			
0.9423	60307.45	3.4570	3.4570	0.2204	25.91	-0.01	0.750			
0.9430	60349.52	3.4540	3.4542	0.2177	25.91	-0.01	0.750			
0.9436	60390.39	3.4510	3.4509	0.2128	25.92	-0.00	0.750			
0.9442	60430.88	3.4480	3.4479	0.2090	25.92	0.00	0.750			
0.9448	60470.22	3.4450	3.4450	0.2039	25.93	0.01	0.750			
0.9454	60508.79	3.4420	3.4420	0.1986	25.93	0.01	0.750			
0.9461	60547.76	3.4390	3.4392	0.1956	25.94	0.02	0.750			
0.9466	60585.08	3.4360	3.4360	0.1913	25.94	0.02	0.750			
0.9472	60620.78	3.4330	3.4330	0.1866	25.95	0.03	0.750			
0.9477	60655.80	3.4300	3.4300	0.1812	25.95	0.03	0.750			
0.9483	60690.24	3.4270	3.4269	0.1775	25.95	0.03	0.750			
0.9488	60723.83	3.4240	3.4240	0.1737	25.96	0.04	0.750			
0.9493	60757.34	3.4210	3.4211	0.1694	25.96	0.04	0.750			
0.9498	60789.77	3.4180	3.4180	0.1649	25.97	0.05	0.750			
0.9503	60820.88	3.4150	3.4149	0.1592	25.97	0.05	0.750			
0.9508	60850.82	3.4120	3.4121	0.1540	25.97	0.05	0.750			
0.9512	60879.83	3.4090	3.4090	0.1486	25.98	0.06	0.750			
0.9517	60907.97	3.4060	3.4060	0.1435	25.98	0.06	0.750			
0.9521	60934.94	3.4030	3.4030	0.1384	25.98	0.06	0.750			
0.9525	60960.77	3.4000	3.4001	0.1331	25.99	0.07	0.750			
0.9529	60986.18	3.3970	3.3970	0.1276	25.99	0.07	0.750			
0.9533	61010.27	3.3940	3.3940	0.1220	25.99	0.07	0.750			
0.9536	61033.41	3.3910	3.3910	0.1146	26.00	0.08	0.750			
0.9540	61054.97	3.3880	3.3880	0.1079	26.00	0.08	0.750			
0.9543	61076.02	3.3850	3.3850	0.1000	26.00	0.08	0.750			
0.9546	61094.31	3.3820	3.3820	0.0905	26.00	0.08	0.750			
0.9549	61111.15	3.3790	3.3790	0.0818	26.01	0.09	0.750			
0.9551	61125.90	3.3760	3.3762	0.0718	26.01	0.09	0.750			
0.9553	61139.09	3.3730	3.3733	0.0619	26.01	0.09	0.750			
0.9555	61149.97	3.3700	3.3705	0.0514	26.01	0.09	0.750			
0.9556	61158.82	3.3670	3.3680	0.0408	26.01	0.09	0.750			
0.9557	61165.65	3.3640	3.3655	0.0303	26.01	0.09	0.750			
