Ah_balance (normalized)	Ah_balance (mAh)	Voltage - fit (V)	Voltage -  interpolate (V)	dQ/dV (1/V)	Temperature (°C)	Temperature - diff (°C)	Current (C)	R_DC 0ms (mOhm)	R_DC 50ms (mOhm)	R_DC 50 ms PEC (mOhm)
0.0002	15.37	4.1560	4.1555	-0.0983	25.10	0.00	-0.750			
0.0006	37.32	4.1530	4.1529	-0.1334	25.10	0.00	-0.750			
0.0011	67.22	4.1500	4.1500	-0.1709	25.10	0.00	-0.750			
0.0016	104.09	4.1470	4.1470	-0.2051	25.10	0.00	-0.750			
0.0023	146.90	4.1440	4.1440	-0.2380	25.10	0.00	-0.750			
0.0031	196.04	4.1410	4.1411	-0.2695	25.10	0.00	-0.750			
0.0039	251.79	4.1380	4.1380	-0.3006	25.10	0.00	-0.750			
0.0049	312.54	4.1350	4.1350	-0.3298	25.10	0.00	-0.750			
0.0059	378.84	4.1320	4.1321	-0.3586	25.10	0.00	-0.750			
0.0070	450.33	4.1290	4.1290	-0.3870	25.10	0.00	-0.750			
0.0082	527.76	4.1260	4.1260	-0.4127	25.10	0.00	-0.750			
0.0095	610.16	4.1230	4.1230	-0.4362	25.10	0.00	-0.750			
0.0109	696.77	4.1200	4.1200	-0.4564	25.10	0.00	-0.750			
0.0123	787.35	4.1170	4.1171	-0.4778	25.10	0.00	-0.750			
0.0138	880.87	4.1140	4.1140	-0.4942	25.10	0.00	-0.750			
0.0153	976.99	4.1110	4.1110	-0.5110	25.10	0.00	-0.750			
0.0168	1076.90	4.1080	4.1080	-0.5257	25.10	0.00	-0.750			
0.0184	1179.24	4.1050	4.1049	-0.5412	25.10	0.00	-0.750			
0.0201	1285.98	4.1020	4.1020	-0.5569	25.10	0.00	-0.750			
0.0218	1394.41	4.0990	4.0989	-0.5688	25.10	0.00	-0.750			
0.0235	1505.13	4.0960	4.0960	-0.5797	25.10	0.00	-0.750			
0.0253	1618.62	4.0930	4.0931	-0.5882	25.10	0.00	-0.750			
0.0271	1732.46	4.0900	4.0900	-0.5954	25.10	0.00	-0.750			
0.0289	1847.33	4.0870	4.0870	-0.6040	25.10	0.00	-0.750			
0.0307	1963.07	4.0840	4.0841	-0.6105	25.10	0.00	-0.750			
0.0325	2081.76	4.0810	4.0809	-0.6187	25.10	0.00	-0.750			
0.0344	2200.66	4.0780	4.0780	-0.6251	25.10	0.00	-0.750			
0.0363	2321.40	4.0750	4.0751	-0.6318	25.10	0.00	-0.750			
0.0382	2443.69	4.0720	4.0720	-0.6386	25.10	0.00	-0.750			
0.0401	2567.75	4.0690	4.0690	-0.6439	25.10	0.00	-0.750			
0.0421	2692.25	4.0660	4.0660	-0.6460	25.10	0.00	-0.750			
0.0440	2816.17	4.0630	4.0631	-0.6536	25.10	0.00	-0.750			
0.0460	2942.98	4.0600	4.0600	-0.6564	25.10	0.00	-0.750			
0.0480	3068.85	4.0570	4.0570	-0.6608	25.10	0.00	-0.750			
0.0499	3196.40	4.0540	4.0542	-0.6652	25.10	0.00	-0.750			
0.0519	3324.14	4.0510	4.0510	-0.6691	25.10	0.00	-0.750			
0.0540	3453.09	4.0480	4.0479	-0.6708	25.10	0.00	-0.750			
0.0560	3583.00	4.0450	4.0451	-0.6715	25.10	0.00	-0.750			
0.0580	3711.66	4.0420	4.0420	-0.6746	25.11	0.01	-0.750			
0.0600	3841.45	4.0390	4.0389	-0.6775	25.11	0.01	-0.750			
0.0620	3970.68	4.0360	4.0360	-0.6757	25.11	0.01	-0.750			
0.0641	4100.84	4.0330	4.0329	-0.6798	25.11	0.01	-0.750			
0.0661	4231.92	4.0300	4.0301	-0.6834	25.12	0.02	-0.750			
0.0682	4364.19	4.0270	4.0270	-0.6885	25.12	0.02	-0.750			
0.0702	4495.65	4.0240	4.0240	-0.6899	25.12	0.02	-0.750			
0.0723	4628.81	4.0210	4.0210	-0.6906	25.13	0.03	-0.750			
0.0744	4761.61	4.0180	4.0180	-0.6953	25.13	0.03	-0.750			
0.0765	4896.19	4.0150	4.0150	-0.6987	25.13	0.03	-0.750			
0.0786	5029.97	4.0120	4.0119	-0.7001	25.14	0.04	-0.750			
0.0807	5164.92	4.0090	4.0090	-0.7060	25.14	0.04	-0.750			
0.0828	5301.22	4.0060	4.0060	-0.7077	25.14	0.04	-0.750			
0.0850	5438.56	4.0030	4.0029	-0.7083	25.15	0.05	-0.750			
0.0871	5575.95	4.0000	4.0002	-0.7026	25.15	0.05	-0.750			
0.0892	5708.45	3.9970	3.9970	-0.7040	25.15	0.05	-0.750			
0.0913	5843.02	3.9940	3.9939	-0.7072	25.16	0.06	-0.750			
0.0934	5976.82	3.9910	3.9910	-0.7138	25.16	0.06	-0.750			
0.0956	6115.60	3.9880	3.9880	-0.7182	25.16	0.06	-0.750			
0.0978	6256.95	3.9850	3.9850	-0.7298	25.17	0.07	-0.750			
0.1000	6398.91	3.9820	3.9822	-0.7321	25.17	0.07	-0.750			
0.1022	6542.08	3.9790	3.9789	-0.7330	25.17	0.07	-0.750			
0.1044	6679.29	3.9760	3.9760	-0.7318	25.18	0.08	-0.750			
0.1066	6819.83	3.9730	3.9730	-0.7292	25.18	0.08	-0.750			
0.1088	6960.38	3.9700	3.9700	-0.7314	25.18	0.08	-0.750			
0.1109	7099.63	3.9670	3.9669	-0.7356	25.19	0.09	-0.750			
0.1131	7240.84	3.9640	3.9642	-0.7365	25.19	0.09	-0.750			
0.1154	7383.49	3.9610	3.9609	-0.7414	25.20	0.10	-0.750			
0.1176	7526.33	3.9580	3.9580	-0.7493	25.20	0.10	-0.750			
0.1198	7669.92	3.9550	3.9551	-0.7465	25.21	0.11	-0.750			
0.1221	7816.22	3.9520	3.9519	-0.7498	25.21	0.11	-0.750			
0.1244	7960.84	3.9490	3.9490	-0.7473	25.22	0.12	-0.750			
0.1266	8102.42	3.9460	3.9460	-0.7465	25.22	0.12	-0.750			
0.1288	8245.38	3.9430	3.9428	-0.7469	25.23	0.13	-0.750			
0.1311	8387.61	3.9400	3.9401	-0.7538	25.23	0.13	-0.750			
0.1333	8533.41	3.9370	3.9370	-0.7469	25.23	0.13	-0.750			
0.1356	8681.04	3.9340	3.9340	-0.7518	25.24	0.14	-0.750			
0.1379	8824.89	3.9310	3.9313	-0.7505	25.24	0.14	-0.750			
0.1401	8967.29	3.9280	3.9278	-0.7497	25.24	0.14	-0.750			
0.1423	9109.43	3.9250	3.9249	-0.7516	25.25	0.15	-0.750			
0.1446	9251.73	3.9220	3.9221	-0.7560	25.25	0.15	-0.750			
0.1469	9399.51	3.9190	3.9190	-0.7665	25.26	0.16	-0.750			
0.1492	9549.04	3.9160	3.9160	-0.7672	25.26	0.16	-0.750			
0.1515	9696.19	3.9130	3.9131	-0.7685	25.26	0.16	-0.750			
0.1538	9843.08	3.9100	3.9100	-0.7709	25.27	0.17	-0.750			
0.1561	9992.04	3.9070	3.9069	-0.7670	25.27	0.17	-0.750			
0.1584	10138.93	3.9040	3.9040	-0.7674	25.27	0.17	-0.750			
0.1607	10286.50	3.9010	3.9010	-0.7645	25.28	0.18	-0.750			
0.1630	10433.44	3.8980	3.8982	-0.7665	25.28	0.18	-0.750			
0.1653	10580.32	3.8950	3.8949	-0.7699	25.28	0.18	-0.750			
0.1676	10726.95	3.8920	3.8920	-0.7673	25.28	0.18	-0.750			
0.1699	10874.21	3.8890	3.8889	-0.7686	25.29	0.19	-0.750			
0.1722	11023.92	3.8860	3.8861	-0.7711	25.29	0.19	-0.750			
0.1746	11171.31	3.8830	3.8829	-0.7710	25.29	0.19	-0.750			
0.1769	11320.21	3.8800	3.8800	-0.7732	25.29	0.19	-0.750			
0.1792	11467.14	3.8770	3.8770	-0.7714	25.29	0.19	-0.750			
0.1815	11616.00	3.8740	3.8740	-0.7716	25.30	0.20	-0.750			
0.1838	11764.85	3.8710	3.8711	-0.7749	25.30	0.20	-0.750			
0.1862	11913.92	3.8680	3.8680	-0.7770	25.30	0.20	-0.750			
0.1885	12063.92	3.8650	3.8650	-0.7753	25.30	0.20	-0.750			
0.1908	12211.95	3.8620	3.8620	-0.7725	25.31	0.21	-0.750			
0.1931	12360.30	3.8590	3.8590	-0.7729	25.31	0.21	-0.750			
0.1955	12509.08	3.8560	3.8561	-0.7699	25.31	0.21	-0.750			
0.1978	12657.12	3.8530	3.8529	-0.7684	25.32	0.22	-0.750			
0.2001	12803.22	3.8500	3.8501	-0.7668	25.32	0.22	-0.750			
0.2024	12950.53	3.8470	3.8470	-0.7668	25.32	0.22	-0.750			
0.2047	13098.37	3.8440	3.8440	-0.7692	25.33	0.23	-0.750			
0.2070	13246.22	3.8410	3.8410	-0.7659	25.33	0.23	-0.750			
0.2093	13393.71	3.8380	3.8380	-0.7638	25.33	0.23	-0.750			
0.2116	13540.32	3.8350	3.8350	-0.7630	25.34	0.24	-0.750			
0.2139	13686.42	3.8320	3.8320	-0.7599	25.34	0.24	-0.750			
0.2161	13831.18	3.8290	3.8290	-0.7574	25.35	0.25	-0.750			
0.2184	13975.87	3.8260	3.8259	-0.7558	25.35	0.25	-0.750			
0.2206	14120.92	3.8230	3.8230	-0.7540	25.35	0.25	-0.750			
0.2229	14267.25	3.8200	3.8199	-0.7551	25.36	0.26	-0.750			
0.2252	14412.01	3.8170	3.8170	-0.7506	25.36	0.26	-0.750			
0.2274	14556.16	3.8140	3.8140	-0.7445	25.36	0.26	-0.750			
0.2297	14698.10	3.8110	3.8110	-0.7437	25.37	0.27	-0.750			
0.2319	14840.97	3.8080	3.8080	-0.7392	25.37	0.27	-0.750			
0.2341	14982.54	3.8050	3.8049	-0.7327	25.37	0.27	-0.750			
0.2363	15123.23	3.8020	3.8019	-0.7244	25.38	0.28	-0.750			
0.2385	15261.94	3.7990	3.7991	-0.7186	25.38	0.28	-0.750			
0.2406	15398.23	3.7960	3.7960	-0.7168	25.39	0.29	-0.750			
0.2427	15534.33	3.7930	3.7930	-0.7163	25.39	0.29	-0.750			
0.2449	15670.66	3.7900	3.7899	-0.7135	25.39	0.29	-0.750			
0.2470	15809.77	3.7870	3.7870	-0.7141	25.40	0.30	-0.750			
0.2492	15948.68	3.7840	3.7840	-0.7137	25.40	0.30	-0.750			
0.2513	16085.61	3.7810	3.7810	-0.7091	25.40	0.30	-0.750			
0.2534	16220.61	3.7780	3.7780	-0.7035	25.41	0.31	-0.750			
0.2555	16354.15	3.7750	3.7750	-0.7008	25.41	0.31	-0.750			
0.2576	16486.55	3.7720	3.7720	-0.7013	25.41	0.31	-0.750			
0.2597	16622.71	3.7690	3.7689	-0.7041	25.42	0.32	-0.750			
0.2618	16758.33	3.7660	3.7661	-0.7067	25.42	0.32	-0.750			
0.2640	16894.37	3.7630	3.7629	-0.7097	25.42	0.32	-0.750			
0.2661	17030.42	3.7600	3.7600	-0.7118	25.43	0.33	-0.750			
0.2682	17165.81	3.7570	3.7570	-0.7189	25.43	0.33	-0.750			
0.2704	17305.70	3.7540	3.7539	-0.7219	25.43	0.33	-0.750			
0.2726	17445.04	3.7510	3.7510	-0.7281	25.44	0.34	-0.750			
0.2748	17586.04	3.7480	3.7483	-0.7367	25.44	0.34	-0.750			
0.2770	17728.22	3.7450	3.7450	-0.7434	25.44	0.34	-0.750			
0.2792	17870.80	3.7420	3.7419	-0.7519	25.44	0.34	-0.750			
0.2815	18014.68	3.7390	3.7390	-0.7531	25.44	0.34	-0.750			
0.2838	18160.04	3.7360	3.7360	-0.7670	25.44	0.34	-0.750			
0.2861	18308.13	3.7330	3.7330	-0.7786	25.44	0.34	-0.750			
0.2884	18457.64	3.7300	3.7299	-0.7872	25.44	0.34	-0.750			
0.2908	18608.97	3.7270	3.7270	-0.8049	25.44	0.34	-0.750			
0.2932	18767.47	3.7240	3.7240	-0.8117	25.44	0.34	-0.750			
0.2957	18924.59	3.7210	3.7210	-0.8192	25.43	0.33	-0.750			
0.2982	19083.49	3.7180	3.7180	-0.8352	25.43	0.33	-0.750			
0.3007	19241.83	3.7150	3.7151	-0.8432	25.43	0.33	-0.750			
0.3032	19404.09	3.7120	3.7119	-0.8621	25.43	0.33	-0.750			
0.3058	19570.30	3.7090	3.7089	-0.8746	25.43	0.33	-0.750			
0.3084	19739.23	3.7060	3.7061	-0.8926	25.42	0.32	-0.750			
0.3112	19915.95	3.7030	3.7030	-0.9169	25.42	0.32	-0.750			
0.3140	20093.21	3.7000	3.7000	-0.9337	25.42	0.32	-0.750			
0.3168	20274.02	3.6970	3.6969	-0.9501	25.42	0.32	-0.750			
0.3197	20458.09	3.6940	3.6940	-0.9602	25.42	0.32	-0.750			
0.3226	20644.07	3.6910	3.6910	-0.9741	25.42	0.32	-0.750			
0.3255	20832.45	3.6880	3.6881	-0.9919	25.42	0.32	-0.750			
0.3285	21023.67	3.6850	3.6849	-1.0057	25.41	0.31	-0.750			
0.3315	21217.42	3.6820	3.6820	-1.0228	25.41	0.31	-0.750			
0.3346	21413.58	3.6790	3.6789	-1.0392	25.40	0.30	-0.750			
0.3377	21614.84	3.6760	3.6763	-1.0715	25.40	0.30	-0.750			
0.3410	21825.50	3.6730	3.6730	-1.0851	25.39	0.29	-0.750			
0.3443	22036.77	3.6700	3.6699	-1.1005	25.39	0.29	-0.750			
0.3476	22249.46	3.6670	3.6669	-1.1149	25.38	0.28	-0.750			
0.3510	22464.41	3.6640	3.6641	-1.1307	25.38	0.28	-0.750			
0.3544	22682.68	3.6610	3.6609	-1.1436	25.38	0.28	-0.750			
0.3578	22901.71	3.6580	3.6580	-1.1618	25.37	0.27	-0.750			
0.3613	23122.64	3.6550	3.6550	-1.1786	25.37	0.27	-0.750			
0.3649	23355.81	3.6520	3.6519	-1.2144	25.37	0.27	-0.750			
0.3686	23591.44	3.6490	3.6490	-1.2333	25.37	0.27	-0.750			
0.3723	23828.60	3.6460	3.6460	-1.2614	25.36	0.26	-0.750			
0.3762	24074.23	3.6430	3.6431	-1.2842	25.36	0.26	-0.750			
0.3801	24325.25	3.6400	3.6400	-1.3057	25.35	0.25	-0.750			
0.3840	24576.83	3.6370	3.6370	-1.3230	25.35	0.25	-0.750			
0.3880	24832.59	3.6340	3.6341	-1.3413	25.34	0.24	-0.750			
0.3921	25091.63	3.6310	3.6310	-1.3652	25.33	0.23	-0.750			
0.3962	25354.82	3.6280	3.6280	-1.3907	25.33	0.23	-0.750			
0.4003	25621.60	3.6250	3.6250	-1.4212	25.32	0.22	-0.750			
0.4047	25897.93	3.6220	3.6220	-1.4567	25.32	0.22	-0.750			
0.4091	26179.25	3.6190	3.6190	-1.5016	25.32	0.22	-0.750			
0.4137	26474.16	3.6160	3.6160	-1.5265	25.32	0.22	-0.750			
0.4183	26773.02	3.6130	3.6128	-1.5518	25.32	0.22	-0.750			
0.4230	27074.94	3.6100	3.6100	-1.5656	25.31	0.21	-0.750	0.388	0.565	
0.4277	27372.17	3.6070	3.6069	-1.5925	25.31	0.21	-0.750			
0.4325	27681.86	3.6040	3.6039	-1.6083	25.30	0.20	-0.750			
0.4373	27986.33	3.6010	3.6010	-1.6421	25.30	0.20	-0.750			
0.4423	28305.42	3.5980	3.5979	-1.6917	25.30	0.20	-0.750			
0.4475	28638.62	3.5950	3.5951	-1.7256	25.30	0.20	-0.750			
0.4527	28975.04	3.5920	3.5922	-1.7639	25.30	0.20	-0.750			
0.4581	29319.79	3.5890	3.5889	-1.7803	25.29	0.19	-0.750			
0.4634	29658.26	3.5860	3.5861	-1.8232	25.28	0.18	-0.750			
0.4689	30008.93	3.5830	3.5831	-1.8519	25.28	0.18	-0.750			
0.4746	30375.31	3.5800	3.5799	-1.8733	25.28	0.18	-0.750			
0.4802	30732.59	3.5770	3.5770	-1.9155	25.28	0.18	-0.750			
0.4861	31107.63	3.5740	3.5740	-1.9542	25.28	0.18	-0.750			
0.4919	31484.42	3.5710	3.5709	-1.9894	25.28	0.18	-0.750			
0.4980	31870.71	3.5680	3.5679	-2.0108	25.28	0.18	-0.750			
0.5040	32256.24	3.5650	3.5651	-2.0304	25.28	0.18	-0.750			
0.5102	32655.04	3.5620	3.5621	-2.0576	25.28	0.18	-0.750			
0.5166	33059.75	3.5590	3.5588	-2.0677	25.28	0.18	-0.750			
0.5226	33449.38	3.5560	3.5560	-2.0500	25.28	0.18	-0.750			
0.5289	33847.63	3.5530	3.5531	-2.0577	25.28	0.18	-0.750			
0.5350	34242.78	3.5500	3.5499	-2.0539	25.28	0.18	-0.750			
0.5411	34632.66	3.5470	3.5469	-2.0385	25.28	0.18	-0.750			
0.5473	35026.79	3.5440	3.5442	-2.0372	25.28	0.18	-0.750			
0.5535	35421.01	3.5410	3.5408	-2.0398	25.28	0.18	-0.750			
0.5595	35809.70	3.5380	3.5379	-2.0246	25.28	0.18	-0.750			
0.5656	36201.19	3.5350	3.5353	-2.0077	25.29	0.19	-0.750			
0.5717	36590.99	3.5320	3.5321	-1.9977	25.29	0.19	-0.750			
0.5776	36968.12	3.5290	3.5291	-1.9553	25.30	0.20	-0.750			
0.5835	37340.97	3.5260	3.5261	-1.9229	25.31	0.21	-0.750			
0.5892	37711.39	3.5230	3.5229	-1.8952	25.32	0.22	-0.750			
0.5949	38071.00	3.5200	3.5200	-1.8544	25.32	0.22	-0.750			
0.6004	38422.44	3.5170	3.5169	-1.8133	25.32	0.22	-0.750			
0.6057	38765.45	3.5140	3.5140	-1.7836	25.33	0.23	-0.750			
0.6111	39109.18	3.5110	3.5111	-1.7431	25.34	0.24	-0.750			
0.6163	39443.24	3.5080	3.5078	-1.6930	25.35	0.25	-0.750			
0.6213	39760.73	3.5050	3.5049	-1.6536	25.35	0.25	-0.750			
0.6262	40075.57	3.5020	3.5020	-1.6093	25.36	0.26	-0.750			
0.6309	40377.65	3.4990	3.4990	-1.5618	25.38	0.28	-0.750			
0.6355	40673.54	3.4960	3.4959	-1.5324	25.39	0.29	-0.750			
0.6401	40964.61	3.4930	3.4930	-1.4925	25.41	0.31	-0.750			
0.6446	41254.74	3.4900	3.4898	-1.4629	25.42	0.32	-0.750			
0.6489	41529.75	3.4870	3.4870	-1.4209	25.44	0.34	-0.750			
0.6530	41794.80	3.4840	3.4839	-1.3648	25.45	0.35	-0.750			
0.6572	42057.92	3.4810	3.4810	-1.3289	25.46	0.36	-0.750			
0.6610	42305.67	3.4780	3.4780	-1.2780	25.48	0.38	-0.750			
0.6647	42541.97	3.4750	3.4751	-1.2355	25.49	0.39	-0.750			
0.6685	42782.72	3.4720	3.4719	-1.2054	25.51	0.41	-0.750			
0.6720	43007.73	3.4690	3.4689	-1.1638	25.53	0.43	-0.750			
0.6754	43223.67	3.4660	3.4662	-1.1357	25.54	0.44	-0.750			
0.6788	43442.91	3.4630	3.4629	-1.1051	25.56	0.46	-0.750			
0.6821	43652.59	3.4600	3.4599	-1.0656	25.57	0.47	-0.750			
0.6852	43853.42	3.4570	3.4569	-1.0279	25.59	0.49	-0.750			
0.6883	44048.80	3.4540	3.4541	-0.9973	25.60	0.50	-0.750			
0.6912	44235.71	3.4510	3.4509	-0.9657	25.62	0.52	-0.750			
0.6940	44415.09	3.4480	3.4479	-0.9317	25.63	0.53	-0.750			
0.6967	44586.37	3.4450	3.4450	-0.9026	25.64	0.54	-0.750			
0.6994	44761.75	3.4420	3.4421	-0.8965	25.66	0.56	-0.750			
0.7021	44932.69	3.4390	3.4389	-0.8788	25.67	0.57	-0.750			
0.7046	45097.26	3.4360	3.4360	-0.8656	25.68	0.58	-0.750			
0.7072	45261.32	3.4330	3.4331	-0.8535	25.70	0.60	-0.750			
0.7097	45423.88	3.4300	3.4300	-0.8467	25.71	0.61	-0.750			
0.7123	45586.37	3.4270	3.4270	-0.8422	25.72	0.62	-0.750			
0.7148	45746.58	3.4240	3.4241	-0.8449	25.73	0.63	-0.750			
0.7173	45908.55	3.4210	3.4210	-0.8525	25.74	0.64	-0.750			
0.7199	46074.10	3.4180	3.4179	-0.8558	25.75	0.65	-0.750			
0.7225	46238.46	3.4150	3.4150	-0.8565	25.76	0.66	-0.750			
0.7251	46405.02	3.4120	3.4123	-0.8582	25.77	0.67	-0.750			
0.7277	46570.08	3.4090	3.4090	-0.8535	25.78	0.68	-0.750			
0.7302	46733.83	3.4060	3.4060	-0.8532	25.79	0.69	-0.750			
0.7328	46896.82	3.4030	3.4029	-0.8439	25.80	0.70	-0.750			
0.7353	47060.87	3.4000	3.3999	-0.8391	25.80	0.70	-0.750			
0.7378	47220.84	3.3970	3.3972	-0.8257	25.81	0.71	-0.750			
0.7403	47378.67	3.3940	3.3940	-0.8143	25.82	0.72	-0.750			
0.7427	47534.32	3.3910	3.3909	-0.7997	25.83	0.73	-0.750			
0.7451	47685.66	3.3880	3.3880	-0.7797	25.83	0.73	-0.750			
0.7474	47834.50	3.3850	3.3850	-0.7640	25.84	0.74	-0.750			
0.7497	47979.77	3.3820	3.3821	-0.7451	25.85	0.75	-0.750			
0.7519	48121.87	3.3790	3.3789	-0.7263	25.86	0.76	-0.750			
0.7540	48258.84	3.3760	3.3760	-0.7043	25.86	0.76	-0.750			
0.7561	48391.27	3.3730	3.3730	-0.6841	25.87	0.77	-0.750			
0.7581	48521.22	3.3700	3.3700	-0.6649	25.88	0.78	-0.750			
0.7601	48647.80	3.3670	3.3670	-0.6459	25.88	0.78	-0.750			
0.7620	48769.47	3.3640	3.3639	-0.6231	25.89	0.79	-0.750			
0.7639	48887.17	3.3610	3.3609	-0.6043	25.89	0.79	-0.750			
0.7656	49001.20	3.3580	3.3579	-0.5837	25.90	0.80	-0.750			
0.7674	49110.65	3.3550	3.3550	-0.5643	25.91	0.81	-0.750			
0.7690	49216.29	3.3520	3.3520	-0.5481	25.91	0.81	-0.750			
0.7706	49320.69	3.3490	3.3490	-0.5324	25.92	0.82	-0.750			
0.7722	49421.55	3.3460	3.3459	-0.5149	25.92	0.82	-0.750			
0.7737	49518.59	3.3430	3.3430	-0.5011	25.93	0.83	-0.750			
0.7752	49612.82	3.3400	3.3400	-0.4855	25.93	0.83	-0.750			
0.7766	49704.77	3.3370	3.3370	-0.4727	25.94	0.84	-0.750			
0.7780	49793.82	3.3340	3.3339	-0.4576	25.95	0.85	-0.750			
0.7794	49879.08	3.3310	3.3310	-0.4447	25.95	0.85	-0.750			
0.7807	49963.65	3.3280	3.3280	-0.4357	25.96	0.86	-0.750			
0.7820	50046.21	3.3250	3.3248	-0.4260	25.96	0.86	-0.750			
0.7832	50126.71	3.3220	3.3220	-0.4142	25.97	0.87	-0.750			
0.7845	50206.14	3.3190	3.3190	-0.4046	25.98	0.88	-0.750			
0.7857	50283.06	3.3160	3.3160	-0.3943	25.98	0.88	-0.750			
0.7868	50358.20	3.3130	3.3129	-0.3837	25.99	0.89	-0.750			
0.7880	50429.64	3.3100	3.3100	-0.3704	25.99	0.89	-0.750			
0.7891	50499.43	3.3070	3.3070	-0.3615	26.00	0.90	-0.750			
0.7901	50567.23	3.3040	3.3040	-0.3529	26.00	0.90	-0.750			
0.7912	50634.49	3.3010	3.3010	-0.3449	26.01	0.91	-0.750			
0.7922	50699.52	3.2980	3.2979	-0.3378	26.01	0.91	-0.750			
0.7932	50763.91	3.2950	3.2951	-0.3304	26.02	0.92	-0.750			
0.7942	50826.81	3.2920	3.2920	-0.3240	26.02	0.92	-0.750			
0.7951	50888.27	3.2890	3.2890	-0.3168	26.03	0.93	-0.750			
0.7961	50948.15	3.2860	3.2860	-0.3099	26.03	0.93	-0.750			
0.7970	51006.42	3.2830	3.2830	-0.3047	26.04	0.94	-0.750			
0.7979	51064.85	3.2800	3.2799	-0.3004	26.04	0.94	-0.750			
0.7988	51121.94	3.2770	3.2770	-0.2940	26.04	0.94	-0.750			
0.7997	51178.34	3.2740	3.2740	-0.2894	26.05	0.95	-0.750			
0.8005	51233.29	3.2710	3.2711	-0.2847	26.05	0.95	-0.750			
0.8014	51287.53	3.2680	3.2680	-0.2799	26.06	0.96	-0.750			
0.8022	51340.07	3.2650	3.2649	-0.2733	26.06	0.96	-0.750			
0.8030	51391.69	3.2620	3.2620	-0.2687	26.07	0.97	-0.750			
0.8038	51443.15	3.2590	3.2591	-0.2662	26.07	0.97	-0.750			
0.8046	51494.11	3.2560	3.2560	-0.2628	26.08	0.98	-0.750			
0.8054	51544.27	3.2530	3.2529	-0.2590	26.09	0.99	-0.750			
0.8061	51593.60	3.2500	3.2501	-0.2553	26.09	0.99	-0.750			
0.8069	51642.53	3.2470	3.2469	-0.2511	26.09	0.99	-0.750			
0.8077	51690.56	3.2440	3.2440	-0.2477	26.10	1.00	-0.750			
0.8084	51737.61	3.2410	3.2410	-0.2429	26.10	1.00	-0.750			
0.8091	51783.45	3.2380	3.2380	-0.2389	26.11	1.01	-0.750			
0.8098	51828.81	3.2350	3.2349	-0.2368	26.11	1.01	-0.750			
0.8105	51874.07	3.2320	3.2319	-0.2333	26.12	1.02	-0.750			
0.8112	51918.51	3.2290	3.2290	-0.2304	26.12	1.02	-0.750			
0.8119	51962.49	3.2260	3.2260	-0.2278	26.13	1.03	-0.750			
0.8126	52006.11	3.2230	3.2231	-0.2263	26.13	1.03	-0.750			
0.8133	52049.69	3.2200	3.2200	-0.2227	26.14	1.04	-0.750			
0.8139	52092.08	3.2170	3.2169	-0.2188	26.14	1.04	-0.750			
0.8146	52133.58	3.2140	3.2140	-0.2160	26.15	1.05	-0.750			
0.8152	52174.33	3.2110	3.2112	-0.2135	26.15	1.05	-0.750			
0.8159	52215.27	3.2080	3.2079	-0.2122	26.16	1.06	-0.750			
0.8165	52255.80	3.2050	3.2049	-0.2100	26.17	1.07	-0.750			
0.8171	52295.65	3.2020	3.2020	-0.2068	26.17	1.07	-0.750			
0.8177	52335.09	3.1990	3.1991	-0.2041	26.18	1.08	-0.750			
0.8184	52374.73	3.1960	3.1961	-0.2028	26.18	1.08	-0.750			
0.8190	52413.32	3.1930	3.1929	-0.1991	26.19	1.09	-0.750			
0.8195	52451.00	3.1900	3.1900	-0.1965	26.19	1.09	-0.750			
0.8201	52488.16	3.1870	3.1870	-0.1938	26.20	1.10	-0.750			
0.8207	52524.94	3.1840	3.1839	-0.1915	26.20	1.10	-0.750			
0.8213	52561.56	3.1810	3.1810	-0.1899	26.21	1.11	-0.750			
0.8218	52597.89	3.1780	3.1780	-0.1889	26.21	1.11	-0.750			
0.8224	52633.90	3.1750	3.1750	-0.1874	26.22	1.12	-0.750			
0.8230	52670.00	3.1720	3.1720	-0.1856	26.22	1.12	-0.750			
0.8235	52705.46	3.1690	3.1690	-0.1838	26.23	1.13	-0.750			
0.8241	52740.75	3.1660	3.1660	-0.1812	26.23	1.13	-0.750			
0.8246	52775.60	3.1630	3.1630	-0.1788	26.23	1.13	-0.750			
0.8251	52809.26	3.1600	3.1601	-0.1767	26.23	1.13	-0.750			
0.8257	52842.99	3.1570	3.1569	-0.1746	26.24	1.14	-0.750			
0.8262	52876.03	3.1540	3.1540	-0.1723	26.24	1.14	-0.750			
0.8267	52908.81	3.1510	3.1509	-0.1703	26.25	1.15	-0.750			
0.8272	52941.22	3.1480	3.1481	-0.1695	26.26	1.16	-0.750			
0.8277	52973.68	3.1450	3.1450	-0.1686	26.26	1.16	-0.750			
0.8282	53006.16	3.1420	3.1419	-0.1668	26.27	1.17	-0.750			
0.8287	53038.08	3.1390	3.1390	-0.1655	26.27	1.17	-0.750			
0.8292	53069.52	3.1360	3.1360	-0.1633	26.28	1.18	-0.750			
0.8297	53100.76	3.1330	3.1331	-0.1620	26.28	1.18	-0.750			
0.8302	53132.01	3.1300	3.1299	-0.1606	26.29	1.19	-0.750			
0.8307	53162.55	3.1270	3.1270	-0.1593	26.29	1.19	-0.750			
0.8311	53192.76	3.1240	3.1240	-0.1571	26.30	1.20	-0.750			
0.8316	53222.83	3.1210	3.1211	-0.1562	26.30	1.20	-0.750			
0.8321	53252.90	3.1180	3.1179	-0.1554	26.31	1.21	-0.750			
0.8325	53282.59	3.1150	3.1151	-0.1537	26.31	1.21	-0.750			
0.8330	53312.08	3.1120	3.1120	-0.1526	26.32	1.22	-0.750			
0.8335	53341.22	3.1090	3.1090	-0.1510	26.32	1.22	-0.750			
0.8339	53370.02	3.1060	3.1059	-0.1501	26.33	1.23	-0.750			
0.8344	53398.79	3.1030	3.1030	-0.1481	26.33	1.23	-0.750			
0.8348	53426.89	3.1000	3.1000	-0.1473	26.34	1.24	-0.750			
0.8352	53455.07	3.0970	3.0970	-0.1462	26.34	1.24	-0.750			
0.8357	53482.96	3.0940	3.0941	-0.1446	26.34	1.24	-0.750			
0.8361	53510.87	3.0910	3.0909	-0.1434	26.35	1.25	-0.750			
0.8365	53538.27	3.0880	3.0879	-0.1418	26.35	1.25	-0.750			
0.8370	53565.19	3.0850	3.0852	-0.1410	26.36	1.26	-0.750			
0.8374	53591.97	3.0820	3.0824	-0.1400	26.36	1.26	-0.750			
0.8378	53619.16	3.0790	3.0788	-0.1391	26.37	1.27	-0.750			
0.8382	53645.43	3.0760	3.0760	-0.1370	26.37	1.27	-0.750			
0.8386	53671.60	3.0730	3.0731	-0.1365	26.38	1.28	-0.750			
0.8390	53697.83	3.0700	3.0700	-0.1363	26.38	1.28	-0.750			
0.8394	53723.99	3.0670	3.0669	-0.1355	26.39	1.29	-0.750			
0.8398	53749.92	3.0640	3.0640	-0.1346	26.40	1.30	-0.750			
0.8402	53775.43	3.0610	3.0610	-0.1334	26.40	1.30	-0.750			
0.8406	53801.14	3.0580	3.0581	-0.1327	26.41	1.31	-0.750			
0.8410	53826.85	3.0550	3.0550	-0.1324	26.41	1.31	-0.750			
0.8414	53852.13	3.0520	3.0520	-0.1307	26.42	1.32	-0.750			
0.8418	53876.98	3.0490	3.0490	-0.1289	26.42	1.32	-0.750			
0.8422	53901.52	3.0460	3.0461	-0.1276	26.43	1.33	-0.750			
0.8426	53925.97	3.0430	3.0430	-0.1264	26.44	1.34	-0.750			
0.8430	53949.94	3.0400	3.0400	-0.1259	26.44	1.34	-0.750			
0.8433	53973.76	3.0370	3.0370	-0.1251	26.45	1.35	-0.750			
0.8437	53997.58	3.0340	3.0340	-0.1244	26.45	1.35	-0.750			
0.8441	54021.65	3.0310	3.0310	-0.1239	26.46	1.36	-0.750			
0.8445	54045.58	3.0280	3.0279	-0.1239	26.46	1.36	-0.750			
0.8448	54069.51	3.0250	3.0249	-0.1226	26.47	1.37	-0.750			
0.8452	54093.29	3.0220	3.0219	-0.1219	26.47	1.37	-0.750			
0.8456	54116.36	3.0190	3.0190	-0.1204	26.48	1.38	-0.750			
0.8459	54139.28	3.0160	3.0161	-0.1188	26.48	1.38	-0.750			
0.8463	54161.94	3.0130	3.0130	-0.1173	26.49	1.39	-0.750			
0.8466	54184.25	3.0100	3.0100	-0.1160	26.49	1.39	-0.751			
0.8470	54206.39	3.0070	3.0069	-0.1147	26.50	1.40	-0.751			
0.8473	54228.36	3.0040	3.0040	-0.1159	26.50	1.40	-0.751			
