Ah_balance (normalized)	Ah_balance (mAh)	Voltage - fit (V)	Voltage -  interpolate (V)	dQ/dV (1/V)	Temperature (°C)	Temperature - diff (°C)	Current (C)	R_DC 0ms (mOhm)	R_DC 50ms (mOhm)	R_DC 50 ms PEC (mOhm)
0.0520	3330.83	4.1980	4.1981	0.7704	26.56	0.62	0.750			
0.0544	3479.62	4.1950	4.1949	0.7703	26.55	0.61	0.750			
0.0567	3625.77	4.1920	4.1920	0.7638	26.55	0.61	0.750			
0.0589	3771.18	4.1890	4.1891	0.7658	26.55	0.61	0.750			
0.0612	3917.60	4.1860	4.1860	0.7683	26.54	0.60	0.750			
0.0635	4066.06	4.1830	4.1830	0.7653	26.54	0.60	0.750			
0.0658	4212.06	4.1800	4.1801	0.7688	26.53	0.59	0.750			
0.0681	4360.94	4.1770	4.1770	0.7696	26.53	0.59	0.750			
0.0704	4508.74	4.1740	4.1739	0.7710	26.53	0.59	0.750			
0.0727	4654.91	4.1710	4.1710	0.7729	26.52	0.58	0.750			
0.0751	4803.23	4.1680	4.1677	0.7761	26.52	0.58	0.750			
0.0774	4953.87	4.1650	4.1650	0.7785	26.52	0.58	0.750			
0.0798	5105.91	4.1620	4.1620	0.7775	26.52	0.58	0.750			
0.0821	5254.41	4.1590	4.1591	0.7753	26.52	0.58	0.750			
0.0844	5404.06	4.1560	4.1560	0.7766	26.52	0.58	0.750			
0.0867	5551.38	4.1530	4.1529	0.7714	26.52	0.58	0.750			
0.0890	5698.37	4.1500	4.1500	0.7719	26.52	0.58	0.750			
0.0914	5846.96	4.1470	4.1470	0.7742	26.52	0.58	0.750			
0.0937	5995.29	4.1440	4.1440	0.7797	26.52	0.58	0.750			
0.0960	6146.11	4.1410	4.1409	0.7843	26.53	0.59	0.750			
0.0984	6295.29	4.1380	4.1381	0.7878	26.53	0.59	0.750			
0.1007	6447.21	4.1350	4.1351	0.7916	26.53	0.59	0.750			
0.1031	6600.80	4.1320	4.1319	0.7953	26.53	0.59	0.750			
0.1055	6754.12	4.1290	4.1291	0.7925	26.53	0.59	0.750			
0.1079	6906.08	4.1260	4.1261	0.7932	26.54	0.60	0.750			
0.1103	7058.07	4.1230	4.1231	0.7940	26.54	0.60	0.750			
0.1127	7211.07	4.1200	4.1195	0.7957	26.54	0.60	0.750			
0.1150	7361.69	4.1170	4.1170	0.7935	26.54	0.60	0.750			
0.1174	7515.24	4.1140	4.1140	0.7958	26.54	0.60	0.750			
0.1198	7669.28	4.1110	4.1110	0.7990	26.53	0.59	0.750			
0.1222	7823.07	4.1080	4.1080	0.7985	26.53	0.59	0.750			
0.1246	7975.64	4.1050	4.1049	0.7992	26.53	0.59	0.750			
0.1270	8128.37	4.1020	4.1020	0.7999	26.53	0.59	0.750			
0.1295	8284.88	4.0990	4.0990	0.7953	26.53	0.59	0.750			
0.1318	8435.74	4.0960	4.0960	0.8011	26.54	0.60	0.750			
0.1342	8589.65	4.0930	4.0931	0.8059	26.54	0.60	0.750			
0.1366	8744.13	4.0900	4.0900	0.8070	26.54	0.60	0.750			
0.1391	8899.21	4.0870	4.0871	0.8113	26.54	0.60	0.750			
0.1415	9057.21	4.0840	4.0841	0.8076	26.54	0.60	0.750			
0.1439	9212.34	4.0810	4.0810	0.8133	26.54	0.60	0.750			
0.1464	9369.24	4.0780	4.0780	0.8190	26.54	0.60	0.750			
0.1488	9522.91	4.0750	4.0751	0.8176	26.54	0.60	0.750			
0.1513	9681.44	4.0720	4.0721	0.8183	26.54	0.60	0.750			
0.1537	9839.70	4.0690	4.0690	0.8244	26.54	0.60	0.750			
0.1562	9998.20	4.0660	4.0661	0.8271	26.54	0.60	0.750			
0.1587	10158.13	4.0630	4.0630	0.8303	26.54	0.60	0.750			
0.1612	10317.51	4.0600	4.0599	0.8296	26.54	0.60	0.750			
0.1637	10476.76	4.0570	4.0570	0.8315	26.54	0.60	0.750			
0.1662	10636.36	4.0540	4.0540	0.8304	26.55	0.61	0.750			
0.1687	10796.62	4.0510	4.0510	0.8369	26.55	0.61	0.750			
0.1712	10955.23	4.0480	4.0480	0.8441	26.55	0.61	0.750			
0.1737	11118.17	4.0450	4.0450	0.8504	26.56	0.62	0.750			
0.1763	11283.57	4.0420	4.0420	0.8551	26.56	0.62	0.750			
0.1789	11450.10	4.0390	4.0391	0.8589	26.56	0.62	0.750			
0.1815	11614.94	4.0360	4.0360	0.8602	26.56	0.62	0.750			
0.1841	11780.47	4.0330	4.0330	0.8624	26.56	0.62	0.750			
0.1866	11943.56	4.0300	4.0299	0.8578	26.56	0.62	0.750			
0.1892	12107.40	4.0270	4.0270	0.8606	26.56	0.62	0.750			
0.1918	12274.66	4.0240	4.0241	0.8639	26.56	0.62	0.750			
0.1944	12440.16	4.0210	4.0210	0.8693	26.56	0.62	0.750			
0.1970	12609.33	4.0180	4.0180	0.8708	26.56	0.62	0.750			
0.1996	12775.52	4.0150	4.0149	0.8751	26.56	0.62	0.750			
0.2022	12943.77	4.0120	4.0120	0.8743	26.56	0.62	0.750			
0.2049	13111.97	4.0090	4.0090	0.8769	26.57	0.63	0.750			
0.2075	13279.99	4.0060	4.0061	0.8783	26.57	0.63	0.750			
0.2101	13448.69	4.0030	4.0030	0.8780	26.58	0.64	0.750			
0.2128	13617.02	4.0000	3.9999	0.8797	26.58	0.64	0.750			
0.2154	13786.46	3.9970	3.9970	0.8855	26.58	0.64	0.750			
0.2181	13955.34	3.9940	3.9941	0.8874	26.58	0.64	0.750			
0.2208	14128.23	3.9910	3.9910	0.8957	26.58	0.64	0.750			
0.2234	14297.97	3.9880	3.9880	0.8989	26.58	0.64	0.750			
0.2262	14474.15	3.9850	3.9850	0.8997	26.58	0.64	0.750			
0.2289	14650.24	3.9820	3.9820	0.8923	26.58	0.64	0.750			
0.2315	14818.09	3.9790	3.9791	0.8948	26.59	0.65	0.750			
0.2342	14988.75	3.9760	3.9760	0.8964	26.59	0.65	0.750			
0.2369	15159.64	3.9730	3.9728	0.8954	26.59	0.65	0.750			
0.2395	15330.83	3.9700	3.9700	0.8994	26.59	0.65	0.750			
0.2422	15502.97	3.9670	3.9672	0.8981	26.59	0.65	0.750			
0.2450	15677.84	3.9640	3.9641	0.9084	26.60	0.66	0.750			
0.2477	15854.40	3.9610	3.9610	0.9141	26.60	0.66	0.750			
0.2504	16026.00	3.9580	3.9578	0.9092	26.60	0.66	0.750			
0.2532	16203.79	3.9550	3.9550	0.9122	26.60	0.66	0.750			
0.2559	16378.85	3.9520	3.9520	0.9223	26.60	0.66	0.750			
0.2587	16556.89	3.9490	3.9491	0.9245	26.61	0.67	0.750			
0.2615	16733.72	3.9460	3.9460	0.9239	26.61	0.67	0.750			
0.2643	16912.41	3.9430	3.9430	0.9261	26.61	0.67	0.750			
0.2670	17091.07	3.9400	3.9401	0.9225	26.61	0.67	0.750			
0.2698	17266.50	3.9370	3.9371	0.9287	26.61	0.67	0.750			
0.2726	17446.56	3.9340	3.9340	0.9312	26.61	0.67	0.750			
0.2754	17623.66	3.9310	3.9307	0.9258	26.61	0.67	0.750			
0.2782	17803.24	3.9280	3.9281	0.9234	26.61	0.67	0.750			
0.2809	17979.82	3.9250	3.9251	0.9232	26.61	0.67	0.750			
0.2837	18158.99	3.9220	3.9220	0.9249	26.62	0.68	0.750			
0.2865	18334.20	3.9190	3.9190	0.9161	26.62	0.68	0.750			
0.2892	18508.16	3.9160	3.9161	0.9225	26.62	0.68	0.750			
0.2920	18685.42	3.9130	3.9130	0.9253	26.61	0.67	0.750			
0.2947	18862.48	3.9100	3.9100	0.9342	26.61	0.67	0.750			
0.2975	19043.06	3.9070	3.9070	0.9428	26.60	0.66	0.750			
0.3004	19224.03	3.9040	3.9037	0.9467	26.60	0.66	0.750			
0.3033	19408.06	3.9010	3.9011	0.9521	26.60	0.66	0.750			
0.3061	19592.29	3.8980	3.8980	0.9571	26.60	0.66	0.750			
0.3090	19777.23	3.8950	3.8950	0.9563	26.61	0.67	0.750			
0.3119	19960.54	3.8920	3.8920	0.9542	26.61	0.67	0.750			
0.3148	20144.21	3.8890	3.8890	0.9510	26.61	0.67	0.750			
0.3176	20327.06	3.8860	3.8860	0.9555	26.61	0.67	0.750			
0.3205	20509.61	3.8830	3.8830	0.9600	26.60	0.66	0.750			
0.3233	20691.94	3.8800	3.8800	0.9719	26.60	0.66	0.750			
0.3262	20879.10	3.8770	3.8771	0.9832	26.60	0.66	0.750			
0.3292	21069.96	3.8740	3.8739	0.9821	26.59	0.65	0.750			
0.3322	21259.33	3.8710	3.8711	0.9909	26.59	0.65	0.750			
0.3352	21450.86	3.8680	3.8682	1.0001	26.58	0.64	0.750			
0.3382	21642.36	3.8650	3.8650	1.0070	26.58	0.64	0.750			
0.3412	21836.10	3.8620	3.8621	1.0072	26.57	0.63	0.750			
0.3442	22029.35	3.8590	3.8591	1.0142	26.57	0.63	0.750			
0.3473	22226.01	3.8560	3.8561	1.0296	26.56	0.62	0.750			
0.3504	22427.39	3.8530	3.8529	1.0412	26.56	0.62	0.750			
0.3535	22621.90	3.8500	3.8500	1.0411	26.55	0.61	0.750			
0.3566	22822.52	3.8470	3.8470	1.0581	26.55	0.61	0.750			
0.3598	23027.89	3.8440	3.8441	1.0685	26.54	0.60	0.750			
0.3631	23237.51	3.8410	3.8407	1.0723	26.54	0.60	0.750			
0.3663	23441.41	3.8380	3.8382	1.0887	26.53	0.59	0.750			
0.3695	23650.12	3.8350	3.8351	1.1021	26.53	0.59	0.750			
0.3729	23865.02	3.8320	3.8319	1.1091	26.52	0.58	0.750			
0.3762	24076.60	3.8290	3.8291	1.1101	26.52	0.58	0.750			
0.3796	24292.58	3.8260	3.8262	1.1215	26.51	0.57	0.750			
0.3831	24515.30	3.8230	3.8229	1.1188	26.49	0.55	0.750			
0.3864	24730.51	3.8200	3.8199	1.1014	26.48	0.54	0.750			
0.3897	24937.97	3.8170	3.8172	1.0764	26.48	0.54	0.750			
0.3928	25141.66	3.8140	3.8141	1.0824	26.47	0.53	0.750			
0.3960	25346.78	3.8110	3.8109	1.0933	26.46	0.52	0.750			
0.3992	25551.63	3.8080	3.8079	1.0993	26.45	0.51	0.750			
0.4026	25763.95	3.8050	3.8051	1.1129	26.44	0.50	0.750			
0.4060	25982.19	3.8020	3.8021	1.1456	26.43	0.49	0.750			
0.4094	26204.29	3.7990	3.7991	1.1626	26.41	0.47	0.750			
0.4130	26432.21	3.7960	3.7957	1.1692	26.40	0.46	0.750			
0.4165	26656.31	3.7930	3.7930	1.1690	26.39	0.45	0.750			
0.4200	26881.33	3.7900	3.7901	1.1878	26.38	0.44	0.750			
0.4236	27111.12	3.7870	3.7871	1.2000	26.37	0.43	0.750			
0.4272	27339.95	3.7840	3.7839	1.1969	26.37	0.43	0.750			
0.4308	27568.80	3.7810	3.7812	1.2123	26.36	0.42	0.750			
0.4344	27803.91	3.7780	3.7781	1.2389	26.35	0.41	0.750			
0.4382	28046.70	3.7750	3.7751	1.2567	26.34	0.40	0.750			
0.4420	28288.52	3.7720	3.7720	1.2648	26.32	0.38	0.750			
0.4457	28527.42	3.7690	3.7691	1.3060	26.31	0.37	0.750			
0.4497	28782.12	3.7660	3.7657	1.3446	26.29	0.35	0.750			
0.4539	29046.49	3.7630	3.7628	1.3680	26.28	0.34	0.750	0.318	0.406	
0.4580	29310.77	3.7600	3.7602	1.4104	26.26	0.32	0.750			
0.4623	29588.24	3.7570	3.7571	1.4383	26.25	0.31	0.750			
0.4667	29870.14	3.7540	3.7540	1.4668	26.24	0.30	0.750			
0.4711	30151.25	3.7510	3.7509	1.4848	26.22	0.28	0.750			
0.4756	30436.80	3.7480	3.7479	1.4838	26.21	0.27	0.750			
0.4801	30723.54	3.7450	3.7451	1.5180	26.19	0.25	0.750			
0.4847	31018.07	3.7420	3.7421	1.5369	26.18	0.24	0.750			
0.4892	31311.40	3.7390	3.7390	1.5712	26.16	0.22	0.750			
0.4940	31613.09	3.7360	3.7362	1.6257	26.15	0.21	0.750			
0.4989	31931.96	3.7330	3.7330	1.6675	26.13	0.19	0.750			
0.5040	32256.36	3.7300	3.7301	1.7331	26.12	0.18	0.750			
0.5093	32594.33	3.7270	3.7271	1.8014	26.10	0.16	0.750			
0.5148	32946.49	3.7240	3.7242	1.8433	26.08	0.14	0.750			
0.5204	33303.79	3.7210	3.7209	1.9120	26.07	0.13	0.750			
0.5262	33674.42	3.7180	3.7182	1.9538	26.05	0.11	0.750			
0.5322	34059.69	3.7150	3.7147	2.0075	26.03	0.09	0.750			
0.5382	34447.07	3.7120	3.7119	2.0572	26.01	0.07	0.750			
0.5445	34844.81	3.7090	3.7088	2.1339	25.99	0.05	0.750			
0.5510	35265.76	3.7060	3.7059	2.1782	25.97	0.03	0.750			
0.5576	35686.23	3.7030	3.7029	2.2448	25.95	0.01	0.750			
0.5646	36131.32	3.7000	3.7002	2.3184	25.92	-0.02	0.750			
0.5717	36588.26	3.6970	3.6968	2.3955	25.90	-0.04	0.750			
0.5789	37049.23	3.6940	3.6941	2.4473	25.88	-0.06	0.750			
0.5862	37517.81	3.6910	3.6912	2.5284	25.87	-0.07	0.750			
0.5940	38014.21	3.6880	3.6877	2.5853	25.85	-0.09	0.750			
0.6018	38517.13	3.6850	3.6850	2.6519	25.83	-0.11	0.750			
0.6100	39039.02	3.6820	3.6823	2.7974	25.81	-0.13	0.750			
0.6186	39591.49	3.6790	3.6792	2.8115	25.80	-0.14	0.750			
0.6270	40124.84	3.6760	3.6759	2.8039	25.79	-0.15	0.750			
0.6355	40671.04	3.6730	3.6727	2.9357	25.77	-0.17	0.750			
0.6442	41231.74	3.6700	3.6699	3.0946	25.77	-0.17	0.750			
0.6538	41844.82	3.6670	3.6669	3.2081	25.76	-0.18	0.750			
0.6644	42520.66	3.6640	3.6639	3.1676	25.75	-0.19	0.750			
0.6734	43098.99	3.6610	3.6610	2.8269	25.74	-0.20	0.750			
0.6812	43596.41	3.6580	3.6581	2.4788	25.74	-0.20	0.750			
0.6878	44017.87	3.6550	3.6551	2.1682	25.75	-0.19	0.750			
0.6938	44402.67	3.6520	3.6521	1.9499	25.75	-0.19	0.750			
0.6992	44746.75	3.6490	3.6488	1.7686	25.75	-0.19	0.750			
0.7042	45071.84	3.6460	3.6463	1.6381	25.74	-0.20	0.750			
0.7088	45365.63	3.6430	3.6431	1.5058	25.74	-0.20	0.750			
0.7133	45651.22	3.6400	3.6401	1.4189	25.73	-0.21	0.750			
0.7174	45910.47	3.6370	3.6370	1.3383	25.73	-0.21	0.750			
0.7210	46143.42	3.6340	3.6340	1.2517	25.73	-0.21	0.750			
0.7246	46376.61	3.6310	3.6310	1.2165	25.73	-0.21	0.750			
0.7281	46600.41	3.6280	3.6279	1.1924	25.73	-0.21	0.750			
0.7317	46825.94	3.6250	3.6250	1.1990	25.74	-0.20	0.750			
0.7352	47054.43	3.6220	3.6221	1.2035	25.75	-0.19	0.750			
0.7389	47288.26	3.6190	3.6190	1.2051	25.75	-0.19	0.750			
0.7425	47520.49	3.6160	3.6161	1.2123	25.75	-0.19	0.750			
0.7462	47755.70	3.6130	3.6131	1.2099	25.75	-0.19	0.750			
0.7499	47992.28	3.6100	3.6098	1.1891	25.75	-0.19	0.750			
0.7534	48218.20	3.6070	3.6071	1.1745	25.75	-0.19	0.750			
0.7569	48439.29	3.6040	3.6041	1.1681	25.75	-0.19	0.750			
0.7603	48660.71	3.6010	3.6011	1.1680	25.75	-0.19	0.750			
0.7638	48881.10	3.5980	3.5980	1.1673	25.75	-0.19	0.750			
0.7673	49105.15	3.5950	3.5951	1.1767	25.75	-0.19	0.750			
0.7708	49332.21	3.5920	3.5920	1.2035	25.75	-0.19	0.750			
0.7745	49569.90	3.5890	3.5888	1.2110	25.75	-0.19	0.750			
0.7781	49798.96	3.5860	3.5862	1.2455	25.75	-0.19	0.750			
0.7819	50039.28	3.5830	3.5830	1.2828	25.75	-0.19	0.750			
0.7858	50290.13	3.5800	3.5801	1.3127	25.75	-0.19	0.750			
0.7897	50543.76	3.5770	3.5773	1.3642	25.75	-0.19	0.750			
0.7939	50809.54	3.5740	3.5741	1.4132	25.74	-0.20	0.750			
0.7982	51086.20	3.5710	3.5710	1.4472	25.73	-0.21	0.750			
0.8026	51368.43	3.5680	3.5680	1.4976	25.73	-0.21	0.750			
0.8071	51657.39	3.5650	3.5651	1.5271	25.72	-0.22	0.750			
0.8118	51956.79	3.5620	3.5618	1.5728	25.72	-0.22	0.750			
0.8167	52266.21	3.5590	3.5587	1.5988	25.72	-0.22	0.750			
0.8215	52574.39	3.5560	3.5562	1.6021	25.72	-0.22	0.750			
0.8265	52893.90	3.5530	3.5532	1.6219	25.72	-0.22	0.750			
0.8313	53204.32	3.5500	3.5498	1.6261	25.72	-0.22	0.750			
0.8362	53514.11	3.5470	3.5471	1.6184	25.72	-0.22	0.750			
0.8410	53822.53	3.5440	3.5441	1.6600	25.72	-0.22	0.750			
0.8460	54142.79	3.5410	3.5409	1.6843	25.73	-0.21	0.750			
0.8510	54464.86	3.5380	3.5379	1.7257	25.73	-0.21	0.750			
0.8563	54805.51	3.5350	3.5349	1.7808	25.73	-0.21	0.750			
0.8621	55173.88	3.5320	3.5319	1.7274	25.74	-0.20	0.750			
0.8676	55525.80	3.5290	3.5287	1.6127	25.76	-0.18	0.750			
0.8727	55850.17	3.5260	3.5266	1.3929	25.78	-0.16	0.750			
0.8767	56110.31	3.5230	3.5234	1.1362	25.80	-0.14	0.750			
0.8796	56294.92	3.5200	3.5198	0.8893	25.81	-0.13	0.750			
0.8814	56409.90	3.5170	3.5165	0.6330	25.82	-0.12	0.750			
0.8826	56483.45	3.5140	3.5139	0.4803	25.83	-0.11	0.750			
0.8837	56559.46	3.5110	3.5109	0.4049	25.83	-0.11	0.750			
0.8848	56625.06	3.5080	3.5079	0.3569	25.84	-0.10	0.750			
0.8858	56688.42	3.5050	3.5051	0.3339	25.84	-0.10	0.750			
0.8867	56748.84	3.5020	3.5020	0.3143	25.85	-0.09	0.750			
0.8876	56806.74	3.4990	3.4983	0.3034	25.85	-0.09	0.750			
0.8885	56862.92	3.4960	3.4961	0.2928	25.86	-0.08	0.750			
0.8893	56918.38	3.4930	3.4931	0.2864	25.86	-0.08	0.750			
0.8902	56973.46	3.4900	3.4900	0.2806	25.87	-0.07	0.750			
0.8910	57026.25	3.4870	3.4870	0.2728	25.87	-0.07	0.750			
0.8919	57078.64	3.4840	3.4840	0.2673	25.88	-0.06	0.750			
0.8926	57129.13	3.4810	3.4810	0.2608	25.89	-0.05	0.750			
0.8934	57178.77	3.4780	3.4780	0.2557	25.89	-0.05	0.750			
0.8942	57226.68	3.4750	3.4750	0.2492	25.90	-0.04	0.750			
0.8949	57274.14	3.4720	3.4720	0.2441	25.90	-0.04	0.750			
0.8956	57320.23	3.4690	3.4690	0.2400	25.91	-0.03	0.750			
0.8963	57365.61	3.4660	3.4660	0.2357	25.91	-0.03	0.750			
0.8970	57410.95	3.4630	3.4630	0.2314	25.92	-0.02	0.750			
0.8977	57454.94	3.4600	3.4599	0.2269	25.92	-0.02	0.750			
0.8984	57498.17	3.4570	3.4570	0.2227	25.93	-0.01	0.750			
0.8991	57540.51	3.4540	3.4541	0.2182	25.93	-0.01	0.750			
0.8997	57582.18	3.4510	3.4512	0.2135	25.94	-0.00	0.750			
0.9004	57622.68	3.4480	3.4479	0.2082	25.94	0.00	0.750			
0.9010	57661.97	3.4450	3.4450	0.2028	25.95	0.01	0.750			
0.9016	57700.48	3.4420	3.4420	0.1975	25.95	0.01	0.750			
0.9022	57737.96	3.4390	3.4390	0.1934	25.95	0.01	0.750			
0.9027	57774.10	3.4360	3.4361	0.1883	25.96	0.02	0.750			
0.9033	57809.89	3.4330	3.4329	0.1845	25.96	0.02	0.750			
0.9038	57844.88	3.4300	3.4300	0.1797	25.97	0.03	0.750			
0.9044	57879.10	3.4270	3.4270	0.1756	25.97	0.03	0.750			
0.9049	57912.67	3.4240	3.4240	0.1713	25.97	0.03	0.750			
0.9054	57945.09	3.4210	3.4210	0.1664	25.98	0.04	0.750			
0.9059	57976.84	3.4180	3.4179	0.1611	25.98	0.04	0.750			
0.9064	58007.28	3.4150	3.4150	0.1551	25.98	0.04	0.750			
0.9068	58036.31	3.4120	3.4120	0.1496	25.99	0.05	0.750			
0.9073	58064.51	3.4090	3.4091	0.1442	25.99	0.05	0.750			
0.9077	58091.94	3.4060	3.4060	0.1384	25.99	0.05	0.750			
0.9081	58117.89	3.4030	3.4029	0.1321	26.00	0.06	0.750			
0.9085	58142.75	3.4000	3.4000	0.1263	26.00	0.06	0.750			
0.9089	58166.74	3.3970	3.3970	0.1194	26.00	0.06	0.750			
0.9092	58189.29	3.3940	3.3939	0.1130	26.01	0.07	0.750			
0.9095	58210.65	3.3910	3.3910	0.1061	26.01	0.07	0.750			
0.9099	58230.93	3.3880	3.3880	0.0971	26.01	0.07	0.750			
0.9101	58248.67	3.3850	3.3851	0.0877	26.01	0.07	0.750			
0.9104	58265.23	3.3820	3.3821	0.0795	26.01	0.07	0.750			
0.9106	58279.52	3.3790	3.3791	0.0693	26.02	0.08	0.750			
0.9108	58292.08	3.3760	3.3764	0.0592	26.02	0.08	0.750			
0.9110	58302.43	3.3730	3.3738	0.0487	26.02	0.08	0.750			
0.9111	58310.77	3.3700	3.3712	0.0382	26.02	0.08	0.750			
0.9112	58317.10	3.3670	3.3687	0.0277	26.02	0.08	0.750			
