Ah_balance (normalized)	Ah_balance (mAh)	Voltage - fit (V)	Voltage -  interpolate (V)	dQ/dV (1/V)	Temperature (°C)	Temperature - diff (°C)	Current (C)	R_DC 0ms (mOhm)	R_DC 50ms (mOhm)	R_DC 50 ms PEC (mOhm)
0.0004	24.76	4.1550	4.1546	-0.1115	25.35	0.01	-0.750			
0.0008	50.13	4.1520	4.1519	-0.1509	25.35	0.01	-0.750			
0.0013	83.20	4.1490	4.1490	-0.1887	25.35	0.01	-0.750			
0.0019	123.62	4.1460	4.1459	-0.2234	25.35	0.01	-0.750			
0.0027	170.06	4.1430	4.1431	-0.2573	25.35	0.01	-0.750			
0.0035	223.22	4.1400	4.1400	-0.2933	25.35	0.01	-0.750			
0.0044	283.92	4.1370	4.1370	-0.3214	25.34	0.00	-0.750			
0.0054	348.46	4.1340	4.1340	-0.3505	25.34	0.00	-0.750			
0.0065	418.57	4.1310	4.1311	-0.3777	25.34	0.00	-0.750			
0.0077	494.00	4.1280	4.1281	-0.4043	25.34	-0.00	-0.750			
0.0090	574.30	4.1250	4.1250	-0.4293	25.34	-0.00	-0.750			
0.0103	659.36	4.1220	4.1220	-0.4522	25.34	-0.00	-0.750			
0.0117	748.75	4.1190	4.1191	-0.4726	25.33	-0.01	-0.750			
0.0132	842.78	4.1160	4.1160	-0.4952	25.33	-0.01	-0.750			
0.0147	940.16	4.1130	4.1131	-0.5124	25.33	-0.01	-0.750			
0.0163	1040.83	4.1100	4.1099	-0.5286	25.33	-0.01	-0.750			
0.0179	1144.02	4.1070	4.1070	-0.5435	25.32	-0.02	-0.750			
0.0195	1249.70	4.1040	4.1041	-0.5576	25.32	-0.02	-0.750			
0.0212	1358.18	4.1010	4.1009	-0.5716	25.32	-0.02	-0.750			
0.0230	1469.42	4.0980	4.0980	-0.5825	25.33	-0.01	-0.750			
0.0247	1582.22	4.0950	4.0950	-0.5922	25.33	-0.01	-0.750			
0.0265	1697.31	4.0920	4.0920	-0.6021	25.33	-0.01	-0.750			
0.0284	1815.04	4.0890	4.0890	-0.6111	25.33	-0.01	-0.750			
0.0302	1933.28	4.0860	4.0860	-0.6170	25.34	-0.00	-0.750			
0.0321	2052.30	4.0830	4.0830	-0.6231	25.34	-0.00	-0.750			
0.0339	2172.54	4.0800	4.0800	-0.6287	25.34	0.00	-0.750			
0.0358	2293.58	4.0770	4.0770	-0.6359	25.34	0.00	-0.750			
0.0377	2415.41	4.0740	4.0740	-0.6441	25.34	0.00	-0.750			
0.0397	2540.79	4.0710	4.0709	-0.6475	25.34	0.00	-0.750			
0.0417	2666.35	4.0680	4.0680	-0.6520	25.34	0.00	-0.750			
0.0436	2792.43	4.0650	4.0650	-0.6516	25.34	0.00	-0.750			
0.0456	2917.61	4.0620	4.0620	-0.6554	25.34	0.00	-0.750			
0.0475	3043.00	4.0590	4.0590	-0.6611	25.34	0.00	-0.750			
0.0495	3168.39	4.0560	4.0559	-0.6642	25.35	0.01	-0.750			
0.0515	3296.68	4.0530	4.0529	-0.6691	25.35	0.01	-0.750			
0.0536	3427.86	4.0500	4.0501	-0.6761	25.35	0.01	-0.750			
0.0556	3558.85	4.0470	4.0470	-0.6806	25.36	0.02	-0.750			
0.0577	3690.08	4.0440	4.0440	-0.6828	25.36	0.02	-0.750			
0.0597	3819.61	4.0410	4.0410	-0.6814	25.36	0.02	-0.750			
0.0617	3950.71	4.0380	4.0380	-0.6820	25.37	0.03	-0.750			
0.0638	4081.36	4.0350	4.0350	-0.6859	25.37	0.03	-0.750			
0.0659	4214.62	4.0320	4.0320	-0.6886	25.37	0.03	-0.750			
0.0679	4346.42	4.0290	4.0289	-0.6887	25.38	0.04	-0.750			
0.0700	4478.43	4.0260	4.0261	-0.6912	25.38	0.04	-0.750			
0.0721	4611.24	4.0230	4.0230	-0.6948	25.38	0.04	-0.750			
0.0741	4743.17	4.0200	4.0200	-0.7028	25.39	0.05	-0.750			
0.0762	4879.93	4.0170	4.0170	-0.7091	25.39	0.05	-0.750			
0.0784	5017.33	4.0140	4.0139	-0.7074	25.39	0.05	-0.750			
0.0805	5154.46	4.0110	4.0110	-0.7108	25.40	0.06	-0.750			
0.0827	5290.84	4.0080	4.0082	-0.7105	25.40	0.06	-0.750			
0.0848	5426.44	4.0050	4.0049	-0.7113	25.40	0.06	-0.750			
0.0869	5561.62	4.0020	4.0020	-0.7117	25.41	0.07	-0.750			
0.0890	5698.23	3.9990	3.9989	-0.7143	25.41	0.07	-0.750			
0.0912	5837.34	3.9960	3.9960	-0.7206	25.41	0.07	-0.750			
0.0934	5976.21	3.9930	3.9929	-0.7233	25.42	0.08	-0.750			
0.0955	6115.03	3.9900	3.9901	-0.7241	25.42	0.08	-0.750			
0.0977	6254.63	3.9870	3.9870	-0.7256	25.42	0.08	-0.750			
0.0999	6392.86	3.9840	3.9839	-0.7262	25.43	0.09	-0.750			
0.1021	6532.20	3.9810	3.9811	-0.7251	25.43	0.09	-0.750			
0.1042	6672.00	3.9780	3.9780	-0.7278	25.44	0.10	-0.750			
0.1064	6812.70	3.9750	3.9750	-0.7301	25.44	0.10	-0.750			
0.1086	6952.27	3.9720	3.9719	-0.7316	25.44	0.10	-0.750			
0.1108	7092.83	3.9690	3.9690	-0.7330	25.45	0.11	-0.750			
0.1130	7233.55	3.9660	3.9660	-0.7391	25.45	0.11	-0.750			
0.1152	7375.98	3.9630	3.9630	-0.7419	25.46	0.12	-0.750			
0.1175	7520.29	3.9600	3.9600	-0.7414	25.46	0.12	-0.750			
0.1197	7662.92	3.9570	3.9571	-0.7400	25.47	0.13	-0.750			
0.1219	7804.61	3.9540	3.9540	-0.7410	25.47	0.13	-0.750			
0.1241	7945.41	3.9510	3.9510	-0.7428	25.48	0.14	-0.750			
0.1264	8088.46	3.9480	3.9479	-0.7456	25.48	0.14	-0.750			
0.1286	8230.83	3.9450	3.9450	-0.7479	25.48	0.14	-0.750			
0.1309	8376.31	3.9420	3.9420	-0.7533	25.49	0.15	-0.750			
0.1332	8521.82	3.9390	3.9390	-0.7565	25.49	0.15	-0.750			
0.1354	8667.08	3.9360	3.9360	-0.7594	25.49	0.15	-0.750			
0.1377	8812.52	3.9330	3.9330	-0.7611	25.50	0.16	-0.750			
0.1400	8958.87	3.9300	3.9300	-0.7608	25.50	0.16	-0.750			
0.1423	9106.26	3.9270	3.9270	-0.7616	25.51	0.17	-0.750			
0.1446	9252.25	3.9240	3.9241	-0.7584	25.51	0.17	-0.750			
0.1468	9397.31	3.9210	3.9210	-0.7590	25.51	0.17	-0.750			
0.1491	9541.14	3.9180	3.9180	-0.7633	25.51	0.17	-0.750			
0.1514	9688.07	3.9150	3.9150	-0.7669	25.52	0.18	-0.750			
0.1537	9835.88	3.9120	3.9120	-0.7669	25.52	0.18	-0.750			
0.1560	9984.98	3.9090	3.9089	-0.7743	25.52	0.18	-0.750			
0.1583	10133.88	3.9060	3.9062	-0.7766	25.52	0.18	-0.750			
0.1607	10283.78	3.9030	3.9029	-0.7788	25.53	0.19	-0.750			
0.1630	10432.71	3.9000	3.9000	-0.7787	25.53	0.19	-0.750			
0.1653	10581.62	3.8970	3.8970	-0.7731	25.53	0.19	-0.750			
0.1677	10730.70	3.8940	3.8941	-0.7779	25.54	0.20	-0.750			
0.1700	10881.70	3.8910	3.8910	-0.7805	25.54	0.20	-0.750			
0.1723	11030.27	3.8880	3.8879	-0.7763	25.54	0.20	-0.750			
0.1747	11179.19	3.8850	3.8849	-0.7762	25.55	0.21	-0.750			
0.1770	11328.63	3.8820	3.8821	-0.7755	25.55	0.21	-0.750			
0.1793	11477.78	3.8790	3.8789	-0.7774	25.56	0.22	-0.750			
0.1817	11627.49	3.8760	3.8760	-0.7786	25.56	0.22	-0.750			
0.1840	11774.79	3.8730	3.8730	-0.7769	25.56	0.22	-0.750			
0.1863	11924.56	3.8700	3.8700	-0.7817	25.57	0.23	-0.750			
0.1887	12076.32	3.8670	3.8669	-0.7831	25.57	0.23	-0.750			
0.1910	12227.08	3.8640	3.8640	-0.7818	25.57	0.23	-0.750			
0.1934	12378.18	3.8610	3.8610	-0.7823	25.58	0.24	-0.750			
0.1957	12527.49	3.8580	3.8581	-0.7792	25.58	0.24	-0.750			
0.1981	12676.55	3.8550	3.8550	-0.7797	25.59	0.25	-0.750			
0.2004	12826.09	3.8520	3.8520	-0.7777	25.59	0.25	-0.750			
0.2027	12975.22	3.8490	3.8490	-0.7786	25.59	0.25	-0.750			
0.2051	13125.77	3.8460	3.8460	-0.7776	25.60	0.26	-0.750			
0.2074	13276.33	3.8430	3.8431	-0.7753	25.60	0.26	-0.750			
0.2098	13424.22	3.8400	3.8400	-0.7713	25.60	0.26	-0.750			
0.2121	13571.30	3.8370	3.8370	-0.7693	25.61	0.27	-0.750			
0.2143	13718.30	3.8340	3.8340	-0.7673	25.61	0.27	-0.750			
0.2167	13866.28	3.8310	3.8309	-0.7649	25.61	0.27	-0.750			
0.2190	14012.88	3.8280	3.8280	-0.7594	25.62	0.28	-0.750			
0.2212	14159.07	3.8250	3.8250	-0.7600	25.62	0.28	-0.750			
0.2235	14303.24	3.8220	3.8220	-0.7596	25.62	0.28	-0.750			
0.2258	14448.43	3.8190	3.8190	-0.7538	25.62	0.28	-0.750			
0.2280	14593.47	3.8160	3.8159	-0.7511	25.62	0.28	-0.750			
0.2303	14738.95	3.8130	3.8130	-0.7485	25.62	0.28	-0.750			
0.2325	14882.80	3.8100	3.8103	-0.7434	25.62	0.28	-0.750			
0.2348	15025.11	3.8070	3.8071	-0.7390	25.62	0.28	-0.750			
0.2370	15164.86	3.8040	3.8040	-0.7324	25.63	0.29	-0.750			
0.2391	15304.40	3.8010	3.8009	-0.7284	25.63	0.29	-0.750			
0.2413	15444.54	3.7980	3.7980	-0.7261	25.63	0.29	-0.750			
0.2435	15583.16	3.7950	3.7950	-0.7228	25.64	0.30	-0.750			
0.2457	15723.07	3.7920	3.7920	-0.7211	25.64	0.30	-0.750			
0.2478	15860.63	3.7890	3.7890	-0.7174	25.64	0.30	-0.750			
0.2499	15996.28	3.7860	3.7860	-0.7149	25.65	0.31	-0.750			
0.2521	16133.79	3.7830	3.7830	-0.7101	25.65	0.31	-0.750			
0.2542	16270.00	3.7800	3.7799	-0.7095	25.66	0.32	-0.750			
0.2564	16407.23	3.7770	3.7770	-0.7053	25.66	0.32	-0.750			
0.2585	16540.85	3.7740	3.7740	-0.7048	25.66	0.32	-0.750			
0.2606	16675.81	3.7710	3.7710	-0.7067	25.67	0.33	-0.750			
0.2627	16811.01	3.7680	3.7679	-0.7101	25.67	0.33	-0.750			
0.2648	16947.03	3.7650	3.7650	-0.7118	25.67	0.33	-0.750			
0.2670	17085.28	3.7620	3.7620	-0.7185	25.68	0.34	-0.750			
0.2691	17223.89	3.7590	3.7590	-0.7221	25.68	0.34	-0.750			
0.2713	17363.72	3.7560	3.7559	-0.7256	25.68	0.34	-0.750			
0.2735	17501.22	3.7530	3.7530	-0.7257	25.69	0.35	-0.750			
0.2756	17641.18	3.7500	3.7500	-0.7356	25.69	0.35	-0.750			
0.2779	17782.99	3.7470	3.7470	-0.7400	25.69	0.35	-0.750			
0.2801	17926.45	3.7440	3.7439	-0.7496	25.70	0.36	-0.750			
0.2823	18070.02	3.7410	3.7412	-0.7581	25.70	0.36	-0.750			
0.2846	18216.98	3.7380	3.7380	-0.7675	25.70	0.36	-0.750			
0.2869	18364.79	3.7350	3.7349	-0.7813	25.71	0.37	-0.750			
0.2893	18514.98	3.7320	3.7320	-0.7899	25.71	0.37	-0.750			
0.2917	18669.41	3.7290	3.7290	-0.8023	25.72	0.38	-0.750			
0.2941	18824.48	3.7260	3.7261	-0.8120	25.72	0.38	-0.750			
0.2966	18980.01	3.7230	3.7230	-0.8264	25.72	0.38	-0.750			
0.2991	19139.75	3.7200	3.7199	-0.8421	25.72	0.38	-0.750			
0.3016	19301.41	3.7170	3.7170	-0.8586	25.72	0.38	-0.750			
0.3042	19468.57	3.7140	3.7140	-0.8696	25.72	0.38	-0.750			
0.3069	19639.30	3.7110	3.7111	-0.8905	25.72	0.38	-0.750			
0.3096	19811.90	3.7080	3.7080	-0.9049	25.72	0.38	-0.750			
0.3123	19986.53	3.7050	3.7050	-0.9160	25.72	0.38	-0.750			
0.3150	20163.09	3.7020	3.7020	-0.9259	25.72	0.38	-0.750			
0.3178	20341.59	3.6990	3.6990	-0.9393	25.72	0.38	-0.750			
0.3207	20523.59	3.6960	3.6960	-0.9541	25.72	0.38	-0.750			
0.3236	20709.12	3.6930	3.6930	-0.9713	25.72	0.38	-0.750			
0.3265	20894.86	3.6900	3.6900	-0.9859	25.72	0.38	-0.750			
0.3295	21085.98	3.6870	3.6870	-1.0053	25.72	0.38	-0.750			
0.3325	21280.43	3.6840	3.6841	-1.0246	25.72	0.38	-0.750			
0.3356	21479.44	3.6810	3.6810	-1.0431	25.71	0.37	-0.750			
0.3388	21681.31	3.6780	3.6781	-1.0624	25.71	0.37	-0.750			
0.3420	21887.78	3.6750	3.6750	-1.0785	25.70	0.36	-0.750			
0.3453	22098.23	3.6720	3.6720	-1.0925	25.70	0.36	-0.750			
0.3485	22306.74	3.6690	3.6690	-1.1102	25.70	0.36	-0.750			
0.3519	22520.20	3.6660	3.6661	-1.1303	25.70	0.36	-0.750			
0.3553	22738.68	3.6630	3.6629	-1.1540	25.70	0.36	-0.750			
0.3588	22961.89	3.6600	3.6600	-1.1769	25.70	0.36	-0.750			
0.3624	23191.65	3.6570	3.6570	-1.1932	25.69	0.35	-0.750			
0.3660	23424.56	3.6540	3.6540	-1.2203	25.69	0.35	-0.750			
0.3697	23660.13	3.6510	3.6511	-1.2434	25.68	0.34	-0.750			
0.3734	23899.99	3.6480	3.6479	-1.2610	25.68	0.34	-0.750			
0.3772	24143.73	3.6450	3.6449	-1.2804	25.67	0.33	-0.750			
0.3811	24391.58	3.6420	3.6421	-1.3045	25.67	0.33	-0.750			
0.3851	24646.19	3.6390	3.6390	-1.3259	25.67	0.33	-0.750			
0.3891	24902.81	3.6360	3.6360	-1.3482	25.66	0.32	-0.750			
0.3931	25160.14	3.6330	3.6330	-1.3645	25.65	0.31	-0.750			
0.3973	25424.17	3.6300	3.6300	-1.3898	25.65	0.31	-0.750			
0.4015	25695.63	3.6270	3.6270	-1.4186	25.64	0.30	-0.750			
0.4058	25970.42	3.6240	3.6239	-1.4491	25.64	0.30	-0.750			
0.4102	26250.52	3.6210	3.6210	-1.4857	25.64	0.30	-0.750			
0.4147	26542.46	3.6180	3.6179	-1.5093	25.63	0.29	-0.750			
0.4193	26836.36	3.6150	3.6150	-1.5302	25.62	0.28	-0.750			
0.4239	27129.52	3.6120	3.6119	-1.5594	25.62	0.28	-0.750	0.394	0.566	
0.4286	27433.47	3.6090	3.6090	-1.5900	25.61	0.27	-0.750			
0.4334	27737.61	3.6060	3.6060	-1.6255	25.61	0.27	-0.750			
0.4383	28049.93	3.6030	3.6030	-1.6516	25.61	0.27	-0.750			
0.4433	28370.88	3.6000	3.6000	-1.6758	25.60	0.26	-0.750			
0.4485	28705.17	3.5970	3.5970	-1.7077	25.59	0.25	-0.750			
0.4537	29035.20	3.5940	3.5938	-1.7442	25.59	0.25	-0.750			
0.4588	29364.83	3.5910	3.5910	-1.7800	25.58	0.24	-0.750			
0.4642	29710.55	3.5880	3.5880	-1.8228	25.57	0.23	-0.750			
0.4697	30063.97	3.5850	3.5852	-1.8642	25.56	0.22	-0.750			
0.4755	30432.28	3.5820	3.5821	-1.9040	25.55	0.21	-0.750			
0.4814	30807.60	3.5790	3.5791	-1.9392	25.54	0.20	-0.750			
0.4872	31183.12	3.5760	3.5759	-1.9682	25.53	0.19	-0.750			
0.4931	31560.68	3.5730	3.5730	-1.9910	25.52	0.18	-0.750			
0.4991	31943.77	3.5700	3.5700	-2.0067	25.52	0.18	-0.750			
0.5052	32334.12	3.5670	3.5670	-2.0193	25.52	0.18	-0.750			
0.5113	32723.65	3.5640	3.5641	-2.0388	25.51	0.17	-0.750			
0.5175	33120.20	3.5610	3.5609	-2.0412	25.50	0.16	-0.750			
0.5236	33511.09	3.5580	3.5581	-2.0478	25.50	0.16	-0.750			
0.5297	33900.92	3.5550	3.5550	-2.0572	25.50	0.16	-0.750			
0.5359	34297.44	3.5520	3.5519	-2.0630	25.50	0.16	-0.750			
0.5421	34694.61	3.5490	3.5490	-2.0628	25.50	0.16	-0.750			
0.5484	35096.30	3.5460	3.5460	-2.0719	25.49	0.15	-0.750			
0.5546	35492.48	3.5430	3.5430	-2.0393	25.48	0.14	-0.750			
0.5607	35886.33	3.5400	3.5401	-2.0326	25.48	0.14	-0.750			
0.5667	36270.54	3.5370	3.5369	-2.0159	25.48	0.14	-0.750			
0.5727	36655.78	3.5340	3.5338	-1.9823	25.48	0.14	-0.750			
0.5787	37038.06	3.5310	3.5310	-1.9671	25.48	0.14	-0.750			
0.5846	37414.33	3.5280	3.5281	-1.9511	25.48	0.14	-0.750			
0.5905	37789.13	3.5250	3.5249	-1.9166	25.49	0.15	-0.750			
0.5962	38157.85	3.5220	3.5221	-1.8868	25.50	0.16	-0.750			
0.6018	38516.88	3.5190	3.5189	-1.8555	25.50	0.16	-0.750			
0.6073	38868.75	3.5160	3.5163	-1.8249	25.50	0.16	-0.750			
0.6128	39218.58	3.5130	3.5131	-1.7914	25.51	0.17	-0.750			
0.6180	39554.90	3.5100	3.5100	-1.7375	25.52	0.18	-0.750			
0.6232	39884.18	3.5070	3.5069	-1.6934	25.53	0.19	-0.750			
0.6283	40210.69	3.5040	3.5039	-1.6670	25.53	0.19	-0.750			
0.6332	40525.95	3.5010	3.5010	-1.6067	25.54	0.20	-0.750			
0.6379	40827.85	3.4980	3.4977	-1.5548	25.55	0.21	-0.750			
0.6425	41120.38	3.4950	3.4951	-1.5087	25.56	0.22	-0.750			
0.6470	41407.71	3.4920	3.4919	-1.4665	25.57	0.23	-0.750			
0.6513	41684.66	3.4890	3.4889	-1.4215	25.58	0.24	-0.750			
0.6554	41945.55	3.4860	3.4860	-1.3690	25.59	0.25	-0.750			
0.6595	42208.02	3.4830	3.4830	-1.3338	25.61	0.27	-0.750			
0.6635	42464.79	3.4800	3.4800	-1.3017	25.62	0.28	-0.750			
0.6673	42708.68	3.4770	3.4769	-1.2583	25.63	0.29	-0.750			
0.6710	42945.79	3.4740	3.4741	-1.2207	25.64	0.30	-0.750			
0.6747	43179.03	3.4710	3.4709	-1.1839	25.66	0.32	-0.750			
0.6782	43402.06	3.4680	3.4679	-1.1450	25.67	0.33	-0.750			
0.6815	43615.94	3.4650	3.4651	-1.1019	25.68	0.34	-0.750			
0.6848	43826.05	3.4620	3.4619	-1.0721	25.69	0.35	-0.750			
0.6879	44027.91	3.4590	3.4589	-1.0372	25.70	0.36	-0.750			
0.6910	44223.04	3.4560	3.4560	-1.0030	25.71	0.37	-0.750			
0.6939	44410.69	3.4530	3.4530	-0.9697	25.73	0.39	-0.750			
0.6968	44594.97	3.4500	3.4500	-0.9476	25.74	0.40	-0.750			
0.6996	44773.80	3.4470	3.4470	-0.9177	25.75	0.41	-0.750			
0.7023	44945.58	3.4440	3.4439	-0.8940	25.77	0.43	-0.750			
0.7049	45114.36	3.4410	3.4410	-0.8749	25.78	0.44	-0.750			
0.7075	45278.68	3.4380	3.4381	-0.8607	25.79	0.45	-0.750			
0.7100	45442.56	3.4350	3.4349	-0.8520	25.80	0.46	-0.750			
0.7126	45604.38	3.4320	3.4320	-0.8501	25.80	0.46	-0.750			
0.7151	45767.44	3.4290	3.4290	-0.8456	25.81	0.47	-0.750			
0.7177	45930.46	3.4260	3.4259	-0.8473	25.81	0.47	-0.750			
0.7202	46092.04	3.4230	3.4231	-0.8464	25.82	0.48	-0.750			
0.7227	46253.17	3.4200	3.4200	-0.8500	25.83	0.49	-0.750			
0.7253	46417.09	3.4170	3.4170	-0.8561	25.84	0.50	-0.750			
0.7278	46582.05	3.4140	3.4139	-0.8598	25.85	0.51	-0.750			
0.7305	46749.05	3.4110	3.4110	-0.8646	25.85	0.51	-0.750			
0.7331	46916.30	3.4080	3.4081	-0.8659	25.86	0.52	-0.750			
0.7357	47082.74	3.4050	3.4049	-0.8669	25.87	0.53	-0.750			
0.7383	47250.53	3.4020	3.4019	-0.8575	25.87	0.53	-0.750			
0.7408	47413.46	3.3990	3.3990	-0.8465	25.88	0.54	-0.750			
0.7434	47577.56	3.3960	3.3960	-0.8358	25.89	0.55	-0.750			
0.7459	47738.11	3.3930	3.3930	-0.8183	25.89	0.55	-0.750			
0.7483	47892.62	3.3900	3.3900	-0.7998	25.90	0.56	-0.750			
0.7507	48044.27	3.3870	3.3870	-0.7758	25.91	0.57	-0.750			
0.7530	48190.32	3.3840	3.3840	-0.7529	25.92	0.58	-0.750			
0.7552	48334.67	3.3810	3.3810	-0.7353	25.92	0.58	-0.750			
0.7574	48472.79	3.3780	3.3782	-0.7121	25.93	0.59	-0.750			
0.7595	48607.73	3.3750	3.3750	-0.6919	25.93	0.59	-0.750			
0.7615	48738.75	3.3720	3.3720	-0.6721	25.94	0.60	-0.750			
0.7635	48864.96	3.3690	3.3690	-0.6515	25.94	0.60	-0.750			
0.7655	48989.51	3.3660	3.3660	-0.6326	25.94	0.60	-0.750			
0.7673	49108.02	3.3630	3.3630	-0.6114	25.95	0.61	-0.750			
0.7691	49223.40	3.3600	3.3600	-0.5922	25.95	0.61	-0.750			
0.7709	49335.08	3.3570	3.3570	-0.5733	25.95	0.61	-0.750			
0.7725	49442.67	3.3540	3.3540	-0.5545	25.96	0.62	-0.750			
0.7742	49547.10	3.3510	3.3510	-0.5373	25.96	0.62	-0.750			
0.7758	49648.50	3.3480	3.3480	-0.5223	25.97	0.63	-0.750			
0.7773	49747.61	3.3450	3.3449	-0.5083	25.97	0.63	-0.750			
0.7788	49843.53	3.3420	3.3420	-0.4911	25.98	0.64	-0.750			
0.7803	49936.99	3.3390	3.3390	-0.4743	25.98	0.64	-0.750			
0.7817	50026.14	3.3360	3.3360	-0.4619	25.99	0.65	-0.750			
0.7830	50113.58	3.3330	3.3330	-0.4471	25.99	0.65	-0.750			
0.7843	50196.86	3.3300	3.3299	-0.4361	26.00	0.66	-0.750			
0.7856	50278.97	3.3270	3.3270	-0.4257	26.00	0.66	-0.750			
0.7869	50359.81	3.3240	3.3240	-0.4162	26.00	0.66	-0.750			
0.7881	50439.39	3.3210	3.3211	-0.4072	26.01	0.67	-0.750			
0.7893	50517.33	3.3180	3.3180	-0.3983	26.01	0.67	-0.750			
0.7905	50591.98	3.3150	3.3150	-0.3876	26.02	0.68	-0.750			
0.7917	50665.80	3.3120	3.3120	-0.3786	26.02	0.68	-0.750			
0.7928	50737.10	3.3090	3.3091	-0.3661	26.02	0.68	-0.750			
0.7938	50806.39	3.3060	3.3060	-0.3580	26.03	0.69	-0.750			
0.7949	50874.04	3.3030	3.3031	-0.3497	26.03	0.69	-0.750			
0.7959	50940.37	3.3000	3.2999	-0.3405	26.04	0.70	-0.750			
0.7969	51004.44	3.2970	3.2970	-0.3337	26.04	0.70	-0.750			
0.7979	51067.45	3.2940	3.2941	-0.3271	26.05	0.71	-0.750			
0.7989	51130.07	3.2910	3.2910	-0.3216	26.06	0.72	-0.750			
0.7999	51191.47	3.2880	3.2880	-0.3161	26.06	0.72	-0.750			
0.8008	51251.24	3.2850	3.2850	-0.3077	26.07	0.73	-0.750			
0.8017	51310.05	3.2820	3.2820	-0.3019	26.07	0.73	-0.750			
0.8026	51367.49	3.2790	3.2790	-0.2962	26.08	0.74	-0.750			
0.8035	51423.32	3.2760	3.2760	-0.2888	26.09	0.75	-0.750			
0.8043	51477.82	3.2730	3.2730	-0.2838	26.09	0.75	-0.750			
0.8052	51531.88	3.2700	3.2700	-0.2798	26.10	0.76	-0.750			
0.8060	51584.87	3.2670	3.2670	-0.2753	26.10	0.76	-0.750			
0.8068	51637.67	3.2640	3.2640	-0.2719	26.11	0.77	-0.750			
0.8076	51689.53	3.2610	3.2610	-0.2674	26.11	0.77	-0.750			
0.8084	51740.54	3.2580	3.2580	-0.2629	26.12	0.78	-0.750			
0.8092	51790.70	3.2550	3.2550	-0.2587	26.12	0.78	-0.750			
0.8100	51839.63	3.2520	3.2520	-0.2532	26.13	0.79	-0.750			
0.8107	51887.82	3.2490	3.2490	-0.2489	26.13	0.79	-0.750			
0.8115	51934.97	3.2460	3.2460	-0.2448	26.14	0.80	-0.750			
0.8122	51981.55	3.2430	3.2431	-0.2407	26.14	0.80	-0.750			
0.8129	52027.40	3.2400	3.2399	-0.2371	26.15	0.81	-0.750			
0.8136	52072.55	3.2370	3.2370	-0.2338	26.15	0.81	-0.750			
0.8143	52116.89	3.2340	3.2341	-0.2309	26.16	0.82	-0.750			
0.8150	52160.91	3.2310	3.2310	-0.2280	26.16	0.82	-0.750			
0.8157	52204.43	3.2280	3.2280	-0.2254	26.16	0.82	-0.750			
0.8164	52247.32	3.2250	3.2250	-0.2231	26.17	0.83	-0.750			
0.8170	52289.86	3.2220	3.2220	-0.2204	26.17	0.83	-0.750			
0.8177	52332.25	3.2190	3.2190	-0.2183	26.18	0.84	-0.750			
0.8183	52374.07	3.2160	3.2159	-0.2149	26.18	0.84	-0.750			
0.8190	52415.16	3.2130	3.2130	-0.2117	26.19	0.85	-0.750			
0.8196	52455.37	3.2100	3.2099	-0.2086	26.19	0.85	-0.750			
0.8202	52495.08	3.2070	3.2070	-0.2057	26.19	0.85	-0.750			
0.8208	52534.17	3.2040	3.2039	-0.2030	26.20	0.86	-0.750			
0.8214	52572.57	3.2010	3.2010	-0.2000	26.21	0.87	-0.750			
0.8220	52610.64	3.1980	3.1981	-0.1978	26.21	0.87	-0.750			
0.8226	52648.43	3.1950	3.1950	-0.1957	26.22	0.88	-0.750			
0.8232	52685.94	3.1920	3.1921	-0.1940	26.22	0.88	-0.750			
0.8238	52722.96	3.1890	3.1889	-0.1917	26.23	0.89	-0.750			
0.8244	52759.41	3.1860	3.1860	-0.1898	26.24	0.90	-0.750			
0.8249	52795.73	3.1830	3.1830	-0.1878	26.24	0.90	-0.750			
0.8255	52831.61	3.1800	3.1800	-0.1858	26.25	0.91	-0.750			
0.8260	52867.10	3.1770	3.1770	-0.1839	26.25	0.91	-0.750			
0.8266	52902.12	3.1740	3.1740	-0.1824	26.26	0.92	-0.750			
0.8271	52937.07	3.1710	3.1710	-0.1805	26.26	0.92	-0.750			
0.8277	52971.81	3.1680	3.1680	-0.1781	26.27	0.93	-0.750			
0.8282	53005.75	3.1650	3.1649	-0.1755	26.27	0.93	-0.750			
0.8287	53039.16	3.1620	3.1621	-0.1736	26.28	0.94	-0.750			
0.8293	53072.17	3.1590	3.1591	-0.1722	26.29	0.95	-0.750			
0.8298	53104.88	3.1560	3.1558	-0.1703	26.29	0.95	-0.750			
0.8303	53137.46	3.1530	3.1530	-0.1691	26.29	0.95	-0.750			
0.8308	53169.63	3.1500	3.1500	-0.1669	26.30	0.96	-0.750			
0.8313	53201.76	3.1470	3.1470	-0.1658	26.30	0.96	-0.750			
0.8318	53233.71	3.1440	3.1439	-0.1646	26.31	0.97	-0.750			
0.8323	53265.11	3.1410	3.1412	-0.1624	26.31	0.97	-0.750			
0.8327	53295.94	3.1380	3.1379	-0.1603	26.32	0.98	-0.750			
0.8332	53326.40	3.1350	3.1350	-0.1582	26.32	0.98	-0.750			
0.8337	53356.37	3.1320	3.1320	-0.1569	26.33	0.99	-0.750			
0.8342	53386.41	3.1290	3.1291	-0.1559	26.33	0.99	-0.750			
0.8346	53416.25	3.1260	3.1260	-0.1548	26.34	1.00	-0.750			
0.8351	53445.75	3.1230	3.1229	-0.1533	26.34	1.00	-0.750			
0.8355	53475.14	3.1200	3.1200	-0.1525	26.35	1.01	-0.750			
0.8360	53504.33	3.1170	3.1171	-0.1515	26.35	1.01	-0.750			
0.8365	53533.46	3.1140	3.1140	-0.1503	26.36	1.02	-0.750			
0.8369	53562.25	3.1110	3.1110	-0.1490	26.36	1.02	-0.750			
0.8374	53590.48	3.1080	3.1080	-0.1474	26.37	1.03	-0.750			
0.8378	53618.69	3.1050	3.1051	-0.1464	26.37	1.03	-0.750			
0.8382	53646.75	3.1020	3.1020	-0.1455	26.38	1.04	-0.750			
0.8387	53674.68	3.0990	3.0990	-0.1441	26.38	1.04	-0.750			
0.8391	53702.13	3.0960	3.0960	-0.1428	26.39	1.05	-0.750			
0.8395	53729.45	3.0930	3.0930	-0.1417	26.39	1.05	-0.750			
0.8399	53756.68	3.0900	3.0900	-0.1405	26.40	1.06	-0.750			
0.8404	53783.42	3.0870	3.0870	-0.1394	26.40	1.06	-0.750			
0.8408	53809.93	3.0840	3.0840	-0.1380	26.41	1.07	-0.750			
0.8412	53836.32	3.0810	3.0811	-0.1373	26.41	1.07	-0.750			
0.8416	53862.61	3.0780	3.0780	-0.1363	26.42	1.08	-0.750			
0.8420	53888.88	3.0750	3.0749	-0.1356	26.42	1.08	-0.750			
0.8424	53914.80	3.0720	3.0721	-0.1344	26.43	1.09	-0.750			
0.8428	53940.44	3.0690	3.0690	-0.1335	26.43	1.09	-0.750			
0.8432	53966.15	3.0660	3.0660	-0.1324	26.44	1.10	-0.750			
0.8436	53991.25	3.0630	3.0630	-0.1312	26.44	1.10	-0.750			
0.8440	54016.36	3.0600	3.0600	-0.1304	26.45	1.11	-0.750			
0.8444	54041.22	3.0570	3.0570	-0.1295	26.46	1.12	-0.750			
0.8448	54066.09	3.0540	3.0539	-0.1286	26.46	1.12	-0.750			
0.8452	54090.73	3.0510	3.0510	-0.1278	26.47	1.13	-0.750			
0.8455	54115.16	3.0480	3.0480	-0.1269	26.47	1.13	-0.750			
0.8459	54139.42	3.0450	3.0451	-0.1259	26.48	1.14	-0.750			
0.8463	54163.55	3.0420	3.0420	-0.1253	26.48	1.14	-0.750			
0.8467	54187.38	3.0390	3.0390	-0.1240	26.49	1.15	-0.750			
0.8470	54211.12	3.0360	3.0360	-0.1233	26.49	1.15	-0.750			
0.8474	54234.67	3.0330	3.0330	-0.1227	26.50	1.16	-0.750			
0.8478	54258.17	3.0300	3.0300	-0.1221	26.50	1.16	-0.750			
0.8482	54281.64	3.0270	3.0271	-0.1214	26.51	1.17	-0.750			
0.8485	54304.87	3.0240	3.0239	-0.1206	26.51	1.17	-0.750			
0.8489	54328.09	3.0210	3.0210	-0.1195	26.52	1.18	-0.750			
0.8492	54350.93	3.0180	3.0179	-0.1184	26.52	1.18	-0.750			
0.8496	54373.78	3.0150	3.0150	-0.1169	26.52	1.18	-0.750			
0.8499	54396.06	3.0120	3.0121	-0.1152	26.53	1.19	-0.750			
0.8503	54418.12	3.0090	3.0090	-0.1133	26.53	1.19	-0.750			
0.8506	54439.68	3.0060	3.0060	-0.1113	26.54	1.20	-0.751			
0.8510	54460.83	3.0030	3.0030	-0.1087	26.54	1.20	-0.751			
