Ah_balance (normalized)	Ah_balance (mAh)	Voltage - fit (V)	Voltage -  interpolate (V)	dQ/dV (1/V)	Temperature (°C)	Temperature - diff (°C)	Current (C)	R_DC 0ms (mOhm)	R_DC 50ms (mOhm)	R_DC 50 ms PEC (mOhm)
0.0001	6.83	4.1640	4.1637	-0.0915	25.98	0.03	-0.750			
0.0004	28.67	4.1610	4.1608	-0.1353	25.98	0.03	-0.750			
0.0009	58.89	4.1580	4.1579	-0.1771	25.98	0.03	-0.750			
0.0015	97.04	4.1550	4.1551	-0.2185	25.98	0.03	-0.750			
0.0022	143.12	4.1520	4.1520	-0.2587	25.98	0.03	-0.750			
0.0031	197.48	4.1490	4.1489	-0.2971	25.98	0.03	-0.750			
0.0040	258.34	4.1460	4.1461	-0.3317	25.97	0.02	-0.750			
0.0051	326.20	4.1430	4.1430	-0.3637	25.97	0.02	-0.750			
0.0062	399.75	4.1400	4.1400	-0.3990	25.96	0.01	-0.750			
0.0075	480.08	4.1370	4.1370	-0.4290	25.96	0.01	-0.750			
0.0088	565.28	4.1340	4.1339	-0.4544	25.96	0.01	-0.750			
0.0102	655.99	4.1310	4.1309	-0.4818	25.95	0.00	-0.750			
0.0118	752.01	4.1280	4.1280	-0.5027	25.95	-0.00	-0.750			
0.0133	851.50	4.1250	4.1250	-0.5257	25.94	-0.01	-0.750			
0.0149	954.08	4.1220	4.1220	-0.5443	25.94	-0.01	-0.750			
0.0166	1059.42	4.1190	4.1190	-0.5603	25.93	-0.02	-0.750			
0.0183	1169.97	4.1160	4.1159	-0.5809	25.93	-0.02	-0.750			
0.0201	1284.23	4.1130	4.1130	-0.5938	25.92	-0.03	-0.750			
0.0219	1400.69	4.1100	4.1101	-0.6059	25.91	-0.04	-0.750			
0.0237	1518.64	4.1070	4.1071	-0.6166	25.91	-0.04	-0.750			
0.0256	1638.11	4.1040	4.1041	-0.6214	25.91	-0.04	-0.750			
0.0275	1757.86	4.1010	4.1009	-0.6296	25.91	-0.04	-0.750			
0.0293	1878.15	4.0980	4.0980	-0.6393	25.91	-0.04	-0.750			
0.0313	2001.52	4.0950	4.0950	-0.6478	25.91	-0.04	-0.750			
0.0333	2128.10	4.0920	4.0919	-0.6544	25.91	-0.04	-0.750			
0.0352	2255.72	4.0890	4.0890	-0.6609	25.91	-0.04	-0.750			
0.0372	2382.67	4.0860	4.0860	-0.6637	25.91	-0.04	-0.750			
0.0392	2510.98	4.0830	4.0830	-0.6687	25.90	-0.05	-0.750			
0.0412	2637.60	4.0800	4.0801	-0.6754	25.90	-0.05	-0.750			
0.0432	2767.30	4.0770	4.0769	-0.6758	25.90	-0.05	-0.750			
0.0453	2899.40	4.0740	4.0741	-0.6836	25.89	-0.06	-0.750			
0.0474	3032.06	4.0710	4.0709	-0.6866	25.89	-0.06	-0.750			
0.0495	3164.97	4.0680	4.0681	-0.6890	25.89	-0.06	-0.750			
0.0515	3296.17	4.0650	4.0649	-0.6947	25.89	-0.06	-0.750			
0.0536	3427.24	4.0620	4.0620	-0.6972	25.89	-0.06	-0.750			
0.0557	3561.80	4.0590	4.0590	-0.7003	25.89	-0.06	-0.750			
0.0578	3698.86	4.0560	4.0560	-0.7053	25.89	-0.06	-0.750			
0.0599	3836.50	4.0530	4.0530	-0.7045	25.89	-0.06	-0.750			
0.0621	3971.62	4.0500	4.0501	-0.7052	25.89	-0.06	-0.750			
0.0642	4106.35	4.0470	4.0470	-0.7060	25.89	-0.06	-0.750			
0.0663	4240.27	4.0440	4.0440	-0.7101	25.89	-0.06	-0.750			
0.0684	4376.60	4.0410	4.0409	-0.7123	25.89	-0.06	-0.750			
0.0705	4515.16	4.0380	4.0380	-0.7145	25.89	-0.06	-0.750			
0.0727	4654.23	4.0350	4.0351	-0.7173	25.89	-0.06	-0.750			
0.0749	4790.97	4.0320	4.0320	-0.7217	25.89	-0.06	-0.750			
0.0770	4929.08	4.0290	4.0289	-0.7203	25.89	-0.06	-0.750			
0.0792	5067.57	4.0260	4.0259	-0.7271	25.89	-0.06	-0.750			
0.0814	5207.78	4.0230	4.0230	-0.7253	25.89	-0.06	-0.750			
0.0836	5349.84	4.0200	4.0201	-0.7323	25.89	-0.06	-0.750			
0.0858	5490.58	4.0170	4.0172	-0.7307	25.89	-0.06	-0.750			
0.0880	5630.80	4.0140	4.0140	-0.7282	25.89	-0.06	-0.750			
0.0901	5768.61	4.0110	4.0109	-0.7267	25.89	-0.06	-0.750			
0.0923	5906.62	4.0080	4.0080	-0.7342	25.90	-0.05	-0.750			
0.0945	6048.93	4.0050	4.0050	-0.7382	25.90	-0.05	-0.750			
0.0968	6192.02	4.0020	4.0019	-0.7383	25.90	-0.05	-0.750			
0.0990	6334.28	3.9990	3.9992	-0.7420	25.90	-0.05	-0.750			
0.1012	6477.13	3.9960	3.9959	-0.7450	25.90	-0.05	-0.750			
0.1034	6620.37	3.9930	3.9929	-0.7478	25.90	-0.05	-0.750			
0.1057	6762.68	3.9900	3.9899	-0.7492	25.91	-0.04	-0.750			
0.1079	6908.47	3.9870	3.9870	-0.7501	25.91	-0.04	-0.750			
0.1102	7053.50	3.9840	3.9840	-0.7513	25.91	-0.04	-0.750			
0.1125	7198.13	3.9810	3.9809	-0.7542	25.91	-0.04	-0.750			
0.1147	7341.65	3.9780	3.9780	-0.7513	25.92	-0.03	-0.750			
0.1170	7485.45	3.9750	3.9749	-0.7571	25.92	-0.03	-0.750			
0.1192	7631.59	3.9720	3.9720	-0.7602	25.92	-0.03	-0.750			
0.1216	7779.78	3.9690	3.9689	-0.7621	25.93	-0.02	-0.750			
0.1239	7927.01	3.9660	3.9663	-0.7649	25.93	-0.02	-0.750			
0.1261	8073.21	3.9630	3.9630	-0.7650	25.93	-0.02	-0.750			
0.1284	8218.29	3.9600	3.9600	-0.7687	25.93	-0.02	-0.750			
0.1307	8363.55	3.9570	3.9571	-0.7662	25.93	-0.02	-0.750			
0.1331	8515.24	3.9540	3.9540	-0.7789	25.93	-0.02	-0.750			
0.1354	8665.39	3.9510	3.9509	-0.7826	25.93	-0.02	-0.750			
0.1378	8817.33	3.9480	3.9481	-0.7830	25.93	-0.02	-0.750			
0.1401	8967.38	3.9450	3.9450	-0.7815	25.94	-0.01	-0.750			
0.1425	9116.90	3.9420	3.9420	-0.7825	25.94	-0.01	-0.750			
0.1448	9266.22	3.9390	3.9390	-0.7821	25.94	-0.01	-0.750			
0.1471	9417.21	3.9360	3.9359	-0.7855	25.95	-0.00	-0.750			
0.1495	9567.96	3.9330	3.9330	-0.7874	25.95	0.00	-0.750			
0.1518	9717.84	3.9300	3.9301	-0.7936	25.96	0.01	-0.750			
0.1543	9872.17	3.9270	3.9270	-0.7966	25.96	0.01	-0.750			
0.1567	10026.05	3.9240	3.9239	-0.7949	25.96	0.01	-0.750			
0.1590	10178.91	3.9210	3.9209	-0.7927	25.97	0.02	-0.750			
0.1614	10331.10	3.9180	3.9182	-0.7945	25.97	0.02	-0.750			
0.1638	10483.98	3.9150	3.9149	-0.7918	25.97	0.02	-0.750			
0.1662	10634.14	3.9120	3.9120	-0.7949	25.97	0.02	-0.750			
0.1685	10785.32	3.9090	3.9091	-0.7918	25.98	0.03	-0.750			
0.1710	10941.16	3.9060	3.9059	-0.8005	25.98	0.03	-0.750			
0.1734	11094.88	3.9030	3.9029	-0.8028	25.98	0.03	-0.750			
0.1758	11249.75	3.9000	3.9000	-0.8039	25.98	0.03	-0.750			
0.1782	11403.31	3.8970	3.8971	-0.8090	25.98	0.03	-0.750			
0.1806	11559.97	3.8940	3.8940	-0.8106	25.99	0.04	-0.750			
0.1831	11715.88	3.8910	3.8909	-0.8075	25.99	0.04	-0.750			
0.1855	11871.55	3.8880	3.8881	-0.8082	25.99	0.04	-0.750			
0.1879	12026.23	3.8850	3.8850	-0.8118	25.99	0.04	-0.750			
0.1903	12180.75	3.8820	3.8820	-0.8152	26.00	0.05	-0.750			
0.1928	12337.91	3.8790	3.8789	-0.8170	26.00	0.05	-0.750			
0.1952	12495.10	3.8760	3.8760	-0.8167	26.00	0.05	-0.750			
0.1977	12655.29	3.8730	3.8731	-0.8210	26.01	0.06	-0.750			
0.2002	12812.81	3.8700	3.8699	-0.8188	26.01	0.06	-0.750			
0.2026	12968.58	3.8670	3.8670	-0.8173	26.01	0.06	-0.750			
0.2051	13124.24	3.8640	3.8640	-0.8146	26.02	0.07	-0.750			
0.2075	13279.09	3.8610	3.8610	-0.8143	26.02	0.07	-0.750			
0.2100	13437.81	3.8580	3.8580	-0.8191	26.02	0.07	-0.750			
0.2124	13595.11	3.8550	3.8549	-0.8200	26.02	0.07	-0.750			
0.2149	13752.66	3.8520	3.8520	-0.8258	26.02	0.07	-0.750			
0.2174	13912.49	3.8490	3.8490	-0.8214	26.03	0.08	-0.750			
0.2198	14069.55	3.8460	3.8460	-0.8185	26.03	0.08	-0.750			
0.2223	14227.04	3.8430	3.8429	-0.8228	26.03	0.08	-0.750			
0.2248	14384.22	3.8400	3.8399	-0.8228	26.03	0.08	-0.750			
0.2272	14541.61	3.8370	3.8369	-0.8252	26.04	0.09	-0.750			
0.2297	14701.02	3.8340	3.8340	-0.8212	26.04	0.09	-0.750			
0.2322	14858.42	3.8310	3.8311	-0.8168	26.04	0.09	-0.750			
0.2346	15016.94	3.8280	3.8279	-0.8204	26.05	0.10	-0.750			
0.2371	15173.72	3.8250	3.8250	-0.8157	26.05	0.10	-0.750			
0.2395	15328.40	3.8220	3.8220	-0.8178	26.05	0.10	-0.750			
0.2420	15485.96	3.8190	3.8190	-0.8147	26.05	0.10	-0.750			
0.2444	15642.75	3.8160	3.8160	-0.8112	26.06	0.11	-0.750			
0.2469	15800.10	3.8130	3.8131	-0.8147	26.06	0.11	-0.750			
0.2493	15956.85	3.8100	3.8100	-0.8106	26.06	0.11	-0.750			
0.2517	16109.84	3.8070	3.8069	-0.8112	26.06	0.11	-0.750			
0.2541	16265.04	3.8040	3.8040	-0.8078	26.06	0.11	-0.750			
0.2566	16420.16	3.8010	3.8010	-0.8037	26.07	0.12	-0.750			
0.2590	16575.64	3.7980	3.7979	-0.8041	26.07	0.12	-0.750			
0.2614	16729.98	3.7950	3.7952	-0.8024	26.07	0.12	-0.750			
0.2638	16882.94	3.7920	3.7919	-0.7965	26.07	0.12	-0.750			
0.2662	17036.12	3.7890	3.7890	-0.7969	26.08	0.13	-0.750			
0.2686	17188.33	3.7860	3.7860	-0.7915	26.08	0.13	-0.750			
0.2710	17341.35	3.7830	3.7830	-0.7921	26.09	0.14	-0.750			
0.2733	17493.31	3.7800	3.7801	-0.7851	26.09	0.14	-0.750			
0.2757	17642.87	3.7770	3.7770	-0.7804	26.09	0.14	-0.750			
0.2780	17791.86	3.7740	3.7740	-0.7767	26.10	0.15	-0.750			
0.2803	17939.92	3.7710	3.7710	-0.7748	26.10	0.15	-0.750			
0.2826	18088.55	3.7680	3.7679	-0.7734	26.10	0.15	-0.750			
0.2849	18236.75	3.7650	3.7650	-0.7722	26.11	0.16	-0.750			
0.2873	18384.41	3.7620	3.7620	-0.7712	26.11	0.16	-0.750			
0.2896	18533.05	3.7590	3.7590	-0.7724	26.12	0.17	-0.750			
0.2919	18680.77	3.7560	3.7559	-0.7720	26.12	0.17	-0.750			
0.2942	18828.43	3.7530	3.7530	-0.7705	26.12	0.17	-0.750			
0.2965	18976.16	3.7500	3.7500	-0.7725	26.13	0.18	-0.750			
0.2988	19124.22	3.7470	3.7471	-0.7792	26.13	0.18	-0.750			
0.3012	19273.89	3.7440	3.7439	-0.7840	26.13	0.18	-0.750			
0.3035	19424.26	3.7410	3.7410	-0.7944	26.13	0.18	-0.750			
0.3059	19578.73	3.7380	3.7380	-0.8012	26.13	0.18	-0.750			
0.3084	19734.45	3.7350	3.7350	-0.8079	26.13	0.18	-0.750			
0.3108	19889.95	3.7320	3.7322	-0.8185	26.13	0.18	-0.750			
0.3132	20047.72	3.7290	3.7290	-0.8222	26.13	0.18	-0.750			
0.3157	20205.12	3.7260	3.7259	-0.8306	26.14	0.19	-0.750			
0.3182	20363.61	3.7230	3.7230	-0.8420	26.14	0.19	-0.750			
0.3207	20526.51	3.7200	3.7201	-0.8574	26.15	0.20	-0.750			
0.3233	20692.22	3.7170	3.7170	-0.8713	26.15	0.20	-0.750			
0.3259	20860.54	3.7140	3.7140	-0.8885	26.15	0.20	-0.750			
0.3286	21032.18	3.7110	3.7109	-0.9035	26.14	0.19	-0.750			
0.3314	21208.43	3.7080	3.7080	-0.9215	26.14	0.19	-0.750			
0.3342	21386.95	3.7050	3.7050	-0.9363	26.13	0.18	-0.750			
0.3370	21567.83	3.7020	3.7021	-0.9539	26.13	0.18	-0.750			
0.3399	21754.04	3.6990	3.6990	-0.9758	26.13	0.18	-0.750			
0.3429	21943.42	3.6960	3.6959	-0.9894	26.13	0.18	-0.750			
0.3458	22134.02	3.6930	3.6930	-1.0059	26.13	0.18	-0.750			
0.3489	22329.03	3.6900	3.6902	-1.0268	26.13	0.18	-0.750			
0.3520	22528.49	3.6870	3.6869	-1.0466	26.12	0.17	-0.750			
0.3552	22729.63	3.6840	3.6840	-1.0698	26.12	0.17	-0.750			
0.3583	22933.88	3.6810	3.6811	-1.0924	26.11	0.16	-0.750			
0.3617	23150.39	3.6780	3.6781	-1.1223	26.11	0.16	-0.750			
0.3651	23368.12	3.6750	3.6749	-1.1429	26.10	0.15	-0.750			
0.3686	23589.82	3.6720	3.6721	-1.1632	26.10	0.15	-0.750			
0.3721	23814.09	3.6690	3.6689	-1.1908	26.09	0.14	-0.750			
0.3757	24045.55	3.6660	3.6659	-1.2112	26.09	0.14	-0.750			
0.3794	24279.73	3.6630	3.6630	-1.2321	26.08	0.13	-0.750			
0.3831	24515.95	3.6600	3.6599	-1.2612	26.07	0.12	-0.750			
0.3869	24761.06	3.6570	3.6572	-1.2848	26.07	0.12	-0.750			
0.3908	25011.56	3.6540	3.6540	-1.3159	26.06	0.11	-0.750			
0.3948	25266.67	3.6510	3.6510	-1.3436	26.06	0.11	-0.750			
0.3988	25526.38	3.6480	3.6481	-1.3700	26.05	0.10	-0.750			
0.4030	25795.07	3.6450	3.6449	-1.4023	26.04	0.09	-0.750			
0.4073	26066.06	3.6420	3.6420	-1.4290	26.04	0.09	-0.750			
0.4116	26343.56	3.6390	3.6390	-1.4619	26.03	0.08	-0.750			
0.4161	26632.47	3.6360	3.6359	-1.4844	26.02	0.07	-0.750			
0.4206	26916.53	3.6330	3.6330	-1.5157	26.01	0.06	-0.750			
0.4251	27206.94	3.6300	3.6301	-1.5552	26.00	0.05	-0.750			
0.4299	27510.57	3.6270	3.6269	-1.5866	25.99	0.04	-0.750			
0.4347	27820.27	3.6240	3.6240	-1.6066	25.99	0.04	-0.750			
0.4395	28131.11	3.6210	3.6210	-1.6238	25.98	0.03	-0.750			
0.4445	28447.76	3.6180	3.6182	-1.6688	25.98	0.03	-0.750	0.378	0.508	
0.4495	28770.78	3.6150	3.6149	-1.7065	25.97	0.02	-0.750			
0.4546	29094.88	3.6120	3.6120	-1.7367	25.96	0.01	-0.750			
0.4598	29428.03	3.6090	3.6092	-1.7738	25.95	0.00	-0.750			
0.4653	29782.04	3.6060	3.6059	-1.8153	25.94	-0.01	-0.750			
0.4709	30137.00	3.6030	3.6030	-1.8536	25.93	-0.02	-0.750			
0.4764	30492.27	3.6000	3.6000	-1.8906	25.93	-0.02	-0.750			
0.4821	30855.51	3.5970	3.5970	-1.9118	25.93	-0.02	-0.750			
0.4881	31235.32	3.5940	3.5939	-1.9123	25.93	-0.02	-0.750			
0.4939	31606.86	3.5910	3.5910	-1.9271	25.92	-0.03	-0.750			
0.4995	31969.86	3.5880	3.5882	-1.9641	25.91	-0.04	-0.750			
0.5055	32348.88	3.5850	3.5850	-2.0018	25.90	-0.05	-0.750			
0.5114	32730.67	3.5820	3.5821	-2.0430	25.89	-0.06	-0.750			
0.5176	33127.60	3.5790	3.5790	-2.0728	25.89	-0.06	-0.750			
0.5240	33533.20	3.5760	3.5760	-2.1369	25.89	-0.06	-0.750			
0.5307	33961.69	3.5730	3.5730	-2.1692	25.88	-0.07	-0.750			
0.5372	34378.08	3.5700	3.5700	-2.1873	25.87	-0.08	-0.750			
0.5436	34793.45	3.5670	3.5669	-2.1965	25.87	-0.08	-0.750			
0.5503	35218.09	3.5640	3.5638	-2.2236	25.87	-0.08	-0.750			
0.5570	35649.83	3.5610	3.5611	-2.2494	25.87	-0.08	-0.750			
0.5638	36084.92	3.5580	3.5582	-2.2607	25.87	-0.08	-0.750			
0.5707	36522.54	3.5550	3.5550	-2.2577	25.87	-0.08	-0.750			
0.5775	36958.38	3.5520	3.5521	-2.2532	25.87	-0.08	-0.750			
0.5843	37395.30	3.5490	3.5489	-2.2305	25.87	-0.08	-0.750			
0.5910	37827.18	3.5460	3.5460	-2.2088	25.87	-0.08	-0.750			
0.5975	38240.58	3.5430	3.5430	-2.1818	25.87	-0.08	-0.750			
0.6040	38656.06	3.5400	3.5397	-2.1716	25.87	-0.08	-0.750			
0.6105	39072.95	3.5370	3.5369	-2.1375	25.87	-0.08	-0.750			
0.6170	39487.96	3.5340	3.5340	-2.1104	25.87	-0.08	-0.750			
0.6233	39893.21	3.5310	3.5311	-2.0858	25.88	-0.07	-0.750			
0.6296	40292.91	3.5280	3.5282	-2.0384	25.88	-0.07	-0.750			
0.6357	40684.82	3.5250	3.5252	-2.0048	25.89	-0.06	-0.750			
0.6415	41057.17	3.5220	3.5221	-1.9430	25.89	-0.06	-0.750			
0.6473	41426.36	3.5190	3.5190	-1.8998	25.90	-0.05	-0.750			
0.6530	41792.98	3.5160	3.5159	-1.8635	25.91	-0.04	-0.750			
0.6585	42143.53	3.5130	3.5129	-1.7928	25.92	-0.03	-0.750			
0.6639	42486.50	3.5100	3.5102	-1.7454	25.94	-0.01	-0.750			
0.6689	42811.69	3.5070	3.5070	-1.7070	25.95	-0.00	-0.750			
0.6740	43137.64	3.5040	3.5041	-1.6441	25.96	0.01	-0.750			
0.6789	43449.27	3.5010	3.5011	-1.5832	25.97	0.02	-0.750			
0.6836	43749.30	3.4980	3.4981	-1.5435	25.98	0.03	-0.750			
0.6881	44039.55	3.4950	3.4950	-1.4854	26.00	0.05	-0.750			
0.6925	44320.83	3.4920	3.4918	-1.4334	26.01	0.06	-0.750			
0.6966	44583.88	3.4890	3.4890	-1.3907	26.02	0.07	-0.750			
0.7007	44847.54	3.4860	3.4859	-1.3389	26.04	0.09	-0.750			
0.7048	45104.33	3.4830	3.4829	-1.3061	26.05	0.10	-0.750			
0.7086	45350.07	3.4800	3.4799	-1.2610	26.06	0.11	-0.750			
0.7123	45584.58	3.4770	3.4771	-1.2175	26.08	0.13	-0.750			
0.7159	45817.86	3.4740	3.4738	-1.1869	26.09	0.14	-0.750			
0.7194	46041.49	3.4710	3.4709	-1.1420	26.11	0.16	-0.750			
0.7227	46254.83	3.4680	3.4681	-1.0977	26.13	0.18	-0.750			
0.7260	46465.80	3.4650	3.4650	-1.0741	26.14	0.19	-0.750			
0.7292	46666.01	3.4620	3.4620	-1.0332	26.15	0.20	-0.750			
0.7322	46861.08	3.4590	3.4589	-1.0018	26.17	0.22	-0.750			
0.7351	47047.70	3.4560	3.4559	-0.9673	26.18	0.23	-0.750			
0.7380	47229.74	3.4530	3.4530	-0.9497	26.19	0.24	-0.750			
0.7408	47411.17	3.4500	3.4500	-0.9279	26.20	0.25	-0.750			
0.7435	47586.88	3.4470	3.4469	-0.9031	26.21	0.26	-0.750			
0.7462	47756.53	3.4440	3.4439	-0.8852	26.22	0.27	-0.750			
0.7488	47923.21	3.4410	3.4412	-0.8784	26.23	0.28	-0.750			
0.7514	48090.61	3.4380	3.4380	-0.8725	26.24	0.29	-0.750			
0.7540	48255.32	3.4350	3.4349	-0.8795	26.25	0.30	-0.750			
0.7566	48423.19	3.4320	3.4318	-0.8876	26.26	0.31	-0.750			
0.7593	48594.82	3.4290	3.4291	-0.9082	26.27	0.32	-0.750			
0.7620	48769.89	3.4260	3.4260	-0.9312	26.27	0.32	-0.750			
0.7648	48950.33	3.4230	3.4230	-0.9568	26.28	0.33	-0.750			
0.7678	49140.62	3.4200	3.4199	-0.9654	26.29	0.34	-0.750			
0.7707	49327.79	3.4170	3.4169	-0.9739	26.30	0.35	-0.750			
0.7737	49519.79	3.4140	3.4142	-0.9789	26.31	0.36	-0.750			
0.7767	49709.72	3.4110	3.4110	-0.9789	26.32	0.37	-0.750			
0.7796	49896.66	3.4080	3.4078	-0.9641	26.33	0.38	-0.750			
0.7825	50079.91	3.4050	3.4050	-0.9413	26.34	0.39	-0.750			
0.7853	50261.60	3.4020	3.4021	-0.9268	26.35	0.40	-0.750			
0.7881	50439.15	3.3990	3.3990	-0.9029	26.36	0.41	-0.750			
0.7908	50610.45	3.3960	3.3960	-0.8785	26.36	0.41	-0.750			
0.7934	50777.35	3.3930	3.3929	-0.8479	26.37	0.42	-0.750			
0.7959	50936.04	3.3900	3.3900	-0.8155	26.37	0.42	-0.750			
0.7983	51091.99	3.3870	3.3874	-0.7866	26.38	0.43	-0.750			
0.8006	51239.60	3.3840	3.3839	-0.7559	26.39	0.44	-0.750			
0.8028	51380.08	3.3810	3.3811	-0.7259	26.39	0.44	-0.750			
0.8049	51515.00	3.3780	3.3779	-0.7011	26.40	0.45	-0.750			
0.8070	51647.78	3.3750	3.3750	-0.6775	26.41	0.46	-0.750			
0.8090	51775.11	3.3720	3.3720	-0.6539	26.41	0.46	-0.750			
0.8109	51898.43	3.3690	3.3692	-0.6308	26.42	0.47	-0.750			
0.8128	52018.22	3.3660	3.3659	-0.6075	26.43	0.48	-0.750			
0.8145	52130.64	3.3630	3.3630	-0.5841	26.43	0.48	-0.750			
0.8163	52240.72	3.3600	3.3601	-0.5634	26.44	0.49	-0.750			
0.8179	52345.68	3.3570	3.3570	-0.5429	26.45	0.50	-0.750			
0.8195	52449.20	3.3540	3.3539	-0.5257	26.45	0.50	-0.750			
0.8210	52546.95	3.3510	3.3511	-0.5045	26.46	0.51	-0.750			
0.8225	52642.46	3.3480	3.3480	-0.4870	26.47	0.52	-0.750			
0.8240	52734.35	3.3450	3.3450	-0.4704	26.47	0.52	-0.750			
0.8253	52822.38	3.3420	3.3420	-0.4511	26.48	0.53	-0.750			
0.8267	52907.04	3.3390	3.3390	-0.4355	26.49	0.54	-0.750			
0.8279	52988.74	3.3360	3.3360	-0.4203	26.49	0.54	-0.750			
0.8292	53068.01	3.3330	3.3330	-0.4075	26.50	0.55	-0.750			
0.8304	53144.88	3.3300	3.3300	-0.3937	26.50	0.55	-0.750			
0.8315	53218.82	3.3270	3.3270	-0.3825	26.51	0.56	-0.750			
0.8327	53290.74	3.3240	3.3240	-0.3703	26.51	0.56	-0.750			
0.8338	53361.19	3.3210	3.3210	-0.3595	26.52	0.57	-0.750			
0.8348	53428.59	3.3180	3.3179	-0.3472	26.53	0.58	-0.750			
0.8358	53494.04	3.3150	3.3154	-0.3377	26.53	0.58	-0.750			
0.8368	53557.61	3.3120	3.3119	-0.3279	26.54	0.59	-0.750			
0.8378	53620.18	3.3090	3.3090	-0.3182	26.54	0.59	-0.750			
0.8388	53680.17	3.3060	3.3060	-0.3091	26.55	0.60	-0.750			
0.8397	53738.47	3.3030	3.3030	-0.3011	26.55	0.60	-0.750			
0.8406	53795.45	3.3000	3.3000	-0.2932	26.56	0.61	-0.750			
0.8414	53850.36	3.2970	3.2969	-0.2853	26.56	0.61	-0.750			
0.8423	53904.24	3.2940	3.2941	-0.2782	26.57	0.62	-0.750			
0.8431	53956.80	3.2910	3.2909	-0.2722	26.57	0.62	-0.750			
0.8439	54008.95	3.2880	3.2880	-0.2664	26.58	0.63	-0.750			
0.8447	54059.32	3.2850	3.2850	-0.2593	26.58	0.63	-0.750			
0.8454	54108.53	3.2820	3.2820	-0.2538	26.58	0.63	-0.750			
0.8462	54156.88	3.2790	3.2791	-0.2489	26.59	0.64	-0.750			
0.8469	54204.15	3.2760	3.2760	-0.2436	26.59	0.64	-0.750			
0.8477	54250.26	3.2730	3.2730	-0.2390	26.60	0.65	-0.750			
0.8484	54295.86	3.2700	3.2702	-0.2334	26.60	0.65	-0.750			
0.8491	54339.67	3.2670	3.2670	-0.2291	26.61	0.66	-0.750			
0.8497	54383.60	3.2640	3.2639	-0.2256	26.61	0.66	-0.750			
0.8504	54425.70	3.2610	3.2611	-0.2215	26.62	0.67	-0.750			
0.8511	54467.82	3.2580	3.2578	-0.2176	26.62	0.67	-0.750			
0.8517	54509.73	3.2550	3.2550	-0.2158	26.63	0.68	-0.750			
0.8524	54550.89	3.2520	3.2520	-0.2125	26.63	0.68	-0.750			
0.8530	54591.50	3.2490	3.2491	-0.2084	26.64	0.69	-0.750			
0.8536	54631.64	3.2460	3.2460	-0.2059	26.64	0.69	-0.750			
0.8542	54670.71	3.2430	3.2430	-0.2011	26.65	0.70	-0.750			
0.8548	54708.27	3.2400	3.2401	-0.1981	26.65	0.70	-0.750			
0.8554	54745.68	3.2370	3.2370	-0.1954	26.66	0.71	-0.750			
0.8560	54783.30	3.2340	3.2339	-0.1925	26.66	0.71	-0.750			
0.8566	54819.98	3.2310	3.2310	-0.1896	26.67	0.72	-0.750			
0.8571	54855.95	3.2280	3.2281	-0.1878	26.67	0.72	-0.750			
0.8577	54891.95	3.2250	3.2250	-0.1860	26.68	0.73	-0.750			
0.8582	54927.53	3.2220	3.2219	-0.1832	26.68	0.73	-0.750			
0.8588	54962.44	3.2190	3.2189	-0.1805	26.68	0.73	-0.750			
0.8593	54996.64	3.2160	3.2160	-0.1780	26.69	0.74	-0.750			
0.8598	55030.39	3.2130	3.2131	-0.1766	26.69	0.74	-0.750			
0.8604	55064.58	3.2100	3.2098	-0.1750	26.70	0.75	-0.750			
0.8609	55097.94	3.2070	3.2071	-0.1724	26.70	0.75	-0.750			
0.8614	55130.42	3.2040	3.2040	-0.1701	26.71	0.76	-0.750			
0.8619	55162.80	3.2010	3.2012	-0.1689	26.71	0.76	-0.750			
0.8624	55195.31	3.1980	3.1980	-0.1677	26.72	0.77	-0.750			
0.8629	55227.34	3.1950	3.1949	-0.1659	26.72	0.77	-0.750			
0.8634	55259.01	3.1920	3.1919	-0.1636	26.73	0.78	-0.750			
0.8639	55290.03	3.1890	3.1891	-0.1616	26.73	0.78	-0.750			
0.8644	55321.37	3.1860	3.1859	-0.1606	26.74	0.79	-0.750			
0.8649	55351.95	3.1830	3.1831	-0.1579	26.74	0.79	-0.750			
0.8653	55381.81	3.1800	3.1800	-0.1561	26.75	0.80	-0.750			
0.8658	55411.19	3.1770	3.1770	-0.1544	26.75	0.80	-0.750			
0.8663	55440.67	3.1740	3.1739	-0.1534	26.76	0.81	-0.750			
0.8667	55470.18	3.1710	3.1711	-0.1518	26.76	0.81	-0.750			
0.8672	55499.32	3.1680	3.1680	-0.1505	26.77	0.82	-0.750			
0.8676	55528.03	3.1650	3.1651	-0.1489	26.77	0.82	-0.750			
0.8681	55556.76	3.1620	3.1620	-0.1479	26.78	0.83	-0.750			
0.8685	55584.79	3.1590	3.1589	-0.1468	26.78	0.83	-0.750			
0.8689	55612.71	3.1560	3.1560	-0.1450	26.78	0.83	-0.750			
0.8694	55640.26	3.1530	3.1530	-0.1436	26.79	0.84	-0.750			
0.8698	55667.68	3.1500	3.1500	-0.1434	26.79	0.84	-0.750			
0.8702	55695.31	3.1470	3.1470	-0.1426	26.80	0.85	-0.750			
0.8707	55722.78	3.1440	3.1438	-0.1412	26.80	0.85	-0.750			
0.8711	55749.89	3.1410	3.1410	-0.1400	26.81	0.86	-0.750			
0.8715	55776.55	3.1380	3.1381	-0.1387	26.81	0.86	-0.750			
0.8719	55803.11	3.1350	3.1350	-0.1370	26.82	0.87	-0.750			
0.8723	55829.50	3.1320	3.1320	-0.1357	26.83	0.88	-0.750			
0.8727	55855.31	3.1290	3.1289	-0.1338	26.83	0.88	-0.750			
0.8731	55880.33	3.1260	3.1260	-0.1327	26.84	0.89	-0.750			
0.8735	55905.66	3.1230	3.1230	-0.1318	26.84	0.89	-0.750			
0.8739	55930.89	3.1200	3.1200	-0.1312	26.85	0.90	-0.750			
0.8743	55955.95	3.1170	3.1168	-0.1309	26.85	0.90	-0.750			
0.8747	55980.78	3.1140	3.1142	-0.1302	26.86	0.91	-0.750			
0.8751	56006.35	3.1110	3.1110	-0.1294	26.86	0.91	-0.750			
0.8755	56031.06	3.1080	3.1081	-0.1279	26.87	0.92	-0.750			
0.8759	56055.71	3.1050	3.1050	-0.1270	26.87	0.92	-0.750			
0.8762	56079.47	3.1020	3.1021	-0.1260	26.88	0.93	-0.750			
0.8766	56103.60	3.0990	3.0990	-0.1253	26.88	0.93	-0.750			
0.8770	56127.58	3.0960	3.0959	-0.1244	26.89	0.94	-0.750			
0.8774	56151.39	3.0930	3.0929	-0.1237	26.90	0.95	-0.750			
0.8777	56174.96	3.0900	3.0902	-0.1221	26.90	0.95	-0.750			
0.8781	56198.96	3.0870	3.0870	-0.1222	26.91	0.96	-0.750			
0.8785	56221.98	3.0840	3.0839	-0.1211	26.91	0.96	-0.750			
0.8788	56245.01	3.0810	3.0811	-0.1197	26.92	0.97	-0.750			
0.8792	56267.52	3.0780	3.0780	-0.1185	26.92	0.97	-0.750			
0.8795	56290.25	3.0750	3.0749	-0.1183	26.92	0.97	-0.750			
0.8799	56312.95	3.0720	3.0719	-0.1178	26.93	0.98	-0.750			
0.8802	56335.53	3.0690	3.0691	-0.1175	26.93	0.98	-0.750			
0.8806	56358.15	3.0660	3.0660	-0.1166	26.94	0.99	-0.750			
0.8809	56380.71	3.0630	3.0629	-0.1161	26.94	0.99	-0.750			
0.8813	56402.88	3.0600	3.0600	-0.1152	26.95	1.00	-0.750			
0.8816	56424.92	3.0570	3.0570	-0.1143	26.95	1.00	-0.750			
0.8820	56446.83	3.0540	3.0540	-0.1133	26.96	1.01	-0.750			
0.8823	56468.49	3.0510	3.0510	-0.1123	26.96	1.01	-0.750			
0.8827	56489.86	3.0480	3.0480	-0.1119	26.97	1.02	-0.750			
0.8830	56511.12	3.0450	3.0451	-0.1110	26.97	1.02	-0.750			
0.8833	56532.40	3.0420	3.0420	-0.1105	26.98	1.03	-0.750			
0.8836	56553.55	3.0390	3.0389	-0.1099	26.98	1.03	-0.750			
0.8840	56574.55	3.0360	3.0360	-0.1097	26.98	1.03	-0.750			
0.8843	56595.46	3.0330	3.0330	-0.1092	26.99	1.04	-0.750			
0.8846	56616.55	3.0300	3.0300	-0.1084	26.99	1.04	-0.750			
0.8850	56637.53	3.0270	3.0269	-0.1081	27.00	1.05	-0.750			
0.8853	56658.32	3.0240	3.0239	-0.1068	27.00	1.05	-0.750			
0.8856	56678.84	3.0210	3.0211	-0.1058	27.01	1.06	-0.750			
0.8859	56698.97	3.0180	3.0181	-0.1047	27.01	1.06	-0.750			
0.8862	56719.08	3.0150	3.0150	-0.1036	27.02	1.07	-0.750			
0.8865	56738.84	3.0120	3.0121	-0.1022	27.02	1.07	-0.750			
0.8868	56758.08	3.0090	3.0090	-0.1012	27.02	1.07	-0.751			
0.8871	56777.44	3.0060	3.0059	-0.1004	27.03	1.08	-0.751			
0.8874	56796.68	3.0030	3.0031	-0.1009	27.03	1.08	-0.751			
