Ah_balance (normalized)	Ah_balance (mAh)	Voltage - fit (V)	Voltage -  interpolate (V)	dQ/dV (1/V)	Temperature (°C)	Temperature - diff (°C)	Current (C)	R_DC 0ms (mOhm)	R_DC 50ms (mOhm)	R_DC 50 ms PEC (mOhm)
0.0509	3256.48	4.1970	4.1970	0.7759	26.17	0.20	0.750			
0.0532	3405.94	4.1940	4.1940	0.7770	26.17	0.20	0.750			
0.0555	3554.60	4.1910	4.1909	0.7750	26.17	0.20	0.750			
0.0579	3703.28	4.1880	4.1881	0.7735	26.17	0.20	0.750			
0.0602	3851.60	4.1850	4.1850	0.7713	26.17	0.20	0.750			
0.0625	3999.79	4.1820	4.1820	0.7722	26.17	0.20	0.750			
0.0648	4147.61	4.1790	4.1790	0.7760	26.17	0.20	0.750			
0.0671	4295.89	4.1760	4.1759	0.7752	26.17	0.20	0.750			
0.0694	4444.39	4.1730	4.1730	0.7795	26.17	0.20	0.750			
0.0718	4595.32	4.1700	4.1700	0.7803	26.17	0.20	0.750			
0.0742	4746.00	4.1670	4.1669	0.7807	26.17	0.20	0.750			
0.0765	4896.31	4.1640	4.1640	0.7821	26.17	0.20	0.750			
0.0788	5045.52	4.1610	4.1611	0.7833	26.17	0.20	0.750			
0.0812	5194.86	4.1580	4.1580	0.7839	26.17	0.20	0.750			
0.0835	5346.12	4.1550	4.1550	0.7909	26.17	0.20	0.750			
0.0859	5497.40	4.1520	4.1520	0.7881	26.17	0.20	0.750			
0.0883	5650.03	4.1490	4.1490	0.7902	26.17	0.20	0.750			
0.0907	5802.98	4.1460	4.1461	0.7914	26.17	0.20	0.750			
0.0930	5953.90	4.1430	4.1430	0.7924	26.17	0.20	0.750			
0.0954	6105.99	4.1400	4.1400	0.7936	26.17	0.20	0.750			
0.0978	6258.86	4.1370	4.1370	0.7889	26.17	0.20	0.750			
0.1002	6409.94	4.1340	4.1340	0.7897	26.17	0.20	0.750			
0.1025	6560.39	4.1310	4.1311	0.7943	26.17	0.20	0.750			
0.1049	6713.78	4.1280	4.1278	0.7989	26.17	0.20	0.750			
0.1073	6866.68	4.1250	4.1251	0.8025	26.17	0.20	0.750			
0.1097	7022.70	4.1220	4.1220	0.8001	26.17	0.20	0.750			
0.1122	7177.78	4.1190	4.1191	0.8106	26.17	0.20	0.750			
0.1146	7334.74	4.1160	4.1160	0.8138	26.17	0.20	0.750			
0.1170	7489.19	4.1130	4.1129	0.8078	26.17	0.20	0.750			
0.1194	7643.80	4.1100	4.1101	0.8079	26.17	0.20	0.750			
0.1219	7800.13	4.1070	4.1071	0.8074	26.17	0.20	0.750			
0.1243	7954.13	4.1040	4.1040	0.8115	26.17	0.20	0.750			
0.1267	8110.96	4.1010	4.1010	0.8181	26.17	0.20	0.750			
0.1291	8265.52	4.0980	4.0980	0.8163	26.17	0.20	0.750			
0.1316	8424.30	4.0950	4.0951	0.8207	26.17	0.20	0.750			
0.1341	8584.05	4.0920	4.0920	0.8241	26.17	0.20	0.750			
0.1366	8741.78	4.0890	4.0890	0.8289	26.17	0.20	0.750			
0.1391	8902.07	4.0860	4.0860	0.8324	26.17	0.20	0.750			
0.1416	9061.30	4.0830	4.0829	0.8316	26.17	0.20	0.750			
0.1441	9220.87	4.0800	4.0802	0.8354	26.17	0.20	0.750			
0.1466	9384.82	4.0770	4.0770	0.8278	26.17	0.20	0.750			
0.1491	9541.96	4.0740	4.0740	0.8311	26.17	0.20	0.750			
0.1516	9699.26	4.0710	4.0711	0.8342	26.17	0.20	0.750			
0.1540	9858.92	4.0680	4.0681	0.8383	26.17	0.20	0.750			
0.1566	10020.45	4.0650	4.0651	0.8389	26.17	0.20	0.750			
0.1591	10183.23	4.0620	4.0621	0.8402	26.18	0.21	0.750			
0.1616	10344.97	4.0590	4.0591	0.8481	26.18	0.21	0.750			
0.1642	10510.15	4.0560	4.0559	0.8516	26.18	0.21	0.750			
0.1667	10671.82	4.0530	4.0529	0.8472	26.19	0.22	0.750			
0.1693	10834.91	4.0500	4.0501	0.8555	26.19	0.22	0.750			
0.1719	11001.45	4.0470	4.0470	0.8548	26.19	0.22	0.750			
0.1745	11165.17	4.0440	4.0440	0.8628	26.19	0.22	0.750			
0.1770	11330.33	4.0410	4.0411	0.8589	26.19	0.22	0.750			
0.1796	11495.74	4.0380	4.0379	0.8656	26.19	0.22	0.750			
0.1822	11663.33	4.0350	4.0351	0.8727	26.19	0.22	0.750			
0.1849	11831.28	4.0320	4.0320	0.8697	26.19	0.22	0.750			
0.1875	11997.61	4.0290	4.0290	0.8728	26.19	0.22	0.750			
0.1901	12165.68	4.0260	4.0261	0.8735	26.19	0.22	0.750			
0.1927	12333.22	4.0230	4.0226	0.8779	26.19	0.22	0.750			
0.1954	12503.56	4.0200	4.0200	0.8849	26.19	0.22	0.750			
0.1980	12673.13	4.0170	4.0170	0.8864	26.20	0.23	0.750			
0.2007	12844.82	4.0140	4.0140	0.8918	26.20	0.23	0.750			
0.2034	13017.79	4.0110	4.0111	0.8951	26.21	0.24	0.750			
0.2061	13187.37	4.0080	4.0081	0.8953	26.21	0.24	0.750			
0.2088	13361.07	4.0050	4.0049	0.8928	26.21	0.24	0.750			
0.2114	13530.57	4.0020	4.0020	0.9012	26.21	0.24	0.750			
0.2141	13703.60	3.9990	3.9991	0.9073	26.21	0.24	0.750			
0.2169	13879.67	3.9960	3.9959	0.9136	26.21	0.24	0.750			
0.2196	14056.47	3.9930	3.9931	0.9130	26.21	0.24	0.750			
0.2224	14233.36	3.9900	3.9900	0.9077	26.22	0.25	0.750			
0.2251	14405.72	3.9870	3.9872	0.9113	26.22	0.25	0.750			
0.2278	14581.03	3.9840	3.9840	0.9145	26.23	0.26	0.750			
0.2305	14754.31	3.9810	3.9808	0.9126	26.23	0.26	0.750			
0.2333	14929.88	3.9780	3.9780	0.9193	26.23	0.26	0.750			
0.2360	15106.86	3.9750	3.9751	0.9283	26.23	0.26	0.750			
0.2389	15288.69	3.9720	3.9720	0.9316	26.23	0.26	0.750			
0.2417	15467.53	3.9690	3.9689	0.9285	26.23	0.26	0.750			
0.2444	15644.44	3.9660	3.9659	0.9290	26.23	0.26	0.750			
0.2472	15822.01	3.9630	3.9631	0.9269	26.23	0.26	0.750			
0.2500	15999.83	3.9600	3.9599	0.9282	26.23	0.26	0.750			
0.2528	16176.50	3.9570	3.9571	0.9318	26.23	0.26	0.750			
0.2555	16354.69	3.9540	3.9538	0.9333	26.23	0.26	0.750			
0.2584	16536.72	3.9510	3.9512	0.9423	26.23	0.26	0.750			
0.2612	16719.22	3.9480	3.9480	0.9446	26.23	0.26	0.750			
0.2641	16900.45	3.9450	3.9451	0.9494	26.23	0.26	0.750			
0.2669	17083.21	3.9420	3.9420	0.9512	26.23	0.26	0.750			
0.2698	17268.68	3.9390	3.9389	0.9455	26.23	0.26	0.750			
0.2726	17448.31	3.9360	3.9360	0.9467	26.24	0.27	0.750			
0.2755	17629.35	3.9330	3.9331	0.9513	26.24	0.27	0.750			
0.2783	17812.93	3.9300	3.9301	0.9530	26.25	0.28	0.750			
0.2812	17995.03	3.9270	3.9270	0.9536	26.25	0.28	0.750			
0.2840	18177.40	3.9240	3.9240	0.9538	26.25	0.28	0.750			
0.2869	18361.24	3.9210	3.9210	0.9587	26.26	0.29	0.750			
0.2898	18546.71	3.9180	3.9180	0.9643	26.26	0.29	0.750			
0.2927	18730.01	3.9150	3.9148	0.9660	26.26	0.29	0.750			
0.2956	18917.65	3.9120	3.9120	0.9648	26.26	0.29	0.750			
0.2985	19103.07	3.9090	3.9090	0.9715	26.26	0.29	0.750			
0.3014	19289.05	3.9060	3.9060	0.9768	26.27	0.30	0.750			
0.3043	19476.41	3.9030	3.9031	0.9798	26.27	0.30	0.750			
0.3073	19667.61	3.9000	3.8999	0.9813	26.27	0.30	0.750			
0.3103	19856.66	3.8970	3.8970	0.9839	26.27	0.30	0.750			
0.3132	20046.13	3.8940	3.8941	0.9844	26.27	0.30	0.750			
0.3162	20236.38	3.8910	3.8910	0.9869	26.27	0.30	0.750			
0.3191	20423.71	3.8880	3.8880	0.9871	26.27	0.30	0.750			
0.3221	20612.18	3.8850	3.8850	0.9894	26.27	0.30	0.750			
0.3250	20802.88	3.8820	3.8820	0.9966	26.27	0.30	0.750			
0.3281	20997.98	3.8790	3.8791	1.0087	26.27	0.30	0.750			
0.3311	21191.46	3.8760	3.8760	1.0115	26.27	0.30	0.750			
0.3342	21386.81	3.8730	3.8729	1.0173	26.27	0.30	0.750			
0.3372	21582.25	3.8700	3.8700	1.0199	26.27	0.30	0.750			
0.3403	21777.55	3.8670	3.8671	1.0291	26.27	0.30	0.750			
0.3434	21978.37	3.8640	3.8640	1.0341	26.27	0.30	0.750			
0.3465	22176.45	3.8610	3.8610	1.0403	26.26	0.29	0.750			
0.3496	22375.08	3.8580	3.8580	1.0472	26.26	0.29	0.750			
0.3528	22576.57	3.8550	3.8551	1.0571	26.25	0.28	0.750			
0.3560	22782.91	3.8520	3.8519	1.0645	26.25	0.28	0.750			
0.3592	22987.14	3.8490	3.8490	1.0742	26.24	0.27	0.750			
0.3624	23192.00	3.8460	3.8460	1.0866	26.24	0.27	0.750			
0.3657	23402.69	3.8430	3.8431	1.1054	26.23	0.26	0.750			
0.3690	23616.13	3.8400	3.8400	1.1129	26.23	0.26	0.750			
0.3724	23831.59	3.8370	3.8371	1.1255	26.22	0.25	0.750			
0.3758	24049.75	3.8340	3.8340	1.1419	26.22	0.25	0.750			
0.3792	24270.24	3.8310	3.8310	1.1592	26.21	0.24	0.750			
0.3827	24493.17	3.8280	3.8280	1.1697	26.21	0.24	0.750			
0.3862	24716.93	3.8250	3.8251	1.1849	26.20	0.23	0.750			
0.3898	24947.09	3.8220	3.8220	1.2055	26.19	0.22	0.750			
0.3935	25182.68	3.8190	3.8192	1.2184	26.19	0.22	0.750			
0.3971	25417.06	3.8160	3.8161	1.2289	26.18	0.21	0.750			
0.4008	25654.12	3.8130	3.8131	1.2373	26.18	0.21	0.750			
0.4046	25895.60	3.8100	3.8098	1.2403	26.17	0.20	0.750			
0.4083	26129.82	3.8070	3.8071	1.2454	26.16	0.19	0.750			
0.4120	26370.89	3.8040	3.8040	1.2635	26.15	0.18	0.750			
0.4159	26614.57	3.8010	3.8011	1.2801	26.14	0.17	0.750			
0.4197	26863.14	3.7980	3.7980	1.2960	26.12	0.15	0.750			
0.4236	27112.46	3.7950	3.7951	1.3088	26.11	0.14	0.750			
0.4276	27367.48	3.7920	3.7920	1.3212	26.10	0.13	0.750			
0.4316	27623.56	3.7890	3.7889	1.3359	26.09	0.12	0.750			
0.4356	27877.53	3.7860	3.7861	1.3429	26.08	0.11	0.750			
0.4397	28140.54	3.7830	3.7829	1.3392	26.08	0.11	0.750			
0.4437	28395.58	3.7800	3.7800	1.3505	26.07	0.10	0.750			
0.4477	28655.96	3.7770	3.7770	1.3591	26.05	0.08	0.750			
0.4518	28917.45	3.7740	3.7740	1.3610	26.04	0.07	0.750			
0.4559	29178.13	3.7710	3.7708	1.3725	26.03	0.06	0.750			
0.4599	29436.27	3.7680	3.7682	1.4046	26.02	0.05	0.750			
0.4642	29706.37	3.7650	3.7650	1.4346	26.00	0.03	0.750			
0.4686	29990.49	3.7620	3.7618	1.4749	25.99	0.02	0.750			
0.4730	30274.22	3.7590	3.7589	1.5080	25.97	0.00	0.750	0.312	0.395	
0.4777	30573.05	3.7560	3.7561	1.5422	25.96	-0.01	0.750			
0.4824	30874.84	3.7530	3.7530	1.5638	25.94	-0.03	0.750			
0.4871	31175.65	3.7500	3.7502	1.5877	25.93	-0.04	0.750			
0.4919	31479.33	3.7470	3.7468	1.6079	25.92	-0.05	0.750			
0.4967	31790.33	3.7440	3.7440	1.6553	25.90	-0.07	0.750			
0.5018	32114.15	3.7410	3.7411	1.6896	25.88	-0.09	0.750			
0.5069	32441.10	3.7380	3.7379	1.7347	25.86	-0.11	0.750			
0.5122	32780.38	3.7350	3.7348	1.7791	25.85	-0.12	0.750			
0.5175	33123.17	3.7320	3.7319	1.8173	25.83	-0.14	0.750			
0.5230	33474.67	3.7290	3.7291	1.8637	25.82	-0.15	0.750			
0.5287	33837.97	3.7260	3.7258	1.9117	25.80	-0.17	0.750			
0.5345	34209.09	3.7230	3.7230	1.9644	25.79	-0.18	0.750			
0.5405	34591.17	3.7200	3.7202	2.0418	25.78	-0.19	0.750			
0.5467	34988.86	3.7170	3.7170	2.0916	25.76	-0.21	0.750			
0.5531	35398.40	3.7140	3.7140	2.1609	25.74	-0.23	0.750			
0.5597	35822.35	3.7110	3.7109	2.2241	25.72	-0.25	0.750			
0.5666	36261.30	3.7080	3.7080	2.3015	25.70	-0.27	0.750			
0.5735	36704.41	3.7050	3.7049	2.3671	25.68	-0.29	0.750			
0.5807	37162.42	3.7020	3.7023	2.4245	25.66	-0.31	0.750			
0.5880	37630.72	3.6990	3.6988	2.5308	25.65	-0.32	0.750			
0.5958	38128.32	3.6960	3.6958	2.5862	25.63	-0.34	0.750			
0.6036	38627.68	3.6930	3.6929	2.6599	25.61	-0.36	0.750			
0.6120	39165.07	3.6900	3.6902	2.6580	25.60	-0.37	0.750			
0.6198	39666.90	3.6870	3.6871	2.6508	25.59	-0.38	0.750			
0.6275	40162.38	3.6840	3.6843	2.7137	25.57	-0.40	0.750			
0.6355	40672.72	3.6810	3.6808	2.8451	25.55	-0.42	0.750			
0.6441	41220.96	3.6780	3.6778	3.0074	25.54	-0.43	0.750			
0.6534	41819.07	3.6750	3.6751	3.1279	25.53	-0.44	0.750			
0.6634	42455.56	3.6720	3.6719	3.2405	25.52	-0.45	0.750			
0.6730	43070.01	3.6690	3.6689	3.2817	25.52	-0.45	0.750			
0.6830	43712.71	3.6660	3.6660	3.3173	25.52	-0.45	0.750			
0.6934	44377.75	3.6630	3.6629	3.2489	25.52	-0.45	0.750			
0.7033	45008.97	3.6600	3.6601	3.0571	25.52	-0.45	0.750			
0.7121	45576.66	3.6570	3.6570	2.7429	25.53	-0.44	0.750			
0.7196	46056.24	3.6540	3.6539	2.4313	25.53	-0.44	0.750			
0.7263	46480.31	3.6510	3.6511	2.1389	25.54	-0.43	0.750			
0.7321	46856.22	3.6480	3.6481	1.9213	25.54	-0.43	0.750			
0.7375	47197.14	3.6450	3.6453	1.7344	25.55	-0.42	0.750			
0.7423	47505.96	3.6420	3.6417	1.5787	25.56	-0.41	0.750			
0.7467	47791.87	3.6390	3.6391	1.4534	25.57	-0.40	0.750			
0.7508	48051.93	3.6360	3.6360	1.3552	25.57	-0.40	0.750			
0.7546	48294.34	3.6330	3.6329	1.2773	25.58	-0.39	0.750			
0.7582	48526.64	3.6300	3.6300	1.2217	25.58	-0.39	0.750			
0.7618	48754.84	3.6270	3.6270	1.2183	25.59	-0.38	0.750			
0.7654	48984.90	3.6240	3.6240	1.2137	25.59	-0.38	0.750			
0.7691	49220.52	3.6210	3.6209	1.2185	25.59	-0.38	0.750			
0.7727	49453.22	3.6180	3.6181	1.2259	25.59	-0.38	0.750			
0.7764	49691.44	3.6150	3.6151	1.2288	25.60	-0.37	0.750			
0.7802	49931.17	3.6120	3.6117	1.2198	25.60	-0.37	0.750			
0.7838	50164.71	3.6090	3.6090	1.2192	25.61	-0.36	0.750			
0.7875	50398.81	3.6060	3.6062	1.2039	25.61	-0.36	0.750			
0.7911	50630.53	3.6030	3.6029	1.1991	25.62	-0.35	0.750			
0.7946	50856.95	3.6000	3.6002	1.1806	25.62	-0.35	0.750			
0.7981	51077.14	3.5970	3.5970	1.1840	25.63	-0.34	0.750			
0.8016	51304.60	3.5940	3.5940	1.1992	25.63	-0.34	0.750			
0.8053	51538.12	3.5910	3.5905	1.2121	25.64	-0.33	0.750			
0.8089	51766.89	3.5880	3.5881	1.2475	25.64	-0.33	0.750			
0.8127	52010.47	3.5850	3.5850	1.2880	25.64	-0.33	0.750			
0.8166	52262.26	3.5820	3.5818	1.3133	25.64	-0.33	0.750			
0.8206	52518.67	3.5790	3.5791	1.3599	25.64	-0.33	0.750			
0.8247	52780.27	3.5760	3.5760	1.3927	25.64	-0.33	0.750			
0.8290	53054.54	3.5730	3.5729	1.4310	25.64	-0.33	0.750			
0.8333	53331.95	3.5700	3.5701	1.4704	25.64	-0.33	0.750			
0.8378	53618.12	3.5670	3.5670	1.4867	25.65	-0.32	0.750			
0.8423	53908.56	3.5640	3.5637	1.5262	25.66	-0.31	0.750			
0.8470	54205.54	3.5610	3.5607	1.5398	25.66	-0.31	0.750			
0.8517	54506.23	3.5580	3.5583	1.5593	25.66	-0.31	0.750			
0.8564	54809.74	3.5550	3.5551	1.5754	25.66	-0.31	0.750			
0.8611	55108.58	3.5520	3.5518	1.5848	25.66	-0.31	0.750			
0.8658	55411.51	3.5490	3.5492	1.5894	25.67	-0.30	0.750			
0.8706	55720.77	3.5460	3.5461	1.6385	25.67	-0.30	0.750			
0.8756	56040.71	3.5430	3.5428	1.6601	25.68	-0.29	0.750			
0.8807	56366.24	3.5400	3.5397	1.6852	25.68	-0.29	0.750			
0.8858	56689.46	3.5370	3.5373	1.7251	25.69	-0.28	0.750			
0.8910	57025.81	3.5340	3.5340	1.7493	25.70	-0.27	0.750			
0.8966	57380.81	3.5310	3.5309	1.7143	25.71	-0.26	0.750			
0.9020	57730.16	3.5280	3.5281	1.5322	25.71	-0.26	0.750			
0.9067	58026.37	3.5250	3.5254	1.3318	25.73	-0.24	0.750			
0.9108	58288.94	3.5220	3.5226	1.1127	25.76	-0.21	0.750			
0.9135	58463.94	3.5190	3.5189	0.8400	25.78	-0.19	0.750			
0.9153	58578.62	3.5160	3.5152	0.6167	25.79	-0.18	0.750			
0.9164	58649.15	3.5130	3.5126	0.4777	25.80	-0.17	0.750			
0.9174	58716.08	3.5100	3.5098	0.3953	25.81	-0.16	0.750			
0.9185	58783.84	3.5070	3.5070	0.3602	25.81	-0.16	0.750			
0.9195	58847.98	3.5040	3.5040	0.3340	25.82	-0.15	0.750			
0.9205	58909.45	3.5010	3.5011	0.3170	25.83	-0.14	0.750			
0.9214	58967.72	3.4980	3.4979	0.3020	25.83	-0.14	0.750			
0.9222	59022.93	3.4950	3.4951	0.2923	25.84	-0.13	0.750			
0.9231	59077.88	3.4920	3.4919	0.2844	25.84	-0.13	0.750			
0.9239	59131.72	3.4890	3.4890	0.2778	25.85	-0.12	0.750			
0.9248	59184.68	3.4860	3.4859	0.2724	25.85	-0.12	0.750			
0.9256	59236.29	3.4830	3.4832	0.2678	25.86	-0.11	0.750			
0.9264	59287.17	3.4800	3.4799	0.2645	25.86	-0.11	0.750			
0.9272	59338.33	3.4770	3.4768	0.2579	25.87	-0.10	0.750			
0.9279	59386.95	3.4740	3.4740	0.2527	25.87	-0.10	0.750			
0.9287	59434.48	3.4710	3.4710	0.2471	25.88	-0.09	0.750			
0.9294	59482.26	3.4680	3.4682	0.2431	25.88	-0.09	0.750			
0.9301	59528.17	3.4650	3.4646	0.2384	25.89	-0.08	0.750			
0.9308	59573.16	3.4620	3.4621	0.2319	25.89	-0.08	0.750			
0.9315	59616.79	3.4590	3.4592	0.2268	25.90	-0.07	0.750			
0.9322	59660.24	3.4560	3.4560	0.2239	25.90	-0.07	0.750			
0.9329	59704.21	3.4530	3.4531	0.2221	25.91	-0.06	0.750			
0.9335	59745.29	3.4500	3.4499	0.2149	25.91	-0.06	0.750			
0.9342	59785.77	3.4470	3.4470	0.2116	25.91	-0.06	0.750			
0.9348	59826.12	3.4440	3.4440	0.2087	25.92	-0.05	0.750			
0.9354	59865.92	3.4410	3.4410	0.2037	25.92	-0.05	0.750			
0.9360	59905.28	3.4380	3.4379	0.2004	25.93	-0.04	0.750			
0.9366	59943.05	3.4350	3.4352	0.1956	25.93	-0.04	0.750			
0.9372	59980.17	3.4320	3.4320	0.1911	25.93	-0.04	0.750			
0.9378	60016.17	3.4290	3.4289	0.1878	25.94	-0.03	0.750			
0.9383	60052.16	3.4260	3.4259	0.1836	25.94	-0.03	0.750			
0.9389	60086.69	3.4230	3.4230	0.1786	25.94	-0.03	0.750			
0.9394	60120.64	3.4200	3.4200	0.1751	25.95	-0.02	0.750			
0.9399	60154.60	3.4170	3.4171	0.1706	25.95	-0.02	0.750			
0.9404	60186.85	3.4140	3.4139	0.1659	25.95	-0.02	0.750			
0.9409	60218.18	3.4110	3.4109	0.1608	25.96	-0.01	0.750			
0.9414	60248.56	3.4080	3.4082	0.1557	25.96	-0.01	0.750			
0.9418	60277.73	3.4050	3.4049	0.1504	25.96	-0.01	0.750			
0.9423	60306.33	3.4020	3.4021	0.1461	25.97	-0.00	0.750			
0.9427	60333.76	3.3990	3.3989	0.1409	25.97	-0.00	0.750			
0.9431	60360.44	3.3960	3.3960	0.1359	25.97	0.00	0.750			
0.9435	60386.25	3.3930	3.3930	0.1313	25.97	0.00	0.750			
0.9439	60410.99	3.3900	3.3900	0.1255	25.98	0.01	0.750			
0.9443	60434.78	3.3870	3.3869	0.1205	25.98	0.01	0.750			
0.9447	60457.69	3.3840	3.3841	0.1138	25.98	0.01	0.750			
0.9450	60479.20	3.3810	3.3810	0.1077	25.98	0.01	0.750			
0.9453	60500.27	3.3780	3.3778	0.0986	25.99	0.02	0.750			
0.9456	60518.75	3.3750	3.3751	0.0911	25.99	0.02	0.750			
0.9459	60535.34	3.3720	3.3720	0.0817	25.99	0.02	0.750			
0.9461	60550.82	3.3690	3.3691	0.0732	25.99	0.02	0.750			
0.9463	60563.89	3.3660	3.3664	0.0630	25.99	0.02	0.750			
0.9465	60575.58	3.3630	3.3635	0.0527	25.99	0.02	0.750			
0.9466	60584.66	3.3600	3.3613	0.0418	25.99	0.02	0.750			
0.9467	60591.65	3.3570	3.3585	0.0309	26.00	0.03	0.750			
0.9468	60596.54	3.3540	3.3566	0.0200	26.00	0.03	0.750			
