Ah_balance (normalized)	Ah_balance (mAh)	Voltage - fit (V)	Voltage -  interpolate (V)	dQ/dV (1/V)	Temperature (°C)	Temperature - diff (°C)	Current (C)	R_DC 0ms (mOhm)	R_DC 50ms (mOhm)	R_DC 50 ms PEC (mOhm)
0.0004	28.53	4.1650	4.1648	-0.1397	25.53	0.01	-0.750			
0.0009	59.93	4.1620	4.1620	-0.1913	25.53	0.01	-0.750			
0.0016	104.26	4.1590	4.1590	-0.2410	25.52	0.00	-0.750			
0.0024	155.63	4.1560	4.1559	-0.2845	25.52	0.00	-0.750			
0.0034	214.55	4.1530	4.1530	-0.3271	25.52	0.00	-0.750			
0.0044	282.30	4.1500	4.1503	-0.3720	25.52	-0.00	-0.750			
0.0056	357.45	4.1470	4.1470	-0.4143	25.52	-0.00	-0.750			
0.0069	441.10	4.1440	4.1439	-0.4547	25.52	-0.00	-0.750			
0.0083	532.65	4.1410	4.1410	-0.4920	25.51	-0.01	-0.750			
0.0099	632.21	4.1380	4.1381	-0.5313	25.51	-0.01	-0.750			
0.0115	739.09	4.1350	4.1351	-0.5618	25.51	-0.01	-0.750			
0.0133	851.27	4.1320	4.1319	-0.5877	25.51	-0.01	-0.750			
0.0151	966.60	4.1290	4.1291	-0.6113	25.50	-0.02	-0.750			
0.0170	1086.95	4.1260	4.1261	-0.6297	25.50	-0.02	-0.750			
0.0189	1210.25	4.1230	4.1229	-0.6465	25.50	-0.02	-0.750			
0.0209	1336.94	4.1200	4.1201	-0.6616	25.49	-0.03	-0.750			
0.0229	1465.09	4.1170	4.1170	-0.6712	25.49	-0.03	-0.750			
0.0250	1597.35	4.1140	4.1140	-0.6824	25.49	-0.03	-0.750			
0.0270	1727.80	4.1110	4.1110	-0.6955	25.48	-0.04	-0.750			
0.0291	1861.98	4.1080	4.1081	-0.7010	25.48	-0.04	-0.750			
0.0312	1997.85	4.1050	4.1049	-0.7129	25.48	-0.04	-0.750			
0.0334	2136.39	4.1020	4.1020	-0.7177	25.48	-0.04	-0.750			
0.0356	2275.86	4.0990	4.0990	-0.7278	25.48	-0.04	-0.750			
0.0378	2418.09	4.0960	4.0960	-0.7290	25.48	-0.04	-0.750			
0.0400	2558.52	4.0930	4.0929	-0.7372	25.48	-0.04	-0.750			
0.0422	2699.70	4.0900	4.0902	-0.7372	25.48	-0.04	-0.750			
0.0444	2842.10	4.0870	4.0870	-0.7440	25.48	-0.04	-0.750			
0.0466	2983.77	4.0840	4.0840	-0.7544	25.47	-0.05	-0.750			
0.0489	3128.88	4.0810	4.0810	-0.7577	25.47	-0.05	-0.750			
0.0512	3279.11	4.0780	4.0779	-0.7675	25.46	-0.06	-0.750			
0.0536	3428.76	4.0750	4.0750	-0.7720	25.46	-0.06	-0.750			
0.0559	3575.02	4.0720	4.0719	-0.7669	25.46	-0.06	-0.750			
0.0582	3723.42	4.0690	4.0690	-0.7704	25.46	-0.06	-0.750			
0.0605	3869.21	4.0660	4.0660	-0.7666	25.46	-0.06	-0.750			
0.0627	4014.73	4.0630	4.0630	-0.7668	25.46	-0.06	-0.750			
0.0651	4164.63	4.0600	4.0600	-0.7740	25.46	-0.06	-0.750			
0.0674	4313.17	4.0570	4.0571	-0.7778	25.46	-0.06	-0.750			
0.0698	4464.08	4.0540	4.0539	-0.7777	25.46	-0.06	-0.750			
0.0721	4613.35	4.0510	4.0510	-0.7835	25.46	-0.06	-0.750			
0.0744	4764.09	4.0480	4.0480	-0.7835	25.46	-0.06	-0.750			
0.0768	4915.88	4.0450	4.0449	-0.7838	25.46	-0.06	-0.750			
0.0792	5066.98	4.0420	4.0422	-0.7821	25.46	-0.06	-0.750			
0.0815	5215.59	4.0390	4.0389	-0.7830	25.46	-0.06	-0.750			
0.0838	5365.59	4.0360	4.0361	-0.7846	25.47	-0.05	-0.750			
0.0862	5516.18	4.0330	4.0330	-0.7875	25.47	-0.05	-0.750			
0.0885	5667.17	4.0300	4.0298	-0.7922	25.48	-0.04	-0.750			
0.0909	5819.54	4.0270	4.0271	-0.7971	25.48	-0.04	-0.750			
0.0933	5973.78	4.0240	4.0240	-0.7996	25.48	-0.04	-0.750			
0.0957	6126.76	4.0210	4.0210	-0.7993	25.48	-0.04	-0.750			
0.0981	6281.25	4.0180	4.0180	-0.8040	25.48	-0.04	-0.750			
0.1006	6435.31	4.0150	4.0150	-0.8010	25.48	-0.04	-0.750			
0.1029	6588.75	4.0120	4.0118	-0.8021	25.48	-0.04	-0.750			
0.1054	6742.51	4.0090	4.0091	-0.8036	25.48	-0.04	-0.750			
0.1077	6895.69	4.0060	4.0060	-0.8131	25.49	-0.03	-0.750			
0.1102	7054.90	4.0030	4.0029	-0.8135	25.49	-0.03	-0.750			
0.1127	7209.76	4.0000	4.0000	-0.8115	25.49	-0.03	-0.750			
0.1151	7368.15	3.9970	3.9969	-0.8095	25.50	-0.02	-0.750			
0.1176	7525.35	3.9940	3.9941	-0.8111	25.50	-0.02	-0.750			
0.1200	7677.55	3.9910	3.9909	-0.8132	25.50	-0.02	-0.750			
0.1224	7831.54	3.9880	3.9880	-0.8124	25.50	-0.02	-0.750			
0.1248	7986.32	3.9850	3.9849	-0.8106	25.51	-0.01	-0.750			
0.1273	8145.63	3.9820	3.9819	-0.8244	25.51	-0.01	-0.750			
0.1298	8305.24	3.9790	3.9792	-0.8236	25.51	-0.01	-0.750			
0.1323	8464.88	3.9760	3.9759	-0.8272	25.51	-0.01	-0.750			
0.1347	8623.46	3.9730	3.9730	-0.8345	25.51	-0.01	-0.750			
0.1372	8783.20	3.9700	3.9699	-0.8326	25.52	-0.00	-0.750			
0.1398	8946.43	3.9670	3.9669	-0.8366	25.52	-0.00	-0.750			
0.1423	9107.24	3.9640	3.9642	-0.8357	25.52	0.00	-0.750			
0.1448	9267.83	3.9610	3.9611	-0.8327	25.53	0.01	-0.750			
0.1473	9428.62	3.9580	3.9579	-0.8362	25.53	0.01	-0.750			
0.1498	9585.77	3.9550	3.9550	-0.8273	25.53	0.01	-0.750			
0.1523	9747.21	3.9520	3.9519	-0.8347	25.54	0.02	-0.750			
0.1548	9908.00	3.9490	3.9491	-0.8396	25.54	0.02	-0.750			
0.1573	10069.10	3.9460	3.9459	-0.8436	25.55	0.03	-0.750			
0.1599	10231.41	3.9430	3.9429	-0.8452	25.55	0.03	-0.750			
0.1624	10392.73	3.9400	3.9400	-0.8462	25.55	0.03	-0.750			
0.1650	10558.11	3.9370	3.9370	-0.8542	25.56	0.04	-0.750			
0.1675	10722.49	3.9340	3.9341	-0.8561	25.56	0.04	-0.750			
0.1701	10885.85	3.9310	3.9309	-0.8612	25.56	0.04	-0.750			
0.1727	11052.57	3.9280	3.9279	-0.8591	25.56	0.04	-0.750			
0.1753	11217.22	3.9250	3.9250	-0.8569	25.57	0.05	-0.750			
0.1779	11383.71	3.9220	3.9219	-0.8606	25.57	0.05	-0.750			
0.1804	11547.81	3.9190	3.9191	-0.8594	25.57	0.05	-0.750			
0.1830	11711.91	3.9160	3.9159	-0.8684	25.57	0.05	-0.750			
0.1856	11877.05	3.9130	3.9130	-0.8702	25.58	0.06	-0.750			
0.1882	12045.95	3.9100	3.9099	-0.8678	25.58	0.06	-0.750			
0.1909	12216.86	3.9070	3.9070	-0.8707	25.58	0.06	-0.750			
0.1935	12383.46	3.9040	3.9041	-0.8798	25.58	0.06	-0.750			
0.1961	12552.25	3.9010	3.9010	-0.8790	25.59	0.07	-0.750			
0.1987	12719.76	3.8980	3.8979	-0.8711	25.59	0.07	-0.750			
0.2013	12884.80	3.8950	3.8950	-0.8728	25.60	0.08	-0.750			
0.2040	13055.92	3.8920	3.8923	-0.8784	25.60	0.08	-0.750			
0.2066	13224.03	3.8890	3.8889	-0.8858	25.60	0.08	-0.750			
0.2093	13394.47	3.8860	3.8859	-0.8880	25.61	0.09	-0.750			
0.2119	13563.16	3.8830	3.8830	-0.8849	25.61	0.09	-0.750			
0.2146	13735.97	3.8800	3.8799	-0.8914	25.62	0.10	-0.750			
0.2173	13909.64	3.8770	3.8772	-0.8866	25.62	0.10	-0.750			
0.2199	14075.40	3.8740	3.8741	-0.8882	25.62	0.10	-0.750			
0.2226	14247.19	3.8710	3.8709	-0.8907	25.62	0.10	-0.750			
0.2252	14415.36	3.8680	3.8681	-0.8879	25.62	0.10	-0.750			
0.2279	14588.11	3.8650	3.8649	-0.8967	25.62	0.10	-0.750			
0.2307	14761.77	3.8620	3.8621	-0.9027	25.62	0.10	-0.750			
0.2334	14936.90	3.8590	3.8589	-0.9033	25.63	0.11	-0.750			
0.2361	15109.94	3.8560	3.8561	-0.9039	25.63	0.11	-0.750			
0.2388	15281.51	3.8530	3.8530	-0.9001	25.64	0.12	-0.750			
0.2415	15457.81	3.8500	3.8501	-0.9033	25.64	0.12	-0.750			
0.2442	15629.58	3.8470	3.8470	-0.9016	25.64	0.12	-0.750			
0.2469	15802.36	3.8440	3.8440	-0.9010	25.65	0.13	-0.750			
0.2496	15974.91	3.8410	3.8410	-0.9007	25.65	0.13	-0.750			
0.2523	16148.72	3.8380	3.8379	-0.9006	25.66	0.14	-0.750			
0.2550	16320.15	3.8350	3.8351	-0.9003	25.66	0.14	-0.750			
0.2577	16493.73	3.8320	3.8320	-0.9088	25.67	0.15	-0.750			
0.2605	16669.19	3.8290	3.8289	-0.9130	25.67	0.15	-0.750			
0.2632	16845.83	3.8260	3.8260	-0.9070	25.67	0.15	-0.750			
0.2659	17020.22	3.8230	3.8231	-0.9094	25.68	0.16	-0.750			
0.2687	17193.69	3.8200	3.8200	-0.9114	25.68	0.16	-0.750			
0.2714	17369.50	3.8170	3.8170	-0.9086	25.68	0.16	-0.750			
0.2741	17542.16	3.8140	3.8139	-0.9057	25.68	0.16	-0.750			
0.2768	17714.37	3.8110	3.8110	-0.9049	25.68	0.16	-0.750			
0.2795	17889.96	3.8080	3.8081	-0.9092	25.68	0.16	-0.750			
0.2823	18064.94	3.8050	3.8049	-0.9145	25.68	0.16	-0.750			
0.2850	18239.92	3.8020	3.8020	-0.9099	25.69	0.17	-0.750			
0.2877	18415.43	3.7990	3.7990	-0.9115	25.69	0.17	-0.750			
0.2905	18592.42	3.7960	3.7960	-0.9129	25.70	0.18	-0.750			
0.2932	18766.28	3.7930	3.7930	-0.9130	25.70	0.18	-0.750			
0.2960	18941.77	3.7900	3.7900	-0.9141	25.70	0.18	-0.750			
0.2987	19117.26	3.7870	3.7870	-0.9159	25.71	0.19	-0.750			
0.3014	19292.12	3.7840	3.7840	-0.9167	25.71	0.19	-0.750			
0.3042	19470.91	3.7810	3.7812	-0.9144	25.71	0.19	-0.750			
0.3070	19645.27	3.7780	3.7780	-0.9203	25.71	0.19	-0.750			
0.3097	19822.88	3.7750	3.7750	-0.9160	25.71	0.19	-0.750			
0.3125	19997.21	3.7720	3.7720	-0.9098	25.72	0.20	-0.750			
0.3152	20174.76	3.7690	3.7689	-0.9145	25.72	0.20	-0.750			
0.3179	20348.20	3.7660	3.7660	-0.9053	25.72	0.20	-0.750			
0.3207	20522.13	3.7630	3.7629	-0.9078	25.73	0.21	-0.750			
0.3234	20696.59	3.7600	3.7600	-0.9091	25.74	0.22	-0.750			
0.3261	20868.11	3.7570	3.7569	-0.9044	25.74	0.22	-0.750			
0.3288	21044.58	3.7540	3.7543	-0.9157	25.75	0.23	-0.750			
0.3316	21219.83	3.7510	3.7509	-0.9211	25.75	0.23	-0.750			
0.3344	21398.69	3.7480	3.7480	-0.9182	25.75	0.23	-0.750			
0.3371	21575.80	3.7450	3.7450	-0.9182	25.75	0.23	-0.750			
0.3399	21750.45	3.7420	3.7420	-0.9192	25.75	0.23	-0.750			
0.3426	21929.38	3.7390	3.7390	-0.9196	25.75	0.23	-0.750			
0.3454	22104.44	3.7360	3.7359	-0.9314	25.75	0.23	-0.750			
0.3482	22282.05	3.7330	3.7330	-0.9362	25.76	0.24	-0.750			
0.3510	22462.85	3.7300	3.7300	-0.9429	25.76	0.24	-0.750			
0.3539	22647.35	3.7270	3.7272	-0.9550	25.76	0.24	-0.750			
0.3567	22830.83	3.7240	3.7240	-0.9678	25.76	0.24	-0.750			
0.3596	23017.29	3.7210	3.7210	-0.9780	25.76	0.24	-0.750			
0.3626	23207.27	3.7180	3.7179	-0.9854	25.77	0.25	-0.750			
0.3656	23395.43	3.7150	3.7149	-0.9898	25.77	0.25	-0.750			
0.3686	23588.12	3.7120	3.7120	-1.0120	25.77	0.25	-0.750			
0.3716	23783.37	3.7090	3.7090	-1.0259	25.77	0.25	-0.750			
0.3747	23980.88	3.7060	3.7059	-1.0364	25.77	0.25	-0.750			
0.3778	24178.78	3.7030	3.7030	-1.0477	25.77	0.25	-0.750			
0.3810	24384.54	3.7000	3.7000	-1.0752	25.77	0.25	-0.750			
0.3843	24593.84	3.6970	3.6969	-1.0941	25.77	0.25	-0.750			
0.3876	24804.32	3.6940	3.6939	-1.1094	25.76	0.24	-0.750			
0.3909	25017.84	3.6910	3.6912	-1.1250	25.76	0.24	-0.750			
0.3943	25237.60	3.6880	3.6879	-1.1544	25.76	0.24	-0.750			
0.3979	25463.79	3.6850	3.6849	-1.1693	25.76	0.24	-0.750			
0.4014	25688.20	3.6820	3.6820	-1.1849	25.75	0.23	-0.750			
0.4049	25915.58	3.6790	3.6792	-1.2154	25.75	0.23	-0.750			
0.4086	26152.81	3.6760	3.6760	-1.2451	25.74	0.22	-0.750			
0.4124	26394.07	3.6730	3.6729	-1.2727	25.74	0.22	-0.750			
0.4163	26640.01	3.6700	3.6699	-1.3104	25.73	0.21	-0.750			
0.4203	26897.20	3.6670	3.6669	-1.3430	25.72	0.20	-0.750			
0.4244	27160.77	3.6640	3.6639	-1.3686	25.71	0.19	-0.750			
0.4285	27425.74	3.6610	3.6612	-1.4024	25.70	0.18	-0.750			
0.4328	27698.05	3.6580	3.6579	-1.4444	25.70	0.18	-0.750			
0.4371	27976.23	3.6550	3.6549	-1.4924	25.69	0.17	-0.750			
0.4417	28266.61	3.6520	3.6523	-1.5225	25.69	0.17	-0.750			
0.4463	28564.03	3.6490	3.6491	-1.5497	25.68	0.16	-0.750			
0.4511	28871.67	3.6460	3.6461	-1.5952	25.67	0.15	-0.750			
0.4559	29180.33	3.6430	3.6428	-1.6237	25.67	0.15	-0.750			
0.4608	29492.47	3.6400	3.6401	-1.6556	25.65	0.13	-0.750			
0.4657	29807.60	3.6370	3.6371	-1.6909	25.64	0.12	-0.750			
0.4710	30141.01	3.6340	3.6340	-1.7303	25.63	0.11	-0.750			
0.4762	30476.43	3.6310	3.6301	-1.7709	25.62	0.10	-0.750	0.403	0.491	
0.4816	30822.35	3.6280	3.6278	-1.8013	25.62	0.10	-0.750			
0.4870	31166.46	3.6250	3.6250	-1.8463	25.61	0.09	-0.750			
0.4926	31524.09	3.6220	3.6221	-1.8887	25.60	0.08	-0.750			
0.4984	31895.26	3.6190	3.6191	-1.9112	25.59	0.07	-0.750			
0.5041	32264.11	3.6160	3.6161	-1.9281	25.58	0.06	-0.750			
0.5101	32644.85	3.6130	3.6131	-1.9693	25.57	0.05	-0.750			
0.5159	33016.64	3.6100	3.6097	-2.0121	25.56	0.04	-0.750			
0.5220	33408.92	3.6070	3.6069	-2.0431	25.55	0.03	-0.750			
0.5281	33800.39	3.6040	3.6042	-2.0679	25.54	0.02	-0.750			
0.5344	34201.80	3.6010	3.6009	-2.1284	25.54	0.02	-0.750			
0.5409	34618.73	3.5980	3.5976	-2.1529	25.53	0.01	-0.750			
0.5474	35036.23	3.5950	3.5951	-2.1834	25.53	0.01	-0.750			
0.5540	35455.03	3.5920	3.5922	-2.2179	25.52	0.00	-0.750			
0.5607	35883.43	3.5890	3.5887	-2.2523	25.51	-0.01	-0.750			
0.5675	36323.12	3.5860	3.5860	-2.2818	25.50	-0.02	-0.750			
0.5745	36769.72	3.5830	3.5831	-2.3149	25.50	-0.02	-0.750			
0.5815	37218.19	3.5800	3.5801	-2.3394	25.50	-0.02	-0.750			
0.5886	37668.84	3.5770	3.5769	-2.3660	25.50	-0.02	-0.750			
0.5957	38122.57	3.5740	3.5740	-2.4296	25.49	-0.03	-0.750			
0.6031	38596.72	3.5710	3.5709	-2.4654	25.48	-0.04	-0.750			
0.6106	39076.68	3.5680	3.5679	-2.4851	25.48	-0.04	-0.750			
0.6182	39561.71	3.5650	3.5652	-2.5075	25.48	-0.04	-0.750			
0.6257	40046.53	3.5620	3.5619	-2.5010	25.48	-0.04	-0.750			
0.6333	40529.83	3.5590	3.5589	-2.4755	25.49	-0.03	-0.750			
0.6405	40991.91	3.5560	3.5561	-2.4359	25.50	-0.02	-0.750			
0.6479	41464.26	3.5530	3.5530	-2.4319	25.50	-0.02	-0.750			
0.6552	41932.93	3.5500	3.5499	-2.4197	25.50	-0.02	-0.750			
0.6624	42394.33	3.5470	3.5469	-2.3765	25.50	-0.02	-0.750			
0.6695	42850.00	3.5440	3.5441	-2.3534	25.50	-0.02	-0.750			
0.6765	43297.60	3.5410	3.5410	-2.3285	25.51	-0.01	-0.750			
0.6834	43740.58	3.5380	3.5379	-2.2815	25.51	-0.01	-0.750			
0.6903	44178.39	3.5350	3.5350	-2.2339	25.52	-0.00	-0.750			
0.6970	44610.86	3.5320	3.5321	-2.1896	25.52	0.00	-0.750			
0.7035	45026.02	3.5290	3.5289	-2.1241	25.53	0.01	-0.750			
0.7098	45430.09	3.5260	3.5260	-2.0741	25.54	0.02	-0.750			
0.7159	45817.58	3.5230	3.5232	-2.0137	25.56	0.04	-0.750			
0.7218	46196.75	3.5200	3.5201	-1.9511	25.57	0.05	-0.750			
0.7276	46567.37	3.5170	3.5169	-1.8813	25.58	0.06	-0.750			
0.7332	46924.86	3.5140	3.5141	-1.8146	25.59	0.07	-0.750			
0.7385	47265.51	3.5110	3.5109	-1.7504	25.60	0.08	-0.750			
0.7437	47598.07	3.5080	3.5079	-1.6756	25.62	0.10	-0.750			
0.7486	47911.24	3.5050	3.5050	-1.6146	25.64	0.12	-0.750			
0.7534	48214.46	3.5020	3.5018	-1.5552	25.66	0.14	-0.750			
0.7579	48508.47	3.4990	3.4989	-1.5002	25.67	0.15	-0.750			
0.7624	48793.37	3.4960	3.4962	-1.4534	25.69	0.17	-0.750			
0.7666	49064.37	3.4930	3.4931	-1.4043	25.70	0.18	-0.750			
0.7708	49330.85	3.4900	3.4900	-1.3626	25.72	0.20	-0.750			
0.7748	49586.46	3.4870	3.4869	-1.3104	25.73	0.21	-0.750			
0.7786	49832.16	3.4840	3.4841	-1.2641	25.75	0.23	-0.750			
0.7824	50072.71	3.4810	3.4810	-1.2214	25.76	0.24	-0.750			
0.7860	50302.21	3.4780	3.4779	-1.1689	25.77	0.25	-0.750			
0.7894	50519.44	3.4750	3.4750	-1.1250	25.78	0.26	-0.750			
0.7927	50730.62	3.4720	3.4721	-1.0833	25.80	0.28	-0.750			
0.7959	50934.79	3.4690	3.4689	-1.0485	25.81	0.29	-0.750			
0.7989	51131.07	3.4660	3.4660	-1.0188	25.83	0.31	-0.750			
0.8019	51319.98	3.4630	3.4631	-0.9880	25.84	0.32	-0.750			
0.8048	51509.41	3.4600	3.4600	-0.9782	25.85	0.33	-0.750			
0.8077	51692.27	3.4570	3.4570	-0.9670	25.86	0.34	-0.750			
0.8105	51873.35	3.4540	3.4540	-0.9676	25.87	0.35	-0.750			
0.8134	52054.55	3.4510	3.4509	-0.9904	25.88	0.36	-0.750			
0.8163	52244.18	3.4480	3.4481	-1.0216	25.89	0.37	-0.750			
0.8194	52442.83	3.4450	3.4449	-1.0838	25.90	0.38	-0.750			
0.8227	52655.40	3.4420	3.4418	-1.1395	25.90	0.38	-0.750			
0.8263	52881.03	3.4390	3.4389	-1.1972	25.91	0.39	-0.750			
0.8300	53119.05	3.4360	3.4362	-1.2399	25.92	0.40	-0.750			
0.8339	53370.45	3.4330	3.4330	-1.2692	25.93	0.41	-0.750			
0.8378	53620.49	3.4300	3.4300	-1.2738	25.94	0.42	-0.750			
0.8417	53867.67	3.4270	3.4272	-1.2558	25.95	0.43	-0.750			
0.8455	54113.56	3.4240	3.4240	-1.2418	25.96	0.44	-0.750			
0.8492	54350.20	3.4210	3.4210	-1.2034	25.97	0.45	-0.750			
0.8528	54577.05	3.4180	3.4180	-1.1575	25.98	0.46	-0.750			
0.8562	54796.70	3.4150	3.4151	-1.1233	25.98	0.46	-0.750			
0.8595	55007.90	3.4120	3.4120	-1.0740	25.99	0.47	-0.750			
0.8627	55209.79	3.4090	3.4089	-1.0300	25.99	0.47	-0.750			
0.8657	55402.56	3.4060	3.4061	-0.9822	26.00	0.48	-0.750			
0.8685	55585.27	3.4030	3.4030	-0.9430	26.00	0.48	-0.750			
0.8713	55761.96	3.4000	3.4000	-0.9069	26.01	0.49	-0.750			
0.8739	55931.31	3.3970	3.3970	-0.8721	26.02	0.50	-0.750			
0.8765	56092.95	3.3940	3.3939	-0.8362	26.02	0.50	-0.750			
0.8790	56253.11	3.3910	3.3911	-0.8116	26.03	0.51	-0.750			
0.8813	56405.57	3.3880	3.3880	-0.7821	26.04	0.52	-0.750			
0.8837	56554.16	3.3850	3.3850	-0.7548	26.04	0.52	-0.750			
0.8859	56695.65	3.3820	3.3819	-0.7269	26.05	0.53	-0.750			
0.8880	56832.13	3.3790	3.3790	-0.6922	26.06	0.54	-0.750			
0.8901	56963.44	3.3760	3.3760	-0.6619	26.07	0.55	-0.750			
0.8920	57086.96	3.3730	3.3732	-0.6354	26.07	0.55	-0.750			
0.8938	57205.57	3.3700	3.3698	-0.6056	26.08	0.56	-0.750			
0.8956	57318.72	3.3670	3.3669	-0.5779	26.08	0.56	-0.750			
0.8973	57425.53	3.3640	3.3641	-0.5527	26.09	0.57	-0.750			
0.8989	57529.76	3.3610	3.3611	-0.5342	26.09	0.57	-0.750			
0.9005	57630.85	3.3580	3.3580	-0.5118	26.10	0.58	-0.750			
0.9020	57726.73	3.3550	3.3549	-0.4872	26.10	0.58	-0.750			
0.9034	57817.17	3.3520	3.3520	-0.4647	26.11	0.59	-0.750			
0.9048	57904.58	3.3490	3.3490	-0.4462	26.11	0.59	-0.750			
0.9061	57988.06	3.3460	3.3460	-0.4264	26.12	0.60	-0.750			
0.9073	58067.24	3.3430	3.3430	-0.4055	26.13	0.61	-0.750			
0.9085	58142.84	3.3400	3.3400	-0.3879	26.13	0.61	-0.750			
0.9096	58216.43	3.3370	3.3370	-0.3731	26.14	0.62	-0.750			
0.9107	58286.87	3.3340	3.3340	-0.3558	26.14	0.62	-0.750			
0.9118	58352.81	3.3310	3.3311	-0.3386	26.15	0.63	-0.750			
0.9127	58415.59	3.3280	3.3280	-0.3233	26.15	0.63	-0.750			
0.9137	58476.19	3.3250	3.3250	-0.3104	26.16	0.64	-0.750			
0.9146	58533.93	3.3220	3.3219	-0.2965	26.16	0.64	-0.750			
0.9155	58589.10	3.3190	3.3190	-0.2845	26.16	0.64	-0.750			
0.9163	58642.69	3.3160	3.3161	-0.2745	26.17	0.65	-0.750			
0.9171	58694.94	3.3130	3.3130	-0.2637	26.17	0.65	-0.750			
0.9179	58744.11	3.3100	3.3100	-0.2529	26.18	0.66	-0.750			
0.9186	58791.61	3.3070	3.3071	-0.2439	26.18	0.66	-0.750			
0.9193	58837.24	3.3040	3.3040	-0.2341	26.19	0.67	-0.750			
0.9200	58881.26	3.3010	3.3009	-0.2249	26.19	0.67	-0.750			
0.9207	58923.08	3.2980	3.2981	-0.2172	26.20	0.68	-0.750			
0.9213	58963.65	3.2950	3.2951	-0.2100	26.20	0.68	-0.750			
0.9219	59003.39	3.2920	3.2920	-0.2040	26.20	0.68	-0.750			
0.9225	59042.11	3.2890	3.2888	-0.1982	26.21	0.69	-0.750			
0.9231	59079.19	3.2860	3.2861	-0.1917	26.21	0.69	-0.750			
0.9237	59115.41	3.2830	3.2830	-0.1865	26.22	0.70	-0.750			
0.9242	59150.72	3.2800	3.2800	-0.1813	26.22	0.70	-0.750			
0.9248	59185.36	3.2770	3.2770	-0.1760	26.22	0.70	-0.750			
0.9253	59218.17	3.2740	3.2740	-0.1707	26.23	0.71	-0.750			
0.9258	59250.26	3.2710	3.2710	-0.1660	26.23	0.71	-0.750			
0.9263	59281.73	3.2680	3.2680	-0.1618	26.23	0.71	-0.750			
0.9268	59312.29	3.2650	3.2649	-0.1577	26.24	0.72	-0.750			
0.9272	59342.07	3.2620	3.2620	-0.1540	26.24	0.72	-0.750			
0.9277	59371.15	3.2590	3.2590	-0.1503	26.24	0.72	-0.750			
0.9281	59399.67	3.2560	3.2561	-0.1472	26.24	0.72	-0.750			
0.9286	59427.65	3.2530	3.2530	-0.1445	26.25	0.73	-0.750			
0.9290	59454.94	3.2500	3.2500	-0.1411	26.25	0.73	-0.750			
0.9294	59481.75	3.2470	3.2469	-0.1383	26.25	0.73	-0.750			
0.9298	59507.95	3.2440	3.2440	-0.1361	26.26	0.74	-0.750			
0.9302	59533.91	3.2410	3.2410	-0.1336	26.26	0.74	-0.750			
0.9306	59559.30	3.2380	3.2380	-0.1310	26.26	0.74	-0.750			
0.9310	59584.18	3.2350	3.2349	-0.1287	26.27	0.75	-0.750			
0.9314	59608.63	3.2320	3.2321	-0.1262	26.27	0.75	-0.750			
0.9318	59632.59	3.2290	3.2290	-0.1238	26.27	0.75	-0.750			
0.9321	59656.16	3.2260	3.2259	-0.1220	26.28	0.76	-0.750			
0.9325	59679.36	3.2230	3.2230	-0.1198	26.28	0.76	-0.750			
0.9328	59701.82	3.2200	3.2200	-0.1178	26.28	0.76	-0.750			
0.9332	59724.30	3.2170	3.2170	-0.1164	26.29	0.77	-0.750			
0.9335	59746.57	3.2140	3.2140	-0.1149	26.29	0.77	-0.750			
0.9339	59768.48	3.2110	3.2109	-0.1133	26.29	0.77	-0.750			
0.9342	59790.11	3.2080	3.2080	-0.1117	26.30	0.78	-0.750			
0.9346	59811.41	3.2050	3.2050	-0.1101	26.30	0.78	-0.750			
0.9349	59832.36	3.2020	3.2020	-0.1088	26.30	0.78	-0.750			
0.9352	59853.12	3.1990	3.1990	-0.1074	26.31	0.79	-0.750			
0.9355	59873.50	3.1960	3.1959	-0.1059	26.31	0.79	-0.750			
0.9358	59893.70	3.1930	3.1931	-0.1046	26.31	0.79	-0.750			
0.9362	59913.72	3.1900	3.1900	-0.1032	26.31	0.79	-0.750			
0.9365	59933.40	3.1870	3.1871	-0.1018	26.32	0.80	-0.750			
0.9368	59952.84	3.1840	3.1840	-0.1006	26.32	0.80	-0.750			
0.9371	59972.01	3.1810	3.1810	-0.0991	26.32	0.80	-0.750			
0.9374	59990.75	3.1780	3.1779	-0.0979	26.32	0.80	-0.750			
0.9376	60009.46	3.1750	3.1751	-0.0969	26.33	0.81	-0.750			
0.9379	60027.95	3.1720	3.1720	-0.0957	26.33	0.81	-0.750			
0.9382	60046.23	3.1690	3.1690	-0.0947	26.33	0.81	-0.750			
0.9385	60064.25	3.1660	3.1661	-0.0940	26.34	0.82	-0.750			
0.9388	60082.23	3.1630	3.1630	-0.0932	26.34	0.82	-0.750			
0.9391	60100.15	3.1600	3.1600	-0.0921	26.34	0.82	-0.750			
0.9393	60117.73	3.1570	3.1568	-0.0910	26.34	0.82	-0.750			
0.9396	60135.10	3.1540	3.1541	-0.0901	26.35	0.83	-0.750			
0.9399	60152.30	3.1510	3.1510	-0.0891	26.35	0.83	-0.750			
0.9401	60169.23	3.1480	3.1480	-0.0884	26.35	0.83	-0.750			
0.9404	60186.14	3.1450	3.1449	-0.0877	26.35	0.83	-0.750			
0.9407	60202.81	3.1420	3.1420	-0.0864	26.36	0.84	-0.750			
0.9409	60219.34	3.1390	3.1390	-0.0857	26.36	0.84	-0.750			
0.9412	60235.75	3.1360	3.1362	-0.0854	26.36	0.84	-0.750			
0.9414	60252.07	3.1330	3.1330	-0.0847	26.37	0.85	-0.750			
0.9417	60268.23	3.1300	3.1301	-0.0839	26.37	0.85	-0.750			
0.9419	60284.27	3.1270	3.1269	-0.0834	26.37	0.85	-0.750			
0.9422	60300.22	3.1240	3.1239	-0.0827	26.38	0.86	-0.750			
0.9424	60316.08	3.1210	3.1210	-0.0818	26.38	0.86	-0.750			
0.9427	60331.71	3.1180	3.1180	-0.0810	26.38	0.86	-0.750			
0.9429	60347.46	3.1150	3.1152	-0.0805	26.39	0.87	-0.750			
0.9432	60362.67	3.1120	3.1120	-0.0799	26.39	0.87	-0.750			
0.9434	60377.81	3.1090	3.1089	-0.0789	26.39	0.87	-0.750			
0.9436	60392.89	3.1060	3.1059	-0.0784	26.40	0.88	-0.750			
0.9439	60407.89	3.1030	3.1029	-0.0778	26.40	0.88	-0.750			
0.9441	60422.66	3.1000	3.1001	-0.0772	26.40	0.88	-0.750			
0.9443	60437.49	3.0970	3.0969	-0.0767	26.40	0.88	-0.750			
0.9446	60452.27	3.0940	3.0941	-0.0764	26.41	0.89	-0.750			
0.9448	60466.89	3.0910	3.0910	-0.0758	26.41	0.89	-0.750			
0.9450	60481.29	3.0880	3.0880	-0.0756	26.41	0.89	-0.750			
0.9452	60495.63	3.0850	3.0851	-0.0750	26.42	0.90	-0.750			
0.9455	60510.02	3.0820	3.0820	-0.0748	26.42	0.90	-0.750			
0.9457	60524.39	3.0790	3.0789	-0.0744	26.42	0.90	-0.750			
0.9459	60538.65	3.0760	3.0761	-0.0741	26.42	0.90	-0.750			
0.9461	60552.95	3.0730	3.0730	-0.0734	26.43	0.91	-0.750			
0.9464	60566.99	3.0700	3.0700	-0.0728	26.43	0.91	-0.750			
0.9466	60581.11	3.0670	3.0670	-0.0724	26.43	0.91	-0.750			
0.9468	60594.84	3.0640	3.0641	-0.0720	26.44	0.92	-0.750			
0.9470	60608.50	3.0610	3.0609	-0.0712	26.44	0.92	-0.750			
0.9472	60622.14	3.0580	3.0580	-0.0708	26.44	0.92	-0.750			
0.9474	60635.67	3.0550	3.0551	-0.0704	26.44	0.92	-0.750			
0.9476	60649.06	3.0520	3.0519	-0.0699	26.45	0.93	-0.750			
0.9479	60662.47	3.0490	3.0490	-0.0696	26.45	0.93	-0.750			
0.9481	60675.80	3.0460	3.0461	-0.0693	26.45	0.93	-0.750			
0.9483	60689.14	3.0430	3.0429	-0.0690	26.45	0.93	-0.750			
0.9485	60702.36	3.0400	3.0400	-0.0685	26.46	0.94	-0.750			
0.9487	60715.46	3.0370	3.0370	-0.0681	26.46	0.94	-0.750			
0.9489	60728.50	3.0340	3.0340	-0.0677	26.46	0.94	-0.750			
0.9491	60741.42	3.0310	3.0309	-0.0676	26.46	0.94	-0.750			
0.9493	60754.32	3.0280	3.0280	-0.0672	26.47	0.95	-0.750			
0.9495	60767.33	3.0250	3.0250	-0.0667	26.47	0.95	-0.750			
0.9497	60780.10	3.0220	3.0219	-0.0663	26.47	0.95	-0.750			
0.9499	60792.84	3.0190	3.0191	-0.0659	26.47	0.95	-0.750			
0.9501	60805.46	3.0160	3.0160	-0.0654	26.48	0.96	-0.750			
0.9503	60818.10	3.0130	3.0130	-0.0650	26.48	0.96	-0.750			
0.9505	60830.52	3.0100	3.0100	-0.0643	26.48	0.96	-0.750			
0.9507	60842.81	3.0070	3.0071	-0.0636	26.48	0.96	-0.750			
0.9509	60854.86	3.0040	3.0040	-0.0634	26.49	0.97	-0.750			
0.9510	60867.01	3.0010	3.0010	-0.0632	26.49	0.97	-0.751			
