Ah_balance (normalized)	Ah_balance (mAh)	Voltage - fit (V)	Voltage -  interpolate (V)	dQ/dV (1/V)	Temperature (°C)	Temperature - diff (°C)	Current (C)	R_DC 0ms (mOhm)	R_DC 50ms (mOhm)	R_DC 50 ms PEC (mOhm)
0.0580	3710.48	4.1960	4.1958	0.7400	27.71	1.75	0.750			
0.0602	3853.33	4.1930	4.1930	0.7478	27.71	1.75	0.750			
0.0625	3999.92	4.1900	4.1901	0.7508	27.71	1.75	0.750			
0.0647	4143.36	4.1870	4.1869	0.7513	27.71	1.75	0.750			
0.0670	4288.81	4.1840	4.1840	0.7497	27.70	1.74	0.750			
0.0693	4432.47	4.1810	4.1811	0.7490	27.70	1.74	0.750			
0.0715	4575.64	4.1780	4.1780	0.7528	27.70	1.74	0.750			
0.0738	4721.51	4.1750	4.1750	0.7554	27.70	1.74	0.750			
0.0760	4866.34	4.1720	4.1720	0.7516	27.69	1.73	0.750			
0.0783	5010.74	4.1690	4.1690	0.7570	27.69	1.73	0.750			
0.0806	5155.64	4.1660	4.1660	0.7584	27.68	1.72	0.750			
0.0828	5301.30	4.1630	4.1629	0.7612	27.68	1.72	0.750			
0.0851	5448.22	4.1600	4.1600	0.7635	27.68	1.72	0.750			
0.0874	5595.59	4.1570	4.1570	0.7620	27.68	1.72	0.750			
0.0897	5743.22	4.1540	4.1540	0.7617	27.68	1.72	0.750			
0.0920	5889.30	4.1510	4.1510	0.7650	27.68	1.72	0.750			
0.0943	6034.28	4.1480	4.1480	0.7623	27.68	1.72	0.750			
0.0966	6179.81	4.1450	4.1450	0.7653	27.68	1.72	0.750			
0.0989	6327.56	4.1420	4.1420	0.7680	27.68	1.72	0.750			
0.1012	6476.30	4.1390	4.1391	0.7684	27.68	1.72	0.750			
0.1035	6623.93	4.1360	4.1360	0.7703	27.68	1.72	0.750			
0.1058	6771.86	4.1330	4.1331	0.7731	27.68	1.72	0.750			
0.1081	6919.16	4.1300	4.1298	0.7746	27.68	1.72	0.750			
0.1104	7068.49	4.1270	4.1270	0.7747	27.68	1.72	0.750			
0.1128	7218.98	4.1240	4.1240	0.7700	27.68	1.72	0.750			
0.1151	7367.42	4.1210	4.1211	0.7770	27.67	1.71	0.750			
0.1174	7516.27	4.1180	4.1181	0.7772	27.67	1.71	0.750			
0.1197	7663.26	4.1150	4.1150	0.7761	27.67	1.71	0.750			
0.1221	7812.29	4.1120	4.1120	0.7795	27.67	1.71	0.750			
0.1244	7961.77	4.1090	4.1091	0.7819	27.66	1.70	0.750			
0.1268	8112.90	4.1060	4.1061	0.7920	27.66	1.70	0.750			
0.1292	8268.89	4.1030	4.1029	0.7940	27.66	1.70	0.750			
0.1315	8419.16	4.1000	4.1000	0.7876	27.65	1.69	0.750			
0.1339	8570.56	4.0970	4.0970	0.7903	27.65	1.69	0.750			
0.1363	8722.57	4.0940	4.0940	0.7898	27.65	1.69	0.750			
0.1387	8874.12	4.0910	4.0909	0.7888	27.64	1.68	0.750			
0.1410	9024.71	4.0880	4.0880	0.7902	27.64	1.68	0.750			
0.1434	9175.36	4.0850	4.0851	0.7914	27.63	1.67	0.750			
0.1458	9329.13	4.0820	4.0820	0.7976	27.63	1.67	0.750			
0.1482	9482.01	4.0790	4.0790	0.8005	27.63	1.67	0.750			
0.1506	9636.87	4.0760	4.0760	0.7974	27.63	1.67	0.750			
0.1530	9790.92	4.0730	4.0730	0.8021	27.63	1.67	0.750			
0.1554	9944.70	4.0700	4.0700	0.8063	27.63	1.67	0.750			
0.1578	10098.93	4.0670	4.0669	0.8069	27.63	1.67	0.750			
0.1602	10254.26	4.0640	4.0640	0.8100	27.63	1.67	0.750			
0.1627	10411.05	4.0610	4.0611	0.8077	27.63	1.67	0.750			
0.1651	10565.64	4.0580	4.0580	0.8136	27.62	1.66	0.750			
0.1675	10722.22	4.0550	4.0550	0.8248	27.62	1.66	0.750			
0.1700	10878.43	4.0520	4.0520	0.8285	27.62	1.66	0.750			
0.1725	11039.29	4.0490	4.0490	0.8297	27.62	1.66	0.750			
0.1751	11203.42	4.0460	4.0460	0.8283	27.62	1.66	0.750			
0.1775	11362.47	4.0430	4.0431	0.8316	27.61	1.65	0.750			
0.1800	11522.92	4.0400	4.0400	0.8321	27.61	1.65	0.750			
0.1825	11679.77	4.0370	4.0369	0.8249	27.61	1.65	0.750			
0.1850	11836.96	4.0340	4.0342	0.8229	27.61	1.65	0.750			
0.1874	11996.05	4.0310	4.0310	0.8195	27.61	1.65	0.750			
0.1899	12153.91	4.0280	4.0281	0.8272	27.60	1.64	0.750			
0.1924	12312.53	4.0250	4.0250	0.8340	27.60	1.64	0.750			
0.1948	12470.08	4.0220	4.0220	0.8410	27.60	1.64	0.750			
0.1974	12633.71	4.0190	4.0190	0.8480	27.60	1.64	0.750			
0.2000	12799.22	4.0160	4.0160	0.8491	27.60	1.64	0.750			
0.2026	12963.85	4.0130	4.0130	0.8514	27.59	1.63	0.750			
0.2051	13128.64	4.0100	4.0102	0.8531	27.59	1.63	0.750			
0.2076	13289.30	4.0070	4.0069	0.8507	27.59	1.63	0.750			
0.2102	13452.26	4.0040	4.0040	0.8520	27.59	1.63	0.750			
0.2127	13614.13	4.0010	4.0010	0.8484	27.58	1.62	0.750			
0.2153	13778.62	3.9980	3.9981	0.8557	27.58	1.62	0.750			
0.2179	13944.35	3.9950	3.9951	0.8607	27.57	1.61	0.750			
0.2205	14110.84	3.9920	3.9918	0.8632	27.57	1.61	0.750			
0.2231	14277.32	3.9890	3.9891	0.8616	27.57	1.61	0.750			
0.2257	14442.75	3.9860	3.9860	0.8584	27.56	1.60	0.750			
0.2282	14607.38	3.9830	3.9831	0.8604	27.56	1.60	0.750			
0.2308	14770.92	3.9800	3.9800	0.8589	27.55	1.59	0.750			
0.2334	14935.32	3.9770	3.9768	0.8636	27.55	1.59	0.750			
0.2359	15100.57	3.9740	3.9740	0.8666	27.55	1.59	0.750			
0.2386	15268.67	3.9710	3.9711	0.8675	27.54	1.58	0.750			
0.2412	15437.97	3.9680	3.9680	0.8730	27.54	1.58	0.750			
0.2438	15604.27	3.9650	3.9651	0.8703	27.53	1.57	0.750			
0.2464	15770.66	3.9620	3.9621	0.8695	27.53	1.57	0.750			
0.2490	15937.92	3.9590	3.9590	0.8719	27.53	1.57	0.750			
0.2517	16105.72	3.9560	3.9560	0.8745	27.52	1.56	0.750			
0.2543	16275.20	3.9530	3.9530	0.8777	27.52	1.56	0.750			
0.2569	16443.65	3.9500	3.9500	0.8752	27.51	1.55	0.750			
0.2596	16611.96	3.9470	3.9470	0.8767	27.51	1.55	0.750			
0.2622	16780.47	3.9440	3.9440	0.8742	27.50	1.54	0.750			
0.2648	16947.63	3.9410	3.9410	0.8786	27.50	1.54	0.750			
0.2674	17115.98	3.9380	3.9380	0.8786	27.50	1.54	0.750			
0.2701	17284.50	3.9350	3.9349	0.8830	27.49	1.53	0.750			
0.2727	17454.46	3.9320	3.9320	0.8870	27.48	1.52	0.750			
0.2754	17624.47	3.9290	3.9290	0.8935	27.48	1.52	0.750			
0.2781	17797.09	3.9260	3.9261	0.8959	27.47	1.51	0.750			
0.2808	17970.52	3.9230	3.9230	0.8998	27.46	1.50	0.750			
0.2835	18142.51	3.9200	3.9198	0.9015	27.45	1.49	0.750			
0.2862	18319.65	3.9170	3.9171	0.8950	27.44	1.48	0.750			
0.2889	18488.88	3.9140	3.9140	0.8968	27.43	1.47	0.750			
0.2916	18660.80	3.9110	3.9111	0.8993	27.42	1.46	0.750			
0.2943	18832.18	3.9080	3.9081	0.9061	27.42	1.46	0.750			
0.2970	19005.94	3.9050	3.9049	0.9110	27.41	1.45	0.750			
0.2997	19181.60	3.9020	3.9020	0.9107	27.39	1.43	0.750			
0.3025	19357.26	3.8990	3.8991	0.9156	27.38	1.42	0.750			
0.3052	19535.20	3.8960	3.8960	0.9184	27.37	1.41	0.750			
0.3080	19709.68	3.8930	3.8929	0.9182	27.35	1.39	0.750			
0.3107	19887.15	3.8900	3.8900	0.9152	27.34	1.38	0.750			
0.3135	20062.69	3.8870	3.8870	0.9147	27.33	1.37	0.750			
0.3162	20239.99	3.8840	3.8840	0.9177	27.33	1.37	0.750			
0.3190	20415.67	3.8810	3.8810	0.9207	27.32	1.36	0.750			
0.3217	20590.08	3.8780	3.8780	0.9217	27.31	1.35	0.750			
0.3245	20770.25	3.8750	3.8749	0.9104	27.29	1.33	0.750			
0.3272	20943.42	3.8720	3.8721	0.9102	27.28	1.32	0.750			
0.3300	21118.68	3.8690	3.8691	0.9172	27.27	1.31	0.750			
0.3327	21293.10	3.8660	3.8661	0.9221	27.25	1.29	0.750			
0.3355	21471.93	3.8630	3.8630	0.9196	27.24	1.28	0.750			
0.3382	21647.26	3.8600	3.8600	0.9201	27.23	1.27	0.750			
0.3410	21825.65	3.8570	3.8571	0.9263	27.23	1.27	0.750			
0.3438	22004.98	3.8540	3.8541	0.9420	27.22	1.26	0.750			
0.3466	22183.67	3.8510	3.8509	0.9366	27.21	1.25	0.750			
0.3494	22364.21	3.8480	3.8479	0.9311	27.19	1.23	0.750			
0.3522	22541.06	3.8450	3.8450	0.9355	27.18	1.22	0.750			
0.3550	22722.64	3.8420	3.8423	0.9456	27.17	1.21	0.750			
0.3579	22904.15	3.8390	3.8388	0.9503	27.15	1.19	0.750			
0.3608	23088.18	3.8360	3.8360	0.9505	27.14	1.18	0.750			
0.3636	23270.38	3.8330	3.8331	0.9567	27.13	1.17	0.750			
0.3665	23456.26	3.8300	3.8301	0.9722	27.11	1.15	0.750			
0.3694	23642.80	3.8270	3.8270	0.9748	27.10	1.14	0.750			
0.3724	23831.52	3.8240	3.8240	0.9777	27.08	1.12	0.750			
0.3753	24018.17	3.8210	3.8211	0.9922	27.07	1.11	0.750			
0.3783	24210.54	3.8180	3.8180	1.0029	27.06	1.10	0.750			
0.3814	24406.41	3.8150	3.8151	1.0147	27.05	1.09	0.750			
0.3844	24603.39	3.8120	3.8121	1.0162	27.04	1.08	0.750			
0.3874	24796.48	3.8090	3.8091	1.0262	27.02	1.06	0.750			
0.3905	24993.93	3.8060	3.8060	1.0370	27.01	1.05	0.750			
0.3936	25192.47	3.8030	3.8032	1.0540	26.99	1.03	0.750			
0.3968	25396.06	3.8000	3.7998	1.0597	26.98	1.02	0.750			
0.4000	25602.06	3.7970	3.7971	1.0820	26.96	1.00	0.750			
0.4033	25810.87	3.7940	3.7941	1.1013	26.95	0.99	0.750			
0.4066	26024.75	3.7910	3.7911	1.1176	26.94	0.98	0.750			
0.4100	26241.10	3.7880	3.7880	1.1269	26.92	0.96	0.750			
0.4134	26459.57	3.7850	3.7850	1.1465	26.91	0.95	0.750			
0.4169	26678.41	3.7820	3.7822	1.1734	26.90	0.94	0.750			
0.4204	26907.51	3.7790	3.7787	1.2012	26.88	0.92	0.750			
0.4240	27138.34	3.7760	3.7762	1.2274	26.87	0.91	0.750			
0.4278	27377.84	3.7730	3.7724	1.2564	26.85	0.89	0.750	0.327	0.463	
0.4317	27625.86	3.7700	3.7700	1.2813	26.83	0.87	0.750			
0.4355	27871.07	3.7670	3.7671	1.3017	26.81	0.85	0.750			
0.4394	28124.35	3.7640	3.7640	1.3324	26.79	0.83	0.750			
0.4435	28384.55	3.7610	3.7611	1.3447	26.77	0.81	0.750			
0.4476	28644.30	3.7580	3.7581	1.3775	26.75	0.79	0.750			
0.4517	28908.30	3.7550	3.7551	1.4027	26.74	0.78	0.750			
0.4560	29182.58	3.7520	3.7521	1.4278	26.72	0.76	0.750			
0.4603	29459.20	3.7490	3.7491	1.4699	26.70	0.74	0.750			
0.4647	29740.78	3.7460	3.7459	1.5105	26.69	0.73	0.750			
0.4694	30039.39	3.7430	3.7430	1.5371	26.67	0.71	0.750			
0.4740	30338.44	3.7400	3.7401	1.5783	26.65	0.69	0.750			
0.4788	30644.63	3.7370	3.7370	1.6115	26.62	0.66	0.750			
0.4837	30955.85	3.7340	3.7339	1.6615	26.60	0.64	0.750			
0.4887	31274.74	3.7310	3.7311	1.6860	26.57	0.61	0.750			
0.4939	31606.53	3.7280	3.7279	1.7426	26.55	0.59	0.750			
0.4991	31945.52	3.7250	3.7249	1.7953	26.53	0.57	0.750			
0.5047	32301.75	3.7220	3.7219	1.8485	26.51	0.55	0.750			
0.5102	32654.74	3.7190	3.7190	1.8950	26.49	0.53	0.750			
0.5160	33025.62	3.7160	3.7160	1.9550	26.47	0.51	0.750			
0.5219	33398.49	3.7130	3.7129	2.0154	26.45	0.49	0.750			
0.5281	33797.08	3.7100	3.7100	2.0954	26.42	0.46	0.750			
0.5344	34199.00	3.7070	3.7070	2.1780	26.39	0.43	0.750			
0.5410	34625.54	3.7040	3.7039	2.2583	26.37	0.41	0.750			
0.5481	35078.36	3.7010	3.7009	2.3180	26.34	0.38	0.750			
0.5551	35528.79	3.6980	3.6981	2.3912	26.32	0.36	0.750			
0.5624	35994.01	3.6950	3.6951	2.4615	26.30	0.34	0.750			
0.5698	36466.87	3.6920	3.6918	2.5276	26.27	0.31	0.750			
0.5774	36953.49	3.6890	3.6891	2.6376	26.25	0.29	0.750			
0.5856	37475.40	3.6860	3.6860	2.7469	26.23	0.27	0.750			
0.5941	38020.98	3.6830	3.6830	2.8384	26.21	0.25	0.750			
0.6028	38577.42	3.6800	3.6801	2.8097	26.19	0.23	0.750			
0.6115	39135.58	3.6770	3.6769	2.6844	26.17	0.21	0.750			
0.6193	39637.34	3.6740	3.6740	2.4627	26.15	0.19	0.750			
0.6263	40083.24	3.6710	3.6714	2.2196	26.14	0.18	0.750			
0.6323	40470.28	3.6680	3.6679	2.0071	26.13	0.17	0.750			
0.6380	40830.99	3.6650	3.6647	1.8353	26.12	0.16	0.750			
0.6430	41152.46	3.6620	3.6621	1.6549	26.11	0.15	0.750			
0.6478	41461.48	3.6590	3.6592	1.5643	26.11	0.15	0.750			
0.6524	41750.77	3.6560	3.6562	1.4721	26.10	0.14	0.750			
0.6567	42027.58	3.6530	3.6530	1.3859	26.09	0.13	0.750			
0.6607	42283.16	3.6500	3.6500	1.3187	26.09	0.13	0.750			
0.6644	42521.70	3.6470	3.6470	1.2488	26.08	0.12	0.750			
0.6680	42753.66	3.6440	3.6441	1.2174	26.07	0.11	0.750			
0.6716	42982.83	3.6410	3.6410	1.1851	26.07	0.11	0.750			
0.6751	43206.31	3.6380	3.6380	1.1922	26.06	0.10	0.750			
0.6786	43428.42	3.6350	3.6350	1.1984	26.06	0.10	0.750			
0.6823	43667.16	3.6320	3.6318	1.2007	26.05	0.09	0.750			
0.6859	43898.13	3.6290	3.6291	1.2010	26.05	0.09	0.750			
0.6896	44134.56	3.6260	3.6260	1.2011	26.04	0.08	0.750			
0.6932	44366.09	3.6230	3.6232	1.1851	26.03	0.07	0.750			
0.6968	44592.58	3.6200	3.6198	1.1558	26.03	0.07	0.750			
0.7002	44811.16	3.6170	3.6171	1.1390	26.02	0.06	0.750			
0.7035	45022.51	3.6140	3.6140	1.1268	26.02	0.06	0.750			
0.7069	45240.06	3.6110	3.6110	1.1332	26.01	0.05	0.750			
0.7102	45453.80	3.6080	3.6080	1.1403	26.01	0.05	0.750			
0.7136	45671.93	3.6050	3.6051	1.1621	26.00	0.04	0.750			
0.7171	45896.72	3.6020	3.6020	1.1887	26.00	0.04	0.750			
0.7208	46129.93	3.5990	3.5987	1.2106	25.99	0.03	0.750			
0.7244	46360.82	3.5960	3.5962	1.2509	25.98	0.02	0.750			
0.7282	46603.21	3.5930	3.5931	1.2917	25.98	0.02	0.750			
0.7321	46854.19	3.5900	3.5899	1.3414	25.97	0.01	0.750			
0.7362	47115.08	3.5870	3.5870	1.3903	25.97	0.01	0.750			
0.7404	47384.35	3.5840	3.5841	1.4434	25.96	-0.00	0.750			
0.7448	47668.20	3.5810	3.5810	1.4876	25.95	-0.01	0.750			
0.7494	47959.14	3.5780	3.5779	1.5305	25.94	-0.02	0.750			
0.7540	48258.15	3.5750	3.5751	1.5766	25.92	-0.04	0.750			
0.7589	48570.36	3.5720	3.5719	1.6120	25.91	-0.05	0.750			
0.7638	48883.84	3.5690	3.5689	1.6503	25.90	-0.06	0.750			
0.7689	49210.43	3.5660	3.5661	1.6671	25.89	-0.07	0.750			
0.7739	49532.75	3.5630	3.5631	1.7017	25.89	-0.07	0.750			
0.7791	49863.21	3.5600	3.5599	1.6999	25.88	-0.08	0.750			
0.7842	50190.93	3.5570	3.5570	1.7172	25.87	-0.09	0.750			
0.7893	50517.59	3.5540	3.5542	1.7176	25.86	-0.10	0.750			
0.7945	50846.38	3.5510	3.5510	1.7434	25.85	-0.11	0.750			
0.7996	51176.03	3.5480	3.5478	1.7731	25.85	-0.11	0.750			
0.8052	51530.29	3.5450	3.5447	1.7580	25.85	-0.11	0.750			
0.8107	51886.09	3.5420	3.5419	1.6169	25.85	-0.11	0.750			
0.8160	52222.79	3.5390	3.5390	1.4629	25.86	-0.10	0.750			
0.8203	52501.93	3.5360	3.5364	1.2153	25.86	-0.10	0.750			
0.8236	52712.90	3.5330	3.5329	0.9362	25.87	-0.09	0.750			
0.8256	52836.52	3.5300	3.5295	0.6943	25.88	-0.08	0.750			
0.8269	52918.54	3.5270	3.5268	0.4992	25.88	-0.08	0.750			
0.8279	52988.32	3.5240	3.5239	0.4117	25.89	-0.07	0.750			
0.8291	53059.54	3.5210	3.5208	0.3702	25.89	-0.07	0.750			
0.8300	53123.15	3.5180	3.5180	0.3403	25.90	-0.06	0.750			
0.8310	53185.37	3.5150	3.5150	0.3229	25.90	-0.06	0.750			
0.8319	53244.35	3.5120	3.5121	0.3106	25.90	-0.06	0.750			
0.8329	53303.03	3.5090	3.5090	0.3012	25.91	-0.05	0.750			
0.8337	53359.26	3.5060	3.5060	0.2916	25.91	-0.05	0.750			
0.8346	53414.28	3.5030	3.5031	0.2842	25.91	-0.05	0.750			
0.8354	53468.17	3.5000	3.5001	0.2789	25.92	-0.04	0.750			
0.8363	53521.31	3.4970	3.4970	0.2728	25.92	-0.04	0.750			
0.8371	53572.95	3.4940	3.4938	0.2643	25.92	-0.04	0.750			
0.8379	53622.86	3.4910	3.4911	0.2577	25.93	-0.03	0.750			
0.8386	53671.79	3.4880	3.4881	0.2534	25.93	-0.03	0.750			
0.8394	53719.65	3.4850	3.4850	0.2479	25.93	-0.03	0.750			
0.8401	53766.31	3.4820	3.4819	0.2419	25.94	-0.02	0.750			
0.8408	53811.59	3.4790	3.4790	0.2374	25.94	-0.02	0.750			
0.8415	53857.50	3.4760	3.4760	0.2344	25.94	-0.02	0.750			
0.8422	53902.70	3.4730	3.4730	0.2318	25.95	-0.01	0.750			
0.8429	53946.79	3.4700	3.4699	0.2264	25.95	-0.01	0.750			
0.8436	53989.74	3.4670	3.4671	0.2220	25.95	-0.01	0.750			
0.8442	54031.57	3.4640	3.4641	0.2177	25.95	-0.01	0.750			
0.8449	54073.24	3.4610	3.4608	0.2132	25.96	-0.00	0.750			
0.8455	54113.77	3.4580	3.4580	0.2084	25.96	-0.00	0.750			
0.8461	54153.15	3.4550	3.4551	0.2035	25.96	0.00	0.750			
0.8468	54192.09	3.4520	3.4521	0.1994	25.96	0.00	0.750			
0.8473	54229.83	3.4490	3.4489	0.1947	25.97	0.01	0.750			
0.8479	54266.81	3.4460	3.4460	0.1899	25.97	0.01	0.750			
0.8485	54302.56	3.4430	3.4430	0.1848	25.97	0.01	0.750			
0.8490	54337.43	3.4400	3.4400	0.1803	25.97	0.01	0.750			
0.8496	54371.89	3.4370	3.4371	0.1763	25.97	0.01	0.750			
0.8501	54405.31	3.4340	3.4339	0.1716	25.98	0.02	0.750			
0.8506	54437.80	3.4310	3.4310	0.1669	25.98	0.02	0.750			
0.8511	54469.28	3.4280	3.4280	0.1626	25.98	0.02	0.750			
0.8516	54500.40	3.4250	3.4250	0.1574	25.98	0.02	0.750			
0.8520	54530.32	3.4220	3.4219	0.1526	25.98	0.02	0.750			
0.8525	54558.98	3.4190	3.4190	0.1473	25.99	0.03	0.750			
0.8529	54586.76	3.4160	3.4161	0.1419	25.99	0.03	0.750			
0.8533	54613.50	3.4130	3.4131	0.1367	25.99	0.03	0.750			
0.8537	54639.40	3.4100	3.4098	0.1309	25.99	0.03	0.750			
0.8541	54663.97	3.4070	3.4068	0.1251	25.99	0.03	0.750			
0.8545	54687.46	3.4040	3.4041	0.1188	25.99	0.03	0.750			
0.8548	54709.70	3.4010	3.4013	0.1128	26.00	0.04	0.750			
0.8552	54731.30	3.3980	3.3979	0.1070	26.00	0.04	0.750			
0.8555	54752.52	3.3950	3.3948	0.0973	26.00	0.04	0.750			
0.8558	54770.22	3.3920	3.3921	0.0871	26.00	0.04	0.750			
0.8560	54786.79	3.3890	3.3893	0.0783	26.00	0.04	0.750			
0.8563	54800.75	3.3860	3.3865	0.0672	26.00	0.04	0.750			
0.8565	54814.27	3.3830	3.3832	0.0563	26.00	0.04	0.750			
0.8566	54823.81	3.3800	3.3807	0.0431	26.00	0.04	0.750			
0.8567	54830.82	3.3770	3.3781	0.0299	26.00	0.04	0.750			
0.8568	54835.31	3.3740	3.3762	0.0168	26.00	0.04	0.750			
