Ah_balance (normalized)	Ah_balance (mAh)	Voltage - fit (V)	Voltage -  interpolate (V)	dQ/dV (1/V)	Temperature (°C)	Temperature - diff (°C)	Current (C)	R_DC 0ms (mOhm)	R_DC 50ms (mOhm)	R_DC 50 ms PEC (mOhm)
0.0004	26.55	4.1640	4.1638	-0.1307	25.82	0.03	-0.750			
0.0009	58.32	4.1610	4.1609	-0.1832	25.82	0.03	-0.750			
0.0015	98.78	4.1580	4.1579	-0.2269	25.82	0.03	-0.750			
0.0023	145.98	4.1550	4.1550	-0.2713	25.82	0.03	-0.750			
0.0032	202.21	4.1520	4.1521	-0.3156	25.81	0.02	-0.750			
0.0042	268.29	4.1490	4.1489	-0.3563	25.81	0.02	-0.750			
0.0053	340.11	4.1460	4.1461	-0.3984	25.81	0.02	-0.750			
0.0066	422.04	4.1430	4.1429	-0.4332	25.80	0.01	-0.750			
0.0080	509.64	4.1400	4.1400	-0.4670	25.80	0.01	-0.750			
0.0094	603.93	4.1370	4.1369	-0.4966	25.79	0.00	-0.750			
0.0110	701.24	4.1340	4.1340	-0.5215	25.79	-0.00	-0.750			
0.0126	804.79	4.1310	4.1310	-0.5450	25.78	-0.01	-0.750			
0.0143	912.46	4.1280	4.1280	-0.5654	25.78	-0.01	-0.750			
0.0160	1021.28	4.1250	4.1250	-0.5879	25.77	-0.02	-0.750			
0.0178	1138.47	4.1220	4.1219	-0.6091	25.77	-0.02	-0.750			
0.0197	1258.14	4.1190	4.1189	-0.6233	25.76	-0.03	-0.750			
0.0216	1380.70	4.1160	4.1159	-0.6331	25.75	-0.04	-0.750			
0.0235	1504.93	4.1130	4.1131	-0.6419	25.75	-0.04	-0.750			
0.0254	1628.27	4.1100	4.1100	-0.6549	25.74	-0.05	-0.750			
0.0274	1753.35	4.1070	4.1070	-0.6655	25.74	-0.05	-0.750			
0.0294	1880.92	4.1040	4.1039	-0.6686	25.73	-0.06	-0.750			
0.0314	2012.45	4.1010	4.1010	-0.6806	25.73	-0.06	-0.750			
0.0335	2145.83	4.0980	4.0980	-0.6912	25.72	-0.07	-0.750			
0.0356	2278.88	4.0950	4.0952	-0.6990	25.72	-0.07	-0.750			
0.0377	2414.73	4.0920	4.0919	-0.7032	25.72	-0.07	-0.750			
0.0398	2546.92	4.0890	4.0890	-0.7125	25.71	-0.08	-0.750			
0.0420	2686.36	4.0860	4.0860	-0.7132	25.71	-0.08	-0.750			
0.0442	2826.00	4.0830	4.0829	-0.7168	25.71	-0.08	-0.750			
0.0463	2964.49	4.0800	4.0799	-0.7205	25.70	-0.09	-0.750			
0.0485	3100.90	4.0770	4.0771	-0.7232	25.70	-0.09	-0.750			
0.0506	3239.04	4.0740	4.0739	-0.7298	25.70	-0.09	-0.750			
0.0528	3379.18	4.0710	4.0709	-0.7364	25.70	-0.09	-0.750			
0.0550	3520.21	4.0680	4.0680	-0.7374	25.69	-0.10	-0.750			
0.0573	3667.35	4.0650	4.0650	-0.7431	25.69	-0.10	-0.750			
0.0596	3812.15	4.0620	4.0621	-0.7418	25.69	-0.10	-0.750			
0.0618	3952.34	4.0590	4.0590	-0.7387	25.69	-0.10	-0.750			
0.0639	4090.78	4.0560	4.0560	-0.7347	25.69	-0.10	-0.750			
0.0661	4232.08	4.0530	4.0530	-0.7452	25.69	-0.10	-0.750			
0.0684	4376.00	4.0500	4.0499	-0.7465	25.68	-0.11	-0.750			
0.0707	4522.31	4.0470	4.0470	-0.7545	25.68	-0.11	-0.750			
0.0729	4668.55	4.0440	4.0443	-0.7536	25.68	-0.11	-0.750			
0.0752	4813.60	4.0410	4.0410	-0.7557	25.68	-0.11	-0.750			
0.0775	4957.42	4.0380	4.0379	-0.7580	25.68	-0.11	-0.750			
0.0797	5100.93	4.0350	4.0350	-0.7558	25.68	-0.11	-0.750			
0.0820	5249.48	4.0320	4.0319	-0.7568	25.68	-0.11	-0.750			
0.0843	5393.76	4.0290	4.0290	-0.7553	25.68	-0.11	-0.750			
0.0865	5537.83	4.0260	4.0260	-0.7589	25.68	-0.11	-0.750			
0.0888	5683.09	4.0230	4.0228	-0.7631	25.68	-0.11	-0.750			
0.0911	5827.83	4.0200	4.0200	-0.7619	25.68	-0.11	-0.750			
0.0934	5974.58	4.0170	4.0171	-0.7659	25.68	-0.11	-0.750			
0.0957	6125.96	4.0140	4.0140	-0.7768	25.68	-0.11	-0.750			
0.0981	6276.78	4.0110	4.0110	-0.7796	25.68	-0.11	-0.750			
0.1004	6424.04	4.0080	4.0080	-0.7746	25.68	-0.11	-0.750			
0.1027	6572.76	4.0050	4.0050	-0.7788	25.68	-0.11	-0.750			
0.1051	6723.47	4.0020	4.0020	-0.7790	25.68	-0.11	-0.750			
0.1074	6873.78	3.9990	3.9989	-0.7808	25.68	-0.11	-0.750			
0.1097	7022.47	3.9960	3.9962	-0.7816	25.68	-0.11	-0.750			
0.1121	7173.86	3.9930	3.9929	-0.7774	25.68	-0.11	-0.750			
0.1144	7322.45	3.9900	3.9899	-0.7770	25.68	-0.11	-0.750			
0.1167	7470.22	3.9870	3.9871	-0.7767	25.68	-0.11	-0.750			
0.1190	7618.52	3.9840	3.9840	-0.7790	25.68	-0.11	-0.750			
0.1214	7770.54	3.9810	3.9809	-0.7850	25.68	-0.11	-0.750			
0.1238	7921.00	3.9780	3.9781	-0.7863	25.68	-0.11	-0.750			
0.1261	8069.31	3.9750	3.9750	-0.7957	25.69	-0.10	-0.750			
0.1285	8226.54	3.9720	3.9720	-0.7985	25.69	-0.10	-0.750			
0.1309	8380.38	3.9690	3.9689	-0.7973	25.69	-0.10	-0.750			
0.1333	8533.39	3.9660	3.9660	-0.7984	25.70	-0.09	-0.750			
0.1357	8687.12	3.9630	3.9632	-0.7994	25.70	-0.09	-0.750			
0.1381	8839.35	3.9600	3.9599	-0.8015	25.70	-0.09	-0.750			
0.1405	8991.72	3.9570	3.9569	-0.8022	25.70	-0.09	-0.750			
0.1429	9144.90	3.9540	3.9541	-0.8016	25.70	-0.09	-0.750			
0.1454	9303.50	3.9510	3.9509	-0.8112	25.70	-0.09	-0.750			
0.1478	9458.85	3.9480	3.9482	-0.8170	25.70	-0.09	-0.750			
0.1502	9615.76	3.9450	3.9451	-0.8208	25.70	-0.09	-0.750			
0.1527	9773.99	3.9420	3.9419	-0.8281	25.71	-0.08	-0.750			
0.1552	9935.36	3.9390	3.9389	-0.8251	25.71	-0.08	-0.750			
0.1577	10093.31	3.9360	3.9360	-0.8270	25.72	-0.07	-0.750			
0.1602	10252.13	3.9330	3.9334	-0.8278	25.72	-0.07	-0.750			
0.1627	10412.21	3.9300	3.9298	-0.8275	25.72	-0.07	-0.750			
0.1651	10568.85	3.9270	3.9269	-0.8260	25.72	-0.07	-0.750			
0.1676	10726.46	3.9240	3.9240	-0.8246	25.72	-0.07	-0.750			
0.1701	10887.48	3.9210	3.9210	-0.8348	25.72	-0.07	-0.750			
0.1726	11047.86	3.9180	3.9182	-0.8337	25.72	-0.07	-0.750			
0.1751	11205.48	3.9150	3.9150	-0.8330	25.73	-0.06	-0.750			
0.1776	11366.13	3.9120	3.9120	-0.8417	25.73	-0.06	-0.750			
0.1801	11529.31	3.9090	3.9089	-0.8417	25.74	-0.05	-0.750			
0.1827	11692.60	3.9060	3.9059	-0.8471	25.74	-0.05	-0.750			
0.1852	11855.12	3.9030	3.9033	-0.8465	25.75	-0.04	-0.750			
0.1878	12018.10	3.9000	3.9000	-0.8453	25.75	-0.04	-0.750			
0.1903	12180.23	3.8970	3.8969	-0.8474	25.75	-0.04	-0.750			
0.1928	12339.76	3.8940	3.8941	-0.8444	25.75	-0.04	-0.750			
0.1954	12504.12	3.8910	3.8909	-0.8522	25.75	-0.04	-0.750			
0.1979	12667.53	3.8880	3.8881	-0.8571	25.75	-0.04	-0.750			
0.2005	12833.10	3.8850	3.8849	-0.8560	25.75	-0.04	-0.750			
0.2031	12999.17	3.8820	3.8820	-0.8590	25.76	-0.03	-0.750			
0.2057	13165.71	3.8790	3.8790	-0.8570	25.76	-0.03	-0.750			
0.2083	13330.17	3.8760	3.8760	-0.8560	25.77	-0.02	-0.750			
0.2108	13493.42	3.8730	3.8731	-0.8522	25.77	-0.02	-0.750			
0.2133	13654.00	3.8700	3.8700	-0.8568	25.77	-0.02	-0.750			
0.2159	13818.70	3.8670	3.8669	-0.8567	25.77	-0.02	-0.750			
0.2185	13983.03	3.8640	3.8640	-0.8579	25.77	-0.02	-0.750			
0.2211	14152.03	3.8610	3.8609	-0.8658	25.77	-0.02	-0.750			
0.2237	14319.76	3.8580	3.8581	-0.8670	25.77	-0.02	-0.750			
0.2263	14485.87	3.8550	3.8549	-0.8680	25.78	-0.01	-0.750			
0.2289	14650.93	3.8520	3.8520	-0.8643	25.78	-0.01	-0.750			
0.2315	14812.86	3.8490	3.8490	-0.8672	25.78	-0.01	-0.750			
0.2341	14982.27	3.8460	3.8461	-0.8830	25.79	-0.00	-0.750			
0.2368	15152.49	3.8430	3.8428	-0.8880	25.79	0.00	-0.750			
0.2395	15325.12	3.8400	3.8399	-0.8919	25.79	0.00	-0.750			
0.2422	15499.11	3.8370	3.8372	-0.8915	25.80	0.01	-0.750			
0.2449	15670.68	3.8340	3.8340	-0.8854	25.80	0.01	-0.750			
0.2475	15842.98	3.8310	3.8311	-0.8832	25.80	0.01	-0.750			
0.2501	16009.04	3.8280	3.8280	-0.8771	25.80	0.01	-0.750			
0.2527	16173.96	3.8250	3.8250	-0.8737	25.80	0.01	-0.750			
0.2554	16342.56	3.8220	3.8219	-0.8697	25.81	0.02	-0.750			
0.2580	16510.02	3.8190	3.8189	-0.8718	25.81	0.02	-0.750			
0.2606	16677.24	3.8160	3.8163	-0.8682	25.81	0.02	-0.750			
0.2632	16844.38	3.8130	3.8129	-0.8679	25.82	0.03	-0.750			
0.2658	17010.05	3.8100	3.8100	-0.8683	25.82	0.03	-0.750			
0.2684	17176.75	3.8070	3.8068	-0.8653	25.83	0.04	-0.750			
0.2710	17343.04	3.8040	3.8040	-0.8622	25.84	0.05	-0.750			
0.2736	17509.00	3.8010	3.8010	-0.8631	25.84	0.05	-0.750			
0.2761	17673.08	3.7980	3.7981	-0.8649	25.84	0.05	-0.750			
0.2787	17839.76	3.7950	3.7949	-0.8663	25.84	0.05	-0.750			
0.2813	18003.21	3.7920	3.7920	-0.8643	25.85	0.06	-0.750			
0.2839	18171.81	3.7890	3.7890	-0.8684	25.85	0.06	-0.750			
0.2866	18340.52	3.7860	3.7860	-0.8693	25.85	0.06	-0.750			
0.2892	18507.28	3.7830	3.7830	-0.8705	25.86	0.07	-0.750			
0.2918	18673.97	3.7800	3.7799	-0.8616	25.86	0.07	-0.750			
0.2943	18837.54	3.7770	3.7770	-0.8615	25.86	0.07	-0.750			
0.2969	19003.94	3.7740	3.7739	-0.8596	25.87	0.08	-0.750			
0.2995	19168.97	3.7710	3.7709	-0.8571	25.87	0.08	-0.750			
0.3021	19333.64	3.7680	3.7680	-0.8581	25.87	0.08	-0.750			
0.3047	19498.15	3.7650	3.7651	-0.8541	25.88	0.09	-0.750			
0.3072	19660.24	3.7620	3.7620	-0.8525	25.88	0.09	-0.750			
0.3098	19826.81	3.7590	3.7591	-0.8575	25.88	0.09	-0.750			
0.3123	19990.08	3.7560	3.7559	-0.8525	25.88	0.09	-0.750			
0.3149	20153.94	3.7530	3.7530	-0.8569	25.88	0.09	-0.750			
0.3175	20317.96	3.7500	3.7500	-0.8553	25.89	0.10	-0.750			
0.3200	20481.10	3.7470	3.7470	-0.8554	25.89	0.10	-0.750			
0.3226	20647.39	3.7440	3.7441	-0.8602	25.89	0.10	-0.750			
0.3252	20811.04	3.7410	3.7410	-0.8641	25.89	0.10	-0.750			
0.3278	20977.10	3.7380	3.7380	-0.8689	25.90	0.11	-0.750			
0.3304	21144.27	3.7350	3.7350	-0.8768	25.90	0.11	-0.750			
0.3330	21312.90	3.7320	3.7320	-0.8826	25.91	0.12	-0.750			
0.3357	21483.88	3.7290	3.7292	-0.8879	25.91	0.12	-0.750			
0.3384	21654.67	3.7260	3.7260	-0.8946	25.91	0.12	-0.750			
0.3410	21826.69	3.7230	3.7230	-0.9039	25.91	0.12	-0.750			
0.3437	21999.71	3.7200	3.7199	-0.9074	25.92	0.13	-0.750			
0.3465	22174.43	3.7170	3.7170	-0.9255	25.92	0.13	-0.750			
0.3493	22352.24	3.7140	3.7141	-0.9412	25.92	0.13	-0.750			
0.3521	22534.42	3.7110	3.7109	-0.9637	25.92	0.13	-0.750			
0.3550	22722.18	3.7080	3.7080	-0.9792	25.93	0.14	-0.750			
0.3580	22911.89	3.7050	3.7050	-0.9935	25.93	0.14	-0.750			
0.3610	23103.95	3.7020	3.7021	-1.0102	25.93	0.14	-0.750			
0.3641	23300.52	3.6990	3.6989	-1.0262	25.93	0.14	-0.750			
0.3671	23496.15	3.6960	3.6960	-1.0437	25.93	0.14	-0.750			
0.3703	23696.73	3.6930	3.6929	-1.0587	25.93	0.14	-0.750			
0.3735	23901.61	3.6900	3.6901	-1.0877	25.93	0.14	-0.750			
0.3768	24114.63	3.6870	3.6870	-1.1091	25.93	0.14	-0.750			
0.3802	24330.86	3.6840	3.6840	-1.1312	25.92	0.13	-0.750			
0.3836	24547.44	3.6810	3.6810	-1.1558	25.92	0.13	-0.750			
0.3871	24773.32	3.6780	3.6780	-1.1856	25.92	0.13	-0.750			
0.3907	25002.18	3.6750	3.6749	-1.2048	25.92	0.13	-0.750			
0.3943	25237.27	3.6720	3.6720	-1.2338	25.91	0.12	-0.750			
0.3981	25475.27	3.6690	3.6692	-1.2619	25.91	0.12	-0.750			
0.4019	25723.07	3.6660	3.6660	-1.2894	25.90	0.11	-0.750			
0.4058	25973.12	3.6630	3.6629	-1.3137	25.90	0.11	-0.750			
0.4098	26225.90	3.6600	3.6601	-1.3464	25.89	0.10	-0.750			
0.4138	26486.36	3.6570	3.6570	-1.3840	25.88	0.09	-0.750			
0.4181	26756.37	3.6540	3.6539	-1.4181	25.88	0.09	-0.750			
0.4224	27031.19	3.6510	3.6511	-1.4567	25.87	0.08	-0.750			
0.4268	27315.30	3.6480	3.6481	-1.4887	25.86	0.07	-0.750			
0.4314	27607.97	3.6450	3.6449	-1.5320	25.86	0.07	-0.750			
0.4360	27903.44	3.6420	3.6421	-1.5711	25.85	0.06	-0.750			
0.4407	28207.75	3.6390	3.6389	-1.6008	25.84	0.05	-0.750			
0.4456	28516.28	3.6360	3.6360	-1.6378	25.83	0.04	-0.750			
0.4506	28837.94	3.6330	3.6329	-1.6627	25.83	0.04	-0.750			
0.4556	29159.39	3.6300	3.6299	-1.6905	25.82	0.03	-0.750			
0.4608	29488.10	3.6270	3.6270	-1.7079	25.82	0.03	-0.750	0.399	0.490	
0.4658	29812.89	3.6240	3.6239	-1.7378	25.82	0.03	-0.750			
0.4710	30147.01	3.6210	3.6209	-1.7769	25.81	0.02	-0.750			
0.4765	30495.89	3.6180	3.6181	-1.8246	25.80	0.01	-0.750			
0.4820	30850.17	3.6150	3.6149	-1.8614	25.79	-0.00	-0.750			
0.4877	31212.25	3.6120	3.6121	-1.8984	25.78	-0.01	-0.750			
0.4935	31584.80	3.6090	3.6091	-1.9262	25.77	-0.02	-0.750			
0.4994	31961.33	3.6060	3.6059	-1.9551	25.77	-0.02	-0.750			
0.5052	32332.98	3.6030	3.6031	-1.9776	25.76	-0.03	-0.750			
0.5111	32711.80	3.6000	3.6001	-2.0207	25.75	-0.04	-0.750			
0.5173	33104.93	3.5970	3.5969	-2.0636	25.75	-0.04	-0.750			
0.5235	33506.35	3.5940	3.5941	-2.1139	25.75	-0.04	-0.750			
0.5299	33915.68	3.5910	3.5908	-2.1584	25.74	-0.05	-0.750			
0.5366	34339.30	3.5880	3.5881	-2.2034	25.74	-0.05	-0.750			
0.5432	34766.98	3.5850	3.5849	-2.2313	25.73	-0.06	-0.750			
0.5500	35199.12	3.5820	3.5820	-2.2503	25.73	-0.06	-0.750			
0.5568	35636.67	3.5790	3.5789	-2.2714	25.72	-0.07	-0.750			
0.5637	36075.15	3.5760	3.5761	-2.2938	25.72	-0.07	-0.750			
0.5706	36515.28	3.5730	3.5731	-2.3127	25.72	-0.07	-0.750			
0.5776	36963.86	3.5700	3.5699	-2.3288	25.72	-0.07	-0.750			
0.5846	37413.84	3.5670	3.5669	-2.3367	25.72	-0.07	-0.750			
0.5917	37868.74	3.5640	3.5641	-2.3439	25.72	-0.07	-0.750			
0.5987	38319.93	3.5610	3.5611	-2.3410	25.72	-0.07	-0.750			
0.6057	38765.74	3.5580	3.5579	-2.3426	25.72	-0.07	-0.750			
0.6127	39211.21	3.5550	3.5550	-2.3382	25.72	-0.07	-0.750			
0.6198	39665.41	3.5520	3.5518	-2.3308	25.72	-0.07	-0.750			
0.6268	40116.91	3.5490	3.5491	-2.3227	25.73	-0.06	-0.750			
0.6338	40562.20	3.5460	3.5461	-2.3026	25.74	-0.05	-0.750			
0.6407	41001.81	3.5430	3.5430	-2.2963	25.74	-0.05	-0.750			
0.6475	41439.67	3.5400	3.5398	-2.2602	25.75	-0.04	-0.750			
0.6543	41875.95	3.5370	3.5370	-2.2342	25.76	-0.03	-0.750			
0.6611	42308.20	3.5340	3.5341	-2.1998	25.77	-0.02	-0.750			
0.6677	42730.74	3.5310	3.5310	-2.1589	25.78	-0.01	-0.750			
0.6740	43135.71	3.5280	3.5279	-2.0937	25.79	0.00	-0.750			
0.6802	43531.06	3.5250	3.5250	-2.0384	25.79	0.00	-0.750			
0.6862	43916.05	3.5220	3.5219	-1.9844	25.79	0.00	-0.750			
0.6921	44296.06	3.5190	3.5190	-1.9363	25.80	0.01	-0.750			
0.6979	44665.62	3.5160	3.5160	-1.8700	25.81	0.02	-0.750			
0.7034	45019.39	3.5130	3.5132	-1.8118	25.83	0.04	-0.750			
0.7088	45361.87	3.5100	3.5100	-1.7472	25.85	0.06	-0.750			
0.7139	45690.88	3.5070	3.5069	-1.6785	25.86	0.07	-0.750			
0.7188	46006.37	3.5040	3.5041	-1.6102	25.88	0.09	-0.750			
0.7236	46311.31	3.5010	3.5011	-1.5651	25.89	0.10	-0.750			
0.7282	46602.53	3.4980	3.4979	-1.5021	25.91	0.12	-0.750			
0.7326	46883.78	3.4950	3.4949	-1.4570	25.92	0.13	-0.750			
0.7368	47156.72	3.4920	3.4921	-1.4008	25.94	0.15	-0.750			
0.7410	47425.53	3.4890	3.4889	-1.3580	25.95	0.16	-0.750			
0.7450	47680.20	3.4860	3.4859	-1.3128	25.96	0.17	-0.750			
0.7488	47926.06	3.4830	3.4831	-1.2687	25.98	0.19	-0.750			
0.7526	48167.74	3.4800	3.4799	-1.2306	25.99	0.20	-0.750			
0.7563	48400.03	3.4770	3.4769	-1.1856	26.01	0.22	-0.750			
0.7597	48622.64	3.4740	3.4742	-1.1406	26.03	0.24	-0.750			
0.7631	48840.70	3.4710	3.4710	-1.1158	26.04	0.25	-0.750			
0.7664	49050.89	3.4680	3.4679	-1.0750	26.05	0.26	-0.750			
0.7695	49251.02	3.4650	3.4649	-1.0338	26.06	0.27	-0.750			
0.7726	49445.87	3.4620	3.4622	-1.0088	26.07	0.28	-0.750			
0.7755	49634.42	3.4590	3.4590	-0.9825	26.08	0.29	-0.750			
0.7784	49820.49	3.4560	3.4559	-0.9582	26.09	0.30	-0.750			
0.7812	49999.74	3.4530	3.4530	-0.9400	26.10	0.31	-0.750			
0.7840	50176.88	3.4500	3.4500	-0.9313	26.11	0.32	-0.750			
0.7868	50354.25	3.4470	3.4470	-0.9303	26.12	0.33	-0.750			
0.7895	50529.63	3.4440	3.4440	-0.9412	26.13	0.34	-0.750			
0.7923	50706.32	3.4410	3.4410	-0.9705	26.14	0.35	-0.750			
0.7952	50892.58	3.4380	3.4380	-1.0026	26.15	0.36	-0.750			
0.7983	51088.16	3.4350	3.4350	-1.0524	26.16	0.37	-0.750			
0.8015	51297.34	3.4320	3.4319	-1.0890	26.17	0.38	-0.750			
0.8049	51515.18	3.4290	3.4290	-1.1224	26.18	0.39	-0.750			
0.8084	51735.53	3.4260	3.4259	-1.1416	26.19	0.40	-0.750			
0.8119	51960.46	3.4230	3.4229	-1.1548	26.19	0.40	-0.750			
0.8154	52184.36	3.4200	3.4199	-1.1482	26.20	0.41	-0.750			
0.8189	52408.37	3.4170	3.4170	-1.1266	26.20	0.41	-0.750			
0.8222	52621.88	3.4140	3.4142	-1.0959	26.21	0.42	-0.750			
0.8255	52833.12	3.4110	3.4110	-1.0673	26.22	0.43	-0.750			
0.8287	53035.26	3.4080	3.4079	-1.0287	26.23	0.44	-0.750			
0.8317	53226.36	3.4050	3.4050	-0.9871	26.24	0.45	-0.750			
0.8346	53412.59	3.4020	3.4020	-0.9559	26.25	0.46	-0.750			
0.8374	53591.62	3.3990	3.3990	-0.9192	26.26	0.47	-0.750			
0.8401	53765.53	3.3960	3.3959	-0.8846	26.26	0.47	-0.750			
0.8427	53930.61	3.3930	3.3930	-0.8483	26.27	0.48	-0.750			
0.8452	54090.63	3.3900	3.3900	-0.8140	26.27	0.48	-0.750			
0.8476	54243.75	3.3870	3.3871	-0.7848	26.28	0.49	-0.750			
0.8499	54391.01	3.3840	3.3839	-0.7539	26.29	0.50	-0.750			
0.8521	54531.40	3.3810	3.3810	-0.7215	26.30	0.51	-0.750			
0.8542	54667.48	3.3780	3.3779	-0.6978	26.31	0.52	-0.750			
0.8563	54800.41	3.3750	3.3750	-0.6712	26.31	0.52	-0.750			
0.8582	54925.75	3.3720	3.3719	-0.6434	26.32	0.53	-0.750			
0.8601	55046.83	3.3690	3.3693	-0.6192	26.33	0.54	-0.750			
0.8619	55162.80	3.3660	3.3659	-0.5886	26.34	0.55	-0.750			
0.8636	55272.35	3.3630	3.3629	-0.5632	26.34	0.55	-0.750			
0.8653	55377.79	3.3600	3.3601	-0.5384	26.35	0.56	-0.750			
0.8669	55478.60	3.3570	3.3570	-0.5195	26.35	0.56	-0.750			
0.8684	55575.64	3.3540	3.3539	-0.4968	26.36	0.57	-0.750			
0.8698	55667.74	3.3510	3.3510	-0.4746	26.36	0.57	-0.750			
0.8712	55757.26	3.3480	3.3480	-0.4576	26.37	0.58	-0.750			
0.8726	55844.83	3.3450	3.3451	-0.4415	26.37	0.58	-0.750			
0.8739	55927.05	3.3420	3.3420	-0.4216	26.38	0.59	-0.750			
0.8751	56006.08	3.3390	3.3390	-0.4039	26.38	0.59	-0.750			
0.8763	56081.65	3.3360	3.3360	-0.3849	26.39	0.60	-0.750			
0.8774	56153.64	3.3330	3.3329	-0.3690	26.39	0.60	-0.750			
0.8785	56222.18	3.3300	3.3300	-0.3554	26.40	0.61	-0.750			
0.8795	56288.73	3.3270	3.3270	-0.3413	26.40	0.61	-0.750			
0.8805	56352.88	3.3240	3.3239	-0.3296	26.41	0.62	-0.750			
0.8815	56414.89	3.3210	3.3211	-0.3182	26.41	0.62	-0.750			
0.8824	56475.35	3.3180	3.3180	-0.3070	26.42	0.63	-0.750			
0.8833	56533.05	3.3150	3.3149	-0.2959	26.42	0.63	-0.750			
0.8842	56588.35	3.3120	3.3121	-0.2843	26.43	0.64	-0.750			
0.8850	56641.74	3.3090	3.3091	-0.2740	26.43	0.64	-0.750			
0.8858	56693.52	3.3060	3.3059	-0.2653	26.43	0.64	-0.750			
0.8866	56743.02	3.3030	3.3032	-0.2568	26.44	0.65	-0.750			
0.8874	56790.98	3.3000	3.3000	-0.2487	26.44	0.65	-0.750			
0.8881	56838.39	3.2970	3.2969	-0.2418	26.45	0.66	-0.750			
0.8888	56884.07	3.2940	3.2939	-0.2343	26.45	0.66	-0.750			
0.8895	56928.00	3.2910	3.2911	-0.2264	26.45	0.66	-0.750			
0.8902	56971.10	3.2880	3.2880	-0.2200	26.46	0.67	-0.750			
0.8908	57012.33	3.2850	3.2850	-0.2148	26.46	0.67	-0.750			
0.8914	57052.74	3.2820	3.2820	-0.2089	26.47	0.68	-0.750			
0.8921	57092.03	3.2790	3.2788	-0.2028	26.47	0.68	-0.750			
0.8927	57130.51	3.2760	3.2761	-0.1981	26.47	0.68	-0.750			
0.8933	57168.22	3.2730	3.2730	-0.1933	26.48	0.69	-0.750			
0.8938	57204.71	3.2700	3.2700	-0.1895	26.48	0.69	-0.750			
0.8944	57240.41	3.2670	3.2671	-0.1856	26.48	0.69	-0.750			
0.8949	57275.70	3.2640	3.2638	-0.1820	26.49	0.70	-0.750			
0.8955	57309.74	3.2610	3.2610	-0.1786	26.49	0.70	-0.750			
0.8960	57344.08	3.2580	3.2580	-0.1753	26.49	0.70	-0.750			
0.8965	57377.82	3.2550	3.2551	-0.1719	26.49	0.70	-0.750			
0.8970	57410.19	3.2520	3.2520	-0.1683	26.50	0.71	-0.750			
0.8975	57442.26	3.2490	3.2491	-0.1647	26.50	0.71	-0.750			
0.8980	57473.10	3.2460	3.2460	-0.1617	26.50	0.71	-0.750			
0.8985	57503.58	3.2430	3.2430	-0.1589	26.51	0.72	-0.750			
0.8990	57533.90	3.2400	3.2399	-0.1570	26.51	0.72	-0.750			
0.8994	57563.71	3.2370	3.2370	-0.1543	26.52	0.73	-0.750			
0.8999	57593.41	3.2340	3.2340	-0.1523	26.52	0.73	-0.750			
0.9004	57622.57	3.2310	3.2310	-0.1503	26.53	0.74	-0.750			
0.9008	57651.16	3.2280	3.2280	-0.1475	26.53	0.74	-0.750			
0.9012	57679.08	3.2250	3.2249	-0.1449	26.53	0.74	-0.750			
0.9017	57706.44	3.2220	3.2220	-0.1428	26.54	0.75	-0.750			
0.9021	57733.44	3.2190	3.2192	-0.1413	26.54	0.75	-0.750			
0.9025	57760.45	3.2160	3.2159	-0.1401	26.55	0.76	-0.750			
0.9029	57787.27	3.2130	3.2130	-0.1385	26.55	0.76	-0.750			
0.9033	57813.80	3.2100	3.2100	-0.1367	26.55	0.76	-0.750			
0.9037	57839.96	3.2070	3.2071	-0.1351	26.56	0.77	-0.750			
0.9042	57865.64	3.2040	3.2040	-0.1338	26.56	0.77	-0.750			
0.9046	57891.31	3.2010	3.2010	-0.1323	26.56	0.77	-0.750			
0.9049	57916.47	3.1980	3.1980	-0.1304	26.57	0.78	-0.750			
0.9053	57941.02	3.1950	3.1948	-0.1288	26.57	0.78	-0.750			
0.9057	57965.67	3.1920	3.1921	-0.1279	26.58	0.79	-0.750			
0.9061	57990.31	3.1890	3.1890	-0.1267	26.58	0.79	-0.750			
0.9065	58014.60	3.1860	3.1859	-0.1255	26.58	0.79	-0.750			
0.9069	58038.54	3.1830	3.1831	-0.1241	26.59	0.80	-0.750			
0.9072	58062.14	3.1800	3.1800	-0.1226	26.59	0.80	-0.750			
0.9076	58085.49	3.1770	3.1770	-0.1215	26.59	0.80	-0.750			
0.9080	58108.83	3.1740	3.1740	-0.1205	26.60	0.81	-0.750			
0.9083	58131.74	3.1710	3.1710	-0.1195	26.60	0.81	-0.750			
0.9087	58154.32	3.1680	3.1680	-0.1182	26.60	0.81	-0.750			
0.9090	58176.98	3.1650	3.1650	-0.1174	26.61	0.82	-0.750			
0.9094	58199.49	3.1620	3.1620	-0.1166	26.61	0.82	-0.750			
0.9097	58221.83	3.1590	3.1590	-0.1157	26.62	0.83	-0.750			
0.9101	58244.01	3.1560	3.1561	-0.1148	26.62	0.83	-0.750			
0.9104	58265.96	3.1530	3.1530	-0.1139	26.62	0.83	-0.750			
0.9107	58287.73	3.1500	3.1500	-0.1130	26.63	0.84	-0.750			
0.9111	58309.37	3.1470	3.1470	-0.1118	26.63	0.84	-0.750			
0.9114	58330.78	3.1440	3.1440	-0.1108	26.64	0.85	-0.750			
0.9117	58351.86	3.1410	3.1410	-0.1099	26.64	0.85	-0.750			
0.9121	58372.84	3.1380	3.1380	-0.1090	26.65	0.86	-0.750			
0.9124	58393.66	3.1350	3.1350	-0.1082	26.65	0.86	-0.750			
0.9127	58414.29	3.1320	3.1320	-0.1073	26.65	0.86	-0.750			
0.9130	58434.83	3.1290	3.1290	-0.1064	26.66	0.87	-0.750			
0.9134	58455.14	3.1260	3.1261	-0.1056	26.66	0.87	-0.750			
0.9137	58475.35	3.1230	3.1230	-0.1049	26.66	0.87	-0.750			
0.9140	58495.51	3.1200	3.1200	-0.1043	26.67	0.88	-0.750			
0.9143	58515.36	3.1170	3.1170	-0.1038	26.67	0.88	-0.750			
0.9146	58535.10	3.1140	3.1139	-0.1031	26.68	0.89	-0.750			
0.9149	58554.92	3.1110	3.1110	-0.1025	26.68	0.89	-0.750			
0.9152	58574.55	3.1080	3.1080	-0.1020	26.68	0.89	-0.750			
0.9155	58594.09	3.1050	3.1050	-0.1015	26.69	0.90	-0.750			
0.9158	58613.58	3.1020	3.1020	-0.1010	26.69	0.90	-0.750			
0.9161	58632.93	3.0990	3.0991	-0.1003	26.70	0.91	-0.750			
0.9164	58652.17	3.0960	3.0960	-0.0997	26.70	0.91	-0.750			
0.9167	58671.26	3.0930	3.0930	-0.0989	26.70	0.91	-0.750			
0.9170	58690.14	3.0900	3.0900	-0.0980	26.71	0.92	-0.750			
0.9173	58708.83	3.0870	3.0870	-0.0975	26.71	0.92	-0.750			
0.9176	58727.50	3.0840	3.0840	-0.0969	26.71	0.92	-0.750			
0.9179	58746.04	3.0810	3.0810	-0.0962	26.72	0.93	-0.750			
0.9182	58764.43	3.0780	3.0780	-0.0952	26.72	0.93	-0.750			
0.9185	58782.65	3.0750	3.0749	-0.0945	26.72	0.93	-0.750			
0.9188	58800.58	3.0720	3.0721	-0.0944	26.73	0.94	-0.750			
0.9190	58818.67	3.0690	3.0691	-0.0941	26.73	0.94	-0.750			
0.9193	58836.66	3.0660	3.0660	-0.0937	26.74	0.95	-0.750			
0.9196	58854.63	3.0630	3.0628	-0.0935	26.74	0.95	-0.750			
0.9199	58872.54	3.0600	3.0600	-0.0929	26.74	0.95	-0.750			
0.9202	58890.34	3.0570	3.0571	-0.0926	26.75	0.96	-0.750			
0.9204	58908.39	3.0540	3.0540	-0.0924	26.75	0.96	-0.750			
0.9207	58926.05	3.0510	3.0510	-0.0915	26.76	0.97	-0.750			
0.9210	58943.42	3.0480	3.0480	-0.0906	26.76	0.97	-0.750			
0.9213	58960.76	3.0450	3.0450	-0.0900	26.76	0.97	-0.750			
0.9215	58977.79	3.0420	3.0418	-0.0895	26.77	0.98	-0.750			
0.9218	58994.96	3.0390	3.0391	-0.0893	26.77	0.98	-0.750			
0.9221	59012.12	3.0360	3.0361	-0.0887	26.77	0.98	-0.750			
0.9223	59029.11	3.0330	3.0329	-0.0883	26.78	0.99	-0.750			
0.9226	59045.98	3.0300	3.0300	-0.0881	26.78	0.99	-0.750			
0.9229	59062.90	3.0270	3.0270	-0.0879	26.78	0.99	-0.750			
0.9231	59079.80	3.0240	3.0241	-0.0873	26.79	1.00	-0.750			
0.9234	59096.60	3.0210	3.0210	-0.0870	26.79	1.00	-0.750			
0.9236	59113.29	3.0180	3.0179	-0.0863	26.80	1.01	-0.750			
0.9239	59129.77	3.0150	3.0151	-0.0856	26.80	1.01	-0.750			
0.9242	59146.14	3.0120	3.0120	-0.0850	26.80	1.01	-0.750			
0.9244	59162.65	3.0090	3.0091	-0.0841	26.81	1.02	-0.750			
0.9247	59178.68	3.0060	3.0060	-0.0829	26.81	1.02	-0.750			
0.9249	59194.49	3.0030	3.0030	-0.0827	26.81	1.02	-0.751			
