Ah_balance (normalized)	Ah_balance (mAh)	Voltage - fit (V)	Voltage -  interpolate (V)	dQ/dV (1/V)	Temperature (°C)	Temperature - diff (°C)	Current (C)	R_DC 0ms (mOhm)	R_DC 50ms (mOhm)	R_DC 50 ms PEC (mOhm)
0.0004	22.60	4.1630	4.1628	-0.1229	25.83	0.01	-0.750			
0.0008	50.72	4.1600	4.1599	-0.1678	25.83	0.01	-0.750			
0.0014	87.96	4.1570	4.1570	-0.2112	25.83	0.01	-0.750			
0.0021	133.00	4.1540	4.1539	-0.2512	25.83	0.01	-0.750			
0.0029	185.42	4.1510	4.1510	-0.2898	25.82	0.00	-0.750			
0.0038	245.90	4.1480	4.1479	-0.3287	25.82	0.00	-0.750			
0.0049	312.61	4.1450	4.1450	-0.3637	25.82	-0.00	-0.750			
0.0060	386.28	4.1420	4.1420	-0.3983	25.82	-0.00	-0.750			
0.0073	466.75	4.1390	4.1389	-0.4303	25.81	-0.01	-0.750			
0.0086	552.61	4.1360	4.1360	-0.4607	25.81	-0.01	-0.750			
0.0101	645.36	4.1330	4.1330	-0.4896	25.81	-0.01	-0.750			
0.0116	741.91	4.1300	4.1300	-0.5151	25.80	-0.02	-0.750			
0.0132	844.97	4.1270	4.1270	-0.5361	25.80	-0.02	-0.750			
0.0149	950.48	4.1240	4.1240	-0.5519	25.79	-0.03	-0.750			
0.0165	1058.92	4.1210	4.1210	-0.5676	25.79	-0.03	-0.750			
0.0183	1168.93	4.1180	4.1181	-0.5826	25.79	-0.03	-0.750			
0.0200	1281.96	4.1150	4.1150	-0.5944	25.78	-0.04	-0.750			
0.0218	1396.80	4.1120	4.1120	-0.6083	25.78	-0.04	-0.750			
0.0237	1514.99	4.1090	4.1091	-0.6217	25.78	-0.04	-0.750			
0.0256	1637.14	4.1060	4.1060	-0.6341	25.78	-0.04	-0.750			
0.0275	1759.81	4.1030	4.1029	-0.6426	25.77	-0.05	-0.750			
0.0294	1884.30	4.1000	4.1003	-0.6503	25.77	-0.05	-0.750			
0.0314	2010.28	4.0970	4.0970	-0.6544	25.77	-0.05	-0.750			
0.0334	2136.94	4.0940	4.0940	-0.6624	25.76	-0.06	-0.750			
0.0354	2264.58	4.0910	4.0910	-0.6690	25.76	-0.06	-0.750			
0.0374	2394.33	4.0880	4.0880	-0.6728	25.76	-0.06	-0.750			
0.0394	2523.92	4.0850	4.0850	-0.6779	25.75	-0.07	-0.750			
0.0415	2654.30	4.0820	4.0821	-0.6820	25.75	-0.07	-0.750			
0.0435	2786.19	4.0790	4.0789	-0.6849	25.75	-0.07	-0.750			
0.0456	2919.02	4.0760	4.0760	-0.6850	25.75	-0.07	-0.750			
0.0476	3048.12	4.0730	4.0731	-0.6905	25.75	-0.07	-0.750			
0.0497	3180.31	4.0700	4.0701	-0.6958	25.74	-0.08	-0.750			
0.0518	3316.32	4.0670	4.0669	-0.7028	25.74	-0.08	-0.750			
0.0539	3451.17	4.0640	4.0640	-0.7057	25.74	-0.08	-0.750			
0.0561	3587.44	4.0610	4.0611	-0.7105	25.74	-0.08	-0.750			
0.0582	3724.69	4.0580	4.0580	-0.7162	25.73	-0.09	-0.750			
0.0604	3864.46	4.0550	4.0549	-0.7184	25.73	-0.09	-0.750			
0.0625	4000.85	4.0520	4.0520	-0.7152	25.73	-0.09	-0.750			
0.0647	4139.44	4.0490	4.0490	-0.7149	25.72	-0.10	-0.750			
0.0668	4275.40	4.0460	4.0461	-0.7196	25.72	-0.10	-0.750			
0.0690	4412.99	4.0430	4.0429	-0.7226	25.72	-0.10	-0.750			
0.0711	4550.74	4.0400	4.0401	-0.7298	25.72	-0.10	-0.750			
0.0733	4692.98	4.0370	4.0369	-0.7313	25.72	-0.10	-0.750			
0.0756	4836.03	4.0340	4.0340	-0.7374	25.72	-0.10	-0.750			
0.0778	4977.85	4.0310	4.0309	-0.7370	25.72	-0.10	-0.750			
0.0800	5119.93	4.0280	4.0281	-0.7372	25.72	-0.10	-0.750			
0.0822	5258.07	4.0250	4.0249	-0.7371	25.72	-0.10	-0.750			
0.0844	5398.96	4.0220	4.0220	-0.7383	25.72	-0.10	-0.750			
0.0866	5540.68	4.0190	4.0190	-0.7382	25.72	-0.10	-0.750			
0.0888	5685.74	4.0160	4.0160	-0.7455	25.72	-0.10	-0.750			
0.0911	5829.84	4.0130	4.0131	-0.7468	25.72	-0.10	-0.750			
0.0933	5973.53	4.0100	4.0100	-0.7450	25.72	-0.10	-0.750			
0.0955	6115.03	4.0070	4.0069	-0.7449	25.72	-0.10	-0.750			
0.0978	6257.05	4.0040	4.0041	-0.7443	25.72	-0.10	-0.750			
0.1000	6400.44	4.0010	4.0010	-0.7484	25.72	-0.10	-0.750			
0.1023	6544.58	3.9980	3.9979	-0.7543	25.72	-0.10	-0.750			
0.1045	6689.39	3.9950	3.9952	-0.7577	25.72	-0.10	-0.750			
0.1068	6835.46	3.9920	3.9920	-0.7596	25.72	-0.10	-0.750			
0.1091	6981.91	3.9890	3.9890	-0.7650	25.73	-0.09	-0.750			
0.1114	7129.71	3.9860	3.9859	-0.7645	25.73	-0.09	-0.750			
0.1137	7276.64	3.9830	3.9830	-0.7667	25.74	-0.08	-0.750			
0.1160	7423.22	3.9800	3.9800	-0.7682	25.74	-0.08	-0.750			
0.1183	7570.44	3.9770	3.9770	-0.7681	25.74	-0.08	-0.750			
0.1206	7718.02	3.9740	3.9739	-0.7726	25.74	-0.08	-0.750			
0.1229	7866.47	3.9710	3.9710	-0.7728	25.74	-0.08	-0.750			
0.1252	8013.97	3.9680	3.9680	-0.7740	25.75	-0.07	-0.750			
0.1276	8165.54	3.9650	3.9650	-0.7783	25.75	-0.07	-0.750			
0.1299	8313.78	3.9620	3.9621	-0.7787	25.75	-0.07	-0.750			
0.1322	8463.03	3.9590	3.9590	-0.7792	25.75	-0.07	-0.750			
0.1346	8613.85	3.9560	3.9560	-0.7811	25.75	-0.07	-0.750			
0.1369	8762.67	3.9530	3.9529	-0.7816	25.75	-0.07	-0.750			
0.1393	8914.11	3.9500	3.9500	-0.7837	25.75	-0.07	-0.750			
0.1416	9063.44	3.9470	3.9470	-0.7852	25.75	-0.07	-0.750			
0.1440	9214.61	3.9440	3.9439	-0.7902	25.75	-0.07	-0.750			
0.1463	9366.37	3.9410	3.9411	-0.7964	25.75	-0.07	-0.750			
0.1488	9521.85	3.9380	3.9379	-0.8001	25.76	-0.06	-0.750			
0.1512	9677.71	3.9350	3.9350	-0.8043	25.76	-0.06	-0.750			
0.1536	9831.94	3.9320	3.9322	-0.7997	25.76	-0.06	-0.750			
0.1560	9985.26	3.9290	3.9288	-0.8013	25.76	-0.06	-0.750			
0.1584	10137.09	3.9260	3.9260	-0.7982	25.76	-0.06	-0.750			
0.1608	10289.66	3.9230	3.9230	-0.7975	25.77	-0.05	-0.750			
0.1631	10440.53	3.9200	3.9201	-0.7976	25.77	-0.05	-0.750			
0.1656	10598.16	3.9170	3.9169	-0.8022	25.77	-0.05	-0.750			
0.1680	10750.81	3.9140	3.9140	-0.8046	25.77	-0.05	-0.750			
0.1704	10903.92	3.9110	3.9110	-0.8125	25.78	-0.04	-0.750			
0.1728	11060.63	3.9080	3.9080	-0.8142	25.78	-0.04	-0.750			
0.1753	11217.96	3.9050	3.9049	-0.8194	25.78	-0.04	-0.750			
0.1778	11376.39	3.9020	3.9018	-0.8240	25.79	-0.03	-0.750			
0.1802	11535.36	3.8990	3.8990	-0.8276	25.79	-0.03	-0.750			
0.1827	11694.13	3.8960	3.8960	-0.8352	25.79	-0.03	-0.750			
0.1852	11854.85	3.8930	3.8929	-0.8318	25.79	-0.03	-0.750			
0.1877	12014.36	3.8900	3.8900	-0.8286	25.79	-0.03	-0.750			
0.1903	12176.84	3.8870	3.8869	-0.8331	25.79	-0.03	-0.750			
0.1928	12336.93	3.8840	3.8841	-0.8293	25.79	-0.03	-0.750			
0.1952	12494.17	3.8810	3.8810	-0.8344	25.79	-0.03	-0.750			
0.1977	12652.84	3.8780	3.8780	-0.8329	25.79	-0.03	-0.750			
0.2002	12811.36	3.8750	3.8750	-0.8340	25.80	-0.02	-0.750			
0.2027	12975.11	3.8720	3.8720	-0.8395	25.80	-0.02	-0.750			
0.2053	13137.34	3.8690	3.8690	-0.8423	25.80	-0.02	-0.750			
0.2078	13298.83	3.8660	3.8660	-0.8420	25.80	-0.02	-0.750			
0.2103	13461.30	3.8630	3.8629	-0.8366	25.80	-0.02	-0.750			
0.2128	13620.57	3.8600	3.8600	-0.8302	25.81	-0.01	-0.750			
0.2153	13779.99	3.8570	3.8569	-0.8309	25.81	-0.01	-0.750			
0.2178	13938.47	3.8540	3.8540	-0.8286	25.81	-0.01	-0.750			
0.2203	14096.56	3.8510	3.8509	-0.8353	25.82	-0.00	-0.750			
0.2228	14256.83	3.8480	3.8480	-0.8314	25.82	-0.00	-0.750			
0.2253	14416.37	3.8450	3.8450	-0.8329	25.82	0.00	-0.750			
0.2278	14578.40	3.8420	3.8420	-0.8403	25.83	0.01	-0.750			
0.2303	14740.44	3.8390	3.8390	-0.8408	25.83	0.01	-0.750			
0.2328	14901.17	3.8360	3.8359	-0.8387	25.84	0.02	-0.750			
0.2353	15061.56	3.8330	3.8330	-0.8374	25.84	0.02	-0.750			
0.2378	15221.48	3.8300	3.8301	-0.8346	25.84	0.02	-0.750			
0.2404	15384.24	3.8270	3.8268	-0.8387	25.85	0.03	-0.750			
0.2429	15544.35	3.8240	3.8241	-0.8355	25.85	0.03	-0.750			
0.2454	15703.52	3.8210	3.8210	-0.8407	25.85	0.03	-0.750			
0.2479	15867.04	3.8180	3.8180	-0.8358	25.85	0.03	-0.750			
0.2504	16026.06	3.8150	3.8150	-0.8285	25.85	0.03	-0.750			
0.2529	16187.05	3.8120	3.8120	-0.8270	25.85	0.03	-0.750			
0.2554	16345.52	3.8090	3.8088	-0.8251	25.85	0.03	-0.750			
0.2578	16501.99	3.8060	3.8060	-0.8258	25.86	0.04	-0.750			
0.2603	16659.80	3.8030	3.8030	-0.8196	25.86	0.04	-0.750			
0.2628	16816.94	3.8000	3.7999	-0.8158	25.86	0.04	-0.750			
0.2653	16976.27	3.7970	3.7970	-0.8201	25.87	0.05	-0.750			
0.2677	17132.00	3.7940	3.7940	-0.8153	25.87	0.05	-0.750			
0.2701	17287.49	3.7910	3.7910	-0.8177	25.88	0.06	-0.750			
0.2726	17443.93	3.7880	3.7880	-0.8127	25.88	0.06	-0.750			
0.2750	17599.69	3.7850	3.7850	-0.8114	25.88	0.06	-0.750			
0.2775	17758.19	3.7820	3.7820	-0.8138	25.89	0.07	-0.750			
0.2799	17914.13	3.7790	3.7791	-0.8113	25.89	0.07	-0.750			
0.2823	18069.16	3.7760	3.7760	-0.8047	25.89	0.07	-0.750			
0.2847	18223.26	3.7730	3.7730	-0.8013	25.90	0.08	-0.750			
0.2871	18375.60	3.7700	3.7699	-0.7961	25.90	0.08	-0.750			
0.2895	18529.38	3.7670	3.7670	-0.7992	25.91	0.09	-0.750			
0.2919	18681.87	3.7640	3.7641	-0.7995	25.91	0.09	-0.750			
0.2943	18836.12	3.7610	3.7609	-0.7990	25.91	0.09	-0.750			
0.2967	18989.44	3.7580	3.7580	-0.8026	25.91	0.09	-0.750			
0.2991	19143.86	3.7550	3.7551	-0.8026	25.92	0.10	-0.750			
0.3015	19299.16	3.7520	3.7519	-0.8048	25.92	0.10	-0.750			
0.3040	19453.01	3.7490	3.7492	-0.7999	25.92	0.10	-0.750			
0.3063	19605.17	3.7460	3.7460	-0.8004	25.92	0.10	-0.750			
0.3087	19758.12	3.7430	3.7430	-0.8044	25.93	0.11	-0.750			
0.3111	19912.03	3.7400	3.7400	-0.8108	25.93	0.11	-0.750			
0.3136	20067.73	3.7370	3.7370	-0.8143	25.93	0.11	-0.750			
0.3160	20226.15	3.7340	3.7340	-0.8264	25.94	0.12	-0.750			
0.3185	20385.56	3.7310	3.7310	-0.8354	25.94	0.12	-0.750			
0.3210	20547.02	3.7280	3.7279	-0.8462	25.94	0.12	-0.750			
0.3236	20709.58	3.7250	3.7250	-0.8559	25.94	0.12	-0.750			
0.3262	20874.56	3.7220	3.7220	-0.8663	25.94	0.12	-0.750			
0.3288	21043.03	3.7190	3.7190	-0.8764	25.94	0.12	-0.750			
0.3314	21211.47	3.7160	3.7160	-0.8974	25.94	0.12	-0.750			
0.3341	21383.25	3.7130	3.7130	-0.9103	25.94	0.12	-0.750			
0.3369	21560.27	3.7100	3.7099	-0.9283	25.95	0.13	-0.750			
0.3397	21739.88	3.7070	3.7070	-0.9467	25.95	0.13	-0.750			
0.3426	21924.77	3.7040	3.7041	-0.9671	25.95	0.13	-0.750			
0.3455	22113.56	3.7010	3.7010	-0.9856	25.95	0.13	-0.750			
0.3485	22305.48	3.6980	3.6979	-1.0021	25.94	0.12	-0.750			
0.3515	22497.74	3.6950	3.6950	-1.0116	25.94	0.12	-0.750			
0.3546	22692.66	3.6920	3.6921	-1.0388	25.94	0.12	-0.750			
0.3577	22894.62	3.6890	3.6890	-1.0554	25.94	0.12	-0.750			
0.3609	23098.29	3.6860	3.6859	-1.0738	25.93	0.11	-0.750			
0.3642	23305.66	3.6830	3.6830	-1.0952	25.93	0.11	-0.750			
0.3675	23520.86	3.6800	3.6801	-1.1208	25.93	0.11	-0.750			
0.3709	23737.48	3.6770	3.6770	-1.1377	25.93	0.11	-0.750			
0.3743	23958.06	3.6740	3.6740	-1.1586	25.93	0.11	-0.750			
0.3778	24180.12	3.6710	3.6710	-1.1806	25.93	0.11	-0.750			
0.3814	24409.53	3.6680	3.6678	-1.2112	25.93	0.11	-0.750			
0.3850	24643.13	3.6650	3.6650	-1.2348	25.92	0.10	-0.750			
0.3888	24881.78	3.6620	3.6620	-1.2627	25.91	0.09	-0.750			
0.3926	25126.10	3.6590	3.6591	-1.3025	25.91	0.09	-0.750			
0.3967	25385.86	3.6560	3.6559	-1.3302	25.90	0.08	-0.750			
0.4006	25640.64	3.6530	3.6529	-1.3658	25.90	0.08	-0.750			
0.4048	25907.21	3.6500	3.6502	-1.3960	25.89	0.07	-0.750			
0.4091	26179.74	3.6470	3.6469	-1.4186	25.88	0.06	-0.750			
0.4134	26455.42	3.6440	3.6439	-1.4422	25.88	0.06	-0.750			
0.4177	26730.88	3.6410	3.6411	-1.4722	25.87	0.05	-0.750			
0.4222	27017.86	3.6380	3.6380	-1.5018	25.86	0.04	-0.750			
0.4267	27310.31	3.6350	3.6349	-1.5357	25.85	0.03	-0.750			
0.4313	27604.14	3.6320	3.6319	-1.5582	25.85	0.03	-0.750			
0.4361	27912.17	3.6290	3.6291	-1.5947	25.85	0.03	-0.750			
0.4409	28218.82	3.6260	3.6262	-1.6428	25.85	0.03	-0.750			
0.4459	28538.55	3.6230	3.6228	-1.6660	25.84	0.02	-0.750			
0.4510	28861.72	3.6200	3.6201	-1.7058	25.83	0.01	-0.750	0.385	0.500	
0.4561	29192.01	3.6170	3.6170	-1.7375	25.82	-0.00	-0.750			
0.4614	29527.64	3.6140	3.6141	-1.7781	25.81	-0.01	-0.750			
0.4668	29875.35	3.6110	3.6110	-1.7997	25.81	-0.01	-0.750			
0.4722	30218.17	3.6080	3.6078	-1.8298	25.81	-0.01	-0.750			
0.4778	30576.63	3.6050	3.6050	-1.8678	25.81	-0.01	-0.750			
0.4834	30940.31	3.6020	3.6021	-1.9046	25.80	-0.02	-0.750			
0.4892	31309.86	3.5990	3.5990	-1.9273	25.79	-0.03	-0.750			
0.4950	31677.83	3.5960	3.5958	-1.9432	25.79	-0.03	-0.750			
0.5009	32055.16	3.5930	3.5931	-1.9922	25.79	-0.03	-0.750			
0.5069	32442.05	3.5900	3.5899	-2.0330	25.79	-0.03	-0.750			
0.5130	32830.69	3.5870	3.5868	-2.0749	25.79	-0.03	-0.750			
0.5193	33234.79	3.5840	3.5842	-2.1124	25.79	-0.03	-0.750			
0.5258	33651.27	3.5810	3.5810	-2.1643	25.78	-0.04	-0.750			
0.5324	34073.05	3.5780	3.5781	-2.1932	25.77	-0.05	-0.750			
0.5390	34496.77	3.5750	3.5750	-2.2003	25.77	-0.05	-0.750			
0.5457	34923.52	3.5720	3.5721	-2.2300	25.77	-0.05	-0.750			
0.5523	35350.27	3.5690	3.5690	-2.2470	25.77	-0.05	-0.750			
0.5591	35783.52	3.5660	3.5659	-2.2561	25.77	-0.05	-0.750			
0.5659	36218.16	3.5630	3.5631	-2.2797	25.77	-0.05	-0.750			
0.5728	36659.20	3.5600	3.5599	-2.2993	25.77	-0.05	-0.750			
0.5798	37104.13	3.5570	3.5568	-2.3165	25.77	-0.05	-0.750			
0.5868	37554.51	3.5540	3.5541	-2.3052	25.76	-0.06	-0.750			
0.5937	37999.92	3.5510	3.5510	-2.2909	25.76	-0.06	-0.750			
0.6006	38437.76	3.5480	3.5481	-2.2653	25.77	-0.05	-0.750			
0.6073	38867.83	3.5450	3.5449	-2.2407	25.77	-0.05	-0.750			
0.6140	39298.11	3.5420	3.5420	-2.2218	25.79	-0.03	-0.750			
0.6206	39718.99	3.5390	3.5390	-2.1901	25.79	-0.03	-0.750			
0.6272	40140.48	3.5360	3.5359	-2.1588	25.79	-0.03	-0.750			
0.6337	40554.33	3.5330	3.5331	-2.1253	25.80	-0.02	-0.750			
0.6401	40964.00	3.5300	3.5300	-2.0850	25.81	-0.01	-0.750			
0.6462	41357.10	3.5270	3.5269	-2.0371	25.81	-0.01	-0.750			
0.6523	41745.90	3.5240	3.5240	-1.9868	25.82	-0.00	-0.750			
0.6582	42122.11	3.5210	3.5211	-1.9483	25.82	0.00	-0.750			
0.6639	42492.35	3.5180	3.5179	-1.8909	25.83	0.01	-0.750			
0.6696	42854.12	3.5150	3.5151	-1.8416	25.83	0.01	-0.750			
0.6750	43200.96	3.5120	3.5121	-1.7874	25.84	0.02	-0.750			
0.6804	43544.24	3.5090	3.5091	-1.7339	25.85	0.03	-0.750			
0.6854	43863.91	3.5060	3.5061	-1.6657	25.87	0.05	-0.750			
0.6903	44179.26	3.5030	3.5031	-1.6142	25.89	0.07	-0.750			
0.6950	44482.63	3.5000	3.5000	-1.5534	25.90	0.08	-0.750			
0.6997	44779.66	3.4970	3.4969	-1.5028	25.92	0.10	-0.750			
0.7041	45060.98	3.4940	3.4942	-1.4589	25.93	0.11	-0.750			
0.7084	45335.01	3.4910	3.4910	-1.4139	25.94	0.12	-0.750			
0.7126	45603.57	3.4880	3.4879	-1.3703	25.96	0.14	-0.750			
0.7166	45861.27	3.4850	3.4853	-1.3198	25.97	0.15	-0.750			
0.7205	46110.28	3.4820	3.4819	-1.2774	25.99	0.17	-0.750			
0.7242	46350.11	3.4790	3.4791	-1.2396	26.01	0.19	-0.750			
0.7278	46581.97	3.4760	3.4759	-1.1979	26.02	0.20	-0.750			
0.7314	46810.04	3.4730	3.4728	-1.1651	26.04	0.22	-0.750			
0.7348	47029.43	3.4700	3.4700	-1.1220	26.05	0.23	-0.750			
0.7381	47241.18	3.4670	3.4670	-1.0873	26.06	0.24	-0.750			
0.7413	47445.81	3.4640	3.4642	-1.0445	26.07	0.25	-0.750			
0.7444	47642.73	3.4610	3.4609	-1.0117	26.08	0.26	-0.750			
0.7474	47831.83	3.4580	3.4580	-0.9786	26.09	0.27	-0.750			
0.7502	48015.48	3.4550	3.4551	-0.9514	26.10	0.28	-0.750			
0.7531	48195.50	3.4520	3.4519	-0.9312	26.12	0.30	-0.750			
0.7558	48372.86	3.4490	3.4490	-0.9143	26.13	0.31	-0.750			
0.7585	48544.96	3.4460	3.4460	-0.9022	26.14	0.32	-0.750			
0.7612	48715.37	3.4430	3.4429	-0.8969	26.15	0.33	-0.750			
0.7638	48883.97	3.4400	3.4400	-0.8953	26.16	0.34	-0.750			
0.7665	49055.84	3.4370	3.4370	-0.9091	26.17	0.35	-0.750			
0.7692	49228.42	3.4340	3.4340	-0.9326	26.18	0.36	-0.750			
0.7720	49409.98	3.4310	3.4310	-0.9557	26.19	0.37	-0.750			
0.7749	49595.67	3.4280	3.4279	-0.9792	26.20	0.38	-0.750			
0.7779	49787.37	3.4250	3.4249	-0.9985	26.21	0.39	-0.750			
0.7810	49982.40	3.4220	3.4220	-1.0223	26.22	0.40	-0.750			
0.7841	50182.92	3.4190	3.4189	-1.0327	26.23	0.41	-0.750			
0.7873	50384.11	3.4160	3.4159	-1.0331	26.24	0.42	-0.750			
0.7904	50582.77	3.4130	3.4130	-1.0271	26.25	0.43	-0.750			
0.7935	50783.87	3.4100	3.4101	-1.0188	26.25	0.43	-0.750			
0.7966	50981.77	3.4070	3.4069	-0.9957	26.26	0.44	-0.750			
0.7995	51171.00	3.4040	3.4040	-0.9656	26.26	0.44	-0.750			
0.8024	51352.08	3.4010	3.4009	-0.9314	26.27	0.45	-0.750			
0.8052	51529.78	3.3980	3.3980	-0.9041	26.27	0.45	-0.750			
0.8078	51698.05	3.3950	3.3950	-0.8712	26.28	0.46	-0.750			
0.8103	51862.24	3.3920	3.3920	-0.8391	26.29	0.47	-0.750			
0.8128	52020.83	3.3890	3.3890	-0.8037	26.30	0.48	-0.750			
0.8152	52174.17	3.3860	3.3859	-0.7789	26.31	0.49	-0.750			
0.8175	52320.04	3.3830	3.3831	-0.7464	26.31	0.49	-0.750			
0.8197	52459.43	3.3800	3.3800	-0.7183	26.32	0.50	-0.750			
0.8218	52592.94	3.3770	3.3770	-0.6911	26.33	0.51	-0.750			
0.8238	52722.09	3.3740	3.3740	-0.6629	26.33	0.51	-0.750			
0.8258	52848.88	3.3710	3.3710	-0.6410	26.34	0.52	-0.750			
0.8277	52970.28	3.3680	3.3680	-0.6185	26.35	0.53	-0.750			
0.8295	53085.43	3.3650	3.3652	-0.5926	26.35	0.53	-0.750			
0.8312	53197.14	3.3620	3.3619	-0.5688	26.36	0.54	-0.750			
0.8329	53303.47	3.3590	3.3590	-0.5453	26.36	0.54	-0.750			
0.8345	53405.35	3.3560	3.3560	-0.5254	26.37	0.55	-0.750			
0.8360	53504.50	3.3530	3.3530	-0.5060	26.37	0.55	-0.750			
0.8375	53599.34	3.3500	3.3500	-0.4869	26.38	0.56	-0.750			
0.8389	53690.45	3.3470	3.3470	-0.4681	26.38	0.56	-0.750			
0.8403	53779.03	3.3440	3.3440	-0.4511	26.39	0.57	-0.750			
0.8416	53863.91	3.3410	3.3410	-0.4348	26.39	0.57	-0.750			
0.8429	53945.28	3.3380	3.3380	-0.4188	26.40	0.58	-0.750			
0.8441	54023.52	3.3350	3.3351	-0.4029	26.40	0.58	-0.750			
0.8453	54099.85	3.3320	3.3319	-0.3895	26.41	0.59	-0.750			
0.8465	54172.89	3.3290	3.3290	-0.3755	26.41	0.59	-0.750			
0.8476	54243.48	3.3260	3.3260	-0.3620	26.42	0.60	-0.750			
0.8486	54311.85	3.3230	3.3229	-0.3485	26.42	0.60	-0.750			
0.8496	54377.24	3.3200	3.3200	-0.3371	26.43	0.61	-0.750			
0.8506	54440.58	3.3170	3.3171	-0.3269	26.43	0.61	-0.750			
0.8516	54501.70	3.3140	3.3139	-0.3172	26.44	0.62	-0.750			
0.8525	54561.81	3.3110	3.3110	-0.3086	26.44	0.62	-0.750			
0.8534	54620.11	3.3080	3.3080	-0.2992	26.45	0.63	-0.750			
0.8543	54676.98	3.3050	3.3051	-0.2910	26.45	0.63	-0.750			
0.8552	54732.48	3.3020	3.3020	-0.2838	26.46	0.64	-0.750			
0.8560	54785.66	3.2990	3.2990	-0.2749	26.46	0.64	-0.750			
0.8568	54837.62	3.2960	3.2958	-0.2652	26.46	0.64	-0.750			
0.8576	54887.42	3.2930	3.2930	-0.2582	26.47	0.65	-0.750			
0.8584	54936.24	3.2900	3.2901	-0.2515	26.47	0.65	-0.750			
0.8591	54983.70	3.2870	3.2870	-0.2462	26.48	0.66	-0.750			
0.8598	55030.27	3.2840	3.2840	-0.2404	26.48	0.66	-0.750			
0.8605	55075.09	3.2810	3.2811	-0.2340	26.49	0.67	-0.750			
0.8612	55119.90	3.2780	3.2779	-0.2300	26.49	0.67	-0.750			
0.8619	55164.15	3.2750	3.2751	-0.2262	26.49	0.67	-0.750			
0.8626	55206.51	3.2720	3.2720	-0.2202	26.50	0.68	-0.750			
0.8633	55248.36	3.2690	3.2690	-0.2157	26.50	0.68	-0.750			
0.8639	55289.33	3.2660	3.2660	-0.2122	26.50	0.68	-0.750			
0.8645	55329.19	3.2630	3.2630	-0.2080	26.51	0.69	-0.750			
0.8651	55369.11	3.2600	3.2600	-0.2047	26.51	0.69	-0.750			
0.8658	55408.18	3.2570	3.2570	-0.2008	26.51	0.69	-0.750			
0.8664	55446.41	3.2540	3.2540	-0.1970	26.52	0.70	-0.750			
0.8669	55484.02	3.2510	3.2509	-0.1935	26.52	0.70	-0.750			
0.8675	55520.49	3.2480	3.2480	-0.1899	26.53	0.71	-0.750			
0.8681	55556.43	3.2450	3.2449	-0.1873	26.53	0.71	-0.750			
0.8686	55591.72	3.2420	3.2421	-0.1843	26.54	0.72	-0.750			
0.8692	55626.82	3.2390	3.2390	-0.1815	26.54	0.72	-0.750			
0.8697	55661.67	3.2360	3.2360	-0.1790	26.55	0.73	-0.750			
0.8702	55695.76	3.2330	3.2330	-0.1769	26.55	0.73	-0.750			
0.8708	55729.49	3.2300	3.2301	-0.1744	26.56	0.74	-0.750			
0.8713	55762.74	3.2270	3.2270	-0.1718	26.57	0.75	-0.750			
0.8718	55795.24	3.2240	3.2242	-0.1693	26.57	0.75	-0.750			
0.8723	55827.35	3.2210	3.2209	-0.1670	26.58	0.76	-0.750			
0.8728	55859.31	3.2180	3.2180	-0.1652	26.58	0.76	-0.750			
0.8733	55890.80	3.2150	3.2150	-0.1643	26.58	0.76	-0.750			
0.8738	55922.30	3.2120	3.2120	-0.1625	26.59	0.77	-0.750			
0.8743	55953.19	3.2090	3.2090	-0.1607	26.59	0.77	-0.750			
0.8747	55983.96	3.2060	3.2060	-0.1593	26.60	0.78	-0.750			
0.8752	56014.64	3.2030	3.2031	-0.1576	26.60	0.78	-0.750			
0.8757	56044.77	3.2000	3.1999	-0.1557	26.61	0.79	-0.750			
0.8762	56074.52	3.1970	3.1970	-0.1534	26.61	0.79	-0.750			
0.8766	56103.87	3.1940	3.1940	-0.1511	26.62	0.80	-0.750			
0.8771	56132.31	3.1910	3.1910	-0.1494	26.62	0.80	-0.750			
0.8775	56160.78	3.1880	3.1880	-0.1482	26.63	0.81	-0.750			
0.8780	56189.11	3.1850	3.1850	-0.1469	26.63	0.81	-0.750			
0.8784	56216.95	3.1820	3.1819	-0.1456	26.63	0.81	-0.750			
0.8788	56244.92	3.1790	3.1790	-0.1445	26.64	0.82	-0.750			
0.8793	56272.61	3.1760	3.1760	-0.1436	26.64	0.82	-0.750			
0.8797	56300.39	3.1730	3.1730	-0.1425	26.65	0.83	-0.750			
0.8801	56327.47	3.1700	3.1700	-0.1407	26.65	0.83	-0.750			
0.8805	56354.01	3.1670	3.1671	-0.1394	26.66	0.84	-0.750			
0.8809	56380.68	3.1640	3.1640	-0.1383	26.66	0.84	-0.750			
0.8814	56407.06	3.1610	3.1609	-0.1371	26.66	0.84	-0.750			
0.8818	56433.45	3.1580	3.1579	-0.1355	26.67	0.85	-0.750			
0.8822	56459.48	3.1550	3.1550	-0.1344	26.67	0.85	-0.750			
0.8826	56484.93	3.1520	3.1522	-0.1334	26.68	0.86	-0.750			
0.8830	56510.51	3.1490	3.1491	-0.1323	26.68	0.86	-0.750			
0.8834	56535.63	3.1460	3.1459	-0.1310	26.69	0.87	-0.750			
0.8838	56560.35	3.1430	3.1430	-0.1294	26.69	0.87	-0.750			
0.8841	56585.26	3.1400	3.1399	-0.1286	26.70	0.88	-0.750			
0.8845	56609.96	3.1370	3.1371	-0.1279	26.70	0.88	-0.750			
0.8849	56634.45	3.1340	3.1340	-0.1271	26.70	0.88	-0.750			
0.8853	56658.93	3.1310	3.1310	-0.1267	26.71	0.89	-0.750			
0.8857	56683.15	3.1280	3.1281	-0.1256	26.71	0.89	-0.750			
0.8860	56706.92	3.1250	3.1250	-0.1244	26.72	0.90	-0.750			
0.8864	56730.73	3.1220	3.1221	-0.1237	26.72	0.90	-0.750			
0.8868	56754.46	3.1190	3.1189	-0.1231	26.72	0.90	-0.750			
0.8872	56778.19	3.1160	3.1161	-0.1223	26.73	0.91	-0.750			
0.8875	56801.58	3.1130	3.1130	-0.1213	26.73	0.91	-0.750			
0.8879	56824.82	3.1100	3.1100	-0.1203	26.74	0.92	-0.750			
0.8882	56847.81	3.1070	3.1071	-0.1192	26.74	0.92	-0.750			
0.8886	56870.64	3.1040	3.1039	-0.1181	26.75	0.93	-0.750			
0.8890	56893.12	3.1010	3.1010	-0.1173	26.75	0.93	-0.750			
0.8893	56915.56	3.0980	3.0980	-0.1164	26.75	0.93	-0.750			
0.8897	56937.70	3.0950	3.0949	-0.1153	26.76	0.94	-0.750			
0.8900	56959.78	3.0920	3.0921	-0.1147	26.76	0.94	-0.750			
0.8903	56981.74	3.0890	3.0890	-0.1142	26.76	0.94	-0.750			
0.8907	57003.60	3.0860	3.0860	-0.1136	26.77	0.95	-0.750			
0.8910	57025.35	3.0830	3.0830	-0.1130	26.77	0.95	-0.750			
0.8914	57047.14	3.0800	3.0800	-0.1120	26.78	0.96	-0.750			
0.8917	57068.62	3.0770	3.0771	-0.1111	26.78	0.96	-0.750			
0.8920	57089.71	3.0740	3.0740	-0.1107	26.79	0.97	-0.750			
0.8924	57110.91	3.0710	3.0711	-0.1100	26.79	0.97	-0.750			
0.8927	57131.91	3.0680	3.0680	-0.1096	26.80	0.98	-0.750			
0.8930	57152.72	3.0650	3.0649	-0.1089	26.80	0.98	-0.750			
0.8933	57173.63	3.0620	3.0620	-0.1085	26.81	0.99	-0.750			
0.8937	57194.36	3.0590	3.0590	-0.1082	26.81	0.99	-0.750			
0.8940	57215.34	3.0560	3.0561	-0.1071	26.82	1.00	-0.750			
0.8943	57236.23	3.0530	3.0529	-0.1067	26.82	1.00	-0.750			
0.8946	57256.42	3.0500	3.0500	-0.1061	26.83	1.01	-0.750			
0.8949	57276.59	3.0470	3.0471	-0.1051	26.83	1.01	-0.750			
0.8953	57296.62	3.0440	3.0440	-0.1047	26.84	1.02	-0.750			
0.8956	57316.52	3.0410	3.0410	-0.1040	26.84	1.02	-0.750			
0.8959	57336.58	3.0380	3.0378	-0.1032	26.85	1.03	-0.750			
0.8962	57356.28	3.0350	3.0352	-0.1025	26.85	1.03	-0.750			
0.8965	57375.91	3.0320	3.0320	-0.1021	26.86	1.04	-0.750			
0.8968	57395.76	3.0290	3.0291	-0.1018	26.86	1.04	-0.750			
0.8971	57415.19	3.0260	3.0259	-0.1009	26.87	1.05	-0.750			
0.8974	57434.37	3.0230	3.0230	-0.0999	26.87	1.05	-0.750			
0.8977	57453.43	3.0200	3.0201	-0.0995	26.88	1.06	-0.750			
0.8980	57472.35	3.0170	3.0170	-0.0988	26.88	1.06	-0.750			
0.8983	57491.30	3.0140	3.0140	-0.0982	26.89	1.07	-0.750			
0.8986	57510.24	3.0110	3.0109	-0.0977	26.89	1.07	-0.750			
0.8989	57528.80	3.0080	3.0082	-0.0972	26.90	1.08	-0.750			
0.8992	57547.43	3.0050	3.0049	-0.0969	26.90	1.08	-0.751			
0.8995	57566.02	3.0020	3.0020	-0.0967	26.91	1.09	-0.751			
