Ah_balance (normalized)	Ah_balance (mAh)	Voltage - fit (V)	Voltage -  interpolate (V)	dQ/dV (1/V)	Temperature (°C)	Temperature - diff (°C)	Current (C)	R_DC 0ms (mOhm)	R_DC 50ms (mOhm)	R_DC 50 ms PEC (mOhm)
0.0005	31.75	4.1640	4.1640	-0.1596	25.58	0.00	-0.750			
0.0010	66.53	4.1610	4.1610	-0.2020	25.58	0.00	-0.750			
0.0017	108.80	4.1580	4.1581	-0.2456	25.58	0.00	-0.750			
0.0025	160.24	4.1550	4.1550	-0.2896	25.58	0.00	-0.750			
0.0034	220.64	4.1520	4.1519	-0.3306	25.58	-0.00	-0.750			
0.0045	288.54	4.1490	4.1490	-0.3728	25.58	-0.00	-0.750			
0.0057	365.39	4.1460	4.1460	-0.4093	25.58	-0.00	-0.750			
0.0070	448.06	4.1430	4.1430	-0.4470	25.57	-0.01	-0.750			
0.0084	537.56	4.1400	4.1400	-0.4798	25.57	-0.01	-0.750			
0.0099	632.94	4.1370	4.1370	-0.5145	25.57	-0.01	-0.750			
0.0115	735.86	4.1340	4.1339	-0.5445	25.57	-0.01	-0.750			
0.0132	844.87	4.1310	4.1309	-0.5693	25.56	-0.02	-0.750			
0.0150	958.25	4.1280	4.1281	-0.5923	25.56	-0.02	-0.750			
0.0168	1074.91	4.1250	4.1249	-0.6100	25.56	-0.02	-0.750			
0.0186	1193.50	4.1220	4.1220	-0.6251	25.56	-0.02	-0.750			
0.0205	1313.71	4.1190	4.1190	-0.6435	25.55	-0.03	-0.750			
0.0224	1436.60	4.1160	4.1160	-0.6561	25.55	-0.03	-0.750			
0.0245	1567.38	4.1130	4.1130	-0.6698	25.55	-0.03	-0.750			
0.0265	1697.80	4.1100	4.1099	-0.6791	25.54	-0.04	-0.750			
0.0286	1830.84	4.1070	4.1072	-0.6883	25.54	-0.04	-0.750			
0.0307	1963.29	4.1040	4.1039	-0.6958	25.54	-0.04	-0.750			
0.0328	2096.23	4.1010	4.1010	-0.6983	25.53	-0.05	-0.750			
0.0349	2230.77	4.0980	4.0979	-0.7027	25.53	-0.05	-0.750			
0.0370	2367.04	4.0950	4.0950	-0.7104	25.53	-0.05	-0.750			
0.0391	2504.03	4.0920	4.0919	-0.7177	25.52	-0.06	-0.750			
0.0413	2641.33	4.0890	4.0890	-0.7272	25.52	-0.06	-0.750			
0.0435	2781.46	4.0860	4.0860	-0.7353	25.52	-0.06	-0.750			
0.0457	2923.13	4.0830	4.0829	-0.7431	25.52	-0.06	-0.750			
0.0479	3068.46	4.0800	4.0800	-0.7521	25.52	-0.06	-0.750			
0.0502	3215.12	4.0770	4.0770	-0.7542	25.52	-0.06	-0.750			
0.0525	3360.39	4.0740	4.0739	-0.7519	25.52	-0.06	-0.750			
0.0548	3505.08	4.0710	4.0709	-0.7459	25.52	-0.06	-0.750			
0.0570	3646.74	4.0680	4.0680	-0.7444	25.52	-0.06	-0.750			
0.0592	3787.90	4.0650	4.0651	-0.7472	25.52	-0.06	-0.750			
0.0614	3930.18	4.0620	4.0618	-0.7479	25.51	-0.07	-0.750			
0.0637	4075.87	4.0590	4.0590	-0.7557	25.51	-0.07	-0.750			
0.0660	4222.31	4.0560	4.0562	-0.7616	25.51	-0.07	-0.750			
0.0683	4370.32	4.0530	4.0529	-0.7668	25.51	-0.07	-0.750			
0.0706	4518.93	4.0500	4.0500	-0.7690	25.51	-0.07	-0.750			
0.0729	4664.63	4.0470	4.0470	-0.7629	25.52	-0.06	-0.750			
0.0752	4811.34	4.0440	4.0440	-0.7698	25.52	-0.06	-0.750			
0.0775	4958.70	4.0410	4.0410	-0.7702	25.52	-0.06	-0.750			
0.0798	5105.85	4.0380	4.0379	-0.7704	25.52	-0.06	-0.750			
0.0821	5252.91	4.0350	4.0350	-0.7759	25.52	-0.06	-0.750			
0.0844	5402.90	4.0320	4.0321	-0.7779	25.52	-0.06	-0.750			
0.0868	5552.92	4.0290	4.0289	-0.7801	25.52	-0.06	-0.750			
0.0891	5705.31	4.0260	4.0260	-0.7819	25.52	-0.06	-0.750			
0.0915	5854.58	4.0230	4.0231	-0.7783	25.52	-0.06	-0.750			
0.0938	6003.17	4.0200	4.0201	-0.7816	25.52	-0.06	-0.750			
0.0961	6153.41	4.0170	4.0170	-0.7818	25.52	-0.06	-0.750			
0.0985	6301.73	4.0140	4.0140	-0.7796	25.52	-0.06	-0.750			
0.1008	6452.53	4.0110	4.0110	-0.7854	25.52	-0.06	-0.750			
0.1032	6605.03	4.0080	4.0082	-0.7841	25.52	-0.06	-0.750			
0.1056	6755.80	4.0050	4.0050	-0.7828	25.52	-0.06	-0.750			
0.1079	6905.43	4.0020	4.0020	-0.7814	25.52	-0.06	-0.750			
0.1102	7054.04	3.9990	3.9991	-0.7814	25.53	-0.05	-0.750			
0.1126	7203.71	3.9960	3.9959	-0.7838	25.53	-0.05	-0.750			
0.1149	7354.30	3.9930	3.9929	-0.7852	25.53	-0.05	-0.750			
0.1173	7504.31	3.9900	3.9900	-0.7908	25.53	-0.05	-0.750			
0.1196	7656.88	3.9870	3.9871	-0.8027	25.53	-0.05	-0.750			
0.1221	7812.95	3.9840	3.9839	-0.8036	25.54	-0.04	-0.750			
0.1245	7968.53	3.9810	3.9809	-0.8038	25.54	-0.04	-0.750			
0.1269	8123.68	3.9780	3.9780	-0.8023	25.54	-0.04	-0.750			
0.1293	8277.18	3.9750	3.9750	-0.8050	25.54	-0.04	-0.750			
0.1317	8430.39	3.9720	3.9720	-0.8098	25.55	-0.03	-0.750			
0.1341	8585.59	3.9690	3.9689	-0.8093	25.55	-0.03	-0.750			
0.1366	8740.42	3.9660	3.9659	-0.8141	25.55	-0.03	-0.750			
0.1391	8899.23	3.9630	3.9631	-0.8244	25.56	-0.02	-0.750			
0.1415	9059.01	3.9600	3.9600	-0.8305	25.56	-0.02	-0.750			
0.1441	9219.75	3.9570	3.9569	-0.8273	25.56	-0.02	-0.750			
0.1465	9377.75	3.9540	3.9540	-0.8237	25.56	-0.02	-0.750			
0.1490	9536.15	3.9510	3.9511	-0.8254	25.57	-0.01	-0.750			
0.1515	9694.89	3.9480	3.9480	-0.8280	25.57	-0.01	-0.750			
0.1539	9851.77	3.9450	3.9450	-0.8270	25.57	-0.01	-0.750			
0.1564	10010.42	3.9420	3.9420	-0.8317	25.57	-0.01	-0.750			
0.1590	10173.92	3.9390	3.9389	-0.8399	25.57	-0.01	-0.750			
0.1615	10336.66	3.9360	3.9359	-0.8437	25.58	-0.00	-0.750			
0.1641	10500.14	3.9330	3.9329	-0.8368	25.58	-0.00	-0.750			
0.1666	10660.61	3.9300	3.9299	-0.8296	25.58	0.00	-0.750			
0.1690	10817.29	3.9270	3.9270	-0.8324	25.59	0.01	-0.750			
0.1715	10975.28	3.9240	3.9240	-0.8372	25.59	0.01	-0.750			
0.1739	11131.92	3.9210	3.9209	-0.8387	25.60	0.02	-0.750			
0.1766	11299.63	3.9180	3.9178	-0.8530	25.61	0.03	-0.750			
0.1791	11464.08	3.9150	3.9151	-0.8572	25.61	0.03	-0.750			
0.1817	11631.27	3.9120	3.9120	-0.8639	25.61	0.03	-0.750			
0.1843	11797.20	3.9090	3.9091	-0.8663	25.61	0.03	-0.750			
0.1869	11960.25	3.9060	3.9059	-0.8607	25.62	0.04	-0.750			
0.1895	12128.86	3.9030	3.9029	-0.8582	25.62	0.04	-0.750			
0.1921	12294.88	3.9000	3.8999	-0.8524	25.62	0.04	-0.750			
0.1946	12456.01	3.8970	3.8972	-0.8612	25.63	0.05	-0.750			
0.1972	12621.46	3.8940	3.8939	-0.8596	25.63	0.05	-0.750			
0.1998	12786.38	3.8910	3.8908	-0.8573	25.63	0.05	-0.750			
0.2024	12950.80	3.8880	3.8879	-0.8611	25.64	0.06	-0.750			
0.2049	13115.78	3.8850	3.8852	-0.8690	25.64	0.06	-0.750			
0.2076	13284.89	3.8820	3.8818	-0.8749	25.65	0.07	-0.750			
0.2102	13452.66	3.8790	3.8790	-0.8762	25.65	0.07	-0.750			
0.2128	13618.60	3.8760	3.8761	-0.8736	25.66	0.08	-0.750			
0.2155	13791.53	3.8730	3.8731	-0.8840	25.66	0.08	-0.750			
0.2182	13961.63	3.8700	3.8699	-0.8831	25.66	0.08	-0.750			
0.2208	14129.18	3.8670	3.8670	-0.8773	25.66	0.08	-0.750			
0.2234	14297.03	3.8640	3.8640	-0.8772	25.67	0.09	-0.750			
0.2260	14465.65	3.8610	3.8610	-0.8799	25.67	0.09	-0.750			
0.2286	14633.35	3.8580	3.8581	-0.8793	25.67	0.09	-0.750			
0.2312	14799.55	3.8550	3.8551	-0.8899	25.68	0.10	-0.750			
0.2339	14972.32	3.8520	3.8520	-0.8960	25.68	0.10	-0.750			
0.2367	15146.10	3.8490	3.8487	-0.9014	25.69	0.11	-0.750			
0.2394	15322.50	3.8460	3.8461	-0.8976	25.70	0.12	-0.750			
0.2421	15495.14	3.8430	3.8431	-0.8925	25.70	0.12	-0.750			
0.2448	15667.10	3.8400	3.8400	-0.8939	25.70	0.12	-0.750			
0.2475	15838.65	3.8370	3.8369	-0.8848	25.71	0.13	-0.750			
0.2500	16002.80	3.8340	3.8339	-0.8741	25.71	0.13	-0.750			
0.2527	16171.45	3.8310	3.8311	-0.8816	25.71	0.13	-0.750			
0.2553	16340.47	3.8280	3.8280	-0.8850	25.72	0.14	-0.750			
0.2580	16511.09	3.8250	3.8249	-0.8900	25.72	0.14	-0.750			
0.2607	16682.14	3.8220	3.8220	-0.8876	25.73	0.15	-0.750			
0.2633	16852.67	3.8190	3.8190	-0.8877	25.73	0.15	-0.750			
0.2660	17027.16	3.8160	3.8161	-0.8855	25.74	0.16	-0.750			
0.2687	17194.68	3.8130	3.8130	-0.8835	25.74	0.16	-0.750			
0.2713	17361.80	3.8100	3.8101	-0.8794	25.74	0.16	-0.750			
0.2739	17530.60	3.8070	3.8069	-0.8816	25.75	0.17	-0.750			
0.2766	17699.34	3.8040	3.8039	-0.8811	25.75	0.17	-0.750			
0.2792	17870.19	3.8010	3.8010	-0.8815	25.75	0.17	-0.750			
0.2819	18039.20	3.7980	3.7981	-0.8894	25.76	0.18	-0.750			
0.2845	18210.97	3.7950	3.7950	-0.8937	25.76	0.18	-0.750			
0.2872	18380.95	3.7920	3.7920	-0.8893	25.76	0.18	-0.750			
0.2899	18553.77	3.7890	3.7890	-0.8942	25.77	0.19	-0.750			
0.2926	18725.86	3.7860	3.7860	-0.8939	25.77	0.19	-0.750			
0.2953	18898.48	3.7830	3.7830	-0.8910	25.78	0.20	-0.750			
0.2980	19069.88	3.7800	3.7800	-0.8879	25.78	0.20	-0.750			
0.3006	19237.31	3.7770	3.7770	-0.8813	25.79	0.21	-0.750			
0.3032	19405.74	3.7740	3.7743	-0.8806	25.79	0.21	-0.750			
0.3058	19573.99	3.7710	3.7710	-0.8846	25.79	0.21	-0.750			
0.3085	19744.08	3.7680	3.7680	-0.8844	25.80	0.22	-0.750			
0.3112	19914.56	3.7650	3.7649	-0.8868	25.80	0.22	-0.750			
0.3138	20085.69	3.7620	3.7621	-0.8871	25.81	0.23	-0.750			
0.3165	20256.39	3.7590	3.7591	-0.8839	25.81	0.23	-0.750			
0.3192	20425.86	3.7560	3.7561	-0.8845	25.81	0.23	-0.750			
0.3218	20597.27	3.7530	3.7529	-0.8782	25.81	0.23	-0.750			
0.3244	20763.48	3.7500	3.7500	-0.8736	25.82	0.24	-0.750			
0.3270	20930.50	3.7470	3.7470	-0.8783	25.82	0.24	-0.750			
0.3297	21097.79	3.7440	3.7441	-0.8789	25.82	0.24	-0.750			
0.3323	21266.73	3.7410	3.7409	-0.8862	25.83	0.25	-0.750			
0.3349	21435.10	3.7380	3.7379	-0.8963	25.84	0.26	-0.750			
0.3376	21608.97	3.7350	3.7351	-0.9004	25.84	0.26	-0.750			
0.3404	21784.76	3.7320	3.7319	-0.9115	25.85	0.27	-0.750			
0.3431	21959.48	3.7290	3.7290	-0.9240	25.85	0.27	-0.750			
0.3459	22139.33	3.7260	3.7259	-0.9263	25.85	0.27	-0.750			
0.3487	22317.30	3.7230	3.7229	-0.9332	25.85	0.27	-0.750			
0.3515	22495.77	3.7200	3.7200	-0.9425	25.85	0.27	-0.750			
0.3543	22676.78	3.7170	3.7170	-0.9517	25.85	0.27	-0.750			
0.3572	22862.87	3.7140	3.7139	-0.9691	25.85	0.27	-0.750			
0.3601	23048.99	3.7110	3.7110	-0.9776	25.85	0.27	-0.750			
0.3631	23236.74	3.7080	3.7080	-0.9905	25.85	0.27	-0.750			
0.3661	23429.98	3.7050	3.7052	-1.0148	25.85	0.27	-0.750			
0.3691	23625.12	3.7020	3.7019	-1.0250	25.85	0.27	-0.750			
0.3722	23822.65	3.6990	3.6990	-1.0416	25.85	0.27	-0.750			
0.3754	24022.89	3.6960	3.6960	-1.0600	25.85	0.27	-0.750			
0.3786	24229.12	3.6930	3.6932	-1.0962	25.85	0.27	-0.750			
0.3819	24442.64	3.6900	3.6899	-1.1127	25.85	0.27	-0.750			
0.3853	24658.43	3.6870	3.6869	-1.1309	25.85	0.27	-0.750			
0.3887	24877.91	3.6840	3.6840	-1.1518	25.85	0.27	-0.750			
0.3922	25103.08	3.6810	3.6811	-1.1797	25.85	0.27	-0.750			
0.3958	25330.51	3.6780	3.6779	-1.1989	25.84	0.26	-0.750			
0.3994	25560.50	3.6750	3.6750	-1.2205	25.83	0.25	-0.750			
0.4031	25796.37	3.6720	3.6722	-1.2419	25.82	0.24	-0.750			
0.4069	26039.75	3.6690	3.6689	-1.2772	25.82	0.24	-0.750			
0.4107	26286.13	3.6660	3.6659	-1.3102	25.81	0.23	-0.750			
0.4147	26539.63	3.6630	3.6631	-1.3516	25.81	0.23	-0.750			
0.4188	26806.05	3.6600	3.6598	-1.3881	25.80	0.22	-0.750			
0.4231	27076.57	3.6570	3.6569	-1.4118	25.80	0.22	-0.750			
0.4274	27351.29	3.6540	3.6542	-1.4458	25.79	0.21	-0.750			
0.4317	27631.89	3.6510	3.6509	-1.4838	25.78	0.20	-0.750			
0.4362	27919.29	3.6480	3.6479	-1.5189	25.78	0.20	-0.750			
0.4408	28211.24	3.6450	3.6452	-1.5569	25.77	0.19	-0.750			
0.4455	28512.55	3.6420	3.6422	-1.5892	25.76	0.18	-0.750			
0.4504	28826.80	3.6390	3.6390	-1.6441	25.75	0.17	-0.750			
0.4554	29147.03	3.6360	3.6358	-1.6620	25.74	0.16	-0.750			
0.4604	29468.04	3.6330	3.6331	-1.7036	25.73	0.15	-0.750			
0.4656	29798.74	3.6300	3.6304	-1.7234	25.72	0.14	-0.750			
0.4709	30135.03	3.6270	3.6267	-1.7723	25.71	0.13	-0.750	0.404	0.496	
0.4762	30476.84	3.6240	3.6242	-1.7990	25.70	0.12	-0.750			
0.4816	30825.30	3.6210	3.6210	-1.8319	25.69	0.11	-0.750			
0.4872	31182.78	3.6180	3.6183	-1.8554	25.69	0.11	-0.750			
0.4928	31537.74	3.6150	3.6151	-1.8896	25.68	0.10	-0.750			
0.4985	31902.92	3.6120	3.6121	-1.9340	25.67	0.09	-0.750			
0.5044	32280.59	3.6090	3.6090	-1.9675	25.66	0.08	-0.750			
0.5104	32664.82	3.6060	3.6060	-2.0061	25.65	0.07	-0.750			
0.5164	33049.59	3.6030	3.6030	-2.0212	25.64	0.06	-0.750			
0.5225	33441.90	3.6000	3.6000	-2.0684	25.63	0.05	-0.750			
0.5288	33846.37	3.5970	3.5970	-2.1058	25.63	0.05	-0.750			
0.5351	34246.83	3.5940	3.5938	-2.1351	25.62	0.04	-0.750			
0.5415	34658.14	3.5910	3.5911	-2.1859	25.62	0.04	-0.750			
0.5482	35086.63	3.5880	3.5881	-2.2231	25.61	0.03	-0.750			
0.5550	35522.62	3.5850	3.5847	-2.2479	25.60	0.02	-0.750			
0.5618	35958.28	3.5820	3.5820	-2.2851	25.60	0.02	-0.750			
0.5687	36396.94	3.5790	3.5790	-2.3080	25.60	0.02	-0.750			
0.5757	36843.27	3.5760	3.5761	-2.3315	25.59	0.01	-0.750			
0.5827	37293.64	3.5730	3.5727	-2.3304	25.59	0.01	-0.750			
0.5897	37740.55	3.5700	3.5698	-2.3570	25.58	0.00	-0.750			
0.5969	38200.21	3.5670	3.5671	-2.3785	25.57	-0.01	-0.750			
0.6040	38658.28	3.5640	3.5639	-2.3956	25.56	-0.02	-0.750			
0.6112	39119.64	3.5610	3.5609	-2.3804	25.56	-0.02	-0.750			
0.6184	39579.48	3.5580	3.5579	-2.3963	25.56	-0.02	-0.750			
0.6258	40049.13	3.5550	3.5550	-2.3952	25.56	-0.02	-0.750			
0.6330	40510.37	3.5520	3.5520	-2.3807	25.56	-0.02	-0.750			
0.6400	40961.68	3.5490	3.5491	-2.3533	25.56	-0.02	-0.750			
0.6471	41413.75	3.5460	3.5458	-2.3362	25.56	-0.02	-0.750			
0.6541	41860.61	3.5430	3.5431	-2.3258	25.56	-0.02	-0.750			
0.6611	42309.69	3.5400	3.5400	-2.2985	25.56	-0.02	-0.750			
0.6680	42749.29	3.5370	3.5369	-2.2709	25.56	-0.02	-0.750			
0.6748	43186.58	3.5340	3.5341	-2.2075	25.56	-0.02	-0.750			
0.6814	43606.65	3.5310	3.5311	-2.1686	25.56	-0.02	-0.750			
0.6878	44016.86	3.5280	3.5281	-2.0988	25.57	-0.01	-0.750			
0.6939	44410.32	3.5250	3.5248	-2.0404	25.57	-0.01	-0.750			
0.6999	44796.74	3.5220	3.5222	-1.9928	25.58	-0.00	-0.750			
0.7059	45175.78	3.5190	3.5188	-1.9615	25.58	0.00	-0.750			
0.7118	45552.80	3.5160	3.5156	-1.8959	25.59	0.01	-0.750			
0.7174	45915.72	3.5130	3.5132	-1.8322	25.61	0.03	-0.750			
0.7229	46263.37	3.5100	3.5100	-1.7552	25.62	0.04	-0.750			
0.7280	46591.64	3.5070	3.5072	-1.6844	25.64	0.06	-0.750			
0.7328	46900.50	3.5040	3.5041	-1.5852	25.65	0.07	-0.750			
0.7375	47197.63	3.5010	3.5010	-1.5525	25.65	0.07	-0.750			
0.7420	47490.80	3.4980	3.4980	-1.4954	25.66	0.08	-0.750			
0.7466	47779.43	3.4950	3.4950	-1.4539	25.68	0.10	-0.750			
0.7508	48049.40	3.4920	3.4920	-1.4074	25.69	0.11	-0.750			
0.7550	48317.82	3.4890	3.4890	-1.3603	25.71	0.13	-0.750			
0.7590	48575.30	3.4860	3.4859	-1.3114	25.72	0.14	-0.750			
0.7628	48821.67	3.4830	3.4830	-1.2658	25.74	0.16	-0.750			
0.7665	49057.01	3.4800	3.4801	-1.2149	25.75	0.17	-0.750			
0.7702	49290.51	3.4770	3.4769	-1.1809	25.76	0.18	-0.750			
0.7736	49512.28	3.4740	3.4740	-1.1364	25.78	0.20	-0.750			
0.7769	49723.55	3.4710	3.4709	-1.0923	25.79	0.21	-0.750			
0.7802	49929.74	3.4680	3.4679	-1.0643	25.79	0.21	-0.750			
0.7833	50130.67	3.4650	3.4650	-1.0282	25.80	0.22	-0.750			
0.7863	50322.87	3.4620	3.4619	-0.9906	25.81	0.23	-0.750			
0.7892	50507.48	3.4590	3.4591	-0.9671	25.82	0.24	-0.750			
0.7920	50690.33	3.4560	3.4560	-0.9531	25.83	0.25	-0.750			
0.7948	50868.76	3.4530	3.4529	-0.9582	25.84	0.26	-0.750			
0.7977	51051.19	3.4500	3.4499	-0.9655	25.85	0.27	-0.750			
0.8005	51233.03	3.4470	3.4470	-0.9788	25.86	0.28	-0.750			
0.8035	51423.41	3.4440	3.4442	-1.0136	25.87	0.29	-0.750			
0.8066	51620.72	3.4410	3.4409	-1.0475	25.88	0.30	-0.750			
0.8097	51822.71	3.4380	3.4379	-1.0873	25.89	0.31	-0.750			
0.8130	52031.83	3.4350	3.4350	-1.1310	25.90	0.32	-0.750			
0.8165	52257.41	3.4320	3.4320	-1.1704	25.91	0.33	-0.750			
0.8202	52489.71	3.4290	3.4290	-1.1981	25.92	0.34	-0.750			
0.8239	52728.18	3.4260	3.4260	-1.2086	25.92	0.34	-0.750			
0.8276	52963.72	3.4230	3.4229	-1.2007	25.93	0.35	-0.750			
0.8312	53198.31	3.4200	3.4199	-1.2007	25.94	0.36	-0.750			
0.8348	53429.20	3.4170	3.4170	-1.1710	25.95	0.37	-0.750			
0.8383	53654.03	3.4140	3.4138	-1.1299	25.96	0.38	-0.750			
0.8417	53869.37	3.4110	3.4112	-1.0866	25.97	0.39	-0.750			
0.8449	54076.39	3.4080	3.4080	-1.0446	25.98	0.40	-0.750			
0.8480	54270.71	3.4050	3.4049	-0.9928	25.98	0.40	-0.750			
0.8508	54450.99	3.4020	3.4020	-0.9340	25.99	0.41	-0.750			
0.8536	54629.48	3.3990	3.3991	-0.9034	25.99	0.41	-0.750			
0.8562	54799.24	3.3960	3.3960	-0.8689	26.00	0.42	-0.750			
0.8588	54961.88	3.3930	3.3929	-0.8364	26.00	0.42	-0.750			
0.8612	55118.69	3.3900	3.3899	-0.8000	26.01	0.43	-0.750			
0.8636	55269.21	3.3870	3.3870	-0.7710	26.02	0.44	-0.750			
0.8658	55413.88	3.3840	3.3842	-0.7450	26.02	0.44	-0.750			
0.8680	55553.74	3.3810	3.3809	-0.7158	26.03	0.45	-0.750			
0.8701	55688.79	3.3780	3.3779	-0.6873	26.03	0.45	-0.750			
0.8721	55817.22	3.3750	3.3751	-0.6599	26.04	0.46	-0.750			
0.8741	55943.57	3.3720	3.3720	-0.6374	26.05	0.47	-0.750			
0.8760	56062.81	3.3690	3.3690	-0.6108	26.05	0.47	-0.750			
0.8778	56176.61	3.3660	3.3661	-0.5796	26.06	0.48	-0.750			
0.8794	56284.37	3.3630	3.3629	-0.5552	26.07	0.49	-0.750			
0.8811	56388.45	3.3600	3.3600	-0.5321	26.07	0.49	-0.750			
0.8826	56488.26	3.3570	3.3570	-0.5082	26.08	0.50	-0.750			
0.8841	56582.49	3.3540	3.3540	-0.4853	26.08	0.50	-0.750			
0.8855	56674.54	3.3510	3.3511	-0.4662	26.09	0.51	-0.750			
0.8869	56761.85	3.3480	3.3480	-0.4456	26.10	0.52	-0.750			
0.8882	56845.89	3.3450	3.3449	-0.4271	26.10	0.52	-0.750			
0.8895	56924.83	3.3420	3.3420	-0.4079	26.11	0.53	-0.750			
0.8906	57000.81	3.3390	3.3390	-0.3918	26.11	0.53	-0.750			
0.8918	57074.68	3.3360	3.3360	-0.3766	26.12	0.54	-0.750			
0.8929	57144.76	3.3330	3.3329	-0.3610	26.12	0.54	-0.750			
0.8940	57213.04	3.3300	3.3300	-0.3464	26.13	0.55	-0.750			
0.8950	57278.78	3.3270	3.3271	-0.3321	26.13	0.55	-0.750			
0.8960	57340.84	3.3240	3.3240	-0.3179	26.14	0.56	-0.750			
0.8969	57399.74	3.3210	3.3211	-0.3032	26.14	0.56	-0.750			
0.8978	57456.45	3.3180	3.3179	-0.2924	26.14	0.56	-0.750			
0.8986	57510.93	3.3150	3.3149	-0.2823	26.15	0.57	-0.750			
0.8994	57563.99	3.3120	3.3120	-0.2717	26.15	0.57	-0.750			
0.9002	57615.27	3.3090	3.3089	-0.2637	26.16	0.58	-0.750			
0.9010	57665.88	3.3060	3.3060	-0.2547	26.16	0.58	-0.750			
0.9018	57713.92	3.3030	3.3030	-0.2446	26.16	0.58	-0.750			
0.9025	57759.65	3.3000	3.2999	-0.2354	26.17	0.59	-0.750			
0.9032	57803.83	3.2970	3.2972	-0.2269	26.17	0.59	-0.750			
0.9038	57845.87	3.2940	3.2939	-0.2189	26.17	0.59	-0.750			
0.9045	57886.85	3.2910	3.2910	-0.2114	26.18	0.60	-0.750			
0.9051	57926.35	3.2880	3.2881	-0.2067	26.18	0.60	-0.750			
0.9057	57965.05	3.2850	3.2850	-0.2001	26.19	0.61	-0.750			
0.9063	58003.62	3.2820	3.2819	-0.1964	26.19	0.61	-0.750			
0.9069	58040.82	3.2790	3.2790	-0.1911	26.19	0.61	-0.750			
0.9075	58076.86	3.2760	3.2761	-0.1862	26.20	0.62	-0.750			
0.9080	58112.10	3.2730	3.2730	-0.1822	26.20	0.62	-0.750			
0.9085	58146.04	3.2700	3.2700	-0.1780	26.20	0.62	-0.750			
0.9091	58179.92	3.2670	3.2670	-0.1749	26.21	0.63	-0.750			
0.9096	58212.79	3.2640	3.2640	-0.1706	26.21	0.63	-0.750			
0.9101	58245.62	3.2610	3.2611	-0.1680	26.21	0.63	-0.750			
0.9106	58277.94	3.2580	3.2580	-0.1646	26.22	0.64	-0.750			
0.9111	58309.12	3.2550	3.2551	-0.1602	26.22	0.64	-0.750			
0.9116	58339.51	3.2520	3.2520	-0.1568	26.22	0.64	-0.750			
0.9120	58368.99	3.2490	3.2491	-0.1531	26.23	0.65	-0.750			
0.9125	58397.42	3.2460	3.2460	-0.1494	26.23	0.65	-0.750			
0.9129	58425.92	3.2430	3.2430	-0.1475	26.23	0.65	-0.750			
0.9133	58454.05	3.2400	3.2400	-0.1454	26.24	0.66	-0.750			
0.9138	58481.64	3.2370	3.2369	-0.1430	26.24	0.66	-0.750			
0.9142	58509.19	3.2340	3.2340	-0.1418	26.24	0.66	-0.750			
0.9146	58536.26	3.2310	3.2311	-0.1389	26.24	0.66	-0.750			
0.9150	58562.53	3.2280	3.2280	-0.1369	26.25	0.67	-0.750			
0.9154	58588.65	3.2250	3.2250	-0.1348	26.25	0.67	-0.750			
0.9158	58614.06	3.2220	3.2221	-0.1323	26.25	0.67	-0.750			
0.9162	58639.31	3.2190	3.2189	-0.1308	26.26	0.68	-0.750			
0.9166	58664.35	3.2160	3.2161	-0.1289	26.26	0.68	-0.750			
0.9170	58688.89	3.2130	3.2130	-0.1270	26.26	0.68	-0.750			
0.9174	58713.10	3.2100	3.2101	-0.1253	26.27	0.69	-0.750			
0.9178	58737.02	3.2070	3.2070	-0.1241	26.27	0.69	-0.750			
0.9181	58760.69	3.2040	3.2038	-0.1225	26.28	0.70	-0.750			
0.9185	58783.82	3.2010	3.2011	-0.1206	26.28	0.70	-0.750			
0.9189	58806.84	3.1980	3.1980	-0.1193	26.28	0.70	-0.750			
0.9192	58829.61	3.1950	3.1950	-0.1179	26.29	0.71	-0.750			
0.9196	58852.22	3.1920	3.1920	-0.1167	26.29	0.71	-0.750			
0.9199	58874.37	3.1890	3.1890	-0.1155	26.29	0.71	-0.750			
0.9203	58896.37	3.1860	3.1861	-0.1142	26.30	0.72	-0.750			
0.9206	58918.14	3.1830	3.1831	-0.1131	26.30	0.72	-0.750			
0.9209	58939.61	3.1800	3.1799	-0.1118	26.30	0.72	-0.750			
0.9213	58961.03	3.1770	3.1770	-0.1108	26.31	0.73	-0.750			
0.9216	58982.25	3.1740	3.1740	-0.1099	26.31	0.73	-0.750			
0.9219	59003.25	3.1710	3.1711	-0.1089	26.31	0.73	-0.750			
0.9223	59024.10	3.1680	3.1680	-0.1080	26.32	0.74	-0.750			
0.9226	59044.75	3.1650	3.1650	-0.1069	26.32	0.74	-0.750			
0.9229	59065.14	3.1620	3.1621	-0.1058	26.32	0.74	-0.750			
0.9232	59085.29	3.1590	3.1590	-0.1049	26.33	0.75	-0.750			
0.9235	59105.32	3.1560	3.1561	-0.1039	26.33	0.75	-0.750			
0.9238	59125.18	3.1530	3.1529	-0.1030	26.33	0.75	-0.750			
0.9241	59144.85	3.1500	3.1499	-0.1021	26.34	0.76	-0.750			
0.9244	59164.41	3.1470	3.1470	-0.1012	26.34	0.76	-0.750			
0.9247	59183.74	3.1440	3.1441	-0.1003	26.34	0.76	-0.750			
0.9250	59202.97	3.1410	3.1409	-0.0993	26.34	0.76	-0.750			
0.9253	59222.04	3.1380	3.1380	-0.0985	26.35	0.77	-0.750			
0.9256	59240.70	3.1350	3.1351	-0.0978	26.35	0.77	-0.750			
0.9259	59259.28	3.1320	3.1320	-0.0968	26.35	0.77	-0.750			
0.9262	59277.67	3.1290	3.1291	-0.0966	26.36	0.78	-0.750			
0.9265	59296.00	3.1260	3.1259	-0.0960	26.36	0.78	-0.750			
0.9268	59314.68	3.1230	3.1230	-0.0953	26.36	0.78	-0.750			
0.9271	59333.02	3.1200	3.1199	-0.0949	26.37	0.79	-0.750			
0.9274	59351.17	3.1170	3.1171	-0.0944	26.37	0.79	-0.750			
0.9276	59369.41	3.1140	3.1141	-0.0940	26.37	0.79	-0.750			
0.9279	59387.41	3.1110	3.1110	-0.0930	26.38	0.80	-0.750			
0.9282	59405.20	3.1080	3.1079	-0.0920	26.38	0.80	-0.750			
0.9285	59422.76	3.1050	3.1050	-0.0910	26.39	0.81	-0.750			
0.9287	59439.96	3.1020	3.1021	-0.0900	26.39	0.81	-0.750			
0.9290	59457.16	3.0990	3.0991	-0.0893	26.39	0.81	-0.750			
0.9293	59474.27	3.0960	3.0959	-0.0891	26.40	0.82	-0.750			
0.9296	59491.32	3.0930	3.0931	-0.0885	26.40	0.82	-0.750			
0.9298	59507.97	3.0900	3.0900	-0.0877	26.40	0.82	-0.750			
0.9301	59524.80	3.0870	3.0870	-0.0876	26.41	0.83	-0.750			
0.9303	59541.76	3.0840	3.0841	-0.0874	26.41	0.83	-0.750			
0.9306	59558.50	3.0810	3.0810	-0.0870	26.41	0.83	-0.750			
0.9309	59575.18	3.0780	3.0779	-0.0868	26.42	0.84	-0.750			
0.9311	59591.81	3.0750	3.0750	-0.0864	26.42	0.84	-0.750			
0.9314	59608.35	3.0720	3.0720	-0.0860	26.42	0.84	-0.750			
0.9316	59624.81	3.0690	3.0691	-0.0855	26.43	0.85	-0.750			
0.9319	59641.18	3.0660	3.0659	-0.0851	26.43	0.85	-0.750			
0.9321	59657.54	3.0630	3.0631	-0.0846	26.44	0.86	-0.750			
0.9324	59673.73	3.0600	3.0599	-0.0840	26.44	0.86	-0.750			
0.9327	59689.86	3.0570	3.0569	-0.0837	26.44	0.86	-0.750			
0.9329	59705.87	3.0540	3.0541	-0.0831	26.45	0.87	-0.750			
0.9332	59721.69	3.0510	3.0511	-0.0824	26.45	0.87	-0.750			
0.9334	59737.47	3.0480	3.0480	-0.0819	26.45	0.87	-0.750			
0.9336	59753.15	3.0450	3.0448	-0.0814	26.46	0.88	-0.750			
0.9339	59768.71	3.0420	3.0420	-0.0809	26.46	0.88	-0.750			
0.9341	59784.16	3.0390	3.0391	-0.0807	26.46	0.88	-0.750			
0.9344	59799.59	3.0360	3.0360	-0.0803	26.47	0.89	-0.750			
0.9346	59815.04	3.0330	3.0329	-0.0798	26.47	0.89	-0.750			
0.9348	59830.33	3.0300	3.0301	-0.0794	26.47	0.89	-0.750			
0.9351	59845.55	3.0270	3.0269	-0.0790	26.48	0.90	-0.750			
0.9353	59860.63	3.0240	3.0241	-0.0788	26.48	0.90	-0.750			
0.9356	59875.73	3.0210	3.0210	-0.0784	26.48	0.90	-0.750			
0.9358	59890.89	3.0180	3.0179	-0.0778	26.49	0.91	-0.750			
0.9360	59905.77	3.0150	3.0150	-0.0772	26.49	0.91	-0.750			
0.9363	59920.57	3.0120	3.0120	-0.0766	26.49	0.91	-0.750			
0.9365	59935.23	3.0090	3.0092	-0.0760	26.50	0.92	-0.750			
0.9367	59950.04	3.0060	3.0061	-0.0744	26.50	0.92	-0.751			
0.9369	59964.16	3.0030	3.0030	-0.0727	26.50	0.92	-0.751			
