Ah_balance (normalized)	Ah_balance (mAh)	Voltage - fit (V)	Voltage -  interpolate (V)	dQ/dV (1/V)	Temperature (°C)	Temperature - diff (°C)	Current (C)	R_DC 0ms (mOhm)	R_DC 50ms (mOhm)	R_DC 50 ms PEC (mOhm)
0.0004	24.32	4.1640	4.1641	-0.1379	25.82	0.01	-0.750			
0.0010	61.12	4.1610	4.1607	-0.2056	25.81	0.00	-0.750			
0.0017	107.19	4.1580	4.1577	-0.2518	25.81	0.00	-0.750			
0.0025	160.01	4.1550	4.1551	-0.2924	25.81	0.00	-0.750			
0.0035	221.63	4.1520	4.1522	-0.3361	25.81	-0.00	-0.750			
0.0045	289.68	4.1490	4.1490	-0.3746	25.81	-0.00	-0.750			
0.0057	363.44	4.1460	4.1459	-0.4152	25.80	-0.01	-0.750			
0.0070	444.83	4.1430	4.1429	-0.4568	25.80	-0.01	-0.750			
0.0084	538.02	4.1400	4.1401	-0.5027	25.80	-0.01	-0.750			
0.0100	640.92	4.1370	4.1370	-0.5411	25.79	-0.02	-0.750			
0.0117	750.76	4.1340	4.1340	-0.5774	25.79	-0.02	-0.750			
0.0135	866.01	4.1310	4.1310	-0.6060	25.78	-0.03	-0.750			
0.0154	985.44	4.1280	4.1281	-0.6334	25.78	-0.03	-0.750			
0.0173	1109.75	4.1250	4.1250	-0.6553	25.78	-0.03	-0.750			
0.0193	1237.85	4.1220	4.1220	-0.6743	25.77	-0.04	-0.750			
0.0214	1369.77	4.1190	4.1190	-0.6930	25.77	-0.04	-0.750			
0.0235	1507.00	4.1160	4.1160	-0.7089	25.77	-0.04	-0.750			
0.0257	1642.67	4.1130	4.1129	-0.7234	25.76	-0.05	-0.750			
0.0279	1782.45	4.1100	4.1103	-0.7414	25.76	-0.05	-0.750			
0.0301	1925.74	4.1070	4.1070	-0.7576	25.76	-0.05	-0.750			
0.0324	2075.73	4.1040	4.1039	-0.7645	25.76	-0.05	-0.750			
0.0348	2224.56	4.1010	4.1010	-0.7692	25.75	-0.06	-0.750			
0.0371	2375.50	4.0980	4.0981	-0.7676	25.75	-0.06	-0.750			
0.0394	2522.83	4.0950	4.0950	-0.7626	25.75	-0.06	-0.750			
0.0417	2666.86	4.0920	4.0920	-0.7520	25.75	-0.06	-0.750			
0.0439	2808.73	4.0890	4.0890	-0.7551	25.74	-0.07	-0.750			
0.0461	2951.69	4.0860	4.0860	-0.7563	25.74	-0.07	-0.750			
0.0484	3098.33	4.0830	4.0830	-0.7638	25.74	-0.07	-0.750			
0.0507	3244.74	4.0800	4.0800	-0.7714	25.73	-0.08	-0.750			
0.0531	3396.22	4.0770	4.0771	-0.7739	25.73	-0.08	-0.750			
0.0554	3545.38	4.0740	4.0739	-0.7709	25.73	-0.08	-0.750			
0.0577	3693.35	4.0710	4.0711	-0.7762	25.73	-0.08	-0.750			
0.0600	3842.42	4.0680	4.0680	-0.7706	25.74	-0.07	-0.750			
0.0623	3988.66	4.0650	4.0649	-0.7757	25.74	-0.07	-0.750			
0.0646	4136.87	4.0620	4.0620	-0.7819	25.74	-0.07	-0.750			
0.0670	4287.09	4.0590	4.0589	-0.7821	25.74	-0.07	-0.750			
0.0693	4438.24	4.0560	4.0559	-0.7958	25.74	-0.07	-0.750			
0.0718	4592.49	4.0530	4.0531	-0.7999	25.75	-0.06	-0.750			
0.0741	4744.28	4.0500	4.0499	-0.8137	25.75	-0.06	-0.750			
0.0766	4903.49	4.0470	4.0470	-0.8336	25.75	-0.06	-0.750			
0.0791	5064.18	4.0440	4.0439	-0.8395	25.75	-0.06	-0.750			
0.0817	5228.60	4.0410	4.0409	-0.8416	25.75	-0.06	-0.750			
0.0843	5393.69	4.0380	4.0382	-0.8401	25.75	-0.06	-0.750			
0.0868	5554.35	4.0350	4.0350	-0.8317	25.75	-0.06	-0.750			
0.0893	5715.42	4.0320	4.0319	-0.8253	25.75	-0.06	-0.750			
0.0917	5868.75	4.0290	4.0291	-0.8106	25.75	-0.06	-0.750			
0.0941	6022.56	4.0260	4.0260	-0.8145	25.76	-0.05	-0.750			
0.0966	6179.94	4.0230	4.0230	-0.8146	25.76	-0.05	-0.750			
0.0990	6335.87	4.0200	4.0199	-0.8131	25.76	-0.05	-0.750			
0.1015	6493.57	4.0170	4.0170	-0.8167	25.77	-0.04	-0.750			
0.1039	6649.63	4.0140	4.0141	-0.8162	25.77	-0.04	-0.750			
0.1064	6806.71	4.0110	4.0109	-0.8169	25.77	-0.04	-0.750			
0.1088	6962.03	4.0080	4.0079	-0.8160	25.77	-0.04	-0.750			
0.1112	7118.61	4.0050	4.0051	-0.8143	25.78	-0.03	-0.750			
0.1137	7276.26	4.0020	4.0020	-0.8185	25.78	-0.03	-0.750			
0.1162	7433.63	3.9990	3.9990	-0.8213	25.78	-0.03	-0.750			
0.1186	7590.62	3.9960	3.9960	-0.8254	25.79	-0.02	-0.750			
0.1211	7749.04	3.9930	3.9930	-0.8259	25.79	-0.02	-0.750			
0.1236	7908.00	3.9900	3.9900	-0.8290	25.80	-0.01	-0.750			
0.1261	8068.32	3.9870	3.9869	-0.8305	25.81	-0.00	-0.750			
0.1286	8229.08	3.9840	3.9841	-0.8353	25.81	0.00	-0.750			
0.1311	8388.00	3.9810	3.9810	-0.8374	25.81	0.00	-0.750			
0.1336	8548.82	3.9780	3.9780	-0.8364	25.81	0.00	-0.750			
0.1361	8709.08	3.9750	3.9750	-0.8349	25.81	0.00	-0.750			
0.1386	8871.16	3.9720	3.9720	-0.8404	25.81	0.00	-0.750			
0.1411	9032.60	3.9690	3.9690	-0.8421	25.81	0.00	-0.750			
0.1437	9194.06	3.9660	3.9660	-0.8474	25.82	0.01	-0.750			
0.1462	9356.39	3.9630	3.9630	-0.8479	25.82	0.01	-0.750			
0.1487	9519.39	3.9600	3.9600	-0.8503	25.82	0.01	-0.750			
0.1513	9684.77	3.9570	3.9570	-0.8563	25.83	0.02	-0.750			
0.1539	9849.38	3.9540	3.9540	-0.8602	25.83	0.02	-0.750			
0.1565	10014.46	3.9510	3.9510	-0.8614	25.84	0.03	-0.750			
0.1591	10179.81	3.9480	3.9480	-0.8617	25.84	0.03	-0.750			
0.1616	10345.14	3.9450	3.9450	-0.8612	25.84	0.03	-0.750			
0.1642	10511.59	3.9420	3.9420	-0.8652	25.85	0.04	-0.750			
0.1668	10677.85	3.9390	3.9390	-0.8675	25.85	0.04	-0.750			
0.1694	10844.41	3.9360	3.9360	-0.8689	25.86	0.05	-0.750			
0.1720	11011.12	3.9330	3.9330	-0.8694	25.86	0.05	-0.750			
0.1747	11178.68	3.9300	3.9300	-0.8710	25.87	0.06	-0.750			
0.1773	11346.90	3.9270	3.9270	-0.8746	25.87	0.06	-0.750			
0.1799	11513.84	3.9240	3.9240	-0.8785	25.87	0.06	-0.750			
0.1825	11682.69	3.9210	3.9211	-0.8823	25.87	0.06	-0.750			
0.1852	11852.40	3.9180	3.9179	-0.8816	25.88	0.07	-0.750			
0.1878	12022.18	3.9150	3.9150	-0.8846	25.88	0.07	-0.750			
0.1905	12193.49	3.9120	3.9121	-0.8867	25.88	0.07	-0.750			
0.1932	12363.14	3.9090	3.9090	-0.8889	25.89	0.08	-0.750			
0.1958	12534.31	3.9060	3.9060	-0.8891	25.89	0.08	-0.750			
0.1985	12704.93	3.9030	3.9030	-0.8886	25.90	0.09	-0.750			
0.2012	12875.11	3.9000	3.8999	-0.8918	25.91	0.10	-0.750			
0.2039	13046.84	3.8970	3.8970	-0.8952	25.91	0.10	-0.750			
0.2065	13218.72	3.8940	3.8940	-0.8968	25.92	0.11	-0.750			
0.2092	13391.45	3.8910	3.8910	-0.8978	25.92	0.11	-0.750			
0.2119	13563.62	3.8880	3.8880	-0.9008	25.92	0.11	-0.750			
0.2147	13738.10	3.8850	3.8849	-0.9024	25.93	0.12	-0.750			
0.2174	13910.97	3.8820	3.8819	-0.9053	25.93	0.12	-0.750			
0.2201	14084.07	3.8790	3.8790	-0.9082	25.94	0.13	-0.750			
0.2228	14258.37	3.8760	3.8760	-0.9090	25.94	0.13	-0.750			
0.2255	14433.29	3.8730	3.8729	-0.9122	25.95	0.14	-0.750			
0.2283	14609.85	3.8700	3.8701	-0.9145	25.95	0.14	-0.750			
0.2310	14785.25	3.8670	3.8670	-0.9147	25.96	0.15	-0.750			
0.2338	14962.19	3.8640	3.8640	-0.9177	25.96	0.15	-0.750			
0.2365	15137.67	3.8610	3.8610	-0.9180	25.96	0.15	-0.750			
0.2393	15313.18	3.8580	3.8580	-0.9183	25.97	0.16	-0.750			
0.2420	15488.41	3.8550	3.8550	-0.9297	25.97	0.16	-0.750			
0.2448	15669.68	3.8520	3.8520	-0.9267	25.97	0.16	-0.750			
0.2476	15848.70	3.8490	3.8489	-0.9249	25.98	0.17	-0.750			
0.2504	16026.10	3.8460	3.8460	-0.9245	25.98	0.17	-0.750			
0.2532	16204.20	3.8430	3.8432	-0.9206	25.98	0.17	-0.750			
0.2559	16378.59	3.8400	3.8399	-0.9227	25.99	0.18	-0.750			
0.2587	16554.68	3.8370	3.8369	-0.9201	25.99	0.18	-0.750			
0.2614	16729.69	3.8340	3.8341	-0.9188	26.00	0.19	-0.750			
0.2642	16911.37	3.8310	3.8310	-0.9300	26.01	0.20	-0.750			
0.2670	17090.43	3.8280	3.8280	-0.9312	26.01	0.20	-0.750			
0.2698	17268.42	3.8250	3.8250	-0.9319	26.01	0.20	-0.750			
0.2726	17446.96	3.8220	3.8220	-0.9335	26.01	0.20	-0.750			
0.2754	17624.92	3.8190	3.8189	-0.9317	26.01	0.20	-0.750			
0.2782	17805.21	3.8160	3.8160	-0.9386	26.01	0.20	-0.750			
0.2810	17985.38	3.8130	3.8131	-0.9430	26.02	0.21	-0.750			
0.2839	18169.17	3.8100	3.8099	-0.9469	26.02	0.21	-0.750			
0.2867	18350.50	3.8070	3.8070	-0.9438	26.02	0.21	-0.750			
0.2896	18531.23	3.8040	3.8041	-0.9432	26.03	0.22	-0.750			
0.2924	18711.94	3.8010	3.8010	-0.9482	26.03	0.22	-0.750			
0.2952	18894.03	3.7980	3.7979	-0.9490	26.04	0.23	-0.750			
0.2981	19075.23	3.7950	3.7950	-0.9517	26.04	0.23	-0.750			
0.3009	19258.28	3.7920	3.7920	-0.9527	26.05	0.24	-0.750			
0.3038	19444.05	3.7890	3.7890	-0.9605	26.05	0.24	-0.750			
0.3067	19628.81	3.7860	3.7860	-0.9613	26.06	0.25	-0.750			
0.3096	19813.50	3.7830	3.7830	-0.9606	26.06	0.25	-0.750			
0.3125	19997.10	3.7800	3.7799	-0.9598	26.07	0.26	-0.750			
0.3153	20182.00	3.7770	3.7770	-0.9638	26.07	0.26	-0.750			
0.3182	20365.78	3.7740	3.7740	-0.9662	26.08	0.27	-0.750			
0.3211	20551.99	3.7710	3.7709	-0.9709	26.08	0.27	-0.750			
0.3241	20739.70	3.7680	3.7679	-0.9703	26.08	0.27	-0.750			
0.3270	20927.01	3.7650	3.7651	-0.9730	26.09	0.28	-0.750			
0.3299	21113.15	3.7620	3.7620	-0.9768	26.09	0.28	-0.750			
0.3328	21301.73	3.7590	3.7589	-0.9756	26.10	0.29	-0.750			
0.3358	21488.43	3.7560	3.7559	-0.9774	26.10	0.29	-0.750			
0.3387	21674.48	3.7530	3.7529	-0.9822	26.11	0.30	-0.750			
0.3416	21865.06	3.7500	3.7501	-0.9891	26.11	0.30	-0.750			
0.3446	22056.60	3.7470	3.7469	-0.9975	26.12	0.31	-0.750			
0.3476	22248.72	3.7440	3.7441	-1.0006	26.12	0.31	-0.750			
0.3506	22440.42	3.7410	3.7410	-1.0018	26.13	0.32	-0.750			
0.3537	22635.14	3.7380	3.7381	-1.0088	26.13	0.32	-0.750			
0.3567	22829.13	3.7350	3.7350	-1.0136	26.14	0.33	-0.750			
0.3597	23023.72	3.7320	3.7320	-1.0173	26.14	0.33	-0.750			
0.3628	23219.52	3.7290	3.7290	-1.0188	26.15	0.34	-0.750			
0.3659	23416.10	3.7260	3.7261	-1.0320	26.15	0.34	-0.750			
0.3690	23614.63	3.7230	3.7230	-1.0390	26.15	0.34	-0.750			
0.3721	23814.18	3.7200	3.7199	-1.0455	26.15	0.34	-0.750			
0.3752	24013.48	3.7170	3.7170	-1.0528	26.15	0.34	-0.750			
0.3784	24218.93	3.7140	3.7141	-1.0753	26.15	0.34	-0.750			
0.3817	24426.19	3.7110	3.7109	-1.0874	26.16	0.35	-0.750			
0.3849	24636.51	3.7080	3.7080	-1.1018	26.16	0.35	-0.750			
0.3883	24848.45	3.7050	3.7050	-1.1169	26.17	0.36	-0.750			
0.3917	25065.79	3.7020	3.7020	-1.1364	26.17	0.36	-0.750			
0.3951	25286.57	3.6990	3.6989	-1.1494	26.17	0.36	-0.750			
0.3985	25506.92	3.6960	3.6960	-1.1669	26.17	0.36	-0.750			
0.4020	25730.97	3.6930	3.6931	-1.1893	26.17	0.36	-0.750			
0.4057	25962.82	3.6900	3.6899	-1.2064	26.17	0.36	-0.750			
0.4093	26195.58	3.6870	3.6870	-1.2267	26.17	0.36	-0.750			
0.4130	26431.74	3.6840	3.6840	-1.2511	26.17	0.36	-0.750			
0.4168	26673.61	3.6810	3.6810	-1.2761	26.17	0.36	-0.750			
0.4207	26922.78	3.6780	3.6779	-1.3034	26.16	0.35	-0.750			
0.4246	27174.35	3.6750	3.6750	-1.3255	26.15	0.34	-0.750			
0.4286	27430.97	3.6720	3.6720	-1.3568	26.15	0.34	-0.750			
0.4328	27696.51	3.6690	3.6690	-1.3932	26.15	0.34	-0.750			
0.4370	27966.68	3.6660	3.6659	-1.4168	26.15	0.34	-0.750			
0.4413	28240.89	3.6630	3.6630	-1.4516	26.15	0.34	-0.750			
0.4457	28523.35	3.6600	3.6601	-1.4811	26.14	0.33	-0.750			
0.4502	28810.35	3.6570	3.6569	-1.5166	26.13	0.32	-0.750			
0.4548	29104.32	3.6540	3.6541	-1.5543	26.13	0.32	-0.750			
0.4594	29404.63	3.6510	3.6509	-1.5997	26.13	0.32	-0.750			
0.4643	29715.73	3.6480	3.6481	-1.6421	26.13	0.32	-0.750			
0.4693	30033.76	3.6450	3.6450	-1.6866	26.12	0.31	-0.750			
0.4744	30361.48	3.6420	3.6419	-1.7318	26.12	0.31	-0.750			
0.4797	30703.44	3.6390	3.6389	-1.7747	26.11	0.30	-0.750			
0.4851	31046.06	3.6360	3.6358	-1.8121	26.10	0.29	-0.750	0.421	0.495	
0.4906	31399.12	3.6330	3.6328	-1.8459	26.10	0.29	-0.750			
0.4962	31759.05	3.6300	3.6300	-1.8791	26.10	0.29	-0.750			
0.5019	32124.37	3.6270	3.6269	-1.9145	26.09	0.28	-0.750			
0.5077	32492.88	3.6240	3.6240	-1.9352	26.08	0.27	-0.750			
0.5136	32867.78	3.6210	3.6211	-1.9759	26.07	0.26	-0.750			
0.5195	33247.83	3.6180	3.6180	-2.0196	26.06	0.25	-0.750			
0.5256	33640.66	3.6150	3.6149	-2.0372	26.05	0.24	-0.750			
0.5318	34036.03	3.6120	3.6120	-2.0759	26.05	0.24	-0.750			
0.5381	34436.44	3.6090	3.6090	-2.1143	26.04	0.23	-0.750			
0.5445	34848.65	3.6060	3.6060	-2.1424	26.04	0.23	-0.750			
0.5510	35262.66	3.6030	3.6030	-2.1801	26.03	0.22	-0.750			
0.5575	35678.31	3.6000	3.6000	-2.2077	26.03	0.22	-0.750			
0.5642	36110.09	3.5970	3.5969	-2.2385	26.02	0.21	-0.750			
0.5711	36549.31	3.5940	3.5940	-2.2804	26.02	0.21	-0.750			
0.5779	36983.56	3.5910	3.5909	-2.3105	26.01	0.20	-0.750			
0.5849	37432.90	3.5880	3.5879	-2.3439	26.00	0.19	-0.750			
0.5920	37885.48	3.5850	3.5850	-2.3814	25.99	0.18	-0.750			
0.5992	38347.26	3.5820	3.5821	-2.4056	25.98	0.17	-0.750			
0.6064	38811.47	3.5790	3.5790	-2.4323	25.98	0.17	-0.750			
0.6138	39285.71	3.5760	3.5760	-2.4435	25.97	0.16	-0.750			
0.6212	39755.79	3.5730	3.5729	-2.4678	25.97	0.16	-0.750			
0.6286	40231.60	3.5700	3.5701	-2.4728	25.97	0.16	-0.750			
0.6361	40710.80	3.5670	3.5670	-2.4828	25.97	0.16	-0.750			
0.6436	41189.79	3.5640	3.5640	-2.4701	25.97	0.16	-0.750			
0.6510	41664.12	3.5610	3.5609	-2.4564	25.97	0.16	-0.750			
0.6584	42135.65	3.5580	3.5580	-2.4568	25.97	0.16	-0.750			
0.6657	42605.82	3.5550	3.5551	-2.4292	25.97	0.16	-0.750			
0.6730	43070.12	3.5520	3.5520	-2.4130	25.97	0.16	-0.750			
0.6802	43530.59	3.5490	3.5490	-2.3901	25.97	0.16	-0.750			
0.6874	43991.71	3.5460	3.5459	-2.3825	25.95	0.14	-0.750			
0.6946	44453.04	3.5430	3.5430	-2.3478	25.95	0.14	-0.750			
0.7015	44895.82	3.5400	3.5401	-2.3058	25.96	0.15	-0.750			
0.7084	45336.44	3.5370	3.5370	-2.2623	25.96	0.15	-0.750			
0.7151	45766.76	3.5340	3.5340	-2.2244	25.97	0.16	-0.750			
0.7218	46193.05	3.5310	3.5311	-2.1848	25.98	0.17	-0.750			
0.7283	46608.03	3.5280	3.5279	-2.1318	25.99	0.18	-0.750			
0.7346	47012.07	3.5250	3.5250	-2.0659	26.00	0.19	-0.750			
0.7407	47406.80	3.5220	3.5221	-2.0108	26.01	0.20	-0.750			
0.7467	47787.59	3.5190	3.5190	-1.9397	26.02	0.21	-0.750			
0.7524	48151.98	3.5160	3.5159	-1.8675	26.03	0.22	-0.750			
0.7579	48503.04	3.5130	3.5131	-1.7993	26.05	0.24	-0.750			
0.7632	48845.97	3.5100	3.5099	-1.7391	26.06	0.25	-0.750			
0.7683	49172.83	3.5070	3.5072	-1.6673	26.08	0.27	-0.750			
0.7732	49485.38	3.5040	3.5041	-1.5965	26.10	0.29	-0.750			
0.7779	49783.44	3.5010	3.5012	-1.5335	26.11	0.30	-0.750			
0.7823	50069.71	3.4980	3.4980	-1.4791	26.13	0.32	-0.750			
0.7867	50347.83	3.4950	3.4949	-1.4300	26.15	0.34	-0.750			
0.7908	50613.92	3.4920	3.4920	-1.3821	26.17	0.36	-0.750			
0.7950	50877.91	3.4890	3.4890	-1.3425	26.19	0.38	-0.750			
0.7989	51130.38	3.4860	3.4860	-1.2965	26.20	0.39	-0.750			
0.8027	51374.54	3.4830	3.4831	-1.2564	26.21	0.40	-0.750			
0.8064	51612.37	3.4800	3.4799	-1.2108	26.23	0.42	-0.750			
0.8100	51840.98	3.4770	3.4770	-1.1654	26.25	0.44	-0.750			
0.8134	52059.94	3.4740	3.4740	-1.1236	26.26	0.45	-0.750			
0.8167	52271.11	3.4710	3.4710	-1.0833	26.28	0.47	-0.750			
0.8199	52474.32	3.4680	3.4680	-1.0505	26.29	0.48	-0.750			
0.8229	52668.12	3.4650	3.4650	-1.0167	26.30	0.49	-0.750			
0.8259	52857.32	3.4620	3.4621	-0.9992	26.30	0.49	-0.750			
0.8289	53048.87	3.4590	3.4590	-0.9954	26.32	0.51	-0.750			
0.8318	53235.88	3.4560	3.4560	-0.9962	26.33	0.52	-0.750			
0.8347	53423.37	3.4530	3.4531	-1.0175	26.34	0.53	-0.750			
0.8378	53616.52	3.4500	3.4500	-1.0453	26.36	0.55	-0.750			
0.8409	53818.72	3.4470	3.4470	-1.0959	26.37	0.56	-0.750			
0.8443	54032.33	3.4440	3.4439	-1.1433	26.38	0.57	-0.750			
0.8478	54259.85	3.4410	3.4410	-1.1872	26.39	0.58	-0.750			
0.8515	54495.30	3.4380	3.4380	-1.2363	26.40	0.59	-0.750			
0.8553	54742.14	3.4350	3.4349	-1.2543	26.41	0.60	-0.750			
0.8592	54987.99	3.4320	3.4320	-1.2563	26.42	0.61	-0.750			
0.8631	55235.45	3.4290	3.4290	-1.2385	26.43	0.62	-0.750			
0.8668	55472.15	3.4260	3.4261	-1.2048	26.45	0.64	-0.750			
0.8704	55705.11	3.4230	3.4229	-1.1700	26.46	0.65	-0.750			
0.8738	55924.98	3.4200	3.4200	-1.1200	26.47	0.66	-0.750			
0.8771	56132.58	3.4170	3.4170	-1.0681	26.48	0.67	-0.750			
0.8802	56333.87	3.4140	3.4140	-1.0362	26.49	0.68	-0.750			
0.8833	56528.33	3.4110	3.4109	-0.9950	26.49	0.68	-0.750			
0.8862	56715.50	3.4080	3.4079	-0.9589	26.50	0.69	-0.750			
0.8890	56896.15	3.4050	3.4050	-0.9223	26.51	0.70	-0.750			
0.8917	57071.05	3.4020	3.4020	-0.8899	26.51	0.70	-0.750			
0.8944	57239.08	3.3990	3.3990	-0.8548	26.52	0.71	-0.750			
0.8968	57397.74	3.3960	3.3960	-0.8190	26.53	0.72	-0.750			
0.8992	57549.95	3.3930	3.3930	-0.7853	26.53	0.72	-0.750			
0.9015	57698.54	3.3900	3.3900	-0.7594	26.54	0.73	-0.750			
0.9038	57841.00	3.3870	3.3870	-0.7304	26.54	0.73	-0.750			
0.9059	57978.85	3.3840	3.3840	-0.7061	26.55	0.74	-0.750			
0.9080	58111.73	3.3810	3.3810	-0.6798	26.56	0.75	-0.750			
0.9100	58239.94	3.3780	3.3780	-0.6527	26.56	0.75	-0.750			
0.9119	58362.81	3.3750	3.3750	-0.6278	26.57	0.76	-0.750			
0.9138	58480.79	3.3720	3.3721	-0.6036	26.58	0.77	-0.750			
0.9155	58594.38	3.3690	3.3690	-0.5779	26.58	0.77	-0.750			
0.9172	58702.75	3.3660	3.3660	-0.5547	26.59	0.78	-0.750			
0.9189	58806.63	3.3630	3.3630	-0.5306	26.60	0.79	-0.750			
0.9204	58905.94	3.3600	3.3600	-0.5097	26.61	0.80	-0.750			
0.9219	59001.87	3.3570	3.3570	-0.4880	26.61	0.80	-0.750			
0.9233	59092.57	3.3540	3.3540	-0.4683	26.62	0.81	-0.750			
0.9247	59180.59	3.3510	3.3510	-0.4479	26.63	0.82	-0.750			
0.9260	59265.14	3.3480	3.3480	-0.4295	26.63	0.82	-0.750			
0.9273	59345.30	3.3450	3.3450	-0.4107	26.64	0.83	-0.750			
0.9285	59422.43	3.3420	3.3420	-0.3941	26.64	0.83	-0.750			
0.9296	59495.83	3.3390	3.3390	-0.3764	26.65	0.84	-0.750			
0.9307	59566.75	3.3360	3.3359	-0.3604	26.66	0.85	-0.750			
0.9318	59633.67	3.3330	3.3330	-0.3438	26.66	0.85	-0.750			
0.9328	59698.73	3.3300	3.3300	-0.3303	26.67	0.86	-0.750			
0.9338	59760.25	3.3270	3.3270	-0.3153	26.67	0.86	-0.750			
0.9347	59819.06	3.3240	3.3240	-0.3011	26.67	0.86	-0.750			
0.9356	59875.52	3.3210	3.3210	-0.2886	26.68	0.87	-0.750			
0.9364	59929.55	3.3180	3.3180	-0.2761	26.68	0.87	-0.750			
0.9372	59981.37	3.3150	3.3150	-0.2655	26.69	0.88	-0.750			
0.9380	60030.73	3.3120	3.3120	-0.2549	26.69	0.88	-0.750			
0.9387	60078.69	3.3090	3.3089	-0.2453	26.69	0.88	-0.750			
0.9394	60124.44	3.3060	3.3060	-0.2357	26.70	0.89	-0.750			
0.9401	60168.92	3.3030	3.3030	-0.2273	26.70	0.89	-0.750			
0.9408	60211.90	3.3000	3.3000	-0.2189	26.71	0.90	-0.750			
0.9415	60252.98	3.2970	3.2970	-0.2106	26.71	0.90	-0.750			
0.9421	60292.36	3.2940	3.2940	-0.2029	26.71	0.90	-0.750			
0.9427	60330.22	3.2910	3.2910	-0.1949	26.72	0.91	-0.750			
0.9432	60366.71	3.2880	3.2880	-0.1879	26.72	0.91	-0.750			
0.9438	60401.98	3.2850	3.2850	-0.1819	26.72	0.91	-0.750			
0.9443	60436.02	3.2820	3.2820	-0.1757	26.73	0.92	-0.750			
0.9448	60469.24	3.2790	3.2790	-0.1704	26.73	0.92	-0.750			
0.9453	60501.48	3.2760	3.2760	-0.1651	26.73	0.92	-0.750			
0.9458	60532.53	3.2730	3.2730	-0.1601	26.74	0.93	-0.750			
0.9463	60562.67	3.2700	3.2700	-0.1552	26.74	0.93	-0.750			
0.9468	60592.04	3.2670	3.2670	-0.1507	26.74	0.93	-0.750			
0.9472	60620.52	3.2640	3.2639	-0.1463	26.75	0.94	-0.750			
0.9476	60647.97	3.2610	3.2610	-0.1420	26.75	0.94	-0.750			
0.9480	60674.81	3.2580	3.2580	-0.1380	26.75	0.94	-0.750			
0.9485	60700.88	3.2550	3.2551	-0.1346	26.75	0.94	-0.750			
0.9488	60726.36	3.2520	3.2520	-0.1311	26.76	0.95	-0.750			
0.9492	60751.00	3.2490	3.2491	-0.1277	26.76	0.95	-0.750			
0.9496	60775.19	3.2460	3.2460	-0.1247	26.76	0.95	-0.750			
0.9500	60798.85	3.2430	3.2430	-0.1219	26.76	0.95	-0.750			
0.9503	60821.99	3.2400	3.2400	-0.1190	26.77	0.96	-0.750			
0.9507	60844.50	3.2370	3.2370	-0.1162	26.77	0.96	-0.750			
0.9510	60866.56	3.2340	3.2340	-0.1135	26.77	0.96	-0.750			
0.9514	60887.86	3.2310	3.2310	-0.1114	26.77	0.96	-0.750			
0.9517	60909.07	3.2280	3.2280	-0.1094	26.77	0.96	-0.750			
0.9520	60929.78	3.2250	3.2249	-0.1071	26.78	0.97	-0.750			
0.9523	60950.34	3.2220	3.2220	-0.1049	26.78	0.97	-0.750			
0.9527	60970.38	3.2190	3.2191	-0.1029	26.78	0.97	-0.750			
0.9530	60989.80	3.2160	3.2160	-0.1008	26.79	0.98	-0.750			
0.9533	61009.04	3.2130	3.2131	-0.0988	26.79	0.98	-0.750			
0.9536	61027.52	3.2100	3.2100	-0.0971	26.79	0.98	-0.750			
0.9538	61045.70	3.2070	3.2070	-0.0948	26.80	0.99	-0.750			
0.9541	61063.89	3.2040	3.2039	-0.0932	26.80	0.99	-0.750			
0.9544	61081.58	3.2010	3.2010	-0.0916	26.80	0.99	-0.750			
0.9547	61099.04	3.1980	3.1980	-0.0902	26.81	1.00	-0.750			
0.9549	61116.35	3.1950	3.1951	-0.0891	26.81	1.00	-0.750			
0.9552	61133.30	3.1920	3.1920	-0.0874	26.81	1.00	-0.750			
0.9555	61149.81	3.1890	3.1889	-0.0861	26.81	1.00	-0.750			
0.9557	61166.21	3.1860	3.1860	-0.0848	26.82	1.01	-0.750			
0.9560	61182.26	3.1830	3.1830	-0.0832	26.82	1.01	-0.750			
0.9562	61198.11	3.1800	3.1799	-0.0820	26.82	1.01	-0.750			
0.9565	61213.92	3.1770	3.1769	-0.0811	26.83	1.02	-0.750			
0.9567	61229.27	3.1740	3.1741	-0.0798	26.83	1.02	-0.750			
0.9569	61244.43	3.1710	3.1710	-0.0785	26.83	1.02	-0.750			
0.9572	61259.39	3.1680	3.1679	-0.0773	26.83	1.02	-0.750			
0.9574	61274.07	3.1650	3.1651	-0.0763	26.84	1.03	-0.750			
0.9576	61288.51	3.1620	3.1620	-0.0751	26.84	1.03	-0.750			
0.9579	61302.84	3.1590	3.1590	-0.0742	26.84	1.03	-0.750			
0.9581	61317.01	3.1560	3.1561	-0.0734	26.84	1.03	-0.750			
0.9583	61331.01	3.1530	3.1530	-0.0725	26.85	1.04	-0.750			
0.9585	61344.81	3.1500	3.1501	-0.0717	26.85	1.04	-0.750			
0.9587	61358.45	3.1470	3.1470	-0.0708	26.85	1.04	-0.750			
0.9589	61371.96	3.1440	3.1440	-0.0700	26.86	1.05	-0.750			
0.9591	61385.38	3.1410	3.1411	-0.0689	26.86	1.05	-0.750			
0.9594	61398.59	3.1380	3.1378	-0.0681	26.86	1.05	-0.750			
0.9596	61411.57	3.1350	3.1350	-0.0671	26.86	1.05	-0.750			
0.9598	61424.30	3.1320	3.1320	-0.0665	26.86	1.05	-0.750			
0.9600	61436.93	3.1290	3.1291	-0.0656	26.87	1.06	-0.750			
0.9601	61449.46	3.1260	3.1261	-0.0648	26.87	1.06	-0.750			
0.9603	61461.82	3.1230	3.1229	-0.0641	26.87	1.06	-0.750			
0.9605	61473.95	3.1200	3.1200	-0.0633	26.87	1.06	-0.750			
0.9607	61486.05	3.1170	3.1170	-0.0626	26.88	1.07	-0.750			
0.9609	61498.07	3.1140	3.1141	-0.0621	26.88	1.07	-0.750			
0.9611	61509.93	3.1110	3.1109	-0.0614	26.88	1.07	-0.750			
0.9613	61521.66	3.1080	3.1081	-0.0607	26.88	1.07	-0.750			
0.9615	61533.21	3.1050	3.1050	-0.0600	26.88	1.07	-0.750			
0.9616	61544.66	3.1020	3.1021	-0.0594	26.89	1.08	-0.750			
0.9618	61556.00	3.0990	3.0989	-0.0587	26.89	1.08	-0.750			
0.9620	61567.17	3.0960	3.0961	-0.0582	26.89	1.08	-0.750			
0.9622	61578.29	3.0930	3.0930	-0.0576	26.89	1.08	-0.750			
0.9623	61589.30	3.0900	3.0900	-0.0571	26.89	1.08	-0.750			
0.9625	61600.08	3.0870	3.0870	-0.0565	26.89	1.08	-0.750			
0.9627	61610.89	3.0840	3.0840	-0.0561	26.90	1.09	-0.750			
0.9628	61621.62	3.0810	3.0810	-0.0557	26.90	1.09	-0.750			
0.9630	61632.29	3.0780	3.0780	-0.0554	26.90	1.09	-0.750			
0.9632	61642.96	3.0750	3.0750	-0.0548	26.90	1.09	-0.750			
0.9633	61653.43	3.0720	3.0720	-0.0543	26.90	1.09	-0.750			
0.9635	61663.81	3.0690	3.0690	-0.0538	26.90	1.09	-0.750			
0.9637	61674.15	3.0660	3.0661	-0.0533	26.91	1.10	-0.750			
0.9638	61684.32	3.0630	3.0629	-0.0527	26.91	1.10	-0.750			
0.9640	61694.39	3.0600	3.0600	-0.0521	26.91	1.10	-0.750			
0.9641	61704.27	3.0570	3.0571	-0.0514	26.91	1.10	-0.750			
0.9643	61714.02	3.0540	3.0540	-0.0511	26.91	1.10	-0.750			
0.9644	61723.79	3.0510	3.0511	-0.0507	26.91	1.10	-0.750			
0.9646	61733.49	3.0480	3.0480	-0.0503	26.92	1.11	-0.750			
0.9647	61743.02	3.0450	3.0450	-0.0499	26.92	1.11	-0.750			
0.9649	61752.61	3.0420	3.0419	-0.0496	26.92	1.11	-0.750			
0.9650	61762.09	3.0390	3.0392	-0.0492	26.92	1.11	-0.750			
0.9652	61771.54	3.0360	3.0361	-0.0489	26.92	1.11	-0.750			
0.9653	61780.91	3.0330	3.0329	-0.0486	26.92	1.11	-0.750			
0.9655	61790.21	3.0300	3.0299	-0.0482	26.92	1.11	-0.750			
0.9656	61799.43	3.0270	3.0270	-0.0478	26.93	1.12	-0.750			
0.9658	61808.58	3.0240	3.0240	-0.0474	26.93	1.12	-0.750			
0.9659	61817.64	3.0210	3.0211	-0.0470	26.93	1.12	-0.750			
0.9660	61826.59	3.0180	3.0180	-0.0467	26.93	1.12	-0.750			
0.9662	61835.53	3.0150	3.0149	-0.0464	26.93	1.12	-0.750			
0.9663	61844.32	3.0120	3.0120	-0.0460	26.93	1.12	-0.750			
0.9665	61853.12	3.0090	3.0092	-0.0458	26.93	1.12	-0.750			
0.9666	61861.89	3.0060	3.0059	-0.0455	26.94	1.13	-0.750			
0.9667	61870.60	3.0030	3.0030	-0.0453	26.94	1.13	-0.750			
