Ah_balance (normalized)	Ah_balance (mAh)	Voltage - fit (V)	Voltage -  interpolate (V)	dQ/dV (1/V)	Temperature (°C)	Temperature - diff (°C)	Current (C)	R_DC 0ms (mOhm)	R_DC 50ms (mOhm)	R_DC 50 ms PEC (mOhm)
0.0001	5.75	4.1670	4.1680	-0.1160	25.49	0.01	-0.750			
0.0005	33.48	4.1640	4.1639	-0.1666	25.49	0.01	-0.750			
0.0011	69.24	4.1610	4.1611	-0.2094	25.49	0.01	-0.750			
0.0018	113.68	4.1580	4.1580	-0.2536	25.49	0.01	-0.750			
0.0026	166.92	4.1550	4.1550	-0.2964	25.49	0.01	-0.750			
0.0036	227.99	4.1520	4.1520	-0.3398	25.48	0.00	-0.750			
0.0046	297.57	4.1490	4.1491	-0.3828	25.48	-0.00	-0.750			
0.0059	376.35	4.1460	4.1460	-0.4209	25.47	-0.01	-0.750			
0.0072	461.42	4.1430	4.1430	-0.4596	25.47	-0.01	-0.750			
0.0086	553.49	4.1400	4.1400	-0.4956	25.47	-0.01	-0.750			
0.0102	652.47	4.1370	4.1370	-0.5287	25.46	-0.02	-0.750			
0.0118	758.05	4.1340	4.1339	-0.5601	25.46	-0.02	-0.750			
0.0136	868.77	4.1310	4.1310	-0.5837	25.45	-0.03	-0.750			
0.0154	984.56	4.1280	4.1280	-0.6086	25.44	-0.04	-0.750			
0.0173	1105.16	4.1250	4.1251	-0.6256	25.44	-0.04	-0.750			
0.0192	1226.75	4.1220	4.1219	-0.6423	25.44	-0.04	-0.750			
0.0211	1350.85	4.1190	4.1191	-0.6591	25.43	-0.05	-0.750			
0.0231	1479.50	4.1160	4.1159	-0.6719	25.43	-0.05	-0.750			
0.0252	1610.54	4.1130	4.1130	-0.6839	25.43	-0.05	-0.750			
0.0272	1743.81	4.1100	4.1100	-0.6937	25.42	-0.06	-0.750			
0.0294	1878.68	4.1070	4.1073	-0.7026	25.42	-0.06	-0.750			
0.0315	2014.37	4.1040	4.1040	-0.7123	25.42	-0.06	-0.750			
0.0336	2150.04	4.1010	4.1010	-0.7188	25.42	-0.06	-0.750			
0.0358	2289.84	4.0980	4.0980	-0.7233	25.41	-0.07	-0.750			
0.0380	2430.31	4.0950	4.0950	-0.7316	25.41	-0.07	-0.750			
0.0402	2571.94	4.0920	4.0920	-0.7317	25.41	-0.07	-0.750			
0.0424	2713.25	4.0890	4.0890	-0.7350	25.41	-0.07	-0.750			
0.0446	2853.88	4.0860	4.0860	-0.7356	25.41	-0.07	-0.750			
0.0468	2993.81	4.0830	4.0830	-0.7433	25.41	-0.07	-0.750			
0.0490	3136.98	4.0800	4.0799	-0.7494	25.40	-0.08	-0.750			
0.0513	3284.09	4.0770	4.0769	-0.7577	25.40	-0.08	-0.750			
0.0536	3430.11	4.0740	4.0740	-0.7615	25.40	-0.08	-0.750			
0.0559	3577.68	4.0710	4.0709	-0.7656	25.40	-0.08	-0.750			
0.0582	3724.38	4.0680	4.0679	-0.7694	25.40	-0.08	-0.750			
0.0605	3871.87	4.0650	4.0650	-0.7648	25.40	-0.08	-0.750			
0.0628	4017.64	4.0620	4.0620	-0.7627	25.40	-0.08	-0.750			
0.0651	4166.15	4.0590	4.0589	-0.7672	25.40	-0.08	-0.750			
0.0674	4313.00	4.0560	4.0562	-0.7696	25.40	-0.08	-0.750			
0.0697	4460.48	4.0530	4.0529	-0.7698	25.40	-0.08	-0.750			
0.0720	4608.69	4.0500	4.0500	-0.7690	25.41	-0.07	-0.750			
0.0743	4755.75	4.0470	4.0470	-0.7700	25.41	-0.07	-0.750			
0.0766	4904.41	4.0440	4.0441	-0.7799	25.42	-0.06	-0.750			
0.0790	5055.22	4.0410	4.0409	-0.7781	25.42	-0.06	-0.750			
0.0813	5203.87	4.0380	4.0379	-0.7816	25.42	-0.06	-0.750			
0.0837	5354.65	4.0350	4.0350	-0.7859	25.42	-0.06	-0.750			
0.0861	5507.81	4.0320	4.0321	-0.7881	25.41	-0.07	-0.750			
0.0884	5660.68	4.0290	4.0290	-0.7907	25.41	-0.07	-0.750			
0.0908	5812.61	4.0260	4.0260	-0.7875	25.41	-0.07	-0.750			
0.0932	5962.63	4.0230	4.0229	-0.7882	25.41	-0.07	-0.750			
0.0955	6112.04	4.0200	4.0200	-0.8006	25.41	-0.07	-0.750			
0.0979	6266.34	4.0170	4.0169	-0.7960	25.41	-0.07	-0.750			
0.1003	6419.08	4.0140	4.0140	-0.8002	25.42	-0.06	-0.750			
0.1028	6577.42	4.0110	4.0109	-0.8042	25.42	-0.06	-0.750			
0.1052	6731.34	4.0080	4.0080	-0.7979	25.42	-0.06	-0.750			
0.1076	6884.61	4.0050	4.0049	-0.8014	25.43	-0.05	-0.750			
0.1099	7035.75	4.0020	4.0020	-0.7952	25.43	-0.05	-0.750			
0.1123	7185.88	3.9990	3.9990	-0.7896	25.43	-0.05	-0.750			
0.1147	7340.99	3.9960	3.9960	-0.8023	25.44	-0.04	-0.750			
0.1171	7494.10	3.9930	3.9931	-0.8024	25.44	-0.04	-0.750			
0.1195	7649.18	3.9900	3.9899	-0.8094	25.44	-0.04	-0.750			
0.1220	7805.56	3.9870	3.9870	-0.8136	25.44	-0.04	-0.750			
0.1244	7962.28	3.9840	3.9839	-0.8130	25.44	-0.04	-0.750			
0.1269	8119.71	3.9810	3.9810	-0.8189	25.44	-0.04	-0.750			
0.1293	8277.18	3.9780	3.9782	-0.8217	25.44	-0.04	-0.750			
0.1318	8434.04	3.9750	3.9749	-0.8213	25.44	-0.04	-0.750			
0.1343	8592.18	3.9720	3.9719	-0.8315	25.44	-0.04	-0.750			
0.1368	8752.58	3.9690	3.9691	-0.8300	25.45	-0.03	-0.750			
0.1393	8914.63	3.9660	3.9658	-0.8371	25.45	-0.03	-0.750			
0.1418	9074.78	3.9630	3.9633	-0.8338	25.45	-0.03	-0.750			
0.1443	9233.86	3.9600	3.9600	-0.8312	25.45	-0.03	-0.750			
0.1468	9392.99	3.9570	3.9570	-0.8330	25.45	-0.03	-0.750			
0.1493	9552.67	3.9540	3.9539	-0.8321	25.46	-0.02	-0.750			
0.1518	9713.89	3.9510	3.9510	-0.8368	25.46	-0.02	-0.750			
0.1543	9874.73	3.9480	3.9482	-0.8393	25.46	-0.02	-0.750			
0.1568	10036.26	3.9450	3.9450	-0.8399	25.46	-0.02	-0.750			
0.1593	10197.07	3.9420	3.9419	-0.8487	25.46	-0.02	-0.750			
0.1619	10360.26	3.9390	3.9389	-0.8482	25.47	-0.01	-0.750			
0.1645	10525.12	3.9360	3.9359	-0.8537	25.47	-0.01	-0.750			
0.1670	10688.74	3.9330	3.9332	-0.8539	25.47	-0.01	-0.750			
0.1696	10854.25	3.9300	3.9301	-0.8568	25.47	-0.01	-0.750			
0.1722	11018.30	3.9270	3.9269	-0.8589	25.47	-0.01	-0.750			
0.1747	11182.29	3.9240	3.9240	-0.8575	25.48	-0.00	-0.750			
0.1773	11347.89	3.9210	3.9210	-0.8580	25.48	-0.00	-0.750			
0.1799	11513.16	3.9180	3.9181	-0.8582	25.48	0.00	-0.750			
0.1825	11678.12	3.9150	3.9150	-0.8617	25.49	0.01	-0.750			
0.1851	11843.78	3.9120	3.9119	-0.8579	25.49	0.01	-0.750			
0.1876	12005.97	3.9090	3.9090	-0.8564	25.49	0.01	-0.750			
0.1902	12172.38	3.9060	3.9060	-0.8673	25.50	0.02	-0.750			
0.1928	12339.08	3.9030	3.9030	-0.8704	25.50	0.02	-0.750			
0.1954	12507.72	3.9000	3.8998	-0.8757	25.50	0.02	-0.750			
0.1981	12676.17	3.8970	3.8971	-0.8761	25.51	0.03	-0.750			
0.2007	12845.26	3.8940	3.8939	-0.8754	25.51	0.03	-0.750			
0.2034	13014.57	3.8910	3.8910	-0.8789	25.51	0.03	-0.750			
0.2060	13182.86	3.8880	3.8880	-0.8698	25.51	0.03	-0.750			
0.2086	13348.46	3.8850	3.8851	-0.8766	25.52	0.04	-0.750			
0.2112	13517.66	3.8820	3.8819	-0.8797	25.52	0.04	-0.750			
0.2139	13686.85	3.8790	3.8789	-0.8807	25.53	0.05	-0.750			
0.2165	13857.48	3.8760	3.8760	-0.8807	25.53	0.05	-0.750			
0.2192	14026.26	3.8730	3.8730	-0.8800	25.53	0.05	-0.750			
0.2218	14195.68	3.8700	3.8701	-0.8792	25.53	0.05	-0.750			
0.2244	14364.05	3.8670	3.8670	-0.8835	25.52	0.04	-0.750			
0.2271	14531.84	3.8640	3.8640	-0.8883	25.52	0.04	-0.750			
0.2297	14702.96	3.8610	3.8609	-0.8910	25.52	0.04	-0.750			
0.2324	14874.39	3.8580	3.8580	-0.9003	25.53	0.05	-0.750			
0.2351	15049.40	3.8550	3.8550	-0.8978	25.53	0.05	-0.750			
0.2378	15221.97	3.8520	3.8520	-0.8963	25.53	0.05	-0.750			
0.2405	15394.99	3.8490	3.8490	-0.8931	25.54	0.06	-0.750			
0.2432	15564.49	3.8460	3.8458	-0.8925	25.54	0.06	-0.750			
0.2459	15735.00	3.8430	3.8430	-0.9023	25.55	0.07	-0.750			
0.2486	15912.28	3.8400	3.8399	-0.8996	25.55	0.07	-0.750			
0.2513	16085.20	3.8370	3.8368	-0.9003	25.56	0.08	-0.750			
0.2541	16260.19	3.8340	3.8345	-0.9023	25.56	0.08	-0.750			
0.2567	16431.91	3.8310	3.8310	-0.8995	25.56	0.08	-0.750			
0.2594	16604.03	3.8280	3.8278	-0.8958	25.56	0.08	-0.750			
0.2621	16771.38	3.8250	3.8251	-0.8921	25.57	0.09	-0.750			
0.2648	16945.57	3.8220	3.8219	-0.9033	25.57	0.09	-0.750			
0.2675	17119.69	3.8190	3.8190	-0.8980	25.57	0.09	-0.750			
0.2702	17291.85	3.8160	3.8160	-0.8993	25.57	0.09	-0.750			
0.2729	17465.52	3.8130	3.8131	-0.8985	25.57	0.09	-0.750			
0.2756	17637.81	3.8100	3.8098	-0.8982	25.58	0.10	-0.750			
0.2783	17810.06	3.8070	3.8072	-0.9018	25.58	0.10	-0.750			
0.2810	17981.75	3.8040	3.8039	-0.9063	25.58	0.10	-0.750			
0.2837	18157.73	3.8010	3.8010	-0.9070	25.59	0.11	-0.750			
0.2865	18333.25	3.7980	3.7979	-0.9058	25.60	0.12	-0.750			
0.2891	18504.05	3.7950	3.7950	-0.9016	25.60	0.12	-0.750			
0.2919	18680.07	3.7920	3.7922	-0.9062	25.61	0.13	-0.750			
0.2946	18851.59	3.7890	3.7890	-0.9082	25.61	0.13	-0.750			
0.2973	19026.57	3.7860	3.7859	-0.9032	25.61	0.13	-0.750			
0.3000	19200.34	3.7830	3.7829	-0.9054	25.62	0.14	-0.750			
0.3028	19376.90	3.7800	3.7800	-0.9076	25.62	0.14	-0.750			
0.3055	19549.61	3.7770	3.7770	-0.9049	25.62	0.14	-0.750			
0.3082	19723.60	3.7740	3.7739	-0.9019	25.63	0.15	-0.750			
0.3109	19896.44	3.7710	3.7710	-0.9002	25.63	0.15	-0.750			
0.3135	20066.74	3.7680	3.7680	-0.8927	25.63	0.15	-0.750			
0.3162	20239.52	3.7650	3.7652	-0.8985	25.64	0.16	-0.750			
0.3189	20412.04	3.7620	3.7619	-0.8939	25.64	0.16	-0.750			
0.3216	20582.74	3.7590	3.7588	-0.8981	25.64	0.16	-0.750			
0.3243	20753.36	3.7560	3.7561	-0.8999	25.64	0.16	-0.750			
0.3270	20927.66	3.7530	3.7530	-0.9062	25.64	0.16	-0.750			
0.3298	21104.67	3.7500	3.7500	-0.9109	25.64	0.16	-0.750			
0.3325	21281.06	3.7470	3.7471	-0.9159	25.65	0.17	-0.750			
0.3352	21455.91	3.7440	3.7439	-0.9157	25.65	0.17	-0.750			
0.3380	21633.16	3.7410	3.7410	-0.9177	25.65	0.17	-0.750			
0.3407	21807.31	3.7380	3.7380	-0.9142	25.66	0.18	-0.750			
0.3435	21984.06	3.7350	3.7349	-0.9110	25.66	0.18	-0.750			
0.3462	22159.26	3.7320	3.7321	-0.9266	25.67	0.19	-0.750			
0.3490	22337.35	3.7290	3.7289	-0.9299	25.67	0.19	-0.750			
0.3518	22515.10	3.7260	3.7259	-0.9388	25.68	0.20	-0.750			
0.3546	22697.49	3.7230	3.7233	-0.9502	25.68	0.20	-0.750			
0.3575	22881.09	3.7200	3.7199	-0.9683	25.68	0.20	-0.750			
0.3605	23070.08	3.7170	3.7169	-0.9798	25.68	0.20	-0.750			
0.3634	23259.02	3.7140	3.7140	-0.9939	25.68	0.20	-0.750			
0.3664	23451.53	3.7110	3.7112	-1.0046	25.68	0.20	-0.750			
0.3695	23645.75	3.7080	3.7080	-1.0204	25.68	0.20	-0.750			
0.3725	23841.86	3.7050	3.7049	-1.0266	25.68	0.20	-0.750			
0.3756	24039.45	3.7020	3.7020	-1.0424	25.68	0.20	-0.750			
0.3788	24240.54	3.6990	3.6989	-1.0619	25.68	0.20	-0.750			
0.3820	24444.97	3.6960	3.6960	-1.0898	25.68	0.20	-0.750			
0.3853	24658.77	3.6930	3.6929	-1.1032	25.68	0.20	-0.750			
0.3886	24873.42	3.6900	3.6899	-1.1190	25.68	0.20	-0.750			
0.3920	25088.09	3.6870	3.6873	-1.1539	25.68	0.20	-0.750			
0.3955	25313.86	3.6840	3.6839	-1.1824	25.68	0.20	-0.750			
0.3991	25543.71	3.6810	3.6807	-1.1942	25.67	0.19	-0.750			
0.4027	25771.03	3.6780	3.6780	-1.2266	25.67	0.19	-0.750			
0.4064	26011.52	3.6750	3.6749	-1.2540	25.67	0.19	-0.750			
0.4103	26256.32	3.6720	3.6718	-1.2771	25.67	0.19	-0.750			
0.4140	26496.92	3.6690	3.6689	-1.3112	25.66	0.18	-0.750			
0.4180	26749.16	3.6660	3.6662	-1.3684	25.66	0.18	-0.750			
0.4221	27014.68	3.6630	3.6629	-1.4154	25.66	0.18	-0.750			
0.4265	27296.54	3.6600	3.6597	-1.4620	25.65	0.17	-0.750			
0.4310	27581.94	3.6570	3.6570	-1.5112	25.65	0.17	-0.750			
0.4356	27880.84	3.6540	3.6541	-1.5302	25.63	0.15	-0.750			
0.4403	28180.10	3.6510	3.6510	-1.5550	25.62	0.14	-0.750			
0.4449	28471.41	3.6480	3.6479	-1.5567	25.62	0.14	-0.750			
0.4496	28773.14	3.6450	3.6449	-1.5907	25.61	0.13	-0.750			
0.4543	29077.28	3.6420	3.6419	-1.6174	25.61	0.13	-0.750			
0.4592	29390.47	3.6390	3.6389	-1.6507	25.61	0.13	-0.750			
0.4643	29714.02	3.6360	3.6361	-1.6978	25.60	0.12	-0.750			
0.4695	30048.26	3.6330	3.6329	-1.7407	25.60	0.12	-0.750			
0.4748	30387.43	3.6300	3.6300	-1.7643	25.59	0.11	-0.750	0.410	0.492	
0.4802	30730.56	3.6270	3.6271	-1.8091	25.58	0.10	-0.750			
0.4856	31077.61	3.6240	3.6242	-1.8494	25.57	0.09	-0.750			
0.4912	31437.40	3.6210	3.6211	-1.8798	25.56	0.08	-0.750			
0.4969	31803.11	3.6180	3.6181	-1.9169	25.56	0.08	-0.750			
0.5027	32175.43	3.6150	3.6150	-1.9524	25.56	0.08	-0.750			
0.5087	32555.95	3.6120	3.6121	-1.9892	25.55	0.07	-0.750			
0.5147	32939.43	3.6090	3.6090	-2.0075	25.54	0.06	-0.750			
0.5207	33324.98	3.6060	3.6059	-2.0221	25.54	0.06	-0.750			
0.5268	33716.08	3.6030	3.6031	-2.0718	25.53	0.05	-0.750			
0.5331	34118.55	3.6000	3.5999	-2.1077	25.53	0.05	-0.750			
0.5394	34522.08	3.5970	3.5969	-2.1479	25.52	0.04	-0.750			
0.5460	34941.40	3.5940	3.5941	-2.1942	25.51	0.03	-0.750			
0.5527	35371.48	3.5910	3.5910	-2.2278	25.50	0.02	-0.750			
0.5594	35800.60	3.5880	3.5879	-2.2545	25.50	0.02	-0.750			
0.5662	36238.44	3.5850	3.5851	-2.2865	25.50	0.02	-0.750			
0.5731	36679.99	3.5820	3.5820	-2.3084	25.50	0.02	-0.750			
0.5801	37123.62	3.5790	3.5790	-2.3481	25.50	0.02	-0.750			
0.5871	37573.03	3.5760	3.5760	-2.3702	25.50	0.02	-0.750			
0.5943	38036.54	3.5730	3.5728	-2.4151	25.50	0.02	-0.750			
0.6017	38508.57	3.5700	3.5700	-2.4268	25.49	0.01	-0.750			
0.6090	38977.42	3.5670	3.5670	-2.4254	25.49	0.01	-0.750			
0.6163	39443.89	3.5640	3.5641	-2.4274	25.50	0.02	-0.750			
0.6236	39909.14	3.5610	3.5609	-2.3947	25.50	0.02	-0.750			
0.6307	40365.83	3.5580	3.5579	-2.3852	25.50	0.02	-0.750			
0.6379	40822.78	3.5550	3.5551	-2.3802	25.50	0.02	-0.750			
0.6450	41277.41	3.5520	3.5517	-2.3829	25.50	0.02	-0.750			
0.6521	41737.12	3.5490	3.5490	-2.3755	25.50	0.02	-0.750			
0.6593	42193.78	3.5460	3.5460	-2.3444	25.50	0.02	-0.750			
0.6664	42648.37	3.5430	3.5431	-2.3291	25.50	0.02	-0.750			
0.6734	43095.82	3.5400	3.5400	-2.2953	25.51	0.03	-0.750			
0.6801	43529.41	3.5370	3.5369	-2.2587	25.52	0.04	-0.750			
0.6870	43965.42	3.5340	3.5340	-2.2081	25.53	0.05	-0.750			
0.6935	44383.96	3.5310	3.5311	-2.1623	25.54	0.06	-0.750			
0.6999	44795.42	3.5280	3.5279	-2.1185	25.55	0.07	-0.750			
0.7063	45200.33	3.5250	3.5249	-2.0498	25.56	0.08	-0.750			
0.7123	45589.87	3.5220	3.5221	-1.9823	25.57	0.09	-0.750			
0.7182	45962.99	3.5190	3.5190	-1.9108	25.58	0.10	-0.750			
0.7238	46322.13	3.5160	3.5162	-1.8496	25.59	0.11	-0.750			
0.7293	46674.08	3.5130	3.5132	-1.8047	25.60	0.12	-0.750			
0.7345	47009.84	3.5100	3.5100	-1.7239	25.63	0.15	-0.750			
0.7396	47336.40	3.5070	3.5070	-1.6785	25.65	0.17	-0.750			
0.7447	47659.42	3.5040	3.5039	-1.6217	25.67	0.19	-0.750			
0.7495	47965.36	3.5010	3.5009	-1.5599	25.68	0.20	-0.750			
0.7540	48254.65	3.4980	3.4982	-1.4939	25.70	0.22	-0.750			
0.7583	48531.53	3.4950	3.4949	-1.4326	25.72	0.24	-0.750			
0.7625	48799.86	3.4920	3.4920	-1.3815	25.73	0.25	-0.750			
0.7666	49064.31	3.4890	3.4891	-1.3469	25.75	0.27	-0.750			
0.7706	49319.11	3.4860	3.4859	-1.2994	25.76	0.28	-0.750			
0.7745	49565.45	3.4830	3.4830	-1.2599	25.77	0.29	-0.750			
0.7782	49801.85	3.4800	3.4802	-1.2066	25.79	0.31	-0.750			
0.7817	50028.52	3.4770	3.4768	-1.1655	25.80	0.32	-0.750			
0.7851	50245.92	3.4740	3.4740	-1.1231	25.82	0.34	-0.750			
0.7884	50455.51	3.4710	3.4710	-1.0790	25.83	0.35	-0.750			
0.7915	50657.50	3.4680	3.4681	-1.0462	25.85	0.37	-0.750			
0.7947	50859.41	3.4650	3.4650	-1.0220	25.86	0.38	-0.750			
0.7977	51049.80	3.4620	3.4621	-0.9909	25.87	0.39	-0.750			
0.8006	51235.59	3.4590	3.4589	-0.9760	25.88	0.40	-0.750			
0.8034	51418.61	3.4560	3.4561	-0.9656	25.89	0.41	-0.750			
0.8062	51598.96	3.4530	3.4529	-0.9711	25.90	0.42	-0.750			
0.8091	51784.04	3.4500	3.4500	-0.9922	25.91	0.43	-0.750			
0.8121	51971.71	3.4470	3.4470	-1.0193	25.92	0.44	-0.750			
0.8152	52170.05	3.4440	3.4440	-1.0630	25.93	0.45	-0.750			
0.8184	52377.16	3.4410	3.4410	-1.1223	25.94	0.46	-0.750			
0.8219	52599.73	3.4380	3.4379	-1.1763	25.95	0.47	-0.750			
0.8255	52833.34	3.4350	3.4349	-1.2244	25.96	0.48	-0.750			
0.8293	53078.23	3.4320	3.4323	-1.2512	25.97	0.49	-0.750			
0.8332	53325.39	3.4290	3.4291	-1.2633	25.98	0.50	-0.750			
0.8371	53576.63	3.4260	3.4260	-1.2539	25.99	0.51	-0.750			
0.8409	53817.64	3.4230	3.4230	-1.2213	26.00	0.52	-0.750			
0.8445	54050.58	3.4200	3.4200	-1.1880	26.01	0.53	-0.750			
0.8480	54274.27	3.4170	3.4170	-1.1443	26.02	0.54	-0.750			
0.8514	54490.61	3.4140	3.4139	-1.1003	26.02	0.54	-0.750			
0.8546	54697.55	3.4110	3.4111	-1.0566	26.03	0.55	-0.750			
0.8577	54895.07	3.4080	3.4080	-1.0177	26.04	0.56	-0.750			
0.8607	55086.10	3.4050	3.4050	-0.9792	26.05	0.57	-0.750			
0.8636	55268.93	3.4020	3.4019	-0.9440	26.06	0.58	-0.750			
0.8664	55447.63	3.3990	3.3990	-0.9123	26.07	0.59	-0.750			
0.8691	55619.58	3.3960	3.3960	-0.8775	26.08	0.60	-0.750			
0.8717	55786.52	3.3930	3.3930	-0.8461	26.09	0.61	-0.750			
0.8741	55945.35	3.3900	3.3900	-0.8116	26.09	0.61	-0.750			
0.8765	56097.03	3.3870	3.3870	-0.7760	26.10	0.62	-0.750			
0.8788	56242.76	3.3840	3.3840	-0.7459	26.11	0.63	-0.750			
0.8810	56382.04	3.3810	3.3809	-0.7157	26.11	0.63	-0.750			
0.8831	56516.24	3.3780	3.3780	-0.6872	26.12	0.64	-0.750			
0.8851	56644.78	3.3750	3.3749	-0.6596	26.12	0.64	-0.750			
0.8870	56768.99	3.3720	3.3720	-0.6310	26.13	0.65	-0.750			
0.8889	56888.06	3.3690	3.3690	-0.6040	26.13	0.65	-0.750			
0.8906	57001.55	3.3660	3.3659	-0.5777	26.14	0.66	-0.750			
0.8923	57109.34	3.3630	3.3630	-0.5506	26.14	0.66	-0.750			
0.8939	57212.30	3.3600	3.3600	-0.5278	26.15	0.67	-0.750			
0.8955	57310.32	3.3570	3.3570	-0.5060	26.16	0.68	-0.750			
0.8970	57405.20	3.3540	3.3540	-0.4819	26.16	0.68	-0.750			
0.8984	57496.49	3.3510	3.3510	-0.4641	26.17	0.69	-0.750			
0.8997	57583.39	3.3480	3.3480	-0.4448	26.17	0.69	-0.750			
0.9011	57667.27	3.3450	3.3450	-0.4247	26.18	0.70	-0.750			
0.9023	57746.69	3.3420	3.3419	-0.4051	26.18	0.70	-0.750			
0.9035	57822.33	3.3390	3.3390	-0.3867	26.19	0.71	-0.750			
0.9046	57894.32	3.3360	3.3361	-0.3684	26.19	0.71	-0.750			
0.9057	57963.68	3.3330	3.3329	-0.3534	26.20	0.72	-0.750			
0.9067	58028.98	3.3300	3.3301	-0.3362	26.20	0.72	-0.750			
0.9077	58091.80	3.3270	3.3270	-0.3226	26.21	0.73	-0.750			
0.9086	58152.62	3.3240	3.3240	-0.3099	26.21	0.73	-0.750			
0.9095	58210.66	3.3210	3.3210	-0.2971	26.22	0.74	-0.750			
0.9104	58266.47	3.3180	3.3180	-0.2858	26.22	0.74	-0.750			
0.9113	58320.36	3.3150	3.3150	-0.2752	26.22	0.74	-0.750			
0.9121	58371.98	3.3120	3.3120	-0.2650	26.23	0.75	-0.750			
0.9128	58421.28	3.3090	3.3090	-0.2542	26.23	0.75	-0.750			
0.9136	58469.08	3.3060	3.3060	-0.2453	26.24	0.76	-0.750			
0.9143	58515.71	3.3030	3.3030	-0.2363	26.24	0.76	-0.750			
0.9150	58559.66	3.3000	3.3000	-0.2276	26.24	0.76	-0.750			
0.9157	58602.45	3.2970	3.2970	-0.2198	26.25	0.77	-0.750			
0.9163	58643.75	3.2940	3.2940	-0.2118	26.25	0.77	-0.750			
0.9169	58683.41	3.2910	3.2908	-0.2049	26.25	0.77	-0.750			
0.9175	58721.69	3.2880	3.2880	-0.1985	26.26	0.78	-0.750			
0.9181	58759.29	3.2850	3.2850	-0.1932	26.26	0.78	-0.750			
0.9187	58795.74	3.2820	3.2820	-0.1879	26.27	0.79	-0.750			
0.9192	58831.65	3.2790	3.2790	-0.1825	26.27	0.79	-0.750			
0.9198	58865.67	3.2760	3.2761	-0.1774	26.28	0.80	-0.750			
0.9203	58899.22	3.2730	3.2729	-0.1732	26.28	0.80	-0.750			
0.9208	58932.06	3.2700	3.2702	-0.1689	26.28	0.80	-0.750			
0.9213	58963.93	3.2670	3.2669	-0.1643	26.29	0.81	-0.750			
0.9218	58994.76	3.2640	3.2640	-0.1605	26.29	0.81	-0.750			
0.9223	59025.35	3.2610	3.2611	-0.1570	26.30	0.82	-0.750			
0.9227	59055.16	3.2580	3.2580	-0.1535	26.30	0.82	-0.750			
0.9232	59084.39	3.2550	3.2549	-0.1505	26.30	0.82	-0.750			
0.9236	59112.42	3.2520	3.2521	-0.1474	26.31	0.83	-0.750			
0.9241	59140.36	3.2490	3.2490	-0.1450	26.31	0.83	-0.750			
0.9245	59168.17	3.2460	3.2459	-0.1422	26.31	0.83	-0.750			
0.9249	59195.45	3.2430	3.2429	-0.1394	26.32	0.84	-0.750			
0.9253	59221.88	3.2400	3.2401	-0.1364	26.32	0.84	-0.750			
0.9257	59247.97	3.2370	3.2370	-0.1342	26.33	0.85	-0.750			
0.9261	59273.17	3.2340	3.2340	-0.1319	26.33	0.85	-0.750			
0.9265	59298.02	3.2310	3.2310	-0.1291	26.33	0.85	-0.750			
0.9269	59322.15	3.2280	3.2279	-0.1267	26.33	0.85	-0.750			
0.9273	59346.38	3.2250	3.2250	-0.1257	26.34	0.86	-0.750			
0.9277	59370.58	3.2220	3.2220	-0.1240	26.34	0.86	-0.750			
0.9280	59394.46	3.2190	3.2190	-0.1224	26.34	0.86	-0.750			
0.9284	59417.76	3.2160	3.2160	-0.1203	26.35	0.87	-0.750			
0.9288	59440.71	3.2130	3.2130	-0.1185	26.35	0.87	-0.750			
0.9291	59463.26	3.2100	3.2100	-0.1164	26.35	0.87	-0.750			
0.9295	59485.22	3.2070	3.2070	-0.1145	26.35	0.87	-0.750			
0.9298	59506.87	3.2040	3.2040	-0.1125	26.36	0.88	-0.750			
0.9301	59528.33	3.2010	3.2010	-0.1110	26.36	0.88	-0.750			
0.9305	59549.48	3.1980	3.1980	-0.1095	26.36	0.88	-0.750			
0.9308	59570.26	3.1950	3.1951	-0.1085	26.37	0.89	-0.750			
0.9311	59590.92	3.1920	3.1920	-0.1073	26.37	0.89	-0.750			
0.9314	59611.41	3.1890	3.1890	-0.1063	26.37	0.89	-0.750			
0.9317	59631.63	3.1860	3.1859	-0.1052	26.38	0.90	-0.750			
0.9321	59651.83	3.1830	3.1830	-0.1040	26.38	0.90	-0.750			
0.9324	59671.75	3.1800	3.1800	-0.1030	26.38	0.90	-0.750			
0.9327	59691.31	3.1770	3.1771	-0.1022	26.39	0.91	-0.750			
0.9330	59710.87	3.1740	3.1741	-0.1013	26.39	0.91	-0.750			
0.9333	59730.34	3.1710	3.1709	-0.1001	26.39	0.91	-0.750			
0.9336	59749.40	3.1680	3.1680	-0.0989	26.40	0.92	-0.750			
0.9339	59768.28	3.1650	3.1649	-0.0978	26.40	0.92	-0.750			
0.9342	59787.00	3.1620	3.1621	-0.0968	26.40	0.92	-0.750			
0.9345	59805.38	3.1590	3.1590	-0.0958	26.41	0.93	-0.750			
0.9347	59823.72	3.1560	3.1560	-0.0948	26.41	0.93	-0.750			
0.9350	59841.73	3.1530	3.1529	-0.0940	26.41	0.93	-0.750			
0.9353	59859.44	3.1500	3.1500	-0.0927	26.41	0.93	-0.750			
0.9356	59877.20	3.1470	3.1471	-0.0923	26.42	0.94	-0.750			
0.9359	59895.05	3.1440	3.1440	-0.0914	26.42	0.94	-0.750			
0.9361	59912.51	3.1410	3.1411	-0.0905	26.42	0.94	-0.750			
0.9364	59929.67	3.1380	3.1381	-0.0902	26.43	0.95	-0.750			
0.9367	59946.93	3.1350	3.1349	-0.0896	26.43	0.95	-0.750			
0.9369	59964.11	3.1320	3.1320	-0.0886	26.43	0.95	-0.750			
0.9372	59981.05	3.1290	3.1288	-0.0879	26.43	0.95	-0.750			
0.9375	59997.96	3.1260	3.1261	-0.0870	26.44	0.96	-0.750			
0.9377	60014.57	3.1230	3.1231	-0.0860	26.44	0.96	-0.750			
0.9380	60030.94	3.1200	3.1201	-0.0858	26.44	0.96	-0.750			
0.9382	60047.35	3.1170	3.1168	-0.0852	26.44	0.96	-0.750			
0.9385	60063.42	3.1140	3.1139	-0.0840	26.45	0.97	-0.750			
0.9387	60079.52	3.1110	3.1110	-0.0837	26.45	0.97	-0.750			
0.9390	60095.65	3.1080	3.1081	-0.0834	26.45	0.97	-0.750			
0.9392	60111.67	3.1050	3.1050	-0.0827	26.46	0.98	-0.750			
0.9395	60127.50	3.1020	3.1021	-0.0821	26.46	0.98	-0.750			
0.9397	60143.31	3.0990	3.0990	-0.0817	26.46	0.98	-0.750			
0.9400	60158.93	3.0960	3.0959	-0.0810	26.46	0.98	-0.750			
0.9402	60174.21	3.0930	3.0930	-0.0801	26.47	0.99	-0.750			
0.9405	60189.54	3.0900	3.0900	-0.0798	26.47	0.99	-0.750			
0.9407	60204.81	3.0870	3.0870	-0.0794	26.47	0.99	-0.750			
0.9409	60220.01	3.0840	3.0839	-0.0790	26.47	0.99	-0.750			
0.9412	60235.14	3.0810	3.0811	-0.0786	26.48	1.00	-0.750			
0.9414	60250.17	3.0780	3.0780	-0.0782	26.48	1.00	-0.750			
0.9416	60265.20	3.0750	3.0752	-0.0777	26.48	1.00	-0.750			
0.9419	60280.07	3.0720	3.0719	-0.0772	26.48	1.00	-0.750			
0.9421	60294.92	3.0690	3.0691	-0.0767	26.48	1.00	-0.750			
0.9423	60309.60	3.0660	3.0659	-0.0762	26.49	1.01	-0.750			
0.9426	60324.20	3.0630	3.0632	-0.0756	26.49	1.01	-0.750			
0.9428	60338.66	3.0600	3.0598	-0.0750	26.49	1.01	-0.750			
0.9430	60352.93	3.0570	3.0572	-0.0749	26.49	1.01	-0.750			
0.9432	60367.14	3.0540	3.0540	-0.0744	26.50	1.02	-0.750			
0.9435	60381.52	3.0510	3.0511	-0.0739	26.50	1.02	-0.750			
0.9437	60395.67	3.0480	3.0480	-0.0735	26.50	1.02	-0.750			
0.9439	60409.80	3.0450	3.0451	-0.0731	26.50	1.02	-0.750			
0.9441	60423.72	3.0420	3.0420	-0.0729	26.51	1.03	-0.750			
0.9443	60437.72	3.0390	3.0390	-0.0726	26.51	1.03	-0.750			
0.9446	60451.62	3.0360	3.0359	-0.0722	26.51	1.03	-0.750			
0.9448	60465.45	3.0330	3.0330	-0.0719	26.51	1.03	-0.750			
0.9450	60479.07	3.0300	3.0300	-0.0714	26.51	1.03	-0.750			
0.9452	60492.86	3.0270	3.0270	-0.0710	26.52	1.04	-0.750			
0.9454	60506.45	3.0240	3.0240	-0.0706	26.52	1.04	-0.750			
0.9456	60520.18	3.0210	3.0210	-0.0704	26.52	1.04	-0.750			
0.9458	60533.48	3.0180	3.0180	-0.0704	26.52	1.04	-0.750			
0.9460	60546.77	3.0150	3.0150	-0.0699	26.53	1.05	-0.750			
0.9463	60560.20	3.0120	3.0120	-0.0700	26.53	1.05	-0.750			
0.9465	60573.64	3.0090	3.0089	-0.0701	26.53	1.05	-0.750			
0.9467	60586.93	3.0060	3.0060	-0.0709	26.53	1.05	-0.750			
0.9469	60600.63	3.0030	3.0030	-0.0717	26.53	1.05	-0.751			
