Ah_balance (normalized)	Ah_balance (mAh)	Voltage - fit (V)	Voltage -  interpolate (V)	dQ/dV (1/V)	Temperature (°C)	Temperature - diff (°C)	Current (C)	R_DC 0ms (mOhm)	R_DC 50ms (mOhm)	R_DC 50 ms PEC (mOhm)
0.0003	17.05	4.1630	4.1628	-0.1081	25.81	0.01	-0.750			
0.0007	43.12	4.1600	4.1599	-0.1575	25.81	0.01	-0.750			
0.0012	79.08	4.1570	4.1569	-0.2022	25.81	0.01	-0.750			
0.0019	122.32	4.1540	4.1538	-0.2421	25.81	0.01	-0.750			
0.0027	172.80	4.1510	4.1511	-0.2806	25.80	0.00	-0.750			
0.0036	231.78	4.1480	4.1480	-0.3186	25.80	0.00	-0.750			
0.0046	296.96	4.1450	4.1450	-0.3520	25.80	-0.00	-0.750			
0.0057	367.68	4.1420	4.1420	-0.3855	25.80	-0.00	-0.750			
0.0069	444.49	4.1390	4.1390	-0.4187	25.79	-0.01	-0.750			
0.0083	528.77	4.1360	4.1360	-0.4476	25.79	-0.01	-0.750			
0.0097	618.64	4.1330	4.1331	-0.4754	25.79	-0.01	-0.750			
0.0112	713.90	4.1300	4.1300	-0.5017	25.78	-0.02	-0.750			
0.0127	813.09	4.1270	4.1269	-0.5239	25.78	-0.02	-0.750			
0.0143	916.96	4.1240	4.1240	-0.5437	25.78	-0.02	-0.750			
0.0160	1022.48	4.1210	4.1210	-0.5609	25.77	-0.03	-0.750			
0.0177	1132.94	4.1180	4.1179	-0.5743	25.77	-0.03	-0.750			
0.0195	1245.35	4.1150	4.1150	-0.5881	25.76	-0.04	-0.750			
0.0212	1358.72	4.1120	4.1120	-0.5995	25.76	-0.04	-0.750			
0.0230	1474.58	4.1090	4.1090	-0.6113	25.75	-0.05	-0.750			
0.0249	1594.64	4.1060	4.1060	-0.6229	25.75	-0.05	-0.750			
0.0268	1715.29	4.1030	4.1029	-0.6346	25.75	-0.05	-0.750			
0.0287	1838.54	4.1000	4.1001	-0.6436	25.74	-0.06	-0.750			
0.0307	1964.51	4.0970	4.0969	-0.6513	25.74	-0.06	-0.750			
0.0327	2090.42	4.0940	4.0941	-0.6565	25.73	-0.07	-0.750			
0.0346	2216.36	4.0910	4.0910	-0.6613	25.73	-0.07	-0.750			
0.0366	2343.92	4.0880	4.0880	-0.6615	25.73	-0.07	-0.750			
0.0386	2472.27	4.0850	4.0849	-0.6640	25.72	-0.08	-0.750			
0.0406	2598.56	4.0820	4.0819	-0.6685	25.72	-0.08	-0.750			
0.0426	2727.54	4.0790	4.0791	-0.6745	25.72	-0.08	-0.750			
0.0446	2857.42	4.0760	4.0759	-0.6806	25.72	-0.08	-0.750			
0.0467	2987.47	4.0730	4.0731	-0.6905	25.71	-0.09	-0.750			
0.0488	3121.70	4.0700	4.0700	-0.6906	25.71	-0.09	-0.750			
0.0509	3257.55	4.0670	4.0670	-0.6973	25.71	-0.09	-0.750			
0.0530	3392.48	4.0640	4.0639	-0.6989	25.70	-0.10	-0.750			
0.0551	3526.29	4.0610	4.0610	-0.6964	25.70	-0.10	-0.750			
0.0572	3660.20	4.0580	4.0579	-0.6947	25.70	-0.10	-0.750			
0.0592	3791.94	4.0550	4.0550	-0.6978	25.70	-0.10	-0.750			
0.0613	3924.12	4.0520	4.0521	-0.7034	25.70	-0.10	-0.750			
0.0635	4061.29	4.0490	4.0489	-0.7149	25.70	-0.10	-0.750			
0.0656	4199.76	4.0460	4.0459	-0.7162	25.70	-0.10	-0.750			
0.0678	4338.14	4.0430	4.0431	-0.7203	25.70	-0.10	-0.750			
0.0700	4478.46	4.0400	4.0400	-0.7236	25.70	-0.10	-0.750			
0.0721	4617.50	4.0370	4.0369	-0.7279	25.70	-0.10	-0.750			
0.0743	4756.10	4.0340	4.0340	-0.7248	25.70	-0.10	-0.750			
0.0765	4895.59	4.0310	4.0309	-0.7273	25.70	-0.10	-0.750			
0.0787	5035.98	4.0280	4.0281	-0.7317	25.70	-0.10	-0.750			
0.0809	5178.10	4.0250	4.0249	-0.7294	25.70	-0.10	-0.750			
0.0831	5317.64	4.0220	4.0220	-0.7284	25.70	-0.10	-0.750			
0.0853	5458.89	4.0190	4.0190	-0.7349	25.70	-0.10	-0.750			
0.0875	5598.23	4.0160	4.0159	-0.7361	25.70	-0.10	-0.750			
0.0897	5741.74	4.0130	4.0128	-0.7419	25.70	-0.10	-0.750			
0.0919	5884.52	4.0100	4.0102	-0.7409	25.70	-0.10	-0.750			
0.0942	6026.31	4.0070	4.0069	-0.7497	25.70	-0.10	-0.750			
0.0964	6170.86	4.0040	4.0040	-0.7580	25.70	-0.10	-0.750			
0.0986	6312.99	4.0010	4.0010	-0.7548	25.70	-0.10	-0.750			
0.1010	6465.28	3.9980	3.9980	-0.7708	25.70	-0.10	-0.750			
0.1033	6612.98	3.9950	3.9950	-0.7680	25.70	-0.10	-0.750			
0.1057	6762.23	3.9920	3.9920	-0.7640	25.70	-0.10	-0.750			
0.1080	6909.28	3.9890	3.9890	-0.7619	25.71	-0.09	-0.750			
0.1102	7052.96	3.9860	3.9860	-0.7502	25.71	-0.09	-0.750			
0.1124	7194.97	3.9830	3.9830	-0.7503	25.71	-0.09	-0.750			
0.1146	7336.85	3.9800	3.9800	-0.7538	25.72	-0.08	-0.750			
0.1169	7483.15	3.9770	3.9771	-0.7530	25.72	-0.08	-0.750			
0.1192	7628.29	3.9740	3.9739	-0.7558	25.72	-0.08	-0.750			
0.1215	7774.17	3.9710	3.9712	-0.7646	25.72	-0.08	-0.750			
0.1238	7921.24	3.9680	3.9679	-0.7653	25.72	-0.08	-0.750			
0.1261	8069.52	3.9650	3.9649	-0.7704	25.72	-0.08	-0.750			
0.1284	8216.50	3.9620	3.9618	-0.7721	25.72	-0.08	-0.750			
0.1307	8364.65	3.9590	3.9590	-0.7726	25.72	-0.08	-0.750			
0.1330	8514.74	3.9560	3.9560	-0.7801	25.73	-0.07	-0.750			
0.1354	8663.98	3.9530	3.9530	-0.7771	25.74	-0.06	-0.750			
0.1377	8811.91	3.9500	3.9500	-0.7792	25.74	-0.06	-0.750			
0.1400	8963.12	3.9470	3.9470	-0.7816	25.75	-0.05	-0.750			
0.1424	9112.31	3.9440	3.9441	-0.7830	25.75	-0.05	-0.750			
0.1447	9261.25	3.9410	3.9410	-0.7896	25.75	-0.05	-0.750			
0.1471	9414.85	3.9380	3.9379	-0.7944	25.75	-0.05	-0.750			
0.1495	9567.63	3.9350	3.9350	-0.7951	25.75	-0.05	-0.750			
0.1519	9721.96	3.9320	3.9320	-0.7998	25.75	-0.05	-0.750			
0.1543	9876.55	3.9290	3.9291	-0.7975	25.75	-0.05	-0.750			
0.1567	10030.54	3.9260	3.9259	-0.7975	25.75	-0.05	-0.750			
0.1591	10180.34	3.9230	3.9230	-0.8016	25.76	-0.04	-0.750			
0.1615	10336.19	3.9200	3.9199	-0.7973	25.76	-0.04	-0.750			
0.1639	10490.61	3.9170	3.9169	-0.8014	25.77	-0.03	-0.750			
0.1663	10643.13	3.9140	3.9144	-0.8044	25.77	-0.03	-0.750			
0.1687	10798.38	3.9110	3.9109	-0.8056	25.77	-0.03	-0.750			
0.1712	10954.07	3.9080	3.9078	-0.8082	25.77	-0.03	-0.750			
0.1735	11106.86	3.9050	3.9051	-0.8055	25.77	-0.03	-0.750			
0.1760	11263.24	3.9020	3.9020	-0.8138	25.77	-0.03	-0.750			
0.1785	11421.40	3.8990	3.8991	-0.8131	25.77	-0.03	-0.750			
0.1809	11574.66	3.8960	3.8959	-0.8105	25.77	-0.03	-0.750			
0.1833	11729.48	3.8930	3.8930	-0.8137	25.78	-0.02	-0.750			
0.1857	11887.16	3.8900	3.8900	-0.8186	25.78	-0.02	-0.750			
0.1882	12044.65	3.8870	3.8869	-0.8181	25.78	-0.02	-0.750			
0.1907	12203.35	3.8840	3.8841	-0.8222	25.79	-0.01	-0.750			
0.1932	12361.91	3.8810	3.8809	-0.8209	25.79	-0.01	-0.750			
0.1956	12519.63	3.8780	3.8780	-0.8255	25.79	-0.01	-0.750			
0.1981	12677.33	3.8750	3.8750	-0.8193	25.80	-0.00	-0.750			
0.2005	12833.63	3.8720	3.8720	-0.8146	25.80	-0.00	-0.750			
0.2030	12991.75	3.8690	3.8690	-0.8169	25.80	-0.00	-0.750			
0.2054	13146.82	3.8660	3.8660	-0.8228	25.80	0.00	-0.750			
0.2079	13303.49	3.8630	3.8630	-0.8320	25.80	0.00	-0.750			
0.2104	13466.26	3.8600	3.8599	-0.8392	25.81	0.01	-0.750			
0.2129	13627.89	3.8570	3.8569	-0.8415	25.81	0.01	-0.750			
0.2155	13793.01	3.8540	3.8541	-0.8424	25.81	0.01	-0.750			
0.2181	13957.11	3.8510	3.8510	-0.8393	25.81	0.01	-0.750			
0.2206	14116.57	3.8480	3.8479	-0.8382	25.81	0.01	-0.750			
0.2230	14273.66	3.8450	3.8449	-0.8287	25.82	0.02	-0.750			
0.2255	14432.51	3.8420	3.8420	-0.8288	25.82	0.02	-0.750			
0.2280	14594.04	3.8390	3.8390	-0.8286	25.82	0.02	-0.750			
0.2305	14753.84	3.8360	3.8358	-0.8253	25.82	0.02	-0.750			
0.2330	14911.41	3.8330	3.8330	-0.8280	25.82	0.02	-0.750			
0.2354	15068.68	3.8300	3.8300	-0.8289	25.83	0.03	-0.750			
0.2379	15226.69	3.8270	3.8269	-0.8283	25.83	0.03	-0.750			
0.2405	15389.21	3.8240	3.8240	-0.8290	25.83	0.03	-0.750			
0.2429	15548.58	3.8210	3.8212	-0.8252	25.83	0.03	-0.750			
0.2454	15706.23	3.8180	3.8180	-0.8277	25.84	0.04	-0.750			
0.2479	15865.20	3.8150	3.8149	-0.8236	25.84	0.04	-0.750			
0.2503	16021.10	3.8120	3.8120	-0.8198	25.84	0.04	-0.750			
0.2528	16179.34	3.8090	3.8090	-0.8184	25.85	0.05	-0.750			
0.2553	16338.35	3.8060	3.8061	-0.8211	25.85	0.05	-0.750			
0.2578	16496.28	3.8030	3.8029	-0.8184	25.86	0.06	-0.750			
0.2602	16651.68	3.8000	3.8001	-0.8148	25.86	0.06	-0.750			
0.2626	16806.58	3.7970	3.7970	-0.8109	25.86	0.06	-0.750			
0.2651	16963.45	3.7940	3.7939	-0.8104	25.87	0.07	-0.750			
0.2675	17119.41	3.7910	3.7910	-0.8053	25.87	0.07	-0.750			
0.2699	17275.20	3.7880	3.7880	-0.7943	25.88	0.08	-0.750			
0.2723	17428.30	3.7850	3.7850	-0.7896	25.88	0.08	-0.750			
0.2747	17578.24	3.7820	3.7821	-0.7789	25.88	0.08	-0.750			
0.2770	17726.18	3.7790	3.7789	-0.7734	25.89	0.09	-0.750			
0.2793	17872.64	3.7760	3.7763	-0.7699	25.89	0.09	-0.750			
0.2815	18018.92	3.7730	3.7729	-0.7743	25.89	0.09	-0.750			
0.2839	18167.92	3.7700	3.7700	-0.7803	25.89	0.09	-0.750			
0.2862	18319.97	3.7670	3.7670	-0.7847	25.89	0.09	-0.750			
0.2886	18472.84	3.7640	3.7639	-0.7875	25.89	0.09	-0.750			
0.2910	18623.18	3.7610	3.7611	-0.7871	25.89	0.09	-0.750			
0.2933	18773.34	3.7580	3.7579	-0.7870	25.89	0.09	-0.750			
0.2957	18924.11	3.7550	3.7549	-0.7878	25.90	0.10	-0.750			
0.2980	19074.28	3.7520	3.7520	-0.7843	25.90	0.10	-0.750			
0.3004	19225.47	3.7490	3.7490	-0.7893	25.90	0.10	-0.750			
0.3028	19379.28	3.7460	3.7460	-0.7962	25.91	0.11	-0.750			
0.3052	19531.47	3.7430	3.7431	-0.8021	25.91	0.11	-0.750			
0.3075	19681.88	3.7400	3.7399	-0.8119	25.91	0.11	-0.750			
0.3100	19841.12	3.7370	3.7369	-0.8199	25.91	0.11	-0.750			
0.3125	20001.75	3.7340	3.7339	-0.8219	25.92	0.12	-0.750			
0.3150	20159.81	3.7310	3.7309	-0.8295	25.92	0.12	-0.750			
0.3175	20320.17	3.7280	3.7282	-0.8378	25.92	0.12	-0.750			
0.3200	20480.39	3.7250	3.7249	-0.8462	25.92	0.12	-0.750			
0.3225	20640.34	3.7220	3.7220	-0.8507	25.92	0.12	-0.750			
0.3250	20802.80	3.7190	3.7191	-0.8586	25.93	0.13	-0.750			
0.3277	20972.88	3.7160	3.7159	-0.8829	25.93	0.13	-0.750			
0.3304	21145.02	3.7130	3.7130	-0.9030	25.93	0.13	-0.750			
0.3331	21317.62	3.7100	3.7100	-0.9210	25.93	0.13	-0.750			
0.3359	21497.02	3.7070	3.7069	-0.9332	25.92	0.12	-0.750			
0.3387	21678.41	3.7040	3.7040	-0.9461	25.92	0.12	-0.750			
0.3416	21862.76	3.7010	3.7013	-0.9680	25.92	0.12	-0.750			
0.3445	22049.78	3.6980	3.6978	-0.9907	25.92	0.12	-0.750			
0.3475	22241.72	3.6950	3.6950	-1.0044	25.92	0.12	-0.750			
0.3505	22435.06	3.6920	3.6920	-1.0165	25.92	0.12	-0.750			
0.3537	22634.12	3.6890	3.6891	-1.0411	25.92	0.12	-0.750			
0.3568	22836.65	3.6860	3.6859	-1.0680	25.92	0.12	-0.750			
0.3600	23042.68	3.6830	3.6828	-1.0823	25.92	0.12	-0.750			
0.3633	23250.81	3.6800	3.6799	-1.0968	25.92	0.12	-0.750			
0.3666	23460.50	3.6770	3.6774	-1.1229	25.92	0.12	-0.750			
0.3701	23683.55	3.6740	3.6740	-1.1508	25.91	0.11	-0.750			
0.3736	23909.43	3.6710	3.6708	-1.1523	25.91	0.11	-0.750			
0.3770	24125.63	3.6680	3.6680	-1.1763	25.90	0.10	-0.750			
0.3806	24360.46	3.6650	3.6651	-1.1783	25.90	0.10	-0.750			
0.3841	24581.56	3.6620	3.6620	-1.2129	25.90	0.10	-0.750			
0.3877	24812.59	3.6590	3.6588	-1.2399	25.89	0.09	-0.750			
0.3914	25051.63	3.6560	3.6565	-1.2757	25.89	0.09	-0.750			
0.3953	25301.42	3.6530	3.6535	-1.3460	25.88	0.08	-0.750			
0.3996	25572.02	3.6500	3.6499	-1.3986	25.88	0.08	-0.750			
0.4038	25844.89	3.6470	3.6470	-1.4291	25.87	0.07	-0.750			
0.4083	26130.42	3.6440	3.6441	-1.4720	25.86	0.06	-0.750			
0.4127	26410.50	3.6410	3.6411	-1.5044	25.86	0.06	-0.750			
0.4172	26701.62	3.6380	3.6381	-1.5314	25.85	0.05	-0.750			
0.4218	26997.63	3.6350	3.6350	-1.5456	25.84	0.04	-0.750			
0.4265	27295.67	3.6320	3.6321	-1.5724	25.83	0.03	-0.750			
0.4313	27605.77	3.6290	3.6288	-1.6223	25.82	0.02	-0.750			
0.4363	27921.79	3.6260	3.6259	-1.6602	25.82	0.02	-0.750			
0.4412	28238.75	3.6230	3.6232	-1.6597	25.82	0.02	-0.750			
0.4462	28557.11	3.6200	3.6200	-1.6873	25.82	0.02	-0.750	0.412	0.520	
0.4513	28886.08	3.6170	3.6169	-1.7144	25.81	0.01	-0.750			
0.4565	29216.22	3.6140	3.6136	-1.7427	25.81	0.01	-0.750			
0.4617	29551.85	3.6110	3.6109	-1.7809	25.80	-0.00	-0.750			
0.4671	29892.68	3.6080	3.6082	-1.8132	25.79	-0.01	-0.750			
0.4727	30251.03	3.6050	3.6052	-1.8719	25.79	-0.01	-0.750			
0.4783	30609.10	3.6020	3.6020	-1.8698	25.79	-0.01	-0.750			
0.4839	30966.73	3.5990	3.5989	-1.9216	25.78	-0.02	-0.750			
0.4897	31341.41	3.5960	3.5960	-1.9947	25.77	-0.03	-0.750			
0.4959	31736.78	3.5930	3.5929	-2.0178	25.77	-0.03	-0.750			
0.5020	32130.86	3.5900	3.5899	-2.0416	25.77	-0.03	-0.750			
0.5081	32518.78	3.5870	3.5872	-2.0751	25.77	-0.03	-0.750			
0.5145	32928.18	3.5840	3.5839	-2.1134	25.77	-0.03	-0.750			
0.5209	33338.59	3.5810	3.5810	-2.1352	25.77	-0.03	-0.750			
0.5272	33741.13	3.5780	3.5778	-2.1474	25.77	-0.03	-0.750			
0.5337	34155.10	3.5750	3.5750	-2.1844	25.77	-0.03	-0.750			
0.5404	34588.40	3.5720	3.5720	-2.2501	25.76	-0.04	-0.750			
0.5471	35016.57	3.5690	3.5691	-2.2634	25.76	-0.04	-0.750			
0.5540	35458.47	3.5660	3.5660	-2.2701	25.75	-0.05	-0.750			
0.5609	35899.31	3.5630	3.5632	-2.2884	25.76	-0.04	-0.750			
0.5679	36344.64	3.5600	3.5600	-2.2887	25.76	-0.04	-0.750			
0.5748	36787.63	3.5570	3.5568	-2.2860	25.75	-0.05	-0.750			
0.5816	37219.87	3.5540	3.5540	-2.2632	25.75	-0.05	-0.750			
0.5884	37657.92	3.5510	3.5509	-2.2452	25.76	-0.04	-0.750			
0.5951	38085.77	3.5480	3.5480	-2.2505	25.76	-0.04	-0.750			
0.6019	38524.29	3.5450	3.5450	-2.2271	25.77	-0.03	-0.750			
0.6086	38953.33	3.5420	3.5419	-2.2090	25.77	-0.03	-0.750			
0.6153	39377.14	3.5390	3.5391	-2.1932	25.77	-0.03	-0.750			
0.6219	39798.99	3.5360	3.5363	-2.1453	25.78	-0.02	-0.750			
0.6283	40208.27	3.5330	3.5329	-2.1159	25.79	-0.01	-0.750			
0.6346	40615.85	3.5300	3.5298	-2.0807	25.79	-0.01	-0.750			
0.6406	40998.74	3.5270	3.5269	-2.0211	25.80	-0.00	-0.750			
0.6467	41386.70	3.5240	3.5241	-1.9900	25.81	0.01	-0.750			
0.6527	41770.41	3.5210	3.5211	-1.9443	25.82	0.02	-0.750			
0.6584	42136.72	3.5180	3.5179	-1.8889	25.82	0.02	-0.750			
0.6641	42501.91	3.5150	3.5150	-1.8466	25.83	0.03	-0.750			
0.6695	42845.61	3.5120	3.5118	-1.7901	25.84	0.04	-0.750			
0.6748	43187.38	3.5090	3.5093	-1.7339	25.86	0.06	-0.750			
0.6799	43515.77	3.5060	3.5060	-1.6722	25.87	0.07	-0.750			
0.6849	43831.97	3.5030	3.5028	-1.6167	25.88	0.08	-0.750			
0.6896	44132.63	3.5000	3.5000	-1.5509	25.89	0.09	-0.750			
0.6941	44424.62	3.4970	3.4968	-1.5013	25.90	0.10	-0.750			
0.6986	44711.17	3.4940	3.4940	-1.4581	25.92	0.12	-0.750			
0.7028	44980.03	3.4910	3.4911	-1.4048	25.94	0.14	-0.750			
0.7070	45250.17	3.4880	3.4880	-1.3703	25.96	0.16	-0.750			
0.7111	45511.87	3.4850	3.4849	-1.3266	25.97	0.17	-0.750			
0.7151	45764.79	3.4820	3.4820	-1.2897	25.99	0.19	-0.750			
0.7189	46007.75	3.4790	3.4790	-1.2493	26.00	0.20	-0.750			
0.7226	46244.47	3.4760	3.4759	-1.2039	26.01	0.21	-0.750			
0.7261	46470.32	3.4730	3.4729	-1.1583	26.03	0.23	-0.750			
0.7294	46684.24	3.4700	3.4702	-1.1174	26.04	0.24	-0.750			
0.7328	46897.56	3.4670	3.4669	-1.0860	26.05	0.25	-0.750			
0.7360	47101.92	3.4640	3.4640	-1.0491	26.07	0.27	-0.750			
0.7390	47298.23	3.4610	3.4609	-1.0125	26.08	0.28	-0.750			
0.7420	47490.87	3.4580	3.4582	-0.9864	26.09	0.29	-0.750			
0.7449	47676.71	3.4550	3.4549	-0.9650	26.10	0.30	-0.750			
0.7478	47857.59	3.4520	3.4520	-0.9368	26.11	0.31	-0.750			
0.7505	48034.02	3.4490	3.4488	-0.9155	26.12	0.32	-0.750			
0.7532	48208.00	3.4460	3.4461	-0.8986	26.13	0.33	-0.750			
0.7559	48379.15	3.4430	3.4429	-0.8785	26.14	0.34	-0.750			
0.7585	48543.91	3.4400	3.4399	-0.8748	26.15	0.35	-0.750			
0.7611	48707.87	3.4370	3.4371	-0.8757	26.16	0.36	-0.750			
0.7636	48870.31	3.4340	3.4338	-0.8831	26.18	0.38	-0.750			
0.7663	49040.86	3.4310	3.4312	-0.9091	26.19	0.39	-0.750			
0.7690	49217.14	3.4280	3.4280	-0.9406	26.20	0.40	-0.750			
0.7719	49402.43	3.4250	3.4248	-0.9699	26.21	0.41	-0.750			
0.7749	49595.15	3.4220	3.4219	-0.9867	26.22	0.42	-0.750			
0.7780	49789.42	3.4190	3.4190	-1.0027	26.23	0.43	-0.750			
0.7810	49982.65	3.4160	3.4161	-1.0106	26.23	0.43	-0.750			
0.7840	50177.78	3.4130	3.4130	-1.0074	26.24	0.44	-0.750			
0.7871	50372.90	3.4100	3.4099	-0.9947	26.24	0.44	-0.750			
0.7900	50562.35	3.4070	3.4070	-0.9776	26.25	0.45	-0.750			
0.7930	50753.42	3.4040	3.4041	-0.9650	26.25	0.45	-0.750			
0.7959	50938.12	3.4010	3.4010	-0.9416	26.26	0.46	-0.750			
0.7987	51118.11	3.3980	3.3979	-0.9070	26.27	0.47	-0.750			
0.8014	51287.42	3.3950	3.3950	-0.8705	26.28	0.48	-0.750			
0.8039	51452.46	3.3920	3.3924	-0.8391	26.29	0.49	-0.750			
0.8064	51611.88	3.3890	3.3889	-0.8058	26.30	0.50	-0.750			
0.8087	51758.71	3.3860	3.3859	-0.7779	26.31	0.51	-0.750			
0.8110	51904.67	3.3830	3.3830	-0.7453	26.31	0.51	-0.750			
0.8132	52046.92	3.3800	3.3799	-0.7248	26.32	0.52	-0.750			
0.8154	52183.10	3.3770	3.3769	-0.6956	26.33	0.53	-0.750			
0.8174	52314.01	3.3740	3.3739	-0.6692	26.33	0.53	-0.750			
0.8194	52440.42	3.3710	3.3709	-0.6427	26.34	0.54	-0.750			
0.8213	52560.53	3.3680	3.3680	-0.6142	26.35	0.55	-0.750			
0.8230	52672.83	3.3650	3.3651	-0.5854	26.35	0.55	-0.750			
0.8248	52785.50	3.3620	3.3618	-0.5707	26.36	0.56	-0.750			
0.8264	52891.42	3.3590	3.3591	-0.5475	26.36	0.56	-0.750			
0.8280	52994.52	3.3560	3.3560	-0.5279	26.37	0.57	-0.750			
0.8296	53093.21	3.3530	3.3530	-0.5115	26.37	0.57	-0.750			
0.8311	53190.66	3.3500	3.3501	-0.4972	26.38	0.58	-0.750			
0.8326	53284.75	3.3470	3.3469	-0.4789	26.38	0.58	-0.750			
0.8340	53375.68	3.3440	3.3440	-0.4592	26.39	0.59	-0.750			
0.8353	53461.83	3.3410	3.3411	-0.4436	26.40	0.60	-0.750			
0.8366	53545.29	3.3380	3.3382	-0.4264	26.40	0.60	-0.750			
0.8379	53625.65	3.3350	3.3347	-0.4094	26.41	0.61	-0.750			
0.8391	53700.34	3.3320	3.3321	-0.3908	26.41	0.61	-0.750			
0.8402	53773.92	3.3290	3.3290	-0.3806	26.41	0.61	-0.750			
0.8413	53846.12	3.3260	3.3261	-0.3684	26.42	0.62	-0.750			
0.8424	53916.31	3.3230	3.3228	-0.3573	26.42	0.62	-0.750			
0.8435	53982.77	3.3200	3.3200	-0.3451	26.43	0.63	-0.750			
0.8445	54048.49	3.3170	3.3171	-0.3364	26.43	0.63	-0.750			
0.8455	54112.59	3.3140	3.3140	-0.3242	26.44	0.64	-0.750			
0.8465	54173.47	3.3110	3.3110	-0.3133	26.44	0.64	-0.750			
0.8474	54232.27	3.3080	3.3082	-0.3042	26.45	0.65	-0.750			
0.8483	54289.66	3.3050	3.3049	-0.2970	26.45	0.65	-0.750			
0.8491	54345.44	3.3020	3.3018	-0.2882	26.46	0.66	-0.750			
0.8500	54399.81	3.2990	3.2991	-0.2795	26.46	0.66	-0.750			
0.8508	54452.49	3.2960	3.2961	-0.2743	26.46	0.66	-0.750			
0.8517	54506.29	3.2930	3.2930	-0.2696	26.47	0.67	-0.750			
0.8525	54556.80	3.2900	3.2899	-0.2606	26.47	0.67	-0.750			
0.8532	54605.19	3.2870	3.2869	-0.2536	26.48	0.68	-0.750			
0.8540	54653.51	3.2840	3.2843	-0.2470	26.48	0.68	-0.750			
0.8547	54700.55	3.2810	3.2810	-0.2411	26.48	0.68	-0.750			
0.8554	54746.13	3.2780	3.2778	-0.2365	26.49	0.69	-0.750			
0.8561	54790.85	3.2750	3.2751	-0.2313	26.49	0.69	-0.750			
0.8568	54834.68	3.2720	3.2719	-0.2268	26.50	0.70	-0.750			
0.8575	54877.72	3.2690	3.2689	-0.2215	26.50	0.70	-0.750			
0.8581	54919.51	3.2660	3.2661	-0.2175	26.51	0.71	-0.750			
0.8588	54960.18	3.2630	3.2631	-0.2141	26.51	0.71	-0.750			
0.8594	55001.65	3.2600	3.2599	-0.2109	26.51	0.71	-0.750			
0.8600	55041.76	3.2570	3.2568	-0.2069	26.52	0.72	-0.750			
0.8606	55080.67	3.2540	3.2541	-0.2031	26.52	0.72	-0.750			
0.8612	55119.42	3.2510	3.2512	-0.2008	26.53	0.73	-0.750			
0.8618	55157.83	3.2480	3.2479	-0.1980	26.53	0.73	-0.750			
0.8624	55195.52	3.2450	3.2449	-0.1946	26.53	0.73	-0.750			
0.8630	55232.21	3.2420	3.2420	-0.1918	26.54	0.74	-0.750			
0.8636	55268.54	3.2390	3.2391	-0.1888	26.54	0.74	-0.750			
0.8641	55305.09	3.2360	3.2360	-0.1874	26.54	0.74	-0.750			
0.8647	55340.78	3.2330	3.2329	-0.1843	26.55	0.75	-0.750			
0.8652	55375.80	3.2300	3.2300	-0.1810	26.55	0.75	-0.750			
0.8658	55410.11	3.2270	3.2270	-0.1780	26.56	0.76	-0.750			
0.8663	55444.19	3.2240	3.2241	-0.1755	26.56	0.76	-0.750			
0.8668	55477.45	3.2210	3.2208	-0.1734	26.56	0.76	-0.750			
0.8673	55510.19	3.2180	3.2180	-0.1712	26.57	0.77	-0.750			
0.8679	55543.10	3.2150	3.2148	-0.1685	26.57	0.77	-0.750			
0.8684	55575.32	3.2120	3.2121	-0.1663	26.58	0.78	-0.750			
0.8689	55606.85	3.2090	3.2089	-0.1649	26.58	0.78	-0.750			
0.8694	55638.49	3.2060	3.2061	-0.1630	26.59	0.79	-0.750			
0.8698	55669.45	3.2030	3.2029	-0.1610	26.60	0.80	-0.750			
0.8703	55700.18	3.2000	3.1999	-0.1591	26.60	0.80	-0.750			
0.8708	55730.34	3.1970	3.1971	-0.1574	26.61	0.81	-0.750			
0.8713	55760.20	3.1940	3.1940	-0.1566	26.61	0.81	-0.750			
0.8717	55790.39	3.1910	3.1909	-0.1562	26.62	0.82	-0.750			
0.8722	55820.28	3.1880	3.1880	-0.1551	26.62	0.82	-0.750			
0.8727	55849.76	3.1850	3.1849	-0.1530	26.63	0.83	-0.750			
0.8731	55879.44	3.1820	3.1821	-0.1518	26.63	0.83	-0.750			
0.8736	55908.36	3.1790	3.1790	-0.1504	26.64	0.84	-0.750			
0.8740	55937.06	3.1760	3.1761	-0.1485	26.64	0.84	-0.750			
0.8745	55965.35	3.1730	3.1729	-0.1471	26.64	0.84	-0.750			
0.8749	55993.20	3.1700	3.1699	-0.1450	26.65	0.85	-0.750			
0.8753	56020.88	3.1670	3.1671	-0.1437	26.65	0.85	-0.750			
0.8758	56048.42	3.1640	3.1640	-0.1424	26.66	0.86	-0.750			
0.8762	56076.00	3.1610	3.1610	-0.1408	26.66	0.86	-0.750			
0.8766	56102.80	3.1580	3.1581	-0.1392	26.67	0.87	-0.750			
0.8770	56129.33	3.1550	3.1549	-0.1372	26.67	0.87	-0.750			
0.8774	56155.25	3.1520	3.1521	-0.1360	26.68	0.88	-0.750			
0.8778	56180.84	3.1490	3.1490	-0.1352	26.68	0.88	-0.750			
0.8782	56206.60	3.1460	3.1460	-0.1346	26.69	0.89	-0.750			
0.8786	56232.63	3.1430	3.1429	-0.1341	26.70	0.90	-0.750			
0.8790	56258.26	3.1400	3.1401	-0.1337	26.70	0.90	-0.750			
0.8794	56284.36	3.1370	3.1371	-0.1334	26.71	0.91	-0.750			
0.8798	56310.24	3.1340	3.1340	-0.1319	26.71	0.91	-0.750			
0.8802	56335.11	3.1310	3.1310	-0.1302	26.72	0.92	-0.750			
0.8806	56360.00	3.1280	3.1280	-0.1285	26.72	0.92	-0.750			
0.8810	56384.30	3.1250	3.1251	-0.1278	26.73	0.93	-0.750			
0.8814	56408.35	3.1220	3.1221	-0.1265	26.73	0.93	-0.750			
0.8818	56432.61	3.1190	3.1189	-0.1251	26.74	0.94	-0.750			
0.8821	56456.47	3.1160	3.1160	-0.1247	26.74	0.94	-0.750			
0.8825	56480.30	3.1130	3.1132	-0.1242	26.75	0.95	-0.750			
0.8829	56504.22	3.1100	3.1100	-0.1243	26.75	0.95	-0.750			
0.8833	56528.02	3.1070	3.1069	-0.1237	26.75	0.95	-0.750			
0.8836	56551.69	3.1040	3.1040	-0.1223	26.76	0.96	-0.750			
0.8840	56575.09	3.1010	3.1010	-0.1215	26.76	0.96	-0.750			
0.8844	56598.48	3.0980	3.0981	-0.1203	26.77	0.97	-0.750			
0.8847	56621.95	3.0950	3.0950	-0.1196	26.77	0.97	-0.750			
0.8851	56644.40	3.0920	3.0921	-0.1193	26.78	0.98	-0.750			
0.8854	56666.89	3.0890	3.0889	-0.1181	26.78	0.98	-0.750			
0.8858	56689.64	3.0860	3.0859	-0.1170	26.79	0.99	-0.750			
0.8861	56711.82	3.0830	3.0829	-0.1161	26.79	0.99	-0.750			
0.8865	56734.07	3.0800	3.0802	-0.1156	26.80	1.00	-0.750			
0.8868	56756.40	3.0770	3.0770	-0.1151	26.80	1.00	-0.750			
0.8872	56778.41	3.0740	3.0738	-0.1145	26.81	1.01	-0.750			
0.8875	56800.44	3.0710	3.0710	-0.1138	26.81	1.01	-0.750			
0.8878	56822.26	3.0680	3.0680	-0.1126	26.81	1.01	-0.750			
0.8882	56843.53	3.0650	3.0650	-0.1114	26.82	1.02	-0.750			
0.8885	56865.10	3.0620	3.0620	-0.1112	26.82	1.02	-0.750			
0.8888	56886.33	3.0590	3.0590	-0.1100	26.83	1.03	-0.750			
0.8892	56907.00	3.0560	3.0559	-0.1090	26.83	1.03	-0.750			
0.8895	56927.89	3.0530	3.0530	-0.1086	26.83	1.03	-0.750			
0.8898	56948.71	3.0500	3.0498	-0.1081	26.84	1.04	-0.750			
0.8901	56969.24	3.0470	3.0471	-0.1075	26.84	1.04	-0.750			
0.8905	56989.83	3.0440	3.0438	-0.1074	26.85	1.05	-0.750			
0.8908	57010.53	3.0410	3.0412	-0.1073	26.85	1.05	-0.750			
0.8911	57031.19	3.0380	3.0379	-0.1065	26.85	1.05	-0.750			
0.8914	57051.68	3.0350	3.0350	-0.1060	26.86	1.06	-0.750			
0.8917	57071.99	3.0320	3.0320	-0.1051	26.86	1.06	-0.750			
0.8921	57092.15	3.0290	3.0291	-0.1044	26.87	1.07	-0.750			
0.8924	57112.08	3.0260	3.0259	-0.1037	26.87	1.07	-0.750			
0.8927	57132.01	3.0230	3.0230	-0.1030	26.87	1.07	-0.750			
0.8930	57151.57	3.0200	3.0201	-0.1019	26.88	1.08	-0.750			
0.8933	57171.07	3.0170	3.0169	-0.1013	26.88	1.08	-0.750			
0.8936	57190.65	3.0140	3.0139	-0.1004	26.89	1.09	-0.750			
0.8939	57209.82	3.0110	3.0111	-0.0993	26.89	1.09	-0.750			
0.8942	57228.95	3.0080	3.0079	-0.0979	26.89	1.09	-0.751			
0.8945	57247.59	3.0050	3.0051	-0.0963	26.90	1.10	-0.751			
0.8948	57265.89	3.0020	3.0020	-0.0941	26.90	1.10	-0.751			
