Ah_balance (normalized)	Ah_balance (mAh)	Voltage - fit (V)	Voltage -  interpolate (V)	dQ/dV (1/V)	Temperature (°C)	Temperature - diff (°C)	Current (C)	R_DC 0ms (mOhm)	R_DC 50ms (mOhm)	R_DC 50 ms PEC (mOhm)
0.0003	17.41	4.1620	4.1617	-0.1190	25.94	0.01	-0.750			
0.0007	44.31	4.1590	4.1589	-0.1612	25.94	0.01	-0.750			
0.0013	80.18	4.1560	4.1559	-0.2039	25.94	0.01	-0.750			
0.0019	124.37	4.1530	4.1529	-0.2409	25.93	0.00	-0.750			
0.0027	174.25	4.1500	4.1501	-0.2764	25.93	0.00	-0.750			
0.0036	231.11	4.1470	4.1472	-0.3138	25.93	-0.00	-0.750			
0.0046	294.52	4.1440	4.1440	-0.3485	25.93	-0.00	-0.750			
0.0057	364.66	4.1410	4.1410	-0.3823	25.92	-0.01	-0.750			
0.0069	441.52	4.1380	4.1379	-0.4149	25.92	-0.01	-0.750			
0.0082	525.84	4.1350	4.1351	-0.4468	25.92	-0.01	-0.750			
0.0096	615.50	4.1320	4.1320	-0.4734	25.92	-0.01	-0.750			
0.0111	709.92	4.1290	4.1290	-0.4993	25.91	-0.02	-0.750			
0.0126	808.97	4.1260	4.1260	-0.5171	25.91	-0.02	-0.750			
0.0142	910.31	4.1230	4.1230	-0.5339	25.90	-0.03	-0.750			
0.0159	1014.45	4.1200	4.1201	-0.5489	25.90	-0.03	-0.750			
0.0175	1121.60	4.1170	4.1170	-0.5637	25.90	-0.03	-0.750			
0.0192	1230.70	4.1140	4.1140	-0.5773	25.89	-0.04	-0.750			
0.0210	1342.24	4.1110	4.1110	-0.5930	25.89	-0.04	-0.750			
0.0228	1457.78	4.1080	4.1080	-0.6056	25.88	-0.05	-0.750			
0.0246	1577.02	4.1050	4.1050	-0.6210	25.88	-0.05	-0.750			
0.0265	1697.55	4.1020	4.1020	-0.6300	25.87	-0.06	-0.750			
0.0285	1821.12	4.0990	4.0992	-0.6361	25.87	-0.06	-0.750			
0.0304	1943.74	4.0960	4.0960	-0.6418	25.87	-0.06	-0.750			
0.0323	2067.40	4.0930	4.0931	-0.6450	25.86	-0.07	-0.750			
0.0342	2190.90	4.0900	4.0899	-0.6554	25.86	-0.07	-0.750			
0.0362	2318.03	4.0870	4.0870	-0.6615	25.86	-0.07	-0.750			
0.0382	2445.94	4.0840	4.0839	-0.6636	25.85	-0.08	-0.750			
0.0402	2575.25	4.0810	4.0810	-0.6704	25.85	-0.08	-0.750			
0.0423	2704.51	4.0780	4.0779	-0.6754	25.85	-0.08	-0.750			
0.0443	2833.62	4.0750	4.0749	-0.6734	25.85	-0.08	-0.750			
0.0463	2961.74	4.0720	4.0720	-0.6799	25.85	-0.08	-0.750			
0.0483	3091.45	4.0690	4.0691	-0.6797	25.85	-0.08	-0.750			
0.0504	3225.51	4.0660	4.0659	-0.6921	25.85	-0.08	-0.750			
0.0525	3359.46	4.0630	4.0630	-0.6937	25.85	-0.08	-0.750			
0.0546	3492.46	4.0600	4.0601	-0.6956	25.85	-0.08	-0.750			
0.0566	3625.55	4.0570	4.0570	-0.7007	25.85	-0.08	-0.750			
0.0588	3760.91	4.0540	4.0540	-0.7076	25.85	-0.08	-0.750			
0.0609	3896.85	4.0510	4.0509	-0.7055	25.85	-0.08	-0.750			
0.0630	4033.78	4.0480	4.0481	-0.7097	25.85	-0.08	-0.750			
0.0652	4170.96	4.0450	4.0450	-0.7081	25.85	-0.08	-0.750			
0.0673	4307.34	4.0420	4.0420	-0.7097	25.85	-0.08	-0.750			
0.0694	4442.44	4.0390	4.0390	-0.7100	25.85	-0.08	-0.750			
0.0715	4578.16	4.0360	4.0359	-0.7147	25.85	-0.08	-0.750			
0.0737	4716.35	4.0330	4.0330	-0.7167	25.85	-0.08	-0.750			
0.0759	4855.73	4.0300	4.0300	-0.7197	25.85	-0.08	-0.750			
0.0780	4994.67	4.0270	4.0272	-0.7216	25.85	-0.08	-0.750			
0.0802	5133.19	4.0240	4.0239	-0.7254	25.85	-0.08	-0.750			
0.0824	5271.62	4.0210	4.0210	-0.7248	25.85	-0.08	-0.750			
0.0845	5410.61	4.0180	4.0179	-0.7278	25.85	-0.08	-0.750			
0.0867	5550.10	4.0150	4.0150	-0.7274	25.86	-0.07	-0.750			
0.0889	5692.40	4.0120	4.0120	-0.7349	25.86	-0.07	-0.750			
0.0911	5833.20	4.0090	4.0091	-0.7339	25.86	-0.07	-0.750			
0.0933	5973.89	4.0060	4.0060	-0.7351	25.86	-0.07	-0.750			
0.0955	6114.91	4.0030	4.0029	-0.7349	25.86	-0.07	-0.750			
0.0977	6255.38	4.0000	4.0000	-0.7391	25.85	-0.08	-0.750			
0.1000	6398.31	3.9970	3.9970	-0.7405	25.85	-0.08	-0.750			
0.1022	6540.47	3.9940	3.9940	-0.7442	25.85	-0.08	-0.750			
0.1044	6683.43	3.9910	3.9910	-0.7476	25.85	-0.08	-0.750			
0.1067	6827.37	3.9880	3.9881	-0.7512	25.86	-0.07	-0.750			
0.1089	6971.11	3.9850	3.9850	-0.7535	25.86	-0.07	-0.750			
0.1112	7116.58	3.9820	3.9820	-0.7545	25.86	-0.07	-0.750			
0.1135	7262.17	3.9790	3.9789	-0.7534	25.87	-0.06	-0.750			
0.1158	7408.90	3.9760	3.9760	-0.7537	25.87	-0.06	-0.750			
0.1180	7551.21	3.9730	3.9730	-0.7555	25.87	-0.06	-0.750			
0.1203	7696.03	3.9700	3.9700	-0.7584	25.88	-0.05	-0.750			
0.1225	7842.48	3.9670	3.9669	-0.7619	25.88	-0.05	-0.750			
0.1248	7987.57	3.9640	3.9641	-0.7643	25.88	-0.05	-0.750			
0.1271	8135.77	3.9610	3.9610	-0.7683	25.89	-0.04	-0.750			
0.1294	8284.04	3.9580	3.9580	-0.7696	25.89	-0.04	-0.750			
0.1318	8432.73	3.9550	3.9550	-0.7710	25.89	-0.04	-0.750			
0.1341	8579.40	3.9520	3.9520	-0.7692	25.89	-0.04	-0.750			
0.1364	8727.01	3.9490	3.9490	-0.7730	25.89	-0.04	-0.750			
0.1387	8875.65	3.9460	3.9460	-0.7768	25.89	-0.04	-0.750			
0.1410	9024.42	3.9430	3.9430	-0.7785	25.89	-0.04	-0.750			
0.1433	9174.26	3.9400	3.9400	-0.7838	25.89	-0.04	-0.750			
0.1457	9326.30	3.9370	3.9370	-0.7887	25.90	-0.03	-0.750			
0.1481	9479.02	3.9340	3.9340	-0.7877	25.90	-0.03	-0.750			
0.1505	9630.75	3.9310	3.9309	-0.7856	25.91	-0.02	-0.750			
0.1528	9780.33	3.9280	3.9282	-0.7868	25.91	-0.02	-0.750			
0.1552	9931.16	3.9250	3.9249	-0.7897	25.91	-0.02	-0.750			
0.1575	10082.35	3.9220	3.9219	-0.7903	25.92	-0.01	-0.750			
0.1599	10234.34	3.9190	3.9190	-0.7874	25.92	-0.01	-0.750			
0.1623	10384.82	3.9160	3.9161	-0.7883	25.92	-0.01	-0.750			
0.1647	10538.66	3.9130	3.9130	-0.7958	25.93	-0.00	-0.750			
0.1670	10690.63	3.9100	3.9099	-0.7966	25.93	0.00	-0.750			
0.1694	10839.92	3.9070	3.9070	-0.7997	25.93	0.00	-0.750			
0.1718	10996.81	3.9040	3.9040	-0.8053	25.93	0.00	-0.750			
0.1743	11153.94	3.9010	3.9009	-0.8109	25.94	0.01	-0.750			
0.1767	11311.69	3.8980	3.8979	-0.8079	25.94	0.01	-0.750			
0.1792	11466.62	3.8950	3.8952	-0.8055	25.94	0.01	-0.750			
0.1816	11619.95	3.8920	3.8919	-0.8026	25.94	0.01	-0.750			
0.1839	11772.69	3.8890	3.8889	-0.8050	25.94	0.01	-0.750			
0.1864	11926.72	3.8860	3.8860	-0.8021	25.95	0.02	-0.750			
0.1888	12082.71	3.8830	3.8829	-0.8105	25.95	0.02	-0.750			
0.1912	12239.31	3.8800	3.8802	-0.8186	25.95	0.02	-0.750			
0.1937	12397.63	3.8770	3.8770	-0.8207	25.95	0.02	-0.750			
0.1962	12554.71	3.8740	3.8739	-0.8200	25.96	0.03	-0.750			
0.1986	12712.08	3.8710	3.8711	-0.8170	25.96	0.03	-0.750			
0.2011	12870.56	3.8680	3.8680	-0.8197	25.97	0.04	-0.750			
0.2036	13028.08	3.8650	3.8650	-0.8133	25.97	0.04	-0.750			
0.2060	13183.71	3.8620	3.8619	-0.8078	25.97	0.04	-0.750			
0.2084	13337.12	3.8590	3.8591	-0.8058	25.98	0.05	-0.750			
0.2108	13491.85	3.8560	3.8561	-0.8064	25.98	0.05	-0.750			
0.2132	13646.32	3.8530	3.8528	-0.8058	25.99	0.06	-0.750			
0.2156	13800.94	3.8500	3.8501	-0.8073	25.99	0.06	-0.750			
0.2180	13954.61	3.8470	3.8470	-0.8088	25.99	0.06	-0.750			
0.2205	14110.54	3.8440	3.8440	-0.8172	25.99	0.06	-0.750			
0.2230	14269.94	3.8410	3.8410	-0.8206	25.99	0.06	-0.750			
0.2254	14426.52	3.8380	3.8379	-0.8200	25.99	0.06	-0.750			
0.2279	14585.87	3.8350	3.8351	-0.8222	25.99	0.06	-0.750			
0.2304	14744.39	3.8320	3.8319	-0.8192	25.99	0.06	-0.750			
0.2328	14900.22	3.8290	3.8289	-0.8185	26.00	0.07	-0.750			
0.2353	15056.21	3.8260	3.8261	-0.8187	26.01	0.08	-0.750			
0.2377	15210.89	3.8230	3.8230	-0.8168	26.01	0.08	-0.750			
0.2402	15371.09	3.8200	3.8200	-0.8193	26.02	0.09	-0.750			
0.2426	15528.26	3.8170	3.8170	-0.8161	26.02	0.09	-0.750			
0.2451	15685.63	3.8140	3.8140	-0.8145	26.03	0.10	-0.750			
0.2475	15840.87	3.8110	3.8109	-0.8117	26.04	0.11	-0.750			
0.2499	15995.19	3.8080	3.8080	-0.8047	26.04	0.11	-0.750			
0.2523	16150.10	3.8050	3.8050	-0.8008	26.05	0.12	-0.750			
0.2547	16303.87	3.8020	3.8019	-0.8005	26.05	0.12	-0.750			
0.2571	16456.02	3.7990	3.7992	-0.8055	26.05	0.12	-0.750			
0.2596	16611.77	3.7960	3.7960	-0.7991	26.05	0.12	-0.750			
0.2620	16766.00	3.7930	3.7929	-0.7955	26.06	0.13	-0.750			
0.2644	16919.02	3.7900	3.7899	-0.7885	26.06	0.13	-0.750			
0.2667	17069.99	3.7870	3.7871	-0.7844	26.06	0.13	-0.750			
0.2691	17220.16	3.7840	3.7839	-0.7736	26.06	0.13	-0.750			
0.2714	17366.52	3.7810	3.7810	-0.7637	26.06	0.13	-0.750			
0.2736	17509.62	3.7780	3.7779	-0.7566	26.07	0.14	-0.750			
0.2759	17656.77	3.7750	3.7751	-0.7639	26.07	0.14	-0.750			
0.2782	17802.36	3.7720	3.7719	-0.7594	26.07	0.14	-0.750			
0.2804	17947.11	3.7690	3.7690	-0.7659	26.07	0.14	-0.750			
0.2827	18094.26	3.7660	3.7661	-0.7710	26.08	0.15	-0.750			
0.2851	18244.86	3.7630	3.7629	-0.7741	26.08	0.15	-0.750			
0.2874	18394.79	3.7600	3.7600	-0.7697	26.08	0.15	-0.750			
0.2897	18541.46	3.7570	3.7570	-0.7737	26.09	0.16	-0.750			
0.2920	18689.69	3.7540	3.7540	-0.7792	26.09	0.16	-0.750			
0.2943	18837.85	3.7510	3.7510	-0.7858	26.10	0.17	-0.750			
0.2967	18987.82	3.7480	3.7479	-0.7909	26.10	0.17	-0.750			
0.2991	19142.07	3.7450	3.7451	-0.7989	26.10	0.17	-0.750			
0.3015	19298.14	3.7420	3.7419	-0.8041	26.11	0.18	-0.750			
0.3040	19455.42	3.7390	3.7392	-0.8028	26.11	0.18	-0.750			
0.3064	19607.24	3.7360	3.7360	-0.8003	26.11	0.18	-0.750			
0.3087	19758.97	3.7330	3.7331	-0.8069	26.11	0.18	-0.750			
0.3112	19913.75	3.7300	3.7297	-0.8162	26.12	0.19	-0.750			
0.3136	20070.02	3.7270	3.7270	-0.8266	26.12	0.19	-0.750			
0.3161	20229.62	3.7240	3.7243	-0.8378	26.12	0.19	-0.750			
0.3186	20393.19	3.7210	3.7210	-0.8524	26.12	0.19	-0.750			
0.3212	20558.67	3.7180	3.7180	-0.8655	26.12	0.19	-0.750			
0.3238	20722.44	3.7150	3.7150	-0.8765	26.13	0.20	-0.750			
0.3265	20893.37	3.7120	3.7120	-0.8968	26.13	0.20	-0.750			
0.3292	21066.25	3.7090	3.7090	-0.9136	26.13	0.20	-0.750			
0.3319	21243.50	3.7060	3.7061	-0.9392	26.13	0.20	-0.750			
0.3348	21427.75	3.7030	3.7029	-0.9559	26.12	0.19	-0.750			
0.3377	21613.72	3.7000	3.7000	-0.9709	26.12	0.19	-0.750			
0.3407	21801.79	3.6970	3.6972	-0.9853	26.12	0.19	-0.750			
0.3436	21991.44	3.6940	3.6940	-1.0060	26.12	0.19	-0.750			
0.3467	22186.09	3.6910	3.6909	-1.0206	26.12	0.19	-0.750			
0.3497	22383.58	3.6880	3.6879	-1.0347	26.11	0.18	-0.750			
0.3528	22582.10	3.6850	3.6851	-1.0539	26.11	0.18	-0.750			
0.3561	22790.41	3.6820	3.6820	-1.0897	26.11	0.18	-0.750			
0.3594	23001.59	3.6790	3.6790	-1.1036	26.11	0.18	-0.750			
0.3627	23214.02	3.6760	3.6758	-1.1250	26.10	0.17	-0.750			
0.3661	23429.94	3.6730	3.6734	-1.1543	26.10	0.17	-0.750			
0.3696	23657.25	3.6700	3.6697	-1.1756	26.09	0.16	-0.750			
0.3732	23884.72	3.6670	3.6670	-1.1956	26.08	0.15	-0.750			
0.3768	24114.52	3.6640	3.6640	-1.2164	26.07	0.14	-0.750			
0.3805	24354.30	3.6610	3.6609	-1.2428	26.07	0.14	-0.750			
0.3843	24593.71	3.6580	3.6580	-1.2704	26.06	0.13	-0.750			
0.3881	24837.37	3.6550	3.6550	-1.2793	26.05	0.12	-0.750			
0.3919	25084.10	3.6520	3.6520	-1.3190	26.05	0.12	-0.750			
0.3960	25344.32	3.6490	3.6490	-1.3596	26.04	0.11	-0.750			
0.4001	25607.64	3.6460	3.6459	-1.3883	26.04	0.11	-0.750			
0.4044	25878.66	3.6430	3.6432	-1.4267	26.03	0.10	-0.750			
0.4087	26158.96	3.6400	3.6399	-1.4578	26.02	0.09	-0.750			
0.4132	26441.66	3.6370	3.6369	-1.4767	26.01	0.08	-0.750			
0.4176	26725.26	3.6340	3.6340	-1.4908	26.01	0.08	-0.750			
0.4221	27015.94	3.6310	3.6311	-1.5354	26.00	0.07	-0.750			
0.4267	27311.89	3.6280	3.6279	-1.5529	25.99	0.06	-0.750			
0.4314	27607.45	3.6250	3.6249	-1.5794	25.99	0.06	-0.750			
0.4362	27918.30	3.6220	3.6220	-1.6260	25.98	0.05	-0.750			
0.4411	28232.15	3.6190	3.6193	-1.6583	25.97	0.04	-0.750	0.391	0.523	
0.4461	28552.05	3.6160	3.6161	-1.6908	25.97	0.04	-0.750			
0.4512	28879.99	3.6130	3.6130	-1.7346	25.96	0.03	-0.750			
0.4566	29219.82	3.6100	3.6097	-1.7685	25.96	0.03	-0.750			
0.4620	29566.46	3.6070	3.6067	-1.7748	25.95	0.02	-0.750			
0.4673	29907.54	3.6040	3.6042	-1.8189	25.95	0.02	-0.750			
0.4728	30261.66	3.6010	3.6012	-1.8627	25.95	0.02	-0.750			
0.4784	30619.13	3.5980	3.5981	-1.8897	25.95	0.02	-0.750			
0.4841	30984.78	3.5950	3.5952	-1.9193	25.94	0.01	-0.750			
0.4900	31360.72	3.5920	3.5921	-1.9688	25.93	0.00	-0.750			
0.4960	31746.30	3.5890	3.5890	-2.0141	25.93	-0.00	-0.750			
0.5022	32138.05	3.5860	3.5859	-2.0551	25.92	-0.01	-0.750			
0.5084	32535.33	3.5830	3.5831	-2.0609	25.92	-0.01	-0.750			
0.5146	32931.53	3.5800	3.5799	-2.0927	25.92	-0.01	-0.750			
0.5210	33341.17	3.5770	3.5770	-2.0958	25.92	-0.01	-0.750			
0.5272	33742.79	3.5740	3.5742	-2.1213	25.91	-0.02	-0.750			
0.5335	34145.96	3.5710	3.5708	-2.1504	25.91	-0.02	-0.750			
0.5400	34561.71	3.5680	3.5679	-2.1607	25.91	-0.02	-0.750			
0.5465	34974.63	3.5650	3.5650	-2.1816	25.91	-0.02	-0.750			
0.5531	35398.93	3.5620	3.5622	-2.2197	25.90	-0.03	-0.750			
0.5598	35825.83	3.5590	3.5585	-2.2360	25.91	-0.02	-0.750			
0.5667	36268.75	3.5560	3.5560	-2.2542	25.91	-0.02	-0.750			
0.5735	36701.82	3.5530	3.5530	-2.2377	25.90	-0.03	-0.750			
0.5803	37136.37	3.5500	3.5500	-2.2397	25.90	-0.03	-0.750			
0.5870	37565.09	3.5470	3.5469	-2.1941	25.91	-0.02	-0.750			
0.5936	37987.29	3.5440	3.5441	-2.1786	25.91	-0.02	-0.750			
0.6000	38402.93	3.5410	3.5411	-2.1502	25.91	-0.02	-0.750			
0.6064	38809.83	3.5380	3.5379	-2.1358	25.91	-0.02	-0.750			
0.6128	39218.19	3.5350	3.5351	-2.1216	25.92	-0.01	-0.750			
0.6192	39629.02	3.5320	3.5323	-2.1213	25.93	0.00	-0.750			
0.6256	40039.39	3.5290	3.5291	-2.0688	25.94	0.01	-0.750			
0.6318	40436.16	3.5260	3.5259	-2.0243	25.94	0.01	-0.750			
0.6378	40819.24	3.5230	3.5233	-1.9685	25.95	0.02	-0.750			
0.6437	41195.24	3.5200	3.5200	-1.9220	25.95	0.02	-0.750			
0.6492	41551.85	3.5170	3.5170	-1.8598	25.96	0.03	-0.750			
0.6547	41900.05	3.5140	3.5140	-1.8138	25.97	0.04	-0.750			
0.6601	42249.48	3.5110	3.5108	-1.8087	25.99	0.06	-0.750			
0.6656	42596.35	3.5080	3.5081	-1.7289	26.00	0.07	-0.750			
0.6707	42926.26	3.5050	3.5051	-1.6621	26.01	0.08	-0.750			
0.6757	43243.32	3.5020	3.5020	-1.5903	26.02	0.09	-0.750			
0.6803	43537.93	3.4990	3.4989	-1.5277	26.04	0.11	-0.750			
0.6847	43819.42	3.4960	3.4959	-1.4728	26.05	0.12	-0.750			
0.6888	44085.23	3.4930	3.4929	-1.4334	26.06	0.13	-0.750			
0.6931	44359.53	3.4900	3.4900	-1.4011	26.08	0.15	-0.750			
0.6974	44635.43	3.4870	3.4870	-1.3787	26.10	0.17	-0.750			
0.7015	44897.48	3.4840	3.4840	-1.3409	26.11	0.18	-0.750			
0.7055	45152.39	3.4810	3.4809	-1.2899	26.13	0.20	-0.750			
0.7093	45393.53	3.4780	3.4779	-1.2429	26.14	0.21	-0.750			
0.7129	45624.07	3.4750	3.4749	-1.1932	26.16	0.23	-0.750			
0.7164	45847.53	3.4720	3.4723	-1.1534	26.17	0.24	-0.750			
0.7198	46069.01	3.4690	3.4690	-1.1198	26.19	0.26	-0.750			
0.7231	46279.41	3.4660	3.4660	-1.0845	26.20	0.27	-0.750			
0.7263	46482.62	3.4630	3.4630	-1.0458	26.22	0.29	-0.750			
0.7294	46679.44	3.4600	3.4600	-1.0182	26.23	0.30	-0.750			
0.7324	46871.39	3.4570	3.4570	-0.9861	26.24	0.31	-0.750			
0.7353	47058.73	3.4540	3.4540	-0.9552	26.25	0.32	-0.750			
0.7381	47238.24	3.4510	3.4509	-0.9312	26.26	0.33	-0.750			
0.7409	47414.90	3.4480	3.4482	-0.9065	26.27	0.34	-0.750			
0.7435	47583.77	3.4450	3.4449	-0.8948	26.28	0.35	-0.750			
0.7461	47752.34	3.4420	3.4421	-0.8825	26.29	0.36	-0.750			
0.7487	47919.23	3.4390	3.4389	-0.8760	26.30	0.37	-0.750			
0.7513	48086.37	3.4360	3.4360	-0.8823	26.31	0.38	-0.750			
0.7540	48252.95	3.4330	3.4333	-0.8954	26.32	0.39	-0.750			
0.7566	48424.93	3.4300	3.4299	-0.9100	26.33	0.40	-0.750			
0.7594	48601.40	3.4270	3.4269	-0.9305	26.33	0.40	-0.750			
0.7622	48782.28	3.4240	3.4240	-0.9431	26.34	0.41	-0.750			
0.7651	48967.34	3.4210	3.4211	-0.9643	26.35	0.42	-0.750			
0.7680	49154.22	3.4180	3.4179	-0.9816	26.36	0.43	-0.750			
0.7710	49344.41	3.4150	3.4150	-0.9870	26.37	0.44	-0.750			
0.7740	49536.48	3.4120	3.4119	-0.9839	26.38	0.45	-0.750			
0.7770	49728.29	3.4090	3.4090	-0.9739	26.39	0.46	-0.750			
0.7799	49916.39	3.4060	3.4061	-0.9645	26.39	0.46	-0.750			
0.7829	50102.65	3.4030	3.4030	-0.9463	26.40	0.47	-0.750			
0.7856	50281.36	3.4000	3.3999	-0.9184	26.41	0.48	-0.750			
0.7884	50454.54	3.3970	3.3970	-0.8906	26.42	0.49	-0.750			
0.7910	50625.15	3.3940	3.3943	-0.8649	26.43	0.50	-0.750			
0.7936	50790.05	3.3910	3.3909	-0.8407	26.44	0.51	-0.750			
0.7961	50947.96	3.3880	3.3880	-0.8066	26.44	0.51	-0.750			
0.7984	51097.64	3.3850	3.3850	-0.7718	26.45	0.52	-0.750			
0.8007	51245.57	3.3820	3.3819	-0.7486	26.45	0.52	-0.750			
0.8029	51383.61	3.3790	3.3791	-0.7153	26.46	0.53	-0.750			
0.8050	51517.53	3.3760	3.3759	-0.6871	26.46	0.53	-0.750			
0.8070	51646.68	3.3730	3.3729	-0.6604	26.47	0.54	-0.750			
0.8089	51769.58	3.3700	3.3701	-0.6355	26.48	0.55	-0.750			
0.8108	51890.26	3.3670	3.3671	-0.6152	26.48	0.55	-0.750			
0.8126	52006.49	3.3640	3.3639	-0.5951	26.49	0.56	-0.750			
0.8144	52119.06	3.3610	3.3610	-0.5737	26.49	0.56	-0.750			
0.8160	52225.51	3.3580	3.3581	-0.5518	26.50	0.57	-0.750			
0.8177	52330.24	3.3550	3.3550	-0.5343	26.51	0.58	-0.750			
0.8192	52431.02	3.3520	3.3520	-0.5158	26.51	0.58	-0.750			
0.8208	52528.01	3.3490	3.3490	-0.4953	26.52	0.59	-0.750			
0.8222	52621.79	3.3460	3.3460	-0.4779	26.52	0.59	-0.750			
0.8236	52710.79	3.3430	3.3430	-0.4611	26.53	0.60	-0.750			
0.8250	52797.90	3.3400	3.3401	-0.4444	26.54	0.61	-0.750			
0.8263	52881.07	3.3370	3.3370	-0.4276	26.54	0.61	-0.750			
0.8275	52961.28	3.3340	3.3339	-0.4149	26.55	0.62	-0.750			
0.8287	53039.64	3.3310	3.3313	-0.4018	26.55	0.62	-0.750			
0.8299	53115.60	3.3280	3.3279	-0.3907	26.56	0.63	-0.750			
0.8311	53189.24	3.3250	3.3250	-0.3775	26.56	0.63	-0.750			
0.8322	53260.02	3.3220	3.3220	-0.3652	26.57	0.64	-0.750			
0.8333	53330.04	3.3190	3.3190	-0.3552	26.57	0.64	-0.750			
0.8343	53397.20	3.3160	3.3159	-0.3417	26.58	0.65	-0.750			
0.8353	53460.79	3.3130	3.3130	-0.3311	26.58	0.65	-0.750			
0.8363	53523.33	3.3100	3.3101	-0.3226	26.59	0.66	-0.750			
0.8372	53583.76	3.3070	3.3069	-0.3133	26.59	0.66	-0.750			
0.8382	53643.23	3.3040	3.3040	-0.3061	26.60	0.67	-0.750			
0.8391	53700.82	3.3010	3.3011	-0.2984	26.60	0.67	-0.750			
0.8400	53757.94	3.2980	3.2979	-0.2907	26.61	0.68	-0.750			
0.8408	53813.43	3.2950	3.2950	-0.2842	26.61	0.68	-0.750			
0.8417	53866.69	3.2920	3.2920	-0.2758	26.61	0.68	-0.750			
0.8425	53918.63	3.2890	3.2890	-0.2691	26.62	0.69	-0.750			
0.8433	53969.85	3.2860	3.2859	-0.2630	26.62	0.69	-0.750			
0.8441	54019.24	3.2830	3.2830	-0.2557	26.63	0.70	-0.750			
0.8448	54067.73	3.2800	3.2800	-0.2502	26.63	0.70	-0.750			
0.8456	54115.34	3.2770	3.2770	-0.2456	26.64	0.71	-0.750			
0.8463	54161.92	3.2740	3.2740	-0.2397	26.64	0.71	-0.750			
0.8470	54206.71	3.2710	3.2709	-0.2352	26.65	0.72	-0.750			
0.8477	54251.30	3.2680	3.2680	-0.2312	26.65	0.72	-0.750			
0.8484	54295.42	3.2650	3.2649	-0.2265	26.66	0.73	-0.750			
0.8490	54338.55	3.2620	3.2620	-0.2228	26.66	0.73	-0.750			
0.8497	54381.20	3.2590	3.2590	-0.2199	26.67	0.74	-0.750			
0.8504	54422.97	3.2560	3.2561	-0.2160	26.67	0.74	-0.750			
0.8510	54464.11	3.2530	3.2530	-0.2123	26.67	0.74	-0.750			
0.8516	54504.56	3.2500	3.2498	-0.2088	26.68	0.75	-0.750			
0.8523	54544.07	3.2470	3.2470	-0.2050	26.68	0.75	-0.750			
0.8529	54583.01	3.2440	3.2440	-0.2024	26.69	0.76	-0.750			
0.8535	54621.74	3.2410	3.2412	-0.2002	26.69	0.76	-0.750			
0.8541	54659.96	3.2380	3.2377	-0.1969	26.70	0.77	-0.750			
0.8546	54697.20	3.2350	3.2351	-0.1934	26.70	0.77	-0.750			
0.8552	54734.12	3.2320	3.2320	-0.1908	26.71	0.78	-0.750			
0.8558	54770.59	3.2290	3.2291	-0.1876	26.71	0.78	-0.750			
0.8564	54806.64	3.2260	3.2259	-0.1848	26.72	0.79	-0.750			
0.8569	54841.49	3.2230	3.2230	-0.1828	26.72	0.79	-0.750			
0.8574	54875.98	3.2200	3.2200	-0.1796	26.73	0.80	-0.750			
0.8580	54910.23	3.2170	3.2169	-0.1773	26.73	0.80	-0.750			
0.8585	54944.08	3.2140	3.2140	-0.1753	26.74	0.81	-0.750			
0.8590	54977.71	3.2110	3.2110	-0.1729	26.74	0.81	-0.750			
0.8595	55010.26	3.2080	3.2080	-0.1720	26.75	0.82	-0.750			
0.8601	55043.32	3.2050	3.2050	-0.1705	26.75	0.82	-0.750			
0.8606	55075.90	3.2020	3.2018	-0.1689	26.76	0.83	-0.750			
0.8611	55107.89	3.1990	3.1990	-0.1670	26.76	0.83	-0.750			
0.8616	55140.26	3.1960	3.1961	-0.1654	26.76	0.83	-0.750			
0.8621	55171.76	3.1930	3.1930	-0.1642	26.77	0.84	-0.750			
0.8625	55203.09	3.1900	3.1900	-0.1623	26.77	0.84	-0.750			
0.8630	55234.25	3.1870	3.1870	-0.1597	26.78	0.85	-0.750			
0.8635	55264.30	3.1840	3.1839	-0.1570	26.78	0.85	-0.750			
0.8640	55294.34	3.1810	3.1811	-0.1560	26.79	0.86	-0.750			
0.8644	55324.11	3.1780	3.1780	-0.1542	26.79	0.86	-0.750			
0.8649	55353.44	3.1750	3.1749	-0.1526	26.79	0.86	-0.750			
0.8654	55382.51	3.1720	3.1720	-0.1514	26.80	0.87	-0.750			
0.8658	55411.05	3.1690	3.1690	-0.1497	26.80	0.87	-0.750			
0.8662	55439.76	3.1660	3.1661	-0.1494	26.80	0.87	-0.750			
0.8667	55468.74	3.1630	3.1630	-0.1485	26.81	0.88	-0.750			
0.8671	55497.23	3.1600	3.1600	-0.1472	26.81	0.88	-0.750			
0.8676	55525.36	3.1570	3.1570	-0.1458	26.82	0.89	-0.750			
0.8680	55553.23	3.1540	3.1540	-0.1444	26.83	0.90	-0.750			
0.8685	55580.90	3.1510	3.1510	-0.1434	26.83	0.90	-0.750			
0.8689	55608.17	3.1480	3.1480	-0.1418	26.84	0.91	-0.750			
0.8693	55635.29	3.1450	3.1450	-0.1406	26.84	0.91	-0.750			
0.8697	55661.99	3.1420	3.1420	-0.1395	26.85	0.92	-0.750			
0.8701	55688.78	3.1390	3.1390	-0.1386	26.85	0.92	-0.750			
0.8706	55715.52	3.1360	3.1360	-0.1373	26.86	0.93	-0.750			
0.8710	55741.72	3.1330	3.1329	-0.1357	26.86	0.93	-0.750			
0.8714	55767.64	3.1300	3.1301	-0.1345	26.87	0.94	-0.750			
0.8718	55793.12	3.1270	3.1271	-0.1336	26.87	0.94	-0.750			
0.8722	55818.75	3.1240	3.1240	-0.1324	26.88	0.95	-0.750			
0.8726	55844.07	3.1210	3.1208	-0.1314	26.88	0.95	-0.750			
0.8730	55869.09	3.1180	3.1180	-0.1303	26.89	0.96	-0.750			
0.8733	55894.15	3.1150	3.1150	-0.1293	26.89	0.96	-0.750			
0.8737	55919.13	3.1120	3.1120	-0.1287	26.90	0.97	-0.750			
0.8741	55943.63	3.1090	3.1089	-0.1273	26.90	0.97	-0.750			
0.8745	55967.83	3.1060	3.1060	-0.1257	26.91	0.98	-0.750			
0.8749	55991.51	3.1030	3.1031	-0.1250	26.91	0.98	-0.750			
0.8752	56015.61	3.1000	3.1000	-0.1246	26.92	0.99	-0.750			
0.8756	56039.48	3.0970	3.0969	-0.1240	26.92	0.99	-0.750			
0.8760	56063.32	3.0940	3.0940	-0.1227	26.93	1.00	-0.750			
0.8764	56086.78	3.0910	3.0911	-0.1217	26.93	1.00	-0.750			
0.8767	56109.97	3.0880	3.0880	-0.1219	26.94	1.01	-0.750			
0.8771	56133.29	3.0850	3.0850	-0.1214	26.94	1.01	-0.750			
0.8774	56156.64	3.0820	3.0821	-0.1204	26.95	1.02	-0.750			
0.8778	56179.65	3.0790	3.0788	-0.1192	26.95	1.02	-0.750			
0.8782	56202.46	3.0760	3.0761	-0.1185	26.96	1.03	-0.750			
0.8785	56225.33	3.0730	3.0732	-0.1178	26.96	1.03	-0.750			
0.8789	56247.85	3.0700	3.0699	-0.1168	26.97	1.04	-0.750			
0.8792	56270.38	3.0670	3.0669	-0.1161	26.97	1.04	-0.750			
0.8796	56292.13	3.0640	3.0640	-0.1140	26.98	1.05	-0.750			
0.8799	56313.84	3.0610	3.0610	-0.1138	26.98	1.05	-0.750			
0.8802	56335.66	3.0580	3.0580	-0.1135	26.99	1.06	-0.750			
0.8806	56357.40	3.0550	3.0551	-0.1131	26.99	1.06	-0.750			
0.8809	56378.98	3.0520	3.0519	-0.1127	27.00	1.07	-0.750			
0.8813	56400.84	3.0490	3.0491	-0.1118	27.00	1.07	-0.750			
0.8816	56422.39	3.0460	3.0460	-0.1114	27.01	1.08	-0.750			
0.8819	56443.62	3.0430	3.0430	-0.1107	27.01	1.08	-0.750			
0.8823	56464.99	3.0400	3.0401	-0.1102	27.02	1.09	-0.750			
0.8826	56485.90	3.0370	3.0370	-0.1096	27.02	1.09	-0.750			
0.8829	56506.65	3.0340	3.0339	-0.1086	27.03	1.10	-0.750			
0.8832	56527.39	3.0310	3.0310	-0.1084	27.03	1.10	-0.750			
0.8836	56547.99	3.0280	3.0280	-0.1079	27.04	1.11	-0.750			
0.8839	56568.98	3.0250	3.0250	-0.1073	27.04	1.11	-0.750			
0.8842	56589.83	3.0220	3.0220	-0.1072	27.05	1.12	-0.750			
0.8845	56610.29	3.0190	3.0189	-0.1064	27.05	1.12	-0.750			
0.8849	56630.69	3.0160	3.0160	-0.1057	27.06	1.13	-0.750			
0.8852	56650.89	3.0130	3.0131	-0.1048	27.06	1.13	-0.750			
0.8855	56670.96	3.0100	3.0099	-0.1038	27.07	1.14	-0.750			
0.8858	56690.79	3.0070	3.0071	-0.1028	27.07	1.14	-0.751			
0.8861	56710.44	3.0040	3.0040	-0.1047	27.07	1.14	-0.751			
