Ah_balance (normalized)	Ah_balance (mAh)	Voltage - fit (V)	Voltage -  interpolate (V)	dQ/dV (1/V)	Temperature (°C)	Temperature - diff (°C)	Current (C)	R_DC 0ms (mOhm)	R_DC 50ms (mOhm)	R_DC 50 ms PEC (mOhm)
0.0002	12.55	4.1570	4.1565	-0.0930	25.33	0.01	-0.750			
0.0005	33.86	4.1540	4.1538	-0.1290	25.33	0.01	-0.750			
0.0010	62.34	4.1510	4.1509	-0.1646	25.33	0.01	-0.750			
0.0015	97.59	4.1480	4.1480	-0.1994	25.33	0.01	-0.750			
0.0022	139.27	4.1450	4.1451	-0.2334	25.32	0.00	-0.750			
0.0029	187.45	4.1420	4.1420	-0.2665	25.32	0.00	-0.750			
0.0038	242.47	4.1390	4.1390	-0.2986	25.32	0.00	-0.750			
0.0047	303.78	4.1360	4.1359	-0.3266	25.32	-0.00	-0.750			
0.0058	369.69	4.1330	4.1330	-0.3555	25.32	-0.00	-0.750			
0.0069	440.57	4.1300	4.1301	-0.3835	25.31	-0.01	-0.750			
0.0081	517.28	4.1270	4.1269	-0.4078	25.31	-0.01	-0.750			
0.0094	598.46	4.1240	4.1240	-0.4319	25.31	-0.01	-0.750			
0.0107	683.41	4.1210	4.1210	-0.4556	25.30	-0.02	-0.750			
0.0121	773.48	4.1180	4.1181	-0.4770	25.30	-0.02	-0.750			
0.0136	868.42	4.1150	4.1149	-0.4987	25.30	-0.02	-0.750			
0.0151	965.64	4.1120	4.1119	-0.5153	25.29	-0.03	-0.750			
0.0167	1066.98	4.1090	4.1093	-0.5309	25.29	-0.03	-0.750			
0.0183	1171.20	4.1060	4.1060	-0.5461	25.29	-0.03	-0.750			
0.0200	1278.43	4.1030	4.1030	-0.5583	25.29	-0.03	-0.750			
0.0217	1386.54	4.1000	4.1000	-0.5689	25.29	-0.03	-0.750			
0.0234	1497.16	4.0970	4.0970	-0.5806	25.28	-0.04	-0.750			
0.0252	1609.97	4.0940	4.0940	-0.5870	25.28	-0.04	-0.750			
0.0269	1723.41	4.0910	4.0910	-0.5975	25.28	-0.04	-0.750			
0.0287	1839.22	4.0880	4.0882	-0.6047	25.28	-0.04	-0.750			
0.0306	1956.33	4.0850	4.0849	-0.6106	25.28	-0.04	-0.750			
0.0324	2073.82	4.0820	4.0820	-0.6178	25.28	-0.04	-0.750			
0.0342	2191.79	4.0790	4.0791	-0.6250	25.28	-0.04	-0.750			
0.0361	2312.90	4.0760	4.0760	-0.6326	25.28	-0.04	-0.750			
0.0381	2437.00	4.0730	4.0730	-0.6398	25.28	-0.04	-0.750			
0.0400	2559.63	4.0700	4.0700	-0.6436	25.28	-0.04	-0.750			
0.0419	2684.67	4.0670	4.0671	-0.6488	25.28	-0.04	-0.750			
0.0439	2809.55	4.0640	4.0639	-0.6520	25.28	-0.04	-0.750			
0.0459	2934.66	4.0610	4.0610	-0.6533	25.28	-0.04	-0.750			
0.0478	3060.04	4.0580	4.0580	-0.6590	25.28	-0.04	-0.750			
0.0498	3187.75	4.0550	4.0550	-0.6638	25.28	-0.04	-0.750			
0.0518	3315.25	4.0520	4.0521	-0.6685	25.28	-0.04	-0.750			
0.0538	3443.99	4.0490	4.0490	-0.6708	25.28	-0.04	-0.750			
0.0558	3573.61	4.0460	4.0460	-0.6753	25.28	-0.04	-0.750			
0.0579	3703.51	4.0430	4.0430	-0.6767	25.29	-0.03	-0.750			
0.0599	3833.11	4.0400	4.0400	-0.6821	25.29	-0.03	-0.750			
0.0619	3964.46	4.0370	4.0371	-0.6836	25.29	-0.03	-0.750			
0.0640	4097.14	4.0340	4.0339	-0.6858	25.30	-0.02	-0.750			
0.0661	4228.65	4.0310	4.0310	-0.6858	25.30	-0.02	-0.750			
0.0681	4361.16	4.0280	4.0281	-0.6874	25.30	-0.02	-0.750			
0.0702	4493.45	4.0250	4.0249	-0.6822	25.30	-0.02	-0.750			
0.0722	4623.51	4.0220	4.0220	-0.6865	25.30	-0.02	-0.750			
0.0743	4753.86	4.0190	4.0191	-0.6895	25.30	-0.02	-0.750			
0.0764	4887.04	4.0160	4.0160	-0.6942	25.30	-0.02	-0.750			
0.0785	5021.08	4.0130	4.0130	-0.6982	25.30	-0.02	-0.750			
0.0805	5154.99	4.0100	4.0100	-0.7033	25.30	-0.02	-0.750			
0.0827	5291.52	4.0070	4.0070	-0.7066	25.31	-0.01	-0.750			
0.0848	5428.75	4.0040	4.0040	-0.7165	25.31	-0.01	-0.750			
0.0870	5565.92	4.0010	4.0009	-0.7117	25.31	-0.01	-0.750			
0.0891	5703.30	3.9980	3.9980	-0.7136	25.32	-0.00	-0.750			
0.0913	5841.78	3.9950	3.9952	-0.7117	25.32	-0.00	-0.750			
0.0934	5977.46	3.9920	3.9919	-0.7117	25.32	0.00	-0.750			
0.0955	6112.57	3.9890	3.9890	-0.7116	25.32	0.00	-0.750			
0.0976	6247.97	3.9860	3.9860	-0.7162	25.32	0.00	-0.750			
0.0998	6385.60	3.9830	3.9829	-0.7169	25.32	0.00	-0.750			
0.1020	6527.00	3.9800	3.9800	-0.7257	25.32	0.00	-0.750			
0.1042	6666.12	3.9770	3.9772	-0.7263	25.32	0.00	-0.750			
0.1064	6807.17	3.9740	3.9739	-0.7293	25.32	0.00	-0.750			
0.1085	6945.42	3.9710	3.9711	-0.7314	25.33	0.01	-0.750			
0.1107	7084.90	3.9680	3.9680	-0.7304	25.33	0.01	-0.750			
0.1129	7226.10	3.9650	3.9650	-0.7375	25.33	0.01	-0.750			
0.1151	7368.68	3.9620	3.9620	-0.7376	25.34	0.02	-0.750			
0.1173	7510.02	3.9590	3.9590	-0.7408	25.34	0.02	-0.750			
0.1196	7652.51	3.9560	3.9560	-0.7420	25.34	0.02	-0.750			
0.1218	7794.96	3.9530	3.9530	-0.7470	25.34	0.02	-0.750			
0.1240	7938.52	3.9500	3.9500	-0.7477	25.35	0.03	-0.750			
0.1263	8083.94	3.9470	3.9469	-0.7506	25.35	0.03	-0.750			
0.1286	8227.80	3.9440	3.9439	-0.7477	25.35	0.03	-0.750			
0.1308	8372.04	3.9410	3.9410	-0.7509	25.35	0.03	-0.750			
0.1331	8515.43	3.9380	3.9380	-0.7476	25.35	0.03	-0.750			
0.1353	8658.22	3.9350	3.9350	-0.7511	25.35	0.03	-0.750			
0.1375	8801.33	3.9320	3.9320	-0.7490	25.36	0.04	-0.750			
0.1398	8947.84	3.9290	3.9290	-0.7529	25.36	0.04	-0.750			
0.1421	9092.27	3.9260	3.9261	-0.7529	25.36	0.04	-0.750			
0.1443	9236.50	3.9230	3.9229	-0.7575	25.36	0.04	-0.750			
0.1466	9381.47	3.9200	3.9200	-0.7600	25.36	0.04	-0.750			
0.1489	9527.35	3.9170	3.9169	-0.7639	25.36	0.04	-0.750			
0.1512	9675.39	3.9140	3.9140	-0.7694	25.36	0.04	-0.750			
0.1535	9824.37	3.9110	3.9109	-0.7723	25.36	0.04	-0.750			
0.1558	9973.79	3.9080	3.9079	-0.7743	25.36	0.04	-0.750			
0.1582	10121.61	3.9050	3.9051	-0.7752	25.37	0.05	-0.750			
0.1605	10269.57	3.9020	3.9020	-0.7714	25.37	0.05	-0.750			
0.1628	10417.96	3.8990	3.8990	-0.7748	25.37	0.05	-0.750			
0.1651	10567.07	3.8960	3.8959	-0.7746	25.38	0.06	-0.750			
0.1674	10715.85	3.8930	3.8931	-0.7746	25.38	0.06	-0.750			
0.1698	10865.50	3.8900	3.8900	-0.7755	25.38	0.06	-0.750			
0.1721	11014.13	3.8870	3.8870	-0.7746	25.38	0.06	-0.750			
0.1744	11161.34	3.8840	3.8840	-0.7746	25.39	0.07	-0.750			
0.1767	11311.24	3.8810	3.8810	-0.7776	25.39	0.07	-0.750			
0.1791	11460.30	3.8780	3.8781	-0.7766	25.39	0.07	-0.750			
0.1814	11610.11	3.8750	3.8750	-0.7787	25.39	0.07	-0.750			
0.1838	11760.60	3.8720	3.8721	-0.7779	25.39	0.07	-0.750			
0.1861	11909.80	3.8690	3.8690	-0.7769	25.40	0.08	-0.750			
0.1884	12058.13	3.8660	3.8660	-0.7760	25.40	0.08	-0.750			
0.1907	12206.33	3.8630	3.8630	-0.7759	25.40	0.08	-0.750			
0.1931	12355.72	3.8600	3.8600	-0.7764	25.40	0.08	-0.750			
0.1954	12503.37	3.8570	3.8570	-0.7801	25.40	0.08	-0.750			
0.1977	12654.86	3.8540	3.8540	-0.7769	25.40	0.08	-0.750			
0.2001	12804.49	3.8510	3.8510	-0.7781	25.40	0.08	-0.750			
0.2024	12953.89	3.8480	3.8479	-0.7739	25.40	0.08	-0.750			
0.2047	13102.27	3.8450	3.8451	-0.7705	25.40	0.08	-0.750			
0.2070	13250.18	3.8420	3.8420	-0.7673	25.40	0.08	-0.750			
0.2093	13396.84	3.8390	3.8390	-0.7676	25.41	0.09	-0.750			
0.2116	13542.15	3.8360	3.8360	-0.7614	25.41	0.09	-0.750			
0.2139	13691.34	3.8330	3.8329	-0.7663	25.42	0.10	-0.750			
0.2162	13837.29	3.8300	3.8300	-0.7612	25.42	0.10	-0.750			
0.2185	13984.20	3.8270	3.8270	-0.7583	25.42	0.10	-0.750			
0.2208	14128.78	3.8240	3.8241	-0.7559	25.42	0.10	-0.750			
0.2230	14273.20	3.8210	3.8210	-0.7513	25.43	0.11	-0.750			
0.2253	14416.44	3.8180	3.8179	-0.7478	25.43	0.11	-0.750			
0.2275	14560.41	3.8150	3.8150	-0.7464	25.43	0.11	-0.750			
0.2297	14703.61	3.8120	3.8121	-0.7423	25.43	0.11	-0.750			
0.2320	14846.95	3.8090	3.8090	-0.7393	25.43	0.11	-0.750			
0.2342	14988.44	3.8060	3.8060	-0.7376	25.43	0.11	-0.750			
0.2364	15129.43	3.8030	3.8030	-0.7300	25.44	0.12	-0.750			
0.2386	15270.30	3.8000	3.7999	-0.7243	25.44	0.12	-0.750			
0.2408	15408.13	3.7970	3.7969	-0.7186	25.44	0.12	-0.750			
0.2429	15545.26	3.7940	3.7940	-0.7146	25.44	0.12	-0.750			
0.2450	15681.38	3.7910	3.7909	-0.7155	25.44	0.12	-0.750			
0.2472	15818.01	3.7880	3.7879	-0.7139	25.44	0.12	-0.750			
0.2493	15954.28	3.7850	3.7850	-0.7109	25.44	0.12	-0.750			
0.2515	16094.17	3.7820	3.7820	-0.7142	25.44	0.12	-0.750			
0.2536	16231.21	3.7790	3.7791	-0.7095	25.44	0.12	-0.750			
0.2557	16366.33	3.7760	3.7759	-0.7084	25.44	0.12	-0.750			
0.2578	16500.70	3.7730	3.7730	-0.7042	25.45	0.13	-0.750			
0.2599	16635.33	3.7700	3.7700	-0.7052	25.45	0.13	-0.750			
0.2620	16770.25	3.7670	3.7670	-0.7082	25.45	0.13	-0.750			
0.2642	16907.45	3.7640	3.7640	-0.7130	25.46	0.14	-0.750			
0.2663	17045.09	3.7610	3.7611	-0.7134	25.46	0.14	-0.750			
0.2685	17181.68	3.7580	3.7579	-0.7188	25.46	0.14	-0.750			
0.2706	17319.49	3.7550	3.7550	-0.7220	25.46	0.14	-0.750			
0.2728	17458.66	3.7520	3.7520	-0.7278	25.46	0.14	-0.750			
0.2750	17598.30	3.7490	3.7491	-0.7344	25.46	0.14	-0.750			
0.2772	17740.14	3.7460	3.7460	-0.7434	25.46	0.14	-0.750			
0.2794	17883.96	3.7430	3.7430	-0.7522	25.46	0.14	-0.750			
0.2817	18029.78	3.7400	3.7400	-0.7608	25.46	0.14	-0.750			
0.2840	18175.81	3.7370	3.7370	-0.7693	25.46	0.14	-0.750			
0.2863	18325.78	3.7340	3.7340	-0.7776	25.46	0.14	-0.750			
0.2887	18476.27	3.7310	3.7310	-0.7841	25.46	0.14	-0.750			
0.2910	18626.93	3.7280	3.7280	-0.7884	25.46	0.14	-0.750			
0.2934	18777.25	3.7250	3.7250	-0.7999	25.46	0.14	-0.750			
0.2958	18931.01	3.7220	3.7220	-0.8164	25.46	0.14	-0.750			
0.2982	19087.48	3.7190	3.7190	-0.8316	25.46	0.14	-0.750			
0.3008	19249.40	3.7160	3.7160	-0.8456	25.46	0.14	-0.750			
0.3034	19416.07	3.7130	3.7130	-0.8644	25.46	0.14	-0.750			
0.3060	19582.69	3.7100	3.7100	-0.8822	25.46	0.14	-0.750			
0.3087	19753.90	3.7070	3.7070	-0.8968	25.46	0.14	-0.750			
0.3114	19926.43	3.7040	3.7040	-0.9105	25.46	0.14	-0.750			
0.3141	20101.93	3.7010	3.7009	-0.9243	25.46	0.14	-0.750			
0.3169	20282.75	3.6980	3.6981	-0.9382	25.46	0.14	-0.750			
0.3198	20464.62	3.6950	3.6950	-0.9582	25.46	0.14	-0.750			
0.3227	20651.38	3.6920	3.6920	-0.9670	25.45	0.13	-0.750			
0.3256	20835.95	3.6890	3.6889	-0.9818	25.45	0.13	-0.750			
0.3285	21025.34	3.6860	3.6861	-0.9989	25.44	0.12	-0.750			
0.3315	21218.09	3.6830	3.6829	-1.0179	25.44	0.12	-0.750			
0.3346	21415.49	3.6800	3.6800	-1.0375	25.43	0.11	-0.750			
0.3378	21616.97	3.6770	3.6770	-1.0565	25.43	0.11	-0.750			
0.3409	21819.71	3.6740	3.6740	-1.0724	25.42	0.10	-0.750			
0.3442	22030.91	3.6710	3.6710	-1.1034	25.42	0.10	-0.750			
0.3475	22242.39	3.6680	3.6680	-1.1216	25.41	0.09	-0.750			
0.3510	22461.21	3.6650	3.6649	-1.1401	25.41	0.09	-0.750			
0.3544	22681.45	3.6620	3.6621	-1.1631	25.40	0.08	-0.750			
0.3579	22908.23	3.6590	3.6590	-1.1818	25.39	0.07	-0.750			
0.3615	23136.74	3.6560	3.6561	-1.1998	25.39	0.07	-0.750			
0.3651	23367.82	3.6530	3.6530	-1.2216	25.38	0.06	-0.750			
0.3688	23604.56	3.6500	3.6499	-1.2413	25.38	0.06	-0.750			
0.3726	23845.91	3.6470	3.6470	-1.2581	25.38	0.06	-0.750			
0.3764	24087.83	3.6440	3.6441	-1.2865	25.37	0.05	-0.750			
0.3802	24334.93	3.6410	3.6411	-1.3077	25.37	0.05	-0.750			
0.3842	24591.06	3.6380	3.6380	-1.3309	25.37	0.05	-0.750			
0.3883	24849.28	3.6350	3.6349	-1.3436	25.36	0.04	-0.750			
0.3923	25109.18	3.6320	3.6322	-1.3642	25.36	0.04	-0.750			
0.3965	25372.93	3.6290	3.6290	-1.3981	25.35	0.03	-0.750			
0.4007	25644.00	3.6260	3.6259	-1.4218	25.35	0.03	-0.750			
0.4049	25914.68	3.6230	3.6230	-1.4543	25.34	0.02	-0.750			
0.4094	26198.86	3.6200	3.6201	-1.4824	25.34	0.02	-0.750			
0.4139	26488.71	3.6170	3.6170	-1.5090	25.33	0.01	-0.750			
0.4184	26780.50	3.6140	3.6140	-1.5482	25.33	0.01	-0.750			
0.4231	27080.10	3.6110	3.6112	-1.5702	25.32	0.00	-0.750	0.395	0.565	
0.4278	27382.17	3.6080	3.6079	-1.5943	25.32	0.00	-0.750			
0.4327	27692.97	3.6050	3.6050	-1.6294	25.31	-0.01	-0.750			
0.4377	28010.80	3.6020	3.6018	-1.6571	25.31	-0.01	-0.750			
0.4427	28334.49	3.5990	3.5990	-1.6933	25.30	-0.02	-0.750			
0.4478	28656.92	3.5960	3.5964	-1.7212	25.30	-0.02	-0.750			
0.4530	28989.08	3.5930	3.5929	-1.7473	25.30	-0.02	-0.750			
0.4583	29328.27	3.5900	3.5900	-1.7949	25.30	-0.02	-0.750			
0.4637	29679.68	3.5870	3.5868	-1.8254	25.29	-0.03	-0.750			
0.4694	30040.59	3.5840	3.5838	-1.8707	25.29	-0.03	-0.750			
0.4750	30402.53	3.5810	3.5812	-1.8934	25.28	-0.04	-0.750			
0.4807	30767.26	3.5780	3.5779	-1.9207	25.28	-0.04	-0.750			
0.4866	31141.48	3.5750	3.5752	-1.9329	25.28	-0.04	-0.750			
0.4923	31509.90	3.5720	3.5720	-1.9750	25.28	-0.04	-0.750			
0.4983	31892.42	3.5690	3.5689	-2.0019	25.28	-0.04	-0.750			
0.5045	32290.82	3.5660	3.5661	-2.0187	25.28	-0.04	-0.750			
0.5105	32673.33	3.5630	3.5633	-2.0376	25.28	-0.04	-0.750			
0.5167	33071.47	3.5600	3.5602	-2.0351	25.28	-0.04	-0.750			
0.5230	33471.07	3.5570	3.5571	-2.0288	25.28	-0.04	-0.750			
0.5290	33855.69	3.5540	3.5541	-2.0450	25.28	-0.04	-0.750			
0.5351	34245.76	3.5510	3.5507	-2.0381	25.29	-0.03	-0.750			
0.5413	34642.66	3.5480	3.5480	-2.0388	25.30	-0.02	-0.750			
0.5474	35036.26	3.5450	3.5451	-2.0649	25.30	-0.02	-0.750			
0.5536	35429.44	3.5420	3.5420	-2.0457	25.30	-0.02	-0.750			
0.5598	35827.60	3.5390	3.5391	-2.0350	25.30	-0.02	-0.750			
0.5660	36226.61	3.5360	3.5361	-2.0199	25.30	-0.02	-0.750			
0.5720	36608.28	3.5330	3.5328	-1.9921	25.31	-0.01	-0.750			
0.5780	36994.83	3.5300	3.5302	-1.9826	25.32	-0.00	-0.750			
0.5839	37370.52	3.5270	3.5271	-1.9393	25.32	0.00	-0.750			
0.5897	37739.05	3.5240	3.5241	-1.9039	25.32	0.00	-0.750			
0.5954	38104.48	3.5210	3.5208	-1.8618	25.33	0.01	-0.750			
0.6009	38459.59	3.5180	3.5178	-1.8302	25.33	0.01	-0.750			
0.6064	38809.80	3.5150	3.5153	-1.7940	25.34	0.02	-0.750			
0.6117	39150.41	3.5120	3.5120	-1.7719	25.35	0.03	-0.750			
0.6171	39491.55	3.5090	3.5091	-1.7186	25.36	0.04	-0.750			
0.6222	39817.67	3.5060	3.5061	-1.6734	25.37	0.05	-0.750			
0.6271	40136.13	3.5030	3.5031	-1.6288	25.38	0.06	-0.750			
0.6320	40450.88	3.5000	3.4998	-1.5819	25.39	0.07	-0.750			
0.6367	40748.94	3.4970	3.4971	-1.5329	25.40	0.08	-0.750			
0.6412	41035.36	3.4940	3.4940	-1.4884	25.42	0.10	-0.750			
0.6456	41318.47	3.4910	3.4909	-1.4465	25.43	0.11	-0.750			
0.6499	41593.79	3.4880	3.4879	-1.4066	25.45	0.13	-0.750			
0.6540	41854.97	3.4850	3.4854	-1.3659	25.46	0.14	-0.750			
0.6581	42117.50	3.4820	3.4819	-1.3296	25.47	0.15	-0.750			
0.6620	42369.72	3.4790	3.4788	-1.2915	25.49	0.17	-0.750			
0.6658	42611.86	3.4760	3.4762	-1.2525	25.50	0.18	-0.750			
0.6696	42851.49	3.4730	3.4729	-1.2208	25.51	0.19	-0.750			
0.6731	43080.06	3.4700	3.4700	-1.1816	25.52	0.20	-0.750			
0.6766	43302.03	3.4670	3.4670	-1.1402	25.53	0.21	-0.750			
0.6799	43515.88	3.4640	3.4640	-1.1010	25.54	0.22	-0.750			
0.6832	43726.87	3.4610	3.4610	-1.0707	25.55	0.23	-0.750			
0.6864	43927.81	3.4580	3.4580	-1.0319	25.56	0.24	-0.750			
0.6894	44121.36	3.4550	3.4548	-0.9971	25.57	0.25	-0.750			
0.6923	44309.83	3.4520	3.4522	-0.9674	25.58	0.26	-0.750			
0.6952	44490.18	3.4490	3.4490	-0.9422	25.60	0.28	-0.750			
0.6979	44668.30	3.4460	3.4460	-0.9212	25.61	0.29	-0.750			
0.7007	44843.46	3.4430	3.4429	-0.8985	25.62	0.30	-0.750			
0.7033	45011.83	3.4400	3.4400	-0.8809	25.64	0.32	-0.750			
0.7059	45179.37	3.4370	3.4370	-0.8667	25.65	0.33	-0.750			
0.7085	45343.26	3.4340	3.4339	-0.8548	25.66	0.34	-0.750			
0.7110	45504.62	3.4310	3.4310	-0.8425	25.67	0.35	-0.750			
0.7135	45664.07	3.4280	3.4280	-0.8382	25.68	0.36	-0.750			
0.7160	45824.63	3.4250	3.4250	-0.8396	25.69	0.37	-0.750			
0.7185	45985.22	3.4220	3.4220	-0.8479	25.70	0.38	-0.750			
0.7211	46147.28	3.4190	3.4190	-0.8470	25.70	0.38	-0.750			
0.7236	46311.86	3.4160	3.4159	-0.8519	25.71	0.39	-0.750			
0.7262	46476.22	3.4130	3.4130	-0.8556	25.72	0.40	-0.750			
0.7288	46642.01	3.4100	3.4101	-0.8593	25.73	0.41	-0.750			
0.7314	46807.07	3.4070	3.4069	-0.8572	25.74	0.42	-0.750			
0.7339	46972.52	3.4040	3.4039	-0.8577	25.75	0.43	-0.750			
0.7365	47138.96	3.4010	3.4010	-0.8468	25.76	0.44	-0.750			
0.7391	47303.82	3.3980	3.3979	-0.8398	25.77	0.45	-0.750			
0.7416	47462.70	3.3950	3.3954	-0.8234	25.78	0.46	-0.750			
0.7440	47619.10	3.3920	3.3919	-0.8039	25.79	0.47	-0.750			
0.7464	47771.01	3.3890	3.3889	-0.7844	25.79	0.47	-0.750			
0.7488	47920.22	3.3860	3.3860	-0.7660	25.80	0.48	-0.750			
0.7510	48066.16	3.3830	3.3830	-0.7501	25.80	0.48	-0.750			
0.7533	48208.24	3.3800	3.3800	-0.7291	25.81	0.49	-0.750			
0.7554	48345.99	3.3770	3.3770	-0.7087	25.81	0.49	-0.750			
0.7575	48479.20	3.3740	3.3740	-0.6880	25.82	0.50	-0.750			
0.7595	48610.69	3.3710	3.3711	-0.6682	25.83	0.51	-0.750			
0.7615	48737.75	3.3680	3.3679	-0.6496	25.83	0.51	-0.750			
0.7635	48860.99	3.3650	3.3650	-0.6270	25.84	0.52	-0.750			
0.7653	48979.23	3.3620	3.3619	-0.6068	25.85	0.53	-0.750			
0.7671	49093.16	3.3590	3.3591	-0.5862	25.85	0.53	-0.750			
0.7688	49203.28	3.3560	3.3559	-0.5656	25.86	0.54	-0.750			
0.7705	49309.30	3.3530	3.3530	-0.5489	25.86	0.54	-0.750			
0.7721	49411.71	3.3500	3.3500	-0.5288	25.87	0.55	-0.750			
0.7736	49513.44	3.3470	3.3470	-0.5216	25.87	0.55	-0.750			
0.7752	49612.45	3.3440	3.3439	-0.5057	25.88	0.56	-0.750			
0.7767	49708.10	3.3410	3.3410	-0.4882	25.88	0.56	-0.750			
0.7781	49800.15	3.3380	3.3380	-0.4735	25.89	0.57	-0.750			
0.7795	49889.48	3.3350	3.3351	-0.4601	25.89	0.57	-0.750			
0.7809	49975.39	3.3320	3.3320	-0.4462	25.90	0.58	-0.750			
0.7822	50059.82	3.3290	3.3289	-0.4360	25.90	0.58	-0.750			
0.7835	50142.12	3.3260	3.3260	-0.4226	25.91	0.59	-0.750			
0.7847	50223.21	3.3230	3.3230	-0.4143	25.92	0.60	-0.750			
0.7860	50302.33	3.3200	3.3200	-0.4044	25.92	0.60	-0.750			
0.7872	50378.29	3.3170	3.3170	-0.3921	25.93	0.61	-0.750			
0.7883	50451.69	3.3140	3.3140	-0.3808	25.93	0.61	-0.750			
0.7894	50523.46	3.3110	3.3110	-0.3724	25.94	0.62	-0.750			
0.7905	50593.86	3.3080	3.3080	-0.3638	25.94	0.62	-0.750			
0.7916	50663.30	3.3050	3.3050	-0.3572	25.95	0.63	-0.750			
0.7927	50731.43	3.3020	3.3020	-0.3486	25.96	0.64	-0.750			
0.7937	50797.55	3.2990	3.2991	-0.3417	25.96	0.64	-0.750			
0.7947	50862.49	3.2960	3.2960	-0.3342	25.97	0.65	-0.750			
0.7957	50925.59	3.2930	3.2930	-0.3268	25.97	0.65	-0.750			
0.7967	50987.54	3.2900	3.2900	-0.3198	25.97	0.65	-0.750			
0.7976	51048.46	3.2870	3.2870	-0.3125	25.98	0.66	-0.750			
0.7986	51107.56	3.2840	3.2840	-0.3051	25.98	0.66	-0.750			
0.7995	51165.59	3.2810	3.2810	-0.2998	25.99	0.67	-0.750			
0.8003	51221.75	3.2780	3.2780	-0.2933	25.99	0.67	-0.750			
0.8012	51277.55	3.2750	3.2749	-0.2899	26.00	0.68	-0.750			
0.8021	51332.83	3.2720	3.2720	-0.2844	26.00	0.68	-0.750			
0.8029	51387.41	3.2690	3.2689	-0.2797	26.00	0.68	-0.750			
0.8038	51441.30	3.2660	3.2660	-0.2753	26.01	0.69	-0.750			
0.8046	51493.56	3.2630	3.2630	-0.2705	26.01	0.69	-0.750			
0.8054	51544.41	3.2600	3.2599	-0.2656	26.02	0.70	-0.750			
0.8062	51594.73	3.2570	3.2570	-0.2621	26.02	0.70	-0.750			
0.8069	51643.31	3.2540	3.2540	-0.2579	26.03	0.71	-0.750			
0.8077	51693.38	3.2510	3.2509	-0.2556	26.03	0.71	-0.750			
0.8085	51742.86	3.2480	3.2480	-0.2517	26.04	0.72	-0.750			
0.8092	51791.11	3.2450	3.2450	-0.2474	26.04	0.72	-0.750			
0.8100	51838.07	3.2420	3.2420	-0.2419	26.05	0.73	-0.750			
0.8107	51883.76	3.2390	3.2391	-0.2388	26.05	0.73	-0.750			
0.8114	51929.00	3.2360	3.2360	-0.2346	26.06	0.74	-0.750			
0.8121	51973.08	3.2330	3.2329	-0.2311	26.06	0.74	-0.750			
0.8128	52017.25	3.2300	3.2300	-0.2290	26.07	0.75	-0.750			
0.8135	52060.90	3.2270	3.2271	-0.2267	26.07	0.75	-0.750			
0.8141	52104.34	3.2240	3.2239	-0.2252	26.07	0.75	-0.750			
0.8148	52147.75	3.2210	3.2210	-0.2225	26.08	0.76	-0.750			
0.8155	52190.18	3.2180	3.2180	-0.2195	26.08	0.76	-0.750			
0.8161	52231.90	3.2150	3.2150	-0.2164	26.09	0.77	-0.750			
0.8168	52273.77	3.2120	3.2121	-0.2133	26.09	0.77	-0.750			
0.8174	52313.85	3.2090	3.2089	-0.2100	26.10	0.78	-0.750			
0.8180	52353.89	3.2060	3.2060	-0.2071	26.10	0.78	-0.750			
0.8186	52393.20	3.2030	3.2030	-0.2047	26.11	0.79	-0.750			
0.8192	52431.94	3.2000	3.1999	-0.2021	26.12	0.80	-0.750			
0.8199	52470.72	3.1970	3.1971	-0.2007	26.12	0.80	-0.750			
0.8205	52509.07	3.1940	3.1940	-0.1988	26.13	0.81	-0.750			
0.8210	52547.00	3.1910	3.1910	-0.1967	26.13	0.81	-0.750			
0.8216	52585.00	3.1880	3.1880	-0.1944	26.14	0.82	-0.750			
0.8222	52621.77	3.1850	3.1849	-0.1916	26.15	0.83	-0.750			
0.8228	52658.33	3.1820	3.1821	-0.1893	26.15	0.83	-0.750			
0.8234	52694.51	3.1790	3.1790	-0.1873	26.16	0.84	-0.750			
0.8239	52730.16	3.1760	3.1759	-0.1853	26.16	0.84	-0.750			
0.8245	52765.43	3.1730	3.1731	-0.1829	26.17	0.85	-0.750			
0.8250	52800.34	3.1700	3.1700	-0.1814	26.17	0.85	-0.750			
0.8255	52834.97	3.1670	3.1670	-0.1797	26.18	0.86	-0.750			
0.8261	52869.53	3.1640	3.1640	-0.1778	26.18	0.86	-0.750			
0.8266	52903.34	3.1610	3.1610	-0.1757	26.19	0.87	-0.750			
0.8271	52936.82	3.1580	3.1581	-0.1744	26.19	0.87	-0.750			
0.8277	52970.23	3.1550	3.1550	-0.1724	26.20	0.88	-0.750			
0.8282	53003.16	3.1520	3.1519	-0.1706	26.20	0.88	-0.750			
0.8287	53035.70	3.1490	3.1490	-0.1693	26.21	0.89	-0.750			
0.8292	53067.91	3.1460	3.1461	-0.1678	26.21	0.89	-0.750			
0.8297	53100.14	3.1430	3.1430	-0.1662	26.22	0.90	-0.750			
0.8302	53132.07	3.1400	3.1399	-0.1648	26.22	0.90	-0.750			
0.8307	53163.49	3.1370	3.1370	-0.1632	26.23	0.91	-0.750			
0.8312	53194.59	3.1340	3.1341	-0.1615	26.23	0.91	-0.750			
0.8317	53225.66	3.1310	3.1309	-0.1605	26.24	0.92	-0.750			
0.8321	53256.29	3.1280	3.1280	-0.1586	26.25	0.93	-0.750			
0.8326	53286.36	3.1250	3.1250	-0.1569	26.25	0.93	-0.750			
0.8331	53316.22	3.1220	3.1221	-0.1556	26.26	0.94	-0.750			
0.8335	53346.15	3.1190	3.1190	-0.1545	26.26	0.94	-0.750			
0.8340	53375.68	3.1160	3.1159	-0.1530	26.27	0.95	-0.750			
0.8344	53404.79	3.1130	3.1130	-0.1520	26.27	0.95	-0.750			
0.8349	53433.90	3.1100	3.1100	-0.1507	26.28	0.96	-0.750			
0.8354	53462.75	3.1070	3.1069	-0.1496	26.28	0.96	-0.750			
0.8358	53491.36	3.1040	3.1041	-0.1484	26.29	0.97	-0.750			
0.8362	53519.86	3.1010	3.1010	-0.1466	26.29	0.97	-0.750			
0.8367	53547.66	3.0980	3.0981	-0.1456	26.30	0.98	-0.750			
0.8371	53575.53	3.0950	3.0950	-0.1445	26.30	0.98	-0.750			
0.8376	53603.20	3.0920	3.0920	-0.1430	26.31	0.99	-0.750			
0.8380	53630.35	3.0890	3.0889	-0.1417	26.31	0.99	-0.750			
0.8384	53657.54	3.0860	3.0860	-0.1407	26.32	1.00	-0.750			
0.8388	53684.45	3.0830	3.0831	-0.1396	26.32	1.00	-0.750			
0.8392	53711.11	3.0800	3.0799	-0.1385	26.33	1.01	-0.750			
0.8397	53737.66	3.0770	3.0770	-0.1379	26.33	1.01	-0.750			
0.8401	53763.73	3.0740	3.0739	-0.1364	26.33	1.01	-0.750			
0.8405	53790.00	3.0710	3.0711	-0.1351	26.34	1.02	-0.750			
0.8409	53815.97	3.0680	3.0680	-0.1345	26.34	1.02	-0.750			
0.8413	53841.55	3.0650	3.0649	-0.1335	26.35	1.03	-0.750			
0.8417	53867.11	3.0620	3.0621	-0.1327	26.35	1.03	-0.750			
0.8421	53892.56	3.0590	3.0589	-0.1317	26.36	1.04	-0.750			
0.8425	53917.71	3.0560	3.0560	-0.1307	26.36	1.04	-0.750			
0.8429	53942.70	3.0530	3.0532	-0.1298	26.37	1.05	-0.750			
0.8432	53967.54	3.0500	3.0500	-0.1290	26.37	1.05	-0.750			
0.8436	53992.44	3.0470	3.0470	-0.1283	26.38	1.06	-0.750			
0.8440	54016.82	3.0440	3.0440	-0.1271	26.39	1.07	-0.750			
0.8444	54041.08	3.0410	3.0411	-0.1266	26.39	1.07	-0.750			
0.8448	54065.40	3.0380	3.0379	-0.1254	26.40	1.08	-0.750			
0.8451	54089.40	3.0350	3.0351	-0.1246	26.40	1.08	-0.750			
0.8455	54113.25	3.0320	3.0320	-0.1240	26.41	1.09	-0.750			
0.8459	54136.98	3.0290	3.0291	-0.1232	26.41	1.09	-0.750			
0.8463	54160.53	3.0260	3.0259	-0.1224	26.42	1.10	-0.750			
0.8466	54183.91	3.0230	3.0229	-0.1215	26.43	1.11	-0.750			
0.8470	54207.11	3.0200	3.0200	-0.1210	26.43	1.11	-0.750			
0.8473	54230.13	3.0170	3.0170	-0.1203	26.44	1.12	-0.750			
0.8477	54253.23	3.0140	3.0140	-0.1200	26.44	1.12	-0.750			
0.8481	54276.37	3.0110	3.0109	-0.1197	26.45	1.13	-0.750			
0.8484	54299.30	3.0080	3.0081	-0.1191	26.45	1.13	-0.750			
0.8488	54322.01	3.0050	3.0050	-0.1191	26.46	1.14	-0.751			
0.8491	54344.86	3.0020	3.0020	-0.1190	26.46	1.14	-0.751			
