Ah_balance (normalized)	Ah_balance (mAh)	Voltage - fit (V)	Voltage -  interpolate (V)	dQ/dV (1/V)	Temperature (°C)	Temperature - diff (°C)	Current (C)	R_DC 0ms (mOhm)	R_DC 50ms (mOhm)	R_DC 50 ms PEC (mOhm)
0.0002	10.27	4.1670	4.1667	-0.0985	25.62	0.00	-0.750			
0.0005	34.28	4.1640	4.1638	-0.1498	25.62	0.00	-0.750			
0.0011	67.48	4.1610	4.1610	-0.1981	25.62	-0.00	-0.750			
0.0017	110.76	4.1580	4.1581	-0.2459	25.62	-0.00	-0.750			
0.0026	163.46	4.1550	4.1549	-0.2883	25.62	-0.00	-0.750			
0.0035	223.20	4.1520	4.1520	-0.3298	25.61	-0.01	-0.750			
0.0046	291.33	4.1490	4.1491	-0.3722	25.61	-0.01	-0.750			
0.0057	367.26	4.1460	4.1459	-0.4109	25.61	-0.01	-0.750			
0.0070	450.30	4.1430	4.1430	-0.4474	25.61	-0.01	-0.750			
0.0084	540.11	4.1400	4.1400	-0.4826	25.60	-0.02	-0.750			
0.0100	637.61	4.1370	4.1370	-0.5136	25.60	-0.02	-0.750			
0.0116	739.94	4.1340	4.1341	-0.5414	25.59	-0.03	-0.750			
0.0132	847.47	4.1310	4.1311	-0.5659	25.59	-0.03	-0.750			
0.0150	958.96	4.1280	4.1280	-0.5841	25.59	-0.03	-0.750			
0.0168	1073.46	4.1250	4.1250	-0.6039	25.58	-0.04	-0.750			
0.0186	1190.05	4.1220	4.1221	-0.6245	25.58	-0.04	-0.750			
0.0205	1313.23	4.1190	4.1190	-0.6371	25.58	-0.04	-0.750			
0.0225	1438.24	4.1160	4.1159	-0.6534	25.58	-0.04	-0.750			
0.0244	1564.72	4.1130	4.1130	-0.6648	25.57	-0.05	-0.750			
0.0265	1694.68	4.1100	4.1100	-0.6757	25.57	-0.05	-0.750			
0.0285	1825.49	4.1070	4.1069	-0.6837	25.57	-0.05	-0.750			
0.0306	1957.10	4.1040	4.1040	-0.6904	25.56	-0.06	-0.750			
0.0327	2090.99	4.1010	4.1010	-0.6939	25.56	-0.06	-0.750			
0.0348	2225.34	4.0980	4.0980	-0.7052	25.56	-0.06	-0.750			
0.0369	2360.92	4.0950	4.0950	-0.7075	25.55	-0.07	-0.750			
0.0390	2497.11	4.0920	4.0921	-0.7142	25.55	-0.07	-0.750			
0.0412	2636.21	4.0890	4.0889	-0.7187	25.55	-0.07	-0.750			
0.0433	2773.67	4.0860	4.0861	-0.7253	25.55	-0.07	-0.750			
0.0455	2913.29	4.0830	4.0830	-0.7301	25.54	-0.08	-0.750			
0.0477	3055.17	4.0800	4.0799	-0.7357	25.54	-0.08	-0.750			
0.0499	3196.42	4.0770	4.0769	-0.7362	25.54	-0.08	-0.750			
0.0522	3339.25	4.0740	4.0740	-0.7415	25.54	-0.08	-0.750			
0.0544	3481.86	4.0710	4.0711	-0.7428	25.54	-0.08	-0.750			
0.0566	3625.39	4.0680	4.0679	-0.7492	25.54	-0.08	-0.750			
0.0589	3768.39	4.0650	4.0650	-0.7463	25.54	-0.08	-0.750			
0.0611	3913.44	4.0620	4.0619	-0.7513	25.54	-0.08	-0.750			
0.0634	4057.37	4.0590	4.0594	-0.7526	25.54	-0.08	-0.750			
0.0657	4203.45	4.0560	4.0560	-0.7546	25.54	-0.08	-0.750			
0.0679	4346.94	4.0530	4.0530	-0.7560	25.54	-0.08	-0.750			
0.0702	4491.33	4.0500	4.0499	-0.7599	25.54	-0.08	-0.750			
0.0725	4639.01	4.0470	4.0471	-0.7608	25.54	-0.08	-0.750			
0.0748	4784.21	4.0440	4.0439	-0.7618	25.54	-0.08	-0.750			
0.0770	4930.84	4.0410	4.0410	-0.7647	25.54	-0.08	-0.750			
0.0793	5077.27	4.0380	4.0380	-0.7687	25.55	-0.07	-0.750			
0.0816	5224.24	4.0350	4.0349	-0.7726	25.55	-0.07	-0.750			
0.0839	5372.64	4.0320	4.0320	-0.7707	25.55	-0.07	-0.750			
0.0863	5522.80	4.0290	4.0289	-0.7730	25.56	-0.06	-0.750			
0.0886	5672.57	4.0260	4.0262	-0.7806	25.56	-0.06	-0.750			
0.0910	5821.07	4.0230	4.0230	-0.7783	25.56	-0.06	-0.750			
0.0933	5970.34	4.0200	4.0199	-0.7783	25.56	-0.06	-0.750			
0.0956	6119.72	4.0170	4.0170	-0.7801	25.56	-0.06	-0.750			
0.0980	6269.11	4.0140	4.0141	-0.7834	25.56	-0.06	-0.750			
0.1003	6420.49	4.0110	4.0108	-0.7878	25.56	-0.06	-0.750			
0.1027	6572.87	4.0080	4.0079	-0.7879	25.56	-0.06	-0.750			
0.1050	6722.99	4.0050	4.0050	-0.7863	25.56	-0.06	-0.750			
0.1074	6874.77	4.0020	4.0020	-0.7871	25.56	-0.06	-0.750			
0.1098	7025.40	3.9990	3.9989	-0.7897	25.56	-0.06	-0.750			
0.1121	7175.67	3.9960	3.9960	-0.7954	25.56	-0.06	-0.750			
0.1145	7329.16	3.9930	3.9930	-0.7983	25.56	-0.06	-0.750			
0.1169	7483.42	3.9900	3.9899	-0.8030	25.56	-0.06	-0.750			
0.1194	7639.48	3.9870	3.9871	-0.8039	25.56	-0.06	-0.750			
0.1218	7794.03	3.9840	3.9841	-0.8048	25.57	-0.05	-0.750			
0.1242	7948.48	3.9810	3.9810	-0.8042	25.57	-0.05	-0.750			
0.1266	8101.50	3.9780	3.9780	-0.8013	25.57	-0.05	-0.750			
0.1290	8254.93	3.9750	3.9750	-0.8019	25.57	-0.05	-0.750			
0.1314	8410.59	3.9720	3.9720	-0.8097	25.57	-0.05	-0.750			
0.1338	8566.27	3.9690	3.9690	-0.8109	25.58	-0.04	-0.750			
0.1363	8723.15	3.9660	3.9659	-0.8143	25.58	-0.04	-0.750			
0.1387	8879.24	3.9630	3.9632	-0.8161	25.58	-0.04	-0.750			
0.1412	9036.41	3.9600	3.9600	-0.8187	25.58	-0.04	-0.750			
0.1436	9192.38	3.9570	3.9570	-0.8193	25.59	-0.03	-0.750			
0.1461	9350.28	3.9540	3.9541	-0.8195	25.59	-0.03	-0.750			
0.1486	9508.60	3.9510	3.9510	-0.8264	25.60	-0.02	-0.750			
0.1510	9666.68	3.9480	3.9480	-0.8267	25.60	-0.02	-0.750			
0.1535	9825.42	3.9450	3.9450	-0.8293	25.60	-0.02	-0.750			
0.1560	9984.99	3.9420	3.9419	-0.8361	25.60	-0.02	-0.750			
0.1586	10147.49	3.9390	3.9390	-0.8366	25.60	-0.02	-0.750			
0.1611	10309.49	3.9360	3.9359	-0.8336	25.60	-0.02	-0.750			
0.1636	10470.18	3.9330	3.9332	-0.8280	25.60	-0.02	-0.750			
0.1660	10626.30	3.9300	3.9300	-0.8272	25.60	-0.02	-0.750			
0.1685	10784.28	3.9270	3.9271	-0.8394	25.61	-0.01	-0.750			
0.1710	10944.50	3.9240	3.9238	-0.8429	25.61	-0.01	-0.750			
0.1736	11109.50	3.9210	3.9209	-0.8545	25.62	-0.00	-0.750			
0.1762	11275.61	3.9180	3.9183	-0.8555	25.62	0.00	-0.750			
0.1788	11443.78	3.9150	3.9150	-0.8586	25.62	0.00	-0.750			
0.1814	11608.75	3.9120	3.9120	-0.8564	25.63	0.01	-0.750			
0.1839	11768.67	3.9090	3.9090	-0.8438	25.63	0.01	-0.750			
0.1864	11932.03	3.9060	3.9059	-0.8485	25.64	0.02	-0.750			
0.1890	12093.26	3.9030	3.9031	-0.8479	25.64	0.02	-0.750			
0.1915	12255.87	3.9000	3.9000	-0.8480	25.64	0.02	-0.750			
0.1940	12418.48	3.8970	3.8970	-0.8561	25.64	0.02	-0.750			
0.1966	12582.53	3.8940	3.8940	-0.8552	25.64	0.02	-0.750			
0.1992	12750.06	3.8910	3.8910	-0.8671	25.64	0.02	-0.750			
0.2018	12916.99	3.8880	3.8881	-0.8678	25.64	0.02	-0.750			
0.2044	13083.01	3.8850	3.8850	-0.8719	25.64	0.02	-0.750			
0.2070	13250.99	3.8820	3.8820	-0.8725	25.64	0.02	-0.750			
0.2097	13418.51	3.8790	3.8790	-0.8695	25.65	0.03	-0.750			
0.2123	13586.78	3.8760	3.8759	-0.8722	25.65	0.03	-0.750			
0.2149	13753.98	3.8730	3.8731	-0.8750	25.65	0.03	-0.750			
0.2175	13920.80	3.8700	3.8700	-0.8725	25.65	0.03	-0.750			
0.2201	14088.49	3.8670	3.8669	-0.8721	25.66	0.04	-0.750			
0.2227	14254.97	3.8640	3.8639	-0.8731	25.66	0.04	-0.750			
0.2254	14423.81	3.8610	3.8610	-0.8791	25.66	0.04	-0.750			
0.2280	14592.33	3.8580	3.8580	-0.8808	25.66	0.04	-0.750			
0.2307	14762.95	3.8550	3.8551	-0.8825	25.67	0.05	-0.750			
0.2333	14932.65	3.8520	3.8520	-0.8815	25.67	0.05	-0.750			
0.2359	15100.33	3.8490	3.8489	-0.8790	25.68	0.06	-0.750			
0.2386	15270.34	3.8460	3.8463	-0.8796	25.68	0.06	-0.750			
0.2412	15437.49	3.8430	3.8430	-0.8824	25.68	0.06	-0.750			
0.2439	15607.51	3.8400	3.8400	-0.8811	25.68	0.06	-0.750			
0.2465	15778.06	3.8370	3.8369	-0.8776	25.68	0.06	-0.750			
0.2492	15946.71	3.8340	3.8340	-0.8773	25.68	0.06	-0.750			
0.2518	16114.46	3.8310	3.8311	-0.8769	25.68	0.06	-0.750			
0.2544	16281.95	3.8280	3.8280	-0.8795	25.69	0.07	-0.750			
0.2570	16450.68	3.8250	3.8250	-0.8822	25.69	0.07	-0.750			
0.2597	16618.20	3.8220	3.8219	-0.8818	25.69	0.07	-0.750			
0.2624	16790.58	3.8190	3.8190	-0.8870	25.70	0.08	-0.750			
0.2650	16961.71	3.8160	3.8159	-0.8921	25.70	0.08	-0.750			
0.2677	17132.10	3.8130	3.8130	-0.8898	25.71	0.09	-0.750			
0.2704	17303.31	3.8100	3.8100	-0.8855	25.71	0.09	-0.750			
0.2730	17473.51	3.8070	3.8069	-0.8819	25.72	0.10	-0.750			
0.2757	17642.18	3.8040	3.8042	-0.8844	25.72	0.10	-0.750			
0.2783	17811.74	3.8010	3.8010	-0.8861	25.72	0.10	-0.750			
0.2810	17982.37	3.7980	3.7979	-0.8876	25.72	0.10	-0.750			
0.2836	18152.53	3.7950	3.7950	-0.8841	25.72	0.10	-0.750			
0.2863	18322.97	3.7920	3.7921	-0.8830	25.72	0.10	-0.750			
0.2889	18492.68	3.7890	3.7891	-0.8816	25.72	0.10	-0.750			
0.2916	18661.57	3.7860	3.7860	-0.8810	25.72	0.10	-0.750			
0.2942	18829.27	3.7830	3.7830	-0.8763	25.72	0.10	-0.750			
0.2968	18996.64	3.7800	3.7799	-0.8786	25.73	0.11	-0.750			
0.2995	19165.88	3.7770	3.7770	-0.8801	25.73	0.11	-0.750			
0.3021	19335.56	3.7740	3.7741	-0.8806	25.73	0.11	-0.750			
0.3048	19506.15	3.7710	3.7709	-0.8820	25.74	0.12	-0.750			
0.3074	19675.48	3.7680	3.7680	-0.8778	25.75	0.13	-0.750			
0.3100	19842.39	3.7650	3.7650	-0.8768	25.75	0.13	-0.750			
0.3127	20011.68	3.7620	3.7619	-0.8743	25.76	0.14	-0.750			
0.3153	20178.93	3.7590	3.7589	-0.8701	25.76	0.14	-0.750			
0.3179	20347.02	3.7560	3.7560	-0.8710	25.76	0.14	-0.750			
0.3205	20513.03	3.7530	3.7530	-0.8725	25.77	0.15	-0.750			
0.3231	20679.32	3.7500	3.7500	-0.8771	25.77	0.15	-0.750			
0.3258	20849.05	3.7470	3.7473	-0.8803	25.77	0.15	-0.750			
0.3284	21017.32	3.7440	3.7439	-0.8864	25.77	0.15	-0.750			
0.3311	21190.16	3.7410	3.7410	-0.8912	25.77	0.15	-0.750			
0.3338	21361.76	3.7380	3.7381	-0.8895	25.78	0.16	-0.750			
0.3365	21534.00	3.7350	3.7348	-0.8965	25.78	0.16	-0.750			
0.3391	21702.65	3.7320	3.7322	-0.8946	25.78	0.16	-0.750			
0.3418	21872.56	3.7290	3.7290	-0.8996	25.78	0.16	-0.750			
0.3445	22046.52	3.7260	3.7259	-0.9112	25.78	0.16	-0.750			
0.3472	22221.54	3.7230	3.7230	-0.9225	25.79	0.17	-0.750			
0.3500	22401.71	3.7200	3.7201	-0.9401	25.79	0.17	-0.750			
0.3529	22584.12	3.7170	3.7169	-0.9585	25.79	0.17	-0.750			
0.3558	22768.93	3.7140	3.7140	-0.9700	25.79	0.17	-0.750			
0.3587	22955.70	3.7110	3.7110	-0.9767	25.79	0.17	-0.750			
0.3616	23144.19	3.7080	3.7080	-0.9921	25.79	0.17	-0.750			
0.3646	23336.10	3.7050	3.7050	-1.0131	25.79	0.17	-0.750			
0.3677	23531.97	3.7020	3.7020	-1.0279	25.79	0.17	-0.750			
0.3708	23730.76	3.6990	3.6989	-1.0463	25.79	0.17	-0.750			
0.3740	23933.40	3.6960	3.6960	-1.0603	25.79	0.17	-0.750			
0.3772	24140.35	3.6930	3.6931	-1.0869	25.79	0.17	-0.750			
0.3805	24352.26	3.6900	3.6899	-1.1051	25.79	0.17	-0.750			
0.3838	24564.39	3.6870	3.6870	-1.1184	25.78	0.16	-0.750			
0.3872	24777.94	3.6840	3.6840	-1.1386	25.78	0.16	-0.750			
0.3906	25000.43	3.6810	3.6810	-1.1737	25.78	0.16	-0.750			
0.3942	25229.17	3.6780	3.6779	-1.1941	25.78	0.16	-0.750			
0.3978	25460.50	3.6750	3.6749	-1.2218	25.77	0.15	-0.750			
0.4015	25695.95	3.6720	3.6722	-1.2543	25.77	0.15	-0.750			
0.4054	25943.58	3.6690	3.6689	-1.2853	25.76	0.14	-0.750			
0.4093	26192.11	3.6660	3.6659	-1.3097	25.76	0.14	-0.750			
0.4132	26442.17	3.6630	3.6632	-1.3371	25.75	0.13	-0.750			
0.4173	26705.92	3.6600	3.6599	-1.3753	25.74	0.12	-0.750			
0.4214	26972.55	3.6570	3.6570	-1.4032	25.74	0.12	-0.750			
0.4257	27243.07	3.6540	3.6541	-1.4336	25.73	0.11	-0.750			
0.4300	27522.84	3.6510	3.6510	-1.4783	25.72	0.10	-0.750			
0.4345	27810.85	3.6480	3.6479	-1.5217	25.72	0.10	-0.750			
0.4391	28104.41	3.6450	3.6451	-1.5540	25.71	0.09	-0.750			
0.4439	28408.92	3.6420	3.6423	-1.5885	25.70	0.08	-0.750			
0.4487	28718.76	3.6390	3.6391	-1.6191	25.69	0.07	-0.750			
0.4536	29031.89	3.6360	3.6358	-1.6451	25.69	0.07	-0.750			
0.4586	29351.47	3.6330	3.6329	-1.6781	25.68	0.06	-0.750			
0.4637	29674.91	3.6300	3.6301	-1.7184	25.68	0.06	-0.750			
0.4689	30008.06	3.6270	3.6271	-1.7572	25.67	0.05	-0.750	0.407	0.500	
0.4741	30344.06	3.6240	3.6242	-1.7954	25.66	0.04	-0.750			
0.4797	30700.33	3.6210	3.6208	-1.8235	25.65	0.03	-0.750			
0.4853	31058.19	3.6180	3.6181	-1.8551	25.64	0.02	-0.750			
0.4908	31412.60	3.6150	3.6150	-1.8860	25.64	0.02	-0.750			
0.4965	31776.64	3.6120	3.6118	-1.9132	25.63	0.01	-0.750			
0.5022	32142.92	3.6090	3.6091	-1.9356	25.62	-0.00	-0.750			
0.5081	32518.39	3.6060	3.6059	-1.9823	25.61	-0.01	-0.750			
0.5141	32903.84	3.6030	3.6030	-2.0166	25.60	-0.02	-0.750			
0.5203	33301.21	3.6000	3.5999	-2.0465	25.59	-0.03	-0.750			
0.5265	33694.15	3.5970	3.5970	-2.1035	25.59	-0.03	-0.750			
0.5329	34104.70	3.5940	3.5941	-2.1367	25.58	-0.04	-0.750			
0.5394	34523.53	3.5910	3.5910	-2.1709	25.58	-0.04	-0.750			
0.5460	34941.52	3.5880	3.5881	-2.1968	25.58	-0.04	-0.750			
0.5526	35363.27	3.5850	3.5851	-2.2224	25.58	-0.04	-0.750			
0.5593	35796.90	3.5820	3.5819	-2.2802	25.57	-0.05	-0.750			
0.5662	36235.00	3.5790	3.5788	-2.3146	25.56	-0.06	-0.750			
0.5731	36677.37	3.5760	3.5759	-2.3490	25.57	-0.05	-0.750			
0.5803	37138.83	3.5730	3.5730	-2.3794	25.57	-0.05	-0.750			
0.5876	37607.27	3.5700	3.5701	-2.3904	25.56	-0.06	-0.750			
0.5947	38062.74	3.5670	3.5671	-2.3923	25.56	-0.06	-0.750			
0.6019	38522.88	3.5640	3.5640	-2.3956	25.56	-0.06	-0.750			
0.6091	38980.16	3.5610	3.5608	-2.3876	25.56	-0.06	-0.750			
0.6162	39439.41	3.5580	3.5580	-2.3919	25.56	-0.06	-0.750			
0.6234	39899.50	3.5550	3.5550	-2.3893	25.56	-0.06	-0.750			
0.6307	40364.49	3.5520	3.5519	-2.3745	25.56	-0.06	-0.750			
0.6378	40818.13	3.5490	3.5490	-2.3549	25.56	-0.06	-0.750			
0.6448	41270.00	3.5460	3.5460	-2.3308	25.57	-0.05	-0.750			
0.6519	41719.11	3.5430	3.5429	-2.3032	25.57	-0.05	-0.750			
0.6587	42156.56	3.5400	3.5401	-2.2727	25.58	-0.04	-0.750			
0.6655	42591.00	3.5370	3.5369	-2.2405	25.58	-0.04	-0.750			
0.6722	43023.17	3.5340	3.5341	-2.1924	25.59	-0.03	-0.750			
0.6787	43439.21	3.5310	3.5311	-2.1617	25.60	-0.02	-0.750			
0.6852	43850.40	3.5280	3.5280	-2.1073	25.62	-0.00	-0.750			
0.6914	44249.62	3.5250	3.5250	-2.0597	25.63	0.01	-0.750			
0.6976	44644.73	3.5220	3.5220	-2.0093	25.63	0.01	-0.750			
0.7035	45025.16	3.5190	3.5188	-1.9487	25.64	0.02	-0.750			
0.7093	45397.32	3.5160	3.5160	-1.8922	25.65	0.03	-0.750			
0.7150	45760.47	3.5130	3.5131	-1.8219	25.67	0.05	-0.750			
0.7203	46098.17	3.5100	3.5099	-1.7458	25.68	0.06	-0.750			
0.7254	46427.66	3.5070	3.5070	-1.6737	25.70	0.08	-0.750			
0.7303	46739.56	3.5040	3.5039	-1.6025	25.72	0.10	-0.750			
0.7350	47040.73	3.5010	3.5012	-1.5468	25.74	0.12	-0.750			
0.7395	47330.51	3.4980	3.4980	-1.4961	25.76	0.14	-0.750			
0.7440	47614.70	3.4950	3.4950	-1.4489	25.77	0.15	-0.750			
0.7482	47886.94	3.4920	3.4919	-1.4139	25.79	0.17	-0.750			
0.7524	48155.78	3.4890	3.4890	-1.3652	25.81	0.19	-0.750			
0.7565	48415.42	3.4860	3.4860	-1.3218	25.82	0.20	-0.750			
0.7604	48664.61	3.4830	3.4829	-1.2698	25.83	0.21	-0.750			
0.7641	48902.34	3.4800	3.4802	-1.2229	25.84	0.22	-0.750			
0.7677	49135.72	3.4770	3.4769	-1.1806	25.87	0.25	-0.750			
0.7712	49355.07	3.4740	3.4739	-1.1329	25.88	0.26	-0.750			
0.7744	49564.78	3.4710	3.4709	-1.0807	25.90	0.28	-0.750			
0.7777	49771.67	3.4680	3.4679	-1.0593	25.92	0.30	-0.750			
0.7807	49967.99	3.4650	3.4649	-1.0249	25.93	0.31	-0.750			
0.7838	50161.14	3.4620	3.4621	-0.9996	25.94	0.32	-0.750			
0.7867	50347.93	3.4590	3.4590	-0.9765	25.94	0.32	-0.750			
0.7896	50536.11	3.4560	3.4560	-0.9696	25.95	0.33	-0.750			
0.7925	50720.29	3.4530	3.4530	-0.9682	25.96	0.34	-0.750			
0.7954	50903.38	3.4500	3.4500	-0.9651	25.97	0.35	-0.750			
0.7982	51085.56	3.4470	3.4469	-0.9730	25.98	0.36	-0.750			
0.8011	51270.87	3.4440	3.4443	-1.0039	25.99	0.37	-0.750			
0.8041	51463.33	3.4410	3.4408	-1.0357	26.00	0.38	-0.750			
0.8073	51664.58	3.4380	3.4380	-1.0774	26.01	0.39	-0.750			
0.8105	51872.83	3.4350	3.4350	-1.1238	26.02	0.40	-0.750			
0.8140	52099.14	3.4320	3.4322	-1.1700	26.03	0.41	-0.750			
0.8177	52330.83	3.4290	3.4290	-1.1982	26.04	0.42	-0.750			
0.8214	52568.13	3.4260	3.4260	-1.2063	26.06	0.44	-0.750			
0.8251	52803.69	3.4230	3.4231	-1.1997	26.07	0.45	-0.750			
0.8287	53037.85	3.4200	3.4200	-1.1860	26.07	0.45	-0.750			
0.8323	53266.00	3.4170	3.4169	-1.1445	26.08	0.46	-0.750			
0.8357	53482.05	3.4140	3.4140	-1.1059	26.09	0.47	-0.750			
0.8389	53690.69	3.4110	3.4111	-1.0655	26.09	0.47	-0.750			
0.8420	53891.00	3.4080	3.4078	-1.0299	26.10	0.48	-0.750			
0.8451	54084.82	3.4050	3.4050	-0.9919	26.11	0.49	-0.750			
0.8480	54270.67	3.4020	3.4020	-0.9543	26.12	0.50	-0.750			
0.8508	54451.77	3.3990	3.3992	-0.9223	26.13	0.51	-0.750			
0.8535	54626.17	3.3960	3.3960	-0.8879	26.14	0.52	-0.750			
0.8561	54790.42	3.3930	3.3930	-0.8488	26.15	0.53	-0.750			
0.8586	54950.29	3.3900	3.3899	-0.8168	26.16	0.54	-0.750			
0.8610	55103.07	3.3870	3.3871	-0.7859	26.16	0.54	-0.750			
0.8633	55251.50	3.3840	3.3840	-0.7542	26.17	0.55	-0.750			
0.8655	55393.83	3.3810	3.3810	-0.7245	26.18	0.56	-0.750			
0.8676	55529.17	3.3780	3.3780	-0.6965	26.18	0.56	-0.750			
0.8697	55658.88	3.3750	3.3750	-0.6672	26.19	0.57	-0.750			
0.8716	55784.95	3.3720	3.3719	-0.6411	26.20	0.58	-0.750			
0.8735	55905.01	3.3690	3.3690	-0.6146	26.20	0.58	-0.750			
0.8753	56020.26	3.3660	3.3660	-0.5885	26.21	0.59	-0.750			
0.8771	56131.58	3.3630	3.3630	-0.5649	26.22	0.60	-0.750			
0.8787	56237.17	3.3600	3.3600	-0.5393	26.22	0.60	-0.750			
0.8803	56338.07	3.3570	3.3570	-0.5142	26.23	0.61	-0.750			
0.8818	56434.19	3.3540	3.3540	-0.4927	26.23	0.61	-0.750			
0.8832	56525.79	3.3510	3.3509	-0.4731	26.24	0.62	-0.750			
0.8846	56614.65	3.3480	3.3480	-0.4514	26.25	0.63	-0.750			
0.8859	56699.28	3.3450	3.3449	-0.4321	26.25	0.63	-0.750			
0.8872	56780.28	3.3420	3.3420	-0.4138	26.26	0.64	-0.750			
0.8884	56858.31	3.3390	3.3392	-0.3958	26.26	0.64	-0.750			
0.8896	56932.63	3.3360	3.3359	-0.3791	26.27	0.65	-0.750			
0.8907	57002.90	3.3330	3.3330	-0.3614	26.27	0.65	-0.750			
0.8917	57070.70	3.3300	3.3301	-0.3470	26.28	0.66	-0.750			
0.8928	57136.08	3.3270	3.3269	-0.3348	26.28	0.66	-0.750			
0.8937	57198.41	3.3240	3.3240	-0.3206	26.29	0.67	-0.750			
0.8947	57258.29	3.3210	3.3210	-0.3079	26.29	0.67	-0.750			
0.8956	57316.32	3.3180	3.3180	-0.2962	26.30	0.68	-0.750			
0.8964	57372.09	3.3150	3.3150	-0.2842	26.30	0.68	-0.750			
0.8973	57425.47	3.3120	3.3121	-0.2740	26.30	0.68	-0.750			
0.8981	57476.56	3.3090	3.3089	-0.2636	26.31	0.69	-0.750			
0.8988	57526.24	3.3060	3.3060	-0.2534	26.31	0.69	-0.750			
0.8996	57573.60	3.3030	3.3029	-0.2442	26.31	0.69	-0.750			
0.9003	57619.65	3.3000	3.3000	-0.2357	26.32	0.70	-0.750			
0.9010	57663.83	3.2970	3.2970	-0.2286	26.32	0.70	-0.750			
0.9017	57706.72	3.2940	3.2939	-0.2219	26.33	0.71	-0.750			
0.9023	57748.51	3.2910	3.2910	-0.2164	26.33	0.71	-0.750			
0.9030	57788.91	3.2880	3.2880	-0.2105	26.34	0.72	-0.750			
0.9036	57829.05	3.2850	3.2850	-0.2043	26.34	0.72	-0.750			
0.9042	57868.31	3.2820	3.2819	-0.1992	26.34	0.72	-0.750			
0.9048	57905.67	3.2790	3.2791	-0.1932	26.35	0.73	-0.750			
0.9053	57942.18	3.2760	3.2762	-0.1872	26.35	0.73	-0.750			
0.9059	57977.16	3.2730	3.2730	-0.1827	26.36	0.74	-0.750			
0.9064	58011.46	3.2700	3.2699	-0.1778	26.36	0.74	-0.750			
0.9069	58044.78	3.2670	3.2670	-0.1734	26.36	0.74	-0.750			
0.9075	58077.74	3.2640	3.2640	-0.1712	26.37	0.75	-0.750			
0.9080	58110.64	3.2610	3.2610	-0.1681	26.37	0.75	-0.750			
0.9085	58142.66	3.2580	3.2579	-0.1651	26.38	0.76	-0.750			
0.9090	58174.06	3.2550	3.2550	-0.1618	26.38	0.76	-0.750			
0.9094	58204.79	3.2520	3.2520	-0.1587	26.38	0.76	-0.750			
0.9099	58234.85	3.2490	3.2490	-0.1556	26.39	0.77	-0.750			
0.9104	58264.66	3.2460	3.2459	-0.1525	26.39	0.77	-0.750			
0.9108	58293.60	3.2430	3.2430	-0.1490	26.39	0.77	-0.750			
0.9113	58321.40	3.2400	3.2401	-0.1473	26.40	0.78	-0.750			
0.9117	58349.65	3.2370	3.2370	-0.1449	26.40	0.78	-0.750			
0.9121	58377.12	3.2340	3.2339	-0.1425	26.40	0.78	-0.750			
0.9126	58404.23	3.2310	3.2310	-0.1409	26.41	0.79	-0.750			
0.9130	58431.19	3.2280	3.2281	-0.1385	26.41	0.79	-0.750			
0.9134	58457.64	3.2250	3.2251	-0.1366	26.41	0.79	-0.750			
0.9138	58483.88	3.2220	3.2219	-0.1347	26.42	0.80	-0.750			
0.9142	58509.36	3.2190	3.2191	-0.1328	26.42	0.80	-0.750			
0.9146	58534.30	3.2160	3.2159	-0.1303	26.42	0.80	-0.750			
0.9150	58559.36	3.2130	3.2130	-0.1291	26.43	0.81	-0.750			
0.9154	58583.91	3.2100	3.2100	-0.1274	26.43	0.81	-0.750			
0.9158	58608.00	3.2070	3.2071	-0.1255	26.44	0.82	-0.750			
0.9161	58632.13	3.2040	3.2040	-0.1244	26.44	0.82	-0.750			
0.9165	58655.73	3.2010	3.2009	-0.1226	26.44	0.82	-0.750			
0.9169	58679.14	3.1980	3.1980	-0.1212	26.45	0.83	-0.750			
0.9172	58702.17	3.1950	3.1950	-0.1197	26.45	0.83	-0.750			
0.9176	58725.15	3.1920	3.1921	-0.1185	26.46	0.84	-0.750			
0.9179	58747.76	3.1890	3.1889	-0.1171	26.46	0.84	-0.750			
0.9183	58769.98	3.1860	3.1861	-0.1159	26.46	0.84	-0.750			
0.9186	58792.11	3.1830	3.1830	-0.1147	26.47	0.85	-0.750			
0.9190	58813.97	3.1800	3.1800	-0.1134	26.47	0.85	-0.750			
0.9193	58835.64	3.1770	3.1770	-0.1124	26.47	0.85	-0.750			
0.9196	58857.20	3.1740	3.1739	-0.1112	26.48	0.86	-0.750			
0.9200	58878.42	3.1710	3.1711	-0.1099	26.48	0.86	-0.750			
0.9203	58899.35	3.1680	3.1680	-0.1090	26.48	0.86	-0.750			
0.9206	58920.19	3.1650	3.1650	-0.1080	26.49	0.87	-0.750			
0.9209	58940.77	3.1620	3.1620	-0.1071	26.49	0.87	-0.750			
0.9213	58961.08	3.1590	3.1590	-0.1061	26.49	0.87	-0.750			
0.9216	58981.37	3.1560	3.1561	-0.1055	26.50	0.88	-0.750			
0.9219	59001.50	3.1530	3.1530	-0.1048	26.50	0.88	-0.750			
0.9222	59021.62	3.1500	3.1501	-0.1040	26.50	0.88	-0.750			
0.9225	59041.62	3.1470	3.1469	-0.1033	26.51	0.89	-0.750			
0.9228	59061.42	3.1440	3.1441	-0.1021	26.51	0.89	-0.750			
0.9231	59080.98	3.1410	3.1410	-0.1011	26.51	0.89	-0.750			
0.9234	59100.27	3.1380	3.1380	-0.1001	26.52	0.90	-0.750			
0.9237	59119.44	3.1350	3.1350	-0.0991	26.52	0.90	-0.750			
0.9240	59138.08	3.1320	3.1319	-0.0983	26.52	0.90	-0.750			
0.9243	59156.91	3.1290	3.1290	-0.0978	26.53	0.91	-0.750			
0.9246	59175.50	3.1260	3.1260	-0.0972	26.53	0.91	-0.750			
0.9249	59194.14	3.1230	3.1230	-0.0970	26.53	0.91	-0.750			
0.9252	59213.07	3.1200	3.1201	-0.0962	26.53	0.91	-0.750			
0.9255	59231.44	3.1170	3.1170	-0.0951	26.54	0.92	-0.750			
0.9258	59249.57	3.1140	3.1142	-0.0945	26.54	0.92	-0.750			
0.9261	59267.75	3.1110	3.1110	-0.0936	26.54	0.92	-0.750			
0.9263	59285.56	3.1080	3.1079	-0.0932	26.55	0.93	-0.750			
0.9266	59303.14	3.1050	3.1049	-0.0923	26.55	0.93	-0.750			
0.9269	59320.71	3.1020	3.1020	-0.0916	26.56	0.94	-0.750			
0.9272	59338.28	3.0990	3.0990	-0.0914	26.56	0.94	-0.750			
0.9274	59356.01	3.0960	3.0961	-0.0912	26.56	0.94	-0.750			
0.9277	59373.46	3.0930	3.0929	-0.0906	26.57	0.95	-0.750			
0.9280	59390.77	3.0900	3.0901	-0.0899	26.57	0.95	-0.750			
0.9282	59407.98	3.0870	3.0869	-0.0893	26.58	0.96	-0.750			
0.9285	59425.05	3.0840	3.0840	-0.0888	26.58	0.96	-0.750			
0.9288	59442.03	3.0810	3.0811	-0.0882	26.58	0.96	-0.750			
0.9290	59458.91	3.0780	3.0780	-0.0877	26.59	0.97	-0.750			
0.9293	59475.70	3.0750	3.0750	-0.0872	26.59	0.97	-0.750			
0.9296	59492.35	3.0720	3.0719	-0.0867	26.60	0.98	-0.750			
0.9298	59508.96	3.0690	3.0691	-0.0863	26.60	0.98	-0.750			
0.9301	59525.52	3.0660	3.0659	-0.0859	26.60	0.98	-0.750			
0.9303	59541.96	3.0630	3.0630	-0.0854	26.61	0.99	-0.750			
0.9306	59558.36	3.0600	3.0600	-0.0849	26.61	0.99	-0.750			
0.9309	59574.61	3.0570	3.0570	-0.0844	26.61	0.99	-0.750			
0.9311	59590.74	3.0540	3.0540	-0.0840	26.62	1.00	-0.750			
0.9314	59606.81	3.0510	3.0510	-0.0835	26.62	1.00	-0.750			
0.9316	59622.74	3.0480	3.0480	-0.0829	26.63	1.01	-0.750			
0.9319	59638.62	3.0450	3.0450	-0.0825	26.63	1.01	-0.750			
0.9321	59654.46	3.0420	3.0420	-0.0820	26.63	1.01	-0.750			
0.9323	59670.16	3.0390	3.0391	-0.0816	26.64	1.02	-0.750			
0.9326	59685.83	3.0360	3.0359	-0.0812	26.64	1.02	-0.750			
0.9328	59701.25	3.0330	3.0331	-0.0809	26.64	1.02	-0.750			
0.9331	59716.75	3.0300	3.0300	-0.0806	26.65	1.03	-0.750			
0.9333	59732.06	3.0270	3.0269	-0.0802	26.65	1.03	-0.750			
0.9336	59747.51	3.0240	3.0240	-0.0797	26.65	1.03	-0.750			
0.9338	59762.80	3.0210	3.0210	-0.0794	26.66	1.04	-0.750			
0.9340	59778.11	3.0180	3.0181	-0.0788	26.66	1.04	-0.750			
0.9343	59793.18	3.0150	3.0150	-0.0782	26.66	1.04	-0.750			
0.9345	59808.38	3.0120	3.0120	-0.0776	26.67	1.05	-0.750			
0.9347	59823.20	3.0090	3.0090	-0.0767	26.67	1.05	-0.751			
0.9350	59837.86	3.0060	3.0060	-0.0758	26.67	1.05	-0.751			
0.9352	59852.32	3.0030	3.0030	-0.0748	26.68	1.06	-0.751			
