Ah_balance (normalized)	Ah_balance (mAh)	Voltage - fit (V)	Voltage -  interpolate (V)	dQ/dV (1/V)	Temperature (°C)	Temperature - diff (°C)	Current (C)	R_DC 0ms (mOhm)	R_DC 50ms (mOhm)	R_DC 50 ms PEC (mOhm)
0.0002	9.97	4.1630	4.1628	-0.0852	26.00	0.03	-0.750			
0.0005	31.83	4.1600	4.1598	-0.1365	25.99	0.02	-0.750			
0.0010	63.00	4.1570	4.1569	-0.1813	25.99	0.02	-0.750			
0.0016	102.54	4.1540	4.1539	-0.2223	25.99	0.02	-0.750			
0.0023	149.75	4.1510	4.1511	-0.2589	25.99	0.02	-0.750			
0.0032	203.26	4.1480	4.1481	-0.2950	25.99	0.02	-0.750			
0.0041	265.01	4.1450	4.1450	-0.3301	25.99	0.02	-0.750			
0.0052	331.68	4.1420	4.1419	-0.3633	25.98	0.01	-0.750			
0.0063	404.38	4.1390	4.1390	-0.3963	25.98	0.01	-0.750			
0.0076	484.02	4.1360	4.1360	-0.4274	25.98	0.01	-0.750			
0.0089	570.51	4.1330	4.1329	-0.4553	25.97	0.00	-0.750			
0.0103	661.13	4.1300	4.1299	-0.4808	25.97	0.00	-0.750			
0.0118	756.81	4.1270	4.1270	-0.5037	25.97	-0.00	-0.750			
0.0134	855.79	4.1240	4.1240	-0.5236	25.96	-0.01	-0.750			
0.0150	958.34	4.1210	4.1210	-0.5404	25.96	-0.01	-0.750			
0.0166	1063.79	4.1180	4.1180	-0.5560	25.96	-0.01	-0.750			
0.0183	1173.84	4.1150	4.1150	-0.5759	25.95	-0.02	-0.750			
0.0201	1286.87	4.1120	4.1120	-0.5874	25.95	-0.02	-0.750			
0.0219	1401.95	4.1090	4.1089	-0.5986	25.94	-0.03	-0.750			
0.0237	1517.83	4.1060	4.1062	-0.6089	25.94	-0.03	-0.750			
0.0256	1635.58	4.1030	4.1030	-0.6203	25.94	-0.03	-0.750			
0.0274	1755.49	4.1000	4.1000	-0.6301	25.94	-0.03	-0.750			
0.0293	1876.84	4.0970	4.0969	-0.6357	25.94	-0.03	-0.750			
0.0313	2002.65	4.0940	4.0940	-0.6424	25.93	-0.04	-0.750			
0.0333	2128.10	4.0910	4.0910	-0.6495	25.93	-0.04	-0.750			
0.0352	2251.22	4.0880	4.0882	-0.6544	25.93	-0.04	-0.750			
0.0371	2376.04	4.0850	4.0849	-0.6598	25.93	-0.04	-0.750			
0.0391	2502.49	4.0820	4.0819	-0.6692	25.92	-0.05	-0.750			
0.0411	2631.88	4.0790	4.0790	-0.6791	25.92	-0.05	-0.750			
0.0432	2764.35	4.0760	4.0761	-0.6896	25.92	-0.05	-0.750			
0.0454	2902.86	4.0730	4.0729	-0.6956	25.91	-0.06	-0.750			
0.0474	3035.86	4.0700	4.0699	-0.6912	25.91	-0.06	-0.750			
0.0495	3167.20	4.0670	4.0670	-0.6887	25.91	-0.06	-0.750			
0.0516	3299.73	4.0640	4.0640	-0.6881	25.91	-0.06	-0.750			
0.0536	3429.26	4.0610	4.0609	-0.6892	25.91	-0.06	-0.750			
0.0557	3561.90	4.0580	4.0580	-0.6919	25.91	-0.06	-0.750			
0.0577	3695.99	4.0550	4.0550	-0.6979	25.91	-0.06	-0.750			
0.0599	3830.99	4.0520	4.0520	-0.7041	25.91	-0.06	-0.750			
0.0620	3966.65	4.0490	4.0491	-0.7063	25.91	-0.06	-0.750			
0.0641	4102.93	4.0460	4.0460	-0.7082	25.91	-0.06	-0.750			
0.0662	4239.73	4.0430	4.0430	-0.7117	25.91	-0.06	-0.750			
0.0684	4375.91	4.0400	4.0400	-0.7118	25.91	-0.06	-0.750			
0.0705	4513.85	4.0370	4.0370	-0.7151	25.91	-0.06	-0.750			
0.0727	4650.53	4.0340	4.0340	-0.7140	25.91	-0.06	-0.750			
0.0748	4786.97	4.0310	4.0310	-0.7159	25.91	-0.06	-0.750			
0.0770	4925.07	4.0280	4.0280	-0.7183	25.91	-0.06	-0.750			
0.0791	5063.50	4.0250	4.0249	-0.7253	25.91	-0.06	-0.750			
0.0813	5203.63	4.0220	4.0220	-0.7234	25.91	-0.06	-0.750			
0.0835	5343.40	4.0190	4.0190	-0.7275	25.91	-0.06	-0.750			
0.0857	5483.30	4.0160	4.0164	-0.7281	25.91	-0.06	-0.750			
0.0879	5623.27	4.0130	4.0128	-0.7279	25.91	-0.06	-0.750			
0.0900	5761.78	4.0100	4.0100	-0.7302	25.92	-0.05	-0.750			
0.0922	5901.56	4.0070	4.0070	-0.7294	25.92	-0.05	-0.750			
0.0944	6043.65	4.0040	4.0040	-0.7385	25.92	-0.05	-0.750			
0.0967	6186.60	4.0010	4.0009	-0.7350	25.93	-0.04	-0.750			
0.0989	6327.14	3.9980	3.9980	-0.7301	25.93	-0.04	-0.750			
0.1011	6467.68	3.9950	3.9950	-0.7263	25.93	-0.04	-0.750			
0.1032	6604.60	3.9920	3.9922	-0.7288	25.93	-0.04	-0.750			
0.1054	6743.21	3.9890	3.9889	-0.7259	25.93	-0.04	-0.750			
0.1076	6884.04	3.9860	3.9859	-0.7306	25.93	-0.04	-0.750			
0.1097	7023.30	3.9830	3.9829	-0.7336	25.93	-0.04	-0.750			
0.1120	7165.53	3.9800	3.9801	-0.7420	25.93	-0.04	-0.750			
0.1142	7310.32	3.9770	3.9770	-0.7494	25.93	-0.04	-0.750			
0.1165	7454.76	3.9740	3.9738	-0.7551	25.93	-0.04	-0.750			
0.1187	7598.73	3.9710	3.9710	-0.7522	25.94	-0.03	-0.750			
0.1210	7746.67	3.9680	3.9681	-0.7588	25.94	-0.03	-0.750			
0.1233	7891.44	3.9650	3.9652	-0.7599	25.94	-0.03	-0.750			
0.1256	8037.72	3.9620	3.9620	-0.7620	25.95	-0.02	-0.750			
0.1279	8182.46	3.9590	3.9590	-0.7638	25.95	-0.02	-0.750			
0.1301	8328.80	3.9560	3.9559	-0.7680	25.96	-0.01	-0.750			
0.1325	8478.20	3.9530	3.9530	-0.7727	25.96	-0.01	-0.750			
0.1348	8627.60	3.9500	3.9499	-0.7730	25.97	-0.00	-0.750			
0.1371	8777.14	3.9470	3.9469	-0.7754	25.97	0.00	-0.750			
0.1395	8924.95	3.9440	3.9440	-0.7733	25.97	0.00	-0.750			
0.1418	9072.63	3.9410	3.9410	-0.7717	25.97	0.00	-0.750			
0.1441	9219.94	3.9380	3.9380	-0.7747	25.97	0.00	-0.750			
0.1464	9368.98	3.9350	3.9349	-0.7786	25.97	0.00	-0.750			
0.1487	9518.81	3.9320	3.9320	-0.7835	25.97	0.00	-0.750			
0.1511	9669.30	3.9290	3.9290	-0.7909	25.97	0.00	-0.750			
0.1535	9821.83	3.9260	3.9260	-0.7997	25.98	0.01	-0.750			
0.1559	9979.15	3.9230	3.9229	-0.7950	25.98	0.01	-0.750			
0.1583	10132.80	3.9200	3.9200	-0.7949	25.99	0.02	-0.750			
0.1607	10284.35	3.9170	3.9174	-0.7931	25.99	0.02	-0.750			
0.1631	10436.00	3.9140	3.9137	-0.7931	25.99	0.02	-0.750			
0.1654	10586.96	3.9110	3.9109	-0.7942	26.00	0.03	-0.750			
0.1678	10736.61	3.9080	3.9080	-0.7921	26.00	0.03	-0.750			
0.1702	10891.68	3.9050	3.9050	-0.8022	26.01	0.04	-0.750			
0.1726	11047.16	3.9020	3.9019	-0.8067	26.01	0.04	-0.750			
0.1750	11200.23	3.8990	3.8990	-0.8052	26.01	0.04	-0.750			
0.1774	11355.28	3.8960	3.8959	-0.8090	26.02	0.05	-0.750			
0.1799	11512.55	3.8930	3.8930	-0.8055	26.02	0.05	-0.750			
0.1823	11666.52	3.8900	3.8900	-0.8080	26.02	0.05	-0.750			
0.1847	11822.16	3.8870	3.8871	-0.8102	26.03	0.06	-0.750			
0.1871	11977.09	3.8840	3.8840	-0.8103	26.03	0.06	-0.750			
0.1895	12130.02	3.8810	3.8809	-0.8154	26.04	0.07	-0.750			
0.1920	12289.78	3.8780	3.8780	-0.8064	26.04	0.07	-0.750			
0.1944	12444.42	3.8750	3.8750	-0.8038	26.04	0.07	-0.750			
0.1969	12600.25	3.8720	3.8721	-0.8123	26.05	0.08	-0.750			
0.1993	12753.58	3.8690	3.8687	-0.8062	26.05	0.08	-0.750			
0.2017	12905.83	3.8660	3.8659	-0.8148	26.06	0.09	-0.750			
0.2041	13063.26	3.8630	3.8630	-0.8129	26.06	0.09	-0.750			
0.2066	13220.43	3.8600	3.8600	-0.8175	26.06	0.09	-0.750			
0.2091	13381.64	3.8570	3.8569	-0.8254	26.07	0.10	-0.750			
0.2115	13539.05	3.8540	3.8540	-0.8183	26.07	0.10	-0.750			
0.2140	13693.66	3.8510	3.8510	-0.8221	26.08	0.11	-0.750			
0.2164	13852.03	3.8480	3.8480	-0.8220	26.08	0.11	-0.750			
0.2189	14009.31	3.8450	3.8450	-0.8183	26.08	0.11	-0.750			
0.2214	14169.38	3.8420	3.8419	-0.8231	26.09	0.12	-0.750			
0.2239	14327.19	3.8390	3.8392	-0.8184	26.09	0.12	-0.750			
0.2263	14481.80	3.8360	3.8360	-0.8227	26.09	0.12	-0.750			
0.2288	14641.73	3.8330	3.8329	-0.8169	26.09	0.12	-0.750			
0.2312	14796.27	3.8300	3.8300	-0.8083	26.10	0.13	-0.750			
0.2336	14952.85	3.8270	3.8269	-0.8140	26.10	0.13	-0.750			
0.2361	15110.28	3.8240	3.8242	-0.8153	26.10	0.13	-0.750			
0.2385	15266.19	3.8210	3.8209	-0.8123	26.10	0.13	-0.750			
0.2409	15420.64	3.8180	3.8180	-0.8128	26.10	0.13	-0.750			
0.2434	15575.38	3.8150	3.8151	-0.8047	26.11	0.14	-0.750			
0.2459	15734.99	3.8120	3.8119	-0.8139	26.11	0.14	-0.750			
0.2483	15890.24	3.8090	3.8091	-0.8089	26.11	0.14	-0.750			
0.2507	16044.71	3.8060	3.8060	-0.8025	26.12	0.15	-0.750			
0.2531	16198.38	3.8030	3.8030	-0.8025	26.13	0.16	-0.750			
0.2555	16352.19	3.8000	3.7999	-0.7985	26.13	0.16	-0.750			
0.2579	16505.83	3.7970	3.7970	-0.7969	26.14	0.17	-0.750			
0.2603	16659.42	3.7940	3.7942	-0.7900	26.15	0.18	-0.750			
0.2627	16810.68	3.7910	3.7909	-0.7891	26.15	0.18	-0.750			
0.2650	16961.58	3.7880	3.7881	-0.7827	26.16	0.19	-0.750			
0.2673	17110.32	3.7850	3.7849	-0.7768	26.16	0.19	-0.750			
0.2696	17257.57	3.7820	3.7821	-0.7748	26.16	0.19	-0.750			
0.2720	17407.37	3.7790	3.7789	-0.7757	26.17	0.20	-0.750			
0.2743	17556.03	3.7760	3.7760	-0.7737	26.17	0.20	-0.750			
0.2766	17705.23	3.7730	3.7730	-0.7736	26.18	0.21	-0.750			
0.2789	17852.56	3.7700	3.7700	-0.7699	26.18	0.21	-0.750			
0.2813	18001.35	3.7670	3.7670	-0.7711	26.18	0.21	-0.750			
0.2836	18149.43	3.7640	3.7639	-0.7672	26.19	0.22	-0.750			
0.2859	18295.79	3.7610	3.7612	-0.7629	26.19	0.22	-0.750			
0.2882	18441.79	3.7580	3.7580	-0.7645	26.19	0.22	-0.750			
0.2904	18588.64	3.7550	3.7550	-0.7661	26.19	0.22	-0.750			
0.2927	18735.21	3.7520	3.7519	-0.7683	26.20	0.23	-0.750			
0.2950	18882.03	3.7490	3.7490	-0.7721	26.20	0.23	-0.750			
0.2974	19030.95	3.7460	3.7460	-0.7755	26.20	0.23	-0.750			
0.2997	19180.81	3.7430	3.7429	-0.7826	26.20	0.23	-0.750			
0.3020	19330.15	3.7400	3.7400	-0.7918	26.20	0.23	-0.750			
0.3044	19482.73	3.7370	3.7370	-0.7944	26.21	0.24	-0.750			
0.3068	19636.26	3.7340	3.7339	-0.8032	26.21	0.24	-0.750			
0.3092	19790.74	3.7310	3.7310	-0.8123	26.21	0.24	-0.750			
0.3117	19947.53	3.7280	3.7281	-0.8233	26.21	0.24	-0.750			
0.3142	20106.10	3.7250	3.7249	-0.8381	26.22	0.25	-0.750			
0.3167	20268.21	3.7220	3.7219	-0.8486	26.22	0.25	-0.750			
0.3192	20430.37	3.7190	3.7191	-0.8629	26.22	0.25	-0.750			
0.3219	20599.97	3.7160	3.7159	-0.8800	26.23	0.26	-0.750			
0.3245	20770.80	3.7130	3.7130	-0.8922	26.23	0.26	-0.750			
0.3272	20943.57	3.7100	3.7100	-0.9065	26.23	0.26	-0.750			
0.3300	21117.47	3.7070	3.7070	-0.9208	26.23	0.26	-0.750			
0.3327	21293.90	3.7040	3.7040	-0.9357	26.23	0.26	-0.750			
0.3356	21476.52	3.7010	3.7011	-0.9573	26.23	0.26	-0.750			
0.3385	21661.64	3.6980	3.6979	-0.9782	26.23	0.26	-0.750			
0.3415	21853.66	3.6950	3.6950	-0.9971	26.22	0.25	-0.750			
0.3445	22048.34	3.6920	3.6920	-1.0130	26.22	0.25	-0.750			
0.3476	22245.14	3.6890	3.6889	-1.0332	26.21	0.24	-0.750			
0.3507	22443.84	3.6860	3.6859	-1.0510	26.21	0.24	-0.750			
0.3539	22646.96	3.6830	3.6830	-1.0619	26.21	0.24	-0.750			
0.3570	22850.73	3.6800	3.6800	-1.0817	26.21	0.24	-0.750			
0.3602	23055.78	3.6770	3.6770	-1.1127	26.21	0.24	-0.750			
0.3637	23278.48	3.6740	3.6739	-1.1375	26.20	0.23	-0.750			
0.3672	23499.19	3.6710	3.6708	-1.1551	26.20	0.23	-0.750			
0.3707	23722.44	3.6680	3.6679	-1.1773	26.19	0.22	-0.750			
0.3743	23952.11	3.6650	3.6652	-1.2157	26.19	0.22	-0.750			
0.3780	24190.77	3.6620	3.6618	-1.2332	26.19	0.22	-0.750			
0.3817	24427.40	3.6590	3.6589	-1.2456	26.18	0.21	-0.750			
0.3854	24666.04	3.6560	3.6563	-1.2653	26.18	0.21	-0.750			
0.3893	24916.42	3.6530	3.6530	-1.3034	26.17	0.20	-0.750			
0.3932	25166.77	3.6500	3.6498	-1.3288	26.16	0.19	-0.750			
0.3972	25422.94	3.6470	3.6471	-1.3556	26.15	0.18	-0.750			
0.4014	25687.61	3.6440	3.6439	-1.3883	26.14	0.17	-0.750			
0.4056	25958.49	3.6410	3.6410	-1.4144	26.14	0.17	-0.750			
0.4099	26231.66	3.6380	3.6381	-1.4468	26.13	0.16	-0.750			
0.4142	26508.90	3.6350	3.6349	-1.4820	26.12	0.15	-0.750			
0.4187	26798.31	3.6320	3.6319	-1.5120	26.12	0.15	-0.750			
0.4233	27089.46	3.6290	3.6292	-1.5577	26.11	0.14	-0.750			
0.4280	27393.88	3.6260	3.6259	-1.5860	26.10	0.13	-0.750			
0.4329	27708.55	3.6230	3.6231	-1.6134	26.09	0.12	-0.750			
0.4378	28017.87	3.6200	3.6199	-1.6402	26.09	0.12	-0.750			
0.4428	28336.06	3.6170	3.6177	-1.6547	26.09	0.12	-0.750	0.408	0.541	
0.4477	28652.26	3.6140	3.6140	-1.6918	26.09	0.12	-0.750			
0.4528	28976.51	3.6110	3.6109	-1.7153	26.08	0.11	-0.750			
0.4579	29308.37	3.6080	3.6081	-1.7457	26.07	0.10	-0.750			
0.4633	29653.71	3.6050	3.6051	-1.7863	26.06	0.09	-0.750			
0.4687	29997.53	3.6020	3.6019	-1.8309	26.05	0.08	-0.750			
0.4743	30352.70	3.5990	3.5991	-1.8725	26.05	0.08	-0.750			
0.4800	30720.13	3.5960	3.5960	-1.8969	26.04	0.07	-0.750			
0.4857	31083.53	3.5930	3.5930	-1.9470	26.03	0.06	-0.750			
0.4916	31464.87	3.5900	3.5899	-1.9862	26.03	0.06	-0.750			
0.4976	31848.05	3.5870	3.5866	-2.0297	26.03	0.06	-0.750			
0.5038	32242.69	3.5840	3.5840	-2.0717	26.02	0.05	-0.750			
0.5101	32644.23	3.5810	3.5807	-2.0959	26.01	0.04	-0.750			
0.5164	33050.67	3.5780	3.5782	-2.1263	26.01	0.04	-0.750			
0.5229	33468.64	3.5750	3.5750	-2.1636	26.01	0.04	-0.750			
0.5294	33882.21	3.5720	3.5720	-2.1813	26.01	0.04	-0.750			
0.5360	34304.00	3.5690	3.5690	-2.2034	26.01	0.04	-0.750			
0.5427	34733.21	3.5660	3.5661	-2.2289	26.00	0.03	-0.750			
0.5495	35166.07	3.5630	3.5629	-2.2315	25.99	0.02	-0.750			
0.5562	35597.13	3.5600	3.5600	-2.2416	25.99	0.02	-0.750			
0.5629	36024.61	3.5570	3.5571	-2.2410	25.99	0.02	-0.750			
0.5696	36455.28	3.5540	3.5539	-2.2309	25.99	0.02	-0.750			
0.5763	36885.10	3.5510	3.5510	-2.2244	25.99	0.02	-0.750			
0.5830	37314.85	3.5480	3.5481	-2.1959	25.99	0.02	-0.750			
0.5897	37739.40	3.5450	3.5450	-2.1937	26.00	0.03	-0.750			
0.5961	38152.57	3.5420	3.5419	-2.1744	26.01	0.04	-0.750			
0.6026	38566.85	3.5390	3.5390	-2.1487	26.01	0.04	-0.750			
0.6091	38980.25	3.5360	3.5360	-2.1377	26.01	0.04	-0.750			
0.6154	39387.82	3.5330	3.5329	-2.1198	26.01	0.04	-0.750			
0.6219	39801.26	3.5300	3.5298	-2.0761	26.01	0.04	-0.750			
0.6281	40199.80	3.5270	3.5271	-2.0456	26.01	0.04	-0.750			
0.6342	40585.61	3.5240	3.5240	-1.9824	26.01	0.04	-0.750			
0.6400	40960.66	3.5210	3.5209	-1.9131	26.02	0.05	-0.750			
0.6457	41326.40	3.5180	3.5180	-1.8584	26.03	0.06	-0.750			
0.6511	41672.09	3.5150	3.5148	-1.8093	26.03	0.06	-0.750			
0.6565	42014.74	3.5120	3.5120	-1.7651	26.04	0.07	-0.750			
0.6618	42353.32	3.5090	3.5090	-1.7369	26.05	0.08	-0.750			
0.6669	42680.10	3.5060	3.5062	-1.6752	26.07	0.10	-0.750			
0.6719	43000.21	3.5030	3.5031	-1.6289	26.09	0.12	-0.750			
0.6768	43313.81	3.5000	3.4999	-1.5746	26.10	0.13	-0.750			
0.6814	43607.91	3.4970	3.4969	-1.5158	26.10	0.13	-0.750			
0.6858	43891.61	3.4940	3.4943	-1.4706	26.11	0.14	-0.750			
0.6901	44165.99	3.4910	3.4909	-1.4174	26.13	0.16	-0.750			
0.6943	44432.18	3.4880	3.4879	-1.3706	26.14	0.17	-0.750			
0.6984	44694.66	3.4850	3.4852	-1.3341	26.16	0.19	-0.750			
0.7023	44949.60	3.4820	3.4819	-1.2921	26.18	0.21	-0.750			
0.7061	45191.29	3.4790	3.4790	-1.2505	26.19	0.22	-0.750			
0.7097	45423.24	3.4760	3.4760	-1.2024	26.21	0.24	-0.750			
0.7133	45652.73	3.4730	3.4729	-1.1775	26.22	0.25	-0.750			
0.7168	45875.60	3.4700	3.4700	-1.1377	26.24	0.27	-0.750			
0.7202	46090.65	3.4670	3.4669	-1.0972	26.25	0.28	-0.750			
0.7234	46296.73	3.4640	3.4642	-1.0613	26.26	0.29	-0.750			
0.7265	46498.32	3.4610	3.4610	-1.0290	26.27	0.30	-0.750			
0.7295	46689.13	3.4580	3.4580	-0.9916	26.29	0.32	-0.750			
0.7324	46875.63	3.4550	3.4549	-0.9573	26.30	0.33	-0.750			
0.7353	47056.97	3.4520	3.4521	-0.9357	26.31	0.34	-0.750			
0.7380	47232.39	3.4490	3.4490	-0.9151	26.32	0.35	-0.750			
0.7407	47406.48	3.4460	3.4459	-0.8914	26.33	0.36	-0.750			
0.7433	47572.90	3.4430	3.4430	-0.8786	26.33	0.36	-0.750			
0.7459	47738.08	3.4400	3.4400	-0.8716	26.34	0.37	-0.750			
0.7485	47903.13	3.4370	3.4372	-0.8715	26.35	0.38	-0.750			
0.7511	48069.37	3.4340	3.4340	-0.8844	26.36	0.39	-0.750			
0.7537	48237.54	3.4310	3.4310	-0.8919	26.37	0.40	-0.750			
0.7564	48410.09	3.4280	3.4279	-0.9115	26.38	0.41	-0.750			
0.7592	48588.10	3.4250	3.4250	-0.9349	26.39	0.42	-0.750			
0.7620	48768.48	3.4220	3.4220	-0.9498	26.39	0.42	-0.750			
0.7649	48956.12	3.4190	3.4189	-0.9706	26.40	0.43	-0.750			
0.7679	49146.35	3.4160	3.4160	-0.9789	26.41	0.44	-0.750			
0.7709	49336.57	3.4130	3.4129	-0.9789	26.42	0.45	-0.750			
0.7739	49527.21	3.4100	3.4101	-0.9762	26.43	0.46	-0.750			
0.7768	49715.66	3.4070	3.4070	-0.9686	26.44	0.47	-0.750			
0.7797	49901.62	3.4040	3.4040	-0.9479	26.45	0.48	-0.750			
0.7825	50081.81	3.4010	3.4009	-0.9221	26.45	0.48	-0.750			
0.7853	50260.28	3.3980	3.3983	-0.8996	26.46	0.49	-0.750			
0.7880	50430.58	3.3950	3.3949	-0.8710	26.47	0.50	-0.750			
0.7905	50593.25	3.3920	3.3921	-0.8423	26.47	0.50	-0.750			
0.7930	50752.96	3.3890	3.3889	-0.8107	26.48	0.51	-0.750			
0.7954	50906.91	3.3860	3.3859	-0.7842	26.48	0.51	-0.750			
0.7977	51053.23	3.3830	3.3832	-0.7521	26.49	0.52	-0.750			
0.7999	51192.65	3.3800	3.3800	-0.7303	26.49	0.52	-0.750			
0.8020	51330.72	3.3770	3.3770	-0.7078	26.50	0.53	-0.750			
0.8041	51462.13	3.3740	3.3739	-0.6809	26.50	0.53	-0.750			
0.8061	51591.54	3.3710	3.3710	-0.6588	26.51	0.54	-0.750			
0.8081	51720.39	3.3680	3.3681	-0.6392	26.51	0.54	-0.750			
0.8100	51840.30	3.3650	3.3650	-0.6109	26.52	0.55	-0.750			
0.8118	51954.20	3.3620	3.3620	-0.5851	26.52	0.55	-0.750			
0.8135	52063.03	3.3590	3.3590	-0.5589	26.53	0.56	-0.750			
0.8151	52166.91	3.3560	3.3559	-0.5378	26.53	0.56	-0.750			
0.8167	52267.53	3.3530	3.3531	-0.5182	26.54	0.57	-0.750			
0.8182	52365.84	3.3500	3.3500	-0.5009	26.54	0.57	-0.750			
0.8197	52459.90	3.3470	3.3470	-0.4812	26.55	0.58	-0.750			
0.8211	52550.47	3.3440	3.3440	-0.4627	26.55	0.58	-0.750			
0.8225	52636.99	3.3410	3.3410	-0.4475	26.56	0.59	-0.750			
0.8238	52721.02	3.3380	3.3379	-0.4346	26.56	0.59	-0.750			
0.8250	52802.87	3.3350	3.3350	-0.4211	26.57	0.60	-0.750			
0.8263	52883.01	3.3320	3.3320	-0.4071	26.58	0.61	-0.750			
0.8275	52960.34	3.3290	3.3290	-0.3935	26.58	0.61	-0.750			
0.8287	53034.38	3.3260	3.3261	-0.3818	26.59	0.62	-0.750			
0.8298	53105.74	3.3230	3.3230	-0.3688	26.59	0.62	-0.750			
0.8309	53174.73	3.3200	3.3198	-0.3571	26.60	0.63	-0.750			
0.8319	53241.45	3.3170	3.3171	-0.3458	26.60	0.63	-0.750			
0.8329	53307.47	3.3140	3.3140	-0.3371	26.61	0.64	-0.750			
0.8339	53372.20	3.3110	3.3110	-0.3290	26.61	0.64	-0.750			
0.8349	53434.32	3.3080	3.3080	-0.3171	26.62	0.65	-0.750			
0.8358	53493.00	3.3050	3.3050	-0.3071	26.62	0.65	-0.750			
0.8367	53551.52	3.3020	3.3020	-0.2996	26.63	0.66	-0.750			
0.8376	53607.48	3.2990	3.2990	-0.2919	26.63	0.66	-0.750			
0.8385	53662.81	3.2960	3.2959	-0.2842	26.64	0.67	-0.750			
0.8393	53716.90	3.2930	3.2930	-0.2777	26.64	0.67	-0.750			
0.8401	53769.28	3.2900	3.2902	-0.2722	26.65	0.68	-0.750			
0.8410	53821.17	3.2870	3.2870	-0.2669	26.65	0.68	-0.750			
0.8417	53871.35	3.2840	3.2839	-0.2621	26.65	0.68	-0.750			
0.8425	53921.19	3.2810	3.2810	-0.2566	26.66	0.69	-0.750			
0.8433	53970.21	3.2780	3.2781	-0.2510	26.66	0.69	-0.750			
0.8440	54018.60	3.2750	3.2749	-0.2460	26.67	0.70	-0.750			
0.8448	54064.99	3.2720	3.2721	-0.2409	26.67	0.70	-0.750			
0.8455	54109.95	3.2690	3.2690	-0.2353	26.68	0.71	-0.750			
0.8462	54154.72	3.2660	3.2659	-0.2312	26.68	0.71	-0.750			
0.8469	54198.71	3.2630	3.2630	-0.2272	26.68	0.71	-0.750			
0.8475	54241.51	3.2600	3.2600	-0.2226	26.69	0.72	-0.750			
0.8482	54284.34	3.2570	3.2570	-0.2192	26.69	0.72	-0.750			
0.8488	54326.17	3.2540	3.2540	-0.2157	26.70	0.73	-0.750			
0.8495	54367.15	3.2510	3.2509	-0.2111	26.70	0.73	-0.750			
0.8501	54406.80	3.2480	3.2480	-0.2077	26.70	0.73	-0.750			
0.8507	54446.30	3.2450	3.2450	-0.2038	26.71	0.74	-0.750			
0.8513	54484.88	3.2420	3.2419	-0.2011	26.71	0.74	-0.750			
0.8519	54523.26	3.2390	3.2391	-0.1986	26.72	0.75	-0.750			
0.8525	54561.08	3.2360	3.2361	-0.1961	26.72	0.75	-0.750			
0.8531	54598.58	3.2330	3.2329	-0.1933	26.73	0.76	-0.750			
0.8537	54635.24	3.2300	3.2300	-0.1910	26.73	0.76	-0.750			
0.8542	54671.70	3.2270	3.2270	-0.1888	26.73	0.76	-0.750			
0.8548	54707.72	3.2240	3.2240	-0.1859	26.74	0.77	-0.750			
0.8554	54743.43	3.2210	3.2210	-0.1839	26.74	0.77	-0.750			
0.8559	54778.05	3.2180	3.2180	-0.1809	26.75	0.78	-0.750			
0.8564	54812.59	3.2150	3.2150	-0.1789	26.75	0.78	-0.750			
0.8570	54846.83	3.2120	3.2120	-0.1767	26.75	0.78	-0.750			
0.8575	54880.57	3.2090	3.2090	-0.1748	26.76	0.79	-0.750			
0.8580	54913.65	3.2060	3.2061	-0.1724	26.76	0.79	-0.750			
0.8585	54946.61	3.2030	3.2029	-0.1709	26.77	0.80	-0.750			
0.8591	54979.69	3.2000	3.2000	-0.1685	26.77	0.80	-0.750			
0.8596	55011.72	3.1970	3.1970	-0.1663	26.77	0.80	-0.750			
0.8601	55043.31	3.1940	3.1941	-0.1638	26.78	0.81	-0.750			
0.8605	55074.54	3.1910	3.1912	-0.1616	26.78	0.81	-0.750			
0.8610	55105.19	3.1880	3.1879	-0.1606	26.79	0.82	-0.750			
0.8615	55135.50	3.1850	3.1851	-0.1593	26.79	0.82	-0.750			
0.8620	55166.30	3.1820	3.1819	-0.1579	26.80	0.83	-0.750			
0.8624	55196.40	3.1790	3.1789	-0.1568	26.81	0.84	-0.750			
0.8629	55226.84	3.1760	3.1760	-0.1558	26.81	0.84	-0.750			
0.8634	55256.51	3.1730	3.1732	-0.1543	26.82	0.85	-0.750			
0.8638	55286.15	3.1700	3.1699	-0.1528	26.83	0.86	-0.750			
0.8643	55315.19	3.1670	3.1670	-0.1514	26.83	0.86	-0.750			
0.8647	55343.74	3.1640	3.1640	-0.1497	26.84	0.87	-0.750			
0.8652	55372.46	3.1610	3.1611	-0.1480	26.84	0.87	-0.750			
0.8656	55401.13	3.1580	3.1579	-0.1473	26.85	0.88	-0.750			
0.8661	55429.05	3.1550	3.1551	-0.1465	26.86	0.89	-0.750			
0.8665	55457.09	3.1520	3.1520	-0.1448	26.86	0.89	-0.750			
0.8669	55484.78	3.1490	3.1489	-0.1430	26.87	0.90	-0.750			
0.8674	55512.08	3.1460	3.1459	-0.1414	26.87	0.90	-0.750			
0.8678	55539.07	3.1430	3.1432	-0.1402	26.88	0.91	-0.750			
0.8682	55565.76	3.1400	3.1400	-0.1392	26.88	0.91	-0.750			
0.8686	55592.69	3.1370	3.1369	-0.1376	26.89	0.92	-0.750			
0.8690	55618.92	3.1340	3.1340	-0.1357	26.89	0.92	-0.750			
0.8694	55644.52	3.1310	3.1311	-0.1340	26.90	0.93	-0.750			
0.8698	55670.25	3.1280	3.1281	-0.1333	26.90	0.93	-0.750			
0.8702	55695.62	3.1250	3.1250	-0.1321	26.91	0.94	-0.750			
0.8706	55720.86	3.1220	3.1219	-0.1309	26.91	0.94	-0.750			
0.8710	55745.60	3.1190	3.1190	-0.1301	26.92	0.95	-0.750			
0.8714	55770.24	3.1160	3.1160	-0.1299	26.92	0.95	-0.750			
0.8718	55795.64	3.1130	3.1130	-0.1301	26.93	0.96	-0.750			
0.8722	55820.54	3.1100	3.1099	-0.1294	26.93	0.96	-0.750			
0.8726	55845.41	3.1070	3.1070	-0.1282	26.93	0.96	-0.750			
0.8730	55870.06	3.1040	3.1042	-0.1272	26.94	0.97	-0.750			
0.8734	55894.55	3.1010	3.1009	-0.1263	26.94	0.97	-0.750			
0.8737	55918.44	3.0980	3.0980	-0.1253	26.95	0.98	-0.750			
0.8741	55942.26	3.0950	3.0950	-0.1240	26.95	0.98	-0.750			
0.8745	55965.65	3.0920	3.0920	-0.1228	26.96	0.99	-0.750			
0.8748	55989.21	3.0890	3.0890	-0.1226	26.97	1.00	-0.750			
0.8752	56012.84	3.0860	3.0861	-0.1220	26.97	1.00	-0.750			
0.8756	56036.30	3.0830	3.0830	-0.1216	26.98	1.01	-0.750			
0.8759	56059.68	3.0800	3.0801	-0.1205	26.98	1.01	-0.750			
0.8763	56082.90	3.0770	3.0770	-0.1197	26.99	1.02	-0.750			
0.8767	56105.63	3.0740	3.0740	-0.1189	26.99	1.02	-0.750			
0.8770	56128.27	3.0710	3.0710	-0.1178	27.00	1.03	-0.750			
0.8774	56150.83	3.0680	3.0679	-0.1168	27.00	1.03	-0.750			
0.8777	56173.14	3.0650	3.0650	-0.1159	27.01	1.04	-0.750			
0.8781	56195.23	3.0620	3.0621	-0.1154	27.01	1.04	-0.750			
0.8784	56217.20	3.0590	3.0591	-0.1146	27.02	1.05	-0.750			
0.8787	56239.09	3.0560	3.0558	-0.1145	27.02	1.05	-0.750			
0.8791	56260.99	3.0530	3.0530	-0.1141	27.03	1.06	-0.750			
0.8794	56283.04	3.0500	3.0500	-0.1131	27.03	1.06	-0.750			
0.8798	56304.69	3.0470	3.0471	-0.1124	27.03	1.06	-0.750			
0.8801	56326.25	3.0440	3.0442	-0.1113	27.04	1.07	-0.750			
0.8804	56347.84	3.0410	3.0410	-0.1106	27.04	1.07	-0.750			
0.8808	56368.82	3.0380	3.0380	-0.1099	27.05	1.08	-0.750			
0.8811	56389.71	3.0350	3.0349	-0.1088	27.05	1.08	-0.750			
0.8814	56410.03	3.0320	3.0319	-0.1080	27.06	1.09	-0.750			
0.8817	56430.81	3.0290	3.0290	-0.1084	27.06	1.09	-0.750			
0.8821	56451.81	3.0260	3.0261	-0.1078	27.07	1.10	-0.750			
0.8824	56472.63	3.0230	3.0229	-0.1078	27.07	1.10	-0.750			
0.8827	56493.34	3.0200	3.0200	-0.1071	27.08	1.11	-0.750			
0.8830	56514.07	3.0170	3.0172	-0.1068	27.08	1.11	-0.750			
0.8834	56534.54	3.0140	3.0139	-0.1056	27.09	1.12	-0.750			
0.8837	56554.92	3.0110	3.0110	-0.1046	27.09	1.12	-0.750			
0.8840	56574.88	3.0080	3.0080	-0.1033	27.09	1.12	-0.751			
0.8843	56594.49	3.0050	3.0050	-0.1026	27.10	1.13	-0.751			
0.8846	56614.12	3.0020	3.0020	-0.1018	27.10	1.13	-0.751			
