Ah_balance (normalized)	Ah_balance (mAh)	Voltage - fit (V)	Voltage -  interpolate (V)	dQ/dV (1/V)	Temperature (°C)	Temperature - diff (°C)	Current (C)	R_DC 0ms (mOhm)	R_DC 50ms (mOhm)	R_DC 50 ms PEC (mOhm)
0.0539	3451.32	4.1970	4.1967	0.7539	26.47	0.48	0.750			
0.0562	3595.63	4.1940	4.1941	0.7591	26.47	0.48	0.750			
0.0585	3746.56	4.1910	4.1910	0.7692	26.47	0.48	0.750			
0.0608	3891.57	4.1880	4.1880	0.7753	26.46	0.47	0.750			
0.0631	4041.36	4.1850	4.1851	0.7770	26.46	0.47	0.750			
0.0655	4192.34	4.1820	4.1821	0.7826	26.46	0.47	0.750			
0.0679	4345.52	4.1790	4.1790	0.7807	26.46	0.47	0.750			
0.0703	4496.83	4.1760	4.1762	0.7684	26.46	0.47	0.750			
0.0725	4642.81	4.1730	4.1731	0.7619	26.46	0.47	0.750			
0.0748	4789.21	4.1700	4.1701	0.7618	26.45	0.46	0.750			
0.0770	4930.97	4.1670	4.1668	0.7488	26.45	0.46	0.750			
0.0793	5072.22	4.1640	4.1639	0.7502	26.45	0.46	0.750			
0.0815	5215.44	4.1610	4.1612	0.7562	26.45	0.46	0.750			
0.0838	5365.16	4.1580	4.1579	0.7666	26.45	0.46	0.750			
0.0861	5513.05	4.1550	4.1549	0.7686	26.44	0.45	0.750			
0.0884	5659.89	4.1520	4.1521	0.7697	26.44	0.45	0.750			
0.0907	5806.00	4.1490	4.1490	0.7734	26.44	0.45	0.750			
0.0931	5957.41	4.1460	4.1460	0.7757	26.44	0.45	0.750			
0.0954	6106.18	4.1430	4.1429	0.7692	26.44	0.45	0.750			
0.0977	6252.80	4.1400	4.1401	0.7717	26.44	0.45	0.750			
0.1000	6402.04	4.1370	4.1371	0.7749	26.44	0.45	0.750			
0.1023	6549.65	4.1340	4.1339	0.7739	26.44	0.45	0.750			
0.1046	6696.52	4.1310	4.1310	0.7745	26.44	0.45	0.750			
0.1070	6845.54	4.1280	4.1280	0.7799	26.44	0.45	0.750			
0.1094	6998.57	4.1250	4.1250	0.7797	26.44	0.45	0.750			
0.1117	7147.34	4.1220	4.1220	0.7799	26.44	0.45	0.750			
0.1140	7295.21	4.1190	4.1192	0.7785	26.44	0.45	0.750			
0.1163	7445.29	4.1160	4.1157	0.7851	26.44	0.45	0.750			
0.1187	7595.84	4.1130	4.1131	0.7848	26.44	0.45	0.750			
0.1211	7747.38	4.1100	4.1100	0.7857	26.44	0.45	0.750			
0.1234	7898.06	4.1070	4.1071	0.7974	26.44	0.45	0.750			
0.1258	8053.98	4.1040	4.1039	0.8020	26.44	0.45	0.750			
0.1282	8205.49	4.1010	4.1009	0.7995	26.44	0.45	0.750			
0.1306	8360.88	4.0980	4.0981	0.7998	26.44	0.45	0.750			
0.1331	8516.01	4.0950	4.0951	0.7971	26.44	0.45	0.750			
0.1354	8668.73	4.0920	4.0920	0.8024	26.44	0.45	0.750			
0.1379	8822.54	4.0890	4.0890	0.7996	26.44	0.45	0.750			
0.1402	8973.26	4.0860	4.0859	0.7990	26.44	0.45	0.750			
0.1426	9128.16	4.0830	4.0831	0.8058	26.44	0.45	0.750			
0.1451	9283.78	4.0800	4.0800	0.8074	26.44	0.45	0.750			
0.1475	9439.15	4.0770	4.0771	0.8135	26.44	0.45	0.750			
0.1499	9596.49	4.0740	4.0740	0.8157	26.44	0.45	0.750			
0.1524	9751.66	4.0710	4.0710	0.8145	26.44	0.45	0.750			
0.1548	9910.14	4.0680	4.0680	0.8171	26.44	0.45	0.750			
0.1573	10066.86	4.0650	4.0651	0.8185	26.44	0.45	0.750			
0.1598	10224.75	4.0620	4.0619	0.8203	26.44	0.45	0.750			
0.1622	10382.00	4.0590	4.0590	0.8220	26.45	0.46	0.750			
0.1647	10539.23	4.0560	4.0562	0.8252	26.45	0.46	0.750			
0.1672	10697.91	4.0530	4.0529	0.8314	26.45	0.46	0.750			
0.1697	10858.80	4.0500	4.0500	0.8319	26.45	0.46	0.750			
0.1722	11018.31	4.0470	4.0470	0.8364	26.45	0.46	0.750			
0.1747	11178.76	4.0440	4.0440	0.8362	26.46	0.47	0.750			
0.1772	11340.94	4.0410	4.0410	0.8401	26.46	0.47	0.750			
0.1797	11500.74	4.0380	4.0379	0.8440	26.46	0.47	0.750			
0.1823	11665.79	4.0350	4.0350	0.8356	26.46	0.47	0.750			
0.1848	11825.42	4.0320	4.0320	0.8407	26.46	0.47	0.750			
0.1873	11987.70	4.0290	4.0291	0.8410	26.46	0.47	0.750			
0.1898	12148.01	4.0260	4.0261	0.8434	26.46	0.47	0.750			
0.1923	12309.51	4.0230	4.0230	0.8468	26.46	0.47	0.750			
0.1949	12472.70	4.0200	4.0200	0.8439	26.46	0.47	0.750			
0.1974	12633.85	4.0170	4.0170	0.8486	26.46	0.47	0.750			
0.2000	12799.32	4.0140	4.0141	0.8576	26.46	0.47	0.750			
0.2025	12962.62	4.0110	4.0111	0.8573	26.46	0.47	0.750			
0.2051	13128.81	4.0080	4.0080	0.8645	26.46	0.47	0.750			
0.2077	13294.97	4.0050	4.0051	0.8671	26.47	0.48	0.750			
0.2103	13462.27	4.0020	4.0020	0.8727	26.47	0.48	0.750			
0.2130	13630.83	3.9990	3.9990	0.8783	26.47	0.48	0.750			
0.2156	13799.61	3.9960	3.9960	0.8783	26.48	0.49	0.750			
0.2183	13968.67	3.9930	3.9930	0.8831	26.48	0.49	0.750			
0.2209	14139.57	3.9900	3.9900	0.8790	26.48	0.49	0.750			
0.2236	14307.61	3.9870	3.9871	0.8821	26.48	0.49	0.750			
0.2262	14476.23	3.9840	3.9840	0.8877	26.48	0.49	0.750			
0.2289	14646.97	3.9810	3.9807	0.8868	26.48	0.49	0.750			
0.2315	14817.24	3.9780	3.9781	0.8871	26.48	0.49	0.750			
0.2342	14987.76	3.9750	3.9752	0.8928	26.48	0.49	0.750			
0.2369	15161.59	3.9720	3.9720	0.8947	26.48	0.49	0.750			
0.2396	15334.93	3.9690	3.9689	0.8963	26.48	0.49	0.750			
0.2422	15502.41	3.9660	3.9661	0.8947	26.48	0.49	0.750			
0.2449	15675.78	3.9630	3.9630	0.8938	26.48	0.49	0.750			
0.2476	15849.52	3.9600	3.9599	0.8990	26.48	0.49	0.750			
0.2503	16020.94	3.9570	3.9570	0.8996	26.48	0.49	0.750			
0.2530	16192.88	3.9540	3.9540	0.9013	26.48	0.49	0.750			
0.2557	16367.09	3.9510	3.9510	0.9054	26.48	0.49	0.750			
0.2585	16540.84	3.9480	3.9480	0.9041	26.48	0.49	0.750			
0.2612	16714.48	3.9450	3.9451	0.9049	26.48	0.49	0.750			
0.2639	16890.12	3.9420	3.9420	0.9103	26.48	0.49	0.750			
0.2666	17062.34	3.9390	3.9390	0.9121	26.48	0.49	0.750			
0.2693	17237.87	3.9360	3.9360	0.9087	26.48	0.49	0.750			
0.2721	17413.15	3.9330	3.9330	0.9079	26.48	0.49	0.750			
0.2748	17588.57	3.9300	3.9300	0.9094	26.49	0.50	0.750			
0.2775	17762.50	3.9270	3.9272	0.9090	26.49	0.50	0.750			
0.2803	17936.63	3.9240	3.9240	0.9096	26.49	0.50	0.750			
0.2830	18110.52	3.9210	3.9210	0.9029	26.49	0.50	0.750			
0.2856	18281.35	3.9180	3.9180	0.9112	26.48	0.49	0.750			
0.2884	18458.29	3.9150	3.9151	0.9214	26.48	0.49	0.750			
0.2912	18635.24	3.9120	3.9117	0.9233	26.48	0.49	0.750			
0.2940	18815.53	3.9090	3.9090	0.9202	26.48	0.49	0.750			
0.2967	18991.90	3.9060	3.9060	0.9252	26.47	0.48	0.750			
0.2995	19170.36	3.9030	3.9030	0.9294	26.47	0.48	0.750			
0.3023	19348.37	3.9000	3.9001	0.9373	26.46	0.47	0.750			
0.3051	19524.58	3.8970	3.8970	0.9312	26.46	0.47	0.750			
0.3079	19704.70	3.8940	3.8940	0.9455	26.45	0.46	0.750			
0.3107	19885.76	3.8910	3.8911	0.9570	26.45	0.46	0.750			
0.3136	20071.16	3.8880	3.8880	0.9684	26.44	0.45	0.750			
0.3166	20259.27	3.8850	3.8849	0.9616	26.44	0.45	0.750			
0.3195	20448.07	3.8820	3.8818	0.9535	26.44	0.45	0.750			
0.3223	20630.14	3.8790	3.8793	0.9556	26.43	0.44	0.750			
0.3252	20811.95	3.8760	3.8759	0.9654	26.43	0.44	0.750			
0.3280	20992.95	3.8730	3.8730	0.9645	26.42	0.43	0.750			
0.3309	21179.93	3.8700	3.8701	0.9803	26.41	0.42	0.750			
0.3339	21368.79	3.8670	3.8670	0.9798	26.40	0.41	0.750			
0.3369	21560.43	3.8640	3.8641	0.9918	26.39	0.40	0.750			
0.3399	21751.90	3.8610	3.8612	1.0007	26.39	0.40	0.750			
0.3428	21942.05	3.8580	3.8581	0.9975	26.38	0.39	0.750			
0.3458	22133.16	3.8550	3.8551	0.9989	26.37	0.38	0.750			
0.3488	22325.12	3.8520	3.8520	1.0086	26.36	0.37	0.750			
0.3519	22520.35	3.8490	3.8490	1.0172	26.36	0.37	0.750			
0.3550	22716.98	3.8460	3.8460	1.0138	26.35	0.36	0.750			
0.3580	22912.65	3.8430	3.8431	1.0183	26.34	0.35	0.750			
0.3611	23109.12	3.8400	3.8400	1.0229	26.33	0.34	0.750			
0.3642	23306.92	3.8370	3.8370	1.0291	26.32	0.33	0.750			
0.3673	23505.35	3.8340	3.8340	1.0266	26.31	0.32	0.750			
0.3703	23700.68	3.8310	3.8310	1.0264	26.30	0.31	0.750			
0.3734	23897.37	3.8280	3.8280	1.0356	26.30	0.31	0.750			
0.3765	24096.84	3.8250	3.8250	1.0452	26.29	0.30	0.750			
0.3797	24300.33	3.8220	3.8220	1.0420	26.29	0.30	0.750			
0.3828	24499.40	3.8190	3.8190	1.0475	26.28	0.29	0.750			
0.3860	24701.30	3.8160	3.8161	1.0573	26.27	0.28	0.750			
0.3891	24905.39	3.8130	3.8130	1.0670	26.26	0.27	0.750			
0.3924	25112.25	3.8100	3.8098	1.0601	26.25	0.26	0.750			
0.3955	25313.34	3.8070	3.8071	1.0729	26.24	0.25	0.750			
0.3987	25520.00	3.8040	3.8041	1.0829	26.24	0.25	0.750			
0.4020	25729.55	3.8010	3.8010	1.0980	26.23	0.24	0.750			
0.4053	25940.72	3.7980	3.7981	1.0958	26.23	0.24	0.750			
0.4086	26150.92	3.7950	3.7951	1.1136	26.22	0.23	0.750			
0.4120	26365.76	3.7920	3.7920	1.1313	26.20	0.21	0.750			
0.4154	26586.96	3.7890	3.7889	1.1458	26.19	0.20	0.750			
0.4188	26805.43	3.7860	3.7860	1.1542	26.18	0.19	0.750			
0.4223	27030.05	3.7830	3.7831	1.1783	26.17	0.18	0.750			
0.4259	27257.89	3.7800	3.7801	1.1970	26.16	0.17	0.750			
0.4295	27490.72	3.7770	3.7770	1.2075	26.15	0.16	0.750			
0.4332	27724.96	3.7740	3.7740	1.2177	26.14	0.15	0.750			
0.4371	27972.14	3.7710	3.7709	1.1935	26.12	0.13	0.750			
0.4405	28189.06	3.7680	3.7681	1.2369	26.11	0.12	0.750			
0.4440	28417.54	3.7650	3.7654	1.2893	26.11	0.12	0.750			
0.4480	28670.62	3.7620	3.7623	1.3420	26.10	0.11	0.750	0.349	0.442	
0.4521	28936.16	3.7590	3.7593	1.3867	26.09	0.10	0.750			
0.4565	29212.87	3.7560	3.7563	1.4260	26.08	0.09	0.750			
0.4609	29500.54	3.7530	3.7532	1.4661	26.07	0.08	0.750			
0.4654	29788.73	3.7500	3.7498	1.5055	26.05	0.06	0.750			
0.4696	30056.37	3.7470	3.7468	1.4816	26.04	0.05	0.750			
0.4742	30345.73	3.7440	3.7441	1.5202	26.03	0.04	0.750			
0.4788	30642.15	3.7410	3.7408	1.5572	26.02	0.03	0.750			
0.4836	30949.68	3.7380	3.7381	1.5876	26.01	0.02	0.750			
0.4883	31254.38	3.7350	3.7351	1.6371	26.00	0.01	0.750			
0.4932	31567.25	3.7320	3.7320	1.6759	25.98	-0.01	0.750			
0.4984	31895.19	3.7290	3.7290	1.7141	25.97	-0.02	0.750			
0.5035	32226.30	3.7260	3.7259	1.7679	25.95	-0.04	0.750			
0.5089	32572.38	3.7230	3.7231	1.8079	25.93	-0.06	0.750			
0.5145	32925.63	3.7200	3.7200	1.8542	25.92	-0.07	0.750			
0.5201	33284.56	3.7170	3.7169	1.9065	25.90	-0.09	0.750			
0.5257	33647.48	3.7140	3.7138	1.9474	25.88	-0.11	0.750			
0.5318	34033.48	3.7110	3.7112	2.0196	25.87	-0.12	0.750			
0.5379	34425.77	3.7080	3.7079	2.0975	25.86	-0.13	0.750			
0.5443	34833.40	3.7050	3.7050	2.1403	25.84	-0.15	0.750			
0.5508	35252.03	3.7020	3.7024	2.2129	25.83	-0.16	0.750			
0.5576	35687.96	3.6990	3.6991	2.2877	25.81	-0.18	0.750			
0.5645	36128.29	3.6960	3.6959	2.3398	25.79	-0.20	0.750			
0.5716	36583.76	3.6930	3.6930	2.4120	25.78	-0.21	0.750			
0.5790	37055.89	3.6900	3.6899	2.5095	25.77	-0.22	0.750			
0.5868	37555.54	3.6870	3.6871	2.5756	25.75	-0.24	0.750			
0.5946	38053.22	3.6840	3.6840	2.6395	25.73	-0.26	0.750			
0.6025	38563.00	3.6810	3.6812	2.7137	25.71	-0.28	0.750			
0.6108	39090.60	3.6780	3.6780	2.7608	25.70	-0.29	0.750			
0.6192	39630.13	3.6750	3.6751	2.8550	25.70	-0.29	0.750			
0.6281	40200.01	3.6720	3.6720	2.9855	25.68	-0.31	0.750			
0.6372	40782.50	3.6690	3.6689	2.9991	25.67	-0.32	0.750			
0.6466	41380.05	3.6660	3.6660	2.9625	25.67	-0.32	0.750			
0.6555	41950.35	3.6630	3.6629	2.7708	25.68	-0.31	0.750			
0.6633	42450.90	3.6600	3.6605	2.4618	25.68	-0.31	0.750			
0.6701	42889.27	3.6570	3.6574	2.2070	25.68	-0.31	0.750			
0.6762	43277.24	3.6540	3.6543	1.9587	25.67	-0.32	0.750			
0.6814	43606.94	3.6510	3.6509	1.7595	25.67	-0.32	0.750			
0.6864	43928.16	3.6480	3.6481	1.6237	25.68	-0.31	0.750			
0.6910	44226.94	3.6450	3.6447	1.5135	25.68	-0.31	0.750			
0.6954	44504.38	3.6420	3.6422	1.4225	25.68	-0.31	0.750			
0.6995	44767.79	3.6390	3.6392	1.3427	25.68	-0.31	0.750			
0.7033	45010.55	3.6360	3.6358	1.2743	25.68	-0.31	0.750			
0.7069	45241.59	3.6330	3.6330	1.2173	25.68	-0.31	0.750			
0.7104	45468.56	3.6300	3.6300	1.2015	25.68	-0.31	0.750			
0.7140	45695.75	3.6270	3.6271	1.2070	25.68	-0.31	0.750			
0.7176	45926.48	3.6240	3.6240	1.1950	25.68	-0.31	0.750			
0.7212	46156.84	3.6210	3.6210	1.2042	25.69	-0.30	0.750			
0.7248	46389.01	3.6180	3.6180	1.2090	25.69	-0.30	0.750			
0.7285	46625.81	3.6150	3.6148	1.1948	25.70	-0.29	0.750			
0.7321	46855.97	3.6120	3.6121	1.1902	25.70	-0.29	0.750			
0.7357	47084.07	3.6090	3.6091	1.1735	25.69	-0.30	0.750			
0.7392	47305.78	3.6060	3.6061	1.1588	25.69	-0.30	0.750			
0.7426	47528.09	3.6030	3.6030	1.1388	25.69	-0.30	0.750			
0.7460	47742.32	3.6000	3.6001	1.1460	25.69	-0.30	0.750			
0.7494	47959.44	3.5970	3.5970	1.1528	25.70	-0.29	0.750			
0.7529	48185.09	3.5940	3.5938	1.1580	25.70	-0.29	0.750			
0.7563	48402.83	3.5910	3.5911	1.1846	25.70	-0.29	0.750			
0.7599	48632.05	3.5880	3.5881	1.2169	25.70	-0.29	0.750			
0.7636	48868.19	3.5850	3.5850	1.2511	25.70	-0.29	0.750			
0.7673	49107.68	3.5820	3.5818	1.2942	25.70	-0.29	0.750			
0.7713	49361.17	3.5790	3.5792	1.3502	25.70	-0.29	0.750			
0.7755	49630.33	3.5760	3.5760	1.3927	25.70	-0.29	0.750			
0.7797	49902.76	3.5730	3.5730	1.4465	25.70	-0.29	0.750			
0.7841	50182.94	3.5700	3.5701	1.4748	25.70	-0.29	0.750			
0.7886	50473.29	3.5670	3.5669	1.5220	25.70	-0.29	0.750			
0.7933	50768.49	3.5640	3.5640	1.5548	25.70	-0.29	0.750			
0.7979	51067.49	3.5610	3.5611	1.5870	25.70	-0.29	0.750			
0.8028	51378.45	3.5580	3.5580	1.6095	25.70	-0.29	0.750			
0.8077	51692.40	3.5550	3.5548	1.6232	25.70	-0.29	0.750			
0.8126	52004.19	3.5520	3.5521	1.6270	25.70	-0.29	0.750			
0.8175	52321.04	3.5490	3.5492	1.6452	25.70	-0.29	0.750			
0.8224	52633.71	3.5460	3.5458	1.6631	25.70	-0.29	0.750			
0.8274	52952.63	3.5430	3.5431	1.6772	25.70	-0.29	0.750			
0.8325	53279.20	3.5400	3.5402	1.7175	25.71	-0.28	0.750			
0.8377	53610.64	3.5370	3.5371	1.7513	25.71	-0.28	0.750			
0.8432	53961.60	3.5340	3.5339	1.7687	25.73	-0.26	0.750			
0.8489	54329.83	3.5310	3.5308	1.6615	25.74	-0.25	0.750			
0.8541	54662.64	3.5280	3.5281	1.5111	25.76	-0.23	0.750			
0.8584	54937.63	3.5250	3.5257	1.2496	25.78	-0.21	0.750			
0.8619	55163.59	3.5220	3.5223	1.0100	25.80	-0.19	0.750			
0.8643	55316.70	3.5190	3.5185	0.7514	25.81	-0.18	0.750			
0.8658	55408.73	3.5160	3.5154	0.5667	25.82	-0.17	0.750			
0.8668	55476.07	3.5130	3.5129	0.4280	25.82	-0.17	0.750			
0.8679	55545.52	3.5100	3.5099	0.3802	25.83	-0.16	0.750			
0.8689	55610.16	3.5070	3.5069	0.3449	25.83	-0.16	0.750			
0.8699	55672.25	3.5040	3.5041	0.3270	25.84	-0.15	0.750			
0.8708	55732.61	3.5010	3.5010	0.3121	25.84	-0.15	0.750			
0.8717	55790.62	3.4980	3.4979	0.2996	25.85	-0.14	0.750			
0.8726	55847.14	3.4950	3.4949	0.2897	25.85	-0.14	0.750			
0.8735	55901.48	3.4920	3.4922	0.2827	25.86	-0.13	0.750			
0.8743	55954.62	3.4890	3.4889	0.2753	25.86	-0.13	0.750			
0.8751	56006.47	3.4860	3.4859	0.2681	25.87	-0.12	0.750			
0.8759	56057.18	3.4830	3.4830	0.2624	25.87	-0.12	0.750			
0.8767	56106.68	3.4800	3.4801	0.2545	25.88	-0.11	0.750			
0.8774	56155.76	3.4770	3.4771	0.2497	25.88	-0.11	0.750			
0.8782	56202.97	3.4740	3.4740	0.2444	25.89	-0.10	0.750			
0.8789	56248.60	3.4710	3.4707	0.2397	25.89	-0.10	0.750			
0.8796	56294.27	3.4680	3.4680	0.2347	25.89	-0.10	0.750			
0.8803	56339.03	3.4650	3.4650	0.2312	25.90	-0.09	0.750			
0.8810	56383.51	3.4620	3.4620	0.2264	25.91	-0.08	0.750			
0.8817	56427.11	3.4590	3.4591	0.2225	25.91	-0.08	0.750			
0.8823	56468.63	3.4560	3.4560	0.2161	25.92	-0.07	0.750			
0.8830	56509.61	3.4530	3.4530	0.2108	25.92	-0.07	0.750			
0.8836	56549.30	3.4500	3.4499	0.2064	25.93	-0.06	0.750			
0.8842	56588.24	3.4470	3.4470	0.2006	25.93	-0.06	0.750			
0.8848	56626.64	3.4440	3.4440	0.1969	25.94	-0.05	0.750			
0.8854	56663.97	3.4410	3.4410	0.1920	25.94	-0.05	0.750			
0.8859	56700.62	3.4380	3.4381	0.1866	25.95	-0.04	0.750			
0.8865	56736.07	3.4350	3.4349	0.1809	25.95	-0.04	0.750			
0.8870	56770.15	3.4320	3.4319	0.1750	25.95	-0.04	0.750			
0.8876	56803.20	3.4290	3.4291	0.1693	25.96	-0.03	0.750			
0.8880	56835.02	3.4260	3.4261	0.1638	25.96	-0.03	0.750			
0.8885	56865.94	3.4230	3.4229	0.1590	25.97	-0.02	0.750			
0.8890	56895.66	3.4200	3.4201	0.1534	25.97	-0.02	0.750			
0.8894	56924.68	3.4170	3.4169	0.1489	25.97	-0.02	0.750			
0.8899	56953.22	3.4140	3.4139	0.1431	25.98	-0.01	0.750			
0.8903	56980.45	3.4110	3.4110	0.1378	25.98	-0.01	0.750			
0.8907	57006.62	3.4080	3.4082	0.1316	25.98	-0.01	0.750			
0.8911	57031.22	3.4050	3.4050	0.1246	25.99	-0.00	0.750			
0.8915	57054.72	3.4020	3.4014	0.1176	25.99	0.00	0.750			
0.8918	57076.54	3.3990	3.3991	0.1101	25.99	0.00	0.750			
0.8922	57097.96	3.3960	3.3958	0.1004	26.00	0.01	0.750			
0.8924	57116.70	3.3930	3.3930	0.0920	26.00	0.01	0.750			
0.8927	57134.13	3.3900	3.3900	0.0842	26.00	0.01	0.750			
0.8930	57149.26	3.3870	3.3872	0.0734	26.00	0.01	0.750			
0.8932	57162.32	3.3840	3.3844	0.0626	26.00	0.01	0.750			
0.8933	57174.07	3.3810	3.3815	0.0512	26.00	0.01	0.750			
0.8935	57182.74	3.3780	3.3788	0.0392	26.01	0.02	0.750			
0.8936	57189.12	3.3750	3.3762	0.0272	26.01	0.02	0.750			
