Ah_balance (normalized)	Ah_balance (mAh)	Voltage - fit (V)	Voltage -  interpolate (V)	dQ/dV (1/V)	Temperature (°C)	Temperature - diff (°C)	Current (C)	R_DC 0ms (mOhm)	R_DC 50ms (mOhm)	R_DC 50 ms PEC (mOhm)
0.0539	3450.23	4.1970	4.1971	0.7803	26.54	0.56	0.750			
0.0563	3601.46	4.1940	4.1939	0.7738	26.54	0.56	0.750			
0.0585	3745.08	4.1910	4.1911	0.7591	26.53	0.55	0.750			
0.0608	3888.54	4.1880	4.1880	0.7573	26.53	0.55	0.750			
0.0630	4031.98	4.1850	4.1851	0.7578	26.53	0.55	0.750			
0.0653	4177.77	4.1820	4.1821	0.7589	26.53	0.55	0.750			
0.0676	4323.81	4.1790	4.1790	0.7604	26.53	0.55	0.750			
0.0699	4471.23	4.1760	4.1761	0.7617	26.53	0.55	0.750			
0.0722	4618.51	4.1730	4.1730	0.7649	26.52	0.54	0.750			
0.0744	4762.84	4.1700	4.1700	0.7641	26.52	0.54	0.750			
0.0767	4909.75	4.1670	4.1667	0.7681	26.52	0.54	0.750			
0.0790	5056.64	4.1640	4.1640	0.7692	26.52	0.54	0.750			
0.0813	5206.22	4.1610	4.1610	0.7712	26.52	0.54	0.750			
0.0837	5355.95	4.1580	4.1580	0.7735	26.52	0.54	0.750			
0.0860	5504.21	4.1550	4.1549	0.7727	26.52	0.54	0.750			
0.0883	5650.10	4.1520	4.1520	0.7718	26.52	0.54	0.750			
0.0906	5798.40	4.1490	4.1490	0.7736	26.52	0.54	0.750			
0.0929	5948.38	4.1460	4.1460	0.7722	26.52	0.54	0.750			
0.0953	6096.39	4.1430	4.1429	0.7755	26.52	0.54	0.750			
0.0976	6245.86	4.1400	4.1401	0.7783	26.52	0.54	0.750			
0.0999	6395.01	4.1370	4.1370	0.7769	26.52	0.54	0.750			
0.1022	6543.89	4.1340	4.1340	0.7772	26.52	0.54	0.750			
0.1046	6693.04	4.1310	4.1310	0.7794	26.52	0.54	0.750			
0.1069	6843.19	4.1280	4.1280	0.7766	26.52	0.54	0.750			
0.1092	6991.81	4.1250	4.1250	0.7783	26.52	0.54	0.750			
0.1116	7139.23	4.1220	4.1221	0.7790	26.52	0.54	0.750			
0.1139	7289.40	4.1190	4.1188	0.7864	26.52	0.54	0.750			
0.1163	7440.71	4.1160	4.1160	0.7914	26.52	0.54	0.750			
0.1187	7593.87	4.1130	4.1130	0.7935	26.52	0.54	0.750			
0.1211	7748.06	4.1100	4.1100	0.7973	26.52	0.54	0.750			
0.1235	7902.22	4.1070	4.1070	0.7995	26.52	0.54	0.750			
0.1258	8053.64	4.1040	4.1040	0.7956	26.52	0.54	0.750			
0.1282	8206.77	4.1010	4.1009	0.7965	26.52	0.54	0.750			
0.1306	8359.18	4.0980	4.0980	0.7952	26.52	0.54	0.750			
0.1330	8511.15	4.0950	4.0951	0.7993	26.51	0.53	0.750			
0.1354	8665.37	4.0920	4.0921	0.8053	26.51	0.53	0.750			
0.1378	8820.26	4.0890	4.0889	0.8027	26.51	0.53	0.750			
0.1402	8974.97	4.0860	4.0860	0.8055	26.51	0.53	0.750			
0.1427	9133.17	4.0830	4.0831	0.7986	26.51	0.53	0.750			
0.1451	9284.00	4.0800	4.0800	0.7991	26.51	0.53	0.750			
0.1474	9435.61	4.0770	4.0770	0.8027	26.50	0.52	0.750			
0.1498	9587.86	4.0740	4.0741	0.8083	26.50	0.52	0.750			
0.1522	9742.46	4.0710	4.0708	0.8131	26.50	0.52	0.750			
0.1547	9901.90	4.0680	4.0681	0.8197	26.50	0.52	0.750			
0.1572	10060.25	4.0650	4.0651	0.8264	26.50	0.52	0.750			
0.1597	10221.46	4.0620	4.0621	0.8303	26.50	0.52	0.750			
0.1622	10380.60	4.0590	4.0590	0.8226	26.50	0.52	0.750			
0.1646	10536.52	4.0560	4.0559	0.8232	26.50	0.52	0.750			
0.1671	10696.85	4.0530	4.0531	0.8244	26.50	0.52	0.750			
0.1696	10855.22	4.0500	4.0499	0.8294	26.50	0.52	0.750			
0.1721	11012.23	4.0470	4.0470	0.8400	26.50	0.52	0.750			
0.1746	11175.89	4.0440	4.0441	0.8381	26.50	0.52	0.750			
0.1772	11337.96	4.0410	4.0409	0.8423	26.50	0.52	0.750			
0.1797	11500.60	4.0380	4.0381	0.8428	26.50	0.52	0.750			
0.1822	11660.75	4.0350	4.0351	0.8428	26.50	0.52	0.750			
0.1847	11823.28	4.0320	4.0319	0.8463	26.50	0.52	0.750			
0.1873	11985.34	4.0290	4.0290	0.8455	26.50	0.52	0.750			
0.1898	12145.75	4.0260	4.0261	0.8469	26.50	0.52	0.750			
0.1924	12312.67	4.0230	4.0230	0.8543	26.50	0.52	0.750			
0.1949	12476.77	4.0200	4.0200	0.8559	26.50	0.52	0.750			
0.1975	12641.36	4.0170	4.0170	0.8574	26.51	0.53	0.750			
0.2001	12805.20	4.0140	4.0141	0.8610	26.51	0.53	0.750			
0.2027	12972.07	4.0110	4.0109	0.8646	26.51	0.53	0.750			
0.2053	13138.89	4.0080	4.0080	0.8636	26.51	0.53	0.750			
0.2079	13304.30	4.0050	4.0050	0.8665	26.51	0.53	0.750			
0.2105	13470.94	4.0020	4.0021	0.8692	26.50	0.52	0.750			
0.2131	13637.63	3.9990	3.9989	0.8705	26.50	0.52	0.750			
0.2157	13804.37	3.9960	3.9960	0.8752	26.50	0.52	0.750			
0.2183	13971.78	3.9930	3.9930	0.8733	26.50	0.52	0.750			
0.2209	14139.57	3.9900	3.9900	0.8837	26.51	0.53	0.750			
0.2236	14312.25	3.9870	3.9870	0.8855	26.51	0.53	0.750			
0.2263	14481.11	3.9840	3.9837	0.8865	26.51	0.53	0.750			
0.2290	14652.83	3.9810	3.9811	0.8870	26.51	0.53	0.750			
0.2316	14823.32	3.9780	3.9780	0.8874	26.51	0.53	0.750			
0.2343	14993.41	3.9750	3.9750	0.8880	26.50	0.52	0.750			
0.2369	15163.97	3.9720	3.9720	0.8932	26.50	0.52	0.750			
0.2396	15332.93	3.9690	3.9690	0.8928	26.50	0.52	0.750			
0.2423	15509.05	3.9660	3.9659	0.8919	26.50	0.52	0.750			
0.2450	15678.14	3.9630	3.9630	0.8961	26.50	0.52	0.750			
0.2477	15851.83	3.9600	3.9601	0.8975	26.50	0.52	0.750			
0.2504	16023.03	3.9570	3.9570	0.9014	26.50	0.52	0.750			
0.2531	16195.82	3.9540	3.9540	0.9052	26.50	0.52	0.750			
0.2558	16369.50	3.9510	3.9510	0.8996	26.50	0.52	0.750			
0.2585	16543.18	3.9480	3.9481	0.9033	26.50	0.52	0.750			
0.2612	16719.62	3.9450	3.9451	0.9100	26.50	0.52	0.750			
0.2639	16890.64	3.9420	3.9419	0.9043	26.50	0.52	0.750			
0.2666	17065.21	3.9390	3.9390	0.9084	26.50	0.52	0.750			
0.2694	17238.55	3.9360	3.9360	0.9086	26.50	0.52	0.750			
0.2721	17414.56	3.9330	3.9330	0.9130	26.50	0.52	0.750			
0.2748	17589.88	3.9300	3.9300	0.9157	26.50	0.52	0.750			
0.2776	17766.32	3.9270	3.9270	0.9183	26.50	0.52	0.750			
0.2804	17942.85	3.9240	3.9240	0.9170	26.49	0.51	0.750			
0.2831	18119.82	3.9210	3.9210	0.9137	26.49	0.51	0.750			
0.2859	18294.92	3.9180	3.9181	0.9130	26.49	0.51	0.750			
0.2886	18469.16	3.9150	3.9149	0.9155	26.48	0.50	0.750			
0.2914	18647.75	3.9120	3.9121	0.9107	26.48	0.50	0.750			
0.2940	18818.14	3.9090	3.9090	0.9177	26.47	0.49	0.750			
0.2968	18994.22	3.9060	3.9060	0.9253	26.47	0.49	0.750			
0.2996	19174.00	3.9030	3.9032	0.9331	26.46	0.48	0.750			
0.3024	19354.52	3.9000	3.8997	0.9386	26.46	0.48	0.750			
0.3052	19535.12	3.8970	3.8973	0.9346	26.45	0.47	0.750			
0.3080	19712.62	3.8940	3.8941	0.9382	26.45	0.47	0.750			
0.3108	19893.16	3.8910	3.8910	0.9489	26.45	0.47	0.750			
0.3137	20075.55	3.8880	3.8878	0.9412	26.44	0.46	0.750			
0.3165	20257.36	3.8850	3.8849	0.9469	26.44	0.46	0.750			
0.3194	20439.81	3.8820	3.8822	0.9518	26.43	0.45	0.750			
0.3222	20623.86	3.8790	3.8791	0.9629	26.43	0.45	0.750			
0.3251	20807.96	3.8760	3.8759	0.9634	26.42	0.44	0.750			
0.3281	20995.62	3.8730	3.8729	0.9653	26.42	0.44	0.750			
0.3309	21179.95	3.8700	3.8700	0.9702	26.41	0.43	0.750			
0.3339	21368.71	3.8670	3.8671	0.9807	26.40	0.42	0.750			
0.3368	21556.69	3.8640	3.8641	0.9886	26.40	0.42	0.750			
0.3398	21745.87	3.8610	3.8610	0.9936	26.39	0.41	0.750			
0.3428	21936.10	3.8580	3.8580	0.9984	26.38	0.40	0.750			
0.3458	22128.97	3.8550	3.8551	1.0073	26.38	0.40	0.750			
0.3488	22324.60	3.8520	3.8520	1.0130	26.37	0.39	0.750			
0.3519	22520.39	3.8490	3.8490	1.0181	26.37	0.39	0.750			
0.3549	22716.43	3.8460	3.8461	1.0175	26.36	0.38	0.750			
0.3580	22911.82	3.8430	3.8430	1.0214	26.35	0.37	0.750			
0.3611	23109.30	3.8400	3.8400	1.0258	26.35	0.37	0.750			
0.3642	23306.82	3.8370	3.8369	1.0291	26.34	0.36	0.750			
0.3672	23503.54	3.8340	3.8340	1.0247	26.33	0.35	0.750			
0.3703	23699.69	3.8310	3.8311	1.0271	26.32	0.34	0.750			
0.3734	23895.50	3.8280	3.8280	1.0307	26.30	0.32	0.750			
0.3765	24094.35	3.8250	3.8248	1.0385	26.29	0.31	0.750			
0.3796	24292.63	3.8220	3.8221	1.0401	26.28	0.30	0.750			
0.3827	24493.45	3.8190	3.8190	1.0505	26.28	0.30	0.750			
0.3859	24697.58	3.8160	3.8160	1.0594	26.27	0.29	0.750			
0.3891	24903.19	3.8130	3.8129	1.0681	26.26	0.28	0.750			
0.3923	25106.39	3.8100	3.8101	1.0672	26.25	0.27	0.750			
0.3955	25311.73	3.8070	3.8070	1.0744	26.24	0.26	0.750			
0.3987	25518.05	3.8040	3.8040	1.0804	26.23	0.25	0.750			
0.4020	25726.60	3.8010	3.8007	1.0831	26.22	0.24	0.750			
0.4052	25934.06	3.7980	3.7981	1.0945	26.21	0.23	0.750			
0.4085	26146.61	3.7950	3.7950	1.1094	26.20	0.22	0.750			
0.4119	26359.53	3.7920	3.7921	1.1255	26.20	0.22	0.750			
0.4153	26577.02	3.7890	3.7890	1.1256	26.19	0.21	0.750			
0.4187	26794.27	3.7860	3.7860	1.1578	26.17	0.19	0.750			
0.4221	27017.02	3.7830	3.7831	1.1816	26.16	0.18	0.750			
0.4258	27252.61	3.7800	3.7797	1.1787	26.14	0.16	0.750			
0.4294	27478.43	3.7770	3.7772	1.2062	26.13	0.15	0.750			
0.4330	27713.00	3.7740	3.7741	1.2212	26.12	0.14	0.750			
0.4367	27948.04	3.7710	3.7711	1.2472	26.12	0.14	0.750			
0.4404	28185.11	3.7680	3.7679	1.2722	26.11	0.13	0.750			
0.4442	28431.74	3.7650	3.7652	1.3081	26.09	0.11	0.750			
0.4483	28690.15	3.7620	3.7623	1.3411	26.08	0.10	0.750	0.310	0.414	
0.4524	28954.31	3.7590	3.7589	1.3802	26.07	0.09	0.750			
0.4565	29219.04	3.7560	3.7561	1.3953	26.05	0.07	0.750			
0.4609	29497.27	3.7530	3.7529	1.4272	26.04	0.06	0.750			
0.4651	29768.68	3.7500	3.7501	1.4461	26.03	0.05	0.750			
0.4695	30046.65	3.7470	3.7471	1.4728	26.01	0.03	0.750			
0.4739	30330.41	3.7440	3.7441	1.5168	26.00	0.02	0.750			
0.4786	30627.35	3.7410	3.7409	1.5495	25.98	0.00	0.750			
0.4832	30925.47	3.7380	3.7377	1.5996	25.97	-0.01	0.750			
0.4881	31240.24	3.7350	3.7349	1.6391	25.95	-0.03	0.750			
0.4932	31563.98	3.7320	3.7320	1.7001	25.94	-0.04	0.750			
0.4983	31890.52	3.7290	3.7292	1.7389	25.93	-0.05	0.750			
0.5035	32225.47	3.7260	3.7259	1.7783	25.92	-0.06	0.750			
0.5090	32577.41	3.7230	3.7232	1.8257	25.90	-0.08	0.750			
0.5145	32930.36	3.7200	3.7197	1.8636	25.89	-0.09	0.750			
0.5201	33285.55	3.7170	3.7169	1.9113	25.87	-0.11	0.750			
0.5259	33660.03	3.7140	3.7139	1.9676	25.85	-0.13	0.750			
0.5319	34043.12	3.7110	3.7110	2.0233	25.83	-0.15	0.750			
0.5380	34432.72	3.7080	3.7081	2.0766	25.81	-0.17	0.750			
0.5444	34838.56	3.7050	3.7049	2.1368	25.80	-0.18	0.750			
0.5509	35256.64	3.7020	3.7021	2.2091	25.79	-0.19	0.750			
0.5576	35684.66	3.6990	3.6991	2.2938	25.77	-0.21	0.750			
0.5646	36131.80	3.6960	3.6959	2.3831	25.75	-0.23	0.750			
0.5718	36596.62	3.6930	3.6930	2.4343	25.73	-0.25	0.750			
0.5793	37074.84	3.6900	3.6900	2.5221	25.72	-0.26	0.750			
0.5871	37571.99	3.6870	3.6870	2.5824	25.70	-0.28	0.750			
0.5948	38068.61	3.6840	3.6839	2.6365	25.69	-0.29	0.750			
0.6028	38581.78	3.6810	3.6811	2.7578	25.68	-0.30	0.750			
0.6113	39122.16	3.6780	3.6780	2.8357	25.66	-0.32	0.750			
0.6198	39667.32	3.6750	3.6750	2.9031	25.66	-0.32	0.750			
0.6288	40242.10	3.6720	3.6719	2.9727	25.66	-0.32	0.750			
0.6378	40819.66	3.6690	3.6689	2.9795	25.64	-0.34	0.750			
0.6467	41389.55	3.6660	3.6659	2.9145	25.64	-0.34	0.750			
0.6558	41970.29	3.6630	3.6629	2.6872	25.64	-0.34	0.750			
0.6633	42452.72	3.6600	3.6601	2.4186	25.64	-0.34	0.750			
0.6699	42870.64	3.6570	3.6569	2.1426	25.64	-0.34	0.750			
0.6758	43251.58	3.6540	3.6538	1.9354	25.64	-0.34	0.750			
0.6810	43583.71	3.6510	3.6512	1.7442	25.64	-0.34	0.750			
0.6860	43903.65	3.6480	3.6481	1.6331	25.65	-0.33	0.750			
0.6908	44213.74	3.6450	3.6451	1.5196	25.65	-0.33	0.750			
0.6952	44491.99	3.6420	3.6421	1.4270	25.65	-0.33	0.750			
0.6992	44751.81	3.6390	3.6391	1.3400	25.66	-0.32	0.750			
0.7030	44989.91	3.6360	3.6362	1.2648	25.66	-0.32	0.750			
0.7066	45223.66	3.6330	3.6331	1.2298	25.66	-0.32	0.750			
0.7102	45452.45	3.6300	3.6301	1.2111	25.66	-0.32	0.750			
0.7138	45684.17	3.6270	3.6268	1.2050	25.66	-0.32	0.750			
0.7174	45914.21	3.6240	3.6240	1.1964	25.66	-0.32	0.750			
0.7210	46146.43	3.6210	3.6211	1.1993	25.66	-0.32	0.750			
0.7246	46376.97	3.6180	3.6180	1.2053	25.66	-0.32	0.750			
0.7283	46608.61	3.6150	3.6151	1.1899	25.66	-0.32	0.750			
0.7318	46837.05	3.6120	3.6120	1.1834	25.67	-0.31	0.750			
0.7354	47065.66	3.6090	3.6090	1.1717	25.67	-0.31	0.750			
0.7389	47292.57	3.6060	3.6057	1.1539	25.68	-0.30	0.750			
0.7424	47510.74	3.6030	3.6031	1.1480	25.68	-0.30	0.750			
0.7457	47725.28	3.6000	3.6001	1.1487	25.68	-0.30	0.750			
0.7491	47941.91	3.5970	3.5971	1.1481	25.68	-0.30	0.750			
0.7525	48161.06	3.5940	3.5941	1.1594	25.68	-0.30	0.750			
0.7560	48383.63	3.5910	3.5912	1.1921	25.68	-0.30	0.750			
0.7596	48615.34	3.5880	3.5880	1.2282	25.68	-0.30	0.750			
0.7634	48856.00	3.5850	3.5847	1.2529	25.68	-0.30	0.750			
0.7671	49094.84	3.5820	3.5822	1.2953	25.68	-0.30	0.750			
0.7711	49347.86	3.5790	3.5791	1.3439	25.68	-0.30	0.750			
0.7752	49613.31	3.5760	3.5759	1.3921	25.68	-0.30	0.750			
0.7794	49883.86	3.5730	3.5730	1.4307	25.68	-0.30	0.750			
0.7837	50159.40	3.5700	3.5702	1.4640	25.69	-0.29	0.750			
0.7882	50445.55	3.5670	3.5669	1.5126	25.69	-0.29	0.750			
0.7928	50739.08	3.5640	3.5638	1.5463	25.69	-0.29	0.750			
0.7975	51041.10	3.5610	3.5610	1.5806	25.70	-0.28	0.750			
0.8023	51349.33	3.5580	3.5579	1.6318	25.70	-0.28	0.750			
0.8074	51674.95	3.5550	3.5549	1.6426	25.70	-0.28	0.750			
0.8124	51992.89	3.5520	3.5520	1.6586	25.70	-0.28	0.750			
0.8175	52318.87	3.5490	3.5493	1.6692	25.71	-0.27	0.750			
0.8224	52635.68	3.5460	3.5461	1.6635	25.71	-0.27	0.750			
0.8275	52957.12	3.5430	3.5428	1.6759	25.72	-0.26	0.750			
0.8323	53268.61	3.5400	3.5400	1.7022	25.72	-0.26	0.750			
0.8375	53597.47	3.5370	3.5370	1.7351	25.72	-0.26	0.750			
0.8429	53943.40	3.5340	3.5340	1.7518	25.73	-0.25	0.750			
0.8485	54306.90	3.5310	3.5310	1.6393	25.74	-0.24	0.750			
0.8536	54633.32	3.5280	3.5280	1.4719	25.76	-0.22	0.750			
0.8582	54923.05	3.5250	3.5256	1.2446	25.78	-0.20	0.750			
0.8615	55135.75	3.5220	3.5223	1.0049	25.80	-0.18	0.750			
0.8637	55278.77	3.5190	3.5187	0.7293	25.81	-0.17	0.750			
0.8653	55376.73	3.5160	3.5156	0.5640	25.82	-0.16	0.750			
0.8664	55447.81	3.5130	3.5130	0.4284	25.82	-0.16	0.750			
0.8675	55518.23	3.5100	3.5099	0.3809	25.83	-0.15	0.750			
0.8685	55584.22	3.5070	3.5069	0.3464	25.84	-0.14	0.750			
0.8694	55644.19	3.5040	3.5040	0.3215	25.84	-0.14	0.750			
0.8704	55704.28	3.5010	3.5010	0.3079	25.85	-0.13	0.750			
0.8713	55761.26	3.4980	3.4981	0.2974	25.86	-0.12	0.750			
0.8721	55817.00	3.4950	3.4950	0.2887	25.86	-0.12	0.750			
0.8730	55872.01	3.4920	3.4920	0.2808	25.87	-0.11	0.750			
0.8738	55924.80	3.4890	3.4890	0.2742	25.87	-0.11	0.750			
0.8746	55976.83	3.4860	3.4861	0.2681	25.88	-0.10	0.750			
0.8754	56027.21	3.4830	3.4830	0.2630	25.88	-0.10	0.750			
0.8762	56077.40	3.4800	3.4799	0.2582	25.89	-0.09	0.750			
0.8770	56126.14	3.4770	3.4770	0.2520	25.89	-0.09	0.750			
0.8777	56174.25	3.4740	3.4739	0.2469	25.90	-0.08	0.750			
0.8785	56221.13	3.4710	3.4712	0.2433	25.90	-0.08	0.750			
0.8792	56268.17	3.4680	3.4678	0.2376	25.91	-0.07	0.750			
0.8799	56312.81	3.4650	3.4650	0.2298	25.91	-0.07	0.750			
0.8806	56356.22	3.4620	3.4619	0.2236	25.92	-0.06	0.750			
0.8812	56398.33	3.4590	3.4590	0.2189	25.92	-0.06	0.750			
0.8819	56439.71	3.4560	3.4560	0.2134	25.93	-0.05	0.750			
0.8825	56479.55	3.4530	3.4530	0.2090	25.93	-0.05	0.750			
0.8831	56519.10	3.4500	3.4499	0.2039	25.94	-0.04	0.750			
0.8837	56558.77	3.4470	3.4470	0.2015	25.94	-0.04	0.750			
0.8843	56597.02	3.4440	3.4440	0.1969	25.95	-0.03	0.750			
0.8849	56634.71	3.4410	3.4410	0.1926	25.95	-0.03	0.750			
0.8855	56671.48	3.4380	3.4379	0.1874	25.95	-0.03	0.750			
0.8860	56706.82	3.4350	3.4349	0.1811	25.96	-0.02	0.750			
0.8866	56741.04	3.4320	3.4320	0.1754	25.96	-0.02	0.750			
0.8871	56774.06	3.4290	3.4291	0.1697	25.97	-0.01	0.750			
0.8876	56806.07	3.4260	3.4260	0.1651	25.97	-0.01	0.750			
0.8881	56837.10	3.4230	3.4229	0.1596	25.97	-0.01	0.750			
0.8886	56867.31	3.4200	3.4200	0.1545	25.98	-0.00	0.750			
0.8890	56896.60	3.4170	3.4169	0.1485	25.98	-0.00	0.750			
0.8895	56924.86	3.4140	3.4140	0.1436	25.98	0.00	0.750			
0.8899	56952.32	3.4110	3.4111	0.1379	25.99	0.01	0.750			
0.8903	56978.14	3.4080	3.4080	0.1310	25.99	0.01	0.750			
0.8907	57002.82	3.4050	3.4050	0.1243	25.99	0.01	0.750			
0.8910	57025.85	3.4020	3.4020	0.1166	25.99	0.01	0.750			
0.8914	57047.57	3.3990	3.3990	0.1096	26.00	0.02	0.750			
0.8917	57069.03	3.3960	3.3959	0.1002	26.00	0.02	0.750			
0.8920	57087.35	3.3930	3.3929	0.0906	26.00	0.02	0.750			
0.8923	57104.62	3.3900	3.3901	0.0824	26.00	0.02	0.750			
0.8925	57119.43	3.3870	3.3873	0.0719	26.00	0.02	0.750			
0.8927	57133.29	3.3840	3.3843	0.0616	26.01	0.03	0.750			
0.8929	57143.98	3.3810	3.3816	0.0497	26.01	0.03	0.750			
0.8930	57152.38	3.3780	3.3789	0.0378	26.01	0.03	0.750			
0.8931	57158.48	3.3750	3.3767	0.0258	26.01	0.03	0.750			
