Ah_balance (normalized)	Ah_balance (mAh)	Voltage - fit (V)	Voltage -  interpolate (V)	dQ/dV (1/V)	Temperature (°C)	Temperature - diff (°C)	Current (C)	R_DC 0ms (mOhm)	R_DC 50ms (mOhm)	R_DC 50 ms PEC (mOhm)
0.0004	25.96	4.1550	4.1546	-0.1215	25.16	0.01	-0.750			
0.0008	52.90	4.1520	4.1519	-0.1580	25.16	0.01	-0.750			
0.0014	86.90	4.1490	4.1490	-0.1936	25.16	0.01	-0.750			
0.0020	127.84	4.1460	4.1460	-0.2275	25.16	0.01	-0.750			
0.0027	175.05	4.1430	4.1430	-0.2602	25.16	0.01	-0.750			
0.0036	229.55	4.1400	4.1400	-0.2910	25.16	0.01	-0.750			
0.0045	288.11	4.1370	4.1370	-0.3222	25.16	0.01	-0.750			
0.0055	352.59	4.1340	4.1341	-0.3529	25.15	0.00	-0.750			
0.0066	423.28	4.1310	4.1310	-0.3829	25.15	0.00	-0.750			
0.0078	500.12	4.1280	4.1279	-0.4101	25.15	0.00	-0.750			
0.0091	582.55	4.1250	4.1250	-0.4345	25.15	0.00	-0.750			
0.0105	669.25	4.1220	4.1220	-0.4599	25.15	0.00	-0.750			
0.0119	760.57	4.1190	4.1190	-0.4787	25.15	-0.00	-0.750			
0.0133	853.91	4.1160	4.1160	-0.4966	25.15	-0.00	-0.750			
0.0149	951.58	4.1130	4.1130	-0.5134	25.15	-0.00	-0.750			
0.0164	1051.47	4.1100	4.1100	-0.5292	25.15	-0.00	-0.750			
0.0181	1155.57	4.1070	4.1070	-0.5504	25.14	-0.01	-0.750			
0.0197	1263.74	4.1040	4.1040	-0.5625	25.14	-0.01	-0.750			
0.0215	1373.70	4.1010	4.1009	-0.5754	25.14	-0.01	-0.750			
0.0232	1486.30	4.0980	4.0983	-0.5848	25.14	-0.01	-0.750			
0.0250	1598.94	4.0950	4.0950	-0.5931	25.14	-0.01	-0.750			
0.0268	1713.83	4.0920	4.0920	-0.6007	25.14	-0.01	-0.750			
0.0286	1829.44	4.0890	4.0890	-0.6040	25.14	-0.01	-0.750			
0.0304	1946.06	4.0860	4.0860	-0.6177	25.14	-0.01	-0.750			
0.0323	2066.11	4.0830	4.0830	-0.6239	25.14	-0.01	-0.750			
0.0342	2187.17	4.0800	4.0800	-0.6294	25.14	-0.01	-0.750			
0.0361	2308.57	4.0770	4.0771	-0.6377	25.14	-0.01	-0.750			
0.0380	2430.41	4.0740	4.0741	-0.6444	25.14	-0.01	-0.750			
0.0399	2556.08	4.0710	4.0709	-0.6497	25.14	-0.01	-0.750			
0.0419	2681.26	4.0680	4.0680	-0.6551	25.14	-0.01	-0.750			
0.0439	2807.37	4.0650	4.0650	-0.6584	25.15	-0.00	-0.750			
0.0459	2936.13	4.0620	4.0619	-0.6591	25.15	-0.00	-0.750			
0.0479	3063.03	4.0590	4.0590	-0.6618	25.15	-0.00	-0.750			
0.0498	3189.18	4.0560	4.0560	-0.6599	25.15	0.00	-0.750			
0.0518	3314.92	4.0530	4.0530	-0.6610	25.16	0.01	-0.750			
0.0538	3441.25	4.0500	4.0499	-0.6730	25.16	0.01	-0.750			
0.0558	3570.25	4.0470	4.0470	-0.6764	25.17	0.02	-0.750			
0.0578	3701.72	4.0440	4.0439	-0.6861	25.17	0.02	-0.750			
0.0599	3835.81	4.0410	4.0410	-0.6909	25.18	0.03	-0.750			
0.0620	3970.26	4.0380	4.0381	-0.6912	25.18	0.03	-0.750			
0.0641	4103.73	4.0350	4.0349	-0.6941	25.18	0.03	-0.750			
0.0662	4236.16	4.0320	4.0321	-0.6912	25.18	0.03	-0.750			
0.0682	4367.70	4.0290	4.0289	-0.6904	25.19	0.04	-0.750			
0.0703	4500.38	4.0260	4.0260	-0.6970	25.19	0.04	-0.750			
0.0724	4634.66	4.0230	4.0229	-0.6968	25.19	0.04	-0.750			
0.0745	4768.39	4.0200	4.0201	-0.7038	25.19	0.04	-0.750			
0.0766	4905.06	4.0170	4.0170	-0.7056	25.20	0.05	-0.750			
0.0788	5040.37	4.0140	4.0139	-0.7064	25.20	0.05	-0.750			
0.0809	5177.37	4.0110	4.0110	-0.7062	25.20	0.05	-0.750			
0.0830	5312.71	4.0080	4.0079	-0.7051	25.21	0.06	-0.750			
0.0851	5447.21	4.0050	4.0051	-0.7065	25.21	0.06	-0.750			
0.0872	5583.69	4.0020	4.0020	-0.7095	25.21	0.06	-0.750			
0.0893	5717.60	3.9990	3.9990	-0.7123	25.22	0.07	-0.750			
0.0915	5856.38	3.9960	3.9959	-0.7246	25.22	0.07	-0.750			
0.0937	5997.46	3.9930	3.9930	-0.7252	25.23	0.08	-0.750			
0.0959	6139.55	3.9900	3.9899	-0.7312	25.23	0.08	-0.750			
0.0981	6279.64	3.9870	3.9873	-0.7278	25.24	0.09	-0.750			
0.1003	6419.09	3.9840	3.9839	-0.7245	25.24	0.09	-0.750			
0.1025	6556.87	3.9810	3.9809	-0.7242	25.25	0.10	-0.750			
0.1046	6694.00	3.9780	3.9780	-0.7248	25.25	0.10	-0.750			
0.1068	6832.94	3.9750	3.9750	-0.7317	25.25	0.10	-0.750			
0.1090	6974.45	3.9720	3.9720	-0.7310	25.26	0.11	-0.750			
0.1112	7114.87	3.9690	3.9690	-0.7352	25.26	0.11	-0.750			
0.1134	7256.46	3.9660	3.9660	-0.7385	25.26	0.11	-0.750			
0.1156	7398.76	3.9630	3.9630	-0.7409	25.27	0.12	-0.750			
0.1178	7540.78	3.9600	3.9600	-0.7427	25.27	0.12	-0.750			
0.1201	7683.48	3.9570	3.9570	-0.7448	25.27	0.12	-0.750			
0.1223	7827.34	3.9540	3.9540	-0.7462	25.28	0.13	-0.750			
0.1246	7972.05	3.9510	3.9509	-0.7492	25.28	0.13	-0.750			
0.1268	8114.34	3.9480	3.9480	-0.7478	25.29	0.14	-0.750			
0.1290	8257.42	3.9450	3.9450	-0.7558	25.29	0.14	-0.750			
0.1313	8404.42	3.9420	3.9420	-0.7564	25.29	0.14	-0.750			
0.1336	8550.73	3.9390	3.9390	-0.7590	25.30	0.15	-0.750			
0.1359	8696.67	3.9360	3.9363	-0.7620	25.30	0.15	-0.750			
0.1382	8843.48	3.9330	3.9329	-0.7634	25.30	0.15	-0.750			
0.1405	8989.55	3.9300	3.9299	-0.7626	25.31	0.16	-0.750			
0.1427	9135.52	3.9270	3.9270	-0.7605	25.31	0.16	-0.750			
0.1450	9281.67	3.9240	3.9240	-0.7620	25.31	0.16	-0.750			
0.1473	9428.55	3.9210	3.9209	-0.7650	25.32	0.17	-0.750			
0.1496	9574.74	3.9180	3.9179	-0.7632	25.32	0.17	-0.750			
0.1519	9720.32	3.9150	3.9150	-0.7676	25.33	0.18	-0.750			
0.1542	9867.88	3.9120	3.9121	-0.7716	25.33	0.18	-0.750			
0.1565	10017.25	3.9090	3.9089	-0.7721	25.33	0.18	-0.750			
0.1589	10167.21	3.9060	3.9060	-0.7736	25.34	0.19	-0.750			
0.1612	10316.13	3.9030	3.9032	-0.7733	25.34	0.19	-0.750			
0.1635	10464.44	3.9000	3.9000	-0.7704	25.34	0.19	-0.750			
0.1658	10611.47	3.8970	3.8970	-0.7763	25.35	0.20	-0.750			
0.1681	10759.80	3.8940	3.8941	-0.7774	25.35	0.20	-0.750			
0.1705	10910.32	3.8910	3.8909	-0.7781	25.36	0.21	-0.750			
0.1728	11060.15	3.8880	3.8880	-0.7806	25.36	0.21	-0.750			
0.1752	11210.60	3.8850	3.8850	-0.7850	25.36	0.21	-0.750			
0.1775	11361.34	3.8820	3.8820	-0.7849	25.37	0.22	-0.750			
0.1799	11513.05	3.8790	3.8789	-0.7820	25.37	0.22	-0.750			
0.1822	11661.33	3.8760	3.8761	-0.7804	25.37	0.22	-0.750			
0.1846	11813.70	3.8730	3.8730	-0.7806	25.38	0.23	-0.750			
0.1869	11963.39	3.8700	3.8699	-0.7782	25.38	0.23	-0.750			
0.1892	12110.27	3.8670	3.8670	-0.7797	25.39	0.24	-0.750			
0.1916	12259.73	3.8640	3.8641	-0.7813	25.39	0.24	-0.750			
0.1939	12411.19	3.8610	3.8608	-0.7803	25.39	0.24	-0.750			
0.1963	12561.36	3.8580	3.8579	-0.7807	25.40	0.25	-0.750			
0.1986	12710.53	3.8550	3.8552	-0.7787	25.40	0.25	-0.750			
0.2010	12860.87	3.8520	3.8519	-0.7789	25.40	0.25	-0.750			
0.2033	13010.78	3.8490	3.8490	-0.7765	25.41	0.26	-0.750			
0.2056	13159.05	3.8460	3.8460	-0.7732	25.41	0.26	-0.750			
0.2079	13308.00	3.8430	3.8430	-0.7729	25.42	0.27	-0.750			
0.2103	13456.68	3.8400	3.8399	-0.7705	25.42	0.27	-0.750			
0.2126	13603.66	3.8370	3.8370	-0.7655	25.42	0.27	-0.750			
0.2148	13750.39	3.8340	3.8340	-0.7618	25.43	0.28	-0.750			
0.2171	13895.68	3.8310	3.8310	-0.7596	25.44	0.29	-0.750			
0.2194	14041.39	3.8280	3.8280	-0.7563	25.44	0.29	-0.750			
0.2217	14186.86	3.8250	3.8250	-0.7538	25.45	0.30	-0.750			
0.2239	14331.91	3.8220	3.8220	-0.7495	25.45	0.30	-0.750			
0.2262	14476.00	3.8190	3.8190	-0.7448	25.45	0.30	-0.750			
0.2284	14617.80	3.8160	3.8160	-0.7464	25.45	0.30	-0.750			
0.2306	14760.56	3.8130	3.8131	-0.7425	25.46	0.31	-0.750			
0.2329	14902.99	3.8100	3.8099	-0.7400	25.46	0.31	-0.750			
0.2351	15045.36	3.8070	3.8070	-0.7358	25.46	0.31	-0.750			
0.2373	15186.55	3.8040	3.8041	-0.7331	25.46	0.31	-0.750			
0.2395	15326.64	3.8010	3.8010	-0.7309	25.47	0.32	-0.750			
0.2417	15466.61	3.7980	3.7980	-0.7308	25.47	0.32	-0.750			
0.2439	15607.15	3.7950	3.7949	-0.7237	25.47	0.32	-0.750			
0.2461	15747.22	3.7920	3.7920	-0.7228	25.48	0.33	-0.750			
0.2482	15885.69	3.7890	3.7892	-0.7167	25.48	0.33	-0.750			
0.2504	16023.43	3.7860	3.7859	-0.7125	25.48	0.33	-0.750			
0.2525	16156.86	3.7830	3.7830	-0.7108	25.48	0.33	-0.750			
0.2546	16291.45	3.7800	3.7801	-0.7048	25.48	0.33	-0.750			
0.2567	16428.32	3.7770	3.7769	-0.7091	25.48	0.33	-0.750			
0.2588	16564.76	3.7740	3.7740	-0.7111	25.48	0.33	-0.750			
0.2609	16700.43	3.7710	3.7712	-0.7122	25.48	0.33	-0.750			
0.2631	16837.10	3.7680	3.7680	-0.7162	25.49	0.34	-0.750			
0.2652	16974.00	3.7650	3.7650	-0.7205	25.49	0.34	-0.750			
0.2674	17113.48	3.7620	3.7620	-0.7216	25.50	0.35	-0.750			
0.2696	17253.85	3.7590	3.7590	-0.7305	25.50	0.35	-0.750			
0.2718	17394.37	3.7560	3.7560	-0.7311	25.51	0.36	-0.750			
0.2740	17534.95	3.7530	3.7531	-0.7341	25.51	0.36	-0.750			
0.2762	17675.76	3.7500	3.7499	-0.7383	25.51	0.36	-0.750			
0.2784	17816.59	3.7470	3.7471	-0.7473	25.51	0.36	-0.750			
0.2806	17960.71	3.7440	3.7439	-0.7539	25.52	0.37	-0.750			
0.2829	18108.24	3.7410	3.7410	-0.7645	25.52	0.37	-0.750			
0.2852	18255.51	3.7380	3.7379	-0.7718	25.52	0.37	-0.750			
0.2876	18404.39	3.7350	3.7349	-0.7817	25.52	0.37	-0.750			
0.2899	18555.82	3.7320	3.7320	-0.7914	25.52	0.37	-0.750			
0.2923	18705.66	3.7290	3.7290	-0.8029	25.52	0.37	-0.750			
0.2947	18860.12	3.7260	3.7260	-0.8113	25.52	0.37	-0.750			
0.2972	19019.27	3.7230	3.7230	-0.8309	25.52	0.37	-0.750			
0.2997	19180.45	3.7200	3.7200	-0.8425	25.52	0.37	-0.750			
0.3022	19343.92	3.7170	3.7170	-0.8578	25.52	0.37	-0.750			
0.3048	19510.23	3.7140	3.7140	-0.8716	25.52	0.37	-0.750			
0.3075	19677.89	3.7110	3.7110	-0.8870	25.52	0.37	-0.750			
0.3102	19849.79	3.7080	3.7080	-0.8999	25.52	0.37	-0.750			
0.3129	20022.95	3.7050	3.7050	-0.9264	25.52	0.37	-0.750			
0.3157	20203.15	3.7020	3.7020	-0.9350	25.51	0.36	-0.750			
0.3185	20385.36	3.6990	3.6990	-0.9519	25.51	0.36	-0.750			
0.3214	20569.15	3.6960	3.6960	-0.9630	25.50	0.35	-0.750			
0.3243	20756.51	3.6930	3.6929	-0.9772	25.50	0.35	-0.750			
0.3273	20945.00	3.6900	3.6900	-0.9914	25.50	0.35	-0.750			
0.3302	21135.55	3.6870	3.6870	-1.0050	25.49	0.34	-0.750			
0.3332	21327.67	3.6840	3.6840	-1.0166	25.49	0.34	-0.750			
0.3364	21526.92	3.6810	3.6811	-1.0487	25.49	0.34	-0.750			
0.3395	21729.28	3.6780	3.6778	-1.0625	25.48	0.33	-0.750			
0.3428	21936.36	3.6750	3.6750	-1.0787	25.48	0.33	-0.750			
0.3460	22145.82	3.6720	3.6720	-1.0916	25.47	0.32	-0.750			
0.3493	22356.68	3.6690	3.6691	-1.1188	25.47	0.32	-0.750			
0.3527	22573.65	3.6660	3.6659	-1.1321	25.47	0.32	-0.750			
0.3561	22790.55	3.6630	3.6628	-1.1460	25.46	0.31	-0.750			
0.3595	23010.74	3.6600	3.6600	-1.1624	25.46	0.31	-0.750			
0.3631	23237.99	3.6570	3.6570	-1.1874	25.45	0.30	-0.750			
0.3667	23470.18	3.6540	3.6539	-1.2065	25.45	0.30	-0.750			
0.3703	23701.64	3.6510	3.6510	-1.2238	25.44	0.29	-0.750			
0.3740	23935.27	3.6480	3.6481	-1.2424	25.43	0.28	-0.750			
0.3778	24179.94	3.6450	3.6449	-1.2724	25.43	0.28	-0.750			
0.3817	24426.27	3.6420	3.6419	-1.2890	25.42	0.27	-0.750			
0.3855	24674.99	3.6390	3.6393	-1.3176	25.42	0.27	-0.750			
0.3896	24932.91	3.6360	3.6359	-1.3450	25.41	0.26	-0.750			
0.3936	25192.90	3.6330	3.6329	-1.3637	25.41	0.26	-0.750			
0.3977	25454.08	3.6300	3.6302	-1.3850	25.40	0.25	-0.750			
0.4020	25725.07	3.6270	3.6269	-1.4185	25.39	0.24	-0.750			
0.4062	25995.04	3.6240	3.6240	-1.4503	25.39	0.24	-0.750			
0.4106	26275.84	3.6210	3.6211	-1.4699	25.38	0.23	-0.750			
0.4150	26559.42	3.6180	3.6180	-1.4973	25.37	0.22	-0.750			
0.4196	26855.00	3.6150	3.6149	-1.5337	25.37	0.22	-0.750			
0.4243	27153.47	3.6120	3.6121	-1.5562	25.36	0.21	-0.750	0.403	0.577	
0.4290	27454.95	3.6090	3.6089	-1.5865	25.36	0.21	-0.750			
0.4338	27762.22	3.6060	3.6059	-1.6180	25.36	0.21	-0.750			
0.4387	28075.40	3.6030	3.6028	-1.6402	25.36	0.21	-0.750			
0.4436	28391.95	3.6000	3.6002	-1.6731	25.35	0.20	-0.750			
0.4486	28712.84	3.5970	3.5970	-1.7087	25.34	0.19	-0.750			
0.4538	29042.21	3.5940	3.5939	-1.7474	25.34	0.19	-0.750			
0.4592	29388.15	3.5910	3.5910	-1.7901	25.34	0.19	-0.750			
0.4646	29733.50	3.5880	3.5880	-1.8277	25.33	0.18	-0.750			
0.4703	30096.60	3.5850	3.5850	-1.8651	25.32	0.17	-0.750			
0.4759	30459.44	3.5820	3.5819	-1.8969	25.32	0.17	-0.750			
0.4817	30825.72	3.5790	3.5790	-1.9153	25.32	0.17	-0.750			
0.4874	31194.90	3.5760	3.5761	-1.9402	25.32	0.17	-0.750			
0.4933	31572.63	3.5730	3.5728	-1.9691	25.32	0.17	-0.750			
0.4992	31949.93	3.5700	3.5700	-2.0011	25.32	0.17	-0.750			
0.5052	32334.89	3.5670	3.5668	-2.0301	25.32	0.17	-0.750			
0.5115	32732.90	3.5640	3.5641	-2.0441	25.32	0.17	-0.750			
0.5177	33129.99	3.5610	3.5610	-2.0677	25.31	0.16	-0.750			
0.5239	33529.54	3.5580	3.5579	-2.0699	25.31	0.16	-0.750			
0.5302	33930.82	3.5550	3.5551	-2.0654	25.32	0.17	-0.750			
0.5364	34328.96	3.5520	3.5521	-2.0761	25.32	0.17	-0.750			
0.5425	34721.25	3.5490	3.5490	-2.0670	25.32	0.17	-0.750			
0.5488	35121.82	3.5460	3.5459	-2.0530	25.32	0.17	-0.750			
0.5551	35523.21	3.5430	3.5430	-2.0585	25.32	0.17	-0.750			
0.5612	35913.67	3.5400	3.5400	-2.0293	25.32	0.17	-0.750			
0.5673	36304.64	3.5370	3.5372	-2.0239	25.32	0.17	-0.750			
0.5733	36688.62	3.5340	3.5339	-2.0086	25.32	0.17	-0.750			
0.5793	37072.02	3.5310	3.5308	-1.9833	25.33	0.18	-0.750			
0.5852	37452.60	3.5280	3.5283	-1.9674	25.34	0.19	-0.750			
0.5912	37835.45	3.5250	3.5250	-1.9593	25.35	0.20	-0.750			
0.5970	38206.88	3.5220	3.5220	-1.9120	25.36	0.21	-0.750			
0.6026	38568.71	3.5190	3.5190	-1.8623	25.36	0.21	-0.750			
0.6083	38928.23	3.5160	3.5160	-1.8266	25.37	0.22	-0.750			
0.6136	39271.24	3.5130	3.5129	-1.7775	25.38	0.23	-0.750			
0.6189	39609.17	3.5100	3.5099	-1.7456	25.39	0.24	-0.750			
0.6240	39937.76	3.5070	3.5071	-1.7026	25.40	0.25	-0.750			
0.6291	40263.14	3.5040	3.5041	-1.6537	25.41	0.26	-0.750			
0.6341	40579.34	3.5010	3.5010	-1.6143	25.42	0.27	-0.750			
0.6389	40887.12	3.4980	3.4979	-1.5653	25.43	0.28	-0.750			
0.6435	41181.18	3.4950	3.4950	-1.5189	25.44	0.29	-0.750			
0.6479	41465.10	3.4920	3.4921	-1.4707	25.46	0.31	-0.750			
0.6522	41740.94	3.4890	3.4889	-1.4245	25.47	0.32	-0.750			
0.6564	42012.66	3.4860	3.4860	-1.3816	25.49	0.34	-0.750			
0.6605	42274.55	3.4830	3.4831	-1.3491	25.50	0.35	-0.750			
0.6645	42528.75	3.4800	3.4800	-1.3029	25.51	0.36	-0.750			
0.6684	42777.68	3.4770	3.4770	-1.2637	25.52	0.37	-0.750			
0.6721	43014.43	3.4740	3.4741	-1.2225	25.54	0.39	-0.750			
0.6757	43244.26	3.4710	3.4710	-1.1844	25.55	0.40	-0.750			
0.6792	43469.74	3.4680	3.4679	-1.1456	25.57	0.42	-0.750			
0.6826	43684.96	3.4650	3.4649	-1.1070	25.58	0.43	-0.750			
0.6858	43891.45	3.4620	3.4622	-1.0665	25.60	0.45	-0.750			
0.6890	44095.91	3.4590	3.4589	-1.0417	25.61	0.46	-0.750			
0.6921	44291.93	3.4560	3.4560	-1.0059	25.62	0.47	-0.750			
0.6950	44480.05	3.4530	3.4530	-0.9731	25.63	0.48	-0.750			
0.6979	44665.76	3.4500	3.4500	-0.9479	25.64	0.49	-0.750			
0.7007	44843.46	3.4470	3.4470	-0.9271	25.65	0.50	-0.750			
0.7034	45016.26	3.4440	3.4440	-0.9026	25.66	0.51	-0.750			
0.7060	45186.93	3.4410	3.4410	-0.8885	25.67	0.52	-0.750			
0.7087	45354.83	3.4380	3.4380	-0.8758	25.68	0.53	-0.750			
0.7113	45522.64	3.4350	3.4351	-0.8710	25.69	0.54	-0.750			
0.7139	45688.42	3.4320	3.4320	-0.8666	25.70	0.55	-0.750			
0.7165	45853.98	3.4290	3.4290	-0.8666	25.71	0.56	-0.750			
0.7190	46018.94	3.4260	3.4260	-0.8660	25.72	0.57	-0.750			
0.7217	46185.83	3.4230	3.4230	-0.8664	25.72	0.57	-0.750			
0.7242	46351.74	3.4200	3.4200	-0.8702	25.73	0.58	-0.750			
0.7269	46518.54	3.4170	3.4170	-0.8777	25.74	0.59	-0.750			
0.7295	46688.39	3.4140	3.4140	-0.8787	25.75	0.60	-0.750			
0.7322	46858.21	3.4110	3.4109	-0.8793	25.76	0.61	-0.750			
0.7348	47028.06	3.4080	3.4080	-0.8774	25.77	0.62	-0.750			
0.7375	47198.38	3.4050	3.4051	-0.8749	25.77	0.62	-0.750			
0.7401	47366.72	3.4020	3.4019	-0.8702	25.78	0.63	-0.750			
0.7427	47532.13	3.3990	3.3990	-0.8557	25.78	0.63	-0.750			
0.7453	47696.02	3.3960	3.3960	-0.8409	25.79	0.64	-0.750			
0.7478	47858.58	3.3930	3.3929	-0.8294	25.79	0.64	-0.750			
0.7502	48015.59	3.3900	3.3899	-0.8076	25.79	0.64	-0.750			
0.7526	48168.83	3.3870	3.3870	-0.7882	25.80	0.65	-0.750			
0.7550	48317.64	3.3840	3.3840	-0.7643	25.81	0.66	-0.750			
0.7572	48461.84	3.3810	3.3810	-0.7413	25.81	0.66	-0.750			
0.7594	48603.98	3.3780	3.3780	-0.7223	25.82	0.67	-0.750			
0.7616	48740.39	3.3750	3.3750	-0.7005	25.82	0.67	-0.750			
0.7636	48872.67	3.3720	3.3720	-0.6780	25.83	0.68	-0.750			
0.7656	49000.46	3.3690	3.3690	-0.6569	25.84	0.69	-0.750			
0.7676	49124.36	3.3660	3.3660	-0.6360	25.85	0.70	-0.750			
0.7695	49244.94	3.3630	3.3630	-0.6177	25.85	0.70	-0.750			
0.7713	49361.12	3.3600	3.3599	-0.5979	25.86	0.71	-0.750			
0.7730	49473.92	3.3570	3.3571	-0.5794	25.87	0.72	-0.750			
0.7747	49583.03	3.3540	3.3539	-0.5613	25.87	0.72	-0.750			
0.7764	49689.41	3.3510	3.3509	-0.5436	25.88	0.73	-0.750			
0.7780	49791.46	3.3480	3.3480	-0.5266	25.89	0.74	-0.750			
0.7795	49890.87	3.3450	3.3450	-0.5115	25.89	0.74	-0.750			
0.7811	49987.88	3.3420	3.3420	-0.4960	25.89	0.74	-0.750			
0.7825	50081.74	3.3390	3.3390	-0.4815	25.90	0.75	-0.750			
0.7839	50172.17	3.3360	3.3360	-0.4669	25.90	0.75	-0.750			
0.7853	50260.16	3.3330	3.3330	-0.4540	25.91	0.76	-0.750			
0.7867	50346.16	3.3300	3.3300	-0.4418	25.91	0.76	-0.750			
0.7880	50429.58	3.3270	3.3270	-0.4279	25.92	0.77	-0.750			
0.7892	50510.12	3.3240	3.3239	-0.4175	25.92	0.77	-0.750			
0.7905	50589.67	3.3210	3.3211	-0.4057	25.93	0.78	-0.750			
0.7917	50666.48	3.3180	3.3180	-0.3939	25.93	0.78	-0.750			
0.7928	50740.64	3.3150	3.3150	-0.3835	25.93	0.78	-0.750			
0.7940	50813.14	3.3120	3.3120	-0.3737	25.94	0.79	-0.750			
0.7951	50883.20	3.3090	3.3089	-0.3646	25.94	0.79	-0.750			
0.7961	50952.50	3.3060	3.3059	-0.3560	25.94	0.79	-0.750			
0.7972	51019.90	3.3030	3.3031	-0.3445	25.95	0.80	-0.750			
0.7982	51085.67	3.3000	3.3000	-0.3365	25.95	0.80	-0.750			
0.7992	51149.25	3.2970	3.2971	-0.3288	25.96	0.81	-0.750			
0.8002	51211.19	3.2940	3.2939	-0.3209	25.96	0.81	-0.750			
0.8011	51271.29	3.2910	3.2910	-0.3133	25.97	0.82	-0.750			
0.8020	51330.77	3.2880	3.2880	-0.3075	25.97	0.82	-0.750			
0.8030	51389.52	3.2850	3.2850	-0.3018	25.98	0.83	-0.750			
0.8039	51446.96	3.2820	3.2819	-0.2971	25.99	0.84	-0.750			
0.8047	51502.99	3.2790	3.2790	-0.2915	25.99	0.84	-0.750			
0.8056	51558.60	3.2760	3.2760	-0.2854	26.00	0.85	-0.750			
0.8065	51612.91	3.2730	3.2730	-0.2804	26.00	0.85	-0.750			
0.8073	51666.53	3.2700	3.2700	-0.2753	26.01	0.86	-0.750			
0.8081	51718.61	3.2670	3.2672	-0.2713	26.01	0.86	-0.750			
0.8089	51770.25	3.2640	3.2639	-0.2668	26.02	0.87	-0.750			
0.8097	51820.97	3.2610	3.2610	-0.2620	26.02	0.87	-0.750			
0.8105	51870.61	3.2580	3.2580	-0.2555	26.03	0.88	-0.750			
0.8112	51919.32	3.2550	3.2550	-0.2517	26.03	0.88	-0.750			
0.8120	51967.78	3.2520	3.2520	-0.2472	26.04	0.89	-0.750			
0.8127	52013.98	3.2490	3.2491	-0.2427	26.05	0.90	-0.750			
0.8134	52059.84	3.2460	3.2460	-0.2380	26.05	0.90	-0.750			
0.8141	52105.57	3.2430	3.2430	-0.2352	26.06	0.91	-0.750			
0.8148	52150.08	3.2400	3.2401	-0.2320	26.06	0.91	-0.750			
0.8155	52194.67	3.2370	3.2370	-0.2298	26.07	0.92	-0.750			
0.8162	52237.98	3.2340	3.2340	-0.2259	26.07	0.92	-0.750			
0.8169	52281.15	3.2310	3.2309	-0.2241	26.08	0.93	-0.750			
0.8176	52324.01	3.2280	3.2280	-0.2210	26.08	0.93	-0.750			
0.8182	52366.23	3.2250	3.2251	-0.2188	26.09	0.94	-0.750			
0.8189	52408.58	3.2220	3.2220	-0.2157	26.10	0.95	-0.750			
0.8195	52449.77	3.2190	3.2191	-0.2128	26.10	0.95	-0.750			
0.8202	52490.12	3.2160	3.2160	-0.2087	26.11	0.96	-0.750			
0.8208	52529.72	3.2130	3.2130	-0.2061	26.11	0.96	-0.750			
0.8214	52568.91	3.2100	3.2099	-0.2033	26.12	0.97	-0.750			
0.8220	52607.25	3.2070	3.2071	-0.2004	26.12	0.97	-0.750			
0.8226	52645.56	3.2040	3.2040	-0.1987	26.12	0.97	-0.750			
0.8232	52683.55	3.2010	3.2011	-0.1970	26.13	0.98	-0.750			
0.8238	52721.38	3.1980	3.1979	-0.1952	26.13	0.98	-0.750			
0.8244	52758.73	3.1950	3.1949	-0.1927	26.14	0.99	-0.750			
0.8249	52795.51	3.1920	3.1920	-0.1904	26.15	1.00	-0.750			
0.8255	52831.82	3.1890	3.1890	-0.1886	26.15	1.00	-0.750			
0.8261	52867.87	3.1860	3.1861	-0.1867	26.16	1.01	-0.750			
0.8266	52903.36	3.1830	3.1829	-0.1844	26.16	1.01	-0.750			
0.8272	52938.61	3.1800	3.1800	-0.1827	26.17	1.02	-0.750			
0.8277	52973.41	3.1770	3.1770	-0.1809	26.17	1.02	-0.750			
0.8283	53008.07	3.1740	3.1741	-0.1791	26.18	1.03	-0.750			
0.8288	53042.49	3.1710	3.1710	-0.1776	26.18	1.03	-0.750			
0.8293	53076.36	3.1680	3.1680	-0.1753	26.19	1.04	-0.750			
0.8298	53109.62	3.1650	3.1650	-0.1736	26.19	1.04	-0.750			
0.8304	53142.91	3.1620	3.1620	-0.1715	26.20	1.05	-0.750			
0.8309	53175.61	3.1590	3.1590	-0.1696	26.20	1.05	-0.750			
0.8314	53207.99	3.1560	3.1560	-0.1677	26.20	1.05	-0.750			
0.8319	53239.92	3.1530	3.1531	-0.1660	26.21	1.06	-0.750			
0.8324	53271.56	3.1500	3.1500	-0.1646	26.21	1.06	-0.750			
0.8329	53302.97	3.1470	3.1470	-0.1630	26.22	1.07	-0.750			
0.8333	53334.16	3.1440	3.1440	-0.1616	26.22	1.07	-0.750			
0.8338	53364.89	3.1410	3.1410	-0.1602	26.23	1.08	-0.750			
0.8343	53395.74	3.1380	3.1380	-0.1592	26.23	1.08	-0.750			
0.8348	53426.16	3.1350	3.1350	-0.1578	26.24	1.09	-0.750			
0.8353	53456.30	3.1320	3.1320	-0.1564	26.24	1.09	-0.750			
0.8357	53486.44	3.1290	3.1290	-0.1544	26.25	1.10	-0.750			
0.8362	53516.00	3.1260	3.1259	-0.1525	26.26	1.11	-0.750			
0.8366	53544.94	3.1230	3.1231	-0.1513	26.26	1.11	-0.750			
0.8371	53573.78	3.1200	3.1201	-0.1499	26.27	1.12	-0.750			
0.8375	53602.20	3.1170	3.1169	-0.1486	26.27	1.12	-0.750			
0.8380	53630.65	3.1140	3.1140	-0.1477	26.28	1.13	-0.750			
0.8384	53658.74	3.1110	3.1110	-0.1471	26.28	1.13	-0.750			
0.8389	53686.94	3.1080	3.1080	-0.1461	26.29	1.14	-0.750			
0.8393	53715.29	3.1050	3.1050	-0.1457	26.29	1.14	-0.750			
0.8397	53743.12	3.1020	3.1019	-0.1442	26.30	1.15	-0.750			
0.8402	53770.64	3.0990	3.0991	-0.1424	26.30	1.15	-0.750			
0.8406	53798.00	3.0960	3.0960	-0.1411	26.31	1.16	-0.750			
0.8410	53824.71	3.0930	3.0930	-0.1397	26.31	1.16	-0.750			
0.8414	53851.41	3.0900	3.0900	-0.1384	26.32	1.17	-0.750			
0.8418	53877.73	3.0870	3.0869	-0.1369	26.32	1.17	-0.750			
0.8422	53903.83	3.0840	3.0840	-0.1360	26.33	1.18	-0.750			
0.8427	53929.83	3.0810	3.0810	-0.1351	26.33	1.18	-0.750			
0.8431	53955.71	3.0780	3.0781	-0.1344	26.34	1.19	-0.750			
0.8435	53981.51	3.0750	3.0750	-0.1335	26.34	1.19	-0.750			
0.8439	54007.15	3.0720	3.0720	-0.1324	26.35	1.20	-0.750			
0.8443	54032.32	3.0690	3.0690	-0.1312	26.35	1.20	-0.750			
0.8446	54057.43	3.0660	3.0661	-0.1303	26.36	1.21	-0.750			
0.8450	54082.43	3.0630	3.0630	-0.1298	26.36	1.21	-0.750			
0.8454	54107.06	3.0600	3.0600	-0.1289	26.37	1.22	-0.750			
0.8458	54131.85	3.0570	3.0570	-0.1280	26.37	1.22	-0.750			
0.8462	54156.37	3.0540	3.0540	-0.1274	26.38	1.23	-0.750			
0.8466	54180.82	3.0510	3.0510	-0.1268	26.39	1.24	-0.750			
0.8470	54205.22	3.0480	3.0480	-0.1261	26.39	1.24	-0.750			
0.8473	54229.38	3.0450	3.0450	-0.1248	26.40	1.25	-0.750			
0.8477	54253.23	3.0420	3.0419	-0.1236	26.40	1.25	-0.750			
0.8481	54276.86	3.0390	3.0390	-0.1222	26.41	1.26	-0.750			
0.8484	54300.20	3.0360	3.0359	-0.1209	26.41	1.26	-0.750			
0.8488	54323.15	3.0330	3.0330	-0.1204	26.42	1.27	-0.750			
0.8492	54346.14	3.0300	3.0300	-0.1196	26.42	1.27	-0.750			
0.8495	54368.82	3.0270	3.0269	-0.1184	26.43	1.28	-0.750			
0.8499	54391.53	3.0240	3.0240	-0.1181	26.43	1.28	-0.750			
0.8502	54414.24	3.0210	3.0210	-0.1178	26.44	1.29	-0.750			
0.8506	54436.81	3.0180	3.0181	-0.1173	26.44	1.29	-0.750			
0.8509	54459.59	3.0150	3.0150	-0.1164	26.45	1.30	-0.750			
0.8513	54481.82	3.0120	3.0119	-0.1152	26.45	1.30	-0.750			
0.8516	54503.83	3.0090	3.0091	-0.1139	26.46	1.31	-0.750			
0.8520	54525.57	3.0060	3.0060	-0.1126	26.46	1.31	-0.750			
0.8523	54547.06	3.0030	3.0030	-0.1085	26.47	1.32	-0.751			
