Ah_balance (normalized)	Ah_balance (mAh)	Voltage - fit (V)	Voltage -  interpolate (V)	dQ/dV (1/V)	Temperature (°C)	Temperature - diff (°C)	Current (C)	R_DC 0ms (mOhm)	R_DC 50ms (mOhm)	R_DC 50 ms PEC (mOhm)
0.0552	3531.57	4.1990	4.1990	0.7952	26.76	0.77	0.750			
0.0575	3678.23	4.1960	4.1960	0.7569	26.76	0.77	0.750			
0.0597	3823.57	4.1930	4.1932	0.7561	26.76	0.77	0.750			
0.0620	3968.49	4.1900	4.1899	0.7563	26.76	0.77	0.750			
0.0643	4113.83	4.1870	4.1870	0.7541	26.76	0.77	0.750			
0.0665	4257.81	4.1840	4.1840	0.7502	26.76	0.77	0.750			
0.0688	4403.11	4.1810	4.1811	0.7506	26.76	0.77	0.750			
0.0710	4546.49	4.1780	4.1780	0.7497	26.76	0.77	0.750			
0.0733	4688.68	4.1750	4.1746	0.7474	26.76	0.77	0.750			
0.0755	4832.14	4.1720	4.1721	0.7505	26.76	0.77	0.750			
0.0778	4976.79	4.1690	4.1690	0.7504	26.76	0.77	0.750			
0.0800	5122.16	4.1660	4.1659	0.7566	26.76	0.77	0.750			
0.0823	5267.66	4.1630	4.1631	0.7583	26.76	0.77	0.750			
0.0846	5412.26	4.1600	4.1599	0.7607	26.76	0.77	0.750			
0.0869	5558.53	4.1570	4.1570	0.7618	26.76	0.77	0.750			
0.0891	5705.09	4.1540	4.1540	0.7630	26.76	0.77	0.750			
0.0914	5851.81	4.1510	4.1510	0.7605	26.76	0.77	0.750			
0.0937	5999.18	4.1480	4.1481	0.7637	26.76	0.77	0.750			
0.0960	6144.43	4.1450	4.1450	0.7649	26.76	0.77	0.750			
0.0983	6291.74	4.1420	4.1418	0.7668	26.76	0.77	0.750			
0.1006	6438.27	4.1390	4.1390	0.7674	26.76	0.77	0.750			
0.1029	6586.93	4.1360	4.1361	0.7678	26.76	0.77	0.750			
0.1052	6735.33	4.1330	4.1330	0.7746	26.76	0.77	0.750			
0.1076	6884.73	4.1300	4.1300	0.7768	26.76	0.77	0.750			
0.1099	7032.38	4.1270	4.1269	0.7742	26.76	0.77	0.750			
0.1122	7181.92	4.1240	4.1240	0.7728	26.76	0.77	0.750			
0.1146	7331.58	4.1210	4.1210	0.7742	26.76	0.77	0.750			
0.1169	7478.85	4.1180	4.1180	0.7782	26.76	0.77	0.750			
0.1192	7629.49	4.1150	4.1149	0.7776	26.76	0.77	0.750			
0.1215	7777.01	4.1120	4.1120	0.7763	26.76	0.77	0.750			
0.1239	7926.95	4.1090	4.1091	0.7789	26.76	0.77	0.750			
0.1262	8077.50	4.1060	4.1061	0.7791	26.76	0.77	0.750			
0.1286	8227.77	4.1030	4.1029	0.7785	26.76	0.77	0.750			
0.1309	8375.50	4.1000	4.1001	0.7762	26.76	0.77	0.750			
0.1332	8522.54	4.0970	4.0971	0.7770	26.76	0.77	0.750			
0.1355	8672.69	4.0940	4.0938	0.7887	26.76	0.77	0.750			
0.1379	8824.80	4.0910	4.0911	0.7860	26.76	0.77	0.750			
0.1403	8977.44	4.0880	4.0880	0.7851	26.76	0.77	0.750			
0.1426	9129.20	4.0850	4.0851	0.7934	26.76	0.77	0.750			
0.1450	9281.39	4.0820	4.0819	0.7965	26.76	0.77	0.750			
0.1474	9432.19	4.0790	4.0789	0.7975	26.76	0.77	0.750			
0.1498	9585.82	4.0760	4.0760	0.8012	26.76	0.77	0.750			
0.1522	9741.93	4.0730	4.0731	0.7984	26.76	0.77	0.750			
0.1546	9896.87	4.0700	4.0700	0.8066	26.76	0.77	0.750			
0.1570	10050.90	4.0670	4.0671	0.8099	26.76	0.77	0.750			
0.1594	10204.44	4.0640	4.0640	0.8054	26.76	0.77	0.750			
0.1619	10359.78	4.0610	4.0611	0.8077	26.76	0.77	0.750			
0.1643	10515.58	4.0580	4.0580	0.8069	26.76	0.77	0.750			
0.1667	10670.61	4.0550	4.0551	0.8116	26.76	0.77	0.750			
0.1692	10828.68	4.0520	4.0519	0.8166	26.77	0.78	0.750			
0.1716	10982.33	4.0490	4.0490	0.8152	26.77	0.78	0.750			
0.1740	11138.87	4.0460	4.0460	0.8236	26.77	0.78	0.750			
0.1766	11300.20	4.0430	4.0430	0.8196	26.77	0.78	0.750			
0.1790	11458.40	4.0400	4.0400	0.8314	26.77	0.78	0.750			
0.1815	11618.56	4.0370	4.0371	0.8326	26.78	0.79	0.750			
0.1840	11777.97	4.0340	4.0342	0.8353	26.78	0.79	0.750			
0.1865	11938.62	4.0310	4.0312	0.8384	26.78	0.79	0.750			
0.1891	12100.32	4.0280	4.0280	0.8371	26.78	0.79	0.750			
0.1916	12261.34	4.0250	4.0250	0.8357	26.78	0.79	0.750			
0.1941	12422.20	4.0220	4.0221	0.8402	26.77	0.78	0.750			
0.1966	12582.49	4.0190	4.0191	0.8363	26.77	0.78	0.750			
0.1991	12743.99	4.0160	4.0159	0.8420	26.77	0.78	0.750			
0.2016	12904.14	4.0130	4.0130	0.8411	26.77	0.78	0.750			
0.2042	13066.12	4.0100	4.0101	0.8502	26.77	0.78	0.750			
0.2067	13231.09	4.0070	4.0070	0.8525	26.78	0.79	0.750			
0.2093	13396.78	4.0040	4.0040	0.8555	26.78	0.79	0.750			
0.2119	13559.81	4.0010	4.0011	0.8594	26.78	0.79	0.750			
0.2145	13727.63	3.9980	3.9979	0.8541	26.78	0.79	0.750			
0.2170	13890.00	3.9950	3.9950	0.8559	26.78	0.79	0.750			
0.2196	14053.29	3.9920	3.9921	0.8566	26.78	0.79	0.750			
0.2221	14216.93	3.9890	3.9891	0.8600	26.78	0.79	0.750			
0.2247	14383.42	3.9860	3.9860	0.8643	26.78	0.79	0.750			
0.2273	14549.80	3.9830	3.9830	0.8614	26.77	0.78	0.750			
0.2299	14714.67	3.9800	3.9801	0.8646	26.77	0.78	0.750			
0.2325	14882.52	3.9770	3.9770	0.8675	26.77	0.78	0.750			
0.2351	15048.98	3.9740	3.9738	0.8691	26.76	0.77	0.750			
0.2377	15215.61	3.9710	3.9711	0.8699	26.76	0.77	0.750			
0.2404	15383.42	3.9680	3.9680	0.8686	26.76	0.77	0.750			
0.2430	15550.78	3.9650	3.9650	0.8733	26.76	0.77	0.750			
0.2456	15719.69	3.9620	3.9620	0.8765	26.76	0.77	0.750			
0.2482	15885.83	3.9590	3.9588	0.8768	26.76	0.77	0.750			
0.2509	16055.50	3.9560	3.9560	0.8749	26.76	0.77	0.750			
0.2535	16224.52	3.9530	3.9530	0.8750	26.76	0.77	0.750			
0.2561	16392.57	3.9500	3.9500	0.8775	26.75	0.76	0.750			
0.2588	16561.24	3.9470	3.9471	0.8774	26.75	0.76	0.750			
0.2614	16728.06	3.9440	3.9439	0.8728	26.75	0.76	0.750			
0.2640	16896.15	3.9410	3.9409	0.8723	26.75	0.76	0.750			
0.2666	17062.24	3.9380	3.9381	0.8755	26.75	0.76	0.750			
0.2692	17231.10	3.9350	3.9350	0.8825	26.74	0.75	0.750			
0.2719	17401.27	3.9320	3.9319	0.8842	26.74	0.75	0.750			
0.2745	17570.42	3.9290	3.9291	0.8891	26.74	0.75	0.750			
0.2772	17741.98	3.9260	3.9261	0.8920	26.73	0.74	0.750			
0.2799	17914.73	3.9230	3.9230	0.8943	26.73	0.74	0.750			
0.2826	18086.48	3.9200	3.9200	0.9011	26.72	0.73	0.750			
0.2853	18259.39	3.9170	3.9168	0.8991	26.72	0.73	0.750			
0.2880	18433.63	3.9140	3.9140	0.8989	26.72	0.73	0.750			
0.2907	18605.77	3.9110	3.9111	0.9023	26.71	0.72	0.750			
0.2934	18777.68	3.9080	3.9081	0.9032	26.71	0.72	0.750			
0.2961	18951.78	3.9050	3.9051	0.9090	26.70	0.71	0.750			
0.2988	19124.83	3.9020	3.9019	0.9138	26.70	0.71	0.750			
0.3016	19300.38	3.8990	3.8991	0.9169	26.69	0.70	0.750			
0.3044	19478.79	3.8960	3.8960	0.9290	26.68	0.69	0.750			
0.3072	19659.06	3.8930	3.8930	0.9278	26.67	0.68	0.750			
0.3100	19838.83	3.8900	3.8900	0.9249	26.66	0.67	0.750			
0.3128	20017.70	3.8870	3.8870	0.9206	26.66	0.67	0.750			
0.3155	20191.14	3.8840	3.8841	0.9254	26.65	0.66	0.750			
0.3182	20366.24	3.8810	3.8810	0.9252	26.65	0.66	0.750			
0.3210	20544.86	3.8780	3.8780	0.9325	26.64	0.65	0.750			
0.3238	20724.06	3.8750	3.8749	0.9368	26.64	0.65	0.750			
0.3267	20906.84	3.8720	3.8721	0.9419	26.63	0.64	0.750			
0.3295	21090.61	3.8690	3.8690	0.9440	26.62	0.63	0.750			
0.3324	21271.33	3.8660	3.8660	0.9414	26.61	0.62	0.750			
0.3351	21448.98	3.8630	3.8630	0.9394	26.60	0.61	0.750			
0.3380	21632.51	3.8600	3.8600	0.9342	26.59	0.60	0.750			
0.3408	21811.09	3.8570	3.8569	0.9328	26.58	0.59	0.750			
0.3436	21990.36	3.8540	3.8541	0.9334	26.57	0.58	0.750			
0.3464	22168.45	3.8510	3.8512	0.9351	26.57	0.58	0.750			
0.3492	22346.98	3.8480	3.8479	0.9364	26.56	0.57	0.750			
0.3520	22526.31	3.8450	3.8450	0.9334	26.55	0.56	0.750			
0.3547	22702.79	3.8420	3.8420	0.9378	26.54	0.55	0.750			
0.3576	22885.30	3.8390	3.8391	0.9496	26.53	0.54	0.750			
0.3604	23067.67	3.8360	3.8358	0.9567	26.52	0.53	0.750			
0.3633	23252.79	3.8330	3.8330	0.9627	26.51	0.52	0.750			
0.3662	23438.75	3.8300	3.8300	0.9723	26.50	0.51	0.750			
0.3692	23627.02	3.8270	3.8270	0.9830	26.49	0.50	0.750			
0.3721	23815.75	3.8240	3.8240	0.9882	26.47	0.48	0.750			
0.3751	24007.20	3.8210	3.8210	0.9970	26.47	0.48	0.750			
0.3781	24198.87	3.8180	3.8180	1.0090	26.46	0.47	0.750			
0.3812	24393.71	3.8150	3.8150	1.0189	26.45	0.46	0.750			
0.3842	24590.54	3.8120	3.8120	1.0324	26.44	0.45	0.750			
0.3874	24792.08	3.8090	3.8089	1.0246	26.43	0.44	0.750			
0.3904	24987.90	3.8060	3.8061	1.0354	26.42	0.43	0.750			
0.3935	25185.00	3.8030	3.8031	1.0503	26.41	0.42	0.750			
0.3967	25386.22	3.8000	3.8002	1.0610	26.40	0.41	0.750			
0.3999	25592.79	3.7970	3.7969	1.0729	26.38	0.39	0.750			
0.4031	25798.20	3.7940	3.7942	1.0908	26.37	0.38	0.750			
0.4064	26009.28	3.7910	3.7911	1.1136	26.36	0.37	0.750			
0.4099	26231.74	3.7880	3.7879	1.1333	26.34	0.35	0.750			
0.4132	26444.11	3.7850	3.7850	1.1347	26.33	0.34	0.750			
0.4166	26663.78	3.7820	3.7821	1.1532	26.32	0.33	0.750			
0.4202	26894.17	3.7790	3.7790	1.1557	26.30	0.31	0.750			
0.4236	27111.10	3.7760	3.7758	1.1960	26.29	0.30	0.750			
0.4272	27340.15	3.7730	3.7731	1.2258	26.28	0.29	0.750			
0.4309	27576.20	3.7700	3.7699	1.2611	26.27	0.28	0.750	0.335	0.466	
0.4348	27827.71	3.7670	3.7671	1.2873	26.25	0.26	0.750			
0.4387	28077.14	3.7640	3.7643	1.3235	26.24	0.25	0.750			
0.4428	28336.77	3.7610	3.7612	1.3614	26.23	0.24	0.750			
0.4469	28604.32	3.7580	3.7578	1.3559	26.21	0.22	0.750			
0.4511	28868.27	3.7550	3.7551	1.3885	26.20	0.21	0.750			
0.4552	29131.86	3.7520	3.7523	1.4165	26.18	0.19	0.750			
0.4595	29404.82	3.7490	3.7490	1.4426	26.16	0.17	0.750			
0.4638	29685.64	3.7460	3.7458	1.4825	26.15	0.16	0.750			
0.4682	29967.05	3.7430	3.7433	1.5066	26.13	0.14	0.750			
0.4728	30261.89	3.7400	3.7398	1.5546	26.11	0.12	0.750			
0.4776	30567.06	3.7370	3.7372	1.6073	26.10	0.11	0.750			
0.4825	30880.97	3.7340	3.7337	1.6569	26.08	0.09	0.750			
0.4875	31201.89	3.7310	3.7311	1.6929	26.06	0.07	0.750			
0.4927	31533.60	3.7280	3.7279	1.7316	26.05	0.06	0.750			
0.4979	31868.12	3.7250	3.7249	1.7823	26.03	0.04	0.750			
0.5033	32213.74	3.7220	3.7220	1.8110	26.01	0.02	0.750			
0.5088	32565.91	3.7190	3.7189	1.8511	26.00	0.01	0.750			
0.5144	32924.63	3.7160	3.7159	1.9141	25.98	-0.01	0.750			
0.5203	33298.32	3.7130	3.7128	1.9605	25.96	-0.03	0.750			
0.5263	33682.21	3.7100	3.7098	2.0308	25.94	-0.05	0.750			
0.5324	34075.09	3.7070	3.7073	2.1000	25.92	-0.07	0.750			
0.5388	34480.91	3.7040	3.7037	2.1645	25.91	-0.08	0.750			
0.5455	34909.97	3.7010	3.7011	2.2409	25.89	-0.10	0.750			
0.5523	35346.26	3.6980	3.6981	2.3480	25.88	-0.11	0.750			
0.5596	35815.62	3.6950	3.6948	2.4141	25.85	-0.14	0.750			
0.5668	36275.42	3.6920	3.6919	2.4966	25.84	-0.15	0.750			
0.5744	36762.61	3.6890	3.6893	2.5920	25.82	-0.17	0.750			
0.5823	37268.24	3.6860	3.6858	2.6952	25.81	-0.18	0.750			
0.5906	37800.10	3.6830	3.6832	2.7584	25.79	-0.20	0.750			
0.5994	38361.80	3.6800	3.6801	2.8410	25.77	-0.22	0.750			
0.6080	38910.26	3.6770	3.6769	2.8208	25.77	-0.22	0.750			
0.6166	39459.51	3.6740	3.6740	2.7769	25.76	-0.23	0.750			
0.6251	40004.63	3.6710	3.6711	2.6406	25.75	-0.24	0.750			
0.6326	40486.42	3.6680	3.6681	2.3750	25.75	-0.24	0.750			
0.6392	40905.86	3.6650	3.6652	2.1354	25.75	-0.24	0.750			
0.6451	41285.56	3.6620	3.6622	1.9249	25.75	-0.24	0.750			
0.6503	41618.71	3.6590	3.6588	1.7437	25.75	-0.24	0.750			
0.6551	41924.72	3.6560	3.6557	1.6089	25.75	-0.24	0.750			
0.6598	42227.11	3.6530	3.6530	1.5102	25.75	-0.24	0.750			
0.6642	42511.30	3.6500	3.6501	1.4336	25.75	-0.24	0.750			
0.6683	42772.98	3.6470	3.6470	1.3418	25.75	-0.24	0.750			
0.6721	43017.05	3.6440	3.6440	1.2624	25.75	-0.24	0.750			
0.6758	43251.30	3.6410	3.6410	1.2268	25.75	-0.24	0.750			
0.6793	43472.08	3.6380	3.6380	1.1927	25.75	-0.24	0.750			
0.6828	43697.87	3.6350	3.6350	1.1878	25.74	-0.25	0.750			
0.6863	43925.43	3.6320	3.6319	1.1741	25.74	-0.25	0.750			
0.6899	44150.81	3.6290	3.6291	1.1901	25.74	-0.25	0.750			
0.6934	44377.14	3.6260	3.6261	1.2060	25.75	-0.24	0.750			
0.6971	44614.74	3.6230	3.6228	1.2034	25.75	-0.24	0.750			
0.7007	44847.59	3.6200	3.6200	1.1937	25.75	-0.24	0.750			
0.7044	45079.26	3.6170	3.6171	1.1869	25.75	-0.24	0.750			
0.7080	45310.34	3.6140	3.6141	1.1671	25.75	-0.24	0.750			
0.7115	45534.15	3.6110	3.6109	1.1334	25.75	-0.24	0.750			
0.7148	45744.60	3.6080	3.6079	1.1243	25.75	-0.24	0.750			
0.7180	45950.28	3.6050	3.6051	1.1232	25.74	-0.25	0.750			
0.7214	46167.07	3.6020	3.6018	1.1510	25.74	-0.25	0.750			
0.7248	46386.51	3.5990	3.5991	1.1656	25.74	-0.25	0.750			
0.7283	46612.43	3.5960	3.5962	1.2032	25.74	-0.25	0.750			
0.7321	46852.41	3.5930	3.5930	1.2369	25.73	-0.26	0.750			
0.7359	47100.53	3.5900	3.5897	1.2415	25.73	-0.26	0.750			
0.7396	47336.62	3.5870	3.5871	1.2837	25.73	-0.26	0.750			
0.7434	47580.31	3.5840	3.5844	1.3332	25.73	-0.26	0.750			
0.7475	47839.09	3.5810	3.5803	1.3769	25.73	-0.26	0.750			
0.7517	48110.55	3.5780	3.5783	1.4369	25.73	-0.26	0.750			
0.7561	48388.31	3.5750	3.5749	1.4886	25.72	-0.27	0.750			
0.7607	48686.44	3.5720	3.5720	1.5376	25.72	-0.27	0.750			
0.7655	48989.50	3.5690	3.5694	1.5802	25.72	-0.27	0.750			
0.7704	49307.06	3.5660	3.5662	1.5923	25.72	-0.27	0.750			
0.7753	49616.68	3.5630	3.5630	1.6106	25.72	-0.27	0.750			
0.7801	49927.70	3.5600	3.5605	1.6346	25.72	-0.27	0.750			
0.7850	50241.28	3.5570	3.5569	1.6718	25.72	-0.27	0.750			
0.7901	50564.42	3.5540	3.5541	1.6786	25.73	-0.26	0.750			
0.7951	50887.96	3.5510	3.5511	1.6891	25.74	-0.25	0.750			
0.8002	51215.97	3.5480	3.5483	1.7114	25.74	-0.25	0.750			
0.8053	51540.54	3.5450	3.5447	1.7636	25.75	-0.24	0.750			
0.8107	51886.22	3.5420	3.5417	1.7716	25.75	-0.24	0.750			
0.8162	52237.82	3.5390	3.5391	1.7348	25.76	-0.23	0.750			
0.8218	52597.68	3.5360	3.5358	1.5866	25.77	-0.22	0.750			
0.8268	52915.05	3.5330	3.5335	1.3850	25.78	-0.21	0.750			
0.8308	53172.64	3.5300	3.5303	1.1126	25.80	-0.19	0.750			
0.8336	53347.47	3.5270	3.5268	0.8615	25.81	-0.18	0.750			
0.8352	53454.04	3.5240	3.5235	0.5976	25.82	-0.17	0.750			
0.8365	53536.10	3.5210	3.5207	0.4813	25.83	-0.16	0.750			
0.8376	53603.74	3.5180	3.5179	0.3937	25.83	-0.16	0.750			
0.8386	53672.18	3.5150	3.5150	0.3611	25.84	-0.15	0.750			
0.8396	53735.75	3.5120	3.5120	0.3332	25.85	-0.14	0.750			
0.8406	53796.26	3.5090	3.5090	0.3172	25.86	-0.13	0.750			
0.8415	53855.24	3.5060	3.5060	0.3050	25.86	-0.13	0.750			
0.8424	53911.91	3.5030	3.5030	0.2952	25.87	-0.12	0.750			
0.8432	53967.51	3.5000	3.4999	0.2876	25.87	-0.12	0.750			
0.8441	54021.87	3.4970	3.4970	0.2798	25.88	-0.11	0.750			
0.8449	54075.01	3.4940	3.4940	0.2726	25.89	-0.10	0.750			
0.8457	54127.04	3.4910	3.4910	0.2660	25.89	-0.10	0.750			
0.8465	54177.05	3.4880	3.4880	0.2597	25.90	-0.09	0.750			
0.8473	54225.98	3.4850	3.4850	0.2533	25.90	-0.09	0.750			
0.8480	54273.96	3.4820	3.4820	0.2473	25.91	-0.08	0.750			
0.8488	54320.34	3.4790	3.4790	0.2422	25.91	-0.08	0.750			
0.8495	54366.26	3.4760	3.4761	0.2393	25.92	-0.07	0.750			
0.8502	54412.02	3.4730	3.4730	0.2349	25.92	-0.07	0.750			
0.8509	54457.05	3.4700	3.4699	0.2308	25.93	-0.06	0.750			
0.8516	54501.20	3.4670	3.4669	0.2257	25.93	-0.06	0.750			
0.8523	54544.10	3.4640	3.4641	0.2206	25.94	-0.05	0.750			
0.8529	54586.48	3.4610	3.4609	0.2157	25.94	-0.05	0.750			
0.8535	54626.93	3.4580	3.4580	0.2100	25.94	-0.05	0.750			
0.8542	54666.10	3.4550	3.4550	0.2046	25.95	-0.04	0.750			
0.8548	54704.41	3.4520	3.4520	0.1995	25.95	-0.04	0.750			
0.8554	54742.56	3.4490	3.4489	0.1955	25.96	-0.03	0.750			
0.8559	54779.58	3.4460	3.4460	0.1906	25.96	-0.03	0.750			
0.8565	54816.02	3.4430	3.4430	0.1869	25.96	-0.03	0.750			
0.8571	54851.58	3.4400	3.4401	0.1812	25.97	-0.02	0.750			
0.8576	54886.17	3.4370	3.4370	0.1761	25.97	-0.02	0.750			
0.8581	54919.34	3.4340	3.4340	0.1702	25.97	-0.02	0.750			
0.8586	54951.45	3.4310	3.4310	0.1643	25.98	-0.01	0.750			
0.8591	54982.24	3.4280	3.4279	0.1595	25.98	-0.01	0.750			
0.8596	55012.30	3.4250	3.4250	0.1543	25.98	-0.01	0.750			
0.8600	55041.49	3.4220	3.4219	0.1490	25.99	-0.00	0.750			
0.8605	55069.82	3.4190	3.4190	0.1433	25.99	-0.00	0.750			
0.8609	55097.03	3.4160	3.4161	0.1379	25.99	0.00	0.750			
0.8613	55123.07	3.4130	3.4130	0.1321	25.99	0.00	0.750			
0.8617	55147.99	3.4100	3.4100	0.1261	26.00	0.01	0.750			
0.8621	55171.71	3.4070	3.4070	0.1189	26.00	0.01	0.750			
0.8624	55193.83	3.4040	3.4039	0.1118	26.00	0.01	0.750			
0.8628	55216.33	3.4010	3.4008	0.1026	26.00	0.01	0.750			
0.8631	55235.40	3.3980	3.3981	0.0942	26.01	0.02	0.750			
0.8633	55252.44	3.3950	3.3950	0.0833	26.01	0.02	0.750			
0.8636	55268.31	3.3920	3.3920	0.0739	26.01	0.02	0.750			
0.8638	55281.34	3.3890	3.3895	0.0619	26.01	0.02	0.750			
0.8639	55292.73	3.3860	3.3866	0.0501	26.01	0.02	0.750			
0.8641	55301.14	3.3830	3.3841	0.0375	26.01	0.02	0.750			
0.8642	55307.13	3.3800	3.3816	0.0249	26.01	0.02	0.750			
0.8642	55310.69	3.3770	3.3798	0.0122	26.01	0.02	0.750			
