Ah_balance (normalized)	Ah_balance (mAh)	Voltage - fit (V)	Voltage -  interpolate (V)	dQ/dV (1/V)	Temperature (°C)	Temperature - diff (°C)	Current (C)	R_DC 0ms (mOhm)	R_DC 50ms (mOhm)	R_DC 50 ms PEC (mOhm)
0.0538	3442.20	4.1970	4.1970	0.8077	26.61	0.62	0.750			
0.0561	3593.15	4.1940	4.1940	0.7785	26.61	0.62	0.750			
0.0584	3738.30	4.1910	4.1911	0.7659	26.61	0.62	0.750			
0.0607	3884.02	4.1880	4.1880	0.7657	26.61	0.62	0.750			
0.0630	4030.08	4.1850	4.1849	0.7614	26.61	0.62	0.750			
0.0652	4175.63	4.1820	4.1816	0.7596	26.61	0.62	0.750			
0.0675	4322.12	4.1790	4.1791	0.7606	26.61	0.62	0.750			
0.0698	4469.99	4.1760	4.1759	0.7611	26.61	0.62	0.750			
0.0721	4614.62	4.1730	4.1730	0.7609	26.61	0.62	0.750			
0.0744	4760.23	4.1700	4.1700	0.7610	26.61	0.62	0.750			
0.0766	4904.41	4.1670	4.1670	0.7653	26.61	0.62	0.750			
0.0790	5052.96	4.1640	4.1639	0.7741	26.61	0.62	0.750			
0.0813	5204.18	4.1610	4.1610	0.7725	26.61	0.62	0.750			
0.0836	5352.27	4.1580	4.1580	0.7738	26.61	0.62	0.750			
0.0860	5502.17	4.1550	4.1550	0.7762	26.60	0.61	0.750			
0.0883	5650.15	4.1520	4.1520	0.7756	26.60	0.61	0.750			
0.0906	5798.46	4.1490	4.1489	0.7721	26.60	0.61	0.750			
0.0929	5945.08	4.1460	4.1461	0.7725	26.60	0.61	0.750			
0.0952	6095.98	4.1430	4.1431	0.7706	26.60	0.61	0.750			
0.0976	6244.11	4.1400	4.1400	0.7802	26.60	0.61	0.750			
0.0999	6393.34	4.1370	4.1370	0.7861	26.60	0.61	0.750			
0.1022	6543.95	4.1340	4.1337	0.7830	26.60	0.61	0.750			
0.1046	6694.78	4.1310	4.1313	0.7839	26.60	0.61	0.750			
0.1070	6848.18	4.1280	4.1280	0.7830	26.60	0.61	0.750			
0.1093	6995.43	4.1250	4.1252	0.7870	26.59	0.60	0.750			
0.1117	7147.50	4.1220	4.1219	0.7874	26.59	0.60	0.750			
0.1140	7296.47	4.1190	4.1191	0.7888	26.59	0.60	0.750			
0.1164	7448.46	4.1160	4.1159	0.7878	26.59	0.60	0.750			
0.1188	7603.95	4.1130	4.1132	0.7895	26.59	0.60	0.750			
0.1212	7753.62	4.1100	4.1101	0.7872	26.59	0.60	0.750			
0.1235	7904.43	4.1070	4.1070	0.7889	26.60	0.61	0.750			
0.1258	8052.12	4.1040	4.1039	0.7904	26.60	0.61	0.750			
0.1282	8204.05	4.1010	4.1010	0.7939	26.60	0.61	0.750			
0.1306	8356.33	4.0980	4.0981	0.7977	26.60	0.61	0.750			
0.1330	8514.77	4.0950	4.0949	0.7966	26.60	0.61	0.750			
0.1354	8665.82	4.0920	4.0920	0.7964	26.59	0.60	0.750			
0.1377	8815.33	4.0890	4.0891	0.7913	26.59	0.60	0.750			
0.1401	8967.52	4.0860	4.0856	0.7961	26.59	0.60	0.750			
0.1425	9118.38	4.0830	4.0831	0.7972	26.59	0.60	0.750			
0.1449	9274.79	4.0800	4.0800	0.8017	26.59	0.60	0.750			
0.1473	9428.67	4.0770	4.0771	0.8118	26.58	0.59	0.750			
0.1498	9585.32	4.0740	4.0740	0.8109	26.58	0.59	0.750			
0.1522	9741.45	4.0710	4.0709	0.8143	26.58	0.59	0.750			
0.1546	9897.35	4.0680	4.0680	0.8184	26.58	0.59	0.750			
0.1571	10056.18	4.0650	4.0652	0.8192	26.58	0.59	0.750			
0.1596	10214.82	4.0620	4.0619	0.8277	26.58	0.59	0.750			
0.1621	10374.85	4.0590	4.0590	0.8261	26.58	0.59	0.750			
0.1646	10533.18	4.0560	4.0559	0.8242	26.58	0.59	0.750			
0.1671	10691.69	4.0530	4.0531	0.8307	26.58	0.59	0.750			
0.1696	10851.90	4.0500	4.0500	0.8262	26.58	0.59	0.750			
0.1720	11008.32	4.0470	4.0470	0.8338	26.57	0.58	0.750			
0.1745	11168.55	4.0440	4.0441	0.8408	26.57	0.58	0.750			
0.1770	11330.79	4.0410	4.0409	0.8408	26.57	0.58	0.750			
0.1796	11493.48	4.0380	4.0381	0.8446	26.57	0.58	0.750			
0.1821	11657.26	4.0350	4.0351	0.8442	26.57	0.58	0.750			
0.1847	11818.42	4.0320	4.0320	0.8454	26.58	0.59	0.750			
0.1872	11980.55	4.0290	4.0290	0.8443	26.58	0.59	0.750			
0.1897	12141.53	4.0260	4.0259	0.8482	26.58	0.59	0.750			
0.1923	12305.23	4.0230	4.0231	0.8531	26.58	0.59	0.750			
0.1949	12470.76	4.0200	4.0200	0.8573	26.58	0.59	0.750			
0.1974	12636.21	4.0170	4.0170	0.8607	26.57	0.58	0.750			
0.2000	12800.95	4.0140	4.0140	0.8604	26.57	0.58	0.750			
0.2026	12966.14	4.0110	4.0109	0.8655	26.57	0.58	0.750			
0.2052	13132.73	4.0080	4.0080	0.8685	26.57	0.58	0.750			
0.2078	13299.73	4.0050	4.0050	0.8660	26.57	0.58	0.750			
0.2104	13466.60	4.0020	4.0020	0.8716	26.57	0.58	0.750			
0.2130	13632.65	3.9990	3.9991	0.8746	26.57	0.58	0.750			
0.2156	13800.76	3.9960	3.9960	0.8837	26.57	0.58	0.750			
0.2183	13971.43	3.9930	3.9930	0.8865	26.57	0.58	0.750			
0.2210	14143.51	3.9900	3.9900	0.8849	26.57	0.58	0.750			
0.2237	14315.21	3.9870	3.9871	0.8911	26.56	0.57	0.750			
0.2263	14485.81	3.9840	3.9841	0.8877	26.56	0.57	0.750			
0.2290	14655.04	3.9810	3.9809	0.8911	26.56	0.57	0.750			
0.2316	14823.22	3.9780	3.9780	0.8917	26.56	0.57	0.750			
0.2343	14995.28	3.9750	3.9751	0.8982	26.56	0.57	0.750			
0.2370	15170.36	3.9720	3.9719	0.9075	26.56	0.57	0.750			
0.2398	15346.96	3.9690	3.9688	0.9049	26.56	0.57	0.750			
0.2425	15521.43	3.9660	3.9662	0.8974	26.56	0.57	0.750			
0.2452	15694.02	3.9630	3.9629	0.8927	26.56	0.57	0.750			
0.2479	15862.74	3.9600	3.9603	0.8882	26.56	0.57	0.750			
0.2505	16031.96	3.9570	3.9570	0.8917	26.56	0.57	0.750			
0.2531	16200.36	3.9540	3.9540	0.8973	26.56	0.57	0.750			
0.2559	16374.68	3.9510	3.9510	0.8993	26.56	0.57	0.750			
0.2586	16550.16	3.9480	3.9479	0.9079	26.56	0.57	0.750			
0.2613	16723.94	3.9450	3.9451	0.9112	26.55	0.56	0.750			
0.2640	16899.14	3.9420	3.9420	0.9116	26.55	0.56	0.750			
0.2668	17073.06	3.9390	3.9390	0.9144	26.55	0.56	0.750			
0.2695	17249.08	3.9360	3.9360	0.9004	26.55	0.56	0.750			
0.2722	17420.45	3.9330	3.9329	0.9039	26.54	0.55	0.750			
0.2749	17595.69	3.9300	3.9302	0.9116	26.54	0.55	0.750			
0.2776	17769.41	3.9270	3.9267	0.9067	26.54	0.55	0.750			
0.2804	17943.52	3.9240	3.9239	0.9027	26.54	0.55	0.750			
0.2831	18117.31	3.9210	3.9211	0.9105	26.54	0.55	0.750			
0.2858	18291.29	3.9180	3.9181	0.9155	26.54	0.55	0.750			
0.2886	18469.86	3.9150	3.9149	0.9162	26.54	0.55	0.750			
0.2913	18644.06	3.9120	3.9120	0.9144	26.54	0.55	0.750			
0.2941	18820.21	3.9090	3.9090	0.9150	26.53	0.54	0.750			
0.2968	18995.60	3.9060	3.9060	0.9261	26.53	0.54	0.750			
0.2996	19173.49	3.9030	3.9030	0.9293	26.53	0.54	0.750			
0.3024	19350.53	3.9000	3.8999	0.9311	26.52	0.53	0.750			
0.3052	19533.72	3.8970	3.8970	0.9269	26.51	0.52	0.750			
0.3080	19711.20	3.8940	3.8940	0.9354	26.51	0.52	0.750			
0.3108	19890.11	3.8910	3.8911	0.9394	26.50	0.51	0.750			
0.3136	20070.25	3.8880	3.8880	0.9457	26.49	0.50	0.750			
0.3164	20250.78	3.8850	3.8850	0.9417	26.49	0.50	0.750			
0.3193	20432.67	3.8820	3.8821	0.9592	26.48	0.49	0.750			
0.3222	20618.78	3.8790	3.8790	0.9665	26.47	0.48	0.750			
0.3251	20806.98	3.8760	3.8760	0.9728	26.47	0.48	0.750			
0.3280	20992.33	3.8730	3.8729	0.9739	26.46	0.47	0.750			
0.3309	21180.71	3.8700	3.8701	0.9812	26.45	0.46	0.750			
0.3339	21369.78	3.8670	3.8670	0.9848	26.45	0.46	0.750			
0.3369	21560.13	3.8640	3.8639	0.9892	26.44	0.45	0.750			
0.3398	21748.82	3.8610	3.8610	0.9902	26.43	0.44	0.750			
0.3429	21942.82	3.8580	3.8580	0.9912	26.42	0.43	0.750			
0.3458	22132.11	3.8550	3.8550	1.0033	26.41	0.42	0.750			
0.3488	22324.81	3.8520	3.8520	1.0087	26.40	0.41	0.750			
0.3519	22519.36	3.8490	3.8488	1.0145	26.39	0.40	0.750			
0.3549	22715.93	3.8460	3.8462	1.0201	26.38	0.39	0.750			
0.3580	22912.65	3.8430	3.8430	1.0248	26.37	0.38	0.750			
0.3611	23109.81	3.8400	3.8400	1.0268	26.36	0.37	0.750			
0.3642	23306.10	3.8370	3.8369	1.0233	26.35	0.36	0.750			
0.3673	23504.91	3.8340	3.8340	1.0286	26.34	0.35	0.750			
0.3703	23702.37	3.8310	3.8310	1.0381	26.33	0.34	0.750			
0.3735	23903.02	3.8280	3.8280	1.0404	26.32	0.33	0.750			
0.3766	24102.85	3.8250	3.8249	1.0475	26.31	0.32	0.750			
0.3798	24304.84	3.8220	3.8220	1.0463	26.30	0.31	0.750			
0.3829	24505.92	3.8190	3.8190	1.0531	26.29	0.30	0.750			
0.3861	24708.43	3.8160	3.8160	1.0565	26.28	0.29	0.750			
0.3893	24912.33	3.8130	3.8130	1.0606	26.27	0.28	0.750			
0.3924	25114.08	3.8100	3.8101	1.0623	26.26	0.27	0.750			
0.3956	25318.31	3.8070	3.8071	1.0772	26.25	0.26	0.750			
0.3988	25525.53	3.8040	3.8040	1.0869	26.24	0.25	0.750			
0.4021	25736.52	3.8010	3.8008	1.0939	26.23	0.24	0.750			
0.4054	25946.27	3.7980	3.7982	1.0980	26.22	0.23	0.750			
0.4087	26158.20	3.7950	3.7951	1.1066	26.21	0.22	0.750			
0.4120	26369.79	3.7920	3.7920	1.1241	26.20	0.21	0.750			
0.4154	26586.62	3.7890	3.7888	1.1194	26.19	0.20	0.750			
0.4188	26802.07	3.7860	3.7860	1.1437	26.18	0.19	0.750			
0.4223	27024.51	3.7830	3.7831	1.1650	26.16	0.17	0.750			
0.4258	27251.43	3.7800	3.7801	1.1891	26.15	0.16	0.750			
0.4294	27480.28	3.7770	3.7771	1.1950	26.14	0.15	0.750			
0.4329	27708.63	3.7740	3.7741	1.2217	26.13	0.14	0.750			
0.4366	27943.14	3.7710	3.7711	1.2291	26.12	0.13	0.750			
0.4403	28176.63	3.7680	3.7679	1.2795	26.11	0.12	0.750			
0.4441	28422.49	3.7650	3.7651	1.3168	26.09	0.10	0.750			
0.4482	28682.98	3.7620	3.7623	1.3542	26.08	0.09	0.750	0.316	0.416	
0.4524	28950.46	3.7590	3.7590	1.3918	26.06	0.07	0.750			
0.4567	29225.94	3.7560	3.7562	1.4263	26.04	0.05	0.750			
0.4611	29507.36	3.7530	3.7530	1.4406	26.03	0.04	0.750			
0.4653	29779.79	3.7500	3.7500	1.4483	26.01	0.02	0.750			
0.4696	30056.91	3.7470	3.7470	1.4707	26.00	0.01	0.750			
0.4741	30339.72	3.7440	3.7441	1.5032	25.98	-0.01	0.750			
0.4786	30630.36	3.7410	3.7409	1.5553	25.97	-0.02	0.750			
0.4833	30932.41	3.7380	3.7379	1.5959	25.95	-0.04	0.750			
0.4882	31242.36	3.7350	3.7351	1.6509	25.94	-0.05	0.750			
0.4932	31567.21	3.7320	3.7321	1.6999	25.92	-0.07	0.750			
0.4986	31907.86	3.7290	3.7288	1.7034	25.90	-0.09	0.750			
0.5037	32238.98	3.7260	3.7261	1.7377	25.89	-0.10	0.750			
0.5089	32569.57	3.7230	3.7230	1.7616	25.86	-0.13	0.750			
0.5142	32906.66	3.7200	3.7200	1.7857	25.83	-0.16	0.750			
0.5195	33249.72	3.7170	3.7170	1.8409	25.82	-0.17	0.750			
0.5250	33601.08	3.7140	3.7138	1.9004	25.80	-0.19	0.750			
0.5309	33976.08	3.7110	3.7109	1.9819	25.78	-0.21	0.750			
0.5370	34367.46	3.7080	3.7082	2.0875	25.78	-0.21	0.750			
0.5433	34768.41	3.7050	3.7054	2.1439	25.76	-0.23	0.750			
0.5500	35197.43	3.7020	3.7020	2.1916	25.73	-0.26	0.750			
0.5567	35628.01	3.6990	3.6990	2.2592	25.71	-0.28	0.750			
0.5636	36067.54	3.6960	3.6960	2.2975	25.70	-0.29	0.750			
0.5704	36508.78	3.6930	3.6928	2.3783	25.68	-0.31	0.750			
0.5776	36965.92	3.6900	3.6901	2.4618	25.66	-0.33	0.750			
0.5852	37450.05	3.6870	3.6870	2.5768	25.65	-0.34	0.750			
0.5932	37962.00	3.6840	3.6841	2.6676	25.64	-0.35	0.750			
0.6012	38475.12	3.6810	3.6811	2.7433	25.62	-0.37	0.750			
0.6094	39000.59	3.6780	3.6777	2.8122	25.61	-0.38	0.750			
0.6179	39545.95	3.6750	3.6749	2.9053	25.60	-0.39	0.750			
0.6269	40124.54	3.6720	3.6720	3.0126	25.60	-0.39	0.750			
0.6361	40710.87	3.6690	3.6689	3.0300	25.59	-0.40	0.750			
0.6457	41321.82	3.6660	3.6658	2.9755	25.59	-0.40	0.750			
0.6546	41894.11	3.6630	3.6629	2.7584	25.58	-0.41	0.750			
0.6624	42392.21	3.6600	3.6606	2.4729	25.60	-0.39	0.750			
0.6691	42823.67	3.6570	3.6571	2.1930	25.60	-0.39	0.750			
0.6751	43208.17	3.6540	3.6537	1.9665	25.60	-0.39	0.750			
0.6804	43543.46	3.6510	3.6506	1.7744	25.60	-0.39	0.750			
0.6856	43875.81	3.6480	3.6478	1.6641	25.61	-0.38	0.750			
0.6903	44178.50	3.6450	3.6447	1.5375	25.61	-0.38	0.750			
0.6947	44463.58	3.6420	3.6422	1.4357	25.61	-0.38	0.750			
0.6987	44718.06	3.6390	3.6391	1.3358	25.62	-0.37	0.750			
0.7026	44966.41	3.6360	3.6358	1.2624	25.62	-0.37	0.750			
0.7062	45195.75	3.6330	3.6331	1.2156	25.62	-0.37	0.750			
0.7098	45425.19	3.6300	3.6300	1.2045	25.62	-0.37	0.750			
0.7133	45653.73	3.6270	3.6271	1.1960	25.62	-0.37	0.750			
0.7169	45881.56	3.6240	3.6241	1.1884	25.62	-0.37	0.750			
0.7204	46108.14	3.6210	3.6212	1.1958	25.63	-0.36	0.750			
0.7241	46339.68	3.6180	3.6180	1.2031	25.63	-0.36	0.750			
0.7278	46578.57	3.6150	3.6147	1.1882	25.64	-0.35	0.750			
0.7313	46802.56	3.6120	3.6121	1.1768	25.64	-0.35	0.750			
0.7348	47028.71	3.6090	3.6091	1.1660	25.64	-0.35	0.750			
0.7383	47253.27	3.6060	3.6062	1.1534	25.64	-0.35	0.750			
0.7418	47472.42	3.6030	3.6030	1.1189	25.64	-0.35	0.750			
0.7450	47680.56	3.6000	3.6001	1.1330	25.65	-0.34	0.750			
0.7483	47894.11	3.5970	3.5971	1.1444	25.65	-0.34	0.750			
0.7518	48118.20	3.5940	3.5937	1.1539	25.66	-0.33	0.750			
0.7553	48336.34	3.5910	3.5911	1.1826	25.66	-0.33	0.750			
0.7588	48565.63	3.5880	3.5882	1.2203	25.66	-0.33	0.750			
0.7626	48806.02	3.5850	3.5850	1.2551	25.66	-0.33	0.750			
0.7664	49051.88	3.5820	3.5819	1.2788	25.66	-0.33	0.750			
0.7703	49300.82	3.5790	3.5792	1.3316	25.66	-0.33	0.750			
0.7744	49559.96	3.5760	3.5761	1.3812	25.67	-0.32	0.750			
0.7786	49830.75	3.5730	3.5730	1.4217	25.67	-0.32	0.750			
0.7828	50102.04	3.5700	3.5699	1.4593	25.67	-0.32	0.750			
0.7873	50385.63	3.5670	3.5670	1.5153	25.68	-0.31	0.750			
0.7919	50683.03	3.5640	3.5636	1.5694	25.68	-0.31	0.750			
0.7968	50992.75	3.5610	3.5609	1.5952	25.68	-0.31	0.750			
0.8017	51306.00	3.5580	3.5579	1.6113	25.68	-0.31	0.750			
0.8067	51628.43	3.5550	3.5552	1.6363	25.68	-0.31	0.750			
0.8116	51942.79	3.5520	3.5519	1.6246	25.69	-0.30	0.750			
0.8165	52255.10	3.5490	3.5490	1.6246	25.69	-0.30	0.750			
0.8213	52563.26	3.5460	3.5462	1.6529	25.69	-0.30	0.750			
0.8262	52877.89	3.5430	3.5430	1.6688	25.70	-0.29	0.750			
0.8312	53198.52	3.5400	3.5402	1.7113	25.71	-0.28	0.750			
0.8364	53528.01	3.5370	3.5372	1.7480	25.71	-0.28	0.750			
0.8419	53879.29	3.5340	3.5337	1.7380	25.73	-0.26	0.750			
0.8475	54238.35	3.5310	3.5307	1.6919	25.74	-0.25	0.750			
0.8529	54583.76	3.5280	3.5276	1.5221	25.76	-0.23	0.750			
0.8572	54860.38	3.5250	3.5258	1.2673	25.78	-0.21	0.750			
0.8608	55092.62	3.5220	3.5225	1.0338	25.80	-0.19	0.750			
0.8632	55247.54	3.5190	3.5188	0.7681	25.81	-0.18	0.750			
0.8646	55337.49	3.5160	3.5157	0.5436	25.82	-0.17	0.750			
0.8659	55420.42	3.5130	3.5128	0.4409	25.82	-0.17	0.750			
0.8670	55486.84	3.5100	3.5101	0.3776	25.83	-0.16	0.750			
0.8680	55554.45	3.5070	3.5070	0.3477	25.84	-0.15	0.750			
0.8690	55616.00	3.5040	3.5039	0.3261	25.84	-0.15	0.750			
0.8699	55674.93	3.5010	3.5010	0.3103	25.85	-0.14	0.750			
0.8708	55732.41	3.4980	3.4980	0.2991	25.86	-0.13	0.750			
0.8717	55789.88	3.4950	3.4950	0.2914	25.86	-0.13	0.750			
0.8726	55845.03	3.4920	3.4920	0.2834	25.87	-0.12	0.750			
0.8734	55898.44	3.4890	3.4891	0.2747	25.87	-0.12	0.750			
0.8742	55950.34	3.4860	3.4860	0.2678	25.88	-0.11	0.750			
0.8750	56000.80	3.4830	3.4830	0.2601	25.88	-0.11	0.750			
0.8758	56049.59	3.4800	3.4799	0.2551	25.89	-0.10	0.750			
0.8765	56097.76	3.4770	3.4770	0.2520	25.89	-0.10	0.750			
0.8773	56145.71	3.4740	3.4742	0.2480	25.90	-0.09	0.750			
0.8780	56193.22	3.4710	3.4711	0.2441	25.90	-0.09	0.750			
0.8788	56240.04	3.4680	3.4679	0.2378	25.91	-0.08	0.750			
0.8795	56285.76	3.4650	3.4651	0.2327	25.91	-0.08	0.750			
0.8802	56330.58	3.4620	3.4619	0.2273	25.92	-0.07	0.750			
0.8808	56372.65	3.4590	3.4591	0.2202	25.92	-0.07	0.750			
0.8815	56413.66	3.4560	3.4558	0.2140	25.93	-0.06	0.750			
0.8821	56454.33	3.4530	3.4530	0.2097	25.93	-0.06	0.750			
0.8827	56493.95	3.4500	3.4500	0.2054	25.94	-0.05	0.750			
0.8833	56532.96	3.4470	3.4470	0.2004	25.94	-0.05	0.750			
0.8839	56571.71	3.4440	3.4440	0.1969	25.95	-0.04	0.750			
0.8845	56608.98	3.4410	3.4410	0.1914	25.95	-0.04	0.750			
0.8851	56645.32	3.4380	3.4381	0.1864	25.95	-0.04	0.750			
0.8856	56680.42	3.4350	3.4350	0.1809	25.96	-0.03	0.750			
0.8862	56714.35	3.4320	3.4320	0.1761	25.96	-0.03	0.750			
0.8867	56747.74	3.4290	3.4291	0.1717	25.96	-0.03	0.750			
0.8872	56780.32	3.4260	3.4260	0.1661	25.97	-0.02	0.750			
0.8877	56812.07	3.4230	3.4229	0.1608	25.97	-0.02	0.750			
0.8882	56842.70	3.4200	3.4201	0.1549	25.98	-0.01	0.750			
0.8886	56871.81	3.4170	3.4170	0.1483	25.98	-0.01	0.750			
0.8891	56899.72	3.4140	3.4140	0.1423	25.98	-0.01	0.750			
0.8895	56926.21	3.4110	3.4111	0.1362	25.98	-0.01	0.750			
0.8899	56951.40	3.4080	3.4080	0.1292	25.99	-0.00	0.750			
0.8903	56976.11	3.4050	3.4050	0.1228	25.99	0.00	0.750			
0.8906	56999.36	3.4020	3.4020	0.1169	25.99	0.00	0.750			
0.8910	57021.32	3.3990	3.3990	0.1104	26.00	0.01	0.750			
0.8913	57043.33	3.3960	3.3959	0.1024	26.00	0.01	0.750			
0.8916	57061.99	3.3930	3.3930	0.0920	26.00	0.01	0.750			
0.8919	57079.20	3.3900	3.3900	0.0830	26.00	0.01	0.750			
0.8921	57094.07	3.3870	3.3873	0.0719	26.00	0.01	0.750			
0.8923	57107.31	3.3840	3.3844	0.0613	26.01	0.02	0.750			
0.8925	57117.97	3.3810	3.3818	0.0498	26.01	0.02	0.750			
0.8926	57126.42	3.3780	3.3793	0.0382	26.01	0.02	0.750			
0.8927	57132.65	3.3750	3.3768	0.0267	26.01	0.02	0.750			
0.8928	57136.67	3.3720	3.3742	0.0152	26.01	0.02	0.750			
