Ah_balance (normalized)	Ah_balance (mAh)	Voltage - fit (V)	Voltage -  interpolate (V)	dQ/dV (1/V)	Temperature (°C)	Temperature - diff (°C)	Current (C)	R_DC 0ms (mOhm)	R_DC 50ms (mOhm)	R_DC 50 ms PEC (mOhm)
0.0005	29.94	4.1630	4.1629	-0.1361	26.00	0.01	-0.750			
0.0010	60.85	4.1600	4.1599	-0.1829	26.00	0.01	-0.750			
0.0016	101.36	4.1570	4.1570	-0.2276	26.00	0.01	-0.750			
0.0023	149.57	4.1540	4.1540	-0.2692	26.00	0.01	-0.750			
0.0032	205.68	4.1510	4.1510	-0.3082	25.99	0.00	-0.750			
0.0042	269.71	4.1480	4.1481	-0.3490	25.99	0.00	-0.750			
0.0053	340.81	4.1450	4.1450	-0.3857	25.99	-0.00	-0.750			
0.0066	419.30	4.1420	4.1420	-0.4189	25.98	-0.01	-0.750			
0.0079	503.38	4.1390	4.1390	-0.4503	25.98	-0.01	-0.750			
0.0093	592.71	4.1360	4.1361	-0.4807	25.97	-0.02	-0.750			
0.0108	688.25	4.1330	4.1330	-0.5115	25.97	-0.02	-0.750			
0.0124	790.46	4.1300	4.1300	-0.5340	25.96	-0.03	-0.750			
0.0140	896.23	4.1270	4.1270	-0.5552	25.96	-0.03	-0.750			
0.0157	1006.05	4.1240	4.1239	-0.5715	25.95	-0.04	-0.750			
0.0175	1118.69	4.1210	4.1211	-0.5897	25.95	-0.04	-0.750			
0.0193	1232.89	4.1180	4.1181	-0.6010	25.95	-0.04	-0.750			
0.0211	1348.80	4.1150	4.1150	-0.6126	25.94	-0.05	-0.750			
0.0229	1466.71	4.1120	4.1120	-0.6248	25.94	-0.05	-0.750			
0.0249	1590.71	4.1090	4.1090	-0.6401	25.94	-0.05	-0.750			
0.0268	1715.61	4.1060	4.1059	-0.6486	25.93	-0.06	-0.750			
0.0288	1841.21	4.1030	4.1031	-0.6554	25.93	-0.06	-0.750			
0.0307	1967.55	4.1000	4.1001	-0.6595	25.93	-0.06	-0.750			
0.0327	2094.62	4.0970	4.0969	-0.6649	25.92	-0.07	-0.750			
0.0347	2222.42	4.0940	4.0940	-0.6715	25.92	-0.07	-0.750			
0.0367	2351.54	4.0910	4.0910	-0.6708	25.92	-0.07	-0.750			
0.0388	2482.00	4.0880	4.0880	-0.6797	25.92	-0.07	-0.750			
0.0408	2612.35	4.0850	4.0850	-0.6841	25.91	-0.08	-0.750			
0.0429	2744.08	4.0820	4.0821	-0.6878	25.91	-0.08	-0.750			
0.0449	2876.67	4.0790	4.0789	-0.6921	25.91	-0.08	-0.750			
0.0470	3008.82	4.0760	4.0761	-0.7014	25.91	-0.08	-0.750			
0.0491	3144.78	4.0730	4.0730	-0.7039	25.91	-0.08	-0.750			
0.0513	3281.52	4.0700	4.0700	-0.7104	25.91	-0.08	-0.750			
0.0534	3417.91	4.0670	4.0670	-0.7103	25.91	-0.08	-0.750			
0.0556	3555.34	4.0640	4.0641	-0.7102	25.91	-0.08	-0.750			
0.0577	3691.00	4.0610	4.0610	-0.7153	25.91	-0.08	-0.750			
0.0598	3827.68	4.0580	4.0579	-0.7218	25.91	-0.08	-0.750			
0.0620	3966.46	4.0550	4.0550	-0.7218	25.91	-0.08	-0.750			
0.0642	4108.34	4.0520	4.0519	-0.7239	25.91	-0.08	-0.750			
0.0664	4248.16	4.0490	4.0492	-0.7259	25.91	-0.08	-0.750			
0.0686	4387.39	4.0460	4.0460	-0.7295	25.91	-0.08	-0.750			
0.0707	4527.40	4.0430	4.0429	-0.7286	25.91	-0.08	-0.750			
0.0729	4666.20	4.0400	4.0399	-0.7306	25.91	-0.08	-0.750			
0.0751	4805.99	4.0370	4.0370	-0.7299	25.91	-0.08	-0.750			
0.0773	4949.37	4.0340	4.0340	-0.7381	25.91	-0.08	-0.750			
0.0795	5090.75	4.0310	4.0314	-0.7401	25.91	-0.08	-0.750			
0.0817	5231.49	4.0280	4.0279	-0.7420	25.91	-0.08	-0.750			
0.0840	5374.41	4.0250	4.0249	-0.7515	25.91	-0.08	-0.750			
0.0862	5519.54	4.0220	4.0220	-0.7558	25.91	-0.08	-0.750			
0.0886	5667.95	4.0190	4.0189	-0.7660	25.91	-0.08	-0.750			
0.0909	5815.11	4.0160	4.0160	-0.7626	25.91	-0.08	-0.750			
0.0932	5961.68	4.0130	4.0128	-0.7626	25.91	-0.08	-0.750			
0.0954	6107.38	4.0100	4.0099	-0.7594	25.91	-0.08	-0.750			
0.0977	6250.65	4.0070	4.0071	-0.7577	25.91	-0.08	-0.750			
0.0999	6395.93	4.0040	4.0040	-0.7572	25.91	-0.08	-0.750			
0.1023	6544.82	4.0010	4.0010	-0.7664	25.91	-0.08	-0.750			
0.1046	6691.99	3.9980	3.9981	-0.7658	25.91	-0.08	-0.750			
0.1069	6840.49	3.9950	3.9950	-0.7671	25.91	-0.08	-0.750			
0.1092	6986.77	3.9920	3.9919	-0.7689	25.91	-0.08	-0.750			
0.1115	7133.55	3.9890	3.9890	-0.7695	25.92	-0.07	-0.750			
0.1138	7282.44	3.9860	3.9860	-0.7682	25.92	-0.07	-0.750			
0.1161	7429.52	3.9830	3.9830	-0.7675	25.92	-0.07	-0.750			
0.1184	7575.79	3.9800	3.9800	-0.7724	25.92	-0.07	-0.750			
0.1207	7724.05	3.9770	3.9770	-0.7797	25.92	-0.07	-0.750			
0.1230	7874.80	3.9740	3.9739	-0.7816	25.92	-0.07	-0.750			
0.1254	8024.61	3.9710	3.9710	-0.7830	25.93	-0.06	-0.750			
0.1278	8177.75	3.9680	3.9680	-0.7890	25.93	-0.06	-0.750			
0.1302	8330.61	3.9650	3.9652	-0.7905	25.93	-0.06	-0.750			
0.1325	8481.14	3.9620	3.9619	-0.7873	25.93	-0.06	-0.750			
0.1349	8630.91	3.9590	3.9590	-0.7850	25.94	-0.05	-0.750			
0.1372	8781.40	3.9560	3.9560	-0.7837	25.94	-0.05	-0.750			
0.1396	8932.65	3.9530	3.9529	-0.7873	25.95	-0.04	-0.750			
0.1419	9082.99	3.9500	3.9502	-0.7918	25.95	-0.04	-0.750			
0.1443	9235.87	3.9470	3.9470	-0.7942	25.95	-0.04	-0.750			
0.1467	9389.16	3.9440	3.9439	-0.8024	25.95	-0.04	-0.750			
0.1491	9543.92	3.9410	3.9410	-0.8083	25.95	-0.04	-0.750			
0.1516	9699.80	3.9380	3.9381	-0.8096	25.95	-0.04	-0.750			
0.1540	9856.24	3.9350	3.9351	-0.8109	25.95	-0.04	-0.750			
0.1564	10011.90	3.9320	3.9320	-0.8106	25.95	-0.04	-0.750			
0.1589	10167.40	3.9290	3.9288	-0.8093	25.96	-0.03	-0.750			
0.1613	10322.16	3.9260	3.9261	-0.8103	25.96	-0.03	-0.750			
0.1637	10476.50	3.9230	3.9230	-0.8101	25.96	-0.03	-0.750			
0.1661	10633.39	3.9200	3.9201	-0.8164	25.97	-0.02	-0.750			
0.1686	10791.66	3.9170	3.9168	-0.8188	25.97	-0.02	-0.750			
0.1711	10948.77	3.9140	3.9140	-0.8215	25.97	-0.02	-0.750			
0.1736	11107.43	3.9110	3.9110	-0.8206	25.97	-0.02	-0.750			
0.1760	11265.12	3.9080	3.9080	-0.8197	25.97	-0.02	-0.750			
0.1785	11422.95	3.9050	3.9050	-0.8214	25.97	-0.02	-0.750			
0.1809	11580.36	3.9020	3.9019	-0.8227	25.97	-0.02	-0.750			
0.1834	11736.26	3.8990	3.8990	-0.8265	25.98	-0.01	-0.750			
0.1859	11896.66	3.8960	3.8961	-0.8301	25.98	-0.01	-0.750			
0.1884	12055.74	3.8930	3.8930	-0.8319	25.98	-0.01	-0.750			
0.1909	12218.04	3.8900	3.8899	-0.8383	25.99	-0.00	-0.750			
0.1934	12378.60	3.8870	3.8870	-0.8379	25.99	0.00	-0.750			
0.1959	12539.29	3.8840	3.8840	-0.8376	25.99	0.00	-0.750			
0.1984	12700.35	3.8810	3.8809	-0.8375	25.99	0.00	-0.750			
0.2009	12860.00	3.8780	3.8781	-0.8365	25.99	0.00	-0.750			
0.2035	13021.93	3.8750	3.8748	-0.8409	25.99	0.00	-0.750			
0.2060	13183.32	3.8720	3.8719	-0.8421	25.99	0.00	-0.750			
0.2085	13345.34	3.8690	3.8689	-0.8466	26.00	0.01	-0.750			
0.2111	13508.43	3.8660	3.8661	-0.8476	26.00	0.01	-0.750			
0.2136	13671.56	3.8630	3.8630	-0.8422	26.00	0.01	-0.750			
0.2162	13836.03	3.8600	3.8600	-0.8440	26.01	0.02	-0.750			
0.2187	13996.71	3.8570	3.8569	-0.8427	26.01	0.02	-0.750			
0.2212	14156.31	3.8540	3.8540	-0.8455	26.01	0.02	-0.750			
0.2237	14318.72	3.8510	3.8510	-0.8469	26.01	0.02	-0.750			
0.2263	14481.24	3.8480	3.8479	-0.8444	26.01	0.02	-0.750			
0.2289	14646.70	3.8450	3.8451	-0.8496	26.01	0.02	-0.750			
0.2314	14810.30	3.8420	3.8420	-0.8473	26.01	0.02	-0.750			
0.2339	14971.77	3.8390	3.8390	-0.8506	26.02	0.03	-0.750			
0.2365	15133.94	3.8360	3.8360	-0.8483	26.02	0.03	-0.750			
0.2390	15295.74	3.8330	3.8330	-0.8451	26.03	0.04	-0.750			
0.2416	15461.23	3.8300	3.8301	-0.8508	26.03	0.04	-0.750			
0.2441	15624.70	3.8270	3.8270	-0.8503	26.03	0.04	-0.750			
0.2467	15788.41	3.8240	3.8240	-0.8489	26.04	0.05	-0.750			
0.2492	15950.68	3.8210	3.8209	-0.8461	26.04	0.05	-0.750			
0.2517	16110.88	3.8180	3.8180	-0.8429	26.05	0.06	-0.750			
0.2543	16274.37	3.8150	3.8151	-0.8483	26.05	0.06	-0.750			
0.2568	16437.51	3.8120	3.8119	-0.8440	26.05	0.06	-0.750			
0.2594	16599.60	3.8090	3.8090	-0.8428	26.05	0.06	-0.750			
0.2619	16760.87	3.8060	3.8061	-0.8424	26.06	0.07	-0.750			
0.2644	16923.45	3.8030	3.8029	-0.8373	26.06	0.07	-0.750			
0.2669	17084.26	3.8000	3.8000	-0.8347	26.06	0.07	-0.750			
0.2694	17243.23	3.7970	3.7970	-0.8374	26.06	0.07	-0.750			
0.2719	17403.46	3.7940	3.7941	-0.8381	26.07	0.08	-0.750			
0.2745	17565.50	3.7910	3.7909	-0.8407	26.07	0.08	-0.750			
0.2770	17725.87	3.7880	3.7880	-0.8434	26.08	0.09	-0.750			
0.2795	17889.03	3.7850	3.7851	-0.8428	26.08	0.09	-0.750			
0.2821	18052.30	3.7820	3.7819	-0.8420	26.08	0.09	-0.750			
0.2846	18214.62	3.7790	3.7790	-0.8409	26.08	0.09	-0.750			
0.2871	18376.16	3.7760	3.7760	-0.8334	26.09	0.10	-0.750			
0.2896	18537.34	3.7730	3.7729	-0.8287	26.09	0.10	-0.750			
0.2921	18694.62	3.7700	3.7702	-0.8232	26.09	0.10	-0.750			
0.2945	18850.24	3.7670	3.7670	-0.8172	26.09	0.10	-0.750			
0.2970	19007.33	3.7640	3.7639	-0.8195	26.10	0.11	-0.750			
0.2994	19163.82	3.7610	3.7611	-0.8167	26.10	0.11	-0.750			
0.3019	19321.37	3.7580	3.7579	-0.8181	26.11	0.12	-0.750			
0.3044	19478.90	3.7550	3.7551	-0.8149	26.11	0.12	-0.750			
0.3068	19635.28	3.7520	3.7520	-0.8151	26.11	0.12	-0.750			
0.3092	19790.01	3.7490	3.7489	-0.8164	26.12	0.13	-0.750			
0.3117	19946.65	3.7460	3.7460	-0.8180	26.12	0.13	-0.750			
0.3141	20104.97	3.7430	3.7430	-0.8233	26.13	0.14	-0.750			
0.3166	20263.46	3.7400	3.7401	-0.8284	26.13	0.14	-0.750			
0.3191	20422.72	3.7370	3.7370	-0.8335	26.13	0.14	-0.750			
0.3216	20582.48	3.7340	3.7340	-0.8424	26.13	0.14	-0.750			
0.3241	20744.00	3.7310	3.7310	-0.8484	26.13	0.14	-0.750			
0.3267	20907.14	3.7280	3.7280	-0.8543	26.13	0.14	-0.750			
0.3293	21073.51	3.7250	3.7251	-0.8646	26.13	0.14	-0.750			
0.3319	21239.76	3.7220	3.7220	-0.8764	26.13	0.14	-0.750			
0.3345	21407.93	3.7190	3.7189	-0.8879	26.13	0.14	-0.750			
0.3372	21579.38	3.7160	3.7160	-0.9037	26.13	0.14	-0.750			
0.3399	21753.55	3.7130	3.7130	-0.9163	26.13	0.14	-0.750			
0.3427	21932.24	3.7100	3.7101	-0.9337	26.13	0.14	-0.750			
0.3455	22113.46	3.7070	3.7071	-0.9547	26.13	0.14	-0.750			
0.3484	22298.57	3.7040	3.7039	-0.9688	26.13	0.14	-0.750			
0.3513	22485.93	3.7010	3.7009	-0.9819	26.13	0.14	-0.750			
0.3543	22674.75	3.6980	3.6983	-0.9988	26.13	0.14	-0.750			
0.3573	22868.47	3.6950	3.6949	-1.0134	26.13	0.14	-0.750			
0.3604	23063.99	3.6920	3.6921	-1.0373	26.13	0.14	-0.750			
0.3635	23263.90	3.6890	3.6889	-1.0575	26.13	0.14	-0.750			
0.3667	23469.09	3.6860	3.6861	-1.0856	26.13	0.14	-0.750			
0.3700	23679.90	3.6830	3.6830	-1.1163	26.13	0.14	-0.750			
0.3734	23898.30	3.6800	3.6800	-1.1393	26.12	0.13	-0.750			
0.3769	24119.91	3.6770	3.6769	-1.1590	26.11	0.12	-0.750			
0.3804	24344.48	3.6740	3.6741	-1.1877	26.11	0.12	-0.750			
0.3839	24572.42	3.6710	3.6710	-1.2076	26.11	0.12	-0.750			
0.3876	24807.61	3.6680	3.6679	-1.2343	26.10	0.11	-0.750			
0.3913	25045.69	3.6650	3.6649	-1.2531	26.10	0.11	-0.750			
0.3952	25291.94	3.6620	3.6620	-1.2823	26.10	0.11	-0.750			
0.3991	25540.14	3.6590	3.6590	-1.3099	26.09	0.10	-0.750			
0.4030	25791.80	3.6560	3.6561	-1.3417	26.09	0.10	-0.750			
0.4070	26050.17	3.6530	3.6529	-1.3689	26.09	0.10	-0.750			
0.4112	26315.74	3.6500	3.6500	-1.4078	26.08	0.09	-0.750			
0.4155	26590.74	3.6470	3.6469	-1.4476	26.07	0.08	-0.750			
0.4199	26874.66	3.6440	3.6440	-1.4786	26.06	0.07	-0.750			
0.4244	27164.41	3.6410	3.6409	-1.5198	26.05	0.06	-0.750			
0.4290	27458.51	3.6380	3.6381	-1.5414	26.04	0.05	-0.750			
0.4337	27755.74	3.6350	3.6349	-1.5700	26.03	0.04	-0.750			
0.4385	28062.52	3.6320	3.6322	-1.6058	26.03	0.04	-0.750			
0.4433	28373.40	3.6290	3.6289	-1.6372	26.02	0.03	-0.750			
0.4483	28688.88	3.6260	3.6259	-1.6747	26.01	0.02	-0.750			
0.4534	29020.44	3.6230	3.6228	-1.6965	26.00	0.01	-0.750	0.399	0.497	
0.4586	29347.34	3.6200	3.6201	-1.7348	26.00	0.01	-0.750			
0.4638	29680.73	3.6170	3.6169	-1.7610	25.99	0.00	-0.750			
0.4691	30019.24	3.6140	3.6139	-1.7939	25.99	-0.00	-0.750			
0.4745	30365.89	3.6110	3.6111	-1.8385	25.98	-0.01	-0.750			
0.4801	30724.26	3.6080	3.6079	-1.8652	25.97	-0.02	-0.750			
0.4858	31091.40	3.6050	3.6050	-1.9025	25.96	-0.03	-0.750			
0.4916	31460.70	3.6020	3.6020	-1.9468	25.95	-0.04	-0.750			
0.4973	31829.51	3.5990	3.5989	-1.9728	25.94	-0.05	-0.750			
0.5033	32214.36	3.5960	3.5961	-2.0214	25.93	-0.06	-0.750			
0.5095	32605.89	3.5930	3.5929	-2.0640	25.93	-0.06	-0.750			
0.5158	33011.08	3.5900	3.5900	-2.0964	25.93	-0.06	-0.750			
0.5222	33418.53	3.5870	3.5872	-2.1286	25.93	-0.06	-0.750			
0.5286	33832.16	3.5840	3.5839	-2.1563	25.93	-0.06	-0.750			
0.5351	34244.67	3.5810	3.5809	-2.1863	25.92	-0.07	-0.750			
0.5417	34669.46	3.5780	3.5781	-2.2068	25.91	-0.08	-0.750			
0.5484	35097.58	3.5750	3.5750	-2.2545	25.91	-0.08	-0.750			
0.5552	35531.38	3.5720	3.5720	-2.2846	25.91	-0.08	-0.750			
0.5622	35980.37	3.5690	3.5689	-2.2954	25.91	-0.08	-0.750			
0.5691	36424.77	3.5660	3.5661	-2.3161	25.91	-0.08	-0.750			
0.5761	36870.98	3.5630	3.5630	-2.3208	25.91	-0.08	-0.750			
0.5831	37315.52	3.5600	3.5598	-2.3121	25.91	-0.08	-0.750			
0.5901	37765.17	3.5570	3.5570	-2.3127	25.91	-0.08	-0.750			
0.5970	38208.74	3.5540	3.5541	-2.2933	25.91	-0.08	-0.750			
0.6039	38647.18	3.5510	3.5510	-2.2895	25.91	-0.08	-0.750			
0.6107	39084.16	3.5480	3.5480	-2.2869	25.91	-0.08	-0.750			
0.6176	39524.00	3.5450	3.5452	-2.2735	25.91	-0.08	-0.750			
0.6244	39961.61	3.5420	3.5420	-2.2556	25.91	-0.08	-0.750			
0.6311	40391.15	3.5390	3.5389	-2.2436	25.91	-0.08	-0.750			
0.6379	40823.18	3.5360	3.5361	-2.2083	25.92	-0.07	-0.750			
0.6446	41253.84	3.5330	3.5329	-2.1869	25.92	-0.07	-0.750			
0.6510	41661.60	3.5300	3.5300	-2.1270	25.93	-0.06	-0.750			
0.6573	42068.45	3.5270	3.5271	-2.0776	25.94	-0.05	-0.750			
0.6636	42470.11	3.5240	3.5241	-2.0314	25.95	-0.04	-0.750			
0.6696	42854.68	3.5210	3.5209	-1.9587	25.96	-0.03	-0.750			
0.6753	43220.64	3.5180	3.5180	-1.8952	25.97	-0.02	-0.750			
0.6810	43583.92	3.5150	3.5151	-1.8420	25.98	-0.01	-0.750			
0.6864	43929.50	3.5120	3.5118	-1.7815	26.00	0.01	-0.750			
0.6916	44261.81	3.5090	3.5092	-1.7173	26.01	0.02	-0.750			
0.6967	44587.78	3.5060	3.5060	-1.6595	26.02	0.03	-0.750			
0.7015	44898.76	3.5030	3.5030	-1.6025	26.03	0.04	-0.750			
0.7063	45202.88	3.5000	3.4999	-1.5478	26.05	0.06	-0.750			
0.7109	45494.95	3.4970	3.4971	-1.4977	26.07	0.08	-0.750			
0.7152	45774.02	3.4940	3.4939	-1.4473	26.08	0.09	-0.750			
0.7195	46046.46	3.4910	3.4910	-1.3980	26.10	0.11	-0.750			
0.7236	46312.29	3.4880	3.4880	-1.3528	26.11	0.12	-0.750			
0.7276	46566.77	3.4850	3.4849	-1.3090	26.12	0.13	-0.750			
0.7314	46810.46	3.4820	3.4820	-1.2631	26.14	0.15	-0.750			
0.7352	47050.98	3.4790	3.4790	-1.2266	26.15	0.16	-0.750			
0.7388	47281.82	3.4760	3.4759	-1.1863	26.17	0.18	-0.750			
0.7422	47503.35	3.4730	3.4731	-1.1480	26.18	0.19	-0.750			
0.7457	47723.33	3.4700	3.4700	-1.1160	26.20	0.21	-0.750			
0.7490	47935.73	3.4670	3.4669	-1.0732	26.21	0.22	-0.750			
0.7521	48137.58	3.4640	3.4640	-1.0276	26.22	0.23	-0.750			
0.7551	48327.85	3.4610	3.4612	-0.9944	26.23	0.24	-0.750			
0.7580	48515.15	3.4580	3.4579	-0.9718	26.25	0.26	-0.750			
0.7609	48697.25	3.4550	3.4549	-0.9430	26.26	0.27	-0.750			
0.7637	48874.88	3.4520	3.4521	-0.9256	26.27	0.28	-0.750			
0.7664	49051.51	3.4490	3.4492	-0.9155	26.29	0.30	-0.750			
0.7691	49225.58	3.4460	3.4459	-0.9130	26.30	0.31	-0.750			
0.7718	49397.17	3.4430	3.4429	-0.9101	26.31	0.32	-0.750			
0.7745	49567.03	3.4400	3.4400	-0.9228	26.32	0.33	-0.750			
0.7772	49742.08	3.4370	3.4370	-0.9434	26.33	0.34	-0.750			
0.7801	49926.38	3.4340	3.4340	-0.9758	26.34	0.35	-0.750			
0.7831	50116.26	3.4310	3.4309	-1.0052	26.35	0.36	-0.750			
0.7861	50313.53	3.4280	3.4280	-1.0328	26.36	0.37	-0.750			
0.7893	50515.50	3.4250	3.4250	-1.0584	26.36	0.37	-0.750			
0.7925	50722.52	3.4220	3.4221	-1.0811	26.37	0.38	-0.750			
0.7959	50938.86	3.4190	3.4189	-1.0722	26.38	0.39	-0.750			
0.7992	51149.29	3.4160	3.4159	-1.0599	26.39	0.40	-0.750			
0.8024	51351.84	3.4130	3.4130	-1.0348	26.40	0.41	-0.750			
0.8055	51550.03	3.4100	3.4102	-1.0071	26.41	0.42	-0.750			
0.8084	51738.45	3.4070	3.4067	-0.9785	26.42	0.43	-0.750			
0.8112	51918.93	3.4040	3.4039	-0.9452	26.43	0.44	-0.750			
0.8140	52096.11	3.4010	3.4011	-0.9164	26.43	0.44	-0.750			
0.8168	52274.02	3.3980	3.3981	-0.9025	26.44	0.45	-0.750			
0.8195	52448.00	3.3950	3.3950	-0.8743	26.45	0.46	-0.750			
0.8221	52612.72	3.3920	3.3920	-0.8432	26.46	0.47	-0.750			
0.8246	52771.38	3.3890	3.3890	-0.8122	26.46	0.47	-0.750			
0.8269	52924.11	3.3860	3.3861	-0.7778	26.47	0.48	-0.750			
0.8292	53071.08	3.3830	3.3830	-0.7473	26.48	0.49	-0.750			
0.8314	53211.15	3.3800	3.3800	-0.7164	26.49	0.50	-0.750			
0.8335	53344.93	3.3770	3.3770	-0.6864	26.49	0.50	-0.750			
0.8355	53473.32	3.3740	3.3739	-0.6631	26.50	0.51	-0.750			
0.8375	53597.60	3.3710	3.3711	-0.6369	26.51	0.52	-0.750			
0.8393	53717.48	3.3680	3.3679	-0.6139	26.51	0.52	-0.750			
0.8412	53834.24	3.3650	3.3650	-0.5904	26.52	0.53	-0.750			
0.8429	53945.06	3.3620	3.3620	-0.5684	26.52	0.53	-0.750			
0.8446	54051.86	3.3590	3.3590	-0.5464	26.53	0.54	-0.750			
0.8462	54154.92	3.3560	3.3561	-0.5226	26.53	0.54	-0.750			
0.8477	54252.17	3.3530	3.3529	-0.5024	26.53	0.54	-0.750			
0.8492	54347.34	3.3500	3.3500	-0.4829	26.54	0.55	-0.750			
0.8506	54437.73	3.3470	3.3469	-0.4657	26.54	0.55	-0.750			
0.8520	54525.64	3.3440	3.3440	-0.4463	26.54	0.55	-0.750			
0.8533	54609.48	3.3410	3.3409	-0.4268	26.55	0.56	-0.750			
0.8545	54689.69	3.3380	3.3382	-0.4121	26.55	0.56	-0.750			
0.8557	54766.98	3.3350	3.3349	-0.3973	26.56	0.57	-0.750			
0.8569	54841.10	3.3320	3.3320	-0.3816	26.56	0.57	-0.750			
0.8580	54912.80	3.3290	3.3290	-0.3688	26.57	0.58	-0.750			
0.8591	54982.59	3.3260	3.3260	-0.3578	26.58	0.59	-0.750			
0.8602	55050.42	3.3230	3.3230	-0.3455	26.58	0.59	-0.750			
0.8612	55115.51	3.3200	3.3199	-0.3322	26.59	0.60	-0.750			
0.8621	55177.58	3.3170	3.3170	-0.3190	26.59	0.60	-0.750			
0.8631	55237.08	3.3140	3.3141	-0.3084	26.60	0.61	-0.750			
0.8640	55295.42	3.3110	3.3110	-0.2988	26.60	0.61	-0.750			
0.8649	55351.50	3.3080	3.3079	-0.2882	26.61	0.62	-0.750			
0.8657	55405.99	3.3050	3.3050	-0.2784	26.61	0.62	-0.750			
0.8665	55458.68	3.3020	3.3020	-0.2706	26.62	0.63	-0.750			
0.8673	55509.44	3.2990	3.2991	-0.2640	26.62	0.63	-0.750			
0.8681	55558.89	3.2960	3.2959	-0.2565	26.63	0.64	-0.750			
0.8689	55607.41	3.2930	3.2930	-0.2496	26.63	0.64	-0.750			
0.8696	55654.83	3.2900	3.2900	-0.2445	26.64	0.65	-0.750			
0.8703	55701.94	3.2870	3.2870	-0.2385	26.64	0.65	-0.750			
0.8710	55746.92	3.2840	3.2840	-0.2337	26.65	0.66	-0.750			
0.8717	55791.01	3.2810	3.2809	-0.2266	26.65	0.66	-0.750			
0.8724	55833.94	3.2780	3.2780	-0.2206	26.66	0.67	-0.750			
0.8731	55875.22	3.2750	3.2749	-0.2154	26.66	0.67	-0.750			
0.8737	55916.06	3.2720	3.2722	-0.2105	26.66	0.67	-0.750			
0.8743	55956.08	3.2690	3.2690	-0.2062	26.67	0.68	-0.750			
0.8749	55995.22	3.2660	3.2659	-0.2015	26.67	0.68	-0.750			
0.8755	56033.50	3.2630	3.2630	-0.1976	26.68	0.69	-0.750			
0.8761	56070.36	3.2600	3.2600	-0.1930	26.68	0.69	-0.750			
0.8767	56106.96	3.2570	3.2570	-0.1912	26.68	0.69	-0.750			
0.8772	56143.43	3.2540	3.2541	-0.1888	26.69	0.70	-0.750			
0.8778	56179.39	3.2510	3.2510	-0.1841	26.69	0.70	-0.750			
0.8784	56214.59	3.2480	3.2479	-0.1814	26.69	0.70	-0.750			
0.8789	56249.16	3.2450	3.2451	-0.1786	26.70	0.71	-0.750			
0.8794	56283.11	3.2420	3.2422	-0.1751	26.70	0.71	-0.750			
0.8799	56316.34	3.2390	3.2388	-0.1723	26.70	0.71	-0.750			
0.8804	56348.68	3.2360	3.2360	-0.1696	26.71	0.72	-0.750			
0.8810	56380.94	3.2330	3.2331	-0.1662	26.71	0.72	-0.750			
0.8814	56412.69	3.2300	3.2300	-0.1645	26.72	0.73	-0.750			
0.8819	56444.57	3.2270	3.2270	-0.1635	26.72	0.73	-0.750			
0.8824	56475.57	3.2240	3.2241	-0.1607	26.73	0.74	-0.750			
0.8829	56506.22	3.2210	3.2210	-0.1588	26.73	0.74	-0.750			
0.8834	56536.50	3.2180	3.2180	-0.1567	26.74	0.75	-0.750			
0.8838	56566.20	3.2150	3.2151	-0.1552	26.74	0.75	-0.750			
0.8843	56595.88	3.2120	3.2119	-0.1528	26.74	0.75	-0.750			
0.8848	56625.39	3.2090	3.2090	-0.1515	26.75	0.76	-0.750			
0.8852	56654.14	3.2060	3.2059	-0.1498	26.75	0.76	-0.750			
0.8857	56682.46	3.2030	3.2031	-0.1479	26.76	0.77	-0.750			
0.8861	56710.89	3.2000	3.2001	-0.1465	26.76	0.77	-0.750			
0.8865	56738.76	3.1970	3.1969	-0.1446	26.76	0.77	-0.750			
0.8870	56766.26	3.1940	3.1940	-0.1437	26.77	0.78	-0.750			
0.8874	56793.60	3.1910	3.1910	-0.1421	26.77	0.78	-0.750			
0.8878	56820.94	3.1880	3.1880	-0.1415	26.78	0.79	-0.750			
0.8882	56847.99	3.1850	3.1849	-0.1403	26.78	0.79	-0.750			
0.8887	56874.79	3.1820	3.1821	-0.1380	26.78	0.79	-0.750			
0.8891	56901.12	3.1790	3.1790	-0.1370	26.79	0.80	-0.750			
0.8895	56927.49	3.1760	3.1760	-0.1353	26.79	0.80	-0.750			
0.8899	56953.28	3.1730	3.1730	-0.1333	26.79	0.80	-0.750			
0.8903	56978.38	3.1700	3.1699	-0.1324	26.80	0.81	-0.750			
0.8907	57003.69	3.1670	3.1671	-0.1313	26.80	0.81	-0.750			
0.8911	57028.62	3.1640	3.1639	-0.1300	26.80	0.81	-0.750			
0.8915	57053.56	3.1610	3.1610	-0.1293	26.81	0.82	-0.750			
0.8919	57078.65	3.1580	3.1580	-0.1284	26.81	0.82	-0.750			
0.8922	57103.06	3.1550	3.1551	-0.1270	26.81	0.82	-0.750			
0.8926	57127.50	3.1520	3.1519	-0.1267	26.82	0.83	-0.750			
0.8930	57151.68	3.1490	3.1490	-0.1252	26.82	0.83	-0.750			
0.8934	57175.28	3.1460	3.1460	-0.1236	26.83	0.84	-0.750			
0.8937	57198.94	3.1430	3.1429	-0.1228	26.83	0.84	-0.750			
0.8941	57222.36	3.1400	3.1401	-0.1225	26.84	0.85	-0.750			
0.8945	57245.96	3.1370	3.1369	-0.1213	26.84	0.85	-0.750			
0.8948	57269.18	3.1340	3.1340	-0.1205	26.85	0.86	-0.750			
0.8952	57292.42	3.1310	3.1310	-0.1199	26.85	0.86	-0.750			
0.8956	57315.33	3.1280	3.1281	-0.1187	26.86	0.87	-0.750			
0.8959	57337.86	3.1250	3.1250	-0.1180	26.86	0.87	-0.750			
0.8963	57360.40	3.1220	3.1220	-0.1171	26.87	0.88	-0.750			
0.8966	57382.80	3.1190	3.1190	-0.1165	26.87	0.88	-0.750			
0.8970	57404.85	3.1160	3.1159	-0.1154	26.88	0.89	-0.750			
0.8973	57426.97	3.1130	3.1130	-0.1151	26.88	0.89	-0.750			
0.8976	57449.30	3.1100	3.1100	-0.1145	26.89	0.90	-0.750			
0.8980	57471.20	3.1070	3.1071	-0.1136	26.89	0.90	-0.750			
0.8983	57493.08	3.1040	3.1041	-0.1127	26.90	0.91	-0.750			
0.8987	57514.60	3.1010	3.1008	-0.1115	26.90	0.91	-0.750			
0.8990	57535.65	3.0980	3.0980	-0.1109	26.90	0.91	-0.750			
0.8993	57556.89	3.0950	3.0950	-0.1104	26.91	0.92	-0.750			
0.8997	57577.86	3.0920	3.0920	-0.1099	26.91	0.92	-0.750			
0.9000	57598.96	3.0890	3.0890	-0.1098	26.92	0.93	-0.750			
0.9003	57620.16	3.0860	3.0861	-0.1090	26.92	0.93	-0.750			
0.9006	57641.03	3.0830	3.0829	-0.1084	26.93	0.94	-0.750			
0.9010	57662.10	3.0800	3.0801	-0.1077	26.93	0.94	-0.750			
0.9013	57682.64	3.0770	3.0769	-0.1064	26.93	0.94	-0.750			
0.9016	57702.83	3.0740	3.0740	-0.1054	26.94	0.95	-0.750			
0.9019	57722.98	3.0710	3.0711	-0.1044	26.94	0.95	-0.750			
0.9022	57742.65	3.0680	3.0680	-0.1038	26.94	0.95	-0.750			
0.9025	57762.54	3.0650	3.0650	-0.1035	26.95	0.96	-0.750			
0.9028	57782.29	3.0620	3.0620	-0.1032	26.95	0.96	-0.750			
0.9032	57802.10	3.0590	3.0589	-0.1031	26.96	0.97	-0.750			
0.9035	57822.00	3.0560	3.0561	-0.1027	26.96	0.97	-0.750			
0.9038	57841.80	3.0530	3.0528	-0.1020	26.96	0.97	-0.750			
0.9041	57861.47	3.0500	3.0499	-0.1017	26.97	0.98	-0.750			
0.9044	57880.89	3.0470	3.0471	-0.1008	26.97	0.98	-0.750			
0.9047	57900.19	3.0440	3.0441	-0.1000	26.97	0.98	-0.750			
0.9050	57919.29	3.0410	3.0409	-0.0990	26.98	0.99	-0.750			
0.9053	57938.12	3.0380	3.0380	-0.0981	26.98	0.99	-0.750			
0.9056	57956.90	3.0350	3.0350	-0.0974	26.98	0.99	-0.750			
0.9059	57975.30	3.0320	3.0320	-0.0973	26.99	1.00	-0.750			
0.9062	57993.98	3.0290	3.0291	-0.0972	26.99	1.00	-0.750			
0.9064	58012.64	3.0260	3.0259	-0.0967	26.99	1.00	-0.750			
0.9067	58031.18	3.0230	3.0230	-0.0965	27.00	1.01	-0.750			
0.9070	58049.68	3.0200	3.0201	-0.0964	27.00	1.01	-0.750			
0.9073	58068.18	3.0170	3.0170	-0.0963	27.01	1.02	-0.750			
0.9076	58086.91	3.0140	3.0140	-0.0955	27.01	1.02	-0.750			
0.9079	58105.17	3.0110	3.0109	-0.0946	27.01	1.02	-0.750			
0.9082	58123.22	3.0080	3.0081	-0.0937	27.02	1.03	-0.751			
0.9085	58141.14	3.0050	3.0051	-0.0929	27.02	1.03	-0.751			
0.9087	58158.77	3.0020	3.0020	-0.0878	27.02	1.03	-0.751			
