Ah_balance (normalized)	Ah_balance (mAh)	Voltage - fit (V)	Voltage -  interpolate (V)	dQ/dV (1/V)	Temperature (°C)	Temperature - diff (°C)	Current (C)	R_DC 0ms (mOhm)	R_DC 50ms (mOhm)	R_DC 50 ms PEC (mOhm)
0.0002	15.73	4.1560	4.1556	-0.0946	25.15	0.01	-0.750			
0.0006	38.05	4.1530	4.1527	-0.1344	25.15	0.01	-0.750			
0.0011	67.73	4.1500	4.1499	-0.1709	25.15	0.01	-0.750			
0.0016	104.27	4.1470	4.1471	-0.2055	25.15	0.01	-0.750			
0.0023	147.38	4.1440	4.1440	-0.2384	25.15	0.01	-0.750			
0.0031	196.46	4.1410	4.1410	-0.2692	25.15	0.01	-0.750			
0.0039	252.27	4.1380	4.1380	-0.2998	25.15	0.01	-0.750			
0.0049	312.83	4.1350	4.1351	-0.3279	25.15	0.01	-0.750			
0.0059	378.59	4.1320	4.1319	-0.3574	25.14	0.00	-0.750			
0.0070	449.80	4.1290	4.1291	-0.3857	25.14	0.00	-0.750			
0.0082	526.75	4.1260	4.1259	-0.4131	25.14	0.00	-0.750			
0.0095	610.03	4.1230	4.1229	-0.4376	25.14	-0.00	-0.750			
0.0109	697.09	4.1200	4.1200	-0.4593	25.14	-0.00	-0.750			
0.0123	788.40	4.1170	4.1170	-0.4788	25.13	-0.01	-0.750			
0.0138	881.87	4.1140	4.1141	-0.4959	25.13	-0.01	-0.750			
0.0153	978.04	4.1110	4.1110	-0.5123	25.13	-0.01	-0.750			
0.0169	1078.60	4.1080	4.1079	-0.5275	25.13	-0.01	-0.750			
0.0185	1181.86	4.1050	4.1050	-0.5413	25.12	-0.02	-0.750			
0.0201	1287.55	4.1020	4.1020	-0.5550	25.12	-0.02	-0.750			
0.0218	1396.38	4.0990	4.0991	-0.5683	25.12	-0.02	-0.750			
0.0235	1506.52	4.0960	4.0959	-0.5792	25.12	-0.02	-0.750			
0.0253	1618.29	4.0930	4.0930	-0.5858	25.12	-0.02	-0.750			
0.0270	1730.76	4.0900	4.0900	-0.5990	25.12	-0.02	-0.750			
0.0289	1847.96	4.0870	4.0870	-0.6077	25.12	-0.02	-0.750			
0.0307	1966.88	4.0840	4.0840	-0.6157	25.12	-0.02	-0.750			
0.0326	2085.88	4.0810	4.0809	-0.6193	25.12	-0.02	-0.750			
0.0345	2205.32	4.0780	4.0780	-0.6260	25.12	-0.02	-0.750			
0.0363	2325.74	4.0750	4.0750	-0.6318	25.12	-0.02	-0.750			
0.0383	2448.15	4.0720	4.0720	-0.6344	25.12	-0.02	-0.750			
0.0401	2568.21	4.0690	4.0690	-0.6391	25.12	-0.02	-0.750			
0.0421	2694.07	4.0660	4.0660	-0.6463	25.12	-0.02	-0.750			
0.0441	2819.26	4.0630	4.0630	-0.6487	25.12	-0.02	-0.750			
0.0460	2943.17	4.0600	4.0602	-0.6545	25.12	-0.02	-0.750			
0.0479	3068.56	4.0570	4.0569	-0.6574	25.12	-0.02	-0.750			
0.0499	3195.23	4.0540	4.0540	-0.6647	25.12	-0.02	-0.750			
0.0519	3323.85	4.0510	4.0510	-0.6695	25.12	-0.02	-0.750			
0.0540	3453.55	4.0480	4.0481	-0.6740	25.12	-0.02	-0.750			
0.0560	3583.56	4.0450	4.0450	-0.6784	25.12	-0.02	-0.750			
0.0580	3713.96	4.0420	4.0421	-0.6806	25.12	-0.02	-0.750			
0.0601	3843.62	4.0390	4.0390	-0.6802	25.12	-0.02	-0.750			
0.0621	3974.39	4.0360	4.0359	-0.6831	25.12	-0.02	-0.750			
0.0642	4105.92	4.0330	4.0331	-0.6869	25.12	-0.02	-0.750			
0.0662	4238.53	4.0300	4.0299	-0.6894	25.12	-0.02	-0.750			
0.0683	4373.37	4.0270	4.0270	-0.6904	25.12	-0.02	-0.750			
0.0704	4505.27	4.0240	4.0240	-0.6898	25.12	-0.02	-0.750			
0.0725	4636.94	4.0210	4.0209	-0.6904	25.12	-0.02	-0.750			
0.0745	4769.09	4.0180	4.0180	-0.6924	25.13	-0.01	-0.750			
0.0766	4901.04	4.0150	4.0149	-0.6932	25.13	-0.01	-0.750			
0.0786	5033.57	4.0120	4.0120	-0.6987	25.14	-0.00	-0.750			
0.0808	5170.23	4.0090	4.0090	-0.7034	25.14	0.00	-0.750			
0.0829	5306.48	4.0060	4.0061	-0.7042	25.15	0.01	-0.750			
0.0850	5441.40	4.0030	4.0029	-0.7079	25.15	0.01	-0.750			
0.0872	5577.88	4.0000	4.0000	-0.7111	25.16	0.02	-0.750			
0.0893	5713.76	3.9970	3.9970	-0.7143	25.16	0.02	-0.750			
0.0914	5851.52	3.9940	3.9940	-0.7177	25.16	0.02	-0.750			
0.0936	5991.06	3.9910	3.9910	-0.7165	25.17	0.03	-0.750			
0.0958	6130.04	3.9880	3.9882	-0.7154	25.17	0.03	-0.750			
0.0979	6266.79	3.9850	3.9850	-0.7183	25.17	0.03	-0.750			
0.1000	6402.75	3.9820	3.9820	-0.7169	25.17	0.03	-0.750			
0.1022	6539.65	3.9790	3.9789	-0.7197	25.17	0.03	-0.750			
0.1044	6678.87	3.9760	3.9760	-0.7206	25.18	0.04	-0.750			
0.1065	6818.93	3.9730	3.9730	-0.7265	25.18	0.04	-0.750			
0.1087	6958.89	3.9700	3.9701	-0.7302	25.18	0.04	-0.750			
0.1109	7100.26	3.9670	3.9670	-0.7304	25.18	0.04	-0.750			
0.1131	7238.14	3.9640	3.9640	-0.7369	25.19	0.05	-0.750			
0.1153	7380.06	3.9610	3.9610	-0.7390	25.19	0.05	-0.750			
0.1176	7523.71	3.9580	3.9580	-0.7453	25.19	0.05	-0.750			
0.1198	7667.54	3.9550	3.9549	-0.7471	25.20	0.06	-0.750			
0.1221	7811.84	3.9520	3.9520	-0.7468	25.20	0.06	-0.750			
0.1243	7955.56	3.9490	3.9489	-0.7455	25.20	0.06	-0.750			
0.1265	8097.87	3.9460	3.9460	-0.7482	25.20	0.06	-0.750			
0.1287	8239.34	3.9430	3.9430	-0.7449	25.21	0.07	-0.750			
0.1310	8384.22	3.9400	3.9399	-0.7505	25.21	0.07	-0.750			
0.1333	8528.84	3.9370	3.9371	-0.7490	25.21	0.07	-0.750			
0.1355	8672.59	3.9340	3.9340	-0.7473	25.21	0.07	-0.750			
0.1377	8815.42	3.9310	3.9310	-0.7542	25.22	0.08	-0.750			
0.1400	8960.63	3.9280	3.9280	-0.7534	25.22	0.08	-0.750			
0.1422	9103.90	3.9250	3.9248	-0.7526	25.22	0.08	-0.750			
0.1445	9250.63	3.9220	3.9220	-0.7561	25.23	0.09	-0.750			
0.1468	9396.21	3.9190	3.9191	-0.7563	25.23	0.09	-0.750			
0.1491	9541.62	3.9160	3.9160	-0.7622	25.24	0.10	-0.750			
0.1514	9687.28	3.9130	3.9130	-0.7657	25.24	0.10	-0.750			
0.1536	9831.70	3.9100	3.9099	-0.7652	25.25	0.11	-0.750			
0.1560	9982.52	3.9070	3.9069	-0.7668	25.25	0.11	-0.750			
0.1583	10130.08	3.9040	3.9041	-0.7680	25.26	0.12	-0.750			
0.1606	10277.99	3.9010	3.9010	-0.7680	25.26	0.12	-0.750			
0.1629	10424.76	3.8980	3.8979	-0.7713	25.26	0.12	-0.750			
0.1652	10572.42	3.8950	3.8949	-0.7705	25.27	0.13	-0.750			
0.1675	10720.01	3.8920	3.8921	-0.7698	25.27	0.13	-0.750			
0.1698	10869.84	3.8890	3.8889	-0.7724	25.27	0.13	-0.750			
0.1722	11018.76	3.8860	3.8861	-0.7734	25.27	0.13	-0.750			
0.1744	11164.72	3.8830	3.8830	-0.7743	25.27	0.13	-0.750			
0.1768	11313.95	3.8800	3.8801	-0.7733	25.27	0.13	-0.750			
0.1791	11461.93	3.8770	3.8770	-0.7699	25.28	0.14	-0.750			
0.1814	11611.00	3.8740	3.8739	-0.7736	25.28	0.14	-0.750			
0.1838	11760.54	3.8710	3.8713	-0.7739	25.28	0.14	-0.750			
0.1861	11908.41	3.8680	3.8679	-0.7729	25.28	0.14	-0.750			
0.1884	12056.80	3.8650	3.8650	-0.7754	25.29	0.15	-0.750			
0.1907	12206.24	3.8620	3.8620	-0.7752	25.29	0.15	-0.750			
0.1931	12356.64	3.8590	3.8589	-0.7759	25.30	0.16	-0.750			
0.1954	12504.40	3.8560	3.8561	-0.7756	25.30	0.16	-0.750			
0.1977	12652.44	3.8530	3.8529	-0.7749	25.30	0.16	-0.750			
0.2000	12800.49	3.8500	3.8499	-0.7791	25.31	0.17	-0.750			
0.2024	12950.60	3.8470	3.8470	-0.7734	25.31	0.17	-0.750			
0.2047	13098.61	3.8440	3.8441	-0.7734	25.31	0.17	-0.750			
0.2070	13249.68	3.8410	3.8410	-0.7756	25.32	0.18	-0.750			
0.2094	13398.93	3.8380	3.8380	-0.7696	25.32	0.18	-0.750			
0.2116	13545.23	3.8350	3.8349	-0.7607	25.33	0.19	-0.750			
0.2139	13692.38	3.8320	3.8320	-0.7595	25.33	0.19	-0.750			
0.2162	13837.89	3.8290	3.8290	-0.7524	25.33	0.19	-0.750			
0.2185	13983.50	3.8260	3.8259	-0.7471	25.34	0.20	-0.750			
0.2207	14125.41	3.8230	3.8233	-0.7390	25.34	0.20	-0.750			
0.2229	14266.95	3.8200	3.8199	-0.7284	25.34	0.20	-0.750			
0.2251	14405.69	3.8170	3.8169	-0.7197	25.35	0.21	-0.750			
0.2272	14540.21	3.8140	3.8141	-0.7191	25.35	0.21	-0.750			
0.2293	14676.74	3.8110	3.8110	-0.7277	25.35	0.21	-0.750			
0.2315	14813.71	3.8080	3.8079	-0.7338	25.36	0.22	-0.750			
0.2337	14955.94	3.8050	3.8054	-0.7431	25.36	0.22	-0.750			
0.2360	15101.14	3.8020	3.8018	-0.7495	25.36	0.22	-0.750			
0.2383	15248.56	3.7990	3.7991	-0.7529	25.36	0.22	-0.750			
0.2406	15396.89	3.7960	3.7959	-0.7460	25.37	0.23	-0.750			
0.2428	15538.71	3.7930	3.7931	-0.7363	25.37	0.23	-0.750			
0.2450	15679.10	3.7900	3.7900	-0.7262	25.37	0.23	-0.750			
0.2471	15814.63	3.7870	3.7870	-0.7157	25.37	0.23	-0.750			
0.2492	15951.68	3.7840	3.7840	-0.7164	25.37	0.23	-0.750			
0.2514	16088.90	3.7810	3.7808	-0.7189	25.37	0.23	-0.750			
0.2536	16227.71	3.7780	3.7779	-0.7163	25.38	0.24	-0.750			
0.2557	16366.34	3.7750	3.7752	-0.7134	25.38	0.24	-0.750			
0.2579	16503.20	3.7720	3.7721	-0.7090	25.38	0.24	-0.750			
0.2600	16638.75	3.7690	3.7689	-0.7072	25.38	0.24	-0.750			
0.2620	16771.02	3.7660	3.7659	-0.6999	25.39	0.25	-0.750			
0.2641	16903.45	3.7630	3.7631	-0.7059	25.39	0.25	-0.750			
0.2662	17039.43	3.7600	3.7599	-0.7096	25.39	0.25	-0.750			
0.2684	17180.62	3.7570	3.7570	-0.7150	25.40	0.26	-0.750			
0.2706	17317.92	3.7540	3.7542	-0.7157	25.40	0.26	-0.750			
0.2727	17454.29	3.7510	3.7510	-0.7233	25.40	0.26	-0.750			
0.2749	17592.56	3.7480	3.7480	-0.7335	25.40	0.26	-0.750			
0.2771	17732.50	3.7450	3.7449	-0.7459	25.40	0.26	-0.750			
0.2793	17876.90	3.7420	3.7420	-0.7594	25.40	0.26	-0.750			
0.2817	18026.83	3.7390	3.7389	-0.7785	25.40	0.26	-0.750			
0.2840	18178.80	3.7360	3.7361	-0.7871	25.40	0.26	-0.750			
0.2864	18331.62	3.7330	3.7330	-0.7953	25.40	0.26	-0.750			
0.2888	18484.52	3.7300	3.7300	-0.8048	25.40	0.26	-0.750			
0.2912	18638.62	3.7270	3.7269	-0.8084	25.40	0.26	-0.750			
0.2937	18797.01	3.7240	3.7240	-0.8230	25.40	0.26	-0.750			
0.2962	18955.27	3.7210	3.7212	-0.8301	25.40	0.26	-0.750			
0.2987	19115.32	3.7180	3.7180	-0.8386	25.40	0.26	-0.750			
0.3012	19277.01	3.7150	3.7150	-0.8534	25.40	0.26	-0.750			
0.3037	19438.89	3.7120	3.7120	-0.8706	25.40	0.26	-0.750			
0.3064	19609.14	3.7090	3.7089	-0.8907	25.40	0.26	-0.750			
0.3091	19781.90	3.7060	3.7060	-0.9049	25.40	0.26	-0.750			
0.3119	19958.40	3.7030	3.7031	-0.9238	25.40	0.26	-0.750			
0.3147	20138.01	3.7000	3.7000	-0.9391	25.40	0.26	-0.750			
0.3175	20320.06	3.6970	3.6970	-0.9518	25.40	0.26	-0.750			
0.3204	20502.71	3.6940	3.6940	-0.9644	25.40	0.26	-0.750			
0.3233	20688.21	3.6910	3.6910	-0.9800	25.40	0.26	-0.750			
0.3263	20880.45	3.6880	3.6880	-0.9947	25.39	0.25	-0.750			
0.3292	21071.81	3.6850	3.6850	-1.0080	25.39	0.25	-0.750			
0.3323	21266.00	3.6820	3.6820	-1.0207	25.38	0.24	-0.750			
0.3354	21464.56	3.6790	3.6790	-1.0372	25.38	0.24	-0.750			
0.3385	21664.24	3.6760	3.6760	-1.0552	25.37	0.23	-0.750			
0.3417	21867.67	3.6730	3.6730	-1.0690	25.37	0.23	-0.750			
0.3449	22073.76	3.6700	3.6701	-1.0895	25.36	0.22	-0.750			
0.3482	22286.16	3.6670	3.6669	-1.1160	25.36	0.22	-0.750			
0.3516	22502.70	3.6640	3.6640	-1.1336	25.36	0.22	-0.750			
0.3550	22723.19	3.6610	3.6609	-1.1532	25.35	0.21	-0.750			
0.3585	22946.10	3.6580	3.6582	-1.1766	25.35	0.21	-0.750			
0.3621	23176.51	3.6550	3.6550	-1.1906	25.35	0.21	-0.750			
0.3658	23408.59	3.6520	3.6519	-1.2022	25.34	0.20	-0.750			
0.3694	23638.78	3.6490	3.6489	-1.2112	25.34	0.20	-0.750			
0.3730	23872.24	3.6460	3.6461	-1.2317	25.34	0.20	-0.750			
0.3767	24109.03	3.6430	3.6429	-1.2516	25.33	0.19	-0.750			
0.3804	24348.50	3.6400	3.6399	-1.2692	25.32	0.18	-0.750			
0.3843	24592.10	3.6370	3.6370	-1.2967	25.32	0.18	-0.750			
0.3883	24848.81	3.6340	3.6341	-1.3308	25.31	0.17	-0.750			
0.3923	25108.12	3.6310	3.6309	-1.3621	25.31	0.17	-0.750			
0.3965	25374.21	3.6280	3.6281	-1.3943	25.30	0.16	-0.750			
0.4007	25642.27	3.6250	3.6249	-1.4252	25.29	0.15	-0.750			
0.4050	25919.88	3.6220	3.6219	-1.4565	25.29	0.15	-0.750			
0.4095	26205.56	3.6190	3.6191	-1.4726	25.28	0.14	-0.750			
0.4139	26491.71	3.6160	3.6159	-1.4965	25.28	0.14	-0.750			
0.4184	26778.83	3.6130	3.6131	-1.5290	25.28	0.14	-0.750			
0.4230	27070.43	3.6100	3.6101	-1.5496	25.28	0.14	-0.750	0.374	0.549	
0.4277	27375.27	3.6070	3.6070	-1.6014	25.27	0.13	-0.750			
0.4325	27682.20	3.6040	3.6044	-1.6354	25.27	0.13	-0.750			
0.4376	28007.67	3.6010	3.6010	-1.6699	25.27	0.13	-0.750			
0.4427	28333.20	3.5980	3.5978	-1.7089	25.28	0.14	-0.750			
0.4478	28658.56	3.5950	3.5949	-1.7263	25.28	0.14	-0.750			
0.4529	28988.42	3.5920	3.5921	-1.7603	25.28	0.14	-0.750			
0.4583	29332.63	3.5890	3.5890	-1.7841	25.28	0.14	-0.750			
0.4637	29675.28	3.5860	3.5859	-1.8286	25.27	0.13	-0.750			
0.4692	30030.92	3.5830	3.5830	-1.8628	25.26	0.12	-0.750			
0.4750	30400.52	3.5800	3.5801	-1.8929	25.27	0.13	-0.750			
0.4806	30759.17	3.5770	3.5771	-1.9329	25.28	0.14	-0.750			
0.4866	31139.48	3.5740	3.5738	-1.9521	25.28	0.14	-0.750			
0.4924	31514.94	3.5710	3.5707	-1.9777	25.28	0.14	-0.750			
0.4984	31898.65	3.5680	3.5681	-2.0118	25.28	0.14	-0.750			
0.5044	32283.72	3.5650	3.5649	-2.0173	25.29	0.15	-0.750			
0.5105	32674.61	3.5620	3.5621	-2.0417	25.30	0.16	-0.750			
0.5167	33069.89	3.5590	3.5590	-2.0599	25.31	0.17	-0.750			
0.5230	33471.85	3.5560	3.5560	-2.0559	25.31	0.17	-0.750			
0.5292	33871.31	3.5530	3.5530	-2.0656	25.32	0.18	-0.750			
0.5354	34266.06	3.5500	3.5501	-2.0690	25.32	0.18	-0.750			
0.5416	34665.01	3.5470	3.5469	-2.0463	25.32	0.18	-0.750			
0.5478	35056.20	3.5440	3.5440	-2.0395	25.32	0.18	-0.750			
0.5538	35445.48	3.5410	3.5410	-2.0267	25.33	0.19	-0.750			
0.5600	35836.94	3.5380	3.5380	-2.0134	25.34	0.20	-0.750			
0.5660	36223.83	3.5350	3.5350	-2.0088	25.35	0.21	-0.750			
0.5719	36604.07	3.5320	3.5321	-1.9784	25.36	0.22	-0.750			
0.5779	36986.70	3.5290	3.5289	-1.9560	25.36	0.22	-0.750			
0.5838	37365.08	3.5260	3.5260	-1.9392	25.36	0.22	-0.750			
0.5896	37731.76	3.5230	3.5230	-1.8934	25.38	0.24	-0.750			
0.5952	38093.73	3.5200	3.5201	-1.8603	25.40	0.26	-0.750			
0.6008	38448.31	3.5170	3.5169	-1.8306	25.40	0.26	-0.750			
0.6062	38795.07	3.5140	3.5140	-1.7802	25.40	0.26	-0.750			
0.6115	39135.25	3.5110	3.5111	-1.7450	25.41	0.27	-0.750			
0.6167	39466.18	3.5080	3.5081	-1.7105	25.43	0.29	-0.750			
0.6218	39792.56	3.5050	3.5050	-1.6739	25.44	0.30	-0.750			
0.6267	40111.56	3.5020	3.5020	-1.6274	25.45	0.31	-0.750			
0.6316	40419.32	3.4990	3.4990	-1.5849	25.47	0.33	-0.750			
0.6362	40717.80	3.4960	3.4958	-1.5302	25.48	0.34	-0.750			
0.6408	41012.51	3.4930	3.4929	-1.4775	25.49	0.35	-0.750			
0.6451	41284.48	3.4900	3.4901	-1.4279	25.50	0.36	-0.750			
0.6492	41550.85	3.4870	3.4871	-1.3791	25.51	0.37	-0.750			
0.6533	41811.65	3.4840	3.4838	-1.3436	25.52	0.38	-0.750			
0.6573	42067.03	3.4810	3.4810	-1.3161	25.54	0.40	-0.750			
0.6612	42315.23	3.4780	3.4781	-1.2762	25.55	0.41	-0.750			
0.6650	42561.70	3.4750	3.4750	-1.2478	25.56	0.42	-0.750			
0.6687	42799.42	3.4720	3.4720	-1.2075	25.57	0.43	-0.750			
0.6722	43022.22	3.4690	3.4691	-1.1621	25.59	0.45	-0.750			
0.6757	43242.48	3.4660	3.4660	-1.1315	25.60	0.46	-0.750			
0.6790	43455.19	3.4630	3.4629	-1.0919	25.61	0.47	-0.750			
0.6822	43660.85	3.4600	3.4600	-1.0587	25.63	0.49	-0.750			
0.6853	43862.23	3.4570	3.4570	-1.0307	25.64	0.50	-0.750			
0.6884	44058.03	3.4540	3.4540	-1.0015	25.65	0.51	-0.750			
0.6914	44246.65	3.4510	3.4510	-0.9713	25.66	0.52	-0.750			
0.6942	44428.42	3.4480	3.4480	-0.9413	25.67	0.53	-0.750			
0.6970	44607.38	3.4450	3.4449	-0.9168	25.68	0.54	-0.750			
0.6997	44780.77	3.4420	3.4420	-0.8982	25.70	0.56	-0.750			
0.7023	44949.68	3.4390	3.4390	-0.8760	25.71	0.57	-0.750			
0.7049	45113.42	3.4360	3.4360	-0.8590	25.72	0.58	-0.750			
0.7075	45278.71	3.4330	3.4329	-0.8553	25.73	0.59	-0.750			
0.7100	45438.40	3.4300	3.4300	-0.8429	25.73	0.59	-0.750			
0.7125	45599.28	3.4270	3.4270	-0.8414	25.74	0.60	-0.750			
0.7150	45760.70	3.4240	3.4240	-0.8415	25.75	0.61	-0.750			
0.7175	45921.19	3.4210	3.4210	-0.8430	25.76	0.62	-0.750			
0.7201	46085.03	3.4180	3.4180	-0.8472	25.77	0.63	-0.750			
0.7226	46247.60	3.4150	3.4150	-0.8489	25.78	0.64	-0.750			
0.7252	46410.70	3.4120	3.4120	-0.8527	25.78	0.64	-0.750			
0.7277	46575.58	3.4090	3.4091	-0.8564	25.79	0.65	-0.750			
0.7303	46741.42	3.4060	3.4059	-0.8507	25.80	0.66	-0.750			
0.7329	46905.31	3.4030	3.4030	-0.8451	25.81	0.67	-0.750			
0.7354	47067.11	3.4000	3.4000	-0.8379	25.81	0.67	-0.750			
0.7379	47227.64	3.3970	3.3970	-0.8295	25.82	0.68	-0.750			
0.7404	47386.33	3.3940	3.3939	-0.8173	25.82	0.68	-0.750			
0.7429	47542.76	3.3910	3.3910	-0.7997	25.83	0.69	-0.750			
0.7453	47696.61	3.3880	3.3881	-0.7843	25.83	0.69	-0.750			
0.7476	47846.37	3.3850	3.3850	-0.7654	25.83	0.69	-0.750			
0.7499	47991.75	3.3820	3.3820	-0.7429	25.84	0.70	-0.750			
0.7520	48131.17	3.3790	3.3790	-0.7222	25.84	0.70	-0.750			
0.7542	48267.09	3.3760	3.3760	-0.6988	25.85	0.71	-0.750			
0.7562	48399.77	3.3730	3.3730	-0.6798	25.85	0.71	-0.750			
0.7583	48528.44	3.3700	3.3700	-0.6622	25.86	0.72	-0.750			
0.7602	48653.62	3.3670	3.3670	-0.6426	25.87	0.73	-0.750			
0.7621	48775.37	3.3640	3.3640	-0.6224	25.87	0.73	-0.750			
0.7640	48893.09	3.3610	3.3610	-0.6024	25.88	0.74	-0.750			
0.7657	49006.21	3.3580	3.3580	-0.5851	25.89	0.75	-0.750			
0.7675	49117.54	3.3550	3.3550	-0.5685	25.90	0.76	-0.750			
0.7691	49224.23	3.3520	3.3520	-0.5498	25.90	0.76	-0.750			
0.7707	49327.70	3.3490	3.3490	-0.5316	25.91	0.77	-0.750			
0.7723	49428.58	3.3460	3.3460	-0.5152	25.91	0.77	-0.750			
0.7738	49525.96	3.3430	3.3430	-0.4994	25.92	0.78	-0.750			
0.7753	49619.62	3.3400	3.3400	-0.4838	25.92	0.78	-0.750			
0.7767	49710.42	3.3370	3.3370	-0.4673	25.93	0.79	-0.750			
0.7781	49797.97	3.3340	3.3340	-0.4583	25.93	0.79	-0.750			
0.7795	49885.15	3.3310	3.3310	-0.4464	25.94	0.80	-0.750			
0.7808	49969.98	3.3280	3.3279	-0.4346	25.94	0.80	-0.750			
0.7821	50052.22	3.3250	3.3250	-0.4245	25.95	0.81	-0.750			
0.7833	50132.92	3.3220	3.3224	-0.4126	25.95	0.81	-0.750			
0.7845	50211.09	3.3190	3.3189	-0.4019	25.95	0.81	-0.750			
0.7857	50287.27	3.3160	3.3160	-0.3906	25.96	0.82	-0.750			
0.7869	50360.24	3.3130	3.3131	-0.3791	25.96	0.82	-0.750			
0.7880	50432.30	3.3100	3.3099	-0.3716	25.97	0.83	-0.750			
0.7891	50502.59	3.3070	3.3069	-0.3618	25.97	0.83	-0.750			
0.7902	50570.69	3.3040	3.3040	-0.3510	25.98	0.84	-0.750			
0.7912	50637.73	3.3010	3.3010	-0.3428	25.98	0.84	-0.750			
0.7922	50702.43	3.2980	3.2981	-0.3347	25.99	0.85	-0.750			
0.7932	50765.78	3.2950	3.2949	-0.3285	25.99	0.85	-0.750			
0.7942	50827.23	3.2920	3.2920	-0.3216	25.99	0.85	-0.750			
0.7951	50888.70	3.2890	3.2889	-0.3163	26.00	0.86	-0.750			
0.7961	50949.20	3.2860	3.2860	-0.3120	26.00	0.86	-0.750			
0.7970	51009.28	3.2830	3.2831	-0.3075	26.01	0.87	-0.750			
0.7979	51067.77	3.2800	3.2799	-0.3018	26.01	0.87	-0.750			
0.7988	51125.17	3.2770	3.2770	-0.2951	26.02	0.88	-0.750			
0.7997	51181.33	3.2740	3.2740	-0.2879	26.02	0.88	-0.750			
0.8006	51235.67	3.2710	3.2711	-0.2823	26.03	0.89	-0.750			
0.8014	51289.56	3.2680	3.2680	-0.2778	26.03	0.89	-0.750			
0.8022	51341.89	3.2650	3.2650	-0.2720	26.04	0.90	-0.750			
0.8030	51393.18	3.2620	3.2619	-0.2682	26.04	0.90	-0.750			
0.8038	51444.51	3.2590	3.2590	-0.2640	26.04	0.90	-0.750			
0.8046	51495.12	3.2560	3.2560	-0.2619	26.05	0.91	-0.750			
0.8054	51545.17	3.2530	3.2529	-0.2591	26.05	0.91	-0.750			
0.8062	51594.78	3.2500	3.2501	-0.2542	26.06	0.92	-0.750			
0.8069	51643.03	3.2470	3.2470	-0.2514	26.06	0.92	-0.750			
0.8077	51690.91	3.2440	3.2441	-0.2483	26.07	0.93	-0.750			
0.8084	51738.24	3.2410	3.2412	-0.2450	26.07	0.93	-0.750			
0.8091	51784.73	3.2380	3.2379	-0.2409	26.08	0.94	-0.750			
0.8099	51831.37	3.2350	3.2351	-0.2380	26.08	0.94	-0.750			
0.8106	51876.21	3.2320	3.2321	-0.2330	26.09	0.95	-0.750			
0.8113	51920.65	3.2290	3.2290	-0.2306	26.09	0.95	-0.750			
0.8119	51964.59	3.2260	3.2260	-0.2294	26.10	0.96	-0.750			
0.8126	52007.97	3.2230	3.2228	-0.2248	26.10	0.96	-0.750			
0.8133	52050.87	3.2200	3.2200	-0.2228	26.11	0.97	-0.750			
0.8140	52093.56	3.2170	3.2170	-0.2204	26.12	0.98	-0.750			
0.8146	52135.97	3.2140	3.2141	-0.2180	26.12	0.98	-0.750			
0.8153	52177.96	3.2110	3.2110	-0.2156	26.13	0.99	-0.750			
0.8159	52218.99	3.2080	3.2078	-0.2118	26.13	0.99	-0.750			
0.8165	52259.05	3.2050	3.2051	-0.2082	26.14	1.00	-0.750			
0.8172	52298.26	3.2020	3.2020	-0.2055	26.14	1.00	-0.750			
0.8178	52337.32	3.1990	3.1990	-0.2047	26.15	1.01	-0.750			
0.8184	52376.59	3.1960	3.1959	-0.2030	26.15	1.01	-0.750			
0.8190	52415.06	3.1930	3.1930	-0.2013	26.16	1.02	-0.750			
0.8196	52454.01	3.1900	3.1899	-0.1977	26.16	1.02	-0.750			
0.8202	52492.13	3.1870	3.1869	-0.1954	26.17	1.03	-0.750			
0.8208	52529.17	3.1840	3.1840	-0.1922	26.17	1.03	-0.750			
0.8213	52566.06	3.1810	3.1808	-0.1890	26.17	1.03	-0.750			
0.8219	52601.36	3.1780	3.1780	-0.1870	26.18	1.04	-0.750			
0.8224	52636.48	3.1750	3.1750	-0.1840	26.18	1.04	-0.750			
0.8230	52671.84	3.1720	3.1719	-0.1832	26.19	1.05	-0.750			
0.8235	52706.94	3.1690	3.1690	-0.1824	26.20	1.06	-0.750			
0.8241	52742.14	3.1660	3.1661	-0.1817	26.20	1.06	-0.750			
0.8246	52777.09	3.1630	3.1630	-0.1798	26.21	1.07	-0.750			
0.8252	52811.48	3.1600	3.1599	-0.1781	26.21	1.07	-0.750			
0.8257	52845.49	3.1570	3.1570	-0.1761	26.22	1.08	-0.750			
0.8262	52879.15	3.1540	3.1541	-0.1730	26.22	1.08	-0.750			
0.8268	52912.19	3.1510	3.1510	-0.1716	26.23	1.09	-0.750			
0.8273	52944.58	3.1480	3.1480	-0.1692	26.23	1.09	-0.750			
0.8278	52976.91	3.1450	3.1452	-0.1675	26.24	1.10	-0.750			
0.8283	53008.51	3.1420	3.1419	-0.1663	26.24	1.10	-0.750			
0.8288	53040.43	3.1390	3.1390	-0.1653	26.25	1.11	-0.750			
0.8292	53071.95	3.1360	3.1360	-0.1642	26.25	1.11	-0.750			
0.8297	53103.72	3.1330	3.1331	-0.1617	26.26	1.12	-0.750			
0.8302	53135.09	3.1300	3.1300	-0.1605	26.26	1.12	-0.750			
0.8307	53165.22	3.1270	3.1271	-0.1585	26.27	1.13	-0.750			
0.8312	53195.39	3.1240	3.1241	-0.1566	26.27	1.13	-0.750			
0.8316	53225.17	3.1210	3.1209	-0.1560	26.27	1.13	-0.750			
0.8321	53254.79	3.1180	3.1179	-0.1543	26.28	1.14	-0.750			
0.8326	53284.26	3.1150	3.1150	-0.1537	26.28	1.14	-0.750			
0.8330	53313.79	3.1120	3.1121	-0.1533	26.29	1.15	-0.750			
0.8335	53343.84	3.1090	3.1090	-0.1523	26.29	1.15	-0.750			
0.8340	53372.99	3.1060	3.1060	-0.1506	26.30	1.16	-0.750			
0.8344	53401.70	3.1030	3.1030	-0.1485	26.30	1.16	-0.750			
0.8348	53429.85	3.1000	3.1001	-0.1475	26.31	1.17	-0.750			
0.8353	53458.01	3.0970	3.0969	-0.1458	26.31	1.17	-0.750			
0.8357	53485.84	3.0940	3.0940	-0.1445	26.32	1.18	-0.750			
0.8361	53513.46	3.0910	3.0910	-0.1432	26.32	1.18	-0.750			
0.8366	53540.57	3.0880	3.0881	-0.1424	26.33	1.19	-0.750			
0.8370	53568.11	3.0850	3.0850	-0.1417	26.34	1.20	-0.750			
0.8374	53595.08	3.0820	3.0820	-0.1406	26.34	1.20	-0.750			
0.8378	53621.99	3.0790	3.0789	-0.1397	26.35	1.21	-0.750			
0.8383	53648.60	3.0760	3.0761	-0.1385	26.35	1.21	-0.750			
0.8387	53675.37	3.0730	3.0730	-0.1380	26.36	1.22	-0.750			
0.8391	53701.88	3.0700	3.0700	-0.1365	26.36	1.22	-0.750			
0.8395	53727.94	3.0670	3.0670	-0.1349	26.37	1.23	-0.750			
0.8399	53753.62	3.0640	3.0640	-0.1336	26.37	1.23	-0.750			
0.8403	53779.04	3.0610	3.0611	-0.1330	26.38	1.24	-0.750			
0.8407	53804.27	3.0580	3.0580	-0.1318	26.38	1.24	-0.750			
0.8411	53829.57	3.0550	3.0549	-0.1311	26.39	1.25	-0.750			
0.8415	53854.70	3.0520	3.0520	-0.1303	26.39	1.25	-0.750			
0.8419	53879.63	3.0490	3.0490	-0.1296	26.40	1.26	-0.750			
0.8423	53904.47	3.0460	3.0461	-0.1290	26.40	1.26	-0.750			
0.8426	53929.43	3.0430	3.0431	-0.1285	26.41	1.27	-0.750			
0.8430	53954.01	3.0400	3.0399	-0.1274	26.42	1.28	-0.750			
0.8434	53978.24	3.0370	3.0370	-0.1262	26.42	1.28	-0.750			
0.8438	54002.46	3.0340	3.0341	-0.1251	26.43	1.29	-0.750			
0.8442	54026.22	3.0310	3.0310	-0.1248	26.43	1.29	-0.750			
0.8445	54050.13	3.0280	3.0280	-0.1242	26.44	1.30	-0.750			
0.8449	54074.02	3.0250	3.0250	-0.1230	26.44	1.30	-0.750			
0.8453	54097.49	3.0220	3.0219	-0.1221	26.45	1.31	-0.750			
0.8456	54120.90	3.0190	3.0191	-0.1211	26.46	1.32	-0.750			
0.8460	54144.27	3.0160	3.0162	-0.1205	26.46	1.32	-0.750			
0.8464	54167.22	3.0130	3.0129	-0.1195	26.47	1.33	-0.750			
0.8467	54190.21	3.0100	3.0100	-0.1185	26.47	1.33	-0.750			
0.8471	54212.82	3.0070	3.0071	-0.1171	26.48	1.34	-0.750			
0.8474	54234.88	3.0040	3.0039	-0.1178	26.48	1.34	-0.751			
0.8478	54257.52	3.0010	3.0010	-0.1181	26.49	1.35	-0.751			
