Ah_balance (normalized)	Ah_balance (mAh)	Voltage - fit (V)	Voltage -  interpolate (V)	dQ/dV (1/V)	Temperature (°C)	Temperature - diff (°C)	Current (C)	R_DC 0ms (mOhm)	R_DC 50ms (mOhm)	R_DC 50 ms PEC (mOhm)
0.0581	3717.34	4.1960	4.1961	0.7996	27.71	1.71	0.750			
0.0605	3868.86	4.1930	4.1930	0.7749	27.71	1.71	0.750			
0.0627	4011.30	4.1900	4.1900	0.7576	27.70	1.70	0.750			
0.0649	4151.23	4.1870	4.1871	0.7545	27.70	1.70	0.750			
0.0671	4295.86	4.1840	4.1840	0.7619	27.70	1.70	0.750			
0.0694	4443.17	4.1810	4.1810	0.7589	27.70	1.70	0.750			
0.0717	4589.82	4.1780	4.1781	0.7650	27.70	1.70	0.750			
0.0741	4740.23	4.1750	4.1751	0.7616	27.70	1.70	0.750			
0.0764	4886.71	4.1720	4.1720	0.7590	27.70	1.70	0.750			
0.0786	5029.57	4.1690	4.1690	0.7508	27.70	1.70	0.750			
0.0808	5172.08	4.1660	4.1657	0.7508	27.70	1.70	0.750			
0.0831	5315.64	4.1630	4.1630	0.7517	27.70	1.70	0.750			
0.0853	5461.88	4.1600	4.1600	0.7556	27.69	1.69	0.750			
0.0876	5606.36	4.1570	4.1570	0.7574	27.69	1.69	0.750			
0.0899	5753.76	4.1540	4.1540	0.7628	27.69	1.69	0.750			
0.0922	5898.33	4.1510	4.1511	0.7601	27.68	1.68	0.750			
0.0945	6045.01	4.1480	4.1480	0.7629	27.68	1.68	0.750			
0.0967	6190.87	4.1450	4.1450	0.7664	27.68	1.68	0.750			
0.0990	6339.07	4.1420	4.1420	0.7688	27.68	1.68	0.750			
0.1014	6486.50	4.1390	4.1390	0.7706	27.67	1.67	0.750			
0.1037	6633.87	4.1360	4.1361	0.7747	27.67	1.67	0.750			
0.1060	6783.86	4.1330	4.1327	0.7776	27.67	1.67	0.750			
0.1083	6934.33	4.1300	4.1300	0.7767	27.67	1.67	0.750			
0.1107	7084.37	4.1270	4.1270	0.7725	27.67	1.67	0.750			
0.1130	7232.04	4.1240	4.1242	0.7723	27.66	1.66	0.750			
0.1153	7380.45	4.1210	4.1210	0.7737	27.66	1.66	0.750			
0.1176	7526.56	4.1180	4.1179	0.7748	27.66	1.66	0.750			
0.1199	7675.40	4.1150	4.1150	0.7766	27.66	1.66	0.750			
0.1223	7826.55	4.1120	4.1120	0.7776	27.66	1.66	0.750			
0.1246	7976.30	4.1090	4.1091	0.7780	27.66	1.66	0.750			
0.1270	8125.66	4.1060	4.1061	0.7835	27.65	1.65	0.750			
0.1293	8274.94	4.1030	4.1030	0.7822	27.65	1.65	0.750			
0.1316	8423.89	4.1000	4.1000	0.7850	27.65	1.65	0.750			
0.1340	8575.09	4.0970	4.0970	0.7897	27.65	1.65	0.750			
0.1364	8729.40	4.0940	4.0940	0.7888	27.64	1.64	0.750			
0.1388	8880.01	4.0910	4.0911	0.7937	27.64	1.64	0.750			
0.1411	9031.94	4.0880	4.0881	0.7942	27.63	1.63	0.750			
0.1435	9184.35	4.0850	4.0846	0.7966	27.63	1.63	0.750			
0.1459	9337.59	4.0820	4.0821	0.8001	27.63	1.63	0.750			
0.1483	9491.55	4.0790	4.0790	0.8000	27.63	1.63	0.750			
0.1507	9647.44	4.0760	4.0761	0.8047	27.63	1.63	0.750			
0.1531	9800.67	4.0730	4.0730	0.8016	27.63	1.63	0.750			
0.1555	9954.04	4.0700	4.0699	0.8045	27.63	1.63	0.750			
0.1580	10108.84	4.0670	4.0670	0.8070	27.63	1.63	0.750			
0.1604	10264.70	4.0640	4.0640	0.8066	27.63	1.63	0.750			
0.1628	10420.62	4.0610	4.0610	0.8110	27.62	1.62	0.750			
0.1653	10576.43	4.0580	4.0580	0.8150	27.62	1.62	0.750			
0.1677	10731.71	4.0550	4.0550	0.8177	27.62	1.62	0.750			
0.1701	10888.84	4.0520	4.0520	0.8214	27.62	1.62	0.750			
0.1726	11048.27	4.0490	4.0490	0.8180	27.62	1.62	0.750			
0.1751	11205.22	4.0460	4.0460	0.8239	27.61	1.61	0.750			
0.1776	11363.43	4.0430	4.0430	0.8293	27.61	1.61	0.750			
0.1800	11522.09	4.0400	4.0400	0.8301	27.61	1.61	0.750			
0.1825	11681.58	4.0370	4.0370	0.8339	27.61	1.61	0.750			
0.1850	11842.49	4.0340	4.0340	0.8364	27.61	1.61	0.750			
0.1876	12004.60	4.0310	4.0311	0.8401	27.61	1.61	0.750			
0.1901	12167.01	4.0280	4.0279	0.8369	27.61	1.61	0.750			
0.1926	12327.55	4.0250	4.0250	0.8374	27.61	1.61	0.750			
0.1951	12486.74	4.0220	4.0220	0.8383	27.61	1.61	0.750			
0.1976	12649.04	4.0190	4.0189	0.8377	27.60	1.60	0.750			
0.2002	12809.81	4.0160	4.0160	0.8445	27.60	1.60	0.750			
0.2027	12972.77	4.0130	4.0130	0.8487	27.60	1.60	0.750			
0.2053	13136.92	4.0100	4.0099	0.8519	27.59	1.59	0.750			
0.2078	13301.16	4.0070	4.0071	0.8546	27.59	1.59	0.750			
0.2104	13465.25	4.0040	4.0039	0.8529	27.59	1.59	0.750			
0.2130	13628.87	4.0010	4.0011	0.8535	27.59	1.59	0.750			
0.2155	13791.85	3.9980	3.9980	0.8517	27.59	1.59	0.750			
0.2181	13955.47	3.9950	3.9948	0.8574	27.59	1.59	0.750			
0.2207	14121.71	3.9920	3.9920	0.8594	27.59	1.59	0.750			
0.2232	14287.01	3.9890	3.9890	0.8616	27.58	1.58	0.750			
0.2258	14453.98	3.9860	3.9860	0.8643	27.58	1.58	0.750			
0.2284	14620.39	3.9830	3.9830	0.8654	27.57	1.57	0.750			
0.2310	14785.64	3.9800	3.9800	0.8623	27.57	1.57	0.750			
0.2336	14951.45	3.9770	3.9770	0.8610	27.57	1.57	0.750			
0.2362	15116.53	3.9740	3.9740	0.8618	27.56	1.56	0.750			
0.2388	15282.11	3.9710	3.9710	0.8654	27.56	1.56	0.750			
0.2414	15447.66	3.9680	3.9681	0.8680	27.55	1.55	0.750			
0.2440	15614.84	3.9650	3.9650	0.8712	27.55	1.55	0.750			
0.2466	15783.34	3.9620	3.9620	0.8690	27.54	1.54	0.750			
0.2492	15949.68	3.9590	3.9590	0.8730	27.54	1.54	0.750			
0.2518	16116.93	3.9560	3.9561	0.8756	27.54	1.54	0.750			
0.2545	16286.04	3.9530	3.9530	0.8732	27.53	1.53	0.750			
0.2571	16453.93	3.9500	3.9500	0.8718	27.53	1.53	0.750			
0.2597	16621.43	3.9470	3.9471	0.8725	27.52	1.52	0.750			
0.2623	16788.69	3.9440	3.9440	0.8774	27.51	1.51	0.750			
0.2650	16957.73	3.9410	3.9410	0.8792	27.51	1.51	0.750			
0.2676	17125.37	3.9380	3.9380	0.8788	27.50	1.50	0.750			
0.2702	17294.63	3.9350	3.9351	0.8836	27.50	1.50	0.750			
0.2729	17465.98	3.9320	3.9320	0.8902	27.49	1.49	0.750			
0.2756	17636.71	3.9290	3.9290	0.8924	27.48	1.48	0.750			
0.2783	17808.23	3.9260	3.9260	0.8926	27.48	1.48	0.750			
0.2809	17979.35	3.9230	3.9230	0.8947	27.47	1.47	0.750			
0.2836	18153.49	3.9200	3.9200	0.8942	27.46	1.46	0.750			
0.2863	18324.33	3.9170	3.9169	0.8965	27.45	1.45	0.750			
0.2890	18495.91	3.9140	3.9140	0.8993	27.44	1.44	0.750			
0.2917	18667.93	3.9110	3.9111	0.9064	27.44	1.44	0.750			
0.2944	18841.79	3.9080	3.9079	0.9127	27.43	1.43	0.750			
0.2972	19019.23	3.9050	3.9049	0.9114	27.42	1.42	0.750			
0.2999	19195.09	3.9020	3.9021	0.9121	27.40	1.40	0.750			
0.3027	19370.47	3.8990	3.8991	0.9141	27.39	1.39	0.750			
0.3054	19545.60	3.8960	3.8959	0.9126	27.38	1.38	0.750			
0.3081	19720.10	3.8930	3.8930	0.9113	27.37	1.37	0.750			
0.3109	19894.75	3.8900	3.8900	0.9131	27.36	1.36	0.750			
0.3136	20072.14	3.8870	3.8870	0.9170	27.35	1.35	0.750			
0.3164	20250.77	3.8840	3.8840	0.9169	27.34	1.34	0.750			
0.3191	20424.62	3.8810	3.8811	0.9152	27.33	1.33	0.750			
0.3219	20601.08	3.8780	3.8781	0.9049	27.32	1.32	0.750			
0.3246	20773.27	3.8750	3.8750	0.9049	27.31	1.31	0.750			
0.3273	20945.14	3.8720	3.8721	0.9103	27.30	1.30	0.750			
0.3300	21119.59	3.8690	3.8690	0.9110	27.29	1.29	0.750			
0.3327	21295.80	3.8660	3.8660	0.9105	27.28	1.28	0.750			
0.3355	21471.61	3.8630	3.8631	0.9177	27.27	1.27	0.750			
0.3382	21647.53	3.8600	3.8601	0.9228	27.26	1.26	0.750			
0.3411	21827.67	3.8570	3.8569	0.9300	27.24	1.24	0.750			
0.3438	22003.38	3.8540	3.8539	0.9317	27.23	1.23	0.750			
0.3466	22183.72	3.8510	3.8511	0.9322	27.22	1.22	0.750			
0.3495	22365.45	3.8480	3.8480	0.9420	27.21	1.21	0.750			
0.3523	22546.09	3.8450	3.8452	0.9465	27.19	1.19	0.750			
0.3551	22726.76	3.8420	3.8419	0.9462	27.18	1.18	0.750			
0.3580	22910.51	3.8390	3.8390	0.9464	27.17	1.17	0.750			
0.3608	23091.93	3.8360	3.8360	0.9517	27.16	1.16	0.750			
0.3636	23273.31	3.8330	3.8331	0.9588	27.15	1.15	0.750			
0.3665	23459.03	3.8300	3.8301	0.9714	27.14	1.14	0.750			
0.3695	23645.77	3.8270	3.8270	0.9738	27.13	1.13	0.750			
0.3724	23832.37	3.8240	3.8241	0.9860	27.11	1.11	0.750			
0.3754	24023.68	3.8210	3.8210	0.9975	27.10	1.10	0.750			
0.3784	24217.28	3.8180	3.8180	1.0060	27.08	1.08	0.750			
0.3814	24411.96	3.8150	3.8150	1.0126	27.07	1.07	0.750			
0.3845	24606.95	3.8120	3.8121	1.0214	27.05	1.05	0.750			
0.3875	24803.14	3.8090	3.8090	1.0329	27.04	1.04	0.750			
0.3907	25003.52	3.8060	3.8060	1.0449	27.02	1.02	0.750			
0.3938	25205.75	3.8030	3.8029	1.0455	27.01	1.01	0.750			
0.3970	25405.91	3.8000	3.8000	1.0639	27.00	1.00	0.750			
0.4002	25610.04	3.7970	3.7971	1.0807	26.98	0.98	0.750			
0.4034	25818.39	3.7940	3.7940	1.0957	26.97	0.97	0.750			
0.4068	26032.18	3.7910	3.7909	1.1069	26.96	0.96	0.750			
0.4101	26245.30	3.7880	3.7881	1.1320	26.94	0.94	0.750			
0.4135	26466.64	3.7850	3.7850	1.1519	26.92	0.92	0.750			
0.4170	26688.24	3.7820	3.7819	1.1785	26.91	0.91	0.750			
0.4205	26913.72	3.7790	3.7791	1.2052	26.89	0.89	0.750			
0.4242	27148.26	3.7760	3.7760	1.2311	26.87	0.87	0.750			
0.4280	27389.23	3.7730	3.7727	1.2618	26.85	0.85	0.750	0.316	0.458	
0.4318	27636.58	3.7700	3.7701	1.2677	26.84	0.84	0.750			
0.4356	27880.20	3.7670	3.7671	1.3012	26.83	0.83	0.750			
0.4396	28131.45	3.7640	3.7640	1.3320	26.81	0.81	0.750			
0.4435	28386.81	3.7610	3.7605	1.3484	26.80	0.80	0.750			
0.4476	28644.03	3.7580	3.7582	1.3781	26.78	0.78	0.750			
0.4518	28917.25	3.7550	3.7551	1.4056	26.76	0.76	0.750			
0.4561	29191.75	3.7520	3.7516	1.4446	26.74	0.74	0.750			
0.4605	29472.65	3.7490	3.7491	1.4547	26.72	0.72	0.750			
0.4649	29754.45	3.7460	3.7460	1.4807	26.70	0.70	0.750			
0.4694	30041.19	3.7430	3.7431	1.5185	26.68	0.68	0.750			
0.4739	30328.82	3.7400	3.7400	1.5623	26.66	0.66	0.750			
0.4787	30635.08	3.7370	3.7371	1.5974	26.65	0.65	0.750			
0.4836	30947.66	3.7340	3.7341	1.6535	26.63	0.63	0.750			
0.4886	31270.66	3.7310	3.7310	1.6922	26.60	0.60	0.750			
0.4938	31604.88	3.7280	3.7281	1.7479	26.58	0.58	0.750			
0.4992	31945.71	3.7250	3.7251	1.8062	26.56	0.56	0.750			
0.5045	32288.79	3.7220	3.7219	1.8631	26.54	0.54	0.750			
0.5102	32654.99	3.7190	3.7188	1.8981	26.51	0.51	0.750			
0.5161	33028.16	3.7160	3.7162	1.9672	26.48	0.48	0.750			
0.5219	33404.03	3.7130	3.7131	2.0364	26.46	0.46	0.750			
0.5282	33807.07	3.7100	3.7097	2.0777	26.43	0.43	0.750			
0.5345	34209.26	3.7070	3.7070	2.1365	26.41	0.41	0.750			
0.5410	34625.97	3.7040	3.7041	2.2218	26.38	0.38	0.750			
0.5478	35056.10	3.7010	3.7008	2.2917	26.36	0.36	0.750			
0.5547	35502.68	3.6980	3.6980	2.3594	26.34	0.34	0.750			
0.5619	35963.46	3.6950	3.6951	2.4344	26.31	0.31	0.750			
0.5695	36445.25	3.6920	3.6920	2.5754	26.28	0.28	0.750			
0.5773	36945.23	3.6890	3.6890	2.6544	26.26	0.26	0.750			
0.5854	37464.05	3.6860	3.6860	2.7323	26.24	0.24	0.750			
0.5938	38001.23	3.6830	3.6829	2.8120	26.21	0.21	0.750			
0.6024	38553.77	3.6800	3.6798	2.8080	26.20	0.20	0.750			
0.6112	39114.45	3.6770	3.6769	2.7090	26.18	0.18	0.750			
0.6192	39626.68	3.6740	3.6740	2.5063	26.17	0.17	0.750			
0.6261	40068.62	3.6710	3.6713	2.2296	26.16	0.16	0.750			
0.6321	40455.22	3.6680	3.6680	1.9941	26.15	0.15	0.750			
0.6377	40815.46	3.6650	3.6647	1.8127	26.14	0.14	0.750			
0.6428	41137.69	3.6620	3.6616	1.6581	26.13	0.13	0.750			
0.6474	41434.08	3.6590	3.6592	1.5549	26.12	0.12	0.750			
0.6519	41723.36	3.6560	3.6566	1.4677	26.12	0.12	0.750			
0.6563	42001.99	3.6530	3.6529	1.3841	26.11	0.11	0.750			
0.6601	42249.24	3.6500	3.6503	1.3028	26.10	0.10	0.750			
0.6640	42493.65	3.6470	3.6471	1.2614	26.10	0.10	0.750			
0.6678	42736.71	3.6440	3.6437	1.2349	26.09	0.09	0.750			
0.6712	42958.48	3.6410	3.6411	1.1872	26.09	0.09	0.750			
0.6747	43181.90	3.6380	3.6381	1.1874	26.08	0.08	0.750			
0.6783	43411.78	3.6350	3.6351	1.1972	26.07	0.07	0.750			
0.6819	43642.12	3.6320	3.6320	1.1864	26.07	0.07	0.750			
0.6855	43870.95	3.6290	3.6290	1.1919	26.06	0.06	0.750			
0.6891	44102.62	3.6260	3.6262	1.1957	26.06	0.06	0.750			
0.6928	44336.80	3.6230	3.6227	1.1779	26.05	0.05	0.750			
0.6963	44561.73	3.6200	3.6201	1.1633	26.05	0.05	0.750			
0.6997	44781.76	3.6170	3.6171	1.1486	26.04	0.04	0.750			
0.7031	44999.92	3.6140	3.6141	1.1415	26.03	0.03	0.750			
0.7065	45214.49	3.6110	3.6108	1.1285	26.03	0.03	0.750			
0.7098	45428.42	3.6080	3.6081	1.1447	26.02	0.02	0.750			
0.7132	45647.75	3.6050	3.6051	1.1617	26.02	0.02	0.750			
0.7168	45876.34	3.6020	3.6019	1.1818	26.01	0.01	0.750			
0.7204	46102.77	3.5990	3.5990	1.2097	26.01	0.01	0.750			
0.7240	46334.06	3.5960	3.5962	1.2480	26.00	-0.00	0.750			
0.7278	46580.42	3.5930	3.5930	1.2868	25.99	-0.01	0.750			
0.7317	46829.97	3.5900	3.5898	1.3290	25.98	-0.02	0.750			
0.7358	47088.46	3.5870	3.5870	1.3828	25.97	-0.03	0.750			
0.7400	47358.88	3.5840	3.5842	1.4444	25.96	-0.04	0.750			
0.7444	47643.57	3.5810	3.5809	1.4966	25.95	-0.05	0.750			
0.7490	47933.49	3.5780	3.5781	1.5496	25.94	-0.06	0.750			
0.7537	48237.35	3.5750	3.5749	1.5812	25.93	-0.07	0.750			
0.7586	48549.21	3.5720	3.5721	1.6168	25.91	-0.09	0.750			
0.7635	48862.33	3.5690	3.5690	1.6573	25.90	-0.10	0.750			
0.7685	49180.93	3.5660	3.5659	1.6673	25.89	-0.11	0.750			
0.7736	49508.24	3.5630	3.5631	1.6789	25.88	-0.12	0.750			
0.7786	49830.02	3.5600	3.5603	1.6978	25.87	-0.13	0.750			
0.7837	50158.20	3.5570	3.5570	1.7145	25.87	-0.13	0.750			
0.7889	50492.79	3.5540	3.5540	1.7313	25.86	-0.14	0.750			
0.7941	50823.49	3.5510	3.5511	1.7551	25.86	-0.14	0.750			
0.7995	51165.78	3.5480	3.5476	1.7991	25.86	-0.14	0.750			
0.8050	51519.90	3.5450	3.5450	1.7571	25.85	-0.15	0.750			
0.8107	51885.06	3.5420	3.5419	1.6305	25.85	-0.15	0.750			
0.8158	52210.64	3.5390	3.5394	1.4591	25.85	-0.15	0.750			
0.8200	52478.98	3.5360	3.5365	1.2072	25.86	-0.14	0.750			
0.8232	52685.47	3.5330	3.5329	0.9386	25.87	-0.13	0.750			
0.8251	52808.07	3.5300	3.5297	0.7047	25.87	-0.13	0.750			
0.8265	52896.47	3.5270	3.5267	0.5160	25.88	-0.12	0.750			
0.8276	52968.82	3.5240	3.5241	0.4180	25.88	-0.12	0.750			
0.8288	53040.46	3.5210	3.5209	0.3712	25.88	-0.12	0.750			
0.8297	53103.16	3.5180	3.5180	0.3407	25.89	-0.11	0.750			
0.8307	53165.61	3.5150	3.5149	0.3217	25.89	-0.11	0.750			
0.8316	53224.73	3.5120	3.5120	0.3087	25.89	-0.11	0.750			
0.8325	53282.24	3.5090	3.5090	0.2982	25.90	-0.10	0.750			
0.8334	53338.23	3.5060	3.5061	0.2901	25.90	-0.10	0.750			
0.8343	53393.46	3.5030	3.5029	0.2831	25.91	-0.09	0.750			
0.8351	53446.37	3.5000	3.5000	0.2762	25.91	-0.09	0.750			
0.8359	53498.45	3.4970	3.4970	0.2704	25.91	-0.09	0.750			
0.8367	53550.20	3.4940	3.4940	0.2660	25.92	-0.08	0.750			
0.8375	53600.72	3.4910	3.4909	0.2602	25.92	-0.08	0.750			
0.8383	53649.95	3.4880	3.4882	0.2547	25.93	-0.07	0.750			
0.8390	53698.35	3.4850	3.4850	0.2508	25.93	-0.07	0.750			
0.8398	53746.40	3.4820	3.4821	0.2465	25.93	-0.07	0.750			
0.8405	53793.31	3.4790	3.4789	0.2409	25.94	-0.06	0.750			
0.8412	53838.59	3.4760	3.4759	0.2349	25.94	-0.06	0.750			
0.8419	53883.30	3.4730	3.4731	0.2303	25.94	-0.06	0.750			
0.8426	53926.87	3.4700	3.4700	0.2271	25.95	-0.05	0.750			
0.8433	53970.00	3.4670	3.4669	0.2229	25.95	-0.05	0.750			
0.8439	54012.73	3.4640	3.4639	0.2180	25.95	-0.05	0.750			
0.8446	54053.87	3.4610	3.4610	0.2132	25.95	-0.05	0.750			
0.8452	54095.06	3.4580	3.4580	0.2082	25.96	-0.04	0.750			
0.8459	54134.56	3.4550	3.4551	0.2039	25.96	-0.04	0.750			
0.8465	54172.84	3.4520	3.4519	0.1983	25.96	-0.04	0.750			
0.8470	54210.42	3.4490	3.4490	0.1932	25.96	-0.04	0.750			
0.8476	54246.42	3.4460	3.4460	0.1880	25.97	-0.03	0.750			
0.8482	54282.07	3.4430	3.4431	0.1839	25.97	-0.03	0.750			
0.8487	54317.15	3.4400	3.4400	0.1808	25.97	-0.03	0.750			
0.8492	54351.48	3.4370	3.4370	0.1768	25.97	-0.03	0.750			
0.8498	54385.17	3.4340	3.4340	0.1726	25.98	-0.02	0.750			
0.8503	54417.84	3.4310	3.4310	0.1677	25.98	-0.02	0.750			
0.8508	54449.85	3.4280	3.4281	0.1636	25.98	-0.02	0.750			
0.8513	54480.78	3.4250	3.4249	0.1587	25.98	-0.02	0.750			
0.8517	54510.97	3.4220	3.4220	0.1538	25.98	-0.02	0.750			
0.8522	54540.01	3.4190	3.4191	0.1486	25.99	-0.01	0.750			
0.8526	54567.90	3.4160	3.4160	0.1431	25.99	-0.01	0.750			
0.8530	54595.06	3.4130	3.4130	0.1373	25.99	-0.01	0.750			
0.8535	54621.04	3.4100	3.4100	0.1318	25.99	-0.01	0.750			
0.8538	54645.97	3.4070	3.4072	0.1260	25.99	-0.01	0.750			
0.8542	54669.60	3.4040	3.4040	0.1198	25.99	-0.01	0.750			
0.8546	54692.10	3.4010	3.4009	0.1131	25.99	-0.01	0.750			
0.8549	54713.26	3.3980	3.3980	0.1065	26.00	-0.00	0.750			
0.8552	54734.33	3.3950	3.3949	0.0980	26.00	-0.00	0.750			
0.8555	54752.22	3.3920	3.3920	0.0883	26.00	-0.00	0.750			
0.8558	54769.07	3.3890	3.3891	0.0805	26.00	-0.00	0.750			
0.8560	54783.46	3.3860	3.3863	0.0695	26.00	0.00	0.750			
0.8562	54795.74	3.3830	3.3836	0.0584	26.00	0.00	0.750			
0.8564	54806.69	3.3800	3.3807	0.0464	26.00	0.00	0.750			
0.8565	54814.42	3.3770	3.3784	0.0341	26.00	0.00	0.750			
0.8566	54819.79	3.3740	3.3760	0.0218	26.00	0.00	0.750			
