Ah_balance (normalized)	Ah_balance (mAh)	Voltage - fit (V)	Voltage -  interpolate (V)	dQ/dV (1/V)	Temperature (°C)	Temperature - diff (°C)	Current (C)	R_DC 0ms (mOhm)	R_DC 50ms (mOhm)	R_DC 50 ms PEC (mOhm)
0.0005	30.82	4.1600	4.1598	-0.1330	26.00	0.01	-0.750			
0.0010	61.24	4.1570	4.1569	-0.1759	26.00	0.01	-0.750			
0.0015	98.35	4.1540	4.1540	-0.2163	26.00	0.01	-0.750			
0.0023	144.07	4.1510	4.1510	-0.2563	25.99	0.00	-0.750			
0.0031	197.38	4.1480	4.1480	-0.2929	25.99	0.00	-0.750			
0.0040	258.25	4.1450	4.1449	-0.3299	25.99	-0.00	-0.750			
0.0051	325.63	4.1420	4.1421	-0.3639	25.99	-0.00	-0.750			
0.0062	398.89	4.1390	4.1389	-0.3980	25.98	-0.01	-0.750			
0.0075	479.20	4.1360	4.1361	-0.4273	25.98	-0.01	-0.750			
0.0088	564.59	4.1330	4.1330	-0.4567	25.97	-0.02	-0.750			
0.0103	656.01	4.1300	4.1300	-0.4821	25.97	-0.02	-0.750			
0.0117	751.46	4.1270	4.1270	-0.5061	25.96	-0.03	-0.750			
0.0133	851.65	4.1240	4.1240	-0.5252	25.96	-0.03	-0.750			
0.0149	954.36	4.1210	4.1210	-0.5429	25.95	-0.04	-0.750			
0.0166	1060.38	4.1180	4.1180	-0.5582	25.95	-0.04	-0.750			
0.0183	1169.93	4.1150	4.1150	-0.5718	25.95	-0.04	-0.750			
0.0200	1280.72	4.1120	4.1120	-0.5843	25.94	-0.05	-0.750			
0.0218	1393.89	4.1090	4.1091	-0.6000	25.94	-0.05	-0.750			
0.0236	1510.75	4.1060	4.1060	-0.6088	25.94	-0.05	-0.750			
0.0255	1629.35	4.1030	4.1029	-0.6196	25.93	-0.06	-0.750			
0.0273	1749.61	4.1000	4.1001	-0.6269	25.93	-0.06	-0.750			
0.0292	1871.33	4.0970	4.0971	-0.6337	25.93	-0.06	-0.750			
0.0312	1995.55	4.0940	4.0940	-0.6385	25.93	-0.06	-0.750			
0.0331	2117.24	4.0910	4.0910	-0.6431	25.93	-0.06	-0.750			
0.0350	2240.03	4.0880	4.0881	-0.6493	25.92	-0.07	-0.750			
0.0370	2366.07	4.0850	4.0850	-0.6590	25.92	-0.07	-0.750			
0.0390	2492.99	4.0820	4.0818	-0.6657	25.92	-0.07	-0.750			
0.0410	2622.56	4.0790	4.0792	-0.6718	25.92	-0.07	-0.750			
0.0430	2753.25	4.0760	4.0759	-0.6761	25.92	-0.07	-0.750			
0.0450	2882.80	4.0730	4.0730	-0.6807	25.92	-0.07	-0.750			
0.0471	3012.50	4.0700	4.0701	-0.6820	25.92	-0.07	-0.750			
0.0491	3145.41	4.0670	4.0669	-0.6900	25.91	-0.08	-0.750			
0.0512	3277.39	4.0640	4.0639	-0.6897	25.91	-0.08	-0.750			
0.0533	3409.87	4.0610	4.0610	-0.6932	25.91	-0.08	-0.750			
0.0554	3543.84	4.0580	4.0581	-0.6966	25.91	-0.08	-0.750			
0.0575	3678.70	4.0550	4.0549	-0.7017	25.91	-0.08	-0.750			
0.0596	3813.09	4.0520	4.0520	-0.7076	25.91	-0.08	-0.750			
0.0617	3950.89	4.0490	4.0490	-0.7051	25.91	-0.08	-0.750			
0.0639	4087.80	4.0460	4.0459	-0.7077	25.91	-0.08	-0.750			
0.0660	4223.84	4.0430	4.0434	-0.7070	25.91	-0.08	-0.750			
0.0681	4358.82	4.0400	4.0400	-0.7062	25.91	-0.08	-0.750			
0.0702	4492.10	4.0370	4.0369	-0.7119	25.91	-0.08	-0.750			
0.0723	4626.20	4.0340	4.0341	-0.7141	25.91	-0.08	-0.750			
0.0745	4766.79	4.0310	4.0309	-0.7225	25.91	-0.08	-0.750			
0.0767	4906.40	4.0280	4.0279	-0.7254	25.91	-0.08	-0.750			
0.0789	5046.51	4.0250	4.0252	-0.7280	25.91	-0.08	-0.750			
0.0811	5187.46	4.0220	4.0219	-0.7257	25.91	-0.08	-0.750			
0.0832	5325.24	4.0190	4.0190	-0.7287	25.91	-0.08	-0.750			
0.0854	5465.03	4.0160	4.0160	-0.7282	25.91	-0.08	-0.750			
0.0876	5605.31	4.0130	4.0130	-0.7297	25.91	-0.08	-0.750			
0.0898	5746.06	4.0100	4.0099	-0.7278	25.91	-0.08	-0.750			
0.0920	5884.92	4.0070	4.0070	-0.7294	25.91	-0.08	-0.750			
0.0941	6024.49	4.0040	4.0041	-0.7325	25.91	-0.08	-0.750			
0.0963	6165.94	4.0010	4.0008	-0.7373	25.91	-0.08	-0.750			
0.0985	6305.74	3.9980	3.9980	-0.7375	25.91	-0.08	-0.750			
0.1008	6450.21	3.9950	3.9950	-0.7424	25.91	-0.08	-0.750			
0.1030	6594.05	3.9920	3.9921	-0.7453	25.91	-0.08	-0.750			
0.1053	6737.07	3.9890	3.9889	-0.7467	25.91	-0.08	-0.750			
0.1075	6878.38	3.9860	3.9859	-0.7435	25.91	-0.08	-0.750			
0.1097	7021.27	3.9830	3.9830	-0.7489	25.91	-0.08	-0.750			
0.1119	7164.72	3.9800	3.9800	-0.7528	25.92	-0.07	-0.750			
0.1142	7311.16	3.9770	3.9770	-0.7576	25.92	-0.07	-0.750			
0.1165	7458.26	3.9740	3.9740	-0.7579	25.92	-0.07	-0.750			
0.1188	7604.03	3.9710	3.9710	-0.7576	25.92	-0.07	-0.750			
0.1211	7749.49	3.9680	3.9680	-0.7580	25.92	-0.07	-0.750			
0.1234	7894.57	3.9650	3.9650	-0.7576	25.93	-0.06	-0.750			
0.1256	8038.92	3.9620	3.9619	-0.7620	25.93	-0.06	-0.750			
0.1279	8184.58	3.9590	3.9591	-0.7668	25.93	-0.06	-0.750			
0.1302	8333.07	3.9560	3.9559	-0.7706	25.93	-0.06	-0.750			
0.1325	8481.23	3.9530	3.9530	-0.7775	25.94	-0.05	-0.750			
0.1349	8632.08	3.9500	3.9501	-0.7776	25.94	-0.05	-0.750			
0.1372	8781.78	3.9470	3.9470	-0.7775	25.94	-0.05	-0.750			
0.1396	8932.21	3.9440	3.9439	-0.7791	25.95	-0.04	-0.750			
0.1419	9081.13	3.9410	3.9411	-0.7778	25.95	-0.04	-0.750			
0.1442	9228.74	3.9380	3.9380	-0.7779	25.95	-0.04	-0.750			
0.1465	9378.83	3.9350	3.9350	-0.7791	25.95	-0.04	-0.750			
0.1489	9527.68	3.9320	3.9321	-0.7775	25.95	-0.04	-0.750			
0.1512	9677.87	3.9290	3.9289	-0.7837	25.95	-0.04	-0.750			
0.1536	9828.64	3.9260	3.9264	-0.7854	25.95	-0.04	-0.750			
0.1559	9979.07	3.9230	3.9229	-0.7892	25.95	-0.04	-0.750			
0.1583	10131.25	3.9200	3.9200	-0.7947	25.96	-0.03	-0.750			
0.1607	10285.42	3.9170	3.9170	-0.7962	25.96	-0.03	-0.750			
0.1631	10440.11	3.9140	3.9139	-0.7964	25.97	-0.02	-0.750			
0.1655	10592.12	3.9110	3.9111	-0.7962	25.97	-0.02	-0.750			
0.1679	10743.58	3.9080	3.9080	-0.7939	25.97	-0.02	-0.750			
0.1702	10894.83	3.9050	3.9050	-0.8007	25.97	-0.02	-0.750			
0.1726	11048.11	3.9020	3.9019	-0.7984	25.98	-0.01	-0.750			
0.1750	11201.96	3.8990	3.8990	-0.8030	25.98	-0.01	-0.750			
0.1775	11359.34	3.8960	3.8960	-0.8073	25.98	-0.01	-0.750			
0.1799	11514.57	3.8930	3.8930	-0.8058	25.98	-0.01	-0.750			
0.1823	11666.85	3.8900	3.8900	-0.8082	25.98	-0.01	-0.750			
0.1847	11823.58	3.8870	3.8870	-0.8078	25.98	-0.01	-0.750			
0.1872	11977.60	3.8840	3.8840	-0.8046	25.99	-0.00	-0.750			
0.1896	12133.03	3.8810	3.8810	-0.8159	25.99	-0.00	-0.750			
0.1920	12290.22	3.8780	3.8780	-0.8169	25.99	0.00	-0.750			
0.1945	12446.91	3.8750	3.8749	-0.8238	26.00	0.01	-0.750			
0.1970	12606.77	3.8720	3.8720	-0.8234	26.00	0.01	-0.750			
0.1995	12765.72	3.8690	3.8690	-0.8207	26.00	0.01	-0.750			
0.2020	12924.85	3.8660	3.8659	-0.8226	26.01	0.02	-0.750			
0.2044	13081.61	3.8630	3.8632	-0.8184	26.01	0.02	-0.750			
0.2068	13235.46	3.8600	3.8599	-0.8182	26.02	0.03	-0.750			
0.2093	13394.23	3.8570	3.8569	-0.8171	26.02	0.03	-0.750			
0.2117	13549.33	3.8540	3.8540	-0.8134	26.02	0.03	-0.750			
0.2142	13707.82	3.8510	3.8510	-0.8174	26.03	0.04	-0.750			
0.2167	13866.64	3.8480	3.8481	-0.8182	26.03	0.04	-0.750			
0.2191	14023.03	3.8450	3.8449	-0.8117	26.03	0.04	-0.750			
0.2215	14177.11	3.8420	3.8420	-0.8084	26.03	0.04	-0.750			
0.2239	14330.12	3.8390	3.8391	-0.8067	26.03	0.04	-0.750			
0.2264	14487.83	3.8360	3.8360	-0.8114	26.03	0.04	-0.750			
0.2288	14642.85	3.8330	3.8331	-0.8112	26.03	0.04	-0.750			
0.2312	14798.90	3.8300	3.8300	-0.8136	26.03	0.04	-0.750			
0.2337	14955.40	3.8270	3.8271	-0.8215	26.04	0.05	-0.750			
0.2362	15115.82	3.8240	3.8239	-0.8165	26.04	0.05	-0.750			
0.2386	15273.40	3.8210	3.8209	-0.8144	26.05	0.06	-0.750			
0.2411	15428.35	3.8180	3.8184	-0.8112	26.05	0.06	-0.750			
0.2435	15584.80	3.8150	3.8148	-0.8082	26.05	0.06	-0.750			
0.2459	15737.90	3.8120	3.8119	-0.8035	26.06	0.07	-0.750			
0.2483	15889.85	3.8090	3.8091	-0.7997	26.06	0.07	-0.750			
0.2507	16046.81	3.8060	3.8060	-0.7976	26.07	0.08	-0.750			
0.2531	16200.47	3.8030	3.8028	-0.7903	26.07	0.08	-0.750			
0.2555	16350.99	3.8000	3.8000	-0.7787	26.07	0.08	-0.750			
0.2578	16497.80	3.7970	3.7971	-0.7728	26.08	0.09	-0.750			
0.2601	16644.26	3.7940	3.7940	-0.7717	26.08	0.09	-0.750			
0.2624	16791.38	3.7910	3.7910	-0.7698	26.08	0.09	-0.750			
0.2647	16938.47	3.7880	3.7880	-0.7754	26.09	0.10	-0.750			
0.2670	17089.03	3.7850	3.7851	-0.7805	26.09	0.10	-0.750			
0.2694	17241.17	3.7820	3.7819	-0.7788	26.09	0.10	-0.750			
0.2717	17391.24	3.7790	3.7790	-0.7775	26.09	0.10	-0.750			
0.2741	17539.73	3.7760	3.7761	-0.7722	26.10	0.11	-0.750			
0.2764	17687.57	3.7730	3.7730	-0.7715	26.10	0.11	-0.750			
0.2787	17835.97	3.7700	3.7701	-0.7664	26.10	0.11	-0.750			
0.2810	17981.19	3.7670	3.7670	-0.7618	26.11	0.12	-0.750			
0.2832	18127.22	3.7640	3.7641	-0.7669	26.11	0.12	-0.750			
0.2856	18275.37	3.7610	3.7610	-0.7671	26.12	0.13	-0.750			
0.2879	18423.01	3.7580	3.7579	-0.7626	26.12	0.13	-0.750			
0.2901	18568.38	3.7550	3.7550	-0.7657	26.13	0.14	-0.750			
0.2924	18715.61	3.7520	3.7521	-0.7644	26.13	0.14	-0.750			
0.2947	18862.04	3.7490	3.7489	-0.7710	26.13	0.14	-0.750			
0.2970	19007.98	3.7460	3.7460	-0.7734	26.13	0.14	-0.750			
0.2993	19156.81	3.7430	3.7431	-0.7800	26.13	0.14	-0.750			
0.3017	19309.53	3.7400	3.7398	-0.7910	26.13	0.14	-0.750			
0.3041	19461.88	3.7370	3.7372	-0.7998	26.13	0.14	-0.750			
0.3065	19613.99	3.7340	3.7341	-0.8045	26.13	0.14	-0.750			
0.3089	19771.13	3.7310	3.7309	-0.8177	26.14	0.15	-0.750			
0.3114	19927.55	3.7280	3.7280	-0.8228	26.14	0.15	-0.750			
0.3139	20087.54	3.7250	3.7250	-0.8342	26.15	0.16	-0.750			
0.3164	20249.29	3.7220	3.7221	-0.8479	26.15	0.16	-0.750			
0.3189	20411.96	3.7190	3.7189	-0.8625	26.15	0.16	-0.750			
0.3215	20576.91	3.7160	3.7160	-0.8719	26.15	0.16	-0.750			
0.3242	20745.80	3.7130	3.7130	-0.8901	26.15	0.16	-0.750			
0.3269	20919.24	3.7100	3.7100	-0.9090	26.15	0.16	-0.750			
0.3296	21094.59	3.7070	3.7070	-0.9275	26.15	0.16	-0.750			
0.3324	21275.15	3.7040	3.7040	-0.9491	26.15	0.16	-0.750			
0.3353	21460.19	3.7010	3.7009	-0.9616	26.15	0.16	-0.750			
0.3382	21645.31	3.6980	3.6980	-0.9795	26.15	0.16	-0.750			
0.3412	21835.23	3.6950	3.6952	-1.0036	26.15	0.16	-0.750			
0.3442	22029.26	3.6920	3.6919	-1.0201	26.15	0.16	-0.750			
0.3473	22227.63	3.6890	3.6889	-1.0355	26.15	0.16	-0.750			
0.3504	22426.90	3.6860	3.6860	-1.0476	26.15	0.16	-0.750			
0.3536	22632.25	3.6830	3.6833	-1.0715	26.15	0.16	-0.750			
0.3568	22838.26	3.6800	3.6800	-1.0884	26.14	0.15	-0.750			
0.3601	23046.22	3.6770	3.6770	-1.1007	26.14	0.15	-0.750			
0.3634	23258.06	3.6740	3.6740	-1.1284	26.13	0.14	-0.750			
0.3668	23477.70	3.6710	3.6710	-1.1572	26.13	0.14	-0.750			
0.3704	23703.12	3.6680	3.6679	-1.1847	26.13	0.14	-0.750			
0.3740	23935.53	3.6650	3.6650	-1.2049	26.12	0.13	-0.750			
0.3776	24166.67	3.6620	3.6621	-1.2336	26.12	0.13	-0.750			
0.3814	24407.24	3.6590	3.6589	-1.2537	26.12	0.13	-0.750			
0.3852	24650.90	3.6560	3.6559	-1.2775	26.11	0.12	-0.750			
0.3889	24891.76	3.6530	3.6530	-1.3093	26.11	0.12	-0.750			
0.3930	25150.04	3.6500	3.6500	-1.3349	26.11	0.12	-0.750			
0.3971	25411.48	3.6470	3.6469	-1.3677	26.10	0.11	-0.750			
0.4012	25676.82	3.6440	3.6439	-1.4020	26.09	0.10	-0.750			
0.4054	25948.06	3.6410	3.6411	-1.4172	26.09	0.10	-0.750			
0.4098	26224.75	3.6380	3.6379	-1.4539	26.08	0.09	-0.750			
0.4142	26507.06	3.6350	3.6350	-1.4801	26.07	0.08	-0.750			
0.4186	26791.61	3.6320	3.6319	-1.5013	26.07	0.08	-0.750			
0.4232	27084.16	3.6290	3.6290	-1.5534	26.06	0.07	-0.750			
0.4279	27387.17	3.6260	3.6260	-1.5748	26.05	0.06	-0.750			
0.4327	27693.58	3.6230	3.6229	-1.6092	26.05	0.06	-0.750			
0.4376	28009.59	3.6200	3.6199	-1.6319	26.04	0.05	-0.750			
0.4426	28323.61	3.6170	3.6172	-1.6510	26.04	0.05	-0.750	0.402	0.527	
0.4475	28641.38	3.6140	3.6142	-1.6877	26.03	0.04	-0.750			
0.4526	28967.17	3.6110	3.6110	-1.7186	26.03	0.04	-0.750			
0.4578	29296.37	3.6080	3.6079	-1.7488	26.02	0.03	-0.750			
0.4632	29641.88	3.6050	3.6049	-1.7863	26.01	0.02	-0.750			
0.4685	29986.11	3.6020	3.6020	-1.8353	26.01	0.02	-0.750			
0.4741	30340.75	3.5990	3.5990	-1.8784	26.01	0.02	-0.750			
0.4798	30706.26	3.5960	3.5960	-1.9086	26.01	0.02	-0.750			
0.4855	31074.71	3.5930	3.5931	-1.9486	26.00	0.01	-0.750			
0.4915	31458.61	3.5900	3.5899	-1.9806	25.99	0.00	-0.750			
0.4976	31844.28	3.5870	3.5870	-2.0140	25.99	0.00	-0.750			
0.5036	32233.23	3.5840	3.5841	-2.0514	25.99	-0.00	-0.750			
0.5098	32624.21	3.5810	3.5808	-2.0749	25.98	-0.01	-0.750			
0.5160	33026.82	3.5780	3.5781	-2.1057	25.98	-0.01	-0.750			
0.5225	33437.79	3.5750	3.5750	-2.1387	25.97	-0.02	-0.750			
0.5289	33849.01	3.5720	3.5719	-2.1777	25.97	-0.02	-0.750			
0.5355	34270.07	3.5690	3.5690	-2.2029	25.97	-0.02	-0.750			
0.5422	34699.91	3.5660	3.5660	-2.2288	25.97	-0.02	-0.750			
0.5490	35135.25	3.5630	3.5629	-2.2250	25.97	-0.02	-0.750			
0.5557	35564.96	3.5600	3.5600	-2.2401	25.97	-0.02	-0.750			
0.5625	36000.84	3.5570	3.5571	-2.2411	25.97	-0.02	-0.750			
0.5692	36427.12	3.5540	3.5542	-2.2311	25.98	-0.01	-0.750			
0.5757	36847.91	3.5510	3.5511	-2.2279	25.99	-0.00	-0.750			
0.5826	37283.75	3.5480	3.5481	-2.2152	25.99	0.00	-0.750			
0.5893	37713.47	3.5450	3.5449	-2.2077	25.99	0.00	-0.750			
0.5960	38141.77	3.5420	3.5421	-2.1851	25.99	0.00	-0.750			
0.6024	38550.53	3.5390	3.5391	-2.1418	25.99	0.00	-0.750			
0.6088	38961.72	3.5360	3.5359	-2.1221	26.00	0.01	-0.750			
0.6150	39360.15	3.5330	3.5329	-2.0798	26.01	0.02	-0.750			
0.6212	39755.82	3.5300	3.5300	-2.0501	26.01	0.02	-0.750			
0.6274	40155.39	3.5270	3.5270	-2.0197	26.01	0.02	-0.750			
0.6335	40541.57	3.5240	3.5240	-1.9811	26.02	0.03	-0.750			
0.6393	40917.30	3.5210	3.5209	-1.9266	26.03	0.04	-0.750			
0.6450	41282.35	3.5180	3.5181	-1.8656	26.04	0.05	-0.750			
0.6505	41634.73	3.5150	3.5148	-1.8253	26.05	0.06	-0.750			
0.6560	41982.12	3.5120	3.5119	-1.7801	26.06	0.07	-0.750			
0.6612	42317.88	3.5090	3.5089	-1.7384	26.07	0.08	-0.750			
0.6664	42647.19	3.5060	3.5063	-1.6864	26.09	0.10	-0.750			
0.6714	42970.50	3.5030	3.5032	-1.6314	26.11	0.12	-0.750			
0.6763	43280.43	3.5000	3.5000	-1.5828	26.12	0.13	-0.750			
0.6809	43577.67	3.4970	3.4967	-1.5235	26.14	0.15	-0.750			
0.6854	43863.22	3.4940	3.4941	-1.4727	26.15	0.16	-0.750			
0.6897	44139.55	3.4910	3.4910	-1.4296	26.17	0.18	-0.750			
0.6939	44408.01	3.4880	3.4879	-1.3797	26.18	0.19	-0.750			
0.6979	44666.47	3.4850	3.4850	-1.3278	26.19	0.20	-0.750			
0.7019	44920.52	3.4820	3.4820	-1.2882	26.20	0.21	-0.750			
0.7056	45161.14	3.4790	3.4790	-1.2467	26.22	0.23	-0.750			
0.7094	45399.42	3.4760	3.4760	-1.2087	26.24	0.25	-0.750			
0.7129	45626.14	3.4730	3.4728	-1.1672	26.26	0.27	-0.750			
0.7163	45843.67	3.4700	3.4702	-1.1314	26.27	0.28	-0.750			
0.7197	46060.34	3.4670	3.4670	-1.0978	26.29	0.30	-0.750			
0.7229	46268.28	3.4640	3.4639	-1.0594	26.31	0.32	-0.750			
0.7261	46468.28	3.4610	3.4609	-1.0208	26.33	0.34	-0.750			
0.7290	46658.64	3.4580	3.4582	-0.9871	26.34	0.35	-0.750			
0.7319	46843.51	3.4550	3.4550	-0.9603	26.35	0.36	-0.750			
0.7347	47023.47	3.4520	3.4520	-0.9306	26.36	0.37	-0.750			
0.7375	47199.42	3.4490	3.4489	-0.9050	26.36	0.37	-0.750			
0.7402	47371.32	3.4460	3.4461	-0.8888	26.37	0.38	-0.750			
0.7428	47537.12	3.4430	3.4431	-0.8776	26.38	0.39	-0.750			
0.7453	47701.71	3.4400	3.4399	-0.8701	26.39	0.40	-0.750			
0.7479	47865.85	3.4370	3.4370	-0.8748	26.40	0.41	-0.750			
0.7505	48030.01	3.4340	3.4339	-0.8839	26.41	0.42	-0.750			
0.7532	48203.30	3.4310	3.4311	-0.8995	26.42	0.43	-0.750			
0.7559	48377.32	3.4280	3.4280	-0.9223	26.43	0.44	-0.750			
0.7587	48556.98	3.4250	3.4250	-0.9402	26.44	0.45	-0.750			
0.7616	48739.29	3.4220	3.4219	-0.9570	26.45	0.46	-0.750			
0.7644	48924.41	3.4190	3.4189	-0.9671	26.46	0.47	-0.750			
0.7674	49112.65	3.4160	3.4161	-0.9776	26.47	0.48	-0.750			
0.7704	49304.46	3.4130	3.4129	-0.9838	26.48	0.49	-0.750			
0.7734	49496.90	3.4100	3.4100	-0.9869	26.49	0.50	-0.750			
0.7763	49684.91	3.4070	3.4070	-0.9703	26.50	0.51	-0.750			
0.7793	49873.12	3.4040	3.4041	-0.9516	26.51	0.52	-0.750			
0.7821	50056.79	3.4010	3.4010	-0.9278	26.52	0.53	-0.750			
0.7849	50232.87	3.3980	3.3980	-0.8979	26.53	0.54	-0.750			
0.7875	50400.71	3.3950	3.3950	-0.8646	26.53	0.54	-0.750			
0.7901	50564.84	3.3920	3.3920	-0.8403	26.54	0.55	-0.750			
0.7925	50722.10	3.3890	3.3889	-0.8060	26.55	0.56	-0.750			
0.7949	50874.92	3.3860	3.3860	-0.7807	26.55	0.56	-0.750			
0.7972	51022.14	3.3830	3.3830	-0.7566	26.56	0.57	-0.750			
0.7995	51164.96	3.3800	3.3800	-0.7295	26.57	0.58	-0.750			
0.8016	51303.30	3.3770	3.3769	-0.7024	26.57	0.58	-0.750			
0.8037	51435.20	3.3740	3.3742	-0.6752	26.58	0.59	-0.750			
0.8057	51562.22	3.3710	3.3710	-0.6490	26.59	0.60	-0.750			
0.8076	51684.61	3.3680	3.3680	-0.6243	26.59	0.60	-0.750			
0.8094	51800.85	3.3650	3.3650	-0.6000	26.60	0.61	-0.750			
0.8111	51913.05	3.3620	3.3620	-0.5812	26.60	0.61	-0.750			
0.8129	52022.61	3.3590	3.3589	-0.5596	26.61	0.62	-0.750			
0.8145	52128.66	3.3560	3.3559	-0.5391	26.62	0.63	-0.750			
0.8161	52229.78	3.3530	3.3532	-0.5177	26.62	0.63	-0.750			
0.8176	52327.13	3.3500	3.3500	-0.4998	26.63	0.64	-0.750			
0.8191	52420.91	3.3470	3.3470	-0.4813	26.63	0.64	-0.750			
0.8205	52509.79	3.3440	3.3438	-0.4609	26.63	0.64	-0.750			
0.8218	52597.15	3.3410	3.3411	-0.4492	26.64	0.65	-0.750			
0.8231	52681.39	3.3380	3.3381	-0.4364	26.64	0.65	-0.750			
0.8244	52764.39	3.3350	3.3349	-0.4248	26.65	0.66	-0.750			
0.8257	52844.84	3.3320	3.3319	-0.4117	26.65	0.66	-0.750			
0.8269	52921.97	3.3290	3.3290	-0.3971	26.66	0.67	-0.750			
0.8281	52997.73	3.3260	3.3260	-0.3854	26.66	0.67	-0.750			
0.8292	53070.57	3.3230	3.3229	-0.3731	26.66	0.67	-0.750			
0.8303	53140.07	3.3200	3.3200	-0.3602	26.67	0.68	-0.750			
0.8314	53207.20	3.3170	3.3170	-0.3480	26.67	0.68	-0.750			
0.8324	53273.31	3.3140	3.3140	-0.3387	26.68	0.69	-0.750			
0.8334	53337.75	3.3110	3.3109	-0.3296	26.68	0.69	-0.750			
0.8344	53400.15	3.3080	3.3081	-0.3203	26.69	0.70	-0.750			
0.8353	53460.77	3.3050	3.3050	-0.3099	26.69	0.70	-0.750			
0.8362	53518.81	3.3020	3.3020	-0.3009	26.70	0.71	-0.750			
0.8371	53575.05	3.2990	3.2991	-0.2918	26.70	0.71	-0.750			
0.8380	53630.42	3.2960	3.2959	-0.2859	26.71	0.72	-0.750			
0.8388	53684.74	3.2930	3.2930	-0.2801	26.71	0.72	-0.750			
0.8397	53737.93	3.2900	3.2900	-0.2738	26.71	0.72	-0.750			
0.8405	53790.08	3.2870	3.2870	-0.2687	26.72	0.73	-0.750			
0.8413	53841.45	3.2840	3.2841	-0.2636	26.72	0.73	-0.750			
0.8420	53890.92	3.2810	3.2809	-0.2568	26.73	0.74	-0.750			
0.8428	53939.59	3.2780	3.2780	-0.2509	26.74	0.75	-0.750			
0.8435	53987.03	3.2750	3.2751	-0.2450	26.74	0.75	-0.750			
0.8443	54033.68	3.2720	3.2720	-0.2411	26.75	0.76	-0.750			
0.8450	54079.34	3.2690	3.2691	-0.2365	26.76	0.77	-0.750			
0.8457	54124.27	3.2660	3.2659	-0.2315	26.76	0.77	-0.750			
0.8464	54168.21	3.2630	3.2629	-0.2270	26.77	0.78	-0.750			
0.8471	54211.29	3.2600	3.2601	-0.2237	26.77	0.78	-0.750			
0.8477	54253.99	3.2570	3.2570	-0.2196	26.78	0.79	-0.750			
0.8484	54296.01	3.2540	3.2540	-0.2159	26.78	0.79	-0.750			
0.8490	54336.97	3.2510	3.2509	-0.2118	26.79	0.80	-0.750			
0.8496	54376.68	3.2480	3.2481	-0.2087	26.80	0.81	-0.750			
0.8503	54416.58	3.2450	3.2451	-0.2054	26.80	0.81	-0.750			
0.8509	54455.84	3.2420	3.2419	-0.2026	26.81	0.82	-0.750			
0.8515	54494.24	3.2390	3.2389	-0.2006	26.81	0.82	-0.750			
0.8521	54532.41	3.2360	3.2361	-0.1970	26.82	0.83	-0.750			
0.8527	54570.40	3.2330	3.2329	-0.1946	26.82	0.83	-0.750			
0.8532	54607.43	3.2300	3.2300	-0.1911	26.82	0.83	-0.750			
0.8538	54643.75	3.2270	3.2270	-0.1893	26.82	0.83	-0.750			
0.8544	54679.58	3.2240	3.2240	-0.1862	26.83	0.84	-0.750			
0.8549	54715.14	3.2210	3.2209	-0.1843	26.83	0.84	-0.750			
0.8555	54749.90	3.2180	3.2181	-0.1815	26.84	0.85	-0.750			
0.8560	54784.72	3.2150	3.2151	-0.1797	26.85	0.86	-0.750			
0.8566	54819.49	3.2120	3.2119	-0.1778	26.85	0.86	-0.750			
0.8571	54853.45	3.2090	3.2091	-0.1755	26.86	0.87	-0.750			
0.8576	54886.88	3.2060	3.2059	-0.1727	26.86	0.87	-0.750			
0.8581	54919.50	3.2030	3.2031	-0.1705	26.87	0.88	-0.750			
0.8586	54952.26	3.2000	3.2000	-0.1685	26.87	0.88	-0.750			
0.8591	54983.97	3.1970	3.1969	-0.1664	26.88	0.89	-0.750			
0.8596	55015.79	3.1940	3.1941	-0.1650	26.88	0.89	-0.750			
0.8601	55047.24	3.1910	3.1911	-0.1636	26.89	0.90	-0.750			
0.8606	55078.65	3.1880	3.1879	-0.1618	26.89	0.90	-0.750			
0.8611	55109.50	3.1850	3.1850	-0.1604	26.90	0.91	-0.750			
0.8616	55140.17	3.1820	3.1821	-0.1590	26.90	0.91	-0.750			
0.8620	55170.55	3.1790	3.1790	-0.1575	26.91	0.92	-0.750			
0.8625	55200.87	3.1760	3.1759	-0.1559	26.91	0.92	-0.750			
0.8630	55230.41	3.1730	3.1729	-0.1537	26.92	0.93	-0.750			
0.8634	55259.85	3.1700	3.1701	-0.1515	26.92	0.93	-0.750			
0.8639	55288.61	3.1670	3.1671	-0.1509	26.92	0.93	-0.750			
0.8643	55317.46	3.1640	3.1640	-0.1496	26.93	0.94	-0.750			
0.8648	55345.76	3.1610	3.1610	-0.1478	26.93	0.94	-0.750			
0.8652	55374.24	3.1580	3.1578	-0.1463	26.93	0.94	-0.750			
0.8657	55402.21	3.1550	3.1551	-0.1452	26.94	0.95	-0.750			
0.8661	55430.18	3.1520	3.1520	-0.1442	26.94	0.95	-0.750			
0.8665	55457.62	3.1490	3.1490	-0.1432	26.95	0.96	-0.750			
0.8670	55484.96	3.1460	3.1459	-0.1424	26.95	0.96	-0.750			
0.8674	55511.82	3.1430	3.1430	-0.1407	26.96	0.97	-0.750			
0.8678	55538.90	3.1400	3.1400	-0.1406	26.97	0.98	-0.750			
0.8682	55565.99	3.1370	3.1370	-0.1390	26.97	0.98	-0.750			
0.8686	55592.86	3.1340	3.1340	-0.1378	26.98	0.99	-0.750			
0.8690	55618.99	3.1310	3.1311	-0.1364	26.98	0.99	-0.750			
0.8695	55645.03	3.1280	3.1279	-0.1349	26.99	1.00	-0.750			
0.8699	55670.66	3.1250	3.1250	-0.1336	26.99	1.00	-0.750			
0.8702	55695.93	3.1220	3.1220	-0.1326	27.00	1.01	-0.750			
0.8706	55721.20	3.1190	3.1190	-0.1318	27.00	1.01	-0.750			
0.8710	55746.55	3.1160	3.1161	-0.1311	27.01	1.02	-0.750			
0.8714	55771.88	3.1130	3.1130	-0.1303	27.02	1.03	-0.750			
0.8718	55796.87	3.1100	3.1098	-0.1294	27.02	1.03	-0.750			
0.8722	55821.45	3.1070	3.1071	-0.1285	27.03	1.04	-0.750			
0.8726	55846.06	3.1040	3.1040	-0.1278	27.03	1.04	-0.750			
0.8730	55870.74	3.1010	3.1009	-0.1266	27.04	1.05	-0.750			
0.8734	55894.91	3.0980	3.0979	-0.1252	27.04	1.05	-0.750			
0.8737	55918.74	3.0950	3.0952	-0.1239	27.05	1.06	-0.750			
0.8741	55942.60	3.0920	3.0920	-0.1229	27.05	1.06	-0.750			
0.8745	55965.89	3.0890	3.0890	-0.1224	27.06	1.07	-0.750			
0.8748	55989.12	3.0860	3.0860	-0.1218	27.06	1.07	-0.750			
0.8752	56012.14	3.0830	3.0830	-0.1207	27.07	1.08	-0.750			
0.8756	56035.59	3.0800	3.0800	-0.1201	27.07	1.08	-0.750			
0.8759	56058.59	3.0770	3.0769	-0.1196	27.08	1.09	-0.750			
0.8763	56081.75	3.0740	3.0741	-0.1195	27.08	1.09	-0.750			
0.8766	56104.68	3.0710	3.0711	-0.1188	27.09	1.10	-0.750			
0.8770	56127.36	3.0680	3.0680	-0.1180	27.09	1.10	-0.750			
0.8773	56149.81	3.0650	3.0650	-0.1171	27.10	1.11	-0.750			
0.8777	56172.38	3.0620	3.0619	-0.1158	27.10	1.11	-0.750			
0.8780	56194.58	3.0590	3.0590	-0.1149	27.10	1.11	-0.750			
0.8784	56216.45	3.0560	3.0561	-0.1143	27.11	1.12	-0.750			
0.8787	56238.47	3.0530	3.0529	-0.1137	27.11	1.12	-0.750			
0.8791	56260.14	3.0500	3.0500	-0.1129	27.12	1.13	-0.750			
0.8794	56281.48	3.0470	3.0469	-0.1119	27.13	1.14	-0.750			
0.8797	56302.89	3.0440	3.0440	-0.1116	27.13	1.14	-0.750			
0.8801	56324.16	3.0410	3.0410	-0.1111	27.14	1.15	-0.750			
0.8804	56345.52	3.0380	3.0380	-0.1108	27.14	1.15	-0.750			
0.8807	56366.93	3.0350	3.0350	-0.1106	27.15	1.16	-0.750			
0.8811	56388.19	3.0320	3.0321	-0.1098	27.16	1.17	-0.750			
0.8814	56409.17	3.0290	3.0289	-0.1090	27.16	1.17	-0.750			
0.8817	56430.04	3.0260	3.0261	-0.1083	27.17	1.18	-0.750			
0.8820	56450.91	3.0230	3.0230	-0.1077	27.17	1.18	-0.750			
0.8824	56471.43	3.0200	3.0201	-0.1071	27.18	1.19	-0.750			
0.8827	56491.82	3.0170	3.0170	-0.1062	27.19	1.20	-0.750			
0.8830	56512.22	3.0140	3.0139	-0.1052	27.19	1.20	-0.750			
0.8833	56532.31	3.0110	3.0110	-0.1043	27.20	1.21	-0.750			
0.8836	56552.26	3.0080	3.0080	-0.1035	27.20	1.21	-0.751			
0.8839	56572.19	3.0050	3.0050	-0.1017	27.21	1.22	-0.751			
0.8842	56591.55	3.0020	3.0020	-0.1001	27.21	1.22	-0.751			
