Ah_balance (normalized)	Ah_balance (mAh)	Voltage - fit (V)	Voltage -  interpolate (V)	dQ/dV (1/V)	Temperature (°C)	Temperature - diff (°C)	Current (C)	R_DC 0ms (mOhm)	R_DC 50ms (mOhm)	R_DC 50 ms PEC (mOhm)
0.0002	15.09	4.1650	4.1651	-0.1161	25.92	0.01	-0.750			
0.0007	43.40	4.1620	4.1619	-0.1687	25.92	0.01	-0.750			
0.0013	80.83	4.1590	4.1588	-0.2138	25.92	0.01	-0.750			
0.0020	126.38	4.1560	4.1561	-0.2568	25.92	0.01	-0.750			
0.0028	180.09	4.1530	4.1529	-0.2973	25.91	0.00	-0.750			
0.0038	241.12	4.1500	4.1501	-0.3379	25.91	0.00	-0.750			
0.0049	310.88	4.1470	4.1470	-0.3755	25.91	0.00	-0.750			
0.0061	387.26	4.1440	4.1440	-0.4108	25.91	-0.00	-0.750			
0.0073	469.97	4.1410	4.1410	-0.4454	25.91	-0.00	-0.750			
0.0087	558.60	4.1380	4.1380	-0.4792	25.90	-0.01	-0.750			
0.0102	654.04	4.1350	4.1350	-0.5073	25.90	-0.01	-0.750			
0.0118	754.49	4.1320	4.1320	-0.5401	25.90	-0.01	-0.750			
0.0135	862.52	4.1290	4.1290	-0.5619	25.90	-0.01	-0.750			
0.0152	974.43	4.1260	4.1258	-0.5799	25.89	-0.02	-0.750			
0.0170	1088.89	4.1230	4.1230	-0.5980	25.89	-0.02	-0.750			
0.0188	1204.77	4.1200	4.1200	-0.6110	25.89	-0.02	-0.750			
0.0207	1323.17	4.1170	4.1170	-0.6240	25.88	-0.03	-0.750			
0.0226	1444.50	4.1140	4.1140	-0.6366	25.87	-0.04	-0.750			
0.0245	1566.97	4.1110	4.1110	-0.6449	25.87	-0.04	-0.750			
0.0265	1694.16	4.1080	4.1080	-0.6577	25.86	-0.05	-0.750			
0.0285	1821.44	4.1050	4.1050	-0.6653	25.86	-0.05	-0.750			
0.0305	1950.19	4.1020	4.1021	-0.6713	25.85	-0.06	-0.750			
0.0325	2079.00	4.0990	4.0989	-0.6794	25.85	-0.06	-0.750			
0.0345	2207.67	4.0960	4.0961	-0.6919	25.85	-0.06	-0.750			
0.0366	2342.17	4.0930	4.0930	-0.6991	25.85	-0.06	-0.750			
0.0387	2479.82	4.0900	4.0898	-0.7054	25.85	-0.06	-0.750			
0.0409	2615.84	4.0870	4.0870	-0.7056	25.85	-0.06	-0.750			
0.0430	2751.44	4.0840	4.0844	-0.7064	25.85	-0.06	-0.750			
0.0451	2886.53	4.0810	4.0808	-0.7078	25.85	-0.06	-0.750			
0.0472	3018.66	4.0780	4.0781	-0.7120	25.84	-0.07	-0.750			
0.0493	3157.84	4.0750	4.0748	-0.7161	25.84	-0.07	-0.750			
0.0515	3297.89	4.0720	4.0720	-0.7265	25.84	-0.07	-0.750			
0.0537	3438.15	4.0690	4.0689	-0.7288	25.83	-0.08	-0.750			
0.0559	3579.31	4.0660	4.0662	-0.7314	25.83	-0.08	-0.750			
0.0581	3719.20	4.0630	4.0628	-0.7337	25.83	-0.08	-0.750			
0.0603	3857.84	4.0600	4.0600	-0.7327	25.84	-0.07	-0.750			
0.0625	3996.88	4.0570	4.0571	-0.7292	25.84	-0.07	-0.750			
0.0647	4140.88	4.0540	4.0540	-0.7365	25.85	-0.06	-0.750			
0.0669	4282.56	4.0510	4.0511	-0.7393	25.85	-0.06	-0.750			
0.0691	4425.12	4.0480	4.0479	-0.7386	25.85	-0.06	-0.750			
0.0713	4566.10	4.0450	4.0450	-0.7404	25.84	-0.07	-0.750			
0.0736	4708.03	4.0420	4.0421	-0.7402	25.84	-0.07	-0.750			
0.0758	4849.57	4.0390	4.0390	-0.7431	25.84	-0.07	-0.750			
0.0780	4993.65	4.0360	4.0359	-0.7471	25.83	-0.08	-0.750			
0.0803	5137.43	4.0330	4.0330	-0.7510	25.83	-0.08	-0.750			
0.0825	5281.21	4.0300	4.0300	-0.7547	25.83	-0.08	-0.750			
0.0848	5427.58	4.0270	4.0271	-0.7626	25.84	-0.07	-0.750			
0.0871	5574.53	4.0240	4.0239	-0.7621	25.84	-0.07	-0.750			
0.0894	5721.07	4.0210	4.0211	-0.7635	25.84	-0.07	-0.750			
0.0917	5867.88	4.0180	4.0180	-0.7627	25.85	-0.06	-0.750			
0.0940	6014.04	4.0150	4.0150	-0.7640	25.85	-0.06	-0.750			
0.0962	6159.44	4.0120	4.0120	-0.7680	25.85	-0.06	-0.750			
0.0985	6306.22	4.0090	4.0090	-0.7744	25.85	-0.06	-0.750			
0.1009	6456.21	4.0060	4.0060	-0.7772	25.85	-0.06	-0.750			
0.1032	6607.49	4.0030	4.0029	-0.7828	25.85	-0.06	-0.750			
0.1056	6759.23	4.0000	4.0003	-0.7836	25.85	-0.06	-0.750			
0.1080	6910.67	3.9970	3.9970	-0.7800	25.85	-0.06	-0.750			
0.1103	7059.79	3.9940	3.9940	-0.7822	25.85	-0.06	-0.750			
0.1127	7209.71	3.9910	3.9910	-0.7790	25.86	-0.05	-0.750			
0.1150	7358.10	3.9880	3.9880	-0.7743	25.86	-0.05	-0.750			
0.1173	7506.67	3.9850	3.9851	-0.7759	25.86	-0.05	-0.750			
0.1196	7655.16	3.9820	3.9820	-0.7804	25.86	-0.05	-0.750			
0.1219	7804.53	3.9790	3.9788	-0.7873	25.86	-0.05	-0.750			
0.1243	7955.56	3.9760	3.9760	-0.7920	25.87	-0.04	-0.750			
0.1267	8107.63	3.9730	3.9731	-0.7943	25.87	-0.04	-0.750			
0.1291	8264.82	3.9700	3.9699	-0.7990	25.87	-0.04	-0.750			
0.1315	8418.61	3.9670	3.9670	-0.7997	25.87	-0.04	-0.750			
0.1339	8569.07	3.9640	3.9641	-0.8033	25.88	-0.03	-0.750			
0.1363	8724.67	3.9610	3.9609	-0.7982	25.88	-0.03	-0.750			
0.1387	8877.04	3.9580	3.9579	-0.8002	25.89	-0.02	-0.750			
0.1411	9031.91	3.9550	3.9551	-0.8008	25.90	-0.01	-0.750			
0.1435	9186.93	3.9520	3.9520	-0.8025	25.90	-0.01	-0.750			
0.1459	9340.10	3.9490	3.9489	-0.8047	25.90	-0.01	-0.750			
0.1483	9492.76	3.9460	3.9460	-0.8093	25.90	-0.01	-0.750			
0.1508	9649.57	3.9430	3.9430	-0.8116	25.91	-0.00	-0.750			
0.1533	9808.46	3.9400	3.9399	-0.8207	25.91	-0.00	-0.750			
0.1557	9966.02	3.9370	3.9372	-0.8157	25.91	0.00	-0.750			
0.1582	10124.54	3.9340	3.9339	-0.8136	25.91	0.00	-0.750			
0.1606	10280.99	3.9310	3.9310	-0.8098	25.91	0.00	-0.750			
0.1630	10432.99	3.9280	3.9280	-0.8068	25.92	0.01	-0.750			
0.1654	10587.74	3.9250	3.9249	-0.8133	25.92	0.01	-0.750			
0.1679	10743.49	3.9220	3.9223	-0.8158	25.92	0.01	-0.750			
0.1703	10899.45	3.9190	3.9189	-0.8187	25.92	0.01	-0.750			
0.1728	11058.91	3.9160	3.9160	-0.8287	25.92	0.01	-0.750			
0.1753	11220.08	3.9130	3.9130	-0.8316	25.93	0.02	-0.750			
0.1778	11382.22	3.9100	3.9099	-0.8417	25.93	0.02	-0.750			
0.1803	11542.33	3.9070	3.9074	-0.8336	25.93	0.02	-0.750			
0.1828	11702.18	3.9040	3.9039	-0.8304	25.93	0.02	-0.750			
0.1853	11860.67	3.9010	3.9010	-0.8354	25.94	0.03	-0.750			
0.1878	12019.54	3.8980	3.8981	-0.8357	25.94	0.03	-0.750			
0.1903	12181.88	3.8950	3.8949	-0.8455	25.95	0.04	-0.750			
0.1929	12343.91	3.8920	3.8921	-0.8440	25.95	0.04	-0.750			
0.1954	12506.58	3.8890	3.8891	-0.8463	25.95	0.04	-0.750			
0.1980	12671.30	3.8860	3.8860	-0.8551	25.96	0.05	-0.750			
0.2006	12836.95	3.8830	3.8829	-0.8495	25.96	0.05	-0.750			
0.2031	12998.87	3.8800	3.8800	-0.8466	25.97	0.06	-0.750			
0.2056	13160.80	3.8770	3.8773	-0.8485	25.97	0.06	-0.750			
0.2082	13323.55	3.8740	3.8738	-0.8470	25.97	0.06	-0.750			
0.2107	13486.79	3.8710	3.8710	-0.8553	25.98	0.07	-0.750			
0.2133	13651.44	3.8680	3.8680	-0.8542	25.98	0.07	-0.750			
0.2159	13818.06	3.8650	3.8649	-0.8597	25.99	0.08	-0.750			
0.2185	13982.94	3.8620	3.8622	-0.8598	25.99	0.08	-0.750			
0.2210	14146.04	3.8590	3.8590	-0.8582	26.00	0.09	-0.750			
0.2236	14310.10	3.8560	3.8559	-0.8598	26.00	0.09	-0.750			
0.2261	14472.88	3.8530	3.8530	-0.8549	26.00	0.09	-0.750			
0.2288	14641.18	3.8500	3.8500	-0.8645	26.01	0.10	-0.750			
0.2314	14808.95	3.8470	3.8470	-0.8685	26.01	0.10	-0.750			
0.2340	14974.68	3.8440	3.8440	-0.8698	26.02	0.11	-0.750			
0.2366	15141.37	3.8410	3.8410	-0.8649	26.02	0.11	-0.750			
0.2392	15307.84	3.8380	3.8380	-0.8652	26.02	0.11	-0.750			
0.2418	15474.11	3.8350	3.8350	-0.8626	26.03	0.12	-0.750			
0.2444	15641.21	3.8320	3.8320	-0.8611	26.03	0.12	-0.750			
0.2469	15804.63	3.8290	3.8290	-0.8635	26.04	0.13	-0.750			
0.2495	15969.58	3.8260	3.8260	-0.8600	26.04	0.13	-0.750			
0.2521	16134.10	3.8230	3.8230	-0.8603	26.04	0.13	-0.750			
0.2547	16302.47	3.8200	3.8199	-0.8617	26.05	0.14	-0.750			
0.2573	16465.23	3.8170	3.8171	-0.8656	26.05	0.14	-0.750			
0.2599	16632.17	3.8140	3.8140	-0.8678	26.06	0.15	-0.750			
0.2625	16798.88	3.8110	3.8110	-0.8667	26.06	0.15	-0.750			
0.2651	16963.96	3.8080	3.8080	-0.8642	26.07	0.16	-0.750			
0.2677	17133.74	3.8050	3.8053	-0.8685	26.07	0.16	-0.750			
0.2703	17300.08	3.8020	3.8019	-0.8657	26.07	0.16	-0.750			
0.2729	17467.76	3.7990	3.7990	-0.8694	26.08	0.17	-0.750			
0.2755	17632.86	3.7960	3.7960	-0.8601	26.08	0.17	-0.750			
0.2781	17798.54	3.7930	3.7929	-0.8605	26.09	0.18	-0.750			
0.2807	17963.65	3.7900	3.7902	-0.8567	26.09	0.18	-0.750			
0.2832	18127.08	3.7870	3.7869	-0.8529	26.09	0.18	-0.750			
0.2858	18291.52	3.7840	3.7840	-0.8551	26.10	0.19	-0.750			
0.2884	18454.94	3.7810	3.7810	-0.8507	26.10	0.19	-0.750			
0.2909	18619.96	3.7780	3.7779	-0.8528	26.11	0.20	-0.750			
0.2935	18782.64	3.7750	3.7752	-0.8556	26.11	0.20	-0.750			
0.2960	18946.05	3.7720	3.7719	-0.8549	26.11	0.20	-0.750			
0.2986	19110.54	3.7690	3.7689	-0.8486	26.11	0.20	-0.750			
0.3011	19270.62	3.7660	3.7661	-0.8451	26.11	0.20	-0.750			
0.3037	19435.77	3.7630	3.7631	-0.8488	26.11	0.20	-0.750			
0.3062	19599.19	3.7600	3.7598	-0.8497	26.11	0.20	-0.750			
0.3088	19761.11	3.7570	3.7570	-0.8440	26.12	0.21	-0.750			
0.3113	19922.94	3.7540	3.7541	-0.8476	26.12	0.21	-0.750			
0.3139	20088.04	3.7510	3.7509	-0.8507	26.12	0.21	-0.750			
0.3164	20251.38	3.7480	3.7479	-0.8514	26.13	0.22	-0.750			
0.3190	20412.95	3.7450	3.7450	-0.8423	26.13	0.22	-0.750			
0.3215	20574.67	3.7420	3.7420	-0.8515	26.14	0.23	-0.750			
0.3240	20737.98	3.7390	3.7390	-0.8495	26.14	0.23	-0.750			
0.3265	20898.60	3.7360	3.7360	-0.8495	26.14	0.23	-0.750			
0.3291	21064.09	3.7330	3.7330	-0.8601	26.15	0.24	-0.750			
0.3317	21229.20	3.7300	3.7300	-0.8679	26.15	0.24	-0.750			
0.3343	21395.75	3.7270	3.7270	-0.8797	26.16	0.25	-0.750			
0.3370	21566.29	3.7240	3.7238	-0.8886	26.16	0.25	-0.750			
0.3396	21736.11	3.7210	3.7210	-0.8940	26.16	0.25	-0.750			
0.3424	21910.90	3.7180	3.7181	-0.9102	26.17	0.26	-0.750			
0.3451	22083.74	3.7150	3.7150	-0.9349	26.17	0.26	-0.750			
0.3479	22267.55	3.7120	3.7118	-0.9468	26.17	0.26	-0.750			
0.3508	22449.64	3.7090	3.7089	-0.9595	26.17	0.26	-0.750			
0.3537	22633.72	3.7060	3.7060	-0.9911	26.17	0.26	-0.750			
0.3567	22827.94	3.7030	3.7031	-1.0237	26.17	0.26	-0.750			
0.3598	23027.60	3.7000	3.6997	-1.0413	26.17	0.26	-0.750			
0.3629	23228.51	3.6970	3.6971	-1.0590	26.17	0.26	-0.750			
0.3662	23433.94	3.6940	3.6941	-1.0700	26.17	0.26	-0.750			
0.3694	23644.80	3.6910	3.6909	-1.0954	26.17	0.26	-0.750			
0.3728	23856.08	3.6880	3.6880	-1.1058	26.16	0.25	-0.750			
0.3760	24065.52	3.6850	3.6850	-1.1196	26.16	0.25	-0.750			
0.3794	24283.06	3.6820	3.6820	-1.1370	26.15	0.24	-0.750			
0.3829	24505.34	3.6790	3.6790	-1.1688	26.15	0.24	-0.750			
0.3864	24731.87	3.6760	3.6760	-1.1897	26.15	0.24	-0.750			
0.3901	24963.49	3.6730	3.6730	-1.2106	26.15	0.24	-0.750			
0.3937	25196.66	3.6700	3.6702	-1.2358	26.15	0.24	-0.750			
0.3974	25435.83	3.6670	3.6670	-1.2632	26.14	0.23	-0.750			
0.4012	25679.76	3.6640	3.6639	-1.2887	26.14	0.23	-0.750			
0.4051	25927.04	3.6610	3.6611	-1.3178	26.13	0.22	-0.750			
0.4091	26185.45	3.6580	3.6580	-1.3633	26.12	0.21	-0.750			
0.4133	26452.05	3.6550	3.6549	-1.3979	26.12	0.21	-0.750			
0.4176	26725.89	3.6520	3.6522	-1.4322	26.11	0.20	-0.750			
0.4219	27001.95	3.6490	3.6489	-1.4661	26.10	0.19	-0.750			
0.4264	27287.52	3.6460	3.6462	-1.4990	26.10	0.19	-0.750			
0.4309	27578.90	3.6430	3.6431	-1.5312	26.09	0.18	-0.750			
0.4356	27877.12	3.6400	3.6397	-1.5609	26.08	0.17	-0.750			
0.4403	28178.26	3.6370	3.6371	-1.5949	26.07	0.16	-0.750			
0.4451	28484.17	3.6340	3.6340	-1.6364	26.07	0.16	-0.750			
0.4501	28806.73	3.6310	3.6309	-1.6687	26.06	0.15	-0.750			
0.4551	29128.16	3.6280	3.6282	-1.6812	26.05	0.14	-0.750			
0.4602	29452.50	3.6250	3.6250	-1.7283	26.04	0.13	-0.750	0.394	0.493	
0.4655	29789.16	3.6220	3.6219	-1.7681	26.03	0.12	-0.750			
0.4708	30134.15	3.6190	3.6190	-1.7912	26.03	0.12	-0.750			
0.4762	30478.71	3.6160	3.6161	-1.8355	26.02	0.11	-0.750			
0.4817	30830.93	3.6130	3.6131	-1.8603	26.01	0.10	-0.750			
0.4874	31195.24	3.6100	3.6100	-1.9001	26.00	0.09	-0.750			
0.4932	31563.59	3.6070	3.6070	-1.9434	25.99	0.08	-0.750			
0.4990	31938.30	3.6040	3.6039	-1.9615	25.98	0.07	-0.750			
0.5051	32324.35	3.6010	3.6010	-2.0043	25.98	0.07	-0.750			
0.5111	32712.66	3.5980	3.5980	-2.0396	25.98	0.07	-0.750			
0.5172	33100.42	3.5950	3.5947	-2.0711	25.97	0.06	-0.750			
0.5235	33503.43	3.5920	3.5921	-2.1058	25.97	0.06	-0.750			
0.5299	33912.67	3.5890	3.5888	-2.1450	25.96	0.05	-0.750			
0.5364	34328.44	3.5860	3.5861	-2.1889	25.96	0.05	-0.750			
0.5430	34753.91	3.5830	3.5830	-2.2216	25.95	0.04	-0.750			
0.5498	35189.96	3.5800	3.5800	-2.2503	25.94	0.03	-0.750			
0.5565	35618.62	3.5770	3.5770	-2.2677	25.93	0.02	-0.750			
0.5635	36060.81	3.5740	3.5740	-2.2926	25.93	0.02	-0.750			
0.5704	36504.26	3.5710	3.5710	-2.3121	25.93	0.02	-0.750			
0.5773	36949.30	3.5680	3.5680	-2.3121	25.93	0.02	-0.750			
0.5843	37392.01	3.5650	3.5651	-2.3346	25.93	0.02	-0.750			
0.5913	37843.07	3.5620	3.5619	-2.3433	25.93	0.02	-0.750			
0.5984	38294.83	3.5590	3.5589	-2.3535	25.93	0.02	-0.750			
0.6054	38747.07	3.5560	3.5561	-2.3542	25.93	0.02	-0.750			
0.6126	39205.20	3.5530	3.5529	-2.3525	25.93	0.02	-0.750			
0.6197	39658.54	3.5500	3.5500	-2.3488	25.93	0.02	-0.750			
0.6267	40108.84	3.5470	3.5472	-2.3241	25.93	0.02	-0.750			
0.6336	40552.36	3.5440	3.5439	-2.3008	25.93	0.02	-0.750			
0.6405	40993.07	3.5410	3.5410	-2.2811	25.94	0.03	-0.750			
0.6473	41429.69	3.5380	3.5380	-2.2410	25.94	0.03	-0.750			
0.6542	41865.65	3.5350	3.5350	-2.2075	25.94	0.03	-0.750			
0.6606	42280.40	3.5320	3.5320	-2.1625	25.95	0.04	-0.750			
0.6671	42691.39	3.5290	3.5288	-2.1122	25.96	0.05	-0.750			
0.6734	43097.71	3.5260	3.5260	-2.0567	25.96	0.05	-0.750			
0.6795	43485.47	3.5230	3.5230	-2.0029	25.97	0.06	-0.750			
0.6854	43862.97	3.5200	3.5201	-1.9374	25.98	0.07	-0.750			
0.6911	44232.29	3.5170	3.5170	-1.8826	25.99	0.08	-0.750			
0.6967	44589.86	3.5140	3.5138	-1.8224	26.00	0.09	-0.750			
0.7020	44930.87	3.5110	3.5108	-1.7533	26.02	0.11	-0.750			
0.7072	45263.75	3.5080	3.5081	-1.6953	26.03	0.12	-0.750			
0.7123	45586.31	3.5050	3.5049	-1.6405	26.04	0.13	-0.750			
0.7171	45894.58	3.5020	3.5019	-1.5748	26.05	0.14	-0.750			
0.7217	46190.16	3.4990	3.4989	-1.5119	26.07	0.16	-0.750			
0.7262	46473.61	3.4960	3.4962	-1.4603	26.09	0.18	-0.750			
0.7305	46750.80	3.4930	3.4931	-1.4200	26.11	0.20	-0.750			
0.7347	47019.22	3.4900	3.4900	-1.3754	26.12	0.21	-0.750			
0.7387	47278.22	3.4870	3.4869	-1.3323	26.14	0.23	-0.750			
0.7426	47527.92	3.4840	3.4844	-1.2957	26.15	0.24	-0.750			
0.7466	47779.63	3.4810	3.4809	-1.2534	26.17	0.26	-0.750			
0.7502	48014.38	3.4780	3.4779	-1.2034	26.18	0.27	-0.750			
0.7537	48239.24	3.4750	3.4750	-1.1571	26.19	0.28	-0.750			
0.7572	48458.15	3.4720	3.4718	-1.1265	26.21	0.30	-0.750			
0.7604	48668.58	3.4690	3.4689	-1.0809	26.22	0.31	-0.750			
0.7636	48870.77	3.4660	3.4661	-1.0445	26.23	0.32	-0.750			
0.7667	49067.38	3.4630	3.4629	-1.0118	26.25	0.34	-0.750			
0.7697	49261.91	3.4600	3.4600	-0.9890	26.26	0.35	-0.750			
0.7726	49445.42	3.4570	3.4570	-0.9564	26.27	0.36	-0.750			
0.7754	49624.72	3.4540	3.4540	-0.9373	26.28	0.37	-0.750			
0.7781	49800.05	3.4510	3.4510	-0.9221	26.29	0.38	-0.750			
0.7808	49974.14	3.4480	3.4480	-0.9224	26.30	0.39	-0.750			
0.7836	50148.43	3.4450	3.4450	-0.9328	26.31	0.40	-0.750			
0.7863	50326.33	3.4420	3.4420	-0.9500	26.32	0.41	-0.750			
0.7892	50509.68	3.4390	3.4390	-0.9787	26.34	0.43	-0.750			
0.7922	50699.11	3.4360	3.4361	-1.0118	26.35	0.44	-0.750			
0.7953	50896.81	3.4330	3.4329	-1.0596	26.36	0.45	-0.750			
0.7986	51107.79	3.4300	3.4299	-1.0895	26.37	0.46	-0.750			
0.8019	51321.33	3.4270	3.4269	-1.1170	26.38	0.47	-0.750			
0.8053	51540.25	3.4240	3.4244	-1.1311	26.39	0.48	-0.750			
0.8089	51767.34	3.4210	3.4210	-1.1372	26.40	0.49	-0.750			
0.8123	51987.26	3.4180	3.4179	-1.1239	26.41	0.50	-0.750			
0.8157	52202.71	3.4150	3.4151	-1.0955	26.41	0.50	-0.750			
0.8189	52411.86	3.4120	3.4120	-1.0751	26.42	0.51	-0.750			
0.8221	52615.73	3.4090	3.4090	-1.0395	26.43	0.52	-0.750			
0.8252	52811.58	3.4060	3.4060	-0.9983	26.44	0.53	-0.750			
0.8281	53000.07	3.4030	3.4030	-0.9643	26.44	0.53	-0.750			
0.8310	53181.85	3.4000	3.4001	-0.9298	26.45	0.54	-0.750			
0.8337	53356.64	3.3970	3.3971	-0.8928	26.46	0.55	-0.750			
0.8363	53525.52	3.3940	3.3939	-0.8624	26.46	0.55	-0.750			
0.8389	53686.41	3.3910	3.3910	-0.8256	26.47	0.56	-0.750			
0.8413	53842.94	3.3880	3.3880	-0.7970	26.48	0.57	-0.750			
0.8436	53992.45	3.3850	3.3850	-0.7640	26.48	0.57	-0.750			
0.8459	54135.60	3.3820	3.3820	-0.7323	26.49	0.58	-0.750			
0.8480	54272.65	3.3790	3.3790	-0.7040	26.50	0.59	-0.750			
0.8500	54402.51	3.3760	3.3761	-0.6742	26.50	0.59	-0.750			
0.8521	54531.94	3.3730	3.3729	-0.6524	26.51	0.60	-0.750			
0.8540	54654.18	3.3700	3.3700	-0.6271	26.52	0.61	-0.750			
0.8558	54772.35	3.3670	3.3670	-0.6013	26.52	0.61	-0.750			
0.8576	54885.74	3.3640	3.3640	-0.5764	26.53	0.62	-0.750			
0.8593	54993.27	3.3610	3.3610	-0.5554	26.54	0.63	-0.750			
0.8609	55096.62	3.3580	3.3580	-0.5307	26.55	0.64	-0.750			
0.8624	55196.71	3.3550	3.3549	-0.5083	26.55	0.64	-0.750			
0.8639	55292.23	3.3520	3.3521	-0.4878	26.56	0.65	-0.750			
0.8654	55383.32	3.3490	3.3491	-0.4680	26.57	0.66	-0.750			
0.8667	55471.76	3.3460	3.3459	-0.4484	26.58	0.67	-0.750			
0.8681	55555.52	3.3430	3.3430	-0.4284	26.58	0.67	-0.750			
0.8693	55635.07	3.3400	3.3400	-0.4098	26.59	0.68	-0.750			
0.8705	55712.25	3.3370	3.3371	-0.3960	26.59	0.68	-0.750			
0.8717	55786.49	3.3340	3.3339	-0.3817	26.60	0.69	-0.750			
0.8728	55857.43	3.3310	3.3310	-0.3665	26.60	0.69	-0.750			
0.8739	55926.67	3.3280	3.3281	-0.3533	26.61	0.70	-0.750			
0.8749	55993.85	3.3250	3.3250	-0.3399	26.61	0.70	-0.750			
0.8759	56057.65	3.3220	3.3219	-0.3259	26.62	0.71	-0.750			
0.8768	56118.01	3.3190	3.3191	-0.3130	26.62	0.71	-0.750			
0.8778	56176.45	3.3160	3.3158	-0.3016	26.63	0.72	-0.750			
0.8786	56232.65	3.3130	3.3130	-0.2915	26.63	0.72	-0.750			
0.8795	56288.07	3.3100	3.3099	-0.2820	26.64	0.73	-0.750			
0.8803	56341.57	3.3070	3.3072	-0.2734	26.64	0.73	-0.750			
0.8811	56393.48	3.3040	3.3041	-0.2644	26.64	0.73	-0.750			
0.8819	56442.67	3.3010	3.3010	-0.2556	26.65	0.74	-0.750			
0.8827	56490.76	3.2980	3.2980	-0.2474	26.65	0.74	-0.750			
0.8834	56536.72	3.2950	3.2950	-0.2387	26.66	0.75	-0.750			
0.8841	56581.47	3.2920	3.2920	-0.2324	26.66	0.75	-0.750			
0.8848	56625.71	3.2890	3.2891	-0.2274	26.67	0.76	-0.750			
0.8855	56668.96	3.2860	3.2859	-0.2208	26.67	0.76	-0.750			
0.8861	56710.78	3.2830	3.2830	-0.2147	26.67	0.76	-0.750			
0.8867	56751.38	3.2800	3.2800	-0.2099	26.68	0.77	-0.750			
0.8874	56790.46	3.2770	3.2770	-0.2057	26.68	0.77	-0.750			
0.8880	56829.71	3.2740	3.2740	-0.2015	26.68	0.77	-0.750			
0.8886	56868.03	3.2710	3.2709	-0.1977	26.69	0.78	-0.750			
0.8891	56905.40	3.2680	3.2680	-0.1928	26.69	0.78	-0.750			
0.8897	56942.28	3.2650	3.2652	-0.1889	26.69	0.78	-0.750			
0.8903	56978.50	3.2620	3.2620	-0.1858	26.70	0.79	-0.750			
0.8908	57013.67	3.2590	3.2590	-0.1806	26.70	0.79	-0.750			
0.8914	57047.49	3.2560	3.2560	-0.1763	26.70	0.79	-0.750			
0.8919	57080.29	3.2530	3.2530	-0.1725	26.71	0.80	-0.750			
0.8924	57113.44	3.2500	3.2500	-0.1698	26.71	0.80	-0.750			
0.8929	57145.74	3.2470	3.2469	-0.1667	26.71	0.80	-0.750			
0.8934	57177.54	3.2440	3.2439	-0.1637	26.72	0.81	-0.750			
0.8939	57208.70	3.2410	3.2411	-0.1607	26.72	0.81	-0.750			
0.8944	57238.86	3.2380	3.2379	-0.1583	26.72	0.81	-0.750			
0.8948	57269.04	3.2350	3.2350	-0.1561	26.73	0.82	-0.750			
0.8953	57298.63	3.2320	3.2320	-0.1537	26.73	0.82	-0.750			
0.8957	57327.72	3.2290	3.2289	-0.1514	26.74	0.83	-0.750			
0.8962	57356.80	3.2260	3.2260	-0.1503	26.74	0.83	-0.750			
0.8966	57385.49	3.2230	3.2231	-0.1486	26.75	0.84	-0.750			
0.8971	57413.83	3.2200	3.2200	-0.1472	26.75	0.84	-0.750			
0.8975	57442.00	3.2170	3.2169	-0.1455	26.75	0.84	-0.750			
0.8980	57469.75	3.2140	3.2140	-0.1429	26.76	0.85	-0.750			
0.8984	57497.03	3.2110	3.2110	-0.1412	26.76	0.85	-0.750			
0.8988	57524.13	3.2080	3.2081	-0.1401	26.76	0.85	-0.750			
0.8992	57550.92	3.2050	3.2050	-0.1378	26.77	0.86	-0.750			
0.8996	57577.06	3.2020	3.2019	-0.1357	26.77	0.86	-0.750			
0.9000	57602.94	3.1990	3.1990	-0.1338	26.78	0.87	-0.750			
0.9004	57628.20	3.1960	3.1961	-0.1326	26.78	0.87	-0.750			
0.9008	57653.54	3.1930	3.1930	-0.1312	26.78	0.87	-0.750			
0.9012	57678.68	3.1900	3.1900	-0.1301	26.79	0.88	-0.750			
0.9016	57703.50	3.1870	3.1869	-0.1289	26.79	0.88	-0.750			
0.9020	57727.88	3.1840	3.1841	-0.1275	26.79	0.88	-0.750			
0.9024	57752.43	3.1810	3.1810	-0.1273	26.80	0.89	-0.750			
0.9028	57776.70	3.1780	3.1780	-0.1262	26.80	0.89	-0.750			
0.9031	57801.02	3.1750	3.1751	-0.1246	26.80	0.89	-0.750			
0.9035	57824.78	3.1720	3.1719	-0.1232	26.81	0.90	-0.750			
0.9039	57848.26	3.1690	3.1692	-0.1225	26.81	0.90	-0.750			
0.9042	57871.84	3.1660	3.1660	-0.1215	26.81	0.90	-0.750			
0.9046	57895.02	3.1630	3.1629	-0.1202	26.82	0.91	-0.750			
0.9050	57917.98	3.1600	3.1599	-0.1189	26.82	0.91	-0.750			
0.9053	57940.46	3.1570	3.1571	-0.1177	26.82	0.91	-0.750			
0.9057	57962.98	3.1540	3.1541	-0.1170	26.83	0.92	-0.750			
0.9060	57985.63	3.1510	3.1509	-0.1163	26.83	0.92	-0.750			
0.9064	58007.84	3.1480	3.1479	-0.1150	26.84	0.93	-0.750			
0.9067	58029.57	3.1450	3.1450	-0.1139	26.84	0.93	-0.750			
0.9071	58051.37	3.1420	3.1420	-0.1132	26.85	0.94	-0.750			
0.9074	58073.11	3.1390	3.1390	-0.1126	26.85	0.94	-0.750			
0.9077	58094.64	3.1360	3.1360	-0.1117	26.86	0.95	-0.750			
0.9081	58116.04	3.1330	3.1330	-0.1105	26.86	0.95	-0.750			
0.9084	58137.16	3.1300	3.1300	-0.1096	26.87	0.96	-0.750			
0.9087	58158.06	3.1270	3.1271	-0.1091	26.87	0.96	-0.750			
0.9090	58178.93	3.1240	3.1240	-0.1083	26.88	0.97	-0.750			
0.9094	58199.50	3.1210	3.1210	-0.1075	26.88	0.97	-0.750			
0.9097	58220.11	3.1180	3.1179	-0.1071	26.88	0.97	-0.750			
0.9100	58240.71	3.1150	3.1149	-0.1062	26.89	0.98	-0.750			
0.9103	58261.04	3.1120	3.1121	-0.1056	26.89	0.98	-0.750			
0.9106	58281.26	3.1090	3.1091	-0.1055	26.90	0.99	-0.750			
0.9110	58301.45	3.1060	3.1060	-0.1049	26.90	0.99	-0.750			
0.9113	58321.43	3.1030	3.1029	-0.1040	26.91	1.00	-0.750			
0.9116	58341.36	3.1000	3.0999	-0.1036	26.91	1.00	-0.750			
0.9119	58361.16	3.0970	3.0970	-0.1031	26.92	1.01	-0.750			
0.9122	58380.92	3.0940	3.0941	-0.1027	26.92	1.01	-0.750			
0.9125	58400.97	3.0910	3.0910	-0.1021	26.92	1.01	-0.750			
0.9128	58420.46	3.0880	3.0879	-0.1010	26.93	1.02	-0.750			
0.9131	58439.53	3.0850	3.0850	-0.1001	26.93	1.02	-0.750			
0.9134	58458.69	3.0820	3.0821	-0.0995	26.94	1.03	-0.750			
0.9137	58477.75	3.0790	3.0790	-0.0987	26.94	1.03	-0.750			
0.9140	58496.65	3.0760	3.0759	-0.0980	26.94	1.03	-0.750			
0.9143	58515.32	3.0730	3.0730	-0.0975	26.95	1.04	-0.750			
0.9146	58533.80	3.0700	3.0701	-0.0968	26.95	1.04	-0.750			
0.9149	58552.40	3.0670	3.0669	-0.0964	26.95	1.04	-0.750			
0.9152	58571.02	3.0640	3.0640	-0.0961	26.96	1.05	-0.750			
0.9155	58589.35	3.0610	3.0610	-0.0957	26.96	1.05	-0.750			
0.9157	58607.52	3.0580	3.0580	-0.0951	26.96	1.05	-0.750			
0.9160	58625.83	3.0550	3.0550	-0.0946	26.97	1.06	-0.750			
0.9163	58644.08	3.0520	3.0520	-0.0943	26.97	1.06	-0.750			
0.9166	58662.07	3.0490	3.0490	-0.0939	26.98	1.07	-0.750			
0.9169	58679.99	3.0460	3.0460	-0.0933	26.98	1.07	-0.750			
0.9172	58697.97	3.0430	3.0430	-0.0924	26.98	1.07	-0.750			
0.9174	58715.77	3.0400	3.0399	-0.0918	26.99	1.08	-0.750			
0.9177	58733.23	3.0370	3.0371	-0.0915	26.99	1.08	-0.750			
0.9180	58750.65	3.0340	3.0341	-0.0908	26.99	1.08	-0.750			
0.9182	58767.96	3.0310	3.0309	-0.0907	27.00	1.09	-0.750			
0.9185	58785.26	3.0280	3.0279	-0.0904	27.00	1.09	-0.750			
0.9188	58802.69	3.0250	3.0250	-0.0900	27.00	1.09	-0.750			
0.9191	58819.83	3.0220	3.0220	-0.0896	27.01	1.10	-0.750			
0.9193	58837.09	3.0190	3.0191	-0.0891	27.01	1.10	-0.750			
0.9196	58854.44	3.0160	3.0159	-0.0890	27.01	1.10	-0.750			
0.9199	58871.45	3.0130	3.0131	-0.0883	27.02	1.11	-0.750			
0.9201	58888.34	3.0100	3.0099	-0.0875	27.02	1.11	-0.750			
0.9204	58905.07	3.0070	3.0070	-0.0868	27.02	1.11	-0.750			
0.9206	58921.57	3.0040	3.0040	-0.0864	27.03	1.12	-0.750			
0.9209	58938.13	3.0010	3.0010	-0.0860	27.03	1.12	-0.751			
