Ah_balance (normalized)	Ah_balance (mAh)	Voltage - fit (V)	Voltage -  interpolate (V)	dQ/dV (1/V)	Temperature (°C)	Temperature - diff (°C)	Current (C)	R_DC 0ms (mOhm)	R_DC 50ms (mOhm)	R_DC 50 ms PEC (mOhm)
0.0004	22.44	4.1610	4.1610	-0.1311	25.87	0.00	-0.750			
0.0008	50.90	4.1580	4.1579	-0.1683	25.87	0.00	-0.750			
0.0014	87.52	4.1550	4.1551	-0.2058	25.87	-0.00	-0.750			
0.0020	130.29	4.1520	4.1520	-0.2430	25.87	-0.00	-0.750			
0.0028	180.97	4.1490	4.1490	-0.2786	25.87	-0.00	-0.750			
0.0037	238.36	4.1460	4.1459	-0.3146	25.86	-0.01	-0.750			
0.0047	302.17	4.1430	4.1430	-0.3489	25.86	-0.01	-0.750			
0.0058	373.06	4.1400	4.1401	-0.3825	25.86	-0.01	-0.750			
0.0070	450.04	4.1370	4.1369	-0.4142	25.86	-0.01	-0.750			
0.0083	533.16	4.1340	4.1340	-0.4446	25.85	-0.02	-0.750			
0.0097	622.10	4.1310	4.1310	-0.4692	25.85	-0.02	-0.750			
0.0112	715.67	4.1280	4.1280	-0.4916	25.85	-0.02	-0.750			
0.0127	813.41	4.1250	4.1250	-0.5132	25.84	-0.03	-0.750			
0.0143	913.91	4.1220	4.1220	-0.5317	25.84	-0.03	-0.750			
0.0159	1018.34	4.1190	4.1190	-0.5488	25.83	-0.04	-0.750			
0.0176	1125.33	4.1160	4.1160	-0.5635	25.83	-0.04	-0.750			
0.0193	1235.11	4.1130	4.1130	-0.5782	25.83	-0.04	-0.750			
0.0211	1348.40	4.1100	4.1101	-0.5910	25.82	-0.05	-0.750			
0.0229	1463.70	4.1070	4.1069	-0.6033	25.82	-0.05	-0.750			
0.0247	1580.27	4.1040	4.1040	-0.6106	25.81	-0.06	-0.750			
0.0265	1698.74	4.1010	4.1011	-0.6186	25.81	-0.06	-0.750			
0.0284	1818.39	4.0980	4.0980	-0.6259	25.81	-0.06	-0.750			
0.0303	1939.31	4.0950	4.0950	-0.6355	25.81	-0.06	-0.750			
0.0322	2062.09	4.0920	4.0920	-0.6446	25.81	-0.06	-0.750			
0.0342	2187.30	4.0890	4.0889	-0.6520	25.81	-0.06	-0.750			
0.0361	2313.49	4.0860	4.0860	-0.6558	25.81	-0.06	-0.750			
0.0381	2440.79	4.0830	4.0831	-0.6621	25.81	-0.06	-0.750			
0.0401	2567.98	4.0800	4.0800	-0.6671	25.81	-0.06	-0.750			
0.0421	2696.26	4.0770	4.0770	-0.6707	25.80	-0.07	-0.750			
0.0441	2824.82	4.0740	4.0740	-0.6732	25.80	-0.07	-0.750			
0.0462	2954.58	4.0710	4.0710	-0.6733	25.80	-0.07	-0.750			
0.0482	3085.55	4.0680	4.0680	-0.6794	25.79	-0.08	-0.750			
0.0502	3215.94	4.0650	4.0650	-0.6815	25.79	-0.08	-0.750			
0.0523	3346.22	4.0620	4.0620	-0.6821	25.79	-0.08	-0.750			
0.0543	3476.65	4.0590	4.0590	-0.6871	25.79	-0.08	-0.750			
0.0564	3608.16	4.0560	4.0560	-0.6965	25.79	-0.08	-0.750			
0.0585	3744.92	4.0530	4.0529	-0.6996	25.79	-0.08	-0.750			
0.0606	3880.68	4.0500	4.0500	-0.7005	25.79	-0.08	-0.750			
0.0627	4014.99	4.0470	4.0471	-0.7044	25.79	-0.08	-0.750			
0.0649	4150.58	4.0440	4.0441	-0.7080	25.79	-0.08	-0.750			
0.0670	4286.57	4.0410	4.0408	-0.7086	25.79	-0.08	-0.750			
0.0691	4422.30	4.0380	4.0380	-0.7117	25.79	-0.08	-0.750			
0.0712	4559.27	4.0350	4.0350	-0.7111	25.80	-0.07	-0.750			
0.0734	4697.48	4.0320	4.0319	-0.7164	25.80	-0.07	-0.750			
0.0756	4836.00	4.0290	4.0291	-0.7177	25.80	-0.07	-0.750			
0.0777	4973.04	4.0260	4.0259	-0.7161	25.80	-0.07	-0.750			
0.0799	5110.56	4.0230	4.0230	-0.7170	25.80	-0.07	-0.750			
0.0820	5248.18	4.0200	4.0200	-0.7212	25.80	-0.07	-0.750			
0.0841	5385.55	4.0170	4.0171	-0.7218	25.81	-0.06	-0.750			
0.0864	5527.13	4.0140	4.0139	-0.7250	25.81	-0.06	-0.750			
0.0885	5665.49	4.0110	4.0111	-0.7232	25.81	-0.06	-0.750			
0.0907	5804.74	4.0080	4.0080	-0.7254	25.81	-0.06	-0.750			
0.0929	5944.10	4.0050	4.0050	-0.7263	25.81	-0.06	-0.750			
0.0950	6082.91	4.0020	4.0020	-0.7307	25.81	-0.06	-0.750			
0.0972	6223.61	3.9990	3.9991	-0.7332	25.81	-0.06	-0.750			
0.0995	6366.06	3.9960	3.9959	-0.7358	25.81	-0.06	-0.750			
0.1017	6508.09	3.9930	3.9931	-0.7352	25.81	-0.06	-0.750			
0.1039	6649.40	3.9900	3.9901	-0.7345	25.81	-0.06	-0.750			
0.1061	6788.96	3.9870	3.9870	-0.7407	25.81	-0.06	-0.750			
0.1083	6931.53	3.9840	3.9839	-0.7406	25.82	-0.05	-0.750			
0.1105	7073.45	3.9810	3.9809	-0.7450	25.82	-0.05	-0.750			
0.1128	7217.39	3.9780	3.9780	-0.7488	25.82	-0.05	-0.750			
0.1150	7362.76	3.9750	3.9750	-0.7544	25.82	-0.05	-0.750			
0.1173	7508.07	3.9720	3.9720	-0.7547	25.82	-0.05	-0.750			
0.1196	7652.00	3.9690	3.9690	-0.7571	25.82	-0.05	-0.750			
0.1218	7797.10	3.9660	3.9660	-0.7547	25.83	-0.04	-0.750			
0.1241	7943.78	3.9630	3.9630	-0.7587	25.83	-0.04	-0.750			
0.1264	8088.40	3.9600	3.9600	-0.7607	25.83	-0.04	-0.750			
0.1287	8234.31	3.9570	3.9570	-0.7657	25.83	-0.04	-0.750			
0.1310	8382.19	3.9540	3.9540	-0.7687	25.84	-0.03	-0.750			
0.1333	8531.06	3.9510	3.9510	-0.7703	25.84	-0.03	-0.750			
0.1356	8679.49	3.9480	3.9480	-0.7701	25.85	-0.02	-0.750			
0.1379	8828.19	3.9450	3.9450	-0.7738	25.85	-0.02	-0.750			
0.1402	8975.64	3.9420	3.9419	-0.7746	25.85	-0.02	-0.750			
0.1426	9123.35	3.9390	3.9390	-0.7766	25.86	-0.01	-0.750			
0.1449	9272.73	3.9360	3.9359	-0.7764	25.86	-0.01	-0.750			
0.1472	9423.34	3.9330	3.9331	-0.7780	25.86	-0.01	-0.750			
0.1496	9574.46	3.9300	3.9300	-0.7805	25.87	-0.00	-0.750			
0.1519	9722.90	3.9270	3.9271	-0.7812	25.87	0.00	-0.750			
0.1542	9871.15	3.9240	3.9241	-0.7818	25.87	0.00	-0.750			
0.1566	10021.46	3.9210	3.9209	-0.7861	25.87	0.00	-0.750			
0.1590	10173.70	3.9180	3.9179	-0.7877	25.88	0.01	-0.750			
0.1613	10326.30	3.9150	3.9151	-0.7925	25.88	0.01	-0.750			
0.1637	10479.88	3.9120	3.9121	-0.7961	25.88	0.01	-0.750			
0.1661	10631.86	3.9090	3.9090	-0.7955	25.88	0.01	-0.750			
0.1685	10782.72	3.9060	3.9060	-0.7983	25.89	0.02	-0.750			
0.1709	10937.24	3.9030	3.9030	-0.8037	25.89	0.02	-0.750			
0.1734	11094.40	3.9000	3.8999	-0.8019	25.90	0.03	-0.750			
0.1758	11248.17	3.8970	3.8972	-0.8036	25.90	0.03	-0.750			
0.1782	11402.25	3.8940	3.8940	-0.8037	25.90	0.03	-0.750			
0.1806	11556.26	3.8910	3.8909	-0.8025	25.90	0.03	-0.750			
0.1829	11708.45	3.8880	3.8880	-0.7975	25.91	0.04	-0.750			
0.1853	11861.23	3.8850	3.8851	-0.7966	25.91	0.04	-0.750			
0.1878	12017.32	3.8820	3.8820	-0.7988	25.91	0.04	-0.750			
0.1902	12170.65	3.8790	3.8790	-0.7997	25.91	0.04	-0.750			
0.1925	12320.78	3.8760	3.8760	-0.8000	25.92	0.05	-0.750			
0.1949	12475.19	3.8730	3.8730	-0.8040	25.92	0.05	-0.750			
0.1973	12629.91	3.8700	3.8700	-0.8095	25.92	0.05	-0.750			
0.1998	12787.04	3.8670	3.8670	-0.8106	25.93	0.06	-0.750			
0.2023	12944.32	3.8640	3.8639	-0.8128	25.93	0.06	-0.750			
0.2047	13099.84	3.8610	3.8611	-0.8135	25.94	0.07	-0.750			
0.2071	13255.44	3.8580	3.8580	-0.8102	25.94	0.07	-0.750			
0.2095	13411.17	3.8550	3.8550	-0.8054	25.94	0.07	-0.750			
0.2120	13566.19	3.8520	3.8520	-0.8054	25.95	0.08	-0.750			
0.2144	13719.34	3.8490	3.8491	-0.8071	25.95	0.08	-0.750			
0.2168	13874.93	3.8460	3.8459	-0.8102	25.95	0.08	-0.750			
0.2192	14030.80	3.8430	3.8429	-0.8135	25.95	0.08	-0.750			
0.2217	14187.35	3.8400	3.8401	-0.8127	25.96	0.09	-0.750			
0.2241	14345.13	3.8370	3.8369	-0.8170	25.96	0.09	-0.750			
0.2266	14503.12	3.8340	3.8341	-0.8125	25.96	0.09	-0.750			
0.2290	14657.62	3.8310	3.8310	-0.8096	25.97	0.10	-0.750			
0.2314	14812.06	3.8280	3.8280	-0.8092	25.97	0.10	-0.750			
0.2339	14967.87	3.8250	3.8250	-0.8046	25.98	0.11	-0.750			
0.2363	15124.24	3.8220	3.8219	-0.8039	25.98	0.11	-0.750			
0.2387	15276.12	3.8190	3.8192	-0.8031	25.99	0.12	-0.750			
0.2411	15430.08	3.8160	3.8160	-0.7998	25.99	0.12	-0.750			
0.2435	15584.57	3.8130	3.8129	-0.8019	26.00	0.13	-0.750			
0.2459	15736.91	3.8100	3.8100	-0.7991	26.00	0.13	-0.750			
0.2483	15893.28	3.8070	3.8070	-0.7996	26.01	0.14	-0.750			
0.2507	16046.67	3.8040	3.8042	-0.7965	26.01	0.14	-0.750			
0.2531	16199.22	3.8010	3.8009	-0.7910	26.01	0.14	-0.750			
0.2555	16350.31	3.7980	3.7980	-0.7738	26.02	0.15	-0.750			
0.2578	16498.64	3.7950	3.7949	-0.7710	26.02	0.15	-0.750			
0.2601	16644.04	3.7920	3.7920	-0.7642	26.02	0.15	-0.750			
0.2624	16791.38	3.7890	3.7889	-0.7598	26.03	0.16	-0.750			
0.2646	16936.22	3.7860	3.7861	-0.7602	26.03	0.16	-0.750			
0.2669	17080.36	3.7830	3.7830	-0.7595	26.03	0.16	-0.750			
0.2692	17227.77	3.7800	3.7800	-0.7602	26.03	0.16	-0.750			
0.2715	17373.47	3.7770	3.7770	-0.7562	26.03	0.16	-0.750			
0.2738	17520.43	3.7740	3.7741	-0.7609	26.03	0.16	-0.750			
0.2760	17666.76	3.7710	3.7712	-0.7581	26.03	0.16	-0.750			
0.2783	17812.87	3.7680	3.7679	-0.7563	26.03	0.16	-0.750			
0.2806	17955.48	3.7650	3.7650	-0.7555	26.04	0.17	-0.750			
0.2828	18101.09	3.7620	3.7620	-0.7594	26.04	0.17	-0.750			
0.2851	18249.29	3.7590	3.7589	-0.7602	26.04	0.17	-0.750			
0.2874	18394.18	3.7560	3.7559	-0.7579	26.05	0.18	-0.750			
0.2897	18539.17	3.7530	3.7532	-0.7579	26.05	0.18	-0.750			
0.2919	18683.67	3.7500	3.7500	-0.7672	26.05	0.18	-0.750			
0.2942	18831.10	3.7470	3.7469	-0.7720	26.05	0.18	-0.750			
0.2965	18978.75	3.7440	3.7440	-0.7737	26.05	0.18	-0.750			
0.2989	19129.08	3.7410	3.7411	-0.7825	26.05	0.18	-0.750			
0.3013	19282.66	3.7380	3.7381	-0.7918	26.05	0.18	-0.750			
0.3037	19434.02	3.7350	3.7350	-0.7930	26.05	0.18	-0.750			
0.3060	19584.31	3.7320	3.7320	-0.8042	26.06	0.19	-0.750			
0.3084	19739.52	3.7290	3.7289	-0.8085	26.06	0.19	-0.750			
0.3109	19895.89	3.7260	3.7259	-0.8234	26.07	0.20	-0.750			
0.3134	20055.39	3.7230	3.7232	-0.8345	26.07	0.20	-0.750			
0.3159	20216.26	3.7200	3.7200	-0.8530	26.07	0.20	-0.750			
0.3185	20381.57	3.7170	3.7170	-0.8690	26.07	0.20	-0.750			
0.3211	20548.39	3.7140	3.7140	-0.8819	26.07	0.20	-0.750			
0.3237	20718.84	3.7110	3.7110	-0.8973	26.07	0.20	-0.750			
0.3265	20897.36	3.7080	3.7082	-0.9149	26.07	0.20	-0.750			
0.3293	21073.01	3.7050	3.7050	-0.9263	26.07	0.20	-0.750			
0.3321	21253.47	3.7020	3.7020	-0.9387	26.07	0.20	-0.750			
0.3349	21431.87	3.6990	3.6990	-0.9541	26.07	0.20	-0.750			
0.3377	21615.08	3.6960	3.6961	-0.9752	26.07	0.20	-0.750			
0.3407	21804.29	3.6930	3.6929	-0.9967	26.07	0.20	-0.750			
0.3437	21998.10	3.6900	3.6899	-1.0179	26.06	0.19	-0.750			
0.3468	22196.86	3.6870	3.6870	-1.0350	26.06	0.19	-0.750			
0.3499	22396.59	3.6840	3.6841	-1.0563	26.05	0.18	-0.750			
0.3532	22604.10	3.6810	3.6810	-1.0847	26.05	0.18	-0.750			
0.3565	22813.24	3.6780	3.6779	-1.1023	26.04	0.17	-0.750			
0.3598	23026.09	3.6750	3.6751	-1.1206	26.04	0.17	-0.750			
0.3632	23245.25	3.6720	3.6721	-1.1390	26.03	0.16	-0.750			
0.3667	23468.75	3.6690	3.6689	-1.1571	26.03	0.16	-0.750			
0.3702	23692.87	3.6660	3.6660	-1.1756	26.02	0.15	-0.750			
0.3737	23915.70	3.6630	3.6630	-1.1975	26.01	0.14	-0.750			
0.3773	24146.06	3.6600	3.6600	-1.2198	26.01	0.14	-0.750			
0.3810	24382.21	3.6570	3.6569	-1.2523	26.00	0.13	-0.750			
0.3848	24625.67	3.6540	3.6540	-1.2832	25.99	0.12	-0.750			
0.3887	24874.63	3.6510	3.6513	-1.3243	25.98	0.11	-0.750			
0.3928	25141.20	3.6480	3.6479	-1.3617	25.97	0.10	-0.750			
0.3970	25405.59	3.6450	3.6449	-1.3790	25.97	0.10	-0.750			
0.4011	25672.57	3.6420	3.6424	-1.4092	25.96	0.09	-0.750			
0.4053	25940.29	3.6390	3.6390	-1.4487	25.95	0.08	-0.750			
0.4097	26220.55	3.6360	3.6359	-1.4808	25.94	0.07	-0.750			
0.4141	26504.35	3.6330	3.6332	-1.5197	25.93	0.06	-0.750			
0.4188	26806.15	3.6300	3.6296	-1.5590	25.92	0.05	-0.750			
0.4236	27109.89	3.6270	3.6272	-1.5974	25.91	0.04	-0.750			
0.4285	27426.36	3.6240	3.6238	-1.6158	25.91	0.04	-0.750			
0.4334	27737.82	3.6210	3.6210	-1.6469	25.90	0.03	-0.750			
0.4383	28051.02	3.6180	3.6180	-1.6395	25.89	0.02	-0.750	0.388	0.519	
0.4433	28372.70	3.6150	3.6150	-1.6727	25.88	0.01	-0.750			
0.4482	28687.62	3.6120	3.6121	-1.6898	25.87	0.00	-0.750			
0.4534	29019.76	3.6090	3.6088	-1.7257	25.87	-0.00	-0.750			
0.4586	29349.34	3.6060	3.6060	-1.7441	25.86	-0.01	-0.750			
0.4640	29696.64	3.6030	3.6029	-1.7739	25.85	-0.02	-0.750			
0.4694	30038.90	3.6000	3.5999	-1.8022	25.84	-0.03	-0.750			
0.4748	30387.77	3.5970	3.5970	-1.8338	25.82	-0.05	-0.750			
0.4802	30734.19	3.5940	3.5940	-1.8755	25.82	-0.05	-0.750			
0.4858	31091.22	3.5910	3.5908	-1.9229	25.81	-0.06	-0.750			
0.4917	31470.51	3.5880	3.5878	-1.9688	25.81	-0.06	-0.750			
0.4978	31856.13	3.5850	3.5851	-2.0233	25.81	-0.06	-0.750			
0.5040	32254.48	3.5820	3.5821	-2.0727	25.81	-0.06	-0.750			
0.5103	32661.59	3.5790	3.5790	-2.0850	25.80	-0.07	-0.750			
0.5166	33061.73	3.5760	3.5760	-2.1097	25.79	-0.08	-0.750			
0.5229	33467.87	3.5730	3.5730	-2.1314	25.78	-0.09	-0.750			
0.5293	33878.23	3.5700	3.5698	-2.1589	25.77	-0.10	-0.750			
0.5359	34299.89	3.5670	3.5671	-2.1824	25.77	-0.10	-0.750			
0.5425	34719.56	3.5640	3.5639	-2.1932	25.77	-0.10	-0.750			
0.5492	35146.38	3.5610	3.5610	-2.2045	25.77	-0.10	-0.750			
0.5558	35573.29	3.5580	3.5580	-2.2021	25.77	-0.10	-0.750			
0.5624	35995.00	3.5550	3.5551	-2.2086	25.77	-0.10	-0.750			
0.5690	36416.97	3.5520	3.5520	-2.2034	25.77	-0.10	-0.750			
0.5757	36842.20	3.5490	3.5489	-2.1995	25.77	-0.10	-0.750			
0.5823	37266.17	3.5460	3.5462	-2.1848	25.78	-0.09	-0.750			
0.5888	37682.96	3.5430	3.5430	-2.1734	25.79	-0.08	-0.750			
0.5954	38105.15	3.5400	3.5401	-2.1433	25.79	-0.08	-0.750			
0.6018	38512.91	3.5370	3.5369	-2.1154	25.79	-0.08	-0.750			
0.6081	38916.66	3.5340	3.5341	-2.0935	25.80	-0.07	-0.750			
0.6143	39312.83	3.5310	3.5308	-2.0727	25.80	-0.07	-0.750			
0.6205	39714.54	3.5280	3.5282	-2.0482	25.81	-0.06	-0.750			
0.6266	40102.54	3.5250	3.5251	-1.9973	25.81	-0.06	-0.750			
0.6327	40490.74	3.5220	3.5220	-1.9430	25.82	-0.05	-0.750			
0.6384	40854.70	3.5190	3.5190	-1.8925	25.82	-0.05	-0.750			
0.6440	41213.42	3.5160	3.5159	-1.8455	25.83	-0.04	-0.750			
0.6494	41559.13	3.5130	3.5130	-1.7970	25.85	-0.02	-0.750			
0.6546	41896.68	3.5100	3.5098	-1.7470	25.86	-0.01	-0.750			
0.6599	42233.66	3.5070	3.5068	-1.7052	25.86	-0.01	-0.750			
0.6649	42554.37	3.5040	3.5041	-1.6649	25.87	0.00	-0.750			
0.6700	42877.09	3.5010	3.5008	-1.6036	25.89	0.02	-0.750			
0.6746	43175.07	3.4980	3.4979	-1.5386	25.91	0.04	-0.750			
0.6792	43466.27	3.4950	3.4949	-1.4898	25.92	0.05	-0.750			
0.6835	43746.19	3.4920	3.4919	-1.4382	25.94	0.07	-0.750			
0.6878	44017.69	3.4890	3.4889	-1.3982	25.96	0.09	-0.750			
0.6919	44279.93	3.4860	3.4860	-1.3530	25.97	0.10	-0.750			
0.6959	44537.05	3.4830	3.4831	-1.3071	25.99	0.12	-0.750			
0.6999	44790.74	3.4800	3.4799	-1.2759	26.00	0.13	-0.750			
0.7036	45028.87	3.4770	3.4770	-1.2318	26.02	0.15	-0.750			
0.7072	45261.70	3.4740	3.4739	-1.1877	26.03	0.16	-0.750			
0.7107	45486.43	3.4710	3.4709	-1.1463	26.05	0.18	-0.750			
0.7141	45699.60	3.4680	3.4683	-1.1100	26.06	0.19	-0.750			
0.7174	45911.00	3.4650	3.4650	-1.0776	26.07	0.20	-0.750			
0.7206	46115.29	3.4620	3.4619	-1.0439	26.09	0.22	-0.750			
0.7236	46310.32	3.4590	3.4590	-1.0061	26.10	0.23	-0.750			
0.7266	46500.40	3.4560	3.4562	-0.9809	26.11	0.24	-0.750			
0.7295	46684.92	3.4530	3.4530	-0.9550	26.12	0.25	-0.750			
0.7323	46864.79	3.4500	3.4499	-0.9275	26.13	0.26	-0.750			
0.7350	47039.14	3.4470	3.4470	-0.9014	26.14	0.27	-0.750			
0.7377	47210.35	3.4440	3.4440	-0.8851	26.15	0.28	-0.750			
0.7403	47376.58	3.4410	3.4410	-0.8726	26.16	0.29	-0.750			
0.7428	47540.30	3.4380	3.4380	-0.8680	26.17	0.30	-0.750			
0.7454	47704.70	3.4350	3.4349	-0.8663	26.18	0.31	-0.750			
0.7480	47868.87	3.4320	3.4320	-0.8713	26.19	0.32	-0.750			
0.7506	48038.11	3.4290	3.4290	-0.8856	26.21	0.34	-0.750			
0.7533	48208.99	3.4260	3.4260	-0.9028	26.22	0.35	-0.750			
0.7560	48382.42	3.4230	3.4230	-0.9195	26.23	0.36	-0.750			
0.7588	48561.25	3.4200	3.4200	-0.9331	26.23	0.36	-0.750			
0.7616	48740.89	3.4170	3.4170	-0.9451	26.24	0.37	-0.750			
0.7645	48928.25	3.4140	3.4141	-0.9549	26.25	0.38	-0.750			
0.7674	49113.45	3.4110	3.4110	-0.9569	26.26	0.39	-0.750			
0.7703	49299.71	3.4080	3.4080	-0.9527	26.26	0.39	-0.750			
0.7732	49482.89	3.4050	3.4049	-0.9370	26.27	0.40	-0.750			
0.7760	49661.75	3.4020	3.4022	-0.9207	26.27	0.40	-0.750			
0.7787	49837.73	3.3990	3.3990	-0.9012	26.28	0.41	-0.750			
0.7814	50009.11	3.3960	3.3960	-0.8777	26.29	0.42	-0.750			
0.7840	50176.65	3.3930	3.3930	-0.8462	26.30	0.43	-0.750			
0.7865	50334.95	3.3900	3.3899	-0.8160	26.30	0.43	-0.750			
0.7889	50490.65	3.3870	3.3872	-0.7877	26.31	0.44	-0.750			
0.7912	50638.54	3.3840	3.3840	-0.7579	26.32	0.45	-0.750			
0.7934	50779.55	3.3810	3.3810	-0.7315	26.33	0.46	-0.750			
0.7956	50917.15	3.3780	3.3780	-0.7072	26.33	0.46	-0.750			
0.7977	51050.31	3.3750	3.3749	-0.6804	26.34	0.47	-0.750			
0.7997	51179.64	3.3720	3.3720	-0.6565	26.35	0.48	-0.750			
0.8016	51302.54	3.3690	3.3691	-0.6310	26.35	0.48	-0.750			
0.8035	51421.73	3.3660	3.3659	-0.6067	26.36	0.49	-0.750			
0.8052	51534.88	3.3630	3.3630	-0.5830	26.36	0.49	-0.750			
0.8069	51643.75	3.3600	3.3600	-0.5625	26.37	0.50	-0.750			
0.8086	51749.44	3.3570	3.3570	-0.5452	26.37	0.50	-0.750			
0.8102	51852.91	3.3540	3.3540	-0.5286	26.38	0.51	-0.750			
0.8118	51952.28	3.3510	3.3509	-0.5105	26.38	0.51	-0.750			
0.8133	52048.78	3.3480	3.3479	-0.4928	26.39	0.52	-0.750			
0.8147	52141.76	3.3450	3.3450	-0.4755	26.40	0.53	-0.750			
0.8161	52230.83	3.3420	3.3420	-0.4583	26.40	0.53	-0.750			
0.8174	52316.75	3.3390	3.3391	-0.4422	26.41	0.54	-0.750			
0.8188	52400.02	3.3360	3.3359	-0.4278	26.42	0.55	-0.750			
0.8200	52480.68	3.3330	3.3330	-0.4143	26.43	0.56	-0.750			
0.8212	52559.23	3.3300	3.3300	-0.4006	26.43	0.56	-0.750			
0.8224	52634.19	3.3270	3.3270	-0.3922	26.44	0.57	-0.750			
0.8236	52708.99	3.3240	3.3240	-0.3800	26.45	0.58	-0.750			
0.8247	52780.52	3.3210	3.3209	-0.3677	26.45	0.58	-0.750			
0.8258	52850.06	3.3180	3.3181	-0.3569	26.46	0.59	-0.750			
0.8268	52917.34	3.3150	3.3150	-0.3470	26.46	0.59	-0.750			
0.8279	52983.23	3.3120	3.3119	-0.3352	26.47	0.60	-0.750			
0.8288	53045.79	3.3090	3.3090	-0.3243	26.47	0.60	-0.750			
0.8298	53106.24	3.3060	3.3060	-0.3127	26.48	0.61	-0.750			
0.8307	53166.30	3.3030	3.3031	-0.3096	26.48	0.61	-0.750			
0.8316	53224.67	3.3000	3.2999	-0.3010	26.49	0.62	-0.750			
0.8325	53281.47	3.2970	3.2970	-0.2931	26.49	0.62	-0.750			
0.8334	53337.34	3.2940	3.2940	-0.2862	26.49	0.62	-0.750			
0.8342	53391.89	3.2910	3.2911	-0.2814	26.50	0.63	-0.750			
0.8351	53444.51	3.2880	3.2880	-0.2746	26.50	0.63	-0.750			
0.8359	53496.37	3.2850	3.2850	-0.2686	26.51	0.64	-0.750			
0.8367	53546.60	3.2820	3.2819	-0.2629	26.51	0.64	-0.750			
0.8375	53597.41	3.2790	3.2792	-0.2599	26.51	0.64	-0.750			
0.8382	53646.96	3.2760	3.2759	-0.2557	26.52	0.65	-0.750			
0.8390	53696.24	3.2730	3.2730	-0.2516	26.52	0.65	-0.750			
0.8397	53743.97	3.2700	3.2700	-0.2458	26.53	0.66	-0.750			
0.8405	53790.21	3.2670	3.2670	-0.2401	26.53	0.66	-0.750			
0.8412	53835.48	3.2640	3.2640	-0.2345	26.54	0.67	-0.750			
0.8419	53879.95	3.2610	3.2610	-0.2304	26.55	0.68	-0.750			
0.8426	53923.49	3.2580	3.2580	-0.2262	26.55	0.68	-0.750			
0.8432	53966.74	3.2550	3.2549	-0.2226	26.56	0.69	-0.750			
0.8439	54009.13	3.2520	3.2521	-0.2189	26.56	0.69	-0.750			
0.8445	54050.60	3.2490	3.2490	-0.2160	26.57	0.70	-0.750			
0.8452	54091.96	3.2460	3.2459	-0.2124	26.57	0.70	-0.750			
0.8458	54131.96	3.2430	3.2431	-0.2095	26.58	0.71	-0.750			
0.8464	54171.94	3.2400	3.2399	-0.2070	26.58	0.71	-0.750			
0.8471	54211.28	3.2370	3.2371	-0.2046	26.59	0.72	-0.750			
0.8477	54250.38	3.2340	3.2339	-0.2021	26.59	0.72	-0.750			
0.8483	54289.22	3.2310	3.2310	-0.1999	26.60	0.73	-0.750			
0.8489	54327.32	3.2280	3.2280	-0.1970	26.60	0.73	-0.750			
0.8495	54365.02	3.2250	3.2250	-0.1934	26.61	0.74	-0.750			
0.8500	54402.03	3.2220	3.2219	-0.1913	26.61	0.74	-0.750			
0.8506	54438.19	3.2190	3.2190	-0.1868	26.62	0.75	-0.750			
0.8512	54473.75	3.2160	3.2161	-0.1836	26.62	0.75	-0.750			
0.8517	54508.31	3.2130	3.2130	-0.1823	26.63	0.76	-0.750			
0.8522	54542.88	3.2100	3.2101	-0.1804	26.63	0.76	-0.750			
0.8528	54577.41	3.2070	3.2069	-0.1788	26.64	0.77	-0.750			
0.8533	54611.65	3.2040	3.2039	-0.1778	26.64	0.77	-0.750			
0.8538	54645.98	3.2010	3.2011	-0.1760	26.65	0.78	-0.750			
0.8544	54679.52	3.1980	3.1980	-0.1744	26.65	0.78	-0.750			
0.8549	54713.29	3.1950	3.1950	-0.1733	26.66	0.79	-0.750			
0.8554	54746.32	3.1920	3.1920	-0.1702	26.66	0.79	-0.750			
0.8559	54778.25	3.1890	3.1890	-0.1677	26.67	0.80	-0.750			
0.8564	54810.33	3.1860	3.1862	-0.1659	26.67	0.80	-0.750			
0.8569	54841.98	3.1830	3.1829	-0.1639	26.68	0.81	-0.750			
0.8574	54873.16	3.1800	3.1800	-0.1630	26.68	0.81	-0.750			
0.8579	54904.29	3.1770	3.1770	-0.1616	26.69	0.82	-0.750			
0.8584	54935.01	3.1740	3.1740	-0.1599	26.69	0.82	-0.750			
0.8588	54965.63	3.1710	3.1710	-0.1591	26.70	0.83	-0.750			
0.8593	54996.43	3.1680	3.1681	-0.1574	26.70	0.83	-0.750			
0.8598	55026.39	3.1650	3.1650	-0.1558	26.71	0.84	-0.750			
0.8603	55056.31	3.1620	3.1621	-0.1542	26.71	0.84	-0.750			
0.8607	55085.73	3.1590	3.1589	-0.1522	26.72	0.85	-0.750			
0.8612	55114.58	3.1560	3.1558	-0.1504	26.72	0.85	-0.750			
0.8616	55143.13	3.1530	3.1531	-0.1496	26.73	0.86	-0.750			
0.8621	55171.77	3.1500	3.1499	-0.1480	26.73	0.86	-0.750			
0.8625	55200.19	3.1470	3.1470	-0.1472	26.73	0.86	-0.750			
0.8629	55228.35	3.1440	3.1440	-0.1457	26.73	0.86	-0.750			
0.8634	55256.07	3.1410	3.1410	-0.1444	26.74	0.87	-0.750			
0.8638	55283.85	3.1380	3.1380	-0.1435	26.74	0.87	-0.750			
0.8642	55311.24	3.1350	3.1350	-0.1419	26.75	0.88	-0.750			
0.8647	55338.26	3.1320	3.1319	-0.1408	26.75	0.88	-0.750			
0.8651	55365.07	3.1290	3.1291	-0.1390	26.76	0.89	-0.750			
0.8655	55391.72	3.1260	3.1260	-0.1385	26.77	0.90	-0.750			
0.8659	55418.20	3.1230	3.1230	-0.1374	26.77	0.90	-0.750			
0.8663	55444.44	3.1200	3.1200	-0.1363	26.78	0.91	-0.750			
0.8667	55470.49	3.1170	3.1169	-0.1348	26.78	0.91	-0.750			
0.8671	55496.32	3.1140	3.1140	-0.1339	26.79	0.92	-0.750			
0.8675	55521.91	3.1110	3.1110	-0.1327	26.80	0.93	-0.750			
0.8679	55547.12	3.1080	3.1080	-0.1320	26.80	0.93	-0.750			
0.8683	55572.46	3.1050	3.1050	-0.1313	26.81	0.94	-0.750			
0.8687	55597.40	3.1020	3.1020	-0.1300	26.81	0.94	-0.750			
0.8691	55622.37	3.0990	3.0990	-0.1293	26.82	0.95	-0.750			
0.8695	55647.19	3.0960	3.0961	-0.1287	26.83	0.96	-0.750			
0.8699	55672.13	3.0930	3.0929	-0.1277	26.83	0.96	-0.750			
0.8703	55696.59	3.0900	3.0899	-0.1263	26.84	0.97	-0.750			
0.8706	55720.46	3.0870	3.0871	-0.1259	26.84	0.97	-0.750			
0.8710	55744.32	3.0840	3.0840	-0.1248	26.85	0.98	-0.750			
0.8714	55768.36	3.0810	3.0809	-0.1236	26.85	0.98	-0.750			
0.8718	55792.06	3.0780	3.0779	-0.1227	26.86	0.99	-0.750			
0.8721	55815.56	3.0750	3.0751	-0.1219	26.86	0.99	-0.750			
0.8725	55838.86	3.0720	3.0721	-0.1208	26.87	1.00	-0.750			
0.8728	55862.02	3.0690	3.0690	-0.1203	26.87	1.00	-0.750			
0.8732	55885.02	3.0660	3.0659	-0.1192	26.88	1.01	-0.750			
0.8736	55907.35	3.0630	3.0631	-0.1184	26.88	1.01	-0.750			
0.8739	55930.09	3.0600	3.0600	-0.1185	26.89	1.02	-0.750			
0.8743	55953.10	3.0570	3.0570	-0.1179	26.89	1.02	-0.750			
0.8746	55975.67	3.0540	3.0539	-0.1172	26.90	1.03	-0.750			
0.8750	55998.14	3.0510	3.0510	-0.1167	26.90	1.03	-0.750			
0.8753	56020.55	3.0480	3.0481	-0.1157	26.91	1.04	-0.750			
0.8757	56042.77	3.0450	3.0450	-0.1149	26.91	1.04	-0.750			
0.8760	56064.65	3.0420	3.0418	-0.1142	26.92	1.05	-0.750			
0.8763	56086.34	3.0390	3.0390	-0.1131	26.92	1.05	-0.750			
0.8767	56107.99	3.0360	3.0360	-0.1125	26.93	1.06	-0.750			
0.8770	56129.57	3.0330	3.0329	-0.1119	26.93	1.06	-0.750			
0.8774	56151.04	3.0300	3.0299	-0.1111	26.94	1.07	-0.750			
0.8777	56172.23	3.0270	3.0271	-0.1103	26.94	1.07	-0.750			
0.8780	56193.27	3.0240	3.0240	-0.1099	26.95	1.08	-0.750			
0.8783	56214.37	3.0210	3.0210	-0.1095	26.95	1.08	-0.750			
0.8787	56235.38	3.0180	3.0180	-0.1088	26.96	1.09	-0.750			
0.8790	56256.16	3.0150	3.0149	-0.1081	26.96	1.09	-0.750			
0.8793	56276.86	3.0120	3.0120	-0.1076	26.97	1.10	-0.750			
0.8796	56297.45	3.0090	3.0091	-0.1070	26.97	1.10	-0.750			
0.8800	56317.95	3.0060	3.0060	-0.1065	26.97	1.10	-0.751			
0.8803	56338.30	3.0030	3.0030	-0.1035	26.98	1.11	-0.751			
