Ah_balance (normalized)	Ah_balance (mAh)	Voltage - fit (V)	Voltage -  interpolate (V)	dQ/dV (1/V)	Temperature (°C)	Temperature - diff (°C)	Current (C)	R_DC 0ms (mOhm)	R_DC 50ms (mOhm)	R_DC 50 ms PEC (mOhm)
0.0005	29.04	4.1640	4.1635	-0.1445	25.98	0.01	-0.750			
0.0010	63.83	4.1610	4.1608	-0.1978	25.98	0.01	-0.750			
0.0017	106.16	4.1580	4.1580	-0.2431	25.98	0.01	-0.750			
0.0024	156.17	4.1550	4.1551	-0.2923	25.98	0.01	-0.750			
0.0034	216.73	4.1520	4.1521	-0.3431	25.98	0.01	-0.750			
0.0045	286.60	4.1490	4.1489	-0.3939	25.98	0.01	-0.750			
0.0057	367.49	4.1460	4.1459	-0.4402	25.98	0.01	-0.750			
0.0072	458.46	4.1430	4.1430	-0.4858	25.97	0.00	-0.750			
0.0087	558.42	4.1400	4.1400	-0.5233	25.97	0.00	-0.750			
0.0104	663.94	4.1370	4.1370	-0.5588	25.97	-0.00	-0.750			
0.0121	773.84	4.1340	4.1341	-0.5868	25.97	-0.00	-0.750			
0.0139	888.74	4.1310	4.1309	-0.6150	25.96	-0.01	-0.750			
0.0158	1010.59	4.1280	4.1280	-0.6394	25.96	-0.01	-0.750			
0.0178	1137.27	4.1250	4.1250	-0.6602	25.96	-0.01	-0.750			
0.0198	1267.91	4.1220	4.1220	-0.6796	25.95	-0.02	-0.750			
0.0219	1399.92	4.1190	4.1192	-0.6948	25.95	-0.02	-0.750			
0.0240	1534.70	4.1160	4.1159	-0.7059	25.95	-0.02	-0.750			
0.0261	1672.18	4.1130	4.1129	-0.7127	25.94	-0.03	-0.750			
0.0283	1810.30	4.1100	4.1100	-0.7226	25.94	-0.03	-0.750			
0.0305	1950.09	4.1070	4.1071	-0.7325	25.94	-0.03	-0.750			
0.0327	2093.11	4.1040	4.1039	-0.7431	25.93	-0.04	-0.750			
0.0349	2236.19	4.1010	4.1011	-0.7465	25.93	-0.04	-0.750			
0.0372	2380.50	4.0980	4.0980	-0.7437	25.93	-0.04	-0.750			
0.0394	2523.50	4.0950	4.0951	-0.7491	25.93	-0.04	-0.750			
0.0417	2667.73	4.0920	4.0920	-0.7514	25.93	-0.04	-0.750			
0.0440	2813.14	4.0890	4.0889	-0.7563	25.93	-0.04	-0.750			
0.0462	2955.69	4.0860	4.0860	-0.7581	25.93	-0.04	-0.750			
0.0484	3100.07	4.0830	4.0829	-0.7661	25.93	-0.04	-0.750			
0.0508	3248.79	4.0800	4.0800	-0.7759	25.93	-0.04	-0.750			
0.0531	3400.65	4.0770	4.0769	-0.7845	25.93	-0.04	-0.750			
0.0555	3551.98	4.0740	4.0740	-0.7793	25.92	-0.05	-0.750			
0.0579	3703.12	4.0710	4.0710	-0.7788	25.92	-0.05	-0.750			
0.0602	3851.95	4.0680	4.0681	-0.7826	25.92	-0.05	-0.750			
0.0625	4001.07	4.0650	4.0649	-0.7849	25.92	-0.05	-0.750			
0.0648	4149.97	4.0620	4.0619	-0.7891	25.92	-0.05	-0.750			
0.0672	4303.32	4.0590	4.0590	-0.7933	25.93	-0.04	-0.750			
0.0696	4457.31	4.0560	4.0560	-0.7995	25.93	-0.04	-0.750			
0.0721	4612.79	4.0530	4.0532	-0.8013	25.93	-0.04	-0.750			
0.0745	4766.85	4.0500	4.0499	-0.7989	25.93	-0.04	-0.750			
0.0769	4918.63	4.0470	4.0470	-0.7970	25.94	-0.03	-0.750			
0.0792	5071.19	4.0440	4.0440	-0.7932	25.94	-0.03	-0.750			
0.0816	5223.55	4.0410	4.0410	-0.7991	25.95	-0.02	-0.750			
0.0840	5376.64	4.0380	4.0380	-0.8003	25.95	-0.02	-0.750			
0.0864	5529.86	4.0350	4.0350	-0.8017	25.95	-0.02	-0.750			
0.0888	5684.54	4.0320	4.0320	-0.8077	25.95	-0.02	-0.750			
0.0913	5841.10	4.0290	4.0290	-0.8104	25.95	-0.02	-0.750			
0.0937	5997.35	4.0260	4.0260	-0.8089	25.95	-0.02	-0.750			
0.0962	6153.73	4.0230	4.0230	-0.8101	25.95	-0.02	-0.750			
0.0986	6307.35	4.0200	4.0200	-0.8073	25.95	-0.02	-0.750			
0.1009	6460.02	4.0170	4.0170	-0.8153	25.96	-0.01	-0.750			
0.1034	6617.47	4.0140	4.0140	-0.8153	25.96	-0.01	-0.750			
0.1058	6773.89	4.0110	4.0109	-0.8145	25.96	-0.01	-0.750			
0.1083	6933.02	4.0080	4.0080	-0.8234	25.97	-0.00	-0.750			
0.1108	7091.75	4.0050	4.0048	-0.8253	25.97	0.00	-0.750			
0.1133	7248.79	4.0020	4.0020	-0.8294	25.98	0.01	-0.750			
0.1158	7409.39	3.9990	3.9990	-0.8247	25.98	0.01	-0.750			
0.1182	7566.06	3.9960	3.9960	-0.8198	25.98	0.01	-0.750			
0.1207	7726.38	3.9930	3.9930	-0.8291	25.99	0.02	-0.750			
0.1232	7884.78	3.9900	3.9899	-0.8294	25.99	0.02	-0.750			
0.1256	8041.51	3.9870	3.9869	-0.8358	26.00	0.03	-0.750			
0.1282	8203.02	3.9840	3.9840	-0.8354	26.00	0.03	-0.750			
0.1307	8363.54	3.9810	3.9810	-0.8391	26.00	0.03	-0.750			
0.1332	8527.77	3.9780	3.9779	-0.8462	26.01	0.04	-0.750			
0.1358	8690.59	3.9750	3.9750	-0.8441	26.01	0.04	-0.750			
0.1383	8851.81	3.9720	3.9719	-0.8472	26.02	0.05	-0.750			
0.1409	9014.93	3.9690	3.9690	-0.8469	26.02	0.05	-0.750			
0.1434	9177.56	3.9660	3.9659	-0.8398	26.02	0.05	-0.750			
0.1459	9340.50	3.9630	3.9630	-0.8449	26.03	0.06	-0.750			
0.1485	9501.21	3.9600	3.9599	-0.8448	26.03	0.06	-0.750			
0.1510	9662.64	3.9570	3.9568	-0.8521	26.04	0.07	-0.750			
0.1535	9827.08	3.9540	3.9539	-0.8509	26.04	0.07	-0.750			
0.1561	9989.95	3.9510	3.9510	-0.8511	26.04	0.07	-0.750			
0.1587	10157.74	3.9480	3.9481	-0.8621	26.05	0.08	-0.750			
0.1613	10322.63	3.9450	3.9451	-0.8669	26.05	0.08	-0.750			
0.1639	10486.43	3.9420	3.9419	-0.8683	26.06	0.09	-0.750			
0.1664	10652.06	3.9390	3.9390	-0.8677	26.06	0.09	-0.750			
0.1691	10819.76	3.9360	3.9360	-0.8708	26.07	0.10	-0.750			
0.1717	10990.98	3.9330	3.9330	-0.8786	26.07	0.10	-0.750			
0.1743	11156.96	3.9300	3.9301	-0.8817	26.07	0.10	-0.750			
0.1770	11326.78	3.9270	3.9270	-0.8844	26.08	0.11	-0.750			
0.1796	11497.07	3.9240	3.9239	-0.8847	26.08	0.11	-0.750			
0.1823	11666.48	3.9210	3.9211	-0.8843	26.09	0.12	-0.750			
0.1850	11839.39	3.9180	3.9182	-0.8879	26.09	0.12	-0.750			
0.1876	12008.82	3.9150	3.9150	-0.8857	26.09	0.12	-0.750			
0.1903	12177.99	3.9120	3.9120	-0.8854	26.10	0.13	-0.750			
0.1929	12346.52	3.9090	3.9090	-0.8847	26.10	0.13	-0.750			
0.1956	12516.45	3.9060	3.9060	-0.8874	26.11	0.14	-0.750			
0.1982	12687.17	3.9030	3.9030	-0.8906	26.11	0.14	-0.750			
0.2009	12859.05	3.9000	3.9000	-0.8943	26.12	0.15	-0.750			
0.2036	13032.04	3.8970	3.8969	-0.8917	26.12	0.15	-0.750			
0.2063	13203.26	3.8940	3.8940	-0.8903	26.12	0.15	-0.750			
0.2090	13373.84	3.8910	3.8909	-0.8918	26.13	0.16	-0.750			
0.2116	13544.12	3.8880	3.8880	-0.8940	26.13	0.16	-0.750			
0.2143	13716.51	3.8850	3.8850	-0.8928	26.14	0.17	-0.750			
0.2170	13886.54	3.8820	3.8820	-0.8940	26.14	0.17	-0.750			
0.2197	14057.89	3.8790	3.8790	-0.9002	26.15	0.18	-0.750			
0.2224	14233.07	3.8760	3.8762	-0.9059	26.15	0.18	-0.750			
0.2251	14405.90	3.8730	3.8730	-0.9123	26.15	0.18	-0.750			
0.2279	14583.17	3.8700	3.8700	-0.9121	26.16	0.19	-0.750			
0.2306	14759.60	3.8670	3.8670	-0.9136	26.16	0.19	-0.750			
0.2334	14937.23	3.8640	3.8640	-0.9141	26.17	0.20	-0.750			
0.2361	15111.24	3.8610	3.8610	-0.9090	26.17	0.20	-0.750			
0.2388	15283.47	3.8580	3.8579	-0.9130	26.18	0.21	-0.750			
0.2416	15459.70	3.8550	3.8550	-0.9122	26.18	0.21	-0.750			
0.2443	15633.37	3.8520	3.8519	-0.9091	26.19	0.22	-0.750			
0.2470	15810.49	3.8490	3.8490	-0.9156	26.19	0.22	-0.750			
0.2498	15985.01	3.8460	3.8460	-0.9245	26.20	0.23	-0.750			
0.2526	16164.11	3.8430	3.8429	-0.9229	26.20	0.23	-0.750			
0.2553	16340.88	3.8400	3.8399	-0.9222	26.21	0.24	-0.750			
0.2581	16518.69	3.8370	3.8370	-0.9244	26.22	0.25	-0.750			
0.2609	16697.31	3.8340	3.8340	-0.9263	26.22	0.25	-0.750			
0.2637	16875.42	3.8310	3.8309	-0.9222	26.23	0.26	-0.750			
0.2664	17051.38	3.8280	3.8279	-0.9166	26.24	0.27	-0.750			
0.2691	17223.17	3.8250	3.8251	-0.9167	26.24	0.27	-0.750			
0.2719	17402.05	3.8220	3.8219	-0.9282	26.25	0.28	-0.750			
0.2747	17579.52	3.8190	3.8190	-0.9304	26.25	0.28	-0.750			
0.2775	17760.00	3.8160	3.8160	-0.9312	26.25	0.28	-0.750			
0.2803	17940.44	3.8130	3.8130	-0.9300	26.26	0.29	-0.750			
0.2831	18118.79	3.8100	3.8100	-0.9339	26.26	0.29	-0.750			
0.2859	18297.51	3.8070	3.8070	-0.9327	26.26	0.29	-0.750			
0.2887	18475.15	3.8040	3.8039	-0.9390	26.27	0.30	-0.750			
0.2915	18657.28	3.8010	3.8009	-0.9355	26.28	0.31	-0.750			
0.2943	18837.73	3.7980	3.7980	-0.9346	26.28	0.31	-0.750			
0.2972	19018.14	3.7950	3.7953	-0.9372	26.29	0.32	-0.750			
0.3000	19198.15	3.7920	3.7920	-0.9408	26.29	0.32	-0.750			
0.3028	19376.58	3.7890	3.7889	-0.9377	26.29	0.32	-0.750			
0.3056	19555.31	3.7860	3.7860	-0.9345	26.30	0.33	-0.750			
0.3084	19736.84	3.7830	3.7830	-0.9367	26.30	0.33	-0.750			
0.3112	19917.12	3.7800	3.7800	-0.9370	26.31	0.34	-0.750			
0.3140	20096.03	3.7770	3.7770	-0.9454	26.31	0.34	-0.750			
0.3168	20277.88	3.7740	3.7738	-0.9461	26.32	0.35	-0.750			
0.3197	20459.57	3.7710	3.7709	-0.9440	26.33	0.36	-0.750			
0.3225	20642.73	3.7680	3.7682	-0.9502	26.34	0.37	-0.750			
0.3254	20827.45	3.7650	3.7650	-0.9579	26.34	0.37	-0.750			
0.3283	21011.81	3.7620	3.7619	-0.9534	26.35	0.38	-0.750			
0.3311	21193.41	3.7590	3.7590	-0.9455	26.35	0.38	-0.750			
0.3340	21375.23	3.7560	3.7562	-0.9487	26.35	0.38	-0.750			
0.3368	21556.47	3.7530	3.7529	-0.9528	26.35	0.38	-0.750			
0.3397	21739.56	3.7500	3.7500	-0.9536	26.36	0.39	-0.750			
0.3425	21920.69	3.7470	3.7469	-0.9543	26.36	0.39	-0.750			
0.3454	22102.67	3.7440	3.7441	-0.9595	26.37	0.40	-0.750			
0.3483	22291.24	3.7410	3.7410	-0.9693	26.37	0.40	-0.750			
0.3512	22477.96	3.7380	3.7380	-0.9774	26.38	0.41	-0.750			
0.3542	22667.65	3.7350	3.7350	-0.9717	26.38	0.41	-0.750			
0.3571	22854.64	3.7320	3.7320	-0.9724	26.39	0.42	-0.750			
0.3600	23040.59	3.7290	3.7292	-0.9787	26.39	0.42	-0.750			
0.3629	23226.92	3.7260	3.7258	-0.9800	26.39	0.42	-0.750			
0.3658	23414.38	3.7230	3.7229	-0.9852	26.39	0.42	-0.750			
0.3688	23602.15	3.7200	3.7200	-1.0006	26.39	0.42	-0.750			
0.3718	23796.23	3.7170	3.7171	-1.0233	26.39	0.42	-0.750			
0.3749	23995.88	3.7140	3.7139	-1.0551	26.39	0.42	-0.750			
0.3781	24200.79	3.7110	3.7109	-1.0685	26.40	0.43	-0.750			
0.3814	24407.48	3.7080	3.7080	-1.0910	26.40	0.43	-0.750			
0.3847	24618.53	3.7050	3.7054	-1.1219	26.41	0.44	-0.750			
0.3881	24839.15	3.7020	3.7019	-1.1396	26.41	0.44	-0.750			
0.3916	25059.75	3.6990	3.6989	-1.1495	26.41	0.44	-0.750			
0.3950	25281.51	3.6960	3.6960	-1.1607	26.41	0.44	-0.750			
0.3986	25508.49	3.6930	3.6930	-1.1865	26.41	0.44	-0.750			
0.4022	25738.20	3.6900	3.6899	-1.1928	26.41	0.44	-0.750			
0.4057	25964.03	3.6870	3.6870	-1.1998	26.42	0.45	-0.750			
0.4093	26192.78	3.6840	3.6842	-1.2202	26.42	0.45	-0.750			
0.4130	26432.13	3.6810	3.6809	-1.2477	26.42	0.45	-0.750			
0.4167	26671.20	3.6780	3.6778	-1.2751	26.41	0.44	-0.750			
0.4206	26917.45	3.6750	3.6750	-1.3067	26.41	0.44	-0.750			
0.4246	27173.52	3.6720	3.6720	-1.3452	26.41	0.44	-0.750			
0.4287	27436.20	3.6690	3.6689	-1.3772	26.40	0.43	-0.750			
0.4329	27702.69	3.6660	3.6660	-1.4022	26.39	0.42	-0.750			
0.4371	27972.34	3.6630	3.6629	-1.4276	26.39	0.42	-0.750			
0.4414	28248.20	3.6600	3.6600	-1.4735	26.38	0.41	-0.750			
0.4458	28533.76	3.6570	3.6568	-1.5043	26.38	0.41	-0.750			
0.4504	28825.46	3.6540	3.6540	-1.5506	26.38	0.41	-0.750			
0.4552	29131.51	3.6510	3.6511	-1.5960	26.37	0.40	-0.750			
0.4600	29442.34	3.6480	3.6480	-1.6385	26.37	0.40	-0.750			
0.4650	29762.49	3.6450	3.6452	-1.6608	26.36	0.39	-0.750			
0.4701	30087.90	3.6420	3.6418	-1.6880	26.35	0.38	-0.750			
0.4752	30412.52	3.6390	3.6389	-1.7210	26.35	0.38	-0.750			
0.4804	30746.80	3.6360	3.6358	-1.7738	26.34	0.37	-0.750	0.403	0.487	
0.4858	31089.83	3.6330	3.6329	-1.8136	26.34	0.37	-0.750			
0.4913	31446.38	3.6300	3.6300	-1.8760	26.33	0.36	-0.750			
0.4970	31807.55	3.6270	3.6271	-1.9091	26.33	0.36	-0.750			
0.5029	32185.86	3.6240	3.6241	-1.9316	26.32	0.35	-0.750			
0.5088	32561.64	3.6210	3.6211	-1.9817	26.31	0.34	-0.750			
0.5148	32945.45	3.6180	3.6180	-1.9918	26.31	0.34	-0.750			
0.5206	33321.52	3.6150	3.6152	-2.0260	26.30	0.33	-0.750			
0.5267	33705.87	3.6120	3.6119	-2.0861	26.29	0.32	-0.750			
0.5330	34110.46	3.6090	3.6088	-2.1268	26.28	0.31	-0.750			
0.5395	34530.20	3.6060	3.6060	-2.1714	26.28	0.31	-0.750			
0.5462	34956.95	3.6030	3.6031	-2.1964	26.27	0.30	-0.750			
0.5529	35382.69	3.6000	3.6001	-2.2314	26.27	0.30	-0.750			
0.5596	35815.80	3.5970	3.5972	-2.2527	26.26	0.29	-0.750			
0.5663	36240.61	3.5940	3.5937	-2.2622	26.25	0.28	-0.750			
0.5731	36677.92	3.5910	3.5910	-2.2959	26.25	0.28	-0.750			
0.5802	37129.66	3.5880	3.5881	-2.3429	26.24	0.27	-0.750			
0.5874	37593.00	3.5850	3.5850	-2.3656	26.24	0.27	-0.750			
0.5944	38042.09	3.5820	3.5821	-2.3631	26.23	0.26	-0.750			
0.6015	38494.16	3.5790	3.5789	-2.3910	26.22	0.25	-0.750			
0.6087	38954.24	3.5760	3.5759	-2.4128	26.21	0.24	-0.750			
0.6159	39420.77	3.5730	3.5731	-2.4326	26.21	0.24	-0.750			
0.6233	39889.16	3.5700	3.5701	-2.4602	26.21	0.24	-0.750			
0.6308	40371.52	3.5670	3.5670	-2.4699	26.21	0.24	-0.750			
0.6382	40847.16	3.5640	3.5640	-2.4880	26.20	0.23	-0.750			
0.6456	41321.49	3.5610	3.5611	-2.4818	26.19	0.22	-0.750			
0.6532	41802.96	3.5580	3.5578	-2.4886	26.20	0.23	-0.750			
0.6606	42280.68	3.5550	3.5551	-2.4805	26.21	0.24	-0.750			
0.6681	42760.94	3.5520	3.5519	-2.4527	26.21	0.24	-0.750			
0.6755	43231.03	3.5490	3.5490	-2.4365	26.21	0.24	-0.750			
0.6828	43699.62	3.5460	3.5461	-2.4000	26.21	0.24	-0.750			
0.6899	44155.30	3.5430	3.5431	-2.3562	26.22	0.25	-0.750			
0.6969	44601.45	3.5400	3.5399	-2.3100	26.23	0.26	-0.750			
0.7038	45042.93	3.5370	3.5369	-2.2809	26.23	0.26	-0.750			
0.7107	45483.35	3.5340	3.5340	-2.2377	26.23	0.26	-0.750			
0.7173	45908.29	3.5310	3.5310	-2.1975	26.24	0.27	-0.750			
0.7238	46322.44	3.5280	3.5281	-2.1161	26.25	0.28	-0.750			
0.7301	46728.98	3.5250	3.5248	-2.0543	26.25	0.28	-0.750			
0.7362	47119.91	3.5220	3.5221	-1.9995	26.26	0.29	-0.750			
0.7421	47492.22	3.5190	3.5190	-1.9292	26.27	0.30	-0.750			
0.7477	47855.93	3.5160	3.5160	-1.8529	26.29	0.32	-0.750			
0.7533	48208.36	3.5130	3.5130	-1.7829	26.30	0.33	-0.750			
0.7584	48540.00	3.5100	3.5099	-1.7031	26.31	0.34	-0.750			
0.7635	48864.84	3.5070	3.5071	-1.6498	26.32	0.35	-0.750			
0.7683	49171.18	3.5040	3.5038	-1.5883	26.34	0.37	-0.750			
0.7729	49466.14	3.5010	3.5010	-1.5118	26.36	0.39	-0.750			
0.7774	49752.30	3.4980	3.4981	-1.4604	26.38	0.41	-0.750			
0.7817	50027.26	3.4950	3.4950	-1.4172	26.40	0.43	-0.750			
0.7858	50291.22	3.4920	3.4920	-1.3562	26.42	0.45	-0.750			
0.7898	50549.10	3.4890	3.4889	-1.3176	26.44	0.47	-0.750			
0.7937	50794.53	3.4860	3.4860	-1.2646	26.45	0.48	-0.750			
0.7974	51030.96	3.4830	3.4832	-1.2209	26.46	0.49	-0.750			
0.8010	51265.89	3.4800	3.4800	-1.1834	26.48	0.51	-0.750			
0.8045	51487.85	3.4770	3.4770	-1.1335	26.49	0.52	-0.750			
0.8078	51699.79	3.4740	3.4740	-1.0915	26.50	0.53	-0.750			
0.8110	51905.55	3.4710	3.4710	-1.0546	26.52	0.55	-0.750			
0.8141	52102.18	3.4680	3.4679	-1.0251	26.53	0.56	-0.750			
0.8171	52295.05	3.4650	3.4650	-0.9952	26.54	0.57	-0.750			
0.8200	52479.54	3.4620	3.4619	-0.9781	26.55	0.58	-0.750			
0.8229	52665.75	3.4590	3.4591	-0.9736	26.56	0.59	-0.750			
0.8258	52849.04	3.4560	3.4559	-0.9787	26.57	0.60	-0.750			
0.8286	53033.00	3.4530	3.4529	-0.9969	26.58	0.61	-0.750			
0.8316	53219.86	3.4500	3.4501	-1.0248	26.59	0.62	-0.750			
0.8347	53419.28	3.4470	3.4472	-1.0999	26.60	0.63	-0.750			
0.8380	53634.40	3.4440	3.4438	-1.1641	26.61	0.64	-0.750			
0.8417	53867.39	3.4410	3.4408	-1.2243	26.62	0.65	-0.750			
0.8455	54110.93	3.4380	3.4380	-1.2907	26.64	0.67	-0.750			
0.8496	54374.91	3.4350	3.4349	-1.3239	26.64	0.67	-0.750			
0.8537	54637.28	3.4320	3.4320	-1.3244	26.65	0.68	-0.750			
0.8578	54897.74	3.4290	3.4290	-1.2943	26.66	0.69	-0.750			
0.8616	55141.96	3.4260	3.4260	-1.2460	26.67	0.70	-0.750			
0.8653	55379.37	3.4230	3.4230	-1.2029	26.67	0.70	-0.750			
0.8688	55603.53	3.4200	3.4200	-1.1518	26.68	0.71	-0.750			
0.8721	55816.83	3.4170	3.4171	-1.1022	26.69	0.72	-0.750			
0.8754	56026.21	3.4140	3.4140	-1.0656	26.70	0.73	-0.750			
0.8785	56226.36	3.4110	3.4110	-1.0254	26.71	0.74	-0.750			
0.8816	56419.36	3.4080	3.4080	-0.9877	26.71	0.74	-0.750			
0.8844	56604.75	3.4050	3.4051	-0.9529	26.72	0.75	-0.750			
0.8872	56782.96	3.4020	3.4020	-0.9196	26.73	0.76	-0.750			
0.8899	56956.00	3.3990	3.3990	-0.8848	26.74	0.77	-0.750			
0.8926	57123.23	3.3960	3.3960	-0.8536	26.75	0.78	-0.750			
0.8951	57284.53	3.3930	3.3930	-0.8214	26.75	0.78	-0.750			
0.8975	57438.96	3.3900	3.3902	-0.7878	26.76	0.79	-0.750			
0.8998	57587.09	3.3870	3.3870	-0.7535	26.77	0.80	-0.750			
0.9020	57726.76	3.3840	3.3840	-0.7266	26.78	0.81	-0.750			
0.9041	57863.70	3.3810	3.3809	-0.6961	26.78	0.81	-0.750			
0.9062	57995.08	3.3780	3.3779	-0.6670	26.79	0.82	-0.750			
0.9081	58119.74	3.3750	3.3750	-0.6387	26.80	0.83	-0.750			
0.9100	58239.90	3.3720	3.3721	-0.6143	26.80	0.83	-0.750			
0.9118	58354.77	3.3690	3.3690	-0.5904	26.81	0.84	-0.750			
0.9135	58464.95	3.3660	3.3659	-0.5650	26.81	0.84	-0.750			
0.9152	58570.18	3.3630	3.3629	-0.5384	26.82	0.85	-0.750			
0.9168	58672.47	3.3600	3.3601	-0.5202	26.82	0.85	-0.750			
0.9183	58770.55	3.3570	3.3570	-0.4994	26.83	0.86	-0.750			
0.9197	58863.58	3.3540	3.3539	-0.4754	26.83	0.86	-0.750			
0.9211	58952.86	3.3510	3.3509	-0.4534	26.84	0.87	-0.750			
0.9225	59036.95	3.3480	3.3481	-0.4317	26.84	0.87	-0.750			
0.9237	59118.04	3.3450	3.3450	-0.4151	26.85	0.88	-0.750			
0.9249	59196.11	3.3420	3.3420	-0.3969	26.85	0.88	-0.750			
0.9261	59269.44	3.3390	3.3389	-0.3752	26.86	0.89	-0.750			
0.9272	59339.82	3.3360	3.3361	-0.3594	26.86	0.89	-0.750			
0.9282	59407.81	3.3330	3.3331	-0.3424	26.87	0.90	-0.750			
0.9292	59471.70	3.3300	3.3299	-0.3269	26.87	0.90	-0.750			
0.9302	59532.30	3.3270	3.3270	-0.3109	26.88	0.91	-0.750			
0.9311	59589.91	3.3240	3.3240	-0.2982	26.88	0.91	-0.750			
0.9320	59645.97	3.3210	3.3212	-0.2875	26.89	0.92	-0.750			
0.9328	59700.73	3.3180	3.3179	-0.2745	26.89	0.92	-0.750			
0.9336	59751.80	3.3150	3.3151	-0.2626	26.90	0.93	-0.750			
0.9344	59801.33	3.3120	3.3122	-0.2527	26.90	0.93	-0.750			
0.9351	59848.07	3.3090	3.3089	-0.2413	26.91	0.94	-0.750			
0.9358	59893.13	3.3060	3.3060	-0.2318	26.91	0.94	-0.750			
0.9365	59936.14	3.3030	3.3030	-0.2221	26.92	0.95	-0.750			
0.9372	59977.97	3.3000	3.3001	-0.2139	26.92	0.95	-0.750			
0.9378	60018.65	3.2970	3.2970	-0.2076	26.93	0.96	-0.750			
0.9384	60057.11	3.2940	3.2941	-0.1993	26.93	0.96	-0.750			
0.9390	60094.74	3.2910	3.2909	-0.1927	26.94	0.97	-0.750			
0.9395	60130.99	3.2880	3.2880	-0.1859	26.94	0.97	-0.750			
0.9401	60165.95	3.2850	3.2850	-0.1799	26.95	0.98	-0.750			
0.9406	60199.58	3.2820	3.2821	-0.1743	26.95	0.98	-0.750			
0.9411	60232.56	3.2790	3.2790	-0.1692	26.95	0.98	-0.750			
0.9416	60264.53	3.2760	3.2760	-0.1639	26.96	0.99	-0.750			
0.9421	60295.19	3.2730	3.2730	-0.1590	26.96	0.99	-0.750			
0.9426	60325.12	3.2700	3.2701	-0.1549	26.97	1.00	-0.750			
0.9430	60354.49	3.2670	3.2669	-0.1510	26.97	1.00	-0.750			
0.9435	60383.11	3.2640	3.2641	-0.1477	26.97	1.00	-0.750			
0.9439	60410.98	3.2610	3.2609	-0.1440	26.98	1.01	-0.750			
0.9443	60438.16	3.2580	3.2581	-0.1404	26.98	1.01	-0.750			
0.9448	60464.83	3.2550	3.2550	-0.1374	26.99	1.02	-0.750			
0.9452	60491.07	3.2520	3.2520	-0.1346	26.99	1.02	-0.750			
0.9456	60516.54	3.2490	3.2490	-0.1314	26.99	1.02	-0.750			
0.9460	60541.42	3.2460	3.2460	-0.1282	26.99	1.02	-0.750			
0.9463	60565.71	3.2430	3.2430	-0.1254	27.00	1.03	-0.750			
0.9467	60589.43	3.2400	3.2400	-0.1225	27.00	1.03	-0.750			
0.9471	60612.63	3.2370	3.2371	-0.1201	26.99	1.02	-0.750			
0.9474	60635.35	3.2340	3.2340	-0.1174	26.99	1.02	-0.750			
0.9478	60657.51	3.2310	3.2310	-0.1154	27.00	1.03	-0.750			
0.9481	60679.32	3.2280	3.2281	-0.1132	27.00	1.03	-0.750			
0.9485	60700.97	3.2250	3.2249	-0.1111	27.01	1.04	-0.750			
0.9488	60722.12	3.2220	3.2220	-0.1091	27.01	1.04	-0.750			
0.9491	60742.82	3.2190	3.2190	-0.1073	27.01	1.04	-0.750			
0.9494	60763.25	3.2160	3.2161	-0.1055	27.02	1.05	-0.750			
0.9497	60783.23	3.2130	3.2130	-0.1039	27.02	1.05	-0.750			
0.9500	60802.95	3.2100	3.2100	-0.1021	27.02	1.05	-0.750			
0.9503	60822.39	3.2070	3.2070	-0.1006	27.03	1.06	-0.750			
0.9506	60841.40	3.2040	3.2040	-0.0989	27.03	1.06	-0.750			
0.9509	60860.34	3.2010	3.2009	-0.0974	27.03	1.06	-0.750			
0.9512	60879.05	3.1980	3.1980	-0.0961	27.04	1.07	-0.750			
0.9515	60897.30	3.1950	3.1950	-0.0946	27.04	1.07	-0.750			
0.9518	60915.28	3.1920	3.1920	-0.0930	27.04	1.07	-0.750			
0.9521	60932.87	3.1890	3.1891	-0.0918	27.05	1.08	-0.750			
0.9523	60950.24	3.1860	3.1859	-0.0903	27.05	1.08	-0.750			
0.9526	60967.53	3.1830	3.1830	-0.0891	27.05	1.08	-0.750			
0.9529	60984.49	3.1800	3.1800	-0.0878	27.05	1.08	-0.750			
0.9531	61001.24	3.1770	3.1769	-0.0867	27.06	1.09	-0.750			
0.9534	61017.72	3.1740	3.1741	-0.0858	27.06	1.09	-0.750			
0.9537	61034.10	3.1710	3.1710	-0.0848	27.06	1.09	-0.750			
0.9539	61050.32	3.1680	3.1680	-0.0837	27.07	1.10	-0.750			
0.9542	61066.30	3.1650	3.1649	-0.0827	27.07	1.10	-0.750			
0.9544	61082.00	3.1620	3.1620	-0.0816	27.07	1.10	-0.750			
0.9546	61097.46	3.1590	3.1591	-0.0809	27.07	1.10	-0.750			
0.9549	61112.95	3.1560	3.1561	-0.0803	27.08	1.11	-0.750			
0.9551	61128.29	3.1530	3.1529	-0.0795	27.08	1.11	-0.750			
0.9554	61143.55	3.1500	3.1499	-0.0783	27.08	1.11	-0.750			
0.9556	61158.46	3.1470	3.1470	-0.0773	27.08	1.11	-0.750			
0.9558	61173.20	3.1440	3.1441	-0.0765	27.09	1.12	-0.750			
0.9561	61187.80	3.1410	3.1410	-0.0756	27.09	1.12	-0.750			
0.9563	61202.39	3.1380	3.1380	-0.0748	27.09	1.12	-0.750			
0.9565	61216.53	3.1350	3.1349	-0.0742	27.09	1.12	-0.750			
0.9567	61230.43	3.1320	3.1320	-0.0729	27.10	1.13	-0.750			
0.9569	61244.38	3.1290	3.1290	-0.0725	27.10	1.13	-0.750			
0.9572	61258.30	3.1260	3.1260	-0.0718	27.10	1.13	-0.750			
0.9574	61272.13	3.1230	3.1231	-0.0713	27.10	1.13	-0.750			
0.9576	61285.83	3.1200	3.1200	-0.0705	27.10	1.13	-0.750			
0.9578	61299.27	3.1170	3.1170	-0.0696	27.10	1.13	-0.750			
0.9580	61312.66	3.1140	3.1139	-0.0689	27.11	1.14	-0.750			
0.9582	61325.65	3.1110	3.1111	-0.0684	27.11	1.14	-0.750			
0.9584	61338.61	3.1080	3.1081	-0.0676	27.11	1.14	-0.750			
0.9586	61351.54	3.1050	3.1050	-0.0671	27.11	1.14	-0.750			
0.9588	61364.39	3.1020	3.1018	-0.0666	27.11	1.14	-0.750			
0.9590	61377.04	3.0990	3.0990	-0.0659	27.12	1.15	-0.750			
0.9592	61389.66	3.0960	3.0960	-0.0655	27.12	1.15	-0.750			
0.9594	61402.25	3.0930	3.0930	-0.0649	27.12	1.15	-0.750			
0.9596	61414.80	3.0900	3.0900	-0.0646	27.12	1.15	-0.750			
0.9598	61427.14	3.0870	3.0870	-0.0639	27.12	1.15	-0.750			
0.9600	61439.33	3.0840	3.0840	-0.0634	27.12	1.15	-0.750			
0.9602	61451.38	3.0810	3.0810	-0.0627	27.13	1.16	-0.750			
0.9604	61463.36	3.0780	3.0781	-0.0621	27.13	1.16	-0.750			
0.9605	61475.18	3.0750	3.0750	-0.0618	27.13	1.16	-0.750			
0.9607	61486.94	3.0720	3.0720	-0.0612	27.13	1.16	-0.750			
0.9609	61498.66	3.0690	3.0690	-0.0609	27.13	1.16	-0.750			
0.9611	61510.31	3.0660	3.0661	-0.0605	27.13	1.16	-0.750			
0.9613	61521.92	3.0630	3.0629	-0.0598	27.14	1.17	-0.750			
0.9615	61533.35	3.0600	3.0601	-0.0593	27.14	1.17	-0.750			
0.9616	61544.68	3.0570	3.0570	-0.0588	27.14	1.17	-0.750			
0.9618	61555.86	3.0540	3.0540	-0.0586	27.14	1.17	-0.750			
0.9620	61567.07	3.0510	3.0510	-0.0582	27.14	1.17	-0.750			
0.9622	61578.20	3.0480	3.0480	-0.0578	27.14	1.17	-0.750			
0.9623	61589.25	3.0450	3.0448	-0.0571	27.15	1.18	-0.750			
0.9625	61600.17	3.0420	3.0420	-0.0567	27.15	1.18	-0.750			
0.9627	61611.02	3.0390	3.0390	-0.0563	27.15	1.18	-0.750			
0.9628	61621.79	3.0360	3.0362	-0.0559	27.15	1.18	-0.750			
0.9630	61632.56	3.0330	3.0331	-0.0557	27.15	1.18	-0.750			
0.9632	61643.22	3.0300	3.0300	-0.0552	27.15	1.18	-0.750			
0.9633	61653.78	3.0270	3.0269	-0.0548	27.15	1.18	-0.750			
0.9635	61664.07	3.0240	3.0239	-0.0543	27.16	1.19	-0.750			
0.9637	61674.47	3.0210	3.0211	-0.0541	27.16	1.19	-0.750			
0.9638	61684.85	3.0180	3.0180	-0.0539	27.16	1.19	-0.750			
0.9640	61695.24	3.0150	3.0150	-0.0538	27.16	1.19	-0.750			
0.9641	61705.53	3.0120	3.0121	-0.0535	27.16	1.19	-0.750			
0.9643	61715.78	3.0090	3.0092	-0.0532	27.16	1.19	-0.750			
0.9645	61725.96	3.0060	3.0060	-0.0529	27.16	1.19	-0.751			
