Ah_balance (normalized)	Ah_balance (mAh)	Voltage - fit (V)	Voltage -  interpolate (V)	dQ/dV (1/V)	Temperature (°C)	Temperature - diff (°C)	Current (C)	R_DC 0ms (mOhm)	R_DC 50ms (mOhm)	R_DC 50 ms PEC (mOhm)
0.0509	3255.84	4.1990	4.1990	0.8195	26.72	0.77	0.750			
0.0533	3411.20	4.1960	4.1960	0.7990	26.72	0.77	0.750			
0.0557	3562.08	4.1930	4.1932	0.7813	26.72	0.77	0.750			
0.0580	3709.71	4.1900	4.1899	0.7689	26.72	0.77	0.750			
0.0602	3855.23	4.1870	4.1870	0.7588	26.72	0.77	0.750			
0.0625	3999.03	4.1840	4.1841	0.7562	26.72	0.77	0.750			
0.0647	4143.46	4.1810	4.1811	0.7607	26.72	0.77	0.750			
0.0670	4290.62	4.1780	4.1780	0.7659	26.72	0.77	0.750			
0.0693	4436.88	4.1750	4.1749	0.7685	26.72	0.77	0.750			
0.0716	4584.97	4.1720	4.1721	0.7710	26.72	0.77	0.750			
0.0740	4735.04	4.1690	4.1690	0.7705	26.72	0.77	0.750			
0.0763	4882.73	4.1660	4.1660	0.7720	26.72	0.77	0.750			
0.0786	5030.15	4.1630	4.1631	0.7761	26.72	0.77	0.750			
0.0809	5179.87	4.1600	4.1599	0.7759	26.72	0.77	0.750			
0.0833	5329.05	4.1570	4.1569	0.7795	26.72	0.77	0.750			
0.0856	5479.15	4.1540	4.1541	0.7821	26.72	0.77	0.750			
0.0880	5631.33	4.1510	4.1510	0.7836	26.72	0.77	0.750			
0.0904	5782.41	4.1480	4.1479	0.7807	26.72	0.77	0.750			
0.0927	5930.62	4.1450	4.1451	0.7746	26.72	0.77	0.750			
0.0950	6077.56	4.1420	4.1421	0.7752	26.72	0.77	0.750			
0.0973	6227.02	4.1390	4.1389	0.7814	26.71	0.76	0.750			
0.0996	6376.22	4.1360	4.1360	0.7814	26.71	0.76	0.750			
0.1020	6527.34	4.1330	4.1331	0.7828	26.71	0.76	0.750			
0.1043	6678.33	4.1300	4.1301	0.7870	26.71	0.76	0.750			
0.1067	6830.20	4.1270	4.1270	0.7889	26.71	0.76	0.750			
0.1091	6981.51	4.1240	4.1240	0.7896	26.71	0.76	0.750			
0.1114	7131.38	4.1210	4.1210	0.7883	26.71	0.76	0.750			
0.1138	7283.28	4.1180	4.1178	0.7947	26.71	0.76	0.750			
0.1162	7437.57	4.1150	4.1150	0.7967	26.71	0.76	0.750			
0.1186	7593.35	4.1120	4.1120	0.7886	26.71	0.76	0.750			
0.1210	7743.41	4.1090	4.1090	0.7928	26.72	0.77	0.750			
0.1234	7894.97	4.1060	4.1060	0.7953	26.72	0.77	0.750			
0.1257	8046.11	4.1030	4.1030	0.7933	26.72	0.77	0.750			
0.1281	8198.08	4.1000	4.1002	0.7969	26.72	0.77	0.750			
0.1305	8352.89	4.0970	4.0971	0.7983	26.72	0.77	0.750			
0.1329	8507.32	4.0940	4.0940	0.8056	26.72	0.77	0.750			
0.1354	8663.49	4.0910	4.0910	0.8109	26.72	0.77	0.750			
0.1377	8815.70	4.0880	4.0881	0.8108	26.72	0.77	0.750			
0.1402	8972.15	4.0850	4.0850	0.8155	26.72	0.77	0.750			
0.1427	9131.32	4.0820	4.0820	0.8137	26.72	0.77	0.750			
0.1451	9287.26	4.0790	4.0790	0.8172	26.72	0.77	0.750			
0.1476	9444.26	4.0760	4.0761	0.8198	26.72	0.77	0.750			
0.1500	9601.41	4.0730	4.0730	0.8203	26.72	0.77	0.750			
0.1525	9759.42	4.0700	4.0699	0.8207	26.72	0.77	0.750			
0.1550	9918.84	4.0670	4.0670	0.8140	26.72	0.77	0.750			
0.1574	10074.94	4.0640	4.0641	0.8203	26.72	0.77	0.750			
0.1599	10231.69	4.0610	4.0611	0.8243	26.72	0.77	0.750			
0.1623	10388.39	4.0580	4.0580	0.8285	26.72	0.77	0.750			
0.1648	10546.67	4.0550	4.0550	0.8368	26.72	0.77	0.750			
0.1674	10711.00	4.0520	4.0520	0.8351	26.72	0.77	0.750			
0.1699	10872.08	4.0490	4.0491	0.8492	26.72	0.77	0.750			
0.1724	11036.51	4.0460	4.0460	0.8512	26.72	0.77	0.750			
0.1750	11198.65	4.0430	4.0430	0.8466	26.72	0.77	0.750			
0.1775	11361.48	4.0400	4.0400	0.8484	26.72	0.77	0.750			
0.1801	11525.58	4.0370	4.0371	0.8470	26.72	0.77	0.750			
0.1826	11688.94	4.0340	4.0341	0.8515	26.72	0.77	0.750			
0.1852	11853.35	4.0310	4.0310	0.8575	26.72	0.77	0.750			
0.1877	12015.19	4.0280	4.0281	0.8515	26.72	0.77	0.750			
0.1903	12182.10	4.0250	4.0251	0.8602	26.72	0.77	0.750			
0.1929	12347.87	4.0220	4.0220	0.8594	26.72	0.77	0.750			
0.1955	12511.67	4.0190	4.0190	0.8650	26.72	0.77	0.750			
0.1981	12678.74	4.0160	4.0160	0.8685	26.72	0.77	0.750			
0.2007	12843.98	4.0130	4.0129	0.8711	26.72	0.77	0.750			
0.2033	13011.46	4.0100	4.0101	0.8747	26.72	0.77	0.750			
0.2060	13181.58	4.0070	4.0070	0.8787	26.72	0.77	0.750			
0.2086	13350.92	4.0040	4.0040	0.8817	26.72	0.77	0.750			
0.2113	13520.88	4.0010	4.0010	0.8850	26.72	0.77	0.750			
0.2139	13689.60	3.9980	3.9980	0.8826	26.72	0.77	0.750			
0.2166	13862.24	3.9950	3.9949	0.8816	26.72	0.77	0.750			
0.2192	14030.39	3.9920	3.9920	0.8790	26.72	0.77	0.750			
0.2218	14197.83	3.9890	3.9891	0.8879	26.72	0.77	0.750			
0.2245	14367.98	3.9860	3.9861	0.8925	26.72	0.77	0.750			
0.2272	14539.12	3.9830	3.9827	0.8949	26.72	0.77	0.750			
0.2299	14712.83	3.9800	3.9801	0.8956	26.72	0.77	0.750			
0.2326	14885.25	3.9770	3.9771	0.9053	26.72	0.77	0.750			
0.2353	15059.82	3.9740	3.9741	0.9125	26.72	0.77	0.750			
0.2381	15236.04	3.9710	3.9709	0.9134	26.72	0.77	0.750			
0.2408	15411.28	3.9680	3.9680	0.9166	26.72	0.77	0.750			
0.2436	15589.24	3.9650	3.9651	0.9218	26.72	0.77	0.750			
0.2464	15768.24	3.9620	3.9619	0.9188	26.73	0.78	0.750			
0.2492	15946.77	3.9590	3.9590	0.9174	26.73	0.78	0.750			
0.2519	16118.47	3.9560	3.9560	0.9136	26.73	0.78	0.750			
0.2546	16294.71	3.9530	3.9529	0.9083	26.73	0.78	0.750			
0.2573	16468.44	3.9500	3.9499	0.9113	26.73	0.78	0.750			
0.2600	16642.61	3.9470	3.9471	0.9130	26.72	0.77	0.750			
0.2628	16819.55	3.9440	3.9440	0.9193	26.72	0.77	0.750			
0.2656	16996.78	3.9410	3.9410	0.9238	26.72	0.77	0.750			
0.2683	17174.09	3.9380	3.9380	0.9198	26.72	0.77	0.750			
0.2711	17349.14	3.9350	3.9351	0.9236	26.72	0.77	0.750			
0.2739	17528.92	3.9320	3.9320	0.9321	26.72	0.77	0.750			
0.2767	17706.58	3.9290	3.9289	0.9308	26.72	0.77	0.750			
0.2795	17886.90	3.9260	3.9260	0.9309	26.72	0.77	0.750			
0.2823	18065.72	3.9230	3.9231	0.9310	26.72	0.77	0.750			
0.2851	18245.66	3.9200	3.9201	0.9325	26.72	0.77	0.750			
0.2879	18424.06	3.9170	3.9170	0.9299	26.72	0.77	0.750			
0.2906	18601.42	3.9140	3.9140	0.9283	26.72	0.77	0.750			
0.2934	18779.69	3.9110	3.9110	0.9211	26.71	0.76	0.750			
0.2962	18954.95	3.9080	3.9079	0.9270	26.71	0.76	0.750			
0.2989	19132.30	3.9050	3.9052	0.9368	26.70	0.75	0.750			
0.3018	19313.24	3.9020	3.9016	0.9390	26.70	0.75	0.750			
0.3046	19497.35	3.8990	3.8990	0.9316	26.70	0.75	0.750			
0.3074	19676.39	3.8960	3.8960	0.9378	26.70	0.75	0.750			
0.3102	19855.46	3.8930	3.8932	0.9501	26.69	0.74	0.750			
0.3131	20036.22	3.8900	3.8899	0.9511	26.69	0.74	0.750			
0.3160	20220.90	3.8870	3.8870	0.9498	26.69	0.74	0.750			
0.3188	20402.34	3.8840	3.8842	0.9570	26.68	0.73	0.750			
0.3217	20588.70	3.8810	3.8811	0.9723	26.67	0.72	0.750			
0.3247	20780.55	3.8780	3.8780	0.9804	26.66	0.71	0.750			
0.3276	20966.45	3.8750	3.8750	0.9755	26.66	0.71	0.750			
0.3305	21152.02	3.8720	3.8721	0.9820	26.65	0.70	0.750			
0.3335	21342.53	3.8690	3.8691	0.9924	26.65	0.70	0.750			
0.3365	21534.06	3.8660	3.8660	1.0050	26.64	0.69	0.750			
0.3395	21726.15	3.8630	3.8629	1.0069	26.64	0.69	0.750			
0.3425	21920.91	3.8600	3.8601	1.0116	26.63	0.68	0.750			
0.3456	22117.97	3.8570	3.8570	1.0252	26.62	0.67	0.750			
0.3487	22314.18	3.8540	3.8541	1.0296	26.62	0.67	0.750			
0.3518	22512.67	3.8510	3.8508	1.0337	26.61	0.66	0.750			
0.3549	22711.98	3.8480	3.8480	1.0397	26.60	0.65	0.750			
0.3580	22911.46	3.8450	3.8450	1.0464	26.59	0.64	0.750			
0.3611	23113.57	3.8420	3.8420	1.0576	26.59	0.64	0.750			
0.3643	23317.69	3.8390	3.8389	1.0562	26.58	0.63	0.750			
0.3675	23520.68	3.8360	3.8360	1.0648	26.57	0.62	0.750			
0.3707	23725.49	3.8330	3.8331	1.0741	26.56	0.61	0.750			
0.3740	23932.95	3.8300	3.8300	1.0835	26.55	0.60	0.750			
0.3773	24144.29	3.8270	3.8269	1.0759	26.54	0.59	0.750			
0.3805	24349.84	3.8240	3.8240	1.0833	26.53	0.58	0.750			
0.3837	24557.27	3.8210	3.8211	1.0879	26.52	0.57	0.750			
0.3870	24766.96	3.8180	3.8180	1.0958	26.51	0.56	0.750			
0.3903	24978.97	3.8150	3.8149	1.0852	26.50	0.55	0.750			
0.3935	25185.12	3.8120	3.8121	1.1025	26.49	0.54	0.750			
0.3968	25396.74	3.8090	3.8091	1.1178	26.48	0.53	0.750			
0.4002	25614.62	3.8060	3.8059	1.1320	26.46	0.51	0.750			
0.4036	25833.14	3.8030	3.8031	1.1231	26.45	0.50	0.750			
0.4070	26050.30	3.8000	3.8002	1.1336	26.44	0.49	0.750			
0.4104	26268.70	3.7970	3.7971	1.1406	26.43	0.48	0.750			
0.4139	26491.12	3.7940	3.7936	1.1455	26.42	0.47	0.750			
0.4172	26703.45	3.7910	3.7912	1.1423	26.41	0.46	0.750			
0.4207	26922.38	3.7880	3.7881	1.1642	26.39	0.44	0.750			
0.4242	27149.97	3.7850	3.7850	1.1871	26.38	0.43	0.750			
0.4278	27382.08	3.7820	3.7819	1.1796	26.37	0.42	0.750			
0.4313	27604.85	3.7790	3.7792	1.2230	26.36	0.41	0.750			
0.4350	27840.32	3.7760	3.7762	1.2577	26.35	0.40	0.750			
0.4389	28087.31	3.7730	3.7725	1.2860	26.34	0.39	0.750			
0.4427	28332.97	3.7700	3.7701	1.3123	26.33	0.38	0.750			
0.4467	28589.94	3.7670	3.7672	1.3560	26.31	0.36	0.750			
0.4510	28861.33	3.7640	3.7640	1.3859	26.29	0.34	0.750			
0.4552	29130.07	3.7610	3.7610	1.4093	26.28	0.33	0.750	0.321	0.410	
0.4593	29393.31	3.7580	3.7582	1.4105	26.27	0.32	0.750			
0.4636	29671.41	3.7550	3.7547	1.4402	26.25	0.30	0.750			
0.4680	29952.71	3.7520	3.7520	1.4558	26.24	0.29	0.750			
0.4723	30227.86	3.7490	3.7492	1.4768	26.22	0.27	0.750			
0.4768	30512.99	3.7460	3.7460	1.5206	26.21	0.26	0.750			
0.4814	30807.52	3.7430	3.7431	1.5503	26.19	0.24	0.750			
0.4861	31111.38	3.7400	3.7401	1.5717	26.18	0.23	0.750			
0.4909	31417.17	3.7370	3.7370	1.6196	26.16	0.21	0.750			
0.4958	31733.08	3.7340	3.7338	1.6839	26.14	0.19	0.750			
0.5009	32058.58	3.7310	3.7309	1.7222	26.11	0.16	0.750			
0.5061	32392.63	3.7280	3.7281	1.7707	26.10	0.15	0.750			
0.5115	32737.85	3.7250	3.7254	1.8181	26.09	0.14	0.750			
0.5171	33096.66	3.7220	3.7218	1.8757	26.07	0.12	0.750			
0.5228	33461.51	3.7190	3.7191	1.9317	26.05	0.10	0.750			
0.5287	33835.38	3.7160	3.7161	1.9817	26.02	0.07	0.750			
0.5347	34220.75	3.7130	3.7130	2.0491	26.00	0.05	0.750			
0.5409	34617.63	3.7100	3.7099	2.1054	25.98	0.03	0.750			
0.5474	35030.45	3.7070	3.7073	2.1707	25.96	0.01	0.750			
0.5540	35457.76	3.7040	3.7039	2.2239	25.95	-0.00	0.750			
0.5607	35886.68	3.7010	3.7011	2.2870	25.94	-0.01	0.750			
0.5675	36322.14	3.6980	3.6981	2.3302	25.92	-0.03	0.750			
0.5748	36788.04	3.6950	3.6949	2.3778	25.90	-0.05	0.750			
0.5819	37241.79	3.6920	3.6922	2.4502	25.87	-0.08	0.750			
0.5893	37716.08	3.6890	3.6892	2.5615	25.85	-0.10	0.750			
0.5972	38218.79	3.6860	3.6859	2.6358	25.83	-0.12	0.750			
0.6051	38729.20	3.6830	3.6830	2.6964	25.82	-0.13	0.750			
0.6135	39262.02	3.6800	3.6799	2.8103	25.81	-0.14	0.750			
0.6220	39804.97	3.6770	3.6770	2.8777	25.79	-0.16	0.750			
0.6307	40367.32	3.6740	3.6741	2.9874	25.77	-0.18	0.750			
0.6400	40960.93	3.6710	3.6709	3.1012	25.76	-0.19	0.750			
0.6496	41573.65	3.6680	3.6679	3.1067	25.75	-0.20	0.750			
0.6591	42185.51	3.6650	3.6651	3.0209	25.74	-0.21	0.750			
0.6681	42761.36	3.6620	3.6619	2.8015	25.74	-0.21	0.750			
0.6762	43275.97	3.6590	3.6592	2.5328	25.73	-0.22	0.750			
0.6833	43733.00	3.6560	3.6560	2.2569	25.72	-0.23	0.750			
0.6895	44127.65	3.6530	3.6528	2.0357	25.72	-0.23	0.750			
0.6950	44478.37	3.6500	3.6499	1.8197	25.73	-0.22	0.750			
0.7002	44811.08	3.6470	3.6469	1.6782	25.74	-0.21	0.750			
0.7048	45107.87	3.6440	3.6440	1.5346	25.74	-0.21	0.750			
0.7093	45392.54	3.6410	3.6412	1.4359	25.73	-0.22	0.750			
0.7134	45658.09	3.6380	3.6379	1.3598	25.73	-0.22	0.750			
0.7173	45906.18	3.6350	3.6349	1.2755	25.73	-0.22	0.750			
0.7208	46130.80	3.6320	3.6320	1.2222	25.74	-0.21	0.750			
0.7243	46357.06	3.6290	3.6290	1.2040	25.74	-0.21	0.750			
0.7279	46583.81	3.6260	3.6261	1.1997	25.74	-0.21	0.750			
0.7315	46814.55	3.6230	3.6230	1.2086	25.74	-0.21	0.750			
0.7351	47047.37	3.6200	3.6200	1.2136	25.75	-0.20	0.750			
0.7388	47286.38	3.6170	3.6169	1.2117	25.75	-0.20	0.750			
0.7425	47521.09	3.6140	3.6140	1.2144	25.75	-0.20	0.750			
0.7462	47754.18	3.6110	3.6110	1.2007	25.75	-0.20	0.750			
0.7498	47984.51	3.6080	3.6081	1.1820	25.75	-0.20	0.750			
0.7533	48209.18	3.6050	3.6051	1.1627	25.75	-0.20	0.750			
0.7566	48425.37	3.6020	3.6021	1.1496	25.75	-0.20	0.750			
0.7600	48641.99	3.5990	3.5991	1.1543	25.74	-0.21	0.750			
0.7635	48862.79	3.5960	3.5957	1.1640	25.74	-0.21	0.750			
0.7669	49083.23	3.5930	3.5932	1.1854	25.74	-0.21	0.750			
0.7705	49313.86	3.5900	3.5901	1.2184	25.75	-0.20	0.750			
0.7743	49553.17	3.5870	3.5870	1.2492	25.75	-0.20	0.750			
0.7781	49798.94	3.5840	3.5839	1.2884	25.75	-0.20	0.750			
0.7819	50042.68	3.5810	3.5811	1.3111	25.75	-0.20	0.750			
0.7859	50299.84	3.5780	3.5781	1.3481	25.74	-0.21	0.750			
0.7900	50561.78	3.5750	3.5750	1.4007	25.74	-0.21	0.750			
0.7943	50833.56	3.5720	3.5720	1.4309	25.74	-0.21	0.750			
0.7986	51113.09	3.5690	3.5690	1.4724	25.73	-0.22	0.750			
0.8032	51402.70	3.5660	3.5662	1.5104	25.73	-0.22	0.750			
0.8078	51698.72	3.5630	3.5627	1.5433	25.73	-0.22	0.750			
0.8125	51997.28	3.5600	3.5601	1.5844	25.72	-0.23	0.750			
0.8173	52304.26	3.5570	3.5572	1.6180	25.72	-0.23	0.750			
0.8222	52622.80	3.5540	3.5539	1.6348	25.72	-0.23	0.750			
0.8273	52944.15	3.5510	3.5509	1.6447	25.72	-0.23	0.750			
0.8321	53256.12	3.5480	3.5481	1.6580	25.72	-0.23	0.750			
0.8372	53578.16	3.5450	3.5451	1.6666	25.72	-0.23	0.750			
0.8421	53896.76	3.5420	3.5421	1.6901	25.73	-0.22	0.750			
0.8472	54219.71	3.5390	3.5390	1.7116	25.74	-0.21	0.750			
0.8524	54553.82	3.5360	3.5361	1.7617	25.75	-0.20	0.750			
0.8579	54906.64	3.5330	3.5331	1.7658	25.76	-0.19	0.750			
0.8635	55265.31	3.5300	3.5298	1.6341	25.77	-0.18	0.750			
0.8687	55597.96	3.5270	3.5271	1.4407	25.78	-0.17	0.750			
0.8732	55886.30	3.5240	3.5246	1.2372	25.79	-0.16	0.750			
0.8765	56092.98	3.5210	3.5208	0.9512	25.80	-0.15	0.750			
0.8785	56226.76	3.5180	3.5175	0.7225	25.81	-0.14	0.750			
0.8799	56314.76	3.5150	3.5146	0.5214	25.82	-0.13	0.750			
0.8810	56381.41	3.5120	3.5119	0.4214	25.83	-0.12	0.750			
0.8821	56452.11	3.5090	3.5089	0.3680	25.84	-0.11	0.750			
0.8831	56516.47	3.5060	3.5060	0.3388	25.85	-0.10	0.750			
0.8840	56577.79	3.5030	3.5030	0.3189	25.85	-0.10	0.750			
0.8849	56636.30	3.5000	3.4999	0.3044	25.86	-0.09	0.750			
0.8858	56693.10	3.4970	3.4969	0.2938	25.87	-0.08	0.750			
0.8867	56746.95	3.4940	3.4941	0.2846	25.87	-0.08	0.750			
0.8875	56801.23	3.4910	3.4911	0.2793	25.88	-0.07	0.750			
0.8883	56854.38	3.4880	3.4880	0.2757	25.88	-0.07	0.750			
0.8892	56906.68	3.4850	3.4848	0.2701	25.89	-0.06	0.750			
0.8900	56957.48	3.4820	3.4820	0.2653	25.89	-0.06	0.750			
0.8908	57008.84	3.4790	3.4789	0.2591	25.90	-0.05	0.750			
0.8915	57058.42	3.4760	3.4761	0.2540	25.90	-0.05	0.750			
0.8923	57106.38	3.4730	3.4729	0.2483	25.91	-0.04	0.750			
0.8930	57153.09	3.4700	3.4700	0.2424	25.91	-0.04	0.750			
0.8937	57198.40	3.4670	3.4669	0.2356	25.91	-0.04	0.750			
0.8944	57243.53	3.4640	3.4640	0.2319	25.92	-0.03	0.750			
0.8951	57287.52	3.4610	3.4611	0.2270	25.92	-0.03	0.750			
0.8958	57331.41	3.4580	3.4579	0.2242	25.92	-0.03	0.750			
0.8965	57373.87	3.4550	3.4550	0.2188	25.93	-0.02	0.750			
0.8971	57415.02	3.4520	3.4520	0.2135	25.93	-0.02	0.750			
0.8977	57455.54	3.4490	3.4490	0.2086	25.93	-0.02	0.750			
0.8984	57495.14	3.4460	3.4460	0.2039	25.93	-0.02	0.750			
0.8990	57533.68	3.4430	3.4430	0.2005	25.94	-0.01	0.750			
0.8996	57571.91	3.4400	3.4400	0.1954	25.94	-0.01	0.750			
0.9001	57608.93	3.4370	3.4369	0.1912	25.94	-0.01	0.750			
0.9007	57645.40	3.4340	3.4340	0.1863	25.95	-0.00	0.750			
0.9013	57680.89	3.4310	3.4311	0.1817	25.95	-0.00	0.750			
0.9018	57715.37	3.4280	3.4279	0.1767	25.95	0.00	0.750			
0.9023	57748.75	3.4250	3.4251	0.1719	25.95	0.00	0.750			
0.9028	57781.25	3.4220	3.4220	0.1669	25.96	0.01	0.750			
0.9033	57812.49	3.4190	3.4189	0.1616	25.96	0.01	0.750			
0.9038	57843.48	3.4160	3.4160	0.1567	25.96	0.01	0.750			
0.9043	57873.00	3.4130	3.4130	0.1507	25.96	0.01	0.750			
0.9047	57901.71	3.4100	3.4101	0.1457	25.96	0.01	0.750			
0.9051	57929.00	3.4070	3.4069	0.1398	25.97	0.02	0.750			
0.9056	57955.28	3.4040	3.4040	0.1339	25.97	0.02	0.750			
0.9059	57980.33	3.4010	3.4010	0.1276	25.97	0.02	0.750			
0.9063	58004.27	3.3980	3.3980	0.1218	25.97	0.02	0.750			
0.9067	58027.36	3.3950	3.3950	0.1149	25.97	0.02	0.750			
0.9070	58049.03	3.3920	3.3920	0.1086	25.98	0.03	0.750			
0.9074	58070.51	3.3890	3.3890	0.1008	25.98	0.03	0.750			
0.9076	58088.93	3.3860	3.3859	0.0910	25.98	0.03	0.750			
0.9079	58106.07	3.3830	3.3833	0.0828	25.98	0.03	0.750			
0.9081	58120.94	3.3800	3.3801	0.0722	25.98	0.03	0.750			
0.9084	58134.52	3.3770	3.3772	0.0621	25.98	0.03	0.750			
0.9085	58145.32	3.3740	3.3745	0.0504	25.98	0.03	0.750			
0.9087	58153.87	3.3710	3.3718	0.0387	25.98	0.03	0.750			
0.9088	58160.17	3.3680	3.3694	0.0270	25.98	0.03	0.750			
