Ah_balance (normalized)	Ah_balance (mAh)	Voltage - fit (V)	Voltage -  interpolate (V)	dQ/dV (1/V)	Temperature (°C)	Temperature - diff (°C)	Current (C)	R_DC 0ms (mOhm)	R_DC 50ms (mOhm)	R_DC 50 ms PEC (mOhm)
0.0003	21.46	4.1640	4.1639	-0.1312	25.91	0.01	-0.750			
0.0008	51.57	4.1610	4.1609	-0.1773	25.91	0.01	-0.750			
0.0014	89.66	4.1580	4.1579	-0.2189	25.91	0.01	-0.750			
0.0021	135.83	4.1550	4.1551	-0.2605	25.91	0.01	-0.750			
0.0030	190.00	4.1520	4.1520	-0.2996	25.90	0.00	-0.750			
0.0039	251.78	4.1490	4.1489	-0.3405	25.90	0.00	-0.750			
0.0050	321.36	4.1460	4.1462	-0.3768	25.90	-0.00	-0.750			
0.0062	398.08	4.1430	4.1429	-0.4101	25.90	-0.00	-0.750			
0.0075	481.09	4.1400	4.1401	-0.4432	25.89	-0.01	-0.750			
0.0089	569.64	4.1370	4.1370	-0.4719	25.89	-0.01	-0.750			
0.0104	663.36	4.1340	4.1340	-0.5000	25.89	-0.01	-0.750			
0.0119	762.31	4.1310	4.1309	-0.5288	25.88	-0.02	-0.750			
0.0135	866.91	4.1280	4.1280	-0.5507	25.88	-0.02	-0.750			
0.0153	976.68	4.1250	4.1250	-0.5690	25.88	-0.02	-0.750			
0.0170	1089.29	4.1220	4.1221	-0.5881	25.87	-0.03	-0.750			
0.0188	1203.47	4.1190	4.1190	-0.5995	25.87	-0.03	-0.750			
0.0206	1319.46	4.1160	4.1160	-0.6124	25.86	-0.04	-0.750			
0.0225	1437.07	4.1130	4.1130	-0.6237	25.86	-0.04	-0.750			
0.0243	1557.03	4.1100	4.1100	-0.6346	25.85	-0.05	-0.750			
0.0263	1682.48	4.1070	4.1070	-0.6475	25.85	-0.05	-0.750			
0.0282	1807.78	4.1040	4.1040	-0.6561	25.84	-0.06	-0.750			
0.0302	1934.99	4.1010	4.1011	-0.6633	25.84	-0.06	-0.750			
0.0322	2063.69	4.0980	4.0979	-0.6692	25.84	-0.06	-0.750			
0.0343	2192.16	4.0950	4.0951	-0.6749	25.83	-0.07	-0.750			
0.0363	2323.32	4.0920	4.0920	-0.6785	25.83	-0.07	-0.750			
0.0384	2454.99	4.0890	4.0890	-0.6804	25.83	-0.07	-0.750			
0.0404	2585.41	4.0860	4.0860	-0.6838	25.82	-0.08	-0.750			
0.0424	2715.79	4.0830	4.0832	-0.6862	25.82	-0.08	-0.750			
0.0445	2847.76	4.0800	4.0800	-0.6894	25.82	-0.08	-0.750			
0.0465	2978.82	4.0770	4.0769	-0.6963	25.82	-0.08	-0.750			
0.0486	3112.76	4.0740	4.0740	-0.7031	25.82	-0.08	-0.750			
0.0508	3250.99	4.0710	4.0710	-0.7091	25.82	-0.08	-0.750			
0.0529	3387.81	4.0680	4.0679	-0.7108	25.82	-0.08	-0.750			
0.0551	3524.96	4.0650	4.0651	-0.7110	25.82	-0.08	-0.750			
0.0572	3662.18	4.0620	4.0620	-0.7119	25.82	-0.08	-0.750			
0.0593	3796.85	4.0590	4.0589	-0.7160	25.82	-0.08	-0.750			
0.0615	3933.86	4.0560	4.0560	-0.7181	25.81	-0.09	-0.750			
0.0636	4072.46	4.0530	4.0529	-0.7220	25.81	-0.09	-0.750			
0.0658	4212.06	4.0500	4.0499	-0.7269	25.81	-0.09	-0.750			
0.0680	4352.83	4.0470	4.0471	-0.7301	25.81	-0.09	-0.750			
0.0702	4493.84	4.0440	4.0440	-0.7293	25.81	-0.09	-0.750			
0.0724	4633.13	4.0410	4.0410	-0.7349	25.81	-0.09	-0.750			
0.0746	4773.28	4.0380	4.0381	-0.7330	25.81	-0.09	-0.750			
0.0768	4915.78	4.0350	4.0349	-0.7406	25.81	-0.09	-0.750			
0.0790	5058.32	4.0320	4.0320	-0.7423	25.81	-0.09	-0.750			
0.0813	5201.50	4.0290	4.0291	-0.7438	25.81	-0.09	-0.750			
0.0835	5343.74	4.0260	4.0260	-0.7507	25.81	-0.09	-0.750			
0.0858	5489.14	4.0230	4.0229	-0.7522	25.81	-0.09	-0.750			
0.0880	5632.68	4.0200	4.0200	-0.7511	25.82	-0.08	-0.750			
0.0903	5778.33	4.0170	4.0170	-0.7561	25.82	-0.08	-0.750			
0.0926	5924.38	4.0140	4.0143	-0.7579	25.82	-0.08	-0.750			
0.0949	6070.41	4.0110	4.0110	-0.7591	25.82	-0.08	-0.750			
0.0971	6214.89	4.0080	4.0080	-0.7632	25.82	-0.08	-0.750			
0.0994	6361.23	4.0050	4.0050	-0.7641	25.82	-0.08	-0.750			
0.1017	6509.20	4.0020	4.0020	-0.7691	25.82	-0.08	-0.750			
0.1040	6656.87	3.9990	3.9990	-0.7706	25.82	-0.08	-0.750			
0.1063	6806.10	3.9960	3.9961	-0.7714	25.82	-0.08	-0.750			
0.1087	6954.26	3.9930	3.9930	-0.7718	25.83	-0.07	-0.750			
0.1110	7102.27	3.9900	3.9901	-0.7703	25.83	-0.07	-0.750			
0.1133	7249.27	3.9870	3.9870	-0.7663	25.83	-0.07	-0.750			
0.1156	7396.02	3.9840	3.9840	-0.7690	25.84	-0.06	-0.750			
0.1179	7543.06	3.9810	3.9811	-0.7699	25.84	-0.06	-0.750			
0.1202	7690.03	3.9780	3.9779	-0.7756	25.84	-0.06	-0.750			
0.1225	7839.76	3.9750	3.9751	-0.7826	25.84	-0.06	-0.750			
0.1249	7991.67	3.9720	3.9719	-0.7828	25.85	-0.05	-0.750			
0.1272	8143.16	3.9690	3.9690	-0.7885	25.85	-0.05	-0.750			
0.1296	8295.55	3.9660	3.9659	-0.7902	25.85	-0.05	-0.750			
0.1320	8446.79	3.9630	3.9629	-0.7882	25.85	-0.05	-0.750			
0.1343	8598.07	3.9600	3.9600	-0.7926	25.86	-0.04	-0.750			
0.1367	8749.73	3.9570	3.9570	-0.7873	25.86	-0.04	-0.750			
0.1391	8902.20	3.9540	3.9540	-0.7925	25.86	-0.04	-0.750			
0.1415	9055.74	3.9510	3.9510	-0.7887	25.87	-0.03	-0.750			
0.1438	9204.66	3.9480	3.9480	-0.7871	25.87	-0.03	-0.750			
0.1461	9353.55	3.9450	3.9450	-0.7959	25.87	-0.03	-0.750			
0.1486	9507.21	3.9420	3.9420	-0.7988	25.87	-0.03	-0.750			
0.1509	9659.67	3.9390	3.9389	-0.8025	25.87	-0.03	-0.750			
0.1534	9818.19	3.9360	3.9359	-0.8094	25.87	-0.03	-0.750			
0.1558	9972.93	3.9330	3.9330	-0.8082	25.87	-0.03	-0.750			
0.1582	10127.32	3.9300	3.9300	-0.8216	25.88	-0.02	-0.750			
0.1607	10285.44	3.9270	3.9269	-0.8144	25.88	-0.02	-0.750			
0.1632	10441.96	3.9240	3.9239	-0.8121	25.88	-0.02	-0.750			
0.1656	10599.73	3.9210	3.9208	-0.8182	25.89	-0.01	-0.750			
0.1681	10757.75	3.9180	3.9180	-0.8148	25.89	-0.01	-0.750			
0.1705	10912.78	3.9150	3.9150	-0.8205	25.89	-0.01	-0.750			
0.1729	11067.66	3.9120	3.9120	-0.8179	25.89	-0.01	-0.750			
0.1754	11222.60	3.9090	3.9091	-0.8118	25.90	-0.00	-0.750			
0.1779	11384.71	3.9060	3.9059	-0.8281	25.90	-0.00	-0.750			
0.1804	11543.48	3.9030	3.9032	-0.8295	25.90	0.00	-0.750			
0.1829	11702.50	3.9000	3.8999	-0.8295	25.90	0.00	-0.750			
0.1854	11863.08	3.8970	3.8970	-0.8358	25.91	0.01	-0.750			
0.1879	12022.66	3.8940	3.8940	-0.8323	25.91	0.01	-0.750			
0.1904	12183.84	3.8910	3.8909	-0.8342	25.92	0.02	-0.750			
0.1929	12343.84	3.8880	3.8881	-0.8349	25.92	0.02	-0.750			
0.1954	12502.85	3.8850	3.8850	-0.8352	25.92	0.02	-0.750			
0.1979	12663.08	3.8820	3.8820	-0.8410	25.92	0.02	-0.750			
0.2004	12824.77	3.8790	3.8789	-0.8403	25.93	0.03	-0.750			
0.2029	12987.42	3.8760	3.8760	-0.8439	25.93	0.03	-0.750			
0.2055	13149.90	3.8730	3.8731	-0.8443	25.93	0.03	-0.750			
0.2080	13312.93	3.8700	3.8699	-0.8432	25.94	0.04	-0.750			
0.2105	13473.69	3.8670	3.8670	-0.8416	25.94	0.04	-0.750			
0.2130	13633.51	3.8640	3.8640	-0.8400	25.94	0.04	-0.750			
0.2156	13795.68	3.8610	3.8610	-0.8437	25.95	0.05	-0.750			
0.2181	13958.07	3.8580	3.8580	-0.8458	25.95	0.05	-0.750			
0.2206	14120.44	3.8550	3.8550	-0.8461	25.95	0.05	-0.750			
0.2232	14283.81	3.8520	3.8520	-0.8489	25.95	0.05	-0.750			
0.2257	14447.34	3.8490	3.8490	-0.8498	25.96	0.06	-0.750			
0.2283	14610.78	3.8460	3.8459	-0.8480	25.96	0.06	-0.750			
0.2308	14773.28	3.8430	3.8430	-0.8492	25.96	0.06	-0.750			
0.2334	14934.97	3.8400	3.8400	-0.8531	25.96	0.06	-0.750			
0.2359	15099.60	3.8370	3.8370	-0.8511	25.96	0.06	-0.750			
0.2385	15263.75	3.8340	3.8339	-0.8463	25.97	0.07	-0.750			
0.2411	15427.79	3.8310	3.8309	-0.8477	25.97	0.07	-0.750			
0.2436	15589.81	3.8280	3.8280	-0.8467	25.97	0.07	-0.750			
0.2461	15751.17	3.8250	3.8249	-0.8492	25.98	0.08	-0.750			
0.2486	15912.39	3.8220	3.8220	-0.8466	25.98	0.08	-0.750			
0.2512	16074.72	3.8190	3.8190	-0.8471	25.98	0.08	-0.750			
0.2538	16240.96	3.8160	3.8160	-0.8523	25.99	0.09	-0.750			
0.2563	16406.11	3.8130	3.8130	-0.8511	25.99	0.09	-0.750			
0.2589	16568.25	3.8100	3.8100	-0.8477	26.00	0.10	-0.750			
0.2614	16730.02	3.8070	3.8070	-0.8446	26.00	0.10	-0.750			
0.2639	16891.13	3.8040	3.8040	-0.8428	26.00	0.10	-0.750			
0.2665	17054.22	3.8010	3.8010	-0.8417	26.01	0.11	-0.750			
0.2690	17215.27	3.7980	3.7980	-0.8420	26.01	0.11	-0.750			
0.2715	17376.90	3.7950	3.7950	-0.8433	26.02	0.12	-0.750			
0.2741	17539.21	3.7920	3.7919	-0.8437	26.02	0.12	-0.750			
0.2766	17701.28	3.7890	3.7890	-0.8392	26.02	0.12	-0.750			
0.2791	17863.67	3.7860	3.7859	-0.8355	26.03	0.13	-0.750			
0.2816	18023.62	3.7830	3.7829	-0.8348	26.03	0.13	-0.750			
0.2841	18183.67	3.7800	3.7800	-0.8356	26.04	0.14	-0.750			
0.2866	18342.00	3.7770	3.7770	-0.8312	26.04	0.14	-0.750			
0.2891	18501.58	3.7740	3.7740	-0.8237	26.04	0.14	-0.750			
0.2916	18661.74	3.7710	3.7710	-0.8268	26.05	0.15	-0.750			
0.2941	18819.96	3.7680	3.7680	-0.8270	26.05	0.15	-0.750			
0.2965	18978.00	3.7650	3.7650	-0.8260	26.06	0.16	-0.750			
0.2990	19135.14	3.7620	3.7619	-0.8220	26.06	0.16	-0.750			
0.3015	19292.89	3.7590	3.7590	-0.8191	26.06	0.16	-0.750			
0.3039	19452.14	3.7560	3.7561	-0.8205	26.07	0.17	-0.750			
0.3064	19609.84	3.7530	3.7530	-0.8196	26.07	0.17	-0.750			
0.3088	19765.36	3.7500	3.7500	-0.8186	26.08	0.18	-0.750			
0.3113	19921.79	3.7470	3.7470	-0.8222	26.08	0.18	-0.750			
0.3137	20079.24	3.7440	3.7440	-0.8241	26.08	0.18	-0.750			
0.3162	20238.38	3.7410	3.7409	-0.8309	26.09	0.19	-0.750			
0.3187	20399.00	3.7380	3.7380	-0.8388	26.09	0.19	-0.750			
0.3213	20560.22	3.7350	3.7350	-0.8452	26.09	0.19	-0.750			
0.3238	20723.27	3.7320	3.7320	-0.8498	26.09	0.19	-0.750			
0.3263	20886.33	3.7290	3.7290	-0.8552	26.09	0.19	-0.750			
0.3289	21051.66	3.7260	3.7260	-0.8638	26.09	0.19	-0.750			
0.3315	21218.40	3.7230	3.7230	-0.8742	26.09	0.19	-0.750			
0.3342	21386.15	3.7200	3.7200	-0.8868	26.10	0.20	-0.750			
0.3368	21556.40	3.7170	3.7170	-0.9004	26.10	0.20	-0.750			
0.3395	21730.39	3.7140	3.7140	-0.9170	26.11	0.21	-0.750			
0.3423	21909.19	3.7110	3.7110	-0.9337	26.11	0.21	-0.750			
0.3451	22089.50	3.7080	3.7080	-0.9571	26.11	0.21	-0.750			
0.3481	22276.24	3.7050	3.7050	-0.9736	26.11	0.21	-0.750			
0.3510	22464.81	3.7020	3.7019	-0.9873	26.11	0.21	-0.750			
0.3540	22657.11	3.6990	3.6990	-1.0063	26.11	0.21	-0.750			
0.3570	22850.66	3.6960	3.6960	-1.0205	26.11	0.21	-0.750			
0.3601	23047.32	3.6930	3.6929	-1.0380	26.10	0.20	-0.750			
0.3632	23247.43	3.6900	3.6900	-1.0589	26.10	0.20	-0.750			
0.3664	23449.64	3.6870	3.6870	-1.0766	26.09	0.19	-0.750			
0.3697	23662.84	3.6840	3.6840	-1.1087	26.09	0.19	-0.750			
0.3731	23877.46	3.6810	3.6810	-1.1328	26.09	0.19	-0.750			
0.3765	24097.33	3.6780	3.6780	-1.1555	26.08	0.18	-0.750			
0.3800	24322.05	3.6750	3.6751	-1.1780	26.08	0.18	-0.750			
0.3836	24550.05	3.6720	3.6720	-1.2002	26.08	0.18	-0.750			
0.3872	24782.04	3.6690	3.6690	-1.2253	26.07	0.17	-0.750			
0.3909	25017.60	3.6660	3.6660	-1.2552	26.07	0.17	-0.750			
0.3947	25262.12	3.6630	3.6629	-1.2854	26.07	0.17	-0.750			
0.3986	25510.79	3.6600	3.6600	-1.3136	26.06	0.16	-0.750			
0.4026	25765.60	3.6570	3.6570	-1.3499	26.05	0.15	-0.750			
0.4067	26029.74	3.6540	3.6540	-1.3766	26.05	0.15	-0.750			
0.4109	26299.80	3.6510	3.6510	-1.4007	26.05	0.15	-0.750			
0.4151	26569.09	3.6480	3.6480	-1.4410	26.04	0.14	-0.750			
0.4195	26846.84	3.6450	3.6450	-1.4719	26.03	0.13	-0.750			
0.4240	27134.63	3.6420	3.6419	-1.5075	26.02	0.12	-0.750			
0.4286	27429.62	3.6390	3.6391	-1.5267	26.01	0.11	-0.750			
0.4331	27721.05	3.6360	3.6360	-1.5694	26.01	0.11	-0.750			
0.4380	28029.37	3.6330	3.6330	-1.6074	26.01	0.11	-0.750			
0.4429	28343.77	3.6300	3.6299	-1.6273	26.01	0.11	-0.750			
0.4477	28654.17	3.6270	3.6269	-1.6584	26.00	0.10	-0.750			
0.4528	28979.62	3.6240	3.6240	-1.6847	25.99	0.09	-0.750	0.378	0.493	
0.4579	29304.37	3.6210	3.6210	-1.7263	25.99	0.09	-0.750			
0.4631	29641.26	3.6180	3.6179	-1.7510	25.98	0.08	-0.750			
0.4683	29969.62	3.6150	3.6151	-1.7761	25.97	0.07	-0.750			
0.4737	30318.57	3.6120	3.6120	-1.8175	25.96	0.06	-0.750			
0.4794	30678.65	3.6090	3.6088	-1.8512	25.95	0.05	-0.750			
0.4849	31034.58	3.6060	3.6061	-1.8854	25.95	0.05	-0.750			
0.4906	31400.65	3.6030	3.6030	-1.9285	25.94	0.04	-0.750			
0.4964	31772.33	3.6000	3.5999	-1.9554	25.94	0.04	-0.750			
0.5024	32152.66	3.5970	3.5970	-2.0094	25.93	0.03	-0.750			
0.5084	32539.89	3.5940	3.5939	-2.0222	25.93	0.03	-0.750			
0.5146	32935.29	3.5910	3.5912	-2.0656	25.93	0.03	-0.750			
0.5210	33341.79	3.5880	3.5880	-2.1065	25.92	0.02	-0.750			
0.5272	33742.96	3.5850	3.5847	-2.1384	25.91	0.01	-0.750			
0.5337	34156.60	3.5820	3.5820	-2.1665	25.92	0.02	-0.750			
0.5403	34581.34	3.5790	3.5792	-2.2113	25.93	0.03	-0.750			
0.5469	35004.39	3.5760	3.5759	-2.2416	25.92	0.02	-0.750			
0.5537	35436.33	3.5730	3.5730	-2.2734	25.91	0.01	-0.750			
0.5606	35878.68	3.5700	3.5700	-2.2867	25.91	0.01	-0.750			
0.5676	36325.69	3.5670	3.5670	-2.3033	25.91	0.01	-0.750			
0.5745	36769.06	3.5640	3.5639	-2.3102	25.91	0.01	-0.750			
0.5815	37217.74	3.5610	3.5610	-2.3184	25.91	0.01	-0.750			
0.5885	37661.15	3.5580	3.5580	-2.3122	25.91	0.01	-0.750			
0.5954	38105.86	3.5550	3.5550	-2.3058	25.91	0.01	-0.750			
0.6023	38544.55	3.5520	3.5520	-2.3075	25.91	0.01	-0.750			
0.6093	38994.29	3.5490	3.5490	-2.2978	25.92	0.02	-0.750			
0.6163	39440.29	3.5460	3.5461	-2.2856	25.93	0.03	-0.750			
0.6231	39879.96	3.5430	3.5430	-2.2592	25.94	0.04	-0.750			
0.6299	40313.81	3.5400	3.5399	-2.2267	25.95	0.05	-0.750			
0.6366	40743.69	3.5370	3.5371	-2.1622	25.95	0.05	-0.750			
0.6430	41150.74	3.5340	3.5341	-2.1036	25.95	0.05	-0.750			
0.6491	41542.30	3.5310	3.5310	-2.0639	25.96	0.06	-0.750			
0.6552	41933.08	3.5280	3.5280	-2.0197	25.97	0.07	-0.750			
0.6612	42313.81	3.5250	3.5249	-2.0043	25.98	0.08	-0.750			
0.6671	42695.15	3.5220	3.5221	-1.9588	25.98	0.08	-0.750			
0.6731	43075.45	3.5190	3.5189	-1.9379	25.99	0.09	-0.750			
0.6789	43452.71	3.5160	3.5161	-1.8810	26.00	0.10	-0.750			
0.6845	43805.40	3.5130	3.5130	-1.8132	26.01	0.11	-0.750			
0.6898	44148.31	3.5100	3.5100	-1.7470	26.02	0.12	-0.750			
0.6950	44477.44	3.5070	3.5068	-1.6843	26.04	0.14	-0.750			
0.6999	44791.98	3.5040	3.5039	-1.6293	26.05	0.15	-0.750			
0.7048	45105.87	3.5010	3.5010	-1.5844	26.06	0.16	-0.750			
0.7094	45404.77	3.4980	3.4981	-1.5356	26.07	0.17	-0.750			
0.7139	45689.49	3.4950	3.4949	-1.4675	26.09	0.19	-0.750			
0.7183	45968.90	3.4920	3.4920	-1.4276	26.10	0.20	-0.750			
0.7224	46236.39	3.4890	3.4890	-1.3723	26.12	0.22	-0.750			
0.7264	46491.62	3.4860	3.4860	-1.3222	26.14	0.24	-0.750			
0.7304	46743.42	3.4830	3.4832	-1.2807	26.15	0.25	-0.750			
0.7341	46985.60	3.4800	3.4799	-1.2429	26.16	0.26	-0.750			
0.7378	47220.83	3.4770	3.4770	-1.1990	26.18	0.28	-0.750			
0.7413	47445.34	3.4740	3.4740	-1.1599	26.19	0.29	-0.750			
0.7448	47665.72	3.4710	3.4710	-1.1365	26.20	0.30	-0.750			
0.7481	47881.48	3.4680	3.4680	-1.0999	26.21	0.31	-0.750			
0.7514	48087.30	3.4650	3.4647	-1.0610	26.22	0.32	-0.750			
0.7545	48287.85	3.4620	3.4622	-1.0270	26.23	0.33	-0.750			
0.7575	48482.56	3.4590	3.4590	-0.9977	26.24	0.34	-0.750			
0.7605	48671.17	3.4560	3.4559	-0.9678	26.26	0.36	-0.750			
0.7633	48851.72	3.4530	3.4530	-0.9337	26.27	0.37	-0.750			
0.7660	49027.08	3.4500	3.4499	-0.9113	26.28	0.38	-0.750			
0.7688	49201.09	3.4470	3.4468	-0.8995	26.30	0.40	-0.750			
0.7714	49369.23	3.4440	3.4440	-0.9008	26.31	0.41	-0.750			
0.7740	49536.10	3.4410	3.4410	-0.9073	26.32	0.42	-0.750			
0.7767	49707.34	3.4380	3.4380	-0.9238	26.33	0.43	-0.750			
0.7795	49888.50	3.4350	3.4350	-0.9585	26.34	0.44	-0.750			
0.7825	50076.80	3.4320	3.4320	-0.9937	26.35	0.45	-0.750			
0.7855	50272.30	3.4290	3.4290	-1.0200	26.35	0.45	-0.750			
0.7886	50471.85	3.4260	3.4260	-1.0490	26.36	0.46	-0.750			
0.7918	50676.73	3.4230	3.4230	-1.0690	26.37	0.47	-0.750			
0.7951	50885.99	3.4200	3.4199	-1.0898	26.37	0.47	-0.750			
0.7985	51103.10	3.4170	3.4169	-1.0804	26.38	0.48	-0.750			
0.8018	51312.60	3.4140	3.4140	-1.0737	26.39	0.49	-0.750			
0.8050	51519.59	3.4110	3.4113	-1.0509	26.39	0.49	-0.750			
0.8082	51723.13	3.4080	3.4079	-1.0285	26.40	0.50	-0.750			
0.8112	51915.50	3.4050	3.4048	-0.9908	26.41	0.51	-0.750			
0.8141	52101.39	3.4020	3.4021	-0.9524	26.42	0.52	-0.750			
0.8169	52282.04	3.3990	3.3990	-0.9220	26.43	0.53	-0.750			
0.8196	52455.90	3.3960	3.3960	-0.8916	26.44	0.54	-0.750			
0.8222	52621.20	3.3930	3.3929	-0.8544	26.44	0.54	-0.750			
0.8247	52783.42	3.3900	3.3900	-0.8260	26.45	0.55	-0.750			
0.8272	52940.24	3.3870	3.3869	-0.7891	26.45	0.55	-0.750			
0.8295	53089.81	3.3840	3.3842	-0.7599	26.46	0.56	-0.750			
0.8318	53232.64	3.3810	3.3809	-0.7290	26.47	0.57	-0.750			
0.8339	53367.40	3.3780	3.3780	-0.6973	26.47	0.57	-0.750			
0.8359	53497.18	3.3750	3.3749	-0.6707	26.48	0.58	-0.750			
0.8378	53622.26	3.3720	3.3720	-0.6442	26.49	0.59	-0.750			
0.8398	53745.49	3.3690	3.3690	-0.6228	26.49	0.59	-0.750			
0.8416	53862.85	3.3660	3.3661	-0.6016	26.50	0.60	-0.750			
0.8434	53975.68	3.3630	3.3629	-0.5776	26.50	0.60	-0.750			
0.8451	54085.20	3.3600	3.3600	-0.5546	26.51	0.61	-0.750			
0.8467	54188.29	3.3570	3.3569	-0.5290	26.52	0.62	-0.750			
0.8482	54287.65	3.3540	3.3541	-0.5073	26.53	0.63	-0.750			
0.8497	54384.00	3.3510	3.3511	-0.4872	26.54	0.64	-0.750			
0.8512	54474.51	3.3480	3.3479	-0.4691	26.54	0.64	-0.750			
0.8525	54561.99	3.3450	3.3449	-0.4501	26.55	0.65	-0.750			
0.8539	54647.55	3.3420	3.3419	-0.4342	26.56	0.66	-0.750			
0.8552	54729.99	3.3390	3.3391	-0.4199	26.56	0.66	-0.750			
0.8564	54808.70	3.3360	3.3361	-0.4034	26.57	0.67	-0.750			
0.8576	54884.16	3.3330	3.3329	-0.3899	26.57	0.67	-0.750			
0.8587	54957.16	3.3300	3.3300	-0.3725	26.58	0.68	-0.750			
0.8598	55027.00	3.3270	3.3270	-0.3595	26.58	0.68	-0.750			
0.8609	55094.42	3.3240	3.3241	-0.3471	26.59	0.69	-0.750			
0.8619	55160.46	3.3210	3.3210	-0.3357	26.59	0.69	-0.750			
0.8629	55223.29	3.3180	3.3180	-0.3226	26.60	0.70	-0.750			
0.8638	55283.32	3.3150	3.3150	-0.3116	26.60	0.70	-0.750			
0.8647	55341.89	3.3120	3.3121	-0.3025	26.61	0.71	-0.750			
0.8656	55400.13	3.3090	3.3089	-0.2941	26.61	0.71	-0.750			
0.8665	55454.82	3.3060	3.3059	-0.2833	26.62	0.72	-0.750			
0.8673	55507.93	3.3030	3.3032	-0.2746	26.62	0.72	-0.750			
0.8681	55560.00	3.3000	3.3001	-0.2668	26.63	0.73	-0.750			
0.8689	55610.65	3.2970	3.2969	-0.2588	26.63	0.73	-0.750			
0.8697	55658.93	3.2940	3.2939	-0.2522	26.63	0.73	-0.750			
0.8704	55706.49	3.2910	3.2912	-0.2450	26.64	0.74	-0.750			
0.8711	55753.25	3.2880	3.2880	-0.2396	26.64	0.74	-0.750			
0.8719	55799.16	3.2850	3.2848	-0.2336	26.65	0.75	-0.750			
0.8725	55842.61	3.2820	3.2821	-0.2270	26.65	0.75	-0.750			
0.8732	55885.49	3.2790	3.2789	-0.2214	26.66	0.76	-0.750			
0.8739	55927.62	3.2760	3.2760	-0.2164	26.66	0.76	-0.750			
0.8745	55968.63	3.2730	3.2729	-0.2111	26.67	0.77	-0.750			
0.8751	56008.15	3.2700	3.2701	-0.2054	26.67	0.77	-0.750			
0.8757	56047.12	3.2670	3.2671	-0.2023	26.67	0.77	-0.750			
0.8763	56085.56	3.2640	3.2639	-0.1982	26.68	0.78	-0.750			
0.8769	56123.04	3.2610	3.2610	-0.1946	26.68	0.78	-0.750			
0.8775	56159.58	3.2580	3.2579	-0.1911	26.69	0.79	-0.750			
0.8781	56196.24	3.2550	3.2550	-0.1880	26.69	0.79	-0.750			
0.8786	56232.13	3.2520	3.2520	-0.1847	26.69	0.79	-0.750			
0.8792	56267.51	3.2490	3.2490	-0.1816	26.70	0.80	-0.750			
0.8797	56302.18	3.2460	3.2461	-0.1782	26.70	0.80	-0.750			
0.8802	56335.61	3.2430	3.2430	-0.1746	26.70	0.80	-0.750			
0.8808	56368.86	3.2400	3.2401	-0.1719	26.71	0.81	-0.750			
0.8813	56401.52	3.2370	3.2369	-0.1691	26.71	0.81	-0.750			
0.8818	56433.60	3.2340	3.2339	-0.1660	26.72	0.82	-0.750			
0.8823	56465.20	3.2310	3.2311	-0.1643	26.72	0.82	-0.750			
0.8828	56496.48	3.2280	3.2280	-0.1620	26.73	0.83	-0.750			
0.8832	56527.39	3.2250	3.2250	-0.1600	26.73	0.83	-0.750			
0.8837	56557.83	3.2220	3.2219	-0.1583	26.73	0.83	-0.750			
0.8842	56587.84	3.2190	3.2191	-0.1564	26.74	0.84	-0.750			
0.8847	56618.00	3.2160	3.2159	-0.1549	26.74	0.84	-0.750			
0.8851	56647.56	3.2130	3.2131	-0.1530	26.75	0.85	-0.750			
0.8856	56676.98	3.2100	3.2100	-0.1511	26.75	0.85	-0.750			
0.8860	56705.43	3.2070	3.2071	-0.1493	26.76	0.86	-0.750			
0.8865	56733.99	3.2040	3.2041	-0.1479	26.76	0.86	-0.750			
0.8869	56762.24	3.2010	3.2009	-0.1462	26.76	0.86	-0.750			
0.8873	56790.01	3.1980	3.1979	-0.1446	26.77	0.87	-0.750			
0.8878	56817.80	3.1950	3.1950	-0.1426	26.77	0.87	-0.750			
0.8882	56845.30	3.1920	3.1920	-0.1413	26.77	0.87	-0.750			
0.8886	56872.00	3.1890	3.1891	-0.1402	26.78	0.88	-0.750			
0.8890	56898.61	3.1860	3.1860	-0.1391	26.78	0.88	-0.750			
0.8895	56924.84	3.1830	3.1828	-0.1376	26.79	0.89	-0.750			
0.8899	56951.32	3.1800	3.1800	-0.1363	26.79	0.89	-0.750			
0.8903	56977.58	3.1770	3.1770	-0.1350	26.79	0.89	-0.750			
0.8907	57003.30	3.1740	3.1740	-0.1340	26.80	0.90	-0.750			
0.8911	57029.16	3.1710	3.1713	-0.1332	26.80	0.90	-0.750			
0.8915	57054.52	3.1680	3.1679	-0.1317	26.80	0.90	-0.750			
0.8919	57079.36	3.1650	3.1649	-0.1299	26.81	0.91	-0.750			
0.8923	57104.01	3.1620	3.1621	-0.1291	26.81	0.91	-0.750			
0.8926	57128.93	3.1590	3.1591	-0.1279	26.81	0.91	-0.750			
0.8930	57153.58	3.1560	3.1560	-0.1271	26.82	0.92	-0.750			
0.8934	57177.92	3.1530	3.1530	-0.1262	26.82	0.92	-0.750			
0.8938	57201.97	3.1500	3.1501	-0.1251	26.83	0.93	-0.750			
0.8942	57225.74	3.1470	3.1470	-0.1238	26.83	0.93	-0.750			
0.8945	57249.49	3.1440	3.1439	-0.1230	26.84	0.94	-0.750			
0.8949	57272.99	3.1410	3.1410	-0.1218	26.84	0.94	-0.750			
0.8953	57296.02	3.1380	3.1381	-0.1208	26.85	0.95	-0.750			
0.8956	57319.16	3.1350	3.1349	-0.1203	26.85	0.95	-0.750			
0.8960	57342.38	3.1320	3.1320	-0.1196	26.85	0.95	-0.750			
0.8963	57365.18	3.1290	3.1289	-0.1186	26.86	0.96	-0.750			
0.8967	57387.92	3.1260	3.1260	-0.1178	26.86	0.96	-0.750			
0.8970	57410.51	3.1230	3.1231	-0.1171	26.87	0.97	-0.750			
0.8974	57432.94	3.1200	3.1200	-0.1161	26.87	0.97	-0.750			
0.8977	57455.26	3.1170	3.1169	-0.1153	26.87	0.97	-0.750			
0.8981	57477.36	3.1140	3.1140	-0.1140	26.88	0.98	-0.750			
0.8984	57499.09	3.1110	3.1110	-0.1127	26.88	0.98	-0.750			
0.8988	57520.36	3.1080	3.1081	-0.1124	26.89	0.99	-0.750			
0.8991	57541.76	3.1050	3.1050	-0.1116	26.89	0.99	-0.750			
0.8994	57563.09	3.1020	3.1021	-0.1114	26.90	1.00	-0.750			
0.8998	57584.18	3.0990	3.0989	-0.1108	26.90	1.00	-0.750			
0.9001	57605.67	3.0960	3.0958	-0.1101	26.90	1.00	-0.750			
0.9004	57626.85	3.0930	3.0930	-0.1097	26.91	1.01	-0.750			
0.9007	57647.90	3.0900	3.0902	-0.1090	26.91	1.01	-0.750			
0.9011	57669.14	3.0870	3.0869	-0.1088	26.92	1.02	-0.750			
0.9014	57689.88	3.0840	3.0840	-0.1076	26.92	1.02	-0.750			
0.9017	57710.28	3.0810	3.0811	-0.1062	26.92	1.02	-0.750			
0.9020	57730.38	3.0780	3.0780	-0.1060	26.93	1.03	-0.750			
0.9024	57750.48	3.0750	3.0751	-0.1052	26.93	1.03	-0.750			
0.9027	57770.77	3.0720	3.0720	-0.1047	26.93	1.03	-0.750			
0.9030	57790.87	3.0690	3.0689	-0.1043	26.94	1.04	-0.750			
0.9033	57810.95	3.0660	3.0658	-0.1035	26.94	1.04	-0.750			
0.9036	57830.79	3.0630	3.0631	-0.1028	26.95	1.05	-0.750			
0.9039	57850.38	3.0600	3.0602	-0.1024	26.95	1.05	-0.750			
0.9042	57870.14	3.0570	3.0570	-0.1020	26.95	1.05	-0.750			
0.9045	57889.62	3.0540	3.0540	-0.1012	26.96	1.06	-0.750			
0.9048	57908.73	3.0510	3.0510	-0.1001	26.96	1.06	-0.750			
0.9051	57927.90	3.0480	3.0480	-0.0997	26.96	1.06	-0.750			
0.9054	57947.04	3.0450	3.0451	-0.0993	26.97	1.07	-0.750			
0.9057	57966.13	3.0420	3.0420	-0.0987	26.97	1.07	-0.750			
0.9060	57985.12	3.0390	3.0390	-0.0982	26.97	1.07	-0.750			
0.9063	58003.77	3.0360	3.0360	-0.0978	26.98	1.08	-0.750			
0.9066	58022.32	3.0330	3.0330	-0.0971	26.98	1.08	-0.750			
0.9069	58041.00	3.0300	3.0300	-0.0967	26.98	1.08	-0.750			
0.9072	58059.59	3.0270	3.0270	-0.0964	26.99	1.09	-0.750			
0.9075	58078.13	3.0240	3.0239	-0.0956	26.99	1.09	-0.750			
0.9078	58096.45	3.0210	3.0210	-0.0950	27.00	1.10	-0.750			
0.9080	58114.60	3.0180	3.0181	-0.0944	27.00	1.10	-0.750			
0.9083	58132.80	3.0150	3.0151	-0.0939	27.00	1.10	-0.750			
0.9086	58150.75	3.0120	3.0119	-0.0931	27.01	1.11	-0.750			
0.9089	58168.38	3.0090	3.0089	-0.0924	27.01	1.11	-0.751			
0.9092	58186.09	3.0060	3.0060	-0.0920	27.01	1.11	-0.751			
0.9094	58203.73	3.0030	3.0030	-0.0927	27.02	1.12	-0.751			
