Ah_balance (normalized)	Ah_balance (mAh)	Voltage - fit (V)	Voltage -  interpolate (V)	dQ/dV (1/V)	Temperature (°C)	Temperature - diff (°C)	Current (C)	R_DC 0ms (mOhm)	R_DC 50ms (mOhm)	R_DC 50 ms PEC (mOhm)
0.0536	3433.17	4.1990	4.1990	0.7545	26.64	0.69	0.750			
0.0559	3577.74	4.1960	4.1960	0.7538	26.64	0.69	0.750			
0.0582	3722.38	4.1930	4.1930	0.7538	26.64	0.69	0.750			
0.0604	3866.33	4.1900	4.1901	0.7566	26.64	0.69	0.750			
0.0627	4013.41	4.1870	4.1870	0.7543	26.64	0.69	0.750			
0.0650	4158.09	4.1840	4.1839	0.7570	26.63	0.68	0.750			
0.0672	4302.48	4.1810	4.1810	0.7565	26.63	0.68	0.750			
0.0695	4448.47	4.1780	4.1780	0.7602	26.63	0.68	0.750			
0.0718	4593.86	4.1750	4.1751	0.7597	26.63	0.68	0.750			
0.0741	4740.77	4.1720	4.1720	0.7604	26.63	0.68	0.750			
0.0764	4886.48	4.1690	4.1690	0.7617	26.63	0.68	0.750			
0.0787	5033.97	4.1660	4.1660	0.7671	26.62	0.67	0.750			
0.0809	5179.06	4.1630	4.1631	0.7653	26.62	0.67	0.750			
0.0832	5326.99	4.1600	4.1600	0.7675	26.62	0.67	0.750			
0.0856	5475.32	4.1570	4.1570	0.7668	26.62	0.67	0.750			
0.0878	5622.20	4.1540	4.1540	0.7690	26.62	0.67	0.750			
0.0901	5769.02	4.1510	4.1511	0.7730	26.61	0.66	0.750			
0.0925	5918.22	4.1480	4.1480	0.7713	26.61	0.66	0.750			
0.0948	6066.92	4.1450	4.1448	0.7705	26.61	0.66	0.750			
0.0971	6214.86	4.1420	4.1421	0.7680	26.61	0.66	0.750			
0.0994	6362.37	4.1390	4.1390	0.7684	26.61	0.66	0.750			
0.1017	6510.19	4.1360	4.1361	0.7707	26.61	0.66	0.750			
0.1040	6656.77	4.1330	4.1329	0.7685	26.61	0.66	0.750			
0.1063	6802.48	4.1300	4.1300	0.7721	26.61	0.66	0.750			
0.1086	6952.67	4.1270	4.1270	0.7823	26.61	0.66	0.750			
0.1110	7105.58	4.1240	4.1239	0.7822	26.61	0.66	0.750			
0.1134	7255.96	4.1210	4.1211	0.7819	26.61	0.66	0.750			
0.1157	7405.40	4.1180	4.1180	0.7827	26.60	0.65	0.750			
0.1180	7554.52	4.1150	4.1150	0.7864	26.60	0.65	0.750			
0.1204	7704.65	4.1120	4.1119	0.7893	26.60	0.65	0.750			
0.1228	7856.36	4.1090	4.1090	0.7916	26.60	0.65	0.750			
0.1252	8012.10	4.1060	4.1059	0.7931	26.60	0.65	0.750			
0.1276	8165.80	4.1030	4.1031	0.7948	26.60	0.65	0.750			
0.1300	8317.30	4.1000	4.1000	0.7907	26.60	0.65	0.750			
0.1323	8468.36	4.0970	4.0968	0.7861	26.60	0.65	0.750			
0.1346	8616.26	4.0940	4.0940	0.7835	26.60	0.65	0.750			
0.1370	8768.11	4.0910	4.0910	0.7825	26.59	0.64	0.750			
0.1394	8919.48	4.0880	4.0880	0.7919	26.59	0.64	0.750			
0.1417	9071.40	4.0850	4.0850	0.7973	26.59	0.64	0.750			
0.1441	9223.84	4.0820	4.0820	0.7980	26.58	0.63	0.750			
0.1465	9378.64	4.0790	4.0791	0.8006	26.58	0.63	0.750			
0.1490	9533.41	4.0760	4.0760	0.8032	26.58	0.63	0.750			
0.1514	9686.81	4.0730	4.0731	0.8089	26.58	0.63	0.750			
0.1538	9843.70	4.0700	4.0700	0.8160	26.58	0.63	0.750			
0.1562	9999.64	4.0670	4.0669	0.8158	26.58	0.63	0.750			
0.1587	10156.86	4.0640	4.0641	0.8192	26.58	0.63	0.750			
0.1612	10316.02	4.0610	4.0610	0.8233	26.58	0.63	0.750			
0.1637	10473.95	4.0580	4.0580	0.8274	26.58	0.63	0.750			
0.1661	10632.70	4.0550	4.0549	0.8262	26.58	0.63	0.750			
0.1686	10789.53	4.0520	4.0521	0.8291	26.58	0.63	0.750			
0.1711	10950.15	4.0490	4.0490	0.8323	26.58	0.63	0.750			
0.1736	11112.77	4.0460	4.0459	0.8258	26.58	0.63	0.750			
0.1761	11270.58	4.0430	4.0430	0.8302	26.58	0.63	0.750			
0.1786	11428.22	4.0400	4.0402	0.8348	26.59	0.64	0.750			
0.1811	11587.98	4.0370	4.0371	0.8373	26.59	0.64	0.750			
0.1836	11750.39	4.0340	4.0340	0.8409	26.59	0.64	0.750			
0.1861	11912.29	4.0310	4.0311	0.8410	26.59	0.64	0.750			
0.1887	12075.89	4.0280	4.0281	0.8465	26.59	0.64	0.750			
0.1912	12238.49	4.0250	4.0250	0.8486	26.58	0.63	0.750			
0.1937	12399.02	4.0220	4.0220	0.8460	26.58	0.63	0.750			
0.1963	12562.42	4.0190	4.0190	0.8508	26.58	0.63	0.750			
0.1989	12727.38	4.0160	4.0160	0.8506	26.58	0.63	0.750			
0.2014	12890.78	4.0130	4.0130	0.8557	26.58	0.63	0.750			
0.2040	13055.84	4.0100	4.0101	0.8604	26.58	0.63	0.750			
0.2066	13220.80	4.0070	4.0070	0.8614	26.58	0.63	0.750			
0.2092	13386.32	4.0040	4.0040	0.8606	26.58	0.63	0.750			
0.2117	13551.67	4.0010	4.0010	0.8576	26.58	0.63	0.750			
0.2143	13715.82	3.9980	3.9981	0.8639	26.58	0.63	0.750			
0.2169	13882.98	3.9950	3.9950	0.8683	26.58	0.63	0.750			
0.2195	14047.59	3.9920	3.9918	0.8693	26.58	0.63	0.750			
0.2221	14215.74	3.9890	3.9889	0.8724	26.58	0.63	0.750			
0.2247	14383.70	3.9860	3.9861	0.8772	26.58	0.63	0.750			
0.2274	14553.97	3.9830	3.9831	0.8771	26.58	0.63	0.750			
0.2301	14723.58	3.9800	3.9800	0.8807	26.58	0.63	0.750			
0.2327	14891.22	3.9770	3.9769	0.8775	26.58	0.63	0.750			
0.2353	15059.65	3.9740	3.9741	0.8748	26.58	0.63	0.750			
0.2379	15226.58	3.9710	3.9710	0.8770	26.58	0.63	0.750			
0.2405	15395.12	3.9680	3.9680	0.8844	26.58	0.63	0.750			
0.2432	15565.32	3.9650	3.9650	0.8831	26.58	0.63	0.750			
0.2459	15736.02	3.9620	3.9620	0.8844	26.58	0.63	0.750			
0.2485	15905.03	3.9590	3.9591	0.8814	26.57	0.62	0.750			
0.2512	16074.53	3.9560	3.9561	0.8852	26.57	0.62	0.750			
0.2538	16244.02	3.9530	3.9529	0.8894	26.57	0.62	0.750			
0.2565	16412.82	3.9500	3.9500	0.8896	26.56	0.61	0.750			
0.2591	16584.93	3.9470	3.9470	0.8940	26.56	0.61	0.750			
0.2619	16760.69	3.9440	3.9439	0.8969	26.56	0.61	0.750			
0.2646	16932.51	3.9410	3.9411	0.8949	26.57	0.62	0.750			
0.2672	17103.84	3.9380	3.9380	0.8940	26.57	0.62	0.750			
0.2699	17274.10	3.9350	3.9347	0.8917	26.57	0.62	0.750			
0.2726	17443.59	3.9320	3.9320	0.8917	26.57	0.62	0.750			
0.2752	17615.71	3.9290	3.9290	0.8947	26.57	0.62	0.750			
0.2780	17789.19	3.9260	3.9260	0.9017	26.56	0.61	0.750			
0.2807	17962.73	3.9230	3.9231	0.9048	26.56	0.61	0.750			
0.2834	18136.13	3.9200	3.9200	0.9024	26.56	0.61	0.750			
0.2861	18312.09	3.9170	3.9169	0.8928	26.55	0.60	0.750			
0.2888	18480.32	3.9140	3.9141	0.9020	26.55	0.60	0.750			
0.2914	18652.74	3.9110	3.9111	0.9063	26.55	0.60	0.750			
0.2942	18827.66	3.9080	3.9079	0.9138	26.54	0.59	0.750			
0.2969	19004.57	3.9050	3.9051	0.9171	26.54	0.59	0.750			
0.2997	19181.25	3.9020	3.9021	0.9219	26.53	0.58	0.750			
0.3025	19360.15	3.8990	3.8991	0.9285	26.53	0.58	0.750			
0.3053	19541.95	3.8960	3.8961	0.9322	26.52	0.57	0.750			
0.3081	19716.02	3.8930	3.8929	0.9280	26.52	0.57	0.750			
0.3109	19896.75	3.8900	3.8900	0.9301	26.51	0.56	0.750			
0.3136	20073.45	3.8870	3.8870	0.9344	26.51	0.56	0.750			
0.3165	20252.87	3.8840	3.8841	0.9432	26.51	0.56	0.750			
0.3193	20435.73	3.8810	3.8809	0.9493	26.50	0.55	0.750			
0.3222	20619.69	3.8780	3.8780	0.9474	26.50	0.55	0.750			
0.3250	20802.53	3.8750	3.8751	0.9531	26.49	0.54	0.750			
0.3279	20984.84	3.8720	3.8721	0.9585	26.49	0.54	0.750			
0.3308	21170.25	3.8690	3.8690	0.9663	26.48	0.53	0.750			
0.3337	21354.37	3.8660	3.8660	0.9620	26.48	0.53	0.750			
0.3366	21539.47	3.8630	3.8631	0.9653	26.47	0.52	0.750			
0.3395	21725.42	3.8600	3.8600	0.9742	26.46	0.51	0.750			
0.3424	21913.78	3.8570	3.8570	0.9802	26.45	0.50	0.750			
0.3453	22101.21	3.8540	3.8539	0.9819	26.44	0.49	0.750			
0.3483	22291.49	3.8510	3.8510	0.9778	26.43	0.48	0.750			
0.3513	22480.11	3.8480	3.8481	0.9821	26.42	0.47	0.750			
0.3542	22669.94	3.8450	3.8450	0.9857	26.41	0.46	0.750			
0.3571	22856.64	3.8420	3.8419	0.9845	26.40	0.45	0.750			
0.3601	23046.22	3.8390	3.8389	0.9787	26.39	0.44	0.750			
0.3630	23233.51	3.8360	3.8361	0.9919	26.38	0.43	0.750			
0.3660	23425.38	3.8330	3.8331	1.0020	26.37	0.42	0.750			
0.3691	23620.46	3.8300	3.8299	1.0040	26.36	0.41	0.750			
0.3721	23814.93	3.8270	3.8271	0.9993	26.36	0.41	0.750			
0.3751	24005.05	3.8240	3.8241	1.0083	26.35	0.40	0.750			
0.3781	24198.66	3.8210	3.8210	1.0154	26.34	0.39	0.750			
0.3811	24393.04	3.8180	3.8180	1.0167	26.33	0.38	0.750			
0.3842	24589.36	3.8150	3.8150	1.0237	26.33	0.38	0.750			
0.3873	24786.71	3.8120	3.8121	1.0421	26.32	0.37	0.750			
0.3905	24989.88	3.8090	3.8090	1.0576	26.31	0.36	0.750			
0.3937	25196.76	3.8060	3.8059	1.0660	26.29	0.34	0.750			
0.3969	25400.85	3.8030	3.8030	1.0553	26.28	0.33	0.750			
0.4001	25603.52	3.8000	3.8002	1.0744	26.27	0.32	0.750			
0.4033	25809.70	3.7970	3.7971	1.0897	26.26	0.31	0.750			
0.4066	26019.83	3.7940	3.7938	1.1012	26.25	0.30	0.750			
0.4099	26230.41	3.7910	3.7911	1.1125	26.24	0.29	0.750			
0.4132	26445.88	3.7880	3.7881	1.1341	26.24	0.29	0.750			
0.4167	26666.93	3.7850	3.7850	1.1537	26.23	0.28	0.750			
0.4202	26892.80	3.7820	3.7819	1.1670	26.22	0.27	0.750			
0.4237	27114.40	3.7790	3.7790	1.1761	26.21	0.26	0.750			
0.4272	27342.44	3.7760	3.7761	1.1942	26.20	0.25	0.750			
0.4308	27572.70	3.7730	3.7730	1.2175	26.19	0.24	0.750			
0.4344	27802.74	3.7700	3.7700	1.2580	26.18	0.23	0.750			
0.4382	28044.30	3.7670	3.7670	1.2922	26.17	0.22	0.750	0.302	0.421	
0.4422	28301.06	3.7640	3.7641	1.3201	26.16	0.21	0.750			
0.4463	28561.67	3.7610	3.7610	1.3608	26.15	0.20	0.750			
0.4504	28825.91	3.7580	3.7582	1.3885	26.13	0.18	0.750			
0.4547	29099.35	3.7550	3.7550	1.4082	26.12	0.17	0.750			
0.4589	29366.97	3.7520	3.7521	1.4257	26.11	0.16	0.750			
0.4631	29639.58	3.7490	3.7491	1.4397	26.09	0.14	0.750			
0.4675	29922.23	3.7460	3.7461	1.4626	26.08	0.13	0.750			
0.4719	30202.61	3.7430	3.7431	1.4984	26.07	0.12	0.750			
0.4764	30489.79	3.7400	3.7399	1.5318	26.06	0.11	0.750			
0.4810	30785.31	3.7370	3.7371	1.5830	26.04	0.09	0.750			
0.4858	31093.45	3.7340	3.7342	1.6401	26.03	0.08	0.750			
0.4909	31414.76	3.7310	3.7311	1.6891	26.02	0.07	0.750			
0.4960	31745.88	3.7280	3.7278	1.7482	26.01	0.06	0.750			
0.5014	32086.52	3.7250	3.7248	1.7958	25.99	0.04	0.750			
0.5067	32431.27	3.7220	3.7220	1.8284	25.97	0.02	0.750			
0.5124	32790.46	3.7190	3.7190	1.8676	25.96	0.01	0.750			
0.5181	33156.99	3.7160	3.7161	1.9150	25.95	-0.00	0.750			
0.5239	33526.57	3.7130	3.7128	1.9740	25.93	-0.02	0.750			
0.5299	33913.75	3.7100	3.7097	2.0421	25.92	-0.03	0.750			
0.5361	34308.14	3.7070	3.7073	2.1055	25.90	-0.05	0.750			
0.5425	34718.05	3.7040	3.7042	2.1872	25.88	-0.07	0.750			
0.5491	35145.46	3.7010	3.7008	2.2424	25.86	-0.09	0.750			
0.5560	35581.93	3.6980	3.6980	2.3234	25.85	-0.10	0.750			
0.5631	36035.59	3.6950	3.6951	2.3780	25.83	-0.12	0.750			
0.5704	36505.00	3.6920	3.6919	2.4867	25.81	-0.14	0.750			
0.5779	36984.94	3.6890	3.6890	2.5374	25.81	-0.14	0.750			
0.5856	37479.40	3.6860	3.6858	2.6132	25.80	-0.15	0.750			
0.5935	37985.42	3.6830	3.6831	2.7033	25.78	-0.17	0.750			
0.6019	38520.18	3.6800	3.6801	2.7792	25.77	-0.18	0.750			
0.6103	39061.88	3.6770	3.6771	2.8676	25.76	-0.19	0.750			
0.6192	39626.52	3.6740	3.6741	2.9292	25.75	-0.20	0.750			
0.6283	40213.68	3.6710	3.6710	2.9190	25.73	-0.22	0.750			
0.6372	40779.23	3.6680	3.6680	2.7775	25.72	-0.23	0.750			
0.6454	41303.05	3.6650	3.6651	2.5623	25.72	-0.23	0.750			
0.6524	41754.92	3.6620	3.6619	2.2815	25.73	-0.22	0.750			
0.6587	42156.31	3.6590	3.6589	2.0418	25.73	-0.22	0.750			
0.6642	42507.70	3.6560	3.6558	1.8451	25.73	-0.22	0.750			
0.6693	42836.78	3.6530	3.6528	1.6916	25.73	-0.22	0.750			
0.6742	43149.34	3.6500	3.6499	1.5769	25.73	-0.22	0.750			
0.6787	43437.11	3.6470	3.6473	1.4736	25.74	-0.21	0.750			
0.6831	43716.29	3.6440	3.6440	1.3850	25.74	-0.21	0.750			
0.6870	43966.29	3.6410	3.6410	1.3046	25.74	-0.21	0.750			
0.6906	44200.36	3.6380	3.6380	1.2356	25.74	-0.21	0.750			
0.6943	44434.54	3.6350	3.6350	1.2050	25.74	-0.21	0.750			
0.6978	44658.64	3.6320	3.6320	1.1875	25.74	-0.21	0.750			
0.7013	44882.97	3.6290	3.6291	1.1854	25.74	-0.21	0.750			
0.7048	45108.50	3.6260	3.6261	1.1900	25.73	-0.22	0.750			
0.7085	45341.53	3.6230	3.6229	1.1864	25.73	-0.22	0.750			
0.7120	45568.44	3.6200	3.6201	1.1997	25.73	-0.22	0.750			
0.7156	45801.04	3.6170	3.6171	1.2060	25.74	-0.21	0.750			
0.7194	46039.26	3.6140	3.6137	1.1918	25.74	-0.21	0.750			
0.7229	46266.27	3.6110	3.6112	1.1730	25.74	-0.21	0.750			
0.7264	46490.70	3.6080	3.6081	1.1581	25.74	-0.21	0.750			
0.7298	46709.79	3.6050	3.6051	1.1492	25.75	-0.20	0.750			
0.7332	46927.80	3.6020	3.6018	1.1206	25.75	-0.20	0.750			
0.7365	47136.82	3.5990	3.5991	1.1336	25.75	-0.20	0.750			
0.7399	47353.27	3.5960	3.5961	1.1523	25.75	-0.20	0.750			
0.7434	47577.25	3.5930	3.5930	1.1843	25.75	-0.20	0.750			
0.7469	47804.69	3.5900	3.5900	1.2223	25.75	-0.20	0.750			
0.7507	48041.68	3.5870	3.5870	1.2671	25.75	-0.20	0.750			
0.7545	48288.87	3.5840	3.5840	1.3207	25.74	-0.21	0.750			
0.7586	48550.10	3.5810	3.5811	1.3762	25.74	-0.21	0.750			
0.7628	48817.48	3.5780	3.5780	1.4040	25.73	-0.22	0.750			
0.7672	49099.00	3.5750	3.5750	1.4394	25.72	-0.23	0.750			
0.7715	49376.06	3.5720	3.5721	1.4737	25.72	-0.23	0.750			
0.7759	49657.21	3.5690	3.5690	1.5152	25.72	-0.23	0.750			
0.7805	49949.55	3.5660	3.5661	1.5552	25.72	-0.23	0.750			
0.7852	50254.00	3.5630	3.5630	1.5779	25.72	-0.23	0.750			
0.7901	50565.08	3.5600	3.5599	1.6204	25.72	-0.23	0.750			
0.7950	50880.17	3.5570	3.5568	1.6625	25.72	-0.23	0.750			
0.8001	51205.72	3.5540	3.5541	1.6892	25.72	-0.23	0.750			
0.8051	51527.82	3.5510	3.5511	1.6740	25.72	-0.23	0.750			
0.8102	51855.70	3.5480	3.5480	1.6791	25.72	-0.23	0.750			
0.8153	52181.04	3.5450	3.5452	1.6932	25.73	-0.22	0.750			
0.8204	52508.66	3.5420	3.5418	1.7332	25.74	-0.21	0.750			
0.8256	52835.30	3.5390	3.5391	1.7581	25.75	-0.20	0.750			
0.8309	53180.33	3.5360	3.5360	1.7405	25.76	-0.19	0.750			
0.8367	53546.50	3.5330	3.5331	1.6220	25.77	-0.18	0.750			
0.8417	53868.05	3.5300	3.5302	1.4366	25.78	-0.17	0.750			
0.8460	54147.08	3.5270	3.5276	1.2007	25.79	-0.16	0.750			
0.8491	54345.50	3.5240	3.5239	0.9055	25.81	-0.14	0.750			
0.8511	54468.48	3.5210	3.5204	0.6849	25.82	-0.13	0.750			
0.8523	54550.04	3.5180	3.5175	0.5030	25.83	-0.12	0.750			
0.8533	54614.02	3.5150	3.5148	0.4072	25.84	-0.11	0.750			
0.8544	54682.93	3.5120	3.5119	0.3640	25.84	-0.11	0.750			
0.8554	54745.92	3.5090	3.5090	0.3384	25.85	-0.10	0.750			
0.8564	54808.20	3.5060	3.5060	0.3210	25.85	-0.10	0.750			
0.8573	54867.05	3.5030	3.5029	0.3055	25.86	-0.09	0.750			
0.8582	54924.65	3.5000	3.5001	0.2956	25.86	-0.09	0.750			
0.8591	54979.50	3.4970	3.4970	0.2874	25.87	-0.08	0.750			
0.8599	55033.58	3.4940	3.4940	0.2795	25.88	-0.07	0.750			
0.8607	55086.43	3.4910	3.4910	0.2728	25.88	-0.07	0.750			
0.8615	55137.99	3.4880	3.4881	0.2663	25.89	-0.06	0.750			
0.8623	55189.00	3.4850	3.4851	0.2620	25.89	-0.06	0.750			
0.8631	55239.05	3.4820	3.4819	0.2565	25.90	-0.05	0.750			
0.8639	55287.38	3.4790	3.4789	0.2496	25.90	-0.05	0.750			
0.8646	55334.18	3.4760	3.4760	0.2441	25.91	-0.04	0.750			
0.8653	55381.17	3.4730	3.4730	0.2392	25.92	-0.03	0.750			
0.8660	55426.74	3.4700	3.4700	0.2339	25.92	-0.03	0.750			
0.8667	55470.93	3.4670	3.4669	0.2289	25.93	-0.02	0.750			
0.8674	55514.38	3.4640	3.4641	0.2235	25.93	-0.02	0.750			
0.8681	55556.34	3.4610	3.4608	0.2185	25.93	-0.02	0.750			
0.8687	55597.90	3.4580	3.4581	0.2142	25.94	-0.01	0.750			
0.8694	55638.70	3.4550	3.4550	0.2099	25.94	-0.01	0.750			
0.8700	55678.21	3.4520	3.4520	0.2053	25.95	-0.00	0.750			
0.8706	55717.72	3.4490	3.4490	0.2014	25.95	0.00	0.750			
0.8712	55756.15	3.4460	3.4460	0.1955	25.96	0.01	0.750			
0.8718	55793.24	3.4430	3.4430	0.1899	25.96	0.01	0.750			
0.8723	55829.48	3.4400	3.4400	0.1847	25.97	0.02	0.750			
0.8729	55863.99	3.4370	3.4371	0.1792	25.97	0.02	0.750			
0.8734	55897.71	3.4340	3.4340	0.1740	25.97	0.02	0.750			
0.8739	55930.65	3.4310	3.4309	0.1691	25.98	0.03	0.750			
0.8744	55962.40	3.4280	3.4279	0.1638	25.98	0.03	0.750			
0.8749	55993.42	3.4250	3.4250	0.1593	25.98	0.03	0.750			
0.8754	56024.22	3.4220	3.4220	0.1544	25.99	0.04	0.750			
0.8758	56053.27	3.4190	3.4189	0.1482	25.99	0.04	0.750			
0.8763	56081.24	3.4160	3.4160	0.1419	25.99	0.04	0.750			
0.8767	56108.00	3.4130	3.4131	0.1353	26.00	0.05	0.750			
0.8771	56133.43	3.4100	3.4099	0.1287	26.00	0.05	0.750			
0.8775	56157.45	3.4070	3.4070	0.1218	26.00	0.05	0.750			
0.8778	56180.20	3.4040	3.4039	0.1149	26.00	0.05	0.750			
0.8781	56201.30	3.4010	3.4013	0.1077	26.01	0.06	0.750			
0.8785	56222.98	3.3980	3.3976	0.0992	26.01	0.06	0.750			
0.8788	56241.03	3.3950	3.3951	0.0888	26.01	0.06	0.750			
0.8790	56257.71	3.3920	3.3921	0.0797	26.01	0.06	0.750			
0.8792	56271.94	3.3890	3.3895	0.0686	26.02	0.07	0.750			
0.8795	56285.47	3.3860	3.3863	0.0579	26.02	0.07	0.750			
0.8796	56295.35	3.3830	3.3836	0.0450	26.02	0.07	0.750			
0.8797	56302.75	3.3800	3.3808	0.0321	26.02	0.07	0.750			
0.8798	56307.67	3.3770	3.3787	0.0192	26.02	0.07	0.750			
