Ah_balance (normalized)	Ah_balance (mAh)	Voltage - fit (V)	Voltage -  interpolate (V)	dQ/dV (1/V)	Temperature (°C)	Temperature - diff (°C)	Current (C)	R_DC 0ms (mOhm)	R_DC 50ms (mOhm)	R_DC 50 ms PEC (mOhm)
0.0003	18.66	4.1650	4.1648	-0.1261	25.86	0.00	-0.750			
0.0007	47.21	4.1620	4.1620	-0.1725	25.86	0.00	-0.750			
0.0013	86.04	4.1590	4.1589	-0.2193	25.86	-0.00	-0.750			
0.0021	132.13	4.1560	4.1560	-0.2629	25.86	-0.00	-0.750			
0.0029	187.06	4.1530	4.1530	-0.3048	25.85	-0.01	-0.750			
0.0039	250.43	4.1500	4.1501	-0.3454	25.85	-0.01	-0.750			
0.0050	320.76	4.1470	4.1469	-0.3864	25.85	-0.01	-0.750			
0.0062	399.24	4.1440	4.1440	-0.4213	25.84	-0.02	-0.750			
0.0076	483.93	4.1410	4.1410	-0.4570	25.84	-0.02	-0.750			
0.0090	575.35	4.1380	4.1381	-0.4909	25.83	-0.03	-0.750			
0.0105	674.09	4.1350	4.1349	-0.5193	25.83	-0.03	-0.750			
0.0121	777.24	4.1320	4.1320	-0.5479	25.82	-0.04	-0.750			
0.0138	885.73	4.1290	4.1290	-0.5704	25.82	-0.04	-0.750			
0.0156	998.38	4.1260	4.1261	-0.5908	25.82	-0.04	-0.750			
0.0174	1115.51	4.1230	4.1229	-0.6041	25.82	-0.04	-0.750			
0.0192	1231.95	4.1200	4.1201	-0.6232	25.82	-0.04	-0.750			
0.0211	1352.82	4.1170	4.1170	-0.6361	25.81	-0.05	-0.750			
0.0231	1477.67	4.1140	4.1138	-0.6472	25.81	-0.05	-0.750			
0.0251	1603.69	4.1110	4.1110	-0.6558	25.81	-0.05	-0.750			
0.0270	1730.75	4.1080	4.1081	-0.6667	25.81	-0.05	-0.750			
0.0291	1860.78	4.1050	4.1050	-0.6774	25.80	-0.06	-0.750			
0.0311	1991.25	4.1020	4.1020	-0.6875	25.79	-0.07	-0.750			
0.0331	2121.51	4.0990	4.0990	-0.6857	25.79	-0.07	-0.750			
0.0353	2256.91	4.0960	4.0960	-0.6971	25.78	-0.08	-0.750			
0.0374	2391.88	4.0930	4.0930	-0.6998	25.77	-0.09	-0.750			
0.0395	2526.35	4.0900	4.0899	-0.7030	25.77	-0.09	-0.750			
0.0416	2660.20	4.0870	4.0870	-0.7054	25.77	-0.09	-0.750			
0.0437	2794.78	4.0840	4.0839	-0.7169	25.77	-0.09	-0.750			
0.0458	2932.33	4.0810	4.0810	-0.7241	25.77	-0.09	-0.750			
0.0480	3075.14	4.0780	4.0779	-0.7293	25.77	-0.09	-0.750			
0.0503	3216.82	4.0750	4.0750	-0.7332	25.77	-0.09	-0.750			
0.0525	3357.80	4.0720	4.0721	-0.7373	25.77	-0.09	-0.750			
0.0547	3498.87	4.0690	4.0690	-0.7383	25.77	-0.09	-0.750			
0.0569	3640.20	4.0660	4.0659	-0.7444	25.77	-0.09	-0.750			
0.0591	3783.01	4.0630	4.0629	-0.7399	25.77	-0.09	-0.750			
0.0614	3927.13	4.0600	4.0600	-0.7465	25.77	-0.09	-0.750			
0.0636	4071.40	4.0570	4.0572	-0.7479	25.77	-0.09	-0.750			
0.0659	4214.90	4.0540	4.0539	-0.7465	25.77	-0.09	-0.750			
0.0681	4356.03	4.0510	4.0510	-0.7508	25.77	-0.09	-0.750			
0.0703	4500.17	4.0480	4.0480	-0.7479	25.77	-0.09	-0.750			
0.0726	4645.00	4.0450	4.0449	-0.7519	25.77	-0.09	-0.750			
0.0748	4790.13	4.0420	4.0419	-0.7558	25.77	-0.09	-0.750			
0.0771	4935.22	4.0390	4.0389	-0.7538	25.77	-0.09	-0.750			
0.0794	5079.55	4.0360	4.0359	-0.7571	25.77	-0.09	-0.750			
0.0816	5223.71	4.0330	4.0331	-0.7585	25.77	-0.09	-0.750			
0.0839	5367.63	4.0300	4.0300	-0.7636	25.77	-0.09	-0.750			
0.0862	5518.43	4.0270	4.0270	-0.7752	25.77	-0.09	-0.750			
0.0886	5668.45	4.0240	4.0239	-0.7763	25.77	-0.09	-0.750			
0.0909	5818.51	4.0210	4.0210	-0.7764	25.77	-0.09	-0.750			
0.0933	5968.89	4.0180	4.0181	-0.7847	25.77	-0.09	-0.750			
0.0956	6120.39	4.0150	4.0149	-0.7781	25.77	-0.09	-0.750			
0.0980	6269.61	4.0120	4.0119	-0.7763	25.77	-0.09	-0.750			
0.1003	6417.71	4.0090	4.0092	-0.7713	25.77	-0.09	-0.750			
0.1026	6565.68	4.0060	4.0060	-0.7743	25.77	-0.09	-0.750			
0.1049	6713.00	4.0030	4.0030	-0.7757	25.78	-0.08	-0.750			
0.1072	6861.57	4.0000	3.9999	-0.7797	25.78	-0.08	-0.750			
0.1095	7009.00	3.9970	3.9970	-0.7808	25.78	-0.08	-0.750			
0.1119	7163.58	3.9940	3.9940	-0.7904	25.79	-0.07	-0.750			
0.1143	7314.92	3.9910	3.9911	-0.7894	25.79	-0.07	-0.750			
0.1167	7467.55	3.9880	3.9880	-0.7940	25.79	-0.07	-0.750			
0.1191	7620.31	3.9850	3.9849	-0.7908	25.79	-0.07	-0.750			
0.1214	7770.06	3.9820	3.9821	-0.7932	25.80	-0.06	-0.750			
0.1238	7922.86	3.9790	3.9790	-0.7973	25.80	-0.06	-0.750			
0.1262	8077.74	3.9760	3.9760	-0.7981	25.80	-0.06	-0.750			
0.1286	8231.65	3.9730	3.9729	-0.7990	25.80	-0.06	-0.750			
0.1310	8384.86	3.9700	3.9701	-0.8037	25.80	-0.06	-0.750			
0.1334	8539.17	3.9670	3.9671	-0.8046	25.81	-0.05	-0.750			
0.1359	8694.62	3.9640	3.9638	-0.8091	25.81	-0.05	-0.750			
0.1383	8848.93	3.9610	3.9612	-0.8074	25.81	-0.05	-0.750			
0.1407	9004.26	3.9580	3.9580	-0.8091	25.81	-0.05	-0.750			
0.1431	9160.15	3.9550	3.9550	-0.8132	25.81	-0.05	-0.750			
0.1456	9317.80	3.9520	3.9520	-0.8079	25.82	-0.04	-0.750			
0.1480	9474.38	3.9490	3.9489	-0.8047	25.82	-0.04	-0.750			
0.1504	9627.16	3.9460	3.9462	-0.7996	25.82	-0.04	-0.750			
0.1528	9779.10	3.9430	3.9430	-0.8010	25.82	-0.04	-0.750			
0.1552	9931.05	3.9400	3.9400	-0.8060	25.82	-0.04	-0.750			
0.1576	10086.28	3.9370	3.9369	-0.8081	25.83	-0.03	-0.750			
0.1600	10239.65	3.9340	3.9341	-0.8144	25.83	-0.03	-0.750			
0.1625	10400.68	3.9310	3.9310	-0.8238	25.83	-0.03	-0.750			
0.1650	10558.47	3.9280	3.9281	-0.8288	25.83	-0.03	-0.750			
0.1675	10717.16	3.9250	3.9250	-0.8352	25.84	-0.02	-0.750			
0.1700	10878.59	3.9220	3.9219	-0.8406	25.84	-0.02	-0.750			
0.1725	11041.30	3.9190	3.9190	-0.8408	25.84	-0.02	-0.750			
0.1751	11205.11	3.9160	3.9159	-0.8405	25.85	-0.01	-0.750			
0.1776	11367.17	3.9130	3.9130	-0.8418	25.85	-0.01	-0.750			
0.1801	11528.54	3.9100	3.9099	-0.8442	25.86	-0.00	-0.750			
0.1826	11688.02	3.9070	3.9071	-0.8417	25.86	0.00	-0.750			
0.1852	11850.32	3.9040	3.9040	-0.8373	25.86	0.00	-0.750			
0.1877	12014.00	3.9010	3.9010	-0.8441	25.87	0.01	-0.750			
0.1903	12177.16	3.8980	3.8980	-0.8421	25.87	0.01	-0.750			
0.1928	12337.44	3.8950	3.8951	-0.8473	25.87	0.01	-0.750			
0.1953	12497.77	3.8920	3.8919	-0.8476	25.88	0.02	-0.750			
0.1978	12660.14	3.8890	3.8891	-0.8518	25.88	0.02	-0.750			
0.2004	12824.65	3.8860	3.8860	-0.8605	25.88	0.02	-0.750			
0.2030	12991.22	3.8830	3.8830	-0.8686	25.88	0.02	-0.750			
0.2056	13160.34	3.8800	3.8800	-0.8705	25.88	0.02	-0.750			
0.2083	13329.40	3.8770	3.8770	-0.8670	25.89	0.03	-0.750			
0.2109	13495.14	3.8740	3.8740	-0.8594	25.89	0.03	-0.750			
0.2135	13661.09	3.8710	3.8714	-0.8611	25.89	0.03	-0.750			
0.2160	13825.44	3.8680	3.8680	-0.8585	25.89	0.03	-0.750			
0.2186	13988.63	3.8650	3.8649	-0.8556	25.90	0.04	-0.750			
0.2211	14152.91	3.8620	3.8620	-0.8567	25.90	0.04	-0.750			
0.2237	14319.70	3.8590	3.8589	-0.8540	25.91	0.05	-0.750			
0.2263	14481.26	3.8560	3.8560	-0.8606	25.91	0.05	-0.750			
0.2288	14646.10	3.8530	3.8531	-0.8631	25.91	0.05	-0.750			
0.2314	14812.55	3.8500	3.8499	-0.8629	25.92	0.06	-0.750			
0.2340	14979.08	3.8470	3.8469	-0.8648	25.92	0.06	-0.750			
0.2367	15145.73	3.8440	3.8441	-0.8712	25.93	0.07	-0.750			
0.2393	15313.22	3.8410	3.8412	-0.8749	25.93	0.07	-0.750			
0.2419	15483.93	3.8380	3.8378	-0.8812	25.94	0.08	-0.750			
0.2445	15650.47	3.8350	3.8350	-0.8746	25.94	0.08	-0.750			
0.2472	15820.31	3.8320	3.8319	-0.8751	25.94	0.08	-0.750			
0.2498	15988.47	3.8290	3.8290	-0.8759	25.95	0.09	-0.750			
0.2524	16154.80	3.8260	3.8260	-0.8791	25.95	0.09	-0.750			
0.2550	16322.98	3.8230	3.8229	-0.8784	25.95	0.09	-0.750			
0.2577	16492.43	3.8200	3.8199	-0.8790	25.96	0.10	-0.750			
0.2604	16663.06	3.8170	3.8170	-0.8762	25.96	0.10	-0.750			
0.2630	16833.19	3.8140	3.8141	-0.8799	25.96	0.10	-0.750			
0.2656	17000.71	3.8110	3.8110	-0.8826	25.96	0.10	-0.750			
0.2682	17167.59	3.8080	3.8080	-0.8777	25.96	0.10	-0.750			
0.2709	17337.17	3.8050	3.8049	-0.8726	25.97	0.11	-0.750			
0.2735	17505.78	3.8020	3.8020	-0.8722	25.97	0.11	-0.750			
0.2762	17675.04	3.7990	3.7993	-0.8742	25.97	0.11	-0.750			
0.2788	17841.67	3.7960	3.7960	-0.8747	25.97	0.11	-0.750			
0.2814	18008.22	3.7930	3.7929	-0.8693	25.98	0.12	-0.750			
0.2840	18175.09	3.7900	3.7900	-0.8681	25.98	0.12	-0.750			
0.2866	18342.20	3.7870	3.7870	-0.8691	25.99	0.13	-0.750			
0.2892	18509.61	3.7840	3.7842	-0.8711	25.99	0.13	-0.750			
0.2918	18676.70	3.7810	3.7810	-0.8704	26.00	0.14	-0.750			
0.2944	18843.59	3.7780	3.7779	-0.8653	26.00	0.14	-0.750			
0.2970	19008.52	3.7750	3.7750	-0.8622	26.00	0.14	-0.750			
0.2996	19175.68	3.7720	3.7720	-0.8606	26.01	0.15	-0.750			
0.3022	19341.56	3.7690	3.7690	-0.8588	26.01	0.15	-0.750			
0.3048	19504.31	3.7660	3.7660	-0.8612	26.02	0.16	-0.750			
0.3073	19668.17	3.7630	3.7630	-0.8595	26.02	0.16	-0.750			
0.3099	19834.61	3.7600	3.7599	-0.8619	26.02	0.16	-0.750			
0.3125	20001.90	3.7570	3.7569	-0.8606	26.03	0.17	-0.750			
0.3151	20167.22	3.7540	3.7540	-0.8610	26.03	0.17	-0.750			
0.3177	20333.15	3.7510	3.7510	-0.8642	26.03	0.17	-0.750			
0.3203	20497.74	3.7480	3.7480	-0.8615	26.04	0.18	-0.750			
0.3229	20662.54	3.7450	3.7449	-0.8535	26.04	0.18	-0.750			
0.3254	20827.49	3.7420	3.7420	-0.8601	26.04	0.18	-0.750			
0.3280	20992.69	3.7390	3.7390	-0.8644	26.04	0.18	-0.750			
0.3306	21160.02	3.7360	3.7359	-0.8745	26.04	0.18	-0.750			
0.3332	21327.02	3.7330	3.7329	-0.8769	26.05	0.19	-0.750			
0.3359	21495.17	3.7300	3.7301	-0.8807	26.05	0.19	-0.750			
0.3385	21667.11	3.7270	3.7273	-0.8921	26.05	0.19	-0.750			
0.3412	21838.74	3.7240	3.7240	-0.9044	26.05	0.19	-0.750			
0.3439	22010.70	3.7210	3.7210	-0.9053	26.06	0.20	-0.750			
0.3466	22184.26	3.7180	3.7180	-0.9196	26.06	0.20	-0.750			
0.3494	22362.29	3.7150	3.7151	-0.9376	26.07	0.21	-0.750			
0.3522	22542.92	3.7120	3.7118	-0.9530	26.07	0.21	-0.750			
0.3551	22728.38	3.7090	3.7090	-0.9708	26.07	0.21	-0.750			
0.3581	22916.63	3.7060	3.7059	-0.9843	26.07	0.21	-0.750			
0.3610	23106.84	3.7030	3.7031	-0.9995	26.07	0.21	-0.750			
0.3641	23299.80	3.7000	3.7001	-1.0336	26.07	0.21	-0.750			
0.3672	23500.14	3.6970	3.6969	-1.0387	26.07	0.21	-0.750			
0.3703	23701.12	3.6940	3.6939	-1.0591	26.07	0.21	-0.750			
0.3735	23905.19	3.6910	3.6909	-1.0790	26.07	0.21	-0.750			
0.3768	24115.23	3.6880	3.6880	-1.1090	26.07	0.21	-0.750			
0.3802	24330.58	3.6850	3.6849	-1.1271	26.06	0.20	-0.750			
0.3836	24548.49	3.6820	3.6820	-1.1451	26.06	0.20	-0.750			
0.3870	24765.87	3.6790	3.6790	-1.1661	26.05	0.19	-0.750			
0.3906	24999.61	3.6760	3.6760	-1.1992	26.05	0.19	-0.750			
0.3942	25227.63	3.6730	3.6729	-1.2177	26.04	0.18	-0.750			
0.3978	25462.36	3.6700	3.6700	-1.2506	26.03	0.17	-0.750			
0.4016	25703.91	3.6670	3.6672	-1.2930	26.03	0.17	-0.750			
0.4057	25962.10	3.6640	3.6639	-1.3275	26.02	0.16	-0.750			
0.4097	26221.27	3.6610	3.6609	-1.3502	26.02	0.16	-0.750			
0.4138	26483.44	3.6580	3.6583	-1.3842	26.01	0.15	-0.750			
0.4180	26752.13	3.6550	3.6550	-1.4193	26.00	0.14	-0.750			
0.4223	27024.41	3.6520	3.6519	-1.4465	26.00	0.14	-0.750			
0.4266	27302.91	3.6490	3.6492	-1.4665	25.99	0.13	-0.750			
0.4311	27590.56	3.6460	3.6457	-1.5135	25.98	0.12	-0.750			
0.4357	27883.70	3.6430	3.6430	-1.5487	25.97	0.11	-0.750			
0.4404	28185.77	3.6400	3.6401	-1.5816	25.97	0.11	-0.750			
0.4452	28491.77	3.6370	3.6370	-1.6283	25.96	0.10	-0.750			
0.4501	28804.20	3.6340	3.6339	-1.6506	25.95	0.09	-0.750			
0.4551	29128.60	3.6310	3.6311	-1.6782	25.94	0.08	-0.750			
0.4603	29459.02	3.6280	3.6278	-1.7115	25.93	0.07	-0.750			
0.4654	29785.48	3.6250	3.6251	-1.7476	25.93	0.07	-0.750	0.420	0.512	
0.4708	30128.57	3.6220	3.6221	-1.7739	25.91	0.05	-0.750			
0.4761	30471.45	3.6190	3.6191	-1.8039	25.90	0.04	-0.750			
0.4816	30819.61	3.6160	3.6160	-1.8373	25.89	0.03	-0.750			
0.4872	31178.77	3.6130	3.6129	-1.8816	25.88	0.02	-0.750			
0.4929	31544.64	3.6100	3.6100	-1.9133	25.88	0.02	-0.750			
0.4987	31914.05	3.6070	3.6069	-1.9449	25.87	0.01	-0.750			
0.5044	32283.04	3.6040	3.6041	-1.9768	25.86	0.00	-0.750			
0.5105	32669.79	3.6010	3.6009	-2.0289	25.85	-0.01	-0.750			
0.5166	33062.67	3.5980	3.5980	-2.0643	25.84	-0.02	-0.750			
0.5230	33471.50	3.5950	3.5949	-2.0839	25.83	-0.03	-0.750			
0.5293	33878.35	3.5920	3.5919	-2.1219	25.82	-0.04	-0.750			
0.5357	34285.49	3.5890	3.5892	-2.1636	25.81	-0.05	-0.750			
0.5422	34702.96	3.5860	3.5860	-2.1933	25.80	-0.06	-0.750			
0.5488	35123.57	3.5830	3.5831	-2.2197	25.79	-0.07	-0.750			
0.5555	35551.84	3.5800	3.5800	-2.2541	25.79	-0.07	-0.750			
0.5624	35996.37	3.5770	3.5771	-2.2920	25.79	-0.07	-0.750			
0.5694	36441.30	3.5740	3.5739	-2.3210	25.78	-0.08	-0.750			
0.5764	36887.74	3.5710	3.5709	-2.3434	25.77	-0.09	-0.750			
0.5834	37335.39	3.5680	3.5680	-2.3425	25.76	-0.10	-0.750			
0.5905	37788.94	3.5650	3.5649	-2.3705	25.76	-0.10	-0.750			
0.5976	38246.93	3.5620	3.5621	-2.3691	25.75	-0.11	-0.750			
0.6047	38703.80	3.5590	3.5589	-2.3564	25.75	-0.11	-0.750			
0.6119	39160.62	3.5560	3.5559	-2.3629	25.74	-0.12	-0.750			
0.6189	39611.54	3.5530	3.5531	-2.3374	25.73	-0.13	-0.750			
0.6260	40062.02	3.5500	3.5499	-2.3190	25.72	-0.14	-0.750			
0.6329	40502.58	3.5470	3.5470	-2.3017	25.72	-0.14	-0.750			
0.6397	40940.37	3.5440	3.5441	-2.2827	25.72	-0.14	-0.750			
0.6467	41388.83	3.5410	3.5409	-2.2581	25.72	-0.14	-0.750			
0.6534	41817.19	3.5380	3.5380	-2.2423	25.72	-0.14	-0.750			
0.6600	42241.09	3.5350	3.5352	-2.2166	25.72	-0.14	-0.750			
0.6668	42672.66	3.5320	3.5320	-2.1918	25.72	-0.14	-0.750			
0.6733	43089.55	3.5290	3.5292	-2.1539	25.72	-0.14	-0.750			
0.6797	43497.81	3.5260	3.5260	-2.0931	25.73	-0.13	-0.750			
0.6859	43900.39	3.5230	3.5230	-2.0426	25.74	-0.12	-0.750			
0.6920	44290.95	3.5200	3.5200	-1.9790	25.76	-0.10	-0.750			
0.6978	44658.75	3.5170	3.5168	-1.9001	25.77	-0.09	-0.750			
0.7033	45012.57	3.5140	3.5139	-1.8334	25.77	-0.09	-0.750			
0.7088	45361.38	3.5110	3.5109	-1.7703	25.78	-0.08	-0.750			
0.7140	45693.75	3.5080	3.5081	-1.7016	25.79	-0.07	-0.750			
0.7190	46013.69	3.5050	3.5048	-1.6360	25.80	-0.06	-0.750			
0.7238	46322.02	3.5020	3.5021	-1.5785	25.82	-0.04	-0.750			
0.7285	46622.86	3.4990	3.4989	-1.5279	25.83	-0.03	-0.750			
0.7329	46908.62	3.4960	3.4960	-1.4760	25.84	-0.02	-0.750			
0.7372	47181.97	3.4930	3.4930	-1.4191	25.86	-0.00	-0.750			
0.7415	47454.27	3.4900	3.4899	-1.3828	25.87	0.01	-0.750			
0.7456	47716.89	3.4870	3.4868	-1.3347	25.88	0.02	-0.750			
0.7495	47966.46	3.4840	3.4841	-1.2887	25.89	0.03	-0.750			
0.7533	48209.31	3.4810	3.4810	-1.2504	25.90	0.04	-0.750			
0.7570	48448.80	3.4780	3.4779	-1.2089	25.92	0.06	-0.750			
0.7606	48675.69	3.4750	3.4749	-1.1641	25.94	0.08	-0.750			
0.7639	48890.70	3.4720	3.4722	-1.1250	25.95	0.09	-0.750			
0.7673	49106.08	3.4690	3.4689	-1.0919	25.96	0.10	-0.750			
0.7705	49311.93	3.4660	3.4659	-1.0550	25.97	0.11	-0.750			
0.7736	49507.36	3.4630	3.4630	-1.0171	25.98	0.12	-0.750			
0.7766	49702.06	3.4600	3.4601	-0.9953	25.99	0.13	-0.750			
0.7795	49889.15	3.4570	3.4569	-0.9742	26.00	0.14	-0.750			
0.7824	50071.01	3.4540	3.4540	-0.9532	26.01	0.15	-0.750			
0.7852	50250.85	3.4510	3.4510	-0.9434	26.02	0.16	-0.750			
0.7880	50429.90	3.4480	3.4481	-0.9435	26.03	0.17	-0.750			
0.7908	50608.98	3.4450	3.4449	-0.9549	26.04	0.18	-0.750			
0.7936	50788.44	3.4420	3.4420	-0.9751	26.04	0.18	-0.750			
0.7965	50976.03	3.4390	3.4389	-1.0061	26.05	0.19	-0.750			
0.7995	51169.08	3.4360	3.4359	-1.0433	26.06	0.20	-0.750			
0.8027	51375.43	3.4330	3.4331	-1.0895	26.06	0.20	-0.750			
0.8061	51592.25	3.4300	3.4299	-1.1241	26.07	0.21	-0.750			
0.8096	51816.11	3.4270	3.4269	-1.1496	26.08	0.22	-0.750			
0.8131	52040.83	3.4240	3.4242	-1.1632	26.09	0.23	-0.750			
0.8167	52270.29	3.4210	3.4210	-1.1559	26.10	0.24	-0.750			
0.8203	52496.97	3.4180	3.4180	-1.1409	26.11	0.25	-0.750			
0.8237	52714.63	3.4150	3.4150	-1.1080	26.12	0.26	-0.750			
0.8270	52925.48	3.4120	3.4121	-1.0788	26.13	0.27	-0.750			
0.8301	53127.99	3.4090	3.4089	-1.0363	26.14	0.28	-0.750			
0.8332	53323.23	3.4060	3.4060	-0.9962	26.14	0.28	-0.750			
0.8361	53509.64	3.4030	3.4030	-0.9509	26.15	0.29	-0.750			
0.8389	53689.29	3.4000	3.4001	-0.9183	26.15	0.29	-0.750			
0.8416	53860.48	3.3970	3.3971	-0.8814	26.16	0.30	-0.750			
0.8442	54025.94	3.3940	3.3939	-0.8522	26.16	0.30	-0.750			
0.8467	54186.47	3.3910	3.3908	-0.8232	26.16	0.30	-0.750			
0.8491	54341.61	3.3880	3.3880	-0.7941	26.17	0.31	-0.750			
0.8514	54492.03	3.3850	3.3851	-0.7647	26.17	0.31	-0.750			
0.8537	54638.58	3.3820	3.3819	-0.7368	26.18	0.32	-0.750			
0.8559	54774.65	3.3790	3.3790	-0.7051	26.19	0.33	-0.750			
0.8579	54903.55	3.3760	3.3761	-0.6714	26.19	0.33	-0.750			
0.8599	55032.80	3.3730	3.3729	-0.6508	26.20	0.34	-0.750			
0.8618	55154.65	3.3700	3.3698	-0.6205	26.21	0.35	-0.750			
0.8636	55270.58	3.3670	3.3673	-0.5983	26.21	0.35	-0.750			
0.8654	55383.05	3.3640	3.3641	-0.5749	26.22	0.36	-0.750			
0.8671	55491.78	3.3610	3.3609	-0.5505	26.22	0.36	-0.750			
0.8687	55595.00	3.3580	3.3580	-0.5267	26.23	0.37	-0.750			
0.8702	55692.49	3.3550	3.3551	-0.5057	26.24	0.38	-0.750			
0.8717	55787.91	3.3520	3.3520	-0.4840	26.24	0.38	-0.750			
0.8731	55879.24	3.3490	3.3489	-0.4640	26.25	0.39	-0.750			
0.8745	55965.03	3.3460	3.3460	-0.4431	26.25	0.39	-0.750			
0.8758	56048.07	3.3430	3.3431	-0.4272	26.26	0.40	-0.750			
0.8770	56128.53	3.3400	3.3399	-0.4122	26.26	0.40	-0.750			
0.8782	56204.94	3.3370	3.3370	-0.3987	26.27	0.41	-0.750			
0.8794	56280.29	3.3340	3.3340	-0.3855	26.27	0.41	-0.750			
0.8805	56353.53	3.3310	3.3310	-0.3718	26.28	0.42	-0.750			
0.8816	56424.70	3.3280	3.3280	-0.3558	26.28	0.42	-0.750			
0.8827	56491.53	3.3250	3.3251	-0.3408	26.29	0.43	-0.750			
0.8837	56555.31	3.3220	3.3220	-0.3242	26.29	0.43	-0.750			
0.8846	56615.60	3.3190	3.3188	-0.3100	26.30	0.44	-0.750			
0.8855	56672.27	3.3160	3.3161	-0.2961	26.30	0.44	-0.750			
0.8864	56728.35	3.3130	3.3129	-0.2863	26.30	0.44	-0.750			
0.8872	56782.72	3.3100	3.3099	-0.2767	26.31	0.45	-0.750			
0.8880	56834.75	3.3070	3.3070	-0.2674	26.31	0.45	-0.750			
0.8888	56884.58	3.3040	3.3040	-0.2573	26.31	0.45	-0.750			
0.8896	56933.58	3.3010	3.3009	-0.2490	26.32	0.46	-0.750			
0.8903	56979.61	3.2980	3.2979	-0.2393	26.32	0.46	-0.750			
0.8910	57024.56	3.2950	3.2951	-0.2323	26.33	0.47	-0.750			
0.8917	57068.37	3.2920	3.2920	-0.2269	26.33	0.47	-0.750			
0.8924	57111.17	3.2890	3.2890	-0.2209	26.34	0.48	-0.750			
0.8930	57153.18	3.2860	3.2859	-0.2151	26.34	0.48	-0.750			
0.8937	57193.78	3.2830	3.2829	-0.2088	26.34	0.48	-0.750			
0.8943	57233.46	3.2800	3.2801	-0.2039	26.35	0.49	-0.750			
0.8949	57272.08	3.2770	3.2771	-0.1984	26.35	0.49	-0.750			
0.8955	57309.73	3.2740	3.2740	-0.1936	26.36	0.50	-0.750			
0.8960	57346.05	3.2710	3.2710	-0.1887	26.36	0.50	-0.750			
0.8966	57381.37	3.2680	3.2680	-0.1837	26.36	0.50	-0.750			
0.8971	57416.32	3.2650	3.2650	-0.1803	26.37	0.51	-0.750			
0.8977	57450.70	3.2620	3.2620	-0.1770	26.37	0.51	-0.750			
0.8982	57484.34	3.2590	3.2590	-0.1737	26.37	0.51	-0.750			
0.8987	57517.19	3.2560	3.2559	-0.1704	26.38	0.52	-0.750			
0.8992	57549.62	3.2530	3.2531	-0.1674	26.38	0.52	-0.750			
0.8997	57581.49	3.2500	3.2500	-0.1640	26.38	0.52	-0.750			
0.9002	57612.74	3.2470	3.2470	-0.1608	26.39	0.53	-0.750			
0.9007	57643.09	3.2440	3.2439	-0.1581	26.39	0.53	-0.750			
0.9011	57673.19	3.2410	3.2410	-0.1554	26.39	0.53	-0.750			
0.9016	57702.70	3.2380	3.2380	-0.1525	26.40	0.54	-0.750			
0.9021	57731.40	3.2350	3.2349	-0.1504	26.40	0.54	-0.750			
0.9025	57759.89	3.2320	3.2321	-0.1484	26.41	0.55	-0.750			
0.9029	57788.32	3.2290	3.2291	-0.1467	26.41	0.55	-0.750			
0.9034	57816.54	3.2260	3.2259	-0.1445	26.41	0.55	-0.750			
0.9038	57844.08	3.2230	3.2231	-0.1428	26.42	0.56	-0.750			
0.9042	57871.17	3.2200	3.2201	-0.1405	26.42	0.56	-0.750			
0.9047	57897.96	3.2170	3.2171	-0.1387	26.43	0.57	-0.750			
0.9051	57924.60	3.2140	3.2139	-0.1369	26.43	0.57	-0.750			
0.9055	57950.39	3.2110	3.2110	-0.1346	26.43	0.57	-0.750			
0.9059	57976.08	3.2080	3.2081	-0.1331	26.44	0.58	-0.750			
0.9063	58001.48	3.2050	3.2051	-0.1320	26.44	0.58	-0.750			
0.9067	58026.72	3.2020	3.2020	-0.1309	26.44	0.58	-0.750			
0.9071	58051.55	3.1990	3.1990	-0.1294	26.45	0.59	-0.750			
0.9074	58076.32	3.1960	3.1960	-0.1286	26.45	0.59	-0.750			
0.9078	58101.17	3.1930	3.1930	-0.1266	26.46	0.60	-0.750			
0.9082	58125.60	3.1900	3.1900	-0.1251	26.46	0.60	-0.750			
0.9086	58149.33	3.1870	3.1872	-0.1239	26.46	0.60	-0.750			
0.9089	58172.78	3.1840	3.1841	-0.1226	26.47	0.61	-0.750			
0.9093	58196.02	3.1810	3.1808	-0.1211	26.47	0.61	-0.750			
0.9097	58219.01	3.1780	3.1780	-0.1198	26.47	0.61	-0.750			
0.9100	58241.94	3.1750	3.1751	-0.1190	26.48	0.62	-0.750			
0.9104	58264.68	3.1720	3.1720	-0.1178	26.48	0.62	-0.750			
0.9107	58287.59	3.1690	3.1690	-0.1176	26.48	0.62	-0.750			
0.9111	58310.00	3.1660	3.1660	-0.1161	26.49	0.63	-0.750			
0.9114	58332.06	3.1630	3.1629	-0.1144	26.49	0.63	-0.750			
0.9118	58353.76	3.1600	3.1601	-0.1135	26.49	0.63	-0.750			
0.9121	58375.38	3.1570	3.1570	-0.1124	26.50	0.64	-0.750			
0.9124	58396.72	3.1540	3.1541	-0.1118	26.50	0.64	-0.750			
0.9128	58417.93	3.1510	3.1511	-0.1109	26.50	0.64	-0.750			
0.9131	58439.19	3.1480	3.1478	-0.1106	26.51	0.65	-0.750			
0.9134	58460.47	3.1450	3.1451	-0.1095	26.51	0.65	-0.750			
0.9138	58481.43	3.1420	3.1419	-0.1088	26.52	0.66	-0.750			
0.9141	58502.52	3.1390	3.1391	-0.1081	26.52	0.66	-0.750			
0.9144	58523.16	3.1360	3.1359	-0.1069	26.52	0.66	-0.750			
0.9147	58543.50	3.1330	3.1330	-0.1061	26.53	0.67	-0.750			
0.9151	58563.78	3.1300	3.1299	-0.1052	26.53	0.67	-0.750			
0.9154	58583.67	3.1270	3.1270	-0.1043	26.54	0.68	-0.750			
0.9157	58603.64	3.1240	3.1240	-0.1038	26.54	0.68	-0.750			
0.9160	58623.57	3.1210	3.1210	-0.1033	26.55	0.69	-0.750			
0.9163	58643.35	3.1180	3.1180	-0.1028	26.55	0.69	-0.750			
0.9166	58663.09	3.1150	3.1151	-0.1021	26.55	0.69	-0.750			
0.9169	58682.62	3.1120	3.1119	-0.1014	26.56	0.70	-0.750			
0.9172	58702.03	3.1090	3.1090	-0.1007	26.56	0.70	-0.750			
0.9175	58721.30	3.1060	3.1061	-0.1000	26.57	0.71	-0.750			
0.9178	58740.44	3.1030	3.1030	-0.0992	26.57	0.71	-0.750			
0.9181	58759.41	3.1000	3.1000	-0.0984	26.57	0.71	-0.750			
0.9184	58778.19	3.0970	3.0970	-0.0976	26.58	0.72	-0.750			
0.9187	58796.86	3.0940	3.0941	-0.0969	26.58	0.72	-0.750			
0.9190	58815.34	3.0910	3.0910	-0.0964	26.59	0.73	-0.750			
0.9193	58833.79	3.0880	3.0880	-0.0958	26.59	0.73	-0.750			
0.9196	58852.02	3.0850	3.0850	-0.0953	26.59	0.73	-0.750			
0.9198	58870.28	3.0820	3.0820	-0.0949	26.60	0.74	-0.750			
0.9201	58888.52	3.0790	3.0789	-0.0945	26.60	0.74	-0.750			
0.9204	58906.61	3.0760	3.0761	-0.0940	26.60	0.74	-0.750			
0.9207	58924.70	3.0730	3.0731	-0.0936	26.61	0.75	-0.750			
0.9210	58942.61	3.0700	3.0700	-0.0930	26.61	0.75	-0.750			
0.9213	58960.42	3.0670	3.0671	-0.0924	26.62	0.76	-0.750			
0.9215	58978.10	3.0640	3.0639	-0.0917	26.62	0.76	-0.750			
0.9218	58995.57	3.0610	3.0609	-0.0912	26.62	0.76	-0.750			
0.9221	59013.03	3.0580	3.0581	-0.0907	26.63	0.77	-0.750			
0.9223	59030.28	3.0550	3.0549	-0.0905	26.63	0.77	-0.750			
0.9226	59047.63	3.0520	3.0520	-0.0903	26.63	0.77	-0.750			
0.9229	59065.15	3.0490	3.0490	-0.0896	26.64	0.78	-0.750			
0.9232	59082.29	3.0460	3.0459	-0.0889	26.64	0.78	-0.750			
0.9234	59099.33	3.0430	3.0431	-0.0887	26.65	0.79	-0.750			
0.9237	59116.30	3.0400	3.0401	-0.0881	26.65	0.79	-0.750			
0.9240	59133.07	3.0370	3.0369	-0.0879	26.65	0.79	-0.750			
0.9242	59149.79	3.0340	3.0339	-0.0874	26.66	0.80	-0.750			
0.9245	59166.56	3.0310	3.0308	-0.0871	26.66	0.80	-0.750			
0.9247	59183.07	3.0280	3.0281	-0.0867	26.66	0.80	-0.750			
0.9250	59199.84	3.0250	3.0250	-0.0862	26.67	0.81	-0.750			
0.9253	59216.65	3.0220	3.0220	-0.0862	26.67	0.81	-0.750			
0.9255	59233.17	3.0190	3.0189	-0.0854	26.68	0.82	-0.750			
0.9258	59249.56	3.0160	3.0161	-0.0847	26.68	0.82	-0.750			
0.9260	59265.74	3.0130	3.0129	-0.0838	26.68	0.82	-0.750			
0.9263	59281.78	3.0100	3.0101	-0.0830	26.69	0.83	-0.750			
0.9265	59297.62	3.0070	3.0070	-0.0821	26.69	0.83	-0.750			
0.9268	59313.29	3.0040	3.0039	-0.0809	26.69	0.83	-0.751			
