Ah_balance (normalized)	Ah_balance (mAh)	Voltage - fit (V)	Voltage -  interpolate (V)	dQ/dV (1/V)	Temperature (°C)	Temperature - diff (°C)	Current (C)	R_DC 0ms (mOhm)	R_DC 50ms (mOhm)	R_DC 50 ms PEC (mOhm)
0.0535	3422.56	4.1960	4.1959	0.7366	26.74	0.75	0.750			
0.0557	3564.52	4.1930	4.1931	0.7482	26.74	0.75	0.750			
0.0580	3712.27	4.1900	4.1900	0.7579	26.74	0.75	0.750			
0.0603	3858.08	4.1870	4.1870	0.7619	26.74	0.75	0.750			
0.0626	4007.59	4.1840	4.1840	0.7665	26.74	0.75	0.750			
0.0649	4152.31	4.1810	4.1810	0.7645	26.74	0.75	0.750			
0.0672	4299.83	4.1780	4.1780	0.7638	26.74	0.75	0.750			
0.0695	4445.57	4.1750	4.1750	0.7683	26.74	0.75	0.750			
0.0718	4592.40	4.1720	4.1720	0.7670	26.74	0.75	0.750			
0.0741	4741.35	4.1690	4.1690	0.7720	26.74	0.75	0.750			
0.0764	4889.23	4.1660	4.1659	0.7738	26.74	0.75	0.750			
0.0787	5039.39	4.1630	4.1630	0.7739	26.74	0.75	0.750			
0.0811	5187.55	4.1600	4.1600	0.7718	26.74	0.75	0.750			
0.0834	5337.58	4.1570	4.1570	0.7678	26.74	0.75	0.750			
0.0857	5482.26	4.1540	4.1541	0.7658	26.74	0.75	0.750			
0.0880	5629.00	4.1510	4.1510	0.7726	26.74	0.75	0.750			
0.0903	5776.50	4.1480	4.1480	0.7736	26.74	0.75	0.750			
0.0926	5924.46	4.1450	4.1451	0.7778	26.74	0.75	0.750			
0.0949	6074.86	4.1420	4.1420	0.7874	26.74	0.75	0.750			
0.0973	6228.24	4.1390	4.1390	0.7853	26.74	0.75	0.750			
0.0997	6379.47	4.1360	4.1361	0.7887	26.74	0.75	0.750			
0.1020	6529.55	4.1330	4.1331	0.7875	26.74	0.75	0.750			
0.1044	6680.55	4.1300	4.1297	0.7870	26.74	0.75	0.750			
0.1068	6832.16	4.1270	4.1270	0.7953	26.74	0.75	0.750			
0.1091	6984.40	4.1240	4.1241	0.7922	26.74	0.75	0.750			
0.1115	7138.02	4.1210	4.1210	0.7942	26.74	0.75	0.750			
0.1139	7290.89	4.1180	4.1180	0.7909	26.74	0.75	0.750			
0.1163	7442.94	4.1150	4.1149	0.7906	26.74	0.75	0.750			
0.1187	7594.34	4.1120	4.1121	0.7909	26.74	0.75	0.750			
0.1210	7746.88	4.1090	4.1089	0.7890	26.74	0.75	0.750			
0.1234	7895.98	4.1060	4.1060	0.7921	26.74	0.75	0.750			
0.1258	8050.27	4.1030	4.1031	0.7988	26.74	0.75	0.750			
0.1282	8203.75	4.1000	4.0999	0.7985	26.74	0.75	0.750			
0.1306	8357.51	4.0970	4.0971	0.7977	26.74	0.75	0.750			
0.1330	8511.21	4.0940	4.0941	0.7953	26.74	0.75	0.750			
0.1354	8662.52	4.0910	4.0911	0.8019	26.74	0.75	0.750			
0.1378	8817.03	4.0880	4.0879	0.8047	26.74	0.75	0.750			
0.1402	8970.29	4.0850	4.0849	0.8052	26.74	0.75	0.750			
0.1426	9126.22	4.0820	4.0821	0.8114	26.74	0.75	0.750			
0.1451	9284.87	4.0790	4.0790	0.8094	26.74	0.75	0.750			
0.1475	9440.68	4.0760	4.0760	0.8151	26.74	0.75	0.750			
0.1499	9596.13	4.0730	4.0730	0.8178	26.74	0.75	0.750			
0.1523	9750.27	4.0700	4.0701	0.8186	26.74	0.75	0.750			
0.1548	9909.74	4.0670	4.0668	0.8259	26.74	0.75	0.750			
0.1573	10069.16	4.0640	4.0640	0.8291	26.74	0.75	0.750			
0.1598	10229.15	4.0610	4.0611	0.8279	26.74	0.75	0.750			
0.1623	10386.68	4.0580	4.0581	0.8352	26.74	0.75	0.750			
0.1648	10546.23	4.0550	4.0551	0.8355	26.74	0.75	0.750			
0.1673	10706.88	4.0520	4.0521	0.8385	26.74	0.75	0.750			
0.1698	10869.68	4.0490	4.0492	0.8445	26.74	0.75	0.750			
0.1724	11035.02	4.0460	4.0461	0.8546	26.74	0.75	0.750			
0.1750	11200.95	4.0430	4.0430	0.8554	26.74	0.75	0.750			
0.1776	11363.30	4.0400	4.0400	0.8467	26.74	0.75	0.750			
0.1801	11524.69	4.0370	4.0371	0.8557	26.74	0.75	0.750			
0.1827	11690.34	4.0340	4.0341	0.8583	26.74	0.75	0.750			
0.1852	11855.33	4.0310	4.0309	0.8629	26.74	0.75	0.750			
0.1878	12021.95	4.0280	4.0280	0.8694	26.74	0.75	0.750			
0.1905	12189.50	4.0250	4.0252	0.8725	26.74	0.75	0.750			
0.1931	12358.26	4.0220	4.0220	0.8737	26.74	0.75	0.750			
0.1958	12528.07	4.0190	4.0189	0.8692	26.74	0.75	0.750			
0.1983	12692.58	4.0160	4.0160	0.8703	26.74	0.75	0.750			
0.2009	12860.31	4.0130	4.0131	0.8743	26.74	0.75	0.750			
0.2035	13026.89	4.0100	4.0098	0.8699	26.74	0.75	0.750			
0.2061	13192.85	4.0070	4.0070	0.8728	26.74	0.75	0.750			
0.2088	13361.16	4.0040	4.0041	0.8740	26.74	0.75	0.750			
0.2114	13528.09	4.0010	4.0010	0.8798	26.75	0.76	0.750			
0.2140	13697.92	3.9980	3.9980	0.8881	26.75	0.76	0.750			
0.2167	13868.41	3.9950	3.9947	0.8890	26.75	0.76	0.750			
0.2194	14040.05	3.9920	3.9920	0.8955	26.75	0.76	0.750			
0.2221	14213.54	3.9890	3.9891	0.8994	26.75	0.76	0.750			
0.2248	14388.05	3.9860	3.9861	0.8989	26.74	0.75	0.750			
0.2275	14560.36	3.9830	3.9829	0.8935	26.74	0.75	0.750			
0.2302	14732.29	3.9800	3.9800	0.8962	26.74	0.75	0.750			
0.2329	14905.42	3.9770	3.9770	0.8845	26.75	0.76	0.750			
0.2355	15072.60	3.9740	3.9740	0.8935	26.75	0.76	0.750			
0.2382	15244.33	3.9710	3.9712	0.8991	26.75	0.76	0.750			
0.2409	15415.45	3.9680	3.9678	0.9030	26.76	0.77	0.750			
0.2436	15591.75	3.9650	3.9651	0.9031	26.76	0.77	0.750			
0.2463	15764.93	3.9620	3.9621	0.9113	26.76	0.77	0.750			
0.2491	15940.83	3.9590	3.9590	0.9160	26.76	0.77	0.750			
0.2519	16121.47	3.9560	3.9560	0.9200	26.76	0.77	0.750			
0.2546	16294.08	3.9530	3.9528	0.9157	26.76	0.77	0.750			
0.2574	16470.92	3.9500	3.9501	0.9190	26.76	0.77	0.750			
0.2601	16648.26	3.9470	3.9469	0.9171	26.76	0.77	0.750			
0.2629	16824.04	3.9440	3.9441	0.9206	26.76	0.77	0.750			
0.2656	16999.46	3.9410	3.9410	0.9151	26.76	0.77	0.750			
0.2684	17177.55	3.9380	3.9379	0.9180	26.76	0.77	0.750			
0.2712	17354.84	3.9350	3.9350	0.9186	26.75	0.76	0.750			
0.2739	17529.62	3.9320	3.9321	0.9189	26.75	0.76	0.750			
0.2767	17707.34	3.9290	3.9291	0.9209	26.74	0.75	0.750			
0.2794	17883.15	3.9260	3.9258	0.9236	26.74	0.75	0.750			
0.2822	18061.13	3.9230	3.9230	0.9185	26.74	0.75	0.750			
0.2849	18235.86	3.9200	3.9201	0.9291	26.75	0.76	0.750			
0.2877	18415.37	3.9170	3.9170	0.9335	26.75	0.76	0.750			
0.2906	18595.83	3.9140	3.9140	0.9410	26.76	0.77	0.750			
0.2934	18779.14	3.9110	3.9110	0.9369	26.76	0.77	0.750			
0.2962	18958.78	3.9080	3.9081	0.9442	26.75	0.76	0.750			
0.2991	19139.99	3.9050	3.9050	0.9459	26.75	0.76	0.750			
0.3019	19322.24	3.9020	3.9020	0.9537	26.74	0.75	0.750			
0.3047	19502.06	3.8990	3.8989	0.9494	26.74	0.75	0.750			
0.3076	19687.31	3.8960	3.8961	0.9522	26.73	0.74	0.750			
0.3105	19871.29	3.8930	3.8931	0.9552	26.73	0.74	0.750			
0.3134	20056.12	3.8900	3.8901	0.9586	26.73	0.74	0.750			
0.3162	20238.17	3.8870	3.8868	0.9553	26.72	0.73	0.750			
0.3191	20423.30	3.8840	3.8841	0.9509	26.72	0.73	0.750			
0.3219	20604.05	3.8810	3.8810	0.9541	26.72	0.73	0.750			
0.3248	20787.11	3.8780	3.8780	0.9634	26.72	0.73	0.750			
0.3277	20971.24	3.8750	3.8752	0.9675	26.72	0.73	0.750			
0.3306	21158.79	3.8720	3.8720	0.9807	26.72	0.73	0.750			
0.3336	21348.79	3.8690	3.8691	0.9918	26.71	0.72	0.750			
0.3366	21541.96	3.8660	3.8660	1.0016	26.70	0.71	0.750			
0.3397	21737.67	3.8630	3.8631	1.0129	26.69	0.70	0.750			
0.3427	21931.60	3.8600	3.8599	1.0084	26.68	0.69	0.750			
0.3457	22125.26	3.8570	3.8570	1.0136	26.67	0.68	0.750			
0.3487	22319.20	3.8540	3.8540	1.0221	26.67	0.68	0.750			
0.3518	22515.16	3.8510	3.8511	1.0301	26.66	0.67	0.750			
0.3549	22716.41	3.8480	3.8479	1.0360	26.66	0.67	0.750			
0.3581	22915.86	3.8450	3.8451	1.0416	26.65	0.66	0.750			
0.3612	23116.73	3.8420	3.8420	1.0541	26.64	0.65	0.750			
0.3644	23320.13	3.8390	3.8391	1.0665	26.63	0.64	0.750			
0.3676	23528.22	3.8360	3.8358	1.0612	26.62	0.63	0.750			
0.3708	23730.79	3.8330	3.8332	1.0687	26.61	0.62	0.750			
0.3740	23938.21	3.8300	3.8300	1.0729	26.60	0.61	0.750			
0.3773	24144.34	3.8270	3.8272	1.0761	26.59	0.60	0.750			
0.3805	24352.01	3.8240	3.8239	1.0714	26.58	0.59	0.750			
0.3837	24554.82	3.8210	3.8211	1.0787	26.57	0.58	0.750			
0.3869	24762.66	3.8180	3.8180	1.0842	26.56	0.57	0.750			
0.3902	24972.77	3.8150	3.8150	1.0951	26.55	0.56	0.750			
0.3935	25183.78	3.8120	3.8121	1.0939	26.55	0.56	0.750			
0.3968	25395.82	3.8090	3.8091	1.1058	26.54	0.55	0.750			
0.4001	25607.87	3.8060	3.8060	1.1135	26.53	0.54	0.750			
0.4035	25824.68	3.8030	3.8029	1.1159	26.52	0.53	0.750			
0.4068	26035.71	3.8000	3.8000	1.1189	26.51	0.52	0.750			
0.4102	26250.84	3.7970	3.7970	1.1338	26.50	0.51	0.750			
0.4136	26469.98	3.7940	3.7941	1.1410	26.49	0.50	0.750			
0.4170	26690.60	3.7910	3.7908	1.1507	26.48	0.49	0.750			
0.4205	26909.20	3.7880	3.7881	1.1515	26.46	0.47	0.750			
0.4239	27129.54	3.7850	3.7852	1.1651	26.45	0.46	0.750			
0.4275	27357.00	3.7820	3.7821	1.1793	26.44	0.45	0.750			
0.4309	27580.20	3.7790	3.7791	1.2006	26.42	0.43	0.750			
0.4345	27810.59	3.7760	3.7761	1.2234	26.41	0.42	0.750			
0.4384	28054.46	3.7730	3.7730	1.2396	26.39	0.40	0.750			
0.4421	28295.28	3.7700	3.7698	1.2842	26.38	0.39	0.750			
0.4459	28536.53	3.7670	3.7673	1.3143	26.37	0.38	0.750			
0.4499	28791.41	3.7640	3.7637	1.3517	26.36	0.37	0.750			
0.4540	29058.68	3.7610	3.7607	1.3751	26.35	0.36	0.750	0.307	0.398	
0.4582	29324.43	3.7580	3.7582	1.3990	26.33	0.34	0.750			
0.4625	29601.78	3.7550	3.7551	1.4374	26.32	0.33	0.750			
0.4669	29883.44	3.7520	3.7517	1.4550	26.30	0.31	0.750			
0.4711	30153.27	3.7490	3.7490	1.4740	26.29	0.30	0.750			
0.4756	30437.91	3.7460	3.7461	1.5121	26.28	0.29	0.750			
0.4802	30734.61	3.7430	3.7431	1.5544	26.27	0.28	0.750			
0.4850	31037.25	3.7400	3.7400	1.5863	26.25	0.26	0.750			
0.4898	31345.77	3.7370	3.7369	1.6270	26.24	0.25	0.750			
0.4947	31661.55	3.7340	3.7342	1.6628	26.22	0.23	0.750			
0.4998	31985.86	3.7310	3.7310	1.6990	26.20	0.21	0.750			
0.5048	32309.32	3.7280	3.7279	1.7481	26.19	0.20	0.750			
0.5101	32647.70	3.7250	3.7249	1.8157	26.17	0.18	0.750			
0.5157	33005.60	3.7220	3.7219	1.8650	26.14	0.15	0.750			
0.5215	33374.40	3.7190	3.7190	1.9122	26.12	0.13	0.750			
0.5274	33751.05	3.7160	3.7160	1.9603	26.11	0.12	0.750			
0.5332	34126.97	3.7130	3.7131	2.0054	26.09	0.10	0.750			
0.5394	34520.48	3.7100	3.7101	2.0786	26.08	0.09	0.750			
0.5455	34909.29	3.7070	3.7071	2.1520	26.06	0.07	0.750			
0.5520	35330.63	3.7040	3.7040	2.2397	26.04	0.05	0.750			
0.5591	35779.61	3.7010	3.7010	2.2880	26.01	0.02	0.750			
0.5661	36232.47	3.6980	3.6981	2.3390	25.99	0.00	0.750			
0.5732	36685.44	3.6950	3.6952	2.3993	25.97	-0.02	0.750			
0.5804	37146.48	3.6920	3.6918	2.4361	25.95	-0.04	0.750			
0.5877	37613.99	3.6890	3.6889	2.5125	25.93	-0.06	0.750			
0.5954	38103.48	3.6860	3.6860	2.5886	25.91	-0.08	0.750			
0.6033	38614.13	3.6830	3.6832	2.7264	25.89	-0.10	0.750			
0.6116	39144.48	3.6800	3.6800	2.8526	25.88	-0.11	0.750			
0.6204	39708.03	3.6770	3.6771	2.9550	25.86	-0.13	0.750			
0.6295	40290.01	3.6740	3.6738	3.0220	25.85	-0.14	0.750			
0.6385	40865.30	3.6710	3.6712	3.0998	25.83	-0.16	0.750			
0.6480	41469.76	3.6680	3.6680	3.0989	25.81	-0.18	0.750			
0.6573	42069.27	3.6650	3.6653	3.0300	25.80	-0.19	0.750			
0.6666	42660.23	3.6620	3.6621	2.8763	25.79	-0.20	0.750			
0.6748	43185.13	3.6590	3.6590	2.5565	25.79	-0.20	0.750			
0.6817	43631.89	3.6560	3.6561	2.2728	25.79	-0.20	0.750			
0.6881	44036.77	3.6530	3.6532	2.0449	25.79	-0.20	0.750			
0.6936	44390.06	3.6500	3.6498	1.8369	25.79	-0.20	0.750			
0.6986	44710.28	3.6470	3.6467	1.6686	25.79	-0.20	0.750			
0.7034	45018.67	3.6440	3.6439	1.5374	25.79	-0.20	0.750			
0.7079	45303.71	3.6410	3.6413	1.4493	25.79	-0.20	0.750			
0.7121	45571.59	3.6380	3.6381	1.3572	25.79	-0.20	0.750			
0.7158	45813.32	3.6350	3.6348	1.2825	25.79	-0.20	0.750			
0.7195	46047.85	3.6320	3.6320	1.2342	25.79	-0.20	0.750			
0.7230	46271.96	3.6290	3.6291	1.2075	25.78	-0.21	0.750			
0.7266	46504.19	3.6260	3.6261	1.2078	25.78	-0.21	0.750			
0.7302	46734.95	3.6230	3.6231	1.1988	25.78	-0.21	0.750			
0.7338	46963.49	3.6200	3.6202	1.2084	25.78	-0.21	0.750			
0.7375	47198.05	3.6170	3.6170	1.2153	25.78	-0.21	0.750			
0.7412	47435.00	3.6140	3.6137	1.2119	25.78	-0.21	0.750			
0.7448	47666.25	3.6110	3.6111	1.1967	25.78	-0.21	0.750			
0.7484	47900.20	3.6080	3.6082	1.1924	25.77	-0.22	0.750			
0.7520	48130.81	3.6050	3.6050	1.1796	25.77	-0.22	0.750			
0.7555	48352.63	3.6020	3.6019	1.1581	25.77	-0.22	0.750			
0.7588	48563.78	3.5990	3.5992	1.1421	25.77	-0.22	0.750			
0.7622	48782.30	3.5960	3.5960	1.1548	25.77	-0.22	0.750			
0.7657	49005.64	3.5930	3.5928	1.1713	25.77	-0.22	0.750			
0.7692	49228.84	3.5900	3.5901	1.2018	25.77	-0.22	0.750			
0.7728	49460.33	3.5870	3.5871	1.2400	25.77	-0.22	0.750			
0.7767	49705.80	3.5840	3.5840	1.2693	25.77	-0.22	0.750			
0.7806	49957.84	3.5810	3.5809	1.3105	25.77	-0.22	0.750			
0.7844	50201.83	3.5780	3.5782	1.3548	25.77	-0.22	0.750			
0.7885	50465.61	3.5750	3.5751	1.4092	25.77	-0.22	0.750			
0.7928	50741.88	3.5720	3.5719	1.4371	25.77	-0.22	0.750			
0.7972	51017.76	3.5690	3.5689	1.4847	25.76	-0.23	0.750			
0.8017	51308.35	3.5660	3.5663	1.5314	25.75	-0.24	0.750			
0.8064	51611.78	3.5630	3.5635	1.5690	25.75	-0.24	0.750			
0.8112	51917.08	3.5600	3.5599	1.6021	25.75	-0.24	0.750			
0.8161	52229.82	3.5570	3.5571	1.6179	25.75	-0.24	0.750			
0.8211	52552.69	3.5540	3.5540	1.6625	25.75	-0.24	0.750			
0.8261	52867.74	3.5510	3.5511	1.6493	25.75	-0.24	0.750			
0.8310	53184.12	3.5480	3.5482	1.6651	25.75	-0.24	0.750			
0.8361	53508.74	3.5450	3.5449	1.6651	25.75	-0.24	0.750			
0.8411	53829.21	3.5420	3.5420	1.6854	25.75	-0.24	0.750			
0.8461	54148.39	3.5390	3.5389	1.7051	25.75	-0.24	0.750			
0.8512	54475.16	3.5360	3.5356	1.7370	25.75	-0.24	0.750			
0.8567	54828.84	3.5330	3.5328	1.7095	25.75	-0.24	0.750			
0.8621	55174.79	3.5300	3.5300	1.6347	25.76	-0.23	0.750			
0.8673	55506.50	3.5270	3.5269	1.4800	25.77	-0.22	0.750			
0.8718	55793.58	3.5240	3.5247	1.2384	25.79	-0.20	0.750			
0.8752	56010.29	3.5210	3.5211	0.9617	25.80	-0.19	0.750			
0.8772	56140.35	3.5180	3.5177	0.7283	25.81	-0.18	0.750			
0.8785	56225.47	3.5150	3.5148	0.5043	25.82	-0.17	0.750			
0.8797	56302.41	3.5120	3.5118	0.4253	25.82	-0.17	0.750			
0.8808	56373.91	3.5090	3.5089	0.3761	25.83	-0.16	0.750			
0.8818	56438.14	3.5060	3.5061	0.3444	25.84	-0.15	0.750			
0.8828	56500.94	3.5030	3.5030	0.3255	25.85	-0.14	0.750			
0.8837	56559.92	3.5000	3.5000	0.3078	25.85	-0.14	0.750			
0.8846	56616.73	3.4970	3.4970	0.2952	25.86	-0.13	0.750			
0.8855	56671.87	3.4940	3.4940	0.2872	25.87	-0.12	0.750			
0.8863	56725.62	3.4910	3.4910	0.2813	25.87	-0.12	0.750			
0.8872	56778.94	3.4880	3.4879	0.2750	25.88	-0.11	0.750			
0.8880	56831.49	3.4850	3.4850	0.2692	25.88	-0.11	0.750			
0.8888	56882.68	3.4820	3.4820	0.2633	25.89	-0.10	0.750			
0.8896	56932.41	3.4790	3.4791	0.2570	25.90	-0.09	0.750			
0.8903	56981.66	3.4760	3.4760	0.2526	25.90	-0.09	0.750			
0.8911	57029.23	3.4730	3.4730	0.2466	25.91	-0.08	0.750			
0.8918	57076.00	3.4700	3.4700	0.2424	25.91	-0.08	0.750			
0.8925	57121.85	3.4670	3.4670	0.2368	25.92	-0.07	0.750			
0.8932	57167.29	3.4640	3.4640	0.2321	25.92	-0.07	0.750			
0.8939	57211.80	3.4610	3.4609	0.2272	25.92	-0.07	0.750			
0.8946	57254.63	3.4580	3.4581	0.2225	25.93	-0.06	0.750			
0.8953	57296.25	3.4550	3.4550	0.2179	25.93	-0.06	0.750			
0.8959	57337.92	3.4520	3.4519	0.2138	25.94	-0.05	0.750			
0.8965	57378.57	3.4490	3.4489	0.2098	25.94	-0.05	0.750			
0.8972	57418.35	3.4460	3.4461	0.2047	25.95	-0.04	0.750			
0.8978	57457.60	3.4430	3.4431	0.2007	25.95	-0.04	0.750			
0.8984	57495.69	3.4400	3.4400	0.1966	25.95	-0.04	0.750			
0.8990	57532.96	3.4370	3.4369	0.1917	25.96	-0.03	0.750			
0.8995	57569.07	3.4340	3.4339	0.1864	25.96	-0.03	0.750			
0.9001	57604.37	3.4310	3.4310	0.1812	25.96	-0.03	0.750			
0.9006	57639.01	3.4280	3.4280	0.1767	25.97	-0.02	0.750			
0.9011	57672.42	3.4250	3.4251	0.1713	25.97	-0.02	0.750			
0.9016	57705.00	3.4220	3.4219	0.1660	25.97	-0.02	0.750			
0.9021	57736.09	3.4190	3.4190	0.1608	25.98	-0.01	0.750			
0.9026	57766.23	3.4160	3.4161	0.1554	25.98	-0.01	0.750			
0.9031	57795.79	3.4130	3.4129	0.1498	25.98	-0.01	0.750			
0.9035	57824.19	3.4100	3.4099	0.1447	25.99	-0.00	0.750			
0.9039	57851.56	3.4070	3.4071	0.1392	25.99	-0.00	0.750			
0.9043	57877.82	3.4040	3.4041	0.1335	25.99	0.00	0.750			
0.9047	57902.95	3.4010	3.4010	0.1273	25.99	0.00	0.750			
0.9051	57926.91	3.3980	3.3979	0.1212	26.00	0.01	0.750			
0.9055	57949.73	3.3950	3.3950	0.1139	26.00	0.01	0.750			
0.9058	57970.95	3.3920	3.3921	0.1070	26.00	0.01	0.750			
0.9061	57992.03	3.3890	3.3889	0.0991	26.00	0.01	0.750			
0.9064	58010.14	3.3860	3.3860	0.0896	26.00	0.01	0.750			
0.9067	58026.91	3.3830	3.3830	0.0810	26.01	0.02	0.750			
0.9069	58041.49	3.3800	3.3802	0.0709	26.01	0.02	0.750			
0.9071	58054.71	3.3770	3.3774	0.0609	26.01	0.02	0.750			
0.9073	58065.34	3.3740	3.3745	0.0499	26.01	0.02	0.750			
0.9074	58073.87	3.3710	3.3719	0.0389	26.01	0.02	0.750			
0.9075	58080.28	3.3680	3.3691	0.0279	26.01	0.02	0.750			
