Ah_balance (normalized)	Ah_balance (mAh)	Voltage - fit (V)	Voltage -  interpolate (V)	dQ/dV (1/V)	Temperature (°C)	Temperature - diff (°C)	Current (C)	R_DC 0ms (mOhm)	R_DC 50ms (mOhm)	R_DC 50 ms PEC (mOhm)
0.0499	3190.43	4.1980	4.1982	0.7343	26.35	0.38	0.750			
0.0521	3335.91	4.1950	4.1951	0.7727	26.35	0.38	0.750			
0.0544	3484.37	4.1920	4.1921	0.7751	26.35	0.38	0.750			
0.0568	3634.82	4.1890	4.1890	0.7700	26.35	0.38	0.750			
0.0591	3782.37	4.1860	4.1860	0.7756	26.35	0.38	0.750			
0.0614	3929.71	4.1830	4.1830	0.7672	26.35	0.38	0.750			
0.0637	4075.96	4.1800	4.1798	0.7695	26.35	0.38	0.750			
0.0660	4223.47	4.1770	4.1771	0.7725	26.35	0.38	0.750			
0.0683	4374.08	4.1740	4.1740	0.7661	26.35	0.38	0.750			
0.0706	4520.75	4.1710	4.1710	0.7734	26.35	0.38	0.750			
0.0730	4669.61	4.1680	4.1681	0.7810	26.35	0.38	0.750			
0.0752	4815.74	4.1650	4.1649	0.7792	26.35	0.38	0.750			
0.0776	4968.16	4.1620	4.1620	0.7891	26.35	0.38	0.750			
0.0800	5120.53	4.1590	4.1591	0.7877	26.35	0.38	0.750			
0.0824	5273.55	4.1560	4.1560	0.7895	26.35	0.38	0.750			
0.0848	5429.05	4.1530	4.1530	0.7924	26.35	0.38	0.750			
0.0871	5576.56	4.1500	4.1501	0.7827	26.35	0.38	0.750			
0.0895	5726.98	4.1470	4.1470	0.7798	26.35	0.38	0.750			
0.0918	5875.13	4.1440	4.1439	0.7795	26.35	0.38	0.750			
0.0941	6025.23	4.1410	4.1411	0.7733	26.35	0.38	0.750			
0.0965	6172.84	4.1380	4.1380	0.7815	26.35	0.38	0.750			
0.0988	6322.56	4.1350	4.1351	0.7851	26.35	0.38	0.750			
0.1012	6473.92	4.1320	4.1316	0.7885	26.35	0.38	0.750			
0.1035	6624.15	4.1290	4.1292	0.7959	26.35	0.38	0.750			
0.1059	6779.27	4.1260	4.1260	0.8014	26.35	0.38	0.750			
0.1084	6935.36	4.1230	4.1230	0.8040	26.35	0.38	0.750			
0.1108	7089.58	4.1200	4.1200	0.8037	26.35	0.38	0.750			
0.1132	7244.18	4.1170	4.1169	0.8035	26.35	0.38	0.750			
0.1156	7400.47	4.1140	4.1140	0.8046	26.35	0.38	0.750			
0.1181	7555.60	4.1110	4.1111	0.7994	26.36	0.39	0.750			
0.1204	7706.88	4.1080	4.1080	0.7972	26.36	0.39	0.750			
0.1228	7859.69	4.1050	4.1051	0.8019	26.36	0.39	0.750			
0.1252	8012.74	4.1020	4.1017	0.8013	26.37	0.40	0.750			
0.1276	8166.20	4.0990	4.0990	0.8023	26.37	0.40	0.750			
0.1301	8324.10	4.0960	4.0960	0.8005	26.37	0.40	0.750			
0.1324	8476.42	4.0930	4.0931	0.8066	26.37	0.40	0.750			
0.1349	8631.13	4.0900	4.0901	0.8157	26.37	0.40	0.750			
0.1373	8786.28	4.0870	4.0869	0.8155	26.37	0.40	0.750			
0.1398	8944.03	4.0840	4.0841	0.8213	26.37	0.40	0.750			
0.1422	9103.19	4.0810	4.0811	0.8279	26.37	0.40	0.750			
0.1447	9263.34	4.0780	4.0781	0.8310	26.37	0.40	0.750			
0.1473	9425.88	4.0750	4.0749	0.8372	26.37	0.40	0.750			
0.1497	9583.68	4.0720	4.0720	0.8315	26.37	0.40	0.750			
0.1523	9744.30	4.0690	4.0690	0.8339	26.37	0.40	0.750			
0.1548	9907.22	4.0660	4.0660	0.8304	26.37	0.40	0.750			
0.1573	10064.79	4.0630	4.0630	0.8344	26.37	0.40	0.750			
0.1598	10224.02	4.0600	4.0601	0.8384	26.37	0.40	0.750			
0.1623	10384.86	4.0570	4.0569	0.8407	26.37	0.40	0.750			
0.1648	10546.16	4.0540	4.0541	0.8456	26.37	0.40	0.750			
0.1674	10711.17	4.0510	4.0510	0.8417	26.36	0.39	0.750			
0.1699	10872.21	4.0480	4.0480	0.8474	26.36	0.39	0.750			
0.1724	11036.13	4.0450	4.0451	0.8554	26.36	0.39	0.750			
0.1750	11197.34	4.0420	4.0420	0.8526	26.35	0.38	0.750			
0.1775	11362.14	4.0390	4.0390	0.8606	26.35	0.38	0.750			
0.1801	11529.07	4.0360	4.0360	0.8620	26.36	0.39	0.750			
0.1827	11694.16	4.0330	4.0331	0.8685	26.36	0.39	0.750			
0.1853	11862.16	4.0300	4.0301	0.8744	26.37	0.40	0.750			
0.1880	12030.89	4.0270	4.0267	0.8811	26.37	0.40	0.750			
0.1906	12200.27	4.0240	4.0239	0.8829	26.37	0.40	0.750			
0.1933	12372.72	4.0210	4.0211	0.8792	26.37	0.40	0.750			
0.1959	12540.74	4.0180	4.0181	0.8791	26.37	0.40	0.750			
0.1986	12712.76	4.0150	4.0150	0.8856	26.37	0.40	0.750			
0.2012	12874.60	4.0120	4.0118	0.8756	26.37	0.40	0.750			
0.2039	13046.62	4.0090	4.0090	0.8671	26.37	0.40	0.750			
0.2064	13211.22	4.0060	4.0060	0.8755	26.37	0.40	0.750			
0.2091	13380.44	4.0030	4.0031	0.8839	26.37	0.40	0.750			
0.2117	13550.79	4.0000	4.0001	0.8918	26.37	0.40	0.750			
0.2144	13719.34	3.9970	3.9968	0.8938	26.37	0.40	0.750			
0.2171	13893.54	3.9940	3.9941	0.9007	26.38	0.41	0.750			
0.2198	14066.84	3.9910	3.9911	0.9064	26.38	0.41	0.750			
0.2226	14245.49	3.9880	3.9880	0.9136	26.38	0.41	0.750			
0.2253	14418.96	3.9850	3.9850	0.9091	26.39	0.42	0.750			
0.2280	14594.55	3.9820	3.9820	0.9088	26.39	0.42	0.750			
0.2308	14769.30	3.9790	3.9790	0.8986	26.39	0.42	0.750			
0.2334	14938.16	3.9760	3.9760	0.9050	26.39	0.42	0.750			
0.2361	15112.01	3.9730	3.9731	0.9110	26.39	0.42	0.750			
0.2389	15286.79	3.9700	3.9696	0.9114	26.39	0.42	0.750			
0.2416	15464.07	3.9670	3.9671	0.9119	26.39	0.42	0.750			
0.2444	15639.90	3.9640	3.9642	0.9224	26.39	0.42	0.750			
0.2472	15818.69	3.9610	3.9610	0.9331	26.40	0.43	0.750			
0.2500	15997.12	3.9580	3.9579	0.9262	26.40	0.43	0.750			
0.2528	16176.30	3.9550	3.9551	0.9227	26.40	0.43	0.750			
0.2555	16353.58	3.9520	3.9520	0.9317	26.40	0.43	0.750			
0.2584	16534.42	3.9490	3.9492	0.9298	26.39	0.42	0.750			
0.2611	16713.10	3.9460	3.9459	0.9329	26.39	0.42	0.750			
0.2639	16889.96	3.9430	3.9429	0.9318	26.39	0.42	0.750			
0.2667	17070.84	3.9400	3.9400	0.9228	26.39	0.42	0.750			
0.2695	17248.14	3.9370	3.9369	0.9358	26.39	0.42	0.750			
0.2723	17426.77	3.9340	3.9341	0.9415	26.39	0.42	0.750			
0.2751	17605.55	3.9310	3.9309	0.9429	26.39	0.42	0.750			
0.2780	17791.64	3.9280	3.9281	0.9435	26.39	0.42	0.750			
0.2808	17972.13	3.9250	3.9251	0.9454	26.39	0.42	0.750			
0.2837	18154.09	3.9220	3.9221	0.9538	26.39	0.42	0.750			
0.2866	18339.58	3.9190	3.9191	0.9583	26.39	0.42	0.750			
0.2894	18520.36	3.9160	3.9160	0.9557	26.39	0.42	0.750			
0.2923	18704.76	3.9130	3.9131	0.9515	26.39	0.42	0.750			
0.2951	18887.89	3.9100	3.9100	0.9552	26.39	0.42	0.750			
0.2980	19071.40	3.9070	3.9071	0.9624	26.39	0.42	0.750			
0.3009	19256.11	3.9040	3.9038	0.9566	26.39	0.42	0.750			
0.3037	19439.32	3.9010	3.9010	0.9536	26.39	0.42	0.750			
0.3066	19623.64	3.8980	3.8981	0.9612	26.39	0.42	0.750			
0.3095	19806.78	3.8950	3.8950	0.9694	26.39	0.42	0.750			
0.3124	19994.12	3.8920	3.8919	0.9737	26.39	0.42	0.750			
0.3153	20181.56	3.8890	3.8891	0.9750	26.39	0.42	0.750			
0.3183	20368.44	3.8860	3.8860	0.9659	26.39	0.42	0.750			
0.3211	20553.07	3.8830	3.8833	0.9793	26.38	0.41	0.750			
0.3241	20740.44	3.8800	3.8801	0.9839	26.38	0.41	0.750			
0.3270	20929.34	3.8770	3.8771	0.9854	26.38	0.41	0.750			
0.3300	21118.13	3.8740	3.8742	0.9942	26.37	0.40	0.750			
0.3330	21311.50	3.8710	3.8711	1.0082	26.36	0.39	0.750			
0.3361	21508.65	3.8680	3.8680	1.0146	26.36	0.39	0.750			
0.3391	21702.14	3.8650	3.8650	1.0090	26.35	0.38	0.750			
0.3421	21896.42	3.8620	3.8621	1.0175	26.35	0.38	0.750			
0.3452	22093.04	3.8590	3.8590	1.0302	26.35	0.38	0.750			
0.3483	22292.05	3.8560	3.8560	1.0375	26.35	0.38	0.750			
0.3514	22490.85	3.8530	3.8530	1.0435	26.35	0.38	0.750			
0.3545	22691.02	3.8500	3.8501	1.0460	26.35	0.38	0.750			
0.3577	22891.12	3.8470	3.8471	1.0600	26.34	0.37	0.750			
0.3608	23094.34	3.8440	3.8441	1.0738	26.34	0.37	0.750			
0.3641	23303.50	3.8410	3.8406	1.0775	26.34	0.37	0.750			
0.3673	23510.32	3.8380	3.8381	1.0950	26.32	0.35	0.750			
0.3707	23724.16	3.8350	3.8351	1.1123	26.31	0.34	0.750			
0.3741	23940.71	3.8320	3.8321	1.1292	26.30	0.33	0.750			
0.3775	24158.49	3.8290	3.8290	1.1146	26.29	0.32	0.750			
0.3808	24372.44	3.8260	3.8261	1.1349	26.28	0.31	0.750			
0.3843	24592.13	3.8230	3.8230	1.1505	26.28	0.31	0.750			
0.3878	24818.77	3.8200	3.8197	1.1491	26.27	0.30	0.750			
0.3912	25038.68	3.8170	3.8171	1.1570	26.26	0.29	0.750			
0.3947	25259.24	3.8140	3.8141	1.1720	26.25	0.28	0.750			
0.3982	25486.41	3.8110	3.8111	1.1852	26.24	0.27	0.750			
0.4018	25714.54	3.8080	3.8081	1.1851	26.23	0.26	0.750			
0.4053	25942.35	3.8050	3.8050	1.1973	26.22	0.25	0.750			
0.4090	26176.54	3.8020	3.8022	1.2129	26.22	0.25	0.750			
0.4127	26413.45	3.7990	3.7987	1.2200	26.21	0.24	0.750			
0.4164	26646.97	3.7960	3.7960	1.2292	26.20	0.23	0.750			
0.4201	26883.26	3.7930	3.7931	1.2294	26.19	0.22	0.750			
0.4237	27119.45	3.7900	3.7899	1.2349	26.19	0.22	0.750			
0.4275	27359.50	3.7870	3.7870	1.2435	26.17	0.20	0.750			
0.4312	27595.58	3.7840	3.7840	1.2497	26.16	0.19	0.750			
0.4349	27835.73	3.7810	3.7810	1.2626	26.14	0.17	0.750			
0.4388	28080.03	3.7780	3.7780	1.2697	26.13	0.16	0.750			
0.4425	28321.13	3.7750	3.7752	1.2828	26.12	0.15	0.750			
0.4464	28570.39	3.7720	3.7720	1.3091	26.10	0.13	0.750			
0.4505	28829.69	3.7690	3.7686	1.2994	26.09	0.12	0.750			
0.4543	29074.92	3.7660	3.7662	1.3421	26.08	0.11	0.750			
0.4583	29330.65	3.7630	3.7632	1.3869	26.07	0.10	0.750			
0.4625	29602.30	3.7600	3.7597	1.4156	26.05	0.08	0.750			
0.4669	29878.43	3.7570	3.7574	1.4595	26.04	0.07	0.750	0.294	0.369	
0.4713	30162.03	3.7540	3.7539	1.4794	26.03	0.06	0.750			
0.4758	30449.79	3.7510	3.7507	1.5141	26.02	0.05	0.750			
0.4803	30741.62	3.7480	3.7484	1.5174	26.01	0.04	0.750			
0.4850	31040.23	3.7450	3.7451	1.5486	26.00	0.03	0.750			
0.4897	31338.60	3.7420	3.7418	1.6028	25.99	0.02	0.750			
0.4946	31652.78	3.7390	3.7388	1.6358	25.97	0.00	0.750			
0.4995	31970.85	3.7360	3.7360	1.6726	25.95	-0.02	0.750			
0.5047	32300.65	3.7330	3.7333	1.7183	25.94	-0.03	0.750			
0.5099	32633.36	3.7300	3.7299	1.7534	25.93	-0.04	0.750			
0.5152	32974.34	3.7270	3.7270	1.8009	25.91	-0.06	0.750			
0.5207	33327.82	3.7240	3.7242	1.8436	25.90	-0.07	0.750			
0.5262	33679.26	3.7210	3.7214	1.9155	25.88	-0.09	0.750			
0.5321	34055.20	3.7180	3.7180	1.9654	25.87	-0.10	0.750			
0.5381	34441.05	3.7150	3.7151	2.0507	25.85	-0.12	0.750			
0.5444	34844.56	3.7120	3.7118	2.1124	25.83	-0.14	0.750			
0.5508	35251.91	3.7090	3.7086	2.1952	25.81	-0.16	0.750			
0.5575	35681.50	3.7060	3.7065	2.2429	25.80	-0.17	0.750			
0.5644	36122.78	3.7030	3.7027	2.2875	25.79	-0.18	0.750			
0.5714	36568.66	3.7000	3.6999	2.3246	25.76	-0.21	0.750			
0.5785	37026.20	3.6970	3.6967	2.3740	25.74	-0.23	0.750			
0.5857	37484.57	3.6940	3.6934	2.4712	25.73	-0.24	0.750			
0.5930	37950.22	3.6910	3.6910	2.5465	25.71	-0.26	0.750			
0.6008	38453.64	3.6880	3.6878	2.6376	25.69	-0.28	0.750			
0.6090	38979.15	3.6850	3.6851	2.7638	25.67	-0.30	0.750			
0.6174	39512.39	3.6820	3.6821	2.8178	25.65	-0.32	0.750			
0.6260	40064.35	3.6790	3.6788	2.8679	25.64	-0.33	0.750			
0.6346	40617.28	3.6760	3.6760	2.9719	25.63	-0.34	0.750			
0.6437	41198.41	3.6730	3.6730	3.0705	25.62	-0.35	0.750			
0.6531	41796.34	3.6700	3.6703	3.1611	25.60	-0.37	0.750			
0.6629	42423.24	3.6670	3.6670	3.2176	25.59	-0.38	0.750			
0.6728	43057.51	3.6640	3.6639	3.1495	25.58	-0.39	0.750			
0.6823	43669.60	3.6610	3.6609	3.0355	25.58	-0.39	0.750			
0.6913	44244.29	3.6580	3.6580	2.7834	25.58	-0.39	0.750			
0.6992	44746.59	3.6550	3.6549	2.4888	25.58	-0.39	0.750			
0.7060	45186.59	3.6520	3.6519	2.2184	25.59	-0.38	0.750			
0.7121	45572.82	3.6490	3.6492	1.9969	25.60	-0.37	0.750			
0.7176	45928.24	3.6460	3.6460	1.8042	25.60	-0.37	0.750			
0.7227	46252.38	3.6430	3.6431	1.6324	25.60	-0.37	0.750			
0.7272	46543.32	3.6400	3.6399	1.4955	25.60	-0.37	0.750			
0.7317	46826.49	3.6370	3.6372	1.4078	25.61	-0.36	0.750			
0.7356	47075.38	3.6340	3.6341	1.3192	25.62	-0.35	0.750			
0.7393	47314.87	3.6310	3.6309	1.2412	25.62	-0.35	0.750			
0.7428	47540.46	3.6280	3.6281	1.2110	25.62	-0.35	0.750			
0.7464	47766.75	3.6250	3.6250	1.2080	25.62	-0.35	0.750			
0.7500	47999.78	3.6220	3.6218	1.2110	25.62	-0.35	0.750			
0.7536	48232.07	3.6190	3.6191	1.2142	25.62	-0.35	0.750			
0.7573	48464.66	3.6160	3.6160	1.2347	25.63	-0.34	0.750			
0.7610	48706.30	3.6130	3.6130	1.2431	25.64	-0.33	0.750			
0.7648	48949.35	3.6100	3.6100	1.2205	25.64	-0.33	0.750			
0.7685	49185.42	3.6070	3.6071	1.2083	25.64	-0.33	0.750			
0.7721	49416.96	3.6040	3.6042	1.1930	25.64	-0.33	0.750			
0.7757	49645.29	3.6010	3.6008	1.1795	25.64	-0.33	0.750			
0.7791	49864.81	3.5980	3.5979	1.1633	25.64	-0.33	0.750			
0.7825	50082.87	3.5950	3.5951	1.1664	25.65	-0.32	0.750			
0.7861	50307.22	3.5920	3.5922	1.1876	25.65	-0.32	0.750			
0.7896	50536.73	3.5890	3.5889	1.2003	25.65	-0.32	0.750			
0.7932	50765.22	3.5860	3.5860	1.2293	25.65	-0.32	0.750			
0.7969	51000.05	3.5830	3.5831	1.2628	25.66	-0.31	0.750			
0.8007	51246.05	3.5800	3.5798	1.2993	25.66	-0.31	0.750			
0.8047	51503.47	3.5770	3.5770	1.3166	25.66	-0.31	0.750			
0.8088	51761.34	3.5740	3.5741	1.3625	25.66	-0.31	0.750			
0.8128	52019.19	3.5710	3.5707	1.4032	25.66	-0.31	0.750			
0.8171	52294.14	3.5680	3.5679	1.4339	25.66	-0.31	0.750			
0.8214	52570.93	3.5650	3.5656	1.4889	25.66	-0.31	0.750			
0.8260	52861.68	3.5620	3.5621	1.5251	25.66	-0.31	0.750			
0.8307	53161.87	3.5590	3.5593	1.5566	25.66	-0.31	0.750			
0.8355	53469.92	3.5560	3.5563	1.5856	25.67	-0.30	0.750			
0.8403	53776.40	3.5530	3.5527	1.6191	25.67	-0.30	0.750			
0.8450	54081.03	3.5500	3.5501	1.6121	25.68	-0.29	0.750			
0.8500	54397.59	3.5470	3.5470	1.6446	25.68	-0.29	0.750			
0.8549	54716.80	3.5440	3.5439	1.6576	25.68	-0.29	0.750			
0.8599	55036.19	3.5410	3.5412	1.6550	25.68	-0.29	0.750			
0.8648	55350.35	3.5380	3.5377	1.6713	25.68	-0.29	0.750			
0.8699	55674.00	3.5350	3.5346	1.7125	25.70	-0.27	0.750			
0.8752	56013.39	3.5320	3.5318	1.7170	25.71	-0.26	0.750			
0.8806	56357.24	3.5290	3.5292	1.6940	25.72	-0.25	0.750			
0.8861	56711.38	3.5260	3.5261	1.5439	25.73	-0.24	0.750			
0.8909	57018.86	3.5230	3.5235	1.3432	25.75	-0.22	0.750			
0.8947	57262.82	3.5200	3.5210	1.0904	25.78	-0.19	0.750			
0.8973	57425.13	3.5170	3.5170	0.8390	25.79	-0.18	0.750			
0.8990	57537.10	3.5140	3.5135	0.6035	25.80	-0.17	0.750			
0.9002	57613.66	3.5110	3.5109	0.4718	25.81	-0.16	0.750			
0.9013	57680.72	3.5080	3.5078	0.3899	25.81	-0.16	0.750			
0.9023	57749.30	3.5050	3.5049	0.3564	25.82	-0.15	0.750			
0.9033	57812.20	3.5020	3.5020	0.3314	25.83	-0.14	0.750			
0.9043	57873.15	3.4990	3.4991	0.3149	25.83	-0.14	0.750			
0.9052	57932.18	3.4960	3.4960	0.3009	25.84	-0.13	0.750			
0.9061	57987.74	3.4930	3.4928	0.2895	25.84	-0.13	0.750			
0.9069	58041.75	3.4900	3.4900	0.2807	25.85	-0.12	0.750			
0.9077	58094.37	3.4870	3.4870	0.2744	25.85	-0.12	0.750			
0.9085	58146.38	3.4840	3.4840	0.2698	25.86	-0.11	0.750			
0.9093	58198.02	3.4810	3.4810	0.2652	25.86	-0.11	0.750			
0.9101	58248.59	3.4780	3.4779	0.2598	25.87	-0.10	0.750			
0.9109	58298.41	3.4750	3.4751	0.2546	25.87	-0.10	0.750			
0.9117	58346.00	3.4720	3.4720	0.2496	25.88	-0.09	0.750			
0.9124	58393.76	3.4690	3.4691	0.2453	25.88	-0.09	0.750			
0.9131	58440.16	3.4660	3.4659	0.2402	25.89	-0.08	0.750			
0.9138	58485.61	3.4630	3.4629	0.2356	25.89	-0.08	0.750			
0.9145	58530.33	3.4600	3.4601	0.2325	25.90	-0.07	0.750			
0.9152	58574.95	3.4570	3.4569	0.2275	25.90	-0.07	0.750			
0.9159	58618.73	3.4540	3.4539	0.2251	25.91	-0.06	0.750			
0.9166	58661.29	3.4510	3.4511	0.2201	25.91	-0.06	0.750			
0.9172	58702.64	3.4480	3.4481	0.2145	25.91	-0.06	0.750			
0.9179	58743.93	3.4450	3.4449	0.2113	25.92	-0.05	0.750			
0.9185	58783.84	3.4420	3.4422	0.2065	25.92	-0.05	0.750			
0.9191	58823.08	3.4390	3.4388	0.2022	25.93	-0.04	0.750			
0.9197	58861.47	3.4360	3.4360	0.1966	25.93	-0.04	0.750			
0.9203	58899.23	3.4330	3.4330	0.1926	25.93	-0.04	0.750			
0.9209	58935.30	3.4300	3.4300	0.1864	25.94	-0.03	0.750			
0.9214	58970.64	3.4270	3.4271	0.1816	25.94	-0.03	0.750			
0.9220	59005.01	3.4240	3.4239	0.1785	25.94	-0.03	0.750			
0.9225	59038.59	3.4210	3.4212	0.1738	25.95	-0.02	0.750			
0.9230	59071.62	3.4180	3.4179	0.1695	25.95	-0.02	0.750			
0.9235	59103.82	3.4150	3.4150	0.1659	25.95	-0.02	0.750			
0.9240	59135.88	3.4120	3.4121	0.1612	25.96	-0.01	0.750			
0.9245	59166.50	3.4090	3.4089	0.1562	25.96	-0.01	0.750			
0.9249	59195.97	3.4060	3.4062	0.1513	25.96	-0.01	0.750			
0.9254	59224.49	3.4030	3.4029	0.1457	25.97	-0.00	0.750			
0.9258	59251.62	3.4000	3.3999	0.1397	25.97	-0.00	0.750			
0.9262	59277.99	3.3970	3.3971	0.1347	25.97	0.00	0.750			
0.9266	59303.58	3.3940	3.3938	0.1291	25.97	0.00	0.750			
0.9270	59327.83	3.3910	3.3911	0.1235	25.98	0.01	0.750			
0.9274	59351.73	3.3880	3.3879	0.1174	25.98	0.01	0.750			
0.9277	59373.73	3.3850	3.3851	0.1107	25.98	0.01	0.750			
0.9280	59394.30	3.3820	3.3819	0.1035	25.98	0.01	0.750			
0.9283	59414.26	3.3790	3.3789	0.0953	25.99	0.02	0.750			
0.9286	59431.69	3.3760	3.3762	0.0863	25.99	0.02	0.750			
0.9289	59447.79	3.3730	3.3730	0.0780	25.99	0.02	0.750			
0.9291	59461.86	3.3700	3.3702	0.0686	25.99	0.02	0.750			
0.9293	59474.38	3.3670	3.3674	0.0591	25.99	0.02	0.750			
0.9294	59484.79	3.3640	3.3650	0.0493	25.99	0.02	0.750			
0.9296	59493.31	3.3610	3.3621	0.0395	25.99	0.02	0.750			
0.9297	59499.95	3.3580	3.3595	0.0296	25.99	0.02	0.750			
