Ah_balance (normalized)	Ah_balance (mAh)	Voltage - fit (V)	Voltage -  interpolate (V)	dQ/dV (1/V)	Temperature (°C)	Temperature - diff (°C)	Current (C)	R_DC 0ms (mOhm)	R_DC 50ms (mOhm)	R_DC 50 ms PEC (mOhm)
0.0512	3279.92	4.1990	4.1990	0.7562	26.58	0.59	0.750			
0.0536	3427.70	4.1960	4.1959	0.7719	26.58	0.59	0.750			
0.0559	3574.99	4.1930	4.1930	0.7674	26.58	0.59	0.750			
0.0581	3721.42	4.1900	4.1901	0.7669	26.58	0.59	0.750			
0.0604	3868.76	4.1870	4.1869	0.7706	26.58	0.59	0.750			
0.0628	4016.51	4.1840	4.1840	0.7706	26.58	0.59	0.750			
0.0651	4164.11	4.1810	4.1810	0.7657	26.58	0.59	0.750			
0.0674	4312.15	4.1780	4.1780	0.7680	26.58	0.59	0.750			
0.0697	4459.89	4.1750	4.1751	0.7724	26.58	0.59	0.750			
0.0720	4606.69	4.1720	4.1720	0.7739	26.58	0.59	0.750			
0.0743	4754.15	4.1690	4.1690	0.7737	26.58	0.59	0.750			
0.0766	4903.41	4.1660	4.1660	0.7776	26.58	0.59	0.750			
0.0790	5053.44	4.1630	4.1631	0.7807	26.58	0.59	0.750			
0.0813	5204.57	4.1600	4.1600	0.7825	26.58	0.59	0.750			
0.0837	5355.33	4.1570	4.1571	0.7831	26.58	0.59	0.750			
0.0860	5505.87	4.1540	4.1534	0.7799	26.58	0.59	0.750			
0.0884	5655.15	4.1510	4.1512	0.7763	26.58	0.59	0.750			
0.0907	5805.06	4.1480	4.1481	0.7748	26.58	0.59	0.750			
0.0930	5953.36	4.1450	4.1450	0.7760	26.58	0.59	0.750			
0.0953	6101.87	4.1420	4.1420	0.7753	26.58	0.59	0.750			
0.0976	6248.66	4.1390	4.1389	0.7749	26.58	0.59	0.750			
0.1000	6397.06	4.1360	4.1361	0.7769	26.58	0.59	0.750			
0.1023	6548.72	4.1330	4.1329	0.7805	26.58	0.59	0.750			
0.1047	6698.54	4.1300	4.1301	0.7807	26.58	0.59	0.750			
0.1070	6847.96	4.1270	4.1270	0.7848	26.58	0.59	0.750			
0.1093	6998.09	4.1240	4.1241	0.7860	26.58	0.59	0.750			
0.1117	7149.46	4.1210	4.1209	0.7891	26.58	0.59	0.750			
0.1141	7300.74	4.1180	4.1181	0.7957	26.58	0.59	0.750			
0.1165	7455.28	4.1150	4.1150	0.7934	26.58	0.59	0.750			
0.1189	7607.43	4.1120	4.1120	0.7970	26.58	0.59	0.750			
0.1212	7759.75	4.1090	4.1091	0.8018	26.58	0.59	0.750			
0.1237	7913.84	4.1060	4.1057	0.8043	26.58	0.59	0.750			
0.1261	8069.43	4.1030	4.1030	0.8079	26.58	0.59	0.750			
0.1285	8226.84	4.1000	4.0999	0.7981	26.58	0.59	0.750			
0.1309	8380.61	4.0970	4.0971	0.8039	26.58	0.59	0.750			
0.1333	8534.07	4.0940	4.0941	0.8029	26.58	0.59	0.750			
0.1357	8686.81	4.0910	4.0908	0.8067	26.58	0.59	0.750			
0.1382	8842.15	4.0880	4.0881	0.8115	26.58	0.59	0.750			
0.1406	8998.97	4.0850	4.0849	0.8121	26.58	0.59	0.750			
0.1430	9154.89	4.0820	4.0821	0.8195	26.58	0.59	0.750			
0.1456	9316.01	4.0790	4.0791	0.8275	26.58	0.59	0.750			
0.1480	9473.72	4.0760	4.0758	0.8271	26.58	0.59	0.750			
0.1505	9632.57	4.0730	4.0730	0.8290	26.58	0.59	0.750			
0.1530	9792.39	4.0700	4.0702	0.8226	26.58	0.59	0.750			
0.1555	9950.99	4.0670	4.0669	0.8226	26.58	0.59	0.750			
0.1580	10108.85	4.0640	4.0641	0.8282	26.58	0.59	0.750			
0.1604	10265.66	4.0610	4.0610	0.8237	26.58	0.59	0.750			
0.1629	10423.00	4.0580	4.0580	0.8306	26.58	0.59	0.750			
0.1654	10584.19	4.0550	4.0551	0.8316	26.58	0.59	0.750			
0.1679	10744.09	4.0520	4.0520	0.8354	26.59	0.60	0.750			
0.1704	10907.25	4.0490	4.0490	0.8410	26.59	0.60	0.750			
0.1729	11066.50	4.0460	4.0460	0.8436	26.59	0.60	0.750			
0.1754	11228.33	4.0430	4.0430	0.8462	26.59	0.60	0.750			
0.1780	11392.60	4.0400	4.0400	0.8498	26.59	0.60	0.750			
0.1805	11555.18	4.0370	4.0370	0.8538	26.60	0.61	0.750			
0.1831	11720.89	4.0340	4.0341	0.8599	26.60	0.61	0.750			
0.1857	11885.06	4.0310	4.0309	0.8607	26.60	0.61	0.750			
0.1883	12051.93	4.0280	4.0280	0.8644	26.60	0.61	0.750			
0.1909	12217.32	4.0250	4.0250	0.8638	26.60	0.61	0.750			
0.1935	12384.25	4.0220	4.0220	0.8682	26.60	0.61	0.750			
0.1961	12550.75	4.0190	4.0190	0.8697	26.60	0.61	0.750			
0.1987	12716.46	4.0160	4.0158	0.8710	26.60	0.61	0.750			
0.2013	12884.47	4.0130	4.0131	0.8706	26.60	0.61	0.750			
0.2039	13052.23	4.0100	4.0100	0.8723	26.60	0.61	0.750			
0.2066	13220.24	4.0070	4.0070	0.8760	26.60	0.61	0.750			
0.2092	13388.97	4.0040	4.0040	0.8754	26.60	0.61	0.750			
0.2118	13555.58	4.0010	4.0012	0.8773	26.60	0.61	0.750			
0.2144	13724.17	3.9980	3.9980	0.8793	26.60	0.61	0.750			
0.2171	13892.89	3.9950	3.9950	0.8841	26.60	0.61	0.750			
0.2197	14063.81	3.9920	3.9920	0.8905	26.61	0.62	0.750			
0.2224	14234.40	3.9890	3.9890	0.8960	26.61	0.62	0.750			
0.2251	14407.42	3.9860	3.9861	0.8991	26.61	0.62	0.750			
0.2278	14582.03	3.9830	3.9829	0.8992	26.61	0.62	0.750			
0.2305	14753.74	3.9800	3.9800	0.8997	26.61	0.62	0.750			
0.2332	14926.98	3.9770	3.9771	0.9005	26.61	0.62	0.750			
0.2359	15098.62	3.9740	3.9739	0.9020	26.61	0.62	0.750			
0.2386	15272.98	3.9710	3.9710	0.8996	26.61	0.62	0.750			
0.2413	15443.98	3.9680	3.9680	0.9079	26.61	0.62	0.750			
0.2441	15619.98	3.9650	3.9650	0.9147	26.62	0.63	0.750			
0.2468	15797.09	3.9620	3.9620	0.9168	26.62	0.63	0.750			
0.2496	15973.03	3.9590	3.9589	0.9162	26.62	0.63	0.750			
0.2523	16149.92	3.9560	3.9561	0.9151	26.62	0.63	0.750			
0.2551	16324.34	3.9530	3.9530	0.9168	26.62	0.63	0.750			
0.2578	16500.32	3.9500	3.9500	0.9225	26.62	0.63	0.750			
0.2606	16675.40	3.9470	3.9469	0.9194	26.62	0.63	0.750			
0.2634	16855.63	3.9440	3.9440	0.9230	26.62	0.63	0.750			
0.2661	17032.69	3.9410	3.9411	0.9257	26.62	0.63	0.750			
0.2689	17211.55	3.9380	3.9380	0.9296	26.62	0.63	0.750			
0.2717	17389.44	3.9350	3.9350	0.9316	26.62	0.63	0.750			
0.2745	17565.63	3.9320	3.9319	0.9280	26.62	0.63	0.750			
0.2773	17744.84	3.9290	3.9290	0.9288	26.62	0.63	0.750			
0.2801	17924.06	3.9260	3.9260	0.9347	26.62	0.63	0.750			
0.2829	18104.26	3.9230	3.9231	0.9341	26.62	0.63	0.750			
0.2857	18283.14	3.9200	3.9199	0.9351	26.62	0.63	0.750			
0.2885	18463.40	3.9170	3.9170	0.9333	26.62	0.63	0.750			
0.2913	18642.48	3.9140	3.9140	0.9368	26.62	0.63	0.750			
0.2941	18821.78	3.9110	3.9110	0.9433	26.62	0.63	0.750			
0.2969	19003.91	3.9080	3.9080	0.9485	26.62	0.63	0.750			
0.2998	19185.80	3.9050	3.9050	0.9472	26.62	0.63	0.750			
0.3026	19369.12	3.9020	3.9020	0.9454	26.62	0.63	0.750			
0.3055	19549.96	3.8990	3.8991	0.9457	26.61	0.62	0.750			
0.3083	19732.39	3.8960	3.8960	0.9451	26.61	0.62	0.750			
0.3111	19911.46	3.8930	3.8928	0.9488	26.61	0.62	0.750			
0.3140	20093.84	3.8900	3.8900	0.9425	26.61	0.62	0.750			
0.3168	20274.86	3.8870	3.8871	0.9547	26.61	0.62	0.750			
0.3197	20460.58	3.8840	3.8841	0.9653	26.60	0.61	0.750			
0.3226	20645.18	3.8810	3.8810	0.9717	26.60	0.61	0.750			
0.3255	20834.12	3.8780	3.8780	0.9771	26.60	0.61	0.750			
0.3285	21022.82	3.8750	3.8751	0.9827	26.59	0.60	0.750			
0.3314	21212.33	3.8720	3.8720	0.9846	26.59	0.60	0.750			
0.3344	21403.90	3.8690	3.8691	0.9945	26.58	0.59	0.750			
0.3374	21591.27	3.8660	3.8660	0.9991	26.58	0.59	0.750			
0.3404	21784.07	3.8630	3.8631	1.0075	26.57	0.58	0.750			
0.3434	21977.28	3.8600	3.8599	1.0197	26.56	0.57	0.750			
0.3465	22174.63	3.8570	3.8571	1.0382	26.55	0.56	0.750			
0.3496	22377.35	3.8540	3.8540	1.0462	26.54	0.55	0.750			
0.3528	22579.81	3.8510	3.8510	1.0519	26.53	0.54	0.750			
0.3560	22783.13	3.8480	3.8480	1.0579	26.53	0.54	0.750			
0.3592	22987.14	3.8450	3.8451	1.0631	26.52	0.53	0.750			
0.3624	23195.14	3.8420	3.8420	1.0591	26.52	0.53	0.750			
0.3655	23394.26	3.8390	3.8391	1.0658	26.51	0.52	0.750			
0.3687	23597.37	3.8360	3.8361	1.0716	26.50	0.51	0.750			
0.3719	23804.73	3.8330	3.8331	1.0847	26.49	0.50	0.750			
0.3752	24015.68	3.8300	3.8299	1.0859	26.48	0.49	0.750			
0.3785	24223.81	3.8270	3.8271	1.0882	26.46	0.47	0.750			
0.3818	24433.66	3.8240	3.8241	1.1004	26.45	0.46	0.750			
0.3851	24646.91	3.8210	3.8210	1.1048	26.44	0.45	0.750			
0.3884	24858.12	3.8180	3.8179	1.0974	26.44	0.45	0.750			
0.3917	25067.79	3.8150	3.8151	1.1086	26.43	0.44	0.750			
0.3950	25281.85	3.8120	3.8121	1.1139	26.43	0.44	0.750			
0.3984	25500.35	3.8090	3.8087	1.1181	26.42	0.43	0.750			
0.4017	25710.97	3.8060	3.8062	1.1208	26.41	0.42	0.750			
0.4051	25925.91	3.8030	3.8030	1.1276	26.39	0.40	0.750			
0.4085	26145.55	3.8000	3.7999	1.1386	26.38	0.39	0.750			
0.4119	26364.19	3.7970	3.7969	1.1324	26.37	0.38	0.750			
0.4153	26581.12	3.7940	3.7942	1.1476	26.36	0.37	0.750			
0.4188	26804.85	3.7910	3.7911	1.1653	26.35	0.36	0.750			
0.4223	27029.92	3.7880	3.7878	1.1732	26.34	0.35	0.750			
0.4258	27254.01	3.7850	3.7851	1.1801	26.33	0.34	0.750			
0.4294	27480.21	3.7820	3.7820	1.2034	26.32	0.33	0.750			
0.4330	27712.81	3.7790	3.7790	1.2248	26.30	0.31	0.750			
0.4367	27950.54	3.7760	3.7761	1.2354	26.29	0.30	0.750			
0.4405	28190.82	3.7730	3.7730	1.2566	26.28	0.29	0.750			
0.4443	28434.02	3.7700	3.7701	1.2771	26.26	0.27	0.750			
0.4481	28678.00	3.7670	3.7670	1.3131	26.25	0.26	0.750			
0.4520	28928.46	3.7640	3.7640	1.3492	26.24	0.25	0.750			
0.4561	29190.94	3.7610	3.7603	1.3899	26.23	0.24	0.750	0.327	0.427	
0.4604	29465.92	3.7580	3.7580	1.4175	26.21	0.22	0.750			
0.4648	29745.57	3.7550	3.7552	1.4437	26.20	0.21	0.750			
0.4692	30030.53	3.7520	3.7520	1.4721	26.18	0.19	0.750			
0.4735	30305.96	3.7490	3.7488	1.4781	26.17	0.18	0.750			
0.4780	30589.14	3.7460	3.7460	1.5127	26.16	0.17	0.750			
0.4826	30884.00	3.7430	3.7431	1.5486	26.14	0.15	0.750			
0.4874	31191.93	3.7400	3.7397	1.5737	26.13	0.14	0.750			
0.4921	31491.76	3.7370	3.7371	1.6194	26.11	0.12	0.750			
0.4970	31806.42	3.7340	3.7341	1.6809	26.10	0.11	0.750			
0.5021	32131.94	3.7310	3.7301	1.7277	26.08	0.09	0.750			
0.5073	32464.97	3.7280	3.7282	1.7838	26.08	0.09	0.750			
0.5128	32818.17	3.7250	3.7252	1.8287	26.06	0.07	0.750			
0.5184	33176.39	3.7220	3.7219	1.9001	26.05	0.06	0.750			
0.5242	33550.37	3.7190	3.7190	1.9151	26.03	0.04	0.750			
0.5300	33917.40	3.7160	3.7156	1.9702	26.01	0.02	0.750			
0.5359	34298.35	3.7130	3.7131	2.0236	25.99	0.00	0.750			
0.5421	34693.27	3.7100	3.7096	2.1068	25.97	-0.02	0.750			
0.5485	35102.33	3.7070	3.7070	2.1711	25.95	-0.04	0.750			
0.5551	35526.25	3.7040	3.7040	2.2420	25.93	-0.06	0.750			
0.5620	35969.59	3.7010	3.7011	2.2951	25.92	-0.07	0.750			
0.5690	36417.97	3.6980	3.6979	2.3592	25.89	-0.10	0.750			
0.5762	36876.54	3.6950	3.6950	2.4159	25.87	-0.12	0.750			
0.5834	37338.04	3.6920	3.6920	2.4871	25.86	-0.13	0.750			
0.5911	37829.01	3.6890	3.6890	2.5266	25.84	-0.15	0.750			
0.5988	38324.76	3.6860	3.6860	2.5689	25.82	-0.17	0.750			
0.6065	38812.89	3.6830	3.6832	2.6705	25.81	-0.18	0.750			
0.6145	39328.39	3.6800	3.6799	2.7874	25.80	-0.19	0.750			
0.6229	39868.67	3.6770	3.6769	2.9230	25.78	-0.21	0.750			
0.6322	40463.07	3.6740	3.6740	3.0739	25.77	-0.22	0.750			
0.6417	41069.25	3.6710	3.6711	3.1521	25.77	-0.22	0.750			
0.6510	41667.18	3.6680	3.6680	3.1438	25.76	-0.23	0.750			
0.6607	42285.53	3.6650	3.6648	3.0846	25.74	-0.25	0.750			
0.6702	42889.77	3.6620	3.6618	2.8969	25.74	-0.25	0.750			
0.6785	43420.98	3.6590	3.6590	2.6268	25.74	-0.25	0.750			
0.6855	43871.67	3.6560	3.6563	2.2874	25.73	-0.26	0.750			
0.6919	44283.95	3.6530	3.6530	2.0660	25.74	-0.25	0.750			
0.6975	44641.19	3.6500	3.6499	1.8582	25.75	-0.24	0.750			
0.7027	44971.41	3.6470	3.6471	1.7031	25.75	-0.24	0.750			
0.7076	45285.51	3.6440	3.6441	1.5773	25.75	-0.24	0.750			
0.7122	45583.60	3.6410	3.6410	1.4785	25.75	-0.24	0.750			
0.7165	45856.48	3.6380	3.6381	1.3801	25.75	-0.24	0.750			
0.7203	46096.13	3.6350	3.6350	1.2916	25.75	-0.24	0.750			
0.7239	46332.13	3.6320	3.6318	1.2339	25.75	-0.24	0.750			
0.7274	46555.37	3.6290	3.6291	1.2034	25.75	-0.24	0.750			
0.7310	46783.19	3.6260	3.6260	1.2048	25.75	-0.24	0.750			
0.7346	47015.40	3.6230	3.6229	1.2069	25.75	-0.24	0.750			
0.7382	47245.22	3.6200	3.6200	1.2110	25.75	-0.24	0.750			
0.7419	47480.51	3.6170	3.6171	1.2210	25.75	-0.24	0.750			
0.7456	47718.75	3.6140	3.6140	1.2188	25.75	-0.24	0.750			
0.7493	47956.87	3.6110	3.6109	1.2063	25.75	-0.24	0.750			
0.7529	48186.18	3.6080	3.6081	1.1864	25.75	-0.24	0.750			
0.7564	48410.53	3.6050	3.6051	1.1703	25.75	-0.24	0.750			
0.7599	48633.09	3.6020	3.6019	1.1602	25.75	-0.24	0.750			
0.7633	48849.85	3.5990	3.5990	1.1545	25.75	-0.24	0.750			
0.7667	49067.01	3.5960	3.5961	1.1586	25.75	-0.24	0.750			
0.7701	49288.47	3.5930	3.5930	1.1815	25.76	-0.23	0.750			
0.7738	49520.47	3.5900	3.5895	1.1981	25.76	-0.23	0.750			
0.7773	49747.51	3.5870	3.5872	1.2383	25.76	-0.23	0.750			
0.7811	49988.06	3.5840	3.5840	1.2808	25.75	-0.24	0.750			
0.7850	50240.29	3.5810	3.5809	1.3135	25.75	-0.24	0.750			
0.7890	50494.95	3.5780	3.5781	1.3559	25.75	-0.24	0.750			
0.7931	50756.09	3.5750	3.5751	1.3999	25.75	-0.24	0.750			
0.7974	51032.13	3.5720	3.5719	1.4240	25.75	-0.24	0.750			
0.8017	51309.85	3.5690	3.5690	1.4749	25.75	-0.24	0.750			
0.8061	51588.15	3.5660	3.5661	1.5244	25.74	-0.25	0.750			
0.8108	51888.21	3.5630	3.5629	1.5683	25.73	-0.26	0.750			
0.8156	52199.16	3.5600	3.5602	1.5987	25.74	-0.25	0.750			
0.8205	52511.52	3.5570	3.5571	1.5923	25.74	-0.25	0.750			
0.8254	52826.71	3.5540	3.5543	1.6127	25.75	-0.24	0.750			
0.8302	53134.91	3.5510	3.5509	1.6308	25.73	-0.26	0.750			
0.8350	53443.17	3.5480	3.5480	1.6435	25.72	-0.27	0.750			
0.8400	53760.10	3.5450	3.5452	1.6553	25.73	-0.26	0.750			
0.8450	54080.35	3.5420	3.5421	1.6773	25.73	-0.26	0.750			
0.8501	54409.47	3.5390	3.5391	1.7105	25.74	-0.25	0.750			
0.8554	54743.32	3.5360	3.5361	1.7494	25.75	-0.24	0.750			
0.8607	55085.81	3.5330	3.5329	1.7590	25.75	-0.24	0.750			
0.8662	55439.17	3.5300	3.5300	1.6309	25.76	-0.23	0.750			
0.8715	55775.73	3.5270	3.5273	1.5019	25.77	-0.22	0.750			
0.8762	56074.01	3.5240	3.5246	1.2878	25.78	-0.21	0.750			
0.8796	56293.31	3.5210	3.5212	1.0047	25.79	-0.20	0.750			
0.8818	56437.24	3.5180	3.5177	0.7641	25.80	-0.19	0.750			
0.8833	56533.48	3.5150	3.5145	0.5488	25.81	-0.18	0.750			
0.8844	56600.46	3.5120	3.5119	0.4292	25.81	-0.18	0.750			
0.8855	56672.00	3.5090	3.5088	0.3762	25.82	-0.17	0.750			
0.8865	56736.54	3.5060	3.5063	0.3453	25.82	-0.17	0.750			
0.8875	56799.27	3.5030	3.5030	0.3237	25.83	-0.16	0.750			
0.8884	56858.20	3.5000	3.5000	0.3094	25.84	-0.15	0.750			
0.8893	56916.30	3.4970	3.4970	0.2988	25.84	-0.15	0.750			
0.8902	56971.30	3.4940	3.4940	0.2886	25.85	-0.14	0.750			
0.8910	57026.01	3.4910	3.4911	0.2834	25.85	-0.14	0.750			
0.8919	57080.16	3.4880	3.4880	0.2769	25.86	-0.13	0.750			
0.8927	57132.60	3.4850	3.4851	0.2701	25.87	-0.12	0.750			
0.8935	57183.94	3.4820	3.4819	0.2640	25.87	-0.12	0.750			
0.8943	57233.55	3.4790	3.4791	0.2580	25.88	-0.11	0.750			
0.8950	57282.61	3.4760	3.4760	0.2525	25.88	-0.11	0.750			
0.8958	57330.47	3.4730	3.4730	0.2463	25.89	-0.10	0.750			
0.8965	57376.74	3.4700	3.4700	0.2411	25.89	-0.10	0.750			
0.8972	57422.78	3.4670	3.4671	0.2372	25.90	-0.09	0.750			
0.8979	57468.05	3.4640	3.4641	0.2329	25.90	-0.09	0.750			
0.8986	57512.28	3.4610	3.4608	0.2282	25.91	-0.08	0.750			
0.8993	57555.07	3.4580	3.4581	0.2256	25.91	-0.08	0.750			
0.9000	57598.51	3.4550	3.4550	0.2205	25.92	-0.07	0.750			
0.9006	57640.47	3.4520	3.4520	0.2166	25.92	-0.07	0.750			
0.9013	57682.37	3.4490	3.4488	0.2115	25.93	-0.06	0.750			
0.9019	57722.32	3.4460	3.4462	0.2066	25.93	-0.06	0.750			
0.9025	57761.70	3.4430	3.4429	0.2016	25.93	-0.06	0.750			
0.9031	57799.84	3.4400	3.4400	0.1957	25.94	-0.05	0.750			
0.9037	57836.68	3.4370	3.4368	0.1913	25.94	-0.05	0.750			
0.9043	57872.19	3.4340	3.4341	0.1854	25.95	-0.04	0.750			
0.9048	57908.12	3.4310	3.4309	0.1825	25.95	-0.04	0.750			
0.9054	57942.67	3.4280	3.4280	0.1774	25.95	-0.04	0.750			
0.9059	57976.13	3.4250	3.4250	0.1733	25.96	-0.03	0.750			
0.9064	58009.09	3.4220	3.4219	0.1674	25.96	-0.03	0.750			
0.9069	58040.98	3.4190	3.4189	0.1630	25.96	-0.03	0.750			
0.9074	58071.74	3.4160	3.4160	0.1574	25.97	-0.02	0.750			
0.9078	58101.30	3.4130	3.4132	0.1519	25.97	-0.02	0.750			
0.9083	58129.97	3.4100	3.4099	0.1471	25.97	-0.02	0.750			
0.9087	58157.78	3.4070	3.4069	0.1413	25.97	-0.02	0.750			
0.9091	58184.38	3.4040	3.4040	0.1358	25.98	-0.01	0.750			
0.9095	58210.03	3.4010	3.4009	0.1293	25.98	-0.01	0.750			
0.9099	58234.84	3.3980	3.3981	0.1240	25.98	-0.01	0.750			
0.9103	58257.99	3.3950	3.3950	0.1171	25.98	-0.01	0.750			
0.9106	58279.80	3.3920	3.3920	0.1101	25.99	-0.00	0.750			
0.9110	58301.59	3.3890	3.3888	0.1015	25.99	-0.00	0.750			
0.9113	58320.39	3.3860	3.3860	0.0931	25.99	0.00	0.750			
0.9115	58337.34	3.3830	3.3831	0.0835	25.99	0.00	0.750			
0.9118	58353.21	3.3800	3.3803	0.0750	25.99	0.00	0.750			
0.9120	58366.60	3.3770	3.3774	0.0645	26.00	0.01	0.750			
0.9122	58379.22	3.3740	3.3743	0.0541	26.00	0.01	0.750			
0.9123	58388.45	3.3710	3.3716	0.0421	26.00	0.01	0.750			
0.9124	58395.39	3.3680	3.3691	0.0302	26.00	0.01	0.750			
0.9125	58400.04	3.3650	3.3670	0.0182	26.00	0.01	0.750			
