Ah_balance (normalized)	Ah_balance (mAh)	Voltage - fit (V)	Voltage -  interpolate (V)	dQ/dV (1/V)	Temperature (°C)	Temperature - diff (°C)	Current (C)	R_DC 0ms (mOhm)	R_DC 50ms (mOhm)	R_DC 50 ms PEC (mOhm)
0.0532	3406.72	4.1970	4.1969	0.7838	26.68	0.71	0.750			
0.0555	3550.83	4.1940	4.1939	0.7608	26.68	0.71	0.750			
0.0577	3695.05	4.1910	4.1911	0.7636	26.68	0.71	0.750			
0.0600	3842.10	4.1880	4.1880	0.7691	26.68	0.71	0.750			
0.0624	3991.09	4.1850	4.1852	0.7670	26.68	0.71	0.750			
0.0647	4138.23	4.1820	4.1822	0.7656	26.68	0.71	0.750			
0.0670	4285.97	4.1790	4.1790	0.7601	26.68	0.71	0.750			
0.0693	4432.70	4.1760	4.1759	0.7565	26.68	0.71	0.750			
0.0715	4573.78	4.1730	4.1731	0.7561	26.68	0.71	0.750			
0.0737	4717.88	4.1700	4.1696	0.7571	26.68	0.71	0.750			
0.0760	4863.75	4.1670	4.1670	0.7627	26.68	0.71	0.750			
0.0783	5013.12	4.1640	4.1640	0.7660	26.68	0.71	0.750			
0.0806	5159.99	4.1610	4.1611	0.7743	26.67	0.70	0.750			
0.0830	5311.22	4.1580	4.1580	0.7760	26.67	0.70	0.750			
0.0853	5458.81	4.1550	4.1550	0.7749	26.67	0.70	0.750			
0.0876	5606.44	4.1520	4.1521	0.7752	26.67	0.70	0.750			
0.0900	5758.38	4.1490	4.1491	0.7741	26.67	0.70	0.750			
0.0923	5905.57	4.1460	4.1460	0.7736	26.67	0.70	0.750			
0.0946	6053.51	4.1430	4.1431	0.7792	26.68	0.71	0.750			
0.0969	6200.58	4.1400	4.1401	0.7808	26.68	0.71	0.750			
0.0993	6353.48	4.1370	4.1368	0.7835	26.68	0.71	0.750			
0.1016	6503.30	4.1340	4.1340	0.7834	26.68	0.71	0.750			
0.1040	6654.16	4.1310	4.1311	0.7856	26.68	0.71	0.750			
0.1063	6805.59	4.1280	4.1280	0.7908	26.68	0.71	0.750			
0.1087	6957.02	4.1250	4.1249	0.7864	26.68	0.71	0.750			
0.1111	7108.24	4.1220	4.1218	0.7884	26.68	0.71	0.750			
0.1134	7259.25	4.1190	4.1191	0.7894	26.68	0.71	0.750			
0.1159	7414.58	4.1160	4.1160	0.7830	26.68	0.71	0.750			
0.1182	7563.47	4.1130	4.1130	0.7865	26.68	0.71	0.750			
0.1205	7712.92	4.1100	4.1100	0.7925	26.68	0.71	0.750			
0.1229	7863.42	4.1070	4.1071	0.7925	26.68	0.71	0.750			
0.1253	8017.74	4.1040	4.1041	0.7967	26.68	0.71	0.750			
0.1277	8173.01	4.1010	4.1011	0.7967	26.68	0.71	0.750			
0.1301	8325.79	4.0980	4.0980	0.8010	26.69	0.72	0.750			
0.1325	8481.26	4.0950	4.0950	0.8062	26.69	0.72	0.750			
0.1349	8632.76	4.0920	4.0920	0.8000	26.69	0.72	0.750			
0.1373	8785.39	4.0890	4.0890	0.8019	26.69	0.72	0.750			
0.1397	8942.13	4.0860	4.0861	0.8074	26.69	0.72	0.750			
0.1421	9097.50	4.0830	4.0830	0.8130	26.69	0.72	0.750			
0.1446	9255.35	4.0800	4.0799	0.8154	26.70	0.73	0.750			
0.1470	9410.07	4.0770	4.0770	0.8158	26.70	0.73	0.750			
0.1495	9566.49	4.0740	4.0740	0.8204	26.70	0.73	0.750			
0.1520	9726.75	4.0710	4.0709	0.8192	26.70	0.73	0.750			
0.1544	9883.01	4.0680	4.0680	0.8236	26.70	0.73	0.750			
0.1569	10041.74	4.0650	4.0650	0.8238	26.71	0.74	0.750			
0.1594	10199.74	4.0620	4.0621	0.8210	26.71	0.74	0.750			
0.1618	10358.00	4.0590	4.0588	0.8248	26.71	0.74	0.750			
0.1643	10517.62	4.0560	4.0562	0.8208	26.71	0.74	0.750			
0.1668	10674.32	4.0530	4.0530	0.8245	26.71	0.74	0.750			
0.1693	10832.88	4.0500	4.0500	0.8289	26.72	0.75	0.750			
0.1717	10990.89	4.0470	4.0472	0.8310	26.72	0.75	0.750			
0.1743	11152.34	4.0440	4.0438	0.8358	26.72	0.75	0.750			
0.1768	11313.43	4.0410	4.0411	0.8390	26.72	0.75	0.750			
0.1793	11474.13	4.0380	4.0381	0.8405	26.72	0.75	0.750			
0.1818	11636.68	4.0350	4.0350	0.8457	26.72	0.75	0.750			
0.1844	11800.39	4.0320	4.0321	0.8452	26.72	0.75	0.750			
0.1869	11959.60	4.0290	4.0290	0.8574	26.72	0.75	0.750			
0.1895	12125.35	4.0260	4.0261	0.8678	26.72	0.75	0.750			
0.1921	12294.34	4.0230	4.0229	0.8774	26.72	0.75	0.750			
0.1947	12462.64	4.0200	4.0200	0.8858	26.73	0.76	0.750			
0.1975	12636.99	4.0170	4.0172	0.8912	26.73	0.76	0.750			
0.2001	12809.44	4.0140	4.0140	0.8914	26.73	0.76	0.750			
0.2028	12981.95	4.0110	4.0110	0.8889	26.73	0.76	0.750			
0.2055	13150.41	4.0080	4.0081	0.8795	26.73	0.76	0.750			
0.2081	13318.73	4.0050	4.0050	0.8810	26.73	0.76	0.750			
0.2107	13486.43	4.0020	4.0018	0.8805	26.73	0.76	0.750			
0.2133	13654.07	3.9990	3.9991	0.8772	26.73	0.76	0.750			
0.2160	13823.31	3.9960	3.9960	0.8808	26.73	0.76	0.750			
0.2186	13993.35	3.9930	3.9930	0.8847	26.74	0.77	0.750			
0.2213	14162.90	3.9900	3.9900	0.8943	26.74	0.77	0.750			
0.2240	14334.24	3.9870	3.9869	0.8932	26.74	0.77	0.750			
0.2267	14509.20	3.9840	3.9840	0.8856	26.74	0.77	0.750			
0.2293	14677.23	3.9810	3.9812	0.8959	26.74	0.77	0.750			
0.2320	14850.60	3.9780	3.9781	0.8998	26.74	0.77	0.750			
0.2347	15022.82	3.9750	3.9750	0.9026	26.74	0.77	0.750			
0.2374	15193.90	3.9720	3.9719	0.9044	26.74	0.77	0.750			
0.2401	15367.50	3.9690	3.9692	0.9060	26.74	0.77	0.750			
0.2429	15545.38	3.9660	3.9660	0.9148	26.74	0.77	0.750			
0.2456	15721.56	3.9630	3.9630	0.9150	26.74	0.77	0.750			
0.2484	15894.63	3.9600	3.9598	0.9099	26.74	0.77	0.750			
0.2511	16073.40	3.9570	3.9570	0.9072	26.74	0.77	0.750			
0.2538	16245.62	3.9540	3.9540	0.9051	26.74	0.77	0.750			
0.2565	16417.94	3.9510	3.9511	0.9063	26.74	0.77	0.750			
0.2592	16591.91	3.9480	3.9480	0.9108	26.74	0.77	0.750			
0.2620	16765.14	3.9450	3.9449	0.9132	26.74	0.77	0.750			
0.2647	16941.83	3.9420	3.9420	0.9136	26.74	0.77	0.750			
0.2675	17118.71	3.9390	3.9391	0.9157	26.74	0.77	0.750			
0.2702	17295.31	3.9360	3.9360	0.9224	26.74	0.77	0.750			
0.2730	17471.02	3.9330	3.9330	0.9204	26.74	0.77	0.750			
0.2758	17650.42	3.9300	3.9299	0.9118	26.74	0.77	0.750			
0.2785	17823.98	3.9270	3.9269	0.9143	26.74	0.77	0.750			
0.2812	17998.76	3.9240	3.9242	0.9160	26.74	0.77	0.750			
0.2840	18175.00	3.9210	3.9211	0.9217	26.74	0.77	0.750			
0.2867	18350.88	3.9180	3.9177	0.9243	26.74	0.77	0.750			
0.2895	18528.40	3.9150	3.9151	0.9236	26.74	0.77	0.750			
0.2923	18706.32	3.9120	3.9121	0.9289	26.74	0.77	0.750			
0.2951	18887.07	3.9090	3.9090	0.9330	26.74	0.77	0.750			
0.2979	19065.54	3.9060	3.9060	0.9283	26.74	0.77	0.750			
0.3007	19246.20	3.9030	3.9029	0.9232	26.74	0.77	0.750			
0.3034	19420.65	3.9000	3.9000	0.9279	26.73	0.76	0.750			
0.3062	19598.38	3.8970	3.8971	0.9339	26.73	0.76	0.750			
0.3090	19777.70	3.8940	3.8941	0.9440	26.72	0.75	0.750			
0.3119	19958.57	3.8910	3.8908	0.9468	26.72	0.75	0.750			
0.3147	20142.25	3.8880	3.8881	0.9546	26.71	0.74	0.750			
0.3176	20327.30	3.8850	3.8851	0.9624	26.71	0.74	0.750			
0.3205	20513.01	3.8820	3.8820	0.9697	26.71	0.74	0.750			
0.3234	20698.10	3.8790	3.8789	0.9723	26.70	0.73	0.750			
0.3263	20885.51	3.8760	3.8760	0.9791	26.70	0.73	0.750			
0.3293	21074.69	3.8730	3.8730	0.9843	26.69	0.72	0.750			
0.3323	21265.88	3.8700	3.8700	0.9945	26.69	0.72	0.750			
0.3353	21456.57	3.8670	3.8670	0.9956	26.68	0.71	0.750			
0.3383	21649.71	3.8640	3.8640	1.0002	26.68	0.71	0.750			
0.3413	21841.43	3.8610	3.8610	1.0031	26.67	0.70	0.750			
0.3443	22034.06	3.8580	3.8581	1.0101	26.67	0.70	0.750			
0.3473	22228.00	3.8550	3.8550	1.0192	26.66	0.69	0.750			
0.3504	22425.29	3.8520	3.8520	1.0209	26.65	0.68	0.750			
0.3534	22620.51	3.8490	3.8490	1.0296	26.65	0.68	0.750			
0.3566	22819.55	3.8460	3.8461	1.0406	26.64	0.67	0.750			
0.3597	23022.01	3.8430	3.8431	1.0469	26.62	0.65	0.750			
0.3629	23224.65	3.8400	3.8400	1.0416	26.61	0.64	0.750			
0.3660	23422.31	3.8370	3.8371	1.0527	26.60	0.63	0.750			
0.3691	23624.15	3.8340	3.8341	1.0652	26.59	0.62	0.750			
0.3724	23832.73	3.8310	3.8309	1.0711	26.58	0.61	0.750			
0.3756	24037.44	3.8280	3.8280	1.0679	26.58	0.61	0.750			
0.3788	24243.09	3.8250	3.8251	1.0771	26.57	0.60	0.750			
0.3821	24451.84	3.8220	3.8221	1.0816	26.57	0.60	0.750			
0.3853	24660.53	3.8190	3.8187	1.0869	26.56	0.59	0.750			
0.3886	24868.52	3.8160	3.8159	1.0625	26.55	0.58	0.750			
0.3917	25070.55	3.8130	3.8131	1.0780	26.54	0.57	0.750			
0.3950	25278.20	3.8100	3.8102	1.0902	26.53	0.56	0.750			
0.3983	25489.46	3.8070	3.8066	1.0920	26.52	0.55	0.750			
0.4015	25697.06	3.8040	3.8041	1.1022	26.51	0.54	0.750			
0.4048	25910.06	3.8010	3.8010	1.1116	26.50	0.53	0.750			
0.4082	26125.13	3.7980	3.7981	1.1239	26.49	0.52	0.750			
0.4117	26345.78	3.7950	3.7948	1.1179	26.48	0.51	0.750			
0.4150	26560.21	3.7920	3.7921	1.1308	26.47	0.50	0.750			
0.4184	26776.65	3.7890	3.7891	1.1437	26.46	0.49	0.750			
0.4218	26997.06	3.7860	3.7861	1.1646	26.45	0.48	0.750			
0.4253	27220.17	3.7830	3.7831	1.1709	26.43	0.46	0.750			
0.4289	27446.95	3.7800	3.7800	1.1951	26.42	0.45	0.750			
0.4325	27677.65	3.7770	3.7771	1.2141	26.41	0.44	0.750			
0.4362	27916.04	3.7740	3.7737	1.2310	26.39	0.42	0.750			
0.4399	28151.07	3.7710	3.7711	1.2542	26.38	0.41	0.750			
0.4436	28390.59	3.7680	3.7681	1.2946	26.37	0.40	0.750			
0.4475	28642.72	3.7650	3.7649	1.3211	26.35	0.38	0.750			
0.4516	28901.20	3.7620	3.7616	1.3638	26.34	0.37	0.750	0.315	0.403	
0.4557	29164.92	3.7590	3.7592	1.3976	26.33	0.36	0.750			
0.4600	29439.99	3.7560	3.7560	1.4203	26.31	0.34	0.750			
0.4644	29720.99	3.7530	3.7530	1.4428	26.30	0.33	0.750			
0.4687	29995.05	3.7500	3.7501	1.4551	26.28	0.31	0.750			
0.4730	30274.29	3.7470	3.7468	1.4956	26.26	0.29	0.750			
0.4776	30563.62	3.7440	3.7442	1.5253	26.25	0.28	0.750			
0.4821	30857.11	3.7410	3.7410	1.5872	26.24	0.27	0.750			
0.4870	31166.41	3.7380	3.7377	1.6130	26.23	0.26	0.750			
0.4919	31481.61	3.7350	3.7353	1.6417	26.21	0.24	0.750			
0.4969	31801.99	3.7320	3.7324	1.6854	26.20	0.23	0.750			
0.5020	32128.18	3.7290	3.7289	1.7244	26.18	0.21	0.750			
0.5072	32460.02	3.7260	3.7259	1.7794	26.16	0.19	0.750			
0.5125	32801.11	3.7230	3.7231	1.8378	26.15	0.18	0.750			
0.5183	33168.14	3.7200	3.7199	1.9067	26.13	0.16	0.750			
0.5239	33531.56	3.7170	3.7169	1.9549	26.11	0.14	0.750			
0.5299	33916.10	3.7140	3.7139	2.0292	26.09	0.12	0.750			
0.5362	34314.45	3.7110	3.7106	2.0535	26.07	0.10	0.750			
0.5424	34714.00	3.7080	3.7082	2.1106	26.05	0.08	0.750			
0.5487	35117.33	3.7050	3.7050	2.1667	26.03	0.06	0.750			
0.5553	35541.64	3.7020	3.7016	2.2367	26.01	0.04	0.750			
0.5621	35974.56	3.6990	3.6993	2.3245	25.99	0.02	0.750			
0.5693	36432.03	3.6960	3.6960	2.3888	25.96	-0.01	0.750			
0.5766	36904.22	3.6930	3.6929	2.4792	25.94	-0.03	0.750			
0.5840	37375.82	3.6900	3.6901	2.5035	25.93	-0.04	0.750			
0.5917	37868.31	3.6870	3.6870	2.5877	25.91	-0.06	0.750			
0.5995	38369.73	3.6840	3.6841	2.6658	25.89	-0.08	0.750			
0.6077	38891.69	3.6810	3.6812	2.7676	25.86	-0.11	0.750			
0.6161	39429.88	3.6780	3.6780	2.8543	25.85	-0.12	0.750			
0.6248	39990.35	3.6750	3.6751	2.9397	25.84	-0.13	0.750			
0.6337	40558.25	3.6720	3.6720	3.0738	25.82	-0.15	0.750			
0.6431	41160.69	3.6690	3.6688	3.1119	25.80	-0.17	0.750			
0.6528	41776.75	3.6660	3.6660	3.0482	25.79	-0.18	0.750			
0.6620	42366.56	3.6630	3.6629	2.8814	25.78	-0.19	0.750			
0.6701	42889.25	3.6600	3.6602	2.5602	25.77	-0.20	0.750			
0.6772	43342.53	3.6570	3.6573	2.2738	25.76	-0.21	0.750			
0.6836	43753.16	3.6540	3.6542	2.0655	25.75	-0.22	0.750			
0.6893	44117.83	3.6510	3.6510	1.8572	25.75	-0.22	0.750			
0.6944	44441.97	3.6480	3.6480	1.7005	25.76	-0.21	0.750			
0.6993	44755.11	3.6450	3.6450	1.5825	25.76	-0.21	0.750			
0.7039	45049.12	3.6420	3.6419	1.4658	25.76	-0.21	0.750			
0.7081	45315.80	3.6390	3.6390	1.3673	25.76	-0.21	0.750			
0.7120	45566.76	3.6360	3.6362	1.2727	25.76	-0.21	0.750			
0.7156	45796.07	3.6330	3.6329	1.2303	25.76	-0.21	0.750			
0.7190	46019.03	3.6300	3.6300	1.1955	25.75	-0.22	0.750			
0.7225	46242.15	3.6270	3.6268	1.1839	25.75	-0.22	0.750			
0.7260	46465.20	3.6240	3.6241	1.1915	25.75	-0.22	0.750			
0.7297	46697.70	3.6210	3.6210	1.2092	25.75	-0.22	0.750			
0.7333	46932.77	3.6180	3.6181	1.2156	25.75	-0.22	0.750			
0.7370	47170.98	3.6150	3.6150	1.1994	25.75	-0.22	0.750			
0.7406	47401.01	3.6120	3.6121	1.1988	25.75	-0.22	0.750			
0.7443	47632.12	3.6090	3.6092	1.1872	25.75	-0.22	0.750			
0.7478	47859.30	3.6060	3.6058	1.1735	25.75	-0.22	0.750			
0.7513	48080.81	3.6030	3.6031	1.1587	25.75	-0.22	0.750			
0.7547	48298.87	3.6000	3.6002	1.1531	25.75	-0.22	0.750			
0.7581	48517.95	3.5970	3.5970	1.1643	25.75	-0.22	0.750			
0.7616	48740.80	3.5940	3.5939	1.1686	25.75	-0.22	0.750			
0.7651	48966.37	3.5910	3.5911	1.1995	25.75	-0.22	0.750			
0.7687	49197.69	3.5880	3.5880	1.2297	25.75	-0.22	0.750			
0.7725	49439.16	3.5850	3.5850	1.2619	25.75	-0.22	0.750			
0.7763	49685.45	3.5820	3.5820	1.3043	25.75	-0.22	0.750			
0.7802	49934.32	3.5790	3.5790	1.3447	25.74	-0.23	0.750			
0.7843	50197.85	3.5760	3.5760	1.3805	25.74	-0.23	0.750			
0.7886	50468.68	3.5730	3.5730	1.4191	25.74	-0.23	0.750			
0.7928	50739.57	3.5700	3.5701	1.4714	25.74	-0.23	0.750			
0.7974	51030.79	3.5670	3.5670	1.5082	25.74	-0.23	0.750			
0.8019	51324.00	3.5640	3.5640	1.5544	25.74	-0.23	0.750			
0.8067	51626.90	3.5610	3.5608	1.5961	25.73	-0.24	0.750			
0.8116	51942.05	3.5580	3.5578	1.6112	25.73	-0.24	0.750			
0.8165	52256.32	3.5550	3.5552	1.6487	25.73	-0.24	0.750			
0.8214	52571.99	3.5520	3.5523	1.6471	25.72	-0.25	0.750			
0.8264	52891.14	3.5490	3.5491	1.6464	25.72	-0.25	0.750			
0.8313	53205.59	3.5460	3.5459	1.6923	25.73	-0.24	0.750			
0.8364	53528.02	3.5430	3.5432	1.6983	25.73	-0.24	0.750			
0.8416	53860.97	3.5400	3.5399	1.7296	25.74	-0.23	0.750			
0.8467	54191.76	3.5370	3.5371	1.7597	25.75	-0.22	0.750			
0.8521	54535.06	3.5340	3.5338	1.7675	25.76	-0.21	0.750			
0.8578	54901.28	3.5310	3.5307	1.6703	25.76	-0.21	0.750			
0.8631	55237.47	3.5280	3.5279	1.5072	25.78	-0.19	0.750			
0.8677	55534.18	3.5250	3.5256	1.2820	25.79	-0.18	0.750			
0.8710	55744.82	3.5220	3.5224	1.0105	25.80	-0.17	0.750			
0.8735	55906.38	3.5190	3.5183	0.7647	25.81	-0.16	0.750			
0.8750	55999.17	3.5160	3.5155	0.5718	25.82	-0.15	0.750			
0.8761	56070.76	3.5130	3.5129	0.4347	25.83	-0.14	0.750			
0.8772	56140.62	3.5100	3.5100	0.3831	25.83	-0.14	0.750			
0.8782	56205.39	3.5070	3.5068	0.3463	25.84	-0.13	0.750			
0.8792	56265.75	3.5040	3.5039	0.3235	25.84	-0.13	0.750			
0.8801	56325.25	3.5010	3.5010	0.3080	25.85	-0.12	0.750			
0.8810	56382.32	3.4980	3.4980	0.2983	25.86	-0.11	0.750			
0.8819	56439.16	3.4950	3.4950	0.2912	25.86	-0.11	0.750			
0.8827	56493.44	3.4920	3.4920	0.2834	25.87	-0.10	0.750			
0.8836	56547.55	3.4890	3.4890	0.2748	25.87	-0.10	0.750			
0.8844	56599.27	3.4860	3.4860	0.2685	25.88	-0.09	0.750			
0.8852	56649.95	3.4830	3.4830	0.2632	25.88	-0.09	0.750			
0.8859	56699.97	3.4800	3.4800	0.2580	25.89	-0.08	0.750			
0.8867	56748.42	3.4770	3.4769	0.2519	25.89	-0.08	0.750			
0.8874	56796.62	3.4740	3.4740	0.2471	25.90	-0.07	0.750			
0.8882	56842.80	3.4710	3.4711	0.2451	25.90	-0.07	0.750			
0.8889	56890.19	3.4680	3.4680	0.2392	25.91	-0.06	0.750			
0.8896	56936.62	3.4650	3.4649	0.2359	25.91	-0.06	0.750			
0.8903	56981.12	3.4620	3.4618	0.2287	25.92	-0.05	0.750			
0.8910	57024.53	3.4590	3.4593	0.2235	25.92	-0.05	0.750			
0.8917	57067.21	3.4560	3.4558	0.2181	25.92	-0.05	0.750			
0.8923	57108.25	3.4530	3.4530	0.2131	25.93	-0.04	0.750			
0.8929	57148.27	3.4500	3.4499	0.2077	25.93	-0.04	0.750			
0.8935	57186.64	3.4470	3.4470	0.2020	25.94	-0.03	0.750			
0.8942	57226.21	3.4440	3.4440	0.2001	25.94	-0.03	0.750			
0.8947	57263.54	3.4410	3.4411	0.1959	25.94	-0.03	0.750			
0.8953	57301.58	3.4380	3.4379	0.1913	25.95	-0.02	0.750			
0.8959	57337.91	3.4350	3.4349	0.1862	25.95	-0.02	0.750			
0.8965	57373.14	3.4320	3.4321	0.1808	25.96	-0.01	0.750			
0.8970	57407.43	3.4290	3.4292	0.1756	25.96	-0.01	0.750			
0.8975	57440.59	3.4260	3.4259	0.1709	25.96	-0.01	0.750			
0.8980	57472.57	3.4230	3.4230	0.1652	25.97	-0.00	0.750			
0.8985	57503.98	3.4200	3.4200	0.1597	25.97	-0.00	0.750			
0.8990	57533.98	3.4170	3.4169	0.1540	25.97	0.00	0.750			
0.8994	57563.48	3.4140	3.4141	0.1496	25.97	0.00	0.750			
0.8999	57591.61	3.4110	3.4110	0.1437	25.98	0.01	0.750			
0.9003	57618.73	3.4080	3.4079	0.1375	25.98	0.01	0.750			
0.9007	57644.45	3.4050	3.4050	0.1318	25.98	0.01	0.750			
0.9011	57669.03	3.4020	3.4020	0.1257	25.99	0.02	0.750			
0.9015	57693.05	3.3990	3.3991	0.1192	25.99	0.02	0.750			
0.9018	57715.68	3.3960	3.3959	0.1133	25.99	0.02	0.750			
0.9021	57736.90	3.3930	3.3930	0.1065	25.99	0.02	0.750			
0.9025	57757.93	3.3900	3.3900	0.0977	25.99	0.02	0.750			
0.9027	57775.71	3.3870	3.3871	0.0875	26.00	0.03	0.750			
0.9030	57792.47	3.3840	3.3841	0.0792	26.00	0.03	0.750			
0.9032	57806.59	3.3810	3.3812	0.0679	26.00	0.03	0.750			
0.9034	57818.80	3.3780	3.3783	0.0567	26.00	0.03	0.750			
0.9036	57828.57	3.3750	3.3756	0.0451	26.00	0.03	0.750			
0.9037	57836.11	3.3720	3.3730	0.0335	26.00	0.03	0.750			
0.9038	57841.42	3.3690	3.3706	0.0218	26.00	0.03	0.750			
