Ah_balance (normalized)	Ah_balance (mAh)	Voltage - fit (V)	Voltage -  interpolate (V)	dQ/dV (1/V)	Temperature (°C)	Temperature - diff (°C)	Current (C)	R_DC 0ms (mOhm)	R_DC 50ms (mOhm)	R_DC 50 ms PEC (mOhm)
0.0004	24.64	4.1550	4.1548	-0.1214	25.14	-0.00	-0.750			
0.0008	51.80	4.1520	4.1519	-0.1577	25.14	-0.00	-0.750			
0.0013	85.22	4.1490	4.1490	-0.1920	25.14	-0.00	-0.750			
0.0020	125.60	4.1460	4.1461	-0.2261	25.14	-0.00	-0.750			
0.0027	172.30	4.1430	4.1431	-0.2597	25.14	-0.00	-0.750			
0.0035	226.10	4.1400	4.1399	-0.2923	25.13	-0.01	-0.750			
0.0045	285.74	4.1370	4.1370	-0.3223	25.13	-0.01	-0.750			
0.0055	350.92	4.1340	4.1340	-0.3523	25.13	-0.01	-0.750			
0.0066	421.54	4.1310	4.1311	-0.3820	25.13	-0.01	-0.750			
0.0078	497.57	4.1280	4.1280	-0.4112	25.13	-0.01	-0.750			
0.0091	580.05	4.1250	4.1249	-0.4362	25.13	-0.01	-0.750			
0.0104	667.04	4.1220	4.1220	-0.4581	25.12	-0.02	-0.750			
0.0119	758.57	4.1190	4.1190	-0.4793	25.12	-0.02	-0.750			
0.0133	852.19	4.1160	4.1161	-0.4979	25.12	-0.02	-0.750			
0.0148	950.02	4.1130	4.1130	-0.5129	25.12	-0.02	-0.750			
0.0164	1049.27	4.1100	4.1100	-0.5280	25.11	-0.03	-0.750			
0.0180	1151.79	4.1070	4.1070	-0.5427	25.11	-0.03	-0.750			
0.0197	1258.73	4.1040	4.1041	-0.5583	25.11	-0.03	-0.750			
0.0214	1367.53	4.1010	4.1009	-0.5738	25.11	-0.03	-0.750			
0.0231	1479.43	4.0980	4.0980	-0.5830	25.10	-0.04	-0.750			
0.0249	1592.30	4.0950	4.0951	-0.5932	25.10	-0.04	-0.750			
0.0267	1707.98	4.0920	4.0920	-0.6040	25.10	-0.04	-0.750			
0.0285	1825.05	4.0890	4.0890	-0.6104	25.10	-0.04	-0.750			
0.0304	1942.49	4.0860	4.0860	-0.6194	25.10	-0.04	-0.750			
0.0322	2062.22	4.0830	4.0830	-0.6266	25.10	-0.04	-0.750			
0.0341	2183.31	4.0800	4.0800	-0.6319	25.10	-0.04	-0.750			
0.0360	2306.18	4.0770	4.0769	-0.6393	25.10	-0.04	-0.750			
0.0380	2429.66	4.0740	4.0742	-0.6427	25.10	-0.04	-0.750			
0.0399	2554.02	4.0710	4.0710	-0.6458	25.10	-0.04	-0.750			
0.0419	2679.17	4.0680	4.0680	-0.6486	25.10	-0.04	-0.750			
0.0438	2801.93	4.0650	4.0651	-0.6562	25.10	-0.04	-0.750			
0.0457	2927.82	4.0620	4.0620	-0.6616	25.10	-0.04	-0.750			
0.0478	3056.07	4.0590	4.0589	-0.6642	25.10	-0.04	-0.750			
0.0498	3185.21	4.0560	4.0560	-0.6664	25.10	-0.04	-0.750			
0.0518	3313.48	4.0530	4.0531	-0.6700	25.10	-0.04	-0.750			
0.0538	3443.11	4.0500	4.0499	-0.6742	25.11	-0.03	-0.750			
0.0558	3571.71	4.0470	4.0470	-0.6765	25.11	-0.03	-0.750			
0.0578	3699.62	4.0440	4.0440	-0.6734	25.11	-0.03	-0.750			
0.0599	3831.14	4.0410	4.0410	-0.6826	25.12	-0.02	-0.750			
0.0619	3962.91	4.0380	4.0380	-0.6890	25.12	-0.02	-0.750			
0.0640	4095.91	4.0350	4.0349	-0.6937	25.12	-0.02	-0.750			
0.0661	4228.76	4.0320	4.0320	-0.6956	25.13	-0.01	-0.750			
0.0682	4363.39	4.0290	4.0291	-0.6979	25.13	-0.01	-0.750			
0.0703	4497.68	4.0260	4.0260	-0.6978	25.13	-0.01	-0.750			
0.0724	4633.05	4.0230	4.0230	-0.7007	25.14	-0.00	-0.750			
0.0745	4766.27	4.0200	4.0200	-0.6992	25.14	-0.00	-0.750			
0.0766	4900.10	4.0170	4.0169	-0.7009	25.14	0.00	-0.750			
0.0787	5034.39	4.0140	4.0141	-0.7044	25.14	0.00	-0.750			
0.0808	5170.43	4.0110	4.0109	-0.7099	25.14	0.00	-0.750			
0.0830	5309.15	4.0080	4.0080	-0.7120	25.15	0.01	-0.750			
0.0851	5446.13	4.0050	4.0050	-0.7125	25.15	0.01	-0.750			
0.0872	5583.71	4.0020	4.0021	-0.7112	25.15	0.01	-0.750			
0.0894	5719.65	3.9990	3.9989	-0.7123	25.15	0.01	-0.750			
0.0915	5854.73	3.9960	3.9960	-0.7112	25.16	0.02	-0.750			
0.0936	5990.34	3.9930	3.9930	-0.7160	25.16	0.02	-0.750			
0.0957	6127.06	3.9900	3.9900	-0.7193	25.17	0.03	-0.750			
0.0979	6268.68	3.9870	3.9870	-0.7209	25.17	0.03	-0.750			
0.1001	6406.44	3.9840	3.9841	-0.7205	25.18	0.04	-0.750			
0.1023	6544.80	3.9810	3.9811	-0.7277	25.18	0.04	-0.750			
0.1044	6684.03	3.9780	3.9777	-0.7295	25.19	0.05	-0.750			
0.1066	6823.53	3.9750	3.9750	-0.7328	25.19	0.05	-0.750			
0.1088	6965.10	3.9720	3.9721	-0.7370	25.19	0.05	-0.750			
0.1111	7109.85	3.9690	3.9690	-0.7413	25.20	0.06	-0.750			
0.1133	7252.99	3.9660	3.9660	-0.7441	25.20	0.06	-0.750			
0.1155	7393.77	3.9630	3.9630	-0.7419	25.20	0.06	-0.750			
0.1177	7535.06	3.9600	3.9600	-0.7471	25.21	0.07	-0.750			
0.1200	7680.15	3.9570	3.9569	-0.7496	25.21	0.07	-0.750			
0.1223	7825.78	3.9540	3.9539	-0.7491	25.22	0.08	-0.750			
0.1245	7969.71	3.9510	3.9510	-0.7471	25.22	0.08	-0.750			
0.1268	8113.24	3.9480	3.9481	-0.7524	25.22	0.08	-0.750			
0.1290	8256.81	3.9450	3.9450	-0.7497	25.23	0.09	-0.750			
0.1312	8399.34	3.9420	3.9419	-0.7504	25.23	0.09	-0.750			
0.1335	8543.25	3.9390	3.9390	-0.7492	25.23	0.09	-0.750			
0.1358	8689.55	3.9360	3.9361	-0.7583	25.24	0.10	-0.750			
0.1381	8835.29	3.9330	3.9331	-0.7602	25.24	0.10	-0.750			
0.1403	8981.11	3.9300	3.9299	-0.7616	25.24	0.10	-0.750			
0.1426	9127.04	3.9270	3.9270	-0.7606	25.25	0.11	-0.750			
0.1449	9273.67	3.9240	3.9241	-0.7635	25.25	0.11	-0.750			
0.1472	9422.12	3.9210	3.9209	-0.7623	25.26	0.12	-0.750			
0.1495	9567.26	3.9180	3.9179	-0.7643	25.26	0.12	-0.750			
0.1517	9711.54	3.9150	3.9151	-0.7660	25.26	0.12	-0.750			
0.1540	9858.19	3.9120	3.9120	-0.7738	25.27	0.13	-0.750			
0.1564	10008.61	3.9090	3.9090	-0.7748	25.27	0.13	-0.750			
0.1587	10159.14	3.9060	3.9060	-0.7785	25.27	0.13	-0.750			
0.1611	10309.30	3.9030	3.9030	-0.7775	25.28	0.14	-0.750			
0.1634	10460.34	3.9000	3.9001	-0.7789	25.28	0.14	-0.750			
0.1657	10607.66	3.8970	3.8970	-0.7762	25.28	0.14	-0.750			
0.1680	10755.02	3.8940	3.8940	-0.7742	25.29	0.15	-0.750			
0.1704	10903.19	3.8910	3.8910	-0.7752	25.29	0.15	-0.750			
0.1727	11054.27	3.8880	3.8880	-0.7805	25.30	0.16	-0.750			
0.1751	11204.55	3.8850	3.8850	-0.7801	25.30	0.16	-0.750			
0.1774	11353.94	3.8820	3.8820	-0.7806	25.30	0.16	-0.750			
0.1797	11502.56	3.8790	3.8790	-0.7825	25.31	0.17	-0.750			
0.1821	11653.23	3.8760	3.8760	-0.7829	25.31	0.17	-0.750			
0.1844	11804.23	3.8730	3.8729	-0.7822	25.31	0.17	-0.750			
0.1868	11955.32	3.8700	3.8700	-0.7809	25.32	0.18	-0.750			
0.1891	12104.90	3.8670	3.8671	-0.7811	25.32	0.18	-0.750			
0.1915	12254.26	3.8640	3.8640	-0.7852	25.33	0.19	-0.750			
0.1938	12405.20	3.8610	3.8610	-0.7835	25.33	0.19	-0.750			
0.1962	12554.51	3.8580	3.8580	-0.7820	25.33	0.19	-0.750			
0.1985	12705.98	3.8550	3.8550	-0.7833	25.34	0.20	-0.750			
0.2009	12857.70	3.8520	3.8522	-0.7849	25.34	0.20	-0.750			
0.2033	13008.05	3.8490	3.8489	-0.7824	25.34	0.20	-0.750			
0.2056	13157.82	3.8460	3.8460	-0.7787	25.35	0.21	-0.750			
0.2079	13307.19	3.8430	3.8430	-0.7758	25.35	0.21	-0.750			
0.2103	13456.00	3.8400	3.8400	-0.7769	25.36	0.22	-0.750			
0.2126	13605.70	3.8370	3.8370	-0.7729	25.36	0.22	-0.750			
0.2149	13752.58	3.8340	3.8340	-0.7759	25.36	0.22	-0.750			
0.2172	13901.25	3.8310	3.8311	-0.7744	25.37	0.23	-0.750			
0.2195	14050.50	3.8280	3.8279	-0.7739	25.37	0.23	-0.750			
0.2219	14199.76	3.8250	3.8251	-0.7711	25.37	0.23	-0.750			
0.2242	14349.37	3.8220	3.8220	-0.7662	25.38	0.24	-0.750			
0.2265	14495.88	3.8190	3.8190	-0.7573	25.38	0.24	-0.750			
0.2288	14640.80	3.8160	3.8160	-0.7529	25.39	0.25	-0.750			
0.2310	14782.95	3.8130	3.8130	-0.7523	25.39	0.25	-0.750			
0.2332	14927.82	3.8100	3.8099	-0.7498	25.39	0.25	-0.750			
0.2355	15071.85	3.8070	3.8069	-0.7458	25.40	0.26	-0.750			
0.2377	15215.45	3.8040	3.8044	-0.7452	25.40	0.26	-0.750			
0.2400	15358.22	3.8010	3.8009	-0.7424	25.40	0.26	-0.750			
0.2422	15499.56	3.7980	3.7980	-0.7414	25.41	0.27	-0.750			
0.2444	15642.27	3.7950	3.7949	-0.7329	25.41	0.27	-0.750			
0.2466	15783.54	3.7920	3.7920	-0.7333	25.41	0.27	-0.750			
0.2488	15923.64	3.7890	3.7890	-0.7274	25.42	0.28	-0.750			
0.2510	16062.40	3.7860	3.7861	-0.7237	25.42	0.28	-0.750			
0.2531	16199.84	3.7830	3.7828	-0.7184	25.42	0.28	-0.750			
0.2552	16334.69	3.7800	3.7800	-0.7195	25.43	0.29	-0.750			
0.2574	16473.33	3.7770	3.7770	-0.7162	25.43	0.29	-0.750			
0.2596	16614.31	3.7740	3.7739	-0.7168	25.43	0.29	-0.750			
0.2617	16751.48	3.7710	3.7710	-0.7147	25.44	0.30	-0.750			
0.2639	16888.27	3.7680	3.7680	-0.7143	25.44	0.30	-0.750			
0.2660	17023.99	3.7650	3.7649	-0.7137	25.45	0.31	-0.750			
0.2681	17160.28	3.7620	3.7620	-0.7225	25.45	0.31	-0.750			
0.2703	17298.29	3.7590	3.7590	-0.7229	25.45	0.31	-0.750			
0.2725	17440.28	3.7560	3.7560	-0.7311	25.46	0.32	-0.750			
0.2747	17582.44	3.7530	3.7531	-0.7387	25.46	0.32	-0.750			
0.2769	17723.35	3.7500	3.7500	-0.7394	25.46	0.32	-0.750			
0.2791	17864.95	3.7470	3.7469	-0.7422	25.47	0.33	-0.750			
0.2814	18007.30	3.7440	3.7440	-0.7524	25.47	0.33	-0.750			
0.2836	18151.70	3.7410	3.7409	-0.7551	25.47	0.33	-0.750			
0.2859	18300.61	3.7380	3.7380	-0.7685	25.48	0.34	-0.750			
0.2882	18447.74	3.7350	3.7352	-0.7752	25.48	0.34	-0.750			
0.2906	18596.11	3.7320	3.7320	-0.7845	25.48	0.34	-0.750			
0.2929	18747.20	3.7290	3.7290	-0.8005	25.48	0.34	-0.750			
0.2953	18899.78	3.7260	3.7259	-0.8139	25.48	0.34	-0.750			
0.2978	19059.20	3.7230	3.7230	-0.8315	25.48	0.34	-0.750			
0.3003	19221.29	3.7200	3.7200	-0.8440	25.48	0.34	-0.750			
0.3029	19384.57	3.7170	3.7170	-0.8607	25.48	0.34	-0.750			
0.3055	19551.81	3.7140	3.7141	-0.8721	25.48	0.34	-0.750			
0.3081	19719.08	3.7110	3.7109	-0.8861	25.48	0.34	-0.750			
0.3108	19890.53	3.7080	3.7079	-0.8968	25.48	0.34	-0.750			
0.3135	20064.20	3.7050	3.7051	-0.9124	25.48	0.34	-0.750			
0.3163	20241.11	3.7020	3.7020	-0.9284	25.48	0.34	-0.750			
0.3191	20421.95	3.6990	3.6990	-0.9436	25.48	0.34	-0.750			
0.3219	20604.58	3.6960	3.6960	-0.9457	25.48	0.34	-0.750			
0.3248	20786.61	3.6930	3.6931	-0.9611	25.48	0.34	-0.750			
0.3277	20970.37	3.6900	3.6900	-0.9826	25.48	0.34	-0.750			
0.3306	21159.69	3.6870	3.6867	-1.0039	25.47	0.33	-0.750			
0.3337	21353.87	3.6840	3.6839	-1.0228	25.47	0.33	-0.750			
0.3368	21552.29	3.6810	3.6810	-1.0434	25.46	0.32	-0.750			
0.3400	21758.83	3.6780	3.6779	-1.0714	25.46	0.32	-0.750			
0.3433	21969.43	3.6750	3.6749	-1.0870	25.46	0.32	-0.750			
0.3465	22176.08	3.6720	3.6720	-1.0964	25.45	0.31	-0.750			
0.3498	22385.69	3.6690	3.6693	-1.1137	25.45	0.31	-0.750			
0.3532	22603.88	3.6660	3.6659	-1.1368	25.45	0.31	-0.750			
0.3567	22825.87	3.6630	3.6629	-1.1503	25.44	0.30	-0.750			
0.3601	23046.79	3.6600	3.6600	-1.1684	25.44	0.30	-0.750			
0.3636	23271.09	3.6570	3.6571	-1.1929	25.44	0.30	-0.750			
0.3673	23505.54	3.6540	3.6540	-1.2164	25.43	0.29	-0.750			
0.3709	23738.78	3.6510	3.6509	-1.2405	25.43	0.29	-0.750			
0.3746	23977.47	3.6480	3.6480	-1.2656	25.42	0.28	-0.750			
0.3785	24226.99	3.6450	3.6450	-1.3009	25.41	0.27	-0.750			
0.3825	24479.88	3.6420	3.6419	-1.3188	25.41	0.27	-0.750			
0.3865	24735.10	3.6390	3.6391	-1.3401	25.40	0.26	-0.750			
0.3905	24994.74	3.6360	3.6359	-1.3609	25.40	0.26	-0.750			
0.3947	25258.65	3.6330	3.6330	-1.3861	25.39	0.25	-0.750			
0.3988	25524.70	3.6300	3.6300	-1.4166	25.38	0.24	-0.750			
0.4031	25797.52	3.6270	3.6269	-1.4408	25.38	0.24	-0.750			
0.4075	26077.66	3.6240	3.6239	-1.4765	25.37	0.23	-0.750			
0.4120	26367.36	3.6210	3.6210	-1.5068	25.37	0.23	-0.750			
0.4165	26658.66	3.6180	3.6179	-1.5337	25.37	0.23	-0.750			
0.4212	26959.17	3.6150	3.6148	-1.5570	25.36	0.22	-0.750			
0.4259	27257.03	3.6120	3.6121	-1.5798	25.36	0.22	-0.750	0.392	0.560	
0.4306	27558.88	3.6090	3.6089	-1.5977	25.35	0.21	-0.750			
0.4355	27873.64	3.6060	3.6058	-1.6311	25.34	0.20	-0.750			
0.4404	28183.98	3.6030	3.6028	-1.6568	25.34	0.20	-0.750			
0.4454	28506.21	3.6000	3.6000	-1.7086	25.34	0.20	-0.750			
0.4507	28841.94	3.5970	3.5971	-1.7398	25.34	0.20	-0.750			
0.4559	29179.84	3.5940	3.5941	-1.7817	25.33	0.19	-0.750			
0.4613	29521.49	3.5910	3.5911	-1.8203	25.32	0.18	-0.750			
0.4669	29879.80	3.5880	3.5880	-1.8710	25.32	0.18	-0.750			
0.4726	30245.54	3.5850	3.5851	-1.9080	25.32	0.18	-0.750			
0.4783	30611.65	3.5820	3.5819	-1.9357	25.32	0.18	-0.750			
0.4842	30990.90	3.5790	3.5791	-1.9533	25.32	0.18	-0.750			
0.4902	31372.23	3.5760	3.5761	-1.9920	25.32	0.18	-0.750			
0.4961	31752.82	3.5730	3.5729	-1.9969	25.32	0.18	-0.750			
0.5020	32130.85	3.5700	3.5700	-2.0136	25.32	0.18	-0.750			
0.5082	32523.86	3.5670	3.5672	-2.0424	25.32	0.18	-0.750			
0.5143	32918.21	3.5640	3.5640	-2.0711	25.32	0.18	-0.750			
0.5208	33328.92	3.5610	3.5610	-2.0611	25.33	0.19	-0.750			
0.5271	33733.29	3.5580	3.5580	-2.0462	25.33	0.19	-0.750			
0.5332	34122.69	3.5550	3.5550	-2.0601	25.34	0.20	-0.750			
0.5392	34508.72	3.5520	3.5522	-2.0130	25.34	0.20	-0.750			
0.5451	34885.37	3.5490	3.5487	-2.0219	25.34	0.20	-0.750			
0.5511	35272.94	3.5460	3.5460	-2.0115	25.34	0.20	-0.750			
0.5571	35655.96	3.5430	3.5433	-2.0299	25.35	0.21	-0.750			
0.5634	36059.46	3.5400	3.5400	-2.0428	25.35	0.21	-0.750			
0.5696	36454.84	3.5370	3.5367	-2.0368	25.36	0.22	-0.750			
0.5756	36839.80	3.5340	3.5342	-2.0301	25.36	0.22	-0.750			
0.5819	37239.36	3.5310	3.5311	-2.0125	25.37	0.23	-0.750			
0.5879	37622.48	3.5280	3.5280	-1.9736	25.38	0.24	-0.750			
0.5938	38003.06	3.5250	3.5250	-1.9393	25.39	0.25	-0.750			
0.5995	38369.05	3.5220	3.5222	-1.9099	25.40	0.26	-0.750			
0.6053	38736.69	3.5190	3.5189	-1.8823	25.41	0.27	-0.750			
0.6108	39089.30	3.5160	3.5159	-1.8265	25.42	0.28	-0.750			
0.6162	39434.71	3.5130	3.5129	-1.7886	25.43	0.29	-0.750			
0.6216	39780.14	3.5100	3.5099	-1.7486	25.43	0.29	-0.750			
0.6267	40111.00	3.5070	3.5070	-1.7105	25.44	0.30	-0.750			
0.6318	40433.96	3.5040	3.5042	-1.6616	25.46	0.32	-0.750			
0.6367	40749.61	3.5010	3.5008	-1.6149	25.48	0.34	-0.750			
0.6416	41059.47	3.4980	3.4980	-1.5685	25.49	0.35	-0.750			
0.6462	41358.69	3.4950	3.4948	-1.5300	25.50	0.36	-0.750			
0.6507	41647.73	3.4920	3.4922	-1.4815	25.51	0.37	-0.750			
0.6551	41927.47	3.4890	3.4889	-1.4290	25.53	0.39	-0.750			
0.6592	42191.25	3.4860	3.4860	-1.3767	25.55	0.41	-0.750			
0.6633	42450.81	3.4830	3.4830	-1.3378	25.56	0.42	-0.750			
0.6674	42711.51	3.4800	3.4800	-1.3037	25.57	0.43	-0.750			
0.6712	42954.51	3.4770	3.4768	-1.2605	25.58	0.44	-0.750			
0.6749	43190.57	3.4740	3.4742	-1.2207	25.59	0.45	-0.750			
0.6785	43423.83	3.4710	3.4708	-1.1912	25.60	0.46	-0.750			
0.6820	43649.23	3.4680	3.4680	-1.1539	25.62	0.48	-0.750			
0.6854	43866.26	3.4650	3.4649	-1.1125	25.63	0.49	-0.750			
0.6887	44076.29	3.4620	3.4622	-1.0810	25.64	0.50	-0.750			
0.6920	44285.09	3.4590	3.4589	-1.0481	25.66	0.52	-0.750			
0.6950	44477.61	3.4560	3.4560	-1.0096	25.67	0.53	-0.750			
0.6979	44663.37	3.4530	3.4531	-0.9781	25.69	0.55	-0.750			
0.7008	44853.00	3.4500	3.4501	-0.9604	25.70	0.56	-0.750			
0.7037	45034.15	3.4470	3.4468	-0.9381	25.71	0.57	-0.750			
0.7064	45212.09	3.4440	3.4441	-0.9189	25.72	0.58	-0.750			
0.7092	45387.39	3.4410	3.4410	-0.8974	25.74	0.60	-0.750			
0.7119	45558.77	3.4380	3.4380	-0.8836	25.75	0.61	-0.750			
0.7144	45724.55	3.4350	3.4349	-0.8692	25.76	0.62	-0.750			
0.7170	45885.96	3.4320	3.4320	-0.8558	25.76	0.62	-0.750			
0.7195	46050.23	3.4290	3.4289	-0.8524	25.77	0.63	-0.750			
0.7221	46211.76	3.4260	3.4260	-0.8469	25.78	0.64	-0.750			
0.7246	46376.36	3.4230	3.4230	-0.8474	25.79	0.65	-0.750			
0.7272	46538.93	3.4200	3.4200	-0.8500	25.79	0.65	-0.750			
0.7297	46700.45	3.4170	3.4170	-0.8504	25.80	0.66	-0.750			
0.7322	46863.91	3.4140	3.4140	-0.8538	25.81	0.67	-0.750			
0.7348	47028.60	3.4110	3.4109	-0.8530	25.81	0.67	-0.750			
0.7374	47194.45	3.4080	3.4081	-0.8556	25.82	0.68	-0.750			
0.7400	47359.06	3.4050	3.4050	-0.8524	25.83	0.69	-0.750			
0.7426	47523.89	3.4020	3.4020	-0.8566	25.84	0.70	-0.750			
0.7452	47689.86	3.3990	3.3989	-0.8421	25.85	0.71	-0.750			
0.7477	47850.72	3.3960	3.3960	-0.8281	25.86	0.72	-0.750			
0.7502	48011.93	3.3930	3.3933	-0.8113	25.87	0.73	-0.750			
0.7526	48165.37	3.3900	3.3900	-0.7927	25.88	0.74	-0.750			
0.7549	48314.37	3.3870	3.3869	-0.7726	25.88	0.74	-0.750			
0.7572	48459.93	3.3840	3.3839	-0.7496	25.89	0.75	-0.750			
0.7594	48601.66	3.3810	3.3809	-0.7322	25.90	0.76	-0.750			
0.7616	48741.59	3.3780	3.3780	-0.7122	25.91	0.77	-0.750			
0.7637	48877.22	3.3750	3.3750	-0.6900	25.91	0.77	-0.750			
0.7657	49007.84	3.3720	3.3719	-0.6699	25.92	0.78	-0.750			
0.7677	49132.25	3.3690	3.3690	-0.6429	25.92	0.78	-0.750			
0.7696	49253.86	3.3660	3.3660	-0.6207	25.93	0.79	-0.750			
0.7714	49372.66	3.3630	3.3630	-0.6036	25.93	0.79	-0.750			
0.7732	49485.56	3.3600	3.3600	-0.5842	25.94	0.80	-0.750			
0.7749	49596.29	3.3570	3.3571	-0.5649	25.94	0.80	-0.750			
0.7766	49702.65	3.3540	3.3539	-0.5475	25.94	0.80	-0.750			
0.7782	49805.08	3.3510	3.3510	-0.5310	25.95	0.81	-0.750			
0.7798	49906.08	3.3480	3.3480	-0.5155	25.95	0.81	-0.750			
0.7813	50003.10	3.3450	3.3450	-0.5007	25.95	0.81	-0.750			
0.7828	50098.09	3.3420	3.3419	-0.4882	25.96	0.82	-0.750			
0.7842	50190.62	3.3390	3.3391	-0.4719	25.96	0.82	-0.750			
0.7856	50280.48	3.3360	3.3359	-0.4581	25.96	0.82	-0.750			
0.7870	50365.89	3.3330	3.3331	-0.4440	25.97	0.83	-0.750			
0.7883	50449.81	3.3300	3.3300	-0.4295	25.97	0.83	-0.750			
0.7895	50530.84	3.3270	3.3270	-0.4193	25.98	0.84	-0.750			
0.7908	50609.79	3.3240	3.3240	-0.4069	25.98	0.84	-0.750			
0.7920	50687.28	3.3210	3.3210	-0.3952	25.99	0.85	-0.750			
0.7932	50762.79	3.3180	3.3180	-0.3859	26.00	0.86	-0.750			
0.7943	50835.56	3.3150	3.3150	-0.3744	26.00	0.86	-0.750			
0.7954	50905.77	3.3120	3.3120	-0.3638	26.01	0.87	-0.750			
0.7965	50974.17	3.3090	3.3090	-0.3568	26.01	0.87	-0.750			
0.7975	51041.48	3.3060	3.3060	-0.3463	26.02	0.88	-0.750			
0.7986	51107.51	3.3030	3.3029	-0.3392	26.02	0.88	-0.750			
0.7996	51172.41	3.3000	3.2999	-0.3316	26.03	0.89	-0.750			
0.8005	51235.07	3.2970	3.2971	-0.3238	26.03	0.89	-0.750			
0.8015	51296.66	3.2940	3.2940	-0.3161	26.04	0.90	-0.750			
0.8024	51355.52	3.2910	3.2911	-0.3087	26.04	0.90	-0.750			
0.8033	51413.99	3.2880	3.2880	-0.3033	26.04	0.90	-0.750			
0.8043	51472.53	3.2850	3.2850	-0.2996	26.05	0.91	-0.750			
0.8051	51529.37	3.2820	3.2819	-0.2929	26.05	0.91	-0.750			
0.8060	51585.06	3.2790	3.2791	-0.2877	26.06	0.92	-0.750			
0.8069	51639.44	3.2760	3.2761	-0.2830	26.06	0.92	-0.750			
0.8077	51693.29	3.2730	3.2729	-0.2792	26.07	0.93	-0.750			
0.8085	51745.52	3.2700	3.2700	-0.2736	26.07	0.93	-0.750			
0.8093	51798.16	3.2670	3.2670	-0.2700	26.07	0.93	-0.750			
0.8102	51850.23	3.2640	3.2641	-0.2667	26.08	0.94	-0.750			
0.8110	51901.34	3.2610	3.2610	-0.2623	26.08	0.94	-0.750			
0.8117	51950.67	3.2580	3.2580	-0.2577	26.09	0.95	-0.750			
0.8125	51999.67	3.2550	3.2549	-0.2534	26.09	0.95	-0.750			
0.8132	52047.57	3.2520	3.2520	-0.2476	26.09	0.95	-0.750			
0.8140	52094.68	3.2490	3.2490	-0.2441	26.10	0.96	-0.750			
0.8147	52141.08	3.2460	3.2461	-0.2423	26.11	0.97	-0.750			
0.8154	52187.37	3.2430	3.2430	-0.2381	26.11	0.97	-0.750			
0.8161	52232.65	3.2400	3.2400	-0.2356	26.12	0.98	-0.750			
0.8168	52277.56	3.2370	3.2370	-0.2328	26.12	0.98	-0.750			
0.8175	52321.89	3.2340	3.2342	-0.2294	26.13	0.99	-0.750			
0.8182	52366.15	3.2310	3.2309	-0.2276	26.14	1.00	-0.750			
0.8189	52409.09	3.2280	3.2281	-0.2241	26.14	1.00	-0.750			
0.8196	52451.87	3.2250	3.2250	-0.2215	26.15	1.01	-0.750			
0.8202	52493.80	3.2220	3.2220	-0.2191	26.15	1.01	-0.750			
0.8209	52536.06	3.2190	3.2190	-0.2172	26.16	1.02	-0.750			
0.8215	52577.27	3.2160	3.2161	-0.2141	26.16	1.02	-0.750			
0.8222	52618.18	3.2130	3.2130	-0.2120	26.17	1.03	-0.750			
0.8228	52658.81	3.2100	3.2100	-0.2108	26.17	1.03	-0.750			
0.8234	52699.30	3.2070	3.2070	-0.2074	26.18	1.04	-0.750			
0.8240	52738.90	3.2040	3.2039	-0.2045	26.18	1.04	-0.750			
0.8247	52777.87	3.2010	3.2011	-0.2014	26.19	1.05	-0.750			
0.8253	52816.17	3.1980	3.1982	-0.1998	26.19	1.05	-0.750			
0.8258	52854.17	3.1950	3.1949	-0.1980	26.20	1.06	-0.750			
0.8264	52892.20	3.1920	3.1920	-0.1948	26.20	1.06	-0.750			
0.8270	52929.36	3.1890	3.1890	-0.1923	26.21	1.07	-0.750			
0.8276	52965.88	3.1860	3.1860	-0.1900	26.21	1.07	-0.750			
0.8282	53002.46	3.1830	3.1831	-0.1890	26.22	1.08	-0.750			
0.8287	53038.20	3.1800	3.1800	-0.1869	26.22	1.08	-0.750			
0.8293	53073.93	3.1770	3.1769	-0.1853	26.23	1.09	-0.750			
0.8298	53108.95	3.1740	3.1740	-0.1831	26.23	1.09	-0.750			
0.8304	53144.06	3.1710	3.1711	-0.1813	26.24	1.10	-0.750			
0.8309	53178.98	3.1680	3.1680	-0.1812	26.24	1.10	-0.750			
0.8315	53213.60	3.1650	3.1651	-0.1794	26.25	1.11	-0.750			
0.8320	53247.80	3.1620	3.1619	-0.1772	26.25	1.11	-0.750			
0.8325	53281.60	3.1590	3.1589	-0.1750	26.26	1.12	-0.750			
0.8330	53314.99	3.1560	3.1561	-0.1734	26.26	1.12	-0.750			
0.8336	53348.12	3.1530	3.1531	-0.1717	26.27	1.13	-0.750			
0.8341	53381.07	3.1500	3.1499	-0.1704	26.27	1.13	-0.750			
0.8346	53413.55	3.1470	3.1470	-0.1686	26.28	1.14	-0.750			
0.8351	53445.72	3.1440	3.1440	-0.1660	26.28	1.14	-0.750			
0.8356	53477.44	3.1410	3.1410	-0.1644	26.29	1.15	-0.750			
0.8361	53509.03	3.1380	3.1381	-0.1636	26.29	1.15	-0.750			
0.8366	53540.42	3.1350	3.1351	-0.1615	26.29	1.15	-0.750			
0.8370	53571.04	3.1320	3.1319	-0.1596	26.30	1.16	-0.750			
0.8375	53601.54	3.1290	3.1290	-0.1580	26.30	1.16	-0.750			
0.8380	53631.57	3.1260	3.1258	-0.1569	26.30	1.16	-0.750			
0.8385	53661.37	3.1230	3.1229	-0.1562	26.31	1.17	-0.750			
0.8389	53691.48	3.1200	3.1199	-0.1555	26.31	1.17	-0.750			
0.8394	53721.24	3.1170	3.1170	-0.1546	26.32	1.18	-0.750			
0.8399	53750.73	3.1140	3.1140	-0.1529	26.32	1.18	-0.750			
0.8403	53780.44	3.1110	3.1110	-0.1519	26.33	1.19	-0.750			
0.8408	53809.41	3.1080	3.1080	-0.1503	26.34	1.20	-0.750			
0.8412	53838.08	3.1050	3.1050	-0.1484	26.34	1.20	-0.750			
0.8417	53866.25	3.1020	3.1020	-0.1471	26.35	1.21	-0.750			
0.8421	53894.20	3.0990	3.0991	-0.1452	26.35	1.21	-0.750			
0.8425	53921.91	3.0960	3.0960	-0.1444	26.36	1.22	-0.750			
0.8430	53949.53	3.0930	3.0930	-0.1434	26.36	1.22	-0.750			
0.8434	53976.92	3.0900	3.0900	-0.1428	26.37	1.23	-0.750			
0.8438	54004.36	3.0870	3.0870	-0.1416	26.37	1.23	-0.750			
0.8442	54031.37	3.0840	3.0839	-0.1407	26.38	1.24	-0.750			
0.8447	54058.31	3.0810	3.0811	-0.1399	26.38	1.24	-0.750			
0.8451	54085.16	3.0780	3.0781	-0.1385	26.39	1.25	-0.750			
0.8455	54111.86	3.0750	3.0750	-0.1375	26.39	1.25	-0.750			
0.8459	54137.97	3.0720	3.0720	-0.1358	26.40	1.26	-0.750			
0.8463	54163.91	3.0690	3.0692	-0.1344	26.40	1.26	-0.750			
0.8467	54189.46	3.0660	3.0660	-0.1335	26.41	1.27	-0.750			
0.8471	54214.86	3.0630	3.0629	-0.1330	26.41	1.27	-0.750			
0.8475	54240.55	3.0600	3.0600	-0.1319	26.42	1.28	-0.750			
0.8479	54265.64	3.0570	3.0569	-0.1308	26.42	1.28	-0.750			
0.8483	54290.86	3.0540	3.0540	-0.1302	26.43	1.29	-0.750			
0.8487	54315.87	3.0510	3.0511	-0.1293	26.44	1.30	-0.750			
0.8491	54340.60	3.0480	3.0480	-0.1282	26.44	1.30	-0.750			
0.8494	54364.79	3.0450	3.0450	-0.1275	26.45	1.31	-0.750			
0.8498	54388.96	3.0420	3.0419	-0.1265	26.45	1.31	-0.750			
0.8502	54413.23	3.0390	3.0390	-0.1251	26.46	1.32	-0.750			
0.8506	54437.21	3.0360	3.0360	-0.1247	26.46	1.32	-0.750			
0.8510	54461.34	3.0330	3.0331	-0.1246	26.47	1.33	-0.750			
0.8513	54485.15	3.0300	3.0301	-0.1238	26.48	1.34	-0.750			
0.8517	54508.80	3.0270	3.0270	-0.1229	26.48	1.34	-0.750			
0.8521	54532.52	3.0240	3.0239	-0.1218	26.49	1.35	-0.750			
0.8524	54555.80	3.0210	3.0209	-0.1206	26.49	1.35	-0.750			
0.8528	54578.80	3.0180	3.0181	-0.1192	26.50	1.36	-0.750			
0.8532	54601.91	3.0150	3.0151	-0.1187	26.50	1.36	-0.750			
0.8535	54624.52	3.0120	3.0119	-0.1169	26.51	1.37	-0.750			
0.8539	54646.64	3.0090	3.0090	-0.1152	26.51	1.37	-0.750			
0.8542	54668.62	3.0060	3.0058	-0.1138	26.52	1.38	-0.751			
0.8545	54690.32	3.0030	3.0030	-0.1140	26.52	1.38	-0.751			
