Ah_balance (normalized)	Ah_balance (mAh)	Voltage - fit (V)	Voltage -  interpolate (V)	dQ/dV (1/V)	Temperature (°C)	Temperature - diff (°C)	Current (C)	R_DC 0ms (mOhm)	R_DC 50ms (mOhm)	R_DC 50 ms PEC (mOhm)
0.0004	27.90	4.1580	4.1575	-0.1263	25.98	0.01	-0.750			
0.0009	55.92	4.1550	4.1549	-0.1654	25.97	0.00	-0.750			
0.0014	92.06	4.1520	4.1519	-0.2035	25.97	0.00	-0.750			
0.0021	135.02	4.1490	4.1490	-0.2397	25.97	0.00	-0.750			
0.0029	184.77	4.1460	4.1460	-0.2743	25.97	0.00	-0.750			
0.0038	241.51	4.1430	4.1432	-0.3094	25.97	-0.00	-0.750			
0.0048	304.31	4.1400	4.1400	-0.3426	25.97	-0.00	-0.750			
0.0058	373.47	4.1370	4.1370	-0.3735	25.97	-0.00	-0.750			
0.0070	448.42	4.1340	4.1340	-0.4033	25.96	-0.01	-0.750			
0.0083	529.69	4.1310	4.1310	-0.4299	25.96	-0.01	-0.750			
0.0096	614.92	4.1280	4.1280	-0.4547	25.96	-0.01	-0.750			
0.0110	705.50	4.1250	4.1251	-0.4786	25.96	-0.01	-0.750			
0.0125	799.49	4.1220	4.1220	-0.4991	25.96	-0.01	-0.750			
0.0140	897.61	4.1190	4.1190	-0.5194	25.95	-0.02	-0.750			
0.0156	1000.26	4.1160	4.1160	-0.5347	25.95	-0.02	-0.750			
0.0173	1105.15	4.1130	4.1130	-0.5495	25.95	-0.02	-0.750			
0.0189	1211.83	4.1100	4.1100	-0.5653	25.94	-0.03	-0.750			
0.0206	1321.25	4.1070	4.1070	-0.5774	25.94	-0.03	-0.750			
0.0224	1434.10	4.1040	4.1039	-0.5919	25.94	-0.03	-0.750			
0.0242	1549.78	4.1010	4.1010	-0.6022	25.93	-0.04	-0.750			
0.0261	1668.19	4.0980	4.0980	-0.6081	25.93	-0.04	-0.750			
0.0279	1786.07	4.0950	4.0951	-0.6153	25.92	-0.05	-0.750			
0.0298	1904.92	4.0920	4.0919	-0.6213	25.92	-0.05	-0.750			
0.0316	2023.77	4.0890	4.0889	-0.6255	25.92	-0.05	-0.750			
0.0335	2143.23	4.0860	4.0860	-0.6304	25.92	-0.05	-0.750			
0.0354	2264.56	4.0830	4.0830	-0.6377	25.91	-0.06	-0.750			
0.0373	2389.83	4.0800	4.0800	-0.6491	25.91	-0.06	-0.750			
0.0393	2515.92	4.0770	4.0769	-0.6534	25.91	-0.06	-0.750			
0.0413	2640.39	4.0740	4.0742	-0.6589	25.91	-0.06	-0.750			
0.0432	2766.91	4.0710	4.0709	-0.6659	25.91	-0.06	-0.750			
0.0453	2897.43	4.0680	4.0680	-0.6666	25.91	-0.06	-0.750			
0.0473	3025.90	4.0650	4.0650	-0.6727	25.91	-0.06	-0.750			
0.0493	3157.31	4.0620	4.0620	-0.6768	25.91	-0.06	-0.750			
0.0513	3285.82	4.0590	4.0590	-0.6775	25.91	-0.06	-0.750			
0.0534	3415.82	4.0560	4.0560	-0.6813	25.91	-0.06	-0.750			
0.0554	3546.00	4.0530	4.0529	-0.6821	25.91	-0.06	-0.750			
0.0575	3677.12	4.0500	4.0500	-0.6850	25.91	-0.06	-0.750			
0.0595	3810.42	4.0470	4.0470	-0.6908	25.91	-0.06	-0.750			
0.0616	3942.37	4.0440	4.0441	-0.6890	25.91	-0.06	-0.750			
0.0637	4077.48	4.0410	4.0409	-0.6942	25.91	-0.06	-0.750			
0.0658	4209.83	4.0380	4.0379	-0.6948	25.91	-0.06	-0.750			
0.0679	4342.77	4.0350	4.0349	-0.6975	25.91	-0.06	-0.750			
0.0700	4477.31	4.0320	4.0320	-0.7006	25.91	-0.06	-0.750			
0.0721	4611.84	4.0290	4.0290	-0.7051	25.91	-0.06	-0.750			
0.0742	4747.25	4.0260	4.0261	-0.7086	25.90	-0.07	-0.750			
0.0764	4886.99	4.0230	4.0229	-0.7023	25.90	-0.07	-0.750			
0.0785	5021.13	4.0200	4.0200	-0.6968	25.90	-0.07	-0.750			
0.0805	5152.54	4.0170	4.0172	-0.6958	25.90	-0.07	-0.750			
0.0826	5284.80	4.0140	4.0139	-0.6981	25.90	-0.07	-0.750			
0.0847	5418.48	4.0110	4.0109	-0.7016	25.90	-0.07	-0.750			
0.0868	5553.85	4.0080	4.0078	-0.7028	25.91	-0.06	-0.750			
0.0889	5690.55	4.0050	4.0051	-0.7099	25.91	-0.06	-0.750			
0.0911	5828.84	4.0020	4.0023	-0.7171	25.91	-0.06	-0.750			
0.0932	5966.19	3.9990	3.9989	-0.7165	25.91	-0.06	-0.750			
0.0954	6103.26	3.9960	3.9960	-0.7188	25.91	-0.06	-0.750			
0.0975	6240.98	3.9930	3.9930	-0.7205	25.91	-0.06	-0.750			
0.0997	6382.36	3.9900	3.9900	-0.7288	25.91	-0.06	-0.750			
0.1019	6521.87	3.9870	3.9870	-0.7273	25.91	-0.06	-0.750			
0.1041	6659.90	3.9840	3.9842	-0.7297	25.91	-0.06	-0.750			
0.1062	6799.08	3.9810	3.9810	-0.7353	25.91	-0.06	-0.750			
0.1085	6941.64	3.9780	3.9779	-0.7281	25.91	-0.06	-0.750			
0.1107	7081.92	3.9750	3.9749	-0.7232	25.92	-0.05	-0.750			
0.1129	7224.55	3.9720	3.9722	-0.7258	25.92	-0.05	-0.750			
0.1150	7357.84	3.9690	3.9689	-0.7277	25.92	-0.05	-0.750			
0.1171	7494.72	3.9660	3.9661	-0.7334	25.92	-0.05	-0.750			
0.1193	7635.72	3.9630	3.9628	-0.7396	25.92	-0.05	-0.750			
0.1215	7777.33	3.9600	3.9599	-0.7489	25.92	-0.05	-0.750			
0.1238	7926.24	3.9570	3.9572	-0.7590	25.93	-0.04	-0.750			
0.1262	8073.74	3.9540	3.9540	-0.7595	25.93	-0.04	-0.750			
0.1284	8219.99	3.9510	3.9510	-0.7690	25.93	-0.04	-0.750			
0.1307	8365.00	3.9480	3.9480	-0.7725	25.93	-0.04	-0.750			
0.1330	8513.19	3.9450	3.9448	-0.7804	25.94	-0.03	-0.750			
0.1354	8667.71	3.9420	3.9420	-0.7889	25.94	-0.03	-0.750			
0.1378	8820.64	3.9390	3.9390	-0.7837	25.94	-0.03	-0.750			
0.1402	8975.08	3.9360	3.9361	-0.7866	25.95	-0.02	-0.750			
0.1426	9124.19	3.9330	3.9329	-0.7831	25.95	-0.02	-0.750			
0.1448	9270.15	3.9300	3.9299	-0.7701	25.96	-0.01	-0.750			
0.1472	9417.94	3.9270	3.9269	-0.7693	25.96	-0.01	-0.750			
0.1494	9564.15	3.9240	3.9241	-0.7624	25.96	-0.01	-0.750			
0.1518	9712.79	3.9210	3.9211	-0.7720	25.97	-0.00	-0.750			
0.1541	9859.95	3.9180	3.9181	-0.7741	25.97	0.00	-0.750			
0.1564	10007.17	3.9150	3.9149	-0.7747	25.97	0.00	-0.750			
0.1587	10157.04	3.9120	3.9119	-0.7812	25.97	0.00	-0.750			
0.1611	10308.88	3.9090	3.9090	-0.7840	25.98	0.01	-0.750			
0.1635	10462.39	3.9060	3.9060	-0.7846	25.98	0.01	-0.750			
0.1658	10613.35	3.9030	3.9032	-0.7822	25.98	0.01	-0.750			
0.1681	10761.02	3.9000	3.8999	-0.7756	25.98	0.01	-0.750			
0.1705	10909.33	3.8970	3.8969	-0.7777	25.98	0.01	-0.750			
0.1727	11055.97	3.8940	3.8941	-0.7786	25.99	0.02	-0.750			
0.1751	11205.43	3.8910	3.8910	-0.7847	25.99	0.02	-0.750			
0.1775	11358.78	3.8880	3.8879	-0.7966	25.99	0.02	-0.750			
0.1799	11513.15	3.8850	3.8849	-0.8002	25.99	0.02	-0.750			
0.1823	11668.10	3.8820	3.8820	-0.8003	26.00	0.03	-0.750			
0.1847	11822.64	3.8790	3.8790	-0.8015	26.00	0.03	-0.750			
0.1871	11977.33	3.8760	3.8760	-0.7997	26.00	0.03	-0.750			
0.1895	12131.08	3.8730	3.8730	-0.7965	26.01	0.04	-0.750			
0.1919	12282.49	3.8700	3.8700	-0.7889	26.01	0.04	-0.750			
0.1942	12431.88	3.8670	3.8671	-0.7874	26.01	0.04	-0.750			
0.1966	12583.05	3.8640	3.8640	-0.7965	26.01	0.04	-0.750			
0.1990	12736.82	3.8610	3.8606	-0.7939	26.02	0.05	-0.750			
0.2014	12889.05	3.8580	3.8580	-0.7947	26.02	0.05	-0.750			
0.2038	13042.90	3.8550	3.8554	-0.7947	26.02	0.05	-0.750			
0.2062	13195.96	3.8520	3.8519	-0.8040	26.02	0.05	-0.750			
0.2086	13350.55	3.8490	3.8490	-0.8162	26.02	0.05	-0.750			
0.2110	13505.87	3.8460	3.8459	-0.8109	26.03	0.06	-0.750			
0.2135	13665.65	3.8430	3.8428	-0.8207	26.03	0.06	-0.750			
0.2160	13825.18	3.8400	3.8403	-0.8144	26.03	0.06	-0.750			
0.2185	13981.98	3.8370	3.8370	-0.8092	26.03	0.06	-0.750			
0.2209	14136.36	3.8340	3.8339	-0.7995	26.04	0.07	-0.750			
0.2232	14284.61	3.8310	3.8310	-0.7831	26.04	0.07	-0.750			
0.2255	14434.29	3.8280	3.8281	-0.7851	26.04	0.07	-0.750			
0.2279	14585.13	3.8250	3.8251	-0.7851	26.05	0.08	-0.750			
0.2303	14736.14	3.8220	3.8219	-0.7817	26.05	0.08	-0.750			
0.2326	14886.01	3.8190	3.8190	-0.7790	26.06	0.09	-0.750			
0.2349	15034.42	3.8160	3.8161	-0.7772	26.06	0.09	-0.750			
0.2372	15183.23	3.8130	3.8130	-0.7784	26.06	0.09	-0.750			
0.2396	15332.80	3.8100	3.8098	-0.7755	26.07	0.10	-0.750			
0.2419	15481.95	3.8070	3.8071	-0.7730	26.07	0.10	-0.750			
0.2442	15629.94	3.8040	3.8040	-0.7726	26.07	0.10	-0.750			
0.2466	15780.31	3.8010	3.8010	-0.7725	26.07	0.10	-0.750			
0.2489	15927.14	3.7980	3.7981	-0.7625	26.08	0.11	-0.750			
0.2512	16073.89	3.7950	3.7949	-0.7579	26.08	0.11	-0.750			
0.2534	16218.28	3.7920	3.7920	-0.7544	26.08	0.11	-0.750			
0.2557	16364.00	3.7890	3.7890	-0.7507	26.08	0.11	-0.750			
0.2579	16507.37	3.7860	3.7859	-0.7466	26.09	0.12	-0.750			
0.2602	16649.95	3.7830	3.7830	-0.7426	26.10	0.13	-0.750			
0.2624	16790.95	3.7800	3.7801	-0.7421	26.10	0.13	-0.750			
0.2646	16935.12	3.7770	3.7769	-0.7400	26.11	0.14	-0.750			
0.2668	17076.69	3.7740	3.7740	-0.7353	26.11	0.14	-0.750			
0.2690	17216.80	3.7710	3.7711	-0.7309	26.11	0.14	-0.750			
0.2712	17356.72	3.7680	3.7680	-0.7320	26.11	0.14	-0.750			
0.2734	17495.90	3.7650	3.7649	-0.7305	26.11	0.14	-0.750			
0.2756	17637.26	3.7620	3.7620	-0.7353	26.11	0.14	-0.750			
0.2778	17777.53	3.7590	3.7589	-0.7357	26.11	0.14	-0.750			
0.2800	17920.58	3.7560	3.7561	-0.7403	26.11	0.14	-0.750			
0.2822	18062.35	3.7530	3.7530	-0.7457	26.12	0.15	-0.750			
0.2845	18205.65	3.7500	3.7499	-0.7539	26.12	0.15	-0.750			
0.2867	18351.34	3.7470	3.7470	-0.7508	26.12	0.15	-0.750			
0.2890	18497.11	3.7440	3.7440	-0.7546	26.13	0.16	-0.750			
0.2913	18642.19	3.7410	3.7414	-0.7637	26.13	0.16	-0.750			
0.2936	18788.94	3.7380	3.7378	-0.7705	26.13	0.16	-0.750			
0.2959	18935.63	3.7350	3.7349	-0.7763	26.13	0.16	-0.750			
0.2982	19083.89	3.7320	3.7320	-0.7856	26.13	0.16	-0.750			
0.3006	19236.87	3.7290	3.7291	-0.8047	26.13	0.16	-0.750			
0.3030	19392.69	3.7260	3.7259	-0.8200	26.13	0.16	-0.750			
0.3055	19550.97	3.7230	3.7229	-0.8316	26.13	0.16	-0.750			
0.3080	19713.01	3.7200	3.7200	-0.8409	26.13	0.16	-0.750			
0.3106	19877.62	3.7170	3.7170	-0.8500	26.13	0.16	-0.750			
0.3131	20039.40	3.7140	3.7141	-0.8719	26.13	0.16	-0.750			
0.3157	20207.22	3.7110	3.7111	-0.8881	26.13	0.16	-0.750			
0.3184	20377.54	3.7080	3.7077	-0.9110	26.13	0.16	-0.750			
0.3212	20555.10	3.7050	3.7051	-0.9259	26.13	0.16	-0.750			
0.3240	20736.83	3.7020	3.7020	-0.9446	26.13	0.16	-0.750			
0.3269	20920.92	3.6990	3.6990	-0.9625	26.13	0.16	-0.750			
0.3298	21109.98	3.6960	3.6960	-0.9784	26.13	0.16	-0.750			
0.3328	21296.59	3.6930	3.6929	-0.9884	26.13	0.16	-0.750			
0.3358	21488.49	3.6900	3.6900	-1.0003	26.13	0.16	-0.750			
0.3388	21680.39	3.6870	3.6870	-1.0115	26.13	0.16	-0.750			
0.3418	21876.96	3.6840	3.6841	-1.0415	26.13	0.16	-0.750			
0.3450	22080.55	3.6810	3.6809	-1.0532	26.12	0.15	-0.750			
0.3482	22282.59	3.6780	3.6779	-1.0690	26.11	0.14	-0.750			
0.3514	22489.21	3.6750	3.6751	-1.0892	26.11	0.14	-0.750			
0.3547	22700.69	3.6720	3.6721	-1.1232	26.10	0.13	-0.750			
0.3581	22919.30	3.6690	3.6688	-1.1423	26.10	0.13	-0.750			
0.3616	23139.61	3.6660	3.6660	-1.1615	26.09	0.12	-0.750			
0.3651	23364.38	3.6630	3.6629	-1.1853	26.09	0.12	-0.750			
0.3687	23596.75	3.6600	3.6600	-1.2099	26.09	0.12	-0.750			
0.3723	23828.52	3.6570	3.6570	-1.2320	26.08	0.11	-0.750			
0.3760	24066.92	3.6540	3.6540	-1.2550	26.07	0.10	-0.750			
0.3798	24309.36	3.6510	3.6510	-1.2761	26.07	0.10	-0.750			
0.3838	24565.95	3.6480	3.6480	-1.2975	26.06	0.09	-0.750			
0.3876	24809.14	3.6450	3.6451	-1.3354	26.06	0.09	-0.750			
0.3917	25069.25	3.6420	3.6421	-1.3557	26.05	0.08	-0.750			
0.3958	25333.45	3.6390	3.6390	-1.3835	26.04	0.07	-0.750			
0.4000	25600.04	3.6360	3.6358	-1.4083	26.04	0.07	-0.750			
0.4043	25875.75	3.6330	3.6332	-1.4351	26.03	0.06	-0.750			
0.4086	26152.76	3.6300	3.6302	-1.4755	26.02	0.05	-0.750			
0.4131	26439.05	3.6270	3.6268	-1.4991	26.01	0.04	-0.750			
0.4176	26725.17	3.6240	3.6241	-1.5063	26.00	0.03	-0.750			
0.4222	27019.83	3.6210	3.6209	-1.5493	26.00	0.03	-0.750			
0.4269	27321.71	3.6180	3.6180	-1.5869	25.99	0.02	-0.750			
0.4317	27627.27	3.6150	3.6148	-1.6014	25.99	0.02	-0.750	0.411	0.561	
0.4365	27938.70	3.6120	3.6117	-1.6403	25.98	0.01	-0.750			
0.4414	28252.36	3.6090	3.6094	-1.6771	25.97	-0.00	-0.750			
0.4466	28584.28	3.6060	3.6060	-1.7124	25.97	-0.00	-0.750			
0.4518	28918.08	3.6030	3.6030	-1.7457	25.96	-0.01	-0.750			
0.4570	29249.86	3.6000	3.6001	-1.7741	25.96	-0.01	-0.750			
0.4626	29605.47	3.5970	3.5968	-1.8074	25.95	-0.02	-0.750			
0.4679	29947.12	3.5940	3.5942	-1.8503	25.95	-0.02	-0.750			
0.4736	30308.13	3.5910	3.5909	-1.8737	25.94	-0.03	-0.750			
0.4792	30668.44	3.5880	3.5881	-1.9065	25.93	-0.04	-0.750			
0.4849	31036.38	3.5850	3.5851	-1.9431	25.93	-0.04	-0.750			
0.4908	31412.01	3.5820	3.5819	-1.9846	25.93	-0.04	-0.750			
0.4969	31802.54	3.5790	3.5791	-2.0264	25.92	-0.05	-0.750			
0.5030	32194.46	3.5760	3.5760	-2.0778	25.91	-0.06	-0.750			
0.5093	32598.38	3.5730	3.5729	-2.0800	25.91	-0.06	-0.750			
0.5158	33009.33	3.5700	3.5701	-2.1206	25.91	-0.06	-0.750			
0.5222	33418.34	3.5670	3.5671	-2.1271	25.91	-0.06	-0.750			
0.5285	33826.13	3.5640	3.5637	-2.1244	25.91	-0.06	-0.750			
0.5348	34228.78	3.5610	3.5611	-2.1392	25.91	-0.06	-0.750			
0.5413	34644.04	3.5580	3.5579	-2.1414	25.90	-0.07	-0.750			
0.5477	35055.16	3.5550	3.5549	-2.1479	25.90	-0.07	-0.750			
0.5543	35473.65	3.5520	3.5521	-2.1465	25.90	-0.07	-0.750			
0.5608	35890.65	3.5490	3.5489	-2.1233	25.89	-0.08	-0.750			
0.5671	36294.44	3.5460	3.5461	-2.1287	25.89	-0.08	-0.750			
0.5735	36702.09	3.5430	3.5429	-2.0973	25.90	-0.07	-0.750			
0.5798	37106.13	3.5400	3.5399	-2.0871	25.90	-0.07	-0.750			
0.5860	37506.75	3.5370	3.5370	-2.0727	25.90	-0.07	-0.750			
0.5922	37902.42	3.5340	3.5342	-2.0547	25.90	-0.07	-0.750			
0.5984	38295.87	3.5310	3.5312	-2.0195	25.91	-0.06	-0.750			
0.6044	38679.71	3.5280	3.5280	-1.9828	25.91	-0.06	-0.750			
0.6104	39065.14	3.5250	3.5248	-1.9594	25.92	-0.05	-0.750			
0.6162	39438.57	3.5220	3.5222	-1.9263	25.92	-0.05	-0.750			
0.6219	39800.49	3.5190	3.5189	-1.9031	25.93	-0.04	-0.750			
0.6276	40168.45	3.5160	3.5161	-1.8434	25.95	-0.02	-0.750			
0.6331	40519.43	3.5130	3.5130	-1.7796	25.95	-0.02	-0.750			
0.6385	40863.86	3.5100	3.5100	-1.7516	25.96	-0.01	-0.750			
0.6436	41188.49	3.5070	3.5068	-1.6905	25.97	-0.00	-0.750			
0.6485	41507.00	3.5040	3.5039	-1.6528	25.98	0.01	-0.750			
0.6534	41818.44	3.5010	3.5011	-1.6045	25.99	0.02	-0.750			
0.6582	42126.86	3.4980	3.4980	-1.5552	26.00	0.03	-0.750			
0.6629	42428.25	3.4950	3.4949	-1.5061	26.02	0.05	-0.750			
0.6673	42710.35	3.4920	3.4920	-1.4540	26.03	0.06	-0.750			
0.6715	42978.97	3.4890	3.4890	-1.4010	26.05	0.08	-0.750			
0.6756	43240.81	3.4860	3.4859	-1.3510	26.06	0.09	-0.750			
0.6796	43494.45	3.4830	3.4831	-1.3103	26.07	0.10	-0.750			
0.6835	43746.35	3.4800	3.4800	-1.2791	26.09	0.12	-0.750			
0.6873	43987.60	3.4770	3.4770	-1.2379	26.10	0.13	-0.750			
0.6910	44220.91	3.4740	3.4739	-1.1965	26.11	0.14	-0.750			
0.6945	44445.92	3.4710	3.4710	-1.1585	26.12	0.15	-0.750			
0.6979	44664.48	3.4680	3.4680	-1.1251	26.13	0.16	-0.750			
0.7012	44877.46	3.4650	3.4650	-1.0927	26.14	0.17	-0.750			
0.7044	45083.46	3.4620	3.4620	-1.0551	26.15	0.18	-0.750			
0.7075	45283.20	3.4590	3.4590	-1.0245	26.17	0.20	-0.750			
0.7106	45476.32	3.4560	3.4560	-0.9932	26.18	0.21	-0.750			
0.7135	45662.89	3.4530	3.4530	-0.9635	26.20	0.23	-0.750			
0.7163	45845.69	3.4500	3.4501	-0.9376	26.21	0.24	-0.750			
0.7191	46020.75	3.4470	3.4470	-0.9124	26.22	0.25	-0.750			
0.7218	46192.64	3.4440	3.4440	-0.8921	26.23	0.26	-0.750			
0.7244	46362.07	3.4410	3.4409	-0.8749	26.24	0.27	-0.750			
0.7270	46527.68	3.4380	3.4379	-0.8597	26.25	0.28	-0.750			
0.7295	46690.16	3.4350	3.4352	-0.8481	26.26	0.29	-0.750			
0.7320	46849.80	3.4320	3.4320	-0.8459	26.27	0.30	-0.750			
0.7346	47011.52	3.4290	3.4290	-0.8490	26.28	0.31	-0.750			
0.7371	47171.73	3.4260	3.4259	-0.8494	26.29	0.32	-0.750			
0.7396	47335.46	3.4230	3.4229	-0.8636	26.30	0.33	-0.750			
0.7422	47502.33	3.4200	3.4201	-0.8803	26.31	0.34	-0.750			
0.7449	47673.57	3.4170	3.4169	-0.8917	26.32	0.35	-0.750			
0.7476	47846.44	3.4140	3.4139	-0.9015	26.33	0.36	-0.750			
0.7503	48021.07	3.4110	3.4111	-0.9023	26.33	0.36	-0.750			
0.7531	48197.13	3.4080	3.4080	-0.9103	26.34	0.37	-0.750			
0.7558	48373.03	3.4050	3.4051	-0.9140	26.35	0.38	-0.750			
0.7586	48549.48	3.4020	3.4019	-0.9059	26.35	0.38	-0.750			
0.7613	48724.42	3.3990	3.3989	-0.8892	26.36	0.39	-0.750			
0.7640	48895.93	3.3960	3.3960	-0.8715	26.36	0.39	-0.750			
0.7666	49062.57	3.3930	3.3931	-0.8488	26.37	0.40	-0.750			
0.7691	49223.77	3.3900	3.3899	-0.8192	26.38	0.41	-0.750			
0.7715	49377.69	3.3870	3.3870	-0.7819	26.39	0.42	-0.750			
0.7738	49523.15	3.3840	3.3841	-0.7515	26.40	0.43	-0.750			
0.7760	49663.97	3.3810	3.3811	-0.7275	26.41	0.44	-0.750			
0.7781	49799.36	3.3780	3.3778	-0.7053	26.42	0.45	-0.750			
0.7802	49929.92	3.3750	3.3749	-0.6808	26.42	0.45	-0.750			
0.7822	50059.12	3.3720	3.3719	-0.6603	26.43	0.46	-0.750			
0.7841	50183.63	3.3690	3.3692	-0.6505	26.44	0.47	-0.750			
0.7861	50309.80	3.3660	3.3659	-0.6325	26.44	0.47	-0.750			
0.7880	50429.26	3.3630	3.3632	-0.6137	26.45	0.48	-0.750			
0.7898	50546.02	3.3600	3.3599	-0.5950	26.46	0.49	-0.750			
0.7915	50657.61	3.3570	3.3572	-0.5719	26.46	0.49	-0.750			
0.7932	50766.02	3.3540	3.3538	-0.5582	26.47	0.50	-0.750			
0.7948	50869.97	3.3510	3.3510	-0.5399	26.47	0.50	-0.750			
0.7964	50969.11	3.3480	3.3481	-0.5198	26.48	0.51	-0.750			
0.7980	51070.55	3.3450	3.3450	-0.5064	26.48	0.51	-0.750			
0.7995	51166.60	3.3420	3.3420	-0.4865	26.49	0.52	-0.750			
0.8009	51258.99	3.3390	3.3390	-0.4692	26.49	0.52	-0.750			
0.8023	51346.32	3.3360	3.3359	-0.4499	26.50	0.53	-0.750			
0.8036	51429.16	3.3330	3.3331	-0.4306	26.50	0.53	-0.750			
0.8049	51510.71	3.3300	3.3300	-0.4181	26.50	0.53	-0.750			
0.8061	51588.61	3.3270	3.3270	-0.4059	26.51	0.54	-0.750			
0.8073	51665.92	3.3240	3.3240	-0.3939	26.51	0.54	-0.750			
0.8084	51739.88	3.3210	3.3210	-0.3813	26.52	0.55	-0.750			
0.8096	51811.82	3.3180	3.3181	-0.3710	26.52	0.55	-0.750			
0.8107	51882.09	3.3150	3.3148	-0.3620	26.53	0.56	-0.750			
0.8117	51950.34	3.3120	3.3120	-0.3524	26.53	0.56	-0.750			
0.8128	52017.14	3.3090	3.3090	-0.3447	26.54	0.57	-0.750			
0.8138	52082.33	3.3060	3.3060	-0.3369	26.54	0.57	-0.750			
0.8148	52147.10	3.3030	3.3030	-0.3299	26.54	0.57	-0.750			
0.8158	52209.28	3.3000	3.3000	-0.3211	26.55	0.58	-0.750			
0.8167	52270.09	3.2970	3.2969	-0.3119	26.55	0.58	-0.750			
0.8176	52329.01	3.2940	3.2940	-0.3038	26.56	0.59	-0.750			
0.8185	52386.40	3.2910	3.2910	-0.2963	26.56	0.59	-0.750			
0.8194	52441.63	3.2880	3.2881	-0.2895	26.57	0.60	-0.750			
0.8203	52496.49	3.2850	3.2849	-0.2852	26.57	0.60	-0.750			
0.8211	52551.57	3.2820	3.2820	-0.2805	26.58	0.61	-0.750			
0.8220	52605.06	3.2790	3.2787	-0.2749	26.58	0.61	-0.750			
0.8228	52657.60	3.2760	3.2760	-0.2699	26.59	0.62	-0.750			
0.8236	52709.27	3.2730	3.2731	-0.2649	26.59	0.62	-0.750			
0.8244	52759.37	3.2700	3.2699	-0.2593	26.60	0.63	-0.750			
0.8251	52808.48	3.2670	3.2670	-0.2544	26.60	0.63	-0.750			
0.8259	52855.83	3.2640	3.2639	-0.2495	26.60	0.63	-0.750			
0.8266	52903.87	3.2610	3.2610	-0.2454	26.61	0.64	-0.750			
0.8274	52951.14	3.2580	3.2580	-0.2420	26.61	0.64	-0.750			
0.8281	52997.12	3.2550	3.2549	-0.2372	26.62	0.65	-0.750			
0.8288	53041.93	3.2520	3.2521	-0.2330	26.62	0.65	-0.750			
0.8295	53086.08	3.2490	3.2490	-0.2293	26.63	0.66	-0.750			
0.8302	53129.75	3.2460	3.2459	-0.2257	26.63	0.66	-0.750			
0.8308	53172.46	3.2430	3.2429	-0.2224	26.64	0.67	-0.750			
0.8315	53214.54	3.2400	3.2400	-0.2193	26.65	0.68	-0.750			
0.8321	53256.47	3.2370	3.2370	-0.2182	26.65	0.68	-0.750			
0.8328	53298.17	3.2340	3.2341	-0.2162	26.66	0.69	-0.750			
0.8334	53339.48	3.2310	3.2308	-0.2130	26.67	0.70	-0.750			
0.8341	53380.13	3.2280	3.2280	-0.2105	26.67	0.70	-0.750			
0.8347	53420.76	3.2250	3.2251	-0.2074	26.68	0.71	-0.750			
0.8353	53460.24	3.2220	3.2221	-0.2038	26.68	0.71	-0.750			
0.8359	53499.22	3.2190	3.2188	-0.2009	26.69	0.72	-0.750			
0.8365	53536.95	3.2160	3.2161	-0.1987	26.69	0.72	-0.750			
0.8371	53574.26	3.2130	3.2130	-0.1957	26.70	0.73	-0.750			
0.8377	53611.88	3.2100	3.2100	-0.1935	26.71	0.74	-0.750			
0.8383	53648.93	3.2070	3.2069	-0.1919	26.71	0.74	-0.750			
0.8388	53685.75	3.2040	3.2040	-0.1891	26.72	0.75	-0.750			
0.8394	53722.08	3.2010	3.2012	-0.1880	26.72	0.75	-0.750			
0.8400	53757.91	3.1980	3.1979	-0.1852	26.72	0.75	-0.750			
0.8405	53793.01	3.1950	3.1951	-0.1828	26.73	0.76	-0.750			
0.8411	53827.40	3.1920	3.1920	-0.1803	26.73	0.76	-0.750			
0.8416	53861.99	3.1890	3.1888	-0.1792	26.74	0.77	-0.750			
0.8421	53896.33	3.1860	3.1860	-0.1775	26.74	0.77	-0.750			
0.8427	53930.27	3.1830	3.1830	-0.1750	26.75	0.78	-0.750			
0.8432	53964.05	3.1800	3.1800	-0.1737	26.75	0.78	-0.750			
0.8437	53997.13	3.1770	3.1770	-0.1710	26.76	0.79	-0.750			
0.8442	54029.47	3.1740	3.1740	-0.1695	26.76	0.79	-0.750			
0.8447	54061.64	3.1710	3.1710	-0.1678	26.77	0.80	-0.750			
0.8452	54093.78	3.1680	3.1679	-0.1656	26.77	0.80	-0.750			
0.8457	54125.45	3.1650	3.1650	-0.1642	26.78	0.81	-0.750			
0.8462	54156.89	3.1620	3.1621	-0.1630	26.79	0.82	-0.750			
0.8467	54188.07	3.1590	3.1590	-0.1623	26.79	0.82	-0.750			
0.8472	54219.04	3.1560	3.1559	-0.1609	26.80	0.83	-0.750			
0.8477	54249.96	3.1530	3.1530	-0.1584	26.80	0.83	-0.750			
0.8481	54279.96	3.1500	3.1500	-0.1566	26.81	0.84	-0.750			
0.8486	54310.01	3.1470	3.1471	-0.1550	26.81	0.84	-0.750			
0.8491	54339.88	3.1440	3.1440	-0.1538	26.82	0.85	-0.750			
0.8495	54369.02	3.1410	3.1408	-0.1521	26.82	0.85	-0.750			
0.8500	54397.69	3.1380	3.1380	-0.1504	26.83	0.86	-0.750			
0.8504	54426.17	3.1350	3.1351	-0.1491	26.83	0.86	-0.750			
0.8509	54454.80	3.1320	3.1319	-0.1483	26.84	0.87	-0.750			
0.8513	54483.46	3.1290	3.1290	-0.1476	26.84	0.87	-0.750			
0.8517	54511.56	3.1260	3.1261	-0.1462	26.85	0.88	-0.750			
0.8522	54539.55	3.1230	3.1229	-0.1453	26.85	0.88	-0.750			
0.8526	54567.57	3.1200	3.1200	-0.1439	26.86	0.89	-0.750			
0.8530	54595.02	3.1170	3.1170	-0.1425	26.86	0.89	-0.750			
0.8535	54622.19	3.1140	3.1141	-0.1413	26.87	0.90	-0.750			
0.8539	54649.20	3.1110	3.1108	-0.1401	26.87	0.90	-0.750			
0.8543	54675.94	3.1080	3.1080	-0.1388	26.88	0.91	-0.750			
0.8547	54702.29	3.1050	3.1050	-0.1381	26.89	0.92	-0.750			
0.8551	54728.60	3.1020	3.1020	-0.1373	26.89	0.92	-0.750			
0.8555	54755.06	3.0990	3.0991	-0.1357	26.90	0.93	-0.750			
0.8560	54781.15	3.0960	3.0960	-0.1347	26.90	0.93	-0.750			
0.8564	54806.72	3.0930	3.0931	-0.1338	26.91	0.94	-0.750			
0.8568	54832.26	3.0900	3.0901	-0.1328	26.91	0.94	-0.750			
0.8572	54857.78	3.0870	3.0868	-0.1317	26.92	0.95	-0.750			
0.8575	54882.95	3.0840	3.0840	-0.1306	26.93	0.96	-0.750			
0.8579	54907.81	3.0810	3.0812	-0.1293	26.93	0.96	-0.750			
0.8583	54932.57	3.0780	3.0780	-0.1286	26.94	0.97	-0.750			
0.8587	54957.44	3.0750	3.0750	-0.1281	26.94	0.97	-0.750			
0.8591	54981.83	3.0720	3.0720	-0.1268	26.95	0.98	-0.750			
0.8595	55006.19	3.0690	3.0690	-0.1254	26.95	0.98	-0.750			
0.8598	55030.03	3.0660	3.0660	-0.1240	26.96	0.99	-0.750			
0.8602	55053.67	3.0630	3.0631	-0.1233	26.96	0.99	-0.750			
0.8606	55077.39	3.0600	3.0600	-0.1225	26.97	1.00	-0.750			
0.8609	55100.67	3.0570	3.0570	-0.1224	26.97	1.00	-0.750			
0.8613	55123.82	3.0540	3.0539	-0.1217	26.98	1.01	-0.750			
0.8617	55147.17	3.0510	3.0510	-0.1217	26.98	1.01	-0.750			
0.8620	55170.55	3.0480	3.0480	-0.1208	26.99	1.02	-0.750			
0.8624	55194.02	3.0450	3.0448	-0.1212	26.99	1.02	-0.750			
0.8628	55217.31	3.0420	3.0421	-0.1200	27.00	1.03	-0.750			
0.8631	55240.25	3.0390	3.0390	-0.1189	27.00	1.03	-0.750			
0.8635	55263.07	3.0360	3.0360	-0.1181	27.01	1.04	-0.750			
0.8638	55285.53	3.0330	3.0331	-0.1167	27.01	1.04	-0.750			
0.8642	55307.69	3.0300	3.0300	-0.1160	27.01	1.04	-0.750			
0.8645	55329.71	3.0270	3.0270	-0.1150	27.02	1.05	-0.750			
0.8649	55351.71	3.0240	3.0240	-0.1147	27.02	1.05	-0.750			
0.8652	55373.57	3.0210	3.0211	-0.1142	27.03	1.06	-0.750			
0.8656	55395.61	3.0180	3.0179	-0.1135	27.03	1.06	-0.750			
0.8659	55417.49	3.0150	3.0150	-0.1131	27.04	1.07	-0.750			
0.8662	55439.13	3.0120	3.0120	-0.1123	27.04	1.07	-0.750			
0.8666	55460.77	3.0090	3.0090	-0.1114	27.05	1.08	-0.751			
0.8669	55482.05	3.0060	3.0061	-0.1103	27.05	1.08	-0.751			
0.8672	55503.06	3.0030	3.0030	-0.1077	27.05	1.08	-0.751			
