Ah_balance (normalized)	Ah_balance (mAh)	Voltage - fit (V)	Voltage -  interpolate (V)	dQ/dV (1/V)	Temperature (°C)	Temperature - diff (°C)	Current (C)	R_DC 0ms (mOhm)	R_DC 50ms (mOhm)	R_DC 50 ms PEC (mOhm)
0.0551	3528.76	4.1980	4.1980	0.7461	26.60	0.63	0.750			
0.0574	3675.94	4.1950	4.1949	0.7657	26.60	0.63	0.750			
0.0597	3817.70	4.1920	4.1920	0.7508	26.60	0.63	0.750			
0.0619	3962.01	4.1890	4.1891	0.7499	26.60	0.63	0.750			
0.0641	4105.57	4.1860	4.1860	0.7482	26.60	0.63	0.750			
0.0664	4249.77	4.1830	4.1831	0.7503	26.60	0.63	0.750			
0.0686	4393.14	4.1800	4.1800	0.7495	26.60	0.63	0.750			
0.0709	4536.37	4.1770	4.1770	0.7467	26.60	0.63	0.750			
0.0731	4681.12	4.1740	4.1742	0.7530	26.60	0.63	0.750			
0.0754	4822.48	4.1710	4.1710	0.7529	26.60	0.63	0.750			
0.0776	4969.12	4.1680	4.1677	0.7568	26.60	0.63	0.750			
0.0799	5114.59	4.1650	4.1650	0.7612	26.60	0.63	0.750			
0.0822	5262.31	4.1620	4.1621	0.7587	26.60	0.63	0.750			
0.0845	5410.10	4.1590	4.1591	0.7644	26.60	0.63	0.750			
0.0868	5555.69	4.1560	4.1560	0.7593	26.60	0.63	0.750			
0.0891	5700.98	4.1530	4.1530	0.7603	26.60	0.63	0.750			
0.0914	5847.00	4.1500	4.1501	0.7635	26.60	0.63	0.750			
0.0937	5996.17	4.1470	4.1470	0.7649	26.59	0.62	0.750			
0.0960	6141.22	4.1440	4.1441	0.7640	26.59	0.62	0.750			
0.0983	6290.39	4.1410	4.1409	0.7700	26.59	0.62	0.750			
0.1006	6436.08	4.1380	4.1381	0.7641	26.58	0.61	0.750			
0.1028	6581.89	4.1350	4.1350	0.7668	26.58	0.61	0.750			
0.1051	6728.28	4.1320	4.1321	0.7719	26.58	0.61	0.750			
0.1075	6878.72	4.1290	4.1290	0.7719	26.58	0.61	0.750			
0.1098	7026.86	4.1260	4.1260	0.7780	26.58	0.61	0.750			
0.1121	7175.32	4.1230	4.1231	0.7814	26.58	0.61	0.750			
0.1145	7327.86	4.1200	4.1199	0.7845	26.58	0.61	0.750			
0.1169	7480.30	4.1170	4.1169	0.7824	26.58	0.61	0.750			
0.1192	7630.70	4.1140	4.1141	0.7756	26.58	0.61	0.750			
0.1215	7778.12	4.1110	4.1112	0.7784	26.58	0.61	0.750			
0.1239	7928.27	4.1080	4.1079	0.7804	26.58	0.61	0.750			
0.1262	8074.86	4.1050	4.1049	0.7732	26.58	0.61	0.750			
0.1285	8223.84	4.1020	4.1021	0.7771	26.58	0.61	0.750			
0.1309	8374.92	4.0990	4.0990	0.7872	26.58	0.61	0.750			
0.1332	8526.35	4.0960	4.0960	0.7900	26.58	0.61	0.750			
0.1356	8676.86	4.0930	4.0930	0.7975	26.58	0.61	0.750			
0.1380	8829.61	4.0900	4.0901	0.7980	26.58	0.61	0.750			
0.1404	8985.98	4.0870	4.0871	0.8016	26.58	0.61	0.750			
0.1428	9140.93	4.0840	4.0840	0.8018	26.58	0.61	0.750			
0.1452	9294.71	4.0810	4.0812	0.7990	26.58	0.61	0.750			
0.1476	9445.36	4.0780	4.0780	0.7997	26.59	0.62	0.750			
0.1500	9597.96	4.0750	4.0750	0.8020	26.59	0.62	0.750			
0.1524	9752.38	4.0720	4.0716	0.8013	26.59	0.62	0.750			
0.1548	9908.05	4.0690	4.0691	0.8069	26.59	0.62	0.750			
0.1573	10064.10	4.0660	4.0661	0.8034	26.59	0.62	0.750			
0.1597	10218.97	4.0630	4.0630	0.8060	26.60	0.63	0.750			
0.1620	10369.44	4.0600	4.0601	0.8046	26.60	0.63	0.750			
0.1645	10525.88	4.0570	4.0568	0.8127	26.60	0.63	0.750			
0.1669	10682.44	4.0540	4.0540	0.8155	26.60	0.63	0.750			
0.1694	10842.42	4.0510	4.0511	0.8145	26.60	0.63	0.750			
0.1718	10997.98	4.0480	4.0481	0.8234	26.60	0.63	0.750			
0.1743	11155.66	4.0450	4.0450	0.8279	26.60	0.63	0.750			
0.1767	11311.46	4.0420	4.0419	0.8275	26.60	0.63	0.750			
0.1792	11470.36	4.0390	4.0390	0.8384	26.60	0.63	0.750			
0.1818	11634.45	4.0360	4.0361	0.8435	26.60	0.63	0.750			
0.1843	11797.11	4.0330	4.0330	0.8513	26.60	0.63	0.750			
0.1869	11962.86	4.0300	4.0301	0.8533	26.60	0.63	0.750			
0.1895	12127.08	4.0270	4.0268	0.8501	26.60	0.63	0.750			
0.1920	12290.65	4.0240	4.0241	0.8496	26.60	0.63	0.750			
0.1946	12454.39	4.0210	4.0211	0.8451	26.60	0.63	0.750			
0.1971	12615.16	4.0180	4.0180	0.8431	26.60	0.63	0.750			
0.1996	12774.67	4.0150	4.0151	0.8409	26.60	0.63	0.750			
0.2021	12936.12	4.0120	4.0119	0.8451	26.60	0.63	0.750			
0.2047	13099.23	4.0090	4.0090	0.8499	26.60	0.63	0.750			
0.2073	13264.07	4.0060	4.0060	0.8490	26.60	0.63	0.750			
0.2098	13427.30	4.0030	4.0030	0.8528	26.60	0.63	0.750			
0.2123	13590.33	4.0000	4.0002	0.8562	26.60	0.63	0.750			
0.2149	13754.69	3.9970	3.9964	0.8599	26.60	0.63	0.750			
0.2175	13919.73	3.9940	3.9940	0.8599	26.60	0.63	0.750			
0.2201	14086.09	3.9910	3.9911	0.8699	26.60	0.63	0.750			
0.2227	14255.48	3.9880	3.9880	0.8731	26.60	0.63	0.750			
0.2254	14423.71	3.9850	3.9850	0.8744	26.60	0.63	0.750			
0.2280	14589.81	3.9820	3.9821	0.8699	26.60	0.63	0.750			
0.2306	14757.52	3.9790	3.9790	0.8654	26.60	0.63	0.750			
0.2332	14923.45	3.9760	3.9760	0.8688	26.60	0.63	0.750			
0.2358	15089.80	3.9730	3.9730	0.8705	26.60	0.63	0.750			
0.2384	15256.25	3.9700	3.9700	0.8702	26.60	0.63	0.750			
0.2410	15424.73	3.9670	3.9671	0.8737	26.60	0.63	0.750			
0.2436	15592.43	3.9640	3.9641	0.8712	26.60	0.63	0.750			
0.2462	15759.76	3.9610	3.9610	0.8742	26.59	0.62	0.750			
0.2489	15927.41	3.9580	3.9580	0.8776	26.59	0.62	0.750			
0.2515	16094.59	3.9550	3.9549	0.8781	26.59	0.62	0.750			
0.2541	16263.61	3.9520	3.9520	0.8839	26.59	0.62	0.750			
0.2568	16434.61	3.9490	3.9490	0.8847	26.59	0.62	0.750			
0.2595	16604.96	3.9460	3.9461	0.8870	26.58	0.61	0.750			
0.2621	16776.28	3.9430	3.9430	0.8900	26.58	0.61	0.750			
0.2648	16946.44	3.9400	3.9396	0.8879	26.58	0.61	0.750			
0.2675	17116.97	3.9370	3.9371	0.8848	26.58	0.61	0.750			
0.2701	17286.50	3.9340	3.9340	0.8882	26.58	0.61	0.750			
0.2728	17457.64	3.9310	3.9310	0.8901	26.58	0.61	0.750			
0.2755	17629.15	3.9280	3.9280	0.8938	26.58	0.61	0.750			
0.2781	17798.80	3.9250	3.9251	0.8926	26.58	0.61	0.750			
0.2808	17971.74	3.9220	3.9220	0.8895	26.57	0.60	0.750			
0.2835	18141.75	3.9190	3.9190	0.8966	26.57	0.60	0.750			
0.2862	18313.71	3.9160	3.9160	0.9008	26.57	0.60	0.750			
0.2888	18485.50	3.9130	3.9130	0.9053	26.56	0.59	0.750			
0.2916	18661.40	3.9100	3.9101	0.9142	26.55	0.58	0.750			
0.2943	18837.47	3.9070	3.9070	0.9212	26.55	0.58	0.750			
0.2971	19017.57	3.9040	3.9040	0.9243	26.54	0.57	0.750			
0.3000	19198.02	3.9010	3.9011	0.9255	26.53	0.56	0.750			
0.3027	19373.83	3.8980	3.8979	0.9232	26.52	0.55	0.750			
0.3055	19553.04	3.8950	3.8950	0.9132	26.52	0.55	0.750			
0.3082	19723.65	3.8920	3.8919	0.9143	26.51	0.54	0.750			
0.3109	19897.84	3.8890	3.8891	0.9208	26.51	0.54	0.750			
0.3137	20074.83	3.8860	3.8859	0.9268	26.50	0.53	0.750			
0.3165	20254.51	3.8830	3.8830	0.9347	26.50	0.53	0.750			
0.3193	20435.34	3.8800	3.8801	0.9355	26.49	0.52	0.750			
0.3221	20613.53	3.8770	3.8771	0.9419	26.48	0.51	0.750			
0.3250	20797.58	3.8740	3.8740	0.9525	26.48	0.51	0.750			
0.3278	20977.94	3.8710	3.8707	0.9506	26.47	0.50	0.750			
0.3306	21160.83	3.8680	3.8680	0.9540	26.46	0.49	0.750			
0.3335	21346.17	3.8650	3.8651	0.9611	26.46	0.49	0.750			
0.3365	21534.02	3.8620	3.8620	0.9668	26.45	0.48	0.750			
0.3393	21718.11	3.8590	3.8588	0.9601	26.44	0.47	0.750			
0.3422	21903.97	3.8560	3.8562	0.9579	26.43	0.46	0.750			
0.3451	22088.36	3.8530	3.8529	0.9610	26.42	0.45	0.750			
0.3480	22271.95	3.8500	3.8500	0.9620	26.41	0.44	0.750			
0.3509	22454.49	3.8470	3.8471	0.9590	26.41	0.44	0.750			
0.3537	22639.75	3.8440	3.8441	0.9656	26.39	0.42	0.750			
0.3567	22826.17	3.8410	3.8410	0.9648	26.38	0.41	0.750			
0.3595	23011.09	3.8380	3.8380	0.9687	26.37	0.40	0.750			
0.3625	23197.24	3.8350	3.8351	0.9776	26.36	0.39	0.750			
0.3654	23383.84	3.8320	3.8318	0.9822	26.35	0.38	0.750			
0.3683	23573.10	3.8290	3.8291	0.9882	26.34	0.37	0.750			
0.3713	23764.47	3.8260	3.8261	0.9961	26.33	0.36	0.750			
0.3744	23958.42	3.8230	3.8230	1.0058	26.32	0.35	0.750			
0.3774	24150.61	3.8200	3.8198	1.0066	26.31	0.34	0.750			
0.3804	24343.95	3.8170	3.8171	1.0154	26.30	0.33	0.750			
0.3834	24539.38	3.8140	3.8140	1.0231	26.30	0.33	0.750			
0.3865	24736.37	3.8110	3.8110	1.0352	26.29	0.32	0.750			
0.3896	24936.62	3.8080	3.8078	1.0481	26.28	0.31	0.750			
0.3928	25139.94	3.8050	3.8051	1.0470	26.27	0.30	0.750			
0.3959	25339.01	3.8020	3.8021	1.0579	26.27	0.30	0.750			
0.3991	25542.82	3.7990	3.7991	1.0680	26.26	0.29	0.750			
0.4023	25750.34	3.7960	3.7955	1.0767	26.25	0.28	0.750			
0.4055	25954.65	3.7930	3.7931	1.0932	26.24	0.27	0.750			
0.4088	26165.09	3.7900	3.7901	1.1119	26.23	0.26	0.750			
0.4122	26382.71	3.7870	3.7871	1.1323	26.22	0.25	0.750			
0.4157	26602.09	3.7840	3.7839	1.1371	26.21	0.24	0.750			
0.4191	26821.64	3.7810	3.7811	1.1621	26.20	0.23	0.750			
0.4226	27046.60	3.7780	3.7781	1.1842	26.19	0.22	0.750			
0.4262	27278.72	3.7750	3.7749	1.2069	26.17	0.20	0.750			
0.4298	27509.67	3.7720	3.7720	1.2390	26.16	0.19	0.750			
0.4336	27748.83	3.7690	3.7690	1.2795	26.15	0.18	0.750			
0.4375	28001.53	3.7660	3.7663	1.3084	26.14	0.17	0.750	0.319	0.440	
0.4415	28258.33	3.7630	3.7630	1.3322	26.12	0.15	0.750			
0.4456	28517.62	3.7600	3.7601	1.3496	26.11	0.14	0.750			
0.4497	28782.08	3.7570	3.7572	1.3594	26.10	0.13	0.750			
0.4538	29043.52	3.7540	3.7539	1.3647	26.09	0.12	0.750			
0.4578	29301.23	3.7510	3.7511	1.3975	26.07	0.10	0.750			
0.4620	29568.28	3.7480	3.7481	1.4247	26.06	0.09	0.750			
0.4664	29847.22	3.7450	3.7451	1.4615	26.05	0.08	0.750			
0.4708	30130.22	3.7420	3.7421	1.5150	26.03	0.06	0.750			
0.4755	30429.39	3.7390	3.7391	1.5433	26.02	0.05	0.750			
0.4802	30731.30	3.7360	3.7359	1.5930	26.00	0.03	0.750			
0.4850	31042.77	3.7330	3.7328	1.6479	25.99	0.02	0.750			
0.4900	31358.33	3.7300	3.7298	1.6878	25.98	0.01	0.750			
0.4952	31693.06	3.7270	3.7271	1.7497	25.97	-0.00	0.750			
0.5005	32030.73	3.7240	3.7241	1.7938	25.95	-0.02	0.750			
0.5060	32382.80	3.7210	3.7213	1.8474	25.94	-0.03	0.750			
0.5117	32746.17	3.7180	3.7182	1.8804	25.92	-0.05	0.750			
0.5175	33118.54	3.7150	3.7152	1.9546	25.90	-0.07	0.750			
0.5233	33492.98	3.7120	3.7118	1.9982	25.88	-0.09	0.750			
0.5294	33881.23	3.7090	3.7092	2.0645	25.87	-0.10	0.750			
0.5357	34285.07	3.7060	3.7061	2.1119	25.85	-0.12	0.750			
0.5421	34696.31	3.7030	3.7028	2.1943	25.84	-0.13	0.750			
0.5488	35120.41	3.7000	3.7002	2.2452	25.83	-0.14	0.750			
0.5556	35560.16	3.6970	3.6968	2.3360	25.81	-0.16	0.750			
0.5628	36017.96	3.6940	3.6943	2.3965	25.79	-0.18	0.750			
0.5700	36479.56	3.6910	3.6909	2.4642	25.78	-0.19	0.750			
0.5776	36965.44	3.6880	3.6882	2.5312	25.77	-0.20	0.750			
0.5852	37454.36	3.6850	3.6851	2.6268	25.76	-0.21	0.750			
0.5931	37958.65	3.6820	3.6819	2.7403	25.74	-0.23	0.750			
0.6015	38495.68	3.6790	3.6789	2.8412	25.72	-0.25	0.750			
0.6102	39051.32	3.6760	3.6760	2.9119	25.71	-0.26	0.750			
0.6193	39638.38	3.6730	3.6730	2.8914	25.70	-0.27	0.750			
0.6280	40193.13	3.6700	3.6700	2.7672	25.70	-0.27	0.750			
0.6362	40717.00	3.6670	3.6669	2.5380	25.70	-0.27	0.750			
0.6435	41184.31	3.6640	3.6641	2.3093	25.70	-0.27	0.750			
0.6498	41585.29	3.6610	3.6612	2.0652	25.70	-0.27	0.750			
0.6555	41953.33	3.6580	3.6578	1.8775	25.70	-0.27	0.750			
0.6607	42283.05	3.6550	3.6547	1.7060	25.71	-0.26	0.750			
0.6654	42588.47	3.6520	3.6517	1.5793	25.71	-0.26	0.750			
0.6701	42884.43	3.6490	3.6493	1.4887	25.71	-0.26	0.750			
0.6744	43161.86	3.6460	3.6461	1.3940	25.72	-0.25	0.750			
0.6784	43415.59	3.6430	3.6431	1.3047	25.72	-0.25	0.750			
0.6820	43651.05	3.6400	3.6401	1.2413	25.72	-0.25	0.750			
0.6856	43878.74	3.6370	3.6371	1.2046	25.71	-0.26	0.750			
0.6892	44107.81	3.6340	3.6338	1.1891	25.71	-0.26	0.750			
0.6927	44329.94	3.6310	3.6311	1.1810	25.71	-0.26	0.750			
0.6962	44556.12	3.6280	3.6281	1.1952	25.71	-0.26	0.750			
0.6998	44787.91	3.6250	3.6250	1.2047	25.71	-0.26	0.750			
0.7034	45020.11	3.6220	3.6221	1.1958	25.71	-0.26	0.750			
0.7071	45251.76	3.6190	3.6191	1.1977	25.71	-0.26	0.750			
0.7107	45485.22	3.6160	3.6161	1.1889	25.72	-0.25	0.750			
0.7143	45713.01	3.6130	3.6128	1.1736	25.72	-0.25	0.750			
0.7177	45934.82	3.6100	3.6101	1.1437	25.72	-0.25	0.750			
0.7211	46149.08	3.6070	3.6070	1.1294	25.72	-0.25	0.750			
0.7244	46362.70	3.6040	3.6041	1.1306	25.72	-0.25	0.750			
0.7278	46579.59	3.6010	3.6007	1.1331	25.72	-0.25	0.750			
0.7311	46791.55	3.5980	3.5981	1.1496	25.72	-0.25	0.750			
0.7346	47013.09	3.5950	3.5950	1.1821	25.73	-0.24	0.750			
0.7382	47242.85	3.5920	3.5920	1.2176	25.73	-0.24	0.750			
0.7418	47478.38	3.5890	3.5890	1.2551	25.73	-0.24	0.750			
0.7457	47727.95	3.5860	3.5860	1.2838	25.73	-0.24	0.750			
0.7497	47978.03	3.5830	3.5832	1.3285	25.72	-0.25	0.750			
0.7537	48234.39	3.5800	3.5799	1.3741	25.72	-0.25	0.750			
0.7578	48496.58	3.5770	3.5772	1.4259	25.72	-0.25	0.750			
0.7621	48775.51	3.5740	3.5741	1.4611	25.72	-0.25	0.750			
0.7666	49060.16	3.5710	3.5707	1.5268	25.72	-0.25	0.750			
0.7712	49359.69	3.5680	3.5681	1.5890	25.72	-0.25	0.750			
0.7762	49676.84	3.5650	3.5649	1.6328	25.72	-0.25	0.750			
0.7811	49992.47	3.5620	3.5617	1.6426	25.72	-0.25	0.750			
0.7861	50311.65	3.5590	3.5592	1.6549	25.72	-0.25	0.750			
0.7912	50636.23	3.5560	3.5564	1.6639	25.72	-0.25	0.750			
0.7962	50957.55	3.5530	3.5526	1.6643	25.72	-0.25	0.750			
0.8011	51273.52	3.5500	3.5502	1.6679	25.72	-0.25	0.750			
0.8062	51598.02	3.5470	3.5467	1.7036	25.73	-0.24	0.750			
0.8114	51928.75	3.5440	3.5442	1.7224	25.73	-0.24	0.750			
0.8164	52250.45	3.5410	3.5408	1.7702	25.74	-0.23	0.750			
0.8222	52621.55	3.5380	3.5380	1.7466	25.76	-0.21	0.750			
0.8279	52985.94	3.5350	3.5346	1.6351	25.77	-0.20	0.750			
0.8328	53301.47	3.5320	3.5322	1.4443	25.79	-0.18	0.750			
0.8372	53582.04	3.5290	3.5298	1.2176	25.80	-0.17	0.750			
0.8406	53796.72	3.5260	3.5259	0.9633	25.81	-0.16	0.750			
0.8425	53919.80	3.5230	3.5228	0.7095	25.83	-0.14	0.750			
0.8438	54003.49	3.5200	3.5199	0.5007	25.83	-0.14	0.750			
0.8451	54085.13	3.5170	3.5167	0.4230	25.84	-0.13	0.750			
0.8461	54149.32	3.5140	3.5139	0.3701	25.85	-0.12	0.750			
0.8471	54214.40	3.5110	3.5110	0.3423	25.86	-0.11	0.750			
0.8481	54277.05	3.5080	3.5080	0.3233	25.86	-0.11	0.750			
0.8490	54337.29	3.5050	3.5050	0.3083	25.87	-0.10	0.750			
0.8499	54394.00	3.5020	3.5021	0.2962	25.87	-0.10	0.750			
0.8508	54449.06	3.4990	3.4990	0.2870	25.88	-0.09	0.750			
0.8516	54503.30	3.4960	3.4960	0.2804	25.88	-0.09	0.750			
0.8524	54556.17	3.4930	3.4929	0.2740	25.89	-0.08	0.750			
0.8532	54607.91	3.4900	3.4900	0.2675	25.90	-0.07	0.750			
0.8540	54659.19	3.4870	3.4870	0.2634	25.90	-0.07	0.750			
0.8548	54709.41	3.4840	3.4840	0.2584	25.91	-0.06	0.750			
0.8556	54758.53	3.4810	3.4810	0.2527	25.91	-0.06	0.750			
0.8563	54805.99	3.4780	3.4779	0.2459	25.92	-0.05	0.750			
0.8571	54852.88	3.4750	3.4751	0.2406	25.92	-0.05	0.750			
0.8578	54898.42	3.4720	3.4721	0.2359	25.92	-0.05	0.750			
0.8585	54943.19	3.4690	3.4689	0.2305	25.93	-0.04	0.750			
0.8592	54986.98	3.4660	3.4660	0.2251	25.93	-0.04	0.750			
0.8598	55029.31	3.4630	3.4630	0.2195	25.94	-0.03	0.750			
0.8605	55070.86	3.4600	3.4599	0.2151	25.94	-0.03	0.750			
0.8611	55111.75	3.4570	3.4572	0.2108	25.95	-0.02	0.750			
0.8617	55151.96	3.4540	3.4540	0.2068	25.95	-0.02	0.750			
0.8624	55191.40	3.4510	3.4510	0.2014	25.95	-0.02	0.750			
0.8630	55229.35	3.4480	3.4480	0.1966	25.96	-0.01	0.750			
0.8635	55266.67	3.4450	3.4450	0.1922	25.96	-0.01	0.750			
0.8641	55303.43	3.4420	3.4421	0.1873	25.96	-0.01	0.750			
0.8647	55339.00	3.4390	3.4390	0.1819	25.97	-0.00	0.750			
0.8652	55373.18	3.4360	3.4361	0.1765	25.97	0.00	0.750			
0.8657	55406.60	3.4330	3.4330	0.1716	25.98	0.01	0.750			
0.8662	55438.96	3.4300	3.4300	0.1670	25.98	0.01	0.750			
0.8667	55470.97	3.4270	3.4269	0.1617	25.98	0.01	0.750			
0.8672	55501.48	3.4240	3.4240	0.1553	25.98	0.01	0.750			
0.8677	55530.73	3.4210	3.4211	0.1494	25.99	0.02	0.750			
0.8681	55559.17	3.4180	3.4181	0.1436	25.99	0.02	0.750			
0.8685	55586.16	3.4150	3.4150	0.1377	25.99	0.02	0.750			
0.8689	55611.78	3.4120	3.4120	0.1308	26.00	0.03	0.750			
0.8693	55636.48	3.4090	3.4089	0.1241	26.00	0.03	0.750			
0.8697	55659.56	3.4060	3.4060	0.1174	26.00	0.03	0.750			
0.8700	55681.83	3.4030	3.4030	0.1113	26.00	0.03	0.750			
0.8704	55703.89	3.4000	3.3998	0.1026	26.00	0.03	0.750			
0.8707	55722.62	3.3970	3.3969	0.0925	26.01	0.04	0.750			
0.8709	55740.05	3.3940	3.3941	0.0838	26.01	0.04	0.750			
0.8712	55755.09	3.3910	3.3912	0.0729	26.01	0.04	0.750			
0.8714	55768.84	3.3880	3.3885	0.0626	26.01	0.04	0.750			
0.8716	55779.73	3.3850	3.3860	0.0509	26.01	0.04	0.750			
0.8717	55788.39	3.3820	3.3833	0.0392	26.01	0.04	0.750			
0.8718	55794.80	3.3790	3.3807	0.0276	26.01	0.04	0.750			
0.8719	55798.97	3.3760	3.3785	0.0159	26.01	0.04	0.750			
