Ah_balance (normalized)	Ah_balance (mAh)	Voltage - fit (V)	Voltage -  interpolate (V)	dQ/dV (1/V)	Temperature (°C)	Temperature - diff (°C)	Current (C)	R_DC 0ms (mOhm)	R_DC 50ms (mOhm)	R_DC 50 ms PEC (mOhm)
0.0515	3296.28	4.1960	4.1959	0.7508	26.23	0.26	0.750			
0.0538	3444.48	4.1930	4.1929	0.7694	26.23	0.26	0.750			
0.0561	3593.58	4.1900	4.1901	0.7701	26.23	0.26	0.750			
0.0585	3740.91	4.1870	4.1871	0.7707	26.23	0.26	0.750			
0.0608	3892.66	4.1840	4.1840	0.7709	26.23	0.26	0.750			
0.0632	4042.81	4.1810	4.1808	0.7417	26.23	0.26	0.750			
0.0653	4176.84	4.1780	4.1782	0.7546	26.23	0.26	0.750			
0.0675	4319.24	4.1750	4.1753	0.7629	26.23	0.26	0.750			
0.0698	4465.98	4.1720	4.1716	0.7704	26.23	0.26	0.750			
0.0721	4614.43	4.1690	4.1688	0.7823	26.23	0.26	0.750			
0.0745	4767.11	4.1660	4.1663	0.7895	26.23	0.26	0.750			
0.0769	4923.67	4.1630	4.1629	0.7985	26.23	0.26	0.750			
0.0794	5083.84	4.1600	4.1599	0.8124	26.23	0.26	0.750			
0.0817	5231.54	4.1570	4.1570	0.7819	26.23	0.26	0.750			
0.0841	5381.34	4.1540	4.1540	0.7844	26.23	0.26	0.750			
0.0864	5532.34	4.1510	4.1510	0.7842	26.23	0.26	0.750			
0.0888	5680.42	4.1480	4.1482	0.7830	26.23	0.26	0.750			
0.0911	5830.78	4.1450	4.1450	0.7878	26.23	0.26	0.750			
0.0935	5984.43	4.1420	4.1420	0.7874	26.23	0.26	0.750			
0.0959	6134.76	4.1390	4.1390	0.7880	26.23	0.26	0.750			
0.0982	6287.43	4.1360	4.1361	0.7965	26.23	0.26	0.750			
0.1006	6438.50	4.1330	4.1330	0.7980	26.23	0.26	0.750			
0.1030	6591.89	4.1300	4.1299	0.7887	26.23	0.26	0.750			
0.1053	6742.39	4.1270	4.1271	0.7875	26.23	0.26	0.750			
0.1077	6893.88	4.1240	4.1242	0.7817	26.23	0.26	0.750			
0.1100	7041.79	4.1210	4.1204	0.7893	26.23	0.26	0.750			
0.1124	7191.16	4.1180	4.1183	0.7888	26.23	0.26	0.750			
0.1147	7343.27	4.1150	4.1147	0.7958	26.23	0.26	0.750			
0.1171	7497.42	4.1120	4.1120	0.8073	26.23	0.26	0.750			
0.1197	7657.62	4.1090	4.1091	0.8165	26.23	0.26	0.750			
0.1221	7813.05	4.1060	4.1060	0.8150	26.23	0.26	0.750			
0.1245	7969.99	4.1030	4.1030	0.8110	26.23	0.26	0.750			
0.1269	8124.38	4.1000	4.1000	0.8128	26.23	0.26	0.750			
0.1294	8280.93	4.0970	4.0970	0.8148	26.23	0.26	0.750			
0.1318	8437.78	4.0940	4.0939	0.8103	26.23	0.26	0.750			
0.1343	8592.34	4.0910	4.0910	0.8131	26.23	0.26	0.750			
0.1367	8748.31	4.0880	4.0881	0.8192	26.23	0.26	0.750			
0.1392	8906.63	4.0850	4.0849	0.8211	26.23	0.26	0.750			
0.1417	9069.50	4.0820	4.0819	0.7965	26.23	0.26	0.750			
0.1441	9220.76	4.0790	4.0792	0.7869	26.23	0.26	0.750			
0.1463	9364.34	4.0760	4.0764	0.8111	26.24	0.27	0.750			
0.1487	9517.46	4.0730	4.0730	0.8234	26.24	0.27	0.750			
0.1512	9675.43	4.0700	4.0704	0.8293	26.24	0.27	0.750			
0.1537	9837.70	4.0670	4.0675	0.8456	26.24	0.27	0.750			
0.1564	10009.23	4.0640	4.0643	0.8634	26.24	0.27	0.750			
0.1591	10180.63	4.0610	4.0610	0.8672	26.24	0.27	0.750			
0.1616	10339.99	4.0580	4.0581	0.8404	26.24	0.27	0.750			
0.1641	10502.36	4.0550	4.0549	0.8494	26.24	0.27	0.750			
0.1667	10665.98	4.0520	4.0520	0.8529	26.24	0.27	0.750			
0.1692	10831.35	4.0490	4.0490	0.8534	26.24	0.27	0.750			
0.1718	10995.24	4.0460	4.0461	0.8573	26.25	0.28	0.750			
0.1744	11158.78	4.0430	4.0432	0.8655	26.25	0.28	0.750			
0.1770	11325.30	4.0400	4.0396	0.8690	26.25	0.28	0.750			
0.1797	11499.05	4.0370	4.0369	0.8509	26.25	0.28	0.750			
0.1823	11666.73	4.0340	4.0339	0.8185	26.25	0.28	0.750			
0.1846	11817.43	4.0310	4.0315	0.8430	26.26	0.29	0.750			
0.1871	11974.03	4.0280	4.0283	0.8590	26.26	0.29	0.750			
0.1896	12132.78	4.0250	4.0239	0.8650	26.26	0.29	0.750			
0.1922	12303.63	4.0220	4.0224	0.8751	26.26	0.29	0.750			
0.1950	12478.14	4.0190	4.0194	0.8981	26.26	0.29	0.750			
0.1978	12658.74	4.0160	4.0161	0.9065	26.27	0.30	0.750			
0.2006	12838.25	4.0130	4.0129	0.8991	26.27	0.30	0.750			
0.2031	12997.29	4.0100	4.0101	0.8782	26.27	0.30	0.750			
0.2057	13167.91	4.0070	4.0070	0.8788	26.27	0.30	0.750			
0.2084	13335.19	4.0040	4.0040	0.8865	26.27	0.30	0.750			
0.2111	13507.28	4.0010	4.0010	0.8930	26.27	0.30	0.750			
0.2137	13679.61	3.9980	3.9981	0.8977	26.27	0.30	0.750			
0.2164	13852.14	3.9950	3.9950	0.9061	26.27	0.30	0.750			
0.2192	14028.64	3.9920	3.9921	0.9021	26.28	0.31	0.750			
0.2219	14200.45	3.9890	3.9890	0.9022	26.28	0.31	0.750			
0.2246	14376.11	3.9860	3.9860	0.9086	26.29	0.32	0.750			
0.2273	14547.86	3.9830	3.9823	0.9040	26.29	0.32	0.750			
0.2300	14723.08	3.9800	3.9800	0.9062	26.29	0.32	0.750			
0.2327	14895.32	3.9770	3.9771	0.9110	26.29	0.32	0.750			
0.2355	15071.36	3.9740	3.9740	0.9160	26.29	0.32	0.750			
0.2383	15249.85	3.9710	3.9711	0.9234	26.29	0.32	0.750			
0.2410	15424.54	3.9680	3.9680	0.9208	26.29	0.32	0.750			
0.2439	15608.16	3.9650	3.9649	0.9022	26.30	0.33	0.750			
0.2467	15786.17	3.9620	3.9619	0.8816	26.30	0.33	0.750			
0.2492	15951.97	3.9590	3.9591	0.8589	26.31	0.34	0.750			
0.2517	16108.23	3.9560	3.9562	0.8711	26.31	0.34	0.750			
0.2542	16267.27	3.9530	3.9524	0.8537	26.31	0.34	0.750			
0.2568	16432.22	3.9500	3.9498	0.8477	26.31	0.34	0.750			
0.2592	16591.63	3.9470	3.9473	0.8602	26.31	0.34	0.750			
0.2619	16758.92	3.9440	3.9450	0.8923	26.31	0.34	0.750			
0.2645	16930.31	3.9410	3.9413	0.9418	26.31	0.34	0.750			
0.2673	17110.13	3.9380	3.9389	0.9850	26.32	0.35	0.750			
0.2705	17309.41	3.9350	3.9348	1.0176	26.32	0.35	0.750			
0.2736	17512.71	3.9320	3.9321	1.0344	26.33	0.36	0.750			
0.2771	17731.61	3.9290	3.9291	1.0489	26.34	0.37	0.750			
0.2802	17933.22	3.9260	3.9260	1.0134	26.34	0.37	0.750			
0.2832	18122.01	3.9230	3.9229	0.9798	26.34	0.37	0.750			
0.2858	18293.60	3.9200	3.9200	0.9510	26.34	0.37	0.750			
0.2887	18474.06	3.9170	3.9170	0.9498	26.34	0.37	0.750			
0.2915	18658.24	3.9140	3.9140	0.9462	26.34	0.37	0.750			
0.2943	18838.30	3.9110	3.9111	0.9523	26.34	0.37	0.750			
0.2972	19022.98	3.9080	3.9081	0.9598	26.35	0.38	0.750			
0.3001	19207.78	3.9050	3.9050	0.9678	26.35	0.38	0.750			
0.3030	19393.32	3.9020	3.9019	0.9690	26.35	0.38	0.750			
0.3059	19578.77	3.8990	3.8991	0.9678	26.35	0.38	0.750			
0.3088	19765.82	3.8960	3.8961	0.9751	26.34	0.37	0.750			
0.3118	19954.87	3.8930	3.8930	0.9798	26.34	0.37	0.750			
0.3147	20141.59	3.8900	3.8898	0.9785	26.34	0.37	0.750			
0.3177	20330.44	3.8870	3.8870	0.9753	26.34	0.37	0.750			
0.3206	20516.13	3.8840	3.8841	0.9823	26.34	0.37	0.750			
0.3235	20705.66	3.8810	3.8810	0.9913	26.34	0.37	0.750			
0.3265	20896.46	3.8780	3.8779	0.9903	26.34	0.37	0.750			
0.3295	21088.02	3.8750	3.8750	0.9883	26.34	0.37	0.750			
0.3325	21278.57	3.8720	3.8721	0.9962	26.34	0.37	0.750			
0.3355	21469.46	3.8690	3.8691	1.0056	26.33	0.36	0.750			
0.3385	21662.13	3.8660	3.8659	1.0100	26.33	0.36	0.750			
0.3415	21856.57	3.8630	3.8631	1.0143	26.33	0.36	0.750			
0.3446	22052.94	3.8600	3.8600	1.0241	26.32	0.35	0.750			
0.3477	22251.56	3.8570	3.8571	1.0376	26.32	0.35	0.750			
0.3508	22453.41	3.8540	3.8540	1.0511	26.31	0.34	0.750			
0.3540	22653.85	3.8510	3.8510	1.0514	26.31	0.34	0.750			
0.3571	22854.95	3.8480	3.8480	1.0629	26.31	0.34	0.750			
0.3603	23060.93	3.8450	3.8451	1.0798	26.30	0.33	0.750			
0.3636	23271.06	3.8420	3.8419	1.0935	26.30	0.33	0.750			
0.3669	23483.19	3.8390	3.8390	1.0874	26.30	0.33	0.750			
0.3702	23690.19	3.8360	3.8361	1.1025	26.29	0.32	0.750			
0.3735	23902.29	3.8330	3.8332	1.1160	26.29	0.32	0.750			
0.3769	24119.36	3.8300	3.8296	1.1259	26.28	0.31	0.750			
0.3802	24333.81	3.8270	3.8271	1.1414	26.27	0.30	0.750			
0.3837	24554.99	3.8240	3.8241	1.1622	26.26	0.29	0.750			
0.3873	24784.42	3.8210	3.8211	1.1815	26.26	0.29	0.750			
0.3908	25012.59	3.8180	3.8180	1.1784	26.25	0.28	0.750			
0.3943	25237.77	3.8150	3.8151	1.1861	26.24	0.27	0.750			
0.3979	25468.65	3.8120	3.8121	1.1950	26.24	0.27	0.750			
0.4016	25700.74	3.8090	3.8088	1.1911	26.23	0.26	0.750			
0.4051	25927.05	3.8060	3.8061	1.1897	26.22	0.25	0.750			
0.4086	26152.31	3.8030	3.8032	1.2073	26.21	0.24	0.750			
0.4123	26386.32	3.8000	3.8000	1.2279	26.20	0.23	0.750			
0.4160	26624.04	3.7970	3.7970	1.2216	26.19	0.22	0.750			
0.4197	26860.92	3.7940	3.7940	1.2344	26.17	0.20	0.750			
0.4235	27102.61	3.7910	3.7913	1.2446	26.16	0.19	0.750			
0.4273	27345.29	3.7880	3.7876	1.2349	26.15	0.18	0.750			
0.4309	27575.66	3.7850	3.7850	1.2440	26.14	0.17	0.750			
0.4346	27812.31	3.7820	3.7821	1.2572	26.14	0.17	0.750			
0.4384	28055.15	3.7790	3.7789	1.2671	26.13	0.16	0.750			
0.4422	28300.51	3.7760	3.7761	1.2965	26.12	0.15	0.750			
0.4461	28550.89	3.7730	3.7731	1.3099	26.11	0.14	0.750			
0.4502	28809.86	3.7700	3.7700	1.3070	26.10	0.13	0.750			
0.4540	29058.35	3.7670	3.7671	1.3311	26.08	0.11	0.750			
0.4580	29313.58	3.7640	3.7642	1.3174	26.07	0.10	0.750			
0.4619	29563.36	3.7610	3.7609	1.3593	26.06	0.09	0.750			
0.4659	29820.75	3.7580	3.7572	1.4114	26.05	0.08	0.750	0.270	0.366	
0.4702	30095.57	3.7550	3.7554	1.4466	26.03	0.06	0.750			
0.4748	30385.86	3.7520	3.7523	1.4890	26.02	0.05	0.750			
0.4794	30680.15	3.7490	3.7492	1.5192	26.01	0.04	0.750			
0.4840	30973.27	3.7460	3.7458	1.5621	25.99	0.02	0.750			
0.4886	31271.81	3.7430	3.7431	1.5957	25.98	0.01	0.750			
0.4933	31573.53	3.7400	3.7402	1.6200	25.97	0.00	0.750			
0.4983	31888.56	3.7370	3.7371	1.6564	25.96	-0.01	0.750			
0.5034	32216.54	3.7340	3.7338	1.7102	25.95	-0.02	0.750			
0.5085	32543.03	3.7310	3.7308	1.7762	25.93	-0.04	0.750			
0.5138	32885.28	3.7280	3.7281	1.8019	25.91	-0.06	0.750			
0.5193	33236.77	3.7250	3.7253	1.8489	25.90	-0.07	0.750			
0.5250	33601.51	3.7220	3.7223	1.8996	25.88	-0.09	0.750			
0.5307	33966.89	3.7190	3.7186	1.9622	25.86	-0.11	0.750			
0.5368	34353.68	3.7160	3.7158	2.0242	25.83	-0.14	0.750			
0.5430	34752.57	3.7130	3.7133	2.0891	25.81	-0.16	0.750			
0.5495	35165.35	3.7100	3.7100	2.1849	25.80	-0.17	0.750			
0.5560	35583.99	3.7070	3.7068	2.2189	25.79	-0.18	0.750			
0.5628	36022.32	3.7040	3.7040	2.2950	25.77	-0.20	0.750			
0.5700	36477.60	3.7010	3.7013	2.3563	25.75	-0.22	0.750			
0.5769	36922.65	3.6980	3.6978	2.4286	25.73	-0.24	0.750			
0.5844	37399.39	3.6950	3.6950	2.4322	25.72	-0.25	0.750			
0.5917	37870.30	3.6920	3.6919	2.4784	25.71	-0.26	0.750			
0.5992	38350.16	3.6890	3.6895	2.6341	25.69	-0.28	0.750			
0.6071	38853.50	3.6860	3.6861	2.7247	25.66	-0.31	0.750			
0.6156	39399.11	3.6830	3.6830	2.8523	25.64	-0.33	0.750			
0.6244	39959.78	3.6800	3.6803	2.9512	25.62	-0.35	0.750			
0.6337	40554.43	3.6770	3.6771	2.9843	25.62	-0.35	0.750			
0.6424	41115.96	3.6740	3.6741	2.9672	25.62	-0.35	0.750			
0.6513	41686.07	3.6710	3.6714	3.1129	25.60	-0.37	0.750			
0.6609	42295.79	3.6680	3.6681	3.2964	25.59	-0.38	0.750			
0.6709	42940.17	3.6650	3.6651	3.3081	25.58	-0.39	0.750			
0.6818	43635.15	3.6620	3.6620	3.3576	25.58	-0.39	0.750			
0.6912	44234.20	3.6590	3.6589	2.9588	25.57	-0.40	0.750			
0.6997	44781.60	3.6560	3.6562	2.6012	25.58	-0.39	0.750			
0.7069	45239.29	3.6530	3.6535	2.3234	25.58	-0.39	0.750			
0.7133	45649.86	3.6500	3.6504	2.0692	25.58	-0.39	0.750			
0.7188	46004.48	3.6470	3.6472	1.7901	25.59	-0.38	0.750			
0.7236	46310.79	3.6440	3.6442	1.6196	25.59	-0.38	0.750			
0.7283	46608.49	3.6410	3.6413	1.5284	25.60	-0.37	0.750			
0.7327	46890.36	3.6380	3.6383	1.4292	25.60	-0.37	0.750			
0.7367	47147.65	3.6350	3.6354	1.3526	25.61	-0.36	0.750			
0.7405	47395.13	3.6320	3.6322	1.3024	25.61	-0.36	0.750			
0.7443	47634.73	3.6290	3.6292	1.2553	25.61	-0.36	0.750			
0.7482	47887.73	3.6260	3.6260	1.2494	25.62	-0.35	0.750			
0.7517	48109.18	3.6230	3.6226	1.2043	25.62	-0.35	0.750			
0.7553	48338.10	3.6200	3.6200	1.2178	25.62	-0.35	0.750			
0.7590	48574.43	3.6170	3.6170	1.2227	25.63	-0.34	0.750			
0.7627	48811.73	3.6140	3.6141	1.2246	25.64	-0.33	0.750			
0.7665	49054.24	3.6110	3.6112	1.2293	25.64	-0.33	0.750			
0.7700	49282.76	3.6080	3.6083	1.2113	25.64	-0.33	0.750			
0.7737	49515.80	3.6050	3.6049	1.2017	25.64	-0.33	0.750			
0.7773	49744.88	3.6020	3.6018	1.1817	25.64	-0.33	0.750			
0.7807	49965.72	3.5990	3.5991	1.1742	25.64	-0.33	0.750			
0.7842	50189.00	3.5960	3.5962	1.1871	25.65	-0.32	0.750			
0.7878	50418.36	3.5930	3.5929	1.1964	25.65	-0.32	0.750			
0.7913	50645.45	3.5900	3.5900	1.2113	25.65	-0.32	0.750			
0.7950	50880.83	3.5870	3.5870	1.2349	25.65	-0.32	0.750			
0.7988	51124.22	3.5840	3.5840	1.2570	25.66	-0.31	0.750			
0.8027	51371.10	3.5810	3.5809	1.2526	25.66	-0.31	0.750			
0.8062	51595.63	3.5780	3.5783	1.2494	25.66	-0.31	0.750			
0.8097	51817.98	3.5750	3.5755	1.2945	25.66	-0.31	0.750			
0.8136	52069.57	3.5720	3.5706	1.3817	25.66	-0.31	0.750			
0.8179	52343.13	3.5690	3.5694	1.4335	25.66	-0.31	0.750			
0.8224	52631.56	3.5660	3.5661	1.5109	25.66	-0.31	0.750			
0.8273	52948.79	3.5630	3.5629	1.5767	25.66	-0.31	0.750			
0.8323	53269.57	3.5600	3.5600	1.6030	25.66	-0.31	0.750			
0.8370	53565.48	3.5570	3.5571	1.5329	25.66	-0.31	0.750			
0.8414	53852.77	3.5540	3.5540	1.5332	25.66	-0.31	0.750			
0.8459	54138.26	3.5510	3.5516	1.5750	25.67	-0.30	0.750			
0.8508	54450.16	3.5480	3.5485	1.6008	25.68	-0.29	0.750			
0.8554	54748.08	3.5450	3.5447	1.6412	25.68	-0.29	0.750			
0.8606	55075.23	3.5420	3.5425	1.6400	25.69	-0.28	0.750			
0.8655	55391.36	3.5390	3.5394	1.7072	25.69	-0.28	0.750			
0.8709	55738.70	3.5360	3.5363	1.7713	25.69	-0.28	0.750			
0.8759	56058.28	3.5330	3.5333	1.7662	25.70	-0.27	0.750			
0.8816	56424.95	3.5300	3.5307	1.7323	25.71	-0.26	0.750			
0.8873	56787.09	3.5270	3.5270	1.6557	25.72	-0.25	0.750			
0.8927	57130.85	3.5240	3.5245	1.4490	25.74	-0.23	0.750			
0.8966	57384.94	3.5210	3.5214	1.1631	25.76	-0.21	0.750			
0.8997	57578.21	3.5180	3.5180	0.8970	25.78	-0.19	0.750			
0.9014	57691.32	3.5150	3.5148	0.6710	25.79	-0.18	0.750			
0.9028	57777.71	3.5120	3.5118	0.4904	25.79	-0.18	0.750			
0.9039	57852.74	3.5090	3.5088	0.4164	25.80	-0.17	0.750			
0.9050	57919.37	3.5060	3.5060	0.3635	25.81	-0.16	0.750			
0.9060	57983.31	3.5030	3.5030	0.3440	25.82	-0.15	0.750			
0.9070	58045.48	3.5000	3.5000	0.3245	25.82	-0.15	0.750			
0.9079	58106.05	3.4970	3.4969	0.3098	25.83	-0.14	0.750			
0.9088	58164.82	3.4940	3.4938	0.2983	25.84	-0.13	0.750			
0.9097	58221.80	3.4910	3.4915	0.2885	25.84	-0.13	0.750			
0.9106	58275.98	3.4880	3.4880	0.2782	25.85	-0.12	0.750			
0.9114	58328.02	3.4850	3.4849	0.2695	25.86	-0.11	0.750			
0.9121	58377.52	3.4820	3.4820	0.2611	25.86	-0.11	0.750			
0.9129	58425.22	3.4790	3.4790	0.2565	25.87	-0.10	0.750			
0.9137	58477.76	3.4760	3.4759	0.2501	25.87	-0.10	0.750			
0.9145	58526.78	3.4730	3.4727	0.2443	25.88	-0.09	0.750			
0.9152	58573.58	3.4700	3.4701	0.2316	25.88	-0.09	0.750			
0.9159	58615.38	3.4670	3.4675	0.2270	25.89	-0.08	0.750			
0.9165	58656.41	3.4640	3.4637	0.2200	25.89	-0.08	0.750			
0.9171	58695.36	3.4610	3.4607	0.2181	25.90	-0.07	0.750			
0.9178	58736.15	3.4580	3.4587	0.2202	25.90	-0.07	0.750			
0.9185	58781.13	3.4550	3.4554	0.2211	25.91	-0.06	0.750			
0.9192	58827.26	3.4520	3.4515	0.2285	25.91	-0.06	0.750			
0.9199	58870.57	3.4490	3.4491	0.2227	25.92	-0.05	0.750			
0.9205	58912.75	3.4460	3.4463	0.2127	25.92	-0.05	0.750			
0.9211	58952.98	3.4430	3.4429	0.2088	25.93	-0.04	0.750			
0.9218	58994.37	3.4400	3.4399	0.2052	25.93	-0.04	0.750			
0.9224	59031.19	3.4370	3.4370	0.2000	25.93	-0.04	0.750			
0.9230	59069.30	3.4340	3.4338	0.1944	25.94	-0.03	0.750			
0.9235	59107.16	3.4310	3.4308	0.1934	25.94	-0.03	0.750			
0.9241	59143.37	3.4280	3.4283	0.1880	25.95	-0.02	0.750			
0.9247	59179.06	3.4250	3.4249	0.1850	25.95	-0.02	0.750			
0.9252	59215.34	3.4220	3.4217	0.1794	25.96	-0.01	0.750			
0.9258	59248.30	3.4190	3.4188	0.1746	25.96	-0.01	0.750			
0.9263	59281.43	3.4160	3.4164	0.1706	25.96	-0.01	0.750			
0.9268	59313.52	3.4130	3.4133	0.1668	25.97	-0.00	0.750			
0.9273	59346.21	3.4100	3.4090	0.1624	25.97	-0.00	0.750			
0.9278	59376.44	3.4070	3.4068	0.1561	25.97	0.00	0.750			
0.9282	59405.93	3.4040	3.4042	0.1516	25.98	0.01	0.750			
0.9287	59434.64	3.4010	3.4012	0.1470	25.98	0.01	0.750			
0.9291	59463.33	3.3980	3.3982	0.1440	25.98	0.01	0.750			
0.9295	59490.46	3.3950	3.3945	0.1373	25.99	0.02	0.750			
0.9299	59515.41	3.3920	3.3915	0.1297	25.99	0.02	0.750			
0.9303	59540.13	3.3890	3.3895	0.1239	25.99	0.02	0.750			
0.9307	59563.33	3.3860	3.3861	0.1177	25.99	0.02	0.750			
0.9310	59586.34	3.3830	3.3833	0.1119	26.00	0.03	0.750			
0.9314	59606.40	3.3800	3.3800	0.1050	26.00	0.03	0.750			
0.9317	59625.98	3.3770	3.3769	0.0989	26.00	0.03	0.750			
0.9320	59645.20	3.3740	3.3738	0.0899	26.00	0.03	0.750			
0.9322	59661.66	3.3710	3.3709	0.0817	26.01	0.04	0.750			
0.9325	59677.62	3.3680	3.3680	0.0754	26.01	0.04	0.750			
0.9327	59691.17	3.3650	3.3656	0.0658	26.01	0.04	0.750			
0.9329	59704.24	3.3620	3.3624	0.0565	26.01	0.04	0.750			
0.9330	59713.99	3.3590	3.3598	0.0451	26.01	0.04	0.750			
0.9331	59721.55	3.3560	3.3569	0.0337	26.01	0.04	0.750			
0.9332	59726.93	3.3530	3.3543	0.0223	26.01	0.04	0.750			
