Ah_balance (normalized)	Ah_balance (mAh)	Voltage - fit (V)	Voltage -  interpolate (V)	dQ/dV (1/V)	Temperature (°C)	Temperature - diff (°C)	Current (C)	R_DC 0ms (mOhm)	R_DC 50ms (mOhm)	R_DC 50 ms PEC (mOhm)
0.0515	3297.94	4.1980	4.1980	0.7688	26.45	0.46	0.750			
0.0538	3444.38	4.1950	4.1951	0.7627	26.46	0.47	0.750			
0.0561	3593.50	4.1920	4.1920	0.7703	26.46	0.47	0.750			
0.0584	3740.64	4.1890	4.1886	0.7708	26.46	0.47	0.750			
0.0608	3889.74	4.1860	4.1860	0.7692	26.46	0.47	0.750			
0.0631	4036.36	4.1830	4.1831	0.7658	26.46	0.47	0.750			
0.0654	4183.91	4.1800	4.1799	0.7681	26.47	0.48	0.750			
0.0677	4331.45	4.1770	4.1770	0.7676	26.47	0.48	0.750			
0.0699	4475.96	4.1740	4.1740	0.7658	26.47	0.48	0.750			
0.0723	4624.13	4.1710	4.1710	0.7700	26.47	0.48	0.750			
0.0746	4771.53	4.1680	4.1680	0.7733	26.47	0.48	0.750			
0.0769	4921.56	4.1650	4.1650	0.7726	26.47	0.48	0.750			
0.0792	5069.15	4.1620	4.1621	0.7738	26.46	0.47	0.750			
0.0815	5217.08	4.1590	4.1591	0.7774	26.46	0.47	0.750			
0.0838	5365.89	4.1560	4.1557	0.7806	26.46	0.47	0.750			
0.0862	5516.64	4.1530	4.1530	0.7827	26.46	0.47	0.750			
0.0886	5667.54	4.1500	4.1501	0.7867	26.46	0.47	0.750			
0.0909	5818.76	4.1470	4.1470	0.7914	26.46	0.47	0.750			
0.0933	5971.02	4.1440	4.1441	0.7891	26.46	0.47	0.750			
0.0957	6123.59	4.1410	4.1408	0.7941	26.46	0.47	0.750			
0.0981	6275.27	4.1380	4.1381	0.7950	26.46	0.47	0.750			
0.1005	6430.71	4.1350	4.1350	0.7884	26.46	0.47	0.750			
0.1028	6581.33	4.1320	4.1321	0.7939	26.46	0.47	0.750			
0.1052	6731.85	4.1290	4.1291	0.7954	26.46	0.47	0.750			
0.1076	6883.24	4.1260	4.1260	0.7955	26.46	0.47	0.750			
0.1099	7036.70	4.1230	4.1231	0.8003	26.46	0.47	0.750			
0.1124	7191.69	4.1200	4.1200	0.7952	26.46	0.47	0.750			
0.1148	7346.08	4.1170	4.1171	0.7982	26.46	0.47	0.750			
0.1172	7500.57	4.1140	4.1140	0.7998	26.46	0.47	0.750			
0.1195	7650.23	4.1110	4.1110	0.7940	26.46	0.47	0.750			
0.1219	7801.20	4.1080	4.1083	0.7928	26.46	0.47	0.750			
0.1243	7954.15	4.1050	4.1050	0.8000	26.46	0.47	0.750			
0.1267	8108.05	4.1020	4.1020	0.7990	26.46	0.47	0.750			
0.1291	8262.07	4.0990	4.0991	0.8044	26.46	0.47	0.750			
0.1315	8415.04	4.0960	4.0961	0.8078	26.46	0.47	0.750			
0.1339	8570.22	4.0930	4.0927	0.8119	26.46	0.47	0.750			
0.1364	8727.51	4.0900	4.0901	0.8168	26.46	0.47	0.750			
0.1388	8884.47	4.0870	4.0870	0.8239	26.47	0.48	0.750			
0.1413	9045.36	4.0840	4.0841	0.8297	26.47	0.48	0.750			
0.1438	9205.18	4.0810	4.0809	0.8278	26.48	0.49	0.750			
0.1463	9366.12	4.0780	4.0780	0.8291	26.48	0.49	0.750			
0.1488	9525.44	4.0750	4.0751	0.8289	26.48	0.49	0.750			
0.1513	9684.88	4.0720	4.0721	0.8280	26.48	0.49	0.750			
0.1538	9842.45	4.0690	4.0689	0.8280	26.48	0.49	0.750			
0.1562	9999.60	4.0660	4.0660	0.8275	26.48	0.49	0.750			
0.1587	10159.24	4.0630	4.0630	0.8273	26.48	0.49	0.750			
0.1612	10317.64	4.0600	4.0599	0.8280	26.48	0.49	0.750			
0.1637	10478.23	4.0570	4.0571	0.8308	26.48	0.49	0.750			
0.1662	10635.70	4.0540	4.0540	0.8335	26.48	0.49	0.750			
0.1687	10795.54	4.0510	4.0510	0.8411	26.48	0.49	0.750			
0.1712	10957.57	4.0480	4.0478	0.8473	26.48	0.49	0.750			
0.1738	11121.57	4.0450	4.0450	0.8508	26.48	0.49	0.750			
0.1764	11286.62	4.0420	4.0421	0.8576	26.48	0.49	0.750			
0.1790	11452.82	4.0390	4.0390	0.8621	26.48	0.49	0.750			
0.1815	11617.29	4.0360	4.0360	0.8604	26.48	0.49	0.750			
0.1841	11782.06	4.0330	4.0330	0.8636	26.48	0.49	0.750			
0.1867	11951.32	4.0300	4.0300	0.8560	26.49	0.50	0.750			
0.1893	12115.99	4.0270	4.0269	0.8601	26.49	0.50	0.750			
0.1919	12279.57	4.0240	4.0241	0.8635	26.49	0.50	0.750			
0.1944	12444.79	4.0210	4.0211	0.8650	26.50	0.51	0.750			
0.1970	12610.30	4.0180	4.0180	0.8689	26.50	0.51	0.750			
0.1997	12778.91	4.0150	4.0151	0.8690	26.50	0.51	0.750			
0.2023	12945.71	4.0120	4.0120	0.8740	26.50	0.51	0.750			
0.2049	13115.33	4.0090	4.0091	0.8800	26.49	0.50	0.750			
0.2075	13282.05	4.0060	4.0060	0.8796	26.49	0.50	0.750			
0.2102	13451.65	4.0030	4.0030	0.8860	26.49	0.50	0.750			
0.2129	13623.93	4.0000	4.0000	0.8857	26.49	0.50	0.750			
0.2155	13793.90	3.9970	3.9970	0.8912	26.49	0.50	0.750			
0.2183	13970.59	3.9940	3.9941	0.8927	26.49	0.50	0.750			
0.2210	14140.99	3.9910	3.9906	0.8765	26.49	0.50	0.750			
0.2236	14307.60	3.9880	3.9880	0.8733	26.49	0.50	0.750			
0.2262	14473.61	3.9850	3.9853	0.8689	26.49	0.50	0.750			
0.2287	14637.58	3.9820	3.9817	0.8758	26.50	0.51	0.750			
0.2313	14805.28	3.9790	3.9790	0.8852	26.50	0.51	0.750			
0.2339	14972.27	3.9760	3.9760	0.8883	26.50	0.51	0.750			
0.2367	15146.76	3.9730	3.9731	0.9013	26.50	0.51	0.750			
0.2395	15325.82	3.9700	3.9700	0.9137	26.50	0.51	0.750			
0.2422	15500.01	3.9670	3.9670	0.9153	26.50	0.51	0.750			
0.2449	15676.48	3.9640	3.9640	0.9184	26.50	0.51	0.750			
0.2477	15853.37	3.9610	3.9610	0.9194	26.50	0.51	0.750			
0.2505	16030.23	3.9580	3.9580	0.9220	26.50	0.51	0.750			
0.2533	16208.58	3.9550	3.9550	0.9238	26.50	0.51	0.750			
0.2560	16386.95	3.9520	3.9521	0.9276	26.50	0.51	0.750			
0.2588	16563.90	3.9490	3.9489	0.9243	26.50	0.51	0.750			
0.2616	16742.17	3.9460	3.9460	0.9192	26.50	0.51	0.750			
0.2643	16917.28	3.9430	3.9430	0.9252	26.50	0.51	0.750			
0.2671	17095.78	3.9400	3.9400	0.9254	26.50	0.51	0.750			
0.2699	17273.67	3.9370	3.9369	0.9296	26.50	0.51	0.750			
0.2727	17453.47	3.9340	3.9342	0.9304	26.50	0.51	0.750			
0.2755	17631.53	3.9310	3.9311	0.9338	26.50	0.51	0.750			
0.2783	17811.36	3.9280	3.9279	0.9407	26.50	0.51	0.750			
0.2811	17991.42	3.9250	3.9251	0.9476	26.50	0.51	0.750			
0.2840	18173.50	3.9220	3.9219	0.9484	26.50	0.51	0.750			
0.2868	18357.59	3.9190	3.9190	0.9499	26.50	0.51	0.750			
0.2897	18540.50	3.9160	3.9159	0.9497	26.50	0.51	0.750			
0.2926	18723.67	3.9130	3.9132	0.9509	26.51	0.52	0.750			
0.2954	18906.21	3.9100	3.9100	0.9492	26.51	0.52	0.750			
0.2983	19088.14	3.9070	3.9069	0.9452	26.51	0.52	0.750			
0.3011	19268.49	3.9040	3.9040	0.9502	26.51	0.52	0.750			
0.3039	19451.10	3.9010	3.9010	0.9551	26.50	0.51	0.750			
0.3068	19634.30	3.8980	3.8980	0.9606	26.50	0.51	0.750			
0.3097	19818.57	3.8950	3.8950	0.9625	26.50	0.51	0.750			
0.3126	20003.73	3.8920	3.8921	0.9608	26.50	0.51	0.750			
0.3154	20188.78	3.8890	3.8890	0.9623	26.50	0.51	0.750			
0.3183	20373.40	3.8860	3.8861	0.9676	26.50	0.51	0.750			
0.3212	20558.47	3.8830	3.8827	0.9680	26.50	0.51	0.750			
0.3242	20746.17	3.8800	3.8800	0.9627	26.50	0.51	0.750			
0.3270	20929.92	3.8770	3.8771	0.9808	26.50	0.51	0.750			
0.3300	21119.38	3.8740	3.8740	0.9911	26.49	0.50	0.750			
0.3330	21309.31	3.8710	3.8707	0.9964	26.49	0.50	0.750			
0.3360	21504.12	3.8680	3.8682	1.0047	26.48	0.49	0.750			
0.3390	21697.42	3.8650	3.8650	1.0161	26.48	0.49	0.750			
0.3421	21895.20	3.8620	3.8621	1.0245	26.47	0.48	0.750			
0.3452	22090.90	3.8590	3.8589	1.0225	26.46	0.47	0.750			
0.3483	22288.65	3.8560	3.8560	1.0298	26.46	0.47	0.750			
0.3514	22487.68	3.8530	3.8531	1.0424	26.46	0.47	0.750			
0.3545	22686.88	3.8500	3.8500	1.0549	26.45	0.46	0.750			
0.3577	22892.30	3.8470	3.8469	1.0687	26.45	0.46	0.750			
0.3609	23097.19	3.8440	3.8439	1.0746	26.44	0.45	0.750			
0.3642	23306.22	3.8410	3.8410	1.0863	26.44	0.45	0.750			
0.3674	23515.34	3.8380	3.8382	1.0956	26.43	0.44	0.750			
0.3707	23727.43	3.8350	3.8346	1.1013	26.42	0.43	0.750			
0.3740	23935.89	3.8320	3.8320	1.0999	26.41	0.42	0.750			
0.3773	24147.62	3.8290	3.8290	1.1074	26.41	0.42	0.750			
0.3806	24359.17	3.8260	3.8262	1.1191	26.40	0.41	0.750			
0.3840	24578.45	3.8230	3.8225	1.1162	26.39	0.40	0.750			
0.3874	24792.96	3.8200	3.8203	1.1295	26.38	0.39	0.750			
0.3908	25010.18	3.8170	3.8171	1.1392	26.37	0.38	0.750			
0.3942	25231.13	3.8140	3.8141	1.1520	26.36	0.37	0.750			
0.3976	25448.67	3.8110	3.8112	1.1456	26.36	0.37	0.750			
0.4011	25670.05	3.8080	3.8081	1.1587	26.35	0.36	0.750			
0.4046	25896.17	3.8050	3.8050	1.1700	26.34	0.35	0.750			
0.4082	26124.15	3.8020	3.8018	1.1758	26.33	0.34	0.750			
0.4117	26350.14	3.7990	3.7992	1.1838	26.32	0.33	0.750			
0.4153	26577.49	3.7960	3.7960	1.1928	26.31	0.32	0.750			
0.4189	26807.84	3.7930	3.7930	1.2025	26.30	0.31	0.750			
0.4225	27038.95	3.7900	3.7901	1.2013	26.29	0.30	0.750			
0.4261	27271.09	3.7870	3.7870	1.2143	26.28	0.29	0.750			
0.4298	27504.44	3.7840	3.7841	1.2214	26.27	0.28	0.750			
0.4334	27740.75	3.7810	3.7807	1.2270	26.26	0.27	0.750			
0.4371	27974.39	3.7780	3.7780	1.2443	26.25	0.26	0.750			
0.4408	28213.29	3.7750	3.7750	1.2680	26.24	0.25	0.750			
0.4447	28461.32	3.7720	3.7719	1.2800	26.23	0.24	0.750			
0.4486	28707.78	3.7690	3.7691	1.3078	26.22	0.23	0.750			
0.4525	28957.62	3.7660	3.7662	1.3408	26.21	0.22	0.750			
0.4566	29220.06	3.7630	3.7630	1.3677	26.20	0.21	0.750			
0.4607	29483.04	3.7600	3.7598	1.4146	26.18	0.19	0.750	0.304	0.385	
0.4650	29757.87	3.7570	3.7572	1.4485	26.17	0.18	0.750			
0.4694	30043.18	3.7540	3.7539	1.4690	26.16	0.17	0.750			
0.4739	30331.80	3.7510	3.7511	1.5181	26.14	0.15	0.750			
0.4785	30622.15	3.7480	3.7481	1.5220	26.13	0.14	0.750			
0.4831	30918.21	3.7450	3.7446	1.5459	26.11	0.12	0.750			
0.4877	31212.42	3.7420	3.7420	1.5730	26.10	0.11	0.750			
0.4924	31515.53	3.7390	3.7394	1.6212	26.09	0.10	0.750			
0.4974	31833.80	3.7360	3.7356	1.6668	26.08	0.09	0.750			
0.5024	32155.39	3.7330	3.7328	1.7183	26.06	0.07	0.750			
0.5076	32487.95	3.7300	3.7300	1.7626	26.05	0.06	0.750			
0.5131	32840.67	3.7270	3.7270	1.8128	26.04	0.05	0.750			
0.5186	33190.94	3.7240	3.7242	1.8468	26.02	0.03	0.750			
0.5243	33553.02	3.7210	3.7207	1.8842	26.00	0.01	0.750			
0.5300	33918.10	3.7180	3.7178	1.9486	25.98	-0.01	0.750			
0.5358	34293.08	3.7150	3.7150	2.0142	25.96	-0.03	0.750			
0.5420	34686.27	3.7120	3.7122	2.0708	25.95	-0.04	0.750			
0.5483	35088.17	3.7090	3.7090	2.1338	25.93	-0.06	0.750			
0.5548	35508.76	3.7060	3.7060	2.2008	25.92	-0.07	0.750			
0.5615	35937.12	3.7030	3.7028	2.2508	25.90	-0.09	0.750			
0.5685	36382.69	3.7000	3.7001	2.3376	25.88	-0.11	0.750			
0.5755	36830.56	3.6970	3.6970	2.3758	25.86	-0.13	0.750			
0.5826	37284.07	3.6940	3.6939	2.5161	25.84	-0.15	0.750			
0.5903	37780.51	3.6910	3.6909	2.5721	25.83	-0.16	0.750			
0.5983	38292.97	3.6880	3.6879	2.6466	25.81	-0.18	0.750			
0.6064	38808.08	3.6850	3.6853	2.6994	25.80	-0.19	0.750			
0.6146	39335.86	3.6820	3.6820	2.7463	25.78	-0.21	0.750			
0.6227	39854.19	3.6790	3.6789	2.8445	25.76	-0.23	0.750			
0.6312	40394.98	3.6760	3.6758	2.9520	25.75	-0.24	0.750			
0.6404	40983.44	3.6730	3.6731	3.1035	25.73	-0.26	0.750			
0.6499	41594.12	3.6700	3.6698	3.1438	25.72	-0.27	0.750			
0.6595	42207.11	3.6670	3.6671	3.1971	25.71	-0.28	0.750			
0.6692	42829.56	3.6640	3.6639	3.1767	25.70	-0.29	0.750			
0.6788	43445.76	3.6610	3.6611	2.9558	25.69	-0.30	0.750			
0.6875	43999.96	3.6580	3.6580	2.6965	25.69	-0.30	0.750			
0.6946	44456.22	3.6550	3.6551	2.3532	25.70	-0.29	0.750			
0.7013	44883.94	3.6520	3.6521	2.1187	25.70	-0.29	0.750			
0.7071	45251.93	3.6490	3.6487	1.8912	25.70	-0.29	0.750			
0.7123	45589.37	3.6460	3.6460	1.7315	25.70	-0.29	0.750			
0.7174	45911.11	3.6430	3.6431	1.5969	25.70	-0.29	0.750			
0.7218	46193.61	3.6400	3.6398	1.4678	25.70	-0.29	0.750			
0.7259	46458.07	3.6370	3.6372	1.3613	25.70	-0.29	0.750			
0.7297	46703.65	3.6340	3.6341	1.2921	25.70	-0.29	0.750			
0.7335	46945.98	3.6310	3.6307	1.2515	25.70	-0.29	0.750			
0.7371	47175.10	3.6280	3.6281	1.2142	25.70	-0.29	0.750			
0.7407	47404.52	3.6250	3.6250	1.2065	25.70	-0.29	0.750			
0.7443	47638.00	3.6220	3.6220	1.2041	25.70	-0.29	0.750			
0.7479	47865.41	3.6190	3.6190	1.2058	25.70	-0.29	0.750			
0.7515	48094.75	3.6160	3.6160	1.2159	25.70	-0.29	0.750			
0.7552	48333.41	3.6130	3.6130	1.2147	25.70	-0.29	0.750			
0.7589	48570.47	3.6100	3.6099	1.2055	25.70	-0.29	0.750			
0.7625	48801.19	3.6070	3.6072	1.2012	25.70	-0.29	0.750			
0.7661	49032.00	3.6040	3.6041	1.1846	25.70	-0.29	0.750			
0.7696	49257.27	3.6010	3.6008	1.1717	25.70	-0.29	0.750			
0.7731	49477.00	3.5980	3.5981	1.1540	25.70	-0.29	0.750			
0.7765	49693.16	3.5950	3.5950	1.1554	25.70	-0.29	0.750			
0.7799	49914.71	3.5920	3.5920	1.1883	25.71	-0.28	0.750			
0.7835	50144.17	3.5890	3.5888	1.2093	25.71	-0.28	0.750			
0.7871	50374.89	3.5860	3.5860	1.2336	25.71	-0.28	0.750			
0.7909	50618.22	3.5830	3.5831	1.2738	25.70	-0.29	0.750			
0.7948	50869.08	3.5800	3.5800	1.2973	25.70	-0.29	0.750			
0.7987	51116.29	3.5770	3.5770	1.3469	25.70	-0.29	0.750			
0.8027	51375.56	3.5740	3.5741	1.3937	25.70	-0.29	0.750			
0.8070	51649.54	3.5710	3.5708	1.4288	25.70	-0.29	0.750			
0.8114	51928.77	3.5680	3.5680	1.4874	25.70	-0.29	0.750			
0.8160	52224.16	3.5650	3.5652	1.5229	25.70	-0.29	0.750			
0.8206	52520.67	3.5620	3.5618	1.5659	25.70	-0.29	0.750			
0.8254	52828.17	3.5590	3.5589	1.5760	25.70	-0.29	0.750			
0.8302	53135.50	3.5560	3.5562	1.5845	25.69	-0.30	0.750			
0.8350	53442.01	3.5530	3.5532	1.6058	25.69	-0.30	0.750			
0.8398	53749.87	3.5500	3.5497	1.6231	25.70	-0.29	0.750			
0.8448	54065.08	3.5470	3.5470	1.6133	25.70	-0.29	0.750			
0.8496	54374.36	3.5440	3.5442	1.6357	25.70	-0.29	0.750			
0.8545	54687.41	3.5410	3.5412	1.6624	25.70	-0.29	0.750			
0.8594	55001.90	3.5380	3.5379	1.6941	25.70	-0.29	0.750			
0.8646	55333.19	3.5350	3.5350	1.7263	25.71	-0.28	0.750			
0.8700	55679.61	3.5320	3.5319	1.7229	25.72	-0.27	0.750			
0.8755	56030.02	3.5290	3.5286	1.6645	25.73	-0.26	0.750			
0.8809	56377.35	3.5260	3.5257	1.4952	25.75	-0.24	0.750			
0.8855	56669.81	3.5230	3.5235	1.2734	25.77	-0.22	0.750			
0.8888	56884.93	3.5200	3.5202	1.0077	25.79	-0.20	0.750			
0.8912	57034.36	3.5170	3.5167	0.7406	25.80	-0.19	0.750			
0.8926	57124.19	3.5140	3.5140	0.5435	25.80	-0.19	0.750			
0.8938	57206.10	3.5110	3.5108	0.4403	25.81	-0.18	0.750			
0.8949	57271.27	3.5080	3.5079	0.3771	25.81	-0.18	0.750			
0.8959	57337.48	3.5050	3.5048	0.3465	25.82	-0.17	0.750			
0.8969	57399.55	3.5020	3.5019	0.3261	25.83	-0.16	0.750			
0.8978	57459.89	3.4990	3.4991	0.3114	25.83	-0.16	0.750			
0.8987	57518.69	3.4960	3.4960	0.3005	25.84	-0.15	0.750			
0.8996	57575.32	3.4930	3.4930	0.2911	25.85	-0.14	0.750			
0.9005	57628.93	3.4900	3.4900	0.2802	25.85	-0.14	0.750			
0.9013	57681.04	3.4870	3.4870	0.2745	25.86	-0.13	0.750			
0.9021	57733.31	3.4840	3.4839	0.2692	25.86	-0.13	0.750			
0.9029	57784.81	3.4810	3.4810	0.2645	25.87	-0.12	0.750			
0.9037	57835.32	3.4780	3.4779	0.2588	25.88	-0.11	0.750			
0.9044	57884.75	3.4750	3.4751	0.2535	25.88	-0.11	0.750			
0.9052	57933.04	3.4720	3.4718	0.2477	25.89	-0.10	0.750			
0.9059	57979.81	3.4690	3.4690	0.2409	25.89	-0.10	0.750			
0.9066	58025.36	3.4660	3.4659	0.2375	25.90	-0.09	0.750			
0.9073	58069.75	3.4630	3.4630	0.2326	25.90	-0.09	0.750			
0.9080	58114.19	3.4600	3.4600	0.2296	25.91	-0.08	0.750			
0.9087	58158.06	3.4570	3.4570	0.2253	25.91	-0.08	0.750			
0.9094	58201.14	3.4540	3.4541	0.2217	25.92	-0.07	0.750			
0.9101	58243.51	3.4510	3.4510	0.2174	25.92	-0.07	0.750			
0.9107	58285.21	3.4480	3.4480	0.2130	25.92	-0.07	0.750			
0.9113	58325.23	3.4450	3.4450	0.2068	25.93	-0.06	0.750			
0.9119	58364.49	3.4420	3.4420	0.2021	25.93	-0.06	0.750			
0.9125	58402.93	3.4390	3.4390	0.1981	25.94	-0.05	0.750			
0.9131	58440.14	3.4360	3.4361	0.1934	25.94	-0.05	0.750			
0.9137	58477.13	3.4330	3.4330	0.1893	25.94	-0.05	0.750			
0.9143	58513.05	3.4300	3.4299	0.1850	25.95	-0.04	0.750			
0.9148	58548.02	3.4270	3.4270	0.1809	25.95	-0.04	0.750			
0.9154	58582.60	3.4240	3.4240	0.1767	25.95	-0.04	0.750			
0.9159	58616.29	3.4210	3.4210	0.1722	25.96	-0.03	0.750			
0.9164	58648.87	3.4180	3.4179	0.1672	25.96	-0.03	0.750			
0.9169	58680.57	3.4150	3.4150	0.1615	25.96	-0.03	0.750			
0.9174	58711.18	3.4120	3.4121	0.1562	25.97	-0.02	0.750			
0.9178	58740.89	3.4090	3.4090	0.1509	25.97	-0.02	0.750			
0.9183	58769.12	3.4060	3.4060	0.1454	25.97	-0.02	0.750			
0.9187	58796.15	3.4030	3.4030	0.1398	25.98	-0.01	0.750			
0.9191	58822.43	3.4000	3.4000	0.1347	25.98	-0.01	0.750			
0.9195	58848.04	3.3970	3.3970	0.1293	25.98	-0.01	0.750			
0.9199	58872.34	3.3940	3.3940	0.1239	25.98	-0.01	0.750			
0.9203	58896.09	3.3910	3.3910	0.1181	25.99	-0.00	0.750			
0.9206	58918.33	3.3880	3.3881	0.1120	25.99	-0.00	0.750			
0.9209	58940.41	3.3850	3.3847	0.1027	25.99	-0.00	0.750			
0.9212	58959.71	3.3820	3.3820	0.0954	25.99	0.00	0.750			
0.9215	58977.10	3.3790	3.3794	0.0857	25.99	0.00	0.750			
0.9218	58993.37	3.3760	3.3760	0.0771	25.99	0.00	0.750			
0.9220	59007.16	3.3730	3.3732	0.0666	26.00	0.01	0.750			
0.9222	59020.04	3.3700	3.3702	0.0561	26.00	0.01	0.750			
0.9223	59029.69	3.3670	3.3676	0.0444	26.00	0.01	0.750			
0.9225	59037.09	3.3640	3.3650	0.0327	26.00	0.01	0.750			
0.9225	59042.23	3.3610	3.3627	0.0209	26.00	0.01	0.750			
