Ah_balance (normalized)	Ah_balance (mAh)	Voltage - fit (V)	Voltage -  interpolate (V)	dQ/dV (1/V)	Temperature (°C)	Temperature - diff (°C)	Current (C)	R_DC 0ms (mOhm)	R_DC 50ms (mOhm)	R_DC 50 ms PEC (mOhm)
0.0001	8.56	4.1670	4.1668	-0.1000	25.66	0.02	-0.750			
0.0005	33.19	4.1640	4.1638	-0.1519	25.66	0.02	-0.750			
0.0010	66.55	4.1610	4.1610	-0.1980	25.66	0.02	-0.750			
0.0017	109.39	4.1580	4.1580	-0.2440	25.66	0.02	-0.750			
0.0025	161.32	4.1550	4.1550	-0.2868	25.65	0.01	-0.750			
0.0035	221.25	4.1520	4.1520	-0.3307	25.65	0.01	-0.750			
0.0045	288.86	4.1490	4.1490	-0.3672	25.65	0.01	-0.750			
0.0057	363.25	4.1460	4.1461	-0.4074	25.65	0.01	-0.750			
0.0070	445.91	4.1430	4.1430	-0.4434	25.65	0.01	-0.750			
0.0084	534.97	4.1400	4.1398	-0.4746	25.64	0.00	-0.750			
0.0098	629.92	4.1370	4.1371	-0.5073	25.64	0.00	-0.750			
0.0114	731.36	4.1340	4.1342	-0.5352	25.64	-0.00	-0.750			
0.0131	838.47	4.1310	4.1310	-0.5602	25.64	-0.00	-0.750			
0.0148	949.08	4.1280	4.1279	-0.5823	25.63	-0.01	-0.750			
0.0166	1061.95	4.1250	4.1251	-0.5990	25.63	-0.01	-0.750			
0.0185	1181.94	4.1220	4.1219	-0.6172	25.63	-0.01	-0.750			
0.0203	1301.22	4.1190	4.1190	-0.6324	25.63	-0.01	-0.750			
0.0223	1424.15	4.1160	4.1160	-0.6449	25.62	-0.02	-0.750			
0.0242	1549.45	4.1130	4.1131	-0.6573	25.62	-0.02	-0.750			
0.0262	1677.98	4.1100	4.1098	-0.6683	25.61	-0.03	-0.750			
0.0282	1806.56	4.1070	4.1071	-0.6769	25.61	-0.03	-0.750			
0.0303	1936.69	4.1040	4.1041	-0.6839	25.60	-0.04	-0.750			
0.0324	2072.03	4.1010	4.1010	-0.6950	25.60	-0.04	-0.750			
0.0344	2204.75	4.0980	4.0979	-0.6965	25.59	-0.05	-0.750			
0.0366	2339.85	4.0950	4.0952	-0.7015	25.59	-0.05	-0.750			
0.0387	2474.02	4.0920	4.0921	-0.7088	25.59	-0.05	-0.750			
0.0408	2610.38	4.0890	4.0890	-0.7142	25.59	-0.05	-0.750			
0.0429	2748.58	4.0860	4.0859	-0.7182	25.58	-0.06	-0.750			
0.0451	2886.62	4.0830	4.0830	-0.7228	25.58	-0.06	-0.750			
0.0473	3026.57	4.0800	4.0799	-0.7254	25.58	-0.06	-0.750			
0.0495	3166.92	4.0770	4.0770	-0.7285	25.58	-0.06	-0.750			
0.0517	3306.60	4.0740	4.0740	-0.7339	25.58	-0.06	-0.750			
0.0538	3445.94	4.0710	4.0710	-0.7388	25.57	-0.07	-0.750			
0.0561	3588.99	4.0680	4.0679	-0.7436	25.57	-0.07	-0.750			
0.0584	3735.09	4.0650	4.0649	-0.7452	25.56	-0.08	-0.750			
0.0606	3878.72	4.0620	4.0620	-0.7467	25.56	-0.08	-0.750			
0.0628	4021.85	4.0590	4.0590	-0.7494	25.56	-0.08	-0.750			
0.0651	4165.17	4.0560	4.0559	-0.7473	25.56	-0.08	-0.750			
0.0673	4308.12	4.0530	4.0529	-0.7500	25.56	-0.08	-0.750			
0.0696	4452.28	4.0500	4.0500	-0.7459	25.57	-0.07	-0.750			
0.0718	4597.90	4.0470	4.0470	-0.7517	25.57	-0.07	-0.750			
0.0741	4741.95	4.0440	4.0442	-0.7579	25.57	-0.07	-0.750			
0.0764	4887.03	4.0410	4.0408	-0.7530	25.57	-0.07	-0.750			
0.0786	5030.58	4.0380	4.0380	-0.7559	25.57	-0.07	-0.750			
0.0808	5174.35	4.0350	4.0352	-0.7614	25.58	-0.06	-0.750			
0.0832	5323.57	4.0320	4.0320	-0.7682	25.58	-0.06	-0.750			
0.0855	5471.06	4.0290	4.0289	-0.7681	25.58	-0.06	-0.750			
0.0878	5617.14	4.0260	4.0260	-0.7682	25.58	-0.06	-0.750			
0.0901	5764.19	4.0230	4.0229	-0.7735	25.58	-0.06	-0.750			
0.0924	5916.42	4.0200	4.0201	-0.7769	25.58	-0.06	-0.750			
0.0948	6064.06	4.0170	4.0170	-0.7735	25.58	-0.06	-0.750			
0.0971	6212.87	4.0140	4.0140	-0.7781	25.58	-0.06	-0.750			
0.0994	6364.11	4.0110	4.0112	-0.7819	25.58	-0.06	-0.750			
0.1017	6511.68	4.0080	4.0079	-0.7834	25.58	-0.06	-0.750			
0.1041	6662.19	4.0050	4.0050	-0.7855	25.58	-0.06	-0.750			
0.1065	6813.22	4.0020	4.0020	-0.7850	25.58	-0.06	-0.750			
0.1088	6965.27	3.9990	3.9990	-0.7894	25.58	-0.06	-0.750			
0.1112	7117.15	3.9960	3.9964	-0.7906	25.58	-0.06	-0.750			
0.1136	7268.63	3.9930	3.9929	-0.7913	25.58	-0.06	-0.750			
0.1159	7420.76	3.9900	3.9900	-0.7973	25.58	-0.06	-0.750			
0.1183	7574.05	3.9870	3.9870	-0.7984	25.58	-0.06	-0.750			
0.1208	7729.36	3.9840	3.9840	-0.7982	25.58	-0.06	-0.750			
0.1232	7883.21	3.9810	3.9811	-0.7952	25.58	-0.06	-0.750			
0.1256	8035.43	3.9780	3.9780	-0.7924	25.58	-0.06	-0.750			
0.1279	8185.49	3.9750	3.9749	-0.7956	25.59	-0.05	-0.750			
0.1303	8337.53	3.9720	3.9720	-0.7923	25.59	-0.05	-0.750			
0.1326	8489.17	3.9690	3.9690	-0.7930	25.59	-0.05	-0.750			
0.1351	8643.71	3.9660	3.9660	-0.7940	25.60	-0.04	-0.750			
0.1374	8794.95	3.9630	3.9631	-0.8038	25.60	-0.04	-0.750			
0.1398	8946.67	3.9600	3.9600	-0.8161	25.60	-0.04	-0.750			
0.1423	9105.56	3.9570	3.9567	-0.8211	25.60	-0.04	-0.750			
0.1447	9263.44	3.9540	3.9540	-0.8269	25.60	-0.04	-0.750			
0.1473	9427.70	3.9510	3.9511	-0.8286	25.60	-0.04	-0.750			
0.1498	9589.38	3.9480	3.9480	-0.8345	25.60	-0.04	-0.750			
0.1523	9750.04	3.9450	3.9449	-0.8301	25.60	-0.04	-0.750			
0.1547	9903.31	3.9420	3.9420	-0.8204	25.60	-0.04	-0.750			
0.1572	10061.11	3.9390	3.9389	-0.8199	25.61	-0.03	-0.750			
0.1597	10220.05	3.9360	3.9361	-0.8280	25.61	-0.03	-0.750			
0.1622	10378.79	3.9330	3.9330	-0.8286	25.61	-0.03	-0.750			
0.1647	10538.65	3.9300	3.9301	-0.8344	25.61	-0.03	-0.750			
0.1672	10698.24	3.9270	3.9270	-0.8333	25.61	-0.03	-0.750			
0.1697	10860.85	3.9240	3.9240	-0.8388	25.62	-0.02	-0.750			
0.1722	11022.12	3.9210	3.9210	-0.8354	25.62	-0.02	-0.750			
0.1747	11182.72	3.9180	3.9180	-0.8371	25.62	-0.02	-0.750			
0.1772	11340.11	3.9150	3.9151	-0.8438	25.62	-0.02	-0.750			
0.1798	11504.28	3.9120	3.9120	-0.8479	25.62	-0.02	-0.750			
0.1823	11666.98	3.9090	3.9088	-0.8504	25.62	-0.02	-0.750			
0.1849	11831.79	3.9060	3.9059	-0.8534	25.62	-0.02	-0.750			
0.1875	11997.83	3.9030	3.9031	-0.8538	25.62	-0.02	-0.750			
0.1900	12160.93	3.9000	3.8999	-0.8565	25.63	-0.01	-0.750			
0.1926	12325.56	3.8970	3.8970	-0.8471	25.63	-0.01	-0.750			
0.1951	12485.25	3.8940	3.8940	-0.8427	25.63	-0.01	-0.750			
0.1976	12648.97	3.8910	3.8910	-0.8512	25.64	-0.00	-0.750			
0.2002	12811.95	3.8880	3.8881	-0.8550	25.64	0.00	-0.750			
0.2028	12976.49	3.8850	3.8849	-0.8582	25.64	0.00	-0.750			
0.2053	13141.70	3.8820	3.8820	-0.8619	25.64	0.00	-0.750			
0.2079	13307.17	3.8790	3.8791	-0.8637	25.64	0.00	-0.750			
0.2106	13475.76	3.8760	3.8759	-0.8692	25.64	0.00	-0.750			
0.2132	13642.36	3.8730	3.8729	-0.8688	25.64	0.00	-0.750			
0.2158	13809.56	3.8700	3.8701	-0.8667	25.64	0.00	-0.750			
0.2184	13974.90	3.8670	3.8670	-0.8662	25.64	0.00	-0.750			
0.2210	14141.39	3.8640	3.8640	-0.8643	25.64	0.00	-0.750			
0.2236	14307.40	3.8610	3.8612	-0.8682	25.64	0.00	-0.750			
0.2261	14473.36	3.8580	3.8580	-0.8722	25.65	0.01	-0.750			
0.2288	14641.84	3.8550	3.8550	-0.8766	25.65	0.01	-0.750			
0.2314	14811.30	3.8520	3.8520	-0.8747	25.66	0.02	-0.750			
0.2341	14980.63	3.8490	3.8490	-0.8761	25.66	0.02	-0.750			
0.2367	15147.15	3.8460	3.8462	-0.8771	25.67	0.03	-0.750			
0.2393	15315.67	3.8430	3.8430	-0.8788	25.67	0.03	-0.750			
0.2419	15483.91	3.8400	3.8399	-0.8761	25.67	0.03	-0.750			
0.2446	15652.59	3.8370	3.8370	-0.8770	25.68	0.04	-0.750			
0.2472	15821.34	3.8340	3.8341	-0.8797	25.68	0.04	-0.750			
0.2499	15990.98	3.8310	3.8310	-0.8815	25.68	0.04	-0.750			
0.2525	16160.57	3.8280	3.8279	-0.8813	25.68	0.04	-0.750			
0.2551	16329.14	3.8250	3.8250	-0.8792	25.68	0.04	-0.750			
0.2578	16498.48	3.8220	3.8220	-0.8771	25.68	0.04	-0.750			
0.2604	16666.65	3.8190	3.8190	-0.8773	25.68	0.04	-0.750			
0.2631	16835.82	3.8160	3.8159	-0.8760	25.68	0.04	-0.750			
0.2657	17003.54	3.8130	3.8130	-0.8760	25.69	0.05	-0.750			
0.2683	17171.03	3.8100	3.8099	-0.8743	25.69	0.05	-0.750			
0.2709	17339.52	3.8070	3.8070	-0.8722	25.70	0.06	-0.750			
0.2736	17507.49	3.8040	3.8042	-0.8759	25.70	0.06	-0.750			
0.2762	17675.31	3.8010	3.8009	-0.8781	25.70	0.06	-0.750			
0.2788	17842.87	3.7980	3.7980	-0.8759	25.71	0.07	-0.750			
0.2814	18011.13	3.7950	3.7950	-0.8768	25.71	0.07	-0.750			
0.2841	18181.86	3.7920	3.7920	-0.8784	25.72	0.08	-0.750			
0.2867	18348.83	3.7890	3.7892	-0.8765	25.72	0.08	-0.750			
0.2893	18517.59	3.7860	3.7859	-0.8752	25.72	0.08	-0.750			
0.2920	18685.09	3.7830	3.7830	-0.8717	25.72	0.08	-0.750			
0.2946	18852.79	3.7800	3.7799	-0.8726	25.72	0.08	-0.750			
0.2972	19020.77	3.7770	3.7770	-0.8730	25.72	0.08	-0.750			
0.2998	19188.21	3.7740	3.7740	-0.8714	25.72	0.08	-0.750			
0.3024	19355.54	3.7710	3.7709	-0.8723	25.73	0.09	-0.750			
0.3050	19522.21	3.7680	3.7680	-0.8686	25.74	0.10	-0.750			
0.3076	19688.37	3.7650	3.7650	-0.8629	25.75	0.11	-0.750			
0.3102	19854.93	3.7620	3.7620	-0.8633	25.76	0.12	-0.750			
0.3128	20019.40	3.7590	3.7591	-0.8601	25.76	0.12	-0.750			
0.3154	20183.80	3.7560	3.7560	-0.8649	25.76	0.12	-0.750			
0.3180	20349.75	3.7530	3.7529	-0.8647	25.77	0.13	-0.750			
0.3206	20515.83	3.7500	3.7500	-0.8689	25.77	0.13	-0.750			
0.3232	20683.48	3.7470	3.7471	-0.8747	25.77	0.13	-0.750			
0.3258	20853.53	3.7440	3.7439	-0.8802	25.77	0.13	-0.750			
0.3285	21022.34	3.7410	3.7410	-0.8811	25.78	0.14	-0.750			
0.3311	21190.24	3.7380	3.7380	-0.8831	25.78	0.14	-0.750			
0.3337	21360.00	3.7350	3.7350	-0.8847	25.79	0.15	-0.750			
0.3364	21531.73	3.7320	3.7320	-0.8913	25.79	0.15	-0.750			
0.3391	21702.29	3.7290	3.7290	-0.8931	25.79	0.15	-0.750			
0.3418	21872.16	3.7260	3.7261	-0.9015	25.79	0.15	-0.750			
0.3445	22045.94	3.7230	3.7230	-0.9116	25.79	0.15	-0.750			
0.3472	22220.46	3.7200	3.7200	-0.9267	25.79	0.15	-0.750			
0.3500	22400.08	3.7170	3.7169	-0.9424	25.79	0.15	-0.750			
0.3529	22583.50	3.7140	3.7141	-0.9670	25.79	0.15	-0.750			
0.3558	22772.87	3.7110	3.7110	-0.9750	25.79	0.15	-0.750			
0.3588	22962.49	3.7080	3.7080	-0.9921	25.79	0.15	-0.750			
0.3618	23153.61	3.7050	3.7052	-1.0005	25.79	0.15	-0.750			
0.3648	23346.02	3.7020	3.7018	-1.0174	25.79	0.15	-0.750			
0.3678	23540.84	3.6990	3.6990	-1.0300	25.80	0.16	-0.750			
0.3709	23739.45	3.6960	3.6958	-1.0451	25.80	0.16	-0.750			
0.3741	23943.77	3.6930	3.6932	-1.0712	25.80	0.16	-0.750			
0.3773	24150.25	3.6900	3.6899	-1.0950	25.80	0.16	-0.750			
0.3806	24359.38	3.6870	3.6870	-1.1154	25.79	0.15	-0.750			
0.3840	24575.11	3.6840	3.6840	-1.1459	25.79	0.15	-0.750			
0.3875	24798.75	3.6810	3.6810	-1.1679	25.79	0.15	-0.750			
0.3910	25026.42	3.6780	3.6781	-1.1844	25.79	0.15	-0.750			
0.3946	25255.44	3.6750	3.6749	-1.2083	25.79	0.15	-0.750			
0.3983	25488.02	3.6720	3.6720	-1.2331	25.79	0.15	-0.750			
0.4020	25726.79	3.6690	3.6688	-1.2546	25.78	0.14	-0.750			
0.4057	25967.11	3.6660	3.6660	-1.2883	25.78	0.14	-0.750			
0.4097	26218.51	3.6630	3.6631	-1.3327	25.77	0.13	-0.750			
0.4138	26480.29	3.6600	3.6599	-1.3731	25.77	0.13	-0.750			
0.4180	26749.03	3.6570	3.6569	-1.4041	25.76	0.12	-0.750			
0.4222	27019.64	3.6540	3.6541	-1.4317	25.75	0.11	-0.750			
0.4265	27296.43	3.6510	3.6509	-1.4697	25.75	0.11	-0.750			
0.4310	27582.71	3.6480	3.6479	-1.5054	25.74	0.10	-0.750			
0.4355	27873.41	3.6450	3.6450	-1.5393	25.73	0.09	-0.750			
0.4402	28174.69	3.6420	3.6420	-1.5613	25.73	0.09	-0.750			
0.4451	28483.69	3.6390	3.6388	-1.6070	25.72	0.08	-0.750			
0.4500	28801.24	3.6360	3.6360	-1.5985	25.72	0.08	-0.750			
0.4547	29102.20	3.6330	3.6331	-1.6494	25.71	0.07	-0.750			
0.4596	29416.17	3.6300	3.6302	-1.6836	25.69	0.05	-0.750			
0.4647	29739.69	3.6270	3.6271	-1.7266	25.69	0.05	-0.750	0.397	0.487	
0.4701	30084.35	3.6240	3.6240	-1.7772	25.68	0.04	-0.750			
0.4755	30429.38	3.6210	3.6211	-1.8350	25.68	0.04	-0.750			
0.4811	30787.89	3.6180	3.6182	-1.8605	25.67	0.03	-0.750			
0.4867	31149.18	3.6150	3.6151	-1.8696	25.66	0.02	-0.750			
0.4923	31509.77	3.6120	3.6121	-1.8936	25.65	0.01	-0.750			
0.4982	31881.74	3.6090	3.6088	-1.9255	25.64	0.00	-0.750			
0.5039	32250.40	3.6060	3.6057	-1.9566	25.64	-0.00	-0.750			
0.5099	32631.19	3.6030	3.6029	-2.0089	25.63	-0.01	-0.750			
0.5159	33015.81	3.6000	3.6002	-2.0390	25.62	-0.02	-0.750			
0.5221	33411.55	3.5970	3.5970	-2.0872	25.61	-0.03	-0.750			
0.5284	33817.79	3.5940	3.5940	-2.1295	25.61	-0.03	-0.750			
0.5349	34235.86	3.5910	3.5909	-2.1726	25.60	-0.04	-0.750			
0.5416	34663.03	3.5880	3.5881	-2.2024	25.60	-0.04	-0.750			
0.5482	35087.60	3.5850	3.5850	-2.2268	25.59	-0.05	-0.750			
0.5550	35519.71	3.5820	3.5820	-2.2483	25.59	-0.05	-0.750			
0.5617	35951.72	3.5790	3.5791	-2.2639	25.59	-0.05	-0.750			
0.5686	36387.50	3.5760	3.5760	-2.3030	25.58	-0.06	-0.750			
0.5756	36837.22	3.5730	3.5730	-2.3234	25.58	-0.06	-0.750			
0.5826	37285.85	3.5700	3.5699	-2.3493	25.58	-0.06	-0.750			
0.5898	37746.39	3.5670	3.5670	-2.3648	25.58	-0.06	-0.750			
0.5968	38194.21	3.5640	3.5641	-2.3749	25.57	-0.07	-0.750			
0.6041	38660.15	3.5610	3.5609	-2.3758	25.57	-0.07	-0.750			
0.6111	39112.05	3.5580	3.5579	-2.3704	25.58	-0.06	-0.750			
0.6182	39564.92	3.5550	3.5552	-2.3631	25.57	-0.07	-0.750			
0.6254	40024.85	3.5520	3.5520	-2.3622	25.57	-0.07	-0.750			
0.6325	40479.32	3.5490	3.5489	-2.3514	25.57	-0.07	-0.750			
0.6395	40929.00	3.5460	3.5459	-2.3343	25.57	-0.07	-0.750			
0.6465	41375.11	3.5430	3.5431	-2.3170	25.57	-0.07	-0.750			
0.6535	41824.55	3.5400	3.5401	-2.2945	25.57	-0.07	-0.750			
0.6603	42261.30	3.5370	3.5369	-2.2467	25.58	-0.06	-0.750			
0.6671	42691.68	3.5340	3.5340	-2.1936	25.59	-0.05	-0.750			
0.6736	43110.27	3.5310	3.5310	-2.1545	25.60	-0.04	-0.750			
0.6799	43515.82	3.5280	3.5280	-2.1038	25.60	-0.04	-0.750			
0.6861	43911.83	3.5250	3.5248	-2.0448	25.60	-0.04	-0.750			
0.6922	44302.94	3.5220	3.5219	-1.9892	25.61	-0.03	-0.750			
0.6981	44680.93	3.5190	3.5188	-1.9429	25.62	-0.02	-0.750			
0.7039	45051.49	3.5160	3.5159	-1.8851	25.63	-0.01	-0.750			
0.7095	45408.94	3.5130	3.5130	-1.8141	25.64	-0.00	-0.750			
0.7148	45746.54	3.5100	3.5100	-1.7439	25.65	0.01	-0.750			
0.7199	46076.27	3.5070	3.5069	-1.6794	25.67	0.03	-0.750			
0.7249	46395.13	3.5040	3.5040	-1.6168	25.68	0.04	-0.750			
0.7297	46702.49	3.5010	3.5007	-1.5615	25.69	0.05	-0.750			
0.7343	46992.27	3.4980	3.4981	-1.5031	25.70	0.06	-0.750			
0.7387	47276.96	3.4950	3.4949	-1.4565	25.71	0.07	-0.750			
0.7430	47551.08	3.4920	3.4919	-1.4054	25.73	0.09	-0.750			
0.7470	47809.35	3.4890	3.4889	-1.3511	25.74	0.10	-0.750			
0.7511	48067.43	3.4860	3.4860	-1.3078	25.76	0.12	-0.750			
0.7550	48319.75	3.4830	3.4830	-1.2727	25.77	0.13	-0.750			
0.7587	48557.83	3.4800	3.4799	-1.2243	25.78	0.14	-0.750			
0.7623	48785.08	3.4770	3.4771	-1.1777	25.79	0.15	-0.750			
0.7658	49009.69	3.4740	3.4740	-1.1431	25.81	0.17	-0.750			
0.7691	49225.59	3.4710	3.4709	-1.1072	25.82	0.18	-0.750			
0.7724	49433.17	3.4680	3.4681	-1.0643	25.84	0.20	-0.750			
0.7756	49635.36	3.4650	3.4649	-1.0372	25.85	0.21	-0.750			
0.7786	49832.87	3.4620	3.4620	-1.0100	25.86	0.22	-0.750			
0.7816	50023.49	3.4590	3.4589	-0.9802	25.87	0.23	-0.750			
0.7845	50205.80	3.4560	3.4559	-0.9544	25.88	0.24	-0.750			
0.7873	50387.25	3.4530	3.4530	-0.9432	25.89	0.25	-0.750			
0.7900	50562.26	3.4500	3.4499	-0.9374	25.90	0.26	-0.750			
0.7928	50739.52	3.4470	3.4470	-0.9455	25.91	0.27	-0.750			
0.7955	50913.29	3.4440	3.4440	-0.9603	25.91	0.27	-0.750			
0.7985	51103.00	3.4410	3.4409	-1.0009	25.92	0.28	-0.750			
0.8015	51295.89	3.4380	3.4381	-1.0469	25.93	0.29	-0.750			
0.8047	51502.23	3.4350	3.4349	-1.0898	25.93	0.29	-0.750			
0.8081	51717.94	3.4320	3.4319	-1.1285	25.94	0.30	-0.750			
0.8116	51942.06	3.4290	3.4292	-1.1597	25.95	0.31	-0.750			
0.8152	52172.74	3.4260	3.4259	-1.1791	25.96	0.32	-0.750			
0.8188	52404.82	3.4230	3.4230	-1.1728	25.97	0.33	-0.750			
0.8224	52632.30	3.4200	3.4199	-1.1576	25.99	0.35	-0.750			
0.8259	52855.06	3.4170	3.4169	-1.1336	25.99	0.35	-0.750			
0.8292	53070.32	3.4140	3.4139	-1.0960	26.00	0.36	-0.750			
0.8325	53277.49	3.4110	3.4110	-1.0538	26.00	0.36	-0.750			
0.8355	53472.87	3.4080	3.4080	-1.0095	26.01	0.37	-0.750			
0.8385	53664.30	3.4050	3.4051	-0.9814	26.02	0.38	-0.750			
0.8414	53847.86	3.4020	3.4021	-0.9484	26.02	0.38	-0.750			
0.8442	54026.19	3.3990	3.3988	-0.9143	26.03	0.39	-0.750			
0.8469	54199.25	3.3960	3.3957	-0.8831	26.04	0.40	-0.750			
0.8495	54366.77	3.3930	3.3932	-0.8527	26.04	0.40	-0.750			
0.8520	54526.91	3.3900	3.3901	-0.8233	26.05	0.41	-0.750			
0.8544	54681.74	3.3870	3.3869	-0.7921	26.05	0.41	-0.750			
0.8567	54828.66	3.3840	3.3840	-0.7508	26.06	0.42	-0.750			
0.8590	54973.64	3.3810	3.3809	-0.7254	26.06	0.42	-0.750			
0.8611	55110.71	3.3780	3.3784	-0.6960	26.07	0.43	-0.750			
0.8631	55240.47	3.3750	3.3750	-0.6640	26.08	0.44	-0.750			
0.8650	55362.96	3.3720	3.3720	-0.6383	26.08	0.44	-0.750			
0.8669	55481.81	3.3690	3.3689	-0.6118	26.09	0.45	-0.750			
0.8687	55595.72	3.3660	3.3660	-0.5909	26.09	0.45	-0.750			
0.8705	55709.29	3.3630	3.3630	-0.5692	26.10	0.46	-0.750			
0.8722	55818.19	3.3600	3.3600	-0.5479	26.11	0.47	-0.750			
0.8738	55920.42	3.3570	3.3572	-0.5218	26.11	0.47	-0.750			
0.8753	56017.68	3.3540	3.3539	-0.4948	26.12	0.48	-0.750			
0.8767	56108.93	3.3510	3.3510	-0.4712	26.12	0.48	-0.750			
0.8781	56196.24	3.3480	3.3480	-0.4494	26.12	0.48	-0.750			
0.8794	56280.25	3.3450	3.3450	-0.4344	26.13	0.49	-0.750			
0.8807	56362.01	3.3420	3.3420	-0.4176	26.13	0.49	-0.750			
0.8819	56439.98	3.3390	3.3390	-0.4024	26.14	0.50	-0.750			
0.8831	56515.83	3.3360	3.3360	-0.3880	26.14	0.50	-0.750			
0.8842	56589.82	3.3330	3.3330	-0.3726	26.14	0.50	-0.750			
0.8853	56660.06	3.3300	3.3299	-0.3553	26.15	0.51	-0.750			
0.8864	56726.99	3.3270	3.3272	-0.3384	26.15	0.51	-0.750			
0.8873	56788.64	3.3240	3.3242	-0.3238	26.16	0.52	-0.750			
0.8883	56849.14	3.3210	3.3210	-0.3110	26.16	0.52	-0.750			
0.8892	56906.89	3.3180	3.3179	-0.2994	26.17	0.53	-0.750			
0.8900	56962.70	3.3150	3.3149	-0.2884	26.18	0.54	-0.750			
0.8909	57018.02	3.3120	3.3121	-0.2806	26.18	0.54	-0.750			
0.8917	57070.98	3.3090	3.3090	-0.2709	26.19	0.55	-0.750			
0.8925	57122.37	3.3060	3.3060	-0.2619	26.19	0.55	-0.750			
0.8933	57170.99	3.3030	3.3029	-0.2521	26.20	0.56	-0.750			
0.8940	57218.29	3.3000	3.3000	-0.2433	26.20	0.56	-0.750			
0.8948	57264.09	3.2970	3.2970	-0.2351	26.21	0.57	-0.750			
0.8954	57308.79	3.2940	3.2940	-0.2280	26.21	0.57	-0.750			
0.8961	57351.10	3.2910	3.2911	-0.2214	26.21	0.57	-0.750			
0.8968	57392.76	3.2880	3.2880	-0.2147	26.22	0.58	-0.750			
0.8974	57433.45	3.2850	3.2850	-0.2091	26.22	0.58	-0.750			
0.8980	57472.77	3.2820	3.2818	-0.2041	26.23	0.59	-0.750			
0.8986	57511.37	3.2790	3.2793	-0.1989	26.23	0.59	-0.750			
0.8992	57549.45	3.2760	3.2759	-0.1946	26.23	0.59	-0.750			
0.8998	57586.29	3.2730	3.2730	-0.1892	26.24	0.60	-0.750			
0.9003	57621.99	3.2700	3.2700	-0.1849	26.24	0.60	-0.750			
0.9009	57656.51	3.2670	3.2671	-0.1803	26.25	0.61	-0.750			
0.9014	57690.81	3.2640	3.2640	-0.1768	26.25	0.61	-0.750			
0.9019	57724.39	3.2610	3.2609	-0.1733	26.26	0.62	-0.750			
0.9025	57757.21	3.2580	3.2580	-0.1691	26.26	0.62	-0.750			
0.9030	57789.34	3.2550	3.2550	-0.1661	26.26	0.62	-0.750			
0.9035	57821.06	3.2520	3.2520	-0.1629	26.27	0.63	-0.750			
0.9039	57851.97	3.2490	3.2490	-0.1591	26.27	0.63	-0.750			
0.9044	57881.80	3.2460	3.2459	-0.1563	26.28	0.64	-0.750			
0.9049	57911.26	3.2430	3.2430	-0.1535	26.28	0.64	-0.750			
0.9053	57940.55	3.2400	3.2400	-0.1516	26.28	0.64	-0.750			
0.9058	57969.33	3.2370	3.2370	-0.1497	26.29	0.65	-0.750			
0.9062	57998.17	3.2340	3.2340	-0.1472	26.29	0.65	-0.750			
0.9067	58026.05	3.2310	3.2310	-0.1450	26.29	0.65	-0.750			
0.9071	58053.68	3.2280	3.2281	-0.1429	26.30	0.66	-0.750			
0.9075	58081.07	3.2250	3.2250	-0.1411	26.30	0.66	-0.750			
0.9079	58107.81	3.2220	3.2219	-0.1383	26.30	0.66	-0.750			
0.9083	58134.04	3.2190	3.2190	-0.1363	26.31	0.67	-0.750			
0.9088	58160.04	3.2160	3.2161	-0.1345	26.31	0.67	-0.750			
0.9091	58185.58	3.2130	3.2131	-0.1329	26.31	0.67	-0.750			
0.9095	58211.05	3.2100	3.2099	-0.1316	26.32	0.68	-0.750			
0.9099	58235.81	3.2070	3.2070	-0.1296	26.32	0.68	-0.750			
0.9103	58260.61	3.2040	3.2040	-0.1287	26.32	0.68	-0.750			
0.9107	58285.25	3.2010	3.2010	-0.1274	26.33	0.69	-0.750			
0.9111	58309.78	3.1980	3.1980	-0.1264	26.33	0.69	-0.750			
0.9115	58333.91	3.1950	3.1949	-0.1248	26.33	0.69	-0.750			
0.9118	58357.72	3.1920	3.1921	-0.1233	26.34	0.70	-0.750			
0.9122	58381.34	3.1890	3.1890	-0.1216	26.34	0.70	-0.750			
0.9126	58404.62	3.1860	3.1859	-0.1200	26.35	0.71	-0.750			
0.9129	58427.30	3.1830	3.1831	-0.1190	26.35	0.71	-0.750			
0.9133	58449.77	3.1800	3.1800	-0.1175	26.35	0.71	-0.750			
0.9136	58472.15	3.1770	3.1769	-0.1165	26.36	0.72	-0.750			
0.9140	58494.45	3.1740	3.1740	-0.1158	26.36	0.72	-0.750			
0.9143	58516.66	3.1710	3.1710	-0.1146	26.36	0.72	-0.750			
0.9147	58538.57	3.1680	3.1681	-0.1137	26.37	0.73	-0.750			
0.9150	58560.58	3.1650	3.1651	-0.1127	26.37	0.73	-0.750			
0.9153	58582.07	3.1620	3.1620	-0.1112	26.38	0.74	-0.750			
0.9157	58602.99	3.1590	3.1590	-0.1102	26.38	0.74	-0.750			
0.9160	58624.06	3.1560	3.1560	-0.1094	26.38	0.74	-0.750			
0.9163	58644.69	3.1530	3.1529	-0.1087	26.39	0.75	-0.750			
0.9166	58665.55	3.1500	3.1500	-0.1085	26.39	0.75	-0.750			
0.9170	58686.60	3.1470	3.1470	-0.1075	26.39	0.75	-0.750			
0.9173	58707.17	3.1440	3.1440	-0.1067	26.40	0.76	-0.750			
0.9176	58727.88	3.1410	3.1412	-0.1063	26.40	0.76	-0.750			
0.9179	58748.14	3.1380	3.1380	-0.1048	26.40	0.76	-0.750			
0.9182	58768.00	3.1350	3.1348	-0.1037	26.41	0.77	-0.750			
0.9186	58787.81	3.1320	3.1320	-0.1026	26.41	0.77	-0.750			
0.9189	58807.27	3.1290	3.1290	-0.1012	26.41	0.77	-0.750			
0.9192	58826.62	3.1260	3.1260	-0.1004	26.42	0.78	-0.750			
0.9195	58845.72	3.1230	3.1231	-0.1001	26.42	0.78	-0.750			
0.9198	58864.91	3.1200	3.1201	-0.0996	26.42	0.78	-0.750			
0.9201	58883.91	3.1170	3.1168	-0.0995	26.43	0.79	-0.750			
0.9204	58902.80	3.1140	3.1140	-0.0991	26.43	0.79	-0.750			
0.9207	58922.02	3.1110	3.1110	-0.0982	26.43	0.79	-0.750			
0.9210	58940.89	3.1080	3.1080	-0.0977	26.43	0.79	-0.750			
0.9212	58959.56	3.1050	3.1050	-0.0972	26.44	0.80	-0.750			
0.9215	58978.44	3.1020	3.1021	-0.0968	26.44	0.80	-0.750			
0.9218	58996.87	3.0990	3.0989	-0.0960	26.44	0.80	-0.750			
0.9221	59015.08	3.0960	3.0961	-0.0950	26.45	0.81	-0.750			
0.9224	59033.23	3.0930	3.0929	-0.0945	26.45	0.81	-0.750			
0.9227	59051.13	3.0900	3.0900	-0.0939	26.45	0.81	-0.750			
0.9230	59069.23	3.0870	3.0870	-0.0931	26.45	0.81	-0.750			
0.9232	59087.29	3.0840	3.0841	-0.0928	26.46	0.82	-0.750			
0.9235	59104.94	3.0810	3.0809	-0.0924	26.46	0.82	-0.750			
0.9238	59122.47	3.0780	3.0780	-0.0916	26.46	0.82	-0.750			
0.9241	59140.07	3.0750	3.0750	-0.0911	26.47	0.83	-0.750			
0.9243	59157.54	3.0720	3.0718	-0.0906	26.47	0.83	-0.750			
0.9246	59174.85	3.0690	3.0690	-0.0902	26.48	0.84	-0.750			
0.9249	59192.06	3.0660	3.0660	-0.0897	26.48	0.84	-0.750			
0.9251	59209.27	3.0630	3.0631	-0.0892	26.49	0.85	-0.750			
0.9254	59226.45	3.0600	3.0598	-0.0889	26.49	0.85	-0.750			
0.9257	59243.39	3.0570	3.0570	-0.0886	26.49	0.85	-0.750			
0.9259	59260.23	3.0540	3.0541	-0.0880	26.50	0.86	-0.750			
0.9262	59277.17	3.0510	3.0509	-0.0876	26.50	0.86	-0.750			
0.9265	59294.04	3.0480	3.0480	-0.0874	26.51	0.87	-0.750			
0.9267	59310.83	3.0450	3.0450	-0.0867	26.51	0.87	-0.750			
0.9270	59327.45	3.0420	3.0420	-0.0861	26.52	0.88	-0.750			
0.9272	59343.83	3.0390	3.0390	-0.0858	26.52	0.88	-0.750			
0.9275	59360.27	3.0360	3.0360	-0.0854	26.52	0.88	-0.750			
0.9278	59376.64	3.0330	3.0330	-0.0850	26.53	0.89	-0.750			
0.9280	59392.80	3.0300	3.0299	-0.0844	26.53	0.89	-0.750			
0.9283	59408.98	3.0270	3.0270	-0.0841	26.54	0.90	-0.750			
0.9285	59425.14	3.0240	3.0240	-0.0837	26.54	0.90	-0.750			
0.9288	59441.18	3.0210	3.0211	-0.0833	26.55	0.91	-0.750			
0.9290	59457.41	3.0180	3.0180	-0.0827	26.55	0.91	-0.750			
0.9293	59473.20	3.0150	3.0150	-0.0818	26.55	0.91	-0.750			
0.9295	59488.81	3.0120	3.0120	-0.0808	26.56	0.92	-0.750			
0.9298	59504.24	3.0090	3.0091	-0.0799	26.56	0.92	-0.751			
0.9300	59519.69	3.0060	3.0059	-0.0783	26.57	0.93	-0.751			
0.9302	59534.56	3.0030	3.0030	-0.0766	26.57	0.93	-0.751			
