Ah_balance (normalized)	Ah_balance (mAh)	Voltage - fit (V)	Voltage -  interpolate (V)	dQ/dV (1/V)	Temperature (°C)	Temperature - diff (°C)	Current (C)	R_DC 0ms (mOhm)	R_DC 50ms (mOhm)	R_DC 50 ms PEC (mOhm)
0.0003	18.38	4.1620	4.1619	-0.1172	25.84	0.02	-0.750			
0.0007	45.88	4.1590	4.1590	-0.1630	25.84	0.02	-0.750			
0.0013	81.73	4.1560	4.1559	-0.2038	25.84	0.02	-0.750			
0.0020	125.25	4.1530	4.1530	-0.2415	25.84	0.02	-0.750			
0.0027	175.66	4.1500	4.1501	-0.2760	25.84	0.02	-0.750			
0.0036	232.40	4.1470	4.1470	-0.3144	25.83	0.01	-0.750			
0.0046	296.47	4.1440	4.1441	-0.3487	25.83	0.01	-0.750			
0.0057	366.69	4.1410	4.1409	-0.3813	25.83	0.01	-0.750			
0.0069	443.10	4.1380	4.1380	-0.4147	25.83	0.01	-0.750			
0.0083	528.13	4.1350	4.1350	-0.4400	25.82	0.00	-0.750			
0.0096	616.01	4.1320	4.1317	-0.4628	25.82	0.00	-0.750			
0.0111	708.42	4.1290	4.1291	-0.4861	25.82	-0.00	-0.750			
0.0125	802.91	4.1260	4.1261	-0.5036	25.81	-0.01	-0.750			
0.0141	901.85	4.1230	4.1229	-0.5225	25.81	-0.01	-0.750			
0.0157	1003.58	4.1200	4.1200	-0.5388	25.81	-0.01	-0.750			
0.0173	1108.50	4.1170	4.1170	-0.5622	25.80	-0.02	-0.750			
0.0191	1220.11	4.1140	4.1141	-0.5807	25.80	-0.02	-0.750			
0.0209	1334.48	4.1110	4.1108	-0.5960	25.79	-0.03	-0.750			
0.0227	1450.60	4.1080	4.1082	-0.6052	25.79	-0.03	-0.750			
0.0245	1568.86	4.1050	4.1050	-0.6143	25.78	-0.04	-0.750			
0.0264	1686.80	4.1020	4.1020	-0.6232	25.78	-0.04	-0.750			
0.0282	1805.99	4.0990	4.0990	-0.6321	25.77	-0.05	-0.750			
0.0301	1929.41	4.0960	4.0960	-0.6407	25.77	-0.05	-0.750			
0.0321	2053.21	4.0930	4.0929	-0.6447	25.76	-0.06	-0.750			
0.0340	2178.68	4.0900	4.0901	-0.6502	25.75	-0.07	-0.750			
0.0360	2303.95	4.0870	4.0870	-0.6571	25.75	-0.07	-0.750			
0.0380	2429.99	4.0840	4.0840	-0.6635	25.75	-0.07	-0.750			
0.0400	2557.84	4.0810	4.0809	-0.6653	25.75	-0.07	-0.750			
0.0420	2686.28	4.0780	4.0780	-0.6721	25.75	-0.07	-0.750			
0.0440	2817.63	4.0750	4.0749	-0.6758	25.75	-0.07	-0.750			
0.0461	2948.45	4.0720	4.0720	-0.6808	25.75	-0.07	-0.750			
0.0481	3078.61	4.0690	4.0691	-0.6829	25.75	-0.07	-0.750			
0.0501	3209.09	4.0660	4.0659	-0.6829	25.75	-0.07	-0.750			
0.0522	3339.93	4.0630	4.0630	-0.6901	25.75	-0.07	-0.750			
0.0543	3472.56	4.0600	4.0600	-0.6871	25.75	-0.07	-0.750			
0.0564	3607.06	4.0570	4.0571	-0.6949	25.75	-0.07	-0.750			
0.0585	3741.32	4.0540	4.0539	-0.6994	25.75	-0.07	-0.750			
0.0605	3874.42	4.0510	4.0511	-0.7017	25.75	-0.07	-0.750			
0.0626	4008.96	4.0480	4.0479	-0.7039	25.75	-0.07	-0.750			
0.0648	4144.58	4.0450	4.0451	-0.7108	25.75	-0.07	-0.750			
0.0669	4282.78	4.0420	4.0419	-0.7089	25.75	-0.07	-0.750			
0.0691	4421.16	4.0390	4.0390	-0.7104	25.75	-0.07	-0.750			
0.0712	4555.83	4.0360	4.0360	-0.7124	25.75	-0.07	-0.750			
0.0733	4691.80	4.0330	4.0330	-0.7142	25.75	-0.07	-0.750			
0.0754	4828.29	4.0300	4.0299	-0.7155	25.75	-0.07	-0.750			
0.0776	4967.09	4.0270	4.0270	-0.7219	25.75	-0.07	-0.750			
0.0798	5106.78	4.0240	4.0240	-0.7266	25.74	-0.08	-0.750			
0.0820	5248.82	4.0210	4.0210	-0.7294	25.74	-0.08	-0.750			
0.0842	5389.57	4.0180	4.0180	-0.7283	25.74	-0.08	-0.750			
0.0864	5527.59	4.0150	4.0149	-0.7270	25.74	-0.08	-0.750			
0.0885	5667.04	4.0120	4.0120	-0.7266	25.74	-0.08	-0.750			
0.0907	5806.06	4.0090	4.0090	-0.7336	25.74	-0.08	-0.750			
0.0929	5947.47	4.0060	4.0060	-0.7325	25.75	-0.07	-0.750			
0.0952	6089.89	4.0030	4.0030	-0.7370	25.75	-0.07	-0.750			
0.0974	6231.81	4.0000	4.0003	-0.7403	25.75	-0.07	-0.750			
0.0996	6373.81	3.9970	3.9969	-0.7429	25.75	-0.07	-0.750			
0.1018	6515.55	3.9940	3.9940	-0.7453	25.75	-0.07	-0.750			
0.1041	6659.96	3.9910	3.9910	-0.7436	25.75	-0.07	-0.750			
0.1063	6803.81	3.9880	3.9880	-0.7494	25.75	-0.07	-0.750			
0.1086	6947.81	3.9850	3.9849	-0.7503	25.75	-0.07	-0.750			
0.1108	7092.08	3.9820	3.9820	-0.7449	25.75	-0.07	-0.750			
0.1130	7233.49	3.9790	3.9789	-0.7476	25.75	-0.07	-0.750			
0.1153	7376.07	3.9760	3.9761	-0.7518	25.75	-0.07	-0.750			
0.1175	7521.38	3.9730	3.9730	-0.7523	25.75	-0.07	-0.750			
0.1198	7668.03	3.9700	3.9699	-0.7588	25.75	-0.07	-0.750			
0.1221	7813.81	3.9670	3.9672	-0.7599	25.75	-0.07	-0.750			
0.1244	7960.27	3.9640	3.9639	-0.7639	25.75	-0.07	-0.750			
0.1267	8106.86	3.9610	3.9610	-0.7722	25.76	-0.06	-0.750			
0.1290	8254.06	3.9580	3.9580	-0.7662	25.76	-0.06	-0.750			
0.1313	8401.20	3.9550	3.9550	-0.7664	25.76	-0.06	-0.750			
0.1336	8551.93	3.9520	3.9520	-0.7709	25.77	-0.05	-0.750			
0.1359	8698.46	3.9490	3.9488	-0.7705	25.77	-0.05	-0.750			
0.1382	8845.65	3.9460	3.9460	-0.7736	25.77	-0.05	-0.750			
0.1405	8994.26	3.9430	3.9431	-0.7752	25.77	-0.05	-0.750			
0.1429	9142.53	3.9400	3.9400	-0.7759	25.78	-0.04	-0.750			
0.1452	9294.52	3.9370	3.9370	-0.7827	25.78	-0.04	-0.750			
0.1476	9443.84	3.9340	3.9341	-0.7860	25.78	-0.04	-0.750			
0.1499	9594.72	3.9310	3.9310	-0.7873	25.78	-0.04	-0.750			
0.1523	9746.03	3.9280	3.9280	-0.7905	25.78	-0.04	-0.750			
0.1547	9899.27	3.9250	3.9250	-0.7906	25.79	-0.03	-0.750			
0.1571	10051.64	3.9220	3.9220	-0.7946	25.79	-0.03	-0.750			
0.1594	10204.13	3.9190	3.9191	-0.7944	25.79	-0.03	-0.750			
0.1618	10356.42	3.9160	3.9160	-0.7952	25.79	-0.03	-0.750			
0.1642	10508.68	3.9130	3.9130	-0.8004	25.79	-0.03	-0.750			
0.1666	10663.31	3.9100	3.9100	-0.8035	25.80	-0.02	-0.750			
0.1690	10819.01	3.9070	3.9069	-0.7991	25.80	-0.02	-0.750			
0.1715	10974.57	3.9040	3.9041	-0.8022	25.80	-0.02	-0.750			
0.1739	11126.58	3.9010	3.9009	-0.8005	25.80	-0.02	-0.750			
0.1762	11279.34	3.8980	3.8979	-0.8002	25.80	-0.02	-0.750			
0.1786	11432.05	3.8950	3.8949	-0.8013	25.81	-0.01	-0.750			
0.1810	11583.46	3.8920	3.8921	-0.8022	25.81	-0.01	-0.750			
0.1835	11741.84	3.8890	3.8890	-0.8114	25.81	-0.01	-0.750			
0.1859	11899.19	3.8860	3.8860	-0.8137	25.81	-0.01	-0.750			
0.1883	12053.95	3.8830	3.8830	-0.8149	25.82	-0.00	-0.750			
0.1908	12211.08	3.8800	3.8800	-0.8155	25.82	0.00	-0.750			
0.1933	12368.34	3.8770	3.8770	-0.8153	25.83	0.01	-0.750			
0.1957	12525.66	3.8740	3.8739	-0.8123	25.84	0.02	-0.750			
0.1982	12682.00	3.8710	3.8711	-0.8080	25.84	0.02	-0.750			
0.2005	12834.39	3.8680	3.8681	-0.8130	25.84	0.02	-0.750			
0.2030	12991.79	3.8650	3.8650	-0.8075	25.84	0.02	-0.750			
0.2054	13145.56	3.8620	3.8619	-0.8013	25.85	0.03	-0.750			
0.2078	13300.21	3.8590	3.8589	-0.8047	25.85	0.03	-0.750			
0.2102	13454.84	3.8560	3.8563	-0.8083	25.85	0.03	-0.750			
0.2127	13610.28	3.8530	3.8529	-0.8090	25.85	0.03	-0.750			
0.2151	13764.89	3.8500	3.8500	-0.8132	25.85	0.03	-0.750			
0.2175	13920.25	3.8470	3.8471	-0.8069	25.86	0.04	-0.750			
0.2200	14080.46	3.8440	3.8439	-0.8199	25.86	0.04	-0.750			
0.2225	14236.87	3.8410	3.8411	-0.8189	25.86	0.04	-0.750			
0.2249	14393.56	3.8380	3.8380	-0.8152	25.86	0.04	-0.750			
0.2273	14549.36	3.8350	3.8349	-0.8200	25.86	0.04	-0.750			
0.2298	14708.23	3.8320	3.8320	-0.8167	25.87	0.05	-0.750			
0.2323	14865.35	3.8290	3.8290	-0.8164	25.87	0.05	-0.750			
0.2347	15021.98	3.8260	3.8262	-0.8146	25.87	0.05	-0.750			
0.2372	15178.15	3.8230	3.8230	-0.8120	25.87	0.05	-0.750			
0.2396	15332.35	3.8200	3.8199	-0.8154	25.88	0.06	-0.750			
0.2420	15489.05	3.8170	3.8169	-0.8158	25.88	0.06	-0.750			
0.2445	15646.76	3.8140	3.8140	-0.8126	25.89	0.07	-0.750			
0.2469	15803.91	3.8110	3.8111	-0.8092	25.89	0.07	-0.750			
0.2493	15958.18	3.8080	3.8081	-0.8092	25.90	0.08	-0.750			
0.2518	16112.65	3.8050	3.8049	-0.8091	25.90	0.08	-0.750			
0.2542	16267.63	3.8020	3.8019	-0.8036	25.91	0.09	-0.750			
0.2566	16421.39	3.7990	3.7990	-0.7945	25.92	0.10	-0.750			
0.2590	16576.03	3.7960	3.7961	-0.7980	25.93	0.11	-0.750			
0.2614	16729.50	3.7930	3.7930	-0.7928	25.93	0.11	-0.750			
0.2637	16878.15	3.7900	3.7900	-0.7962	25.93	0.11	-0.750			
0.2661	17030.84	3.7870	3.7869	-0.7882	25.93	0.11	-0.750			
0.2685	17181.81	3.7840	3.7840	-0.7847	25.93	0.11	-0.750			
0.2709	17335.82	3.7810	3.7810	-0.7869	25.93	0.11	-0.750			
0.2732	17486.21	3.7780	3.7780	-0.7803	25.93	0.11	-0.750			
0.2755	17634.37	3.7750	3.7750	-0.7780	25.94	0.12	-0.750			
0.2778	17781.61	3.7720	3.7720	-0.7714	25.94	0.12	-0.750			
0.2801	17927.11	3.7690	3.7690	-0.7668	25.94	0.12	-0.750			
0.2825	18078.60	3.7660	3.7660	-0.7670	25.95	0.13	-0.750			
0.2848	18224.92	3.7630	3.7631	-0.7635	25.95	0.13	-0.750			
0.2870	18369.80	3.7600	3.7600	-0.7642	25.95	0.13	-0.750			
0.2893	18514.97	3.7570	3.7570	-0.7654	25.96	0.14	-0.750			
0.2916	18662.33	3.7540	3.7539	-0.7644	25.96	0.14	-0.750			
0.2939	18809.31	3.7510	3.7510	-0.7671	25.96	0.14	-0.750			
0.2962	18957.06	3.7480	3.7481	-0.7736	25.97	0.15	-0.750			
0.2985	19106.70	3.7450	3.7449	-0.7774	25.97	0.15	-0.750			
0.3008	19254.16	3.7420	3.7420	-0.7856	25.98	0.16	-0.750			
0.3032	19405.69	3.7390	3.7390	-0.7928	25.98	0.16	-0.750			
0.3056	19558.62	3.7360	3.7360	-0.8014	25.98	0.16	-0.750			
0.3080	19714.67	3.7330	3.7330	-0.8133	25.99	0.17	-0.750			
0.3105	19871.93	3.7300	3.7300	-0.8217	25.99	0.17	-0.750			
0.3130	20030.48	3.7270	3.7270	-0.8284	25.99	0.17	-0.750			
0.3155	20191.96	3.7240	3.7240	-0.8404	25.99	0.17	-0.750			
0.3180	20352.12	3.7210	3.7210	-0.8510	26.00	0.18	-0.750			
0.3206	20516.58	3.7180	3.7179	-0.8676	26.00	0.18	-0.750			
0.3232	20683.72	3.7150	3.7151	-0.8815	26.00	0.18	-0.750			
0.3258	20854.39	3.7120	3.7118	-0.8971	26.00	0.18	-0.750			
0.3286	21028.50	3.7090	3.7090	-0.9129	26.00	0.18	-0.750			
0.3313	21205.13	3.7060	3.7060	-0.9244	25.99	0.17	-0.750			
0.3342	21386.44	3.7030	3.7031	-0.9444	25.99	0.17	-0.750			
0.3370	21565.37	3.7000	3.7000	-0.9641	25.99	0.17	-0.750			
0.3399	21754.18	3.6970	3.6969	-0.9808	25.99	0.17	-0.750			
0.3429	21943.82	3.6940	3.6939	-0.9987	25.99	0.17	-0.750			
0.3459	22138.61	3.6910	3.6909	-1.0126	25.99	0.17	-0.750			
0.3490	22335.85	3.6880	3.6879	-1.0413	25.99	0.17	-0.750			
0.3522	22538.21	3.6850	3.6849	-1.0581	25.98	0.16	-0.750			
0.3553	22741.82	3.6820	3.6820	-1.0734	25.98	0.16	-0.750			
0.3585	22946.98	3.6790	3.6791	-1.0920	25.97	0.15	-0.750			
0.3619	23162.67	3.6760	3.6759	-1.1202	25.97	0.15	-0.750			
0.3653	23378.88	3.6730	3.6730	-1.1400	25.96	0.14	-0.750			
0.3687	23599.83	3.6700	3.6700	-1.1628	25.96	0.14	-0.750			
0.3722	23822.13	3.6670	3.6670	-1.1841	25.95	0.13	-0.750			
0.3759	24055.72	3.6640	3.6640	-1.2185	25.95	0.13	-0.750			
0.3796	24291.38	3.6610	3.6610	-1.2430	25.94	0.12	-0.750			
0.3833	24529.25	3.6580	3.6579	-1.2773	25.94	0.12	-0.750			
0.3872	24779.96	3.6550	3.6550	-1.3058	25.94	0.12	-0.750			
0.3912	25034.59	3.6520	3.6519	-1.3316	25.93	0.11	-0.750			
0.3952	25292.58	3.6490	3.6490	-1.3597	25.93	0.11	-0.750			
0.3993	25556.81	3.6460	3.6460	-1.3835	25.93	0.11	-0.750			
0.4036	25827.91	3.6430	3.6429	-1.4060	25.92	0.10	-0.750			
0.4078	26099.10	3.6400	3.6399	-1.4382	25.91	0.09	-0.750			
0.4121	26372.03	3.6370	3.6371	-1.4679	25.90	0.08	-0.750			
0.4166	26664.75	3.6340	3.6338	-1.4901	25.89	0.07	-0.750			
0.4212	26953.88	3.6310	3.6312	-1.5238	25.88	0.06	-0.750			
0.4257	27247.77	3.6280	3.6279	-1.5433	25.87	0.05	-0.750			
0.4304	27546.66	3.6250	3.6250	-1.5713	25.87	0.05	-0.750			
0.4351	27847.25	3.6220	3.6223	-1.6012	25.86	0.04	-0.750			
0.4399	28153.56	3.6190	3.6189	-1.6408	25.86	0.04	-0.750			
0.4449	28470.71	3.6160	3.6160	-1.6734	25.85	0.03	-0.750	0.399	0.522	
0.4500	28802.72	3.6130	3.6127	-1.7148	25.85	0.03	-0.750			
0.4553	29139.97	3.6100	3.6099	-1.7504	25.84	0.02	-0.750			
0.4606	29476.96	3.6070	3.6071	-1.7797	25.83	0.01	-0.750			
0.4660	29825.29	3.6040	3.6041	-1.7909	25.83	0.01	-0.750			
0.4713	30161.37	3.6010	3.6010	-1.8265	25.82	0.00	-0.750			
0.4768	30513.63	3.5980	3.5980	-1.8646	25.82	-0.00	-0.750			
0.4825	30880.64	3.5950	3.5949	-1.9227	25.81	-0.01	-0.750			
0.4883	31252.67	3.5920	3.5921	-1.9807	25.80	-0.02	-0.750			
0.4944	31639.08	3.5890	3.5888	-2.0046	25.79	-0.03	-0.750			
0.5005	32033.30	3.5860	3.5862	-2.0446	25.79	-0.03	-0.750			
0.5067	32431.98	3.5830	3.5831	-2.0775	25.79	-0.03	-0.750			
0.5130	32829.48	3.5800	3.5797	-2.0950	25.79	-0.03	-0.750			
0.5193	33236.21	3.5770	3.5772	-2.1312	25.78	-0.04	-0.750			
0.5258	33652.70	3.5740	3.5740	-2.1663	25.78	-0.04	-0.750			
0.5324	34071.93	3.5710	3.5709	-2.1813	25.77	-0.05	-0.750			
0.5390	34495.80	3.5680	3.5681	-2.1883	25.77	-0.05	-0.750			
0.5456	34919.56	3.5650	3.5651	-2.2103	25.77	-0.05	-0.750			
0.5522	35339.64	3.5620	3.5620	-2.2195	25.77	-0.05	-0.750			
0.5589	35767.53	3.5590	3.5589	-2.2185	25.77	-0.05	-0.750			
0.5656	36197.66	3.5560	3.5560	-2.2358	25.77	-0.05	-0.750			
0.5723	36627.71	3.5530	3.5530	-2.2436	25.77	-0.05	-0.750			
0.5791	37062.38	3.5500	3.5499	-2.2462	25.77	-0.05	-0.750			
0.5859	37498.35	3.5470	3.5471	-2.2186	25.77	-0.05	-0.750			
0.5925	37922.59	3.5440	3.5440	-2.1921	25.77	-0.05	-0.750			
0.5990	38337.61	3.5410	3.5410	-2.1745	25.77	-0.05	-0.750			
0.6055	38754.60	3.5380	3.5378	-2.1416	25.77	-0.05	-0.750			
0.6119	39162.55	3.5350	3.5351	-2.1154	25.77	-0.05	-0.750			
0.6182	39562.95	3.5320	3.5320	-2.0886	25.78	-0.04	-0.750			
0.6245	39965.68	3.5290	3.5289	-2.0658	25.78	-0.04	-0.750			
0.6307	40366.95	3.5260	3.5261	-2.0175	25.79	-0.03	-0.750			
0.6367	40747.51	3.5230	3.5229	-1.9853	25.79	-0.03	-0.750			
0.6426	41126.59	3.5200	3.5202	-1.9266	25.80	-0.02	-0.750			
0.6484	41494.71	3.5170	3.5169	-1.8677	25.81	-0.01	-0.750			
0.6539	41846.90	3.5140	3.5140	-1.8190	25.83	0.01	-0.750			
0.6592	42190.91	3.5110	3.5108	-1.7564	25.84	0.02	-0.750			
0.6644	42523.21	3.5080	3.5080	-1.6935	25.85	0.03	-0.750			
0.6695	42847.38	3.5050	3.5051	-1.6524	25.86	0.04	-0.750			
0.6742	43150.92	3.5020	3.5019	-1.5825	25.86	0.04	-0.750			
0.6790	43453.71	3.4990	3.4990	-1.5321	25.88	0.06	-0.750			
0.6835	43744.43	3.4960	3.4962	-1.4909	25.89	0.07	-0.750			
0.6879	44025.91	3.4930	3.4929	-1.4449	25.90	0.08	-0.750			
0.6922	44299.26	3.4900	3.4899	-1.4024	25.91	0.09	-0.750			
0.6963	44560.93	3.4870	3.4870	-1.3615	25.93	0.11	-0.750			
0.7003	44818.12	3.4840	3.4838	-1.3133	25.94	0.12	-0.750			
0.7042	45067.52	3.4810	3.4809	-1.2691	25.95	0.13	-0.750			
0.7079	45305.34	3.4780	3.4780	-1.2279	25.96	0.14	-0.750			
0.7115	45534.62	3.4750	3.4750	-1.1909	25.98	0.16	-0.750			
0.7151	45763.54	3.4720	3.4719	-1.1592	25.99	0.17	-0.750			
0.7185	45982.30	3.4690	3.4689	-1.1248	26.00	0.18	-0.750			
0.7218	46194.09	3.4660	3.4662	-1.0887	26.02	0.20	-0.750			
0.7250	46402.81	3.4630	3.4629	-1.0620	26.03	0.21	-0.750			
0.7282	46603.58	3.4600	3.4600	-1.0249	26.04	0.22	-0.750			
0.7312	46795.27	3.4570	3.4569	-0.9910	26.05	0.23	-0.750			
0.7341	46980.00	3.4540	3.4541	-0.9557	26.06	0.24	-0.750			
0.7369	47162.18	3.4510	3.4509	-0.9327	26.07	0.25	-0.750			
0.7396	47337.44	3.4480	3.4481	-0.9070	26.08	0.26	-0.750			
0.7423	47507.71	3.4450	3.4450	-0.8875	26.09	0.27	-0.750			
0.7449	47674.06	3.4420	3.4420	-0.8739	26.10	0.28	-0.750			
0.7475	47839.09	3.4390	3.4390	-0.8689	26.11	0.29	-0.750			
0.7501	48003.27	3.4360	3.4360	-0.8725	26.12	0.30	-0.750			
0.7527	48169.81	3.4330	3.4330	-0.8814	26.13	0.31	-0.750			
0.7553	48338.72	3.4300	3.4300	-0.8970	26.14	0.32	-0.750			
0.7580	48511.47	3.4270	3.4270	-0.9181	26.14	0.32	-0.750			
0.7608	48690.04	3.4240	3.4240	-0.9409	26.15	0.33	-0.750			
0.7637	48874.20	3.4210	3.4210	-0.9652	26.16	0.34	-0.750			
0.7667	49066.69	3.4180	3.4179	-0.9711	26.17	0.35	-0.750			
0.7696	49256.26	3.4150	3.4150	-0.9756	26.18	0.36	-0.750			
0.7726	49444.67	3.4120	3.4123	-0.9735	26.19	0.37	-0.750			
0.7755	49630.88	3.4090	3.4090	-0.9652	26.20	0.38	-0.750			
0.7784	49815.89	3.4060	3.4058	-0.9485	26.20	0.38	-0.750			
0.7812	49996.94	3.4030	3.4030	-0.9232	26.20	0.38	-0.750			
0.7840	50175.46	3.4000	3.4001	-0.9075	26.21	0.39	-0.750			
0.7867	50347.27	3.3970	3.3970	-0.8799	26.21	0.39	-0.750			
0.7893	50512.47	3.3940	3.3939	-0.8526	26.22	0.40	-0.750			
0.7918	50673.41	3.3910	3.3910	-0.8226	26.23	0.41	-0.750			
0.7942	50827.39	3.3880	3.3879	-0.7949	26.23	0.41	-0.750			
0.7966	50980.99	3.3850	3.3851	-0.7704	26.24	0.42	-0.750			
0.7988	51125.96	3.3820	3.3819	-0.7406	26.24	0.42	-0.750			
0.8010	51264.97	3.3790	3.3789	-0.7077	26.25	0.43	-0.750			
0.8031	51395.65	3.3760	3.3762	-0.6845	26.25	0.43	-0.750			
0.8050	51522.72	3.3730	3.3730	-0.6545	26.26	0.44	-0.750			
0.8070	51648.64	3.3700	3.3699	-0.6333	26.26	0.44	-0.750			
0.8089	51766.94	3.3670	3.3670	-0.6086	26.27	0.45	-0.750			
0.8107	51882.35	3.3640	3.3642	-0.5910	26.27	0.45	-0.750			
0.8124	51992.45	3.3610	3.3609	-0.5677	26.28	0.46	-0.750			
0.8141	52099.31	3.3580	3.3580	-0.5454	26.28	0.46	-0.750			
0.8156	52200.31	3.3550	3.3550	-0.5244	26.29	0.47	-0.750			
0.8172	52299.73	3.3520	3.3520	-0.5126	26.29	0.47	-0.750			
0.8187	52397.52	3.3490	3.3490	-0.4960	26.30	0.48	-0.750			
0.8202	52490.86	3.3460	3.3460	-0.4782	26.30	0.48	-0.750			
0.8216	52581.02	3.3430	3.3430	-0.4600	26.31	0.49	-0.750			
0.8229	52668.49	3.3400	3.3400	-0.4443	26.31	0.49	-0.750			
0.8242	52751.61	3.3370	3.3370	-0.4305	26.32	0.50	-0.750			
0.8255	52831.84	3.3340	3.3339	-0.4144	26.32	0.50	-0.750			
0.8267	52909.79	3.3310	3.3309	-0.3981	26.33	0.51	-0.750			
0.8279	52985.35	3.3280	3.3281	-0.3881	26.33	0.51	-0.750			
0.8290	53058.96	3.3250	3.3250	-0.3755	26.34	0.52	-0.750			
0.8301	53129.40	3.3220	3.3221	-0.3653	26.34	0.52	-0.750			
0.8312	53197.92	3.3190	3.3189	-0.3547	26.35	0.53	-0.750			
0.8323	53264.40	3.3160	3.3161	-0.3458	26.35	0.53	-0.750			
0.8333	53330.41	3.3130	3.3129	-0.3372	26.35	0.53	-0.750			
0.8343	53395.11	3.3100	3.3098	-0.3257	26.36	0.54	-0.750			
0.8353	53456.78	3.3070	3.3069	-0.3147	26.36	0.54	-0.750			
0.8362	53516.23	3.3040	3.3041	-0.3060	26.37	0.55	-0.750			
0.8371	53572.61	3.3010	3.3011	-0.2958	26.37	0.55	-0.750			
0.8379	53628.73	3.2980	3.2979	-0.2888	26.38	0.56	-0.750			
0.8388	53683.84	3.2950	3.2950	-0.2825	26.39	0.57	-0.750			
0.8396	53737.10	3.2920	3.2921	-0.2780	26.39	0.57	-0.750			
0.8405	53790.12	3.2890	3.2890	-0.2724	26.40	0.58	-0.750			
0.8413	53841.87	3.2860	3.2859	-0.2660	26.40	0.58	-0.750			
0.8421	53892.43	3.2830	3.2831	-0.2601	26.41	0.59	-0.750			
0.8428	53941.44	3.2800	3.2801	-0.2539	26.41	0.59	-0.750			
0.8436	53990.31	3.2770	3.2769	-0.2485	26.42	0.60	-0.750			
0.8443	54036.81	3.2740	3.2740	-0.2450	26.42	0.60	-0.750			
0.8450	54083.09	3.2710	3.2710	-0.2387	26.43	0.61	-0.750			
0.8458	54128.71	3.2680	3.2679	-0.2349	26.43	0.61	-0.750			
0.8465	54173.56	3.2650	3.2648	-0.2312	26.43	0.61	-0.750			
0.8471	54217.56	3.2620	3.2622	-0.2282	26.44	0.62	-0.750			
0.8478	54261.33	3.2590	3.2589	-0.2242	26.44	0.62	-0.750			
0.8485	54303.89	3.2560	3.2558	-0.2200	26.45	0.63	-0.750			
0.8492	54345.87	3.2530	3.2531	-0.2158	26.45	0.63	-0.750			
0.8498	54386.10	3.2500	3.2501	-0.2113	26.46	0.64	-0.750			
0.8504	54427.12	3.2470	3.2469	-0.2084	26.46	0.64	-0.750			
0.8510	54466.17	3.2440	3.2440	-0.2047	26.47	0.65	-0.750			
0.8516	54505.16	3.2410	3.2410	-0.2015	26.47	0.65	-0.750			
0.8522	54543.10	3.2380	3.2381	-0.1986	26.48	0.66	-0.750			
0.8528	54581.11	3.2350	3.2349	-0.1965	26.48	0.66	-0.750			
0.8534	54618.37	3.2320	3.2320	-0.1942	26.48	0.66	-0.750			
0.8540	54655.51	3.2290	3.2291	-0.1926	26.49	0.67	-0.750			
0.8546	54692.51	3.2260	3.2260	-0.1897	26.49	0.67	-0.750			
0.8551	54729.12	3.2230	3.2230	-0.1876	26.50	0.68	-0.750			
0.8557	54764.70	3.2200	3.2200	-0.1840	26.50	0.68	-0.750			
0.8562	54799.73	3.2170	3.2171	-0.1809	26.50	0.68	-0.750			
0.8568	54834.05	3.2140	3.2140	-0.1793	26.51	0.69	-0.750			
0.8573	54868.00	3.2110	3.2110	-0.1770	26.51	0.69	-0.750			
0.8578	54901.42	3.2080	3.2079	-0.1748	26.52	0.70	-0.750			
0.8584	54935.01	3.2050	3.2050	-0.1733	26.52	0.70	-0.750			
0.8589	54968.71	3.2020	3.2020	-0.1708	26.52	0.70	-0.750			
0.8594	55001.22	3.1990	3.1990	-0.1689	26.53	0.71	-0.750			
0.8599	55033.60	3.1960	3.1961	-0.1665	26.53	0.71	-0.750			
0.8604	55065.05	3.1930	3.1931	-0.1650	26.54	0.72	-0.750			
0.8609	55095.96	3.1900	3.1899	-0.1633	26.54	0.72	-0.750			
0.8614	55127.35	3.1870	3.1870	-0.1615	26.55	0.73	-0.750			
0.8618	55158.27	3.1840	3.1839	-0.1605	26.55	0.73	-0.750			
0.8623	55189.11	3.1810	3.1810	-0.1590	26.55	0.73	-0.750			
0.8628	55219.88	3.1780	3.1781	-0.1584	26.56	0.74	-0.750			
0.8633	55249.94	3.1750	3.1750	-0.1560	26.56	0.74	-0.750			
0.8637	55279.72	3.1720	3.1719	-0.1542	26.57	0.75	-0.750			
0.8642	55308.98	3.1690	3.1690	-0.1526	26.57	0.75	-0.750			
0.8647	55338.16	3.1660	3.1661	-0.1505	26.58	0.76	-0.750			
0.8651	55367.02	3.1630	3.1631	-0.1497	26.58	0.76	-0.750			
0.8656	55395.59	3.1600	3.1599	-0.1479	26.59	0.77	-0.750			
0.8660	55423.59	3.1570	3.1570	-0.1469	26.59	0.77	-0.750			
0.8664	55451.49	3.1540	3.1539	-0.1455	26.59	0.77	-0.750			
0.8669	55479.57	3.1510	3.1511	-0.1446	26.60	0.78	-0.750			
0.8673	55507.22	3.1480	3.1479	-0.1434	26.60	0.78	-0.750			
0.8677	55534.62	3.1450	3.1451	-0.1426	26.61	0.79	-0.750			
0.8682	55562.02	3.1420	3.1421	-0.1421	26.61	0.79	-0.750			
0.8686	55589.05	3.1390	3.1389	-0.1407	26.61	0.79	-0.750			
0.8690	55616.13	3.1360	3.1360	-0.1389	26.62	0.80	-0.750			
0.8694	55642.59	3.1330	3.1330	-0.1376	26.62	0.80	-0.750			
0.8698	55668.84	3.1300	3.1300	-0.1367	26.63	0.81	-0.750			
0.8702	55695.08	3.1270	3.1271	-0.1358	26.63	0.81	-0.750			
0.8706	55720.94	3.1240	3.1239	-0.1350	26.64	0.82	-0.750			
0.8710	55746.74	3.1210	3.1210	-0.1331	26.64	0.82	-0.750			
0.8714	55772.22	3.1180	3.1180	-0.1321	26.65	0.83	-0.750			
0.8718	55797.40	3.1150	3.1150	-0.1314	26.65	0.83	-0.750			
0.8722	55822.88	3.1120	3.1121	-0.1307	26.66	0.84	-0.750			
0.8726	55847.76	3.1090	3.1090	-0.1292	26.66	0.84	-0.750			
0.8730	55872.22	3.1060	3.1058	-0.1282	26.67	0.85	-0.750			
0.8734	55896.80	3.1030	3.1030	-0.1275	26.68	0.86	-0.750			
0.8738	55921.14	3.1000	3.1000	-0.1267	26.68	0.86	-0.750			
0.8741	55945.56	3.0970	3.0970	-0.1257	26.69	0.87	-0.750			
0.8745	55969.93	3.0940	3.0940	-0.1251	26.69	0.87	-0.750			
0.8749	55993.56	3.0910	3.0910	-0.1240	26.70	0.88	-0.750			
0.8753	56017.41	3.0880	3.0881	-0.1234	26.70	0.88	-0.750			
0.8756	56040.97	3.0850	3.0850	-0.1225	26.71	0.89	-0.750			
0.8760	56064.25	3.0820	3.0820	-0.1213	26.71	0.89	-0.750			
0.8764	56087.45	3.0790	3.0789	-0.1207	26.72	0.90	-0.750			
0.8767	56110.48	3.0760	3.0761	-0.1199	26.72	0.90	-0.750			
0.8771	56133.47	3.0730	3.0730	-0.1194	26.73	0.91	-0.750			
0.8774	56156.45	3.0700	3.0700	-0.1189	26.73	0.91	-0.750			
0.8778	56179.26	3.0670	3.0669	-0.1180	26.74	0.92	-0.750			
0.8782	56201.79	3.0640	3.0640	-0.1171	26.74	0.92	-0.750			
0.8785	56224.26	3.0610	3.0609	-0.1162	26.75	0.93	-0.750			
0.8789	56246.63	3.0580	3.0580	-0.1154	26.75	0.93	-0.750			
0.8792	56268.53	3.0550	3.0551	-0.1148	26.75	0.93	-0.750			
0.8795	56290.39	3.0520	3.0521	-0.1138	26.76	0.94	-0.750			
0.8799	56312.26	3.0490	3.0489	-0.1129	26.76	0.94	-0.750			
0.8802	56333.79	3.0460	3.0459	-0.1120	26.77	0.95	-0.750			
0.8805	56355.12	3.0430	3.0431	-0.1115	26.77	0.95	-0.750			
0.8809	56376.48	3.0400	3.0401	-0.1110	26.78	0.96	-0.750			
0.8812	56397.73	3.0370	3.0369	-0.1104	26.78	0.96	-0.750			
0.8815	56418.89	3.0340	3.0339	-0.1099	26.79	0.97	-0.750			
0.8819	56440.01	3.0310	3.0309	-0.1091	26.79	0.97	-0.750			
0.8822	56460.82	3.0280	3.0281	-0.1083	26.80	0.98	-0.750			
0.8825	56481.58	3.0250	3.0251	-0.1077	26.80	0.98	-0.750			
0.8828	56502.39	3.0220	3.0220	-0.1073	26.80	0.98	-0.750			
0.8832	56522.85	3.0190	3.0190	-0.1064	26.81	0.99	-0.750			
0.8835	56543.09	3.0160	3.0160	-0.1054	26.81	0.99	-0.750			
0.8838	56563.26	3.0130	3.0130	-0.1047	26.82	1.00	-0.750			
0.8841	56583.25	3.0100	3.0101	-0.1041	26.82	1.00	-0.750			
0.8844	56603.18	3.0070	3.0069	-0.1036	26.83	1.01	-0.751			
0.8847	56622.99	3.0040	3.0041	-0.1021	26.83	1.01	-0.751			
