Ah_balance (normalized)	Ah_balance (mAh)	Voltage - fit (V)	Voltage -  interpolate (V)	dQ/dV (1/V)	Temperature (°C)	Temperature - diff (°C)	Current (C)	R_DC 0ms (mOhm)	R_DC 50ms (mOhm)	R_DC 50 ms PEC (mOhm)
0.0002	14.34	4.1640	4.1637	-0.1056	25.72	0.00	-0.750			
0.0006	40.30	4.1610	4.1609	-0.1564	25.72	0.00	-0.750			
0.0012	74.80	4.1580	4.1578	-0.1974	25.72	0.00	-0.750			
0.0018	116.40	4.1550	4.1550	-0.2370	25.72	0.00	-0.750			
0.0026	165.85	4.1520	4.1520	-0.2758	25.72	0.00	-0.750			
0.0035	222.68	4.1490	4.1490	-0.3137	25.72	-0.00	-0.750			
0.0045	287.51	4.1460	4.1460	-0.3491	25.72	-0.00	-0.750			
0.0056	358.46	4.1430	4.1430	-0.3825	25.72	-0.00	-0.750			
0.0068	434.94	4.1400	4.1401	-0.4169	25.71	-0.01	-0.750			
0.0081	519.20	4.1370	4.1370	-0.4478	25.71	-0.01	-0.750			
0.0095	608.11	4.1340	4.1339	-0.4776	25.71	-0.01	-0.750			
0.0110	703.07	4.1310	4.1311	-0.5052	25.71	-0.01	-0.750			
0.0126	804.11	4.1280	4.1280	-0.5267	25.70	-0.02	-0.750			
0.0142	907.82	4.1250	4.1250	-0.5483	25.70	-0.02	-0.750			
0.0159	1016.26	4.1220	4.1221	-0.5644	25.70	-0.02	-0.750			
0.0176	1125.61	4.1190	4.1189	-0.5795	25.70	-0.02	-0.750			
0.0194	1239.37	4.1160	4.1160	-0.5948	25.69	-0.03	-0.750			
0.0212	1354.26	4.1130	4.1130	-0.6072	25.69	-0.03	-0.750			
0.0230	1472.99	4.1100	4.1100	-0.6185	25.69	-0.03	-0.750			
0.0249	1593.43	4.1070	4.1071	-0.6285	25.68	-0.04	-0.750			
0.0268	1715.74	4.1040	4.1039	-0.6348	25.68	-0.04	-0.750			
0.0287	1839.02	4.1010	4.1010	-0.6414	25.68	-0.04	-0.750			
0.0306	1961.48	4.0980	4.0980	-0.6480	25.68	-0.04	-0.750			
0.0326	2086.15	4.0950	4.0951	-0.6571	25.67	-0.05	-0.750			
0.0346	2213.18	4.0920	4.0919	-0.6658	25.67	-0.05	-0.750			
0.0366	2342.87	4.0890	4.0890	-0.6728	25.67	-0.05	-0.750			
0.0387	2473.61	4.0860	4.0860	-0.6776	25.66	-0.06	-0.750			
0.0407	2604.06	4.0830	4.0832	-0.6836	25.66	-0.06	-0.750			
0.0428	2736.81	4.0800	4.0800	-0.6860	25.66	-0.06	-0.750			
0.0448	2867.60	4.0770	4.0770	-0.6885	25.66	-0.06	-0.750			
0.0469	2998.79	4.0740	4.0740	-0.6913	25.66	-0.06	-0.750			
0.0490	3134.18	4.0710	4.0710	-0.6961	25.66	-0.06	-0.750			
0.0511	3267.33	4.0680	4.0680	-0.6990	25.66	-0.06	-0.750			
0.0532	3402.34	4.0650	4.0652	-0.7024	25.66	-0.06	-0.750			
0.0553	3537.02	4.0620	4.0620	-0.7023	25.66	-0.06	-0.750			
0.0574	3671.64	4.0590	4.0589	-0.7084	25.66	-0.06	-0.750			
0.0595	3807.59	4.0560	4.0560	-0.7099	25.65	-0.07	-0.750			
0.0616	3944.33	4.0530	4.0530	-0.7135	25.65	-0.07	-0.750			
0.0638	4082.50	4.0500	4.0499	-0.7155	25.65	-0.07	-0.750			
0.0659	4219.88	4.0470	4.0471	-0.7160	25.65	-0.07	-0.750			
0.0681	4358.28	4.0440	4.0441	-0.7176	25.65	-0.07	-0.750			
0.0702	4494.42	4.0410	4.0410	-0.7286	25.65	-0.07	-0.750			
0.0724	4635.20	4.0380	4.0380	-0.7299	25.66	-0.06	-0.750			
0.0746	4776.68	4.0350	4.0349	-0.7330	25.66	-0.06	-0.750			
0.0768	4917.87	4.0320	4.0320	-0.7330	25.66	-0.06	-0.750			
0.0791	5060.48	4.0290	4.0289	-0.7348	25.66	-0.06	-0.750			
0.0813	5200.99	4.0260	4.0260	-0.7328	25.66	-0.06	-0.750			
0.0834	5339.89	4.0230	4.0230	-0.7350	25.66	-0.06	-0.750			
0.0856	5478.81	4.0200	4.0201	-0.7354	25.66	-0.06	-0.750			
0.0879	5623.59	4.0170	4.0169	-0.7396	25.66	-0.06	-0.750			
0.0901	5766.29	4.0140	4.0140	-0.7415	25.66	-0.06	-0.750			
0.0923	5908.35	4.0110	4.0111	-0.7433	25.66	-0.06	-0.750			
0.0945	6050.91	4.0080	4.0080	-0.7461	25.67	-0.05	-0.750			
0.0968	6193.99	4.0050	4.0049	-0.7487	25.67	-0.05	-0.750			
0.0990	6336.57	4.0020	4.0020	-0.7473	25.67	-0.05	-0.750			
0.1013	6481.08	3.9990	3.9990	-0.7538	25.68	-0.04	-0.750			
0.1035	6626.99	3.9960	3.9961	-0.7569	25.68	-0.04	-0.750			
0.1058	6772.50	3.9930	3.9929	-0.7577	25.68	-0.04	-0.750			
0.1081	6918.25	3.9900	3.9900	-0.7596	25.68	-0.04	-0.750			
0.1104	7064.23	3.9870	3.9870	-0.7610	25.68	-0.04	-0.750			
0.1127	7211.00	3.9840	3.9840	-0.7638	25.68	-0.04	-0.750			
0.1150	7358.22	3.9810	3.9809	-0.7657	25.68	-0.04	-0.750			
0.1173	7504.62	3.9780	3.9779	-0.7644	25.68	-0.04	-0.750			
0.1196	7651.52	3.9750	3.9750	-0.7672	25.69	-0.03	-0.750			
0.1219	7798.49	3.9720	3.9720	-0.7679	25.69	-0.03	-0.750			
0.1242	7945.86	3.9690	3.9690	-0.7690	25.69	-0.03	-0.750			
0.1265	8094.23	3.9660	3.9660	-0.7711	25.70	-0.02	-0.750			
0.1288	8241.76	3.9630	3.9631	-0.7753	25.70	-0.02	-0.750			
0.1311	8390.43	3.9600	3.9601	-0.7809	25.71	-0.01	-0.750			
0.1335	8541.90	3.9570	3.9570	-0.7833	25.71	-0.01	-0.750			
0.1358	8693.27	3.9540	3.9539	-0.7825	25.71	-0.01	-0.750			
0.1382	8844.28	3.9510	3.9510	-0.7832	25.72	-0.00	-0.750			
0.1405	8994.23	3.9480	3.9483	-0.7850	25.72	0.00	-0.750			
0.1429	9144.72	3.9450	3.9450	-0.7832	25.73	0.01	-0.750			
0.1452	9292.80	3.9420	3.9420	-0.7863	25.73	0.01	-0.750			
0.1476	9444.72	3.9390	3.9390	-0.7915	25.74	0.02	-0.750			
0.1500	9599.58	3.9360	3.9360	-0.7951	25.74	0.02	-0.750			
0.1524	9751.74	3.9330	3.9331	-0.7980	25.75	0.03	-0.750			
0.1548	9905.33	3.9300	3.9300	-0.8011	25.75	0.03	-0.750			
0.1572	10058.89	3.9270	3.9270	-0.8069	25.75	0.03	-0.750			
0.1596	10213.90	3.9240	3.9239	-0.8088	25.75	0.03	-0.750			
0.1620	10369.47	3.9210	3.9210	-0.8060	25.75	0.03	-0.750			
0.1645	10527.05	3.9180	3.9180	-0.8106	25.75	0.03	-0.750			
0.1669	10683.21	3.9150	3.9149	-0.8059	25.75	0.03	-0.750			
0.1693	10835.33	3.9120	3.9120	-0.8060	25.76	0.04	-0.750			
0.1717	10990.78	3.9090	3.9090	-0.8022	25.76	0.04	-0.750			
0.1741	11142.51	3.9060	3.9060	-0.7999	25.76	0.04	-0.750			
0.1765	11297.76	3.9030	3.9030	-0.8073	25.77	0.05	-0.750			
0.1790	11453.10	3.9000	3.8999	-0.8115	25.77	0.05	-0.750			
0.1814	11607.61	3.8970	3.8970	-0.8176	25.77	0.05	-0.750			
0.1839	11767.95	3.8940	3.8940	-0.8155	25.77	0.05	-0.750			
0.1863	11924.66	3.8910	3.8910	-0.8122	25.78	0.06	-0.750			
0.1888	12081.20	3.8880	3.8880	-0.8176	25.78	0.06	-0.750			
0.1912	12236.39	3.8850	3.8851	-0.8140	25.78	0.06	-0.750			
0.1936	12391.60	3.8820	3.8819	-0.8145	25.78	0.06	-0.750			
0.1960	12546.62	3.8790	3.8789	-0.8154	25.78	0.06	-0.750			
0.1985	12703.85	3.8760	3.8762	-0.8179	25.79	0.07	-0.750			
0.2010	12863.87	3.8730	3.8730	-0.8281	25.79	0.07	-0.750			
0.2035	13023.47	3.8700	3.8700	-0.8293	25.79	0.07	-0.750			
0.2060	13182.23	3.8670	3.8670	-0.8285	25.80	0.08	-0.750			
0.2085	13341.06	3.8640	3.8640	-0.8324	25.80	0.08	-0.750			
0.2110	13501.78	3.8610	3.8610	-0.8335	25.81	0.09	-0.750			
0.2135	13661.76	3.8580	3.8579	-0.8352	25.82	0.10	-0.750			
0.2160	13822.03	3.8550	3.8551	-0.8356	25.82	0.10	-0.750			
0.2185	13982.27	3.8520	3.8520	-0.8345	25.82	0.10	-0.750			
0.2210	14142.97	3.8490	3.8490	-0.8379	25.82	0.10	-0.750			
0.2235	14305.16	3.8460	3.8459	-0.8347	25.82	0.10	-0.750			
0.2260	14465.79	3.8430	3.8430	-0.8330	25.82	0.10	-0.750			
0.2285	14625.47	3.8400	3.8401	-0.8313	25.82	0.10	-0.750			
0.2310	14784.40	3.8370	3.8370	-0.8290	25.83	0.11	-0.750			
0.2335	14942.96	3.8340	3.8339	-0.8356	25.83	0.11	-0.750			
0.2360	15103.55	3.8310	3.8310	-0.8326	25.84	0.12	-0.750			
0.2385	15264.47	3.8280	3.8279	-0.8350	25.85	0.13	-0.750			
0.2410	15424.62	3.8250	3.8252	-0.8364	25.85	0.13	-0.750			
0.2435	15586.24	3.8220	3.8220	-0.8337	25.85	0.13	-0.750			
0.2460	15745.75	3.8190	3.8189	-0.8353	25.86	0.14	-0.750			
0.2485	15905.34	3.8160	3.8159	-0.8318	25.86	0.14	-0.750			
0.2510	16065.59	3.8130	3.8130	-0.8327	25.87	0.15	-0.750			
0.2535	16226.30	3.8100	3.8101	-0.8304	25.87	0.15	-0.750			
0.2560	16385.93	3.8070	3.8070	-0.8260	25.87	0.15	-0.750			
0.2585	16543.91	3.8040	3.8040	-0.8250	25.88	0.16	-0.750			
0.2610	16702.14	3.8010	3.8010	-0.8192	25.88	0.16	-0.750			
0.2634	16858.90	3.7980	3.7980	-0.8155	25.89	0.17	-0.750			
0.2658	17014.11	3.7950	3.7952	-0.8172	25.89	0.17	-0.750			
0.2683	17170.47	3.7920	3.7919	-0.8169	25.89	0.17	-0.750			
0.2707	17327.36	3.7890	3.7890	-0.8214	25.89	0.17	-0.750			
0.2732	17485.77	3.7860	3.7860	-0.8159	25.89	0.17	-0.750			
0.2757	17643.96	3.7830	3.7830	-0.8168	25.89	0.17	-0.750			
0.2781	17801.10	3.7800	3.7802	-0.8147	25.89	0.17	-0.750			
0.2806	17956.67	3.7770	3.7768	-0.8084	25.90	0.18	-0.750			
0.2830	18111.04	3.7740	3.7740	-0.8010	25.90	0.18	-0.750			
0.2854	18264.01	3.7710	3.7711	-0.7946	25.91	0.19	-0.750			
0.2878	18416.54	3.7680	3.7680	-0.7959	25.91	0.19	-0.750			
0.2901	18569.15	3.7650	3.7651	-0.7965	25.92	0.20	-0.750			
0.2925	18719.49	3.7620	3.7619	-0.7918	25.92	0.20	-0.750			
0.2949	18871.13	3.7590	3.7591	-0.7954	25.93	0.21	-0.750			
0.2973	19025.38	3.7560	3.7560	-0.7979	25.93	0.21	-0.750			
0.2997	19180.00	3.7530	3.7529	-0.7962	25.93	0.21	-0.750			
0.3021	19333.28	3.7500	3.7501	-0.7987	25.94	0.22	-0.750			
0.3045	19485.18	3.7470	3.7470	-0.7992	25.94	0.22	-0.750			
0.3068	19636.54	3.7440	3.7440	-0.8078	25.94	0.22	-0.750			
0.3093	19794.14	3.7410	3.7408	-0.8108	25.95	0.23	-0.750			
0.3117	19948.82	3.7380	3.7380	-0.8141	25.95	0.23	-0.750			
0.3142	20108.60	3.7350	3.7350	-0.8231	25.95	0.23	-0.750			
0.3167	20266.49	3.7320	3.7320	-0.8296	25.95	0.23	-0.750			
0.3191	20423.82	3.7290	3.7289	-0.8358	25.95	0.23	-0.750			
0.3216	20585.33	3.7260	3.7259	-0.8461	25.95	0.23	-0.750			
0.3242	20746.30	3.7230	3.7230	-0.8563	25.96	0.24	-0.750			
0.3268	20915.26	3.7200	3.7199	-0.8708	25.96	0.24	-0.750			
0.3294	21084.02	3.7170	3.7170	-0.8825	25.96	0.24	-0.750			
0.3321	21254.57	3.7140	3.7140	-0.8992	25.96	0.24	-0.750			
0.3348	21426.33	3.7110	3.7109	-0.9139	25.97	0.25	-0.750			
0.3375	21602.85	3.7080	3.7080	-0.9297	25.97	0.25	-0.750			
0.3404	21785.15	3.7050	3.7052	-0.9477	25.97	0.25	-0.750			
0.3433	21969.04	3.7020	3.7020	-0.9704	25.97	0.25	-0.750			
0.3462	22158.98	3.6990	3.6990	-0.9863	25.97	0.25	-0.750			
0.3492	22349.08	3.6960	3.6959	-1.0008	25.96	0.24	-0.750			
0.3522	22543.29	3.6930	3.6930	-1.0186	25.96	0.24	-0.750			
0.3553	22738.65	3.6900	3.6899	-1.0385	25.96	0.24	-0.750			
0.3584	22940.18	3.6870	3.6870	-1.0596	25.96	0.24	-0.750			
0.3616	23144.71	3.6840	3.6839	-1.0803	25.95	0.23	-0.750			
0.3649	23352.00	3.6810	3.6809	-1.0998	25.95	0.23	-0.750			
0.3683	23568.42	3.6780	3.6780	-1.1330	25.95	0.23	-0.750			
0.3717	23787.96	3.6750	3.6749	-1.1561	25.94	0.22	-0.750			
0.3752	24013.22	3.6720	3.6720	-1.1772	25.93	0.21	-0.750			
0.3788	24240.24	3.6690	3.6691	-1.2052	25.93	0.21	-0.750			
0.3824	24476.11	3.6660	3.6660	-1.2323	25.92	0.20	-0.750			
0.3862	24714.82	3.6630	3.6629	-1.2589	25.92	0.20	-0.750			
0.3900	24957.54	3.6600	3.6600	-1.2852	25.91	0.19	-0.750			
0.3939	25206.98	3.6570	3.6570	-1.3118	25.90	0.18	-0.750			
0.3978	25461.72	3.6540	3.6540	-1.3387	25.90	0.18	-0.750			
0.4019	25722.06	3.6510	3.6510	-1.3727	25.89	0.17	-0.750			
0.4061	25987.49	3.6480	3.6480	-1.3967	25.89	0.17	-0.750			
0.4103	26260.62	3.6450	3.6449	-1.4250	25.88	0.16	-0.750			
0.4146	26536.45	3.6420	3.6420	-1.4610	25.87	0.15	-0.750			
0.4191	26819.61	3.6390	3.6389	-1.4977	25.87	0.15	-0.750			
0.4236	27110.25	3.6360	3.6359	-1.5386	25.86	0.14	-0.750			
0.4283	27413.67	3.6330	3.6332	-1.5560	25.86	0.14	-0.750			
0.4330	27713.74	3.6300	3.6301	-1.5771	25.85	0.13	-0.750			
0.4379	28023.47	3.6270	3.6271	-1.6099	25.84	0.12	-0.750			
0.4427	28331.58	3.6240	3.6239	-1.6363	25.83	0.11	-0.750			
0.4476	28643.99	3.6210	3.6210	-1.6696	25.82	0.10	-0.750	0.404	0.511	
0.4526	28964.32	3.6180	3.6181	-1.7098	25.81	0.09	-0.750			
0.4578	29301.29	3.6150	3.6150	-1.7531	25.81	0.09	-0.750			
0.4632	29642.94	3.6120	3.6120	-1.7950	25.80	0.08	-0.750			
0.4686	29993.48	3.6090	3.6090	-1.8118	25.79	0.07	-0.750			
0.4741	30342.68	3.6060	3.6061	-1.8381	25.78	0.06	-0.750			
0.4796	30696.30	3.6030	3.6030	-1.8779	25.77	0.05	-0.750			
0.4853	31059.42	3.6000	3.6000	-1.9060	25.77	0.05	-0.750			
0.4911	31429.10	3.5970	3.5970	-1.9431	25.77	0.05	-0.750			
0.4970	31807.24	3.5940	3.5941	-1.9880	25.76	0.04	-0.750			
0.5030	32192.05	3.5910	3.5910	-2.0279	25.75	0.03	-0.750			
0.5092	32588.11	3.5880	3.5881	-2.0765	25.74	0.02	-0.750			
0.5154	32986.97	3.5850	3.5851	-2.1065	25.74	0.02	-0.750			
0.5218	33397.87	3.5820	3.5819	-2.1399	25.73	0.01	-0.750			
0.5284	33815.12	3.5790	3.5790	-2.1795	25.72	-0.00	-0.750			
0.5350	34237.49	3.5760	3.5760	-2.2055	25.71	-0.01	-0.750			
0.5416	34662.77	3.5730	3.5730	-2.2307	25.71	-0.01	-0.750			
0.5483	35091.89	3.5700	3.5700	-2.2438	25.70	-0.02	-0.750			
0.5551	35527.92	3.5670	3.5670	-2.2577	25.70	-0.02	-0.750			
0.5620	35965.37	3.5640	3.5640	-2.2670	25.70	-0.02	-0.750			
0.5688	36403.84	3.5610	3.5611	-2.2753	25.70	-0.02	-0.750			
0.5756	36839.50	3.5580	3.5580	-2.2739	25.70	-0.02	-0.750			
0.5825	37278.15	3.5550	3.5550	-2.2718	25.70	-0.02	-0.750			
0.5893	37713.27	3.5520	3.5520	-2.2599	25.70	-0.02	-0.750			
0.5961	38150.52	3.5490	3.5490	-2.2540	25.70	-0.02	-0.750			
0.6028	38581.34	3.5460	3.5461	-2.2413	25.70	-0.02	-0.750			
0.6095	39009.79	3.5430	3.5430	-2.2264	25.71	-0.01	-0.750			
0.6162	39438.96	3.5400	3.5399	-2.1994	25.71	-0.01	-0.750			
0.6228	39858.77	3.5370	3.5370	-2.1772	25.71	-0.01	-0.750			
0.6293	40276.50	3.5340	3.5339	-2.1561	25.71	-0.01	-0.750			
0.6358	40693.71	3.5310	3.5309	-2.1016	25.72	-0.00	-0.750			
0.6421	41091.60	3.5280	3.5280	-2.0595	25.72	0.00	-0.750			
0.6481	41479.79	3.5250	3.5251	-2.0153	25.74	0.02	-0.750			
0.6541	41864.72	3.5220	3.5219	-1.9689	25.75	0.03	-0.750			
0.6600	42240.66	3.5190	3.5191	-1.9180	25.76	0.04	-0.750			
0.6656	42600.41	3.5160	3.5158	-1.8574	25.76	0.04	-0.750			
0.6712	42953.63	3.5130	3.5128	-1.8042	25.77	0.05	-0.750			
0.6766	43300.42	3.5100	3.5098	-1.7574	25.79	0.07	-0.750			
0.6816	43625.09	3.5070	3.5070	-1.6967	25.80	0.08	-0.750			
0.6867	43946.25	3.5040	3.5038	-1.6324	25.81	0.09	-0.750			
0.6915	44257.41	3.5010	3.5010	-1.5802	25.83	0.11	-0.750			
0.6962	44556.29	3.4980	3.4983	-1.5255	25.85	0.13	-0.750			
0.7007	44846.88	3.4950	3.4949	-1.4873	25.87	0.15	-0.750			
0.7051	45124.30	3.4920	3.4920	-1.4292	25.89	0.17	-0.750			
0.7093	45395.92	3.4890	3.4889	-1.3862	25.91	0.19	-0.750			
0.7134	45657.50	3.4860	3.4859	-1.3501	25.92	0.20	-0.750			
0.7174	45912.63	3.4830	3.4830	-1.3015	25.94	0.22	-0.750			
0.7212	46158.75	3.4800	3.4799	-1.2540	25.96	0.24	-0.750			
0.7249	46395.38	3.4770	3.4770	-1.2056	25.98	0.26	-0.750			
0.7284	46617.00	3.4740	3.4743	-1.1649	25.99	0.27	-0.750			
0.7319	46841.21	3.4710	3.4709	-1.1334	26.00	0.28	-0.750			
0.7352	47054.14	3.4680	3.4679	-1.0958	26.01	0.29	-0.750			
0.7384	47259.85	3.4650	3.4650	-1.0602	26.02	0.30	-0.750			
0.7416	47461.38	3.4620	3.4620	-1.0321	26.03	0.31	-0.750			
0.7446	47657.58	3.4590	3.4589	-1.0057	26.04	0.32	-0.750			
0.7476	47847.45	3.4560	3.4559	-0.9706	26.05	0.33	-0.750			
0.7504	48028.48	3.4530	3.4530	-0.9406	26.06	0.34	-0.750			
0.7532	48207.29	3.4500	3.4503	-0.9200	26.07	0.35	-0.750			
0.7559	48378.38	3.4470	3.4469	-0.9016	26.08	0.36	-0.750			
0.7586	48547.79	3.4440	3.4440	-0.8940	26.10	0.38	-0.750			
0.7612	48713.77	3.4410	3.4409	-0.8899	26.11	0.39	-0.750			
0.7639	48887.30	3.4380	3.4380	-0.9035	26.12	0.40	-0.750			
0.7666	49059.47	3.4350	3.4351	-0.9151	26.13	0.41	-0.750			
0.7693	49234.12	3.4320	3.4320	-0.9335	26.15	0.43	-0.750			
0.7721	49414.83	3.4290	3.4290	-0.9613	26.16	0.44	-0.750			
0.7750	49600.00	3.4260	3.4259	-0.9809	26.17	0.45	-0.750			
0.7780	49791.50	3.4230	3.4231	-1.0111	26.18	0.46	-0.750			
0.7811	49991.25	3.4200	3.4200	-1.0311	26.19	0.47	-0.750			
0.7843	50194.91	3.4170	3.4170	-1.0367	26.20	0.48	-0.750			
0.7875	50397.32	3.4140	3.4139	-1.0324	26.20	0.48	-0.750			
0.7906	50597.94	3.4110	3.4113	-1.0198	26.21	0.49	-0.750			
0.7936	50792.24	3.4080	3.4080	-0.9984	26.22	0.50	-0.750			
0.7966	50983.64	3.4050	3.4050	-0.9741	26.23	0.51	-0.750			
0.7995	51167.21	3.4020	3.4019	-0.9401	26.24	0.52	-0.750			
0.8023	51345.77	3.3990	3.3991	-0.9123	26.25	0.53	-0.750			
0.8050	51516.93	3.3960	3.3960	-0.8798	26.25	0.53	-0.750			
0.8075	51682.91	3.3930	3.3930	-0.8487	26.26	0.54	-0.750			
0.8100	51842.55	3.3900	3.3900	-0.8145	26.27	0.55	-0.750			
0.8124	51994.08	3.3870	3.3870	-0.7822	26.27	0.55	-0.750			
0.8147	52143.00	3.3840	3.3841	-0.7549	26.28	0.56	-0.750			
0.8169	52284.64	3.3810	3.3810	-0.7272	26.28	0.56	-0.750			
0.8191	52420.56	3.3780	3.3779	-0.6987	26.29	0.57	-0.750			
0.8211	52551.39	3.3750	3.3751	-0.6732	26.30	0.58	-0.750			
0.8231	52678.37	3.3720	3.3719	-0.6481	26.30	0.58	-0.750			
0.8250	52801.19	3.3690	3.3690	-0.6253	26.31	0.59	-0.750			
0.8268	52918.28	3.3660	3.3659	-0.6005	26.32	0.60	-0.750			
0.8286	53031.58	3.3630	3.3630	-0.5772	26.32	0.60	-0.750			
0.8303	53139.80	3.3600	3.3599	-0.5527	26.33	0.61	-0.750			
0.8319	53242.73	3.3570	3.3570	-0.5305	26.34	0.62	-0.750			
0.8335	53341.54	3.3540	3.3540	-0.5088	26.34	0.62	-0.750			
0.8350	53437.67	3.3510	3.3510	-0.4939	26.35	0.63	-0.750			
0.8364	53530.66	3.3480	3.3479	-0.4743	26.35	0.63	-0.750			
0.8378	53620.27	3.3450	3.3450	-0.4564	26.36	0.64	-0.750			
0.8392	53706.70	3.3420	3.3420	-0.4405	26.37	0.65	-0.750			
0.8405	53789.00	3.3390	3.3392	-0.4250	26.37	0.65	-0.750			
0.8417	53868.11	3.3360	3.3360	-0.4088	26.38	0.66	-0.750			
0.8429	53945.27	3.3330	3.3329	-0.3943	26.38	0.66	-0.750			
0.8441	54019.62	3.3300	3.3300	-0.3811	26.39	0.67	-0.750			
0.8452	54091.57	3.3270	3.3270	-0.3705	26.40	0.68	-0.750			
0.8463	54161.49	3.3240	3.3239	-0.3572	26.40	0.68	-0.750			
0.8473	54228.64	3.3210	3.3210	-0.3449	26.41	0.69	-0.750			
0.8483	54293.38	3.3180	3.3181	-0.3339	26.41	0.69	-0.750			
0.8493	54356.11	3.3150	3.3150	-0.3237	26.42	0.70	-0.750			
0.8503	54417.68	3.3120	3.3119	-0.3146	26.43	0.71	-0.750			
0.8512	54476.54	3.3090	3.3090	-0.3042	26.43	0.71	-0.750			
0.8521	54533.84	3.3060	3.3059	-0.2952	26.44	0.72	-0.750			
0.8530	54590.05	3.3030	3.3031	-0.2878	26.44	0.72	-0.750			
0.8538	54644.23	3.3000	3.3000	-0.2792	26.45	0.73	-0.750			
0.8546	54696.82	3.2970	3.2970	-0.2713	26.45	0.73	-0.750			
0.8554	54748.24	3.2940	3.2939	-0.2648	26.46	0.74	-0.750			
0.8562	54798.12	3.2910	3.2910	-0.2578	26.46	0.74	-0.750			
0.8570	54846.90	3.2880	3.2880	-0.2516	26.47	0.75	-0.750			
0.8577	54894.47	3.2850	3.2850	-0.2456	26.47	0.75	-0.750			
0.8585	54941.15	3.2820	3.2820	-0.2398	26.48	0.76	-0.750			
0.8592	54986.39	3.2790	3.2790	-0.2336	26.48	0.76	-0.750			
0.8599	55030.79	3.2760	3.2760	-0.2285	26.48	0.76	-0.750			
0.8605	55073.92	3.2730	3.2730	-0.2236	26.49	0.77	-0.750			
0.8612	55116.15	3.2700	3.2700	-0.2186	26.49	0.77	-0.750			
0.8618	55157.70	3.2670	3.2670	-0.2142	26.50	0.78	-0.750			
0.8625	55198.06	3.2640	3.2640	-0.2108	26.50	0.78	-0.750			
0.8631	55237.89	3.2610	3.2610	-0.2078	26.51	0.79	-0.750			
0.8637	55278.15	3.2580	3.2580	-0.2041	26.51	0.79	-0.750			
0.8643	55316.95	3.2550	3.2549	-0.2001	26.51	0.79	-0.750			
0.8649	55355.05	3.2520	3.2520	-0.1968	26.52	0.80	-0.750			
0.8655	55392.34	3.2490	3.2492	-0.1938	26.52	0.80	-0.750			
0.8661	55429.14	3.2460	3.2459	-0.1905	26.53	0.81	-0.750			
0.8666	55465.42	3.2430	3.2429	-0.1874	26.53	0.81	-0.750			
0.8672	55500.78	3.2400	3.2400	-0.1836	26.54	0.82	-0.750			
0.8677	55535.55	3.2370	3.2371	-0.1812	26.54	0.82	-0.750			
0.8683	55570.46	3.2340	3.2340	-0.1800	26.55	0.83	-0.750			
0.8688	55604.75	3.2310	3.2310	-0.1772	26.55	0.83	-0.750			
0.8693	55638.02	3.2280	3.2279	-0.1753	26.56	0.84	-0.750			
0.8699	55671.41	3.2250	3.2250	-0.1731	26.56	0.84	-0.750			
0.8704	55704.77	3.2220	3.2220	-0.1715	26.57	0.85	-0.750			
0.8709	55737.52	3.2190	3.2189	-0.1696	26.57	0.85	-0.750			
0.8714	55770.16	3.2160	3.2161	-0.1679	26.58	0.86	-0.750			
0.8719	55802.14	3.2130	3.2130	-0.1652	26.58	0.86	-0.750			
0.8724	55833.43	3.2100	3.2100	-0.1633	26.58	0.86	-0.750			
0.8729	55864.59	3.2070	3.2069	-0.1613	26.59	0.87	-0.750			
0.8734	55895.25	3.2040	3.2041	-0.1587	26.59	0.87	-0.750			
0.8738	55925.72	3.2010	3.2010	-0.1567	26.60	0.88	-0.750			
0.8743	55955.30	3.1980	3.1980	-0.1551	26.60	0.88	-0.750			
0.8748	55984.94	3.1950	3.1952	-0.1535	26.61	0.89	-0.750			
0.8752	56014.07	3.1920	3.1920	-0.1519	26.61	0.89	-0.750			
0.8757	56043.24	3.1890	3.1889	-0.1504	26.61	0.89	-0.750			
0.8761	56071.57	3.1860	3.1861	-0.1490	26.62	0.90	-0.750			
0.8766	56100.37	3.1830	3.1830	-0.1479	26.62	0.90	-0.750			
0.8770	56128.96	3.1800	3.1799	-0.1472	26.63	0.91	-0.750			
0.8775	56157.19	3.1770	3.1769	-0.1458	26.63	0.91	-0.750			
0.8779	56184.69	3.1740	3.1742	-0.1440	26.64	0.92	-0.750			
0.8783	56212.42	3.1710	3.1710	-0.1425	26.64	0.92	-0.750			
0.8787	56239.84	3.1680	3.1680	-0.1413	26.65	0.93	-0.750			
0.8792	56266.85	3.1650	3.1649	-0.1399	26.65	0.93	-0.750			
0.8796	56293.08	3.1620	3.1621	-0.1383	26.66	0.94	-0.750			
0.8800	56319.68	3.1590	3.1590	-0.1379	26.66	0.94	-0.750			
0.8804	56346.13	3.1560	3.1560	-0.1367	26.67	0.95	-0.750			
0.8808	56372.16	3.1530	3.1529	-0.1356	26.67	0.95	-0.750			
0.8812	56397.95	3.1500	3.1503	-0.1347	26.68	0.96	-0.750			
0.8816	56424.08	3.1470	3.1469	-0.1345	26.68	0.96	-0.750			
0.8820	56449.93	3.1440	3.1439	-0.1329	26.69	0.97	-0.750			
0.8824	56475.36	3.1410	3.1410	-0.1313	26.69	0.97	-0.750			
0.8828	56500.37	3.1380	3.1380	-0.1300	26.69	0.97	-0.750			
0.8832	56525.05	3.1350	3.1351	-0.1286	26.70	0.98	-0.750			
0.8836	56549.73	3.1320	3.1320	-0.1275	26.70	0.98	-0.750			
0.8840	56573.95	3.1290	3.1290	-0.1269	26.71	0.99	-0.750			
0.8843	56597.93	3.1260	3.1261	-0.1258	26.71	0.99	-0.750			
0.8847	56622.01	3.1230	3.1229	-0.1249	26.71	0.99	-0.750			
0.8851	56646.11	3.1200	3.1200	-0.1247	26.72	1.00	-0.750			
0.8855	56670.00	3.1170	3.1170	-0.1236	26.72	1.00	-0.750			
0.8858	56693.69	3.1140	3.1141	-0.1227	26.73	1.01	-0.750			
0.8862	56717.09	3.1110	3.1111	-0.1221	26.73	1.01	-0.750			
0.8866	56740.49	3.1080	3.1078	-0.1213	26.73	1.01	-0.750			
0.8869	56763.65	3.1050	3.1050	-0.1198	26.74	1.02	-0.750			
0.8873	56786.57	3.1020	3.1020	-0.1189	26.74	1.02	-0.750			
0.8876	56809.39	3.0990	3.0991	-0.1181	26.75	1.03	-0.750			
0.8880	56831.96	3.0960	3.0960	-0.1170	26.75	1.03	-0.750			
0.8883	56854.23	3.0930	3.0929	-0.1165	26.76	1.04	-0.750			
0.8887	56876.53	3.0900	3.0900	-0.1158	26.76	1.04	-0.750			
0.8890	56898.47	3.0870	3.0870	-0.1148	26.76	1.04	-0.750			
0.8894	56920.53	3.0840	3.0840	-0.1144	26.77	1.05	-0.750			
0.8897	56942.55	3.0810	3.0810	-0.1142	26.77	1.05	-0.750			
0.8901	56964.46	3.0780	3.0780	-0.1134	26.78	1.06	-0.750			
0.8904	56986.23	3.0750	3.0749	-0.1128	26.78	1.06	-0.750			
0.8907	57007.84	3.0720	3.0720	-0.1119	26.79	1.07	-0.750			
0.8911	57029.25	3.0690	3.0690	-0.1111	26.79	1.07	-0.750			
0.8914	57050.56	3.0660	3.0660	-0.1100	26.80	1.08	-0.750			
0.8917	57071.68	3.0630	3.0630	-0.1092	26.80	1.08	-0.750			
0.8921	57092.33	3.0600	3.0600	-0.1087	26.81	1.09	-0.750			
0.8924	57112.97	3.0570	3.0572	-0.1078	26.81	1.09	-0.750			
0.8927	57133.60	3.0540	3.0540	-0.1074	26.82	1.10	-0.750			
0.8930	57154.04	3.0510	3.0509	-0.1068	26.83	1.11	-0.750			
0.8934	57174.69	3.0480	3.0479	-0.1061	26.83	1.11	-0.750			
0.8937	57195.08	3.0450	3.0450	-0.1056	26.84	1.12	-0.750			
0.8940	57215.26	3.0420	3.0422	-0.1051	26.84	1.12	-0.750			
0.8943	57235.56	3.0390	3.0391	-0.1047	26.85	1.13	-0.750			
0.8946	57255.45	3.0360	3.0359	-0.1042	26.85	1.13	-0.750			
0.8949	57275.18	3.0330	3.0329	-0.1033	26.86	1.14	-0.750			
0.8952	57295.12	3.0300	3.0300	-0.1026	26.86	1.14	-0.750			
0.8955	57314.76	3.0270	3.0270	-0.1020	26.87	1.15	-0.750			
0.8958	57334.34	3.0240	3.0241	-0.1013	26.87	1.15	-0.750			
0.8962	57353.94	3.0210	3.0210	-0.1009	26.88	1.16	-0.750			
0.8965	57373.19	3.0180	3.0181	-0.1000	26.88	1.16	-0.750			
0.8968	57392.28	3.0150	3.0150	-0.0991	26.89	1.17	-0.750			
0.8971	57411.21	3.0120	3.0119	-0.0982	26.89	1.17	-0.750			
0.8973	57429.84	3.0090	3.0091	-0.0974	26.90	1.18	-0.750			
0.8976	57448.49	3.0060	3.0059	-0.0969	26.90	1.18	-0.751			
0.8979	57467.03	3.0030	3.0030	-0.0954	26.91	1.19	-0.751			
