Ah_balance (normalized)	Ah_balance (mAh)	Voltage - fit (V)	Voltage -  interpolate (V)	dQ/dV (1/V)	Temperature (°C)	Temperature - diff (°C)	Current (C)	R_DC 0ms (mOhm)	R_DC 50ms (mOhm)	R_DC 50 ms PEC (mOhm)
0.0002	11.72	4.1570	4.1568	-0.0981	24.85	0.02	-0.750			
0.0005	34.14	4.1540	4.1539	-0.1354	24.85	0.02	-0.750			
0.0010	63.95	4.1510	4.1509	-0.1724	24.85	0.02	-0.750			
0.0016	101.53	4.1480	4.1479	-0.2068	24.85	0.02	-0.750			
0.0023	144.50	4.1450	4.1450	-0.2398	24.85	0.02	-0.750			
0.0030	193.84	4.1420	4.1420	-0.2725	24.84	0.01	-0.750			
0.0039	249.65	4.1390	4.1391	-0.3062	24.84	0.01	-0.750			
0.0049	312.19	4.1360	4.1359	-0.3347	24.84	0.01	-0.750			
0.0059	379.66	4.1330	4.1330	-0.3631	24.84	0.01	-0.750			
0.0071	452.27	4.1300	4.1300	-0.3910	24.84	0.01	-0.750			
0.0083	530.41	4.1270	4.1270	-0.4163	24.84	0.01	-0.750			
0.0096	613.08	4.1240	4.1240	-0.4400	24.83	0.00	-0.750			
0.0109	699.66	4.1210	4.1210	-0.4629	24.83	0.00	-0.750			
0.0124	791.08	4.1180	4.1180	-0.4845	24.83	-0.00	-0.750			
0.0139	887.61	4.1150	4.1150	-0.5039	24.83	-0.00	-0.750			
0.0154	986.20	4.1120	4.1120	-0.5224	24.82	-0.01	-0.750			
0.0170	1089.28	4.1090	4.1090	-0.5348	24.82	-0.01	-0.750			
0.0186	1193.52	4.1060	4.1060	-0.5492	24.82	-0.01	-0.750			
0.0203	1300.20	4.1030	4.1030	-0.5622	24.82	-0.01	-0.750			
0.0220	1408.94	4.1000	4.1001	-0.5747	24.81	-0.02	-0.750			
0.0238	1520.63	4.0970	4.0969	-0.5862	24.81	-0.02	-0.750			
0.0255	1634.67	4.0940	4.0940	-0.5956	24.81	-0.02	-0.750			
0.0273	1749.88	4.0910	4.0911	-0.6060	24.81	-0.02	-0.750			
0.0292	1867.87	4.0880	4.0881	-0.6158	24.81	-0.02	-0.750			
0.0310	1986.75	4.0850	4.0850	-0.6224	24.80	-0.03	-0.750			
0.0329	2107.73	4.0820	4.0820	-0.6269	24.80	-0.03	-0.750			
0.0348	2229.04	4.0790	4.0789	-0.6311	24.80	-0.03	-0.750			
0.0367	2350.76	4.0760	4.0763	-0.6388	24.80	-0.03	-0.750			
0.0387	2473.84	4.0730	4.0730	-0.6430	24.80	-0.03	-0.750			
0.0406	2596.74	4.0700	4.0700	-0.6477	24.80	-0.03	-0.750			
0.0425	2722.46	4.0670	4.0670	-0.6553	24.80	-0.03	-0.750			
0.0445	2848.97	4.0640	4.0640	-0.6608	24.81	-0.02	-0.750			
0.0465	2978.09	4.0610	4.0610	-0.6622	24.81	-0.02	-0.750			
0.0485	3105.35	4.0580	4.0580	-0.6663	24.81	-0.02	-0.750			
0.0505	3232.54	4.0550	4.0549	-0.6683	24.81	-0.02	-0.750			
0.0525	3360.90	4.0520	4.0520	-0.6705	24.81	-0.02	-0.750			
0.0545	3488.87	4.0490	4.0489	-0.6750	24.81	-0.02	-0.750			
0.0565	3618.41	4.0460	4.0461	-0.6788	24.82	-0.01	-0.750			
0.0586	3750.19	4.0430	4.0430	-0.6879	24.82	-0.01	-0.750			
0.0607	3884.22	4.0400	4.0399	-0.6901	24.82	-0.01	-0.750			
0.0628	4016.98	4.0370	4.0369	-0.6875	24.82	-0.01	-0.750			
0.0648	4149.28	4.0340	4.0341	-0.6916	24.83	-0.00	-0.750			
0.0669	4282.20	4.0310	4.0310	-0.6947	24.83	-0.00	-0.750			
0.0690	4414.94	4.0280	4.0279	-0.6957	24.83	0.00	-0.750			
0.0711	4548.97	4.0250	4.0250	-0.6984	24.84	0.01	-0.750			
0.0732	4682.89	4.0220	4.0220	-0.6971	24.84	0.01	-0.750			
0.0753	4818.34	4.0190	4.0190	-0.6977	24.84	0.01	-0.750			
0.0774	4952.63	4.0160	4.0161	-0.7007	24.85	0.02	-0.750			
0.0795	5086.20	4.0130	4.0129	-0.7028	24.85	0.02	-0.750			
0.0816	5222.25	4.0100	4.0099	-0.7013	24.86	0.03	-0.750			
0.0837	5357.40	4.0070	4.0070	-0.7027	24.86	0.03	-0.750			
0.0858	5492.38	4.0040	4.0041	-0.7052	24.87	0.04	-0.750			
0.0879	5628.08	4.0010	4.0009	-0.7077	24.87	0.04	-0.750			
0.0901	5763.34	3.9980	3.9979	-0.7086	24.88	0.05	-0.750			
0.0922	5899.05	3.9950	3.9949	-0.7102	24.88	0.05	-0.750			
0.0943	6034.77	3.9920	3.9921	-0.7137	24.88	0.05	-0.750			
0.0965	6176.45	3.9890	3.9889	-0.7187	24.89	0.06	-0.750			
0.0986	6312.36	3.9860	3.9862	-0.7196	24.89	0.06	-0.750			
0.1008	6450.50	3.9830	3.9829	-0.7194	24.89	0.06	-0.750			
0.1029	6588.40	3.9800	3.9799	-0.7227	24.90	0.07	-0.750			
0.1051	6726.52	3.9770	3.9770	-0.7275	24.90	0.07	-0.750			
0.1073	6866.98	3.9740	3.9741	-0.7311	24.90	0.07	-0.750			
0.1095	7009.63	3.9710	3.9709	-0.7382	24.91	0.08	-0.750			
0.1118	7152.74	3.9680	3.9681	-0.7415	24.91	0.08	-0.750			
0.1140	7294.39	3.9650	3.9649	-0.7385	24.91	0.08	-0.750			
0.1162	7436.60	3.9620	3.9621	-0.7470	24.92	0.09	-0.750			
0.1184	7580.78	3.9590	3.9589	-0.7450	24.92	0.09	-0.750			
0.1207	7725.29	3.9560	3.9560	-0.7460	24.92	0.09	-0.750			
0.1230	7868.85	3.9530	3.9529	-0.7423	24.93	0.10	-0.750			
0.1252	8009.87	3.9500	3.9501	-0.7426	24.93	0.10	-0.750			
0.1274	8152.14	3.9470	3.9469	-0.7477	24.94	0.11	-0.750			
0.1296	8294.27	3.9440	3.9439	-0.7470	24.94	0.11	-0.750			
0.1318	8436.49	3.9410	3.9410	-0.7477	24.94	0.11	-0.750			
0.1341	8582.39	3.9380	3.9382	-0.7563	24.95	0.12	-0.750			
0.1364	8729.15	3.9350	3.9349	-0.7615	24.95	0.12	-0.750			
0.1387	8875.63	3.9320	3.9320	-0.7621	24.95	0.12	-0.750			
0.1409	9018.99	3.9290	3.9290	-0.7649	24.96	0.13	-0.750			
0.1432	9167.41	3.9260	3.9261	-0.7710	24.96	0.13	-0.750			
0.1456	9317.75	3.9230	3.9229	-0.7789	24.96	0.13	-0.750			
0.1479	9468.43	3.9200	3.9200	-0.7797	24.97	0.14	-0.750			
0.1503	9618.37	3.9170	3.9171	-0.7811	24.97	0.14	-0.750			
0.1526	9768.02	3.9140	3.9140	-0.7853	24.98	0.15	-0.750			
0.1550	9919.74	3.9110	3.9109	-0.7840	24.99	0.16	-0.750			
0.1573	10068.44	3.9080	3.9080	-0.7779	25.00	0.17	-0.750			
0.1597	10219.17	3.9050	3.9050	-0.7785	25.00	0.17	-0.750			
0.1620	10368.98	3.9020	3.9022	-0.7771	25.01	0.18	-0.750			
0.1643	10517.86	3.8990	3.8990	-0.7776	25.01	0.18	-0.750			
0.1666	10665.04	3.8960	3.8960	-0.7780	25.02	0.19	-0.750			
0.1690	10814.60	3.8930	3.8930	-0.7796	25.02	0.19	-0.750			
0.1713	10966.00	3.8900	3.8900	-0.7820	25.03	0.20	-0.750			
0.1737	11116.18	3.8870	3.8870	-0.7822	25.03	0.20	-0.750			
0.1761	11267.64	3.8840	3.8840	-0.7829	25.03	0.20	-0.750			
0.1784	11416.11	3.8810	3.8810	-0.7894	25.03	0.20	-0.750			
0.1807	11567.38	3.8780	3.8780	-0.7870	25.04	0.21	-0.750			
0.1831	11719.48	3.8750	3.8750	-0.7863	25.04	0.21	-0.750			
0.1855	11872.55	3.8720	3.8720	-0.7864	25.04	0.21	-0.750			
0.1879	12023.27	3.8690	3.8690	-0.7833	25.04	0.21	-0.750			
0.1902	12172.74	3.8660	3.8660	-0.7813	25.05	0.22	-0.750			
0.1925	12322.87	3.8630	3.8630	-0.7731	25.05	0.22	-0.750			
0.1948	12467.64	3.8600	3.8600	-0.7717	25.06	0.23	-0.750			
0.1972	12617.81	3.8570	3.8570	-0.7804	25.07	0.24	-0.750			
0.1995	12767.88	3.8540	3.8541	-0.7837	25.07	0.24	-0.750			
0.2018	12918.32	3.8510	3.8510	-0.7855	25.08	0.25	-0.750			
0.2042	13070.04	3.8480	3.8480	-0.7873	25.08	0.25	-0.750			
0.2066	13222.11	3.8450	3.8450	-0.7890	25.09	0.26	-0.750			
0.2090	13376.07	3.8420	3.8420	-0.7879	25.09	0.26	-0.750			
0.2113	13525.14	3.8390	3.8391	-0.7780	25.10	0.27	-0.750			
0.2137	13673.66	3.8360	3.8360	-0.7770	25.10	0.27	-0.750			
0.2160	13821.94	3.8330	3.8329	-0.7778	25.11	0.28	-0.750			
0.2183	13970.10	3.8300	3.8300	-0.7750	25.11	0.28	-0.750			
0.2206	14118.69	3.8270	3.8269	-0.7761	25.11	0.28	-0.750			
0.2230	14268.91	3.8240	3.8240	-0.7772	25.12	0.29	-0.750			
0.2253	14419.01	3.8210	3.8210	-0.7787	25.12	0.29	-0.750			
0.2276	14568.87	3.8180	3.8180	-0.7748	25.13	0.30	-0.750			
0.2300	14717.00	3.8150	3.8150	-0.7697	25.13	0.30	-0.750			
0.2323	14864.23	3.8120	3.8120	-0.7622	25.13	0.30	-0.750			
0.2345	15011.05	3.8090	3.8089	-0.7566	25.14	0.31	-0.750			
0.2368	15154.41	3.8060	3.8061	-0.7533	25.14	0.31	-0.750			
0.2390	15298.12	3.8030	3.8030	-0.7506	25.15	0.32	-0.750			
0.2413	15440.57	3.8000	3.8000	-0.7497	25.15	0.32	-0.750			
0.2435	15586.61	3.7970	3.7970	-0.7474	25.16	0.33	-0.750			
0.2458	15730.04	3.7940	3.7940	-0.7453	25.17	0.34	-0.750			
0.2480	15873.23	3.7910	3.7910	-0.7439	25.18	0.35	-0.750			
0.2503	16016.02	3.7880	3.7881	-0.7388	25.18	0.35	-0.750			
0.2524	16156.51	3.7850	3.7849	-0.7310	25.18	0.35	-0.750			
0.2546	16295.86	3.7820	3.7820	-0.7281	25.18	0.35	-0.750			
0.2568	16434.55	3.7790	3.7791	-0.7249	25.19	0.36	-0.750			
0.2590	16574.44	3.7760	3.7759	-0.7264	25.19	0.36	-0.750			
0.2611	16713.58	3.7730	3.7730	-0.7243	25.19	0.36	-0.750			
0.2633	16852.27	3.7700	3.7700	-0.7246	25.19	0.36	-0.750			
0.2655	16993.13	3.7670	3.7670	-0.7223	25.20	0.37	-0.750			
0.2677	17131.09	3.7640	3.7640	-0.7275	25.20	0.37	-0.750			
0.2699	17270.84	3.7610	3.7610	-0.7237	25.21	0.38	-0.750			
0.2720	17410.16	3.7580	3.7580	-0.7257	25.21	0.38	-0.750			
0.2742	17548.64	3.7550	3.7553	-0.7302	25.22	0.39	-0.750			
0.2764	17689.21	3.7520	3.7520	-0.7322	25.22	0.39	-0.750			
0.2786	17829.13	3.7490	3.7489	-0.7406	25.23	0.40	-0.750			
0.2808	17971.80	3.7460	3.7460	-0.7475	25.23	0.40	-0.750			
0.2831	18115.76	3.7430	3.7431	-0.7572	25.23	0.40	-0.750			
0.2854	18262.80	3.7400	3.7399	-0.7661	25.24	0.41	-0.750			
0.2877	18409.97	3.7370	3.7371	-0.7740	25.24	0.41	-0.750			
0.2900	18557.98	3.7340	3.7340	-0.7888	25.24	0.41	-0.750			
0.2924	18711.24	3.7310	3.7310	-0.8006	25.24	0.41	-0.750			
0.2948	18866.08	3.7280	3.7279	-0.8050	25.24	0.41	-0.750			
0.2972	19022.67	3.7250	3.7249	-0.8157	25.24	0.41	-0.750			
0.2997	19179.79	3.7220	3.7222	-0.8283	25.24	0.41	-0.750			
0.3022	19339.97	3.7190	3.7189	-0.8385	25.24	0.41	-0.750			
0.3047	19501.21	3.7160	3.7159	-0.8491	25.25	0.42	-0.750			
0.3073	19664.57	3.7130	3.7130	-0.8641	25.25	0.42	-0.750			
0.3099	19832.91	3.7100	3.7100	-0.8808	25.26	0.43	-0.750			
0.3126	20003.27	3.7070	3.7070	-0.8968	25.26	0.43	-0.750			
0.3153	20176.22	3.7040	3.7040	-0.9110	25.26	0.43	-0.750			
0.3180	20351.27	3.7010	3.7010	-0.9306	25.26	0.43	-0.750			
0.3208	20531.86	3.6980	3.6980	-0.9463	25.26	0.43	-0.750			
0.3237	20716.42	3.6950	3.6950	-0.9681	25.26	0.43	-0.750			
0.3266	20904.23	3.6920	3.6920	-0.9842	25.26	0.43	-0.750			
0.3296	21095.96	3.6890	3.6890	-1.0018	25.26	0.43	-0.750			
0.3326	21289.34	3.6860	3.6860	-1.0156	25.26	0.43	-0.750			
0.3357	21486.34	3.6830	3.6829	-1.0286	25.26	0.43	-0.750			
0.3388	21684.11	3.6800	3.6800	-1.0470	25.26	0.43	-0.750			
0.3420	21887.56	3.6770	3.6770	-1.0674	25.25	0.42	-0.750			
0.3452	22092.97	3.6740	3.6740	-1.0837	25.25	0.42	-0.750			
0.3485	22302.60	3.6710	3.6711	-1.1015	25.24	0.41	-0.750			
0.3518	22517.60	3.6680	3.6680	-1.1260	25.24	0.41	-0.750			
0.3553	22736.22	3.6650	3.6650	-1.1451	25.24	0.41	-0.750			
0.3587	22958.20	3.6620	3.6620	-1.1630	25.23	0.40	-0.750			
0.3622	23181.22	3.6590	3.6591	-1.1866	25.23	0.40	-0.750			
0.3658	23413.35	3.6560	3.6560	-1.2100	25.23	0.40	-0.750			
0.3695	23647.53	3.6530	3.6529	-1.2339	25.22	0.39	-0.750			
0.3732	23884.46	3.6500	3.6500	-1.2636	25.22	0.39	-0.750			
0.3771	24135.83	3.6470	3.6469	-1.2690	25.22	0.39	-0.750			
0.3810	24382.74	3.6440	3.6439	-1.2695	25.21	0.38	-0.750			
0.3848	24625.65	3.6410	3.6411	-1.2826	25.20	0.37	-0.750			
0.3886	24867.39	3.6380	3.6382	-1.2988	25.20	0.37	-0.750			
0.3924	25115.67	3.6350	3.6348	-1.3209	25.19	0.36	-0.750			
0.3964	25367.00	3.6320	3.6318	-1.3571	25.18	0.35	-0.750			
0.4005	25630.25	3.6290	3.6291	-1.3836	25.18	0.35	-0.750			
0.4047	25903.25	3.6260	3.6260	-1.4394	25.18	0.35	-0.750			
0.4092	26189.26	3.6230	3.6229	-1.4716	25.17	0.34	-0.750			
0.4136	26471.20	3.6200	3.6199	-1.5013	25.17	0.34	-0.750			
0.4182	26765.84	3.6170	3.6170	-1.5396	25.16	0.33	-0.750			
0.4229	27067.19	3.6140	3.6138	-1.5692	25.15	0.32	-0.750			
0.4277	27371.85	3.6110	3.6111	-1.5921	25.15	0.32	-0.750	0.392	0.565	
0.4325	27681.53	3.6080	3.6082	-1.6398	25.14	0.31	-0.750			
0.4375	27998.06	3.6050	3.6051	-1.6548	25.14	0.31	-0.750			
0.4425	28316.94	3.6020	3.6021	-1.6717	25.13	0.30	-0.750			
0.4475	28641.26	3.5990	3.5992	-1.7061	25.12	0.29	-0.750			
0.4526	28967.25	3.5960	3.5962	-1.7506	25.12	0.29	-0.750			
0.4579	29308.11	3.5930	3.5925	-1.8093	25.11	0.28	-0.750			
0.4634	29657.49	3.5900	3.5901	-1.8430	25.11	0.28	-0.750			
0.4691	30021.16	3.5870	3.5869	-1.8625	25.10	0.27	-0.750			
0.4748	30386.73	3.5840	3.5839	-1.9071	25.10	0.27	-0.750			
0.4804	30744.89	3.5810	3.5808	-1.9198	25.10	0.27	-0.750			
0.4862	31118.97	3.5780	3.5780	-1.9581	25.10	0.27	-0.750			
0.4922	31500.31	3.5750	3.5748	-1.9731	25.10	0.27	-0.750			
0.4982	31884.61	3.5720	3.5721	-2.0084	25.10	0.27	-0.750			
0.5043	32278.04	3.5690	3.5690	-2.0317	25.10	0.27	-0.750			
0.5106	32677.62	3.5660	3.5661	-2.0639	25.09	0.26	-0.750			
0.5167	33069.74	3.5630	3.5631	-2.0527	25.09	0.26	-0.750			
0.5229	33466.11	3.5600	3.5601	-2.0622	25.09	0.26	-0.750			
0.5291	33860.33	3.5570	3.5570	-2.0820	25.09	0.26	-0.750			
0.5354	34268.40	3.5540	3.5540	-2.0929	25.09	0.26	-0.750			
0.5417	34671.31	3.5510	3.5510	-2.1024	25.09	0.26	-0.750			
0.5480	35074.70	3.5480	3.5480	-2.0954	25.09	0.26	-0.750			
0.5543	35475.62	3.5450	3.5450	-2.0835	25.09	0.26	-0.750			
0.5606	35879.96	3.5420	3.5420	-2.0774	25.10	0.27	-0.750			
0.5668	36274.10	3.5390	3.5389	-2.0656	25.10	0.27	-0.750			
0.5730	36671.74	3.5360	3.5360	-2.0222	25.10	0.27	-0.750			
0.5791	37059.24	3.5330	3.5332	-2.0094	25.11	0.28	-0.750			
0.5850	37441.56	3.5300	3.5299	-1.9758	25.12	0.29	-0.750			
0.5909	37820.36	3.5270	3.5269	-1.9534	25.13	0.30	-0.750			
0.5967	38190.33	3.5240	3.5240	-1.9151	25.14	0.31	-0.750			
0.6024	38554.04	3.5210	3.5212	-1.8754	25.14	0.31	-0.750			
0.6080	38915.06	3.5180	3.5182	-1.8486	25.14	0.31	-0.750			
0.6136	39273.42	3.5150	3.5147	-1.8241	25.14	0.31	-0.750			
0.6189	39610.94	3.5120	3.5121	-1.7901	25.15	0.32	-0.750			
0.6244	39960.46	3.5090	3.5091	-1.7515	25.15	0.32	-0.750			
0.6296	40294.45	3.5060	3.5061	-1.7154	25.16	0.33	-0.750			
0.6347	40620.37	3.5030	3.5031	-1.6651	25.18	0.35	-0.750			
0.6396	40934.83	3.5000	3.4998	-1.6028	25.19	0.36	-0.750			
0.6443	41235.33	3.4970	3.4970	-1.5530	25.20	0.37	-0.750			
0.6488	41524.87	3.4940	3.4941	-1.5057	25.22	0.39	-0.750			
0.6533	41809.71	3.4910	3.4908	-1.4657	25.23	0.40	-0.750			
0.6576	42088.89	3.4880	3.4879	-1.4285	25.24	0.41	-0.750			
0.6618	42355.36	3.4850	3.4853	-1.3867	25.25	0.42	-0.750			
0.6660	42625.50	3.4820	3.4819	-1.3508	25.27	0.44	-0.750			
0.6700	42879.87	3.4790	3.4789	-1.3018	25.28	0.45	-0.750			
0.6738	43123.29	3.4760	3.4762	-1.2453	25.30	0.47	-0.750			
0.6775	43357.59	3.4730	3.4729	-1.2158	25.31	0.48	-0.750			
0.6810	43583.86	3.4700	3.4700	-1.1720	25.32	0.49	-0.750			
0.6844	43804.04	3.4670	3.4669	-1.1272	25.33	0.50	-0.750			
0.6878	44017.61	3.4640	3.4641	-1.1064	25.34	0.51	-0.750			
0.6911	44227.68	3.4610	3.4610	-1.0770	25.35	0.52	-0.750			
0.6942	44429.16	3.4580	3.4580	-1.0435	25.36	0.53	-0.750			
0.6973	44625.45	3.4550	3.4548	-1.0082	25.37	0.54	-0.750			
0.7003	44818.62	3.4520	3.4521	-0.9826	25.38	0.55	-0.750			
0.7032	45004.74	3.4490	3.4490	-0.9618	25.39	0.56	-0.750			
0.7061	45187.91	3.4460	3.4460	-0.9353	25.40	0.57	-0.750			
0.7088	45362.35	3.4430	3.4430	-0.9033	25.41	0.58	-0.750			
0.7115	45533.90	3.4400	3.4403	-0.8878	25.42	0.59	-0.750			
0.7141	45700.84	3.4370	3.4370	-0.8697	25.43	0.60	-0.750			
0.7167	45866.01	3.4340	3.4340	-0.8652	25.44	0.61	-0.750			
0.7192	46031.91	3.4310	3.4309	-0.8526	25.44	0.61	-0.750			
0.7218	46195.37	3.4280	3.4279	-0.8479	25.45	0.62	-0.750			
0.7243	46356.83	3.4250	3.4254	-0.8475	25.46	0.63	-0.750			
0.7268	46517.72	3.4220	3.4220	-0.8445	25.47	0.64	-0.750			
0.7294	46678.74	3.4190	3.4188	-0.8456	25.48	0.65	-0.750			
0.7319	46840.95	3.4160	3.4161	-0.8464	25.48	0.65	-0.750			
0.7344	47004.48	3.4130	3.4130	-0.8526	25.49	0.66	-0.750			
0.7370	47169.07	3.4100	3.4100	-0.8521	25.50	0.67	-0.750			
0.7396	47333.53	3.4070	3.4070	-0.8478	25.50	0.67	-0.750			
0.7421	47495.12	3.4040	3.4040	-0.8492	25.51	0.68	-0.750			
0.7447	47659.95	3.4010	3.4010	-0.8399	25.51	0.68	-0.750			
0.7472	47822.22	3.3980	3.3979	-0.8310	25.52	0.69	-0.750			
0.7497	47981.24	3.3950	3.3952	-0.8149	25.52	0.69	-0.750			
0.7521	48136.45	3.3920	3.3919	-0.7993	25.53	0.70	-0.750			
0.7545	48288.66	3.3890	3.3890	-0.7790	25.54	0.71	-0.750			
0.7568	48434.05	3.3860	3.3860	-0.7549	25.54	0.71	-0.750			
0.7591	48579.37	3.3830	3.3830	-0.7408	25.55	0.72	-0.750			
0.7613	48720.52	3.3800	3.3799	-0.7224	25.56	0.73	-0.750			
0.7634	48858.13	3.3770	3.3769	-0.6984	25.57	0.74	-0.750			
0.7655	48990.04	3.3740	3.3739	-0.6752	25.57	0.74	-0.750			
0.7674	49116.00	3.3710	3.3711	-0.6551	25.58	0.75	-0.750			
0.7694	49240.30	3.3680	3.3680	-0.6357	25.58	0.75	-0.750			
0.7712	49359.87	3.3650	3.3649	-0.6145	25.59	0.76	-0.750			
0.7731	49476.50	3.3620	3.3620	-0.5949	25.60	0.77	-0.750			
0.7748	49588.99	3.3590	3.3590	-0.5745	25.60	0.77	-0.750			
0.7765	49697.36	3.3560	3.3560	-0.5584	25.61	0.78	-0.750			
0.7782	49801.94	3.3530	3.3530	-0.5383	25.61	0.78	-0.750			
0.7797	49903.33	3.3500	3.3500	-0.5198	25.62	0.79	-0.750			
0.7813	50001.31	3.3470	3.3470	-0.5060	25.62	0.79	-0.750			
0.7828	50096.79	3.3440	3.3440	-0.4920	25.63	0.80	-0.750			
0.7842	50190.33	3.3410	3.3410	-0.4782	25.63	0.80	-0.750			
0.7856	50280.59	3.3380	3.3378	-0.4652	25.64	0.81	-0.750			
0.7870	50368.07	3.3350	3.3352	-0.4500	25.64	0.81	-0.750			
0.7883	50453.86	3.3320	3.3320	-0.4372	25.65	0.82	-0.750			
0.7896	50536.76	3.3290	3.3290	-0.4223	25.65	0.82	-0.750			
0.7909	50615.61	3.3260	3.3261	-0.4077	25.66	0.83	-0.750			
0.7921	50692.54	3.3230	3.3230	-0.3961	25.66	0.83	-0.750			
0.7932	50767.21	3.3200	3.3200	-0.3857	25.67	0.84	-0.750			
0.7944	50839.16	3.3170	3.3170	-0.3785	25.67	0.84	-0.750			
0.7955	50911.72	3.3140	3.3139	-0.3719	25.68	0.85	-0.750			
0.7966	50982.99	3.3110	3.3109	-0.3646	25.68	0.85	-0.750			
0.7977	51052.90	3.3080	3.3080	-0.3544	25.68	0.85	-0.750			
0.7988	51120.47	3.3050	3.3052	-0.3451	25.69	0.86	-0.750			
0.7998	51185.76	3.3020	3.3019	-0.3362	25.69	0.86	-0.750			
0.8008	51248.64	3.2990	3.2990	-0.3248	25.70	0.87	-0.750			
0.8017	51309.26	3.2960	3.2959	-0.3165	25.70	0.87	-0.750			
0.8026	51368.62	3.2930	3.2930	-0.3106	25.71	0.88	-0.750			
0.8036	51428.07	3.2900	3.2901	-0.3067	25.71	0.88	-0.750			
0.8045	51486.55	3.2870	3.2870	-0.3022	25.72	0.89	-0.750			
0.8054	51544.13	3.2840	3.2841	-0.2969	25.73	0.90	-0.750			
0.8063	51600.97	3.2810	3.2810	-0.2916	25.73	0.90	-0.750			
0.8071	51656.87	3.2780	3.2779	-0.2859	25.73	0.90	-0.750			
0.8080	51710.55	3.2750	3.2751	-0.2803	25.74	0.91	-0.750			
0.8088	51763.61	3.2720	3.2720	-0.2759	25.74	0.91	-0.750			
0.8096	51815.92	3.2690	3.2690	-0.2714	25.75	0.92	-0.750			
0.8104	51867.87	3.2660	3.2660	-0.2668	25.75	0.92	-0.750			
0.8112	51918.58	3.2630	3.2630	-0.2643	25.76	0.93	-0.750			
0.8120	51969.17	3.2600	3.2601	-0.2605	25.76	0.93	-0.750			
0.8128	52019.05	3.2570	3.2569	-0.2566	25.77	0.94	-0.750			
0.8136	52067.47	3.2540	3.2541	-0.2523	25.77	0.94	-0.750			
0.8143	52115.38	3.2510	3.2511	-0.2488	25.78	0.95	-0.750			
0.8150	52163.04	3.2480	3.2480	-0.2459	25.78	0.95	-0.750			
0.8158	52210.10	3.2450	3.2449	-0.2427	25.79	0.96	-0.750			
0.8165	52255.99	3.2420	3.2420	-0.2375	25.80	0.97	-0.750			
0.8172	52301.78	3.2390	3.2391	-0.2343	25.80	0.97	-0.750			
0.8179	52345.98	3.2360	3.2361	-0.2313	25.81	0.98	-0.750			
0.8186	52389.76	3.2330	3.2330	-0.2288	25.81	0.98	-0.750			
0.8193	52432.93	3.2300	3.2300	-0.2263	25.82	0.99	-0.750			
0.8199	52475.81	3.2270	3.2270	-0.2242	25.82	0.99	-0.750			
0.8206	52518.91	3.2240	3.2240	-0.2225	25.82	0.99	-0.750			
0.8213	52561.61	3.2210	3.2210	-0.2208	25.83	1.00	-0.750			
0.8219	52604.46	3.2180	3.2181	-0.2188	25.83	1.00	-0.750			
0.8226	52646.66	3.2150	3.2149	-0.2157	25.84	1.01	-0.750			
0.8232	52687.62	3.2120	3.2120	-0.2117	25.84	1.01	-0.750			
0.8239	52727.74	3.2090	3.2089	-0.2095	25.85	1.02	-0.750			
0.8245	52767.32	3.2060	3.2061	-0.2065	25.85	1.02	-0.750			
0.8251	52806.79	3.2030	3.2030	-0.2046	25.86	1.03	-0.750			
0.8257	52845.68	3.2000	3.1999	-0.2028	25.86	1.03	-0.750			
0.8263	52884.53	3.1970	3.1970	-0.2001	25.87	1.04	-0.750			
0.8269	52922.82	3.1940	3.1940	-0.1989	25.88	1.05	-0.750			
0.8275	52961.14	3.1910	3.1909	-0.1974	25.88	1.05	-0.750			
0.8281	52998.85	3.1880	3.1881	-0.1941	25.89	1.06	-0.750			
0.8287	53035.38	3.1850	3.1849	-0.1919	25.89	1.06	-0.750			
0.8293	53072.04	3.1820	3.1820	-0.1898	25.90	1.07	-0.750			
0.8298	53108.31	3.1790	3.1791	-0.1880	25.90	1.07	-0.750			
0.8304	53144.09	3.1760	3.1759	-0.1866	25.91	1.08	-0.750			
0.8309	53179.83	3.1730	3.1730	-0.1855	25.91	1.08	-0.750			
0.8315	53215.13	3.1700	3.1700	-0.1835	25.92	1.09	-0.750			
0.8320	53250.26	3.1670	3.1670	-0.1825	25.92	1.09	-0.750			
0.8326	53285.66	3.1640	3.1640	-0.1806	25.93	1.10	-0.750			
0.8331	53319.96	3.1610	3.1610	-0.1785	25.93	1.10	-0.750			
0.8337	53354.31	3.1580	3.1580	-0.1770	25.94	1.11	-0.750			
0.8342	53388.05	3.1550	3.1550	-0.1747	25.94	1.11	-0.750			
0.8347	53421.14	3.1520	3.1520	-0.1728	25.95	1.12	-0.750			
0.8352	53454.34	3.1490	3.1490	-0.1701	25.95	1.12	-0.750			
0.8357	53486.90	3.1460	3.1459	-0.1680	25.96	1.13	-0.750			
0.8362	53518.79	3.1430	3.1430	-0.1664	25.97	1.14	-0.750			
0.8367	53550.34	3.1400	3.1401	-0.1657	25.97	1.14	-0.750			
0.8372	53581.83	3.1370	3.1369	-0.1638	25.98	1.15	-0.750			
0.8377	53613.23	3.1340	3.1339	-0.1632	25.98	1.15	-0.750			
0.8382	53644.52	3.1310	3.1309	-0.1619	25.99	1.16	-0.750			
0.8387	53675.60	3.1280	3.1281	-0.1604	26.00	1.17	-0.750			
0.8392	53706.68	3.1250	3.1251	-0.1601	26.00	1.17	-0.750			
0.8396	53737.20	3.1220	3.1219	-0.1579	26.01	1.18	-0.750			
0.8401	53767.04	3.1190	3.1190	-0.1565	26.01	1.18	-0.750			
0.8406	53796.82	3.1160	3.1160	-0.1542	26.02	1.19	-0.750			
0.8410	53826.56	3.1130	3.1130	-0.1531	26.02	1.19	-0.750			
0.8415	53855.78	3.1100	3.1100	-0.1513	26.03	1.20	-0.750			
0.8419	53884.75	3.1070	3.1071	-0.1495	26.04	1.21	-0.750			
0.8424	53912.97	3.1040	3.1039	-0.1487	26.04	1.21	-0.750			
0.8428	53941.12	3.1010	3.1010	-0.1472	26.05	1.22	-0.750			
0.8433	53969.39	3.0980	3.0980	-0.1463	26.05	1.22	-0.750			
0.8437	53997.23	3.0950	3.0949	-0.1451	26.06	1.23	-0.750			
0.8441	54025.26	3.0920	3.0921	-0.1447	26.06	1.23	-0.750			
0.8446	54053.07	3.0890	3.0890	-0.1438	26.07	1.24	-0.750			
0.8450	54080.60	3.0860	3.0859	-0.1421	26.07	1.24	-0.750			
0.8454	54107.76	3.0830	3.0830	-0.1412	26.08	1.25	-0.750			
0.8459	54134.52	3.0800	3.0800	-0.1393	26.08	1.25	-0.750			
0.8463	54161.32	3.0770	3.0770	-0.1385	26.09	1.26	-0.750			
0.8467	54187.78	3.0740	3.0739	-0.1371	26.09	1.26	-0.750			
0.8471	54213.91	3.0710	3.0711	-0.1360	26.10	1.27	-0.750			
0.8475	54239.85	3.0680	3.0679	-0.1347	26.10	1.27	-0.750			
0.8479	54265.52	3.0650	3.0651	-0.1346	26.11	1.28	-0.750			
0.8483	54291.36	3.0620	3.0619	-0.1337	26.11	1.28	-0.750			
0.8487	54316.74	3.0590	3.0590	-0.1329	26.12	1.29	-0.750			
0.8491	54342.30	3.0560	3.0558	-0.1329	26.12	1.29	-0.750			
0.8495	54368.03	3.0530	3.0531	-0.1316	26.13	1.30	-0.750			
0.8499	54393.36	3.0500	3.0499	-0.1308	26.13	1.30	-0.750			
0.8503	54418.56	3.0470	3.0470	-0.1299	26.14	1.31	-0.750			
0.8507	54443.33	3.0440	3.0440	-0.1282	26.14	1.31	-0.750			
0.8511	54467.43	3.0410	3.0411	-0.1269	26.15	1.32	-0.750			
0.8514	54491.75	3.0380	3.0380	-0.1260	26.15	1.32	-0.750			
0.8518	54515.69	3.0350	3.0349	-0.1254	26.16	1.33	-0.750			
0.8522	54539.28	3.0320	3.0320	-0.1241	26.16	1.33	-0.750			
0.8526	54563.26	3.0290	3.0289	-0.1236	26.17	1.34	-0.750			
0.8529	54587.12	3.0260	3.0261	-0.1235	26.18	1.35	-0.750			
0.8533	54610.61	3.0230	3.0230	-0.1234	26.18	1.35	-0.750			
0.8537	54634.29	3.0200	3.0201	-0.1232	26.19	1.36	-0.750			
0.8540	54658.15	3.0170	3.0170	-0.1222	26.19	1.36	-0.750			
0.8544	54681.59	3.0140	3.0140	-0.1216	26.20	1.37	-0.750			
0.8548	54704.85	3.0110	3.0109	-0.1208	26.20	1.37	-0.750			
0.8551	54728.15	3.0080	3.0081	-0.1198	26.21	1.38	-0.750			
0.8555	54751.02	3.0050	3.0051	-0.1185	26.21	1.38	-0.750			
0.8558	54773.44	3.0020	3.0020	-0.1110	26.22	1.39	-0.750			
