Ah_balance (normalized)	Ah_balance (mAh)	Voltage - fit (V)	Voltage -  interpolate (V)	dQ/dV (1/V)	Temperature (°C)	Temperature - diff (°C)	Current (C)	R_DC 0ms (mOhm)	R_DC 50ms (mOhm)	R_DC 50 ms PEC (mOhm)
0.0548	3508.14	4.1970	4.1970	0.7691	26.66	0.69	0.750			
0.0571	3654.48	4.1940	4.1940	0.7614	26.66	0.69	0.750			
0.0594	3799.58	4.1910	4.1910	0.7598	26.66	0.69	0.750			
0.0616	3945.23	4.1880	4.1879	0.7599	26.66	0.69	0.750			
0.0639	4090.92	4.1850	4.1850	0.7573	26.66	0.69	0.750			
0.0662	4235.93	4.1820	4.1821	0.7574	26.66	0.69	0.750			
0.0685	4381.95	4.1790	4.1790	0.7587	26.66	0.69	0.750			
0.0707	4527.69	4.1760	4.1760	0.7589	26.66	0.69	0.750			
0.0730	4672.03	4.1730	4.1730	0.7601	26.66	0.69	0.750			
0.0753	4817.93	4.1700	4.1699	0.7618	26.66	0.69	0.750			
0.0776	4965.43	4.1670	4.1670	0.7629	26.66	0.69	0.750			
0.0799	5112.09	4.1640	4.1640	0.7668	26.66	0.69	0.750			
0.0822	5260.22	4.1610	4.1610	0.7655	26.66	0.69	0.750			
0.0845	5407.36	4.1580	4.1580	0.7679	26.66	0.69	0.750			
0.0868	5554.27	4.1550	4.1550	0.7665	26.66	0.69	0.750			
0.0891	5701.07	4.1520	4.1520	0.7655	26.66	0.69	0.750			
0.0914	5847.60	4.1490	4.1491	0.7716	26.66	0.69	0.750			
0.0937	5996.91	4.1460	4.1460	0.7694	26.66	0.69	0.750			
0.0960	6144.07	4.1430	4.1429	0.7714	26.66	0.69	0.750			
0.0983	6292.50	4.1400	4.1400	0.7726	26.66	0.69	0.750			
0.1006	6439.94	4.1370	4.1369	0.7726	26.66	0.69	0.750			
0.1030	6589.65	4.1340	4.1340	0.7753	26.66	0.69	0.750			
0.1053	6739.43	4.1310	4.1310	0.7703	26.66	0.69	0.750			
0.1076	6885.31	4.1280	4.1280	0.7717	26.66	0.69	0.750			
0.1099	7035.14	4.1250	4.1251	0.7758	26.66	0.69	0.750			
0.1122	7181.40	4.1220	4.1220	0.7803	26.66	0.69	0.750			
0.1146	7332.87	4.1190	4.1190	0.7844	26.66	0.69	0.750			
0.1169	7484.47	4.1160	4.1160	0.7864	26.66	0.69	0.750			
0.1193	7636.92	4.1130	4.1131	0.7868	26.66	0.69	0.750			
0.1217	7789.74	4.1100	4.1100	0.7913	26.66	0.69	0.750			
0.1241	7939.93	4.1070	4.1071	0.7855	26.66	0.69	0.750			
0.1264	8089.66	4.1040	4.1040	0.7859	26.66	0.69	0.750			
0.1287	8239.05	4.1010	4.1009	0.7878	26.66	0.69	0.750			
0.1311	8391.99	4.0980	4.0981	0.7852	26.66	0.69	0.750			
0.1334	8540.44	4.0950	4.0950	0.7910	26.66	0.69	0.750			
0.1358	8693.46	4.0920	4.0921	0.7965	26.66	0.69	0.750			
0.1382	8846.70	4.0890	4.0886	0.7997	26.66	0.69	0.750			
0.1406	9000.82	4.0860	4.0861	0.8046	26.66	0.69	0.750			
0.1431	9155.46	4.0830	4.0831	0.8066	26.66	0.69	0.750			
0.1455	9311.82	4.0800	4.0800	0.8107	26.66	0.69	0.750			
0.1479	9467.89	4.0770	4.0770	0.8055	26.66	0.69	0.750			
0.1503	9621.93	4.0740	4.0737	0.8046	26.66	0.69	0.750			
0.1528	9776.19	4.0710	4.0712	0.8098	26.66	0.69	0.750			
0.1552	9935.33	4.0680	4.0679	0.7966	26.66	0.69	0.750			
0.1576	10084.38	4.0650	4.0650	0.8143	26.65	0.68	0.750			
0.1600	10241.64	4.0620	4.0621	0.8214	26.65	0.68	0.750			
0.1625	10399.58	4.0590	4.0589	0.8229	26.65	0.68	0.750			
0.1650	10558.94	4.0560	4.0562	0.8278	26.65	0.68	0.750			
0.1675	10719.11	4.0530	4.0533	0.8314	26.65	0.68	0.750			
0.1700	10879.63	4.0500	4.0499	0.8316	26.66	0.69	0.750			
0.1725	11039.71	4.0470	4.0470	0.8200	26.66	0.69	0.750			
0.1750	11197.24	4.0440	4.0440	0.8226	26.66	0.69	0.750			
0.1775	11357.65	4.0410	4.0410	0.8277	26.66	0.69	0.750			
0.1800	11518.74	4.0380	4.0379	0.8173	26.66	0.69	0.750			
0.1824	11671.39	4.0350	4.0350	0.8245	26.65	0.68	0.750			
0.1848	11828.85	4.0320	4.0321	0.8287	26.65	0.68	0.750			
0.1873	11988.73	4.0290	4.0288	0.8321	26.65	0.68	0.750			
0.1898	12148.73	4.0260	4.0262	0.8390	26.65	0.68	0.750			
0.1924	12311.41	4.0230	4.0230	0.8419	26.65	0.68	0.750			
0.1949	12473.91	4.0200	4.0200	0.8483	26.66	0.69	0.750			
0.1975	12637.14	4.0170	4.0171	0.8451	26.66	0.69	0.750			
0.2000	12799.32	4.0140	4.0139	0.8517	26.66	0.69	0.750			
0.2026	12965.22	4.0110	4.0110	0.8607	26.66	0.69	0.750			
0.2052	13131.95	4.0080	4.0080	0.8631	26.66	0.69	0.750			
0.2078	13297.64	4.0050	4.0051	0.8619	26.66	0.69	0.750			
0.2104	13464.01	4.0020	4.0020	0.8680	26.66	0.69	0.750			
0.2130	13629.44	3.9990	3.9988	0.8669	26.66	0.69	0.750			
0.2156	13795.37	3.9960	3.9961	0.8675	26.66	0.69	0.750			
0.2182	13961.82	3.9930	3.9930	0.8693	26.66	0.69	0.750			
0.2208	14130.19	3.9900	3.9901	0.8751	26.66	0.69	0.750			
0.2234	14299.19	3.9870	3.9870	0.8789	26.66	0.69	0.750			
0.2261	14468.13	3.9840	3.9841	0.8805	26.66	0.69	0.750			
0.2287	14637.34	3.9810	3.9810	0.8781	26.66	0.69	0.750			
0.2313	14804.61	3.9780	3.9780	0.8852	26.66	0.69	0.750			
0.2340	14975.49	3.9750	3.9750	0.8878	26.66	0.69	0.750			
0.2367	15146.10	3.9720	3.9719	0.8896	26.66	0.69	0.750			
0.2393	15316.89	3.9690	3.9690	0.8905	26.66	0.69	0.750			
0.2420	15489.95	3.9660	3.9661	0.8867	26.66	0.69	0.750			
0.2447	15659.49	3.9630	3.9630	0.8878	26.66	0.69	0.750			
0.2473	15829.30	3.9600	3.9600	0.8885	26.66	0.69	0.750			
0.2500	15998.37	3.9570	3.9569	0.8855	26.66	0.69	0.750			
0.2526	16169.15	3.9540	3.9539	0.8874	26.66	0.69	0.750			
0.2553	16340.43	3.9510	3.9511	0.8836	26.65	0.68	0.750			
0.2580	16509.39	3.9480	3.9481	0.8867	26.65	0.68	0.750			
0.2606	16679.17	3.9450	3.9450	0.8909	26.64	0.67	0.750			
0.2633	16850.98	3.9420	3.9419	0.8981	26.64	0.67	0.750			
0.2660	17024.77	3.9390	3.9390	0.8908	26.64	0.67	0.750			
0.2687	17195.89	3.9360	3.9362	0.8962	26.64	0.67	0.750			
0.2714	17369.51	3.9330	3.9331	0.9017	26.64	0.67	0.750			
0.2741	17542.79	3.9300	3.9300	0.9003	26.64	0.67	0.750			
0.2767	17711.64	3.9270	3.9269	0.8960	26.64	0.67	0.750			
0.2794	17884.43	3.9240	3.9241	0.8961	26.64	0.67	0.750			
0.2821	18057.48	3.9210	3.9210	0.9009	26.64	0.67	0.750			
0.2849	18232.33	3.9180	3.9180	0.9041	26.64	0.67	0.750			
0.2876	18404.78	3.9150	3.9150	0.9022	26.64	0.67	0.750			
0.2903	18579.61	3.9120	3.9119	0.9026	26.64	0.67	0.750			
0.2930	18751.45	3.9090	3.9090	0.9140	26.63	0.66	0.750			
0.2957	18926.22	3.9060	3.9060	0.9162	26.63	0.66	0.750			
0.2985	19103.75	3.9030	3.9031	0.9240	26.62	0.65	0.750			
0.3013	19280.96	3.9000	3.8999	0.9304	26.62	0.65	0.750			
0.3041	19461.84	3.8970	3.8972	0.9327	26.61	0.64	0.750			
0.3069	19641.92	3.8940	3.8940	0.9364	26.61	0.64	0.750			
0.3097	19821.82	3.8910	3.8910	0.9404	26.60	0.63	0.750			
0.3125	20001.15	3.8880	3.8880	0.9397	26.59	0.62	0.750			
0.3154	20184.62	3.8850	3.8849	0.9422	26.58	0.61	0.750			
0.3182	20363.96	3.8820	3.8820	0.9470	26.58	0.61	0.750			
0.3210	20544.97	3.8790	3.8791	0.9521	26.57	0.60	0.750			
0.3239	20729.51	3.8760	3.8760	0.9615	26.56	0.59	0.750			
0.3268	20913.53	3.8730	3.8731	0.9666	26.56	0.59	0.750			
0.3297	21100.03	3.8700	3.8700	0.9640	26.55	0.58	0.750			
0.3326	21285.59	3.8670	3.8671	0.9715	26.54	0.57	0.750			
0.3355	21473.27	3.8640	3.8641	0.9765	26.53	0.56	0.750			
0.3384	21659.44	3.8610	3.8608	0.9770	26.52	0.55	0.750			
0.3414	21847.13	3.8580	3.8581	0.9801	26.51	0.54	0.750			
0.3443	22035.30	3.8550	3.8551	0.9877	26.50	0.53	0.750			
0.3473	22228.27	3.8520	3.8520	0.9901	26.49	0.52	0.750			
0.3503	22418.50	3.8490	3.8488	0.9913	26.48	0.51	0.750			
0.3533	22610.28	3.8460	3.8460	0.9814	26.47	0.50	0.750			
0.3562	22797.71	3.8430	3.8431	0.9879	26.46	0.49	0.750			
0.3592	22986.69	3.8400	3.8401	0.9902	26.45	0.48	0.750			
0.3621	23174.44	3.8370	3.8370	0.9918	26.44	0.47	0.750			
0.3651	23367.91	3.8340	3.8340	0.9943	26.43	0.46	0.750			
0.3681	23560.40	3.8310	3.8310	1.0034	26.42	0.45	0.750			
0.3711	23751.92	3.8280	3.8281	1.0077	26.41	0.44	0.750			
0.3742	23945.97	3.8250	3.8251	1.0129	26.40	0.43	0.750			
0.3772	24142.90	3.8220	3.8220	1.0182	26.40	0.43	0.750			
0.3803	24337.54	3.8190	3.8190	1.0265	26.39	0.42	0.750			
0.3834	24535.28	3.8160	3.8161	1.0341	26.38	0.41	0.750			
0.3865	24735.94	3.8130	3.8131	1.0522	26.37	0.40	0.750			
0.3896	24936.91	3.8100	3.8099	1.0560	26.36	0.39	0.750			
0.3928	25139.67	3.8070	3.8071	1.0652	26.35	0.38	0.750			
0.3960	25344.66	3.8040	3.8040	1.0836	26.34	0.37	0.750			
0.3993	25556.84	3.8010	3.8011	1.0978	26.33	0.36	0.750			
0.4027	25772.05	3.7980	3.7979	1.0805	26.31	0.34	0.750			
0.4059	25978.59	3.7950	3.7951	1.0962	26.30	0.33	0.750			
0.4092	26187.47	3.7920	3.7921	1.0985	26.29	0.32	0.750			
0.4125	26396.83	3.7890	3.7889	1.1072	26.27	0.30	0.750			
0.4157	26607.93	3.7860	3.7861	1.1252	26.26	0.29	0.750			
0.4191	26821.96	3.7830	3.7831	1.1411	26.25	0.28	0.750			
0.4226	27045.86	3.7800	3.7800	1.1708	26.24	0.27	0.750			
0.4262	27276.80	3.7770	3.7770	1.1764	26.23	0.26	0.750			
0.4297	27502.58	3.7740	3.7741	1.2191	26.22	0.25	0.750			
0.4334	27738.53	3.7710	3.7711	1.2551	26.21	0.24	0.750			
0.4373	27985.05	3.7680	3.7677	1.2785	26.19	0.22	0.750			
0.4411	28231.84	3.7650	3.7652	1.3046	26.18	0.21	0.750	0.309	0.423	
0.4451	28487.31	3.7620	3.7621	1.3368	26.17	0.20	0.750			
0.4492	28748.31	3.7590	3.7590	1.3516	26.15	0.18	0.750			
0.4533	29010.49	3.7560	3.7560	1.3850	26.14	0.17	0.750			
0.4574	29272.62	3.7530	3.7530	1.4004	26.13	0.16	0.750			
0.4617	29546.94	3.7500	3.7500	1.4192	26.11	0.14	0.750			
0.4660	29823.05	3.7470	3.7471	1.4662	26.10	0.13	0.750			
0.4704	30104.84	3.7440	3.7441	1.4962	26.09	0.12	0.750			
0.4750	30397.41	3.7410	3.7408	1.5391	26.07	0.10	0.750			
0.4797	30699.01	3.7380	3.7382	1.5745	26.06	0.09	0.750			
0.4844	31003.54	3.7350	3.7352	1.6253	26.04	0.07	0.750			
0.4894	31323.84	3.7320	3.7322	1.6770	26.03	0.06	0.750			
0.4945	31648.07	3.7290	3.7291	1.7177	26.01	0.04	0.750			
0.4997	31980.96	3.7260	3.7260	1.7564	25.99	0.02	0.750			
0.5050	32319.64	3.7230	3.7231	1.8007	25.98	0.01	0.750			
0.5105	32671.05	3.7200	3.7199	1.8565	25.96	-0.01	0.750			
0.5161	33031.37	3.7170	3.7166	1.8915	25.94	-0.03	0.750			
0.5218	33394.29	3.7140	3.7140	1.9508	25.92	-0.05	0.750			
0.5277	33773.28	3.7110	3.7110	2.0224	25.91	-0.06	0.750			
0.5339	34171.25	3.7080	3.7080	2.0904	25.89	-0.08	0.750			
0.5403	34576.55	3.7050	3.7050	2.1502	25.88	-0.09	0.750			
0.5468	34997.12	3.7020	3.7021	2.2366	25.86	-0.11	0.750			
0.5537	35437.48	3.6990	3.6989	2.2858	25.84	-0.13	0.750			
0.5608	35888.11	3.6960	3.6960	2.3590	25.83	-0.14	0.750			
0.5679	36343.55	3.6930	3.6931	2.4143	25.81	-0.16	0.750			
0.5752	36814.59	3.6900	3.6898	2.4899	25.79	-0.18	0.750			
0.5827	37291.47	3.6870	3.6871	2.5768	25.78	-0.19	0.750			
0.5904	37786.79	3.6840	3.6840	2.6919	25.76	-0.21	0.750			
0.5988	38326.35	3.6810	3.6808	2.7899	25.74	-0.23	0.750			
0.6075	38878.70	3.6780	3.6778	2.8587	25.73	-0.24	0.750			
0.6162	39436.08	3.6750	3.6751	2.8828	25.72	-0.25	0.750			
0.6248	39989.16	3.6720	3.6721	2.9066	25.70	-0.27	0.750			
0.6339	40571.01	3.6690	3.6689	2.8418	25.70	-0.27	0.750			
0.6428	41138.44	3.6660	3.6661	2.7203	25.70	-0.27	0.750			
0.6506	41636.66	3.6630	3.6634	2.4945	25.70	-0.27	0.750			
0.6575	42081.99	3.6600	3.6597	2.1950	25.69	-0.28	0.750			
0.6634	42460.29	3.6570	3.6568	1.9532	25.68	-0.29	0.750			
0.6686	42790.44	3.6540	3.6540	1.7599	25.69	-0.28	0.750			
0.6736	43107.30	3.6510	3.6510	1.6195	25.70	-0.27	0.750			
0.6782	43405.73	3.6480	3.6481	1.5162	25.70	-0.27	0.750			
0.6826	43687.58	3.6450	3.6451	1.4265	25.70	-0.27	0.750			
0.6867	43951.38	3.6420	3.6420	1.3339	25.70	-0.27	0.750			
0.6906	44198.29	3.6390	3.6390	1.2745	25.70	-0.27	0.750			
0.6942	44426.99	3.6360	3.6361	1.2141	25.70	-0.27	0.750			
0.6977	44650.53	3.6330	3.6331	1.1964	25.70	-0.27	0.750			
0.7012	44876.03	3.6300	3.6298	1.1710	25.70	-0.27	0.750			
0.7046	45097.30	3.6270	3.6271	1.1847	25.71	-0.26	0.750			
0.7082	45325.63	3.6240	3.6240	1.1976	25.71	-0.26	0.750			
0.7119	45561.57	3.6210	3.6209	1.2028	25.72	-0.25	0.750			
0.7155	45793.55	3.6180	3.6181	1.1965	25.72	-0.25	0.750			
0.7192	46026.29	3.6150	3.6151	1.1919	25.72	-0.25	0.750			
0.7228	46256.04	3.6120	3.6120	1.1780	25.72	-0.25	0.750			
0.7263	46483.64	3.6090	3.6089	1.1417	25.72	-0.25	0.750			
0.7296	46696.69	3.6060	3.6061	1.1345	25.72	-0.25	0.750			
0.7329	46908.60	3.6030	3.6031	1.1348	25.72	-0.25	0.750			
0.7363	47124.67	3.6000	3.6000	1.1446	25.72	-0.25	0.750			
0.7397	47342.72	3.5970	3.5971	1.1497	25.72	-0.25	0.750			
0.7432	47563.54	3.5940	3.5941	1.1743	25.72	-0.25	0.750			
0.7467	47790.80	3.5910	3.5911	1.2067	25.72	-0.25	0.750			
0.7504	48026.32	3.5880	3.5876	1.2409	25.72	-0.25	0.750			
0.7541	48261.03	3.5850	3.5852	1.2744	25.72	-0.25	0.750			
0.7580	48510.58	3.5820	3.5820	1.3274	25.72	-0.25	0.750			
0.7621	48772.34	3.5790	3.5790	1.3747	25.72	-0.25	0.750			
0.7663	49041.51	3.5760	3.5760	1.4121	25.72	-0.25	0.750			
0.7707	49322.29	3.5730	3.5730	1.4594	25.73	-0.24	0.750			
0.7751	49604.19	3.5700	3.5698	1.5081	25.73	-0.24	0.750			
0.7797	49901.16	3.5670	3.5672	1.5344	25.73	-0.24	0.750			
0.7843	50195.08	3.5640	3.5641	1.5784	25.72	-0.25	0.750			
0.7892	50507.82	3.5610	3.5609	1.6052	25.72	-0.25	0.750			
0.7941	50820.20	3.5580	3.5579	1.6172	25.72	-0.25	0.750			
0.7990	51134.03	3.5550	3.5554	1.6478	25.72	-0.25	0.750			
0.8040	51453.45	3.5520	3.5521	1.6630	25.72	-0.25	0.750			
0.8089	51772.20	3.5490	3.5490	1.6650	25.72	-0.25	0.750			
0.8140	52098.67	3.5460	3.5457	1.7006	25.72	-0.25	0.750			
0.8191	52421.38	3.5430	3.5428	1.7204	25.73	-0.24	0.750			
0.8243	52754.58	3.5400	3.5401	1.7681	25.75	-0.22	0.750			
0.8299	53110.81	3.5370	3.5370	1.7547	25.76	-0.21	0.750			
0.8355	53470.97	3.5340	3.5340	1.6903	25.77	-0.20	0.750			
0.8409	53816.38	3.5310	3.5308	1.5394	25.78	-0.19	0.750			
0.8455	54110.61	3.5280	3.5285	1.3112	25.79	-0.18	0.750			
0.8491	54344.51	3.5250	3.5255	1.0688	25.81	-0.16	0.750			
0.8517	54510.85	3.5220	3.5217	0.7976	25.82	-0.15	0.750			
0.8532	54604.37	3.5190	3.5189	0.5678	25.82	-0.15	0.750			
0.8545	54688.14	3.5160	3.5161	0.4538	25.83	-0.14	0.750			
0.8556	54757.79	3.5130	3.5128	0.3923	25.84	-0.13	0.750			
0.8566	54825.00	3.5100	3.5099	0.3528	25.84	-0.13	0.750			
0.8576	54886.42	3.5070	3.5069	0.3288	25.85	-0.12	0.750			
0.8585	54947.01	3.5040	3.5040	0.3118	25.85	-0.12	0.750			
0.8595	55005.84	3.5010	3.5010	0.3019	25.86	-0.11	0.750			
0.8603	55062.00	3.4980	3.4980	0.2896	25.86	-0.11	0.750			
0.8612	55115.68	3.4950	3.4950	0.2808	25.87	-0.10	0.750			
0.8620	55168.70	3.4920	3.4920	0.2760	25.87	-0.10	0.750			
0.8628	55220.94	3.4890	3.4890	0.2698	25.88	-0.09	0.750			
0.8636	55272.18	3.4860	3.4860	0.2653	25.88	-0.09	0.750			
0.8644	55323.26	3.4830	3.4830	0.2606	25.89	-0.08	0.750			
0.8652	55372.45	3.4800	3.4802	0.2539	25.89	-0.08	0.750			
0.8660	55421.41	3.4770	3.4770	0.2494	25.90	-0.07	0.750			
0.8667	55468.15	3.4740	3.4739	0.2418	25.91	-0.06	0.750			
0.8674	55513.77	3.4710	3.4710	0.2364	25.91	-0.06	0.750			
0.8681	55558.22	3.4680	3.4680	0.2304	25.92	-0.05	0.750			
0.8688	55602.20	3.4650	3.4650	0.2254	25.92	-0.05	0.750			
0.8695	55644.86	3.4620	3.4619	0.2206	25.93	-0.04	0.750			
0.8701	55686.56	3.4590	3.4590	0.2160	25.93	-0.04	0.750			
0.8707	55727.62	3.4560	3.4561	0.2118	25.93	-0.04	0.750			
0.8714	55767.83	3.4530	3.4529	0.2067	25.94	-0.03	0.750			
0.8720	55807.32	3.4500	3.4500	0.2023	25.94	-0.03	0.750			
0.8726	55845.67	3.4470	3.4470	0.1970	25.95	-0.02	0.750			
0.8732	55883.01	3.4440	3.4440	0.1920	25.95	-0.02	0.750			
0.8737	55919.81	3.4410	3.4410	0.1864	25.96	-0.01	0.750			
0.8743	55954.90	3.4380	3.4380	0.1807	25.96	-0.01	0.750			
0.8748	55988.75	3.4350	3.4351	0.1750	25.96	-0.01	0.750			
0.8753	56021.85	3.4320	3.4320	0.1699	25.97	-0.00	0.750			
0.8758	56053.97	3.4290	3.4289	0.1651	25.97	0.00	0.750			
0.8763	56085.20	3.4260	3.4260	0.1594	25.97	0.00	0.750			
0.8768	56115.55	3.4230	3.4229	0.1541	25.98	0.01	0.750			
0.8773	56144.60	3.4200	3.4201	0.1484	25.98	0.01	0.750			
0.8777	56172.73	3.4170	3.4171	0.1434	25.98	0.01	0.750			
0.8781	56199.65	3.4140	3.4139	0.1373	25.99	0.02	0.750			
0.8785	56225.52	3.4110	3.4110	0.1308	25.99	0.02	0.750			
0.8789	56250.04	3.4080	3.4080	0.1246	25.99	0.02	0.750			
0.8793	56273.81	3.4050	3.4049	0.1174	26.00	0.03	0.750			
0.8796	56296.08	3.4020	3.4020	0.1108	26.00	0.03	0.750			
0.8800	56317.86	3.3990	3.3991	0.1001	26.00	0.03	0.750			
0.8803	56336.61	3.3960	3.3958	0.0917	26.00	0.03	0.750			
0.8805	56353.16	3.3930	3.3929	0.0807	26.00	0.03	0.750			
0.8808	56368.17	3.3900	3.3902	0.0704	26.01	0.04	0.750			
0.8809	56380.56	3.3870	3.3875	0.0587	26.01	0.04	0.750			
0.8811	56391.57	3.3840	3.3844	0.0470	26.01	0.04	0.750			
0.8812	56399.37	3.3810	3.3818	0.0342	26.01	0.04	0.750			
0.8813	56404.72	3.3780	3.3796	0.0215	26.01	0.04	0.750			
0.8814	56407.63	3.3750	3.3780	0.0088	26.01	0.04	0.750			
