Ah_balance (normalized)	Ah_balance (mAh)	Voltage - fit (V)	Voltage -  interpolate (V)	dQ/dV (1/V)	Temperature (°C)	Temperature - diff (°C)	Current (C)	R_DC 0ms (mOhm)	R_DC 50ms (mOhm)	R_DC 50 ms PEC (mOhm)
0.0004	23.93	4.1550	4.1545	-0.1164	25.06	0.01	-0.750			
0.0008	50.36	4.1520	4.1519	-0.1536	25.06	0.01	-0.750			
0.0013	82.99	4.1490	4.1489	-0.1885	25.06	0.01	-0.750			
0.0019	123.15	4.1460	4.1460	-0.2217	25.06	0.01	-0.750			
0.0026	168.88	4.1430	4.1431	-0.2552	25.06	0.01	-0.750			
0.0035	221.27	4.1400	4.1400	-0.2895	25.06	0.01	-0.750			
0.0044	280.35	4.1370	4.1370	-0.3208	25.06	0.01	-0.750			
0.0054	345.41	4.1340	4.1339	-0.3511	25.05	0.00	-0.750			
0.0065	415.96	4.1310	4.1310	-0.3802	25.05	0.00	-0.750			
0.0077	493.04	4.1280	4.1283	-0.4054	25.05	-0.00	-0.750			
0.0090	573.82	4.1250	4.1250	-0.4295	25.05	-0.00	-0.750			
0.0103	658.57	4.1220	4.1220	-0.4513	25.05	-0.00	-0.750			
0.0117	747.34	4.1190	4.1190	-0.4718	25.04	-0.01	-0.750			
0.0131	840.46	4.1160	4.1159	-0.4938	25.04	-0.01	-0.750			
0.0146	936.71	4.1130	4.1130	-0.5143	25.04	-0.01	-0.750			
0.0162	1039.11	4.1100	4.1100	-0.5284	25.04	-0.01	-0.750			
0.0179	1142.56	4.1070	4.1071	-0.5439	25.03	-0.02	-0.750			
0.0195	1248.38	4.1040	4.1040	-0.5582	25.03	-0.02	-0.750			
0.0212	1356.94	4.1010	4.1009	-0.5697	25.03	-0.02	-0.750			
0.0229	1467.62	4.0980	4.0979	-0.5796	25.03	-0.02	-0.750			
0.0247	1579.12	4.0950	4.0950	-0.5909	25.03	-0.02	-0.750			
0.0265	1694.40	4.0920	4.0920	-0.6009	25.03	-0.02	-0.750			
0.0283	1811.99	4.0890	4.0890	-0.6100	25.03	-0.02	-0.750			
0.0301	1929.31	4.0860	4.0860	-0.6165	25.03	-0.02	-0.750			
0.0320	2048.52	4.0830	4.0830	-0.6239	25.03	-0.02	-0.750			
0.0339	2169.50	4.0800	4.0799	-0.6299	25.03	-0.02	-0.750			
0.0358	2290.74	4.0770	4.0770	-0.6363	25.03	-0.02	-0.750			
0.0377	2413.46	4.0740	4.0740	-0.6412	25.03	-0.02	-0.750			
0.0397	2537.94	4.0710	4.0710	-0.6523	25.03	-0.02	-0.750			
0.0416	2664.81	4.0680	4.0679	-0.6544	25.03	-0.02	-0.750			
0.0436	2790.97	4.0650	4.0649	-0.6568	25.03	-0.02	-0.750			
0.0456	2917.61	4.0620	4.0622	-0.6586	25.03	-0.02	-0.750			
0.0476	3044.57	4.0590	4.0589	-0.6622	25.03	-0.02	-0.750			
0.0495	3171.15	4.0560	4.0560	-0.6635	25.03	-0.02	-0.750			
0.0515	3296.39	4.0530	4.0530	-0.6657	25.04	-0.01	-0.750			
0.0536	3427.78	4.0500	4.0500	-0.6759	25.04	-0.01	-0.750			
0.0556	3558.34	4.0470	4.0470	-0.6790	25.04	-0.01	-0.750			
0.0576	3689.48	4.0440	4.0442	-0.6810	25.04	-0.01	-0.750			
0.0597	3820.59	4.0410	4.0410	-0.6820	25.04	-0.01	-0.750			
0.0617	3950.39	4.0380	4.0380	-0.6849	25.04	-0.01	-0.750			
0.0638	4082.33	4.0350	4.0350	-0.6876	25.04	-0.01	-0.750			
0.0659	4214.61	4.0320	4.0319	-0.6905	25.05	-0.00	-0.750			
0.0679	4347.35	4.0290	4.0290	-0.6916	25.05	-0.00	-0.750			
0.0700	4480.23	4.0260	4.0260	-0.6956	25.05	-0.00	-0.750			
0.0721	4614.51	4.0230	4.0230	-0.6963	25.05	0.00	-0.750			
0.0742	4748.53	4.0200	4.0199	-0.6955	25.06	0.01	-0.750			
0.0763	4881.14	4.0170	4.0171	-0.7030	25.06	0.01	-0.750			
0.0784	5017.56	4.0140	4.0140	-0.7044	25.06	0.01	-0.750			
0.0805	5154.22	4.0110	4.0109	-0.7072	25.07	0.02	-0.750			
0.0827	5290.48	4.0080	4.0083	-0.7054	25.07	0.02	-0.750			
0.0848	5424.95	4.0050	4.0050	-0.7064	25.08	0.03	-0.750			
0.0869	5560.25	4.0020	4.0020	-0.7119	25.08	0.03	-0.750			
0.0890	5695.56	3.9990	3.9989	-0.7141	25.09	0.04	-0.750			
0.0912	5833.64	3.9960	3.9959	-0.7178	25.09	0.04	-0.750			
0.0933	5972.56	3.9930	3.9930	-0.7205	25.10	0.05	-0.750			
0.0955	6111.40	3.9900	3.9901	-0.7242	25.10	0.05	-0.750			
0.0977	6251.20	3.9870	3.9869	-0.7253	25.10	0.05	-0.750			
0.0998	6388.09	3.9840	3.9840	-0.7268	25.11	0.06	-0.750			
0.1020	6528.45	3.9810	3.9810	-0.7287	25.11	0.06	-0.750			
0.1042	6669.02	3.9780	3.9780	-0.7326	25.11	0.06	-0.750			
0.1064	6810.81	3.9750	3.9749	-0.7362	25.12	0.07	-0.750			
0.1086	6952.85	3.9720	3.9719	-0.7363	25.12	0.07	-0.750			
0.1108	7094.01	3.9690	3.9690	-0.7364	25.13	0.08	-0.750			
0.1131	7235.70	3.9660	3.9660	-0.7376	25.13	0.08	-0.750			
0.1153	7376.24	3.9630	3.9630	-0.7347	25.13	0.08	-0.750			
0.1175	7518.18	3.9600	3.9600	-0.7411	25.14	0.09	-0.750			
0.1197	7659.81	3.9570	3.9570	-0.7408	25.14	0.09	-0.750			
0.1219	7801.83	3.9540	3.9539	-0.7443	25.14	0.09	-0.750			
0.1241	7945.45	3.9510	3.9510	-0.7476	25.14	0.09	-0.750			
0.1264	8089.20	3.9480	3.9481	-0.7479	25.14	0.09	-0.750			
0.1287	8233.91	3.9450	3.9450	-0.7474	25.14	0.09	-0.750			
0.1309	8379.03	3.9420	3.9420	-0.7469	25.14	0.09	-0.750			
0.1331	8521.26	3.9390	3.9390	-0.7473	25.14	0.09	-0.750			
0.1354	8664.08	3.9360	3.9360	-0.7484	25.14	0.09	-0.750			
0.1376	8805.70	3.9330	3.9329	-0.7574	25.14	0.09	-0.750			
0.1399	8951.76	3.9300	3.9300	-0.7620	25.15	0.10	-0.750			
0.1422	9099.92	3.9270	3.9269	-0.7688	25.15	0.10	-0.750			
0.1445	9248.23	3.9240	3.9241	-0.7745	25.15	0.10	-0.750			
0.1469	9399.57	3.9210	3.9211	-0.7792	25.15	0.10	-0.750			
0.1492	9548.78	3.9180	3.9179	-0.7800	25.16	0.11	-0.750			
0.1516	9700.20	3.9150	3.9149	-0.7757	25.17	0.12	-0.750			
0.1539	9848.28	3.9120	3.9121	-0.7698	25.17	0.12	-0.750			
0.1562	9997.10	3.9090	3.9089	-0.7726	25.18	0.13	-0.750			
0.1585	10143.99	3.9060	3.9062	-0.7659	25.18	0.13	-0.750			
0.1607	10287.94	3.9030	3.9029	-0.7656	25.18	0.13	-0.750			
0.1630	10434.96	3.9000	3.9000	-0.7683	25.18	0.13	-0.750			
0.1654	10584.08	3.8970	3.8970	-0.7672	25.19	0.14	-0.750			
0.1677	10732.74	3.8940	3.8940	-0.7701	25.19	0.14	-0.750			
0.1700	10881.87	3.8910	3.8912	-0.7689	25.19	0.14	-0.750			
0.1723	11028.31	3.8880	3.8881	-0.7679	25.19	0.14	-0.750			
0.1746	11174.52	3.8850	3.8849	-0.7719	25.20	0.15	-0.750			
0.1769	11322.07	3.8820	3.8820	-0.7735	25.20	0.15	-0.750			
0.1792	11470.78	3.8790	3.8789	-0.7792	25.20	0.15	-0.750			
0.1816	11622.23	3.8760	3.8760	-0.7820	25.21	0.16	-0.750			
0.1840	11774.02	3.8730	3.8730	-0.7842	25.21	0.16	-0.750			
0.1863	11924.31	3.8700	3.8700	-0.7859	25.21	0.16	-0.750			
0.1887	12075.24	3.8670	3.8670	-0.7835	25.21	0.16	-0.750			
0.1910	12224.49	3.8640	3.8640	-0.7782	25.22	0.17	-0.750			
0.1933	12374.39	3.8610	3.8610	-0.7795	25.22	0.17	-0.750			
0.1957	12524.01	3.8580	3.8581	-0.7793	25.22	0.17	-0.750			
0.1980	12673.99	3.8550	3.8549	-0.7769	25.22	0.17	-0.750			
0.2004	12822.79	3.8520	3.8520	-0.7797	25.23	0.18	-0.750			
0.2027	12972.64	3.8490	3.8491	-0.7785	25.23	0.18	-0.750			
0.2050	13122.69	3.8460	3.8459	-0.7804	25.24	0.19	-0.750			
0.2074	13272.56	3.8430	3.8432	-0.7801	25.24	0.19	-0.750			
0.2097	13421.92	3.8400	3.8399	-0.7755	25.24	0.19	-0.750			
0.2120	13570.41	3.8370	3.8370	-0.7755	25.25	0.20	-0.750			
0.2144	13719.53	3.8340	3.8340	-0.7724	25.25	0.20	-0.750			
0.2167	13866.07	3.8310	3.8310	-0.7705	25.25	0.20	-0.750			
0.2190	14015.29	3.8280	3.8280	-0.7727	25.26	0.21	-0.750			
0.2213	14163.02	3.8250	3.8249	-0.7723	25.26	0.21	-0.750			
0.2236	14309.82	3.8220	3.8220	-0.7785	25.26	0.21	-0.750			
0.2260	14461.04	3.8190	3.8190	-0.7808	25.26	0.21	-0.750			
0.2283	14612.47	3.8160	3.8159	-0.7758	25.27	0.22	-0.750			
0.2307	14763.00	3.8130	3.8129	-0.7702	25.27	0.22	-0.750			
0.2330	14910.21	3.8100	3.8102	-0.7616	25.27	0.22	-0.750			
0.2352	15055.84	3.8070	3.8070	-0.7511	25.27	0.22	-0.750			
0.2375	15196.84	3.8040	3.8040	-0.7478	25.27	0.22	-0.750			
0.2397	15338.37	3.8010	3.8009	-0.7440	25.28	0.23	-0.750			
0.2419	15481.71	3.7980	3.7980	-0.7438	25.28	0.23	-0.750			
0.2441	15625.08	3.7950	3.7950	-0.7397	25.28	0.23	-0.750			
0.2464	15768.08	3.7920	3.7920	-0.7382	25.28	0.23	-0.750			
0.2486	15908.86	3.7890	3.7890	-0.7352	25.29	0.24	-0.750			
0.2508	16049.98	3.7860	3.7860	-0.7305	25.29	0.24	-0.750			
0.2529	16188.44	3.7830	3.7830	-0.7235	25.29	0.24	-0.750			
0.2551	16327.80	3.7800	3.7799	-0.7227	25.30	0.25	-0.750			
0.2573	16466.36	3.7770	3.7772	-0.7214	25.30	0.25	-0.750			
0.2594	16604.21	3.7740	3.7739	-0.7195	25.30	0.25	-0.750			
0.2616	16741.49	3.7710	3.7709	-0.7165	25.31	0.26	-0.750			
0.2637	16879.02	3.7680	3.7680	-0.7203	25.31	0.26	-0.750			
0.2659	17017.33	3.7650	3.7650	-0.7187	25.31	0.26	-0.750			
0.2681	17156.98	3.7620	3.7619	-0.7200	25.32	0.27	-0.750			
0.2702	17294.01	3.7590	3.7593	-0.7226	25.32	0.27	-0.750			
0.2724	17431.47	3.7560	3.7558	-0.7256	25.32	0.27	-0.750			
0.2745	17570.14	3.7530	3.7531	-0.7345	25.32	0.27	-0.750			
0.2767	17711.27	3.7500	3.7499	-0.7399	25.32	0.27	-0.750			
0.2790	17856.35	3.7470	3.7470	-0.7526	25.32	0.27	-0.750			
0.2813	18001.64	3.7440	3.7439	-0.7585	25.32	0.27	-0.750			
0.2836	18147.86	3.7410	3.7410	-0.7642	25.32	0.27	-0.750			
0.2859	18294.58	3.7380	3.7380	-0.7701	25.32	0.27	-0.750			
0.2882	18441.69	3.7350	3.7350	-0.7764	25.32	0.27	-0.750			
0.2905	18590.17	3.7320	3.7320	-0.7850	25.33	0.28	-0.750			
0.2929	18743.97	3.7290	3.7290	-0.7966	25.33	0.28	-0.750			
0.2953	18898.33	3.7260	3.7260	-0.8076	25.33	0.28	-0.750			
0.2977	19053.44	3.7230	3.7230	-0.8194	25.33	0.28	-0.750			
0.3002	19211.53	3.7200	3.7201	-0.8371	25.33	0.28	-0.750			
0.3027	19374.41	3.7170	3.7170	-0.8500	25.34	0.29	-0.750			
0.3053	19539.30	3.7140	3.7138	-0.8631	25.34	0.29	-0.750			
0.3079	19706.16	3.7110	3.7112	-0.8796	25.34	0.29	-0.750			
0.3106	19877.65	3.7080	3.7080	-0.8979	25.34	0.29	-0.750			
0.3133	20049.84	3.7050	3.7049	-0.9097	25.34	0.29	-0.750			
0.3160	20225.79	3.7020	3.7020	-0.9181	25.34	0.29	-0.750			
0.3188	20404.54	3.6990	3.6990	-0.9389	25.34	0.29	-0.750			
0.3217	20586.18	3.6960	3.6960	-0.9512	25.34	0.29	-0.750			
0.3245	20770.72	3.6930	3.6930	-0.9695	25.33	0.28	-0.750			
0.3275	20958.43	3.6900	3.6900	-0.9813	25.33	0.28	-0.750			
0.3304	21148.37	3.6870	3.6870	-0.9987	25.32	0.27	-0.750			
0.3335	21341.02	3.6840	3.6841	-1.0216	25.32	0.27	-0.750			
0.3366	21540.03	3.6810	3.6809	-1.0388	25.31	0.26	-0.750			
0.3397	21739.56	3.6780	3.6779	-1.0533	25.31	0.26	-0.750			
0.3429	21943.75	3.6750	3.6750	-1.0676	25.30	0.25	-0.750			
0.3461	22151.63	3.6720	3.6721	-1.0932	25.30	0.25	-0.750			
0.3494	22363.67	3.6690	3.6690	-1.1129	25.30	0.25	-0.750			
0.3528	22577.55	3.6660	3.6660	-1.1300	25.29	0.24	-0.750			
0.3562	22794.43	3.6630	3.6629	-1.1503	25.29	0.24	-0.750			
0.3597	23019.01	3.6600	3.6600	-1.1792	25.29	0.24	-0.750			
0.3633	23248.21	3.6570	3.6570	-1.1979	25.29	0.24	-0.750			
0.3669	23480.65	3.6540	3.6539	-1.2181	25.28	0.23	-0.750			
0.3706	23717.79	3.6510	3.6512	-1.2438	25.28	0.23	-0.750			
0.3744	23961.21	3.6480	3.6480	-1.2604	25.27	0.22	-0.750			
0.3782	24204.46	3.6450	3.6449	-1.2826	25.27	0.22	-0.750			
0.3821	24451.33	3.6420	3.6423	-1.3118	25.26	0.21	-0.750			
0.3860	24703.84	3.6390	3.6388	-1.3346	25.25	0.20	-0.750			
0.3901	24963.76	3.6360	3.6359	-1.3586	25.25	0.20	-0.750			
0.3941	25224.62	3.6330	3.6331	-1.3878	25.24	0.19	-0.750			
0.3983	25493.16	3.6300	3.6300	-1.4167	25.23	0.18	-0.750			
0.4027	25774.50	3.6270	3.6269	-1.4476	25.23	0.18	-0.750			
0.4071	26051.41	3.6240	3.6241	-1.4785	25.22	0.17	-0.750			
0.4115	26337.44	3.6210	3.6210	-1.4993	25.22	0.17	-0.750			
0.4161	26631.17	3.6180	3.6180	-1.5323	25.22	0.17	-0.750			
0.4207	26926.44	3.6150	3.6151	-1.5600	25.22	0.17	-0.750			
0.4254	27227.26	3.6120	3.6119	-1.5795	25.21	0.16	-0.750	0.390	0.557	
0.4303	27536.72	3.6090	3.6089	-1.6051	25.20	0.15	-0.750			
0.4351	27846.55	3.6060	3.6059	-1.6332	25.20	0.15	-0.750			
0.4400	28159.27	3.6030	3.6031	-1.6645	25.20	0.15	-0.750			
0.4450	28481.05	3.6000	3.6001	-1.7109	25.20	0.15	-0.750			
0.4502	28815.34	3.5970	3.5970	-1.7438	25.20	0.15	-0.750			
0.4556	29158.31	3.5940	3.5939	-1.7536	25.20	0.15	-0.750			
0.4609	29499.96	3.5910	3.5909	-1.7754	25.20	0.15	-0.750			
0.4663	29845.04	3.5880	3.5879	-1.7926	25.20	0.15	-0.750			
0.4715	30178.69	3.5850	3.5850	-1.8215	25.20	0.15	-0.750			
0.4770	30526.61	3.5820	3.5820	-1.8495	25.19	0.14	-0.750			
0.4826	30886.88	3.5790	3.5791	-1.8885	25.18	0.13	-0.750			
0.4884	31257.24	3.5760	3.5760	-1.9481	25.18	0.13	-0.750			
0.4944	31641.73	3.5730	3.5732	-2.0054	25.18	0.13	-0.750			
0.5005	32030.00	3.5700	3.5701	-2.0335	25.18	0.13	-0.750			
0.5067	32431.43	3.5670	3.5670	-2.0418	25.18	0.13	-0.750			
0.5128	32822.00	3.5640	3.5641	-2.0383	25.18	0.13	-0.750			
0.5190	33213.22	3.5610	3.5610	-2.0705	25.18	0.13	-0.750			
0.5252	33614.68	3.5580	3.5578	-2.0780	25.18	0.13	-0.750			
0.5314	34011.33	3.5550	3.5549	-2.0740	25.18	0.13	-0.750			
0.5377	34411.93	3.5520	3.5520	-2.0866	25.19	0.14	-0.750			
0.5440	34816.82	3.5490	3.5490	-2.0916	25.20	0.15	-0.750			
0.5503	35219.15	3.5460	3.5462	-2.0906	25.20	0.15	-0.750			
0.5566	35621.97	3.5430	3.5430	-2.0710	25.20	0.15	-0.750			
0.5627	36012.36	3.5400	3.5400	-2.0551	25.20	0.15	-0.750			
0.5689	36411.73	3.5370	3.5370	-2.0413	25.21	0.16	-0.750			
0.5750	36800.70	3.5340	3.5339	-2.0212	25.21	0.16	-0.750			
0.5812	37197.46	3.5310	3.5310	-1.9877	25.22	0.17	-0.750			
0.5871	37573.71	3.5280	3.5282	-1.9711	25.23	0.18	-0.750			
0.5929	37947.04	3.5250	3.5249	-1.9276	25.24	0.19	-0.750			
0.5987	38319.36	3.5220	3.5220	-1.9050	25.25	0.20	-0.750			
0.6043	38676.69	3.5190	3.5192	-1.8609	25.25	0.20	-0.750			
0.6099	39034.19	3.5160	3.5157	-1.8265	25.26	0.21	-0.750			
0.6154	39385.71	3.5130	3.5132	-1.7916	25.27	0.22	-0.750			
0.6207	39727.96	3.5100	3.5101	-1.7612	25.28	0.23	-0.750			
0.6259	40059.26	3.5070	3.5071	-1.7067	25.29	0.24	-0.750			
0.6310	40381.46	3.5040	3.5041	-1.6576	25.30	0.25	-0.750			
0.6358	40693.86	3.5010	3.5009	-1.6244	25.31	0.26	-0.750			
0.6407	41006.90	3.4980	3.4980	-1.5828	25.31	0.26	-0.750			
0.6454	41304.37	3.4950	3.4951	-1.5328	25.32	0.27	-0.750			
0.6499	41594.18	3.4920	3.4918	-1.4798	25.34	0.29	-0.750			
0.6543	41874.93	3.4890	3.4893	-1.4354	25.36	0.31	-0.750			
0.6586	42149.07	3.4860	3.4860	-1.4058	25.37	0.32	-0.750			
0.6628	42416.19	3.4830	3.4829	-1.3602	25.39	0.34	-0.750			
0.6667	42671.50	3.4800	3.4799	-1.3106	25.40	0.35	-0.750			
0.6706	42920.01	3.4770	3.4773	-1.2748	25.41	0.36	-0.750			
0.6744	43161.08	3.4740	3.4739	-1.2275	25.43	0.38	-0.750			
0.6780	43391.84	3.4710	3.4709	-1.1812	25.44	0.39	-0.750			
0.6814	43610.10	3.4680	3.4680	-1.1345	25.46	0.41	-0.750			
0.6848	43824.66	3.4650	3.4649	-1.1090	25.47	0.42	-0.750			
0.6880	44033.91	3.4620	3.4619	-1.0724	25.48	0.43	-0.750			
0.6912	44234.20	3.4590	3.4589	-1.0394	25.49	0.44	-0.750			
0.6942	44429.54	3.4560	3.4560	-1.0085	25.50	0.45	-0.750			
0.6972	44622.47	3.4530	3.4530	-0.9950	25.51	0.46	-0.750			
0.7002	44811.52	3.4500	3.4500	-0.9670	25.52	0.47	-0.750			
0.7030	44993.33	3.4470	3.4469	-0.9385	25.54	0.49	-0.750			
0.7058	45171.39	3.4440	3.4439	-0.9161	25.55	0.50	-0.750			
0.7086	45347.21	3.4410	3.4410	-0.8974	25.56	0.51	-0.750			
0.7112	45514.86	3.4380	3.4380	-0.8823	25.57	0.52	-0.750			
0.7138	45682.17	3.4350	3.4350	-0.8641	25.58	0.53	-0.750			
0.7163	45843.90	3.4320	3.4319	-0.8462	25.59	0.54	-0.750			
0.7189	46007.69	3.4290	3.4289	-0.8475	25.60	0.55	-0.750			
0.7214	46168.45	3.4260	3.4260	-0.8406	25.61	0.56	-0.750			
0.7239	46327.86	3.4230	3.4229	-0.8440	25.62	0.57	-0.750			
0.7264	46489.61	3.4200	3.4200	-0.8435	25.63	0.58	-0.750			
0.7289	46650.15	3.4170	3.4170	-0.8426	25.64	0.59	-0.750			
0.7315	46815.61	3.4140	3.4139	-0.8498	25.65	0.60	-0.750			
0.7341	46979.84	3.4110	3.4109	-0.8491	25.65	0.60	-0.750			
0.7366	47142.23	3.4080	3.4080	-0.8503	25.66	0.61	-0.750			
0.7391	47305.52	3.4050	3.4050	-0.8487	25.67	0.62	-0.750			
0.7417	47467.19	3.4020	3.4020	-0.8430	25.67	0.62	-0.750			
0.7443	47632.40	3.3990	3.3991	-0.8355	25.68	0.63	-0.750			
0.7468	47793.25	3.3960	3.3959	-0.8239	25.69	0.64	-0.750			
0.7492	47949.43	3.3930	3.3931	-0.8140	25.69	0.64	-0.750			
0.7517	48106.34	3.3900	3.3900	-0.7927	25.70	0.65	-0.750			
0.7540	48256.77	3.3870	3.3869	-0.7715	25.71	0.66	-0.750			
0.7563	48402.64	3.3840	3.3840	-0.7503	25.72	0.67	-0.750			
0.7585	48543.98	3.3810	3.3809	-0.7301	25.72	0.67	-0.750			
0.7607	48682.55	3.3780	3.3780	-0.7070	25.73	0.68	-0.750			
0.7627	48815.18	3.3750	3.3750	-0.6858	25.74	0.69	-0.750			
0.7647	48943.35	3.3720	3.3721	-0.6629	25.74	0.69	-0.750			
0.7667	49071.57	3.3690	3.3689	-0.6499	25.75	0.70	-0.750			
0.7686	49193.43	3.3660	3.3660	-0.6285	25.76	0.71	-0.750			
0.7705	49312.16	3.3630	3.3631	-0.6068	25.76	0.71	-0.750			
0.7723	49426.75	3.3600	3.3601	-0.5871	25.77	0.72	-0.750			
0.7740	49537.90	3.3570	3.3570	-0.5716	25.77	0.72	-0.750			
0.7757	49644.37	3.3540	3.3539	-0.5505	25.78	0.73	-0.750			
0.7773	49748.83	3.3510	3.3510	-0.5344	25.78	0.73	-0.750			
0.7789	49848.89	3.3480	3.3481	-0.5183	25.79	0.74	-0.750			
0.7804	49947.85	3.3450	3.3450	-0.5021	25.79	0.74	-0.750			
0.7819	50042.63	3.3420	3.3420	-0.4879	25.80	0.75	-0.750			
0.7833	50133.95	3.3390	3.3390	-0.4716	25.80	0.75	-0.750			
0.7847	50222.65	3.3360	3.3361	-0.4561	25.81	0.76	-0.750			
0.7861	50309.40	3.3330	3.3330	-0.4435	25.81	0.76	-0.750			
0.7874	50392.83	3.3300	3.3301	-0.4290	25.82	0.77	-0.750			
0.7887	50473.83	3.3270	3.3270	-0.4158	25.82	0.77	-0.750			
0.7899	50551.83	3.3240	3.3240	-0.4077	25.83	0.78	-0.750			
0.7911	50628.26	3.3210	3.3209	-0.3973	25.83	0.78	-0.750			
0.7923	50704.44	3.3180	3.3180	-0.3861	25.84	0.79	-0.750			
0.7934	50777.79	3.3150	3.3150	-0.3770	25.84	0.79	-0.750			
0.7945	50849.33	3.3120	3.3121	-0.3688	25.85	0.80	-0.750			
0.7956	50919.35	3.3090	3.3091	-0.3602	25.85	0.80	-0.750			
0.7967	50987.08	3.3060	3.3058	-0.3500	25.86	0.81	-0.750			
0.7977	51052.61	3.3030	3.3031	-0.3408	25.86	0.81	-0.750			
0.7987	51117.62	3.3000	3.3000	-0.3336	25.87	0.82	-0.750			
0.7997	51181.14	3.2970	3.2970	-0.3273	25.87	0.82	-0.750			
0.8007	51242.96	3.2940	3.2939	-0.3182	25.88	0.83	-0.750			
0.8016	51303.22	3.2910	3.2910	-0.3110	25.88	0.83	-0.750			
0.8025	51362.21	3.2880	3.2880	-0.3048	25.89	0.84	-0.750			
0.8034	51420.41	3.2850	3.2850	-0.2986	25.89	0.84	-0.750			
0.8043	51476.81	3.2820	3.2820	-0.2927	25.89	0.84	-0.750			
0.8052	51532.40	3.2790	3.2790	-0.2885	25.90	0.85	-0.750			
0.8060	51586.90	3.2760	3.2760	-0.2830	25.90	0.85	-0.750			
0.8069	51641.01	3.2730	3.2728	-0.2799	25.91	0.86	-0.750			
0.8077	51694.22	3.2700	3.2703	-0.2756	25.91	0.86	-0.750			
0.8085	51746.77	3.2670	3.2669	-0.2715	25.92	0.87	-0.750			
0.8094	51798.83	3.2640	3.2641	-0.2674	25.92	0.87	-0.750			
0.8102	51849.88	3.2610	3.2610	-0.2625	25.93	0.88	-0.750			
0.8109	51899.65	3.2580	3.2580	-0.2585	25.93	0.88	-0.750			
0.8117	51948.78	3.2550	3.2550	-0.2555	25.94	0.89	-0.750			
0.8125	51996.84	3.2520	3.2520	-0.2511	25.94	0.89	-0.750			
0.8132	52044.77	3.2490	3.2489	-0.2475	25.95	0.90	-0.750			
0.8139	52092.14	3.2460	3.2460	-0.2442	25.95	0.90	-0.750			
0.8147	52138.75	3.2430	3.2431	-0.2410	25.96	0.91	-0.750			
0.8154	52184.97	3.2400	3.2400	-0.2378	25.96	0.91	-0.750			
0.8161	52230.30	3.2370	3.2370	-0.2348	25.96	0.91	-0.750			
0.8168	52274.57	3.2340	3.2340	-0.2312	25.97	0.92	-0.750			
0.8175	52318.37	3.2310	3.2310	-0.2284	25.97	0.92	-0.750			
0.8182	52362.34	3.2280	3.2280	-0.2260	25.98	0.93	-0.750			
0.8188	52405.73	3.2250	3.2250	-0.2238	25.98	0.93	-0.750			
0.8195	52448.47	3.2220	3.2220	-0.2213	25.99	0.94	-0.750			
0.8202	52490.80	3.2190	3.2191	-0.2184	25.99	0.94	-0.750			
0.8208	52532.26	3.2160	3.2159	-0.2160	26.00	0.95	-0.750			
0.8215	52573.41	3.2130	3.2130	-0.2134	26.00	0.95	-0.750			
0.8221	52614.01	3.2100	3.2100	-0.2107	26.01	0.96	-0.750			
0.8227	52654.21	3.2070	3.2070	-0.2081	26.01	0.96	-0.750			
0.8233	52694.20	3.2040	3.2040	-0.2063	26.02	0.97	-0.750			
0.8240	52733.56	3.2010	3.2011	-0.2036	26.03	0.98	-0.750			
0.8246	52772.29	3.1980	3.1980	-0.2012	26.03	0.98	-0.750			
0.8252	52810.75	3.1950	3.1951	-0.1992	26.04	0.99	-0.750			
0.8258	52848.39	3.1920	3.1919	-0.1965	26.04	0.99	-0.750			
0.8263	52885.98	3.1890	3.1891	-0.1950	26.05	1.00	-0.750			
0.8269	52923.29	3.1860	3.1860	-0.1935	26.05	1.00	-0.750			
0.8275	52960.43	3.1830	3.1830	-0.1915	26.06	1.01	-0.750			
0.8281	52997.14	3.1800	3.1800	-0.1898	26.06	1.01	-0.750			
0.8286	53033.27	3.1770	3.1771	-0.1882	26.07	1.02	-0.750			
0.8292	53069.33	3.1740	3.1740	-0.1860	26.07	1.02	-0.750			
0.8298	53104.95	3.1710	3.1709	-0.1839	26.08	1.03	-0.750			
0.8303	53139.88	3.1680	3.1680	-0.1816	26.08	1.03	-0.750			
0.8309	53174.56	3.1650	3.1651	-0.1797	26.09	1.04	-0.750			
0.8314	53208.93	3.1620	3.1619	-0.1773	26.09	1.04	-0.750			
0.8319	53242.82	3.1590	3.1590	-0.1755	26.09	1.04	-0.750			
0.8324	53276.14	3.1560	3.1559	-0.1737	26.09	1.04	-0.750			
0.8330	53309.03	3.1530	3.1530	-0.1717	26.09	1.04	-0.750			
0.8335	53341.94	3.1500	3.1499	-0.1703	26.10	1.05	-0.750			
0.8340	53374.32	3.1470	3.1470	-0.1689	26.11	1.06	-0.750			
0.8345	53406.36	3.1440	3.1440	-0.1678	26.12	1.07	-0.750			
0.8350	53438.53	3.1410	3.1410	-0.1674	26.12	1.07	-0.750			
0.8355	53471.00	3.1380	3.1379	-0.1653	26.13	1.08	-0.750			
0.8360	53502.74	3.1350	3.1350	-0.1636	26.14	1.09	-0.750			
0.8365	53534.07	3.1320	3.1320	-0.1616	26.14	1.09	-0.750			
0.8369	53564.71	3.1290	3.1293	-0.1605	26.15	1.10	-0.750			
0.8374	53595.38	3.1260	3.1259	-0.1592	26.15	1.10	-0.750			
0.8379	53625.63	3.1230	3.1230	-0.1573	26.16	1.11	-0.750			
0.8384	53655.43	3.1200	3.1200	-0.1557	26.17	1.12	-0.750			
0.8388	53685.40	3.1170	3.1171	-0.1544	26.17	1.12	-0.750			
0.8393	53715.35	3.1140	3.1140	-0.1539	26.18	1.13	-0.750			
0.8398	53744.55	3.1110	3.1109	-0.1525	26.19	1.14	-0.750			
0.8402	53773.72	3.1080	3.1081	-0.1513	26.19	1.14	-0.750			
0.8407	53802.42	3.1050	3.1050	-0.1496	26.20	1.15	-0.750			
0.8411	53831.06	3.1020	3.1020	-0.1487	26.20	1.15	-0.750			
0.8416	53859.78	3.0990	3.0990	-0.1474	26.21	1.16	-0.750			
0.8420	53887.92	3.0960	3.0960	-0.1458	26.21	1.16	-0.750			
0.8424	53915.85	3.0930	3.0928	-0.1444	26.22	1.17	-0.750			
0.8429	53943.18	3.0900	3.0901	-0.1433	26.22	1.17	-0.750			
0.8433	53970.48	3.0870	3.0871	-0.1420	26.23	1.18	-0.750			
0.8437	53997.67	3.0840	3.0839	-0.1412	26.23	1.18	-0.750			
0.8441	54024.72	3.0810	3.0810	-0.1403	26.24	1.19	-0.750			
0.8446	54051.58	3.0780	3.0781	-0.1390	26.24	1.19	-0.750			
0.8450	54078.39	3.0750	3.0750	-0.1385	26.25	1.20	-0.750			
0.8454	54104.84	3.0720	3.0719	-0.1371	26.25	1.20	-0.750			
0.8458	54130.90	3.0690	3.0690	-0.1363	26.26	1.21	-0.750			
0.8462	54156.81	3.0660	3.0659	-0.1351	26.27	1.22	-0.750			
0.8466	54182.78	3.0630	3.0630	-0.1343	26.27	1.22	-0.750			
0.8470	54208.48	3.0600	3.0600	-0.1334	26.28	1.23	-0.750			
0.8474	54234.02	3.0570	3.0570	-0.1323	26.28	1.23	-0.750			
0.8478	54259.47	3.0540	3.0540	-0.1315	26.29	1.24	-0.750			
0.8482	54284.61	3.0510	3.0510	-0.1302	26.29	1.24	-0.750			
0.8486	54309.44	3.0480	3.0480	-0.1293	26.30	1.25	-0.750			
0.8490	54333.95	3.0450	3.0450	-0.1284	26.30	1.25	-0.750			
0.8494	54358.51	3.0420	3.0419	-0.1277	26.31	1.26	-0.750			
0.8497	54383.02	3.0390	3.0390	-0.1271	26.31	1.26	-0.750			
0.8501	54407.35	3.0360	3.0360	-0.1264	26.32	1.27	-0.750			
0.8505	54431.66	3.0330	3.0330	-0.1253	26.32	1.27	-0.750			
0.8509	54455.77	3.0300	3.0300	-0.1245	26.33	1.28	-0.750			
0.8512	54479.46	3.0270	3.0270	-0.1236	26.33	1.28	-0.750			
0.8516	54503.10	3.0240	3.0240	-0.1226	26.34	1.29	-0.750			
0.8520	54526.62	3.0210	3.0210	-0.1210	26.34	1.29	-0.750			
0.8523	54549.73	3.0180	3.0179	-0.1197	26.35	1.30	-0.750			
0.8527	54572.57	3.0150	3.0152	-0.1187	26.35	1.30	-0.750			
0.8531	54595.25	3.0120	3.0119	-0.1175	26.36	1.31	-0.750			
0.8534	54617.79	3.0090	3.0089	-0.1162	26.36	1.31	-0.751			
0.8537	54639.97	3.0060	3.0059	-0.1148	26.37	1.32	-0.751			
0.8541	54661.91	3.0030	3.0030	-0.1166	26.37	1.32	-0.751			
