Ah_balance (normalized)	Ah_balance (mAh)	Voltage - fit (V)	Voltage -  interpolate (V)	dQ/dV (1/V)	Temperature (°C)	Temperature - diff (°C)	Current (C)	R_DC 0ms (mOhm)	R_DC 50ms (mOhm)	R_DC 50 ms PEC (mOhm)
0.0547	3502.58	4.1970	4.1971	0.7578	26.65	0.70	0.750			
0.0570	3646.93	4.1940	4.1940	0.7527	26.65	0.70	0.750			
0.0592	3790.73	4.1910	4.1912	0.7546	26.65	0.70	0.750			
0.0615	3936.06	4.1880	4.1880	0.7554	26.64	0.69	0.750			
0.0638	4081.62	4.1850	4.1849	0.7570	26.64	0.69	0.750			
0.0660	4226.46	4.1820	4.1821	0.7566	26.64	0.69	0.750			
0.0683	4373.17	4.1790	4.1789	0.7593	26.63	0.68	0.750			
0.0706	4517.90	4.1760	4.1760	0.7575	26.63	0.68	0.750			
0.0729	4663.25	4.1730	4.1730	0.7613	26.63	0.68	0.750			
0.0751	4808.83	4.1700	4.1700	0.7604	26.62	0.67	0.750			
0.0774	4955.78	4.1670	4.1670	0.7637	26.62	0.67	0.750			
0.0797	5102.62	4.1640	4.1640	0.7643	26.62	0.67	0.750			
0.0820	5249.38	4.1610	4.1610	0.7651	26.62	0.67	0.750			
0.0843	5396.42	4.1580	4.1580	0.7705	26.62	0.67	0.750			
0.0866	5544.26	4.1550	4.1550	0.7722	26.62	0.67	0.750			
0.0889	5692.50	4.1520	4.1522	0.7722	26.62	0.67	0.750			
0.0913	5842.29	4.1490	4.1490	0.7751	26.62	0.67	0.750			
0.0936	5991.19	4.1460	4.1460	0.7752	26.62	0.67	0.750			
0.0959	6140.23	4.1430	4.1430	0.7743	26.62	0.67	0.750			
0.0983	6288.42	4.1400	4.1400	0.7735	26.62	0.67	0.750			
0.1006	6436.22	4.1370	4.1368	0.7719	26.62	0.67	0.750			
0.1029	6584.72	4.1340	4.1341	0.7749	26.62	0.67	0.750			
0.1052	6734.08	4.1310	4.1310	0.7753	26.62	0.67	0.750			
0.1076	6883.31	4.1280	4.1280	0.7783	26.62	0.67	0.750			
0.1099	7032.31	4.1250	4.1250	0.7810	26.62	0.67	0.750			
0.1122	7182.43	4.1220	4.1220	0.7794	26.62	0.67	0.750			
0.1146	7331.74	4.1190	4.1190	0.7804	26.62	0.67	0.750			
0.1169	7482.52	4.1160	4.1160	0.7818	26.62	0.67	0.750			
0.1193	7632.09	4.1130	4.1130	0.7825	26.62	0.67	0.750			
0.1216	7782.95	4.1100	4.1100	0.7860	26.62	0.67	0.750			
0.1240	7933.42	4.1070	4.1071	0.7864	26.62	0.67	0.750			
0.1263	8084.67	4.1040	4.1041	0.7877	26.62	0.67	0.750			
0.1287	8236.99	4.1010	4.1010	0.7925	26.62	0.67	0.750			
0.1311	8388.53	4.0980	4.0980	0.7886	26.62	0.67	0.750			
0.1334	8538.55	4.0950	4.0951	0.7930	26.62	0.67	0.750			
0.1358	8691.02	4.0920	4.0920	0.7938	26.62	0.67	0.750			
0.1382	8844.34	4.0890	4.0888	0.7960	26.62	0.67	0.750			
0.1406	8997.06	4.0860	4.0860	0.8011	26.62	0.67	0.750			
0.1430	9151.30	4.0830	4.0832	0.8050	26.62	0.67	0.750			
0.1454	9307.41	4.0800	4.0800	0.8090	26.62	0.67	0.750			
0.1478	9462.27	4.0770	4.0769	0.8078	26.62	0.67	0.750			
0.1503	9617.94	4.0740	4.0740	0.8114	26.62	0.67	0.750			
0.1527	9774.26	4.0710	4.0711	0.8150	26.62	0.67	0.750			
0.1552	9931.92	4.0680	4.0679	0.8098	26.62	0.67	0.750			
0.1576	10085.73	4.0650	4.0651	0.8152	26.61	0.66	0.750			
0.1600	10241.94	4.0620	4.0620	0.8256	26.61	0.66	0.750			
0.1625	10401.68	4.0590	4.0590	0.8282	26.61	0.66	0.750			
0.1650	10561.37	4.0560	4.0561	0.8326	26.61	0.66	0.750			
0.1675	10722.80	4.0530	4.0531	0.8340	26.61	0.66	0.750			
0.1700	10882.70	4.0500	4.0501	0.8378	26.62	0.67	0.750			
0.1726	11044.52	4.0470	4.0470	0.8370	26.62	0.67	0.750			
0.1750	11202.55	4.0440	4.0440	0.8304	26.62	0.67	0.750			
0.1775	11362.58	4.0410	4.0410	0.8272	26.62	0.67	0.750			
0.1800	11523.06	4.0380	4.0379	0.8278	26.62	0.67	0.750			
0.1825	11679.95	4.0350	4.0351	0.8281	26.63	0.68	0.750			
0.1850	11839.08	4.0320	4.0319	0.8307	26.63	0.68	0.750			
0.1874	11996.62	4.0290	4.0290	0.8263	26.63	0.68	0.750			
0.1900	12157.37	4.0260	4.0260	0.8349	26.63	0.68	0.750			
0.1925	12317.04	4.0230	4.0231	0.8411	26.63	0.68	0.750			
0.1950	12478.81	4.0200	4.0200	0.8496	26.62	0.67	0.750			
0.1975	12642.06	4.0170	4.0170	0.8514	26.62	0.67	0.750			
0.2001	12807.10	4.0140	4.0140	0.8567	26.62	0.67	0.750			
0.2027	12972.91	4.0110	4.0110	0.8603	26.62	0.67	0.750			
0.2053	13139.14	4.0080	4.0081	0.8596	26.63	0.68	0.750			
0.2079	13303.18	4.0050	4.0049	0.8589	26.63	0.68	0.750			
0.2104	13466.62	4.0020	4.0021	0.8609	26.64	0.69	0.750			
0.2130	13631.55	3.9990	3.9988	0.8677	26.64	0.69	0.750			
0.2156	13799.02	3.9960	3.9960	0.8748	26.64	0.69	0.750			
0.2183	13968.55	3.9930	3.9930	0.8734	26.64	0.69	0.750			
0.2209	14137.68	3.9900	3.9901	0.8776	26.63	0.68	0.750			
0.2235	14306.44	3.9870	3.9870	0.8776	26.63	0.68	0.750			
0.2261	14473.28	3.9840	3.9840	0.8759	26.63	0.68	0.750			
0.2287	14639.96	3.9810	3.9810	0.8765	26.63	0.68	0.750			
0.2314	14807.89	3.9780	3.9780	0.8822	26.63	0.68	0.750			
0.2341	14979.23	3.9750	3.9750	0.8871	26.63	0.68	0.750			
0.2367	15150.81	3.9720	3.9720	0.8915	26.63	0.68	0.750			
0.2394	15321.90	3.9690	3.9690	0.8936	26.63	0.68	0.750			
0.2421	15495.06	3.9660	3.9661	0.8899	26.63	0.68	0.750			
0.2448	15665.31	3.9630	3.9630	0.8925	26.62	0.67	0.750			
0.2474	15836.67	3.9600	3.9601	0.8931	26.62	0.67	0.750			
0.2501	16007.36	3.9570	3.9569	0.8932	26.62	0.67	0.750			
0.2528	16178.95	3.9540	3.9541	0.8944	26.62	0.67	0.750			
0.2555	16350.75	3.9510	3.9510	0.8954	26.62	0.67	0.750			
0.2582	16522.29	3.9480	3.9480	0.9020	26.62	0.67	0.750			
0.2609	16697.74	3.9450	3.9449	0.9048	26.62	0.67	0.750			
0.2636	16871.59	3.9420	3.9420	0.9011	26.62	0.67	0.750			
0.2663	17045.53	3.9390	3.9390	0.8966	26.62	0.67	0.750			
0.2690	17216.43	3.9360	3.9361	0.8985	26.62	0.67	0.750			
0.2717	17388.43	3.9330	3.9330	0.8993	26.62	0.67	0.750			
0.2744	17559.89	3.9300	3.9300	0.8983	26.62	0.67	0.750			
0.2771	17731.28	3.9270	3.9271	0.8976	26.62	0.67	0.750			
0.2798	17905.45	3.9240	3.9240	0.8986	26.61	0.66	0.750			
0.2825	18078.89	3.9210	3.9211	0.9055	26.61	0.66	0.750			
0.2852	18251.63	3.9180	3.9180	0.9084	26.61	0.66	0.750			
0.2879	18424.77	3.9150	3.9148	0.9080	26.60	0.65	0.750			
0.2906	18600.04	3.9120	3.9121	0.9111	26.60	0.65	0.750			
0.2934	18776.30	3.9090	3.9090	0.9155	26.59	0.64	0.750			
0.2962	18953.61	3.9060	3.9061	0.9221	26.59	0.64	0.750			
0.2989	19130.72	3.9030	3.9030	0.9265	26.58	0.63	0.750			
0.3017	19306.41	3.9000	3.9000	0.9249	26.58	0.63	0.750			
0.3045	19485.99	3.8970	3.8969	0.9249	26.57	0.62	0.750			
0.3072	19662.45	3.8940	3.8941	0.9315	26.57	0.62	0.750			
0.3100	19841.06	3.8910	3.8911	0.9373	26.57	0.62	0.750			
0.3128	20020.24	3.8880	3.8879	0.9439	26.56	0.61	0.750			
0.3157	20203.08	3.8850	3.8850	0.9440	26.56	0.61	0.750			
0.3185	20384.85	3.8820	3.8821	0.9522	26.55	0.60	0.750			
0.3214	20569.93	3.8790	3.8790	0.9605	26.55	0.60	0.750			
0.3243	20754.19	3.8760	3.8762	0.9604	26.54	0.59	0.750			
0.3272	20939.18	3.8730	3.8730	0.9642	26.54	0.59	0.750			
0.3301	21123.96	3.8700	3.8700	0.9719	26.53	0.58	0.750			
0.3330	21311.91	3.8670	3.8670	0.9790	26.52	0.57	0.750			
0.3360	21501.08	3.8640	3.8640	0.9813	26.51	0.56	0.750			
0.3389	21691.04	3.8610	3.8610	0.9852	26.50	0.55	0.750			
0.3419	21880.38	3.8580	3.8580	0.9866	26.49	0.54	0.750			
0.3448	22069.46	3.8550	3.8550	0.9860	26.48	0.53	0.750			
0.3478	22256.85	3.8520	3.8520	0.9933	26.48	0.53	0.750			
0.3507	22447.08	3.8490	3.8487	0.9963	26.47	0.52	0.750			
0.3538	22641.65	3.8460	3.8460	0.9970	26.46	0.51	0.750			
0.3568	22833.10	3.8430	3.8430	1.0018	26.46	0.51	0.750			
0.3598	23026.39	3.8400	3.8402	1.0052	26.45	0.50	0.750			
0.3628	23218.20	3.8370	3.8369	1.0014	26.44	0.49	0.750			
0.3658	23413.40	3.8340	3.8340	1.0022	26.43	0.48	0.750			
0.3688	23603.84	3.8310	3.8311	1.0070	26.43	0.48	0.750			
0.3719	23799.05	3.8280	3.8280	1.0146	26.42	0.47	0.750			
0.3749	23993.41	3.8250	3.8249	1.0169	26.41	0.46	0.750			
0.3780	24190.22	3.8220	3.8220	1.0128	26.40	0.45	0.750			
0.3810	24383.73	3.8190	3.8191	1.0254	26.39	0.44	0.750			
0.3841	24581.48	3.8160	3.8160	1.0328	26.38	0.43	0.750			
0.3872	24778.88	3.8130	3.8130	1.0378	26.37	0.42	0.750			
0.3903	24980.93	3.8100	3.8100	1.0450	26.35	0.40	0.750			
0.3934	25180.75	3.8070	3.8071	1.0656	26.34	0.39	0.750			
0.3967	25387.93	3.8040	3.8039	1.0751	26.33	0.38	0.750			
0.4000	25597.81	3.8010	3.8009	1.0919	26.32	0.37	0.750			
0.4032	25805.07	3.7980	3.7982	1.0974	26.31	0.36	0.750			
0.4065	26018.59	3.7950	3.7949	1.1137	26.31	0.36	0.750			
0.4099	26233.64	3.7920	3.7920	1.1248	26.30	0.35	0.750			
0.4133	26452.51	3.7890	3.7889	1.1351	26.29	0.34	0.750			
0.4167	26668.39	3.7860	3.7860	1.1507	26.28	0.33	0.750			
0.4202	26892.86	3.7830	3.7830	1.1682	26.27	0.32	0.750			
0.4237	27117.97	3.7800	3.7802	1.1794	26.26	0.31	0.750			
0.4273	27345.45	3.7770	3.7771	1.1860	26.25	0.30	0.750			
0.4308	27571.91	3.7740	3.7741	1.2136	26.23	0.28	0.750			
0.4344	27802.35	3.7710	3.7711	1.2408	26.22	0.27	0.750			
0.4382	28042.14	3.7680	3.7677	1.2757	26.21	0.26	0.750			
0.4420	28290.54	3.7650	3.7642	1.3070	26.20	0.25	0.750	0.323	0.430	
0.4461	28547.67	3.7620	3.7622	1.3468	26.19	0.24	0.750			
0.4502	28814.30	3.7590	3.7589	1.3787	26.17	0.22	0.750			
0.4545	29086.54	3.7560	3.7560	1.3898	26.16	0.21	0.750			
0.4586	29352.78	3.7530	3.7530	1.4110	26.15	0.20	0.750			
0.4628	29617.78	3.7500	3.7500	1.4352	26.13	0.18	0.750			
0.4671	29895.35	3.7470	3.7471	1.4579	26.12	0.17	0.750			
0.4715	30178.99	3.7440	3.7438	1.5005	26.10	0.15	0.750			
0.4761	30469.25	3.7410	3.7409	1.5373	26.09	0.14	0.750			
0.4808	30768.47	3.7380	3.7381	1.5769	26.07	0.12	0.750			
0.4855	31074.33	3.7350	3.7352	1.6208	26.06	0.11	0.750			
0.4904	31383.26	3.7320	3.7320	1.6664	26.05	0.10	0.750			
0.4955	31709.05	3.7290	3.7288	1.7119	26.03	0.08	0.750			
0.5007	32045.86	3.7260	3.7257	1.7631	26.02	0.07	0.750			
0.5061	32390.68	3.7230	3.7231	1.8157	26.00	0.05	0.750			
0.5116	32742.30	3.7200	3.7202	1.8549	25.98	0.03	0.750			
0.5172	33102.95	3.7170	3.7170	1.9060	25.96	0.01	0.750			
0.5230	33471.83	3.7140	3.7139	1.9543	25.95	0.00	0.750			
0.5290	33854.29	3.7110	3.7110	2.0216	25.94	-0.01	0.750			
0.5352	34251.89	3.7080	3.7080	2.0874	25.93	-0.02	0.750			
0.5415	34655.57	3.7050	3.7054	2.1536	25.91	-0.04	0.750			
0.5480	35074.46	3.7020	3.7018	2.2080	25.89	-0.06	0.750			
0.5548	35505.13	3.6990	3.6991	2.2935	25.87	-0.08	0.750			
0.5617	35948.03	3.6960	3.6961	2.3720	25.85	-0.10	0.750			
0.5689	36410.11	3.6930	3.6929	2.4714	25.84	-0.11	0.750			
0.5764	36889.21	3.6900	3.6900	2.5864	25.82	-0.13	0.750			
0.5842	37391.51	3.6870	3.6869	2.5651	25.81	-0.14	0.750			
0.5920	37886.55	3.6840	3.6844	2.6302	25.79	-0.16	0.750			
0.5998	38389.45	3.6810	3.6810	2.7288	25.77	-0.18	0.750			
0.6082	38922.58	3.6780	3.6781	2.8341	25.76	-0.19	0.750			
0.6171	39496.65	3.6750	3.6750	3.0142	25.75	-0.20	0.750			
0.6260	40064.35	3.6720	3.6721	2.9489	25.74	-0.21	0.750			
0.6350	40642.68	3.6690	3.6688	2.8919	25.73	-0.22	0.750			
0.6438	41200.41	3.6660	3.6657	2.7367	25.73	-0.22	0.750			
0.6519	41718.42	3.6630	3.6632	2.5368	25.72	-0.23	0.750			
0.6587	42158.87	3.6600	3.6601	2.2403	25.72	-0.23	0.750			
0.6651	42568.74	3.6570	3.6569	2.0292	25.72	-0.23	0.750			
0.6706	42920.98	3.6540	3.6539	1.8310	25.72	-0.23	0.750			
0.6758	43252.28	3.6510	3.6507	1.6808	25.72	-0.23	0.750			
0.6806	43556.37	3.6480	3.6483	1.5581	25.72	-0.23	0.750			
0.6851	43844.00	3.6450	3.6452	1.4523	25.72	-0.23	0.750			
0.6893	44113.00	3.6420	3.6421	1.3588	25.72	-0.23	0.750			
0.6932	44362.15	3.6390	3.6390	1.2900	25.72	-0.23	0.750			
0.6968	44592.79	3.6360	3.6360	1.2289	25.72	-0.23	0.750			
0.7004	44822.82	3.6330	3.6328	1.2064	25.72	-0.23	0.750			
0.7039	45048.16	3.6300	3.6300	1.1907	25.72	-0.23	0.750			
0.7074	45274.52	3.6270	3.6270	1.1984	25.72	-0.23	0.750			
0.7110	45505.08	3.6240	3.6241	1.2109	25.72	-0.23	0.750			
0.7147	45740.83	3.6210	3.6210	1.2050	25.72	-0.23	0.750			
0.7183	45973.58	3.6180	3.6181	1.2091	25.72	-0.23	0.750			
0.7220	46209.02	3.6150	3.6151	1.2035	25.73	-0.22	0.750			
0.7257	46443.18	3.6120	3.6117	1.1769	25.73	-0.22	0.750			
0.7292	46667.62	3.6090	3.6091	1.1602	25.73	-0.22	0.750			
0.7326	46885.80	3.6060	3.6061	1.1417	25.74	-0.21	0.750			
0.7360	47101.03	3.6030	3.6031	1.1336	25.74	-0.21	0.750			
0.7393	47314.77	3.6000	3.6001	1.1300	25.74	-0.21	0.750			
0.7426	47529.43	3.5970	3.5970	1.1417	25.73	-0.22	0.750			
0.7461	47749.08	3.5940	3.5940	1.1685	25.73	-0.22	0.750			
0.7496	47976.93	3.5910	3.5910	1.1930	25.72	-0.23	0.750			
0.7532	48204.43	3.5880	3.5880	1.2311	25.72	-0.23	0.750			
0.7569	48443.86	3.5850	3.5850	1.2730	25.72	-0.23	0.750			
0.7609	48695.77	3.5820	3.5819	1.3083	25.72	-0.23	0.750			
0.7649	48951.58	3.5790	3.5790	1.3496	25.72	-0.23	0.750			
0.7689	49211.90	3.5760	3.5762	1.4118	25.72	-0.23	0.750			
0.7732	49486.85	3.5730	3.5731	1.4599	25.72	-0.23	0.750			
0.7777	49773.77	3.5700	3.5700	1.5039	25.72	-0.23	0.750			
0.7823	50069.77	3.5670	3.5672	1.5298	25.72	-0.23	0.750			
0.7871	50372.96	3.5640	3.5640	1.5692	25.72	-0.23	0.750			
0.7918	50675.99	3.5610	3.5608	1.6132	25.72	-0.23	0.750			
0.7967	50989.92	3.5580	3.5581	1.6404	25.72	-0.23	0.750			
0.8016	51304.85	3.5550	3.5548	1.6352	25.72	-0.23	0.750			
0.8066	51620.82	3.5520	3.5520	1.6596	25.72	-0.23	0.750			
0.8115	51938.47	3.5490	3.5490	1.6692	25.72	-0.23	0.750			
0.8166	52262.30	3.5460	3.5459	1.6939	25.72	-0.23	0.750			
0.8217	52589.33	3.5430	3.5432	1.6910	25.73	-0.22	0.750			
0.8267	52910.10	3.5400	3.5399	1.7185	25.73	-0.22	0.750			
0.8321	53257.46	3.5370	3.5368	1.7717	25.74	-0.21	0.750			
0.8376	53608.01	3.5340	3.5337	1.7040	25.75	-0.20	0.750			
0.8429	53943.95	3.5310	3.5312	1.5849	25.76	-0.19	0.750			
0.8480	54269.46	3.5280	3.5285	1.3841	25.78	-0.17	0.750			
0.8520	54530.86	3.5250	3.5253	1.1307	25.80	-0.15	0.750			
0.8548	54710.27	3.5220	3.5219	0.8720	25.81	-0.14	0.750			
0.8566	54824.30	3.5190	3.5184	0.6214	25.82	-0.13	0.750			
0.8577	54895.70	3.5160	3.5158	0.4724	25.82	-0.13	0.750			
0.8589	54970.17	3.5130	3.5127	0.3972	25.83	-0.12	0.750			
0.8599	55033.30	3.5100	3.5099	0.3557	25.83	-0.12	0.750			
0.8609	55097.66	3.5070	3.5071	0.3342	25.84	-0.11	0.750			
0.8619	55158.89	3.5040	3.5040	0.3169	25.84	-0.11	0.750			
0.8628	55217.74	3.5010	3.5010	0.3039	25.85	-0.10	0.750			
0.8637	55273.62	3.4980	3.4980	0.2926	25.85	-0.10	0.750			
0.8645	55328.13	3.4950	3.4951	0.2842	25.86	-0.09	0.750			
0.8653	55382.34	3.4920	3.4919	0.2779	25.87	-0.08	0.750			
0.8662	55434.52	3.4890	3.4890	0.2710	25.87	-0.08	0.750			
0.8670	55486.17	3.4860	3.4860	0.2653	25.88	-0.07	0.750			
0.8678	55536.65	3.4830	3.4830	0.2603	25.88	-0.07	0.750			
0.8685	55586.20	3.4800	3.4799	0.2546	25.89	-0.06	0.750			
0.8693	55633.92	3.4770	3.4771	0.2476	25.90	-0.05	0.750			
0.8700	55680.69	3.4740	3.4740	0.2436	25.90	-0.05	0.750			
0.8707	55726.99	3.4710	3.4710	0.2391	25.91	-0.04	0.750			
0.8714	55772.45	3.4680	3.4680	0.2352	25.91	-0.04	0.750			
0.8721	55817.18	3.4650	3.4649	0.2295	25.92	-0.03	0.750			
0.8728	55861.54	3.4620	3.4619	0.2241	25.93	-0.02	0.750			
0.8735	55904.22	3.4590	3.4591	0.2182	25.93	-0.02	0.750			
0.8742	55945.83	3.4560	3.4561	0.2128	25.94	-0.01	0.750			
0.8748	55985.91	3.4530	3.4530	0.2080	25.94	-0.01	0.750			
0.8754	56024.53	3.4500	3.4500	0.2011	25.95	-0.00	0.750			
0.8760	56062.82	3.4470	3.4469	0.1967	25.95	0.00	0.750			
0.8766	56099.90	3.4440	3.4440	0.1922	25.96	0.01	0.750			
0.8771	56136.62	3.4410	3.4411	0.1889	25.96	0.01	0.750			
0.8777	56173.22	3.4380	3.4379	0.1842	25.96	0.01	0.750			
0.8782	56207.67	3.4350	3.4350	0.1783	25.97	0.02	0.750			
0.8788	56241.41	3.4320	3.4319	0.1732	25.97	0.02	0.750			
0.8793	56274.14	3.4290	3.4292	0.1681	25.98	0.03	0.750			
0.8798	56305.94	3.4260	3.4259	0.1636	25.98	0.03	0.750			
0.8803	56337.02	3.4230	3.4230	0.1581	25.98	0.03	0.750			
0.8807	56366.87	3.4200	3.4200	0.1528	25.99	0.04	0.750			
0.8812	56395.85	3.4170	3.4170	0.1463	25.99	0.04	0.750			
0.8816	56424.04	3.4140	3.4140	0.1414	26.00	0.05	0.750			
0.8820	56450.28	3.4110	3.4112	0.1347	26.00	0.05	0.750			
0.8824	56475.51	3.4080	3.4080	0.1281	26.00	0.05	0.750			
0.8828	56499.65	3.4050	3.4049	0.1213	26.01	0.06	0.750			
0.8832	56522.09	3.4020	3.4020	0.1141	26.01	0.06	0.750			
0.8835	56544.88	3.3990	3.3988	0.1045	26.01	0.06	0.750			
0.8838	56564.62	3.3960	3.3960	0.0973	26.01	0.06	0.750			
0.8841	56582.35	3.3930	3.3931	0.0874	26.02	0.07	0.750			
0.8844	56599.34	3.3900	3.3902	0.0790	26.02	0.07	0.750			
0.8846	56613.44	3.3870	3.3873	0.0679	26.02	0.07	0.750			
0.8848	56626.05	3.3840	3.3845	0.0567	26.02	0.07	0.750			
0.8849	56635.78	3.3810	3.3819	0.0447	26.02	0.07	0.750			
0.8851	56643.21	3.3780	3.3794	0.0327	26.02	0.07	0.750			
0.8851	56648.35	3.3750	3.3772	0.0208	26.02	0.07	0.750			
