Ah_balance (normalized)	Ah_balance (mAh)	Voltage - fit (V)	Voltage -  interpolate (V)	dQ/dV (1/V)	Temperature (°C)	Temperature - diff (°C)	Current (C)	R_DC 0ms (mOhm)	R_DC 50ms (mOhm)	R_DC 50 ms PEC (mOhm)
0.0597	3820.59	4.1960	4.1961	0.7480	26.01	0.05	0.750			
0.0620	3965.69	4.1930	4.1930	0.7530	26.01	0.05	0.750			
0.0642	4111.07	4.1900	4.1900	0.7485	26.01	0.05	0.750			
0.0665	4253.25	4.1870	4.1871	0.7468	26.02	0.06	0.750			
0.0687	4396.08	4.1840	4.1840	0.7457	26.02	0.06	0.750			
0.0709	4538.48	4.1810	4.1808	0.7452	26.02	0.06	0.750			
0.0732	4681.60	4.1780	4.1780	0.7474	26.02	0.06	0.750			
0.0754	4825.32	4.1750	4.1751	0.7450	26.02	0.06	0.750			
0.0777	4970.40	4.1720	4.1719	0.7497	26.02	0.06	0.750			
0.0799	5113.05	4.1690	4.1691	0.7502	26.02	0.06	0.750			
0.0822	5257.66	4.1660	4.1660	0.7500	26.02	0.06	0.750			
0.0844	5400.77	4.1630	4.1630	0.7513	26.02	0.06	0.750			
0.0867	5546.06	4.1600	4.1600	0.7540	26.02	0.06	0.750			
0.0889	5691.49	4.1570	4.1571	0.7528	26.02	0.06	0.750			
0.0912	5835.82	4.1540	4.1539	0.7546	26.03	0.07	0.750			
0.0934	5979.41	4.1510	4.1511	0.7546	26.03	0.07	0.750			
0.0957	6124.99	4.1480	4.1479	0.7543	26.03	0.07	0.750			
0.0980	6270.69	4.1450	4.1450	0.7578	26.03	0.07	0.750			
0.1003	6416.30	4.1420	4.1420	0.7543	26.03	0.07	0.750			
0.1025	6560.94	4.1390	4.1391	0.7582	26.03	0.07	0.750			
0.1048	6705.78	4.1360	4.1360	0.7582	26.03	0.07	0.750			
0.1070	6850.81	4.1330	4.1330	0.7613	26.03	0.07	0.750			
0.1093	6997.06	4.1300	4.1301	0.7630	26.03	0.07	0.750			
0.1116	7144.61	4.1270	4.1270	0.7695	26.03	0.07	0.750			
0.1140	7293.42	4.1240	4.1240	0.7710	26.04	0.08	0.750			
0.1163	7442.27	4.1210	4.1210	0.7730	26.04	0.08	0.750			
0.1186	7590.13	4.1180	4.1180	0.7691	26.05	0.09	0.750			
0.1209	7738.67	4.1150	4.1148	0.7695	26.05	0.09	0.750			
0.1232	7885.03	4.1120	4.1121	0.7702	26.05	0.09	0.750			
0.1255	8033.52	4.1090	4.1090	0.7701	26.05	0.09	0.750			
0.1278	8179.68	4.1060	4.1060	0.7738	26.05	0.09	0.750			
0.1301	8329.07	4.1030	4.1030	0.7799	26.05	0.09	0.750			
0.1325	8479.92	4.1000	4.1001	0.7824	26.05	0.09	0.750			
0.1349	8631.56	4.0970	4.0970	0.7847	26.05	0.09	0.750			
0.1373	8784.46	4.0940	4.0940	0.7834	26.05	0.09	0.750			
0.1396	8933.66	4.0910	4.0911	0.7811	26.05	0.09	0.750			
0.1419	9082.51	4.0880	4.0880	0.7859	26.05	0.09	0.750			
0.1442	9231.92	4.0850	4.0850	0.7856	26.05	0.09	0.750			
0.1466	9381.98	4.0820	4.0818	0.7897	26.05	0.09	0.750			
0.1490	9534.48	4.0790	4.0792	0.7962	26.05	0.09	0.750			
0.1514	9689.80	4.0760	4.0760	0.7970	26.06	0.10	0.750			
0.1538	9843.17	4.0730	4.0729	0.7977	26.06	0.10	0.750			
0.1562	9994.22	4.0700	4.0702	0.7996	26.07	0.11	0.750			
0.1586	10148.37	4.0670	4.0669	0.8009	26.07	0.11	0.750			
0.1610	10303.21	4.0640	4.0640	0.8057	26.07	0.11	0.750			
0.1634	10460.17	4.0610	4.0609	0.7972	26.07	0.11	0.750			
0.1658	10612.98	4.0580	4.0581	0.8031	26.07	0.11	0.750			
0.1682	10767.57	4.0550	4.0551	0.8071	26.07	0.11	0.750			
0.1706	10921.44	4.0520	4.0518	0.8025	26.07	0.11	0.750			
0.1730	11074.45	4.0490	4.0491	0.8074	26.07	0.11	0.750			
0.1755	11231.85	4.0460	4.0461	0.8053	26.08	0.12	0.750			
0.1779	11385.25	4.0430	4.0429	0.8078	26.08	0.12	0.750			
0.1803	11541.86	4.0400	4.0401	0.8170	26.08	0.12	0.750			
0.1827	11695.25	4.0370	4.0370	0.8164	26.09	0.13	0.750			
0.1852	11852.93	4.0340	4.0340	0.8198	26.09	0.13	0.750			
0.1877	12013.76	4.0310	4.0310	0.8217	26.10	0.14	0.750			
0.1902	12169.82	4.0280	4.0281	0.8276	26.10	0.14	0.750			
0.1927	12332.23	4.0250	4.0250	0.8355	26.10	0.14	0.750			
0.1952	12490.51	4.0220	4.0219	0.8318	26.11	0.15	0.750			
0.1977	12649.99	4.0190	4.0191	0.8362	26.11	0.15	0.750			
0.2002	12811.86	4.0160	4.0160	0.8359	26.11	0.15	0.750			
0.2027	12974.04	4.0130	4.0130	0.8394	26.11	0.15	0.750			
0.2052	13135.91	4.0100	4.0100	0.8411	26.11	0.15	0.750			
0.2077	13295.40	4.0070	4.0070	0.8371	26.11	0.15	0.750			
0.2103	13456.65	4.0040	4.0041	0.8408	26.11	0.15	0.750			
0.2128	13619.10	4.0010	4.0009	0.8355	26.12	0.16	0.750			
0.2153	13776.65	3.9980	3.9981	0.8423	26.12	0.16	0.750			
0.2178	13939.17	3.9950	3.9951	0.8478	26.12	0.16	0.750			
0.2204	14102.96	3.9920	3.9919	0.8495	26.13	0.17	0.750			
0.2229	14265.36	3.9890	3.9890	0.8538	26.13	0.17	0.750			
0.2255	14430.96	3.9860	3.9862	0.8514	26.13	0.17	0.750			
0.2280	14594.70	3.9830	3.9830	0.8516	26.13	0.17	0.750			
0.2306	14758.77	3.9800	3.9800	0.8498	26.13	0.17	0.750			
0.2331	14920.59	3.9770	3.9769	0.8484	26.13	0.17	0.750			
0.2357	15082.93	3.9740	3.9740	0.8497	26.13	0.17	0.750			
0.2382	15247.58	3.9710	3.9710	0.8545	26.13	0.17	0.750			
0.2408	15410.91	3.9680	3.9680	0.8554	26.13	0.17	0.750			
0.2434	15576.77	3.9650	3.9650	0.8639	26.13	0.17	0.750			
0.2460	15741.83	3.9620	3.9620	0.8629	26.13	0.17	0.750			
0.2486	15907.64	3.9590	3.9590	0.8650	26.13	0.17	0.750			
0.2512	16074.43	3.9560	3.9560	0.8629	26.13	0.17	0.750			
0.2537	16239.51	3.9530	3.9531	0.8659	26.13	0.17	0.750			
0.2563	16405.63	3.9500	3.9500	0.8654	26.13	0.17	0.750			
0.2589	16571.57	3.9470	3.9468	0.8661	26.13	0.17	0.750			
0.2615	16738.81	3.9440	3.9441	0.8637	26.13	0.17	0.750			
0.2641	16905.04	3.9410	3.9411	0.8660	26.13	0.17	0.750			
0.2667	17070.28	3.9380	3.9380	0.8762	26.13	0.17	0.750			
0.2694	17238.89	3.9350	3.9350	0.8741	26.13	0.17	0.750			
0.2720	17406.21	3.9320	3.9319	0.8763	26.13	0.17	0.750			
0.2746	17576.54	3.9290	3.9290	0.8806	26.12	0.16	0.750			
0.2773	17746.84	3.9260	3.9262	0.8842	26.12	0.16	0.750			
0.2800	17917.19	3.9230	3.9229	0.8861	26.12	0.16	0.750			
0.2826	18086.01	3.9200	3.9200	0.8871	26.11	0.15	0.750			
0.2852	18255.93	3.9170	3.9171	0.8889	26.11	0.15	0.750			
0.2880	18429.21	3.9140	3.9139	0.8904	26.11	0.15	0.750			
0.2906	18598.68	3.9110	3.9110	0.8908	26.10	0.14	0.750			
0.2933	18768.86	3.9080	3.9081	0.8978	26.10	0.14	0.750			
0.2960	18940.81	3.9050	3.9048	0.9017	26.10	0.14	0.750			
0.2987	19115.43	3.9020	3.9020	0.9048	26.09	0.13	0.750			
0.3014	19290.42	3.8990	3.8990	0.9063	26.09	0.13	0.750			
0.3042	19466.75	3.8960	3.8960	0.9131	26.08	0.12	0.750			
0.3069	19642.64	3.8930	3.8932	0.9154	26.07	0.11	0.750			
0.3096	19815.37	3.8900	3.8899	0.9123	26.07	0.11	0.750			
0.3124	19990.93	3.8870	3.8869	0.9102	26.06	0.10	0.750			
0.3151	20165.28	3.8840	3.8841	0.9101	26.06	0.10	0.750			
0.3178	20339.73	3.8810	3.8810	0.9121	26.06	0.10	0.750			
0.3206	20515.31	3.8780	3.8780	0.9206	26.05	0.09	0.750			
0.3233	20694.32	3.8750	3.8750	0.9120	26.05	0.09	0.750			
0.3260	20867.05	3.8720	3.8720	0.9194	26.04	0.08	0.750			
0.3288	21043.74	3.8690	3.8691	0.9244	26.04	0.08	0.750			
0.3316	21224.08	3.8660	3.8660	0.9288	26.03	0.07	0.750			
0.3344	21401.26	3.8630	3.8628	0.9314	26.03	0.07	0.750			
0.3372	21581.47	3.8600	3.8601	0.9244	26.02	0.06	0.750			
0.3400	21758.37	3.8570	3.8571	0.9249	26.01	0.05	0.750			
0.3428	21938.12	3.8540	3.8539	0.9309	26.01	0.05	0.750			
0.3455	22113.29	3.8510	3.8510	0.9236	26.00	0.04	0.750			
0.3483	22292.29	3.8480	3.8480	0.9241	25.99	0.03	0.750			
0.3511	22469.22	3.8450	3.8451	0.9305	25.99	0.03	0.750			
0.3539	22647.82	3.8420	3.8420	0.9378	25.98	0.02	0.750			
0.3567	22828.62	3.8390	3.8390	0.9486	25.97	0.01	0.750			
0.3595	23010.03	3.8360	3.8360	0.9487	25.97	0.01	0.750			
0.3624	23192.58	3.8330	3.8330	0.9507	25.96	-0.00	0.750			
0.3653	23376.38	3.8300	3.8301	0.9590	25.95	-0.01	0.750			
0.3681	23560.66	3.8270	3.8271	0.9685	25.94	-0.02	0.750			
0.3710	23745.19	3.8240	3.8237	0.9753	25.93	-0.03	0.750			
0.3740	23933.40	3.8210	3.8211	0.9817	25.93	-0.03	0.750			
0.3769	24123.81	3.8180	3.8180	0.9926	25.92	-0.04	0.750			
0.3800	24317.98	3.8150	3.8150	1.0068	25.92	-0.04	0.750			
0.3830	24509.84	3.8120	3.8120	1.0129	25.91	-0.05	0.750			
0.3860	24704.39	3.8090	3.8090	1.0230	25.90	-0.06	0.750			
0.3891	24900.65	3.8060	3.8060	1.0395	25.89	-0.07	0.750			
0.3922	25102.31	3.8030	3.8030	1.0479	25.88	-0.08	0.750			
0.3954	25305.97	3.8000	3.7999	1.0633	25.87	-0.09	0.750			
0.3986	25512.65	3.7970	3.7971	1.0715	25.86	-0.10	0.750			
0.4018	25715.82	3.7940	3.7941	1.0895	25.85	-0.11	0.750			
0.4051	25925.39	3.7910	3.7910	1.1017	25.84	-0.12	0.750			
0.4084	26140.29	3.7880	3.7876	1.1200	25.83	-0.13	0.750			
0.4118	26355.29	3.7850	3.7851	1.1333	25.83	-0.13	0.750			
0.4152	26574.57	3.7820	3.7821	1.1643	25.82	-0.14	0.750			
0.4187	26798.45	3.7790	3.7791	1.1942	25.81	-0.15	0.750			
0.4223	27028.62	3.7760	3.7759	1.2145	25.81	-0.15	0.750			
0.4260	27266.60	3.7730	3.7715	1.2460	25.80	-0.16	0.750	0.310	0.458	
0.4299	27511.11	3.7700	3.7702	1.2816	25.79	-0.17	0.750			
0.4338	27761.99	3.7670	3.7670	1.2946	25.78	-0.18	0.750			
0.4377	28014.42	3.7640	3.7639	1.3165	25.77	-0.19	0.750			
0.4416	28263.15	3.7610	3.7612	1.3252	25.76	-0.20	0.750			
0.4457	28522.71	3.7580	3.7579	1.3333	25.75	-0.21	0.750			
0.4496	28776.50	3.7550	3.7551	1.3792	25.74	-0.22	0.750			
0.4538	29045.31	3.7520	3.7521	1.4112	25.73	-0.23	0.750			
0.4581	29316.81	3.7490	3.7489	1.4486	25.72	-0.24	0.750			
0.4625	29601.18	3.7460	3.7462	1.4834	25.71	-0.25	0.750			
0.4671	29891.58	3.7430	3.7432	1.5205	25.71	-0.25	0.750			
0.4717	30190.98	3.7400	3.7399	1.5588	25.70	-0.26	0.750			
0.4764	30491.41	3.7370	3.7370	1.6009	25.69	-0.27	0.750			
0.4812	30794.55	3.7340	3.7343	1.6383	25.68	-0.28	0.750			
0.4862	31115.73	3.7310	3.7309	1.6922	25.66	-0.30	0.750			
0.4914	31447.20	3.7280	3.7281	1.7317	25.65	-0.31	0.750			
0.4966	31784.60	3.7250	3.7248	1.7888	25.64	-0.32	0.750			
0.5021	32134.04	3.7220	3.7219	1.8470	25.63	-0.33	0.750			
0.5078	32500.88	3.7190	3.7189	1.9044	25.61	-0.35	0.750			
0.5136	32867.38	3.7160	3.7160	1.9296	25.60	-0.36	0.750			
0.5195	33246.18	3.7130	3.7129	1.9769	25.58	-0.38	0.750			
0.5255	33630.40	3.7100	3.7099	2.0258	25.57	-0.39	0.750			
0.5316	34022.48	3.7070	3.7068	2.0899	25.56	-0.40	0.750			
0.5378	34419.85	3.7040	3.7040	2.1628	25.56	-0.40	0.750			
0.5444	34843.69	3.7010	3.7010	2.2548	25.55	-0.41	0.750			
0.5514	35290.25	3.6980	3.6980	2.3545	25.54	-0.42	0.750			
0.5585	35746.22	3.6950	3.6949	2.4263	25.52	-0.44	0.750			
0.5660	36221.14	3.6920	3.6919	2.4903	25.52	-0.44	0.750			
0.5735	36707.12	3.6890	3.6890	2.5523	25.52	-0.44	0.750			
0.5814	37209.86	3.6860	3.6861	2.6455	25.50	-0.46	0.750			
0.5895	37726.16	3.6830	3.6830	2.7183	25.50	-0.46	0.750			
0.5978	38260.26	3.6800	3.6800	2.7647	25.51	-0.45	0.750			
0.6062	38797.74	3.6770	3.6771	2.7590	25.51	-0.45	0.750			
0.6148	39344.98	3.6740	3.6738	2.5603	25.51	-0.45	0.750			
0.6221	39815.19	3.6710	3.6712	2.3273	25.52	-0.44	0.750			
0.6286	40227.81	3.6680	3.6677	2.0648	25.53	-0.43	0.750			
0.6341	40584.87	3.6650	3.6647	1.8598	25.53	-0.43	0.750			
0.6391	40900.26	3.6620	3.6619	1.6960	25.53	-0.43	0.750			
0.6438	41203.87	3.6590	3.6591	1.5689	25.54	-0.42	0.750			
0.6484	41497.63	3.6560	3.6557	1.4848	25.54	-0.42	0.750			
0.6528	41780.92	3.6530	3.6532	1.4120	25.55	-0.41	0.750			
0.6570	42047.98	3.6500	3.6501	1.3432	25.56	-0.40	0.750			
0.6608	42290.00	3.6470	3.6470	1.2588	25.56	-0.40	0.750			
0.6643	42513.69	3.6440	3.6442	1.1881	25.56	-0.40	0.750			
0.6677	42734.07	3.6410	3.6410	1.1764	25.56	-0.40	0.750			
0.6712	42955.46	3.6380	3.6374	1.1675	25.56	-0.40	0.750			
0.6746	43173.04	3.6350	3.6350	1.1617	25.57	-0.39	0.750			
0.6781	43398.09	3.6320	3.6320	1.1739	25.57	-0.39	0.750			
0.6817	43629.18	3.6290	3.6291	1.1900	25.58	-0.38	0.750			
0.6853	43860.90	3.6260	3.6259	1.1737	25.58	-0.38	0.750			
0.6889	44089.62	3.6230	3.6231	1.1645	25.59	-0.37	0.750			
0.6924	44311.37	3.6200	3.6201	1.1535	25.59	-0.37	0.750			
0.6958	44531.66	3.6170	3.6168	1.1374	25.60	-0.36	0.750			
0.6991	44744.00	3.6140	3.6140	1.1109	25.60	-0.36	0.750			
0.7024	44954.53	3.6110	3.6109	1.1033	25.61	-0.35	0.750			
0.7057	45161.91	3.6080	3.6082	1.1096	25.62	-0.34	0.750			
0.7090	45375.32	3.6050	3.6048	1.1131	25.62	-0.34	0.750			
0.7123	45588.95	3.6020	3.6020	1.1345	25.62	-0.34	0.750			
0.7157	45806.89	3.5990	3.5990	1.1606	25.62	-0.34	0.750			
0.7193	46033.93	3.5960	3.5961	1.1857	25.62	-0.34	0.750			
0.7228	46260.93	3.5930	3.5930	1.2163	25.62	-0.34	0.750			
0.7265	46495.28	3.5900	3.5901	1.2561	25.63	-0.33	0.750			
0.7303	46742.25	3.5870	3.5870	1.2919	25.63	-0.33	0.750			
0.7343	46993.05	3.5840	3.5838	1.3496	25.64	-0.32	0.750			
0.7384	47256.69	3.5810	3.5811	1.3894	25.64	-0.32	0.750			
0.7426	47529.33	3.5780	3.5781	1.4413	25.64	-0.32	0.750			
0.7471	47815.81	3.5750	3.5750	1.4855	25.64	-0.32	0.750			
0.7516	48103.87	3.5720	3.5720	1.5431	25.64	-0.32	0.750			
0.7564	48407.57	3.5690	3.5691	1.5788	25.65	-0.31	0.750			
0.7613	48720.74	3.5660	3.5659	1.5965	25.65	-0.31	0.750			
0.7661	49031.20	3.5630	3.5634	1.6019	25.66	-0.30	0.750			
0.7710	49343.07	3.5600	3.5598	1.6208	25.66	-0.30	0.750			
0.7758	49650.50	3.5570	3.5570	1.6315	25.66	-0.30	0.750			
0.7806	49960.79	3.5540	3.5541	1.6406	25.67	-0.29	0.750			
0.7856	50275.57	3.5510	3.5510	1.6471	25.67	-0.29	0.750			
0.7904	50587.69	3.5480	3.5480	1.6851	25.68	-0.28	0.750			
0.7956	50917.58	3.5450	3.5449	1.7383	25.69	-0.27	0.750			
0.8010	51261.60	3.5420	3.5419	1.7287	25.70	-0.26	0.750			
0.8064	51609.55	3.5390	3.5389	1.6709	25.71	-0.25	0.750			
0.8119	51961.37	3.5360	3.5357	1.5033	25.74	-0.22	0.750			
0.8164	52250.62	3.5330	3.5336	1.2750	25.76	-0.20	0.750			
0.8200	52480.47	3.5300	3.5303	1.0361	25.78	-0.18	0.750			
0.8224	52631.92	3.5270	3.5266	0.7560	25.80	-0.16	0.750			
0.8237	52719.62	3.5240	3.5238	0.5502	25.81	-0.15	0.750			
0.8250	52800.32	3.5210	3.5207	0.4418	25.81	-0.15	0.750			
0.8260	52866.10	3.5180	3.5179	0.3811	25.82	-0.14	0.750			
0.8271	52934.02	3.5150	3.5150	0.3493	25.83	-0.13	0.750			
0.8281	52995.62	3.5120	3.5120	0.3269	25.83	-0.13	0.750			
0.8290	53056.43	3.5090	3.5091	0.3126	25.84	-0.12	0.750			
0.8299	53114.33	3.5060	3.5059	0.3001	25.85	-0.11	0.750			
0.8308	53170.19	3.5030	3.5030	0.2890	25.85	-0.11	0.750			
0.8316	53224.57	3.5000	3.5000	0.2807	25.86	-0.10	0.750			
0.8325	53277.46	3.4970	3.4970	0.2732	25.86	-0.10	0.750			
0.8333	53329.42	3.4940	3.4940	0.2685	25.87	-0.09	0.750			
0.8341	53379.77	3.4910	3.4911	0.2637	25.87	-0.09	0.750			
0.8348	53429.88	3.4880	3.4879	0.2571	25.88	-0.08	0.750			
0.8356	53478.99	3.4850	3.4851	0.2520	25.88	-0.08	0.750			
0.8364	53527.03	3.4820	3.4821	0.2479	25.89	-0.07	0.750			
0.8371	53574.17	3.4790	3.4788	0.2424	25.89	-0.07	0.750			
0.8378	53620.18	3.4760	3.4759	0.2368	25.90	-0.06	0.750			
0.8385	53664.72	3.4730	3.4730	0.2300	25.90	-0.06	0.750			
0.8392	53708.20	3.4700	3.4702	0.2254	25.91	-0.05	0.750			
0.8399	53751.63	3.4670	3.4670	0.2220	25.91	-0.05	0.750			
0.8405	53793.70	3.4640	3.4639	0.2162	25.92	-0.04	0.750			
0.8412	53834.19	3.4610	3.4609	0.2117	25.92	-0.04	0.750			
0.8418	53874.11	3.4580	3.4581	0.2065	25.93	-0.03	0.750			
0.8424	53913.78	3.4550	3.4549	0.2024	25.93	-0.03	0.750			
0.8430	53952.19	3.4520	3.4520	0.1976	25.94	-0.02	0.750			
0.8436	53989.89	3.4490	3.4491	0.1933	25.94	-0.02	0.750			
0.8442	54026.55	3.4460	3.4460	0.1872	25.95	-0.01	0.750			
0.8447	54062.02	3.4430	3.4430	0.1825	25.95	-0.01	0.750			
0.8453	54096.43	3.4400	3.4400	0.1773	25.95	-0.01	0.750			
0.8458	54129.70	3.4370	3.4371	0.1718	25.96	-0.00	0.750			
0.8463	54162.27	3.4340	3.4339	0.1671	25.96	0.00	0.750			
0.8468	54193.83	3.4310	3.4311	0.1621	25.96	0.00	0.750			
0.8473	54224.59	3.4280	3.4279	0.1570	25.97	0.01	0.750			
0.8477	54254.13	3.4250	3.4251	0.1519	25.97	0.01	0.750			
0.8482	54283.28	3.4220	3.4220	0.1469	25.97	0.01	0.750			
0.8486	54310.80	3.4190	3.4190	0.1410	25.98	0.02	0.750			
0.8490	54337.41	3.4160	3.4160	0.1355	25.98	0.02	0.750			
0.8494	54363.01	3.4130	3.4130	0.1290	25.98	0.02	0.750			
0.8498	54387.28	3.4100	3.4100	0.1228	25.99	0.03	0.750			
0.8502	54410.44	3.4070	3.4072	0.1160	25.99	0.03	0.750			
0.8505	54432.25	3.4040	3.4040	0.1094	25.99	0.03	0.750			
0.8508	54453.84	3.4010	3.4008	0.0995	25.99	0.03	0.750			
0.8511	54472.41	3.3980	3.3979	0.0911	26.00	0.04	0.750			
0.8514	54489.34	3.3950	3.3951	0.0821	26.00	0.04	0.750			
0.8516	54504.04	3.3920	3.3922	0.0710	26.00	0.04	0.750			
0.8518	54517.81	3.3890	3.3893	0.0612	26.00	0.04	0.750			
0.8520	54528.34	3.3860	3.3865	0.0486	26.00	0.04	0.750			
0.8521	54536.46	3.3830	3.3840	0.0360	26.00	0.04	0.750			
0.8522	54542.16	3.3800	3.3814	0.0234	26.00	0.04	0.750			
0.8523	54545.45	3.3770	3.3795	0.0108	26.00	0.04	0.750			
