Ah_balance (normalized)	Ah_balance (mAh)	Voltage - fit (V)	Voltage -  interpolate (V)	dQ/dV (1/V)	Temperature (°C)	Temperature - diff (°C)	Current (C)	R_DC 0ms (mOhm)	R_DC 50ms (mOhm)	R_DC 50 ms PEC (mOhm)
0.0005	29.82	4.1620	4.1619	-0.1474	26.00	0.03	-0.750			
0.0010	62.67	4.1590	4.1589	-0.1916	26.00	0.03	-0.750			
0.0016	103.67	4.1560	4.1560	-0.2339	25.99	0.02	-0.750			
0.0024	153.04	4.1530	4.1530	-0.2738	25.99	0.02	-0.750			
0.0033	209.48	4.1500	4.1501	-0.3140	25.99	0.02	-0.750			
0.0043	273.92	4.1470	4.1470	-0.3547	25.98	0.01	-0.750			
0.0054	346.67	4.1440	4.1440	-0.3906	25.98	0.01	-0.750			
0.0067	426.30	4.1410	4.1409	-0.4246	25.98	0.01	-0.750			
0.0080	511.45	4.1380	4.1379	-0.4546	25.97	0.00	-0.750			
0.0094	602.76	4.1350	4.1351	-0.4840	25.97	-0.00	-0.750			
0.0109	698.95	4.1320	4.1320	-0.5090	25.96	-0.01	-0.750			
0.0125	799.09	4.1290	4.1289	-0.5317	25.96	-0.01	-0.750			
0.0141	902.21	4.1260	4.1261	-0.5539	25.95	-0.02	-0.750			
0.0158	1012.82	4.1230	4.1230	-0.5753	25.95	-0.02	-0.750			
0.0176	1126.84	4.1200	4.1199	-0.5937	25.94	-0.03	-0.750			
0.0194	1242.81	4.1170	4.1170	-0.6061	25.94	-0.03	-0.750			
0.0213	1361.26	4.1140	4.1140	-0.6192	25.93	-0.04	-0.750			
0.0231	1481.13	4.1110	4.1109	-0.6288	25.93	-0.04	-0.750			
0.0250	1602.62	4.1080	4.1080	-0.6377	25.92	-0.05	-0.750			
0.0269	1724.44	4.1050	4.1051	-0.6511	25.92	-0.05	-0.750			
0.0289	1852.49	4.1020	4.1019	-0.6620	25.92	-0.05	-0.750			
0.0309	1980.31	4.0990	4.0990	-0.6677	25.91	-0.06	-0.750			
0.0330	2110.36	4.0960	4.0959	-0.6744	25.91	-0.06	-0.750			
0.0350	2240.35	4.0930	4.0930	-0.6763	25.91	-0.06	-0.750			
0.0370	2370.97	4.0900	4.0900	-0.6808	25.91	-0.06	-0.750			
0.0391	2500.67	4.0870	4.0870	-0.6865	25.91	-0.06	-0.750			
0.0411	2632.43	4.0840	4.0840	-0.6849	25.91	-0.06	-0.750			
0.0432	2765.62	4.0810	4.0810	-0.6946	25.91	-0.06	-0.750			
0.0453	2899.37	4.0780	4.0780	-0.6983	25.91	-0.06	-0.750			
0.0474	3033.43	4.0750	4.0750	-0.7048	25.91	-0.06	-0.750			
0.0495	3169.89	4.0720	4.0719	-0.7075	25.91	-0.06	-0.750			
0.0517	3305.61	4.0690	4.0690	-0.7131	25.91	-0.06	-0.750			
0.0538	3442.85	4.0660	4.0660	-0.7172	25.90	-0.07	-0.750			
0.0560	3582.90	4.0630	4.0629	-0.7217	25.90	-0.07	-0.750			
0.0581	3721.39	4.0600	4.0601	-0.7211	25.90	-0.07	-0.750			
0.0603	3860.49	4.0570	4.0569	-0.7236	25.90	-0.07	-0.750			
0.0625	3998.99	4.0540	4.0540	-0.7229	25.90	-0.07	-0.750			
0.0647	4138.16	4.0510	4.0510	-0.7293	25.90	-0.07	-0.750			
0.0668	4276.23	4.0480	4.0480	-0.7300	25.91	-0.06	-0.750			
0.0690	4418.96	4.0450	4.0449	-0.7347	25.91	-0.06	-0.750			
0.0713	4560.92	4.0420	4.0421	-0.7370	25.91	-0.06	-0.750			
0.0735	4702.88	4.0390	4.0390	-0.7402	25.91	-0.06	-0.750			
0.0757	4844.95	4.0360	4.0360	-0.7409	25.91	-0.06	-0.750			
0.0779	4988.11	4.0330	4.0329	-0.7412	25.91	-0.06	-0.750			
0.0801	5129.41	4.0300	4.0301	-0.7396	25.91	-0.06	-0.750			
0.0824	5272.71	4.0270	4.0270	-0.7424	25.91	-0.06	-0.750			
0.0846	5415.06	4.0240	4.0240	-0.7436	25.91	-0.06	-0.750			
0.0868	5557.71	4.0210	4.0209	-0.7452	25.91	-0.06	-0.750			
0.0891	5700.30	4.0180	4.0180	-0.7479	25.91	-0.06	-0.750			
0.0913	5844.79	4.0150	4.0149	-0.7476	25.91	-0.06	-0.750			
0.0936	5989.66	4.0120	4.0120	-0.7531	25.91	-0.06	-0.750			
0.0958	6133.83	4.0090	4.0089	-0.7525	25.91	-0.06	-0.750			
0.0981	6278.66	4.0060	4.0060	-0.7529	25.91	-0.06	-0.750			
0.1004	6423.33	4.0030	4.0030	-0.7578	25.91	-0.06	-0.750			
0.1026	6567.69	4.0000	4.0000	-0.7585	25.91	-0.06	-0.750			
0.1049	6713.17	3.9970	3.9971	-0.7601	25.91	-0.06	-0.750			
0.1072	6861.90	3.9940	3.9938	-0.7645	25.91	-0.06	-0.750			
0.1095	7007.37	3.9910	3.9912	-0.7660	25.91	-0.06	-0.750			
0.1118	7155.41	3.9880	3.9880	-0.7656	25.91	-0.06	-0.750			
0.1141	7301.80	3.9850	3.9850	-0.7709	25.92	-0.05	-0.750			
0.1164	7449.72	3.9820	3.9821	-0.7716	25.92	-0.05	-0.750			
0.1187	7599.30	3.9790	3.9789	-0.7769	25.93	-0.04	-0.750			
0.1211	7749.12	3.9760	3.9760	-0.7777	25.93	-0.04	-0.750			
0.1234	7898.52	3.9730	3.9730	-0.7825	25.93	-0.04	-0.750			
0.1258	8048.66	3.9700	3.9700	-0.7829	25.93	-0.04	-0.750			
0.1281	8200.43	3.9670	3.9670	-0.7836	25.93	-0.04	-0.750			
0.1305	8349.54	3.9640	3.9640	-0.7810	25.93	-0.04	-0.750			
0.1328	8500.35	3.9610	3.9610	-0.7827	25.93	-0.04	-0.750			
0.1352	8650.52	3.9580	3.9580	-0.7811	25.93	-0.04	-0.750			
0.1375	8798.96	3.9550	3.9550	-0.7845	25.94	-0.03	-0.750			
0.1398	8948.81	3.9520	3.9520	-0.7866	25.94	-0.03	-0.750			
0.1422	9100.94	3.9490	3.9490	-0.7859	25.94	-0.03	-0.750			
0.1446	9251.73	3.9460	3.9459	-0.7904	25.95	-0.02	-0.750			
0.1469	9403.40	3.9430	3.9432	-0.7945	25.95	-0.02	-0.750			
0.1493	9556.80	3.9400	3.9397	-0.7971	25.95	-0.02	-0.750			
0.1517	9710.92	3.9370	3.9370	-0.8065	25.95	-0.02	-0.750			
0.1542	9866.90	3.9340	3.9340	-0.8044	25.96	-0.01	-0.750			
0.1566	10022.10	3.9310	3.9309	-0.8096	25.96	-0.01	-0.750			
0.1590	10178.19	3.9280	3.9283	-0.8116	25.96	-0.01	-0.750			
0.1614	10331.74	3.9250	3.9248	-0.8078	25.96	-0.01	-0.750			
0.1639	10487.10	3.9220	3.9220	-0.8170	25.96	-0.01	-0.750			
0.1663	10645.07	3.9190	3.9189	-0.8159	25.97	-0.00	-0.750			
0.1688	10804.04	3.9160	3.9159	-0.8231	25.97	-0.00	-0.750			
0.1713	10962.27	3.9130	3.9134	-0.8215	25.97	-0.00	-0.750			
0.1737	11119.09	3.9100	3.9099	-0.8167	25.97	0.00	-0.750			
0.1762	11275.14	3.9070	3.9070	-0.8187	25.98	0.01	-0.750			
0.1786	11430.62	3.9040	3.9040	-0.8139	25.98	0.01	-0.750			
0.1811	11588.18	3.9010	3.9010	-0.8206	25.99	0.02	-0.750			
0.1835	11745.60	3.8980	3.8980	-0.8190	25.99	0.02	-0.750			
0.1860	11901.48	3.8950	3.8950	-0.8218	25.99	0.02	-0.750			
0.1884	12059.30	3.8920	3.8920	-0.8279	26.00	0.03	-0.750			
0.1909	12218.25	3.8890	3.8890	-0.8335	26.00	0.03	-0.750			
0.1934	12380.17	3.8860	3.8859	-0.8321	26.01	0.04	-0.750			
0.1960	12541.73	3.8830	3.8831	-0.8385	26.01	0.04	-0.750			
0.1985	12702.55	3.8800	3.8800	-0.8378	26.01	0.04	-0.750			
0.2010	12864.01	3.8770	3.8770	-0.8423	26.02	0.05	-0.750			
0.2035	13026.25	3.8740	3.8739	-0.8358	26.02	0.05	-0.750			
0.2060	13185.68	3.8710	3.8710	-0.8343	26.03	0.06	-0.750			
0.2085	13346.65	3.8680	3.8681	-0.8331	26.03	0.06	-0.750			
0.2110	13506.00	3.8650	3.8650	-0.8389	26.03	0.06	-0.750			
0.2135	13664.55	3.8620	3.8620	-0.8413	26.03	0.06	-0.750			
0.2160	13827.13	3.8590	3.8590	-0.8466	26.04	0.07	-0.750			
0.2186	13990.65	3.8560	3.8560	-0.8468	26.04	0.07	-0.750			
0.2212	14157.92	3.8530	3.8531	-0.8526	26.04	0.07	-0.750			
0.2238	14320.16	3.8500	3.8500	-0.8501	26.05	0.08	-0.750			
0.2263	14483.53	3.8470	3.8470	-0.8515	26.05	0.08	-0.750			
0.2288	14645.82	3.8440	3.8439	-0.8458	26.06	0.09	-0.750			
0.2314	14806.93	3.8410	3.8410	-0.8451	26.06	0.09	-0.750			
0.2339	14971.08	3.8380	3.8381	-0.8475	26.07	0.10	-0.750			
0.2365	15133.78	3.8350	3.8349	-0.8444	26.07	0.10	-0.750			
0.2390	15296.05	3.8320	3.8320	-0.8522	26.08	0.11	-0.750			
0.2416	15460.63	3.8290	3.8290	-0.8457	26.08	0.11	-0.750			
0.2441	15623.65	3.8260	3.8259	-0.8471	26.09	0.12	-0.750			
0.2467	15786.32	3.8230	3.8234	-0.8461	26.09	0.12	-0.750			
0.2492	15947.17	3.8200	3.8199	-0.8420	26.09	0.12	-0.750			
0.2517	16108.20	3.8170	3.8169	-0.8445	26.09	0.12	-0.750			
0.2542	16270.64	3.8140	3.8140	-0.8416	26.10	0.13	-0.750			
0.2568	16432.31	3.8110	3.8109	-0.8428	26.10	0.13	-0.750			
0.2593	16594.35	3.8080	3.8081	-0.8440	26.10	0.13	-0.750			
0.2618	16755.01	3.8050	3.8049	-0.8423	26.10	0.13	-0.750			
0.2643	16916.92	3.8020	3.8020	-0.8456	26.10	0.13	-0.750			
0.2669	17080.30	3.7990	3.7989	-0.8393	26.11	0.14	-0.750			
0.2694	17242.31	3.7960	3.7960	-0.8398	26.11	0.14	-0.750			
0.2719	17403.47	3.7930	3.7932	-0.8414	26.11	0.14	-0.750			
0.2744	17564.53	3.7900	3.7898	-0.8368	26.11	0.14	-0.750			
0.2769	17724.71	3.7870	3.7869	-0.8359	26.12	0.15	-0.750			
0.2794	17884.52	3.7840	3.7841	-0.8288	26.12	0.15	-0.750			
0.2820	18045.60	3.7810	3.7810	-0.8295	26.13	0.16	-0.750			
0.2844	18204.49	3.7780	3.7781	-0.8275	26.13	0.16	-0.750			
0.2869	18361.30	3.7750	3.7749	-0.8212	26.14	0.17	-0.750			
0.2893	18518.15	3.7720	3.7719	-0.8228	26.14	0.17	-0.750			
0.2918	18677.01	3.7690	3.7690	-0.8190	26.15	0.18	-0.750			
0.2943	18835.85	3.7660	3.7659	-0.8182	26.15	0.18	-0.750			
0.2967	18991.91	3.7630	3.7632	-0.8172	26.16	0.19	-0.750			
0.2992	19147.74	3.7600	3.7599	-0.8137	26.16	0.19	-0.750			
0.3016	19303.60	3.7570	3.7569	-0.8123	26.16	0.19	-0.750			
0.3040	19458.86	3.7540	3.7540	-0.8101	26.17	0.20	-0.750			
0.3065	19616.30	3.7510	3.7510	-0.8129	26.17	0.20	-0.750			
0.3089	19771.43	3.7480	3.7482	-0.8140	26.17	0.20	-0.750			
0.3114	19926.80	3.7450	3.7449	-0.8155	26.17	0.20	-0.750			
0.3138	20082.25	3.7420	3.7420	-0.8198	26.18	0.21	-0.750			
0.3162	20238.72	3.7390	3.7390	-0.8274	26.18	0.21	-0.750			
0.3188	20400.39	3.7360	3.7360	-0.8379	26.19	0.22	-0.750			
0.3213	20561.77	3.7330	3.7331	-0.8394	26.19	0.22	-0.750			
0.3238	20723.33	3.7300	3.7300	-0.8508	26.19	0.22	-0.750			
0.3263	20886.27	3.7270	3.7269	-0.8577	26.19	0.22	-0.750			
0.3289	21050.90	3.7240	3.7240	-0.8665	26.19	0.22	-0.750			
0.3315	21217.97	3.7210	3.7211	-0.8800	26.19	0.22	-0.750			
0.3342	21388.03	3.7180	3.7180	-0.8947	26.19	0.22	-0.750			
0.3369	21561.58	3.7150	3.7150	-0.9168	26.19	0.22	-0.750			
0.3397	21740.82	3.7120	3.7119	-0.9294	26.19	0.22	-0.750			
0.3425	21919.57	3.7090	3.7090	-0.9412	26.20	0.23	-0.750			
0.3454	22102.89	3.7060	3.7060	-0.9572	26.20	0.23	-0.750			
0.3482	22287.19	3.7030	3.7030	-0.9732	26.20	0.23	-0.750			
0.3512	22474.15	3.7000	3.6999	-0.9882	26.20	0.23	-0.750			
0.3541	22664.71	3.6970	3.6970	-1.0065	26.19	0.22	-0.750			
0.3572	22858.32	3.6940	3.6939	-1.0227	26.19	0.22	-0.750			
0.3603	23059.65	3.6910	3.6910	-1.0549	26.19	0.22	-0.750			
0.3635	23263.38	3.6880	3.6880	-1.0744	26.19	0.22	-0.750			
0.3668	23472.73	3.6850	3.6849	-1.0937	26.19	0.22	-0.750			
0.3700	23683.09	3.6820	3.6820	-1.1092	26.19	0.22	-0.750			
0.3734	23899.76	3.6790	3.6791	-1.1402	26.19	0.22	-0.750			
0.3769	24121.18	3.6760	3.6760	-1.1624	26.18	0.21	-0.750			
0.3804	24346.34	3.6730	3.6729	-1.1854	26.18	0.21	-0.750			
0.3840	24574.52	3.6700	3.6703	-1.2084	26.17	0.20	-0.750			
0.3877	24810.00	3.6670	3.6670	-1.2365	26.17	0.20	-0.750			
0.3914	25050.67	3.6640	3.6640	-1.2634	26.17	0.20	-0.750			
0.3952	25293.71	3.6610	3.6610	-1.2920	26.17	0.20	-0.750			
0.3991	25543.81	3.6580	3.6580	-1.3237	26.16	0.19	-0.750			
0.4031	25800.05	3.6550	3.6549	-1.3549	26.15	0.18	-0.750			
0.4072	26063.80	3.6520	3.6520	-1.3860	26.14	0.17	-0.750			
0.4114	26331.52	3.6490	3.6490	-1.4249	26.13	0.16	-0.750			
0.4158	26614.28	3.6460	3.6460	-1.4442	26.12	0.15	-0.750			
0.4202	26892.00	3.6430	3.6429	-1.4698	26.11	0.14	-0.750			
0.4246	27174.92	3.6400	3.6400	-1.4900	26.10	0.13	-0.750			
0.4291	27464.55	3.6370	3.6369	-1.5248	26.10	0.13	-0.750			
0.4337	27757.97	3.6340	3.6339	-1.5534	26.09	0.12	-0.750			
0.4384	28058.34	3.6310	3.6310	-1.5774	26.08	0.11	-0.750			
0.4432	28363.83	3.6280	3.6283	-1.6220	26.08	0.11	-0.750			
0.4482	28684.55	3.6250	3.6248	-1.6562	26.07	0.10	-0.750			
0.4532	29002.78	3.6220	3.6222	-1.7010	26.06	0.09	-0.750	0.402	0.502	
0.4583	29330.71	3.6190	3.6190	-1.7205	26.05	0.08	-0.750			
0.4635	29662.90	3.6160	3.6160	-1.7627	26.05	0.08	-0.750			
0.4688	30005.39	3.6130	3.6132	-1.8276	26.05	0.08	-0.750			
0.4744	30359.82	3.6100	3.6097	-1.8737	26.05	0.08	-0.750			
0.4800	30722.69	3.6070	3.6070	-1.9175	26.04	0.07	-0.750			
0.4860	31102.30	3.6040	3.6041	-1.9644	26.03	0.06	-0.750			
0.4920	31487.66	3.6010	3.6012	-2.0199	26.02	0.05	-0.750			
0.4981	31879.88	3.5980	3.5979	-2.0130	26.02	0.05	-0.750			
0.5041	32263.39	3.5950	3.5951	-2.0357	26.01	0.04	-0.750			
0.5102	32652.17	3.5920	3.5920	-2.0523	26.00	0.03	-0.750			
0.5164	33047.45	3.5890	3.5891	-2.0980	25.99	0.02	-0.750			
0.5227	33452.05	3.5860	3.5860	-2.1405	25.99	0.02	-0.750			
0.5292	33867.22	3.5830	3.5830	-2.1780	25.98	0.01	-0.750			
0.5358	34293.02	3.5800	3.5801	-2.2060	25.98	0.01	-0.750			
0.5426	34728.40	3.5770	3.5769	-2.2504	25.97	0.00	-0.750			
0.5494	35159.32	3.5740	3.5739	-2.2618	25.97	0.00	-0.750			
0.5562	35594.46	3.5710	3.5709	-2.2870	25.97	0.00	-0.750			
0.5630	36034.93	3.5680	3.5681	-2.2967	25.97	-0.00	-0.750			
0.5700	36477.44	3.5650	3.5650	-2.3083	25.96	-0.01	-0.750			
0.5770	36925.12	3.5620	3.5620	-2.3263	25.96	-0.01	-0.750			
0.5840	37376.93	3.5590	3.5590	-2.3189	25.95	-0.02	-0.750			
0.5910	37823.22	3.5560	3.5561	-2.3104	25.96	-0.01	-0.750			
0.5979	38264.62	3.5530	3.5530	-2.3029	25.96	-0.01	-0.750			
0.6048	38704.14	3.5500	3.5498	-2.2794	25.95	-0.02	-0.750			
0.6116	39140.74	3.5470	3.5471	-2.2808	25.95	-0.02	-0.750			
0.6184	39577.56	3.5440	3.5440	-2.2591	25.95	-0.02	-0.750			
0.6252	40013.74	3.5410	3.5409	-2.2465	25.96	-0.01	-0.750			
0.6319	40443.13	3.5380	3.5380	-2.2167	25.97	-0.00	-0.750			
0.6387	40874.54	3.5350	3.5351	-2.1928	25.97	0.00	-0.750			
0.6452	41290.17	3.5320	3.5320	-2.1508	25.97	0.00	-0.750			
0.6516	41702.28	3.5290	3.5289	-2.0997	25.98	0.01	-0.750			
0.6578	42100.57	3.5260	3.5262	-2.0391	25.99	0.02	-0.750			
0.6639	42489.03	3.5230	3.5229	-1.9901	26.00	0.03	-0.750			
0.6697	42863.80	3.5200	3.5198	-1.9348	26.01	0.04	-0.750			
0.6754	43225.63	3.5170	3.5171	-1.8675	26.02	0.05	-0.750			
0.6810	43581.68	3.5140	3.5138	-1.8194	26.04	0.07	-0.750			
0.6864	43928.96	3.5110	3.5110	-1.7558	26.05	0.08	-0.750			
0.6916	44261.30	3.5080	3.5080	-1.7126	26.06	0.09	-0.750			
0.6966	44582.65	3.5050	3.5051	-1.6483	26.07	0.10	-0.750			
0.7015	44894.79	3.5020	3.5019	-1.5919	26.09	0.12	-0.750			
0.7061	45193.08	3.4990	3.4989	-1.5373	26.10	0.13	-0.750			
0.7107	45486.97	3.4960	3.4960	-1.4889	26.12	0.15	-0.750			
0.7151	45767.63	3.4930	3.4930	-1.4360	26.13	0.16	-0.750			
0.7193	46035.57	3.4900	3.4900	-1.3921	26.14	0.17	-0.750			
0.7234	46295.61	3.4870	3.4870	-1.3337	26.16	0.19	-0.750			
0.7274	46550.57	3.4840	3.4839	-1.2979	26.18	0.21	-0.750			
0.7311	46792.87	3.4810	3.4809	-1.2527	26.20	0.23	-0.750			
0.7348	47028.59	3.4780	3.4782	-1.2105	26.21	0.24	-0.750			
0.7384	47258.91	3.4750	3.4749	-1.1768	26.22	0.25	-0.750			
0.7419	47481.62	3.4720	3.4719	-1.1343	26.24	0.27	-0.750			
0.7452	47692.92	3.4690	3.4691	-1.0822	26.25	0.28	-0.750			
0.7484	47898.98	3.4660	3.4660	-1.0583	26.26	0.29	-0.750			
0.7515	48098.01	3.4630	3.4630	-1.0213	26.27	0.30	-0.750			
0.7545	48290.75	3.4600	3.4598	-0.9863	26.29	0.32	-0.750			
0.7574	48474.66	3.4570	3.4570	-0.9568	26.30	0.33	-0.750			
0.7602	48655.98	3.4540	3.4541	-0.9315	26.31	0.34	-0.750			
0.7630	48830.77	3.4510	3.4510	-0.9225	26.32	0.35	-0.750			
0.7657	49005.57	3.4480	3.4479	-0.9103	26.33	0.36	-0.750			
0.7683	49173.77	3.4450	3.4450	-0.9034	26.34	0.37	-0.750			
0.7711	49347.95	3.4420	3.4422	-0.9133	26.35	0.38	-0.750			
0.7738	49522.60	3.4390	3.4390	-0.9309	26.36	0.39	-0.750			
0.7766	49701.38	3.4360	3.4360	-0.9503	26.37	0.40	-0.750			
0.7794	49884.57	3.4330	3.4329	-0.9721	26.38	0.41	-0.750			
0.7824	50071.64	3.4300	3.4298	-0.9981	26.39	0.42	-0.750			
0.7854	50268.43	3.4270	3.4270	-1.0323	26.39	0.42	-0.750			
0.7886	50470.69	3.4240	3.4240	-1.0546	26.40	0.43	-0.750			
0.7919	50679.82	3.4210	3.4209	-1.0707	26.41	0.44	-0.750			
0.7951	50887.42	3.4180	3.4181	-1.0729	26.42	0.45	-0.750			
0.7984	51099.11	3.4150	3.4149	-1.0697	26.43	0.46	-0.750			
0.8017	51307.81	3.4120	3.4120	-1.0551	26.44	0.47	-0.750			
0.8048	51508.85	3.4090	3.4090	-1.0257	26.45	0.48	-0.750			
0.8079	51702.54	3.4060	3.4060	-0.9908	26.47	0.50	-0.750			
0.8108	51891.79	3.4030	3.4030	-0.9616	26.47	0.50	-0.750			
0.8136	52071.79	3.4000	3.4000	-0.9246	26.48	0.51	-0.750			
0.8163	52246.38	3.3970	3.3970	-0.8890	26.49	0.52	-0.750			
0.8190	52413.14	3.3940	3.3940	-0.8573	26.49	0.52	-0.750			
0.8215	52575.22	3.3910	3.3910	-0.8267	26.50	0.53	-0.750			
0.8239	52730.68	3.3880	3.3880	-0.7941	26.51	0.54	-0.750			
0.8262	52879.71	3.3850	3.3849	-0.7656	26.52	0.55	-0.750			
0.8285	53023.15	3.3820	3.3821	-0.7338	26.52	0.55	-0.750			
0.8306	53161.27	3.3790	3.3789	-0.7056	26.53	0.56	-0.750			
0.8327	53294.13	3.3760	3.3760	-0.6777	26.54	0.57	-0.750			
0.8347	53420.65	3.3730	3.3730	-0.6489	26.54	0.57	-0.750			
0.8366	53542.64	3.3700	3.3700	-0.6260	26.55	0.58	-0.750			
0.8385	53660.92	3.3670	3.3670	-0.6027	26.55	0.58	-0.750			
0.8402	53772.75	3.3640	3.3640	-0.5792	26.56	0.59	-0.750			
0.8419	53882.77	3.3610	3.3610	-0.5590	26.57	0.60	-0.750			
0.8436	53987.85	3.3580	3.3580	-0.5366	26.57	0.60	-0.750			
0.8451	54089.10	3.3550	3.3549	-0.5149	26.58	0.61	-0.750			
0.8466	54185.28	3.3520	3.3521	-0.4943	26.58	0.61	-0.750			
0.8481	54277.98	3.3490	3.3489	-0.4744	26.59	0.62	-0.750			
0.8495	54366.21	3.3460	3.3460	-0.4581	26.59	0.62	-0.750			
0.8508	54452.15	3.3430	3.3430	-0.4417	26.60	0.63	-0.750			
0.8521	54535.75	3.3400	3.3400	-0.4267	26.61	0.64	-0.750			
0.8534	54616.50	3.3370	3.3369	-0.4105	26.61	0.64	-0.750			
0.8546	54693.75	3.3340	3.3342	-0.3959	26.62	0.65	-0.750			
0.8558	54768.04	3.3310	3.3310	-0.3805	26.63	0.66	-0.750			
0.8569	54839.73	3.3280	3.3280	-0.3661	26.63	0.66	-0.750			
0.8579	54908.25	3.3250	3.3250	-0.3509	26.64	0.67	-0.750			
0.8590	54973.72	3.3220	3.3220	-0.3387	26.64	0.67	-0.750			
0.8600	55037.48	3.3190	3.3190	-0.3266	26.65	0.68	-0.750			
0.8609	55098.86	3.3160	3.3159	-0.3156	26.65	0.68	-0.750			
0.8618	55157.82	3.3130	3.3130	-0.3050	26.66	0.69	-0.750			
0.8627	55215.14	3.3100	3.3101	-0.2953	26.66	0.69	-0.750			
0.8636	55270.96	3.3070	3.3070	-0.2870	26.67	0.70	-0.750			
0.8645	55325.31	3.3040	3.3039	-0.2792	26.67	0.70	-0.750			
0.8653	55377.91	3.3010	3.3010	-0.2711	26.68	0.71	-0.750			
0.8661	55429.32	3.2980	3.2981	-0.2632	26.68	0.71	-0.750			
0.8669	55478.89	3.2950	3.2950	-0.2558	26.68	0.71	-0.750			
0.8676	55527.11	3.2920	3.2920	-0.2487	26.69	0.72	-0.750			
0.8683	55574.37	3.2890	3.2890	-0.2424	26.69	0.72	-0.750			
0.8691	55619.94	3.2860	3.2859	-0.2365	26.70	0.73	-0.750			
0.8698	55664.70	3.2830	3.2830	-0.2306	26.70	0.73	-0.750			
0.8704	55708.34	3.2800	3.2800	-0.2252	26.70	0.73	-0.750			
0.8711	55751.25	3.2770	3.2770	-0.2200	26.71	0.74	-0.750			
0.8718	55793.28	3.2740	3.2740	-0.2149	26.71	0.74	-0.750			
0.8724	55833.64	3.2710	3.2710	-0.2096	26.72	0.75	-0.750			
0.8730	55873.11	3.2680	3.2680	-0.2052	26.72	0.75	-0.750			
0.8736	55911.83	3.2650	3.2651	-0.2006	26.73	0.76	-0.750			
0.8742	55949.96	3.2620	3.2619	-0.1975	26.73	0.76	-0.750			
0.8748	55987.54	3.2590	3.2590	-0.1941	26.74	0.77	-0.750			
0.8754	56024.51	3.2560	3.2560	-0.1905	26.74	0.77	-0.750			
0.8759	56060.77	3.2530	3.2530	-0.1873	26.75	0.78	-0.750			
0.8765	56096.48	3.2500	3.2501	-0.1853	26.75	0.78	-0.750			
0.8771	56131.70	3.2470	3.2470	-0.1822	26.76	0.79	-0.750			
0.8776	56166.73	3.2440	3.2440	-0.1784	26.76	0.79	-0.750			
0.8781	56200.63	3.2410	3.2409	-0.1747	26.76	0.79	-0.750			
0.8787	56233.85	3.2380	3.2382	-0.1718	26.77	0.80	-0.750			
0.8792	56266.36	3.2350	3.2351	-0.1698	26.77	0.80	-0.750			
0.8797	56298.60	3.2320	3.2317	-0.1669	26.78	0.81	-0.750			
0.8802	56330.41	3.2290	3.2290	-0.1645	26.78	0.81	-0.750			
0.8806	56361.18	3.2260	3.2260	-0.1625	26.78	0.81	-0.750			
0.8811	56392.37	3.2230	3.2231	-0.1610	26.79	0.82	-0.750			
0.8816	56423.50	3.2200	3.2199	-0.1601	26.79	0.82	-0.750			
0.8821	56454.02	3.2170	3.2170	-0.1578	26.80	0.83	-0.750			
0.8826	56483.98	3.2140	3.2140	-0.1556	26.80	0.83	-0.750			
0.8830	56513.51	3.2110	3.2110	-0.1537	26.80	0.83	-0.750			
0.8835	56542.98	3.2080	3.2080	-0.1525	26.81	0.84	-0.750			
0.8839	56572.10	3.2050	3.2050	-0.1507	26.81	0.84	-0.750			
0.8844	56600.69	3.2020	3.2020	-0.1490	26.82	0.85	-0.750			
0.8848	56629.22	3.1990	3.1990	-0.1475	26.82	0.85	-0.750			
0.8853	56657.39	3.1960	3.1960	-0.1460	26.82	0.85	-0.750			
0.8857	56685.28	3.1930	3.1931	-0.1445	26.83	0.86	-0.750			
0.8861	56713.07	3.1900	3.1900	-0.1424	26.83	0.86	-0.750			
0.8866	56740.03	3.1870	3.1870	-0.1410	26.84	0.87	-0.750			
0.8870	56766.79	3.1840	3.1841	-0.1394	26.84	0.87	-0.750			
0.8874	56793.45	3.1810	3.1810	-0.1383	26.85	0.88	-0.750			
0.8878	56819.90	3.1780	3.1779	-0.1364	26.85	0.88	-0.750			
0.8882	56845.78	3.1750	3.1751	-0.1355	26.86	0.89	-0.750			
0.8886	56871.78	3.1720	3.1720	-0.1342	26.86	0.89	-0.750			
0.8890	56897.43	3.1690	3.1691	-0.1330	26.86	0.89	-0.750			
0.8894	56923.03	3.1660	3.1659	-0.1322	26.87	0.90	-0.750			
0.8898	56948.01	3.1630	3.1631	-0.1306	26.87	0.90	-0.750			
0.8902	56973.01	3.1600	3.1601	-0.1298	26.88	0.91	-0.750			
0.8906	56997.88	3.1570	3.1569	-0.1287	26.88	0.91	-0.750			
0.8910	57022.50	3.1540	3.1540	-0.1283	26.89	0.92	-0.750			
0.8914	57046.69	3.1510	3.1511	-0.1271	26.89	0.92	-0.750			
0.8917	57071.36	3.1480	3.1480	-0.1265	26.89	0.92	-0.750			
0.8921	57095.59	3.1450	3.1449	-0.1254	26.90	0.93	-0.750			
0.8925	57119.57	3.1420	3.1419	-0.1244	26.90	0.93	-0.750			
0.8929	57143.45	3.1390	3.1392	-0.1234	26.91	0.94	-0.750			
0.8932	57167.02	3.1360	3.1361	-0.1221	26.91	0.94	-0.750			
0.8936	57190.25	3.1330	3.1330	-0.1213	26.91	0.94	-0.750			
0.8940	57213.15	3.1300	3.1300	-0.1198	26.92	0.95	-0.750			
0.8943	57236.26	3.1270	3.1270	-0.1190	26.92	0.95	-0.750			
0.8947	57259.15	3.1240	3.1239	-0.1184	26.93	0.96	-0.750			
0.8950	57281.77	3.1210	3.1209	-0.1176	26.93	0.96	-0.750			
0.8954	57304.24	3.1180	3.1181	-0.1168	26.94	0.97	-0.750			
0.8957	57326.62	3.1150	3.1150	-0.1158	26.94	0.97	-0.750			
0.8961	57348.88	3.1120	3.1120	-0.1149	26.95	0.98	-0.750			
0.8964	57370.78	3.1090	3.1091	-0.1143	26.95	0.98	-0.750			
0.8968	57392.46	3.1060	3.1060	-0.1133	26.96	0.99	-0.750			
0.8971	57414.20	3.1030	3.1030	-0.1126	26.96	0.99	-0.750			
0.8974	57435.84	3.1000	3.1000	-0.1120	26.97	1.00	-0.750			
0.8978	57457.16	3.0970	3.0970	-0.1113	26.97	1.00	-0.750			
0.8981	57478.48	3.0940	3.0940	-0.1108	26.98	1.01	-0.750			
0.8984	57499.68	3.0910	3.0910	-0.1106	26.98	1.01	-0.750			
0.8988	57520.88	3.0880	3.0880	-0.1102	26.99	1.02	-0.750			
0.8991	57542.05	3.0850	3.0850	-0.1093	26.99	1.02	-0.750			
0.8994	57562.98	3.0820	3.0820	-0.1088	27.00	1.03	-0.750			
0.8998	57584.03	3.0790	3.0791	-0.1081	27.00	1.03	-0.750			
0.9001	57604.69	3.0760	3.0760	-0.1070	27.01	1.04	-0.750			
0.9004	57625.09	3.0730	3.0730	-0.1063	27.01	1.04	-0.750			
0.9007	57645.40	3.0700	3.0700	-0.1053	27.02	1.05	-0.750			
0.9010	57665.38	3.0670	3.0670	-0.1043	27.02	1.05	-0.750			
0.9013	57685.34	3.0640	3.0640	-0.1037	27.02	1.05	-0.750			
0.9016	57705.15	3.0610	3.0609	-0.1032	27.03	1.06	-0.750			
0.9020	57724.92	3.0580	3.0581	-0.1027	27.03	1.06	-0.750			
0.9023	57744.63	3.0550	3.0549	-0.1022	27.04	1.07	-0.750			
0.9026	57764.19	3.0520	3.0520	-0.1016	27.04	1.07	-0.750			
0.9029	57783.55	3.0490	3.0491	-0.1011	27.05	1.08	-0.750			
0.9032	57802.94	3.0460	3.0460	-0.1008	27.05	1.08	-0.750			
0.9035	57822.31	3.0430	3.0430	-0.1004	27.06	1.09	-0.750			
0.9038	57841.54	3.0400	3.0399	-0.1000	27.06	1.09	-0.750			
0.9041	57860.67	3.0370	3.0370	-0.0994	27.07	1.10	-0.750			
0.9044	57879.72	3.0340	3.0340	-0.0990	27.07	1.10	-0.750			
0.9047	57898.84	3.0310	3.0310	-0.0986	27.07	1.10	-0.750			
0.9050	57917.69	3.0280	3.0280	-0.0978	27.08	1.11	-0.750			
0.9053	57936.24	3.0250	3.0251	-0.0973	27.08	1.11	-0.750			
0.9055	57954.90	3.0220	3.0220	-0.0970	27.09	1.12	-0.750			
0.9058	57973.63	3.0190	3.0190	-0.0962	27.09	1.12	-0.750			
0.9061	57992.03	3.0160	3.0159	-0.0955	27.10	1.13	-0.750			
0.9064	58010.46	3.0130	3.0130	-0.0945	27.10	1.13	-0.750			
0.9067	58028.49	3.0100	3.0101	-0.0933	27.10	1.13	-0.750			
0.9070	58046.60	3.0070	3.0070	-0.0917	27.11	1.14	-0.750			
0.9072	58063.99	3.0040	3.0040	-0.0895	27.11	1.14	-0.751			
0.9075	58081.02	3.0010	3.0010	-0.0886	27.12	1.15	-0.751			
