Ah_balance (normalized)	Ah_balance (mAh)	Voltage - fit (V)	Voltage -  interpolate (V)	dQ/dV (1/V)	Temperature (°C)	Temperature - diff (°C)	Current (C)	R_DC 0ms (mOhm)	R_DC 50ms (mOhm)	R_DC 50 ms PEC (mOhm)
0.0004	26.54	4.1600	4.1599	-0.1330	25.82	0.02	-0.750			
0.0009	56.92	4.1570	4.1568	-0.1737	25.82	0.02	-0.750			
0.0015	93.10	4.1540	4.1540	-0.2096	25.82	0.02	-0.750			
0.0021	136.64	4.1510	4.1510	-0.2477	25.81	0.01	-0.750			
0.0029	187.87	4.1480	4.1481	-0.2856	25.81	0.01	-0.750			
0.0039	247.22	4.1450	4.1448	-0.3201	25.81	0.01	-0.750			
0.0049	312.45	4.1420	4.1420	-0.3543	25.81	0.01	-0.750			
0.0060	383.78	4.1390	4.1390	-0.3879	25.81	0.01	-0.750			
0.0072	462.04	4.1360	4.1360	-0.4179	25.81	0.01	-0.750			
0.0085	545.96	4.1330	4.1329	-0.4449	25.80	0.00	-0.750			
0.0099	634.19	4.1300	4.1300	-0.4704	25.80	0.00	-0.750			
0.0114	728.04	4.1270	4.1272	-0.4925	25.80	-0.00	-0.750			
0.0129	825.66	4.1240	4.1240	-0.5118	25.80	-0.00	-0.750			
0.0145	925.52	4.1210	4.1210	-0.5290	25.79	-0.01	-0.750			
0.0161	1028.08	4.1180	4.1180	-0.5464	25.79	-0.01	-0.750			
0.0177	1135.00	4.1150	4.1151	-0.5642	25.79	-0.01	-0.750			
0.0195	1245.03	4.1120	4.1119	-0.5797	25.79	-0.01	-0.750			
0.0212	1359.37	4.1090	4.1090	-0.5928	25.78	-0.02	-0.750			
0.0231	1475.78	4.1060	4.1059	-0.6031	25.78	-0.02	-0.750			
0.0249	1593.29	4.1030	4.1029	-0.6118	25.78	-0.02	-0.750			
0.0267	1710.71	4.1000	4.1000	-0.6166	25.77	-0.03	-0.750			
0.0286	1827.36	4.0970	4.0971	-0.6216	25.77	-0.03	-0.750			
0.0304	1947.04	4.0940	4.0940	-0.6322	25.76	-0.04	-0.750			
0.0323	2070.02	4.0910	4.0909	-0.6412	25.76	-0.04	-0.750			
0.0343	2194.72	4.0880	4.0880	-0.6487	25.75	-0.05	-0.750			
0.0363	2320.27	4.0850	4.0851	-0.6582	25.75	-0.05	-0.750			
0.0382	2447.61	4.0820	4.0820	-0.6621	25.75	-0.05	-0.750			
0.0402	2575.60	4.0790	4.0789	-0.6659	25.75	-0.05	-0.750			
0.0422	2703.59	4.0760	4.0761	-0.6720	25.75	-0.05	-0.750			
0.0443	2833.22	4.0730	4.0729	-0.6727	25.74	-0.06	-0.750			
0.0463	2963.54	4.0700	4.0700	-0.6783	25.74	-0.06	-0.750			
0.0483	3093.53	4.0670	4.0670	-0.6823	25.74	-0.06	-0.750			
0.0504	3224.67	4.0640	4.0640	-0.6834	25.74	-0.06	-0.750			
0.0525	3356.90	4.0610	4.0609	-0.6867	25.74	-0.06	-0.750			
0.0545	3488.15	4.0580	4.0580	-0.6913	25.74	-0.06	-0.750			
0.0566	3621.15	4.0550	4.0551	-0.6936	25.74	-0.06	-0.750			
0.0587	3756.08	4.0520	4.0519	-0.7002	25.74	-0.06	-0.750			
0.0608	3889.94	4.0490	4.0489	-0.7008	25.74	-0.06	-0.750			
0.0629	4024.76	4.0460	4.0460	-0.7005	25.74	-0.06	-0.750			
0.0650	4160.44	4.0430	4.0430	-0.7014	25.74	-0.06	-0.750			
0.0671	4295.09	4.0400	4.0400	-0.7020	25.74	-0.06	-0.750			
0.0692	4428.67	4.0370	4.0370	-0.7030	25.74	-0.06	-0.750			
0.0713	4564.27	4.0340	4.0340	-0.7062	25.74	-0.06	-0.750			
0.0734	4698.97	4.0310	4.0310	-0.7104	25.74	-0.06	-0.750			
0.0756	4835.95	4.0280	4.0280	-0.7134	25.74	-0.06	-0.750			
0.0777	4974.43	4.0250	4.0250	-0.7162	25.74	-0.06	-0.750			
0.0799	5112.41	4.0220	4.0220	-0.7241	25.74	-0.06	-0.750			
0.0821	5252.50	4.0190	4.0190	-0.7243	25.75	-0.05	-0.750			
0.0842	5391.94	4.0160	4.0160	-0.7246	25.75	-0.05	-0.750			
0.0864	5530.94	4.0130	4.0131	-0.7261	25.75	-0.05	-0.750			
0.0886	5669.75	4.0100	4.0101	-0.7260	25.75	-0.05	-0.750			
0.0908	5809.19	4.0070	4.0069	-0.7311	25.75	-0.05	-0.750			
0.0930	5949.67	4.0040	4.0039	-0.7301	25.76	-0.04	-0.750			
0.0952	6090.09	4.0010	4.0011	-0.7293	25.76	-0.04	-0.750			
0.0974	6230.41	3.9980	3.9980	-0.7330	25.76	-0.04	-0.750			
0.0996	6372.15	3.9950	3.9951	-0.7358	25.76	-0.04	-0.750			
0.1018	6512.83	3.9920	3.9920	-0.7378	25.76	-0.04	-0.750			
0.1040	6653.90	3.9890	3.9889	-0.7378	25.76	-0.04	-0.750			
0.1062	6795.17	3.9860	3.9861	-0.7381	25.77	-0.03	-0.750			
0.1084	6938.55	3.9830	3.9830	-0.7472	25.77	-0.03	-0.750			
0.1107	7082.86	3.9800	3.9800	-0.7505	25.77	-0.03	-0.750			
0.1129	7226.71	3.9770	3.9769	-0.7494	25.77	-0.03	-0.750			
0.1152	7370.09	3.9740	3.9740	-0.7533	25.78	-0.02	-0.750			
0.1174	7514.90	3.9710	3.9711	-0.7573	25.78	-0.02	-0.750			
0.1197	7661.29	3.9680	3.9679	-0.7599	25.78	-0.02	-0.750			
0.1220	7808.08	3.9650	3.9649	-0.7602	25.79	-0.01	-0.750			
0.1243	7953.93	3.9620	3.9621	-0.7591	25.79	-0.01	-0.750			
0.1266	8100.51	3.9590	3.9590	-0.7616	25.79	-0.01	-0.750			
0.1289	8246.44	3.9560	3.9560	-0.7637	25.80	-0.00	-0.750			
0.1311	8392.36	3.9530	3.9530	-0.7626	25.80	0.00	-0.750			
0.1334	8538.33	3.9500	3.9500	-0.7636	25.81	0.01	-0.750			
0.1357	8685.00	3.9470	3.9470	-0.7680	25.81	0.01	-0.750			
0.1380	8833.63	3.9440	3.9440	-0.7692	25.81	0.01	-0.750			
0.1403	8981.39	3.9410	3.9410	-0.7689	25.81	0.01	-0.750			
0.1426	9128.18	3.9380	3.9380	-0.7712	25.81	0.01	-0.750			
0.1449	9276.16	3.9350	3.9350	-0.7730	25.81	0.01	-0.750			
0.1473	9426.05	3.9320	3.9320	-0.7743	25.81	0.01	-0.750			
0.1496	9574.03	3.9290	3.9291	-0.7781	25.81	0.01	-0.750			
0.1519	9723.58	3.9260	3.9260	-0.7792	25.81	0.01	-0.750			
0.1543	9874.38	3.9230	3.9230	-0.7891	25.81	0.01	-0.750			
0.1567	10026.32	3.9200	3.9200	-0.7901	25.82	0.02	-0.750			
0.1590	10179.02	3.9170	3.9169	-0.7878	25.82	0.02	-0.750			
0.1614	10331.55	3.9140	3.9143	-0.7878	25.82	0.02	-0.750			
0.1638	10482.87	3.9110	3.9109	-0.7898	25.83	0.03	-0.750			
0.1661	10632.85	3.9080	3.9081	-0.7957	25.83	0.03	-0.750			
0.1685	10784.90	3.9050	3.9050	-0.7980	25.84	0.04	-0.750			
0.1709	10939.86	3.9020	3.9018	-0.8012	25.84	0.04	-0.750			
0.1733	11094.24	3.8990	3.8993	-0.8029	25.85	0.05	-0.750			
0.1758	11250.88	3.8960	3.8959	-0.8008	25.85	0.05	-0.750			
0.1782	11402.18	3.8930	3.8929	-0.7990	25.86	0.06	-0.750			
0.1805	11553.11	3.8900	3.8901	-0.7942	25.86	0.06	-0.750			
0.1829	11704.54	3.8870	3.8870	-0.7979	25.86	0.06	-0.750			
0.1853	11860.18	3.8840	3.8840	-0.8030	25.87	0.07	-0.750			
0.1877	12015.54	3.8810	3.8809	-0.8028	25.87	0.07	-0.750			
0.1901	12168.92	3.8780	3.8781	-0.8086	25.87	0.07	-0.750			
0.1926	12325.65	3.8750	3.8750	-0.8114	25.88	0.08	-0.750			
0.1950	12479.96	3.8720	3.8720	-0.8094	25.88	0.08	-0.750			
0.1975	12637.94	3.8690	3.8690	-0.8096	25.88	0.08	-0.750			
0.1999	12793.95	3.8660	3.8660	-0.8052	25.88	0.08	-0.750			
0.2023	12947.02	3.8630	3.8630	-0.8127	25.89	0.09	-0.750			
0.2047	13103.90	3.8600	3.8600	-0.8103	25.89	0.09	-0.750			
0.2072	13257.99	3.8570	3.8568	-0.8051	25.90	0.10	-0.750			
0.2096	13413.43	3.8540	3.8540	-0.8084	25.91	0.11	-0.750			
0.2120	13568.17	3.8510	3.8511	-0.8113	25.91	0.11	-0.750			
0.2145	13724.85	3.8480	3.8479	-0.8131	25.92	0.12	-0.750			
0.2169	13881.15	3.8450	3.8450	-0.8145	25.92	0.12	-0.750			
0.2193	14036.61	3.8420	3.8419	-0.8088	25.92	0.12	-0.750			
0.2218	14194.27	3.8390	3.8390	-0.8129	25.93	0.13	-0.750			
0.2242	14349.70	3.8360	3.8361	-0.8132	25.93	0.13	-0.750			
0.2266	14504.83	3.8330	3.8329	-0.8102	25.93	0.13	-0.750			
0.2291	14661.32	3.8300	3.8299	-0.8104	25.94	0.14	-0.750			
0.2315	14816.47	3.8270	3.8270	-0.8080	25.94	0.14	-0.750			
0.2340	14972.86	3.8240	3.8240	-0.8055	25.95	0.15	-0.750			
0.2364	15127.06	3.8210	3.8212	-0.8044	25.95	0.15	-0.750			
0.2387	15279.87	3.8180	3.8179	-0.7999	25.95	0.15	-0.750			
0.2411	15432.95	3.8150	3.8150	-0.8018	25.95	0.15	-0.750			
0.2436	15588.07	3.8120	3.8119	-0.7971	25.96	0.16	-0.750			
0.2460	15742.70	3.8090	3.8089	-0.7996	25.96	0.16	-0.750			
0.2484	15895.66	3.8060	3.8063	-0.7920	25.96	0.16	-0.750			
0.2507	16047.52	3.8030	3.8028	-0.7907	25.96	0.16	-0.750			
0.2531	16196.68	3.8000	3.8001	-0.7864	25.97	0.17	-0.750			
0.2554	16345.84	3.7970	3.7970	-0.7815	25.97	0.17	-0.750			
0.2578	16496.92	3.7940	3.7941	-0.7737	25.97	0.17	-0.750			
0.2602	16649.87	3.7910	3.7909	-0.7693	25.98	0.18	-0.750			
0.2624	16794.89	3.7880	3.7881	-0.7580	25.98	0.18	-0.750			
0.2647	16939.20	3.7850	3.7851	-0.7549	25.99	0.19	-0.750			
0.2669	17081.49	3.7820	3.7819	-0.7524	25.99	0.19	-0.750			
0.2691	17223.80	3.7790	3.7789	-0.7496	26.00	0.20	-0.750			
0.2714	17369.01	3.7760	3.7760	-0.7537	26.00	0.20	-0.750			
0.2737	17516.44	3.7730	3.7730	-0.7595	26.01	0.21	-0.750			
0.2760	17662.01	3.7700	3.7700	-0.7565	26.01	0.21	-0.750			
0.2782	17806.30	3.7670	3.7670	-0.7572	26.02	0.22	-0.750			
0.2805	17951.65	3.7640	3.7640	-0.7549	26.02	0.22	-0.750			
0.2828	18096.36	3.7610	3.7611	-0.7532	26.02	0.22	-0.750			
0.2850	18241.17	3.7580	3.7579	-0.7540	26.03	0.23	-0.750			
0.2873	18385.12	3.7550	3.7550	-0.7547	26.03	0.23	-0.750			
0.2895	18529.39	3.7520	3.7520	-0.7585	26.03	0.23	-0.750			
0.2918	18674.94	3.7490	3.7489	-0.7627	26.03	0.23	-0.750			
0.2941	18820.49	3.7460	3.7460	-0.7695	26.04	0.24	-0.750			
0.2964	18970.95	3.7430	3.7430	-0.7768	26.04	0.24	-0.750			
0.2988	19120.47	3.7400	3.7401	-0.7850	26.04	0.24	-0.750			
0.3011	19271.87	3.7370	3.7370	-0.7909	26.04	0.24	-0.750			
0.3035	19423.44	3.7340	3.7340	-0.8012	26.05	0.25	-0.750			
0.3059	19578.56	3.7310	3.7310	-0.8092	26.05	0.25	-0.750			
0.3083	19734.21	3.7280	3.7279	-0.8199	26.06	0.26	-0.750			
0.3108	19891.92	3.7250	3.7251	-0.8321	26.06	0.26	-0.750			
0.3133	20053.02	3.7220	3.7220	-0.8474	26.06	0.26	-0.750			
0.3159	20216.23	3.7190	3.7190	-0.8594	26.06	0.26	-0.750			
0.3185	20383.46	3.7160	3.7160	-0.8716	26.06	0.26	-0.750			
0.3211	20551.41	3.7130	3.7130	-0.8803	26.06	0.26	-0.750			
0.3238	20722.72	3.7100	3.7103	-0.9006	26.06	0.26	-0.750			
0.3265	20895.34	3.7070	3.7070	-0.9176	26.06	0.26	-0.750			
0.3293	21072.03	3.7040	3.7040	-0.9333	26.06	0.26	-0.750			
0.3321	21253.65	3.7010	3.7010	-0.9520	26.07	0.27	-0.750			
0.3350	21439.12	3.6980	3.6980	-0.9668	26.07	0.27	-0.750			
0.3379	21625.05	3.6950	3.6950	-0.9926	26.07	0.27	-0.750			
0.3409	21817.21	3.6920	3.6920	-1.0074	26.06	0.26	-0.750			
0.3439	22011.25	3.6890	3.6889	-1.0217	26.06	0.26	-0.750			
0.3470	22209.89	3.6860	3.6859	-1.0355	26.05	0.25	-0.750			
0.3502	22411.34	3.6830	3.6831	-1.0644	26.05	0.25	-0.750			
0.3534	22618.90	3.6800	3.6800	-1.0848	26.05	0.25	-0.750			
0.3567	22828.05	3.6770	3.6770	-1.1080	26.04	0.24	-0.750			
0.3600	23041.96	3.6740	3.6740	-1.1317	26.04	0.24	-0.750			
0.3635	23260.85	3.6710	3.6709	-1.1462	26.04	0.24	-0.750			
0.3669	23482.89	3.6680	3.6680	-1.1718	26.04	0.24	-0.750			
0.3704	23708.62	3.6650	3.6651	-1.1965	26.03	0.23	-0.750			
0.3740	23937.87	3.6620	3.6621	-1.2189	26.03	0.23	-0.750			
0.3778	24179.15	3.6590	3.6589	-1.2506	26.02	0.22	-0.750			
0.3816	24421.46	3.6560	3.6560	-1.2720	26.02	0.22	-0.750			
0.3854	24668.30	3.6530	3.6531	-1.3086	26.01	0.21	-0.750			
0.3895	24926.26	3.6500	3.6499	-1.3373	26.00	0.20	-0.750			
0.3935	25182.62	3.6470	3.6469	-1.3545	26.00	0.20	-0.750			
0.3976	25444.48	3.6440	3.6441	-1.3714	25.99	0.19	-0.750			
0.4017	25707.66	3.6410	3.6410	-1.4032	25.99	0.19	-0.750			
0.4059	25979.64	3.6380	3.6379	-1.4329	25.98	0.18	-0.750			
0.4103	26256.72	3.6350	3.6350	-1.4635	25.98	0.18	-0.750			
0.4146	26536.74	3.6320	3.6319	-1.4895	25.97	0.17	-0.750			
0.4193	26833.26	3.6290	3.6288	-1.5269	25.97	0.17	-0.750			
0.4239	27131.52	3.6260	3.6262	-1.5532	25.96	0.16	-0.750			
0.4286	27432.58	3.6230	3.6228	-1.5834	25.96	0.16	-0.750			
0.4334	27735.05	3.6200	3.6201	-1.6050	25.95	0.15	-0.750			
0.4383	28049.28	3.6170	3.6169	-1.6282	25.95	0.15	-0.750	0.387	0.527	
0.4432	28363.56	3.6140	3.6140	-1.6689	25.94	0.14	-0.750			
0.4482	28686.52	3.6110	3.6109	-1.7032	25.93	0.13	-0.750			
0.4533	29012.99	3.6080	3.6080	-1.7444	25.93	0.13	-0.750			
0.4587	29358.76	3.6050	3.6050	-1.7605	25.92	0.12	-0.750			
0.4641	29700.47	3.6020	3.6023	-1.7933	25.92	0.12	-0.750			
0.4695	30047.19	3.5990	3.5991	-1.8428	25.91	0.11	-0.750			
0.4751	30405.35	3.5960	3.5959	-1.8853	25.91	0.11	-0.750			
0.4807	30767.00	3.5930	3.5931	-1.9257	25.90	0.10	-0.750			
0.4866	31143.40	3.5900	3.5899	-1.9748	25.89	0.09	-0.750			
0.4926	31528.41	3.5870	3.5873	-1.9887	25.89	0.09	-0.750			
0.4987	31917.10	3.5840	3.5840	-2.0364	25.89	0.09	-0.750			
0.5049	32313.91	3.5810	3.5809	-2.0538	25.89	0.09	-0.750			
0.5110	32702.81	3.5780	3.5777	-2.0627	25.89	0.09	-0.750			
0.5173	33104.16	3.5750	3.5751	-2.1113	25.89	0.09	-0.750			
0.5236	33510.40	3.5720	3.5719	-2.1184	25.88	0.08	-0.750			
0.5300	33919.31	3.5690	3.5691	-2.1503	25.88	0.08	-0.750			
0.5366	34339.81	3.5660	3.5659	-2.1838	25.87	0.07	-0.750			
0.5431	34759.53	3.5630	3.5629	-2.1881	25.87	0.07	-0.750			
0.5497	35183.99	3.5600	3.5601	-2.2115	25.87	0.07	-0.750			
0.5565	35614.90	3.5570	3.5571	-2.2086	25.87	0.07	-0.750			
0.5630	36034.92	3.5540	3.5539	-2.1950	25.87	0.07	-0.750			
0.5697	36462.35	3.5510	3.5511	-2.1839	25.87	0.07	-0.750			
0.5762	36878.32	3.5480	3.5481	-2.1688	25.87	0.07	-0.750			
0.5827	37291.84	3.5450	3.5450	-2.1655	25.87	0.07	-0.750			
0.5891	37702.93	3.5420	3.5420	-2.1399	25.87	0.07	-0.750			
0.5956	38118.26	3.5390	3.5390	-2.1260	25.87	0.07	-0.750			
0.6020	38530.68	3.5360	3.5359	-2.1153	25.87	0.07	-0.750			
0.6083	38933.17	3.5330	3.5330	-2.0843	25.87	0.07	-0.750			
0.6146	39332.23	3.5300	3.5302	-2.0588	25.88	0.08	-0.750			
0.6207	39721.87	3.5270	3.5269	-2.0229	25.89	0.09	-0.750			
0.6267	40107.63	3.5240	3.5239	-1.9685	25.89	0.09	-0.750			
0.6326	40486.46	3.5210	3.5211	-1.9303	25.89	0.09	-0.750			
0.6384	40859.56	3.5180	3.5180	-1.9016	25.89	0.09	-0.750			
0.6440	41215.39	3.5150	3.5149	-1.8354	25.90	0.10	-0.750			
0.6494	41562.06	3.5120	3.5121	-1.7853	25.91	0.11	-0.750			
0.6547	41898.37	3.5090	3.5092	-1.7522	25.92	0.12	-0.750			
0.6599	42232.74	3.5060	3.5060	-1.7004	25.93	0.13	-0.750			
0.6650	42561.60	3.5030	3.5029	-1.6464	25.94	0.14	-0.750			
0.6698	42870.11	3.5000	3.4999	-1.5841	25.96	0.16	-0.750			
0.6745	43168.77	3.4970	3.4970	-1.5321	25.97	0.17	-0.750			
0.6790	43454.02	3.4940	3.4939	-1.4758	25.98	0.18	-0.750			
0.6833	43728.21	3.4910	3.4909	-1.4267	25.99	0.19	-0.750			
0.6874	43996.49	3.4880	3.4882	-1.3799	26.00	0.20	-0.750			
0.6916	44263.87	3.4850	3.4848	-1.3461	26.02	0.22	-0.750			
0.6956	44517.47	3.4820	3.4819	-1.2996	26.03	0.23	-0.750			
0.6994	44758.61	3.4790	3.4792	-1.2464	26.04	0.24	-0.750			
0.7031	44998.86	3.4760	3.4758	-1.2144	26.06	0.26	-0.750			
0.7067	45225.61	3.4730	3.4730	-1.1644	26.07	0.27	-0.750			
0.7101	45443.70	3.4700	3.4700	-1.1313	26.09	0.29	-0.750			
0.7134	45656.62	3.4670	3.4671	-1.1048	26.10	0.30	-0.750			
0.7167	45866.32	3.4640	3.4639	-1.0706	26.11	0.31	-0.750			
0.7198	46067.84	3.4610	3.4609	-1.0342	26.12	0.32	-0.750			
0.7229	46263.83	3.4580	3.4581	-1.0024	26.13	0.33	-0.750			
0.7258	46451.55	3.4550	3.4552	-0.9789	26.14	0.34	-0.750			
0.7287	46638.04	3.4520	3.4519	-0.9497	26.15	0.35	-0.750			
0.7315	46815.84	3.4490	3.4489	-0.9203	26.15	0.35	-0.750			
0.7342	46987.85	3.4460	3.4460	-0.8959	26.16	0.36	-0.750			
0.7369	47159.65	3.4430	3.4432	-0.8806	26.17	0.37	-0.750			
0.7395	47325.14	3.4400	3.4398	-0.8665	26.19	0.39	-0.750			
0.7420	47486.94	3.4370	3.4370	-0.8640	26.20	0.40	-0.750			
0.7445	47650.39	3.4340	3.4339	-0.8680	26.21	0.41	-0.750			
0.7472	47817.66	3.4310	3.4309	-0.8835	26.22	0.42	-0.750			
0.7498	47988.10	3.4280	3.4281	-0.8985	26.23	0.43	-0.750			
0.7525	48162.22	3.4250	3.4249	-0.9161	26.24	0.44	-0.750			
0.7553	48340.44	3.4220	3.4220	-0.9321	26.24	0.44	-0.750			
0.7581	48520.14	3.4190	3.4190	-0.9384	26.24	0.44	-0.750			
0.7610	48705.22	3.4160	3.4162	-0.9485	26.25	0.45	-0.750			
0.7639	48888.33	3.4130	3.4130	-0.9549	26.26	0.46	-0.750			
0.7668	49073.77	3.4100	3.4099	-0.9505	26.27	0.47	-0.750			
0.7697	49259.01	3.4070	3.4069	-0.9370	26.28	0.48	-0.750			
0.7725	49437.66	3.4040	3.4039	-0.9205	26.29	0.49	-0.750			
0.7752	49615.53	3.4010	3.4010	-0.9029	26.29	0.49	-0.750			
0.7779	49787.14	3.3980	3.3980	-0.8809	26.30	0.50	-0.750			
0.7805	49953.42	3.3950	3.3948	-0.8553	26.30	0.50	-0.750			
0.7830	50111.97	3.3920	3.3921	-0.8246	26.30	0.50	-0.750			
0.7855	50272.01	3.3890	3.3889	-0.8100	26.31	0.51	-0.750			
0.7879	50425.24	3.3860	3.3860	-0.7821	26.32	0.52	-0.750			
0.7902	50574.45	3.3830	3.3829	-0.7544	26.32	0.52	-0.750			
0.7924	50715.68	3.3800	3.3801	-0.7272	26.33	0.53	-0.750			
0.7946	50852.05	3.3770	3.3770	-0.6982	26.34	0.54	-0.750			
0.7966	50983.48	3.3740	3.3740	-0.6735	26.34	0.54	-0.750			
0.7986	51110.08	3.3710	3.3711	-0.6477	26.35	0.55	-0.750			
0.8005	51231.67	3.3680	3.3680	-0.6233	26.35	0.55	-0.750			
0.8023	51349.19	3.3650	3.3649	-0.6000	26.36	0.56	-0.750			
0.8041	51461.57	3.3620	3.3621	-0.5772	26.36	0.56	-0.750			
0.8058	51568.87	3.3590	3.3590	-0.5569	26.37	0.57	-0.750			
0.8074	51674.55	3.3560	3.3560	-0.5381	26.37	0.57	-0.750			
0.8090	51775.77	3.3530	3.3529	-0.5196	26.37	0.57	-0.750			
0.8105	51874.62	3.3500	3.3499	-0.4982	26.38	0.58	-0.750			
0.8120	51968.53	3.3470	3.3470	-0.4773	26.38	0.58	-0.750			
0.8134	52057.81	3.3440	3.3441	-0.4593	26.39	0.59	-0.750			
0.8147	52143.46	3.3410	3.3410	-0.4421	26.40	0.60	-0.750			
0.8160	52224.54	3.3380	3.3379	-0.4277	26.40	0.60	-0.750			
0.8173	52305.58	3.3350	3.3350	-0.4172	26.41	0.61	-0.750			
0.8185	52384.13	3.3320	3.3320	-0.4061	26.41	0.61	-0.750			
0.8197	52461.87	3.3290	3.3291	-0.3978	26.42	0.62	-0.750			
0.8209	52537.68	3.3260	3.3260	-0.3866	26.43	0.63	-0.750			
0.8220	52610.83	3.3230	3.3229	-0.3750	26.43	0.63	-0.750			
0.8231	52681.35	3.3200	3.3200	-0.3632	26.44	0.64	-0.750			
0.8242	52749.75	3.3170	3.3171	-0.3531	26.44	0.64	-0.750			
0.8253	52816.51	3.3140	3.3140	-0.3453	26.45	0.65	-0.750			
0.8263	52881.93	3.3110	3.3108	-0.3362	26.45	0.65	-0.750			
0.8273	52945.55	3.3080	3.3080	-0.3266	26.46	0.66	-0.750			
0.8282	53007.98	3.3050	3.3051	-0.3172	26.46	0.66	-0.750			
0.8292	53068.01	3.3020	3.3020	-0.3091	26.47	0.67	-0.750			
0.8301	53126.02	3.2990	3.2990	-0.3014	26.47	0.67	-0.750			
0.8310	53182.03	3.2960	3.2960	-0.2929	26.47	0.67	-0.750			
0.8318	53237.39	3.2930	3.2929	-0.2865	26.48	0.68	-0.750			
0.8327	53292.34	3.2900	3.2900	-0.2820	26.48	0.68	-0.750			
0.8335	53346.37	3.2870	3.2871	-0.2756	26.49	0.69	-0.750			
0.8344	53399.29	3.2840	3.2839	-0.2700	26.49	0.69	-0.750			
0.8352	53449.66	3.2810	3.2810	-0.2635	26.49	0.69	-0.750			
0.8359	53498.50	3.2780	3.2780	-0.2579	26.50	0.70	-0.750			
0.8367	53548.13	3.2750	3.2749	-0.2539	26.50	0.70	-0.750			
0.8374	53596.55	3.2720	3.2720	-0.2499	26.51	0.71	-0.750			
0.8382	53644.17	3.2690	3.2689	-0.2434	26.51	0.71	-0.750			
0.8389	53690.50	3.2660	3.2662	-0.2397	26.52	0.72	-0.750			
0.8396	53736.53	3.2630	3.2630	-0.2356	26.52	0.72	-0.750			
0.8403	53780.74	3.2600	3.2599	-0.2315	26.53	0.73	-0.750			
0.8410	53824.25	3.2570	3.2571	-0.2269	26.53	0.73	-0.750			
0.8417	53867.05	3.2540	3.2540	-0.2235	26.54	0.74	-0.750			
0.8423	53910.36	3.2510	3.2510	-0.2209	26.54	0.74	-0.750			
0.8430	53952.56	3.2480	3.2480	-0.2185	26.55	0.75	-0.750			
0.8436	53993.53	3.2450	3.2449	-0.2143	26.55	0.75	-0.750			
0.8443	54034.47	3.2420	3.2421	-0.2121	26.56	0.76	-0.750			
0.8449	54075.27	3.2390	3.2389	-0.2086	26.56	0.76	-0.750			
0.8455	54114.87	3.2360	3.2361	-0.2054	26.57	0.77	-0.750			
0.8462	54153.95	3.2330	3.2330	-0.2033	26.57	0.77	-0.750			
0.8468	54192.73	3.2300	3.2301	-0.2007	26.58	0.78	-0.750			
0.8474	54231.13	3.2270	3.2269	-0.1975	26.58	0.78	-0.750			
0.8479	54268.51	3.2240	3.2239	-0.1944	26.58	0.78	-0.750			
0.8485	54305.51	3.2210	3.2210	-0.1918	26.59	0.79	-0.750			
0.8491	54342.13	3.2180	3.2180	-0.1893	26.59	0.79	-0.750			
0.8497	54378.50	3.2150	3.2150	-0.1872	26.60	0.80	-0.750			
0.8502	54414.01	3.2120	3.2120	-0.1842	26.60	0.80	-0.750			
0.8508	54448.90	3.2090	3.2090	-0.1814	26.61	0.81	-0.750			
0.8513	54483.53	3.2060	3.2061	-0.1796	26.61	0.81	-0.750			
0.8518	54517.85	3.2030	3.2030	-0.1785	26.62	0.82	-0.750			
0.8524	54551.86	3.2000	3.2001	-0.1764	26.62	0.82	-0.750			
0.8529	54585.60	3.1970	3.1969	-0.1750	26.63	0.83	-0.750			
0.8534	54619.07	3.1940	3.1940	-0.1733	26.63	0.83	-0.750			
0.8539	54652.26	3.1910	3.1911	-0.1715	26.64	0.84	-0.750			
0.8545	54685.23	3.1880	3.1880	-0.1699	26.64	0.84	-0.750			
0.8550	54717.62	3.1850	3.1850	-0.1676	26.65	0.85	-0.750			
0.8555	54749.56	3.1820	3.1819	-0.1654	26.65	0.85	-0.750			
0.8560	54780.81	3.1790	3.1791	-0.1636	26.65	0.85	-0.750			
0.8564	54812.01	3.1760	3.1760	-0.1623	26.66	0.86	-0.750			
0.8569	54843.05	3.1730	3.1730	-0.1610	26.66	0.86	-0.750			
0.8574	54874.00	3.1700	3.1699	-0.1582	26.67	0.87	-0.750			
0.8579	54903.98	3.1670	3.1670	-0.1572	26.67	0.87	-0.750			
0.8583	54934.00	3.1640	3.1641	-0.1559	26.68	0.88	-0.750			
0.8588	54963.80	3.1610	3.1610	-0.1546	26.68	0.88	-0.750			
0.8593	54993.29	3.1580	3.1578	-0.1532	26.68	0.88	-0.750			
0.8597	55022.58	3.1550	3.1550	-0.1511	26.69	0.89	-0.750			
0.8602	55051.55	3.1520	3.1521	-0.1498	26.69	0.89	-0.750			
0.8606	55080.08	3.1490	3.1490	-0.1488	26.69	0.89	-0.750			
0.8611	55108.84	3.1460	3.1460	-0.1482	26.70	0.90	-0.750			
0.8615	55136.67	3.1430	3.1430	-0.1460	26.70	0.90	-0.750			
0.8619	55164.60	3.1400	3.1399	-0.1452	26.71	0.91	-0.750			
0.8624	55192.56	3.1370	3.1369	-0.1435	26.72	0.92	-0.750			
0.8628	55219.93	3.1340	3.1341	-0.1429	26.72	0.92	-0.750			
0.8632	55247.40	3.1310	3.1310	-0.1421	26.73	0.93	-0.750			
0.8637	55274.55	3.1280	3.1279	-0.1408	26.73	0.93	-0.750			
0.8641	55301.25	3.1250	3.1249	-0.1392	26.74	0.94	-0.750			
0.8645	55327.79	3.1220	3.1221	-0.1383	26.75	0.95	-0.750			
0.8649	55354.42	3.1190	3.1190	-0.1373	26.75	0.95	-0.750			
0.8653	55380.68	3.1160	3.1160	-0.1361	26.76	0.96	-0.750			
0.8657	55406.94	3.1130	3.1129	-0.1349	26.76	0.96	-0.750			
0.8661	55432.32	3.1100	3.1101	-0.1335	26.77	0.97	-0.750			
0.8665	55457.83	3.1070	3.1070	-0.1329	26.77	0.97	-0.750			
0.8669	55483.29	3.1040	3.1040	-0.1323	26.78	0.98	-0.750			
0.8673	55508.72	3.1010	3.1009	-0.1311	26.79	0.99	-0.750			
0.8677	55533.73	3.0980	3.0980	-0.1300	26.79	0.99	-0.750			
0.8681	55558.77	3.0950	3.0950	-0.1295	26.80	1.00	-0.750			
0.8685	55583.44	3.0920	3.0921	-0.1285	26.80	1.00	-0.750			
0.8689	55608.07	3.0890	3.0889	-0.1275	26.81	1.01	-0.750			
0.8693	55632.26	3.0860	3.0860	-0.1260	26.81	1.01	-0.750			
0.8696	55656.38	3.0830	3.0831	-0.1252	26.82	1.02	-0.750			
0.8700	55680.39	3.0800	3.0800	-0.1240	26.82	1.02	-0.750			
0.8704	55704.38	3.0770	3.0770	-0.1232	26.83	1.03	-0.750			
0.8707	55727.63	3.0740	3.0741	-0.1229	26.84	1.04	-0.750			
0.8711	55750.94	3.0710	3.0709	-0.1220	26.84	1.04	-0.750			
0.8715	55774.35	3.0680	3.0680	-0.1214	26.85	1.05	-0.750			
0.8718	55797.45	3.0650	3.0649	-0.1208	26.85	1.05	-0.750			
0.8722	55820.70	3.0620	3.0621	-0.1200	26.86	1.06	-0.750			
0.8726	55843.81	3.0590	3.0590	-0.1195	26.86	1.06	-0.750			
0.8729	55866.68	3.0560	3.0561	-0.1186	26.87	1.07	-0.750			
0.8733	55889.65	3.0530	3.0528	-0.1179	26.87	1.07	-0.750			
0.8736	55911.99	3.0500	3.0500	-0.1164	26.88	1.08	-0.750			
0.8740	55934.24	3.0470	3.0469	-0.1154	26.88	1.08	-0.750			
0.8743	55956.32	3.0440	3.0440	-0.1148	26.89	1.09	-0.750			
0.8747	55978.27	3.0410	3.0411	-0.1139	26.89	1.09	-0.750			
0.8750	56000.00	3.0380	3.0379	-0.1132	26.90	1.10	-0.750			
0.8753	56021.66	3.0350	3.0350	-0.1125	26.90	1.10	-0.750			
0.8757	56042.93	3.0320	3.0320	-0.1122	26.91	1.11	-0.750			
0.8760	56064.48	3.0290	3.0291	-0.1122	26.91	1.11	-0.750			
0.8763	56086.27	3.0260	3.0259	-0.1113	26.92	1.12	-0.750			
0.8767	56107.57	3.0230	3.0230	-0.1105	26.92	1.12	-0.750			
0.8770	56128.91	3.0200	3.0201	-0.1096	26.93	1.13	-0.750			
0.8773	56149.84	3.0170	3.0171	-0.1084	26.93	1.13	-0.750			
0.8777	56170.66	3.0140	3.0139	-0.1074	26.94	1.14	-0.750			
0.8780	56191.15	3.0110	3.0111	-0.1059	26.94	1.14	-0.750			
0.8783	56211.03	3.0080	3.0080	-0.1048	26.95	1.15	-0.751			
0.8786	56231.08	3.0050	3.0050	-0.1041	26.95	1.15	-0.751			
0.8789	56251.00	3.0020	3.0020	-0.1029	26.96	1.16	-0.751			
