Ah_balance (normalized)	Ah_balance (mAh)	Voltage - fit (V)	Voltage -  interpolate (V)	dQ/dV (1/V)	Temperature (°C)	Temperature - diff (°C)	Current (C)	R_DC 0ms (mOhm)	R_DC 50ms (mOhm)	R_DC 50 ms PEC (mOhm)
0.0002	11.37	4.1550	4.1557	-0.1869	25.15	0.00	-0.750			
0.0007	46.72	4.1520	4.1524	-0.1927	25.15	0.00	-0.750			
0.0013	84.94	4.1490	4.1491	-0.2136	25.15	0.00	-0.750			
0.0020	127.72	4.1460	4.1459	-0.2382	25.15	0.00	-0.750			
0.0027	175.63	4.1430	4.1430	-0.2648	25.15	0.00	-0.750			
0.0036	227.88	4.1400	4.1400	-0.2916	25.15	-0.00	-0.750			
0.0045	286.85	4.1370	4.1370	-0.3222	25.15	-0.00	-0.750			
0.0055	351.71	4.1340	4.1340	-0.3520	25.15	-0.00	-0.750			
0.0066	422.40	4.1310	4.1310	-0.3795	25.15	-0.00	-0.750			
0.0078	499.23	4.1280	4.1280	-0.4067	25.15	-0.00	-0.750			
0.0091	580.20	4.1250	4.1251	-0.4325	25.15	-0.00	-0.750			
0.0104	665.56	4.1220	4.1220	-0.4566	25.14	-0.01	-0.750			
0.0118	755.92	4.1190	4.1190	-0.4762	25.14	-0.01	-0.750			
0.0133	849.24	4.1160	4.1160	-0.4973	25.14	-0.01	-0.750			
0.0148	947.28	4.1130	4.1131	-0.5146	25.14	-0.01	-0.750			
0.0164	1048.86	4.1100	4.1099	-0.5334	25.14	-0.01	-0.750			
0.0180	1152.94	4.1070	4.1070	-0.5463	25.14	-0.01	-0.750			
0.0197	1259.51	4.1040	4.1040	-0.5577	25.14	-0.01	-0.750			
0.0214	1367.07	4.1010	4.1010	-0.5729	25.14	-0.01	-0.750			
0.0231	1479.53	4.0980	4.0979	-0.5834	25.13	-0.02	-0.750			
0.0249	1592.16	4.0950	4.0950	-0.5932	25.13	-0.02	-0.750			
0.0267	1707.74	4.0920	4.0920	-0.6027	25.13	-0.02	-0.750			
0.0285	1824.75	4.0890	4.0891	-0.6106	25.13	-0.02	-0.750			
0.0304	1943.33	4.0860	4.0860	-0.6169	25.13	-0.02	-0.750			
0.0322	2062.07	4.0830	4.0830	-0.6233	25.13	-0.02	-0.750			
0.0341	2180.68	4.0800	4.0801	-0.6314	25.13	-0.02	-0.750			
0.0360	2304.92	4.0770	4.0769	-0.6399	25.14	-0.01	-0.750			
0.0379	2428.42	4.0740	4.0739	-0.6444	25.14	-0.01	-0.750			
0.0399	2553.87	4.0710	4.0711	-0.6470	25.14	-0.01	-0.750			
0.0418	2678.26	4.0680	4.0680	-0.6512	25.14	-0.01	-0.750			
0.0438	2803.05	4.0650	4.0649	-0.6537	25.14	-0.01	-0.750			
0.0457	2927.56	4.0620	4.0621	-0.6576	25.14	-0.01	-0.750			
0.0477	3052.30	4.0590	4.0589	-0.6598	25.14	-0.01	-0.750			
0.0497	3181.99	4.0560	4.0560	-0.6695	25.14	-0.01	-0.750			
0.0517	3311.12	4.0530	4.0530	-0.6720	25.14	-0.01	-0.750			
0.0538	3442.19	4.0500	4.0499	-0.6764	25.14	-0.01	-0.750			
0.0558	3571.11	4.0470	4.0471	-0.6776	25.14	-0.01	-0.750			
0.0578	3699.93	4.0440	4.0441	-0.6809	25.14	-0.01	-0.750			
0.0599	3831.21	4.0410	4.0410	-0.6845	25.15	-0.00	-0.750			
0.0619	3963.09	4.0380	4.0380	-0.6889	25.15	-0.00	-0.750			
0.0640	4096.07	4.0350	4.0350	-0.6920	25.15	-0.00	-0.750			
0.0661	4229.54	4.0320	4.0321	-0.6924	25.15	0.00	-0.750			
0.0682	4363.71	4.0290	4.0290	-0.6950	25.16	0.01	-0.750			
0.0702	4495.39	4.0260	4.0260	-0.6980	25.17	0.02	-0.750			
0.0723	4629.78	4.0230	4.0229	-0.6964	25.18	0.03	-0.750			
0.0744	4763.95	4.0200	4.0200	-0.7020	25.19	0.04	-0.750			
0.0765	4899.05	4.0170	4.0170	-0.7043	25.19	0.04	-0.750			
0.0787	5035.38	4.0140	4.0141	-0.7062	25.20	0.05	-0.750			
0.0808	5170.88	4.0110	4.0109	-0.7080	25.20	0.05	-0.750			
0.0829	5305.66	4.0080	4.0080	-0.7112	25.20	0.05	-0.750			
0.0851	5443.26	4.0050	4.0050	-0.7072	25.20	0.05	-0.750			
0.0872	5580.16	4.0020	4.0019	-0.7091	25.20	0.05	-0.750			
0.0893	5714.62	3.9990	3.9991	-0.7113	25.20	0.05	-0.750			
0.0914	5852.23	3.9960	3.9960	-0.7132	25.20	0.05	-0.750			
0.0936	5988.25	3.9930	3.9929	-0.7183	25.21	0.06	-0.750			
0.0957	6126.08	3.9900	3.9900	-0.7245	25.22	0.07	-0.750			
0.0979	6265.61	3.9870	3.9871	-0.7295	25.22	0.07	-0.750			
0.1001	6408.91	3.9840	3.9839	-0.7341	25.23	0.08	-0.750			
0.1023	6550.23	3.9810	3.9811	-0.7339	25.24	0.09	-0.750			
0.1046	6691.44	3.9780	3.9780	-0.7295	25.24	0.09	-0.750			
0.1067	6831.75	3.9750	3.9749	-0.7323	25.25	0.10	-0.750			
0.1089	6970.44	3.9720	3.9720	-0.7365	25.25	0.10	-0.750			
0.1111	7111.77	3.9690	3.9689	-0.7345	25.25	0.10	-0.750			
0.1134	7255.24	3.9660	3.9658	-0.7370	25.26	0.11	-0.750			
0.1156	7396.73	3.9630	3.9633	-0.7403	25.26	0.11	-0.750			
0.1178	7539.71	3.9600	3.9599	-0.7389	25.26	0.11	-0.750			
0.1200	7680.99	3.9570	3.9569	-0.7416	25.27	0.12	-0.750			
0.1222	7820.71	3.9540	3.9541	-0.7358	25.27	0.12	-0.750			
0.1244	7963.32	3.9510	3.9510	-0.7445	25.27	0.12	-0.750			
0.1267	8106.16	3.9480	3.9480	-0.7515	25.28	0.13	-0.750			
0.1289	8250.80	3.9450	3.9449	-0.7553	25.28	0.13	-0.750			
0.1312	8395.53	3.9420	3.9420	-0.7577	25.29	0.14	-0.750			
0.1335	8543.81	3.9390	3.9390	-0.7626	25.29	0.14	-0.750			
0.1358	8690.88	3.9360	3.9360	-0.7622	25.29	0.14	-0.750			
0.1381	8838.17	3.9330	3.9329	-0.7630	25.30	0.15	-0.750			
0.1404	8982.66	3.9300	3.9301	-0.7595	25.30	0.15	-0.750			
0.1426	9127.90	3.9270	3.9270	-0.7588	25.30	0.15	-0.750			
0.1449	9272.95	3.9240	3.9239	-0.7644	25.31	0.16	-0.750			
0.1472	9420.27	3.9210	3.9210	-0.7641	25.31	0.16	-0.750			
0.1495	9567.65	3.9180	3.9180	-0.7666	25.31	0.16	-0.750			
0.1518	9714.41	3.9150	3.9150	-0.7680	25.32	0.17	-0.750			
0.1541	9862.81	3.9120	3.9120	-0.7684	25.32	0.17	-0.750			
0.1564	10009.95	3.9090	3.9090	-0.7707	25.33	0.18	-0.750			
0.1587	10157.54	3.9060	3.9060	-0.7708	25.33	0.18	-0.750			
0.1610	10305.96	3.9030	3.9030	-0.7698	25.33	0.18	-0.750			
0.1634	10454.95	3.9000	3.9000	-0.7744	25.34	0.19	-0.750			
0.1657	10603.67	3.8970	3.8972	-0.7737	25.34	0.19	-0.750			
0.1680	10751.49	3.8940	3.8941	-0.7753	25.34	0.19	-0.750			
0.1703	10901.58	3.8910	3.8909	-0.7747	25.35	0.20	-0.750			
0.1727	11050.16	3.8880	3.8880	-0.7712	25.35	0.20	-0.750			
0.1750	11197.46	3.8850	3.8850	-0.7734	25.36	0.21	-0.750			
0.1773	11345.53	3.8820	3.8821	-0.7748	25.36	0.21	-0.750			
0.1796	11493.70	3.8790	3.8789	-0.7784	25.36	0.21	-0.750			
0.1819	11643.54	3.8760	3.8759	-0.7862	25.37	0.22	-0.750			
0.1843	11794.81	3.8730	3.8730	-0.7864	25.37	0.22	-0.750			
0.1867	11947.94	3.8700	3.8701	-0.7906	25.37	0.22	-0.750			
0.1891	12102.78	3.8670	3.8669	-0.7894	25.38	0.23	-0.750			
0.1915	12253.34	3.8640	3.8640	-0.7828	25.38	0.23	-0.750			
0.1938	12401.47	3.8610	3.8611	-0.7795	25.39	0.24	-0.750			
0.1961	12549.58	3.8580	3.8580	-0.7775	25.39	0.24	-0.750			
0.1984	12698.80	3.8550	3.8549	-0.7752	25.39	0.24	-0.750			
0.2008	12848.51	3.8520	3.8520	-0.7771	25.40	0.25	-0.750			
0.2031	12998.13	3.8490	3.8492	-0.7773	25.40	0.25	-0.750			
0.2054	13147.57	3.8460	3.8459	-0.7779	25.40	0.25	-0.750			
0.2078	13297.60	3.8430	3.8430	-0.7745	25.40	0.25	-0.750			
0.2101	13445.54	3.8400	3.8400	-0.7725	25.41	0.26	-0.750			
0.2124	13593.53	3.8370	3.8369	-0.7692	25.41	0.26	-0.750			
0.2147	13741.32	3.8340	3.8339	-0.7673	25.41	0.26	-0.750			
0.2170	13888.05	3.8310	3.8309	-0.7621	25.41	0.26	-0.750			
0.2193	14033.03	3.8280	3.8280	-0.7607	25.42	0.27	-0.750			
0.2215	14178.93	3.8250	3.8251	-0.7584	25.42	0.27	-0.750			
0.2238	14325.11	3.8220	3.8220	-0.7574	25.43	0.28	-0.750			
0.2261	14470.19	3.8190	3.8189	-0.7544	25.44	0.29	-0.750			
0.2284	14615.74	3.8160	3.8162	-0.7509	25.44	0.29	-0.750			
0.2306	14759.34	3.8130	3.8130	-0.7455	25.44	0.29	-0.750			
0.2328	14901.21	3.8100	3.8100	-0.7449	25.44	0.29	-0.750			
0.2351	15045.18	3.8070	3.8069	-0.7370	25.45	0.30	-0.750			
0.2373	15185.90	3.8040	3.8040	-0.7303	25.45	0.30	-0.750			
0.2395	15325.13	3.8010	3.8009	-0.7272	25.45	0.30	-0.750			
0.2416	15464.47	3.7980	3.7980	-0.7233	25.45	0.30	-0.750			
0.2438	15603.19	3.7950	3.7949	-0.7201	25.45	0.30	-0.750			
0.2459	15739.90	3.7920	3.7921	-0.7169	25.45	0.30	-0.750			
0.2481	15876.31	3.7890	3.7890	-0.7120	25.46	0.31	-0.750			
0.2502	16015.24	3.7860	3.7860	-0.7124	25.46	0.31	-0.750			
0.2524	16151.47	3.7830	3.7831	-0.7079	25.46	0.31	-0.750			
0.2545	16286.07	3.7800	3.7800	-0.7059	25.46	0.31	-0.750			
0.2566	16420.95	3.7770	3.7769	-0.7063	25.47	0.32	-0.750			
0.2587	16556.44	3.7740	3.7740	-0.7110	25.47	0.32	-0.750			
0.2608	16692.64	3.7710	3.7710	-0.7130	25.47	0.32	-0.750			
0.2630	16832.12	3.7680	3.7679	-0.7151	25.48	0.33	-0.750			
0.2652	16970.09	3.7650	3.7652	-0.7144	25.48	0.33	-0.750			
0.2673	17105.89	3.7620	3.7620	-0.7149	25.48	0.33	-0.750			
0.2694	17241.95	3.7590	3.7590	-0.7178	25.49	0.34	-0.750			
0.2715	17378.27	3.7560	3.7560	-0.7202	25.49	0.34	-0.750			
0.2737	17516.65	3.7530	3.7529	-0.7283	25.49	0.34	-0.750			
0.2759	17658.90	3.7500	3.7501	-0.7395	25.50	0.35	-0.750			
0.2782	17802.97	3.7470	3.7470	-0.7464	25.50	0.35	-0.750			
0.2804	17947.36	3.7440	3.7439	-0.7545	25.50	0.35	-0.750			
0.2827	18092.09	3.7410	3.7410	-0.7652	25.50	0.35	-0.750			
0.2850	18238.49	3.7380	3.7380	-0.7726	25.50	0.35	-0.750			
0.2873	18388.81	3.7350	3.7348	-0.7842	25.50	0.35	-0.750			
0.2897	18539.65	3.7320	3.7320	-0.7935	25.50	0.35	-0.750			
0.2921	18692.93	3.7290	3.7290	-0.8050	25.50	0.35	-0.750			
0.2945	18848.37	3.7260	3.7260	-0.8194	25.50	0.35	-0.750			
0.2970	19007.10	3.7230	3.7229	-0.8283	25.50	0.35	-0.750			
0.2995	19166.80	3.7200	3.7200	-0.8387	25.50	0.35	-0.750			
0.3020	19329.73	3.7170	3.7170	-0.8536	25.50	0.35	-0.750			
0.3046	19494.64	3.7140	3.7140	-0.8658	25.50	0.35	-0.750			
0.3072	19661.58	3.7110	3.7109	-0.8815	25.50	0.35	-0.750			
0.3099	19831.98	3.7080	3.7080	-0.8970	25.50	0.35	-0.750			
0.3126	20004.71	3.7050	3.7050	-0.9110	25.50	0.35	-0.750			
0.3154	20184.08	3.7020	3.7020	-0.9288	25.50	0.35	-0.750			
0.3182	20362.34	3.6990	3.6990	-0.9469	25.50	0.35	-0.750			
0.3210	20546.06	3.6960	3.6960	-0.9584	25.49	0.34	-0.750			
0.3239	20731.54	3.6930	3.6929	-0.9709	25.49	0.34	-0.750			
0.3269	20918.91	3.6900	3.6900	-0.9869	25.48	0.33	-0.750			
0.3298	21109.16	3.6870	3.6871	-1.0075	25.48	0.33	-0.750			
0.3329	21303.97	3.6840	3.6839	-1.0267	25.47	0.32	-0.750			
0.3360	21503.31	3.6810	3.6809	-1.0455	25.47	0.32	-0.750			
0.3391	21704.04	3.6780	3.6780	-1.0597	25.46	0.31	-0.750			
0.3424	21914.36	3.6750	3.6749	-1.0832	25.46	0.31	-0.750			
0.3457	22122.54	3.6720	3.6720	-1.0960	25.46	0.31	-0.750			
0.3489	22332.52	3.6690	3.6690	-1.1051	25.45	0.30	-0.750			
0.3523	22544.01	3.6660	3.6660	-1.1225	25.45	0.30	-0.750			
0.3556	22761.32	3.6630	3.6630	-1.1498	25.44	0.29	-0.750			
0.3591	22985.37	3.6600	3.6599	-1.1712	25.44	0.29	-0.750			
0.3627	23213.53	3.6570	3.6569	-1.1936	25.43	0.28	-0.750			
0.3663	23445.73	3.6540	3.6541	-1.2163	25.42	0.27	-0.750			
0.3700	23682.08	3.6510	3.6509	-1.2342	25.41	0.26	-0.750			
0.3738	23921.68	3.6480	3.6480	-1.2526	25.41	0.26	-0.750			
0.3775	24159.62	3.6450	3.6449	-1.2713	25.40	0.25	-0.750			
0.3814	24408.09	3.6420	3.6419	-1.2916	25.40	0.25	-0.750			
0.3853	24657.24	3.6390	3.6390	-1.3128	25.39	0.24	-0.750			
0.3892	24910.03	3.6360	3.6361	-1.3375	25.39	0.24	-0.750			
0.3933	25170.07	3.6330	3.6331	-1.3641	25.38	0.23	-0.750			
0.3974	25433.49	3.6300	3.6299	-1.3944	25.37	0.22	-0.750			
0.4016	25704.71	3.6270	3.6270	-1.4228	25.36	0.21	-0.750			
0.4060	25981.70	3.6240	3.6239	-1.4508	25.36	0.21	-0.750			
0.4104	26267.96	3.6210	3.6210	-1.4828	25.35	0.20	-0.750			
0.4149	26553.86	3.6180	3.6181	-1.5000	25.34	0.19	-0.750			
0.4194	26841.86	3.6150	3.6150	-1.5201	25.34	0.19	-0.750			
0.4240	27135.28	3.6120	3.6120	-1.5502	25.33	0.18	-0.750	0.387	0.569	
0.4286	27431.68	3.6090	3.6091	-1.5825	25.33	0.18	-0.750			
0.4334	27738.85	3.6060	3.6060	-1.6154	25.33	0.18	-0.750			
0.4384	28054.67	3.6030	3.6030	-1.6571	25.32	0.17	-0.750			
0.4435	28382.25	3.6000	3.5998	-1.6887	25.32	0.17	-0.750			
0.4486	28708.01	3.5970	3.5969	-1.7303	25.31	0.16	-0.750			
0.4538	29043.95	3.5940	3.5941	-1.7602	25.30	0.15	-0.750			
0.4591	29383.96	3.5910	3.5910	-1.7869	25.30	0.15	-0.750			
0.4646	29733.76	3.5880	3.5881	-1.8189	25.29	0.14	-0.750			
0.4701	30086.17	3.5850	3.5851	-1.8624	25.29	0.14	-0.750			
0.4758	30449.60	3.5820	3.5818	-1.8990	25.28	0.13	-0.750			
0.4815	30816.47	3.5790	3.5791	-1.9337	25.28	0.13	-0.750			
0.4873	31187.06	3.5760	3.5762	-1.9579	25.27	0.12	-0.750			
0.4933	31568.22	3.5730	3.5731	-1.9864	25.27	0.12	-0.750			
0.4993	31954.18	3.5700	3.5700	-2.0161	25.27	0.12	-0.750			
0.5054	32346.67	3.5670	3.5670	-2.0414	25.27	0.12	-0.750			
0.5115	32739.07	3.5640	3.5640	-2.0532	25.26	0.11	-0.750			
0.5178	33139.48	3.5610	3.5610	-2.0659	25.26	0.11	-0.750			
0.5240	33535.15	3.5580	3.5580	-2.0669	25.27	0.12	-0.750			
0.5302	33932.81	3.5550	3.5549	-2.0690	25.27	0.12	-0.750			
0.5364	34332.72	3.5520	3.5521	-2.0671	25.28	0.13	-0.750			
0.5426	34727.37	3.5490	3.5490	-2.0667	25.28	0.13	-0.750			
0.5488	35124.20	3.5460	3.5460	-2.0636	25.28	0.13	-0.750			
0.5550	35519.45	3.5430	3.5431	-2.0522	25.28	0.13	-0.750			
0.5613	35920.27	3.5400	3.5400	-2.0496	25.28	0.13	-0.750			
0.5673	36309.71	3.5370	3.5370	-2.0191	25.28	0.13	-0.750			
0.5734	36695.37	3.5340	3.5341	-2.0033	25.29	0.14	-0.750			
0.5794	37079.72	3.5310	3.5309	-1.9704	25.29	0.14	-0.750			
0.5852	37452.61	3.5280	3.5280	-1.9493	25.30	0.15	-0.750			
0.5910	37824.03	3.5250	3.5250	-1.9325	25.30	0.15	-0.750			
0.5968	38193.19	3.5220	3.5218	-1.9054	25.31	0.16	-0.750			
0.6026	38563.87	3.5190	3.5190	-1.8615	25.32	0.17	-0.750			
0.6081	38917.10	3.5160	3.5161	-1.8263	25.33	0.18	-0.750			
0.6135	39261.00	3.5130	3.5131	-1.7854	25.34	0.19	-0.750			
0.6188	39600.82	3.5100	3.5098	-1.7460	25.35	0.20	-0.750			
0.6239	39931.67	3.5070	3.5071	-1.6946	25.35	0.20	-0.750			
0.6290	40256.10	3.5040	3.5040	-1.6518	25.36	0.21	-0.750			
0.6340	40574.05	3.5010	3.5009	-1.6125	25.37	0.22	-0.750			
0.6387	40877.16	3.4980	3.4980	-1.5600	25.39	0.24	-0.750			
0.6433	41168.52	3.4950	3.4949	-1.5077	25.40	0.25	-0.750			
0.6477	41452.32	3.4920	3.4919	-1.4618	25.41	0.26	-0.750			
0.6520	41727.48	3.4890	3.4890	-1.4223	25.42	0.27	-0.750			
0.6563	42002.27	3.4860	3.4860	-1.3971	25.43	0.28	-0.750			
0.6604	42266.87	3.4830	3.4830	-1.3509	25.44	0.29	-0.750			
0.6644	42519.95	3.4800	3.4800	-1.3081	25.46	0.31	-0.750			
0.6682	42766.28	3.4770	3.4770	-1.2613	25.47	0.32	-0.750			
0.6720	43004.88	3.4740	3.4740	-1.2194	25.49	0.34	-0.750			
0.6755	43233.67	3.4710	3.4709	-1.1826	25.51	0.36	-0.750			
0.6790	43454.78	3.4680	3.4682	-1.1448	25.52	0.37	-0.750			
0.6824	43674.53	3.4650	3.4649	-1.1095	25.53	0.38	-0.750			
0.6857	43883.70	3.4620	3.4620	-1.0715	25.54	0.39	-0.750			
0.6888	44084.48	3.4590	3.4591	-1.0322	25.55	0.40	-0.750			
0.6919	44280.71	3.4560	3.4560	-1.0010	25.57	0.42	-0.750			
0.6948	44467.81	3.4530	3.4529	-0.9750	25.58	0.43	-0.750			
0.6977	44651.34	3.4500	3.4499	-0.9456	25.59	0.44	-0.750			
0.7005	44830.22	3.4470	3.4469	-0.9203	25.61	0.46	-0.750			
0.7032	45005.27	3.4440	3.4442	-0.9006	25.62	0.47	-0.750			
0.7059	45175.28	3.4410	3.4410	-0.8820	25.63	0.48	-0.750			
0.7085	45342.08	3.4380	3.4380	-0.8719	25.64	0.49	-0.750			
0.7110	45505.39	3.4350	3.4349	-0.8598	25.65	0.50	-0.750			
0.7136	45669.56	3.4320	3.4320	-0.8559	25.66	0.51	-0.750			
0.7162	45833.71	3.4290	3.4291	-0.8559	25.67	0.52	-0.750			
0.7187	45997.34	3.4260	3.4260	-0.8594	25.68	0.53	-0.750			
0.7213	46161.54	3.4230	3.4230	-0.8626	25.68	0.53	-0.750			
0.7238	46325.40	3.4200	3.4200	-0.8635	25.69	0.54	-0.750			
0.7265	46494.42	3.4170	3.4169	-0.8713	25.70	0.55	-0.750			
0.7291	46662.62	3.4140	3.4140	-0.8733	25.70	0.55	-0.750			
0.7317	46831.26	3.4110	3.4110	-0.8773	25.72	0.57	-0.750			
0.7344	46999.64	3.4080	3.4080	-0.8763	25.73	0.58	-0.750			
0.7370	47167.57	3.4050	3.4050	-0.8684	25.74	0.59	-0.750			
0.7396	47335.69	3.4020	3.4021	-0.8670	25.75	0.60	-0.750			
0.7422	47503.69	3.3990	3.3989	-0.8550	25.75	0.60	-0.750			
0.7448	47667.58	3.3960	3.3959	-0.8429	25.76	0.61	-0.750			
0.7473	47828.70	3.3930	3.3930	-0.8251	25.77	0.62	-0.750			
0.7498	47984.95	3.3900	3.3899	-0.8039	25.77	0.62	-0.750			
0.7522	48139.07	3.3870	3.3870	-0.7839	25.78	0.63	-0.750			
0.7545	48287.74	3.3840	3.3839	-0.7620	25.78	0.63	-0.750			
0.7567	48430.98	3.3810	3.3810	-0.7388	25.79	0.64	-0.750			
0.7589	48571.41	3.3780	3.3780	-0.7194	25.79	0.64	-0.750			
0.7610	48705.41	3.3750	3.3750	-0.6944	25.80	0.65	-0.750			
0.7631	48838.66	3.3720	3.3719	-0.6740	25.80	0.65	-0.750			
0.7651	48965.59	3.3690	3.3692	-0.6521	25.81	0.66	-0.750			
0.7670	49088.96	3.3660	3.3659	-0.6323	25.82	0.67	-0.750			
0.7689	49207.38	3.3630	3.3629	-0.6123	25.82	0.67	-0.750			
0.7707	49322.23	3.3600	3.3600	-0.5917	25.83	0.68	-0.750			
0.7724	49434.10	3.3570	3.3570	-0.5750	25.83	0.68	-0.750			
0.7741	49544.52	3.3540	3.3540	-0.5592	25.84	0.69	-0.750			
0.7758	49650.56	3.3510	3.3510	-0.5397	25.84	0.69	-0.750			
0.7774	49751.38	3.3480	3.3480	-0.5223	25.85	0.70	-0.750			
0.7789	49849.59	3.3450	3.3450	-0.5074	25.85	0.70	-0.750			
0.7804	49944.23	3.3420	3.3419	-0.4915	25.86	0.71	-0.750			
0.7818	50037.53	3.3390	3.3389	-0.4784	25.87	0.72	-0.750			
0.7832	50127.85	3.3360	3.3361	-0.4653	25.88	0.73	-0.750			
0.7846	50217.09	3.3330	3.3330	-0.4551	25.88	0.73	-0.750			
0.7860	50302.70	3.3300	3.3300	-0.4455	25.89	0.74	-0.750			
0.7873	50387.09	3.3270	3.3269	-0.4299	25.90	0.75	-0.750			
0.7886	50468.25	3.3240	3.3240	-0.4160	25.90	0.75	-0.750			
0.7898	50547.03	3.3210	3.3209	-0.4054	25.91	0.76	-0.750			
0.7910	50623.71	3.3180	3.3179	-0.3946	25.91	0.76	-0.750			
0.7922	50697.79	3.3150	3.3149	-0.3838	25.92	0.77	-0.750			
0.7933	50769.59	3.3120	3.3120	-0.3740	25.92	0.77	-0.750			
0.7944	50839.73	3.3090	3.3091	-0.3635	25.93	0.78	-0.750			
0.7955	50910.37	3.3060	3.3060	-0.3587	25.93	0.78	-0.750			
0.7965	50978.36	3.3030	3.3030	-0.3496	25.94	0.79	-0.750			
0.7976	51044.21	3.3000	3.2999	-0.3405	25.94	0.79	-0.750			
0.7986	51108.78	3.2970	3.2971	-0.3320	25.95	0.80	-0.750			
0.7996	51171.83	3.2940	3.2940	-0.3244	25.95	0.80	-0.750			
0.8005	51233.02	3.2910	3.2910	-0.3172	25.96	0.81	-0.750			
0.8015	51293.36	3.2880	3.2880	-0.3107	25.96	0.81	-0.750			
0.8024	51351.81	3.2850	3.2850	-0.3035	25.97	0.82	-0.750			
0.8033	51409.46	3.2820	3.2820	-0.2982	25.97	0.82	-0.750			
0.8042	51465.97	3.2790	3.2790	-0.2930	25.98	0.83	-0.750			
0.8050	51521.89	3.2760	3.2760	-0.2879	25.98	0.83	-0.750			
0.8059	51576.64	3.2730	3.2729	-0.2818	25.99	0.84	-0.750			
0.8067	51630.20	3.2700	3.2701	-0.2761	25.99	0.84	-0.750			
0.8075	51682.76	3.2670	3.2670	-0.2709	26.00	0.85	-0.750			
0.8083	51734.07	3.2640	3.2640	-0.2660	26.00	0.85	-0.750			
0.8091	51784.28	3.2610	3.2610	-0.2607	26.01	0.86	-0.750			
0.8099	51833.86	3.2580	3.2580	-0.2565	26.01	0.86	-0.750			
0.8107	51883.02	3.2550	3.2549	-0.2531	26.02	0.87	-0.750			
0.8114	51931.42	3.2520	3.2520	-0.2493	26.02	0.87	-0.750			
0.8122	51978.80	3.2490	3.2490	-0.2452	26.03	0.88	-0.750			
0.8129	52025.38	3.2460	3.2460	-0.2412	26.03	0.88	-0.750			
0.8136	52071.23	3.2430	3.2431	-0.2374	26.04	0.89	-0.750			
0.8143	52116.16	3.2400	3.2399	-0.2339	26.04	0.89	-0.750			
0.8150	52160.65	3.2370	3.2370	-0.2306	26.05	0.90	-0.750			
0.8157	52204.60	3.2340	3.2340	-0.2275	26.05	0.90	-0.750			
0.8164	52247.95	3.2310	3.2310	-0.2247	26.06	0.91	-0.750			
0.8170	52290.88	3.2280	3.2280	-0.2217	26.06	0.91	-0.750			
0.8177	52333.18	3.2250	3.2250	-0.2187	26.07	0.92	-0.750			
0.8184	52374.88	3.2220	3.2220	-0.2158	26.07	0.92	-0.750			
0.8190	52416.23	3.2190	3.2190	-0.2125	26.08	0.93	-0.750			
0.8196	52456.41	3.2160	3.2161	-0.2095	26.08	0.93	-0.750			
0.8203	52496.37	3.2130	3.2130	-0.2068	26.08	0.93	-0.750			
0.8209	52535.84	3.2100	3.2100	-0.2037	26.09	0.94	-0.750			
0.8215	52574.37	3.2070	3.2070	-0.2012	26.09	0.94	-0.750			
0.8221	52612.63	3.2040	3.2040	-0.1991	26.10	0.95	-0.750			
0.8227	52650.68	3.2010	3.2010	-0.1973	26.10	0.95	-0.750			
0.8233	52688.28	3.1980	3.1979	-0.1954	26.11	0.96	-0.750			
0.8238	52725.77	3.1950	3.1950	-0.1939	26.11	0.96	-0.750			
0.8244	52762.62	3.1920	3.1921	-0.1918	26.11	0.96	-0.750			
0.8250	52799.44	3.1890	3.1889	-0.1895	26.12	0.97	-0.750			
0.8256	52836.01	3.1860	3.1860	-0.1875	26.12	0.97	-0.750			
0.8261	52871.69	3.1830	3.1831	-0.1847	26.13	0.98	-0.750			
0.8267	52906.73	3.1800	3.1800	-0.1823	26.13	0.98	-0.750			
0.8272	52941.52	3.1770	3.1770	-0.1801	26.14	0.99	-0.750			
0.8277	52975.70	3.1740	3.1740	-0.1782	26.14	0.99	-0.750			
0.8283	53009.53	3.1710	3.1710	-0.1763	26.14	0.99	-0.750			
0.8288	53043.50	3.1680	3.1680	-0.1743	26.15	1.00	-0.750			
0.8293	53076.93	3.1650	3.1650	-0.1726	26.16	1.01	-0.750			
0.8298	53109.87	3.1620	3.1620	-0.1712	26.16	1.01	-0.750			
0.8304	53142.54	3.1590	3.1591	-0.1698	26.17	1.02	-0.750			
0.8309	53174.88	3.1560	3.1560	-0.1678	26.17	1.02	-0.750			
0.8314	53206.97	3.1530	3.1529	-0.1664	26.18	1.03	-0.750			
0.8319	53238.69	3.1500	3.1500	-0.1647	26.19	1.04	-0.750			
0.8323	53270.14	3.1470	3.1470	-0.1634	26.19	1.04	-0.750			
0.8328	53301.65	3.1440	3.1440	-0.1626	26.20	1.05	-0.750			
0.8333	53332.69	3.1410	3.1410	-0.1607	26.20	1.05	-0.750			
0.8338	53363.18	3.1380	3.1380	-0.1588	26.21	1.06	-0.750			
0.8343	53393.32	3.1350	3.1351	-0.1578	26.21	1.06	-0.750			
0.8347	53423.82	3.1320	3.1319	-0.1565	26.22	1.07	-0.750			
0.8352	53453.71	3.1290	3.1291	-0.1549	26.23	1.08	-0.750			
0.8357	53483.25	3.1260	3.1260	-0.1537	26.23	1.08	-0.750			
0.8361	53512.58	3.1230	3.1231	-0.1523	26.24	1.09	-0.750			
0.8366	53541.76	3.1200	3.1200	-0.1512	26.24	1.09	-0.750			
0.8370	53570.65	3.1170	3.1169	-0.1498	26.25	1.10	-0.750			
0.8375	53599.15	3.1140	3.1140	-0.1488	26.25	1.10	-0.750			
0.8379	53627.57	3.1110	3.1110	-0.1471	26.26	1.11	-0.750			
0.8384	53656.06	3.1080	3.1079	-0.1466	26.26	1.11	-0.750			
0.8388	53683.96	3.1050	3.1050	-0.1452	26.26	1.11	-0.750			
0.8392	53711.55	3.1020	3.1021	-0.1437	26.27	1.12	-0.750			
0.8397	53739.08	3.0990	3.0988	-0.1426	26.27	1.12	-0.750			
0.8401	53766.31	3.0960	3.0960	-0.1415	26.28	1.13	-0.750			
0.8405	53793.40	3.0930	3.0930	-0.1399	26.28	1.13	-0.750			
0.8409	53819.98	3.0900	3.0900	-0.1386	26.29	1.14	-0.750			
0.8414	53846.64	3.0870	3.0870	-0.1377	26.29	1.14	-0.750			
0.8418	53872.87	3.0840	3.0840	-0.1366	26.30	1.15	-0.750			
0.8422	53898.86	3.0810	3.0810	-0.1354	26.30	1.15	-0.750			
0.8426	53924.71	3.0780	3.0780	-0.1344	26.31	1.16	-0.750			
0.8430	53950.46	3.0750	3.0751	-0.1335	26.31	1.16	-0.750			
0.8434	53975.92	3.0720	3.0720	-0.1328	26.32	1.17	-0.750			
0.8438	54001.47	3.0690	3.0689	-0.1322	26.33	1.18	-0.750			
0.8442	54026.64	3.0660	3.0661	-0.1314	26.33	1.18	-0.750			
0.8446	54051.89	3.0630	3.0630	-0.1307	26.34	1.19	-0.750			
0.8450	54076.92	3.0600	3.0600	-0.1300	26.34	1.19	-0.750			
0.8453	54101.86	3.0570	3.0570	-0.1289	26.35	1.20	-0.750			
0.8457	54126.66	3.0540	3.0541	-0.1281	26.35	1.20	-0.750			
0.8461	54151.24	3.0510	3.0511	-0.1271	26.36	1.21	-0.750			
0.8465	54175.45	3.0480	3.0479	-0.1258	26.36	1.21	-0.750			
0.8469	54199.43	3.0450	3.0450	-0.1250	26.37	1.22	-0.750			
0.8472	54223.30	3.0420	3.0420	-0.1239	26.37	1.22	-0.750			
0.8476	54247.00	3.0390	3.0390	-0.1231	26.38	1.23	-0.750			
0.8480	54270.52	3.0360	3.0360	-0.1223	26.38	1.23	-0.750			
0.8483	54293.93	3.0330	3.0330	-0.1216	26.39	1.24	-0.750			
0.8487	54317.19	3.0300	3.0300	-0.1208	26.39	1.24	-0.750			
0.8491	54340.32	3.0270	3.0270	-0.1201	26.40	1.25	-0.750			
0.8494	54363.26	3.0240	3.0240	-0.1195	26.40	1.25	-0.750			
0.8498	54386.05	3.0210	3.0210	-0.1187	26.41	1.26	-0.750			
0.8501	54409.04	3.0180	3.0179	-0.1173	26.41	1.26	-0.750			
0.8505	54431.70	3.0150	3.0150	-0.1166	26.41	1.26	-0.750			
0.8508	54453.94	3.0120	3.0120	-0.1151	26.42	1.27	-0.750			
0.8512	54476.11	3.0090	3.0091	-0.1134	26.42	1.27	-0.750			
0.8515	54497.69	3.0060	3.0061	-0.1114	26.43	1.28	-0.750			
0.8519	54518.84	3.0030	3.0030	-0.1064	26.43	1.28	-0.751			
