Ah_balance (normalized)	Ah_balance (mAh)	Voltage - fit (V)	Voltage -  interpolate (V)	dQ/dV (1/V)	Temperature (°C)	Temperature - diff (°C)	Current (C)	R_DC 0ms (mOhm)	R_DC 50ms (mOhm)	R_DC 50 ms PEC (mOhm)
0.0540	3455.05	4.1990	4.1990	0.7204	26.68	0.69	0.750			
0.0562	3597.33	4.1960	4.1960	0.7469	26.68	0.69	0.750			
0.0584	3739.17	4.1930	4.1930	0.7430	26.68	0.69	0.750			
0.0607	3881.85	4.1900	4.1900	0.7447	26.68	0.69	0.750			
0.0629	4025.45	4.1870	4.1870	0.7497	26.68	0.69	0.750			
0.0651	4168.52	4.1840	4.1840	0.7505	26.68	0.69	0.750			
0.0674	4313.34	4.1810	4.1810	0.7496	26.68	0.69	0.750			
0.0696	4456.84	4.1780	4.1780	0.7568	26.68	0.69	0.750			
0.0719	4604.05	4.1750	4.1750	0.7630	26.68	0.69	0.750			
0.0742	4750.01	4.1720	4.1720	0.7627	26.68	0.69	0.750			
0.0765	4897.21	4.1690	4.1688	0.7621	26.68	0.69	0.750			
0.0788	5043.27	4.1660	4.1662	0.7635	26.68	0.69	0.750			
0.0811	5191.78	4.1630	4.1630	0.7598	26.68	0.69	0.750			
0.0834	5336.80	4.1600	4.1600	0.7597	26.68	0.69	0.750			
0.0856	5480.68	4.1570	4.1570	0.7591	26.68	0.69	0.750			
0.0879	5626.61	4.1540	4.1540	0.7605	26.68	0.69	0.750			
0.0902	5772.54	4.1510	4.1510	0.7620	26.68	0.69	0.750			
0.0925	5920.16	4.1480	4.1480	0.7640	26.68	0.69	0.750			
0.0948	6066.40	4.1450	4.1451	0.7628	26.68	0.69	0.750			
0.0971	6213.93	4.1420	4.1420	0.7714	26.68	0.69	0.750			
0.0994	6360.26	4.1390	4.1390	0.7698	26.68	0.69	0.750			
0.1017	6507.66	4.1360	4.1361	0.7709	26.68	0.69	0.750			
0.1040	6657.32	4.1330	4.1330	0.7763	26.68	0.69	0.750			
0.1064	6807.61	4.1300	4.1300	0.7778	26.68	0.69	0.750			
0.1087	6956.78	4.1270	4.1270	0.7811	26.68	0.69	0.750			
0.1110	7106.85	4.1240	4.1240	0.7808	26.68	0.69	0.750			
0.1134	7256.05	4.1210	4.1209	0.7802	26.68	0.69	0.750			
0.1157	7407.26	4.1180	4.1180	0.7798	26.68	0.69	0.750			
0.1181	7558.88	4.1150	4.1150	0.7708	26.68	0.69	0.750			
0.1204	7704.91	4.1120	4.1121	0.7743	26.68	0.69	0.750			
0.1227	7852.42	4.1090	4.1090	0.7746	26.68	0.69	0.750			
0.1250	7998.56	4.1060	4.1060	0.7740	26.68	0.69	0.750			
0.1273	8147.91	4.1030	4.1030	0.7832	26.68	0.69	0.750			
0.1297	8300.23	4.1000	4.1001	0.7876	26.68	0.69	0.750			
0.1321	8454.14	4.0970	4.0970	0.7949	26.68	0.69	0.750			
0.1345	8607.59	4.0940	4.0940	0.7950	26.68	0.69	0.750			
0.1369	8759.06	4.0910	4.0912	0.7923	26.68	0.69	0.750			
0.1392	8911.25	4.0880	4.0879	0.7938	26.68	0.69	0.750			
0.1416	9062.61	4.0850	4.0849	0.8004	26.68	0.69	0.750			
0.1440	9216.07	4.0820	4.0821	0.7986	26.68	0.69	0.750			
0.1464	9369.89	4.0790	4.0789	0.8041	26.68	0.69	0.750			
0.1489	9526.43	4.0760	4.0761	0.8084	26.68	0.69	0.750			
0.1513	9681.50	4.0730	4.0729	0.8129	26.68	0.69	0.750			
0.1537	9836.99	4.0700	4.0700	0.8156	26.68	0.69	0.750			
0.1562	9995.56	4.0670	4.0670	0.8087	26.69	0.70	0.750			
0.1586	10149.04	4.0640	4.0639	0.8081	26.69	0.70	0.750			
0.1610	10304.52	4.0610	4.0613	0.8102	26.70	0.71	0.750			
0.1634	10458.71	4.0580	4.0578	0.8181	26.70	0.71	0.750			
0.1659	10616.11	4.0550	4.0550	0.8230	26.70	0.71	0.750			
0.1684	10775.81	4.0520	4.0520	0.8215	26.70	0.71	0.750			
0.1709	10935.05	4.0490	4.0491	0.8275	26.70	0.71	0.750			
0.1733	11093.80	4.0460	4.0461	0.8276	26.70	0.71	0.750			
0.1758	11252.24	4.0430	4.0429	0.8311	26.70	0.71	0.750			
0.1783	11410.16	4.0400	4.0400	0.8334	26.70	0.71	0.750			
0.1808	11571.03	4.0370	4.0370	0.8315	26.70	0.71	0.750			
0.1833	11733.82	4.0340	4.0340	0.8388	26.70	0.71	0.750			
0.1859	11894.73	4.0310	4.0311	0.8402	26.70	0.71	0.750			
0.1884	12055.46	4.0280	4.0280	0.8411	26.70	0.71	0.750			
0.1909	12215.91	4.0250	4.0249	0.8417	26.70	0.71	0.750			
0.1934	12378.10	4.0220	4.0220	0.8412	26.71	0.72	0.750			
0.1959	12539.35	4.0190	4.0191	0.8451	26.71	0.72	0.750			
0.1985	12703.55	4.0160	4.0160	0.8509	26.72	0.73	0.750			
0.2010	12864.95	4.0130	4.0127	0.8534	26.72	0.73	0.750			
0.2036	13028.53	4.0100	4.0101	0.8502	26.72	0.73	0.750			
0.2061	13192.53	4.0070	4.0070	0.8551	26.72	0.73	0.750			
0.2087	13357.83	4.0040	4.0040	0.8614	26.72	0.73	0.750			
0.2113	13524.51	4.0010	4.0009	0.8663	26.72	0.73	0.750			
0.2139	13688.60	3.9980	3.9980	0.8651	26.72	0.73	0.750			
0.2165	13856.40	3.9950	3.9950	0.8679	26.72	0.73	0.750			
0.2191	14023.45	3.9920	3.9920	0.8675	26.72	0.73	0.750			
0.2217	14191.24	3.9890	3.9890	0.8766	26.72	0.73	0.750			
0.2243	14358.26	3.9860	3.9861	0.8708	26.72	0.73	0.750			
0.2270	14524.87	3.9830	3.9830	0.8737	26.72	0.73	0.750			
0.2296	14693.66	3.9800	3.9801	0.8737	26.72	0.73	0.750			
0.2322	14861.04	3.9770	3.9770	0.8773	26.72	0.73	0.750			
0.2348	15030.23	3.9740	3.9740	0.8773	26.72	0.73	0.750			
0.2375	15199.36	3.9710	3.9710	0.8773	26.72	0.73	0.750			
0.2401	15366.09	3.9680	3.9681	0.8778	26.72	0.73	0.750			
0.2428	15536.28	3.9650	3.9650	0.8811	26.72	0.73	0.750			
0.2454	15703.55	3.9620	3.9620	0.8832	26.72	0.73	0.750			
0.2480	15874.54	3.9590	3.9590	0.8849	26.72	0.73	0.750			
0.2507	16044.01	3.9560	3.9560	0.8831	26.72	0.73	0.750			
0.2534	16215.34	3.9530	3.9530	0.8870	26.72	0.73	0.750			
0.2560	16385.05	3.9500	3.9501	0.8861	26.72	0.73	0.750			
0.2587	16554.40	3.9470	3.9470	0.8844	26.72	0.73	0.750			
0.2613	16724.63	3.9440	3.9439	0.8901	26.72	0.73	0.750			
0.2640	16893.46	3.9410	3.9410	0.8897	26.72	0.73	0.750			
0.2667	17068.54	3.9380	3.9379	0.8852	26.72	0.73	0.750			
0.2693	17237.70	3.9350	3.9351	0.8917	26.72	0.73	0.750			
0.2720	17408.16	3.9320	3.9320	0.8926	26.71	0.72	0.750			
0.2747	17578.97	3.9290	3.9290	0.8926	26.71	0.72	0.750			
0.2773	17749.54	3.9260	3.9260	0.8960	26.71	0.72	0.750			
0.2800	17921.78	3.9230	3.9231	0.8975	26.71	0.72	0.750			
0.2827	18095.94	3.9200	3.9200	0.9037	26.70	0.71	0.750			
0.2855	18270.57	3.9170	3.9170	0.9094	26.70	0.71	0.750			
0.2882	18443.68	3.9140	3.9140	0.9053	26.70	0.71	0.750			
0.2909	18620.01	3.9110	3.9109	0.9081	26.70	0.71	0.750			
0.2937	18794.49	3.9080	3.9080	0.9109	26.69	0.70	0.750			
0.2964	18968.00	3.9050	3.9051	0.9165	26.69	0.70	0.750			
0.2991	19145.15	3.9020	3.9020	0.9211	26.68	0.69	0.750			
0.3019	19321.36	3.8990	3.8989	0.9254	26.68	0.69	0.750			
0.3047	19501.42	3.8960	3.8961	0.9193	26.67	0.68	0.750			
0.3075	19677.92	3.8930	3.8930	0.9317	26.67	0.68	0.750			
0.3102	19855.95	3.8900	3.8900	0.9419	26.66	0.67	0.750			
0.3131	20035.41	3.8870	3.8869	0.9538	26.65	0.66	0.750			
0.3160	20222.99	3.8840	3.8840	0.9456	26.64	0.65	0.750			
0.3189	20407.11	3.8810	3.8811	0.9532	26.64	0.65	0.750			
0.3217	20590.51	3.8780	3.8781	0.9522	26.63	0.64	0.750			
0.3246	20775.19	3.8750	3.8750	0.9565	26.62	0.63	0.750			
0.3274	20953.33	3.8720	3.8720	0.9500	26.62	0.63	0.750			
0.3302	21135.38	3.8690	3.8690	0.9488	26.61	0.62	0.750			
0.3331	21316.98	3.8660	3.8661	0.9539	26.60	0.61	0.750			
0.3360	21503.66	3.8630	3.8630	0.9665	26.59	0.60	0.750			
0.3389	21689.10	3.8600	3.8598	0.9621	26.58	0.59	0.750			
0.3418	21874.00	3.8570	3.8571	0.9646	26.57	0.58	0.750			
0.3446	22056.55	3.8540	3.8541	0.9621	26.56	0.57	0.750			
0.3475	22239.86	3.8510	3.8511	0.9714	26.55	0.56	0.750			
0.3504	22426.73	3.8480	3.8479	0.9735	26.54	0.55	0.750			
0.3534	22614.91	3.8450	3.8451	0.9821	26.53	0.54	0.750			
0.3563	22805.51	3.8420	3.8421	0.9864	26.52	0.53	0.750			
0.3593	22998.06	3.8390	3.8391	0.9928	26.51	0.52	0.750			
0.3624	23192.62	3.8360	3.8359	0.9977	26.50	0.51	0.750			
0.3653	23377.76	3.8330	3.8330	0.9821	26.50	0.51	0.750			
0.3682	23564.69	3.8300	3.8300	0.9870	26.49	0.50	0.750			
0.3712	23754.82	3.8270	3.8271	0.9980	26.48	0.49	0.750			
0.3742	23946.79	3.8240	3.8240	1.0064	26.47	0.48	0.750			
0.3772	24143.42	3.8210	3.8210	1.0086	26.46	0.47	0.750			
0.3803	24337.16	3.8180	3.8180	1.0120	26.45	0.46	0.750			
0.3833	24532.88	3.8150	3.8151	1.0242	26.44	0.45	0.750			
0.3864	24729.66	3.8120	3.8121	1.0319	26.43	0.44	0.750			
0.3895	24926.29	3.8090	3.8088	1.0353	26.42	0.43	0.750			
0.3926	25126.01	3.8060	3.8061	1.0480	26.40	0.41	0.750			
0.3958	25328.07	3.8030	3.8030	1.0598	26.39	0.40	0.750			
0.3990	25533.24	3.8000	3.8000	1.0743	26.38	0.39	0.750			
0.4022	25741.39	3.7970	3.7970	1.0807	26.37	0.38	0.750			
0.4055	25949.09	3.7940	3.7940	1.0935	26.36	0.37	0.750			
0.4088	26160.59	3.7910	3.7910	1.1093	26.35	0.36	0.750			
0.4121	26375.08	3.7880	3.7880	1.1261	26.34	0.35	0.750			
0.4155	26591.60	3.7850	3.7851	1.1386	26.33	0.34	0.750			
0.4189	26809.67	3.7820	3.7821	1.1643	26.32	0.33	0.750			
0.4225	27036.98	3.7790	3.7790	1.1798	26.31	0.32	0.750			
0.4260	27265.20	3.7760	3.7758	1.2253	26.29	0.30	0.750			
0.4298	27504.67	3.7730	3.7731	1.2548	26.28	0.29	0.750			
0.4336	27749.50	3.7700	3.7699	1.2777	26.27	0.28	0.750			
0.4375	28002.09	3.7670	3.7671	1.2964	26.25	0.26	0.750	0.322	0.431	
0.4414	28251.51	3.7640	3.7640	1.3126	26.24	0.25	0.750			
0.4454	28503.36	3.7610	3.7609	1.3378	26.23	0.24	0.750			
0.4494	28762.20	3.7580	3.7580	1.3543	26.22	0.23	0.750			
0.4535	29026.90	3.7550	3.7550	1.3849	26.20	0.21	0.750			
0.4577	29290.97	3.7520	3.7520	1.4117	26.19	0.20	0.750			
0.4619	29561.97	3.7490	3.7491	1.4534	26.18	0.19	0.750			
0.4663	29845.34	3.7460	3.7461	1.4882	26.16	0.17	0.750			
0.4708	30133.43	3.7430	3.7427	1.5290	26.14	0.15	0.750			
0.4755	30429.78	3.7400	3.7400	1.5675	26.12	0.13	0.750			
0.4802	30735.39	3.7370	3.7371	1.6096	26.11	0.12	0.750			
0.4851	31049.08	3.7340	3.7342	1.6497	26.09	0.10	0.750			
0.4901	31368.48	3.7310	3.7308	1.6761	26.08	0.09	0.750			
0.4952	31691.64	3.7280	3.7279	1.7198	26.06	0.07	0.750			
0.5004	32028.50	3.7250	3.7248	1.7741	26.04	0.05	0.750			
0.5058	32371.54	3.7220	3.7221	1.8239	26.02	0.03	0.750			
0.5113	32724.59	3.7190	3.7189	1.8735	26.00	0.01	0.750			
0.5172	33098.94	3.7160	3.7160	1.9253	25.98	-0.01	0.750			
0.5230	33470.49	3.7130	3.7131	1.9860	25.97	-0.02	0.750			
0.5291	33860.75	3.7100	3.7100	2.0502	25.95	-0.04	0.750			
0.5353	34259.16	3.7070	3.7073	2.1062	25.94	-0.05	0.750			
0.5417	34670.77	3.7040	3.7040	2.1664	25.92	-0.07	0.750			
0.5483	35092.31	3.7010	3.7009	2.2135	25.90	-0.09	0.750			
0.5550	35520.37	3.6980	3.6983	2.2706	25.88	-0.11	0.750			
0.5620	35967.77	3.6950	3.6950	2.3588	25.86	-0.13	0.750			
0.5690	36413.77	3.6920	3.6920	2.4630	25.84	-0.15	0.750			
0.5764	36891.29	3.6890	3.6889	2.5799	25.82	-0.17	0.750			
0.5845	37410.17	3.6860	3.6860	2.6779	25.81	-0.18	0.750			
0.5928	37938.28	3.6830	3.6829	2.7226	25.79	-0.20	0.750			
0.6011	38471.47	3.6800	3.6799	2.8196	25.77	-0.22	0.750			
0.6096	39013.98	3.6770	3.6770	2.8766	25.75	-0.24	0.750			
0.6185	39583.18	3.6740	3.6742	2.9108	25.73	-0.26	0.750			
0.6275	40163.17	3.6710	3.6711	2.8915	25.72	-0.27	0.750			
0.6364	40728.79	3.6680	3.6680	2.7137	25.72	-0.27	0.750			
0.6442	41226.52	3.6650	3.6651	2.4671	25.72	-0.27	0.750			
0.6508	41652.20	3.6620	3.6620	2.1892	25.72	-0.27	0.750			
0.6569	42042.24	3.6590	3.6590	1.9812	25.72	-0.27	0.750			
0.6623	42390.34	3.6560	3.6559	1.8009	25.72	-0.27	0.750			
0.6673	42709.21	3.6530	3.6527	1.6614	25.72	-0.27	0.750			
0.6722	43018.43	3.6500	3.6500	1.5582	25.72	-0.27	0.750			
0.6767	43307.80	3.6470	3.6471	1.4500	25.72	-0.27	0.750			
0.6809	43576.72	3.6440	3.6441	1.3628	25.72	-0.27	0.750			
0.6847	43823.35	3.6410	3.6411	1.2743	25.72	-0.27	0.750			
0.6884	44056.84	3.6380	3.6377	1.2243	25.72	-0.27	0.750			
0.6918	44278.27	3.6350	3.6351	1.1903	25.72	-0.27	0.750			
0.6953	44501.53	3.6320	3.6320	1.1854	25.72	-0.27	0.750			
0.6989	44729.33	3.6290	3.6290	1.1916	25.72	-0.27	0.750			
0.7025	44957.93	3.6260	3.6261	1.1879	25.72	-0.27	0.750			
0.7061	45187.80	3.6230	3.6231	1.1959	25.72	-0.27	0.750			
0.7097	45419.04	3.6200	3.6200	1.2032	25.71	-0.28	0.750			
0.7134	45655.86	3.6170	3.6167	1.1814	25.71	-0.28	0.750			
0.7169	45881.50	3.6140	3.6141	1.1698	25.71	-0.28	0.750			
0.7204	46104.04	3.6110	3.6111	1.1596	25.72	-0.27	0.750			
0.7238	46325.02	3.6080	3.6082	1.1511	25.72	-0.27	0.750			
0.7272	46542.40	3.6050	3.6049	1.1294	25.72	-0.27	0.750			
0.7306	46756.53	3.6020	3.6021	1.1417	25.72	-0.27	0.750			
0.7339	46972.41	3.5990	3.5991	1.1530	25.72	-0.27	0.750			
0.7375	47200.10	3.5960	3.5959	1.1692	25.72	-0.27	0.750			
0.7410	47422.12	3.5930	3.5931	1.1942	25.72	-0.27	0.750			
0.7446	47651.91	3.5900	3.5901	1.2247	25.72	-0.27	0.750			
0.7483	47893.30	3.5870	3.5870	1.2593	25.72	-0.27	0.750			
0.7521	48135.40	3.5840	3.5838	1.2984	25.72	-0.27	0.750			
0.7561	48389.13	3.5810	3.5811	1.3373	25.72	-0.27	0.750			
0.7602	48649.95	3.5780	3.5781	1.3911	25.72	-0.27	0.750			
0.7644	48921.43	3.5750	3.5749	1.4587	25.72	-0.27	0.750			
0.7688	49203.55	3.5720	3.5720	1.5056	25.71	-0.28	0.750			
0.7736	49508.12	3.5690	3.5690	1.5374	25.70	-0.29	0.750			
0.7783	49810.38	3.5660	3.5662	1.5664	25.70	-0.29	0.750			
0.7831	50116.83	3.5630	3.5629	1.5876	25.71	-0.28	0.750			
0.7879	50425.01	3.5600	3.5600	1.6090	25.71	-0.28	0.750			
0.7926	50728.35	3.5570	3.5571	1.6185	25.71	-0.28	0.750			
0.7974	51035.83	3.5540	3.5541	1.6429	25.72	-0.27	0.750			
0.8024	51354.39	3.5510	3.5507	1.6645	25.72	-0.27	0.750			
0.8076	51683.23	3.5480	3.5476	1.7045	25.72	-0.27	0.750			
0.8126	52009.41	3.5450	3.5452	1.7168	25.72	-0.27	0.750			
0.8177	52334.68	3.5420	3.5423	1.7805	25.73	-0.26	0.750			
0.8233	52688.25	3.5390	3.5392	1.7916	25.74	-0.25	0.750			
0.8291	53064.11	3.5360	3.5357	1.7214	25.75	-0.24	0.750			
0.8345	53409.83	3.5330	3.5328	1.5984	25.76	-0.23	0.750			
0.8395	53730.87	3.5300	3.5303	1.3963	25.77	-0.22	0.750			
0.8436	53991.08	3.5270	3.5272	1.1385	25.79	-0.20	0.750			
0.8461	54153.21	3.5240	3.5241	0.8708	25.81	-0.18	0.750			
0.8479	54264.96	3.5210	3.5208	0.6361	25.81	-0.18	0.750			
0.8492	54345.94	3.5180	3.5178	0.4686	25.82	-0.17	0.750			
0.8503	54419.98	3.5150	3.5148	0.3978	25.83	-0.16	0.750			
0.8513	54483.87	3.5120	3.5119	0.3550	25.83	-0.16	0.750			
0.8523	54548.08	3.5090	3.5089	0.3328	25.84	-0.15	0.750			
0.8533	54609.01	3.5060	3.5061	0.3174	25.84	-0.15	0.750			
0.8542	54668.24	3.5030	3.5029	0.3042	25.85	-0.14	0.750			
0.8551	54725.17	3.5000	3.4999	0.2936	25.85	-0.14	0.750			
0.8559	54779.90	3.4970	3.4971	0.2845	25.86	-0.13	0.750			
0.8568	54833.20	3.4940	3.4940	0.2766	25.87	-0.12	0.750			
0.8576	54885.71	3.4910	3.4910	0.2712	25.87	-0.12	0.750			
0.8584	54936.62	3.4880	3.4880	0.2643	25.88	-0.11	0.750			
0.8592	54986.65	3.4850	3.4850	0.2593	25.88	-0.11	0.750			
0.8599	55035.96	3.4820	3.4820	0.2552	25.89	-0.10	0.750			
0.8607	55084.86	3.4790	3.4790	0.2501	25.89	-0.10	0.750			
0.8614	55132.77	3.4760	3.4760	0.2452	25.90	-0.09	0.750			
0.8622	55179.18	3.4730	3.4729	0.2392	25.90	-0.09	0.750			
0.8629	55224.91	3.4700	3.4703	0.2338	25.90	-0.09	0.750			
0.8636	55269.01	3.4670	3.4670	0.2280	25.91	-0.08	0.750			
0.8643	55312.01	3.4640	3.4640	0.2232	25.91	-0.08	0.750			
0.8649	55354.00	3.4610	3.4610	0.2178	25.92	-0.07	0.750			
0.8655	55395.19	3.4580	3.4580	0.2124	25.92	-0.07	0.750			
0.8662	55435.75	3.4550	3.4550	0.2090	25.93	-0.06	0.750			
0.8668	55475.47	3.4520	3.4520	0.2046	25.93	-0.06	0.750			
0.8674	55514.34	3.4490	3.4491	0.2003	25.93	-0.06	0.750			
0.8680	55552.67	3.4460	3.4459	0.1945	25.94	-0.05	0.750			
0.8686	55589.55	3.4430	3.4430	0.1896	25.94	-0.05	0.750			
0.8692	55625.62	3.4400	3.4400	0.1836	25.94	-0.05	0.750			
0.8697	55660.29	3.4370	3.4371	0.1775	25.95	-0.04	0.750			
0.8702	55693.93	3.4340	3.4339	0.1728	25.95	-0.04	0.750			
0.8707	55726.15	3.4310	3.4310	0.1667	25.95	-0.04	0.750			
0.8712	55757.61	3.4280	3.4280	0.1614	25.96	-0.03	0.750			
0.8717	55788.13	3.4250	3.4250	0.1566	25.96	-0.03	0.750			
0.8722	55817.99	3.4220	3.4220	0.1513	25.96	-0.03	0.750			
0.8726	55846.42	3.4190	3.4190	0.1456	25.97	-0.02	0.750			
0.8730	55874.19	3.4160	3.4161	0.1407	25.97	-0.02	0.750			
0.8734	55900.66	3.4130	3.4129	0.1343	25.97	-0.02	0.750			
0.8738	55925.67	3.4100	3.4099	0.1278	25.97	-0.02	0.750			
0.8742	55950.04	3.4070	3.4071	0.1210	25.98	-0.01	0.750			
0.8746	55972.77	3.4040	3.4040	0.1141	25.98	-0.01	0.750			
0.8749	55995.05	3.4010	3.4009	0.1042	25.98	-0.01	0.750			
0.8752	56014.55	3.3980	3.3979	0.0959	25.98	-0.01	0.750			
0.8755	56032.35	3.3950	3.3951	0.0867	25.99	-0.00	0.750			
0.8757	56047.95	3.3920	3.3922	0.0758	25.99	-0.00	0.750			
0.8760	56062.21	3.3890	3.3893	0.0657	25.99	-0.00	0.750			
0.8762	56073.68	3.3860	3.3866	0.0539	25.99	-0.00	0.750			
0.8763	56082.89	3.3830	3.3840	0.0420	25.99	0.00	0.750			
0.8764	56089.83	3.3800	3.3816	0.0302	25.99	0.00	0.750			
0.8765	56094.50	3.3770	3.3795	0.0184	25.99	0.00	0.750			
