Ah_balance (normalized)	Ah_balance (mAh)	Voltage - fit (V)	Voltage -  interpolate (V)	dQ/dV (1/V)	Temperature (°C)	Temperature - diff (°C)	Current (C)	R_DC 0ms (mOhm)	R_DC 50ms (mOhm)	R_DC 50 ms PEC (mOhm)
0.0540	3459.16	4.1970	4.1971	0.7255	26.56	0.57	0.750			
0.0563	3601.89	4.1940	4.1936	0.7478	26.56	0.57	0.750			
0.0586	3747.70	4.1910	4.1911	0.7576	26.56	0.57	0.750			
0.0609	3894.74	4.1880	4.1880	0.7606	26.56	0.57	0.750			
0.0632	4043.75	4.1850	4.1851	0.7665	26.56	0.57	0.750			
0.0654	4188.63	4.1820	4.1820	0.7627	26.56	0.57	0.750			
0.0677	4335.93	4.1790	4.1790	0.7646	26.56	0.57	0.750			
0.0700	4482.59	4.1760	4.1760	0.7664	26.56	0.57	0.750			
0.0723	4630.31	4.1730	4.1729	0.7664	26.56	0.57	0.750			
0.0746	4777.53	4.1700	4.1701	0.7644	26.56	0.57	0.750			
0.0769	4924.32	4.1670	4.1670	0.7682	26.56	0.57	0.750			
0.0792	5070.80	4.1640	4.1640	0.7676	26.56	0.57	0.750			
0.0815	5218.71	4.1610	4.1609	0.7677	26.56	0.57	0.750			
0.0838	5366.10	4.1580	4.1580	0.7695	26.56	0.57	0.750			
0.0862	5514.30	4.1550	4.1551	0.7663	26.56	0.57	0.750			
0.0885	5661.53	4.1520	4.1520	0.7726	26.56	0.57	0.750			
0.0908	5809.39	4.1490	4.1490	0.7741	26.56	0.57	0.750			
0.0931	5956.88	4.1460	4.1459	0.7732	26.56	0.57	0.750			
0.0954	6105.64	4.1430	4.1431	0.7814	26.56	0.57	0.750			
0.0978	6259.57	4.1400	4.1400	0.7770	26.56	0.57	0.750			
0.1001	6408.02	4.1370	4.1370	0.7759	26.56	0.57	0.750			
0.1024	6556.01	4.1340	4.1340	0.7817	26.55	0.56	0.750			
0.1048	6704.47	4.1310	4.1310	0.7801	26.55	0.56	0.750			
0.1071	6854.83	4.1280	4.1278	0.7786	26.55	0.56	0.750			
0.1094	7004.21	4.1250	4.1251	0.7820	26.55	0.56	0.750			
0.1118	7154.02	4.1220	4.1221	0.7852	26.55	0.56	0.750			
0.1142	7306.93	4.1190	4.1189	0.7947	26.55	0.56	0.750			
0.1165	7458.55	4.1160	4.1160	0.7914	26.55	0.56	0.750			
0.1189	7610.92	4.1130	4.1129	0.7953	26.55	0.56	0.750			
0.1213	7765.80	4.1100	4.1101	0.7992	26.55	0.56	0.750			
0.1238	7921.46	4.1070	4.1070	0.7900	26.55	0.56	0.750			
0.1261	8071.33	4.1040	4.1040	0.7936	26.54	0.55	0.750			
0.1285	8222.66	4.1010	4.1011	0.7969	26.54	0.55	0.750			
0.1308	8373.79	4.0980	4.0978	0.7975	26.54	0.55	0.750			
0.1333	8528.18	4.0950	4.0951	0.8013	26.54	0.55	0.750			
0.1357	8684.95	4.0920	4.0920	0.7961	26.54	0.55	0.750			
0.1381	8836.95	4.0890	4.0891	0.8008	26.54	0.55	0.750			
0.1405	8991.82	4.0860	4.0860	0.8067	26.54	0.55	0.750			
0.1429	9143.34	4.0830	4.0831	0.8039	26.54	0.55	0.750			
0.1453	9297.54	4.0800	4.0800	0.8091	26.54	0.55	0.750			
0.1477	9455.28	4.0770	4.0771	0.8108	26.54	0.55	0.750			
0.1502	9611.87	4.0740	4.0740	0.8174	26.54	0.55	0.750			
0.1527	9771.28	4.0710	4.0709	0.8237	26.54	0.55	0.750			
0.1551	9925.46	4.0680	4.0682	0.8183	26.54	0.55	0.750			
0.1576	10083.58	4.0650	4.0651	0.8226	26.54	0.55	0.750			
0.1601	10243.51	4.0620	4.0620	0.8215	26.54	0.55	0.750			
0.1625	10401.25	4.0590	4.0590	0.8235	26.54	0.55	0.750			
0.1650	10559.06	4.0560	4.0561	0.8303	26.54	0.55	0.750			
0.1675	10716.83	4.0530	4.0531	0.8309	26.54	0.55	0.750			
0.1700	10877.37	4.0500	4.0500	0.8343	26.54	0.55	0.750			
0.1725	11038.93	4.0470	4.0470	0.8323	26.54	0.55	0.750			
0.1750	11199.60	4.0440	4.0440	0.8381	26.54	0.55	0.750			
0.1775	11360.88	4.0410	4.0411	0.8386	26.54	0.55	0.750			
0.1800	11521.38	4.0380	4.0380	0.8377	26.54	0.55	0.750			
0.1825	11681.80	4.0350	4.0350	0.8399	26.54	0.55	0.750			
0.1851	11844.33	4.0320	4.0321	0.8386	26.54	0.55	0.750			
0.1876	12005.35	4.0290	4.0289	0.8472	26.54	0.55	0.750			
0.1902	12169.77	4.0260	4.0261	0.8548	26.54	0.55	0.750			
0.1927	12332.86	4.0230	4.0229	0.8545	26.54	0.55	0.750			
0.1953	12497.72	4.0200	4.0201	0.8607	26.54	0.55	0.750			
0.1979	12664.22	4.0170	4.0171	0.8610	26.54	0.55	0.750			
0.2005	12829.45	4.0140	4.0140	0.8680	26.54	0.55	0.750			
0.2031	12997.93	4.0110	4.0110	0.8708	26.54	0.55	0.750			
0.2057	13164.67	4.0080	4.0079	0.8688	26.54	0.55	0.750			
0.2083	13331.94	4.0050	4.0051	0.8690	26.54	0.55	0.750			
0.2109	13499.06	4.0020	4.0020	0.8722	26.54	0.55	0.750			
0.2135	13666.07	3.9990	3.9991	0.8730	26.54	0.55	0.750			
0.2161	13833.33	3.9960	3.9959	0.8771	26.54	0.55	0.750			
0.2188	14000.04	3.9930	3.9927	0.8789	26.54	0.55	0.750			
0.2214	14172.24	3.9900	3.9901	0.8814	26.54	0.55	0.750			
0.2241	14341.82	3.9870	3.9870	0.8817	26.54	0.55	0.750			
0.2268	14512.95	3.9840	3.9841	0.8843	26.54	0.55	0.750			
0.2294	14682.05	3.9810	3.9811	0.8823	26.54	0.55	0.750			
0.2320	14849.20	3.9780	3.9780	0.8850	26.54	0.55	0.750			
0.2347	15019.72	3.9750	3.9750	0.8837	26.54	0.55	0.750			
0.2373	15187.39	3.9720	3.9720	0.8912	26.54	0.55	0.750			
0.2400	15360.11	3.9690	3.9691	0.8988	26.54	0.55	0.750			
0.2427	15535.11	3.9660	3.9659	0.9007	26.54	0.55	0.750			
0.2454	15707.88	3.9630	3.9631	0.9056	26.54	0.55	0.750			
0.2482	15882.92	3.9600	3.9601	0.9022	26.54	0.55	0.750			
0.2509	16056.04	3.9570	3.9570	0.8994	26.54	0.55	0.750			
0.2536	16229.06	3.9540	3.9540	0.9036	26.54	0.55	0.750			
0.2563	16400.06	3.9510	3.9507	0.9000	26.54	0.55	0.750			
0.2590	16576.65	3.9480	3.9480	0.8945	26.54	0.55	0.750			
0.2617	16745.73	3.9450	3.9450	0.8990	26.54	0.55	0.750			
0.2643	16917.40	3.9420	3.9421	0.8988	26.53	0.54	0.750			
0.2671	17091.30	3.9390	3.9390	0.9059	26.53	0.54	0.750			
0.2697	17263.82	3.9360	3.9358	0.9053	26.53	0.54	0.750			
0.2725	17437.09	3.9330	3.9331	0.9068	26.53	0.54	0.750			
0.2752	17612.71	3.9300	3.9300	0.9130	26.52	0.53	0.750			
0.2780	17789.11	3.9270	3.9270	0.9199	26.52	0.53	0.750			
0.2807	17964.02	3.9240	3.9239	0.9177	26.52	0.53	0.750			
0.2835	18145.21	3.9210	3.9210	0.9167	26.52	0.53	0.750			
0.2863	18320.46	3.9180	3.9180	0.9156	26.52	0.53	0.750			
0.2890	18495.77	3.9150	3.9151	0.9231	26.52	0.53	0.750			
0.2918	18673.08	3.9120	3.9121	0.9236	26.52	0.53	0.750			
0.2945	18849.10	3.9090	3.9087	0.9239	26.52	0.53	0.750			
0.2973	19027.42	3.9060	3.9061	0.9189	26.51	0.52	0.750			
0.3001	19203.54	3.9030	3.9031	0.9259	26.51	0.52	0.750			
0.3029	19382.65	3.9000	3.9001	0.9332	26.51	0.52	0.750			
0.3056	19559.98	3.8970	3.8969	0.9342	26.50	0.51	0.750			
0.3085	19741.42	3.8940	3.8940	0.9323	26.49	0.50	0.750			
0.3113	19921.85	3.8910	3.8911	0.9418	26.48	0.49	0.750			
0.3141	20102.30	3.8880	3.8880	0.9505	26.48	0.49	0.750			
0.3170	20287.26	3.8850	3.8851	0.9573	26.47	0.48	0.750			
0.3198	20468.09	3.8820	3.8820	0.9577	26.46	0.47	0.750			
0.3227	20653.18	3.8790	3.8790	0.9612	26.45	0.46	0.750			
0.3256	20838.71	3.8760	3.8760	0.9686	26.45	0.46	0.750			
0.3285	21026.35	3.8730	3.8730	0.9779	26.44	0.45	0.750			
0.3315	21213.70	3.8700	3.8698	0.9798	26.44	0.45	0.750			
0.3344	21401.33	3.8670	3.8670	0.9862	26.43	0.44	0.750			
0.3374	21592.73	3.8640	3.8640	0.9976	26.42	0.43	0.750			
0.3404	21785.98	3.8610	3.8610	1.0063	26.40	0.41	0.750			
0.3435	21982.51	3.8580	3.8579	1.0099	26.39	0.40	0.750			
0.3465	22176.61	3.8550	3.8550	1.0099	26.38	0.39	0.750			
0.3495	22370.58	3.8520	3.8521	1.0122	26.38	0.39	0.750			
0.3526	22565.41	3.8490	3.8489	1.0136	26.37	0.38	0.750			
0.3556	22758.82	3.8460	3.8458	1.0166	26.36	0.37	0.750			
0.3586	22953.43	3.8430	3.8430	1.0123	26.36	0.37	0.750			
0.3617	23146.20	3.8400	3.8400	1.0204	26.35	0.36	0.750			
0.3648	23345.18	3.8370	3.8371	1.0310	26.35	0.36	0.750			
0.3678	23541.93	3.8340	3.8339	1.0370	26.34	0.35	0.750			
0.3710	23742.50	3.8310	3.8310	1.0403	26.33	0.34	0.750			
0.3741	23943.67	3.8280	3.8280	1.0445	26.32	0.33	0.750			
0.3773	24144.97	3.8250	3.8250	1.0467	26.31	0.32	0.750			
0.3804	24348.19	3.8220	3.8220	1.0564	26.29	0.30	0.750			
0.3836	24551.19	3.8190	3.8189	1.0431	26.28	0.29	0.750			
0.3867	24749.95	3.8160	3.8160	1.0534	26.27	0.28	0.750			
0.3898	24949.58	3.8130	3.8131	1.0575	26.26	0.27	0.750			
0.3930	25154.15	3.8100	3.8099	1.0715	26.25	0.26	0.750			
0.3963	25361.01	3.8070	3.8071	1.0777	26.24	0.25	0.750			
0.3995	25568.64	3.8040	3.8040	1.0854	26.23	0.24	0.750			
0.4028	25777.06	3.8010	3.8011	1.0978	26.22	0.23	0.750			
0.4061	25993.42	3.7980	3.7978	1.1110	26.21	0.22	0.750			
0.4094	26203.48	3.7950	3.7950	1.1156	26.20	0.21	0.750			
0.4128	26419.08	3.7920	3.7920	1.1304	26.19	0.20	0.750			
0.4162	26637.07	3.7890	3.7891	1.1470	26.18	0.19	0.750			
0.4197	26861.01	3.7860	3.7859	1.1505	26.17	0.18	0.750			
0.4232	27082.71	3.7830	3.7830	1.1710	26.15	0.16	0.750			
0.4267	27308.05	3.7800	3.7802	1.1818	26.14	0.15	0.750			
0.4303	27538.78	3.7770	3.7768	1.1909	26.12	0.13	0.750			
0.4339	27767.52	3.7740	3.7741	1.2082	26.11	0.12	0.750			
0.4374	27996.33	3.7710	3.7711	1.2446	26.11	0.12	0.750			
0.4412	28237.12	3.7680	3.7681	1.2836	26.10	0.11	0.750			
0.4451	28487.94	3.7650	3.7648	1.3209	26.09	0.10	0.750	0.316	0.424	
0.4492	28749.79	3.7620	3.7621	1.3537	26.07	0.08	0.750			
0.4534	29018.75	3.7590	3.7590	1.3900	26.06	0.07	0.750			
0.4577	29292.39	3.7560	3.7562	1.4009	26.04	0.05	0.750			
0.4618	29557.69	3.7530	3.7530	1.4230	26.03	0.04	0.750			
0.4661	29831.18	3.7500	3.7500	1.4405	26.01	0.02	0.750			
0.4705	30109.41	3.7470	3.7471	1.4681	25.99	0.00	0.750			
0.4749	30391.44	3.7440	3.7440	1.5102	25.98	-0.01	0.750			
0.4795	30685.65	3.7410	3.7410	1.5551	25.97	-0.02	0.750			
0.4842	30991.65	3.7380	3.7380	1.5927	25.95	-0.04	0.750			
0.4891	31301.52	3.7350	3.7349	1.6286	25.94	-0.05	0.750			
0.4940	31616.89	3.7320	3.7320	1.6598	25.93	-0.06	0.750			
0.4991	31940.35	3.7290	3.7291	1.7241	25.91	-0.08	0.750			
0.5042	32271.87	3.7260	3.7259	1.7777	25.90	-0.09	0.750			
0.5096	32615.54	3.7230	3.7232	1.8250	25.88	-0.11	0.750			
0.5152	32973.86	3.7200	3.7202	1.8971	25.86	-0.13	0.750			
0.5210	33345.78	3.7170	3.7170	1.9531	25.84	-0.15	0.750			
0.5270	33730.96	3.7140	3.7140	2.0015	25.83	-0.16	0.750			
0.5331	34118.49	3.7110	3.7110	2.0575	25.82	-0.17	0.750			
0.5393	34515.18	3.7080	3.7080	2.1078	25.80	-0.19	0.750			
0.5457	34922.22	3.7050	3.7050	2.1514	25.78	-0.21	0.750			
0.5522	35341.08	3.7020	3.7020	2.2190	25.76	-0.23	0.750			
0.5589	35770.05	3.6990	3.6989	2.2867	25.75	-0.24	0.750			
0.5659	36215.87	3.6960	3.6959	2.3658	25.73	-0.26	0.750			
0.5731	36675.76	3.6930	3.6931	2.4545	25.72	-0.27	0.750			
0.5806	37158.69	3.6900	3.6900	2.5188	25.70	-0.29	0.750			
0.5883	37651.52	3.6870	3.6872	2.5879	25.69	-0.30	0.750			
0.5962	38154.87	3.6840	3.6840	2.6559	25.68	-0.31	0.750			
0.6043	38672.01	3.6810	3.6809	2.6968	25.66	-0.33	0.750			
0.6123	39188.68	3.6780	3.6780	2.7837	25.65	-0.34	0.750			
0.6208	39730.07	3.6750	3.6750	2.8822	25.64	-0.35	0.750			
0.6296	40294.04	3.6720	3.6721	3.0020	25.64	-0.35	0.750			
0.6389	40891.06	3.6690	3.6689	3.0195	25.64	-0.35	0.750			
0.6483	41492.41	3.6660	3.6661	2.9400	25.64	-0.35	0.750			
0.6570	42050.77	3.6630	3.6629	2.7098	25.63	-0.36	0.750			
0.6646	42531.75	3.6600	3.6601	2.4002	25.64	-0.35	0.750			
0.6711	42950.26	3.6570	3.6573	2.1494	25.64	-0.35	0.750			
0.6772	43337.90	3.6540	3.6540	1.9346	25.64	-0.35	0.750			
0.6825	43682.59	3.6510	3.6507	1.7780	25.64	-0.35	0.750			
0.6875	43998.07	3.6480	3.6479	1.6246	25.65	-0.34	0.750			
0.6922	44299.46	3.6450	3.6452	1.5173	25.66	-0.33	0.750			
0.6966	44581.97	3.6420	3.6422	1.4164	25.66	-0.33	0.750			
0.7006	44836.58	3.6390	3.6390	1.3300	25.66	-0.33	0.750			
0.7044	45081.62	3.6360	3.6360	1.2703	25.66	-0.33	0.750			
0.7080	45310.79	3.6330	3.6330	1.2150	25.66	-0.33	0.750			
0.7115	45535.41	3.6300	3.6300	1.1870	25.66	-0.33	0.750			
0.7150	45758.33	3.6270	3.6272	1.1863	25.66	-0.33	0.750			
0.7185	45985.15	3.6240	3.6236	1.1791	25.66	-0.33	0.750			
0.7220	46209.64	3.6210	3.6210	1.1930	25.67	-0.32	0.750			
0.7256	46440.81	3.6180	3.6180	1.2008	25.67	-0.32	0.750			
0.7293	46676.84	3.6150	3.6151	1.2072	25.68	-0.31	0.750			
0.7330	46911.43	3.6120	3.6122	1.1847	25.68	-0.31	0.750			
0.7366	47139.61	3.6090	3.6091	1.1729	25.68	-0.31	0.750			
0.7400	47361.91	3.6060	3.6061	1.1511	25.68	-0.31	0.750			
0.7434	47578.40	3.6030	3.6029	1.1419	25.68	-0.31	0.750			
0.7467	47790.32	3.6000	3.6000	1.1317	25.68	-0.31	0.750			
0.7501	48005.44	3.5970	3.5971	1.1458	25.69	-0.30	0.750			
0.7535	48225.19	3.5940	3.5940	1.1718	25.70	-0.29	0.750			
0.7571	48452.30	3.5910	3.5910	1.1933	25.70	-0.29	0.750			
0.7607	48682.20	3.5880	3.5880	1.2314	25.70	-0.29	0.750			
0.7644	48922.30	3.5850	3.5850	1.2662	25.70	-0.29	0.750			
0.7683	49170.88	3.5820	3.5819	1.2889	25.70	-0.29	0.750			
0.7722	49420.20	3.5790	3.5790	1.3281	25.70	-0.29	0.750			
0.7762	49674.84	3.5760	3.5762	1.3812	25.70	-0.29	0.750			
0.7803	49939.47	3.5730	3.5729	1.4270	25.70	-0.29	0.750			
0.7847	50219.32	3.5700	3.5701	1.4809	25.70	-0.29	0.750			
0.7893	50514.08	3.5670	3.5669	1.5228	25.71	-0.28	0.750			
0.7940	50813.35	3.5640	3.5638	1.5551	25.71	-0.28	0.750			
0.7988	51122.72	3.5610	3.5613	1.5837	25.71	-0.28	0.750			
0.8035	51424.37	3.5580	3.5582	1.5867	25.70	-0.29	0.750			
0.8083	51729.85	3.5550	3.5547	1.6053	25.70	-0.29	0.750			
0.8131	52037.01	3.5520	3.5515	1.6136	25.71	-0.28	0.750			
0.8181	52356.67	3.5490	3.5491	1.6502	25.71	-0.28	0.750			
0.8232	52684.19	3.5460	3.5462	1.6958	25.71	-0.28	0.750			
0.8283	53010.25	3.5430	3.5432	1.6962	25.72	-0.27	0.750			
0.8334	53335.55	3.5400	3.5401	1.7199	25.72	-0.27	0.750			
0.8386	53668.07	3.5370	3.5373	1.7684	25.74	-0.25	0.750			
0.8442	54028.26	3.5340	3.5340	1.7493	25.75	-0.24	0.750			
0.8496	54373.99	3.5310	3.5310	1.6471	25.76	-0.23	0.750			
0.8550	54720.13	3.5280	3.5280	1.4721	25.78	-0.21	0.750			
0.8594	55001.04	3.5250	3.5255	1.2462	25.79	-0.20	0.750			
0.8626	55208.68	3.5220	3.5222	0.9857	25.81	-0.18	0.750			
0.8649	55356.72	3.5190	3.5184	0.7249	25.82	-0.17	0.750			
0.8661	55433.32	3.5160	3.5159	0.5249	25.83	-0.16	0.750			
0.8674	55512.39	3.5130	3.5128	0.4284	25.83	-0.16	0.750			
0.8684	55579.28	3.5100	3.5098	0.3739	25.84	-0.15	0.750			
0.8695	55645.31	3.5070	3.5070	0.3420	25.84	-0.15	0.750			
0.8704	55706.25	3.5040	3.5041	0.3218	25.85	-0.14	0.750			
0.8713	55766.14	3.5010	3.5010	0.3086	25.86	-0.13	0.750			
0.8722	55823.05	3.4980	3.4980	0.2966	25.86	-0.13	0.750			
0.8731	55878.15	3.4950	3.4950	0.2879	25.87	-0.12	0.750			
0.8739	55932.80	3.4920	3.4920	0.2806	25.88	-0.11	0.750			
0.8748	55986.19	3.4890	3.4890	0.2734	25.88	-0.11	0.750			
0.8756	56038.25	3.4860	3.4860	0.2681	25.89	-0.10	0.750			
0.8764	56088.51	3.4830	3.4830	0.2618	25.89	-0.10	0.750			
0.8772	56137.88	3.4800	3.4799	0.2556	25.90	-0.09	0.750			
0.8779	56186.81	3.4770	3.4769	0.2503	25.91	-0.08	0.750			
0.8787	56233.98	3.4740	3.4741	0.2443	25.91	-0.08	0.750			
0.8794	56280.86	3.4710	3.4710	0.2406	25.92	-0.07	0.750			
0.8801	56326.21	3.4680	3.4680	0.2366	25.92	-0.07	0.750			
0.8808	56371.33	3.4650	3.4650	0.2312	25.93	-0.06	0.750			
0.8815	56415.10	3.4620	3.4618	0.2249	25.93	-0.06	0.750			
0.8821	56457.54	3.4590	3.4589	0.2200	25.93	-0.06	0.750			
0.8828	56499.64	3.4560	3.4561	0.2158	25.94	-0.05	0.750			
0.8835	56540.86	3.4530	3.4529	0.2108	25.94	-0.05	0.750			
0.8841	56580.60	3.4500	3.4499	0.2055	25.94	-0.05	0.750			
0.8847	56619.19	3.4470	3.4471	0.2000	25.95	-0.04	0.750			
0.8853	56656.68	3.4440	3.4440	0.1950	25.95	-0.04	0.750			
0.8858	56694.17	3.4410	3.4409	0.1905	25.95	-0.04	0.750			
0.8864	56730.44	3.4380	3.4380	0.1855	25.95	-0.04	0.750			
0.8870	56765.18	3.4350	3.4350	0.1799	25.96	-0.03	0.750			
0.8875	56799.27	3.4320	3.4320	0.1752	25.96	-0.03	0.750			
0.8880	56832.70	3.4290	3.4290	0.1696	25.96	-0.03	0.750			
0.8885	56864.70	3.4260	3.4260	0.1641	25.96	-0.03	0.750			
0.8890	56895.88	3.4230	3.4231	0.1585	25.97	-0.02	0.750			
0.8895	56925.74	3.4200	3.4200	0.1525	25.97	-0.02	0.750			
0.8899	56954.37	3.4170	3.4170	0.1474	25.97	-0.02	0.750			
0.8903	56982.04	3.4140	3.4140	0.1417	25.97	-0.02	0.750			
0.8908	57008.74	3.4110	3.4111	0.1352	25.98	-0.01	0.750			
0.8912	57034.16	3.4080	3.4078	0.1296	25.98	-0.01	0.750			
0.8915	57059.06	3.4050	3.4051	0.1230	25.98	-0.01	0.750			
0.8919	57082.19	3.4020	3.4022	0.1164	25.98	-0.01	0.750			
0.8923	57105.15	3.3990	3.3988	0.1065	25.98	-0.01	0.750			
0.8926	57125.29	3.3960	3.3959	0.0990	25.98	-0.01	0.750			
0.8929	57143.32	3.3930	3.3931	0.0888	25.99	-0.00	0.750			
0.8931	57159.91	3.3900	3.3903	0.0793	25.99	-0.00	0.750			
0.8933	57174.09	3.3870	3.3874	0.0685	25.99	-0.00	0.750			
0.8936	57187.33	3.3840	3.3842	0.0577	25.99	-0.00	0.750			
0.8937	57197.27	3.3810	3.3816	0.0457	25.99	-0.00	0.750			
0.8938	57204.88	3.3780	3.3794	0.0337	25.99	-0.00	0.750			
0.8939	57210.19	3.3750	3.3770	0.0216	25.99	0.00	0.750			
