Ah_balance (normalized)	Ah_balance (mAh)	Voltage - fit (V)	Voltage -  interpolate (V)	dQ/dV (1/V)	Temperature (°C)	Temperature - diff (°C)	Current (C)	R_DC 0ms (mOhm)	R_DC 50ms (mOhm)	R_DC 50 ms PEC (mOhm)
0.0002	14.92	4.1630	4.1629	-0.1136	25.87	0.02	-0.750			
0.0007	42.59	4.1600	4.1598	-0.1621	25.87	0.02	-0.750			
0.0012	76.98	4.1570	4.1569	-0.2014	25.87	0.02	-0.750			
0.0019	120.34	4.1540	4.1540	-0.2396	25.87	0.02	-0.750			
0.0027	169.72	4.1510	4.1511	-0.2787	25.86	0.01	-0.750			
0.0036	227.54	4.1480	4.1480	-0.3168	25.86	0.01	-0.750			
0.0046	292.17	4.1450	4.1450	-0.3522	25.86	0.01	-0.750			
0.0057	363.67	4.1420	4.1420	-0.3864	25.85	0.00	-0.750			
0.0069	441.79	4.1390	4.1391	-0.4193	25.85	0.00	-0.750			
0.0082	526.38	4.1360	4.1360	-0.4478	25.85	-0.00	-0.750			
0.0096	615.55	4.1330	4.1330	-0.4764	25.84	-0.01	-0.750			
0.0111	709.84	4.1300	4.1300	-0.4993	25.84	-0.01	-0.750			
0.0126	808.95	4.1270	4.1270	-0.5206	25.83	-0.02	-0.750			
0.0142	911.88	4.1240	4.1239	-0.5448	25.83	-0.02	-0.750			
0.0159	1018.79	4.1210	4.1210	-0.5619	25.82	-0.03	-0.750			
0.0177	1129.86	4.1180	4.1179	-0.5743	25.82	-0.03	-0.750			
0.0194	1241.24	4.1150	4.1152	-0.5879	25.81	-0.04	-0.750			
0.0212	1354.57	4.1120	4.1120	-0.5996	25.81	-0.04	-0.750			
0.0230	1471.32	4.1090	4.1089	-0.6113	25.81	-0.04	-0.750			
0.0248	1589.37	4.1060	4.1060	-0.6216	25.81	-0.04	-0.750			
0.0267	1709.12	4.1030	4.1030	-0.6300	25.81	-0.04	-0.750			
0.0287	1833.86	4.1000	4.1000	-0.6417	25.81	-0.04	-0.750			
0.0306	1958.24	4.0970	4.0970	-0.6502	25.81	-0.04	-0.750			
0.0326	2083.28	4.0940	4.0941	-0.6538	25.81	-0.04	-0.750			
0.0345	2209.85	4.0910	4.0910	-0.6597	25.81	-0.04	-0.750			
0.0365	2336.33	4.0880	4.0880	-0.6673	25.80	-0.05	-0.750			
0.0385	2464.89	4.0850	4.0850	-0.6725	25.80	-0.05	-0.750			
0.0406	2595.34	4.0820	4.0820	-0.6758	25.80	-0.05	-0.750			
0.0426	2725.48	4.0790	4.0789	-0.6773	25.79	-0.06	-0.750			
0.0446	2855.69	4.0760	4.0762	-0.6823	25.79	-0.06	-0.750			
0.0467	2987.42	4.0730	4.0729	-0.6873	25.79	-0.06	-0.750			
0.0487	3118.74	4.0700	4.0700	-0.6926	25.79	-0.06	-0.750			
0.0508	3252.35	4.0670	4.0670	-0.6960	25.79	-0.06	-0.750			
0.0529	3386.81	4.0640	4.0640	-0.7021	25.79	-0.06	-0.750			
0.0550	3523.19	4.0610	4.0610	-0.7052	25.79	-0.06	-0.750			
0.0572	3658.40	4.0580	4.0583	-0.7084	25.79	-0.06	-0.750			
0.0593	3794.33	4.0550	4.0550	-0.7073	25.79	-0.06	-0.750			
0.0614	3930.29	4.0520	4.0520	-0.7093	25.79	-0.06	-0.750			
0.0635	4065.99	4.0490	4.0490	-0.7119	25.79	-0.06	-0.750			
0.0657	4203.39	4.0460	4.0461	-0.7156	25.79	-0.06	-0.750			
0.0678	4340.65	4.0430	4.0429	-0.7168	25.79	-0.06	-0.750			
0.0700	4479.04	4.0400	4.0400	-0.7185	25.79	-0.06	-0.750			
0.0721	4616.91	4.0370	4.0370	-0.7175	25.79	-0.06	-0.750			
0.0743	4754.78	4.0340	4.0340	-0.7233	25.79	-0.06	-0.750			
0.0765	4893.43	4.0310	4.0309	-0.7245	25.79	-0.06	-0.750			
0.0786	5031.97	4.0280	4.0280	-0.7264	25.79	-0.06	-0.750			
0.0808	5173.06	4.0250	4.0250	-0.7275	25.79	-0.06	-0.750			
0.0830	5314.41	4.0220	4.0220	-0.7280	25.79	-0.06	-0.750			
0.0852	5453.54	4.0190	4.0190	-0.7328	25.79	-0.06	-0.750			
0.0874	5593.22	4.0160	4.0160	-0.7358	25.80	-0.05	-0.750			
0.0896	5733.80	4.0130	4.0129	-0.7373	25.80	-0.05	-0.750			
0.0918	5877.07	4.0100	4.0100	-0.7382	25.81	-0.04	-0.750			
0.0941	6019.88	4.0070	4.0070	-0.7398	25.81	-0.04	-0.750			
0.0963	6162.43	4.0040	4.0040	-0.7404	25.81	-0.04	-0.750			
0.0985	6304.10	4.0010	4.0009	-0.7408	25.81	-0.04	-0.750			
0.1007	6443.36	3.9980	3.9980	-0.7451	25.81	-0.04	-0.750			
0.1029	6587.59	3.9950	3.9950	-0.7481	25.81	-0.04	-0.750			
0.1052	6734.16	3.9920	3.9919	-0.7531	25.81	-0.04	-0.750			
0.1075	6879.56	3.9890	3.9891	-0.7561	25.81	-0.04	-0.750			
0.1098	7024.82	3.9860	3.9861	-0.7591	25.81	-0.04	-0.750			
0.1120	7171.04	3.9830	3.9829	-0.7567	25.81	-0.04	-0.750			
0.1143	7314.94	3.9800	3.9799	-0.7522	25.82	-0.03	-0.750			
0.1165	7458.59	3.9770	3.9771	-0.7569	25.82	-0.03	-0.750			
0.1188	7604.61	3.9740	3.9741	-0.7614	25.82	-0.03	-0.750			
0.1211	7752.22	3.9710	3.9709	-0.7637	25.82	-0.03	-0.750			
0.1234	7897.81	3.9680	3.9680	-0.7672	25.83	-0.02	-0.750			
0.1257	8044.68	3.9650	3.9651	-0.7704	25.83	-0.02	-0.750			
0.1280	8195.02	3.9620	3.9620	-0.7742	25.83	-0.02	-0.750			
0.1304	8344.27	3.9590	3.9590	-0.7762	25.84	-0.01	-0.750			
0.1327	8492.36	3.9560	3.9562	-0.7750	25.84	-0.01	-0.750			
0.1350	8641.92	3.9530	3.9530	-0.7777	25.84	-0.01	-0.750			
0.1374	8791.33	3.9500	3.9500	-0.7821	25.84	-0.01	-0.750			
0.1397	8940.86	3.9470	3.9470	-0.7835	25.85	-0.00	-0.750			
0.1421	9092.05	3.9440	3.9440	-0.7844	25.85	-0.00	-0.750			
0.1444	9244.23	3.9410	3.9409	-0.7785	25.85	-0.00	-0.750			
0.1468	9394.63	3.9380	3.9380	-0.7695	25.85	0.00	-0.750			
0.1491	9540.57	3.9350	3.9350	-0.7683	25.86	0.01	-0.750			
0.1513	9685.95	3.9320	3.9321	-0.7683	25.86	0.01	-0.750			
0.1536	9832.20	3.9290	3.9288	-0.7700	25.86	0.01	-0.750			
0.1559	9979.13	3.9260	3.9260	-0.7764	25.87	0.02	-0.750			
0.1583	10129.37	3.9230	3.9232	-0.7863	25.87	0.02	-0.750			
0.1607	10282.63	3.9200	3.9199	-0.8026	25.87	0.02	-0.750			
0.1631	10439.39	3.9170	3.9170	-0.8036	25.87	0.02	-0.750			
0.1655	10592.70	3.9140	3.9140	-0.8026	25.88	0.03	-0.750			
0.1680	10748.83	3.9110	3.9110	-0.8047	25.88	0.03	-0.750			
0.1704	10904.46	3.9080	3.9081	-0.8065	25.88	0.03	-0.750			
0.1728	11058.41	3.9050	3.9048	-0.8044	25.89	0.04	-0.750			
0.1752	11211.52	3.9020	3.9020	-0.8089	25.89	0.04	-0.750			
0.1776	11366.52	3.8990	3.8989	-0.8062	25.90	0.05	-0.750			
0.1801	11523.61	3.8960	3.8960	-0.8115	25.90	0.05	-0.750			
0.1825	11679.11	3.8930	3.8932	-0.8144	25.91	0.06	-0.750			
0.1849	11836.42	3.8900	3.8899	-0.8138	25.91	0.06	-0.750			
0.1874	11993.83	3.8870	3.8870	-0.8169	25.91	0.06	-0.750			
0.1898	12148.74	3.8840	3.8840	-0.8173	25.91	0.06	-0.750			
0.1923	12305.26	3.8810	3.8811	-0.8270	25.91	0.06	-0.750			
0.1948	12465.08	3.8780	3.8782	-0.8351	25.91	0.06	-0.750			
0.1973	12625.74	3.8750	3.8749	-0.8391	25.91	0.06	-0.750			
0.1998	12787.87	3.8720	3.8720	-0.8429	25.91	0.06	-0.750			
0.2024	12953.02	3.8690	3.8690	-0.8425	25.92	0.07	-0.750			
0.2050	13116.90	3.8660	3.8660	-0.8414	25.92	0.07	-0.750			
0.2074	13275.94	3.8630	3.8631	-0.8332	25.92	0.07	-0.750			
0.2099	13432.74	3.8600	3.8600	-0.8242	25.92	0.07	-0.750			
0.2124	13590.80	3.8570	3.8570	-0.8257	25.92	0.07	-0.750			
0.2149	13751.79	3.8540	3.8539	-0.8121	25.93	0.08	-0.750			
0.2173	13907.85	3.8510	3.8510	-0.8081	25.93	0.08	-0.750			
0.2197	14060.39	3.8480	3.8483	-0.8064	25.93	0.08	-0.750			
0.2221	14212.49	3.8450	3.8449	-0.8046	25.93	0.08	-0.750			
0.2245	14365.59	3.8420	3.8418	-0.8091	25.94	0.09	-0.750			
0.2269	14519.50	3.8390	3.8390	-0.8127	25.94	0.09	-0.750			
0.2294	14680.25	3.8360	3.8360	-0.8207	25.95	0.10	-0.750			
0.2319	14840.43	3.8330	3.8332	-0.8254	25.95	0.10	-0.750			
0.2343	14997.36	3.8300	3.8299	-0.8232	25.95	0.10	-0.750			
0.2368	15154.76	3.8270	3.8270	-0.8249	25.96	0.11	-0.750			
0.2392	15311.29	3.8240	3.8239	-0.8263	25.96	0.11	-0.750			
0.2417	15470.27	3.8210	3.8210	-0.8311	25.97	0.12	-0.750			
0.2443	15632.37	3.8180	3.8181	-0.8357	25.97	0.12	-0.750			
0.2468	15793.72	3.8150	3.8149	-0.8329	25.97	0.12	-0.750			
0.2493	15953.89	3.8120	3.8118	-0.8356	25.97	0.12	-0.750			
0.2518	16114.83	3.8090	3.8091	-0.8323	25.98	0.13	-0.750			
0.2543	16276.14	3.8060	3.8058	-0.8187	25.98	0.13	-0.750			
0.2568	16433.83	3.8030	3.8032	-0.8160	25.98	0.13	-0.750			
0.2592	16588.82	3.8000	3.8000	-0.8170	25.98	0.13	-0.750			
0.2616	16744.01	3.7970	3.7971	-0.8161	25.98	0.13	-0.750			
0.2641	16900.60	3.7940	3.7938	-0.8131	25.99	0.14	-0.750			
0.2665	17055.19	3.7910	3.7911	-0.8049	25.99	0.14	-0.750			
0.2690	17213.55	3.7880	3.7882	-0.8081	25.99	0.14	-0.750			
0.2714	17368.68	3.7850	3.7849	-0.8024	25.99	0.14	-0.750			
0.2737	17519.94	3.7820	3.7820	-0.7946	26.00	0.15	-0.750			
0.2761	17671.18	3.7790	3.7790	-0.7937	26.00	0.15	-0.750			
0.2785	17822.59	3.7760	3.7759	-0.7911	26.00	0.15	-0.750			
0.2809	17976.81	3.7730	3.7730	-0.7925	26.01	0.16	-0.750			
0.2833	18129.80	3.7700	3.7701	-0.7859	26.01	0.16	-0.750			
0.2856	18280.20	3.7670	3.7670	-0.7864	26.02	0.17	-0.750			
0.2880	18430.79	3.7640	3.7640	-0.7838	26.02	0.17	-0.750			
0.2903	18578.69	3.7610	3.7610	-0.7778	26.02	0.17	-0.750			
0.2926	18728.14	3.7580	3.7580	-0.7806	26.03	0.18	-0.750			
0.2950	18878.67	3.7550	3.7550	-0.7841	26.03	0.18	-0.750			
0.2973	19029.02	3.7520	3.7520	-0.7864	26.03	0.18	-0.750			
0.2997	19181.66	3.7490	3.7490	-0.7912	26.03	0.18	-0.750			
0.3021	19332.06	3.7460	3.7460	-0.7913	26.03	0.18	-0.750			
0.3045	19486.36	3.7430	3.7429	-0.7907	26.03	0.18	-0.750			
0.3069	19638.48	3.7400	3.7401	-0.7892	26.03	0.18	-0.750			
0.3092	19788.35	3.7370	3.7370	-0.7898	26.03	0.18	-0.750			
0.3115	19938.39	3.7340	3.7341	-0.8002	26.03	0.18	-0.750			
0.3139	20090.83	3.7310	3.7309	-0.8086	26.03	0.18	-0.750			
0.3164	20248.19	3.7280	3.7279	-0.8185	26.03	0.18	-0.750			
0.3189	20406.84	3.7250	3.7251	-0.8326	26.03	0.18	-0.750			
0.3214	20568.03	3.7220	3.7220	-0.8525	26.03	0.18	-0.750			
0.3240	20734.16	3.7190	3.7190	-0.8644	26.03	0.18	-0.750			
0.3266	20899.69	3.7160	3.7159	-0.8820	26.03	0.18	-0.750			
0.3292	21067.92	3.7130	3.7130	-0.8952	26.03	0.18	-0.750			
0.3319	21244.55	3.7100	3.7102	-0.9158	26.03	0.18	-0.750			
0.3347	21422.26	3.7070	3.7070	-0.9374	26.03	0.18	-0.750			
0.3376	21605.70	3.7040	3.7040	-0.9491	26.03	0.18	-0.750			
0.3405	21789.45	3.7010	3.7009	-0.9603	26.03	0.18	-0.750			
0.3434	21975.91	3.6980	3.6980	-0.9782	26.03	0.18	-0.750			
0.3463	22161.16	3.6950	3.6952	-0.9982	26.03	0.18	-0.750			
0.3493	22354.80	3.6920	3.6919	-1.0172	26.02	0.17	-0.750			
0.3524	22553.17	3.6890	3.6890	-1.0323	26.02	0.17	-0.750			
0.3555	22751.32	3.6860	3.6860	-1.0553	26.01	0.16	-0.750			
0.3587	22958.72	3.6830	3.6830	-1.0847	26.01	0.16	-0.750			
0.3621	23171.89	3.6800	3.6798	-1.1025	26.01	0.16	-0.750			
0.3654	23384.33	3.6770	3.6770	-1.1206	26.00	0.15	-0.750			
0.3687	23598.55	3.6740	3.6742	-1.1400	26.00	0.15	-0.750			
0.3722	23822.28	3.6710	3.6709	-1.1733	25.99	0.14	-0.750			
0.3758	24049.64	3.6680	3.6680	-1.1997	25.99	0.14	-0.750			
0.3794	24279.97	3.6650	3.6649	-1.2212	25.98	0.13	-0.750			
0.3831	24517.64	3.6620	3.6621	-1.2550	25.97	0.12	-0.750			
0.3870	24767.24	3.6590	3.6589	-1.2849	25.97	0.12	-0.750			
0.3909	25015.70	3.6560	3.6559	-1.3014	25.96	0.11	-0.750			
0.3948	25266.83	3.6530	3.6533	-1.3266	25.96	0.11	-0.750			
0.3988	25523.39	3.6500	3.6499	-1.3580	25.95	0.10	-0.750			
0.4029	25785.11	3.6470	3.6469	-1.3870	25.94	0.09	-0.750			
0.4071	26052.45	3.6440	3.6442	-1.4251	25.93	0.08	-0.750			
0.4115	26335.45	3.6410	3.6409	-1.4545	25.92	0.07	-0.750			
0.4158	26613.60	3.6380	3.6380	-1.4971	25.92	0.07	-0.750			
0.4204	26904.56	3.6350	3.6352	-1.5245	25.91	0.06	-0.750			
0.4250	27201.91	3.6320	3.6318	-1.5512	25.90	0.05	-0.750			
0.4297	27498.11	3.6290	3.6290	-1.5801	25.89	0.04	-0.750			
0.4345	27804.98	3.6260	3.6258	-1.6013	25.89	0.04	-0.750			
0.4393	28117.18	3.6230	3.6229	-1.6498	25.88	0.03	-0.750			
0.4444	28438.45	3.6200	3.6200	-1.6677	25.87	0.02	-0.750	0.406	0.531	
0.4493	28757.19	3.6170	3.6172	-1.6861	25.86	0.01	-0.750			
0.4545	29085.81	3.6140	3.6142	-1.7072	25.85	0.00	-0.750			
0.4597	29418.67	3.6110	3.6108	-1.7425	25.84	-0.01	-0.750			
0.4648	29745.84	3.6080	3.6079	-1.7845	25.83	-0.02	-0.750			
0.4702	30093.55	3.6050	3.6052	-1.8310	25.82	-0.03	-0.750			
0.4758	30453.86	3.6020	3.6021	-1.8664	25.82	-0.03	-0.750			
0.4816	30820.57	3.5990	3.5992	-1.9040	25.82	-0.03	-0.750			
0.4874	31192.94	3.5960	3.5960	-1.9458	25.81	-0.04	-0.750			
0.4932	31565.67	3.5930	3.5928	-1.9860	25.80	-0.05	-0.750			
0.4992	31948.82	3.5900	3.5900	-2.0170	25.80	-0.05	-0.750			
0.5053	32336.95	3.5870	3.5871	-2.0450	25.79	-0.06	-0.750			
0.5115	32735.93	3.5840	3.5839	-2.0842	25.79	-0.06	-0.750			
0.5179	33147.18	3.5810	3.5809	-2.0907	25.79	-0.06	-0.750			
0.5241	33545.23	3.5780	3.5781	-2.1334	25.78	-0.07	-0.750			
0.5305	33952.03	3.5750	3.5750	-2.1489	25.77	-0.08	-0.750			
0.5370	34368.37	3.5720	3.5718	-2.1770	25.77	-0.08	-0.750			
0.5437	34794.62	3.5690	3.5691	-2.2060	25.77	-0.08	-0.750			
0.5503	35220.87	3.5660	3.5658	-2.2264	25.77	-0.08	-0.750			
0.5571	35651.93	3.5630	3.5633	-2.2555	25.77	-0.08	-0.750			
0.5639	36092.72	3.5600	3.5601	-2.2689	25.77	-0.08	-0.750			
0.5706	36521.33	3.5570	3.5570	-2.2648	25.77	-0.08	-0.750			
0.5774	36956.10	3.5540	3.5539	-2.2716	25.77	-0.08	-0.750			
0.5844	37402.54	3.5510	3.5510	-2.2726	25.77	-0.08	-0.750			
0.5913	37841.02	3.5480	3.5480	-2.2621	25.77	-0.08	-0.750			
0.5980	38269.83	3.5450	3.5450	-2.2325	25.77	-0.08	-0.750			
0.6046	38694.31	3.5420	3.5419	-2.2027	25.77	-0.08	-0.750			
0.6113	39122.27	3.5390	3.5389	-2.1800	25.78	-0.07	-0.750			
0.6178	39537.45	3.5360	3.5361	-2.1513	25.79	-0.06	-0.750			
0.6241	39945.50	3.5330	3.5329	-2.1231	25.79	-0.06	-0.750			
0.6305	40353.90	3.5300	3.5301	-2.0800	25.79	-0.06	-0.750			
0.6367	40749.27	3.5270	3.5270	-2.0512	25.80	-0.05	-0.750			
0.6428	41139.77	3.5240	3.5240	-1.9979	25.82	-0.03	-0.750			
0.6488	41520.82	3.5210	3.5211	-1.9500	25.83	-0.02	-0.750			
0.6545	41889.22	3.5180	3.5181	-1.9049	25.84	-0.01	-0.750			
0.6602	42249.63	3.5150	3.5148	-1.8442	25.85	-0.00	-0.750			
0.6656	42600.91	3.5120	3.5118	-1.7937	25.86	0.01	-0.750			
0.6710	42941.38	3.5090	3.5091	-1.7551	25.87	0.02	-0.750			
0.6761	43271.35	3.5060	3.5062	-1.6978	25.89	0.04	-0.750			
0.6812	43596.88	3.5030	3.5030	-1.6459	25.90	0.05	-0.750			
0.6861	43909.88	3.5000	3.4999	-1.5749	25.91	0.06	-0.750			
0.6907	44206.37	3.4970	3.4970	-1.5286	25.92	0.07	-0.750			
0.6952	44494.93	3.4940	3.4941	-1.4718	25.93	0.08	-0.750			
0.6995	44767.44	3.4910	3.4908	-1.4153	25.95	0.10	-0.750			
0.7036	45029.25	3.4880	3.4880	-1.3598	25.97	0.12	-0.750			
0.7076	45288.74	3.4850	3.4850	-1.3284	25.99	0.14	-0.750			
0.7116	45542.83	3.4820	3.4818	-1.2962	26.01	0.16	-0.750			
0.7154	45786.43	3.4790	3.4790	-1.2541	26.03	0.18	-0.750			
0.7191	46019.36	3.4760	3.4761	-1.2052	26.05	0.20	-0.750			
0.7227	46252.94	3.4730	3.4729	-1.1747	26.06	0.21	-0.750			
0.7261	46472.88	3.4700	3.4699	-1.1322	26.07	0.22	-0.750			
0.7294	46684.55	3.4670	3.4670	-1.0899	26.08	0.23	-0.750			
0.7326	46888.78	3.4640	3.4641	-1.0516	26.09	0.24	-0.750			
0.7357	47087.51	3.4610	3.4610	-1.0190	26.10	0.25	-0.750			
0.7387	47279.20	3.4580	3.4580	-0.9869	26.12	0.27	-0.750			
0.7416	47464.67	3.4550	3.4550	-0.9593	26.13	0.28	-0.750			
0.7445	47646.50	3.4520	3.4520	-0.9333	26.14	0.29	-0.750			
0.7472	47821.52	3.4490	3.4490	-0.9114	26.15	0.30	-0.750			
0.7499	47993.00	3.4460	3.4460	-0.8949	26.16	0.31	-0.750			
0.7525	48161.53	3.4430	3.4430	-0.8873	26.17	0.32	-0.750			
0.7551	48329.48	3.4400	3.4400	-0.8825	26.18	0.33	-0.750			
0.7578	48496.70	3.4370	3.4370	-0.8868	26.19	0.34	-0.750			
0.7604	48667.11	3.4340	3.4340	-0.9027	26.21	0.36	-0.750			
0.7631	48841.26	3.4310	3.4310	-0.9182	26.22	0.37	-0.750			
0.7659	49018.61	3.4280	3.4280	-0.9362	26.23	0.38	-0.750			
0.7688	49200.12	3.4250	3.4251	-0.9559	26.25	0.40	-0.750			
0.7717	49386.21	3.4220	3.4218	-0.9735	26.25	0.40	-0.750			
0.7746	49575.59	3.4190	3.4190	-0.9900	26.26	0.41	-0.750			
0.7776	49767.73	3.4160	3.4160	-0.9978	26.27	0.42	-0.750			
0.7806	49961.01	3.4130	3.4130	-0.9954	26.28	0.43	-0.750			
0.7837	50157.68	3.4100	3.4100	-0.9948	26.28	0.43	-0.750			
0.7867	50349.26	3.4070	3.4070	-0.9781	26.29	0.44	-0.750			
0.7897	50538.47	3.4040	3.4040	-0.9550	26.30	0.45	-0.750			
0.7925	50719.20	3.4010	3.4010	-0.9266	26.30	0.45	-0.750			
0.7952	50894.29	3.3980	3.3980	-0.8964	26.31	0.46	-0.750			
0.7979	51063.76	3.3950	3.3950	-0.8680	26.32	0.47	-0.750			
0.8004	51227.01	3.3920	3.3920	-0.8413	26.33	0.48	-0.750			
0.8029	51386.75	3.3890	3.3890	-0.8104	26.34	0.49	-0.750			
0.8053	51540.52	3.3860	3.3859	-0.7791	26.34	0.49	-0.750			
0.8076	51686.63	3.3830	3.3831	-0.7477	26.35	0.50	-0.750			
0.8098	51826.67	3.3800	3.3800	-0.7162	26.36	0.51	-0.750			
0.8119	51960.19	3.3770	3.3770	-0.6908	26.37	0.52	-0.750			
0.8139	52088.44	3.3740	3.3740	-0.6625	26.37	0.52	-0.750			
0.8158	52213.95	3.3710	3.3710	-0.6399	26.38	0.53	-0.750			
0.8177	52334.62	3.3680	3.3680	-0.6169	26.38	0.53	-0.750			
0.8196	52451.43	3.3650	3.3652	-0.5941	26.39	0.54	-0.750			
0.8213	52562.70	3.3620	3.3619	-0.5700	26.40	0.55	-0.750			
0.8229	52668.76	3.3590	3.3590	-0.5495	26.40	0.55	-0.750			
0.8246	52771.91	3.3560	3.3560	-0.5295	26.41	0.56	-0.750			
0.8261	52871.49	3.3530	3.3530	-0.5113	26.42	0.57	-0.750			
0.8276	52968.12	3.3500	3.3500	-0.4935	26.42	0.57	-0.750			
0.8291	53061.10	3.3470	3.3471	-0.4761	26.43	0.58	-0.750			
0.8305	53151.16	3.3440	3.3440	-0.4589	26.43	0.58	-0.750			
0.8318	53237.19	3.3410	3.3409	-0.4415	26.44	0.59	-0.750			
0.8331	53320.02	3.3380	3.3380	-0.4237	26.44	0.59	-0.750			
0.8344	53399.12	3.3350	3.3350	-0.4095	26.45	0.60	-0.750			
0.8356	53475.79	3.3320	3.3320	-0.3968	26.46	0.61	-0.750			
0.8367	53550.63	3.3290	3.3290	-0.3833	26.46	0.61	-0.750			
0.8379	53623.31	3.3260	3.3259	-0.3709	26.47	0.62	-0.750			
0.8390	53693.41	3.3230	3.3230	-0.3591	26.47	0.62	-0.750			
0.8400	53761.20	3.3200	3.3201	-0.3469	26.48	0.63	-0.750			
0.8410	53826.37	3.3170	3.3171	-0.3376	26.48	0.63	-0.750			
0.8420	53889.21	3.3140	3.3139	-0.3259	26.49	0.64	-0.750			
0.8430	53951.03	3.3110	3.3109	-0.3176	26.49	0.64	-0.750			
0.8439	54011.19	3.3080	3.3080	-0.3094	26.50	0.65	-0.750			
0.8448	54069.52	3.3050	3.3052	-0.3007	26.50	0.65	-0.750			
0.8457	54126.70	3.3020	3.3020	-0.2935	26.51	0.66	-0.750			
0.8466	54182.43	3.2990	3.2989	-0.2856	26.51	0.66	-0.750			
0.8474	54235.60	3.2960	3.2961	-0.2761	26.52	0.67	-0.750			
0.8483	54288.35	3.2930	3.2930	-0.2706	26.52	0.67	-0.750			
0.8491	54339.83	3.2900	3.2901	-0.2643	26.53	0.68	-0.750			
0.8498	54389.87	3.2870	3.2869	-0.2583	26.53	0.68	-0.750			
0.8506	54438.02	3.2840	3.2841	-0.2520	26.54	0.69	-0.750			
0.8513	54485.82	3.2810	3.2810	-0.2469	26.54	0.69	-0.750			
0.8521	54532.70	3.2780	3.2778	-0.2407	26.55	0.70	-0.750			
0.8528	54578.65	3.2750	3.2750	-0.2366	26.55	0.70	-0.750			
0.8535	54623.49	3.2720	3.2720	-0.2312	26.56	0.71	-0.750			
0.8542	54667.41	3.2690	3.2690	-0.2262	26.56	0.71	-0.750			
0.8548	54710.20	3.2660	3.2659	-0.2225	26.57	0.72	-0.750			
0.8555	54752.30	3.2630	3.2630	-0.2179	26.57	0.72	-0.750			
0.8562	54793.65	3.2600	3.2599	-0.2136	26.57	0.72	-0.750			
0.8568	54834.33	3.2570	3.2570	-0.2100	26.58	0.73	-0.750			
0.8574	54874.48	3.2540	3.2541	-0.2074	26.58	0.73	-0.750			
0.8580	54913.69	3.2510	3.2510	-0.2037	26.59	0.74	-0.750			
0.8586	54952.55	3.2480	3.2479	-0.2008	26.59	0.74	-0.750			
0.8592	54990.54	3.2450	3.2450	-0.1973	26.60	0.75	-0.750			
0.8598	55028.19	3.2420	3.2420	-0.1949	26.61	0.76	-0.750			
0.8604	55065.74	3.2390	3.2390	-0.1919	26.61	0.76	-0.750			
0.8610	55102.15	3.2360	3.2360	-0.1893	26.62	0.77	-0.750			
0.8615	55138.20	3.2330	3.2330	-0.1863	26.62	0.77	-0.750			
0.8621	55173.40	3.2300	3.2301	-0.1837	26.63	0.78	-0.750			
0.8626	55208.37	3.2270	3.2269	-0.1815	26.63	0.78	-0.750			
0.8632	55243.05	3.2240	3.2239	-0.1791	26.64	0.79	-0.750			
0.8637	55277.22	3.2210	3.2211	-0.1769	26.64	0.79	-0.750			
0.8642	55310.96	3.2180	3.2180	-0.1746	26.65	0.80	-0.750			
0.8648	55344.51	3.2150	3.2150	-0.1730	26.65	0.80	-0.750			
0.8653	55377.03	3.2120	3.2120	-0.1706	26.66	0.81	-0.750			
0.8658	55409.64	3.2090	3.2091	-0.1691	26.66	0.81	-0.750			
0.8663	55442.02	3.2060	3.2059	-0.1668	26.66	0.81	-0.750			
0.8668	55473.78	3.2030	3.2030	-0.1651	26.67	0.82	-0.750			
0.8673	55505.46	3.2000	3.2001	-0.1637	26.67	0.82	-0.750			
0.8678	55536.77	3.1970	3.1970	-0.1613	26.68	0.83	-0.750			
0.8682	55567.56	3.1940	3.1939	-0.1595	26.68	0.83	-0.750			
0.8687	55597.95	3.1910	3.1910	-0.1572	26.68	0.83	-0.750			
0.8692	55627.82	3.1880	3.1880	-0.1560	26.68	0.83	-0.750			
0.8696	55657.18	3.1850	3.1850	-0.1547	26.68	0.83	-0.750			
0.8701	55687.02	3.1820	3.1819	-0.1538	26.69	0.84	-0.750			
0.8706	55716.24	3.1790	3.1790	-0.1523	26.69	0.84	-0.750			
0.8710	55745.63	3.1760	3.1760	-0.1504	26.70	0.85	-0.750			
0.8715	55774.65	3.1730	3.1732	-0.1492	26.70	0.85	-0.750			
0.8719	55803.12	3.1700	3.1700	-0.1475	26.71	0.86	-0.750			
0.8724	55831.23	3.1670	3.1670	-0.1453	26.72	0.87	-0.750			
0.8728	55858.47	3.1640	3.1640	-0.1445	26.72	0.87	-0.750			
0.8732	55885.94	3.1610	3.1611	-0.1430	26.73	0.88	-0.750			
0.8737	55913.62	3.1580	3.1579	-0.1422	26.73	0.88	-0.750			
0.8741	55940.84	3.1550	3.1549	-0.1413	26.74	0.89	-0.750			
0.8745	55968.21	3.1520	3.1521	-0.1400	26.74	0.89	-0.750			
0.8749	55994.75	3.1490	3.1490	-0.1391	26.75	0.90	-0.750			
0.8753	56021.34	3.1460	3.1461	-0.1378	26.75	0.90	-0.750			
0.8757	56047.64	3.1430	3.1429	-0.1368	26.76	0.91	-0.750			
0.8761	56073.47	3.1400	3.1399	-0.1351	26.76	0.91	-0.750			
0.8766	56099.65	3.1370	3.1370	-0.1343	26.77	0.92	-0.750			
0.8770	56125.53	3.1340	3.1340	-0.1335	26.77	0.92	-0.750			
0.8774	56150.79	3.1310	3.1311	-0.1324	26.78	0.93	-0.750			
0.8778	56176.12	3.1280	3.1280	-0.1312	26.78	0.93	-0.750			
0.8781	56200.92	3.1250	3.1250	-0.1294	26.79	0.94	-0.750			
0.8785	56225.69	3.1220	3.1220	-0.1286	26.79	0.94	-0.750			
0.8789	56250.28	3.1190	3.1189	-0.1279	26.80	0.95	-0.750			
0.8793	56274.82	3.1160	3.1162	-0.1272	26.80	0.95	-0.750			
0.8797	56299.16	3.1130	3.1129	-0.1264	26.81	0.96	-0.750			
0.8801	56323.38	3.1100	3.1100	-0.1259	26.81	0.96	-0.750			
0.8804	56347.48	3.1070	3.1070	-0.1251	26.82	0.97	-0.750			
0.8808	56371.22	3.1040	3.1041	-0.1242	26.82	0.97	-0.750			
0.8812	56395.10	3.1010	3.1010	-0.1236	26.83	0.98	-0.750			
0.8815	56418.89	3.0980	3.0980	-0.1231	26.83	0.98	-0.750			
0.8819	56442.69	3.0950	3.0950	-0.1217	26.84	0.99	-0.750			
0.8823	56465.93	3.0920	3.0919	-0.1204	26.84	0.99	-0.750			
0.8826	56489.00	3.0890	3.0890	-0.1196	26.85	1.00	-0.750			
0.8830	56511.83	3.0860	3.0861	-0.1183	26.85	1.00	-0.750			
0.8833	56534.14	3.0830	3.0830	-0.1175	26.86	1.01	-0.750			
0.8837	56556.45	3.0800	3.0798	-0.1164	26.86	1.01	-0.750			
0.8840	56578.75	3.0770	3.0770	-0.1160	26.87	1.02	-0.750			
0.8844	56600.73	3.0740	3.0740	-0.1152	26.87	1.02	-0.750			
0.8847	56623.05	3.0710	3.0710	-0.1145	26.88	1.03	-0.750			
0.8851	56645.31	3.0680	3.0680	-0.1144	26.88	1.03	-0.750			
0.8854	56667.10	3.0650	3.0650	-0.1136	26.89	1.04	-0.750			
0.8858	56688.85	3.0620	3.0620	-0.1128	26.89	1.04	-0.750			
0.8861	56710.34	3.0590	3.0591	-0.1122	26.90	1.05	-0.750			
0.8864	56731.69	3.0560	3.0559	-0.1113	26.90	1.05	-0.750			
0.8868	56753.06	3.0530	3.0530	-0.1107	26.91	1.06	-0.750			
0.8871	56774.21	3.0500	3.0500	-0.1101	26.91	1.06	-0.750			
0.8874	56795.34	3.0470	3.0471	-0.1096	26.92	1.07	-0.750			
0.8878	56816.45	3.0440	3.0440	-0.1092	26.92	1.07	-0.750			
0.8881	56837.37	3.0410	3.0410	-0.1084	26.93	1.08	-0.750			
0.8884	56858.11	3.0380	3.0380	-0.1076	26.93	1.08	-0.750			
0.8887	56878.70	3.0350	3.0349	-0.1069	26.94	1.09	-0.750			
0.8890	56899.09	3.0320	3.0320	-0.1062	26.94	1.09	-0.750			
0.8894	56919.43	3.0290	3.0290	-0.1056	26.95	1.10	-0.750			
0.8897	56939.50	3.0260	3.0260	-0.1054	26.95	1.10	-0.750			
0.8900	56959.71	3.0230	3.0230	-0.1051	26.96	1.11	-0.750			
0.8903	56980.12	3.0200	3.0200	-0.1036	26.96	1.11	-0.750			
0.8906	56999.91	3.0170	3.0169	-0.1025	26.96	1.11	-0.750			
0.8909	57019.89	3.0140	3.0141	-0.1013	26.97	1.12	-0.750			
0.8912	57039.16	3.0110	3.0111	-0.0993	26.97	1.12	-0.750			
0.8915	57058.31	3.0080	3.0079	-0.0971	26.98	1.13	-0.750			
0.8918	57076.68	3.0050	3.0049	-0.0943	26.98	1.13	-0.751			
0.8921	57094.59	3.0020	3.0021	-0.0954	26.99	1.14	-0.751			
