Ah_balance (normalized)	Ah_balance (mAh)	Voltage - fit (V)	Voltage -  interpolate (V)	dQ/dV (1/V)	Temperature (°C)	Temperature - diff (°C)	Current (C)	R_DC 0ms (mOhm)	R_DC 50ms (mOhm)	R_DC 50 ms PEC (mOhm)
0.0568	3633.67	4.1990	4.1990	0.7628	25.68	-0.25	0.750			
0.0591	3779.23	4.1960	4.1957	0.7536	25.68	-0.25	0.750			
0.0613	3921.61	4.1930	4.1932	0.7456	25.68	-0.25	0.750			
0.0635	4065.30	4.1900	4.1900	0.7423	25.68	-0.25	0.750			
0.0657	4207.33	4.1870	4.1869	0.7432	25.67	-0.26	0.750			
0.0680	4349.67	4.1840	4.1840	0.7361	25.67	-0.26	0.750			
0.0702	4490.99	4.1810	4.1811	0.7382	25.67	-0.26	0.750			
0.0724	4632.34	4.1780	4.1782	0.7418	25.67	-0.26	0.750			
0.0746	4774.48	4.1750	4.1749	0.7419	25.67	-0.26	0.750			
0.0768	4916.91	4.1720	4.1719	0.7390	25.67	-0.26	0.750			
0.0790	5058.68	4.1690	4.1690	0.7427	25.67	-0.26	0.750			
0.0813	5202.56	4.1660	4.1661	0.7448	25.67	-0.26	0.750			
0.0835	5345.14	4.1630	4.1629	0.7486	25.67	-0.26	0.750			
0.0857	5487.52	4.1600	4.1601	0.7482	25.67	-0.26	0.750			
0.0880	5632.28	4.1570	4.1570	0.7477	25.67	-0.26	0.750			
0.0902	5775.82	4.1540	4.1540	0.7561	25.67	-0.26	0.750			
0.0925	5921.24	4.1510	4.1510	0.7564	25.68	-0.25	0.750			
0.0948	6067.60	4.1480	4.1480	0.7593	25.68	-0.25	0.750			
0.0971	6215.57	4.1450	4.1450	0.7577	25.68	-0.25	0.750			
0.0993	6357.84	4.1420	4.1421	0.7637	25.68	-0.25	0.750			
0.1016	6504.20	4.1390	4.1391	0.7714	25.68	-0.25	0.750			
0.1040	6653.61	4.1360	4.1359	0.7788	25.68	-0.25	0.750			
0.1063	6803.28	4.1330	4.1329	0.7771	25.68	-0.25	0.750			
0.1087	6955.00	4.1300	4.1300	0.7849	25.68	-0.25	0.750			
0.1111	7109.69	4.1270	4.1271	0.7853	25.68	-0.25	0.750			
0.1135	7261.20	4.1240	4.1240	0.7766	25.68	-0.25	0.750			
0.1157	7404.17	4.1210	4.1210	0.7663	25.68	-0.25	0.750			
0.1180	7552.14	4.1180	4.1180	0.7677	25.68	-0.25	0.750			
0.1203	7698.22	4.1150	4.1150	0.7677	25.68	-0.25	0.750			
0.1226	7845.02	4.1120	4.1120	0.7726	25.68	-0.25	0.750			
0.1249	7995.28	4.1090	4.1092	0.7739	25.68	-0.25	0.750			
0.1273	8145.60	4.1060	4.1060	0.7781	25.68	-0.25	0.750			
0.1296	8295.64	4.1030	4.1029	0.7794	25.69	-0.24	0.750			
0.1319	8444.48	4.1000	4.1001	0.7741	25.69	-0.24	0.750			
0.1342	8591.14	4.0970	4.0970	0.7785	25.69	-0.24	0.750			
0.1365	8739.20	4.0940	4.0940	0.7832	25.69	-0.24	0.750			
0.1389	8890.33	4.0910	4.0910	0.7816	25.69	-0.24	0.750			
0.1413	9041.67	4.0880	4.0879	0.7890	25.70	-0.23	0.750			
0.1437	9195.13	4.0850	4.0851	0.7898	25.70	-0.23	0.750			
0.1460	9346.80	4.0820	4.0819	0.7926	25.70	-0.23	0.750			
0.1484	9499.55	4.0790	4.0790	0.7939	25.70	-0.23	0.750			
0.1508	9652.65	4.0760	4.0759	0.7832	25.70	-0.23	0.750			
0.1531	9800.77	4.0730	4.0730	0.7880	25.70	-0.23	0.750			
0.1555	9953.62	4.0700	4.0701	0.7919	25.70	-0.23	0.750			
0.1579	10103.42	4.0670	4.0670	0.7948	25.70	-0.23	0.750			
0.1603	10257.04	4.0640	4.0641	0.8012	25.70	-0.23	0.750			
0.1627	10411.34	4.0610	4.0610	0.7965	25.71	-0.22	0.750			
0.1651	10564.82	4.0580	4.0580	0.8024	25.71	-0.22	0.750			
0.1675	10721.05	4.0550	4.0551	0.8090	25.71	-0.22	0.750			
0.1699	10872.89	4.0520	4.0519	0.8068	25.72	-0.21	0.750			
0.1723	11029.01	4.0490	4.0489	0.8122	25.72	-0.21	0.750			
0.1748	11186.20	4.0460	4.0460	0.8076	25.72	-0.21	0.750			
0.1772	11341.39	4.0430	4.0430	0.8140	25.72	-0.21	0.750			
0.1797	11498.23	4.0400	4.0402	0.8186	25.72	-0.21	0.750			
0.1821	11654.48	4.0370	4.0369	0.8198	25.72	-0.21	0.750			
0.1845	11811.06	4.0340	4.0339	0.8242	25.72	-0.21	0.750			
0.1871	11972.91	4.0310	4.0311	0.8216	25.72	-0.21	0.750			
0.1896	12131.32	4.0280	4.0281	0.8283	25.72	-0.21	0.750			
0.1920	12290.34	4.0250	4.0249	0.8321	25.73	-0.20	0.750			
0.1945	12448.77	4.0220	4.0221	0.8304	25.73	-0.20	0.750			
0.1970	12606.59	4.0190	4.0188	0.8317	25.73	-0.20	0.750			
0.1995	12768.54	4.0160	4.0160	0.8291	25.73	-0.20	0.750			
0.2020	12928.99	4.0130	4.0131	0.8325	25.74	-0.19	0.750			
0.2045	13089.83	4.0100	4.0100	0.8346	25.74	-0.19	0.750			
0.2070	13248.32	4.0070	4.0070	0.8323	25.75	-0.18	0.750			
0.2095	13405.67	4.0040	4.0040	0.8362	25.75	-0.18	0.750			
0.2120	13569.37	4.0010	4.0010	0.8370	25.75	-0.18	0.750			
0.2145	13730.52	3.9980	3.9980	0.8453	25.75	-0.18	0.750			
0.2171	13894.56	3.9950	3.9951	0.8513	25.75	-0.18	0.750			
0.2197	14058.07	3.9920	3.9921	0.8511	25.75	-0.18	0.750			
0.2222	14222.46	3.9890	3.9891	0.8519	25.75	-0.18	0.750			
0.2248	14386.47	3.9860	3.9860	0.8503	25.76	-0.17	0.750			
0.2273	14548.04	3.9830	3.9831	0.8523	25.76	-0.17	0.750			
0.2299	14713.31	3.9800	3.9800	0.8547	25.76	-0.17	0.750			
0.2324	14876.21	3.9770	3.9770	0.8547	25.77	-0.16	0.750			
0.2350	15041.52	3.9740	3.9741	0.8563	25.77	-0.16	0.750			
0.2376	15206.68	3.9710	3.9709	0.8573	25.77	-0.16	0.750			
0.2402	15372.05	3.9680	3.9680	0.8593	25.77	-0.16	0.750			
0.2428	15536.80	3.9650	3.9651	0.8603	25.77	-0.16	0.750			
0.2453	15700.96	3.9620	3.9619	0.8626	25.77	-0.16	0.750			
0.2479	15867.46	3.9590	3.9590	0.8662	25.77	-0.16	0.750			
0.2505	16033.47	3.9560	3.9559	0.8627	25.77	-0.16	0.750			
0.2531	16199.99	3.9530	3.9530	0.8650	25.77	-0.16	0.750			
0.2557	16366.40	3.9500	3.9501	0.8644	25.77	-0.16	0.750			
0.2583	16533.16	3.9470	3.9468	0.8667	25.77	-0.16	0.750			
0.2609	16698.55	3.9440	3.9441	0.8658	25.77	-0.16	0.750			
0.2635	16865.04	3.9410	3.9410	0.8658	25.77	-0.16	0.750			
0.2661	17031.58	3.9380	3.9381	0.8700	25.77	-0.16	0.750			
0.2687	17199.03	3.9350	3.9350	0.8789	25.77	-0.16	0.750			
0.2714	17367.05	3.9320	3.9319	0.8816	25.77	-0.16	0.750			
0.2740	17537.46	3.9290	3.9289	0.8841	25.77	-0.16	0.750			
0.2767	17707.89	3.9260	3.9261	0.8877	25.77	-0.16	0.750			
0.2794	17880.84	3.9230	3.9230	0.8881	25.77	-0.16	0.750			
0.2821	18051.66	3.9200	3.9200	0.8895	25.77	-0.16	0.750			
0.2847	18220.96	3.9170	3.9171	0.8898	25.77	-0.16	0.750			
0.2874	18391.10	3.9140	3.9140	0.8918	25.76	-0.17	0.750			
0.2900	18563.12	3.9110	3.9109	0.8939	25.76	-0.17	0.750			
0.2927	18734.34	3.9080	3.9081	0.9009	25.75	-0.18	0.750			
0.2954	18908.22	3.9050	3.9049	0.9043	25.74	-0.19	0.750			
0.2982	19082.26	3.9020	3.9020	0.9106	25.74	-0.19	0.750			
0.3009	19257.05	3.8990	3.8990	0.9062	25.73	-0.20	0.750			
0.3036	19431.43	3.8960	3.8960	0.9083	25.73	-0.20	0.750			
0.3063	19605.23	3.8930	3.8931	0.9160	25.72	-0.21	0.750			
0.3091	19781.73	3.8900	3.8896	0.9216	25.72	-0.21	0.750			
0.3119	19959.69	3.8870	3.8870	0.9156	25.72	-0.21	0.750			
0.3146	20136.52	3.8840	3.8839	0.9216	25.71	-0.22	0.750			
0.3174	20314.31	3.8810	3.8811	0.9241	25.71	-0.22	0.750			
0.3202	20491.02	3.8780	3.8780	0.9227	25.70	-0.23	0.750			
0.3229	20668.64	3.8750	3.8751	0.9303	25.70	-0.23	0.750			
0.3257	20845.72	3.8720	3.8720	0.9242	25.69	-0.24	0.750			
0.3285	21024.90	3.8690	3.8691	0.9311	25.68	-0.25	0.750			
0.3313	21206.18	3.8660	3.8660	0.9375	25.68	-0.25	0.750			
0.3341	21384.21	3.8630	3.8629	0.9319	25.67	-0.26	0.750			
0.3370	21568.45	3.8600	3.8600	0.9081	25.66	-0.27	0.750			
0.3397	21739.91	3.8570	3.8570	0.8966	25.66	-0.27	0.750			
0.3423	21909.10	3.8540	3.8543	0.8907	25.65	-0.28	0.750			
0.3449	22075.53	3.8510	3.8511	0.8969	25.64	-0.29	0.750			
0.3476	22243.41	3.8480	3.8478	0.9043	25.64	-0.29	0.750			
0.3503	22417.62	3.8450	3.8451	0.9193	25.63	-0.30	0.750			
0.3531	22596.99	3.8420	3.8421	0.9415	25.63	-0.30	0.750			
0.3560	22784.57	3.8390	3.8390	0.9633	25.62	-0.31	0.750			
0.3589	22970.71	3.8360	3.8357	0.9691	25.62	-0.31	0.750			
0.3619	23159.42	3.8330	3.8330	0.9635	25.61	-0.32	0.750			
0.3647	23343.70	3.8300	3.8301	0.9720	25.61	-0.32	0.750			
0.3677	23530.16	3.8270	3.8270	0.9840	25.60	-0.33	0.750			
0.3706	23719.93	3.8240	3.8240	0.9808	25.59	-0.34	0.750			
0.3736	23910.71	3.8210	3.8210	0.9786	25.58	-0.35	0.750			
0.3765	24097.21	3.8180	3.8183	0.9904	25.58	-0.35	0.750			
0.3795	24287.72	3.8150	3.8151	1.0005	25.57	-0.36	0.750			
0.3825	24480.67	3.8120	3.8120	1.0170	25.56	-0.37	0.750			
0.3855	24673.35	3.8090	3.8091	1.0112	25.56	-0.37	0.750			
0.3886	24868.40	3.8060	3.8061	1.0312	25.55	-0.38	0.750			
0.3918	25072.58	3.8030	3.8030	1.0511	25.55	-0.38	0.750			
0.3949	25275.08	3.8000	3.8002	1.0663	25.54	-0.39	0.750			
0.3981	25479.62	3.7970	3.7970	1.0627	25.53	-0.40	0.750			
0.4013	25684.93	3.7940	3.7940	1.0798	25.52	-0.41	0.750			
0.4046	25892.93	3.7910	3.7911	1.0963	25.51	-0.42	0.750			
0.4079	26104.83	3.7880	3.7880	1.1174	25.50	-0.43	0.750			
0.4112	26317.76	3.7850	3.7850	1.1231	25.50	-0.43	0.750			
0.4146	26531.59	3.7820	3.7821	1.1547	25.49	-0.44	0.750			
0.4180	26754.34	3.7790	3.7791	1.1908	25.49	-0.44	0.750			
0.4217	26990.23	3.7760	3.7756	1.2185	25.48	-0.45	0.750			
0.4254	27226.58	3.7730	3.7730	1.2412	25.47	-0.46	0.750			
0.4292	27469.15	3.7700	3.7701	1.2608	25.47	-0.46	0.750	0.306	0.454	
0.4331	27719.87	3.7670	3.7669	1.2728	25.46	-0.47	0.750			
0.4369	27961.14	3.7640	3.7639	1.2894	25.46	-0.47	0.750			
0.4407	28203.59	3.7610	3.7610	1.3094	25.45	-0.48	0.750			
0.4447	28461.16	3.7580	3.7580	1.3364	25.44	-0.49	0.750			
0.4488	28724.12	3.7550	3.7551	1.3702	25.44	-0.49	0.750			
0.4530	28989.01	3.7520	3.7521	1.4048	25.43	-0.50	0.750			
0.4573	29264.84	3.7490	3.7489	1.4280	25.42	-0.51	0.750			
0.4616	29541.95	3.7460	3.7461	1.4646	25.42	-0.51	0.750			
0.4659	29817.86	3.7430	3.7428	1.5055	25.41	-0.52	0.750			
0.4705	30115.17	3.7400	3.7401	1.5482	25.40	-0.53	0.750			
0.4752	30415.98	3.7370	3.7371	1.6005	25.39	-0.54	0.750			
0.4802	30735.76	3.7340	3.7341	1.6314	25.39	-0.54	0.750			
0.4852	31054.66	3.7310	3.7312	1.6600	25.38	-0.55	0.750			
0.4903	31378.98	3.7280	3.7282	1.7145	25.37	-0.56	0.750			
0.4954	31705.44	3.7250	3.7248	1.7448	25.36	-0.57	0.750			
0.5006	32041.28	3.7220	3.7223	1.7894	25.35	-0.58	0.750			
0.5061	32392.05	3.7190	3.7195	1.8633	25.34	-0.59	0.750			
0.5118	32753.15	3.7160	3.7161	1.8971	25.34	-0.59	0.750			
0.5176	33128.70	3.7130	3.7131	1.9611	25.33	-0.60	0.750			
0.5235	33503.52	3.7100	3.7099	2.0291	25.32	-0.61	0.750			
0.5297	33900.08	3.7070	3.7070	2.0927	25.31	-0.62	0.750			
0.5360	34306.48	3.7040	3.7040	2.1892	25.30	-0.63	0.750			
0.5427	34734.93	3.7010	3.7010	2.2821	25.30	-0.63	0.750			
0.5498	35184.55	3.6980	3.6978	2.3066	25.29	-0.64	0.750			
0.5568	35636.64	3.6950	3.6953	2.3990	25.28	-0.65	0.750			
0.5641	36102.29	3.6920	3.6922	2.4285	25.28	-0.65	0.750			
0.5714	36570.00	3.6890	3.6888	2.4974	25.28	-0.65	0.750			
0.5789	37046.77	3.6860	3.6862	2.5412	25.28	-0.65	0.750			
0.5867	37551.03	3.6830	3.6829	2.6380	25.28	-0.65	0.750			
0.5948	38070.12	3.6800	3.6800	2.7558	25.28	-0.65	0.750			
0.6035	38622.63	3.6770	3.6771	2.7868	25.29	-0.64	0.750			
0.6121	39172.13	3.6740	3.6743	2.7157	25.29	-0.64	0.750			
0.6203	39701.60	3.6710	3.6711	2.5703	25.30	-0.63	0.750			
0.6276	40169.04	3.6680	3.6681	2.2904	25.31	-0.62	0.750			
0.6337	40559.75	3.6650	3.6650	2.0483	25.32	-0.61	0.750			
0.6396	40935.97	3.6620	3.6620	1.8694	25.33	-0.60	0.750			
0.6447	41261.28	3.6590	3.6591	1.7197	25.34	-0.59	0.750			
0.6494	41563.69	3.6560	3.6561	1.5935	25.35	-0.58	0.750			
0.6542	41868.48	3.6530	3.6528	1.5072	25.36	-0.57	0.750			
0.6587	42156.59	3.6500	3.6499	1.4150	25.37	-0.56	0.750			
0.6628	42418.80	3.6470	3.6470	1.3343	25.38	-0.55	0.750			
0.6664	42652.35	3.6440	3.6442	1.2543	25.39	-0.54	0.750			
0.6700	42879.11	3.6410	3.6409	1.1970	25.40	-0.53	0.750			
0.6735	43102.36	3.6380	3.6380	1.1707	25.40	-0.53	0.750			
0.6769	43320.07	3.6350	3.6351	1.1551	25.41	-0.52	0.750			
0.6803	43539.87	3.6320	3.6321	1.1687	25.41	-0.52	0.750			
0.6839	43769.20	3.6290	3.6287	1.1729	25.42	-0.51	0.750			
0.6874	43991.79	3.6260	3.6260	1.1731	25.43	-0.50	0.750			
0.6909	44220.44	3.6230	3.6230	1.1782	25.44	-0.49	0.750			
0.6946	44451.79	3.6200	3.6202	1.1770	25.45	-0.48	0.750			
0.6981	44678.99	3.6170	3.6171	1.1486	25.45	-0.48	0.750			
0.7015	44899.03	3.6140	3.6140	1.1373	25.46	-0.47	0.750			
0.7049	45112.57	3.6110	3.6111	1.1211	25.47	-0.46	0.750			
0.7082	45326.06	3.6080	3.6078	1.1158	25.48	-0.45	0.750			
0.7115	45535.22	3.6050	3.6051	1.1016	25.48	-0.45	0.750			
0.7147	45742.78	3.6020	3.6021	1.1069	25.49	-0.44	0.750			
0.7180	45954.74	3.5990	3.5991	1.1291	25.49	-0.44	0.750			
0.7215	46175.26	3.5960	3.5955	1.1441	25.50	-0.43	0.750			
0.7249	46392.70	3.5930	3.5930	1.1756	25.51	-0.42	0.750			
0.7284	46619.42	3.5900	3.5902	1.2167	25.51	-0.42	0.750			
0.7322	46859.17	3.5870	3.5869	1.2519	25.52	-0.41	0.750			
0.7359	47098.00	3.5840	3.5842	1.3037	25.52	-0.41	0.750			
0.7399	47352.04	3.5810	3.5811	1.3531	25.53	-0.40	0.750			
0.7441	47622.04	3.5780	3.5780	1.3941	25.54	-0.39	0.750			
0.7485	47902.72	3.5750	3.5749	1.4335	25.54	-0.39	0.750			
0.7528	48177.28	3.5720	3.5721	1.4684	25.55	-0.38	0.750			
0.7573	48464.05	3.5690	3.5691	1.4894	25.56	-0.37	0.750			
0.7618	48753.07	3.5660	3.5661	1.5257	25.56	-0.37	0.750			
0.7663	49043.54	3.5630	3.5627	1.5442	25.57	-0.36	0.750			
0.7711	49347.34	3.5600	3.5601	1.5876	25.58	-0.35	0.750			
0.7759	49654.44	3.5570	3.5573	1.6344	25.59	-0.34	0.750			
0.7809	49975.30	3.5540	3.5542	1.6270	25.60	-0.33	0.750			
0.7858	50293.52	3.5510	3.5507	1.6316	25.61	-0.32	0.750			
0.7908	50609.67	3.5480	3.5480	1.6615	25.62	-0.31	0.750			
0.7957	50925.10	3.5450	3.5452	1.6823	25.64	-0.29	0.750			
0.8007	51247.33	3.5420	3.5422	1.7135	25.65	-0.28	0.750			
0.8060	51586.22	3.5390	3.5392	1.7126	25.66	-0.27	0.750			
0.8115	51934.80	3.5360	3.5357	1.6769	25.68	-0.25	0.750			
0.8170	52285.16	3.5330	3.5328	1.5233	25.70	-0.23	0.750			
0.8216	52584.61	3.5300	3.5300	1.3222	25.72	-0.21	0.750			
0.8252	52815.42	3.5270	3.5272	1.0689	25.75	-0.18	0.750			
0.8277	52972.20	3.5240	3.5237	0.7816	25.76	-0.17	0.750			
0.8292	53067.18	3.5210	3.5209	0.5834	25.78	-0.15	0.750			
0.8304	53148.49	3.5180	3.5177	0.4542	25.78	-0.15	0.750			
0.8315	53216.12	3.5150	3.5148	0.3818	25.79	-0.14	0.750			
0.8325	53283.14	3.5120	3.5120	0.3500	25.80	-0.13	0.750			
0.8335	53344.95	3.5090	3.5090	0.3278	25.81	-0.12	0.750			
0.8345	53405.86	3.5060	3.5061	0.3135	25.82	-0.11	0.750			
0.8354	53463.42	3.5030	3.5030	0.2997	25.83	-0.10	0.750			
0.8362	53519.64	3.5000	3.4999	0.2891	25.84	-0.09	0.750			
0.8371	53574.42	3.4970	3.4970	0.2809	25.84	-0.09	0.750			
0.8379	53627.26	3.4940	3.4940	0.2717	25.85	-0.08	0.750			
0.8387	53678.09	3.4910	3.4911	0.2664	25.86	-0.07	0.750			
0.8395	53728.51	3.4880	3.4879	0.2590	25.87	-0.06	0.750			
0.8403	53778.00	3.4850	3.4849	0.2536	25.87	-0.06	0.750			
0.8410	53826.22	3.4820	3.4819	0.2471	25.88	-0.05	0.750			
0.8418	53873.15	3.4790	3.4791	0.2422	25.89	-0.04	0.750			
0.8425	53919.03	3.4760	3.4759	0.2357	25.89	-0.04	0.750			
0.8432	53963.53	3.4730	3.4730	0.2299	25.90	-0.03	0.750			
0.8438	54005.73	3.4700	3.4700	0.2226	25.91	-0.02	0.750			
0.8445	54049.36	3.4670	3.4669	0.2205	25.91	-0.02	0.750			
0.8452	54091.17	3.4640	3.4641	0.2151	25.92	-0.01	0.750			
0.8458	54131.71	3.4610	3.4610	0.2103	25.92	-0.01	0.750			
0.8464	54171.92	3.4580	3.4581	0.2057	25.93	-0.00	0.750			
0.8470	54211.14	3.4550	3.4549	0.1995	25.94	0.01	0.750			
0.8476	54248.85	3.4520	3.4519	0.1934	25.94	0.01	0.750			
0.8482	54285.57	3.4490	3.4491	0.1875	25.95	0.02	0.750			
0.8488	54320.62	3.4460	3.4462	0.1814	25.95	0.02	0.750			
0.8493	54355.08	3.4430	3.4429	0.1764	25.96	0.03	0.750			
0.8498	54388.38	3.4400	3.4400	0.1704	25.96	0.03	0.750			
0.8503	54419.94	3.4370	3.4370	0.1648	25.97	0.04	0.750			
0.8508	54451.15	3.4340	3.4340	0.1597	25.97	0.04	0.750			
0.8513	54481.98	3.4310	3.4309	0.1547	25.97	0.04	0.750			
0.8517	54511.08	3.4280	3.4280	0.1484	25.98	0.05	0.750			
0.8522	54538.94	3.4250	3.4250	0.1429	25.98	0.05	0.750			
0.8526	54565.90	3.4220	3.4221	0.1366	25.99	0.06	0.750			
0.8530	54591.59	3.4190	3.4189	0.1305	25.99	0.06	0.750			
0.8534	54616.25	3.4160	3.4159	0.1235	25.99	0.06	0.750			
0.8537	54639.29	3.4130	3.4131	0.1165	26.00	0.07	0.750			
0.8541	54661.23	3.4100	3.4102	0.1098	26.00	0.07	0.750			
0.8544	54682.90	3.4070	3.4069	0.1019	26.00	0.07	0.750			
0.8547	54701.47	3.4040	3.4039	0.0916	26.01	0.08	0.750			
0.8550	54718.26	3.4010	3.4010	0.0817	26.01	0.08	0.750			
0.8552	54732.93	3.3980	3.3984	0.0711	26.01	0.08	0.750			
0.8554	54746.48	3.3950	3.3953	0.0612	26.01	0.08	0.750			
0.8556	54757.13	3.3920	3.3927	0.0497	26.01	0.08	0.750			
0.8557	54765.55	3.3890	3.3903	0.0381	26.02	0.09	0.750			
0.8558	54771.75	3.3860	3.3879	0.0265	26.02	0.09	0.750			
0.8559	54775.74	3.3830	3.3860	0.0150	26.02	0.09	0.750			
