Ah_balance (normalized)	Ah_balance (mAh)	Voltage - fit (V)	Voltage -  interpolate (V)	dQ/dV (1/V)	Temperature (°C)	Temperature - diff (°C)	Current (C)	R_DC 0ms (mOhm)	R_DC 50ms (mOhm)	R_DC 50 ms PEC (mOhm)
0.0005	28.94	4.1610	4.1610	-0.1443	25.77	0.02	-0.750			
0.0010	61.78	4.1580	4.1578	-0.1864	25.77	0.02	-0.750			
0.0016	101.35	4.1550	4.1550	-0.2237	25.77	0.02	-0.750			
0.0023	147.59	4.1520	4.1521	-0.2621	25.76	0.01	-0.750			
0.0032	201.75	4.1490	4.1490	-0.3016	25.76	0.01	-0.750			
0.0041	263.66	4.1460	4.1459	-0.3375	25.76	0.01	-0.750			
0.0052	332.28	4.1430	4.1430	-0.3714	25.75	0.00	-0.750			
0.0064	407.23	4.1400	4.1401	-0.4052	25.75	0.00	-0.750			
0.0077	489.85	4.1370	4.1370	-0.4368	25.75	-0.00	-0.750			
0.0090	576.81	4.1340	4.1339	-0.4640	25.74	-0.01	-0.750			
0.0104	668.67	4.1310	4.1311	-0.4896	25.74	-0.01	-0.750			
0.0120	765.86	4.1280	4.1280	-0.5118	25.73	-0.02	-0.750			
0.0136	868.43	4.1250	4.1249	-0.5332	25.73	-0.02	-0.750			
0.0152	972.83	4.1220	4.1220	-0.5488	25.72	-0.03	-0.750			
0.0169	1078.87	4.1190	4.1191	-0.5661	25.72	-0.03	-0.750			
0.0186	1189.42	4.1160	4.1160	-0.5817	25.71	-0.04	-0.750			
0.0204	1302.56	4.1130	4.1129	-0.5952	25.71	-0.04	-0.750			
0.0222	1418.38	4.1100	4.1100	-0.6063	25.70	-0.05	-0.750			
0.0240	1538.22	4.1070	4.1071	-0.6169	25.70	-0.05	-0.750			
0.0259	1656.79	4.1040	4.1040	-0.6322	25.69	-0.06	-0.750			
0.0278	1779.94	4.1010	4.1009	-0.6389	25.69	-0.06	-0.750			
0.0297	1903.17	4.0980	4.0979	-0.6447	25.68	-0.07	-0.750			
0.0317	2028.51	4.0950	4.0953	-0.6481	25.68	-0.07	-0.750			
0.0337	2154.37	4.0920	4.0919	-0.6563	25.68	-0.07	-0.750			
0.0356	2280.03	4.0890	4.0891	-0.6647	25.67	-0.08	-0.750			
0.0376	2407.58	4.0860	4.0860	-0.6694	25.67	-0.08	-0.750			
0.0396	2536.49	4.0830	4.0828	-0.6753	25.67	-0.08	-0.750			
0.0417	2667.75	4.0800	4.0800	-0.6798	25.66	-0.09	-0.750			
0.0437	2798.34	4.0770	4.0771	-0.6852	25.66	-0.09	-0.750			
0.0458	2930.62	4.0740	4.0740	-0.6880	25.66	-0.09	-0.750			
0.0478	3061.70	4.0710	4.0709	-0.6890	25.66	-0.09	-0.750			
0.0499	3194.06	4.0680	4.0681	-0.6961	25.66	-0.09	-0.750			
0.0520	3329.41	4.0650	4.0650	-0.6994	25.66	-0.09	-0.750			
0.0541	3465.22	4.0620	4.0620	-0.7049	25.66	-0.09	-0.750			
0.0563	3601.64	4.0590	4.0591	-0.7038	25.66	-0.09	-0.750			
0.0584	3735.72	4.0560	4.0560	-0.7043	25.66	-0.09	-0.750			
0.0605	3870.81	4.0530	4.0529	-0.7086	25.66	-0.09	-0.750			
0.0626	4005.12	4.0500	4.0501	-0.7118	25.66	-0.09	-0.750			
0.0647	4143.24	4.0470	4.0470	-0.7129	25.66	-0.09	-0.750			
0.0669	4282.13	4.0440	4.0440	-0.7217	25.66	-0.09	-0.750			
0.0691	4420.72	4.0410	4.0411	-0.7226	25.66	-0.09	-0.750			
0.0713	4561.45	4.0380	4.0379	-0.7213	25.66	-0.09	-0.750			
0.0734	4698.69	4.0350	4.0350	-0.7178	25.66	-0.09	-0.750			
0.0755	4834.80	4.0320	4.0321	-0.7218	25.66	-0.09	-0.750			
0.0777	4975.03	4.0290	4.0289	-0.7238	25.66	-0.09	-0.750			
0.0799	5114.15	4.0260	4.0259	-0.7278	25.66	-0.09	-0.750			
0.0821	5252.66	4.0230	4.0232	-0.7281	25.66	-0.09	-0.750			
0.0843	5393.19	4.0200	4.0199	-0.7321	25.66	-0.09	-0.750			
0.0865	5534.36	4.0170	4.0170	-0.7399	25.66	-0.09	-0.750			
0.0887	5676.49	4.0140	4.0139	-0.7390	25.66	-0.09	-0.750			
0.0909	5820.33	4.0110	4.0110	-0.7423	25.66	-0.09	-0.750			
0.0932	5963.38	4.0080	4.0079	-0.7444	25.66	-0.09	-0.750			
0.0954	6106.25	4.0050	4.0050	-0.7406	25.66	-0.09	-0.750			
0.0976	6248.19	4.0020	4.0019	-0.7421	25.66	-0.09	-0.750			
0.0998	6389.13	3.9990	3.9991	-0.7461	25.66	-0.09	-0.750			
0.1021	6532.44	3.9960	3.9959	-0.7418	25.67	-0.08	-0.750			
0.1043	6677.98	3.9930	3.9929	-0.7498	25.67	-0.08	-0.750			
0.1066	6821.00	3.9900	3.9903	-0.7496	25.67	-0.08	-0.750			
0.1088	6964.48	3.9870	3.9870	-0.7501	25.67	-0.08	-0.750			
0.1111	7108.49	3.9840	3.9839	-0.7579	25.67	-0.08	-0.750			
0.1133	7253.93	3.9810	3.9809	-0.7565	25.68	-0.07	-0.750			
0.1156	7399.37	3.9780	3.9781	-0.7637	25.68	-0.07	-0.750			
0.1179	7547.35	3.9750	3.9749	-0.7642	25.68	-0.07	-0.750			
0.1202	7694.31	3.9720	3.9720	-0.7644	25.68	-0.07	-0.750			
0.1225	7839.28	3.9690	3.9690	-0.7678	25.68	-0.07	-0.750			
0.1248	7985.87	3.9660	3.9659	-0.7663	25.68	-0.07	-0.750			
0.1271	8132.97	3.9630	3.9630	-0.7682	25.67	-0.08	-0.750			
0.1294	8282.11	3.9600	3.9598	-0.7767	25.67	-0.08	-0.750			
0.1317	8431.86	3.9570	3.9574	-0.7773	25.67	-0.08	-0.750			
0.1341	8583.18	3.9540	3.9540	-0.7772	25.67	-0.08	-0.750			
0.1364	8732.58	3.9510	3.9510	-0.7807	25.67	-0.08	-0.750			
0.1388	8882.36	3.9480	3.9480	-0.7814	25.68	-0.07	-0.750			
0.1411	9030.82	3.9450	3.9450	-0.7871	25.68	-0.07	-0.750			
0.1435	9181.52	3.9420	3.9420	-0.7894	25.68	-0.07	-0.750			
0.1459	9335.22	3.9390	3.9388	-0.7860	25.68	-0.07	-0.750			
0.1482	9486.79	3.9360	3.9360	-0.7880	25.69	-0.06	-0.750			
0.1506	9638.16	3.9330	3.9331	-0.7912	25.69	-0.06	-0.750			
0.1530	9789.35	3.9300	3.9300	-0.7837	25.69	-0.06	-0.750			
0.1553	9939.21	3.9270	3.9268	-0.7898	25.70	-0.05	-0.750			
0.1577	10091.43	3.9240	3.9242	-0.7878	25.70	-0.05	-0.750			
0.1600	10240.65	3.9210	3.9210	-0.7993	25.70	-0.05	-0.750			
0.1624	10396.47	3.9180	3.9180	-0.8061	25.70	-0.05	-0.750			
0.1649	10551.06	3.9150	3.9151	-0.8098	25.70	-0.05	-0.750			
0.1673	10708.33	3.9120	3.9119	-0.8115	25.70	-0.05	-0.750			
0.1698	10867.46	3.9090	3.9091	-0.8176	25.70	-0.05	-0.750			
0.1722	11022.94	3.9060	3.9060	-0.8105	25.70	-0.05	-0.750			
0.1747	11181.20	3.9030	3.9029	-0.8128	25.70	-0.05	-0.750			
0.1771	11332.31	3.9000	3.9001	-0.8026	25.71	-0.04	-0.750			
0.1795	11488.32	3.8970	3.8970	-0.8093	25.71	-0.04	-0.750			
0.1819	11643.28	3.8940	3.8941	-0.8094	25.71	-0.04	-0.750			
0.1844	11800.30	3.8910	3.8909	-0.8103	25.71	-0.04	-0.750			
0.1868	11954.06	3.8880	3.8881	-0.8186	25.71	-0.04	-0.750			
0.1893	12113.56	3.8850	3.8850	-0.8189	25.72	-0.03	-0.750			
0.1917	12271.75	3.8820	3.8819	-0.8259	25.72	-0.03	-0.750			
0.1942	12429.54	3.8790	3.8793	-0.8241	25.72	-0.03	-0.750			
0.1967	12588.77	3.8760	3.8760	-0.8211	25.72	-0.03	-0.750			
0.1992	12746.02	3.8730	3.8729	-0.8231	25.73	-0.02	-0.750			
0.2016	12903.61	3.8700	3.8700	-0.8213	25.73	-0.02	-0.750			
0.2041	13060.81	3.8670	3.8671	-0.8235	25.74	-0.01	-0.750			
0.2066	13219.88	3.8640	3.8642	-0.8248	25.74	-0.01	-0.750			
0.2090	13377.87	3.8610	3.8610	-0.8201	25.74	-0.01	-0.750			
0.2115	13536.02	3.8580	3.8580	-0.8261	25.74	-0.01	-0.750			
0.2140	13695.86	3.8550	3.8550	-0.8223	25.75	-0.00	-0.750			
0.2164	13852.44	3.8520	3.8519	-0.8245	25.75	-0.00	-0.750			
0.2189	14010.21	3.8490	3.8492	-0.8247	25.75	-0.00	-0.750			
0.2214	14167.86	3.8460	3.8459	-0.8284	25.75	0.00	-0.750			
0.2239	14328.55	3.8430	3.8430	-0.8329	25.75	0.00	-0.750			
0.2264	14488.81	3.8400	3.8400	-0.8356	25.75	0.00	-0.750			
0.2289	14649.93	3.8370	3.8370	-0.8275	25.75	0.00	-0.750			
0.2314	14810.57	3.8340	3.8342	-0.8399	25.75	0.00	-0.750			
0.2339	14969.58	3.8310	3.8309	-0.8461	25.75	0.00	-0.750			
0.2364	15132.19	3.8280	3.8279	-0.8525	25.76	0.01	-0.750			
0.2390	15298.46	3.8250	3.8249	-0.8515	25.76	0.01	-0.750			
0.2416	15463.33	3.8220	3.8221	-0.8497	25.77	0.02	-0.750			
0.2442	15630.11	3.8190	3.8192	-0.8473	25.77	0.02	-0.750			
0.2468	15793.27	3.8160	3.8160	-0.8364	25.77	0.02	-0.750			
0.2492	15948.33	3.8130	3.8130	-0.8258	25.77	0.02	-0.750			
0.2517	16106.50	3.8100	3.8099	-0.8238	25.77	0.02	-0.750			
0.2541	16264.69	3.8070	3.8070	-0.8239	25.77	0.02	-0.750			
0.2566	16423.58	3.8040	3.8042	-0.8193	25.77	0.02	-0.750			
0.2591	16581.69	3.8010	3.8010	-0.8176	25.77	0.02	-0.750			
0.2615	16737.92	3.7980	3.7980	-0.8183	25.78	0.03	-0.750			
0.2640	16894.72	3.7950	3.7950	-0.8109	25.78	0.03	-0.750			
0.2664	17049.40	3.7920	3.7919	-0.8085	25.79	0.04	-0.750			
0.2688	17204.18	3.7890	3.7892	-0.8044	25.79	0.04	-0.750			
0.2712	17358.85	3.7860	3.7859	-0.8015	25.79	0.04	-0.750			
0.2736	17512.23	3.7830	3.7829	-0.7993	25.79	0.04	-0.750			
0.2760	17664.05	3.7800	3.7801	-0.7917	25.80	0.05	-0.750			
0.2784	17814.94	3.7770	3.7771	-0.7898	25.80	0.05	-0.750			
0.2808	17969.15	3.7740	3.7740	-0.7936	25.80	0.05	-0.750			
0.2831	18120.69	3.7710	3.7709	-0.7891	25.80	0.05	-0.750			
0.2855	18269.66	3.7680	3.7680	-0.7936	25.80	0.05	-0.750			
0.2879	18423.24	3.7650	3.7650	-0.7905	25.80	0.05	-0.750			
0.2902	18575.57	3.7620	3.7620	-0.7898	25.81	0.06	-0.750			
0.2926	18728.14	3.7590	3.7589	-0.7885	25.81	0.06	-0.750			
0.2950	18880.41	3.7560	3.7560	-0.7799	25.81	0.06	-0.750			
0.2973	19028.52	3.7530	3.7530	-0.7762	25.81	0.06	-0.750			
0.2996	19177.27	3.7500	3.7500	-0.7699	25.81	0.06	-0.750			
0.3019	19320.45	3.7470	3.7471	-0.7638	25.82	0.07	-0.750			
0.3042	19468.75	3.7440	3.7439	-0.7759	25.82	0.07	-0.750			
0.3065	19615.42	3.7410	3.7412	-0.7820	25.82	0.07	-0.750			
0.3089	19766.47	3.7380	3.7379	-0.7953	25.82	0.07	-0.750			
0.3113	19922.35	3.7350	3.7350	-0.8165	25.82	0.07	-0.750			
0.3138	20081.10	3.7320	3.7320	-0.8231	25.82	0.07	-0.750			
0.3163	20242.88	3.7290	3.7289	-0.8332	25.82	0.07	-0.750			
0.3188	20402.26	3.7260	3.7263	-0.8388	25.82	0.07	-0.750			
0.3213	20562.56	3.7230	3.7229	-0.8458	25.82	0.07	-0.750			
0.3238	20724.34	3.7200	3.7200	-0.8608	25.82	0.07	-0.750			
0.3264	20888.83	3.7170	3.7170	-0.8719	25.82	0.07	-0.750			
0.3290	21058.47	3.7140	3.7140	-0.8858	25.82	0.07	-0.750			
0.3318	21233.58	3.7110	3.7111	-0.9116	25.82	0.07	-0.750			
0.3345	21410.28	3.7080	3.7079	-0.9270	25.82	0.07	-0.750			
0.3373	21590.19	3.7050	3.7050	-0.9392	25.82	0.07	-0.750			
0.3402	21771.97	3.7020	3.7021	-0.9534	25.82	0.07	-0.750			
0.3431	21955.68	3.6990	3.6990	-0.9696	25.82	0.07	-0.750			
0.3460	22143.10	3.6960	3.6959	-0.9878	25.82	0.07	-0.750			
0.3490	22333.47	3.6930	3.6929	-0.9996	25.82	0.07	-0.750			
0.3519	22522.68	3.6900	3.6901	-1.0201	25.81	0.06	-0.750			
0.3550	22721.17	3.6870	3.6871	-1.0454	25.81	0.06	-0.750			
0.3582	22925.80	3.6840	3.6838	-1.0813	25.81	0.06	-0.750			
0.3615	23139.08	3.6810	3.6809	-1.1002	25.80	0.05	-0.750			
0.3649	23352.13	3.6780	3.6779	-1.1183	25.80	0.05	-0.750			
0.3683	23570.56	3.6750	3.6752	-1.1424	25.79	0.04	-0.750			
0.3718	23793.64	3.6720	3.6719	-1.1706	25.79	0.04	-0.750			
0.3753	24017.58	3.6690	3.6688	-1.1795	25.78	0.03	-0.750			
0.3788	24245.73	3.6660	3.6660	-1.2031	25.77	0.02	-0.750			
0.3824	24474.81	3.6630	3.6632	-1.2322	25.77	0.02	-0.750			
0.3863	24720.96	3.6600	3.6599	-1.2647	25.76	0.01	-0.750			
0.3901	24963.28	3.6570	3.6569	-1.2878	25.76	0.01	-0.750			
0.3939	25209.90	3.6540	3.6540	-1.3253	25.75	0.00	-0.750			
0.3980	25468.96	3.6510	3.6510	-1.3669	25.75	0.00	-0.750			
0.4021	25735.98	3.6480	3.6479	-1.4030	25.75	0.00	-0.750			
0.4064	26009.76	3.6450	3.6453	-1.4288	25.75	0.00	-0.750			
0.4107	26286.11	3.6420	3.6418	-1.4555	25.74	-0.01	-0.750			
0.4152	26572.03	3.6390	3.6392	-1.4838	25.73	-0.02	-0.750			
0.4197	26857.83	3.6360	3.6361	-1.5070	25.72	-0.03	-0.750			
0.4242	27148.69	3.6330	3.6327	-1.5436	25.71	-0.04	-0.750			
0.4288	27443.81	3.6300	3.6301	-1.5807	25.70	-0.05	-0.750			
0.4336	27752.60	3.6270	3.6272	-1.6118	25.70	-0.05	-0.750			
0.4386	28069.83	3.6240	3.6239	-1.6553	25.69	-0.06	-0.750			
0.4436	28389.65	3.6210	3.6209	-1.6552	25.69	-0.06	-0.750			
0.4486	28712.46	3.6180	3.6178	-1.6887	25.68	-0.07	-0.750	0.392	0.520	
0.4537	29035.29	3.6150	3.6149	-1.7210	25.67	-0.08	-0.750			
0.4588	29365.04	3.6120	3.6118	-1.7533	25.67	-0.08	-0.750			
0.4641	29703.04	3.6090	3.6093	-1.7788	25.66	-0.09	-0.750			
0.4695	30051.08	3.6060	3.6061	-1.8293	25.66	-0.09	-0.750			
0.4752	30411.33	3.6030	3.6028	-1.8617	25.65	-0.10	-0.750			
0.4808	30772.06	3.6000	3.5998	-1.8931	25.64	-0.11	-0.750			
0.4864	31130.16	3.5970	3.5971	-1.9183	25.64	-0.11	-0.750			
0.4922	31503.84	3.5940	3.5939	-1.9846	25.64	-0.11	-0.750			
0.4982	31887.75	3.5910	3.5912	-2.0339	25.64	-0.11	-0.750			
0.5046	32292.86	3.5880	3.5878	-2.0793	25.63	-0.12	-0.750			
0.5110	32701.35	3.5850	3.5852	-2.1145	25.63	-0.12	-0.750			
0.5175	33117.51	3.5820	3.5821	-2.1483	25.62	-0.13	-0.750			
0.5238	33523.46	3.5790	3.5791	-2.1532	25.62	-0.13	-0.750			
0.5302	33935.06	3.5760	3.5759	-2.1550	25.62	-0.13	-0.750			
0.5368	34357.15	3.5730	3.5731	-2.1994	25.62	-0.13	-0.750			
0.5434	34779.37	3.5700	3.5700	-2.2184	25.62	-0.13	-0.750			
0.5502	35213.84	3.5670	3.5670	-2.2351	25.62	-0.13	-0.750			
0.5569	35644.52	3.5640	3.5640	-2.2324	25.62	-0.13	-0.750			
0.5636	36070.92	3.5610	3.5611	-2.2611	25.62	-0.13	-0.750			
0.5704	36507.05	3.5580	3.5579	-2.2634	25.62	-0.13	-0.750			
0.5773	36946.46	3.5550	3.5549	-2.2685	25.63	-0.12	-0.750			
0.5841	37382.05	3.5520	3.5521	-2.2607	25.63	-0.12	-0.750			
0.5909	37818.60	3.5490	3.5489	-2.2717	25.64	-0.11	-0.750			
0.5978	38260.11	3.5460	3.5459	-2.2492	25.64	-0.11	-0.750			
0.6045	38688.96	3.5430	3.5430	-2.2282	25.65	-0.10	-0.750			
0.6112	39117.36	3.5400	3.5399	-2.1879	25.65	-0.10	-0.750			
0.6177	39535.62	3.5370	3.5368	-2.1681	25.66	-0.09	-0.750			
0.6242	39948.62	3.5340	3.5341	-2.1369	25.67	-0.08	-0.750			
0.6305	40353.82	3.5310	3.5311	-2.1055	25.68	-0.07	-0.750			
0.6368	40754.42	3.5280	3.5280	-2.0616	25.69	-0.06	-0.750			
0.6430	41154.35	3.5250	3.5248	-2.0310	25.70	-0.05	-0.750			
0.6490	41535.60	3.5220	3.5221	-1.9840	25.71	-0.04	-0.750			
0.6550	41918.01	3.5190	3.5190	-1.9324	25.72	-0.03	-0.750			
0.6607	42284.18	3.5160	3.5161	-1.8737	25.74	-0.01	-0.750			
0.6662	42638.95	3.5130	3.5128	-1.8111	25.76	0.01	-0.750			
0.6715	42978.30	3.5100	3.5098	-1.7471	25.78	0.03	-0.750			
0.6767	43307.39	3.5070	3.5070	-1.6927	25.79	0.04	-0.750			
0.6816	43622.30	3.5040	3.5044	-1.6398	25.81	0.06	-0.750			
0.6865	43935.78	3.5010	3.5008	-1.5848	25.83	0.08	-0.750			
0.6912	44234.11	3.4980	3.4981	-1.5406	25.84	0.09	-0.750			
0.6958	44529.42	3.4950	3.4949	-1.4932	25.86	0.11	-0.750			
0.7002	44812.94	3.4920	3.4921	-1.4467	25.87	0.12	-0.750			
0.7044	45084.00	3.4890	3.4889	-1.4009	25.88	0.13	-0.750			
0.7085	45344.95	3.4860	3.4859	-1.3459	25.90	0.15	-0.750			
0.7125	45600.45	3.4830	3.4829	-1.3040	25.92	0.17	-0.750			
0.7164	45846.41	3.4800	3.4800	-1.2614	25.94	0.19	-0.750			
0.7200	46080.46	3.4770	3.4771	-1.2142	25.95	0.20	-0.750			
0.7237	46313.98	3.4740	3.4740	-1.1817	25.97	0.22	-0.750			
0.7271	46535.33	3.4710	3.4709	-1.1375	25.99	0.24	-0.750			
0.7305	46749.47	3.4680	3.4681	-1.0979	26.00	0.25	-0.750			
0.7337	46956.58	3.4650	3.4649	-1.0708	26.02	0.27	-0.750			
0.7368	47157.31	3.4620	3.4619	-1.0335	26.03	0.28	-0.750			
0.7399	47351.21	3.4590	3.4590	-1.0007	26.04	0.29	-0.750			
0.7428	47539.81	3.4560	3.4559	-0.9737	26.05	0.30	-0.750			
0.7457	47724.44	3.4530	3.4529	-0.9493	26.07	0.32	-0.750			
0.7485	47902.94	3.4500	3.4500	-0.9242	26.08	0.33	-0.750			
0.7512	48076.28	3.4470	3.4470	-0.9056	26.09	0.34	-0.750			
0.7538	48245.70	3.4440	3.4440	-0.8873	26.10	0.35	-0.750			
0.7565	48414.29	3.4410	3.4410	-0.8818	26.11	0.36	-0.750			
0.7591	48581.41	3.4380	3.4380	-0.8891	26.12	0.37	-0.750			
0.7617	48750.28	3.4350	3.4351	-0.8962	26.13	0.38	-0.750			
0.7644	48923.12	3.4320	3.4320	-0.9143	26.15	0.40	-0.750			
0.7672	49099.06	3.4290	3.4290	-0.9353	26.16	0.41	-0.750			
0.7700	49280.95	3.4260	3.4260	-0.9607	26.17	0.42	-0.750			
0.7730	49470.41	3.4230	3.4229	-0.9838	26.18	0.43	-0.750			
0.7760	49664.33	3.4200	3.4200	-0.9858	26.19	0.44	-0.750			
0.7790	49856.31	3.4170	3.4169	-0.9916	26.20	0.45	-0.750			
0.7820	50047.72	3.4140	3.4143	-0.9891	26.21	0.46	-0.750			
0.7849	50236.30	3.4110	3.4107	-0.9833	26.22	0.47	-0.750			
0.7879	50423.93	3.4080	3.4080	-0.9727	26.22	0.47	-0.750			
0.7908	50611.32	3.4050	3.4050	-0.9504	26.22	0.47	-0.750			
0.7937	50798.60	3.4020	3.4021	-0.9405	26.23	0.48	-0.750			
0.7965	50975.32	3.3990	3.3990	-0.9135	26.24	0.49	-0.750			
0.7992	51145.99	3.3960	3.3961	-0.8809	26.25	0.50	-0.750			
0.8018	51312.03	3.3930	3.3929	-0.8513	26.25	0.50	-0.750			
0.8042	51471.19	3.3900	3.3899	-0.8191	26.26	0.51	-0.750			
0.8067	51627.82	3.3870	3.3874	-0.7920	26.27	0.52	-0.750			
0.8090	51777.57	3.3840	3.3840	-0.7635	26.28	0.53	-0.750			
0.8113	51920.85	3.3810	3.3810	-0.7339	26.28	0.53	-0.750			
0.8134	52058.11	3.3780	3.3779	-0.7046	26.29	0.54	-0.750			
0.8155	52189.01	3.3750	3.3751	-0.6793	26.30	0.55	-0.750			
0.8175	52317.60	3.3720	3.3718	-0.6534	26.30	0.55	-0.750			
0.8194	52441.52	3.3690	3.3691	-0.6284	26.31	0.56	-0.750			
0.8212	52559.99	3.3660	3.3660	-0.6008	26.32	0.57	-0.750			
0.8230	52671.07	3.3630	3.3631	-0.5783	26.32	0.57	-0.750			
0.8247	52779.79	3.3600	3.3600	-0.5561	26.33	0.58	-0.750			
0.8263	52882.41	3.3570	3.3569	-0.5358	26.33	0.58	-0.750			
0.8279	52983.46	3.3540	3.3540	-0.5173	26.34	0.59	-0.750			
0.8294	53081.95	3.3510	3.3511	-0.5010	26.34	0.59	-0.750			
0.8309	53176.65	3.3480	3.3480	-0.4826	26.35	0.60	-0.750			
0.8323	53268.03	3.3450	3.3450	-0.4650	26.35	0.60	-0.750			
0.8337	53354.69	3.3420	3.3419	-0.4461	26.36	0.61	-0.750			
0.8350	53438.30	3.3390	3.3391	-0.4295	26.37	0.62	-0.750			
0.8362	53518.11	3.3360	3.3359	-0.4148	26.38	0.63	-0.750			
0.8374	53596.62	3.3330	3.3331	-0.4009	26.38	0.63	-0.750			
0.8386	53672.42	3.3300	3.3299	-0.3878	26.39	0.64	-0.750			
0.8398	53744.93	3.3270	3.3270	-0.3762	26.40	0.65	-0.750			
0.8409	53816.04	3.3240	3.3241	-0.3654	26.40	0.65	-0.750			
0.8420	53885.17	3.3210	3.3210	-0.3549	26.41	0.66	-0.750			
0.8430	53952.45	3.3180	3.3179	-0.3426	26.41	0.66	-0.750			
0.8440	54016.93	3.3150	3.3151	-0.3315	26.42	0.67	-0.750			
0.8450	54080.16	3.3120	3.3120	-0.3207	26.43	0.68	-0.750			
0.8459	54140.01	3.3090	3.3089	-0.3093	26.43	0.68	-0.750			
0.8468	54198.37	3.3060	3.3060	-0.3014	26.44	0.69	-0.750			
0.8477	54254.35	3.3030	3.3029	-0.2916	26.44	0.69	-0.750			
0.8486	54309.71	3.3000	3.3000	-0.2832	26.45	0.70	-0.750			
0.8494	54363.38	3.2970	3.2971	-0.2763	26.45	0.70	-0.750			
0.8502	54415.18	3.2940	3.2941	-0.2698	26.45	0.70	-0.750			
0.8510	54466.58	3.2910	3.2909	-0.2636	26.46	0.71	-0.750			
0.8518	54515.73	3.2880	3.2880	-0.2566	26.46	0.71	-0.750			
0.8526	54564.50	3.2850	3.2850	-0.2512	26.47	0.72	-0.750			
0.8533	54612.62	3.2820	3.2821	-0.2469	26.47	0.72	-0.750			
0.8541	54659.65	3.2790	3.2789	-0.2426	26.48	0.73	-0.750			
0.8548	54705.59	3.2760	3.2760	-0.2369	26.48	0.73	-0.750			
0.8555	54750.47	3.2730	3.2730	-0.2315	26.48	0.73	-0.750			
0.8562	54794.32	3.2700	3.2699	-0.2264	26.49	0.74	-0.750			
0.8568	54837.63	3.2670	3.2670	-0.2219	26.49	0.74	-0.750			
0.8575	54879.14	3.2640	3.2641	-0.2172	26.50	0.75	-0.750			
0.8581	54920.42	3.2610	3.2610	-0.2132	26.50	0.75	-0.750			
0.8588	54960.75	3.2580	3.2580	-0.2114	26.51	0.76	-0.750			
0.8594	55000.89	3.2550	3.2549	-0.2069	26.51	0.76	-0.750			
0.8600	55040.60	3.2520	3.2520	-0.2039	26.51	0.76	-0.750			
0.8606	55079.75	3.2490	3.2490	-0.2010	26.52	0.77	-0.750			
0.8612	55117.99	3.2460	3.2461	-0.1964	26.52	0.77	-0.750			
0.8618	55155.17	3.2430	3.2429	-0.1940	26.53	0.78	-0.750			
0.8624	55191.57	3.2400	3.2399	-0.1902	26.53	0.78	-0.750			
0.8629	55227.87	3.2370	3.2370	-0.1878	26.54	0.79	-0.750			
0.8635	55263.20	3.2340	3.2339	-0.1850	26.54	0.79	-0.750			
0.8640	55298.97	3.2310	3.2311	-0.1834	26.54	0.79	-0.750			
0.8646	55333.90	3.2280	3.2280	-0.1810	26.55	0.80	-0.750			
0.8651	55368.42	3.2250	3.2250	-0.1786	26.55	0.80	-0.750			
0.8657	55402.70	3.2220	3.2219	-0.1766	26.56	0.81	-0.750			
0.8662	55436.07	3.2190	3.2190	-0.1735	26.56	0.81	-0.750			
0.8667	55469.16	3.2160	3.2160	-0.1718	26.56	0.81	-0.750			
0.8672	55501.95	3.2130	3.2130	-0.1698	26.57	0.82	-0.750			
0.8677	55534.45	3.2100	3.2100	-0.1673	26.57	0.82	-0.750			
0.8682	55566.31	3.2070	3.2070	-0.1652	26.57	0.82	-0.750			
0.8687	55597.46	3.2040	3.2040	-0.1636	26.58	0.83	-0.750			
0.8692	55628.75	3.2010	3.2010	-0.1624	26.58	0.83	-0.750			
0.8697	55659.81	3.1980	3.1980	-0.1601	26.59	0.84	-0.750			
0.8702	55690.37	3.1950	3.1950	-0.1589	26.59	0.84	-0.750			
0.8706	55720.63	3.1920	3.1920	-0.1572	26.60	0.85	-0.750			
0.8711	55750.70	3.1890	3.1891	-0.1560	26.61	0.86	-0.750			
0.8716	55780.74	3.1860	3.1859	-0.1547	26.61	0.86	-0.750			
0.8720	55810.30	3.1830	3.1830	-0.1529	26.62	0.87	-0.750			
0.8725	55839.24	3.1800	3.1801	-0.1510	26.62	0.87	-0.750			
0.8729	55868.12	3.1770	3.1770	-0.1499	26.63	0.88	-0.750			
0.8734	55897.14	3.1740	3.1740	-0.1483	26.63	0.88	-0.750			
0.8738	55925.27	3.1710	3.1710	-0.1462	26.64	0.89	-0.750			
0.8743	55953.10	3.1680	3.1679	-0.1447	26.65	0.90	-0.750			
0.8747	55980.74	3.1650	3.1651	-0.1432	26.65	0.90	-0.750			
0.8751	56007.92	3.1620	3.1620	-0.1425	26.66	0.91	-0.750			
0.8756	56035.24	3.1590	3.1590	-0.1412	26.66	0.91	-0.750			
0.8760	56062.07	3.1560	3.1559	-0.1400	26.67	0.92	-0.750			
0.8764	56088.97	3.1530	3.1530	-0.1386	26.67	0.92	-0.750			
0.8768	56115.67	3.1500	3.1500	-0.1378	26.68	0.93	-0.750			
0.8772	56141.96	3.1470	3.1471	-0.1369	26.68	0.93	-0.750			
0.8776	56168.02	3.1440	3.1440	-0.1355	26.69	0.94	-0.750			
0.8780	56193.99	3.1410	3.1408	-0.1342	26.69	0.94	-0.750			
0.8784	56219.44	3.1380	3.1380	-0.1330	26.69	0.94	-0.750			
0.8788	56245.10	3.1350	3.1351	-0.1323	26.70	0.95	-0.750			
0.8792	56270.36	3.1320	3.1320	-0.1313	26.70	0.95	-0.750			
0.8796	56295.50	3.1290	3.1291	-0.1302	26.70	0.95	-0.750			
0.8800	56320.30	3.1260	3.1260	-0.1290	26.71	0.96	-0.750			
0.8804	56344.97	3.1230	3.1230	-0.1280	26.71	0.96	-0.750			
0.8808	56369.38	3.1200	3.1199	-0.1270	26.71	0.96	-0.750			
0.8812	56393.69	3.1170	3.1171	-0.1265	26.72	0.97	-0.750			
0.8815	56417.90	3.1140	3.1140	-0.1257	26.72	0.97	-0.750			
0.8819	56441.89	3.1110	3.1111	-0.1248	26.73	0.98	-0.750			
0.8823	56465.88	3.1080	3.1079	-0.1238	26.73	0.98	-0.750			
0.8827	56489.61	3.1050	3.1050	-0.1229	26.74	0.99	-0.750			
0.8830	56513.18	3.1020	3.1021	-0.1221	26.74	0.99	-0.750			
0.8834	56536.52	3.0990	3.0990	-0.1210	26.75	1.00	-0.750			
0.8837	56559.54	3.0960	3.0961	-0.1204	26.75	1.00	-0.750			
0.8841	56582.40	3.0930	3.0929	-0.1193	26.76	1.01	-0.750			
0.8845	56605.34	3.0900	3.0900	-0.1186	26.77	1.02	-0.750			
0.8848	56628.01	3.0870	3.0869	-0.1179	26.77	1.02	-0.750			
0.8852	56650.52	3.0840	3.0840	-0.1176	26.78	1.03	-0.750			
0.8855	56673.09	3.0810	3.0810	-0.1172	26.78	1.03	-0.750			
0.8859	56695.70	3.0780	3.0780	-0.1162	26.79	1.04	-0.750			
0.8862	56718.02	3.0750	3.0749	-0.1154	26.79	1.04	-0.750			
0.8866	56740.03	3.0720	3.0721	-0.1147	26.80	1.05	-0.750			
0.8869	56761.96	3.0690	3.0691	-0.1139	26.81	1.06	-0.750			
0.8872	56783.73	3.0660	3.0660	-0.1131	26.81	1.06	-0.750			
0.8876	56805.46	3.0630	3.0628	-0.1125	26.82	1.07	-0.750			
0.8879	56826.90	3.0600	3.0600	-0.1118	26.82	1.07	-0.750			
0.8883	56848.06	3.0570	3.0572	-0.1109	26.83	1.08	-0.750			
0.8886	56869.39	3.0540	3.0540	-0.1103	26.83	1.08	-0.750			
0.8889	56890.70	3.0510	3.0510	-0.1100	26.84	1.09	-0.750			
0.8892	56911.90	3.0480	3.0480	-0.1087	26.84	1.09	-0.750			
0.8896	56932.73	3.0450	3.0450	-0.1076	26.85	1.10	-0.750			
0.8899	56952.99	3.0420	3.0421	-0.1073	26.85	1.10	-0.750			
0.8902	56973.44	3.0390	3.0390	-0.1065	26.86	1.11	-0.750			
0.8905	56993.76	3.0360	3.0360	-0.1062	26.86	1.11	-0.750			
0.8908	57013.86	3.0330	3.0329	-0.1055	26.87	1.12	-0.750			
0.8912	57034.29	3.0300	3.0299	-0.1051	26.87	1.12	-0.750			
0.8915	57054.42	3.0270	3.0271	-0.1048	26.88	1.13	-0.750			
0.8918	57074.65	3.0240	3.0240	-0.1040	26.88	1.13	-0.750			
0.8921	57095.01	3.0210	3.0210	-0.1040	26.89	1.14	-0.750			
0.8924	57114.72	3.0180	3.0181	-0.1031	26.89	1.14	-0.750			
0.8927	57134.22	3.0150	3.0150	-0.1019	26.90	1.15	-0.750			
0.8930	57153.71	3.0120	3.0120	-0.1012	26.90	1.15	-0.750			
0.8933	57172.94	3.0090	3.0090	-0.1006	26.91	1.16	-0.750			
0.8936	57192.23	3.0060	3.0060	-0.1003	26.91	1.16	-0.751			
0.8939	57211.46	3.0030	3.0030	-0.1005	26.92	1.17	-0.751			
