Ah_balance (normalized)	Ah_balance (mAh)	Voltage - fit (V)	Voltage -  interpolate (V)	dQ/dV (1/V)	Temperature (°C)	Temperature - diff (°C)	Current (C)	R_DC 0ms (mOhm)	R_DC 50ms (mOhm)	R_DC 50 ms PEC (mOhm)
0.0004	28.11	4.1500	4.1498	-0.1236	25.99	0.02	-0.750			
0.0009	55.79	4.1470	4.1469	-0.1648	25.98	0.01	-0.750			
0.0014	91.63	4.1440	4.1439	-0.2055	25.98	0.01	-0.750			
0.0021	135.60	4.1410	4.1411	-0.2424	25.98	0.01	-0.750			
0.0029	185.81	4.1380	4.1380	-0.2796	25.98	0.01	-0.750			
0.0038	243.97	4.1350	4.1351	-0.3164	25.98	0.01	-0.750			
0.0048	308.39	4.1320	4.1319	-0.3505	25.98	0.01	-0.750			
0.0059	379.49	4.1290	4.1290	-0.3794	25.98	0.01	-0.750			
0.0071	455.72	4.1260	4.1261	-0.4102	25.97	0.00	-0.750			
0.0084	537.79	4.1230	4.1231	-0.4387	25.97	0.00	-0.750			
0.0098	624.81	4.1200	4.1199	-0.4669	25.97	0.00	-0.750			
0.0112	716.78	4.1170	4.1170	-0.4918	25.97	-0.00	-0.750			
0.0127	814.51	4.1140	4.1140	-0.5144	25.97	-0.00	-0.750			
0.0143	917.64	4.1110	4.1110	-0.5341	25.96	-0.01	-0.750			
0.0160	1022.86	4.1080	4.1080	-0.5503	25.96	-0.01	-0.750			
0.0177	1129.98	4.1050	4.1051	-0.5625	25.96	-0.01	-0.750			
0.0194	1239.73	4.1020	4.1019	-0.5741	25.95	-0.02	-0.750			
0.0211	1349.88	4.0990	4.0990	-0.5847	25.95	-0.02	-0.750			
0.0229	1463.84	4.0960	4.0961	-0.5950	25.95	-0.02	-0.750			
0.0247	1580.15	4.0930	4.0931	-0.6065	25.95	-0.02	-0.750			
0.0265	1696.66	4.0900	4.0899	-0.6202	25.95	-0.02	-0.750			
0.0284	1817.29	4.0870	4.0870	-0.6342	25.95	-0.02	-0.750			
0.0303	1941.06	4.0840	4.0839	-0.6423	25.95	-0.02	-0.750			
0.0323	2066.18	4.0810	4.0810	-0.6488	25.95	-0.02	-0.750			
0.0343	2192.50	4.0780	4.0781	-0.6569	25.95	-0.02	-0.750			
0.0363	2320.08	4.0750	4.0748	-0.6595	25.95	-0.02	-0.750			
0.0382	2447.10	4.0720	4.0720	-0.6585	25.95	-0.02	-0.750			
0.0402	2570.96	4.0690	4.0690	-0.6621	25.95	-0.02	-0.750			
0.0421	2697.28	4.0660	4.0661	-0.6654	25.95	-0.02	-0.750			
0.0442	2827.10	4.0630	4.0630	-0.6773	25.95	-0.02	-0.750			
0.0462	2957.81	4.0600	4.0599	-0.6811	25.95	-0.02	-0.750			
0.0483	3090.03	4.0570	4.0570	-0.6859	25.95	-0.02	-0.750			
0.0504	3223.86	4.0540	4.0540	-0.6910	25.95	-0.02	-0.750			
0.0524	3356.00	4.0510	4.0511	-0.6982	25.96	-0.01	-0.750			
0.0545	3490.34	4.0480	4.0480	-0.6944	25.96	-0.01	-0.750			
0.0566	3624.81	4.0450	4.0449	-0.6979	25.96	-0.01	-0.750			
0.0587	3758.05	4.0420	4.0420	-0.6958	25.97	-0.00	-0.750			
0.0608	3893.44	4.0390	4.0390	-0.6931	25.97	0.00	-0.750			
0.0629	4025.55	4.0360	4.0360	-0.6974	25.97	0.00	-0.750			
0.0650	4157.33	4.0330	4.0330	-0.7027	25.97	0.00	-0.750			
0.0670	4291.10	4.0300	4.0300	-0.7031	25.98	0.01	-0.750			
0.0692	4429.59	4.0270	4.0270	-0.7109	25.98	0.01	-0.750			
0.0714	4566.49	4.0240	4.0239	-0.7150	25.98	0.01	-0.750			
0.0735	4705.37	4.0210	4.0210	-0.7166	25.98	0.01	-0.750			
0.0757	4845.04	4.0180	4.0179	-0.7161	25.99	0.02	-0.750			
0.0778	4978.82	4.0150	4.0151	-0.7153	25.99	0.02	-0.750			
0.0799	5115.27	4.0120	4.0121	-0.7150	26.00	0.03	-0.750			
0.0821	5254.08	4.0090	4.0089	-0.7217	26.00	0.03	-0.750			
0.0843	5393.10	4.0060	4.0060	-0.7249	26.01	0.04	-0.750			
0.0864	5531.68	4.0030	4.0030	-0.7283	26.01	0.04	-0.750			
0.0886	5673.19	4.0000	3.9999	-0.7336	26.02	0.05	-0.750			
0.0909	5815.30	3.9970	3.9970	-0.7341	26.02	0.05	-0.750			
0.0930	5954.84	3.9940	3.9940	-0.7331	26.02	0.05	-0.750			
0.0953	6097.70	3.9910	3.9910	-0.7387	26.03	0.06	-0.750			
0.0975	6238.90	3.9880	3.9881	-0.7390	26.03	0.06	-0.750			
0.0997	6380.86	3.9850	3.9849	-0.7374	26.03	0.06	-0.750			
0.1019	6520.79	3.9820	3.9820	-0.7426	26.04	0.07	-0.750			
0.1041	6664.42	3.9790	3.9790	-0.7446	26.04	0.07	-0.750			
0.1064	6808.96	3.9760	3.9760	-0.7498	26.04	0.07	-0.750			
0.1086	6952.46	3.9730	3.9729	-0.7463	26.05	0.08	-0.750			
0.1109	7096.26	3.9700	3.9701	-0.7493	26.05	0.08	-0.750			
0.1131	7240.33	3.9670	3.9670	-0.7484	26.06	0.09	-0.750			
0.1154	7383.43	3.9640	3.9640	-0.7525	26.06	0.09	-0.750			
0.1176	7526.67	3.9610	3.9610	-0.7494	26.07	0.10	-0.750			
0.1199	7672.89	3.9580	3.9579	-0.7541	26.07	0.10	-0.750			
0.1222	7817.82	3.9550	3.9551	-0.7555	26.08	0.11	-0.750			
0.1244	7963.03	3.9520	3.9520	-0.7567	26.08	0.11	-0.750			
0.1267	8107.19	3.9490	3.9490	-0.7582	26.09	0.12	-0.750			
0.1290	8253.38	3.9460	3.9460	-0.7601	26.09	0.12	-0.750			
0.1312	8397.97	3.9430	3.9430	-0.7591	26.09	0.12	-0.750			
0.1335	8546.06	3.9400	3.9400	-0.7682	26.10	0.13	-0.750			
0.1358	8693.64	3.9370	3.9370	-0.7703	26.10	0.13	-0.750			
0.1381	8841.03	3.9340	3.9340	-0.7748	26.11	0.14	-0.750			
0.1405	8990.72	3.9310	3.9310	-0.7784	26.11	0.14	-0.750			
0.1428	9140.91	3.9280	3.9280	-0.7775	26.12	0.15	-0.750			
0.1452	9291.59	3.9250	3.9249	-0.7781	26.12	0.15	-0.750			
0.1475	9440.38	3.9220	3.9226	-0.7774	26.13	0.16	-0.750			
0.1498	9588.22	3.9190	3.9190	-0.7763	26.14	0.17	-0.750			
0.1521	9737.14	3.9160	3.9160	-0.7809	26.14	0.17	-0.750			
0.1545	9887.26	3.9130	3.9129	-0.7826	26.15	0.18	-0.750			
0.1568	10037.82	3.9100	3.9100	-0.7879	26.16	0.19	-0.750			
0.1592	10190.54	3.9070	3.9071	-0.7899	26.17	0.20	-0.750			
0.1616	10344.10	3.9040	3.9040	-0.7895	26.17	0.20	-0.750			
0.1640	10493.82	3.9010	3.9010	-0.7944	26.18	0.21	-0.750			
0.1663	10646.25	3.8980	3.8981	-0.7889	26.18	0.21	-0.750			
0.1687	10797.60	3.8950	3.8949	-0.7869	26.18	0.21	-0.750			
0.1711	10948.68	3.8920	3.8919	-0.7908	26.19	0.22	-0.750			
0.1734	11100.05	3.8890	3.8890	-0.7909	26.19	0.22	-0.750			
0.1758	11251.75	3.8860	3.8860	-0.7958	26.20	0.23	-0.750			
0.1782	11405.31	3.8830	3.8830	-0.7954	26.20	0.23	-0.750			
0.1806	11556.70	3.8800	3.8800	-0.7911	26.20	0.23	-0.750			
0.1830	11712.23	3.8770	3.8769	-0.7985	26.21	0.24	-0.750			
0.1854	11865.31	3.8740	3.8744	-0.7961	26.21	0.24	-0.750			
0.1878	12017.69	3.8710	3.8709	-0.7899	26.22	0.25	-0.750			
0.1901	12168.07	3.8680	3.8680	-0.7958	26.22	0.25	-0.750			
0.1925	12320.66	3.8650	3.8649	-0.7974	26.23	0.26	-0.750			
0.1949	12474.18	3.8620	3.8619	-0.8002	26.23	0.26	-0.750			
0.1973	12628.39	3.8590	3.8590	-0.8013	26.24	0.27	-0.750			
0.1997	12782.74	3.8560	3.8560	-0.7996	26.24	0.27	-0.750			
0.2021	12937.25	3.8530	3.8530	-0.8029	26.25	0.28	-0.750			
0.2046	13091.54	3.8500	3.8500	-0.8016	26.25	0.28	-0.750			
0.2069	13244.55	3.8470	3.8470	-0.7964	26.26	0.29	-0.750			
0.2093	13397.98	3.8440	3.8440	-0.7945	26.26	0.29	-0.750			
0.2117	13550.58	3.8410	3.8410	-0.7916	26.27	0.30	-0.750			
0.2141	13700.03	3.8380	3.8381	-0.7960	26.27	0.30	-0.750			
0.2165	13854.05	3.8350	3.8349	-0.7887	26.28	0.31	-0.750			
0.2188	14004.59	3.8320	3.8319	-0.7855	26.29	0.32	-0.750			
0.2212	14156.13	3.8290	3.8290	-0.7856	26.30	0.33	-0.750			
0.2235	14307.00	3.8260	3.8260	-0.7848	26.30	0.33	-0.750			
0.2259	14457.62	3.8230	3.8229	-0.7837	26.31	0.34	-0.750			
0.2282	14607.76	3.8200	3.8200	-0.7791	26.32	0.35	-0.750			
0.2305	14754.50	3.8170	3.8171	-0.7729	26.33	0.36	-0.750			
0.2329	14906.43	3.8140	3.8140	-0.7789	26.33	0.36	-0.750			
0.2352	15054.80	3.8110	3.8111	-0.7761	26.34	0.37	-0.750			
0.2376	15204.13	3.8080	3.8079	-0.7726	26.34	0.37	-0.750			
0.2399	15352.35	3.8050	3.8050	-0.7704	26.34	0.37	-0.750			
0.2422	15500.98	3.8020	3.8020	-0.7646	26.35	0.38	-0.750			
0.2445	15648.30	3.7990	3.7990	-0.7621	26.35	0.38	-0.750			
0.2468	15793.08	3.7960	3.7959	-0.7561	26.35	0.38	-0.750			
0.2490	15937.54	3.7930	3.7929	-0.7493	26.35	0.38	-0.750			
0.2513	16080.74	3.7900	3.7900	-0.7426	26.36	0.39	-0.750			
0.2535	16223.48	3.7870	3.7870	-0.7443	26.37	0.40	-0.750			
0.2557	16365.33	3.7840	3.7840	-0.7400	26.38	0.41	-0.750			
0.2580	16508.84	3.7810	3.7809	-0.7395	26.38	0.41	-0.750			
0.2601	16648.96	3.7780	3.7784	-0.7374	26.39	0.42	-0.750			
0.2623	16789.44	3.7750	3.7749	-0.7372	26.40	0.43	-0.750			
0.2646	16932.16	3.7720	3.7720	-0.7367	26.40	0.43	-0.750			
0.2668	17073.07	3.7690	3.7689	-0.7326	26.41	0.44	-0.750			
0.2690	17215.37	3.7660	3.7661	-0.7380	26.41	0.44	-0.750			
0.2712	17354.87	3.7630	3.7631	-0.7403	26.42	0.45	-0.750			
0.2734	17496.17	3.7600	3.7599	-0.7424	26.42	0.45	-0.750			
0.2756	17638.59	3.7570	3.7569	-0.7456	26.43	0.46	-0.750			
0.2778	17782.24	3.7540	3.7540	-0.7492	26.43	0.46	-0.750			
0.2801	17928.46	3.7510	3.7510	-0.7580	26.44	0.47	-0.750			
0.2824	18073.69	3.7480	3.7480	-0.7632	26.44	0.47	-0.750			
0.2847	18219.28	3.7450	3.7449	-0.7657	26.45	0.48	-0.750			
0.2870	18366.15	3.7420	3.7419	-0.7719	26.45	0.48	-0.750			
0.2893	18515.41	3.7390	3.7390	-0.7832	26.46	0.49	-0.750			
0.2917	18667.30	3.7360	3.7360	-0.7919	26.47	0.50	-0.750			
0.2941	18820.32	3.7330	3.7330	-0.8046	26.47	0.50	-0.750			
0.2965	18975.62	3.7300	3.7299	-0.8083	26.48	0.51	-0.750			
0.2989	19130.90	3.7270	3.7270	-0.8195	26.48	0.51	-0.750			
0.3014	19288.39	3.7240	3.7240	-0.8345	26.48	0.51	-0.750			
0.3039	19450.41	3.7210	3.7210	-0.8444	26.49	0.52	-0.750			
0.3064	19612.79	3.7180	3.7179	-0.8577	26.49	0.52	-0.750			
0.3091	19780.23	3.7150	3.7150	-0.8732	26.49	0.52	-0.750			
0.3117	19949.52	3.7120	3.7120	-0.8826	26.49	0.52	-0.750			
0.3144	20121.08	3.7090	3.7089	-0.8975	26.49	0.52	-0.750			
0.3171	20292.60	3.7060	3.7061	-0.9049	26.50	0.53	-0.750			
0.3198	20465.83	3.7030	3.7030	-0.9190	26.50	0.53	-0.750			
0.3226	20644.24	3.7000	3.6999	-0.9439	26.50	0.53	-0.750			
0.3254	20826.06	3.6970	3.6970	-0.9664	26.50	0.53	-0.750			
0.3284	21014.88	3.6940	3.6940	-0.9896	26.50	0.53	-0.750			
0.3314	21209.17	3.6910	3.6909	-1.0034	26.50	0.53	-0.750			
0.3344	21404.58	3.6880	3.6880	-1.0183	26.50	0.53	-0.750			
0.3375	21600.70	3.6850	3.6850	-1.0399	26.50	0.53	-0.750			
0.3406	21801.17	3.6820	3.6819	-1.0533	26.50	0.53	-0.750			
0.3438	22002.04	3.6790	3.6790	-1.0655	26.50	0.53	-0.750			
0.3470	22209.06	3.6760	3.6760	-1.0952	26.50	0.53	-0.750			
0.3503	22421.80	3.6730	3.6731	-1.1253	26.50	0.53	-0.750			
0.3538	22642.98	3.6700	3.6698	-1.1436	26.50	0.53	-0.750			
0.3573	22866.46	3.6670	3.6669	-1.1521	26.50	0.53	-0.750			
0.3608	23088.71	3.6640	3.6642	-1.1771	26.50	0.53	-0.750			
0.3644	23318.47	3.6610	3.6610	-1.1980	26.49	0.52	-0.750			
0.3679	23548.24	3.6580	3.6578	-1.2169	26.49	0.52	-0.750			
0.3715	23778.03	3.6550	3.6551	-1.2421	26.48	0.51	-0.750			
0.3753	24021.18	3.6520	3.6519	-1.2720	26.48	0.51	-0.750			
0.3792	24268.98	3.6490	3.6490	-1.2963	26.47	0.50	-0.750			
0.3832	24522.08	3.6460	3.6460	-1.3201	26.47	0.50	-0.750			
0.3871	24774.47	3.6430	3.6430	-1.3361	26.47	0.50	-0.750			
0.3912	25036.78	3.6400	3.6400	-1.3629	26.47	0.50	-0.750			
0.3953	25299.18	3.6370	3.6369	-1.3938	26.46	0.49	-0.750			
0.3995	25567.51	3.6340	3.6340	-1.4143	26.46	0.49	-0.750			
0.4038	25844.83	3.6310	3.6310	-1.4487	26.45	0.48	-0.750			
0.4082	26126.19	3.6280	3.6280	-1.4827	26.44	0.47	-0.750			
0.4127	26415.31	3.6250	3.6249	-1.5079	26.44	0.47	-0.750			
0.4173	26707.94	3.6220	3.6220	-1.5441	26.44	0.47	-0.750			
0.4220	27009.78	3.6190	3.6190	-1.5675	26.44	0.47	-0.750			
0.4267	27310.09	3.6160	3.6161	-1.5964	26.44	0.47	-0.750			
0.4316	27623.42	3.6130	3.6129	-1.6269	26.44	0.47	-0.750	0.409	0.555	
0.4365	27936.71	3.6100	3.6100	-1.6445	26.44	0.47	-0.750			
0.4415	28255.36	3.6070	3.6069	-1.6741	26.43	0.46	-0.750			
0.4465	28574.20	3.6040	3.6040	-1.7173	26.43	0.46	-0.750			
0.4517	28909.08	3.6010	3.6009	-1.7483	26.43	0.46	-0.750			
0.4571	29254.15	3.5980	3.5981	-1.7837	26.42	0.45	-0.750			
0.4625	29598.17	3.5950	3.5950	-1.8169	26.42	0.45	-0.750			
0.4680	29954.07	3.5920	3.5920	-1.8623	26.42	0.45	-0.750			
0.4736	30313.25	3.5890	3.5890	-1.9157	26.42	0.45	-0.750			
0.4794	30684.17	3.5860	3.5862	-1.9571	26.42	0.45	-0.750			
0.4854	31065.85	3.5830	3.5832	-1.9791	26.42	0.45	-0.750			
0.4915	31454.91	3.5800	3.5801	-2.0338	26.42	0.45	-0.750			
0.4976	31845.53	3.5770	3.5770	-2.0936	26.42	0.45	-0.750			
0.5040	32258.88	3.5740	3.5736	-2.1105	26.42	0.45	-0.750			
0.5104	32665.77	3.5710	3.5712	-2.1369	26.42	0.45	-0.750			
0.5168	33076.89	3.5680	3.5682	-2.1542	26.43	0.46	-0.750			
0.5234	33496.63	3.5650	3.5651	-2.1552	26.43	0.46	-0.750			
0.5298	33907.88	3.5620	3.5620	-2.1594	26.43	0.46	-0.750			
0.5363	34325.66	3.5590	3.5591	-2.1542	26.43	0.46	-0.750			
0.5428	34737.38	3.5560	3.5559	-2.1522	26.44	0.47	-0.750			
0.5493	35157.16	3.5530	3.5531	-2.1599	26.44	0.47	-0.750			
0.5559	35575.10	3.5500	3.5499	-2.1432	26.44	0.47	-0.750			
0.5623	35987.80	3.5470	3.5469	-2.1267	26.44	0.47	-0.750			
0.5686	36390.77	3.5440	3.5443	-2.0946	26.44	0.47	-0.750			
0.5749	36791.05	3.5410	3.5409	-2.0863	26.44	0.47	-0.750			
0.5810	37183.75	3.5380	3.5380	-2.0494	26.45	0.48	-0.750			
0.5871	37577.08	3.5350	3.5351	-2.0281	26.46	0.49	-0.750			
0.5933	37973.06	3.5320	3.5320	-2.0292	26.47	0.50	-0.750			
0.5994	38360.81	3.5290	3.5290	-1.9977	26.48	0.51	-0.750			
0.6053	38737.42	3.5260	3.5261	-1.9812	26.49	0.52	-0.750			
0.6112	39117.47	3.5230	3.5230	-1.9396	26.50	0.53	-0.750			
0.6171	39491.80	3.5200	3.5199	-1.8941	26.51	0.54	-0.750			
0.6227	39855.36	3.5170	3.5170	-1.8474	26.52	0.55	-0.750			
0.6282	40202.69	3.5140	3.5137	-1.7988	26.53	0.56	-0.750			
0.6335	40546.53	3.5110	3.5108	-1.7417	26.54	0.57	-0.750			
0.6386	40872.73	3.5080	3.5079	-1.6900	26.55	0.58	-0.750			
0.6436	41188.90	3.5050	3.5048	-1.6285	26.57	0.60	-0.750			
0.6484	41500.36	3.5020	3.5020	-1.5870	26.58	0.61	-0.750			
0.6531	41800.71	3.4990	3.4991	-1.5394	26.60	0.63	-0.750			
0.6577	42095.37	3.4960	3.4959	-1.5071	26.61	0.64	-0.750			
0.6622	42380.47	3.4930	3.4929	-1.4608	26.63	0.66	-0.750			
0.6666	42661.26	3.4900	3.4899	-1.4226	26.64	0.67	-0.750			
0.6707	42927.59	3.4870	3.4869	-1.3734	26.65	0.68	-0.750			
0.6748	43187.23	3.4840	3.4838	-1.3245	26.67	0.70	-0.750			
0.6788	43441.41	3.4810	3.4809	-1.2854	26.69	0.72	-0.750			
0.6825	43678.66	3.4780	3.4780	-1.2394	26.71	0.74	-0.750			
0.6861	43907.72	3.4750	3.4751	-1.2006	26.73	0.76	-0.750			
0.6897	44141.28	3.4720	3.4720	-1.1755	26.74	0.77	-0.750			
0.6932	44364.92	3.4690	3.4689	-1.1369	26.76	0.79	-0.750			
0.6966	44579.97	3.4660	3.4660	-1.1005	26.78	0.81	-0.750			
0.6998	44788.24	3.4630	3.4630	-1.0683	26.79	0.82	-0.750			
0.7030	44990.83	3.4600	3.4599	-1.0307	26.80	0.83	-0.750			
0.7060	45182.11	3.4570	3.4569	-0.9941	26.81	0.84	-0.750			
0.7089	45367.23	3.4540	3.4540	-0.9591	26.83	0.86	-0.750			
0.7117	45549.45	3.4510	3.4510	-0.9403	26.84	0.87	-0.750			
0.7145	45726.40	3.4480	3.4480	-0.9199	26.85	0.88	-0.750			
0.7172	45899.81	3.4450	3.4450	-0.8954	26.86	0.89	-0.750			
0.7198	46069.22	3.4420	3.4419	-0.8801	26.87	0.90	-0.750			
0.7225	46237.63	3.4390	3.4392	-0.8708	26.88	0.91	-0.750			
0.7250	46402.05	3.4360	3.4361	-0.8608	26.89	0.92	-0.750			
0.7276	46565.78	3.4330	3.4329	-0.8605	26.90	0.93	-0.750			
0.7301	46728.85	3.4300	3.4299	-0.8625	26.91	0.94	-0.750			
0.7327	46892.77	3.4270	3.4270	-0.8702	26.92	0.95	-0.750			
0.7353	47062.26	3.4240	3.4242	-0.8810	26.93	0.96	-0.750			
0.7380	47232.49	3.4210	3.4210	-0.8975	26.94	0.97	-0.750			
0.7407	47406.72	3.4180	3.4180	-0.9104	26.95	0.98	-0.750			
0.7435	47582.98	3.4150	3.4149	-0.9128	26.96	0.99	-0.750			
0.7463	47761.88	3.4120	3.4121	-0.9238	26.98	1.01	-0.750			
0.7490	47939.14	3.4090	3.4089	-0.9231	26.99	1.02	-0.750			
0.7518	48117.32	3.4060	3.4060	-0.9206	27.00	1.03	-0.750			
0.7546	48295.60	3.4030	3.4029	-0.9103	27.01	1.04	-0.750			
0.7573	48468.07	3.4000	3.4000	-0.8910	27.02	1.05	-0.750			
0.7600	48641.59	3.3970	3.3970	-0.8820	27.03	1.06	-0.750			
0.7627	48810.43	3.3940	3.3940	-0.8623	27.04	1.07	-0.750			
0.7652	48974.35	3.3910	3.3909	-0.8335	27.04	1.07	-0.750			
0.7677	49130.78	3.3880	3.3880	-0.8092	27.05	1.08	-0.750			
0.7701	49284.55	3.3850	3.3851	-0.7841	27.05	1.08	-0.750			
0.7724	49432.38	3.3820	3.3821	-0.7619	27.06	1.09	-0.750			
0.7746	49576.52	3.3790	3.3789	-0.7343	27.07	1.10	-0.750			
0.7768	49713.84	3.3760	3.3760	-0.7072	27.08	1.11	-0.750			
0.7789	49847.72	3.3730	3.3730	-0.6879	27.09	1.12	-0.750			
0.7809	49978.79	3.3700	3.3699	-0.6660	27.09	1.12	-0.750			
0.7829	50102.82	3.3670	3.3669	-0.6373	27.10	1.13	-0.750			
0.7847	50223.29	3.3640	3.3641	-0.6169	27.11	1.14	-0.750			
0.7865	50338.28	3.3610	3.3609	-0.5976	27.12	1.15	-0.750			
0.7883	50452.11	3.3580	3.3580	-0.5805	27.12	1.15	-0.750			
0.7900	50560.42	3.3550	3.3550	-0.5593	27.13	1.16	-0.750			
0.7917	50666.41	3.3520	3.3520	-0.5461	27.13	1.16	-0.750			
0.7933	50769.99	3.3490	3.3490	-0.5286	27.14	1.17	-0.750			
0.7948	50869.69	3.3460	3.3459	-0.5079	27.14	1.17	-0.750			
0.7963	50965.20	3.3430	3.3430	-0.4894	27.15	1.18	-0.750			
0.7978	51057.21	3.3400	3.3401	-0.4734	27.15	1.18	-0.750			
0.7992	51146.40	3.3370	3.3370	-0.4586	27.16	1.19	-0.750			
0.8005	51232.83	3.3340	3.3339	-0.4434	27.16	1.19	-0.750			
0.8018	51315.24	3.3310	3.3311	-0.4285	27.17	1.20	-0.750			
0.8031	51396.68	3.3280	3.3280	-0.4172	27.18	1.21	-0.750			
0.8043	51475.84	3.3250	3.3250	-0.4051	27.18	1.21	-0.750			
0.8055	51551.67	3.3220	3.3220	-0.3928	27.19	1.22	-0.750			
0.8067	51625.98	3.3190	3.3190	-0.3812	27.19	1.22	-0.750			
0.8078	51698.37	3.3160	3.3160	-0.3711	27.20	1.23	-0.750			
0.8089	51768.76	3.3130	3.3130	-0.3611	27.21	1.24	-0.750			
0.8099	51836.41	3.3100	3.3101	-0.3515	27.21	1.24	-0.750			
0.8110	51903.15	3.3070	3.3070	-0.3433	27.22	1.25	-0.750			
0.8120	51968.15	3.3040	3.3039	-0.3346	27.23	1.26	-0.750			
0.8130	52031.54	3.3010	3.3010	-0.3260	27.23	1.26	-0.750			
0.8140	52093.06	3.2980	3.2981	-0.3199	27.24	1.27	-0.750			
0.8149	52153.80	3.2950	3.2950	-0.3115	27.25	1.28	-0.750			
0.8158	52213.19	3.2920	3.2919	-0.3038	27.25	1.28	-0.750			
0.8167	52270.55	3.2890	3.2890	-0.2967	27.26	1.29	-0.750			
0.8176	52327.09	3.2860	3.2861	-0.2893	27.27	1.30	-0.750			
0.8185	52381.56	3.2830	3.2829	-0.2844	27.27	1.30	-0.750			
0.8193	52434.96	3.2800	3.2801	-0.2791	27.28	1.31	-0.750			
0.8201	52488.00	3.2770	3.2769	-0.2732	27.28	1.31	-0.750			
0.8209	52540.64	3.2740	3.2740	-0.2698	27.29	1.32	-0.750			
0.8217	52591.90	3.2710	3.2710	-0.2642	27.30	1.33	-0.750			
0.8225	52642.04	3.2680	3.2682	-0.2584	27.30	1.33	-0.750			
0.8233	52691.52	3.2650	3.2650	-0.2538	27.31	1.34	-0.750			
0.8240	52739.03	3.2620	3.2620	-0.2472	27.31	1.34	-0.750			
0.8248	52785.54	3.2590	3.2590	-0.2429	27.32	1.35	-0.750			
0.8255	52831.95	3.2560	3.2560	-0.2409	27.32	1.35	-0.750			
0.8262	52877.84	3.2530	3.2530	-0.2360	27.33	1.36	-0.750			
0.8269	52922.82	3.2500	3.2500	-0.2326	27.33	1.36	-0.750			
0.8276	52967.26	3.2470	3.2470	-0.2291	27.34	1.37	-0.750			
0.8283	53010.99	3.2440	3.2441	-0.2261	27.34	1.37	-0.750			
0.8290	53054.25	3.2410	3.2410	-0.2223	27.35	1.38	-0.750			
0.8296	53096.52	3.2380	3.2379	-0.2181	27.35	1.38	-0.750			
0.8303	53137.77	3.2350	3.2350	-0.2143	27.36	1.39	-0.750			
0.8309	53178.20	3.2320	3.2321	-0.2109	27.36	1.39	-0.750			
0.8315	53218.46	3.2290	3.2291	-0.2091	27.37	1.40	-0.750			
0.8322	53258.34	3.2260	3.2259	-0.2064	27.37	1.40	-0.750			
0.8328	53297.47	3.2230	3.2229	-0.2034	27.37	1.40	-0.750			
0.8334	53336.29	3.2200	3.2200	-0.2005	27.38	1.41	-0.750			
0.8340	53374.79	3.2170	3.2169	-0.1988	27.38	1.41	-0.750			
0.8346	53412.69	3.2140	3.2142	-0.1960	27.39	1.42	-0.750			
0.8352	53450.06	3.2110	3.2110	-0.1933	27.39	1.42	-0.750			
0.8357	53486.73	3.2080	3.2079	-0.1907	27.40	1.43	-0.750			
0.8363	53522.84	3.2050	3.2050	-0.1882	27.41	1.44	-0.750			
0.8369	53558.80	3.2020	3.2021	-0.1865	27.41	1.44	-0.750			
0.8374	53594.47	3.1990	3.1990	-0.1848	27.42	1.45	-0.750			
0.8380	53630.01	3.1960	3.1960	-0.1825	27.42	1.45	-0.750			
0.8385	53664.87	3.1930	3.1930	-0.1802	27.43	1.46	-0.750			
0.8391	53699.22	3.1900	3.1900	-0.1777	27.44	1.47	-0.750			
0.8396	53733.16	3.1870	3.1871	-0.1757	27.44	1.47	-0.750			
0.8401	53766.62	3.1840	3.1840	-0.1733	27.45	1.48	-0.750			
0.8406	53799.51	3.1810	3.1809	-0.1707	27.46	1.49	-0.750			
0.8411	53831.89	3.1780	3.1781	-0.1702	27.46	1.49	-0.750			
0.8416	53864.34	3.1750	3.1750	-0.1685	27.47	1.50	-0.750			
0.8421	53896.94	3.1720	3.1719	-0.1672	27.47	1.50	-0.750			
0.8426	53928.88	3.1690	3.1690	-0.1655	27.48	1.51	-0.750			
0.8431	53960.53	3.1660	3.1660	-0.1640	27.48	1.51	-0.750			
0.8436	53991.73	3.1630	3.1631	-0.1629	27.49	1.52	-0.750			
0.8441	54022.93	3.1600	3.1600	-0.1616	27.49	1.52	-0.750			
0.8446	54053.88	3.1570	3.1567	-0.1596	27.50	1.53	-0.750			
0.8451	54084.09	3.1540	3.1540	-0.1574	27.50	1.53	-0.750			
0.8455	54114.46	3.1510	3.1511	-0.1561	27.50	1.53	-0.750			
0.8460	54144.25	3.1480	3.1481	-0.1542	27.51	1.54	-0.750			
0.8465	54173.83	3.1450	3.1449	-0.1527	27.51	1.54	-0.750			
0.8469	54202.72	3.1420	3.1420	-0.1509	27.52	1.55	-0.750			
0.8474	54231.26	3.1390	3.1391	-0.1491	27.52	1.55	-0.750			
0.8478	54259.81	3.1360	3.1360	-0.1483	27.53	1.56	-0.750			
0.8483	54288.29	3.1330	3.1330	-0.1474	27.53	1.56	-0.750			
0.8487	54316.45	3.1300	3.1300	-0.1463	27.54	1.57	-0.750			
0.8491	54344.54	3.1270	3.1270	-0.1453	27.54	1.57	-0.750			
0.8496	54372.31	3.1240	3.1240	-0.1441	27.55	1.58	-0.750			
0.8500	54399.87	3.1210	3.1209	-0.1428	27.56	1.59	-0.750			
0.8504	54427.23	3.1180	3.1180	-0.1415	27.56	1.59	-0.750			
0.8508	54454.17	3.1150	3.1150	-0.1404	27.57	1.60	-0.750			
0.8513	54481.01	3.1120	3.1120	-0.1393	27.58	1.61	-0.750			
0.8517	54507.65	3.1090	3.1090	-0.1379	27.58	1.61	-0.750			
0.8521	54533.95	3.1060	3.1060	-0.1367	27.59	1.62	-0.750			
0.8525	54560.01	3.1030	3.1030	-0.1359	27.59	1.62	-0.750			
0.8529	54586.02	3.1000	3.1000	-0.1350	27.60	1.63	-0.750			
0.8533	54611.89	3.0970	3.0970	-0.1339	27.61	1.64	-0.750			
0.8537	54637.45	3.0940	3.0941	-0.1331	27.61	1.64	-0.750			
0.8541	54662.82	3.0910	3.0909	-0.1321	27.62	1.65	-0.750			
0.8545	54688.18	3.0880	3.0879	-0.1311	27.62	1.65	-0.750			
0.8549	54713.41	3.0850	3.0850	-0.1303	27.63	1.66	-0.750			
0.8553	54738.33	3.0820	3.0821	-0.1291	27.64	1.67	-0.750			
0.8557	54762.89	3.0790	3.0790	-0.1279	27.64	1.67	-0.750			
0.8561	54787.35	3.0760	3.0761	-0.1269	27.65	1.68	-0.750			
0.8564	54811.70	3.0730	3.0730	-0.1261	27.65	1.68	-0.750			
0.8568	54835.81	3.0700	3.0700	-0.1250	27.66	1.69	-0.750			
0.8572	54859.51	3.0670	3.0670	-0.1240	27.67	1.70	-0.750			
0.8576	54883.26	3.0640	3.0638	-0.1233	27.67	1.70	-0.750			
0.8579	54906.67	3.0610	3.0611	-0.1231	27.68	1.71	-0.750			
0.8583	54930.18	3.0580	3.0580	-0.1227	27.68	1.71	-0.750			
0.8587	54953.86	3.0550	3.0549	-0.1221	27.69	1.72	-0.750			
0.8590	54977.22	3.0520	3.0519	-0.1216	27.70	1.73	-0.750			
0.8594	55000.81	3.0490	3.0489	-0.1201	27.70	1.73	-0.750			
0.8598	55024.12	3.0460	3.0459	-0.1194	27.71	1.74	-0.750			
0.8601	55046.71	3.0430	3.0430	-0.1185	27.71	1.74	-0.750			
0.8605	55069.43	3.0400	3.0401	-0.1173	27.72	1.75	-0.750			
0.8608	55091.65	3.0370	3.0369	-0.1167	27.72	1.75	-0.750			
0.8611	55113.48	3.0340	3.0339	-0.1155	27.73	1.76	-0.750			
0.8615	55135.77	3.0310	3.0311	-0.1148	27.74	1.77	-0.750			
0.8618	55157.76	3.0280	3.0280	-0.1144	27.74	1.77	-0.750			
0.8622	55179.73	3.0250	3.0250	-0.1138	27.75	1.78	-0.750			
0.8625	55201.81	3.0220	3.0220	-0.1134	27.75	1.78	-0.750			
0.8629	55223.55	3.0190	3.0190	-0.1121	27.76	1.79	-0.750			
0.8632	55244.98	3.0160	3.0159	-0.1109	27.76	1.79	-0.750			
0.8635	55266.07	3.0130	3.0130	-0.1104	27.77	1.80	-0.750			
0.8639	55287.07	3.0100	3.0102	-0.1096	27.77	1.80	-0.750			
0.8642	55308.04	3.0070	3.0069	-0.1089	27.78	1.81	-0.751			
0.8645	55328.87	3.0040	3.0040	-0.1085	27.78	1.81	-0.751			
0.8648	55349.65	3.0010	3.0010	-0.1080	27.79	1.82	-0.751			
