Ah_balance (normalized)	Ah_balance (mAh)	Voltage - fit (V)	Voltage -  interpolate (V)	dQ/dV (1/V)	Temperature (°C)	Temperature - diff (°C)	Current (C)	R_DC 0ms (mOhm)	R_DC 50ms (mOhm)	R_DC 50 ms PEC (mOhm)
0.0005	32.37	4.1650	4.1649	-0.1493	25.54	-0.00	-0.750			
0.0010	64.90	4.1620	4.1621	-0.1977	25.54	-0.00	-0.750			
0.0017	108.53	4.1590	4.1591	-0.2475	25.54	-0.00	-0.750			
0.0025	161.94	4.1560	4.1558	-0.2913	25.53	-0.01	-0.750			
0.0035	222.41	4.1530	4.1531	-0.3317	25.53	-0.01	-0.750			
0.0046	291.24	4.1500	4.1501	-0.3739	25.53	-0.01	-0.750			
0.0057	367.26	4.1470	4.1471	-0.4147	25.52	-0.02	-0.750			
0.0070	450.50	4.1440	4.1439	-0.4557	25.52	-0.02	-0.750			
0.0085	541.82	4.1410	4.1410	-0.4883	25.51	-0.03	-0.750			
0.0100	640.19	4.1380	4.1380	-0.5226	25.51	-0.03	-0.750			
0.0117	746.93	4.1350	4.1350	-0.5531	25.50	-0.04	-0.750			
0.0134	855.94	4.1320	4.1321	-0.5766	25.50	-0.04	-0.750			
0.0151	969.52	4.1290	4.1290	-0.5980	25.50	-0.04	-0.750			
0.0170	1085.80	4.1260	4.1260	-0.6182	25.49	-0.05	-0.750			
0.0189	1206.42	4.1230	4.1230	-0.6363	25.49	-0.05	-0.750			
0.0208	1332.09	4.1200	4.1200	-0.6548	25.49	-0.05	-0.750			
0.0228	1460.64	4.1170	4.1169	-0.6691	25.48	-0.06	-0.750			
0.0249	1590.83	4.1140	4.1141	-0.6800	25.48	-0.06	-0.750			
0.0269	1722.59	4.1110	4.1109	-0.6892	25.48	-0.06	-0.750			
0.0290	1855.57	4.1080	4.1080	-0.6974	25.47	-0.07	-0.750			
0.0311	1989.32	4.1050	4.1050	-0.7071	25.47	-0.07	-0.750			
0.0332	2127.08	4.1020	4.1021	-0.7144	25.47	-0.07	-0.750			
0.0354	2266.84	4.0990	4.0989	-0.7231	25.46	-0.08	-0.750			
0.0376	2406.19	4.0960	4.0962	-0.7277	25.46	-0.08	-0.750			
0.0398	2546.25	4.0930	4.0930	-0.7319	25.46	-0.08	-0.750			
0.0420	2686.57	4.0900	4.0900	-0.7365	25.46	-0.08	-0.750			
0.0442	2827.75	4.0870	4.0870	-0.7436	25.46	-0.08	-0.750			
0.0464	2972.32	4.0840	4.0839	-0.7422	25.46	-0.08	-0.750			
0.0487	3117.29	4.0810	4.0810	-0.7489	25.46	-0.08	-0.750			
0.0509	3260.02	4.0780	4.0782	-0.7522	25.46	-0.08	-0.750			
0.0532	3404.79	4.0750	4.0749	-0.7565	25.46	-0.08	-0.750			
0.0555	3550.65	4.0720	4.0719	-0.7598	25.46	-0.08	-0.750			
0.0577	3695.37	4.0690	4.0690	-0.7617	25.45	-0.09	-0.750			
0.0601	3843.79	4.0660	4.0660	-0.7662	25.45	-0.09	-0.750			
0.0624	3992.63	4.0630	4.0630	-0.7671	25.45	-0.09	-0.750			
0.0647	4138.28	4.0600	4.0600	-0.7675	25.45	-0.09	-0.750			
0.0669	4284.55	4.0570	4.0570	-0.7731	25.45	-0.09	-0.750			
0.0693	4433.03	4.0540	4.0540	-0.7750	25.46	-0.08	-0.750			
0.0716	4582.56	4.0510	4.0509	-0.7797	25.46	-0.08	-0.750			
0.0740	4734.36	4.0480	4.0480	-0.7817	25.46	-0.08	-0.750			
0.0763	4885.33	4.0450	4.0451	-0.7820	25.46	-0.08	-0.750			
0.0787	5035.36	4.0420	4.0420	-0.7826	25.47	-0.07	-0.750			
0.0810	5184.82	4.0390	4.0390	-0.7784	25.47	-0.07	-0.750			
0.0833	5332.21	4.0360	4.0360	-0.7772	25.47	-0.07	-0.750			
0.0857	5482.61	4.0330	4.0329	-0.7807	25.48	-0.06	-0.750			
0.0880	5631.92	4.0300	4.0301	-0.7847	25.48	-0.06	-0.750			
0.0904	5783.69	4.0270	4.0270	-0.7874	25.48	-0.06	-0.750			
0.0927	5935.64	4.0240	4.0240	-0.7936	25.48	-0.06	-0.750			
0.0951	6088.93	4.0210	4.0210	-0.7956	25.48	-0.06	-0.750			
0.0975	6242.10	4.0180	4.0180	-0.7978	25.48	-0.06	-0.750			
0.0999	6394.80	4.0150	4.0151	-0.7979	25.48	-0.06	-0.750			
0.1023	6549.02	4.0120	4.0119	-0.7994	25.48	-0.06	-0.750			
0.1047	6701.61	4.0090	4.0090	-0.8032	25.48	-0.06	-0.750			
0.1071	6856.92	4.0060	4.0060	-0.8046	25.49	-0.05	-0.750			
0.1095	7011.02	4.0030	4.0030	-0.8025	25.49	-0.05	-0.750			
0.1120	7166.77	4.0000	4.0001	-0.8070	25.49	-0.05	-0.750			
0.1144	7321.16	3.9970	3.9969	-0.8076	25.49	-0.05	-0.750			
0.1168	7475.05	3.9940	3.9940	-0.8097	25.49	-0.05	-0.750			
0.1192	7630.41	3.9910	3.9910	-0.8135	25.50	-0.04	-0.750			
0.1216	7785.25	3.9880	3.9880	-0.8146	25.50	-0.04	-0.750			
0.1242	7946.25	3.9850	3.9850	-0.8191	25.50	-0.04	-0.750			
0.1266	8103.57	3.9820	3.9820	-0.8169	25.50	-0.04	-0.750			
0.1291	8259.44	3.9790	3.9791	-0.8184	25.51	-0.03	-0.750			
0.1315	8416.10	3.9760	3.9759	-0.8202	25.51	-0.03	-0.750			
0.1339	8572.51	3.9730	3.9730	-0.8193	25.51	-0.03	-0.750			
0.1364	8730.44	3.9700	3.9700	-0.8226	25.52	-0.02	-0.750			
0.1389	8889.84	3.9670	3.9670	-0.8253	25.52	-0.02	-0.750			
0.1414	9048.26	3.9640	3.9641	-0.8320	25.53	-0.01	-0.750			
0.1439	9207.16	3.9610	3.9610	-0.8336	25.53	-0.01	-0.750			
0.1464	9367.59	3.9580	3.9580	-0.8346	25.53	-0.01	-0.750			
0.1489	9528.71	3.9550	3.9549	-0.8390	25.54	-0.00	-0.750			
0.1514	9691.13	3.9520	3.9520	-0.8417	25.54	0.00	-0.750			
0.1540	9853.45	3.9490	3.9490	-0.8395	25.54	0.00	-0.750			
0.1565	10013.66	3.9460	3.9460	-0.8412	25.54	0.00	-0.750			
0.1589	10172.47	3.9430	3.9430	-0.8377	25.54	0.00	-0.750			
0.1615	10335.41	3.9400	3.9400	-0.8419	25.54	0.00	-0.750			
0.1640	10497.09	3.9370	3.9370	-0.8442	25.54	0.00	-0.750			
0.1665	10658.64	3.9340	3.9341	-0.8473	25.55	0.01	-0.750			
0.1691	10822.69	3.9310	3.9309	-0.8531	25.55	0.01	-0.750			
0.1717	10987.21	3.9280	3.9280	-0.8561	25.55	0.01	-0.750			
0.1742	11151.44	3.9250	3.9250	-0.8535	25.56	0.02	-0.750			
0.1768	11315.97	3.9220	3.9220	-0.8559	25.56	0.02	-0.750			
0.1794	11480.27	3.9190	3.9190	-0.8656	25.57	0.03	-0.750			
0.1820	11646.06	3.9160	3.9159	-0.8652	25.58	0.04	-0.750			
0.1846	11812.56	3.9130	3.9129	-0.8671	25.58	0.04	-0.750			
0.1872	11980.53	3.9100	3.9100	-0.8710	25.59	0.05	-0.750			
0.1898	12148.26	3.9070	3.9070	-0.8745	25.59	0.05	-0.750			
0.1925	12317.07	3.9040	3.9040	-0.8746	25.59	0.05	-0.750			
0.1951	12483.97	3.9010	3.9010	-0.8716	25.60	0.06	-0.750			
0.1977	12650.34	3.8980	3.8980	-0.8693	25.60	0.06	-0.750			
0.2003	12820.10	3.8950	3.8951	-0.8709	25.60	0.06	-0.750			
0.2029	12985.82	3.8920	3.8920	-0.8699	25.60	0.06	-0.750			
0.2055	13152.55	3.8890	3.8891	-0.8688	25.61	0.07	-0.750			
0.2081	13318.43	3.8860	3.8859	-0.8708	25.61	0.07	-0.750			
0.2107	13485.69	3.8830	3.8830	-0.8732	25.62	0.08	-0.750			
0.2133	13653.42	3.8800	3.8801	-0.8755	25.62	0.08	-0.750			
0.2160	13821.46	3.8770	3.8770	-0.8803	25.62	0.08	-0.750			
0.2186	13992.11	3.8740	3.8740	-0.8857	25.63	0.09	-0.750			
0.2213	14162.35	3.8710	3.8709	-0.8870	25.63	0.09	-0.750			
0.2240	14333.31	3.8680	3.8680	-0.8884	25.64	0.10	-0.750			
0.2266	14503.50	3.8650	3.8651	-0.8904	25.64	0.10	-0.750			
0.2293	14676.27	3.8620	3.8620	-0.8914	25.65	0.11	-0.750			
0.2320	14846.94	3.8590	3.8589	-0.8916	25.65	0.11	-0.750			
0.2346	15017.38	3.8560	3.8560	-0.8906	25.65	0.11	-0.750			
0.2373	15188.59	3.8530	3.8531	-0.8916	25.66	0.12	-0.750			
0.2400	15359.69	3.8500	3.8499	-0.8961	25.66	0.12	-0.750			
0.2427	15532.43	3.8470	3.8470	-0.8952	25.66	0.12	-0.750			
0.2454	15703.86	3.8440	3.8440	-0.8945	25.67	0.13	-0.750			
0.2481	15876.45	3.8410	3.8410	-0.8946	25.67	0.13	-0.750			
0.2508	16048.13	3.8380	3.8381	-0.8941	25.67	0.13	-0.750			
0.2534	16219.15	3.8350	3.8351	-0.8990	25.67	0.13	-0.750			
0.2561	16392.30	3.8320	3.8319	-0.8989	25.67	0.13	-0.750			
0.2588	16564.75	3.8290	3.8289	-0.8999	25.68	0.14	-0.750			
0.2615	16738.53	3.8260	3.8260	-0.9022	25.68	0.14	-0.750			
0.2642	16911.09	3.8230	3.8231	-0.9030	25.68	0.14	-0.750			
0.2670	17085.49	3.8200	3.8200	-0.9065	25.69	0.15	-0.750			
0.2697	17259.86	3.8170	3.8169	-0.9022	25.69	0.15	-0.750			
0.2724	17431.54	3.8140	3.8140	-0.8995	25.70	0.16	-0.750			
0.2751	17605.56	3.8110	3.8109	-0.9002	25.70	0.16	-0.750			
0.2778	17777.62	3.8080	3.8080	-0.9031	25.70	0.16	-0.750			
0.2805	17951.13	3.8050	3.8050	-0.9030	25.71	0.17	-0.750			
0.2832	18123.47	3.8020	3.8020	-0.9040	25.71	0.17	-0.750			
0.2859	18297.98	3.7990	3.7990	-0.9050	25.72	0.18	-0.750			
0.2887	18474.03	3.7960	3.7960	-0.9043	25.72	0.18	-0.750			
0.2914	18646.59	3.7930	3.7931	-0.9079	25.73	0.19	-0.750			
0.2941	18821.03	3.7900	3.7900	-0.9091	25.73	0.19	-0.750			
0.2968	18995.78	3.7870	3.7869	-0.9046	25.73	0.19	-0.750			
0.2995	19170.19	3.7840	3.7841	-0.9035	25.74	0.20	-0.750			
0.3022	19342.73	3.7810	3.7809	-0.8989	25.74	0.20	-0.750			
0.3049	19515.98	3.7780	3.7780	-0.8980	25.74	0.20	-0.750			
0.3076	19686.49	3.7750	3.7750	-0.8969	25.75	0.21	-0.750			
0.3102	19854.08	3.7720	3.7719	-0.8944	25.75	0.21	-0.750			
0.3130	20029.56	3.7690	3.7691	-0.8979	25.75	0.21	-0.750			
0.3157	20202.22	3.7660	3.7660	-0.9061	25.75	0.21	-0.750			
0.3184	20377.87	3.7630	3.7630	-0.9068	25.76	0.22	-0.750			
0.3211	20552.66	3.7600	3.7600	-0.9073	25.76	0.22	-0.750			
0.3239	20726.63	3.7570	3.7569	-0.9053	25.77	0.23	-0.750			
0.3266	20900.35	3.7540	3.7539	-0.9018	25.77	0.23	-0.750			
0.3292	21071.52	3.7510	3.7511	-0.9065	25.78	0.24	-0.750			
0.3320	21247.71	3.7480	3.7480	-0.9074	25.78	0.24	-0.750			
0.3347	21420.91	3.7450	3.7449	-0.9051	25.78	0.24	-0.750			
0.3375	21596.99	3.7420	3.7422	-0.9065	25.79	0.25	-0.750			
0.3401	21769.54	3.7390	3.7390	-0.9103	25.79	0.25	-0.750			
0.3429	21943.61	3.7360	3.7360	-0.9173	25.79	0.25	-0.750			
0.3456	22118.99	3.7330	3.7329	-0.9208	25.79	0.25	-0.750			
0.3484	22295.02	3.7300	3.7300	-0.9274	25.79	0.25	-0.750			
0.3512	22477.48	3.7270	3.7270	-0.9392	25.79	0.25	-0.750			
0.3540	22657.57	3.7240	3.7240	-0.9494	25.79	0.25	-0.750			
0.3569	22841.50	3.7210	3.7210	-0.9596	25.79	0.25	-0.750			
0.3598	23024.69	3.7180	3.7180	-0.9723	25.79	0.25	-0.750			
0.3627	23211.94	3.7150	3.7151	-0.9850	25.79	0.25	-0.750			
0.3657	23403.98	3.7120	3.7119	-1.0037	25.79	0.25	-0.750			
0.3687	23599.02	3.7090	3.7091	-1.0165	25.79	0.25	-0.750			
0.3718	23795.66	3.7060	3.7060	-1.0283	25.79	0.25	-0.750			
0.3749	23992.78	3.7030	3.7029	-1.0409	25.79	0.25	-0.750			
0.3780	24194.41	3.7000	3.6999	-1.0568	25.79	0.25	-0.750			
0.3812	24397.17	3.6970	3.6970	-1.0742	25.80	0.26	-0.750			
0.3844	24603.01	3.6940	3.6940	-1.0982	25.80	0.26	-0.750			
0.3878	24817.20	3.6910	3.6910	-1.1254	25.81	0.27	-0.750			
0.3912	25036.67	3.6880	3.6880	-1.1446	25.80	0.26	-0.750			
0.3947	25258.95	3.6850	3.6849	-1.1663	25.80	0.26	-0.750			
0.3982	25481.71	3.6820	3.6821	-1.1954	25.79	0.25	-0.750			
0.4018	25713.41	3.6790	3.6790	-1.2198	25.79	0.25	-0.750			
0.4055	25950.66	3.6760	3.6759	-1.2429	25.78	0.24	-0.750			
0.4092	26191.55	3.6730	3.6729	-1.2698	25.78	0.24	-0.750			
0.4131	26439.68	3.6700	3.6703	-1.3050	25.77	0.23	-0.750			
0.4171	26694.14	3.6670	3.6670	-1.3318	25.76	0.22	-0.750			
0.4211	26952.45	3.6640	3.6639	-1.3578	25.76	0.22	-0.750			
0.4252	27214.40	3.6610	3.6613	-1.3936	25.75	0.21	-0.750			
0.4295	27487.51	3.6580	3.6579	-1.4214	25.74	0.20	-0.750			
0.4338	27760.90	3.6550	3.6549	-1.4586	25.73	0.19	-0.750			
0.4382	28044.85	3.6520	3.6523	-1.4837	25.72	0.18	-0.750			
0.4427	28332.18	3.6490	3.6490	-1.5382	25.71	0.17	-0.750			
0.4474	28631.42	3.6460	3.6459	-1.5655	25.70	0.16	-0.750			
0.4520	28929.54	3.6430	3.6430	-1.6083	25.70	0.16	-0.750			
0.4570	29245.03	3.6400	3.6399	-1.6621	25.69	0.15	-0.750			
0.4620	29570.69	3.6370	3.6368	-1.6923	25.68	0.14	-0.750			
0.4672	29898.84	3.6340	3.6339	-1.7254	25.67	0.13	-0.750			
0.4724	30236.05	3.6310	3.6311	-1.7511	25.66	0.12	-0.750	0.415	0.500	
0.4777	30572.15	3.6280	3.6278	-1.7739	25.66	0.12	-0.750			
0.4831	30917.16	3.6250	3.6249	-1.8106	25.65	0.11	-0.750			
0.4885	31265.75	3.6220	3.6221	-1.8420	25.64	0.10	-0.750			
0.4941	31622.35	3.6190	3.6193	-1.8832	25.62	0.08	-0.750			
0.4998	31990.16	3.6160	3.6162	-1.9180	25.61	0.07	-0.750			
0.5057	32363.33	3.6130	3.6130	-1.9601	25.61	0.07	-0.750			
0.5116	32741.74	3.6100	3.6100	-2.0000	25.60	0.06	-0.750			
0.5177	33132.79	3.6070	3.6070	-2.0398	25.59	0.05	-0.750			
0.5239	33526.81	3.6040	3.6040	-2.0674	25.58	0.04	-0.750			
0.5301	33924.24	3.6010	3.6010	-2.1085	25.57	0.03	-0.750			
0.5365	34336.10	3.5980	3.5980	-2.1239	25.56	0.02	-0.750			
0.5429	34746.43	3.5950	3.5951	-2.1558	25.55	0.01	-0.750			
0.5494	35159.92	3.5920	3.5920	-2.1896	25.54	0.00	-0.750			
0.5559	35578.82	3.5890	3.5888	-2.2345	25.53	-0.01	-0.750			
0.5627	36014.09	3.5860	3.5860	-2.2717	25.52	-0.02	-0.750			
0.5696	36454.13	3.5830	3.5830	-2.3098	25.52	-0.02	-0.750			
0.5767	36908.43	3.5800	3.5799	-2.3380	25.52	-0.02	-0.750			
0.5838	37361.60	3.5770	3.5771	-2.3701	25.51	-0.03	-0.750			
0.5910	37824.98	3.5740	3.5741	-2.3752	25.50	-0.04	-0.750			
0.5981	38277.13	3.5710	3.5710	-2.3859	25.50	-0.04	-0.750			
0.6053	38737.27	3.5680	3.5680	-2.3978	25.49	-0.05	-0.750			
0.6125	39202.39	3.5650	3.5649	-2.4214	25.48	-0.06	-0.750			
0.6198	39669.79	3.5620	3.5620	-2.4229	25.48	-0.06	-0.750			
0.6272	40139.61	3.5590	3.5592	-2.4205	25.48	-0.06	-0.750			
0.6344	40603.90	3.5560	3.5560	-2.4076	25.48	-0.06	-0.750			
0.6417	41066.38	3.5530	3.5529	-2.4019	25.48	-0.06	-0.750			
0.6487	41519.49	3.5500	3.5500	-2.3810	25.48	-0.06	-0.750			
0.6560	41983.97	3.5470	3.5470	-2.3730	25.48	-0.06	-0.750			
0.6630	42432.66	3.5440	3.5441	-2.3535	25.48	-0.06	-0.750			
0.6701	42887.00	3.5410	3.5410	-2.3223	25.48	-0.06	-0.750			
0.6771	43335.48	3.5380	3.5379	-2.2806	25.48	-0.06	-0.750			
0.6839	43770.53	3.5350	3.5351	-2.2362	25.48	-0.06	-0.750			
0.6905	44193.07	3.5320	3.5320	-2.1802	25.48	-0.06	-0.750			
0.6970	44606.96	3.5290	3.5290	-2.1266	25.49	-0.05	-0.750			
0.7033	45011.74	3.5260	3.5261	-2.0727	25.49	-0.05	-0.750			
0.7094	45402.68	3.5230	3.5230	-2.0069	25.50	-0.04	-0.750			
0.7154	45783.76	3.5200	3.5199	-1.9567	25.50	-0.04	-0.750			
0.7212	46153.72	3.5170	3.5171	-1.9004	25.51	-0.03	-0.750			
0.7268	46513.51	3.5140	3.5140	-1.8427	25.52	-0.02	-0.750			
0.7322	46863.08	3.5110	3.5108	-1.7740	25.54	0.00	-0.750			
0.7375	47199.25	3.5080	3.5081	-1.7012	25.56	0.02	-0.750			
0.7425	47518.03	3.5050	3.5051	-1.6394	25.57	0.03	-0.750			
0.7473	47826.17	3.5020	3.5020	-1.5787	25.58	0.04	-0.750			
0.7519	48120.20	3.4990	3.4990	-1.5038	25.58	0.04	-0.750			
0.7563	48402.56	3.4960	3.4959	-1.4497	25.60	0.06	-0.750			
0.7605	48672.77	3.4930	3.4931	-1.4058	25.61	0.07	-0.750			
0.7647	48940.89	3.4900	3.4899	-1.3554	25.63	0.09	-0.750			
0.7687	49199.05	3.4870	3.4869	-1.3150	25.64	0.10	-0.750			
0.7725	49442.63	3.4840	3.4840	-1.2634	25.65	0.11	-0.750			
0.7763	49683.54	3.4810	3.4811	-1.2255	25.66	0.12	-0.750			
0.7800	49916.92	3.4780	3.4779	-1.1865	25.67	0.13	-0.750			
0.7834	50138.70	3.4750	3.4750	-1.1381	25.69	0.15	-0.750			
0.7867	50351.03	3.4720	3.4719	-1.0916	25.70	0.16	-0.750			
0.7900	50559.00	3.4690	3.4689	-1.0621	25.71	0.17	-0.750			
0.7931	50757.92	3.4660	3.4660	-1.0222	25.72	0.18	-0.750			
0.7960	50946.95	3.4630	3.4630	-0.9899	25.73	0.19	-0.750			
0.7989	51131.17	3.4600	3.4600	-0.9686	25.74	0.20	-0.750			
0.8018	51314.78	3.4570	3.4569	-0.9585	25.76	0.22	-0.750			
0.8046	51496.99	3.4540	3.4540	-0.9624	25.77	0.23	-0.750			
0.8074	51676.76	3.4510	3.4510	-0.9751	25.78	0.24	-0.750			
0.8104	51863.13	3.4480	3.4480	-0.9993	25.79	0.25	-0.750			
0.8134	52056.85	3.4450	3.4451	-1.0533	25.80	0.26	-0.750			
0.8166	52259.37	3.4420	3.4419	-1.0984	25.81	0.27	-0.750			
0.8199	52475.97	3.4390	3.4389	-1.1532	25.82	0.28	-0.750			
0.8235	52702.87	3.4360	3.4359	-1.2076	25.83	0.29	-0.750			
0.8273	52948.98	3.4330	3.4330	-1.2400	25.83	0.29	-0.750			
0.8312	53194.69	3.4300	3.4299	-1.2479	25.84	0.30	-0.750			
0.8351	53444.28	3.4270	3.4269	-1.2381	25.85	0.31	-0.750			
0.8387	53679.88	3.4240	3.4242	-1.2067	25.86	0.32	-0.750			
0.8424	53912.27	3.4210	3.4210	-1.1724	25.87	0.33	-0.750			
0.8458	54131.83	3.4180	3.4180	-1.1309	25.88	0.34	-0.750			
0.8491	54341.63	3.4150	3.4149	-1.0797	25.89	0.35	-0.750			
0.8523	54547.20	3.4120	3.4121	-1.0564	25.89	0.35	-0.750			
0.8554	54746.51	3.4090	3.4090	-1.0206	25.90	0.36	-0.750			
0.8584	54937.92	3.4060	3.4059	-0.9865	25.90	0.36	-0.750			
0.8613	55124.62	3.4030	3.4029	-0.9497	25.91	0.37	-0.750			
0.8641	55304.51	3.4000	3.4000	-0.9186	25.91	0.37	-0.750			
0.8668	55477.49	3.3970	3.3970	-0.8889	25.92	0.38	-0.750			
0.8695	55647.36	3.3940	3.3940	-0.8530	25.93	0.39	-0.750			
0.8720	55804.97	3.3910	3.3909	-0.8157	25.94	0.40	-0.750			
0.8744	55959.11	3.3880	3.3880	-0.7900	25.95	0.41	-0.750			
0.8767	56107.10	3.3850	3.3848	-0.7567	25.95	0.41	-0.750			
0.8789	56249.50	3.3820	3.3820	-0.7305	25.96	0.42	-0.750			
0.8810	56386.38	3.3790	3.3790	-0.7008	25.96	0.42	-0.750			
0.8831	56518.37	3.3760	3.3760	-0.6731	25.96	0.42	-0.750			
0.8851	56646.97	3.3730	3.3730	-0.6483	25.97	0.43	-0.750			
0.8870	56767.01	3.3700	3.3700	-0.6171	25.97	0.43	-0.750			
0.8888	56882.14	3.3670	3.3670	-0.5928	25.97	0.43	-0.750			
0.8905	56993.72	3.3640	3.3640	-0.5698	25.98	0.44	-0.750			
0.8922	57100.04	3.3610	3.3609	-0.5442	25.99	0.45	-0.750			
0.8938	57202.59	3.3580	3.3580	-0.5239	26.00	0.46	-0.750			
0.8953	57300.71	3.3550	3.3551	-0.5041	26.01	0.47	-0.750			
0.8968	57395.68	3.3520	3.3519	-0.4828	26.01	0.47	-0.750			
0.8982	57486.81	3.3490	3.3490	-0.4611	26.02	0.48	-0.750			
0.8996	57572.79	3.3460	3.3459	-0.4373	26.03	0.49	-0.750			
0.9009	57655.06	3.3430	3.3431	-0.4165	26.03	0.49	-0.750			
0.9021	57732.90	3.3400	3.3399	-0.3973	26.04	0.50	-0.750			
0.9032	57806.18	3.3370	3.3370	-0.3771	26.04	0.50	-0.750			
0.9043	57875.86	3.3340	3.3339	-0.3589	26.05	0.51	-0.750			
0.9054	57943.62	3.3310	3.3310	-0.3442	26.05	0.51	-0.750			
0.9064	58008.33	3.3280	3.3280	-0.3302	26.06	0.52	-0.750			
0.9074	58070.41	3.3250	3.3251	-0.3151	26.06	0.52	-0.750			
0.9083	58129.00	3.3220	3.3219	-0.3020	26.07	0.53	-0.750			
0.9091	58185.00	3.3190	3.3190	-0.2901	26.07	0.53	-0.750			
0.9100	58239.08	3.3160	3.3160	-0.2788	26.08	0.54	-0.750			
0.9108	58291.51	3.3130	3.3130	-0.2694	26.08	0.54	-0.750			
0.9116	58342.92	3.3100	3.3100	-0.2605	26.08	0.54	-0.750			
0.9124	58391.96	3.3070	3.3070	-0.2511	26.09	0.55	-0.750			
0.9131	58439.91	3.3040	3.3040	-0.2430	26.09	0.55	-0.750			
0.9138	58485.20	3.3010	3.3011	-0.2332	26.10	0.56	-0.750			
0.9145	58528.48	3.2980	3.2980	-0.2243	26.10	0.56	-0.750			
0.9152	58570.26	3.2950	3.2950	-0.2158	26.11	0.57	-0.750			
0.9158	58610.84	3.2920	3.2920	-0.2090	26.11	0.57	-0.750			
0.9164	58650.03	3.2890	3.2890	-0.2027	26.11	0.57	-0.750			
0.9170	58688.54	3.2860	3.2860	-0.1973	26.12	0.58	-0.750			
0.9176	58725.86	3.2830	3.2830	-0.1915	26.12	0.58	-0.750			
0.9182	58762.08	3.2800	3.2800	-0.1852	26.12	0.58	-0.750			
0.9187	58796.93	3.2770	3.2770	-0.1801	26.13	0.59	-0.750			
0.9192	58830.81	3.2740	3.2740	-0.1745	26.13	0.59	-0.750			
0.9197	58863.82	3.2710	3.2711	-0.1695	26.13	0.59	-0.750			
0.9202	58895.51	3.2680	3.2679	-0.1659	26.14	0.60	-0.750			
0.9207	58926.62	3.2650	3.2650	-0.1618	26.14	0.60	-0.750			
0.9212	58957.28	3.2620	3.2620	-0.1588	26.14	0.60	-0.750			
0.9217	58987.54	3.2590	3.2589	-0.1564	26.15	0.61	-0.750			
0.9221	59017.54	3.2560	3.2561	-0.1533	26.15	0.61	-0.750			
0.9226	59046.68	3.2530	3.2531	-0.1501	26.15	0.61	-0.750			
0.9230	59075.19	3.2500	3.2500	-0.1469	26.16	0.62	-0.750			
0.9235	59103.39	3.2470	3.2470	-0.1435	26.16	0.62	-0.750			
0.9239	59130.17	3.2440	3.2440	-0.1403	26.16	0.62	-0.750			
0.9243	59156.80	3.2410	3.2409	-0.1374	26.16	0.62	-0.750			
0.9247	59182.84	3.2380	3.2381	-0.1350	26.17	0.63	-0.750			
0.9251	59208.23	3.2350	3.2347	-0.1323	26.17	0.63	-0.750			
0.9255	59233.43	3.2320	3.2322	-0.1304	26.17	0.63	-0.750			
0.9259	59258.19	3.2290	3.2290	-0.1283	26.18	0.64	-0.750			
0.9263	59282.64	3.2260	3.2260	-0.1265	26.18	0.64	-0.750			
0.9267	59306.90	3.2230	3.2230	-0.1248	26.18	0.64	-0.750			
0.9270	59330.56	3.2200	3.2201	-0.1233	26.19	0.65	-0.750			
0.9274	59353.83	3.2170	3.2169	-0.1214	26.19	0.65	-0.750			
0.9278	59377.10	3.2140	3.2139	-0.1196	26.20	0.66	-0.750			
0.9281	59400.00	3.2110	3.2110	-0.1181	26.20	0.66	-0.750			
0.9285	59422.50	3.2080	3.2081	-0.1164	26.20	0.66	-0.750			
0.9288	59444.74	3.2050	3.2050	-0.1147	26.21	0.67	-0.750			
0.9292	59466.55	3.2020	3.2019	-0.1131	26.21	0.67	-0.750			
0.9295	59488.09	3.1990	3.1990	-0.1113	26.21	0.67	-0.750			
0.9298	59509.26	3.1960	3.1960	-0.1098	26.22	0.68	-0.750			
0.9302	59530.04	3.1930	3.1930	-0.1081	26.22	0.68	-0.750			
0.9305	59550.55	3.1900	3.1900	-0.1072	26.23	0.69	-0.750			
0.9308	59570.97	3.1870	3.1872	-0.1061	26.23	0.69	-0.750			
0.9311	59591.26	3.1840	3.1840	-0.1051	26.23	0.69	-0.750			
0.9314	59611.24	3.1810	3.1809	-0.1040	26.24	0.70	-0.750			
0.9317	59631.26	3.1780	3.1780	-0.1027	26.24	0.70	-0.750			
0.9320	59650.98	3.1750	3.1750	-0.1017	26.24	0.70	-0.750			
0.9323	59670.33	3.1720	3.1720	-0.1005	26.25	0.71	-0.750			
0.9327	59689.65	3.1690	3.1690	-0.0995	26.25	0.71	-0.750			
0.9329	59708.46	3.1660	3.1660	-0.0986	26.25	0.71	-0.750			
0.9332	59727.05	3.1630	3.1631	-0.0972	26.25	0.71	-0.750			
0.9335	59745.65	3.1600	3.1599	-0.0965	26.26	0.72	-0.750			
0.9338	59764.01	3.1570	3.1572	-0.0957	26.26	0.72	-0.750			
0.9341	59782.44	3.1540	3.1538	-0.0949	26.26	0.72	-0.750			
0.9344	59800.73	3.1510	3.1508	-0.0943	26.27	0.73	-0.750			
0.9347	59818.76	3.1480	3.1482	-0.0932	26.27	0.73	-0.750			
0.9349	59836.63	3.1450	3.1450	-0.0923	26.27	0.73	-0.750			
0.9352	59854.24	3.1420	3.1420	-0.0911	26.27	0.73	-0.750			
0.9355	59871.53	3.1390	3.1390	-0.0904	26.28	0.74	-0.750			
0.9358	59888.81	3.1360	3.1361	-0.0896	26.28	0.74	-0.750			
0.9360	59905.85	3.1330	3.1330	-0.0886	26.28	0.74	-0.750			
0.9363	59922.81	3.1300	3.1299	-0.0879	26.28	0.74	-0.750			
0.9366	59939.54	3.1270	3.1270	-0.0876	26.28	0.74	-0.750			
0.9368	59956.32	3.1240	3.1241	-0.0872	26.28	0.74	-0.750			
0.9371	59973.03	3.1210	3.1209	-0.0867	26.29	0.75	-0.750			
0.9373	59989.63	3.1180	3.1180	-0.0863	26.29	0.75	-0.750			
0.9376	60006.20	3.1150	3.1150	-0.0856	26.29	0.75	-0.750			
0.9379	60022.57	3.1120	3.1121	-0.0850	26.29	0.75	-0.750			
0.9381	60038.97	3.1090	3.1090	-0.0845	26.30	0.76	-0.750			
0.9384	60055.12	3.1060	3.1060	-0.0837	26.30	0.76	-0.750			
0.9386	60071.04	3.1030	3.1030	-0.0828	26.30	0.76	-0.750			
0.9389	60086.81	3.1000	3.1001	-0.0822	26.31	0.77	-0.750			
0.9391	60102.52	3.0970	3.0969	-0.0815	26.31	0.77	-0.750			
0.9393	60118.04	3.0940	3.0941	-0.0809	26.32	0.78	-0.750			
0.9396	60133.48	3.0910	3.0909	-0.0805	26.32	0.78	-0.750			
0.9398	60148.83	3.0880	3.0880	-0.0800	26.32	0.78	-0.750			
0.9401	60164.22	3.0850	3.0849	-0.0795	26.33	0.79	-0.750			
0.9403	60179.45	3.0820	3.0820	-0.0791	26.33	0.79	-0.750			
0.9405	60194.63	3.0790	3.0790	-0.0786	26.34	0.80	-0.750			
0.9408	60209.73	3.0760	3.0760	-0.0780	26.34	0.80	-0.750			
0.9410	60224.73	3.0730	3.0731	-0.0775	26.34	0.80	-0.750			
0.9412	60239.54	3.0700	3.0700	-0.0767	26.35	0.81	-0.750			
0.9415	60254.06	3.0670	3.0670	-0.0768	26.35	0.81	-0.750			
0.9417	60268.55	3.0640	3.0641	-0.0762	26.35	0.81	-0.750			
0.9419	60283.35	3.0610	3.0610	-0.0757	26.36	0.82	-0.750			
0.9422	60297.85	3.0580	3.0579	-0.0754	26.36	0.82	-0.750			
0.9424	60312.32	3.0550	3.0549	-0.0750	26.37	0.83	-0.750			
0.9426	60326.67	3.0520	3.0522	-0.0746	26.37	0.83	-0.750			
0.9428	60341.11	3.0490	3.0490	-0.0745	26.37	0.83	-0.750			
0.9431	60355.37	3.0460	3.0460	-0.0739	26.38	0.84	-0.750			
0.9433	60369.42	3.0430	3.0429	-0.0736	26.38	0.84	-0.750			
0.9435	60383.29	3.0400	3.0400	-0.0728	26.38	0.84	-0.750			
0.9437	60397.26	3.0370	3.0371	-0.0727	26.39	0.85	-0.750			
0.9439	60411.23	3.0340	3.0340	-0.0723	26.39	0.85	-0.750			
0.9441	60425.21	3.0310	3.0309	-0.0722	26.39	0.85	-0.750			
0.9444	60439.05	3.0280	3.0279	-0.0718	26.40	0.86	-0.750			
0.9446	60452.79	3.0250	3.0251	-0.0713	26.40	0.86	-0.750			
0.9448	60466.46	3.0220	3.0220	-0.0709	26.41	0.87	-0.750			
0.9450	60480.14	3.0190	3.0191	-0.0701	26.41	0.87	-0.750			
0.9452	60493.68	3.0160	3.0159	-0.0696	26.41	0.87	-0.750			
0.9454	60506.96	3.0130	3.0130	-0.0688	26.42	0.88	-0.750			
0.9456	60520.08	3.0100	3.0101	-0.0679	26.42	0.88	-0.750			
0.9458	60533.14	3.0070	3.0071	-0.0666	26.42	0.88	-0.751			
0.9460	60545.79	3.0040	3.0039	-0.0652	26.43	0.89	-0.751			
