Ah_balance (normalized)	Ah_balance (mAh)	Voltage - fit (V)	Voltage -  interpolate (V)	dQ/dV (1/V)	Temperature (°C)	Temperature - diff (°C)	Current (C)	R_DC 0ms (mOhm)	R_DC 50ms (mOhm)	R_DC 50 ms PEC (mOhm)
0.0004	27.85	4.1610	4.1609	-0.1273	25.73	0.01	-0.750			
0.0009	59.16	4.1580	4.1579	-0.1768	25.73	0.01	-0.750			
0.0015	96.84	4.1550	4.1549	-0.2179	25.73	0.01	-0.750			
0.0022	143.17	4.1520	4.1520	-0.2572	25.72	0.00	-0.750			
0.0031	196.63	4.1490	4.1491	-0.2947	25.72	0.00	-0.750			
0.0040	258.17	4.1460	4.1459	-0.3297	25.72	0.00	-0.750			
0.0051	325.21	4.1430	4.1430	-0.3636	25.72	0.00	-0.750			
0.0062	398.09	4.1400	4.1401	-0.3949	25.72	-0.00	-0.750			
0.0075	477.02	4.1370	4.1369	-0.4278	25.72	-0.00	-0.750			
0.0088	562.37	4.1340	4.1340	-0.4572	25.71	-0.01	-0.750			
0.0102	653.53	4.1310	4.1310	-0.4866	25.71	-0.01	-0.750			
0.0117	750.65	4.1280	4.1280	-0.5142	25.71	-0.01	-0.750			
0.0133	853.77	4.1250	4.1250	-0.5345	25.71	-0.01	-0.750			
0.0150	959.42	4.1220	4.1220	-0.5527	25.70	-0.02	-0.750			
0.0167	1067.69	4.1190	4.1189	-0.5664	25.70	-0.02	-0.750			
0.0184	1177.85	4.1160	4.1161	-0.5790	25.70	-0.02	-0.750			
0.0202	1290.03	4.1130	4.1129	-0.5913	25.70	-0.02	-0.750			
0.0219	1404.59	4.1100	4.1100	-0.6015	25.69	-0.03	-0.750			
0.0238	1520.64	4.1070	4.1070	-0.6100	25.69	-0.03	-0.750			
0.0256	1639.93	4.1040	4.1040	-0.6226	25.69	-0.03	-0.750			
0.0275	1760.98	4.1010	4.1011	-0.6317	25.68	-0.04	-0.750			
0.0294	1883.36	4.0980	4.0980	-0.6388	25.68	-0.04	-0.750			
0.0314	2007.14	4.0950	4.0950	-0.6442	25.68	-0.04	-0.750			
0.0333	2131.60	4.0920	4.0920	-0.6498	25.68	-0.04	-0.750			
0.0352	2255.94	4.0890	4.0890	-0.6589	25.67	-0.05	-0.750			
0.0372	2383.29	4.0860	4.0860	-0.6638	25.67	-0.05	-0.750			
0.0392	2511.18	4.0830	4.0830	-0.6686	25.67	-0.05	-0.750			
0.0413	2640.66	4.0800	4.0800	-0.6748	25.66	-0.06	-0.750			
0.0433	2771.08	4.0770	4.0771	-0.6796	25.66	-0.06	-0.750			
0.0454	2902.53	4.0740	4.0740	-0.6848	25.66	-0.06	-0.750			
0.0474	3033.66	4.0710	4.0710	-0.6896	25.66	-0.06	-0.750			
0.0495	3165.99	4.0680	4.0680	-0.6890	25.67	-0.05	-0.750			
0.0516	3300.32	4.0650	4.0650	-0.6937	25.67	-0.05	-0.750			
0.0537	3434.03	4.0620	4.0620	-0.6955	25.67	-0.05	-0.750			
0.0557	3566.78	4.0590	4.0591	-0.6992	25.67	-0.05	-0.750			
0.0578	3701.22	4.0560	4.0561	-0.7006	25.67	-0.05	-0.750			
0.0599	3834.94	4.0530	4.0529	-0.7062	25.67	-0.05	-0.750			
0.0621	3971.58	4.0500	4.0500	-0.7085	25.67	-0.05	-0.750			
0.0642	4108.72	4.0470	4.0470	-0.7154	25.67	-0.05	-0.750			
0.0663	4246.16	4.0440	4.0440	-0.7182	25.67	-0.05	-0.750			
0.0685	4384.80	4.0410	4.0410	-0.7225	25.67	-0.05	-0.750			
0.0707	4524.28	4.0380	4.0379	-0.7202	25.67	-0.05	-0.750			
0.0729	4663.20	4.0350	4.0351	-0.7260	25.67	-0.05	-0.750			
0.0750	4802.88	4.0320	4.0320	-0.7240	25.67	-0.05	-0.750			
0.0772	4942.52	4.0290	4.0289	-0.7254	25.67	-0.05	-0.750			
0.0794	5080.57	4.0260	4.0260	-0.7229	25.67	-0.05	-0.750			
0.0815	5218.78	4.0230	4.0230	-0.7242	25.67	-0.05	-0.750			
0.0837	5358.00	4.0200	4.0200	-0.7261	25.67	-0.05	-0.750			
0.0859	5499.03	4.0170	4.0170	-0.7285	25.67	-0.05	-0.750			
0.0881	5637.01	4.0140	4.0140	-0.7245	25.68	-0.04	-0.750			
0.0903	5778.71	4.0110	4.0111	-0.7328	25.68	-0.04	-0.750			
0.0925	5919.06	4.0080	4.0081	-0.7322	25.68	-0.04	-0.750			
0.0947	6059.60	4.0050	4.0049	-0.7328	25.68	-0.04	-0.750			
0.0969	6200.10	4.0020	4.0020	-0.7359	25.69	-0.03	-0.750			
0.0991	6340.08	3.9990	3.9990	-0.7422	25.69	-0.03	-0.750			
0.1013	6484.10	3.9960	3.9960	-0.7464	25.69	-0.03	-0.750			
0.1036	6628.98	3.9930	3.9929	-0.7519	25.70	-0.02	-0.750			
0.1058	6773.87	3.9900	3.9901	-0.7513	25.70	-0.02	-0.750			
0.1081	6919.37	3.9870	3.9870	-0.7559	25.70	-0.02	-0.750			
0.1104	7064.53	3.9840	3.9840	-0.7575	25.70	-0.02	-0.750			
0.1126	7209.45	3.9810	3.9810	-0.7559	25.70	-0.02	-0.750			
0.1149	7354.83	3.9780	3.9779	-0.7549	25.70	-0.02	-0.750			
0.1172	7500.05	3.9750	3.9749	-0.7541	25.70	-0.02	-0.750			
0.1194	7643.79	3.9720	3.9720	-0.7569	25.70	-0.02	-0.750			
0.1217	7789.25	3.9690	3.9689	-0.7603	25.71	-0.01	-0.750			
0.1240	7934.40	3.9660	3.9660	-0.7622	25.71	-0.01	-0.750			
0.1263	8081.76	3.9630	3.9630	-0.7646	25.72	0.00	-0.750			
0.1286	8230.01	3.9600	3.9600	-0.7705	25.73	0.01	-0.750			
0.1309	8378.51	3.9570	3.9571	-0.7729	25.73	0.01	-0.750			
0.1332	8527.26	3.9540	3.9540	-0.7721	25.73	0.01	-0.750			
0.1355	8674.43	3.9510	3.9510	-0.7743	25.74	0.02	-0.750			
0.1379	8823.20	3.9480	3.9480	-0.7771	25.74	0.02	-0.750			
0.1402	8972.97	3.9450	3.9450	-0.7776	25.75	0.03	-0.750			
0.1425	9122.93	3.9420	3.9420	-0.7780	25.75	0.03	-0.750			
0.1449	9271.75	3.9390	3.9390	-0.7809	25.75	0.03	-0.750			
0.1472	9421.74	3.9360	3.9359	-0.7910	25.76	0.04	-0.750			
0.1496	9574.17	3.9330	3.9330	-0.7953	25.76	0.04	-0.750			
0.1520	9727.70	3.9300	3.9300	-0.7947	25.76	0.04	-0.750			
0.1544	9882.83	3.9270	3.9271	-0.7969	25.77	0.05	-0.750			
0.1568	10036.19	3.9240	3.9239	-0.7983	25.77	0.05	-0.750			
0.1592	10189.38	3.9210	3.9209	-0.7952	25.78	0.06	-0.750			
0.1616	10339.37	3.9180	3.9180	-0.7945	25.78	0.06	-0.750			
0.1639	10489.35	3.9150	3.9151	-0.7920	25.78	0.06	-0.750			
0.1663	10644.58	3.9120	3.9120	-0.7976	25.79	0.07	-0.750			
0.1687	10797.77	3.9090	3.9090	-0.8017	25.79	0.07	-0.750			
0.1711	10951.63	3.9060	3.9061	-0.8046	25.80	0.08	-0.750			
0.1735	11105.75	3.9030	3.9030	-0.8063	25.80	0.08	-0.750			
0.1760	11262.37	3.9000	3.9000	-0.8074	25.80	0.08	-0.750			
0.1784	11417.25	3.8970	3.8969	-0.8059	25.81	0.09	-0.750			
0.1808	11572.63	3.8940	3.8941	-0.8066	25.81	0.09	-0.750			
0.1832	11727.30	3.8910	3.8910	-0.8052	25.81	0.09	-0.750			
0.1856	11880.01	3.8880	3.8880	-0.8108	25.81	0.09	-0.750			
0.1881	12037.37	3.8850	3.8850	-0.8119	25.82	0.10	-0.750			
0.1905	12193.03	3.8820	3.8819	-0.8159	25.82	0.10	-0.750			
0.1930	12350.92	3.8790	3.8793	-0.8180	25.82	0.10	-0.750			
0.1955	12508.84	3.8760	3.8759	-0.8182	25.83	0.11	-0.750			
0.1979	12666.08	3.8730	3.8730	-0.8208	25.83	0.11	-0.750			
0.2004	12823.55	3.8700	3.8700	-0.8169	25.84	0.12	-0.750			
0.2028	12981.32	3.8670	3.8669	-0.8194	25.84	0.12	-0.750			
0.2053	13138.60	3.8640	3.8642	-0.8186	25.85	0.13	-0.750			
0.2077	13293.66	3.8610	3.8610	-0.8175	25.85	0.13	-0.750			
0.2102	13450.69	3.8580	3.8579	-0.8232	25.85	0.13	-0.750			
0.2126	13609.13	3.8550	3.8550	-0.8219	25.86	0.14	-0.750			
0.2151	13768.29	3.8520	3.8519	-0.8254	25.86	0.14	-0.750			
0.2176	13926.78	3.8490	3.8492	-0.8241	25.86	0.14	-0.750			
0.2201	14084.84	3.8460	3.8460	-0.8252	25.87	0.15	-0.750			
0.2225	14242.97	3.8430	3.8429	-0.8286	25.87	0.15	-0.750			
0.2250	14401.36	3.8400	3.8400	-0.8253	25.88	0.16	-0.750			
0.2275	14562.28	3.8370	3.8370	-0.8274	25.88	0.16	-0.750			
0.2300	14722.16	3.8340	3.8342	-0.8227	25.89	0.17	-0.750			
0.2325	14878.32	3.8310	3.8310	-0.8222	25.89	0.17	-0.750			
0.2349	15035.13	3.8280	3.8280	-0.8199	25.90	0.18	-0.750			
0.2374	15191.63	3.8250	3.8249	-0.8180	25.90	0.18	-0.750			
0.2398	15347.20	3.8220	3.8220	-0.8183	25.91	0.19	-0.750			
0.2423	15507.25	3.8190	3.8191	-0.8218	25.91	0.19	-0.750			
0.2448	15665.02	3.8160	3.8159	-0.8212	25.91	0.19	-0.750			
0.2472	15822.98	3.8130	3.8130	-0.8200	25.92	0.20	-0.750			
0.2497	15979.60	3.8100	3.8100	-0.8147	25.92	0.20	-0.750			
0.2521	16136.67	3.8070	3.8070	-0.8084	25.93	0.21	-0.750			
0.2546	16291.55	3.8040	3.8040	-0.8061	25.93	0.21	-0.750			
0.2569	16444.70	3.8010	3.8011	-0.8045	25.93	0.21	-0.750			
0.2593	16597.91	3.7980	3.7979	-0.8067	25.94	0.22	-0.750			
0.2618	16753.11	3.7950	3.7949	-0.8033	25.94	0.22	-0.750			
0.2642	16908.17	3.7920	3.7920	-0.8024	25.94	0.22	-0.750			
0.2666	17063.93	3.7890	3.7890	-0.8007	25.95	0.23	-0.750			
0.2690	17217.69	3.7860	3.7859	-0.7947	25.95	0.23	-0.750			
0.2714	17366.58	3.7830	3.7830	-0.7897	25.96	0.24	-0.750			
0.2737	17517.70	3.7800	3.7800	-0.7873	25.96	0.24	-0.750			
0.2761	17669.16	3.7770	3.7770	-0.7810	25.96	0.24	-0.750			
0.2784	17819.68	3.7740	3.7740	-0.7848	25.97	0.25	-0.750			
0.2808	17970.46	3.7710	3.7711	-0.7826	25.97	0.25	-0.750			
0.2831	18121.07	3.7680	3.7679	-0.7782	25.97	0.25	-0.750			
0.2855	18269.52	3.7650	3.7650	-0.7790	25.98	0.26	-0.750			
0.2878	18418.57	3.7620	3.7620	-0.7765	25.98	0.26	-0.750			
0.2901	18568.36	3.7590	3.7589	-0.7774	25.99	0.27	-0.750			
0.2925	18717.43	3.7560	3.7562	-0.7774	25.99	0.27	-0.750			
0.2948	18865.61	3.7530	3.7530	-0.7731	25.99	0.27	-0.750			
0.2971	19014.06	3.7500	3.7499	-0.7799	26.00	0.28	-0.750			
0.2994	19163.37	3.7470	3.7470	-0.7846	26.00	0.28	-0.750			
0.3018	19313.92	3.7440	3.7440	-0.7849	26.00	0.28	-0.750			
0.3042	19466.61	3.7410	3.7409	-0.7935	26.01	0.29	-0.750			
0.3066	19619.43	3.7380	3.7382	-0.7974	26.01	0.29	-0.750			
0.3089	19771.26	3.7350	3.7350	-0.8077	26.01	0.29	-0.750			
0.3114	19927.79	3.7320	3.7319	-0.8155	26.01	0.29	-0.750			
0.3138	20083.10	3.7290	3.7290	-0.8221	26.02	0.30	-0.750			
0.3163	20242.35	3.7260	3.7260	-0.8370	26.02	0.30	-0.750			
0.3188	20405.99	3.7230	3.7230	-0.8530	26.02	0.30	-0.750			
0.3214	20569.27	3.7200	3.7200	-0.8680	26.02	0.30	-0.750			
0.3240	20737.42	3.7170	3.7170	-0.8816	26.02	0.30	-0.750			
0.3267	20908.07	3.7140	3.7140	-0.8922	26.02	0.30	-0.750			
0.3294	21083.26	3.7110	3.7110	-0.9054	26.02	0.30	-0.750			
0.3321	21256.10	3.7080	3.7081	-0.9232	26.02	0.30	-0.750			
0.3349	21434.91	3.7050	3.7050	-0.9363	26.02	0.30	-0.750			
0.3377	21615.11	3.7020	3.7019	-0.9507	26.02	0.30	-0.750			
0.3406	21798.31	3.6990	3.6989	-0.9682	26.02	0.30	-0.750			
0.3436	21987.42	3.6960	3.6961	-0.9882	26.02	0.30	-0.750			
0.3465	22178.37	3.6930	3.6930	-1.0123	26.02	0.30	-0.750			
0.3496	22375.90	3.6900	3.6900	-1.0285	26.01	0.29	-0.750			
0.3527	22572.90	3.6870	3.6870	-1.0423	26.01	0.29	-0.750			
0.3559	22775.95	3.6840	3.6842	-1.0704	26.01	0.29	-0.750			
0.3591	22982.97	3.6810	3.6809	-1.0891	26.01	0.29	-0.750			
0.3624	23193.75	3.6780	3.6780	-1.1111	26.01	0.29	-0.750			
0.3658	23409.13	3.6750	3.6749	-1.1324	26.01	0.29	-0.750			
0.3692	23628.67	3.6720	3.6721	-1.1627	26.01	0.29	-0.750			
0.3728	23857.11	3.6690	3.6689	-1.1867	26.00	0.28	-0.750			
0.3763	24085.75	3.6660	3.6659	-1.2089	26.00	0.28	-0.750			
0.3800	24318.37	3.6630	3.6631	-1.2330	25.99	0.27	-0.750			
0.3837	24558.67	3.6600	3.6600	-1.2643	25.98	0.26	-0.750			
0.3876	24803.80	3.6570	3.6569	-1.2920	25.98	0.26	-0.750			
0.3915	25055.30	3.6540	3.6538	-1.3258	25.97	0.25	-0.750			
0.3956	25317.65	3.6510	3.6509	-1.3485	25.97	0.25	-0.750			
0.3997	25579.85	3.6480	3.6480	-1.3530	25.96	0.24	-0.750			
0.4038	25841.16	3.6450	3.6450	-1.3600	25.95	0.23	-0.750			
0.4078	26096.69	3.6420	3.6420	-1.3895	25.95	0.23	-0.750			
0.4118	26356.20	3.6390	3.6385	-1.4183	25.94	0.22	-0.750			
0.4162	26633.67	3.6360	3.6360	-1.4544	25.93	0.21	-0.750			
0.4206	26918.46	3.6330	3.6329	-1.4944	25.92	0.20	-0.750			
0.4253	27219.67	3.6300	3.6299	-1.5625	25.91	0.19	-0.750			
0.4301	27526.77	3.6270	3.6271	-1.5941	25.90	0.18	-0.750			
0.4349	27835.29	3.6240	3.6240	-1.6162	25.89	0.17	-0.750			
0.4398	28145.93	3.6210	3.6209	-1.6259	25.88	0.16	-0.750			
0.4447	28463.30	3.6180	3.6183	-1.6584	25.88	0.16	-0.750	0.392	0.523	
0.4497	28782.65	3.6150	3.6151	-1.6893	25.87	0.15	-0.750			
0.4548	29106.47	3.6120	3.6120	-1.7175	25.86	0.14	-0.750			
0.4600	29438.29	3.6090	3.6091	-1.7608	25.85	0.13	-0.750			
0.4654	29785.48	3.6060	3.6058	-1.8031	25.84	0.12	-0.750			
0.4708	30132.57	3.6030	3.6032	-1.8414	25.84	0.12	-0.750			
0.4764	30491.45	3.6000	3.6002	-1.8839	25.83	0.11	-0.750			
0.4821	30856.27	3.5970	3.5972	-1.9185	25.82	0.10	-0.750			
0.4879	31226.20	3.5940	3.5940	-1.9719	25.81	0.09	-0.750			
0.4940	31613.51	3.5910	3.5909	-2.0051	25.81	0.09	-0.750			
0.5001	32003.26	3.5880	3.5880	-2.0504	25.81	0.09	-0.750			
0.5062	32397.58	3.5850	3.5849	-2.0912	25.81	0.09	-0.750			
0.5126	32804.70	3.5820	3.5821	-2.1212	25.80	0.08	-0.750			
0.5190	33219.17	3.5790	3.5790	-2.1476	25.79	0.07	-0.750			
0.5255	33634.60	3.5760	3.5760	-2.1668	25.79	0.07	-0.750			
0.5321	34053.77	3.5730	3.5731	-2.1681	25.79	0.07	-0.750			
0.5387	34476.96	3.5700	3.5699	-2.1913	25.78	0.06	-0.750			
0.5452	34894.83	3.5670	3.5669	-2.2018	25.78	0.06	-0.750			
0.5519	35318.71	3.5640	3.5638	-2.1860	25.77	0.05	-0.750			
0.5584	35740.47	3.5610	3.5611	-2.2043	25.77	0.05	-0.750			
0.5650	36161.79	3.5580	3.5583	-2.2161	25.77	0.05	-0.750			
0.5717	36587.66	3.5550	3.5548	-2.2235	25.77	0.05	-0.750			
0.5784	37018.26	3.5520	3.5521	-2.2171	25.77	0.05	-0.750			
0.5851	37445.63	3.5490	3.5491	-2.2156	25.77	0.05	-0.750			
0.5918	37878.31	3.5460	3.5460	-2.2239	25.77	0.05	-0.750			
0.5985	38303.04	3.5430	3.5430	-2.1973	25.78	0.06	-0.750			
0.6051	38723.53	3.5400	3.5400	-2.1769	25.79	0.07	-0.750			
0.6116	39139.64	3.5370	3.5371	-2.1408	25.79	0.07	-0.750			
0.6180	39551.69	3.5340	3.5340	-2.1125	25.79	0.07	-0.750			
0.6244	39958.69	3.5310	3.5310	-2.0802	25.80	0.08	-0.750			
0.6305	40351.42	3.5280	3.5279	-2.0416	25.80	0.08	-0.750			
0.6366	40741.00	3.5250	3.5248	-1.9956	25.81	0.09	-0.750			
0.6425	41120.32	3.5220	3.5219	-1.9508	25.82	0.10	-0.750			
0.6483	41488.92	3.5190	3.5192	-1.9060	25.82	0.10	-0.750			
0.6538	41844.75	3.5160	3.5160	-1.8594	25.83	0.11	-0.750			
0.6594	42204.21	3.5130	3.5130	-1.8117	25.84	0.12	-0.750			
0.6649	42552.03	3.5100	3.5098	-1.7674	25.86	0.14	-0.750			
0.6701	42887.42	3.5070	3.5068	-1.7065	25.88	0.16	-0.750			
0.6752	43211.77	3.5040	3.5041	-1.6777	25.89	0.17	-0.750			
0.6802	43534.05	3.5010	3.5013	-1.6081	25.91	0.19	-0.750			
0.6850	43840.31	3.4980	3.4980	-1.5440	25.93	0.21	-0.750			
0.6895	44126.70	3.4950	3.4951	-1.4741	25.94	0.22	-0.750			
0.6939	44407.96	3.4920	3.4920	-1.4341	25.95	0.23	-0.750			
0.6981	44676.27	3.4890	3.4888	-1.3828	25.97	0.25	-0.750			
0.7020	44931.03	3.4860	3.4859	-1.3315	25.98	0.26	-0.750			
0.7059	45180.78	3.4830	3.4832	-1.2945	25.99	0.27	-0.750			
0.7098	45429.44	3.4800	3.4799	-1.2702	26.01	0.29	-0.750			
0.7136	45669.98	3.4770	3.4769	-1.2309	26.02	0.30	-0.750			
0.7172	45899.12	3.4740	3.4739	-1.1893	26.04	0.32	-0.750			
0.7207	46126.90	3.4710	3.4709	-1.1538	26.05	0.33	-0.750			
0.7242	46346.08	3.4680	3.4680	-1.1131	26.07	0.35	-0.750			
0.7274	46554.14	3.4650	3.4650	-1.0703	26.08	0.36	-0.750			
0.7306	46756.16	3.4620	3.4621	-1.0397	26.09	0.37	-0.750			
0.7336	46949.46	3.4590	3.4590	-1.0036	26.11	0.39	-0.750			
0.7365	47138.43	3.4560	3.4559	-0.9713	26.12	0.40	-0.750			
0.7394	47321.27	3.4530	3.4530	-0.9444	26.13	0.41	-0.750			
0.7422	47501.92	3.4500	3.4501	-0.9220	26.15	0.43	-0.750			
0.7449	47673.80	3.4470	3.4470	-0.9004	26.16	0.44	-0.750			
0.7475	47842.16	3.4440	3.4440	-0.8811	26.17	0.45	-0.750			
0.7501	48007.92	3.4410	3.4410	-0.8751	26.17	0.45	-0.750			
0.7527	48172.59	3.4380	3.4379	-0.8734	26.18	0.46	-0.750			
0.7553	48339.41	3.4350	3.4353	-0.8846	26.19	0.47	-0.750			
0.7579	48507.81	3.4320	3.4321	-0.9045	26.20	0.48	-0.750			
0.7607	48683.95	3.4290	3.4289	-0.9213	26.21	0.49	-0.750			
0.7635	48862.92	3.4260	3.4259	-0.9384	26.22	0.50	-0.750			
0.7663	49045.02	3.4230	3.4231	-0.9564	26.23	0.51	-0.750			
0.7692	49230.38	3.4200	3.4200	-0.9752	26.23	0.51	-0.750			
0.7722	49421.55	3.4170	3.4170	-0.9846	26.24	0.52	-0.750			
0.7752	49612.46	3.4140	3.4139	-0.9874	26.25	0.53	-0.750			
0.7782	49803.46	3.4110	3.4110	-0.9806	26.26	0.54	-0.750			
0.7812	49995.39	3.4080	3.4080	-0.9752	26.27	0.55	-0.750			
0.7841	50183.83	3.4050	3.4051	-0.9650	26.28	0.56	-0.750			
0.7870	50368.73	3.4020	3.4020	-0.9389	26.28	0.56	-0.750			
0.7898	50546.71	3.3990	3.3989	-0.9113	26.29	0.57	-0.750			
0.7925	50720.65	3.3960	3.3963	-0.8817	26.29	0.57	-0.750			
0.7951	50886.49	3.3930	3.3929	-0.8494	26.30	0.58	-0.750			
0.7976	51045.13	3.3900	3.3900	-0.8180	26.31	0.59	-0.750			
0.8000	51198.51	3.3870	3.3869	-0.7818	26.32	0.60	-0.750			
0.8023	51345.69	3.3840	3.3840	-0.7600	26.33	0.61	-0.750			
0.8045	51488.53	3.3810	3.3810	-0.7318	26.34	0.62	-0.750			
0.8067	51626.36	3.3780	3.3780	-0.7052	26.34	0.62	-0.750			
0.8088	51760.22	3.3750	3.3749	-0.6786	26.35	0.63	-0.750			
0.8107	51886.93	3.3720	3.3720	-0.6505	26.35	0.63	-0.750			
0.8126	52009.06	3.3690	3.3690	-0.6288	26.36	0.64	-0.750			
0.8145	52128.29	3.3660	3.3659	-0.6072	26.36	0.64	-0.750			
0.8163	52241.02	3.3630	3.3629	-0.5799	26.37	0.65	-0.750			
0.8180	52350.64	3.3600	3.3601	-0.5596	26.37	0.65	-0.750			
0.8196	52455.67	3.3570	3.3570	-0.5395	26.38	0.66	-0.750			
0.8212	52557.45	3.3540	3.3540	-0.5208	26.39	0.67	-0.750			
0.8227	52654.28	3.3510	3.3510	-0.5013	26.39	0.67	-0.750			
0.8242	52749.20	3.3480	3.3480	-0.4834	26.40	0.68	-0.750			
0.8256	52839.64	3.3450	3.3450	-0.4695	26.41	0.69	-0.750			
0.8270	52929.05	3.3420	3.3420	-0.4503	26.41	0.69	-0.750			
0.8283	53013.52	3.3390	3.3390	-0.4327	26.42	0.70	-0.750			
0.8296	53094.12	3.3360	3.3360	-0.4177	26.43	0.71	-0.750			
0.8308	53172.84	3.3330	3.3327	-0.4041	26.43	0.71	-0.750			
0.8320	53247.98	3.3300	3.3300	-0.3914	26.44	0.72	-0.750			
0.8332	53322.30	3.3270	3.3270	-0.3809	26.44	0.72	-0.750			
0.8343	53393.80	3.3240	3.3241	-0.3684	26.45	0.73	-0.750			
0.8354	53465.24	3.3210	3.3210	-0.3611	26.45	0.73	-0.750			
0.8364	53532.70	3.3180	3.3180	-0.3484	26.46	0.74	-0.750			
0.8375	53598.29	3.3150	3.3149	-0.3378	26.46	0.74	-0.750			
0.8385	53662.39	3.3120	3.3120	-0.3264	26.46	0.74	-0.750			
0.8394	53723.63	3.3090	3.3090	-0.3158	26.47	0.75	-0.750			
0.8404	53783.07	3.3060	3.3060	-0.3080	26.47	0.75	-0.750			
0.8413	53841.36	3.3030	3.3031	-0.2985	26.47	0.75	-0.750			
0.8421	53896.93	3.3000	3.2998	-0.2906	26.48	0.76	-0.750			
0.8430	53952.22	3.2970	3.2970	-0.2841	26.48	0.76	-0.750			
0.8438	54005.85	3.2940	3.2941	-0.2772	26.49	0.77	-0.750			
0.8447	54058.86	3.2910	3.2910	-0.2709	26.49	0.77	-0.750			
0.8455	54110.34	3.2880	3.2881	-0.2633	26.50	0.78	-0.750			
0.8462	54159.75	3.2850	3.2850	-0.2575	26.50	0.78	-0.750			
0.8470	54208.69	3.2820	3.2820	-0.2522	26.51	0.79	-0.750			
0.8478	54256.17	3.2790	3.2790	-0.2455	26.51	0.79	-0.750			
0.8485	54302.58	3.2760	3.2760	-0.2414	26.52	0.80	-0.750			
0.8492	54348.70	3.2730	3.2731	-0.2372	26.52	0.80	-0.750			
0.8499	54393.85	3.2700	3.2701	-0.2330	26.53	0.81	-0.750			
0.8506	54438.43	3.2670	3.2668	-0.2290	26.53	0.81	-0.750			
0.8513	54481.83	3.2640	3.2641	-0.2246	26.53	0.81	-0.750			
0.8519	54524.44	3.2610	3.2610	-0.2200	26.54	0.82	-0.750			
0.8526	54566.48	3.2580	3.2579	-0.2164	26.54	0.82	-0.750			
0.8532	54607.59	3.2550	3.2551	-0.2119	26.55	0.83	-0.750			
0.8539	54647.41	3.2520	3.2520	-0.2083	26.55	0.83	-0.750			
0.8545	54687.10	3.2490	3.2490	-0.2053	26.56	0.84	-0.750			
0.8551	54725.80	3.2460	3.2460	-0.2023	26.56	0.84	-0.750			
0.8557	54764.43	3.2430	3.2430	-0.2002	26.56	0.84	-0.750			
0.8563	54802.76	3.2400	3.2400	-0.1965	26.57	0.85	-0.750			
0.8569	54840.23	3.2370	3.2370	-0.1944	26.58	0.86	-0.750			
0.8575	54877.38	3.2340	3.2341	-0.1918	26.58	0.86	-0.750			
0.8580	54913.93	3.2310	3.2310	-0.1889	26.59	0.87	-0.750			
0.8586	54949.98	3.2280	3.2279	-0.1852	26.59	0.87	-0.750			
0.8591	54984.83	3.2250	3.2251	-0.1834	26.60	0.88	-0.750			
0.8597	55019.64	3.2220	3.2221	-0.1806	26.60	0.88	-0.750			
0.8602	55054.17	3.2190	3.2189	-0.1790	26.61	0.89	-0.750			
0.8608	55088.70	3.2160	3.2158	-0.1771	26.61	0.89	-0.750			
0.8613	55122.17	3.2130	3.2131	-0.1745	26.62	0.90	-0.750			
0.8618	55155.71	3.2100	3.2101	-0.1732	26.62	0.90	-0.750			
0.8623	55188.76	3.2070	3.2070	-0.1711	26.62	0.90	-0.750			
0.8628	55221.51	3.2040	3.2040	-0.1699	26.63	0.91	-0.750			
0.8633	55253.52	3.2010	3.2011	-0.1668	26.63	0.91	-0.750			
0.8638	55285.62	3.1980	3.1979	-0.1658	26.64	0.92	-0.750			
0.8643	55317.22	3.1950	3.1951	-0.1646	26.64	0.92	-0.750			
0.8648	55348.71	3.1920	3.1921	-0.1632	26.65	0.93	-0.750			
0.8653	55380.11	3.1890	3.1890	-0.1610	26.65	0.93	-0.750			
0.8658	55410.73	3.1860	3.1858	-0.1593	26.66	0.94	-0.750			
0.8663	55441.42	3.1830	3.1832	-0.1569	26.66	0.94	-0.750			
0.8667	55471.34	3.1800	3.1801	-0.1544	26.66	0.94	-0.750			
0.8672	55500.78	3.1770	3.1770	-0.1530	26.66	0.94	-0.750			
0.8676	55529.57	3.1740	3.1742	-0.1505	26.66	0.94	-0.750			
0.8681	55558.32	3.1710	3.1709	-0.1491	26.67	0.95	-0.750			
0.8685	55586.50	3.1680	3.1679	-0.1489	26.67	0.95	-0.750			
0.8690	55615.07	3.1650	3.1650	-0.1482	26.68	0.96	-0.750			
0.8694	55643.54	3.1620	3.1620	-0.1467	26.68	0.96	-0.750			
0.8699	55671.65	3.1590	3.1590	-0.1461	26.69	0.97	-0.750			
0.8703	55700.10	3.1560	3.1560	-0.1454	26.69	0.97	-0.750			
0.8707	55727.80	3.1530	3.1531	-0.1439	26.70	0.98	-0.750			
0.8712	55755.37	3.1500	3.1498	-0.1426	26.70	0.98	-0.750			
0.8716	55782.60	3.1470	3.1470	-0.1410	26.71	0.99	-0.750			
0.8720	55809.10	3.1440	3.1441	-0.1400	26.71	0.99	-0.750			
0.8724	55836.20	3.1410	3.1411	-0.1385	26.72	1.00	-0.750			
0.8729	55862.64	3.1380	3.1378	-0.1378	26.72	1.00	-0.750			
0.8733	55888.96	3.1350	3.1351	-0.1364	26.73	1.01	-0.750			
0.8737	55915.14	3.1320	3.1321	-0.1340	26.73	1.01	-0.750			
0.8741	55940.52	3.1290	3.1289	-0.1330	26.74	1.02	-0.750			
0.8745	55965.88	3.1260	3.1260	-0.1315	26.74	1.02	-0.750			
0.8749	55990.88	3.1230	3.1232	-0.1310	26.75	1.03	-0.750			
0.8752	56015.63	3.1200	3.1198	-0.1298	26.75	1.03	-0.750			
0.8756	56040.64	3.1170	3.1169	-0.1297	26.76	1.04	-0.750			
0.8760	56065.26	3.1140	3.1141	-0.1288	26.76	1.04	-0.750			
0.8764	56090.15	3.1110	3.1111	-0.1282	26.77	1.05	-0.750			
0.8768	56115.14	3.1080	3.1079	-0.1282	26.77	1.05	-0.750			
0.8772	56139.49	3.1050	3.1050	-0.1266	26.77	1.05	-0.750			
0.8776	56163.75	3.1020	3.1021	-0.1255	26.78	1.06	-0.750			
0.8779	56187.78	3.0990	3.0990	-0.1245	26.78	1.06	-0.750			
0.8783	56211.58	3.0960	3.0961	-0.1236	26.78	1.06	-0.750			
0.8787	56235.10	3.0930	3.0930	-0.1230	26.79	1.07	-0.750			
0.8790	56258.50	3.0900	3.0900	-0.1221	26.79	1.07	-0.750			
0.8794	56282.02	3.0870	3.0870	-0.1212	26.79	1.07	-0.750			
0.8798	56305.21	3.0840	3.0840	-0.1204	26.80	1.08	-0.750			
0.8801	56328.30	3.0810	3.0810	-0.1193	26.80	1.08	-0.750			
0.8805	56351.29	3.0780	3.0780	-0.1186	26.81	1.09	-0.750			
0.8808	56373.84	3.0750	3.0750	-0.1176	26.81	1.09	-0.750			
0.8812	56396.27	3.0720	3.0720	-0.1164	26.82	1.10	-0.750			
0.8815	56418.34	3.0690	3.0692	-0.1161	26.82	1.10	-0.750			
0.8819	56440.30	3.0660	3.0660	-0.1152	26.83	1.11	-0.750			
0.8822	56462.54	3.0630	3.0629	-0.1145	26.83	1.11	-0.750			
0.8826	56484.54	3.0600	3.0600	-0.1140	26.84	1.12	-0.750			
0.8829	56506.39	3.0570	3.0571	-0.1134	26.85	1.13	-0.750			
0.8833	56528.22	3.0540	3.0540	-0.1128	26.85	1.13	-0.750			
0.8836	56549.70	3.0510	3.0510	-0.1125	26.86	1.14	-0.750			
0.8839	56571.22	3.0480	3.0482	-0.1119	26.86	1.14	-0.750			
0.8843	56592.69	3.0450	3.0448	-0.1112	26.87	1.15	-0.750			
0.8846	56613.80	3.0420	3.0420	-0.1104	26.88	1.16	-0.750			
0.8849	56635.03	3.0390	3.0390	-0.1097	26.88	1.16	-0.750			
0.8853	56656.26	3.0360	3.0361	-0.1093	26.89	1.17	-0.750			
0.8856	56677.18	3.0330	3.0329	-0.1083	26.89	1.17	-0.750			
0.8859	56697.96	3.0300	3.0301	-0.1073	26.90	1.18	-0.750			
0.8862	56718.43	3.0270	3.0270	-0.1064	26.90	1.18	-0.750			
0.8865	56738.64	3.0240	3.0240	-0.1053	26.91	1.19	-0.750			
0.8868	56757.53	3.0210	3.0211	-0.1145	26.91	1.19	-0.750			
0.8872	56779.69	3.0180	3.0179	-0.1154	26.92	1.20	-0.750			
0.8875	56802.28	3.0150	3.0145	-0.1199	26.93	1.21	-0.750			
0.8879	56825.43	3.0120	3.0119	-0.1245	26.93	1.21	-0.746			
0.8883	56849.81	3.0090	3.0099	-0.1296	26.94	1.22	-0.739			
0.8887	56876.05	3.0060	3.0064	-0.1298	26.95	1.23	-0.739			
0.8891	56900.93	3.0030	3.0029	-0.0910	26.95	1.23	-0.739			
