Ah_balance (normalized)	Ah_balance (mAh)	Voltage - fit (V)	Voltage -  interpolate (V)	dQ/dV (1/V)	Temperature (°C)	Temperature - diff (°C)	Current (C)	R_DC 0ms (mOhm)	R_DC 50ms (mOhm)	R_DC 50 ms PEC (mOhm)
0.0566	3623.13	4.1960	4.1960	0.7258	26.88	0.91	0.750			
0.0588	3766.05	4.1930	4.1929	0.7451	26.88	0.91	0.750			
0.0611	3910.38	4.1900	4.1901	0.7493	26.88	0.91	0.750			
0.0634	4054.59	4.1870	4.1871	0.7512	26.88	0.91	0.750			
0.0656	4199.49	4.1840	4.1841	0.7563	26.88	0.91	0.750			
0.0679	4345.70	4.1810	4.1810	0.7507	26.88	0.91	0.750			
0.0701	4488.77	4.1780	4.1780	0.7520	26.88	0.91	0.750			
0.0724	4631.24	4.1750	4.1750	0.7510	26.88	0.91	0.750			
0.0746	4776.26	4.1720	4.1717	0.7541	26.88	0.91	0.750			
0.0769	4920.47	4.1690	4.1690	0.7589	26.88	0.91	0.750			
0.0792	5067.28	4.1660	4.1660	0.7593	26.88	0.91	0.750			
0.0815	5214.13	4.1630	4.1630	0.7633	26.87	0.90	0.750			
0.0838	5362.43	4.1600	4.1600	0.7688	26.87	0.90	0.750			
0.0861	5507.93	4.1570	4.1572	0.7646	26.87	0.90	0.750			
0.0884	5656.26	4.1540	4.1540	0.7639	26.87	0.90	0.750			
0.0907	5803.03	4.1510	4.1510	0.7638	26.87	0.90	0.750			
0.0929	5948.56	4.1480	4.1480	0.7590	26.87	0.90	0.750			
0.0952	6093.62	4.1450	4.1451	0.7643	26.87	0.90	0.750			
0.0975	6239.39	4.1420	4.1419	0.7635	26.87	0.90	0.750			
0.0998	6385.29	4.1390	4.1386	0.7684	26.87	0.90	0.750			
0.1021	6534.03	4.1360	4.1361	0.7708	26.87	0.90	0.750			
0.1044	6684.55	4.1330	4.1330	0.7703	26.87	0.90	0.750			
0.1068	6832.71	4.1300	4.1300	0.7745	26.86	0.89	0.750			
0.1091	6981.87	4.1270	4.1270	0.7752	26.86	0.89	0.750			
0.1114	7127.62	4.1240	4.1240	0.7721	26.86	0.89	0.750			
0.1137	7276.48	4.1210	4.1210	0.7796	26.86	0.89	0.750			
0.1160	7426.53	4.1180	4.1180	0.7796	26.86	0.89	0.750			
0.1184	7577.82	4.1150	4.1150	0.7839	26.86	0.89	0.750			
0.1208	7729.88	4.1120	4.1120	0.7869	26.86	0.89	0.750			
0.1231	7879.28	4.1090	4.1090	0.7826	26.86	0.89	0.750			
0.1255	8030.15	4.1060	4.1060	0.7838	26.86	0.89	0.750			
0.1278	8180.44	4.1030	4.1030	0.7833	26.86	0.89	0.750			
0.1302	8329.90	4.1000	4.1000	0.7794	26.86	0.89	0.750			
0.1325	8479.65	4.0970	4.0971	0.7832	26.86	0.89	0.750			
0.1348	8629.09	4.0940	4.0940	0.7873	26.86	0.89	0.750			
0.1372	8780.72	4.0910	4.0907	0.7906	26.86	0.89	0.750			
0.1396	8932.76	4.0880	4.0881	0.7917	26.86	0.89	0.750			
0.1420	9085.67	4.0850	4.0851	0.7925	26.86	0.89	0.750			
0.1444	9238.58	4.0820	4.0820	0.7995	26.86	0.89	0.750			
0.1468	9392.62	4.0790	4.0789	0.8048	26.86	0.89	0.750			
0.1491	9544.76	4.0760	4.0760	0.8065	26.86	0.89	0.750			
0.1516	9700.97	4.0730	4.0730	0.8088	26.86	0.89	0.750			
0.1540	9858.97	4.0700	4.0701	0.8107	26.86	0.89	0.750			
0.1565	10014.94	4.0670	4.0670	0.8089	26.86	0.89	0.750			
0.1589	10170.15	4.0640	4.0640	0.8081	26.86	0.89	0.750			
0.1613	10322.46	4.0610	4.0610	0.8038	26.86	0.89	0.750			
0.1637	10476.50	4.0580	4.0579	0.8086	26.86	0.89	0.750			
0.1661	10631.80	4.0550	4.0551	0.8105	26.86	0.89	0.750			
0.1686	10789.01	4.0520	4.0519	0.8159	26.86	0.89	0.750			
0.1711	10947.28	4.0490	4.0490	0.8207	26.85	0.88	0.750			
0.1735	11103.83	4.0460	4.0460	0.8232	26.85	0.88	0.750			
0.1760	11262.49	4.0430	4.0430	0.8299	26.85	0.88	0.750			
0.1785	11424.15	4.0400	4.0399	0.8246	26.85	0.88	0.750			
0.1810	11581.06	4.0370	4.0371	0.8320	26.85	0.88	0.750			
0.1835	11741.93	4.0340	4.0340	0.8365	26.86	0.89	0.750			
0.1860	11903.02	4.0310	4.0310	0.8350	26.86	0.89	0.750			
0.1885	12062.11	4.0280	4.0281	0.8392	26.86	0.89	0.750			
0.1910	12223.64	4.0250	4.0251	0.8390	26.86	0.89	0.750			
0.1935	12385.26	4.0220	4.0220	0.8455	26.86	0.89	0.750			
0.1961	12549.82	4.0190	4.0189	0.8467	26.86	0.89	0.750			
0.1986	12710.89	4.0160	4.0162	0.8435	26.86	0.89	0.750			
0.2011	12873.45	4.0130	4.0131	0.8522	26.86	0.89	0.750			
0.2037	13039.96	4.0100	4.0100	0.8508	26.86	0.89	0.750			
0.2063	13200.08	4.0070	4.0070	0.8566	26.86	0.89	0.750			
0.2088	13365.64	4.0040	4.0040	0.8607	26.86	0.89	0.750			
0.2114	13531.39	4.0010	4.0010	0.8611	26.86	0.89	0.750			
0.2140	13697.84	3.9980	3.9981	0.8654	26.86	0.89	0.750			
0.2166	13865.08	3.9950	3.9951	0.8617	26.86	0.89	0.750			
0.2192	14029.08	3.9920	3.9920	0.8652	26.85	0.88	0.750			
0.2218	14195.36	3.9890	3.9890	0.8633	26.85	0.88	0.750			
0.2244	14360.59	3.9860	3.9858	0.8672	26.85	0.88	0.750			
0.2270	14528.91	3.9830	3.9830	0.8754	26.85	0.88	0.750			
0.2296	14697.57	3.9800	3.9800	0.8729	26.85	0.88	0.750			
0.2323	14865.59	3.9770	3.9771	0.8773	26.84	0.87	0.750			
0.2349	15034.98	3.9740	3.9740	0.8797	26.84	0.87	0.750			
0.2375	15202.63	3.9710	3.9708	0.8753	26.84	0.87	0.750			
0.2402	15371.58	3.9680	3.9680	0.8739	26.84	0.87	0.750			
0.2428	15538.30	3.9650	3.9651	0.8745	26.84	0.87	0.750			
0.2454	15707.04	3.9620	3.9620	0.8779	26.84	0.87	0.750			
0.2481	15875.32	3.9590	3.9590	0.8837	26.84	0.87	0.750			
0.2507	16044.52	3.9560	3.9559	0.8785	26.84	0.87	0.750			
0.2534	16215.16	3.9530	3.9531	0.8767	26.83	0.86	0.750			
0.2560	16383.89	3.9500	3.9500	0.8834	26.83	0.86	0.750			
0.2586	16552.92	3.9470	3.9471	0.8841	26.83	0.86	0.750			
0.2613	16721.56	3.9440	3.9438	0.8804	26.82	0.85	0.750			
0.2639	16890.61	3.9410	3.9411	0.8814	26.82	0.85	0.750			
0.2665	17059.08	3.9380	3.9381	0.8816	26.82	0.85	0.750			
0.2692	17231.33	3.9350	3.9350	0.8843	26.81	0.84	0.750			
0.2719	17401.58	3.9320	3.9320	0.8875	26.81	0.84	0.750			
0.2745	17569.59	3.9290	3.9289	0.8853	26.81	0.84	0.750			
0.2772	17741.05	3.9260	3.9260	0.8866	26.80	0.83	0.750			
0.2799	17911.38	3.9230	3.9230	0.8926	26.80	0.83	0.750			
0.2825	18082.13	3.9200	3.9200	0.8984	26.79	0.82	0.750			
0.2852	18254.96	3.9170	3.9170	0.9044	26.79	0.82	0.750			
0.2880	18429.59	3.9140	3.9139	0.9100	26.78	0.81	0.750			
0.2907	18605.98	3.9110	3.9110	0.9009	26.77	0.80	0.750			
0.2934	18779.73	3.9080	3.9081	0.9069	26.77	0.80	0.750			
0.2961	18953.01	3.9050	3.9050	0.9115	26.77	0.80	0.750			
0.2988	19126.05	3.9020	3.9021	0.9112	26.76	0.79	0.750			
0.3016	19301.37	3.8990	3.8990	0.9179	26.75	0.78	0.750			
0.3043	19477.58	3.8960	3.8961	0.9261	26.75	0.78	0.750			
0.3072	19658.11	3.8930	3.8930	0.9308	26.74	0.77	0.750			
0.3100	19840.03	3.8900	3.8900	0.9410	26.73	0.76	0.750			
0.3128	20019.10	3.8870	3.8870	0.9346	26.72	0.75	0.750			
0.3156	20200.53	3.8840	3.8839	0.9257	26.71	0.74	0.750			
0.3184	20376.58	3.8810	3.8810	0.9350	26.70	0.73	0.750			
0.3212	20556.00	3.8780	3.8780	0.9375	26.69	0.72	0.750			
0.3240	20735.02	3.8750	3.8748	0.9423	26.68	0.71	0.750			
0.3268	20918.32	3.8720	3.8721	0.9434	26.67	0.70	0.750			
0.3297	21098.98	3.8690	3.8691	0.9456	26.66	0.69	0.750			
0.3325	21282.43	3.8660	3.8660	0.9506	26.66	0.69	0.750			
0.3354	21466.32	3.8630	3.8631	0.9519	26.65	0.68	0.750			
0.3382	21645.39	3.8600	3.8600	0.9504	26.64	0.67	0.750			
0.3411	21829.10	3.8570	3.8570	0.9515	26.63	0.66	0.750			
0.3439	22011.02	3.8540	3.8540	0.9566	26.62	0.65	0.750			
0.3468	22196.17	3.8510	3.8510	0.9628	26.61	0.64	0.750			
0.3497	22382.57	3.8480	3.8478	0.9623	26.60	0.63	0.750			
0.3527	22569.72	3.8450	3.8451	0.9571	26.59	0.62	0.750			
0.3555	22752.71	3.8420	3.8420	0.9607	26.58	0.61	0.750			
0.3584	22934.42	3.8390	3.8391	0.9666	26.57	0.60	0.750			
0.3612	23119.38	3.8360	3.8359	0.9699	26.56	0.59	0.750			
0.3642	23307.28	3.8330	3.8330	0.9733	26.55	0.58	0.750			
0.3671	23495.76	3.8300	3.8301	0.9846	26.54	0.57	0.750			
0.3701	23686.17	3.8270	3.8271	0.9940	26.52	0.55	0.750			
0.3731	23880.45	3.8240	3.8241	1.0023	26.51	0.54	0.750			
0.3761	24070.92	3.8210	3.8209	0.9990	26.50	0.53	0.750			
0.3791	24262.65	3.8180	3.8180	1.0065	26.49	0.52	0.750			
0.3821	24456.72	3.8150	3.8151	1.0142	26.48	0.51	0.750			
0.3852	24651.78	3.8120	3.8120	1.0233	26.47	0.50	0.750			
0.3883	24851.11	3.8090	3.8090	1.0228	26.46	0.49	0.750			
0.3913	25046.07	3.8060	3.8060	1.0369	26.45	0.48	0.750			
0.3945	25244.81	3.8030	3.8030	1.0518	26.44	0.47	0.750			
0.3976	25447.78	3.8000	3.8001	1.0711	26.43	0.46	0.750			
0.4009	25657.09	3.7970	3.7968	1.0732	26.42	0.45	0.750			
0.4041	25863.16	3.7940	3.7940	1.0938	26.40	0.43	0.750			
0.4074	26074.54	3.7910	3.7911	1.1117	26.39	0.42	0.750			
0.4108	26290.81	3.7880	3.7881	1.1280	26.38	0.41	0.750			
0.4142	26506.21	3.7850	3.7851	1.1404	26.36	0.39	0.750			
0.4176	26724.92	3.7820	3.7822	1.1625	26.35	0.38	0.750			
0.4211	26953.40	3.7790	3.7790	1.1758	26.34	0.37	0.750			
0.4248	27184.76	3.7760	3.7758	1.2016	26.33	0.36	0.750			
0.4282	27407.85	3.7730	3.7732	1.2346	26.32	0.35	0.750			
0.4320	27650.81	3.7700	3.7699	1.2707	26.31	0.34	0.750			
0.4360	27904.86	3.7670	3.7671	1.2872	26.29	0.32	0.750	0.305	0.419	
0.4399	28153.81	3.7640	3.7642	1.3117	26.28	0.31	0.750			
0.4439	28407.35	3.7610	3.7612	1.3391	26.27	0.30	0.750			
0.4480	28669.31	3.7580	3.7581	1.3589	26.26	0.29	0.750			
0.4520	28925.48	3.7550	3.7551	1.3678	26.24	0.27	0.750			
0.4560	29181.10	3.7520	3.7521	1.4033	26.23	0.26	0.750			
0.4604	29462.43	3.7490	3.7491	1.4310	26.21	0.24	0.750			
0.4647	29743.61	3.7460	3.7458	1.4824	26.19	0.22	0.750			
0.4692	30028.10	3.7430	3.7431	1.5159	26.17	0.20	0.750			
0.4738	30323.69	3.7400	3.7401	1.5659	26.15	0.18	0.750			
0.4787	30633.81	3.7370	3.7371	1.6129	26.14	0.17	0.750			
0.4835	30943.44	3.7340	3.7341	1.6462	26.12	0.15	0.750			
0.4885	31266.17	3.7310	3.7312	1.7069	26.11	0.14	0.750			
0.4939	31606.54	3.7280	3.7282	1.7555	26.09	0.12	0.750			
0.4991	31939.23	3.7250	3.7251	1.7863	26.07	0.10	0.750			
0.5045	32285.64	3.7220	3.7220	1.8333	26.06	0.09	0.750			
0.5101	32644.14	3.7190	3.7189	1.8816	26.04	0.07	0.750			
0.5157	33004.50	3.7160	3.7159	1.9469	26.02	0.05	0.750			
0.5216	33382.29	3.7130	3.7131	1.9986	26.00	0.03	0.750			
0.5277	33773.33	3.7100	3.7099	2.0572	25.98	0.01	0.750			
0.5341	34181.38	3.7070	3.7070	2.1238	25.96	-0.01	0.750			
0.5405	34591.71	3.7040	3.7038	2.1594	25.94	-0.03	0.750			
0.5471	35013.74	3.7010	3.7010	2.2303	25.93	-0.04	0.750			
0.5538	35442.21	3.6980	3.6979	2.2967	25.91	-0.06	0.750			
0.5607	35886.15	3.6950	3.6949	2.3785	25.89	-0.08	0.750			
0.5680	36351.11	3.6920	3.6920	2.4889	25.88	-0.09	0.750			
0.5757	36842.63	3.6890	3.6890	2.5782	25.87	-0.10	0.750			
0.5835	37343.14	3.6860	3.6860	2.6600	25.85	-0.12	0.750			
0.5916	37864.80	3.6830	3.6830	2.7717	25.83	-0.14	0.750			
0.6000	38402.44	3.6800	3.6798	2.8528	25.81	-0.16	0.750			
0.6087	38958.44	3.6770	3.6771	2.9057	25.81	-0.16	0.750			
0.6178	39540.92	3.6740	3.6739	2.8732	25.80	-0.17	0.750			
0.6264	40091.82	3.6710	3.6709	2.7136	25.79	-0.18	0.750			
0.6345	40610.64	3.6680	3.6680	2.5091	25.79	-0.18	0.750			
0.6415	41056.42	3.6650	3.6651	2.2462	25.79	-0.18	0.750			
0.6477	41454.73	3.6620	3.6620	2.0284	25.79	-0.18	0.750			
0.6532	41807.93	3.6590	3.6591	1.8282	25.79	-0.18	0.750			
0.6584	42139.24	3.6560	3.6559	1.6884	25.79	-0.18	0.750			
0.6632	42442.98	3.6530	3.6530	1.5665	25.79	-0.18	0.750			
0.6677	42732.90	3.6500	3.6501	1.4744	25.79	-0.18	0.750			
0.6720	43007.46	3.6470	3.6471	1.3867	25.79	-0.18	0.750			
0.6760	43261.73	3.6440	3.6440	1.3002	25.79	-0.18	0.750			
0.6796	43496.34	3.6410	3.6410	1.2454	25.79	-0.18	0.750			
0.6832	43722.58	3.6380	3.6381	1.2061	25.79	-0.18	0.750			
0.6867	43951.96	3.6350	3.6348	1.1876	25.79	-0.18	0.750			
0.6902	44174.00	3.6320	3.6320	1.1823	25.79	-0.18	0.750			
0.6938	44400.27	3.6290	3.6291	1.1929	25.79	-0.18	0.750			
0.6974	44631.12	3.6260	3.6261	1.2062	25.79	-0.18	0.750			
0.7010	44865.77	3.6230	3.6230	1.1968	25.79	-0.18	0.750			
0.7046	45096.15	3.6200	3.6201	1.1900	25.79	-0.18	0.750			
0.7082	45326.81	3.6170	3.6171	1.1838	25.79	-0.18	0.750			
0.7118	45554.94	3.6140	3.6138	1.1682	25.79	-0.18	0.750			
0.7152	45774.00	3.6110	3.6111	1.1485	25.79	-0.18	0.750			
0.7186	45991.14	3.6080	3.6080	1.1435	25.79	-0.18	0.750			
0.7220	46208.76	3.6050	3.6050	1.1448	25.79	-0.18	0.750			
0.7254	46428.34	3.6020	3.6019	1.1451	25.79	-0.18	0.750			
0.7289	46647.98	3.5990	3.5991	1.1633	25.79	-0.18	0.750			
0.7324	46872.02	3.5960	3.5960	1.1832	25.79	-0.18	0.750			
0.7360	47102.77	3.5930	3.5929	1.2024	25.79	-0.18	0.750			
0.7396	47334.62	3.5900	3.5900	1.2295	25.79	-0.18	0.750			
0.7432	47565.37	3.5870	3.5871	1.2812	25.79	-0.18	0.750			
0.7471	47815.93	3.5840	3.5841	1.3369	25.78	-0.19	0.750			
0.7512	48076.65	3.5810	3.5811	1.3872	25.78	-0.19	0.750			
0.7555	48352.36	3.5780	3.5780	1.4142	25.78	-0.19	0.750			
0.7599	48635.01	3.5750	3.5751	1.4588	25.77	-0.20	0.750			
0.7644	48918.49	3.5720	3.5719	1.5036	25.77	-0.20	0.750			
0.7689	49209.37	3.5690	3.5689	1.5401	25.78	-0.19	0.750			
0.7736	49507.27	3.5660	3.5661	1.5678	25.78	-0.19	0.750			
0.7784	49816.62	3.5630	3.5632	1.6129	25.78	-0.19	0.750			
0.7833	50133.93	3.5600	3.5600	1.6373	25.77	-0.20	0.750			
0.7884	50457.50	3.5570	3.5571	1.6691	25.77	-0.20	0.750			
0.7934	50776.98	3.5540	3.5541	1.6724	25.77	-0.20	0.750			
0.7984	51094.50	3.5510	3.5510	1.6906	25.77	-0.20	0.750			
0.8034	51418.10	3.5480	3.5482	1.7158	25.77	-0.20	0.750			
0.8086	51747.97	3.5450	3.5451	1.7628	25.77	-0.20	0.750			
0.8139	52086.47	3.5420	3.5420	1.8044	25.77	-0.20	0.750			
0.8197	52457.75	3.5390	3.5387	1.7750	25.78	-0.19	0.750			
0.8252	52809.93	3.5360	3.5356	1.6342	25.78	-0.19	0.750			
0.8303	53142.06	3.5330	3.5336	1.4626	25.79	-0.18	0.750			
0.8348	53427.23	3.5300	3.5305	1.2269	25.80	-0.17	0.750			
0.8381	53636.62	3.5270	3.5270	0.9485	25.81	-0.16	0.750			
0.8401	53768.19	3.5240	3.5236	0.7144	25.83	-0.14	0.750			
0.8415	53857.36	3.5210	3.5207	0.5220	25.84	-0.13	0.750			
0.8427	53932.86	3.5180	3.5178	0.4354	25.84	-0.13	0.750			
0.8438	54000.80	3.5150	3.5150	0.3758	25.85	-0.12	0.750			
0.8448	54064.37	3.5120	3.5119	0.3426	25.86	-0.11	0.750			
0.8457	54126.40	3.5090	3.5090	0.3221	25.86	-0.11	0.750			
0.8466	54185.54	3.5060	3.5059	0.3051	25.87	-0.10	0.750			
0.8475	54241.85	3.5030	3.5030	0.2968	25.88	-0.09	0.750			
0.8484	54297.57	3.5000	3.5000	0.2883	25.88	-0.09	0.750			
0.8492	54351.97	3.4970	3.4970	0.2818	25.89	-0.08	0.750			
0.8501	54405.30	3.4940	3.4941	0.2742	25.89	-0.08	0.750			
0.8509	54457.82	3.4910	3.4910	0.2688	25.90	-0.07	0.750			
0.8517	54509.03	3.4880	3.4880	0.2636	25.90	-0.07	0.750			
0.8525	54559.12	3.4850	3.4850	0.2592	25.91	-0.06	0.750			
0.8532	54607.55	3.4820	3.4819	0.2519	25.91	-0.06	0.750			
0.8540	54655.23	3.4790	3.4789	0.2465	25.92	-0.05	0.750			
0.8547	54702.29	3.4760	3.4760	0.2425	25.92	-0.05	0.750			
0.8554	54748.70	3.4730	3.4730	0.2371	25.93	-0.04	0.750			
0.8562	54794.41	3.4700	3.4699	0.2325	25.93	-0.04	0.750			
0.8568	54838.23	3.4670	3.4670	0.2270	25.93	-0.04	0.750			
0.8575	54880.58	3.4640	3.4642	0.2207	25.94	-0.03	0.750			
0.8582	54922.62	3.4610	3.4609	0.2172	25.94	-0.03	0.750			
0.8588	54963.90	3.4580	3.4580	0.2127	25.95	-0.02	0.750			
0.8594	55004.07	3.4550	3.4550	0.2083	25.95	-0.02	0.750			
0.8601	55043.80	3.4520	3.4521	0.2032	25.96	-0.01	0.750			
0.8607	55083.00	3.4490	3.4489	0.1996	25.96	-0.01	0.750			
0.8613	55120.76	3.4460	3.4460	0.1937	25.96	-0.01	0.750			
0.8618	55157.21	3.4430	3.4431	0.1885	25.97	-0.00	0.750			
0.8624	55192.86	3.4400	3.4399	0.1834	25.97	0.00	0.750			
0.8629	55227.34	3.4370	3.4370	0.1779	25.97	0.00	0.750			
0.8635	55261.05	3.4340	3.4339	0.1734	25.98	0.01	0.750			
0.8640	55293.98	3.4310	3.4310	0.1679	25.98	0.01	0.750			
0.8645	55326.05	3.4280	3.4279	0.1631	25.98	0.01	0.750			
0.8650	55356.82	3.4250	3.4251	0.1575	25.99	0.02	0.750			
0.8654	55386.63	3.4220	3.4221	0.1521	25.99	0.02	0.750			
0.8659	55415.11	3.4190	3.4189	0.1463	25.99	0.02	0.750			
0.8663	55442.63	3.4160	3.4160	0.1407	26.00	0.03	0.750			
0.8667	55469.30	3.4130	3.4130	0.1348	26.00	0.03	0.750			
0.8671	55494.59	3.4100	3.4100	0.1289	26.00	0.03	0.750			
0.8675	55519.32	3.4070	3.4070	0.1231	26.00	0.03	0.750			
0.8679	55542.42	3.4040	3.4040	0.1166	26.01	0.04	0.750			
0.8682	55564.12	3.4010	3.4010	0.1095	26.01	0.04	0.750			
0.8685	55585.81	3.3980	3.3979	0.1001	26.01	0.04	0.750			
0.8688	55604.04	3.3950	3.3949	0.0899	26.01	0.04	0.750			
0.8691	55621.13	3.3920	3.3921	0.0812	26.01	0.04	0.750			
0.8693	55635.66	3.3890	3.3894	0.0701	26.01	0.04	0.750			
0.8695	55649.25	3.3860	3.3864	0.0593	26.02	0.05	0.750			
0.8697	55659.42	3.3830	3.3837	0.0466	26.02	0.05	0.750			
0.8698	55667.15	3.3800	3.3812	0.0339	26.02	0.05	0.750			
0.8699	55672.44	3.3770	3.3790	0.0212	26.02	0.05	0.750			
