Ah_balance (normalized)	Ah_balance (mAh)	Voltage - fit (V)	Voltage -  interpolate (V)	dQ/dV (1/V)	Temperature (°C)	Temperature - diff (°C)	Current (C)	R_DC 0ms (mOhm)	R_DC 50ms (mOhm)	R_DC 50 ms PEC (mOhm)
0.0004	26.66	4.1600	4.1597	-0.1321	25.89	0.01	-0.750			
0.0009	56.77	4.1570	4.1568	-0.1737	25.88	0.00	-0.750			
0.0015	94.24	4.1540	4.1539	-0.2109	25.88	0.00	-0.750			
0.0022	137.90	4.1510	4.1514	-0.2483	25.88	0.00	-0.750			
0.0030	189.26	4.1480	4.1481	-0.2852	25.88	-0.00	-0.750			
0.0039	248.50	4.1450	4.1449	-0.3202	25.87	-0.01	-0.750			
0.0049	313.30	4.1420	4.1420	-0.3532	25.87	-0.01	-0.750			
0.0060	384.64	4.1390	4.1391	-0.3841	25.87	-0.01	-0.750			
0.0072	462.21	4.1360	4.1360	-0.4172	25.86	-0.02	-0.750			
0.0085	546.32	4.1330	4.1330	-0.4447	25.86	-0.02	-0.750			
0.0099	634.40	4.1300	4.1300	-0.4691	25.86	-0.02	-0.750			
0.0114	727.73	4.1270	4.1270	-0.4933	25.85	-0.03	-0.750			
0.0129	825.04	4.1240	4.1241	-0.5141	25.85	-0.03	-0.750			
0.0145	926.00	4.1210	4.1210	-0.5330	25.84	-0.04	-0.750			
0.0161	1030.12	4.1180	4.1180	-0.5502	25.84	-0.04	-0.750			
0.0178	1137.47	4.1150	4.1150	-0.5654	25.83	-0.05	-0.750			
0.0195	1248.62	4.1120	4.1120	-0.5807	25.83	-0.05	-0.750			
0.0213	1361.71	4.1090	4.1090	-0.5951	25.82	-0.06	-0.750			
0.0231	1478.06	4.1060	4.1060	-0.6074	25.82	-0.06	-0.750			
0.0249	1596.70	4.1030	4.1030	-0.6127	25.82	-0.06	-0.750			
0.0268	1715.03	4.1000	4.1000	-0.6209	25.81	-0.07	-0.750			
0.0287	1834.43	4.0970	4.0970	-0.6274	25.81	-0.07	-0.750			
0.0305	1954.90	4.0940	4.0939	-0.6349	25.81	-0.07	-0.750			
0.0324	2076.07	4.0910	4.0910	-0.6463	25.81	-0.07	-0.750			
0.0344	2202.04	4.0880	4.0880	-0.6501	25.80	-0.08	-0.750			
0.0364	2329.84	4.0850	4.0850	-0.6588	25.80	-0.08	-0.750			
0.0384	2457.68	4.0820	4.0819	-0.6632	25.80	-0.08	-0.750			
0.0404	2584.81	4.0790	4.0791	-0.6646	25.80	-0.08	-0.750			
0.0424	2712.18	4.0760	4.0759	-0.6688	25.80	-0.08	-0.750			
0.0444	2839.04	4.0730	4.0730	-0.6705	25.80	-0.08	-0.750			
0.0464	2967.43	4.0700	4.0700	-0.6718	25.79	-0.09	-0.750			
0.0484	3099.15	4.0670	4.0670	-0.6821	25.79	-0.09	-0.750			
0.0505	3230.95	4.0640	4.0641	-0.6856	25.79	-0.09	-0.750			
0.0525	3362.55	4.0610	4.0610	-0.6900	25.79	-0.09	-0.750			
0.0546	3495.20	4.0580	4.0580	-0.6938	25.79	-0.09	-0.750			
0.0567	3628.22	4.0550	4.0550	-0.7008	25.79	-0.09	-0.750			
0.0588	3763.26	4.0520	4.0520	-0.7036	25.79	-0.09	-0.750			
0.0609	3900.70	4.0490	4.0490	-0.7059	25.79	-0.09	-0.750			
0.0631	4036.40	4.0460	4.0460	-0.7034	25.79	-0.09	-0.750			
0.0652	4171.92	4.0430	4.0431	-0.7027	25.79	-0.09	-0.750			
0.0673	4306.01	4.0400	4.0399	-0.7001	25.79	-0.09	-0.750			
0.0693	4437.52	4.0370	4.0370	-0.7065	25.79	-0.09	-0.750			
0.0715	4575.80	4.0340	4.0339	-0.7035	25.79	-0.09	-0.750			
0.0736	4712.33	4.0310	4.0309	-0.7058	25.79	-0.09	-0.750			
0.0757	4847.44	4.0280	4.0280	-0.7051	25.79	-0.09	-0.750			
0.0779	4982.74	4.0250	4.0252	-0.7075	25.79	-0.09	-0.750			
0.0800	5117.89	4.0220	4.0217	-0.7086	25.79	-0.09	-0.750			
0.0820	5251.04	4.0190	4.0189	-0.7114	25.79	-0.09	-0.750			
0.0842	5387.21	4.0160	4.0161	-0.7100	25.79	-0.09	-0.750			
0.0864	5526.67	4.0130	4.0130	-0.7219	25.79	-0.09	-0.750			
0.0886	5667.24	4.0100	4.0100	-0.7251	25.79	-0.09	-0.750			
0.0907	5806.65	4.0070	4.0068	-0.7272	25.79	-0.09	-0.750			
0.0929	5944.69	4.0040	4.0040	-0.7290	25.79	-0.09	-0.750			
0.0951	6086.37	4.0010	4.0010	-0.7336	25.79	-0.09	-0.750			
0.0973	6227.45	3.9980	3.9980	-0.7350	25.80	-0.08	-0.750			
0.0995	6370.20	3.9950	3.9950	-0.7418	25.80	-0.08	-0.750			
0.1017	6511.80	3.9920	3.9921	-0.7422	25.80	-0.08	-0.750			
0.1040	6655.10	3.9890	3.9888	-0.7434	25.80	-0.08	-0.750			
0.1062	6797.95	3.9860	3.9860	-0.7427	25.80	-0.08	-0.750			
0.1084	6940.16	3.9830	3.9830	-0.7477	25.81	-0.07	-0.750			
0.1107	7084.39	3.9800	3.9800	-0.7478	25.81	-0.07	-0.750			
0.1130	7229.17	3.9770	3.9769	-0.7489	25.81	-0.07	-0.750			
0.1152	7372.56	3.9740	3.9741	-0.7458	25.81	-0.07	-0.750			
0.1174	7515.75	3.9710	3.9710	-0.7484	25.81	-0.07	-0.750			
0.1197	7659.26	3.9680	3.9680	-0.7527	25.81	-0.07	-0.750			
0.1219	7803.23	3.9650	3.9649	-0.7538	25.82	-0.06	-0.750			
0.1242	7948.07	3.9620	3.9620	-0.7611	25.82	-0.06	-0.750			
0.1265	8095.56	3.9590	3.9590	-0.7647	25.82	-0.06	-0.750			
0.1288	8243.91	3.9560	3.9559	-0.7670	25.82	-0.06	-0.750			
0.1311	8391.85	3.9530	3.9530	-0.7685	25.83	-0.05	-0.750			
0.1334	8538.65	3.9500	3.9501	-0.7655	25.83	-0.05	-0.750			
0.1357	8685.67	3.9470	3.9470	-0.7652	25.83	-0.05	-0.750			
0.1380	8833.03	3.9440	3.9440	-0.7676	25.84	-0.04	-0.750			
0.1403	8979.12	3.9410	3.9411	-0.7695	25.84	-0.04	-0.750			
0.1426	9128.09	3.9380	3.9381	-0.7743	25.84	-0.04	-0.750			
0.1449	9276.48	3.9350	3.9349	-0.7816	25.84	-0.04	-0.750			
0.1473	9427.81	3.9320	3.9320	-0.7823	25.84	-0.04	-0.750			
0.1497	9579.60	3.9290	3.9290	-0.7831	25.84	-0.04	-0.750			
0.1520	9729.51	3.9260	3.9262	-0.7835	25.84	-0.04	-0.750			
0.1544	9880.67	3.9230	3.9229	-0.7840	25.84	-0.04	-0.750			
0.1567	10030.52	3.9200	3.9201	-0.7879	25.85	-0.03	-0.750			
0.1591	10181.45	3.9170	3.9170	-0.7874	25.85	-0.03	-0.750			
0.1615	10333.45	3.9140	3.9140	-0.7906	25.85	-0.03	-0.750			
0.1638	10485.83	3.9110	3.9110	-0.7934	25.86	-0.02	-0.750			
0.1662	10637.47	3.9080	3.9080	-0.7929	25.86	-0.02	-0.750			
0.1686	10788.91	3.9050	3.9050	-0.7962	25.86	-0.02	-0.750			
0.1710	10942.80	3.9020	3.9020	-0.7954	25.87	-0.01	-0.750			
0.1734	11095.00	3.8990	3.8990	-0.7944	25.87	-0.01	-0.750			
0.1758	11250.33	3.8960	3.8960	-0.7970	25.87	-0.01	-0.750			
0.1782	11402.32	3.8930	3.8930	-0.7959	25.87	-0.01	-0.750			
0.1805	11552.65	3.8900	3.8900	-0.7961	25.88	-0.00	-0.750			
0.1829	11705.73	3.8870	3.8870	-0.7984	25.88	-0.00	-0.750			
0.1853	11859.05	3.8840	3.8839	-0.7983	25.88	0.00	-0.750			
0.1877	12014.25	3.8810	3.8808	-0.8039	25.89	0.01	-0.750			
0.1901	12168.06	3.8780	3.8782	-0.8074	25.89	0.01	-0.750			
0.1926	12323.45	3.8750	3.8751	-0.8116	25.89	0.01	-0.750			
0.1950	12480.13	3.8720	3.8719	-0.8129	25.90	0.02	-0.750			
0.1975	12637.87	3.8690	3.8689	-0.8119	25.90	0.02	-0.750			
0.1999	12793.58	3.8660	3.8661	-0.8139	25.91	0.03	-0.750			
0.2023	12949.30	3.8630	3.8632	-0.8134	25.91	0.03	-0.750			
0.2048	13105.67	3.8600	3.8599	-0.8127	25.91	0.03	-0.750			
0.2072	13261.46	3.8570	3.8569	-0.8126	25.92	0.04	-0.750			
0.2096	13417.00	3.8540	3.8539	-0.8071	25.92	0.04	-0.750			
0.2121	13573.70	3.8510	3.8510	-0.8126	25.93	0.05	-0.750			
0.2145	13728.47	3.8480	3.8482	-0.8089	25.93	0.05	-0.750			
0.2169	13883.18	3.8450	3.8449	-0.8045	25.93	0.05	-0.750			
0.2193	14036.87	3.8420	3.8420	-0.8114	25.93	0.05	-0.750			
0.2218	14192.19	3.8390	3.8390	-0.8108	25.94	0.06	-0.750			
0.2242	14348.90	3.8360	3.8360	-0.8102	25.94	0.06	-0.750			
0.2267	14507.27	3.8330	3.8331	-0.8143	25.94	0.06	-0.750			
0.2291	14662.44	3.8300	3.8300	-0.8090	25.94	0.06	-0.750			
0.2315	14816.80	3.8270	3.8270	-0.8086	25.95	0.07	-0.750			
0.2339	14971.85	3.8240	3.8240	-0.8076	25.95	0.07	-0.750			
0.2363	15124.97	3.8210	3.8210	-0.8015	25.95	0.07	-0.750			
0.2388	15282.11	3.8180	3.8180	-0.8054	25.96	0.08	-0.750			
0.2412	15436.10	3.8150	3.8150	-0.8034	25.96	0.08	-0.750			
0.2436	15589.92	3.8120	3.8120	-0.7992	25.96	0.08	-0.750			
0.2460	15743.71	3.8090	3.8090	-0.7951	25.97	0.09	-0.750			
0.2484	15895.61	3.8060	3.8060	-0.7863	25.97	0.09	-0.750			
0.2507	16046.31	3.8030	3.8029	-0.7825	25.97	0.09	-0.750			
0.2531	16195.75	3.8000	3.8000	-0.7799	25.97	0.09	-0.750			
0.2554	16342.72	3.7970	3.7971	-0.7844	25.98	0.10	-0.750			
0.2577	16493.24	3.7940	3.7939	-0.7837	25.98	0.10	-0.750			
0.2601	16647.29	3.7910	3.7909	-0.7793	25.98	0.10	-0.750			
0.2625	16797.78	3.7880	3.7881	-0.7775	25.99	0.11	-0.750			
0.2648	16948.03	3.7850	3.7851	-0.7750	25.99	0.11	-0.750			
0.2671	17094.69	3.7820	3.7820	-0.7656	25.99	0.11	-0.750			
0.2694	17238.71	3.7790	3.7788	-0.7552	26.00	0.12	-0.750			
0.2716	17382.11	3.7760	3.7760	-0.7489	26.00	0.12	-0.750			
0.2739	17527.16	3.7730	3.7730	-0.7551	26.00	0.12	-0.750			
0.2761	17671.85	3.7700	3.7701	-0.7551	26.01	0.13	-0.750			
0.2784	17816.45	3.7670	3.7669	-0.7544	26.01	0.13	-0.750			
0.2806	17961.31	3.7640	3.7640	-0.7570	26.01	0.13	-0.750			
0.2829	18106.46	3.7610	3.7610	-0.7549	26.01	0.13	-0.750			
0.2852	18251.78	3.7580	3.7581	-0.7560	26.01	0.13	-0.750			
0.2875	18398.92	3.7550	3.7549	-0.7584	26.01	0.13	-0.750			
0.2897	18541.92	3.7520	3.7522	-0.7574	26.01	0.13	-0.750			
0.2920	18687.87	3.7490	3.7489	-0.7616	26.01	0.13	-0.750			
0.2943	18833.51	3.7460	3.7461	-0.7677	26.02	0.14	-0.750			
0.2966	18981.78	3.7430	3.7429	-0.7751	26.02	0.14	-0.750			
0.2989	19132.23	3.7400	3.7400	-0.7832	26.02	0.14	-0.750			
0.3013	19283.52	3.7370	3.7369	-0.7864	26.03	0.15	-0.750			
0.3036	19433.18	3.7340	3.7339	-0.7991	26.03	0.15	-0.750			
0.3061	19587.23	3.7310	3.7310	-0.8068	26.04	0.16	-0.750			
0.3085	19740.86	3.7280	3.7280	-0.8194	26.04	0.16	-0.750			
0.3109	19899.35	3.7250	3.7250	-0.8321	26.04	0.16	-0.750			
0.3135	20062.23	3.7220	3.7221	-0.8486	26.05	0.17	-0.750			
0.3160	20226.88	3.7190	3.7190	-0.8637	26.05	0.17	-0.750			
0.3187	20394.03	3.7160	3.7161	-0.8838	26.05	0.17	-0.750			
0.3213	20564.37	3.7130	3.7129	-0.8966	26.05	0.17	-0.750			
0.3241	20740.36	3.7100	3.7099	-0.9110	26.05	0.17	-0.750			
0.3268	20916.44	3.7070	3.7072	-0.9185	26.05	0.17	-0.750			
0.3296	21093.78	3.7040	3.7040	-0.9404	26.05	0.17	-0.750			
0.3324	21275.48	3.7010	3.7010	-0.9521	26.05	0.17	-0.750			
0.3353	21458.03	3.6980	3.6979	-0.9636	26.04	0.16	-0.750			
0.3382	21643.33	3.6950	3.6950	-0.9821	26.04	0.16	-0.750			
0.3412	21835.02	3.6920	3.6921	-1.0074	26.04	0.16	-0.750			
0.3442	22030.80	3.6890	3.6889	-1.0276	26.04	0.16	-0.750			
0.3474	22231.00	3.6860	3.6860	-1.0445	26.03	0.15	-0.750			
0.3505	22431.15	3.6830	3.6830	-1.0557	26.03	0.15	-0.750			
0.3537	22636.61	3.6800	3.6801	-1.0851	26.03	0.15	-0.750			
0.3570	22847.20	3.6770	3.6770	-1.1051	26.02	0.14	-0.750			
0.3603	23060.65	3.6740	3.6739	-1.1256	26.02	0.14	-0.750			
0.3637	23277.95	3.6710	3.6710	-1.1482	26.01	0.13	-0.750			
0.3672	23503.13	3.6680	3.6680	-1.1810	26.01	0.13	-0.750			
0.3709	23735.25	3.6650	3.6649	-1.2068	26.00	0.12	-0.750			
0.3745	23969.06	3.6620	3.6619	-1.2262	25.99	0.11	-0.750			
0.3782	24204.94	3.6590	3.6592	-1.2434	25.99	0.11	-0.750			
0.3820	24446.99	3.6560	3.6560	-1.2678	25.98	0.10	-0.750			
0.3858	24690.76	3.6530	3.6530	-1.2940	25.98	0.10	-0.750			
0.3896	24937.06	3.6500	3.6500	-1.3133	25.97	0.09	-0.750			
0.3937	25197.51	3.6470	3.6470	-1.3506	25.97	0.09	-0.750			
0.3978	25460.16	3.6440	3.6441	-1.3792	25.96	0.08	-0.750			
0.4020	25727.53	3.6410	3.6410	-1.4194	25.96	0.08	-0.750			
0.4063	26005.88	3.6380	3.6379	-1.4403	25.95	0.07	-0.750			
0.4107	26283.86	3.6350	3.6349	-1.4734	25.95	0.07	-0.750			
0.4151	26568.90	3.6320	3.6324	-1.4990	25.94	0.06	-0.750			
0.4197	26861.71	3.6290	3.6289	-1.5208	25.93	0.05	-0.750			
0.4243	27154.75	3.6260	3.6260	-1.5628	25.92	0.04	-0.750			
0.4290	27456.70	3.6230	3.6229	-1.5941	25.91	0.03	-0.750			
0.4338	27765.54	3.6200	3.6200	-1.6451	25.91	0.03	-0.750			
0.4389	28088.21	3.6170	3.6170	-1.6656	25.91	0.03	-0.750	0.400	0.541	
0.4439	28412.46	3.6140	3.6140	-1.7010	25.90	0.02	-0.750			
0.4491	28743.24	3.6110	3.6109	-1.7268	25.89	0.01	-0.750			
0.4543	29077.17	3.6080	3.6079	-1.7517	25.89	0.01	-0.750			
0.4595	29410.16	3.6050	3.6051	-1.7813	25.88	-0.00	-0.750			
0.4650	29757.35	3.6020	3.6019	-1.8047	25.87	-0.01	-0.750			
0.4704	30107.35	3.5990	3.5992	-1.8420	25.87	-0.01	-0.750			
0.4761	30468.64	3.5960	3.5960	-1.8856	25.87	-0.01	-0.750			
0.4818	30835.14	3.5930	3.5929	-1.8983	25.86	-0.02	-0.750			
0.4876	31203.62	3.5900	3.5901	-1.9223	25.85	-0.03	-0.750			
0.4933	31570.36	3.5870	3.5869	-1.9620	25.85	-0.03	-0.750			
0.4992	31948.93	3.5840	3.5843	-1.9966	25.84	-0.04	-0.750			
0.5053	32336.33	3.5810	3.5810	-2.0382	25.84	-0.04	-0.750			
0.5114	32730.55	3.5780	3.5781	-2.0515	25.83	-0.05	-0.750			
0.5176	33129.54	3.5750	3.5750	-2.0990	25.82	-0.06	-0.750			
0.5241	33543.28	3.5720	3.5721	-2.1359	25.82	-0.06	-0.750			
0.5305	33950.26	3.5690	3.5688	-2.1581	25.83	-0.05	-0.750			
0.5370	34369.49	3.5660	3.5661	-2.1779	25.84	-0.04	-0.750			
0.5437	34795.08	3.5630	3.5630	-2.1872	25.84	-0.04	-0.750			
0.5503	35219.23	3.5600	3.5600	-2.2112	25.83	-0.05	-0.750			
0.5569	35642.77	3.5570	3.5571	-2.2088	25.83	-0.05	-0.750			
0.5635	36066.75	3.5540	3.5539	-2.2028	25.82	-0.06	-0.750			
0.5701	36488.59	3.5510	3.5510	-2.2094	25.82	-0.06	-0.750			
0.5768	36914.51	3.5480	3.5479	-2.1857	25.83	-0.05	-0.750			
0.5834	37338.11	3.5450	3.5451	-2.1810	25.84	-0.04	-0.750			
0.5899	37756.71	3.5420	3.5420	-2.1711	25.85	-0.03	-0.750			
0.5964	38171.36	3.5390	3.5387	-2.1363	25.86	-0.02	-0.750			
0.6028	38578.86	3.5360	3.5361	-2.1206	25.86	-0.02	-0.750			
0.6092	38988.65	3.5330	3.5331	-2.0948	25.87	-0.01	-0.750			
0.6154	39384.99	3.5300	3.5300	-2.0489	25.87	-0.01	-0.750			
0.6215	39778.38	3.5270	3.5268	-1.9985	25.88	0.00	-0.750			
0.6275	40159.94	3.5240	3.5240	-1.9551	25.89	0.01	-0.750			
0.6332	40524.90	3.5210	3.5207	-1.9205	25.89	0.01	-0.750			
0.6389	40892.20	3.5180	3.5178	-1.8797	25.90	0.02	-0.750			
0.6445	41250.02	3.5150	3.5151	-1.8298	25.91	0.03	-0.750			
0.6500	41601.62	3.5120	3.5120	-1.7815	25.92	0.04	-0.750			
0.6553	41938.15	3.5090	3.5093	-1.7272	25.93	0.05	-0.750			
0.6604	42268.38	3.5060	3.5058	-1.6959	25.94	0.06	-0.750			
0.6654	42588.27	3.5030	3.5030	-1.6262	25.95	0.07	-0.750			
0.6702	42894.24	3.5000	3.5001	-1.5691	25.96	0.08	-0.750			
0.6749	43194.11	3.4970	3.4969	-1.5317	25.97	0.09	-0.750			
0.6794	43482.13	3.4940	3.4939	-1.4772	25.99	0.11	-0.750			
0.6837	43758.35	3.4910	3.4909	-1.4278	26.01	0.13	-0.750			
0.6879	44023.65	3.4880	3.4880	-1.3864	26.02	0.14	-0.750			
0.6920	44289.46	3.4850	3.4849	-1.3454	26.04	0.16	-0.750			
0.6960	44542.55	3.4820	3.4820	-1.2998	26.05	0.17	-0.750			
0.6998	44786.72	3.4790	3.4790	-1.2555	26.06	0.18	-0.750			
0.7035	45022.92	3.4760	3.4760	-1.2169	26.08	0.20	-0.750			
0.7071	45254.71	3.4730	3.4728	-1.1772	26.09	0.21	-0.750			
0.7105	45475.02	3.4700	3.4700	-1.1365	26.11	0.23	-0.750			
0.7139	45688.59	3.4670	3.4671	-1.0990	26.13	0.25	-0.750			
0.7172	45898.56	3.4640	3.4639	-1.0735	26.14	0.26	-0.750			
0.7203	46098.52	3.4610	3.4610	-1.0339	26.15	0.27	-0.750			
0.7233	46294.31	3.4580	3.4580	-0.9999	26.16	0.28	-0.750			
0.7263	46481.45	3.4550	3.4550	-0.9652	26.17	0.29	-0.750			
0.7292	46665.75	3.4520	3.4521	-0.9458	26.18	0.30	-0.750			
0.7319	46843.43	3.4490	3.4490	-0.9171	26.19	0.31	-0.750			
0.7346	47014.95	3.4460	3.4460	-0.8928	26.21	0.33	-0.750			
0.7372	47182.67	3.4430	3.4430	-0.8773	26.22	0.34	-0.750			
0.7398	47347.55	3.4400	3.4402	-0.8711	26.23	0.35	-0.750			
0.7424	47513.71	3.4370	3.4369	-0.8726	26.24	0.36	-0.750			
0.7450	47679.44	3.4340	3.4340	-0.8725	26.25	0.37	-0.750			
0.7476	47844.45	3.4310	3.4310	-0.8864	26.26	0.38	-0.750			
0.7502	48015.93	3.4280	3.4280	-0.9064	26.26	0.38	-0.750			
0.7530	48192.22	3.4250	3.4250	-0.9252	26.27	0.39	-0.750			
0.7558	48371.42	3.4220	3.4219	-0.9431	26.28	0.40	-0.750			
0.7587	48556.16	3.4190	3.4191	-0.9564	26.29	0.41	-0.750			
0.7616	48744.23	3.4160	3.4160	-0.9641	26.30	0.42	-0.750			
0.7646	48931.26	3.4130	3.4131	-0.9651	26.31	0.43	-0.750			
0.7674	49115.83	3.4100	3.4100	-0.9551	26.32	0.44	-0.750			
0.7703	49301.02	3.4070	3.4069	-0.9468	26.32	0.44	-0.750			
0.7732	49483.82	3.4040	3.4040	-0.9271	26.33	0.45	-0.750			
0.7759	49659.40	3.4010	3.4010	-0.9047	26.34	0.46	-0.750			
0.7786	49833.34	3.3980	3.3979	-0.8839	26.34	0.46	-0.750			
0.7813	50000.28	3.3950	3.3949	-0.8611	26.35	0.47	-0.750			
0.7838	50162.66	3.3920	3.3919	-0.8314	26.36	0.48	-0.750			
0.7862	50319.53	3.3890	3.3890	-0.8027	26.36	0.48	-0.750			
0.7886	50473.52	3.3860	3.3860	-0.7819	26.37	0.49	-0.750			
0.7910	50621.51	3.3830	3.3828	-0.7533	26.37	0.49	-0.750			
0.7932	50761.79	3.3800	3.3799	-0.7227	26.38	0.50	-0.750			
0.7953	50896.10	3.3770	3.3770	-0.6954	26.39	0.51	-0.750			
0.7973	51025.88	3.3740	3.3740	-0.6675	26.39	0.51	-0.750			
0.7993	51154.59	3.3710	3.3710	-0.6474	26.40	0.52	-0.750			
0.8012	51275.26	3.3680	3.3680	-0.6234	26.41	0.53	-0.750			
0.8030	51392.79	3.3650	3.3650	-0.5994	26.41	0.53	-0.750			
0.8048	51505.79	3.3620	3.3620	-0.5809	26.42	0.54	-0.750			
0.8065	51614.49	3.3590	3.3590	-0.5584	26.43	0.55	-0.750			
0.8081	51719.69	3.3560	3.3560	-0.5385	26.43	0.55	-0.750			
0.8097	51821.04	3.3530	3.3530	-0.5223	26.44	0.56	-0.750			
0.8112	51919.22	3.3500	3.3500	-0.5045	26.45	0.57	-0.750			
0.8127	52014.21	3.3470	3.3470	-0.4854	26.45	0.57	-0.750			
0.8142	52106.01	3.3440	3.3439	-0.4703	26.46	0.58	-0.750			
0.8155	52193.78	3.3410	3.3411	-0.4535	26.46	0.58	-0.750			
0.8169	52279.53	3.3380	3.3379	-0.4392	26.47	0.59	-0.750			
0.8182	52362.25	3.3350	3.3350	-0.4244	26.47	0.59	-0.750			
0.8194	52441.83	3.3320	3.3320	-0.4091	26.48	0.60	-0.750			
0.8206	52519.69	3.3290	3.3291	-0.3977	26.48	0.60	-0.750			
0.8218	52595.25	3.3260	3.3260	-0.3848	26.48	0.60	-0.750			
0.8229	52666.89	3.3230	3.3229	-0.3709	26.49	0.61	-0.750			
0.8240	52736.78	3.3200	3.3200	-0.3642	26.49	0.61	-0.750			
0.8251	52805.81	3.3170	3.3169	-0.3527	26.49	0.61	-0.750			
0.8261	52872.57	3.3140	3.3139	-0.3435	26.50	0.62	-0.750			
0.8272	52937.81	3.3110	3.3114	-0.3350	26.50	0.62	-0.750			
0.8281	53001.34	3.3080	3.3079	-0.3250	26.51	0.63	-0.750			
0.8291	53062.82	3.3050	3.3049	-0.3161	26.51	0.63	-0.750			
0.8300	53121.74	3.3020	3.3020	-0.3052	26.52	0.64	-0.750			
0.8309	53179.67	3.2990	3.2991	-0.2993	26.52	0.64	-0.750			
0.8318	53236.38	3.2960	3.2960	-0.2913	26.53	0.65	-0.750			
0.8327	53290.79	3.2930	3.2930	-0.2837	26.54	0.66	-0.750			
0.8335	53344.70	3.2900	3.2900	-0.2773	26.54	0.66	-0.750			
0.8343	53397.31	3.2870	3.2870	-0.2725	26.55	0.67	-0.750			
0.8351	53448.96	3.2840	3.2841	-0.2669	26.55	0.67	-0.750			
0.8359	53499.83	3.2810	3.2809	-0.2622	26.56	0.68	-0.750			
0.8367	53549.35	3.2780	3.2780	-0.2572	26.56	0.68	-0.750			
0.8375	53598.39	3.2750	3.2751	-0.2527	26.57	0.69	-0.750			
0.8382	53646.31	3.2720	3.2720	-0.2478	26.57	0.69	-0.750			
0.8390	53693.88	3.2690	3.2690	-0.2431	26.58	0.70	-0.750			
0.8397	53739.71	3.2660	3.2661	-0.2380	26.58	0.70	-0.750			
0.8404	53784.90	3.2630	3.2630	-0.2340	26.59	0.71	-0.750			
0.8411	53829.23	3.2600	3.2600	-0.2303	26.59	0.71	-0.750			
0.8418	53873.08	3.2570	3.2570	-0.2260	26.60	0.72	-0.750			
0.8424	53915.91	3.2540	3.2539	-0.2221	26.60	0.72	-0.750			
0.8431	53958.26	3.2510	3.2510	-0.2198	26.61	0.73	-0.750			
0.8438	54000.54	3.2480	3.2480	-0.2165	26.61	0.73	-0.750			
0.8444	54041.68	3.2450	3.2450	-0.2123	26.62	0.74	-0.750			
0.8450	54082.07	3.2420	3.2419	-0.2084	26.62	0.74	-0.750			
0.8456	54121.60	3.2390	3.2391	-0.2056	26.63	0.75	-0.750			
0.8463	54160.61	3.2360	3.2359	-0.2023	26.63	0.75	-0.750			
0.8469	54199.26	3.2330	3.2330	-0.1995	26.64	0.76	-0.750			
0.8475	54237.06	3.2300	3.2299	-0.1981	26.64	0.76	-0.750			
0.8480	54274.57	3.2270	3.2270	-0.1948	26.65	0.77	-0.750			
0.8486	54312.03	3.2240	3.2240	-0.1937	26.65	0.77	-0.750			
0.8492	54349.09	3.2210	3.2210	-0.1917	26.66	0.78	-0.750			
0.8498	54385.72	3.2180	3.2180	-0.1890	26.66	0.78	-0.750			
0.8503	54421.82	3.2150	3.2149	-0.1861	26.67	0.79	-0.750			
0.8509	54457.23	3.2120	3.2121	-0.1842	26.67	0.79	-0.750			
0.8514	54492.36	3.2090	3.2089	-0.1817	26.67	0.79	-0.750			
0.8520	54526.73	3.2060	3.2059	-0.1789	26.68	0.80	-0.750			
0.8525	54561.04	3.2030	3.2030	-0.1773	26.68	0.80	-0.750			
0.8530	54594.43	3.2000	3.2000	-0.1749	26.69	0.81	-0.750			
0.8536	54627.89	3.1970	3.1971	-0.1737	26.69	0.81	-0.750			
0.8541	54661.24	3.1940	3.1939	-0.1718	26.70	0.82	-0.750			
0.8546	54694.23	3.1910	3.1910	-0.1699	26.70	0.82	-0.750			
0.8551	54726.47	3.1880	3.1880	-0.1676	26.71	0.83	-0.750			
0.8556	54758.48	3.1850	3.1852	-0.1658	26.71	0.83	-0.750			
0.8561	54790.14	3.1820	3.1820	-0.1650	26.72	0.84	-0.750			
0.8566	54821.77	3.1790	3.1789	-0.1626	26.72	0.84	-0.750			
0.8571	54852.71	3.1760	3.1760	-0.1605	26.73	0.85	-0.750			
0.8576	54883.37	3.1730	3.1729	-0.1588	26.73	0.85	-0.750			
0.8580	54913.82	3.1700	3.1701	-0.1578	26.74	0.86	-0.750			
0.8585	54943.86	3.1670	3.1669	-0.1566	26.74	0.86	-0.750			
0.8590	54973.73	3.1640	3.1639	-0.1546	26.75	0.87	-0.750			
0.8594	55003.29	3.1610	3.1610	-0.1533	26.75	0.87	-0.750			
0.8599	55032.49	3.1580	3.1580	-0.1514	26.76	0.88	-0.750			
0.8603	55061.64	3.1550	3.1552	-0.1512	26.76	0.88	-0.750			
0.8608	55090.44	3.1520	3.1520	-0.1495	26.76	0.88	-0.750			
0.8612	55119.01	3.1490	3.1490	-0.1481	26.77	0.89	-0.750			
0.8617	55147.16	3.1460	3.1459	-0.1465	26.77	0.89	-0.750			
0.8621	55175.06	3.1430	3.1430	-0.1453	26.78	0.90	-0.750			
0.8625	55203.06	3.1400	3.1401	-0.1446	26.78	0.90	-0.750			
0.8630	55230.69	3.1370	3.1369	-0.1433	26.79	0.91	-0.750			
0.8634	55258.08	3.1340	3.1340	-0.1423	26.79	0.91	-0.750			
0.8638	55285.05	3.1310	3.1310	-0.1407	26.79	0.91	-0.750			
0.8643	55312.10	3.1280	3.1280	-0.1394	26.80	0.92	-0.750			
0.8647	55339.02	3.1250	3.1251	-0.1380	26.80	0.92	-0.750			
0.8651	55365.02	3.1220	3.1221	-0.1371	26.81	0.93	-0.750			
0.8655	55391.25	3.1190	3.1190	-0.1362	26.81	0.93	-0.750			
0.8659	55417.20	3.1160	3.1160	-0.1351	26.82	0.94	-0.750			
0.8663	55443.06	3.1130	3.1129	-0.1340	26.82	0.94	-0.750			
0.8667	55468.80	3.1100	3.1100	-0.1328	26.83	0.95	-0.750			
0.8671	55494.19	3.1070	3.1072	-0.1317	26.83	0.95	-0.750			
0.8675	55519.57	3.1040	3.1040	-0.1310	26.84	0.96	-0.750			
0.8679	55544.56	3.1010	3.1010	-0.1303	26.85	0.97	-0.750			
0.8683	55569.02	3.0980	3.0980	-0.1285	26.85	0.97	-0.750			
0.8687	55593.79	3.0950	3.0950	-0.1277	26.86	0.98	-0.750			
0.8690	55618.36	3.0920	3.0920	-0.1272	26.86	0.98	-0.750			
0.8694	55642.76	3.0890	3.0891	-0.1266	26.87	0.99	-0.750			
0.8698	55667.13	3.0860	3.0860	-0.1259	26.87	0.99	-0.750			
0.8702	55691.13	3.0830	3.0830	-0.1252	26.88	1.00	-0.750			
0.8705	55715.09	3.0800	3.0799	-0.1241	26.88	1.00	-0.750			
0.8709	55738.79	3.0770	3.0770	-0.1231	26.89	1.01	-0.750			
0.8713	55762.32	3.0740	3.0740	-0.1224	26.89	1.01	-0.750			
0.8717	55785.85	3.0710	3.0711	-0.1218	26.90	1.02	-0.750			
0.8720	55809.26	3.0680	3.0679	-0.1206	26.90	1.02	-0.750			
0.8724	55832.35	3.0650	3.0649	-0.1195	26.91	1.03	-0.750			
0.8727	55854.92	3.0620	3.0620	-0.1188	26.92	1.04	-0.750			
0.8731	55877.50	3.0590	3.0591	-0.1178	26.92	1.04	-0.750			
0.8734	55900.09	3.0560	3.0560	-0.1172	26.93	1.05	-0.750			
0.8738	55922.53	3.0530	3.0529	-0.1166	26.93	1.05	-0.750			
0.8741	55944.94	3.0500	3.0499	-0.1157	26.94	1.06	-0.750			
0.8745	55967.02	3.0470	3.0471	-0.1149	26.94	1.06	-0.750			
0.8748	55988.97	3.0440	3.0440	-0.1144	26.95	1.07	-0.750			
0.8752	56011.09	3.0410	3.0411	-0.1141	26.95	1.07	-0.750			
0.8755	56032.88	3.0380	3.0380	-0.1133	26.96	1.08	-0.750			
0.8758	56054.34	3.0350	3.0349	-0.1123	26.96	1.08	-0.750			
0.8762	56075.87	3.0320	3.0320	-0.1118	26.97	1.09	-0.750			
0.8765	56097.29	3.0290	3.0291	-0.1113	26.97	1.09	-0.750			
0.8769	56118.66	3.0260	3.0259	-0.1107	26.98	1.10	-0.750			
0.8772	56139.97	3.0230	3.0230	-0.1102	26.98	1.10	-0.750			
0.8775	56160.93	3.0200	3.0201	-0.1100	26.99	1.11	-0.750			
0.8778	56181.81	3.0170	3.0171	-0.1094	26.99	1.11	-0.750			
0.8782	56202.96	3.0140	3.0139	-0.1083	27.00	1.12	-0.750			
0.8785	56223.86	3.0110	3.0109	-0.1077	27.00	1.12	-0.750			
0.8788	56244.44	3.0080	3.0081	-0.1067	27.01	1.13	-0.750			
0.8791	56264.95	3.0050	3.0050	-0.1052	27.01	1.13	-0.751			
0.8795	56285.00	3.0020	3.0020	-0.1037	27.01	1.13	-0.751			
