Ah_balance (normalized)	Ah_balance (mAh)	Voltage - fit (V)	Voltage -  interpolate (V)	dQ/dV (1/V)	Temperature (°C)	Temperature - diff (°C)	Current (C)	R_DC 0ms (mOhm)	R_DC 50ms (mOhm)	R_DC 50 ms PEC (mOhm)
0.0003	17.69	4.1620	4.1617	-0.1116	25.92	0.01	-0.750			
0.0007	44.24	4.1590	4.1588	-0.1566	25.92	0.01	-0.750			
0.0012	78.04	4.1560	4.1560	-0.1969	25.92	0.01	-0.750			
0.0019	120.30	4.1530	4.1530	-0.2361	25.92	0.01	-0.750			
0.0026	169.57	4.1500	4.1501	-0.2744	25.92	0.01	-0.750			
0.0035	226.57	4.1470	4.1470	-0.3132	25.92	0.01	-0.750			
0.0045	290.36	4.1440	4.1441	-0.3484	25.92	0.01	-0.750			
0.0056	361.12	4.1410	4.1410	-0.3808	25.92	0.01	-0.750			
0.0068	438.34	4.1380	4.1380	-0.4146	25.91	0.00	-0.750			
0.0082	521.66	4.1350	4.1350	-0.4415	25.91	0.00	-0.750			
0.0095	610.23	4.1320	4.1320	-0.4684	25.91	-0.00	-0.750			
0.0110	702.09	4.1290	4.1290	-0.4920	25.91	-0.00	-0.750			
0.0125	798.89	4.1260	4.1260	-0.5160	25.90	-0.01	-0.750			
0.0141	900.96	4.1230	4.1230	-0.5361	25.90	-0.01	-0.750			
0.0157	1006.56	4.1200	4.1199	-0.5585	25.90	-0.01	-0.750			
0.0175	1117.44	4.1170	4.1170	-0.5734	25.90	-0.01	-0.750			
0.0192	1230.13	4.1140	4.1139	-0.5858	25.89	-0.02	-0.750			
0.0210	1344.39	4.1110	4.1111	-0.5976	25.89	-0.02	-0.750			
0.0228	1459.92	4.1080	4.1079	-0.6043	25.89	-0.02	-0.750			
0.0246	1575.40	4.1050	4.1050	-0.6125	25.88	-0.03	-0.750			
0.0264	1692.77	4.1020	4.1020	-0.6230	25.88	-0.03	-0.750			
0.0283	1811.77	4.0990	4.0991	-0.6315	25.88	-0.03	-0.750			
0.0303	1938.55	4.0960	4.0959	-0.6399	25.88	-0.03	-0.750			
0.0322	2061.02	4.0930	4.0928	-0.6455	25.87	-0.04	-0.750			
0.0341	2185.45	4.0900	4.0903	-0.6526	25.87	-0.04	-0.750			
0.0361	2311.67	4.0870	4.0870	-0.6603	25.87	-0.04	-0.750			
0.0381	2439.07	4.0840	4.0839	-0.6641	25.86	-0.05	-0.750			
0.0401	2567.35	4.0810	4.0811	-0.6732	25.86	-0.05	-0.750			
0.0421	2697.18	4.0780	4.0780	-0.6792	25.86	-0.05	-0.750			
0.0442	2828.37	4.0750	4.0750	-0.6884	25.85	-0.06	-0.750			
0.0463	2960.54	4.0720	4.0721	-0.6918	25.85	-0.06	-0.750			
0.0484	3094.80	4.0690	4.0689	-0.6898	25.85	-0.06	-0.750			
0.0504	3227.86	4.0660	4.0661	-0.6935	25.85	-0.06	-0.750			
0.0525	3361.23	4.0630	4.0631	-0.7047	25.85	-0.06	-0.750			
0.0547	3497.70	4.0600	4.0596	-0.6999	25.85	-0.06	-0.750			
0.0568	3632.74	4.0570	4.0569	-0.7043	25.85	-0.06	-0.750			
0.0589	3767.62	4.0540	4.0546	-0.7030	25.85	-0.06	-0.750			
0.0610	3904.05	4.0510	4.0508	-0.7078	25.85	-0.06	-0.750			
0.0631	4039.64	4.0480	4.0479	-0.7131	25.85	-0.06	-0.750			
0.0652	4172.47	4.0450	4.0450	-0.7093	25.85	-0.06	-0.750			
0.0674	4311.83	4.0420	4.0420	-0.7176	25.85	-0.06	-0.750			
0.0696	4451.47	4.0390	4.0389	-0.7164	25.85	-0.06	-0.750			
0.0717	4588.05	4.0360	4.0362	-0.7125	25.85	-0.06	-0.750			
0.0738	4724.72	4.0330	4.0330	-0.7152	25.85	-0.06	-0.750			
0.0759	4859.37	4.0300	4.0300	-0.7187	25.85	-0.06	-0.750			
0.0781	4998.53	4.0270	4.0269	-0.7199	25.84	-0.07	-0.750			
0.0803	5136.80	4.0240	4.0240	-0.7262	25.84	-0.07	-0.750			
0.0825	5276.85	4.0210	4.0211	-0.7303	25.84	-0.07	-0.750			
0.0847	5419.19	4.0180	4.0180	-0.7362	25.84	-0.07	-0.750			
0.0869	5560.67	4.0150	4.0149	-0.7344	25.84	-0.07	-0.750			
0.0891	5700.83	4.0120	4.0120	-0.7318	25.84	-0.07	-0.750			
0.0913	5841.35	4.0090	4.0091	-0.7329	25.85	-0.06	-0.750			
0.0935	5983.06	4.0060	4.0060	-0.7386	25.85	-0.06	-0.750			
0.0957	6123.63	4.0030	4.0030	-0.7376	25.85	-0.06	-0.750			
0.0979	6265.96	4.0000	3.9999	-0.7400	25.85	-0.06	-0.750			
0.1001	6407.30	3.9970	3.9970	-0.7439	25.85	-0.06	-0.750			
0.1024	6551.07	3.9940	3.9940	-0.7467	25.85	-0.06	-0.750			
0.1046	6695.91	3.9910	3.9910	-0.7422	25.86	-0.05	-0.750			
0.1069	6839.32	3.9880	3.9880	-0.7402	25.86	-0.05	-0.750			
0.1090	6978.34	3.9850	3.9852	-0.7454	25.86	-0.05	-0.750			
0.1113	7120.97	3.9820	3.9821	-0.7489	25.86	-0.05	-0.750			
0.1135	7265.87	3.9790	3.9788	-0.7545	25.86	-0.05	-0.750			
0.1158	7411.18	3.9760	3.9760	-0.7583	25.87	-0.04	-0.750			
0.1181	7558.63	3.9730	3.9731	-0.7646	25.87	-0.04	-0.750			
0.1204	7707.54	3.9700	3.9699	-0.7648	25.87	-0.04	-0.750			
0.1227	7854.40	3.9670	3.9670	-0.7647	25.87	-0.04	-0.750			
0.1250	7997.95	3.9640	3.9640	-0.7666	25.87	-0.04	-0.750			
0.1273	8144.79	3.9610	3.9610	-0.7714	25.87	-0.04	-0.750			
0.1296	8294.01	3.9580	3.9580	-0.7727	25.88	-0.03	-0.750			
0.1319	8443.85	3.9550	3.9549	-0.7771	25.88	-0.03	-0.750			
0.1343	8594.07	3.9520	3.9524	-0.7786	25.88	-0.03	-0.750			
0.1366	8744.54	3.9490	3.9489	-0.7764	25.89	-0.02	-0.750			
0.1389	8892.75	3.9460	3.9460	-0.7750	25.89	-0.02	-0.750			
0.1413	9041.06	3.9430	3.9430	-0.7762	25.90	-0.01	-0.750			
0.1436	9189.01	3.9400	3.9400	-0.7800	25.90	-0.01	-0.750			
0.1459	9339.73	3.9370	3.9370	-0.7818	25.91	-0.00	-0.750			
0.1483	9489.29	3.9340	3.9340	-0.7833	25.91	0.00	-0.750			
0.1506	9639.54	3.9310	3.9311	-0.7898	25.91	0.00	-0.750			
0.1530	9792.04	3.9280	3.9280	-0.7929	25.91	0.00	-0.750			
0.1554	9944.15	3.9250	3.9249	-0.7943	25.91	0.00	-0.750			
0.1578	10096.96	3.9220	3.9221	-0.7921	25.91	0.00	-0.750			
0.1601	10249.06	3.9190	3.9189	-0.7942	25.91	0.00	-0.750			
0.1625	10400.17	3.9160	3.9161	-0.8058	25.92	0.01	-0.750			
0.1649	10556.47	3.9130	3.9127	-0.8057	25.92	0.01	-0.750			
0.1674	10710.76	3.9100	3.9100	-0.8069	25.92	0.01	-0.750			
0.1698	10867.95	3.9070	3.9068	-0.8099	25.93	0.02	-0.750			
0.1723	11025.46	3.9040	3.9041	-0.8088	25.93	0.02	-0.750			
0.1747	11181.14	3.9010	3.9009	-0.8049	25.94	0.03	-0.750			
0.1771	11332.89	3.8980	3.8980	-0.7961	25.94	0.03	-0.750			
0.1794	11481.34	3.8950	3.8951	-0.7880	25.94	0.03	-0.750			
0.1818	11636.02	3.8920	3.8919	-0.8019	25.95	0.04	-0.750			
0.1842	11788.85	3.8890	3.8890	-0.8027	25.95	0.04	-0.750			
0.1866	11943.60	3.8860	3.8861	-0.8073	25.95	0.04	-0.750			
0.1891	12100.87	3.8830	3.8829	-0.8172	25.95	0.04	-0.750			
0.1915	12259.10	3.8800	3.8800	-0.8170	25.96	0.05	-0.750			
0.1940	12416.78	3.8770	3.8770	-0.8164	25.96	0.05	-0.750			
0.1964	12572.26	3.8740	3.8742	-0.8157	25.96	0.05	-0.750			
0.1989	12728.88	3.8710	3.8710	-0.8142	25.96	0.05	-0.750			
0.2014	12886.98	3.8680	3.8679	-0.8184	25.96	0.05	-0.750			
0.2038	13043.60	3.8650	3.8649	-0.8180	25.97	0.06	-0.750			
0.2063	13201.79	3.8620	3.8620	-0.8220	25.97	0.06	-0.750			
0.2087	13359.40	3.8590	3.8595	-0.8230	25.97	0.06	-0.750			
0.2112	13517.68	3.8560	3.8559	-0.8232	25.97	0.06	-0.750			
0.2137	13675.19	3.8530	3.8529	-0.8207	25.98	0.07	-0.750			
0.2161	13832.36	3.8500	3.8500	-0.8144	25.98	0.07	-0.750			
0.2186	13990.83	3.8470	3.8470	-0.8237	25.99	0.08	-0.750			
0.2210	14145.59	3.8440	3.8441	-0.8173	25.99	0.08	-0.750			
0.2235	14302.45	3.8410	3.8409	-0.8164	25.99	0.08	-0.750			
0.2259	14458.51	3.8380	3.8380	-0.8230	26.00	0.09	-0.750			
0.2284	14617.94	3.8350	3.8350	-0.8244	26.00	0.09	-0.750			
0.2309	14778.55	3.8320	3.8319	-0.8207	26.01	0.10	-0.750			
0.2334	14938.24	3.8290	3.8291	-0.8205	26.01	0.10	-0.750			
0.2358	15093.29	3.8260	3.8260	-0.8164	26.01	0.10	-0.750			
0.2383	15248.82	3.8230	3.8230	-0.8183	26.02	0.11	-0.750			
0.2407	15406.75	3.8200	3.8198	-0.8153	26.02	0.11	-0.750			
0.2431	15561.27	3.8170	3.8170	-0.8110	26.02	0.11	-0.750			
0.2456	15720.69	3.8140	3.8141	-0.8153	26.03	0.12	-0.750			
0.2481	15876.84	3.8110	3.8109	-0.8121	26.03	0.12	-0.750			
0.2505	16031.14	3.8080	3.8079	-0.8117	26.04	0.13	-0.750			
0.2529	16186.93	3.8050	3.8050	-0.8029	26.04	0.13	-0.750			
0.2553	16339.30	3.8020	3.8020	-0.7990	26.04	0.13	-0.750			
0.2578	16496.22	3.7990	3.7990	-0.8030	26.05	0.14	-0.750			
0.2601	16649.18	3.7960	3.7958	-0.7965	26.05	0.14	-0.750			
0.2625	16799.20	3.7930	3.7930	-0.8025	26.06	0.15	-0.750			
0.2649	16954.67	3.7900	3.7901	-0.7984	26.07	0.16	-0.750			
0.2673	17108.89	3.7870	3.7869	-0.7922	26.08	0.17	-0.750			
0.2697	17263.51	3.7840	3.7839	-0.7891	26.08	0.17	-0.750			
0.2721	17413.73	3.7810	3.7812	-0.7794	26.09	0.18	-0.750			
0.2744	17560.19	3.7780	3.7780	-0.7799	26.09	0.18	-0.750			
0.2767	17709.18	3.7750	3.7749	-0.7727	26.09	0.18	-0.750			
0.2790	17854.78	3.7720	3.7720	-0.7635	26.10	0.19	-0.750			
0.2813	18004.43	3.7690	3.7690	-0.7738	26.10	0.19	-0.750			
0.2837	18154.05	3.7660	3.7662	-0.7769	26.10	0.19	-0.750			
0.2860	18303.13	3.7630	3.7629	-0.7728	26.10	0.19	-0.750			
0.2883	18450.11	3.7600	3.7599	-0.7716	26.10	0.19	-0.750			
0.2906	18598.20	3.7570	3.7570	-0.7681	26.11	0.20	-0.750			
0.2929	18747.81	3.7540	3.7540	-0.7697	26.11	0.20	-0.750			
0.2952	18893.65	3.7510	3.7509	-0.7700	26.11	0.20	-0.750			
0.2975	19039.66	3.7480	3.7481	-0.7736	26.11	0.20	-0.750			
0.2998	19187.87	3.7450	3.7449	-0.7847	26.12	0.21	-0.750			
0.3022	19338.81	3.7420	3.7420	-0.7934	26.12	0.21	-0.750			
0.3046	19492.18	3.7390	3.7390	-0.7981	26.12	0.21	-0.750			
0.3070	19649.41	3.7360	3.7360	-0.8034	26.13	0.22	-0.750			
0.3095	19805.43	3.7330	3.7331	-0.8127	26.13	0.22	-0.750			
0.3119	19959.62	3.7300	3.7300	-0.8185	26.13	0.22	-0.750			
0.3143	20115.94	3.7270	3.7269	-0.8307	26.13	0.22	-0.750			
0.3168	20277.89	3.7240	3.7240	-0.8425	26.14	0.23	-0.750			
0.3194	20441.32	3.7210	3.7209	-0.8575	26.14	0.23	-0.750			
0.3220	20607.80	3.7180	3.7181	-0.8694	26.14	0.23	-0.750			
0.3246	20776.39	3.7150	3.7150	-0.8887	26.14	0.23	-0.750			
0.3273	20945.86	3.7120	3.7119	-0.8997	26.14	0.23	-0.750			
0.3300	21117.88	3.7090	3.7090	-0.9103	26.15	0.24	-0.750			
0.3328	21296.75	3.7060	3.7059	-0.9364	26.15	0.24	-0.750			
0.3356	21476.64	3.7030	3.7030	-0.9608	26.15	0.24	-0.750			
0.3385	21664.86	3.7000	3.6999	-0.9768	26.15	0.24	-0.750			
0.3415	21854.71	3.6970	3.6970	-0.9956	26.15	0.24	-0.750			
0.3445	22047.91	3.6940	3.6940	-1.0084	26.15	0.24	-0.750			
0.3475	22242.27	3.6910	3.6911	-1.0390	26.15	0.24	-0.750			
0.3507	22445.80	3.6880	3.6879	-1.0504	26.14	0.23	-0.750			
0.3539	22647.40	3.6850	3.6849	-1.0626	26.14	0.23	-0.750			
0.3571	22851.62	3.6820	3.6820	-1.0774	26.13	0.22	-0.750			
0.3604	23062.68	3.6790	3.6789	-1.1067	26.13	0.22	-0.750			
0.3637	23276.40	3.6760	3.6759	-1.1239	26.13	0.22	-0.750			
0.3671	23494.08	3.6730	3.6729	-1.1415	26.12	0.21	-0.750			
0.3705	23710.93	3.6700	3.6702	-1.1598	26.12	0.21	-0.750			
0.3741	23943.58	3.6670	3.6669	-1.1987	26.12	0.21	-0.750			
0.3777	24175.52	3.6640	3.6638	-1.2192	26.11	0.20	-0.750			
0.3814	24409.25	3.6610	3.6610	-1.2491	26.11	0.20	-0.750			
0.3851	24649.58	3.6580	3.6581	-1.2743	26.11	0.20	-0.750			
0.3890	24897.57	3.6550	3.6549	-1.3108	26.10	0.19	-0.750			
0.3930	25154.75	3.6520	3.6518	-1.3273	26.10	0.19	-0.750			
0.3970	25408.83	3.6490	3.6492	-1.3413	26.09	0.18	-0.750			
0.4012	25674.30	3.6460	3.6458	-1.3775	26.08	0.17	-0.750			
0.4053	25939.43	3.6430	3.6431	-1.3931	26.08	0.17	-0.750			
0.4094	26203.45	3.6400	3.6400	-1.4374	26.07	0.16	-0.750			
0.4138	26482.48	3.6370	3.6370	-1.4681	26.06	0.15	-0.750			
0.4182	26766.27	3.6340	3.6339	-1.5066	26.06	0.15	-0.750			
0.4229	27066.14	3.6310	3.6310	-1.5671	26.05	0.14	-0.750			
0.4277	27374.40	3.6280	3.6281	-1.5893	26.04	0.13	-0.750			
0.4326	27684.72	3.6250	3.6250	-1.6002	26.03	0.12	-0.750			
0.4374	27991.94	3.6220	3.6220	-1.6190	26.03	0.12	-0.750			
0.4423	28306.33	3.6190	3.6187	-1.6449	26.02	0.11	-0.750	0.386	0.521	
0.4472	28622.50	3.6160	3.6158	-1.6687	26.02	0.11	-0.750			
0.4521	28937.54	3.6130	3.6133	-1.6927	26.02	0.11	-0.750			
0.4573	29267.50	3.6100	3.6101	-1.7208	26.01	0.10	-0.750			
0.4624	29593.24	3.6070	3.6070	-1.7877	26.00	0.09	-0.750			
0.4678	29940.09	3.6040	3.6037	-1.8619	26.00	0.09	-0.750			
0.4736	30310.00	3.6010	3.6006	-1.9163	25.99	0.08	-0.750			
0.4796	30692.13	3.5980	3.5980	-1.9441	25.98	0.07	-0.750			
0.4855	31074.30	3.5950	3.5951	-1.9945	25.98	0.07	-0.750			
0.4916	31460.48	3.5920	3.5920	-2.0091	25.97	0.06	-0.750			
0.4977	31852.01	3.5890	3.5890	-2.0124	25.97	0.06	-0.750			
0.5036	32227.87	3.5860	3.5858	-2.0301	25.97	0.06	-0.750			
0.5098	32624.98	3.5830	3.5831	-2.0512	25.97	0.06	-0.750			
0.5160	33026.79	3.5800	3.5800	-2.1052	25.96	0.05	-0.750			
0.5223	33429.14	3.5770	3.5768	-2.1347	25.96	0.05	-0.750			
0.5288	33841.88	3.5740	3.5740	-2.1488	25.95	0.04	-0.750			
0.5353	34261.44	3.5710	3.5712	-2.1788	25.95	0.04	-0.750			
0.5420	34685.77	3.5680	3.5678	-2.2065	25.95	0.04	-0.750			
0.5486	35109.94	3.5650	3.5646	-2.2195	25.95	0.04	-0.750			
0.5553	35540.88	3.5620	3.5620	-2.2505	25.95	0.04	-0.750			
0.5621	35974.61	3.5590	3.5590	-2.2548	25.95	0.04	-0.750			
0.5690	36413.84	3.5560	3.5558	-2.2542	25.95	0.04	-0.750			
0.5757	36847.10	3.5530	3.5531	-2.2433	25.95	0.04	-0.750			
0.5826	37285.66	3.5500	3.5501	-2.2302	25.95	0.04	-0.750			
0.5892	37708.88	3.5470	3.5468	-2.2176	25.95	0.04	-0.750			
0.5958	38134.22	3.5440	3.5441	-2.1974	25.95	0.04	-0.750			
0.6024	38555.95	3.5410	3.5413	-2.2004	25.96	0.05	-0.750			
0.6091	38979.70	3.5380	3.5378	-2.1793	25.97	0.06	-0.750			
0.6156	39399.92	3.5350	3.5348	-2.1405	25.97	0.06	-0.750			
0.6221	39812.72	3.5320	3.5322	-2.1016	25.97	0.06	-0.750			
0.6284	40218.63	3.5290	3.5290	-2.0816	25.97	0.06	-0.750			
0.6345	40605.64	3.5260	3.5259	-2.0132	25.97	0.06	-0.750			
0.6404	40986.36	3.5230	3.5230	-1.9462	25.98	0.07	-0.750			
0.6462	41357.21	3.5200	3.5201	-1.9076	25.99	0.08	-0.750			
0.6518	41716.88	3.5170	3.5169	-1.8498	26.00	0.09	-0.750			
0.6574	42072.57	3.5140	3.5139	-1.8026	26.01	0.10	-0.750			
0.6627	42413.45	3.5110	3.5109	-1.7437	26.02	0.11	-0.750			
0.6678	42738.09	3.5080	3.5078	-1.6879	26.04	0.13	-0.750			
0.6728	43059.63	3.5050	3.5050	-1.6300	26.05	0.14	-0.750			
0.6777	43371.16	3.5020	3.5023	-1.5766	26.06	0.15	-0.750			
0.6823	43665.99	3.4990	3.4991	-1.5255	26.07	0.16	-0.750			
0.6867	43951.83	3.4960	3.4959	-1.4689	26.08	0.17	-0.750			
0.6911	44229.54	3.4930	3.4929	-1.4256	26.09	0.18	-0.750			
0.6953	44499.79	3.4900	3.4899	-1.3950	26.11	0.20	-0.750			
0.6994	44762.17	3.4870	3.4870	-1.3523	26.12	0.21	-0.750			
0.7034	45018.37	3.4840	3.4839	-1.3122	26.13	0.22	-0.750			
0.7073	45266.08	3.4810	3.4810	-1.2733	26.15	0.24	-0.750			
0.7110	45504.73	3.4780	3.4780	-1.2346	26.16	0.25	-0.750			
0.7147	45742.77	3.4750	3.4749	-1.1986	26.18	0.27	-0.750			
0.7183	45969.77	3.4720	3.4720	-1.1513	26.20	0.29	-0.750			
0.7216	46183.87	3.4690	3.4693	-1.1118	26.21	0.30	-0.750			
0.7249	46395.26	3.4660	3.4659	-1.0753	26.23	0.32	-0.750			
0.7281	46595.71	3.4630	3.4630	-1.0363	26.24	0.33	-0.750			
0.7311	46789.39	3.4600	3.4600	-1.0036	26.26	0.35	-0.750			
0.7340	46978.80	3.4570	3.4572	-0.9788	26.27	0.36	-0.750			
0.7369	47163.45	3.4540	3.4540	-0.9564	26.28	0.37	-0.750			
0.7398	47345.44	3.4510	3.4509	-0.9322	26.29	0.38	-0.750			
0.7425	47520.37	3.4480	3.4479	-0.9065	26.30	0.39	-0.750			
0.7452	47691.88	3.4450	3.4451	-0.8948	26.31	0.40	-0.750			
0.7478	47861.24	3.4420	3.4419	-0.8812	26.31	0.40	-0.750			
0.7504	48026.32	3.4390	3.4389	-0.8810	26.32	0.41	-0.750			
0.7530	48193.50	3.4360	3.4360	-0.8892	26.33	0.42	-0.750			
0.7556	48361.57	3.4330	3.4330	-0.8972	26.34	0.43	-0.750			
0.7584	48538.37	3.4300	3.4300	-0.9149	26.35	0.44	-0.750			
0.7611	48712.90	3.4270	3.4270	-0.9440	26.36	0.45	-0.750			
0.7640	48897.21	3.4240	3.4238	-0.9605	26.37	0.46	-0.750			
0.7670	49085.26	3.4210	3.4209	-0.9752	26.38	0.47	-0.750			
0.7699	49274.79	3.4180	3.4180	-0.9801	26.39	0.48	-0.750			
0.7729	49467.02	3.4150	3.4149	-0.9885	26.40	0.49	-0.750			
0.7759	49660.15	3.4120	3.4120	-0.9932	26.40	0.49	-0.750			
0.7789	49852.02	3.4090	3.4089	-0.9842	26.41	0.50	-0.750			
0.7819	50040.07	3.4060	3.4059	-0.9603	26.42	0.51	-0.750			
0.7848	50226.37	3.4030	3.4031	-0.9446	26.43	0.52	-0.750			
0.7876	50406.99	3.4000	3.4000	-0.9214	26.45	0.54	-0.750			
0.7903	50580.61	3.3970	3.3970	-0.8901	26.46	0.55	-0.750			
0.7929	50745.95	3.3940	3.3940	-0.8523	26.47	0.56	-0.750			
0.7954	50908.57	3.3910	3.3910	-0.8300	26.48	0.57	-0.750			
0.7979	51065.97	3.3880	3.3880	-0.8019	26.48	0.57	-0.750			
0.8003	51217.73	3.3850	3.3850	-0.7718	26.49	0.58	-0.750			
0.8025	51362.16	3.3820	3.3820	-0.7476	26.49	0.58	-0.750			
0.8048	51504.24	3.3790	3.3790	-0.7157	26.50	0.59	-0.750			
0.8069	51639.35	3.3760	3.3759	-0.6876	26.51	0.60	-0.750			
0.8089	51767.70	3.3730	3.3734	-0.6624	26.51	0.60	-0.750			
0.8108	51891.44	3.3700	3.3699	-0.6342	26.52	0.61	-0.750			
0.8127	52010.36	3.3670	3.3669	-0.6116	26.53	0.62	-0.750			
0.8145	52125.07	3.3640	3.3640	-0.5878	26.53	0.62	-0.750			
0.8162	52235.41	3.3610	3.3611	-0.5708	26.54	0.63	-0.750			
0.8179	52343.58	3.3580	3.3580	-0.5533	26.55	0.64	-0.750			
0.8195	52447.16	3.3550	3.3549	-0.5324	26.55	0.64	-0.750			
0.8211	52547.45	3.3520	3.3520	-0.5123	26.56	0.65	-0.750			
0.8226	52644.45	3.3490	3.3490	-0.4943	26.56	0.65	-0.750			
0.8240	52737.22	3.3460	3.3460	-0.4748	26.57	0.66	-0.750			
0.8254	52826.18	3.3430	3.3430	-0.4598	26.58	0.67	-0.750			
0.8267	52911.81	3.3400	3.3400	-0.4431	26.58	0.67	-0.750			
0.8281	52995.39	3.3370	3.3369	-0.4268	26.59	0.68	-0.750			
0.8293	53076.20	3.3340	3.3340	-0.4137	26.59	0.68	-0.750			
0.8305	53154.63	3.3310	3.3311	-0.4011	26.60	0.69	-0.750			
0.8317	53230.46	3.3280	3.3279	-0.3867	26.60	0.69	-0.750			
0.8329	53303.07	3.3250	3.3249	-0.3727	26.61	0.70	-0.750			
0.8339	53372.74	3.3220	3.3221	-0.3593	26.61	0.70	-0.750			
0.8350	53440.62	3.3190	3.3191	-0.3479	26.62	0.71	-0.750			
0.8360	53506.04	3.3160	3.3159	-0.3385	26.62	0.71	-0.750			
0.8370	53569.48	3.3130	3.3130	-0.3286	26.63	0.72	-0.750			
0.8380	53631.12	3.3100	3.3100	-0.3195	26.63	0.72	-0.750			
0.8389	53691.85	3.3070	3.3070	-0.3123	26.64	0.73	-0.750			
0.8399	53751.56	3.3040	3.3040	-0.3038	26.64	0.73	-0.750			
0.8408	53809.40	3.3010	3.3011	-0.2953	26.65	0.74	-0.750			
0.8416	53865.17	3.2980	3.2979	-0.2874	26.65	0.74	-0.750			
0.8425	53919.11	3.2950	3.2950	-0.2790	26.66	0.75	-0.750			
0.8433	53971.28	3.2920	3.2919	-0.2714	26.66	0.75	-0.750			
0.8441	54022.61	3.2890	3.2890	-0.2655	26.67	0.76	-0.750			
0.8449	54072.92	3.2860	3.2861	-0.2601	26.67	0.76	-0.750			
0.8457	54122.64	3.2830	3.2829	-0.2547	26.68	0.77	-0.750			
0.8464	54171.64	3.2800	3.2800	-0.2492	26.68	0.77	-0.750			
0.8472	54218.48	3.2770	3.2770	-0.2432	26.69	0.78	-0.750			
0.8479	54264.46	3.2740	3.2740	-0.2372	26.69	0.78	-0.750			
0.8486	54309.39	3.2710	3.2710	-0.2324	26.69	0.78	-0.750			
0.8493	54353.03	3.2680	3.2679	-0.2275	26.70	0.79	-0.750			
0.8499	54396.13	3.2650	3.2651	-0.2232	26.70	0.79	-0.750			
0.8506	54438.66	3.2620	3.2620	-0.2198	26.71	0.80	-0.750			
0.8513	54480.55	3.2590	3.2590	-0.2167	26.71	0.80	-0.750			
0.8519	54521.96	3.2560	3.2560	-0.2134	26.72	0.81	-0.750			
0.8525	54562.33	3.2530	3.2531	-0.2097	26.72	0.81	-0.750			
0.8532	54602.31	3.2500	3.2499	-0.2067	26.72	0.81	-0.750			
0.8538	54641.78	3.2470	3.2470	-0.2035	26.73	0.82	-0.750			
0.8544	54680.58	3.2440	3.2440	-0.2000	26.73	0.82	-0.750			
0.8550	54718.67	3.2410	3.2410	-0.1970	26.74	0.83	-0.750			
0.8556	54756.17	3.2380	3.2380	-0.1936	26.74	0.83	-0.750			
0.8561	54792.82	3.2350	3.2350	-0.1909	26.74	0.83	-0.750			
0.8567	54829.02	3.2320	3.2321	-0.1885	26.75	0.84	-0.750			
0.8573	54864.88	3.2290	3.2289	-0.1858	26.75	0.84	-0.750			
0.8578	54900.37	3.2260	3.2261	-0.1839	26.75	0.84	-0.750			
0.8584	54935.59	3.2230	3.2230	-0.1817	26.76	0.85	-0.750			
0.8589	54970.37	3.2200	3.2200	-0.1798	26.76	0.85	-0.750			
0.8594	55004.69	3.2170	3.2170	-0.1775	26.77	0.86	-0.750			
0.8600	55038.53	3.2140	3.2140	-0.1751	26.77	0.86	-0.750			
0.8605	55071.83	3.2110	3.2110	-0.1727	26.78	0.87	-0.750			
0.8610	55104.61	3.2080	3.2080	-0.1707	26.78	0.87	-0.750			
0.8615	55137.28	3.2050	3.2050	-0.1689	26.79	0.88	-0.750			
0.8620	55169.53	3.2020	3.2020	-0.1670	26.79	0.88	-0.750			
0.8625	55201.47	3.1990	3.1990	-0.1648	26.80	0.89	-0.750			
0.8630	55232.72	3.1960	3.1960	-0.1632	26.81	0.90	-0.750			
0.8635	55263.93	3.1930	3.1930	-0.1616	26.81	0.90	-0.750			
0.8640	55294.79	3.1900	3.1900	-0.1599	26.82	0.91	-0.750			
0.8645	55325.27	3.1870	3.1869	-0.1584	26.82	0.91	-0.750			
0.8649	55355.52	3.1840	3.1841	-0.1564	26.83	0.92	-0.750			
0.8654	55385.45	3.1810	3.1811	-0.1552	26.83	0.92	-0.750			
0.8659	55415.08	3.1780	3.1779	-0.1535	26.84	0.93	-0.750			
0.8663	55444.36	3.1750	3.1750	-0.1528	26.84	0.93	-0.750			
0.8668	55473.45	3.1720	3.1720	-0.1509	26.85	0.94	-0.750			
0.8672	55502.38	3.1690	3.1690	-0.1499	26.85	0.94	-0.750			
0.8677	55531.03	3.1660	3.1660	-0.1486	26.86	0.95	-0.750			
0.8681	55559.44	3.1630	3.1632	-0.1475	26.86	0.95	-0.750			
0.8686	55588.02	3.1600	3.1599	-0.1459	26.87	0.96	-0.750			
0.8690	55615.88	3.1570	3.1570	-0.1438	26.87	0.96	-0.750			
0.8694	55643.09	3.1540	3.1540	-0.1426	26.87	0.96	-0.750			
0.8698	55670.09	3.1510	3.1511	-0.1411	26.88	0.97	-0.750			
0.8703	55697.16	3.1480	3.1479	-0.1401	26.88	0.97	-0.750			
0.8707	55723.69	3.1450	3.1449	-0.1388	26.88	0.97	-0.750			
0.8711	55750.41	3.1420	3.1420	-0.1378	26.89	0.98	-0.750			
0.8715	55776.81	3.1390	3.1390	-0.1367	26.89	0.98	-0.750			
0.8719	55803.24	3.1360	3.1360	-0.1362	26.90	0.99	-0.750			
0.8723	55829.09	3.1330	3.1330	-0.1351	26.90	0.99	-0.750			
0.8727	55854.69	3.1300	3.1299	-0.1337	26.91	1.00	-0.750			
0.8731	55880.41	3.1270	3.1270	-0.1323	26.91	1.00	-0.750			
0.8735	55905.61	3.1240	3.1240	-0.1313	26.92	1.01	-0.750			
0.8739	55930.64	3.1210	3.1210	-0.1301	26.92	1.01	-0.750			
0.8743	55955.60	3.1180	3.1181	-0.1292	26.93	1.02	-0.750			
0.8747	55980.30	3.1150	3.1149	-0.1281	26.93	1.02	-0.750			
0.8751	56004.69	3.1120	3.1119	-0.1271	26.94	1.03	-0.750			
0.8755	56028.83	3.1090	3.1090	-0.1260	26.95	1.04	-0.750			
0.8758	56052.98	3.1060	3.1061	-0.1254	26.95	1.04	-0.750			
0.8762	56077.16	3.1030	3.1030	-0.1250	26.96	1.05	-0.750			
0.8766	56101.09	3.1000	3.1000	-0.1240	26.96	1.05	-0.750			
0.8769	56124.71	3.0970	3.0970	-0.1231	26.97	1.06	-0.750			
0.8773	56148.49	3.0940	3.0940	-0.1220	26.97	1.06	-0.750			
0.8777	56171.79	3.0910	3.0910	-0.1207	26.97	1.06	-0.750			
0.8780	56194.71	3.0880	3.0880	-0.1201	26.98	1.07	-0.750			
0.8784	56217.57	3.0850	3.0851	-0.1195	26.98	1.07	-0.750			
0.8788	56240.26	3.0820	3.0819	-0.1185	26.99	1.08	-0.750			
0.8791	56263.25	3.0790	3.0790	-0.1176	26.99	1.08	-0.750			
0.8795	56285.85	3.0760	3.0760	-0.1170	27.00	1.09	-0.750			
0.8798	56308.06	3.0730	3.0730	-0.1163	27.00	1.09	-0.750			
0.8802	56330.49	3.0700	3.0700	-0.1159	27.01	1.10	-0.750			
0.8805	56352.48	3.0670	3.0671	-0.1153	27.01	1.10	-0.750			
0.8808	56374.30	3.0640	3.0639	-0.1143	27.02	1.11	-0.750			
0.8812	56396.36	3.0610	3.0610	-0.1136	27.02	1.11	-0.750			
0.8815	56418.05	3.0580	3.0580	-0.1130	27.03	1.12	-0.750			
0.8819	56439.71	3.0550	3.0550	-0.1125	27.03	1.12	-0.750			
0.8822	56461.55	3.0520	3.0520	-0.1125	27.04	1.13	-0.750			
0.8825	56483.07	3.0490	3.0490	-0.1115	27.04	1.13	-0.750			
0.8829	56504.31	3.0460	3.0459	-0.1104	27.05	1.14	-0.750			
0.8832	56525.42	3.0430	3.0430	-0.1096	27.05	1.14	-0.750			
0.8835	56546.34	3.0400	3.0400	-0.1087	27.06	1.15	-0.750			
0.8839	56567.16	3.0370	3.0371	-0.1079	27.06	1.15	-0.750			
0.8842	56587.91	3.0340	3.0340	-0.1072	27.07	1.16	-0.750			
0.8845	56608.17	3.0310	3.0310	-0.1068	27.07	1.16	-0.750			
0.8848	56628.37	3.0280	3.0280	-0.1059	27.07	1.16	-0.750			
0.8851	56648.82	3.0250	3.0251	-0.1055	27.08	1.17	-0.750			
0.8855	56669.06	3.0220	3.0220	-0.1052	27.08	1.17	-0.750			
0.8858	56689.37	3.0190	3.0189	-0.1043	27.09	1.18	-0.750			
0.8861	56709.47	3.0160	3.0161	-0.1038	27.09	1.18	-0.750			
0.8864	56729.31	3.0130	3.0130	-0.1029	27.10	1.19	-0.750			
0.8867	56749.31	3.0100	3.0099	-0.1016	27.10	1.19	-0.750			
0.8870	56768.64	3.0070	3.0072	-0.0998	27.10	1.19	-0.750			
0.8873	56787.64	3.0040	3.0040	-0.0991	27.11	1.20	-0.751			
