Ah_balance (normalized)	Ah_balance (mAh)	Voltage - fit (V)	Voltage -  interpolate (V)	dQ/dV (1/V)	Temperature (°C)	Temperature - diff (°C)	Current (C)	R_DC 0ms (mOhm)	R_DC 50ms (mOhm)	R_DC 50 ms PEC (mOhm)
0.0004	26.18	4.1640	4.1637	-0.1294	26.00	0.01	-0.750			
0.0009	57.85	4.1610	4.1608	-0.1841	26.00	0.01	-0.750			
0.0015	98.88	4.1580	4.1580	-0.2297	25.99	0.00	-0.750			
0.0023	147.35	4.1550	4.1552	-0.2737	25.99	0.00	-0.750			
0.0032	204.76	4.1520	4.1520	-0.3137	25.99	-0.00	-0.750			
0.0042	270.60	4.1490	4.1489	-0.3544	25.98	-0.01	-0.750			
0.0053	342.16	4.1460	4.1460	-0.3916	25.98	-0.01	-0.750			
0.0066	420.78	4.1430	4.1430	-0.4285	25.98	-0.01	-0.750			
0.0079	507.80	4.1400	4.1400	-0.4622	25.97	-0.02	-0.750			
0.0094	599.89	4.1370	4.1370	-0.4958	25.97	-0.02	-0.750			
0.0109	698.85	4.1340	4.1341	-0.5240	25.96	-0.03	-0.750			
0.0125	802.96	4.1310	4.1310	-0.5514	25.96	-0.03	-0.750			
0.0143	912.78	4.1280	4.1280	-0.5713	25.95	-0.04	-0.750			
0.0160	1024.46	4.1250	4.1250	-0.5895	25.95	-0.04	-0.750			
0.0178	1140.17	4.1220	4.1221	-0.6030	25.95	-0.04	-0.750			
0.0196	1257.51	4.1190	4.1188	-0.6176	25.94	-0.05	-0.750			
0.0215	1376.82	4.1160	4.1161	-0.6305	25.94	-0.05	-0.750			
0.0234	1499.96	4.1130	4.1129	-0.6427	25.94	-0.05	-0.750			
0.0254	1625.10	4.1100	4.1100	-0.6516	25.93	-0.06	-0.750			
0.0274	1751.52	4.1070	4.1071	-0.6643	25.93	-0.06	-0.750			
0.0294	1878.96	4.1040	4.1040	-0.6743	25.93	-0.06	-0.750			
0.0314	2010.34	4.1010	4.1010	-0.6830	25.92	-0.07	-0.750			
0.0335	2142.45	4.0980	4.0980	-0.6857	25.92	-0.07	-0.750			
0.0355	2274.90	4.0950	4.0950	-0.6912	25.91	-0.08	-0.750			
0.0376	2409.13	4.0920	4.0921	-0.6984	25.91	-0.08	-0.750			
0.0397	2543.48	4.0890	4.0889	-0.7014	25.90	-0.09	-0.750			
0.0418	2677.49	4.0860	4.0859	-0.7021	25.90	-0.09	-0.750			
0.0439	2812.32	4.0830	4.0830	-0.7117	25.90	-0.09	-0.750			
0.0461	2950.02	4.0800	4.0800	-0.7173	25.90	-0.09	-0.750			
0.0483	3088.80	4.0770	4.0770	-0.7215	25.89	-0.10	-0.750			
0.0504	3228.12	4.0740	4.0740	-0.7262	25.89	-0.10	-0.750			
0.0526	3369.16	4.0710	4.0710	-0.7251	25.89	-0.10	-0.750			
0.0548	3509.02	4.0680	4.0680	-0.7266	25.89	-0.10	-0.750			
0.0570	3647.08	4.0650	4.0650	-0.7327	25.89	-0.10	-0.750			
0.0592	3787.11	4.0620	4.0621	-0.7309	25.89	-0.10	-0.750			
0.0614	3929.07	4.0590	4.0588	-0.7355	25.89	-0.10	-0.750			
0.0636	4069.80	4.0560	4.0559	-0.7392	25.89	-0.10	-0.750			
0.0658	4212.49	4.0530	4.0531	-0.7413	25.89	-0.10	-0.750			
0.0681	4355.88	4.0500	4.0499	-0.7442	25.89	-0.10	-0.750			
0.0703	4498.01	4.0470	4.0470	-0.7467	25.89	-0.10	-0.750			
0.0725	4640.11	4.0440	4.0441	-0.7453	25.89	-0.10	-0.750			
0.0748	4786.76	4.0410	4.0409	-0.7513	25.89	-0.10	-0.750			
0.0771	4931.36	4.0380	4.0381	-0.7520	25.89	-0.10	-0.750			
0.0793	5075.22	4.0350	4.0350	-0.7517	25.89	-0.10	-0.750			
0.0816	5219.54	4.0320	4.0319	-0.7574	25.89	-0.10	-0.750			
0.0838	5365.19	4.0290	4.0290	-0.7552	25.89	-0.10	-0.750			
0.0861	5508.42	4.0260	4.0260	-0.7553	25.89	-0.10	-0.750			
0.0884	5655.56	4.0230	4.0230	-0.7614	25.89	-0.10	-0.750			
0.0907	5801.86	4.0200	4.0201	-0.7653	25.89	-0.10	-0.750			
0.0929	5948.43	4.0170	4.0170	-0.7671	25.89	-0.10	-0.750			
0.0953	6096.48	4.0140	4.0140	-0.7687	25.89	-0.10	-0.750			
0.0976	6243.85	4.0110	4.0110	-0.7695	25.89	-0.10	-0.750			
0.0999	6393.99	4.0080	4.0080	-0.7715	25.89	-0.10	-0.750			
0.1022	6541.49	4.0050	4.0050	-0.7688	25.89	-0.10	-0.750			
0.1045	6687.75	4.0020	4.0020	-0.7724	25.89	-0.10	-0.750			
0.1068	6834.79	3.9990	3.9990	-0.7737	25.90	-0.09	-0.750			
0.1091	6985.02	3.9960	3.9959	-0.7727	25.90	-0.09	-0.750			
0.1114	7132.76	3.9930	3.9930	-0.7781	25.90	-0.09	-0.750			
0.1138	7282.47	3.9900	3.9901	-0.7825	25.91	-0.08	-0.750			
0.1162	7433.76	3.9870	3.9869	-0.7852	25.91	-0.08	-0.750			
0.1185	7584.22	3.9840	3.9840	-0.7865	25.91	-0.08	-0.750			
0.1209	7734.89	3.9810	3.9810	-0.7849	25.91	-0.08	-0.750			
0.1232	7885.84	3.9780	3.9781	-0.7889	25.91	-0.08	-0.750			
0.1256	8038.39	3.9750	3.9749	-0.7917	25.91	-0.08	-0.750			
0.1279	8187.97	3.9720	3.9721	-0.7898	25.91	-0.08	-0.750			
0.1303	8341.25	3.9690	3.9691	-0.7915	25.91	-0.08	-0.750			
0.1327	8493.63	3.9660	3.9660	-0.8004	25.92	-0.07	-0.750			
0.1351	8647.99	3.9630	3.9630	-0.8049	25.92	-0.07	-0.750			
0.1376	8804.45	3.9600	3.9599	-0.8074	25.93	-0.06	-0.750			
0.1400	8957.78	3.9570	3.9572	-0.8059	25.93	-0.06	-0.750			
0.1424	9112.73	3.9540	3.9541	-0.8090	25.93	-0.06	-0.750			
0.1448	9268.68	3.9510	3.9510	-0.8163	25.93	-0.06	-0.750			
0.1473	9427.04	3.9480	3.9479	-0.8152	25.93	-0.06	-0.750			
0.1497	9583.37	3.9450	3.9449	-0.8120	25.93	-0.06	-0.750			
0.1522	9739.23	3.9420	3.9423	-0.8108	25.93	-0.06	-0.750			
0.1546	9895.53	3.9390	3.9389	-0.8165	25.93	-0.06	-0.750			
0.1570	10050.71	3.9360	3.9360	-0.8167	25.93	-0.06	-0.750			
0.1595	10205.44	3.9330	3.9329	-0.8132	25.94	-0.05	-0.750			
0.1619	10364.02	3.9300	3.9300	-0.8251	25.94	-0.05	-0.750			
0.1644	10522.68	3.9270	3.9271	-0.8279	25.94	-0.05	-0.750			
0.1669	10682.50	3.9240	3.9240	-0.8292	25.94	-0.05	-0.750			
0.1694	10840.52	3.9210	3.9210	-0.8311	25.94	-0.05	-0.750			
0.1719	11000.19	3.9180	3.9180	-0.8320	25.95	-0.04	-0.750			
0.1744	11160.56	3.9150	3.9149	-0.8319	25.95	-0.04	-0.750			
0.1769	11321.51	3.9120	3.9120	-0.8353	25.95	-0.04	-0.750			
0.1794	11480.62	3.9090	3.9090	-0.8363	25.95	-0.04	-0.750			
0.1819	11641.63	3.9060	3.9059	-0.8413	25.96	-0.03	-0.750			
0.1844	11804.09	3.9030	3.9030	-0.8447	25.96	-0.03	-0.750			
0.1870	11966.06	3.9000	3.9000	-0.8418	25.97	-0.02	-0.750			
0.1895	12129.70	3.8970	3.8971	-0.8477	25.97	-0.02	-0.750			
0.1921	12292.44	3.8940	3.8939	-0.8463	25.97	-0.02	-0.750			
0.1946	12453.05	3.8910	3.8909	-0.8446	25.97	-0.02	-0.750			
0.1971	12613.86	3.8880	3.8881	-0.8476	25.98	-0.01	-0.750			
0.1996	12776.84	3.8850	3.8850	-0.8474	25.98	-0.01	-0.750			
0.2022	12941.90	3.8820	3.8820	-0.8524	25.98	-0.01	-0.750			
0.2048	13106.59	3.8790	3.8790	-0.8517	25.98	-0.01	-0.750			
0.2073	13269.52	3.8760	3.8760	-0.8547	25.98	-0.01	-0.750			
0.2099	13434.87	3.8730	3.8730	-0.8551	25.99	-0.00	-0.750			
0.2125	13599.23	3.8700	3.8699	-0.8502	25.99	-0.00	-0.750			
0.2150	13761.30	3.8670	3.8672	-0.8517	25.99	0.00	-0.750			
0.2176	13925.16	3.8640	3.8640	-0.8547	25.99	0.00	-0.750			
0.2201	14089.12	3.8610	3.8609	-0.8584	26.00	0.01	-0.750			
0.2227	14255.02	3.8580	3.8579	-0.8570	26.00	0.01	-0.750			
0.2253	14419.67	3.8550	3.8550	-0.8598	26.01	0.02	-0.750			
0.2279	14584.96	3.8520	3.8522	-0.8604	26.01	0.02	-0.750			
0.2305	14751.07	3.8490	3.8490	-0.8630	26.01	0.02	-0.750			
0.2330	14914.51	3.8460	3.8460	-0.8603	26.02	0.03	-0.750			
0.2356	15078.88	3.8430	3.8430	-0.8611	26.02	0.03	-0.750			
0.2382	15246.31	3.8400	3.8400	-0.8655	26.03	0.04	-0.750			
0.2408	15412.74	3.8370	3.8370	-0.8656	26.03	0.04	-0.750			
0.2434	15578.26	3.8340	3.8340	-0.8671	26.04	0.05	-0.750			
0.2460	15745.38	3.8310	3.8310	-0.8651	26.04	0.05	-0.750			
0.2486	15911.11	3.8280	3.8280	-0.8650	26.04	0.05	-0.750			
0.2512	16077.40	3.8250	3.8249	-0.8618	26.05	0.06	-0.750			
0.2538	16242.75	3.8220	3.8219	-0.8629	26.05	0.06	-0.750			
0.2564	16407.74	3.8190	3.8190	-0.8681	26.05	0.06	-0.750			
0.2590	16574.76	3.8160	3.8159	-0.8680	26.05	0.06	-0.750			
0.2616	16742.18	3.8130	3.8129	-0.8669	26.05	0.06	-0.750			
0.2642	16909.83	3.8100	3.8099	-0.8689	26.05	0.06	-0.750			
0.2668	17075.67	3.8070	3.8070	-0.8690	26.05	0.06	-0.750			
0.2694	17243.32	3.8040	3.8040	-0.8677	26.06	0.07	-0.750			
0.2720	17407.91	3.8010	3.8010	-0.8657	26.06	0.07	-0.750			
0.2746	17573.34	3.7980	3.7980	-0.8601	26.07	0.08	-0.750			
0.2772	17741.38	3.7950	3.7951	-0.8640	26.07	0.08	-0.750			
0.2798	17907.21	3.7920	3.7920	-0.8584	26.07	0.08	-0.750			
0.2824	18071.88	3.7890	3.7889	-0.8574	26.08	0.09	-0.750			
0.2849	18235.56	3.7860	3.7860	-0.8573	26.08	0.09	-0.750			
0.2875	18399.55	3.7830	3.7830	-0.8540	26.09	0.10	-0.750			
0.2901	18564.41	3.7800	3.7802	-0.8525	26.09	0.10	-0.750			
0.2926	18728.33	3.7770	3.7770	-0.8538	26.09	0.10	-0.750			
0.2952	18892.49	3.7740	3.7740	-0.8545	26.10	0.11	-0.750			
0.2978	19056.72	3.7710	3.7710	-0.8528	26.10	0.11	-0.750			
0.3003	19221.15	3.7680	3.7679	-0.8508	26.11	0.12	-0.750			
0.3029	19382.68	3.7650	3.7652	-0.8477	26.11	0.12	-0.750			
0.3054	19546.63	3.7620	3.7620	-0.8463	26.11	0.12	-0.750			
0.3079	19708.19	3.7590	3.7590	-0.8460	26.11	0.12	-0.750			
0.3105	19869.90	3.7560	3.7560	-0.8400	26.12	0.13	-0.750			
0.3130	20032.82	3.7530	3.7530	-0.8441	26.12	0.13	-0.750			
0.3155	20193.23	3.7500	3.7501	-0.8451	26.12	0.13	-0.750			
0.3181	20355.44	3.7470	3.7469	-0.8476	26.12	0.13	-0.750			
0.3206	20518.72	3.7440	3.7439	-0.8517	26.12	0.13	-0.750			
0.3232	20682.77	3.7410	3.7410	-0.8552	26.13	0.14	-0.750			
0.3257	20847.94	3.7380	3.7380	-0.8622	26.13	0.14	-0.750			
0.3283	21013.93	3.7350	3.7351	-0.8660	26.13	0.14	-0.750			
0.3309	21179.29	3.7320	3.7319	-0.8718	26.14	0.15	-0.750			
0.3336	21347.25	3.7290	3.7290	-0.8750	26.14	0.15	-0.750			
0.3362	21513.94	3.7260	3.7260	-0.8807	26.14	0.15	-0.750			
0.3388	21685.68	3.7230	3.7229	-0.8957	26.15	0.16	-0.750			
0.3415	21858.56	3.7200	3.7200	-0.9044	26.15	0.16	-0.750			
0.3443	22032.09	3.7170	3.7170	-0.9181	26.15	0.16	-0.750			
0.3470	22208.09	3.7140	3.7140	-0.9329	26.15	0.16	-0.750			
0.3498	22388.77	3.7110	3.7110	-0.9493	26.15	0.16	-0.750			
0.3527	22575.15	3.7080	3.7080	-0.9688	26.15	0.16	-0.750			
0.3556	22759.89	3.7050	3.7050	-0.9847	26.15	0.16	-0.750			
0.3586	22950.00	3.7020	3.7021	-1.0092	26.15	0.16	-0.750			
0.3617	23146.01	3.6990	3.6990	-1.0290	26.15	0.16	-0.750			
0.3648	23346.35	3.6960	3.6958	-1.0458	26.15	0.16	-0.750			
0.3680	23549.28	3.6930	3.6932	-1.0745	26.15	0.16	-0.750			
0.3712	23759.84	3.6900	3.6900	-1.0946	26.15	0.16	-0.750			
0.3746	23971.91	3.6870	3.6869	-1.1122	26.15	0.16	-0.750			
0.3779	24186.01	3.6840	3.6843	-1.1344	26.15	0.16	-0.750			
0.3813	24403.73	3.6810	3.6809	-1.1513	26.14	0.15	-0.750			
0.3848	24627.76	3.6780	3.6780	-1.1764	26.14	0.15	-0.750			
0.3884	24854.61	3.6750	3.6750	-1.2042	26.13	0.14	-0.750			
0.3920	25090.02	3.6720	3.6720	-1.2319	26.13	0.14	-0.750			
0.3958	25329.70	3.6690	3.6689	-1.2547	26.13	0.14	-0.750			
0.3996	25571.86	3.6660	3.6660	-1.2752	26.13	0.14	-0.750			
0.4034	25817.91	3.6630	3.6632	-1.3038	26.13	0.14	-0.750			
0.4074	26070.77	3.6600	3.6600	-1.3384	26.12	0.13	-0.750			
0.4114	26329.81	3.6570	3.6569	-1.3622	26.12	0.13	-0.750			
0.4156	26595.30	3.6540	3.6541	-1.3898	26.11	0.12	-0.750			
0.4198	26869.38	3.6510	3.6508	-1.4053	26.10	0.11	-0.750			
0.4240	27138.15	3.6480	3.6482	-1.4497	26.10	0.11	-0.750			
0.4284	27417.58	3.6450	3.6451	-1.4757	26.09	0.10	-0.750			
0.4329	27704.84	3.6420	3.6418	-1.5051	26.08	0.09	-0.750			
0.4374	27995.11	3.6390	3.6390	-1.5493	26.07	0.08	-0.750			
0.4421	28293.49	3.6360	3.6360	-1.5974	26.07	0.08	-0.750			
0.4470	28610.82	3.6330	3.6329	-1.6411	26.06	0.07	-0.750			
0.4520	28925.39	3.6300	3.6301	-1.6923	26.05	0.06	-0.750			
0.4571	29252.20	3.6270	3.6270	-1.7297	26.04	0.05	-0.750			
0.4624	29594.35	3.6240	3.6241	-1.7615	26.03	0.04	-0.750	0.401	0.500	
0.4678	29937.89	3.6210	3.6211	-1.7923	26.03	0.04	-0.750			
0.4732	30283.54	3.6180	3.6180	-1.8131	26.02	0.03	-0.750			
0.4787	30638.13	3.6150	3.6150	-1.8406	26.01	0.02	-0.750			
0.4842	30991.37	3.6120	3.6121	-1.8787	26.00	0.01	-0.750			
0.4898	31348.88	3.6090	3.6091	-1.9128	26.00	0.01	-0.750			
0.4957	31723.21	3.6060	3.6062	-1.9684	26.00	0.01	-0.750			
0.5017	32109.02	3.6030	3.6031	-2.0101	25.99	0.00	-0.750			
0.5078	32501.74	3.6000	3.6000	-2.0460	25.98	-0.01	-0.750			
0.5140	32897.41	3.5970	3.5970	-2.0885	25.97	-0.02	-0.750			
0.5204	33302.41	3.5940	3.5940	-2.1199	25.96	-0.03	-0.750			
0.5267	33708.89	3.5910	3.5910	-2.1409	25.95	-0.04	-0.750			
0.5332	34125.78	3.5880	3.5880	-2.1691	25.95	-0.04	-0.750			
0.5397	34539.54	3.5850	3.5850	-2.2070	25.95	-0.04	-0.750			
0.5464	34969.38	3.5820	3.5821	-2.2419	25.94	-0.05	-0.750			
0.5532	35404.83	3.5790	3.5790	-2.2683	25.94	-0.05	-0.750			
0.5600	35841.23	3.5760	3.5758	-2.2851	25.94	-0.05	-0.750			
0.5669	36283.33	3.5730	3.5730	-2.3073	25.94	-0.05	-0.750			
0.5739	36730.29	3.5700	3.5700	-2.3270	25.93	-0.06	-0.750			
0.5809	37177.54	3.5670	3.5670	-2.3333	25.93	-0.06	-0.750			
0.5879	37623.04	3.5640	3.5640	-2.3374	25.94	-0.05	-0.750			
0.5949	38076.28	3.5610	3.5610	-2.3584	25.94	-0.05	-0.750			
0.6021	38536.05	3.5580	3.5581	-2.3711	25.94	-0.05	-0.750			
0.6093	38993.87	3.5550	3.5550	-2.3647	25.94	-0.05	-0.750			
0.6163	39446.16	3.5520	3.5520	-2.3579	25.94	-0.05	-0.750			
0.6234	39900.31	3.5490	3.5491	-2.3492	25.95	-0.04	-0.750			
0.6305	40354.52	3.5460	3.5461	-2.3293	25.95	-0.04	-0.750			
0.6375	40797.77	3.5430	3.5430	-2.2950	25.96	-0.03	-0.750			
0.6443	41234.36	3.5400	3.5400	-2.2672	25.96	-0.03	-0.750			
0.6511	41672.53	3.5370	3.5369	-2.2371	25.97	-0.02	-0.750			
0.6578	42098.35	3.5340	3.5340	-2.1977	25.97	-0.02	-0.750			
0.6643	42515.14	3.5310	3.5310	-2.1346	25.97	-0.02	-0.750			
0.6707	42922.56	3.5280	3.5280	-2.0695	25.98	-0.01	-0.750			
0.6768	43314.87	3.5250	3.5250	-2.0199	25.99	-0.00	-0.750			
0.6827	43694.71	3.5220	3.5219	-1.9717	26.00	0.01	-0.750			
0.6886	44067.21	3.5190	3.5189	-1.9037	26.01	0.02	-0.750			
0.6941	44424.18	3.5160	3.5159	-1.8755	26.02	0.03	-0.750			
0.6998	44784.29	3.5130	3.5131	-1.8166	26.03	0.04	-0.750			
0.7052	45134.19	3.5100	3.5098	-1.7542	26.04	0.05	-0.750			
0.7105	45469.38	3.5070	3.5071	-1.6854	26.06	0.07	-0.750			
0.7154	45783.76	3.5040	3.5043	-1.6132	26.07	0.08	-0.750			
0.7201	46084.17	3.5010	3.5011	-1.5479	26.09	0.10	-0.750			
0.7246	46375.20	3.4980	3.4979	-1.4995	26.10	0.11	-0.750			
0.7289	46648.30	3.4950	3.4950	-1.4346	26.12	0.13	-0.750			
0.7332	46925.32	3.4920	3.4919	-1.4000	26.13	0.14	-0.750			
0.7373	47186.76	3.4890	3.4890	-1.3561	26.15	0.16	-0.750			
0.7413	47443.36	3.4860	3.4860	-1.3146	26.17	0.18	-0.750			
0.7452	47693.09	3.4830	3.4830	-1.2742	26.18	0.19	-0.750			
0.7489	47932.67	3.4800	3.4799	-1.2277	26.20	0.21	-0.750			
0.7525	48162.96	3.4770	3.4772	-1.1897	26.21	0.22	-0.750			
0.7561	48391.30	3.4740	3.4740	-1.1533	26.22	0.23	-0.750			
0.7595	48608.06	3.4710	3.4710	-1.1115	26.24	0.25	-0.750			
0.7627	48815.86	3.4680	3.4680	-1.0694	26.25	0.26	-0.750			
0.7659	49016.47	3.4650	3.4650	-1.0331	26.26	0.27	-0.750			
0.7689	49212.13	3.4620	3.4620	-1.0033	26.28	0.29	-0.750			
0.7719	49400.31	3.4590	3.4590	-0.9723	26.29	0.30	-0.750			
0.7747	49581.43	3.4560	3.4559	-0.9452	26.30	0.31	-0.750			
0.7775	49760.57	3.4530	3.4532	-0.9374	26.31	0.32	-0.750			
0.7802	49934.13	3.4500	3.4500	-0.9276	26.32	0.33	-0.750			
0.7830	50110.69	3.4470	3.4469	-0.9309	26.33	0.34	-0.750			
0.7857	50287.53	3.4440	3.4440	-0.9392	26.34	0.35	-0.750			
0.7886	50468.75	3.4410	3.4410	-0.9678	26.35	0.36	-0.750			
0.7915	50654.90	3.4380	3.4380	-0.9975	26.36	0.37	-0.750			
0.7945	50847.83	3.4350	3.4349	-1.0267	26.36	0.37	-0.750			
0.7976	51048.49	3.4320	3.4320	-1.0605	26.37	0.38	-0.750			
0.8009	51255.95	3.4290	3.4290	-1.0894	26.39	0.40	-0.750			
0.8043	51472.36	3.4260	3.4260	-1.1253	26.39	0.40	-0.750			
0.8078	51696.43	3.4230	3.4229	-1.1389	26.40	0.41	-0.750			
0.8112	51918.03	3.4200	3.4200	-1.1372	26.41	0.42	-0.750			
0.8147	52139.41	3.4170	3.4173	-1.1274	26.42	0.43	-0.750			
0.8181	52357.78	3.4140	3.4139	-1.1036	26.43	0.44	-0.750			
0.8214	52569.74	3.4110	3.4110	-1.0694	26.44	0.45	-0.750			
0.8245	52770.57	3.4080	3.4079	-1.0282	26.44	0.45	-0.750			
0.8276	52964.83	3.4050	3.4052	-0.9959	26.45	0.46	-0.750			
0.8305	53150.97	3.4020	3.4019	-0.9523	26.46	0.47	-0.750			
0.8333	53329.29	3.3990	3.3989	-0.9133	26.47	0.48	-0.750			
0.8359	53500.68	3.3960	3.3960	-0.8742	26.48	0.49	-0.750			
0.8385	53664.38	3.3930	3.3930	-0.8449	26.49	0.50	-0.750			
0.8410	53822.75	3.3900	3.3900	-0.8095	26.49	0.50	-0.750			
0.8433	53973.50	3.3870	3.3870	-0.7782	26.50	0.51	-0.750			
0.8456	54119.64	3.3840	3.3840	-0.7507	26.50	0.51	-0.750			
0.8478	54262.16	3.3810	3.3811	-0.7245	26.51	0.52	-0.750			
0.8500	54398.96	3.3780	3.3779	-0.6953	26.51	0.52	-0.750			
0.8520	54530.24	3.3750	3.3750	-0.6674	26.52	0.53	-0.750			
0.8540	54654.43	3.3720	3.3720	-0.6394	26.52	0.53	-0.750			
0.8559	54774.59	3.3690	3.3689	-0.6143	26.53	0.54	-0.750			
0.8576	54888.86	3.3660	3.3660	-0.5893	26.54	0.55	-0.750			
0.8594	54998.92	3.3630	3.3630	-0.5679	26.54	0.55	-0.750			
0.8610	55106.94	3.3600	3.3600	-0.5452	26.55	0.56	-0.750			
0.8627	55209.72	3.3570	3.3570	-0.5217	26.55	0.56	-0.750			
0.8642	55307.22	3.3540	3.3540	-0.4988	26.56	0.57	-0.750			
0.8656	55400.05	3.3510	3.3509	-0.4773	26.56	0.57	-0.750			
0.8670	55489.38	3.3480	3.3480	-0.4570	26.57	0.58	-0.750			
0.8684	55574.79	3.3450	3.3449	-0.4382	26.58	0.59	-0.750			
0.8696	55656.72	3.3420	3.3420	-0.4208	26.58	0.59	-0.750			
0.8709	55736.66	3.3390	3.3390	-0.4063	26.59	0.60	-0.750			
0.8721	55812.44	3.3360	3.3359	-0.3905	26.59	0.60	-0.750			
0.8732	55885.85	3.3330	3.3330	-0.3748	26.60	0.61	-0.750			
0.8743	55955.91	3.3300	3.3300	-0.3588	26.61	0.62	-0.750			
0.8754	56023.59	3.3270	3.3270	-0.3450	26.61	0.62	-0.750			
0.8764	56088.10	3.3240	3.3240	-0.3326	26.62	0.63	-0.750			
0.8774	56150.56	3.3210	3.3209	-0.3204	26.62	0.63	-0.750			
0.8783	56210.74	3.3180	3.3179	-0.3073	26.62	0.63	-0.750			
0.8792	56268.49	3.3150	3.3150	-0.2963	26.63	0.64	-0.750			
0.8801	56324.38	3.3120	3.3121	-0.2867	26.63	0.64	-0.750			
0.8809	56378.14	3.3090	3.3090	-0.2774	26.64	0.65	-0.750			
0.8817	56430.08	3.3060	3.3059	-0.2675	26.64	0.65	-0.750			
0.8825	56480.25	3.3030	3.3030	-0.2590	26.65	0.66	-0.750			
0.8833	56529.34	3.3000	3.3000	-0.2513	26.65	0.66	-0.750			
0.8840	56576.97	3.2970	3.2971	-0.2443	26.66	0.67	-0.750			
0.8847	56623.04	3.2940	3.2940	-0.2362	26.66	0.67	-0.750			
0.8854	56667.46	3.2910	3.2910	-0.2300	26.66	0.67	-0.750			
0.8861	56710.69	3.2880	3.2880	-0.2238	26.67	0.68	-0.750			
0.8868	56752.93	3.2850	3.2850	-0.2174	26.67	0.68	-0.750			
0.8874	56794.33	3.2820	3.2820	-0.2121	26.68	0.69	-0.750			
0.8880	56834.37	3.2790	3.2790	-0.2066	26.68	0.69	-0.750			
0.8886	56873.54	3.2760	3.2760	-0.2021	26.68	0.69	-0.750			
0.8892	56911.71	3.2730	3.2730	-0.1969	26.69	0.70	-0.750			
0.8898	56949.01	3.2700	3.2700	-0.1923	26.69	0.70	-0.750			
0.8904	56985.24	3.2670	3.2670	-0.1874	26.69	0.70	-0.750			
0.8909	57020.78	3.2640	3.2641	-0.1835	26.70	0.71	-0.750			
0.8915	57055.51	3.2610	3.2610	-0.1804	26.70	0.71	-0.750			
0.8920	57089.42	3.2580	3.2580	-0.1769	26.71	0.72	-0.750			
0.8925	57123.14	3.2550	3.2550	-0.1744	26.71	0.72	-0.750			
0.8931	57156.18	3.2520	3.2519	-0.1713	26.72	0.73	-0.750			
0.8936	57189.07	3.2490	3.2490	-0.1686	26.72	0.73	-0.750			
0.8941	57221.35	3.2460	3.2460	-0.1660	26.72	0.73	-0.750			
0.8946	57252.90	3.2430	3.2430	-0.1626	26.73	0.74	-0.750			
0.8951	57283.89	3.2400	3.2400	-0.1596	26.73	0.74	-0.750			
0.8955	57313.79	3.2370	3.2370	-0.1571	26.73	0.74	-0.750			
0.8960	57343.60	3.2340	3.2340	-0.1542	26.74	0.75	-0.750			
0.8965	57373.03	3.2310	3.2310	-0.1523	26.74	0.75	-0.750			
0.8969	57402.04	3.2280	3.2279	-0.1505	26.75	0.76	-0.750			
0.8974	57430.76	3.2250	3.2251	-0.1487	26.75	0.76	-0.750			
0.8978	57459.09	3.2220	3.2220	-0.1472	26.75	0.76	-0.750			
0.8982	57487.20	3.2190	3.2190	-0.1456	26.76	0.77	-0.750			
0.8987	57515.15	3.2160	3.2160	-0.1433	26.76	0.77	-0.750			
0.8991	57542.26	3.2130	3.2130	-0.1413	26.76	0.77	-0.750			
0.8995	57569.39	3.2100	3.2101	-0.1400	26.77	0.78	-0.750			
0.8999	57596.08	3.2070	3.2070	-0.1380	26.77	0.78	-0.750			
0.9003	57622.26	3.2040	3.2039	-0.1362	26.77	0.78	-0.750			
0.9008	57648.14	3.2010	3.2011	-0.1345	26.78	0.79	-0.750			
0.9012	57673.77	3.1980	3.1980	-0.1327	26.78	0.79	-0.750			
0.9015	57699.12	3.1950	3.1949	-0.1313	26.78	0.79	-0.750			
0.9019	57724.26	3.1920	3.1920	-0.1306	26.79	0.80	-0.750			
0.9023	57749.00	3.1890	3.1890	-0.1291	26.79	0.80	-0.750			
0.9027	57773.77	3.1860	3.1860	-0.1280	26.79	0.80	-0.750			
0.9031	57798.24	3.1830	3.1830	-0.1270	26.80	0.81	-0.750			
0.9035	57822.55	3.1800	3.1801	-0.1257	26.80	0.81	-0.750			
0.9039	57846.64	3.1770	3.1770	-0.1246	26.81	0.82	-0.750			
0.9042	57870.46	3.1740	3.1740	-0.1232	26.81	0.82	-0.750			
0.9046	57894.14	3.1710	3.1710	-0.1219	26.82	0.83	-0.750			
0.9050	57917.03	3.1680	3.1681	-0.1207	26.82	0.83	-0.750			
0.9053	57940.14	3.1650	3.1650	-0.1200	26.83	0.84	-0.750			
0.9057	57963.05	3.1620	3.1621	-0.1191	26.83	0.84	-0.750			
0.9060	57985.85	3.1590	3.1589	-0.1184	26.83	0.84	-0.750			
0.9064	58008.62	3.1560	3.1560	-0.1175	26.84	0.85	-0.750			
0.9067	58031.09	3.1530	3.1531	-0.1165	26.84	0.85	-0.750			
0.9071	58053.48	3.1500	3.1499	-0.1160	26.85	0.86	-0.750			
0.9074	58075.64	3.1470	3.1470	-0.1149	26.85	0.86	-0.750			
0.9078	58097.52	3.1440	3.1439	-0.1135	26.86	0.87	-0.750			
0.9081	58119.23	3.1410	3.1410	-0.1125	26.86	0.87	-0.750			
0.9084	58140.74	3.1380	3.1379	-0.1116	26.86	0.87	-0.750			
0.9088	58162.08	3.1350	3.1351	-0.1106	26.87	0.88	-0.750			
0.9091	58183.17	3.1320	3.1321	-0.1099	26.87	0.88	-0.750			
0.9094	58204.20	3.1290	3.1289	-0.1091	26.88	0.89	-0.750			
0.9098	58225.00	3.1260	3.1260	-0.1081	26.88	0.89	-0.750			
0.9101	58245.68	3.1230	3.1230	-0.1074	26.88	0.89	-0.750			
0.9104	58266.28	3.1200	3.1200	-0.1065	26.89	0.90	-0.750			
0.9107	58286.76	3.1170	3.1170	-0.1057	26.89	0.90	-0.750			
0.9110	58307.02	3.1140	3.1140	-0.1041	26.90	0.91	-0.750			
0.9114	58327.06	3.1110	3.1110	-0.1028	26.90	0.91	-0.750			
0.9117	58346.42	3.1080	3.1082	-0.1020	26.90	0.91	-0.750			
0.9120	58365.93	3.1050	3.1048	-0.1012	26.91	0.92	-0.750			
0.9123	58385.05	3.1020	3.1019	-0.1006	26.91	0.92	-0.750			
0.9126	58404.33	3.0990	3.0990	-0.1003	26.91	0.92	-0.750			
0.9129	58423.27	3.0960	3.0960	-0.1001	26.92	0.93	-0.750			
0.9132	58442.53	3.0930	3.0931	-0.1005	26.92	0.93	-0.750			
0.9135	58462.22	3.0900	3.0899	-0.1003	26.92	0.93	-0.750			
0.9138	58481.42	3.0870	3.0870	-0.0997	26.93	0.94	-0.750			
0.9141	58500.59	3.0840	3.0841	-0.0991	26.93	0.94	-0.750			
0.9144	58519.54	3.0810	3.0810	-0.0983	26.93	0.94	-0.750			
0.9147	58538.19	3.0780	3.0780	-0.0982	26.94	0.95	-0.750			
0.9150	58557.01	3.0750	3.0750	-0.0979	26.94	0.95	-0.750			
0.9152	58575.71	3.0720	3.0720	-0.0968	26.95	0.96	-0.750			
0.9155	58594.27	3.0690	3.0688	-0.0965	26.95	0.96	-0.750			
0.9158	58612.82	3.0660	3.0661	-0.0961	26.95	0.96	-0.750			
0.9161	58631.40	3.0630	3.0631	-0.0958	26.96	0.97	-0.750			
0.9164	58649.68	3.0600	3.0600	-0.0954	26.96	0.97	-0.750			
0.9167	58668.01	3.0570	3.0569	-0.0950	26.97	0.98	-0.750			
0.9170	58686.23	3.0540	3.0540	-0.0942	26.97	0.98	-0.750			
0.9173	58704.06	3.0510	3.0510	-0.0933	26.98	0.99	-0.750			
0.9175	58721.97	3.0480	3.0479	-0.0927	26.98	0.99	-0.750			
0.9178	58739.94	3.0450	3.0451	-0.0925	26.99	1.00	-0.750			
0.9181	58757.51	3.0420	3.0420	-0.0920	26.99	1.00	-0.750			
0.9184	58775.03	3.0390	3.0388	-0.0913	27.00	1.01	-0.750			
0.9186	58792.46	3.0360	3.0360	-0.0910	27.00	1.01	-0.750			
0.9189	58809.72	3.0330	3.0330	-0.0904	27.00	1.01	-0.750			
0.9192	58827.04	3.0300	3.0301	-0.0904	27.01	1.02	-0.750			
0.9194	58844.41	3.0270	3.0270	-0.0904	27.01	1.02	-0.750			
0.9197	58862.04	3.0240	3.0241	-0.0895	27.02	1.03	-0.750			
0.9200	58879.35	3.0210	3.0209	-0.0892	27.02	1.03	-0.750			
0.9203	58896.39	3.0180	3.0180	-0.0883	27.03	1.04	-0.750			
0.9205	58913.40	3.0150	3.0151	-0.0876	27.03	1.04	-0.750			
0.9208	58930.12	3.0120	3.0121	-0.0865	27.03	1.04	-0.750			
0.9210	58946.72	3.0090	3.0088	-0.0853	27.04	1.05	-0.750			
0.9213	58962.97	3.0060	3.0060	-0.0839	27.04	1.05	-0.751			
0.9215	58979.02	3.0030	3.0030	-0.0864	27.05	1.06	-0.751			
