Ah_balance (normalized)	Ah_balance (mAh)	Voltage - fit (V)	Voltage -  interpolate (V)	dQ/dV (1/V)	Temperature (°C)	Temperature - diff (°C)	Current (C)	R_DC 0ms (mOhm)	R_DC 50ms (mOhm)	R_DC 50 ms PEC (mOhm)
0.0002	15.31	4.1650	4.1644	-0.1037	25.94	0.01	-0.750			
0.0006	39.28	4.1620	4.1620	-0.1503	25.94	0.01	-0.750			
0.0012	74.40	4.1590	4.1590	-0.2004	25.94	0.01	-0.750			
0.0018	118.07	4.1560	4.1559	-0.2446	25.94	0.01	-0.750			
0.0026	169.53	4.1530	4.1530	-0.2865	25.93	0.00	-0.750			
0.0036	228.66	4.1500	4.1503	-0.3273	25.93	0.00	-0.750			
0.0046	296.59	4.1470	4.1470	-0.3667	25.93	-0.00	-0.750			
0.0058	371.16	4.1440	4.1440	-0.4035	25.92	-0.01	-0.750			
0.0071	452.08	4.1410	4.1410	-0.4385	25.92	-0.01	-0.750			
0.0085	541.04	4.1380	4.1380	-0.4703	25.91	-0.02	-0.750			
0.0099	634.43	4.1350	4.1350	-0.4991	25.91	-0.02	-0.750			
0.0115	734.62	4.1320	4.1319	-0.5247	25.91	-0.02	-0.750			
0.0131	837.99	4.1290	4.1290	-0.5463	25.90	-0.03	-0.750			
0.0148	944.97	4.1260	4.1260	-0.5677	25.89	-0.04	-0.750			
0.0165	1056.19	4.1230	4.1230	-0.5870	25.89	-0.04	-0.750			
0.0183	1171.46	4.1200	4.1200	-0.6020	25.89	-0.04	-0.750			
0.0202	1289.85	4.1170	4.1170	-0.6158	25.88	-0.05	-0.750			
0.0220	1408.41	4.1140	4.1141	-0.6298	25.88	-0.05	-0.750			
0.0239	1531.67	4.1110	4.1110	-0.6432	25.88	-0.05	-0.750			
0.0259	1657.07	4.1080	4.1078	-0.6484	25.87	-0.06	-0.750			
0.0278	1782.07	4.1050	4.1050	-0.6562	25.87	-0.06	-0.750			
0.0298	1908.98	4.1020	4.1020	-0.6650	25.87	-0.06	-0.750			
0.0318	2038.20	4.0990	4.0990	-0.6752	25.86	-0.07	-0.750			
0.0339	2167.36	4.0960	4.0958	-0.6844	25.86	-0.07	-0.750			
0.0359	2297.96	4.0930	4.0930	-0.6845	25.86	-0.07	-0.750			
0.0380	2432.38	4.0900	4.0900	-0.6948	25.86	-0.07	-0.750			
0.0401	2566.73	4.0870	4.0870	-0.7006	25.85	-0.08	-0.750			
0.0422	2702.75	4.0840	4.0839	-0.7027	25.85	-0.08	-0.750			
0.0443	2836.99	4.0810	4.0810	-0.7032	25.85	-0.08	-0.750			
0.0464	2971.32	4.0780	4.0780	-0.7102	25.85	-0.08	-0.750			
0.0486	3107.92	4.0750	4.0750	-0.7113	25.85	-0.08	-0.750			
0.0507	3246.68	4.0720	4.0720	-0.7140	25.85	-0.08	-0.750			
0.0529	3383.26	4.0690	4.0690	-0.7158	25.85	-0.08	-0.750			
0.0550	3520.50	4.0660	4.0661	-0.7192	25.85	-0.08	-0.750			
0.0572	3658.26	4.0630	4.0629	-0.7266	25.85	-0.08	-0.750			
0.0593	3797.72	4.0600	4.0600	-0.7319	25.85	-0.08	-0.750			
0.0615	3937.91	4.0570	4.0570	-0.7348	25.85	-0.08	-0.750			
0.0638	4083.94	4.0540	4.0540	-0.7374	25.85	-0.08	-0.750			
0.0660	4225.26	4.0510	4.0511	-0.7348	25.85	-0.08	-0.750			
0.0682	4364.43	4.0480	4.0481	-0.7339	25.85	-0.08	-0.750			
0.0704	4503.54	4.0450	4.0448	-0.7338	25.85	-0.08	-0.750			
0.0726	4645.95	4.0420	4.0419	-0.7391	25.85	-0.08	-0.750			
0.0748	4788.78	4.0390	4.0389	-0.7397	25.85	-0.08	-0.750			
0.0771	4933.25	4.0360	4.0360	-0.7427	25.85	-0.08	-0.750			
0.0793	5076.31	4.0330	4.0331	-0.7439	25.85	-0.08	-0.750			
0.0815	5216.34	4.0300	4.0299	-0.7453	25.85	-0.08	-0.750			
0.0837	5358.99	4.0270	4.0269	-0.7492	25.85	-0.08	-0.750			
0.0859	5500.02	4.0240	4.0240	-0.7490	25.85	-0.08	-0.750			
0.0883	5649.23	4.0210	4.0210	-0.7617	25.85	-0.08	-0.750			
0.0906	5797.29	4.0180	4.0180	-0.7648	25.85	-0.08	-0.750			
0.0929	5944.08	4.0150	4.0149	-0.7637	25.85	-0.08	-0.750			
0.0951	6088.82	4.0120	4.0120	-0.7630	25.86	-0.07	-0.750			
0.0974	6235.38	4.0090	4.0090	-0.7627	25.86	-0.07	-0.750			
0.0997	6382.13	4.0060	4.0060	-0.7641	25.86	-0.07	-0.750			
0.1020	6530.12	4.0030	4.0029	-0.7653	25.87	-0.06	-0.750			
0.1043	6676.93	4.0000	4.0001	-0.7656	25.87	-0.06	-0.750			
0.1066	6822.65	3.9970	3.9970	-0.7706	25.87	-0.06	-0.750			
0.1089	6971.13	3.9940	3.9940	-0.7719	25.87	-0.06	-0.750			
0.1112	7118.51	3.9910	3.9909	-0.7735	25.87	-0.06	-0.750			
0.1136	7268.84	3.9880	3.9880	-0.7797	25.87	-0.06	-0.750			
0.1159	7418.87	3.9850	3.9851	-0.7849	25.87	-0.06	-0.750			
0.1183	7571.02	3.9820	3.9819	-0.7825	25.87	-0.06	-0.750			
0.1206	7721.29	3.9790	3.9790	-0.7834	25.88	-0.05	-0.750			
0.1230	7870.87	3.9760	3.9760	-0.7840	25.88	-0.05	-0.750			
0.1253	8021.91	3.9730	3.9729	-0.7879	25.88	-0.05	-0.750			
0.1277	8172.70	3.9700	3.9699	-0.7857	25.89	-0.04	-0.750			
0.1301	8323.26	3.9670	3.9670	-0.7885	25.89	-0.04	-0.750			
0.1324	8473.60	3.9640	3.9641	-0.7960	25.89	-0.04	-0.750			
0.1348	8629.32	3.9610	3.9609	-0.7984	25.89	-0.04	-0.750			
0.1372	8782.20	3.9580	3.9580	-0.7981	25.89	-0.04	-0.750			
0.1396	8937.06	3.9550	3.9550	-0.7961	25.89	-0.04	-0.750			
0.1420	9090.43	3.9520	3.9521	-0.7977	25.89	-0.04	-0.750			
0.1444	9242.69	3.9490	3.9489	-0.8028	25.90	-0.03	-0.750			
0.1468	9396.30	3.9460	3.9460	-0.7962	25.90	-0.03	-0.750			
0.1492	9546.44	3.9430	3.9429	-0.8005	25.90	-0.03	-0.750			
0.1516	9702.83	3.9400	3.9401	-0.8091	25.91	-0.02	-0.750			
0.1540	9859.11	3.9370	3.9370	-0.8103	25.91	-0.02	-0.750			
0.1565	10015.33	3.9340	3.9340	-0.8140	25.91	-0.02	-0.750			
0.1589	10171.22	3.9310	3.9311	-0.8143	25.91	-0.02	-0.750			
0.1614	10327.90	3.9280	3.9279	-0.8145	25.91	-0.02	-0.750			
0.1638	10486.27	3.9250	3.9250	-0.8199	25.91	-0.02	-0.750			
0.1663	10640.91	3.9220	3.9221	-0.8187	25.91	-0.02	-0.750			
0.1687	10799.58	3.9190	3.9189	-0.8241	25.91	-0.02	-0.750			
0.1712	10957.82	3.9160	3.9160	-0.8320	25.92	-0.01	-0.750			
0.1737	11119.21	3.9130	3.9130	-0.8277	25.92	-0.01	-0.750			
0.1762	11279.97	3.9100	3.9100	-0.8306	25.93	-0.00	-0.750			
0.1787	11438.27	3.9070	3.9073	-0.8321	25.93	0.00	-0.750			
0.1812	11596.54	3.9040	3.9040	-0.8293	25.93	0.00	-0.750			
0.1837	11754.49	3.9010	3.9009	-0.8348	25.93	0.00	-0.750			
0.1862	11915.74	3.8980	3.8979	-0.8339	25.93	0.00	-0.750			
0.1887	12076.74	3.8950	3.8951	-0.8423	25.93	0.00	-0.750			
0.1913	12241.08	3.8920	3.8922	-0.8433	25.93	0.00	-0.750			
0.1938	12402.82	3.8890	3.8889	-0.8412	25.94	0.01	-0.750			
0.1963	12562.90	3.8860	3.8859	-0.8435	25.95	0.02	-0.750			
0.1988	12724.14	3.8830	3.8830	-0.8431	25.95	0.02	-0.750			
0.2014	12888.21	3.8800	3.8798	-0.8440	25.96	0.03	-0.750			
0.2039	13049.94	3.8770	3.8772	-0.8443	25.97	0.04	-0.750			
0.2064	13211.10	3.8740	3.8741	-0.8407	25.97	0.04	-0.750			
0.2089	13372.71	3.8710	3.8710	-0.8527	25.97	0.04	-0.750			
0.2115	13536.17	3.8680	3.8679	-0.8488	25.97	0.04	-0.750			
0.2141	13699.93	3.8650	3.8650	-0.8534	25.97	0.04	-0.750			
0.2166	13864.97	3.8620	3.8623	-0.8532	25.97	0.04	-0.750			
0.2192	14031.78	3.8590	3.8588	-0.8544	25.97	0.04	-0.750			
0.2218	14194.86	3.8560	3.8560	-0.8568	25.98	0.05	-0.750			
0.2244	14358.76	3.8530	3.8529	-0.8503	25.98	0.05	-0.750			
0.2269	14522.30	3.8500	3.8499	-0.8515	25.99	0.06	-0.750			
0.2295	14686.33	3.8470	3.8472	-0.8524	25.99	0.06	-0.750			
0.2320	14848.60	3.8440	3.8439	-0.8506	25.99	0.06	-0.750			
0.2346	15011.50	3.8410	3.8409	-0.8515	25.99	0.06	-0.750			
0.2371	15172.47	3.8380	3.8380	-0.8442	26.00	0.07	-0.750			
0.2397	15337.71	3.8350	3.8350	-0.8522	26.00	0.07	-0.750			
0.2422	15502.78	3.8320	3.8320	-0.8558	26.00	0.07	-0.750			
0.2448	15665.38	3.8290	3.8290	-0.8582	26.00	0.07	-0.750			
0.2473	15829.89	3.8260	3.8259	-0.8600	26.00	0.07	-0.750			
0.2499	15995.49	3.8230	3.8230	-0.8618	26.01	0.08	-0.750			
0.2525	16163.04	3.8200	3.8200	-0.8598	26.01	0.08	-0.750			
0.2552	16330.34	3.8170	3.8170	-0.8587	26.01	0.08	-0.750			
0.2577	16493.86	3.8140	3.8140	-0.8598	26.02	0.09	-0.750			
0.2603	16657.36	3.8110	3.8109	-0.8556	26.02	0.09	-0.750			
0.2628	16821.90	3.8080	3.8079	-0.8487	26.02	0.09	-0.750			
0.2654	16985.11	3.8050	3.8049	-0.8480	26.03	0.10	-0.750			
0.2679	17148.07	3.8020	3.8020	-0.8493	26.03	0.10	-0.750			
0.2705	17310.54	3.7990	3.7990	-0.8511	26.03	0.10	-0.750			
0.2730	17472.62	3.7960	3.7959	-0.8488	26.03	0.10	-0.750			
0.2755	17634.15	3.7930	3.7931	-0.8446	26.03	0.10	-0.750			
0.2781	17799.78	3.7900	3.7900	-0.8498	26.03	0.10	-0.750			
0.2807	17964.07	3.7870	3.7871	-0.8458	26.03	0.10	-0.750			
0.2832	18125.37	3.7840	3.7840	-0.8428	26.04	0.11	-0.750			
0.2857	18286.13	3.7810	3.7811	-0.8401	26.04	0.11	-0.750			
0.2882	18446.01	3.7780	3.7779	-0.8409	26.05	0.12	-0.750			
0.2908	18608.60	3.7750	3.7750	-0.8377	26.05	0.12	-0.750			
0.2933	18769.77	3.7720	3.7720	-0.8342	26.05	0.12	-0.750			
0.2958	18930.84	3.7690	3.7690	-0.8380	26.06	0.13	-0.750			
0.2983	19092.59	3.7660	3.7660	-0.8325	26.06	0.13	-0.750			
0.3008	19249.88	3.7630	3.7629	-0.8291	26.07	0.14	-0.750			
0.3033	19408.79	3.7600	3.7601	-0.8305	26.07	0.14	-0.750			
0.3057	19567.87	3.7570	3.7569	-0.8297	26.07	0.14	-0.750			
0.3083	19729.40	3.7540	3.7540	-0.8330	26.07	0.14	-0.750			
0.3107	19887.48	3.7510	3.7510	-0.8308	26.07	0.14	-0.750			
0.3132	20046.30	3.7480	3.7479	-0.8279	26.07	0.14	-0.750			
0.3157	20207.17	3.7450	3.7451	-0.8348	26.07	0.14	-0.750			
0.3182	20365.80	3.7420	3.7419	-0.8393	26.07	0.14	-0.750			
0.3207	20527.73	3.7390	3.7390	-0.8437	26.08	0.15	-0.750			
0.3233	20691.07	3.7360	3.7359	-0.8502	26.08	0.15	-0.750			
0.3258	20853.10	3.7330	3.7331	-0.8592	26.09	0.16	-0.750			
0.3284	21019.59	3.7300	3.7301	-0.8674	26.09	0.16	-0.750			
0.3310	21186.91	3.7270	3.7269	-0.8781	26.09	0.16	-0.750			
0.3337	21355.32	3.7240	3.7239	-0.8840	26.09	0.16	-0.750			
0.3363	21525.97	3.7210	3.7211	-0.8942	26.09	0.16	-0.750			
0.3390	21699.02	3.7180	3.7180	-0.9070	26.09	0.16	-0.750			
0.3418	21874.18	3.7150	3.7151	-0.9230	26.09	0.16	-0.750			
0.3446	22051.63	3.7120	3.7120	-0.9422	26.09	0.16	-0.750			
0.3474	22234.94	3.7090	3.7090	-0.9556	26.10	0.17	-0.750			
0.3503	22420.51	3.7060	3.7060	-0.9686	26.10	0.17	-0.750			
0.3533	22609.30	3.7030	3.7031	-0.9834	26.10	0.17	-0.750			
0.3562	22799.21	3.7000	3.7000	-0.9959	26.10	0.17	-0.750			
0.3592	22990.38	3.6970	3.6970	-1.0077	26.10	0.17	-0.750			
0.3622	23183.25	3.6940	3.6940	-1.0269	26.10	0.17	-0.750			
0.3653	23380.64	3.6910	3.6910	-1.0439	26.10	0.17	-0.750			
0.3685	23585.72	3.6880	3.6879	-1.0764	26.10	0.17	-0.750			
0.3718	23793.67	3.6850	3.6851	-1.0966	26.10	0.17	-0.750			
0.3751	24007.65	3.6820	3.6819	-1.1179	26.09	0.16	-0.750			
0.3785	24222.62	3.6790	3.6793	-1.1491	26.09	0.16	-0.750			
0.3820	24447.18	3.6760	3.6759	-1.1681	26.08	0.15	-0.750			
0.3855	24673.55	3.6730	3.6731	-1.1880	26.08	0.15	-0.750			
0.3891	24902.54	3.6700	3.6699	-1.2206	26.07	0.14	-0.750			
0.3928	25141.66	3.6670	3.6670	-1.2511	26.07	0.14	-0.750			
0.3966	25383.37	3.6640	3.6639	-1.2764	26.06	0.13	-0.750			
0.4005	25629.77	3.6610	3.6611	-1.3028	26.05	0.12	-0.750			
0.4044	25879.86	3.6580	3.6583	-1.3350	26.04	0.11	-0.750			
0.4085	26145.62	3.6550	3.6549	-1.3849	26.03	0.10	-0.750			
0.4127	26413.01	3.6520	3.6519	-1.4274	26.03	0.10	-0.750			
0.4170	26691.12	3.6490	3.6491	-1.4537	26.02	0.09	-0.750			
0.4216	26979.38	3.6460	3.6462	-1.4828	26.01	0.08	-0.750			
0.4261	27268.21	3.6430	3.6430	-1.5029	26.00	0.07	-0.750			
0.4306	27556.74	3.6400	3.6398	-1.5260	25.99	0.06	-0.750			
0.4352	27849.78	3.6370	3.6371	-1.5534	25.98	0.05	-0.750			
0.4398	28147.52	3.6340	3.6343	-1.5826	25.98	0.05	-0.750			
0.4445	28449.15	3.6310	3.6308	-1.6228	25.97	0.04	-0.750			
0.4496	28771.78	3.6280	3.6278	-1.6587	25.96	0.03	-0.750			
0.4546	29096.03	3.6250	3.6251	-1.6914	25.95	0.02	-0.750			
0.4598	29424.32	3.6220	3.6219	-1.7331	25.94	0.01	-0.750	0.405	0.501	
0.4650	29759.03	3.6190	3.6190	-1.7616	25.93	0.00	-0.750			
0.4703	30100.49	3.6160	3.6160	-1.8011	25.93	-0.00	-0.750			
0.4758	30448.16	3.6130	3.6128	-1.8256	25.92	-0.01	-0.750			
0.4813	30801.53	3.6100	3.6103	-1.8494	25.91	-0.02	-0.750			
0.4870	31165.45	3.6070	3.6069	-1.8964	25.90	-0.03	-0.750			
0.4927	31534.20	3.6040	3.6041	-1.9260	25.89	-0.04	-0.750			
0.4986	31908.19	3.6010	3.6009	-1.9674	25.88	-0.05	-0.750			
0.5045	32287.90	3.5980	3.5980	-2.0273	25.88	-0.05	-0.750			
0.5105	32674.66	3.5950	3.5952	-2.0736	25.87	-0.06	-0.750			
0.5169	33081.91	3.5920	3.5921	-2.1383	25.87	-0.06	-0.750			
0.5234	33498.69	3.5890	3.5888	-2.1866	25.86	-0.07	-0.750			
0.5301	33926.16	3.5860	3.5860	-2.2296	25.85	-0.08	-0.750			
0.5370	34369.90	3.5830	3.5831	-2.2603	25.85	-0.08	-0.750			
0.5438	34803.28	3.5800	3.5799	-2.2760	25.85	-0.08	-0.750			
0.5506	35241.37	3.5770	3.5769	-2.2928	25.84	-0.09	-0.750			
0.5576	35685.66	3.5740	3.5739	-2.2874	25.83	-0.10	-0.750			
0.5645	36127.85	3.5710	3.5712	-2.3059	25.82	-0.11	-0.750			
0.5714	36571.17	3.5680	3.5678	-2.3007	25.82	-0.11	-0.750			
0.5783	37012.93	3.5650	3.5647	-2.2957	25.82	-0.11	-0.750			
0.5852	37453.54	3.5620	3.5621	-2.2939	25.82	-0.11	-0.750			
0.5920	37889.92	3.5590	3.5591	-2.2921	25.82	-0.11	-0.750			
0.5989	38328.32	3.5560	3.5559	-2.2937	25.82	-0.11	-0.750			
0.6058	38771.11	3.5530	3.5531	-2.3187	25.82	-0.11	-0.750			
0.6128	39221.67	3.5500	3.5500	-2.3033	25.82	-0.11	-0.750			
0.6198	39668.67	3.5470	3.5469	-2.2977	25.83	-0.10	-0.750			
0.6267	40108.80	3.5440	3.5441	-2.2926	25.84	-0.09	-0.750			
0.6336	40553.50	3.5410	3.5408	-2.2682	25.84	-0.09	-0.750			
0.6404	40985.99	3.5380	3.5380	-2.2401	25.85	-0.08	-0.750			
0.6471	41411.32	3.5350	3.5352	-2.1954	25.85	-0.08	-0.750			
0.6537	41833.88	3.5320	3.5319	-2.1562	25.85	-0.08	-0.750			
0.6602	42250.24	3.5290	3.5291	-2.0986	25.87	-0.06	-0.750			
0.6663	42643.41	3.5260	3.5260	-2.0493	25.88	-0.05	-0.750			
0.6723	43029.96	3.5230	3.5229	-1.9981	25.88	-0.05	-0.750			
0.6783	43411.34	3.5200	3.5201	-1.9367	25.89	-0.04	-0.750			
0.6840	43778.79	3.5170	3.5170	-1.8912	25.91	-0.02	-0.750			
0.6896	44135.75	3.5140	3.5141	-1.8366	25.93	-0.00	-0.750			
0.6951	44484.29	3.5110	3.5110	-1.7737	25.94	0.01	-0.750			
0.7003	44821.13	3.5080	3.5081	-1.7148	25.94	0.01	-0.750			
0.7054	45143.67	3.5050	3.5050	-1.6452	25.96	0.03	-0.750			
0.7102	45455.79	3.5020	3.5021	-1.5882	25.97	0.04	-0.750			
0.7149	45754.83	3.4990	3.4989	-1.5379	25.99	0.06	-0.750			
0.7194	46040.90	3.4960	3.4959	-1.4779	26.00	0.07	-0.750			
0.7237	46318.34	3.4930	3.4929	-1.4288	26.01	0.08	-0.750			
0.7279	46588.17	3.4900	3.4901	-1.3867	26.03	0.10	-0.750			
0.7320	46847.69	3.4870	3.4870	-1.3379	26.05	0.12	-0.750			
0.7360	47105.26	3.4840	3.4839	-1.2979	26.07	0.14	-0.750			
0.7398	47349.13	3.4810	3.4811	-1.2512	26.08	0.15	-0.750			
0.7435	47582.17	3.4780	3.4779	-1.2075	26.10	0.17	-0.750			
0.7471	47812.70	3.4750	3.4749	-1.1689	26.12	0.19	-0.750			
0.7505	48034.48	3.4720	3.4719	-1.1179	26.14	0.21	-0.750			
0.7538	48243.10	3.4690	3.4692	-1.0735	26.15	0.22	-0.750			
0.7570	48445.85	3.4660	3.4660	-1.0378	26.16	0.23	-0.750			
0.7600	48641.14	3.4630	3.4630	-0.9991	26.17	0.24	-0.750			
0.7629	48823.27	3.4600	3.4599	-0.9700	26.18	0.25	-0.750			
0.7657	49007.36	3.4570	3.4571	-0.9532	26.19	0.26	-0.750			
0.7686	49187.21	3.4540	3.4539	-0.9379	26.20	0.27	-0.750			
0.7714	49367.36	3.4510	3.4510	-0.9299	26.22	0.29	-0.750			
0.7741	49541.76	3.4480	3.4481	-0.9176	26.23	0.30	-0.750			
0.7768	49714.02	3.4450	3.4450	-0.9214	26.24	0.31	-0.750			
0.7795	49890.58	3.4420	3.4420	-0.9308	26.25	0.32	-0.750			
0.7823	50067.19	3.4390	3.4390	-0.9580	26.26	0.33	-0.750			
0.7852	50252.80	3.4360	3.4360	-0.9850	26.27	0.34	-0.750			
0.7882	50445.22	3.4330	3.4329	-1.0166	26.28	0.35	-0.750			
0.7913	50644.78	3.4300	3.4303	-1.0534	26.29	0.36	-0.750			
0.7946	50851.30	3.4270	3.4270	-1.0816	26.30	0.37	-0.750			
0.7979	51062.90	3.4240	3.4239	-1.0973	26.31	0.38	-0.750			
0.8012	51277.51	3.4210	3.4210	-1.1029	26.31	0.38	-0.750			
0.8046	51492.22	3.4180	3.4181	-1.1129	26.32	0.39	-0.750			
0.8079	51708.17	3.4150	3.4151	-1.0976	26.33	0.40	-0.750			
0.8113	51920.56	3.4120	3.4119	-1.0773	26.34	0.41	-0.750			
0.8145	52126.25	3.4090	3.4090	-1.0422	26.35	0.42	-0.750			
0.8176	52324.71	3.4060	3.4059	-1.0120	26.35	0.42	-0.750			
0.8206	52515.96	3.4030	3.4031	-0.9811	26.36	0.43	-0.750			
0.8235	52702.74	3.4000	3.3999	-0.9407	26.37	0.44	-0.750			
0.8262	52876.75	3.3970	3.3969	-0.8997	26.38	0.45	-0.750			
0.8289	53048.08	3.3940	3.3942	-0.8692	26.39	0.46	-0.750			
0.8314	53210.28	3.3910	3.3909	-0.8333	26.40	0.47	-0.750			
0.8338	53366.37	3.3880	3.3879	-0.8017	26.41	0.48	-0.750			
0.8362	53514.84	3.3850	3.3850	-0.7667	26.42	0.49	-0.750			
0.8384	53660.78	3.3820	3.3820	-0.7437	26.43	0.50	-0.750			
0.8406	53801.41	3.3790	3.3789	-0.7153	26.44	0.51	-0.750			
0.8427	53934.69	3.3760	3.3759	-0.6831	26.45	0.52	-0.750			
0.8447	54063.72	3.3730	3.3730	-0.6542	26.45	0.52	-0.750			
0.8466	54184.64	3.3700	3.3700	-0.6312	26.46	0.53	-0.750			
0.8485	54303.43	3.3670	3.3670	-0.6057	26.46	0.53	-0.750			
0.8503	54417.33	3.3640	3.3639	-0.5835	26.47	0.54	-0.750			
0.8520	54526.99	3.3610	3.3610	-0.5605	26.47	0.54	-0.750			
0.8536	54633.27	3.3580	3.3584	-0.5392	26.48	0.55	-0.750			
0.8552	54735.19	3.3550	3.3550	-0.5169	26.49	0.56	-0.750			
0.8567	54831.52	3.3520	3.3520	-0.4964	26.50	0.57	-0.750			
0.8582	54923.73	3.3490	3.3489	-0.4723	26.50	0.57	-0.750			
0.8596	55012.64	3.3460	3.3460	-0.4562	26.51	0.58	-0.750			
0.8609	55097.24	3.3430	3.3430	-0.4386	26.52	0.59	-0.750			
0.8622	55179.97	3.3400	3.3400	-0.4232	26.52	0.59	-0.750			
0.8634	55259.93	3.3370	3.3369	-0.4067	26.53	0.60	-0.750			
0.8646	55336.56	3.3340	3.3340	-0.3908	26.53	0.60	-0.750			
0.8658	55410.25	3.3310	3.3310	-0.3723	26.54	0.61	-0.750			
0.8669	55480.30	3.3280	3.3280	-0.3598	26.54	0.61	-0.750			
0.8679	55546.78	3.3250	3.3250	-0.3440	26.55	0.62	-0.750			
0.8689	55610.00	3.3220	3.3220	-0.3305	26.55	0.62	-0.750			
0.8699	55672.86	3.3190	3.3189	-0.3200	26.56	0.63	-0.750			
0.8708	55733.36	3.3160	3.3160	-0.3103	26.56	0.63	-0.750			
0.8717	55791.91	3.3130	3.3130	-0.3002	26.57	0.64	-0.750			
0.8726	55849.11	3.3100	3.3101	-0.2917	26.57	0.64	-0.750			
0.8735	55903.32	3.3070	3.3069	-0.2794	26.58	0.65	-0.750			
0.8743	55955.91	3.3040	3.3040	-0.2698	26.58	0.65	-0.750			
0.8751	56006.85	3.3010	3.3010	-0.2602	26.58	0.65	-0.750			
0.8759	56056.01	3.2980	3.2980	-0.2539	26.59	0.66	-0.750			
0.8766	56103.27	3.2950	3.2950	-0.2458	26.59	0.66	-0.750			
0.8773	56149.84	3.2920	3.2919	-0.2385	26.59	0.66	-0.750			
0.8780	56194.92	3.2890	3.2889	-0.2318	26.60	0.67	-0.750			
0.8787	56238.90	3.2860	3.2862	-0.2256	26.60	0.67	-0.750			
0.8794	56281.43	3.2830	3.2831	-0.2209	26.61	0.68	-0.750			
0.8801	56323.27	3.2800	3.2799	-0.2154	26.61	0.68	-0.750			
0.8807	56363.65	3.2770	3.2769	-0.2087	26.61	0.68	-0.750			
0.8813	56403.32	3.2740	3.2740	-0.2046	26.62	0.69	-0.750			
0.8819	56442.32	3.2710	3.2711	-0.2009	26.62	0.69	-0.750			
0.8825	56480.63	3.2680	3.2680	-0.1973	26.63	0.70	-0.750			
0.8831	56517.86	3.2650	3.2650	-0.1931	26.63	0.70	-0.750			
0.8837	56554.58	3.2620	3.2619	-0.1893	26.64	0.71	-0.750			
0.8842	56590.16	3.2590	3.2590	-0.1855	26.64	0.71	-0.750			
0.8848	56625.81	3.2560	3.2560	-0.1823	26.64	0.71	-0.750			
0.8853	56660.40	3.2530	3.2530	-0.1791	26.65	0.72	-0.750			
0.8859	56694.44	3.2500	3.2500	-0.1755	26.65	0.72	-0.750			
0.8864	56727.56	3.2470	3.2470	-0.1726	26.66	0.73	-0.750			
0.8869	56760.44	3.2440	3.2440	-0.1693	26.66	0.73	-0.750			
0.8874	56792.66	3.2410	3.2409	-0.1661	26.66	0.73	-0.750			
0.8879	56824.27	3.2380	3.2381	-0.1631	26.67	0.74	-0.750			
0.8884	56855.13	3.2350	3.2351	-0.1612	26.67	0.74	-0.750			
0.8888	56885.77	3.2320	3.2320	-0.1591	26.67	0.74	-0.750			
0.8893	56915.86	3.2290	3.2289	-0.1566	26.68	0.75	-0.750			
0.8898	56945.89	3.2260	3.2260	-0.1544	26.68	0.75	-0.750			
0.8902	56975.22	3.2230	3.2231	-0.1525	26.68	0.75	-0.750			
0.8907	57004.44	3.2200	3.2200	-0.1514	26.69	0.76	-0.750			
0.8911	57033.34	3.2170	3.2171	-0.1496	26.69	0.76	-0.750			
0.8916	57061.90	3.2140	3.2140	-0.1479	26.69	0.76	-0.750			
0.8920	57089.72	3.2110	3.2110	-0.1463	26.70	0.77	-0.750			
0.8925	57118.01	3.2080	3.2081	-0.1447	26.70	0.77	-0.750			
0.8929	57145.65	3.2050	3.2049	-0.1431	26.71	0.78	-0.750			
0.8933	57173.28	3.2020	3.2020	-0.1413	26.71	0.78	-0.750			
0.8938	57200.21	3.1990	3.1991	-0.1391	26.72	0.79	-0.750			
0.8942	57226.32	3.1960	3.1960	-0.1373	26.72	0.79	-0.750			
0.8946	57252.55	3.1930	3.1930	-0.1358	26.72	0.79	-0.750			
0.8950	57278.34	3.1900	3.1900	-0.1344	26.73	0.80	-0.750			
0.8954	57303.73	3.1870	3.1870	-0.1327	26.73	0.80	-0.750			
0.8958	57329.35	3.1840	3.1840	-0.1324	26.74	0.81	-0.750			
0.8962	57354.74	3.1810	3.1810	-0.1310	26.74	0.81	-0.750			
0.8966	57379.82	3.1780	3.1780	-0.1300	26.74	0.81	-0.750			
0.8969	57404.74	3.1750	3.1750	-0.1289	26.75	0.82	-0.750			
0.8973	57429.07	3.1720	3.1721	-0.1271	26.75	0.82	-0.750			
0.8977	57453.39	3.1690	3.1690	-0.1262	26.76	0.83	-0.750			
0.8981	57477.61	3.1660	3.1659	-0.1255	26.76	0.83	-0.750			
0.8985	57501.54	3.1630	3.1630	-0.1244	26.76	0.83	-0.750			
0.8988	57525.35	3.1600	3.1600	-0.1237	26.77	0.84	-0.750			
0.8992	57549.08	3.1570	3.1570	-0.1229	26.77	0.84	-0.750			
0.8996	57572.58	3.1540	3.1541	-0.1219	26.77	0.84	-0.750			
0.8999	57595.91	3.1510	3.1509	-0.1209	26.78	0.85	-0.750			
0.9003	57619.04	3.1480	3.1480	-0.1200	26.78	0.85	-0.750			
0.9007	57642.11	3.1450	3.1451	-0.1187	26.79	0.86	-0.750			
0.9010	57664.86	3.1420	3.1419	-0.1175	26.79	0.86	-0.750			
0.9014	57687.27	3.1390	3.1390	-0.1162	26.79	0.86	-0.750			
0.9017	57709.45	3.1360	3.1360	-0.1149	26.80	0.87	-0.750			
0.9020	57731.14	3.1330	3.1329	-0.1148	26.80	0.87	-0.750			
0.9024	57752.89	3.1300	3.1300	-0.1141	26.81	0.88	-0.750			
0.9027	57774.86	3.1270	3.1269	-0.1127	26.81	0.88	-0.750			
0.9031	57796.44	3.1240	3.1239	-0.1121	26.81	0.88	-0.750			
0.9034	57818.00	3.1210	3.1211	-0.1119	26.82	0.89	-0.750			
0.9037	57839.41	3.1180	3.1182	-0.1111	26.82	0.89	-0.750			
0.9041	57860.81	3.1150	3.1149	-0.1105	26.83	0.90	-0.750			
0.9044	57881.91	3.1120	3.1119	-0.1094	26.83	0.90	-0.750			
0.9047	57902.41	3.1090	3.1091	-0.1083	26.84	0.91	-0.750			
0.9050	57923.19	3.1060	3.1060	-0.1082	26.84	0.91	-0.750			
0.9054	57944.19	3.1030	3.1030	-0.1081	26.85	0.92	-0.750			
0.9057	57964.87	3.1000	3.0999	-0.1074	26.85	0.92	-0.750			
0.9060	57985.51	3.0970	3.0971	-0.1061	26.86	0.93	-0.750			
0.9063	58005.79	3.0940	3.0940	-0.1052	26.86	0.93	-0.750			
0.9067	58025.90	3.0910	3.0912	-0.1049	26.87	0.94	-0.750			
0.9070	58045.96	3.0880	3.0880	-0.1041	26.87	0.94	-0.750			
0.9073	58065.70	3.0850	3.0849	-0.1029	26.88	0.95	-0.750			
0.9076	58085.41	3.0820	3.0819	-0.1024	26.88	0.95	-0.750			
0.9079	58104.91	3.0790	3.0790	-0.1018	26.88	0.95	-0.750			
0.9082	58124.44	3.0760	3.0761	-0.1016	26.89	0.96	-0.750			
0.9085	58143.99	3.0730	3.0730	-0.1008	26.89	0.96	-0.750			
0.9088	58163.51	3.0700	3.0699	-0.1004	26.90	0.97	-0.750			
0.9091	58182.64	3.0670	3.0670	-0.1000	26.90	0.97	-0.750			
0.9094	58201.60	3.0640	3.0641	-0.0993	26.91	0.98	-0.750			
0.9097	58220.62	3.0610	3.0612	-0.0991	26.91	0.98	-0.750			
0.9100	58239.62	3.0580	3.0579	-0.0988	26.92	0.99	-0.750			
0.9103	58258.66	3.0550	3.0550	-0.0979	26.92	0.99	-0.750			
0.9106	58277.40	3.0520	3.0520	-0.0973	26.92	0.99	-0.750			
0.9109	58295.97	3.0490	3.0491	-0.0969	26.93	1.00	-0.750			
0.9112	58314.69	3.0460	3.0461	-0.0965	26.93	1.00	-0.750			
0.9115	58333.24	3.0430	3.0429	-0.0953	26.94	1.01	-0.750			
0.9117	58351.45	3.0400	3.0399	-0.0944	26.94	1.01	-0.750			
0.9120	58369.30	3.0370	3.0370	-0.0937	26.95	1.02	-0.750			
0.9123	58387.24	3.0340	3.0342	-0.0931	26.95	1.02	-0.750			
0.9126	58404.90	3.0310	3.0309	-0.0931	26.95	1.02	-0.750			
0.9129	58422.77	3.0280	3.0279	-0.0930	26.96	1.03	-0.750			
0.9131	58440.57	3.0250	3.0250	-0.0920	26.96	1.03	-0.750			
0.9134	58458.22	3.0220	3.0220	-0.0918	26.97	1.04	-0.750			
0.9137	58475.95	3.0190	3.0192	-0.0911	26.97	1.04	-0.750			
0.9140	58493.80	3.0160	3.0160	-0.0908	26.98	1.05	-0.750			
0.9142	58511.11	3.0130	3.0130	-0.0900	26.98	1.05	-0.750			
0.9145	58528.36	3.0100	3.0100	-0.0890	26.98	1.05	-0.750			
0.9148	58545.33	3.0070	3.0071	-0.0879	26.99	1.06	-0.751			
0.9150	58561.92	3.0040	3.0039	-0.0878	26.99	1.06	-0.751			
0.9153	58578.77	3.0010	3.0010	-0.0876	27.00	1.07	-0.751			
