Ah_balance (normalized)	Ah_balance (mAh)	Voltage - fit (V)	Voltage -  interpolate (V)	dQ/dV (1/V)	Temperature (°C)	Temperature - diff (°C)	Current (C)	R_DC 0ms (mOhm)	R_DC 50ms (mOhm)	R_DC 50 ms PEC (mOhm)
0.0003	19.96	4.1610	4.1608	-0.1293	25.92	0.01	-0.750			
0.0008	48.61	4.1580	4.1580	-0.1664	25.92	0.01	-0.750			
0.0013	83.44	4.1550	4.1550	-0.2019	25.91	0.00	-0.750			
0.0020	126.13	4.1520	4.1521	-0.2375	25.91	0.00	-0.750			
0.0027	174.88	4.1490	4.1490	-0.2767	25.91	-0.00	-0.750			
0.0036	231.23	4.1460	4.1459	-0.3153	25.91	-0.00	-0.750			
0.0046	296.14	4.1430	4.1429	-0.3482	25.90	-0.01	-0.750			
0.0057	366.99	4.1400	4.1401	-0.3829	25.90	-0.01	-0.750			
0.0069	444.47	4.1370	4.1370	-0.4142	25.90	-0.01	-0.750			
0.0082	527.35	4.1340	4.1339	-0.4425	25.89	-0.02	-0.750			
0.0096	614.94	4.1310	4.1310	-0.4716	25.89	-0.02	-0.750			
0.0111	708.68	4.1280	4.1280	-0.4914	25.88	-0.03	-0.750			
0.0126	806.51	4.1250	4.1250	-0.5142	25.88	-0.03	-0.750			
0.0142	908.36	4.1220	4.1220	-0.5326	25.87	-0.04	-0.750			
0.0158	1012.01	4.1190	4.1190	-0.5494	25.87	-0.04	-0.750			
0.0175	1120.00	4.1160	4.1160	-0.5619	25.87	-0.04	-0.750			
0.0192	1228.33	4.1130	4.1129	-0.5779	25.86	-0.05	-0.750			
0.0209	1338.97	4.1100	4.1101	-0.5962	25.86	-0.05	-0.750			
0.0228	1458.12	4.1070	4.1070	-0.6093	25.86	-0.05	-0.750			
0.0246	1577.31	4.1040	4.1038	-0.6178	25.85	-0.06	-0.750			
0.0265	1697.30	4.1010	4.1009	-0.6261	25.85	-0.06	-0.750			
0.0284	1818.22	4.0980	4.0980	-0.6334	25.85	-0.06	-0.750			
0.0303	1940.81	4.0950	4.0949	-0.6414	25.84	-0.07	-0.750			
0.0322	2062.45	4.0920	4.0920	-0.6457	25.84	-0.07	-0.750			
0.0342	2187.30	4.0890	4.0890	-0.6481	25.83	-0.08	-0.750			
0.0362	2315.09	4.0860	4.0861	-0.6579	25.83	-0.08	-0.750			
0.0382	2442.39	4.0830	4.0830	-0.6618	25.82	-0.09	-0.750			
0.0401	2568.81	4.0800	4.0800	-0.6649	25.82	-0.09	-0.750			
0.0421	2696.09	4.0770	4.0770	-0.6677	25.82	-0.09	-0.750			
0.0441	2823.85	4.0740	4.0740	-0.6752	25.82	-0.09	-0.750			
0.0462	2954.43	4.0710	4.0710	-0.6805	25.82	-0.09	-0.750			
0.0482	3086.96	4.0680	4.0680	-0.6873	25.81	-0.10	-0.750			
0.0503	3219.55	4.0650	4.0650	-0.6896	25.81	-0.10	-0.750			
0.0524	3354.42	4.0620	4.0620	-0.6876	25.81	-0.10	-0.750			
0.0545	3486.18	4.0590	4.0589	-0.6835	25.81	-0.10	-0.750			
0.0565	3617.02	4.0560	4.0561	-0.6804	25.81	-0.10	-0.750			
0.0585	3745.16	4.0530	4.0531	-0.6843	25.81	-0.10	-0.750			
0.0606	3875.60	4.0500	4.0498	-0.6888	25.81	-0.10	-0.750			
0.0626	4008.34	4.0470	4.0469	-0.6939	25.81	-0.10	-0.750			
0.0647	4142.72	4.0440	4.0440	-0.7015	25.81	-0.10	-0.750			
0.0669	4280.07	4.0410	4.0410	-0.7049	25.81	-0.10	-0.750			
0.0690	4416.58	4.0380	4.0381	-0.7057	25.81	-0.10	-0.750			
0.0711	4550.41	4.0350	4.0350	-0.7090	25.81	-0.10	-0.750			
0.0732	4685.65	4.0320	4.0320	-0.7098	25.81	-0.10	-0.750			
0.0754	4822.42	4.0290	4.0289	-0.7121	25.81	-0.10	-0.750			
0.0775	4958.94	4.0260	4.0261	-0.7187	25.81	-0.10	-0.750			
0.0797	5098.48	4.0230	4.0230	-0.7232	25.81	-0.10	-0.750			
0.0819	5238.47	4.0200	4.0200	-0.7258	25.81	-0.10	-0.750			
0.0841	5379.80	4.0170	4.0170	-0.7281	25.82	-0.09	-0.750			
0.0862	5519.67	4.0140	4.0140	-0.7289	25.82	-0.09	-0.750			
0.0885	5661.03	4.0110	4.0109	-0.7262	25.82	-0.09	-0.750			
0.0906	5799.09	4.0080	4.0081	-0.7224	25.82	-0.09	-0.750			
0.0927	5935.54	4.0050	4.0050	-0.7231	25.82	-0.09	-0.750			
0.0949	6073.36	4.0020	4.0020	-0.7355	25.82	-0.09	-0.750			
0.0971	6213.81	3.9990	3.9989	-0.7364	25.82	-0.09	-0.750			
0.0994	6360.04	3.9960	3.9959	-0.7457	25.82	-0.09	-0.750			
0.1016	6504.72	3.9930	3.9930	-0.7477	25.82	-0.09	-0.750			
0.1039	6649.21	3.9900	3.9900	-0.7510	25.82	-0.09	-0.750			
0.1061	6792.30	3.9870	3.9869	-0.7486	25.83	-0.08	-0.750			
0.1084	6935.23	3.9840	3.9840	-0.7452	25.83	-0.08	-0.750			
0.1106	7076.09	3.9810	3.9810	-0.7373	25.83	-0.08	-0.750			
0.1128	7220.93	3.9780	3.9780	-0.7474	25.84	-0.07	-0.750			
0.1151	7363.49	3.9750	3.9750	-0.7480	25.84	-0.07	-0.750			
0.1173	7506.83	3.9720	3.9718	-0.7492	25.84	-0.07	-0.750			
0.1195	7649.41	3.9690	3.9690	-0.7547	25.84	-0.07	-0.750			
0.1218	7794.67	3.9660	3.9661	-0.7608	25.84	-0.07	-0.750			
0.1241	7944.01	3.9630	3.9631	-0.7680	25.84	-0.07	-0.750			
0.1265	8093.31	3.9600	3.9598	-0.7673	25.84	-0.07	-0.750			
0.1287	8239.43	3.9570	3.9571	-0.7607	25.84	-0.07	-0.750			
0.1310	8383.78	3.9540	3.9540	-0.7687	25.84	-0.07	-0.750			
0.1333	8531.08	3.9510	3.9510	-0.7750	25.84	-0.07	-0.750			
0.1356	8678.88	3.9480	3.9479	-0.7765	25.85	-0.06	-0.750			
0.1380	8829.52	3.9450	3.9451	-0.7832	25.85	-0.06	-0.750			
0.1404	8983.00	3.9420	3.9422	-0.7877	25.85	-0.06	-0.750			
0.1427	9135.11	3.9390	3.9390	-0.7882	25.85	-0.06	-0.750			
0.1451	9287.61	3.9360	3.9360	-0.7894	25.86	-0.05	-0.750			
0.1475	9437.32	3.9330	3.9330	-0.7846	25.86	-0.05	-0.750			
0.1498	9588.14	3.9300	3.9299	-0.7849	25.87	-0.04	-0.750			
0.1522	9738.81	3.9270	3.9271	-0.7874	25.87	-0.04	-0.750			
0.1545	9889.92	3.9240	3.9239	-0.7885	25.87	-0.04	-0.750			
0.1569	10040.62	3.9210	3.9210	-0.7925	25.87	-0.04	-0.750			
0.1593	10193.26	3.9180	3.9180	-0.7904	25.87	-0.04	-0.750			
0.1616	10344.52	3.9150	3.9150	-0.7938	25.87	-0.04	-0.750			
0.1640	10498.63	3.9120	3.9120	-0.7963	25.87	-0.04	-0.750			
0.1664	10651.63	3.9090	3.9089	-0.7963	25.87	-0.04	-0.750			
0.1688	10802.89	3.9060	3.9060	-0.8005	25.88	-0.03	-0.750			
0.1712	10958.53	3.9030	3.9030	-0.7982	25.88	-0.03	-0.750			
0.1736	11111.41	3.9000	3.9000	-0.7964	25.88	-0.03	-0.750			
0.1760	11265.11	3.8970	3.8968	-0.8004	25.89	-0.02	-0.750			
0.1784	11418.06	3.8940	3.8940	-0.7984	25.89	-0.02	-0.750			
0.1808	11571.33	3.8910	3.8909	-0.8026	25.90	-0.01	-0.750			
0.1832	11725.02	3.8880	3.8881	-0.8046	25.90	-0.01	-0.750			
0.1856	11878.49	3.8850	3.8850	-0.8009	25.90	-0.01	-0.750			
0.1881	12035.59	3.8820	3.8820	-0.8109	25.91	-0.00	-0.750			
0.1905	12190.71	3.8790	3.8791	-0.8121	25.91	0.00	-0.750			
0.1929	12347.20	3.8760	3.8759	-0.8089	25.91	0.00	-0.750			
0.1954	12505.00	3.8730	3.8730	-0.8058	25.91	0.00	-0.750			
0.1978	12659.68	3.8700	3.8701	-0.7950	25.91	0.00	-0.750			
0.2002	12811.07	3.8670	3.8671	-0.7916	25.91	0.00	-0.750			
0.2025	12960.51	3.8640	3.8642	-0.7920	25.91	0.00	-0.750			
0.2048	13109.43	3.8610	3.8609	-0.7869	25.91	0.00	-0.750			
0.2072	13260.11	3.8580	3.8579	-0.8006	25.92	0.01	-0.750			
0.2096	13416.46	3.8550	3.8550	-0.8070	25.92	0.01	-0.750			
0.2121	13575.43	3.8520	3.8520	-0.8156	25.93	0.02	-0.750			
0.2146	13732.09	3.8490	3.8493	-0.8171	25.93	0.02	-0.750			
0.2170	13888.54	3.8460	3.8459	-0.8162	25.93	0.02	-0.750			
0.2195	14045.55	3.8430	3.8431	-0.8190	25.94	0.03	-0.750			
0.2219	14201.66	3.8400	3.8399	-0.8184	25.94	0.03	-0.750			
0.2243	14357.88	3.8370	3.8371	-0.8124	25.94	0.03	-0.750			
0.2269	14519.35	3.8340	3.8340	-0.8142	25.95	0.04	-0.750			
0.2293	14673.34	3.8310	3.8310	-0.8086	25.95	0.04	-0.750			
0.2317	14826.22	3.8280	3.8280	-0.8088	25.95	0.04	-0.750			
0.2341	14981.37	3.8250	3.8251	-0.8061	25.96	0.05	-0.750			
0.2365	15135.12	3.8220	3.8219	-0.8050	25.96	0.05	-0.750			
0.2389	15291.35	3.8190	3.8190	-0.8067	25.96	0.05	-0.750			
0.2414	15447.25	3.8160	3.8158	-0.8082	25.96	0.05	-0.750			
0.2438	15602.14	3.8130	3.8130	-0.8121	25.96	0.05	-0.750			
0.2462	15757.72	3.8100	3.8100	-0.8042	25.96	0.05	-0.750			
0.2486	15910.94	3.8070	3.8070	-0.7996	25.97	0.06	-0.750			
0.2510	16066.66	3.8040	3.8039	-0.7995	25.97	0.06	-0.750			
0.2534	16219.71	3.8010	3.8009	-0.7916	25.97	0.06	-0.750			
0.2558	16369.70	3.7980	3.7980	-0.7903	25.98	0.07	-0.750			
0.2581	16520.15	3.7950	3.7950	-0.7857	25.98	0.07	-0.750			
0.2605	16670.33	3.7920	3.7920	-0.7810	25.98	0.07	-0.750			
0.2629	16822.54	3.7890	3.7889	-0.7827	25.99	0.08	-0.750			
0.2652	16971.87	3.7860	3.7864	-0.7769	25.99	0.08	-0.750			
0.2675	17121.00	3.7830	3.7831	-0.7724	25.99	0.08	-0.750			
0.2698	17268.64	3.7800	3.7800	-0.7733	26.00	0.09	-0.750			
0.2721	17415.26	3.7770	3.7769	-0.7702	26.00	0.09	-0.750			
0.2744	17563.12	3.7740	3.7740	-0.7699	26.01	0.10	-0.750			
0.2767	17711.85	3.7710	3.7709	-0.7653	26.01	0.10	-0.750			
0.2791	17860.00	3.7680	3.7680	-0.7650	26.01	0.10	-0.750			
0.2813	18005.59	3.7650	3.7650	-0.7664	26.01	0.10	-0.750			
0.2836	18151.52	3.7620	3.7620	-0.7637	26.01	0.10	-0.750			
0.2859	18297.27	3.7590	3.7590	-0.7603	26.02	0.11	-0.750			
0.2882	18443.69	3.7560	3.7559	-0.7613	26.02	0.11	-0.750			
0.2905	18590.23	3.7530	3.7532	-0.7622	26.02	0.11	-0.750			
0.2928	18737.33	3.7500	3.7500	-0.7674	26.02	0.11	-0.750			
0.2950	18882.90	3.7470	3.7470	-0.7698	26.03	0.12	-0.750			
0.2973	19029.98	3.7440	3.7439	-0.7694	26.03	0.12	-0.750			
0.2997	19180.12	3.7410	3.7410	-0.7760	26.04	0.13	-0.750			
0.3020	19329.54	3.7380	3.7380	-0.7819	26.04	0.13	-0.750			
0.3044	19479.05	3.7350	3.7350	-0.7919	26.04	0.13	-0.750			
0.3067	19631.66	3.7320	3.7319	-0.8032	26.04	0.13	-0.750			
0.3091	19784.51	3.7290	3.7290	-0.8133	26.05	0.14	-0.750			
0.3116	19942.14	3.7260	3.7260	-0.8274	26.05	0.14	-0.750			
0.3141	20103.99	3.7230	3.7231	-0.8456	26.05	0.14	-0.750			
0.3167	20266.50	3.7200	3.7199	-0.8629	26.05	0.14	-0.750			
0.3193	20433.68	3.7170	3.7169	-0.8737	26.05	0.14	-0.750			
0.3219	20603.22	3.7140	3.7141	-0.8852	26.05	0.14	-0.750			
0.3246	20774.45	3.7110	3.7110	-0.8966	26.05	0.14	-0.750			
0.3273	20948.57	3.7080	3.7083	-0.9136	26.05	0.14	-0.750			
0.3301	21124.65	3.7050	3.7050	-0.9347	26.05	0.14	-0.750			
0.3329	21304.62	3.7020	3.7019	-0.9489	26.05	0.14	-0.750			
0.3358	21488.99	3.6990	3.6990	-0.9641	26.05	0.14	-0.750			
0.3387	21677.27	3.6960	3.6960	-0.9843	26.05	0.14	-0.750			
0.3417	21867.04	3.6930	3.6930	-1.0003	26.05	0.14	-0.750			
0.3447	22059.29	3.6900	3.6900	-1.0200	26.04	0.13	-0.750			
0.3478	22256.10	3.6870	3.6870	-1.0338	26.04	0.13	-0.750			
0.3509	22454.99	3.6840	3.6840	-1.0472	26.03	0.12	-0.750			
0.3541	22660.55	3.6810	3.6810	-1.0793	26.03	0.12	-0.750			
0.3574	22870.55	3.6780	3.6781	-1.1014	26.03	0.12	-0.750			
0.3607	23082.63	3.6750	3.6749	-1.1258	26.03	0.12	-0.750			
0.3641	23300.61	3.6720	3.6721	-1.1454	26.03	0.12	-0.750			
0.3676	23525.65	3.6690	3.6689	-1.1742	26.02	0.11	-0.750			
0.3712	23756.21	3.6660	3.6659	-1.1996	26.02	0.11	-0.750			
0.3748	23986.31	3.6630	3.6630	-1.2191	26.01	0.10	-0.750			
0.3784	24220.20	3.6600	3.6602	-1.2338	26.00	0.09	-0.750			
0.3822	24461.14	3.6570	3.6569	-1.2575	25.99	0.08	-0.750			
0.3860	24702.09	3.6540	3.6539	-1.2821	25.99	0.08	-0.750			
0.3898	24947.85	3.6510	3.6511	-1.3114	25.98	0.07	-0.750			
0.3939	25209.91	3.6480	3.6479	-1.3483	25.97	0.06	-0.750			
0.3980	25469.82	3.6450	3.6449	-1.3853	25.96	0.05	-0.750			
0.4022	25740.70	3.6420	3.6424	-1.4127	25.95	0.04	-0.750			
0.4065	26014.24	3.6390	3.6388	-1.4431	25.94	0.03	-0.750			
0.4108	26293.65	3.6360	3.6359	-1.4678	25.94	0.03	-0.750			
0.4152	26575.52	3.6330	3.6331	-1.4896	25.93	0.02	-0.750			
0.4198	26866.30	3.6300	3.6298	-1.5434	25.92	0.01	-0.750			
0.4245	27165.96	3.6270	3.6271	-1.5606	25.91	0.00	-0.750			
0.4291	27464.89	3.6240	3.6241	-1.5788	25.91	-0.00	-0.750			
0.4340	27775.24	3.6210	3.6209	-1.6142	25.90	-0.01	-0.750			
0.4388	28083.39	3.6180	3.6179	-1.6439	25.90	-0.01	-0.750	0.402	0.540	
0.4438	28400.09	3.6150	3.6148	-1.6686	25.89	-0.02	-0.750			
0.4487	28717.54	3.6120	3.6119	-1.7055	25.88	-0.03	-0.750			
0.4539	29051.63	3.6090	3.6090	-1.7302	25.87	-0.04	-0.750			
0.4593	29394.87	3.6060	3.6061	-1.7781	25.87	-0.04	-0.750			
0.4647	29738.63	3.6030	3.6029	-1.8068	25.87	-0.04	-0.750			
0.4701	30088.78	3.6000	3.5999	-1.8544	25.86	-0.05	-0.750			
0.4757	30445.93	3.5970	3.5970	-1.8843	25.85	-0.06	-0.750			
0.4815	30814.30	3.5940	3.5940	-1.9208	25.85	-0.06	-0.750			
0.4872	31181.83	3.5910	3.5910	-1.9615	25.84	-0.07	-0.750			
0.4932	31566.07	3.5880	3.5880	-2.0156	25.83	-0.08	-0.750			
0.4993	31952.27	3.5850	3.5850	-2.0354	25.83	-0.08	-0.750			
0.5055	32349.57	3.5820	3.5821	-2.0503	25.82	-0.09	-0.750			
0.5117	32747.46	3.5790	3.5790	-2.0913	25.82	-0.09	-0.750			
0.5180	33152.88	3.5760	3.5757	-2.1148	25.82	-0.09	-0.750			
0.5244	33561.49	3.5730	3.5727	-2.1431	25.81	-0.10	-0.750			
0.5308	33970.41	3.5700	3.5700	-2.1795	25.81	-0.10	-0.750			
0.5375	34398.64	3.5670	3.5669	-2.1882	25.81	-0.10	-0.750			
0.5441	34821.44	3.5640	3.5641	-2.2129	25.81	-0.10	-0.750			
0.5508	35254.05	3.5610	3.5611	-2.2042	25.81	-0.10	-0.750			
0.5574	35675.24	3.5580	3.5579	-2.2096	25.81	-0.10	-0.750			
0.5641	36102.58	3.5550	3.5550	-2.2016	25.81	-0.10	-0.750			
0.5708	36529.26	3.5520	3.5517	-2.1944	25.81	-0.10	-0.750			
0.5773	36946.65	3.5490	3.5492	-2.1896	25.81	-0.10	-0.750			
0.5838	37365.63	3.5460	3.5461	-2.1800	25.81	-0.10	-0.750			
0.5904	37783.85	3.5430	3.5432	-2.1630	25.81	-0.10	-0.750			
0.5969	38200.44	3.5400	3.5400	-2.1497	25.81	-0.10	-0.750			
0.6034	38615.93	3.5370	3.5370	-2.1160	25.81	-0.10	-0.750			
0.6098	39024.98	3.5340	3.5340	-2.0942	25.81	-0.10	-0.750			
0.6161	39430.33	3.5310	3.5309	-2.0728	25.81	-0.10	-0.750			
0.6222	39817.98	3.5280	3.5280	-2.0181	25.82	-0.09	-0.750			
0.6282	40202.32	3.5250	3.5252	-1.9810	25.82	-0.09	-0.750			
0.6341	40582.78	3.5220	3.5222	-1.9481	25.84	-0.07	-0.750			
0.6398	40949.99	3.5190	3.5190	-1.9082	25.85	-0.06	-0.750			
0.6456	41316.15	3.5160	3.5161	-1.8861	25.85	-0.06	-0.750			
0.6512	41679.62	3.5130	3.5129	-1.8197	25.85	-0.06	-0.750			
0.6568	42033.03	3.5100	3.5100	-1.7590	25.86	-0.05	-0.750			
0.6618	42358.15	3.5070	3.5070	-1.6862	25.87	-0.04	-0.750			
0.6668	42672.74	3.5040	3.5040	-1.6167	25.88	-0.03	-0.750			
0.6714	42971.10	3.5010	3.5008	-1.5588	25.89	-0.02	-0.750			
0.6759	43256.19	3.4980	3.4979	-1.5144	25.91	-0.00	-0.750			
0.6804	43548.44	3.4950	3.4951	-1.4883	25.92	0.01	-0.750			
0.6850	43837.12	3.4920	3.4919	-1.4526	25.93	0.02	-0.750			
0.6893	44115.03	3.4890	3.4890	-1.4176	25.95	0.04	-0.750			
0.6935	44381.40	3.4860	3.4859	-1.3651	25.96	0.05	-0.750			
0.6975	44638.51	3.4830	3.4829	-1.3190	25.97	0.06	-0.750			
0.7013	44885.54	3.4800	3.4802	-1.2675	25.99	0.08	-0.750			
0.7050	45120.49	3.4770	3.4769	-1.2257	26.00	0.09	-0.750			
0.7087	45357.80	3.4740	3.4739	-1.1931	26.01	0.10	-0.750			
0.7122	45580.37	3.4710	3.4710	-1.1553	26.02	0.11	-0.750			
0.7155	45793.34	3.4680	3.4682	-1.1231	26.03	0.12	-0.750			
0.7190	46013.72	3.4650	3.4649	-1.0859	26.05	0.14	-0.750			
0.7222	46218.57	3.4620	3.4619	-1.0494	26.06	0.15	-0.750			
0.7253	46416.63	3.4590	3.4589	-1.0109	26.07	0.16	-0.750			
0.7282	46605.79	3.4560	3.4562	-0.9752	26.08	0.17	-0.750			
0.7310	46786.85	3.4530	3.4528	-0.9540	26.09	0.18	-0.750			
0.7338	46961.61	3.4500	3.4500	-0.9294	26.11	0.20	-0.750			
0.7365	47138.51	3.4470	3.4469	-0.9051	26.12	0.21	-0.750			
0.7393	47316.20	3.4440	3.4441	-0.9032	26.13	0.22	-0.750			
0.7420	47485.95	3.4410	3.4411	-0.8920	26.14	0.23	-0.750			
0.7446	47656.65	3.4380	3.4380	-0.8882	26.15	0.24	-0.750			
0.7472	47822.30	3.4350	3.4349	-0.8823	26.15	0.24	-0.750			
0.7498	47990.08	3.4320	3.4320	-0.8848	26.16	0.25	-0.750			
0.7525	48160.34	3.4290	3.4291	-0.8922	26.17	0.26	-0.750			
0.7552	48334.27	3.4260	3.4260	-0.9121	26.18	0.27	-0.750			
0.7580	48510.18	3.4230	3.4231	-0.9230	26.18	0.27	-0.750			
0.7607	48687.81	3.4200	3.4198	-0.9373	26.19	0.28	-0.750			
0.7636	48870.21	3.4170	3.4170	-0.9529	26.20	0.29	-0.750			
0.7665	49055.61	3.4140	3.4138	-0.9634	26.21	0.30	-0.750			
0.7695	49246.07	3.4110	3.4109	-0.9702	26.22	0.31	-0.750			
0.7724	49434.78	3.4080	3.4080	-0.9610	26.23	0.32	-0.750			
0.7753	49617.20	3.4050	3.4050	-0.9422	26.24	0.33	-0.750			
0.7781	49800.69	3.4020	3.4020	-0.9259	26.25	0.34	-0.750			
0.7809	49975.35	3.3990	3.3991	-0.8990	26.26	0.35	-0.750			
0.7835	50145.75	3.3960	3.3959	-0.8730	26.26	0.35	-0.750			
0.7861	50309.37	3.3930	3.3930	-0.8410	26.26	0.35	-0.750			
0.7886	50472.48	3.3900	3.3900	-0.8186	26.27	0.36	-0.750			
0.7910	50626.39	3.3870	3.3871	-0.7859	26.27	0.36	-0.750			
0.7933	50771.94	3.3840	3.3840	-0.7563	26.28	0.37	-0.750			
0.7955	50913.86	3.3810	3.3810	-0.7293	26.29	0.38	-0.750			
0.7976	51049.59	3.3780	3.3780	-0.7007	26.29	0.38	-0.750			
0.7997	51181.27	3.3750	3.3749	-0.6782	26.30	0.39	-0.750			
0.8017	51310.98	3.3720	3.3721	-0.6545	26.31	0.40	-0.750			
0.8037	51434.44	3.3690	3.3689	-0.6306	26.31	0.40	-0.750			
0.8055	51552.81	3.3660	3.3660	-0.6077	26.32	0.41	-0.750			
0.8073	51666.20	3.3630	3.3629	-0.5840	26.33	0.42	-0.750			
0.8090	51774.84	3.3600	3.3600	-0.5655	26.33	0.42	-0.750			
0.8107	51882.55	3.3570	3.3570	-0.5471	26.34	0.43	-0.750			
0.8123	51985.54	3.3540	3.3540	-0.5267	26.34	0.43	-0.750			
0.8138	52085.46	3.3510	3.3510	-0.5084	26.35	0.44	-0.750			
0.8153	52180.71	3.3480	3.3481	-0.4892	26.35	0.44	-0.750			
0.8168	52272.95	3.3450	3.3450	-0.4699	26.36	0.45	-0.750			
0.8181	52360.12	3.3420	3.3420	-0.4550	26.36	0.45	-0.750			
0.8195	52445.41	3.3390	3.3390	-0.4402	26.37	0.46	-0.750			
0.8208	52529.18	3.3360	3.3359	-0.4258	26.37	0.46	-0.750			
0.8220	52609.38	3.3330	3.3330	-0.4123	26.38	0.47	-0.750			
0.8232	52686.65	3.3300	3.3301	-0.4006	26.38	0.47	-0.750			
0.8244	52762.39	3.3270	3.3269	-0.3871	26.39	0.48	-0.750			
0.8256	52835.53	3.3240	3.3239	-0.3755	26.39	0.48	-0.750			
0.8267	52905.89	3.3210	3.3210	-0.3627	26.40	0.49	-0.750			
0.8277	52974.60	3.3180	3.3180	-0.3521	26.40	0.49	-0.750			
0.8288	53041.16	3.3150	3.3149	-0.3423	26.41	0.50	-0.750			
0.8298	53104.75	3.3120	3.3121	-0.3319	26.41	0.50	-0.750			
0.8307	53167.23	3.3090	3.3089	-0.3229	26.42	0.51	-0.750			
0.8317	53229.05	3.3060	3.3060	-0.3160	26.43	0.52	-0.750			
0.8326	53288.72	3.3030	3.3029	-0.3082	26.43	0.52	-0.750			
0.8336	53347.22	3.3000	3.3001	-0.3007	26.44	0.53	-0.750			
0.8344	53404.14	3.2970	3.2969	-0.2937	26.44	0.53	-0.750			
0.8353	53459.28	3.2940	3.2940	-0.2860	26.45	0.54	-0.750			
0.8362	53513.67	3.2910	3.2910	-0.2804	26.46	0.55	-0.750			
0.8370	53566.88	3.2880	3.2880	-0.2742	26.46	0.55	-0.750			
0.8378	53618.90	3.2850	3.2849	-0.2682	26.47	0.56	-0.750			
0.8386	53669.50	3.2820	3.2820	-0.2618	26.47	0.56	-0.750			
0.8394	53719.40	3.2790	3.2790	-0.2563	26.48	0.57	-0.750			
0.8401	53767.92	3.2760	3.2760	-0.2504	26.48	0.57	-0.750			
0.8409	53814.92	3.2730	3.2730	-0.2457	26.49	0.58	-0.750			
0.8416	53861.56	3.2700	3.2700	-0.2411	26.49	0.58	-0.750			
0.8423	53907.00	3.2670	3.2670	-0.2374	26.50	0.59	-0.750			
0.8430	53952.47	3.2640	3.2639	-0.2331	26.50	0.59	-0.750			
0.8437	53996.64	3.2610	3.2610	-0.2297	26.50	0.59	-0.750			
0.8444	54040.53	3.2580	3.2581	-0.2260	26.51	0.60	-0.750			
0.8451	54083.67	3.2550	3.2550	-0.2227	26.51	0.60	-0.750			
0.8457	54126.21	3.2520	3.2520	-0.2191	26.52	0.61	-0.750			
0.8464	54167.57	3.2490	3.2490	-0.2149	26.52	0.61	-0.750			
0.8470	54208.52	3.2460	3.2460	-0.2118	26.53	0.62	-0.750			
0.8476	54248.72	3.2430	3.2430	-0.2089	26.53	0.62	-0.750			
0.8483	54288.77	3.2400	3.2400	-0.2063	26.53	0.62	-0.750			
0.8489	54327.95	3.2370	3.2370	-0.2019	26.54	0.63	-0.750			
0.8495	54366.47	3.2340	3.2341	-0.1994	26.54	0.63	-0.750			
0.8501	54404.14	3.2310	3.2310	-0.1966	26.54	0.63	-0.750			
0.8507	54441.67	3.2280	3.2281	-0.1943	26.55	0.64	-0.750			
0.8512	54478.67	3.2250	3.2249	-0.1917	26.55	0.64	-0.750			
0.8518	54515.23	3.2220	3.2220	-0.1888	26.56	0.65	-0.750			
0.8524	54551.26	3.2190	3.2191	-0.1862	26.56	0.65	-0.750			
0.8529	54586.79	3.2160	3.2160	-0.1838	26.57	0.66	-0.750			
0.8535	54622.17	3.2130	3.2130	-0.1824	26.57	0.66	-0.750			
0.8540	54656.65	3.2100	3.2100	-0.1796	26.58	0.67	-0.750			
0.8545	54690.69	3.2070	3.2070	-0.1773	26.58	0.67	-0.750			
0.8551	54724.58	3.2040	3.2040	-0.1758	26.59	0.68	-0.750			
0.8556	54758.27	3.2010	3.2010	-0.1741	26.59	0.68	-0.750			
0.8561	54791.78	3.1980	3.1980	-0.1719	26.60	0.69	-0.750			
0.8566	54824.67	3.1950	3.1950	-0.1697	26.60	0.69	-0.750			
0.8571	54856.99	3.1920	3.1920	-0.1671	26.61	0.70	-0.750			
0.8576	54888.46	3.1890	3.1891	-0.1662	26.62	0.71	-0.750			
0.8581	54920.26	3.1860	3.1859	-0.1646	26.62	0.71	-0.750			
0.8586	54951.68	3.1830	3.1830	-0.1627	26.63	0.72	-0.750			
0.8591	54982.79	3.1800	3.1799	-0.1615	26.63	0.72	-0.750			
0.8596	55013.66	3.1770	3.1771	-0.1605	26.64	0.73	-0.750			
0.8601	55044.54	3.1740	3.1740	-0.1597	26.64	0.73	-0.750			
0.8606	55075.42	3.1710	3.1709	-0.1577	26.65	0.74	-0.750			
0.8610	55105.23	3.1680	3.1679	-0.1560	26.65	0.74	-0.750			
0.8615	55134.69	3.1650	3.1651	-0.1539	26.66	0.75	-0.750			
0.8619	55164.37	3.1620	3.1621	-0.1528	26.66	0.75	-0.750			
0.8624	55193.51	3.1590	3.1588	-0.1512	26.66	0.75	-0.750			
0.8628	55222.37	3.1560	3.1560	-0.1495	26.67	0.76	-0.750			
0.8633	55250.68	3.1530	3.1532	-0.1478	26.67	0.76	-0.750			
0.8637	55278.92	3.1500	3.1500	-0.1465	26.67	0.76	-0.750			
0.8642	55307.28	3.1470	3.1469	-0.1457	26.68	0.77	-0.750			
0.8646	55334.53	3.1440	3.1440	-0.1444	26.68	0.77	-0.750			
0.8650	55362.55	3.1410	3.1410	-0.1430	26.68	0.77	-0.750			
0.8655	55390.06	3.1380	3.1379	-0.1419	26.69	0.78	-0.750			
0.8659	55417.21	3.1350	3.1350	-0.1409	26.69	0.78	-0.750			
0.8663	55444.15	3.1320	3.1322	-0.1394	26.70	0.79	-0.750			
0.8667	55470.89	3.1290	3.1290	-0.1379	26.71	0.80	-0.750			
0.8671	55497.06	3.1260	3.1257	-0.1367	26.71	0.80	-0.750			
0.8675	55523.11	3.1230	3.1230	-0.1359	26.72	0.81	-0.750			
0.8680	55548.96	3.1200	3.1200	-0.1342	26.73	0.82	-0.750			
0.8684	55574.95	3.1170	3.1169	-0.1338	26.73	0.82	-0.750			
0.8688	55600.44	3.1140	3.1140	-0.1328	26.74	0.83	-0.750			
0.8692	55625.62	3.1110	3.1111	-0.1319	26.74	0.83	-0.750			
0.8695	55650.93	3.1080	3.1080	-0.1313	26.75	0.84	-0.750			
0.8699	55676.05	3.1050	3.1049	-0.1305	26.76	0.85	-0.750			
0.8703	55700.97	3.1020	3.1020	-0.1294	26.76	0.85	-0.750			
0.8707	55725.87	3.0990	3.0990	-0.1283	26.77	0.86	-0.750			
0.8711	55750.67	3.0960	3.0959	-0.1277	26.77	0.86	-0.750			
0.8715	55774.90	3.0930	3.0931	-0.1265	26.78	0.87	-0.750			
0.8719	55799.00	3.0900	3.0899	-0.1252	26.78	0.87	-0.750			
0.8722	55822.61	3.0870	3.0871	-0.1243	26.79	0.88	-0.750			
0.8726	55846.44	3.0840	3.0840	-0.1239	26.79	0.88	-0.750			
0.8730	55870.27	3.0810	3.0810	-0.1226	26.80	0.89	-0.750			
0.8733	55893.83	3.0780	3.0779	-0.1218	26.80	0.89	-0.750			
0.8737	55916.96	3.0750	3.0751	-0.1216	26.81	0.90	-0.750			
0.8741	55940.32	3.0720	3.0720	-0.1210	26.81	0.90	-0.750			
0.8744	55963.52	3.0690	3.0690	-0.1201	26.82	0.91	-0.750			
0.8748	55986.49	3.0660	3.0659	-0.1193	26.82	0.91	-0.750			
0.8751	56009.31	3.0630	3.0631	-0.1186	26.83	0.92	-0.750			
0.8755	56031.82	3.0600	3.0601	-0.1179	26.83	0.92	-0.750			
0.8759	56054.53	3.0570	3.0570	-0.1165	26.84	0.93	-0.750			
0.8762	56077.03	3.0540	3.0539	-0.1163	26.84	0.93	-0.750			
0.8765	56098.97	3.0510	3.0510	-0.1148	26.85	0.94	-0.750			
0.8769	56120.85	3.0480	3.0482	-0.1146	26.85	0.94	-0.750			
0.8772	56142.74	3.0450	3.0450	-0.1141	26.86	0.95	-0.750			
0.8776	56164.76	3.0420	3.0419	-0.1135	26.86	0.95	-0.750			
0.8779	56186.43	3.0390	3.0390	-0.1129	26.87	0.96	-0.750			
0.8783	56208.21	3.0360	3.0360	-0.1121	26.87	0.96	-0.750			
0.8786	56230.04	3.0330	3.0330	-0.1119	26.88	0.97	-0.750			
0.8789	56251.29	3.0300	3.0301	-0.1108	26.88	0.97	-0.750			
0.8793	56272.42	3.0270	3.0270	-0.1097	26.89	0.98	-0.750			
0.8796	56293.28	3.0240	3.0240	-0.1091	26.89	0.98	-0.750			
0.8799	56313.93	3.0210	3.0210	-0.1081	26.89	0.98	-0.750			
0.8802	56334.80	3.0180	3.0179	-0.1071	26.90	0.99	-0.750			
0.8806	56355.39	3.0150	3.0150	-0.1064	26.90	0.99	-0.750			
0.8809	56375.72	3.0120	3.0121	-0.1054	26.91	1.00	-0.750			
0.8812	56396.04	3.0090	3.0091	-0.1041	26.91	1.00	-0.751			
0.8815	56415.90	3.0060	3.0059	-0.1027	26.92	1.01	-0.751			
0.8818	56435.41	3.0030	3.0029	-0.0991	26.92	1.01	-0.751			
