Ah_balance (normalized)	Ah_balance (mAh)	Voltage - fit (V)	Voltage -  interpolate (V)	dQ/dV (1/V)	Temperature (°C)	Temperature - diff (°C)	Current (C)	R_DC 0ms (mOhm)	R_DC 50ms (mOhm)	R_DC 50 ms PEC (mOhm)
0.0547	3500.55	4.1980	4.1980	0.7397	26.72	0.77	0.750			
0.0570	3645.06	4.1950	4.1950	0.7593	26.72	0.77	0.750			
0.0592	3790.75	4.1920	4.1920	0.7575	26.72	0.77	0.750			
0.0615	3936.46	4.1890	4.1890	0.7527	26.72	0.77	0.750			
0.0637	4079.94	4.1860	4.1860	0.7538	26.72	0.77	0.750			
0.0660	4223.88	4.1830	4.1830	0.7525	26.72	0.77	0.750			
0.0682	4367.92	4.1800	4.1798	0.7528	26.72	0.77	0.750			
0.0705	4511.99	4.1770	4.1771	0.7538	26.72	0.77	0.750			
0.0728	4658.47	4.1740	4.1740	0.7542	26.72	0.77	0.750			
0.0751	4803.32	4.1710	4.1710	0.7583	26.72	0.77	0.750			
0.0773	4946.60	4.1680	4.1680	0.7620	26.72	0.77	0.750			
0.0796	5093.63	4.1650	4.1650	0.7682	26.72	0.77	0.750			
0.0819	5242.79	4.1620	4.1620	0.7680	26.72	0.77	0.750			
0.0842	5391.18	4.1590	4.1590	0.7678	26.72	0.77	0.750			
0.0866	5540.23	4.1560	4.1562	0.7681	26.72	0.77	0.750			
0.0889	5688.00	4.1530	4.1529	0.7652	26.72	0.77	0.750			
0.0911	5832.56	4.1500	4.1500	0.7641	26.72	0.77	0.750			
0.0934	5978.82	4.1470	4.1470	0.7622	26.72	0.77	0.750			
0.0957	6124.94	4.1440	4.1439	0.7658	26.72	0.77	0.750			
0.0980	6273.12	4.1410	4.1410	0.7657	26.72	0.77	0.750			
0.1003	6419.13	4.1380	4.1381	0.7717	26.72	0.77	0.750			
0.1026	6567.37	4.1350	4.1350	0.7741	26.72	0.77	0.750			
0.1050	6718.05	4.1320	4.1319	0.7736	26.72	0.77	0.750			
0.1073	6866.00	4.1290	4.1291	0.7743	26.72	0.77	0.750			
0.1096	7016.29	4.1260	4.1261	0.7774	26.71	0.76	0.750			
0.1119	7164.78	4.1230	4.1230	0.7752	26.71	0.76	0.750			
0.1143	7313.23	4.1200	4.1199	0.7783	26.71	0.76	0.750			
0.1166	7460.77	4.1170	4.1171	0.7778	26.70	0.75	0.750			
0.1189	7611.97	4.1140	4.1140	0.7808	26.70	0.75	0.750			
0.1213	7762.84	4.1110	4.1110	0.7810	26.70	0.75	0.750			
0.1236	7911.78	4.1080	4.1080	0.7802	26.70	0.75	0.750			
0.1260	8061.63	4.1050	4.1050	0.7829	26.71	0.76	0.750			
0.1283	8212.02	4.1020	4.1020	0.7823	26.71	0.76	0.750			
0.1306	8361.24	4.0990	4.0988	0.7863	26.71	0.76	0.750			
0.1330	8512.14	4.0960	4.0961	0.7919	26.71	0.76	0.750			
0.1354	8667.25	4.0930	4.0929	0.7905	26.71	0.76	0.750			
0.1378	8819.49	4.0900	4.0900	0.7955	26.70	0.75	0.750			
0.1402	8971.24	4.0870	4.0870	0.7973	26.70	0.75	0.750			
0.1426	9124.32	4.0840	4.0841	0.7967	26.70	0.75	0.750			
0.1450	9277.09	4.0810	4.0810	0.8004	26.70	0.75	0.750			
0.1473	9430.11	4.0780	4.0780	0.7988	26.70	0.75	0.750			
0.1497	9583.48	4.0750	4.0751	0.8062	26.70	0.75	0.750			
0.1522	9740.49	4.0720	4.0719	0.8144	26.70	0.75	0.750			
0.1546	9895.50	4.0690	4.0691	0.8110	26.70	0.75	0.750			
0.1571	10051.60	4.0660	4.0660	0.8187	26.70	0.75	0.750			
0.1596	10211.90	4.0630	4.0631	0.8186	26.70	0.75	0.750			
0.1620	10367.88	4.0600	4.0599	0.8189	26.70	0.75	0.750			
0.1645	10525.30	4.0570	4.0570	0.8213	26.70	0.75	0.750			
0.1669	10682.09	4.0540	4.0541	0.8246	26.70	0.75	0.750			
0.1694	10840.43	4.0510	4.0510	0.8280	26.70	0.75	0.750			
0.1719	11002.40	4.0480	4.0479	0.8224	26.70	0.75	0.750			
0.1744	11159.29	4.0450	4.0452	0.8236	26.70	0.75	0.750			
0.1769	11318.58	4.0420	4.0420	0.8247	26.70	0.75	0.750			
0.1793	11474.80	4.0390	4.0391	0.8300	26.70	0.75	0.750			
0.1818	11633.03	4.0360	4.0360	0.8315	26.70	0.75	0.750			
0.1843	11793.86	4.0330	4.0330	0.8311	26.70	0.75	0.750			
0.1868	11956.31	4.0300	4.0301	0.8388	26.70	0.75	0.750			
0.1893	12118.01	4.0270	4.0271	0.8443	26.71	0.76	0.750			
0.1919	12280.10	4.0240	4.0241	0.8430	26.71	0.76	0.750			
0.1944	12441.73	4.0210	4.0210	0.8472	26.71	0.76	0.750			
0.1970	12604.82	4.0180	4.0180	0.8442	26.71	0.76	0.750			
0.1995	12768.13	4.0150	4.0150	0.8532	26.71	0.76	0.750			
0.2021	12932.98	4.0120	4.0120	0.8549	26.70	0.75	0.750			
0.2046	13097.01	4.0090	4.0090	0.8578	26.70	0.75	0.750			
0.2072	13261.29	4.0060	4.0061	0.8596	26.70	0.75	0.750			
0.2098	13427.71	4.0030	4.0031	0.8603	26.70	0.75	0.750			
0.2124	13592.82	4.0000	4.0000	0.8652	26.70	0.75	0.750			
0.2150	13760.96	3.9970	3.9970	0.8691	26.70	0.75	0.750			
0.2176	13925.49	3.9940	3.9939	0.8701	26.70	0.75	0.750			
0.2202	14094.20	3.9910	3.9912	0.8721	26.70	0.75	0.750			
0.2228	14261.02	3.9880	3.9879	0.8729	26.70	0.75	0.750			
0.2254	14428.46	3.9850	3.9850	0.8813	26.70	0.75	0.750			
0.2281	14599.47	3.9820	3.9821	0.8792	26.70	0.75	0.750			
0.2307	14766.61	3.9790	3.9787	0.8773	26.70	0.75	0.750			
0.2334	14937.73	3.9760	3.9761	0.8768	26.70	0.75	0.750			
0.2360	15104.72	3.9730	3.9730	0.8763	26.70	0.75	0.750			
0.2387	15273.70	3.9700	3.9700	0.8786	26.70	0.75	0.750			
0.2413	15440.18	3.9670	3.9670	0.8803	26.70	0.75	0.750			
0.2439	15607.58	3.9640	3.9640	0.8767	26.70	0.75	0.750			
0.2466	15779.94	3.9610	3.9610	0.8790	26.70	0.75	0.750			
0.2492	15946.55	3.9580	3.9580	0.8822	26.70	0.75	0.750			
0.2518	16116.15	3.9550	3.9551	0.8889	26.70	0.75	0.750			
0.2545	16286.53	3.9520	3.9521	0.8863	26.70	0.75	0.750			
0.2572	16457.69	3.9490	3.9489	0.8907	26.70	0.75	0.750			
0.2598	16629.04	3.9460	3.9461	0.8885	26.69	0.74	0.750			
0.2625	16801.80	3.9430	3.9430	0.8936	26.69	0.74	0.750			
0.2652	16973.40	3.9400	3.9399	0.8956	26.69	0.74	0.750			
0.2678	17142.21	3.9370	3.9370	0.8912	26.68	0.73	0.750			
0.2705	17313.53	3.9340	3.9339	0.8907	26.68	0.73	0.750			
0.2732	17485.52	3.9310	3.9310	0.8960	26.68	0.73	0.750			
0.2759	17658.32	3.9280	3.9280	0.8965	26.68	0.73	0.750			
0.2786	17830.91	3.9250	3.9251	0.8980	26.68	0.73	0.750			
0.2813	18002.87	3.9220	3.9220	0.8979	26.68	0.73	0.750			
0.2840	18176.51	3.9190	3.9190	0.8931	26.67	0.72	0.750			
0.2866	18345.10	3.9160	3.9160	0.8994	26.67	0.72	0.750			
0.2894	18518.80	3.9130	3.9130	0.9047	26.66	0.71	0.750			
0.2921	18692.21	3.9100	3.9100	0.9098	26.65	0.70	0.750			
0.2948	18868.66	3.9070	3.9070	0.9150	26.65	0.70	0.750			
0.2976	19045.06	3.9040	3.9041	0.9172	26.64	0.69	0.750			
0.3003	19221.43	3.9010	3.9011	0.9223	26.63	0.68	0.750			
0.3031	19399.85	3.8980	3.8980	0.9281	26.63	0.68	0.750			
0.3059	19576.39	3.8950	3.8948	0.9247	26.62	0.67	0.750			
0.3087	19756.05	3.8920	3.8920	0.9275	26.61	0.66	0.750			
0.3115	19933.00	3.8890	3.8891	0.9307	26.60	0.65	0.750			
0.3143	20112.18	3.8860	3.8861	0.9428	26.59	0.64	0.750			
0.3171	20291.65	3.8830	3.8829	0.9439	26.58	0.63	0.750			
0.3200	20477.21	3.8800	3.8799	0.9454	26.58	0.63	0.750			
0.3228	20658.79	3.8770	3.8771	0.9533	26.57	0.62	0.750			
0.3257	20842.62	3.8740	3.8741	0.9595	26.56	0.61	0.750			
0.3286	21028.05	3.8710	3.8711	0.9685	26.56	0.61	0.750			
0.3314	21211.57	3.8680	3.8678	0.9671	26.55	0.60	0.750			
0.3344	21398.81	3.8650	3.8650	0.9631	26.54	0.59	0.750			
0.3373	21585.32	3.8620	3.8621	0.9701	26.53	0.58	0.750			
0.3402	21772.29	3.8590	3.8591	0.9743	26.53	0.58	0.750			
0.3431	21957.93	3.8560	3.8558	0.9752	26.52	0.57	0.750			
0.3460	22147.10	3.8530	3.8529	0.9672	26.51	0.56	0.750			
0.3489	22331.90	3.8500	3.8501	0.9711	26.50	0.55	0.750			
0.3519	22519.27	3.8470	3.8472	0.9812	26.49	0.54	0.750			
0.3548	22707.36	3.8440	3.8440	0.9834	26.47	0.52	0.750			
0.3578	22899.16	3.8410	3.8410	0.9786	26.46	0.51	0.750			
0.3607	23085.70	3.8380	3.8381	0.9845	26.45	0.50	0.750			
0.3637	23274.70	3.8350	3.8351	0.9920	26.45	0.50	0.750			
0.3667	23469.02	3.8320	3.8321	1.0018	26.44	0.49	0.750			
0.3697	23659.00	3.8290	3.8291	0.9967	26.43	0.48	0.750			
0.3727	23850.02	3.8260	3.8260	1.0012	26.42	0.47	0.750			
0.3757	24042.31	3.8230	3.8231	1.0103	26.41	0.46	0.750			
0.3787	24238.75	3.8200	3.8199	1.0175	26.40	0.45	0.750			
0.3818	24435.45	3.8170	3.8170	1.0168	26.39	0.44	0.750			
0.3849	24630.60	3.8140	3.8140	1.0236	26.38	0.43	0.750			
0.3879	24827.08	3.8110	3.8111	1.0350	26.37	0.42	0.750			
0.3910	25026.40	3.8080	3.8081	1.0465	26.36	0.41	0.750			
0.3942	25229.36	3.8050	3.8048	1.0461	26.35	0.40	0.750			
0.3973	25429.17	3.8020	3.8020	1.0594	26.33	0.38	0.750			
0.4005	25633.69	3.7990	3.7991	1.0758	26.32	0.37	0.750			
0.4038	25840.68	3.7960	3.7961	1.0939	26.30	0.35	0.750			
0.4071	26053.52	3.7930	3.7929	1.0972	26.29	0.34	0.750			
0.4104	26263.95	3.7900	3.7900	1.1163	26.28	0.33	0.750			
0.4137	26478.41	3.7870	3.7872	1.1381	26.27	0.32	0.750			
0.4172	26699.90	3.7840	3.7840	1.1618	26.26	0.31	0.750			
0.4207	26923.82	3.7810	3.7810	1.1645	26.25	0.30	0.750			
0.4242	27149.47	3.7780	3.7781	1.1792	26.24	0.29	0.750			
0.4277	27374.69	3.7750	3.7752	1.2156	26.22	0.27	0.750			
0.4314	27610.85	3.7720	3.7720	1.2370	26.21	0.26	0.750			
0.4352	27849.88	3.7690	3.7689	1.2709	26.20	0.25	0.750			
0.4390	28097.36	3.7660	3.7662	1.3009	26.18	0.23	0.750	0.316	0.436	
0.4430	28353.72	3.7630	3.7628	1.3291	26.17	0.22	0.750			
0.4471	28613.89	3.7600	3.7601	1.3613	26.16	0.21	0.750			
0.4512	28875.82	3.7570	3.7571	1.3841	26.14	0.19	0.750			
0.4553	29139.46	3.7540	3.7538	1.3977	26.12	0.17	0.750			
0.4596	29412.47	3.7510	3.7511	1.4122	26.11	0.16	0.750			
0.4638	29685.26	3.7480	3.7481	1.4495	26.10	0.15	0.750			
0.4683	29969.68	3.7450	3.7446	1.4834	26.09	0.14	0.750			
0.4727	30255.06	3.7420	3.7422	1.5136	26.07	0.12	0.750			
0.4773	30549.09	3.7390	3.7391	1.5533	26.05	0.10	0.750			
0.4821	30853.14	3.7360	3.7361	1.6031	26.03	0.08	0.750			
0.4869	31164.02	3.7330	3.7331	1.6501	26.02	0.07	0.750			
0.4921	31491.31	3.7300	3.7299	1.7089	26.00	0.05	0.750			
0.4972	31820.74	3.7270	3.7272	1.7577	25.98	0.03	0.750			
0.5026	32168.70	3.7240	3.7242	1.8195	25.96	0.01	0.750			
0.5081	32520.78	3.7210	3.7210	1.8515	25.94	-0.01	0.750			
0.5138	32885.10	3.7180	3.7179	1.9006	25.92	-0.03	0.750			
0.5195	33248.54	3.7150	3.7149	1.9436	25.91	-0.04	0.750			
0.5254	33626.79	3.7120	3.7119	1.9995	25.89	-0.06	0.750			
0.5314	34012.53	3.7090	3.7091	2.0594	25.87	-0.08	0.750			
0.5377	34412.45	3.7060	3.7059	2.1138	25.85	-0.10	0.750			
0.5442	34830.35	3.7030	3.7033	2.1760	25.83	-0.12	0.750			
0.5509	35257.63	3.7000	3.7000	2.2560	25.82	-0.13	0.750			
0.5577	35692.17	3.6970	3.6970	2.3303	25.80	-0.15	0.750			
0.5647	36143.03	3.6940	3.6939	2.4092	25.78	-0.17	0.750			
0.5722	36618.79	3.6910	3.6910	2.4844	25.76	-0.19	0.750			
0.5798	37107.23	3.6880	3.6881	2.5688	25.75	-0.20	0.750			
0.5876	37607.71	3.6850	3.6851	2.6640	25.73	-0.22	0.750			
0.5957	38123.39	3.6820	3.6820	2.7580	25.72	-0.23	0.750			
0.6041	38659.85	3.6790	3.6789	2.8623	25.70	-0.25	0.750			
0.6129	39225.64	3.6760	3.6760	2.9230	25.69	-0.26	0.750			
0.6218	39794.41	3.6730	3.6730	2.9566	25.68	-0.27	0.750			
0.6309	40378.60	3.6700	3.6699	2.8422	25.68	-0.27	0.750			
0.6395	40925.70	3.6670	3.6670	2.6611	25.67	-0.28	0.750			
0.6470	41405.76	3.6640	3.6640	2.4054	25.66	-0.29	0.750			
0.6535	41826.88	3.6610	3.6611	2.1388	25.66	-0.29	0.750			
0.6594	42202.04	3.6580	3.6579	1.9195	25.66	-0.29	0.750			
0.6648	42545.93	3.6550	3.6550	1.7562	25.67	-0.28	0.750			
0.6698	42865.58	3.6520	3.6521	1.6263	25.67	-0.28	0.750			
0.6744	43159.73	3.6490	3.6491	1.5094	25.67	-0.28	0.750			
0.6788	43444.79	3.6460	3.6461	1.4207	25.68	-0.27	0.750			
0.6829	43704.37	3.6430	3.6429	1.3393	25.68	-0.27	0.750			
0.6866	43944.14	3.6400	3.6400	1.2596	25.68	-0.27	0.750			
0.6902	44174.91	3.6370	3.6371	1.2223	25.68	-0.27	0.750			
0.6938	44401.60	3.6340	3.6338	1.1955	25.68	-0.27	0.750			
0.6973	44624.47	3.6310	3.6310	1.1839	25.68	-0.27	0.750			
0.7007	44846.83	3.6280	3.6281	1.1849	25.68	-0.27	0.750			
0.7043	45078.40	3.6250	3.6250	1.1935	25.68	-0.27	0.750			
0.7080	45309.62	3.6220	3.6221	1.1973	25.68	-0.27	0.750			
0.7116	45542.17	3.6190	3.6191	1.2023	25.68	-0.27	0.750			
0.7153	45777.20	3.6160	3.6162	1.1973	25.68	-0.27	0.750			
0.7190	46013.86	3.6130	3.6128	1.1869	25.68	-0.27	0.750			
0.7224	46231.95	3.6100	3.6100	1.1512	25.68	-0.27	0.750			
0.7257	46447.16	3.6070	3.6072	1.1389	25.69	-0.26	0.750			
0.7291	46661.91	3.6040	3.6041	1.1414	25.69	-0.26	0.750			
0.7325	46879.54	3.6010	3.6010	1.1405	25.69	-0.26	0.750			
0.7359	47097.00	3.5980	3.5980	1.1489	25.69	-0.26	0.750			
0.7393	47318.28	3.5950	3.5951	1.1753	25.69	-0.26	0.750			
0.7430	47549.35	3.5920	3.5917	1.2026	25.69	-0.26	0.750			
0.7465	47777.55	3.5890	3.5890	1.2340	25.69	-0.26	0.750			
0.7502	48015.43	3.5860	3.5860	1.2803	25.69	-0.26	0.750			
0.7542	48266.59	3.5830	3.5830	1.3123	25.69	-0.26	0.750			
0.7582	48525.31	3.5800	3.5800	1.3713	25.69	-0.26	0.750			
0.7624	48791.78	3.5770	3.5771	1.4194	25.70	-0.25	0.750			
0.7667	49068.25	3.5740	3.5740	1.4669	25.70	-0.25	0.750			
0.7712	49358.65	3.5710	3.5711	1.5063	25.70	-0.25	0.750			
0.7758	49651.25	3.5680	3.5679	1.5401	25.70	-0.25	0.750			
0.7805	49950.98	3.5650	3.5647	1.5719	25.70	-0.25	0.750			
0.7853	50256.39	3.5620	3.5621	1.5895	25.70	-0.25	0.750			
0.7901	50566.89	3.5590	3.5591	1.6139	25.70	-0.25	0.750			
0.7950	50878.78	3.5560	3.5560	1.6292	25.70	-0.25	0.750			
0.8000	51197.46	3.5530	3.5528	1.6590	25.70	-0.25	0.750			
0.8049	51513.17	3.5500	3.5501	1.6753	25.70	-0.25	0.750			
0.8099	51832.78	3.5470	3.5472	1.6929	25.71	-0.24	0.750			
0.8149	52155.47	3.5440	3.5442	1.7272	25.71	-0.24	0.750			
0.8201	52486.90	3.5410	3.5409	1.7646	25.72	-0.23	0.750			
0.8256	52837.67	3.5380	3.5377	1.7913	25.74	-0.21	0.750			
0.8314	53208.46	3.5350	3.5347	1.7129	25.75	-0.20	0.750			
0.8366	53540.28	3.5320	3.5322	1.5487	25.77	-0.18	0.750			
0.8415	53855.20	3.5290	3.5295	1.3231	25.78	-0.17	0.750			
0.8452	54093.99	3.5260	3.5265	1.0449	25.80	-0.15	0.750			
0.8476	54245.42	3.5230	3.5229	0.7773	25.81	-0.14	0.750			
0.8493	54357.51	3.5200	3.5193	0.5807	25.82	-0.13	0.750			
0.8504	54423.73	3.5170	3.5168	0.4464	25.82	-0.13	0.750			
0.8515	54493.16	3.5140	3.5139	0.3802	25.83	-0.12	0.750			
0.8525	54557.51	3.5110	3.5109	0.3453	25.83	-0.12	0.750			
0.8534	54620.48	3.5080	3.5080	0.3259	25.84	-0.11	0.750			
0.8544	54679.58	3.5050	3.5050	0.3121	25.84	-0.11	0.750			
0.8553	54738.43	3.5020	3.5021	0.3018	25.85	-0.10	0.750			
0.8562	54794.69	3.4990	3.4990	0.2906	25.85	-0.10	0.750			
0.8570	54849.66	3.4960	3.4961	0.2832	25.85	-0.10	0.750			
0.8579	54903.78	3.4930	3.4930	0.2764	25.86	-0.09	0.750			
0.8587	54955.69	3.4900	3.4899	0.2702	25.87	-0.08	0.750			
0.8595	55006.56	3.4870	3.4870	0.2635	25.87	-0.08	0.750			
0.8603	55056.37	3.4840	3.4839	0.2580	25.88	-0.07	0.750			
0.8610	55105.74	3.4810	3.4809	0.2520	25.89	-0.06	0.750			
0.8618	55153.62	3.4780	3.4781	0.2463	25.89	-0.06	0.750			
0.8625	55199.84	3.4750	3.4750	0.2402	25.90	-0.05	0.750			
0.8632	55245.89	3.4720	3.4720	0.2364	25.91	-0.04	0.750			
0.8639	55289.94	3.4690	3.4689	0.2300	25.91	-0.04	0.750			
0.8646	55334.10	3.4660	3.4660	0.2249	25.92	-0.03	0.750			
0.8653	55376.56	3.4630	3.4630	0.2206	25.92	-0.03	0.750			
0.8659	55418.73	3.4600	3.4601	0.2162	25.93	-0.02	0.750			
0.8666	55459.60	3.4570	3.4569	0.2118	25.93	-0.02	0.750			
0.8672	55499.72	3.4540	3.4540	0.2069	25.94	-0.01	0.750			
0.8678	55538.88	3.4510	3.4511	0.2024	25.94	-0.01	0.750			
0.8684	55577.50	3.4480	3.4478	0.1977	25.95	-0.00	0.750			
0.8690	55615.04	3.4450	3.4451	0.1929	25.95	0.00	0.750			
0.8696	55652.10	3.4420	3.4420	0.1879	25.96	0.01	0.750			
0.8701	55687.51	3.4390	3.4390	0.1819	25.96	0.01	0.750			
0.8707	55722.08	3.4360	3.4360	0.1767	25.97	0.02	0.750			
0.8712	55755.08	3.4330	3.4331	0.1710	25.97	0.02	0.750			
0.8717	55787.41	3.4300	3.4300	0.1659	25.98	0.03	0.750			
0.8722	55818.95	3.4270	3.4269	0.1601	25.98	0.03	0.750			
0.8726	55849.16	3.4240	3.4240	0.1545	25.99	0.04	0.750			
0.8731	55878.17	3.4210	3.4214	0.1493	25.99	0.04	0.750			
0.8735	55906.64	3.4180	3.4179	0.1441	25.99	0.04	0.750			
0.8740	55933.74	3.4150	3.4148	0.1381	26.00	0.05	0.750			
0.8744	55959.87	3.4120	3.4121	0.1309	26.00	0.05	0.750			
0.8748	55984.40	3.4090	3.4090	0.1242	26.00	0.05	0.750			
0.8751	56007.64	3.4060	3.4061	0.1169	26.01	0.06	0.750			
0.8755	56029.88	3.4030	3.4031	0.1102	26.01	0.06	0.750			
0.8758	56051.07	3.4000	3.3998	0.1000	26.01	0.06	0.750			
0.8761	56069.53	3.3970	3.3970	0.0907	26.01	0.06	0.750			
0.8764	56086.48	3.3940	3.3941	0.0818	26.02	0.07	0.750			
0.8766	56101.15	3.3910	3.3913	0.0711	26.02	0.07	0.750			
0.8768	56115.10	3.3880	3.3884	0.0609	26.02	0.07	0.750			
0.8770	56125.60	3.3850	3.3858	0.0485	26.02	0.07	0.750			
0.8771	56133.71	3.3820	3.3833	0.0360	26.02	0.07	0.750			
0.8772	56139.43	3.3790	3.3809	0.0235	26.02	0.07	0.750			
