Ah_balance (normalized)	Ah_balance (mAh)	Voltage - fit (V)	Voltage -  interpolate (V)	dQ/dV (1/V)	Temperature (°C)	Temperature - diff (°C)	Current (C)	R_DC 0ms (mOhm)	R_DC 50ms (mOhm)	R_DC 50 ms PEC (mOhm)
0.0004	26.36	4.1640	4.1636	-0.1391	25.86	0.01	-0.750			
0.0009	58.02	4.1610	4.1609	-0.1869	25.86	0.01	-0.750			
0.0015	98.55	4.1580	4.1580	-0.2317	25.86	0.01	-0.750			
0.0023	147.37	4.1550	4.1550	-0.2745	25.86	0.01	-0.750			
0.0032	204.29	4.1520	4.1521	-0.3173	25.86	0.01	-0.750			
0.0042	270.43	4.1490	4.1490	-0.3574	25.86	0.01	-0.750			
0.0054	343.19	4.1460	4.1459	-0.3959	25.85	0.00	-0.750			
0.0066	423.66	4.1430	4.1431	-0.4309	25.85	-0.00	-0.750			
0.0080	509.83	4.1400	4.1400	-0.4644	25.85	-0.00	-0.750			
0.0094	602.96	4.1370	4.1370	-0.4975	25.84	-0.01	-0.750			
0.0110	702.01	4.1340	4.1340	-0.5265	25.84	-0.01	-0.750			
0.0126	805.41	4.1310	4.1310	-0.5553	25.84	-0.01	-0.750			
0.0143	916.72	4.1280	4.1280	-0.5788	25.83	-0.02	-0.750			
0.0161	1031.92	4.1250	4.1250	-0.5986	25.83	-0.02	-0.750			
0.0180	1149.25	4.1220	4.1218	-0.6135	25.82	-0.03	-0.750			
0.0198	1269.38	4.1190	4.1191	-0.6230	25.82	-0.03	-0.750			
0.0217	1388.86	4.1160	4.1160	-0.6358	25.82	-0.03	-0.750			
0.0236	1510.52	4.1130	4.1130	-0.6496	25.82	-0.03	-0.750			
0.0255	1634.94	4.1100	4.1101	-0.6644	25.81	-0.04	-0.750			
0.0276	1768.75	4.1070	4.1069	-0.6744	25.81	-0.04	-0.750			
0.0297	1901.71	4.1040	4.1040	-0.6833	25.81	-0.04	-0.750			
0.0318	2033.69	4.1010	4.1013	-0.6875	25.81	-0.04	-0.750			
0.0339	2166.73	4.0980	4.0979	-0.6940	25.81	-0.04	-0.750			
0.0359	2297.50	4.0950	4.0949	-0.6937	25.80	-0.05	-0.750			
0.0379	2427.98	4.0920	4.0921	-0.6963	25.80	-0.05	-0.750			
0.0401	2564.85	4.0890	4.0890	-0.7066	25.80	-0.05	-0.750			
0.0422	2701.75	4.0860	4.0858	-0.7119	25.79	-0.06	-0.750			
0.0444	2839.59	4.0830	4.0832	-0.7129	25.79	-0.06	-0.750			
0.0465	2975.68	4.0800	4.0800	-0.7183	25.79	-0.06	-0.750			
0.0486	3113.10	4.0770	4.0770	-0.7234	25.79	-0.06	-0.750			
0.0508	3253.46	4.0740	4.0740	-0.7303	25.79	-0.06	-0.750			
0.0530	3393.95	4.0710	4.0709	-0.7320	25.79	-0.06	-0.750			
0.0552	3535.21	4.0680	4.0680	-0.7366	25.79	-0.06	-0.750			
0.0575	3678.23	4.0650	4.0650	-0.7372	25.79	-0.06	-0.750			
0.0597	3820.00	4.0620	4.0620	-0.7398	25.79	-0.06	-0.750			
0.0619	3960.31	4.0590	4.0590	-0.7429	25.79	-0.06	-0.750			
0.0641	4103.08	4.0560	4.0560	-0.7473	25.78	-0.07	-0.750			
0.0664	4249.22	4.0530	4.0530	-0.7469	25.78	-0.07	-0.750			
0.0686	4393.49	4.0500	4.0500	-0.7496	25.78	-0.07	-0.750			
0.0709	4537.03	4.0470	4.0471	-0.7493	25.78	-0.07	-0.750			
0.0731	4681.59	4.0440	4.0438	-0.7518	25.78	-0.07	-0.750			
0.0754	4824.29	4.0410	4.0410	-0.7478	25.78	-0.07	-0.750			
0.0776	4966.53	4.0380	4.0382	-0.7496	25.78	-0.07	-0.750			
0.0799	5111.79	4.0350	4.0349	-0.7585	25.78	-0.07	-0.750			
0.0822	5259.19	4.0320	4.0320	-0.7639	25.78	-0.07	-0.750			
0.0844	5404.66	4.0290	4.0290	-0.7655	25.78	-0.07	-0.750			
0.0868	5553.11	4.0260	4.0260	-0.7737	25.78	-0.07	-0.750			
0.0891	5705.08	4.0230	4.0230	-0.7752	25.79	-0.06	-0.750			
0.0915	5854.91	4.0200	4.0199	-0.7747	25.79	-0.06	-0.750			
0.0938	6002.43	4.0170	4.0174	-0.7715	25.79	-0.06	-0.750			
0.0961	6150.24	4.0140	4.0139	-0.7669	25.79	-0.06	-0.750			
0.0984	6296.35	4.0110	4.0110	-0.7694	25.79	-0.06	-0.750			
0.1007	6441.82	4.0080	4.0080	-0.7683	25.79	-0.06	-0.750			
0.1030	6591.99	4.0050	4.0050	-0.7780	25.79	-0.06	-0.750			
0.1053	6740.75	4.0020	4.0019	-0.7744	25.79	-0.06	-0.750			
0.1076	6889.47	3.9990	3.9991	-0.7745	25.79	-0.06	-0.750			
0.1099	7036.39	3.9960	3.9961	-0.7807	25.79	-0.06	-0.750			
0.1123	7186.60	3.9930	3.9928	-0.7839	25.79	-0.06	-0.750			
0.1146	7335.53	3.9900	3.9901	-0.7875	25.80	-0.05	-0.750			
0.1170	7488.63	3.9870	3.9869	-0.7956	25.80	-0.05	-0.750			
0.1195	7644.96	3.9840	3.9842	-0.7959	25.80	-0.05	-0.750			
0.1218	7798.13	3.9810	3.9810	-0.8000	25.80	-0.05	-0.750			
0.1242	7951.46	3.9780	3.9781	-0.7996	25.80	-0.05	-0.750			
0.1266	8104.73	3.9750	3.9749	-0.7958	25.81	-0.04	-0.750			
0.1290	8256.95	3.9720	3.9719	-0.7978	25.81	-0.04	-0.750			
0.1314	8409.27	3.9690	3.9692	-0.7974	25.81	-0.04	-0.750			
0.1338	8561.94	3.9660	3.9659	-0.8052	25.81	-0.04	-0.750			
0.1362	8718.27	3.9630	3.9630	-0.8118	25.81	-0.04	-0.750			
0.1387	8874.21	3.9600	3.9599	-0.8063	25.82	-0.03	-0.750			
0.1411	9030.65	3.9570	3.9570	-0.8068	25.82	-0.03	-0.750			
0.1436	9187.40	3.9540	3.9542	-0.8088	25.82	-0.03	-0.750			
0.1460	9341.07	3.9510	3.9508	-0.8094	25.82	-0.03	-0.750			
0.1483	9493.90	3.9480	3.9479	-0.8144	25.82	-0.03	-0.750			
0.1508	9649.40	3.9450	3.9450	-0.8201	25.82	-0.03	-0.750			
0.1533	9808.31	3.9420	3.9420	-0.8204	25.82	-0.03	-0.750			
0.1558	9970.89	3.9390	3.9390	-0.8310	25.82	-0.03	-0.750			
0.1583	10129.51	3.9360	3.9360	-0.8314	25.82	-0.03	-0.750			
0.1608	10289.20	3.9330	3.9329	-0.8331	25.83	-0.02	-0.750			
0.1633	10449.52	3.9300	3.9299	-0.8315	25.83	-0.02	-0.750			
0.1658	10608.27	3.9270	3.9270	-0.8257	25.83	-0.02	-0.750			
0.1683	10768.28	3.9240	3.9241	-0.8322	25.84	-0.01	-0.750			
0.1708	10928.06	3.9210	3.9209	-0.8346	25.84	-0.01	-0.750			
0.1732	11086.47	3.9180	3.9178	-0.8356	25.84	-0.01	-0.750			
0.1757	11247.58	3.9150	3.9150	-0.8365	25.85	-0.00	-0.750			
0.1783	11409.32	3.9120	3.9120	-0.8344	25.85	-0.00	-0.750			
0.1808	11572.81	3.9090	3.9090	-0.8398	25.85	-0.00	-0.750			
0.1833	11732.79	3.9060	3.9059	-0.8422	25.85	0.00	-0.750			
0.1858	11891.30	3.9030	3.9029	-0.8439	25.86	0.01	-0.750			
0.1883	12054.18	3.9000	3.8999	-0.8500	25.86	0.01	-0.750			
0.1909	12217.73	3.8970	3.8970	-0.8495	25.87	0.02	-0.750			
0.1935	12386.63	3.8940	3.8941	-0.8541	25.87	0.02	-0.750			
0.1961	12549.71	3.8910	3.8909	-0.8556	25.87	0.02	-0.750			
0.1986	12713.02	3.8880	3.8880	-0.8550	25.87	0.02	-0.750			
0.2012	12875.92	3.8850	3.8849	-0.8518	25.88	0.03	-0.750			
0.2037	13038.23	3.8820	3.8820	-0.8513	25.88	0.03	-0.750			
0.2063	13204.89	3.8790	3.8792	-0.8579	25.88	0.03	-0.750			
0.2089	13369.09	3.8760	3.8759	-0.8611	25.88	0.03	-0.750			
0.2115	13535.28	3.8730	3.8730	-0.8638	25.88	0.03	-0.750			
0.2141	13699.95	3.8700	3.8700	-0.8614	25.89	0.04	-0.750			
0.2167	13867.53	3.8670	3.8668	-0.8667	25.89	0.04	-0.750			
0.2193	14034.64	3.8640	3.8642	-0.8625	25.89	0.04	-0.750			
0.2218	14197.88	3.8610	3.8611	-0.8671	25.89	0.04	-0.750			
0.2245	14365.01	3.8580	3.8579	-0.8644	25.89	0.04	-0.750			
0.2270	14530.70	3.8550	3.8550	-0.8636	25.90	0.05	-0.750			
0.2296	14694.68	3.8520	3.8518	-0.8666	25.90	0.05	-0.750			
0.2322	14862.86	3.8490	3.8492	-0.8632	25.90	0.05	-0.750			
0.2348	15028.50	3.8460	3.8460	-0.8711	25.90	0.05	-0.750			
0.2374	15195.65	3.8430	3.8430	-0.8735	25.90	0.05	-0.750			
0.2400	15361.75	3.8400	3.8401	-0.8729	25.91	0.06	-0.750			
0.2427	15532.99	3.8370	3.8370	-0.8788	25.91	0.06	-0.750			
0.2453	15701.70	3.8340	3.8340	-0.8786	25.91	0.06	-0.750			
0.2480	15870.32	3.8310	3.8310	-0.8810	25.91	0.06	-0.750			
0.2507	16042.29	3.8280	3.8279	-0.8824	25.92	0.07	-0.750			
0.2533	16209.50	3.8250	3.8250	-0.8732	25.92	0.07	-0.750			
0.2559	16376.99	3.8220	3.8220	-0.8741	25.92	0.07	-0.750			
0.2585	16544.80	3.8190	3.8190	-0.8708	25.92	0.07	-0.750			
0.2611	16711.29	3.8160	3.8160	-0.8773	25.92	0.07	-0.750			
0.2638	16880.45	3.8130	3.8129	-0.8723	25.93	0.08	-0.750			
0.2664	17047.35	3.8100	3.8099	-0.8725	25.93	0.08	-0.750			
0.2690	17218.23	3.8070	3.8073	-0.8700	25.93	0.08	-0.750			
0.2716	17383.34	3.8040	3.8041	-0.8705	25.93	0.08	-0.750			
0.2742	17548.94	3.8010	3.8009	-0.8661	25.94	0.09	-0.750			
0.2768	17715.16	3.7980	3.7980	-0.8680	25.94	0.09	-0.750			
0.2794	17879.66	3.7950	3.7948	-0.8687	25.95	0.10	-0.750			
0.2820	18047.99	3.7920	3.7923	-0.8715	25.95	0.10	-0.750			
0.2846	18215.66	3.7890	3.7891	-0.8769	25.95	0.10	-0.750			
0.2873	18387.38	3.7860	3.7859	-0.8747	25.96	0.11	-0.750			
0.2899	18555.37	3.7830	3.7829	-0.8653	25.96	0.11	-0.750			
0.2925	18719.31	3.7800	3.7801	-0.8661	25.97	0.12	-0.750			
0.2951	18884.59	3.7770	3.7771	-0.8635	25.97	0.12	-0.750			
0.2977	19050.22	3.7740	3.7739	-0.8644	25.97	0.12	-0.750			
0.3002	19215.41	3.7710	3.7710	-0.8674	25.97	0.12	-0.750			
0.3028	19382.22	3.7680	3.7680	-0.8613	25.97	0.12	-0.750			
0.3055	19550.64	3.7650	3.7650	-0.8614	25.97	0.12	-0.750			
0.3081	19716.85	3.7620	3.7619	-0.8594	25.97	0.12	-0.750			
0.3106	19877.95	3.7590	3.7591	-0.8577	25.98	0.13	-0.750			
0.3131	20041.46	3.7560	3.7560	-0.8581	25.98	0.13	-0.750			
0.3157	20206.43	3.7530	3.7529	-0.8575	25.98	0.13	-0.750			
0.3183	20373.69	3.7500	3.7500	-0.8560	25.99	0.14	-0.750			
0.3209	20537.87	3.7470	3.7471	-0.8661	25.99	0.14	-0.750			
0.3235	20704.37	3.7440	3.7440	-0.8661	25.99	0.14	-0.750			
0.3261	20870.21	3.7410	3.7410	-0.8647	25.99	0.14	-0.750			
0.3287	21035.67	3.7380	3.7379	-0.8657	25.99	0.14	-0.750			
0.3313	21202.26	3.7350	3.7350	-0.8738	25.99	0.14	-0.750			
0.3339	21370.94	3.7320	3.7320	-0.8836	25.99	0.14	-0.750			
0.3366	21541.33	3.7290	3.7288	-0.8942	25.99	0.14	-0.750			
0.3393	21712.01	3.7260	3.7260	-0.8944	26.00	0.15	-0.750			
0.3420	21885.93	3.7230	3.7230	-0.9058	26.00	0.15	-0.750			
0.3447	22060.21	3.7200	3.7202	-0.9131	26.00	0.15	-0.750			
0.3474	22235.08	3.7170	3.7170	-0.9458	26.00	0.15	-0.750			
0.3502	22415.97	3.7140	3.7139	-0.9608	26.00	0.15	-0.750			
0.3532	22603.50	3.7110	3.7108	-0.9830	26.01	0.16	-0.750			
0.3562	22796.84	3.7080	3.7083	-0.9976	26.01	0.16	-0.750			
0.3593	22994.41	3.7050	3.7050	-1.0232	26.01	0.16	-0.750			
0.3624	23191.91	3.7020	3.7020	-1.0301	26.01	0.16	-0.750			
0.3655	23389.24	3.6990	3.6989	-1.0343	26.01	0.16	-0.750			
0.3685	23584.53	3.6960	3.6960	-1.0414	26.01	0.16	-0.750			
0.3717	23786.02	3.6930	3.6930	-1.0706	26.01	0.16	-0.750			
0.3749	23993.18	3.6900	3.6898	-1.0871	26.00	0.15	-0.750			
0.3782	24202.96	3.6870	3.6870	-1.1134	26.00	0.15	-0.750			
0.3815	24417.42	3.6840	3.6844	-1.1394	25.99	0.14	-0.750			
0.3850	24637.89	3.6810	3.6809	-1.1771	25.99	0.14	-0.750			
0.3886	24868.33	3.6780	3.6780	-1.2102	25.98	0.13	-0.750			
0.3922	25099.08	3.6750	3.6750	-1.2426	25.98	0.13	-0.750			
0.3961	25347.59	3.6720	3.6717	-1.2731	25.98	0.13	-0.750			
0.3999	25596.38	3.6690	3.6692	-1.2936	25.97	0.12	-0.750			
0.4038	25844.66	3.6660	3.6659	-1.3153	25.96	0.11	-0.750			
0.4078	26098.52	3.6630	3.6630	-1.3344	25.95	0.10	-0.750			
0.4118	26356.43	3.6600	3.6599	-1.3589	25.95	0.10	-0.750			
0.4159	26617.33	3.6570	3.6569	-1.3823	25.94	0.09	-0.750			
0.4200	26882.59	3.6540	3.6542	-1.4218	25.94	0.09	-0.750			
0.4244	27164.74	3.6510	3.6509	-1.4652	25.93	0.08	-0.750			
0.4289	27450.99	3.6480	3.6479	-1.4916	25.92	0.07	-0.750			
0.4334	27738.37	3.6450	3.6447	-1.5239	25.92	0.07	-0.750			
0.4380	28032.32	3.6420	3.6420	-1.5631	25.91	0.06	-0.750			
0.4428	28336.81	3.6390	3.6391	-1.5920	25.90	0.05	-0.750			
0.4476	28644.05	3.6360	3.6359	-1.5900	25.89	0.04	-0.750			
0.4524	28953.89	3.6330	3.6331	-1.6287	25.88	0.03	-0.750			
0.4574	29271.86	3.6300	3.6302	-1.6681	25.87	0.02	-0.750			
0.4623	29589.44	3.6270	3.6267	-1.7100	25.86	0.01	-0.750	0.409	0.495	
0.4675	29917.10	3.6240	3.6241	-1.7366	25.85	0.00	-0.750			
0.4728	30257.07	3.6210	3.6210	-1.7778	25.84	-0.01	-0.750			
0.4783	30609.43	3.6180	3.6177	-1.8223	25.83	-0.02	-0.750			
0.4838	30962.22	3.6150	3.6148	-1.8484	25.82	-0.03	-0.750			
0.4893	31315.86	3.6120	3.6120	-1.8958	25.82	-0.03	-0.750			
0.4950	31681.94	3.6090	3.6091	-1.9376	25.82	-0.03	-0.750			
0.5010	32063.94	3.6060	3.6057	-1.9850	25.81	-0.04	-0.750			
0.5070	32448.15	3.6030	3.6030	-1.9985	25.80	-0.05	-0.750			
0.5131	32837.95	3.6000	3.6001	-2.0398	25.79	-0.06	-0.750			
0.5192	33229.72	3.5970	3.5971	-2.0814	25.79	-0.06	-0.750			
0.5255	33632.93	3.5940	3.5939	-2.1066	25.78	-0.07	-0.750			
0.5318	34037.77	3.5910	3.5909	-2.1471	25.77	-0.08	-0.750			
0.5384	34455.22	3.5880	3.5882	-2.1955	25.77	-0.08	-0.750			
0.5451	34886.69	3.5850	3.5850	-2.2352	25.77	-0.08	-0.750			
0.5519	35321.20	3.5820	3.5819	-2.2595	25.76	-0.09	-0.750			
0.5586	35753.46	3.5790	3.5790	-2.2734	25.76	-0.09	-0.750			
0.5655	36193.67	3.5760	3.5761	-2.3087	25.75	-0.10	-0.750			
0.5725	36641.86	3.5730	3.5729	-2.3196	25.75	-0.10	-0.750			
0.5795	37085.49	3.5700	3.5700	-2.3401	25.75	-0.10	-0.750			
0.5865	37538.49	3.5670	3.5670	-2.3573	25.75	-0.10	-0.750			
0.5937	37999.56	3.5640	3.5640	-2.3745	25.76	-0.09	-0.750			
0.6009	38455.88	3.5610	3.5609	-2.3635	25.76	-0.09	-0.750			
0.6079	38907.16	3.5580	3.5581	-2.3736	25.76	-0.09	-0.750			
0.6150	39362.53	3.5550	3.5551	-2.3727	25.77	-0.08	-0.750			
0.6222	39822.85	3.5520	3.5518	-2.3681	25.77	-0.08	-0.750			
0.6293	40273.25	3.5490	3.5491	-2.3298	25.77	-0.08	-0.750			
0.6364	40728.85	3.5460	3.5461	-2.2917	25.77	-0.08	-0.750			
0.6432	41167.37	3.5430	3.5429	-2.2674	25.78	-0.07	-0.750			
0.6498	41589.51	3.5400	3.5399	-2.2424	25.78	-0.07	-0.750			
0.6565	42017.29	3.5370	3.5368	-2.2116	25.79	-0.06	-0.750			
0.6632	42441.83	3.5340	3.5339	-2.1936	25.80	-0.05	-0.750			
0.6698	42866.65	3.5310	3.5312	-2.1484	25.81	-0.04	-0.750			
0.6763	43281.17	3.5280	3.5280	-2.1204	25.82	-0.03	-0.750			
0.6825	43682.00	3.5250	3.5250	-2.0695	25.82	-0.03	-0.750			
0.6886	44068.62	3.5220	3.5219	-1.9893	25.84	-0.01	-0.750			
0.6945	44449.41	3.5190	3.5191	-1.9300	25.85	0.00	-0.750			
0.7002	44815.85	3.5160	3.5160	-1.8786	25.87	0.02	-0.750			
0.7058	45171.84	3.5130	3.5127	-1.8184	25.89	0.04	-0.750			
0.7111	45513.18	3.5100	3.5099	-1.7592	25.90	0.05	-0.750			
0.7163	45841.58	3.5070	3.5070	-1.6882	25.92	0.07	-0.750			
0.7213	46161.44	3.5040	3.5037	-1.6309	25.94	0.09	-0.750			
0.7262	46474.18	3.5010	3.5011	-1.5724	25.95	0.10	-0.750			
0.7308	46772.75	3.4980	3.4981	-1.5197	25.97	0.12	-0.750			
0.7352	47054.97	3.4950	3.4949	-1.4514	25.98	0.13	-0.750			
0.7394	47321.38	3.4920	3.4920	-1.3903	26.00	0.15	-0.750			
0.7435	47586.54	3.4890	3.4892	-1.3577	26.01	0.16	-0.750			
0.7476	47843.54	3.4860	3.4859	-1.3145	26.03	0.18	-0.750			
0.7515	48092.88	3.4830	3.4829	-1.2695	26.05	0.20	-0.750			
0.7552	48331.51	3.4800	3.4800	-1.2263	26.06	0.21	-0.750			
0.7588	48564.81	3.4770	3.4770	-1.1971	26.08	0.23	-0.750			
0.7623	48789.07	3.4740	3.4739	-1.1531	26.09	0.24	-0.750			
0.7657	49005.84	3.4710	3.4709	-1.1101	26.10	0.25	-0.750			
0.7690	49214.43	3.4680	3.4683	-1.0722	26.11	0.26	-0.750			
0.7722	49418.96	3.4650	3.4650	-1.0445	26.13	0.28	-0.750			
0.7752	49614.39	3.4620	3.4619	-1.0093	26.14	0.29	-0.750			
0.7782	49802.38	3.4590	3.4590	-0.9762	26.15	0.30	-0.750			
0.7811	49988.13	3.4560	3.4560	-0.9517	26.17	0.32	-0.750			
0.7838	50164.76	3.4530	3.4530	-0.9407	26.18	0.33	-0.750			
0.7866	50340.35	3.4500	3.4501	-0.9369	26.19	0.34	-0.750			
0.7893	50517.28	3.4470	3.4469	-0.9430	26.20	0.35	-0.750			
0.7921	50695.54	3.4440	3.4439	-0.9604	26.20	0.35	-0.750			
0.7950	50879.58	3.4410	3.4411	-0.9943	26.21	0.36	-0.750			
0.7980	51074.14	3.4380	3.4381	-1.0340	26.22	0.37	-0.750			
0.8012	51277.87	3.4350	3.4348	-1.0735	26.23	0.38	-0.750			
0.8045	51486.32	3.4320	3.4320	-1.1020	26.24	0.39	-0.750			
0.8079	51706.14	3.4290	3.4291	-1.1399	26.25	0.40	-0.750			
0.8114	51932.67	3.4260	3.4260	-1.1634	26.27	0.42	-0.750			
0.8150	52160.52	3.4230	3.4229	-1.1632	26.28	0.43	-0.750			
0.8185	52384.50	3.4200	3.4201	-1.1541	26.29	0.44	-0.750			
0.8220	52608.20	3.4170	3.4170	-1.1406	26.29	0.44	-0.750			
0.8255	52829.28	3.4140	3.4139	-1.1092	26.30	0.45	-0.750			
0.8287	53038.65	3.4110	3.4110	-1.0736	26.31	0.46	-0.750			
0.8319	53239.84	3.4080	3.4082	-1.0347	26.31	0.46	-0.750			
0.8349	53436.37	3.4050	3.4049	-1.0013	26.32	0.47	-0.750			
0.8379	53624.68	3.4020	3.4019	-0.9623	26.33	0.48	-0.750			
0.8407	53804.72	3.3990	3.3988	-0.9226	26.34	0.49	-0.750			
0.8434	53980.51	3.3960	3.3961	-0.8873	26.35	0.50	-0.750			
0.8460	54146.90	3.3930	3.3930	-0.8511	26.36	0.51	-0.750			
0.8485	54303.52	3.3900	3.3900	-0.8189	26.36	0.51	-0.750			
0.8509	54457.63	3.3870	3.3870	-0.7881	26.37	0.52	-0.750			
0.8532	54603.71	3.3840	3.3838	-0.7572	26.38	0.53	-0.750			
0.8554	54747.66	3.3810	3.3810	-0.7288	26.39	0.54	-0.750			
0.8576	54885.33	3.3780	3.3778	-0.6995	26.39	0.54	-0.750			
0.8597	55018.08	3.3750	3.3750	-0.6750	26.40	0.55	-0.750			
0.8616	55143.73	3.3720	3.3719	-0.6434	26.41	0.56	-0.750			
0.8635	55261.49	3.3690	3.3690	-0.6133	26.41	0.56	-0.750			
0.8653	55379.26	3.3660	3.3660	-0.5935	26.42	0.57	-0.750			
0.8670	55489.94	3.3630	3.3630	-0.5685	26.42	0.57	-0.750			
0.8687	55596.75	3.3600	3.3599	-0.5455	26.43	0.58	-0.750			
0.8703	55698.46	3.3570	3.3570	-0.5239	26.44	0.59	-0.750			
0.8718	55796.48	3.3540	3.3539	-0.5022	26.44	0.59	-0.750			
0.8733	55890.98	3.3510	3.3510	-0.4831	26.45	0.60	-0.750			
0.8747	55981.99	3.3480	3.3480	-0.4619	26.45	0.60	-0.750			
0.8761	56068.97	3.3450	3.3450	-0.4430	26.46	0.61	-0.750			
0.8774	56151.96	3.3420	3.3420	-0.4244	26.46	0.61	-0.750			
0.8786	56230.46	3.3390	3.3390	-0.4058	26.47	0.62	-0.750			
0.8798	56306.63	3.3360	3.3359	-0.3884	26.47	0.62	-0.750			
0.8809	56379.45	3.3330	3.3330	-0.3722	26.48	0.63	-0.750			
0.8820	56449.13	3.3300	3.3300	-0.3570	26.48	0.63	-0.750			
0.8831	56516.79	3.3270	3.3270	-0.3434	26.49	0.64	-0.750			
0.8841	56580.91	3.3240	3.3239	-0.3274	26.50	0.65	-0.750			
0.8850	56641.30	3.3210	3.3210	-0.3144	26.50	0.65	-0.750			
0.8859	56700.33	3.3180	3.3180	-0.3041	26.51	0.66	-0.750			
0.8868	56757.58	3.3150	3.3150	-0.2938	26.51	0.66	-0.750			
0.8877	56812.92	3.3120	3.3120	-0.2830	26.52	0.67	-0.750			
0.8885	56866.26	3.3090	3.3091	-0.2734	26.53	0.68	-0.750			
0.8893	56917.98	3.3060	3.3060	-0.2646	26.53	0.68	-0.750			
0.8901	56967.93	3.3030	3.3030	-0.2551	26.54	0.69	-0.750			
0.8909	57015.34	3.3000	3.2999	-0.2456	26.54	0.69	-0.750			
0.8916	57061.20	3.2970	3.2971	-0.2375	26.54	0.69	-0.750			
0.8923	57105.69	3.2940	3.2940	-0.2305	26.55	0.70	-0.750			
0.8930	57149.47	3.2910	3.2909	-0.2246	26.55	0.70	-0.750			
0.8936	57192.04	3.2880	3.2880	-0.2184	26.56	0.71	-0.750			
0.8943	57233.24	3.2850	3.2849	-0.2118	26.56	0.71	-0.750			
0.8949	57273.31	3.2820	3.2820	-0.2061	26.57	0.72	-0.750			
0.8955	57312.21	3.2790	3.2790	-0.2006	26.57	0.72	-0.750			
0.8961	57350.10	3.2760	3.2760	-0.1949	26.57	0.72	-0.750			
0.8967	57386.75	3.2730	3.2729	-0.1903	26.58	0.73	-0.750			
0.8972	57422.59	3.2700	3.2700	-0.1858	26.58	0.73	-0.750			
0.8978	57457.60	3.2670	3.2671	-0.1820	26.58	0.73	-0.750			
0.8983	57492.23	3.2640	3.2639	-0.1788	26.59	0.74	-0.750			
0.8988	57526.24	3.2610	3.2610	-0.1753	26.59	0.74	-0.750			
0.8994	57559.44	3.2580	3.2580	-0.1723	26.59	0.74	-0.750			
0.8999	57592.24	3.2550	3.2551	-0.1694	26.60	0.75	-0.750			
0.9004	57624.50	3.2520	3.2519	-0.1664	26.60	0.75	-0.750			
0.9009	57656.26	3.2490	3.2489	-0.1628	26.60	0.75	-0.750			
0.9014	57687.39	3.2460	3.2460	-0.1595	26.61	0.76	-0.750			
0.9018	57717.67	3.2430	3.2431	-0.1557	26.61	0.76	-0.750			
0.9023	57746.94	3.2400	3.2400	-0.1537	26.61	0.76	-0.750			
0.9028	57776.01	3.2370	3.2370	-0.1516	26.62	0.77	-0.750			
0.9032	57804.75	3.2340	3.2338	-0.1485	26.62	0.77	-0.750			
0.9036	57833.10	3.2310	3.2310	-0.1468	26.62	0.77	-0.750			
0.9041	57861.12	3.2280	3.2280	-0.1446	26.62	0.77	-0.750			
0.9045	57888.86	3.2250	3.2251	-0.1433	26.63	0.78	-0.750			
0.9049	57916.27	3.2220	3.2219	-0.1412	26.63	0.78	-0.750			
0.9054	57943.16	3.2190	3.2189	-0.1388	26.63	0.78	-0.750			
0.9058	57969.27	3.2160	3.2160	-0.1361	26.64	0.79	-0.750			
0.9062	57995.07	3.2130	3.2130	-0.1348	26.64	0.79	-0.750			
0.9066	58020.73	3.2100	3.2101	-0.1338	26.64	0.79	-0.750			
0.9070	58046.30	3.2070	3.2070	-0.1326	26.65	0.80	-0.750			
0.9074	58071.53	3.2040	3.2039	-0.1310	26.65	0.80	-0.750			
0.9078	58096.39	3.2010	3.2010	-0.1298	26.66	0.81	-0.750			
0.9081	58121.58	3.1980	3.1980	-0.1287	26.66	0.81	-0.750			
0.9085	58146.11	3.1950	3.1951	-0.1269	26.67	0.82	-0.750			
0.9089	58170.49	3.1920	3.1920	-0.1256	26.67	0.82	-0.750			
0.9093	58194.22	3.1890	3.1890	-0.1234	26.67	0.82	-0.750			
0.9097	58217.67	3.1860	3.1860	-0.1223	26.68	0.83	-0.750			
0.9100	58240.82	3.1830	3.1830	-0.1209	26.68	0.83	-0.750			
0.9104	58263.95	3.1800	3.1800	-0.1197	26.69	0.84	-0.750			
0.9107	58286.83	3.1770	3.1770	-0.1186	26.69	0.84	-0.750			
0.9111	58309.47	3.1740	3.1740	-0.1178	26.70	0.85	-0.750			
0.9114	58332.00	3.1710	3.1710	-0.1169	26.70	0.85	-0.750			
0.9118	58354.26	3.1680	3.1680	-0.1161	26.70	0.85	-0.750			
0.9121	58376.48	3.1650	3.1649	-0.1154	26.71	0.86	-0.750			
0.9125	58398.58	3.1620	3.1621	-0.1144	26.71	0.86	-0.750			
0.9128	58420.47	3.1590	3.1589	-0.1136	26.72	0.87	-0.750			
0.9132	58442.30	3.1560	3.1561	-0.1130	26.72	0.87	-0.750			
0.9135	58463.90	3.1530	3.1530	-0.1120	26.72	0.87	-0.750			
0.9138	58485.50	3.1500	3.1500	-0.1105	26.73	0.88	-0.750			
0.9142	58506.44	3.1470	3.1469	-0.1093	26.73	0.88	-0.750			
0.9145	58527.29	3.1440	3.1441	-0.1080	26.74	0.89	-0.750			
0.9148	58547.80	3.1410	3.1410	-0.1071	26.74	0.89	-0.750			
0.9151	58568.18	3.1380	3.1379	-0.1060	26.74	0.89	-0.750			
0.9154	58588.42	3.1350	3.1350	-0.1054	26.75	0.90	-0.750			
0.9158	58608.38	3.1320	3.1319	-0.1043	26.75	0.90	-0.750			
0.9161	58628.37	3.1290	3.1291	-0.1041	26.75	0.90	-0.750			
0.9164	58648.44	3.1260	3.1259	-0.1040	26.76	0.91	-0.750			
0.9167	58668.36	3.1230	3.1231	-0.1035	26.76	0.91	-0.750			
0.9170	58688.23	3.1200	3.1199	-0.1026	26.76	0.91	-0.750			
0.9173	58707.87	3.1170	3.1170	-0.1020	26.76	0.91	-0.750			
0.9176	58727.42	3.1140	3.1141	-0.1015	26.77	0.92	-0.750			
0.9179	58746.84	3.1110	3.1109	-0.1008	26.77	0.92	-0.750			
0.9182	58766.31	3.1080	3.1080	-0.0998	26.77	0.92	-0.750			
0.9185	58785.36	3.1050	3.1049	-0.0986	26.78	0.93	-0.750			
0.9188	58803.95	3.1020	3.1020	-0.0981	26.78	0.93	-0.750			
0.9191	58822.74	3.0990	3.0992	-0.0976	26.78	0.93	-0.750			
0.9194	58841.53	3.0960	3.0960	-0.0968	26.79	0.94	-0.750			
0.9197	58860.05	3.0930	3.0927	-0.0961	26.79	0.94	-0.750			
0.9200	58878.28	3.0900	3.0900	-0.0954	26.80	0.95	-0.750			
0.9203	58896.55	3.0870	3.0872	-0.0950	26.80	0.95	-0.750			
0.9205	58914.81	3.0840	3.0839	-0.0950	26.80	0.95	-0.750			
0.9208	58933.01	3.0810	3.0810	-0.0945	26.81	0.96	-0.750			
0.9211	58950.95	3.0780	3.0780	-0.0937	26.81	0.96	-0.750			
0.9214	58968.91	3.0750	3.0750	-0.0935	26.82	0.97	-0.750			
0.9217	58987.02	3.0720	3.0719	-0.0934	26.82	0.97	-0.750			
0.9220	59004.90	3.0690	3.0691	-0.0929	26.83	0.98	-0.750			
0.9222	59022.84	3.0660	3.0659	-0.0920	26.83	0.98	-0.750			
0.9225	59040.41	3.0630	3.0630	-0.0910	26.83	0.98	-0.750			
0.9228	59057.60	3.0600	3.0600	-0.0906	26.84	0.99	-0.750			
0.9230	59074.95	3.0570	3.0571	-0.0902	26.84	0.99	-0.750			
0.9233	59092.22	3.0540	3.0539	-0.0896	26.85	1.00	-0.750			
0.9236	59109.38	3.0510	3.0508	-0.0891	26.85	1.00	-0.750			
0.9238	59126.31	3.0480	3.0481	-0.0886	26.85	1.00	-0.750			
0.9241	59143.31	3.0450	3.0451	-0.0885	26.86	1.01	-0.750			
0.9244	59160.55	3.0420	3.0420	-0.0882	26.86	1.01	-0.750			
0.9246	59177.42	3.0390	3.0389	-0.0875	26.87	1.02	-0.750			
0.9249	59193.96	3.0360	3.0360	-0.0868	26.87	1.02	-0.750			
0.9252	59210.59	3.0330	3.0331	-0.0864	26.87	1.02	-0.750			
0.9254	59227.10	3.0300	3.0300	-0.0863	26.88	1.03	-0.750			
0.9257	59243.66	3.0270	3.0270	-0.0861	26.88	1.03	-0.750			
0.9259	59260.23	3.0240	3.0240	-0.0854	26.88	1.03	-0.750			
0.9262	59276.59	3.0210	3.0210	-0.0850	26.89	1.04	-0.750			
0.9265	59293.01	3.0180	3.0180	-0.0840	26.89	1.04	-0.750			
0.9267	59309.39	3.0150	3.0151	-0.0836	26.90	1.05	-0.750			
0.9270	59325.32	3.0120	3.0120	-0.0824	26.90	1.05	-0.750			
0.9272	59341.21	3.0090	3.0091	-0.0810	26.90	1.05	-0.750			
0.9274	59356.62	3.0060	3.0059	-0.0795	26.91	1.06	-0.751			
0.9277	59371.74	3.0030	3.0029	-0.0782	26.91	1.06	-0.751			
