Ah_balance (normalized)	Ah_balance (mAh)	Voltage - fit (V)	Voltage -  interpolate (V)	dQ/dV (1/V)	Temperature (°C)	Temperature - diff (°C)	Current (C)	R_DC 0ms (mOhm)	R_DC 50ms (mOhm)	R_DC 50 ms PEC (mOhm)
0.0003	18.20	4.1650	4.1646	-0.1153	25.90	0.03	-0.750			
0.0007	45.85	4.1620	4.1619	-0.1655	25.90	0.03	-0.750			
0.0013	82.41	4.1590	4.1589	-0.2091	25.90	0.03	-0.750			
0.0020	126.36	4.1560	4.1560	-0.2523	25.90	0.03	-0.750			
0.0028	179.28	4.1530	4.1531	-0.2932	25.89	0.02	-0.750			
0.0037	239.64	4.1500	4.1500	-0.3331	25.89	0.02	-0.750			
0.0048	308.38	4.1470	4.1471	-0.3719	25.89	0.02	-0.750			
0.0060	384.09	4.1440	4.1440	-0.4071	25.88	0.01	-0.750			
0.0073	466.33	4.1410	4.1410	-0.4397	25.88	0.01	-0.750			
0.0087	554.72	4.1380	4.1380	-0.4711	25.87	0.00	-0.750			
0.0101	648.39	4.1350	4.1350	-0.4975	25.87	-0.00	-0.750			
0.0117	747.37	4.1320	4.1320	-0.5256	25.86	-0.01	-0.750			
0.0133	850.97	4.1290	4.1291	-0.5487	25.86	-0.01	-0.750			
0.0150	959.68	4.1260	4.1260	-0.5703	25.85	-0.02	-0.750			
0.0167	1071.98	4.1230	4.1229	-0.5900	25.85	-0.02	-0.750			
0.0186	1187.81	4.1200	4.1200	-0.6052	25.84	-0.03	-0.750			
0.0204	1306.07	4.1170	4.1170	-0.6169	25.84	-0.03	-0.750			
0.0223	1425.77	4.1140	4.1141	-0.6271	25.83	-0.04	-0.750			
0.0242	1546.47	4.1110	4.1110	-0.6366	25.83	-0.04	-0.750			
0.0261	1669.52	4.1080	4.1079	-0.6473	25.82	-0.05	-0.750			
0.0280	1794.64	4.1050	4.1050	-0.6578	25.82	-0.05	-0.750			
0.0300	1921.99	4.1020	4.1019	-0.6656	25.82	-0.05	-0.750			
0.0321	2052.49	4.0990	4.0990	-0.6734	25.81	-0.06	-0.750			
0.0341	2182.77	4.0960	4.0960	-0.6776	25.81	-0.06	-0.750			
0.0361	2313.39	4.0930	4.0930	-0.6816	25.81	-0.06	-0.750			
0.0382	2444.46	4.0900	4.0900	-0.6857	25.81	-0.06	-0.750			
0.0402	2575.96	4.0870	4.0869	-0.6879	25.81	-0.06	-0.750			
0.0423	2708.54	4.0840	4.0840	-0.6868	25.80	-0.07	-0.750			
0.0444	2841.12	4.0810	4.0811	-0.6888	25.80	-0.07	-0.750			
0.0465	2972.99	4.0780	4.0780	-0.6950	25.80	-0.07	-0.750			
0.0485	3105.88	4.0750	4.0749	-0.6999	25.80	-0.07	-0.750			
0.0506	3239.26	4.0720	4.0720	-0.7052	25.80	-0.07	-0.750			
0.0527	3375.58	4.0690	4.0690	-0.7138	25.80	-0.07	-0.750			
0.0549	3514.95	4.0660	4.0660	-0.7221	25.80	-0.07	-0.750			
0.0571	3655.24	4.0630	4.0629	-0.7257	25.80	-0.07	-0.750			
0.0593	3795.16	4.0600	4.0601	-0.7273	25.80	-0.07	-0.750			
0.0615	3934.25	4.0570	4.0570	-0.7276	25.80	-0.07	-0.750			
0.0637	4074.44	4.0540	4.0539	-0.7266	25.80	-0.07	-0.750			
0.0658	4213.89	4.0510	4.0511	-0.7322	25.80	-0.07	-0.750			
0.0680	4353.79	4.0480	4.0480	-0.7349	25.79	-0.08	-0.750			
0.0703	4496.36	4.0450	4.0450	-0.7398	25.79	-0.08	-0.750			
0.0725	4638.98	4.0420	4.0423	-0.7426	25.79	-0.08	-0.750			
0.0747	4781.93	4.0390	4.0390	-0.7445	25.79	-0.08	-0.750			
0.0769	4924.79	4.0360	4.0360	-0.7469	25.79	-0.08	-0.750			
0.0792	5068.65	4.0330	4.0330	-0.7446	25.80	-0.07	-0.750			
0.0814	5211.59	4.0300	4.0300	-0.7477	25.80	-0.07	-0.750			
0.0837	5354.43	4.0270	4.0270	-0.7487	25.80	-0.07	-0.750			
0.0859	5497.70	4.0240	4.0240	-0.7533	25.80	-0.07	-0.750			
0.0882	5642.74	4.0210	4.0209	-0.7532	25.80	-0.07	-0.750			
0.0904	5788.03	4.0180	4.0181	-0.7556	25.80	-0.07	-0.750			
0.0927	5932.97	4.0150	4.0150	-0.7587	25.81	-0.06	-0.750			
0.0950	6079.83	4.0120	4.0119	-0.7622	25.81	-0.06	-0.750			
0.0973	6224.96	4.0090	4.0091	-0.7604	25.81	-0.06	-0.750			
0.0996	6371.72	4.0060	4.0060	-0.7598	25.81	-0.06	-0.750			
0.1018	6517.06	4.0030	4.0030	-0.7648	25.81	-0.06	-0.750			
0.1041	6665.52	4.0000	4.0000	-0.7683	25.81	-0.06	-0.750			
0.1064	6812.69	3.9970	3.9970	-0.7663	25.81	-0.06	-0.750			
0.1088	6960.98	3.9940	3.9939	-0.7613	25.81	-0.06	-0.750			
0.1110	7107.14	3.9910	3.9910	-0.7606	25.81	-0.06	-0.750			
0.1133	7250.73	3.9880	3.9881	-0.7705	25.81	-0.06	-0.750			
0.1156	7399.00	3.9850	3.9849	-0.7746	25.81	-0.06	-0.750			
0.1179	7546.30	3.9820	3.9819	-0.7771	25.82	-0.05	-0.750			
0.1203	7697.74	3.9790	3.9791	-0.7869	25.82	-0.05	-0.750			
0.1227	7852.35	3.9760	3.9761	-0.7904	25.82	-0.05	-0.750			
0.1251	8005.27	3.9730	3.9730	-0.7904	25.83	-0.04	-0.750			
0.1274	8156.13	3.9700	3.9700	-0.7917	25.83	-0.04	-0.750			
0.1298	8306.67	3.9670	3.9670	-0.7920	25.84	-0.03	-0.750			
0.1322	8460.37	3.9640	3.9639	-0.7946	25.84	-0.03	-0.750			
0.1346	8612.90	3.9610	3.9612	-0.7921	25.85	-0.02	-0.750			
0.1370	8764.82	3.9580	3.9580	-0.7952	25.85	-0.02	-0.750			
0.1393	8917.94	3.9550	3.9550	-0.8000	25.85	-0.02	-0.750			
0.1417	9071.15	3.9520	3.9519	-0.7995	25.86	-0.01	-0.750			
0.1441	9224.41	3.9490	3.9490	-0.7990	25.86	-0.01	-0.750			
0.1466	9379.41	3.9460	3.9461	-0.8028	25.86	-0.01	-0.750			
0.1490	9534.21	3.9430	3.9429	-0.8046	25.86	-0.01	-0.750			
0.1514	9688.03	3.9400	3.9400	-0.8105	25.86	-0.01	-0.750			
0.1538	9843.05	3.9370	3.9370	-0.8106	25.87	-0.00	-0.750			
0.1562	9997.74	3.9340	3.9340	-0.8132	25.87	-0.00	-0.750			
0.1587	10156.81	3.9310	3.9310	-0.8183	25.87	-0.00	-0.750			
0.1612	10315.20	3.9280	3.9279	-0.8165	25.87	0.00	-0.750			
0.1636	10471.46	3.9250	3.9250	-0.8194	25.88	0.01	-0.750			
0.1661	10628.50	3.9220	3.9220	-0.8202	25.88	0.01	-0.750			
0.1685	10784.47	3.9190	3.9190	-0.8170	25.88	0.01	-0.750			
0.1710	10942.61	3.9160	3.9160	-0.8231	25.89	0.02	-0.750			
0.1735	11100.84	3.9130	3.9131	-0.8226	25.89	0.02	-0.750			
0.1759	11258.00	3.9100	3.9100	-0.8314	25.90	0.03	-0.750			
0.1784	11419.99	3.9070	3.9069	-0.8320	25.90	0.03	-0.750			
0.1809	11578.04	3.9040	3.9041	-0.8331	25.90	0.03	-0.750			
0.1834	11739.31	3.9010	3.9010	-0.8346	25.91	0.04	-0.750			
0.1860	11900.97	3.8980	3.8980	-0.8376	25.91	0.04	-0.750			
0.1885	12060.93	3.8950	3.8949	-0.8380	25.92	0.05	-0.750			
0.1910	12221.44	3.8920	3.8920	-0.8373	25.92	0.05	-0.750			
0.1934	12380.68	3.8890	3.8890	-0.8350	25.92	0.05	-0.750			
0.1960	12543.26	3.8860	3.8859	-0.8397	25.93	0.06	-0.750			
0.1985	12702.96	3.8830	3.8830	-0.8408	25.93	0.06	-0.750			
0.2010	12865.57	3.8800	3.8800	-0.8446	25.93	0.06	-0.750			
0.2035	13027.20	3.8770	3.8770	-0.8470	25.93	0.06	-0.750			
0.2061	13190.21	3.8740	3.8740	-0.8453	25.94	0.07	-0.750			
0.2087	13354.45	3.8710	3.8710	-0.8495	25.94	0.07	-0.750			
0.2112	13517.52	3.8680	3.8680	-0.8513	25.94	0.07	-0.750			
0.2138	13681.16	3.8650	3.8650	-0.8540	25.95	0.08	-0.750			
0.2163	13845.78	3.8620	3.8620	-0.8494	25.96	0.09	-0.750			
0.2189	14008.46	3.8590	3.8590	-0.8505	25.96	0.09	-0.750			
0.2214	14171.90	3.8560	3.8560	-0.8502	25.97	0.10	-0.750			
0.2240	14335.66	3.8530	3.8529	-0.8527	25.97	0.10	-0.750			
0.2265	14498.60	3.8500	3.8499	-0.8504	25.97	0.10	-0.750			
0.2291	14661.32	3.8470	3.8471	-0.8471	25.98	0.11	-0.750			
0.2316	14823.41	3.8440	3.8440	-0.8456	25.98	0.11	-0.750			
0.2342	14988.32	3.8410	3.8410	-0.8534	25.98	0.11	-0.750			
0.2367	15150.14	3.8380	3.8380	-0.8529	25.98	0.11	-0.750			
0.2393	15313.55	3.8350	3.8349	-0.8555	25.99	0.12	-0.750			
0.2418	15478.12	3.8320	3.8320	-0.8582	26.00	0.13	-0.750			
0.2444	15644.25	3.8290	3.8290	-0.8588	26.00	0.13	-0.750			
0.2471	15811.24	3.8260	3.8260	-0.8621	26.01	0.14	-0.750			
0.2496	15975.92	3.8230	3.8230	-0.8592	26.01	0.14	-0.750			
0.2522	16139.94	3.8200	3.8199	-0.8575	26.01	0.14	-0.750			
0.2548	16305.89	3.8170	3.8170	-0.8530	26.02	0.15	-0.750			
0.2573	16469.52	3.8140	3.8139	-0.8501	26.02	0.15	-0.750			
0.2599	16632.40	3.8110	3.8113	-0.8515	26.02	0.15	-0.750			
0.2624	16795.43	3.8080	3.8079	-0.8506	26.02	0.15	-0.750			
0.2650	16957.44	3.8050	3.8049	-0.8492	26.02	0.15	-0.750			
0.2675	17120.94	3.8020	3.8020	-0.8492	26.03	0.16	-0.750			
0.2701	17285.65	3.7990	3.7990	-0.8517	26.03	0.16	-0.750			
0.2726	17448.53	3.7960	3.7961	-0.8501	26.03	0.16	-0.750			
0.2752	17611.23	3.7930	3.7930	-0.8458	26.04	0.17	-0.750			
0.2777	17772.76	3.7900	3.7900	-0.8485	26.04	0.17	-0.750			
0.2803	17936.47	3.7870	3.7869	-0.8453	26.05	0.18	-0.750			
0.2828	18099.62	3.7840	3.7840	-0.8448	26.06	0.19	-0.750			
0.2853	18262.18	3.7810	3.7812	-0.8383	26.06	0.19	-0.750			
0.2879	18424.42	3.7780	3.7779	-0.8318	26.06	0.19	-0.750			
0.2904	18582.63	3.7750	3.7750	-0.8292	26.07	0.20	-0.750			
0.2928	18739.96	3.7720	3.7720	-0.8240	26.07	0.20	-0.750			
0.2953	18898.05	3.7690	3.7689	-0.8268	26.08	0.21	-0.750			
0.2978	19056.70	3.7660	3.7662	-0.8248	26.08	0.21	-0.750			
0.3002	19214.55	3.7630	3.7630	-0.8248	26.08	0.21	-0.750			
0.3027	19373.32	3.7600	3.7600	-0.8275	26.08	0.21	-0.750			
0.3052	19532.69	3.7570	3.7570	-0.8250	26.09	0.22	-0.750			
0.3077	19692.62	3.7540	3.7539	-0.8265	26.09	0.22	-0.750			
0.3101	19849.45	3.7510	3.7511	-0.8261	26.09	0.22	-0.750			
0.3126	20007.69	3.7480	3.7480	-0.8243	26.09	0.22	-0.750			
0.3151	20165.94	3.7450	3.7449	-0.8333	26.10	0.23	-0.750			
0.3176	20325.03	3.7420	3.7420	-0.8355	26.10	0.23	-0.750			
0.3201	20487.34	3.7390	3.7390	-0.8421	26.11	0.24	-0.750			
0.3227	20649.88	3.7360	3.7361	-0.8456	26.11	0.24	-0.750			
0.3252	20811.92	3.7330	3.7330	-0.8558	26.11	0.24	-0.750			
0.3277	20975.74	3.7300	3.7300	-0.8621	26.11	0.24	-0.750			
0.3303	21141.44	3.7270	3.7270	-0.8707	26.11	0.24	-0.750			
0.3330	21309.72	3.7240	3.7239	-0.8791	26.11	0.24	-0.750			
0.3356	21479.86	3.7210	3.7211	-0.8904	26.11	0.24	-0.750			
0.3383	21651.48	3.7180	3.7181	-0.9067	26.11	0.24	-0.750			
0.3410	21825.94	3.7150	3.7150	-0.9198	26.11	0.24	-0.750			
0.3438	22002.26	3.7120	3.7120	-0.9314	26.12	0.25	-0.750			
0.3466	22184.62	3.7090	3.7090	-0.9515	26.12	0.25	-0.750			
0.3495	22368.65	3.7060	3.7060	-0.9707	26.12	0.25	-0.750			
0.3525	22557.39	3.7030	3.7031	-0.9860	26.12	0.25	-0.750			
0.3554	22747.52	3.7000	3.6999	-1.0012	26.13	0.26	-0.750			
0.3584	22940.73	3.6970	3.6969	-1.0160	26.13	0.26	-0.750			
0.3615	23137.21	3.6940	3.6939	-1.0399	26.13	0.26	-0.750			
0.3647	23339.34	3.6910	3.6910	-1.0593	26.13	0.26	-0.750			
0.3679	23546.34	3.6880	3.6879	-1.0783	26.12	0.25	-0.750			
0.3712	23754.34	3.6850	3.6851	-1.0918	26.12	0.25	-0.750			
0.3745	23966.51	3.6820	3.6819	-1.1248	26.12	0.25	-0.750			
0.3779	24183.19	3.6790	3.6790	-1.1462	26.12	0.25	-0.750			
0.3813	24405.36	3.6760	3.6759	-1.1715	26.11	0.24	-0.750			
0.3849	24631.13	3.6730	3.6732	-1.1909	26.11	0.24	-0.750			
0.3885	24866.66	3.6700	3.6700	-1.2241	26.10	0.23	-0.750			
0.3922	25103.93	3.6670	3.6670	-1.2470	26.10	0.23	-0.750			
0.3960	25341.97	3.6640	3.6640	-1.2799	26.09	0.22	-0.750			
0.3999	25591.91	3.6610	3.6610	-1.3038	26.09	0.22	-0.750			
0.4038	25845.29	3.6580	3.6579	-1.3361	26.08	0.21	-0.750			
0.4079	26104.44	3.6550	3.6550	-1.3701	26.07	0.20	-0.750			
0.4121	26372.35	3.6520	3.6520	-1.3944	26.07	0.20	-0.750			
0.4163	26642.91	3.6490	3.6489	-1.4185	26.06	0.19	-0.750			
0.4206	26915.64	3.6460	3.6459	-1.4488	26.05	0.18	-0.750			
0.4249	27192.00	3.6430	3.6430	-1.4820	26.05	0.18	-0.750			
0.4294	27481.19	3.6400	3.6400	-1.5309	26.04	0.17	-0.750			
0.4340	27777.33	3.6370	3.6369	-1.5647	26.03	0.16	-0.750			
0.4387	28079.33	3.6340	3.6341	-1.6172	26.02	0.15	-0.750			
0.4438	28400.31	3.6310	3.6308	-1.6492	26.02	0.15	-0.750			
0.4488	28724.48	3.6280	3.6279	-1.6793	26.01	0.14	-0.750			
0.4539	29049.76	3.6250	3.6250	-1.6966	26.00	0.13	-0.750			
0.4591	29379.50	3.6220	3.6218	-1.7249	26.00	0.13	-0.750	0.401	0.495	
0.4642	29706.24	3.6190	3.6191	-1.7597	25.99	0.12	-0.750			
0.4696	30054.42	3.6160	3.6158	-1.7795	25.98	0.11	-0.750			
0.4749	30393.92	3.6130	3.6132	-1.8278	25.98	0.11	-0.750			
0.4804	30746.53	3.6100	3.6101	-1.8571	25.97	0.10	-0.750			
0.4861	31108.13	3.6070	3.6070	-1.8913	25.97	0.10	-0.750			
0.4918	31477.00	3.6040	3.6041	-1.9276	25.96	0.09	-0.750			
0.4976	31846.44	3.6010	3.6010	-1.9673	25.95	0.08	-0.750			
0.5036	32229.80	3.5980	3.5983	-2.0006	25.94	0.07	-0.750			
0.5097	32619.54	3.5950	3.5950	-2.0501	25.93	0.06	-0.750			
0.5158	33013.28	3.5920	3.5920	-2.0820	25.93	0.06	-0.750			
0.5222	33419.02	3.5890	3.5890	-2.1270	25.93	0.06	-0.750			
0.5287	33836.54	3.5860	3.5860	-2.1740	25.93	0.06	-0.750			
0.5352	34252.70	3.5830	3.5830	-2.2009	25.93	0.06	-0.750			
0.5419	34681.36	3.5800	3.5801	-2.2149	25.92	0.05	-0.750			
0.5486	35110.04	3.5770	3.5770	-2.2517	25.91	0.04	-0.750			
0.5554	35542.54	3.5740	3.5739	-2.2654	25.91	0.04	-0.750			
0.5622	35981.68	3.5710	3.5709	-2.2876	25.91	0.04	-0.750			
0.5691	36424.79	3.5680	3.5682	-2.3098	25.90	0.03	-0.750			
0.5760	36866.59	3.5650	3.5649	-2.3249	25.90	0.03	-0.750			
0.5831	37318.05	3.5620	3.5620	-2.3347	25.91	0.04	-0.750			
0.5902	37771.70	3.5590	3.5590	-2.3502	25.91	0.04	-0.750			
0.5974	38231.91	3.5560	3.5561	-2.3195	25.90	0.03	-0.750			
0.6043	38673.47	3.5530	3.5531	-2.3174	25.89	0.02	-0.750			
0.6112	39118.64	3.5500	3.5500	-2.3101	25.89	0.02	-0.750			
0.6181	39555.67	3.5470	3.5467	-2.2917	25.89	0.02	-0.750			
0.6250	39998.23	3.5440	3.5441	-2.2706	25.89	0.02	-0.750			
0.6318	40433.08	3.5410	3.5410	-2.2571	25.91	0.04	-0.750			
0.6385	40866.27	3.5380	3.5380	-2.2338	25.91	0.04	-0.750			
0.6452	41295.96	3.5350	3.5350	-2.1887	25.91	0.04	-0.750			
0.6519	41719.19	3.5320	3.5320	-2.1555	25.92	0.05	-0.750			
0.6582	42127.99	3.5290	3.5290	-2.1117	25.93	0.06	-0.750			
0.6646	42531.61	3.5260	3.5260	-2.0537	25.94	0.07	-0.750			
0.6707	42924.52	3.5230	3.5231	-2.0072	25.95	0.08	-0.750			
0.6765	43299.04	3.5200	3.5199	-1.9369	25.96	0.09	-0.750			
0.6823	43666.14	3.5170	3.5171	-1.8765	25.97	0.10	-0.750			
0.6878	44020.89	3.5140	3.5139	-1.8243	25.97	0.10	-0.750			
0.6932	44364.50	3.5110	3.5109	-1.7630	25.98	0.11	-0.750			
0.6984	44700.70	3.5080	3.5080	-1.7031	25.99	0.12	-0.750			
0.7035	45025.64	3.5050	3.5052	-1.6502	26.01	0.14	-0.750			
0.7083	45332.06	3.5020	3.5021	-1.5790	26.03	0.16	-0.750			
0.7130	45631.26	3.4990	3.4989	-1.5269	26.04	0.17	-0.750			
0.7174	45913.47	3.4960	3.4959	-1.4722	26.05	0.18	-0.750			
0.7217	46191.15	3.4930	3.4930	-1.4308	26.07	0.20	-0.750			
0.7259	46460.28	3.4900	3.4900	-1.3826	26.08	0.21	-0.750			
0.7301	46724.73	3.4870	3.4870	-1.3442	26.09	0.22	-0.750			
0.7340	46977.76	3.4840	3.4841	-1.3017	26.11	0.24	-0.750			
0.7379	47224.01	3.4810	3.4809	-1.2521	26.12	0.25	-0.750			
0.7416	47460.07	3.4780	3.4780	-1.2059	26.14	0.27	-0.750			
0.7451	47686.17	3.4750	3.4750	-1.1622	26.16	0.29	-0.750			
0.7485	47902.33	3.4720	3.4722	-1.1255	26.18	0.31	-0.750			
0.7518	48116.09	3.4690	3.4689	-1.0890	26.19	0.32	-0.750			
0.7550	48319.53	3.4660	3.4660	-1.0581	26.21	0.34	-0.750			
0.7581	48518.13	3.4630	3.4630	-1.0270	26.22	0.35	-0.750			
0.7612	48714.98	3.4600	3.4600	-1.0020	26.23	0.36	-0.750			
0.7641	48905.26	3.4570	3.4569	-0.9787	26.24	0.37	-0.750			
0.7670	49090.20	3.4540	3.4539	-0.9542	26.25	0.38	-0.750			
0.7698	49268.82	3.4510	3.4511	-0.9297	26.26	0.39	-0.750			
0.7726	49445.55	3.4480	3.4482	-0.9228	26.27	0.40	-0.750			
0.7753	49616.95	3.4450	3.4450	-0.9171	26.28	0.41	-0.750			
0.7780	49791.64	3.4420	3.4420	-0.9292	26.29	0.42	-0.750			
0.7807	49967.19	3.4390	3.4390	-0.9438	26.30	0.43	-0.750			
0.7836	50148.98	3.4360	3.4360	-0.9750	26.31	0.44	-0.750			
0.7865	50338.40	3.4330	3.4330	-1.0099	26.31	0.44	-0.750			
0.7896	50535.71	3.4300	3.4300	-1.0444	26.32	0.45	-0.750			
0.7928	50741.85	3.4270	3.4268	-1.0713	26.33	0.46	-0.750			
0.7961	50952.33	3.4240	3.4241	-1.0920	26.34	0.47	-0.750			
0.7995	51168.33	3.4210	3.4209	-1.1070	26.35	0.48	-0.750			
0.8029	51387.13	3.4180	3.4180	-1.1061	26.35	0.48	-0.750			
0.8063	51600.55	3.4150	3.4149	-1.0860	26.36	0.49	-0.750			
0.8095	51808.24	3.4120	3.4122	-1.0576	26.37	0.50	-0.750			
0.8127	52010.72	3.4090	3.4090	-1.0336	26.38	0.51	-0.750			
0.8157	52206.56	3.4060	3.4060	-0.9988	26.39	0.52	-0.750			
0.8187	52396.01	3.4030	3.4029	-0.9582	26.40	0.53	-0.750			
0.8215	52575.79	3.4000	3.4000	-0.9164	26.41	0.54	-0.750			
0.8242	52749.80	3.3970	3.3970	-0.8835	26.41	0.54	-0.750			
0.8268	52913.69	3.3940	3.3940	-0.8494	26.42	0.55	-0.750			
0.8293	53072.12	3.3910	3.3909	-0.8149	26.43	0.56	-0.750			
0.8316	53222.40	3.3880	3.3880	-0.7833	26.43	0.56	-0.750			
0.8339	53372.62	3.3850	3.3850	-0.7602	26.44	0.57	-0.750			
0.8362	53516.85	3.3820	3.3820	-0.7333	26.44	0.57	-0.750			
0.8384	53655.78	3.3790	3.3790	-0.7063	26.45	0.58	-0.750			
0.8404	53788.14	3.3760	3.3761	-0.6750	26.46	0.59	-0.750			
0.8424	53914.24	3.3730	3.3730	-0.6492	26.46	0.59	-0.750			
0.8443	54037.06	3.3700	3.3700	-0.6249	26.47	0.60	-0.750			
0.8462	54154.07	3.3670	3.3669	-0.5988	26.48	0.61	-0.750			
0.8479	54266.38	3.3640	3.3640	-0.5759	26.48	0.61	-0.750			
0.8496	54374.60	3.3610	3.3611	-0.5549	26.49	0.62	-0.750			
0.8512	54478.91	3.3580	3.3580	-0.5319	26.49	0.62	-0.750			
0.8528	54578.52	3.3550	3.3550	-0.5084	26.50	0.63	-0.750			
0.8543	54674.99	3.3520	3.3520	-0.4917	26.50	0.63	-0.750			
0.8557	54766.92	3.3490	3.3491	-0.4734	26.51	0.64	-0.750			
0.8571	54856.15	3.3460	3.3459	-0.4537	26.51	0.64	-0.750			
0.8585	54940.93	3.3430	3.3429	-0.4349	26.52	0.65	-0.750			
0.8597	55022.76	3.3400	3.3402	-0.4177	26.52	0.65	-0.750			
0.8610	55101.82	3.3370	3.3369	-0.4041	26.53	0.66	-0.750			
0.8621	55177.50	3.3340	3.3339	-0.3863	26.53	0.66	-0.750			
0.8633	55248.84	3.3310	3.3310	-0.3704	26.54	0.67	-0.750			
0.8644	55319.08	3.3280	3.3282	-0.3590	26.54	0.67	-0.750			
0.8654	55386.71	3.3250	3.3249	-0.3459	26.55	0.68	-0.750			
0.8664	55451.60	3.3220	3.3219	-0.3314	26.55	0.68	-0.750			
0.8674	55513.59	3.3190	3.3191	-0.3210	26.56	0.69	-0.750			
0.8683	55573.84	3.3160	3.3161	-0.3095	26.56	0.69	-0.750			
0.8693	55632.79	3.3130	3.3129	-0.3001	26.57	0.70	-0.750			
0.8701	55689.06	3.3100	3.3100	-0.2899	26.57	0.70	-0.750			
0.8710	55743.47	3.3070	3.3071	-0.2797	26.57	0.70	-0.750			
0.8718	55796.19	3.3040	3.3040	-0.2715	26.58	0.71	-0.750			
0.8726	55847.60	3.3010	3.3011	-0.2636	26.58	0.71	-0.750			
0.8734	55896.81	3.2980	3.2980	-0.2545	26.59	0.72	-0.750			
0.8741	55944.91	3.2950	3.2949	-0.2474	26.59	0.72	-0.750			
0.8749	55991.18	3.2920	3.2921	-0.2402	26.60	0.73	-0.750			
0.8756	56036.55	3.2890	3.2890	-0.2342	26.60	0.73	-0.750			
0.8763	56080.98	3.2860	3.2861	-0.2286	26.61	0.74	-0.750			
0.8769	56124.36	3.2830	3.2830	-0.2231	26.61	0.74	-0.750			
0.8776	56166.26	3.2800	3.2801	-0.2173	26.61	0.74	-0.750			
0.8782	56207.61	3.2770	3.2770	-0.2127	26.62	0.75	-0.750			
0.8789	56247.90	3.2740	3.2740	-0.2084	26.62	0.75	-0.750			
0.8795	56287.47	3.2710	3.2710	-0.2041	26.63	0.76	-0.750			
0.8801	56326.17	3.2680	3.2679	-0.1990	26.63	0.76	-0.750			
0.8807	56364.02	3.2650	3.2651	-0.1946	26.63	0.76	-0.750			
0.8813	56400.84	3.2620	3.2620	-0.1908	26.64	0.77	-0.750			
0.8818	56437.05	3.2590	3.2590	-0.1873	26.64	0.77	-0.750			
0.8824	56472.45	3.2560	3.2560	-0.1834	26.64	0.77	-0.750			
0.8829	56507.25	3.2530	3.2529	-0.1804	26.65	0.78	-0.750			
0.8835	56541.33	3.2500	3.2500	-0.1772	26.65	0.78	-0.750			
0.8840	56575.20	3.2470	3.2470	-0.1737	26.65	0.78	-0.750			
0.8845	56608.31	3.2440	3.2438	-0.1714	26.66	0.79	-0.750			
0.8850	56640.96	3.2410	3.2411	-0.1682	26.66	0.79	-0.750			
0.8855	56672.83	3.2380	3.2380	-0.1649	26.67	0.80	-0.750			
0.8860	56704.02	3.2350	3.2349	-0.1629	26.67	0.80	-0.750			
0.8865	56734.87	3.2320	3.2321	-0.1608	26.68	0.81	-0.750			
0.8870	56765.46	3.2290	3.2290	-0.1588	26.68	0.81	-0.750			
0.8874	56795.81	3.2260	3.2259	-0.1574	26.69	0.82	-0.750			
0.8879	56826.14	3.2230	3.2230	-0.1556	26.69	0.82	-0.750			
0.8884	56855.82	3.2200	3.2200	-0.1533	26.69	0.82	-0.750			
0.8888	56885.27	3.2170	3.2169	-0.1519	26.70	0.83	-0.750			
0.8893	56914.19	3.2140	3.2141	-0.1493	26.70	0.83	-0.750			
0.8897	56942.34	3.2110	3.2110	-0.1473	26.71	0.84	-0.750			
0.8902	56970.22	3.2080	3.2079	-0.1457	26.71	0.84	-0.750			
0.8906	56997.91	3.2050	3.2050	-0.1443	26.72	0.85	-0.750			
0.8910	57025.58	3.2020	3.2020	-0.1432	26.72	0.85	-0.750			
0.8915	57053.28	3.1990	3.1990	-0.1410	26.72	0.85	-0.750			
0.8919	57080.15	3.1960	3.1960	-0.1397	26.73	0.86	-0.750			
0.8923	57106.86	3.1930	3.1930	-0.1379	26.73	0.86	-0.750			
0.8927	57133.04	3.1900	3.1901	-0.1366	26.74	0.87	-0.750			
0.8931	57159.01	3.1870	3.1868	-0.1348	26.74	0.87	-0.750			
0.8935	57184.45	3.1840	3.1840	-0.1336	26.74	0.87	-0.750			
0.8939	57210.04	3.1810	3.1811	-0.1330	26.75	0.88	-0.750			
0.8943	57235.58	3.1780	3.1780	-0.1316	26.75	0.88	-0.750			
0.8947	57261.02	3.1750	3.1749	-0.1311	26.76	0.89	-0.750			
0.8951	57285.87	3.1720	3.1721	-0.1292	26.76	0.89	-0.750			
0.8955	57310.56	3.1690	3.1690	-0.1281	26.76	0.89	-0.750			
0.8959	57335.05	3.1660	3.1660	-0.1271	26.77	0.90	-0.750			
0.8962	57359.42	3.1630	3.1629	-0.1261	26.77	0.90	-0.750			
0.8966	57383.29	3.1600	3.1601	-0.1245	26.77	0.90	-0.750			
0.8970	57407.10	3.1570	3.1569	-0.1239	26.78	0.91	-0.750			
0.8974	57430.91	3.1540	3.1541	-0.1234	26.78	0.91	-0.750			
0.8977	57454.60	3.1510	3.1509	-0.1221	26.79	0.92	-0.750			
0.8981	57478.00	3.1480	3.1480	-0.1211	26.79	0.92	-0.750			
0.8985	57501.08	3.1450	3.1450	-0.1201	26.79	0.92	-0.750			
0.8988	57524.04	3.1420	3.1420	-0.1191	26.80	0.93	-0.750			
0.8992	57546.78	3.1390	3.1391	-0.1183	26.80	0.93	-0.750			
0.8995	57569.41	3.1360	3.1359	-0.1174	26.81	0.94	-0.750			
0.8999	57591.84	3.1330	3.1330	-0.1165	26.81	0.94	-0.750			
0.9002	57613.96	3.1300	3.1300	-0.1155	26.82	0.95	-0.750			
0.9006	57636.17	3.1270	3.1270	-0.1145	26.82	0.95	-0.750			
0.9009	57658.27	3.1240	3.1239	-0.1138	26.83	0.96	-0.750			
0.9012	57679.84	3.1210	3.1209	-0.1134	26.83	0.96	-0.750			
0.9016	57701.39	3.1180	3.1181	-0.1125	26.83	0.96	-0.750			
0.9019	57722.95	3.1150	3.1150	-0.1120	26.84	0.97	-0.750			
0.9023	57744.29	3.1120	3.1119	-0.1113	26.84	0.97	-0.750			
0.9026	57765.72	3.1090	3.1092	-0.1106	26.85	0.98	-0.750			
0.9029	57786.95	3.1060	3.1061	-0.1100	26.85	0.98	-0.750			
0.9033	57808.09	3.1030	3.1029	-0.1090	26.86	0.99	-0.750			
0.9036	57829.21	3.1000	3.1002	-0.1084	26.86	0.99	-0.750			
0.9039	57849.76	3.0970	3.0970	-0.1077	26.86	0.99	-0.750			
0.9042	57870.14	3.0940	3.0941	-0.1066	26.87	1.00	-0.750			
0.9045	57890.53	3.0910	3.0910	-0.1061	26.87	1.00	-0.750			
0.9049	57910.75	3.0880	3.0879	-0.1055	26.88	1.01	-0.750			
0.9052	57931.08	3.0850	3.0851	-0.1045	26.88	1.01	-0.750			
0.9055	57951.17	3.0820	3.0820	-0.1039	26.88	1.01	-0.750			
0.9058	57970.93	3.0790	3.0790	-0.1035	26.89	1.02	-0.750			
0.9061	57990.82	3.0760	3.0761	-0.1030	26.89	1.02	-0.750			
0.9064	58010.53	3.0730	3.0729	-0.1024	26.90	1.03	-0.750			
0.9067	58029.98	3.0700	3.0700	-0.1017	26.90	1.03	-0.750			
0.9070	58049.51	3.0670	3.0669	-0.1012	26.90	1.03	-0.750			
0.9073	58068.85	3.0640	3.0641	-0.1007	26.91	1.04	-0.750			
0.9076	58088.17	3.0610	3.0611	-0.1001	26.91	1.04	-0.750			
0.9079	58107.54	3.0580	3.0579	-0.0997	26.92	1.05	-0.750			
0.9082	58126.51	3.0550	3.0549	-0.0993	26.92	1.05	-0.750			
0.9085	58145.30	3.0520	3.0520	-0.0986	26.92	1.05	-0.750			
0.9088	58164.26	3.0490	3.0490	-0.0980	26.93	1.06	-0.750			
0.9091	58183.08	3.0460	3.0460	-0.0977	26.93	1.06	-0.750			
0.9094	58201.86	3.0430	3.0430	-0.0968	26.93	1.06	-0.750			
0.9097	58220.49	3.0400	3.0400	-0.0961	26.94	1.07	-0.750			
0.9100	58238.77	3.0370	3.0370	-0.0958	26.94	1.07	-0.750			
0.9103	58257.10	3.0340	3.0340	-0.0952	26.95	1.08	-0.750			
0.9106	58275.32	3.0310	3.0309	-0.0946	26.95	1.08	-0.750			
0.9108	58293.28	3.0280	3.0280	-0.0939	26.95	1.08	-0.750			
0.9111	58311.33	3.0250	3.0251	-0.0933	26.96	1.09	-0.750			
0.9114	58329.25	3.0220	3.0220	-0.0928	26.96	1.09	-0.750			
0.9117	58347.14	3.0190	3.0192	-0.0915	26.96	1.09	-0.750			
0.9120	58364.90	3.0160	3.0159	-0.0907	26.97	1.10	-0.750			
0.9122	58382.08	3.0130	3.0130	-0.0902	26.97	1.10	-0.750			
0.9125	58399.13	3.0100	3.0101	-0.0892	26.98	1.11	-0.750			
0.9128	58416.20	3.0070	3.0069	-0.0885	26.98	1.11	-0.751			
0.9130	58433.05	3.0040	3.0039	-0.0884	26.98	1.11	-0.751			
0.9133	58450.00	3.0010	3.0010	-0.0881	26.99	1.12	-0.751			
