Ah_balance (normalized)	Ah_balance (mAh)	Voltage - fit (V)	Voltage -  interpolate (V)	dQ/dV (1/V)	Temperature (°C)	Temperature - diff (°C)	Current (C)	R_DC 0ms (mOhm)	R_DC 50ms (mOhm)	R_DC 50 ms PEC (mOhm)
0.0493	3154.90	4.1990	4.1990	0.8106	26.48	0.53	0.750			
0.0516	3300.86	4.1960	4.1961	0.7525	26.48	0.53	0.750			
0.0538	3444.62	4.1930	4.1930	0.7539	26.48	0.53	0.750			
0.0561	3589.75	4.1900	4.1902	0.7591	26.48	0.53	0.750			
0.0584	3735.38	4.1870	4.1871	0.7626	26.48	0.53	0.750			
0.0607	3882.35	4.1840	4.1840	0.7681	26.48	0.53	0.750			
0.0630	4031.33	4.1810	4.1810	0.7744	26.48	0.53	0.750			
0.0654	4183.94	4.1780	4.1779	0.7839	26.48	0.53	0.750			
0.0677	4331.73	4.1750	4.1751	0.7753	26.48	0.53	0.750			
0.0700	4481.49	4.1720	4.1720	0.7778	26.48	0.53	0.750			
0.0724	4630.58	4.1690	4.1691	0.7790	26.48	0.53	0.750			
0.0747	4780.07	4.1660	4.1659	0.7772	26.48	0.53	0.750			
0.0770	4928.55	4.1630	4.1630	0.7768	26.47	0.52	0.750			
0.0793	5078.35	4.1600	4.1600	0.7768	26.47	0.52	0.750			
0.0817	5226.56	4.1570	4.1569	0.7812	26.47	0.52	0.750			
0.0840	5377.81	4.1540	4.1540	0.7830	26.47	0.52	0.750			
0.0864	5528.53	4.1510	4.1509	0.7800	26.47	0.52	0.750			
0.0887	5678.23	4.1480	4.1480	0.7834	26.47	0.52	0.750			
0.0911	5830.27	4.1450	4.1451	0.7817	26.47	0.52	0.750			
0.0934	5979.15	4.1420	4.1419	0.7855	26.47	0.52	0.750			
0.0958	6130.37	4.1390	4.1391	0.7854	26.47	0.52	0.750			
0.0981	6280.73	4.1360	4.1360	0.7796	26.47	0.52	0.750			
0.1005	6431.07	4.1330	4.1330	0.7842	26.47	0.52	0.750			
0.1028	6581.62	4.1300	4.1301	0.7914	26.48	0.53	0.750			
0.1052	6732.38	4.1270	4.1270	0.7936	26.48	0.53	0.750			
0.1076	6886.32	4.1240	4.1239	0.7984	26.48	0.53	0.750			
0.1100	7038.83	4.1210	4.1211	0.7985	26.48	0.53	0.750			
0.1124	7194.43	4.1180	4.1180	0.8026	26.48	0.53	0.750			
0.1148	7347.71	4.1150	4.1150	0.8068	26.48	0.53	0.750			
0.1172	7501.66	4.1120	4.1120	0.8052	26.48	0.53	0.750			
0.1196	7656.66	4.1090	4.1091	0.8057	26.48	0.53	0.750			
0.1221	7811.44	4.1060	4.1060	0.8120	26.48	0.53	0.750			
0.1245	7968.83	4.1030	4.1031	0.8075	26.48	0.53	0.750			
0.1269	8124.28	4.1000	4.1000	0.8106	26.48	0.53	0.750			
0.1293	8278.06	4.0970	4.0971	0.8115	26.48	0.53	0.750			
0.1318	8434.05	4.0940	4.0935	0.8141	26.48	0.53	0.750			
0.1342	8589.90	4.0910	4.0911	0.8224	26.48	0.53	0.750			
0.1367	8749.90	4.0880	4.0880	0.8208	26.48	0.53	0.750			
0.1392	8908.15	4.0850	4.0850	0.8221	26.48	0.53	0.750			
0.1417	9065.64	4.0820	4.0820	0.8150	26.48	0.53	0.750			
0.1441	9222.58	4.0790	4.0789	0.8224	26.48	0.53	0.750			
0.1465	9379.17	4.0760	4.0760	0.8239	26.48	0.53	0.750			
0.1490	9538.93	4.0730	4.0730	0.8238	26.49	0.54	0.750			
0.1515	9696.51	4.0700	4.0700	0.8278	26.49	0.54	0.750			
0.1540	9856.25	4.0670	4.0671	0.8359	26.50	0.55	0.750			
0.1565	10018.09	4.0640	4.0638	0.8368	26.50	0.55	0.750			
0.1591	10179.55	4.0610	4.0610	0.8378	26.50	0.55	0.750			
0.1616	10340.38	4.0580	4.0580	0.8325	26.50	0.55	0.750			
0.1641	10499.35	4.0550	4.0551	0.8394	26.50	0.55	0.750			
0.1665	10659.13	4.0520	4.0521	0.8428	26.50	0.55	0.750			
0.1691	10821.14	4.0490	4.0487	0.8464	26.50	0.55	0.750			
0.1716	10984.04	4.0460	4.0461	0.8512	26.50	0.55	0.750			
0.1742	11150.26	4.0430	4.0431	0.8571	26.50	0.55	0.750			
0.1768	11316.05	4.0400	4.0399	0.8658	26.50	0.55	0.750			
0.1794	11481.21	4.0370	4.0371	0.8593	26.50	0.55	0.750			
0.1820	11647.76	4.0340	4.0337	0.8615	26.50	0.55	0.750			
0.1846	11813.98	4.0310	4.0311	0.8606	26.50	0.55	0.750			
0.1872	11978.95	4.0280	4.0281	0.8685	26.50	0.55	0.750			
0.1898	12145.83	4.0250	4.0250	0.8713	26.51	0.56	0.750			
0.1924	12313.32	4.0220	4.0219	0.8739	26.51	0.56	0.750			
0.1950	12479.04	4.0190	4.0189	0.8720	26.51	0.56	0.750			
0.1977	12649.76	4.0160	4.0161	0.8724	26.51	0.56	0.750			
0.2003	12816.43	4.0130	4.0130	0.8821	26.51	0.56	0.750			
0.2029	12985.13	4.0100	4.0100	0.8855	26.52	0.57	0.750			
0.2055	13154.70	4.0070	4.0070	0.8885	26.52	0.57	0.750			
0.2082	13324.78	4.0040	4.0041	0.8928	26.52	0.57	0.750			
0.2109	13497.71	4.0010	4.0011	0.8935	26.52	0.57	0.750			
0.2136	13671.52	3.9980	3.9979	0.8974	26.52	0.57	0.750			
0.2163	13844.95	3.9950	3.9951	0.8990	26.52	0.57	0.750			
0.2190	14013.83	3.9920	3.9918	0.8971	26.52	0.57	0.750			
0.2217	14187.49	3.9890	3.9890	0.8961	26.52	0.57	0.750			
0.2244	14359.17	3.9860	3.9861	0.9016	26.52	0.57	0.750			
0.2270	14531.19	3.9830	3.9830	0.9070	26.53	0.58	0.750			
0.2298	14705.44	3.9800	3.9800	0.9171	26.53	0.58	0.750			
0.2326	14883.99	3.9770	3.9770	0.9100	26.53	0.58	0.750			
0.2353	15062.12	3.9740	3.9739	0.8945	26.53	0.58	0.750			
0.2380	15231.58	3.9710	3.9712	0.8997	26.53	0.58	0.750			
0.2407	15403.41	3.9680	3.9681	0.9071	26.54	0.59	0.750			
0.2433	15572.76	3.9650	3.9650	0.9067	26.54	0.59	0.750			
0.2461	15748.57	3.9620	3.9621	0.9154	26.54	0.59	0.750			
0.2488	15924.19	3.9590	3.9591	0.9275	26.54	0.59	0.750			
0.2517	16108.88	3.9560	3.9560	0.9407	26.55	0.60	0.750			
0.2546	16293.18	3.9530	3.9530	0.9445	26.55	0.60	0.750			
0.2574	16470.49	3.9500	3.9499	0.9344	26.55	0.60	0.750			
0.2602	16651.68	3.9470	3.9469	0.9288	26.55	0.60	0.750			
0.2629	16827.28	3.9440	3.9441	0.9337	26.55	0.60	0.750			
0.2657	17007.53	3.9410	3.9411	0.9381	26.56	0.61	0.750			
0.2686	17187.74	3.9380	3.9378	0.9387	26.56	0.61	0.750			
0.2714	17371.35	3.9350	3.9350	0.9309	26.56	0.61	0.750			
0.2742	17549.69	3.9320	3.9321	0.9313	26.56	0.61	0.750			
0.2770	17727.03	3.9290	3.9291	0.9330	26.56	0.61	0.750			
0.2798	17905.07	3.9260	3.9261	0.9387	26.56	0.61	0.750			
0.2825	18081.53	3.9230	3.9229	0.9365	26.56	0.61	0.750			
0.2854	18263.50	3.9200	3.9200	0.9424	26.56	0.61	0.750			
0.2882	18446.98	3.9170	3.9171	0.9519	26.56	0.61	0.750			
0.2911	18632.25	3.9140	3.9141	0.9564	26.56	0.61	0.750			
0.2940	18815.63	3.9110	3.9109	0.9574	26.56	0.61	0.750			
0.2969	19000.23	3.9080	3.9080	0.9519	26.56	0.61	0.750			
0.2997	19183.06	3.9050	3.9050	0.9539	26.56	0.61	0.750			
0.3026	19365.84	3.9020	3.9021	0.9597	26.56	0.61	0.750			
0.3055	19549.82	3.8990	3.8990	0.9586	26.56	0.61	0.750			
0.3083	19734.19	3.8960	3.8959	0.9620	26.56	0.61	0.750			
0.3112	19918.13	3.8930	3.8931	0.9582	26.56	0.61	0.750			
0.3141	20100.01	3.8900	3.8902	0.9650	26.56	0.61	0.750			
0.3170	20287.96	3.8870	3.8870	0.9754	26.56	0.61	0.750			
0.3199	20474.29	3.8840	3.8839	0.9788	26.56	0.61	0.750			
0.3228	20659.02	3.8810	3.8813	0.9887	26.55	0.60	0.750			
0.3258	20852.70	3.8780	3.8780	1.0021	26.55	0.60	0.750			
0.3289	21048.53	3.8750	3.8750	1.0038	26.54	0.59	0.750			
0.3319	21242.63	3.8720	3.8718	1.0112	26.54	0.59	0.750			
0.3349	21432.65	3.8690	3.8694	1.0048	26.54	0.59	0.750			
0.3379	21626.93	3.8660	3.8664	1.0094	26.54	0.59	0.750			
0.3409	21818.86	3.8630	3.8632	1.0173	26.54	0.59	0.750			
0.3439	22012.26	3.8600	3.8598	1.0226	26.54	0.59	0.750			
0.3471	22215.34	3.8570	3.8571	1.0350	26.54	0.59	0.750			
0.3502	22409.94	3.8540	3.8541	1.0353	26.53	0.58	0.750			
0.3533	22609.68	3.8510	3.8511	1.0531	26.53	0.58	0.750			
0.3565	22814.65	3.8480	3.8477	1.0702	26.52	0.57	0.750			
0.3597	23019.70	3.8450	3.8451	1.0724	26.52	0.57	0.750			
0.3629	23224.05	3.8420	3.8421	1.0853	26.51	0.56	0.750			
0.3662	23436.68	3.8390	3.8391	1.1010	26.51	0.56	0.750			
0.3696	23653.86	3.8360	3.8357	1.1014	26.50	0.55	0.750			
0.3728	23859.45	3.8330	3.8330	1.1082	26.49	0.54	0.750			
0.3761	24072.17	3.8300	3.8303	1.1255	26.48	0.53	0.750			
0.3795	24290.02	3.8270	3.8270	1.1409	26.48	0.53	0.750			
0.3830	24513.71	3.8240	3.8239	1.1325	26.47	0.52	0.750			
0.3864	24730.32	3.8210	3.8212	1.1555	26.46	0.51	0.750			
0.3899	24954.96	3.8180	3.8182	1.1696	26.45	0.50	0.750			
0.3935	25182.28	3.8150	3.8148	1.1736	26.44	0.49	0.750			
0.3970	25406.03	3.8120	3.8121	1.1729	26.44	0.49	0.750			
0.4005	25631.16	3.8090	3.8092	1.1796	26.43	0.48	0.750			
0.4041	25860.78	3.8060	3.8060	1.1886	26.42	0.47	0.750			
0.4077	26092.90	3.8030	3.8030	1.1719	26.42	0.47	0.750			
0.4112	26315.68	3.8000	3.8000	1.1897	26.40	0.45	0.750			
0.4148	26544.84	3.7970	3.7972	1.1988	26.39	0.44	0.750			
0.4184	26779.75	3.7940	3.7937	1.1921	26.37	0.42	0.750			
0.4220	27005.63	3.7910	3.7911	1.2045	26.36	0.41	0.750			
0.4256	27236.02	3.7880	3.7882	1.2178	26.36	0.41	0.750			
0.4292	27470.16	3.7850	3.7851	1.2353	26.35	0.40	0.750			
0.4330	27709.40	3.7820	3.7818	1.2436	26.34	0.39	0.750			
0.4367	27949.68	3.7790	3.7791	1.2585	26.32	0.37	0.750			
0.4406	28196.72	3.7760	3.7761	1.2871	26.31	0.36	0.750			
0.4445	28448.23	3.7730	3.7730	1.2949	26.30	0.35	0.750			
0.4483	28693.80	3.7700	3.7700	1.3001	26.29	0.34	0.750			
0.4522	28940.66	3.7670	3.7672	1.3273	26.28	0.33	0.750			
0.4562	29199.35	3.7640	3.7637	1.3521	26.26	0.31	0.750			
0.4603	29457.40	3.7610	3.7610	1.3921	26.25	0.30	0.750			
0.4645	29730.76	3.7580	3.7581	1.4283	26.24	0.29	0.750	0.286	0.366	
0.4689	30007.45	3.7550	3.7547	1.4735	26.23	0.28	0.750			
0.4735	30304.99	3.7520	3.7518	1.4960	26.22	0.27	0.750			
0.4780	30592.41	3.7490	3.7491	1.5258	26.20	0.25	0.750			
0.4826	30884.89	3.7460	3.7461	1.5587	26.19	0.24	0.750			
0.4873	31184.68	3.7430	3.7429	1.5741	26.17	0.22	0.750			
0.4920	31489.96	3.7400	3.7402	1.5987	26.16	0.21	0.750			
0.4969	31804.16	3.7370	3.7370	1.6424	26.14	0.19	0.750			
0.5019	32121.01	3.7340	3.7336	1.6794	26.13	0.18	0.750			
0.5071	32454.70	3.7310	3.7307	1.7376	26.12	0.17	0.750			
0.5122	32783.55	3.7280	3.7282	1.7980	26.10	0.15	0.750			
0.5177	33133.19	3.7250	3.7249	1.8433	26.09	0.14	0.750			
0.5232	33485.47	3.7220	3.7223	1.9347	26.07	0.12	0.750			
0.5293	33874.31	3.7190	3.7191	2.0019	26.06	0.11	0.750			
0.5353	34262.19	3.7160	3.7158	2.0350	26.04	0.09	0.750			
0.5417	34665.63	3.7130	3.7132	2.0713	26.02	0.07	0.750			
0.5480	35069.58	3.7100	3.7098	2.1277	26.00	0.05	0.750			
0.5543	35472.15	3.7070	3.7067	2.1787	25.98	0.03	0.750			
0.5609	35894.67	3.7040	3.7044	2.2355	25.96	0.01	0.750			
0.5677	36330.43	3.7010	3.7011	2.3291	25.95	0.00	0.750			
0.5745	36768.07	3.6980	3.6981	2.4168	25.93	-0.02	0.750			
0.5821	37256.79	3.6950	3.6948	2.4829	25.91	-0.04	0.750			
0.5898	37747.64	3.6920	3.6919	2.5349	25.89	-0.06	0.750			
0.5975	38237.57	3.6890	3.6894	2.5840	25.87	-0.08	0.750			
0.6053	38741.18	3.6860	3.6862	2.6523	25.85	-0.10	0.750			
0.6132	39247.53	3.6830	3.6830	2.7089	25.83	-0.12	0.750			
0.6214	39767.74	3.6800	3.6800	2.7977	25.82	-0.13	0.750			
0.6300	40320.16	3.6770	3.6769	2.9111	25.80	-0.15	0.750			
0.6390	40896.07	3.6740	3.6740	3.0418	25.78	-0.17	0.750			
0.6483	41489.41	3.6710	3.6709	3.1804	25.76	-0.19	0.750			
0.6580	42114.45	3.6680	3.6679	3.2093	25.75	-0.20	0.750			
0.6678	42737.58	3.6650	3.6650	3.2263	25.75	-0.20	0.750			
0.6779	43384.21	3.6620	3.6620	3.1483	25.74	-0.21	0.750			
0.6872	43978.28	3.6590	3.6587	2.8726	25.73	-0.22	0.750			
0.6953	44499.89	3.6560	3.6561	2.5411	25.73	-0.22	0.750			
0.7024	44952.25	3.6530	3.6532	2.2562	25.73	-0.22	0.750			
0.7086	45351.21	3.6500	3.6499	2.0306	25.73	-0.22	0.750			
0.7140	45697.30	3.6470	3.6466	1.8203	25.72	-0.23	0.750			
0.7191	46023.79	3.6440	3.6440	1.6621	25.72	-0.23	0.750			
0.7240	46336.08	3.6410	3.6413	1.5500	25.73	-0.22	0.750			
0.7285	46623.40	3.6380	3.6382	1.4491	25.73	-0.22	0.750			
0.7326	46888.29	3.6350	3.6351	1.3469	25.74	-0.21	0.750			
0.7364	47130.74	3.6320	3.6319	1.2807	25.74	-0.21	0.750			
0.7400	47359.99	3.6290	3.6290	1.2271	25.74	-0.21	0.750			
0.7436	47590.99	3.6260	3.6259	1.2101	25.74	-0.21	0.750			
0.7472	47820.20	3.6230	3.6230	1.2076	25.74	-0.21	0.750			
0.7508	48049.85	3.6200	3.6200	1.2233	25.75	-0.20	0.750			
0.7545	48285.95	3.6170	3.6170	1.2301	25.75	-0.20	0.750			
0.7582	48526.34	3.6140	3.6140	1.2219	25.75	-0.20	0.750			
0.7619	48761.02	3.6110	3.6112	1.2204	25.75	-0.20	0.750			
0.7656	48998.26	3.6080	3.6082	1.2104	25.74	-0.21	0.750			
0.7692	49230.46	3.6050	3.6045	1.1890	25.74	-0.21	0.750			
0.7727	49452.54	3.6020	3.6021	1.1750	25.74	-0.21	0.750			
0.7761	49673.47	3.5990	3.5992	1.1697	25.74	-0.21	0.750			
0.7797	49899.96	3.5960	3.5959	1.1804	25.74	-0.21	0.750			
0.7832	50124.05	3.5930	3.5931	1.1752	25.74	-0.21	0.750			
0.7867	50348.56	3.5900	3.5901	1.1998	25.74	-0.21	0.750			
0.7903	50579.74	3.5870	3.5871	1.2409	25.75	-0.20	0.750			
0.7941	50823.47	3.5840	3.5835	1.2577	25.75	-0.20	0.750			
0.7980	51069.21	3.5810	3.5811	1.2832	25.75	-0.20	0.750			
0.8019	51319.51	3.5780	3.5782	1.3049	25.74	-0.21	0.750			
0.8058	51569.01	3.5750	3.5750	1.3519	25.74	-0.21	0.750			
0.8097	51820.92	3.5720	3.5723	1.4028	25.74	-0.21	0.750			
0.8141	52099.89	3.5690	3.5697	1.4602	25.73	-0.22	0.750			
0.8186	52389.45	3.5660	3.5663	1.4986	25.72	-0.23	0.750			
0.8234	52697.81	3.5630	3.5633	1.5301	25.72	-0.23	0.750			
0.8280	52992.13	3.5600	3.5603	1.5551	25.72	-0.23	0.750			
0.8328	53297.19	3.5570	3.5570	1.5501	25.72	-0.23	0.750			
0.8374	53593.79	3.5540	3.5542	1.5884	25.72	-0.23	0.750			
0.8421	53894.01	3.5510	3.5515	1.6134	25.72	-0.23	0.750			
0.8471	54215.86	3.5480	3.5479	1.6316	25.72	-0.23	0.750			
0.8522	54539.71	3.5450	3.5448	1.6625	25.73	-0.22	0.750			
0.8572	54860.88	3.5420	3.5420	1.6750	25.73	-0.22	0.750			
0.8621	55172.54	3.5390	3.5391	1.7114	25.73	-0.22	0.750			
0.8672	55500.58	3.5360	3.5363	1.7229	25.73	-0.22	0.750			
0.8725	55838.88	3.5330	3.5329	1.7407	25.73	-0.22	0.750			
0.8780	56194.25	3.5300	3.5300	1.7106	25.74	-0.21	0.750			
0.8836	56551.47	3.5270	3.5271	1.6133	25.76	-0.19	0.750			
0.8886	56871.48	3.5240	3.5239	1.3937	25.77	-0.18	0.750			
0.8925	57119.12	3.5210	3.5218	1.1149	25.78	-0.17	0.750			
0.8952	57294.90	3.5180	3.5181	0.8659	25.79	-0.16	0.750			
0.8971	57414.29	3.5150	3.5146	0.6284	25.81	-0.14	0.750			
0.8983	57489.50	3.5120	3.5118	0.4744	25.81	-0.14	0.750			
0.8994	57563.52	3.5090	3.5087	0.4006	25.82	-0.13	0.750			
0.9005	57629.51	3.5060	3.5061	0.3588	25.82	-0.13	0.750			
0.9015	57694.35	3.5030	3.5029	0.3341	25.83	-0.12	0.750			
0.9024	57754.53	3.5000	3.5001	0.3167	25.83	-0.12	0.750			
0.9033	57813.88	3.4970	3.4969	0.3034	25.84	-0.11	0.750			
0.9042	57869.60	3.4940	3.4940	0.2923	25.85	-0.10	0.750			
0.9051	57924.84	3.4910	3.4911	0.2840	25.85	-0.10	0.750			
0.9059	57977.91	3.4880	3.4880	0.2773	25.85	-0.10	0.750			
0.9067	58030.08	3.4850	3.4849	0.2709	25.86	-0.09	0.750			
0.9075	58081.29	3.4820	3.4820	0.2655	25.86	-0.09	0.750			
0.9083	58131.49	3.4790	3.4790	0.2601	25.87	-0.08	0.750			
0.9091	58181.52	3.4760	3.4760	0.2577	25.88	-0.07	0.750			
0.9099	58230.71	3.4730	3.4730	0.2522	25.88	-0.07	0.750			
0.9106	58278.60	3.4700	3.4700	0.2462	25.89	-0.06	0.750			
0.9113	58325.93	3.4670	3.4670	0.2415	25.89	-0.06	0.750			
0.9121	58371.57	3.4640	3.4640	0.2359	25.90	-0.05	0.750			
0.9128	58416.16	3.4610	3.4609	0.2317	25.90	-0.05	0.750			
0.9134	58459.85	3.4580	3.4580	0.2272	25.91	-0.04	0.750			
0.9141	58502.65	3.4550	3.4550	0.2228	25.91	-0.04	0.750			
0.9148	58544.63	3.4520	3.4520	0.2195	25.92	-0.03	0.750			
0.9154	58587.14	3.4490	3.4490	0.2168	25.92	-0.03	0.750			
0.9161	58628.93	3.4460	3.4460	0.2132	25.93	-0.02	0.750			
0.9167	58669.41	3.4430	3.4430	0.2084	25.93	-0.02	0.750			
0.9173	58709.37	3.4400	3.4401	0.2032	25.94	-0.01	0.750			
0.9179	58747.57	3.4370	3.4371	0.1987	25.94	-0.01	0.750			
0.9185	58785.02	3.4340	3.4339	0.1940	25.94	-0.01	0.750			
0.9191	58821.85	3.4310	3.4311	0.1897	25.95	-0.00	0.750			
0.9196	58857.46	3.4280	3.4281	0.1852	25.95	0.00	0.750			
0.9202	58892.84	3.4250	3.4251	0.1812	25.96	0.01	0.750			
0.9207	58927.80	3.4220	3.4219	0.1771	25.96	0.01	0.750			
0.9213	58961.29	3.4190	3.4192	0.1718	25.96	0.01	0.750			
0.9218	58993.91	3.4160	3.4160	0.1677	25.97	0.02	0.750			
0.9223	59025.35	3.4130	3.4132	0.1624	25.97	0.02	0.750			
0.9228	59056.22	3.4100	3.4099	0.1574	25.97	0.02	0.750			
0.9232	59085.97	3.4070	3.4069	0.1525	25.98	0.03	0.750			
0.9237	59114.83	3.4040	3.4041	0.1473	25.98	0.03	0.750			
0.9241	59142.76	3.4010	3.4011	0.1424	25.98	0.03	0.750			
0.9245	59169.80	3.3980	3.3980	0.1377	25.99	0.04	0.750			
0.9249	59195.70	3.3950	3.3950	0.1318	25.99	0.04	0.750			
0.9253	59220.23	3.3920	3.3920	0.1257	25.99	0.04	0.750			
0.9257	59244.27	3.3890	3.3889	0.1198	26.00	0.05	0.750			
0.9260	59266.66	3.3860	3.3860	0.1134	26.00	0.05	0.750			
0.9264	59288.19	3.3830	3.3831	0.1073	26.00	0.05	0.750			
0.9267	59309.07	3.3800	3.3799	0.0996	26.00	0.05	0.750			
0.9270	59327.31	3.3770	3.3769	0.0904	26.00	0.05	0.750			
0.9273	59344.13	3.3740	3.3740	0.0822	26.01	0.06	0.750			
0.9275	59359.00	3.3710	3.3712	0.0726	26.01	0.06	0.750			
0.9277	59372.62	3.3680	3.3683	0.0636	26.01	0.06	0.750			
0.9279	59383.86	3.3650	3.3659	0.0535	26.01	0.06	0.750			
0.9280	59393.15	3.3620	3.3631	0.0433	26.01	0.06	0.750			
0.9281	59400.50	3.3590	3.3601	0.0332	26.01	0.06	0.750			
0.9282	59405.90	3.3560	3.3575	0.0231	26.01	0.06	0.750			
