Ah_balance (normalized)	Ah_balance (mAh)	Voltage - fit (V)	Voltage -  interpolate (V)	dQ/dV (1/V)	Temperature (°C)	Temperature - diff (°C)	Current (C)	R_DC 0ms (mOhm)	R_DC 50ms (mOhm)	R_DC 50 ms PEC (mOhm)
0.0538	3446.19	4.1990	4.1990	0.7526	26.76	0.76	0.750			
0.0561	3591.51	4.1960	4.1960	0.7577	26.76	0.76	0.750			
0.0584	3736.24	4.1930	4.1930	0.7579	26.76	0.76	0.750			
0.0607	3882.89	4.1900	4.1900	0.7582	26.76	0.76	0.750			
0.0629	4028.77	4.1870	4.1870	0.7576	26.76	0.76	0.750			
0.0652	4173.61	4.1840	4.1841	0.7578	26.76	0.76	0.750			
0.0675	4318.70	4.1810	4.1810	0.7601	26.76	0.76	0.750			
0.0698	4464.64	4.1780	4.1780	0.7544	26.76	0.76	0.750			
0.0720	4609.26	4.1750	4.1750	0.7545	26.76	0.76	0.750			
0.0743	4753.80	4.1720	4.1721	0.7534	26.76	0.76	0.750			
0.0765	4898.06	4.1690	4.1688	0.7581	26.76	0.76	0.750			
0.0788	5043.82	4.1660	4.1660	0.7571	26.76	0.76	0.750			
0.0811	5189.51	4.1630	4.1630	0.7556	26.76	0.76	0.750			
0.0833	5334.30	4.1600	4.1600	0.7623	26.76	0.76	0.750			
0.0856	5481.59	4.1570	4.1570	0.7630	26.76	0.76	0.750			
0.0880	5628.86	4.1540	4.1539	0.7656	26.76	0.76	0.750			
0.0903	5776.43	4.1510	4.1511	0.7670	26.76	0.76	0.750			
0.0926	5923.96	4.1480	4.1480	0.7641	26.76	0.76	0.750			
0.0949	6071.25	4.1450	4.1450	0.7688	26.76	0.76	0.750			
0.0972	6218.00	4.1420	4.1420	0.7702	26.75	0.75	0.750			
0.0994	6363.91	4.1390	4.1390	0.7703	26.75	0.75	0.750			
0.1018	6514.00	4.1360	4.1360	0.7745	26.75	0.75	0.750			
0.1041	6663.18	4.1330	4.1330	0.7755	26.75	0.75	0.750			
0.1065	6813.93	4.1300	4.1300	0.7752	26.75	0.75	0.750			
0.1088	6962.01	4.1270	4.1271	0.7765	26.74	0.74	0.750			
0.1111	7108.48	4.1240	4.1240	0.7769	26.74	0.74	0.750			
0.1134	7258.28	4.1210	4.1208	0.7817	26.74	0.74	0.750			
0.1157	7407.99	4.1180	4.1181	0.7841	26.74	0.74	0.750			
0.1181	7559.65	4.1150	4.1150	0.7924	26.74	0.74	0.750			
0.1205	7715.03	4.1120	4.1121	0.7970	26.74	0.74	0.750			
0.1230	7868.82	4.1090	4.1088	0.7981	26.74	0.74	0.750			
0.1253	8021.01	4.1060	4.1060	0.7906	26.74	0.74	0.750			
0.1277	8171.55	4.1030	4.1032	0.7954	26.74	0.74	0.750			
0.1301	8327.62	4.1000	4.0999	0.7906	26.74	0.74	0.750			
0.1325	8478.18	4.0970	4.0969	0.7882	26.74	0.74	0.750			
0.1348	8626.64	4.0940	4.0940	0.7900	26.74	0.74	0.750			
0.1372	8778.96	4.0910	4.0913	0.7928	26.74	0.74	0.750			
0.1396	8931.26	4.0880	4.0877	0.7953	26.74	0.74	0.750			
0.1420	9085.24	4.0850	4.0851	0.7967	26.74	0.74	0.750			
0.1443	9236.77	4.0820	4.0820	0.7879	26.74	0.74	0.750			
0.1467	9389.47	4.0790	4.0790	0.7961	26.74	0.74	0.750			
0.1491	9540.11	4.0760	4.0761	0.7968	26.74	0.74	0.750			
0.1515	9693.41	4.0730	4.0727	0.8013	26.74	0.74	0.750			
0.1539	9848.78	4.0700	4.0701	0.8062	26.74	0.74	0.750			
0.1563	10004.82	4.0670	4.0670	0.8044	26.74	0.74	0.750			
0.1588	10160.04	4.0640	4.0641	0.8143	26.73	0.73	0.750			
0.1612	10315.53	4.0610	4.0611	0.8128	26.73	0.73	0.750			
0.1636	10471.50	4.0580	4.0578	0.8151	26.73	0.73	0.750			
0.1661	10627.63	4.0550	4.0551	0.8175	26.73	0.73	0.750			
0.1686	10787.38	4.0520	4.0521	0.8195	26.73	0.73	0.750			
0.1710	10945.83	4.0490	4.0490	0.8252	26.74	0.74	0.750			
0.1735	11102.25	4.0460	4.0460	0.8245	26.74	0.74	0.750			
0.1759	11260.67	4.0430	4.0428	0.8266	26.74	0.74	0.750			
0.1784	11420.30	4.0400	4.0401	0.8317	26.74	0.74	0.750			
0.1809	11580.55	4.0370	4.0370	0.8361	26.73	0.73	0.750			
0.1835	11743.05	4.0340	4.0341	0.8405	26.73	0.73	0.750			
0.1860	11903.37	4.0310	4.0309	0.8406	26.72	0.72	0.750			
0.1885	12065.67	4.0280	4.0279	0.8422	26.72	0.72	0.750			
0.1910	12226.96	4.0250	4.0250	0.8420	26.72	0.72	0.750			
0.1936	12388.73	4.0220	4.0220	0.8455	26.72	0.72	0.750			
0.1961	12551.54	4.0190	4.0190	0.8495	26.72	0.72	0.750			
0.1987	12714.04	4.0160	4.0160	0.8520	26.72	0.72	0.750			
0.2012	12879.29	4.0130	4.0128	0.8558	26.72	0.72	0.750			
0.2038	13044.62	4.0100	4.0101	0.8549	26.72	0.72	0.750			
0.2064	13209.67	4.0070	4.0071	0.8605	26.72	0.72	0.750			
0.2090	13375.12	4.0040	4.0041	0.8646	26.72	0.72	0.750			
0.2115	13539.11	4.0010	4.0010	0.8655	26.72	0.72	0.750			
0.2142	13706.34	3.9980	3.9979	0.8676	26.72	0.72	0.750			
0.2168	13874.11	3.9950	3.9951	0.8705	26.72	0.72	0.750			
0.2194	14044.26	3.9920	3.9920	0.8750	26.71	0.71	0.750			
0.2220	14211.06	3.9890	3.9890	0.8744	26.71	0.71	0.750			
0.2246	14377.27	3.9860	3.9861	0.8701	26.70	0.70	0.750			
0.2273	14544.70	3.9830	3.9830	0.8711	26.70	0.70	0.750			
0.2299	14712.79	3.9800	3.9799	0.8700	26.70	0.70	0.750			
0.2325	14880.03	3.9770	3.9771	0.8779	26.70	0.70	0.750			
0.2351	15047.95	3.9740	3.9741	0.8783	26.71	0.71	0.750			
0.2378	15218.00	3.9710	3.9709	0.8804	26.71	0.71	0.750			
0.2404	15386.62	3.9680	3.9681	0.8809	26.71	0.71	0.750			
0.2431	15555.58	3.9650	3.9650	0.8805	26.71	0.71	0.750			
0.2457	15724.39	3.9620	3.9620	0.8832	26.70	0.70	0.750			
0.2484	15894.70	3.9590	3.9590	0.8869	26.70	0.70	0.750			
0.2510	16063.13	3.9560	3.9558	0.8878	26.70	0.70	0.750			
0.2537	16237.13	3.9530	3.9530	0.8877	26.70	0.70	0.750			
0.2564	16408.16	3.9500	3.9501	0.8856	26.70	0.70	0.750			
0.2590	16577.40	3.9470	3.9470	0.8902	26.69	0.69	0.750			
0.2617	16749.23	3.9440	3.9440	0.8883	26.69	0.69	0.750			
0.2643	16916.88	3.9410	3.9408	0.8848	26.69	0.69	0.750			
0.2670	17086.58	3.9380	3.9381	0.8870	26.69	0.69	0.750			
0.2696	17256.53	3.9350	3.9351	0.8924	26.69	0.69	0.750			
0.2723	17430.16	3.9320	3.9319	0.8982	26.68	0.68	0.750			
0.2750	17603.01	3.9290	3.9290	0.8974	26.68	0.68	0.750			
0.2777	17774.80	3.9260	3.9260	0.8966	26.68	0.68	0.750			
0.2805	17949.57	3.9230	3.9231	0.8984	26.67	0.67	0.750			
0.2831	18120.93	3.9200	3.9200	0.8951	26.67	0.67	0.750			
0.2858	18290.37	3.9170	3.9170	0.8992	26.67	0.67	0.750			
0.2885	18462.52	3.9140	3.9139	0.9032	26.66	0.66	0.750			
0.2912	18638.05	3.9110	3.9110	0.9048	26.65	0.65	0.750			
0.2939	18811.74	3.9080	3.9080	0.9097	26.65	0.65	0.750			
0.2967	18987.77	3.9050	3.9051	0.9172	26.64	0.64	0.750			
0.2994	19163.93	3.9020	3.9021	0.9246	26.63	0.63	0.750			
0.3022	19340.06	3.8990	3.8989	0.9258	26.63	0.63	0.750			
0.3050	19518.30	3.8960	3.8960	0.9258	26.62	0.62	0.750			
0.3078	19697.40	3.8930	3.8930	0.9311	26.61	0.61	0.750			
0.3106	19876.65	3.8900	3.8901	0.9374	26.61	0.61	0.750			
0.3134	20056.19	3.8870	3.8869	0.9417	26.60	0.60	0.750			
0.3162	20239.21	3.8840	3.8840	0.9372	26.59	0.59	0.750			
0.3190	20418.23	3.8810	3.8810	0.9432	26.58	0.58	0.750			
0.3219	20599.80	3.8780	3.8781	0.9529	26.57	0.57	0.750			
0.3247	20783.60	3.8750	3.8751	0.9603	26.57	0.57	0.750			
0.3276	20968.05	3.8720	3.8720	0.9616	26.56	0.56	0.750			
0.3305	21152.68	3.8690	3.8691	0.9657	26.55	0.55	0.750			
0.3334	21339.80	3.8660	3.8660	0.9695	26.54	0.54	0.750			
0.3364	21527.73	3.8630	3.8631	0.9735	26.53	0.53	0.750			
0.3393	21713.76	3.8600	3.8599	0.9699	26.52	0.52	0.750			
0.3422	21900.11	3.8570	3.8570	0.9678	26.51	0.51	0.750			
0.3451	22085.29	3.8540	3.8540	0.9704	26.51	0.51	0.750			
0.3480	22271.69	3.8510	3.8511	0.9748	26.51	0.51	0.750			
0.3509	22459.78	3.8480	3.8478	0.9768	26.50	0.50	0.750			
0.3539	22649.65	3.8450	3.8450	0.9743	26.49	0.49	0.750			
0.3568	22835.52	3.8420	3.8420	0.9774	26.48	0.48	0.750			
0.3597	23023.15	3.8390	3.8391	0.9826	26.47	0.47	0.750			
0.3627	23211.24	3.8360	3.8359	0.9812	26.46	0.46	0.750			
0.3656	23400.77	3.8330	3.8330	0.9860	26.45	0.45	0.750			
0.3686	23590.24	3.8300	3.8301	0.9900	26.45	0.45	0.750			
0.3716	23780.93	3.8270	3.8270	1.0013	26.44	0.44	0.750			
0.3746	23975.92	3.8240	3.8241	1.0110	26.43	0.43	0.750			
0.3776	24169.19	3.8210	3.8209	1.0118	26.42	0.42	0.750			
0.3807	24364.05	3.8180	3.8181	1.0222	26.40	0.40	0.750			
0.3838	24562.11	3.8150	3.8150	1.0261	26.39	0.39	0.750			
0.3869	24758.86	3.8120	3.8121	1.0326	26.38	0.38	0.750			
0.3900	24960.25	3.8090	3.8090	1.0314	26.37	0.37	0.750			
0.3930	25154.86	3.8060	3.8060	1.0428	26.35	0.35	0.750			
0.3962	25355.76	3.8030	3.8030	1.0538	26.34	0.34	0.750			
0.3993	25558.36	3.8000	3.8001	1.0702	26.33	0.33	0.750			
0.4026	25765.27	3.7970	3.7970	1.0797	26.32	0.32	0.750			
0.4058	25974.20	3.7940	3.7941	1.1044	26.31	0.31	0.750			
0.4092	26188.12	3.7910	3.7910	1.1176	26.30	0.30	0.750			
0.4126	26405.95	3.7880	3.7880	1.1336	26.29	0.29	0.750			
0.4160	26624.08	3.7850	3.7851	1.1349	26.28	0.28	0.750			
0.4194	26842.80	3.7820	3.7821	1.1564	26.27	0.27	0.750			
0.4229	27064.13	3.7790	3.7791	1.1770	26.26	0.26	0.750			
0.4264	27291.62	3.7760	3.7757	1.1954	26.25	0.25	0.750			
0.4299	27516.71	3.7730	3.7731	1.2334	26.24	0.24	0.750			
0.4338	27761.33	3.7700	3.7700	1.2692	26.23	0.23	0.750			
0.4377	28013.23	3.7670	3.7667	1.2933	26.21	0.21	0.750	0.303	0.422	
0.4416	28263.76	3.7640	3.7643	1.3197	26.20	0.20	0.750			
0.4456	28519.42	3.7610	3.7611	1.3480	26.19	0.19	0.750			
0.4497	28783.05	3.7580	3.7579	1.3646	26.18	0.18	0.750			
0.4539	29047.26	3.7550	3.7550	1.3876	26.16	0.16	0.750			
0.4580	29311.98	3.7520	3.7521	1.4136	26.15	0.15	0.750			
0.4623	29589.24	3.7490	3.7489	1.4460	26.14	0.14	0.750			
0.4667	29868.51	3.7460	3.7461	1.4867	26.12	0.12	0.750			
0.4712	30153.72	3.7430	3.7429	1.5158	26.11	0.11	0.750			
0.4758	30449.43	3.7400	3.7399	1.5585	26.09	0.09	0.750			
0.4805	30750.78	3.7370	3.7369	1.6042	26.08	0.08	0.750			
0.4855	31070.07	3.7340	3.7340	1.6466	26.06	0.06	0.750			
0.4905	31390.09	3.7310	3.7311	1.6853	26.05	0.05	0.750			
0.4956	31715.87	3.7280	3.7279	1.7251	26.03	0.03	0.750			
0.5008	32049.82	3.7250	3.7250	1.7554	26.01	0.01	0.750			
0.5061	32392.19	3.7220	3.7219	1.8039	26.00	0.00	0.750			
0.5116	32740.53	3.7190	3.7190	1.8554	25.99	-0.01	0.750			
0.5172	33098.95	3.7160	3.7158	1.9191	25.98	-0.02	0.750			
0.5231	33475.88	3.7130	3.7129	1.9898	25.96	-0.04	0.750			
0.5291	33864.07	3.7100	3.7102	2.0555	25.94	-0.06	0.750			
0.5354	34268.77	3.7070	3.7071	2.1116	25.92	-0.08	0.750			
0.5419	34680.56	3.7040	3.7038	2.1759	25.90	-0.10	0.750			
0.5485	35104.96	3.7010	3.7012	2.2281	25.89	-0.11	0.750			
0.5553	35539.80	3.6980	3.6978	2.3083	25.87	-0.13	0.750			
0.5623	35986.93	3.6950	3.6950	2.3687	25.85	-0.15	0.750			
0.5694	36444.32	3.6920	3.6919	2.4384	25.84	-0.16	0.750			
0.5770	36925.57	3.6890	3.6890	2.5263	25.82	-0.18	0.750			
0.5846	37415.12	3.6860	3.6859	2.5925	25.81	-0.19	0.750			
0.5925	37922.86	3.6830	3.6831	2.7104	25.79	-0.21	0.750			
0.6008	38452.66	3.6800	3.6800	2.7886	25.77	-0.23	0.750			
0.6094	38999.26	3.6770	3.6770	2.8588	25.77	-0.23	0.750			
0.6180	39553.39	3.6740	3.6741	2.9173	25.76	-0.24	0.750			
0.6271	40134.69	3.6710	3.6709	2.8562	25.75	-0.25	0.750			
0.6357	40686.74	3.6680	3.6682	2.7025	25.75	-0.25	0.750			
0.6437	41198.65	3.6650	3.6649	2.4806	25.75	-0.25	0.750			
0.6504	41625.27	3.6620	3.6621	2.2067	25.75	-0.25	0.750			
0.6565	42015.01	3.6590	3.6593	1.9811	25.75	-0.25	0.750			
0.6621	42377.56	3.6560	3.6559	1.8168	25.75	-0.25	0.750			
0.6672	42698.97	3.6530	3.6528	1.6661	25.75	-0.25	0.750			
0.6719	43001.50	3.6500	3.6502	1.5407	25.76	-0.24	0.750			
0.6765	43296.81	3.6470	3.6469	1.4534	25.76	-0.24	0.750			
0.6806	43558.20	3.6440	3.6441	1.3561	25.76	-0.24	0.750			
0.6844	43804.28	3.6410	3.6412	1.2735	25.76	-0.24	0.750			
0.6881	44041.50	3.6380	3.6378	1.2370	25.76	-0.24	0.750			
0.6917	44269.91	3.6350	3.6350	1.1984	25.76	-0.24	0.750			
0.6952	44494.94	3.6320	3.6321	1.1914	25.77	-0.23	0.750			
0.6988	44721.69	3.6290	3.6291	1.1979	25.77	-0.23	0.750			
0.7024	44950.76	3.6260	3.6260	1.1984	25.77	-0.23	0.750			
0.7060	45183.76	3.6230	3.6229	1.2002	25.77	-0.23	0.750			
0.7096	45416.50	3.6200	3.6200	1.2034	25.77	-0.23	0.750			
0.7133	45651.22	3.6170	3.6170	1.1887	25.77	-0.23	0.750			
0.7169	45881.19	3.6140	3.6140	1.1810	25.77	-0.23	0.750			
0.7204	46105.15	3.6110	3.6110	1.1593	25.77	-0.23	0.750			
0.7238	46321.05	3.6080	3.6082	1.1454	25.77	-0.23	0.750			
0.7272	46541.04	3.6050	3.6048	1.1280	25.77	-0.23	0.750			
0.7305	46753.51	3.6020	3.6021	1.1389	25.77	-0.23	0.750			
0.7339	46967.04	3.5990	3.5990	1.1503	25.77	-0.23	0.750			
0.7374	47192.23	3.5960	3.5961	1.1689	25.77	-0.23	0.750			
0.7409	47417.10	3.5930	3.5931	1.1994	25.77	-0.23	0.750			
0.7445	47650.03	3.5900	3.5900	1.2352	25.76	-0.24	0.750			
0.7483	47890.58	3.5870	3.5872	1.2734	25.75	-0.25	0.750			
0.7522	48140.16	3.5840	3.5838	1.3097	25.75	-0.25	0.750			
0.7561	48391.70	3.5810	3.5810	1.3635	25.75	-0.25	0.750			
0.7603	48656.65	3.5780	3.5781	1.4179	25.76	-0.24	0.750			
0.7647	48938.19	3.5750	3.5750	1.4559	25.76	-0.24	0.750			
0.7691	49220.44	3.5720	3.5718	1.5117	25.76	-0.24	0.750			
0.7738	49523.18	3.5690	3.5691	1.5430	25.75	-0.25	0.750			
0.7785	49822.04	3.5660	3.5660	1.5753	25.75	-0.25	0.750			
0.7833	50128.99	3.5630	3.5634	1.5981	25.75	-0.25	0.750			
0.7881	50441.14	3.5600	3.5599	1.6148	25.75	-0.25	0.750			
0.7930	50754.12	3.5570	3.5568	1.6486	25.75	-0.25	0.750			
0.7980	51070.88	3.5540	3.5542	1.6567	25.75	-0.25	0.750			
0.8030	51393.72	3.5510	3.5513	1.6695	25.75	-0.25	0.750			
0.8081	51716.86	3.5480	3.5480	1.6846	25.75	-0.25	0.750			
0.8131	52038.13	3.5450	3.5450	1.6942	25.75	-0.25	0.750			
0.8182	52362.93	3.5420	3.5422	1.7367	25.76	-0.24	0.750			
0.8235	52704.79	3.5390	3.5391	1.7773	25.77	-0.23	0.750			
0.8292	53071.02	3.5360	3.5358	1.7054	25.77	-0.23	0.750			
0.8346	53414.50	3.5330	3.5330	1.5896	25.78	-0.22	0.750			
0.8396	53736.87	3.5300	3.5303	1.4032	25.79	-0.21	0.750			
0.8437	53997.32	3.5270	3.5273	1.1445	25.81	-0.19	0.750			
0.8465	54176.23	3.5240	3.5237	0.8474	25.83	-0.17	0.750			
0.8482	54284.46	3.5210	3.5205	0.6305	25.83	-0.17	0.750			
0.8493	54354.92	3.5180	3.5180	0.4661	25.84	-0.16	0.750			
0.8505	54429.87	3.5150	3.5149	0.3976	25.85	-0.15	0.750			
0.8515	54497.46	3.5120	3.5117	0.3613	25.85	-0.15	0.750			
0.8525	54561.04	3.5090	3.5091	0.3323	25.86	-0.14	0.750			
0.8535	54622.09	3.5060	3.5060	0.3159	25.86	-0.14	0.750			
0.8544	54680.45	3.5030	3.5030	0.3023	25.87	-0.13	0.750			
0.8552	54735.33	3.5000	3.5001	0.2893	25.87	-0.13	0.750			
0.8561	54790.44	3.4970	3.4970	0.2831	25.88	-0.12	0.750			
0.8569	54843.90	3.4940	3.4939	0.2761	25.89	-0.11	0.750			
0.8578	54896.54	3.4910	3.4910	0.2700	25.89	-0.11	0.750			
0.8586	54947.92	3.4880	3.4881	0.2666	25.90	-0.10	0.750			
0.8593	54998.39	3.4850	3.4850	0.2605	25.90	-0.10	0.750			
0.8601	55047.64	3.4820	3.4819	0.2548	25.91	-0.09	0.750			
0.8609	55096.43	3.4790	3.4790	0.2491	25.91	-0.09	0.750			
0.8616	55144.09	3.4760	3.4762	0.2444	25.92	-0.08	0.750			
0.8623	55190.21	3.4730	3.4730	0.2391	25.92	-0.08	0.750			
0.8630	55235.16	3.4700	3.4701	0.2338	25.92	-0.08	0.750			
0.8637	55279.00	3.4670	3.4669	0.2282	25.93	-0.07	0.750			
0.8644	55322.56	3.4640	3.4640	0.2234	25.93	-0.07	0.750			
0.8651	55365.37	3.4610	3.4610	0.2192	25.94	-0.06	0.750			
0.8657	55406.56	3.4580	3.4581	0.2161	25.94	-0.06	0.750			
0.8664	55447.74	3.4550	3.4550	0.2125	25.94	-0.06	0.750			
0.8670	55488.39	3.4520	3.4519	0.2058	25.95	-0.05	0.750			
0.8676	55527.51	3.4490	3.4489	0.2003	25.95	-0.05	0.750			
0.8682	55565.86	3.4460	3.4462	0.1944	25.95	-0.05	0.750			
0.8688	55602.55	3.4430	3.4431	0.1878	25.96	-0.04	0.750			
0.8693	55638.20	3.4400	3.4399	0.1834	25.96	-0.04	0.750			
0.8699	55672.54	3.4370	3.4370	0.1774	25.96	-0.04	0.750			
0.8704	55705.35	3.4340	3.4338	0.1704	25.97	-0.03	0.750			
0.8709	55737.69	3.4310	3.4310	0.1665	25.97	-0.03	0.750			
0.8714	55769.91	3.4280	3.4282	0.1621	25.97	-0.03	0.750			
0.8719	55800.54	3.4250	3.4250	0.1562	25.97	-0.03	0.750			
0.8723	55830.16	3.4220	3.4220	0.1514	25.98	-0.02	0.750			
0.8728	55858.64	3.4190	3.4190	0.1454	25.98	-0.02	0.750			
0.8732	55885.64	3.4160	3.4160	0.1393	25.98	-0.02	0.750			
0.8736	55912.26	3.4130	3.4129	0.1336	25.98	-0.02	0.750			
0.8740	55937.39	3.4100	3.4101	0.1275	25.99	-0.01	0.750			
0.8744	55961.43	3.4070	3.4070	0.1205	25.99	-0.01	0.750			
0.8748	55984.10	3.4040	3.4040	0.1138	25.99	-0.01	0.750			
0.8751	56006.71	3.4010	3.4009	0.1054	25.99	-0.01	0.750			
0.8754	56026.22	3.3980	3.3978	0.0965	25.99	-0.01	0.750			
0.8757	56043.75	3.3950	3.3950	0.0861	26.00	-0.00	0.750			
0.8759	56059.90	3.3920	3.3921	0.0764	26.00	-0.00	0.750			
0.8761	56073.49	3.3890	3.3894	0.0651	26.00	-0.00	0.750			
0.8763	56085.86	3.3860	3.3862	0.0531	26.00	-0.00	0.750			
0.8765	56094.81	3.3830	3.3838	0.0401	26.00	0.00	0.750			
0.8766	56101.27	3.3800	3.3816	0.0272	26.00	0.00	0.750			
