Ah_balance (normalized)	Ah_balance (mAh)	Voltage - fit (V)	Voltage -  interpolate (V)	dQ/dV (1/V)	Temperature (°C)	Temperature - diff (°C)	Current (C)	R_DC 0ms (mOhm)	R_DC 50ms (mOhm)	R_DC 50 ms PEC (mOhm)
0.0002	15.32	4.1600	4.1598	-0.1115	25.83	0.02	-0.750			
0.0006	40.06	4.1570	4.1570	-0.1495	25.83	0.02	-0.750			
0.0011	72.94	4.1540	4.1540	-0.1898	25.83	0.02	-0.750			
0.0018	114.28	4.1510	4.1510	-0.2265	25.83	0.02	-0.750			
0.0025	161.39	4.1480	4.1479	-0.2618	25.83	0.02	-0.750			
0.0034	215.79	4.1450	4.1451	-0.2962	25.82	0.01	-0.750			
0.0043	275.69	4.1420	4.1421	-0.3284	25.82	0.01	-0.750			
0.0053	341.70	4.1390	4.1390	-0.3631	25.82	0.01	-0.750			
0.0065	415.24	4.1360	4.1358	-0.3929	25.82	0.01	-0.750			
0.0077	494.02	4.1330	4.1330	-0.4224	25.81	0.00	-0.750			
0.0090	578.84	4.1300	4.1301	-0.4493	25.81	-0.00	-0.750			
0.0105	668.80	4.1270	4.1270	-0.4753	25.81	-0.00	-0.750			
0.0119	763.15	4.1240	4.1240	-0.4975	25.80	-0.01	-0.750			
0.0134	860.61	4.1210	4.1210	-0.5167	25.80	-0.01	-0.750			
0.0150	961.55	4.1180	4.1180	-0.5366	25.80	-0.01	-0.750			
0.0167	1067.71	4.1150	4.1150	-0.5518	25.79	-0.02	-0.750			
0.0184	1175.84	4.1120	4.1119	-0.5656	25.79	-0.02	-0.750			
0.0201	1285.78	4.1090	4.1089	-0.5768	25.78	-0.03	-0.750			
0.0218	1397.80	4.1060	4.1061	-0.5861	25.78	-0.03	-0.750			
0.0236	1510.79	4.1030	4.1031	-0.5969	25.78	-0.03	-0.750			
0.0254	1627.20	4.1000	4.1000	-0.6063	25.77	-0.04	-0.750			
0.0273	1744.39	4.0970	4.0969	-0.6148	25.77	-0.04	-0.750			
0.0291	1864.19	4.0940	4.0940	-0.6233	25.77	-0.04	-0.750			
0.0310	1983.26	4.0910	4.0912	-0.6319	25.76	-0.05	-0.750			
0.0329	2106.75	4.0880	4.0879	-0.6380	25.76	-0.05	-0.750			
0.0348	2230.21	4.0850	4.0850	-0.6426	25.76	-0.05	-0.750			
0.0368	2352.81	4.0820	4.0820	-0.6471	25.76	-0.05	-0.750			
0.0387	2478.13	4.0790	4.0791	-0.6531	25.76	-0.05	-0.750			
0.0407	2606.08	4.0760	4.0759	-0.6574	25.75	-0.06	-0.750			
0.0427	2732.87	4.0730	4.0730	-0.6578	25.75	-0.06	-0.750			
0.0447	2859.23	4.0700	4.0700	-0.6552	25.75	-0.06	-0.750			
0.0467	2986.06	4.0670	4.0673	-0.6562	25.75	-0.06	-0.750			
0.0486	3110.73	4.0640	4.0639	-0.6567	25.75	-0.06	-0.750			
0.0505	3234.52	4.0610	4.0611	-0.6641	25.75	-0.06	-0.750			
0.0525	3361.42	4.0580	4.0580	-0.6742	25.75	-0.06	-0.750			
0.0546	3495.61	4.0550	4.0548	-0.6863	25.75	-0.06	-0.750			
0.0567	3627.71	4.0520	4.0520	-0.6872	25.75	-0.06	-0.750			
0.0588	3761.54	4.0490	4.0492	-0.6936	25.75	-0.06	-0.750			
0.0609	3894.83	4.0460	4.0459	-0.6934	25.75	-0.06	-0.750			
0.0629	4026.40	4.0430	4.0429	-0.6920	25.75	-0.06	-0.750			
0.0650	4158.57	4.0400	4.0401	-0.6952	25.75	-0.06	-0.750			
0.0671	4294.25	4.0370	4.0369	-0.7012	25.75	-0.06	-0.750			
0.0692	4428.67	4.0340	4.0340	-0.7041	25.75	-0.06	-0.750			
0.0713	4563.51	4.0310	4.0310	-0.7053	25.75	-0.06	-0.750			
0.0734	4698.18	4.0280	4.0280	-0.7095	25.75	-0.06	-0.750			
0.0755	4834.94	4.0250	4.0250	-0.7157	25.76	-0.05	-0.750			
0.0777	4972.57	4.0220	4.0220	-0.7151	25.76	-0.05	-0.750			
0.0799	5110.50	4.0190	4.0190	-0.7184	25.76	-0.05	-0.750			
0.0820	5250.00	4.0160	4.0161	-0.7234	25.77	-0.04	-0.750			
0.0842	5389.17	4.0130	4.0129	-0.7206	25.77	-0.04	-0.750			
0.0864	5527.12	4.0100	4.0100	-0.7222	25.77	-0.04	-0.750			
0.0885	5665.26	4.0070	4.0070	-0.7233	25.77	-0.04	-0.750			
0.0907	5805.16	4.0040	4.0040	-0.7231	25.78	-0.03	-0.750			
0.0929	5945.12	4.0010	4.0008	-0.7233	25.78	-0.03	-0.750			
0.0950	6082.23	3.9980	3.9980	-0.7235	25.78	-0.03	-0.750			
0.0972	6220.53	3.9950	3.9951	-0.7250	25.78	-0.03	-0.750			
0.0994	6360.59	3.9920	3.9919	-0.7264	25.78	-0.03	-0.750			
0.1016	6499.21	3.9890	3.9890	-0.7329	25.78	-0.03	-0.750			
0.1038	6641.24	3.9860	3.9861	-0.7398	25.79	-0.02	-0.750			
0.1060	6785.44	3.9830	3.9829	-0.7441	25.79	-0.02	-0.750			
0.1083	6929.58	3.9800	3.9801	-0.7497	25.79	-0.02	-0.750			
0.1105	7073.53	3.9770	3.9769	-0.7469	25.79	-0.02	-0.750			
0.1128	7216.55	3.9740	3.9740	-0.7462	25.80	-0.01	-0.750			
0.1150	7360.78	3.9710	3.9710	-0.7470	25.80	-0.01	-0.750			
0.1172	7502.42	3.9680	3.9680	-0.7431	25.80	-0.01	-0.750			
0.1195	7646.05	3.9650	3.9650	-0.7473	25.81	-0.00	-0.750			
0.1217	7789.15	3.9620	3.9622	-0.7495	25.81	0.00	-0.750			
0.1239	7932.47	3.9590	3.9588	-0.7493	25.81	0.00	-0.750			
0.1262	8077.00	3.9560	3.9561	-0.7581	25.81	0.00	-0.750			
0.1285	8221.24	3.9530	3.9530	-0.7626	25.82	0.01	-0.750			
0.1308	8371.85	3.9500	3.9500	-0.7707	25.82	0.01	-0.750			
0.1331	8520.39	3.9470	3.9469	-0.7679	25.82	0.01	-0.750			
0.1354	8667.37	3.9440	3.9440	-0.7658	25.82	0.01	-0.750			
0.1377	8814.05	3.9410	3.9411	-0.7685	25.83	0.02	-0.750			
0.1400	8961.50	3.9380	3.9379	-0.7663	25.83	0.02	-0.750			
0.1423	9105.75	3.9350	3.9350	-0.7676	25.83	0.02	-0.750			
0.1446	9253.14	3.9320	3.9320	-0.7704	25.84	0.03	-0.750			
0.1469	9403.36	3.9290	3.9291	-0.7738	25.84	0.03	-0.750			
0.1493	9553.12	3.9260	3.9258	-0.7780	25.84	0.03	-0.750			
0.1516	9701.85	3.9230	3.9231	-0.7818	25.85	0.04	-0.750			
0.1539	9852.43	3.9200	3.9200	-0.7827	25.85	0.04	-0.750			
0.1563	10004.72	3.9170	3.9169	-0.7833	25.86	0.05	-0.750			
0.1587	10154.39	3.9140	3.9139	-0.7817	25.86	0.05	-0.750			
0.1610	10304.14	3.9110	3.9110	-0.7816	25.86	0.05	-0.750			
0.1633	10453.13	3.9080	3.9081	-0.7840	25.86	0.05	-0.750			
0.1657	10603.09	3.9050	3.9049	-0.7838	25.87	0.06	-0.750			
0.1680	10753.32	3.9020	3.9019	-0.7863	25.87	0.06	-0.750			
0.1704	10905.75	3.8990	3.8990	-0.7934	25.87	0.06	-0.750			
0.1728	11059.05	3.8960	3.8961	-0.7941	25.87	0.06	-0.750			
0.1752	11212.23	3.8930	3.8929	-0.7961	25.88	0.07	-0.750			
0.1776	11365.80	3.8900	3.8901	-0.7972	25.88	0.07	-0.750			
0.1800	11517.18	3.8870	3.8870	-0.7949	25.88	0.07	-0.750			
0.1824	11670.46	3.8840	3.8839	-0.7965	25.89	0.08	-0.750			
0.1847	11823.75	3.8810	3.8812	-0.7969	25.89	0.08	-0.750			
0.1871	11975.04	3.8780	3.8780	-0.8011	25.89	0.08	-0.750			
0.1895	12130.53	3.8750	3.8750	-0.8043	25.90	0.09	-0.750			
0.1920	12285.98	3.8720	3.8720	-0.7973	25.90	0.09	-0.750			
0.1944	12438.92	3.8690	3.8689	-0.7992	25.91	0.10	-0.750			
0.1967	12591.67	3.8660	3.8663	-0.8029	25.91	0.10	-0.750			
0.1992	12746.40	3.8630	3.8630	-0.8028	25.91	0.10	-0.750			
0.2016	12900.12	3.8600	3.8599	-0.8058	25.92	0.11	-0.750			
0.2040	13056.31	3.8570	3.8569	-0.8021	25.92	0.11	-0.750			
0.2064	13211.04	3.8540	3.8541	-0.8075	25.93	0.12	-0.750			
0.2089	13367.14	3.8510	3.8513	-0.8025	25.93	0.12	-0.750			
0.2112	13518.80	3.8480	3.8479	-0.7992	25.93	0.12	-0.750			
0.2136	13672.21	3.8450	3.8449	-0.7981	25.94	0.13	-0.750			
0.2160	13824.65	3.8420	3.8420	-0.7963	25.94	0.13	-0.750			
0.2184	13979.89	3.8390	3.8389	-0.7987	25.95	0.14	-0.750			
0.2208	14132.14	3.8360	3.8361	-0.7958	25.95	0.14	-0.750			
0.2232	14283.24	3.8330	3.8329	-0.7936	25.95	0.14	-0.750			
0.2255	14434.23	3.8300	3.8300	-0.7979	25.96	0.15	-0.750			
0.2279	14586.89	3.8270	3.8269	-0.7961	25.96	0.15	-0.750			
0.2303	14739.67	3.8240	3.8239	-0.7970	25.96	0.15	-0.750			
0.2327	14894.41	3.8210	3.8211	-0.7992	25.97	0.16	-0.750			
0.2351	15048.61	3.8180	3.8180	-0.7965	25.97	0.16	-0.750			
0.2375	15200.84	3.8150	3.8150	-0.7933	25.98	0.17	-0.750			
0.2399	15353.67	3.8120	3.8120	-0.7889	25.98	0.17	-0.750			
0.2422	15502.96	3.8090	3.8090	-0.7792	25.98	0.17	-0.750			
0.2446	15654.21	3.8060	3.8058	-0.7743	25.99	0.18	-0.750			
0.2469	15801.47	3.8030	3.8032	-0.7715	25.99	0.18	-0.750			
0.2492	15948.22	3.8000	3.8000	-0.7683	25.99	0.18	-0.750			
0.2515	16095.18	3.7970	3.7969	-0.7687	26.00	0.19	-0.750			
0.2538	16242.49	3.7940	3.7940	-0.7671	26.00	0.19	-0.750			
0.2561	16390.48	3.7910	3.7910	-0.7637	26.01	0.20	-0.750			
0.2584	16537.34	3.7880	3.7880	-0.7596	26.01	0.20	-0.750			
0.2607	16683.26	3.7850	3.7850	-0.7581	26.01	0.20	-0.750			
0.2629	16827.47	3.7820	3.7819	-0.7493	26.02	0.21	-0.750			
0.2652	16969.99	3.7790	3.7790	-0.7467	26.02	0.21	-0.750			
0.2674	17113.08	3.7760	3.7760	-0.7432	26.02	0.21	-0.750			
0.2696	17256.35	3.7730	3.7730	-0.7443	26.03	0.22	-0.750			
0.2719	17399.35	3.7700	3.7701	-0.7462	26.03	0.22	-0.750			
0.2741	17542.02	3.7670	3.7669	-0.7425	26.03	0.22	-0.750			
0.2763	17684.09	3.7640	3.7640	-0.7414	26.04	0.23	-0.750			
0.2785	17826.59	3.7610	3.7611	-0.7424	26.04	0.23	-0.750			
0.2808	17969.57	3.7580	3.7580	-0.7428	26.04	0.23	-0.750			
0.2830	18111.71	3.7550	3.7549	-0.7409	26.05	0.24	-0.750			
0.2852	18252.36	3.7520	3.7520	-0.7397	26.05	0.24	-0.750			
0.2874	18392.86	3.7490	3.7491	-0.7496	26.06	0.25	-0.750			
0.2897	18537.94	3.7460	3.7459	-0.7582	26.06	0.25	-0.750			
0.2919	18683.72	3.7430	3.7430	-0.7652	26.06	0.25	-0.750			
0.2943	18832.54	3.7400	3.7400	-0.7743	26.07	0.26	-0.750			
0.2966	18982.27	3.7370	3.7374	-0.7885	26.07	0.26	-0.750			
0.2990	19135.70	3.7340	3.7339	-0.7965	26.07	0.26	-0.750			
0.3014	19288.64	3.7310	3.7310	-0.8078	26.07	0.26	-0.750			
0.3038	19444.96	3.7280	3.7280	-0.8143	26.07	0.26	-0.750			
0.3063	19602.70	3.7250	3.7250	-0.8278	26.07	0.26	-0.750			
0.3088	19762.74	3.7220	3.7222	-0.8349	26.07	0.26	-0.750			
0.3113	19923.43	3.7190	3.7189	-0.8461	26.07	0.26	-0.750			
0.3138	20085.45	3.7160	3.7159	-0.8616	26.07	0.26	-0.750			
0.3165	20252.82	3.7130	3.7130	-0.8741	26.08	0.27	-0.750			
0.3191	20422.09	3.7100	3.7099	-0.8953	26.08	0.27	-0.750			
0.3218	20594.83	3.7070	3.7073	-0.9122	26.08	0.27	-0.750			
0.3246	20772.52	3.7040	3.7039	-0.9292	26.08	0.27	-0.750			
0.3274	20952.93	3.7010	3.7009	-0.9488	26.08	0.27	-0.750			
0.3303	21137.04	3.6980	3.6980	-0.9580	26.07	0.26	-0.750			
0.3332	21323.53	3.6950	3.6951	-0.9777	26.07	0.26	-0.750			
0.3361	21511.83	3.6920	3.6919	-0.9923	26.07	0.26	-0.750			
0.3391	21701.04	3.6890	3.6890	-1.0045	26.06	0.25	-0.750			
0.3421	21894.97	3.6860	3.6860	-1.0252	26.06	0.25	-0.750			
0.3452	22092.18	3.6830	3.6830	-1.0488	26.05	0.24	-0.750			
0.3484	22298.00	3.6800	3.6800	-1.0727	26.05	0.24	-0.750			
0.3517	22508.12	3.6770	3.6770	-1.0982	26.05	0.24	-0.750			
0.3550	22720.29	3.6740	3.6741	-1.1130	26.05	0.24	-0.750			
0.3584	22935.14	3.6710	3.6711	-1.1291	26.05	0.24	-0.750			
0.3618	23155.23	3.6680	3.6680	-1.1543	26.05	0.24	-0.750			
0.3653	23378.15	3.6650	3.6648	-1.1682	26.04	0.23	-0.750			
0.3688	23603.50	3.6620	3.6620	-1.1865	26.03	0.22	-0.750			
0.3724	23833.00	3.6590	3.6591	-1.2164	26.03	0.22	-0.750			
0.3761	24068.47	3.6560	3.6559	-1.2438	26.02	0.21	-0.750			
0.3799	24311.24	3.6530	3.6529	-1.2681	26.01	0.20	-0.750			
0.3837	24555.95	3.6500	3.6501	-1.2993	26.00	0.19	-0.750			
0.3877	24812.09	3.6470	3.6470	-1.3244	25.99	0.18	-0.750			
0.3917	25069.66	3.6440	3.6439	-1.3466	25.98	0.17	-0.750			
0.3958	25328.02	3.6410	3.6413	-1.3746	25.97	0.16	-0.750			
0.3999	25593.10	3.6380	3.6379	-1.3962	25.96	0.15	-0.750			
0.4041	25863.25	3.6350	3.6350	-1.4368	25.96	0.15	-0.750			
0.4085	26144.15	3.6320	3.6321	-1.4634	25.95	0.14	-0.750			
0.4129	26426.92	3.6290	3.6289	-1.4945	25.94	0.13	-0.750			
0.4176	26726.75	3.6260	3.6262	-1.5193	25.94	0.13	-0.750			
0.4222	27022.12	3.6230	3.6229	-1.5493	25.93	0.12	-0.750			
0.4269	27321.13	3.6200	3.6202	-1.5683	25.92	0.11	-0.750			
0.4317	27626.51	3.6170	3.6167	-1.5941	25.91	0.10	-0.750			
0.4365	27936.77	3.6140	3.6140	-1.6155	25.90	0.09	-0.750	0.424	0.557	
0.4413	28244.79	3.6110	3.6112	-1.6527	25.89	0.08	-0.750			
0.4463	28562.92	3.6080	3.6082	-1.6806	25.88	0.07	-0.750			
0.4514	28886.93	3.6050	3.6051	-1.7132	25.87	0.06	-0.750			
0.4567	29226.79	3.6020	3.6020	-1.7772	25.86	0.05	-0.750			
0.4620	29570.62	3.5990	3.5991	-1.8214	25.86	0.05	-0.750			
0.4677	29931.42	3.5960	3.5958	-1.8527	25.85	0.04	-0.750			
0.4733	30288.97	3.5930	3.5932	-1.8762	25.85	0.04	-0.750			
0.4789	30651.23	3.5900	3.5900	-1.9262	25.83	0.02	-0.750			
0.4848	31028.65	3.5870	3.5870	-1.9472	25.82	0.01	-0.750			
0.4905	31392.33	3.5840	3.5842	-1.9779	25.82	0.01	-0.750			
0.4965	31777.24	3.5810	3.5811	-2.0242	25.82	0.01	-0.750			
0.5028	32176.66	3.5780	3.5776	-2.0536	25.81	0.00	-0.750			
0.5091	32584.83	3.5750	3.5750	-2.0831	25.81	0.00	-0.750			
0.5154	32986.48	3.5720	3.5721	-2.1034	25.81	0.00	-0.750			
0.5218	33393.37	3.5690	3.5690	-2.1106	25.81	-0.00	-0.750			
0.5280	33794.12	3.5660	3.5662	-2.1305	25.80	-0.01	-0.750			
0.5344	34201.74	3.5630	3.5629	-2.1469	25.79	-0.02	-0.750			
0.5409	34620.46	3.5600	3.5601	-2.1731	25.79	-0.02	-0.750			
0.5476	35043.27	3.5570	3.5572	-2.1742	25.79	-0.02	-0.750			
0.5542	35466.49	3.5540	3.5540	-2.1743	25.79	-0.02	-0.750			
0.5606	35880.21	3.5510	3.5510	-2.1541	25.79	-0.02	-0.750			
0.5670	36289.77	3.5480	3.5480	-2.1405	25.79	-0.02	-0.750			
0.5734	36697.31	3.5450	3.5450	-2.1471	25.79	-0.02	-0.750			
0.5798	37109.47	3.5420	3.5418	-2.1522	25.79	-0.02	-0.750			
0.5864	37532.47	3.5390	3.5390	-2.1334	25.79	-0.02	-0.750			
0.5929	37943.25	3.5360	3.5359	-2.1097	25.80	-0.01	-0.750			
0.5991	38345.44	3.5330	3.5332	-2.0740	25.81	0.00	-0.750			
0.6054	38745.35	3.5300	3.5296	-2.0149	25.81	0.00	-0.750			
0.6113	39126.27	3.5270	3.5270	-1.9711	25.81	0.00	-0.750			
0.6171	39496.42	3.5240	3.5240	-1.9276	25.81	0.00	-0.750			
0.6230	39870.46	3.5210	3.5208	-1.8955	25.81	0.00	-0.750			
0.6286	40229.50	3.5180	3.5181	-1.8493	25.82	0.01	-0.750			
0.6341	40579.41	3.5150	3.5153	-1.8145	25.82	0.01	-0.750			
0.6394	40923.87	3.5120	3.5120	-1.7744	25.83	0.02	-0.750			
0.6447	41263.28	3.5090	3.5091	-1.7422	25.85	0.04	-0.750			
0.6499	41596.58	3.5060	3.5058	-1.7036	25.86	0.05	-0.750			
0.6550	41922.44	3.5030	3.5028	-1.6550	25.88	0.07	-0.750			
0.6599	42234.51	3.5000	3.5001	-1.5913	25.89	0.08	-0.750			
0.6646	42533.01	3.4970	3.4973	-1.5275	25.90	0.09	-0.750			
0.6691	42819.34	3.4940	3.4939	-1.4794	25.91	0.10	-0.750			
0.6734	43098.04	3.4910	3.4910	-1.4345	25.92	0.11	-0.750			
0.6776	43366.89	3.4880	3.4879	-1.3930	25.93	0.12	-0.750			
0.6817	43630.76	3.4850	3.4850	-1.3519	25.95	0.14	-0.750			
0.6857	43885.39	3.4820	3.4820	-1.3071	25.97	0.16	-0.750			
0.6896	44133.01	3.4790	3.4790	-1.2666	25.98	0.17	-0.750			
0.6933	44371.11	3.4760	3.4759	-1.2224	26.00	0.19	-0.750			
0.6969	44598.68	3.4730	3.4732	-1.1888	26.01	0.20	-0.750			
0.7004	44825.65	3.4700	3.4699	-1.1563	26.03	0.22	-0.750			
0.7038	45045.24	3.4670	3.4670	-1.1219	26.05	0.24	-0.750			
0.7072	45258.74	3.4640	3.4640	-1.0873	26.06	0.25	-0.750			
0.7104	45463.69	3.4610	3.4610	-1.0496	26.07	0.26	-0.750			
0.7135	45661.88	3.4580	3.4579	-1.0143	26.08	0.27	-0.750			
0.7164	45850.71	3.4550	3.4550	-0.9791	26.09	0.28	-0.750			
0.7193	46034.75	3.4520	3.4519	-0.9431	26.10	0.29	-0.750			
0.7221	46212.29	3.4490	3.4490	-0.9195	26.11	0.30	-0.750			
0.7248	46384.82	3.4460	3.4461	-0.8985	26.13	0.32	-0.750			
0.7274	46554.60	3.4430	3.4429	-0.8797	26.14	0.33	-0.750			
0.7300	46720.97	3.4400	3.4400	-0.8643	26.15	0.34	-0.750			
0.7325	46882.00	3.4370	3.4370	-0.8653	26.16	0.35	-0.750			
0.7351	47046.55	3.4340	3.4341	-0.8734	26.17	0.36	-0.750			
0.7377	47215.81	3.4310	3.4308	-0.8811	26.18	0.37	-0.750			
0.7404	47384.20	3.4280	3.4279	-0.8902	26.19	0.38	-0.750			
0.7431	47557.04	3.4250	3.4251	-0.8980	26.20	0.39	-0.750			
0.7458	47732.86	3.4220	3.4220	-0.9068	26.21	0.40	-0.750			
0.7486	47907.64	3.4190	3.4189	-0.9194	26.22	0.41	-0.750			
0.7513	48083.68	3.4160	3.4160	-0.9211	26.23	0.42	-0.750			
0.7541	48260.63	3.4130	3.4130	-0.9237	26.23	0.42	-0.750			
0.7569	48440.55	3.4100	3.4100	-0.9241	26.24	0.43	-0.750			
0.7597	48619.18	3.4070	3.4071	-0.9187	26.25	0.44	-0.750			
0.7624	48796.26	3.4040	3.4040	-0.9123	26.26	0.45	-0.750			
0.7652	48971.84	3.4010	3.4010	-0.8980	26.27	0.46	-0.750			
0.7679	49142.75	3.3980	3.3979	-0.8755	26.28	0.47	-0.750			
0.7705	49311.02	3.3950	3.3950	-0.8580	26.29	0.48	-0.750			
0.7730	49473.37	3.3920	3.3921	-0.8352	26.30	0.49	-0.750			
0.7755	49631.64	3.3890	3.3890	-0.8174	26.30	0.49	-0.750			
0.7779	49786.86	3.3860	3.3859	-0.7868	26.31	0.50	-0.750			
0.7802	49934.49	3.3830	3.3830	-0.7586	26.32	0.51	-0.750			
0.7825	50079.25	3.3800	3.3799	-0.7341	26.33	0.52	-0.750			
0.7846	50217.06	3.3770	3.3770	-0.7053	26.33	0.52	-0.750			
0.7867	50349.55	3.3740	3.3740	-0.6798	26.34	0.53	-0.750			
0.7887	50475.69	3.3710	3.3710	-0.6501	26.35	0.54	-0.750			
0.7906	50596.31	3.3680	3.3680	-0.6280	26.35	0.54	-0.750			
0.7925	50717.71	3.3650	3.3649	-0.6117	26.36	0.55	-0.750			
0.7943	50832.22	3.3620	3.3620	-0.5894	26.36	0.55	-0.750			
0.7960	50943.42	3.3590	3.3592	-0.5694	26.37	0.56	-0.750			
0.7977	51051.12	3.3560	3.3559	-0.5488	26.37	0.56	-0.750			
0.7993	51154.67	3.3530	3.3529	-0.5275	26.38	0.57	-0.750			
0.8008	51253.11	3.3500	3.3500	-0.5069	26.39	0.58	-0.750			
0.8023	51347.45	3.3470	3.3470	-0.4859	26.39	0.58	-0.750			
0.8037	51439.37	3.3440	3.3440	-0.4748	26.40	0.59	-0.750			
0.8051	51528.72	3.3410	3.3410	-0.4577	26.40	0.59	-0.750			
0.8065	51614.50	3.3380	3.3380	-0.4444	26.41	0.60	-0.750			
0.8078	51698.95	3.3350	3.3350	-0.4323	26.42	0.61	-0.750			
0.8091	51781.43	3.3320	3.3323	-0.4208	26.42	0.61	-0.750			
0.8103	51860.79	3.3290	3.3291	-0.4086	26.43	0.62	-0.750			
0.8115	51938.18	3.3260	3.3259	-0.3974	26.43	0.62	-0.750			
0.8127	52012.52	3.3230	3.3231	-0.3851	26.44	0.63	-0.750			
0.8138	52086.06	3.3200	3.3199	-0.3763	26.44	0.63	-0.750			
0.8149	52156.53	3.3170	3.3171	-0.3646	26.45	0.64	-0.750			
0.8160	52226.23	3.3140	3.3139	-0.3543	26.45	0.64	-0.750			
0.8171	52292.78	3.3110	3.3111	-0.3441	26.46	0.65	-0.750			
0.8181	52357.51	3.3080	3.3080	-0.3353	26.46	0.65	-0.750			
0.8191	52421.02	3.3050	3.3051	-0.3271	26.47	0.66	-0.750			
0.8200	52482.83	3.3020	3.3019	-0.3197	26.47	0.66	-0.750			
0.8210	52543.47	3.2990	3.2988	-0.3120	26.48	0.67	-0.750			
0.8219	52602.84	3.2960	3.2961	-0.3053	26.48	0.67	-0.750			
0.8228	52661.16	3.2930	3.2930	-0.2974	26.49	0.68	-0.750			
0.8237	52717.23	3.2900	3.2899	-0.2902	26.49	0.68	-0.750			
0.8246	52772.21	3.2870	3.2871	-0.2833	26.50	0.69	-0.750			
0.8254	52825.87	3.2840	3.2840	-0.2780	26.51	0.70	-0.750			
0.8262	52878.43	3.2810	3.2810	-0.2724	26.51	0.70	-0.750			
0.8270	52930.37	3.2780	3.2780	-0.2682	26.52	0.71	-0.750			
0.8278	52980.93	3.2750	3.2750	-0.2633	26.52	0.71	-0.750			
0.8286	53031.44	3.2720	3.2720	-0.2594	26.53	0.72	-0.750			
0.8294	53080.45	3.2690	3.2691	-0.2542	26.53	0.72	-0.750			
0.8301	53129.48	3.2660	3.2660	-0.2506	26.54	0.73	-0.750			
0.8309	53177.11	3.2630	3.2629	-0.2454	26.54	0.73	-0.750			
0.8316	53223.71	3.2600	3.2599	-0.2401	26.55	0.74	-0.750			
0.8323	53269.43	3.2570	3.2571	-0.2352	26.55	0.74	-0.750			
0.8330	53313.42	3.2540	3.2540	-0.2312	26.55	0.74	-0.750			
0.8337	53357.46	3.2510	3.2510	-0.2276	26.56	0.75	-0.750			
0.8344	53400.41	3.2480	3.2480	-0.2247	26.56	0.75	-0.750			
0.8350	53442.96	3.2450	3.2449	-0.2218	26.57	0.76	-0.750			
0.8357	53485.72	3.2420	3.2419	-0.2196	26.58	0.77	-0.750			
0.8364	53527.64	3.2390	3.2391	-0.2171	26.58	0.77	-0.750			
0.8370	53569.54	3.2360	3.2359	-0.2127	26.59	0.78	-0.750			
0.8377	53610.18	3.2330	3.2331	-0.2098	26.59	0.78	-0.750			
0.8383	53649.41	3.2300	3.2301	-0.2060	26.60	0.79	-0.750			
0.8389	53688.69	3.2270	3.2270	-0.2033	26.60	0.79	-0.750			
0.8395	53727.17	3.2240	3.2239	-0.2012	26.61	0.80	-0.750			
0.8401	53765.58	3.2210	3.2209	-0.1980	26.61	0.80	-0.750			
0.8407	53803.39	3.2180	3.2181	-0.1963	26.62	0.81	-0.750			
0.8413	53840.88	3.2150	3.2150	-0.1942	26.62	0.81	-0.750			
0.8419	53878.41	3.2120	3.2120	-0.1922	26.63	0.82	-0.750			
0.8424	53914.79	3.2090	3.2089	-0.1894	26.63	0.82	-0.750			
0.8430	53950.67	3.2060	3.2060	-0.1869	26.64	0.83	-0.750			
0.8435	53986.39	3.2030	3.2030	-0.1852	26.64	0.83	-0.750			
0.8441	54021.65	3.2000	3.2000	-0.1835	26.65	0.84	-0.750			
0.8446	54057.17	3.1970	3.1969	-0.1817	26.65	0.84	-0.750			
0.8452	54091.80	3.1940	3.1940	-0.1787	26.66	0.85	-0.750			
0.8457	54125.88	3.1910	3.1908	-0.1763	26.66	0.85	-0.750			
0.8462	54159.62	3.1880	3.1881	-0.1744	26.66	0.85	-0.750			
0.8468	54192.82	3.1850	3.1850	-0.1720	26.66	0.85	-0.750			
0.8473	54225.17	3.1820	3.1820	-0.1697	26.67	0.86	-0.750			
0.8478	54257.63	3.1790	3.1789	-0.1684	26.68	0.87	-0.750			
0.8483	54289.49	3.1760	3.1760	-0.1670	26.68	0.87	-0.750			
0.8488	54321.81	3.1730	3.1730	-0.1658	26.69	0.88	-0.750			
0.8493	54353.64	3.1700	3.1699	-0.1645	26.70	0.89	-0.750			
0.8498	54385.01	3.1670	3.1670	-0.1629	26.70	0.89	-0.750			
0.8503	54416.19	3.1640	3.1641	-0.1611	26.71	0.90	-0.750			
0.8507	54447.05	3.1610	3.1609	-0.1597	26.71	0.90	-0.750			
0.8512	54477.52	3.1580	3.1580	-0.1577	26.72	0.91	-0.750			
0.8517	54507.39	3.1550	3.1550	-0.1558	26.73	0.92	-0.750			
0.8521	54537.08	3.1520	3.1520	-0.1545	26.73	0.92	-0.750			
0.8526	54566.53	3.1490	3.1490	-0.1539	26.74	0.93	-0.750			
0.8531	54596.02	3.1460	3.1460	-0.1528	26.74	0.93	-0.750			
0.8535	54625.08	3.1430	3.1430	-0.1518	26.75	0.94	-0.750			
0.8540	54654.38	3.1400	3.1399	-0.1500	26.76	0.95	-0.750			
0.8544	54683.22	3.1370	3.1371	-0.1483	26.76	0.95	-0.750			
0.8549	54711.44	3.1340	3.1340	-0.1464	26.76	0.95	-0.750			
0.8553	54739.54	3.1310	3.1310	-0.1444	26.77	0.96	-0.750			
0.8557	54766.75	3.1280	3.1280	-0.1434	26.77	0.96	-0.750			
0.8562	54793.73	3.1250	3.1250	-0.1422	26.78	0.97	-0.750			
0.8566	54821.16	3.1220	3.1220	-0.1412	26.78	0.97	-0.750			
0.8570	54848.23	3.1190	3.1190	-0.1407	26.78	0.97	-0.750			
0.8574	54875.34	3.1160	3.1160	-0.1403	26.79	0.98	-0.750			
0.8578	54902.38	3.1130	3.1130	-0.1393	26.79	0.98	-0.750			
0.8583	54929.06	3.1100	3.1101	-0.1382	26.79	0.98	-0.750			
0.8587	54955.47	3.1070	3.1068	-0.1368	26.80	0.99	-0.750			
0.8591	54981.37	3.1040	3.1040	-0.1357	26.80	0.99	-0.750			
0.8595	55007.32	3.1010	3.1009	-0.1347	26.81	1.00	-0.750			
0.8599	55033.28	3.0980	3.0980	-0.1340	26.82	1.01	-0.750			
0.8603	55058.89	3.0950	3.0950	-0.1328	26.82	1.01	-0.750			
0.8607	55084.15	3.0920	3.0920	-0.1314	26.83	1.02	-0.750			
0.8611	55109.47	3.0890	3.0890	-0.1303	26.83	1.02	-0.750			
0.8615	55134.40	3.0860	3.0860	-0.1289	26.84	1.03	-0.750			
0.8619	55158.87	3.0830	3.0830	-0.1281	26.85	1.04	-0.750			
0.8622	55183.13	3.0800	3.0800	-0.1271	26.85	1.04	-0.750			
0.8626	55207.37	3.0770	3.0771	-0.1264	26.86	1.05	-0.750			
0.8630	55231.42	3.0740	3.0739	-0.1260	26.87	1.06	-0.750			
0.8634	55255.84	3.0710	3.0710	-0.1255	26.87	1.06	-0.750			
0.8637	55279.93	3.0680	3.0680	-0.1251	26.88	1.07	-0.750			
0.8641	55304.30	3.0650	3.0649	-0.1246	26.88	1.07	-0.750			
0.8645	55328.08	3.0620	3.0621	-0.1231	26.89	1.08	-0.750			
0.8649	55351.57	3.0590	3.0590	-0.1220	26.90	1.09	-0.750			
0.8652	55374.86	3.0560	3.0560	-0.1206	26.90	1.09	-0.750			
0.8656	55397.66	3.0530	3.0529	-0.1198	26.91	1.10	-0.750			
0.8659	55420.23	3.0500	3.0500	-0.1184	26.91	1.10	-0.750			
0.8663	55443.05	3.0470	3.0470	-0.1177	26.92	1.11	-0.750			
0.8667	55465.60	3.0440	3.0440	-0.1172	26.93	1.12	-0.750			
0.8670	55487.99	3.0410	3.0411	-0.1169	26.93	1.12	-0.750			
0.8674	55510.60	3.0380	3.0380	-0.1163	26.94	1.13	-0.750			
0.8677	55532.85	3.0350	3.0349	-0.1155	26.94	1.13	-0.750			
0.8680	55555.02	3.0320	3.0320	-0.1147	26.95	1.14	-0.750			
0.8684	55576.88	3.0290	3.0292	-0.1146	26.96	1.15	-0.750			
0.8687	55598.66	3.0260	3.0259	-0.1140	26.96	1.15	-0.750			
0.8691	55620.78	3.0230	3.0228	-0.1132	26.97	1.16	-0.750			
0.8694	55642.42	3.0200	3.0201	-0.1122	26.97	1.16	-0.750			
0.8697	55663.76	3.0170	3.0171	-0.1113	26.98	1.17	-0.750			
0.8701	55685.05	3.0140	3.0141	-0.1105	26.98	1.17	-0.750			
0.8704	55706.50	3.0110	3.0110	-0.1095	26.99	1.18	-0.750			
0.8707	55727.38	3.0080	3.0079	-0.1080	27.00	1.19	-0.751			
0.8711	55747.96	3.0050	3.0050	-0.1097	27.00	1.19	-0.751			
