Ah_balance (normalized)	Ah_balance (mAh)	Voltage - fit (V)	Voltage -  interpolate (V)	dQ/dV (1/V)	Temperature (°C)	Temperature - diff (°C)	Current (C)	R_DC 0ms (mOhm)	R_DC 50ms (mOhm)	R_DC 50 ms PEC (mOhm)
0.0508	3252.88	4.1970	4.1971	0.7551	26.39	0.40	0.750			
0.0531	3399.49	4.1940	4.1943	0.7691	26.39	0.40	0.750			
0.0554	3547.99	4.1910	4.1912	0.7762	26.39	0.40	0.750			
0.0578	3698.48	4.1880	4.1880	0.7771	26.39	0.40	0.750			
0.0601	3849.19	4.1850	4.1850	0.7764	26.38	0.39	0.750			
0.0625	3997.02	4.1820	4.1820	0.7674	26.38	0.39	0.750			
0.0648	4145.10	4.1790	4.1787	0.7729	26.38	0.39	0.750			
0.0671	4293.79	4.1760	4.1761	0.7722	26.38	0.39	0.750			
0.0694	4441.65	4.1730	4.1730	0.7704	26.38	0.39	0.750			
0.0717	4589.28	4.1700	4.1700	0.7746	26.39	0.40	0.750			
0.0741	4739.75	4.1670	4.1671	0.7770	26.39	0.40	0.750			
0.0764	4888.81	4.1640	4.1639	0.7769	26.39	0.40	0.750			
0.0787	5037.06	4.1610	4.1611	0.7777	26.39	0.40	0.750			
0.0810	5186.03	4.1580	4.1580	0.7746	26.39	0.40	0.750			
0.0834	5335.20	4.1550	4.1550	0.7777	26.39	0.40	0.750			
0.0857	5484.24	4.1520	4.1520	0.7801	26.39	0.40	0.750			
0.0880	5633.03	4.1490	4.1490	0.7829	26.39	0.40	0.750			
0.0904	5784.87	4.1460	4.1460	0.7884	26.39	0.40	0.750			
0.0928	5936.09	4.1430	4.1430	0.7930	26.39	0.40	0.750			
0.0952	6089.81	4.1400	4.1400	0.7867	26.39	0.40	0.750			
0.0975	6241.58	4.1370	4.1370	0.7874	26.39	0.40	0.750			
0.0999	6391.55	4.1340	4.1341	0.7857	26.39	0.40	0.750			
0.1022	6541.48	4.1310	4.1307	0.7869	26.39	0.40	0.750			
0.1045	6690.48	4.1280	4.1282	0.7896	26.39	0.40	0.750			
0.1069	6843.81	4.1250	4.1250	0.7920	26.39	0.40	0.750			
0.1093	6996.91	4.1220	4.1220	0.8000	26.39	0.40	0.750			
0.1118	7153.45	4.1190	4.1190	0.8062	26.39	0.40	0.750			
0.1142	7305.94	4.1160	4.1160	0.8038	26.39	0.40	0.750			
0.1166	7461.04	4.1130	4.1131	0.8057	26.39	0.40	0.750			
0.1190	7616.67	4.1100	4.1100	0.7997	26.39	0.40	0.750			
0.1214	7768.23	4.1070	4.1070	0.8037	26.39	0.40	0.750			
0.1238	7923.37	4.1040	4.1041	0.8083	26.39	0.40	0.750			
0.1262	8076.71	4.1010	4.1010	0.8073	26.39	0.40	0.750			
0.1286	8232.61	4.0980	4.0979	0.8110	26.39	0.40	0.750			
0.1311	8391.09	4.0950	4.0951	0.8043	26.39	0.40	0.750			
0.1335	8543.82	4.0920	4.0920	0.8096	26.39	0.40	0.750			
0.1359	8700.48	4.0890	4.0891	0.8163	26.39	0.40	0.750			
0.1384	8855.25	4.0860	4.0860	0.8154	26.39	0.40	0.750			
0.1408	9011.25	4.0830	4.0829	0.8196	26.39	0.40	0.750			
0.1433	9171.28	4.0800	4.0801	0.8200	26.40	0.41	0.750			
0.1458	9329.32	4.0770	4.0771	0.8282	26.40	0.41	0.750			
0.1483	9488.81	4.0740	4.0739	0.8337	26.40	0.41	0.750			
0.1507	9647.14	4.0710	4.0711	0.8327	26.41	0.42	0.750			
0.1532	9807.16	4.0680	4.0680	0.8366	26.41	0.42	0.750			
0.1558	9971.27	4.0650	4.0650	0.8322	26.41	0.42	0.750			
0.1583	10132.20	4.0620	4.0620	0.8348	26.41	0.42	0.750			
0.1608	10291.36	4.0590	4.0591	0.8360	26.42	0.43	0.750			
0.1633	10450.26	4.0560	4.0561	0.8357	26.42	0.43	0.750			
0.1658	10608.45	4.0530	4.0529	0.8420	26.42	0.43	0.750			
0.1683	10774.14	4.0500	4.0500	0.8381	26.42	0.43	0.750			
0.1709	10936.07	4.0470	4.0470	0.8479	26.42	0.43	0.750			
0.1734	11099.06	4.0440	4.0441	0.8551	26.42	0.43	0.750			
0.1760	11263.08	4.0410	4.0411	0.8580	26.42	0.43	0.750			
0.1786	11427.22	4.0380	4.0381	0.8581	26.42	0.43	0.750			
0.1812	11594.02	4.0350	4.0350	0.8577	26.42	0.43	0.750			
0.1837	11758.04	4.0320	4.0321	0.8676	26.42	0.43	0.750			
0.1864	11926.79	4.0290	4.0291	0.8772	26.43	0.44	0.750			
0.1890	12094.37	4.0260	4.0259	0.8762	26.43	0.44	0.750			
0.1916	12264.45	4.0230	4.0231	0.8851	26.43	0.44	0.750			
0.1943	12435.95	4.0200	4.0200	0.8881	26.43	0.44	0.750			
0.1969	12604.47	4.0170	4.0171	0.8774	26.44	0.45	0.750			
0.1995	12770.22	4.0140	4.0144	0.8874	26.44	0.45	0.750			
0.2022	12938.66	4.0110	4.0104	0.8912	26.44	0.45	0.750			
0.2049	13111.12	4.0080	4.0080	0.8978	26.44	0.45	0.750			
0.2076	13284.75	4.0050	4.0052	0.8925	26.44	0.45	0.750			
0.2103	13457.54	4.0020	4.0024	0.8926	26.44	0.45	0.750			
0.2131	13638.53	3.9990	3.9989	0.9043	26.44	0.45	0.750			
0.2156	13800.75	3.9960	3.9962	0.8877	26.44	0.45	0.750			
0.2182	13967.98	3.9930	3.9930	0.8778	26.44	0.45	0.750			
0.2209	14137.48	3.9900	3.9900	0.8931	26.44	0.45	0.750			
0.2236	14311.68	3.9870	3.9871	0.9103	26.44	0.45	0.750			
0.2264	14486.54	3.9840	3.9840	0.9134	26.44	0.45	0.750			
0.2291	14663.90	3.9810	3.9811	0.9210	26.44	0.45	0.750			
0.2319	14843.69	3.9780	3.9780	0.9130	26.45	0.46	0.750			
0.2346	15017.28	3.9750	3.9750	0.9173	26.45	0.46	0.750			
0.2374	15194.83	3.9720	3.9721	0.9227	26.46	0.47	0.750			
0.2401	15368.23	3.9690	3.9686	0.9237	26.46	0.47	0.750			
0.2429	15545.77	3.9660	3.9660	0.9230	26.46	0.47	0.750			
0.2457	15724.78	3.9630	3.9630	0.9347	26.47	0.48	0.750			
0.2486	15907.85	3.9600	3.9601	0.9411	26.47	0.48	0.750			
0.2514	16092.56	3.9570	3.9568	0.9236	26.48	0.49	0.750			
0.2542	16267.67	3.9540	3.9541	0.9072	26.48	0.49	0.750			
0.2569	16439.52	3.9510	3.9512	0.8962	26.48	0.49	0.750			
0.2595	16606.85	3.9480	3.9483	0.8898	26.48	0.49	0.750			
0.2621	16774.01	3.9450	3.9456	0.9029	26.48	0.49	0.750			
0.2647	16943.36	3.9420	3.9421	0.9231	26.48	0.49	0.750			
0.2677	17130.42	3.9390	3.9395	0.9258	26.48	0.49	0.750			
0.2705	17314.86	3.9360	3.9365	0.9464	26.48	0.49	0.750			
0.2734	17496.12	3.9330	3.9336	0.9546	26.48	0.49	0.750			
0.2762	17679.53	3.9300	3.9304	0.9598	26.48	0.49	0.750			
0.2791	17862.75	3.9270	3.9273	0.9490	26.48	0.49	0.750			
0.2819	18041.85	3.9240	3.9245	0.9562	26.48	0.49	0.750			
0.2848	18227.01	3.9210	3.9213	0.9692	26.49	0.50	0.750			
0.2878	18421.10	3.9180	3.9180	0.9708	26.49	0.50	0.750			
0.2907	18603.39	3.9150	3.9150	0.9568	26.49	0.50	0.750			
0.2936	18788.22	3.9120	3.9122	0.9519	26.49	0.50	0.750			
0.2965	18973.54	3.9090	3.9090	0.9535	26.48	0.49	0.750			
0.2993	19156.79	3.9060	3.9059	0.9526	26.48	0.49	0.750			
0.3021	19335.74	3.9030	3.9030	0.9466	26.48	0.49	0.750			
0.3050	19521.26	3.9000	3.9000	0.9393	26.48	0.49	0.750			
0.3078	19701.86	3.8970	3.8970	0.9516	26.48	0.49	0.750			
0.3107	19882.98	3.8940	3.8941	0.9553	26.48	0.49	0.750			
0.3135	20065.60	3.8910	3.8911	0.9616	26.48	0.49	0.750			
0.3164	20252.03	3.8880	3.8881	0.9657	26.48	0.49	0.750			
0.3193	20437.76	3.8850	3.8851	0.9743	26.48	0.49	0.750			
0.3223	20624.81	3.8820	3.8821	0.9895	26.48	0.49	0.750			
0.3253	20818.33	3.8790	3.8790	0.9978	26.48	0.49	0.750			
0.3283	21011.45	3.8760	3.8760	0.9920	26.48	0.49	0.750			
0.3313	21203.50	3.8730	3.8731	0.9981	26.48	0.49	0.750			
0.3343	21393.81	3.8700	3.8702	1.0060	26.48	0.49	0.750			
0.3373	21587.80	3.8670	3.8669	1.0104	26.48	0.49	0.750			
0.3403	21780.11	3.8640	3.8640	1.0113	26.48	0.49	0.750			
0.3433	21974.30	3.8610	3.8610	1.0103	26.47	0.48	0.750			
0.3464	22170.82	3.8580	3.8580	1.0260	26.46	0.47	0.750			
0.3495	22367.62	3.8550	3.8551	1.0367	26.46	0.47	0.750			
0.3526	22564.75	3.8520	3.8518	1.0469	26.45	0.46	0.750			
0.3557	22766.78	3.8490	3.8491	1.0460	26.45	0.46	0.750			
0.3589	22969.49	3.8460	3.8460	1.0688	26.44	0.45	0.750			
0.3621	23175.71	3.8430	3.8431	1.0847	26.44	0.45	0.750			
0.3654	23388.45	3.8400	3.8396	1.0924	26.44	0.45	0.750			
0.3687	23595.34	3.8370	3.8371	1.1017	26.43	0.44	0.750			
0.3720	23808.16	3.8340	3.8341	1.1189	26.42	0.43	0.750			
0.3754	24025.79	3.8310	3.8310	1.1292	26.41	0.42	0.750			
0.3788	24245.20	3.8280	3.8280	1.1188	26.40	0.41	0.750			
0.3822	24458.58	3.8250	3.8251	1.1428	26.39	0.40	0.750			
0.3856	24677.98	3.8220	3.8220	1.1629	26.38	0.39	0.750			
0.3891	24903.84	3.8190	3.8188	1.1813	26.37	0.38	0.750			
0.3927	25135.67	3.8160	3.8161	1.1610	26.36	0.37	0.750			
0.3962	25355.05	3.8130	3.8131	1.1835	26.36	0.37	0.750			
0.3998	25584.99	3.8100	3.8103	1.1960	26.35	0.36	0.750			
0.4034	25817.19	3.8070	3.8072	1.1982	26.34	0.35	0.750			
0.4069	26043.80	3.8040	3.8043	1.1877	26.33	0.34	0.750			
0.4105	26273.40	3.8010	3.8013	1.1953	26.32	0.33	0.750			
0.4142	26508.10	3.7980	3.7980	1.1999	26.31	0.32	0.750			
0.4179	26745.21	3.7950	3.7950	1.2191	26.30	0.31	0.750			
0.4213	26961.66	3.7920	3.7920	1.2003	26.29	0.30	0.750			
0.4249	27195.52	3.7890	3.7891	1.2223	26.28	0.29	0.750			
0.4287	27434.21	3.7860	3.7861	1.2212	26.27	0.28	0.750			
0.4323	27666.32	3.7830	3.7831	1.2409	26.25	0.26	0.750			
0.4360	27905.07	3.7800	3.7802	1.2550	26.24	0.25	0.750			
0.4398	28148.33	3.7770	3.7764	1.2687	26.23	0.24	0.750			
0.4436	28391.74	3.7740	3.7742	1.2829	26.22	0.23	0.750			
0.4475	28640.32	3.7710	3.7712	1.3029	26.21	0.22	0.750			
0.4516	28900.76	3.7680	3.7679	1.3131	26.19	0.20	0.750			
0.4553	29141.27	3.7650	3.7651	1.3153	26.18	0.19	0.750			
0.4592	29387.40	3.7620	3.7623	1.3681	26.17	0.18	0.750			
0.4633	29650.69	3.7590	3.7590	1.4147	26.16	0.17	0.750	0.301	0.378	
0.4677	29934.33	3.7560	3.7565	1.4607	26.15	0.16	0.750			
0.4722	30222.01	3.7530	3.7529	1.5076	26.14	0.15	0.750			
0.4769	30520.36	3.7500	3.7501	1.5526	26.13	0.14	0.750			
0.4818	30834.86	3.7470	3.7472	1.5852	26.12	0.13	0.750			
0.4863	31126.35	3.7440	3.7440	1.5823	26.10	0.11	0.750			
0.4912	31434.77	3.7410	3.7412	1.5880	26.09	0.10	0.750			
0.4959	31737.54	3.7380	3.7378	1.6472	26.07	0.08	0.750			
0.5010	32066.33	3.7350	3.7350	1.6848	26.05	0.06	0.750			
0.5061	32389.30	3.7320	3.7318	1.7146	26.04	0.05	0.750			
0.5113	32724.72	3.7290	3.7289	1.7789	26.02	0.03	0.750			
0.5167	33068.53	3.7260	3.7263	1.8502	26.00	0.01	0.750			
0.5223	33428.66	3.7230	3.7231	1.9004	25.99	-0.00	0.750			
0.5280	33790.55	3.7200	3.7204	1.9393	25.97	-0.02	0.750			
0.5340	34173.66	3.7170	3.7170	1.9772	25.95	-0.04	0.750			
0.5401	34566.06	3.7140	3.7137	2.0432	25.93	-0.06	0.750			
0.5463	34963.90	3.7110	3.7108	2.1193	25.91	-0.08	0.750			
0.5527	35370.44	3.7080	3.7078	2.1861	25.89	-0.10	0.750			
0.5594	35800.34	3.7050	3.7052	2.2432	25.87	-0.12	0.750			
0.5663	36243.78	3.7020	3.7021	2.2965	25.86	-0.13	0.750			
0.5734	36695.31	3.6990	3.6990	2.3630	25.83	-0.16	0.750			
0.5805	37150.38	3.6960	3.6963	2.4247	25.81	-0.18	0.750			
0.5879	37627.01	3.6930	3.6931	2.4967	25.79	-0.20	0.750			
0.5954	38104.14	3.6900	3.6900	2.5792	25.78	-0.21	0.750			
0.6032	38605.68	3.6870	3.6873	2.6279	25.77	-0.22	0.750			
0.6113	39121.46	3.6840	3.6841	2.7298	25.76	-0.23	0.750			
0.6196	39657.49	3.6810	3.6812	2.8169	25.74	-0.25	0.750			
0.6282	40204.95	3.6780	3.6778	2.9170	25.72	-0.27	0.750			
0.6372	40781.99	3.6750	3.6748	3.0212	25.70	-0.29	0.750			
0.6464	41369.01	3.6720	3.6719	3.0938	25.69	-0.30	0.750			
0.6559	41976.28	3.6690	3.6690	3.1365	25.67	-0.32	0.750			
0.6655	42592.75	3.6660	3.6659	3.1880	25.66	-0.33	0.750			
0.6752	43215.79	3.6630	3.6630	3.1132	25.64	-0.35	0.750			
0.6847	43823.53	3.6600	3.6600	2.9385	25.64	-0.35	0.750			
0.6935	44386.80	3.6570	3.6569	2.6837	25.64	-0.35	0.750			
0.7010	44865.07	3.6540	3.6539	2.4048	25.64	-0.35	0.750			
0.7076	45285.39	3.6510	3.6509	2.1677	25.64	-0.35	0.750			
0.7134	45659.28	3.6480	3.6478	1.9188	25.64	-0.35	0.750			
0.7187	45997.43	3.6450	3.6450	1.7439	25.64	-0.35	0.750			
0.7238	46321.15	3.6420	3.6421	1.6177	25.65	-0.34	0.750			
0.7283	46610.64	3.6390	3.6395	1.4853	25.65	-0.34	0.750			
0.7326	46884.86	3.6360	3.6361	1.3810	25.65	-0.34	0.750			
0.7364	47127.99	3.6330	3.6330	1.2964	25.66	-0.33	0.750			
0.7400	47362.79	3.6300	3.6295	1.2340	25.66	-0.33	0.750			
0.7436	47588.55	3.6270	3.6273	1.2155	25.66	-0.33	0.750			
0.7472	47819.92	3.6240	3.6240	1.2217	25.66	-0.33	0.750			
0.7509	48059.14	3.6210	3.6208	1.2182	25.66	-0.33	0.750			
0.7545	48290.32	3.6180	3.6181	1.2110	25.66	-0.33	0.750			
0.7582	48525.80	3.6150	3.6152	1.2257	25.67	-0.32	0.750			
0.7619	48763.52	3.6120	3.6121	1.2223	25.68	-0.31	0.750			
0.7656	49000.20	3.6090	3.6088	1.1923	25.68	-0.31	0.750			
0.7692	49227.21	3.6060	3.6061	1.1871	25.68	-0.31	0.750			
0.7727	49454.41	3.6030	3.6032	1.1770	25.68	-0.31	0.750			
0.7762	49679.79	3.6000	3.5999	1.1761	25.68	-0.31	0.750			
0.7797	49902.23	3.5970	3.5971	1.1665	25.68	-0.31	0.750			
0.7831	50119.85	3.5940	3.5940	1.1717	25.68	-0.31	0.750			
0.7867	50345.65	3.5910	3.5911	1.1962	25.68	-0.31	0.750			
0.7903	50576.80	3.5880	3.5880	1.2061	25.68	-0.31	0.750			
0.7939	50810.66	3.5850	3.5850	1.2387	25.68	-0.31	0.750			
0.7976	51048.52	3.5820	3.5822	1.2839	25.69	-0.30	0.750			
0.8016	51302.31	3.5790	3.5789	1.3037	25.69	-0.30	0.750			
0.8055	51553.26	3.5760	3.5760	1.3421	25.69	-0.30	0.750			
0.8095	51809.46	3.5730	3.5732	1.3991	25.69	-0.30	0.750			
0.8138	52082.68	3.5700	3.5701	1.4513	25.69	-0.30	0.750			
0.8184	52375.79	3.5670	3.5670	1.4829	25.69	-0.30	0.750			
0.8229	52665.02	3.5640	3.5641	1.5171	25.69	-0.30	0.750			
0.8276	52964.94	3.5610	3.5611	1.5313	25.69	-0.30	0.750			
0.8324	53273.84	3.5580	3.5580	1.5464	25.69	-0.30	0.750			
0.8368	53553.28	3.5550	3.5552	1.5652	25.68	-0.31	0.750			
0.8414	53850.32	3.5520	3.5522	1.5857	25.68	-0.31	0.750			
0.8462	54159.67	3.5490	3.5494	1.6246	25.69	-0.30	0.750			
0.8513	54483.44	3.5460	3.5463	1.6623	25.70	-0.29	0.750			
0.8562	54799.27	3.5430	3.5427	1.6973	25.70	-0.29	0.750			
0.8615	55135.36	3.5400	3.5397	1.7141	25.70	-0.29	0.750			
0.8667	55467.15	3.5370	3.5370	1.6962	25.70	-0.29	0.750			
0.8719	55798.78	3.5340	3.5345	1.7341	25.71	-0.28	0.750			
0.8773	56146.65	3.5310	3.5306	1.7129	25.72	-0.27	0.750			
0.8827	56490.92	3.5280	3.5277	1.6312	25.74	-0.25	0.750			
0.8879	56823.16	3.5250	3.5252	1.4522	25.75	-0.24	0.750			
0.8922	57102.78	3.5220	3.5225	1.2349	25.77	-0.22	0.750			
0.8955	57311.85	3.5190	3.5193	0.9776	25.79	-0.20	0.750			
0.8978	57459.81	3.5160	3.5155	0.7260	25.80	-0.19	0.750			
0.8990	57533.17	3.5130	3.5129	0.5299	25.80	-0.19	0.750			
0.9002	57615.28	3.5100	3.5097	0.4252	25.81	-0.18	0.750			
0.9013	57680.39	3.5070	3.5069	0.3700	25.81	-0.18	0.750			
0.9023	57747.26	3.5040	3.5038	0.3445	25.82	-0.17	0.750			
0.9033	57809.84	3.5010	3.5014	0.3229	25.83	-0.16	0.750			
0.9042	57869.39	3.4980	3.4980	0.3085	25.83	-0.16	0.750			
0.9051	57926.32	3.4950	3.4950	0.2968	25.84	-0.15	0.750			
0.9060	57981.11	3.4920	3.4919	0.2871	25.85	-0.14	0.750			
0.9068	58034.16	3.4890	3.4890	0.2786	25.85	-0.14	0.750			
0.9076	58087.98	3.4860	3.4860	0.2741	25.86	-0.13	0.750			
0.9084	58140.17	3.4830	3.4832	0.2691	25.86	-0.13	0.750			
0.9092	58191.81	3.4800	3.4800	0.2642	25.87	-0.12	0.750			
0.9100	58241.60	3.4770	3.4770	0.2591	25.87	-0.12	0.750			
0.9108	58290.42	3.4740	3.4740	0.2519	25.88	-0.11	0.750			
0.9115	58338.27	3.4710	3.4710	0.2483	25.89	-0.10	0.750			
0.9123	58386.01	3.4680	3.4680	0.2431	25.89	-0.10	0.750			
0.9130	58432.19	3.4650	3.4649	0.2387	25.90	-0.09	0.750			
0.9137	58477.41	3.4620	3.4620	0.2337	25.90	-0.09	0.750			
0.9144	58521.45	3.4590	3.4589	0.2286	25.91	-0.08	0.750			
0.9151	58564.54	3.4560	3.4560	0.2236	25.91	-0.08	0.750			
0.9157	58607.04	3.4530	3.4530	0.2220	25.91	-0.08	0.750			
0.9164	58649.58	3.4500	3.4500	0.2164	25.92	-0.07	0.750			
0.9171	58691.28	3.4470	3.4469	0.2137	25.92	-0.07	0.750			
0.9177	58731.84	3.4440	3.4439	0.2087	25.93	-0.06	0.750			
0.9183	58771.27	3.4410	3.4412	0.2044	25.93	-0.06	0.750			
0.9189	58810.31	3.4380	3.4378	0.2000	25.94	-0.05	0.750			
0.9195	58848.20	3.4350	3.4349	0.1949	25.94	-0.05	0.750			
0.9201	58884.97	3.4320	3.4320	0.1916	25.94	-0.05	0.750			
0.9206	58920.82	3.4290	3.4291	0.1866	25.95	-0.04	0.750			
0.9212	58957.16	3.4260	3.4260	0.1837	25.95	-0.04	0.750			
0.9217	58991.89	3.4230	3.4230	0.1786	25.95	-0.04	0.750			
0.9223	59025.74	3.4200	3.4200	0.1737	25.96	-0.03	0.750			
0.9228	59058.67	3.4170	3.4170	0.1690	25.96	-0.03	0.750			
0.9233	59090.64	3.4140	3.4140	0.1647	25.96	-0.03	0.750			
0.9238	59121.79	3.4110	3.4110	0.1598	25.97	-0.02	0.750			
0.9242	59151.61	3.4080	3.4079	0.1552	25.97	-0.02	0.750			
0.9247	59181.34	3.4050	3.4050	0.1502	25.97	-0.02	0.750			
0.9252	59210.01	3.4020	3.4020	0.1452	25.98	-0.01	0.750			
0.9256	59237.35	3.3990	3.3991	0.1396	25.98	-0.01	0.750			
0.9260	59263.88	3.3960	3.3960	0.1334	25.98	-0.01	0.750			
0.9264	59288.81	3.3930	3.3930	0.1278	25.98	-0.01	0.750			
0.9268	59312.58	3.3900	3.3899	0.1214	25.99	-0.00	0.750			
0.9271	59335.52	3.3870	3.3871	0.1149	25.99	-0.00	0.750			
0.9275	59356.92	3.3840	3.3836	0.1086	25.99	-0.00	0.750			
0.9278	59378.60	3.3810	3.3811	0.1013	25.99	0.00	0.750			
0.9281	59397.47	3.3780	3.3780	0.0940	25.99	0.00	0.750			
0.9284	59414.63	3.3750	3.3749	0.0847	26.00	0.01	0.750			
0.9286	59430.81	3.3720	3.3721	0.0768	26.00	0.01	0.750			
0.9288	59444.58	3.3690	3.3693	0.0666	26.00	0.01	0.750			
0.9290	59456.55	3.3660	3.3667	0.0565	26.00	0.01	0.750			
0.9292	59466.41	3.3630	3.3641	0.0462	26.00	0.01	0.750			
0.9293	59474.28	3.3600	3.3613	0.0358	26.00	0.01	0.750			
0.9294	59480.17	3.3570	3.3589	0.0255	26.00	0.01	0.750			
