Ah_balance (normalized)	Ah_balance (mAh)	Voltage - fit (V)	Voltage -  interpolate (V)	dQ/dV (1/V)	Temperature (°C)	Temperature - diff (°C)	Current (C)	R_DC 0ms (mOhm)	R_DC 50ms (mOhm)	R_DC 50 ms PEC (mOhm)
0.0003	21.95	4.1620	4.1618	-0.1212	25.78	0.01	-0.750			
0.0008	51.83	4.1590	4.1589	-0.1715	25.77	0.00	-0.750			
0.0014	88.41	4.1560	4.1559	-0.2127	25.77	0.00	-0.750			
0.0021	133.99	4.1530	4.1530	-0.2514	25.77	0.00	-0.750			
0.0029	186.33	4.1500	4.1501	-0.2875	25.77	-0.00	-0.750			
0.0038	245.75	4.1470	4.1470	-0.3270	25.77	-0.00	-0.750			
0.0049	311.92	4.1440	4.1441	-0.3634	25.76	-0.01	-0.750			
0.0060	385.94	4.1410	4.1409	-0.3935	25.76	-0.01	-0.750			
0.0073	464.72	4.1380	4.1380	-0.4271	25.76	-0.01	-0.750			
0.0086	550.09	4.1350	4.1352	-0.4573	25.76	-0.01	-0.750			
0.0100	642.29	4.1320	4.1319	-0.4846	25.75	-0.02	-0.750			
0.0116	739.30	4.1290	4.1289	-0.5089	25.75	-0.02	-0.750			
0.0131	838.83	4.1260	4.1261	-0.5278	25.74	-0.03	-0.750			
0.0147	943.24	4.1230	4.1230	-0.5469	25.74	-0.03	-0.750			
0.0164	1050.35	4.1200	4.1199	-0.5649	25.74	-0.03	-0.750			
0.0181	1158.40	4.1170	4.1170	-0.5791	25.73	-0.04	-0.750			
0.0199	1271.68	4.1140	4.1140	-0.5956	25.73	-0.04	-0.750			
0.0217	1388.21	4.1110	4.1109	-0.6106	25.72	-0.05	-0.750			
0.0236	1508.48	4.1080	4.1080	-0.6225	25.72	-0.05	-0.750			
0.0255	1629.30	4.1050	4.1050	-0.6303	25.72	-0.05	-0.750			
0.0274	1752.71	4.1020	4.1021	-0.6381	25.71	-0.06	-0.750			
0.0293	1874.74	4.0990	4.0990	-0.6423	25.71	-0.06	-0.750			
0.0312	1997.25	4.0960	4.0959	-0.6464	25.70	-0.07	-0.750			
0.0332	2121.98	4.0930	4.0931	-0.6574	25.70	-0.07	-0.750			
0.0351	2249.00	4.0900	4.0898	-0.6607	25.69	-0.08	-0.750			
0.0372	2378.06	4.0870	4.0870	-0.6681	25.69	-0.08	-0.750			
0.0392	2506.37	4.0840	4.0841	-0.6752	25.68	-0.09	-0.750			
0.0412	2637.12	4.0810	4.0809	-0.6804	25.68	-0.09	-0.750			
0.0433	2768.92	4.0780	4.0779	-0.6805	25.68	-0.09	-0.750			
0.0453	2897.54	4.0750	4.0750	-0.6910	25.68	-0.09	-0.750			
0.0474	3032.14	4.0720	4.0721	-0.6951	25.68	-0.09	-0.750			
0.0495	3167.40	4.0690	4.0689	-0.6998	25.68	-0.09	-0.750			
0.0516	3302.33	4.0660	4.0660	-0.7015	25.68	-0.09	-0.750			
0.0537	3436.68	4.0630	4.0630	-0.7017	25.68	-0.09	-0.750			
0.0558	3572.15	4.0600	4.0600	-0.7051	25.68	-0.09	-0.750			
0.0579	3707.22	4.0570	4.0569	-0.7054	25.68	-0.09	-0.750			
0.0600	3839.40	4.0540	4.0540	-0.6995	25.68	-0.09	-0.750			
0.0622	3977.95	4.0510	4.0510	-0.7101	25.68	-0.09	-0.750			
0.0643	4113.06	4.0480	4.0480	-0.7104	25.68	-0.09	-0.750			
0.0664	4250.55	4.0450	4.0450	-0.7122	25.68	-0.09	-0.750			
0.0686	4387.21	4.0420	4.0420	-0.7141	25.68	-0.09	-0.750			
0.0707	4523.45	4.0390	4.0390	-0.7216	25.68	-0.09	-0.750			
0.0729	4664.18	4.0360	4.0360	-0.7234	25.67	-0.10	-0.750			
0.0751	4804.68	4.0330	4.0329	-0.7223	25.67	-0.10	-0.750			
0.0772	4943.70	4.0300	4.0303	-0.7224	25.67	-0.10	-0.750			
0.0794	5081.54	4.0270	4.0269	-0.7291	25.67	-0.10	-0.750			
0.0816	5221.26	4.0240	4.0240	-0.7323	25.67	-0.10	-0.750			
0.0838	5361.44	4.0210	4.0209	-0.7411	25.67	-0.10	-0.750			
0.0860	5506.67	4.0180	4.0180	-0.7436	25.68	-0.09	-0.750			
0.0883	5650.33	4.0150	4.0150	-0.7433	25.68	-0.09	-0.750			
0.0905	5792.39	4.0120	4.0122	-0.7411	25.68	-0.09	-0.750			
0.0927	5933.97	4.0090	4.0088	-0.7395	25.68	-0.09	-0.750			
0.0949	6073.54	4.0060	4.0060	-0.7433	25.68	-0.09	-0.750			
0.0971	6216.90	4.0030	4.0030	-0.7408	25.69	-0.08	-0.750			
0.0994	6361.04	4.0000	4.0000	-0.7484	25.69	-0.08	-0.750			
0.1016	6505.58	3.9970	3.9969	-0.7504	25.69	-0.08	-0.750			
0.1039	6650.44	3.9940	3.9940	-0.7429	25.69	-0.08	-0.750			
0.1061	6791.91	3.9910	3.9909	-0.7447	25.69	-0.08	-0.750			
0.1083	6933.08	3.9880	3.9881	-0.7510	25.69	-0.08	-0.750			
0.1106	7077.80	3.9850	3.9849	-0.7523	25.70	-0.07	-0.750			
0.1129	7224.90	3.9820	3.9819	-0.7574	25.70	-0.07	-0.750			
0.1152	7370.77	3.9790	3.9794	-0.7585	25.70	-0.07	-0.750			
0.1175	7516.99	3.9760	3.9760	-0.7623	25.70	-0.07	-0.750			
0.1198	7665.55	3.9730	3.9729	-0.7684	25.70	-0.07	-0.750			
0.1220	7810.96	3.9700	3.9700	-0.7631	25.71	-0.06	-0.750			
0.1243	7957.33	3.9670	3.9669	-0.7687	25.71	-0.06	-0.750			
0.1266	8104.86	3.9640	3.9640	-0.7706	25.71	-0.06	-0.750			
0.1290	8253.63	3.9610	3.9610	-0.7739	25.71	-0.06	-0.750			
0.1313	8401.18	3.9580	3.9580	-0.7774	25.71	-0.06	-0.750			
0.1336	8550.99	3.9550	3.9550	-0.7787	25.71	-0.06	-0.750			
0.1360	8701.03	3.9520	3.9520	-0.7816	25.72	-0.05	-0.750			
0.1383	8853.69	3.9490	3.9490	-0.7842	25.72	-0.05	-0.750			
0.1407	9003.10	3.9460	3.9461	-0.7840	25.72	-0.05	-0.750			
0.1430	9153.79	3.9430	3.9430	-0.7847	25.72	-0.05	-0.750			
0.1454	9304.63	3.9400	3.9400	-0.7928	25.72	-0.05	-0.750			
0.1478	9458.05	3.9370	3.9370	-0.7909	25.73	-0.04	-0.750			
0.1502	9610.99	3.9340	3.9339	-0.7952	25.73	-0.04	-0.750			
0.1526	9763.34	3.9310	3.9315	-0.7970	25.73	-0.04	-0.750			
0.1549	9916.77	3.9280	3.9278	-0.7996	25.73	-0.04	-0.750			
0.1573	10070.12	3.9250	3.9249	-0.7983	25.73	-0.04	-0.750			
0.1597	10222.68	3.9220	3.9220	-0.7964	25.74	-0.03	-0.750			
0.1621	10377.52	3.9190	3.9190	-0.8063	25.74	-0.03	-0.750			
0.1646	10531.78	3.9160	3.9160	-0.8057	25.74	-0.03	-0.750			
0.1670	10685.15	3.9130	3.9129	-0.8027	25.74	-0.03	-0.750			
0.1694	10838.83	3.9100	3.9100	-0.8071	25.74	-0.03	-0.750			
0.1718	10994.36	3.9070	3.9070	-0.8046	25.75	-0.02	-0.750			
0.1742	11149.13	3.9040	3.9040	-0.8061	25.75	-0.02	-0.750			
0.1766	11304.76	3.9010	3.9010	-0.8089	25.75	-0.02	-0.750			
0.1790	11459.14	3.8980	3.8979	-0.8094	25.75	-0.02	-0.750			
0.1814	11612.78	3.8950	3.8950	-0.8196	25.75	-0.02	-0.750			
0.1839	11772.62	3.8920	3.8920	-0.8215	25.76	-0.01	-0.750			
0.1864	11931.40	3.8890	3.8889	-0.8216	25.76	-0.01	-0.750			
0.1889	12090.88	3.8860	3.8859	-0.8247	25.76	-0.01	-0.750			
0.1914	12248.90	3.8830	3.8829	-0.8237	25.76	-0.01	-0.750			
0.1938	12405.60	3.8800	3.8799	-0.8287	25.76	-0.01	-0.750			
0.1963	12565.40	3.8770	3.8770	-0.8232	25.77	-0.00	-0.750			
0.1988	12722.42	3.8740	3.8740	-0.8168	25.77	-0.00	-0.750			
0.2013	12882.49	3.8710	3.8709	-0.8212	25.77	-0.00	-0.750			
0.2038	13040.25	3.8680	3.8680	-0.8186	25.77	0.00	-0.750			
0.2062	13194.45	3.8650	3.8649	-0.8241	25.78	0.01	-0.750			
0.2086	13352.40	3.8620	3.8621	-0.8209	25.78	0.01	-0.750			
0.2111	13507.99	3.8590	3.8589	-0.8220	25.78	0.01	-0.750			
0.2136	13669.87	3.8560	3.8559	-0.8295	25.79	0.02	-0.750			
0.2161	13831.27	3.8530	3.8530	-0.8270	25.79	0.02	-0.750			
0.2186	13987.80	3.8500	3.8500	-0.8303	25.80	0.03	-0.750			
0.2211	14147.74	3.8470	3.8469	-0.8281	25.80	0.03	-0.750			
0.2235	14304.97	3.8440	3.8440	-0.8233	25.80	0.03	-0.750			
0.2260	14466.35	3.8410	3.8409	-0.8292	25.81	0.04	-0.750			
0.2285	14624.57	3.8380	3.8381	-0.8281	25.81	0.04	-0.750			
0.2310	14784.04	3.8350	3.8350	-0.8318	25.81	0.04	-0.750			
0.2335	14944.31	3.8320	3.8320	-0.8312	25.81	0.04	-0.750			
0.2360	15102.03	3.8290	3.8289	-0.8254	25.81	0.04	-0.750			
0.2385	15261.96	3.8260	3.8260	-0.8314	25.81	0.04	-0.750			
0.2410	15421.81	3.8230	3.8231	-0.8309	25.81	0.04	-0.750			
0.2435	15580.83	3.8200	3.8199	-0.8289	25.81	0.04	-0.750			
0.2459	15740.06	3.8170	3.8170	-0.8251	25.81	0.04	-0.750			
0.2484	15897.38	3.8140	3.8141	-0.8239	25.82	0.05	-0.750			
0.2509	16056.97	3.8110	3.8109	-0.8254	25.82	0.05	-0.750			
0.2534	16215.05	3.8080	3.8080	-0.8254	25.82	0.05	-0.750			
0.2558	16373.18	3.8050	3.8049	-0.8217	25.83	0.06	-0.750			
0.2583	16531.97	3.8020	3.8020	-0.8217	25.83	0.06	-0.750			
0.2608	16689.43	3.7990	3.7990	-0.8153	25.83	0.06	-0.750			
0.2632	16846.11	3.7960	3.7960	-0.8155	25.84	0.07	-0.750			
0.2657	17001.74	3.7930	3.7930	-0.8105	25.84	0.07	-0.750			
0.2681	17157.53	3.7900	3.7899	-0.8093	25.84	0.07	-0.750			
0.2705	17312.53	3.7870	3.7870	-0.8122	25.84	0.07	-0.750			
0.2730	17469.48	3.7840	3.7840	-0.8077	25.85	0.08	-0.750			
0.2754	17625.63	3.7810	3.7809	-0.8031	25.85	0.08	-0.750			
0.2778	17778.07	3.7780	3.7782	-0.8028	25.85	0.08	-0.750			
0.2802	17931.37	3.7750	3.7749	-0.7943	25.85	0.08	-0.750			
0.2826	18083.42	3.7720	3.7719	-0.7921	25.86	0.09	-0.750			
0.2849	18234.49	3.7690	3.7690	-0.7877	25.86	0.09	-0.750			
0.2873	18386.56	3.7660	3.7661	-0.7858	25.87	0.10	-0.750			
0.2896	18537.16	3.7630	3.7629	-0.7854	25.87	0.10	-0.750			
0.2920	18686.84	3.7600	3.7600	-0.7832	25.87	0.10	-0.750			
0.2943	18834.18	3.7570	3.7570	-0.7890	25.88	0.11	-0.750			
0.2967	18987.68	3.7540	3.7539	-0.7901	25.88	0.11	-0.750			
0.2991	19139.27	3.7510	3.7509	-0.7881	25.88	0.11	-0.750			
0.3014	19291.92	3.7480	3.7481	-0.7881	25.89	0.12	-0.750			
0.3038	19443.10	3.7450	3.7449	-0.7890	25.89	0.12	-0.750			
0.3061	19591.02	3.7420	3.7420	-0.7967	25.89	0.12	-0.750			
0.3085	19745.30	3.7390	3.7388	-0.7999	25.89	0.12	-0.750			
0.3109	19897.89	3.7360	3.7360	-0.7996	25.90	0.13	-0.750			
0.3133	20053.83	3.7330	3.7329	-0.8143	25.90	0.13	-0.750			
0.3158	20211.94	3.7300	3.7300	-0.8203	25.90	0.13	-0.750			
0.3183	20368.05	3.7270	3.7271	-0.8374	25.90	0.13	-0.750			
0.3207	20527.40	3.7240	3.7239	-0.8465	25.90	0.13	-0.750			
0.3233	20689.84	3.7210	3.7212	-0.8593	25.91	0.14	-0.750			
0.3259	20859.71	3.7180	3.7179	-0.8885	25.91	0.14	-0.750			
0.3287	21033.99	3.7150	3.7150	-0.9030	25.91	0.14	-0.750			
0.3314	21208.09	3.7120	3.7119	-0.9204	25.90	0.13	-0.750			
0.3342	21387.70	3.7090	3.7090	-0.9318	25.90	0.13	-0.750			
0.3370	21565.05	3.7060	3.7060	-0.9369	25.89	0.12	-0.750			
0.3398	21748.46	3.7030	3.7033	-0.9530	25.89	0.12	-0.750			
0.3427	21930.66	3.7000	3.6999	-0.9695	25.89	0.12	-0.750			
0.3456	22116.55	3.6970	3.6970	-0.9854	25.89	0.12	-0.750			
0.3485	22306.42	3.6940	3.6940	-1.0081	25.89	0.12	-0.750			
0.3516	22504.31	3.6910	3.6909	-1.0284	25.89	0.12	-0.750			
0.3547	22703.29	3.6880	3.6880	-1.0576	25.89	0.12	-0.750			
0.3579	22907.68	3.6850	3.6849	-1.0766	25.88	0.11	-0.750			
0.3612	23117.61	3.6820	3.6821	-1.0964	25.88	0.11	-0.750			
0.3645	23329.48	3.6790	3.6791	-1.1112	25.87	0.10	-0.750			
0.3679	23546.26	3.6760	3.6760	-1.1382	25.87	0.10	-0.750			
0.3714	23767.19	3.6730	3.6729	-1.1548	25.86	0.09	-0.750			
0.3748	23990.37	3.6700	3.6699	-1.1746	25.86	0.09	-0.750			
0.3783	24213.85	3.6670	3.6671	-1.2019	25.86	0.09	-0.750			
0.3820	24450.97	3.6640	3.6639	-1.2286	25.85	0.08	-0.750			
0.3858	24689.23	3.6610	3.6609	-1.2531	25.85	0.08	-0.750			
0.3895	24931.14	3.6580	3.6579	-1.2871	25.84	0.07	-0.750			
0.3935	25182.34	3.6550	3.6550	-1.3161	25.83	0.06	-0.750			
0.3975	25437.71	3.6520	3.6519	-1.3476	25.82	0.05	-0.750			
0.4015	25698.50	3.6490	3.6491	-1.3759	25.81	0.04	-0.750			
0.4057	25967.40	3.6460	3.6459	-1.4204	25.81	0.04	-0.750			
0.4101	26246.42	3.6430	3.6429	-1.4447	25.80	0.03	-0.750			
0.4145	26527.04	3.6400	3.6400	-1.4682	25.80	0.03	-0.750			
0.4189	26810.11	3.6370	3.6372	-1.4949	25.79	0.02	-0.750			
0.4234	27100.62	3.6340	3.6338	-1.5362	25.79	0.02	-0.750			
0.4280	27394.82	3.6310	3.6310	-1.5677	25.78	0.01	-0.750			
0.4328	27698.88	3.6280	3.6281	-1.5872	25.78	0.01	-0.750			
0.4375	28002.89	3.6250	3.6250	-1.6283	25.77	0.00	-0.750			
0.4426	28325.97	3.6220	3.6219	-1.6710	25.77	-0.00	-0.750			
0.4477	28650.25	3.6190	3.6175	-1.6997	25.76	-0.01	-0.749	0.404	0.519	
0.4528	28976.28	3.6160	3.6161	-1.7348	25.75	-0.02	-0.750			
0.4580	29313.90	3.6130	3.6129	-1.7586	25.74	-0.03	-0.750			
0.4634	29654.49	3.6100	3.6099	-1.7951	25.73	-0.04	-0.750			
0.4688	30006.22	3.6070	3.6070	-1.8253	25.73	-0.04	-0.750			
0.4743	30356.59	3.6040	3.6038	-1.8366	25.72	-0.05	-0.750			
0.4799	30713.96	3.6010	3.6010	-1.8684	25.72	-0.05	-0.750			
0.4855	31072.96	3.5980	3.5979	-1.9297	25.72	-0.05	-0.750			
0.4914	31448.89	3.5950	3.5950	-1.9670	25.72	-0.05	-0.750			
0.4974	31834.14	3.5920	3.5920	-2.0018	25.72	-0.05	-0.750			
0.5036	32229.98	3.5890	3.5889	-2.0333	25.72	-0.05	-0.750			
0.5097	32619.88	3.5860	3.5861	-2.0955	25.71	-0.06	-0.750			
0.5159	33020.46	3.5830	3.5829	-2.1452	25.70	-0.07	-0.750			
0.5224	33435.52	3.5800	3.5799	-2.1943	25.70	-0.07	-0.750			
0.5290	33858.18	3.5770	3.5771	-2.2347	25.70	-0.07	-0.750			
0.5360	34303.74	3.5740	3.5740	-2.2678	25.70	-0.07	-0.750			
0.5430	34752.37	3.5710	3.5710	-2.2839	25.70	-0.07	-0.750			
0.5499	35196.46	3.5680	3.5682	-2.2839	25.70	-0.07	-0.750			
0.5566	35622.89	3.5650	3.5650	-2.2605	25.71	-0.06	-0.750			
0.5633	36053.98	3.5620	3.5619	-2.2651	25.72	-0.05	-0.750			
0.5702	36490.80	3.5590	3.5589	-2.2538	25.72	-0.05	-0.750			
0.5770	36929.81	3.5560	3.5561	-2.2372	25.71	-0.06	-0.750			
0.5837	37355.33	3.5530	3.5532	-2.2250	25.71	-0.06	-0.750			
0.5903	37780.45	3.5500	3.5500	-2.2283	25.72	-0.05	-0.750			
0.5969	38200.69	3.5470	3.5468	-2.2094	25.72	-0.05	-0.750			
0.6036	38628.78	3.5440	3.5440	-2.2063	25.72	-0.05	-0.750			
0.6102	39053.68	3.5410	3.5409	-2.2015	25.74	-0.03	-0.750			
0.6169	39482.53	3.5380	3.5380	-2.1841	25.75	-0.02	-0.750			
0.6235	39900.90	3.5350	3.5351	-2.1536	25.76	-0.01	-0.750			
0.6298	40309.24	3.5320	3.5320	-2.1159	25.76	-0.01	-0.750			
0.6361	40710.49	3.5290	3.5289	-2.0712	25.77	-0.00	-0.750			
0.6424	41110.61	3.5260	3.5261	-2.0352	25.78	0.01	-0.750			
0.6484	41498.51	3.5230	3.5230	-1.9930	25.80	0.03	-0.750			
0.6543	41878.16	3.5200	3.5200	-1.9422	25.81	0.04	-0.750			
0.6601	42247.27	3.5170	3.5170	-1.8775	25.82	0.05	-0.750			
0.6656	42601.29	3.5140	3.5139	-1.8244	25.82	0.05	-0.750			
0.6711	42947.69	3.5110	3.5108	-1.7795	25.84	0.07	-0.750			
0.6763	43284.63	3.5080	3.5080	-1.7290	25.87	0.10	-0.750			
0.6815	43615.62	3.5050	3.5048	-1.6641	25.88	0.11	-0.750			
0.6865	43935.61	3.5020	3.5022	-1.5854	25.90	0.13	-0.750			
0.6911	44229.42	3.4990	3.4992	-1.5181	25.91	0.14	-0.750			
0.6956	44515.49	3.4960	3.4960	-1.4655	25.93	0.16	-0.750			
0.6997	44779.66	3.4930	3.4928	-1.4109	25.94	0.17	-0.750			
0.7038	45044.81	3.4900	3.4901	-1.3753	25.96	0.19	-0.750			
0.7080	45309.29	3.4870	3.4869	-1.3419	25.98	0.21	-0.750			
0.7119	45564.18	3.4840	3.4840	-1.3076	26.00	0.23	-0.750			
0.7158	45812.99	3.4810	3.4812	-1.2752	26.01	0.24	-0.750			
0.7197	46057.96	3.4780	3.4780	-1.2425	26.03	0.26	-0.750			
0.7233	46292.53	3.4750	3.4748	-1.1977	26.05	0.28	-0.750			
0.7269	46518.93	3.4720	3.4719	-1.1540	26.07	0.30	-0.750			
0.7303	46737.80	3.4690	3.4690	-1.1228	26.08	0.31	-0.750			
0.7336	46948.60	3.4660	3.4660	-1.0793	26.10	0.33	-0.750			
0.7367	47149.76	3.4630	3.4629	-1.0377	26.11	0.34	-0.750			
0.7398	47345.87	3.4600	3.4599	-1.0098	26.13	0.36	-0.750			
0.7427	47534.16	3.4570	3.4570	-0.9803	26.14	0.37	-0.750			
0.7456	47718.93	3.4540	3.4540	-0.9535	26.15	0.38	-0.750			
0.7484	47899.10	3.4510	3.4509	-0.9301	26.16	0.39	-0.750			
0.7511	48073.55	3.4480	3.4481	-0.9110	26.17	0.40	-0.750			
0.7539	48246.83	3.4450	3.4450	-0.8976	26.19	0.42	-0.750			
0.7565	48416.60	3.4420	3.4419	-0.8970	26.20	0.43	-0.750			
0.7592	48586.34	3.4390	3.4390	-0.8921	26.21	0.44	-0.750			
0.7618	48755.51	3.4360	3.4359	-0.9036	26.22	0.45	-0.750			
0.7645	48930.35	3.4330	3.4332	-0.9144	26.23	0.46	-0.750			
0.7673	49105.17	3.4300	3.4299	-0.9359	26.24	0.47	-0.750			
0.7701	49286.22	3.4270	3.4271	-0.9579	26.25	0.48	-0.750			
0.7730	49470.87	3.4240	3.4240	-0.9818	26.26	0.49	-0.750			
0.7760	49662.57	3.4210	3.4209	-0.9956	26.27	0.50	-0.750			
0.7791	49859.33	3.4180	3.4180	-1.0220	26.27	0.50	-0.750			
0.7822	50059.74	3.4150	3.4150	-1.0184	26.28	0.51	-0.750			
0.7853	50261.20	3.4120	3.4119	-1.0188	26.29	0.52	-0.750			
0.7884	50455.94	3.4090	3.4090	-0.9978	26.30	0.53	-0.750			
0.7914	50647.75	3.4060	3.4061	-0.9820	26.31	0.54	-0.750			
0.7943	50834.52	3.4030	3.4029	-0.9601	26.32	0.55	-0.750			
0.7972	51019.18	3.4000	3.3999	-0.9282	26.33	0.56	-0.750			
0.7999	51193.96	3.3970	3.3969	-0.8907	26.34	0.57	-0.750			
0.8026	51363.46	3.3940	3.3944	-0.8614	26.35	0.58	-0.750			
0.8051	51524.61	3.3910	3.3909	-0.8262	26.36	0.59	-0.750			
0.8075	51678.45	3.3880	3.3879	-0.7960	26.37	0.60	-0.750			
0.8098	51824.74	3.3850	3.3850	-0.7637	26.37	0.60	-0.750			
0.8120	51971.14	3.3820	3.3820	-0.7439	26.38	0.61	-0.750			
0.8142	52111.81	3.3790	3.3789	-0.7154	26.39	0.62	-0.750			
0.8164	52247.36	3.3760	3.3760	-0.6882	26.39	0.62	-0.750			
0.8184	52375.71	3.3730	3.3730	-0.6604	26.40	0.63	-0.750			
0.8203	52498.61	3.3700	3.3699	-0.6340	26.41	0.64	-0.750			
0.8222	52617.89	3.3670	3.3670	-0.6126	26.41	0.64	-0.750			
0.8240	52733.53	3.3640	3.3639	-0.5879	26.42	0.65	-0.750			
0.8257	52845.00	3.3610	3.3610	-0.5669	26.42	0.65	-0.750			
0.8274	52952.09	3.3580	3.3580	-0.5428	26.43	0.66	-0.750			
0.8290	53052.89	3.3550	3.3550	-0.5223	26.44	0.67	-0.750			
0.8305	53150.53	3.3520	3.3519	-0.5013	26.44	0.67	-0.750			
0.8319	53242.69	3.3490	3.3490	-0.4842	26.45	0.68	-0.750			
0.8333	53334.39	3.3460	3.3459	-0.4704	26.46	0.69	-0.750			
0.8347	53423.59	3.3430	3.3431	-0.4554	26.46	0.69	-0.750			
0.8361	53510.10	3.3400	3.3400	-0.4401	26.47	0.70	-0.750			
0.8374	53593.83	3.3370	3.3371	-0.4233	26.48	0.71	-0.750			
0.8386	53673.07	3.3340	3.3339	-0.4072	26.48	0.71	-0.750			
0.8398	53748.99	3.3310	3.3311	-0.3917	26.49	0.72	-0.750			
0.8410	53821.92	3.3280	3.3280	-0.3768	26.50	0.73	-0.750			
0.8421	53892.50	3.3250	3.3250	-0.3647	26.50	0.73	-0.750			
0.8431	53960.87	3.3220	3.3220	-0.3545	26.51	0.74	-0.750			
0.8442	54027.38	3.3190	3.3190	-0.3438	26.51	0.74	-0.750			
0.8452	54093.32	3.3160	3.3160	-0.3336	26.52	0.75	-0.750			
0.8462	54155.83	3.3130	3.3130	-0.3233	26.52	0.75	-0.750			
0.8471	54217.10	3.3100	3.3101	-0.3137	26.53	0.76	-0.750			
0.8481	54276.71	3.3070	3.3069	-0.3036	26.54	0.77	-0.750			
0.8490	54332.93	3.3040	3.3040	-0.2940	26.54	0.77	-0.750			
0.8498	54388.38	3.3010	3.3011	-0.2859	26.54	0.77	-0.750			
0.8507	54442.67	3.2980	3.2980	-0.2788	26.55	0.78	-0.750			
0.8515	54495.70	3.2950	3.2949	-0.2717	26.55	0.78	-0.750			
0.8523	54546.67	3.2920	3.2920	-0.2628	26.56	0.79	-0.750			
0.8531	54596.38	3.2890	3.2890	-0.2578	26.56	0.79	-0.750			
0.8538	54645.27	3.2860	3.2860	-0.2522	26.57	0.80	-0.750			
0.8546	54692.66	3.2830	3.2830	-0.2455	26.57	0.80	-0.750			
0.8553	54738.78	3.2800	3.2799	-0.2399	26.58	0.81	-0.750			
0.8560	54784.92	3.2770	3.2771	-0.2352	26.58	0.81	-0.750			
0.8567	54829.63	3.2740	3.2741	-0.2308	26.59	0.82	-0.750			
0.8574	54873.68	3.2710	3.2709	-0.2260	26.59	0.82	-0.750			
0.8581	54916.53	3.2680	3.2680	-0.2211	26.60	0.83	-0.750			
0.8587	54957.75	3.2650	3.2649	-0.2157	26.60	0.83	-0.750			
0.8594	54998.86	3.2620	3.2620	-0.2123	26.60	0.83	-0.750			
0.8600	55039.29	3.2590	3.2590	-0.2089	26.61	0.84	-0.750			
0.8606	55078.90	3.2560	3.2560	-0.2055	26.61	0.84	-0.750			
0.8612	55118.19	3.2530	3.2530	-0.2026	26.62	0.85	-0.750			
0.8618	55156.56	3.2500	3.2500	-0.1989	26.62	0.85	-0.750			
0.8624	55194.51	3.2470	3.2470	-0.1960	26.62	0.85	-0.750			
0.8630	55231.80	3.2440	3.2440	-0.1938	26.63	0.86	-0.750			
0.8636	55268.89	3.2410	3.2410	-0.1903	26.63	0.86	-0.750			
0.8641	55305.11	3.2380	3.2380	-0.1874	26.63	0.86	-0.750			
0.8647	55340.89	3.2350	3.2349	-0.1845	26.64	0.87	-0.750			
0.8652	55375.85	3.2320	3.2321	-0.1824	26.64	0.87	-0.750			
0.8658	55410.56	3.2290	3.2289	-0.1800	26.65	0.88	-0.750			
0.8663	55445.15	3.2260	3.2259	-0.1770	26.65	0.88	-0.750			
0.8669	55478.89	3.2230	3.2230	-0.1743	26.66	0.89	-0.750			
0.8674	55512.07	3.2200	3.2200	-0.1709	26.66	0.89	-0.750			
0.8679	55544.56	3.2170	3.2170	-0.1701	26.67	0.90	-0.750			
0.8684	55576.64	3.2140	3.2141	-0.1675	26.67	0.90	-0.750			
0.8689	55608.66	3.2110	3.2109	-0.1660	26.68	0.91	-0.750			
0.8694	55639.75	3.2080	3.2079	-0.1651	26.68	0.91	-0.750			
0.8699	55671.78	3.2050	3.2050	-0.1635	26.69	0.92	-0.750			
0.8704	55703.65	3.2020	3.2019	-0.1631	26.69	0.92	-0.750			
0.8709	55734.73	3.1990	3.1991	-0.1607	26.70	0.93	-0.750			
0.8713	55765.74	3.1960	3.1961	-0.1583	26.70	0.93	-0.750			
0.8718	55795.53	3.1930	3.1930	-0.1550	26.71	0.94	-0.750			
0.8723	55825.20	3.1900	3.1900	-0.1526	26.71	0.94	-0.750			
0.8727	55853.98	3.1870	3.1869	-0.1514	26.72	0.95	-0.750			
0.8732	55882.17	3.1840	3.1840	-0.1501	26.72	0.95	-0.750			
0.8736	55911.30	3.1810	3.1808	-0.1494	26.72	0.95	-0.750			
0.8741	55939.91	3.1780	3.1781	-0.1486	26.73	0.96	-0.750			
0.8745	55968.24	3.1750	3.1749	-0.1476	26.73	0.96	-0.750			
0.8749	55996.80	3.1720	3.1720	-0.1469	26.74	0.97	-0.750			
0.8754	56025.18	3.1690	3.1690	-0.1456	26.74	0.97	-0.750			
0.8758	56052.95	3.1660	3.1660	-0.1436	26.75	0.98	-0.750			
0.8763	56080.22	3.1630	3.1630	-0.1416	26.75	0.98	-0.750			
0.8767	56107.00	3.1600	3.1601	-0.1400	26.75	0.98	-0.750			
0.8771	56133.96	3.1570	3.1568	-0.1390	26.76	0.99	-0.750			
0.8775	56160.39	3.1540	3.1541	-0.1379	26.76	0.99	-0.750			
0.8779	56186.44	3.1510	3.1510	-0.1364	26.77	1.00	-0.750			
0.8783	56212.45	3.1480	3.1481	-0.1355	26.77	1.00	-0.750			
0.8787	56238.52	3.1450	3.1450	-0.1344	26.78	1.01	-0.750			
0.8791	56264.34	3.1420	3.1421	-0.1339	26.78	1.01	-0.750			
0.8795	56289.97	3.1390	3.1389	-0.1329	26.79	1.02	-0.750			
0.8799	56315.30	3.1360	3.1360	-0.1318	26.79	1.02	-0.750			
0.8803	56340.54	3.1330	3.1329	-0.1308	26.80	1.03	-0.750			
0.8807	56365.69	3.1300	3.1300	-0.1296	26.80	1.03	-0.750			
0.8811	56390.47	3.1270	3.1270	-0.1285	26.81	1.04	-0.750			
0.8815	56415.00	3.1240	3.1240	-0.1277	26.81	1.04	-0.750			
0.8819	56439.42	3.1210	3.1210	-0.1270	26.82	1.05	-0.750			
0.8822	56463.51	3.1180	3.1180	-0.1256	26.82	1.05	-0.750			
0.8826	56487.72	3.1150	3.1149	-0.1246	26.83	1.06	-0.750			
0.8830	56511.62	3.1120	3.1121	-0.1238	26.83	1.06	-0.750			
0.8834	56535.14	3.1090	3.1090	-0.1233	26.84	1.07	-0.750			
0.8837	56558.82	3.1060	3.1059	-0.1228	26.84	1.07	-0.750			
0.8841	56582.74	3.1030	3.1031	-0.1209	26.85	1.08	-0.750			
0.8845	56605.86	3.1000	3.0998	-0.1193	26.85	1.08	-0.750			
0.8848	56628.39	3.0970	3.0969	-0.1183	26.85	1.08	-0.750			
0.8852	56650.99	3.0940	3.0942	-0.1170	26.86	1.09	-0.750			
0.8855	56673.08	3.0910	3.0911	-0.1174	26.86	1.09	-0.750			
0.8859	56695.33	3.0880	3.0879	-0.1168	26.87	1.10	-0.750			
0.8862	56717.84	3.0850	3.0851	-0.1166	26.87	1.10	-0.750			
0.8866	56739.65	3.0820	3.0818	-0.1161	26.88	1.11	-0.750			
0.8869	56762.30	3.0790	3.0792	-0.1152	26.88	1.11	-0.750			
0.8873	56785.25	3.0760	3.0760	-0.1154	26.89	1.12	-0.750			
0.8876	56807.20	3.0730	3.0731	-0.1145	26.89	1.12	-0.750			
0.8880	56829.07	3.0700	3.0699	-0.1133	26.89	1.12	-0.750			
0.8883	56850.36	3.0670	3.0669	-0.1123	26.90	1.13	-0.750			
0.8886	56871.88	3.0640	3.0641	-0.1119	26.90	1.13	-0.750			
0.8890	56893.44	3.0610	3.0610	-0.1109	26.91	1.14	-0.750			
0.8893	56914.67	3.0580	3.0580	-0.1102	26.91	1.14	-0.750			
0.8896	56935.86	3.0550	3.0550	-0.1097	26.92	1.15	-0.750			
0.8900	56956.84	3.0520	3.0521	-0.1088	26.92	1.15	-0.750			
0.8903	56977.53	3.0490	3.0489	-0.1081	26.92	1.15	-0.750			
0.8906	56998.22	3.0460	3.0460	-0.1074	26.93	1.16	-0.750			
0.8909	57018.54	3.0430	3.0429	-0.1068	26.93	1.16	-0.750			
0.8912	57039.05	3.0400	3.0401	-0.1068	26.94	1.17	-0.750			
0.8916	57059.81	3.0370	3.0370	-0.1062	26.94	1.17	-0.750			
0.8919	57080.13	3.0340	3.0339	-0.1055	26.94	1.17	-0.750			
0.8922	57100.33	3.0310	3.0312	-0.1049	26.95	1.18	-0.750			
0.8925	57120.39	3.0280	3.0279	-0.1041	26.95	1.18	-0.750			
0.8928	57140.21	3.0250	3.0251	-0.1036	26.96	1.19	-0.750			
0.8931	57160.05	3.0220	3.0219	-0.1030	26.96	1.19	-0.750			
0.8934	57179.65	3.0190	3.0190	-0.1022	26.96	1.19	-0.750			
0.8937	57199.24	3.0160	3.0160	-0.1019	26.97	1.20	-0.750			
0.8940	57218.95	3.0130	3.0130	-0.1016	26.97	1.20	-0.750			
0.8943	57238.38	3.0100	3.0100	-0.1009	26.97	1.20	-0.750			
0.8947	57257.75	3.0070	3.0070	-0.1001	26.98	1.21	-0.751			
0.8950	57276.87	3.0040	3.0040	-0.0991	26.98	1.21	-0.751			
0.8952	57295.84	3.0010	3.0010	-0.0986	26.99	1.22	-0.751			
