Ah_balance (normalized)	Ah_balance (mAh)	Voltage - fit (V)	Voltage -  interpolate (V)	dQ/dV (1/V)	Temperature (°C)	Temperature - diff (°C)	Current (C)	R_DC 0ms (mOhm)	R_DC 50ms (mOhm)	R_DC 50 ms PEC (mOhm)
0.0489	3127.26	4.1990	4.1990	0.7800	26.31	0.32	0.750			
0.0511	3272.92	4.1960	4.1961	0.7556	26.31	0.32	0.750			
0.0534	3419.78	4.1930	4.1930	0.7652	26.31	0.32	0.750			
0.0557	3567.36	4.1900	4.1900	0.7712	26.31	0.32	0.750			
0.0581	3717.33	4.1870	4.1870	0.7732	26.31	0.32	0.750			
0.0604	3865.97	4.1840	4.1841	0.7724	26.31	0.32	0.750			
0.0627	4015.63	4.1810	4.1810	0.7737	26.31	0.32	0.750			
0.0651	4163.58	4.1780	4.1781	0.7747	26.31	0.32	0.750			
0.0673	4310.21	4.1750	4.1749	0.7720	26.31	0.32	0.750			
0.0697	4459.37	4.1720	4.1715	0.7789	26.31	0.32	0.750			
0.0720	4608.78	4.1690	4.1691	0.7812	26.31	0.32	0.750			
0.0744	4760.01	4.1660	4.1661	0.7863	26.31	0.32	0.750			
0.0768	4913.07	4.1630	4.1630	0.7894	26.31	0.32	0.750			
0.0791	5064.70	4.1600	4.1600	0.7892	26.31	0.32	0.750			
0.0815	5214.12	4.1570	4.1570	0.7921	26.31	0.32	0.750			
0.0839	5367.31	4.1540	4.1540	0.7939	26.31	0.32	0.750			
0.0863	5522.46	4.1510	4.1509	0.7846	26.31	0.32	0.750			
0.0886	5671.04	4.1480	4.1481	0.7862	26.31	0.32	0.750			
0.0910	5821.66	4.1450	4.1452	0.7845	26.31	0.32	0.750			
0.0933	5970.59	4.1420	4.1420	0.7881	26.31	0.32	0.750			
0.0956	6120.45	4.1390	4.1388	0.7890	26.31	0.32	0.750			
0.0980	6273.75	4.1360	4.1361	0.7883	26.31	0.32	0.750			
0.1004	6427.80	4.1330	4.1330	0.7952	26.31	0.32	0.750			
0.1028	6580.41	4.1300	4.1301	0.8023	26.31	0.32	0.750			
0.1052	6733.69	4.1270	4.1271	0.7989	26.31	0.32	0.750			
0.1076	6886.46	4.1240	4.1238	0.8049	26.31	0.32	0.750			
0.1100	7041.79	4.1210	4.1210	0.8035	26.31	0.32	0.750			
0.1125	7197.73	4.1180	4.1181	0.8013	26.31	0.32	0.750			
0.1149	7350.71	4.1150	4.1151	0.8043	26.32	0.33	0.750			
0.1173	7505.01	4.1120	4.1121	0.8020	26.32	0.33	0.750			
0.1196	7656.32	4.1090	4.1088	0.8092	26.32	0.33	0.750			
0.1221	7812.13	4.1060	4.1060	0.8150	26.32	0.33	0.750			
0.1245	7969.55	4.1030	4.1030	0.8149	26.32	0.33	0.750			
0.1270	8130.04	4.1000	4.1000	0.8243	26.33	0.34	0.750			
0.1295	8287.74	4.0970	4.0972	0.8206	26.33	0.34	0.750			
0.1320	8444.94	4.0940	4.0938	0.8203	26.33	0.34	0.750			
0.1344	8601.85	4.0910	4.0910	0.8221	26.33	0.34	0.750			
0.1369	8759.72	4.0880	4.0880	0.8143	26.33	0.34	0.750			
0.1393	8916.28	4.0850	4.0851	0.8270	26.33	0.34	0.750			
0.1418	9074.17	4.0820	4.0820	0.8285	26.33	0.34	0.750			
0.1443	9234.62	4.0790	4.0788	0.8326	26.33	0.34	0.750			
0.1468	9395.18	4.0760	4.0761	0.8365	26.33	0.34	0.750			
0.1493	9557.40	4.0730	4.0730	0.8333	26.32	0.33	0.750			
0.1518	9717.79	4.0700	4.0700	0.8384	26.32	0.33	0.750			
0.1543	9877.31	4.0670	4.0671	0.8358	26.31	0.32	0.750			
0.1568	10036.90	4.0640	4.0638	0.8460	26.31	0.32	0.750			
0.1594	10199.98	4.0610	4.0611	0.8523	26.31	0.32	0.750			
0.1620	10365.92	4.0580	4.0580	0.8562	26.32	0.33	0.750			
0.1646	10532.29	4.0550	4.0550	0.8611	26.33	0.34	0.750			
0.1671	10697.58	4.0520	4.0521	0.8574	26.33	0.34	0.750			
0.1697	10862.09	4.0490	4.0488	0.8583	26.34	0.35	0.750			
0.1723	11027.03	4.0460	4.0459	0.8587	26.34	0.35	0.750			
0.1749	11191.10	4.0430	4.0431	0.8551	26.34	0.35	0.750			
0.1774	11356.27	4.0400	4.0400	0.8587	26.34	0.35	0.750			
0.1800	11519.62	4.0370	4.0371	0.8639	26.34	0.35	0.750			
0.1826	11686.39	4.0340	4.0338	0.8709	26.34	0.35	0.750			
0.1852	11854.07	4.0310	4.0310	0.8730	26.34	0.35	0.750			
0.1878	12022.07	4.0280	4.0282	0.8797	26.34	0.35	0.750			
0.1905	12192.55	4.0250	4.0250	0.8870	26.34	0.35	0.750			
0.1932	12364.54	4.0220	4.0219	0.8896	26.34	0.35	0.750			
0.1958	12532.87	4.0190	4.0192	0.8897	26.34	0.35	0.750			
0.1985	12703.32	4.0160	4.0160	0.8902	26.34	0.35	0.750			
0.2012	12876.32	4.0130	4.0131	0.8973	26.34	0.35	0.750			
0.2039	13050.55	4.0100	4.0099	0.8934	26.34	0.35	0.750			
0.2066	13221.75	4.0070	4.0069	0.8896	26.34	0.35	0.750			
0.2093	13392.26	4.0040	4.0041	0.8912	26.34	0.35	0.750			
0.2119	13561.91	4.0010	4.0010	0.8953	26.34	0.35	0.750			
0.2146	13733.67	3.9980	3.9979	0.8975	26.34	0.35	0.750			
0.2173	13905.53	3.9950	3.9950	0.9021	26.34	0.35	0.750			
0.2200	14078.86	3.9920	3.9919	0.9103	26.34	0.35	0.750			
0.2227	14255.94	3.9890	3.9891	0.9180	26.34	0.35	0.750			
0.2255	14432.88	3.9860	3.9859	0.9194	26.34	0.35	0.750			
0.2283	14609.51	3.9830	3.9830	0.9176	26.34	0.35	0.750			
0.2310	14786.36	3.9800	3.9801	0.9134	26.34	0.35	0.750			
0.2338	14961.61	3.9770	3.9771	0.9199	26.34	0.35	0.750			
0.2365	15136.51	3.9740	3.9740	0.9204	26.34	0.35	0.750			
0.2392	15311.26	3.9710	3.9710	0.9321	26.35	0.36	0.750			
0.2420	15490.94	3.9680	3.9680	0.9392	26.35	0.36	0.750			
0.2449	15673.59	3.9650	3.9646	0.9470	26.35	0.36	0.750			
0.2478	15861.55	3.9620	3.9621	0.9453	26.35	0.36	0.750			
0.2507	16043.32	3.9590	3.9591	0.9459	26.35	0.36	0.750			
0.2535	16222.57	3.9560	3.9561	0.9448	26.35	0.36	0.750			
0.2563	16400.48	3.9530	3.9530	0.9367	26.35	0.36	0.750			
0.2591	16583.59	3.9500	3.9501	0.9366	26.35	0.36	0.750			
0.2619	16763.91	3.9470	3.9470	0.9430	26.35	0.36	0.750			
0.2647	16943.90	3.9440	3.9441	0.9470	26.35	0.36	0.750			
0.2676	17128.41	3.9410	3.9411	0.9576	26.35	0.36	0.750			
0.2705	17310.53	3.9380	3.9379	0.9549	26.35	0.36	0.750			
0.2733	17494.31	3.9350	3.9350	0.9525	26.35	0.36	0.750			
0.2762	17676.79	3.9320	3.9321	0.9593	26.35	0.36	0.750			
0.2791	17863.07	3.9290	3.9291	0.9630	26.35	0.36	0.750			
0.2820	18047.31	3.9260	3.9258	0.9613	26.35	0.36	0.750			
0.2849	18232.37	3.9230	3.9230	0.9564	26.35	0.36	0.750			
0.2877	18415.40	3.9200	3.9201	0.9654	26.35	0.36	0.750			
0.2907	18601.70	3.9170	3.9170	0.9749	26.34	0.35	0.750			
0.2936	18789.11	3.9140	3.9140	0.9754	26.34	0.35	0.750			
0.2965	18977.88	3.9110	3.9111	0.9723	26.34	0.35	0.750			
0.2995	19166.32	3.9080	3.9081	0.9795	26.34	0.35	0.750			
0.3024	19354.52	3.9050	3.9050	0.9784	26.34	0.35	0.750			
0.3053	19541.97	3.9020	3.9020	0.9808	26.34	0.35	0.750			
0.3082	19727.99	3.8990	3.8990	0.9770	26.34	0.35	0.750			
0.3112	19915.60	3.8960	3.8960	0.9813	26.33	0.34	0.750			
0.3142	20105.64	3.8930	3.8930	0.9883	26.33	0.34	0.750			
0.3171	20296.07	3.8900	3.8901	0.9947	26.32	0.33	0.750			
0.3201	20486.91	3.8870	3.8869	0.9979	26.32	0.33	0.750			
0.3231	20679.78	3.8840	3.8840	0.9976	26.32	0.33	0.750			
0.3261	20869.67	3.8810	3.8811	1.0005	26.32	0.33	0.750			
0.3291	21062.39	3.8780	3.8780	1.0089	26.31	0.32	0.750			
0.3321	21256.41	3.8750	3.8746	1.0163	26.31	0.32	0.750			
0.3352	21451.51	3.8720	3.8721	1.0157	26.31	0.32	0.750			
0.3382	21645.61	3.8690	3.8691	1.0258	26.31	0.32	0.750			
0.3413	21843.28	3.8660	3.8661	1.0442	26.30	0.31	0.750			
0.3445	22047.54	3.8630	3.8627	1.0586	26.30	0.31	0.750			
0.3476	22247.77	3.8600	3.8600	1.0594	26.29	0.30	0.750			
0.3508	22454.07	3.8570	3.8570	1.0683	26.29	0.30	0.750			
0.3541	22663.11	3.8540	3.8541	1.0786	26.28	0.29	0.750			
0.3574	22870.95	3.8510	3.8510	1.0737	26.27	0.28	0.750			
0.3606	23076.39	3.8480	3.8480	1.0785	26.26	0.27	0.750			
0.3638	23280.69	3.8450	3.8451	1.0788	26.26	0.27	0.750			
0.3670	23489.19	3.8420	3.8420	1.0960	26.25	0.26	0.750			
0.3704	23703.17	3.8390	3.8389	1.0956	26.25	0.26	0.750			
0.3736	23912.12	3.8360	3.8359	1.1165	26.24	0.25	0.750			
0.3770	24125.59	3.8330	3.8331	1.1385	26.23	0.24	0.750			
0.3804	24346.96	3.8300	3.8300	1.1597	26.22	0.23	0.750			
0.3839	24571.71	3.8270	3.8271	1.1704	26.21	0.22	0.750			
0.3875	24799.34	3.8240	3.8242	1.1908	26.20	0.21	0.750			
0.3911	25028.97	3.8210	3.8211	1.2072	26.20	0.21	0.750			
0.3948	25265.35	3.8180	3.8177	1.2190	26.19	0.20	0.750			
0.3984	25496.69	3.8150	3.8150	1.2286	26.18	0.19	0.750			
0.4021	25733.49	3.8120	3.8120	1.2526	26.17	0.18	0.750			
0.4060	25982.24	3.8090	3.8089	1.2616	26.15	0.16	0.750			
0.4098	26224.99	3.8060	3.8060	1.2785	26.14	0.15	0.750			
0.4136	26470.05	3.8030	3.8031	1.2889	26.13	0.14	0.750			
0.4175	26719.42	3.8000	3.8002	1.3024	26.12	0.13	0.750			
0.4214	26970.94	3.7970	3.7970	1.3175	26.11	0.12	0.750			
0.4254	27223.65	3.7940	3.7940	1.3224	26.10	0.11	0.750			
0.4294	27482.51	3.7910	3.7911	1.3216	26.09	0.10	0.750			
0.4334	27736.47	3.7880	3.7880	1.3394	26.08	0.09	0.750			
0.4374	27992.34	3.7850	3.7851	1.3448	26.07	0.08	0.750			
0.4414	28252.40	3.7820	3.7820	1.3493	26.06	0.07	0.750			
0.4455	28511.21	3.7790	3.7788	1.3634	26.05	0.06	0.750			
0.4496	28773.55	3.7760	3.7761	1.3763	26.03	0.04	0.750			
0.4538	29043.79	3.7730	3.7730	1.3883	26.02	0.03	0.750			
0.4580	29310.35	3.7700	3.7699	1.4034	26.01	0.02	0.750			
0.4621	29576.44	3.7670	3.7670	1.4127	25.99	-0.00	0.750			
0.4664	29850.22	3.7640	3.7641	1.4497	25.97	-0.02	0.750			
0.4708	30132.08	3.7610	3.7611	1.4930	25.95	-0.04	0.750			
0.4753	30420.64	3.7580	3.7582	1.5243	25.94	-0.05	0.750	0.318	0.392	
0.4800	30719.52	3.7550	3.7553	1.5569	25.93	-0.06	0.750			
0.4848	31024.34	3.7520	3.7520	1.5825	25.92	-0.07	0.750			
0.4895	31328.53	3.7490	3.7491	1.6148	25.91	-0.08	0.750			
0.4943	31637.85	3.7460	3.7459	1.6332	25.89	-0.10	0.750			
0.4992	31948.95	3.7430	3.7432	1.6713	25.88	-0.11	0.750			
0.5044	32280.57	3.7400	3.7401	1.7050	25.86	-0.13	0.750			
0.5095	32607.44	3.7370	3.7371	1.7589	25.84	-0.15	0.750			
0.5148	32948.20	3.7340	3.7341	1.7969	25.83	-0.16	0.750			
0.5203	33302.10	3.7310	3.7312	1.8385	25.81	-0.18	0.750			
0.5259	33657.45	3.7280	3.7280	1.8766	25.79	-0.20	0.750			
0.5315	34018.43	3.7250	3.7250	1.9284	25.77	-0.22	0.750			
0.5373	34390.36	3.7220	3.7220	1.9883	25.76	-0.23	0.750			
0.5435	34781.66	3.7190	3.7191	2.0510	25.74	-0.25	0.750			
0.5496	35175.09	3.7160	3.7160	2.1151	25.72	-0.27	0.750			
0.5561	35588.74	3.7130	3.7131	2.1864	25.70	-0.29	0.750			
0.5629	36023.60	3.7100	3.7099	2.2654	25.69	-0.30	0.750			
0.5698	36464.64	3.7070	3.7069	2.3075	25.67	-0.32	0.750			
0.5767	36911.48	3.7040	3.7040	2.3733	25.65	-0.34	0.750			
0.5840	37372.99	3.7010	3.7011	2.4469	25.64	-0.35	0.750			
0.5914	37849.81	3.6980	3.6979	2.5041	25.63	-0.36	0.750			
0.5989	38332.77	3.6950	3.6951	2.5772	25.61	-0.38	0.750			
0.6068	38836.24	3.6920	3.6921	2.6446	25.59	-0.40	0.750			
0.6149	39352.51	3.6890	3.6889	2.7372	25.58	-0.41	0.750			
0.6231	39881.04	3.6860	3.6860	2.8006	25.56	-0.43	0.750			
0.6316	40425.35	3.6830	3.6830	2.8975	25.54	-0.45	0.750			
0.6405	40990.68	3.6800	3.6799	2.9980	25.54	-0.45	0.750			
0.6496	41573.52	3.6770	3.6772	3.1485	25.53	-0.46	0.750			
0.6592	42191.00	3.6740	3.6739	3.2456	25.52	-0.47	0.750			
0.6693	42833.08	3.6710	3.6710	3.3467	25.51	-0.48	0.750			
0.6795	43489.19	3.6680	3.6678	3.3920	25.50	-0.49	0.750			
0.6899	44151.12	3.6650	3.6650	3.3100	25.50	-0.49	0.750			
0.6999	44796.22	3.6620	3.6620	3.1482	25.50	-0.49	0.750			
0.7092	45388.83	3.6590	3.6589	2.8743	25.50	-0.49	0.750			
0.7171	45896.98	3.6560	3.6564	2.5420	25.52	-0.47	0.750			
0.7242	46351.33	3.6530	3.6532	2.2574	25.52	-0.47	0.750			
0.7303	46741.10	3.6500	3.6501	1.9947	25.52	-0.47	0.750			
0.7356	47080.64	3.6470	3.6470	1.7857	25.53	-0.46	0.750			
0.7406	47401.34	3.6440	3.6440	1.6377	25.53	-0.46	0.750			
0.7453	47701.09	3.6410	3.6410	1.5172	25.54	-0.45	0.750			
0.7497	47981.61	3.6380	3.6381	1.4158	25.55	-0.44	0.750			
0.7536	48232.71	3.6350	3.6350	1.3333	25.55	-0.44	0.750			
0.7574	48474.01	3.6320	3.6317	1.2565	25.56	-0.43	0.750			
0.7609	48699.99	3.6290	3.6291	1.2275	25.57	-0.42	0.750			
0.7646	48933.54	3.6260	3.6260	1.2231	25.57	-0.42	0.750			
0.7683	49170.03	3.6230	3.6229	1.2159	25.58	-0.41	0.750			
0.7719	49400.71	3.6200	3.6201	1.2241	25.58	-0.41	0.750			
0.7756	49637.37	3.6170	3.6171	1.2353	25.58	-0.41	0.750			
0.7793	49876.44	3.6140	3.6140	1.2391	25.58	-0.41	0.750			
0.7831	50120.77	3.6110	3.6109	1.2114	25.58	-0.41	0.750			
0.7868	50352.68	3.6080	3.6081	1.1889	25.59	-0.40	0.750			
0.7903	50580.09	3.6050	3.6052	1.1721	25.59	-0.40	0.750			
0.7938	50800.15	3.6020	3.6022	1.1502	25.60	-0.39	0.750			
0.7971	51011.65	3.5990	3.5990	1.1344	25.60	-0.39	0.750			
0.8003	51222.04	3.5960	3.5961	1.1439	25.60	-0.39	0.750			
0.8037	51439.47	3.5930	3.5931	1.1861	25.60	-0.39	0.750			
0.8075	51680.29	3.5900	3.5897	1.2130	25.60	-0.39	0.750			
0.8111	51910.20	3.5870	3.5870	1.2467	25.61	-0.38	0.750			
0.8149	52153.36	3.5840	3.5842	1.2913	25.61	-0.38	0.750			
0.8189	52406.57	3.5810	3.5810	1.3263	25.62	-0.37	0.750			
0.8229	52666.59	3.5780	3.5780	1.3528	25.62	-0.37	0.750			
0.8269	52919.23	3.5750	3.5751	1.4142	25.62	-0.37	0.750			
0.8312	53199.03	3.5720	3.5720	1.4452	25.62	-0.37	0.750			
0.8358	53490.71	3.5690	3.5687	1.4659	25.63	-0.36	0.750			
0.8402	53771.96	3.5660	3.5662	1.5067	25.63	-0.36	0.750			
0.8448	54066.19	3.5630	3.5626	1.5262	25.64	-0.35	0.750			
0.8494	54362.24	3.5600	3.5601	1.5451	25.64	-0.35	0.750			
0.8540	54658.71	3.5570	3.5570	1.5538	25.64	-0.35	0.750			
0.8586	54950.26	3.5540	3.5543	1.5590	25.64	-0.35	0.750			
0.8634	55257.02	3.5510	3.5509	1.5906	25.65	-0.34	0.750			
0.8683	55568.52	3.5480	3.5481	1.6177	25.66	-0.33	0.750			
0.8731	55878.31	3.5450	3.5452	1.6379	25.67	-0.32	0.750			
0.8781	56196.86	3.5420	3.5421	1.6739	25.67	-0.32	0.750			
0.8832	56522.68	3.5390	3.5392	1.6719	25.68	-0.31	0.750			
0.8882	56844.02	3.5360	3.5361	1.7174	25.69	-0.30	0.750			
0.8934	57176.23	3.5330	3.5328	1.7112	25.70	-0.29	0.750			
0.8987	57518.90	3.5300	3.5296	1.6632	25.71	-0.28	0.750			
0.9042	57868.77	3.5270	3.5273	1.5186	25.73	-0.26	0.750			
0.9086	58150.90	3.5240	3.5245	1.2848	25.75	-0.24	0.750			
0.9125	58400.09	3.5210	3.5214	1.0655	25.77	-0.22	0.750			
0.9150	58556.96	3.5180	3.5176	0.7775	25.78	-0.21	0.750			
0.9164	58649.09	3.5150	3.5148	0.5747	25.79	-0.20	0.750			
0.9177	58731.58	3.5120	3.5117	0.4546	25.80	-0.19	0.750			
0.9187	58798.21	3.5090	3.5090	0.3866	25.80	-0.19	0.750			
0.9198	58866.01	3.5060	3.5056	0.3525	25.81	-0.18	0.750			
0.9207	58927.41	3.5030	3.5030	0.3279	25.82	-0.17	0.750			
0.9217	58988.33	3.5000	3.5001	0.3126	25.82	-0.17	0.750			
0.9226	59045.77	3.4970	3.4969	0.2989	25.83	-0.16	0.750			
0.9235	59102.01	3.4940	3.4940	0.2909	25.83	-0.16	0.750			
0.9243	59155.35	3.4910	3.4911	0.2813	25.84	-0.15	0.750			
0.9251	59209.36	3.4880	3.4880	0.2768	25.84	-0.15	0.750			
0.9260	59261.72	3.4850	3.4849	0.2704	25.85	-0.14	0.750			
0.9268	59313.09	3.4820	3.4821	0.2662	25.85	-0.14	0.750			
0.9276	59363.95	3.4790	3.4790	0.2615	25.86	-0.13	0.750			
0.9283	59413.52	3.4760	3.4760	0.2570	25.86	-0.13	0.750			
0.9291	59461.79	3.4730	3.4730	0.2513	25.87	-0.12	0.750			
0.9298	59510.29	3.4700	3.4701	0.2446	25.87	-0.12	0.750			
0.9306	59557.10	3.4670	3.4670	0.2399	25.88	-0.11	0.750			
0.9313	59601.88	3.4640	3.4641	0.2357	25.88	-0.11	0.750			
0.9320	59646.43	3.4610	3.4608	0.2311	25.89	-0.10	0.750			
0.9327	59689.97	3.4580	3.4580	0.2270	25.89	-0.10	0.750			
0.9333	59733.15	3.4550	3.4550	0.2242	25.90	-0.09	0.750			
0.9340	59776.06	3.4520	3.4521	0.2198	25.90	-0.09	0.750			
0.9347	59819.12	3.4490	3.4489	0.2175	25.91	-0.08	0.750			
0.9353	59859.90	3.4460	3.4460	0.2117	25.91	-0.08	0.750			
0.9359	59900.06	3.4430	3.4431	0.2067	25.92	-0.07	0.750			
0.9365	59938.91	3.4400	3.4400	0.2021	25.92	-0.07	0.750			
0.9371	59977.29	3.4370	3.4370	0.1983	25.93	-0.06	0.750			
0.9377	60014.55	3.4340	3.4341	0.1939	25.93	-0.06	0.750			
0.9383	60051.50	3.4310	3.4310	0.1910	25.94	-0.05	0.750			
0.9389	60088.13	3.4280	3.4280	0.1874	25.94	-0.05	0.750			
0.9394	60123.92	3.4250	3.4250	0.1834	25.95	-0.04	0.750			
0.9400	60158.89	3.4220	3.4220	0.1792	25.95	-0.04	0.750			
0.9405	60192.86	3.4190	3.4190	0.1747	25.96	-0.03	0.750			
0.9410	60225.90	3.4160	3.4160	0.1711	25.96	-0.03	0.750			
0.9415	60258.29	3.4130	3.4131	0.1669	25.96	-0.03	0.750			
0.9420	60290.20	3.4100	3.4099	0.1619	25.97	-0.02	0.750			
0.9425	60320.84	3.4070	3.4069	0.1572	25.97	-0.02	0.750			
0.9430	60351.10	3.4040	3.4040	0.1515	25.98	-0.01	0.750			
0.9434	60379.66	3.4010	3.4012	0.1464	25.98	-0.01	0.750			
0.9439	60407.30	3.3980	3.3981	0.1405	25.98	-0.01	0.750			
0.9443	60433.25	3.3950	3.3948	0.1355	25.99	-0.00	0.750			
0.9447	60458.15	3.3920	3.3919	0.1295	25.99	-0.00	0.750			
0.9450	60482.67	3.3890	3.3889	0.1240	25.99	0.00	0.750			
0.9454	60506.27	3.3860	3.3861	0.1200	26.00	0.01	0.750			
0.9458	60529.33	3.3830	3.3830	0.1137	26.00	0.01	0.750			
0.9461	60551.14	3.3800	3.3802	0.1085	26.00	0.01	0.750			
0.9464	60571.30	3.3770	3.3770	0.1014	26.00	0.01	0.750			
0.9467	60590.89	3.3740	3.3740	0.0927	26.01	0.02	0.750			
0.9470	60607.82	3.3710	3.3710	0.0836	26.01	0.02	0.750			
0.9472	60623.34	3.3680	3.3680	0.0748	26.01	0.02	0.750			
0.9474	60636.79	3.3650	3.3653	0.0653	26.01	0.02	0.750			
0.9476	60648.97	3.3620	3.3624	0.0553	26.01	0.02	0.750			
0.9478	60658.58	3.3590	3.3596	0.0447	26.01	0.02	0.750			
0.9479	60666.16	3.3560	3.3570	0.0342	26.01	0.02	0.750			
