Ah_balance (normalized)	Ah_balance (mAh)	Voltage - fit (V)	Voltage -  interpolate (V)	dQ/dV (1/V)	Temperature (°C)	Temperature - diff (°C)	Current (C)	R_DC 0ms (mOhm)	R_DC 50ms (mOhm)	R_DC 50 ms PEC (mOhm)
0.0004	26.93	4.1580	4.1579	-0.1382	25.84	0.02	-0.750			
0.0009	55.75	4.1550	4.1551	-0.1717	25.84	0.02	-0.750			
0.0014	92.35	4.1520	4.1519	-0.2085	25.83	0.01	-0.750			
0.0021	136.51	4.1490	4.1489	-0.2435	25.83	0.01	-0.750			
0.0029	186.76	4.1460	4.1461	-0.2774	25.83	0.01	-0.750			
0.0038	243.71	4.1430	4.1430	-0.3136	25.83	0.01	-0.750			
0.0048	308.06	4.1400	4.1401	-0.3462	25.83	0.01	-0.750			
0.0059	378.12	4.1370	4.1369	-0.3766	25.82	0.00	-0.750			
0.0071	453.05	4.1340	4.1342	-0.4061	25.82	0.00	-0.750			
0.0084	534.73	4.1310	4.1310	-0.4336	25.82	-0.00	-0.750			
0.0097	620.83	4.1280	4.1280	-0.4596	25.81	-0.01	-0.750			
0.0111	712.54	4.1250	4.1250	-0.4811	25.81	-0.01	-0.750			
0.0126	806.22	4.1220	4.1221	-0.5046	25.81	-0.01	-0.750			
0.0142	906.59	4.1190	4.1190	-0.5291	25.80	-0.02	-0.750			
0.0158	1010.31	4.1160	4.1160	-0.5484	25.80	-0.02	-0.750			
0.0175	1119.09	4.1130	4.1129	-0.5634	25.80	-0.02	-0.750			
0.0192	1229.80	4.1100	4.1101	-0.5773	25.79	-0.03	-0.750			
0.0210	1343.15	4.1070	4.1070	-0.5888	25.79	-0.03	-0.750			
0.0228	1457.66	4.1040	4.1040	-0.5963	25.79	-0.03	-0.750			
0.0246	1572.38	4.1010	4.1009	-0.5986	25.78	-0.04	-0.750			
0.0264	1687.47	4.0980	4.0980	-0.6088	25.78	-0.04	-0.750			
0.0282	1805.55	4.0950	4.0950	-0.6171	25.78	-0.04	-0.750			
0.0301	1924.81	4.0920	4.0920	-0.6273	25.77	-0.05	-0.750			
0.0320	2046.16	4.0890	4.0891	-0.6374	25.77	-0.05	-0.750			
0.0339	2170.05	4.0860	4.0859	-0.6430	25.77	-0.05	-0.750			
0.0359	2294.97	4.0830	4.0831	-0.6506	25.76	-0.06	-0.750			
0.0378	2419.98	4.0800	4.0800	-0.6581	25.76	-0.06	-0.750			
0.0398	2546.32	4.0770	4.0770	-0.6601	25.76	-0.06	-0.750			
0.0418	2675.93	4.0740	4.0739	-0.6626	25.75	-0.07	-0.750			
0.0438	2802.54	4.0710	4.0710	-0.6642	25.75	-0.07	-0.750			
0.0458	2930.76	4.0680	4.0681	-0.6671	25.75	-0.07	-0.750			
0.0478	3058.92	4.0650	4.0650	-0.6719	25.75	-0.07	-0.750			
0.0498	3186.68	4.0620	4.0620	-0.6745	25.75	-0.07	-0.750			
0.0518	3316.11	4.0590	4.0590	-0.6766	25.75	-0.07	-0.750			
0.0539	3448.05	4.0560	4.0559	-0.6818	25.75	-0.07	-0.750			
0.0559	3580.28	4.0530	4.0531	-0.6900	25.75	-0.07	-0.750			
0.0580	3712.31	4.0500	4.0501	-0.6917	25.75	-0.07	-0.750			
0.0601	3845.85	4.0470	4.0470	-0.6941	25.75	-0.07	-0.750			
0.0622	3978.43	4.0440	4.0440	-0.7014	25.75	-0.07	-0.750			
0.0643	4113.74	4.0410	4.0411	-0.7015	25.75	-0.07	-0.750			
0.0664	4249.64	4.0380	4.0380	-0.7033	25.75	-0.07	-0.750			
0.0685	4385.26	4.0350	4.0349	-0.7076	25.75	-0.07	-0.750			
0.0706	4520.33	4.0320	4.0320	-0.7069	25.75	-0.07	-0.750			
0.0728	4656.21	4.0290	4.0290	-0.7081	25.75	-0.07	-0.750			
0.0749	4792.23	4.0260	4.0260	-0.7127	25.75	-0.07	-0.750			
0.0770	4929.58	4.0230	4.0230	-0.7098	25.75	-0.07	-0.750			
0.0792	5067.95	4.0200	4.0199	-0.7124	25.75	-0.07	-0.750			
0.0813	5204.14	4.0170	4.0171	-0.7115	25.75	-0.07	-0.750			
0.0834	5339.47	4.0140	4.0140	-0.7118	25.75	-0.07	-0.750			
0.0856	5475.56	4.0110	4.0109	-0.7133	25.75	-0.07	-0.750			
0.0877	5612.55	4.0080	4.0080	-0.7186	25.75	-0.07	-0.750			
0.0898	5749.85	4.0050	4.0051	-0.7189	25.75	-0.07	-0.750			
0.0921	5891.79	4.0020	4.0019	-0.7282	25.75	-0.07	-0.750			
0.0942	6031.25	3.9990	3.9992	-0.7275	25.75	-0.07	-0.750			
0.0964	6170.37	3.9960	3.9959	-0.7278	25.75	-0.07	-0.750			
0.0986	6311.22	3.9930	3.9929	-0.7222	25.76	-0.06	-0.750			
0.1008	6449.43	3.9900	3.9900	-0.7296	25.76	-0.06	-0.750			
0.1029	6588.35	3.9870	3.9871	-0.7285	25.76	-0.06	-0.750			
0.1052	6730.00	3.9840	3.9839	-0.7339	25.77	-0.05	-0.750			
0.1073	6870.23	3.9810	3.9813	-0.7359	25.77	-0.05	-0.750			
0.1095	7010.31	3.9780	3.9780	-0.7420	25.77	-0.05	-0.750			
0.1118	7152.86	3.9750	3.9750	-0.7523	25.77	-0.05	-0.750			
0.1141	7300.94	3.9720	3.9719	-0.7544	25.78	-0.04	-0.750			
0.1164	7446.53	3.9690	3.9690	-0.7562	25.78	-0.04	-0.750			
0.1186	7592.20	3.9660	3.9660	-0.7576	25.78	-0.04	-0.750			
0.1209	7737.95	3.9630	3.9629	-0.7551	25.78	-0.04	-0.750			
0.1232	7881.95	3.9600	3.9599	-0.7530	25.78	-0.04	-0.750			
0.1254	8023.97	3.9570	3.9570	-0.7492	25.78	-0.04	-0.750			
0.1276	8168.47	3.9540	3.9540	-0.7493	25.79	-0.03	-0.750			
0.1299	8313.88	3.9510	3.9509	-0.7570	25.79	-0.03	-0.750			
0.1322	8458.76	3.9480	3.9481	-0.7571	25.79	-0.03	-0.750			
0.1344	8604.26	3.9450	3.9450	-0.7579	25.79	-0.03	-0.750			
0.1367	8749.97	3.9420	3.9419	-0.7640	25.80	-0.02	-0.750			
0.1390	8896.88	3.9390	3.9390	-0.7665	25.80	-0.02	-0.750			
0.1413	9044.21	3.9360	3.9360	-0.7712	25.80	-0.02	-0.750			
0.1436	9193.24	3.9330	3.9330	-0.7696	25.81	-0.01	-0.750			
0.1460	9341.31	3.9300	3.9300	-0.7714	25.81	-0.01	-0.750			
0.1483	9488.78	3.9270	3.9270	-0.7755	25.81	-0.01	-0.750			
0.1506	9638.00	3.9240	3.9239	-0.7768	25.81	-0.01	-0.750			
0.1529	9786.22	3.9210	3.9210	-0.7773	25.82	-0.00	-0.750			
0.1553	9936.66	3.9180	3.9180	-0.7808	25.82	-0.00	-0.750			
0.1576	10086.86	3.9150	3.9151	-0.7838	25.82	0.00	-0.750			
0.1600	10238.31	3.9120	3.9120	-0.7870	25.82	0.00	-0.750			
0.1623	10388.67	3.9090	3.9090	-0.7892	25.83	0.01	-0.750			
0.1647	10540.41	3.9060	3.9060	-0.7922	25.83	0.01	-0.750			
0.1671	10693.56	3.9030	3.9030	-0.7938	25.84	0.02	-0.750			
0.1695	10846.30	3.9000	3.9001	-0.7927	25.84	0.02	-0.750			
0.1719	10999.81	3.8970	3.8970	-0.7913	25.84	0.02	-0.750			
0.1742	11150.17	3.8940	3.8939	-0.7963	25.84	0.02	-0.750			
0.1766	11302.74	3.8910	3.8910	-0.7944	25.85	0.03	-0.750			
0.1790	11455.51	3.8880	3.8879	-0.7929	25.85	0.03	-0.750			
0.1814	11609.56	3.8850	3.8851	-0.7927	25.85	0.03	-0.750			
0.1838	11760.89	3.8820	3.8820	-0.7973	25.85	0.03	-0.750			
0.1861	11912.88	3.8790	3.8790	-0.8023	25.86	0.04	-0.750			
0.1886	12068.11	3.8760	3.8759	-0.7977	25.86	0.04	-0.750			
0.1909	12218.56	3.8730	3.8730	-0.7953	25.86	0.04	-0.750			
0.1934	12375.60	3.8700	3.8701	-0.8006	25.87	0.05	-0.750			
0.1958	12528.45	3.8670	3.8669	-0.8005	25.87	0.05	-0.750			
0.1981	12680.47	3.8640	3.8640	-0.8033	25.88	0.06	-0.750			
0.2005	12833.67	3.8610	3.8610	-0.8009	25.88	0.06	-0.750			
0.2029	12988.10	3.8580	3.8579	-0.7988	25.88	0.06	-0.750			
0.2054	13143.51	3.8550	3.8549	-0.8046	25.89	0.07	-0.750			
0.2078	13297.05	3.8520	3.8522	-0.8034	25.89	0.07	-0.750			
0.2102	13452.21	3.8490	3.8489	-0.8027	25.89	0.07	-0.750			
0.2126	13606.02	3.8460	3.8460	-0.8011	25.90	0.08	-0.750			
0.2150	13759.76	3.8430	3.8430	-0.7966	25.90	0.08	-0.750			
0.2174	13915.47	3.8400	3.8400	-0.7980	25.91	0.09	-0.750			
0.2198	14067.23	3.8370	3.8373	-0.7956	25.91	0.09	-0.750			
0.2222	14218.15	3.8340	3.8339	-0.7886	25.91	0.09	-0.750			
0.2245	14368.70	3.8310	3.8310	-0.7916	25.92	0.10	-0.750			
0.2269	14520.24	3.8280	3.8279	-0.7885	25.92	0.10	-0.750			
0.2293	14673.07	3.8250	3.8251	-0.7979	25.93	0.11	-0.750			
0.2317	14825.92	3.8220	3.8219	-0.7935	25.93	0.11	-0.750			
0.2340	14978.98	3.8190	3.8189	-0.7937	25.93	0.11	-0.750			
0.2364	15130.74	3.8160	3.8160	-0.7910	25.94	0.12	-0.750			
0.2388	15282.33	3.8130	3.8130	-0.7891	25.94	0.12	-0.750			
0.2411	15432.81	3.8100	3.8100	-0.7846	25.94	0.12	-0.750			
0.2435	15585.09	3.8070	3.8070	-0.7826	25.95	0.13	-0.750			
0.2458	15733.39	3.8040	3.8040	-0.7754	25.95	0.13	-0.750			
0.2482	15882.07	3.8010	3.8010	-0.7753	25.96	0.14	-0.750			
0.2505	16030.36	3.7980	3.7980	-0.7688	25.96	0.14	-0.750			
0.2528	16177.23	3.7950	3.7950	-0.7642	25.96	0.14	-0.750			
0.2551	16324.11	3.7920	3.7919	-0.7594	25.97	0.15	-0.750			
0.2573	16469.62	3.7890	3.7893	-0.7559	25.97	0.15	-0.750			
0.2596	16614.49	3.7860	3.7859	-0.7516	25.98	0.16	-0.750			
0.2618	16757.14	3.7830	3.7831	-0.7517	25.98	0.16	-0.750			
0.2641	16902.04	3.7800	3.7800	-0.7474	25.99	0.17	-0.750			
0.2664	17046.56	3.7770	3.7769	-0.7430	25.99	0.17	-0.750			
0.2686	17187.78	3.7740	3.7740	-0.7407	26.00	0.18	-0.750			
0.2708	17329.62	3.7710	3.7710	-0.7396	26.00	0.18	-0.750			
0.2730	17470.19	3.7680	3.7680	-0.7396	26.00	0.18	-0.750			
0.2752	17611.42	3.7650	3.7650	-0.7398	26.00	0.18	-0.750			
0.2774	17753.06	3.7620	3.7620	-0.7429	26.01	0.19	-0.750			
0.2797	17898.13	3.7590	3.7590	-0.7464	26.01	0.19	-0.750			
0.2819	18042.56	3.7560	3.7561	-0.7485	26.01	0.19	-0.750			
0.2841	18184.88	3.7530	3.7530	-0.7477	26.01	0.19	-0.750			
0.2864	18327.52	3.7500	3.7500	-0.7517	26.02	0.20	-0.750			
0.2886	18471.79	3.7470	3.7470	-0.7554	26.02	0.20	-0.750			
0.2909	18616.61	3.7440	3.7440	-0.7615	26.02	0.20	-0.750			
0.2932	18763.24	3.7410	3.7410	-0.7705	26.03	0.21	-0.750			
0.2955	18912.06	3.7380	3.7380	-0.7813	26.03	0.21	-0.750			
0.2978	19061.02	3.7350	3.7350	-0.7970	26.04	0.22	-0.750			
0.3003	19218.02	3.7320	3.7319	-0.8041	26.04	0.22	-0.750			
0.3027	19374.67	3.7290	3.7290	-0.8118	26.04	0.22	-0.750			
0.3052	19532.42	3.7260	3.7259	-0.8203	26.05	0.23	-0.750			
0.3076	19689.45	3.7230	3.7233	-0.8296	26.05	0.23	-0.750			
0.3101	19848.32	3.7200	3.7198	-0.8403	26.05	0.23	-0.750			
0.3126	20007.74	3.7170	3.7170	-0.8530	26.05	0.23	-0.750			
0.3152	20170.94	3.7140	3.7139	-0.8645	26.05	0.23	-0.750			
0.3179	20342.52	3.7110	3.7111	-0.8944	26.05	0.23	-0.750			
0.3206	20517.31	3.7080	3.7080	-0.9120	26.05	0.23	-0.750			
0.3234	20694.76	3.7050	3.7049	-0.9253	26.05	0.23	-0.750			
0.3262	20873.79	3.7020	3.7020	-0.9409	26.05	0.23	-0.750			
0.3290	21055.03	3.6990	3.6990	-0.9533	26.05	0.23	-0.750			
0.3319	21239.19	3.6960	3.6961	-0.9689	26.05	0.23	-0.750			
0.3348	21426.25	3.6930	3.6930	-0.9931	26.05	0.23	-0.750			
0.3378	21617.63	3.6900	3.6899	-1.0112	26.05	0.23	-0.750			
0.3409	21815.81	3.6870	3.6870	-1.0267	26.04	0.22	-0.750			
0.3440	22014.48	3.6840	3.6838	-1.0476	26.04	0.22	-0.750			
0.3472	22218.25	3.6810	3.6810	-1.0727	26.04	0.22	-0.750			
0.3504	22428.01	3.6780	3.6780	-1.0895	26.04	0.22	-0.750			
0.3537	22637.87	3.6750	3.6749	-1.1016	26.03	0.21	-0.750			
0.3570	22849.37	3.6720	3.6722	-1.1374	26.03	0.21	-0.750			
0.3604	23067.78	3.6690	3.6690	-1.1619	26.02	0.20	-0.750			
0.3640	23293.53	3.6660	3.6658	-1.1909	26.02	0.20	-0.750			
0.3676	23523.34	3.6630	3.6629	-1.2145	26.01	0.19	-0.750			
0.3713	23763.32	3.6600	3.6601	-1.2453	26.01	0.19	-0.750			
0.3751	24006.39	3.6570	3.6570	-1.2650	26.00	0.18	-0.750			
0.3789	24251.77	3.6540	3.6540	-1.2828	26.00	0.18	-0.750			
0.3827	24494.55	3.6510	3.6512	-1.2955	25.99	0.17	-0.750			
0.3867	24748.15	3.6480	3.6480	-1.3215	25.99	0.17	-0.750			
0.3907	25005.22	3.6450	3.6449	-1.3376	25.98	0.16	-0.750			
0.3947	25263.66	3.6420	3.6421	-1.3650	25.98	0.16	-0.750			
0.3989	25528.58	3.6390	3.6390	-1.3919	25.98	0.16	-0.750			
0.4031	25796.70	3.6360	3.6360	-1.4133	25.97	0.15	-0.750			
0.4073	26069.61	3.6330	3.6332	-1.4440	25.97	0.15	-0.750			
0.4117	26351.90	3.6300	3.6299	-1.4753	25.96	0.14	-0.750			
0.4162	26638.53	3.6270	3.6269	-1.5082	25.96	0.14	-0.750			
0.4208	26931.94	3.6240	3.6241	-1.5330	25.95	0.13	-0.750			
0.4255	27230.04	3.6210	3.6211	-1.5102	25.94	0.12	-0.750			
0.4298	27510.03	3.6180	3.6183	-1.5500	25.93	0.11	-0.750			
0.4344	27803.78	3.6150	3.6150	-1.5860	25.93	0.11	-0.750	0.400	0.546	
0.4392	28109.11	3.6120	3.6123	-1.6458	25.92	0.10	-0.750			
0.4443	28433.30	3.6090	3.6093	-1.6796	25.91	0.09	-0.750			
0.4495	28767.35	3.6060	3.6062	-1.7395	25.91	0.09	-0.750			
0.4549	29111.88	3.6030	3.6030	-1.7807	25.91	0.09	-0.750			
0.4601	29448.83	3.6000	3.6000	-1.7966	25.91	0.09	-0.750			
0.4656	29799.96	3.5970	3.5969	-1.8292	25.90	0.08	-0.750			
0.4712	30156.90	3.5940	3.5940	-1.8601	25.89	0.07	-0.750			
0.4769	30519.86	3.5910	3.5910	-1.8952	25.89	0.07	-0.750			
0.4827	30890.44	3.5880	3.5881	-1.9303	25.89	0.07	-0.750			
0.4885	31261.25	3.5850	3.5853	-1.9555	25.89	0.07	-0.750			
0.4944	31638.40	3.5820	3.5824	-1.9765	25.89	0.07	-0.750			
0.5003	32017.05	3.5790	3.5790	-2.0179	25.89	0.07	-0.750			
0.5064	32406.52	3.5760	3.5761	-2.0667	25.88	0.06	-0.750			
0.5127	32812.76	3.5730	3.5730	-2.1094	25.88	0.06	-0.750			
0.5192	33226.03	3.5700	3.5699	-2.1440	25.87	0.05	-0.750			
0.5256	33640.72	3.5670	3.5670	-2.1549	25.87	0.05	-0.750			
0.5322	34059.86	3.5640	3.5640	-2.1644	25.88	0.06	-0.750			
0.5387	34477.63	3.5610	3.5610	-2.1785	25.88	0.06	-0.750			
0.5451	34887.64	3.5580	3.5579	-2.1821	25.88	0.06	-0.750			
0.5517	35311.94	3.5550	3.5550	-2.1595	25.89	0.07	-0.750			
0.5583	35734.26	3.5520	3.5521	-2.1613	25.89	0.07	-0.750			
0.5648	36150.02	3.5490	3.5491	-2.1474	25.89	0.07	-0.750			
0.5712	36555.06	3.5460	3.5459	-2.1287	25.89	0.07	-0.750			
0.5775	36962.66	3.5430	3.5429	-2.1106	25.90	0.08	-0.750			
0.5837	37359.58	3.5400	3.5401	-2.0961	25.90	0.08	-0.750			
0.5901	37764.74	3.5370	3.5371	-2.1099	25.91	0.09	-0.750			
0.5965	38172.88	3.5340	3.5339	-2.0632	25.91	0.09	-0.750			
0.6027	38571.76	3.5310	3.5310	-2.0514	25.92	0.10	-0.750			
0.6089	38967.76	3.5280	3.5281	-2.0069	25.93	0.11	-0.750			
0.6148	39349.21	3.5250	3.5248	-1.9624	25.93	0.11	-0.750			
0.6207	39722.53	3.5220	3.5221	-1.9350	25.93	0.11	-0.750			
0.6264	40086.85	3.5190	3.5190	-1.8784	25.94	0.12	-0.750			
0.6319	40443.08	3.5160	3.5163	-1.8399	25.95	0.13	-0.750			
0.6375	40798.56	3.5130	3.5129	-1.8015	25.96	0.14	-0.750			
0.6427	41135.13	3.5100	3.5100	-1.7411	25.97	0.15	-0.750			
0.6480	41471.37	3.5070	3.5069	-1.6899	25.98	0.16	-0.750			
0.6529	41787.93	3.5040	3.5038	-1.6373	25.99	0.17	-0.750			
0.6577	42093.00	3.5010	3.5011	-1.5766	26.00	0.18	-0.750			
0.6625	42397.06	3.4980	3.4978	-1.5405	26.01	0.19	-0.750			
0.6669	42682.04	3.4950	3.4949	-1.4863	26.02	0.20	-0.750			
0.6713	42964.48	3.4920	3.4920	-1.4404	26.04	0.22	-0.750			
0.6756	43235.79	3.4890	3.4889	-1.3993	26.05	0.23	-0.750			
0.6797	43498.55	3.4860	3.4859	-1.3571	26.06	0.24	-0.750			
0.6836	43748.36	3.4830	3.4831	-1.3110	26.08	0.26	-0.750			
0.6876	44003.64	3.4800	3.4799	-1.2830	26.10	0.28	-0.750			
0.6913	44245.00	3.4770	3.4769	-1.2387	26.11	0.29	-0.750			
0.6949	44476.16	3.4740	3.4743	-1.2001	26.13	0.31	-0.750			
0.6985	44706.60	3.4710	3.4710	-1.1661	26.14	0.32	-0.750			
0.7020	44927.17	3.4680	3.4679	-1.1226	26.15	0.33	-0.750			
0.7053	45137.60	3.4650	3.4649	-1.0865	26.16	0.34	-0.750			
0.7084	45340.21	3.4620	3.4621	-1.0494	26.18	0.36	-0.750			
0.7116	45539.37	3.4590	3.4590	-1.0231	26.19	0.37	-0.750			
0.7146	45731.73	3.4560	3.4558	-0.9874	26.20	0.38	-0.750			
0.7175	45917.07	3.4530	3.4531	-0.9533	26.21	0.39	-0.750			
0.7203	46098.82	3.4500	3.4501	-0.9353	26.22	0.40	-0.750			
0.7231	46276.02	3.4470	3.4468	-0.9118	26.23	0.41	-0.750			
0.7257	46446.15	3.4440	3.4440	-0.8940	26.24	0.42	-0.750			
0.7283	46613.35	3.4410	3.4410	-0.8746	26.25	0.43	-0.750			
0.7309	46780.35	3.4380	3.4380	-0.8708	26.27	0.45	-0.750			
0.7335	46946.92	3.4350	3.4351	-0.8660	26.27	0.45	-0.750			
0.7361	47110.56	3.4320	3.4320	-0.8673	26.28	0.46	-0.750			
0.7387	47275.51	3.4290	3.4290	-0.8704	26.29	0.47	-0.750			
0.7413	47441.71	3.4260	3.4260	-0.8805	26.30	0.48	-0.750			
0.7439	47610.62	3.4230	3.4230	-0.8959	26.31	0.49	-0.750			
0.7466	47784.77	3.4200	3.4199	-0.9134	26.32	0.50	-0.750			
0.7494	47962.27	3.4170	3.4170	-0.9196	26.33	0.51	-0.750			
0.7522	48141.61	3.4140	3.4140	-0.9225	26.33	0.51	-0.750			
0.7550	48319.51	3.4110	3.4110	-0.9221	26.34	0.52	-0.750			
0.7578	48498.94	3.4080	3.4081	-0.9184	26.35	0.53	-0.750			
0.7605	48674.01	3.4050	3.4048	-0.9157	26.36	0.54	-0.750			
0.7633	48849.96	3.4020	3.4020	-0.9014	26.36	0.54	-0.750			
0.7660	49023.92	3.3990	3.3989	-0.8838	26.36	0.54	-0.750			
0.7687	49195.69	3.3960	3.3961	-0.8724	26.37	0.55	-0.750			
0.7713	49361.26	3.3930	3.3930	-0.8464	26.38	0.56	-0.750			
0.7738	49520.99	3.3900	3.3899	-0.8199	26.39	0.57	-0.750			
0.7762	49675.68	3.3870	3.3869	-0.7900	26.40	0.58	-0.750			
0.7785	49821.97	3.3840	3.3840	-0.7558	26.41	0.59	-0.750			
0.7807	49967.80	3.3810	3.3810	-0.7352	26.41	0.59	-0.750			
0.7829	50104.36	3.3780	3.3781	-0.7061	26.42	0.60	-0.750			
0.7849	50236.21	3.3750	3.3750	-0.6799	26.43	0.61	-0.750			
0.7869	50363.82	3.3720	3.3719	-0.6602	26.43	0.61	-0.750			
0.7889	50488.52	3.3690	3.3690	-0.6390	26.44	0.62	-0.750			
0.7908	50610.28	3.3660	3.3660	-0.6207	26.44	0.62	-0.750			
0.7926	50728.62	3.3630	3.3629	-0.6015	26.45	0.63	-0.750			
0.7944	50842.19	3.3600	3.3602	-0.5769	26.45	0.63	-0.750			
0.7961	50949.82	3.3570	3.3569	-0.5550	26.46	0.64	-0.750			
0.7977	51053.98	3.3540	3.3540	-0.5360	26.46	0.64	-0.750			
0.7993	51152.87	3.3510	3.3510	-0.5166	26.47	0.65	-0.750			
0.8008	51250.87	3.3480	3.3480	-0.5026	26.47	0.65	-0.750			
0.8023	51346.79	3.3450	3.3450	-0.4886	26.48	0.66	-0.750			
0.8037	51439.42	3.3420	3.3421	-0.4741	26.49	0.67	-0.750			
0.8052	51530.47	3.3390	3.3389	-0.4586	26.49	0.67	-0.750			
0.8065	51616.27	3.3360	3.3360	-0.4416	26.50	0.68	-0.750			
0.8078	51698.72	3.3330	3.3330	-0.4256	26.50	0.68	-0.750			
0.8090	51778.39	3.3300	3.3300	-0.4116	26.51	0.69	-0.750			
0.8102	51855.38	3.3270	3.3270	-0.3993	26.51	0.69	-0.750			
0.8114	51930.39	3.3240	3.3240	-0.3876	26.52	0.70	-0.750			
0.8126	52004.83	3.3210	3.3208	-0.3774	26.52	0.70	-0.750			
0.8137	52076.41	3.3180	3.3181	-0.3685	26.53	0.71	-0.750			
0.8148	52145.82	3.3150	3.3151	-0.3578	26.53	0.71	-0.750			
0.8158	52213.28	3.3120	3.3119	-0.3483	26.53	0.71	-0.750			
0.8169	52279.25	3.3090	3.3090	-0.3402	26.54	0.72	-0.750			
0.8179	52343.23	3.3060	3.3060	-0.3297	26.54	0.72	-0.750			
0.8188	52405.95	3.3030	3.3030	-0.3219	26.55	0.73	-0.750			
0.8198	52467.32	3.3000	3.3001	-0.3143	26.55	0.73	-0.750			
0.8207	52526.09	3.2970	3.2971	-0.3055	26.56	0.74	-0.750			
0.8216	52583.95	3.2940	3.2939	-0.2979	26.56	0.74	-0.750			
0.8225	52640.06	3.2910	3.2910	-0.2922	26.57	0.75	-0.750			
0.8234	52695.00	3.2880	3.2880	-0.2867	26.57	0.75	-0.750			
0.8242	52749.98	3.2850	3.2850	-0.2826	26.58	0.76	-0.750			
0.8251	52804.14	3.2820	3.2819	-0.2773	26.58	0.76	-0.750			
0.8259	52857.23	3.2790	3.2790	-0.2715	26.59	0.77	-0.750			
0.8267	52908.72	3.2760	3.2760	-0.2659	26.59	0.77	-0.750			
0.8275	52959.46	3.2730	3.2730	-0.2600	26.59	0.77	-0.750			
0.8282	53007.85	3.2700	3.2701	-0.2528	26.60	0.78	-0.750			
0.8290	53055.56	3.2670	3.2669	-0.2484	26.60	0.78	-0.750			
0.8297	53102.72	3.2640	3.2641	-0.2443	26.61	0.79	-0.750			
0.8305	53149.05	3.2610	3.2610	-0.2412	26.61	0.79	-0.750			
0.8312	53195.19	3.2580	3.2581	-0.2376	26.61	0.79	-0.750			
0.8319	53240.72	3.2550	3.2549	-0.2347	26.62	0.80	-0.750			
0.8326	53285.35	3.2520	3.2520	-0.2305	26.62	0.80	-0.750			
0.8333	53329.54	3.2490	3.2491	-0.2278	26.63	0.81	-0.750			
0.8339	53372.66	3.2460	3.2460	-0.2237	26.64	0.82	-0.750			
0.8346	53415.10	3.2430	3.2429	-0.2198	26.64	0.82	-0.750			
0.8353	53456.83	3.2400	3.2400	-0.2179	26.65	0.83	-0.750			
0.8359	53498.48	3.2370	3.2370	-0.2138	26.65	0.83	-0.750			
0.8366	53539.34	3.2340	3.2339	-0.2116	26.66	0.84	-0.750			
0.8372	53579.67	3.2310	3.2310	-0.2085	26.67	0.85	-0.750			
0.8378	53619.56	3.2280	3.2281	-0.2050	26.67	0.85	-0.750			
0.8384	53658.58	3.2250	3.2249	-0.2014	26.68	0.86	-0.750			
0.8390	53696.57	3.2220	3.2220	-0.1988	26.68	0.86	-0.750			
0.8396	53734.48	3.2190	3.2191	-0.1962	26.69	0.87	-0.750			
0.8402	53771.37	3.2160	3.2159	-0.1940	26.69	0.87	-0.750			
0.8408	53808.64	3.2130	3.2129	-0.1929	26.70	0.88	-0.750			
0.8413	53845.35	3.2100	3.2099	-0.1901	26.70	0.88	-0.750			
0.8419	53881.96	3.2070	3.2071	-0.1881	26.71	0.89	-0.750			
0.8425	53918.26	3.2040	3.2040	-0.1865	26.71	0.89	-0.750			
0.8430	53954.08	3.2010	3.2010	-0.1843	26.72	0.90	-0.750			
0.8436	53988.86	3.1980	3.1980	-0.1812	26.72	0.90	-0.750			
0.8441	54023.25	3.1950	3.1950	-0.1794	26.72	0.90	-0.750			
0.8446	54057.32	3.1920	3.1920	-0.1773	26.72	0.90	-0.750			
0.8452	54090.98	3.1890	3.1890	-0.1755	26.73	0.91	-0.750			
0.8457	54124.90	3.1860	3.1860	-0.1737	26.73	0.91	-0.750			
0.8462	54158.04	3.1830	3.1830	-0.1716	26.74	0.92	-0.750			
0.8467	54190.90	3.1800	3.1800	-0.1700	26.75	0.93	-0.750			
0.8472	54223.39	3.1770	3.1770	-0.1682	26.75	0.93	-0.750			
0.8477	54255.28	3.1740	3.1739	-0.1665	26.76	0.94	-0.750			
0.8482	54286.84	3.1710	3.1710	-0.1646	26.76	0.94	-0.750			
0.8487	54318.47	3.1680	3.1680	-0.1631	26.77	0.95	-0.750			
0.8492	54349.66	3.1650	3.1650	-0.1617	26.78	0.96	-0.750			
0.8497	54380.87	3.1620	3.1620	-0.1605	26.78	0.96	-0.750			
0.8502	54411.49	3.1590	3.1590	-0.1584	26.79	0.97	-0.750			
0.8506	54441.49	3.1560	3.1560	-0.1573	26.79	0.97	-0.750			
0.8511	54471.47	3.1530	3.1530	-0.1561	26.80	0.98	-0.750			
0.8516	54501.12	3.1500	3.1500	-0.1547	26.81	0.99	-0.750			
0.8520	54530.97	3.1470	3.1470	-0.1527	26.81	0.99	-0.750			
0.8525	54560.26	3.1440	3.1440	-0.1517	26.82	1.00	-0.750			
0.8530	54589.23	3.1410	3.1411	-0.1502	26.82	1.00	-0.750			
0.8534	54618.03	3.1380	3.1380	-0.1489	26.83	1.01	-0.750			
0.8539	54646.49	3.1350	3.1348	-0.1467	26.83	1.01	-0.750			
0.8543	54674.17	3.1320	3.1320	-0.1450	26.83	1.01	-0.750			
0.8547	54701.81	3.1290	3.1291	-0.1437	26.84	1.02	-0.750			
0.8551	54729.21	3.1260	3.1260	-0.1432	26.84	1.02	-0.750			
0.8556	54756.61	3.1230	3.1229	-0.1434	26.85	1.03	-0.750			
0.8560	54783.99	3.1200	3.1200	-0.1419	26.85	1.03	-0.750			
0.8564	54811.61	3.1170	3.1169	-0.1412	26.85	1.03	-0.750			
0.8569	54838.59	3.1140	3.1141	-0.1399	26.86	1.04	-0.750			
0.8573	54865.66	3.1110	3.1110	-0.1392	26.86	1.04	-0.750			
0.8577	54892.14	3.1080	3.1080	-0.1376	26.87	1.05	-0.750			
0.8581	54918.40	3.1050	3.1049	-0.1358	26.87	1.05	-0.750			
0.8585	54944.18	3.1020	3.1020	-0.1341	26.88	1.06	-0.750			
0.8589	54969.40	3.0990	3.0991	-0.1333	26.89	1.07	-0.750			
0.8593	54995.24	3.0960	3.0959	-0.1325	26.89	1.07	-0.750			
0.8597	55020.66	3.0930	3.0929	-0.1316	26.90	1.08	-0.750			
0.8601	55045.79	3.0900	3.0900	-0.1302	26.90	1.08	-0.750			
0.8605	55070.48	3.0870	3.0871	-0.1291	26.91	1.09	-0.750			
0.8609	55095.12	3.0840	3.0840	-0.1287	26.91	1.09	-0.750			
0.8612	55119.76	3.0810	3.0810	-0.1280	26.92	1.10	-0.750			
0.8616	55144.39	3.0780	3.0779	-0.1268	26.93	1.11	-0.750			
0.8620	55168.39	3.0750	3.0750	-0.1257	26.93	1.11	-0.750			
0.8624	55192.64	3.0720	3.0721	-0.1260	26.94	1.12	-0.750			
0.8628	55216.89	3.0690	3.0690	-0.1250	26.94	1.12	-0.750			
0.8631	55240.66	3.0660	3.0660	-0.1242	26.95	1.13	-0.750			
0.8635	55264.37	3.0630	3.0629	-0.1234	26.95	1.13	-0.750			
0.8639	55288.04	3.0600	3.0600	-0.1225	26.96	1.14	-0.750			
0.8642	55311.42	3.0570	3.0570	-0.1217	26.96	1.14	-0.750			
0.8646	55335.04	3.0540	3.0540	-0.1212	26.97	1.15	-0.750			
0.8650	55358.18	3.0510	3.0509	-0.1198	26.97	1.15	-0.750			
0.8653	55380.70	3.0480	3.0481	-0.1188	26.98	1.16	-0.750			
0.8657	55403.60	3.0450	3.0449	-0.1184	26.98	1.16	-0.750			
0.8660	55426.25	3.0420	3.0420	-0.1176	26.99	1.17	-0.750			
0.8664	55448.54	3.0390	3.0388	-0.1165	26.99	1.17	-0.750			
0.8667	55470.85	3.0360	3.0361	-0.1159	27.00	1.18	-0.750			
0.8671	55493.06	3.0330	3.0331	-0.1154	27.00	1.18	-0.750			
0.8674	55515.23	3.0300	3.0299	-0.1146	27.01	1.19	-0.750			
0.8678	55537.34	3.0270	3.0270	-0.1141	27.01	1.19	-0.750			
0.8681	55559.07	3.0240	3.0240	-0.1133	27.02	1.20	-0.750			
0.8684	55580.59	3.0210	3.0211	-0.1123	27.02	1.20	-0.750			
0.8688	55602.06	3.0180	3.0180	-0.1119	27.03	1.21	-0.750			
0.8691	55623.52	3.0150	3.0149	-0.1114	27.03	1.21	-0.750			
0.8695	55644.86	3.0120	3.0121	-0.1109	27.04	1.22	-0.750			
0.8698	55665.94	3.0090	3.0090	-0.1106	27.04	1.22	-0.751			
0.8701	55687.16	3.0060	3.0060	-0.1104	27.05	1.23	-0.751			
0.8704	55708.35	3.0030	3.0031	-0.1098	27.05	1.23	-0.751			
