Ah_balance (normalized)	Ah_balance (mAh)	Voltage - fit (V)	Voltage -  interpolate (V)	dQ/dV (1/V)	Temperature (°C)	Temperature - diff (°C)	Current (C)	R_DC 0ms (mOhm)	R_DC 50ms (mOhm)	R_DC 50 ms PEC (mOhm)
0.0004	26.69	4.1620	4.1617	-0.1365	25.82	0.00	-0.750			
0.0009	58.48	4.1590	4.1589	-0.1827	25.82	0.00	-0.750			
0.0015	98.15	4.1560	4.1559	-0.2216	25.82	0.00	-0.750			
0.0023	144.39	4.1530	4.1532	-0.2601	25.82	0.00	-0.750			
0.0031	198.09	4.1500	4.1500	-0.2977	25.82	-0.00	-0.750			
0.0041	259.68	4.1470	4.1469	-0.3342	25.82	-0.00	-0.750			
0.0051	327.42	4.1440	4.1440	-0.3679	25.81	-0.01	-0.750			
0.0063	401.49	4.1410	4.1410	-0.4008	25.81	-0.01	-0.750			
0.0075	482.38	4.1380	4.1380	-0.4325	25.81	-0.01	-0.750			
0.0089	568.84	4.1350	4.1349	-0.4619	25.80	-0.02	-0.750			
0.0103	660.80	4.1320	4.1320	-0.4871	25.80	-0.02	-0.750			
0.0118	757.19	4.1290	4.1290	-0.5109	25.80	-0.02	-0.750			
0.0134	858.89	4.1260	4.1260	-0.5323	25.79	-0.03	-0.750			
0.0151	963.42	4.1230	4.1230	-0.5494	25.79	-0.03	-0.750			
0.0167	1070.72	4.1200	4.1200	-0.5668	25.79	-0.03	-0.750			
0.0185	1180.93	4.1170	4.1171	-0.5831	25.78	-0.04	-0.750			
0.0202	1294.06	4.1140	4.1140	-0.5993	25.78	-0.04	-0.750			
0.0221	1411.67	4.1110	4.1110	-0.6121	25.78	-0.04	-0.750			
0.0239	1530.99	4.1080	4.1080	-0.6191	25.78	-0.04	-0.750			
0.0258	1651.67	4.1050	4.1050	-0.6313	25.77	-0.05	-0.750			
0.0277	1773.67	4.1020	4.1022	-0.6377	25.77	-0.05	-0.750			
0.0296	1896.29	4.0990	4.0989	-0.6427	25.77	-0.05	-0.750			
0.0316	2019.95	4.0960	4.0960	-0.6494	25.76	-0.06	-0.750			
0.0335	2145.29	4.0930	4.0931	-0.6585	25.76	-0.06	-0.750			
0.0355	2274.36	4.0900	4.0899	-0.6656	25.76	-0.06	-0.750			
0.0375	2402.92	4.0870	4.0869	-0.6679	25.75	-0.07	-0.750			
0.0395	2530.54	4.0840	4.0842	-0.6710	25.75	-0.07	-0.750			
0.0416	2661.04	4.0810	4.0809	-0.6723	25.75	-0.07	-0.750			
0.0436	2790.12	4.0780	4.0779	-0.6763	25.74	-0.08	-0.750			
0.0456	2918.92	4.0750	4.0750	-0.6842	25.74	-0.08	-0.750			
0.0476	3049.26	4.0720	4.0721	-0.6900	25.73	-0.09	-0.750			
0.0498	3185.21	4.0690	4.0688	-0.6963	25.73	-0.09	-0.750			
0.0519	3319.54	4.0660	4.0661	-0.6990	25.72	-0.10	-0.750			
0.0540	3454.73	4.0630	4.0630	-0.7000	25.72	-0.10	-0.750			
0.0561	3589.82	4.0600	4.0600	-0.7021	25.72	-0.10	-0.750			
0.0582	3723.49	4.0570	4.0570	-0.7047	25.72	-0.10	-0.750			
0.0603	3858.40	4.0540	4.0540	-0.7094	25.72	-0.10	-0.750			
0.0624	3995.56	4.0510	4.0509	-0.7156	25.72	-0.10	-0.750			
0.0646	4134.40	4.0480	4.0481	-0.7211	25.72	-0.10	-0.750			
0.0668	4273.64	4.0450	4.0450	-0.7245	25.72	-0.10	-0.750			
0.0690	4413.81	4.0420	4.0421	-0.7245	25.72	-0.10	-0.750			
0.0711	4552.88	4.0390	4.0390	-0.7265	25.72	-0.10	-0.750			
0.0733	4692.70	4.0360	4.0360	-0.7239	25.72	-0.10	-0.750			
0.0755	4832.39	4.0330	4.0330	-0.7252	25.72	-0.10	-0.750			
0.0777	4971.17	4.0300	4.0301	-0.7254	25.72	-0.10	-0.750			
0.0799	5110.93	4.0270	4.0271	-0.7254	25.72	-0.10	-0.750			
0.0820	5249.67	4.0240	4.0239	-0.7251	25.72	-0.10	-0.750			
0.0842	5388.05	4.0210	4.0210	-0.7268	25.73	-0.09	-0.750			
0.0864	5527.96	4.0180	4.0180	-0.7290	25.73	-0.09	-0.750			
0.0886	5668.03	4.0150	4.0149	-0.7311	25.73	-0.09	-0.750			
0.0908	5808.40	4.0120	4.0121	-0.7341	25.73	-0.09	-0.750			
0.0930	5949.69	4.0090	4.0090	-0.7396	25.74	-0.08	-0.750			
0.0952	6092.25	4.0060	4.0060	-0.7474	25.74	-0.08	-0.750			
0.0974	6236.74	4.0030	4.0029	-0.7480	25.74	-0.08	-0.750			
0.0997	6382.18	4.0000	4.0000	-0.7476	25.75	-0.07	-0.750			
0.1020	6526.71	3.9970	3.9971	-0.7504	25.75	-0.07	-0.750			
0.1042	6669.66	3.9940	3.9940	-0.7512	25.75	-0.07	-0.750			
0.1065	6812.90	3.9910	3.9909	-0.7490	25.75	-0.07	-0.750			
0.1087	6956.74	3.9880	3.9880	-0.7535	25.75	-0.07	-0.750			
0.1110	7101.41	3.9850	3.9850	-0.7552	25.75	-0.07	-0.750			
0.1133	7249.80	3.9820	3.9820	-0.7596	25.75	-0.07	-0.750			
0.1156	7395.62	3.9790	3.9790	-0.7580	25.75	-0.07	-0.750			
0.1178	7541.10	3.9760	3.9760	-0.7535	25.75	-0.07	-0.750			
0.1201	7684.33	3.9730	3.9730	-0.7577	25.76	-0.06	-0.750			
0.1223	7826.51	3.9700	3.9700	-0.7603	25.76	-0.06	-0.750			
0.1246	7976.16	3.9670	3.9670	-0.7667	25.77	-0.05	-0.750			
0.1269	8123.19	3.9640	3.9639	-0.7728	25.77	-0.05	-0.750			
0.1293	8272.50	3.9610	3.9611	-0.7778	25.77	-0.05	-0.750			
0.1316	8421.42	3.9580	3.9580	-0.7889	25.77	-0.05	-0.750			
0.1340	8575.89	3.9550	3.9549	-0.7864	25.77	-0.05	-0.750			
0.1363	8726.05	3.9520	3.9520	-0.7817	25.77	-0.05	-0.750			
0.1387	8877.98	3.9490	3.9491	-0.7795	25.77	-0.05	-0.750			
0.1411	9028.52	3.9460	3.9459	-0.7792	25.77	-0.05	-0.750			
0.1434	9174.55	3.9430	3.9430	-0.7795	25.78	-0.04	-0.750			
0.1457	9323.83	3.9400	3.9400	-0.7822	25.78	-0.04	-0.750			
0.1480	9472.26	3.9370	3.9370	-0.7809	25.78	-0.04	-0.750			
0.1504	9625.89	3.9340	3.9339	-0.7904	25.79	-0.03	-0.750			
0.1528	9777.73	3.9310	3.9313	-0.7950	25.79	-0.03	-0.750			
0.1552	9931.41	3.9280	3.9280	-0.7970	25.79	-0.03	-0.750			
0.1576	10084.11	3.9250	3.9250	-0.8018	25.79	-0.03	-0.750			
0.1600	10239.49	3.9220	3.9219	-0.8007	25.80	-0.02	-0.750			
0.1624	10394.43	3.9190	3.9190	-0.8020	25.80	-0.02	-0.750			
0.1648	10547.82	3.9160	3.9162	-0.8044	25.80	-0.02	-0.750			
0.1672	10702.44	3.9130	3.9130	-0.8034	25.80	-0.02	-0.750			
0.1696	10855.81	3.9100	3.9099	-0.8085	25.80	-0.02	-0.750			
0.1721	11011.20	3.9070	3.9069	-0.8075	25.81	-0.01	-0.750			
0.1745	11167.04	3.9040	3.9040	-0.8087	25.81	-0.01	-0.750			
0.1769	11322.57	3.9010	3.9012	-0.8114	25.81	-0.01	-0.750			
0.1794	11478.78	3.8980	3.8979	-0.8118	25.81	-0.01	-0.750			
0.1818	11633.37	3.8950	3.8949	-0.8131	25.81	-0.01	-0.750			
0.1842	11789.82	3.8920	3.8920	-0.8123	25.82	-0.00	-0.750			
0.1866	11945.34	3.8890	3.8890	-0.8121	25.82	-0.00	-0.750			
0.1891	12104.19	3.8860	3.8861	-0.8198	25.82	-0.00	-0.750			
0.1916	12260.65	3.8830	3.8830	-0.8200	25.82	0.00	-0.750			
0.1940	12416.71	3.8800	3.8800	-0.8205	25.83	0.01	-0.750			
0.1965	12575.39	3.8770	3.8770	-0.8192	25.83	0.01	-0.750			
0.1989	12732.36	3.8740	3.8740	-0.8156	25.83	0.01	-0.750			
0.2014	12890.52	3.8710	3.8711	-0.8219	25.84	0.02	-0.750			
0.2039	13047.49	3.8680	3.8679	-0.8193	25.84	0.02	-0.750			
0.2063	13202.92	3.8650	3.8650	-0.8231	25.85	0.03	-0.750			
0.2088	13361.87	3.8620	3.8620	-0.8265	25.85	0.03	-0.750			
0.2113	13521.41	3.8590	3.8590	-0.8279	25.85	0.03	-0.750			
0.2138	13681.76	3.8560	3.8560	-0.8295	25.86	0.04	-0.750			
0.2163	13841.73	3.8530	3.8530	-0.8281	25.86	0.04	-0.750			
0.2187	13998.72	3.8500	3.8500	-0.8313	25.86	0.04	-0.750			
0.2212	14159.30	3.8470	3.8469	-0.8287	25.87	0.05	-0.750			
0.2237	14317.17	3.8440	3.8440	-0.8261	25.87	0.05	-0.750			
0.2262	14477.38	3.8410	3.8410	-0.8255	25.87	0.05	-0.750			
0.2287	14636.72	3.8380	3.8380	-0.8238	25.87	0.05	-0.750			
0.2311	14793.24	3.8350	3.8350	-0.8255	25.87	0.05	-0.750			
0.2336	14950.30	3.8320	3.8319	-0.8244	25.88	0.06	-0.750			
0.2361	15107.38	3.8290	3.8290	-0.8245	25.88	0.06	-0.750			
0.2386	15268.00	3.8260	3.8260	-0.8293	25.88	0.06	-0.750			
0.2411	15428.66	3.8230	3.8230	-0.8258	25.88	0.06	-0.750			
0.2435	15586.91	3.8200	3.8200	-0.8284	25.88	0.06	-0.750			
0.2460	15745.41	3.8170	3.8170	-0.8256	25.88	0.06	-0.750			
0.2485	15902.50	3.8140	3.8140	-0.8214	25.89	0.07	-0.750			
0.2510	16062.02	3.8110	3.8109	-0.8188	25.89	0.07	-0.750			
0.2534	16218.87	3.8080	3.8080	-0.8160	25.89	0.07	-0.750			
0.2558	16374.26	3.8050	3.8050	-0.8190	25.90	0.08	-0.750			
0.2583	16533.64	3.8020	3.8020	-0.8154	25.90	0.08	-0.750			
0.2607	16687.54	3.7990	3.7989	-0.8076	25.90	0.08	-0.750			
0.2632	16843.31	3.7960	3.7961	-0.8094	25.91	0.09	-0.750			
0.2656	16998.47	3.7930	3.7931	-0.8084	25.91	0.09	-0.750			
0.2680	17153.02	3.7900	3.7899	-0.8101	25.91	0.09	-0.750			
0.2704	17307.48	3.7870	3.7870	-0.8065	25.91	0.09	-0.750			
0.2729	17463.58	3.7840	3.7840	-0.8023	25.92	0.10	-0.750			
0.2753	17619.41	3.7810	3.7810	-0.8007	25.92	0.10	-0.750			
0.2777	17771.37	3.7780	3.7782	-0.7972	25.92	0.10	-0.750			
0.2801	17923.47	3.7750	3.7750	-0.7953	25.92	0.10	-0.750			
0.2824	18075.05	3.7720	3.7719	-0.7901	25.92	0.10	-0.750			
0.2848	18226.46	3.7690	3.7689	-0.7882	25.93	0.11	-0.750			
0.2872	18378.91	3.7660	3.7661	-0.7866	25.93	0.11	-0.750			
0.2895	18530.22	3.7630	3.7629	-0.7840	25.93	0.11	-0.750			
0.2919	18679.94	3.7600	3.7600	-0.7826	25.93	0.11	-0.750			
0.2942	18828.54	3.7570	3.7569	-0.7830	25.93	0.11	-0.750			
0.2965	18977.87	3.7540	3.7540	-0.7813	25.94	0.12	-0.750			
0.2989	19128.85	3.7510	3.7511	-0.7834	25.94	0.12	-0.750			
0.3012	19279.07	3.7480	3.7480	-0.7872	25.94	0.12	-0.750			
0.3036	19430.83	3.7450	3.7449	-0.7891	25.94	0.12	-0.750			
0.3059	19580.52	3.7420	3.7420	-0.7969	25.95	0.13	-0.750			
0.3083	19733.89	3.7390	3.7389	-0.8036	25.95	0.13	-0.750			
0.3108	19888.87	3.7360	3.7360	-0.8118	25.95	0.13	-0.750			
0.3132	20046.95	3.7330	3.7331	-0.8221	25.96	0.14	-0.750			
0.3157	20205.67	3.7300	3.7300	-0.8322	25.96	0.14	-0.750			
0.3182	20365.21	3.7270	3.7270	-0.8461	25.96	0.14	-0.750			
0.3208	20528.94	3.7240	3.7239	-0.8533	25.96	0.14	-0.750			
0.3233	20693.15	3.7210	3.7210	-0.8626	25.97	0.15	-0.750			
0.3259	20860.24	3.7180	3.7180	-0.8755	25.97	0.15	-0.750			
0.3286	21029.08	3.7150	3.7149	-0.8890	25.97	0.15	-0.750			
0.3313	21200.37	3.7120	3.7120	-0.9072	25.96	0.14	-0.750			
0.3340	21374.68	3.7090	3.7090	-0.9196	25.96	0.14	-0.750			
0.3368	21553.64	3.7060	3.7060	-0.9312	25.95	0.13	-0.750			
0.3396	21736.23	3.7030	3.7032	-0.9510	25.95	0.13	-0.750			
0.3425	21919.14	3.7000	3.7000	-0.9700	25.95	0.13	-0.750			
0.3454	22106.23	3.6970	3.6969	-0.9874	25.95	0.13	-0.750			
0.3484	22295.41	3.6940	3.6940	-1.0055	25.95	0.13	-0.750			
0.3514	22490.76	3.6910	3.6910	-1.0261	25.95	0.13	-0.750			
0.3546	22692.00	3.6880	3.6880	-1.0562	25.95	0.13	-0.750			
0.3578	22897.64	3.6850	3.6850	-1.0771	25.95	0.13	-0.750			
0.3610	23106.67	3.6820	3.6820	-1.0912	25.94	0.12	-0.750			
0.3643	23317.41	3.6790	3.6792	-1.1114	25.94	0.12	-0.750			
0.3677	23534.08	3.6760	3.6760	-1.1371	25.93	0.11	-0.750			
0.3712	23754.29	3.6730	3.6729	-1.1572	25.92	0.10	-0.750			
0.3747	23978.18	3.6700	3.6699	-1.1776	25.92	0.10	-0.750			
0.3782	24204.86	3.6670	3.6672	-1.2006	25.91	0.09	-0.750			
0.3819	24439.96	3.6640	3.6640	-1.2295	25.90	0.08	-0.750			
0.3856	24677.53	3.6610	3.6610	-1.2580	25.90	0.08	-0.750			
0.3893	24917.15	3.6580	3.6580	-1.2845	25.89	0.07	-0.750			
0.3933	25173.23	3.6550	3.6549	-1.3178	25.88	0.06	-0.750			
0.3973	25429.54	3.6520	3.6519	-1.3451	25.88	0.06	-0.750			
0.4014	25689.56	3.6490	3.6492	-1.3762	25.87	0.05	-0.750			
0.4056	25955.68	3.6460	3.6459	-1.4048	25.86	0.04	-0.750			
0.4098	26225.15	3.6430	3.6430	-1.4418	25.85	0.03	-0.750			
0.4142	26506.09	3.6400	3.6401	-1.4704	25.83	0.01	-0.750			
0.4186	26791.42	3.6370	3.6370	-1.4955	25.82	0.00	-0.750			
0.4232	27085.96	3.6340	3.6338	-1.5419	25.82	-0.00	-0.750			
0.4278	27382.37	3.6310	3.6310	-1.5672	25.81	-0.01	-0.750			
0.4326	27686.19	3.6280	3.6280	-1.5890	25.80	-0.02	-0.750			
0.4375	27998.05	3.6250	3.6249	-1.6158	25.79	-0.03	-0.750			
0.4422	28303.21	3.6220	3.6220	-1.6494	25.79	-0.03	-0.750			
0.4473	28630.26	3.6190	3.6190	-1.6816	25.78	-0.04	-0.750	0.395	0.517	
0.4524	28956.32	3.6160	3.6161	-1.7049	25.77	-0.05	-0.750			
0.4576	29283.57	3.6130	3.6129	-1.7377	25.76	-0.06	-0.750			
0.4628	29621.30	3.6100	3.6099	-1.7654	25.75	-0.07	-0.750			
0.4681	29961.19	3.6070	3.6072	-1.8131	25.74	-0.08	-0.750			
0.4737	30313.64	3.6040	3.6042	-1.8527	25.73	-0.09	-0.750			
0.4791	30664.85	3.6010	3.6009	-1.8926	25.72	-0.10	-0.750			
0.4851	31043.44	3.5980	3.5979	-1.9318	25.71	-0.11	-0.750			
0.4910	31423.11	3.5950	3.5951	-1.9803	25.70	-0.12	-0.750			
0.4970	31809.58	3.5920	3.5921	-2.0160	25.69	-0.13	-0.750			
0.5031	32198.48	3.5890	3.5890	-2.0400	25.68	-0.14	-0.750			
0.5092	32587.60	3.5860	3.5858	-2.0673	25.67	-0.15	-0.750			
0.5154	32987.72	3.5830	3.5830	-2.1000	25.67	-0.15	-0.750			
0.5217	33391.14	3.5800	3.5799	-2.1352	25.66	-0.16	-0.750			
0.5282	33805.10	3.5770	3.5771	-2.1678	25.66	-0.16	-0.750			
0.5349	34231.72	3.5740	3.5740	-2.1656	25.65	-0.17	-0.750			
0.5414	34651.11	3.5710	3.5710	-2.1952	25.64	-0.18	-0.750			
0.5480	35069.21	3.5680	3.5680	-2.1959	25.64	-0.18	-0.750			
0.5546	35494.50	3.5650	3.5646	-2.2194	25.64	-0.18	-0.750			
0.5613	35922.51	3.5620	3.5622	-2.2267	25.63	-0.19	-0.750			
0.5680	36349.48	3.5590	3.5590	-2.2271	25.63	-0.19	-0.750			
0.5747	36780.18	3.5560	3.5561	-2.2447	25.62	-0.20	-0.750			
0.5815	37215.32	3.5530	3.5530	-2.2370	25.62	-0.20	-0.750			
0.5882	37645.14	3.5500	3.5500	-2.2475	25.62	-0.20	-0.750			
0.5950	38079.52	3.5470	3.5470	-2.2369	25.62	-0.20	-0.750			
0.6018	38512.28	3.5440	3.5440	-2.2105	25.62	-0.20	-0.750			
0.6084	38938.64	3.5410	3.5411	-2.1693	25.62	-0.20	-0.750			
0.6149	39353.80	3.5380	3.5381	-2.1304	25.62	-0.20	-0.750			
0.6212	39756.32	3.5350	3.5351	-2.0954	25.62	-0.20	-0.750			
0.6274	40153.13	3.5320	3.5320	-2.0664	25.62	-0.20	-0.750			
0.6335	40544.79	3.5290	3.5294	-2.0347	25.63	-0.19	-0.750			
0.6397	40939.63	3.5260	3.5258	-2.0106	25.64	-0.18	-0.750			
0.6457	41324.26	3.5230	3.5233	-1.9888	25.65	-0.17	-0.750			
0.6516	41704.99	3.5200	3.5201	-1.9382	25.66	-0.16	-0.750			
0.6574	42076.16	3.5170	3.5170	-1.9049	25.67	-0.15	-0.750			
0.6630	42429.65	3.5140	3.5139	-1.8324	25.68	-0.14	-0.750			
0.6684	42779.62	3.5110	3.5111	-1.8019	25.69	-0.13	-0.750			
0.6737	43119.20	3.5080	3.5081	-1.7385	25.70	-0.12	-0.750			
0.6789	43452.25	3.5050	3.5051	-1.6830	25.72	-0.10	-0.750			
0.6839	43770.48	3.5020	3.5019	-1.6219	25.73	-0.09	-0.750			
0.6887	44078.07	3.4990	3.4988	-1.5768	25.75	-0.07	-0.750			
0.6933	44373.47	3.4960	3.4960	-1.5130	25.77	-0.05	-0.750			
0.6978	44657.23	3.4930	3.4929	-1.4578	25.79	-0.03	-0.750			
0.7020	44930.97	3.4900	3.4901	-1.4079	25.81	-0.01	-0.750			
0.7062	45197.41	3.4870	3.4870	-1.3584	25.82	0.00	-0.750			
0.7103	45456.74	3.4840	3.4839	-1.3191	25.84	0.02	-0.750			
0.7141	45703.37	3.4810	3.4812	-1.2741	25.85	0.03	-0.750			
0.7179	45944.50	3.4780	3.4778	-1.2358	25.86	0.04	-0.750			
0.7215	46178.30	3.4750	3.4750	-1.1958	25.87	0.05	-0.750			
0.7250	46402.02	3.4720	3.4719	-1.1573	25.88	0.06	-0.750			
0.7284	46617.25	3.4690	3.4691	-1.1232	25.90	0.08	-0.750			
0.7318	46833.65	3.4660	3.4659	-1.0882	25.91	0.09	-0.750			
0.7350	47038.24	3.4630	3.4630	-1.0511	25.93	0.11	-0.750			
0.7381	47237.37	3.4600	3.4600	-1.0128	25.94	0.12	-0.750			
0.7411	47429.98	3.4570	3.4570	-0.9807	25.96	0.14	-0.750			
0.7439	47611.93	3.4540	3.4539	-0.9504	25.97	0.15	-0.750			
0.7467	47790.20	3.4510	3.4510	-0.9204	25.98	0.16	-0.750			
0.7494	47960.78	3.4480	3.4479	-0.9028	26.00	0.18	-0.750			
0.7521	48134.29	3.4450	3.4452	-0.8926	26.01	0.19	-0.750			
0.7547	48302.17	3.4420	3.4419	-0.8877	26.02	0.20	-0.750			
0.7574	48471.68	3.4390	3.4391	-0.8904	26.03	0.21	-0.750			
0.7600	48639.78	3.4360	3.4360	-0.8963	26.03	0.21	-0.750			
0.7627	48811.51	3.4330	3.4330	-0.9102	26.04	0.22	-0.750			
0.7654	48988.52	3.4300	3.4301	-0.9272	26.05	0.23	-0.750			
0.7682	49166.56	3.4270	3.4270	-0.9493	26.06	0.24	-0.750			
0.7711	49353.11	3.4240	3.4240	-0.9713	26.08	0.26	-0.750			
0.7741	49541.78	3.4210	3.4209	-0.9835	26.09	0.27	-0.750			
0.7771	49733.69	3.4180	3.4182	-0.9938	26.10	0.28	-0.750			
0.7801	49927.22	3.4150	3.4150	-0.9973	26.11	0.29	-0.750			
0.7831	50121.52	3.4120	3.4120	-0.9968	26.11	0.29	-0.750			
0.7862	50314.61	3.4090	3.4089	-0.9802	26.12	0.30	-0.750			
0.7891	50500.41	3.4060	3.4059	-0.9604	26.13	0.31	-0.750			
0.7920	50686.08	3.4030	3.4030	-0.9409	26.14	0.32	-0.750			
0.7948	50864.52	3.4000	3.4000	-0.9139	26.15	0.33	-0.750			
0.7975	51037.99	3.3970	3.3970	-0.8853	26.17	0.35	-0.750			
0.8001	51203.45	3.3940	3.3940	-0.8536	26.18	0.36	-0.750			
0.8026	51366.42	3.3910	3.3910	-0.8251	26.19	0.37	-0.750			
0.8050	51523.11	3.3880	3.3880	-0.7936	26.20	0.38	-0.750			
0.8074	51670.95	3.3850	3.3850	-0.7639	26.20	0.38	-0.750			
0.8096	51814.94	3.3820	3.3820	-0.7360	26.21	0.39	-0.750			
0.8118	51953.33	3.3790	3.3790	-0.7066	26.21	0.39	-0.750			
0.8138	52086.08	3.3760	3.3759	-0.6784	26.22	0.40	-0.750			
0.8158	52213.37	3.3730	3.3730	-0.6503	26.22	0.40	-0.750			
0.8177	52335.67	3.3700	3.3700	-0.6265	26.23	0.41	-0.750			
0.8196	52452.83	3.3670	3.3669	-0.6018	26.24	0.42	-0.750			
0.8213	52563.45	3.3640	3.3641	-0.5819	26.25	0.43	-0.750			
0.8230	52674.69	3.3610	3.3610	-0.5628	26.25	0.43	-0.750			
0.8247	52781.51	3.3580	3.3579	-0.5434	26.26	0.44	-0.750			
0.8263	52884.28	3.3550	3.3550	-0.5228	26.27	0.45	-0.750			
0.8279	52982.83	3.3520	3.3520	-0.5033	26.27	0.45	-0.750			
0.8293	53076.76	3.3490	3.3490	-0.4845	26.28	0.46	-0.750			
0.8307	53166.86	3.3460	3.3460	-0.4662	26.29	0.47	-0.750			
0.8321	53253.66	3.3430	3.3430	-0.4470	26.30	0.48	-0.750			
0.8334	53339.28	3.3400	3.3400	-0.4356	26.30	0.48	-0.750			
0.8347	53421.18	3.3370	3.3370	-0.4206	26.31	0.49	-0.750			
0.8359	53500.22	3.3340	3.3340	-0.4064	26.32	0.50	-0.750			
0.8371	53576.43	3.3310	3.3310	-0.3924	26.33	0.51	-0.750			
0.8383	53650.37	3.3280	3.3279	-0.3792	26.33	0.51	-0.750			
0.8394	53721.57	3.3250	3.3250	-0.3669	26.34	0.52	-0.750			
0.8405	53790.98	3.3220	3.3220	-0.3565	26.34	0.52	-0.750			
0.8415	53858.30	3.3190	3.3190	-0.3451	26.35	0.53	-0.750			
0.8426	53923.77	3.3160	3.3160	-0.3349	26.35	0.53	-0.750			
0.8435	53986.32	3.3130	3.3130	-0.3231	26.36	0.54	-0.750			
0.8445	54047.57	3.3100	3.3101	-0.3141	26.36	0.54	-0.750			
0.8454	54107.16	3.3070	3.3070	-0.3046	26.36	0.54	-0.750			
0.8463	54164.29	3.3040	3.3039	-0.2951	26.37	0.55	-0.750			
0.8472	54219.85	3.3010	3.3010	-0.2870	26.37	0.55	-0.750			
0.8480	54273.86	3.2980	3.2980	-0.2794	26.37	0.55	-0.750			
0.8489	54326.63	3.2950	3.2950	-0.2727	26.38	0.56	-0.750			
0.8497	54378.14	3.2920	3.2920	-0.2670	26.38	0.56	-0.750			
0.8505	54428.98	3.2890	3.2890	-0.2609	26.38	0.56	-0.750			
0.8512	54478.89	3.2860	3.2860	-0.2554	26.39	0.57	-0.750			
0.8520	54527.06	3.2830	3.2831	-0.2495	26.39	0.57	-0.750			
0.8527	54574.53	3.2800	3.2800	-0.2441	26.39	0.57	-0.750			
0.8534	54620.60	3.2770	3.2770	-0.2389	26.40	0.58	-0.750			
0.8542	54666.00	3.2740	3.2739	-0.2332	26.41	0.59	-0.750			
0.8548	54710.03	3.2710	3.2710	-0.2277	26.41	0.59	-0.750			
0.8555	54753.17	3.2680	3.2681	-0.2246	26.42	0.60	-0.750			
0.8562	54796.06	3.2650	3.2651	-0.2212	26.42	0.60	-0.750			
0.8568	54838.23	3.2620	3.2619	-0.2169	26.43	0.61	-0.750			
0.8575	54879.28	3.2590	3.2590	-0.2126	26.43	0.61	-0.750			
0.8581	54919.79	3.2560	3.2561	-0.2089	26.44	0.62	-0.750			
0.8587	54959.56	3.2530	3.2531	-0.2056	26.44	0.62	-0.750			
0.8594	54998.99	3.2500	3.2500	-0.2023	26.45	0.63	-0.750			
0.8600	55037.43	3.2470	3.2469	-0.1981	26.45	0.63	-0.750			
0.8605	55074.45	3.2440	3.2440	-0.1957	26.46	0.64	-0.750			
0.8611	55111.76	3.2410	3.2411	-0.1928	26.46	0.64	-0.750			
0.8617	55148.70	3.2380	3.2378	-0.1905	26.47	0.65	-0.750			
0.8623	55184.94	3.2350	3.2350	-0.1882	26.47	0.65	-0.750			
0.8628	55220.67	3.2320	3.2321	-0.1860	26.48	0.66	-0.750			
0.8634	55256.10	3.2290	3.2290	-0.1839	26.48	0.66	-0.750			
0.8639	55291.59	3.2260	3.2258	-0.1811	26.49	0.67	-0.750			
0.8645	55325.98	3.2230	3.2229	-0.1785	26.50	0.68	-0.750			
0.8650	55359.65	3.2200	3.2201	-0.1759	26.50	0.68	-0.750			
0.8655	55393.43	3.2170	3.2171	-0.1740	26.51	0.69	-0.750			
0.8660	55426.53	3.2140	3.2139	-0.1715	26.51	0.69	-0.750			
0.8665	55458.98	3.2110	3.2111	-0.1693	26.52	0.70	-0.750			
0.8670	55491.09	3.2080	3.2080	-0.1676	26.52	0.70	-0.750			
0.8675	55523.17	3.2050	3.2051	-0.1666	26.53	0.71	-0.750			
0.8681	55555.48	3.2020	3.2019	-0.1646	26.53	0.71	-0.750			
0.8685	55586.81	3.1990	3.1990	-0.1623	26.54	0.72	-0.750			
0.8690	55617.79	3.1960	3.1960	-0.1604	26.54	0.72	-0.750			
0.8695	55648.37	3.1930	3.1932	-0.1582	26.55	0.73	-0.750			
0.8700	55678.52	3.1900	3.1900	-0.1571	26.55	0.73	-0.750			
0.8704	55708.27	3.1870	3.1869	-0.1551	26.56	0.74	-0.750			
0.8709	55737.77	3.1840	3.1840	-0.1533	26.56	0.74	-0.750			
0.8714	55767.14	3.1810	3.1809	-0.1526	26.56	0.74	-0.750			
0.8718	55796.68	3.1780	3.1780	-0.1513	26.57	0.75	-0.750			
0.8723	55825.56	3.1750	3.1749	-0.1500	26.57	0.75	-0.750			
0.8727	55854.14	3.1720	3.1721	-0.1487	26.58	0.76	-0.750			
0.8732	55882.55	3.1690	3.1690	-0.1472	26.58	0.76	-0.750			
0.8736	55910.40	3.1660	3.1660	-0.1461	26.59	0.77	-0.750			
0.8740	55938.56	3.1630	3.1630	-0.1448	26.59	0.77	-0.750			
0.8745	55966.29	3.1600	3.1601	-0.1437	26.60	0.78	-0.750			
0.8749	55993.79	3.1570	3.1569	-0.1421	26.60	0.78	-0.750			
0.8753	56021.06	3.1540	3.1541	-0.1410	26.60	0.78	-0.750			
0.8757	56047.96	3.1510	3.1510	-0.1393	26.61	0.79	-0.750			
0.8762	56074.50	3.1480	3.1479	-0.1382	26.61	0.79	-0.750			
0.8766	56100.78	3.1450	3.1450	-0.1369	26.61	0.79	-0.750			
0.8770	56126.85	3.1420	3.1420	-0.1354	26.62	0.80	-0.750			
0.8774	56152.97	3.1390	3.1390	-0.1348	26.62	0.80	-0.750			
0.8778	56178.63	3.1360	3.1361	-0.1341	26.63	0.81	-0.750			
0.8782	56204.29	3.1330	3.1330	-0.1330	26.63	0.81	-0.750			
0.8786	56229.70	3.1300	3.1299	-0.1320	26.64	0.82	-0.750			
0.8790	56254.97	3.1270	3.1271	-0.1308	26.65	0.83	-0.750			
0.8794	56279.96	3.1240	3.1240	-0.1298	26.65	0.83	-0.750			
0.8798	56304.86	3.1210	3.1209	-0.1288	26.66	0.84	-0.750			
0.8802	56329.61	3.1180	3.1180	-0.1276	26.67	0.85	-0.750			
0.8805	56353.96	3.1150	3.1149	-0.1261	26.67	0.85	-0.750			
0.8809	56377.72	3.1120	3.1122	-0.1254	26.68	0.86	-0.750			
0.8813	56401.76	3.1090	3.1090	-0.1249	26.68	0.86	-0.750			
0.8817	56425.62	3.1060	3.1061	-0.1243	26.69	0.87	-0.750			
0.8820	56449.46	3.1030	3.1029	-0.1236	26.70	0.88	-0.750			
0.8824	56473.13	3.1000	3.1000	-0.1230	26.70	0.88	-0.750			
0.8828	56496.75	3.0970	3.0971	-0.1223	26.71	0.89	-0.750			
0.8831	56520.41	3.0940	3.0940	-0.1219	26.71	0.89	-0.750			
0.8835	56543.84	3.0910	3.0910	-0.1201	26.72	0.90	-0.750			
0.8839	56566.71	3.0880	3.0880	-0.1184	26.72	0.90	-0.750			
0.8842	56589.07	3.0850	3.0851	-0.1179	26.73	0.91	-0.750			
0.8846	56611.53	3.0820	3.0821	-0.1170	26.73	0.91	-0.750			
0.8849	56633.83	3.0790	3.0789	-0.1166	26.74	0.92	-0.750			
0.8852	56655.96	3.0760	3.0758	-0.1159	26.74	0.92	-0.750			
0.8856	56678.26	3.0730	3.0731	-0.1155	26.75	0.93	-0.750			
0.8859	56700.23	3.0700	3.0700	-0.1150	26.75	0.93	-0.750			
0.8863	56722.42	3.0670	3.0670	-0.1143	26.76	0.94	-0.750			
0.8866	56744.80	3.0640	3.0640	-0.1142	26.76	0.94	-0.750			
0.8870	56766.63	3.0610	3.0610	-0.1131	26.76	0.94	-0.750			
0.8873	56788.16	3.0580	3.0580	-0.1119	26.77	0.95	-0.750			
0.8876	56809.53	3.0550	3.0550	-0.1111	26.77	0.95	-0.750			
0.8880	56830.77	3.0520	3.0520	-0.1102	26.78	0.96	-0.750			
0.8883	56851.70	3.0490	3.0491	-0.1098	26.78	0.96	-0.750			
0.8886	56872.58	3.0460	3.0459	-0.1091	26.79	0.97	-0.750			
0.8890	56893.62	3.0430	3.0429	-0.1083	26.79	0.97	-0.750			
0.8893	56914.33	3.0400	3.0400	-0.1076	26.79	0.97	-0.750			
0.8896	56934.89	3.0370	3.0371	-0.1072	26.80	0.98	-0.750			
0.8899	56955.52	3.0340	3.0339	-0.1068	26.80	0.98	-0.750			
0.8902	56975.95	3.0310	3.0309	-0.1063	26.81	0.99	-0.750			
0.8906	56996.29	3.0280	3.0279	-0.1057	26.81	0.99	-0.750			
0.8909	57016.55	3.0250	3.0250	-0.1050	26.81	0.99	-0.750			
0.8912	57036.51	3.0220	3.0220	-0.1043	26.82	1.00	-0.750			
0.8915	57056.75	3.0190	3.0188	-0.1029	26.82	1.00	-0.750			
0.8918	57076.83	3.0160	3.0160	-0.1024	26.83	1.01	-0.750			
0.8921	57096.33	3.0130	3.0132	-0.1008	26.83	1.01	-0.750			
0.8924	57115.67	3.0100	3.0102	-0.0989	26.83	1.01	-0.750			
0.8927	57134.47	3.0070	3.0068	-0.0969	26.84	1.02	-0.751			
0.8930	57152.84	3.0040	3.0039	-0.0929	26.84	1.02	-0.751			
