Ah_balance (normalized)	Ah_balance (mAh)	Voltage - fit (V)	Voltage -  interpolate (V)	dQ/dV (1/V)	Temperature (°C)	Temperature - diff (°C)	Current (C)	R_DC 0ms (mOhm)	R_DC 50ms (mOhm)	R_DC 50 ms PEC (mOhm)
0.0510	3264.95	4.1990	4.1990	0.7257	26.90	0.95	0.750			
0.0532	3407.92	4.1960	4.1960	0.7559	26.90	0.95	0.750			
0.0555	3554.73	4.1930	4.1929	0.7635	26.90	0.95	0.750			
0.0578	3702.23	4.1900	4.1900	0.7647	26.90	0.95	0.750			
0.0602	3850.12	4.1870	4.1871	0.7647	26.90	0.95	0.750			
0.0624	3996.69	4.1840	4.1840	0.7603	26.90	0.95	0.750			
0.0647	4141.75	4.1810	4.1810	0.7626	26.90	0.95	0.750			
0.0670	4286.60	4.1780	4.1780	0.7619	26.90	0.95	0.750			
0.0693	4432.49	4.1750	4.1748	0.7681	26.90	0.95	0.750			
0.0716	4581.30	4.1720	4.1720	0.7688	26.90	0.95	0.750			
0.0739	4730.08	4.1690	4.1689	0.7676	26.90	0.95	0.750			
0.0762	4878.07	4.1660	4.1661	0.7720	26.90	0.95	0.750			
0.0785	5026.17	4.1630	4.1630	0.7729	26.90	0.95	0.750			
0.0808	5173.26	4.1600	4.1599	0.7699	26.90	0.95	0.750			
0.0831	5321.47	4.1570	4.1570	0.7759	26.90	0.95	0.750			
0.0855	5471.19	4.1540	4.1541	0.7725	26.89	0.94	0.750			
0.0878	5620.12	4.1510	4.1511	0.7772	26.89	0.94	0.750			
0.0902	5770.06	4.1480	4.1479	0.7804	26.89	0.94	0.750			
0.0925	5918.48	4.1450	4.1450	0.7800	26.88	0.93	0.750			
0.0948	6067.40	4.1420	4.1422	0.7816	26.88	0.93	0.750			
0.0972	6219.19	4.1390	4.1390	0.7801	26.88	0.93	0.750			
0.0995	6369.39	4.1360	4.1360	0.7788	26.88	0.93	0.750			
0.1019	6519.68	4.1330	4.1330	0.7810	26.88	0.93	0.750			
0.1042	6666.88	4.1300	4.1301	0.7813	26.88	0.93	0.750			
0.1065	6817.14	4.1270	4.1267	0.7873	26.88	0.93	0.750			
0.1089	6968.65	4.1240	4.1240	0.7865	26.88	0.93	0.750			
0.1113	7122.35	4.1210	4.1210	0.7819	26.88	0.93	0.750			
0.1137	7273.89	4.1180	4.1181	0.7897	26.88	0.93	0.750			
0.1160	7423.05	4.1150	4.1150	0.7909	26.88	0.93	0.750			
0.1183	7572.53	4.1120	4.1120	0.7926	26.88	0.93	0.750			
0.1207	7725.73	4.1090	4.1090	0.7926	26.88	0.93	0.750			
0.1231	7879.23	4.1060	4.1061	0.7954	26.88	0.93	0.750			
0.1255	8032.70	4.1030	4.1031	0.8033	26.88	0.93	0.750			
0.1280	8188.82	4.1000	4.1000	0.8090	26.88	0.93	0.750			
0.1303	8340.66	4.0970	4.0970	0.8042	26.88	0.93	0.750			
0.1328	8496.19	4.0940	4.0940	0.8055	26.88	0.93	0.750			
0.1352	8652.67	4.0910	4.0911	0.8077	26.88	0.93	0.750			
0.1376	8808.63	4.0880	4.0880	0.8184	26.88	0.93	0.750			
0.1401	8966.44	4.0850	4.0850	0.8179	26.88	0.93	0.750			
0.1425	9121.91	4.0820	4.0820	0.8185	26.88	0.93	0.750			
0.1450	9280.16	4.0790	4.0791	0.8182	26.88	0.93	0.750			
0.1475	9438.92	4.0760	4.0760	0.8148	26.88	0.93	0.750			
0.1499	9594.83	4.0730	4.0730	0.8171	26.88	0.93	0.750			
0.1523	9749.24	4.0700	4.0702	0.8162	26.89	0.94	0.750			
0.1548	9904.72	4.0670	4.0670	0.8119	26.89	0.94	0.750			
0.1572	10062.30	4.0640	4.0639	0.8207	26.89	0.94	0.750			
0.1597	10221.08	4.0610	4.0611	0.8167	26.89	0.94	0.750			
0.1622	10378.44	4.0580	4.0581	0.8243	26.89	0.94	0.750			
0.1646	10536.17	4.0550	4.0550	0.8249	26.88	0.93	0.750			
0.1671	10693.17	4.0520	4.0520	0.8291	26.88	0.93	0.750			
0.1696	10851.67	4.0490	4.0489	0.8348	26.88	0.93	0.750			
0.1721	11014.95	4.0460	4.0460	0.8385	26.88	0.93	0.750			
0.1746	11177.41	4.0430	4.0430	0.8413	26.88	0.93	0.750			
0.1772	11340.27	4.0400	4.0400	0.8466	26.88	0.93	0.750			
0.1797	11501.94	4.0370	4.0370	0.8439	26.88	0.93	0.750			
0.1822	11663.56	4.0340	4.0340	0.8458	26.88	0.93	0.750			
0.1848	11826.58	4.0310	4.0310	0.8407	26.88	0.93	0.750			
0.1873	11986.19	4.0280	4.0280	0.8528	26.88	0.93	0.750			
0.1899	12151.45	4.0250	4.0250	0.8605	26.88	0.93	0.750			
0.1925	12317.44	4.0220	4.0219	0.8648	26.88	0.93	0.750			
0.1951	12484.86	4.0190	4.0191	0.8639	26.88	0.93	0.750			
0.1977	12652.50	4.0160	4.0161	0.8656	26.89	0.94	0.750			
0.2003	12818.33	4.0130	4.0130	0.8705	26.89	0.94	0.750			
0.2029	12985.81	4.0100	4.0099	0.8723	26.89	0.94	0.750			
0.2055	13149.63	4.0070	4.0069	0.8692	26.90	0.95	0.750			
0.2081	13319.03	4.0040	4.0040	0.8787	26.90	0.95	0.750			
0.2108	13488.63	4.0010	4.0011	0.8849	26.89	0.94	0.750			
0.2134	13659.57	3.9980	3.9980	0.8920	26.89	0.94	0.750			
0.2161	13832.17	3.9950	3.9950	0.8923	26.88	0.93	0.750			
0.2188	14002.05	3.9920	3.9917	0.8942	26.88	0.93	0.750			
0.2215	14177.70	3.9890	3.9891	0.8924	26.88	0.93	0.750			
0.2242	14347.51	3.9860	3.9860	0.8966	26.88	0.93	0.750			
0.2269	14520.85	3.9830	3.9829	0.9003	26.88	0.93	0.750			
0.2296	14692.67	3.9800	3.9802	0.9037	26.88	0.93	0.750			
0.2323	14866.18	3.9770	3.9770	0.8990	26.88	0.93	0.750			
0.2350	15042.93	3.9740	3.9740	0.8831	26.88	0.93	0.750			
0.2376	15207.20	3.9710	3.9712	0.8861	26.88	0.93	0.750			
0.2402	15375.88	3.9680	3.9682	0.8937	26.88	0.93	0.750			
0.2429	15546.11	3.9650	3.9650	0.8995	26.88	0.93	0.750			
0.2456	15720.23	3.9620	3.9620	0.9057	26.88	0.93	0.750			
0.2484	15896.11	3.9590	3.9592	0.9088	26.88	0.93	0.750			
0.2512	16076.79	3.9560	3.9562	0.9185	26.88	0.93	0.750			
0.2540	16253.88	3.9530	3.9530	0.9148	26.88	0.93	0.750			
0.2567	16425.85	3.9500	3.9497	0.9012	26.88	0.93	0.750			
0.2594	16599.10	3.9470	3.9470	0.8930	26.88	0.93	0.750			
0.2620	16767.94	3.9440	3.9440	0.9002	26.87	0.92	0.750			
0.2647	16942.28	3.9410	3.9411	0.9096	26.87	0.92	0.750			
0.2675	17116.98	3.9380	3.9380	0.9133	26.86	0.91	0.750			
0.2702	17292.73	3.9350	3.9349	0.9169	26.86	0.91	0.750			
0.2730	17469.95	3.9320	3.9321	0.9161	26.86	0.91	0.750			
0.2757	17646.54	3.9290	3.9291	0.9196	26.86	0.91	0.750			
0.2785	17823.17	3.9260	3.9260	0.9238	26.86	0.91	0.750			
0.2812	17998.34	3.9230	3.9228	0.9196	26.86	0.91	0.750			
0.2840	18177.45	3.9200	3.9201	0.9158	26.86	0.91	0.750			
0.2867	18352.00	3.9170	3.9171	0.9214	26.85	0.90	0.750			
0.2895	18530.38	3.9140	3.9141	0.9278	26.85	0.90	0.750			
0.2923	18708.94	3.9110	3.9110	0.9310	26.84	0.89	0.750			
0.2951	18884.66	3.9080	3.9079	0.9311	26.84	0.89	0.750			
0.2979	19064.53	3.9050	3.9051	0.9295	26.84	0.89	0.750			
0.3007	19243.51	3.9020	3.9020	0.9364	26.84	0.89	0.750			
0.3035	19423.92	3.8990	3.8991	0.9428	26.84	0.89	0.750			
0.3063	19604.47	3.8960	3.8958	0.9406	26.84	0.89	0.750			
0.3092	19786.25	3.8930	3.8930	0.9404	26.83	0.88	0.750			
0.3120	19967.13	3.8900	3.8901	0.9442	26.83	0.88	0.750			
0.3148	20148.38	3.8870	3.8871	0.9499	26.82	0.87	0.750			
0.3177	20330.17	3.8840	3.8840	0.9499	26.81	0.86	0.750			
0.3205	20514.22	3.8810	3.8810	0.9553	26.81	0.86	0.750			
0.3234	20695.65	3.8780	3.8781	0.9688	26.80	0.85	0.750			
0.3263	20884.45	3.8750	3.8750	0.9824	26.79	0.84	0.750			
0.3293	21076.41	3.8720	3.8720	0.9971	26.79	0.84	0.750			
0.3323	21269.70	3.8690	3.8690	0.9975	26.78	0.83	0.750			
0.3353	21461.45	3.8660	3.8660	0.9939	26.77	0.82	0.750			
0.3383	21652.66	3.8630	3.8633	0.9958	26.77	0.82	0.750			
0.3413	21841.35	3.8600	3.8599	1.0000	26.76	0.81	0.750			
0.3442	22030.66	3.8570	3.8567	1.0018	26.76	0.81	0.750			
0.3472	22223.82	3.8540	3.8541	1.0019	26.75	0.80	0.750			
0.3502	22414.24	3.8510	3.8511	1.0167	26.74	0.79	0.750			
0.3534	22615.37	3.8480	3.8481	1.0372	26.73	0.78	0.750			
0.3565	22814.64	3.8450	3.8445	1.0397	26.72	0.77	0.750			
0.3596	23016.14	3.8420	3.8421	1.0459	26.71	0.76	0.750			
0.3628	23216.94	3.8390	3.8392	1.0608	26.70	0.75	0.750			
0.3660	23424.72	3.8360	3.8360	1.0687	26.69	0.74	0.750			
0.3692	23630.20	3.8330	3.8329	1.0570	26.68	0.73	0.750			
0.3724	23833.87	3.8300	3.8300	1.0529	26.67	0.72	0.750			
0.3756	24035.57	3.8270	3.8271	1.0584	26.66	0.71	0.750			
0.3787	24239.24	3.8240	3.8240	1.0647	26.65	0.70	0.750			
0.3819	24442.86	3.8210	3.8209	1.0652	26.64	0.69	0.750			
0.3851	24645.02	3.8180	3.8180	1.0498	26.63	0.68	0.750			
0.3883	24848.03	3.8150	3.8151	1.0615	26.62	0.67	0.750			
0.3915	25054.12	3.8120	3.8121	1.0683	26.61	0.66	0.750			
0.3947	25258.99	3.8090	3.8085	1.0654	26.60	0.65	0.750			
0.3978	25458.69	3.8060	3.8063	1.0655	26.59	0.64	0.750			
0.4010	25663.92	3.8030	3.8031	1.0794	26.58	0.63	0.750			
0.4043	25874.19	3.8000	3.7999	1.0948	26.57	0.62	0.750			
0.4076	26084.65	3.7970	3.7969	1.0883	26.56	0.61	0.750			
0.4109	26294.59	3.7940	3.7941	1.1108	26.55	0.60	0.750			
0.4142	26510.56	3.7910	3.7911	1.1326	26.54	0.59	0.750			
0.4176	26729.32	3.7880	3.7879	1.1577	26.52	0.57	0.750			
0.4211	26952.79	3.7850	3.7851	1.1622	26.51	0.56	0.750			
0.4246	27176.26	3.7820	3.7820	1.1806	26.50	0.55	0.750			
0.4282	27404.88	3.7790	3.7791	1.2036	26.48	0.53	0.750			
0.4319	27642.62	3.7760	3.7758	1.2144	26.47	0.52	0.750			
0.4355	27873.69	3.7730	3.7730	1.2260	26.46	0.51	0.750			
0.4392	28105.83	3.7700	3.7701	1.2543	26.45	0.50	0.750			
0.4429	28345.89	3.7670	3.7671	1.2832	26.43	0.48	0.750			
0.4468	28596.35	3.7640	3.7640	1.3338	26.42	0.47	0.750			
0.4509	28854.56	3.7610	3.7602	1.3583	26.40	0.45	0.750	0.281	0.372	
0.4550	29120.86	3.7580	3.7582	1.3934	26.39	0.44	0.750			
0.4593	29395.25	3.7550	3.7551	1.4205	26.37	0.42	0.750			
0.4636	29667.98	3.7520	3.7521	1.4418	26.36	0.41	0.750			
0.4679	29947.73	3.7490	3.7488	1.4496	26.34	0.39	0.750			
0.4723	30224.35	3.7460	3.7461	1.4769	26.33	0.38	0.750			
0.4767	30509.32	3.7430	3.7432	1.5128	26.32	0.37	0.750			
0.4813	30804.62	3.7400	3.7400	1.5527	26.30	0.35	0.750			
0.4861	31107.76	3.7370	3.7371	1.5991	26.29	0.34	0.750			
0.4908	31413.88	3.7340	3.7342	1.6064	26.27	0.32	0.750			
0.4957	31727.62	3.7310	3.7308	1.6623	26.25	0.30	0.750			
0.5008	32050.03	3.7280	3.7278	1.7436	26.23	0.28	0.750			
0.5062	32394.65	3.7250	3.7248	1.7729	26.21	0.26	0.750			
0.5116	32743.69	3.7220	3.7221	1.8278	26.19	0.24	0.750			
0.5173	33106.36	3.7190	3.7194	1.8828	26.18	0.23	0.750			
0.5229	33467.16	3.7160	3.7162	1.9624	26.16	0.21	0.750			
0.5289	33850.35	3.7130	3.7133	1.9958	26.14	0.19	0.750			
0.5349	34235.16	3.7100	3.7102	2.0147	26.12	0.17	0.750			
0.5411	34631.08	3.7070	3.7071	2.1086	26.11	0.16	0.750			
0.5476	35045.89	3.7040	3.7039	2.1670	26.09	0.14	0.750			
0.5541	35462.37	3.7010	3.7007	2.2218	26.06	0.11	0.750			
0.5608	35892.31	3.6980	3.6981	2.2971	26.04	0.09	0.750			
0.5678	36341.23	3.6950	3.6955	2.3656	26.02	0.07	0.750			
0.5750	36802.36	3.6920	3.6920	2.4770	26.01	0.06	0.750			
0.5827	37290.82	3.6890	3.6888	2.5051	25.99	0.04	0.750			
0.5902	37773.47	3.6860	3.6859	2.5674	25.96	0.01	0.750			
0.5980	38274.91	3.6830	3.6833	2.6323	25.94	-0.01	0.750			
0.6060	38784.02	3.6800	3.6802	2.7221	25.93	-0.02	0.750			
0.6143	39314.09	3.6770	3.6772	2.8210	25.92	-0.03	0.750			
0.6231	39878.63	3.6740	3.6740	2.9861	25.90	-0.05	0.750			
0.6321	40455.02	3.6710	3.6711	3.0755	25.89	-0.06	0.750			
0.6416	41062.32	3.6680	3.6680	3.1255	25.87	-0.08	0.750			
0.6510	41667.13	3.6650	3.6652	3.0075	25.86	-0.09	0.750			
0.6602	42254.39	3.6620	3.6622	2.8477	25.85	-0.10	0.750			
0.6683	42771.25	3.6590	3.6589	2.5760	25.85	-0.10	0.750			
0.6753	43221.11	3.6560	3.6561	2.2694	25.85	-0.10	0.750			
0.6817	43626.36	3.6530	3.6528	2.0504	25.85	-0.10	0.750			
0.6873	43985.70	3.6500	3.6500	1.8649	25.85	-0.10	0.750			
0.6924	44311.59	3.6470	3.6472	1.6990	25.85	-0.10	0.750			
0.6972	44621.57	3.6440	3.6440	1.5849	25.85	-0.10	0.750			
0.7019	44923.61	3.6410	3.6412	1.4890	25.85	-0.10	0.750			
0.7063	45204.34	3.6380	3.6378	1.3885	25.85	-0.10	0.750			
0.7103	45457.91	3.6350	3.6350	1.3083	25.85	-0.10	0.750			
0.7138	45681.99	3.6320	3.6321	1.2344	25.85	-0.10	0.750			
0.7173	45908.72	3.6290	3.6289	1.2006	25.85	-0.10	0.750			
0.7209	46134.52	3.6260	3.6261	1.1885	25.85	-0.10	0.750			
0.7243	46357.44	3.6230	3.6233	1.2000	25.85	-0.10	0.750			
0.7280	46591.38	3.6200	3.6199	1.2180	25.84	-0.11	0.750			
0.7317	46831.16	3.6170	3.6166	1.2244	25.84	-0.11	0.750			
0.7354	47065.73	3.6140	3.6141	1.2151	25.84	-0.11	0.750			
0.7391	47302.16	3.6110	3.6111	1.2037	25.83	-0.12	0.750			
0.7428	47537.78	3.6080	3.6080	1.1947	25.83	-0.12	0.750			
0.7463	47764.09	3.6050	3.6050	1.1690	25.83	-0.12	0.750			
0.7497	47978.18	3.6020	3.6020	1.1495	25.83	-0.12	0.750			
0.7531	48198.24	3.5990	3.5991	1.1498	25.82	-0.13	0.750			
0.7566	48421.49	3.5960	3.5958	1.1421	25.82	-0.13	0.750			
0.7599	48635.07	3.5930	3.5931	1.1621	25.82	-0.13	0.750			
0.7634	48854.56	3.5900	3.5901	1.2000	25.82	-0.13	0.750			
0.7670	49086.11	3.5870	3.5871	1.2320	25.82	-0.13	0.750			
0.7707	49325.11	3.5840	3.5839	1.2739	25.82	-0.13	0.750			
0.7746	49574.53	3.5810	3.5812	1.3213	25.82	-0.13	0.750			
0.7788	49840.73	3.5780	3.5781	1.3572	25.82	-0.13	0.750			
0.7829	50102.89	3.5750	3.5750	1.3990	25.82	-0.13	0.750			
0.7870	50370.04	3.5720	3.5721	1.4224	25.82	-0.13	0.750			
0.7913	50643.68	3.5690	3.5692	1.4543	25.81	-0.14	0.750			
0.7958	50931.38	3.5660	3.5657	1.4968	25.81	-0.14	0.750			
0.8003	51221.43	3.5630	3.5630	1.5460	25.81	-0.14	0.750			
0.8050	51521.52	3.5600	3.5602	1.5936	25.80	-0.15	0.750			
0.8099	51832.67	3.5570	3.5570	1.6434	25.80	-0.15	0.750			
0.8149	52155.60	3.5540	3.5540	1.6568	25.80	-0.15	0.750			
0.8201	52485.75	3.5510	3.5506	1.6683	25.80	-0.15	0.750			
0.8252	52809.81	3.5480	3.5488	1.6779	25.80	-0.15	0.750			
0.8301	53126.03	3.5450	3.5452	1.6758	25.79	-0.16	0.750			
0.8351	53446.59	3.5420	3.5419	1.6874	25.79	-0.16	0.750			
0.8400	53762.91	3.5390	3.5390	1.7227	25.79	-0.16	0.750			
0.8453	54100.84	3.5360	3.5358	1.7589	25.79	-0.16	0.750			
0.8510	54461.90	3.5330	3.5331	1.7536	25.79	-0.16	0.750			
0.8564	54812.29	3.5300	3.5299	1.6508	25.79	-0.16	0.750			
0.8617	55147.34	3.5270	3.5266	1.4952	25.80	-0.15	0.750			
0.8663	55445.20	3.5240	3.5246	1.2718	25.81	-0.14	0.750			
0.8698	55667.13	3.5210	3.5210	1.0002	25.82	-0.13	0.750			
0.8719	55800.36	3.5180	3.5179	0.7374	25.84	-0.11	0.750			
0.8734	55895.17	3.5150	3.5148	0.5239	25.84	-0.11	0.750			
0.8745	55968.75	3.5120	3.5117	0.4318	25.85	-0.10	0.750			
0.8756	56035.70	3.5090	3.5089	0.3694	25.86	-0.09	0.750			
0.8766	56099.42	3.5060	3.5061	0.3429	25.86	-0.09	0.750			
0.8775	56161.73	3.5030	3.5030	0.3225	25.87	-0.08	0.750			
0.8785	56222.02	3.5000	3.4999	0.3067	25.87	-0.08	0.750			
0.8793	56278.38	3.4970	3.4971	0.2967	25.88	-0.07	0.750			
0.8802	56333.32	3.4940	3.4942	0.2899	25.88	-0.07	0.750			
0.8811	56388.26	3.4910	3.4909	0.2842	25.89	-0.06	0.750			
0.8819	56441.97	3.4880	3.4877	0.2766	25.89	-0.06	0.750			
0.8827	56494.47	3.4850	3.4852	0.2721	25.90	-0.05	0.750			
0.8836	56547.31	3.4820	3.4822	0.2674	25.90	-0.05	0.750			
0.8844	56598.57	3.4790	3.4790	0.2636	25.90	-0.05	0.750			
0.8851	56648.62	3.4760	3.4758	0.2576	25.91	-0.04	0.750			
0.8859	56696.58	3.4730	3.4731	0.2482	25.91	-0.04	0.750			
0.8866	56743.69	3.4700	3.4699	0.2427	25.91	-0.04	0.750			
0.8873	56790.23	3.4670	3.4671	0.2374	25.92	-0.03	0.750			
0.8881	56835.52	3.4640	3.4641	0.2314	25.92	-0.03	0.750			
0.8887	56878.66	3.4610	3.4608	0.2251	25.92	-0.03	0.750			
0.8894	56921.55	3.4580	3.4579	0.2196	25.93	-0.02	0.750			
0.8900	56962.21	3.4550	3.4552	0.2136	25.93	-0.02	0.750			
0.8907	57002.79	3.4520	3.4520	0.2101	25.93	-0.02	0.750			
0.8913	57042.91	3.4490	3.4489	0.2071	25.94	-0.01	0.750			
0.8919	57082.31	3.4460	3.4461	0.2033	25.94	-0.01	0.750			
0.8925	57120.70	3.4430	3.4430	0.1993	25.94	-0.01	0.750			
0.8931	57159.14	3.4400	3.4400	0.1945	25.95	-0.00	0.750			
0.8937	57196.22	3.4370	3.4370	0.1896	25.95	-0.00	0.750			
0.8942	57231.99	3.4340	3.4340	0.1845	25.95	0.00	0.750			
0.8948	57267.19	3.4310	3.4311	0.1795	25.95	0.00	0.750			
0.8953	57300.86	3.4280	3.4279	0.1742	25.96	0.01	0.750			
0.8958	57333.84	3.4250	3.4250	0.1683	25.96	0.01	0.750			
0.8963	57365.67	3.4220	3.4220	0.1633	25.96	0.01	0.750			
0.8968	57396.52	3.4190	3.4190	0.1581	25.96	0.01	0.750			
0.8973	57426.61	3.4160	3.4161	0.1534	25.97	0.02	0.750			
0.8977	57455.47	3.4130	3.4130	0.1478	25.97	0.02	0.750			
0.8982	57483.34	3.4100	3.4098	0.1415	25.97	0.02	0.750			
0.8986	57509.97	3.4070	3.4072	0.1359	25.97	0.02	0.750			
0.8990	57535.58	3.4040	3.4042	0.1302	25.97	0.02	0.750			
0.8994	57560.40	3.4010	3.4010	0.1247	25.98	0.03	0.750			
0.8997	57583.86	3.3980	3.3979	0.1175	25.98	0.03	0.750			
0.9001	57605.74	3.3950	3.3950	0.1105	25.98	0.03	0.750			
0.9004	57627.65	3.3920	3.3920	0.1016	25.98	0.03	0.750			
0.9007	57646.20	3.3890	3.3890	0.0917	25.98	0.03	0.750			
0.9010	57663.81	3.3860	3.3860	0.0842	25.98	0.03	0.750			
0.9012	57678.91	3.3830	3.3832	0.0732	25.98	0.03	0.750			
0.9014	57692.37	3.3800	3.3803	0.0626	25.99	0.04	0.750			
0.9016	57703.28	3.3770	3.3776	0.0511	25.99	0.04	0.750			
0.9017	57711.99	3.3740	3.3750	0.0396	25.99	0.04	0.750			
0.9019	57718.49	3.3710	3.3723	0.0281	25.99	0.04	0.750			
0.9019	57722.79	3.3680	3.3705	0.0166	25.99	0.04	0.750			
