Ah_balance (normalized)	Ah_balance (mAh)	Voltage - fit (V)	Voltage -  interpolate (V)	dQ/dV (1/V)	Temperature (°C)	Temperature - diff (°C)	Current (C)	R_DC 0ms (mOhm)	R_DC 50ms (mOhm)	R_DC 50 ms PEC (mOhm)
0.0005	29.32	4.1630	4.1629	-0.1505	25.88	0.01	-0.750			
0.0010	62.56	4.1600	4.1599	-0.1937	25.88	0.01	-0.750			
0.0016	102.88	4.1570	4.1571	-0.2374	25.88	0.01	-0.750			
0.0024	154.59	4.1540	4.1539	-0.2756	25.87	0.00	-0.750			
0.0033	211.19	4.1510	4.1510	-0.3150	25.87	0.00	-0.750			
0.0043	276.08	4.1480	4.1481	-0.3533	25.87	0.00	-0.750			
0.0054	347.56	4.1450	4.1449	-0.3916	25.87	-0.00	-0.750			
0.0067	426.79	4.1420	4.1419	-0.4246	25.87	-0.00	-0.750			
0.0080	511.67	4.1390	4.1390	-0.4574	25.86	-0.01	-0.750			
0.0094	602.94	4.1360	4.1361	-0.4869	25.86	-0.01	-0.750			
0.0109	700.72	4.1330	4.1330	-0.5176	25.86	-0.01	-0.750			
0.0126	804.46	4.1300	4.1300	-0.5433	25.86	-0.01	-0.750			
0.0143	912.17	4.1270	4.1269	-0.5648	25.85	-0.02	-0.750			
0.0160	1023.59	4.1240	4.1240	-0.5823	25.85	-0.02	-0.750			
0.0178	1138.40	4.1210	4.1212	-0.5963	25.85	-0.02	-0.750			
0.0196	1254.52	4.1180	4.1179	-0.6088	25.84	-0.03	-0.750			
0.0214	1372.38	4.1150	4.1150	-0.6191	25.84	-0.03	-0.750			
0.0233	1490.10	4.1120	4.1121	-0.6283	25.84	-0.03	-0.750			
0.0252	1613.71	4.1090	4.1090	-0.6451	25.83	-0.04	-0.750			
0.0272	1739.47	4.1060	4.1060	-0.6552	25.83	-0.04	-0.750			
0.0292	1866.49	4.1030	4.1031	-0.6652	25.82	-0.05	-0.750			
0.0312	1996.11	4.1000	4.1000	-0.6708	25.82	-0.05	-0.750			
0.0332	2125.91	4.0970	4.0970	-0.6782	25.82	-0.05	-0.750			
0.0353	2256.93	4.0940	4.0940	-0.6835	25.82	-0.05	-0.750			
0.0373	2388.06	4.0910	4.0911	-0.6829	25.81	-0.06	-0.750			
0.0394	2519.52	4.0880	4.0879	-0.6909	25.81	-0.06	-0.750			
0.0415	2653.19	4.0850	4.0850	-0.6948	25.81	-0.06	-0.750			
0.0435	2786.58	4.0820	4.0819	-0.6981	25.81	-0.06	-0.750			
0.0456	2920.92	4.0790	4.0790	-0.7038	25.81	-0.06	-0.750			
0.0477	3055.86	4.0760	4.0761	-0.7117	25.81	-0.06	-0.750			
0.0499	3194.87	4.0730	4.0729	-0.7184	25.80	-0.07	-0.750			
0.0521	3334.51	4.0700	4.0698	-0.7200	25.80	-0.07	-0.750			
0.0542	3471.63	4.0670	4.0672	-0.7211	25.80	-0.07	-0.750			
0.0564	3611.43	4.0640	4.0640	-0.7239	25.80	-0.07	-0.750			
0.0586	3751.28	4.0610	4.0609	-0.7243	25.80	-0.07	-0.750			
0.0608	3889.95	4.0580	4.0580	-0.7299	25.80	-0.07	-0.750			
0.0630	4029.58	4.0550	4.0549	-0.7274	25.79	-0.08	-0.750			
0.0652	4171.45	4.0520	4.0519	-0.7361	25.79	-0.08	-0.750			
0.0674	4312.73	4.0490	4.0493	-0.7377	25.79	-0.08	-0.750			
0.0696	4453.77	4.0460	4.0460	-0.7385	25.79	-0.08	-0.750			
0.0718	4595.99	4.0430	4.0429	-0.7421	25.79	-0.08	-0.750			
0.0740	4738.21	4.0400	4.0400	-0.7387	25.79	-0.08	-0.750			
0.0763	4881.54	4.0370	4.0370	-0.7432	25.79	-0.08	-0.750			
0.0785	5023.66	4.0340	4.0340	-0.7428	25.79	-0.08	-0.750			
0.0807	5165.27	4.0310	4.0310	-0.7421	25.79	-0.08	-0.750			
0.0829	5307.14	4.0280	4.0280	-0.7481	25.79	-0.08	-0.750			
0.0852	5450.88	4.0250	4.0250	-0.7492	25.79	-0.08	-0.750			
0.0874	5594.71	4.0220	4.0220	-0.7541	25.79	-0.08	-0.750			
0.0897	5742.04	4.0190	4.0190	-0.7583	25.79	-0.08	-0.750			
0.0920	5887.89	4.0160	4.0161	-0.7594	25.79	-0.08	-0.750			
0.0943	6033.60	4.0130	4.0130	-0.7597	25.79	-0.08	-0.750			
0.0965	6178.85	4.0100	4.0100	-0.7615	25.79	-0.08	-0.750			
0.0988	6325.02	4.0070	4.0070	-0.7629	25.80	-0.07	-0.750			
0.1011	6471.23	4.0040	4.0040	-0.7631	25.80	-0.07	-0.750			
0.1034	6618.70	4.0010	4.0010	-0.7654	25.80	-0.07	-0.750			
0.1057	6766.34	3.9980	3.9980	-0.7687	25.80	-0.07	-0.750			
0.1080	6914.09	3.9950	3.9951	-0.7694	25.80	-0.07	-0.750			
0.1103	7061.85	3.9920	3.9920	-0.7717	25.80	-0.07	-0.750			
0.1126	7209.11	3.9890	3.9890	-0.7739	25.81	-0.06	-0.750			
0.1150	7358.32	3.9860	3.9860	-0.7808	25.81	-0.06	-0.750			
0.1173	7509.32	3.9830	3.9831	-0.7824	25.81	-0.06	-0.750			
0.1197	7660.08	3.9800	3.9800	-0.7815	25.81	-0.06	-0.750			
0.1220	7810.34	3.9770	3.9770	-0.7888	25.81	-0.06	-0.750			
0.1244	7962.89	3.9740	3.9740	-0.7903	25.81	-0.06	-0.750			
0.1268	8115.15	3.9710	3.9709	-0.7881	25.81	-0.06	-0.750			
0.1292	8265.98	3.9680	3.9682	-0.7879	25.81	-0.06	-0.750			
0.1315	8416.86	3.9650	3.9649	-0.7883	25.81	-0.06	-0.750			
0.1339	8568.98	3.9620	3.9619	-0.7904	25.81	-0.06	-0.750			
0.1362	8719.32	3.9590	3.9590	-0.7907	25.82	-0.05	-0.750			
0.1386	8869.01	3.9560	3.9560	-0.7876	25.82	-0.05	-0.750			
0.1410	9023.30	3.9530	3.9530	-0.7966	25.82	-0.05	-0.750			
0.1434	9176.77	3.9500	3.9500	-0.7988	25.82	-0.05	-0.750			
0.1458	9328.17	3.9470	3.9471	-0.8065	25.82	-0.05	-0.750			
0.1482	9485.90	3.9440	3.9440	-0.8082	25.82	-0.05	-0.750			
0.1507	9642.41	3.9410	3.9410	-0.8096	25.82	-0.05	-0.750			
0.1531	9797.79	3.9380	3.9380	-0.8111	25.82	-0.05	-0.750			
0.1555	9954.96	3.9350	3.9351	-0.8107	25.82	-0.05	-0.750			
0.1580	10108.99	3.9320	3.9319	-0.8095	25.83	-0.04	-0.750			
0.1604	10263.58	3.9290	3.9289	-0.8141	25.83	-0.04	-0.750			
0.1628	10418.83	3.9260	3.9261	-0.8144	25.84	-0.03	-0.750			
0.1653	10579.08	3.9230	3.9229	-0.8199	25.85	-0.02	-0.750			
0.1678	10737.18	3.9200	3.9201	-0.8245	25.85	-0.02	-0.750			
0.1702	10895.17	3.9170	3.9170	-0.8246	25.85	-0.02	-0.750			
0.1727	11055.16	3.9140	3.9139	-0.8284	25.85	-0.02	-0.750			
0.1752	11212.69	3.9110	3.9110	-0.8255	25.86	-0.01	-0.750			
0.1777	11372.62	3.9080	3.9080	-0.8299	25.86	-0.01	-0.750			
0.1802	11531.02	3.9050	3.9052	-0.8341	25.86	-0.01	-0.750			
0.1827	11693.02	3.9020	3.9019	-0.8340	25.86	-0.01	-0.750			
0.1852	11852.19	3.8990	3.8990	-0.8317	25.86	-0.01	-0.750			
0.1877	12011.92	3.8960	3.8961	-0.8320	25.87	-0.00	-0.750			
0.1902	12174.31	3.8930	3.8930	-0.8411	25.87	-0.00	-0.750			
0.1927	12333.68	3.8900	3.8901	-0.8398	25.87	0.00	-0.750			
0.1952	12493.53	3.8870	3.8870	-0.8402	25.87	0.00	-0.750			
0.1977	12654.59	3.8840	3.8840	-0.8472	25.87	0.00	-0.750			
0.2003	12820.85	3.8810	3.8810	-0.8482	25.87	0.00	-0.750			
0.2029	12985.62	3.8780	3.8779	-0.8486	25.87	0.00	-0.750			
0.2054	13146.13	3.8750	3.8752	-0.8473	25.87	0.00	-0.750			
0.2079	13308.25	3.8720	3.8720	-0.8448	25.88	0.01	-0.750			
0.2105	13469.79	3.8690	3.8689	-0.8474	25.88	0.01	-0.750			
0.2130	13632.61	3.8660	3.8659	-0.8439	25.88	0.01	-0.750			
0.2156	13795.61	3.8630	3.8631	-0.8505	25.89	0.02	-0.750			
0.2181	13959.27	3.8600	3.8600	-0.8513	25.89	0.02	-0.750			
0.2207	14122.93	3.8570	3.8571	-0.8532	25.90	0.03	-0.750			
0.2232	14285.85	3.8540	3.8539	-0.8518	25.90	0.03	-0.750			
0.2258	14449.44	3.8510	3.8509	-0.8500	25.90	0.03	-0.750			
0.2283	14612.81	3.8480	3.8481	-0.8532	25.91	0.04	-0.750			
0.2309	14777.39	3.8450	3.8449	-0.8572	25.91	0.04	-0.750			
0.2334	14940.28	3.8420	3.8421	-0.8598	25.92	0.05	-0.750			
0.2361	15107.24	3.8390	3.8389	-0.8619	25.92	0.05	-0.750			
0.2386	15272.27	3.8360	3.8360	-0.8679	25.92	0.05	-0.750			
0.2413	15441.01	3.8330	3.8330	-0.8714	25.93	0.06	-0.750			
0.2439	15609.63	3.8300	3.8298	-0.8726	25.93	0.06	-0.750			
0.2465	15776.12	3.8270	3.8270	-0.8713	25.93	0.06	-0.750			
0.2491	15943.41	3.8240	3.8240	-0.8669	25.93	0.06	-0.750			
0.2517	16109.57	3.8210	3.8210	-0.8607	25.93	0.06	-0.750			
0.2543	16277.09	3.8180	3.8180	-0.8601	25.93	0.06	-0.750			
0.2569	16439.65	3.8150	3.8150	-0.8517	25.93	0.06	-0.750			
0.2594	16603.72	3.8120	3.8120	-0.8536	25.94	0.07	-0.750			
0.2620	16767.08	3.8090	3.8089	-0.8483	25.94	0.07	-0.750			
0.2645	16928.57	3.8060	3.8059	-0.8432	25.95	0.08	-0.750			
0.2671	17091.87	3.8030	3.8032	-0.8457	25.95	0.08	-0.750			
0.2696	17253.11	3.8000	3.7999	-0.8494	25.95	0.08	-0.750			
0.2721	17416.39	3.7970	3.7969	-0.8514	25.96	0.09	-0.750			
0.2747	17581.08	3.7940	3.7939	-0.8490	25.96	0.09	-0.750			
0.2773	17745.96	3.7910	3.7910	-0.8522	25.97	0.10	-0.750			
0.2798	17909.01	3.7880	3.7882	-0.8493	25.97	0.10	-0.750			
0.2824	18071.39	3.7850	3.7849	-0.8446	25.97	0.10	-0.750			
0.2849	18231.45	3.7820	3.7820	-0.8408	25.97	0.10	-0.750			
0.2874	18392.10	3.7790	3.7790	-0.8375	25.98	0.11	-0.750			
0.2899	18553.99	3.7760	3.7759	-0.8420	25.98	0.11	-0.750			
0.2924	18715.29	3.7730	3.7730	-0.8387	25.98	0.11	-0.750			
0.2949	18876.14	3.7700	3.7700	-0.8350	25.98	0.11	-0.750			
0.2974	19035.54	3.7670	3.7670	-0.8354	25.98	0.11	-0.750			
0.3000	19197.40	3.7640	3.7639	-0.8308	25.99	0.12	-0.750			
0.3025	19357.03	3.7610	3.7610	-0.8278	25.99	0.12	-0.750			
0.3049	19515.23	3.7580	3.7582	-0.8255	25.99	0.12	-0.750			
0.3074	19672.13	3.7550	3.7550	-0.8245	25.99	0.12	-0.750			
0.3098	19830.09	3.7520	3.7519	-0.8281	26.00	0.13	-0.750			
0.3123	19987.94	3.7490	3.7490	-0.8275	26.00	0.13	-0.750			
0.3148	20148.49	3.7460	3.7460	-0.8330	26.01	0.14	-0.750			
0.3173	20308.86	3.7430	3.7431	-0.8378	26.01	0.14	-0.750			
0.3198	20469.99	3.7400	3.7400	-0.8426	26.01	0.14	-0.750			
0.3224	20631.21	3.7370	3.7370	-0.8502	26.01	0.14	-0.750			
0.3249	20794.28	3.7340	3.7340	-0.8523	26.02	0.15	-0.750			
0.3275	20959.52	3.7310	3.7309	-0.8618	26.02	0.15	-0.750			
0.3301	21125.75	3.7280	3.7281	-0.8679	26.02	0.15	-0.750			
0.3327	21291.43	3.7250	3.7250	-0.8811	26.02	0.15	-0.750			
0.3353	21461.86	3.7220	3.7220	-0.8866	26.02	0.15	-0.750			
0.3380	21632.47	3.7190	3.7188	-0.9002	26.02	0.15	-0.750			
0.3407	21805.47	3.7160	3.7160	-0.9131	26.02	0.15	-0.750			
0.3435	21982.91	3.7130	3.7131	-0.9311	26.02	0.15	-0.750			
0.3463	22163.51	3.7100	3.7099	-0.9491	26.02	0.15	-0.750			
0.3492	22346.71	3.7070	3.7069	-0.9662	26.03	0.16	-0.750			
0.3521	22532.35	3.7040	3.7040	-0.9745	26.03	0.16	-0.750			
0.3550	22722.73	3.7010	3.7012	-0.9978	26.03	0.16	-0.750			
0.3581	22915.21	3.6980	3.6979	-1.0119	26.03	0.16	-0.750			
0.3611	23111.76	3.6950	3.6951	-1.0255	26.03	0.16	-0.750			
0.3642	23307.92	3.6920	3.6920	-1.0403	26.03	0.16	-0.750			
0.3673	23509.36	3.6890	3.6892	-1.0671	26.03	0.16	-0.750			
0.3706	23715.76	3.6860	3.6859	-1.0845	26.02	0.15	-0.750			
0.3738	23925.65	3.6830	3.6830	-1.1112	26.02	0.15	-0.750			
0.3772	24139.77	3.6800	3.6800	-1.1339	26.01	0.14	-0.750			
0.3806	24360.46	3.6770	3.6771	-1.1637	26.01	0.14	-0.750			
0.3842	24587.84	3.6740	3.6740	-1.1914	26.01	0.14	-0.750			
0.3878	24818.78	3.6710	3.6710	-1.2117	26.00	0.13	-0.750			
0.3915	25053.01	3.6680	3.6679	-1.2442	26.00	0.13	-0.750			
0.3953	25296.02	3.6650	3.6650	-1.2718	25.99	0.12	-0.750			
0.3991	25541.85	3.6620	3.6619	-1.2947	25.98	0.11	-0.750			
0.4030	25790.85	3.6590	3.6590	-1.3326	25.97	0.10	-0.750			
0.4070	26047.75	3.6560	3.6560	-1.3634	25.97	0.10	-0.750			
0.4111	26313.47	3.6530	3.6529	-1.4003	25.96	0.09	-0.750			
0.4154	26587.13	3.6500	3.6499	-1.4376	25.95	0.08	-0.750			
0.4198	26866.15	3.6470	3.6468	-1.4690	25.95	0.08	-0.750			
0.4243	27156.78	3.6440	3.6439	-1.5103	25.94	0.07	-0.750			
0.4289	27451.63	3.6410	3.6411	-1.5390	25.94	0.07	-0.750			
0.4335	27746.89	3.6380	3.6380	-1.5668	25.93	0.06	-0.750			
0.4383	28051.25	3.6350	3.6348	-1.5861	25.92	0.05	-0.750			
0.4432	28361.83	3.6320	3.6320	-1.6104	25.91	0.04	-0.750			
0.4479	28666.84	3.6290	3.6290	-1.6438	25.90	0.03	-0.750			
0.4529	28985.60	3.6260	3.6259	-1.6793	25.89	0.02	-0.750			
0.4581	29316.07	3.6230	3.6230	-1.7083	25.89	0.02	-0.750	0.402	0.496	
0.4633	29651.73	3.6200	3.6199	-1.7426	25.88	0.01	-0.750			
0.4686	29988.38	3.6170	3.6170	-1.7726	25.88	0.01	-0.750			
0.4739	30329.09	3.6140	3.6140	-1.8143	25.87	-0.00	-0.750			
0.4794	30682.07	3.6110	3.6111	-1.8563	25.86	-0.01	-0.750			
0.4850	31041.66	3.6080	3.6081	-1.8814	25.86	-0.01	-0.750			
0.4908	31414.25	3.6050	3.6051	-1.9199	25.85	-0.02	-0.750			
0.4966	31783.39	3.6020	3.6020	-1.9715	25.84	-0.03	-0.750			
0.5025	32160.50	3.5990	3.5991	-2.0208	25.83	-0.04	-0.750			
0.5086	32552.09	3.5960	3.5957	-2.0497	25.83	-0.04	-0.750			
0.5148	32948.45	3.5930	3.5932	-2.0924	25.82	-0.05	-0.750			
0.5212	33359.64	3.5900	3.5899	-2.1370	25.82	-0.05	-0.750			
0.5277	33774.98	3.5870	3.5870	-2.1832	25.82	-0.05	-0.750			
0.5344	34202.78	3.5840	3.5840	-2.2085	25.82	-0.05	-0.750			
0.5411	34629.12	3.5810	3.5809	-2.2297	25.81	-0.06	-0.750			
0.5477	35055.99	3.5780	3.5781	-2.2504	25.81	-0.06	-0.750			
0.5546	35494.87	3.5750	3.5750	-2.2806	25.81	-0.06	-0.750			
0.5615	35933.33	3.5720	3.5719	-2.2932	25.81	-0.06	-0.750			
0.5683	36372.35	3.5690	3.5690	-2.3082	25.81	-0.06	-0.750			
0.5753	36821.94	3.5660	3.5660	-2.3168	25.81	-0.06	-0.750			
0.5824	37274.40	3.5630	3.5629	-2.3044	25.81	-0.06	-0.750			
0.5893	37712.58	3.5600	3.5601	-2.2952	25.81	-0.06	-0.750			
0.5961	38148.03	3.5570	3.5571	-2.2896	25.81	-0.06	-0.750			
0.6029	38586.69	3.5540	3.5538	-2.2765	25.82	-0.05	-0.750			
0.6098	39024.10	3.5510	3.5510	-2.2551	25.82	-0.05	-0.750			
0.6165	39455.77	3.5480	3.5481	-2.2449	25.82	-0.05	-0.750			
0.6233	39889.93	3.5450	3.5450	-2.2494	25.82	-0.05	-0.750			
0.6300	40318.77	3.5420	3.5419	-2.2386	25.82	-0.05	-0.750			
0.6367	40747.57	3.5390	3.5389	-2.2087	25.84	-0.03	-0.750			
0.6433	41171.97	3.5360	3.5360	-2.2015	25.85	-0.02	-0.750			
0.6500	41596.81	3.5330	3.5330	-2.1970	25.86	-0.01	-0.750			
0.6566	42022.43	3.5300	3.5301	-2.1543	25.87	0.00	-0.750			
0.6630	42429.92	3.5270	3.5270	-2.1037	25.88	0.01	-0.750			
0.6693	42834.20	3.5240	3.5240	-2.0388	25.89	0.02	-0.750			
0.6753	43220.70	3.5210	3.5209	-1.9766	25.90	0.03	-0.750			
0.6812	43595.27	3.5180	3.5180	-1.9195	25.91	0.04	-0.750			
0.6868	43955.97	3.5150	3.5150	-1.8541	25.92	0.05	-0.750			
0.6923	44304.99	3.5120	3.5121	-1.7950	25.93	0.06	-0.750			
0.6976	44648.49	3.5090	3.5091	-1.7440	25.95	0.08	-0.750			
0.7027	44975.08	3.5060	3.5060	-1.6764	25.96	0.09	-0.750			
0.7077	45295.93	3.5030	3.5029	-1.6223	25.98	0.11	-0.750			
0.7125	45597.16	3.5000	3.4999	-1.5572	26.01	0.14	-0.750			
0.7170	45886.69	3.4970	3.4972	-1.5004	26.03	0.16	-0.750			
0.7214	46170.91	3.4940	3.4939	-1.4449	26.04	0.17	-0.750			
0.7257	46444.59	3.4910	3.4909	-1.4001	26.06	0.19	-0.750			
0.7298	46709.08	3.4880	3.4882	-1.3594	26.07	0.20	-0.750			
0.7338	46964.93	3.4850	3.4850	-1.3104	26.09	0.22	-0.750			
0.7377	47212.91	3.4820	3.4818	-1.2654	26.10	0.23	-0.750			
0.7414	47450.41	3.4790	3.4792	-1.2231	26.12	0.25	-0.750			
0.7450	47680.60	3.4760	3.4759	-1.1863	26.13	0.26	-0.750			
0.7485	47903.87	3.4730	3.4729	-1.1484	26.15	0.28	-0.750			
0.7519	48119.18	3.4700	3.4700	-1.1066	26.16	0.29	-0.750			
0.7551	48328.86	3.4670	3.4671	-1.0687	26.17	0.30	-0.750			
0.7583	48534.13	3.4640	3.4640	-1.0430	26.18	0.31	-0.750			
0.7614	48729.39	3.4610	3.4610	-1.0064	26.19	0.32	-0.750			
0.7643	48915.82	3.4580	3.4580	-0.9734	26.20	0.33	-0.750			
0.7672	49100.19	3.4550	3.4551	-0.9520	26.21	0.34	-0.750			
0.7700	49278.10	3.4520	3.4520	-0.9350	26.22	0.35	-0.750			
0.7727	49453.86	3.4490	3.4490	-0.9220	26.24	0.37	-0.750			
0.7754	49628.56	3.4460	3.4460	-0.9191	26.25	0.38	-0.750			
0.7782	49802.32	3.4430	3.4429	-0.9233	26.26	0.39	-0.750			
0.7809	49979.28	3.4400	3.4399	-0.9353	26.27	0.40	-0.750			
0.7837	50155.35	3.4370	3.4371	-0.9614	26.28	0.41	-0.750			
0.7866	50341.30	3.4340	3.4340	-1.0010	26.29	0.42	-0.750			
0.7896	50536.04	3.4310	3.4309	-1.0357	26.30	0.43	-0.750			
0.7928	50741.03	3.4280	3.4281	-1.0808	26.31	0.44	-0.750			
0.7962	50957.21	3.4250	3.4250	-1.1023	26.32	0.45	-0.750			
0.7996	51174.60	3.4220	3.4220	-1.1153	26.33	0.46	-0.750			
0.8030	51394.35	3.4190	3.4189	-1.1126	26.34	0.47	-0.750			
0.8064	51608.35	3.4160	3.4160	-1.0984	26.34	0.47	-0.750			
0.8097	51818.84	3.4130	3.4129	-1.0787	26.35	0.48	-0.750			
0.8129	52025.73	3.4100	3.4100	-1.0518	26.36	0.49	-0.750			
0.8160	52222.80	3.4070	3.4071	-1.0109	26.37	0.50	-0.750			
0.8190	52417.59	3.4040	3.4039	-0.9853	26.38	0.51	-0.750			
0.8219	52602.72	3.4010	3.4010	-0.9490	26.38	0.51	-0.750			
0.8247	52781.98	3.3980	3.3978	-0.9092	26.39	0.52	-0.750			
0.8274	52951.20	3.3950	3.3951	-0.8732	26.40	0.53	-0.750			
0.8300	53117.03	3.3920	3.3922	-0.8414	26.41	0.54	-0.750			
0.8324	53275.50	3.3890	3.3889	-0.8110	26.42	0.55	-0.750			
0.8348	53427.14	3.3860	3.3859	-0.7830	26.42	0.55	-0.750			
0.8371	53571.44	3.3830	3.3830	-0.7508	26.43	0.56	-0.750			
0.8393	53715.08	3.3800	3.3800	-0.7263	26.43	0.56	-0.750			
0.8414	53852.25	3.3770	3.3770	-0.6989	26.44	0.57	-0.750			
0.8435	53983.21	3.3740	3.3741	-0.6698	26.45	0.58	-0.750			
0.8455	54109.87	3.3710	3.3709	-0.6440	26.46	0.59	-0.750			
0.8473	54229.66	3.3680	3.3681	-0.6154	26.46	0.59	-0.750			
0.8491	54344.56	3.3650	3.3650	-0.5926	26.47	0.60	-0.750			
0.8509	54456.00	3.3620	3.3620	-0.5695	26.48	0.61	-0.750			
0.8526	54563.88	3.3590	3.3589	-0.5473	26.49	0.62	-0.750			
0.8542	54665.97	3.3560	3.3560	-0.5242	26.50	0.63	-0.750			
0.8557	54765.08	3.3530	3.3531	-0.5022	26.50	0.63	-0.750			
0.8572	54859.51	3.3500	3.3500	-0.4810	26.51	0.64	-0.750			
0.8586	54949.57	3.3470	3.3470	-0.4588	26.51	0.64	-0.750			
0.8599	55034.42	3.3440	3.3440	-0.4417	26.52	0.65	-0.750			
0.8612	55117.40	3.3410	3.3410	-0.4253	26.52	0.65	-0.750			
0.8625	55197.52	3.3380	3.3379	-0.4089	26.52	0.65	-0.750			
0.8637	55274.00	3.3350	3.3350	-0.3946	26.53	0.66	-0.750			
0.8648	55348.89	3.3320	3.3321	-0.3800	26.53	0.66	-0.750			
0.8659	55420.14	3.3290	3.3290	-0.3659	26.54	0.67	-0.750			
0.8670	55489.12	3.3260	3.3260	-0.3519	26.54	0.67	-0.750			
0.8680	55554.77	3.3230	3.3231	-0.3376	26.55	0.68	-0.750			
0.8690	55618.44	3.3200	3.3199	-0.3249	26.55	0.68	-0.750			
0.8700	55679.05	3.3170	3.3171	-0.3132	26.56	0.69	-0.750			
0.8709	55737.72	3.3140	3.3140	-0.3013	26.56	0.69	-0.750			
0.8718	55794.80	3.3110	3.3110	-0.2917	26.57	0.70	-0.750			
0.8726	55849.36	3.3080	3.3079	-0.2819	26.57	0.70	-0.750			
0.8735	55901.93	3.3050	3.3052	-0.2735	26.58	0.71	-0.750			
0.8743	55953.79	3.3020	3.3020	-0.2657	26.59	0.72	-0.750			
0.8751	56004.18	3.2990	3.2989	-0.2589	26.59	0.72	-0.750			
0.8758	56053.11	3.2960	3.2960	-0.2512	26.59	0.72	-0.750			
0.8766	56100.15	3.2930	3.2931	-0.2435	26.60	0.73	-0.750			
0.8773	56146.95	3.2900	3.2899	-0.2367	26.60	0.73	-0.750			
0.8780	56191.09	3.2870	3.2871	-0.2294	26.61	0.74	-0.750			
0.8787	56234.35	3.2840	3.2840	-0.2225	26.61	0.74	-0.750			
0.8793	56276.39	3.2810	3.2810	-0.2168	26.62	0.75	-0.750			
0.8800	56317.35	3.2780	3.2779	-0.2112	26.62	0.75	-0.750			
0.8806	56356.73	3.2750	3.2750	-0.2058	26.63	0.76	-0.750			
0.8812	56395.86	3.2720	3.2720	-0.2017	26.63	0.76	-0.750			
0.8818	56434.04	3.2690	3.2690	-0.1976	26.63	0.76	-0.750			
0.8824	56471.75	3.2660	3.2660	-0.1945	26.64	0.77	-0.750			
0.8829	56508.36	3.2630	3.2630	-0.1903	26.64	0.77	-0.750			
0.8835	56544.62	3.2600	3.2600	-0.1873	26.64	0.77	-0.750			
0.8841	56580.37	3.2570	3.2570	-0.1840	26.65	0.78	-0.750			
0.8846	56615.63	3.2540	3.2540	-0.1805	26.65	0.78	-0.750			
0.8852	56649.87	3.2510	3.2510	-0.1766	26.65	0.78	-0.750			
0.8857	56683.41	3.2480	3.2481	-0.1728	26.66	0.79	-0.750			
0.8862	56716.09	3.2450	3.2450	-0.1706	26.66	0.79	-0.750			
0.8867	56748.37	3.2420	3.2420	-0.1672	26.66	0.79	-0.750			
0.8872	56780.14	3.2390	3.2390	-0.1643	26.67	0.80	-0.750			
0.8877	56811.46	3.2360	3.2359	-0.1620	26.67	0.80	-0.750			
0.8882	56842.23	3.2330	3.2331	-0.1601	26.67	0.80	-0.750			
0.8886	56872.80	3.2300	3.2301	-0.1585	26.68	0.81	-0.750			
0.8891	56903.03	3.2270	3.2270	-0.1564	26.68	0.81	-0.750			
0.8896	56932.87	3.2240	3.2239	-0.1544	26.68	0.81	-0.750			
0.8900	56962.01	3.2210	3.2210	-0.1524	26.69	0.82	-0.750			
0.8905	56991.46	3.2180	3.2180	-0.1510	26.69	0.82	-0.750			
0.8909	57020.36	3.2150	3.2150	-0.1491	26.69	0.82	-0.750			
0.8914	57048.76	3.2120	3.2119	-0.1468	26.69	0.82	-0.750			
0.8918	57076.68	3.2090	3.2090	-0.1443	26.70	0.83	-0.750			
0.8922	57103.93	3.2060	3.2060	-0.1428	26.70	0.83	-0.750			
0.8927	57131.14	3.2030	3.2030	-0.1412	26.70	0.83	-0.750			
0.8931	57158.03	3.2000	3.2001	-0.1404	26.71	0.84	-0.750			
0.8935	57184.75	3.1970	3.1969	-0.1387	26.71	0.84	-0.750			
0.8939	57211.49	3.1940	3.1939	-0.1375	26.72	0.85	-0.750			
0.8943	57237.93	3.1910	3.1911	-0.1363	26.72	0.85	-0.750			
0.8947	57263.90	3.1880	3.1881	-0.1346	26.73	0.86	-0.750			
0.8952	57289.64	3.1850	3.1850	-0.1335	26.73	0.86	-0.750			
0.8955	57314.86	3.1820	3.1821	-0.1315	26.74	0.87	-0.750			
0.8959	57339.95	3.1790	3.1789	-0.1306	26.74	0.87	-0.750			
0.8963	57364.70	3.1760	3.1760	-0.1296	26.75	0.88	-0.750			
0.8967	57389.52	3.1730	3.1731	-0.1290	26.75	0.88	-0.750			
0.8971	57414.41	3.1700	3.1699	-0.1279	26.76	0.89	-0.750			
0.8975	57438.95	3.1670	3.1670	-0.1266	26.76	0.89	-0.750			
0.8979	57463.21	3.1640	3.1640	-0.1254	26.76	0.89	-0.750			
0.8982	57487.10	3.1610	3.1611	-0.1243	26.77	0.90	-0.750			
0.8986	57510.84	3.1580	3.1580	-0.1230	26.77	0.90	-0.750			
0.8990	57534.08	3.1550	3.1550	-0.1219	26.78	0.91	-0.750			
0.8993	57557.20	3.1520	3.1520	-0.1207	26.78	0.91	-0.750			
0.8997	57580.56	3.1490	3.1490	-0.1198	26.79	0.92	-0.750			
0.9001	57603.57	3.1460	3.1459	-0.1191	26.79	0.92	-0.750			
0.9004	57626.24	3.1430	3.1431	-0.1184	26.79	0.92	-0.750			
0.9008	57648.96	3.1400	3.1401	-0.1177	26.80	0.93	-0.750			
0.9011	57671.52	3.1370	3.1370	-0.1167	26.80	0.93	-0.750			
0.9015	57693.82	3.1340	3.1340	-0.1157	26.81	0.94	-0.750			
0.9018	57715.93	3.1310	3.1310	-0.1147	26.81	0.94	-0.750			
0.9022	57737.77	3.1280	3.1279	-0.1136	26.81	0.94	-0.750			
0.9025	57759.48	3.1250	3.1250	-0.1130	26.82	0.95	-0.750			
0.9028	57781.24	3.1220	3.1220	-0.1124	26.82	0.95	-0.750			
0.9032	57802.68	3.1190	3.1190	-0.1116	26.82	0.95	-0.750			
0.9035	57823.79	3.1160	3.1160	-0.1105	26.83	0.96	-0.750			
0.9038	57845.00	3.1130	3.1130	-0.1100	26.83	0.96	-0.750			
0.9042	57866.12	3.1100	3.1099	-0.1095	26.83	0.96	-0.750			
0.9045	57887.12	3.1070	3.1070	-0.1086	26.84	0.97	-0.750			
0.9048	57907.96	3.1040	3.1041	-0.1079	26.84	0.97	-0.750			
0.9051	57928.60	3.1010	3.1011	-0.1069	26.85	0.98	-0.750			
0.9055	57949.06	3.0980	3.0979	-0.1059	26.85	0.98	-0.750			
0.9058	57969.13	3.0950	3.0949	-0.1057	26.86	0.99	-0.750			
0.9061	57989.26	3.0920	3.0921	-0.1051	26.86	0.99	-0.750			
0.9064	58009.50	3.0890	3.0889	-0.1042	26.87	1.00	-0.750			
0.9067	58029.40	3.0860	3.0861	-0.1036	26.87	1.00	-0.750			
0.9070	58049.17	3.0830	3.0831	-0.1034	26.88	1.01	-0.750			
0.9073	58068.98	3.0800	3.0800	-0.1030	26.88	1.01	-0.750			
0.9076	58088.80	3.0770	3.0771	-0.1023	26.88	1.01	-0.750			
0.9079	58108.52	3.0740	3.0738	-0.1019	26.89	1.02	-0.750			
0.9082	58127.96	3.0710	3.0710	-0.1013	26.89	1.02	-0.750			
0.9085	58147.18	3.0680	3.0680	-0.1005	26.90	1.03	-0.750			
0.9089	58166.55	3.0650	3.0651	-0.0997	26.90	1.03	-0.750			
0.9092	58185.89	3.0620	3.0618	-0.0993	26.91	1.04	-0.750			
0.9094	58204.72	3.0590	3.0591	-0.0988	26.91	1.04	-0.750			
0.9097	58223.43	3.0560	3.0560	-0.0979	26.92	1.05	-0.750			
0.9100	58242.16	3.0530	3.0531	-0.0975	26.92	1.05	-0.750			
0.9103	58260.85	3.0500	3.0500	-0.0971	26.93	1.06	-0.750			
0.9106	58279.46	3.0470	3.0470	-0.0968	26.93	1.06	-0.750			
0.9109	58297.93	3.0440	3.0441	-0.0961	26.94	1.07	-0.750			
0.9112	58316.36	3.0410	3.0410	-0.0958	26.94	1.07	-0.750			
0.9115	58334.92	3.0380	3.0380	-0.0953	26.94	1.07	-0.750			
0.9118	58353.15	3.0350	3.0351	-0.0946	26.95	1.08	-0.750			
0.9120	58371.20	3.0320	3.0320	-0.0939	26.95	1.08	-0.750			
0.9123	58389.17	3.0290	3.0289	-0.0933	26.96	1.09	-0.750			
0.9126	58406.95	3.0260	3.0259	-0.0928	26.96	1.09	-0.750			
0.9129	58424.72	3.0230	3.0231	-0.0923	26.97	1.10	-0.750			
0.9132	58442.35	3.0200	3.0199	-0.0919	26.97	1.10	-0.750			
0.9134	58459.97	3.0170	3.0171	-0.0916	26.97	1.10	-0.750			
0.9137	58477.66	3.0140	3.0140	-0.0908	26.98	1.11	-0.750			
0.9140	58495.02	3.0110	3.0109	-0.0900	26.98	1.11	-0.750			
0.9143	58512.39	3.0080	3.0080	-0.0891	26.99	1.12	-0.751			
0.9145	58529.39	3.0050	3.0050	-0.0880	26.99	1.12	-0.751			
0.9148	58546.15	3.0020	3.0020	-0.0853	27.00	1.13	-0.751			
