Ah_balance (normalized)	Ah_balance (mAh)	Voltage - fit (V)	Voltage -  interpolate (V)	dQ/dV (1/V)	Temperature (°C)	Temperature - diff (°C)	Current (C)	R_DC 0ms (mOhm)	R_DC 50ms (mOhm)	R_DC 50 ms PEC (mOhm)
0.0549	3516.15	4.1980	4.1980	0.7051	26.58	0.60	0.750			
0.0571	3656.43	4.1950	4.1950	0.7402	26.58	0.60	0.750			
0.0594	3800.58	4.1920	4.1920	0.7504	26.58	0.60	0.750			
0.0616	3945.15	4.1890	4.1891	0.7567	26.58	0.60	0.750			
0.0639	4092.56	4.1860	4.1861	0.7562	26.58	0.60	0.750			
0.0662	4238.24	4.1830	4.1830	0.7573	26.58	0.60	0.750			
0.0685	4381.79	4.1800	4.1800	0.7542	26.58	0.60	0.750			
0.0707	4526.57	4.1770	4.1767	0.7550	26.58	0.60	0.750			
0.0730	4672.27	4.1740	4.1740	0.7589	26.58	0.60	0.750			
0.0753	4818.73	4.1710	4.1710	0.7536	26.58	0.60	0.750			
0.0776	4964.02	4.1680	4.1681	0.7598	26.58	0.60	0.750			
0.0798	5109.97	4.1650	4.1650	0.7572	26.58	0.60	0.750			
0.0821	5255.64	4.1620	4.1621	0.7616	26.58	0.60	0.750			
0.0844	5402.60	4.1590	4.1592	0.7628	26.58	0.60	0.750			
0.0867	5548.41	4.1560	4.1560	0.7608	26.58	0.60	0.750			
0.0890	5694.50	4.1530	4.1530	0.7637	26.58	0.60	0.750			
0.0913	5841.40	4.1500	4.1500	0.7661	26.58	0.60	0.750			
0.0936	5988.88	4.1470	4.1470	0.7655	26.58	0.60	0.750			
0.0959	6135.64	4.1440	4.1438	0.7686	26.58	0.60	0.750			
0.0982	6283.64	4.1410	4.1411	0.7658	26.58	0.60	0.750			
0.1005	6431.99	4.1380	4.1380	0.7652	26.58	0.60	0.750			
0.1028	6578.48	4.1350	4.1350	0.7692	26.58	0.60	0.750			
0.1051	6725.34	4.1320	4.1320	0.7698	26.58	0.60	0.750			
0.1074	6872.26	4.1290	4.1289	0.7730	26.58	0.60	0.750			
0.1097	7021.74	4.1260	4.1260	0.7757	26.58	0.60	0.750			
0.1120	7171.16	4.1230	4.1230	0.7765	26.58	0.60	0.750			
0.1144	7321.95	4.1200	4.1200	0.7791	26.58	0.60	0.750			
0.1167	7471.51	4.1170	4.1170	0.7813	26.58	0.60	0.750			
0.1191	7620.30	4.1140	4.1140	0.7798	26.58	0.60	0.750			
0.1214	7770.04	4.1110	4.1110	0.7797	26.58	0.60	0.750			
0.1237	7919.22	4.1080	4.1080	0.7831	26.58	0.60	0.750			
0.1261	8070.77	4.1050	4.1050	0.7845	26.59	0.61	0.750			
0.1285	8221.30	4.1020	4.1020	0.7840	26.59	0.61	0.750			
0.1308	8372.26	4.0990	4.0990	0.7862	26.60	0.62	0.750			
0.1332	8522.30	4.0960	4.0958	0.7897	26.60	0.62	0.750			
0.1355	8674.85	4.0930	4.0930	0.7913	26.60	0.62	0.750			
0.1379	8828.61	4.0900	4.0900	0.7865	26.60	0.62	0.750			
0.1403	8978.10	4.0870	4.0870	0.7909	26.60	0.62	0.750			
0.1427	9130.70	4.0840	4.0841	0.7964	26.60	0.62	0.750			
0.1450	9282.60	4.0810	4.0809	0.7997	26.60	0.62	0.750			
0.1474	9436.26	4.0780	4.0781	0.8021	26.60	0.62	0.750			
0.1499	9591.38	4.0750	4.0751	0.8021	26.60	0.62	0.750			
0.1523	9746.86	4.0720	4.0720	0.8051	26.60	0.62	0.750			
0.1547	9903.04	4.0690	4.0690	0.8079	26.60	0.62	0.750			
0.1571	10054.91	4.0660	4.0661	0.8035	26.60	0.62	0.750			
0.1595	10208.63	4.0630	4.0630	0.8088	26.60	0.62	0.750			
0.1619	10364.28	4.0600	4.0600	0.8108	26.60	0.62	0.750			
0.1644	10520.90	4.0570	4.0570	0.8186	26.60	0.62	0.750			
0.1669	10680.77	4.0540	4.0540	0.8234	26.60	0.62	0.750			
0.1693	10837.94	4.0510	4.0511	0.8230	26.60	0.62	0.750			
0.1718	10996.78	4.0480	4.0480	0.8247	26.60	0.62	0.750			
0.1743	11157.74	4.0450	4.0450	0.8179	26.61	0.63	0.750			
0.1768	11312.26	4.0420	4.0419	0.8216	26.61	0.63	0.750			
0.1792	11468.65	4.0390	4.0391	0.8264	26.61	0.63	0.750			
0.1817	11626.69	4.0360	4.0361	0.8309	26.62	0.64	0.750			
0.1842	11786.90	4.0330	4.0331	0.8406	26.62	0.64	0.750			
0.1867	11950.27	4.0300	4.0301	0.8398	26.62	0.64	0.750			
0.1893	12112.96	4.0270	4.0270	0.8472	26.62	0.64	0.750			
0.1918	12276.31	4.0240	4.0241	0.8500	26.62	0.64	0.750			
0.1944	12438.45	4.0210	4.0211	0.8444	26.62	0.64	0.750			
0.1969	12601.19	4.0180	4.0181	0.8503	26.62	0.64	0.750			
0.1995	12766.43	4.0150	4.0150	0.8458	26.62	0.64	0.750			
0.2020	12926.90	4.0120	4.0121	0.8536	26.62	0.64	0.750			
0.2046	13092.82	4.0090	4.0091	0.8542	26.62	0.64	0.750			
0.2071	13257.14	4.0060	4.0060	0.8529	26.62	0.64	0.750			
0.2097	13419.92	4.0030	4.0031	0.8589	26.62	0.64	0.750			
0.2123	13585.36	4.0000	4.0000	0.8577	26.62	0.64	0.750			
0.2148	13749.23	3.9970	3.9969	0.8645	26.62	0.64	0.750			
0.2175	13918.30	3.9940	3.9940	0.8706	26.62	0.64	0.750			
0.2201	14083.40	3.9910	3.9910	0.8659	26.62	0.64	0.750			
0.2227	14252.50	3.9880	3.9881	0.8741	26.62	0.64	0.750			
0.2253	14420.27	3.9850	3.9850	0.8743	26.62	0.64	0.750			
0.2279	14587.23	3.9820	3.9820	0.8746	26.62	0.64	0.750			
0.2306	14756.12	3.9790	3.9790	0.8768	26.62	0.64	0.750			
0.2332	14922.20	3.9760	3.9758	0.8752	26.62	0.64	0.750			
0.2358	15093.15	3.9730	3.9731	0.8762	26.62	0.64	0.750			
0.2384	15260.67	3.9700	3.9700	0.8767	26.63	0.65	0.750			
0.2411	15428.84	3.9670	3.9670	0.8814	26.63	0.65	0.750			
0.2437	15599.56	3.9640	3.9640	0.8821	26.64	0.66	0.750			
0.2464	15768.43	3.9610	3.9610	0.8803	26.64	0.66	0.750			
0.2490	15938.28	3.9580	3.9581	0.8790	26.64	0.66	0.750			
0.2516	16104.35	3.9550	3.9550	0.8819	26.64	0.66	0.750			
0.2543	16273.72	3.9520	3.9520	0.8881	26.63	0.65	0.750			
0.2569	16443.99	3.9490	3.9490	0.8853	26.63	0.65	0.750			
0.2596	16615.16	3.9460	3.9461	0.8865	26.63	0.65	0.750			
0.2623	16789.60	3.9430	3.9431	0.8901	26.63	0.65	0.750			
0.2650	16959.35	3.9400	3.9401	0.8875	26.63	0.65	0.750			
0.2676	17128.33	3.9370	3.9371	0.8866	26.63	0.65	0.750			
0.2703	17296.41	3.9340	3.9338	0.8841	26.63	0.65	0.750			
0.2729	17465.53	3.9310	3.9310	0.8861	26.63	0.65	0.750			
0.2756	17637.13	3.9280	3.9281	0.8931	26.63	0.65	0.750			
0.2783	17811.36	3.9250	3.9250	0.8983	26.62	0.64	0.750			
0.2810	17983.83	3.9220	3.9221	0.8985	26.62	0.64	0.750			
0.2836	18152.69	3.9190	3.9190	0.8986	26.62	0.64	0.750			
0.2864	18327.42	3.9160	3.9159	0.8978	26.62	0.64	0.750			
0.2890	18498.52	3.9130	3.9130	0.9033	26.61	0.63	0.750			
0.2918	18672.33	3.9100	3.9100	0.9083	26.61	0.63	0.750			
0.2945	18847.09	3.9070	3.9073	0.9164	26.60	0.62	0.750			
0.2973	19025.03	3.9040	3.9040	0.9200	26.60	0.62	0.750			
0.3000	19202.82	3.9010	3.9010	0.9150	26.59	0.61	0.750			
0.3028	19377.65	3.8980	3.8979	0.9199	26.59	0.61	0.750			
0.3055	19554.39	3.8950	3.8952	0.9274	26.58	0.60	0.750			
0.3083	19729.66	3.8920	3.8918	0.9307	26.58	0.60	0.750			
0.3111	19909.78	3.8890	3.8891	0.9355	26.57	0.59	0.750			
0.3139	20089.79	3.8860	3.8860	0.9434	26.56	0.58	0.750			
0.3168	20273.50	3.8830	3.8830	0.9568	26.55	0.57	0.750			
0.3197	20458.60	3.8800	3.8800	0.9552	26.54	0.56	0.750			
0.3226	20644.98	3.8770	3.8770	0.9445	26.54	0.56	0.750			
0.3254	20826.61	3.8740	3.8741	0.9458	26.53	0.55	0.750			
0.3282	21007.01	3.8710	3.8711	0.9437	26.53	0.55	0.750			
0.3310	21184.72	3.8680	3.8681	0.9532	26.52	0.54	0.750			
0.3338	21364.86	3.8650	3.8649	0.9542	26.52	0.54	0.750			
0.3367	21549.18	3.8620	3.8620	0.9601	26.51	0.53	0.750			
0.3397	21738.72	3.8590	3.8590	0.9722	26.50	0.52	0.750			
0.3426	21927.49	3.8560	3.8561	0.9744	26.50	0.52	0.750			
0.3455	22114.11	3.8530	3.8530	0.9714	26.49	0.51	0.750			
0.3485	22303.29	3.8500	3.8499	0.9606	26.48	0.50	0.750			
0.3513	22484.98	3.8470	3.8470	0.9630	26.47	0.49	0.750			
0.3542	22668.24	3.8440	3.8441	0.9707	26.46	0.48	0.750			
0.3571	22854.84	3.8410	3.8411	0.9748	26.45	0.47	0.750			
0.3600	23042.85	3.8380	3.8381	0.9799	26.44	0.46	0.750			
0.3630	23231.01	3.8350	3.8351	0.9782	26.43	0.45	0.750			
0.3659	23418.33	3.8320	3.8321	0.9842	26.43	0.45	0.750			
0.3689	23609.78	3.8290	3.8290	0.9931	26.42	0.44	0.750			
0.3718	23797.19	3.8260	3.8261	0.9930	26.42	0.44	0.750			
0.3748	23988.10	3.8230	3.8230	1.0048	26.40	0.42	0.750			
0.3779	24184.42	3.8200	3.8200	1.0131	26.39	0.41	0.750			
0.3809	24380.44	3.8170	3.8170	1.0218	26.38	0.40	0.750			
0.3841	24579.28	3.8140	3.8140	1.0206	26.37	0.39	0.750			
0.3871	24775.53	3.8110	3.8110	1.0249	26.36	0.38	0.750			
0.3902	24971.66	3.8080	3.8080	1.0317	26.35	0.37	0.750			
0.3933	25168.27	3.8050	3.8052	1.0426	26.35	0.37	0.750			
0.3964	25369.30	3.8020	3.8018	1.0510	26.34	0.36	0.750			
0.3995	25571.02	3.7990	3.7990	1.0742	26.33	0.35	0.750			
0.4028	25776.92	3.7960	3.7960	1.0906	26.32	0.34	0.750			
0.4061	25991.69	3.7930	3.7930	1.1055	26.32	0.34	0.750			
0.4095	26209.78	3.7900	3.7899	1.1058	26.31	0.33	0.750			
0.4128	26421.06	3.7870	3.7872	1.1240	26.30	0.32	0.750			
0.4162	26635.51	3.7840	3.7841	1.1380	26.28	0.30	0.750			
0.4196	26856.91	3.7810	3.7808	1.1522	26.27	0.29	0.750			
0.4230	27073.68	3.7780	3.7781	1.1780	26.26	0.28	0.750			
0.4266	27299.88	3.7750	3.7751	1.1999	26.25	0.27	0.750			
0.4302	27532.86	3.7720	3.7722	1.2432	26.24	0.26	0.750			
0.4340	27774.07	3.7690	3.7689	1.2767	26.23	0.25	0.750			
0.4379	28025.99	3.7660	3.7662	1.3101	26.22	0.24	0.750	0.321	0.426	
0.4419	28283.42	3.7630	3.7633	1.3412	26.20	0.22	0.750			
0.4460	28546.77	3.7600	3.7600	1.3572	26.19	0.21	0.750			
0.4501	28808.71	3.7570	3.7570	1.3737	26.18	0.20	0.750			
0.4542	29070.59	3.7540	3.7541	1.3726	26.16	0.18	0.750			
0.4584	29337.24	3.7510	3.7508	1.4054	26.15	0.17	0.750			
0.4626	29605.55	3.7480	3.7481	1.4514	26.14	0.16	0.750			
0.4670	29889.64	3.7450	3.7451	1.4936	26.12	0.14	0.750			
0.4716	30180.05	3.7420	3.7419	1.5437	26.11	0.13	0.750			
0.4763	30481.34	3.7390	3.7390	1.5819	26.09	0.11	0.750			
0.4811	30789.23	3.7360	3.7361	1.6151	26.08	0.10	0.750			
0.4860	31102.83	3.7330	3.7331	1.6607	26.06	0.08	0.750			
0.4910	31426.95	3.7300	3.7301	1.6894	26.05	0.07	0.750			
0.4961	31749.58	3.7270	3.7267	1.7350	26.03	0.05	0.750			
0.5014	32090.11	3.7240	3.7239	1.7844	26.01	0.03	0.750			
0.5068	32434.94	3.7210	3.7210	1.8338	25.99	0.01	0.750			
0.5124	32792.19	3.7180	3.7179	1.9041	25.98	-0.00	0.750			
0.5182	33163.06	3.7150	3.7148	1.9430	25.96	-0.02	0.750			
0.5240	33538.08	3.7120	3.7120	2.0151	25.94	-0.04	0.750			
0.5303	33941.15	3.7090	3.7091	2.0672	25.93	-0.05	0.750			
0.5366	34342.24	3.7060	3.7059	2.1046	25.92	-0.06	0.750			
0.5430	34752.90	3.7030	3.7031	2.1609	25.91	-0.07	0.750			
0.5495	35167.04	3.7000	3.6998	2.2473	25.89	-0.09	0.750			
0.5564	35606.47	3.6970	3.6971	2.2885	25.87	-0.11	0.750			
0.5633	36049.49	3.6940	3.6940	2.3576	25.85	-0.13	0.750			
0.5705	36513.62	3.6910	3.6912	2.4774	25.83	-0.15	0.750			
0.5780	36989.88	3.6880	3.6880	2.5816	25.82	-0.16	0.750			
0.5859	37498.99	3.6850	3.6848	2.6718	25.81	-0.17	0.750			
0.5942	38031.37	3.6820	3.6820	2.7865	25.79	-0.19	0.750			
0.6026	38567.77	3.6790	3.6789	2.8072	25.78	-0.20	0.750			
0.6111	39111.68	3.6760	3.6760	2.8778	25.77	-0.21	0.750			
0.6202	39692.33	3.6730	3.6729	2.9013	25.75	-0.23	0.750			
0.6292	40266.74	3.6700	3.6701	2.8120	25.75	-0.23	0.750			
0.6377	40809.87	3.6670	3.6671	2.6327	25.75	-0.23	0.750			
0.6450	41279.10	3.6640	3.6640	2.3656	25.75	-0.23	0.750			
0.6514	41690.55	3.6610	3.6610	2.0889	25.75	-0.23	0.750			
0.6572	42061.62	3.6580	3.6580	1.8952	25.75	-0.23	0.750			
0.6624	42392.10	3.6550	3.6547	1.7230	25.75	-0.23	0.750			
0.6672	42702.95	3.6520	3.6521	1.5759	25.75	-0.23	0.750			
0.6718	42996.39	3.6490	3.6489	1.4815	25.75	-0.23	0.750			
0.6761	43272.96	3.6460	3.6463	1.3938	25.75	-0.23	0.750			
0.6801	43525.33	3.6430	3.6430	1.3094	25.75	-0.23	0.750			
0.6839	43769.45	3.6400	3.6398	1.2440	25.75	-0.23	0.750			
0.6873	43989.84	3.6370	3.6372	1.2068	25.75	-0.23	0.750			
0.6908	44214.20	3.6340	3.6341	1.1994	25.75	-0.23	0.750			
0.6945	44448.53	3.6310	3.6308	1.1930	25.75	-0.23	0.750			
0.6980	44673.94	3.6280	3.6280	1.1947	25.75	-0.23	0.750			
0.7016	44903.82	3.6250	3.6253	1.2065	25.75	-0.23	0.750			
0.7053	45138.40	3.6220	3.6221	1.2096	25.76	-0.22	0.750			
0.7090	45374.90	3.6190	3.6189	1.1941	25.76	-0.22	0.750			
0.7126	45603.75	3.6160	3.6161	1.1821	25.76	-0.22	0.750			
0.7161	45830.85	3.6130	3.6130	1.1669	25.76	-0.22	0.750			
0.7196	46055.42	3.6100	3.6100	1.1512	25.76	-0.22	0.750			
0.7230	46269.16	3.6070	3.6071	1.1316	25.76	-0.22	0.750			
0.7263	46480.51	3.6040	3.6041	1.1250	25.76	-0.22	0.750			
0.7296	46693.80	3.6010	3.6010	1.1414	25.75	-0.23	0.750			
0.7330	46914.41	3.5980	3.5978	1.1519	25.75	-0.23	0.750			
0.7365	47134.03	3.5950	3.5951	1.1772	25.75	-0.23	0.750			
0.7400	47361.96	3.5920	3.5921	1.2092	25.75	-0.23	0.750			
0.7437	47598.30	3.5890	3.5891	1.2443	25.75	-0.23	0.750			
0.7475	47837.16	3.5860	3.5860	1.2822	25.75	-0.23	0.750			
0.7514	48086.42	3.5830	3.5831	1.3217	25.75	-0.23	0.750			
0.7554	48348.12	3.5800	3.5800	1.3610	25.75	-0.23	0.750			
0.7596	48617.45	3.5770	3.5769	1.4078	25.75	-0.23	0.750			
0.7638	48884.44	3.5740	3.5741	1.4671	25.75	-0.23	0.750			
0.7683	49172.33	3.5710	3.5712	1.5082	25.75	-0.23	0.750			
0.7730	49469.16	3.5680	3.5682	1.5488	25.75	-0.23	0.750			
0.7777	49771.61	3.5650	3.5653	1.5907	25.75	-0.23	0.750			
0.7826	50086.04	3.5620	3.5621	1.6177	25.75	-0.23	0.750			
0.7875	50397.20	3.5590	3.5591	1.6438	25.75	-0.23	0.750			
0.7924	50713.33	3.5560	3.5562	1.6589	25.75	-0.23	0.750			
0.7974	51033.31	3.5530	3.5528	1.6786	25.75	-0.23	0.750			
0.8025	51362.79	3.5500	3.5498	1.7019	25.75	-0.23	0.750			
0.8077	51692.82	3.5470	3.5469	1.7190	25.75	-0.23	0.750			
0.8129	52022.57	3.5440	3.5441	1.7200	25.75	-0.23	0.750			
0.8180	52349.29	3.5410	3.5413	1.7557	25.76	-0.22	0.750			
0.8235	52704.91	3.5380	3.5376	1.7327	25.77	-0.21	0.750			
0.8290	53052.91	3.5350	3.5347	1.6595	25.78	-0.20	0.750			
0.8342	53387.04	3.5320	3.5320	1.5127	25.79	-0.19	0.750			
0.8388	53684.56	3.5290	3.5297	1.2857	25.81	-0.17	0.750			
0.8424	53913.23	3.5260	3.5262	1.0198	25.82	-0.16	0.750			
0.8447	54059.94	3.5230	3.5226	0.7846	25.83	-0.15	0.750			
0.8460	54145.67	3.5200	3.5197	0.5333	25.83	-0.15	0.750			
0.8473	54226.26	3.5170	3.5168	0.4442	25.84	-0.14	0.750			
0.8484	54296.68	3.5140	3.5140	0.3792	25.85	-0.13	0.750			
0.8494	54363.34	3.5110	3.5111	0.3504	25.85	-0.13	0.750			
0.8504	54426.93	3.5080	3.5079	0.3273	25.86	-0.12	0.750			
0.8513	54484.90	3.5050	3.5049	0.3086	25.87	-0.11	0.750			
0.8522	54542.43	3.5020	3.5020	0.2974	25.87	-0.11	0.750			
0.8531	54598.36	3.4990	3.4990	0.2893	25.88	-0.10	0.750			
0.8540	54653.20	3.4960	3.4960	0.2823	25.88	-0.10	0.750			
0.8548	54706.29	3.4930	3.4930	0.2751	25.89	-0.09	0.750			
0.8556	54758.13	3.4900	3.4899	0.2675	25.89	-0.09	0.750			
0.8564	54808.77	3.4870	3.4870	0.2626	25.90	-0.08	0.750			
0.8572	54858.15	3.4840	3.4840	0.2581	25.90	-0.08	0.750			
0.8579	54907.79	3.4810	3.4810	0.2532	25.91	-0.07	0.750			
0.8587	54955.78	3.4780	3.4780	0.2486	25.91	-0.07	0.750			
0.8594	55003.26	3.4750	3.4750	0.2426	25.92	-0.06	0.750			
0.8601	55049.49	3.4720	3.4721	0.2372	25.92	-0.06	0.750			
0.8609	55094.71	3.4690	3.4689	0.2315	25.92	-0.06	0.750			
0.8615	55138.68	3.4660	3.4661	0.2270	25.93	-0.05	0.750			
0.8622	55181.23	3.4630	3.4629	0.2207	25.93	-0.05	0.750			
0.8629	55222.72	3.4600	3.4599	0.2154	25.94	-0.04	0.750			
0.8635	55264.05	3.4570	3.4570	0.2115	25.94	-0.04	0.750			
0.8641	55303.82	3.4540	3.4541	0.2063	25.94	-0.04	0.750			
0.8647	55343.49	3.4510	3.4509	0.2025	25.95	-0.03	0.750			
0.8653	55381.79	3.4480	3.4480	0.1971	25.95	-0.03	0.750			
0.8659	55419.14	3.4450	3.4450	0.1920	25.95	-0.03	0.750			
0.8665	55455.43	3.4420	3.4420	0.1864	25.96	-0.02	0.750			
0.8670	55490.87	3.4390	3.4390	0.1822	25.96	-0.02	0.750			
0.8676	55525.42	3.4360	3.4360	0.1764	25.96	-0.02	0.750			
0.8681	55558.77	3.4330	3.4330	0.1710	25.96	-0.02	0.750			
0.8686	55591.10	3.4300	3.4299	0.1657	25.97	-0.01	0.750			
0.8691	55622.43	3.4270	3.4271	0.1601	25.97	-0.01	0.750			
0.8696	55652.59	3.4240	3.4240	0.1549	25.97	-0.01	0.750			
0.8700	55681.82	3.4210	3.4210	0.1495	25.98	-0.00	0.750			
0.8705	55710.19	3.4180	3.4180	0.1435	25.98	-0.00	0.750			
0.8709	55736.99	3.4150	3.4150	0.1373	25.98	0.00	0.750			
0.8713	55763.15	3.4120	3.4121	0.1319	25.98	0.00	0.750			
0.8717	55787.86	3.4090	3.4091	0.1254	25.98	0.00	0.750			
0.8721	55811.47	3.4060	3.4059	0.1182	25.99	0.01	0.750			
0.8724	55833.68	3.4030	3.4030	0.1114	25.99	0.01	0.750			
0.8727	55855.40	3.4000	3.4000	0.1012	25.99	0.01	0.750			
0.8730	55874.35	3.3970	3.3969	0.0927	25.99	0.01	0.750			
0.8733	55891.99	3.3940	3.3941	0.0846	25.99	0.01	0.750			
0.8735	55907.15	3.3910	3.3912	0.0733	26.00	0.02	0.750			
0.8738	55920.75	3.3880	3.3883	0.0624	26.00	0.02	0.750			
0.8739	55931.58	3.3850	3.3856	0.0504	26.00	0.02	0.750			
0.8741	55940.09	3.3820	3.3830	0.0383	26.00	0.02	0.750			
0.8742	55946.28	3.3790	3.3805	0.0262	26.00	0.02	0.750			
