Ah_balance (normalized)	Ah_balance (mAh)	Voltage - fit (V)	Voltage -  interpolate (V)	dQ/dV (1/V)	Temperature (°C)	Temperature - diff (°C)	Current (C)	R_DC 0ms (mOhm)	R_DC 50ms (mOhm)	R_DC 50 ms PEC (mOhm)
0.0580	3712.42	4.1990	4.1990	0.7349	26.02	0.03	0.750			
0.0602	3855.58	4.1960	4.1957	0.7464	26.02	0.03	0.750			
0.0625	3998.57	4.1930	4.1931	0.7400	26.02	0.03	0.750			
0.0647	4139.18	4.1900	4.1901	0.7393	26.02	0.03	0.750			
0.0669	4280.18	4.1870	4.1869	0.7450	26.03	0.04	0.750			
0.0691	4423.49	4.1840	4.1839	0.7466	26.03	0.04	0.750			
0.0714	4567.07	4.1810	4.1811	0.7496	26.03	0.04	0.750			
0.0736	4713.36	4.1780	4.1782	0.7553	26.03	0.04	0.750			
0.0759	4859.61	4.1750	4.1750	0.7548	26.03	0.04	0.750			
0.0782	5005.21	4.1720	4.1720	0.7507	26.03	0.04	0.750			
0.0804	5146.55	4.1690	4.1690	0.7492	26.03	0.04	0.750			
0.0827	5289.91	4.1660	4.1661	0.7491	26.03	0.04	0.750			
0.0849	5433.69	4.1630	4.1629	0.7489	26.03	0.04	0.750			
0.0871	5577.56	4.1600	4.1601	0.7510	26.03	0.04	0.750			
0.0894	5722.85	4.1570	4.1570	0.7496	26.04	0.05	0.750			
0.0917	5866.61	4.1540	4.1539	0.7557	26.04	0.05	0.750			
0.0939	6011.34	4.1510	4.1511	0.7531	26.04	0.05	0.750			
0.0962	6156.75	4.1480	4.1481	0.7527	26.05	0.06	0.750			
0.0985	6301.84	4.1450	4.1450	0.7556	26.05	0.06	0.750			
0.1007	6446.80	4.1420	4.1421	0.7591	26.05	0.06	0.750			
0.1030	6592.47	4.1390	4.1390	0.7556	26.05	0.06	0.750			
0.1053	6737.95	4.1360	4.1359	0.7558	26.05	0.06	0.750			
0.1075	6880.76	4.1330	4.1330	0.7565	26.05	0.06	0.750			
0.1098	7028.33	4.1300	4.1299	0.7607	26.05	0.06	0.750			
0.1121	7175.02	4.1270	4.1270	0.7630	26.05	0.06	0.750			
0.1144	7321.10	4.1240	4.1240	0.7592	26.06	0.07	0.750			
0.1167	7466.83	4.1210	4.1210	0.7578	26.06	0.07	0.750			
0.1189	7612.80	4.1180	4.1180	0.7644	26.06	0.07	0.750			
0.1212	7758.52	4.1150	4.1149	0.7627	26.07	0.08	0.750			
0.1235	7903.07	4.1120	4.1121	0.7685	26.07	0.08	0.750			
0.1258	8052.75	4.1090	4.1090	0.7766	26.07	0.08	0.750			
0.1282	8202.46	4.1060	4.1060	0.7819	26.07	0.08	0.750			
0.1305	8354.56	4.1030	4.1031	0.7841	26.07	0.08	0.750			
0.1329	8505.97	4.1000	4.1000	0.7832	26.07	0.08	0.750			
0.1353	8656.10	4.0970	4.0970	0.7785	26.07	0.08	0.750			
0.1376	8805.44	4.0940	4.0940	0.7809	26.07	0.08	0.750			
0.1399	8953.57	4.0910	4.0909	0.7807	26.08	0.09	0.750			
0.1423	9104.19	4.0880	4.0880	0.7821	26.08	0.09	0.750			
0.1446	9254.34	4.0850	4.0851	0.7817	26.08	0.09	0.750			
0.1470	9405.80	4.0820	4.0820	0.7830	26.09	0.10	0.750			
0.1493	9556.00	4.0790	4.0790	0.7819	26.09	0.10	0.750			
0.1517	9705.78	4.0760	4.0760	0.7833	26.09	0.10	0.750			
0.1540	9855.41	4.0730	4.0730	0.7802	26.09	0.10	0.750			
0.1563	10004.67	4.0700	4.0700	0.7818	26.09	0.10	0.750			
0.1587	10154.59	4.0670	4.0671	0.7890	26.09	0.10	0.750			
0.1610	10306.59	4.0640	4.0640	0.7932	26.09	0.10	0.750			
0.1634	10459.86	4.0610	4.0609	0.7952	26.09	0.10	0.750			
0.1658	10612.74	4.0580	4.0580	0.7995	26.10	0.11	0.750			
0.1682	10765.95	4.0550	4.0551	0.8070	26.10	0.11	0.750			
0.1707	10922.54	4.0520	4.0520	0.8125	26.11	0.12	0.750			
0.1731	11078.46	4.0490	4.0489	0.8131	26.11	0.12	0.750			
0.1755	11234.37	4.0460	4.0460	0.8178	26.11	0.12	0.750			
0.1780	11395.06	4.0430	4.0431	0.8117	26.12	0.13	0.750			
0.1805	11549.16	4.0400	4.0400	0.8124	26.12	0.13	0.750			
0.1829	11702.89	4.0370	4.0371	0.8135	26.13	0.14	0.750			
0.1853	11858.66	4.0340	4.0335	0.8160	26.13	0.14	0.750			
0.1877	12014.77	4.0310	4.0311	0.8224	26.13	0.14	0.750			
0.1902	12173.52	4.0280	4.0281	0.8259	26.14	0.15	0.750			
0.1927	12334.67	4.0250	4.0250	0.8306	26.14	0.15	0.750			
0.1952	12495.13	4.0220	4.0220	0.8287	26.15	0.16	0.750			
0.1977	12653.28	4.0190	4.0189	0.8335	26.15	0.16	0.750			
0.2002	12812.83	4.0160	4.0160	0.8353	26.15	0.16	0.750			
0.2027	12974.99	4.0130	4.0129	0.8365	26.15	0.16	0.750			
0.2052	13134.95	4.0100	4.0100	0.8384	26.15	0.16	0.750			
0.2078	13296.62	4.0070	4.0071	0.8386	26.15	0.16	0.750			
0.2103	13458.18	4.0040	4.0039	0.8412	26.15	0.16	0.750			
0.2128	13619.44	4.0010	4.0009	0.8430	26.15	0.16	0.750			
0.2153	13780.39	3.9980	3.9980	0.8428	26.16	0.17	0.750			
0.2179	13942.44	3.9950	3.9950	0.8472	26.16	0.17	0.750			
0.2204	14106.04	3.9920	3.9920	0.8469	26.17	0.18	0.750			
0.2229	14268.69	3.9890	3.9888	0.8473	26.17	0.18	0.750			
0.2255	14432.27	3.9860	3.9861	0.8475	26.17	0.18	0.750			
0.2280	14594.71	3.9830	3.9830	0.8485	26.17	0.18	0.750			
0.2306	14757.32	3.9800	3.9800	0.8485	26.18	0.19	0.750			
0.2331	14919.00	3.9770	3.9770	0.8472	26.18	0.19	0.750			
0.2357	15082.21	3.9740	3.9740	0.8509	26.18	0.19	0.750			
0.2382	15246.77	3.9710	3.9710	0.8516	26.18	0.19	0.750			
0.2408	15410.61	3.9680	3.9680	0.8527	26.18	0.19	0.750			
0.2434	15574.49	3.9650	3.9650	0.8542	26.19	0.20	0.750			
0.2459	15738.03	3.9620	3.9619	0.8546	26.19	0.20	0.750			
0.2485	15901.29	3.9590	3.9590	0.8595	26.19	0.20	0.750			
0.2511	16067.79	3.9560	3.9560	0.8569	26.19	0.20	0.750			
0.2536	16232.92	3.9530	3.9530	0.8594	26.19	0.20	0.750			
0.2562	16397.71	3.9500	3.9500	0.8631	26.19	0.20	0.750			
0.2588	16562.64	3.9470	3.9471	0.8662	26.19	0.20	0.750			
0.2614	16729.44	3.9440	3.9440	0.8670	26.19	0.20	0.750			
0.2640	16896.26	3.9410	3.9410	0.8692	26.19	0.20	0.750			
0.2666	17063.28	3.9380	3.9381	0.8708	26.19	0.20	0.750			
0.2693	17232.27	3.9350	3.9351	0.8749	26.19	0.20	0.750			
0.2719	17399.57	3.9320	3.9319	0.8784	26.19	0.20	0.750			
0.2745	17568.74	3.9290	3.9290	0.8791	26.19	0.20	0.750			
0.2771	17737.09	3.9260	3.9260	0.8803	26.19	0.20	0.750			
0.2798	17906.90	3.9230	3.9231	0.8836	26.18	0.19	0.750			
0.2825	18077.07	3.9200	3.9200	0.8864	26.18	0.19	0.750			
0.2851	18247.13	3.9170	3.9169	0.8883	26.18	0.19	0.750			
0.2878	18419.63	3.9140	3.9140	0.8846	26.18	0.19	0.750			
0.2904	18587.74	3.9110	3.9110	0.8881	26.18	0.19	0.750			
0.2931	18759.02	3.9080	3.9081	0.8948	26.17	0.18	0.750			
0.2958	18930.39	3.9050	3.9050	0.8980	26.17	0.18	0.750			
0.2985	19102.98	3.9020	3.9019	0.9028	26.17	0.18	0.750			
0.3012	19277.40	3.8990	3.8990	0.9049	26.16	0.17	0.750			
0.3039	19451.95	3.8960	3.8960	0.9081	26.16	0.17	0.750			
0.3067	19627.50	3.8930	3.8931	0.9090	26.16	0.17	0.750			
0.3094	19801.20	3.8900	3.8899	0.9040	26.15	0.16	0.750			
0.3121	19975.37	3.8870	3.8869	0.9061	26.15	0.16	0.750			
0.3148	20148.31	3.8840	3.8841	0.9025	26.14	0.15	0.750			
0.3175	20319.88	3.8810	3.8811	0.9105	26.13	0.14	0.750			
0.3203	20496.09	3.8780	3.8780	0.9161	26.13	0.14	0.750			
0.3230	20672.48	3.8750	3.8748	0.9185	26.12	0.13	0.750			
0.3258	20850.75	3.8720	3.8721	0.9155	26.11	0.12	0.750			
0.3285	21026.82	3.8690	3.8691	0.9188	26.11	0.12	0.750			
0.3313	21204.44	3.8660	3.8660	0.9201	26.10	0.11	0.750			
0.3340	21378.90	3.8630	3.8630	0.9156	26.09	0.10	0.750			
0.3368	21554.14	3.8600	3.8602	0.9179	26.09	0.10	0.750			
0.3395	21731.05	3.8570	3.8570	0.9242	26.08	0.09	0.750			
0.3423	21908.87	3.8540	3.8540	0.9287	26.07	0.08	0.750			
0.3452	22089.75	3.8510	3.8510	0.9344	26.07	0.08	0.750			
0.3479	22268.28	3.8480	3.8480	0.9385	26.06	0.07	0.750			
0.3508	22450.24	3.8450	3.8449	0.9341	26.05	0.06	0.750			
0.3536	22628.17	3.8420	3.8420	0.9420	26.05	0.06	0.750			
0.3564	22809.74	3.8390	3.8391	0.9477	26.04	0.05	0.750			
0.3592	22991.38	3.8360	3.8359	0.9570	26.03	0.04	0.750			
0.3621	23177.08	3.8330	3.8331	0.9606	26.02	0.03	0.750			
0.3650	23361.42	3.8300	3.8300	0.9717	26.01	0.02	0.750			
0.3679	23548.56	3.8270	3.8270	0.9782	26.01	0.02	0.750			
0.3709	23739.06	3.8240	3.8240	0.9882	26.00	0.01	0.750			
0.3739	23928.21	3.8210	3.8211	0.9913	25.99	-0.00	0.750			
0.3769	24119.29	3.8180	3.8180	1.0015	25.98	-0.01	0.750			
0.3799	24310.92	3.8150	3.8150	1.0095	25.97	-0.02	0.750			
0.3829	24507.02	3.8120	3.8120	1.0203	25.96	-0.03	0.750			
0.3860	24705.54	3.8090	3.8090	1.0196	25.95	-0.04	0.750			
0.3891	24899.93	3.8060	3.8061	1.0371	25.94	-0.05	0.750			
0.3922	25099.12	3.8030	3.8031	1.0469	25.93	-0.06	0.750			
0.3953	25300.94	3.8000	3.8000	1.0604	25.92	-0.07	0.750			
0.3985	25505.89	3.7970	3.7969	1.0682	25.91	-0.08	0.750			
0.4018	25712.31	3.7940	3.7942	1.0883	25.90	-0.09	0.750			
0.4051	25923.52	3.7910	3.7910	1.1090	25.89	-0.10	0.750			
0.4084	26138.85	3.7880	3.7880	1.1255	25.88	-0.11	0.750			
0.4118	26354.41	3.7850	3.7852	1.1282	25.86	-0.13	0.750			
0.4152	26570.66	3.7820	3.7821	1.1673	25.85	-0.14	0.750			
0.4187	26796.91	3.7790	3.7790	1.1980	25.84	-0.15	0.750			
0.4224	27031.17	3.7760	3.7756	1.2246	25.82	-0.17	0.750			
0.4261	27269.49	3.7730	3.7733	1.2563	25.81	-0.18	0.750	0.333	0.479	
0.4299	27515.02	3.7700	3.7701	1.2793	25.80	-0.19	0.750			
0.4339	27769.98	3.7670	3.7669	1.2979	25.79	-0.20	0.750			
0.4377	28014.61	3.7640	3.7642	1.3094	25.78	-0.21	0.750			
0.4416	28264.77	3.7610	3.7611	1.3373	25.77	-0.22	0.750			
0.4457	28525.85	3.7580	3.7580	1.3654	25.76	-0.23	0.750			
0.4499	28792.32	3.7550	3.7550	1.3859	25.74	-0.25	0.750			
0.4540	29056.76	3.7520	3.7521	1.4328	25.73	-0.26	0.750			
0.4584	29338.79	3.7490	3.7491	1.4576	25.72	-0.27	0.750			
0.4629	29622.48	3.7460	3.7458	1.4991	25.70	-0.29	0.750			
0.4674	29911.83	3.7430	3.7432	1.5291	25.69	-0.30	0.750			
0.4720	30206.90	3.7400	3.7399	1.5813	25.68	-0.31	0.750			
0.4768	30514.88	3.7370	3.7372	1.6281	25.67	-0.32	0.750			
0.4818	30834.91	3.7340	3.7341	1.6572	25.67	-0.32	0.750			
0.4868	31157.86	3.7310	3.7309	1.6919	25.66	-0.33	0.750			
0.4920	31484.92	3.7280	3.7278	1.7528	25.64	-0.35	0.750			
0.4973	31825.21	3.7250	3.7250	1.8010	25.62	-0.37	0.750			
0.5027	32173.43	3.7220	3.7220	1.8526	25.61	-0.38	0.750			
0.5083	32531.78	3.7190	3.7192	1.9005	25.59	-0.40	0.750			
0.5141	32902.90	3.7160	3.7159	1.9688	25.58	-0.41	0.750			
0.5202	33294.83	3.7130	3.7129	2.0222	25.57	-0.42	0.750			
0.5264	33687.47	3.7100	3.7100	2.0789	25.57	-0.42	0.750			
0.5326	34083.77	3.7070	3.7071	2.1433	25.56	-0.43	0.750			
0.5392	34507.30	3.7040	3.7038	2.2022	25.55	-0.44	0.750			
0.5459	34934.86	3.7010	3.7010	2.2743	25.53	-0.46	0.750			
0.5527	35375.70	3.6980	3.6981	2.3643	25.53	-0.46	0.750			
0.5601	35844.57	3.6950	3.6948	2.4354	25.52	-0.47	0.750			
0.5674	36314.23	3.6920	3.6919	2.5097	25.51	-0.48	0.750			
0.5751	36804.38	3.6890	3.6891	2.6082	25.50	-0.49	0.750			
0.5830	37314.82	3.6860	3.6861	2.6999	25.50	-0.49	0.750			
0.5913	37845.28	3.6830	3.6830	2.7613	25.50	-0.49	0.750			
0.6001	38403.40	3.6800	3.6798	2.7569	25.50	-0.49	0.750			
0.6082	38922.43	3.6770	3.6772	2.6129	25.50	-0.49	0.750			
0.6160	39423.19	3.6740	3.6738	2.4017	25.50	-0.49	0.750			
0.6226	39847.15	3.6710	3.6711	2.1585	25.51	-0.48	0.750			
0.6287	40236.77	3.6680	3.6682	1.9346	25.52	-0.47	0.750			
0.6340	40577.74	3.6650	3.6652	1.7687	25.53	-0.46	0.750			
0.6389	40889.46	3.6620	3.6621	1.6262	25.53	-0.46	0.750			
0.6435	41186.23	3.6590	3.6591	1.5229	25.54	-0.45	0.750			
0.6481	41475.63	3.6560	3.6561	1.4356	25.54	-0.45	0.750			
0.6523	41745.50	3.6530	3.6531	1.3745	25.55	-0.44	0.750			
0.6560	41986.83	3.6500	3.6501	1.2739	25.55	-0.44	0.750			
0.6597	42220.47	3.6470	3.6468	1.2233	25.56	-0.43	0.750			
0.6632	42442.48	3.6440	3.6440	1.1788	25.56	-0.43	0.750			
0.6666	42663.95	3.6410	3.6410	1.1648	25.57	-0.42	0.750			
0.6701	42886.64	3.6380	3.6382	1.1638	25.58	-0.41	0.750			
0.6736	43110.55	3.6350	3.6349	1.1554	25.58	-0.41	0.750			
0.6771	43332.21	3.6320	3.6320	1.1660	25.59	-0.40	0.750			
0.6806	43555.91	3.6290	3.6290	1.1689	25.59	-0.40	0.750			
0.6841	43783.48	3.6260	3.6259	1.1642	25.60	-0.39	0.750			
0.6876	44008.65	3.6230	3.6231	1.1594	25.60	-0.39	0.750			
0.6911	44233.53	3.6200	3.6200	1.1490	25.61	-0.38	0.750			
0.6946	44453.34	3.6170	3.6171	1.1338	25.61	-0.38	0.750			
0.6980	44669.25	3.6140	3.6139	1.1117	25.62	-0.37	0.750			
0.7013	44880.92	3.6110	3.6110	1.1086	25.62	-0.37	0.750			
0.7045	45090.20	3.6080	3.6080	1.1022	25.62	-0.37	0.750			
0.7078	45299.77	3.6050	3.6051	1.1134	25.62	-0.37	0.750			
0.7111	45513.04	3.6020	3.6021	1.1213	25.62	-0.37	0.750			
0.7145	45727.53	3.5990	3.5990	1.1558	25.63	-0.36	0.750			
0.7179	45948.37	3.5960	3.5960	1.1888	25.63	-0.36	0.750			
0.7216	46183.80	3.5930	3.5929	1.2151	25.64	-0.35	0.750			
0.7253	46419.06	3.5900	3.5901	1.2609	25.64	-0.35	0.750			
0.7291	46664.95	3.5870	3.5871	1.3148	25.65	-0.34	0.750			
0.7332	46922.87	3.5840	3.5841	1.3563	25.66	-0.33	0.750			
0.7374	47190.64	3.5810	3.5810	1.4041	25.66	-0.33	0.750			
0.7416	47461.18	3.5780	3.5781	1.4513	25.66	-0.33	0.750			
0.7461	47748.78	3.5750	3.5750	1.4828	25.66	-0.33	0.750			
0.7506	48039.18	3.5720	3.5721	1.5272	25.66	-0.33	0.750			
0.7552	48334.04	3.5690	3.5689	1.5707	25.67	-0.32	0.750			
0.7600	48640.99	3.5660	3.5659	1.6181	25.67	-0.32	0.750			
0.7650	48959.34	3.5630	3.5631	1.6474	25.67	-0.32	0.750			
0.7701	49285.21	3.5600	3.5603	1.6487	25.67	-0.32	0.750			
0.7751	49607.69	3.5570	3.5571	1.6460	25.67	-0.32	0.750			
0.7801	49925.81	3.5540	3.5542	1.6553	25.68	-0.31	0.750			
0.7849	50233.79	3.5510	3.5508	1.6614	25.69	-0.30	0.750			
0.7897	50541.90	3.5480	3.5480	1.6773	25.70	-0.29	0.750			
0.7949	50874.13	3.5450	3.5452	1.7281	25.71	-0.28	0.750			
0.8004	51226.20	3.5420	3.5419	1.7301	25.72	-0.27	0.750			
0.8061	51587.73	3.5390	3.5387	1.5974	25.73	-0.26	0.750			
0.8111	51908.68	3.5360	3.5362	1.4342	25.74	-0.25	0.750			
0.8153	52180.48	3.5330	3.5336	1.2133	25.77	-0.22	0.750			
0.8184	52379.80	3.5300	3.5299	0.9318	25.79	-0.20	0.750			
0.8204	52506.19	3.5270	3.5266	0.7090	25.80	-0.19	0.750			
0.8218	52592.32	3.5240	3.5237	0.5114	25.80	-0.19	0.750			
0.8229	52663.24	3.5210	3.5209	0.4166	25.81	-0.18	0.750			
0.8240	52733.71	3.5180	3.5180	0.3699	25.82	-0.17	0.750			
0.8250	52796.88	3.5150	3.5150	0.3380	25.82	-0.17	0.750			
0.8259	52859.31	3.5120	3.5119	0.3210	25.83	-0.16	0.750			
0.8268	52918.00	3.5090	3.5090	0.3066	25.84	-0.15	0.750			
0.8277	52975.02	3.5060	3.5060	0.2957	25.84	-0.15	0.750			
0.8286	53031.16	3.5030	3.5030	0.2878	25.85	-0.14	0.750			
0.8295	53085.10	3.5000	3.5000	0.2807	25.85	-0.14	0.750			
0.8303	53137.86	3.4970	3.4970	0.2728	25.86	-0.13	0.750			
0.8311	53189.93	3.4940	3.4940	0.2674	25.86	-0.13	0.750			
0.8319	53240.55	3.4910	3.4910	0.2612	25.87	-0.12	0.750			
0.8327	53290.49	3.4880	3.4880	0.2541	25.87	-0.12	0.750			
0.8334	53338.53	3.4850	3.4851	0.2494	25.88	-0.11	0.750			
0.8342	53385.60	3.4820	3.4820	0.2452	25.88	-0.11	0.750			
0.8349	53431.97	3.4790	3.4790	0.2394	25.89	-0.10	0.750			
0.8356	53477.30	3.4760	3.4759	0.2335	25.89	-0.10	0.750			
0.8363	53522.05	3.4730	3.4731	0.2299	25.90	-0.09	0.750			
0.8370	53566.07	3.4700	3.4700	0.2253	25.90	-0.09	0.750			
0.8376	53608.88	3.4670	3.4670	0.2189	25.91	-0.08	0.750			
0.8383	53650.04	3.4640	3.4640	0.2123	25.91	-0.08	0.750			
0.8389	53690.33	3.4610	3.4610	0.2073	25.92	-0.07	0.750			
0.8395	53729.35	3.4580	3.4580	0.2031	25.92	-0.07	0.750			
0.8401	53768.17	3.4550	3.4549	0.1985	25.93	-0.06	0.750			
0.8407	53805.90	3.4520	3.4519	0.1933	25.93	-0.06	0.750			
0.8413	53842.54	3.4490	3.4491	0.1884	25.94	-0.05	0.750			
0.8418	53878.34	3.4460	3.4461	0.1831	25.94	-0.05	0.750			
0.8424	53913.37	3.4430	3.4430	0.1781	25.95	-0.04	0.750			
0.8429	53946.65	3.4400	3.4400	0.1722	25.95	-0.04	0.750			
0.8434	53979.22	3.4370	3.4370	0.1670	25.96	-0.03	0.750			
0.8439	54010.59	3.4340	3.4340	0.1618	25.96	-0.03	0.750			
0.8444	54041.32	3.4310	3.4310	0.1567	25.96	-0.03	0.750			
0.8449	54070.89	3.4280	3.4280	0.1518	25.97	-0.02	0.750			
0.8453	54099.54	3.4250	3.4251	0.1467	25.97	-0.02	0.750			
0.8457	54127.41	3.4220	3.4220	0.1406	25.97	-0.02	0.750			
0.8462	54154.16	3.4190	3.4189	0.1345	25.98	-0.01	0.750			
0.8466	54179.46	3.4160	3.4161	0.1281	25.98	-0.01	0.750			
0.8469	54203.50	3.4130	3.4130	0.1210	25.98	-0.01	0.750			
0.8473	54226.25	3.4100	3.4100	0.1143	25.99	-0.00	0.750			
0.8476	54247.61	3.4070	3.4069	0.1071	25.99	-0.00	0.750			
0.8479	54268.74	3.4040	3.4038	0.0974	25.99	0.00	0.750			
0.8482	54286.44	3.4010	3.4010	0.0870	25.99	0.00	0.750			
0.8485	54303.03	3.3980	3.3982	0.0786	26.00	0.01	0.750			
0.8487	54317.03	3.3950	3.3953	0.0673	26.00	0.01	0.750			
0.8489	54330.07	3.3920	3.3923	0.0568	26.00	0.01	0.750			
0.8491	54339.76	3.3890	3.3896	0.0442	26.00	0.01	0.750			
0.8492	54347.05	3.3860	3.3871	0.0317	26.00	0.01	0.750			
0.8492	54351.93	3.3830	3.3850	0.0191	26.00	0.01	0.750			
0.8493	54354.40	3.3800	3.3831	0.0066	26.00	0.01	0.750			
