Ah_balance (normalized)	Ah_balance (mAh)	Voltage - fit (V)	Voltage -  interpolate (V)	dQ/dV (1/V)	Temperature (°C)	Temperature - diff (°C)	Current (C)	R_DC 0ms (mOhm)	R_DC 50ms (mOhm)	R_DC 50 ms PEC (mOhm)
0.0003	21.28	4.1640	4.1639	-0.1313	25.82	0.01	-0.750			
0.0008	49.83	4.1610	4.1610	-0.1729	25.82	0.01	-0.750			
0.0014	87.78	4.1580	4.1580	-0.2180	25.82	0.01	-0.750			
0.0021	135.03	4.1550	4.1549	-0.2601	25.82	0.01	-0.750			
0.0030	189.31	4.1520	4.1520	-0.2996	25.82	0.01	-0.750			
0.0039	251.75	4.1490	4.1490	-0.3383	25.81	0.00	-0.750			
0.0050	320.12	4.1460	4.1461	-0.3747	25.81	-0.00	-0.750			
0.0062	396.12	4.1430	4.1430	-0.4107	25.81	-0.00	-0.750			
0.0075	478.18	4.1400	4.1400	-0.4447	25.80	-0.01	-0.750			
0.0089	567.58	4.1370	4.1370	-0.4754	25.80	-0.01	-0.750			
0.0104	663.37	4.1340	4.1340	-0.5028	25.79	-0.02	-0.750			
0.0119	763.60	4.1310	4.1310	-0.5301	25.79	-0.02	-0.750			
0.0136	869.47	4.1280	4.1280	-0.5519	25.78	-0.03	-0.750			
0.0153	977.53	4.1250	4.1250	-0.5691	25.78	-0.03	-0.750			
0.0170	1089.05	4.1220	4.1222	-0.5845	25.77	-0.04	-0.750			
0.0188	1202.79	4.1190	4.1189	-0.5994	25.77	-0.04	-0.750			
0.0206	1320.06	4.1160	4.1160	-0.6136	25.76	-0.05	-0.750			
0.0225	1437.91	4.1130	4.1130	-0.6245	25.76	-0.05	-0.750			
0.0244	1559.80	4.1100	4.1101	-0.6383	25.76	-0.05	-0.750			
0.0263	1683.26	4.1070	4.1070	-0.6472	25.76	-0.05	-0.750			
0.0283	1808.85	4.1040	4.1038	-0.6548	25.75	-0.06	-0.750			
0.0302	1935.97	4.1010	4.1011	-0.6636	25.75	-0.06	-0.750			
0.0323	2064.44	4.0980	4.0980	-0.6689	25.74	-0.07	-0.750			
0.0343	2193.76	4.0950	4.0950	-0.6782	25.74	-0.07	-0.750			
0.0363	2323.01	4.0920	4.0920	-0.6806	25.73	-0.08	-0.750			
0.0384	2456.08	4.0890	4.0890	-0.6873	25.73	-0.08	-0.750			
0.0405	2589.12	4.0860	4.0859	-0.6920	25.72	-0.09	-0.750			
0.0425	2722.93	4.0830	4.0832	-0.6941	25.72	-0.09	-0.750			
0.0446	2855.68	4.0800	4.0800	-0.6990	25.72	-0.09	-0.750			
0.0467	2988.96	4.0770	4.0770	-0.7068	25.72	-0.09	-0.750			
0.0489	3126.74	4.0740	4.0740	-0.7085	25.73	-0.08	-0.750			
0.0510	3262.72	4.0710	4.0709	-0.7116	25.73	-0.08	-0.750			
0.0531	3399.84	4.0680	4.0679	-0.7165	25.73	-0.08	-0.750			
0.0553	3538.21	4.0650	4.0651	-0.7188	25.73	-0.08	-0.750			
0.0574	3675.96	4.0620	4.0620	-0.7227	25.73	-0.08	-0.750			
0.0596	3813.76	4.0590	4.0590	-0.7232	25.73	-0.08	-0.750			
0.0618	3952.92	4.0560	4.0561	-0.7244	25.72	-0.09	-0.750			
0.0640	4094.64	4.0530	4.0530	-0.7345	25.72	-0.09	-0.750			
0.0662	4236.37	4.0500	4.0500	-0.7306	25.72	-0.09	-0.750			
0.0684	4376.26	4.0470	4.0470	-0.7305	25.72	-0.09	-0.750			
0.0706	4515.94	4.0440	4.0441	-0.7336	25.72	-0.09	-0.750			
0.0728	4656.75	4.0410	4.0409	-0.7344	25.72	-0.09	-0.750			
0.0750	4797.72	4.0380	4.0379	-0.7383	25.72	-0.09	-0.750			
0.0772	4940.11	4.0350	4.0350	-0.7380	25.72	-0.09	-0.750			
0.0794	5081.99	4.0320	4.0321	-0.7392	25.72	-0.09	-0.750			
0.0816	5225.16	4.0290	4.0289	-0.7435	25.72	-0.09	-0.750			
0.0838	5366.27	4.0260	4.0259	-0.7429	25.72	-0.09	-0.750			
0.0861	5509.98	4.0230	4.0230	-0.7491	25.73	-0.08	-0.750			
0.0884	5654.64	4.0200	4.0200	-0.7519	25.73	-0.08	-0.750			
0.0906	5800.54	4.0170	4.0169	-0.7553	25.73	-0.08	-0.750			
0.0929	5946.93	4.0140	4.0141	-0.7559	25.73	-0.08	-0.750			
0.0952	6090.98	4.0110	4.0109	-0.7566	25.73	-0.08	-0.750			
0.0974	6235.53	4.0080	4.0080	-0.7567	25.73	-0.08	-0.750			
0.0997	6378.50	4.0050	4.0051	-0.7554	25.74	-0.07	-0.750			
0.1020	6526.32	4.0020	4.0019	-0.7626	25.74	-0.07	-0.750			
0.1043	6674.31	3.9990	3.9990	-0.7618	25.74	-0.07	-0.750			
0.1066	6820.24	3.9960	3.9960	-0.7596	25.74	-0.07	-0.750			
0.1088	6965.41	3.9930	3.9930	-0.7643	25.74	-0.07	-0.750			
0.1111	7111.33	3.9900	3.9900	-0.7660	25.75	-0.06	-0.750			
0.1134	7257.13	3.9870	3.9868	-0.7725	25.75	-0.06	-0.750			
0.1157	7406.70	3.9840	3.9840	-0.7753	25.75	-0.06	-0.750			
0.1181	7557.45	3.9810	3.9810	-0.7791	25.75	-0.06	-0.750			
0.1204	7708.65	3.9780	3.9780	-0.7878	25.75	-0.06	-0.750			
0.1228	7860.10	3.9750	3.9750	-0.7874	25.75	-0.06	-0.750			
0.1251	8009.50	3.9720	3.9720	-0.7842	25.75	-0.06	-0.750			
0.1275	8161.25	3.9690	3.9690	-0.7850	25.75	-0.06	-0.750			
0.1299	8311.68	3.9660	3.9663	-0.7824	25.75	-0.06	-0.750			
0.1322	8462.69	3.9630	3.9630	-0.7859	25.75	-0.06	-0.750			
0.1346	8612.67	3.9600	3.9600	-0.7898	25.76	-0.05	-0.750			
0.1369	8763.20	3.9570	3.9569	-0.7921	25.76	-0.05	-0.750			
0.1393	8917.23	3.9540	3.9539	-0.7929	25.77	-0.04	-0.750			
0.1417	9069.62	3.9510	3.9510	-0.7969	25.77	-0.04	-0.750			
0.1441	9224.07	3.9480	3.9480	-0.7991	25.77	-0.04	-0.750			
0.1465	9376.56	3.9450	3.9450	-0.8048	25.78	-0.03	-0.750			
0.1489	9530.92	3.9420	3.9419	-0.8018	25.78	-0.03	-0.750			
0.1513	9684.68	3.9390	3.9389	-0.8038	25.78	-0.03	-0.750			
0.1538	9840.20	3.9360	3.9361	-0.8078	25.79	-0.02	-0.750			
0.1562	9997.00	3.9330	3.9330	-0.8070	25.79	-0.02	-0.750			
0.1586	10150.53	3.9300	3.9300	-0.8096	25.79	-0.02	-0.750			
0.1610	10306.20	3.9270	3.9270	-0.8127	25.79	-0.02	-0.750			
0.1634	10459.66	3.9240	3.9240	-0.8124	25.79	-0.02	-0.750			
0.1659	10619.32	3.9210	3.9209	-0.8213	25.79	-0.02	-0.750			
0.1684	10776.68	3.9180	3.9180	-0.8207	25.79	-0.02	-0.750			
0.1709	10934.50	3.9150	3.9150	-0.8267	25.80	-0.01	-0.750			
0.1734	11094.62	3.9120	3.9120	-0.8278	25.80	-0.01	-0.750			
0.1758	11252.44	3.9090	3.9090	-0.8236	25.80	-0.01	-0.750			
0.1783	11412.08	3.9060	3.9060	-0.8264	25.81	-0.00	-0.750			
0.1808	11570.34	3.9030	3.9031	-0.8261	25.81	0.00	-0.750			
0.1833	11728.07	3.9000	3.9000	-0.8301	25.82	0.01	-0.750			
0.1857	11887.82	3.8970	3.8969	-0.8308	25.82	0.01	-0.750			
0.1882	12046.73	3.8940	3.8940	-0.8301	25.83	0.02	-0.750			
0.1908	12208.06	3.8910	3.8910	-0.8342	25.84	0.03	-0.750			
0.1933	12369.67	3.8880	3.8880	-0.8339	25.84	0.03	-0.750			
0.1958	12528.31	3.8850	3.8850	-0.8399	25.84	0.03	-0.750			
0.1983	12689.47	3.8820	3.8820	-0.8399	25.84	0.03	-0.750			
0.2008	12850.57	3.8790	3.8789	-0.8390	25.85	0.04	-0.750			
0.2033	13013.52	3.8760	3.8759	-0.8435	25.85	0.04	-0.750			
0.2059	13176.33	3.8730	3.8731	-0.8442	25.85	0.04	-0.750			
0.2084	13337.98	3.8700	3.8699	-0.8438	25.86	0.05	-0.750			
0.2109	13499.89	3.8670	3.8671	-0.8435	25.86	0.05	-0.750			
0.2134	13659.26	3.8640	3.8640	-0.8382	25.86	0.05	-0.750			
0.2160	13822.34	3.8610	3.8610	-0.8452	25.87	0.06	-0.750			
0.2185	13984.84	3.8580	3.8579	-0.8480	25.87	0.06	-0.750			
0.2211	14147.68	3.8550	3.8550	-0.8492	25.88	0.07	-0.750			
0.2236	14312.84	3.8520	3.8520	-0.8505	25.88	0.07	-0.750			
0.2262	14475.96	3.8490	3.8490	-0.8489	25.88	0.07	-0.750			
0.2287	14639.17	3.8460	3.8459	-0.8508	25.89	0.08	-0.750			
0.2313	14802.02	3.8430	3.8430	-0.8494	25.89	0.08	-0.750			
0.2338	14964.25	3.8400	3.8400	-0.8505	25.89	0.08	-0.750			
0.2364	15127.33	3.8370	3.8370	-0.8509	25.89	0.08	-0.750			
0.2389	15291.33	3.8340	3.8340	-0.8484	25.89	0.08	-0.750			
0.2415	15456.32	3.8310	3.8310	-0.8530	25.89	0.08	-0.750			
0.2441	15619.98	3.8280	3.8280	-0.8482	25.89	0.08	-0.750			
0.2466	15781.89	3.8250	3.8250	-0.8481	25.90	0.09	-0.750			
0.2491	15944.57	3.8220	3.8220	-0.8493	25.90	0.09	-0.750			
0.2517	16106.79	3.8190	3.8190	-0.8477	25.91	0.10	-0.750			
0.2542	16271.08	3.8160	3.8160	-0.8500	25.91	0.10	-0.750			
0.2568	16434.60	3.8130	3.8130	-0.8469	25.91	0.10	-0.750			
0.2593	16597.37	3.8100	3.8101	-0.8481	25.92	0.11	-0.750			
0.2619	16760.07	3.8070	3.8070	-0.8486	25.92	0.11	-0.750			
0.2644	16921.95	3.8040	3.8038	-0.8447	25.93	0.12	-0.750			
0.2670	17085.40	3.8010	3.8013	-0.8452	25.93	0.12	-0.750			
0.2695	17248.09	3.7980	3.7979	-0.8435	25.93	0.12	-0.750			
0.2720	17410.97	3.7950	3.7950	-0.8478	25.93	0.12	-0.750			
0.2746	17573.87	3.7920	3.7920	-0.8451	25.94	0.13	-0.750			
0.2771	17736.39	3.7890	3.7889	-0.8469	25.94	0.13	-0.750			
0.2797	17897.82	3.7860	3.7863	-0.8385	25.94	0.13	-0.750			
0.2822	18059.10	3.7830	3.7829	-0.8348	25.94	0.13	-0.750			
0.2847	18217.73	3.7800	3.7800	-0.8320	25.94	0.13	-0.750			
0.2871	18376.78	3.7770	3.7770	-0.8271	25.95	0.14	-0.750			
0.2896	18536.21	3.7740	3.7739	-0.8268	25.95	0.14	-0.750			
0.2921	18694.09	3.7710	3.7710	-0.8242	25.95	0.14	-0.750			
0.2945	18851.13	3.7680	3.7680	-0.8247	25.95	0.14	-0.750			
0.2970	19010.30	3.7650	3.7650	-0.8241	25.96	0.15	-0.750			
0.2995	19168.46	3.7620	3.7620	-0.8227	25.96	0.15	-0.750			
0.3020	19326.55	3.7590	3.7590	-0.8194	25.97	0.16	-0.750			
0.3044	19484.38	3.7560	3.7560	-0.8210	25.97	0.16	-0.750			
0.3069	19642.20	3.7530	3.7530	-0.8175	25.97	0.16	-0.750			
0.3093	19797.15	3.7500	3.7501	-0.8214	25.98	0.17	-0.750			
0.3118	19954.33	3.7470	3.7470	-0.8267	25.98	0.17	-0.750			
0.3143	20114.17	3.7440	3.7440	-0.8304	25.99	0.18	-0.750			
0.3168	20273.72	3.7410	3.7410	-0.8354	25.99	0.18	-0.750			
0.3193	20435.08	3.7380	3.7380	-0.8391	25.99	0.18	-0.750			
0.3218	20596.72	3.7350	3.7350	-0.8482	25.99	0.18	-0.750			
0.3244	20761.17	3.7320	3.7320	-0.8525	26.00	0.19	-0.750			
0.3269	20923.84	3.7290	3.7290	-0.8553	26.00	0.19	-0.750			
0.3295	21089.45	3.7260	3.7262	-0.8664	26.00	0.19	-0.750			
0.3321	21256.09	3.7230	3.7230	-0.8804	26.00	0.19	-0.750			
0.3348	21425.68	3.7200	3.7199	-0.8874	26.00	0.19	-0.750			
0.3375	21597.08	3.7170	3.7170	-0.8986	26.01	0.20	-0.750			
0.3402	21770.02	3.7140	3.7140	-0.9175	26.01	0.20	-0.750			
0.3429	21948.32	3.7110	3.7111	-0.9300	26.01	0.20	-0.750			
0.3457	22126.11	3.7080	3.7079	-0.9490	26.01	0.20	-0.750			
0.3486	22310.21	3.7050	3.7050	-0.9666	26.01	0.20	-0.750			
0.3515	22498.02	3.7020	3.7020	-0.9810	26.01	0.20	-0.750			
0.3545	22689.83	3.6990	3.6991	-1.0023	26.01	0.20	-0.750			
0.3576	22883.56	3.6960	3.6960	-1.0203	26.01	0.20	-0.750			
0.3606	23079.39	3.6930	3.6930	-1.0402	26.01	0.20	-0.750			
0.3638	23282.37	3.6900	3.6899	-1.0561	26.01	0.20	-0.750			
0.3670	23486.00	3.6870	3.6869	-1.0749	26.01	0.20	-0.750			
0.3702	23695.48	3.6840	3.6840	-1.0983	26.00	0.19	-0.750			
0.3735	23907.20	3.6810	3.6810	-1.1241	25.99	0.18	-0.750			
0.3769	24124.17	3.6780	3.6779	-1.1490	25.99	0.18	-0.750			
0.3804	24347.45	3.6750	3.6750	-1.1826	25.98	0.17	-0.750			
0.3840	24577.05	3.6720	3.6720	-1.2109	25.98	0.17	-0.750			
0.3877	24815.14	3.6690	3.6689	-1.2331	25.97	0.16	-0.750			
0.3915	25055.06	3.6660	3.6658	-1.2548	25.97	0.16	-0.750			
0.3953	25298.39	3.6630	3.6630	-1.2834	25.96	0.15	-0.750			
0.3991	25544.40	3.6600	3.6598	-1.3068	25.96	0.15	-0.750			
0.4030	25794.01	3.6570	3.6570	-1.3381	25.95	0.14	-0.750			
0.4071	26054.33	3.6540	3.6540	-1.3869	25.95	0.14	-0.750			
0.4113	26324.79	3.6510	3.6510	-1.4138	25.94	0.13	-0.750			
0.4157	26601.75	3.6480	3.6480	-1.4561	25.93	0.12	-0.750			
0.4201	26885.12	3.6450	3.6448	-1.4901	25.93	0.12	-0.750			
0.4246	27176.72	3.6420	3.6420	-1.5115	25.92	0.11	-0.750			
0.4293	27472.04	3.6390	3.6392	-1.5405	25.91	0.10	-0.750			
0.4339	27768.96	3.6360	3.6360	-1.5649	25.90	0.09	-0.750			
0.4385	28066.96	3.6330	3.6330	-1.5856	25.90	0.09	-0.750			
0.4434	28377.97	3.6300	3.6300	-1.6168	25.89	0.08	-0.750			
0.4482	28686.37	3.6270	3.6270	-1.6628	25.88	0.07	-0.750			
0.4533	29008.92	3.6240	3.6239	-1.6908	25.86	0.05	-0.750	0.398	0.501	
0.4585	29341.43	3.6210	3.6209	-1.7315	25.86	0.05	-0.750			
0.4637	29678.38	3.6180	3.6180	-1.7671	25.85	0.04	-0.750			
0.4691	30023.28	3.6150	3.6149	-1.7896	25.85	0.04	-0.750			
0.4745	30366.21	3.6120	3.6121	-1.8318	25.83	0.02	-0.750			
0.4800	30718.56	3.6090	3.6090	-1.8747	25.82	0.01	-0.750			
0.4857	31082.64	3.6060	3.6062	-1.9076	25.82	0.01	-0.750			
0.4915	31455.43	3.6030	3.6030	-1.9606	25.81	0.00	-0.750			
0.4974	31834.60	3.6000	3.6001	-1.9942	25.80	-0.01	-0.750			
0.5035	32224.69	3.5970	3.5971	-2.0352	25.79	-0.02	-0.750			
0.5097	32623.39	3.5940	3.5939	-2.0787	25.79	-0.02	-0.750			
0.5160	33025.23	3.5910	3.5909	-2.0594	25.79	-0.02	-0.750			
0.5222	33422.66	3.5880	3.5881	-2.0767	25.78	-0.03	-0.750			
0.5285	33821.49	3.5850	3.5851	-2.0960	25.77	-0.04	-0.750			
0.5347	34218.43	3.5820	3.5818	-2.1207	25.77	-0.04	-0.750			
0.5410	34625.43	3.5790	3.5792	-2.1510	25.77	-0.04	-0.750			
0.5475	35038.19	3.5760	3.5759	-2.1939	25.77	-0.04	-0.750			
0.5542	35466.02	3.5730	3.5729	-2.2531	25.76	-0.05	-0.750			
0.5611	35912.82	3.5700	3.5699	-2.2772	25.75	-0.06	-0.750			
0.5680	36352.23	3.5670	3.5671	-2.2933	25.75	-0.06	-0.750			
0.5750	36802.31	3.5640	3.5640	-2.3055	25.75	-0.06	-0.750			
0.5819	37240.70	3.5610	3.5610	-2.3073	25.75	-0.06	-0.750			
0.5888	37685.82	3.5580	3.5580	-2.3210	25.74	-0.07	-0.750			
0.5958	38132.36	3.5550	3.5551	-2.3244	25.74	-0.07	-0.750			
0.6028	38579.26	3.5520	3.5518	-2.3245	25.74	-0.07	-0.750			
0.6098	39030.16	3.5490	3.5489	-2.3196	25.74	-0.07	-0.750			
0.6168	39474.82	3.5460	3.5461	-2.2903	25.75	-0.06	-0.750			
0.6236	39911.81	3.5430	3.5429	-2.2765	25.75	-0.06	-0.750			
0.6305	40349.31	3.5400	3.5399	-2.2425	25.75	-0.06	-0.750			
0.6372	40778.26	3.5370	3.5370	-2.2067	25.76	-0.05	-0.750			
0.6438	41205.17	3.5340	3.5341	-2.1847	25.77	-0.04	-0.750			
0.6504	41623.06	3.5310	3.5309	-2.1199	25.77	-0.04	-0.750			
0.6567	42026.56	3.5280	3.5280	-2.0713	25.77	-0.04	-0.750			
0.6629	42425.42	3.5250	3.5251	-2.0063	25.79	-0.02	-0.750			
0.6687	42798.18	3.5220	3.5221	-1.9542	25.80	-0.01	-0.750			
0.6746	43171.65	3.5190	3.5188	-1.9145	25.81	0.00	-0.750			
0.6802	43532.02	3.5160	3.5161	-1.8624	25.82	0.01	-0.750			
0.6857	43886.42	3.5130	3.5133	-1.8040	25.83	0.02	-0.750			
0.6912	44235.11	3.5100	3.5101	-1.7517	25.85	0.04	-0.750			
0.6963	44563.37	3.5070	3.5070	-1.6951	25.86	0.05	-0.750			
0.7013	44885.45	3.5040	3.5039	-1.6424	25.86	0.05	-0.750			
0.7061	45192.00	3.5010	3.5010	-1.5777	25.88	0.07	-0.750			
0.7107	45487.57	3.4980	3.4978	-1.5226	25.90	0.09	-0.750			
0.7152	45773.51	3.4950	3.4951	-1.4730	25.92	0.11	-0.750			
0.7196	46054.57	3.4920	3.4919	-1.4252	25.94	0.13	-0.750			
0.7238	46325.95	3.4890	3.4889	-1.3809	25.95	0.14	-0.750			
0.7278	46579.74	3.4860	3.4858	-1.3234	25.96	0.15	-0.750			
0.7317	46831.68	3.4830	3.4830	-1.2864	25.98	0.17	-0.750			
0.7356	47078.78	3.4800	3.4799	-1.2442	26.00	0.19	-0.750			
0.7392	47310.60	3.4770	3.4770	-1.2009	26.02	0.21	-0.750			
0.7427	47531.81	3.4740	3.4742	-1.1555	26.03	0.22	-0.750			
0.7462	47755.09	3.4710	3.4707	-1.1259	26.05	0.24	-0.750			
0.7495	47968.32	3.4680	3.4680	-1.0873	26.06	0.25	-0.750			
0.7527	48172.47	3.4650	3.4650	-1.0506	26.07	0.26	-0.750			
0.7558	48371.41	3.4620	3.4620	-1.0159	26.08	0.27	-0.750			
0.7588	48562.75	3.4590	3.4590	-0.9922	26.10	0.29	-0.750			
0.7616	48745.11	3.4560	3.4559	-0.9595	26.11	0.30	-0.750			
0.7645	48926.20	3.4530	3.4530	-0.9382	26.12	0.31	-0.750			
0.7673	49106.42	3.4500	3.4501	-0.9247	26.13	0.32	-0.750			
0.7700	49280.58	3.4470	3.4470	-0.9183	26.14	0.33	-0.750			
0.7727	49455.08	3.4440	3.4440	-0.9084	26.15	0.34	-0.750			
0.7754	49625.88	3.4410	3.4410	-0.9074	26.16	0.35	-0.750			
0.7780	49795.10	3.4380	3.4380	-0.9282	26.17	0.36	-0.750			
0.7808	49973.18	3.4350	3.4349	-0.9659	26.18	0.37	-0.750			
0.7838	50161.30	3.4320	3.4318	-0.9925	26.19	0.38	-0.750			
0.7868	50356.72	3.4290	3.4290	-1.0266	26.20	0.39	-0.750			
0.7900	50558.65	3.4260	3.4260	-1.0536	26.20	0.39	-0.750			
0.7933	50770.07	3.4230	3.4231	-1.0858	26.22	0.41	-0.750			
0.7966	50983.40	3.4200	3.4199	-1.0921	26.23	0.42	-0.750			
0.7999	51194.36	3.4170	3.4169	-1.0830	26.25	0.44	-0.750			
0.8032	51406.18	3.4140	3.4141	-1.0679	26.26	0.45	-0.750			
0.8065	51613.21	3.4110	3.4109	-1.0495	26.27	0.46	-0.750			
0.8096	51812.72	3.4080	3.4079	-1.0221	26.28	0.47	-0.750			
0.8126	52004.89	3.4050	3.4051	-0.9858	26.28	0.47	-0.750			
0.8154	52188.30	3.4020	3.4019	-0.9511	26.29	0.48	-0.750			
0.8183	52371.99	3.3990	3.3991	-0.9255	26.29	0.48	-0.750			
0.8210	52547.01	3.3960	3.3960	-0.8895	26.31	0.50	-0.750			
0.8237	52714.26	3.3930	3.3930	-0.8556	26.32	0.51	-0.750			
0.8262	52875.56	3.3900	3.3901	-0.8165	26.33	0.52	-0.750			
0.8286	53028.31	3.3870	3.3871	-0.7902	26.34	0.53	-0.750			
0.8309	53176.61	3.3840	3.3838	-0.7603	26.34	0.53	-0.750			
0.8331	53319.22	3.3810	3.3809	-0.7278	26.35	0.54	-0.750			
0.8352	53455.80	3.3780	3.3781	-0.7053	26.36	0.55	-0.750			
0.8373	53589.18	3.3750	3.3751	-0.6775	26.36	0.55	-0.750			
0.8394	53718.91	3.3720	3.3718	-0.6517	26.37	0.56	-0.750			
0.8413	53840.89	3.3690	3.3690	-0.6219	26.38	0.57	-0.750			
0.8431	53955.50	3.3660	3.3660	-0.5937	26.38	0.57	-0.750			
0.8448	54066.98	3.3630	3.3630	-0.5693	26.39	0.58	-0.750			
0.8465	54173.32	3.3600	3.3598	-0.5473	26.40	0.59	-0.750			
0.8480	54273.22	3.3570	3.3571	-0.5243	26.41	0.60	-0.750			
0.8496	54374.21	3.3540	3.3539	-0.5131	26.42	0.61	-0.750			
0.8511	54471.84	3.3510	3.3509	-0.4919	26.42	0.61	-0.750			
0.8526	54564.99	3.3480	3.3481	-0.4719	26.43	0.62	-0.750			
0.8539	54652.75	3.3450	3.3450	-0.4514	26.44	0.63	-0.750			
0.8553	54737.93	3.3420	3.3419	-0.4338	26.44	0.63	-0.750			
0.8565	54818.06	3.3390	3.3390	-0.4136	26.45	0.64	-0.750			
0.8577	54895.09	3.3360	3.3359	-0.3983	26.46	0.65	-0.750			
0.8589	54969.61	3.3330	3.3331	-0.3834	26.46	0.65	-0.750			
0.8600	55042.67	3.3300	3.3300	-0.3720	26.47	0.66	-0.750			
0.8611	55112.02	3.3270	3.3270	-0.3618	26.47	0.66	-0.750			
0.8622	55180.70	3.3240	3.3239	-0.3501	26.48	0.67	-0.750			
0.8632	55246.82	3.3210	3.3210	-0.3371	26.48	0.67	-0.750			
0.8642	55310.68	3.3180	3.3181	-0.3260	26.49	0.68	-0.750			
0.8652	55372.40	3.3150	3.3151	-0.3138	26.49	0.68	-0.750			
0.8661	55431.56	3.3120	3.3119	-0.3025	26.50	0.69	-0.750			
0.8670	55487.27	3.3090	3.3090	-0.2900	26.50	0.69	-0.750			
0.8678	55540.77	3.3060	3.3062	-0.2805	26.50	0.69	-0.750			
0.8687	55594.23	3.3030	3.3029	-0.2737	26.51	0.70	-0.750			
0.8695	55645.96	3.3000	3.3000	-0.2661	26.52	0.71	-0.750			
0.8703	55696.38	3.2970	3.2970	-0.2593	26.52	0.71	-0.750			
0.8710	55745.60	3.2940	3.2940	-0.2512	26.53	0.72	-0.750			
0.8718	55793.59	3.2910	3.2909	-0.2439	26.53	0.72	-0.750			
0.8725	55839.12	3.2880	3.2880	-0.2370	26.53	0.72	-0.750			
0.8732	55883.72	3.2850	3.2851	-0.2302	26.54	0.73	-0.750			
0.8739	55927.28	3.2820	3.2820	-0.2246	26.54	0.73	-0.750			
0.8745	55969.76	3.2790	3.2789	-0.2188	26.55	0.74	-0.750			
0.8752	56010.88	3.2760	3.2760	-0.2140	26.55	0.74	-0.750			
0.8758	56051.31	3.2730	3.2730	-0.2095	26.56	0.75	-0.750			
0.8764	56091.34	3.2700	3.2700	-0.2061	26.56	0.75	-0.750			
0.8770	56130.51	3.2670	3.2670	-0.2019	26.56	0.75	-0.750			
0.8776	56168.24	3.2640	3.2641	-0.1994	26.57	0.76	-0.750			
0.8782	56206.63	3.2610	3.2609	-0.1954	26.57	0.76	-0.750			
0.8788	56243.97	3.2580	3.2581	-0.1920	26.58	0.77	-0.750			
0.8794	56280.45	3.2550	3.2550	-0.1880	26.58	0.77	-0.750			
0.8799	56316.27	3.2520	3.2521	-0.1841	26.58	0.77	-0.750			
0.8805	56351.41	3.2490	3.2489	-0.1801	26.59	0.78	-0.750			
0.8810	56385.09	3.2460	3.2460	-0.1765	26.59	0.78	-0.750			
0.8815	56418.06	3.2430	3.2430	-0.1723	26.60	0.79	-0.750			
0.8820	56451.03	3.2400	3.2401	-0.1703	26.60	0.79	-0.750			
0.8826	56483.92	3.2370	3.2369	-0.1679	26.61	0.80	-0.750			
0.8831	56515.40	3.2340	3.2341	-0.1657	26.61	0.80	-0.750			
0.8835	56547.06	3.2310	3.2310	-0.1641	26.62	0.81	-0.750			
0.8840	56578.51	3.2280	3.2281	-0.1614	26.62	0.81	-0.750			
0.8845	56609.54	3.2250	3.2249	-0.1592	26.62	0.81	-0.750			
0.8850	56639.48	3.2220	3.2221	-0.1566	26.63	0.82	-0.750			
0.8855	56669.37	3.2190	3.2191	-0.1547	26.63	0.82	-0.750			
0.8859	56698.81	3.2160	3.2160	-0.1536	26.64	0.83	-0.750			
0.8864	56727.98	3.2130	3.2129	-0.1527	26.64	0.83	-0.750			
0.8868	56757.02	3.2100	3.2101	-0.1504	26.64	0.83	-0.750			
0.8873	56785.85	3.2070	3.2069	-0.1499	26.65	0.84	-0.750			
0.8877	56815.08	3.2040	3.2040	-0.1487	26.65	0.84	-0.750			
0.8882	56843.86	3.2010	3.2010	-0.1468	26.66	0.85	-0.750			
0.8886	56871.93	3.1980	3.1981	-0.1442	26.66	0.85	-0.750			
0.8890	56899.00	3.1950	3.1950	-0.1436	26.66	0.85	-0.750			
0.8895	56926.23	3.1920	3.1920	-0.1416	26.67	0.86	-0.750			
0.8899	56953.34	3.1890	3.1888	-0.1393	26.67	0.86	-0.750			
0.8903	56980.17	3.1860	3.1860	-0.1382	26.68	0.87	-0.750			
0.8907	57006.37	3.1830	3.1831	-0.1370	26.68	0.87	-0.750			
0.8911	57032.58	3.1800	3.1800	-0.1357	26.68	0.87	-0.750			
0.8915	57058.62	3.1770	3.1768	-0.1343	26.68	0.87	-0.750			
0.8919	57084.22	3.1740	3.1740	-0.1324	26.68	0.87	-0.750			
0.8923	57108.93	3.1710	3.1710	-0.1308	26.68	0.87	-0.750			
0.8927	57134.07	3.1680	3.1681	-0.1306	26.69	0.88	-0.750			
0.8931	57159.17	3.1650	3.1650	-0.1300	26.69	0.88	-0.750			
0.8935	57184.06	3.1620	3.1619	-0.1289	26.70	0.89	-0.750			
0.8939	57208.42	3.1590	3.1590	-0.1277	26.70	0.89	-0.750			
0.8943	57233.12	3.1560	3.1561	-0.1266	26.71	0.90	-0.750			
0.8947	57257.62	3.1530	3.1530	-0.1257	26.72	0.91	-0.750			
0.8950	57281.42	3.1500	3.1501	-0.1246	26.72	0.91	-0.750			
0.8954	57305.14	3.1470	3.1470	-0.1233	26.73	0.92	-0.750			
0.8958	57328.53	3.1440	3.1439	-0.1218	26.73	0.92	-0.750			
0.8961	57351.83	3.1410	3.1410	-0.1209	26.74	0.93	-0.750			
0.8965	57374.97	3.1380	3.1381	-0.1201	26.74	0.93	-0.750			
0.8968	57397.94	3.1350	3.1350	-0.1192	26.75	0.94	-0.750			
0.8972	57420.78	3.1320	3.1320	-0.1186	26.75	0.94	-0.750			
0.8976	57443.45	3.1290	3.1290	-0.1177	26.75	0.94	-0.750			
0.8979	57465.81	3.1260	3.1260	-0.1166	26.76	0.95	-0.750			
0.8983	57488.14	3.1230	3.1230	-0.1160	26.76	0.95	-0.750			
0.8986	57510.33	3.1200	3.1201	-0.1157	26.77	0.96	-0.750			
0.8989	57532.49	3.1170	3.1170	-0.1152	26.77	0.96	-0.750			
0.8993	57554.81	3.1140	3.1141	-0.1142	26.78	0.97	-0.750			
0.8996	57576.63	3.1110	3.1107	-0.1131	26.78	0.97	-0.750			
0.9000	57598.19	3.1080	3.1079	-0.1122	26.79	0.98	-0.750			
0.9003	57619.73	3.1050	3.1053	-0.1113	26.79	0.98	-0.750			
0.9006	57640.78	3.1020	3.1020	-0.1111	26.80	0.99	-0.750			
0.9010	57661.90	3.0990	3.0991	-0.1104	26.80	0.99	-0.750			
0.9013	57683.20	3.0960	3.0960	-0.1095	26.81	1.00	-0.750			
0.9016	57703.97	3.0930	3.0931	-0.1087	26.81	1.00	-0.750			
0.9019	57724.78	3.0900	3.0899	-0.1084	26.81	1.00	-0.750			
0.9023	57745.81	3.0870	3.0872	-0.1084	26.82	1.01	-0.750			
0.9026	57766.62	3.0840	3.0839	-0.1074	26.82	1.01	-0.750			
0.9029	57787.24	3.0810	3.0808	-0.1066	26.83	1.02	-0.750			
0.9032	57807.66	3.0780	3.0780	-0.1055	26.83	1.02	-0.750			
0.9036	57827.70	3.0750	3.0751	-0.1043	26.84	1.03	-0.750			
0.9039	57847.52	3.0720	3.0721	-0.1037	26.84	1.03	-0.750			
0.9042	57867.54	3.0690	3.0690	-0.1032	26.84	1.03	-0.750			
0.9045	57887.18	3.0660	3.0660	-0.1026	26.85	1.04	-0.750			
0.9048	57906.46	3.0630	3.0628	-0.1015	26.85	1.04	-0.750			
0.9051	57925.94	3.0600	3.0599	-0.1013	26.86	1.05	-0.750			
0.9054	57945.37	3.0570	3.0571	-0.1011	26.86	1.05	-0.750			
0.9057	57964.72	3.0540	3.0542	-0.1010	26.86	1.05	-0.750			
0.9060	57984.14	3.0510	3.0509	-0.1009	26.87	1.06	-0.750			
0.9063	58003.64	3.0480	3.0479	-0.1002	26.87	1.06	-0.750			
0.9066	58022.83	3.0450	3.0451	-0.0997	26.88	1.07	-0.750			
0.9069	58042.01	3.0420	3.0419	-0.0988	26.88	1.07	-0.750			
0.9072	58061.13	3.0390	3.0392	-0.0983	26.89	1.08	-0.750			
0.9075	58079.78	3.0360	3.0359	-0.0976	26.89	1.08	-0.750			
0.9078	58098.42	3.0330	3.0330	-0.0968	26.89	1.08	-0.750			
0.9081	58116.84	3.0300	3.0300	-0.0963	26.90	1.09	-0.750			
0.9084	58135.02	3.0270	3.0270	-0.0954	26.90	1.09	-0.750			
0.9086	58153.57	3.0240	3.0239	-0.0944	26.90	1.09	-0.750			
0.9089	58171.82	3.0210	3.0210	-0.0939	26.91	1.10	-0.750			
0.9092	58189.56	3.0180	3.0181	-0.0934	26.91	1.10	-0.750			
0.9095	58207.47	3.0150	3.0151	-0.0928	26.92	1.11	-0.750			
0.9098	58225.22	3.0120	3.0120	-0.0920	26.92	1.11	-0.750			
0.9100	58242.58	3.0090	3.0088	-0.0915	26.92	1.11	-0.751			
0.9103	58260.12	3.0060	3.0060	-0.0913	26.93	1.12	-0.751			
0.9106	58277.58	3.0030	3.0031	-0.0953	26.93	1.12	-0.751			
