Ah_balance (normalized)	Ah_balance (mAh)	Voltage - fit (V)	Voltage -  interpolate (V)	dQ/dV (1/V)	Temperature (°C)	Temperature - diff (°C)	Current (C)	R_DC 0ms (mOhm)	R_DC 50ms (mOhm)	R_DC 50 ms PEC (mOhm)
0.0003	21.74	4.1650	4.1650	-0.1518	25.53	0.01	-0.750			
0.0008	53.77	4.1620	4.1621	-0.1867	25.53	0.01	-0.750			
0.0014	91.78	4.1590	4.1591	-0.2275	25.53	0.01	-0.750			
0.0022	140.87	4.1560	4.1559	-0.2692	25.53	0.01	-0.750			
0.0031	196.05	4.1530	4.1529	-0.3125	25.53	0.01	-0.750			
0.0041	259.81	4.1500	4.1501	-0.3550	25.53	0.01	-0.750			
0.0052	332.35	4.1470	4.1470	-0.3968	25.53	0.01	-0.750			
0.0065	413.51	4.1440	4.1439	-0.4338	25.52	0.00	-0.750			
0.0078	501.98	4.1410	4.1411	-0.4691	25.52	0.00	-0.750			
0.0093	595.17	4.1380	4.1381	-0.5015	25.52	-0.00	-0.750			
0.0109	697.09	4.1350	4.1350	-0.5314	25.52	-0.00	-0.750			
0.0125	801.09	4.1320	4.1320	-0.5541	25.51	-0.01	-0.750			
0.0142	909.89	4.1290	4.1290	-0.5772	25.51	-0.01	-0.750			
0.0160	1023.89	4.1260	4.1261	-0.5977	25.51	-0.01	-0.750			
0.0178	1141.71	4.1230	4.1229	-0.6143	25.51	-0.01	-0.750			
0.0197	1262.23	4.1200	4.1201	-0.6300	25.50	-0.02	-0.750			
0.0216	1384.52	4.1170	4.1171	-0.6435	25.50	-0.02	-0.750			
0.0236	1510.34	4.1140	4.1140	-0.6578	25.50	-0.02	-0.750			
0.0256	1637.21	4.1110	4.1109	-0.6682	25.49	-0.03	-0.750			
0.0276	1766.23	4.1080	4.1081	-0.6777	25.49	-0.03	-0.750			
0.0297	1898.22	4.1050	4.1049	-0.6876	25.49	-0.03	-0.750			
0.0317	2031.00	4.1020	4.1020	-0.6944	25.48	-0.04	-0.750			
0.0338	2166.07	4.0990	4.0991	-0.6990	25.48	-0.04	-0.750			
0.0360	2301.30	4.0960	4.0960	-0.6995	25.48	-0.04	-0.750			
0.0381	2436.40	4.0930	4.0930	-0.7037	25.47	-0.05	-0.750			
0.0402	2571.04	4.0900	4.0901	-0.7164	25.47	-0.05	-0.750			
0.0423	2709.60	4.0870	4.0869	-0.7202	25.47	-0.05	-0.750			
0.0445	2848.95	4.0840	4.0838	-0.7241	25.46	-0.06	-0.750			
0.0467	2988.71	4.0810	4.0813	-0.7291	25.46	-0.06	-0.750			
0.0489	3129.49	4.0780	4.0780	-0.7336	25.46	-0.06	-0.750			
0.0511	3270.17	4.0750	4.0750	-0.7422	25.46	-0.06	-0.750			
0.0533	3411.77	4.0720	4.0720	-0.7374	25.46	-0.06	-0.750			
0.0555	3554.99	4.0690	4.0690	-0.7422	25.46	-0.06	-0.750			
0.0578	3697.99	4.0660	4.0659	-0.7452	25.46	-0.06	-0.750			
0.0600	3841.04	4.0630	4.0628	-0.7504	25.46	-0.06	-0.750			
0.0623	3985.28	4.0600	4.0600	-0.7472	25.46	-0.06	-0.750			
0.0645	4127.47	4.0570	4.0570	-0.7552	25.46	-0.06	-0.750			
0.0668	4273.51	4.0540	4.0540	-0.7558	25.45	-0.07	-0.750			
0.0691	4421.98	4.0510	4.0507	-0.7642	25.45	-0.07	-0.750			
0.0714	4568.71	4.0480	4.0484	-0.7640	25.45	-0.07	-0.750			
0.0737	4715.78	4.0450	4.0450	-0.7583	25.45	-0.07	-0.750			
0.0759	4860.07	4.0420	4.0419	-0.7616	25.45	-0.07	-0.750			
0.0782	5006.85	4.0390	4.0390	-0.7646	25.46	-0.06	-0.750			
0.0805	5152.33	4.0360	4.0360	-0.7639	25.46	-0.06	-0.750			
0.0828	5298.92	4.0330	4.0329	-0.7677	25.46	-0.06	-0.750			
0.0851	5447.17	4.0300	4.0300	-0.7692	25.46	-0.06	-0.750			
0.0874	5595.28	4.0270	4.0270	-0.7733	25.46	-0.06	-0.750			
0.0898	5745.23	4.0240	4.0240	-0.7758	25.46	-0.06	-0.750			
0.0921	5892.14	4.0210	4.0210	-0.7692	25.46	-0.06	-0.750			
0.0944	6041.38	4.0180	4.0180	-0.7753	25.46	-0.06	-0.750			
0.0967	6190.14	4.0150	4.0151	-0.7787	25.46	-0.06	-0.750			
0.0990	6338.95	4.0120	4.0120	-0.7801	25.46	-0.06	-0.750			
0.1014	6488.95	4.0090	4.0090	-0.7860	25.46	-0.06	-0.750			
0.1038	6640.16	4.0060	4.0060	-0.7880	25.46	-0.06	-0.750			
0.1061	6793.18	4.0030	4.0030	-0.7904	25.46	-0.06	-0.750			
0.1085	6945.35	4.0000	3.9999	-0.7920	25.46	-0.06	-0.750			
0.1109	7097.06	3.9970	3.9970	-0.7923	25.46	-0.06	-0.750			
0.1133	7249.15	3.9940	3.9939	-0.7973	25.47	-0.05	-0.750			
0.1157	7401.74	3.9910	3.9910	-0.7998	25.47	-0.05	-0.750			
0.1181	7556.13	3.9880	3.9880	-0.7992	25.47	-0.05	-0.750			
0.1205	7711.23	3.9850	3.9850	-0.8025	25.48	-0.04	-0.750			
0.1229	7865.54	3.9820	3.9819	-0.8008	25.48	-0.04	-0.750			
0.1253	8017.87	3.9790	3.9790	-0.8006	25.48	-0.04	-0.750			
0.1277	8171.14	3.9760	3.9760	-0.8010	25.48	-0.04	-0.750			
0.1301	8323.88	3.9730	3.9730	-0.7996	25.48	-0.04	-0.750			
0.1325	8478.59	3.9700	3.9699	-0.8047	25.48	-0.04	-0.750			
0.1349	8634.42	3.9670	3.9670	-0.8083	25.48	-0.04	-0.750			
0.1373	8787.94	3.9640	3.9640	-0.8119	25.48	-0.04	-0.750			
0.1398	8945.10	3.9610	3.9610	-0.8147	25.48	-0.04	-0.750			
0.1422	9100.85	3.9580	3.9580	-0.8145	25.49	-0.03	-0.750			
0.1447	9259.10	3.9550	3.9549	-0.8187	25.49	-0.03	-0.750			
0.1471	9416.84	3.9520	3.9521	-0.8213	25.49	-0.03	-0.750			
0.1496	9572.80	3.9490	3.9490	-0.8281	25.49	-0.03	-0.750			
0.1521	9733.70	3.9460	3.9459	-0.8281	25.49	-0.03	-0.750			
0.1546	9891.67	3.9430	3.9430	-0.8246	25.50	-0.02	-0.750			
0.1571	10052.11	3.9400	3.9399	-0.8329	25.50	-0.02	-0.750			
0.1596	10212.33	3.9370	3.9372	-0.8357	25.50	-0.02	-0.750			
0.1621	10372.51	3.9340	3.9339	-0.8399	25.51	-0.01	-0.750			
0.1646	10533.28	3.9310	3.9310	-0.8382	25.51	-0.01	-0.750			
0.1671	10692.57	3.9280	3.9280	-0.8368	25.51	-0.01	-0.750			
0.1697	10858.33	3.9250	3.9250	-0.8442	25.52	-0.00	-0.750			
0.1722	11020.05	3.9220	3.9220	-0.8436	25.52	0.00	-0.750			
0.1747	11181.41	3.9190	3.9190	-0.8408	25.52	0.00	-0.750			
0.1772	11342.72	3.9160	3.9160	-0.8447	25.52	0.00	-0.750			
0.1798	11509.50	3.9130	3.9128	-0.8305	25.53	0.01	-0.750			
0.1824	11672.49	3.9100	3.9099	-0.7981	25.53	0.01	-0.750			
0.1847	11821.90	3.9070	3.9072	-0.7783	25.53	0.01	-0.750			
0.1869	11960.14	3.9040	3.9046	-0.7948	25.53	0.01	-0.750			
0.1892	12109.65	3.9010	3.9002	-0.7911	25.53	0.01	-0.750			
0.1914	12251.26	3.8980	3.8977	-0.7986	25.54	0.02	-0.750			
0.1939	12412.41	3.8950	3.8952	-0.8208	25.54	0.02	-0.750			
0.1966	12582.05	3.8920	3.8926	-0.8416	25.54	0.02	-0.750			
0.1991	12743.25	3.8890	3.8891	-0.8710	25.54	0.02	-0.750			
0.2015	12897.94	3.8860	3.8863	-0.8840	25.55	0.03	-0.750			
0.2042	13071.83	3.8830	3.8826	-0.9103	25.55	0.03	-0.750			
0.2071	13255.71	3.8800	3.8794	-0.9378	25.56	0.04	-0.750			
0.2100	13439.17	3.8770	3.8771	-0.9475	25.56	0.04	-0.750			
0.2131	13636.11	3.8740	3.8742	-0.9558	25.57	0.05	-0.750			
0.2159	13819.50	3.8710	3.8709	-0.9300	25.57	0.05	-0.750			
0.2186	13992.56	3.8680	3.8679	-0.9069	25.58	0.06	-0.750			
0.2211	14152.97	3.8650	3.8651	-0.8751	25.58	0.06	-0.750			
0.2238	14320.58	3.8620	3.8619	-0.8747	25.58	0.06	-0.750			
0.2264	14488.46	3.8590	3.8589	-0.8805	25.59	0.07	-0.750			
0.2290	14657.66	3.8560	3.8560	-0.8761	25.59	0.07	-0.750			
0.2317	14828.20	3.8530	3.8530	-0.8827	25.60	0.08	-0.750			
0.2343	14998.20	3.8500	3.8502	-0.8779	25.60	0.08	-0.750			
0.2370	15165.10	3.8470	3.8470	-0.8769	25.60	0.08	-0.750			
0.2396	15331.84	3.8440	3.8440	-0.8777	25.60	0.08	-0.750			
0.2422	15499.39	3.8410	3.8410	-0.8768	25.60	0.08	-0.750			
0.2448	15669.90	3.8380	3.8379	-0.8802	25.60	0.08	-0.750			
0.2475	15839.97	3.8350	3.8351	-0.8794	25.60	0.08	-0.750			
0.2501	16008.78	3.8320	3.8320	-0.8816	25.61	0.09	-0.750			
0.2528	16178.60	3.8290	3.8290	-0.8805	25.61	0.09	-0.750			
0.2554	16345.44	3.8260	3.8259	-0.8761	25.61	0.09	-0.750			
0.2580	16514.31	3.8230	3.8230	-0.8790	25.62	0.10	-0.750			
0.2607	16684.51	3.8200	3.8199	-0.8797	25.62	0.10	-0.750			
0.2634	16857.09	3.8170	3.8169	-0.8613	25.63	0.11	-0.750			
0.2659	17019.05	3.8140	3.8141	-0.8614	25.63	0.11	-0.750			
0.2684	17179.95	3.8110	3.8112	-0.8678	25.64	0.12	-0.750			
0.2710	17346.83	3.8080	3.8080	-0.8699	25.64	0.12	-0.750			
0.2736	17512.29	3.8050	3.8047	-0.8844	25.65	0.13	-0.750			
0.2763	17683.21	3.8020	3.8023	-0.8944	25.66	0.14	-0.750			
0.2791	17859.85	3.7990	3.7990	-0.8969	25.66	0.14	-0.750			
0.2818	18037.97	3.7960	3.7959	-0.9033	25.67	0.15	-0.750			
0.2845	18206.02	3.7930	3.7932	-0.8847	25.68	0.16	-0.750			
0.2871	18375.93	3.7900	3.7899	-0.8878	25.68	0.16	-0.750			
0.2898	18549.02	3.7870	3.7870	-0.8818	25.68	0.16	-0.750			
0.2924	18714.78	3.7840	3.7839	-0.8742	25.68	0.16	-0.750			
0.2951	18885.22	3.7810	3.7810	-0.8716	25.68	0.16	-0.750			
0.2977	19051.36	3.7780	3.7781	-0.8687	25.68	0.16	-0.750			
0.3002	19215.81	3.7750	3.7749	-0.8754	25.69	0.17	-0.750			
0.3030	19389.11	3.7720	3.7718	-0.8580	25.69	0.17	-0.750			
0.3055	19550.49	3.7690	3.7689	-0.8433	25.69	0.17	-0.750			
0.3079	19708.12	3.7660	3.7662	-0.8592	25.70	0.18	-0.750			
0.3105	19870.20	3.7630	3.7628	-0.8612	25.70	0.18	-0.750			
0.3131	20035.59	3.7600	3.7592	-0.8764	25.70	0.18	-0.750			
0.3156	20200.36	3.7570	3.7576	-0.8813	25.71	0.19	-0.750			
0.3184	20377.53	3.7540	3.7542	-0.8951	25.71	0.19	-0.750			
0.3213	20561.98	3.7510	3.7510	-0.9108	25.71	0.19	-0.750			
0.3238	20723.95	3.7480	3.7481	-0.8720	25.71	0.19	-0.750			
0.3265	20893.55	3.7450	3.7450	-0.8779	25.71	0.19	-0.750			
0.3291	21063.05	3.7420	3.7420	-0.8764	25.72	0.20	-0.750			
0.3317	21229.90	3.7390	3.7390	-0.8792	25.72	0.20	-0.750			
0.3344	21400.83	3.7360	3.7361	-0.8814	25.72	0.20	-0.750			
0.3370	21568.09	3.7330	3.7329	-0.8878	25.73	0.21	-0.750			
0.3396	21736.68	3.7300	3.7300	-0.8983	25.73	0.21	-0.750			
0.3424	21914.55	3.7270	3.7268	-0.8857	25.74	0.22	-0.750			
0.3450	22081.97	3.7240	3.7239	-0.8952	25.75	0.23	-0.750			
0.3477	22252.14	3.7210	3.7214	-0.9120	25.75	0.23	-0.750			
0.3504	22423.63	3.7180	3.7177	-0.9428	25.75	0.23	-0.750			
0.3533	22609.40	3.7150	3.7145	-0.9650	25.75	0.23	-0.750			
0.3562	22795.02	3.7120	3.7122	-0.9845	25.75	0.23	-0.750			
0.3593	22995.41	3.7090	3.7093	-1.0123	25.75	0.23	-0.750			
0.3625	23197.68	3.7060	3.7058	-1.0306	25.75	0.23	-0.750			
0.3655	23388.98	3.7030	3.7030	-1.0273	25.76	0.24	-0.750			
0.3684	23577.99	3.7000	3.7000	-1.0296	25.76	0.24	-0.750			
0.3715	23776.90	3.6970	3.6971	-1.0544	25.76	0.24	-0.750			
0.3747	23981.70	3.6940	3.6939	-1.0750	25.76	0.24	-0.750			
0.3781	24197.16	3.6910	3.6909	-1.0729	25.75	0.23	-0.750			
0.3813	24400.90	3.6880	3.6880	-1.0992	25.75	0.23	-0.750			
0.3846	24611.49	3.6850	3.6852	-1.1297	25.75	0.23	-0.750			
0.3880	24828.95	3.6820	3.6821	-1.1550	25.75	0.23	-0.750			
0.3914	25051.71	3.6790	3.6777	-1.1757	25.75	0.23	-0.750			
0.3950	25277.52	3.6760	3.6762	-1.2233	25.75	0.23	-0.750			
0.3987	25519.75	3.6730	3.6730	-1.2533	25.75	0.23	-0.750			
0.4026	25766.63	3.6700	3.6699	-1.2830	25.74	0.22	-0.750			
0.4064	26009.94	3.6670	3.6670	-1.2996	25.73	0.21	-0.750			
0.4104	26267.31	3.6640	3.6640	-1.3277	25.73	0.21	-0.750			
0.4145	26527.88	3.6610	3.6609	-1.3578	25.73	0.21	-0.750			
0.4186	26791.76	3.6580	3.6579	-1.3669	25.72	0.20	-0.750			
0.4226	27045.29	3.6550	3.6552	-1.3945	25.72	0.20	-0.750			
0.4268	27318.27	3.6520	3.6520	-1.4536	25.72	0.20	-0.750			
0.4312	27597.97	3.6490	3.6482	-1.4950	25.71	0.19	-0.750			
0.4357	27886.81	3.6460	3.6462	-1.5420	25.71	0.19	-0.750			
0.4405	28194.49	3.6430	3.6431	-1.5967	25.70	0.18	-0.750			
0.4455	28511.95	3.6400	3.6400	-1.6413	25.69	0.17	-0.750			
0.4504	28827.59	3.6370	3.6370	-1.6485	25.69	0.17	-0.750			
0.4554	29148.80	3.6340	3.6338	-1.6707	25.68	0.16	-0.750			
0.4603	29461.24	3.6310	3.6311	-1.6760	25.68	0.16	-0.750			
0.4654	29783.06	3.6280	3.6283	-1.7209	25.67	0.15	-0.750	0.407	0.499	
0.4705	30112.63	3.6250	3.6238	-1.7633	25.66	0.14	-0.750			
0.4758	30454.23	3.6220	3.6224	-1.8029	25.65	0.13	-0.750			
0.4814	30811.32	3.6190	3.6192	-1.8466	25.64	0.12	-0.750			
0.4872	31182.10	3.6160	3.6159	-1.8953	25.64	0.12	-0.750			
0.4932	31563.94	3.6130	3.6130	-1.9081	25.64	0.12	-0.750			
0.4985	31904.32	3.6100	3.6099	-1.8709	25.64	0.12	-0.750			
0.5042	32268.10	3.6070	3.6070	-1.9326	25.63	0.11	-0.750			
0.5099	32634.55	3.6040	3.6041	-1.9561	25.62	0.10	-0.750			
0.5159	33020.31	3.6010	3.6009	-1.9898	25.62	0.10	-0.750			
0.5219	33401.07	3.5980	3.5981	-2.0293	25.62	0.10	-0.750			
0.5280	33795.17	3.5950	3.5950	-2.0990	25.61	0.09	-0.750			
0.5343	34198.36	3.5920	3.5922	-2.1375	25.61	0.09	-0.750			
0.5409	34616.48	3.5890	3.5890	-2.1901	25.60	0.08	-0.750			
0.5477	35050.11	3.5860	3.5860	-2.2453	25.60	0.08	-0.750			
0.5545	35488.80	3.5830	3.5830	-2.2631	25.60	0.08	-0.750			
0.5615	35934.03	3.5800	3.5801	-2.3170	25.60	0.08	-0.750			
0.5684	36378.90	3.5770	3.5770	-2.3257	25.60	0.08	-0.750			
0.5754	36824.93	3.5740	3.5737	-2.3410	25.60	0.08	-0.750			
0.5825	37278.30	3.5710	3.5711	-2.3572	25.60	0.08	-0.750			
0.5897	37739.56	3.5680	3.5683	-2.3665	25.60	0.08	-0.750			
0.5968	38193.91	3.5650	3.5650	-2.3712	25.59	0.07	-0.750			
0.6038	38642.46	3.5620	3.5619	-2.3550	25.60	0.08	-0.750			
0.6109	39096.48	3.5590	3.5591	-2.3741	25.60	0.08	-0.750			
0.6181	39560.52	3.5560	3.5561	-2.3972	25.60	0.08	-0.750			
0.6253	40021.46	3.5530	3.5531	-2.3822	25.60	0.08	-0.750			
0.6325	40476.91	3.5500	3.5500	-2.3753	25.60	0.08	-0.750			
0.6396	40934.04	3.5470	3.5469	-2.3814	25.60	0.08	-0.750			
0.6467	41388.42	3.5440	3.5440	-2.3562	25.61	0.09	-0.750			
0.6537	41839.86	3.5410	3.5410	-2.3516	25.62	0.10	-0.750			
0.6609	42295.94	3.5380	3.5381	-2.3224	25.62	0.10	-0.750			
0.6678	42741.31	3.5350	3.5347	-2.2714	25.63	0.11	-0.750			
0.6747	43181.31	3.5320	3.5321	-2.2087	25.64	0.12	-0.750			
0.6812	43596.03	3.5290	3.5292	-2.1324	25.65	0.13	-0.750			
0.6874	43993.30	3.5260	3.5260	-2.0702	25.66	0.14	-0.750			
0.6934	44378.42	3.5230	3.5226	-1.9966	25.67	0.15	-0.750			
0.6993	44756.58	3.5200	3.5197	-1.9429	25.68	0.16	-0.750			
0.7052	45132.77	3.5170	3.5172	-1.9073	25.69	0.17	-0.750			
0.7108	45490.93	3.5140	3.5139	-1.8538	25.70	0.18	-0.750			
0.7163	45841.90	3.5110	3.5110	-1.7793	25.71	0.19	-0.750			
0.7216	46179.30	3.5080	3.5081	-1.7016	25.72	0.20	-0.750			
0.7267	46507.03	3.5050	3.5048	-1.6425	25.74	0.22	-0.750			
0.7314	46812.44	3.5020	3.5022	-1.5865	25.76	0.24	-0.750			
0.7361	47107.74	3.4990	3.4990	-1.5219	25.78	0.26	-0.750			
0.7405	47391.56	3.4960	3.4958	-1.4654	25.79	0.27	-0.750			
0.7447	47664.00	3.4930	3.4931	-1.4214	25.80	0.28	-0.750			
0.7490	47935.01	3.4900	3.4899	-1.3755	25.82	0.30	-0.750			
0.7531	48196.09	3.4870	3.4870	-1.3292	25.83	0.31	-0.750			
0.7570	48445.99	3.4840	3.4839	-1.2819	25.84	0.32	-0.750			
0.7607	48685.16	3.4810	3.4810	-1.2364	25.86	0.34	-0.750			
0.7644	48920.05	3.4780	3.4779	-1.1957	25.87	0.35	-0.750			
0.7679	49145.25	3.4750	3.4749	-1.1517	25.89	0.37	-0.750			
0.7712	49359.52	3.4720	3.4723	-1.1093	25.90	0.38	-0.750			
0.7746	49571.81	3.4690	3.4689	-1.0810	25.91	0.39	-0.750			
0.7777	49775.06	3.4660	3.4660	-1.0404	25.92	0.40	-0.750			
0.7808	49970.12	3.4630	3.4629	-1.0056	25.93	0.41	-0.750			
0.7837	50158.53	3.4600	3.4601	-0.9871	25.94	0.42	-0.750			
0.7866	50342.98	3.4570	3.4570	-0.9658	25.95	0.43	-0.750			
0.7894	50523.56	3.4540	3.4538	-0.9533	25.96	0.44	-0.750			
0.7923	50704.38	3.4510	3.4510	-0.9468	25.97	0.45	-0.750			
0.7950	50882.05	3.4480	3.4480	-0.9584	25.98	0.46	-0.750			
0.7979	51066.24	3.4450	3.4450	-0.9828	25.99	0.47	-0.750			
0.8008	51252.55	3.4420	3.4420	-1.0136	26.00	0.48	-0.750			
0.8039	51448.83	3.4390	3.4390	-1.0539	26.01	0.49	-0.750			
0.8071	51654.08	3.4360	3.4360	-1.1028	26.02	0.50	-0.750			
0.8105	51874.09	3.4330	3.4330	-1.1480	26.02	0.50	-0.750			
0.8141	52105.13	3.4300	3.4300	-1.1773	26.03	0.51	-0.750			
0.8177	52335.54	3.4270	3.4270	-1.1902	26.04	0.52	-0.750			
0.8214	52568.96	3.4240	3.4244	-1.1981	26.05	0.53	-0.750			
0.8251	52803.68	3.4210	3.4209	-1.1778	26.06	0.54	-0.750			
0.8286	53031.71	3.4180	3.4180	-1.1523	26.06	0.54	-0.750			
0.8320	53249.36	3.4150	3.4150	-1.1137	26.07	0.55	-0.750			
0.8353	53461.06	3.4120	3.4120	-1.0832	26.07	0.55	-0.750			
0.8385	53664.93	3.4090	3.4089	-1.0424	26.08	0.56	-0.750			
0.8416	53863.20	3.4060	3.4058	-0.9830	26.09	0.57	-0.750			
0.8445	54051.12	3.4030	3.4029	-0.9124	26.10	0.58	-0.750			
0.8472	54221.92	3.4000	3.4003	-0.8530	26.11	0.59	-0.750			
0.8495	54370.50	3.3970	3.3976	-0.8150	26.12	0.60	-0.750			
0.8518	54517.05	3.3940	3.3946	-0.7819	26.12	0.60	-0.750			
0.8538	54645.45	3.3910	3.3907	-0.7872	26.12	0.60	-0.750			
0.8562	54798.87	3.3880	3.3879	-0.8169	26.13	0.61	-0.750			
0.8590	54973.74	3.3850	3.3850	-0.8312	26.13	0.61	-0.750			
0.8616	55140.05	3.3820	3.3821	-0.8198	26.14	0.62	-0.750			
0.8642	55309.96	3.3790	3.3793	-0.7957	26.15	0.63	-0.750			
0.8665	55456.57	3.3760	3.3760	-0.7411	26.15	0.63	-0.750			
0.8686	55590.99	3.3730	3.3727	-0.6783	26.16	0.64	-0.750			
0.8704	55705.38	3.3700	3.3700	-0.6212	26.17	0.65	-0.750			
0.8722	55821.58	3.3670	3.3671	-0.5937	26.17	0.65	-0.750			
0.8740	55933.17	3.3640	3.3640	-0.5697	26.18	0.66	-0.750			
0.8756	56039.28	3.3610	3.3609	-0.5434	26.18	0.66	-0.750			
0.8772	56140.74	3.3580	3.3581	-0.5214	26.19	0.67	-0.750			
0.8787	56238.73	3.3550	3.3550	-0.5008	26.19	0.67	-0.750			
0.8802	56333.91	3.3520	3.3519	-0.4815	26.20	0.68	-0.750			
0.8816	56423.81	3.3490	3.3491	-0.4595	26.20	0.68	-0.750			
0.8830	56509.65	3.3460	3.3459	-0.4401	26.21	0.69	-0.750			
0.8842	56591.73	3.3430	3.3430	-0.4217	26.21	0.69	-0.750			
0.8855	56670.31	3.3400	3.3400	-0.4040	26.22	0.70	-0.750			
0.8867	56746.09	3.3370	3.3370	-0.3862	26.22	0.70	-0.750			
0.8878	56819.50	3.3340	3.3340	-0.3700	26.23	0.71	-0.750			
0.8889	56888.89	3.3310	3.3310	-0.3554	26.23	0.71	-0.750			
0.8899	56954.96	3.3280	3.3279	-0.3410	26.23	0.71	-0.750			
0.8909	57018.75	3.3250	3.3249	-0.3254	26.24	0.72	-0.750			
0.8919	57080.01	3.3220	3.3221	-0.3111	26.24	0.72	-0.750			
0.8928	57137.44	3.3190	3.3191	-0.3009	26.25	0.73	-0.750			
0.8937	57194.45	3.3160	3.3159	-0.2902	26.25	0.73	-0.750			
0.8945	57248.80	3.3130	3.3129	-0.2794	26.25	0.73	-0.750			
0.8953	57300.94	3.3100	3.3100	-0.2689	26.26	0.74	-0.750			
0.8961	57351.92	3.3070	3.3072	-0.2591	26.26	0.74	-0.750			
0.8969	57401.60	3.3040	3.3039	-0.2506	26.26	0.74	-0.750			
0.8976	57448.60	3.3010	3.3010	-0.2427	26.27	0.75	-0.750			
0.8983	57493.44	3.2980	3.2981	-0.2330	26.27	0.75	-0.750			
0.8990	57536.84	3.2950	3.2949	-0.2248	26.28	0.76	-0.750			
0.8997	57579.91	3.2920	3.2919	-0.2189	26.28	0.76	-0.750			
0.9003	57620.93	3.2890	3.2891	-0.2119	26.29	0.77	-0.750			
0.9009	57660.59	3.2860	3.2860	-0.2064	26.29	0.77	-0.750			
0.9016	57699.68	3.2830	3.2828	-0.2015	26.29	0.77	-0.750			
0.9022	57737.85	3.2800	3.2802	-0.1962	26.30	0.78	-0.750			
0.9027	57774.41	3.2770	3.2770	-0.1906	26.30	0.78	-0.750			
0.9033	57810.78	3.2740	3.2740	-0.1868	26.30	0.78	-0.750			
0.9038	57846.07	3.2710	3.2711	-0.1828	26.31	0.79	-0.750			
0.9044	57880.79	3.2680	3.2679	-0.1788	26.31	0.79	-0.750			
0.9049	57914.71	3.2650	3.2650	-0.1749	26.31	0.79	-0.750			
0.9054	57947.63	3.2620	3.2621	-0.1707	26.32	0.80	-0.750			
0.9059	57979.94	3.2590	3.2590	-0.1678	26.32	0.80	-0.750			
0.9064	58011.87	3.2560	3.2560	-0.1648	26.32	0.80	-0.750			
0.9069	58043.28	3.2530	3.2530	-0.1619	26.33	0.81	-0.750			
0.9074	58074.03	3.2500	3.2499	-0.1586	26.33	0.81	-0.750			
0.9079	58104.12	3.2470	3.2470	-0.1555	26.33	0.81	-0.750			
0.9083	58133.75	3.2440	3.2441	-0.1523	26.34	0.82	-0.750			
0.9088	58162.75	3.2410	3.2412	-0.1499	26.34	0.82	-0.750			
0.9092	58191.24	3.2380	3.2380	-0.1469	26.34	0.82	-0.750			
0.9097	58218.74	3.2350	3.2350	-0.1443	26.35	0.83	-0.750			
0.9101	58246.38	3.2320	3.2319	-0.1423	26.35	0.83	-0.750			
0.9105	58273.60	3.2290	3.2290	-0.1400	26.36	0.84	-0.750			
0.9109	58300.28	3.2260	3.2260	-0.1379	26.36	0.84	-0.750			
0.9114	58326.68	3.2230	3.2231	-0.1355	26.36	0.84	-0.750			
0.9118	58352.36	3.2200	3.2200	-0.1341	26.37	0.85	-0.750			
0.9121	58377.59	3.2170	3.2171	-0.1322	26.37	0.85	-0.750			
0.9125	58402.86	3.2140	3.2140	-0.1310	26.37	0.85	-0.750			
0.9129	58427.70	3.2110	3.2108	-0.1296	26.38	0.86	-0.750			
0.9133	58452.87	3.2080	3.2080	-0.1279	26.38	0.86	-0.750			
0.9137	58477.53	3.2050	3.2050	-0.1266	26.39	0.87	-0.750			
0.9141	58501.43	3.2020	3.2021	-0.1249	26.39	0.87	-0.750			
0.9145	58525.37	3.1990	3.1990	-0.1232	26.39	0.87	-0.750			
0.9148	58548.26	3.1960	3.1960	-0.1216	26.40	0.88	-0.750			
0.9152	58571.26	3.1930	3.1931	-0.1202	26.40	0.88	-0.750			
0.9155	58594.65	3.1900	3.1899	-0.1189	26.40	0.88	-0.750			
0.9159	58617.33	3.1870	3.1871	-0.1177	26.41	0.89	-0.750			
0.9162	58639.72	3.1840	3.1839	-0.1169	26.41	0.89	-0.750			
0.9166	58662.40	3.1810	3.1811	-0.1164	26.41	0.89	-0.750			
0.9169	58684.75	3.1780	3.1781	-0.1147	26.42	0.90	-0.750			
0.9173	58706.59	3.1750	3.1750	-0.1130	26.42	0.90	-0.750			
0.9176	58727.88	3.1720	3.1719	-0.1121	26.42	0.90	-0.750			
0.9180	58748.99	3.1690	3.1691	-0.1106	26.43	0.91	-0.750			
0.9183	58770.17	3.1660	3.1662	-0.1100	26.43	0.91	-0.750			
0.9186	58791.38	3.1630	3.1628	-0.1095	26.43	0.91	-0.750			
0.9189	58812.40	3.1600	3.1599	-0.1083	26.44	0.92	-0.750			
0.9193	58832.86	3.1570	3.1571	-0.1069	26.44	0.92	-0.750			
0.9196	58853.28	3.1540	3.1541	-0.1064	26.44	0.92	-0.750			
0.9199	58873.97	3.1510	3.1510	-0.1062	26.44	0.92	-0.750			
0.9202	58894.33	3.1480	3.1478	-0.1048	26.45	0.93	-0.750			
0.9205	58914.18	3.1450	3.1451	-0.1034	26.45	0.93	-0.750			
0.9208	58933.82	3.1420	3.1420	-0.1028	26.45	0.93	-0.750			
0.9211	58953.42	3.1390	3.1392	-0.1020	26.46	0.94	-0.750			
0.9215	58972.98	3.1360	3.1360	-0.1010	26.46	0.94	-0.750			
0.9218	58992.43	3.1330	3.1328	-0.1003	26.47	0.95	-0.750			
0.9221	59011.52	3.1300	3.1301	-0.0997	26.47	0.95	-0.750			
0.9223	59030.33	3.1270	3.1272	-0.0987	26.47	0.95	-0.750			
0.9227	59050.05	3.1240	3.1238	-0.0952	26.48	0.96	-0.750			
0.9230	59068.90	3.1210	3.1209	-0.0938	26.48	0.96	-0.750			
0.9232	59086.12	3.1180	3.1181	-0.0917	26.48	0.96	-0.750			
0.9235	59103.48	3.1150	3.1153	-0.0891	26.49	0.97	-0.750			
0.9238	59120.34	3.1120	3.1125	-0.0865	26.49	0.97	-0.750			
0.9240	59135.66	3.1090	3.1086	-0.0863	26.49	0.97	-0.750			
0.9243	59152.20	3.1060	3.1053	-0.0861	26.50	0.98	-0.750			
0.9245	59167.34	3.1030	3.1027	-0.0858	26.50	0.98	-0.750			
0.9248	59184.04	3.1000	3.1002	-0.0882	26.50	0.98	-0.750			
0.9250	59200.36	3.0970	3.0972	-0.0933	26.51	0.99	-0.750			
0.9253	59218.71	3.0940	3.0941	-0.0979	26.51	0.99	-0.750			
0.9256	59238.50	3.0910	3.0907	-0.0984	26.51	0.99	-0.750			
0.9259	59257.89	3.0880	3.0874	-0.1011	26.52	1.00	-0.750			
0.9262	59278.36	3.0850	3.0853	-0.0986	26.52	1.00	-0.750			
0.9265	59298.84	3.0820	3.0824	-0.0992	26.52	1.00	-0.750			
0.9268	59317.68	3.0790	3.0793	-0.0962	26.53	1.01	-0.750			
0.9271	59337.36	3.0760	3.0758	-0.0943	26.53	1.01	-0.750			
0.9274	59354.38	3.0730	3.0729	-0.0923	26.53	1.01	-0.750			
0.9277	59370.19	3.0700	3.0700	-0.0879	26.54	1.02	-0.750			
0.9279	59386.80	3.0670	3.0670	-0.0877	26.54	1.02	-0.750			
0.9282	59403.24	3.0640	3.0640	-0.0869	26.54	1.02	-0.750			
0.9284	59420.11	3.0610	3.0610	-0.0863	26.55	1.03	-0.750			
0.9287	59436.77	3.0580	3.0580	-0.0860	26.55	1.03	-0.750			
0.9290	59453.19	3.0550	3.0550	-0.0856	26.55	1.03	-0.750			
0.9292	59469.66	3.0520	3.0522	-0.0852	26.56	1.04	-0.750			
0.9295	59485.95	3.0490	3.0492	-0.0845	26.56	1.04	-0.750			
0.9297	59502.07	3.0460	3.0459	-0.0842	26.56	1.04	-0.750			
0.9300	59518.20	3.0430	3.0429	-0.0838	26.57	1.05	-0.750			
0.9302	59534.05	3.0400	3.0400	-0.0830	26.57	1.05	-0.750			
0.9305	59549.97	3.0370	3.0372	-0.0829	26.57	1.05	-0.750			
0.9307	59566.09	3.0340	3.0340	-0.0829	26.58	1.06	-0.750			
0.9310	59581.95	3.0310	3.0310	-0.0825	26.58	1.06	-0.750			
0.9312	59597.71	3.0280	3.0279	-0.0820	26.58	1.06	-0.750			
0.9315	59613.40	3.0250	3.0250	-0.0815	26.58	1.06	-0.750			
0.9317	59629.05	3.0220	3.0221	-0.0810	26.59	1.07	-0.750			
0.9319	59644.60	3.0190	3.0189	-0.0806	26.59	1.07	-0.750			
0.9322	59659.95	3.0160	3.0160	-0.0802	26.59	1.07	-0.750			
0.9324	59675.31	3.0130	3.0131	-0.0798	26.60	1.08	-0.750			
0.9327	59690.52	3.0100	3.0100	-0.0794	26.60	1.08	-0.750			
0.9329	59705.73	3.0070	3.0071	-0.0791	26.60	1.08	-0.751			
0.9331	59720.77	3.0040	3.0040	-0.0794	26.61	1.09	-0.751			
0.9334	59736.05	3.0010	3.0010	-0.0797	26.61	1.09	-0.751			
