Ah_balance (normalized)	Ah_balance (mAh)	Voltage - fit (V)	Voltage -  interpolate (V)	dQ/dV (1/V)	Temperature (°C)	Temperature - diff (°C)	Current (C)	R_DC 0ms (mOhm)	R_DC 50ms (mOhm)	R_DC 50 ms PEC (mOhm)
0.0004	23.95	4.1620	4.1617	-0.1234	25.82	0.03	-0.750			
0.0008	50.99	4.1590	4.1588	-0.1638	25.81	0.02	-0.750			
0.0014	86.72	4.1560	4.1561	-0.2071	25.81	0.02	-0.750			
0.0020	131.11	4.1530	4.1531	-0.2483	25.81	0.02	-0.750			
0.0029	183.01	4.1500	4.1500	-0.2880	25.81	0.02	-0.750			
0.0038	243.40	4.1470	4.1470	-0.3251	25.80	0.01	-0.750			
0.0048	310.22	4.1440	4.1440	-0.3606	25.80	0.01	-0.750			
0.0060	383.17	4.1410	4.1411	-0.3943	25.80	0.01	-0.750			
0.0072	461.76	4.1380	4.1380	-0.4247	25.79	0.00	-0.750			
0.0085	547.09	4.1350	4.1351	-0.4505	25.79	-0.00	-0.750			
0.0099	636.03	4.1320	4.1320	-0.4785	25.78	-0.01	-0.750			
0.0114	730.32	4.1290	4.1291	-0.5044	25.78	-0.01	-0.750			
0.0130	830.72	4.1260	4.1259	-0.5287	25.78	-0.01	-0.750			
0.0146	934.46	4.1230	4.1230	-0.5536	25.77	-0.02	-0.750			
0.0163	1044.21	4.1200	4.1200	-0.5678	25.76	-0.03	-0.750			
0.0181	1156.49	4.1170	4.1170	-0.5835	25.76	-0.03	-0.750			
0.0199	1270.69	4.1140	4.1140	-0.5959	25.75	-0.04	-0.750			
0.0216	1385.25	4.1110	4.1110	-0.6049	25.75	-0.04	-0.750			
0.0235	1503.24	4.1080	4.1079	-0.6126	25.74	-0.05	-0.750			
0.0253	1621.49	4.1050	4.1050	-0.6211	25.74	-0.05	-0.750			
0.0272	1741.10	4.1020	4.1020	-0.6258	25.73	-0.06	-0.750			
0.0291	1863.49	4.0990	4.0991	-0.6364	25.73	-0.06	-0.750			
0.0310	1985.42	4.0960	4.0959	-0.6450	25.73	-0.06	-0.750			
0.0330	2109.66	4.0930	4.0931	-0.6521	25.72	-0.07	-0.750			
0.0349	2235.82	4.0900	4.0899	-0.6589	25.72	-0.07	-0.750			
0.0369	2364.48	4.0870	4.0870	-0.6651	25.72	-0.07	-0.750			
0.0389	2492.63	4.0840	4.0840	-0.6735	25.72	-0.07	-0.750			
0.0410	2623.40	4.0810	4.0810	-0.6785	25.72	-0.07	-0.750			
0.0430	2754.23	4.0780	4.0779	-0.6808	25.72	-0.07	-0.750			
0.0451	2884.92	4.0750	4.0749	-0.6834	25.72	-0.07	-0.750			
0.0471	3017.59	4.0720	4.0721	-0.6870	25.72	-0.07	-0.750			
0.0492	3149.37	4.0690	4.0690	-0.6890	25.71	-0.08	-0.750			
0.0513	3282.27	4.0660	4.0660	-0.6951	25.71	-0.08	-0.750			
0.0534	3415.28	4.0630	4.0630	-0.6938	25.71	-0.08	-0.750			
0.0555	3549.45	4.0600	4.0599	-0.6999	25.70	-0.09	-0.750			
0.0576	3683.38	4.0570	4.0570	-0.7045	25.70	-0.09	-0.750			
0.0597	3819.30	4.0540	4.0539	-0.7079	25.70	-0.09	-0.750			
0.0618	3955.70	4.0510	4.0509	-0.7118	25.70	-0.09	-0.750			
0.0639	4092.23	4.0480	4.0480	-0.7156	25.70	-0.09	-0.750			
0.0661	4230.46	4.0450	4.0451	-0.7181	25.70	-0.09	-0.750			
0.0683	4371.56	4.0420	4.0419	-0.7209	25.70	-0.09	-0.750			
0.0705	4509.08	4.0390	4.0391	-0.7184	25.70	-0.09	-0.750			
0.0726	4645.82	4.0360	4.0361	-0.7155	25.70	-0.09	-0.750			
0.0747	4782.64	4.0330	4.0329	-0.7193	25.70	-0.09	-0.750			
0.0769	4919.48	4.0300	4.0300	-0.7227	25.70	-0.09	-0.750			
0.0791	5059.67	4.0270	4.0268	-0.7231	25.70	-0.09	-0.750			
0.0813	5200.47	4.0240	4.0240	-0.7283	25.70	-0.09	-0.750			
0.0834	5340.48	4.0210	4.0211	-0.7310	25.70	-0.09	-0.750			
0.0856	5480.49	4.0180	4.0180	-0.7339	25.70	-0.09	-0.750			
0.0878	5621.35	4.0150	4.0149	-0.7385	25.70	-0.09	-0.750			
0.0900	5761.50	4.0120	4.0120	-0.7366	25.71	-0.08	-0.750			
0.0923	5905.05	4.0090	4.0090	-0.7408	25.71	-0.08	-0.750			
0.0945	6048.19	4.0060	4.0059	-0.7429	25.71	-0.08	-0.750			
0.0967	6190.69	4.0030	4.0030	-0.7435	25.71	-0.08	-0.750			
0.0989	6332.79	4.0000	4.0000	-0.7432	25.71	-0.08	-0.750			
0.1012	6474.65	3.9970	3.9970	-0.7451	25.71	-0.08	-0.750			
0.1034	6617.58	3.9940	3.9940	-0.7439	25.71	-0.08	-0.750			
0.1057	6763.30	3.9910	3.9909	-0.7502	25.71	-0.08	-0.750			
0.1079	6908.01	3.9880	3.9881	-0.7523	25.71	-0.08	-0.750			
0.1102	7051.69	3.9850	3.9850	-0.7529	25.71	-0.08	-0.750			
0.1124	7195.40	3.9820	3.9820	-0.7544	25.71	-0.08	-0.750			
0.1147	7341.18	3.9790	3.9790	-0.7548	25.72	-0.07	-0.750			
0.1170	7485.21	3.9760	3.9760	-0.7550	25.72	-0.07	-0.750			
0.1192	7631.72	3.9730	3.9730	-0.7598	25.72	-0.07	-0.750			
0.1215	7776.81	3.9700	3.9701	-0.7627	25.72	-0.07	-0.750			
0.1238	7922.60	3.9670	3.9670	-0.7665	25.73	-0.06	-0.750			
0.1261	8069.88	3.9640	3.9640	-0.7728	25.73	-0.06	-0.750			
0.1284	8219.38	3.9610	3.9610	-0.7751	25.74	-0.05	-0.750			
0.1308	8369.81	3.9580	3.9580	-0.7801	25.74	-0.05	-0.750			
0.1331	8520.55	3.9550	3.9551	-0.7811	25.75	-0.04	-0.750			
0.1355	8670.36	3.9520	3.9520	-0.7814	25.75	-0.04	-0.750			
0.1378	8819.62	3.9490	3.9490	-0.7821	25.75	-0.04	-0.750			
0.1402	8970.61	3.9460	3.9460	-0.7825	25.75	-0.04	-0.750			
0.1425	9119.91	3.9430	3.9430	-0.7837	25.75	-0.04	-0.750			
0.1449	9271.94	3.9400	3.9400	-0.7847	25.75	-0.04	-0.750			
0.1472	9422.86	3.9370	3.9370	-0.7837	25.75	-0.04	-0.750			
0.1496	9572.03	3.9340	3.9340	-0.7878	25.75	-0.04	-0.750			
0.1519	9722.81	3.9310	3.9311	-0.7859	25.75	-0.04	-0.750			
0.1543	9873.65	3.9280	3.9279	-0.7886	25.76	-0.03	-0.750			
0.1567	10026.00	3.9250	3.9250	-0.7921	25.76	-0.03	-0.750			
0.1590	10178.44	3.9220	3.9220	-0.7927	25.76	-0.03	-0.750			
0.1614	10331.34	3.9190	3.9190	-0.7952	25.76	-0.03	-0.750			
0.1638	10484.78	3.9160	3.9160	-0.7989	25.76	-0.03	-0.750			
0.1662	10639.21	3.9130	3.9130	-0.7953	25.77	-0.02	-0.750			
0.1687	10794.25	3.9100	3.9099	-0.7918	25.77	-0.02	-0.750			
0.1710	10943.58	3.9070	3.9072	-0.7890	25.77	-0.02	-0.750			
0.1733	11092.87	3.9040	3.9042	-0.7925	25.77	-0.02	-0.750			
0.1757	11242.02	3.9010	3.9009	-0.8030	25.78	-0.01	-0.750			
0.1781	11396.73	3.8980	3.8977	-0.8141	25.78	-0.01	-0.750			
0.1806	11557.29	3.8950	3.8950	-0.8188	25.79	-0.00	-0.750			
0.1831	11716.21	3.8920	3.8923	-0.8250	25.79	-0.00	-0.750			
0.1856	11880.00	3.8890	3.8890	-0.8327	25.79	0.00	-0.750			
0.1881	12038.87	3.8860	3.8859	-0.8248	25.80	0.01	-0.750			
0.1905	12193.11	3.8830	3.8829	-0.8117	25.80	0.01	-0.750			
0.1930	12348.98	3.8800	3.8801	-0.8124	25.81	0.02	-0.750			
0.1954	12504.60	3.8770	3.8770	-0.8124	25.81	0.02	-0.750			
0.1978	12660.63	3.8740	3.8739	-0.8111	25.81	0.02	-0.750			
0.2002	12813.82	3.8710	3.8709	-0.8143	25.81	0.02	-0.750			
0.2027	12971.06	3.8680	3.8680	-0.8171	25.82	0.03	-0.750			
0.2052	13130.57	3.8650	3.8649	-0.8164	25.82	0.03	-0.750			
0.2076	13288.60	3.8620	3.8621	-0.8208	25.82	0.03	-0.750			
0.2101	13445.28	3.8590	3.8589	-0.8199	25.82	0.03	-0.750			
0.2125	13601.45	3.8560	3.8560	-0.8199	25.83	0.04	-0.750			
0.2150	13758.67	3.8530	3.8529	-0.8224	25.83	0.04	-0.750			
0.2174	13915.71	3.8500	3.8500	-0.8164	25.83	0.04	-0.750			
0.2199	14076.17	3.8470	3.8470	-0.8258	25.84	0.05	-0.750			
0.2224	14234.53	3.8440	3.8440	-0.8254	25.84	0.05	-0.750			
0.2249	14392.10	3.8410	3.8410	-0.8249	25.85	0.06	-0.750			
0.2274	14551.02	3.8380	3.8379	-0.8274	25.86	0.07	-0.750			
0.2298	14710.06	3.8350	3.8350	-0.8250	25.86	0.07	-0.750			
0.2324	14871.16	3.8320	3.8320	-0.8227	25.87	0.08	-0.750			
0.2348	15027.90	3.8290	3.8289	-0.8246	25.87	0.08	-0.750			
0.2372	15183.18	3.8260	3.8261	-0.8248	25.87	0.08	-0.750			
0.2397	15343.02	3.8230	3.8230	-0.8237	25.88	0.09	-0.750			
0.2422	15499.74	3.8200	3.8199	-0.8233	25.88	0.09	-0.750			
0.2447	15661.26	3.8170	3.8170	-0.8226	25.88	0.09	-0.750			
0.2472	15819.70	3.8140	3.8141	-0.8205	25.88	0.09	-0.750			
0.2497	15978.19	3.8110	3.8109	-0.8204	25.88	0.09	-0.750			
0.2521	16132.00	3.8080	3.8080	-0.8122	25.89	0.10	-0.750			
0.2545	16286.22	3.8050	3.8050	-0.8085	25.89	0.10	-0.750			
0.2569	16443.53	3.8020	3.8020	-0.8115	25.89	0.10	-0.750			
0.2594	16599.27	3.7990	3.7990	-0.8092	25.89	0.10	-0.750			
0.2618	16754.76	3.7960	3.7960	-0.8117	25.90	0.11	-0.750			
0.2642	16910.75	3.7930	3.7930	-0.8074	25.90	0.11	-0.750			
0.2667	17067.00	3.7900	3.7900	-0.8030	25.91	0.12	-0.750			
0.2691	17220.52	3.7870	3.7870	-0.7975	25.92	0.13	-0.750			
0.2715	17373.09	3.7840	3.7840	-0.7969	25.92	0.13	-0.750			
0.2738	17525.40	3.7810	3.7811	-0.7936	25.92	0.13	-0.750			
0.2762	17676.29	3.7780	3.7779	-0.7951	25.93	0.14	-0.750			
0.2786	17830.04	3.7750	3.7750	-0.7888	25.93	0.14	-0.750			
0.2810	17983.12	3.7720	3.7720	-0.7880	25.94	0.15	-0.750			
0.2833	18133.34	3.7690	3.7693	-0.7858	25.94	0.15	-0.750			
0.2857	18284.17	3.7660	3.7659	-0.7815	25.94	0.15	-0.750			
0.2880	18432.99	3.7630	3.7630	-0.7783	25.95	0.16	-0.750			
0.2903	18581.76	3.7600	3.7600	-0.7733	25.95	0.16	-0.750			
0.2926	18729.57	3.7570	3.7571	-0.7784	25.95	0.16	-0.750			
0.2950	18880.08	3.7540	3.7539	-0.7796	25.96	0.17	-0.750			
0.2973	19028.37	3.7510	3.7510	-0.7799	25.96	0.17	-0.750			
0.2996	19176.57	3.7480	3.7479	-0.7864	25.96	0.17	-0.750			
0.3020	19329.38	3.7450	3.7451	-0.7896	25.96	0.17	-0.750			
0.3044	19481.82	3.7420	3.7420	-0.7935	25.97	0.18	-0.750			
0.3068	19635.08	3.7390	3.7389	-0.8036	25.97	0.18	-0.750			
0.3092	19788.45	3.7360	3.7360	-0.8084	25.97	0.18	-0.750			
0.3116	19943.32	3.7330	3.7329	-0.8189	25.98	0.19	-0.750			
0.3141	20100.93	3.7300	3.7300	-0.8260	25.98	0.19	-0.750			
0.3166	20260.54	3.7270	3.7270	-0.8348	25.98	0.19	-0.750			
0.3191	20423.42	3.7240	3.7240	-0.8509	25.99	0.20	-0.750			
0.3217	20587.39	3.7210	3.7210	-0.8608	25.99	0.20	-0.750			
0.3243	20752.92	3.7180	3.7181	-0.8723	25.99	0.20	-0.750			
0.3269	20921.14	3.7150	3.7150	-0.8865	25.99	0.20	-0.750			
0.3296	21093.06	3.7120	3.7120	-0.9003	25.99	0.20	-0.750			
0.3323	21268.28	3.7090	3.7090	-0.9186	25.99	0.20	-0.750			
0.3351	21445.71	3.7060	3.7059	-0.9322	25.99	0.20	-0.750			
0.3379	21625.04	3.7030	3.7030	-0.9475	25.99	0.20	-0.750			
0.3407	21807.27	3.7000	3.7000	-0.9666	25.99	0.20	-0.750			
0.3437	21994.44	3.6970	3.6970	-0.9863	25.99	0.20	-0.750			
0.3466	22184.41	3.6940	3.6940	-1.0110	25.99	0.20	-0.750			
0.3498	22384.08	3.6910	3.6909	-1.0254	25.99	0.20	-0.750			
0.3529	22583.79	3.6880	3.6880	-1.0425	25.99	0.20	-0.750			
0.3560	22784.73	3.6850	3.6850	-1.0599	25.99	0.20	-0.750			
0.3592	22987.47	3.6820	3.6821	-1.0819	25.99	0.20	-0.750			
0.3624	23196.39	3.6790	3.6789	-1.1037	25.98	0.19	-0.750			
0.3658	23408.13	3.6760	3.6759	-1.1300	25.98	0.19	-0.750			
0.3692	23627.63	3.6730	3.6730	-1.1515	25.97	0.18	-0.750			
0.3727	23855.70	3.6700	3.6699	-1.1879	25.97	0.18	-0.750			
0.3763	24085.87	3.6670	3.6670	-1.2109	25.96	0.17	-0.750			
0.3800	24319.14	3.6640	3.6640	-1.2382	25.96	0.17	-0.750			
0.3837	24558.44	3.6610	3.6610	-1.2619	25.95	0.16	-0.750			
0.3876	24805.50	3.6580	3.6580	-1.2951	25.94	0.15	-0.750			
0.3915	25056.27	3.6550	3.6550	-1.3160	25.94	0.15	-0.750			
0.3955	25313.95	3.6520	3.6522	-1.3438	25.93	0.14	-0.750			
0.3996	25574.29	3.6490	3.6489	-1.3677	25.92	0.13	-0.750			
0.4037	25838.30	3.6460	3.6459	-1.3922	25.92	0.13	-0.750			
0.4079	26104.74	3.6430	3.6433	-1.4222	25.91	0.12	-0.750			
0.4122	26382.68	3.6400	3.6399	-1.4578	25.90	0.11	-0.750			
0.4166	26664.35	3.6370	3.6370	-1.5043	25.90	0.11	-0.750			
0.4213	26960.01	3.6340	3.6341	-1.5321	25.89	0.10	-0.750			
0.4260	27263.00	3.6310	3.6310	-1.5686	25.88	0.09	-0.750			
0.4307	27562.74	3.6280	3.6280	-1.5907	25.87	0.08	-0.750			
0.4355	27870.54	3.6250	3.6247	-1.6041	25.87	0.08	-0.750			
0.4403	28178.50	3.6220	3.6220	-1.6383	25.86	0.07	-0.750			
0.4452	28495.73	3.6190	3.6190	-1.6646	25.85	0.06	-0.750	0.396	0.514	
0.4503	28816.94	3.6160	3.6160	-1.7016	25.84	0.05	-0.750			
0.4554	29146.71	3.6130	3.6131	-1.7389	25.83	0.04	-0.750			
0.4607	29486.77	3.6100	3.6102	-1.7680	25.82	0.03	-0.750			
0.4661	29827.59	3.6070	3.6069	-1.8007	25.81	0.02	-0.750			
0.4715	30178.64	3.6040	3.6040	-1.8415	25.81	0.02	-0.750			
0.4771	30531.78	3.6010	3.6007	-1.8694	25.80	0.01	-0.750			
0.4828	30896.24	3.5980	3.5981	-1.9026	25.79	0.00	-0.750			
0.4885	31264.20	3.5950	3.5951	-1.9455	25.78	-0.01	-0.750			
0.4944	31640.86	3.5920	3.5920	-1.9872	25.77	-0.02	-0.750			
0.5004	32024.33	3.5890	3.5890	-2.0203	25.76	-0.03	-0.750			
0.5066	32419.68	3.5860	3.5860	-2.0653	25.75	-0.04	-0.750			
0.5128	32821.13	3.5830	3.5830	-2.0963	25.75	-0.04	-0.750			
0.5193	33232.80	3.5800	3.5800	-2.1177	25.75	-0.04	-0.750			
0.5257	33642.47	3.5770	3.5770	-2.1495	25.74	-0.05	-0.750			
0.5321	34051.51	3.5740	3.5741	-2.1753	25.73	-0.06	-0.750			
0.5387	34473.77	3.5710	3.5710	-2.1960	25.73	-0.06	-0.750			
0.5453	34899.04	3.5680	3.5681	-2.2179	25.72	-0.07	-0.750			
0.5520	35329.45	3.5650	3.5649	-2.2239	25.72	-0.07	-0.750			
0.5587	35758.78	3.5620	3.5619	-2.2464	25.72	-0.07	-0.750			
0.5655	36191.30	3.5590	3.5591	-2.2527	25.72	-0.07	-0.750			
0.5722	36623.00	3.5560	3.5559	-2.2460	25.72	-0.07	-0.750			
0.5789	37050.43	3.5530	3.5530	-2.2447	25.71	-0.08	-0.750			
0.5857	37487.50	3.5500	3.5501	-2.2311	25.71	-0.08	-0.750			
0.5925	37922.80	3.5470	3.5469	-2.2259	25.71	-0.08	-0.750			
0.5992	38346.36	3.5440	3.5439	-2.1942	25.71	-0.08	-0.750			
0.6057	38762.86	3.5410	3.5410	-2.1620	25.71	-0.08	-0.750			
0.6121	39175.64	3.5380	3.5381	-2.1618	25.71	-0.08	-0.750			
0.6186	39593.21	3.5350	3.5349	-2.1379	25.72	-0.07	-0.750			
0.6250	40000.35	3.5320	3.5319	-2.1021	25.72	-0.07	-0.750			
0.6314	40409.58	3.5290	3.5291	-2.0693	25.73	-0.06	-0.750			
0.6375	40802.72	3.5260	3.5262	-2.0336	25.74	-0.05	-0.750			
0.6436	41190.57	3.5230	3.5227	-1.9902	25.75	-0.04	-0.750			
0.6495	41564.84	3.5200	3.5198	-1.9247	25.75	-0.04	-0.750			
0.6551	41925.60	3.5170	3.5172	-1.8681	25.76	-0.03	-0.750			
0.6606	42281.11	3.5140	3.5140	-1.8177	25.77	-0.02	-0.750			
0.6661	42630.77	3.5110	3.5110	-1.7675	25.78	-0.01	-0.750			
0.6713	42960.78	3.5080	3.5080	-1.6934	25.79	0.00	-0.750			
0.6763	43281.41	3.5050	3.5049	-1.6492	25.80	0.01	-0.750			
0.6811	43590.82	3.5020	3.5021	-1.5985	25.81	0.02	-0.750			
0.6859	43898.11	3.4990	3.4989	-1.5559	25.83	0.04	-0.750			
0.6905	44190.35	3.4960	3.4959	-1.5034	25.84	0.05	-0.750			
0.6949	44475.47	3.4930	3.4930	-1.4549	25.86	0.07	-0.750			
0.6992	44749.15	3.4900	3.4899	-1.4057	25.87	0.08	-0.750			
0.7033	45014.29	3.4870	3.4870	-1.3587	25.89	0.10	-0.750			
0.7073	45265.94	3.4840	3.4841	-1.3078	25.91	0.12	-0.750			
0.7111	45511.65	3.4810	3.4809	-1.2654	25.92	0.13	-0.750			
0.7149	45753.67	3.4780	3.4780	-1.2356	25.93	0.14	-0.750			
0.7185	45986.51	3.4750	3.4750	-1.1954	25.94	0.15	-0.750			
0.7221	46212.10	3.4720	3.4720	-1.1621	25.96	0.17	-0.750			
0.7255	46434.41	3.4690	3.4690	-1.1265	25.97	0.18	-0.750			
0.7289	46648.24	3.4660	3.4659	-1.0869	25.99	0.20	-0.750			
0.7321	46852.82	3.4630	3.4630	-1.0466	26.00	0.21	-0.750			
0.7352	47049.85	3.4600	3.4600	-1.0072	26.02	0.23	-0.750			
0.7381	47238.31	3.4570	3.4569	-0.9760	26.03	0.24	-0.750			
0.7410	47421.89	3.4540	3.4539	-0.9480	26.03	0.24	-0.750			
0.7437	47598.40	3.4510	3.4509	-0.9181	26.04	0.25	-0.750			
0.7465	47773.14	3.4480	3.4481	-0.9058	26.05	0.26	-0.750			
0.7491	47944.13	3.4450	3.4449	-0.8932	26.06	0.27	-0.750			
0.7518	48112.41	3.4420	3.4420	-0.8901	26.07	0.28	-0.750			
0.7544	48278.79	3.4390	3.4389	-0.8818	26.08	0.29	-0.750			
0.7570	48451.01	3.4360	3.4360	-0.8960	26.09	0.30	-0.750			
0.7597	48622.29	3.4330	3.4331	-0.9016	26.10	0.31	-0.750			
0.7624	48796.51	3.4300	3.4300	-0.9196	26.11	0.32	-0.750			
0.7652	48972.61	3.4270	3.4270	-0.9302	26.12	0.33	-0.750			
0.7680	49153.52	3.4240	3.4239	-0.9471	26.14	0.35	-0.750			
0.7709	49336.54	3.4210	3.4212	-0.9664	26.15	0.36	-0.750			
0.7738	49525.25	3.4180	3.4179	-0.9863	26.16	0.37	-0.750			
0.7768	49717.23	3.4150	3.4150	-0.9938	26.16	0.37	-0.750			
0.7799	49912.78	3.4120	3.4119	-0.9900	26.17	0.38	-0.750			
0.7829	50106.13	3.4090	3.4091	-0.9870	26.18	0.39	-0.750			
0.7859	50295.05	3.4060	3.4060	-0.9659	26.19	0.40	-0.750			
0.7888	50480.53	3.4030	3.4030	-0.9411	26.19	0.40	-0.750			
0.7915	50657.09	3.4000	3.3999	-0.9093	26.20	0.41	-0.750			
0.7942	50828.57	3.3970	3.3970	-0.8775	26.21	0.42	-0.750			
0.7968	50995.39	3.3940	3.3941	-0.8517	26.21	0.42	-0.750			
0.7993	51154.61	3.3910	3.3909	-0.8252	26.22	0.43	-0.750			
0.8017	51310.58	3.3880	3.3880	-0.7930	26.23	0.44	-0.750			
0.8041	51459.46	3.3850	3.3849	-0.7634	26.24	0.45	-0.750			
0.8063	51604.30	3.3820	3.3820	-0.7353	26.25	0.46	-0.750			
0.8085	51743.79	3.3790	3.3791	-0.7060	26.26	0.47	-0.750			
0.8106	51876.30	3.3760	3.3759	-0.6776	26.27	0.48	-0.750			
0.8125	52001.90	3.3730	3.3731	-0.6510	26.27	0.48	-0.750			
0.8144	52124.17	3.3700	3.3700	-0.6268	26.27	0.48	-0.750			
0.8163	52243.23	3.3670	3.3669	-0.6065	26.28	0.49	-0.750			
0.8181	52356.12	3.3640	3.3641	-0.5836	26.28	0.49	-0.750			
0.8198	52466.76	3.3610	3.3610	-0.5623	26.29	0.50	-0.750			
0.8214	52572.36	3.3580	3.3580	-0.5396	26.29	0.50	-0.750			
0.8230	52672.58	3.3550	3.3550	-0.5212	26.30	0.51	-0.750			
0.8245	52770.95	3.3520	3.3520	-0.5013	26.31	0.52	-0.750			
0.8260	52865.75	3.3490	3.3490	-0.4862	26.32	0.53	-0.750			
0.8275	52957.41	3.3460	3.3460	-0.4690	26.32	0.53	-0.750			
0.8288	53045.40	3.3430	3.3431	-0.4523	26.33	0.54	-0.750			
0.8302	53131.39	3.3400	3.3399	-0.4383	26.34	0.55	-0.750			
0.8315	53213.46	3.3370	3.3371	-0.4218	26.34	0.55	-0.750			
0.8327	53292.18	3.3340	3.3340	-0.4059	26.35	0.56	-0.750			
0.8339	53369.79	3.3310	3.3310	-0.3945	26.35	0.56	-0.750			
0.8350	53443.17	3.3280	3.3280	-0.3803	26.36	0.57	-0.750			
0.8362	53514.71	3.3250	3.3250	-0.3691	26.37	0.58	-0.750			
0.8373	53584.29	3.3220	3.3220	-0.3572	26.37	0.58	-0.750			
0.8383	53651.75	3.3190	3.3191	-0.3467	26.38	0.59	-0.750			
0.8393	53717.42	3.3160	3.3160	-0.3364	26.38	0.59	-0.750			
0.8403	53781.22	3.3130	3.3129	-0.3252	26.39	0.60	-0.750			
0.8413	53842.18	3.3100	3.3100	-0.3160	26.39	0.60	-0.750			
0.8422	53901.80	3.3070	3.3071	-0.3056	26.40	0.61	-0.750			
0.8431	53959.27	3.3040	3.3039	-0.2984	26.41	0.62	-0.750			
0.8440	54016.03	3.3010	3.3010	-0.2909	26.41	0.62	-0.750			
0.8449	54070.77	3.2980	3.2980	-0.2838	26.41	0.62	-0.750			
0.8457	54124.68	3.2950	3.2951	-0.2775	26.42	0.63	-0.750			
0.8465	54177.73	3.2920	3.2919	-0.2711	26.42	0.63	-0.750			
0.8473	54228.85	3.2890	3.2891	-0.2627	26.43	0.64	-0.750			
0.8481	54278.67	3.2860	3.2860	-0.2576	26.44	0.65	-0.750			
0.8489	54326.93	3.2830	3.2831	-0.2503	26.44	0.65	-0.750			
0.8496	54374.36	3.2800	3.2799	-0.2460	26.44	0.65	-0.750			
0.8503	54420.71	3.2770	3.2769	-0.2410	26.45	0.66	-0.750			
0.8510	54466.49	3.2740	3.2741	-0.2371	26.45	0.66	-0.750			
0.8517	54511.92	3.2710	3.2709	-0.2330	26.46	0.67	-0.750			
0.8524	54556.28	3.2680	3.2681	-0.2288	26.46	0.67	-0.750			
0.8531	54600.22	3.2650	3.2650	-0.2246	26.47	0.68	-0.750			
0.8538	54642.60	3.2620	3.2620	-0.2193	26.47	0.68	-0.750			
0.8544	54684.45	3.2590	3.2590	-0.2159	26.48	0.69	-0.750			
0.8551	54724.84	3.2560	3.2561	-0.2116	26.48	0.69	-0.750			
0.8557	54765.13	3.2530	3.2529	-0.2084	26.48	0.69	-0.750			
0.8563	54804.85	3.2500	3.2500	-0.2054	26.49	0.70	-0.750			
0.8569	54843.96	3.2470	3.2469	-0.2024	26.49	0.70	-0.750			
0.8575	54882.52	3.2440	3.2440	-0.1995	26.50	0.71	-0.750			
0.8581	54920.74	3.2410	3.2410	-0.1970	26.50	0.71	-0.750			
0.8587	54958.25	3.2380	3.2380	-0.1938	26.50	0.71	-0.750			
0.8593	54994.89	3.2350	3.2350	-0.1913	26.51	0.72	-0.750			
0.8599	55031.31	3.2320	3.2320	-0.1886	26.52	0.73	-0.750			
0.8604	55067.49	3.2290	3.2290	-0.1860	26.52	0.73	-0.750			
0.8610	55102.93	3.2260	3.2259	-0.1832	26.53	0.74	-0.750			
0.8615	55137.97	3.2230	3.2230	-0.1802	26.53	0.74	-0.750			
0.8621	55172.07	3.2200	3.2201	-0.1781	26.54	0.75	-0.750			
0.8626	55205.77	3.2170	3.2170	-0.1759	26.54	0.75	-0.750			
0.8631	55239.36	3.2140	3.2140	-0.1741	26.55	0.76	-0.750			
0.8636	55272.44	3.2110	3.2109	-0.1712	26.55	0.76	-0.750			
0.8641	55305.02	3.2080	3.2080	-0.1701	26.56	0.77	-0.750			
0.8647	55337.75	3.2050	3.2051	-0.1689	26.56	0.77	-0.750			
0.8652	55370.00	3.2020	3.2021	-0.1671	26.56	0.77	-0.750			
0.8657	55402.11	3.1990	3.1989	-0.1652	26.57	0.78	-0.750			
0.8661	55433.33	3.1960	3.1961	-0.1630	26.57	0.78	-0.750			
0.8666	55464.47	3.1930	3.1931	-0.1614	26.58	0.79	-0.750			
0.8671	55495.43	3.1900	3.1900	-0.1592	26.58	0.79	-0.750			
0.8676	55525.91	3.1870	3.1870	-0.1580	26.59	0.80	-0.750			
0.8681	55555.65	3.1840	3.1840	-0.1555	26.59	0.80	-0.750			
0.8685	55585.38	3.1810	3.1810	-0.1544	26.60	0.81	-0.750			
0.8690	55615.06	3.1780	3.1780	-0.1527	26.60	0.81	-0.750			
0.8694	55644.17	3.1750	3.1750	-0.1515	26.61	0.82	-0.750			
0.8699	55673.01	3.1720	3.1721	-0.1499	26.61	0.82	-0.750			
0.8703	55701.71	3.1690	3.1691	-0.1486	26.62	0.83	-0.750			
0.8708	55730.19	3.1660	3.1660	-0.1479	26.62	0.83	-0.750			
0.8712	55758.25	3.1630	3.1630	-0.1463	26.63	0.84	-0.750			
0.8717	55786.27	3.1600	3.1601	-0.1456	26.63	0.84	-0.750			
0.8721	55814.25	3.1570	3.1570	-0.1440	26.64	0.85	-0.750			
0.8725	55841.98	3.1540	3.1541	-0.1430	26.64	0.85	-0.750			
0.8730	55869.10	3.1510	3.1511	-0.1415	26.65	0.86	-0.750			
0.8734	55896.15	3.1480	3.1479	-0.1402	26.66	0.87	-0.750			
0.8738	55922.92	3.1450	3.1449	-0.1393	26.66	0.87	-0.750			
0.8742	55949.41	3.1420	3.1420	-0.1378	26.67	0.88	-0.750			
0.8746	55975.76	3.1390	3.1390	-0.1369	26.67	0.88	-0.750			
0.8750	56002.04	3.1360	3.1360	-0.1357	26.68	0.89	-0.750			
0.8754	56028.14	3.1330	3.1330	-0.1349	26.68	0.89	-0.750			
0.8758	56053.91	3.1300	3.1301	-0.1336	26.69	0.90	-0.750			
0.8762	56079.45	3.1270	3.1269	-0.1321	26.69	0.90	-0.750			
0.8766	56104.50	3.1240	3.1240	-0.1311	26.70	0.91	-0.750			
0.8770	56129.49	3.1210	3.1211	-0.1301	26.70	0.91	-0.750			
0.8774	56154.45	3.1180	3.1179	-0.1291	26.71	0.92	-0.750			
0.8778	56179.11	3.1150	3.1149	-0.1283	26.71	0.92	-0.750			
0.8782	56203.66	3.1120	3.1121	-0.1274	26.72	0.93	-0.750			
0.8786	56228.04	3.1090	3.1090	-0.1262	26.72	0.93	-0.750			
0.8789	56252.19	3.1060	3.1060	-0.1253	26.73	0.94	-0.750			
0.8793	56276.30	3.1030	3.1031	-0.1244	26.73	0.94	-0.750			
0.8797	56299.78	3.1000	3.1000	-0.1234	26.74	0.95	-0.750			
0.8801	56323.43	3.0970	3.0970	-0.1229	26.74	0.95	-0.750			
0.8804	56347.05	3.0940	3.0940	-0.1222	26.75	0.96	-0.750			
0.8808	56370.34	3.0910	3.0909	-0.1213	26.75	0.96	-0.750			
0.8812	56393.67	3.0880	3.0880	-0.1206	26.75	0.96	-0.750			
0.8815	56416.91	3.0850	3.0850	-0.1201	26.76	0.97	-0.750			
0.8819	56439.83	3.0820	3.0820	-0.1193	26.76	0.97	-0.750			
0.8822	56462.69	3.0790	3.0790	-0.1185	26.77	0.98	-0.750			
0.8826	56485.36	3.0760	3.0760	-0.1176	26.77	0.98	-0.750			
0.8829	56507.74	3.0730	3.0730	-0.1166	26.78	0.99	-0.750			
0.8833	56530.07	3.0700	3.0701	-0.1157	26.78	0.99	-0.750			
0.8836	56552.29	3.0670	3.0670	-0.1150	26.79	1.00	-0.750			
0.8840	56574.26	3.0640	3.0640	-0.1142	26.79	1.00	-0.750			
0.8843	56596.09	3.0610	3.0610	-0.1133	26.80	1.01	-0.750			
0.8846	56617.52	3.0580	3.0581	-0.1128	26.80	1.01	-0.750			
0.8850	56639.15	3.0550	3.0550	-0.1126	26.81	1.02	-0.750			
0.8853	56660.89	3.0520	3.0520	-0.1117	26.82	1.03	-0.750			
0.8857	56682.27	3.0490	3.0490	-0.1110	26.82	1.03	-0.750			
0.8860	56703.57	3.0460	3.0461	-0.1106	26.83	1.04	-0.750			
0.8863	56724.74	3.0430	3.0430	-0.1099	26.83	1.04	-0.750			
0.8867	56745.87	3.0400	3.0401	-0.1092	26.84	1.05	-0.750			
0.8870	56766.73	3.0370	3.0369	-0.1082	26.84	1.05	-0.750			
0.8873	56787.17	3.0340	3.0340	-0.1073	26.85	1.06	-0.750			
0.8876	56807.75	3.0310	3.0311	-0.1070	26.85	1.06	-0.750			
0.8879	56828.30	3.0280	3.0280	-0.1068	26.86	1.07	-0.750			
0.8883	56849.04	3.0250	3.0249	-0.1059	26.87	1.08	-0.750			
0.8886	56869.33	3.0220	3.0221	-0.1050	26.87	1.08	-0.750			
0.8889	56889.41	3.0190	3.0190	-0.1040	26.88	1.09	-0.750			
0.8892	56909.48	3.0160	3.0160	-0.1034	26.88	1.09	-0.750			
0.8895	56929.19	3.0130	3.0132	-0.1019	26.89	1.10	-0.750			
0.8898	56948.57	3.0100	3.0099	-0.1005	26.89	1.10	-0.750			
0.8901	56967.74	3.0070	3.0069	-0.0991	26.90	1.11	-0.751			
0.8904	56986.60	3.0040	3.0040	-0.1005	26.90	1.11	-0.751			
