Ah_balance (normalized)	Ah_balance (mAh)	Voltage - fit (V)	Voltage -  interpolate (V)	dQ/dV (1/V)	Temperature (°C)	Temperature - diff (°C)	Current (C)	R_DC 0ms (mOhm)	R_DC 50ms (mOhm)	R_DC 50 ms PEC (mOhm)
0.0003	22.00	4.1600	4.1599	-0.1271	25.92	0.01	-0.750			
0.0008	51.06	4.1570	4.1569	-0.1677	25.91	0.00	-0.750			
0.0014	86.87	4.1540	4.1539	-0.2034	25.91	0.00	-0.750			
0.0020	128.85	4.1510	4.1510	-0.2405	25.91	0.00	-0.750			
0.0028	178.90	4.1480	4.1480	-0.2758	25.91	-0.00	-0.750			
0.0037	235.44	4.1450	4.1449	-0.3127	25.91	-0.00	-0.750			
0.0047	299.47	4.1420	4.1420	-0.3456	25.90	-0.01	-0.750			
0.0058	369.25	4.1390	4.1391	-0.3786	25.90	-0.01	-0.750			
0.0070	446.39	4.1360	4.1359	-0.4111	25.89	-0.02	-0.750			
0.0083	528.52	4.1330	4.1330	-0.4390	25.89	-0.02	-0.750			
0.0096	616.17	4.1300	4.1299	-0.4644	25.89	-0.02	-0.750			
0.0111	708.59	4.1270	4.1270	-0.4885	25.88	-0.03	-0.750			
0.0126	805.53	4.1240	4.1239	-0.5065	25.88	-0.03	-0.750			
0.0141	905.07	4.1210	4.1210	-0.5249	25.87	-0.04	-0.750			
0.0157	1007.53	4.1180	4.1179	-0.5398	25.87	-0.04	-0.750			
0.0174	1112.28	4.1150	4.1149	-0.5553	25.86	-0.05	-0.750			
0.0191	1220.42	4.1120	4.1120	-0.5689	25.86	-0.05	-0.750			
0.0208	1330.50	4.1090	4.1091	-0.5855	25.86	-0.05	-0.750			
0.0226	1446.01	4.1060	4.1060	-0.5981	25.85	-0.06	-0.750			
0.0244	1563.23	4.1030	4.1030	-0.6078	25.85	-0.06	-0.750			
0.0263	1681.03	4.1000	4.1000	-0.6159	25.84	-0.07	-0.750			
0.0281	1799.97	4.0970	4.0969	-0.6247	25.84	-0.07	-0.750			
0.0300	1920.94	4.0940	4.0940	-0.6299	25.84	-0.07	-0.750			
0.0319	2042.65	4.0910	4.0911	-0.6359	25.83	-0.08	-0.750			
0.0338	2164.55	4.0880	4.0880	-0.6401	25.83	-0.08	-0.750			
0.0358	2288.94	4.0850	4.0850	-0.6478	25.83	-0.08	-0.750			
0.0377	2412.76	4.0820	4.0820	-0.6567	25.82	-0.09	-0.750			
0.0397	2538.88	4.0790	4.0790	-0.6637	25.82	-0.09	-0.750			
0.0417	2667.57	4.0760	4.0760	-0.6673	25.82	-0.09	-0.750			
0.0437	2797.44	4.0730	4.0730	-0.6727	25.82	-0.09	-0.750			
0.0457	2927.38	4.0700	4.0701	-0.6780	25.82	-0.09	-0.750			
0.0478	3058.10	4.0670	4.0669	-0.6807	25.81	-0.10	-0.750			
0.0498	3189.00	4.0640	4.0640	-0.6813	25.81	-0.10	-0.750			
0.0519	3319.74	4.0610	4.0609	-0.6814	25.81	-0.10	-0.750			
0.0539	3450.52	4.0580	4.0581	-0.6848	25.81	-0.10	-0.750			
0.0560	3582.17	4.0550	4.0550	-0.6900	25.80	-0.11	-0.750			
0.0580	3713.89	4.0520	4.0520	-0.6934	25.80	-0.11	-0.750			
0.0601	3846.83	4.0490	4.0489	-0.6983	25.80	-0.11	-0.750			
0.0622	3982.60	4.0460	4.0460	-0.7007	25.79	-0.12	-0.750			
0.0643	4118.11	4.0430	4.0427	-0.7032	25.79	-0.12	-0.750			
0.0665	4254.58	4.0400	4.0400	-0.7066	25.79	-0.12	-0.750			
0.0686	4389.89	4.0370	4.0370	-0.7065	25.79	-0.12	-0.750			
0.0707	4524.49	4.0340	4.0339	-0.7078	25.79	-0.12	-0.750			
0.0728	4661.66	4.0310	4.0311	-0.7080	25.80	-0.11	-0.750			
0.0750	4797.89	4.0280	4.0279	-0.7079	25.80	-0.11	-0.750			
0.0771	4933.81	4.0250	4.0252	-0.7107	25.80	-0.11	-0.750			
0.0792	5069.87	4.0220	4.0220	-0.7109	25.80	-0.11	-0.750			
0.0813	5203.74	4.0190	4.0189	-0.7222	25.80	-0.11	-0.750			
0.0835	5344.51	4.0160	4.0160	-0.7225	25.79	-0.12	-0.750			
0.0857	5486.29	4.0130	4.0129	-0.7289	25.79	-0.12	-0.750			
0.0879	5626.92	4.0100	4.0099	-0.7278	25.79	-0.12	-0.750			
0.0901	5767.63	4.0070	4.0073	-0.7274	25.79	-0.12	-0.750			
0.0923	5905.70	4.0040	4.0039	-0.7254	25.79	-0.12	-0.750			
0.0944	6042.19	4.0010	4.0010	-0.7268	25.80	-0.11	-0.750			
0.0966	6180.28	3.9980	3.9980	-0.7224	25.80	-0.11	-0.750			
0.0988	6322.75	3.9950	3.9950	-0.7362	25.80	-0.11	-0.750			
0.1010	6465.30	3.9920	3.9920	-0.7374	25.81	-0.10	-0.750			
0.1032	6607.12	3.9890	3.9889	-0.7386	25.81	-0.10	-0.750			
0.1055	6748.99	3.9860	3.9860	-0.7382	25.81	-0.10	-0.750			
0.1076	6889.52	3.9830	3.9829	-0.7402	25.81	-0.10	-0.750			
0.1099	7032.30	3.9800	3.9800	-0.7413	25.81	-0.10	-0.750			
0.1121	7176.46	3.9770	3.9769	-0.7450	25.81	-0.10	-0.750			
0.1144	7318.77	3.9740	3.9741	-0.7445	25.81	-0.10	-0.750			
0.1166	7461.83	3.9710	3.9709	-0.7499	25.81	-0.10	-0.750			
0.1188	7604.99	3.9680	3.9680	-0.7524	25.81	-0.10	-0.750			
0.1211	7752.52	3.9650	3.9649	-0.7562	25.81	-0.10	-0.750			
0.1234	7896.98	3.9620	3.9620	-0.7557	25.81	-0.10	-0.750			
0.1257	8044.05	3.9590	3.9590	-0.7622	25.81	-0.10	-0.750			
0.1280	8190.39	3.9560	3.9560	-0.7602	25.81	-0.10	-0.750			
0.1302	8335.75	3.9530	3.9528	-0.7604	25.81	-0.10	-0.750			
0.1325	8480.73	3.9500	3.9500	-0.7601	25.81	-0.10	-0.750			
0.1348	8624.20	3.9470	3.9471	-0.7605	25.82	-0.09	-0.750			
0.1371	8774.69	3.9440	3.9439	-0.7715	25.82	-0.09	-0.750			
0.1394	8921.74	3.9410	3.9410	-0.7717	25.82	-0.09	-0.750			
0.1417	9069.92	3.9380	3.9380	-0.7745	25.82	-0.09	-0.750			
0.1441	9219.24	3.9350	3.9350	-0.7819	25.82	-0.09	-0.750			
0.1464	9371.23	3.9320	3.9320	-0.7772	25.82	-0.09	-0.750			
0.1488	9520.28	3.9290	3.9289	-0.7750	25.82	-0.09	-0.750			
0.1511	9669.14	3.9260	3.9261	-0.7755	25.82	-0.09	-0.750			
0.1534	9817.14	3.9230	3.9230	-0.7777	25.82	-0.09	-0.750			
0.1557	9964.35	3.9200	3.9199	-0.7831	25.83	-0.08	-0.750			
0.1581	10115.96	3.9170	3.9170	-0.7856	25.83	-0.08	-0.750			
0.1604	10266.90	3.9140	3.9140	-0.7876	25.84	-0.07	-0.750			
0.1628	10420.64	3.9110	3.9110	-0.7927	25.85	-0.06	-0.750			
0.1652	10573.12	3.9080	3.9081	-0.7930	25.85	-0.06	-0.750			
0.1676	10725.73	3.9050	3.9049	-0.7893	25.85	-0.06	-0.750			
0.1699	10875.58	3.9020	3.9020	-0.7930	25.85	-0.06	-0.750			
0.1723	11028.79	3.8990	3.8990	-0.7946	25.85	-0.06	-0.750			
0.1747	11182.58	3.8960	3.8959	-0.8012	25.85	-0.06	-0.750			
0.1771	11336.20	3.8930	3.8931	-0.7997	25.85	-0.06	-0.750			
0.1795	11489.46	3.8900	3.8900	-0.8027	25.85	-0.06	-0.750			
0.1819	11644.60	3.8870	3.8869	-0.8023	25.86	-0.05	-0.750			
0.1844	11799.35	3.8840	3.8840	-0.8018	25.86	-0.05	-0.750			
0.1868	11952.74	3.8810	3.8810	-0.7995	25.87	-0.04	-0.750			
0.1892	12106.36	3.8780	3.8781	-0.7969	25.87	-0.04	-0.750			
0.1915	12258.58	3.8750	3.8749	-0.7948	25.87	-0.04	-0.750			
0.1939	12410.88	3.8720	3.8720	-0.7996	25.88	-0.03	-0.750			
0.1963	12564.29	3.8690	3.8689	-0.7988	25.88	-0.03	-0.750			
0.1987	12717.83	3.8660	3.8660	-0.8003	25.88	-0.03	-0.750			
0.2011	12872.37	3.8630	3.8630	-0.8037	25.89	-0.02	-0.750			
0.2036	13027.51	3.8600	3.8599	-0.8015	25.89	-0.02	-0.750			
0.2059	13180.31	3.8570	3.8570	-0.8072	25.89	-0.02	-0.750			
0.2084	13335.20	3.8540	3.8540	-0.8066	25.89	-0.02	-0.750			
0.2108	13488.68	3.8510	3.8510	-0.8053	25.90	-0.01	-0.750			
0.2132	13647.82	3.8480	3.8479	-0.8069	25.90	-0.01	-0.750			
0.2157	13801.69	3.8450	3.8451	-0.8036	25.90	-0.01	-0.750			
0.2180	13953.76	3.8420	3.8421	-0.8092	25.90	-0.01	-0.750			
0.2205	14110.58	3.8390	3.8389	-0.8099	25.90	-0.01	-0.750			
0.2229	14264.58	3.8360	3.8359	-0.8019	25.91	-0.00	-0.750			
0.2253	14420.59	3.8330	3.8330	-0.8058	25.91	-0.00	-0.750			
0.2277	14575.88	3.8300	3.8301	-0.8083	25.91	0.00	-0.750			
0.2302	14731.72	3.8270	3.8269	-0.8072	25.91	0.00	-0.750			
0.2326	14884.72	3.8240	3.8239	-0.8057	25.92	0.01	-0.750			
0.2350	15040.54	3.8210	3.8210	-0.8001	25.92	0.01	-0.750			
0.2374	15196.36	3.8180	3.8179	-0.8026	25.93	0.02	-0.750			
0.2398	15350.08	3.8150	3.8152	-0.7957	25.93	0.02	-0.750			
0.2422	15501.78	3.8120	3.8120	-0.7883	25.93	0.02	-0.750			
0.2445	15651.17	3.8090	3.8089	-0.7874	25.93	0.02	-0.750			
0.2469	15800.90	3.8060	3.8060	-0.7833	25.94	0.03	-0.750			
0.2493	15952.49	3.8030	3.8029	-0.7832	25.94	0.03	-0.750			
0.2516	16102.82	3.8000	3.8001	-0.7793	25.94	0.03	-0.750			
0.2539	16251.96	3.7970	3.7970	-0.7762	25.94	0.03	-0.750			
0.2563	16400.53	3.7940	3.7940	-0.7763	25.95	0.04	-0.750			
0.2586	16548.84	3.7910	3.7910	-0.7679	25.96	0.05	-0.750			
0.2609	16695.04	3.7880	3.7880	-0.7644	25.96	0.05	-0.750			
0.2632	16842.86	3.7850	3.7851	-0.7660	25.97	0.06	-0.750			
0.2655	16989.91	3.7820	3.7820	-0.7636	25.97	0.06	-0.750			
0.2677	17134.60	3.7790	3.7790	-0.7640	25.97	0.06	-0.750			
0.2700	17281.74	3.7760	3.7760	-0.7618	25.97	0.06	-0.750			
0.2723	17428.15	3.7730	3.7730	-0.7586	25.97	0.06	-0.750			
0.2746	17575.50	3.7700	3.7699	-0.7560	25.97	0.06	-0.750			
0.2769	17718.74	3.7670	3.7671	-0.7525	25.97	0.06	-0.750			
0.2791	17862.21	3.7640	3.7640	-0.7519	25.97	0.06	-0.750			
0.2813	18005.49	3.7610	3.7609	-0.7516	25.98	0.07	-0.750			
0.2836	18150.97	3.7580	3.7580	-0.7540	25.98	0.07	-0.750			
0.2859	18295.45	3.7550	3.7550	-0.7552	25.98	0.07	-0.750			
0.2882	18443.01	3.7520	3.7520	-0.7621	25.99	0.08	-0.750			
0.2905	18589.67	3.7490	3.7491	-0.7614	25.99	0.08	-0.750			
0.2927	18733.77	3.7460	3.7459	-0.7631	25.99	0.08	-0.750			
0.2950	18880.01	3.7430	3.7430	-0.7707	25.99	0.08	-0.750			
0.2973	19025.86	3.7400	3.7400	-0.7749	25.99	0.08	-0.750			
0.2996	19177.41	3.7370	3.7370	-0.7889	25.99	0.08	-0.750			
0.3020	19329.75	3.7340	3.7341	-0.7967	25.99	0.08	-0.750			
0.3044	19483.72	3.7310	3.7310	-0.8053	25.99	0.08	-0.750			
0.3069	19640.57	3.7280	3.7279	-0.8198	25.99	0.08	-0.750			
0.3093	19798.40	3.7250	3.7250	-0.8281	26.00	0.09	-0.750			
0.3118	19957.73	3.7220	3.7219	-0.8386	26.00	0.09	-0.750			
0.3144	20120.18	3.7190	3.7192	-0.8526	26.00	0.09	-0.750			
0.3169	20284.54	3.7160	3.7159	-0.8680	26.00	0.09	-0.750			
0.3196	20452.35	3.7130	3.7129	-0.8802	26.00	0.09	-0.750			
0.3222	20622.29	3.7100	3.7100	-0.8958	25.99	0.08	-0.750			
0.3249	20794.31	3.7070	3.7070	-0.9099	25.99	0.08	-0.750			
0.3277	20972.58	3.7040	3.7040	-0.9299	25.99	0.08	-0.750			
0.3305	21152.69	3.7010	3.7010	-0.9498	25.99	0.08	-0.750			
0.3334	21336.11	3.6980	3.6979	-0.9679	25.99	0.08	-0.750			
0.3363	21524.17	3.6950	3.6950	-0.9847	26.00	0.09	-0.750			
0.3393	21716.11	3.6920	3.6921	-1.0033	26.00	0.09	-0.750			
0.3423	21909.25	3.6890	3.6890	-1.0238	26.00	0.09	-0.750			
0.3454	22107.85	3.6860	3.6860	-1.0429	26.00	0.09	-0.750			
0.3486	22309.60	3.6830	3.6830	-1.0606	25.99	0.08	-0.750			
0.3518	22513.62	3.6800	3.6800	-1.0844	25.99	0.08	-0.750			
0.3551	22726.67	3.6770	3.6770	-1.1172	25.99	0.08	-0.750			
0.3585	22945.54	3.6740	3.6739	-1.1388	25.98	0.07	-0.750			
0.3620	23167.48	3.6710	3.6709	-1.1573	25.97	0.06	-0.750			
0.3655	23390.29	3.6680	3.6682	-1.1795	25.97	0.06	-0.750			
0.3691	23620.81	3.6650	3.6650	-1.2003	25.97	0.06	-0.750			
0.3727	23851.79	3.6620	3.6619	-1.2212	25.96	0.05	-0.750			
0.3763	24083.47	3.6590	3.6589	-1.2354	25.96	0.05	-0.750			
0.3801	24327.16	3.6560	3.6560	-1.2660	25.96	0.05	-0.750			
0.3839	24572.22	3.6530	3.6530	-1.2921	25.95	0.04	-0.750			
0.3878	24821.54	3.6500	3.6500	-1.3196	25.95	0.04	-0.750			
0.3918	25076.26	3.6470	3.6469	-1.3385	25.95	0.04	-0.750			
0.3959	25339.58	3.6440	3.6440	-1.3651	25.94	0.03	-0.750			
0.4000	25602.75	3.6410	3.6409	-1.3934	25.93	0.02	-0.750			
0.4043	25873.26	3.6380	3.6380	-1.4194	25.93	0.02	-0.750			
0.4086	26149.02	3.6350	3.6349	-1.4529	25.92	0.01	-0.750			
0.4129	26428.76	3.6320	3.6319	-1.4865	25.91	0.00	-0.750			
0.4174	26714.61	3.6290	3.6289	-1.5213	25.91	-0.00	-0.750			
0.4221	27016.85	3.6260	3.6261	-1.5493	25.90	-0.01	-0.750			
0.4268	27317.74	3.6230	3.6231	-1.5827	25.89	-0.02	-0.750			
0.4316	27623.83	3.6200	3.6199	-1.5965	25.88	-0.03	-0.750			
0.4364	27931.16	3.6170	3.6173	-1.6337	25.88	-0.03	-0.750	0.379	0.529	
0.4414	28247.30	3.6140	3.6139	-1.6537	25.87	-0.04	-0.750			
0.4464	28569.30	3.6110	3.6111	-1.6961	25.87	-0.04	-0.750			
0.4515	28897.57	3.6080	3.6082	-1.7204	25.87	-0.04	-0.750			
0.4568	29232.37	3.6050	3.6049	-1.7532	25.87	-0.04	-0.750			
0.4620	29570.89	3.6020	3.6021	-1.8002	25.86	-0.05	-0.750			
0.4675	29922.59	3.5990	3.5988	-1.8224	25.86	-0.05	-0.750			
0.4730	30271.87	3.5960	3.5961	-1.8674	25.85	-0.06	-0.750			
0.4787	30635.70	3.5930	3.5930	-1.9087	25.85	-0.06	-0.750			
0.4845	31005.89	3.5900	3.5900	-1.9425	25.84	-0.07	-0.750			
0.4903	31381.09	3.5870	3.5870	-1.9778	25.84	-0.07	-0.750			
0.4963	31766.00	3.5840	3.5840	-1.9939	25.83	-0.08	-0.750			
0.5023	32149.80	3.5810	3.5812	-2.0412	25.82	-0.09	-0.750			
0.5087	32553.98	3.5780	3.5779	-2.0748	25.82	-0.09	-0.750			
0.5149	32950.41	3.5750	3.5748	-2.0961	25.82	-0.09	-0.750			
0.5212	33357.47	3.5720	3.5722	-2.1260	25.82	-0.09	-0.750			
0.5277	33772.01	3.5690	3.5690	-2.1610	25.82	-0.09	-0.750			
0.5342	34186.99	3.5660	3.5658	-2.1723	25.82	-0.09	-0.750			
0.5408	34609.44	3.5630	3.5631	-2.1735	25.82	-0.09	-0.750			
0.5473	35024.07	3.5600	3.5601	-2.1861	25.82	-0.09	-0.750			
0.5538	35445.11	3.5570	3.5569	-2.1983	25.82	-0.09	-0.750			
0.5605	35869.61	3.5540	3.5540	-2.1921	25.82	-0.09	-0.750			
0.5671	36294.23	3.5510	3.5509	-2.1985	25.82	-0.09	-0.750			
0.5737	36715.44	3.5480	3.5480	-2.1982	25.82	-0.09	-0.750			
0.5804	37146.04	3.5450	3.5449	-2.1727	25.82	-0.09	-0.750			
0.5870	37565.94	3.5420	3.5421	-2.1486	25.83	-0.08	-0.750			
0.5934	37975.03	3.5390	3.5391	-2.1155	25.84	-0.07	-0.750			
0.5997	38378.77	3.5360	3.5359	-2.0828	25.85	-0.06	-0.750			
0.6059	38778.85	3.5330	3.5330	-2.0481	25.85	-0.06	-0.750			
0.6120	39168.29	3.5300	3.5301	-2.0108	25.86	-0.05	-0.750			
0.6179	39548.42	3.5270	3.5267	-1.9820	25.87	-0.04	-0.750			
0.6239	39928.59	3.5240	3.5241	-1.9537	25.87	-0.04	-0.750			
0.6297	40298.04	3.5210	3.5207	-1.9157	25.88	-0.03	-0.750			
0.6353	40662.29	3.5180	3.5182	-1.8735	25.89	-0.02	-0.750			
0.6410	41025.88	3.5150	3.5150	-1.8294	25.89	-0.02	-0.750			
0.6465	41375.89	3.5120	3.5119	-1.7881	25.91	-0.00	-0.750			
0.6518	41713.40	3.5090	3.5093	-1.7215	25.92	0.01	-0.750			
0.6569	42039.03	3.5060	3.5060	-1.6608	25.93	0.02	-0.750			
0.6618	42353.13	3.5030	3.5030	-1.6148	25.94	0.03	-0.750			
0.6665	42657.86	3.5000	3.5000	-1.5608	25.96	0.05	-0.750			
0.6712	42955.61	3.4970	3.4969	-1.5224	25.97	0.06	-0.750			
0.6756	43238.70	3.4940	3.4940	-1.4743	25.99	0.08	-0.750			
0.6800	43518.85	3.4910	3.4909	-1.4301	26.00	0.09	-0.750			
0.6842	43789.58	3.4880	3.4879	-1.3836	26.01	0.10	-0.750			
0.6883	44050.00	3.4850	3.4851	-1.3460	26.03	0.12	-0.750			
0.6922	44301.74	3.4820	3.4820	-1.2980	26.04	0.13	-0.750			
0.6961	44548.97	3.4790	3.4788	-1.2638	26.06	0.15	-0.750			
0.6998	44786.95	3.4760	3.4760	-1.2240	26.08	0.17	-0.750			
0.7034	45016.09	3.4730	3.4731	-1.1830	26.10	0.19	-0.750			
0.7070	45247.04	3.4700	3.4699	-1.1553	26.11	0.20	-0.750			
0.7104	45464.64	3.4670	3.4670	-1.1104	26.13	0.22	-0.750			
0.7136	45670.23	3.4640	3.4640	-1.0648	26.15	0.24	-0.750			
0.7167	45870.97	3.4610	3.4610	-1.0377	26.16	0.25	-0.750			
0.7198	46065.01	3.4580	3.4580	-1.0006	26.17	0.26	-0.750			
0.7227	46254.10	3.4550	3.4548	-0.9706	26.18	0.27	-0.750			
0.7256	46437.23	3.4520	3.4519	-0.9422	26.19	0.28	-0.750			
0.7284	46617.15	3.4490	3.4490	-0.9210	26.21	0.30	-0.750			
0.7311	46790.15	3.4460	3.4460	-0.9006	26.22	0.31	-0.750			
0.7337	46958.66	3.4430	3.4431	-0.8782	26.23	0.32	-0.750			
0.7363	47121.98	3.4400	3.4400	-0.8622	26.24	0.33	-0.750			
0.7389	47288.94	3.4370	3.4371	-0.8667	26.25	0.34	-0.750			
0.7414	47452.47	3.4340	3.4340	-0.8668	26.26	0.35	-0.750			
0.7440	47618.52	3.4310	3.4309	-0.8705	26.26	0.35	-0.750			
0.7466	47785.28	3.4280	3.4281	-0.8795	26.27	0.36	-0.750			
0.7493	47954.58	3.4250	3.4250	-0.8928	26.28	0.37	-0.750			
0.7520	48127.54	3.4220	3.4221	-0.9112	26.29	0.38	-0.750			
0.7547	48302.88	3.4190	3.4190	-0.9324	26.29	0.38	-0.750			
0.7576	48486.16	3.4160	3.4159	-0.9406	26.30	0.39	-0.750			
0.7605	48669.68	3.4130	3.4130	-0.9486	26.30	0.39	-0.750			
0.7634	48855.79	3.4100	3.4100	-0.9462	26.31	0.40	-0.750			
0.7662	49037.03	3.4070	3.4070	-0.9341	26.32	0.41	-0.750			
0.7690	49216.27	3.4040	3.4040	-0.9190	26.32	0.41	-0.750			
0.7717	49390.21	3.4010	3.4010	-0.8987	26.33	0.42	-0.750			
0.7744	49560.45	3.3980	3.3980	-0.8780	26.34	0.43	-0.750			
0.7770	49729.38	3.3950	3.3950	-0.8636	26.35	0.44	-0.750			
0.7796	49893.23	3.3920	3.3920	-0.8395	26.36	0.45	-0.750			
0.7821	50053.95	3.3890	3.3890	-0.8134	26.37	0.46	-0.750			
0.7845	50207.98	3.3860	3.3860	-0.7846	26.37	0.46	-0.750			
0.7868	50355.88	3.3830	3.3830	-0.7561	26.38	0.47	-0.750			
0.7890	50498.19	3.3800	3.3800	-0.7281	26.39	0.48	-0.750			
0.7912	50634.50	3.3770	3.3770	-0.6990	26.40	0.49	-0.750			
0.7932	50765.23	3.3740	3.3740	-0.6707	26.40	0.49	-0.750			
0.7952	50891.66	3.3710	3.3710	-0.6466	26.41	0.50	-0.750			
0.7971	51013.44	3.3680	3.3680	-0.6275	26.42	0.51	-0.750			
0.7989	51131.42	3.3650	3.3650	-0.6051	26.43	0.52	-0.750			
0.8007	51245.23	3.3620	3.3619	-0.5845	26.43	0.52	-0.750			
0.8024	51355.84	3.3590	3.3591	-0.5625	26.44	0.53	-0.750			
0.8041	51462.46	3.3560	3.3559	-0.5419	26.45	0.54	-0.750			
0.8057	51563.73	3.3530	3.3531	-0.5212	26.45	0.54	-0.750			
0.8072	51660.81	3.3500	3.3500	-0.5017	26.46	0.55	-0.750			
0.8087	51754.72	3.3470	3.3470	-0.4886	26.46	0.55	-0.750			
0.8101	51847.11	3.3440	3.3439	-0.4727	26.47	0.56	-0.750			
0.8115	51936.20	3.3410	3.3410	-0.4576	26.47	0.56	-0.750			
0.8129	52023.22	3.3380	3.3380	-0.4454	26.47	0.56	-0.750			
0.8142	52107.66	3.3350	3.3351	-0.4321	26.48	0.57	-0.750			
0.8155	52189.26	3.3320	3.3318	-0.4172	26.48	0.57	-0.750			
0.8167	52267.13	3.3290	3.3290	-0.4037	26.49	0.58	-0.750			
0.8179	52342.96	3.3260	3.3260	-0.3914	26.50	0.59	-0.750			
0.8190	52417.39	3.3230	3.3230	-0.3795	26.50	0.59	-0.750			
0.8201	52488.99	3.3200	3.3200	-0.3689	26.51	0.60	-0.750			
0.8212	52558.19	3.3170	3.3171	-0.3590	26.51	0.60	-0.750			
0.8223	52626.91	3.3140	3.3139	-0.3491	26.52	0.61	-0.750			
0.8233	52692.61	3.3110	3.3110	-0.3397	26.52	0.61	-0.750			
0.8243	52756.74	3.3080	3.3081	-0.3298	26.53	0.62	-0.750			
0.8253	52819.39	3.3050	3.3049	-0.3204	26.53	0.62	-0.750			
0.8262	52879.87	3.3020	3.3019	-0.3123	26.54	0.63	-0.750			
0.8272	52938.09	3.2990	3.2993	-0.3030	26.54	0.63	-0.750			
0.8281	52995.55	3.2960	3.2960	-0.2962	26.55	0.64	-0.750			
0.8289	53052.30	3.2930	3.2929	-0.2908	26.55	0.64	-0.750			
0.8298	53107.10	3.2900	3.2900	-0.2838	26.56	0.65	-0.750			
0.8306	53160.55	3.2870	3.2871	-0.2788	26.56	0.65	-0.750			
0.8315	53213.72	3.2840	3.2839	-0.2729	26.57	0.66	-0.750			
0.8323	53265.42	3.2810	3.2810	-0.2668	26.57	0.66	-0.750			
0.8331	53316.44	3.2780	3.2781	-0.2616	26.58	0.67	-0.750			
0.8338	53365.93	3.2750	3.2750	-0.2570	26.58	0.67	-0.750			
0.8346	53414.74	3.2720	3.2720	-0.2525	26.59	0.68	-0.750			
0.8354	53462.70	3.2690	3.2689	-0.2470	26.59	0.68	-0.750			
0.8361	53509.63	3.2660	3.2660	-0.2419	26.60	0.69	-0.750			
0.8368	53556.06	3.2630	3.2630	-0.2382	26.60	0.69	-0.750			
0.8375	53600.87	3.2600	3.2601	-0.2347	26.61	0.70	-0.750			
0.8382	53645.51	3.2570	3.2570	-0.2309	26.61	0.70	-0.750			
0.8389	53689.27	3.2540	3.2539	-0.2262	26.62	0.71	-0.750			
0.8396	53732.48	3.2510	3.2511	-0.2230	26.62	0.71	-0.750			
0.8402	53775.01	3.2480	3.2480	-0.2198	26.63	0.72	-0.750			
0.8409	53817.37	3.2450	3.2450	-0.2162	26.63	0.72	-0.750			
0.8415	53858.16	3.2420	3.2420	-0.2130	26.64	0.73	-0.750			
0.8422	53898.30	3.2390	3.2391	-0.2092	26.64	0.73	-0.750			
0.8428	53938.07	3.2360	3.2360	-0.2067	26.65	0.74	-0.750			
0.8434	53977.64	3.2330	3.2329	-0.2044	26.66	0.75	-0.750			
0.8440	54016.66	3.2300	3.2300	-0.2024	26.66	0.75	-0.750			
0.8446	54055.52	3.2270	3.2271	-0.1997	26.67	0.76	-0.750			
0.8452	54093.61	3.2240	3.2240	-0.1971	26.67	0.76	-0.750			
0.8458	54131.60	3.2210	3.2208	-0.1938	26.68	0.77	-0.750			
0.8464	54168.31	3.2180	3.2180	-0.1902	26.68	0.77	-0.750			
0.8469	54204.07	3.2150	3.2150	-0.1881	26.69	0.78	-0.750			
0.8475	54239.98	3.2120	3.2120	-0.1859	26.69	0.78	-0.750			
0.8480	54275.15	3.2090	3.2090	-0.1840	26.70	0.79	-0.750			
0.8486	54309.94	3.2060	3.2060	-0.1822	26.70	0.79	-0.750			
0.8491	54344.89	3.2030	3.2030	-0.1817	26.71	0.80	-0.750			
0.8497	54379.87	3.2000	3.2001	-0.1796	26.71	0.80	-0.750			
0.8502	54414.65	3.1970	3.1970	-0.1778	26.72	0.81	-0.750			
0.8508	54448.67	3.1940	3.1940	-0.1759	26.72	0.81	-0.750			
0.8513	54481.86	3.1910	3.1911	-0.1730	26.73	0.82	-0.750			
0.8518	54514.89	3.1880	3.1880	-0.1711	26.74	0.83	-0.750			
0.8523	54547.64	3.1850	3.1849	-0.1690	26.74	0.83	-0.750			
0.8528	54579.88	3.1820	3.1820	-0.1663	26.75	0.84	-0.750			
0.8533	54611.41	3.1790	3.1791	-0.1647	26.75	0.84	-0.750			
0.8538	54642.97	3.1760	3.1760	-0.1630	26.76	0.85	-0.750			
0.8543	54673.88	3.1730	3.1730	-0.1619	26.76	0.85	-0.750			
0.8548	54704.62	3.1700	3.1700	-0.1604	26.77	0.86	-0.750			
0.8552	54735.53	3.1670	3.1669	-0.1590	26.78	0.87	-0.750			
0.8557	54765.95	3.1640	3.1640	-0.1579	26.78	0.87	-0.750			
0.8562	54796.43	3.1610	3.1611	-0.1567	26.79	0.88	-0.750			
0.8567	54826.50	3.1580	3.1580	-0.1557	26.79	0.88	-0.750			
0.8571	54855.99	3.1550	3.1550	-0.1534	26.80	0.89	-0.750			
0.8576	54885.39	3.1520	3.1519	-0.1514	26.80	0.89	-0.750			
0.8580	54914.15	3.1490	3.1490	-0.1498	26.81	0.90	-0.750			
0.8585	54942.81	3.1460	3.1460	-0.1482	26.81	0.90	-0.750			
0.8589	54971.11	3.1430	3.1431	-0.1466	26.82	0.91	-0.750			
0.8594	54999.07	3.1400	3.1400	-0.1461	26.82	0.91	-0.750			
0.8598	55026.81	3.1370	3.1370	-0.1449	26.83	0.92	-0.750			
0.8602	55054.34	3.1340	3.1339	-0.1440	26.83	0.92	-0.750			
0.8607	55082.07	3.1310	3.1310	-0.1429	26.84	0.93	-0.750			
0.8611	55109.79	3.1280	3.1281	-0.1418	26.84	0.93	-0.750			
0.8615	55136.83	3.1250	3.1251	-0.1408	26.85	0.94	-0.750			
0.8619	55163.87	3.1220	3.1219	-0.1396	26.85	0.94	-0.750			
0.8624	55190.57	3.1190	3.1190	-0.1376	26.85	0.94	-0.750			
0.8628	55216.42	3.1160	3.1160	-0.1365	26.86	0.95	-0.750			
0.8632	55242.39	3.1130	3.1131	-0.1354	26.86	0.95	-0.750			
0.8636	55268.38	3.1100	3.1101	-0.1347	26.87	0.96	-0.750			
0.8640	55294.19	3.1070	3.1069	-0.1341	26.87	0.96	-0.750			
0.8644	55320.03	3.1040	3.1042	-0.1328	26.88	0.97	-0.750			
0.8648	55345.29	3.1010	3.1010	-0.1317	26.88	0.97	-0.750			
0.8652	55370.49	3.0980	3.0982	-0.1308	26.89	0.98	-0.750			
0.8656	55395.72	3.0950	3.0950	-0.1301	26.89	0.98	-0.750			
0.8659	55420.27	3.0920	3.0918	-0.1285	26.90	0.99	-0.750			
0.8663	55444.88	3.0890	3.0891	-0.1279	26.91	1.00	-0.750			
0.8667	55469.38	3.0860	3.0860	-0.1270	26.91	1.00	-0.750			
0.8671	55493.71	3.0830	3.0830	-0.1264	26.92	1.01	-0.750			
0.8675	55517.95	3.0800	3.0800	-0.1261	26.92	1.01	-0.750			
0.8678	55541.97	3.0770	3.0770	-0.1252	26.93	1.02	-0.750			
0.8682	55566.24	3.0740	3.0740	-0.1238	26.93	1.02	-0.750			
0.8686	55590.12	3.0710	3.0709	-0.1229	26.94	1.03	-0.750			
0.8690	55613.35	3.0680	3.0681	-0.1222	26.95	1.04	-0.750			
0.8693	55636.66	3.0650	3.0652	-0.1212	26.95	1.04	-0.750			
0.8697	55659.80	3.0620	3.0620	-0.1206	26.96	1.05	-0.750			
0.8700	55682.80	3.0590	3.0588	-0.1198	26.96	1.05	-0.750			
0.8704	55705.85	3.0560	3.0560	-0.1185	26.97	1.06	-0.750			
0.8708	55728.37	3.0530	3.0530	-0.1175	26.97	1.06	-0.750			
0.8711	55750.79	3.0500	3.0501	-0.1174	26.98	1.07	-0.750			
0.8715	55773.57	3.0470	3.0470	-0.1171	26.98	1.07	-0.750			
0.8718	55795.94	3.0440	3.0438	-0.1163	26.99	1.08	-0.750			
0.8722	55817.88	3.0410	3.0410	-0.1154	26.99	1.08	-0.750			
0.8725	55840.18	3.0380	3.0380	-0.1145	27.00	1.09	-0.750			
0.8728	55862.07	3.0350	3.0352	-0.1136	27.00	1.09	-0.750			
0.8732	55883.99	3.0320	3.0320	-0.1135	27.01	1.10	-0.750			
0.8735	55905.68	3.0290	3.0290	-0.1124	27.01	1.10	-0.750			
0.8739	55926.95	3.0260	3.0260	-0.1110	27.02	1.11	-0.750			
0.8742	55948.19	3.0230	3.0229	-0.1103	27.02	1.11	-0.750			
0.8745	55969.39	3.0200	3.0201	-0.1094	27.03	1.12	-0.750			
0.8748	55990.31	3.0170	3.0170	-0.1085	27.03	1.12	-0.750			
0.8752	56011.32	3.0140	3.0140	-0.1074	27.04	1.13	-0.750			
0.8755	56031.79	3.0110	3.0110	-0.1058	27.04	1.13	-0.750			
0.8758	56051.88	3.0080	3.0081	-0.1043	27.05	1.14	-0.751			
0.8761	56071.78	3.0050	3.0050	-0.1029	27.05	1.14	-0.751			
0.8764	56091.31	3.0020	3.0020	-0.0994	27.06	1.15	-0.751			
