Ah_balance (normalized)	Ah_balance (mAh)	Voltage - fit (V)	Voltage -  interpolate (V)	dQ/dV (1/V)	Temperature (°C)	Temperature - diff (°C)	Current (C)	R_DC 0ms (mOhm)	R_DC 50ms (mOhm)	R_DC 50 ms PEC (mOhm)
0.0003	17.22	4.1600	4.1597	-0.1071	26.00	0.01	-0.750			
0.0007	42.91	4.1570	4.1568	-0.1521	26.00	0.01	-0.750			
0.0012	76.67	4.1540	4.1539	-0.1914	25.99	0.00	-0.750			
0.0018	117.37	4.1510	4.1509	-0.2281	25.99	0.00	-0.750			
0.0026	164.93	4.1480	4.1481	-0.2635	25.99	-0.00	-0.750			
0.0034	219.02	4.1450	4.1450	-0.2986	25.99	-0.00	-0.750			
0.0044	280.57	4.1420	4.1420	-0.3318	25.98	-0.01	-0.750			
0.0054	347.51	4.1390	4.1390	-0.3645	25.98	-0.01	-0.750			
0.0066	422.04	4.1360	4.1360	-0.3923	25.98	-0.01	-0.750			
0.0078	500.42	4.1330	4.1329	-0.4181	25.97	-0.02	-0.750			
0.0091	582.77	4.1300	4.1301	-0.4466	25.97	-0.02	-0.750			
0.0105	670.84	4.1270	4.1271	-0.4727	25.96	-0.03	-0.750			
0.0120	764.88	4.1240	4.1238	-0.4939	25.96	-0.03	-0.750			
0.0135	862.93	4.1210	4.1209	-0.5125	25.95	-0.04	-0.750			
0.0150	963.01	4.1180	4.1184	-0.5334	25.95	-0.04	-0.750			
0.0167	1068.59	4.1150	4.1150	-0.5507	25.95	-0.04	-0.750			
0.0184	1176.13	4.1120	4.1120	-0.5651	25.94	-0.05	-0.750			
0.0201	1285.55	4.1090	4.1090	-0.5768	25.94	-0.05	-0.750			
0.0218	1397.68	4.1060	4.1061	-0.5914	25.94	-0.05	-0.750			
0.0237	1513.88	4.1030	4.1030	-0.6026	25.94	-0.05	-0.750			
0.0255	1630.96	4.1000	4.1000	-0.6135	25.93	-0.06	-0.750			
0.0273	1748.66	4.0970	4.0971	-0.6198	25.93	-0.06	-0.750			
0.0292	1869.59	4.0940	4.0940	-0.6277	25.93	-0.06	-0.750			
0.0311	1990.37	4.0910	4.0910	-0.6325	25.92	-0.07	-0.750			
0.0330	2111.68	4.0880	4.0881	-0.6416	25.92	-0.07	-0.750			
0.0349	2236.35	4.0850	4.0849	-0.6444	25.92	-0.07	-0.750			
0.0369	2361.62	4.0820	4.0820	-0.6498	25.91	-0.08	-0.750			
0.0389	2486.52	4.0790	4.0790	-0.6526	25.91	-0.08	-0.750			
0.0408	2612.99	4.0760	4.0760	-0.6560	25.91	-0.08	-0.750			
0.0428	2738.30	4.0730	4.0729	-0.6643	25.91	-0.08	-0.750			
0.0448	2865.74	4.0700	4.0700	-0.6650	25.90	-0.09	-0.750			
0.0468	2993.23	4.0670	4.0669	-0.6715	25.90	-0.09	-0.750			
0.0488	3124.24	4.0640	4.0640	-0.6829	25.90	-0.09	-0.750			
0.0509	3255.40	4.0610	4.0611	-0.6930	25.89	-0.10	-0.750			
0.0530	3389.95	4.0580	4.0581	-0.6980	25.89	-0.10	-0.750			
0.0551	3525.92	4.0550	4.0551	-0.7032	25.89	-0.10	-0.750			
0.0572	3660.11	4.0520	4.0520	-0.7055	25.89	-0.10	-0.750			
0.0594	3798.48	4.0490	4.0490	-0.7069	25.89	-0.10	-0.750			
0.0615	3935.03	4.0460	4.0459	-0.7045	25.89	-0.10	-0.750			
0.0636	4068.03	4.0430	4.0429	-0.7006	25.89	-0.10	-0.750			
0.0657	4203.00	4.0400	4.0401	-0.6928	25.89	-0.10	-0.750			
0.0677	4334.98	4.0370	4.0369	-0.6989	25.89	-0.10	-0.750			
0.0698	4467.55	4.0340	4.0340	-0.7023	25.89	-0.10	-0.750			
0.0719	4601.38	4.0310	4.0311	-0.7019	25.89	-0.10	-0.750			
0.0740	4738.96	4.0280	4.0279	-0.7099	25.89	-0.10	-0.750			
0.0762	4877.27	4.0250	4.0250	-0.7136	25.89	-0.10	-0.750			
0.0784	5014.48	4.0220	4.0220	-0.7146	25.89	-0.10	-0.750			
0.0805	5152.58	4.0190	4.0190	-0.7192	25.89	-0.10	-0.750			
0.0826	5287.12	4.0160	4.0160	-0.7173	25.89	-0.10	-0.750			
0.0848	5426.19	4.0130	4.0130	-0.7155	25.89	-0.10	-0.750			
0.0869	5564.64	4.0100	4.0099	-0.7188	25.89	-0.10	-0.750			
0.0891	5703.66	4.0070	4.0071	-0.7214	25.89	-0.10	-0.750			
0.0913	5841.88	4.0040	4.0040	-0.7200	25.89	-0.10	-0.750			
0.0934	5979.07	4.0010	4.0009	-0.7227	25.90	-0.09	-0.750			
0.0956	6117.65	3.9980	3.9981	-0.7279	25.90	-0.09	-0.750			
0.0978	6256.78	3.9950	3.9950	-0.7299	25.90	-0.09	-0.750			
0.1000	6399.45	3.9920	3.9919	-0.7354	25.91	-0.08	-0.750			
0.1022	6541.42	3.9890	3.9891	-0.7353	25.91	-0.08	-0.750			
0.1044	6682.63	3.9860	3.9860	-0.7363	25.91	-0.08	-0.750			
0.1066	6824.21	3.9830	3.9831	-0.7389	25.91	-0.08	-0.750			
0.1088	6965.52	3.9800	3.9799	-0.7406	25.90	-0.09	-0.750			
0.1110	7107.06	3.9770	3.9769	-0.7403	25.90	-0.09	-0.750			
0.1133	7250.65	3.9740	3.9740	-0.7434	25.90	-0.09	-0.750			
0.1155	7393.01	3.9710	3.9711	-0.7465	25.90	-0.09	-0.750			
0.1178	7537.96	3.9680	3.9679	-0.7479	25.90	-0.09	-0.750			
0.1200	7680.99	3.9650	3.9650	-0.7528	25.90	-0.09	-0.750			
0.1223	7825.20	3.9620	3.9620	-0.7526	25.91	-0.08	-0.750			
0.1246	7971.78	3.9590	3.9589	-0.7569	25.91	-0.08	-0.750			
0.1268	8117.08	3.9560	3.9560	-0.7598	25.91	-0.08	-0.750			
0.1291	8263.39	3.9530	3.9529	-0.7602	25.91	-0.08	-0.750			
0.1314	8408.08	3.9500	3.9501	-0.7638	25.91	-0.08	-0.750			
0.1337	8555.53	3.9470	3.9469	-0.7634	25.91	-0.08	-0.750			
0.1360	8700.92	3.9440	3.9441	-0.7622	25.91	-0.08	-0.750			
0.1383	8848.83	3.9410	3.9409	-0.7668	25.91	-0.08	-0.750			
0.1406	8995.38	3.9380	3.9381	-0.7668	25.91	-0.08	-0.750			
0.1429	9142.49	3.9350	3.9350	-0.7679	25.91	-0.08	-0.750			
0.1452	9291.32	3.9320	3.9319	-0.7693	25.92	-0.07	-0.750			
0.1475	9440.13	3.9290	3.9290	-0.7637	25.92	-0.07	-0.750			
0.1498	9586.76	3.9260	3.9261	-0.7729	25.93	-0.06	-0.750			
0.1521	9733.49	3.9230	3.9230	-0.7756	25.93	-0.06	-0.750			
0.1544	9882.72	3.9200	3.9198	-0.7801	25.93	-0.06	-0.750			
0.1567	10031.28	3.9170	3.9171	-0.7875	25.94	-0.05	-0.750			
0.1591	10185.54	3.9140	3.9140	-0.7870	25.94	-0.05	-0.750			
0.1615	10338.58	3.9110	3.9110	-0.7882	25.94	-0.05	-0.750			
0.1639	10491.87	3.9080	3.9080	-0.7909	25.95	-0.04	-0.750			
0.1663	10640.48	3.9050	3.9050	-0.7861	25.95	-0.04	-0.750			
0.1686	10789.57	3.9020	3.9019	-0.7916	25.96	-0.03	-0.750			
0.1710	10944.39	3.8990	3.8990	-0.7887	25.96	-0.03	-0.750			
0.1734	11095.97	3.8960	3.8960	-0.7887	25.96	-0.03	-0.750			
0.1758	11249.43	3.8930	3.8931	-0.7897	25.97	-0.02	-0.750			
0.1781	11401.06	3.8900	3.8901	-0.7902	25.97	-0.02	-0.750			
0.1805	11551.72	3.8870	3.8868	-0.7884	25.97	-0.02	-0.750			
0.1828	11700.73	3.8840	3.8840	-0.7951	25.97	-0.02	-0.750			
0.1852	11855.74	3.8810	3.8811	-0.7953	25.97	-0.02	-0.750			
0.1877	12010.75	3.8780	3.8779	-0.8021	25.97	-0.02	-0.750			
0.1901	12165.25	3.8750	3.8753	-0.8037	25.97	-0.02	-0.750			
0.1925	12318.53	3.8720	3.8720	-0.8034	25.97	-0.02	-0.750			
0.1949	12471.33	3.8690	3.8689	-0.8085	25.97	-0.02	-0.750			
0.1973	12625.91	3.8660	3.8660	-0.8105	25.98	-0.01	-0.750			
0.1997	12783.76	3.8630	3.8629	-0.8122	25.98	-0.01	-0.750			
0.2022	12941.17	3.8600	3.8601	-0.8113	25.98	-0.01	-0.750			
0.2046	13096.56	3.8570	3.8571	-0.8097	25.99	-0.00	-0.750			
0.2071	13251.57	3.8540	3.8539	-0.8108	25.99	0.00	-0.750			
0.2095	13406.65	3.8510	3.8510	-0.8065	26.00	0.01	-0.750			
0.2119	13560.85	3.8480	3.8480	-0.8053	26.00	0.01	-0.750			
0.2143	13716.99	3.8450	3.8451	-0.8056	26.01	0.02	-0.750			
0.2167	13871.86	3.8420	3.8419	-0.8058	26.01	0.02	-0.750			
0.2191	14024.94	3.8390	3.8389	-0.8072	26.01	0.02	-0.750			
0.2216	14179.83	3.8360	3.8360	-0.8004	26.02	0.03	-0.750			
0.2239	14332.33	3.8330	3.8330	-0.7988	26.02	0.03	-0.750			
0.2264	14488.09	3.8300	3.8300	-0.7988	26.02	0.03	-0.750			
0.2288	14640.69	3.8270	3.8268	-0.7952	26.02	0.03	-0.750			
0.2311	14791.47	3.8240	3.8240	-0.7960	26.02	0.03	-0.750			
0.2335	14943.50	3.8210	3.8210	-0.7915	26.02	0.03	-0.750			
0.2359	15095.40	3.8180	3.8180	-0.7872	26.03	0.04	-0.750			
0.2383	15248.64	3.8150	3.8148	-0.7875	26.03	0.04	-0.750			
0.2406	15397.70	3.8120	3.8121	-0.7854	26.03	0.04	-0.750			
0.2429	15548.66	3.8090	3.8091	-0.7839	26.04	0.05	-0.750			
0.2453	15698.82	3.8060	3.8059	-0.7796	26.04	0.05	-0.750			
0.2476	15847.18	3.8030	3.8030	-0.7716	26.05	0.06	-0.750			
0.2500	15998.35	3.8000	3.8000	-0.7737	26.05	0.06	-0.750			
0.2523	16146.50	3.7970	3.7970	-0.7718	26.06	0.07	-0.750			
0.2546	16293.30	3.7940	3.7940	-0.7675	26.06	0.07	-0.750			
0.2568	16437.74	3.7910	3.7910	-0.7644	26.06	0.07	-0.750			
0.2592	16587.00	3.7880	3.7879	-0.7632	26.07	0.08	-0.750			
0.2615	16733.76	3.7850	3.7850	-0.7616	26.07	0.08	-0.750			
0.2637	16879.61	3.7820	3.7820	-0.7570	26.07	0.08	-0.750			
0.2660	17024.58	3.7790	3.7791	-0.7524	26.07	0.08	-0.750			
0.2682	17167.63	3.7760	3.7759	-0.7481	26.08	0.09	-0.750			
0.2705	17311.38	3.7730	3.7729	-0.7479	26.08	0.09	-0.750			
0.2727	17454.21	3.7700	3.7700	-0.7441	26.08	0.09	-0.750			
0.2750	17598.33	3.7670	3.7670	-0.7421	26.09	0.10	-0.750			
0.2772	17741.25	3.7640	3.7642	-0.7381	26.09	0.10	-0.750			
0.2794	17881.73	3.7610	3.7609	-0.7419	26.09	0.10	-0.750			
0.2816	18022.20	3.7580	3.7579	-0.7431	26.10	0.11	-0.750			
0.2839	18166.53	3.7550	3.7549	-0.7463	26.10	0.11	-0.750			
0.2861	18309.49	3.7520	3.7520	-0.7497	26.10	0.11	-0.750			
0.2884	18456.05	3.7490	3.7490	-0.7588	26.11	0.12	-0.750			
0.2907	18602.26	3.7460	3.7460	-0.7632	26.11	0.12	-0.750			
0.2929	18748.11	3.7430	3.7429	-0.7676	26.11	0.12	-0.750			
0.2952	18894.75	3.7400	3.7400	-0.7705	26.12	0.13	-0.750			
0.2975	19042.23	3.7370	3.7371	-0.7755	26.12	0.13	-0.750			
0.2999	19194.60	3.7340	3.7340	-0.7907	26.13	0.14	-0.750			
0.3023	19345.12	3.7310	3.7311	-0.7986	26.13	0.14	-0.750			
0.3047	19498.47	3.7280	3.7279	-0.8107	26.13	0.14	-0.750			
0.3071	19655.35	3.7250	3.7251	-0.8282	26.13	0.14	-0.750			
0.3096	19816.46	3.7220	3.7220	-0.8458	26.13	0.14	-0.750			
0.3122	19980.34	3.7190	3.7188	-0.8614	26.13	0.14	-0.750			
0.3148	20148.52	3.7160	3.7162	-0.8791	26.13	0.14	-0.750			
0.3175	20317.18	3.7130	3.7130	-0.9010	26.13	0.14	-0.750			
0.3202	20493.17	3.7100	3.7099	-0.9109	26.13	0.14	-0.750			
0.3230	20670.73	3.7070	3.7069	-0.9218	26.13	0.14	-0.750			
0.3258	20849.10	3.7040	3.7040	-0.9390	26.13	0.14	-0.750			
0.3286	21029.25	3.7010	3.7010	-0.9474	26.13	0.14	-0.750			
0.3314	21212.43	3.6980	3.6980	-0.9646	26.13	0.14	-0.750			
0.3343	21398.37	3.6950	3.6950	-0.9781	26.13	0.14	-0.750			
0.3373	21585.91	3.6920	3.6920	-0.9909	26.13	0.14	-0.750			
0.3403	21779.94	3.6890	3.6892	-1.0200	26.13	0.14	-0.750			
0.3434	21976.31	3.6860	3.6860	-1.0413	26.12	0.13	-0.750			
0.3466	22179.69	3.6830	3.6829	-1.0518	26.12	0.13	-0.750			
0.3497	22382.15	3.6800	3.6799	-1.0730	26.11	0.12	-0.750			
0.3530	22589.64	3.6770	3.6773	-1.1055	26.11	0.12	-0.750			
0.3563	22805.53	3.6740	3.6740	-1.1218	26.11	0.12	-0.750			
0.3597	23023.29	3.6710	3.6708	-1.1411	26.10	0.11	-0.750			
0.3632	23243.47	3.6680	3.6680	-1.1597	26.10	0.11	-0.750			
0.3667	23468.06	3.6650	3.6651	-1.1876	26.10	0.11	-0.750			
0.3704	23702.92	3.6620	3.6619	-1.1966	26.09	0.10	-0.750			
0.3740	23933.66	3.6590	3.6590	-1.2012	26.08	0.09	-0.750			
0.3775	24162.26	3.6560	3.6564	-1.2178	26.07	0.08	-0.750			
0.3812	24399.07	3.6530	3.6529	-1.2447	26.07	0.08	-0.750			
0.3849	24635.04	3.6500	3.6499	-1.2665	26.07	0.08	-0.750			
0.3887	24877.67	3.6470	3.6470	-1.3065	26.07	0.08	-0.750			
0.3927	25133.36	3.6440	3.6440	-1.3498	26.07	0.08	-0.750			
0.3969	25400.60	3.6410	3.6409	-1.3853	26.06	0.07	-0.750			
0.4011	25672.33	3.6380	3.6380	-1.4138	26.05	0.06	-0.750			
0.4054	25945.54	3.6350	3.6350	-1.4455	26.05	0.06	-0.750			
0.4098	26224.37	3.6320	3.6319	-1.4831	26.05	0.06	-0.750			
0.4143	26514.18	3.6290	3.6290	-1.5105	26.05	0.06	-0.750			
0.4188	26804.97	3.6260	3.6260	-1.5292	26.04	0.05	-0.750			
0.4235	27105.69	3.6230	3.6229	-1.5650	26.04	0.05	-0.750			
0.4282	27405.16	3.6200	3.6201	-1.5966	26.03	0.04	-0.750			
0.4330	27712.37	3.6170	3.6167	-1.6190	26.03	0.04	-0.750			
0.4378	28021.34	3.6140	3.6139	-1.6526	26.03	0.04	-0.750	0.394	0.533	
0.4429	28344.65	3.6110	3.6109	-1.6761	26.03	0.04	-0.750			
0.4481	28677.98	3.6080	3.6077	-1.7140	26.02	0.03	-0.750			
0.4533	29008.14	3.6050	3.6050	-1.7364	26.01	0.02	-0.750			
0.4585	29342.71	3.6020	3.6018	-1.7785	26.01	0.02	-0.750			
0.4637	29678.41	3.5990	3.5988	-1.7944	26.01	0.02	-0.750			
0.4692	30026.78	3.5960	3.5960	-1.8423	26.01	0.02	-0.750			
0.4748	30389.42	3.5930	3.5928	-1.8821	26.01	0.02	-0.750			
0.4806	30758.60	3.5900	3.5898	-1.9312	26.01	0.02	-0.750			
0.4866	31139.50	3.5870	3.5871	-1.9548	26.01	0.02	-0.750			
0.4924	31511.73	3.5840	3.5842	-1.9753	26.01	0.02	-0.750			
0.4983	31891.98	3.5810	3.5811	-2.0053	26.00	0.01	-0.750			
0.5043	32275.60	3.5780	3.5779	-2.0442	26.00	0.01	-0.750			
0.5105	32672.33	3.5750	3.5751	-2.0879	26.00	0.01	-0.750			
0.5170	33086.32	3.5720	3.5718	-2.1186	26.00	0.01	-0.750			
0.5234	33499.29	3.5690	3.5691	-2.1411	26.00	0.01	-0.750			
0.5299	33913.08	3.5660	3.5660	-2.1493	26.00	0.01	-0.750			
0.5363	34324.44	3.5630	3.5629	-2.1624	26.01	0.02	-0.750			
0.5427	34732.76	3.5600	3.5601	-2.1674	26.01	0.02	-0.750			
0.5493	35154.42	3.5570	3.5571	-2.1755	26.01	0.02	-0.750			
0.5559	35578.17	3.5540	3.5540	-2.1823	26.01	0.02	-0.750			
0.5625	36000.14	3.5510	3.5511	-2.1938	26.01	0.02	-0.750			
0.5691	36419.65	3.5480	3.5479	-2.2082	26.02	0.03	-0.750			
0.5758	36849.97	3.5450	3.5448	-2.1642	26.03	0.04	-0.750			
0.5822	37259.37	3.5420	3.5421	-2.1523	26.03	0.04	-0.750			
0.5887	37674.21	3.5390	3.5392	-2.1454	26.04	0.05	-0.750			
0.5951	38085.65	3.5360	3.5360	-2.1080	26.04	0.05	-0.750			
0.6014	38486.86	3.5330	3.5331	-2.0705	26.05	0.06	-0.750			
0.6075	38880.59	3.5300	3.5301	-2.0370	26.05	0.06	-0.750			
0.6136	39270.32	3.5270	3.5271	-1.9928	26.06	0.07	-0.750			
0.6195	39650.95	3.5240	3.5240	-1.9557	26.07	0.08	-0.750			
0.6253	40021.63	3.5210	3.5209	-1.8962	26.08	0.09	-0.750			
0.6310	40383.90	3.5180	3.5179	-1.8666	26.08	0.09	-0.750			
0.6366	40742.96	3.5150	3.5151	-1.8193	26.09	0.10	-0.750			
0.6420	41091.12	3.5120	3.5120	-1.7721	26.10	0.11	-0.750			
0.6473	41425.84	3.5090	3.5090	-1.7504	26.11	0.12	-0.750			
0.6525	41762.29	3.5060	3.5062	-1.6891	26.13	0.14	-0.750			
0.6575	42081.58	3.5030	3.5032	-1.6272	26.14	0.15	-0.750			
0.6623	42387.91	3.5000	3.5002	-1.5708	26.15	0.16	-0.750			
0.6669	42679.66	3.4970	3.4970	-1.5130	26.16	0.17	-0.750			
0.6715	42972.99	3.4940	3.4938	-1.4664	26.18	0.19	-0.750			
0.6756	43240.14	3.4910	3.4909	-1.4211	26.19	0.20	-0.750			
0.6798	43506.64	3.4880	3.4881	-1.3764	26.20	0.21	-0.750			
0.6840	43773.81	3.4850	3.4849	-1.3482	26.22	0.23	-0.750			
0.6879	44024.94	3.4820	3.4820	-1.3137	26.24	0.25	-0.750			
0.6917	44271.88	3.4790	3.4790	-1.2661	26.26	0.27	-0.750			
0.6955	44514.29	3.4760	3.4759	-1.2271	26.27	0.28	-0.750			
0.6992	44748.51	3.4730	3.4728	-1.1846	26.28	0.29	-0.750			
0.7026	44968.00	3.4700	3.4704	-1.1423	26.29	0.30	-0.750			
0.7060	45186.48	3.4670	3.4669	-1.1069	26.30	0.31	-0.750			
0.7093	45393.29	3.4640	3.4639	-1.0685	26.32	0.33	-0.750			
0.7124	45592.95	3.4610	3.4610	-1.0341	26.33	0.34	-0.750			
0.7154	45787.95	3.4580	3.4581	-1.0047	26.34	0.35	-0.750			
0.7184	45977.73	3.4550	3.4549	-0.9815	26.35	0.36	-0.750			
0.7213	46163.27	3.4520	3.4520	-0.9543	26.37	0.38	-0.750			
0.7241	46343.24	3.4490	3.4490	-0.9226	26.38	0.39	-0.750			
0.7269	46519.60	3.4460	3.4461	-0.9012	26.39	0.40	-0.750			
0.7295	46688.47	3.4430	3.4430	-0.8788	26.40	0.41	-0.750			
0.7321	46852.15	3.4400	3.4399	-0.8625	26.41	0.42	-0.750			
0.7346	47014.82	3.4370	3.4370	-0.8544	26.42	0.43	-0.750			
0.7371	47174.75	3.4340	3.4340	-0.8497	26.43	0.44	-0.750			
0.7397	47338.78	3.4310	3.4312	-0.8602	26.44	0.45	-0.750			
0.7423	47504.08	3.4280	3.4280	-0.8757	26.45	0.46	-0.750			
0.7449	47671.68	3.4250	3.4250	-0.8888	26.46	0.47	-0.750			
0.7476	47843.81	3.4220	3.4220	-0.9078	26.46	0.47	-0.750			
0.7503	48019.14	3.4190	3.4190	-0.9233	26.47	0.48	-0.750			
0.7532	48202.22	3.4160	3.4161	-0.9350	26.48	0.49	-0.750			
0.7560	48384.66	3.4130	3.4131	-0.9446	26.49	0.50	-0.750			
0.7589	48568.13	3.4100	3.4100	-0.9461	26.50	0.51	-0.750			
0.7617	48751.33	3.4070	3.4070	-0.9391	26.51	0.52	-0.750			
0.7646	48932.15	3.4040	3.4042	-0.9304	26.52	0.53	-0.750			
0.7673	49109.72	3.4010	3.4009	-0.9152	26.53	0.54	-0.750			
0.7701	49286.11	3.3980	3.3980	-0.8965	26.54	0.55	-0.750			
0.7728	49457.26	3.3950	3.3950	-0.8683	26.55	0.56	-0.750			
0.7753	49621.10	3.3920	3.3920	-0.8366	26.55	0.56	-0.750			
0.7778	49780.72	3.3890	3.3891	-0.8112	26.56	0.57	-0.750			
0.7802	49933.21	3.3860	3.3860	-0.7818	26.56	0.57	-0.750			
0.7825	50078.56	3.3830	3.3830	-0.7571	26.57	0.58	-0.750			
0.7847	50221.80	3.3800	3.3800	-0.7313	26.57	0.58	-0.750			
0.7869	50361.29	3.3770	3.3770	-0.7058	26.58	0.59	-0.750			
0.7890	50494.22	3.3740	3.3740	-0.6811	26.58	0.59	-0.750			
0.7910	50622.72	3.3710	3.3710	-0.6574	26.58	0.59	-0.750			
0.7929	50745.09	3.3680	3.3679	-0.6326	26.59	0.60	-0.750			
0.7947	50863.18	3.3650	3.3649	-0.6082	26.60	0.61	-0.750			
0.7965	50976.98	3.3620	3.3621	-0.5872	26.60	0.61	-0.750			
0.7983	51088.72	3.3590	3.3589	-0.5698	26.61	0.62	-0.750			
0.8000	51197.05	3.3560	3.3561	-0.5517	26.61	0.62	-0.750			
0.8016	51300.13	3.3530	3.3530	-0.5315	26.62	0.63	-0.750			
0.8031	51399.65	3.3500	3.3500	-0.5131	26.62	0.63	-0.750			
0.8046	51496.69	3.3470	3.3470	-0.4967	26.63	0.64	-0.750			
0.8061	51589.86	3.3440	3.3440	-0.4812	26.64	0.65	-0.750			
0.8075	51680.02	3.3410	3.3410	-0.4666	26.64	0.65	-0.750			
0.8089	51768.59	3.3380	3.3379	-0.4524	26.65	0.66	-0.750			
0.8102	51853.70	3.3350	3.3350	-0.4398	26.66	0.67	-0.750			
0.8115	51937.65	3.3320	3.3320	-0.4236	26.66	0.67	-0.750			
0.8128	52017.64	3.3290	3.3290	-0.4102	26.67	0.68	-0.750			
0.8140	52095.15	3.3260	3.3259	-0.3954	26.68	0.69	-0.750			
0.8151	52168.39	3.3230	3.3231	-0.3806	26.68	0.69	-0.750			
0.8162	52239.87	3.3200	3.3199	-0.3684	26.69	0.70	-0.750			
0.8173	52309.14	3.3170	3.3171	-0.3607	26.69	0.70	-0.750			
0.8184	52377.10	3.3140	3.3140	-0.3523	26.69	0.70	-0.750			
0.8195	52444.99	3.3110	3.3109	-0.3455	26.70	0.71	-0.750			
0.8205	52509.87	3.3080	3.3081	-0.3356	26.70	0.71	-0.750			
0.8215	52573.97	3.3050	3.3050	-0.3277	26.71	0.72	-0.750			
0.8224	52636.10	3.3020	3.3019	-0.3182	26.71	0.72	-0.750			
0.8234	52695.73	3.2990	3.2990	-0.3094	26.71	0.72	-0.750			
0.8243	52753.73	3.2960	3.2961	-0.3003	26.72	0.73	-0.750			
0.8252	52811.11	3.2930	3.2929	-0.2935	26.72	0.73	-0.750			
0.8260	52866.71	3.2900	3.2900	-0.2872	26.72	0.73	-0.750			
0.8269	52920.26	3.2870	3.2872	-0.2812	26.73	0.74	-0.750			
0.8277	52973.97	3.2840	3.2840	-0.2761	26.73	0.74	-0.750			
0.8286	53027.22	3.2810	3.2809	-0.2700	26.74	0.75	-0.750			
0.8293	53078.32	3.2780	3.2780	-0.2641	26.74	0.75	-0.750			
0.8301	53128.32	3.2750	3.2751	-0.2585	26.75	0.76	-0.750			
0.8309	53177.22	3.2720	3.2720	-0.2545	26.76	0.77	-0.750			
0.8316	53225.11	3.2690	3.2689	-0.2481	26.76	0.77	-0.750			
0.8324	53272.09	3.2660	3.2660	-0.2440	26.77	0.78	-0.750			
0.8331	53318.58	3.2630	3.2630	-0.2411	26.77	0.78	-0.750			
0.8338	53364.84	3.2600	3.2601	-0.2386	26.78	0.79	-0.750			
0.8345	53410.72	3.2570	3.2569	-0.2359	26.78	0.79	-0.750			
0.8352	53455.45	3.2540	3.2540	-0.2310	26.79	0.80	-0.750			
0.8359	53499.72	3.2510	3.2509	-0.2264	26.79	0.80	-0.750			
0.8366	53542.74	3.2480	3.2481	-0.2218	26.80	0.81	-0.750			
0.8373	53585.21	3.2450	3.2451	-0.2194	26.80	0.81	-0.750			
0.8379	53626.48	3.2420	3.2420	-0.2153	26.81	0.82	-0.750			
0.8385	53667.14	3.2390	3.2389	-0.2112	26.81	0.82	-0.750			
0.8392	53707.43	3.2360	3.2359	-0.2085	26.81	0.82	-0.750			
0.8398	53746.98	3.2330	3.2330	-0.2056	26.82	0.83	-0.750			
0.8404	53786.58	3.2300	3.2301	-0.2030	26.82	0.83	-0.750			
0.8410	53825.67	3.2270	3.2269	-0.2000	26.83	0.84	-0.750			
0.8416	53863.66	3.2240	3.2240	-0.1958	26.84	0.85	-0.750			
0.8422	53900.28	3.2210	3.2210	-0.1936	26.84	0.85	-0.750			
0.8428	53937.02	3.2180	3.2180	-0.1914	26.85	0.86	-0.750			
0.8433	53973.60	3.2150	3.2149	-0.1891	26.85	0.86	-0.750			
0.8439	54009.74	3.2120	3.2120	-0.1873	26.86	0.87	-0.750			
0.8445	54045.37	3.2090	3.2091	-0.1856	26.86	0.87	-0.750			
0.8450	54081.14	3.2060	3.2060	-0.1839	26.87	0.88	-0.750			
0.8456	54116.63	3.2030	3.2029	-0.1822	26.87	0.88	-0.750			
0.8461	54151.32	3.2000	3.1999	-0.1792	26.88	0.89	-0.750			
0.8466	54185.09	3.1970	3.1971	-0.1766	26.88	0.89	-0.750			
0.8472	54218.76	3.1940	3.1940	-0.1749	26.88	0.89	-0.750			
0.8477	54252.07	3.1910	3.1911	-0.1731	26.89	0.90	-0.750			
0.8482	54285.14	3.1880	3.1879	-0.1714	26.89	0.90	-0.750			
0.8487	54317.71	3.1850	3.1850	-0.1692	26.90	0.91	-0.750			
0.8492	54350.00	3.1820	3.1820	-0.1682	26.90	0.91	-0.750			
0.8497	54382.50	3.1790	3.1790	-0.1667	26.91	0.92	-0.750			
0.8502	54414.30	3.1760	3.1760	-0.1646	26.91	0.92	-0.750			
0.8507	54445.52	3.1730	3.1729	-0.1636	26.92	0.93	-0.750			
0.8512	54476.99	3.1700	3.1701	-0.1613	26.92	0.93	-0.750			
0.8517	54507.81	3.1670	3.1669	-0.1595	26.93	0.94	-0.750			
0.8522	54538.24	3.1640	3.1639	-0.1575	26.94	0.95	-0.750			
0.8526	54568.31	3.1610	3.1611	-0.1561	26.94	0.95	-0.750			
0.8531	54597.82	3.1580	3.1579	-0.1542	26.95	0.96	-0.750			
0.8536	54627.41	3.1550	3.1549	-0.1531	26.95	0.96	-0.750			
0.8540	54656.67	3.1520	3.1521	-0.1516	26.96	0.97	-0.750			
0.8545	54685.20	3.1490	3.1490	-0.1506	26.96	0.97	-0.750			
0.8549	54714.54	3.1460	3.1459	-0.1497	26.97	0.98	-0.750			
0.8554	54743.14	3.1430	3.1429	-0.1482	26.97	0.98	-0.750			
0.8558	54771.44	3.1400	3.1400	-0.1466	26.98	0.99	-0.750			
0.8562	54799.45	3.1370	3.1371	-0.1450	26.98	0.99	-0.750			
0.8567	54827.00	3.1340	3.1340	-0.1441	26.99	1.00	-0.750			
0.8571	54854.63	3.1310	3.1310	-0.1426	26.99	1.00	-0.750			
0.8575	54881.88	3.1280	3.1279	-0.1413	27.00	1.01	-0.750			
0.8579	54908.59	3.1250	3.1250	-0.1403	27.00	1.01	-0.750			
0.8584	54935.71	3.1220	3.1220	-0.1397	27.01	1.02	-0.750			
0.8588	54962.41	3.1190	3.1190	-0.1385	27.01	1.02	-0.750			
0.8592	54988.92	3.1160	3.1159	-0.1372	27.02	1.03	-0.750			
0.8596	55015.03	3.1130	3.1131	-0.1368	27.02	1.03	-0.750			
0.8600	55041.22	3.1100	3.1100	-0.1353	27.02	1.03	-0.750			
0.8604	55067.33	3.1070	3.1069	-0.1350	27.03	1.04	-0.750			
0.8608	55093.18	3.1040	3.1039	-0.1334	27.03	1.04	-0.750			
0.8612	55118.41	3.1010	3.1012	-0.1322	27.04	1.05	-0.750			
0.8616	55143.84	3.0980	3.0980	-0.1314	27.04	1.05	-0.750			
0.8620	55168.86	3.0950	3.0950	-0.1306	27.05	1.06	-0.750			
0.8624	55193.79	3.0920	3.0921	-0.1296	27.05	1.06	-0.750			
0.8628	55218.30	3.0890	3.0889	-0.1283	27.06	1.07	-0.750			
0.8632	55242.96	3.0860	3.0861	-0.1278	27.07	1.08	-0.750			
0.8636	55267.66	3.0830	3.0831	-0.1275	27.07	1.08	-0.750			
0.8639	55292.37	3.0800	3.0799	-0.1263	27.08	1.09	-0.750			
0.8643	55316.48	3.0770	3.0770	-0.1248	27.08	1.09	-0.750			
0.8647	55340.14	3.0740	3.0740	-0.1238	27.09	1.10	-0.750			
0.8651	55363.78	3.0710	3.0711	-0.1226	27.09	1.10	-0.750			
0.8654	55387.14	3.0680	3.0680	-0.1220	27.10	1.11	-0.750			
0.8658	55410.33	3.0650	3.0650	-0.1211	27.10	1.11	-0.750			
0.8661	55433.46	3.0620	3.0621	-0.1200	27.11	1.12	-0.750			
0.8665	55456.45	3.0590	3.0590	-0.1195	27.12	1.13	-0.750			
0.8669	55479.58	3.0560	3.0561	-0.1193	27.12	1.13	-0.750			
0.8672	55502.41	3.0530	3.0530	-0.1184	27.13	1.14	-0.750			
0.8676	55524.91	3.0500	3.0500	-0.1176	27.13	1.14	-0.750			
0.8679	55547.43	3.0470	3.0470	-0.1170	27.14	1.15	-0.750			
0.8683	55569.83	3.0440	3.0439	-0.1164	27.14	1.15	-0.750			
0.8686	55592.04	3.0410	3.0410	-0.1158	27.15	1.16	-0.750			
0.8690	55614.31	3.0380	3.0380	-0.1148	27.15	1.16	-0.750			
0.8693	55636.42	3.0350	3.0350	-0.1141	27.16	1.17	-0.750			
0.8697	55658.13	3.0320	3.0320	-0.1140	27.17	1.18	-0.750			
0.8700	55679.87	3.0290	3.0291	-0.1134	27.17	1.18	-0.750			
0.8703	55701.67	3.0260	3.0259	-0.1125	27.18	1.19	-0.750			
0.8707	55723.16	3.0230	3.0229	-0.1119	27.18	1.19	-0.750			
0.8710	55744.71	3.0200	3.0199	-0.1103	27.19	1.20	-0.750			
0.8713	55765.99	3.0170	3.0171	-0.1093	27.19	1.20	-0.750			
0.8717	55786.78	3.0140	3.0140	-0.1086	27.20	1.21	-0.750			
0.8720	55807.74	3.0110	3.0110	-0.1075	27.20	1.21	-0.751			
0.8723	55827.80	3.0080	3.0080	-0.1065	27.21	1.22	-0.751			
0.8726	55848.22	3.0050	3.0049	-0.1063	27.21	1.22	-0.751			
0.8729	55868.68	3.0020	3.0020	-0.1093	27.22	1.23	-0.751			
