Ah_balance (normalized)	Ah_balance (mAh)	Voltage - fit (V)	Voltage -  interpolate (V)	dQ/dV (1/V)	Temperature (°C)	Temperature - diff (°C)	Current (C)	R_DC 0ms (mOhm)	R_DC 50ms (mOhm)	R_DC 50 ms PEC (mOhm)
0.0004	28.41	4.1600	4.1599	-0.1366	25.99	0.00	-0.750			
0.0009	59.56	4.1570	4.1570	-0.1800	25.99	0.00	-0.750			
0.0015	98.70	4.1540	4.1539	-0.2186	25.99	0.00	-0.750			
0.0023	144.54	4.1510	4.1510	-0.2547	25.99	0.00	-0.750			
0.0031	196.68	4.1480	4.1481	-0.2919	25.99	-0.00	-0.750			
0.0040	256.71	4.1450	4.1450	-0.3288	25.99	-0.00	-0.750			
0.0051	323.31	4.1420	4.1419	-0.3642	25.99	-0.00	-0.750			
0.0062	396.55	4.1390	4.1390	-0.3981	25.98	-0.01	-0.750			
0.0075	477.13	4.1360	4.1361	-0.4320	25.98	-0.01	-0.750			
0.0088	564.22	4.1330	4.1330	-0.4602	25.98	-0.01	-0.750			
0.0103	656.52	4.1300	4.1300	-0.4904	25.98	-0.01	-0.750			
0.0118	754.96	4.1270	4.1269	-0.5091	25.98	-0.01	-0.750			
0.0134	855.93	4.1240	4.1239	-0.5279	25.97	-0.02	-0.750			
0.0150	958.46	4.1210	4.1212	-0.5447	25.97	-0.02	-0.750			
0.0166	1064.47	4.1180	4.1180	-0.5590	25.97	-0.02	-0.750			
0.0183	1173.37	4.1150	4.1148	-0.5715	25.96	-0.03	-0.750			
0.0201	1283.75	4.1120	4.1120	-0.5852	25.96	-0.03	-0.750			
0.0218	1397.40	4.1090	4.1090	-0.6021	25.95	-0.04	-0.750			
0.0237	1515.76	4.1060	4.1059	-0.6136	25.95	-0.04	-0.750			
0.0255	1635.09	4.1030	4.1029	-0.6247	25.94	-0.05	-0.750			
0.0274	1756.27	4.1000	4.1002	-0.6297	25.94	-0.05	-0.750			
0.0294	1879.15	4.0970	4.0969	-0.6384	25.94	-0.05	-0.750			
0.0313	2002.26	4.0940	4.0940	-0.6450	25.94	-0.05	-0.750			
0.0332	2125.03	4.0910	4.0910	-0.6479	25.94	-0.05	-0.750			
0.0352	2251.00	4.0880	4.0880	-0.6574	25.93	-0.06	-0.750			
0.0371	2377.57	4.0850	4.0851	-0.6644	25.93	-0.06	-0.750			
0.0391	2505.00	4.0820	4.0819	-0.6704	25.93	-0.06	-0.750			
0.0412	2635.36	4.0790	4.0790	-0.6785	25.93	-0.06	-0.750			
0.0432	2766.37	4.0760	4.0760	-0.6800	25.93	-0.06	-0.750			
0.0453	2896.56	4.0730	4.0731	-0.6855	25.93	-0.06	-0.750			
0.0473	3030.06	4.0700	4.0700	-0.6872	25.93	-0.06	-0.750			
0.0494	3161.96	4.0670	4.0669	-0.6896	25.93	-0.06	-0.750			
0.0515	3293.96	4.0640	4.0640	-0.6898	25.93	-0.06	-0.750			
0.0535	3426.85	4.0610	4.0610	-0.6908	25.93	-0.06	-0.750			
0.0556	3561.27	4.0580	4.0580	-0.6905	25.93	-0.06	-0.750			
0.0577	3692.62	4.0550	4.0550	-0.6984	25.93	-0.06	-0.750			
0.0598	3825.28	4.0520	4.0520	-0.7002	25.93	-0.06	-0.750			
0.0619	3961.70	4.0490	4.0490	-0.7045	25.93	-0.06	-0.750			
0.0640	4096.74	4.0460	4.0459	-0.7106	25.93	-0.06	-0.750			
0.0662	4234.82	4.0430	4.0430	-0.7138	25.93	-0.06	-0.750			
0.0683	4373.37	4.0400	4.0399	-0.7159	25.93	-0.06	-0.750			
0.0705	4510.16	4.0370	4.0371	-0.7180	25.93	-0.06	-0.750			
0.0726	4646.43	4.0340	4.0340	-0.7142	25.93	-0.06	-0.750			
0.0748	4785.69	4.0310	4.0310	-0.7197	25.93	-0.06	-0.750			
0.0769	4924.33	4.0280	4.0280	-0.7210	25.93	-0.06	-0.750			
0.0791	5061.97	4.0250	4.0251	-0.7189	25.93	-0.06	-0.750			
0.0813	5201.30	4.0220	4.0220	-0.7231	25.93	-0.06	-0.750			
0.0834	5339.95	4.0190	4.0190	-0.7288	25.93	-0.06	-0.750			
0.0856	5480.52	4.0160	4.0159	-0.7272	25.94	-0.05	-0.750			
0.0878	5621.46	4.0130	4.0129	-0.7287	25.94	-0.05	-0.750			
0.0900	5760.68	4.0100	4.0104	-0.7291	25.94	-0.05	-0.750			
0.0922	5901.16	4.0070	4.0069	-0.7296	25.94	-0.05	-0.750			
0.0944	6039.70	4.0040	4.0040	-0.7345	25.94	-0.05	-0.750			
0.0965	6179.06	4.0010	4.0009	-0.7332	25.95	-0.04	-0.750			
0.0988	6323.06	3.9980	3.9980	-0.7412	25.95	-0.04	-0.750			
0.1010	6465.56	3.9950	3.9950	-0.7440	25.95	-0.04	-0.750			
0.1033	6609.11	3.9920	3.9920	-0.7474	25.95	-0.04	-0.750			
0.1055	6752.69	3.9890	3.9890	-0.7489	25.95	-0.04	-0.750			
0.1078	6896.16	3.9860	3.9860	-0.7496	25.95	-0.04	-0.750			
0.1100	7040.28	3.9830	3.9830	-0.7459	25.96	-0.03	-0.750			
0.1122	7183.87	3.9800	3.9801	-0.7515	25.96	-0.03	-0.750			
0.1145	7328.64	3.9770	3.9770	-0.7523	25.96	-0.03	-0.750			
0.1167	7471.53	3.9740	3.9740	-0.7528	25.96	-0.03	-0.750			
0.1190	7614.91	3.9710	3.9710	-0.7562	25.96	-0.03	-0.750			
0.1213	7761.19	3.9680	3.9681	-0.7609	25.97	-0.02	-0.750			
0.1236	7909.18	3.9650	3.9650	-0.7653	25.97	-0.02	-0.750			
0.1259	8058.32	3.9620	3.9620	-0.7674	25.97	-0.02	-0.750			
0.1282	8204.43	3.9590	3.9591	-0.7632	25.97	-0.02	-0.750			
0.1305	8351.18	3.9560	3.9560	-0.7644	25.97	-0.02	-0.750			
0.1327	8495.64	3.9530	3.9529	-0.7762	25.98	-0.01	-0.750			
0.1351	8644.59	3.9500	3.9500	-0.7802	25.98	-0.01	-0.750			
0.1374	8796.59	3.9470	3.9469	-0.7896	25.99	-0.00	-0.750			
0.1399	8952.55	3.9440	3.9442	-0.7958	25.99	-0.00	-0.750			
0.1423	9106.75	3.9410	3.9410	-0.7954	25.99	0.00	-0.750			
0.1447	9257.74	3.9380	3.9380	-0.7945	26.00	0.01	-0.750			
0.1470	9409.90	3.9350	3.9349	-0.7893	26.00	0.01	-0.750			
0.1494	9560.11	3.9320	3.9319	-0.7883	26.01	0.02	-0.750			
0.1517	9710.96	3.9290	3.9291	-0.7896	26.01	0.02	-0.750			
0.1541	9863.66	3.9260	3.9260	-0.7906	26.01	0.02	-0.750			
0.1565	10015.38	3.9230	3.9229	-0.7924	26.01	0.02	-0.750			
0.1589	10166.67	3.9200	3.9200	-0.7903	26.01	0.02	-0.750			
0.1612	10317.24	3.9170	3.9170	-0.7931	26.01	0.02	-0.750			
0.1636	10471.91	3.9140	3.9139	-0.7972	26.01	0.02	-0.750			
0.1660	10624.77	3.9110	3.9111	-0.7962	26.01	0.02	-0.750			
0.1684	10776.21	3.9080	3.9080	-0.8007	26.02	0.03	-0.750			
0.1708	10931.28	3.9050	3.9050	-0.8041	26.02	0.03	-0.750			
0.1732	11086.06	3.9020	3.9020	-0.8014	26.02	0.03	-0.750			
0.1756	11240.53	3.8990	3.8990	-0.8024	26.03	0.04	-0.750			
0.1780	11394.09	3.8960	3.8961	-0.8030	26.03	0.04	-0.750			
0.1805	11548.96	3.8930	3.8929	-0.8064	26.03	0.04	-0.750			
0.1829	11703.22	3.8900	3.8900	-0.8071	26.04	0.05	-0.750			
0.1853	11857.61	3.8870	3.8870	-0.8080	26.04	0.05	-0.750			
0.1877	12013.93	3.8840	3.8840	-0.8138	26.05	0.06	-0.750			
0.1902	12170.83	3.8810	3.8811	-0.8151	26.05	0.06	-0.750			
0.1926	12327.48	3.8780	3.8779	-0.8140	26.05	0.06	-0.750			
0.1951	12484.51	3.8750	3.8750	-0.8094	26.06	0.07	-0.750			
0.1975	12640.29	3.8720	3.8720	-0.8022	26.06	0.07	-0.750			
0.1999	12793.79	3.8690	3.8691	-0.8033	26.07	0.08	-0.750			
0.2023	12946.33	3.8660	3.8661	-0.7999	26.07	0.08	-0.750			
0.2046	13097.50	3.8630	3.8629	-0.8023	26.07	0.08	-0.750			
0.2071	13252.55	3.8600	3.8600	-0.8110	26.07	0.08	-0.750			
0.2095	13410.35	3.8570	3.8569	-0.8138	26.07	0.08	-0.750			
0.2120	13568.03	3.8540	3.8540	-0.8153	26.07	0.08	-0.750			
0.2145	13726.52	3.8510	3.8512	-0.8188	26.07	0.08	-0.750			
0.2169	13882.33	3.8480	3.8479	-0.8161	26.07	0.08	-0.750			
0.2193	14038.28	3.8450	3.8450	-0.8137	26.08	0.09	-0.750			
0.2218	14192.73	3.8420	3.8420	-0.8148	26.08	0.09	-0.750			
0.2242	14348.95	3.8390	3.8390	-0.8153	26.08	0.09	-0.750			
0.2267	14509.52	3.8360	3.8360	-0.8216	26.09	0.10	-0.750			
0.2292	14666.71	3.8330	3.8329	-0.8176	26.09	0.10	-0.750			
0.2316	14822.69	3.8300	3.8301	-0.8201	26.10	0.11	-0.750			
0.2341	14980.90	3.8270	3.8270	-0.8190	26.10	0.11	-0.750			
0.2365	15138.33	3.8240	3.8239	-0.8173	26.10	0.11	-0.750			
0.2390	15294.68	3.8210	3.8210	-0.8126	26.11	0.12	-0.750			
0.2414	15451.33	3.8180	3.8179	-0.8097	26.11	0.12	-0.750			
0.2438	15605.56	3.8150	3.8150	-0.8121	26.11	0.12	-0.750			
0.2463	15762.45	3.8120	3.8119	-0.8038	26.11	0.12	-0.750			
0.2487	15915.34	3.8090	3.8090	-0.7979	26.11	0.12	-0.750			
0.2511	16068.65	3.8060	3.8059	-0.7996	26.11	0.12	-0.750			
0.2535	16221.70	3.8030	3.8029	-0.7961	26.11	0.12	-0.750			
0.2558	16373.18	3.8000	3.7999	-0.7999	26.12	0.13	-0.750			
0.2582	16526.45	3.7970	3.7970	-0.7990	26.12	0.13	-0.750			
0.2606	16678.66	3.7940	3.7940	-0.7946	26.12	0.13	-0.750			
0.2631	16835.32	3.7910	3.7909	-0.8003	26.13	0.14	-0.750			
0.2654	16988.52	3.7880	3.7881	-0.7970	26.13	0.14	-0.750			
0.2679	17142.45	3.7850	3.7850	-0.7850	26.13	0.14	-0.750			
0.2702	17293.32	3.7820	3.7820	-0.7789	26.14	0.15	-0.750			
0.2725	17439.81	3.7790	3.7791	-0.7722	26.14	0.15	-0.750			
0.2748	17586.70	3.7760	3.7760	-0.7722	26.15	0.16	-0.750			
0.2771	17733.67	3.7730	3.7728	-0.7705	26.15	0.16	-0.750			
0.2794	17880.59	3.7700	3.7700	-0.7685	26.15	0.16	-0.750			
0.2817	18027.95	3.7670	3.7671	-0.7717	26.16	0.17	-0.750			
0.2841	18180.06	3.7640	3.7640	-0.7740	26.16	0.17	-0.750			
0.2864	18327.19	3.7610	3.7609	-0.7671	26.16	0.17	-0.750			
0.2887	18473.98	3.7580	3.7580	-0.7586	26.17	0.18	-0.750			
0.2909	18619.63	3.7550	3.7551	-0.7536	26.17	0.18	-0.750			
0.2931	18761.44	3.7520	3.7520	-0.7596	26.17	0.18	-0.750			
0.2954	18906.88	3.7490	3.7490	-0.7642	26.17	0.18	-0.750			
0.2977	19051.38	3.7460	3.7459	-0.7707	26.17	0.18	-0.750			
0.3000	19201.38	3.7430	3.7430	-0.7841	26.17	0.18	-0.750			
0.3024	19353.85	3.7400	3.7401	-0.7960	26.17	0.18	-0.750			
0.3048	19509.27	3.7370	3.7370	-0.8062	26.17	0.18	-0.750			
0.3073	19666.52	3.7340	3.7340	-0.8134	26.18	0.19	-0.750			
0.3097	19822.25	3.7310	3.7310	-0.8131	26.18	0.19	-0.750			
0.3122	19979.55	3.7280	3.7280	-0.8204	26.19	0.20	-0.750			
0.3146	20135.43	3.7250	3.7252	-0.8295	26.19	0.20	-0.750			
0.3171	20295.53	3.7220	3.7219	-0.8424	26.19	0.20	-0.750			
0.3196	20456.59	3.7190	3.7190	-0.8612	26.19	0.20	-0.750			
0.3223	20626.09	3.7160	3.7159	-0.8695	26.19	0.20	-0.750			
0.3249	20793.59	3.7130	3.7131	-0.8888	26.19	0.20	-0.750			
0.3276	20967.13	3.7100	3.7103	-0.9114	26.19	0.20	-0.750			
0.3304	21143.65	3.7070	3.7069	-0.9285	26.19	0.20	-0.750			
0.3332	21322.24	3.7040	3.7038	-0.9409	26.19	0.20	-0.750			
0.3360	21505.72	3.7010	3.7011	-0.9582	26.19	0.20	-0.750			
0.3389	21692.43	3.6980	3.6981	-0.9805	26.19	0.20	-0.750			
0.3419	21883.07	3.6950	3.6949	-1.0023	26.19	0.20	-0.750			
0.3449	22076.07	3.6920	3.6920	-1.0064	26.19	0.20	-0.750			
0.3480	22270.39	3.6890	3.6889	-1.0258	26.18	0.19	-0.750			
0.3511	22468.25	3.6860	3.6860	-1.0437	26.18	0.19	-0.750			
0.3542	22670.56	3.6830	3.6830	-1.0749	26.18	0.19	-0.750			
0.3575	22879.53	3.6800	3.6799	-1.0950	26.18	0.19	-0.750			
0.3608	23092.34	3.6770	3.6769	-1.1133	26.17	0.18	-0.750			
0.3642	23307.60	3.6740	3.6741	-1.1407	26.17	0.18	-0.750			
0.3677	23534.59	3.6710	3.6710	-1.1656	26.17	0.18	-0.750			
0.3712	23756.62	3.6680	3.6680	-1.1825	26.16	0.17	-0.750			
0.3748	23986.49	3.6650	3.6649	-1.1991	26.15	0.16	-0.750			
0.3784	24214.86	3.6620	3.6620	-1.2313	26.15	0.16	-0.750			
0.3821	24456.85	3.6590	3.6590	-1.2632	26.14	0.15	-0.750			
0.3860	24701.90	3.6560	3.6559	-1.2869	26.14	0.15	-0.750			
0.3899	24952.25	3.6530	3.6533	-1.3206	26.13	0.14	-0.750			
0.3940	25213.45	3.6500	3.6499	-1.3450	26.12	0.13	-0.750			
0.3980	25469.04	3.6470	3.6470	-1.3785	26.12	0.13	-0.750			
0.4022	25738.72	3.6440	3.6443	-1.3979	26.11	0.12	-0.750			
0.4064	26006.44	3.6410	3.6409	-1.4287	26.10	0.11	-0.750			
0.4107	26284.70	3.6380	3.6379	-1.4505	26.10	0.11	-0.750			
0.4150	26562.58	3.6350	3.6350	-1.4852	26.09	0.10	-0.750			
0.4196	26854.26	3.6320	3.6318	-1.5208	26.08	0.09	-0.750			
0.4242	27146.24	3.6290	3.6292	-1.5631	26.08	0.09	-0.750			
0.4289	27446.60	3.6260	3.6260	-1.5857	26.07	0.08	-0.750			
0.4338	27765.88	3.6230	3.6230	-1.6219	26.06	0.07	-0.750			
0.4387	28077.60	3.6200	3.6200	-1.6366	26.05	0.06	-0.750			
0.4436	28390.60	3.6170	3.6166	-1.6567	26.05	0.06	-0.750	0.406	0.536	
0.4486	28710.39	3.6140	3.6141	-1.6901	26.04	0.05	-0.750			
0.4536	29033.24	3.6110	3.6110	-1.7143	26.04	0.05	-0.750			
0.4588	29362.91	3.6080	3.6078	-1.7481	26.03	0.04	-0.750			
0.4641	29704.10	3.6050	3.6048	-1.8019	26.03	0.04	-0.750			
0.4696	30055.94	3.6020	3.6020	-1.8434	26.03	0.04	-0.750			
0.4753	30417.96	3.5990	3.5990	-1.8842	26.02	0.03	-0.750			
0.4810	30781.21	3.5960	3.5958	-1.9143	26.02	0.03	-0.750			
0.4868	31156.80	3.5930	3.5931	-1.9521	26.01	0.02	-0.750			
0.4927	31535.22	3.5900	3.5902	-1.9970	26.01	0.02	-0.750			
0.4987	31918.28	3.5870	3.5869	-2.0200	26.00	0.01	-0.750			
0.5048	32310.37	3.5840	3.5842	-2.0539	25.99	0.00	-0.750			
0.5111	32711.17	3.5810	3.5808	-2.0910	25.99	0.00	-0.750			
0.5175	33118.65	3.5780	3.5779	-2.1228	25.99	0.00	-0.750			
0.5238	33524.18	3.5750	3.5752	-2.1332	25.99	0.00	-0.750			
0.5303	33936.82	3.5720	3.5720	-2.1724	25.99	-0.00	-0.750			
0.5368	34356.34	3.5690	3.5690	-2.1968	25.97	-0.02	-0.750			
0.5436	34788.78	3.5660	3.5659	-2.2123	25.97	-0.02	-0.750			
0.5504	35226.12	3.5630	3.5631	-2.2234	25.98	-0.01	-0.750			
0.5570	35650.93	3.5600	3.5600	-2.2244	25.98	-0.01	-0.750			
0.5637	36079.58	3.5570	3.5570	-2.2202	25.98	-0.01	-0.750			
0.5703	36497.65	3.5540	3.5542	-2.2171	25.98	-0.01	-0.750			
0.5769	36920.51	3.5510	3.5514	-2.2245	25.99	-0.00	-0.750			
0.5836	37348.73	3.5480	3.5480	-2.2243	25.99	0.00	-0.750			
0.5904	37785.23	3.5450	3.5450	-2.2186	25.99	0.00	-0.750			
0.5970	38211.16	3.5420	3.5420	-2.2004	25.99	0.00	-0.750			
0.6037	38636.15	3.5390	3.5390	-2.1806	25.99	0.00	-0.750			
0.6103	39057.46	3.5360	3.5360	-2.1406	25.99	0.00	-0.750			
0.6165	39458.36	3.5330	3.5330	-2.1008	25.99	0.00	-0.750			
0.6228	39858.68	3.5300	3.5300	-2.0627	26.00	0.01	-0.750			
0.6290	40255.40	3.5270	3.5271	-2.0240	26.01	0.02	-0.750			
0.6350	40641.64	3.5240	3.5239	-1.9649	26.02	0.03	-0.750			
0.6407	41007.22	3.5210	3.5211	-1.9162	26.03	0.04	-0.750			
0.6464	41370.40	3.5180	3.5180	-1.8701	26.04	0.05	-0.750			
0.6519	41723.81	3.5150	3.5145	-1.8304	26.04	0.05	-0.750			
0.6574	42072.77	3.5120	3.5119	-1.7623	26.05	0.06	-0.750			
0.6627	42411.49	3.5090	3.5091	-1.7270	26.06	0.07	-0.750			
0.6678	42741.66	3.5060	3.5059	-1.6880	26.07	0.08	-0.750			
0.6728	43057.20	3.5030	3.5029	-1.6147	26.08	0.09	-0.750			
0.6775	43360.13	3.5000	3.5001	-1.5543	26.09	0.10	-0.750			
0.6821	43656.62	3.4970	3.4973	-1.5089	26.11	0.12	-0.750			
0.6866	43945.32	3.4940	3.4939	-1.4670	26.12	0.13	-0.750			
0.6910	44225.13	3.4910	3.4910	-1.4314	26.13	0.14	-0.750			
0.6952	44490.92	3.4880	3.4879	-1.3711	26.15	0.16	-0.750			
0.6992	44747.66	3.4850	3.4850	-1.3290	26.16	0.17	-0.750			
0.7032	45004.96	3.4820	3.4822	-1.2959	26.17	0.18	-0.750			
0.7070	45250.47	3.4790	3.4788	-1.2517	26.19	0.20	-0.750			
0.7107	45485.38	3.4760	3.4760	-1.2044	26.21	0.22	-0.750			
0.7142	45710.07	3.4730	3.4729	-1.1591	26.23	0.24	-0.750			
0.7177	45930.75	3.4700	3.4700	-1.1364	26.24	0.25	-0.750			
0.7210	46145.50	3.4670	3.4670	-1.0996	26.25	0.26	-0.750			
0.7242	46350.69	3.4640	3.4638	-1.0605	26.26	0.27	-0.750			
0.7274	46551.26	3.4610	3.4613	-1.0203	26.27	0.28	-0.750			
0.7304	46747.24	3.4580	3.4580	-0.9947	26.29	0.30	-0.750			
0.7334	46934.64	3.4550	3.4549	-0.9571	26.30	0.31	-0.750			
0.7361	47111.69	3.4520	3.4520	-0.9236	26.32	0.33	-0.750			
0.7388	47283.47	3.4490	3.4490	-0.9034	26.33	0.34	-0.750			
0.7414	47452.00	3.4460	3.4459	-0.8905	26.34	0.35	-0.750			
0.7441	47620.40	3.4430	3.4429	-0.8783	26.35	0.36	-0.750			
0.7467	47787.29	3.4400	3.4400	-0.8794	26.36	0.37	-0.750			
0.7493	47954.31	3.4370	3.4371	-0.8771	26.36	0.37	-0.750			
0.7520	48125.84	3.4340	3.4340	-0.8885	26.37	0.38	-0.750			
0.7546	48292.92	3.4310	3.4310	-0.9096	26.38	0.39	-0.750			
0.7573	48468.63	3.4280	3.4278	-0.9171	26.39	0.40	-0.750			
0.7601	48647.94	3.4250	3.4249	-0.9373	26.40	0.41	-0.750			
0.7630	48829.16	3.4220	3.4220	-0.9531	26.41	0.42	-0.750			
0.7659	49017.60	3.4190	3.4191	-0.9652	26.42	0.43	-0.750			
0.7688	49206.26	3.4160	3.4159	-0.9818	26.43	0.44	-0.750			
0.7718	49397.01	3.4130	3.4129	-0.9780	26.44	0.45	-0.750			
0.7747	49583.99	3.4100	3.4100	-0.9683	26.45	0.46	-0.750			
0.7777	49773.81	3.4070	3.4073	-0.9662	26.46	0.47	-0.750			
0.7806	49958.07	3.4040	3.4040	-0.9518	26.47	0.48	-0.750			
0.7834	50139.04	3.4010	3.4009	-0.9297	26.47	0.48	-0.750			
0.7862	50317.24	3.3980	3.3980	-0.9010	26.47	0.48	-0.750			
0.7889	50489.33	3.3950	3.3950	-0.8743	26.48	0.49	-0.750			
0.7915	50654.87	3.3920	3.3920	-0.8388	26.48	0.49	-0.750			
0.7939	50811.28	3.3890	3.3890	-0.8115	26.49	0.50	-0.750			
0.7963	50963.09	3.3860	3.3860	-0.7789	26.50	0.51	-0.750			
0.7986	51108.23	3.3830	3.3829	-0.7521	26.50	0.51	-0.750			
0.8008	51251.42	3.3800	3.3800	-0.7282	26.51	0.52	-0.750			
0.8030	51390.09	3.3770	3.3771	-0.7038	26.51	0.52	-0.750			
0.8050	51521.72	3.3740	3.3742	-0.6745	26.52	0.53	-0.750			
0.8070	51648.93	3.3710	3.3710	-0.6501	26.53	0.54	-0.750			
0.8089	51769.30	3.3680	3.3678	-0.6269	26.54	0.55	-0.750			
0.8107	51887.19	3.3650	3.3650	-0.6066	26.54	0.55	-0.750			
0.8125	52001.15	3.3620	3.3620	-0.5825	26.55	0.56	-0.750			
0.8143	52113.20	3.3590	3.3590	-0.5607	26.56	0.57	-0.750			
0.8159	52218.43	3.3560	3.3560	-0.5396	26.56	0.57	-0.750			
0.8175	52318.17	3.3530	3.3530	-0.5213	26.57	0.58	-0.750			
0.8190	52416.07	3.3500	3.3499	-0.5009	26.57	0.58	-0.750			
0.8205	52509.02	3.3470	3.3470	-0.4800	26.58	0.59	-0.750			
0.8219	52600.87	3.3440	3.3441	-0.4657	26.58	0.59	-0.750			
0.8233	52689.09	3.3410	3.3411	-0.4520	26.59	0.60	-0.750			
0.8246	52773.99	3.3380	3.3379	-0.4353	26.59	0.60	-0.750			
0.8258	52854.38	3.3350	3.3350	-0.4184	26.59	0.60	-0.750			
0.8271	52933.32	3.3320	3.3319	-0.4066	26.60	0.61	-0.750			
0.8283	53010.63	3.3290	3.3290	-0.3958	26.60	0.61	-0.750			
0.8295	53085.47	3.3260	3.3259	-0.3821	26.61	0.62	-0.750			
0.8306	53157.79	3.3230	3.3230	-0.3689	26.62	0.63	-0.750			
0.8317	53226.77	3.3200	3.3200	-0.3575	26.62	0.63	-0.750			
0.8327	53294.12	3.3170	3.3171	-0.3468	26.63	0.64	-0.750			
0.8337	53359.49	3.3140	3.3140	-0.3363	26.64	0.65	-0.750			
0.8347	53422.61	3.3110	3.3109	-0.3261	26.64	0.65	-0.750			
0.8357	53484.49	3.3080	3.3080	-0.3176	26.65	0.66	-0.750			
0.8366	53544.53	3.3050	3.3051	-0.3109	26.65	0.66	-0.750			
0.8376	53603.42	3.3020	3.3020	-0.3020	26.66	0.67	-0.750			
0.8384	53660.22	3.2990	3.2989	-0.2931	26.66	0.67	-0.750			
0.8393	53716.01	3.2960	3.2960	-0.2872	26.67	0.68	-0.750			
0.8402	53770.33	3.2930	3.2931	-0.2796	26.67	0.68	-0.750			
0.8410	53823.18	3.2900	3.2900	-0.2730	26.68	0.69	-0.750			
0.8418	53874.92	3.2870	3.2870	-0.2661	26.68	0.69	-0.750			
0.8426	53924.87	3.2840	3.2841	-0.2602	26.68	0.69	-0.750			
0.8434	53974.95	3.2810	3.2809	-0.2550	26.69	0.70	-0.750			
0.8441	54023.13	3.2780	3.2780	-0.2496	26.69	0.70	-0.750			
0.8448	54070.31	3.2750	3.2750	-0.2439	26.70	0.71	-0.750			
0.8456	54116.42	3.2720	3.2721	-0.2392	26.70	0.71	-0.750			
0.8463	54162.11	3.2690	3.2689	-0.2349	26.71	0.72	-0.750			
0.8470	54206.47	3.2660	3.2660	-0.2298	26.71	0.72	-0.750			
0.8477	54250.19	3.2630	3.2630	-0.2256	26.71	0.72	-0.750			
0.8483	54292.86	3.2600	3.2600	-0.2218	26.72	0.73	-0.750			
0.8490	54335.44	3.2570	3.2570	-0.2181	26.72	0.73	-0.750			
0.8496	54376.42	3.2540	3.2540	-0.2141	26.72	0.73	-0.750			
0.8503	54417.28	3.2510	3.2510	-0.2107	26.73	0.74	-0.750			
0.8509	54457.33	3.2480	3.2481	-0.2073	26.73	0.74	-0.750			
0.8515	54496.71	3.2450	3.2449	-0.2048	26.73	0.74	-0.750			
0.8521	54535.84	3.2420	3.2419	-0.2017	26.74	0.75	-0.750			
0.8527	54574.28	3.2390	3.2389	-0.1988	26.74	0.75	-0.750			
0.8533	54612.11	3.2360	3.2360	-0.1958	26.75	0.76	-0.750			
0.8539	54649.69	3.2330	3.2330	-0.1928	26.76	0.77	-0.750			
0.8545	54685.95	3.2300	3.2300	-0.1900	26.76	0.77	-0.750			
0.8550	54722.15	3.2270	3.2269	-0.1880	26.77	0.78	-0.750			
0.8556	54758.03	3.2240	3.2241	-0.1858	26.77	0.78	-0.750			
0.8561	54793.24	3.2210	3.2209	-0.1830	26.78	0.79	-0.750			
0.8567	54828.07	3.2180	3.2181	-0.1821	26.78	0.79	-0.750			
0.8572	54863.32	3.2150	3.2150	-0.1797	26.79	0.80	-0.750			
0.8578	54897.60	3.2120	3.2120	-0.1773	26.79	0.80	-0.750			
0.8583	54931.86	3.2090	3.2089	-0.1742	26.80	0.81	-0.750			
0.8588	54964.74	3.2060	3.2061	-0.1715	26.81	0.82	-0.750			
0.8593	54997.22	3.2030	3.2031	-0.1690	26.81	0.82	-0.750			
0.8598	55029.44	3.2000	3.2000	-0.1666	26.82	0.83	-0.750			
0.8603	55061.00	3.1970	3.1969	-0.1646	26.82	0.83	-0.750			
0.8608	55091.77	3.1940	3.1940	-0.1622	26.83	0.84	-0.750			
0.8613	55123.18	3.1910	3.1910	-0.1622	26.83	0.84	-0.750			
0.8618	55154.12	3.1880	3.1880	-0.1617	26.84	0.85	-0.750			
0.8623	55185.30	3.1850	3.1851	-0.1601	26.84	0.85	-0.750			
0.8627	55215.91	3.1820	3.1820	-0.1584	26.84	0.85	-0.750			
0.8632	55246.38	3.1790	3.1789	-0.1572	26.85	0.86	-0.750			
0.8637	55276.39	3.1760	3.1761	-0.1550	26.85	0.86	-0.750			
0.8642	55306.18	3.1730	3.1730	-0.1527	26.85	0.86	-0.750			
0.8646	55335.01	3.1700	3.1699	-0.1506	26.86	0.87	-0.750			
0.8651	55363.74	3.1670	3.1671	-0.1486	26.86	0.87	-0.750			
0.8655	55391.67	3.1640	3.1640	-0.1476	26.87	0.88	-0.750			
0.8659	55419.86	3.1610	3.1609	-0.1471	26.87	0.88	-0.750			
0.8664	55448.04	3.1580	3.1580	-0.1460	26.88	0.89	-0.750			
0.8668	55476.08	3.1550	3.1550	-0.1456	26.88	0.89	-0.750			
0.8673	55504.09	3.1520	3.1520	-0.1441	26.89	0.90	-0.750			
0.8677	55531.98	3.1490	3.1490	-0.1430	26.89	0.90	-0.750			
0.8681	55559.07	3.1460	3.1460	-0.1417	26.90	0.91	-0.750			
0.8685	55586.13	3.1430	3.1430	-0.1402	26.90	0.91	-0.750			
0.8689	55612.77	3.1400	3.1399	-0.1389	26.91	0.92	-0.750			
0.8694	55639.15	3.1370	3.1370	-0.1379	26.91	0.92	-0.750			
0.8698	55665.75	3.1340	3.1341	-0.1369	26.92	0.93	-0.750			
0.8702	55691.93	3.1310	3.1310	-0.1358	26.92	0.93	-0.750			
0.8706	55717.97	3.1280	3.1280	-0.1352	26.93	0.94	-0.750			
0.8710	55743.97	3.1250	3.1250	-0.1338	26.93	0.94	-0.750			
0.8714	55769.47	3.1220	3.1219	-0.1323	26.94	0.95	-0.750			
0.8718	55794.66	3.1190	3.1190	-0.1314	26.94	0.95	-0.750			
0.8722	55819.84	3.1160	3.1161	-0.1304	26.95	0.96	-0.750			
0.8726	55844.69	3.1130	3.1130	-0.1291	26.95	0.96	-0.750			
0.8730	55869.40	3.1100	3.1099	-0.1284	26.96	0.97	-0.750			
0.8733	55893.95	3.1070	3.1071	-0.1273	26.96	0.97	-0.750			
0.8737	55918.10	3.1040	3.1039	-0.1262	26.97	0.98	-0.750			
0.8741	55942.46	3.1010	3.1010	-0.1258	26.97	0.98	-0.750			
0.8745	55966.57	3.0980	3.0980	-0.1246	26.97	0.98	-0.750			
0.8748	55990.28	3.0950	3.0950	-0.1233	26.98	0.99	-0.750			
0.8752	56013.67	3.0920	3.0921	-0.1230	26.98	0.99	-0.750			
0.8756	56037.24	3.0890	3.0890	-0.1225	26.99	1.00	-0.750			
0.8759	56060.72	3.0860	3.0860	-0.1219	26.99	1.00	-0.750			
0.8763	56083.91	3.0830	3.0829	-0.1213	27.00	1.01	-0.750			
0.8767	56107.33	3.0800	3.0800	-0.1201	27.00	1.01	-0.750			
0.8770	56130.43	3.0770	3.0771	-0.1194	27.01	1.02	-0.750			
0.8774	56153.25	3.0740	3.0743	-0.1186	27.01	1.02	-0.750			
0.8778	56176.23	3.0710	3.0709	-0.1179	27.02	1.03	-0.750			
0.8781	56198.65	3.0680	3.0681	-0.1170	27.02	1.03	-0.750			
0.8784	56220.69	3.0650	3.0649	-0.1158	27.03	1.04	-0.750			
0.8788	56242.85	3.0620	3.0619	-0.1150	27.03	1.04	-0.750			
0.8791	56264.87	3.0590	3.0591	-0.1144	27.04	1.05	-0.750			
0.8795	56287.06	3.0560	3.0559	-0.1136	27.04	1.05	-0.750			
0.8798	56308.75	3.0530	3.0530	-0.1123	27.05	1.06	-0.750			
0.8802	56329.77	3.0500	3.0503	-0.1120	27.06	1.07	-0.750			
0.8805	56351.25	3.0470	3.0469	-0.1118	27.06	1.07	-0.750			
0.8808	56372.61	3.0440	3.0439	-0.1111	27.07	1.08	-0.750			
0.8812	56393.93	3.0410	3.0409	-0.1110	27.07	1.08	-0.750			
0.8815	56415.38	3.0380	3.0379	-0.1103	27.08	1.09	-0.750			
0.8818	56436.61	3.0350	3.0351	-0.1100	27.08	1.09	-0.750			
0.8822	56457.66	3.0320	3.0322	-0.1095	27.09	1.10	-0.750			
0.8825	56478.99	3.0290	3.0289	-0.1091	27.09	1.10	-0.750			
0.8828	56499.85	3.0260	3.0259	-0.1080	27.10	1.11	-0.750			
0.8831	56520.27	3.0230	3.0230	-0.1068	27.10	1.11	-0.750			
0.8834	56540.74	3.0200	3.0202	-0.1059	27.11	1.12	-0.750			
0.8838	56561.11	3.0170	3.0170	-0.1052	27.12	1.13	-0.750			
0.8841	56581.18	3.0140	3.0140	-0.1043	27.12	1.13	-0.750			
0.8844	56601.20	3.0110	3.0110	-0.1034	27.13	1.14	-0.750			
0.8847	56620.70	3.0080	3.0080	-0.1026	27.13	1.14	-0.751			
0.8850	56640.36	3.0050	3.0050	-0.1022	27.14	1.15	-0.751			
0.8853	56659.95	3.0020	3.0020	-0.1016	27.14	1.15	-0.751			
