Ah_balance (normalized)	Ah_balance (mAh)	Voltage - fit (V)	Voltage -  interpolate (V)	dQ/dV (1/V)	Temperature (°C)	Temperature - diff (°C)	Current (C)	R_DC 0ms (mOhm)	R_DC 50ms (mOhm)	R_DC 50 ms PEC (mOhm)
0.0003	22.20	4.1620	4.1620	-0.1403	25.77	0.02	-0.750			
0.0008	53.05	4.1590	4.1590	-0.1792	25.77	0.02	-0.750			
0.0014	90.23	4.1560	4.1560	-0.2185	25.76	0.01	-0.750			
0.0021	136.62	4.1530	4.1531	-0.2580	25.76	0.01	-0.750			
0.0030	189.97	4.1500	4.1499	-0.2971	25.76	0.01	-0.750			
0.0039	251.58	4.1470	4.1470	-0.3324	25.76	0.01	-0.750			
0.0050	319.36	4.1440	4.1441	-0.3676	25.76	0.01	-0.750			
0.0061	393.45	4.1410	4.1410	-0.4011	25.75	0.00	-0.750			
0.0074	474.60	4.1380	4.1381	-0.4315	25.75	-0.00	-0.750			
0.0088	560.24	4.1350	4.1350	-0.4588	25.75	-0.00	-0.750			
0.0102	651.84	4.1320	4.1321	-0.4869	25.74	-0.01	-0.750			
0.0117	748.37	4.1290	4.1290	-0.5131	25.74	-0.01	-0.750			
0.0133	850.22	4.1260	4.1260	-0.5368	25.74	-0.01	-0.750			
0.0149	955.75	4.1230	4.1230	-0.5544	25.73	-0.02	-0.750			
0.0166	1064.81	4.1200	4.1200	-0.5713	25.73	-0.02	-0.750			
0.0184	1176.41	4.1170	4.1170	-0.5875	25.72	-0.03	-0.750			
0.0202	1291.05	4.1140	4.1140	-0.5992	25.72	-0.03	-0.750			
0.0220	1406.32	4.1110	4.1109	-0.6140	25.71	-0.04	-0.750			
0.0238	1526.02	4.1080	4.1081	-0.6253	25.71	-0.04	-0.750			
0.0258	1648.52	4.1050	4.1050	-0.6379	25.71	-0.04	-0.750			
0.0277	1774.37	4.1020	4.1019	-0.6448	25.70	-0.05	-0.750			
0.0297	1898.21	4.0990	4.0990	-0.6498	25.70	-0.05	-0.750			
0.0316	2023.32	4.0960	4.0962	-0.6542	25.69	-0.06	-0.750			
0.0336	2149.55	4.0930	4.0928	-0.6567	25.69	-0.06	-0.750			
0.0355	2273.36	4.0900	4.0899	-0.6609	25.69	-0.06	-0.750			
0.0375	2401.70	4.0870	4.0871	-0.6705	25.69	-0.06	-0.750			
0.0395	2530.36	4.0840	4.0839	-0.6766	25.68	-0.07	-0.750			
0.0416	2664.70	4.0810	4.0809	-0.6872	25.68	-0.07	-0.750			
0.0437	2796.62	4.0780	4.0780	-0.6890	25.68	-0.07	-0.750			
0.0458	2929.92	4.0750	4.0749	-0.6935	25.68	-0.07	-0.750			
0.0479	3063.37	4.0720	4.0720	-0.6975	25.68	-0.07	-0.750			
0.0499	3194.85	4.0690	4.0689	-0.6971	25.68	-0.07	-0.750			
0.0520	3330.32	4.0660	4.0660	-0.7001	25.68	-0.07	-0.750			
0.0542	3466.13	4.0630	4.0630	-0.7046	25.68	-0.07	-0.750			
0.0563	3601.53	4.0600	4.0600	-0.7059	25.68	-0.07	-0.750			
0.0584	3737.73	4.0570	4.0570	-0.7106	25.68	-0.07	-0.750			
0.0605	3874.53	4.0540	4.0539	-0.7096	25.68	-0.07	-0.750			
0.0627	4010.36	4.0510	4.0509	-0.7142	25.68	-0.07	-0.750			
0.0648	4146.94	4.0480	4.0481	-0.7187	25.68	-0.07	-0.750			
0.0670	4287.02	4.0450	4.0450	-0.7169	25.68	-0.07	-0.750			
0.0691	4424.96	4.0420	4.0420	-0.7180	25.68	-0.07	-0.750			
0.0713	4562.40	4.0390	4.0390	-0.7223	25.68	-0.07	-0.750			
0.0734	4700.31	4.0360	4.0359	-0.7225	25.68	-0.07	-0.750			
0.0756	4840.63	4.0330	4.0329	-0.7286	25.68	-0.07	-0.750			
0.0778	4980.82	4.0300	4.0300	-0.7252	25.67	-0.08	-0.750			
0.0800	5121.67	4.0270	4.0270	-0.7286	25.67	-0.08	-0.750			
0.0822	5261.93	4.0240	4.0244	-0.7340	25.67	-0.08	-0.750			
0.0844	5400.25	4.0210	4.0209	-0.7345	25.67	-0.08	-0.750			
0.0866	5540.00	4.0180	4.0180	-0.7441	25.67	-0.08	-0.750			
0.0888	5685.01	4.0150	4.0149	-0.7444	25.66	-0.09	-0.750			
0.0911	5832.41	4.0120	4.0120	-0.7535	25.66	-0.09	-0.750			
0.0934	5976.59	4.0090	4.0090	-0.7479	25.66	-0.09	-0.750			
0.0956	6120.80	4.0060	4.0059	-0.7415	25.66	-0.09	-0.750			
0.0978	6260.68	4.0030	4.0030	-0.7399	25.67	-0.08	-0.750			
0.1000	6398.81	4.0000	3.9999	-0.7384	25.67	-0.08	-0.750			
0.1022	6540.96	3.9970	3.9971	-0.7411	25.67	-0.08	-0.750			
0.1044	6683.99	3.9940	3.9940	-0.7619	25.68	-0.07	-0.750			
0.1067	6831.04	3.9910	3.9911	-0.7723	25.68	-0.07	-0.750			
0.1091	6982.08	3.9880	3.9878	-0.7787	25.68	-0.07	-0.750			
0.1115	7134.01	3.9850	3.9851	-0.7859	25.68	-0.07	-0.750			
0.1138	7285.33	3.9820	3.9821	-0.7828	25.68	-0.07	-0.750			
0.1162	7436.04	3.9790	3.9790	-0.7794	25.68	-0.07	-0.750			
0.1185	7586.68	3.9760	3.9759	-0.7759	25.68	-0.07	-0.750			
0.1208	7731.78	3.9730	3.9730	-0.7672	25.68	-0.07	-0.750			
0.1231	7879.33	3.9700	3.9700	-0.7679	25.69	-0.06	-0.750			
0.1254	8026.26	3.9670	3.9669	-0.7695	25.69	-0.06	-0.750			
0.1277	8172.67	3.9640	3.9641	-0.7706	25.69	-0.06	-0.750			
0.1300	8321.39	3.9610	3.9609	-0.7749	25.70	-0.05	-0.750			
0.1324	8471.08	3.9580	3.9581	-0.7776	25.70	-0.05	-0.750			
0.1347	8621.00	3.9550	3.9550	-0.7807	25.70	-0.05	-0.750			
0.1370	8770.48	3.9520	3.9521	-0.7861	25.70	-0.05	-0.750			
0.1394	8922.82	3.9490	3.9489	-0.7872	25.71	-0.04	-0.750			
0.1418	9073.93	3.9460	3.9460	-0.7856	25.71	-0.04	-0.750			
0.1442	9225.64	3.9430	3.9431	-0.7834	25.71	-0.04	-0.750			
0.1465	9375.66	3.9400	3.9400	-0.7856	25.71	-0.04	-0.750			
0.1488	9524.94	3.9370	3.9370	-0.7912	25.72	-0.03	-0.750			
0.1512	9675.61	3.9340	3.9340	-0.7910	25.72	-0.03	-0.750			
0.1536	9827.47	3.9310	3.9310	-0.7971	25.72	-0.03	-0.750			
0.1560	9983.35	3.9280	3.9280	-0.8038	25.73	-0.02	-0.750			
0.1584	10138.99	3.9250	3.9251	-0.8028	25.73	-0.02	-0.750			
0.1608	10293.99	3.9220	3.9220	-0.8070	25.74	-0.01	-0.750			
0.1632	10447.73	3.9190	3.9189	-0.8049	25.74	-0.01	-0.750			
0.1656	10600.38	3.9160	3.9160	-0.8031	25.74	-0.01	-0.750			
0.1681	10756.26	3.9130	3.9130	-0.8079	25.75	-0.00	-0.750			
0.1705	10911.93	3.9100	3.9100	-0.8084	25.75	0.00	-0.750			
0.1729	11067.48	3.9070	3.9070	-0.8116	25.75	0.00	-0.750			
0.1754	11223.89	3.9040	3.9040	-0.8165	25.75	0.00	-0.750			
0.1778	11380.77	3.9010	3.9010	-0.8157	25.76	0.01	-0.750			
0.1803	11537.30	3.8980	3.8980	-0.8183	25.76	0.01	-0.750			
0.1827	11695.14	3.8950	3.8951	-0.8173	25.76	0.01	-0.750			
0.1852	11852.43	3.8920	3.8920	-0.8164	25.76	0.01	-0.750			
0.1876	12008.49	3.8890	3.8890	-0.8208	25.76	0.01	-0.750			
0.1901	12165.56	3.8860	3.8859	-0.8206	25.77	0.02	-0.750			
0.1926	12324.32	3.8830	3.8829	-0.8262	25.77	0.02	-0.750			
0.1951	12483.81	3.8800	3.8801	-0.8233	25.77	0.02	-0.750			
0.1975	12642.30	3.8770	3.8770	-0.8214	25.77	0.02	-0.750			
0.2000	12799.95	3.8740	3.8740	-0.8258	25.78	0.03	-0.750			
0.2025	12957.58	3.8710	3.8710	-0.8231	25.78	0.03	-0.750			
0.2049	13115.37	3.8680	3.8679	-0.8251	25.79	0.04	-0.750			
0.2074	13273.31	3.8650	3.8651	-0.8286	25.79	0.04	-0.750			
0.2099	13432.69	3.8620	3.8620	-0.8312	25.79	0.04	-0.750			
0.2124	13594.15	3.8590	3.8589	-0.8339	25.79	0.04	-0.750			
0.2149	13755.04	3.8560	3.8560	-0.8321	25.80	0.05	-0.750			
0.2174	13914.98	3.8530	3.8530	-0.8289	25.80	0.05	-0.750			
0.2199	14073.95	3.8500	3.8501	-0.8304	25.80	0.05	-0.750			
0.2224	14232.27	3.8470	3.8469	-0.8266	25.80	0.05	-0.750			
0.2248	14390.18	3.8440	3.8440	-0.8308	25.81	0.06	-0.750			
0.2274	14550.80	3.8410	3.8410	-0.8302	25.81	0.06	-0.750			
0.2299	14712.23	3.8380	3.8380	-0.8333	25.82	0.07	-0.750			
0.2324	14871.64	3.8350	3.8352	-0.8308	25.82	0.07	-0.750			
0.2349	15030.95	3.8320	3.8320	-0.8306	25.82	0.07	-0.750			
0.2373	15188.84	3.8290	3.8290	-0.8327	25.83	0.08	-0.750			
0.2398	15348.40	3.8260	3.8260	-0.8304	25.83	0.08	-0.750			
0.2423	15509.38	3.8230	3.8230	-0.8339	25.84	0.09	-0.750			
0.2448	15669.61	3.8200	3.8202	-0.8341	25.84	0.09	-0.750			
0.2474	15830.87	3.8170	3.8169	-0.8317	25.84	0.09	-0.750			
0.2498	15989.85	3.8140	3.8140	-0.8284	25.84	0.09	-0.750			
0.2523	16146.86	3.8110	3.8111	-0.8265	25.85	0.10	-0.750			
0.2548	16306.74	3.8080	3.8080	-0.8260	25.85	0.10	-0.750			
0.2573	16465.78	3.8050	3.8050	-0.8241	25.85	0.10	-0.750			
0.2597	16623.58	3.8020	3.8020	-0.8198	25.85	0.10	-0.750			
0.2622	16779.80	3.7990	3.7991	-0.8222	25.86	0.11	-0.750			
0.2647	16938.59	3.7960	3.7960	-0.8226	25.86	0.11	-0.750			
0.2671	17096.50	3.7930	3.7929	-0.8177	25.87	0.12	-0.750			
0.2696	17252.99	3.7900	3.7902	-0.8153	25.87	0.12	-0.750			
0.2720	17410.84	3.7870	3.7870	-0.8163	25.87	0.12	-0.750			
0.2745	17566.58	3.7840	3.7840	-0.8133	25.88	0.13	-0.750			
0.2769	17722.06	3.7810	3.7810	-0.8091	25.88	0.13	-0.750			
0.2793	17877.90	3.7780	3.7780	-0.8051	25.89	0.14	-0.750			
0.2818	18032.53	3.7750	3.7751	-0.7991	25.89	0.14	-0.750			
0.2841	18185.06	3.7720	3.7720	-0.7989	25.89	0.14	-0.750			
0.2865	18337.08	3.7690	3.7689	-0.7933	25.90	0.15	-0.750			
0.2889	18487.91	3.7660	3.7660	-0.7905	25.90	0.15	-0.750			
0.2912	18639.04	3.7630	3.7630	-0.7916	25.90	0.15	-0.750			
0.2936	18791.90	3.7600	3.7600	-0.7949	25.91	0.16	-0.750			
0.2960	18946.09	3.7570	3.7570	-0.7927	25.91	0.16	-0.750			
0.2984	19097.34	3.7540	3.7540	-0.7958	25.92	0.17	-0.750			
0.3008	19249.63	3.7510	3.7510	-0.7953	25.92	0.17	-0.750			
0.3032	19403.42	3.7480	3.7480	-0.7952	25.92	0.17	-0.750			
0.3055	19554.85	3.7450	3.7450	-0.7977	25.93	0.18	-0.750			
0.3079	19707.34	3.7420	3.7421	-0.8005	25.93	0.18	-0.750			
0.3103	19861.02	3.7390	3.7390	-0.8063	25.93	0.18	-0.750			
0.3128	20016.31	3.7360	3.7359	-0.8154	25.93	0.18	-0.750			
0.3152	20170.76	3.7330	3.7331	-0.8226	25.94	0.19	-0.750			
0.3177	20331.20	3.7300	3.7299	-0.8387	25.94	0.19	-0.750			
0.3202	20495.31	3.7270	3.7270	-0.8512	25.94	0.19	-0.750			
0.3228	20658.87	3.7240	3.7240	-0.8604	25.94	0.19	-0.750			
0.3254	20825.36	3.7210	3.7210	-0.8717	25.94	0.19	-0.750			
0.3280	20994.45	3.7180	3.7180	-0.8788	25.94	0.19	-0.750			
0.3307	21162.82	3.7150	3.7149	-0.8864	25.94	0.19	-0.750			
0.3333	21332.88	3.7120	3.7121	-0.8980	25.94	0.19	-0.750			
0.3360	21506.02	3.7090	3.7090	-0.9195	25.94	0.19	-0.750			
0.3388	21684.39	3.7060	3.7059	-0.9372	25.95	0.20	-0.750			
0.3417	21865.70	3.7030	3.7029	-0.9544	25.95	0.20	-0.750			
0.3446	22051.78	3.7000	3.7004	-0.9747	25.95	0.20	-0.750			
0.3475	22242.39	3.6970	3.6969	-0.9957	25.95	0.20	-0.750			
0.3505	22434.33	3.6940	3.6940	-1.0114	25.94	0.19	-0.750			
0.3536	22628.63	3.6910	3.6910	-1.0233	25.94	0.19	-0.750			
0.3567	22828.45	3.6880	3.6880	-1.0470	25.93	0.18	-0.750			
0.3598	23029.19	3.6850	3.6850	-1.0759	25.93	0.18	-0.750			
0.3631	23238.49	3.6820	3.6819	-1.0965	25.93	0.18	-0.750			
0.3664	23451.33	3.6790	3.6789	-1.1207	25.93	0.18	-0.750			
0.3698	23669.44	3.6760	3.6763	-1.1518	25.93	0.18	-0.750			
0.3734	23895.43	3.6730	3.6730	-1.1749	25.92	0.17	-0.750			
0.3769	24123.91	3.6700	3.6699	-1.1961	25.92	0.17	-0.750			
0.3805	24353.00	3.6670	3.6669	-1.2166	25.91	0.16	-0.750			
0.3842	24588.78	3.6640	3.6640	-1.2438	25.91	0.16	-0.750			
0.3880	24829.77	3.6610	3.6609	-1.2701	25.90	0.15	-0.750			
0.3918	25072.84	3.6580	3.6580	-1.2955	25.89	0.14	-0.750			
0.3957	25322.58	3.6550	3.6552	-1.3220	25.89	0.14	-0.750			
0.3998	25586.30	3.6520	3.6520	-1.3566	25.88	0.13	-0.750			
0.4039	25848.22	3.6490	3.6490	-1.3789	25.88	0.13	-0.750			
0.4080	26114.18	3.6460	3.6461	-1.4130	25.87	0.12	-0.750			
0.4123	26387.28	3.6430	3.6430	-1.4556	25.86	0.11	-0.750			
0.4167	26671.19	3.6400	3.6399	-1.4818	25.85	0.10	-0.750			
0.4212	26958.34	3.6370	3.6371	-1.5153	25.85	0.10	-0.750			
0.4258	27252.91	3.6340	3.6340	-1.5492	25.85	0.10	-0.750			
0.4306	27555.51	3.6310	3.6310	-1.5698	25.84	0.09	-0.750			
0.4353	27858.73	3.6280	3.6279	-1.5926	25.83	0.08	-0.750			
0.4402	28170.58	3.6250	3.6249	-1.6279	25.82	0.07	-0.750			
0.4451	28483.38	3.6220	3.6221	-1.6539	25.81	0.06	-0.750			
0.4501	28806.81	3.6190	3.6189	-1.6926	25.81	0.06	-0.750	0.389	0.509	
0.4552	29130.15	3.6160	3.6159	-1.7245	25.80	0.05	-0.750			
0.4604	29467.72	3.6130	3.6128	-1.7645	25.80	0.05	-0.750			
0.4657	29806.56	3.6100	3.6102	-1.7953	25.79	0.04	-0.750			
0.4713	30160.65	3.6070	3.6070	-1.8232	25.79	0.04	-0.750			
0.4767	30510.27	3.6040	3.6041	-1.8595	25.78	0.03	-0.750			
0.4823	30868.59	3.6010	3.6010	-1.8970	25.77	0.02	-0.750			
0.4881	31240.90	3.5980	3.5977	-1.9294	25.77	0.02	-0.750			
0.4939	31610.46	3.5950	3.5950	-1.9698	25.77	0.02	-0.750			
0.4999	31991.94	3.5920	3.5920	-2.0215	25.77	0.02	-0.750			
0.5061	32388.35	3.5890	3.5889	-2.0476	25.76	0.01	-0.750			
0.5122	32782.73	3.5860	3.5860	-2.0910	25.76	0.01	-0.750			
0.5186	33187.77	3.5830	3.5831	-2.1201	25.75	0.00	-0.750			
0.5250	33602.35	3.5800	3.5798	-2.1448	25.74	-0.01	-0.750			
0.5316	34021.33	3.5770	3.5770	-2.1654	25.73	-0.02	-0.750			
0.5380	34433.76	3.5740	3.5741	-2.1839	25.73	-0.02	-0.750			
0.5446	34854.14	3.5710	3.5709	-2.2126	25.73	-0.02	-0.750			
0.5513	35281.10	3.5680	3.5680	-2.2258	25.73	-0.02	-0.750			
0.5580	35710.86	3.5650	3.5650	-2.2519	25.73	-0.02	-0.750			
0.5649	36151.82	3.5620	3.5620	-2.2794	25.73	-0.02	-0.750			
0.5718	36592.24	3.5590	3.5590	-2.2917	25.73	-0.02	-0.750			
0.5787	37037.95	3.5560	3.5561	-2.2966	25.72	-0.03	-0.750			
0.5856	37476.85	3.5530	3.5528	-2.2885	25.72	-0.03	-0.750			
0.5925	37919.53	3.5500	3.5499	-2.2737	25.72	-0.03	-0.750			
0.5993	38358.04	3.5470	3.5471	-2.2590	25.73	-0.02	-0.750			
0.6062	38793.80	3.5440	3.5441	-2.2338	25.74	-0.01	-0.750			
0.6127	39212.88	3.5410	3.5410	-2.1983	25.74	-0.01	-0.750			
0.6193	39634.48	3.5380	3.5380	-2.1688	25.75	-0.00	-0.750			
0.6258	40048.15	3.5350	3.5351	-2.1376	25.75	0.00	-0.750			
0.6322	40460.72	3.5320	3.5320	-2.1110	25.76	0.01	-0.750			
0.6385	40861.12	3.5290	3.5288	-2.0723	25.77	0.02	-0.750			
0.6446	41256.74	3.5260	3.5261	-2.0321	25.77	0.02	-0.750			
0.6507	41644.41	3.5230	3.5231	-1.9993	25.78	0.03	-0.750			
0.6566	42024.13	3.5200	3.5199	-1.9349	25.79	0.04	-0.750			
0.6624	42390.56	3.5170	3.5172	-1.8890	25.80	0.05	-0.750			
0.6681	42755.67	3.5140	3.5139	-1.8309	25.81	0.06	-0.750			
0.6734	43098.40	3.5110	3.5111	-1.7769	25.82	0.07	-0.750			
0.6786	43430.57	3.5080	3.5081	-1.7051	25.83	0.08	-0.750			
0.6836	43751.89	3.5050	3.5051	-1.6479	25.84	0.09	-0.750			
0.6885	44063.22	3.5020	3.5019	-1.5952	25.86	0.11	-0.750			
0.6932	44366.58	3.4990	3.4989	-1.5486	25.87	0.12	-0.750			
0.6977	44654.87	3.4960	3.4959	-1.4908	25.89	0.14	-0.750			
0.7022	44938.63	3.4930	3.4930	-1.4461	25.91	0.16	-0.750			
0.7064	45206.42	3.4900	3.4901	-1.3946	25.93	0.18	-0.750			
0.7105	45473.36	3.4870	3.4869	-1.3553	25.94	0.19	-0.750			
0.7145	45730.73	3.4840	3.4839	-1.3114	25.95	0.20	-0.750			
0.7184	45978.11	3.4810	3.4811	-1.2642	25.96	0.21	-0.750			
0.7221	46216.77	3.4780	3.4780	-1.2271	25.97	0.22	-0.750			
0.7258	46449.57	3.4750	3.4749	-1.1836	25.98	0.23	-0.750			
0.7293	46672.12	3.4720	3.4719	-1.1414	26.00	0.25	-0.750			
0.7326	46883.85	3.4690	3.4692	-1.0994	26.01	0.26	-0.750			
0.7358	47094.36	3.4660	3.4660	-1.0662	26.03	0.28	-0.750			
0.7390	47294.35	3.4630	3.4629	-1.0323	26.04	0.29	-0.750			
0.7420	47487.46	3.4600	3.4600	-0.9986	26.06	0.31	-0.750			
0.7449	47675.60	3.4570	3.4571	-0.9739	26.07	0.32	-0.750			
0.7478	47859.50	3.4540	3.4541	-0.9530	26.08	0.33	-0.750			
0.7506	48040.10	3.4510	3.4509	-0.9293	26.09	0.34	-0.750			
0.7534	48215.90	3.4480	3.4480	-0.9129	26.10	0.35	-0.750			
0.7561	48389.20	3.4450	3.4451	-0.8984	26.11	0.36	-0.750			
0.7587	48556.60	3.4420	3.4420	-0.8925	26.12	0.37	-0.750			
0.7613	48725.69	3.4390	3.4390	-0.8904	26.12	0.37	-0.750			
0.7640	48894.50	3.4360	3.4360	-0.8999	26.13	0.38	-0.750			
0.7666	49065.00	3.4330	3.4329	-0.9133	26.14	0.39	-0.750			
0.7694	49243.07	3.4300	3.4300	-0.9379	26.15	0.40	-0.750			
0.7723	49424.54	3.4270	3.4270	-0.9654	26.16	0.41	-0.750			
0.7752	49615.08	3.4240	3.4239	-0.9891	26.17	0.42	-0.750			
0.7783	49808.77	3.4210	3.4209	-1.0030	26.18	0.43	-0.750			
0.7813	50004.93	3.4180	3.4180	-1.0165	26.19	0.44	-0.750			
0.7844	50201.40	3.4150	3.4150	-1.0236	26.19	0.44	-0.750			
0.7875	50401.51	3.4120	3.4120	-1.0200	26.20	0.45	-0.750			
0.7906	50599.16	3.4090	3.4089	-1.0002	26.20	0.45	-0.750			
0.7936	50789.47	3.4060	3.4061	-0.9747	26.21	0.46	-0.750			
0.7965	50978.77	3.4030	3.4031	-0.9518	26.22	0.47	-0.750			
0.7993	51157.75	3.4000	3.3999	-0.9144	26.23	0.48	-0.750			
0.8020	51327.77	3.3970	3.3970	-0.8807	26.23	0.48	-0.750			
0.8046	51491.66	3.3940	3.3940	-0.8481	26.24	0.49	-0.750			
0.8071	51654.12	3.3910	3.3912	-0.8215	26.25	0.50	-0.750			
0.8095	51808.24	3.3880	3.3880	-0.7942	26.26	0.51	-0.750			
0.8118	51957.57	3.3850	3.3851	-0.7662	26.27	0.52	-0.750			
0.8141	52103.19	3.3820	3.3819	-0.7368	26.27	0.52	-0.750			
0.8163	52241.76	3.3790	3.3789	-0.7073	26.28	0.53	-0.750			
0.8183	52374.09	3.3760	3.3760	-0.6767	26.29	0.54	-0.750			
0.8203	52501.44	3.3730	3.3731	-0.6499	26.29	0.54	-0.750			
0.8222	52622.88	3.3700	3.3699	-0.6277	26.30	0.55	-0.750			
0.8240	52738.18	3.3670	3.3670	-0.6005	26.30	0.55	-0.750			
0.8258	52850.74	3.3640	3.3640	-0.5825	26.31	0.56	-0.750			
0.8275	52962.77	3.3610	3.3610	-0.5657	26.32	0.57	-0.750			
0.8292	53071.02	3.3580	3.3579	-0.5431	26.32	0.57	-0.750			
0.8308	53173.37	3.3550	3.3550	-0.5217	26.33	0.58	-0.750			
0.8324	53270.87	3.3520	3.3521	-0.5005	26.33	0.58	-0.750			
0.8338	53363.96	3.3490	3.3490	-0.4786	26.34	0.59	-0.750			
0.8352	53453.20	3.3460	3.3459	-0.4601	26.34	0.59	-0.750			
0.8365	53539.16	3.3430	3.3430	-0.4436	26.34	0.59	-0.750			
0.8379	53623.83	3.3400	3.3400	-0.4297	26.35	0.60	-0.750			
0.8391	53704.50	3.3370	3.3370	-0.4143	26.35	0.60	-0.750			
0.8403	53781.74	3.3340	3.3340	-0.3998	26.36	0.61	-0.750			
0.8415	53857.34	3.3310	3.3310	-0.3868	26.36	0.61	-0.750			
0.8427	53930.13	3.3280	3.3279	-0.3744	26.36	0.61	-0.750			
0.8438	54000.49	3.3250	3.3250	-0.3636	26.37	0.62	-0.750			
0.8448	54069.48	3.3220	3.3220	-0.3514	26.37	0.62	-0.750			
0.8459	54136.07	3.3190	3.3190	-0.3402	26.38	0.63	-0.750			
0.8469	54199.91	3.3160	3.3160	-0.3287	26.38	0.63	-0.750			
0.8478	54262.01	3.3130	3.3130	-0.3175	26.39	0.64	-0.750			
0.8488	54321.69	3.3100	3.3099	-0.3087	26.39	0.64	-0.750			
0.8497	54379.59	3.3070	3.3070	-0.2997	26.40	0.65	-0.750			
0.8506	54435.89	3.3040	3.3040	-0.2905	26.40	0.65	-0.750			
0.8514	54491.27	3.3010	3.3010	-0.2839	26.41	0.66	-0.750			
0.8523	54545.03	3.2980	3.2980	-0.2762	26.41	0.66	-0.750			
0.8531	54597.41	3.2950	3.2950	-0.2685	26.42	0.67	-0.750			
0.8539	54648.22	3.2920	3.2920	-0.2623	26.42	0.67	-0.750			
0.8546	54697.23	3.2890	3.2890	-0.2556	26.43	0.68	-0.750			
0.8554	54745.30	3.2860	3.2861	-0.2497	26.43	0.68	-0.750			
0.8561	54792.79	3.2830	3.2829	-0.2453	26.43	0.68	-0.750			
0.8569	54839.69	3.2800	3.2800	-0.2401	26.44	0.69	-0.750			
0.8576	54885.32	3.2770	3.2770	-0.2343	26.44	0.69	-0.750			
0.8583	54930.29	3.2740	3.2740	-0.2292	26.45	0.70	-0.750			
0.8590	54974.04	3.2710	3.2710	-0.2232	26.45	0.70	-0.750			
0.8596	55015.34	3.2680	3.2680	-0.2185	26.46	0.71	-0.750			
0.8603	55056.52	3.2650	3.2651	-0.2141	26.46	0.71	-0.750			
0.8609	55096.88	3.2620	3.2619	-0.2102	26.46	0.71	-0.750			
0.8615	55137.04	3.2590	3.2589	-0.2076	26.47	0.72	-0.750			
0.8621	55176.64	3.2560	3.2561	-0.2048	26.47	0.72	-0.750			
0.8628	55216.04	3.2530	3.2530	-0.2019	26.48	0.73	-0.750			
0.8634	55254.87	3.2500	3.2499	-0.1990	26.48	0.73	-0.750			
0.8639	55292.66	3.2470	3.2470	-0.1946	26.48	0.73	-0.750			
0.8645	55329.09	3.2440	3.2440	-0.1911	26.49	0.74	-0.750			
0.8651	55365.37	3.2410	3.2410	-0.1887	26.49	0.74	-0.750			
0.8656	55401.35	3.2380	3.2380	-0.1860	26.49	0.74	-0.750			
0.8662	55436.59	3.2350	3.2349	-0.1830	26.50	0.75	-0.750			
0.8667	55471.31	3.2320	3.2320	-0.1809	26.50	0.75	-0.750			
0.8673	55506.07	3.2290	3.2291	-0.1789	26.51	0.76	-0.750			
0.8678	55540.20	3.2260	3.2259	-0.1766	26.51	0.76	-0.750			
0.8683	55574.10	3.2230	3.2230	-0.1742	26.51	0.76	-0.750			
0.8689	55607.17	3.2200	3.2200	-0.1711	26.52	0.77	-0.750			
0.8694	55639.78	3.2170	3.2169	-0.1685	26.52	0.77	-0.750			
0.8699	55671.84	3.2140	3.2140	-0.1662	26.52	0.77	-0.750			
0.8704	55703.41	3.2110	3.2110	-0.1648	26.53	0.78	-0.750			
0.8709	55734.47	3.2080	3.2079	-0.1628	26.53	0.78	-0.750			
0.8713	55765.51	3.2050	3.2051	-0.1616	26.54	0.79	-0.750			
0.8718	55796.55	3.2020	3.2019	-0.1601	26.55	0.80	-0.750			
0.8723	55827.29	3.1990	3.1990	-0.1585	26.55	0.80	-0.750			
0.8728	55857.89	3.1960	3.1960	-0.1569	26.56	0.81	-0.750			
0.8732	55887.77	3.1930	3.1931	-0.1544	26.56	0.81	-0.750			
0.8737	55917.25	3.1900	3.1900	-0.1526	26.57	0.82	-0.750			
0.8742	55945.96	3.1870	3.1870	-0.1509	26.57	0.82	-0.750			
0.8746	55974.48	3.1840	3.1842	-0.1497	26.58	0.83	-0.750			
0.8750	56003.19	3.1810	3.1808	-0.1493	26.58	0.83	-0.750			
0.8755	56031.78	3.1780	3.1780	-0.1479	26.59	0.84	-0.750			
0.8759	56060.40	3.1750	3.1750	-0.1463	26.59	0.84	-0.750			
0.8764	56088.48	3.1720	3.1720	-0.1455	26.60	0.85	-0.750			
0.8768	56116.22	3.1690	3.1691	-0.1435	26.60	0.85	-0.750			
0.8772	56143.48	3.1660	3.1660	-0.1425	26.61	0.86	-0.750			
0.8777	56170.47	3.1630	3.1629	-0.1409	26.61	0.86	-0.750			
0.8781	56197.12	3.1600	3.1600	-0.1395	26.62	0.87	-0.750			
0.8785	56224.09	3.1570	3.1570	-0.1381	26.62	0.87	-0.750			
0.8789	56250.54	3.1540	3.1541	-0.1377	26.63	0.88	-0.750			
0.8793	56277.08	3.1510	3.1510	-0.1369	26.63	0.88	-0.750			
0.8797	56303.09	3.1480	3.1480	-0.1352	26.64	0.89	-0.750			
0.8801	56328.96	3.1450	3.1449	-0.1341	26.64	0.89	-0.750			
0.8805	56354.49	3.1420	3.1421	-0.1329	26.64	0.89	-0.750			
0.8809	56380.14	3.1390	3.1389	-0.1319	26.65	0.90	-0.750			
0.8813	56405.32	3.1360	3.1361	-0.1304	26.65	0.90	-0.750			
0.8817	56430.33	3.1330	3.1330	-0.1296	26.66	0.91	-0.750			
0.8821	56454.73	3.1300	3.1300	-0.1280	26.66	0.91	-0.750			
0.8825	56479.25	3.1270	3.1270	-0.1273	26.67	0.92	-0.750			
0.8829	56503.55	3.1240	3.1239	-0.1267	26.67	0.92	-0.750			
0.8832	56527.70	3.1210	3.1211	-0.1260	26.68	0.93	-0.750			
0.8836	56552.05	3.1180	3.1179	-0.1251	26.68	0.93	-0.750			
0.8840	56576.20	3.1150	3.1149	-0.1247	26.69	0.94	-0.750			
0.8844	56599.88	3.1120	3.1120	-0.1238	26.69	0.94	-0.750			
0.8847	56623.52	3.1090	3.1091	-0.1227	26.70	0.95	-0.750			
0.8851	56646.99	3.1060	3.1060	-0.1218	26.70	0.95	-0.750			
0.8855	56670.33	3.1030	3.1029	-0.1206	26.71	0.96	-0.750			
0.8858	56693.38	3.1000	3.1000	-0.1196	26.71	0.96	-0.750			
0.8862	56716.12	3.0970	3.0970	-0.1184	26.71	0.96	-0.750			
0.8865	56738.77	3.0940	3.0941	-0.1175	26.72	0.97	-0.750			
0.8869	56761.24	3.0910	3.0910	-0.1174	26.72	0.97	-0.750			
0.8872	56783.72	3.0880	3.0880	-0.1167	26.73	0.98	-0.750			
0.8876	56805.84	3.0850	3.0850	-0.1158	26.73	0.98	-0.750			
0.8879	56828.06	3.0820	3.0820	-0.1156	26.74	0.99	-0.750			
0.8883	56850.42	3.0790	3.0790	-0.1151	26.74	0.99	-0.750			
0.8886	56872.55	3.0760	3.0761	-0.1141	26.75	1.00	-0.750			
0.8890	56894.54	3.0730	3.0730	-0.1135	26.75	1.00	-0.750			
0.8893	56916.22	3.0700	3.0700	-0.1123	26.76	1.01	-0.750			
0.8896	56937.56	3.0670	3.0670	-0.1112	26.76	1.01	-0.750			
0.8900	56958.81	3.0640	3.0640	-0.1102	26.77	1.02	-0.750			
0.8903	56979.74	3.0610	3.0610	-0.1095	26.77	1.02	-0.750			
0.8906	57000.71	3.0580	3.0580	-0.1089	26.77	1.02	-0.750			
0.8910	57021.37	3.0550	3.0550	-0.1085	26.78	1.03	-0.750			
0.8913	57042.19	3.0520	3.0520	-0.1083	26.78	1.03	-0.750			
0.8916	57063.05	3.0490	3.0490	-0.1077	26.79	1.04	-0.750			
0.8919	57083.70	3.0460	3.0460	-0.1073	26.79	1.04	-0.750			
0.8923	57104.40	3.0430	3.0430	-0.1068	26.80	1.05	-0.750			
0.8926	57124.83	3.0400	3.0401	-0.1060	26.80	1.05	-0.750			
0.8929	57145.12	3.0370	3.0369	-0.1055	26.81	1.06	-0.750			
0.8932	57165.30	3.0340	3.0341	-0.1047	26.81	1.06	-0.750			
0.8935	57185.17	3.0310	3.0310	-0.1040	26.82	1.07	-0.750			
0.8938	57205.10	3.0280	3.0280	-0.1036	26.82	1.07	-0.750			
0.8941	57225.11	3.0250	3.0250	-0.1030	26.82	1.07	-0.750			
0.8945	57244.81	3.0220	3.0220	-0.1023	26.83	1.08	-0.750			
0.8948	57264.55	3.0190	3.0191	-0.1014	26.83	1.08	-0.750			
0.8951	57283.91	3.0160	3.0160	-0.1003	26.84	1.09	-0.750			
0.8954	57303.05	3.0130	3.0130	-0.0992	26.84	1.09	-0.750			
0.8957	57322.08	3.0100	3.0100	-0.0981	26.85	1.10	-0.750			
0.8959	57340.79	3.0070	3.0069	-0.0968	26.85	1.10	-0.751			
0.8962	57359.20	3.0040	3.0040	-0.0959	26.85	1.10	-0.751			
0.8965	57377.52	3.0010	3.0010	-0.0949	26.86	1.11	-0.751			
