Ah_balance (normalized)	Ah_balance (mAh)	Voltage - fit (V)	Voltage -  interpolate (V)	dQ/dV (1/V)	Temperature (°C)	Temperature - diff (°C)	Current (C)	R_DC 0ms (mOhm)	R_DC 50ms (mOhm)	R_DC 50 ms PEC (mOhm)
0.0557	3565.08	4.1970	4.1970	0.7329	26.69	0.70	0.750			
0.0579	3705.35	4.1940	4.1941	0.7360	26.68	0.69	0.750			
0.0601	3848.27	4.1910	4.1906	0.7453	26.68	0.69	0.750			
0.0624	3992.79	4.1880	4.1881	0.7488	26.68	0.69	0.750			
0.0646	4137.05	4.1850	4.1850	0.7508	26.67	0.68	0.750			
0.0669	4282.65	4.1820	4.1821	0.7546	26.67	0.68	0.750			
0.0692	4426.99	4.1790	4.1790	0.7521	26.67	0.68	0.750			
0.0714	4572.63	4.1760	4.1759	0.7562	26.66	0.67	0.750			
0.0737	4716.43	4.1730	4.1730	0.7573	26.66	0.67	0.750			
0.0760	4863.57	4.1700	4.1701	0.7585	26.66	0.67	0.750			
0.0783	5009.46	4.1670	4.1669	0.7575	26.66	0.67	0.750			
0.0805	5154.55	4.1640	4.1640	0.7581	26.66	0.67	0.750			
0.0828	5298.60	4.1610	4.1612	0.7593	26.66	0.67	0.750			
0.0851	5444.25	4.1580	4.1578	0.7627	26.66	0.67	0.750			
0.0874	5591.87	4.1550	4.1550	0.7636	26.66	0.67	0.750			
0.0897	5739.38	4.1520	4.1520	0.7638	26.66	0.67	0.750			
0.0920	5886.89	4.1490	4.1491	0.7708	26.66	0.67	0.750			
0.0943	6035.20	4.1460	4.1460	0.7683	26.66	0.67	0.750			
0.0966	6181.55	4.1430	4.1429	0.7673	26.66	0.67	0.750			
0.0989	6329.02	4.1400	4.1401	0.7673	26.66	0.67	0.750			
0.1012	6477.56	4.1370	4.1370	0.7670	26.65	0.66	0.750			
0.1035	6624.17	4.1340	4.1340	0.7703	26.65	0.66	0.750			
0.1058	6771.35	4.1310	4.1310	0.7726	26.65	0.66	0.750			
0.1081	6918.54	4.1280	4.1281	0.7745	26.64	0.65	0.750			
0.1105	7068.92	4.1250	4.1248	0.7801	26.64	0.65	0.750			
0.1128	7218.74	4.1220	4.1221	0.7816	26.64	0.65	0.750			
0.1152	7370.88	4.1190	4.1190	0.7836	26.64	0.65	0.750			
0.1175	7520.88	4.1160	4.1160	0.7843	26.64	0.65	0.750			
0.1199	7670.99	4.1130	4.1130	0.7821	26.64	0.65	0.750			
0.1222	7822.05	4.1100	4.1100	0.7843	26.64	0.65	0.750			
0.1246	7971.31	4.1070	4.1069	0.7869	26.64	0.65	0.750			
0.1270	8125.04	4.1040	4.1040	0.7823	26.64	0.65	0.750			
0.1293	8274.57	4.1010	4.1010	0.7865	26.64	0.65	0.750			
0.1317	8425.67	4.0980	4.0980	0.7866	26.64	0.65	0.750			
0.1340	8575.17	4.0950	4.0952	0.7861	26.64	0.65	0.750			
0.1364	8726.73	4.0920	4.0920	0.7882	26.64	0.65	0.750			
0.1387	8879.07	4.0890	4.0890	0.7889	26.64	0.65	0.750			
0.1411	9029.75	4.0860	4.0860	0.7921	26.64	0.65	0.750			
0.1435	9182.69	4.0830	4.0831	0.8042	26.64	0.65	0.750			
0.1459	9335.63	4.0800	4.0800	0.8026	26.64	0.65	0.750			
0.1483	9491.60	4.0770	4.0769	0.8085	26.64	0.65	0.750			
0.1508	9648.58	4.0740	4.0740	0.8074	26.64	0.65	0.750			
0.1532	9804.34	4.0710	4.0711	0.8116	26.64	0.65	0.750			
0.1556	9960.07	4.0680	4.0680	0.8105	26.64	0.65	0.750			
0.1580	10114.65	4.0650	4.0650	0.8093	26.64	0.65	0.750			
0.1604	10268.47	4.0620	4.0619	0.8078	26.64	0.65	0.750			
0.1629	10424.85	4.0590	4.0591	0.8148	26.64	0.65	0.750			
0.1654	10582.71	4.0560	4.0560	0.8141	26.64	0.65	0.750			
0.1678	10737.94	4.0530	4.0531	0.8201	26.64	0.65	0.750			
0.1702	10894.91	4.0500	4.0500	0.8194	26.64	0.65	0.750			
0.1727	11053.22	4.0470	4.0466	0.8245	26.64	0.65	0.750			
0.1752	11211.42	4.0440	4.0442	0.8273	26.64	0.65	0.750			
0.1777	11371.78	4.0410	4.0410	0.8243	26.64	0.65	0.750			
0.1802	11529.63	4.0380	4.0380	0.8333	26.63	0.64	0.750			
0.1826	11688.06	4.0350	4.0351	0.8314	26.63	0.64	0.750			
0.1851	11848.61	4.0320	4.0316	0.8388	26.63	0.64	0.750			
0.1877	12011.41	4.0290	4.0291	0.8474	26.63	0.64	0.750			
0.1902	12173.56	4.0260	4.0261	0.8515	26.63	0.64	0.750			
0.1928	12339.53	4.0230	4.0230	0.8576	26.64	0.65	0.750			
0.1954	12504.67	4.0200	4.0200	0.8522	26.64	0.65	0.750			
0.1979	12667.84	4.0170	4.0167	0.8549	26.64	0.65	0.750			
0.2005	12834.28	4.0140	4.0142	0.8533	26.64	0.65	0.750			
0.2031	12997.18	4.0110	4.0109	0.8544	26.64	0.65	0.750			
0.2056	13161.12	4.0080	4.0080	0.8555	26.64	0.65	0.750			
0.2082	13322.78	4.0050	4.0050	0.8507	26.64	0.65	0.750			
0.2107	13487.75	4.0020	4.0020	0.8630	26.64	0.65	0.750			
0.2134	13654.78	3.9990	3.9991	0.8664	26.64	0.65	0.750			
0.2160	13821.89	3.9960	3.9959	0.8645	26.64	0.65	0.750			
0.2186	13988.83	3.9930	3.9930	0.8705	26.64	0.65	0.750			
0.2212	14154.79	3.9900	3.9901	0.8679	26.64	0.65	0.750			
0.2238	14321.99	3.9870	3.9870	0.8710	26.64	0.65	0.750			
0.2264	14489.35	3.9840	3.9840	0.8686	26.64	0.65	0.750			
0.2290	14655.49	3.9810	3.9811	0.8698	26.64	0.65	0.750			
0.2316	14822.86	3.9780	3.9780	0.8751	26.64	0.65	0.750			
0.2342	14991.88	3.9750	3.9750	0.8822	26.64	0.65	0.750			
0.2369	15161.01	3.9720	3.9720	0.8801	26.64	0.65	0.750			
0.2396	15331.39	3.9690	3.9690	0.8806	26.64	0.65	0.750			
0.2422	15501.12	3.9660	3.9661	0.8796	26.64	0.65	0.750			
0.2448	15669.25	3.9630	3.9631	0.8844	26.64	0.65	0.750			
0.2475	15838.22	3.9600	3.9599	0.8830	26.64	0.65	0.750			
0.2501	16006.87	3.9570	3.9570	0.8819	26.64	0.65	0.750			
0.2528	16176.09	3.9540	3.9540	0.8865	26.64	0.65	0.750			
0.2555	16348.87	3.9510	3.9511	0.8923	26.64	0.65	0.750			
0.2581	16520.27	3.9480	3.9480	0.8924	26.64	0.65	0.750			
0.2608	16691.64	3.9450	3.9450	0.8927	26.64	0.65	0.750			
0.2635	16863.73	3.9420	3.9420	0.8855	26.64	0.65	0.750			
0.2661	17032.70	3.9390	3.9390	0.8913	26.64	0.65	0.750			
0.2688	17203.87	3.9360	3.9361	0.8900	26.63	0.64	0.750			
0.2715	17373.81	3.9330	3.9330	0.8903	26.63	0.64	0.750			
0.2741	17544.65	3.9300	3.9300	0.8957	26.63	0.64	0.750			
0.2768	17717.53	3.9270	3.9271	0.8897	26.62	0.63	0.750			
0.2795	17888.19	3.9240	3.9240	0.8909	26.62	0.63	0.750			
0.2822	18058.42	3.9210	3.9210	0.8913	26.61	0.62	0.750			
0.2848	18229.91	3.9180	3.9177	0.8981	26.61	0.62	0.750			
0.2875	18402.22	3.9150	3.9151	0.9022	26.61	0.62	0.750			
0.2902	18575.68	3.9120	3.9120	0.9052	26.61	0.62	0.750			
0.2930	18751.94	3.9090	3.9091	0.9124	26.60	0.61	0.750			
0.2958	18929.22	3.9060	3.9060	0.9227	26.60	0.61	0.750			
0.2985	19103.70	3.9030	3.9030	0.9208	26.60	0.61	0.750			
0.3013	19280.80	3.9000	3.9000	0.9239	26.59	0.60	0.750			
0.3040	19458.69	3.8970	3.8970	0.9264	26.58	0.59	0.750			
0.3068	19637.22	3.8940	3.8940	0.9310	26.58	0.59	0.750			
0.3096	19816.20	3.8910	3.8909	0.9376	26.57	0.58	0.750			
0.3125	19998.38	3.8880	3.8880	0.9314	26.56	0.57	0.750			
0.3152	20175.00	3.8850	3.8850	0.9347	26.56	0.57	0.750			
0.3180	20354.94	3.8820	3.8821	0.9415	26.55	0.56	0.750			
0.3209	20535.90	3.8790	3.8790	0.9471	26.54	0.55	0.750			
0.3237	20717.21	3.8760	3.8760	0.9528	26.54	0.55	0.750			
0.3266	20900.10	3.8730	3.8731	0.9555	26.53	0.54	0.750			
0.3294	21084.32	3.8700	3.8700	0.9610	26.52	0.53	0.750			
0.3324	21271.72	3.8670	3.8670	0.9666	26.52	0.53	0.750			
0.3353	21456.49	3.8640	3.8638	0.9652	26.51	0.52	0.750			
0.3382	21643.91	3.8610	3.8610	0.9604	26.50	0.51	0.750			
0.3411	21827.34	3.8580	3.8580	0.9764	26.50	0.51	0.750			
0.3440	22015.42	3.8550	3.8550	0.9790	26.49	0.50	0.750			
0.3469	22204.65	3.8520	3.8518	0.9753	26.48	0.49	0.750			
0.3499	22394.13	3.8490	3.8492	0.9711	26.47	0.48	0.750			
0.3528	22580.89	3.8460	3.8461	0.9735	26.46	0.47	0.750			
0.3557	22765.49	3.8430	3.8430	0.9776	26.45	0.46	0.750			
0.3586	22950.48	3.8400	3.8400	0.9697	26.45	0.46	0.750			
0.3616	23139.74	3.8370	3.8370	0.9695	26.44	0.45	0.750			
0.3645	23328.57	3.8340	3.8341	0.9830	26.43	0.44	0.750			
0.3675	23516.96	3.8310	3.8311	0.9923	26.43	0.44	0.750			
0.3704	23707.78	3.8280	3.8280	1.0009	26.42	0.43	0.750			
0.3734	23899.85	3.8250	3.8250	1.0001	26.42	0.43	0.750			
0.3764	24091.96	3.8220	3.8221	1.0078	26.41	0.42	0.750			
0.3795	24288.19	3.8190	3.8190	1.0184	26.39	0.40	0.750			
0.3826	24485.42	3.8160	3.8160	1.0239	26.38	0.39	0.750			
0.3857	24682.49	3.8130	3.8131	1.0222	26.37	0.38	0.750			
0.3887	24877.52	3.8100	3.8100	1.0256	26.36	0.37	0.750			
0.3918	25073.71	3.8070	3.8070	1.0388	26.35	0.36	0.750			
0.3949	25273.84	3.8040	3.8041	1.0569	26.35	0.36	0.750			
0.3981	25478.48	3.8010	3.8008	1.0648	26.34	0.35	0.750			
0.4013	25684.22	3.7980	3.7980	1.0825	26.33	0.34	0.750			
0.4046	25894.48	3.7950	3.7951	1.0983	26.32	0.33	0.750			
0.4079	26105.43	3.7920	3.7921	1.1223	26.31	0.32	0.750			
0.4113	26324.99	3.7890	3.7890	1.1288	26.30	0.31	0.750			
0.4147	26541.90	3.7860	3.7860	1.1469	26.29	0.30	0.750			
0.4182	26762.51	3.7830	3.7831	1.1650	26.28	0.29	0.750			
0.4217	26991.43	3.7800	3.7800	1.1750	26.27	0.28	0.750			
0.4253	27218.13	3.7770	3.7770	1.1857	26.26	0.27	0.750			
0.4288	27444.14	3.7740	3.7741	1.2207	26.25	0.26	0.750			
0.4325	27679.66	3.7710	3.7710	1.2484	26.24	0.25	0.750			
0.4363	27922.32	3.7680	3.7679	1.2791	26.23	0.24	0.750	0.314	0.442	
0.4402	28172.18	3.7650	3.7652	1.3134	26.21	0.22	0.750			
0.4443	28432.34	3.7620	3.7621	1.3386	26.20	0.21	0.750			
0.4483	28693.81	3.7590	3.7589	1.3636	26.19	0.20	0.750			
0.4525	28957.35	3.7560	3.7560	1.3759	26.17	0.18	0.750			
0.4565	29214.35	3.7530	3.7531	1.4117	26.16	0.17	0.750			
0.4608	29490.93	3.7500	3.7498	1.4239	26.15	0.16	0.750			
0.4650	29761.17	3.7470	3.7471	1.4754	26.13	0.14	0.750			
0.4696	30051.39	3.7440	3.7440	1.5046	26.12	0.13	0.750			
0.4742	30347.85	3.7410	3.7412	1.5413	26.11	0.12	0.750			
0.4789	30648.88	3.7380	3.7383	1.5782	26.09	0.10	0.750			
0.4837	30954.45	3.7350	3.7350	1.6170	26.07	0.08	0.750			
0.4885	31262.70	3.7320	3.7322	1.6651	26.06	0.07	0.750			
0.4935	31586.05	3.7290	3.7290	1.6946	26.05	0.06	0.750			
0.4986	31912.30	3.7260	3.7259	1.7470	26.04	0.05	0.750			
0.5040	32256.54	3.7230	3.7230	1.8127	26.02	0.03	0.750			
0.5096	32613.78	3.7200	3.7199	1.8556	26.01	0.02	0.750			
0.5153	32976.15	3.7170	3.7170	1.9100	25.99	-0.00	0.750			
0.5210	33345.30	3.7140	3.7141	1.9611	25.97	-0.02	0.750			
0.5270	33726.14	3.7110	3.7111	2.0182	25.95	-0.04	0.750			
0.5332	34124.46	3.7080	3.7080	2.0754	25.93	-0.06	0.750			
0.5395	34526.55	3.7050	3.7050	2.1456	25.92	-0.07	0.750			
0.5460	34945.41	3.7020	3.7020	2.2295	25.90	-0.09	0.750			
0.5529	35385.86	3.6990	3.6990	2.2894	25.88	-0.11	0.750			
0.5599	35832.34	3.6960	3.6960	2.3533	25.87	-0.12	0.750			
0.5670	36290.52	3.6930	3.6930	2.4151	25.85	-0.14	0.750			
0.5743	36758.21	3.6900	3.6899	2.4955	25.83	-0.16	0.750			
0.5819	37240.56	3.6870	3.6870	2.5695	25.82	-0.17	0.750			
0.5898	37744.42	3.6840	3.6840	2.7261	25.81	-0.18	0.750			
0.5982	38286.04	3.6810	3.6810	2.7634	25.79	-0.20	0.750			
0.6066	38820.37	3.6780	3.6782	2.8535	25.78	-0.21	0.750			
0.6152	39371.38	3.6750	3.6747	2.8984	25.77	-0.22	0.750			
0.6241	39943.89	3.6720	3.6720	2.8832	25.77	-0.22	0.750			
0.6330	40514.85	3.6690	3.6688	2.7913	25.75	-0.24	0.750			
0.6415	41057.40	3.6660	3.6660	2.5763	25.75	-0.24	0.750			
0.6487	41514.19	3.6630	3.6632	2.2906	25.75	-0.24	0.750			
0.6551	41927.04	3.6600	3.6598	2.0615	25.75	-0.24	0.750			
0.6606	42280.69	3.6570	3.6569	1.8536	25.75	-0.24	0.750			
0.6657	42607.44	3.6540	3.6539	1.6995	25.75	-0.24	0.750			
0.6706	42916.13	3.6510	3.6510	1.5629	25.75	-0.24	0.750			
0.6751	43205.21	3.6480	3.6481	1.4646	25.75	-0.24	0.750			
0.6794	43482.83	3.6450	3.6450	1.3985	25.75	-0.24	0.750			
0.6833	43730.80	3.6420	3.6421	1.3004	25.75	-0.24	0.750			
0.6870	43964.96	3.6390	3.6390	1.2350	25.75	-0.24	0.750			
0.6905	44191.53	3.6360	3.6362	1.1967	25.75	-0.24	0.750			
0.6940	44414.12	3.6330	3.6330	1.1943	25.75	-0.24	0.750			
0.6976	44643.72	3.6300	3.6294	1.1957	25.75	-0.24	0.750			
0.7011	44869.40	3.6270	3.6271	1.1950	25.75	-0.24	0.750			
0.7047	45102.02	3.6240	3.6241	1.2047	25.75	-0.24	0.750			
0.7084	45339.43	3.6210	3.6211	1.2166	25.75	-0.24	0.750			
0.7122	45578.15	3.6180	3.6180	1.2045	25.75	-0.24	0.750			
0.7157	45803.19	3.6150	3.6150	1.1838	25.75	-0.24	0.750			
0.7192	46027.88	3.6120	3.6121	1.1687	25.76	-0.23	0.750			
0.7227	46253.53	3.6090	3.6087	1.1495	25.76	-0.23	0.750			
0.7261	46471.42	3.6060	3.6060	1.1419	25.76	-0.23	0.750			
0.7295	46685.14	3.6030	3.6031	1.1385	25.77	-0.22	0.750			
0.7328	46900.47	3.6000	3.6001	1.1447	25.77	-0.22	0.750			
0.7362	47118.69	3.5970	3.5972	1.1581	25.77	-0.22	0.750			
0.7397	47340.55	3.5940	3.5940	1.1857	25.77	-0.22	0.750			
0.7433	47568.02	3.5910	3.5910	1.2213	25.77	-0.22	0.750			
0.7470	47809.20	3.5880	3.5879	1.2560	25.77	-0.22	0.750			
0.7508	48052.59	3.5850	3.5850	1.3021	25.77	-0.22	0.750			
0.7548	48306.13	3.5820	3.5821	1.3484	25.77	-0.22	0.750			
0.7589	48569.23	3.5790	3.5791	1.3887	25.77	-0.22	0.750			
0.7631	48836.93	3.5760	3.5760	1.4382	25.77	-0.22	0.750			
0.7675	49121.34	3.5730	3.5730	1.4842	25.76	-0.23	0.750			
0.7720	49410.29	3.5700	3.5698	1.5233	25.75	-0.24	0.750			
0.7767	49706.33	3.5670	3.5672	1.5707	25.75	-0.24	0.750			
0.7815	50013.59	3.5640	3.5641	1.5902	25.75	-0.24	0.750			
0.7864	50327.59	3.5610	3.5607	1.6174	25.75	-0.24	0.750			
0.7913	50642.29	3.5580	3.5580	1.6358	25.75	-0.24	0.750			
0.7961	50951.91	3.5550	3.5552	1.6464	25.75	-0.24	0.750			
0.8011	51269.22	3.5520	3.5522	1.6834	25.75	-0.24	0.750			
0.8061	51589.31	3.5490	3.5491	1.6960	25.75	-0.24	0.750			
0.8113	51922.01	3.5460	3.5458	1.7237	25.75	-0.24	0.750			
0.8165	52258.65	3.5430	3.5429	1.7523	25.76	-0.23	0.750			
0.8218	52597.54	3.5400	3.5400	1.7793	25.77	-0.22	0.750			
0.8274	52951.20	3.5370	3.5370	1.7634	25.78	-0.21	0.750			
0.8330	53312.67	3.5340	3.5338	1.6151	25.79	-0.20	0.750			
0.8380	53634.21	3.5310	3.5313	1.4360	25.80	-0.19	0.750			
0.8422	53903.92	3.5280	3.5285	1.1862	25.81	-0.18	0.750			
0.8453	54101.18	3.5250	3.5252	0.9524	25.82	-0.17	0.750			
0.8474	54234.33	3.5220	3.5215	0.6920	25.83	-0.16	0.750			
0.8487	54315.40	3.5190	3.5188	0.5031	25.84	-0.15	0.750			
0.8499	54393.71	3.5160	3.5161	0.4161	25.84	-0.15	0.750			
0.8510	54462.93	3.5130	3.5129	0.3745	25.85	-0.14	0.750			
0.8520	54527.63	3.5100	3.5099	0.3409	25.86	-0.13	0.750			
0.8529	54587.21	3.5070	3.5069	0.3179	25.86	-0.13	0.750			
0.8538	54646.31	3.5040	3.5040	0.3052	25.87	-0.12	0.750			
0.8548	54704.25	3.5010	3.5011	0.2967	25.88	-0.11	0.750			
0.8556	54759.95	3.4980	3.4980	0.2881	25.88	-0.11	0.750			
0.8565	54814.09	3.4950	3.4949	0.2804	25.89	-0.10	0.750			
0.8573	54867.08	3.4920	3.4920	0.2734	25.89	-0.10	0.750			
0.8581	54919.10	3.4890	3.4889	0.2681	25.90	-0.09	0.750			
0.8589	54969.83	3.4860	3.4860	0.2627	25.90	-0.09	0.750			
0.8597	55019.50	3.4830	3.4831	0.2564	25.91	-0.08	0.750			
0.8604	55068.49	3.4800	3.4800	0.2504	25.91	-0.08	0.750			
0.8612	55116.06	3.4770	3.4770	0.2446	25.92	-0.07	0.750			
0.8619	55162.18	3.4740	3.4741	0.2382	25.92	-0.07	0.750			
0.8626	55207.35	3.4710	3.4710	0.2331	25.93	-0.06	0.750			
0.8633	55251.45	3.4680	3.4680	0.2292	25.93	-0.06	0.750			
0.8640	55294.67	3.4650	3.4649	0.2235	25.93	-0.06	0.750			
0.8646	55336.79	3.4620	3.4620	0.2189	25.94	-0.05	0.750			
0.8653	55378.76	3.4590	3.4590	0.2148	25.94	-0.05	0.750			
0.8659	55419.88	3.4560	3.4560	0.2105	25.95	-0.04	0.750			
0.8666	55459.83	3.4530	3.4531	0.2058	25.95	-0.04	0.750			
0.8672	55498.83	3.4500	3.4499	0.2006	25.95	-0.04	0.750			
0.8678	55536.71	3.4470	3.4470	0.1959	25.96	-0.03	0.750			
0.8683	55573.91	3.4440	3.4440	0.1896	25.96	-0.03	0.750			
0.8689	55610.26	3.4410	3.4409	0.1851	25.97	-0.02	0.750			
0.8695	55645.25	3.4380	3.4382	0.1785	25.97	-0.02	0.750			
0.8700	55678.91	3.4350	3.4351	0.1727	25.97	-0.02	0.750			
0.8705	55711.22	3.4320	3.4320	0.1673	25.98	-0.01	0.750			
0.8710	55742.81	3.4290	3.4290	0.1618	25.98	-0.01	0.750			
0.8715	55773.04	3.4260	3.4258	0.1562	25.98	-0.01	0.750			
0.8719	55802.23	3.4230	3.4230	0.1512	25.99	-0.00	0.750			
0.8724	55831.33	3.4200	3.4202	0.1467	25.99	-0.00	0.750			
0.8728	55858.98	3.4170	3.4170	0.1413	25.99	0.00	0.750			
0.8732	55885.99	3.4140	3.4139	0.1348	25.99	0.00	0.750			
0.8736	55911.44	3.4110	3.4110	0.1284	26.00	0.01	0.750			
0.8740	55935.60	3.4080	3.4081	0.1213	26.00	0.01	0.750			
0.8744	55958.45	3.4050	3.4050	0.1144	26.00	0.01	0.750			
0.8747	55980.67	3.4020	3.4018	0.1046	26.00	0.01	0.750			
0.8750	56000.01	3.3990	3.3989	0.0955	26.00	0.01	0.750			
0.8753	56017.82	3.3960	3.3961	0.0869	26.01	0.02	0.750			
0.8755	56033.46	3.3930	3.3933	0.0761	26.01	0.02	0.750			
0.8758	56048.17	3.3900	3.3902	0.0666	26.01	0.02	0.750			
0.8759	56059.79	3.3870	3.3877	0.0545	26.01	0.02	0.750			
0.8761	56069.09	3.3840	3.3851	0.0424	26.01	0.02	0.750			
0.8762	56076.06	3.3810	3.3827	0.0303	26.01	0.02	0.750			
0.8763	56080.71	3.3780	3.3802	0.0181	26.01	0.02	0.750			
