Ah_balance (normalized)	Ah_balance (mAh)	Voltage - fit (V)	Voltage -  interpolate (V)	dQ/dV (1/V)	Temperature (°C)	Temperature - diff (°C)	Current (C)	R_DC 0ms (mOhm)	R_DC 50ms (mOhm)	R_DC 50 ms PEC (mOhm)
0.0529	3382.65	4.1990	4.1990	0.7389	26.52	0.53	0.750			
0.0551	3524.26	4.1960	4.1960	0.7389	26.52	0.53	0.750			
0.0573	3666.70	4.1930	4.1931	0.7459	26.52	0.53	0.750			
0.0595	3810.96	4.1900	4.1900	0.7520	26.52	0.53	0.750			
0.0618	3956.63	4.1870	4.1870	0.7560	26.52	0.53	0.750			
0.0641	4101.63	4.1840	4.1840	0.7556	26.52	0.53	0.750			
0.0664	4249.57	4.1810	4.1810	0.7563	26.52	0.53	0.750			
0.0686	4392.81	4.1780	4.1780	0.7590	26.52	0.53	0.750			
0.0709	4537.80	4.1750	4.1750	0.7616	26.52	0.53	0.750			
0.0732	4682.91	4.1720	4.1719	0.7660	26.52	0.53	0.750			
0.0755	4830.85	4.1690	4.1690	0.7722	26.52	0.53	0.750			
0.0778	4982.21	4.1660	4.1660	0.7705	26.52	0.53	0.750			
0.0802	5130.77	4.1630	4.1630	0.7685	26.52	0.53	0.750			
0.0825	5277.89	4.1600	4.1601	0.7722	26.52	0.53	0.750			
0.0847	5423.67	4.1570	4.1570	0.7701	26.52	0.53	0.750			
0.0870	5570.66	4.1540	4.1541	0.7687	26.52	0.53	0.750			
0.0893	5718.32	4.1510	4.1509	0.7713	26.52	0.53	0.750			
0.0917	5868.10	4.1480	4.1482	0.7746	26.52	0.53	0.750			
0.0940	6018.50	4.1450	4.1449	0.7768	26.52	0.53	0.750			
0.0964	6167.60	4.1420	4.1420	0.7742	26.52	0.53	0.750			
0.0987	6315.55	4.1390	4.1389	0.7716	26.52	0.53	0.750			
0.1010	6462.15	4.1360	4.1360	0.7707	26.52	0.53	0.750			
0.1033	6611.60	4.1330	4.1330	0.7675	26.52	0.53	0.750			
0.1056	6757.07	4.1300	4.1300	0.7695	26.52	0.53	0.750			
0.1079	6904.51	4.1270	4.1270	0.7712	26.52	0.53	0.750			
0.1102	7052.30	4.1240	4.1241	0.7750	26.52	0.53	0.750			
0.1125	7200.74	4.1210	4.1210	0.7841	26.52	0.53	0.750			
0.1149	7353.24	4.1180	4.1180	0.7876	26.52	0.53	0.750			
0.1173	7505.83	4.1150	4.1150	0.7919	26.52	0.53	0.750			
0.1197	7659.93	4.1120	4.1120	0.7945	26.52	0.53	0.750			
0.1220	7810.23	4.1090	4.1091	0.7922	26.52	0.53	0.750			
0.1244	7962.29	4.1060	4.1060	0.7939	26.52	0.53	0.750			
0.1268	8114.21	4.1030	4.1029	0.7937	26.52	0.53	0.750			
0.1292	8266.76	4.1000	4.1000	0.7840	26.52	0.53	0.750			
0.1315	8417.06	4.0970	4.0971	0.7900	26.52	0.53	0.750			
0.1339	8567.97	4.0940	4.0942	0.7933	26.52	0.53	0.750			
0.1363	8720.43	4.0910	4.0906	0.7980	26.52	0.53	0.750			
0.1386	8872.96	4.0880	4.0881	0.7966	26.52	0.53	0.750			
0.1411	9028.85	4.0850	4.0850	0.7946	26.52	0.53	0.750			
0.1435	9181.79	4.0820	4.0821	0.8086	26.52	0.53	0.750			
0.1459	9338.51	4.0790	4.0790	0.8142	26.52	0.53	0.750			
0.1483	9491.34	4.0760	4.0758	0.8080	26.52	0.53	0.750			
0.1507	9647.84	4.0730	4.0731	0.8124	26.52	0.53	0.750			
0.1532	9805.55	4.0700	4.0701	0.8108	26.52	0.53	0.750			
0.1556	9961.58	4.0670	4.0670	0.8166	26.52	0.53	0.750			
0.1581	10119.28	4.0640	4.0640	0.8193	26.52	0.53	0.750			
0.1605	10273.48	4.0610	4.0610	0.8139	26.52	0.53	0.750			
0.1630	10431.18	4.0580	4.0581	0.8210	26.52	0.53	0.750			
0.1655	10591.64	4.0550	4.0550	0.8187	26.52	0.53	0.750			
0.1679	10746.90	4.0520	4.0520	0.8281	26.52	0.53	0.750			
0.1704	10906.56	4.0490	4.0491	0.8329	26.52	0.53	0.750			
0.1729	11065.05	4.0460	4.0459	0.8368	26.52	0.53	0.750			
0.1754	11227.52	4.0430	4.0431	0.8405	26.52	0.53	0.750			
0.1780	11392.73	4.0400	4.0399	0.8353	26.52	0.53	0.750			
0.1805	11549.74	4.0370	4.0371	0.8437	26.52	0.53	0.750			
0.1830	11713.35	4.0340	4.0341	0.8491	26.52	0.53	0.750			
0.1855	11874.38	4.0310	4.0308	0.8446	26.52	0.53	0.750			
0.1881	12038.33	4.0280	4.0281	0.8504	26.52	0.53	0.750			
0.1907	12202.50	4.0250	4.0252	0.8459	26.52	0.53	0.750			
0.1932	12365.17	4.0220	4.0221	0.8529	26.52	0.53	0.750			
0.1958	12529.45	4.0190	4.0190	0.8469	26.52	0.53	0.750			
0.1983	12691.43	4.0160	4.0159	0.8502	26.52	0.53	0.750			
0.2009	12855.28	4.0130	4.0130	0.8566	26.52	0.53	0.750			
0.2035	13021.10	4.0100	4.0101	0.8582	26.52	0.53	0.750			
0.2060	13186.28	4.0070	4.0071	0.8619	26.52	0.53	0.750			
0.2086	13351.35	4.0040	4.0040	0.8636	26.52	0.53	0.750			
0.2112	13517.84	4.0010	4.0009	0.8682	26.52	0.53	0.750			
0.2138	13685.72	3.9980	3.9979	0.8688	26.52	0.53	0.750			
0.2164	13851.63	3.9950	3.9950	0.8731	26.52	0.53	0.750			
0.2191	14020.53	3.9920	3.9921	0.8779	26.53	0.54	0.750			
0.2217	14189.76	3.9890	3.9890	0.8760	26.53	0.54	0.750			
0.2243	14358.24	3.9860	3.9862	0.8796	26.53	0.54	0.750			
0.2270	14528.66	3.9830	3.9830	0.8771	26.53	0.54	0.750			
0.2296	14695.99	3.9800	3.9800	0.8841	26.53	0.54	0.750			
0.2323	14865.52	3.9770	3.9771	0.8896	26.54	0.55	0.750			
0.2349	15035.62	3.9740	3.9739	0.8868	26.54	0.55	0.750			
0.2376	15207.42	3.9710	3.9709	0.8927	26.54	0.55	0.750			
0.2403	15380.53	3.9680	3.9681	0.8966	26.54	0.55	0.750			
0.2430	15552.00	3.9650	3.9651	0.8958	26.53	0.54	0.750			
0.2457	15726.22	3.9620	3.9619	0.9013	26.53	0.54	0.750			
0.2484	15896.81	3.9590	3.9589	0.8960	26.53	0.54	0.750			
0.2511	16069.48	3.9560	3.9559	0.8937	26.53	0.54	0.750			
0.2538	16241.29	3.9530	3.9529	0.8972	26.53	0.54	0.750			
0.2565	16413.60	3.9500	3.9501	0.8989	26.53	0.54	0.750			
0.2592	16585.73	3.9470	3.9471	0.9017	26.53	0.54	0.750			
0.2619	16759.36	3.9440	3.9439	0.9030	26.53	0.54	0.750			
0.2646	16935.10	3.9410	3.9410	0.8969	26.53	0.54	0.750			
0.2673	17105.68	3.9380	3.9380	0.8982	26.53	0.54	0.750			
0.2700	17277.06	3.9350	3.9351	0.9028	26.52	0.53	0.750			
0.2727	17449.77	3.9320	3.9321	0.8995	26.52	0.53	0.750			
0.2754	17622.68	3.9290	3.9290	0.9030	26.52	0.53	0.750			
0.2781	17796.47	3.9260	3.9261	0.9036	26.52	0.53	0.750			
0.2808	17970.97	3.9230	3.9229	0.9128	26.52	0.53	0.750			
0.2836	18149.66	3.9200	3.9200	0.9195	26.52	0.53	0.750			
0.2863	18323.57	3.9170	3.9169	0.9150	26.52	0.53	0.750			
0.2891	18500.11	3.9140	3.9141	0.9111	26.52	0.53	0.750			
0.2918	18675.83	3.9110	3.9110	0.9162	26.51	0.52	0.750			
0.2945	18850.32	3.9080	3.9080	0.9193	26.51	0.52	0.750			
0.2973	19026.06	3.9050	3.9051	0.9211	26.50	0.51	0.750			
0.3000	19201.45	3.9020	3.9020	0.9281	26.50	0.51	0.750			
0.3029	19383.68	3.8990	3.8990	0.9344	26.49	0.50	0.750			
0.3057	19562.97	3.8960	3.8961	0.9403	26.49	0.50	0.750			
0.3085	19741.69	3.8930	3.8931	0.9534	26.48	0.49	0.750			
0.3113	19926.36	3.8900	3.8899	0.9582	26.48	0.49	0.750			
0.3142	20111.77	3.8870	3.8869	0.9609	26.47	0.48	0.750			
0.3172	20298.10	3.8840	3.8840	0.9663	26.47	0.48	0.750			
0.3201	20486.70	3.8810	3.8812	0.9676	26.46	0.47	0.750			
0.3230	20674.48	3.8780	3.8780	0.9647	26.45	0.46	0.750			
0.3259	20860.40	3.8750	3.8749	0.9509	26.45	0.46	0.750			
0.3287	21038.26	3.8720	3.8721	0.9509	26.44	0.45	0.750			
0.3315	21217.99	3.8690	3.8690	0.9628	26.43	0.44	0.750			
0.3344	21401.82	3.8660	3.8661	0.9740	26.42	0.43	0.750			
0.3373	21589.69	3.8630	3.8630	0.9811	26.42	0.43	0.750			
0.3403	21780.53	3.8600	3.8602	0.9801	26.40	0.41	0.750			
0.3433	21972.48	3.8570	3.8571	0.9900	26.39	0.40	0.750			
0.3463	22161.56	3.8540	3.8541	0.9995	26.38	0.39	0.750			
0.3492	22351.84	3.8510	3.8508	0.9921	26.37	0.38	0.750			
0.3522	22542.28	3.8480	3.8480	0.9958	26.36	0.37	0.750			
0.3552	22735.58	3.8450	3.8451	1.0062	26.35	0.36	0.750			
0.3583	22931.54	3.8420	3.8421	1.0153	26.35	0.36	0.750			
0.3613	23126.37	3.8390	3.8387	1.0128	26.34	0.35	0.750			
0.3644	23320.52	3.8360	3.8362	1.0119	26.33	0.34	0.750			
0.3674	23514.04	3.8330	3.8330	1.0167	26.32	0.33	0.750			
0.3705	23711.34	3.8300	3.8301	1.0258	26.31	0.32	0.750			
0.3735	23906.92	3.8270	3.8267	1.0240	26.30	0.31	0.750			
0.3766	24105.30	3.8240	3.8240	1.0289	26.29	0.30	0.750			
0.3797	24303.06	3.8210	3.8210	1.0352	26.28	0.29	0.750			
0.3828	24502.07	3.8180	3.8181	1.0450	26.27	0.28	0.750			
0.3860	24703.26	3.8150	3.8149	1.0534	26.26	0.27	0.750			
0.3891	24904.83	3.8120	3.8120	1.0554	26.25	0.26	0.750			
0.3923	25109.17	3.8090	3.8091	1.0623	26.24	0.25	0.750			
0.3955	25313.65	3.8060	3.8060	1.0737	26.23	0.24	0.750			
0.3988	25522.63	3.8030	3.8029	1.0771	26.22	0.23	0.750			
0.4020	25727.53	3.8000	3.8000	1.0798	26.21	0.22	0.750			
0.4052	25934.08	3.7970	3.7970	1.0905	26.20	0.21	0.750			
0.4085	26143.20	3.7940	3.7942	1.1037	26.19	0.20	0.750			
0.4118	26357.62	3.7910	3.7908	1.1136	26.18	0.19	0.750			
0.4152	26571.53	3.7880	3.7880	1.1312	26.17	0.18	0.750			
0.4186	26788.59	3.7850	3.7851	1.1446	26.16	0.17	0.750			
0.4220	27010.99	3.7820	3.7821	1.1700	26.15	0.16	0.750			
0.4256	27237.16	3.7790	3.7791	1.1897	26.13	0.14	0.750			
0.4292	27465.92	3.7760	3.7759	1.2111	26.12	0.13	0.750			
0.4328	27699.53	3.7730	3.7731	1.2522	26.10	0.11	0.750			
0.4366	27943.14	3.7700	3.7700	1.2893	26.09	0.10	0.750			
0.4405	28194.86	3.7670	3.7670	1.3146	26.08	0.09	0.750			
0.4446	28453.31	3.7640	3.7637	1.3407	26.06	0.07	0.750	0.303	0.410	
0.4487	28715.23	3.7610	3.7610	1.3590	26.05	0.06	0.750			
0.4528	28978.43	3.7580	3.7579	1.3788	26.04	0.05	0.750			
0.4569	29244.18	3.7550	3.7550	1.3956	26.02	0.03	0.750			
0.4611	29507.60	3.7520	3.7519	1.4016	26.01	0.02	0.750			
0.4653	29779.09	3.7490	3.7492	1.4239	26.00	0.01	0.750			
0.4696	30055.19	3.7460	3.7460	1.4637	25.98	-0.01	0.750			
0.4740	30334.17	3.7430	3.7426	1.5100	25.97	-0.02	0.750			
0.4785	30625.20	3.7400	3.7403	1.5509	25.96	-0.03	0.750			
0.4833	30930.38	3.7370	3.7372	1.5980	25.95	-0.04	0.750			
0.4882	31247.26	3.7340	3.7340	1.6540	25.93	-0.06	0.750			
0.4933	31569.58	3.7310	3.7308	1.6874	25.92	-0.07	0.750			
0.4984	31897.73	3.7280	3.7281	1.7432	25.90	-0.09	0.750			
0.5037	32236.72	3.7250	3.7250	1.7685	25.89	-0.10	0.750			
0.5090	32575.43	3.7220	3.7219	1.8174	25.88	-0.11	0.750			
0.5144	32924.65	3.7190	3.7189	1.8750	25.86	-0.13	0.750			
0.5203	33297.74	3.7160	3.7157	1.9274	25.83	-0.16	0.750			
0.5261	33671.89	3.7130	3.7130	1.9951	25.81	-0.18	0.750			
0.5323	34066.20	3.7100	3.7100	2.0578	25.80	-0.19	0.750			
0.5386	34472.12	3.7070	3.7071	2.1190	25.79	-0.20	0.750			
0.5451	34889.50	3.7040	3.7041	2.1730	25.78	-0.21	0.750			
0.5517	35306.14	3.7010	3.7013	2.2270	25.76	-0.23	0.750			
0.5584	35737.78	3.6980	3.6983	2.2867	25.73	-0.26	0.750			
0.5654	36184.64	3.6950	3.6950	2.3552	25.71	-0.28	0.750			
0.5724	36635.89	3.6920	3.6921	2.3880	25.70	-0.29	0.750			
0.5797	37098.52	3.6890	3.6891	2.4848	25.69	-0.30	0.750			
0.5873	37587.48	3.6860	3.6863	2.5837	25.68	-0.31	0.750			
0.5952	38094.91	3.6830	3.6829	2.6437	25.67	-0.32	0.750			
0.6034	38620.37	3.6800	3.6802	2.7433	25.65	-0.34	0.750			
0.6118	39156.67	3.6770	3.6770	2.8253	25.64	-0.35	0.750			
0.6201	39687.04	3.6740	3.6740	2.8892	25.64	-0.35	0.750			
0.6289	40251.96	3.6710	3.6710	2.9659	25.63	-0.36	0.750			
0.6382	40846.45	3.6680	3.6678	2.9158	25.62	-0.37	0.750			
0.6473	41424.81	3.6650	3.6648	2.8646	25.63	-0.36	0.750			
0.6559	41977.71	3.6620	3.6612	2.6376	25.64	-0.35	0.750			
0.6630	42432.64	3.6590	3.6596	2.3161	25.64	-0.35	0.750			
0.6697	42859.61	3.6560	3.6560	2.0594	25.64	-0.35	0.750			
0.6753	43216.34	3.6530	3.6529	1.8429	25.64	-0.35	0.750			
0.6802	43531.27	3.6500	3.6502	1.6411	25.65	-0.34	0.750			
0.6850	43839.25	3.6470	3.6469	1.5340	25.66	-0.33	0.750			
0.6894	44123.96	3.6440	3.6442	1.4385	25.66	-0.33	0.750			
0.6936	44389.91	3.6410	3.6410	1.3545	25.66	-0.33	0.750			
0.6974	44635.38	3.6380	3.6380	1.2821	25.66	-0.33	0.750			
0.7011	44870.95	3.6350	3.6350	1.2294	25.66	-0.33	0.750			
0.7046	45095.59	3.6320	3.6321	1.1936	25.66	-0.33	0.750			
0.7081	45319.81	3.6290	3.6290	1.1917	25.66	-0.33	0.750			
0.7117	45546.74	3.6260	3.6258	1.1886	25.66	-0.33	0.750			
0.7152	45772.83	3.6230	3.6230	1.1962	25.66	-0.33	0.750			
0.7188	46004.72	3.6200	3.6201	1.2048	25.66	-0.33	0.750			
0.7225	46239.73	3.6170	3.6169	1.2140	25.66	-0.33	0.750			
0.7262	46475.66	3.6140	3.6141	1.1899	25.66	-0.33	0.750			
0.7298	46704.01	3.6110	3.6111	1.1860	25.67	-0.32	0.750			
0.7333	46929.35	3.6080	3.6081	1.1764	25.68	-0.31	0.750			
0.7368	47155.84	3.6050	3.6047	1.1488	25.68	-0.31	0.750			
0.7402	47374.29	3.6020	3.6021	1.1523	25.68	-0.31	0.750			
0.7437	47594.60	3.5990	3.5991	1.1499	25.68	-0.31	0.750			
0.7471	47813.90	3.5960	3.5962	1.1553	25.68	-0.31	0.750			
0.7505	48034.49	3.5930	3.5932	1.1611	25.68	-0.31	0.750			
0.7540	48253.47	3.5900	3.5901	1.1904	25.68	-0.31	0.750			
0.7575	48479.02	3.5870	3.5870	1.2300	25.68	-0.31	0.750			
0.7612	48719.75	3.5840	3.5838	1.2749	25.68	-0.31	0.750			
0.7652	48972.68	3.5810	3.5810	1.3068	25.68	-0.31	0.750			
0.7692	49227.64	3.5780	3.5781	1.3609	25.68	-0.31	0.750			
0.7734	49497.27	3.5750	3.5748	1.3994	25.68	-0.31	0.750			
0.7775	49761.45	3.5720	3.5722	1.4536	25.68	-0.31	0.750			
0.7820	50045.12	3.5690	3.5688	1.5078	25.69	-0.30	0.750			
0.7866	50342.40	3.5660	3.5658	1.5437	25.69	-0.30	0.750			
0.7913	50643.41	3.5630	3.5629	1.5914	25.69	-0.30	0.750			
0.7962	50959.78	3.5600	3.5603	1.6286	25.69	-0.30	0.750			
0.8012	51278.65	3.5570	3.5570	1.6415	25.69	-0.30	0.750			
0.8062	51594.80	3.5540	3.5539	1.6642	25.70	-0.29	0.750			
0.8112	51914.43	3.5510	3.5509	1.6491	25.70	-0.29	0.750			
0.8162	52236.80	3.5480	3.5481	1.6618	25.70	-0.29	0.750			
0.8211	52549.31	3.5450	3.5452	1.6816	25.71	-0.28	0.750			
0.8261	52871.18	3.5420	3.5420	1.6964	25.71	-0.28	0.750			
0.8312	53199.59	3.5390	3.5390	1.7199	25.72	-0.27	0.750			
0.8365	53537.19	3.5360	3.5361	1.7501	25.73	-0.26	0.750			
0.8420	53889.03	3.5330	3.5327	1.7186	25.74	-0.25	0.750			
0.8475	54238.51	3.5300	3.5300	1.5492	25.75	-0.24	0.750			
0.8523	54544.99	3.5270	3.5274	1.3457	25.77	-0.22	0.750			
0.8561	54789.91	3.5240	3.5245	1.0939	25.78	-0.21	0.750			
0.8586	54950.39	3.5210	3.5212	0.8285	25.80	-0.19	0.750			
0.8604	55066.59	3.5180	3.5177	0.6045	25.81	-0.18	0.750			
0.8617	55150.03	3.5150	3.5146	0.4640	25.81	-0.18	0.750			
0.8627	55214.36	3.5120	3.5119	0.3927	25.82	-0.17	0.750			
0.8638	55281.85	3.5090	3.5090	0.3547	25.83	-0.16	0.750			
0.8648	55344.15	3.5060	3.5059	0.3307	25.84	-0.15	0.750			
0.8657	55404.28	3.5030	3.5030	0.3127	25.84	-0.15	0.750			
0.8666	55462.65	3.5000	3.5000	0.3012	25.85	-0.14	0.750			
0.8675	55518.99	3.4970	3.4970	0.2916	25.86	-0.13	0.750			
0.8683	55574.03	3.4940	3.4940	0.2840	25.87	-0.12	0.750			
0.8692	55627.41	3.4910	3.4910	0.2762	25.87	-0.12	0.750			
0.8700	55679.61	3.4880	3.4880	0.2701	25.88	-0.11	0.750			
0.8708	55730.74	3.4850	3.4849	0.2646	25.89	-0.10	0.750			
0.8716	55780.91	3.4820	3.4820	0.2584	25.89	-0.10	0.750			
0.8723	55830.18	3.4790	3.4789	0.2533	25.90	-0.09	0.750			
0.8731	55878.32	3.4760	3.4761	0.2476	25.90	-0.09	0.750			
0.8738	55925.11	3.4730	3.4729	0.2434	25.91	-0.08	0.750			
0.8746	55971.50	3.4700	3.4699	0.2367	25.91	-0.08	0.750			
0.8753	56016.53	3.4670	3.4670	0.2316	25.92	-0.07	0.750			
0.8759	56060.18	3.4640	3.4640	0.2265	25.92	-0.07	0.750			
0.8766	56103.05	3.4610	3.4609	0.2215	25.93	-0.06	0.750			
0.8773	56145.21	3.4580	3.4579	0.2169	25.93	-0.06	0.750			
0.8779	56186.28	3.4550	3.4549	0.2112	25.94	-0.05	0.750			
0.8785	56225.98	3.4520	3.4521	0.2065	25.94	-0.05	0.750			
0.8792	56265.83	3.4490	3.4490	0.2035	25.94	-0.05	0.750			
0.8798	56304.40	3.4460	3.4460	0.1982	25.95	-0.04	0.750			
0.8803	56341.83	3.4430	3.4429	0.1923	25.95	-0.04	0.750			
0.8809	56378.31	3.4400	3.4401	0.1868	25.95	-0.04	0.750			
0.8815	56413.68	3.4370	3.4370	0.1819	25.96	-0.03	0.750			
0.8820	56448.08	3.4340	3.4340	0.1764	25.96	-0.03	0.750			
0.8825	56481.71	3.4310	3.4309	0.1702	25.97	-0.02	0.750			
0.8830	56513.47	3.4280	3.4280	0.1638	25.97	-0.02	0.750			
0.8835	56544.21	3.4250	3.4250	0.1586	25.97	-0.02	0.750			
0.8840	56574.16	3.4220	3.4223	0.1534	25.97	-0.02	0.750			
0.8844	56603.12	3.4190	3.4189	0.1483	25.98	-0.01	0.750			
0.8849	56631.22	3.4160	3.4159	0.1422	25.98	-0.01	0.750			
0.8853	56657.94	3.4130	3.4131	0.1365	25.98	-0.01	0.750			
0.8857	56683.73	3.4100	3.4100	0.1304	25.99	-0.00	0.750			
0.8861	56708.70	3.4070	3.4070	0.1248	25.99	-0.00	0.750			
0.8864	56732.14	3.4040	3.4037	0.1177	25.99	0.00	0.750			
0.8868	56753.91	3.4010	3.4011	0.1103	25.99	0.00	0.750			
0.8871	56775.63	3.3980	3.3980	0.0998	25.99	0.00	0.750			
0.8874	56794.31	3.3950	3.3949	0.0912	26.00	0.01	0.750			
0.8877	56811.63	3.3920	3.3919	0.0827	26.00	0.01	0.750			
0.8879	56826.38	3.3890	3.3893	0.0710	26.00	0.01	0.750			
0.8881	56839.66	3.3860	3.3865	0.0596	26.00	0.01	0.750			
0.8883	56849.87	3.3830	3.3837	0.0468	26.00	0.01	0.750			
0.8884	56857.63	3.3800	3.3812	0.0340	26.00	0.01	0.750			
0.8885	56862.94	3.3770	3.3790	0.0212	26.00	0.01	0.750			
