Ah_balance (normalized)	Ah_balance (mAh)	Voltage - fit (V)	Voltage -  interpolate (V)	dQ/dV (1/V)	Temperature (°C)	Temperature - diff (°C)	Current (C)	R_DC 0ms (mOhm)	R_DC 50ms (mOhm)	R_DC 50 ms PEC (mOhm)
0.0535	3421.86	4.1980	4.1980	0.7348	26.56	0.61	0.750			
0.0557	3566.32	4.1950	4.1949	0.7538	26.56	0.61	0.750			
0.0580	3712.11	4.1920	4.1921	0.7585	26.56	0.61	0.750			
0.0603	3859.98	4.1890	4.1890	0.7550	26.56	0.61	0.750			
0.0626	4004.72	4.1860	4.1860	0.7575	26.56	0.61	0.750			
0.0648	4149.28	4.1830	4.1830	0.7571	26.56	0.61	0.750			
0.0671	4294.37	4.1800	4.1801	0.7578	26.56	0.61	0.750			
0.0694	4440.60	4.1770	4.1770	0.7599	26.56	0.61	0.750			
0.0717	4587.14	4.1740	4.1741	0.7641	26.56	0.61	0.750			
0.0740	4734.65	4.1710	4.1711	0.7644	26.56	0.61	0.750			
0.0763	4881.48	4.1680	4.1679	0.7665	26.55	0.60	0.750			
0.0786	5027.36	4.1650	4.1651	0.7655	26.55	0.60	0.750			
0.0808	5173.29	4.1620	4.1617	0.7701	26.55	0.60	0.750			
0.0832	5322.61	4.1590	4.1591	0.7755	26.55	0.60	0.750			
0.0855	5473.43	4.1560	4.1560	0.7763	26.55	0.60	0.750			
0.0878	5622.31	4.1530	4.1531	0.7787	26.54	0.59	0.750			
0.0902	5775.04	4.1500	4.1500	0.7769	26.54	0.59	0.750			
0.0925	5922.50	4.1470	4.1471	0.7711	26.54	0.59	0.750			
0.0948	6069.79	4.1440	4.1441	0.7692	26.54	0.59	0.750			
0.0971	6214.68	4.1410	4.1410	0.7685	26.54	0.59	0.750			
0.0994	6362.29	4.1380	4.1380	0.7727	26.54	0.59	0.750			
0.1017	6510.23	4.1350	4.1350	0.7764	26.54	0.59	0.750			
0.1041	6659.85	4.1320	4.1320	0.7797	26.54	0.59	0.750			
0.1064	6811.92	4.1290	4.1288	0.7833	26.54	0.59	0.750			
0.1088	6963.15	4.1260	4.1261	0.7834	26.54	0.59	0.750			
0.1112	7115.04	4.1230	4.1230	0.7753	26.54	0.59	0.750			
0.1135	7262.62	4.1200	4.1200	0.7782	26.54	0.59	0.750			
0.1158	7411.67	4.1170	4.1171	0.7820	26.54	0.59	0.750			
0.1181	7559.31	4.1140	4.1139	0.7862	26.54	0.59	0.750			
0.1205	7711.57	4.1110	4.1112	0.7885	26.54	0.59	0.750			
0.1229	7865.19	4.1080	4.1080	0.7898	26.54	0.59	0.750			
0.1253	8017.03	4.1050	4.1050	0.7918	26.55	0.60	0.750			
0.1277	8171.40	4.1020	4.1021	0.7947	26.55	0.60	0.750			
0.1300	8321.84	4.0990	4.0989	0.7918	26.55	0.60	0.750			
0.1324	8472.28	4.0960	4.0961	0.7939	26.55	0.60	0.750			
0.1348	8624.07	4.0930	4.0930	0.7921	26.55	0.60	0.750			
0.1372	8778.00	4.0900	4.0899	0.7981	26.55	0.60	0.750			
0.1396	8932.69	4.0870	4.0870	0.8017	26.55	0.60	0.750			
0.1420	9085.13	4.0840	4.0840	0.8043	26.55	0.60	0.750			
0.1444	9240.03	4.0810	4.0810	0.8100	26.55	0.60	0.750			
0.1468	9397.44	4.0780	4.0779	0.8103	26.55	0.60	0.750			
0.1493	9552.90	4.0750	4.0750	0.8098	26.55	0.60	0.750			
0.1517	9709.19	4.0720	4.0720	0.8136	26.56	0.61	0.750			
0.1541	9864.86	4.0690	4.0691	0.8157	26.56	0.61	0.750			
0.1566	10021.36	4.0660	4.0659	0.8142	26.56	0.61	0.750			
0.1590	10177.27	4.0630	4.0630	0.8138	26.56	0.61	0.750			
0.1615	10333.27	4.0600	4.0601	0.8203	26.56	0.61	0.750			
0.1639	10491.76	4.0570	4.0571	0.8285	26.56	0.61	0.750			
0.1664	10652.50	4.0540	4.0539	0.8290	26.56	0.61	0.750			
0.1689	10811.61	4.0510	4.0509	0.8291	26.56	0.61	0.750			
0.1714	10971.03	4.0480	4.0481	0.8342	26.56	0.61	0.750			
0.1739	11131.42	4.0450	4.0450	0.8374	26.56	0.61	0.750			
0.1764	11291.63	4.0420	4.0420	0.8380	26.56	0.61	0.750			
0.1789	11450.30	4.0390	4.0391	0.8438	26.56	0.61	0.750			
0.1815	11614.26	4.0360	4.0358	0.8495	26.56	0.61	0.750			
0.1841	11781.70	4.0330	4.0330	0.8474	26.56	0.61	0.750			
0.1866	11943.84	4.0300	4.0300	0.8470	26.56	0.61	0.750			
0.1892	12107.21	4.0270	4.0272	0.8440	26.56	0.61	0.750			
0.1917	12266.83	4.0240	4.0240	0.8429	26.56	0.61	0.750			
0.1942	12428.06	4.0210	4.0209	0.8435	26.56	0.61	0.750			
0.1967	12590.35	4.0180	4.0180	0.8412	26.56	0.61	0.750			
0.1993	12753.20	4.0150	4.0151	0.8550	26.57	0.62	0.750			
0.2018	12917.71	4.0120	4.0120	0.8614	26.57	0.62	0.750			
0.2044	13082.95	4.0090	4.0091	0.8622	26.58	0.63	0.750			
0.2070	13249.07	4.0060	4.0061	0.8697	26.58	0.63	0.750			
0.2096	13416.90	4.0030	4.0030	0.8701	26.58	0.63	0.750			
0.2123	13586.41	4.0000	4.0000	0.8774	26.58	0.63	0.750			
0.2149	13755.47	3.9970	3.9970	0.8768	26.58	0.63	0.750			
0.2176	13923.71	3.9940	3.9941	0.8745	26.58	0.63	0.750			
0.2202	14092.36	3.9910	3.9911	0.8743	26.58	0.63	0.750			
0.2228	14258.54	3.9880	3.9879	0.8761	26.58	0.63	0.750			
0.2254	14426.25	3.9850	3.9850	0.8760	26.58	0.63	0.750			
0.2280	14594.29	3.9820	3.9820	0.8801	26.58	0.63	0.750			
0.2307	14762.39	3.9790	3.9789	0.8790	26.58	0.63	0.750			
0.2333	14934.40	3.9760	3.9762	0.8828	26.58	0.63	0.750			
0.2360	15103.65	3.9730	3.9730	0.8836	26.58	0.63	0.750			
0.2386	15273.30	3.9700	3.9701	0.8895	26.58	0.63	0.750			
0.2413	15443.08	3.9670	3.9670	0.8940	26.58	0.63	0.750			
0.2440	15614.51	3.9640	3.9639	0.9003	26.58	0.63	0.750			
0.2467	15789.29	3.9610	3.9610	0.9015	26.58	0.63	0.750			
0.2494	15964.53	3.9580	3.9580	0.9049	26.58	0.63	0.750			
0.2522	16138.73	3.9550	3.9551	0.9017	26.58	0.63	0.750			
0.2549	16310.87	3.9520	3.9520	0.9003	26.58	0.63	0.750			
0.2575	16482.96	3.9490	3.9490	0.8963	26.58	0.63	0.750			
0.2602	16652.69	3.9460	3.9460	0.8944	26.58	0.63	0.750			
0.2629	16824.71	3.9430	3.9430	0.8981	26.58	0.63	0.750			
0.2656	16999.33	3.9400	3.9401	0.9059	26.58	0.63	0.750			
0.2683	17173.08	3.9370	3.9369	0.9053	26.58	0.63	0.750			
0.2711	17348.36	3.9340	3.9340	0.9063	26.58	0.63	0.750			
0.2738	17521.97	3.9310	3.9311	0.9059	26.58	0.63	0.750			
0.2765	17696.29	3.9280	3.9280	0.9098	26.58	0.63	0.750			
0.2792	17870.04	3.9250	3.9250	0.9113	26.58	0.63	0.750			
0.2819	18044.66	3.9220	3.9221	0.9109	26.58	0.63	0.750			
0.2847	18220.69	3.9190	3.9191	0.9044	26.58	0.63	0.750			
0.2874	18394.52	3.9160	3.9160	0.9139	26.58	0.63	0.750			
0.2901	18569.56	3.9130	3.9129	0.9157	26.58	0.63	0.750			
0.2929	18745.01	3.9100	3.9100	0.9155	26.58	0.63	0.750			
0.2957	18922.59	3.9070	3.9072	0.9129	26.58	0.63	0.750			
0.2984	19098.19	3.9040	3.9040	0.9186	26.57	0.62	0.750			
0.3012	19274.87	3.9010	3.9011	0.9265	26.57	0.62	0.750			
0.3040	19453.17	3.8980	3.8980	0.9305	26.56	0.61	0.750			
0.3067	19629.15	3.8950	3.8948	0.9324	26.56	0.61	0.750			
0.3096	19811.51	3.8920	3.8920	0.9281	26.55	0.60	0.750			
0.3123	19988.76	3.8890	3.8891	0.9401	26.55	0.60	0.750			
0.3151	20168.64	3.8860	3.8859	0.9489	26.55	0.60	0.750			
0.3180	20351.13	3.8830	3.8830	0.9504	26.54	0.59	0.750			
0.3209	20536.07	3.8800	3.8801	0.9550	26.53	0.58	0.750			
0.3238	20721.09	3.8770	3.8770	0.9676	26.53	0.58	0.750			
0.3267	20908.18	3.8740	3.8741	0.9740	26.52	0.57	0.750			
0.3296	21094.41	3.8710	3.8710	0.9772	26.51	0.56	0.750			
0.3326	21284.58	3.8680	3.8681	0.9814	26.51	0.56	0.750			
0.3355	21473.00	3.8650	3.8650	0.9855	26.50	0.55	0.750			
0.3385	21664.58	3.8620	3.8620	0.9907	26.49	0.54	0.750			
0.3415	21854.57	3.8590	3.8591	0.9995	26.49	0.54	0.750			
0.3445	22046.69	3.8560	3.8559	1.0015	26.48	0.53	0.750			
0.3475	22239.43	3.8530	3.8530	1.0037	26.47	0.52	0.750			
0.3505	22431.62	3.8500	3.8499	1.0056	26.46	0.51	0.750			
0.3535	22626.36	3.8470	3.8471	1.0152	26.46	0.51	0.750			
0.3566	22822.12	3.8440	3.8440	1.0179	26.45	0.50	0.750			
0.3597	23018.68	3.8410	3.8409	1.0167	26.44	0.49	0.750			
0.3627	23211.55	3.8380	3.8381	1.0158	26.43	0.48	0.750			
0.3658	23408.68	3.8350	3.8351	1.0240	26.42	0.47	0.750			
0.3688	23605.45	3.8320	3.8319	1.0303	26.41	0.46	0.750			
0.3719	23804.01	3.8290	3.8290	1.0292	26.40	0.45	0.750			
0.3750	24001.48	3.8260	3.8260	1.0305	26.39	0.44	0.750			
0.3781	24200.28	3.8230	3.8230	1.0382	26.38	0.43	0.750			
0.3813	24400.50	3.8200	3.8197	1.0418	26.37	0.42	0.750			
0.3844	24599.25	3.8170	3.8169	1.0361	26.36	0.41	0.750			
0.3874	24796.24	3.8140	3.8141	1.0487	26.36	0.41	0.750			
0.3906	24997.31	3.8110	3.8111	1.0561	26.35	0.40	0.750			
0.3938	25203.27	3.8080	3.8076	1.0564	26.34	0.39	0.750			
0.3970	25407.19	3.8050	3.8051	1.0711	26.33	0.38	0.750			
0.4002	25612.42	3.8020	3.8022	1.0838	26.31	0.36	0.750			
0.4035	25823.23	3.7990	3.7990	1.1021	26.30	0.35	0.750			
0.4068	26034.62	3.7960	3.7958	1.1038	26.29	0.34	0.750			
0.4101	26247.42	3.7930	3.7930	1.1205	26.28	0.33	0.750			
0.4135	26466.71	3.7900	3.7901	1.1405	26.27	0.32	0.750			
0.4170	26687.89	3.7870	3.7870	1.1525	26.26	0.31	0.750			
0.4204	26908.39	3.7840	3.7840	1.1580	26.24	0.29	0.750			
0.4239	27131.07	3.7810	3.7811	1.1712	26.23	0.28	0.750			
0.4274	27356.45	3.7780	3.7780	1.1910	26.22	0.27	0.750			
0.4311	27590.07	3.7750	3.7746	1.2002	26.21	0.26	0.750			
0.4346	27816.83	3.7720	3.7722	1.2166	26.20	0.25	0.750			
0.4382	28047.57	3.7690	3.7691	1.2604	26.19	0.24	0.750			
0.4421	28294.01	3.7660	3.7661	1.2925	26.18	0.23	0.750			
0.4460	28546.13	3.7630	3.7634	1.3385	26.16	0.21	0.750	0.301	0.404	
0.4502	28809.72	3.7600	3.7603	1.3646	26.15	0.20	0.750			
0.4543	29075.61	3.7570	3.7571	1.4040	26.14	0.19	0.750			
0.4587	29354.42	3.7540	3.7541	1.4406	26.13	0.18	0.750			
0.4629	29623.08	3.7510	3.7511	1.4384	26.12	0.17	0.750			
0.4673	29906.54	3.7480	3.7480	1.4739	26.11	0.16	0.750			
0.4719	30199.84	3.7450	3.7450	1.4960	26.10	0.15	0.750			
0.4763	30483.63	3.7420	3.7421	1.5411	26.08	0.13	0.750			
0.4810	30784.45	3.7390	3.7389	1.5634	26.06	0.11	0.750			
0.4856	31080.42	3.7360	3.7359	1.6050	26.04	0.09	0.750			
0.4906	31395.93	3.7330	3.7331	1.6444	26.02	0.07	0.750			
0.4956	31718.72	3.7300	3.7300	1.6740	26.01	0.06	0.750			
0.5007	32043.30	3.7270	3.7271	1.7133	26.00	0.05	0.750			
0.5059	32380.33	3.7240	3.7240	1.7682	25.99	0.04	0.750			
0.5112	32716.99	3.7210	3.7209	1.8095	25.97	0.02	0.750			
0.5167	33070.72	3.7180	3.7179	1.8775	25.96	0.01	0.750			
0.5224	33433.63	3.7150	3.7153	1.9209	25.94	-0.01	0.750			
0.5283	33813.71	3.7120	3.7121	2.0018	25.92	-0.03	0.750			
0.5345	34209.36	3.7090	3.7094	2.0581	25.90	-0.05	0.750			
0.5407	34604.83	3.7060	3.7058	2.1020	25.88	-0.07	0.750			
0.5472	35018.30	3.7030	3.7034	2.1755	25.86	-0.09	0.750			
0.5537	35433.85	3.7000	3.6999	2.2699	25.85	-0.10	0.750			
0.5606	35881.04	3.6970	3.6969	2.3478	25.84	-0.11	0.750			
0.5678	36336.28	3.6940	3.6939	2.3742	25.82	-0.13	0.750			
0.5752	36812.73	3.6910	3.6911	2.4537	25.81	-0.14	0.750			
0.5826	37284.63	3.6880	3.6880	2.5164	25.80	-0.15	0.750			
0.5900	37762.70	3.6850	3.6850	2.6215	25.78	-0.17	0.750			
0.5980	38272.18	3.6820	3.6818	2.7065	25.76	-0.19	0.750			
0.6064	38809.20	3.6790	3.6790	2.7888	25.75	-0.20	0.750			
0.6148	39344.68	3.6760	3.6760	2.8732	25.74	-0.21	0.750			
0.6236	39912.84	3.6730	3.6729	2.9417	25.72	-0.23	0.750			
0.6325	40481.32	3.6700	3.6701	3.0020	25.71	-0.24	0.750			
0.6420	41088.09	3.6670	3.6669	2.9356	25.70	-0.25	0.750			
0.6509	41659.36	3.6640	3.6639	2.7155	25.70	-0.25	0.750			
0.6585	42146.22	3.6610	3.6612	2.4570	25.70	-0.25	0.750			
0.6652	42575.09	3.6580	3.6582	2.1849	25.70	-0.25	0.750			
0.6713	42966.23	3.6550	3.6548	1.9522	25.70	-0.25	0.750			
0.6766	43302.72	3.6520	3.6517	1.7832	25.71	-0.24	0.750			
0.6817	43625.81	3.6490	3.6486	1.6713	25.72	-0.23	0.750			
0.6865	43938.34	3.6460	3.6459	1.5684	25.72	-0.23	0.750			
0.6911	44230.45	3.6430	3.6432	1.4652	25.72	-0.23	0.750			
0.6954	44505.71	3.6400	3.6403	1.3742	25.72	-0.23	0.750			
0.6993	44757.43	3.6370	3.6370	1.2881	25.72	-0.23	0.750			
0.7029	44986.10	3.6340	3.6341	1.2372	25.71	-0.24	0.750			
0.7065	45217.91	3.6310	3.6307	1.2091	25.71	-0.24	0.750			
0.7100	45442.31	3.6280	3.6281	1.2056	25.71	-0.24	0.750			
0.7137	45673.69	3.6250	3.6251	1.2139	25.72	-0.23	0.750			
0.7174	45912.18	3.6220	3.6219	1.2182	25.72	-0.23	0.750			
0.7211	46148.78	3.6190	3.6191	1.2317	25.72	-0.23	0.750			
0.7247	46380.97	3.6160	3.6160	1.2278	25.72	-0.23	0.750			
0.7284	46618.54	3.6130	3.6130	1.2214	25.72	-0.23	0.750			
0.7321	46857.55	3.6100	3.6100	1.1942	25.72	-0.23	0.750			
0.7357	47085.22	3.6070	3.6071	1.1651	25.72	-0.23	0.750			
0.7392	47306.85	3.6040	3.6042	1.1511	25.72	-0.23	0.750			
0.7426	47524.14	3.6010	3.6010	1.1321	25.72	-0.23	0.750			
0.7458	47732.74	3.5980	3.5979	1.1352	25.72	-0.23	0.750			
0.7491	47944.79	3.5950	3.5951	1.1475	25.72	-0.23	0.750			
0.7526	48167.79	3.5920	3.5920	1.1760	25.72	-0.23	0.750			
0.7563	48401.61	3.5890	3.5890	1.2080	25.72	-0.23	0.750			
0.7598	48626.83	3.5860	3.5862	1.2487	25.72	-0.23	0.750			
0.7636	48869.68	3.5830	3.5830	1.2945	25.72	-0.23	0.750			
0.7676	49124.75	3.5800	3.5799	1.3270	25.72	-0.23	0.750			
0.7715	49378.12	3.5770	3.5769	1.3772	25.72	-0.23	0.750			
0.7757	49646.95	3.5740	3.5744	1.4318	25.72	-0.23	0.750			
0.7801	49929.25	3.5710	3.5709	1.4764	25.72	-0.23	0.750			
0.7847	50223.67	3.5680	3.5681	1.5077	25.72	-0.23	0.750			
0.7892	50510.64	3.5650	3.5652	1.5293	25.72	-0.23	0.750			
0.7939	50812.50	3.5620	3.5618	1.5738	25.72	-0.23	0.750			
0.7988	51122.95	3.5590	3.5590	1.6259	25.72	-0.23	0.750			
0.8037	51436.63	3.5560	3.5562	1.6187	25.72	-0.23	0.750			
0.8087	51758.32	3.5530	3.5529	1.6375	25.72	-0.23	0.750			
0.8137	52074.53	3.5500	3.5504	1.6458	25.72	-0.23	0.750			
0.8187	52399.16	3.5470	3.5467	1.6618	25.72	-0.23	0.750			
0.8237	52714.51	3.5440	3.5442	1.6690	25.72	-0.23	0.750			
0.8285	53027.09	3.5410	3.5413	1.6980	25.72	-0.23	0.750			
0.8336	53351.88	3.5380	3.5381	1.7431	25.73	-0.22	0.750			
0.8390	53696.37	3.5350	3.5351	1.7622	25.74	-0.21	0.750			
0.8448	54065.92	3.5320	3.5315	1.6919	25.75	-0.20	0.750			
0.8501	54404.35	3.5290	3.5288	1.5536	25.77	-0.18	0.750			
0.8548	54706.87	3.5260	3.5265	1.3229	25.79	-0.16	0.750			
0.8586	54953.09	3.5230	3.5232	1.0638	25.80	-0.15	0.750			
0.8609	55098.16	3.5200	3.5198	0.7819	25.81	-0.14	0.750			
0.8624	55196.79	3.5170	3.5167	0.5534	25.82	-0.13	0.750			
0.8636	55271.53	3.5140	3.5140	0.4387	25.83	-0.12	0.750			
0.8647	55343.73	3.5110	3.5108	0.3828	25.83	-0.12	0.750			
0.8657	55406.80	3.5080	3.5080	0.3446	25.84	-0.11	0.750			
0.8667	55470.14	3.5050	3.5050	0.3262	25.84	-0.11	0.750			
0.8677	55529.69	3.5020	3.5020	0.3124	25.84	-0.11	0.750			
0.8686	55588.34	3.4990	3.4989	0.3008	25.85	-0.10	0.750			
0.8694	55644.56	3.4960	3.4959	0.2902	25.85	-0.10	0.750			
0.8703	55699.43	3.4930	3.4932	0.2825	25.85	-0.10	0.750			
0.8711	55752.20	3.4900	3.4901	0.2749	25.86	-0.09	0.750			
0.8719	55804.70	3.4870	3.4869	0.2694	25.87	-0.08	0.750			
0.8727	55855.13	3.4840	3.4840	0.2625	25.88	-0.07	0.750			
0.8735	55904.25	3.4810	3.4810	0.2576	25.88	-0.07	0.750			
0.8743	55953.95	3.4780	3.4780	0.2539	25.89	-0.06	0.750			
0.8750	56002.59	3.4750	3.4750	0.2490	25.90	-0.05	0.750			
0.8758	56049.96	3.4720	3.4719	0.2435	25.90	-0.05	0.750			
0.8765	56096.17	3.4690	3.4691	0.2383	25.91	-0.04	0.750			
0.8772	56141.42	3.4660	3.4659	0.2332	25.91	-0.04	0.750			
0.8779	56185.86	3.4630	3.4630	0.2281	25.92	-0.03	0.750			
0.8786	56229.22	3.4600	3.4599	0.2211	25.93	-0.02	0.750			
0.8792	56270.67	3.4570	3.4570	0.2153	25.93	-0.02	0.750			
0.8799	56311.36	3.4540	3.4541	0.2113	25.94	-0.01	0.750			
0.8805	56351.32	3.4510	3.4512	0.2064	25.94	-0.01	0.750			
0.8811	56390.33	3.4480	3.4478	0.2021	25.95	-0.00	0.750			
0.8817	56428.64	3.4450	3.4450	0.1969	25.95	0.00	0.750			
0.8823	56466.24	3.4420	3.4421	0.1926	25.96	0.01	0.750			
0.8829	56502.79	3.4390	3.4391	0.1881	25.96	0.01	0.750			
0.8834	56539.26	3.4360	3.4360	0.1834	25.97	0.02	0.750			
0.8840	56573.59	3.4330	3.4329	0.1776	25.97	0.02	0.750			
0.8845	56606.88	3.4300	3.4300	0.1719	25.98	0.03	0.750			
0.8850	56639.43	3.4270	3.4271	0.1671	25.98	0.03	0.750			
0.8855	56671.22	3.4240	3.4240	0.1610	25.99	0.04	0.750			
0.8860	56701.81	3.4210	3.4210	0.1556	25.99	0.04	0.750			
0.8864	56730.99	3.4180	3.4181	0.1498	26.00	0.05	0.750			
0.8869	56759.21	3.4150	3.4150	0.1441	26.00	0.05	0.750			
0.8873	56786.37	3.4120	3.4118	0.1382	26.00	0.05	0.750			
0.8877	56812.43	3.4090	3.4090	0.1315	26.01	0.06	0.750			
0.8881	56837.14	3.4060	3.4059	0.1254	26.01	0.06	0.750			
0.8884	56860.74	3.4030	3.4032	0.1185	26.01	0.06	0.750			
0.8888	56883.28	3.4000	3.4000	0.1122	26.02	0.07	0.750			
0.8891	56905.30	3.3970	3.3970	0.1034	26.02	0.07	0.750			
0.8894	56924.45	3.3940	3.3938	0.0948	26.02	0.07	0.750			
0.8897	56941.67	3.3910	3.3910	0.0846	26.02	0.07	0.750			
0.8900	56957.59	3.3880	3.3882	0.0753	26.03	0.08	0.750			
0.8902	56970.97	3.3850	3.3855	0.0642	26.03	0.08	0.750			
0.8904	56983.37	3.3820	3.3823	0.0521	26.03	0.08	0.750			
0.8905	56992.11	3.3790	3.3797	0.0390	26.03	0.08	0.750			
0.8906	56998.33	3.3760	3.3775	0.0258	26.03	0.08	0.750			
