Ah_balance (normalized)	Ah_balance (mAh)	Voltage - fit (V)	Voltage -  interpolate (V)	dQ/dV (1/V)	Temperature (°C)	Temperature - diff (°C)	Current (C)	R_DC 0ms (mOhm)	R_DC 50ms (mOhm)	R_DC 50 ms PEC (mOhm)
0.0004	25.08	4.1620	4.1622	-0.1366	25.72	0.00	-0.750			
0.0009	56.02	4.1590	4.1589	-0.1804	25.72	-0.00	-0.750			
0.0015	94.97	4.1560	4.1559	-0.2206	25.72	-0.00	-0.750			
0.0022	142.02	4.1530	4.1530	-0.2574	25.71	-0.01	-0.750			
0.0030	195.06	4.1500	4.1500	-0.2932	25.71	-0.01	-0.750			
0.0040	255.43	4.1470	4.1470	-0.3300	25.71	-0.01	-0.750			
0.0050	322.01	4.1440	4.1440	-0.3647	25.71	-0.01	-0.750			
0.0062	395.30	4.1410	4.1409	-0.3985	25.70	-0.02	-0.750			
0.0074	475.29	4.1380	4.1380	-0.4318	25.70	-0.02	-0.750			
0.0088	561.96	4.1350	4.1350	-0.4640	25.69	-0.03	-0.750			
0.0102	655.29	4.1320	4.1320	-0.4890	25.69	-0.03	-0.750			
0.0118	753.33	4.1290	4.1290	-0.5124	25.68	-0.04	-0.750			
0.0133	854.01	4.1260	4.1261	-0.5319	25.68	-0.04	-0.750			
0.0150	957.65	4.1230	4.1229	-0.5518	25.68	-0.04	-0.750			
0.0167	1065.68	4.1200	4.1200	-0.5674	25.67	-0.05	-0.750			
0.0184	1175.90	4.1170	4.1170	-0.5843	25.67	-0.05	-0.750			
0.0202	1290.72	4.1140	4.1140	-0.5989	25.67	-0.05	-0.750			
0.0220	1408.91	4.1110	4.1109	-0.6091	25.67	-0.05	-0.750			
0.0239	1527.06	4.1080	4.1080	-0.6206	25.66	-0.06	-0.750			
0.0257	1646.54	4.1050	4.1051	-0.6296	25.66	-0.06	-0.750			
0.0276	1768.10	4.1020	4.1020	-0.6364	25.66	-0.06	-0.750			
0.0296	1892.34	4.0990	4.0989	-0.6434	25.65	-0.07	-0.750			
0.0315	2015.60	4.0960	4.0961	-0.6521	25.65	-0.07	-0.750			
0.0335	2143.17	4.0930	4.0930	-0.6621	25.65	-0.07	-0.750			
0.0355	2270.98	4.0900	4.0899	-0.6656	25.64	-0.08	-0.750			
0.0375	2398.37	4.0870	4.0870	-0.6705	25.64	-0.08	-0.750			
0.0395	2528.57	4.0840	4.0839	-0.6752	25.64	-0.08	-0.750			
0.0415	2659.03	4.0810	4.0810	-0.6815	25.63	-0.09	-0.750			
0.0436	2789.37	4.0780	4.0780	-0.6881	25.63	-0.09	-0.750			
0.0456	2921.22	4.0750	4.0751	-0.6893	25.63	-0.09	-0.750			
0.0478	3056.40	4.0720	4.0719	-0.6960	25.62	-0.10	-0.750			
0.0498	3190.13	4.0690	4.0690	-0.7006	25.62	-0.10	-0.750			
0.0519	3323.91	4.0660	4.0661	-0.7040	25.62	-0.10	-0.750			
0.0541	3460.18	4.0630	4.0629	-0.7106	25.62	-0.10	-0.750			
0.0562	3597.44	4.0600	4.0600	-0.7134	25.62	-0.10	-0.750			
0.0584	3735.18	4.0570	4.0570	-0.7164	25.62	-0.10	-0.750			
0.0605	3874.96	4.0540	4.0540	-0.7210	25.62	-0.10	-0.750			
0.0627	4012.90	4.0510	4.0511	-0.7210	25.62	-0.10	-0.750			
0.0648	4150.04	4.0480	4.0479	-0.7211	25.62	-0.10	-0.750			
0.0670	4288.56	4.0450	4.0449	-0.7236	25.62	-0.10	-0.750			
0.0692	4428.07	4.0420	4.0420	-0.7265	25.62	-0.10	-0.750			
0.0714	4568.70	4.0390	4.0390	-0.7239	25.62	-0.10	-0.750			
0.0736	4709.35	4.0360	4.0360	-0.7253	25.62	-0.10	-0.750			
0.0758	4848.36	4.0330	4.0332	-0.7234	25.62	-0.10	-0.750			
0.0779	4985.40	4.0300	4.0298	-0.7200	25.62	-0.10	-0.750			
0.0800	5122.21	4.0270	4.0270	-0.7256	25.62	-0.10	-0.750			
0.0822	5261.09	4.0240	4.0241	-0.7290	25.62	-0.10	-0.750			
0.0844	5403.79	4.0210	4.0209	-0.7387	25.62	-0.10	-0.750			
0.0867	5546.40	4.0180	4.0180	-0.7407	25.62	-0.10	-0.750			
0.0889	5689.05	4.0150	4.0151	-0.7413	25.62	-0.10	-0.750			
0.0911	5832.23	4.0120	4.0120	-0.7412	25.62	-0.10	-0.750			
0.0933	5974.37	4.0090	4.0090	-0.7459	25.62	-0.10	-0.750			
0.0956	6116.91	4.0060	4.0059	-0.7457	25.62	-0.10	-0.750			
0.0978	6262.12	4.0030	4.0029	-0.7438	25.62	-0.10	-0.750			
0.1001	6404.80	4.0000	4.0001	-0.7474	25.62	-0.10	-0.750			
0.1023	6548.40	3.9970	3.9970	-0.7467	25.62	-0.10	-0.750			
0.1046	6691.55	3.9940	3.9940	-0.7487	25.63	-0.09	-0.750			
0.1068	6835.42	3.9910	3.9909	-0.7562	25.63	-0.09	-0.750			
0.1091	6980.14	3.9880	3.9880	-0.7555	25.63	-0.09	-0.750			
0.1114	7128.89	3.9850	3.9849	-0.7636	25.64	-0.08	-0.750			
0.1137	7276.55	3.9820	3.9821	-0.7639	25.64	-0.08	-0.750			
0.1160	7421.62	3.9790	3.9790	-0.7649	25.64	-0.08	-0.750			
0.1183	7569.40	3.9760	3.9760	-0.7677	25.64	-0.08	-0.750			
0.1205	7714.17	3.9730	3.9731	-0.7615	25.64	-0.08	-0.750			
0.1229	7863.89	3.9700	3.9699	-0.7691	25.64	-0.08	-0.750			
0.1252	8011.66	3.9670	3.9671	-0.7721	25.64	-0.08	-0.750			
0.1275	8159.05	3.9640	3.9640	-0.7737	25.64	-0.08	-0.750			
0.1298	8307.57	3.9610	3.9609	-0.7785	25.64	-0.08	-0.750			
0.1321	8457.07	3.9580	3.9580	-0.7796	25.65	-0.07	-0.750			
0.1345	8608.20	3.9550	3.9550	-0.7846	25.65	-0.07	-0.750			
0.1369	8760.69	3.9520	3.9520	-0.7830	25.65	-0.07	-0.750			
0.1392	8910.28	3.9490	3.9490	-0.7811	25.65	-0.07	-0.750			
0.1415	9057.10	3.9460	3.9461	-0.7872	25.65	-0.07	-0.750			
0.1439	9210.01	3.9430	3.9430	-0.7880	25.65	-0.07	-0.750			
0.1463	9361.00	3.9400	3.9399	-0.7892	25.66	-0.06	-0.750			
0.1486	9513.44	3.9370	3.9369	-0.7928	25.66	-0.06	-0.750			
0.1510	9666.35	3.9340	3.9342	-0.7992	25.66	-0.06	-0.750			
0.1534	9820.78	3.9310	3.9308	-0.8001	25.66	-0.06	-0.750			
0.1558	9974.06	3.9280	3.9279	-0.8044	25.67	-0.05	-0.750			
0.1583	10128.54	3.9250	3.9250	-0.7984	25.67	-0.05	-0.750			
0.1607	10284.57	3.9220	3.9220	-0.8069	25.68	-0.04	-0.750			
0.1631	10440.19	3.9190	3.9193	-0.8056	25.68	-0.04	-0.750			
0.1655	10593.65	3.9160	3.9159	-0.8029	25.68	-0.04	-0.750			
0.1679	10747.21	3.9130	3.9130	-0.8093	25.69	-0.03	-0.750			
0.1704	10903.29	3.9100	3.9099	-0.8061	25.69	-0.03	-0.750			
0.1728	11059.30	3.9070	3.9069	-0.8132	25.70	-0.02	-0.750			
0.1752	11215.59	3.9040	3.9044	-0.8106	25.70	-0.02	-0.750			
0.1777	11370.76	3.9010	3.9009	-0.8072	25.70	-0.02	-0.750			
0.1801	11524.85	3.8980	3.8979	-0.8127	25.70	-0.02	-0.750			
0.1825	11677.94	3.8950	3.8950	-0.8117	25.70	-0.02	-0.750			
0.1850	11837.25	3.8920	3.8919	-0.8212	25.70	-0.02	-0.750			
0.1874	11995.22	3.8890	3.8891	-0.8207	25.70	-0.02	-0.750			
0.1899	12152.83	3.8860	3.8860	-0.8202	25.70	-0.02	-0.750			
0.1924	12310.50	3.8830	3.8830	-0.8258	25.71	-0.01	-0.750			
0.1948	12469.58	3.8800	3.8799	-0.8214	25.71	-0.01	-0.750			
0.1973	12625.27	3.8770	3.8771	-0.8210	25.71	-0.01	-0.750			
0.1997	12783.88	3.8740	3.8740	-0.8249	25.72	-0.00	-0.750			
0.2022	12943.20	3.8710	3.8711	-0.8259	25.72	0.00	-0.750			
0.2047	13102.28	3.8680	3.8679	-0.8284	25.73	0.01	-0.750			
0.2072	13260.40	3.8650	3.8651	-0.8309	25.74	0.02	-0.750			
0.2097	13420.60	3.8620	3.8620	-0.8305	25.74	0.02	-0.750			
0.2122	13582.29	3.8590	3.8589	-0.8371	25.75	0.03	-0.750			
0.2147	13741.74	3.8560	3.8559	-0.8347	25.75	0.03	-0.750			
0.2172	13902.50	3.8530	3.8530	-0.8353	25.76	0.04	-0.750			
0.2197	14062.30	3.8500	3.8500	-0.8370	25.76	0.04	-0.750			
0.2222	14223.28	3.8470	3.8470	-0.8333	25.76	0.04	-0.750			
0.2248	14384.84	3.8440	3.8440	-0.8339	25.77	0.05	-0.750			
0.2273	14545.44	3.8410	3.8409	-0.8337	25.77	0.05	-0.750			
0.2298	14704.79	3.8380	3.8381	-0.8316	25.77	0.05	-0.750			
0.2323	14864.63	3.8350	3.8349	-0.8281	25.78	0.06	-0.750			
0.2347	15022.29	3.8320	3.8320	-0.8280	25.78	0.06	-0.750			
0.2372	15181.01	3.8290	3.8290	-0.8255	25.78	0.06	-0.750			
0.2397	15340.51	3.8260	3.8259	-0.8258	25.78	0.06	-0.750			
0.2422	15498.59	3.8230	3.8230	-0.8288	25.79	0.07	-0.750			
0.2447	15658.36	3.8200	3.8201	-0.8284	25.80	0.08	-0.750			
0.2471	15817.27	3.8170	3.8170	-0.8285	25.80	0.08	-0.750			
0.2497	15977.83	3.8140	3.8139	-0.8319	25.81	0.09	-0.750			
0.2521	16136.21	3.8110	3.8111	-0.8312	25.81	0.09	-0.750			
0.2546	16296.79	3.8080	3.8080	-0.8356	25.81	0.09	-0.750			
0.2571	16457.53	3.8050	3.8050	-0.8355	25.81	0.09	-0.750			
0.2597	16618.60	3.8020	3.8019	-0.8273	25.81	0.09	-0.750			
0.2622	16779.17	3.7990	3.7991	-0.8294	25.81	0.09	-0.750			
0.2646	16936.56	3.7960	3.7959	-0.8240	25.81	0.09	-0.750			
0.2671	17093.49	3.7930	3.7930	-0.8206	25.81	0.09	-0.750			
0.2695	17251.06	3.7900	3.7899	-0.8127	25.82	0.10	-0.750			
0.2720	17404.89	3.7870	3.7870	-0.8072	25.82	0.10	-0.750			
0.2744	17561.15	3.7840	3.7841	-0.8093	25.82	0.10	-0.750			
0.2768	17717.59	3.7810	3.7809	-0.8045	25.82	0.10	-0.750			
0.2792	17869.02	3.7780	3.7780	-0.8034	25.83	0.11	-0.750			
0.2816	18023.97	3.7750	3.7750	-0.8009	25.83	0.11	-0.750			
0.2840	18177.04	3.7720	3.7720	-0.8011	25.84	0.12	-0.750			
0.2864	18332.62	3.7690	3.7690	-0.8015	25.85	0.13	-0.750			
0.2888	18485.95	3.7660	3.7660	-0.7982	25.85	0.13	-0.750			
0.2912	18637.41	3.7630	3.7630	-0.8004	25.85	0.13	-0.750			
0.2936	18791.77	3.7600	3.7600	-0.8018	25.85	0.13	-0.750			
0.2960	18945.28	3.7570	3.7569	-0.7939	25.85	0.13	-0.750			
0.2984	19099.39	3.7540	3.7539	-0.7951	25.85	0.13	-0.750			
0.3008	19250.54	3.7510	3.7513	-0.7915	25.85	0.13	-0.750			
0.3032	19402.51	3.7480	3.7479	-0.7903	25.85	0.13	-0.750			
0.3055	19552.59	3.7450	3.7450	-0.7982	25.86	0.14	-0.750			
0.3079	19706.24	3.7420	3.7419	-0.8022	25.86	0.14	-0.750			
0.3103	19861.29	3.7390	3.7389	-0.8105	25.87	0.15	-0.750			
0.3128	20018.40	3.7360	3.7363	-0.8184	25.87	0.15	-0.750			
0.3152	20175.62	3.7330	3.7330	-0.8270	25.87	0.15	-0.750			
0.3177	20335.30	3.7300	3.7300	-0.8394	25.88	0.16	-0.750			
0.3202	20495.81	3.7270	3.7270	-0.8459	25.88	0.16	-0.750			
0.3228	20660.21	3.7240	3.7239	-0.8620	25.89	0.17	-0.750			
0.3254	20826.45	3.7210	3.7213	-0.8716	25.89	0.17	-0.750			
0.3280	20993.83	3.7180	3.7180	-0.8877	25.89	0.17	-0.750			
0.3307	21166.05	3.7150	3.7150	-0.8976	25.89	0.17	-0.750			
0.3334	21337.67	3.7120	3.7119	-0.9079	25.89	0.17	-0.750			
0.3362	21515.75	3.7090	3.7090	-0.9291	25.89	0.17	-0.750			
0.3390	21695.00	3.7060	3.7061	-0.9413	25.89	0.17	-0.750			
0.3418	21876.99	3.7030	3.7029	-0.9604	25.89	0.17	-0.750			
0.3447	22063.75	3.7000	3.7000	-0.9742	25.88	0.16	-0.750			
0.3477	22249.64	3.6970	3.6969	-0.9896	25.88	0.16	-0.750			
0.3507	22442.14	3.6940	3.6942	-1.0194	25.88	0.16	-0.750			
0.3537	22639.50	3.6910	3.6910	-1.0377	25.88	0.16	-0.750			
0.3569	22841.58	3.6880	3.6879	-1.0566	25.87	0.15	-0.750			
0.3601	23046.55	3.6850	3.6851	-1.0768	25.87	0.15	-0.750			
0.3634	23255.41	3.6820	3.6823	-1.1056	25.87	0.15	-0.750			
0.3667	23469.70	3.6790	3.6790	-1.1262	25.87	0.15	-0.750			
0.3701	23686.45	3.6760	3.6760	-1.1434	25.86	0.14	-0.750			
0.3736	23907.58	3.6730	3.6729	-1.1689	25.86	0.14	-0.750			
0.3771	24136.48	3.6700	3.6700	-1.1964	25.86	0.14	-0.750			
0.3808	24368.42	3.6670	3.6670	-1.2185	25.86	0.14	-0.750			
0.3844	24603.76	3.6640	3.6640	-1.2418	25.85	0.13	-0.750			
0.3882	24842.06	3.6610	3.6611	-1.2702	25.85	0.13	-0.750			
0.3921	25091.77	3.6580	3.6579	-1.3023	25.84	0.12	-0.750			
0.3960	25343.75	3.6550	3.6550	-1.3357	25.83	0.11	-0.750			
0.4001	25604.27	3.6520	3.6521	-1.3696	25.82	0.10	-0.750			
0.4042	25871.15	3.6490	3.6489	-1.4032	25.82	0.10	-0.750			
0.4085	26144.88	3.6460	3.6460	-1.4263	25.81	0.09	-0.750			
0.4128	26421.10	3.6430	3.6432	-1.4485	25.81	0.09	-0.750			
0.4172	26700.10	3.6400	3.6399	-1.4791	25.80	0.08	-0.750			
0.4217	26989.34	3.6370	3.6371	-1.5050	25.80	0.08	-0.750			
0.4262	27279.93	3.6340	3.6340	-1.5349	25.79	0.07	-0.750			
0.4309	27579.22	3.6310	3.6311	-1.5814	25.78	0.06	-0.750			
0.4357	27886.72	3.6280	3.6279	-1.6082	25.77	0.05	-0.750			
0.4406	28197.25	3.6250	3.6248	-1.6467	25.77	0.05	-0.750			
0.4456	28518.45	3.6220	3.6221	-1.6673	25.76	0.04	-0.750			
0.4506	28840.86	3.6190	3.6192	-1.6868	25.75	0.03	-0.750	0.392	0.511	
0.4558	29170.01	3.6160	3.6160	-1.7039	25.75	0.03	-0.750			
0.4609	29497.90	3.6130	3.6130	-1.7438	25.74	0.02	-0.750			
0.4661	29833.29	3.6100	3.6102	-1.7653	25.74	0.02	-0.750			
0.4715	30172.90	3.6070	3.6071	-1.8108	25.73	0.01	-0.750			
0.4769	30519.70	3.6040	3.6040	-1.8497	25.73	0.01	-0.750			
0.4826	30883.79	3.6010	3.6010	-1.8880	25.72	-0.00	-0.750			
0.4884	31257.45	3.5980	3.5981	-1.9412	25.71	-0.01	-0.750			
0.4942	31628.80	3.5950	3.5952	-1.9814	25.71	-0.01	-0.750			
0.5002	32012.46	3.5920	3.5919	-2.0128	25.70	-0.02	-0.750			
0.5063	32405.62	3.5890	3.5892	-2.0565	25.70	-0.02	-0.750			
0.5126	32806.35	3.5860	3.5859	-2.0765	25.70	-0.02	-0.750			
0.5189	33208.67	3.5830	3.5830	-2.1181	25.70	-0.02	-0.750			
0.5253	33618.20	3.5800	3.5800	-2.1456	25.70	-0.02	-0.750			
0.5318	34038.18	3.5770	3.5772	-2.1769	25.69	-0.03	-0.750			
0.5383	34450.18	3.5740	3.5741	-2.1944	25.68	-0.04	-0.750			
0.5449	34876.57	3.5710	3.5711	-2.2314	25.68	-0.04	-0.750			
0.5517	35309.71	3.5680	3.5681	-2.2516	25.68	-0.04	-0.750			
0.5586	35750.02	3.5650	3.5648	-2.2843	25.68	-0.04	-0.750			
0.5654	36184.37	3.5620	3.5620	-2.2802	25.68	-0.04	-0.750			
0.5723	36630.34	3.5590	3.5591	-2.2880	25.69	-0.03	-0.750			
0.5792	37068.36	3.5560	3.5559	-2.2842	25.69	-0.03	-0.750			
0.5861	37511.68	3.5530	3.5530	-2.2660	25.69	-0.03	-0.750			
0.5929	37944.75	3.5500	3.5500	-2.2609	25.69	-0.03	-0.750			
0.5997	38381.02	3.5470	3.5471	-2.2556	25.69	-0.03	-0.750			
0.6064	38809.36	3.5440	3.5442	-2.2199	25.69	-0.03	-0.750			
0.6131	39238.09	3.5410	3.5408	-2.1969	25.70	-0.02	-0.750			
0.6198	39664.34	3.5380	3.5379	-2.1571	25.71	-0.01	-0.750			
0.6262	40076.65	3.5350	3.5350	-2.1051	25.71	-0.01	-0.750			
0.6325	40477.65	3.5320	3.5319	-2.0736	25.72	0.00	-0.750			
0.6385	40863.10	3.5290	3.5293	-2.0063	25.73	0.01	-0.750			
0.6444	41241.12	3.5260	3.5259	-1.9721	25.74	0.02	-0.750			
0.6503	41617.33	3.5230	3.5230	-1.9362	25.75	0.03	-0.750			
0.6560	41984.91	3.5200	3.5202	-1.9215	25.76	0.04	-0.750			
0.6619	42362.73	3.5170	3.5170	-1.9004	25.77	0.05	-0.750			
0.6675	42721.31	3.5140	3.5140	-1.8223	25.78	0.06	-0.750			
0.6729	43068.59	3.5110	3.5109	-1.7595	25.79	0.07	-0.750			
0.6781	43398.90	3.5080	3.5079	-1.7100	25.80	0.08	-0.750			
0.6831	43717.92	3.5050	3.5050	-1.6559	25.81	0.09	-0.750			
0.6880	44031.46	3.5020	3.5019	-1.6020	25.82	0.10	-0.750			
0.6927	44333.27	3.4990	3.4990	-1.5421	25.84	0.12	-0.750			
0.6973	44625.73	3.4960	3.4960	-1.5087	25.86	0.14	-0.750			
0.7019	44918.58	3.4930	3.4930	-1.4677	25.88	0.16	-0.750			
0.7062	45196.27	3.4900	3.4898	-1.4060	25.89	0.17	-0.750			
0.7102	45454.32	3.4870	3.4868	-1.3543	25.91	0.19	-0.750			
0.7142	45708.22	3.4840	3.4842	-1.3141	25.92	0.20	-0.750			
0.7182	45962.14	3.4810	3.4809	-1.2791	25.94	0.22	-0.750			
0.7219	46201.80	3.4780	3.4780	-1.2337	25.96	0.24	-0.750			
0.7255	46428.96	3.4750	3.4751	-1.1807	25.97	0.25	-0.750			
0.7291	46659.37	3.4720	3.4720	-1.1626	25.99	0.27	-0.750			
0.7325	46880.18	3.4690	3.4688	-1.1234	26.00	0.28	-0.750			
0.7358	47089.38	3.4660	3.4659	-1.0795	26.02	0.30	-0.750			
0.7390	47293.32	3.4630	3.4631	-1.0443	26.03	0.31	-0.750			
0.7421	47492.24	3.4600	3.4600	-1.0127	26.05	0.33	-0.750			
0.7450	47683.13	3.4570	3.4570	-0.9760	26.06	0.34	-0.750			
0.7479	47862.74	3.4540	3.4540	-0.9371	26.08	0.36	-0.750			
0.7506	48040.47	3.4510	3.4512	-0.9237	26.09	0.37	-0.750			
0.7533	48212.53	3.4480	3.4479	-0.9053	26.10	0.38	-0.750			
0.7560	48382.67	3.4450	3.4449	-0.8940	26.11	0.39	-0.750			
0.7586	48550.07	3.4420	3.4420	-0.8936	26.12	0.40	-0.750			
0.7613	48723.03	3.4390	3.4390	-0.9057	26.12	0.40	-0.750			
0.7640	48897.58	3.4360	3.4359	-0.9100	26.14	0.42	-0.750			
0.7667	49070.53	3.4330	3.4330	-0.9318	26.15	0.43	-0.750			
0.7696	49251.32	3.4300	3.4300	-0.9501	26.16	0.44	-0.750			
0.7724	49435.91	3.4270	3.4269	-0.9710	26.18	0.46	-0.750			
0.7754	49624.84	3.4240	3.4243	-0.9947	26.19	0.47	-0.750			
0.7784	49817.41	3.4210	3.4210	-1.0081	26.20	0.48	-0.750			
0.7815	50015.73	3.4180	3.4180	-1.0203	26.21	0.49	-0.750			
0.7846	50214.28	3.4150	3.4149	-1.0265	26.22	0.50	-0.750			
0.7877	50413.47	3.4120	3.4121	-1.0248	26.23	0.51	-0.750			
0.7908	50612.73	3.4090	3.4090	-1.0124	26.24	0.52	-0.750			
0.7939	50808.95	3.4060	3.4059	-0.9899	26.25	0.53	-0.750			
0.7968	50996.63	3.4030	3.4030	-0.9594	26.26	0.54	-0.750			
0.7997	51178.84	3.4000	3.3999	-0.9272	26.27	0.55	-0.750			
0.8024	51351.96	3.3970	3.3969	-0.8933	26.27	0.55	-0.750			
0.8050	51520.25	3.3940	3.3939	-0.8626	26.28	0.56	-0.750			
0.8075	51682.00	3.3910	3.3910	-0.8291	26.29	0.57	-0.750			
0.8100	51837.44	3.3880	3.3880	-0.7942	26.29	0.57	-0.750			
0.8123	51990.05	3.3850	3.3851	-0.7697	26.30	0.58	-0.750			
0.8146	52133.15	3.3820	3.3819	-0.7395	26.31	0.59	-0.750			
0.8167	52271.65	3.3790	3.3790	-0.7119	26.32	0.60	-0.750			
0.8188	52404.30	3.3760	3.3759	-0.6846	26.32	0.60	-0.750			
0.8208	52532.96	3.3730	3.3731	-0.6574	26.33	0.61	-0.750			
0.8228	52659.65	3.3700	3.3700	-0.6369	26.34	0.62	-0.750			
0.8247	52779.26	3.3670	3.3670	-0.6105	26.35	0.63	-0.750			
0.8265	52893.44	3.3640	3.3640	-0.5852	26.35	0.63	-0.750			
0.8282	53002.54	3.3610	3.3610	-0.5622	26.36	0.64	-0.750			
0.8298	53107.57	3.3580	3.3579	-0.5398	26.37	0.65	-0.750			
0.8314	53208.88	3.3550	3.3550	-0.5206	26.37	0.65	-0.750			
0.8329	53307.64	3.3520	3.3520	-0.5051	26.38	0.66	-0.750			
0.8344	53402.25	3.3490	3.3490	-0.4861	26.39	0.67	-0.750			
0.8359	53494.43	3.3460	3.3458	-0.4691	26.39	0.67	-0.750			
0.8372	53582.36	3.3430	3.3430	-0.4510	26.40	0.68	-0.750			
0.8386	53667.60	3.3400	3.3400	-0.4341	26.40	0.68	-0.750			
0.8398	53749.32	3.3370	3.3370	-0.4193	26.41	0.69	-0.750			
0.8411	53828.02	3.3340	3.3339	-0.4038	26.42	0.70	-0.750			
0.8422	53903.34	3.3310	3.3310	-0.3875	26.42	0.70	-0.750			
0.8434	53976.50	3.3280	3.3280	-0.3749	26.43	0.71	-0.750			
0.8445	54046.88	3.3250	3.3250	-0.3624	26.44	0.72	-0.750			
0.8455	54115.04	3.3220	3.3221	-0.3502	26.44	0.72	-0.750			
0.8466	54180.38	3.3190	3.3189	-0.3398	26.45	0.73	-0.750			
0.8476	54244.58	3.3160	3.3159	-0.3282	26.45	0.73	-0.750			
0.8485	54306.69	3.3130	3.3131	-0.3189	26.46	0.74	-0.750			
0.8495	54367.25	3.3100	3.3100	-0.3096	26.46	0.74	-0.750			
0.8504	54425.76	3.3070	3.3071	-0.3007	26.47	0.75	-0.750			
0.8513	54482.58	3.3040	3.3040	-0.2926	26.48	0.76	-0.750			
0.8521	54537.30	3.3010	3.3010	-0.2837	26.48	0.76	-0.750			
0.8530	54590.94	3.2980	3.2980	-0.2761	26.49	0.77	-0.750			
0.8538	54643.49	3.2950	3.2950	-0.2704	26.49	0.77	-0.750			
0.8546	54694.34	3.2920	3.2920	-0.2625	26.50	0.78	-0.750			
0.8554	54744.41	3.2890	3.2890	-0.2552	26.50	0.78	-0.750			
0.8561	54791.96	3.2860	3.2860	-0.2496	26.51	0.79	-0.750			
0.8569	54839.40	3.2830	3.2830	-0.2446	26.51	0.79	-0.750			
0.8576	54885.59	3.2800	3.2800	-0.2396	26.52	0.80	-0.750			
0.8583	54931.15	3.2770	3.2770	-0.2348	26.52	0.80	-0.750			
0.8590	54976.01	3.2740	3.2741	-0.2300	26.52	0.80	-0.750			
0.8597	55020.00	3.2710	3.2710	-0.2248	26.53	0.81	-0.750			
0.8604	55063.12	3.2680	3.2679	-0.2196	26.53	0.81	-0.750			
0.8610	55104.10	3.2650	3.2650	-0.2151	26.54	0.82	-0.750			
0.8616	55144.77	3.2620	3.2620	-0.2104	26.54	0.82	-0.750			
0.8623	55184.75	3.2590	3.2589	-0.2066	26.55	0.83	-0.750			
0.8629	55224.08	3.2560	3.2561	-0.2027	26.55	0.83	-0.750			
0.8635	55262.56	3.2530	3.2530	-0.1987	26.56	0.84	-0.750			
0.8641	55300.37	3.2500	3.2499	-0.1960	26.56	0.84	-0.750			
0.8646	55337.44	3.2470	3.2470	-0.1932	26.57	0.85	-0.750			
0.8652	55373.88	3.2440	3.2441	-0.1892	26.57	0.85	-0.750			
0.8658	55410.05	3.2410	3.2410	-0.1876	26.58	0.86	-0.750			
0.8664	55446.42	3.2380	3.2379	-0.1852	26.58	0.86	-0.750			
0.8669	55481.66	3.2350	3.2351	-0.1825	26.59	0.87	-0.750			
0.8674	55516.63	3.2320	3.2320	-0.1800	26.59	0.87	-0.750			
0.8680	55550.89	3.2290	3.2289	-0.1768	26.60	0.88	-0.750			
0.8685	55584.30	3.2260	3.2260	-0.1743	26.60	0.88	-0.750			
0.8690	55617.20	3.2230	3.2231	-0.1723	26.61	0.89	-0.750			
0.8695	55650.27	3.2200	3.2200	-0.1702	26.61	0.89	-0.750			
0.8700	55682.76	3.2170	3.2169	-0.1682	26.62	0.90	-0.750			
0.8705	55714.79	3.2140	3.2140	-0.1668	26.62	0.90	-0.750			
0.8710	55746.59	3.2110	3.2112	-0.1651	26.63	0.91	-0.750			
0.8715	55778.33	3.2080	3.2079	-0.1636	26.63	0.91	-0.750			
0.8720	55809.54	3.2050	3.2050	-0.1616	26.63	0.91	-0.750			
0.8725	55840.45	3.2020	3.2020	-0.1592	26.64	0.92	-0.750			
0.8730	55870.47	3.1990	3.1991	-0.1577	26.64	0.92	-0.750			
0.8734	55900.80	3.1960	3.1961	-0.1566	26.65	0.93	-0.750			
0.8739	55930.71	3.1930	3.1929	-0.1549	26.65	0.93	-0.750			
0.8744	55960.04	3.1900	3.1899	-0.1529	26.66	0.94	-0.750			
0.8748	55989.34	3.1870	3.1871	-0.1515	26.66	0.94	-0.750			
0.8753	56018.60	3.1840	3.1838	-0.1501	26.66	0.94	-0.750			
0.8757	56047.20	3.1810	3.1810	-0.1479	26.66	0.94	-0.750			
0.8762	56075.39	3.1780	3.1780	-0.1468	26.67	0.95	-0.750			
0.8766	56102.94	3.1750	3.1750	-0.1449	26.67	0.95	-0.750			
0.8770	56130.83	3.1720	3.1719	-0.1439	26.68	0.96	-0.750			
0.8775	56158.35	3.1690	3.1690	-0.1428	26.69	0.97	-0.750			
0.8779	56185.63	3.1660	3.1660	-0.1416	26.69	0.97	-0.750			
0.8783	56212.80	3.1630	3.1630	-0.1404	26.70	0.98	-0.750			
0.8787	56239.89	3.1600	3.1600	-0.1395	26.70	0.98	-0.750			
0.8792	56266.33	3.1570	3.1569	-0.1387	26.71	0.99	-0.750			
0.8796	56292.73	3.1540	3.1540	-0.1367	26.71	0.99	-0.750			
0.8800	56319.03	3.1510	3.1509	-0.1353	26.72	1.00	-0.750			
0.8804	56345.09	3.1480	3.1480	-0.1341	26.72	1.00	-0.750			
0.8808	56370.43	3.1450	3.1451	-0.1333	26.73	1.01	-0.750			
0.8812	56395.91	3.1420	3.1419	-0.1317	26.73	1.01	-0.750			
0.8816	56420.79	3.1390	3.1390	-0.1309	26.74	1.02	-0.750			
0.8820	56445.86	3.1360	3.1359	-0.1303	26.74	1.02	-0.750			
0.8824	56470.63	3.1330	3.1332	-0.1289	26.75	1.03	-0.750			
0.8827	56495.62	3.1300	3.1299	-0.1286	26.75	1.03	-0.750			
0.8831	56520.32	3.1270	3.1270	-0.1276	26.75	1.03	-0.750			
0.8835	56544.66	3.1240	3.1241	-0.1265	26.76	1.04	-0.750			
0.8839	56568.73	3.1210	3.1210	-0.1251	26.76	1.04	-0.750			
0.8843	56592.90	3.1180	3.1180	-0.1245	26.77	1.05	-0.750			
0.8846	56616.23	3.1150	3.1151	-0.1231	26.77	1.05	-0.750			
0.8850	56639.83	3.1120	3.1121	-0.1228	26.78	1.06	-0.750			
0.8854	56663.55	3.1090	3.1089	-0.1222	26.78	1.06	-0.750			
0.8857	56686.86	3.1060	3.1059	-0.1213	26.78	1.06	-0.750			
0.8861	56710.10	3.1030	3.1032	-0.1207	26.79	1.07	-0.750			
0.8865	56733.25	3.1000	3.0999	-0.1202	26.79	1.07	-0.750			
0.8868	56756.38	3.0970	3.0970	-0.1187	26.80	1.08	-0.750			
0.8872	56779.33	3.0940	3.0940	-0.1177	26.80	1.08	-0.750			
0.8875	56801.47	3.0910	3.0910	-0.1168	26.81	1.09	-0.750			
0.8879	56823.83	3.0880	3.0881	-0.1161	26.81	1.09	-0.750			
0.8882	56846.06	3.0850	3.0849	-0.1153	26.81	1.09	-0.750			
0.8886	56868.12	3.0820	3.0820	-0.1145	26.82	1.10	-0.750			
0.8889	56890.01	3.0790	3.0791	-0.1133	26.83	1.11	-0.750			
0.8892	56911.68	3.0760	3.0760	-0.1125	26.83	1.11	-0.750			
0.8896	56933.22	3.0730	3.0731	-0.1126	26.84	1.12	-0.750			
0.8899	56954.78	3.0700	3.0699	-0.1119	26.84	1.12	-0.750			
0.8903	56976.08	3.0670	3.0671	-0.1106	26.85	1.13	-0.750			
0.8906	56997.25	3.0640	3.0639	-0.1100	26.85	1.13	-0.750			
0.8909	57018.32	3.0610	3.0610	-0.1098	26.86	1.14	-0.750			
0.8912	57039.35	3.0580	3.0582	-0.1093	26.86	1.14	-0.750			
0.8916	57060.35	3.0550	3.0550	-0.1091	26.87	1.15	-0.750			
0.8919	57081.24	3.0520	3.0519	-0.1085	26.88	1.16	-0.750			
0.8922	57102.03	3.0490	3.0491	-0.1072	26.88	1.16	-0.750			
0.8925	57122.55	3.0460	3.0459	-0.1066	26.89	1.17	-0.750			
0.8929	57143.09	3.0430	3.0431	-0.1066	26.89	1.17	-0.750			
0.8932	57163.47	3.0400	3.0401	-0.1057	26.90	1.18	-0.750			
0.8935	57183.65	3.0370	3.0368	-0.1049	26.90	1.18	-0.750			
0.8938	57203.55	3.0340	3.0340	-0.1040	26.91	1.19	-0.750			
0.8941	57223.35	3.0310	3.0310	-0.1038	26.91	1.19	-0.750			
0.8944	57243.04	3.0280	3.0280	-0.1033	26.92	1.20	-0.750			
0.8947	57263.01	3.0250	3.0249	-0.1027	26.92	1.20	-0.750			
0.8950	57282.87	3.0220	3.0220	-0.1025	26.93	1.21	-0.750			
0.8954	57302.50	3.0190	3.0190	-0.1017	26.93	1.21	-0.750			
0.8957	57321.97	3.0160	3.0161	-0.1010	26.94	1.22	-0.750			
0.8960	57341.16	3.0130	3.0130	-0.1010	26.94	1.22	-0.750			
0.8963	57360.53	3.0100	3.0100	-0.1007	26.95	1.23	-0.751			
0.8966	57379.83	3.0070	3.0071	-0.1004	26.95	1.23	-0.751			
0.8969	57398.74	3.0040	3.0038	-0.1016	26.96	1.24	-0.751			
0.8972	57418.36	3.0010	3.0009	-0.1028	26.96	1.24	-0.751			
