Ah_balance (normalized)	Ah_balance (mAh)	Voltage - fit (V)	Voltage -  interpolate (V)	dQ/dV (1/V)	Temperature (°C)	Temperature - diff (°C)	Current (C)	R_DC 0ms (mOhm)	R_DC 50ms (mOhm)	R_DC 50 ms PEC (mOhm)
0.0518	3312.43	4.1980	4.1980	0.7566	26.68	0.71	0.750			
0.0540	3457.86	4.1950	4.1951	0.7585	26.68	0.71	0.750			
0.0563	3602.44	4.1920	4.1920	0.7620	26.67	0.70	0.750			
0.0586	3750.61	4.1890	4.1890	0.7668	26.67	0.70	0.750			
0.0609	3898.88	4.1860	4.1859	0.7706	26.67	0.70	0.750			
0.0632	4046.48	4.1830	4.1831	0.7705	26.67	0.70	0.750			
0.0656	4196.44	4.1800	4.1800	0.7718	26.67	0.70	0.750			
0.0679	4344.18	4.1770	4.1770	0.7704	26.67	0.70	0.750			
0.0702	4490.98	4.1740	4.1740	0.7734	26.66	0.69	0.750			
0.0725	4639.24	4.1710	4.1710	0.7730	26.66	0.69	0.750			
0.0748	4788.72	4.1680	4.1679	0.7771	26.66	0.69	0.750			
0.0771	4937.40	4.1650	4.1650	0.7784	26.66	0.69	0.750			
0.0795	5089.66	4.1620	4.1621	0.7733	26.66	0.69	0.750			
0.0818	5237.38	4.1590	4.1590	0.7711	26.67	0.70	0.750			
0.0841	5384.80	4.1560	4.1560	0.7683	26.67	0.70	0.750			
0.0864	5530.55	4.1530	4.1528	0.7675	26.67	0.70	0.750			
0.0887	5676.82	4.1500	4.1499	0.7694	26.67	0.70	0.750			
0.0910	5824.72	4.1470	4.1470	0.7684	26.67	0.70	0.750			
0.0933	5972.66	4.1440	4.1440	0.7743	26.68	0.71	0.750			
0.0957	6122.83	4.1410	4.1410	0.7826	26.68	0.71	0.750			
0.0980	6272.65	4.1380	4.1381	0.7813	26.68	0.71	0.750			
0.1004	6423.76	4.1350	4.1350	0.7850	26.68	0.71	0.750			
0.1028	6576.38	4.1320	4.1320	0.7825	26.68	0.71	0.750			
0.1051	6725.82	4.1290	4.1290	0.7868	26.68	0.71	0.750			
0.1075	6877.80	4.1260	4.1260	0.7891	26.68	0.71	0.750			
0.1098	7027.32	4.1230	4.1231	0.7886	26.68	0.71	0.750			
0.1121	7176.41	4.1200	4.1198	0.7952	26.68	0.71	0.750			
0.1145	7330.84	4.1170	4.1171	0.8025	26.68	0.71	0.750			
0.1170	7487.13	4.1140	4.1140	0.8031	26.68	0.71	0.750			
0.1194	7642.15	4.1110	4.1109	0.8051	26.68	0.71	0.750			
0.1218	7796.45	4.1080	4.1082	0.8051	26.68	0.71	0.750			
0.1242	7951.85	4.1050	4.1051	0.8059	26.68	0.71	0.750			
0.1267	8106.91	4.1020	4.1019	0.8038	26.68	0.71	0.750			
0.1291	8262.32	4.0990	4.0989	0.7928	26.68	0.71	0.750			
0.1315	8413.00	4.0960	4.0961	0.8055	26.68	0.71	0.750			
0.1339	8567.28	4.0930	4.0930	0.8072	26.68	0.71	0.750			
0.1363	8722.47	4.0900	4.0897	0.8063	26.68	0.71	0.750			
0.1387	8876.82	4.0870	4.0872	0.8086	26.68	0.71	0.750			
0.1412	9034.08	4.0840	4.0840	0.8110	26.68	0.71	0.750			
0.1436	9191.34	4.0810	4.0810	0.8171	26.68	0.71	0.750			
0.1460	9345.64	4.0780	4.0780	0.8111	26.68	0.71	0.750			
0.1485	9501.38	4.0750	4.0750	0.8184	26.68	0.71	0.750			
0.1510	9660.90	4.0720	4.0720	0.8252	26.68	0.71	0.750			
0.1535	9822.51	4.0690	4.0690	0.8209	26.69	0.72	0.750			
0.1559	9979.83	4.0660	4.0660	0.8299	26.69	0.72	0.750			
0.1584	10138.28	4.0630	4.0631	0.8371	26.69	0.72	0.750			
0.1609	10297.45	4.0600	4.0599	0.8402	26.70	0.73	0.750			
0.1634	10460.28	4.0570	4.0571	0.8424	26.70	0.73	0.750			
0.1660	10624.35	4.0540	4.0539	0.8388	26.70	0.73	0.750			
0.1685	10785.16	4.0510	4.0512	0.8454	26.69	0.72	0.750			
0.1711	10948.80	4.0480	4.0480	0.8501	26.69	0.72	0.750			
0.1736	11109.99	4.0450	4.0448	0.8466	26.69	0.72	0.750			
0.1761	11272.65	4.0420	4.0420	0.8498	26.69	0.72	0.750			
0.1787	11435.30	4.0390	4.0391	0.8527	26.69	0.72	0.750			
0.1813	11600.83	4.0360	4.0360	0.8559	26.70	0.73	0.750			
0.1838	11764.97	4.0330	4.0330	0.8580	26.70	0.73	0.750			
0.1864	11930.07	4.0300	4.0299	0.8603	26.70	0.73	0.750			
0.1890	12094.73	4.0270	4.0270	0.8671	26.70	0.73	0.750			
0.1916	12263.07	4.0240	4.0240	0.8663	26.70	0.73	0.750			
0.1942	12429.02	4.0210	4.0210	0.8704	26.70	0.73	0.750			
0.1968	12595.81	4.0180	4.0181	0.8712	26.70	0.73	0.750			
0.1994	12764.16	4.0150	4.0149	0.8759	26.70	0.73	0.750			
0.2021	12932.06	4.0120	4.0120	0.8731	26.70	0.73	0.750			
0.2047	13101.00	4.0090	4.0091	0.8782	26.70	0.73	0.750			
0.2073	13268.77	4.0060	4.0060	0.8833	26.70	0.73	0.750			
0.2100	13439.71	4.0030	4.0030	0.8825	26.70	0.73	0.750			
0.2126	13609.22	4.0000	4.0000	0.8837	26.70	0.73	0.750			
0.2153	13778.46	3.9970	3.9970	0.8899	26.70	0.73	0.750			
0.2180	13949.45	3.9940	3.9940	0.8986	26.70	0.73	0.750			
0.2207	14123.47	3.9910	3.9909	0.9023	26.70	0.73	0.750			
0.2234	14297.32	3.9880	3.9880	0.8983	26.70	0.73	0.750			
0.2261	14469.66	3.9850	3.9850	0.9028	26.70	0.73	0.750			
0.2288	14644.53	3.9820	3.9821	0.9017	26.70	0.73	0.750			
0.2315	14815.88	3.9790	3.9789	0.9000	26.71	0.74	0.750			
0.2342	14987.40	3.9760	3.9761	0.8978	26.71	0.74	0.750			
0.2369	15160.63	3.9730	3.9727	0.8982	26.71	0.74	0.750			
0.2396	15334.20	3.9700	3.9701	0.9002	26.71	0.74	0.750			
0.2423	15505.85	3.9670	3.9671	0.9077	26.71	0.74	0.750			
0.2450	15678.74	3.9640	3.9640	0.9108	26.71	0.74	0.750			
0.2477	15854.42	3.9610	3.9609	0.9096	26.71	0.74	0.750			
0.2505	16032.23	3.9580	3.9580	0.9162	26.71	0.74	0.750			
0.2533	16210.37	3.9550	3.9551	0.9151	26.71	0.74	0.750			
0.2560	16383.40	3.9520	3.9521	0.9208	26.71	0.74	0.750			
0.2587	16557.42	3.9490	3.9490	0.9257	26.71	0.74	0.750			
0.2615	16735.12	3.9460	3.9456	0.9302	26.71	0.74	0.750			
0.2643	16916.97	3.9430	3.9430	0.9309	26.71	0.74	0.750			
0.2671	17096.36	3.9400	3.9401	0.9411	26.71	0.74	0.750			
0.2700	17282.32	3.9370	3.9371	0.9484	26.70	0.73	0.750			
0.2729	17462.45	3.9340	3.9339	0.9359	26.70	0.73	0.750			
0.2757	17641.97	3.9310	3.9310	0.9355	26.70	0.73	0.750			
0.2784	17819.81	3.9280	3.9281	0.9279	26.70	0.73	0.750			
0.2812	17997.82	3.9250	3.9251	0.9354	26.71	0.74	0.750			
0.2841	18179.28	3.9220	3.9220	0.9427	26.71	0.74	0.750			
0.2868	18357.87	3.9190	3.9188	0.9391	26.71	0.74	0.750			
0.2897	18540.31	3.9160	3.9161	0.9405	26.71	0.74	0.750			
0.2925	18720.81	3.9130	3.9131	0.9482	26.71	0.74	0.750			
0.2954	18903.85	3.9100	3.9101	0.9546	26.70	0.73	0.750			
0.2982	19086.13	3.9070	3.9069	0.9573	26.70	0.73	0.750			
0.3011	19272.66	3.9040	3.9040	0.9536	26.70	0.73	0.750			
0.3040	19457.35	3.9010	3.9010	0.9548	26.70	0.73	0.750			
0.3069	19641.12	3.8980	3.8981	0.9547	26.70	0.73	0.750			
0.3098	19824.99	3.8950	3.8952	0.9554	26.70	0.73	0.750			
0.3126	20004.56	3.8920	3.8920	0.9523	26.70	0.73	0.750			
0.3154	20187.48	3.8890	3.8890	0.9529	26.69	0.72	0.750			
0.3183	20368.64	3.8860	3.8860	0.9608	26.69	0.72	0.750			
0.3212	20555.26	3.8830	3.8831	0.9729	26.68	0.71	0.750			
0.3241	20744.03	3.8800	3.8798	0.9794	26.68	0.71	0.750			
0.3271	20934.26	3.8770	3.8771	0.9793	26.68	0.71	0.750			
0.3300	21122.53	3.8740	3.8740	0.9878	26.67	0.70	0.750			
0.3330	21311.68	3.8710	3.8711	0.9951	26.67	0.70	0.750			
0.3360	21502.76	3.8680	3.8678	1.0014	26.66	0.69	0.750			
0.3390	21695.78	3.8650	3.8650	1.0049	26.65	0.68	0.750			
0.3420	21890.08	3.8620	3.8621	1.0193	26.65	0.68	0.750			
0.3451	22087.75	3.8590	3.8591	1.0291	26.64	0.67	0.750			
0.3483	22289.16	3.8560	3.8559	1.0399	26.63	0.66	0.750			
0.3514	22487.63	3.8530	3.8531	1.0413	26.62	0.65	0.750			
0.3545	22687.09	3.8500	3.8501	1.0499	26.62	0.65	0.750			
0.3577	22889.99	3.8470	3.8470	1.0580	26.61	0.64	0.750			
0.3608	23094.35	3.8440	3.8440	1.0682	26.60	0.63	0.750			
0.3641	23299.23	3.8410	3.8410	1.0743	26.59	0.62	0.750			
0.3673	23506.54	3.8380	3.8380	1.0804	26.58	0.61	0.750			
0.3706	23715.68	3.8350	3.8350	1.0895	26.57	0.60	0.750			
0.3739	23927.23	3.8320	3.8320	1.0906	26.56	0.59	0.750			
0.3771	24134.59	3.8290	3.8290	1.0996	26.56	0.59	0.750			
0.3804	24346.47	3.8260	3.8260	1.1107	26.55	0.58	0.750			
0.3837	24559.55	3.8230	3.8231	1.1205	26.54	0.57	0.750			
0.3872	24777.69	3.8200	3.8198	1.1268	26.54	0.57	0.750			
0.3905	24995.08	3.8170	3.8171	1.1380	26.53	0.56	0.750			
0.3940	25217.01	3.8140	3.8140	1.1415	26.52	0.55	0.750			
0.3974	25436.54	3.8110	3.8110	1.1451	26.51	0.54	0.750			
0.4009	25655.70	3.8080	3.8081	1.1406	26.49	0.52	0.750			
0.4043	25873.64	3.8050	3.8051	1.1444	26.48	0.51	0.750			
0.4077	26092.18	3.8020	3.8019	1.1537	26.47	0.50	0.750			
0.4112	26318.03	3.7990	3.7989	1.1530	26.46	0.49	0.750			
0.4146	26537.31	3.7960	3.7960	1.1633	26.45	0.48	0.750			
0.4181	26760.21	3.7930	3.7931	1.1775	26.44	0.47	0.750			
0.4217	26985.91	3.7900	3.7901	1.1912	26.43	0.46	0.750			
0.4253	27217.03	3.7870	3.7870	1.1975	26.42	0.45	0.750			
0.4289	27449.00	3.7840	3.7840	1.2110	26.40	0.43	0.750			
0.4325	27681.61	3.7810	3.7811	1.2264	26.39	0.42	0.750			
0.4363	27922.70	3.7780	3.7777	1.2343	26.37	0.40	0.750			
0.4399	28156.63	3.7750	3.7750	1.2472	26.36	0.39	0.750			
0.4437	28394.80	3.7720	3.7721	1.2823	26.35	0.38	0.750			
0.4476	28644.67	3.7690	3.7690	1.2951	26.34	0.37	0.750			
0.4515	28895.33	3.7660	3.7660	1.3387	26.33	0.36	0.750			
0.4555	29152.69	3.7630	3.7632	1.3741	26.31	0.34	0.750			
0.4597	29422.78	3.7600	3.7601	1.3975	26.30	0.33	0.750	0.301	0.383	
0.4640	29698.85	3.7570	3.7571	1.4341	26.28	0.31	0.750			
0.4683	29973.86	3.7540	3.7541	1.4576	26.27	0.30	0.750			
0.4727	30255.31	3.7510	3.7510	1.4892	26.25	0.28	0.750			
0.4773	30545.56	3.7480	3.7481	1.5140	26.24	0.27	0.750			
0.4818	30833.43	3.7450	3.7449	1.5570	26.23	0.26	0.750			
0.4865	31139.17	3.7420	3.7417	1.5728	26.21	0.24	0.750			
0.4913	31444.54	3.7390	3.7391	1.6194	26.19	0.22	0.750			
0.4963	31760.26	3.7360	3.7362	1.6703	26.16	0.19	0.750			
0.5013	32085.35	3.7330	3.7330	1.7174	26.14	0.17	0.750			
0.5065	32418.36	3.7300	3.7302	1.7549	26.13	0.16	0.750			
0.5120	32765.04	3.7270	3.7272	1.8054	26.11	0.14	0.750			
0.5174	33115.58	3.7240	3.7242	1.8487	26.09	0.12	0.750			
0.5231	33477.10	3.7210	3.7210	1.9067	26.07	0.10	0.750			
0.5288	33845.60	3.7180	3.7180	1.9527	26.06	0.09	0.750			
0.5347	34223.42	3.7150	3.7151	2.0081	26.04	0.07	0.750			
0.5408	34611.05	3.7120	3.7121	2.0776	26.02	0.05	0.750			
0.5472	35019.79	3.7090	3.7089	2.1369	26.00	0.03	0.750			
0.5537	35436.44	3.7060	3.7060	2.1915	25.98	0.01	0.750			
0.5604	35865.25	3.7030	3.7031	2.2452	25.96	-0.01	0.750			
0.5671	36293.70	3.7000	3.7001	2.3712	25.94	-0.03	0.750			
0.5743	36757.60	3.6970	3.6968	2.4504	25.92	-0.05	0.750			
0.5819	37243.12	3.6940	3.6937	2.4901	25.90	-0.07	0.750			
0.5895	37730.09	3.6910	3.6915	2.5625	25.88	-0.09	0.750			
0.5974	38232.46	3.6880	3.6881	2.6290	25.86	-0.11	0.750			
0.6051	38727.09	3.6850	3.6850	2.6664	25.84	-0.13	0.750			
0.6131	39241.48	3.6820	3.6820	2.7717	25.82	-0.15	0.750			
0.6218	39794.69	3.6790	3.6787	2.8746	25.81	-0.16	0.750			
0.6304	40345.90	3.6760	3.6758	2.9409	25.80	-0.17	0.750			
0.6395	40930.99	3.6730	3.6727	3.0289	25.78	-0.19	0.750			
0.6486	41512.49	3.6700	3.6699	3.1269	25.76	-0.21	0.750			
0.6583	42134.03	3.6670	3.6668	3.1269	25.75	-0.22	0.750			
0.6680	42749.60	3.6640	3.6640	3.0634	25.73	-0.24	0.750			
0.6772	43339.28	3.6610	3.6608	2.8466	25.72	-0.25	0.750			
0.6852	43854.71	3.6580	3.6582	2.5363	25.72	-0.25	0.750			
0.6924	44312.97	3.6550	3.6550	2.2615	25.72	-0.25	0.750			
0.6987	44713.80	3.6520	3.6518	2.0423	25.72	-0.25	0.750			
0.7042	45067.36	3.6490	3.6489	1.8395	25.72	-0.25	0.750			
0.7093	45397.62	3.6460	3.6461	1.6700	25.72	-0.25	0.750			
0.7140	45697.99	3.6430	3.6432	1.5442	25.72	-0.25	0.750			
0.7185	45984.53	3.6400	3.6402	1.4388	25.72	-0.25	0.750			
0.7226	46248.70	3.6370	3.6369	1.3575	25.72	-0.25	0.750			
0.7264	46491.79	3.6340	3.6341	1.2787	25.72	-0.25	0.750			
0.7300	46720.82	3.6310	3.6310	1.2220	25.72	-0.25	0.750			
0.7336	46949.02	3.6280	3.6281	1.2123	25.72	-0.25	0.750			
0.7372	47179.21	3.6250	3.6250	1.1938	25.72	-0.25	0.750			
0.7407	47406.54	3.6220	3.6220	1.2111	25.72	-0.25	0.750			
0.7444	47639.76	3.6190	3.6191	1.2283	25.72	-0.25	0.750			
0.7482	47881.65	3.6160	3.6158	1.2199	25.72	-0.25	0.750			
0.7518	48117.41	3.6130	3.6131	1.2185	25.72	-0.25	0.750			
0.7555	48353.47	3.6100	3.6101	1.2138	25.72	-0.25	0.750			
0.7592	48586.01	3.6070	3.6070	1.2039	25.72	-0.25	0.750			
0.7628	48816.93	3.6040	3.6040	1.1757	25.72	-0.25	0.750			
0.7662	49036.97	3.6010	3.6011	1.1656	25.72	-0.25	0.750			
0.7697	49258.53	3.5980	3.5981	1.1624	25.72	-0.25	0.750			
0.7732	49481.97	3.5950	3.5949	1.1754	25.72	-0.25	0.750			
0.7766	49703.96	3.5920	3.5920	1.1870	25.72	-0.25	0.750			
0.7801	49929.50	3.5890	3.5891	1.2110	25.72	-0.25	0.750			
0.7838	50163.37	3.5860	3.5860	1.2526	25.72	-0.25	0.750			
0.7877	50411.82	3.5830	3.5831	1.2734	25.72	-0.25	0.750			
0.7915	50654.46	3.5800	3.5800	1.3135	25.72	-0.25	0.750			
0.7955	50910.19	3.5770	3.5771	1.3590	25.72	-0.25	0.750			
0.7996	51171.92	3.5740	3.5737	1.4089	25.72	-0.25	0.750			
0.8038	51445.27	3.5710	3.5709	1.4613	25.72	-0.25	0.750			
0.8084	51735.53	3.5680	3.5682	1.5018	25.72	-0.25	0.750			
0.8130	52030.80	3.5650	3.5648	1.5403	25.72	-0.25	0.750			
0.8177	52329.63	3.5620	3.5623	1.5687	25.72	-0.25	0.750			
0.8224	52635.10	3.5590	3.5590	1.5796	25.72	-0.25	0.750			
0.8272	52939.24	3.5560	3.5559	1.6275	25.72	-0.25	0.750			
0.8321	53254.07	3.5530	3.5528	1.6274	25.72	-0.25	0.750			
0.8371	53575.56	3.5500	3.5498	1.6451	25.72	-0.25	0.750			
0.8422	53900.51	3.5470	3.5472	1.6744	25.72	-0.25	0.750			
0.8472	54221.32	3.5440	3.5440	1.6651	25.72	-0.25	0.750			
0.8522	54539.21	3.5410	3.5410	1.6773	25.73	-0.24	0.750			
0.8572	54859.62	3.5380	3.5380	1.7013	25.74	-0.23	0.750			
0.8622	55181.66	3.5350	3.5351	1.7407	25.75	-0.22	0.750			
0.8679	55548.72	3.5320	3.5320	1.7210	25.76	-0.21	0.750			
0.8733	55888.57	3.5290	3.5289	1.6013	25.76	-0.21	0.750			
0.8783	56209.30	3.5260	3.5265	1.4175	25.78	-0.19	0.750			
0.8825	56479.34	3.5230	3.5236	1.1664	25.79	-0.18	0.750			
0.8857	56684.79	3.5200	3.5201	0.8969	25.81	-0.16	0.750			
0.8876	56804.23	3.5170	3.5166	0.6694	25.82	-0.15	0.750			
0.8888	56882.46	3.5140	3.5137	0.4785	25.82	-0.15	0.750			
0.8899	56953.97	3.5110	3.5108	0.4070	25.83	-0.14	0.750			
0.8909	57019.91	3.5080	3.5080	0.3582	25.84	-0.13	0.750			
0.8919	57083.63	3.5050	3.5050	0.3371	25.84	-0.13	0.750			
0.8929	57146.06	3.5020	3.5019	0.3211	25.85	-0.12	0.750			
0.8938	57205.62	3.4990	3.4990	0.3058	25.86	-0.11	0.750			
0.8947	57263.33	3.4960	3.4960	0.2943	25.86	-0.11	0.750			
0.8956	57318.20	3.4930	3.4932	0.2858	25.87	-0.10	0.750			
0.8964	57371.95	3.4900	3.4899	0.2771	25.87	-0.10	0.750			
0.8972	57423.67	3.4870	3.4869	0.2716	25.88	-0.09	0.750			
0.8980	57474.95	3.4840	3.4840	0.2652	25.88	-0.09	0.750			
0.8988	57525.60	3.4810	3.4810	0.2614	25.89	-0.08	0.750			
0.8996	57575.70	3.4780	3.4782	0.2573	25.89	-0.08	0.750			
0.9004	57624.61	3.4750	3.4750	0.2527	25.90	-0.07	0.750			
0.9011	57672.12	3.4720	3.4720	0.2480	25.90	-0.07	0.750			
0.9019	57719.72	3.4690	3.4689	0.2423	25.91	-0.06	0.750			
0.9026	57765.59	3.4660	3.4661	0.2360	25.91	-0.06	0.750			
0.9033	57810.99	3.4630	3.4629	0.2322	25.92	-0.05	0.750			
0.9040	57855.20	3.4600	3.4600	0.2263	25.92	-0.05	0.750			
0.9046	57897.41	3.4570	3.4570	0.2210	25.93	-0.04	0.750			
0.9053	57938.84	3.4540	3.4540	0.2164	25.93	-0.04	0.750			
0.9059	57980.24	3.4510	3.4510	0.2124	25.93	-0.04	0.750			
0.9066	58021.18	3.4480	3.4480	0.2100	25.94	-0.03	0.750			
0.9072	58061.11	3.4450	3.4450	0.2055	25.94	-0.03	0.750			
0.9078	58100.22	3.4420	3.4421	0.2011	25.95	-0.02	0.750			
0.9084	58138.70	3.4390	3.4390	0.1961	25.95	-0.02	0.750			
0.9090	58175.81	3.4360	3.4360	0.1905	25.95	-0.02	0.750			
0.9096	58211.74	3.4330	3.4330	0.1855	25.96	-0.01	0.750			
0.9101	58246.67	3.4300	3.4301	0.1809	25.96	-0.01	0.750			
0.9106	58281.00	3.4270	3.4269	0.1765	25.96	-0.01	0.750			
0.9112	58314.45	3.4240	3.4240	0.1719	25.97	-0.00	0.750			
0.9117	58346.76	3.4210	3.4208	0.1678	25.97	0.00	0.750			
0.9122	58378.81	3.4180	3.4181	0.1626	25.97	0.00	0.750			
0.9127	58410.04	3.4150	3.4149	0.1582	25.98	0.01	0.750			
0.9131	58439.85	3.4120	3.4120	0.1524	25.98	0.01	0.750			
0.9136	58468.63	3.4090	3.4091	0.1470	25.98	0.01	0.750			
0.9140	58496.30	3.4060	3.4059	0.1411	25.98	0.01	0.750			
0.9144	58522.83	3.4030	3.4030	0.1353	25.99	0.02	0.750			
0.9148	58548.30	3.4000	3.3999	0.1290	25.99	0.02	0.750			
0.9152	58572.32	3.3970	3.3971	0.1228	25.99	0.02	0.750			
0.9156	58595.78	3.3940	3.3940	0.1169	25.99	0.02	0.750			
0.9159	58617.60	3.3910	3.3910	0.1101	26.00	0.03	0.750			
0.9162	58639.03	3.3880	3.3878	0.1009	26.00	0.03	0.750			
0.9165	58657.88	3.3850	3.3850	0.0929	26.00	0.03	0.750			
0.9168	58675.36	3.3820	3.3821	0.0850	26.00	0.03	0.750			
0.9170	58690.71	3.3790	3.3792	0.0749	26.00	0.03	0.750			
0.9173	58705.06	3.3760	3.3762	0.0653	26.01	0.04	0.750			
0.9174	58716.51	3.3730	3.3736	0.0539	26.01	0.04	0.750			
0.9176	58725.77	3.3700	3.3709	0.0425	26.01	0.04	0.750			
0.9177	58732.84	3.3670	3.3684	0.0311	26.01	0.04	0.750			
