Ah_balance (normalized)	Ah_balance (mAh)	Voltage - fit (V)	Voltage -  interpolate (V)	dQ/dV (1/V)	Temperature (°C)	Temperature - diff (°C)	Current (C)	R_DC 0ms (mOhm)	R_DC 50ms (mOhm)	R_DC 50 ms PEC (mOhm)
0.0004	25.30	4.1610	4.1608	-0.1338	25.92	0.01	-0.750			
0.0009	55.19	4.1580	4.1579	-0.1733	25.92	0.01	-0.750			
0.0014	91.20	4.1550	4.1551	-0.2119	25.92	0.01	-0.750			
0.0021	136.24	4.1520	4.1520	-0.2504	25.92	0.01	-0.750			
0.0029	187.93	4.1490	4.1490	-0.2899	25.92	0.01	-0.750			
0.0039	247.80	4.1460	4.1460	-0.3270	25.92	0.01	-0.750			
0.0049	314.59	4.1430	4.1430	-0.3600	25.91	0.00	-0.750			
0.0061	387.88	4.1400	4.1400	-0.3926	25.91	0.00	-0.750			
0.0073	467.51	4.1370	4.1370	-0.4264	25.91	-0.00	-0.750			
0.0086	552.58	4.1340	4.1340	-0.4533	25.90	-0.01	-0.750			
0.0100	643.17	4.1310	4.1309	-0.4803	25.90	-0.01	-0.750			
0.0115	737.99	4.1280	4.1282	-0.5022	25.90	-0.01	-0.750			
0.0131	837.86	4.1250	4.1250	-0.5263	25.89	-0.02	-0.750			
0.0147	941.36	4.1220	4.1220	-0.5448	25.89	-0.02	-0.750			
0.0164	1048.68	4.1190	4.1190	-0.5589	25.89	-0.02	-0.750			
0.0181	1156.87	4.1160	4.1159	-0.5723	25.88	-0.03	-0.750			
0.0198	1269.23	4.1130	4.1130	-0.5885	25.88	-0.03	-0.750			
0.0216	1383.30	4.1100	4.1100	-0.5993	25.87	-0.04	-0.750			
0.0234	1500.18	4.1070	4.1069	-0.6099	25.87	-0.04	-0.750			
0.0253	1617.91	4.1040	4.1040	-0.6180	25.86	-0.05	-0.750			
0.0272	1738.85	4.1010	4.1011	-0.6284	25.86	-0.05	-0.750			
0.0291	1860.85	4.0980	4.0980	-0.6352	25.86	-0.05	-0.750			
0.0310	1982.90	4.0950	4.0950	-0.6405	25.85	-0.06	-0.750			
0.0329	2105.91	4.0920	4.0920	-0.6480	25.85	-0.06	-0.750			
0.0349	2230.84	4.0890	4.0890	-0.6561	25.85	-0.06	-0.750			
0.0368	2358.09	4.0860	4.0860	-0.6620	25.85	-0.06	-0.750			
0.0389	2486.57	4.0830	4.0830	-0.6679	25.85	-0.06	-0.750			
0.0409	2615.80	4.0800	4.0800	-0.6726	25.85	-0.06	-0.750			
0.0429	2745.49	4.0770	4.0769	-0.6757	25.85	-0.06	-0.750			
0.0449	2875.42	4.0740	4.0739	-0.6796	25.85	-0.06	-0.750			
0.0470	3006.40	4.0710	4.0710	-0.6792	25.85	-0.06	-0.750			
0.0490	3136.21	4.0680	4.0680	-0.6847	25.85	-0.06	-0.750			
0.0511	3267.54	4.0650	4.0651	-0.6877	25.85	-0.06	-0.750			
0.0531	3400.78	4.0620	4.0619	-0.6928	25.85	-0.06	-0.750			
0.0552	3534.00	4.0590	4.0589	-0.6968	25.85	-0.06	-0.750			
0.0573	3669.23	4.0560	4.0560	-0.6995	25.85	-0.06	-0.750			
0.0594	3804.25	4.0530	4.0529	-0.6997	25.85	-0.06	-0.750			
0.0616	3939.57	4.0500	4.0501	-0.7034	25.85	-0.06	-0.750			
0.0637	4074.29	4.0470	4.0470	-0.6975	25.85	-0.06	-0.750			
0.0658	4208.58	4.0440	4.0439	-0.6968	25.85	-0.06	-0.750			
0.0678	4340.63	4.0410	4.0410	-0.6993	25.85	-0.06	-0.750			
0.0699	4473.15	4.0380	4.0380	-0.6995	25.85	-0.06	-0.750			
0.0720	4607.42	4.0350	4.0347	-0.7070	25.85	-0.06	-0.750			
0.0741	4744.15	4.0320	4.0321	-0.7130	25.85	-0.06	-0.750			
0.0763	4881.09	4.0290	4.0291	-0.7171	25.85	-0.06	-0.750			
0.0785	5024.45	4.0260	4.0259	-0.7241	25.85	-0.06	-0.750			
0.0807	5162.09	4.0230	4.0230	-0.7256	25.85	-0.06	-0.750			
0.0828	5296.64	4.0200	4.0201	-0.7261	25.85	-0.06	-0.750			
0.0849	5436.48	4.0170	4.0170	-0.7399	25.85	-0.06	-0.750			
0.0872	5577.95	4.0140	4.0139	-0.7463	25.85	-0.06	-0.750			
0.0894	5724.47	4.0110	4.0109	-0.7511	25.85	-0.06	-0.750			
0.0918	5872.65	4.0080	4.0082	-0.7557	25.85	-0.06	-0.750			
0.0940	6019.20	4.0050	4.0052	-0.7539	25.85	-0.06	-0.750			
0.0963	6162.41	4.0020	4.0019	-0.7468	25.85	-0.06	-0.750			
0.0985	6305.14	3.9990	3.9990	-0.7481	25.86	-0.05	-0.750			
0.1007	6446.40	3.9960	3.9960	-0.7414	25.86	-0.05	-0.750			
0.1030	6590.87	3.9930	3.9929	-0.7417	25.86	-0.05	-0.750			
0.1052	6732.88	3.9900	3.9899	-0.7420	25.87	-0.04	-0.750			
0.1074	6875.83	3.9870	3.9869	-0.7397	25.87	-0.04	-0.750			
0.1096	7016.46	3.9840	3.9840	-0.7404	25.87	-0.04	-0.750			
0.1118	7156.45	3.9810	3.9809	-0.7471	25.87	-0.04	-0.750			
0.1141	7301.22	3.9780	3.9780	-0.7465	25.87	-0.04	-0.750			
0.1164	7448.16	3.9750	3.9750	-0.7548	25.87	-0.04	-0.750			
0.1186	7593.42	3.9720	3.9723	-0.7556	25.87	-0.04	-0.750			
0.1209	7739.19	3.9690	3.9690	-0.7543	25.87	-0.04	-0.750			
0.1232	7882.82	3.9660	3.9659	-0.7590	25.88	-0.03	-0.750			
0.1254	8027.47	3.9630	3.9630	-0.7586	25.88	-0.03	-0.750			
0.1277	8172.43	3.9600	3.9599	-0.7654	25.88	-0.03	-0.750			
0.1300	8320.99	3.9570	3.9570	-0.7694	25.89	-0.02	-0.750			
0.1323	8470.26	3.9540	3.9539	-0.7687	25.89	-0.02	-0.750			
0.1346	8617.08	3.9510	3.9510	-0.7692	25.89	-0.02	-0.750			
0.1369	8764.49	3.9480	3.9480	-0.7703	25.89	-0.02	-0.750			
0.1392	8910.24	3.9450	3.9450	-0.7717	25.89	-0.02	-0.750			
0.1416	9060.38	3.9420	3.9419	-0.7800	25.89	-0.02	-0.750			
0.1439	9210.84	3.9390	3.9391	-0.7764	25.89	-0.02	-0.750			
0.1463	9361.67	3.9360	3.9360	-0.7761	25.89	-0.02	-0.750			
0.1486	9511.35	3.9330	3.9331	-0.7871	25.90	-0.01	-0.750			
0.1510	9662.33	3.9300	3.9300	-0.7851	25.90	-0.01	-0.750			
0.1533	9812.24	3.9270	3.9268	-0.7859	25.91	-0.00	-0.750			
0.1557	9963.33	3.9240	3.9242	-0.7871	25.91	-0.00	-0.750			
0.1580	10115.16	3.9210	3.9210	-0.7905	25.91	0.00	-0.750			
0.1604	10267.39	3.9180	3.9180	-0.7969	25.92	0.01	-0.750			
0.1628	10419.81	3.9150	3.9150	-0.7947	25.92	0.01	-0.750			
0.1652	10571.11	3.9120	3.9120	-0.7901	25.92	0.01	-0.750			
0.1676	10725.61	3.9090	3.9089	-0.7963	25.93	0.02	-0.750			
0.1700	10877.68	3.9060	3.9060	-0.7972	25.93	0.02	-0.750			
0.1724	11030.99	3.9030	3.9029	-0.7997	25.93	0.02	-0.750			
0.1748	11184.19	3.9000	3.9000	-0.8004	25.93	0.02	-0.750			
0.1771	11337.08	3.8970	3.8970	-0.8020	25.93	0.02	-0.750			
0.1796	11492.46	3.8940	3.8940	-0.8089	25.93	0.02	-0.750			
0.1820	11649.23	3.8910	3.8910	-0.8132	25.93	0.02	-0.750			
0.1845	11807.21	3.8880	3.8880	-0.8040	25.94	0.03	-0.750			
0.1869	11959.05	3.8850	3.8851	-0.8050	25.94	0.03	-0.750			
0.1893	12112.12	3.8820	3.8822	-0.8086	25.94	0.03	-0.750			
0.1917	12266.84	3.8790	3.8789	-0.8153	25.95	0.04	-0.750			
0.1941	12424.24	3.8760	3.8758	-0.8148	25.95	0.04	-0.750			
0.1966	12581.24	3.8730	3.8731	-0.8163	25.95	0.04	-0.750			
0.1991	12739.86	3.8700	3.8701	-0.8247	25.95	0.04	-0.750			
0.2016	12903.75	3.8670	3.8670	-0.8267	25.96	0.05	-0.750			
0.2040	13058.45	3.8640	3.8639	-0.8115	25.96	0.05	-0.750			
0.2065	13214.58	3.8610	3.8613	-0.8063	25.96	0.05	-0.750			
0.2089	13366.98	3.8580	3.8580	-0.8046	25.96	0.05	-0.750			
0.2113	13521.58	3.8550	3.8550	-0.8177	25.96	0.05	-0.750			
0.2137	13678.15	3.8520	3.8518	-0.8132	25.97	0.06	-0.750			
0.2162	13835.88	3.8490	3.8489	-0.8225	25.97	0.06	-0.750			
0.2187	13994.79	3.8460	3.8465	-0.8252	25.97	0.06	-0.750			
0.2212	14155.49	3.8430	3.8428	-0.8269	25.97	0.06	-0.750			
0.2237	14315.18	3.8400	3.8400	-0.8260	25.98	0.07	-0.750			
0.2261	14471.07	3.8370	3.8370	-0.8110	25.98	0.07	-0.750			
0.2286	14628.14	3.8340	3.8340	-0.8162	25.99	0.08	-0.750			
0.2310	14783.84	3.8310	3.8312	-0.8167	25.99	0.08	-0.750			
0.2334	14937.22	3.8280	3.8278	-0.8128	25.99	0.08	-0.750			
0.2358	15094.02	3.8250	3.8249	-0.8221	25.99	0.08	-0.750			
0.2383	15253.64	3.8220	3.8220	-0.8213	26.00	0.09	-0.750			
0.2409	15414.59	3.8190	3.8189	-0.8278	26.00	0.09	-0.750			
0.2433	15574.19	3.8160	3.8163	-0.8231	26.00	0.09	-0.750			
0.2458	15730.43	3.8130	3.8128	-0.8108	26.00	0.09	-0.750			
0.2482	15883.59	3.8100	3.8101	-0.8039	26.00	0.09	-0.750			
0.2506	16036.97	3.8070	3.8070	-0.8018	26.01	0.10	-0.750			
0.2530	16191.03	3.8040	3.8039	-0.8029	26.01	0.10	-0.750			
0.2554	16344.44	3.8010	3.8009	-0.7975	26.01	0.10	-0.750			
0.2577	16495.80	3.7980	3.7980	-0.7956	26.01	0.10	-0.750			
0.2601	16647.02	3.7950	3.7951	-0.8018	26.01	0.10	-0.750			
0.2626	16803.43	3.7920	3.7919	-0.7989	26.02	0.11	-0.750			
0.2650	16958.81	3.7890	3.7889	-0.7818	26.02	0.11	-0.750			
0.2673	17108.16	3.7860	3.7860	-0.7813	26.02	0.11	-0.750			
0.2696	17256.51	3.7830	3.7831	-0.7814	26.02	0.11	-0.750			
0.2719	17404.30	3.7800	3.7798	-0.7772	26.02	0.11	-0.750			
0.2743	17552.54	3.7770	3.7770	-0.7734	26.02	0.11	-0.750			
0.2766	17700.17	3.7740	3.7741	-0.7688	26.03	0.12	-0.750			
0.2789	17850.91	3.7710	3.7711	-0.7777	26.03	0.12	-0.750			
0.2813	18002.40	3.7680	3.7681	-0.7842	26.03	0.12	-0.750			
0.2836	18148.47	3.7650	3.7649	-0.7755	26.03	0.12	-0.750			
0.2859	18297.05	3.7620	3.7620	-0.7738	26.04	0.13	-0.750			
0.2882	18447.22	3.7590	3.7589	-0.7799	26.04	0.13	-0.750			
0.2906	18598.94	3.7560	3.7561	-0.7806	26.05	0.14	-0.750			
0.2929	18748.62	3.7530	3.7530	-0.7767	26.05	0.14	-0.750			
0.2953	18896.48	3.7500	3.7499	-0.7725	26.05	0.14	-0.750			
0.2975	19042.80	3.7470	3.7470	-0.7784	26.06	0.15	-0.750			
0.2999	19190.63	3.7440	3.7440	-0.7798	26.06	0.15	-0.750			
0.3022	19340.90	3.7410	3.7409	-0.7874	26.06	0.15	-0.750			
0.3046	19492.82	3.7380	3.7379	-0.7936	26.07	0.16	-0.750			
0.3070	19646.70	3.7350	3.7351	-0.8052	26.07	0.16	-0.750			
0.3094	19801.18	3.7320	3.7320	-0.8161	26.07	0.16	-0.750			
0.3119	19958.90	3.7290	3.7288	-0.8259	26.07	0.16	-0.750			
0.3143	20116.05	3.7260	3.7261	-0.8315	26.07	0.16	-0.750			
0.3169	20279.82	3.7230	3.7228	-0.8457	26.07	0.16	-0.750			
0.3194	20443.57	3.7200	3.7201	-0.8586	26.07	0.16	-0.750			
0.3220	20608.72	3.7170	3.7170	-0.8758	26.07	0.16	-0.750			
0.3246	20775.96	3.7140	3.7140	-0.8876	26.07	0.16	-0.750			
0.3273	20946.91	3.7110	3.7109	-0.8950	26.06	0.15	-0.750			
0.3300	21122.79	3.7080	3.7079	-0.9180	26.06	0.15	-0.750			
0.3328	21298.91	3.7050	3.7051	-0.9424	26.06	0.15	-0.750			
0.3357	21483.88	3.7020	3.7019	-0.9594	26.06	0.15	-0.750			
0.3386	21669.22	3.6990	3.6989	-0.9731	26.05	0.14	-0.750			
0.3416	21862.52	3.6960	3.6958	-0.9675	26.05	0.14	-0.750			
0.3445	22049.92	3.6930	3.6932	-0.9819	26.05	0.14	-0.750			
0.3475	22237.51	3.6900	3.6900	-1.0022	26.05	0.14	-0.750			
0.3504	22426.66	3.6870	3.6870	-1.0122	26.05	0.14	-0.750			
0.3534	22617.58	3.6840	3.6836	-1.0303	26.05	0.14	-0.750			
0.3566	22820.78	3.6810	3.6813	-1.0717	26.05	0.14	-0.750			
0.3599	23032.32	3.6780	3.6779	-1.1016	26.04	0.13	-0.750			
0.3633	23251.53	3.6750	3.6749	-1.1275	26.04	0.13	-0.750			
0.3666	23465.47	3.6720	3.6720	-1.1435	26.03	0.12	-0.750			
0.3701	23689.41	3.6690	3.6691	-1.1769	26.03	0.12	-0.750			
0.3737	23919.45	3.6660	3.6659	-1.1983	26.02	0.11	-0.750			
0.3773	24149.99	3.6630	3.6630	-1.2169	26.02	0.11	-0.750			
0.3810	24385.08	3.6600	3.6601	-1.2448	26.01	0.10	-0.750			
0.3848	24629.38	3.6570	3.6569	-1.2729	26.00	0.09	-0.750			
0.3887	24876.96	3.6540	3.6540	-1.2960	26.00	0.09	-0.750			
0.3926	25126.79	3.6510	3.6511	-1.3177	25.99	0.08	-0.750			
0.3966	25381.48	3.6480	3.6480	-1.3581	25.99	0.08	-0.750			
0.4007	25646.72	3.6450	3.6448	-1.3864	25.98	0.07	-0.750			
0.4049	25915.44	3.6420	3.6420	-1.4178	25.97	0.06	-0.750			
0.4092	26190.40	3.6390	3.6389	-1.4471	25.97	0.06	-0.750			
0.4137	26477.34	3.6360	3.6358	-1.4780	25.96	0.05	-0.750			
0.4182	26763.94	3.6330	3.6331	-1.5007	25.95	0.04	-0.750			
0.4227	27050.52	3.6300	3.6300	-1.5272	25.94	0.03	-0.750			
0.4273	27344.43	3.6270	3.6270	-1.5538	25.94	0.03	-0.750			
0.4321	27651.41	3.6240	3.6240	-1.5885	25.93	0.02	-0.750			
0.4368	27957.31	3.6210	3.6212	-1.6173	25.93	0.02	-0.750			
0.4418	28273.79	3.6180	3.6181	-1.6522	25.92	0.01	-0.750	0.400	0.534	
0.4468	28594.03	3.6150	3.6151	-1.6962	25.92	0.01	-0.750			
0.4520	28925.76	3.6120	3.6120	-1.7233	25.91	0.00	-0.750			
0.4572	29261.16	3.6090	3.6091	-1.7545	25.91	-0.00	-0.750			
0.4625	29597.47	3.6060	3.6058	-1.7899	25.90	-0.01	-0.750			
0.4679	29948.20	3.6030	3.6028	-1.8123	25.89	-0.02	-0.750			
0.4733	30293.16	3.6000	3.6001	-1.8457	25.89	-0.02	-0.750			
0.4788	30645.46	3.5970	3.5970	-1.8970	25.89	-0.02	-0.750			
0.4846	31014.58	3.5940	3.5941	-1.9441	25.88	-0.03	-0.750			
0.4907	31404.88	3.5910	3.5909	-1.9698	25.87	-0.04	-0.750			
0.4966	31780.55	3.5880	3.5882	-2.0036	25.87	-0.04	-0.750			
0.5027	32169.94	3.5850	3.5852	-2.0399	25.87	-0.04	-0.750			
0.5089	32567.45	3.5820	3.5815	-2.0813	25.87	-0.04	-0.750			
0.5150	32961.23	3.5790	3.5788	-2.1141	25.87	-0.04	-0.750			
0.5215	33374.59	3.5760	3.5760	-2.1566	25.87	-0.04	-0.750			
0.5282	33802.84	3.5730	3.5730	-2.2033	25.87	-0.04	-0.750			
0.5348	34227.29	3.5700	3.5702	-2.2044	25.87	-0.04	-0.750			
0.5415	34654.65	3.5670	3.5671	-2.2315	25.87	-0.04	-0.750			
0.5482	35085.66	3.5640	3.5639	-2.2472	25.87	-0.04	-0.750			
0.5550	35520.58	3.5610	3.5609	-2.2362	25.87	-0.04	-0.750			
0.5618	35953.65	3.5580	3.5582	-2.2415	25.87	-0.04	-0.750			
0.5685	36385.05	3.5550	3.5551	-2.2414	25.87	-0.04	-0.750			
0.5752	36812.94	3.5520	3.5518	-2.2364	25.88	-0.03	-0.750			
0.5817	37230.61	3.5490	3.5493	-2.2313	25.88	-0.03	-0.750			
0.5885	37662.29	3.5460	3.5460	-2.2387	25.89	-0.02	-0.750			
0.5953	38096.28	3.5430	3.5429	-2.2381	25.89	-0.02	-0.750			
0.6020	38529.44	3.5400	3.5400	-2.2148	25.89	-0.02	-0.750			
0.6088	38964.46	3.5370	3.5371	-2.2022	25.89	-0.02	-0.750			
0.6154	39384.92	3.5340	3.5339	-2.1600	25.89	-0.02	-0.750			
0.6216	39782.65	3.5310	3.5311	-2.0838	25.89	-0.02	-0.750			
0.6278	40179.37	3.5280	3.5279	-2.0348	25.90	-0.01	-0.750			
0.6340	40572.87	3.5250	3.5249	-1.9932	25.91	0.00	-0.750			
0.6398	40947.44	3.5220	3.5220	-1.9504	25.92	0.01	-0.750			
0.6456	41321.39	3.5190	3.5189	-1.9029	25.93	0.02	-0.750			
0.6512	41679.60	3.5160	3.5160	-1.8441	25.94	0.03	-0.750			
0.6567	42028.92	3.5130	3.5131	-1.7995	25.95	0.04	-0.750			
0.6621	42373.23	3.5100	3.5098	-1.7423	25.96	0.05	-0.750			
0.6673	42705.51	3.5070	3.5071	-1.6919	25.98	0.07	-0.750			
0.6722	43022.35	3.5040	3.5039	-1.6333	25.99	0.08	-0.750			
0.6770	43328.62	3.5010	3.5011	-1.5775	26.01	0.10	-0.750			
0.6816	43624.89	3.4980	3.4981	-1.5268	26.03	0.12	-0.750			
0.6862	43914.05	3.4950	3.4949	-1.4811	26.05	0.14	-0.750			
0.6905	44193.47	3.4920	3.4920	-1.4339	26.06	0.15	-0.750			
0.6948	44467.32	3.4890	3.4891	-1.3930	26.07	0.16	-0.750			
0.6989	44730.61	3.4860	3.4860	-1.3505	26.09	0.18	-0.750			
0.7029	44985.28	3.4830	3.4829	-1.3044	26.10	0.19	-0.750			
0.7067	45227.92	3.4800	3.4801	-1.2584	26.11	0.20	-0.750			
0.7105	45470.20	3.4770	3.4770	-1.2276	26.13	0.22	-0.750			
0.7141	45702.29	3.4740	3.4739	-1.1868	26.14	0.23	-0.750			
0.7176	45925.20	3.4710	3.4709	-1.1469	26.16	0.25	-0.750			
0.7210	46143.06	3.4680	3.4679	-1.1083	26.17	0.26	-0.750			
0.7242	46351.94	3.4650	3.4649	-1.0618	26.18	0.27	-0.750			
0.7274	46551.52	3.4620	3.4620	-1.0206	26.20	0.29	-0.750			
0.7303	46741.06	3.4590	3.4593	-0.9771	26.21	0.30	-0.750			
0.7332	46926.20	3.4560	3.4558	-0.9503	26.22	0.31	-0.750			
0.7360	47102.94	3.4530	3.4530	-0.9218	26.23	0.32	-0.750			
0.7386	47270.66	3.4500	3.4500	-0.9004	26.24	0.33	-0.750			
0.7413	47442.41	3.4470	3.4470	-0.8939	26.25	0.34	-0.750			
0.7440	47614.70	3.4440	3.4440	-0.8914	26.26	0.35	-0.750			
0.7466	47783.04	3.4410	3.4410	-0.8961	26.27	0.36	-0.750			
0.7493	47955.21	3.4380	3.4381	-0.9009	26.28	0.37	-0.750			
0.7520	48128.78	3.4350	3.4347	-0.9074	26.29	0.38	-0.750			
0.7548	48304.34	3.4320	3.4321	-0.9136	26.30	0.39	-0.750			
0.7575	48480.30	3.4290	3.4291	-0.9242	26.31	0.40	-0.750			
0.7603	48660.41	3.4260	3.4259	-0.9458	26.32	0.41	-0.750			
0.7632	48843.26	3.4230	3.4229	-0.9563	26.33	0.42	-0.750			
0.7660	49024.26	3.4200	3.4199	-0.9646	26.34	0.43	-0.750			
0.7690	49214.77	3.4170	3.4172	-0.9726	26.35	0.44	-0.750			
0.7720	49404.98	3.4140	3.4140	-0.9874	26.36	0.45	-0.750			
0.7750	49598.25	3.4110	3.4109	-0.9795	26.37	0.46	-0.750			
0.7779	49786.05	3.4080	3.4080	-0.9687	26.38	0.47	-0.750			
0.7808	49974.28	3.4050	3.4052	-0.9583	26.39	0.48	-0.750			
0.7837	50155.43	3.4020	3.4020	-0.9338	26.40	0.49	-0.750			
0.7865	50332.96	3.3990	3.3989	-0.9055	26.41	0.50	-0.750			
0.7891	50505.26	3.3960	3.3960	-0.8756	26.42	0.51	-0.750			
0.7917	50670.15	3.3930	3.3929	-0.8513	26.42	0.51	-0.750			
0.7942	50831.03	3.3900	3.3902	-0.8223	26.43	0.52	-0.750			
0.7967	50986.15	3.3870	3.3869	-0.7928	26.44	0.53	-0.750			
0.7990	51135.15	3.3840	3.3840	-0.7662	26.45	0.54	-0.750			
0.8012	51279.05	3.3810	3.3810	-0.7339	26.45	0.54	-0.750			
0.8034	51418.41	3.3780	3.3779	-0.7105	26.46	0.55	-0.750			
0.8055	51553.28	3.3750	3.3750	-0.6808	26.47	0.56	-0.750			
0.8075	51679.64	3.3720	3.3719	-0.6502	26.47	0.56	-0.750			
0.8094	51801.34	3.3690	3.3690	-0.6247	26.48	0.57	-0.750			
0.8112	51917.07	3.3660	3.3661	-0.6027	26.48	0.57	-0.750			
0.8129	52028.64	3.3630	3.3630	-0.5813	26.49	0.58	-0.750			
0.8147	52140.58	3.3600	3.3599	-0.5647	26.49	0.58	-0.750			
0.8164	52246.77	3.3570	3.3569	-0.5458	26.49	0.58	-0.750			
0.8180	52351.01	3.3540	3.3541	-0.5301	26.50	0.59	-0.750			
0.8195	52450.46	3.3510	3.3510	-0.5097	26.50	0.59	-0.750			
0.8210	52546.46	3.3480	3.3479	-0.4891	26.51	0.60	-0.750			
0.8225	52638.26	3.3450	3.3450	-0.4702	26.52	0.61	-0.750			
0.8238	52725.75	3.3420	3.3421	-0.4537	26.53	0.62	-0.750			
0.8252	52811.16	3.3390	3.3388	-0.4388	26.53	0.62	-0.750			
0.8265	52893.27	3.3360	3.3360	-0.4238	26.54	0.63	-0.750			
0.8277	52973.24	3.3330	3.3331	-0.4109	26.54	0.63	-0.750			
0.8289	53051.13	3.3300	3.3300	-0.3987	26.55	0.64	-0.750			
0.8301	53127.08	3.3270	3.3268	-0.3855	26.56	0.65	-0.750			
0.8312	53199.32	3.3240	3.3243	-0.3710	26.56	0.65	-0.750			
0.8323	53268.61	3.3210	3.3211	-0.3598	26.57	0.66	-0.750			
0.8334	53336.58	3.3180	3.3180	-0.3485	26.57	0.66	-0.750			
0.8344	53402.14	3.3150	3.3149	-0.3390	26.58	0.67	-0.750			
0.8354	53465.65	3.3120	3.3119	-0.3285	26.58	0.67	-0.750			
0.8364	53527.94	3.3090	3.3090	-0.3193	26.59	0.68	-0.750			
0.8373	53588.86	3.3060	3.3059	-0.3118	26.59	0.68	-0.750			
0.8382	53647.66	3.3030	3.3031	-0.3030	26.59	0.68	-0.750			
0.8391	53704.28	3.3000	3.3000	-0.2931	26.60	0.69	-0.750			
0.8400	53760.10	3.2970	3.2970	-0.2867	26.60	0.69	-0.750			
0.8408	53813.88	3.2940	3.2940	-0.2787	26.61	0.70	-0.750			
0.8417	53867.02	3.2910	3.2910	-0.2732	26.61	0.70	-0.750			
0.8425	53918.95	3.2880	3.2879	-0.2670	26.61	0.70	-0.750			
0.8433	53969.41	3.2850	3.2850	-0.2606	26.62	0.71	-0.750			
0.8440	54018.66	3.2820	3.2819	-0.2550	26.62	0.71	-0.750			
0.8448	54067.21	3.2790	3.2790	-0.2501	26.63	0.72	-0.750			
0.8455	54114.94	3.2760	3.2760	-0.2442	26.64	0.73	-0.750			
0.8463	54161.21	3.2730	3.2730	-0.2378	26.64	0.73	-0.750			
0.8470	54205.91	3.2700	3.2701	-0.2337	26.65	0.74	-0.750			
0.8477	54250.11	3.2670	3.2670	-0.2294	26.65	0.74	-0.750			
0.8483	54293.79	3.2640	3.2640	-0.2246	26.66	0.75	-0.750			
0.8490	54335.90	3.2610	3.2610	-0.2218	26.66	0.75	-0.750			
0.8497	54377.92	3.2580	3.2581	-0.2184	26.67	0.76	-0.750			
0.8503	54419.69	3.2550	3.2550	-0.2167	26.67	0.76	-0.750			
0.8510	54461.57	3.2520	3.2518	-0.2132	26.68	0.77	-0.750			
0.8516	54502.43	3.2490	3.2492	-0.2095	26.68	0.77	-0.750			
0.8522	54542.40	3.2460	3.2461	-0.2041	26.69	0.78	-0.750			
0.8528	54581.96	3.2430	3.2430	-0.2001	26.69	0.78	-0.750			
0.8534	54619.88	3.2400	3.2400	-0.1958	26.70	0.79	-0.750			
0.8540	54655.98	3.2370	3.2371	-0.1900	26.70	0.79	-0.750			
0.8546	54691.34	3.2340	3.2340	-0.1874	26.71	0.80	-0.750			
0.8551	54727.18	3.2310	3.2309	-0.1859	26.71	0.80	-0.750			
0.8557	54761.79	3.2280	3.2280	-0.1876	26.72	0.81	-0.750			
0.8562	54797.95	3.2250	3.2249	-0.1862	26.72	0.81	-0.750			
0.8568	54834.86	3.2220	3.2217	-0.1866	26.73	0.82	-0.750			
0.8574	54870.52	3.2190	3.2192	-0.1849	26.73	0.82	-0.750			
0.8579	54906.53	3.2160	3.2163	-0.1827	26.74	0.83	-0.750			
0.8585	54941.98	3.2130	3.2129	-0.1803	26.74	0.83	-0.750			
0.8590	54975.61	3.2100	3.2099	-0.1762	26.75	0.84	-0.750			
0.8595	55009.10	3.2070	3.2070	-0.1728	26.75	0.84	-0.750			
0.8600	55040.97	3.2040	3.2041	-0.1695	26.76	0.85	-0.750			
0.8605	55073.69	3.2010	3.2010	-0.1685	26.76	0.85	-0.750			
0.8610	55105.88	3.1980	3.1980	-0.1665	26.77	0.86	-0.750			
0.8615	55137.66	3.1950	3.1950	-0.1646	26.77	0.86	-0.750			
0.8620	55169.21	3.1920	3.1920	-0.1618	26.77	0.86	-0.750			
0.8625	55200.09	3.1890	3.1891	-0.1603	26.78	0.87	-0.750			
0.8630	55230.52	3.1860	3.1860	-0.1578	26.78	0.87	-0.750			
0.8634	55260.50	3.1830	3.1830	-0.1567	26.79	0.88	-0.750			
0.8639	55290.20	3.1800	3.1799	-0.1553	26.79	0.88	-0.750			
0.8644	55319.73	3.1770	3.1771	-0.1542	26.80	0.89	-0.750			
0.8648	55349.29	3.1740	3.1740	-0.1538	26.80	0.89	-0.750			
0.8653	55378.79	3.1710	3.1711	-0.1531	26.80	0.89	-0.750			
0.8658	55408.61	3.1680	3.1680	-0.1518	26.81	0.90	-0.750			
0.8662	55437.63	3.1650	3.1650	-0.1498	26.81	0.90	-0.750			
0.8667	55466.21	3.1620	3.1620	-0.1478	26.82	0.91	-0.750			
0.8671	55494.48	3.1590	3.1590	-0.1461	26.82	0.91	-0.750			
0.8675	55522.14	3.1560	3.1561	-0.1448	26.82	0.91	-0.750			
0.8680	55549.56	3.1530	3.1529	-0.1431	26.83	0.92	-0.750			
0.8684	55576.94	3.1500	3.1500	-0.1422	26.83	0.92	-0.750			
0.8688	55604.13	3.1470	3.1470	-0.1402	26.83	0.92	-0.750			
0.8692	55630.96	3.1440	3.1442	-0.1399	26.84	0.93	-0.750			
0.8697	55657.73	3.1410	3.1410	-0.1389	26.84	0.93	-0.750			
0.8701	55684.31	3.1380	3.1380	-0.1379	26.85	0.94	-0.750			
0.8705	55710.70	3.1350	3.1349	-0.1365	26.86	0.95	-0.750			
0.8709	55736.64	3.1320	3.1321	-0.1353	26.86	0.95	-0.750			
0.8713	55762.65	3.1290	3.1290	-0.1347	26.87	0.96	-0.750			
0.8717	55788.54	3.1260	3.1261	-0.1328	26.87	0.96	-0.750			
0.8721	55813.82	3.1230	3.1230	-0.1324	26.88	0.97	-0.750			
0.8725	55838.74	3.1200	3.1200	-0.1305	26.88	0.97	-0.750			
0.8729	55863.72	3.1170	3.1171	-0.1299	26.89	0.98	-0.750			
0.8733	55888.63	3.1140	3.1139	-0.1296	26.89	0.98	-0.750			
0.8736	55913.49	3.1110	3.1109	-0.1290	26.90	0.99	-0.750			
0.8740	55938.07	3.1080	3.1081	-0.1284	26.90	0.99	-0.750			
0.8744	55962.90	3.1050	3.1049	-0.1272	26.91	1.00	-0.750			
0.8748	55987.71	3.1020	3.1020	-0.1268	26.91	1.00	-0.750			
0.8752	56011.80	3.0990	3.0991	-0.1258	26.92	1.01	-0.750			
0.8756	56035.60	3.0960	3.0960	-0.1243	26.92	1.01	-0.750			
0.8759	56059.47	3.0930	3.0929	-0.1228	26.93	1.02	-0.750			
0.8763	56083.03	3.0900	3.0901	-0.1215	26.93	1.02	-0.750			
0.8767	56106.07	3.0870	3.0872	-0.1206	26.94	1.03	-0.750			
0.8770	56128.88	3.0840	3.0840	-0.1204	26.94	1.03	-0.750			
0.8774	56151.78	3.0810	3.0809	-0.1198	26.95	1.04	-0.750			
0.8777	56174.94	3.0780	3.0779	-0.1192	26.96	1.05	-0.750			
0.8781	56197.63	3.0750	3.0749	-0.1185	26.96	1.05	-0.750			
0.8784	56220.61	3.0720	3.0721	-0.1174	26.97	1.06	-0.750			
0.8788	56243.58	3.0690	3.0690	-0.1173	26.97	1.06	-0.750			
0.8792	56265.65	3.0660	3.0661	-0.1163	26.98	1.07	-0.750			
0.8795	56287.82	3.0630	3.0630	-0.1151	26.98	1.07	-0.750			
0.8798	56309.63	3.0600	3.0599	-0.1146	26.99	1.08	-0.750			
0.8802	56331.16	3.0570	3.0569	-0.1136	27.00	1.09	-0.750			
0.8805	56353.24	3.0540	3.0540	-0.1126	27.00	1.09	-0.750			
0.8809	56374.92	3.0510	3.0509	-0.1121	27.01	1.10	-0.750			
0.8812	56396.37	3.0480	3.0481	-0.1114	27.01	1.10	-0.750			
0.8815	56417.96	3.0450	3.0451	-0.1110	27.02	1.11	-0.750			
0.8819	56438.91	3.0420	3.0420	-0.1106	27.02	1.11	-0.750			
0.8822	56459.81	3.0390	3.0390	-0.1096	27.03	1.12	-0.750			
0.8825	56480.94	3.0360	3.0359	-0.1091	27.03	1.12	-0.750			
0.8828	56501.65	3.0330	3.0330	-0.1085	27.04	1.13	-0.750			
0.8832	56522.64	3.0300	3.0300	-0.1078	27.04	1.13	-0.750			
0.8835	56543.66	3.0270	3.0271	-0.1078	27.05	1.14	-0.750			
0.8838	56564.25	3.0240	3.0240	-0.1068	27.05	1.14	-0.750			
0.8841	56584.76	3.0210	3.0210	-0.1059	27.06	1.15	-0.750			
0.8845	56604.95	3.0180	3.0179	-0.1049	27.06	1.15	-0.750			
0.8848	56624.84	3.0150	3.0150	-0.1037	27.07	1.16	-0.750			
0.8851	56644.66	3.0120	3.0121	-0.1028	27.07	1.16	-0.750			
0.8854	56664.39	3.0090	3.0091	-0.1019	27.08	1.17	-0.751			
0.8857	56683.87	3.0060	3.0059	-0.1009	27.08	1.17	-0.751			
0.8860	56703.15	3.0030	3.0030	-0.0998	27.09	1.18	-0.751			
