Ah_balance (normalized)	Ah_balance (mAh)	Voltage - fit (V)	Voltage -  interpolate (V)	dQ/dV (1/V)	Temperature (°C)	Temperature - diff (°C)	Current (C)	R_DC 0ms (mOhm)	R_DC 50ms (mOhm)	R_DC 50 ms PEC (mOhm)
0.0001	9.58	4.1620	4.1619	-0.1002	25.89	0.00	-0.750			
0.0005	32.59	4.1590	4.1589	-0.1401	25.89	0.00	-0.750			
0.0010	63.10	4.1560	4.1559	-0.1806	25.89	-0.00	-0.750			
0.0016	102.19	4.1530	4.1530	-0.2208	25.89	-0.00	-0.750			
0.0023	148.61	4.1500	4.1500	-0.2597	25.88	-0.01	-0.750			
0.0032	202.90	4.1470	4.1470	-0.2960	25.88	-0.01	-0.750			
0.0041	263.56	4.1440	4.1440	-0.3287	25.88	-0.01	-0.750			
0.0052	330.79	4.1410	4.1411	-0.3615	25.88	-0.01	-0.750			
0.0063	403.26	4.1380	4.1379	-0.3933	25.87	-0.02	-0.750			
0.0075	481.80	4.1350	4.1351	-0.4226	25.87	-0.02	-0.750			
0.0088	566.18	4.1320	4.1319	-0.4512	25.86	-0.03	-0.750			
0.0103	656.72	4.1290	4.1290	-0.4760	25.86	-0.03	-0.750			
0.0117	751.31	4.1260	4.1260	-0.4996	25.85	-0.04	-0.750			
0.0133	850.60	4.1230	4.1231	-0.5216	25.85	-0.04	-0.750			
0.0149	952.75	4.1200	4.1200	-0.5373	25.85	-0.04	-0.750			
0.0165	1057.52	4.1170	4.1170	-0.5525	25.84	-0.05	-0.750			
0.0182	1165.64	4.1140	4.1140	-0.5663	25.84	-0.05	-0.750			
0.0199	1275.44	4.1110	4.1110	-0.5840	25.83	-0.06	-0.750			
0.0217	1389.93	4.1080	4.1080	-0.5962	25.83	-0.06	-0.750			
0.0235	1506.18	4.1050	4.1049	-0.6058	25.83	-0.06	-0.750			
0.0254	1623.73	4.1020	4.1021	-0.6146	25.82	-0.07	-0.750			
0.0272	1742.63	4.0990	4.0991	-0.6246	25.82	-0.07	-0.750			
0.0291	1863.27	4.0960	4.0960	-0.6301	25.82	-0.07	-0.750			
0.0310	1983.74	4.0930	4.0930	-0.6397	25.82	-0.07	-0.750			
0.0329	2107.92	4.0900	4.0899	-0.6442	25.81	-0.08	-0.750			
0.0349	2234.59	4.0870	4.0870	-0.6540	25.81	-0.08	-0.750			
0.0369	2360.35	4.0840	4.0839	-0.6593	25.81	-0.08	-0.750			
0.0389	2488.26	4.0810	4.0812	-0.6621	25.81	-0.08	-0.750			
0.0409	2614.73	4.0780	4.0779	-0.6676	25.81	-0.08	-0.750			
0.0429	2743.33	4.0750	4.0750	-0.6708	25.80	-0.09	-0.750			
0.0449	2871.38	4.0720	4.0721	-0.6726	25.80	-0.09	-0.750			
0.0469	3003.66	4.0690	4.0689	-0.6777	25.80	-0.09	-0.750			
0.0490	3134.50	4.0660	4.0661	-0.6806	25.79	-0.10	-0.750			
0.0510	3264.86	4.0630	4.0632	-0.6819	25.79	-0.10	-0.750			
0.0531	3396.16	4.0600	4.0599	-0.6852	25.79	-0.10	-0.750			
0.0551	3525.88	4.0570	4.0570	-0.6888	25.79	-0.10	-0.750			
0.0572	3658.03	4.0540	4.0540	-0.6940	25.78	-0.11	-0.750			
0.0593	3794.83	4.0510	4.0509	-0.7003	25.78	-0.11	-0.750			
0.0614	3929.40	4.0480	4.0480	-0.6978	25.78	-0.11	-0.750			
0.0635	4062.71	4.0450	4.0452	-0.6996	25.78	-0.11	-0.750			
0.0656	4197.10	4.0420	4.0420	-0.7018	25.78	-0.11	-0.750			
0.0677	4330.29	4.0390	4.0390	-0.7044	25.78	-0.11	-0.750			
0.0698	4465.83	4.0360	4.0360	-0.7059	25.79	-0.10	-0.750			
0.0719	4602.34	4.0330	4.0330	-0.7083	25.79	-0.10	-0.750			
0.0741	4739.27	4.0300	4.0299	-0.7100	25.79	-0.10	-0.750			
0.0762	4875.46	4.0270	4.0271	-0.7157	25.79	-0.10	-0.750			
0.0783	5012.51	4.0240	4.0239	-0.7169	25.79	-0.10	-0.750			
0.0805	5149.40	4.0210	4.0210	-0.7228	25.78	-0.11	-0.750			
0.0826	5289.25	4.0180	4.0181	-0.7263	25.78	-0.11	-0.750			
0.0849	5430.81	4.0150	4.0150	-0.7293	25.78	-0.11	-0.750			
0.0870	5571.15	4.0120	4.0119	-0.7289	25.77	-0.12	-0.750			
0.0892	5710.56	4.0090	4.0089	-0.7294	25.77	-0.12	-0.750			
0.0914	5849.44	4.0060	4.0061	-0.7276	25.77	-0.12	-0.750			
0.0936	5989.20	4.0030	4.0030	-0.7302	25.77	-0.12	-0.750			
0.0957	6127.86	4.0000	4.0000	-0.7294	25.78	-0.11	-0.750			
0.0980	6270.00	3.9970	3.9969	-0.7371	25.78	-0.11	-0.750			
0.1002	6412.36	3.9940	3.9940	-0.7397	25.78	-0.11	-0.750			
0.1024	6554.66	3.9910	3.9910	-0.7384	25.78	-0.11	-0.750			
0.1046	6697.38	3.9880	3.9880	-0.7377	25.78	-0.11	-0.750			
0.1069	6839.23	3.9850	3.9850	-0.7446	25.78	-0.11	-0.750			
0.1091	6981.19	3.9820	3.9820	-0.7460	25.79	-0.10	-0.750			
0.1113	7124.61	3.9790	3.9789	-0.7459	25.79	-0.10	-0.750			
0.1136	7267.99	3.9760	3.9762	-0.7493	25.79	-0.10	-0.750			
0.1158	7413.21	3.9730	3.9730	-0.7543	25.79	-0.10	-0.750			
0.1181	7557.92	3.9700	3.9700	-0.7573	25.79	-0.10	-0.750			
0.1204	7703.15	3.9670	3.9670	-0.7570	25.79	-0.10	-0.750			
0.1226	7849.15	3.9640	3.9640	-0.7599	25.79	-0.10	-0.750			
0.1249	7995.38	3.9610	3.9609	-0.7614	25.79	-0.10	-0.750			
0.1272	8142.70	3.9580	3.9580	-0.7627	25.79	-0.10	-0.750			
0.1295	8288.06	3.9550	3.9550	-0.7618	25.79	-0.10	-0.750			
0.1318	8434.02	3.9520	3.9520	-0.7637	25.79	-0.10	-0.750			
0.1341	8580.20	3.9490	3.9491	-0.7619	25.79	-0.10	-0.750			
0.1364	8728.54	3.9460	3.9459	-0.7685	25.79	-0.10	-0.750			
0.1387	8876.27	3.9430	3.9430	-0.7699	25.79	-0.10	-0.750			
0.1410	9023.63	3.9400	3.9401	-0.7731	25.79	-0.10	-0.750			
0.1433	9172.15	3.9370	3.9369	-0.7842	25.80	-0.09	-0.750			
0.1457	9325.57	3.9340	3.9340	-0.7841	25.80	-0.09	-0.750			
0.1481	9476.58	3.9310	3.9309	-0.7823	25.81	-0.08	-0.750			
0.1504	9626.90	3.9280	3.9283	-0.7836	25.81	-0.08	-0.750			
0.1528	9776.77	3.9250	3.9249	-0.7869	25.81	-0.08	-0.750			
0.1551	9927.94	3.9220	3.9220	-0.7864	25.81	-0.08	-0.750			
0.1575	10078.42	3.9190	3.9189	-0.7795	25.81	-0.08	-0.750			
0.1598	10230.31	3.9160	3.9160	-0.7840	25.81	-0.08	-0.750			
0.1622	10381.11	3.9130	3.9130	-0.7852	25.81	-0.08	-0.750			
0.1645	10529.75	3.9100	3.9100	-0.7840	25.81	-0.08	-0.750			
0.1668	10678.16	3.9070	3.9069	-0.7837	25.81	-0.08	-0.750			
0.1692	10828.48	3.9040	3.9041	-0.7886	25.81	-0.08	-0.750			
0.1716	10981.21	3.9010	3.9010	-0.7939	25.82	-0.07	-0.750			
0.1740	11134.55	3.8980	3.8980	-0.7983	25.82	-0.07	-0.750			
0.1764	11288.12	3.8950	3.8950	-0.8038	25.82	-0.07	-0.750			
0.1788	11442.89	3.8920	3.8920	-0.8030	25.82	-0.07	-0.750			
0.1812	11598.60	3.8890	3.8890	-0.8091	25.82	-0.07	-0.750			
0.1837	11756.46	3.8860	3.8860	-0.8050	25.83	-0.06	-0.750			
0.1861	11911.46	3.8830	3.8830	-0.8026	25.83	-0.06	-0.750			
0.1885	12064.28	3.8800	3.8803	-0.8036	25.83	-0.06	-0.750			
0.1909	12217.26	3.8770	3.8769	-0.8010	25.83	-0.06	-0.750			
0.1933	12369.87	3.8740	3.8739	-0.8047	25.84	-0.05	-0.750			
0.1957	12524.28	3.8710	3.8710	-0.8048	25.84	-0.05	-0.750			
0.1982	12681.67	3.8680	3.8680	-0.8128	25.85	-0.04	-0.750			
0.2006	12837.79	3.8650	3.8651	-0.8104	25.85	-0.04	-0.750			
0.2030	12992.78	3.8620	3.8619	-0.8085	25.85	-0.04	-0.750			
0.2054	13146.63	3.8590	3.8591	-0.8102	25.85	-0.04	-0.750			
0.2078	13301.63	3.8560	3.8560	-0.8101	25.85	-0.04	-0.750			
0.2103	13457.82	3.8530	3.8529	-0.8133	25.85	-0.04	-0.750			
0.2127	13614.10	3.8500	3.8500	-0.8166	25.85	-0.04	-0.750			
0.2152	13770.81	3.8470	3.8471	-0.8155	25.85	-0.04	-0.750			
0.2176	13928.63	3.8440	3.8439	-0.8222	25.86	-0.03	-0.750			
0.2201	14087.50	3.8410	3.8410	-0.8209	25.86	-0.03	-0.750			
0.2226	14245.57	3.8380	3.8380	-0.8138	25.87	-0.02	-0.750			
0.2250	14402.39	3.8350	3.8350	-0.8147	25.87	-0.02	-0.750			
0.2275	14557.54	3.8320	3.8320	-0.8106	25.87	-0.02	-0.750			
0.2299	14710.62	3.8290	3.8289	-0.8070	25.88	-0.01	-0.750			
0.2323	14865.49	3.8260	3.8259	-0.8057	25.88	-0.01	-0.750			
0.2347	15018.38	3.8230	3.8230	-0.8038	25.88	-0.01	-0.750			
0.2371	15176.59	3.8200	3.8200	-0.8065	25.89	-0.00	-0.750			
0.2396	15331.54	3.8170	3.8170	-0.8045	25.89	0.00	-0.750			
0.2419	15483.77	3.8140	3.8140	-0.8010	25.89	0.00	-0.750			
0.2444	15638.64	3.8110	3.8110	-0.7987	25.89	0.00	-0.750			
0.2467	15791.39	3.8080	3.8080	-0.7933	25.89	0.00	-0.750			
0.2491	15944.14	3.8050	3.8049	-0.7919	25.89	0.00	-0.750			
0.2515	16095.43	3.8020	3.8021	-0.7893	25.89	0.00	-0.750			
0.2539	16246.49	3.7990	3.7990	-0.7875	25.90	0.01	-0.750			
0.2562	16396.61	3.7960	3.7960	-0.7835	25.90	0.01	-0.750			
0.2585	16546.65	3.7930	3.7929	-0.7794	25.90	0.01	-0.750			
0.2609	16697.78	3.7900	3.7900	-0.7797	25.91	0.02	-0.750			
0.2632	16847.85	3.7870	3.7874	-0.7755	25.91	0.02	-0.750			
0.2656	16995.46	3.7840	3.7840	-0.7702	25.91	0.02	-0.750			
0.2678	17142.30	3.7810	3.7810	-0.7684	25.91	0.02	-0.750			
0.2702	17290.51	3.7780	3.7780	-0.7641	25.92	0.03	-0.750			
0.2724	17434.96	3.7750	3.7750	-0.7666	25.92	0.03	-0.750			
0.2747	17582.20	3.7720	3.7720	-0.7701	25.92	0.03	-0.750			
0.2770	17730.90	3.7690	3.7689	-0.7723	25.92	0.03	-0.750			
0.2794	17880.21	3.7660	3.7660	-0.7704	25.92	0.03	-0.750			
0.2817	18029.10	3.7630	3.7631	-0.7666	25.92	0.03	-0.750			
0.2840	18175.82	3.7600	3.7600	-0.7629	25.93	0.04	-0.750			
0.2863	18323.24	3.7570	3.7570	-0.7624	25.93	0.04	-0.750			
0.2885	18465.87	3.7540	3.7540	-0.7581	25.93	0.04	-0.750			
0.2908	18611.78	3.7510	3.7511	-0.7616	25.93	0.04	-0.750			
0.2931	18757.94	3.7480	3.7479	-0.7690	25.94	0.05	-0.750			
0.2954	18906.04	3.7450	3.7450	-0.7764	25.94	0.05	-0.750			
0.2978	19056.18	3.7420	3.7420	-0.7794	25.95	0.06	-0.750			
0.3001	19205.30	3.7390	3.7389	-0.7858	25.95	0.06	-0.750			
0.3024	19356.30	3.7360	3.7360	-0.7933	25.95	0.06	-0.750			
0.3048	19508.96	3.7330	3.7327	-0.8072	25.95	0.06	-0.750			
0.3073	19665.83	3.7300	3.7300	-0.8149	25.95	0.06	-0.750			
0.3097	19822.74	3.7270	3.7269	-0.8237	25.95	0.06	-0.750			
0.3122	19983.48	3.7240	3.7242	-0.8385	25.95	0.06	-0.750			
0.3148	20146.20	3.7210	3.7209	-0.8511	25.95	0.06	-0.750			
0.3173	20308.01	3.7180	3.7179	-0.8632	25.95	0.06	-0.750			
0.3199	20475.45	3.7150	3.7150	-0.8767	25.95	0.06	-0.750			
0.3226	20643.30	3.7120	3.7120	-0.8847	25.95	0.06	-0.750			
0.3253	20817.71	3.7090	3.7090	-0.9084	25.95	0.06	-0.750			
0.3280	20990.84	3.7060	3.7060	-0.9298	25.95	0.06	-0.750			
0.3308	21170.15	3.7030	3.7028	-0.9471	25.95	0.06	-0.750			
0.3337	21354.51	3.7000	3.7000	-0.9686	25.95	0.06	-0.750			
0.3366	21542.84	3.6970	3.6969	-0.9814	25.95	0.06	-0.750			
0.3396	21736.45	3.6940	3.6941	-1.0087	25.95	0.06	-0.750			
0.3427	21932.53	3.6910	3.6909	-1.0224	25.94	0.05	-0.750			
0.3457	22126.80	3.6880	3.6880	-1.0369	25.94	0.05	-0.750			
0.3488	22325.83	3.6850	3.6850	-1.0455	25.93	0.04	-0.750			
0.3520	22530.68	3.6820	3.6820	-1.0734	25.93	0.04	-0.750			
0.3553	22738.55	3.6790	3.6790	-1.0973	25.92	0.03	-0.750			
0.3586	22951.68	3.6760	3.6760	-1.1183	25.92	0.03	-0.750			
0.3620	23167.68	3.6730	3.6729	-1.1347	25.91	0.02	-0.750			
0.3655	23389.53	3.6700	3.6699	-1.1676	25.91	0.02	-0.750			
0.3690	23616.58	3.6670	3.6670	-1.1856	25.90	0.01	-0.750			
0.3726	23848.18	3.6640	3.6639	-1.2068	25.89	0.00	-0.750			
0.3763	24080.41	3.6610	3.6613	-1.2298	25.89	0.00	-0.750			
0.3800	24317.84	3.6580	3.6580	-1.2534	25.89	0.00	-0.750			
0.3838	24562.13	3.6550	3.6549	-1.2784	25.89	0.00	-0.750			
0.3877	24810.57	3.6520	3.6519	-1.2923	25.89	0.00	-0.750			
0.3916	25063.54	3.6490	3.6490	-1.3165	25.88	-0.01	-0.750			
0.3956	25316.01	3.6460	3.6461	-1.3361	25.87	-0.02	-0.750			
0.3996	25572.24	3.6430	3.6430	-1.3677	25.86	-0.03	-0.750			
0.4037	25836.52	3.6400	3.6398	-1.3900	25.86	-0.03	-0.750			
0.4079	26105.57	3.6370	3.6369	-1.4281	25.85	-0.04	-0.750			
0.4123	26385.84	3.6340	3.6340	-1.4595	25.85	-0.04	-0.750			
0.4167	26671.02	3.6310	3.6309	-1.5068	25.84	-0.05	-0.750			
0.4214	26967.97	3.6280	3.6283	-1.5278	25.83	-0.06	-0.750			
0.4260	27261.66	3.6250	3.6250	-1.5562	25.82	-0.07	-0.750			
0.4306	27556.64	3.6220	3.6222	-1.5906	25.82	-0.07	-0.750			
0.4355	27870.47	3.6190	3.6189	-1.6248	25.82	-0.07	-0.750			
0.4404	28184.78	3.6160	3.6164	-1.6681	25.82	-0.07	-0.750	0.405	0.536	
0.4454	28508.12	3.6130	3.6129	-1.6985	25.81	-0.08	-0.750			
0.4505	28834.68	3.6100	3.6102	-1.7194	25.81	-0.08	-0.750			
0.4558	29173.19	3.6070	3.6069	-1.7572	25.81	-0.08	-0.750			
0.4611	29511.29	3.6040	3.6040	-1.7944	25.81	-0.08	-0.750			
0.4665	29857.63	3.6010	3.6008	-1.8147	25.81	-0.08	-0.750			
0.4721	30214.45	3.5980	3.5981	-1.8707	25.81	-0.08	-0.750			
0.4777	30571.92	3.5950	3.5951	-1.9069	25.81	-0.08	-0.750			
0.4835	30945.29	3.5920	3.5919	-1.9520	25.80	-0.09	-0.750			
0.4895	31325.15	3.5890	3.5890	-1.9786	25.80	-0.09	-0.750			
0.4954	31708.31	3.5860	3.5860	-2.0272	25.81	-0.08	-0.750			
0.5016	32099.67	3.5830	3.5831	-2.0628	25.81	-0.08	-0.750			
0.5080	32510.07	3.5800	3.5799	-2.0765	25.80	-0.09	-0.750			
0.5142	32906.26	3.5770	3.5768	-2.0929	25.80	-0.09	-0.750			
0.5204	33306.46	3.5740	3.5742	-2.1152	25.80	-0.09	-0.750			
0.5268	33715.88	3.5710	3.5710	-2.1306	25.80	-0.09	-0.750			
0.5332	34124.32	3.5680	3.5680	-2.1542	25.80	-0.09	-0.750			
0.5396	34536.86	3.5650	3.5650	-2.1759	25.80	-0.09	-0.750			
0.5463	34961.69	3.5620	3.5619	-2.1963	25.81	-0.08	-0.750			
0.5530	35393.88	3.5590	3.5590	-2.2238	25.81	-0.08	-0.750			
0.5597	35821.01	3.5560	3.5560	-2.2009	25.81	-0.08	-0.750			
0.5662	36239.03	3.5530	3.5531	-2.2046	25.81	-0.08	-0.750			
0.5729	36664.26	3.5500	3.5502	-2.1964	25.82	-0.07	-0.750			
0.5795	37086.76	3.5470	3.5468	-2.1850	25.82	-0.07	-0.750			
0.5860	37505.53	3.5440	3.5441	-2.1842	25.82	-0.07	-0.750			
0.5927	37929.99	3.5410	3.5410	-2.1781	25.83	-0.06	-0.750			
0.5992	38350.43	3.5380	3.5380	-2.1606	25.84	-0.05	-0.750			
0.6057	38761.88	3.5350	3.5350	-2.1327	25.85	-0.04	-0.750			
0.6120	39167.94	3.5320	3.5321	-2.0863	25.86	-0.03	-0.750			
0.6183	39570.64	3.5290	3.5289	-2.0457	25.87	-0.02	-0.750			
0.6243	39957.81	3.5260	3.5259	-2.0020	25.89	-0.00	-0.750			
0.6302	40334.17	3.5230	3.5230	-1.9558	25.90	0.01	-0.750			
0.6361	40707.47	3.5200	3.5199	-1.9111	25.91	0.02	-0.750			
0.6417	41071.88	3.5170	3.5171	-1.8616	25.92	0.03	-0.750			
0.6472	41422.85	3.5140	3.5142	-1.8090	25.94	0.05	-0.750			
0.6527	41770.19	3.5110	3.5109	-1.7640	25.95	0.06	-0.750			
0.6579	42102.76	3.5080	3.5080	-1.7196	25.96	0.07	-0.750			
0.6630	42432.75	3.5050	3.5053	-1.6639	25.97	0.08	-0.750			
0.6680	42749.75	3.5020	3.5020	-1.6134	25.99	0.10	-0.750			
0.6727	43052.59	3.4990	3.4989	-1.5632	26.00	0.11	-0.750			
0.6773	43346.37	3.4960	3.4960	-1.5023	26.02	0.13	-0.750			
0.6817	43626.55	3.4930	3.4929	-1.4465	26.04	0.15	-0.750			
0.6859	43896.45	3.4900	3.4900	-1.4043	26.06	0.17	-0.750			
0.6900	44160.40	3.4870	3.4870	-1.3575	26.08	0.19	-0.750			
0.6941	44421.60	3.4840	3.4839	-1.3288	26.10	0.21	-0.750			
0.6980	44671.60	3.4810	3.4809	-1.2838	26.12	0.23	-0.750			
0.7018	44913.66	3.4780	3.4781	-1.2478	26.13	0.24	-0.750			
0.7055	45154.56	3.4750	3.4750	-1.2138	26.15	0.26	-0.750			
0.7091	45383.27	3.4720	3.4719	-1.1735	26.16	0.27	-0.750			
0.7125	45603.10	3.4690	3.4690	-1.1222	26.18	0.29	-0.750			
0.7159	45817.26	3.4660	3.4659	-1.0924	26.19	0.30	-0.750			
0.7191	46022.50	3.4630	3.4631	-1.0504	26.20	0.31	-0.750			
0.7222	46218.38	3.4600	3.4599	-1.0132	26.22	0.33	-0.750			
0.7251	46405.42	3.4570	3.4570	-0.9773	26.23	0.34	-0.750			
0.7280	46592.76	3.4540	3.4540	-0.9543	26.24	0.35	-0.750			
0.7308	46771.64	3.4510	3.4509	-0.9277	26.25	0.36	-0.750			
0.7336	46947.52	3.4480	3.4480	-0.9096	26.26	0.37	-0.750			
0.7362	47118.36	3.4450	3.4451	-0.8900	26.26	0.37	-0.750			
0.7389	47287.93	3.4420	3.4419	-0.8805	26.27	0.38	-0.750			
0.7415	47454.34	3.4390	3.4390	-0.8749	26.29	0.40	-0.750			
0.7440	47618.61	3.4360	3.4360	-0.8728	26.30	0.41	-0.750			
0.7467	47785.67	3.4330	3.4330	-0.8784	26.31	0.42	-0.750			
0.7493	47953.98	3.4300	3.4299	-0.8910	26.32	0.43	-0.750			
0.7520	48126.53	3.4270	3.4270	-0.9016	26.33	0.44	-0.750			
0.7547	48300.29	3.4240	3.4240	-0.9226	26.34	0.45	-0.750			
0.7575	48480.33	3.4210	3.4210	-0.9360	26.35	0.46	-0.750			
0.7603	48662.37	3.4180	3.4180	-0.9461	26.36	0.47	-0.750			
0.7632	48846.96	3.4150	3.4152	-0.9532	26.37	0.48	-0.750			
0.7661	49032.79	3.4120	3.4120	-0.9580	26.38	0.49	-0.750			
0.7690	49217.65	3.4090	3.4089	-0.9517	26.39	0.50	-0.750			
0.7719	49401.26	3.4060	3.4060	-0.9436	26.40	0.51	-0.750			
0.7747	49581.62	3.4030	3.4030	-0.9291	26.42	0.53	-0.750			
0.7775	49760.04	3.4000	3.4000	-0.9063	26.43	0.54	-0.750			
0.7802	49933.83	3.3970	3.3970	-0.8876	26.43	0.54	-0.750			
0.7828	50102.16	3.3940	3.3941	-0.8565	26.44	0.55	-0.750			
0.7854	50263.41	3.3910	3.3909	-0.8273	26.45	0.56	-0.750			
0.7878	50420.23	3.3880	3.3880	-0.8000	26.46	0.57	-0.750			
0.7902	50570.30	3.3850	3.3849	-0.7700	26.47	0.58	-0.750			
0.7924	50715.48	3.3820	3.3820	-0.7434	26.47	0.58	-0.750			
0.7946	50855.89	3.3790	3.3790	-0.7183	26.48	0.59	-0.750			
0.7967	50990.00	3.3760	3.3761	-0.6885	26.49	0.60	-0.750			
0.7988	51121.58	3.3730	3.3729	-0.6665	26.49	0.60	-0.750			
0.8007	51246.00	3.3700	3.3701	-0.6408	26.50	0.61	-0.750			
0.8026	51366.09	3.3670	3.3670	-0.6161	26.51	0.62	-0.750			
0.8044	51481.59	3.3640	3.3639	-0.5940	26.51	0.62	-0.750			
0.8061	51592.49	3.3610	3.3611	-0.5732	26.52	0.63	-0.750			
0.8078	51700.94	3.3580	3.3580	-0.5555	26.53	0.64	-0.750			
0.8095	51805.93	3.3550	3.3549	-0.5319	26.54	0.65	-0.750			
0.8110	51905.75	3.3520	3.3520	-0.5127	26.54	0.65	-0.750			
0.8125	52002.37	3.3490	3.3491	-0.4937	26.55	0.66	-0.750			
0.8140	52095.33	3.3460	3.3458	-0.4758	26.55	0.66	-0.750			
0.8154	52184.18	3.3430	3.3430	-0.4599	26.56	0.67	-0.750			
0.8167	52269.55	3.3400	3.3401	-0.4441	26.56	0.67	-0.750			
0.8180	52354.60	3.3370	3.3369	-0.4316	26.57	0.68	-0.750			
0.8193	52436.82	3.3340	3.3339	-0.4182	26.57	0.68	-0.750			
0.8205	52514.38	3.3310	3.3311	-0.4047	26.58	0.69	-0.750			
0.8217	52590.94	3.3280	3.3281	-0.3960	26.58	0.69	-0.750			
0.8229	52666.31	3.3250	3.3249	-0.3822	26.59	0.70	-0.750			
0.8240	52738.34	3.3220	3.3220	-0.3709	26.59	0.70	-0.750			
0.8251	52808.37	3.3190	3.3191	-0.3600	26.60	0.71	-0.750			
0.8262	52876.57	3.3160	3.3160	-0.3510	26.60	0.71	-0.750			
0.8272	52943.01	3.3130	3.3129	-0.3399	26.61	0.72	-0.750			
0.8282	53006.70	3.3100	3.3100	-0.3292	26.61	0.72	-0.750			
0.8292	53068.61	3.3070	3.3070	-0.3201	26.62	0.73	-0.750			
0.8302	53129.96	3.3040	3.3039	-0.3137	26.62	0.73	-0.750			
0.8311	53189.22	3.3010	3.3010	-0.3041	26.63	0.74	-0.750			
0.8320	53246.68	3.2980	3.2981	-0.2967	26.63	0.74	-0.750			
0.8329	53302.51	3.2950	3.2950	-0.2893	26.63	0.74	-0.750			
0.8337	53357.54	3.2920	3.2921	-0.2842	26.64	0.75	-0.750			
0.8345	53410.94	3.2890	3.2889	-0.2773	26.64	0.75	-0.750			
0.8354	53463.42	3.2860	3.2860	-0.2710	26.65	0.76	-0.750			
0.8362	53514.85	3.2830	3.2831	-0.2662	26.65	0.76	-0.750			
0.8370	53565.84	3.2800	3.2801	-0.2614	26.65	0.76	-0.750			
0.8377	53615.95	3.2770	3.2769	-0.2565	26.66	0.77	-0.750			
0.8385	53664.36	3.2740	3.2741	-0.2499	26.66	0.77	-0.750			
0.8392	53711.85	3.2710	3.2710	-0.2443	26.67	0.78	-0.750			
0.8400	53757.74	3.2680	3.2680	-0.2401	26.68	0.79	-0.750			
0.8407	53803.62	3.2650	3.2650	-0.2359	26.68	0.79	-0.750			
0.8414	53847.90	3.2620	3.2620	-0.2311	26.69	0.80	-0.750			
0.8421	53891.99	3.2590	3.2589	-0.2281	26.69	0.80	-0.750			
0.8427	53935.62	3.2560	3.2561	-0.2241	26.70	0.81	-0.750			
0.8434	53978.31	3.2530	3.2529	-0.2211	26.71	0.82	-0.750			
0.8441	54020.65	3.2500	3.2499	-0.2177	26.71	0.82	-0.750			
0.8447	54062.05	3.2470	3.2472	-0.2136	26.72	0.83	-0.750			
0.8453	54102.11	3.2440	3.2440	-0.2106	26.72	0.83	-0.750			
0.8460	54142.53	3.2410	3.2409	-0.2079	26.73	0.84	-0.750			
0.8466	54181.69	3.2380	3.2380	-0.2047	26.73	0.84	-0.750			
0.8472	54220.81	3.2350	3.2350	-0.2028	26.74	0.85	-0.750			
0.8478	54260.02	3.2320	3.2320	-0.1992	26.75	0.86	-0.750			
0.8484	54297.61	3.2290	3.2290	-0.1967	26.75	0.86	-0.750			
0.8490	54335.27	3.2260	3.2260	-0.1947	26.76	0.87	-0.750			
0.8496	54372.37	3.2230	3.2230	-0.1919	26.76	0.87	-0.750			
0.8501	54408.56	3.2200	3.2199	-0.1892	26.76	0.87	-0.750			
0.8507	54444.96	3.2170	3.2172	-0.1868	26.76	0.87	-0.750			
0.8513	54480.70	3.2140	3.2140	-0.1836	26.77	0.88	-0.750			
0.8518	54515.66	3.2110	3.2110	-0.1806	26.77	0.88	-0.750			
0.8523	54550.29	3.2080	3.2080	-0.1796	26.78	0.89	-0.750			
0.8529	54584.06	3.2050	3.2050	-0.1764	26.78	0.89	-0.750			
0.8534	54617.55	3.2020	3.2019	-0.1746	26.79	0.90	-0.750			
0.8539	54650.94	3.1990	3.1990	-0.1732	26.80	0.91	-0.750			
0.8544	54684.03	3.1960	3.1961	-0.1709	26.80	0.91	-0.750			
0.8550	54716.91	3.1930	3.1930	-0.1696	26.81	0.92	-0.750			
0.8555	54749.48	3.1900	3.1900	-0.1681	26.81	0.92	-0.750			
0.8560	54781.50	3.1870	3.1871	-0.1655	26.82	0.93	-0.750			
0.8564	54812.53	3.1840	3.1840	-0.1637	26.82	0.93	-0.750			
0.8569	54843.82	3.1810	3.1811	-0.1629	26.83	0.94	-0.750			
0.8574	54874.67	3.1780	3.1780	-0.1614	26.83	0.94	-0.750			
0.8579	54905.60	3.1750	3.1749	-0.1616	26.84	0.95	-0.750			
0.8584	54937.06	3.1720	3.1720	-0.1598	26.84	0.95	-0.750			
0.8589	54967.98	3.1690	3.1690	-0.1578	26.85	0.96	-0.750			
0.8593	54997.93	3.1660	3.1660	-0.1556	26.85	0.96	-0.750			
0.8598	55027.93	3.1630	3.1633	-0.1535	26.86	0.97	-0.750			
0.8603	55056.95	3.1600	3.1600	-0.1513	26.86	0.97	-0.750			
0.8607	55085.26	3.1570	3.1568	-0.1496	26.87	0.98	-0.750			
0.8611	55113.30	3.1540	3.1541	-0.1479	26.87	0.98	-0.750			
0.8616	55141.85	3.1510	3.1511	-0.1476	26.87	0.98	-0.750			
0.8620	55170.54	3.1480	3.1480	-0.1472	26.87	0.98	-0.750			
0.8625	55199.10	3.1450	3.1450	-0.1459	26.88	0.99	-0.750			
0.8629	55227.07	3.1420	3.1420	-0.1442	26.88	0.99	-0.750			
0.8633	55254.38	3.1390	3.1391	-0.1431	26.88	0.99	-0.750			
0.8638	55281.77	3.1360	3.1361	-0.1419	26.89	1.00	-0.750			
0.8642	55308.77	3.1330	3.1329	-0.1399	26.90	1.01	-0.750			
0.8646	55335.51	3.1300	3.1300	-0.1386	26.90	1.01	-0.750			
0.8650	55361.91	3.1270	3.1271	-0.1377	26.91	1.02	-0.750			
0.8654	55388.24	3.1240	3.1241	-0.1367	26.91	1.02	-0.750			
0.8659	55414.49	3.1210	3.1210	-0.1362	26.92	1.03	-0.750			
0.8663	55440.53	3.1180	3.1179	-0.1351	26.93	1.04	-0.750			
0.8667	55466.01	3.1150	3.1150	-0.1341	26.93	1.04	-0.750			
0.8671	55491.79	3.1120	3.1121	-0.1336	26.94	1.05	-0.750			
0.8675	55517.62	3.1090	3.1089	-0.1332	26.94	1.05	-0.750			
0.8679	55543.08	3.1060	3.1061	-0.1321	26.95	1.06	-0.750			
0.8683	55568.36	3.1030	3.1030	-0.1306	26.96	1.07	-0.750			
0.8686	55593.49	3.1000	3.1000	-0.1294	26.96	1.07	-0.750			
0.8690	55618.23	3.0970	3.0970	-0.1278	26.97	1.08	-0.750			
0.8694	55642.37	3.0940	3.0941	-0.1270	26.97	1.08	-0.750			
0.8698	55666.46	3.0910	3.0911	-0.1258	26.98	1.09	-0.750			
0.8702	55690.54	3.0880	3.0879	-0.1243	26.98	1.09	-0.750			
0.8705	55714.10	3.0850	3.0850	-0.1238	26.99	1.10	-0.750			
0.8709	55737.84	3.0820	3.0822	-0.1235	26.99	1.10	-0.750			
0.8713	55761.51	3.0790	3.0790	-0.1231	27.00	1.11	-0.750			
0.8716	55785.12	3.0760	3.0759	-0.1228	27.01	1.12	-0.750			
0.8720	55808.78	3.0730	3.0730	-0.1221	27.01	1.12	-0.750			
0.8724	55832.02	3.0700	3.0701	-0.1212	27.02	1.13	-0.750			
0.8727	55855.42	3.0670	3.0671	-0.1202	27.02	1.13	-0.750			
0.8731	55878.92	3.0640	3.0640	-0.1198	27.03	1.14	-0.750			
0.8735	55901.60	3.0610	3.0610	-0.1189	27.03	1.14	-0.750			
0.8738	55924.09	3.0580	3.0580	-0.1174	27.03	1.14	-0.750			
0.8742	55946.54	3.0550	3.0551	-0.1166	27.04	1.15	-0.750			
0.8745	55968.73	3.0520	3.0519	-0.1156	27.04	1.15	-0.750			
0.8749	55990.87	3.0490	3.0490	-0.1149	27.05	1.16	-0.750			
0.8752	56012.85	3.0460	3.0461	-0.1141	27.05	1.16	-0.750			
0.8755	56034.67	3.0430	3.0430	-0.1135	27.06	1.17	-0.750			
0.8759	56056.45	3.0400	3.0400	-0.1129	27.06	1.17	-0.750			
0.8762	56078.00	3.0370	3.0370	-0.1124	27.07	1.18	-0.750			
0.8766	56099.39	3.0340	3.0340	-0.1117	27.07	1.18	-0.750			
0.8769	56120.87	3.0310	3.0310	-0.1111	27.08	1.19	-0.750			
0.8772	56142.19	3.0280	3.0280	-0.1106	27.08	1.19	-0.750			
0.8776	56163.41	3.0250	3.0250	-0.1098	27.09	1.20	-0.750			
0.8779	56184.52	3.0220	3.0221	-0.1091	27.09	1.20	-0.750			
0.8782	56205.48	3.0190	3.0189	-0.1079	27.10	1.21	-0.750			
0.8785	56226.22	3.0160	3.0160	-0.1069	27.10	1.21	-0.750			
0.8789	56246.62	3.0130	3.0131	-0.1056	27.10	1.21	-0.750			
0.8792	56266.81	3.0100	3.0101	-0.1042	27.11	1.22	-0.750			
0.8795	56286.68	3.0070	3.0069	-0.1028	27.11	1.22	-0.751			
0.8798	56306.25	3.0040	3.0039	-0.1002	27.12	1.23	-0.750			
