Ah_balance (normalized)	Ah_balance (mAh)	Voltage - fit (V)	Voltage -  interpolate (V)	dQ/dV (1/V)	Temperature (°C)	Temperature - diff (°C)	Current (C)	R_DC 0ms (mOhm)	R_DC 50ms (mOhm)	R_DC 50 ms PEC (mOhm)
0.0002	13.80	4.1630	4.1623	-0.1266	25.84	0.02	-0.750			
0.0007	42.17	4.1600	4.1599	-0.1658	25.84	0.02	-0.750			
0.0012	77.12	4.1570	4.1569	-0.2032	25.84	0.02	-0.750			
0.0019	119.46	4.1540	4.1541	-0.2422	25.84	0.02	-0.750			
0.0027	170.19	4.1510	4.1510	-0.2790	25.84	0.02	-0.750			
0.0036	227.61	4.1480	4.1480	-0.3171	25.83	0.01	-0.750			
0.0046	292.29	4.1450	4.1449	-0.3518	25.83	0.01	-0.750			
0.0057	363.53	4.1420	4.1420	-0.3863	25.83	0.01	-0.750			
0.0069	441.73	4.1390	4.1390	-0.4199	25.82	0.00	-0.750			
0.0082	525.84	4.1360	4.1361	-0.4483	25.82	-0.00	-0.750			
0.0096	615.86	4.1330	4.1330	-0.4750	25.81	-0.01	-0.750			
0.0111	710.57	4.1300	4.1300	-0.5003	25.81	-0.01	-0.750			
0.0126	809.01	4.1270	4.1271	-0.5202	25.81	-0.01	-0.750			
0.0142	910.76	4.1240	4.1240	-0.5449	25.80	-0.02	-0.750			
0.0159	1018.50	4.1210	4.1210	-0.5595	25.79	-0.03	-0.750			
0.0176	1128.30	4.1180	4.1180	-0.5746	25.79	-0.03	-0.750			
0.0194	1240.61	4.1150	4.1149	-0.5858	25.78	-0.04	-0.750			
0.0212	1355.33	4.1120	4.1121	-0.5983	25.78	-0.04	-0.750			
0.0230	1470.20	4.1090	4.1090	-0.6090	25.78	-0.04	-0.750			
0.0248	1587.81	4.1060	4.1059	-0.6182	25.78	-0.04	-0.750			
0.0267	1705.79	4.1030	4.1030	-0.6250	25.78	-0.04	-0.750			
0.0286	1828.91	4.1000	4.1000	-0.6421	25.77	-0.05	-0.750			
0.0305	1954.46	4.0970	4.0970	-0.6502	25.77	-0.05	-0.750			
0.0325	2080.67	4.0940	4.0940	-0.6568	25.77	-0.05	-0.750			
0.0345	2207.57	4.0910	4.0911	-0.6612	25.77	-0.05	-0.750			
0.0365	2334.70	4.0880	4.0880	-0.6660	25.76	-0.06	-0.750			
0.0385	2462.97	4.0850	4.0850	-0.6730	25.76	-0.06	-0.750			
0.0405	2592.24	4.0820	4.0820	-0.6782	25.76	-0.06	-0.750			
0.0425	2722.79	4.0790	4.0789	-0.6811	25.75	-0.07	-0.750			
0.0446	2855.05	4.0760	4.0760	-0.6862	25.75	-0.07	-0.750			
0.0467	2988.22	4.0730	4.0730	-0.6877	25.75	-0.07	-0.750			
0.0487	3119.68	4.0700	4.0700	-0.6895	25.75	-0.07	-0.750			
0.0508	3250.62	4.0670	4.0670	-0.6924	25.75	-0.07	-0.750			
0.0529	3383.59	4.0640	4.0640	-0.6972	25.75	-0.07	-0.750			
0.0550	3518.08	4.0610	4.0609	-0.7041	25.75	-0.07	-0.750			
0.0571	3655.50	4.0580	4.0580	-0.7064	25.75	-0.07	-0.750			
0.0592	3791.35	4.0550	4.0550	-0.7083	25.75	-0.07	-0.750			
0.0614	3928.66	4.0520	4.0520	-0.7134	25.75	-0.07	-0.750			
0.0635	4065.26	4.0490	4.0489	-0.7128	25.75	-0.07	-0.750			
0.0656	4200.10	4.0460	4.0460	-0.7144	25.75	-0.07	-0.750			
0.0678	4338.30	4.0430	4.0431	-0.7185	25.75	-0.07	-0.750			
0.0700	4477.36	4.0400	4.0400	-0.7202	25.75	-0.07	-0.750			
0.0721	4616.46	4.0370	4.0369	-0.7226	25.75	-0.07	-0.750			
0.0743	4755.05	4.0340	4.0341	-0.7224	25.75	-0.07	-0.750			
0.0765	4893.16	4.0310	4.0310	-0.7285	25.75	-0.07	-0.750			
0.0787	5034.29	4.0280	4.0279	-0.7295	25.74	-0.08	-0.750			
0.0808	5173.89	4.0250	4.0250	-0.7296	25.74	-0.08	-0.750			
0.0831	5315.50	4.0220	4.0222	-0.7307	25.74	-0.08	-0.750			
0.0853	5456.96	4.0190	4.0190	-0.7329	25.74	-0.08	-0.750			
0.0874	5595.26	4.0160	4.0160	-0.7375	25.74	-0.08	-0.750			
0.0897	5737.64	4.0130	4.0130	-0.7326	25.75	-0.07	-0.750			
0.0919	5878.49	4.0100	4.0099	-0.7337	25.75	-0.07	-0.750			
0.0941	6019.76	4.0070	4.0070	-0.7356	25.75	-0.07	-0.750			
0.0963	6160.98	4.0040	4.0040	-0.7367	25.75	-0.07	-0.750			
0.0985	6302.40	4.0010	4.0009	-0.7386	25.75	-0.07	-0.750			
0.1007	6442.99	3.9980	3.9980	-0.7400	25.75	-0.07	-0.750			
0.1029	6585.00	3.9950	3.9950	-0.7405	25.76	-0.06	-0.750			
0.1052	6730.14	3.9920	3.9920	-0.7521	25.76	-0.06	-0.750			
0.1074	6874.06	3.9890	3.9891	-0.7536	25.76	-0.06	-0.750			
0.1097	7019.30	3.9860	3.9859	-0.7557	25.76	-0.06	-0.750			
0.1120	7165.06	3.9830	3.9829	-0.7549	25.76	-0.06	-0.750			
0.1142	7310.85	3.9800	3.9801	-0.7598	25.77	-0.05	-0.750			
0.1165	7456.07	3.9770	3.9770	-0.7606	25.77	-0.05	-0.750			
0.1188	7604.19	3.9740	3.9739	-0.7627	25.77	-0.05	-0.750			
0.1211	7749.33	3.9710	3.9712	-0.7612	25.77	-0.05	-0.750			
0.1234	7895.14	3.9680	3.9680	-0.7619	25.77	-0.05	-0.750			
0.1256	8041.16	3.9650	3.9649	-0.7699	25.77	-0.05	-0.750			
0.1280	8189.23	3.9620	3.9621	-0.7641	25.77	-0.05	-0.750			
0.1303	8338.69	3.9590	3.9590	-0.7712	25.77	-0.05	-0.750			
0.1326	8487.52	3.9560	3.9560	-0.7728	25.77	-0.05	-0.750			
0.1349	8636.54	3.9530	3.9529	-0.7728	25.77	-0.05	-0.750			
0.1372	8782.18	3.9500	3.9500	-0.7735	25.78	-0.04	-0.750			
0.1395	8930.06	3.9470	3.9470	-0.7760	25.78	-0.04	-0.750			
0.1419	9080.00	3.9440	3.9439	-0.7807	25.78	-0.04	-0.750			
0.1442	9231.47	3.9410	3.9409	-0.7836	25.79	-0.03	-0.750			
0.1466	9381.23	3.9380	3.9381	-0.7822	25.79	-0.03	-0.750			
0.1489	9531.23	3.9350	3.9350	-0.7854	25.80	-0.02	-0.750			
0.1513	9682.29	3.9320	3.9320	-0.7883	25.80	-0.02	-0.750			
0.1536	9832.35	3.9290	3.9290	-0.7882	25.80	-0.02	-0.750			
0.1560	9984.99	3.9260	3.9260	-0.7929	25.81	-0.01	-0.750			
0.1584	10138.53	3.9230	3.9231	-0.7973	25.81	-0.01	-0.750			
0.1608	10291.97	3.9200	3.9200	-0.7976	25.81	-0.01	-0.750			
0.1632	10445.37	3.9170	3.9170	-0.8026	25.81	-0.01	-0.750			
0.1656	10600.15	3.9140	3.9140	-0.8027	25.81	-0.01	-0.750			
0.1680	10753.86	3.9110	3.9110	-0.8056	25.81	-0.01	-0.750			
0.1705	10909.02	3.9080	3.9082	-0.8076	25.81	-0.01	-0.750			
0.1729	11064.70	3.9050	3.9050	-0.8105	25.81	-0.01	-0.750			
0.1753	11220.68	3.9020	3.9019	-0.8110	25.81	-0.01	-0.750			
0.1777	11375.94	3.8990	3.8990	-0.8124	25.82	-0.00	-0.750			
0.1802	11533.26	3.8960	3.8960	-0.8139	25.82	-0.00	-0.750			
0.1826	11688.89	3.8930	3.8931	-0.8126	25.82	-0.00	-0.750			
0.1851	11844.99	3.8900	3.8900	-0.8104	25.82	0.00	-0.750			
0.1875	12000.28	3.8870	3.8870	-0.8171	25.82	0.00	-0.750			
0.1900	12156.92	3.8840	3.8840	-0.8187	25.83	0.01	-0.750			
0.1924	12315.80	3.8810	3.8810	-0.8168	25.83	0.01	-0.750			
0.1949	12473.08	3.8780	3.8781	-0.8189	25.83	0.01	-0.750			
0.1974	12630.94	3.8750	3.8750	-0.8225	25.83	0.01	-0.750			
0.1998	12789.34	3.8720	3.8719	-0.8233	25.84	0.02	-0.750			
0.2023	12947.63	3.8690	3.8689	-0.8219	25.84	0.02	-0.750			
0.2047	13103.64	3.8660	3.8661	-0.8190	25.84	0.02	-0.750			
0.2073	13264.26	3.8630	3.8631	-0.8216	25.85	0.03	-0.750			
0.2097	13421.64	3.8600	3.8598	-0.8218	25.85	0.03	-0.750			
0.2121	13577.06	3.8570	3.8570	-0.8194	25.86	0.04	-0.750			
0.2146	13733.98	3.8540	3.8541	-0.8216	25.86	0.04	-0.750			
0.2171	13891.61	3.8510	3.8510	-0.8241	25.86	0.04	-0.750			
0.2196	14052.24	3.8480	3.8480	-0.8288	25.87	0.05	-0.750			
0.2220	14211.09	3.8450	3.8450	-0.8329	25.87	0.05	-0.750			
0.2246	14372.73	3.8420	3.8420	-0.8333	25.88	0.06	-0.750			
0.2271	14532.53	3.8390	3.8390	-0.8278	25.88	0.06	-0.750			
0.2295	14690.93	3.8360	3.8361	-0.8234	25.88	0.06	-0.750			
0.2320	14848.99	3.8330	3.8329	-0.8232	25.89	0.07	-0.750			
0.2345	15006.11	3.8300	3.8300	-0.8217	25.89	0.07	-0.750			
0.2369	15162.29	3.8270	3.8270	-0.8265	25.89	0.07	-0.750			
0.2394	15321.35	3.8240	3.8239	-0.8217	25.90	0.08	-0.750			
0.2419	15480.59	3.8210	3.8210	-0.8216	25.90	0.08	-0.750			
0.2444	15638.51	3.8180	3.8180	-0.8235	25.90	0.08	-0.750			
0.2468	15796.70	3.8150	3.8149	-0.8229	25.90	0.08	-0.750			
0.2493	15954.50	3.8120	3.8119	-0.8185	25.90	0.08	-0.750			
0.2517	16109.42	3.8090	3.8090	-0.8186	25.90	0.08	-0.750			
0.2542	16266.31	3.8060	3.8061	-0.8162	25.91	0.09	-0.750			
0.2567	16425.97	3.8030	3.8029	-0.8206	25.91	0.09	-0.750			
0.2591	16583.66	3.8000	3.8000	-0.8167	25.91	0.09	-0.750			
0.2616	16739.33	3.7970	3.7971	-0.8153	25.92	0.10	-0.750			
0.2640	16896.38	3.7940	3.7940	-0.8118	25.92	0.10	-0.750			
0.2664	17052.80	3.7910	3.7909	-0.8069	25.92	0.10	-0.750			
0.2689	17206.42	3.7880	3.7880	-0.7999	25.93	0.11	-0.750			
0.2713	17360.73	3.7850	3.7851	-0.7966	25.93	0.11	-0.750			
0.2736	17509.93	3.7820	3.7820	-0.7979	25.93	0.11	-0.750			
0.2760	17663.35	3.7790	3.7790	-0.7944	25.93	0.11	-0.750			
0.2784	17816.15	3.7760	3.7759	-0.7892	25.93	0.11	-0.750			
0.2808	17968.56	3.7730	3.7729	-0.7899	25.93	0.11	-0.750			
0.2831	18120.87	3.7700	3.7704	-0.7885	25.93	0.11	-0.750			
0.2855	18271.80	3.7670	3.7670	-0.7827	25.93	0.11	-0.750			
0.2878	18421.25	3.7640	3.7639	-0.7807	25.94	0.12	-0.750			
0.2901	18569.13	3.7610	3.7610	-0.7773	25.94	0.12	-0.750			
0.2925	18719.96	3.7580	3.7580	-0.7798	25.95	0.13	-0.750			
0.2948	18868.78	3.7550	3.7551	-0.7774	25.95	0.13	-0.750			
0.2971	19017.39	3.7520	3.7520	-0.7778	25.95	0.13	-0.750			
0.2995	19165.49	3.7490	3.7490	-0.7864	25.95	0.13	-0.750			
0.3018	19316.46	3.7460	3.7460	-0.7901	25.96	0.14	-0.750			
0.3042	19469.02	3.7430	3.7430	-0.7920	25.96	0.14	-0.750			
0.3066	19622.04	3.7400	3.7399	-0.8008	25.96	0.14	-0.750			
0.3090	19777.48	3.7370	3.7370	-0.8060	25.96	0.14	-0.750			
0.3114	19930.53	3.7340	3.7340	-0.8161	25.96	0.14	-0.750			
0.3139	20088.55	3.7310	3.7309	-0.8222	25.96	0.14	-0.750			
0.3163	20245.85	3.7280	3.7280	-0.8279	25.97	0.15	-0.750			
0.3189	20407.21	3.7250	3.7249	-0.8436	25.97	0.15	-0.750			
0.3214	20570.86	3.7220	3.7221	-0.8565	25.97	0.15	-0.750			
0.3240	20734.92	3.7190	3.7189	-0.8670	25.97	0.15	-0.750			
0.3266	20902.52	3.7160	3.7159	-0.8801	25.97	0.15	-0.750			
0.3292	21069.72	3.7130	3.7131	-0.8930	25.97	0.15	-0.750			
0.3320	21245.34	3.7100	3.7100	-0.9145	25.97	0.15	-0.750			
0.3347	21422.69	3.7070	3.7070	-0.9309	25.97	0.15	-0.750			
0.3376	21603.75	3.7040	3.7040	-0.9532	25.97	0.15	-0.750			
0.3405	21789.04	3.7010	3.7009	-0.9704	25.96	0.14	-0.750			
0.3434	21976.71	3.6980	3.6980	-0.9889	25.96	0.14	-0.750			
0.3464	22168.53	3.6950	3.6951	-1.0099	25.96	0.14	-0.750			
0.3494	22364.33	3.6920	3.6920	-1.0222	25.96	0.14	-0.750			
0.3525	22562.39	3.6890	3.6889	-1.0394	25.95	0.13	-0.750			
0.3556	22761.48	3.6860	3.6861	-1.0484	25.95	0.13	-0.750			
0.3588	22965.91	3.6830	3.6831	-1.0808	25.95	0.13	-0.750			
0.3621	23175.18	3.6800	3.6800	-1.0983	25.94	0.12	-0.750			
0.3654	23387.55	3.6770	3.6769	-1.1164	25.94	0.12	-0.750			
0.3688	23602.35	3.6740	3.6740	-1.1372	25.93	0.11	-0.750			
0.3723	23824.64	3.6710	3.6711	-1.1699	25.93	0.11	-0.750			
0.3758	24050.53	3.6680	3.6679	-1.1940	25.92	0.10	-0.750			
0.3794	24283.88	3.6650	3.6647	-1.2156	25.92	0.10	-0.750			
0.3831	24519.78	3.6620	3.6623	-1.2328	25.91	0.09	-0.750			
0.3869	24759.09	3.6590	3.6590	-1.2780	25.90	0.08	-0.750			
0.3908	25008.36	3.6560	3.6560	-1.3066	25.90	0.08	-0.750			
0.3947	25261.06	3.6530	3.6529	-1.3383	25.89	0.07	-0.750			
0.3988	25521.87	3.6500	3.6501	-1.3684	25.88	0.06	-0.750			
0.4029	25784.51	3.6470	3.6470	-1.4000	25.88	0.06	-0.750			
0.4072	26058.88	3.6440	3.6440	-1.4368	25.87	0.05	-0.750			
0.4115	26338.88	3.6410	3.6409	-1.4543	25.86	0.04	-0.750			
0.4159	26620.16	3.6380	3.6377	-1.4594	25.86	0.04	-0.750			
0.4204	26906.74	3.6350	3.6353	-1.5157	25.85	0.03	-0.750			
0.4250	27200.37	3.6320	3.6320	-1.5388	25.84	0.02	-0.750			
0.4296	27495.76	3.6290	3.6287	-1.5875	25.83	0.01	-0.750			
0.4344	27802.78	3.6260	3.6260	-1.6034	25.82	-0.00	-0.750			
0.4394	28121.97	3.6230	3.6230	-1.6558	25.81	-0.01	-0.750			
0.4444	28444.26	3.6200	3.6200	-1.6816	25.81	-0.01	-0.750	0.376	0.505	
0.4495	28769.41	3.6170	3.6172	-1.6874	25.80	-0.02	-0.750			
0.4547	29101.68	3.6140	3.6140	-1.7273	25.80	-0.02	-0.750			
0.4598	29429.47	3.6110	3.6111	-1.7636	25.79	-0.03	-0.750			
0.4652	29771.41	3.6080	3.6078	-1.7883	25.78	-0.04	-0.750			
0.4705	30114.60	3.6050	3.6053	-1.8303	25.77	-0.05	-0.750			
0.4760	30464.21	3.6020	3.6019	-1.8710	25.76	-0.06	-0.750			
0.4817	30831.20	3.5990	3.5989	-1.8978	25.75	-0.07	-0.750			
0.4875	31201.80	3.5960	3.5960	-1.9443	25.75	-0.07	-0.750			
0.4934	31578.91	3.5930	3.5931	-1.9905	25.75	-0.07	-0.750			
0.4994	31960.36	3.5900	3.5901	-2.0274	25.74	-0.08	-0.750			
0.5056	32361.08	3.5870	3.5870	-2.0546	25.73	-0.09	-0.750			
0.5118	32755.70	3.5840	3.5840	-2.0814	25.72	-0.10	-0.750			
0.5181	33159.97	3.5810	3.5811	-2.1126	25.72	-0.10	-0.750			
0.5246	33575.85	3.5780	3.5779	-2.1440	25.71	-0.11	-0.750			
0.5309	33980.78	3.5750	3.5750	-2.1610	25.70	-0.12	-0.750			
0.5375	34397.34	3.5720	3.5721	-2.1768	25.70	-0.12	-0.750			
0.5441	34821.29	3.5690	3.5690	-2.2113	25.70	-0.12	-0.750			
0.5508	35249.51	3.5660	3.5659	-2.2344	25.70	-0.12	-0.750			
0.5575	35682.25	3.5630	3.5629	-2.2474	25.70	-0.12	-0.750			
0.5644	36120.09	3.5600	3.5600	-2.2505	25.69	-0.13	-0.750			
0.5712	36555.29	3.5570	3.5572	-2.2539	25.69	-0.13	-0.750			
0.5779	36983.60	3.5540	3.5539	-2.2512	25.69	-0.13	-0.750			
0.5847	37419.70	3.5510	3.5510	-2.2464	25.69	-0.13	-0.750			
0.5914	37849.13	3.5480	3.5480	-2.2377	25.70	-0.12	-0.750			
0.5981	38279.22	3.5450	3.5451	-2.2321	25.70	-0.12	-0.750			
0.6049	38712.34	3.5420	3.5420	-2.2196	25.70	-0.12	-0.750			
0.6116	39139.42	3.5390	3.5391	-2.1939	25.70	-0.12	-0.750			
0.6180	39554.13	3.5360	3.5360	-2.1620	25.71	-0.11	-0.750			
0.6245	39966.60	3.5330	3.5330	-2.1350	25.71	-0.11	-0.750			
0.6309	40376.00	3.5300	3.5300	-2.0887	25.72	-0.10	-0.750			
0.6371	40774.17	3.5270	3.5269	-2.0419	25.73	-0.09	-0.750			
0.6431	41158.11	3.5240	3.5241	-1.9801	25.74	-0.08	-0.750			
0.6490	41537.50	3.5210	3.5207	-1.9410	25.75	-0.07	-0.750			
0.6547	41901.83	3.5180	3.5178	-1.8988	25.76	-0.06	-0.750			
0.6603	42258.62	3.5150	3.5149	-1.8398	25.77	-0.05	-0.750			
0.6658	42613.94	3.5120	3.5121	-1.7923	25.78	-0.04	-0.750			
0.6711	42953.28	3.5090	3.5090	-1.7302	25.79	-0.03	-0.750			
0.6763	43283.14	3.5060	3.5058	-1.6712	25.80	-0.02	-0.750			
0.6812	43596.75	3.5030	3.5029	-1.6134	25.82	-0.00	-0.750			
0.6860	43901.16	3.5000	3.5000	-1.5568	25.83	0.01	-0.750			
0.6905	44193.79	3.4970	3.4970	-1.5041	25.84	0.02	-0.750			
0.6950	44478.75	3.4940	3.4940	-1.4619	25.85	0.03	-0.750			
0.6993	44755.22	3.4910	3.4910	-1.4184	25.87	0.05	-0.750			
0.7035	45024.51	3.4880	3.4880	-1.3758	25.89	0.07	-0.750			
0.7076	45284.14	3.4850	3.4850	-1.3372	25.91	0.09	-0.750			
0.7115	45535.57	3.4820	3.4820	-1.2936	25.92	0.10	-0.750			
0.7154	45785.14	3.4790	3.4789	-1.2545	25.94	0.12	-0.750			
0.7191	46020.74	3.4760	3.4761	-1.2046	25.95	0.13	-0.750			
0.7226	46247.55	3.4730	3.4729	-1.1669	25.97	0.15	-0.750			
0.7261	46468.15	3.4700	3.4699	-1.1256	25.98	0.16	-0.750			
0.7294	46679.70	3.4670	3.4669	-1.0886	26.00	0.18	-0.750			
0.7325	46881.50	3.4640	3.4643	-1.0489	26.01	0.19	-0.750			
0.7356	47081.44	3.4610	3.4609	-1.0198	26.02	0.20	-0.750			
0.7387	47274.18	3.4580	3.4580	-0.9898	26.04	0.22	-0.750			
0.7416	47459.27	3.4550	3.4550	-0.9547	26.05	0.23	-0.750			
0.7443	47638.11	3.4520	3.4520	-0.9278	26.06	0.24	-0.750			
0.7471	47816.09	3.4490	3.4489	-0.9079	26.08	0.26	-0.750			
0.7498	47986.26	3.4460	3.4460	-0.8947	26.09	0.27	-0.750			
0.7524	48154.30	3.4430	3.4431	-0.8834	26.10	0.28	-0.750			
0.7550	48321.09	3.4400	3.4399	-0.8802	26.11	0.29	-0.750			
0.7576	48489.22	3.4370	3.4370	-0.8876	26.12	0.30	-0.750			
0.7603	48656.93	3.4340	3.4340	-0.9039	26.13	0.31	-0.750			
0.7630	48831.32	3.4310	3.4309	-0.9201	26.13	0.31	-0.750			
0.7658	49009.91	3.4280	3.4280	-0.9399	26.14	0.32	-0.750			
0.7686	49192.62	3.4250	3.4249	-0.9582	26.15	0.33	-0.750			
0.7716	49380.65	3.4220	3.4221	-0.9786	26.15	0.33	-0.750			
0.7746	49571.47	3.4190	3.4190	-0.9939	26.17	0.35	-0.750			
0.7776	49766.12	3.4160	3.4160	-0.9964	26.18	0.36	-0.750			
0.7806	49958.30	3.4130	3.4130	-0.9931	26.19	0.37	-0.750			
0.7836	50151.76	3.4100	3.4101	-0.9874	26.20	0.38	-0.750			
0.7866	50342.26	3.4070	3.4071	-0.9757	26.21	0.39	-0.750			
0.7895	50528.51	3.4040	3.4039	-0.9542	26.22	0.40	-0.750			
0.7924	50711.25	3.4010	3.4010	-0.9216	26.23	0.41	-0.750			
0.7951	50885.91	3.3980	3.3982	-0.8945	26.24	0.42	-0.750			
0.7977	51054.68	3.3950	3.3950	-0.8647	26.25	0.43	-0.750			
0.8003	51217.92	3.3920	3.3918	-0.8366	26.25	0.43	-0.750			
0.8027	51375.50	3.3890	3.3889	-0.8054	26.26	0.44	-0.750			
0.8051	51526.49	3.3860	3.3861	-0.7719	26.26	0.44	-0.750			
0.8074	51674.08	3.3830	3.3832	-0.7455	26.27	0.45	-0.750			
0.8096	51814.79	3.3800	3.3799	-0.7166	26.28	0.46	-0.750			
0.8117	51946.71	3.3770	3.3769	-0.6844	26.28	0.46	-0.750			
0.8137	52074.24	3.3740	3.3740	-0.6614	26.29	0.47	-0.750			
0.8156	52197.77	3.3710	3.3710	-0.6351	26.29	0.47	-0.750			
0.8175	52319.84	3.3680	3.3679	-0.6171	26.30	0.48	-0.750			
0.8193	52436.44	3.3650	3.3650	-0.5931	26.31	0.49	-0.750			
0.8211	52547.66	3.3620	3.3620	-0.5694	26.31	0.49	-0.750			
0.8227	52654.83	3.3590	3.3590	-0.5475	26.32	0.50	-0.750			
0.8243	52757.05	3.3560	3.3559	-0.5239	26.33	0.51	-0.750			
0.8259	52854.59	3.3530	3.3530	-0.5037	26.34	0.52	-0.750			
0.8273	52949.68	3.3500	3.3501	-0.4881	26.34	0.52	-0.750			
0.8288	53040.88	3.3470	3.3469	-0.4729	26.35	0.53	-0.750			
0.8302	53130.95	3.3440	3.3439	-0.4581	26.36	0.54	-0.750			
0.8315	53217.28	3.3410	3.3410	-0.4421	26.36	0.54	-0.750			
0.8328	53301.07	3.3380	3.3382	-0.4257	26.37	0.55	-0.750			
0.8341	53381.60	3.3350	3.3350	-0.4116	26.38	0.56	-0.750			
0.8353	53458.44	3.3320	3.3320	-0.3961	26.38	0.56	-0.750			
0.8364	53532.61	3.3290	3.3289	-0.3815	26.39	0.57	-0.750			
0.8376	53604.16	3.3260	3.3259	-0.3699	26.39	0.57	-0.750			
0.8387	53673.95	3.3230	3.3231	-0.3575	26.40	0.58	-0.750			
0.8397	53741.26	3.3200	3.3201	-0.3469	26.40	0.58	-0.750			
0.8407	53806.66	3.3170	3.3169	-0.3388	26.41	0.59	-0.750			
0.8417	53870.31	3.3140	3.3140	-0.3297	26.41	0.59	-0.750			
0.8427	53932.44	3.3110	3.3109	-0.3200	26.42	0.60	-0.750			
0.8436	53993.60	3.3080	3.3081	-0.3114	26.42	0.60	-0.750			
0.8446	54053.13	3.3050	3.3050	-0.3024	26.43	0.61	-0.750			
0.8455	54110.10	3.3020	3.3021	-0.2942	26.43	0.61	-0.750			
0.8463	54164.96	3.2990	3.2990	-0.2845	26.44	0.62	-0.750			
0.8472	54218.44	3.2960	3.2960	-0.2764	26.44	0.62	-0.750			
0.8480	54270.58	3.2930	3.2929	-0.2687	26.45	0.63	-0.750			
0.8488	54321.62	3.2900	3.2902	-0.2634	26.45	0.63	-0.750			
0.8496	54371.50	3.2870	3.2870	-0.2569	26.46	0.64	-0.750			
0.8503	54420.47	3.2840	3.2840	-0.2519	26.47	0.65	-0.750			
0.8511	54468.04	3.2810	3.2810	-0.2462	26.47	0.65	-0.750			
0.8518	54514.29	3.2780	3.2781	-0.2400	26.48	0.66	-0.750			
0.8525	54559.90	3.2750	3.2750	-0.2361	26.48	0.66	-0.750			
0.8532	54605.04	3.2720	3.2719	-0.2317	26.49	0.67	-0.750			
0.8539	54648.81	3.2690	3.2690	-0.2267	26.49	0.67	-0.750			
0.8546	54691.94	3.2660	3.2660	-0.2227	26.50	0.68	-0.750			
0.8552	54734.40	3.2630	3.2631	-0.2192	26.50	0.68	-0.750			
0.8559	54775.96	3.2600	3.2599	-0.2153	26.51	0.69	-0.750			
0.8565	54816.93	3.2570	3.2570	-0.2114	26.51	0.69	-0.750			
0.8571	54857.17	3.2540	3.2539	-0.2078	26.51	0.69	-0.750			
0.8578	54896.65	3.2510	3.2510	-0.2039	26.52	0.70	-0.750			
0.8584	54935.71	3.2480	3.2480	-0.2007	26.52	0.70	-0.750			
0.8590	54973.41	3.2450	3.2450	-0.1972	26.53	0.71	-0.750			
0.8595	55010.98	3.2420	3.2421	-0.1942	26.53	0.71	-0.750			
0.8601	55047.64	3.2390	3.2390	-0.1917	26.54	0.72	-0.750			
0.8607	55084.23	3.2360	3.2359	-0.1890	26.54	0.72	-0.750			
0.8613	55120.34	3.2330	3.2330	-0.1870	26.55	0.73	-0.750			
0.8618	55156.05	3.2300	3.2300	-0.1849	26.55	0.73	-0.750			
0.8624	55191.71	3.2270	3.2270	-0.1817	26.56	0.74	-0.750			
0.8629	55226.07	3.2240	3.2240	-0.1801	26.56	0.74	-0.750			
0.8634	55260.36	3.2210	3.2211	-0.1768	26.57	0.75	-0.750			
0.8640	55294.10	3.2180	3.2179	-0.1746	26.57	0.75	-0.750			
0.8645	55327.20	3.2150	3.2149	-0.1730	26.58	0.76	-0.750			
0.8650	55360.28	3.2120	3.2121	-0.1714	26.58	0.76	-0.750			
0.8655	55392.89	3.2090	3.2090	-0.1696	26.59	0.77	-0.750			
0.8660	55425.41	3.2060	3.2059	-0.1678	26.59	0.77	-0.750			
0.8665	55457.82	3.2030	3.2030	-0.1663	26.60	0.78	-0.750			
0.8670	55489.33	3.2000	3.2001	-0.1633	26.60	0.78	-0.750			
0.8675	55520.50	3.1970	3.1970	-0.1614	26.61	0.79	-0.750			
0.8680	55551.56	3.1940	3.1940	-0.1605	26.61	0.79	-0.750			
0.8685	55581.68	3.1910	3.1910	-0.1587	26.61	0.79	-0.750			
0.8689	55611.86	3.1880	3.1880	-0.1576	26.62	0.80	-0.750			
0.8694	55642.28	3.1850	3.1848	-0.1554	26.62	0.80	-0.750			
0.8699	55672.19	3.1820	3.1820	-0.1533	26.63	0.81	-0.750			
0.8703	55701.36	3.1790	3.1792	-0.1521	26.64	0.82	-0.750			
0.8708	55730.57	3.1760	3.1759	-0.1505	26.64	0.82	-0.750			
0.8712	55759.14	3.1730	3.1730	-0.1490	26.65	0.83	-0.750			
0.8717	55787.14	3.1700	3.1699	-0.1473	26.65	0.83	-0.750			
0.8721	55815.04	3.1670	3.1672	-0.1462	26.66	0.84	-0.750			
0.8725	55843.11	3.1640	3.1640	-0.1462	26.66	0.84	-0.750			
0.8730	55871.65	3.1610	3.1610	-0.1447	26.67	0.85	-0.750			
0.8734	55899.37	3.1580	3.1579	-0.1438	26.67	0.85	-0.750			
0.8739	55926.87	3.1550	3.1552	-0.1417	26.68	0.86	-0.750			
0.8743	55953.89	3.1520	3.1520	-0.1399	26.68	0.86	-0.750			
0.8747	55980.66	3.1490	3.1488	-0.1385	26.69	0.87	-0.750			
0.8751	56006.80	3.1460	3.1461	-0.1374	26.69	0.87	-0.750			
0.8755	56032.92	3.1430	3.1429	-0.1358	26.70	0.88	-0.750			
0.8759	56058.94	3.1400	3.1400	-0.1352	26.70	0.88	-0.750			
0.8763	56085.03	3.1370	3.1369	-0.1345	26.71	0.89	-0.750			
0.8767	56110.63	3.1340	3.1341	-0.1331	26.71	0.89	-0.750			
0.8771	56136.22	3.1310	3.1310	-0.1330	26.72	0.90	-0.750			
0.8775	56161.65	3.1280	3.1280	-0.1319	26.72	0.90	-0.750			
0.8779	56186.89	3.1250	3.1250	-0.1304	26.73	0.91	-0.750			
0.8783	56211.70	3.1220	3.1220	-0.1291	26.73	0.91	-0.750			
0.8787	56236.58	3.1190	3.1190	-0.1283	26.73	0.91	-0.750			
0.8791	56261.07	3.1160	3.1161	-0.1269	26.74	0.92	-0.750			
0.8795	56285.18	3.1130	3.1130	-0.1262	26.74	0.92	-0.750			
0.8798	56309.11	3.1100	3.1100	-0.1256	26.75	0.93	-0.750			
0.8802	56333.17	3.1070	3.1070	-0.1251	26.75	0.93	-0.750			
0.8806	56357.03	3.1040	3.1039	-0.1240	26.76	0.94	-0.750			
0.8810	56380.98	3.1010	3.1010	-0.1240	26.76	0.94	-0.750			
0.8813	56404.79	3.0980	3.0981	-0.1230	26.76	0.94	-0.750			
0.8817	56428.59	3.0950	3.0950	-0.1223	26.77	0.95	-0.750			
0.8821	56451.94	3.0920	3.0920	-0.1209	26.77	0.95	-0.750			
0.8824	56475.05	3.0890	3.0891	-0.1195	26.77	0.95	-0.750			
0.8828	56497.72	3.0860	3.0859	-0.1189	26.78	0.96	-0.750			
0.8831	56520.26	3.0830	3.0831	-0.1178	26.78	0.96	-0.750			
0.8835	56542.85	3.0800	3.0799	-0.1169	26.79	0.97	-0.750			
0.8838	56565.19	3.0770	3.0770	-0.1161	26.80	0.98	-0.750			
0.8842	56587.45	3.0740	3.0740	-0.1153	26.80	0.98	-0.750			
0.8845	56609.52	3.0710	3.0711	-0.1145	26.81	0.99	-0.750			
0.8849	56631.34	3.0680	3.0680	-0.1145	26.81	0.99	-0.750			
0.8852	56653.28	3.0650	3.0649	-0.1140	26.82	1.00	-0.750			
0.8855	56674.95	3.0620	3.0619	-0.1133	26.83	1.01	-0.750			
0.8859	56696.69	3.0590	3.0591	-0.1132	26.83	1.01	-0.750			
0.8862	56718.66	3.0560	3.0560	-0.1127	26.84	1.02	-0.750			
0.8866	56740.22	3.0530	3.0530	-0.1119	26.84	1.02	-0.750			
0.8869	56761.89	3.0500	3.0500	-0.1112	26.85	1.03	-0.750			
0.8872	56783.11	3.0470	3.0470	-0.1099	26.85	1.03	-0.750			
0.8876	56803.93	3.0440	3.0440	-0.1088	26.86	1.04	-0.750			
0.8879	56824.74	3.0410	3.0410	-0.1079	26.87	1.05	-0.750			
0.8882	56845.17	3.0380	3.0380	-0.1075	26.87	1.05	-0.750			
0.8885	56865.78	3.0350	3.0350	-0.1072	26.88	1.06	-0.750			
0.8888	56886.32	3.0320	3.0320	-0.1065	26.88	1.06	-0.750			
0.8892	56906.74	3.0290	3.0290	-0.1061	26.89	1.07	-0.750			
0.8895	56927.13	3.0260	3.0261	-0.1059	26.89	1.07	-0.750			
0.8898	56947.43	3.0230	3.0230	-0.1055	26.90	1.08	-0.750			
0.8901	56967.89	3.0200	3.0200	-0.1043	26.90	1.08	-0.750			
0.8904	56987.81	3.0170	3.0168	-0.1031	26.91	1.09	-0.750			
0.8907	57007.52	3.0140	3.0141	-0.1021	26.91	1.09	-0.750			
0.8910	57027.01	3.0110	3.0111	-0.1009	26.92	1.10	-0.750			
0.8914	57046.43	3.0080	3.0080	-0.0995	26.92	1.10	-0.750			
0.8916	57065.37	3.0050	3.0049	-0.0978	26.93	1.11	-0.751			
0.8919	57084.10	3.0020	3.0020	-0.0997	26.93	1.11	-0.751			
