Ah_balance (normalized)	Ah_balance (mAh)	Voltage - fit (V)	Voltage -  interpolate (V)	dQ/dV (1/V)	Temperature (°C)	Temperature - diff (°C)	Current (C)	R_DC 0ms (mOhm)	R_DC 50ms (mOhm)	R_DC 50 ms PEC (mOhm)
0.0005	34.12	4.1610	4.1618	-0.2053	26.00	0.03	-0.750			
0.0012	76.78	4.1580	4.1582	-0.2338	25.99	0.02	-0.750			
0.0019	122.98	4.1550	4.1549	-0.2611	25.99	0.02	-0.750			
0.0027	175.61	4.1520	4.1519	-0.2919	25.99	0.02	-0.750			
0.0036	233.48	4.1490	4.1491	-0.3296	25.99	0.02	-0.750			
0.0047	298.70	4.1460	4.1460	-0.3639	25.98	0.01	-0.750			
0.0058	372.97	4.1430	4.1429	-0.3975	25.98	0.01	-0.750			
0.0071	452.61	4.1400	4.1400	-0.4327	25.97	0.00	-0.750			
0.0085	540.88	4.1370	4.1372	-0.4650	25.97	0.00	-0.750			
0.0099	633.11	4.1340	4.1340	-0.4920	25.97	-0.00	-0.750			
0.0114	730.87	4.1310	4.1310	-0.5183	25.96	-0.01	-0.750			
0.0130	833.39	4.1280	4.1280	-0.5383	25.96	-0.01	-0.750			
0.0147	938.50	4.1250	4.1249	-0.5648	25.95	-0.02	-0.750			
0.0164	1050.91	4.1220	4.1221	-0.5825	25.94	-0.03	-0.750			
0.0182	1164.17	4.1190	4.1191	-0.5973	25.94	-0.03	-0.750			
0.0200	1282.36	4.1160	4.1158	-0.6110	25.93	-0.04	-0.750			
0.0219	1400.69	4.1130	4.1131	-0.6203	25.93	-0.04	-0.750			
0.0237	1519.94	4.1100	4.1100	-0.6270	25.93	-0.04	-0.750			
0.0256	1640.61	4.1070	4.1070	-0.6370	25.92	-0.05	-0.750			
0.0275	1762.36	4.1040	4.1041	-0.6450	25.92	-0.05	-0.750			
0.0295	1889.56	4.1010	4.1007	-0.6545	25.92	-0.05	-0.750			
0.0315	2016.05	4.0980	4.0981	-0.6636	25.91	-0.06	-0.750			
0.0335	2145.05	4.0950	4.0951	-0.6709	25.91	-0.06	-0.750			
0.0356	2275.42	4.0920	4.0920	-0.6769	25.91	-0.06	-0.750			
0.0376	2406.46	4.0890	4.0889	-0.6818	25.90	-0.07	-0.750			
0.0396	2535.83	4.0860	4.0860	-0.6842	25.90	-0.07	-0.750			
0.0417	2668.52	4.0830	4.0830	-0.6923	25.90	-0.07	-0.750			
0.0438	2802.10	4.0800	4.0800	-0.6968	25.89	-0.08	-0.750			
0.0459	2935.74	4.0770	4.0769	-0.6990	25.89	-0.08	-0.750			
0.0480	3071.31	4.0740	4.0740	-0.7028	25.89	-0.08	-0.750			
0.0501	3205.37	4.0710	4.0710	-0.7101	25.89	-0.08	-0.750			
0.0522	3342.06	4.0680	4.0680	-0.7127	25.89	-0.08	-0.750			
0.0544	3481.43	4.0650	4.0650	-0.7128	25.89	-0.08	-0.750			
0.0565	3617.21	4.0620	4.0619	-0.7116	25.89	-0.08	-0.750			
0.0587	3753.68	4.0590	4.0593	-0.7144	25.89	-0.08	-0.750			
0.0608	3891.72	4.0560	4.0558	-0.7116	25.89	-0.08	-0.750			
0.0629	4027.44	4.0530	4.0529	-0.7113	25.89	-0.08	-0.750			
0.0650	4161.26	4.0500	4.0501	-0.7169	25.88	-0.09	-0.750			
0.0672	4298.86	4.0470	4.0471	-0.7297	25.88	-0.09	-0.750			
0.0694	4440.91	4.0440	4.0437	-0.7386	25.88	-0.09	-0.750			
0.0716	4583.34	4.0410	4.0411	-0.7369	25.88	-0.09	-0.750			
0.0739	4726.73	4.0380	4.0380	-0.7395	25.88	-0.09	-0.750			
0.0761	4871.64	4.0350	4.0351	-0.7485	25.88	-0.09	-0.750			
0.0783	5014.30	4.0320	4.0318	-0.7436	25.89	-0.08	-0.750			
0.0805	5154.08	4.0290	4.0290	-0.7387	25.89	-0.08	-0.750			
0.0828	5296.66	4.0260	4.0258	-0.7406	25.89	-0.08	-0.750			
0.0850	5439.38	4.0230	4.0230	-0.7436	25.89	-0.08	-0.750			
0.0872	5582.36	4.0200	4.0200	-0.7468	25.89	-0.08	-0.750			
0.0895	5725.29	4.0170	4.0170	-0.7537	25.89	-0.08	-0.750			
0.0917	5869.80	4.0140	4.0138	-0.7512	25.89	-0.08	-0.750			
0.0940	6017.75	4.0110	4.0109	-0.7551	25.89	-0.08	-0.750			
0.0963	6163.07	4.0080	4.0083	-0.7536	25.89	-0.08	-0.750			
0.0986	6308.37	4.0050	4.0050	-0.7567	25.89	-0.08	-0.750			
0.1008	6452.08	4.0020	4.0019	-0.7589	25.89	-0.08	-0.750			
0.1031	6595.20	3.9990	3.9990	-0.7508	25.89	-0.08	-0.750			
0.1053	6742.17	3.9960	3.9960	-0.7576	25.89	-0.08	-0.750			
0.1076	6886.01	3.9930	3.9931	-0.7624	25.89	-0.08	-0.750			
0.1099	7033.01	3.9900	3.9898	-0.7701	25.89	-0.08	-0.750			
0.1122	7180.59	3.9870	3.9869	-0.7721	25.89	-0.08	-0.750			
0.1145	7328.40	3.9840	3.9839	-0.7722	25.89	-0.08	-0.750			
0.1169	7479.07	3.9810	3.9811	-0.7736	25.89	-0.08	-0.750			
0.1192	7630.40	3.9780	3.9779	-0.7712	25.89	-0.08	-0.750			
0.1215	7776.30	3.9750	3.9751	-0.7742	25.89	-0.08	-0.750			
0.1238	7923.62	3.9720	3.9719	-0.7736	25.89	-0.08	-0.750			
0.1261	8070.62	3.9690	3.9689	-0.7773	25.90	-0.07	-0.750			
0.1285	8221.54	3.9660	3.9661	-0.7829	25.90	-0.07	-0.750			
0.1308	8373.10	3.9630	3.9630	-0.7894	25.91	-0.06	-0.750			
0.1332	8526.00	3.9600	3.9600	-0.7893	25.91	-0.06	-0.750			
0.1356	8678.20	3.9570	3.9569	-0.7903	25.91	-0.06	-0.750			
0.1379	8827.38	3.9540	3.9540	-0.7912	25.92	-0.05	-0.750			
0.1403	8981.65	3.9510	3.9510	-0.7890	25.92	-0.05	-0.750			
0.1427	9132.52	3.9480	3.9480	-0.7873	25.92	-0.05	-0.750			
0.1451	9284.69	3.9450	3.9450	-0.7892	25.93	-0.04	-0.750			
0.1474	9435.34	3.9420	3.9421	-0.7888	25.93	-0.04	-0.750			
0.1498	9585.71	3.9390	3.9389	-0.7953	25.93	-0.04	-0.750			
0.1522	9738.67	3.9360	3.9361	-0.7932	25.93	-0.04	-0.750			
0.1545	9889.98	3.9330	3.9330	-0.7955	25.93	-0.04	-0.750			
0.1569	10044.30	3.9300	3.9299	-0.8050	25.93	-0.04	-0.750			
0.1594	10200.08	3.9270	3.9270	-0.8060	25.93	-0.04	-0.750			
0.1618	10354.34	3.9240	3.9240	-0.8119	25.94	-0.03	-0.750			
0.1642	10511.66	3.9210	3.9210	-0.8140	25.94	-0.03	-0.750			
0.1667	10667.94	3.9180	3.9180	-0.8108	25.94	-0.03	-0.750			
0.1692	10826.48	3.9150	3.9149	-0.8170	25.95	-0.02	-0.750			
0.1716	10981.70	3.9120	3.9121	-0.8148	25.95	-0.02	-0.750			
0.1740	11138.23	3.9090	3.9090	-0.8125	25.95	-0.02	-0.750			
0.1765	11294.82	3.9060	3.9060	-0.8204	25.96	-0.01	-0.750			
0.1789	11452.73	3.9030	3.9030	-0.8163	25.96	-0.01	-0.750			
0.1814	11610.50	3.9000	3.8999	-0.8192	25.97	-0.00	-0.750			
0.1838	11766.13	3.8970	3.8972	-0.8290	25.97	0.00	-0.750			
0.1863	11924.42	3.8940	3.8940	-0.8364	25.97	0.00	-0.750			
0.1889	12087.87	3.8910	3.8908	-0.8468	25.97	0.00	-0.750			
0.1915	12252.97	3.8880	3.8880	-0.8513	25.97	0.00	-0.750			
0.1940	12418.95	3.8850	3.8850	-0.8562	25.97	0.00	-0.750			
0.1966	12584.54	3.8820	3.8822	-0.8526	25.97	0.00	-0.750			
0.1992	12748.09	3.8790	3.8789	-0.8463	25.98	0.01	-0.750			
0.2017	12908.50	3.8760	3.8759	-0.8423	25.98	0.01	-0.750			
0.2042	13067.90	3.8730	3.8729	-0.8361	25.98	0.01	-0.750			
0.2067	13231.45	3.8700	3.8700	-0.8375	25.99	0.02	-0.750			
0.2093	13392.52	3.8670	3.8671	-0.8364	25.99	0.02	-0.750			
0.2117	13550.87	3.8640	3.8640	-0.8371	26.00	0.03	-0.750			
0.2142	13711.30	3.8610	3.8609	-0.8368	26.00	0.03	-0.750			
0.2167	13868.92	3.8580	3.8580	-0.8344	26.00	0.03	-0.750			
0.2193	14032.32	3.8550	3.8550	-0.8428	26.01	0.04	-0.750			
0.2218	14194.77	3.8520	3.8520	-0.8452	26.01	0.04	-0.750			
0.2244	14358.51	3.8490	3.8490	-0.8461	26.01	0.04	-0.750			
0.2269	14520.26	3.8460	3.8460	-0.8446	26.01	0.04	-0.750			
0.2294	14682.56	3.8430	3.8429	-0.8447	26.02	0.05	-0.750			
0.2320	14845.55	3.8400	3.8400	-0.8460	26.02	0.05	-0.750			
0.2345	15007.20	3.8370	3.8370	-0.8392	26.02	0.05	-0.750			
0.2370	15167.60	3.8340	3.8340	-0.8460	26.03	0.06	-0.750			
0.2395	15329.87	3.8310	3.8310	-0.8458	26.03	0.06	-0.750			
0.2421	15492.38	3.8280	3.8279	-0.8418	26.04	0.07	-0.750			
0.2446	15654.68	3.8250	3.8249	-0.8474	26.05	0.08	-0.750			
0.2472	15817.79	3.8220	3.8221	-0.8477	26.05	0.08	-0.750			
0.2497	15980.31	3.8190	3.8190	-0.8493	26.06	0.09	-0.750			
0.2523	16145.14	3.8160	3.8160	-0.8451	26.06	0.09	-0.750			
0.2548	16304.40	3.8130	3.8131	-0.8410	26.06	0.09	-0.750			
0.2573	16467.75	3.8100	3.8100	-0.8430	26.07	0.10	-0.750			
0.2598	16630.31	3.8070	3.8069	-0.8410	26.07	0.10	-0.750			
0.2623	16788.99	3.8040	3.8040	-0.8389	26.08	0.11	-0.750			
0.2648	16949.98	3.8010	3.8010	-0.8405	26.08	0.11	-0.750			
0.2674	17111.56	3.7980	3.7980	-0.8412	26.08	0.11	-0.750			
0.2699	17275.04	3.7950	3.7948	-0.8405	26.09	0.12	-0.750			
0.2724	17435.80	3.7920	3.7921	-0.8344	26.09	0.12	-0.750			
0.2749	17596.48	3.7890	3.7890	-0.8380	26.10	0.13	-0.750			
0.2775	17758.30	3.7860	3.7860	-0.8336	26.10	0.13	-0.750			
0.2799	17916.45	3.7830	3.7829	-0.8242	26.10	0.13	-0.750			
0.2824	18075.85	3.7800	3.7799	-0.8221	26.11	0.14	-0.750			
0.2849	18234.34	3.7770	3.7769	-0.8172	26.11	0.14	-0.750			
0.2873	18389.81	3.7740	3.7740	-0.8149	26.12	0.15	-0.750			
0.2898	18544.11	3.7710	3.7710	-0.8121	26.12	0.15	-0.750			
0.2921	18697.33	3.7680	3.7680	-0.8071	26.12	0.15	-0.750			
0.2946	18857.06	3.7650	3.7649	-0.8107	26.13	0.16	-0.750			
0.2971	19011.87	3.7620	3.7621	-0.8089	26.13	0.16	-0.750			
0.2995	19166.52	3.7590	3.7591	-0.8124	26.13	0.16	-0.750			
0.3019	19322.98	3.7560	3.7560	-0.8112	26.13	0.16	-0.750			
0.3043	19477.76	3.7530	3.7529	-0.8057	26.13	0.16	-0.750			
0.3068	19632.92	3.7500	3.7499	-0.8100	26.13	0.16	-0.750			
0.3092	19789.13	3.7470	3.7472	-0.8124	26.13	0.16	-0.750			
0.3116	19945.20	3.7440	3.7439	-0.8147	26.14	0.17	-0.750			
0.3141	20100.58	3.7410	3.7410	-0.8219	26.14	0.17	-0.750			
0.3165	20257.94	3.7380	3.7380	-0.8255	26.14	0.17	-0.750			
0.3191	20419.21	3.7350	3.7349	-0.8383	26.15	0.18	-0.750			
0.3216	20582.59	3.7320	3.7321	-0.8429	26.15	0.18	-0.750			
0.3241	20743.04	3.7290	3.7290	-0.8507	26.15	0.18	-0.750			
0.3267	20906.57	3.7260	3.7260	-0.8590	26.15	0.18	-0.750			
0.3292	21071.43	3.7230	3.7229	-0.8660	26.16	0.19	-0.750			
0.3318	21238.02	3.7200	3.7200	-0.8837	26.16	0.19	-0.750			
0.3345	21408.37	3.7170	3.7171	-0.8979	26.16	0.19	-0.750			
0.3372	21582.30	3.7140	3.7140	-0.9174	26.16	0.19	-0.750			
0.3400	21761.48	3.7110	3.7109	-0.9329	26.17	0.20	-0.750			
0.3428	21940.39	3.7080	3.7081	-0.9464	26.17	0.20	-0.750			
0.3457	22125.50	3.7050	3.7051	-0.9645	26.17	0.20	-0.750			
0.3486	22312.17	3.7020	3.7020	-0.9870	26.17	0.20	-0.750			
0.3516	22502.30	3.6990	3.6989	-1.0029	26.17	0.20	-0.750			
0.3546	22697.10	3.6960	3.6960	-1.0180	26.17	0.20	-0.750			
0.3577	22893.86	3.6930	3.6930	-1.0346	26.17	0.20	-0.750			
0.3609	23095.30	3.6900	3.6900	-1.0602	26.17	0.20	-0.750			
0.3641	23299.87	3.6870	3.6870	-1.0787	26.16	0.19	-0.750			
0.3673	23507.20	3.6840	3.6839	-1.0989	26.16	0.19	-0.750			
0.3706	23718.31	3.6810	3.6811	-1.1203	26.15	0.18	-0.750			
0.3741	23940.14	3.6780	3.6780	-1.1469	26.15	0.18	-0.750			
0.3776	24163.44	3.6750	3.6749	-1.1681	26.15	0.18	-0.750			
0.3811	24387.55	3.6720	3.6721	-1.1936	26.15	0.18	-0.750			
0.3847	24618.50	3.6690	3.6691	-1.2166	26.15	0.18	-0.750			
0.3883	24854.25	3.6660	3.6658	-1.2448	26.14	0.17	-0.750			
0.3921	25096.38	3.6630	3.6630	-1.2690	26.14	0.17	-0.750			
0.3960	25342.04	3.6600	3.6603	-1.2901	26.13	0.16	-0.750			
0.3998	25590.23	3.6570	3.6570	-1.3340	26.12	0.15	-0.750			
0.4039	25850.80	3.6540	3.6541	-1.3620	26.12	0.15	-0.750			
0.4080	26114.19	3.6510	3.6509	-1.3965	26.11	0.14	-0.750			
0.4123	26389.83	3.6480	3.6480	-1.4267	26.10	0.13	-0.750			
0.4166	26665.18	3.6450	3.6451	-1.4610	26.10	0.13	-0.750			
0.4211	26952.23	3.6420	3.6421	-1.4975	26.09	0.12	-0.750			
0.4257	27242.10	3.6390	3.6389	-1.5196	26.09	0.12	-0.750			
0.4302	27531.81	3.6360	3.6359	-1.5415	26.09	0.12	-0.750			
0.4349	27832.73	3.6330	3.6329	-1.5873	26.09	0.12	-0.750			
0.4397	28139.02	3.6300	3.6300	-1.6350	26.07	0.10	-0.750			
0.4447	28459.73	3.6270	3.6268	-1.6690	26.05	0.08	-0.750			
0.4497	28780.06	3.6240	3.6239	-1.7072	26.05	0.08	-0.750			
0.4550	29120.95	3.6210	3.6209	-1.7414	26.05	0.08	-0.750	0.382	0.494	
0.4603	29457.48	3.6180	3.6179	-1.7643	26.05	0.08	-0.750			
0.4655	29794.96	3.6150	3.6151	-1.7816	26.04	0.07	-0.750			
0.4709	30137.74	3.6120	3.6122	-1.8130	26.03	0.06	-0.750			
0.4764	30488.39	3.6090	3.6091	-1.8462	26.03	0.06	-0.750			
0.4820	30850.93	3.6060	3.6060	-1.8897	26.02	0.05	-0.750			
0.4877	31212.76	3.6030	3.6030	-1.9275	26.02	0.05	-0.750			
0.4936	31591.24	3.6000	3.6000	-1.9677	26.01	0.04	-0.750			
0.4995	31969.13	3.5970	3.5970	-2.0027	26.01	0.04	-0.750			
0.5056	32358.93	3.5940	3.5941	-2.0344	26.01	0.04	-0.750			
0.5118	32753.96	3.5910	3.5910	-2.0414	26.00	0.03	-0.750			
0.5179	33147.61	3.5880	3.5880	-2.0724	25.99	0.02	-0.750			
0.5241	33544.14	3.5850	3.5849	-2.1064	25.99	0.02	-0.750			
0.5304	33945.24	3.5820	3.5816	-2.1642	25.99	0.02	-0.750			
0.5370	34367.70	3.5790	3.5786	-2.2103	25.99	0.02	-0.750			
0.5437	34796.94	3.5760	3.5760	-2.2616	25.99	0.02	-0.750			
0.5507	35245.10	3.5730	3.5730	-2.3051	25.99	0.02	-0.750			
0.5578	35698.50	3.5700	3.5700	-2.3268	25.99	0.02	-0.750			
0.5648	36145.90	3.5670	3.5672	-2.3095	25.98	0.01	-0.750			
0.5718	36595.95	3.5640	3.5640	-2.3137	25.97	0.00	-0.750			
0.5787	37038.32	3.5610	3.5609	-2.3065	25.98	0.01	-0.750			
0.5856	37481.16	3.5580	3.5581	-2.3049	25.98	0.01	-0.750			
0.5925	37920.54	3.5550	3.5551	-2.3035	25.99	0.02	-0.750			
0.5994	38362.61	3.5520	3.5520	-2.2926	25.99	0.02	-0.750			
0.6063	38801.58	3.5490	3.5490	-2.2897	25.99	0.02	-0.750			
0.6133	39248.26	3.5460	3.5460	-2.2765	25.99	0.02	-0.750			
0.6201	39686.94	3.5430	3.5430	-2.2599	25.99	0.02	-0.750			
0.6268	40117.60	3.5400	3.5401	-2.2317	26.00	0.03	-0.750			
0.6335	40540.81	3.5370	3.5368	-2.1903	26.01	0.04	-0.750			
0.6400	40957.02	3.5340	3.5342	-2.1538	26.02	0.05	-0.750			
0.6464	41368.15	3.5310	3.5311	-2.1221	26.03	0.06	-0.750			
0.6527	41774.91	3.5280	3.5276	-2.0781	26.03	0.06	-0.750			
0.6589	42171.59	3.5250	3.5252	-2.0215	26.03	0.06	-0.750			
0.6650	42558.71	3.5220	3.5221	-1.9708	26.05	0.08	-0.750			
0.6708	42932.23	3.5190	3.5189	-1.9177	26.07	0.10	-0.750			
0.6764	43287.18	3.5160	3.5161	-1.8303	26.08	0.11	-0.750			
0.6818	43636.62	3.5130	3.5128	-1.7840	26.09	0.12	-0.750			
0.6871	43973.72	3.5100	3.5100	-1.7276	26.10	0.13	-0.750			
0.6922	44298.78	3.5070	3.5066	-1.6765	26.12	0.15	-0.750			
0.6971	44616.73	3.5040	3.5041	-1.6223	26.13	0.16	-0.750			
0.7020	44924.84	3.5010	3.5011	-1.5700	26.15	0.18	-0.750			
0.7066	45220.26	3.4980	3.4979	-1.5186	26.16	0.19	-0.750			
0.7110	45504.41	3.4950	3.4950	-1.4600	26.18	0.21	-0.750			
0.7154	45785.31	3.4920	3.4919	-1.4170	26.19	0.22	-0.750			
0.7196	46053.32	3.4890	3.4889	-1.3627	26.21	0.24	-0.750			
0.7235	46303.75	3.4860	3.4861	-1.3140	26.22	0.25	-0.750			
0.7274	46554.29	3.4830	3.4830	-1.2798	26.24	0.27	-0.750			
0.7312	46794.54	3.4800	3.4799	-1.2373	26.25	0.28	-0.750			
0.7348	47026.72	3.4770	3.4771	-1.2011	26.27	0.30	-0.750			
0.7384	47258.03	3.4740	3.4741	-1.1668	26.28	0.31	-0.750			
0.7419	47479.59	3.4710	3.4710	-1.1322	26.29	0.32	-0.750			
0.7452	47694.11	3.4680	3.4679	-1.0919	26.31	0.34	-0.750			
0.7484	47896.49	3.4650	3.4650	-1.0497	26.32	0.35	-0.750			
0.7515	48094.74	3.4620	3.4619	-1.0152	26.34	0.37	-0.750			
0.7545	48285.18	3.4590	3.4590	-0.9820	26.35	0.38	-0.750			
0.7573	48469.44	3.4560	3.4559	-0.9491	26.36	0.39	-0.750			
0.7602	48651.12	3.4530	3.4529	-0.9300	26.38	0.41	-0.750			
0.7629	48825.12	3.4500	3.4500	-0.9148	26.39	0.42	-0.750			
0.7656	48996.44	3.4470	3.4470	-0.9040	26.40	0.43	-0.750			
0.7682	49166.82	3.4440	3.4439	-0.8991	26.41	0.44	-0.750			
0.7709	49339.11	3.4410	3.4414	-0.9096	26.42	0.45	-0.750			
0.7736	49512.95	3.4380	3.4380	-0.9240	26.43	0.46	-0.750			
0.7764	49688.53	3.4350	3.4349	-0.9452	26.43	0.46	-0.750			
0.7792	49870.88	3.4320	3.4319	-0.9695	26.44	0.47	-0.750			
0.7822	50061.95	3.4290	3.4290	-1.0076	26.45	0.48	-0.750			
0.7853	50258.72	3.4260	3.4260	-1.0335	26.45	0.48	-0.750			
0.7885	50463.94	3.4230	3.4230	-1.0560	26.46	0.49	-0.750			
0.7917	50671.33	3.4200	3.4200	-1.0613	26.47	0.50	-0.750			
0.7950	50877.13	3.4170	3.4171	-1.0635	26.48	0.51	-0.750			
0.7982	51083.63	3.4140	3.4139	-1.0548	26.49	0.52	-0.750			
0.8014	51290.20	3.4110	3.4109	-1.0291	26.50	0.53	-0.750			
0.8044	51482.74	3.4080	3.4080	-1.0061	26.51	0.54	-0.750			
0.8074	51672.94	3.4050	3.4051	-0.9779	26.52	0.55	-0.750			
0.8103	51861.17	3.4020	3.4019	-0.9530	26.52	0.55	-0.750			
0.8131	52041.08	3.3990	3.3989	-0.9185	26.53	0.56	-0.750			
0.8158	52213.01	3.3960	3.3961	-0.8819	26.53	0.56	-0.750			
0.8184	52379.70	3.3930	3.3930	-0.8527	26.54	0.57	-0.750			
0.8210	52544.34	3.3900	3.3900	-0.8278	26.54	0.57	-0.750			
0.8234	52695.27	3.3870	3.3870	-0.7841	26.55	0.58	-0.750			
0.8257	52843.56	3.3840	3.3839	-0.7556	26.56	0.59	-0.750			
0.8279	52986.33	3.3810	3.3810	-0.7282	26.56	0.59	-0.750			
0.8301	53123.99	3.3780	3.3779	-0.6994	26.57	0.60	-0.750			
0.8321	53254.47	3.3750	3.3749	-0.6710	26.58	0.61	-0.750			
0.8341	53380.57	3.3720	3.3721	-0.6413	26.58	0.61	-0.750			
0.8359	53500.41	3.3690	3.3690	-0.6178	26.59	0.62	-0.750			
0.8377	53615.43	3.3660	3.3660	-0.5922	26.59	0.62	-0.750			
0.8395	53725.80	3.3630	3.3631	-0.5678	26.60	0.63	-0.750			
0.8412	53835.21	3.3600	3.3600	-0.5524	26.60	0.63	-0.750			
0.8428	53938.63	3.3570	3.3570	-0.5300	26.61	0.64	-0.750			
0.8443	54038.16	3.3540	3.3540	-0.5082	26.61	0.64	-0.750			
0.8458	54133.83	3.3510	3.3511	-0.4898	26.62	0.65	-0.750			
0.8473	54224.86	3.3480	3.3479	-0.4689	26.62	0.65	-0.750			
0.8486	54313.01	3.3450	3.3451	-0.4513	26.63	0.66	-0.750			
0.8500	54397.80	3.3420	3.3420	-0.4340	26.63	0.66	-0.750			
0.8512	54479.62	3.3390	3.3390	-0.4184	26.64	0.67	-0.750			
0.8525	54558.41	3.3360	3.3360	-0.4020	26.64	0.67	-0.750			
0.8536	54633.38	3.3330	3.3329	-0.3865	26.64	0.67	-0.750			
0.8548	54705.58	3.3300	3.3301	-0.3730	26.65	0.68	-0.750			
0.8559	54775.36	3.3270	3.3269	-0.3608	26.65	0.68	-0.750			
0.8569	54843.66	3.3240	3.3240	-0.3500	26.66	0.69	-0.750			
0.8580	54910.07	3.3210	3.3210	-0.3389	26.66	0.69	-0.750			
0.8590	54974.26	3.3180	3.3180	-0.3273	26.66	0.69	-0.750			
0.8599	55036.04	3.3150	3.3151	-0.3162	26.67	0.70	-0.750			
0.8609	55095.30	3.3120	3.3120	-0.3041	26.67	0.70	-0.750			
0.8618	55152.16	3.3090	3.3090	-0.2939	26.68	0.71	-0.750			
0.8626	55207.24	3.3060	3.3059	-0.2845	26.68	0.71	-0.750			
0.8634	55260.45	3.3030	3.3031	-0.2761	26.69	0.72	-0.750			
0.8643	55312.61	3.3000	3.3000	-0.2691	26.69	0.72	-0.750			
0.8651	55364.01	3.2970	3.2970	-0.2626	26.70	0.73	-0.750			
0.8658	55413.70	3.2940	3.2939	-0.2557	26.70	0.73	-0.750			
0.8666	55461.98	3.2910	3.2910	-0.2488	26.71	0.74	-0.750			
0.8673	55508.96	3.2880	3.2880	-0.2425	26.71	0.74	-0.750			
0.8680	55554.64	3.2850	3.2850	-0.2362	26.71	0.74	-0.750			
0.8687	55599.25	3.2820	3.2820	-0.2308	26.72	0.75	-0.750			
0.8694	55642.70	3.2790	3.2790	-0.2255	26.72	0.75	-0.750			
0.8701	55685.42	3.2760	3.2760	-0.2208	26.73	0.76	-0.750			
0.8707	55727.47	3.2730	3.2729	-0.2165	26.73	0.76	-0.750			
0.8714	55768.68	3.2700	3.2699	-0.2115	26.73	0.76	-0.750			
0.8720	55808.73	3.2670	3.2670	-0.2070	26.74	0.77	-0.750			
0.8726	55848.04	3.2640	3.2641	-0.2024	26.74	0.77	-0.750			
0.8732	55886.45	3.2610	3.2610	-0.1983	26.75	0.78	-0.750			
0.8738	55923.82	3.2580	3.2580	-0.1943	26.75	0.78	-0.750			
0.8744	55960.67	3.2550	3.2549	-0.1902	26.75	0.78	-0.750			
0.8750	55996.87	3.2520	3.2521	-0.1868	26.76	0.79	-0.750			
0.8755	56032.25	3.2490	3.2490	-0.1840	26.76	0.79	-0.750			
0.8761	56067.29	3.2460	3.2460	-0.1816	26.77	0.80	-0.750			
0.8766	56101.71	3.2430	3.2431	-0.1787	26.77	0.80	-0.750			
0.8771	56135.92	3.2400	3.2399	-0.1757	26.77	0.80	-0.750			
0.8776	56169.35	3.2370	3.2370	-0.1734	26.78	0.81	-0.750			
0.8782	56202.32	3.2340	3.2341	-0.1709	26.78	0.81	-0.750			
0.8787	56235.08	3.2310	3.2310	-0.1689	26.79	0.82	-0.750			
0.8792	56267.24	3.2280	3.2278	-0.1664	26.79	0.82	-0.750			
0.8797	56298.75	3.2250	3.2250	-0.1638	26.79	0.82	-0.750			
0.8802	56329.95	3.2220	3.2221	-0.1616	26.80	0.83	-0.750			
0.8806	56360.77	3.2190	3.2190	-0.1595	26.80	0.83	-0.750			
0.8811	56391.37	3.2160	3.2160	-0.1574	26.80	0.83	-0.750			
0.8816	56421.07	3.2130	3.2130	-0.1556	26.81	0.84	-0.750			
0.8820	56450.73	3.2100	3.2100	-0.1539	26.81	0.84	-0.750			
0.8825	56480.14	3.2070	3.2070	-0.1525	26.81	0.84	-0.750			
0.8830	56509.36	3.2040	3.2040	-0.1505	26.82	0.85	-0.750			
0.8834	56538.05	3.2010	3.2011	-0.1491	26.82	0.85	-0.750			
0.8839	56566.57	3.1980	3.1980	-0.1475	26.82	0.85	-0.750			
0.8843	56594.72	3.1950	3.1950	-0.1459	26.83	0.86	-0.750			
0.8847	56622.57	3.1920	3.1919	-0.1445	26.83	0.86	-0.750			
0.8852	56650.08	3.1890	3.1889	-0.1424	26.84	0.87	-0.750			
0.8856	56677.28	3.1860	3.1861	-0.1410	26.84	0.87	-0.750			
0.8860	56704.22	3.1830	3.1830	-0.1399	26.85	0.88	-0.750			
0.8864	56730.92	3.1800	3.1800	-0.1392	26.85	0.88	-0.750			
0.8868	56757.45	3.1770	3.1770	-0.1376	26.86	0.89	-0.750			
0.8872	56783.78	3.1740	3.1739	-0.1367	26.86	0.89	-0.750			
0.8877	56810.00	3.1710	3.1710	-0.1353	26.87	0.90	-0.750			
0.8881	56835.93	3.1680	3.1681	-0.1341	26.87	0.90	-0.750			
0.8885	56861.75	3.1650	3.1650	-0.1330	26.88	0.91	-0.750			
0.8889	56887.11	3.1620	3.1619	-0.1311	26.88	0.91	-0.750			
0.8892	56911.96	3.1590	3.1590	-0.1297	26.89	0.92	-0.750			
0.8896	56936.42	3.1560	3.1560	-0.1287	26.89	0.92	-0.750			
0.8900	56961.09	3.1530	3.1530	-0.1281	26.90	0.93	-0.750			
0.8904	56985.63	3.1500	3.1499	-0.1276	26.90	0.93	-0.750			
0.8908	57010.14	3.1470	3.1470	-0.1265	26.91	0.94	-0.750			
0.8912	57034.38	3.1440	3.1440	-0.1258	26.91	0.94	-0.750			
0.8915	57058.75	3.1410	3.1410	-0.1248	26.91	0.94	-0.750			
0.8919	57082.55	3.1380	3.1380	-0.1231	26.92	0.95	-0.750			
0.8923	57105.96	3.1350	3.1350	-0.1223	26.92	0.95	-0.750			
0.8926	57129.08	3.1320	3.1320	-0.1208	26.93	0.96	-0.750			
0.8930	57152.10	3.1290	3.1289	-0.1205	26.93	0.96	-0.750			
0.8934	57174.99	3.1260	3.1260	-0.1200	26.93	0.96	-0.750			
0.8937	57198.14	3.1230	3.1231	-0.1191	26.94	0.97	-0.750			
0.8941	57220.96	3.1200	3.1199	-0.1185	26.94	0.97	-0.750			
0.8944	57243.88	3.1170	3.1171	-0.1182	26.94	0.97	-0.750			
0.8948	57266.46	3.1140	3.1140	-0.1171	26.95	0.98	-0.750			
0.8951	57288.87	3.1110	3.1109	-0.1160	26.95	0.98	-0.750			
0.8955	57311.03	3.1080	3.1080	-0.1149	26.96	0.99	-0.750			
0.8958	57332.83	3.1050	3.1050	-0.1138	26.96	0.99	-0.750			
0.8962	57354.60	3.1020	3.1021	-0.1131	26.96	0.99	-0.750			
0.8965	57376.20	3.0990	3.0989	-0.1127	26.97	1.00	-0.750			
0.8968	57397.78	3.0960	3.0961	-0.1121	26.97	1.00	-0.750			
0.8972	57419.18	3.0930	3.0931	-0.1112	26.98	1.01	-0.750			
0.8975	57440.48	3.0900	3.0898	-0.1107	26.98	1.01	-0.750			
0.8978	57461.79	3.0870	3.0870	-0.1102	26.99	1.02	-0.750			
0.8982	57482.87	3.0840	3.0840	-0.1094	26.99	1.02	-0.750			
0.8985	57503.88	3.0810	3.0810	-0.1086	27.00	1.03	-0.750			
0.8988	57524.65	3.0780	3.0780	-0.1077	27.00	1.03	-0.750			
0.8991	57545.19	3.0750	3.0751	-0.1067	27.01	1.04	-0.750			
0.8995	57565.60	3.0720	3.0720	-0.1059	27.01	1.04	-0.750			
0.8998	57585.78	3.0690	3.0691	-0.1055	27.02	1.05	-0.750			
0.9001	57605.98	3.0660	3.0660	-0.1049	27.02	1.05	-0.750			
0.9004	57625.95	3.0630	3.0629	-0.1043	27.03	1.06	-0.750			
0.9007	57645.95	3.0600	3.0600	-0.1041	27.03	1.06	-0.750			
0.9010	57665.95	3.0570	3.0570	-0.1036	27.04	1.07	-0.750			
0.9013	57685.81	3.0540	3.0541	-0.1033	27.04	1.07	-0.750			
0.9017	57705.82	3.0510	3.0510	-0.1026	27.05	1.08	-0.750			
0.9020	57725.42	3.0480	3.0480	-0.1016	27.05	1.08	-0.750			
0.9023	57744.82	3.0450	3.0449	-0.1009	27.05	1.08	-0.750			
0.9026	57764.10	3.0420	3.0421	-0.1000	27.06	1.09	-0.750			
0.9029	57782.97	3.0390	3.0391	-0.0997	27.06	1.09	-0.750			
0.9032	57802.10	3.0360	3.0360	-0.0996	27.07	1.10	-0.750			
0.9035	57821.10	3.0330	3.0329	-0.0990	27.07	1.10	-0.750			
0.9038	57840.10	3.0300	3.0300	-0.0990	27.08	1.11	-0.750			
0.9041	57859.38	3.0270	3.0271	-0.0986	27.08	1.11	-0.750			
0.9043	57878.25	3.0240	3.0240	-0.0979	27.09	1.12	-0.750			
0.9046	57897.22	3.0210	3.0209	-0.0973	27.09	1.12	-0.750			
0.9049	57915.79	3.0180	3.0181	-0.0961	27.09	1.12	-0.750			
0.9052	57934.02	3.0150	3.0150	-0.0951	27.10	1.13	-0.750			
0.9055	57952.19	3.0120	3.0120	-0.0942	27.10	1.13	-0.750			
0.9058	57970.15	3.0090	3.0091	-0.0933	27.11	1.14	-0.750			
0.9061	57987.99	3.0060	3.0059	-0.0926	27.11	1.14	-0.751			
0.9063	58005.70	3.0030	3.0030	-0.0923	27.12	1.15	-0.751			
