Ah_balance (normalized)	Ah_balance (mAh)	Voltage - fit (V)	Voltage -  interpolate (V)	dQ/dV (1/V)	Temperature (°C)	Temperature - diff (°C)	Current (C)	R_DC 0ms (mOhm)	R_DC 50ms (mOhm)	R_DC 50 ms PEC (mOhm)
0.0503	3217.35	4.1970	4.1970	0.7645	26.26	0.33	0.750			
0.0526	3365.09	4.1940	4.1940	0.7702	26.26	0.33	0.750			
0.0549	3512.38	4.1910	4.1910	0.7748	26.25	0.32	0.750			
0.0572	3661.80	4.1880	4.1880	0.7813	26.25	0.32	0.750			
0.0596	3813.99	4.1850	4.1850	0.7779	26.24	0.31	0.750			
0.0619	3964.27	4.1820	4.1820	0.7809	26.24	0.31	0.750			
0.0643	4115.09	4.1790	4.1791	0.7805	26.24	0.31	0.750			
0.0666	4263.21	4.1760	4.1761	0.7770	26.23	0.30	0.750			
0.0689	4412.17	4.1730	4.1730	0.7752	26.23	0.30	0.750			
0.0712	4559.36	4.1700	4.1700	0.7754	26.23	0.30	0.750			
0.0736	4707.36	4.1670	4.1670	0.7776	26.23	0.30	0.750			
0.0759	4857.86	4.1640	4.1640	0.7847	26.23	0.30	0.750			
0.0783	5008.18	4.1610	4.1610	0.7861	26.23	0.30	0.750			
0.0806	5160.59	4.1580	4.1577	0.7914	26.23	0.30	0.750			
0.0830	5314.38	4.1550	4.1550	0.7886	26.23	0.30	0.750			
0.0854	5467.61	4.1520	4.1520	0.7826	26.23	0.30	0.750			
0.0878	5616.52	4.1490	4.1491	0.7821	26.23	0.30	0.750			
0.0901	5764.33	4.1460	4.1461	0.7887	26.23	0.30	0.750			
0.0924	5913.65	4.1430	4.1429	0.7891	26.23	0.30	0.750			
0.0948	6066.07	4.1400	4.1400	0.7929	26.23	0.30	0.750			
0.0972	6220.08	4.1370	4.1371	0.7966	26.23	0.30	0.750			
0.0996	6375.03	4.1340	4.1341	0.7990	26.23	0.30	0.750			
0.1020	6529.45	4.1310	4.1310	0.8052	26.24	0.31	0.750			
0.1044	6681.93	4.1280	4.1281	0.8002	26.24	0.31	0.750			
0.1068	6834.83	4.1250	4.1249	0.8006	26.24	0.31	0.750			
0.1092	6991.76	4.1220	4.1219	0.8006	26.24	0.31	0.750			
0.1116	7145.15	4.1190	4.1191	0.8019	26.24	0.31	0.750			
0.1140	7298.66	4.1160	4.1160	0.8071	26.23	0.30	0.750			
0.1165	7453.02	4.1130	4.1130	0.8052	26.23	0.30	0.750			
0.1189	7606.75	4.1100	4.1098	0.8018	26.23	0.30	0.750			
0.1213	7762.13	4.1070	4.1071	0.8078	26.23	0.30	0.750			
0.1237	7917.17	4.1040	4.1040	0.8073	26.23	0.30	0.750			
0.1261	8071.91	4.1010	4.1012	0.8105	26.23	0.30	0.750			
0.1285	8225.27	4.0980	4.0980	0.8098	26.23	0.30	0.750			
0.1310	8381.28	4.0950	4.0948	0.8135	26.23	0.30	0.750			
0.1334	8537.16	4.0920	4.0921	0.8267	26.23	0.30	0.750			
0.1359	8696.86	4.0890	4.0891	0.8303	26.23	0.30	0.750			
0.1384	8859.00	4.0860	4.0858	0.8375	26.24	0.31	0.750			
0.1410	9021.19	4.0830	4.0831	0.8381	26.24	0.31	0.750			
0.1435	9182.12	4.0800	4.0798	0.8393	26.24	0.31	0.750			
0.1460	9345.42	4.0770	4.0770	0.8411	26.24	0.31	0.750			
0.1485	9506.57	4.0740	4.0740	0.8426	26.24	0.31	0.750			
0.1510	9664.95	4.0710	4.0710	0.8440	26.23	0.30	0.750			
0.1536	9827.87	4.0680	4.0680	0.8432	26.23	0.30	0.750			
0.1561	9990.30	4.0650	4.0649	0.8511	26.23	0.30	0.750			
0.1587	10154.95	4.0620	4.0621	0.8537	26.23	0.30	0.750			
0.1612	10319.74	4.0590	4.0589	0.8593	26.23	0.30	0.750			
0.1638	10485.15	4.0560	4.0560	0.8647	26.23	0.30	0.750			
0.1664	10651.32	4.0530	4.0530	0.8700	26.23	0.30	0.750			
0.1690	10818.58	4.0500	4.0500	0.8691	26.23	0.30	0.750			
0.1717	10987.85	4.0470	4.0470	0.8711	26.24	0.31	0.750			
0.1743	11153.22	4.0440	4.0440	0.8731	26.24	0.31	0.750			
0.1769	11321.65	4.0410	4.0410	0.8764	26.24	0.31	0.750			
0.1795	11489.42	4.0380	4.0379	0.8745	26.25	0.32	0.750			
0.1821	11657.10	4.0350	4.0350	0.8768	26.25	0.32	0.750			
0.1848	11826.81	4.0320	4.0321	0.8750	26.24	0.31	0.750			
0.1874	11995.81	4.0290	4.0290	0.8763	26.24	0.31	0.750			
0.1900	12162.71	4.0260	4.0260	0.8796	26.24	0.31	0.750			
0.1927	12329.86	4.0230	4.0230	0.8809	26.23	0.30	0.750			
0.1953	12500.27	4.0200	4.0199	0.8840	26.23	0.30	0.750			
0.1980	12670.73	4.0170	4.0170	0.8889	26.24	0.31	0.750			
0.2007	12842.55	4.0140	4.0141	0.8905	26.24	0.31	0.750			
0.2034	13014.56	4.0110	4.0111	0.8938	26.25	0.32	0.750			
0.2060	13185.43	4.0080	4.0079	0.8936	26.25	0.32	0.750			
0.2087	13355.86	4.0050	4.0050	0.8943	26.25	0.32	0.750			
0.2114	13526.89	4.0020	4.0020	0.8978	26.25	0.32	0.750			
0.2141	13700.06	3.9990	3.9990	0.9056	26.25	0.32	0.750			
0.2168	13875.10	3.9960	3.9960	0.9122	26.25	0.32	0.750			
0.2196	14051.85	3.9930	3.9930	0.9175	26.25	0.32	0.750			
0.2223	14228.45	3.9900	3.9900	0.9157	26.25	0.32	0.750			
0.2251	14404.78	3.9870	3.9871	0.9156	26.25	0.32	0.750			
0.2278	14579.55	3.9840	3.9841	0.9180	26.25	0.32	0.750			
0.2306	14755.25	3.9810	3.9808	0.9219	26.25	0.32	0.750			
0.2333	14934.07	3.9780	3.9781	0.9152	26.25	0.32	0.750			
0.2361	15108.34	3.9750	3.9750	0.9223	26.25	0.32	0.750			
0.2389	15287.13	3.9720	3.9721	0.9294	26.25	0.32	0.750			
0.2417	15466.31	3.9690	3.9690	0.9327	26.25	0.32	0.750			
0.2444	15643.79	3.9660	3.9659	0.9335	26.25	0.32	0.750			
0.2472	15823.46	3.9630	3.9631	0.9278	26.25	0.32	0.750			
0.2500	16001.02	3.9600	3.9600	0.9320	26.25	0.32	0.750			
0.2528	16180.63	3.9570	3.9571	0.9379	26.25	0.32	0.750			
0.2556	16359.33	3.9540	3.9537	0.9352	26.25	0.32	0.750			
0.2585	16541.41	3.9510	3.9511	0.9363	26.25	0.32	0.750			
0.2613	16720.33	3.9480	3.9480	0.9476	26.25	0.32	0.750			
0.2641	16903.12	3.9450	3.9451	0.9558	26.25	0.32	0.750			
0.2670	17086.66	3.9420	3.9419	0.9570	26.25	0.32	0.750			
0.2699	17274.07	3.9390	3.9390	0.9558	26.25	0.32	0.750			
0.2728	17458.28	3.9360	3.9361	0.9608	26.25	0.32	0.750			
0.2757	17641.83	3.9330	3.9330	0.9694	26.26	0.33	0.750			
0.2786	17830.45	3.9300	3.9300	0.9689	26.26	0.33	0.750			
0.2815	18013.57	3.9270	3.9268	0.9611	26.26	0.33	0.750			
0.2844	18199.77	3.9240	3.9240	0.9571	26.26	0.33	0.750			
0.2872	18383.16	3.9210	3.9212	0.9609	26.26	0.33	0.750			
0.2901	18567.54	3.9180	3.9180	0.9643	26.26	0.33	0.750			
0.2930	18750.10	3.9150	3.9148	0.9674	26.26	0.33	0.750			
0.2958	18934.17	3.9120	3.9120	0.9692	26.26	0.33	0.750			
0.2988	19125.30	3.9090	3.9090	0.9813	26.26	0.33	0.750			
0.3018	19316.29	3.9060	3.9060	0.9893	26.27	0.34	0.750			
0.3048	19506.13	3.9030	3.9031	0.9871	26.27	0.34	0.750			
0.3078	19696.91	3.9000	3.9000	0.9863	26.27	0.34	0.750			
0.3107	19885.88	3.8970	3.8970	0.9895	26.26	0.33	0.750			
0.3137	20075.36	3.8940	3.8940	0.9952	26.26	0.33	0.750			
0.3167	20265.64	3.8910	3.8911	1.0023	26.25	0.32	0.750			
0.3197	20460.55	3.8880	3.8880	1.0033	26.25	0.32	0.750			
0.3227	20653.68	3.8850	3.8851	1.0094	26.25	0.32	0.750			
0.3258	20848.66	3.8820	3.8820	1.0153	26.25	0.32	0.750			
0.3288	21044.79	3.8790	3.8790	1.0162	26.25	0.32	0.750			
0.3319	21239.79	3.8760	3.8760	1.0141	26.25	0.32	0.750			
0.3349	21432.81	3.8730	3.8731	1.0165	26.25	0.32	0.750			
0.3379	21626.92	3.8700	3.8700	1.0234	26.25	0.32	0.750			
0.3410	21824.64	3.8670	3.8670	1.0354	26.25	0.32	0.750			
0.3441	22024.70	3.8640	3.8640	1.0356	26.25	0.32	0.750			
0.3473	22224.11	3.8610	3.8610	1.0496	26.24	0.31	0.750			
0.3504	22428.54	3.8580	3.8580	1.0620	26.24	0.31	0.750			
0.3536	22632.13	3.8550	3.8551	1.0734	26.23	0.30	0.750			
0.3569	22840.32	3.8520	3.8519	1.0735	26.23	0.30	0.750			
0.3601	23046.49	3.8490	3.8490	1.0878	26.23	0.30	0.750			
0.3633	23253.54	3.8460	3.8461	1.1056	26.23	0.30	0.750			
0.3667	23468.02	3.8430	3.8431	1.1241	26.23	0.30	0.750			
0.3701	23685.46	3.8400	3.8401	1.1297	26.23	0.30	0.750			
0.3735	23905.38	3.8370	3.8370	1.1469	26.22	0.29	0.750			
0.3770	24125.92	3.8340	3.8342	1.1634	26.22	0.29	0.750			
0.3806	24356.03	3.8310	3.8307	1.1686	26.21	0.28	0.750			
0.3840	24578.23	3.8280	3.8280	1.1723	26.20	0.27	0.750			
0.3875	24801.72	3.8250	3.8251	1.1850	26.19	0.26	0.750			
0.3911	25030.87	3.8220	3.8221	1.2015	26.19	0.26	0.750			
0.3947	25261.46	3.8190	3.8190	1.2041	26.18	0.25	0.750			
0.3983	25492.73	3.8160	3.8161	1.2298	26.18	0.25	0.750			
0.4020	25728.08	3.8130	3.8131	1.2517	26.17	0.24	0.750			
0.4058	25973.99	3.8100	3.8096	1.2727	26.17	0.24	0.750			
0.4097	26218.71	3.8070	3.8071	1.2934	26.15	0.22	0.750			
0.4136	26469.66	3.8040	3.8041	1.3162	26.14	0.21	0.750			
0.4176	26728.02	3.8010	3.8009	1.3391	26.12	0.19	0.750			
0.4216	26984.75	3.7980	3.7980	1.3495	26.11	0.18	0.750			
0.4257	27247.86	3.7950	3.7951	1.3635	26.10	0.17	0.750			
0.4299	27516.48	3.7920	3.7919	1.3657	26.09	0.16	0.750			
0.4340	27776.80	3.7890	3.7891	1.3729	26.08	0.15	0.750			
0.4381	28039.14	3.7860	3.7861	1.3800	26.08	0.15	0.750			
0.4422	28302.68	3.7830	3.7829	1.3923	26.07	0.14	0.750			
0.4464	28570.98	3.7800	3.7800	1.4051	26.06	0.13	0.750			
0.4506	28839.72	3.7770	3.7771	1.4216	26.05	0.12	0.750			
0.4550	29117.83	3.7740	3.7739	1.4236	26.03	0.10	0.750			
0.4593	29396.53	3.7710	3.7710	1.4264	26.02	0.09	0.750			
0.4635	29666.42	3.7680	3.7681	1.4534	26.01	0.08	0.750			
0.4680	29949.39	3.7650	3.7647	1.4669	26.00	0.07	0.750			
0.4723	30225.67	3.7620	3.7620	1.4978	25.99	0.06	0.750			
0.4769	30520.21	3.7590	3.7593	1.5319	25.98	0.05	0.750	0.297	0.395	
0.4815	30819.13	3.7560	3.7561	1.5724	25.97	0.04	0.750			
0.4864	31129.63	3.7530	3.7528	1.6109	25.95	0.02	0.750			
0.4912	31437.56	3.7500	3.7501	1.6356	25.94	0.01	0.750			
0.4961	31749.16	3.7470	3.7471	1.6599	25.92	-0.01	0.750			
0.5012	32074.84	3.7440	3.7440	1.6928	25.91	-0.02	0.750			
0.5063	32400.99	3.7410	3.7409	1.7143	25.90	-0.03	0.750			
0.5115	32734.77	3.7380	3.7380	1.7548	25.89	-0.04	0.750			
0.5167	33071.60	3.7350	3.7350	1.7969	25.87	-0.06	0.750			
0.5222	33420.32	3.7320	3.7318	1.8496	25.85	-0.08	0.750			
0.5278	33779.84	3.7290	3.7288	1.8941	25.83	-0.10	0.750			
0.5337	34154.56	3.7260	3.7263	1.9550	25.82	-0.11	0.750			
0.5396	34536.91	3.7230	3.7230	2.0128	25.81	-0.12	0.750			
0.5457	34925.11	3.7200	3.7199	2.0528	25.80	-0.13	0.750			
0.5519	35322.86	3.7170	3.7173	2.1105	25.78	-0.15	0.750			
0.5584	35735.25	3.7140	3.7140	2.1901	25.77	-0.16	0.750			
0.5650	36157.67	3.7110	3.7109	2.2613	25.76	-0.17	0.750			
0.5719	36600.25	3.7080	3.7081	2.3247	25.74	-0.19	0.750			
0.5789	37052.11	3.7050	3.7051	2.3922	25.71	-0.22	0.750			
0.5863	37522.87	3.7020	3.7021	2.4654	25.69	-0.24	0.750			
0.5938	38000.12	3.6990	3.6988	2.5389	25.68	-0.25	0.750			
0.6014	38491.17	3.6960	3.6960	2.5976	25.66	-0.27	0.750			
0.6094	39001.12	3.6930	3.6929	2.6482	25.65	-0.28	0.750			
0.6175	39517.33	3.6900	3.6901	2.7281	25.64	-0.29	0.750			
0.6256	40040.01	3.6870	3.6872	2.8058	25.62	-0.31	0.750			
0.6341	40583.58	3.6840	3.6841	2.9114	25.61	-0.32	0.750			
0.6430	41155.04	3.6810	3.6809	3.0023	25.60	-0.33	0.750			
0.6523	41745.43	3.6780	3.6782	3.0835	25.58	-0.35	0.750			
0.6617	42348.78	3.6750	3.6750	3.1188	25.57	-0.36	0.750			
0.6710	42942.55	3.6720	3.6719	3.2749	25.56	-0.37	0.750			
0.6810	43584.17	3.6690	3.6688	3.4145	25.54	-0.39	0.750			
0.6918	44272.30	3.6660	3.6662	3.4913	25.54	-0.39	0.750			
0.7026	44968.89	3.6630	3.6631	3.4041	25.54	-0.39	0.750			
0.7127	45615.33	3.6600	3.6600	3.1028	25.54	-0.39	0.750			
0.7213	46164.76	3.6570	3.6572	2.7403	25.54	-0.39	0.750			
0.7288	46640.40	3.6540	3.6540	2.3985	25.55	-0.38	0.750			
0.7353	47058.17	3.6510	3.6510	2.1132	25.55	-0.38	0.750			
0.7410	47421.96	3.6480	3.6481	1.8802	25.56	-0.37	0.750			
0.7462	47757.78	3.6450	3.6450	1.7171	25.56	-0.37	0.750			
0.7510	48066.58	3.6420	3.6422	1.5721	25.57	-0.36	0.750			
0.7555	48355.20	3.6390	3.6387	1.4647	25.58	-0.35	0.750			
0.7596	48613.36	3.6360	3.6361	1.3551	25.59	-0.34	0.750			
0.7635	48863.97	3.6330	3.6330	1.2931	25.59	-0.34	0.750			
0.7672	49098.80	3.6300	3.6300	1.2469	25.60	-0.33	0.750			
0.7708	49329.16	3.6270	3.6270	1.2124	25.60	-0.33	0.750			
0.7744	49558.61	3.6240	3.6240	1.2187	25.60	-0.33	0.750			
0.7780	49789.50	3.6210	3.6211	1.2289	25.60	-0.33	0.750			
0.7817	50028.18	3.6180	3.6179	1.2353	25.60	-0.33	0.750			
0.7854	50267.36	3.6150	3.6150	1.2492	25.60	-0.33	0.750			
0.7893	50513.50	3.6120	3.6120	1.2449	25.61	-0.32	0.750			
0.7931	50755.32	3.6090	3.6089	1.2278	25.61	-0.32	0.750			
0.7967	50990.47	3.6060	3.6060	1.2226	25.61	-0.32	0.750			
0.8003	51221.24	3.6030	3.6031	1.2111	25.62	-0.31	0.750			
0.8039	51450.69	3.6000	3.5999	1.2009	25.62	-0.31	0.750			
0.8075	51679.86	3.5970	3.5972	1.1885	25.62	-0.31	0.750			
0.8110	51901.30	3.5940	3.5941	1.1970	25.63	-0.30	0.750			
0.8146	52132.94	3.5910	3.5911	1.2217	25.63	-0.30	0.750			
0.8183	52369.26	3.5880	3.5874	1.2362	25.64	-0.29	0.750			
0.8219	52602.88	3.5850	3.5852	1.2797	25.64	-0.29	0.750			
0.8258	52850.17	3.5820	3.5821	1.3369	25.64	-0.29	0.750			
0.8300	53118.58	3.5790	3.5787	1.3745	25.64	-0.29	0.750			
0.8341	53383.61	3.5760	3.5759	1.4094	25.65	-0.28	0.750			
0.8385	53663.31	3.5730	3.5730	1.4443	25.65	-0.28	0.750			
0.8429	53944.34	3.5700	3.5698	1.4774	25.66	-0.27	0.750			
0.8474	54231.64	3.5670	3.5669	1.5136	25.66	-0.27	0.750			
0.8519	54519.42	3.5640	3.5642	1.5222	25.66	-0.27	0.750			
0.8566	54819.87	3.5610	3.5607	1.5437	25.66	-0.27	0.750			
0.8612	55119.15	3.5580	3.5581	1.5669	25.66	-0.27	0.750			
0.8660	55425.72	3.5550	3.5552	1.5618	25.67	-0.26	0.750			
0.8708	55728.52	3.5520	3.5520	1.5849	25.67	-0.26	0.750			
0.8755	56030.50	3.5490	3.5490	1.5900	25.68	-0.25	0.750			
0.8803	56338.19	3.5460	3.5460	1.6205	25.68	-0.25	0.750			
0.8852	56651.12	3.5430	3.5434	1.6567	25.68	-0.25	0.750			
0.8901	56965.40	3.5400	3.5402	1.6806	25.68	-0.25	0.750			
0.8952	57291.48	3.5370	3.5371	1.7325	25.69	-0.24	0.750			
0.9007	57643.92	3.5340	3.5338	1.7448	25.70	-0.23	0.750			
0.9062	57999.77	3.5310	3.5305	1.6658	25.72	-0.21	0.750			
0.9114	58328.84	3.5280	3.5284	1.4745	25.74	-0.19	0.750			
0.9160	58621.96	3.5250	3.5256	1.2781	25.75	-0.18	0.750			
0.9195	58850.90	3.5220	3.5223	1.0427	25.77	-0.16	0.750			
0.9221	59011.96	3.5190	3.5186	0.7774	25.78	-0.15	0.750			
0.9236	59108.42	3.5160	3.5157	0.5588	25.79	-0.14	0.750			
0.9247	59180.83	3.5130	3.5128	0.4476	25.80	-0.13	0.750			
0.9258	59249.58	3.5100	3.5100	0.3773	25.81	-0.12	0.750			
0.9268	59315.28	3.5070	3.5069	0.3482	25.81	-0.12	0.750			
0.9278	59377.67	3.5040	3.5040	0.3257	25.82	-0.11	0.750			
0.9287	59437.82	3.5010	3.5009	0.3113	25.83	-0.10	0.750			
0.9296	59496.02	3.4980	3.4981	0.2995	25.83	-0.10	0.750			
0.9305	59551.55	3.4950	3.4950	0.2897	25.84	-0.09	0.750			
0.9313	59605.91	3.4920	3.4919	0.2815	25.84	-0.09	0.750			
0.9322	59658.81	3.4890	3.4890	0.2737	25.85	-0.08	0.750			
0.9330	59710.50	3.4860	3.4859	0.2682	25.86	-0.07	0.750			
0.9338	59761.95	3.4830	3.4831	0.2638	25.86	-0.07	0.750			
0.9346	59811.92	3.4800	3.4800	0.2581	25.87	-0.06	0.750			
0.9353	59861.34	3.4770	3.4770	0.2519	25.87	-0.06	0.750			
0.9361	59909.03	3.4740	3.4740	0.2475	25.88	-0.05	0.750			
0.9368	59955.52	3.4710	3.4710	0.2418	25.88	-0.05	0.750			
0.9375	60001.25	3.4680	3.4679	0.2380	25.89	-0.04	0.750			
0.9382	60046.01	3.4650	3.4650	0.2338	25.89	-0.04	0.750			
0.9389	60091.21	3.4620	3.4621	0.2303	25.90	-0.03	0.750			
0.9396	60135.15	3.4590	3.4589	0.2263	25.90	-0.03	0.750			
0.9403	60178.66	3.4560	3.4561	0.2227	25.91	-0.02	0.750			
0.9410	60220.91	3.4530	3.4530	0.2175	25.91	-0.02	0.750			
0.9416	60261.90	3.4500	3.4500	0.2127	25.92	-0.01	0.750			
0.9422	60302.30	3.4470	3.4470	0.2092	25.92	-0.01	0.750			
0.9428	60341.71	3.4440	3.4440	0.2043	25.93	-0.00	0.750			
0.9434	60380.80	3.4410	3.4410	0.2002	25.93	0.00	0.750			
0.9440	60419.13	3.4380	3.4380	0.1965	25.94	0.01	0.750			
0.9446	60456.47	3.4350	3.4350	0.1920	25.94	0.01	0.750			
0.9452	60493.09	3.4320	3.4320	0.1878	25.94	0.01	0.750			
0.9458	60528.48	3.4290	3.4289	0.1831	25.95	0.02	0.750			
0.9463	60563.21	3.4260	3.4260	0.1787	25.95	0.02	0.750			
0.9468	60596.91	3.4230	3.4230	0.1738	25.96	0.03	0.750			
0.9473	60629.97	3.4200	3.4200	0.1694	25.96	0.03	0.750			
0.9478	60662.28	3.4170	3.4170	0.1650	25.96	0.03	0.750			
0.9483	60693.47	3.4140	3.4140	0.1600	25.97	0.04	0.750			
0.9488	60723.85	3.4110	3.4110	0.1545	25.97	0.04	0.750			
0.9493	60753.06	3.4080	3.4081	0.1492	25.97	0.04	0.750			
0.9497	60781.11	3.4050	3.4050	0.1435	25.98	0.05	0.750			
0.9501	60808.08	3.4020	3.4021	0.1383	25.98	0.05	0.750			
0.9505	60834.16	3.3990	3.3990	0.1330	25.98	0.05	0.750			
0.9509	60859.21	3.3960	3.3961	0.1269	25.98	0.05	0.750			
0.9513	60883.12	3.3930	3.3930	0.1214	25.99	0.06	0.750			
0.9517	60906.18	3.3900	3.3901	0.1144	25.99	0.06	0.750			
0.9520	60927.84	3.3870	3.3870	0.1081	25.99	0.06	0.750			
0.9523	60948.89	3.3840	3.3840	0.1003	25.99	0.06	0.750			
0.9526	60967.24	3.3810	3.3809	0.0909	26.00	0.07	0.750			
0.9529	60984.19	3.3780	3.3779	0.0825	26.00	0.07	0.750			
0.9531	60999.07	3.3750	3.3752	0.0725	26.00	0.07	0.750			
0.9533	61012.59	3.3720	3.3724	0.0629	26.00	0.07	0.750			
0.9535	61023.63	3.3690	3.3695	0.0521	26.00	0.07	0.750			
0.9536	61032.59	3.3660	3.3670	0.0413	26.00	0.07	0.750			
0.9537	61039.49	3.3630	3.3644	0.0305	26.01	0.08	0.750			
