Ah_balance (normalized)	Ah_balance (mAh)	Voltage - fit (V)	Voltage -  interpolate (V)	dQ/dV (1/V)	Temperature (°C)	Temperature - diff (°C)	Current (C)	R_DC 0ms (mOhm)	R_DC 50ms (mOhm)	R_DC 50 ms PEC (mOhm)
0.0002	14.36	4.1660	4.1657	-0.1132	25.76	0.01	-0.750			
0.0006	40.38	4.1630	4.1630	-0.1589	25.76	0.01	-0.750			
0.0012	74.99	4.1600	4.1600	-0.2060	25.76	0.01	-0.750			
0.0019	121.01	4.1570	4.1570	-0.2506	25.76	0.01	-0.750			
0.0027	172.77	4.1540	4.1540	-0.2951	25.75	0.00	-0.750			
0.0037	234.53	4.1510	4.1510	-0.3329	25.75	0.00	-0.750			
0.0047	303.49	4.1480	4.1481	-0.3743	25.75	-0.00	-0.750			
0.0059	379.01	4.1450	4.1450	-0.4131	25.75	-0.00	-0.750			
0.0072	462.31	4.1420	4.1421	-0.4498	25.74	-0.01	-0.750			
0.0086	552.25	4.1390	4.1389	-0.4835	25.74	-0.01	-0.750			
0.0102	649.90	4.1360	4.1360	-0.5134	25.74	-0.01	-0.750			
0.0117	751.79	4.1330	4.1331	-0.5450	25.73	-0.02	-0.750			
0.0135	862.21	4.1300	4.1299	-0.5666	25.73	-0.02	-0.750			
0.0152	973.85	4.1270	4.1268	-0.5847	25.72	-0.03	-0.750			
0.0170	1087.59	4.1240	4.1244	-0.6018	25.72	-0.03	-0.750			
0.0188	1204.31	4.1210	4.1209	-0.6150	25.72	-0.03	-0.750			
0.0207	1324.46	4.1180	4.1179	-0.6294	25.71	-0.04	-0.750			
0.0226	1446.50	4.1150	4.1151	-0.6436	25.71	-0.04	-0.750			
0.0246	1572.26	4.1120	4.1120	-0.6593	25.71	-0.04	-0.750			
0.0266	1700.93	4.1090	4.1089	-0.6679	25.70	-0.05	-0.750			
0.0286	1829.98	4.1060	4.1060	-0.6742	25.70	-0.05	-0.750			
0.0306	1960.14	4.1030	4.1029	-0.6784	25.70	-0.05	-0.750			
0.0327	2091.45	4.1000	4.1000	-0.6848	25.69	-0.06	-0.750			
0.0347	2222.23	4.0970	4.0970	-0.6915	25.69	-0.06	-0.750			
0.0368	2354.05	4.0940	4.0940	-0.6964	25.69	-0.06	-0.750			
0.0389	2489.94	4.0910	4.0909	-0.7053	25.68	-0.07	-0.750			
0.0410	2627.15	4.0880	4.0880	-0.7090	25.68	-0.07	-0.750			
0.0432	2763.72	4.0850	4.0850	-0.7132	25.68	-0.07	-0.750			
0.0453	2902.37	4.0820	4.0820	-0.7167	25.68	-0.07	-0.750			
0.0475	3039.96	4.0790	4.0789	-0.7261	25.68	-0.07	-0.750			
0.0497	3179.60	4.0760	4.0759	-0.7262	25.68	-0.07	-0.750			
0.0519	3320.08	4.0730	4.0730	-0.7307	25.68	-0.07	-0.750			
0.0541	3462.31	4.0700	4.0703	-0.7322	25.68	-0.07	-0.750			
0.0563	3603.54	4.0670	4.0669	-0.7301	25.68	-0.07	-0.750			
0.0585	3741.15	4.0640	4.0640	-0.7342	25.67	-0.08	-0.750			
0.0606	3881.49	4.0610	4.0611	-0.7375	25.67	-0.08	-0.750			
0.0629	4023.97	4.0580	4.0578	-0.7421	25.67	-0.08	-0.750			
0.0651	4166.14	4.0550	4.0549	-0.7442	25.66	-0.09	-0.750			
0.0673	4309.08	4.0520	4.0522	-0.7488	25.66	-0.09	-0.750			
0.0696	4454.16	4.0490	4.0489	-0.7528	25.66	-0.09	-0.750			
0.0719	4598.77	4.0460	4.0460	-0.7575	25.66	-0.09	-0.750			
0.0741	4743.87	4.0430	4.0430	-0.7577	25.66	-0.09	-0.750			
0.0764	4891.24	4.0400	4.0400	-0.7615	25.66	-0.09	-0.750			
0.0787	5038.03	4.0370	4.0369	-0.7633	25.66	-0.09	-0.750			
0.0810	5184.31	4.0340	4.0340	-0.7612	25.66	-0.09	-0.750			
0.0833	5329.75	4.0310	4.0310	-0.7626	25.67	-0.08	-0.750			
0.0856	5476.18	4.0280	4.0280	-0.7620	25.67	-0.08	-0.750			
0.0878	5621.46	4.0250	4.0250	-0.7599	25.67	-0.08	-0.750			
0.0901	5768.39	4.0220	4.0220	-0.7680	25.68	-0.07	-0.750			
0.0924	5916.61	4.0190	4.0191	-0.7671	25.68	-0.07	-0.750			
0.0947	6063.50	4.0160	4.0160	-0.7686	25.68	-0.07	-0.750			
0.0971	6211.98	4.0130	4.0130	-0.7708	25.68	-0.07	-0.750			
0.0994	6359.60	4.0100	4.0100	-0.7723	25.68	-0.07	-0.750			
0.1017	6507.89	4.0070	4.0070	-0.7758	25.68	-0.07	-0.750			
0.1040	6656.87	4.0040	4.0040	-0.7762	25.68	-0.07	-0.750			
0.1063	6805.52	4.0010	4.0010	-0.7767	25.68	-0.07	-0.750			
0.1087	6955.01	3.9980	3.9980	-0.7873	25.68	-0.07	-0.750			
0.1111	7107.39	3.9950	3.9950	-0.7843	25.68	-0.07	-0.750			
0.1134	7258.45	3.9920	3.9920	-0.7863	25.68	-0.07	-0.750			
0.1158	7411.57	3.9890	3.9890	-0.7824	25.68	-0.07	-0.750			
0.1181	7561.27	3.9860	3.9861	-0.7812	25.68	-0.07	-0.750			
0.1204	7708.47	3.9830	3.9830	-0.7913	25.69	-0.06	-0.750			
0.1228	7860.90	3.9800	3.9801	-0.7907	25.69	-0.06	-0.750			
0.1252	8012.02	3.9770	3.9768	-0.7892	25.69	-0.06	-0.750			
0.1276	8166.10	3.9740	3.9741	-0.7955	25.70	-0.05	-0.750			
0.1300	8319.26	3.9710	3.9711	-0.7988	25.70	-0.05	-0.750			
0.1324	8473.47	3.9680	3.9680	-0.8018	25.70	-0.05	-0.750			
0.1348	8626.17	3.9650	3.9649	-0.8074	25.70	-0.05	-0.750			
0.1372	8781.72	3.9620	3.9620	-0.8067	25.71	-0.04	-0.750			
0.1397	8940.48	3.9590	3.9589	-0.8157	25.71	-0.04	-0.750			
0.1422	9097.99	3.9560	3.9562	-0.8196	25.71	-0.04	-0.750			
0.1446	9254.87	3.9530	3.9529	-0.8167	25.71	-0.04	-0.750			
0.1470	9410.87	3.9500	3.9499	-0.8154	25.71	-0.04	-0.750			
0.1495	9566.42	3.9470	3.9470	-0.8142	25.72	-0.03	-0.750			
0.1519	9723.02	3.9440	3.9440	-0.8213	25.72	-0.03	-0.750			
0.1544	9880.55	3.9410	3.9412	-0.8232	25.72	-0.03	-0.750			
0.1569	10038.58	3.9380	3.9379	-0.8244	25.72	-0.03	-0.750			
0.1593	10196.84	3.9350	3.9350	-0.8299	25.72	-0.03	-0.750			
0.1619	10358.49	3.9320	3.9320	-0.8292	25.73	-0.02	-0.750			
0.1644	10519.70	3.9290	3.9290	-0.8353	25.73	-0.02	-0.750			
0.1669	10678.48	3.9260	3.9262	-0.8319	25.73	-0.02	-0.750			
0.1693	10837.12	3.9230	3.9230	-0.8290	25.73	-0.02	-0.750			
0.1718	10996.07	3.9200	3.9199	-0.8359	25.74	-0.01	-0.750			
0.1743	11155.77	3.9170	3.9170	-0.8355	25.74	-0.01	-0.750			
0.1768	11318.00	3.9140	3.9140	-0.8396	25.75	-0.00	-0.750			
0.1794	11479.21	3.9110	3.9112	-0.8411	25.75	-0.00	-0.750			
0.1819	11640.16	3.9080	3.9079	-0.8423	25.75	0.00	-0.750			
0.1844	11801.98	3.9050	3.9051	-0.8465	25.75	0.00	-0.750			
0.1869	11964.70	3.9020	3.9019	-0.8482	25.75	0.00	-0.750			
0.1895	12129.48	3.8990	3.8990	-0.8478	25.75	0.00	-0.750			
0.1921	12292.00	3.8960	3.8961	-0.8516	25.75	0.00	-0.750			
0.1946	12455.61	3.8930	3.8930	-0.8525	25.75	0.00	-0.750			
0.1972	12618.38	3.8900	3.8900	-0.8538	25.75	0.00	-0.750			
0.1997	12781.48	3.8870	3.8869	-0.8504	25.76	0.01	-0.750			
0.2023	12946.76	3.8840	3.8840	-0.8510	25.76	0.01	-0.750			
0.2048	13109.03	3.8810	3.8812	-0.8562	25.76	0.01	-0.750			
0.2074	13274.50	3.8780	3.8779	-0.8610	25.76	0.01	-0.750			
0.2100	13437.51	3.8750	3.8749	-0.8581	25.76	0.01	-0.750			
0.2125	13602.27	3.8720	3.8720	-0.8595	25.77	0.02	-0.750			
0.2151	13769.59	3.8690	3.8691	-0.8639	25.77	0.02	-0.750			
0.2177	13935.51	3.8660	3.8660	-0.8652	25.77	0.02	-0.750			
0.2203	14101.68	3.8630	3.8629	-0.8662	25.78	0.03	-0.750			
0.2229	14266.07	3.8600	3.8600	-0.8648	25.78	0.03	-0.750			
0.2255	14433.16	3.8570	3.8570	-0.8662	25.78	0.03	-0.750			
0.2281	14599.80	3.8540	3.8540	-0.8685	25.79	0.04	-0.750			
0.2307	14767.10	3.8510	3.8510	-0.8688	25.79	0.04	-0.750			
0.2333	14933.85	3.8480	3.8480	-0.8740	25.79	0.04	-0.750			
0.2360	15101.86	3.8450	3.8450	-0.8725	25.79	0.04	-0.750			
0.2386	15269.88	3.8420	3.8420	-0.8696	25.79	0.04	-0.750			
0.2412	15436.88	3.8390	3.8390	-0.8689	25.79	0.04	-0.750			
0.2438	15604.08	3.8360	3.8360	-0.8694	25.79	0.04	-0.750			
0.2464	15769.71	3.8330	3.8329	-0.8704	25.80	0.05	-0.750			
0.2490	15936.60	3.8300	3.8300	-0.8686	25.81	0.06	-0.750			
0.2516	16102.86	3.8270	3.8270	-0.8674	25.81	0.06	-0.750			
0.2542	16271.12	3.8240	3.8241	-0.8743	25.82	0.07	-0.750			
0.2569	16438.73	3.8210	3.8210	-0.8777	25.82	0.07	-0.750			
0.2595	16606.86	3.8180	3.8180	-0.8773	25.82	0.07	-0.750			
0.2621	16776.28	3.8150	3.8150	-0.8732	25.82	0.07	-0.750			
0.2647	16943.21	3.8120	3.8120	-0.8698	25.82	0.07	-0.750			
0.2674	17111.53	3.8090	3.8092	-0.8762	25.82	0.07	-0.750			
0.2700	17279.15	3.8060	3.8059	-0.8742	25.82	0.07	-0.750			
0.2726	17446.57	3.8030	3.8029	-0.8677	25.83	0.08	-0.750			
0.2752	17612.76	3.8000	3.8001	-0.8689	25.83	0.08	-0.750			
0.2778	17780.62	3.7970	3.7971	-0.8688	25.84	0.09	-0.750			
0.2804	17947.66	3.7940	3.7940	-0.8679	25.84	0.09	-0.750			
0.2830	18112.98	3.7910	3.7909	-0.8675	25.84	0.09	-0.750			
0.2856	18278.87	3.7880	3.7880	-0.8649	25.84	0.09	-0.750			
0.2882	18446.27	3.7850	3.7850	-0.8665	25.85	0.10	-0.750			
0.2908	18612.83	3.7820	3.7820	-0.8675	25.85	0.10	-0.750			
0.2934	18779.55	3.7790	3.7789	-0.8635	25.85	0.10	-0.750			
0.2960	18945.60	3.7760	3.7759	-0.8651	25.86	0.11	-0.750			
0.2986	19109.93	3.7730	3.7730	-0.8626	25.86	0.11	-0.750			
0.3012	19276.27	3.7700	3.7701	-0.8594	25.86	0.11	-0.750			
0.3038	19442.83	3.7670	3.7669	-0.8627	25.87	0.12	-0.750			
0.3064	19607.01	3.7640	3.7640	-0.8611	25.87	0.12	-0.750			
0.3089	19771.06	3.7610	3.7611	-0.8585	25.88	0.13	-0.750			
0.3115	19937.12	3.7580	3.7579	-0.8566	25.88	0.13	-0.750			
0.3141	20100.64	3.7550	3.7549	-0.8560	25.89	0.14	-0.750			
0.3167	20265.67	3.7520	3.7522	-0.8563	25.89	0.14	-0.750			
0.3192	20430.64	3.7490	3.7490	-0.8584	25.89	0.14	-0.750			
0.3218	20594.37	3.7460	3.7459	-0.8648	25.89	0.14	-0.750			
0.3244	20762.29	3.7430	3.7430	-0.8668	25.89	0.14	-0.750			
0.3270	20928.42	3.7400	3.7399	-0.8708	25.89	0.14	-0.750			
0.3296	21096.49	3.7370	3.7372	-0.8745	25.89	0.14	-0.750			
0.3322	21263.34	3.7340	3.7340	-0.8787	25.89	0.14	-0.750			
0.3349	21433.01	3.7310	3.7310	-0.8842	25.89	0.14	-0.750			
0.3375	21602.65	3.7280	3.7280	-0.8887	25.89	0.14	-0.750			
0.3402	21772.74	3.7250	3.7250	-0.8965	25.89	0.14	-0.750			
0.3429	21946.33	3.7220	3.7220	-0.9074	25.89	0.14	-0.750			
0.3456	22119.51	3.7190	3.7190	-0.9227	25.89	0.14	-0.750			
0.3484	22298.36	3.7160	3.7159	-0.9371	25.90	0.15	-0.750			
0.3512	22479.33	3.7130	3.7130	-0.9465	25.90	0.15	-0.750			
0.3541	22663.60	3.7100	3.7102	-0.9639	25.90	0.15	-0.750			
0.3570	22849.68	3.7070	3.7070	-0.9837	25.90	0.15	-0.750			
0.3600	23040.94	3.7040	3.7039	-0.9956	25.90	0.15	-0.750			
0.3630	23231.35	3.7010	3.7010	-1.0095	25.91	0.16	-0.750			
0.3660	23426.10	3.6980	3.6981	-1.0251	25.91	0.16	-0.750			
0.3691	23624.52	3.6950	3.6951	-1.0584	25.91	0.16	-0.750			
0.3723	23830.20	3.6920	3.6919	-1.0837	25.90	0.15	-0.750			
0.3756	24039.22	3.6890	3.6890	-1.1021	25.90	0.15	-0.750			
0.3789	24252.77	3.6860	3.6860	-1.1300	25.89	0.14	-0.750			
0.3825	24477.79	3.6830	3.6831	-1.1641	25.89	0.14	-0.750			
0.3860	24703.45	3.6800	3.6798	-1.1811	25.89	0.14	-0.750			
0.3895	24931.11	3.6770	3.6770	-1.2028	25.89	0.14	-0.750			
0.3932	25163.10	3.6740	3.6741	-1.2152	25.89	0.14	-0.750			
0.3969	25399.07	3.6710	3.6709	-1.2435	25.88	0.13	-0.750			
0.4006	25639.50	3.6680	3.6679	-1.2654	25.87	0.12	-0.750			
0.4044	25879.76	3.6650	3.6652	-1.2966	25.86	0.11	-0.750			
0.4084	26135.36	3.6620	3.6620	-1.3361	25.86	0.11	-0.750			
0.4124	26396.22	3.6590	3.6589	-1.3672	25.85	0.10	-0.750			
0.4166	26662.89	3.6560	3.6563	-1.4061	25.85	0.10	-0.750			
0.4209	26939.51	3.6530	3.6529	-1.4445	25.85	0.10	-0.750			
0.4253	27219.25	3.6500	3.6500	-1.4641	25.84	0.09	-0.750			
0.4297	27500.28	3.6470	3.6473	-1.4965	25.84	0.09	-0.750			
0.4343	27793.36	3.6440	3.6442	-1.5320	25.83	0.08	-0.750			
0.4389	28089.29	3.6410	3.6408	-1.5636	25.82	0.07	-0.750			
0.4436	28387.35	3.6380	3.6379	-1.6020	25.81	0.06	-0.750			
0.4484	28700.29	3.6350	3.6352	-1.6494	25.80	0.05	-0.750			
0.4535	29022.65	3.6320	3.6321	-1.6707	25.79	0.04	-0.750			
0.4586	29351.95	3.6290	3.6289	-1.7080	25.78	0.03	-0.750			
0.4638	29682.79	3.6260	3.6269	-1.7362	25.77	0.02	-0.750	0.395	0.498	
0.4690	30017.25	3.6230	3.6229	-1.7667	25.77	0.02	-0.750			
0.4743	30355.80	3.6200	3.6201	-1.7998	25.76	0.01	-0.750			
0.4798	30705.82	3.6170	3.6170	-1.8095	25.75	-0.00	-0.750			
0.4853	31056.14	3.6140	3.6141	-1.8447	25.74	-0.01	-0.750			
0.4908	31413.52	3.6110	3.6110	-1.9098	25.73	-0.02	-0.750			
0.4966	31780.27	3.6080	3.6080	-1.9382	25.73	-0.02	-0.750			
0.5025	32160.09	3.6050	3.6049	-1.9795	25.72	-0.03	-0.750			
0.5085	32547.16	3.6020	3.6019	-2.0227	25.72	-0.03	-0.750			
0.5147	32941.53	3.5990	3.5991	-2.0607	25.71	-0.04	-0.750			
0.5210	33343.69	3.5960	3.5961	-2.1111	25.71	-0.04	-0.750			
0.5272	33742.47	3.5930	3.5929	-2.1385	25.70	-0.05	-0.750			
0.5337	34159.98	3.5900	3.5900	-2.1565	25.70	-0.05	-0.750			
0.5404	34584.26	3.5870	3.5870	-2.2048	25.69	-0.06	-0.750			
0.5470	35008.20	3.5840	3.5840	-2.2376	25.69	-0.06	-0.750			
0.5538	35444.27	3.5810	3.5810	-2.2650	25.69	-0.06	-0.750			
0.5606	35880.95	3.5780	3.5781	-2.2858	25.69	-0.06	-0.750			
0.5675	36319.55	3.5750	3.5751	-2.3034	25.69	-0.06	-0.750			
0.5745	36768.81	3.5720	3.5720	-2.3187	25.69	-0.06	-0.750			
0.5815	37217.99	3.5690	3.5689	-2.3484	25.69	-0.06	-0.750			
0.5885	37666.77	3.5660	3.5662	-2.3584	25.68	-0.07	-0.750			
0.5956	38119.43	3.5630	3.5629	-2.3749	25.68	-0.07	-0.750			
0.6028	38580.96	3.5600	3.5599	-2.3898	25.68	-0.07	-0.750			
0.6100	39041.17	3.5570	3.5570	-2.3818	25.68	-0.07	-0.750			
0.6173	39507.24	3.5540	3.5541	-2.3773	25.69	-0.06	-0.750			
0.6244	39958.55	3.5510	3.5510	-2.3528	25.70	-0.05	-0.750			
0.6314	40406.82	3.5480	3.5480	-2.3288	25.70	-0.05	-0.750			
0.6383	40853.12	3.5450	3.5450	-2.3106	25.70	-0.05	-0.750			
0.6453	41300.75	3.5420	3.5421	-2.2827	25.71	-0.04	-0.750			
0.6522	41738.15	3.5390	3.5390	-2.2453	25.72	-0.03	-0.750			
0.6588	42166.37	3.5360	3.5360	-2.2008	25.72	-0.03	-0.750			
0.6654	42586.50	3.5330	3.5330	-2.1603	25.72	-0.03	-0.750			
0.6718	42995.86	3.5300	3.5300	-2.1110	25.73	-0.02	-0.750			
0.6780	43394.79	3.5270	3.5269	-2.0609	25.75	-0.00	-0.750			
0.6842	43789.07	3.5240	3.5240	-2.0205	25.76	0.01	-0.750			
0.6903	44177.43	3.5210	3.5211	-1.9597	25.77	0.02	-0.750			
0.6960	44546.32	3.5180	3.5180	-1.8978	25.78	0.03	-0.750			
0.7017	44906.65	3.5150	3.5149	-1.8325	25.79	0.04	-0.750			
0.7070	45249.81	3.5120	3.5118	-1.7674	25.81	0.06	-0.750			
0.7122	45577.81	3.5090	3.5091	-1.7192	25.82	0.07	-0.750			
0.7173	45906.02	3.5060	3.5061	-1.6603	25.83	0.08	-0.750			
0.7223	46224.23	3.5030	3.5030	-1.6091	25.85	0.10	-0.750			
0.7270	46530.85	3.5000	3.5000	-1.5523	25.86	0.11	-0.750			
0.7316	46819.60	3.4970	3.4970	-1.4905	25.88	0.13	-0.750			
0.7360	47101.43	3.4940	3.4940	-1.4353	25.90	0.15	-0.750			
0.7401	47367.37	3.4910	3.4910	-1.3869	25.92	0.17	-0.750			
0.7442	47626.35	3.4880	3.4880	-1.3392	25.94	0.19	-0.750			
0.7482	47881.71	3.4850	3.4850	-1.3035	25.95	0.20	-0.750			
0.7520	48128.35	3.4820	3.4820	-1.2583	25.96	0.21	-0.750			
0.7557	48366.60	3.4790	3.4790	-1.2229	25.98	0.23	-0.750			
0.7593	48598.22	3.4760	3.4760	-1.1756	25.99	0.24	-0.750			
0.7628	48820.08	3.4730	3.4729	-1.1320	26.01	0.26	-0.750			
0.7661	49030.98	3.4700	3.4700	-1.0871	26.03	0.28	-0.750			
0.7693	49235.81	3.4670	3.4669	-1.0570	26.04	0.29	-0.750			
0.7724	49432.68	3.4640	3.4639	-1.0191	26.05	0.30	-0.750			
0.7754	49624.58	3.4610	3.4610	-0.9912	26.06	0.31	-0.750			
0.7783	49809.66	3.4580	3.4581	-0.9634	26.07	0.32	-0.750			
0.7812	49993.68	3.4550	3.4550	-0.9599	26.08	0.33	-0.750			
0.7840	50175.55	3.4520	3.4520	-0.9445	26.09	0.34	-0.750			
0.7868	50352.00	3.4490	3.4489	-0.9378	26.10	0.35	-0.750			
0.7895	50529.84	3.4460	3.4459	-0.9450	26.11	0.36	-0.750			
0.7923	50710.24	3.4430	3.4432	-0.9687	26.12	0.37	-0.750			
0.7953	50897.02	3.4400	3.4399	-1.0014	26.13	0.38	-0.750			
0.7983	51090.72	3.4370	3.4369	-1.0347	26.14	0.39	-0.750			
0.8014	51292.46	3.4340	3.4340	-1.0744	26.15	0.40	-0.750			
0.8048	51505.25	3.4310	3.4312	-1.1193	26.16	0.41	-0.750			
0.8082	51725.88	3.4280	3.4279	-1.1447	26.17	0.42	-0.750			
0.8118	51952.11	3.4250	3.4250	-1.1605	26.18	0.43	-0.750			
0.8153	52178.31	3.4220	3.4220	-1.1598	26.19	0.44	-0.750			
0.8189	52407.74	3.4190	3.4190	-1.1565	26.19	0.44	-0.750			
0.8224	52630.40	3.4160	3.4159	-1.1264	26.20	0.45	-0.750			
0.8257	52845.88	3.4130	3.4130	-1.0916	26.21	0.46	-0.750			
0.8289	53050.70	3.4100	3.4102	-1.0532	26.22	0.47	-0.750			
0.8320	53249.18	3.4070	3.4069	-1.0216	26.23	0.48	-0.750			
0.8350	53442.10	3.4040	3.4039	-0.9805	26.23	0.48	-0.750			
0.8379	53625.45	3.4010	3.4010	-0.9403	26.24	0.49	-0.750			
0.8407	53802.62	3.3980	3.3981	-0.9037	26.25	0.50	-0.750			
0.8434	53975.76	3.3950	3.3950	-0.8705	26.25	0.50	-0.750			
0.8459	54136.98	3.3920	3.3919	-0.8377	26.26	0.51	-0.750			
0.8483	54292.60	3.3890	3.3890	-0.8000	26.27	0.52	-0.750			
0.8507	54442.88	3.3860	3.3860	-0.7691	26.28	0.53	-0.750			
0.8530	54589.37	3.3830	3.3831	-0.7413	26.29	0.54	-0.750			
0.8551	54728.73	3.3800	3.3800	-0.7123	26.29	0.54	-0.750			
0.8572	54861.64	3.3770	3.3770	-0.6850	26.30	0.55	-0.750			
0.8592	54989.56	3.3740	3.3739	-0.6566	26.31	0.56	-0.750			
0.8611	55112.28	3.3710	3.3710	-0.6307	26.32	0.57	-0.750			
0.8630	55232.55	3.3680	3.3680	-0.6078	26.32	0.57	-0.750			
0.8648	55347.04	3.3650	3.3650	-0.5842	26.33	0.58	-0.750			
0.8665	55456.73	3.3620	3.3620	-0.5602	26.34	0.59	-0.750			
0.8681	55560.98	3.3590	3.3590	-0.5346	26.34	0.59	-0.750			
0.8697	55661.47	3.3560	3.3560	-0.5117	26.35	0.60	-0.750			
0.8712	55757.20	3.3530	3.3530	-0.4905	26.35	0.60	-0.750			
0.8726	55848.83	3.3500	3.3500	-0.4705	26.35	0.60	-0.750			
0.8740	55937.30	3.3470	3.3470	-0.4517	26.36	0.61	-0.750			
0.8753	56021.59	3.3440	3.3440	-0.4319	26.36	0.61	-0.750			
0.8766	56102.40	3.3410	3.3410	-0.4147	26.36	0.61	-0.750			
0.8778	56180.78	3.3380	3.3380	-0.3983	26.37	0.62	-0.750			
0.8790	56255.72	3.3350	3.3350	-0.3824	26.37	0.62	-0.750			
0.8801	56327.21	3.3320	3.3320	-0.3659	26.37	0.62	-0.750			
0.8812	56395.64	3.3290	3.3290	-0.3504	26.38	0.63	-0.750			
0.8822	56461.67	3.3260	3.3259	-0.3367	26.39	0.64	-0.750			
0.8832	56524.34	3.3230	3.3230	-0.3226	26.39	0.64	-0.750			
0.8841	56584.58	3.3200	3.3200	-0.3098	26.40	0.65	-0.750			
0.8850	56642.78	3.3170	3.3170	-0.2993	26.40	0.65	-0.750			
0.8859	56699.05	3.3140	3.3139	-0.2881	26.41	0.66	-0.750			
0.8868	56753.24	3.3110	3.3110	-0.2791	26.41	0.66	-0.750			
0.8876	56805.83	3.3080	3.3080	-0.2695	26.42	0.67	-0.750			
0.8884	56856.81	3.3050	3.3050	-0.2609	26.42	0.67	-0.750			
0.8892	56905.92	3.3020	3.3019	-0.2522	26.42	0.67	-0.750			
0.8899	56953.60	3.2990	3.2991	-0.2439	26.43	0.68	-0.750			
0.8906	56999.45	3.2960	3.2960	-0.2368	26.43	0.68	-0.750			
0.8913	57044.02	3.2930	3.2930	-0.2286	26.44	0.69	-0.750			
0.8920	57087.34	3.2900	3.2900	-0.2214	26.44	0.69	-0.750			
0.8926	57128.44	3.2870	3.2870	-0.2156	26.45	0.70	-0.750			
0.8933	57169.36	3.2840	3.2841	-0.2102	26.45	0.70	-0.750			
0.8939	57208.96	3.2810	3.2809	-0.2047	26.45	0.70	-0.750			
0.8945	57247.80	3.2780	3.2780	-0.1999	26.46	0.71	-0.750			
0.8951	57285.77	3.2750	3.2751	-0.1950	26.46	0.71	-0.750			
0.8957	57322.55	3.2720	3.2720	-0.1902	26.46	0.71	-0.750			
0.8962	57358.83	3.2690	3.2689	-0.1865	26.47	0.72	-0.750			
0.8968	57394.18	3.2660	3.2661	-0.1817	26.47	0.72	-0.750			
0.8973	57428.03	3.2630	3.2630	-0.1776	26.47	0.72	-0.750			
0.8978	57461.80	3.2600	3.2599	-0.1746	26.48	0.73	-0.750			
0.8984	57494.93	3.2570	3.2570	-0.1709	26.48	0.73	-0.750			
0.8989	57527.46	3.2540	3.2540	-0.1679	26.48	0.73	-0.750			
0.8994	57559.47	3.2510	3.2510	-0.1650	26.49	0.74	-0.750			
0.8999	57590.82	3.2480	3.2480	-0.1620	26.49	0.74	-0.750			
0.9003	57621.52	3.2450	3.2451	-0.1592	26.49	0.74	-0.750			
0.9008	57651.82	3.2420	3.2419	-0.1565	26.50	0.75	-0.750			
0.9013	57681.36	3.2390	3.2390	-0.1541	26.50	0.75	-0.750			
0.9017	57710.74	3.2360	3.2359	-0.1516	26.50	0.75	-0.750			
0.9022	57739.73	3.2330	3.2330	-0.1495	26.51	0.76	-0.750			
0.9026	57768.17	3.2300	3.2300	-0.1475	26.51	0.76	-0.750			
0.9031	57796.39	3.2270	3.2270	-0.1449	26.51	0.76	-0.750			
0.9035	57823.85	3.2240	3.2239	-0.1431	26.51	0.76	-0.750			
0.9039	57851.13	3.2210	3.2209	-0.1409	26.52	0.77	-0.750			
0.9043	57877.90	3.2180	3.2183	-0.1387	26.52	0.77	-0.750			
0.9048	57904.13	3.2150	3.2149	-0.1373	26.52	0.77	-0.750			
0.9052	57930.36	3.2120	3.2121	-0.1359	26.53	0.78	-0.750			
0.9056	57956.33	3.2090	3.2090	-0.1342	26.53	0.78	-0.750			
0.9060	57981.98	3.2060	3.2059	-0.1329	26.54	0.79	-0.750			
0.9064	58007.60	3.2030	3.2030	-0.1315	26.54	0.79	-0.750			
0.9068	58032.59	3.2000	3.2001	-0.1296	26.55	0.80	-0.750			
0.9071	58057.45	3.1970	3.1970	-0.1284	26.55	0.80	-0.750			
0.9075	58081.92	3.1940	3.1939	-0.1265	26.56	0.81	-0.750			
0.9079	58105.75	3.1910	3.1911	-0.1250	26.56	0.81	-0.750			
0.9083	58129.56	3.1880	3.1879	-0.1238	26.56	0.81	-0.750			
0.9086	58153.23	3.1850	3.1850	-0.1228	26.57	0.82	-0.750			
0.9090	58176.68	3.1820	3.1820	-0.1218	26.57	0.82	-0.750			
0.9094	58200.02	3.1790	3.1790	-0.1206	26.58	0.83	-0.750			
0.9097	58223.07	3.1760	3.1760	-0.1194	26.58	0.83	-0.750			
0.9101	58245.89	3.1730	3.1732	-0.1185	26.59	0.84	-0.750			
0.9104	58268.55	3.1700	3.1698	-0.1175	26.59	0.84	-0.750			
0.9108	58290.96	3.1670	3.1670	-0.1163	26.59	0.84	-0.750			
0.9111	58313.19	3.1640	3.1638	-0.1153	26.60	0.85	-0.750			
0.9115	58335.07	3.1610	3.1611	-0.1146	26.60	0.85	-0.750			
0.9118	58357.01	3.1580	3.1580	-0.1140	26.61	0.86	-0.750			
0.9122	58379.00	3.1550	3.1549	-0.1129	26.61	0.86	-0.750			
0.9125	58400.57	3.1520	3.1520	-0.1118	26.61	0.86	-0.750			
0.9128	58421.97	3.1490	3.1491	-0.1107	26.62	0.87	-0.750			
0.9132	58443.12	3.1460	3.1460	-0.1095	26.62	0.87	-0.750			
0.9135	58464.01	3.1430	3.1430	-0.1088	26.62	0.87	-0.750			
0.9138	58484.79	3.1400	3.1400	-0.1077	26.63	0.88	-0.750			
0.9141	58505.12	3.1370	3.1371	-0.1064	26.63	0.88	-0.750			
0.9145	58525.49	3.1340	3.1339	-0.1058	26.63	0.88	-0.750			
0.9148	58545.74	3.1310	3.1311	-0.1054	26.64	0.89	-0.750			
0.9151	58565.96	3.1280	3.1279	-0.1049	26.64	0.89	-0.750			
0.9154	58585.98	3.1250	3.1249	-0.1048	26.64	0.89	-0.750			
0.9157	58605.95	3.1220	3.1221	-0.1044	26.65	0.90	-0.750			
0.9160	58626.15	3.1190	3.1189	-0.1031	26.65	0.90	-0.750			
0.9163	58646.00	3.1160	3.1160	-0.1025	26.65	0.90	-0.750			
0.9166	58665.59	3.1130	3.1131	-0.1015	26.66	0.91	-0.750			
0.9170	58685.20	3.1100	3.1101	-0.1007	26.66	0.91	-0.750			
0.9173	58704.37	3.1070	3.1069	-0.0997	26.67	0.92	-0.750			
0.9176	58723.37	3.1040	3.1040	-0.0985	26.67	0.92	-0.750			
0.9178	58741.74	3.1010	3.1010	-0.0976	26.67	0.92	-0.750			
0.9181	58760.47	3.0980	3.0981	-0.0976	26.68	0.93	-0.750			
0.9184	58779.32	3.0950	3.0948	-0.0974	26.68	0.93	-0.750			
0.9187	58797.99	3.0920	3.0920	-0.0971	26.69	0.94	-0.750			
0.9190	58816.68	3.0890	3.0889	-0.0965	26.69	0.94	-0.750			
0.9193	58835.15	3.0860	3.0861	-0.0959	26.70	0.95	-0.750			
0.9196	58853.58	3.0830	3.0830	-0.0959	26.70	0.95	-0.750			
0.9199	58871.94	3.0800	3.0800	-0.0953	26.70	0.95	-0.750			
0.9202	58890.07	3.0770	3.0769	-0.0945	26.71	0.96	-0.750			
0.9204	58908.17	3.0740	3.0740	-0.0941	26.71	0.96	-0.750			
0.9207	58926.27	3.0710	3.0712	-0.0933	26.72	0.97	-0.750			
0.9210	58944.22	3.0680	3.0680	-0.0927	26.72	0.97	-0.750			
0.9213	58961.90	3.0650	3.0650	-0.0924	26.72	0.97	-0.750			
0.9216	58979.66	3.0620	3.0620	-0.0918	26.73	0.98	-0.750			
0.9218	58997.20	3.0590	3.0589	-0.0913	26.73	0.98	-0.750			
0.9221	59014.50	3.0560	3.0560	-0.0907	26.74	0.99	-0.750			
0.9224	59031.91	3.0530	3.0530	-0.0901	26.74	0.99	-0.750			
0.9226	59049.20	3.0500	3.0501	-0.0897	26.74	0.99	-0.750			
0.9229	59066.37	3.0470	3.0470	-0.0893	26.75	1.00	-0.750			
0.9232	59083.58	3.0440	3.0440	-0.0890	26.75	1.00	-0.750			
0.9234	59100.58	3.0410	3.0410	-0.0885	26.76	1.01	-0.750			
0.9237	59117.43	3.0380	3.0380	-0.0880	26.76	1.01	-0.750			
0.9240	59134.31	3.0350	3.0350	-0.0875	26.76	1.01	-0.750			
0.9242	59151.09	3.0320	3.0319	-0.0872	26.77	1.02	-0.750			
0.9245	59167.78	3.0290	3.0290	-0.0868	26.77	1.02	-0.750			
0.9248	59184.43	3.0260	3.0261	-0.0864	26.78	1.03	-0.750			
0.9250	59201.14	3.0230	3.0229	-0.0855	26.78	1.03	-0.750			
0.9253	59217.58	3.0200	3.0199	-0.0849	26.78	1.03	-0.750			
0.9255	59233.79	3.0170	3.0170	-0.0840	26.79	1.04	-0.750			
0.9258	59249.96	3.0140	3.0140	-0.0831	26.79	1.04	-0.750			
0.9260	59265.80	3.0110	3.0112	-0.0819	26.79	1.04	-0.750			
0.9263	59281.51	3.0080	3.0080	-0.0807	26.80	1.05	-0.751			
0.9265	59296.87	3.0050	3.0049	-0.0793	26.80	1.05	-0.751			
0.9268	59312.02	3.0020	3.0020	-0.0797	26.80	1.05	-0.751			
