Ah_balance (normalized)	Ah_balance (mAh)	Voltage - fit (V)	Voltage -  interpolate (V)	dQ/dV (1/V)	Temperature (°C)	Temperature - diff (°C)	Current (C)	R_DC 0ms (mOhm)	R_DC 50ms (mOhm)	R_DC 50 ms PEC (mOhm)
0.0005	35.05	4.1580	4.1577	-0.1469	25.80	0.03	-0.750			
0.0010	65.92	4.1550	4.1550	-0.1820	25.80	0.03	-0.750			
0.0016	105.08	4.1520	4.1519	-0.2192	25.79	0.02	-0.750			
0.0024	150.62	4.1490	4.1490	-0.2556	25.79	0.02	-0.750			
0.0032	203.33	4.1460	4.1459	-0.2908	25.79	0.02	-0.750			
0.0041	263.13	4.1430	4.1431	-0.3236	25.79	0.02	-0.750			
0.0051	328.81	4.1400	4.1400	-0.3574	25.79	0.02	-0.750			
0.0063	401.07	4.1370	4.1370	-0.3866	25.78	0.01	-0.750			
0.0075	478.04	4.1340	4.1339	-0.4192	25.78	0.01	-0.750			
0.0088	562.64	4.1310	4.1310	-0.4469	25.78	0.01	-0.750			
0.0102	652.31	4.1280	4.1279	-0.4685	25.77	0.00	-0.750			
0.0116	745.50	4.1250	4.1252	-0.4916	25.77	0.00	-0.750			
0.0132	842.56	4.1220	4.1220	-0.5097	25.77	-0.00	-0.750			
0.0147	941.90	4.1190	4.1189	-0.5275	25.76	-0.01	-0.750			
0.0163	1044.51	4.1160	4.1160	-0.5461	25.76	-0.01	-0.750			
0.0180	1149.82	4.1130	4.1131	-0.5585	25.76	-0.01	-0.750			
0.0197	1261.38	4.1100	4.1099	-0.5770	25.75	-0.02	-0.750			
0.0215	1374.34	4.1070	4.1070	-0.5871	25.75	-0.02	-0.750			
0.0233	1488.15	4.1040	4.1041	-0.5975	25.74	-0.03	-0.750			
0.0251	1603.98	4.1010	4.1009	-0.6073	25.74	-0.03	-0.750			
0.0269	1721.29	4.0980	4.0981	-0.6140	25.74	-0.03	-0.750			
0.0287	1839.98	4.0950	4.0949	-0.6225	25.73	-0.04	-0.750			
0.0306	1961.02	4.0920	4.0920	-0.6341	25.73	-0.04	-0.750			
0.0326	2083.73	4.0890	4.0890	-0.6399	25.73	-0.04	-0.750			
0.0345	2207.95	4.0860	4.0860	-0.6432	25.72	-0.05	-0.750			
0.0364	2331.97	4.0830	4.0831	-0.6487	25.72	-0.05	-0.750			
0.0384	2456.78	4.0800	4.0800	-0.6529	25.72	-0.05	-0.750			
0.0403	2581.84	4.0770	4.0769	-0.6587	25.72	-0.05	-0.750			
0.0423	2707.53	4.0740	4.0740	-0.6668	25.72	-0.05	-0.750			
0.0443	2836.09	4.0710	4.0710	-0.6712	25.71	-0.06	-0.750			
0.0464	2968.79	4.0680	4.0680	-0.6778	25.71	-0.06	-0.750			
0.0484	3099.74	4.0650	4.0649	-0.6788	25.71	-0.06	-0.750			
0.0505	3230.40	4.0620	4.0621	-0.6774	25.71	-0.06	-0.750			
0.0525	3359.37	4.0590	4.0590	-0.6814	25.71	-0.06	-0.750			
0.0545	3486.54	4.0560	4.0560	-0.6847	25.71	-0.06	-0.750			
0.0565	3618.49	4.0530	4.0530	-0.6858	25.70	-0.07	-0.750			
0.0586	3752.89	4.0500	4.0498	-0.6975	25.70	-0.07	-0.750			
0.0608	3889.49	4.0470	4.0471	-0.7030	25.70	-0.07	-0.750			
0.0629	4025.33	4.0440	4.0440	-0.7031	25.70	-0.07	-0.750			
0.0650	4161.34	4.0410	4.0410	-0.7054	25.70	-0.07	-0.750			
0.0671	4295.44	4.0380	4.0380	-0.7089	25.70	-0.07	-0.750			
0.0692	4431.39	4.0350	4.0350	-0.7047	25.71	-0.06	-0.750			
0.0714	4569.06	4.0320	4.0320	-0.7017	25.71	-0.06	-0.750			
0.0735	4703.31	4.0290	4.0290	-0.6988	25.71	-0.06	-0.750			
0.0756	4836.91	4.0260	4.0260	-0.6970	25.71	-0.06	-0.750			
0.0776	4968.58	4.0230	4.0229	-0.6977	25.71	-0.06	-0.750			
0.0797	5100.63	4.0200	4.0199	-0.7009	25.71	-0.06	-0.750			
0.0818	5233.65	4.0170	4.0171	-0.7008	25.72	-0.05	-0.750			
0.0839	5372.77	4.0140	4.0140	-0.7174	25.72	-0.05	-0.750			
0.0861	5510.65	4.0110	4.0109	-0.7238	25.72	-0.05	-0.750			
0.0883	5650.00	4.0080	4.0079	-0.7269	25.72	-0.05	-0.750			
0.0905	5790.76	4.0050	4.0049	-0.7231	25.72	-0.05	-0.750			
0.0927	5930.57	4.0020	4.0020	-0.7273	25.72	-0.05	-0.750			
0.0949	6070.53	3.9990	3.9991	-0.7296	25.72	-0.05	-0.750			
0.0970	6210.34	3.9960	3.9958	-0.7334	25.72	-0.05	-0.750			
0.0992	6351.18	3.9930	3.9933	-0.7320	25.72	-0.05	-0.750			
0.1014	6491.58	3.9900	3.9899	-0.7310	25.72	-0.05	-0.750			
0.1036	6632.90	3.9870	3.9871	-0.7352	25.73	-0.04	-0.750			
0.1059	6774.51	3.9840	3.9840	-0.7427	25.74	-0.03	-0.750			
0.1081	6915.96	3.9810	3.9809	-0.7381	25.74	-0.03	-0.750			
0.1103	7059.63	3.9780	3.9779	-0.7412	25.75	-0.02	-0.750			
0.1125	7201.95	3.9750	3.9752	-0.7437	25.75	-0.02	-0.750			
0.1148	7346.69	3.9720	3.9720	-0.7466	25.75	-0.02	-0.750			
0.1170	7489.32	3.9690	3.9689	-0.7514	25.75	-0.02	-0.750			
0.1192	7631.53	3.9660	3.9660	-0.7487	25.75	-0.02	-0.750			
0.1215	7778.06	3.9630	3.9630	-0.7547	25.75	-0.02	-0.750			
0.1238	7924.26	3.9600	3.9599	-0.7531	25.75	-0.02	-0.750			
0.1261	8068.57	3.9570	3.9570	-0.7557	25.75	-0.02	-0.750			
0.1283	8213.00	3.9540	3.9540	-0.7583	25.76	-0.01	-0.750			
0.1306	8357.51	3.9510	3.9510	-0.7608	25.76	-0.01	-0.750			
0.1329	8502.66	3.9480	3.9480	-0.7549	25.76	-0.01	-0.750			
0.1352	8650.55	3.9450	3.9450	-0.7626	25.77	-0.00	-0.750			
0.1374	8796.61	3.9420	3.9422	-0.7691	25.77	0.00	-0.750			
0.1398	8945.98	3.9390	3.9388	-0.7689	25.77	0.00	-0.750			
0.1421	9091.64	3.9360	3.9360	-0.7734	25.77	0.00	-0.750			
0.1444	9239.95	3.9330	3.9331	-0.7799	25.78	0.01	-0.750			
0.1468	9392.62	3.9300	3.9299	-0.7820	25.78	0.01	-0.750			
0.1491	9544.74	3.9270	3.9269	-0.7813	25.78	0.01	-0.750			
0.1515	9693.16	3.9240	3.9241	-0.7808	25.78	0.01	-0.750			
0.1538	9842.43	3.9210	3.9209	-0.7812	25.79	0.02	-0.750			
0.1562	9993.95	3.9180	3.9179	-0.7819	25.79	0.02	-0.750			
0.1585	10141.96	3.9150	3.9150	-0.7763	25.79	0.02	-0.750			
0.1608	10291.09	3.9120	3.9120	-0.7809	25.80	0.03	-0.750			
0.1632	10442.39	3.9090	3.9091	-0.7842	25.80	0.03	-0.750			
0.1655	10591.65	3.9060	3.9059	-0.7885	25.80	0.03	-0.750			
0.1678	10742.02	3.9030	3.9030	-0.7943	25.80	0.03	-0.750			
0.1703	10896.30	3.9000	3.9000	-0.7964	25.81	0.04	-0.750			
0.1727	11051.12	3.8970	3.8969	-0.7976	25.81	0.04	-0.750			
0.1751	11205.34	3.8940	3.8941	-0.8004	25.81	0.04	-0.750			
0.1775	11358.73	3.8910	3.8911	-0.7958	25.81	0.04	-0.750			
0.1799	11511.30	3.8880	3.8879	-0.7969	25.81	0.04	-0.750			
0.1822	11662.87	3.8850	3.8849	-0.7968	25.82	0.05	-0.750			
0.1846	11815.55	3.8820	3.8820	-0.7946	25.82	0.05	-0.750			
0.1870	11969.06	3.8790	3.8791	-0.7970	25.82	0.05	-0.750			
0.1894	12123.45	3.8760	3.8760	-0.7993	25.83	0.06	-0.750			
0.1918	12275.54	3.8730	3.8731	-0.8054	25.83	0.06	-0.750			
0.1942	12430.56	3.8700	3.8699	-0.8087	25.84	0.07	-0.750			
0.1967	12587.52	3.8670	3.8670	-0.8076	25.84	0.07	-0.750			
0.1991	12742.29	3.8640	3.8642	-0.8073	25.85	0.08	-0.750			
0.2015	12898.03	3.8610	3.8610	-0.8053	25.85	0.08	-0.750			
0.2039	13052.07	3.8580	3.8580	-0.8060	25.86	0.09	-0.750			
0.2063	13206.05	3.8550	3.8549	-0.8038	25.86	0.09	-0.750			
0.2087	13359.15	3.8520	3.8520	-0.7959	25.86	0.09	-0.750			
0.2112	13513.88	3.8490	3.8490	-0.7991	25.87	0.10	-0.750			
0.2135	13666.69	3.8460	3.8461	-0.8004	25.87	0.10	-0.750			
0.2159	13818.99	3.8430	3.8429	-0.8015	25.87	0.10	-0.750			
0.2183	13973.63	3.8400	3.8400	-0.8026	25.88	0.11	-0.750			
0.2207	14126.04	3.8370	3.8370	-0.8041	25.88	0.11	-0.750			
0.2232	14283.83	3.8340	3.8340	-0.8062	25.88	0.11	-0.750			
0.2256	14439.99	3.8310	3.8309	-0.8035	25.88	0.11	-0.750			
0.2280	14590.83	3.8280	3.8281	-0.8058	25.89	0.12	-0.750			
0.2304	14747.06	3.8250	3.8250	-0.7995	25.89	0.12	-0.750			
0.2328	14900.40	3.8220	3.8219	-0.7934	25.90	0.13	-0.750			
0.2352	15053.08	3.8190	3.8189	-0.7899	25.91	0.14	-0.750			
0.2376	15203.42	3.8160	3.8162	-0.7847	25.91	0.14	-0.750			
0.2399	15353.51	3.8130	3.8130	-0.7869	25.91	0.14	-0.750			
0.2422	15502.69	3.8100	3.8099	-0.7825	25.91	0.14	-0.750			
0.2445	15650.24	3.8070	3.8070	-0.7777	25.92	0.15	-0.750			
0.2469	15804.13	3.8040	3.8040	-0.7852	25.92	0.15	-0.750			
0.2493	15955.78	3.8010	3.8010	-0.7833	25.92	0.15	-0.750			
0.2516	16105.42	3.7980	3.7980	-0.7764	25.92	0.15	-0.750			
0.2540	16253.10	3.7950	3.7950	-0.7689	25.93	0.16	-0.750			
0.2562	16399.61	3.7920	3.7920	-0.7641	25.93	0.16	-0.750			
0.2585	16545.93	3.7890	3.7888	-0.7614	25.93	0.16	-0.750			
0.2608	16691.55	3.7860	3.7861	-0.7581	25.94	0.17	-0.750			
0.2631	16836.36	3.7830	3.7831	-0.7557	25.94	0.17	-0.750			
0.2653	16981.10	3.7800	3.7800	-0.7549	25.94	0.17	-0.750			
0.2676	17126.63	3.7770	3.7769	-0.7531	25.94	0.17	-0.750			
0.2698	17270.02	3.7740	3.7741	-0.7486	25.95	0.18	-0.750			
0.2721	17413.73	3.7710	3.7709	-0.7448	25.95	0.18	-0.750			
0.2743	17556.83	3.7680	3.7683	-0.7437	25.95	0.18	-0.750			
0.2765	17698.81	3.7650	3.7649	-0.7442	25.95	0.18	-0.750			
0.2788	17840.24	3.7620	3.7621	-0.7445	25.96	0.19	-0.750			
0.2810	17983.79	3.7590	3.7590	-0.7459	25.96	0.19	-0.750			
0.2832	18127.10	3.7560	3.7559	-0.7491	25.96	0.19	-0.750			
0.2855	18271.60	3.7530	3.7530	-0.7502	25.97	0.20	-0.750			
0.2877	18414.97	3.7500	3.7500	-0.7570	25.97	0.20	-0.750			
0.2900	18560.37	3.7470	3.7470	-0.7585	25.97	0.20	-0.750			
0.2923	18705.26	3.7440	3.7439	-0.7649	25.98	0.21	-0.750			
0.2946	18852.97	3.7410	3.7411	-0.7747	25.98	0.21	-0.750			
0.2969	19003.60	3.7380	3.7380	-0.7826	25.99	0.22	-0.750			
0.2993	19154.04	3.7350	3.7349	-0.7916	25.99	0.22	-0.750			
0.3017	19307.09	3.7320	3.7320	-0.8016	25.99	0.22	-0.750			
0.3041	19461.10	3.7290	3.7291	-0.8147	25.99	0.22	-0.750			
0.3066	19620.24	3.7260	3.7259	-0.8242	25.99	0.22	-0.750			
0.3090	19778.72	3.7230	3.7230	-0.8370	25.99	0.22	-0.750			
0.3116	19940.69	3.7200	3.7202	-0.8465	25.99	0.22	-0.750			
0.3141	20103.36	3.7170	3.7169	-0.8601	25.99	0.22	-0.750			
0.3167	20269.33	3.7140	3.7140	-0.8708	25.99	0.22	-0.750			
0.3193	20437.28	3.7110	3.7110	-0.8874	25.99	0.22	-0.750			
0.3220	20607.25	3.7080	3.7080	-0.9033	25.99	0.22	-0.750			
0.3248	20785.47	3.7050	3.7052	-0.9240	25.99	0.22	-0.750			
0.3276	20963.45	3.7020	3.7020	-0.9388	25.99	0.22	-0.750			
0.3304	21145.97	3.6990	3.6990	-0.9586	25.99	0.22	-0.750			
0.3333	21331.11	3.6960	3.6961	-0.9739	25.99	0.22	-0.750			
0.3362	21519.25	3.6930	3.6930	-0.9935	25.99	0.22	-0.750			
0.3392	21711.14	3.6900	3.6900	-1.0139	25.99	0.22	-0.750			
0.3423	21908.64	3.6870	3.6869	-1.0305	25.99	0.22	-0.750			
0.3455	22109.03	3.6840	3.6840	-1.0478	25.98	0.21	-0.750			
0.3486	22311.45	3.6810	3.6810	-1.0705	25.98	0.21	-0.750			
0.3519	22519.39	3.6780	3.6779	-1.0928	25.97	0.20	-0.750			
0.3552	22732.49	3.6750	3.6749	-1.1111	25.97	0.20	-0.750			
0.3585	22946.22	3.6720	3.6720	-1.1267	25.96	0.19	-0.750			
0.3619	23163.26	3.6690	3.6692	-1.1522	25.95	0.18	-0.750			
0.3655	23390.37	3.6660	3.6659	-1.1746	25.95	0.18	-0.750			
0.3690	23616.25	3.6630	3.6629	-1.1917	25.95	0.18	-0.750			
0.3725	23841.68	3.6600	3.6600	-1.2214	25.95	0.18	-0.750			
0.3763	24082.72	3.6570	3.6570	-1.2512	25.95	0.18	-0.750			
0.3801	24326.07	3.6540	3.6539	-1.2713	25.94	0.17	-0.750			
0.3840	24572.88	3.6510	3.6509	-1.2945	25.93	0.16	-0.750			
0.3878	24821.83	3.6480	3.6482	-1.3175	25.93	0.16	-0.750			
0.3919	25079.97	3.6450	3.6450	-1.3461	25.92	0.15	-0.750			
0.3959	25338.65	3.6420	3.6419	-1.3685	25.92	0.15	-0.750			
0.4000	25602.31	3.6390	3.6390	-1.3907	25.91	0.14	-0.750			
0.4043	25877.67	3.6360	3.6360	-1.4257	25.90	0.13	-0.750			
0.4086	26152.24	3.6330	3.6330	-1.4509	25.90	0.13	-0.750			
0.4130	26431.47	3.6300	3.6301	-1.4781	25.89	0.12	-0.750			
0.4175	26718.38	3.6270	3.6270	-1.5016	25.89	0.12	-0.750			
0.4220	27009.48	3.6240	3.6238	-1.5438	25.88	0.11	-0.750			
0.4267	27309.53	3.6210	3.6209	-1.5708	25.87	0.10	-0.750			
0.4315	27618.22	3.6180	3.6180	-1.6169	25.86	0.09	-0.750			
0.4364	27928.96	3.6150	3.6152	-1.6454	25.85	0.08	-0.750	0.401	0.543	
0.4414	28248.67	3.6120	3.6120	-1.6533	25.85	0.08	-0.750			
0.4464	28568.33	3.6090	3.6089	-1.7035	25.84	0.07	-0.750			
0.4515	28896.54	3.6060	3.6058	-1.7304	25.84	0.07	-0.750			
0.4567	29229.95	3.6030	3.6031	-1.7628	25.83	0.06	-0.750			
0.4621	29576.01	3.6000	3.6001	-1.7957	25.82	0.05	-0.750			
0.4675	29922.69	3.5970	3.5969	-1.8471	25.82	0.05	-0.750			
0.4731	30279.78	3.5940	3.5938	-1.8605	25.81	0.04	-0.750			
0.4788	30646.27	3.5910	3.5911	-1.9082	25.81	0.04	-0.750			
0.4846	31011.99	3.5880	3.5879	-1.9366	25.81	0.04	-0.750			
0.4904	31386.16	3.5850	3.5852	-1.9753	25.80	0.03	-0.750			
0.4964	31770.25	3.5820	3.5819	-2.0242	25.79	0.02	-0.750			
0.5025	32163.17	3.5790	3.5789	-2.0461	25.79	0.02	-0.750			
0.5088	32560.74	3.5760	3.5762	-2.0685	25.79	0.02	-0.750			
0.5151	32967.89	3.5730	3.5732	-2.1195	25.79	0.02	-0.750			
0.5214	33371.80	3.5700	3.5699	-2.1309	25.79	0.02	-0.750			
0.5279	33783.95	3.5670	3.5669	-2.1446	25.79	0.02	-0.750			
0.5344	34199.68	3.5640	3.5641	-2.1520	25.78	0.01	-0.750			
0.5409	34617.63	3.5610	3.5610	-2.1564	25.78	0.01	-0.750			
0.5474	35032.84	3.5580	3.5580	-2.1641	25.79	0.02	-0.750			
0.5538	35441.28	3.5550	3.5549	-2.1824	25.78	0.01	-0.750			
0.5602	35855.95	3.5520	3.5520	-2.2268	25.77	0.00	-0.750			
0.5672	36297.99	3.5490	3.5489	-2.2233	25.78	0.01	-0.750			
0.5740	36734.28	3.5460	3.5462	-2.1978	25.79	0.02	-0.750			
0.5806	37158.65	3.5430	3.5432	-2.1921	25.79	0.02	-0.750			
0.5871	37572.98	3.5400	3.5400	-2.1551	25.79	0.02	-0.750			
0.5934	37979.09	3.5370	3.5371	-2.1039	25.80	0.03	-0.750			
0.5995	38371.14	3.5340	3.5339	-2.0830	25.80	0.03	-0.750			
0.6059	38775.88	3.5310	3.5308	-2.0591	25.81	0.04	-0.750			
0.6122	39178.87	3.5280	3.5282	-2.0286	25.81	0.04	-0.750			
0.6183	39570.15	3.5250	3.5251	-1.9746	25.81	0.04	-0.750			
0.6240	39936.23	3.5220	3.5218	-1.8988	25.81	0.04	-0.750			
0.6296	40291.78	3.5190	3.5192	-1.8481	25.81	0.04	-0.750			
0.6350	40641.67	3.5160	3.5158	-1.8145	25.82	0.05	-0.750			
0.6403	40981.44	3.5130	3.5131	-1.7627	25.83	0.06	-0.750			
0.6456	41320.86	3.5100	3.5100	-1.7225	25.84	0.07	-0.750			
0.6507	41647.35	3.5070	3.5071	-1.6984	25.85	0.08	-0.750			
0.6558	41974.18	3.5040	3.5042	-1.6612	25.87	0.10	-0.750			
0.6608	42292.89	3.5010	3.5011	-1.6133	25.89	0.12	-0.750			
0.6656	42596.38	3.4980	3.4978	-1.5455	25.90	0.13	-0.750			
0.6702	42889.76	3.4950	3.4948	-1.4908	25.90	0.13	-0.750			
0.6745	43171.02	3.4920	3.4922	-1.4519	25.91	0.14	-0.750			
0.6788	43443.35	3.4890	3.4888	-1.3956	25.93	0.16	-0.750			
0.6828	43700.84	3.4860	3.4859	-1.3395	25.94	0.17	-0.750			
0.6868	43952.62	3.4830	3.4835	-1.3015	25.96	0.19	-0.750			
0.6907	44205.73	3.4800	3.4798	-1.2813	25.97	0.20	-0.750			
0.6945	44446.64	3.4770	3.4769	-1.2388	25.98	0.21	-0.750			
0.6981	44676.86	3.4740	3.4739	-1.1950	26.00	0.23	-0.750			
0.7017	44907.42	3.4710	3.4710	-1.1727	26.01	0.24	-0.750			
0.7051	45129.55	3.4680	3.4680	-1.1302	26.02	0.25	-0.750			
0.7085	45341.31	3.4650	3.4649	-1.0862	26.04	0.27	-0.750			
0.7116	45543.62	3.4620	3.4622	-1.0425	26.05	0.28	-0.750			
0.7147	45741.75	3.4590	3.4589	-1.0205	26.06	0.29	-0.750			
0.7177	45933.53	3.4560	3.4560	-0.9882	26.08	0.31	-0.750			
0.7206	46119.39	3.4530	3.4529	-0.9579	26.09	0.32	-0.750			
0.7235	46301.11	3.4500	3.4500	-0.9326	26.11	0.34	-0.750			
0.7262	46478.69	3.4470	3.4469	-0.9144	26.12	0.35	-0.750			
0.7289	46652.56	3.4440	3.4440	-0.8867	26.12	0.35	-0.750			
0.7315	46819.06	3.4410	3.4410	-0.8648	26.13	0.36	-0.750			
0.7340	46978.58	3.4380	3.4381	-0.8560	26.14	0.37	-0.750			
0.7366	47141.68	3.4350	3.4351	-0.8580	26.15	0.38	-0.750			
0.7391	47303.13	3.4320	3.4319	-0.8772	26.16	0.39	-0.750			
0.7418	47472.26	3.4290	3.4290	-0.8902	26.17	0.40	-0.750			
0.7445	47645.56	3.4260	3.4260	-0.9076	26.17	0.40	-0.750			
0.7472	47823.80	3.4230	3.4231	-0.9208	26.18	0.41	-0.750			
0.7501	48005.94	3.4200	3.4201	-0.9271	26.19	0.42	-0.750			
0.7529	48184.31	3.4170	3.4170	-0.9383	26.20	0.43	-0.750			
0.7557	48365.75	3.4140	3.4140	-0.9372	26.21	0.44	-0.750			
0.7585	48545.74	3.4110	3.4109	-0.9285	26.22	0.45	-0.750			
0.7614	48726.73	3.4080	3.4083	-0.9270	26.23	0.46	-0.750			
0.7641	48902.91	3.4050	3.4050	-0.9162	26.24	0.47	-0.750			
0.7669	49080.21	3.4020	3.4019	-0.9041	26.25	0.48	-0.750			
0.7696	49251.84	3.3990	3.3990	-0.8830	26.25	0.48	-0.750			
0.7721	49416.66	3.3960	3.3961	-0.8577	26.26	0.49	-0.750			
0.7748	49586.17	3.3930	3.3931	-0.8405	26.27	0.50	-0.750			
0.7773	49744.50	3.3900	3.3900	-0.8161	26.28	0.51	-0.750			
0.7796	49897.53	3.3870	3.3870	-0.7916	26.28	0.51	-0.750			
0.7820	50047.02	3.3840	3.3840	-0.7663	26.29	0.52	-0.750			
0.7843	50192.79	3.3810	3.3808	-0.7403	26.29	0.52	-0.750			
0.7864	50332.34	3.3780	3.3780	-0.7135	26.30	0.53	-0.750			
0.7885	50467.07	3.3750	3.3750	-0.6889	26.31	0.54	-0.750			
0.7906	50596.28	3.3720	3.3719	-0.6629	26.31	0.54	-0.750			
0.7925	50718.40	3.3690	3.3690	-0.6386	26.32	0.55	-0.750			
0.7944	50839.23	3.3660	3.3661	-0.6197	26.32	0.55	-0.750			
0.7962	50958.20	3.3630	3.3629	-0.5982	26.33	0.56	-0.750			
0.7980	51071.53	3.3600	3.3600	-0.5756	26.34	0.57	-0.750			
0.7997	51179.47	3.3570	3.3573	-0.5519	26.34	0.57	-0.750			
0.8013	51282.97	3.3540	3.3539	-0.5290	26.35	0.58	-0.750			
0.8028	51380.71	3.3510	3.3510	-0.5116	26.35	0.58	-0.750			
0.8043	51476.13	3.3480	3.3479	-0.4961	26.36	0.59	-0.750			
0.8058	51570.42	3.3450	3.3449	-0.4809	26.37	0.60	-0.750			
0.8072	51661.63	3.3420	3.3420	-0.4679	26.37	0.60	-0.750			
0.8086	51750.42	3.3390	3.3391	-0.4538	26.38	0.61	-0.750			
0.8099	51836.47	3.3360	3.3360	-0.4392	26.38	0.61	-0.750			
0.8112	51918.45	3.3330	3.3330	-0.4259	26.39	0.62	-0.750			
0.8125	51998.15	3.3300	3.3300	-0.4116	26.39	0.62	-0.750			
0.8137	52076.22	3.3270	3.3270	-0.3983	26.40	0.63	-0.750			
0.8149	52151.73	3.3240	3.3240	-0.3870	26.41	0.64	-0.750			
0.8160	52224.09	3.3210	3.3211	-0.3753	26.41	0.64	-0.750			
0.8171	52295.24	3.3180	3.3179	-0.3651	26.42	0.65	-0.750			
0.8182	52364.09	3.3150	3.3149	-0.3542	26.43	0.66	-0.750			
0.8192	52431.02	3.3120	3.3120	-0.3438	26.43	0.66	-0.750			
0.8203	52496.44	3.3090	3.3091	-0.3358	26.44	0.67	-0.750			
0.8213	52560.02	3.3060	3.3060	-0.3281	26.44	0.67	-0.750			
0.8222	52621.17	3.3030	3.3031	-0.3191	26.45	0.68	-0.750			
0.8231	52681.58	3.3000	3.2999	-0.3121	26.45	0.68	-0.750			
0.8241	52740.89	3.2970	3.2969	-0.3046	26.46	0.69	-0.750			
0.8250	52799.07	3.2940	3.2939	-0.2977	26.46	0.69	-0.750			
0.8259	52855.44	3.2910	3.2911	-0.2910	26.47	0.70	-0.750			
0.8267	52910.69	3.2880	3.2878	-0.2833	26.47	0.70	-0.750			
0.8276	52964.04	3.2850	3.2850	-0.2770	26.48	0.71	-0.750			
0.8284	53016.69	3.2820	3.2821	-0.2707	26.49	0.72	-0.750			
0.8292	53067.93	3.2790	3.2790	-0.2652	26.49	0.72	-0.750			
0.8300	53118.32	3.2760	3.2760	-0.2607	26.50	0.73	-0.750			
0.8307	53167.39	3.2730	3.2731	-0.2560	26.50	0.73	-0.750			
0.8315	53215.87	3.2700	3.2699	-0.2518	26.51	0.74	-0.750			
0.8323	53264.20	3.2670	3.2670	-0.2479	26.51	0.74	-0.750			
0.8330	53311.51	3.2640	3.2641	-0.2430	26.51	0.74	-0.750			
0.8337	53357.76	3.2610	3.2609	-0.2382	26.52	0.75	-0.750			
0.8344	53403.22	3.2580	3.2581	-0.2355	26.52	0.75	-0.750			
0.8351	53447.80	3.2550	3.2550	-0.2298	26.53	0.76	-0.750			
0.8358	53491.30	3.2520	3.2519	-0.2261	26.53	0.76	-0.750			
0.8365	53534.36	3.2490	3.2490	-0.2225	26.54	0.77	-0.750			
0.8371	53576.41	3.2460	3.2462	-0.2193	26.54	0.77	-0.750			
0.8378	53618.17	3.2430	3.2430	-0.2171	26.55	0.78	-0.750			
0.8384	53659.70	3.2400	3.2399	-0.2142	26.55	0.78	-0.750			
0.8391	53700.57	3.2370	3.2370	-0.2115	26.56	0.79	-0.750			
0.8397	53740.47	3.2340	3.2340	-0.2086	26.56	0.79	-0.750			
0.8403	53781.20	3.2310	3.2310	-0.2064	26.57	0.80	-0.750			
0.8409	53820.36	3.2280	3.2280	-0.2026	26.57	0.80	-0.750			
0.8415	53858.91	3.2250	3.2250	-0.1989	26.58	0.81	-0.750			
0.8421	53896.68	3.2220	3.2221	-0.1957	26.58	0.81	-0.750			
0.8427	53933.40	3.2190	3.2189	-0.1929	26.59	0.82	-0.750			
0.8433	53970.08	3.2160	3.2159	-0.1906	26.59	0.82	-0.750			
0.8439	54006.51	3.2130	3.2131	-0.1889	26.60	0.83	-0.750			
0.8444	54042.40	3.2100	3.2100	-0.1864	26.60	0.83	-0.750			
0.8450	54078.27	3.2070	3.2071	-0.1854	26.61	0.84	-0.750			
0.8455	54113.70	3.2040	3.2040	-0.1835	26.61	0.84	-0.750			
0.8461	54148.79	3.2010	3.2010	-0.1811	26.62	0.85	-0.750			
0.8466	54183.22	3.1980	3.1980	-0.1799	26.62	0.85	-0.750			
0.8472	54217.62	3.1950	3.1949	-0.1772	26.63	0.86	-0.750			
0.8477	54251.45	3.1920	3.1921	-0.1754	26.63	0.86	-0.750			
0.8482	54285.06	3.1890	3.1889	-0.1737	26.64	0.87	-0.750			
0.8487	54318.39	3.1860	3.1861	-0.1714	26.64	0.87	-0.750			
0.8492	54350.97	3.1830	3.1830	-0.1692	26.64	0.87	-0.750			
0.8497	54383.06	3.1800	3.1801	-0.1678	26.64	0.87	-0.750			
0.8502	54415.07	3.1770	3.1770	-0.1661	26.65	0.88	-0.750			
0.8507	54446.46	3.1740	3.1740	-0.1640	26.66	0.89	-0.750			
0.8512	54478.20	3.1710	3.1709	-0.1630	26.66	0.89	-0.750			
0.8517	54509.09	3.1680	3.1681	-0.1614	26.67	0.90	-0.750			
0.8522	54539.98	3.1650	3.1650	-0.1603	26.67	0.90	-0.750			
0.8527	54570.89	3.1620	3.1620	-0.1586	26.68	0.91	-0.750			
0.8531	54601.14	3.1590	3.1589	-0.1569	26.69	0.92	-0.750			
0.8536	54631.00	3.1560	3.1561	-0.1548	26.69	0.92	-0.750			
0.8541	54660.57	3.1530	3.1530	-0.1533	26.70	0.93	-0.750			
0.8545	54690.04	3.1500	3.1499	-0.1517	26.70	0.93	-0.750			
0.8550	54718.89	3.1470	3.1470	-0.1501	26.71	0.94	-0.750			
0.8554	54747.11	3.1440	3.1441	-0.1486	26.72	0.95	-0.750			
0.8559	54775.59	3.1410	3.1410	-0.1481	26.72	0.95	-0.750			
0.8563	54804.07	3.1380	3.1380	-0.1470	26.73	0.96	-0.750			
0.8568	54832.22	3.1350	3.1349	-0.1457	26.73	0.96	-0.750			
0.8572	54860.25	3.1320	3.1321	-0.1448	26.74	0.97	-0.750			
0.8576	54887.95	3.1290	3.1291	-0.1432	26.74	0.97	-0.750			
0.8581	54915.34	3.1260	3.1260	-0.1423	26.75	0.98	-0.750			
0.8585	54942.42	3.1230	3.1229	-0.1410	26.75	0.98	-0.750			
0.8589	54969.09	3.1200	3.1200	-0.1394	26.75	0.98	-0.750			
0.8593	54995.87	3.1170	3.1170	-0.1384	26.76	0.99	-0.750			
0.8597	55022.41	3.1140	3.1141	-0.1379	26.76	0.99	-0.750			
0.8601	55048.79	3.1110	3.1110	-0.1372	26.76	0.99	-0.750			
0.8605	55075.07	3.1080	3.1080	-0.1365	26.77	1.00	-0.750			
0.8610	55101.33	3.1050	3.1050	-0.1353	26.77	1.00	-0.750			
0.8614	55127.12	3.1020	3.1020	-0.1341	26.78	1.01	-0.750			
0.8618	55153.01	3.0990	3.0989	-0.1328	26.78	1.01	-0.750			
0.8622	55178.08	3.0960	3.0961	-0.1322	26.78	1.01	-0.750			
0.8626	55203.34	3.0930	3.0931	-0.1312	26.79	1.02	-0.750			
0.8629	55228.26	3.0900	3.0899	-0.1299	26.80	1.03	-0.750			
0.8633	55253.17	3.0870	3.0869	-0.1289	26.80	1.03	-0.750			
0.8637	55277.86	3.0840	3.0841	-0.1283	26.81	1.04	-0.750			
0.8641	55302.82	3.0810	3.0811	-0.1275	26.82	1.05	-0.750			
0.8645	55327.16	3.0780	3.0780	-0.1260	26.83	1.06	-0.750			
0.8649	55351.45	3.0750	3.0749	-0.1250	26.83	1.06	-0.750			
0.8652	55374.95	3.0720	3.0720	-0.1227	26.84	1.07	-0.750			
0.8656	55398.14	3.0690	3.0690	-0.1226	26.85	1.08	-0.750			
0.8660	55421.53	3.0660	3.0661	-0.1220	26.85	1.08	-0.750			
0.8663	55444.96	3.0630	3.0629	-0.1215	26.86	1.09	-0.750			
0.8667	55468.19	3.0600	3.0600	-0.1205	26.86	1.09	-0.750			
0.8671	55491.28	3.0570	3.0571	-0.1200	26.87	1.10	-0.750			
0.8674	55514.54	3.0540	3.0541	-0.1198	26.88	1.11	-0.750			
0.8678	55537.45	3.0510	3.0510	-0.1189	26.88	1.11	-0.750			
0.8681	55560.26	3.0480	3.0479	-0.1182	26.89	1.12	-0.750			
0.8685	55582.62	3.0450	3.0450	-0.1169	26.90	1.13	-0.750			
0.8688	55605.09	3.0420	3.0420	-0.1161	26.90	1.13	-0.750			
0.8692	55627.39	3.0390	3.0389	-0.1155	26.91	1.14	-0.750			
0.8695	55649.45	3.0360	3.0361	-0.1148	26.91	1.14	-0.750			
0.8699	55671.45	3.0330	3.0330	-0.1141	26.92	1.15	-0.750			
0.8702	55693.20	3.0300	3.0299	-0.1135	26.93	1.16	-0.750			
0.8705	55714.84	3.0270	3.0271	-0.1128	26.93	1.16	-0.750			
0.8709	55736.52	3.0240	3.0241	-0.1121	26.94	1.17	-0.750			
0.8712	55757.98	3.0210	3.0210	-0.1115	26.95	1.18	-0.750			
0.8716	55779.36	3.0180	3.0179	-0.1108	26.95	1.18	-0.750			
0.8719	55800.67	3.0150	3.0149	-0.1103	26.96	1.19	-0.750			
0.8722	55821.76	3.0120	3.0122	-0.1094	26.96	1.19	-0.750			
0.8725	55842.72	3.0090	3.0089	-0.1085	26.97	1.20	-0.750			
0.8729	55863.47	3.0060	3.0059	-0.1076	26.97	1.20	-0.751			
0.8732	55884.05	3.0030	3.0031	-0.1077	26.98	1.21	-0.751			
