Ah_balance (normalized)	Ah_balance (mAh)	Voltage - fit (V)	Voltage -  interpolate (V)	dQ/dV (1/V)	Temperature (°C)	Temperature - diff (°C)	Current (C)	R_DC 0ms (mOhm)	R_DC 50ms (mOhm)	R_DC 50 ms PEC (mOhm)
0.0004	26.97	4.1610	4.1608	-0.1270	25.79	0.02	-0.750			
0.0009	58.66	4.1580	4.1577	-0.1768	25.79	0.02	-0.750			
0.0015	96.11	4.1550	4.1549	-0.2148	25.79	0.02	-0.750			
0.0022	141.06	4.1520	4.1520	-0.2524	25.79	0.02	-0.750			
0.0030	193.39	4.1490	4.1492	-0.2887	25.79	0.02	-0.750			
0.0040	253.15	4.1460	4.1459	-0.3255	25.79	0.02	-0.750			
0.0050	318.71	4.1430	4.1430	-0.3601	25.78	0.01	-0.750			
0.0061	391.26	4.1400	4.1401	-0.3964	25.78	0.01	-0.750			
0.0074	471.73	4.1370	4.1370	-0.4304	25.78	0.01	-0.750			
0.0087	559.19	4.1340	4.1339	-0.4577	25.77	0.00	-0.750			
0.0102	650.35	4.1310	4.1313	-0.4836	25.77	0.00	-0.750			
0.0117	747.21	4.1280	4.1280	-0.5058	25.77	-0.00	-0.750			
0.0132	846.30	4.1250	4.1249	-0.5230	25.76	-0.01	-0.750			
0.0148	947.77	4.1220	4.1220	-0.5400	25.76	-0.01	-0.750			
0.0165	1053.03	4.1190	4.1191	-0.5545	25.76	-0.01	-0.750			
0.0182	1163.73	4.1160	4.1159	-0.5737	25.75	-0.02	-0.750			
0.0199	1275.45	4.1130	4.1131	-0.5881	25.75	-0.02	-0.750			
0.0217	1389.88	4.1100	4.1099	-0.5987	25.74	-0.03	-0.750			
0.0235	1506.10	4.1070	4.1071	-0.6110	25.74	-0.03	-0.750			
0.0254	1624.97	4.1040	4.1039	-0.6184	25.73	-0.04	-0.750			
0.0272	1743.66	4.1010	4.1010	-0.6281	25.73	-0.04	-0.750			
0.0291	1864.67	4.0980	4.0981	-0.6343	25.72	-0.05	-0.750			
0.0311	1989.70	4.0950	4.0949	-0.6461	25.72	-0.05	-0.750			
0.0330	2114.52	4.0920	4.0920	-0.6519	25.72	-0.05	-0.750			
0.0350	2240.87	4.0890	4.0891	-0.6592	25.71	-0.06	-0.750			
0.0370	2367.85	4.0860	4.0860	-0.6642	25.71	-0.06	-0.750			
0.0390	2496.54	4.0830	4.0830	-0.6704	25.71	-0.06	-0.750			
0.0410	2625.27	4.0800	4.0800	-0.6716	25.71	-0.06	-0.750			
0.0431	2755.20	4.0770	4.0770	-0.6755	25.71	-0.06	-0.750			
0.0451	2886.05	4.0740	4.0740	-0.6809	25.71	-0.06	-0.750			
0.0471	3016.45	4.0710	4.0711	-0.6834	25.71	-0.06	-0.750			
0.0492	3148.67	4.0680	4.0678	-0.6849	25.71	-0.06	-0.750			
0.0513	3280.22	4.0650	4.0650	-0.6872	25.71	-0.06	-0.750			
0.0533	3411.86	4.0620	4.0619	-0.6913	25.71	-0.06	-0.750			
0.0554	3544.89	4.0590	4.0591	-0.6956	25.70	-0.07	-0.750			
0.0575	3679.93	4.0560	4.0558	-0.6986	25.70	-0.07	-0.750			
0.0596	3813.63	4.0530	4.0530	-0.7011	25.70	-0.07	-0.750			
0.0617	3949.45	4.0500	4.0500	-0.7055	25.70	-0.07	-0.750			
0.0638	4085.52	4.0470	4.0470	-0.7096	25.70	-0.07	-0.750			
0.0660	4221.98	4.0440	4.0439	-0.7121	25.70	-0.07	-0.750			
0.0681	4359.03	4.0410	4.0411	-0.7130	25.71	-0.06	-0.750			
0.0703	4497.26	4.0380	4.0379	-0.7135	25.71	-0.06	-0.750			
0.0724	4634.03	4.0350	4.0350	-0.7144	25.71	-0.06	-0.750			
0.0745	4771.04	4.0320	4.0321	-0.7144	25.71	-0.06	-0.750			
0.0767	4908.29	4.0290	4.0289	-0.7143	25.71	-0.06	-0.750			
0.0788	5044.75	4.0260	4.0260	-0.7206	25.71	-0.06	-0.750			
0.0810	5184.28	4.0230	4.0230	-0.7235	25.72	-0.05	-0.750			
0.0832	5324.70	4.0200	4.0199	-0.7294	25.72	-0.05	-0.750			
0.0854	5464.93	4.0170	4.0172	-0.7328	25.72	-0.05	-0.750			
0.0876	5605.56	4.0140	4.0140	-0.7325	25.72	-0.05	-0.750			
0.0898	5745.93	4.0110	4.0110	-0.7366	25.72	-0.05	-0.750			
0.0920	5887.91	4.0080	4.0080	-0.7376	25.72	-0.05	-0.750			
0.0942	6029.48	4.0050	4.0051	-0.7405	25.72	-0.05	-0.750			
0.0965	6172.92	4.0020	4.0019	-0.7401	25.72	-0.05	-0.750			
0.0987	6314.79	3.9990	3.9991	-0.7406	25.72	-0.05	-0.750			
0.1009	6456.53	3.9960	3.9960	-0.7433	25.73	-0.04	-0.750			
0.1031	6600.19	3.9930	3.9929	-0.7453	25.73	-0.04	-0.750			
0.1053	6742.28	3.9900	3.9899	-0.7422	25.74	-0.03	-0.750			
0.1076	6886.26	3.9870	3.9871	-0.7476	25.74	-0.03	-0.750			
0.1098	7029.87	3.9840	3.9840	-0.7497	25.75	-0.02	-0.750			
0.1121	7174.28	3.9810	3.9809	-0.7537	25.75	-0.02	-0.750			
0.1143	7317.48	3.9780	3.9780	-0.7542	25.76	-0.01	-0.750			
0.1166	7462.37	3.9750	3.9750	-0.7583	25.76	-0.01	-0.750			
0.1189	7609.33	3.9720	3.9720	-0.7582	25.76	-0.01	-0.750			
0.1212	7755.50	3.9690	3.9690	-0.7627	25.77	-0.00	-0.750			
0.1235	7901.46	3.9660	3.9661	-0.7635	25.77	0.00	-0.750			
0.1257	8047.97	3.9630	3.9628	-0.7668	25.77	0.00	-0.750			
0.1281	8196.03	3.9600	3.9600	-0.7693	25.77	0.00	-0.750			
0.1304	8344.25	3.9570	3.9569	-0.7719	25.77	0.00	-0.750			
0.1327	8493.63	3.9540	3.9540	-0.7747	25.77	0.00	-0.750			
0.1351	8643.52	3.9510	3.9509	-0.7742	25.77	0.00	-0.750			
0.1374	8790.86	3.9480	3.9479	-0.7729	25.77	0.00	-0.750			
0.1397	8939.23	3.9450	3.9450	-0.7776	25.78	0.01	-0.750			
0.1420	9087.83	3.9420	3.9420	-0.7773	25.79	0.02	-0.750			
0.1443	9237.84	3.9390	3.9391	-0.7777	25.79	0.02	-0.750			
0.1467	9388.54	3.9360	3.9359	-0.7765	25.80	0.03	-0.750			
0.1490	9537.20	3.9330	3.9331	-0.7773	25.80	0.03	-0.750			
0.1513	9684.61	3.9300	3.9300	-0.7872	25.81	0.04	-0.750			
0.1537	9836.10	3.9270	3.9269	-0.7905	25.81	0.04	-0.750			
0.1561	9988.70	3.9240	3.9239	-0.7919	25.81	0.04	-0.750			
0.1585	10142.61	3.9210	3.9211	-0.7973	25.82	0.05	-0.750			
0.1609	10297.89	3.9180	3.9182	-0.8015	25.82	0.05	-0.750			
0.1633	10451.86	3.9150	3.9150	-0.8010	25.82	0.05	-0.750			
0.1657	10603.15	3.9120	3.9120	-0.8076	25.82	0.05	-0.750			
0.1681	10759.09	3.9090	3.9089	-0.8067	25.82	0.05	-0.750			
0.1706	10916.35	3.9060	3.9059	-0.8119	25.82	0.05	-0.750			
0.1730	11073.56	3.9030	3.9033	-0.8099	25.82	0.05	-0.750			
0.1755	11230.32	3.9000	3.9000	-0.8081	25.83	0.06	-0.750			
0.1779	11384.45	3.8970	3.8969	-0.8101	25.83	0.06	-0.750			
0.1803	11537.39	3.8940	3.8940	-0.8071	25.84	0.07	-0.750			
0.1827	11692.25	3.8910	3.8909	-0.8092	25.84	0.07	-0.750			
0.1851	11848.30	3.8880	3.8882	-0.8128	25.85	0.08	-0.750			
0.1876	12004.74	3.8850	3.8850	-0.8143	25.85	0.08	-0.750			
0.1900	12161.60	3.8820	3.8819	-0.8176	25.86	0.09	-0.750			
0.1925	12319.72	3.8790	3.8790	-0.8133	25.86	0.09	-0.750			
0.1949	12474.84	3.8760	3.8760	-0.8123	25.87	0.10	-0.750			
0.1974	12631.88	3.8730	3.8731	-0.8168	25.87	0.10	-0.750			
0.1998	12788.62	3.8700	3.8699	-0.8156	25.87	0.10	-0.750			
0.2023	12944.40	3.8670	3.8670	-0.8172	25.88	0.11	-0.750			
0.2047	13101.50	3.8640	3.8640	-0.8187	25.88	0.11	-0.750			
0.2072	13258.46	3.8610	3.8609	-0.8180	25.88	0.11	-0.750			
0.2097	13418.53	3.8580	3.8581	-0.8227	25.89	0.12	-0.750			
0.2121	13574.56	3.8550	3.8549	-0.8196	25.89	0.12	-0.750			
0.2146	13731.32	3.8520	3.8520	-0.8195	25.90	0.13	-0.750			
0.2170	13889.45	3.8490	3.8490	-0.8212	25.90	0.13	-0.750			
0.2195	14045.13	3.8460	3.8459	-0.8199	25.90	0.13	-0.750			
0.2220	14205.33	3.8430	3.8431	-0.8196	25.91	0.14	-0.750			
0.2244	14362.86	3.8400	3.8399	-0.8170	25.91	0.14	-0.750			
0.2269	14518.52	3.8370	3.8370	-0.8200	25.92	0.15	-0.750			
0.2293	14676.06	3.8340	3.8339	-0.8192	25.92	0.15	-0.750			
0.2318	14832.02	3.8310	3.8310	-0.8190	25.92	0.15	-0.750			
0.2342	14990.84	3.8280	3.8280	-0.8197	25.93	0.16	-0.750			
0.2367	15148.73	3.8250	3.8250	-0.8180	25.93	0.16	-0.750			
0.2391	15305.57	3.8220	3.8220	-0.8227	25.94	0.17	-0.750			
0.2416	15463.34	3.8190	3.8189	-0.8172	25.94	0.17	-0.750			
0.2441	15619.52	3.8160	3.8160	-0.8132	25.94	0.17	-0.750			
0.2465	15776.29	3.8130	3.8130	-0.8119	25.95	0.18	-0.750			
0.2489	15932.21	3.8100	3.8100	-0.8085	25.95	0.18	-0.750			
0.2514	16087.50	3.8070	3.8070	-0.8054	25.96	0.19	-0.750			
0.2538	16240.83	3.8040	3.8040	-0.8012	25.96	0.19	-0.750			
0.2561	16392.92	3.8010	3.8010	-0.7982	25.97	0.20	-0.750			
0.2586	16547.66	3.7980	3.7980	-0.8006	25.98	0.21	-0.750			
0.2609	16700.69	3.7950	3.7950	-0.7979	25.98	0.21	-0.750			
0.2633	16854.09	3.7920	3.7920	-0.7941	25.98	0.21	-0.750			
0.2657	17006.32	3.7890	3.7890	-0.7936	25.98	0.21	-0.750			
0.2681	17160.18	3.7860	3.7859	-0.7859	25.99	0.22	-0.750			
0.2705	17310.44	3.7830	3.7830	-0.7821	25.99	0.22	-0.750			
0.2728	17459.45	3.7800	3.7801	-0.7786	25.99	0.22	-0.750			
0.2751	17608.19	3.7770	3.7770	-0.7740	25.99	0.22	-0.750			
0.2774	17755.52	3.7740	3.7738	-0.7760	26.00	0.23	-0.750			
0.2797	17903.51	3.7710	3.7710	-0.7755	26.00	0.23	-0.750			
0.2821	18053.19	3.7680	3.7680	-0.7770	26.00	0.23	-0.750			
0.2844	18203.65	3.7650	3.7649	-0.7770	26.01	0.24	-0.750			
0.2868	18352.80	3.7620	3.7620	-0.7741	26.01	0.24	-0.750			
0.2891	18501.37	3.7590	3.7590	-0.7747	26.02	0.25	-0.750			
0.2914	18649.65	3.7560	3.7560	-0.7740	26.02	0.25	-0.750			
0.2937	18796.49	3.7530	3.7530	-0.7722	26.02	0.25	-0.750			
0.2960	18945.24	3.7500	3.7500	-0.7766	26.03	0.26	-0.750			
0.2984	19094.72	3.7470	3.7470	-0.7804	26.03	0.26	-0.750			
0.3007	19245.33	3.7440	3.7439	-0.7854	26.03	0.26	-0.750			
0.3031	19396.06	3.7410	3.7410	-0.7940	26.04	0.27	-0.750			
0.3055	19549.56	3.7380	3.7380	-0.8005	26.04	0.27	-0.750			
0.3079	19704.56	3.7350	3.7349	-0.8064	26.05	0.28	-0.750			
0.3103	19859.83	3.7320	3.7323	-0.8152	26.05	0.28	-0.750			
0.3128	20017.27	3.7290	3.7290	-0.8194	26.05	0.28	-0.750			
0.3152	20174.58	3.7260	3.7260	-0.8305	26.05	0.28	-0.750			
0.3177	20333.78	3.7230	3.7230	-0.8389	26.05	0.28	-0.750			
0.3202	20495.66	3.7200	3.7200	-0.8563	26.05	0.28	-0.750			
0.3228	20660.29	3.7170	3.7171	-0.8715	26.05	0.28	-0.750			
0.3254	20828.77	3.7140	3.7140	-0.8901	26.05	0.28	-0.750			
0.3281	21001.20	3.7110	3.7109	-0.9068	26.05	0.28	-0.750			
0.3309	21178.37	3.7080	3.7080	-0.9262	26.05	0.28	-0.750			
0.3337	21358.47	3.7050	3.7050	-0.9440	26.05	0.28	-0.750			
0.3366	21542.10	3.7020	3.7020	-0.9559	26.05	0.28	-0.750			
0.3395	21726.84	3.6990	3.6990	-0.9698	26.05	0.28	-0.750			
0.3424	21913.67	3.6960	3.6961	-0.9830	26.05	0.28	-0.750			
0.3454	22102.63	3.6930	3.6930	-0.9972	26.05	0.28	-0.750			
0.3483	22293.48	3.6900	3.6901	-1.0266	26.05	0.28	-0.750			
0.3515	22493.42	3.6870	3.6868	-1.0440	26.04	0.27	-0.750			
0.3546	22696.81	3.6840	3.6840	-1.0646	26.04	0.27	-0.750			
0.3579	22904.56	3.6810	3.6810	-1.0912	26.03	0.26	-0.750			
0.3612	23117.76	3.6780	3.6782	-1.1163	26.03	0.26	-0.750			
0.3646	23334.71	3.6750	3.6748	-1.1358	26.03	0.26	-0.750			
0.3680	23552.20	3.6720	3.6719	-1.1523	26.03	0.26	-0.750			
0.3714	23771.86	3.6690	3.6691	-1.1727	26.03	0.26	-0.750			
0.3750	24003.05	3.6660	3.6659	-1.2032	26.03	0.26	-0.750			
0.3787	24236.47	3.6630	3.6629	-1.2279	26.02	0.25	-0.750			
0.3824	24472.40	3.6600	3.6600	-1.2529	26.01	0.24	-0.750			
0.3862	24715.51	3.6570	3.6571	-1.2874	26.01	0.24	-0.750			
0.3901	24969.39	3.6540	3.6540	-1.3173	26.01	0.24	-0.750			
0.3942	25225.98	3.6510	3.6509	-1.3400	26.00	0.23	-0.750			
0.3982	25484.75	3.6480	3.6483	-1.3685	26.00	0.23	-0.750			
0.4024	25751.81	3.6450	3.6449	-1.3953	25.99	0.22	-0.750			
0.4066	26019.36	3.6420	3.6420	-1.4254	25.99	0.22	-0.750			
0.4108	26294.20	3.6390	3.6391	-1.4468	25.98	0.21	-0.750			
0.4153	26578.44	3.6360	3.6360	-1.4830	25.98	0.21	-0.750			
0.4198	26864.17	3.6330	3.6330	-1.5149	25.97	0.20	-0.750			
0.4243	27155.82	3.6300	3.6300	-1.5527	25.97	0.20	-0.750			
0.4291	27459.40	3.6270	3.6271	-1.5803	25.96	0.19	-0.750			
0.4339	27767.32	3.6240	3.6240	-1.6061	25.95	0.18	-0.750			
0.4387	28078.34	3.6210	3.6210	-1.6335	25.94	0.17	-0.750			
0.4437	28397.20	3.6180	3.6186	-1.6665	25.94	0.17	-0.750	0.400	0.523	
0.4487	28718.84	3.6150	3.6150	-1.6967	25.93	0.16	-0.750			
0.4538	29042.40	3.6120	3.6122	-1.7324	25.93	0.16	-0.750			
0.4590	29377.77	3.6090	3.6091	-1.7650	25.93	0.16	-0.750			
0.4644	29723.87	3.6060	3.6059	-1.8006	25.92	0.15	-0.750			
0.4699	30072.56	3.6030	3.6031	-1.8416	25.91	0.14	-0.750			
0.4755	30431.07	3.6000	3.5998	-1.8714	25.91	0.14	-0.750			
0.4811	30790.29	3.5970	3.5969	-1.9080	25.91	0.14	-0.750			
0.4869	31161.90	3.5940	3.5941	-1.9341	25.91	0.14	-0.750			
0.4928	31538.90	3.5910	3.5909	-1.9675	25.90	0.13	-0.750			
0.4987	31919.60	3.5880	3.5881	-1.9878	25.89	0.12	-0.750			
0.5048	32304.81	3.5850	3.5850	-2.0337	25.89	0.12	-0.750			
0.5109	32694.76	3.5820	3.5821	-2.0637	25.89	0.12	-0.750			
0.5171	33096.85	3.5790	3.5789	-2.0959	25.89	0.12	-0.750			
0.5235	33503.42	3.5760	3.5760	-2.1211	25.89	0.12	-0.750			
0.5299	33916.05	3.5730	3.5731	-2.1458	25.89	0.12	-0.750			
0.5364	34331.34	3.5700	3.5700	-2.1712	25.89	0.12	-0.750			
0.5429	34744.88	3.5670	3.5670	-2.1977	25.89	0.12	-0.750			
0.5495	35168.85	3.5640	3.5638	-2.2027	25.89	0.12	-0.750			
0.5562	35599.39	3.5610	3.5611	-2.2213	25.88	0.11	-0.750			
0.5629	36023.47	3.5580	3.5581	-2.2375	25.88	0.11	-0.750			
0.5697	36460.18	3.5550	3.5549	-2.2550	25.88	0.11	-0.750			
0.5764	36890.24	3.5520	3.5519	-2.2453	25.88	0.11	-0.750			
0.5833	37330.87	3.5490	3.5490	-2.2489	25.89	0.12	-0.750			
0.5900	37761.33	3.5460	3.5461	-2.2463	25.89	0.12	-0.750			
0.5968	38197.50	3.5430	3.5428	-2.2287	25.89	0.12	-0.750			
0.6035	38623.90	3.5400	3.5401	-2.1817	25.89	0.12	-0.750			
0.6099	39034.67	3.5370	3.5371	-2.1623	25.89	0.12	-0.750			
0.6164	39447.19	3.5340	3.5339	-2.1239	25.89	0.12	-0.750			
0.6227	39853.82	3.5310	3.5309	-2.0726	25.90	0.13	-0.750			
0.6290	40256.46	3.5280	3.5279	-2.0404	25.91	0.14	-0.750			
0.6350	40637.83	3.5250	3.5248	-1.9949	25.93	0.16	-0.750			
0.6409	41018.86	3.5220	3.5221	-1.9475	25.93	0.16	-0.750			
0.6467	41388.97	3.5190	3.5190	-1.8977	25.93	0.16	-0.750			
0.6522	41743.43	3.5160	3.5159	-1.8319	25.94	0.17	-0.750			
0.6577	42092.57	3.5130	3.5131	-1.7968	25.95	0.18	-0.750			
0.6631	42437.21	3.5100	3.5099	-1.7456	25.97	0.20	-0.750			
0.6682	42764.42	3.5070	3.5070	-1.7087	25.98	0.21	-0.750			
0.6733	43089.29	3.5040	3.5039	-1.6333	25.99	0.22	-0.750			
0.6782	43402.98	3.5010	3.5010	-1.5838	26.01	0.24	-0.750			
0.6828	43697.76	3.4980	3.4979	-1.5296	26.02	0.25	-0.750			
0.6873	43986.89	3.4950	3.4950	-1.4818	26.04	0.27	-0.750			
0.6916	44261.10	3.4920	3.4919	-1.4261	26.05	0.28	-0.750			
0.6958	44531.75	3.4890	3.4888	-1.3918	26.06	0.29	-0.750			
0.7000	44796.95	3.4860	3.4860	-1.3562	26.08	0.31	-0.750			
0.7039	45052.26	3.4830	3.4830	-1.3034	26.10	0.33	-0.750			
0.7078	45298.61	3.4800	3.4799	-1.2569	26.12	0.35	-0.750			
0.7114	45531.43	3.4770	3.4771	-1.2069	26.13	0.36	-0.750			
0.7150	45761.62	3.4740	3.4739	-1.1764	26.15	0.38	-0.750			
0.7185	45982.36	3.4710	3.4709	-1.1334	26.16	0.39	-0.750			
0.7218	46193.75	3.4680	3.4680	-1.0927	26.18	0.41	-0.750			
0.7251	46403.50	3.4650	3.4649	-1.0659	26.19	0.42	-0.750			
0.7282	46605.18	3.4620	3.4619	-1.0310	26.20	0.43	-0.750			
0.7312	46798.10	3.4590	3.4590	-0.9974	26.21	0.44	-0.750			
0.7341	46984.96	3.4560	3.4559	-0.9633	26.23	0.46	-0.750			
0.7370	47168.15	3.4530	3.4529	-0.9373	26.24	0.47	-0.750			
0.7398	47345.99	3.4500	3.4500	-0.9147	26.24	0.47	-0.750			
0.7424	47515.05	3.4470	3.4470	-0.8908	26.25	0.48	-0.750			
0.7450	47680.95	3.4440	3.4440	-0.8767	26.26	0.49	-0.750			
0.7476	47849.15	3.4410	3.4411	-0.8729	26.27	0.50	-0.750			
0.7502	48013.84	3.4380	3.4380	-0.8799	26.28	0.51	-0.750			
0.7529	48182.93	3.4350	3.4350	-0.8889	26.29	0.52	-0.750			
0.7556	48355.42	3.4320	3.4320	-0.9023	26.29	0.52	-0.750			
0.7583	48528.81	3.4290	3.4290	-0.9212	26.30	0.53	-0.750			
0.7611	48708.20	3.4260	3.4261	-0.9393	26.31	0.54	-0.750			
0.7639	48890.18	3.4230	3.4230	-0.9586	26.32	0.55	-0.750			
0.7668	49077.69	3.4200	3.4199	-0.9744	26.33	0.56	-0.750			
0.7698	49266.32	3.4170	3.4170	-0.9836	26.34	0.57	-0.750			
0.7728	49459.34	3.4140	3.4142	-0.9869	26.35	0.58	-0.750			
0.7758	49649.88	3.4110	3.4109	-0.9867	26.36	0.59	-0.750			
0.7788	49841.08	3.4080	3.4080	-0.9750	26.37	0.60	-0.750			
0.7817	50029.14	3.4050	3.4049	-0.9585	26.38	0.61	-0.750			
0.7846	50213.33	3.4020	3.4020	-0.9436	26.39	0.62	-0.750			
0.7874	50391.24	3.3990	3.3989	-0.9169	26.40	0.63	-0.750			
0.7901	50565.54	3.3960	3.3960	-0.8896	26.41	0.64	-0.750			
0.7927	50734.86	3.3930	3.3930	-0.8585	26.42	0.65	-0.750			
0.7952	50894.69	3.3900	3.3899	-0.8235	26.43	0.66	-0.750			
0.7977	51052.79	3.3870	3.3873	-0.7982	26.44	0.67	-0.750			
0.8000	51201.92	3.3840	3.3840	-0.7636	26.44	0.67	-0.750			
0.8022	51343.00	3.3810	3.3810	-0.7374	26.45	0.68	-0.750			
0.8044	51482.86	3.3780	3.3780	-0.7107	26.45	0.68	-0.750			
0.8065	51616.69	3.3750	3.3750	-0.6852	26.45	0.68	-0.750			
0.8085	51745.71	3.3720	3.3720	-0.6609	26.46	0.69	-0.750			
0.8105	51870.45	3.3690	3.3692	-0.6361	26.46	0.69	-0.750			
0.8123	51990.01	3.3660	3.3660	-0.6112	26.47	0.70	-0.750			
0.8141	52104.15	3.3630	3.3629	-0.5878	26.48	0.71	-0.750			
0.8158	52213.69	3.3600	3.3599	-0.5644	26.49	0.72	-0.750			
0.8175	52321.13	3.3570	3.3570	-0.5469	26.49	0.72	-0.750			
0.8191	52423.33	3.3540	3.3540	-0.5255	26.50	0.73	-0.750			
0.8207	52522.28	3.3510	3.3510	-0.5060	26.51	0.74	-0.750			
0.8221	52617.54	3.3480	3.3480	-0.4900	26.52	0.75	-0.750			
0.8236	52708.84	3.3450	3.3450	-0.4725	26.52	0.75	-0.750			
0.8250	52798.42	3.3420	3.3420	-0.4556	26.53	0.76	-0.750			
0.8263	52884.93	3.3390	3.3390	-0.4392	26.53	0.76	-0.750			
0.8276	52967.38	3.3360	3.3360	-0.4232	26.54	0.77	-0.750			
0.8289	53046.82	3.3330	3.3331	-0.4091	26.54	0.77	-0.750			
0.8300	53122.91	3.3300	3.3299	-0.3955	26.55	0.78	-0.750			
0.8312	53196.85	3.3270	3.3269	-0.3844	26.55	0.78	-0.750			
0.8323	53269.11	3.3240	3.3240	-0.3733	26.56	0.79	-0.750			
0.8335	53340.97	3.3210	3.3210	-0.3590	26.56	0.79	-0.750			
0.8345	53409.62	3.3180	3.3180	-0.3495	26.57	0.80	-0.750			
0.8355	53474.78	3.3150	3.3151	-0.3379	26.57	0.80	-0.750			
0.8365	53537.55	3.3120	3.3119	-0.3251	26.58	0.81	-0.750			
0.8375	53598.70	3.3090	3.3090	-0.3171	26.58	0.81	-0.750			
0.8384	53658.16	3.3060	3.3059	-0.3081	26.59	0.82	-0.750			
0.8393	53717.38	3.3030	3.3030	-0.3023	26.59	0.82	-0.750			
0.8402	53775.16	3.3000	3.3000	-0.2955	26.60	0.83	-0.750			
0.8411	53830.58	3.2970	3.2970	-0.2854	26.60	0.83	-0.750			
0.8420	53884.92	3.2940	3.2940	-0.2796	26.61	0.84	-0.750			
0.8428	53937.74	3.2910	3.2910	-0.2726	26.61	0.84	-0.750			
0.8436	53988.89	3.2880	3.2880	-0.2661	26.62	0.85	-0.750			
0.8444	54039.41	3.2850	3.2849	-0.2605	26.62	0.85	-0.750			
0.8451	54088.65	3.2820	3.2819	-0.2552	26.63	0.86	-0.750			
0.8459	54137.65	3.2790	3.2790	-0.2483	26.63	0.86	-0.750			
0.8466	54184.90	3.2760	3.2761	-0.2438	26.63	0.86	-0.750			
0.8474	54230.90	3.2730	3.2729	-0.2378	26.64	0.87	-0.750			
0.8480	54275.11	3.2700	3.2702	-0.2331	26.64	0.87	-0.750			
0.8487	54318.90	3.2670	3.2669	-0.2282	26.65	0.88	-0.750			
0.8494	54362.35	3.2640	3.2641	-0.2245	26.65	0.88	-0.750			
0.8501	54405.52	3.2610	3.2610	-0.2204	26.66	0.89	-0.750			
0.8507	54447.50	3.2580	3.2580	-0.2169	26.66	0.89	-0.750			
0.8514	54489.50	3.2550	3.2551	-0.2137	26.67	0.90	-0.750			
0.8520	54529.53	3.2520	3.2521	-0.2100	26.67	0.90	-0.750			
0.8527	54569.72	3.2490	3.2489	-0.2063	26.68	0.91	-0.750			
0.8533	54608.31	3.2460	3.2460	-0.2019	26.68	0.91	-0.750			
0.8539	54646.85	3.2430	3.2430	-0.1996	26.69	0.92	-0.750			
0.8545	54685.19	3.2400	3.2401	-0.1966	26.69	0.92	-0.750			
0.8550	54722.81	3.2370	3.2369	-0.1944	26.70	0.93	-0.750			
0.8556	54759.70	3.2340	3.2340	-0.1905	26.70	0.93	-0.750			
0.8562	54795.99	3.2310	3.2311	-0.1875	26.71	0.94	-0.750			
0.8567	54831.24	3.2280	3.2280	-0.1859	26.71	0.94	-0.750			
0.8573	54867.08	3.2250	3.2250	-0.1838	26.72	0.95	-0.750			
0.8578	54901.88	3.2220	3.2220	-0.1811	26.72	0.95	-0.750			
0.8584	54936.43	3.2190	3.2189	-0.1798	26.72	0.95	-0.750			
0.8589	54970.88	3.2160	3.2161	-0.1786	26.73	0.96	-0.750			
0.8595	55005.04	3.2130	3.2130	-0.1766	26.73	0.96	-0.750			
0.8600	55039.05	3.2100	3.2099	-0.1753	26.74	0.97	-0.750			
0.8605	55072.59	3.2070	3.2069	-0.1724	26.74	0.97	-0.750			
0.8610	55105.15	3.2040	3.2040	-0.1697	26.75	0.98	-0.750			
0.8615	55137.88	3.2010	3.2011	-0.1684	26.75	0.98	-0.750			
0.8620	55169.93	3.1980	3.1979	-0.1655	26.76	0.99	-0.750			
0.8625	55201.19	3.1950	3.1949	-0.1628	26.76	0.99	-0.750			
0.8630	55231.99	3.1920	3.1922	-0.1607	26.77	1.00	-0.750			
0.8635	55262.79	3.1890	3.1889	-0.1588	26.77	1.00	-0.750			
0.8640	55293.09	3.1860	3.1860	-0.1569	26.78	1.01	-0.750			
0.8644	55322.85	3.1830	3.1830	-0.1565	26.78	1.01	-0.750			
0.8649	55352.72	3.1800	3.1800	-0.1546	26.79	1.02	-0.750			
0.8653	55382.36	3.1770	3.1769	-0.1535	26.79	1.02	-0.750			
0.8658	55411.74	3.1740	3.1739	-0.1524	26.80	1.03	-0.750			
0.8663	55440.83	3.1710	3.1712	-0.1521	26.80	1.03	-0.750			
0.8667	55470.15	3.1680	3.1679	-0.1507	26.81	1.04	-0.750			
0.8672	55499.10	3.1650	3.1649	-0.1498	26.81	1.04	-0.750			
0.8676	55527.71	3.1620	3.1619	-0.1482	26.82	1.05	-0.750			
0.8681	55555.80	3.1590	3.1591	-0.1459	26.82	1.05	-0.750			
0.8685	55584.16	3.1560	3.1560	-0.1448	26.83	1.06	-0.750			
0.8689	55611.75	3.1530	3.1530	-0.1423	26.83	1.06	-0.750			
0.8694	55638.69	3.1500	3.1500	-0.1409	26.84	1.07	-0.750			
0.8698	55665.11	3.1470	3.1471	-0.1395	26.84	1.07	-0.750			
0.8702	55691.97	3.1440	3.1439	-0.1386	26.84	1.07	-0.750			
0.8706	55718.27	3.1410	3.1410	-0.1373	26.85	1.08	-0.750			
0.8710	55744.54	3.1380	3.1381	-0.1371	26.85	1.08	-0.750			
0.8714	55771.11	3.1350	3.1350	-0.1361	26.85	1.08	-0.750			
0.8718	55797.37	3.1320	3.1318	-0.1352	26.85	1.08	-0.750			
0.8722	55823.10	3.1290	3.1291	-0.1342	26.86	1.09	-0.750			
0.8726	55848.71	3.1260	3.1260	-0.1329	26.86	1.09	-0.750			
0.8730	55874.08	3.1230	3.1229	-0.1317	26.86	1.09	-0.750			
0.8734	55899.31	3.1200	3.1200	-0.1310	26.87	1.10	-0.750			
0.8738	55924.42	3.1170	3.1171	-0.1297	26.88	1.11	-0.750			
0.8742	55949.03	3.1140	3.1139	-0.1283	26.88	1.11	-0.750			
0.8746	55973.71	3.1110	3.1110	-0.1278	26.89	1.12	-0.750			
0.8750	55998.13	3.1080	3.1080	-0.1265	26.90	1.13	-0.750			
0.8753	56022.21	3.1050	3.1051	-0.1250	26.90	1.13	-0.750			
0.8757	56046.10	3.1020	3.1019	-0.1239	26.91	1.14	-0.750			
0.8761	56069.74	3.0990	3.0991	-0.1234	26.91	1.14	-0.750			
0.8765	56093.12	3.0960	3.0960	-0.1225	26.92	1.15	-0.750			
0.8768	56116.60	3.0930	3.0929	-0.1221	26.92	1.15	-0.750			
0.8772	56140.04	3.0900	3.0901	-0.1217	26.93	1.16	-0.750			
0.8776	56163.36	3.0870	3.0870	-0.1212	26.94	1.17	-0.750			
0.8779	56186.65	3.0840	3.0839	-0.1203	26.94	1.17	-0.750			
0.8783	56209.95	3.0810	3.0811	-0.1201	26.95	1.18	-0.750			
0.8786	56232.79	3.0780	3.0779	-0.1192	26.95	1.18	-0.750			
0.8790	56255.54	3.0750	3.0751	-0.1182	26.96	1.19	-0.750			
0.8793	56278.20	3.0720	3.0720	-0.1172	26.96	1.19	-0.750			
0.8797	56300.61	3.0690	3.0688	-0.1162	26.97	1.20	-0.750			
0.8800	56322.80	3.0660	3.0659	-0.1153	26.97	1.20	-0.750			
0.8804	56344.81	3.0630	3.0631	-0.1143	26.98	1.21	-0.750			
0.8807	56366.65	3.0600	3.0601	-0.1136	26.98	1.21	-0.750			
0.8811	56388.42	3.0570	3.0569	-0.1128	26.99	1.22	-0.750			
0.8814	56409.97	3.0540	3.0540	-0.1121	26.99	1.22	-0.750			
0.8817	56431.27	3.0510	3.0509	-0.1111	27.00	1.23	-0.750			
0.8821	56452.67	3.0480	3.0481	-0.1102	27.00	1.23	-0.750			
0.8824	56473.89	3.0450	3.0449	-0.1095	27.01	1.24	-0.750			
0.8827	56494.52	3.0420	3.0422	-0.1094	27.01	1.24	-0.750			
0.8831	56515.31	3.0390	3.0390	-0.1087	27.02	1.25	-0.750			
0.8834	56536.10	3.0360	3.0360	-0.1087	27.02	1.25	-0.750			
0.8837	56556.74	3.0330	3.0330	-0.1084	27.03	1.26	-0.750			
0.8840	56577.90	3.0300	3.0299	-0.1078	27.03	1.26	-0.750			
0.8844	56598.71	3.0270	3.0270	-0.1076	27.04	1.27	-0.750			
0.8847	56619.45	3.0240	3.0240	-0.1067	27.04	1.27	-0.750			
0.8850	56640.32	3.0210	3.0210	-0.1065	27.05	1.28	-0.750			
0.8853	56660.39	3.0180	3.0181	-0.1055	27.05	1.28	-0.750			
0.8856	56680.32	3.0150	3.0151	-0.1040	27.06	1.29	-0.750			
0.8859	56700.21	3.0120	3.0118	-0.1032	27.06	1.29	-0.750			
0.8862	56719.61	3.0090	3.0091	-0.1027	27.06	1.29	-0.750			
0.8866	56739.33	3.0060	3.0060	-0.1027	27.07	1.30	-0.751			
0.8869	56759.06	3.0030	3.0030	-0.1028	27.07	1.30	-0.751			
