Ah_balance (normalized)	Ah_balance (mAh)	Voltage - fit (V)	Voltage -  interpolate (V)	dQ/dV (1/V)	Temperature (°C)	Temperature - diff (°C)	Current (C)	R_DC 0ms (mOhm)	R_DC 50ms (mOhm)	R_DC 50 ms PEC (mOhm)
0.0525	3360.79	4.1990	4.1991	0.7290	26.50	0.55	0.750			
0.0547	3503.14	4.1960	4.1958	0.7482	26.50	0.55	0.750			
0.0570	3645.91	4.1930	4.1931	0.7508	26.50	0.55	0.750			
0.0592	3790.95	4.1900	4.1900	0.7574	26.50	0.55	0.750			
0.0615	3939.19	4.1870	4.1870	0.7627	26.50	0.55	0.750			
0.0638	4085.46	4.1840	4.1840	0.7583	26.50	0.55	0.750			
0.0661	4230.40	4.1810	4.1810	0.7555	26.50	0.55	0.750			
0.0684	4375.34	4.1780	4.1781	0.7580	26.50	0.55	0.750			
0.0706	4519.71	4.1750	4.1749	0.7566	26.50	0.55	0.750			
0.0729	4663.99	4.1720	4.1720	0.7541	26.50	0.55	0.750			
0.0751	4809.09	4.1690	4.1688	0.7582	26.50	0.55	0.750			
0.0774	4955.64	4.1660	4.1661	0.7637	26.50	0.55	0.750			
0.0797	5103.07	4.1630	4.1630	0.7652	26.50	0.55	0.750			
0.0820	5249.92	4.1600	4.1600	0.7668	26.50	0.55	0.750			
0.0843	5395.46	4.1570	4.1571	0.7682	26.50	0.55	0.750			
0.0866	5544.03	4.1540	4.1540	0.7762	26.50	0.55	0.750			
0.0890	5694.69	4.1510	4.1511	0.7794	26.50	0.55	0.750			
0.0913	5845.99	4.1480	4.1479	0.7792	26.50	0.55	0.750			
0.0937	5995.24	4.1450	4.1451	0.7819	26.50	0.55	0.750			
0.0960	6146.59	4.1420	4.1420	0.7837	26.50	0.55	0.750			
0.0984	6296.62	4.1390	4.1390	0.7819	26.50	0.55	0.750			
0.1007	6445.22	4.1360	4.1360	0.7783	26.50	0.55	0.750			
0.1030	6595.00	4.1330	4.1331	0.7790	26.50	0.55	0.750			
0.1054	6745.95	4.1300	4.1301	0.7781	26.50	0.55	0.750			
0.1077	6893.58	4.1270	4.1270	0.7771	26.50	0.55	0.750			
0.1101	7043.70	4.1240	4.1240	0.7780	26.50	0.55	0.750			
0.1124	7191.30	4.1210	4.1207	0.7749	26.50	0.55	0.750			
0.1147	7339.57	4.1180	4.1181	0.7760	26.50	0.55	0.750			
0.1170	7490.03	4.1150	4.1151	0.7729	26.50	0.55	0.750			
0.1193	7637.75	4.1120	4.1120	0.7778	26.50	0.55	0.750			
0.1217	7787.80	4.1090	4.1089	0.7844	26.50	0.55	0.750			
0.1240	7934.59	4.1060	4.1062	0.7875	26.50	0.55	0.750			
0.1264	8088.08	4.1030	4.1030	0.7976	26.50	0.55	0.750			
0.1288	8244.91	4.1000	4.1000	0.7995	26.50	0.55	0.750			
0.1312	8398.79	4.0970	4.0970	0.8016	26.50	0.55	0.750			
0.1336	8553.58	4.0940	4.0941	0.8067	26.50	0.55	0.750			
0.1360	8706.23	4.0910	4.0911	0.8029	26.50	0.55	0.750			
0.1384	8860.10	4.0880	4.0879	0.8019	26.50	0.55	0.750			
0.1409	9014.60	4.0850	4.0850	0.8036	26.50	0.55	0.750			
0.1433	9169.66	4.0820	4.0821	0.8080	26.50	0.55	0.750			
0.1457	9324.70	4.0790	4.0790	0.8115	26.50	0.55	0.750			
0.1481	9480.35	4.0760	4.0761	0.8134	26.50	0.55	0.750			
0.1506	9636.40	4.0730	4.0729	0.8110	26.50	0.55	0.750			
0.1530	9793.29	4.0700	4.0699	0.8129	26.50	0.55	0.750			
0.1555	9950.35	4.0670	4.0671	0.8112	26.50	0.55	0.750			
0.1579	10103.73	4.0640	4.0640	0.8159	26.50	0.55	0.750			
0.1603	10259.93	4.0610	4.0610	0.8215	26.50	0.55	0.750			
0.1628	10418.22	4.0580	4.0577	0.8236	26.50	0.55	0.750			
0.1653	10576.46	4.0550	4.0551	0.8269	26.50	0.55	0.750			
0.1678	10737.18	4.0520	4.0521	0.8293	26.50	0.55	0.750			
0.1703	10897.04	4.0490	4.0489	0.8346	26.50	0.55	0.750			
0.1727	11055.93	4.0460	4.0460	0.8322	26.50	0.55	0.750			
0.1752	11215.69	4.0430	4.0429	0.8360	26.50	0.55	0.750			
0.1778	11376.78	4.0400	4.0400	0.8401	26.50	0.55	0.750			
0.1803	11539.37	4.0370	4.0371	0.8446	26.50	0.55	0.750			
0.1828	11702.26	4.0340	4.0341	0.8472	26.50	0.55	0.750			
0.1854	11864.14	4.0310	4.0310	0.8477	26.50	0.55	0.750			
0.1879	12026.91	4.0280	4.0279	0.8470	26.50	0.55	0.750			
0.1905	12192.17	4.0250	4.0250	0.8454	26.50	0.55	0.750			
0.1930	12352.80	4.0220	4.0220	0.8517	26.50	0.55	0.750			
0.1956	12517.09	4.0190	4.0191	0.8545	26.51	0.56	0.750			
0.1981	12680.23	4.0160	4.0160	0.8543	26.51	0.56	0.750			
0.2007	12844.80	4.0130	4.0129	0.8622	26.51	0.56	0.750			
0.2033	13012.22	4.0100	4.0101	0.8624	26.51	0.56	0.750			
0.2059	13179.28	4.0070	4.0070	0.8696	26.51	0.56	0.750			
0.2085	13346.38	4.0040	4.0040	0.8731	26.51	0.56	0.750			
0.2111	13512.04	4.0010	4.0011	0.8732	26.51	0.56	0.750			
0.2138	13681.72	3.9980	3.9980	0.8799	26.51	0.56	0.750			
0.2164	13851.41	3.9950	3.9951	0.8797	26.51	0.56	0.750			
0.2191	14020.84	3.9920	3.9920	0.8806	26.51	0.56	0.750			
0.2217	14190.73	3.9890	3.9891	0.8834	26.51	0.56	0.750			
0.2244	14359.43	3.9860	3.9859	0.8829	26.51	0.56	0.750			
0.2270	14529.03	3.9830	3.9830	0.8854	26.51	0.56	0.750			
0.2297	14698.60	3.9800	3.9800	0.8816	26.51	0.56	0.750			
0.2323	14867.65	3.9770	3.9771	0.8877	26.52	0.57	0.750			
0.2350	15039.02	3.9740	3.9740	0.8954	26.52	0.57	0.750			
0.2377	15210.99	3.9710	3.9706	0.8974	26.52	0.57	0.750			
0.2404	15383.93	3.9680	3.9681	0.8989	26.52	0.57	0.750			
0.2431	15557.47	3.9650	3.9651	0.9024	26.52	0.57	0.750			
0.2458	15733.25	3.9620	3.9620	0.9077	26.51	0.56	0.750			
0.2486	15907.79	3.9590	3.9590	0.9103	26.51	0.56	0.750			
0.2512	16079.45	3.9560	3.9561	0.9040	26.51	0.56	0.750			
0.2540	16253.82	3.9530	3.9530	0.9021	26.51	0.56	0.750			
0.2567	16426.96	3.9500	3.9500	0.9068	26.52	0.57	0.750			
0.2594	16601.33	3.9470	3.9471	0.9054	26.52	0.57	0.750			
0.2621	16775.47	3.9440	3.9438	0.9038	26.52	0.57	0.750			
0.2648	16949.98	3.9410	3.9409	0.9017	26.52	0.57	0.750			
0.2675	17121.69	3.9380	3.9381	0.9037	26.51	0.56	0.750			
0.2702	17295.23	3.9350	3.9350	0.9079	26.51	0.56	0.750			
0.2730	17469.67	3.9320	3.9320	0.9143	26.50	0.55	0.750			
0.2757	17643.45	3.9290	3.9289	0.9138	26.50	0.55	0.750			
0.2785	17822.16	3.9260	3.9260	0.9168	26.50	0.55	0.750			
0.2813	18000.02	3.9230	3.9230	0.9175	26.50	0.55	0.750			
0.2840	18175.07	3.9200	3.9200	0.9176	26.50	0.55	0.750			
0.2867	18349.39	3.9170	3.9171	0.9150	26.50	0.55	0.750			
0.2895	18526.63	3.9140	3.9139	0.9166	26.50	0.55	0.750			
0.2922	18702.26	3.9110	3.9110	0.9156	26.50	0.55	0.750			
0.2950	18878.55	3.9080	3.9080	0.9213	26.49	0.54	0.750			
0.2978	19056.46	3.9050	3.9051	0.9294	26.49	0.54	0.750			
0.3005	19233.53	3.9020	3.9018	0.9301	26.49	0.54	0.750			
0.3033	19413.77	3.8990	3.8990	0.9263	26.48	0.53	0.750			
0.3061	19591.03	3.8960	3.8961	0.9328	26.48	0.53	0.750			
0.3089	19770.82	3.8930	3.8931	0.9389	26.47	0.52	0.750			
0.3118	19952.63	3.8900	3.8899	0.9426	26.46	0.51	0.750			
0.3146	20132.89	3.8870	3.8871	0.9458	26.46	0.51	0.750			
0.3174	20314.20	3.8840	3.8840	0.9482	26.45	0.50	0.750			
0.3203	20497.55	3.8810	3.8810	0.9567	26.44	0.49	0.750			
0.3232	20682.74	3.8780	3.8780	0.9662	26.44	0.49	0.750			
0.3261	20867.74	3.8750	3.8750	0.9678	26.43	0.48	0.750			
0.3290	21054.53	3.8720	3.8720	0.9724	26.42	0.47	0.750			
0.3319	21240.77	3.8690	3.8690	0.9824	26.41	0.46	0.750			
0.3348	21430.18	3.8660	3.8661	0.9878	26.40	0.45	0.750			
0.3378	21620.21	3.8630	3.8630	0.9953	26.39	0.44	0.750			
0.3408	21811.82	3.8600	3.8600	0.9974	26.38	0.43	0.750			
0.3438	22003.48	3.8570	3.8570	1.0068	26.38	0.43	0.750			
0.3468	22198.40	3.8540	3.8541	1.0187	26.37	0.42	0.750			
0.3499	22395.92	3.8510	3.8507	1.0237	26.36	0.41	0.750			
0.3530	22592.09	3.8480	3.8480	1.0254	26.35	0.40	0.750			
0.3561	22791.36	3.8450	3.8451	1.0342	26.34	0.39	0.750			
0.3592	22990.61	3.8420	3.8420	1.0358	26.32	0.37	0.750			
0.3623	23189.91	3.8390	3.8389	1.0393	26.31	0.36	0.750			
0.3654	23386.88	3.8360	3.8360	1.0320	26.30	0.35	0.750			
0.3685	23584.50	3.8330	3.8330	1.0373	26.29	0.34	0.750			
0.3716	23785.52	3.8300	3.8300	1.0438	26.28	0.33	0.750			
0.3748	23985.00	3.8270	3.8267	1.0456	26.27	0.32	0.750			
0.3780	24191.53	3.8240	3.8240	1.0337	26.27	0.32	0.750			
0.3811	24388.07	3.8210	3.8211	1.0446	26.26	0.31	0.750			
0.3842	24585.93	3.8180	3.8182	1.0546	26.26	0.31	0.750			
0.3874	24790.51	3.8150	3.8146	1.0627	26.25	0.30	0.750			
0.3905	24992.54	3.8120	3.8121	1.0601	26.24	0.29	0.750			
0.3937	25195.97	3.8090	3.8091	1.0752	26.23	0.28	0.750			
0.3969	25403.86	3.8060	3.8061	1.0896	26.21	0.26	0.750			
0.4003	25620.74	3.8030	3.8026	1.0973	26.20	0.25	0.750			
0.4035	25826.76	3.8000	3.8001	1.0945	26.19	0.24	0.750			
0.4068	26036.03	3.7970	3.7971	1.1046	26.17	0.22	0.750			
0.4101	26249.54	3.7940	3.7941	1.1254	26.16	0.21	0.750			
0.4135	26466.73	3.7910	3.7908	1.1217	26.15	0.20	0.750			
0.4169	26680.92	3.7880	3.7880	1.1505	26.14	0.19	0.750			
0.4204	26905.53	3.7850	3.7851	1.1711	26.13	0.18	0.750			
0.4240	27137.22	3.7820	3.7819	1.1840	26.12	0.17	0.750			
0.4276	27365.46	3.7790	3.7792	1.1994	26.11	0.16	0.750			
0.4312	27595.08	3.7760	3.7761	1.2142	26.10	0.15	0.750			
0.4349	27831.39	3.7730	3.7731	1.2203	26.08	0.13	0.750			
0.4385	28062.79	3.7700	3.7699	1.2388	26.07	0.12	0.750			
0.4422	28299.65	3.7670	3.7671	1.2794	26.06	0.11	0.750			
0.4461	28549.65	3.7640	3.7640	1.3244	26.04	0.09	0.750	0.308	0.404	
0.4502	28810.78	3.7610	3.7608	1.3419	26.03	0.08	0.750			
0.4542	29070.79	3.7580	3.7582	1.3763	26.02	0.07	0.750			
0.4585	29341.33	3.7550	3.7552	1.4135	26.02	0.07	0.750			
0.4627	29614.16	3.7520	3.7517	1.4403	26.01	0.06	0.750			
0.4671	29893.28	3.7490	3.7488	1.4621	25.99	0.04	0.750			
0.4715	30178.48	3.7460	3.7462	1.4921	25.97	0.02	0.750			
0.4761	30470.29	3.7430	3.7431	1.5362	25.96	0.01	0.750			
0.4808	30771.32	3.7400	3.7398	1.5547	25.94	-0.01	0.750			
0.4854	31066.20	3.7370	3.7371	1.5887	25.92	-0.03	0.750			
0.4902	31371.39	3.7340	3.7341	1.6470	25.90	-0.05	0.750			
0.4952	31695.17	3.7310	3.7310	1.6908	25.89	-0.06	0.750			
0.5004	32027.27	3.7280	3.7279	1.7484	25.88	-0.07	0.750			
0.5057	32365.55	3.7250	3.7250	1.7940	25.86	-0.09	0.750			
0.5113	32723.18	3.7220	3.7221	1.8537	25.84	-0.11	0.750			
0.5169	33080.57	3.7190	3.7189	1.9301	25.83	-0.12	0.750			
0.5226	33447.50	3.7160	3.7158	1.9599	25.82	-0.13	0.750			
0.5286	33832.88	3.7130	3.7129	2.0123	25.80	-0.15	0.750			
0.5348	34228.07	3.7100	3.7102	2.0611	25.78	-0.17	0.750			
0.5410	34626.58	3.7070	3.7070	2.1090	25.76	-0.19	0.750			
0.5474	35036.16	3.7040	3.7035	2.1611	25.74	-0.21	0.750			
0.5540	35456.95	3.7010	3.7010	2.2266	25.72	-0.23	0.750			
0.5608	35894.36	3.6980	3.6981	2.3103	25.70	-0.25	0.750			
0.5677	36335.89	3.6950	3.6949	2.3849	25.69	-0.26	0.750			
0.5750	36798.72	3.6920	3.6921	2.4569	25.67	-0.28	0.750			
0.5825	37278.73	3.6890	3.6890	2.5097	25.66	-0.29	0.750			
0.5902	37770.19	3.6860	3.6861	2.5718	25.65	-0.30	0.750			
0.5979	38264.07	3.6830	3.6830	2.6621	25.63	-0.32	0.750			
0.6061	38787.46	3.6800	3.6798	2.7360	25.62	-0.33	0.750			
0.6143	39318.05	3.6770	3.6771	2.8450	25.61	-0.34	0.750			
0.6231	39881.54	3.6740	3.6740	2.9547	25.59	-0.36	0.750			
0.6321	40457.03	3.6710	3.6711	3.0502	25.58	-0.37	0.750			
0.6415	41054.72	3.6680	3.6681	3.0398	25.58	-0.37	0.750			
0.6510	41660.94	3.6650	3.6650	2.9177	25.58	-0.37	0.750			
0.6594	42200.77	3.6620	3.6619	2.6369	25.58	-0.37	0.750			
0.6667	42670.79	3.6590	3.6590	2.3586	25.58	-0.37	0.750			
0.6732	43085.12	3.6560	3.6560	2.0996	25.59	-0.36	0.750			
0.6789	43451.41	3.6530	3.6532	1.8992	25.59	-0.36	0.750			
0.6842	43788.34	3.6500	3.6500	1.7210	25.60	-0.35	0.750			
0.6891	44101.29	3.6470	3.6469	1.5997	25.60	-0.35	0.750			
0.6937	44396.40	3.6440	3.6441	1.4985	25.60	-0.35	0.750			
0.6980	44674.36	3.6410	3.6410	1.4007	25.60	-0.35	0.750			
0.7020	44929.64	3.6380	3.6380	1.3013	25.60	-0.35	0.750			
0.7056	45161.25	3.6350	3.6352	1.2315	25.61	-0.34	0.750			
0.7092	45387.27	3.6320	3.6321	1.1967	25.61	-0.34	0.750			
0.7126	45608.24	3.6290	3.6286	1.1891	25.62	-0.33	0.750			
0.7161	45829.58	3.6260	3.6260	1.1706	25.62	-0.33	0.750			
0.7196	46055.09	3.6230	3.6231	1.1898	25.62	-0.33	0.750			
0.7233	46288.63	3.6200	3.6202	1.2096	25.62	-0.33	0.750			
0.7269	46522.08	3.6170	3.6171	1.2059	25.62	-0.33	0.750			
0.7306	46756.36	3.6140	3.6142	1.2058	25.63	-0.32	0.750			
0.7342	46990.82	3.6110	3.6110	1.1989	25.63	-0.32	0.750			
0.7379	47225.17	3.6080	3.6077	1.1694	25.64	-0.31	0.750			
0.7413	47445.32	3.6050	3.6053	1.1497	25.64	-0.31	0.750			
0.7447	47660.99	3.6020	3.6020	1.1429	25.64	-0.31	0.750			
0.7481	47876.47	3.5990	3.5990	1.1405	25.64	-0.31	0.750			
0.7514	48090.65	3.5960	3.5961	1.1362	25.64	-0.31	0.750			
0.7548	48308.09	3.5930	3.5932	1.1622	25.65	-0.30	0.750			
0.7583	48533.81	3.5900	3.5900	1.1960	25.65	-0.30	0.750			
0.7620	48768.21	3.5870	3.5868	1.2266	25.66	-0.29	0.750			
0.7657	49003.51	3.5840	3.5841	1.2624	25.66	-0.29	0.750			
0.7695	49249.16	3.5810	3.5810	1.3150	25.66	-0.29	0.750			
0.7736	49509.19	3.5780	3.5780	1.3557	25.66	-0.29	0.750			
0.7778	49779.23	3.5750	3.5750	1.3965	25.66	-0.29	0.750			
0.7820	50046.86	3.5720	3.5720	1.4385	25.66	-0.29	0.750			
0.7864	50331.69	3.5690	3.5690	1.4720	25.66	-0.29	0.750			
0.7909	50617.83	3.5660	3.5661	1.5135	25.66	-0.29	0.750			
0.7955	50909.39	3.5630	3.5628	1.5508	25.66	-0.29	0.750			
0.8001	51208.88	3.5600	3.5598	1.5969	25.66	-0.29	0.750			
0.8050	51522.05	3.5570	3.5568	1.6124	25.66	-0.29	0.750			
0.8100	51841.20	3.5540	3.5538	1.6236	25.66	-0.29	0.750			
0.8149	52155.58	3.5510	3.5512	1.6214	25.66	-0.29	0.750			
0.8198	52466.62	3.5480	3.5477	1.6358	25.67	-0.28	0.750			
0.8246	52777.47	3.5450	3.5450	1.6496	25.68	-0.27	0.750			
0.8296	53091.24	3.5420	3.5423	1.6899	25.69	-0.26	0.750			
0.8348	53424.85	3.5390	3.5392	1.7226	25.70	-0.25	0.750			
0.8400	53761.42	3.5360	3.5358	1.7621	25.71	-0.24	0.750			
0.8456	54119.95	3.5330	3.5329	1.7574	25.72	-0.23	0.750			
0.8513	54480.79	3.5300	3.5295	1.6599	25.73	-0.22	0.750			
0.8565	54814.47	3.5270	3.5272	1.4603	25.76	-0.19	0.750			
0.8605	55073.30	3.5240	3.5247	1.1842	25.78	-0.17	0.750			
0.8636	55271.92	3.5210	3.5214	0.9363	25.80	-0.15	0.750			
0.8660	55421.12	3.5180	3.5173	0.7026	25.81	-0.14	0.750			
0.8671	55494.51	3.5150	3.5147	0.5139	25.82	-0.13	0.750			
0.8682	55564.29	3.5120	3.5119	0.4117	25.82	-0.13	0.750			
0.8692	55631.24	3.5090	3.5090	0.3627	25.83	-0.12	0.750			
0.8703	55696.12	3.5060	3.5059	0.3379	25.84	-0.11	0.750			
0.8712	55757.01	3.5030	3.5032	0.3206	25.84	-0.11	0.750			
0.8721	55816.81	3.5000	3.5000	0.3071	25.85	-0.10	0.750			
0.8730	55874.37	3.4970	3.4969	0.2966	25.86	-0.09	0.750			
0.8739	55929.95	3.4940	3.4941	0.2872	25.86	-0.09	0.750			
0.8747	55983.67	3.4910	3.4911	0.2800	25.87	-0.08	0.750			
0.8756	56036.76	3.4880	3.4880	0.2735	25.87	-0.08	0.750			
0.8764	56087.87	3.4850	3.4849	0.2654	25.88	-0.07	0.750			
0.8772	56138.23	3.4820	3.4821	0.2613	25.88	-0.07	0.750			
0.8779	56188.35	3.4790	3.4790	0.2557	25.89	-0.06	0.750			
0.8787	56237.25	3.4760	3.4760	0.2506	25.89	-0.06	0.750			
0.8795	56284.97	3.4730	3.4729	0.2452	25.90	-0.05	0.750			
0.8802	56331.17	3.4700	3.4701	0.2386	25.90	-0.05	0.750			
0.8809	56376.32	3.4670	3.4669	0.2333	25.91	-0.04	0.750			
0.8816	56420.64	3.4640	3.4642	0.2285	25.91	-0.04	0.750			
0.8822	56463.69	3.4610	3.4609	0.2234	25.91	-0.04	0.750			
0.8829	56505.76	3.4580	3.4580	0.2186	25.92	-0.03	0.750			
0.8836	56547.73	3.4550	3.4550	0.2151	25.92	-0.03	0.750			
0.8842	56588.58	3.4520	3.4521	0.2096	25.93	-0.02	0.750			
0.8848	56628.61	3.4490	3.4489	0.2053	25.93	-0.02	0.750			
0.8854	56667.56	3.4460	3.4460	0.1998	25.94	-0.01	0.750			
0.8860	56705.65	3.4430	3.4431	0.1941	25.94	-0.01	0.750			
0.8866	56742.10	3.4400	3.4400	0.1891	25.94	-0.01	0.750			
0.8872	56777.66	3.4370	3.4370	0.1834	25.95	-0.00	0.750			
0.8877	56812.43	3.4340	3.4341	0.1786	25.95	-0.00	0.750			
0.8882	56846.18	3.4310	3.4309	0.1731	25.95	0.00	0.750			
0.8887	56879.09	3.4280	3.4280	0.1685	25.96	0.01	0.750			
0.8892	56910.96	3.4250	3.4251	0.1634	25.96	0.01	0.750			
0.8897	56941.99	3.4220	3.4220	0.1580	25.96	0.01	0.750			
0.8902	56972.03	3.4190	3.4189	0.1526	25.97	0.02	0.750			
0.8906	57000.46	3.4160	3.4159	0.1463	25.97	0.02	0.750			
0.8911	57028.03	3.4130	3.4132	0.1409	25.97	0.02	0.750			
0.8915	57054.77	3.4100	3.4100	0.1351	25.97	0.02	0.750			
0.8919	57080.30	3.4070	3.4070	0.1294	25.98	0.03	0.750			
0.8923	57104.75	3.4040	3.4040	0.1225	25.98	0.03	0.750			
0.8926	57127.62	3.4010	3.4010	0.1157	25.98	0.03	0.750			
0.8930	57150.97	3.3980	3.3979	0.1072	25.98	0.03	0.750			
0.8933	57170.91	3.3950	3.3950	0.0990	25.99	0.04	0.750			
0.8936	57188.92	3.3920	3.3919	0.0886	25.99	0.04	0.750			
0.8938	57205.54	3.3890	3.3890	0.0792	25.99	0.04	0.750			
0.8941	57219.70	3.3860	3.3866	0.0682	25.99	0.04	0.750			
0.8943	57232.78	3.3830	3.3835	0.0577	25.99	0.04	0.750			
0.8944	57242.71	3.3800	3.3809	0.0457	25.99	0.04	0.750			
0.8945	57250.34	3.3770	3.3786	0.0337	25.99	0.04	0.750			
0.8946	57255.67	3.3740	3.3762	0.0218	25.99	0.04	0.750			
0.8947	57258.70	3.3710	3.3746	0.0098	25.99	0.04	0.750			
