Ah_balance (normalized)	Ah_balance (mAh)	Voltage - fit (V)	Voltage -  interpolate (V)	dQ/dV (1/V)	Temperature (°C)	Temperature - diff (°C)	Current (C)	R_DC 0ms (mOhm)	R_DC 50ms (mOhm)	R_DC 50 ms PEC (mOhm)
0.0002	12.00	4.1630	4.1628	-0.1117	25.86	0.01	-0.750			
0.0006	37.89	4.1600	4.1601	-0.1549	25.86	0.01	-0.750			
0.0011	71.05	4.1570	4.1570	-0.1947	25.86	0.01	-0.750			
0.0018	112.57	4.1540	4.1541	-0.2352	25.86	0.01	-0.750			
0.0025	162.01	4.1510	4.1511	-0.2724	25.85	0.00	-0.750			
0.0034	218.77	4.1480	4.1479	-0.3092	25.85	0.00	-0.750			
0.0044	282.58	4.1450	4.1452	-0.3446	25.85	-0.00	-0.750			
0.0055	352.01	4.1420	4.1419	-0.3751	25.85	-0.00	-0.750			
0.0067	427.43	4.1390	4.1390	-0.4067	25.84	-0.01	-0.750			
0.0079	508.78	4.1360	4.1361	-0.4362	25.84	-0.01	-0.750			
0.0093	595.44	4.1330	4.1330	-0.4636	25.84	-0.01	-0.750			
0.0107	687.26	4.1300	4.1300	-0.4913	25.83	-0.02	-0.750			
0.0123	784.99	4.1270	4.1270	-0.5127	25.83	-0.02	-0.750			
0.0138	886.01	4.1240	4.1239	-0.5331	25.83	-0.02	-0.750			
0.0155	991.86	4.1210	4.1210	-0.5534	25.82	-0.03	-0.750			
0.0172	1099.79	4.1180	4.1181	-0.5690	25.82	-0.03	-0.750			
0.0189	1211.57	4.1150	4.1150	-0.5826	25.81	-0.04	-0.750			
0.0207	1325.03	4.1120	4.1120	-0.5935	25.81	-0.04	-0.750			
0.0225	1439.52	4.1090	4.1090	-0.6046	25.81	-0.04	-0.750			
0.0243	1557.52	4.1060	4.1060	-0.6159	25.80	-0.05	-0.750			
0.0262	1676.55	4.1030	4.1030	-0.6231	25.80	-0.05	-0.750			
0.0281	1796.77	4.1000	4.1000	-0.6300	25.79	-0.06	-0.750			
0.0300	1918.39	4.0970	4.0970	-0.6395	25.79	-0.06	-0.750			
0.0319	2042.38	4.0940	4.0940	-0.6481	25.79	-0.06	-0.750			
0.0339	2167.95	4.0910	4.0909	-0.6543	25.79	-0.06	-0.750			
0.0358	2293.67	4.0880	4.0880	-0.6627	25.78	-0.07	-0.750			
0.0379	2423.15	4.0850	4.0850	-0.6695	25.78	-0.07	-0.750			
0.0399	2553.20	4.0820	4.0820	-0.6743	25.78	-0.07	-0.750			
0.0419	2683.23	4.0790	4.0791	-0.6747	25.78	-0.07	-0.750			
0.0439	2812.38	4.0760	4.0760	-0.6758	25.78	-0.07	-0.750			
0.0460	2941.47	4.0730	4.0730	-0.6812	25.78	-0.07	-0.750			
0.0480	3071.97	4.0700	4.0700	-0.6833	25.77	-0.08	-0.750			
0.0501	3203.73	4.0670	4.0669	-0.6872	25.77	-0.08	-0.750			
0.0521	3336.39	4.0640	4.0640	-0.6903	25.77	-0.08	-0.750			
0.0542	3469.88	4.0610	4.0613	-0.6947	25.77	-0.08	-0.750			
0.0563	3603.53	4.0580	4.0579	-0.6975	25.77	-0.08	-0.750			
0.0584	3736.26	4.0550	4.0551	-0.7014	25.77	-0.08	-0.750			
0.0605	3871.38	4.0520	4.0520	-0.7059	25.76	-0.09	-0.750			
0.0626	4008.74	4.0490	4.0490	-0.7104	25.76	-0.09	-0.750			
0.0648	4146.04	4.0460	4.0460	-0.7110	25.76	-0.09	-0.750			
0.0669	4283.03	4.0430	4.0431	-0.7136	25.76	-0.09	-0.750			
0.0691	4420.57	4.0400	4.0400	-0.7095	25.76	-0.09	-0.750			
0.0712	4554.46	4.0370	4.0370	-0.7139	25.76	-0.09	-0.750			
0.0733	4691.22	4.0340	4.0340	-0.7168	25.77	-0.08	-0.750			
0.0755	4829.90	4.0310	4.0310	-0.7198	25.77	-0.08	-0.750			
0.0776	4968.47	4.0280	4.0280	-0.7243	25.77	-0.08	-0.750			
0.0798	5109.01	4.0250	4.0251	-0.7262	25.77	-0.08	-0.750			
0.0820	5248.06	4.0220	4.0221	-0.7283	25.77	-0.08	-0.750			
0.0842	5388.44	4.0190	4.0190	-0.7325	25.77	-0.08	-0.750			
0.0864	5527.98	4.0160	4.0159	-0.7273	25.77	-0.08	-0.750			
0.0886	5669.14	4.0130	4.0130	-0.7297	25.77	-0.08	-0.750			
0.0908	5809.00	4.0100	4.0100	-0.7335	25.77	-0.08	-0.750			
0.0930	5949.90	4.0070	4.0070	-0.7349	25.77	-0.08	-0.750			
0.0952	6091.62	4.0040	4.0039	-0.7372	25.77	-0.08	-0.750			
0.0974	6232.07	4.0010	4.0010	-0.7375	25.77	-0.08	-0.750			
0.0996	6373.90	3.9980	3.9981	-0.7400	25.77	-0.08	-0.750			
0.1018	6517.96	3.9950	3.9950	-0.7393	25.77	-0.08	-0.750			
0.1041	6659.47	3.9920	3.9921	-0.7427	25.77	-0.08	-0.750			
0.1063	6801.11	3.9890	3.9890	-0.7445	25.77	-0.08	-0.750			
0.1085	6944.08	3.9860	3.9858	-0.7459	25.77	-0.08	-0.750			
0.1108	7088.37	3.9830	3.9830	-0.7511	25.77	-0.08	-0.750			
0.1130	7232.93	3.9800	3.9800	-0.7549	25.77	-0.08	-0.750			
0.1153	7379.60	3.9770	3.9770	-0.7576	25.77	-0.08	-0.750			
0.1176	7525.62	3.9740	3.9740	-0.7601	25.77	-0.08	-0.750			
0.1198	7668.76	3.9710	3.9710	-0.7584	25.77	-0.08	-0.750			
0.1221	7815.23	3.9680	3.9679	-0.7636	25.78	-0.07	-0.750			
0.1244	7962.51	3.9650	3.9650	-0.7592	25.78	-0.07	-0.750			
0.1267	8109.48	3.9620	3.9620	-0.7646	25.79	-0.06	-0.750			
0.1290	8256.47	3.9590	3.9591	-0.7654	25.79	-0.06	-0.750			
0.1313	8403.50	3.9560	3.9560	-0.7692	25.79	-0.06	-0.750			
0.1336	8549.76	3.9530	3.9529	-0.7699	25.79	-0.06	-0.750			
0.1359	8698.43	3.9500	3.9500	-0.7732	25.79	-0.06	-0.750			
0.1382	8847.21	3.9470	3.9470	-0.7770	25.79	-0.06	-0.750			
0.1406	8998.02	3.9440	3.9440	-0.7800	25.79	-0.06	-0.750			
0.1429	9147.44	3.9410	3.9410	-0.7810	25.79	-0.06	-0.750			
0.1452	9294.95	3.9380	3.9380	-0.7887	25.80	-0.05	-0.750			
0.1476	9448.04	3.9350	3.9350	-0.7895	25.80	-0.05	-0.750			
0.1500	9600.86	3.9320	3.9319	-0.7908	25.80	-0.05	-0.750			
0.1524	9753.89	3.9290	3.9289	-0.7907	25.81	-0.04	-0.750			
0.1548	9906.45	3.9260	3.9262	-0.7915	25.81	-0.04	-0.750			
0.1572	10058.36	3.9230	3.9230	-0.7885	25.81	-0.04	-0.750			
0.1595	10207.00	3.9200	3.9200	-0.7907	25.81	-0.04	-0.750			
0.1618	10356.60	3.9170	3.9170	-0.7882	25.82	-0.03	-0.750			
0.1642	10511.50	3.9140	3.9140	-0.7983	25.82	-0.03	-0.750			
0.1667	10665.89	3.9110	3.9110	-0.8007	25.82	-0.03	-0.750			
0.1690	10819.09	3.9080	3.9081	-0.8045	25.82	-0.03	-0.750			
0.1715	10974.17	3.9050	3.9050	-0.8093	25.82	-0.03	-0.750			
0.1739	11130.57	3.9020	3.9020	-0.8118	25.82	-0.03	-0.750			
0.1764	11287.21	3.8990	3.8989	-0.8061	25.82	-0.03	-0.750			
0.1788	11443.13	3.8960	3.8961	-0.8080	25.82	-0.03	-0.750			
0.1812	11597.24	3.8930	3.8930	-0.8089	25.82	-0.03	-0.750			
0.1836	11752.14	3.8900	3.8899	-0.8102	25.83	-0.02	-0.750			
0.1860	11906.99	3.8870	3.8869	-0.8085	25.84	-0.01	-0.750			
0.1885	12061.59	3.8840	3.8840	-0.8092	25.84	-0.01	-0.750			
0.1909	12219.26	3.8810	3.8811	-0.8141	25.85	-0.00	-0.750			
0.1934	12376.27	3.8780	3.8779	-0.8162	25.85	0.00	-0.750			
0.1958	12531.16	3.8750	3.8750	-0.8161	25.86	0.01	-0.750			
0.1983	12688.79	3.8720	3.8720	-0.8134	25.86	0.01	-0.750			
0.2007	12844.78	3.8690	3.8690	-0.8131	25.86	0.01	-0.750			
0.2032	13002.76	3.8660	3.8660	-0.8158	25.87	0.02	-0.750			
0.2056	13158.20	3.8630	3.8630	-0.8160	25.87	0.02	-0.750			
0.2080	13313.82	3.8600	3.8599	-0.8198	25.87	0.02	-0.750			
0.2105	13471.67	3.8570	3.8571	-0.8204	25.88	0.03	-0.750			
0.2130	13629.63	3.8540	3.8539	-0.8217	25.88	0.03	-0.750			
0.2155	13789.32	3.8510	3.8510	-0.8242	25.88	0.03	-0.750			
0.2179	13947.83	3.8480	3.8480	-0.8236	25.88	0.03	-0.750			
0.2204	14104.42	3.8450	3.8450	-0.8311	25.89	0.04	-0.750			
0.2229	14264.88	3.8420	3.8419	-0.8267	25.89	0.04	-0.750			
0.2254	14424.33	3.8390	3.8389	-0.8238	25.89	0.04	-0.750			
0.2279	14583.67	3.8360	3.8360	-0.8240	25.90	0.05	-0.750			
0.2303	14742.11	3.8330	3.8329	-0.8219	25.90	0.05	-0.750			
0.2328	14899.20	3.8300	3.8300	-0.8174	25.90	0.05	-0.750			
0.2352	15053.78	3.8270	3.8269	-0.8120	25.90	0.05	-0.750			
0.2376	15207.18	3.8240	3.8241	-0.8118	25.91	0.06	-0.750			
0.2401	15365.67	3.8210	3.8210	-0.8208	25.91	0.06	-0.750			
0.2426	15523.81	3.8180	3.8179	-0.8195	25.91	0.06	-0.750			
0.2450	15681.14	3.8150	3.8150	-0.8175	25.92	0.07	-0.750			
0.2475	15838.70	3.8120	3.8121	-0.8164	25.92	0.07	-0.750			
0.2499	15996.25	3.8090	3.8090	-0.8135	25.93	0.08	-0.750			
0.2524	16151.94	3.8060	3.8060	-0.8083	25.94	0.09	-0.750			
0.2548	16304.54	3.8030	3.8030	-0.8026	25.94	0.09	-0.750			
0.2572	16458.75	3.8000	3.8000	-0.8021	25.94	0.09	-0.750			
0.2596	16613.43	3.7970	3.7970	-0.8047	25.94	0.09	-0.750			
0.2620	16768.83	3.7940	3.7940	-0.8007	25.95	0.10	-0.750			
0.2644	16923.05	3.7910	3.7910	-0.7980	25.95	0.10	-0.750			
0.2668	17075.98	3.7880	3.7882	-0.7937	25.95	0.10	-0.750			
0.2692	17227.88	3.7850	3.7850	-0.7884	25.95	0.10	-0.750			
0.2715	17378.37	3.7820	3.7819	-0.7832	25.96	0.11	-0.750			
0.2739	17527.19	3.7790	3.7790	-0.7788	25.96	0.11	-0.750			
0.2762	17676.92	3.7760	3.7760	-0.7788	25.97	0.12	-0.750			
0.2785	17825.47	3.7730	3.7730	-0.7768	25.97	0.12	-0.750			
0.2809	17974.95	3.7700	3.7699	-0.7742	25.97	0.12	-0.750			
0.2832	18122.76	3.7670	3.7669	-0.7751	25.98	0.13	-0.750			
0.2855	18271.56	3.7640	3.7640	-0.7739	25.98	0.13	-0.750			
0.2878	18420.92	3.7610	3.7611	-0.7707	25.98	0.13	-0.750			
0.2901	18569.18	3.7580	3.7579	-0.7688	25.99	0.14	-0.750			
0.2924	18716.11	3.7550	3.7551	-0.7686	25.99	0.14	-0.750			
0.2947	18860.09	3.7520	3.7521	-0.7719	25.99	0.14	-0.750			
0.2970	19009.54	3.7490	3.7489	-0.7757	26.00	0.15	-0.750			
0.2994	19159.49	3.7460	3.7460	-0.7736	26.00	0.15	-0.750			
0.3017	19309.38	3.7430	3.7430	-0.7786	26.01	0.16	-0.750			
0.3041	19460.15	3.7400	3.7402	-0.7863	26.01	0.16	-0.750			
0.3064	19609.62	3.7370	3.7369	-0.7910	26.01	0.16	-0.750			
0.3087	19758.20	3.7340	3.7340	-0.8029	26.01	0.16	-0.750			
0.3111	19913.20	3.7310	3.7310	-0.8198	26.01	0.16	-0.750			
0.3137	20075.14	3.7280	3.7278	-0.8357	26.01	0.16	-0.750			
0.3162	20237.66	3.7250	3.7252	-0.8484	26.01	0.16	-0.750			
0.3188	20401.39	3.7220	3.7220	-0.8624	26.01	0.16	-0.750			
0.3214	20567.72	3.7190	3.7189	-0.8731	26.02	0.17	-0.750			
0.3240	20734.84	3.7160	3.7160	-0.8812	26.02	0.17	-0.750			
0.3266	20904.51	3.7130	3.7130	-0.8950	26.03	0.18	-0.750			
0.3294	21079.06	3.7100	3.7101	-0.9142	26.03	0.18	-0.750			
0.3321	21256.50	3.7070	3.7070	-0.9341	26.03	0.18	-0.750			
0.3350	21437.22	3.7040	3.7040	-0.9470	26.03	0.18	-0.750			
0.3378	21620.55	3.7010	3.7009	-0.9626	26.03	0.18	-0.750			
0.3407	21807.24	3.6980	3.6981	-0.9806	26.03	0.18	-0.750			
0.3437	21996.97	3.6950	3.6950	-0.9988	26.03	0.18	-0.750			
0.3467	22190.24	3.6920	3.6920	-1.0165	26.02	0.17	-0.750			
0.3498	22386.37	3.6890	3.6890	-1.0355	26.02	0.17	-0.750			
0.3529	22585.63	3.6860	3.6860	-1.0518	26.01	0.16	-0.750			
0.3561	22790.00	3.6830	3.6830	-1.0842	26.01	0.16	-0.750			
0.3594	23001.26	3.6800	3.6800	-1.1038	26.01	0.16	-0.750			
0.3627	23215.83	3.6770	3.6768	-1.1248	26.01	0.16	-0.750			
0.3662	23435.08	3.6740	3.6742	-1.1396	26.01	0.16	-0.750			
0.3696	23655.58	3.6710	3.6710	-1.1682	26.01	0.16	-0.750			
0.3732	23881.93	3.6680	3.6680	-1.1880	26.00	0.15	-0.750			
0.3767	24109.37	3.6650	3.6649	-1.2178	25.99	0.14	-0.750			
0.3804	24343.17	3.6620	3.6621	-1.2354	25.99	0.14	-0.750			
0.3842	24586.67	3.6590	3.6590	-1.2665	25.98	0.13	-0.750			
0.3880	24831.54	3.6560	3.6559	-1.2910	25.98	0.13	-0.750			
0.3919	25080.04	3.6530	3.6533	-1.3224	25.97	0.12	-0.750			
0.3959	25340.53	3.6500	3.6499	-1.3548	25.96	0.11	-0.750			
0.4001	25604.56	3.6470	3.6469	-1.3827	25.96	0.11	-0.750			
0.4043	25872.84	3.6440	3.6442	-1.4123	25.95	0.10	-0.750			
0.4086	26148.86	3.6410	3.6409	-1.4471	25.94	0.09	-0.750			
0.4129	26425.89	3.6380	3.6380	-1.4797	25.94	0.09	-0.750			
0.4173	26710.16	3.6350	3.6352	-1.5070	25.93	0.08	-0.750			
0.4220	27005.52	3.6320	3.6320	-1.5387	25.92	0.07	-0.750			
0.4266	27304.41	3.6290	3.6289	-1.5676	25.91	0.06	-0.750			
0.4314	27607.75	3.6260	3.6259	-1.5908	25.91	0.06	-0.750			
0.4362	27916.84	3.6230	3.6231	-1.6244	25.91	0.06	-0.750			
0.4411	28228.61	3.6200	3.6200	-1.6483	25.91	0.06	-0.750			
0.4461	28548.39	3.6170	3.6169	-1.6646	25.90	0.05	-0.750	0.392	0.514	
0.4511	28870.89	3.6140	3.6140	-1.7075	25.89	0.04	-0.750			
0.4563	29200.85	3.6110	3.6109	-1.7358	25.89	0.04	-0.750			
0.4615	29534.83	3.6080	3.6080	-1.7651	25.88	0.03	-0.750			
0.4668	29876.69	3.6050	3.6051	-1.7966	25.87	0.02	-0.750			
0.4722	30220.98	3.6020	3.6019	-1.8444	25.87	0.02	-0.750			
0.4779	30584.51	3.5990	3.5989	-1.8623	25.86	0.01	-0.750			
0.4835	30945.75	3.5960	3.5960	-1.8959	25.86	0.01	-0.750			
0.4892	31307.94	3.5930	3.5932	-1.9286	25.85	0.00	-0.750			
0.4950	31680.83	3.5900	3.5897	-1.9619	25.85	0.00	-0.750			
0.5010	32062.34	3.5870	3.5870	-2.0166	25.85	0.00	-0.750			
0.5070	32450.73	3.5840	3.5840	-2.0611	25.85	-0.00	-0.750			
0.5133	32852.55	3.5810	3.5811	-2.1077	25.84	-0.01	-0.750			
0.5198	33268.27	3.5780	3.5781	-2.1528	25.83	-0.02	-0.750			
0.5264	33690.37	3.5750	3.5749	-2.1815	25.82	-0.03	-0.750			
0.5330	34110.92	3.5720	3.5720	-2.2091	25.82	-0.03	-0.750			
0.5397	34539.84	3.5690	3.5691	-2.2368	25.82	-0.03	-0.750			
0.5465	34973.58	3.5660	3.5659	-2.2366	25.82	-0.03	-0.750			
0.5531	35401.17	3.5630	3.5630	-2.2400	25.82	-0.03	-0.750			
0.5598	35829.98	3.5600	3.5601	-2.2433	25.82	-0.03	-0.750			
0.5666	36263.56	3.5570	3.5570	-2.2437	25.82	-0.03	-0.750			
0.5734	36694.66	3.5540	3.5540	-2.2389	25.83	-0.02	-0.750			
0.5800	37121.43	3.5510	3.5509	-2.2426	25.83	-0.02	-0.750			
0.5868	37555.37	3.5480	3.5481	-2.2411	25.84	-0.01	-0.750			
0.5936	37989.59	3.5450	3.5449	-2.2281	25.85	0.00	-0.750			
0.6002	38413.57	3.5420	3.5420	-2.2064	25.85	0.00	-0.750			
0.6068	38836.66	3.5390	3.5390	-2.1813	25.85	0.00	-0.750			
0.6134	39257.59	3.5360	3.5359	-2.1507	25.86	0.01	-0.750			
0.6198	39666.96	3.5330	3.5331	-2.1083	25.86	0.01	-0.750			
0.6260	40066.26	3.5300	3.5299	-2.0617	25.87	0.02	-0.750			
0.6322	40463.26	3.5270	3.5270	-2.0222	25.87	0.02	-0.750			
0.6382	40844.67	3.5240	3.5239	-1.9795	25.88	0.03	-0.750			
0.6441	41219.87	3.5210	3.5210	-1.9358	25.89	0.04	-0.750			
0.6498	41586.13	3.5180	3.5181	-1.8874	25.90	0.05	-0.750			
0.6555	41951.63	3.5150	3.5149	-1.8331	25.91	0.06	-0.750			
0.6609	42295.72	3.5120	3.5121	-1.7729	25.93	0.08	-0.750			
0.6661	42631.24	3.5090	3.5088	-1.7197	25.94	0.09	-0.750			
0.6711	42953.35	3.5060	3.5061	-1.6727	25.95	0.10	-0.750			
0.6761	43268.11	3.5030	3.5028	-1.6131	25.96	0.11	-0.750			
0.6809	43575.17	3.5000	3.5000	-1.5638	25.98	0.13	-0.750			
0.6855	43869.35	3.4970	3.4970	-1.5183	26.00	0.15	-0.750			
0.6900	44161.50	3.4940	3.4939	-1.4812	26.02	0.17	-0.750			
0.6944	44440.59	3.4910	3.4909	-1.4194	26.04	0.19	-0.750			
0.6986	44707.99	3.4880	3.4880	-1.3718	26.05	0.20	-0.750			
0.7026	44963.46	3.4850	3.4850	-1.3208	26.06	0.21	-0.750			
0.7065	45212.98	3.4820	3.4819	-1.2757	26.08	0.23	-0.750			
0.7102	45455.31	3.4790	3.4789	-1.2366	26.10	0.25	-0.750			
0.7138	45685.00	3.4760	3.4760	-1.1917	26.12	0.27	-0.750			
0.7174	45911.21	3.4730	3.4731	-1.1614	26.13	0.28	-0.750			
0.7208	46133.81	3.4700	3.4700	-1.1315	26.14	0.29	-0.750			
0.7241	46345.40	3.4670	3.4669	-1.0913	26.15	0.30	-0.750			
0.7274	46552.15	3.4640	3.4639	-1.0593	26.16	0.31	-0.750			
0.7305	46752.18	3.4610	3.4610	-1.0249	26.18	0.33	-0.750			
0.7335	46945.58	3.4580	3.4580	-0.9931	26.19	0.34	-0.750			
0.7365	47133.18	3.4550	3.4549	-0.9621	26.21	0.36	-0.750			
0.7393	47312.71	3.4520	3.4521	-0.9303	26.22	0.37	-0.750			
0.7420	47488.79	3.4490	3.4490	-0.9098	26.23	0.38	-0.750			
0.7447	47659.52	3.4460	3.4460	-0.8913	26.24	0.39	-0.750			
0.7473	47827.13	3.4430	3.4430	-0.8824	26.25	0.40	-0.750			
0.7499	47994.02	3.4400	3.4400	-0.8744	26.26	0.41	-0.750			
0.7525	48158.99	3.4370	3.4370	-0.8780	26.27	0.42	-0.750			
0.7551	48327.53	3.4340	3.4341	-0.8873	26.28	0.43	-0.750			
0.7578	48497.47	3.4310	3.4310	-0.9029	26.30	0.45	-0.750			
0.7605	48672.97	3.4280	3.4279	-0.9187	26.31	0.46	-0.750			
0.7633	48850.42	3.4250	3.4250	-0.9338	26.32	0.47	-0.750			
0.7661	49032.41	3.4220	3.4221	-0.9497	26.34	0.49	-0.750			
0.7690	49217.24	3.4190	3.4190	-0.9728	26.35	0.50	-0.750			
0.7720	49405.75	3.4160	3.4159	-0.9828	26.35	0.50	-0.750			
0.7750	49598.31	3.4130	3.4129	-0.9875	26.36	0.51	-0.750			
0.7780	49789.59	3.4100	3.4100	-0.9830	26.37	0.52	-0.750			
0.7810	49982.59	3.4070	3.4070	-0.9786	26.38	0.53	-0.750			
0.7839	50170.94	3.4040	3.4039	-0.9570	26.39	0.54	-0.750			
0.7868	50354.48	3.4010	3.4010	-0.9277	26.40	0.55	-0.750			
0.7895	50527.92	3.3980	3.3980	-0.8951	26.41	0.56	-0.750			
0.7922	50698.59	3.3950	3.3951	-0.8652	26.42	0.57	-0.750			
0.7947	50861.13	3.3920	3.3920	-0.8313	26.43	0.58	-0.750			
0.7971	51016.11	3.3890	3.3890	-0.8017	26.43	0.58	-0.750			
0.7995	51165.92	3.3860	3.3860	-0.7715	26.44	0.59	-0.750			
0.8018	51313.80	3.3830	3.3830	-0.7469	26.44	0.59	-0.750			
0.8040	51453.63	3.3800	3.3800	-0.7149	26.45	0.60	-0.750			
0.8061	51587.56	3.3770	3.3770	-0.6880	26.46	0.61	-0.750			
0.8081	51717.35	3.3740	3.3741	-0.6630	26.47	0.62	-0.750			
0.8100	51840.50	3.3710	3.3709	-0.6395	26.47	0.62	-0.750			
0.8119	51960.51	3.3680	3.3680	-0.6162	26.48	0.63	-0.750			
0.8137	52076.90	3.3650	3.3650	-0.5943	26.49	0.64	-0.750			
0.8155	52188.88	3.3620	3.3621	-0.5743	26.50	0.65	-0.750			
0.8172	52297.92	3.3590	3.3590	-0.5550	26.50	0.65	-0.750			
0.8188	52402.08	3.3560	3.3559	-0.5340	26.51	0.66	-0.750			
0.8203	52502.05	3.3530	3.3530	-0.5144	26.51	0.66	-0.750			
0.8219	52598.99	3.3500	3.3500	-0.4949	26.52	0.67	-0.750			
0.8233	52692.49	3.3470	3.3470	-0.4788	26.53	0.68	-0.750			
0.8247	52782.36	3.3440	3.3439	-0.4617	26.53	0.68	-0.750			
0.8261	52868.59	3.3410	3.3410	-0.4444	26.54	0.69	-0.750			
0.8274	52952.33	3.3380	3.3380	-0.4295	26.54	0.69	-0.750			
0.8287	53033.72	3.3350	3.3350	-0.4144	26.55	0.70	-0.750			
0.8299	53111.63	3.3320	3.3320	-0.4006	26.55	0.70	-0.750			
0.8310	53187.05	3.3290	3.3290	-0.3881	26.56	0.71	-0.750			
0.8322	53259.80	3.3260	3.3260	-0.3748	26.57	0.72	-0.750			
0.8333	53330.11	3.3230	3.3229	-0.3631	26.57	0.72	-0.750			
0.8344	53399.02	3.3200	3.3200	-0.3517	26.58	0.73	-0.750			
0.8354	53465.32	3.3170	3.3170	-0.3415	26.59	0.74	-0.750			
0.8364	53529.92	3.3140	3.3140	-0.3312	26.59	0.74	-0.750			
0.8374	53592.07	3.3110	3.3110	-0.3214	26.60	0.75	-0.750			
0.8383	53653.13	3.3080	3.3080	-0.3120	26.60	0.75	-0.750			
0.8393	53712.47	3.3050	3.3050	-0.3017	26.61	0.76	-0.750			
0.8401	53768.90	3.3020	3.3021	-0.2946	26.61	0.76	-0.750			
0.8410	53824.14	3.2990	3.2991	-0.2881	26.62	0.77	-0.750			
0.8418	53878.31	3.2960	3.2959	-0.2814	26.62	0.77	-0.750			
0.8427	53931.32	3.2930	3.2930	-0.2762	26.63	0.78	-0.750			
0.8435	53983.81	3.2900	3.2901	-0.2708	26.63	0.78	-0.750			
0.8443	54036.67	3.2870	3.2871	-0.2668	26.64	0.79	-0.750			
0.8451	54087.75	3.2840	3.2840	-0.2600	26.64	0.79	-0.750			
0.8459	54136.28	3.2810	3.2810	-0.2529	26.65	0.80	-0.750			
0.8466	54184.01	3.2780	3.2779	-0.2467	26.65	0.80	-0.750			
0.8473	54230.20	3.2750	3.2751	-0.2411	26.66	0.81	-0.750			
0.8481	54275.83	3.2720	3.2719	-0.2365	26.66	0.81	-0.750			
0.8488	54321.07	3.2690	3.2690	-0.2322	26.67	0.82	-0.750			
0.8495	54365.19	3.2660	3.2659	-0.2281	26.67	0.82	-0.750			
0.8501	54408.53	3.2630	3.2630	-0.2245	26.67	0.82	-0.750			
0.8508	54451.26	3.2600	3.2601	-0.2206	26.68	0.83	-0.750			
0.8515	54493.05	3.2570	3.2570	-0.2166	26.68	0.83	-0.750			
0.8521	54534.35	3.2540	3.2540	-0.2132	26.69	0.84	-0.750			
0.8527	54574.89	3.2510	3.2510	-0.2090	26.69	0.84	-0.750			
0.8534	54614.68	3.2480	3.2481	-0.2055	26.69	0.84	-0.750			
0.8540	54654.05	3.2450	3.2450	-0.2023	26.70	0.85	-0.750			
0.8546	54692.17	3.2420	3.2422	-0.1991	26.70	0.85	-0.750			
0.8552	54729.83	3.2390	3.2390	-0.1959	26.71	0.86	-0.750			
0.8557	54767.22	3.2360	3.2359	-0.1936	26.71	0.86	-0.750			
0.8563	54804.08	3.2330	3.2329	-0.1910	26.72	0.87	-0.750			
0.8569	54840.54	3.2300	3.2300	-0.1887	26.73	0.88	-0.750			
0.8574	54876.78	3.2270	3.2271	-0.1868	26.73	0.88	-0.750			
0.8580	54912.38	3.2240	3.2239	-0.1841	26.74	0.89	-0.750			
0.8586	54947.52	3.2210	3.2210	-0.1815	26.74	0.89	-0.750			
0.8591	54981.92	3.2180	3.2181	-0.1787	26.75	0.90	-0.750			
0.8596	55015.99	3.2150	3.2150	-0.1764	26.75	0.90	-0.750			
0.8601	55049.46	3.2120	3.2120	-0.1753	26.76	0.91	-0.750			
0.8607	55082.96	3.2090	3.2090	-0.1732	26.76	0.91	-0.750			
0.8612	55116.11	3.2060	3.2060	-0.1713	26.77	0.92	-0.750			
0.8617	55148.82	3.2030	3.2030	-0.1695	26.77	0.92	-0.750			
0.8622	55181.23	3.2000	3.2001	-0.1681	26.77	0.92	-0.750			
0.8627	55213.54	3.1970	3.1970	-0.1661	26.78	0.93	-0.750			
0.8632	55245.23	3.1940	3.1940	-0.1640	26.78	0.93	-0.750			
0.8637	55276.51	3.1910	3.1909	-0.1618	26.79	0.94	-0.750			
0.8642	55307.11	3.1880	3.1881	-0.1595	26.79	0.94	-0.750			
0.8646	55337.56	3.1850	3.1850	-0.1584	26.80	0.95	-0.750			
0.8651	55367.71	3.1820	3.1820	-0.1567	26.80	0.95	-0.750			
0.8656	55397.70	3.1790	3.1790	-0.1550	26.81	0.96	-0.750			
0.8660	55427.14	3.1760	3.1760	-0.1534	26.81	0.96	-0.750			
0.8665	55456.64	3.1730	3.1730	-0.1523	26.82	0.97	-0.750			
0.8670	55485.73	3.1700	3.1699	-0.1507	26.82	0.97	-0.750			
0.8674	55514.52	3.1670	3.1670	-0.1495	26.83	0.98	-0.750			
0.8679	55542.88	3.1640	3.1641	-0.1488	26.83	0.98	-0.750			
0.8683	55571.36	3.1610	3.1609	-0.1471	26.84	0.99	-0.750			
0.8687	55599.52	3.1580	3.1580	-0.1463	26.84	0.99	-0.750			
0.8692	55627.73	3.1550	3.1550	-0.1450	26.85	1.00	-0.750			
0.8696	55655.48	3.1520	3.1521	-0.1438	26.85	1.00	-0.750			
0.8700	55683.06	3.1490	3.1490	-0.1425	26.86	1.01	-0.750			
0.8705	55710.25	3.1460	3.1460	-0.1407	26.86	1.01	-0.750			
0.8709	55736.97	3.1430	3.1430	-0.1394	26.87	1.02	-0.750			
0.8713	55763.35	3.1400	3.1401	-0.1378	26.87	1.02	-0.750			
0.8717	55789.95	3.1370	3.1370	-0.1371	26.88	1.03	-0.750			
0.8721	55816.14	3.1340	3.1340	-0.1357	26.88	1.03	-0.750			
0.8725	55841.98	3.1310	3.1310	-0.1347	26.89	1.04	-0.750			
0.8729	55867.70	3.1280	3.1281	-0.1335	26.89	1.04	-0.750			
0.8733	55893.08	3.1250	3.1250	-0.1329	26.90	1.05	-0.750			
0.8737	55918.53	3.1220	3.1219	-0.1322	26.90	1.05	-0.750			
0.8741	55943.80	3.1190	3.1190	-0.1311	26.91	1.06	-0.750			
0.8745	55968.96	3.1160	3.1158	-0.1304	26.91	1.06	-0.750			
0.8749	55994.05	3.1130	3.1130	-0.1298	26.92	1.07	-0.750			
0.8753	56018.91	3.1100	3.1101	-0.1284	26.92	1.07	-0.750			
0.8757	56043.38	3.1070	3.1070	-0.1274	26.93	1.08	-0.750			
0.8761	56067.79	3.1040	3.1040	-0.1264	26.93	1.08	-0.750			
0.8764	56091.91	3.1010	3.1011	-0.1253	26.94	1.09	-0.750			
0.8768	56115.63	3.0980	3.0980	-0.1241	26.94	1.09	-0.750			
0.8772	56139.45	3.0950	3.0951	-0.1235	26.95	1.10	-0.750			
0.8775	56163.08	3.0920	3.0920	-0.1225	26.95	1.10	-0.750			
0.8779	56186.53	3.0890	3.0890	-0.1217	26.95	1.10	-0.750			
0.8783	56209.86	3.0860	3.0861	-0.1212	26.96	1.11	-0.750			
0.8786	56232.97	3.0830	3.0831	-0.1202	26.96	1.11	-0.750			
0.8790	56256.17	3.0800	3.0799	-0.1191	26.97	1.12	-0.750			
0.8794	56279.08	3.0770	3.0770	-0.1183	26.97	1.12	-0.750			
0.8797	56301.53	3.0740	3.0741	-0.1174	26.98	1.13	-0.750			
0.8801	56323.95	3.0710	3.0711	-0.1164	26.98	1.13	-0.750			
0.8804	56346.14	3.0680	3.0680	-0.1158	26.99	1.14	-0.750			
0.8808	56368.25	3.0650	3.0649	-0.1151	27.00	1.15	-0.750			
0.8811	56390.12	3.0620	3.0620	-0.1150	27.00	1.15	-0.750			
0.8814	56411.84	3.0590	3.0591	-0.1144	27.01	1.16	-0.750			
0.8818	56434.16	3.0560	3.0560	-0.1136	27.01	1.16	-0.750			
0.8821	56456.24	3.0530	3.0529	-0.1136	27.02	1.17	-0.750			
0.8825	56477.94	3.0500	3.0500	-0.1127	27.02	1.17	-0.750			
0.8828	56499.60	3.0470	3.0471	-0.1120	27.03	1.18	-0.750			
0.8831	56520.85	3.0440	3.0441	-0.1114	27.03	1.18	-0.750			
0.8835	56542.15	3.0410	3.0410	-0.1106	27.04	1.19	-0.750			
0.8838	56563.32	3.0380	3.0379	-0.1099	27.04	1.19	-0.750			
0.8841	56584.05	3.0350	3.0350	-0.1089	27.05	1.20	-0.750			
0.8845	56605.07	3.0320	3.0320	-0.1083	27.05	1.20	-0.750			
0.8848	56626.10	3.0290	3.0291	-0.1081	27.06	1.21	-0.750			
0.8851	56646.75	3.0260	3.0259	-0.1072	27.06	1.21	-0.750			
0.8854	56667.29	3.0230	3.0230	-0.1064	27.07	1.22	-0.750			
0.8857	56687.60	3.0200	3.0200	-0.1055	27.07	1.22	-0.750			
0.8861	56707.68	3.0170	3.0171	-0.1044	27.08	1.23	-0.750			
0.8864	56727.62	3.0140	3.0140	-0.1038	27.08	1.23	-0.750			
0.8867	56747.47	3.0110	3.0110	-0.1032	27.09	1.24	-0.750			
0.8870	56767.22	3.0080	3.0081	-0.1025	27.09	1.24	-0.751			
0.8873	56786.81	3.0050	3.0049	-0.1021	27.10	1.25	-0.751			
0.8876	56806.37	3.0020	3.0019	-0.1016	27.10	1.25	-0.751			
