Ah_balance (normalized)	Ah_balance (mAh)	Voltage - fit (V)	Voltage -  interpolate (V)	dQ/dV (1/V)	Temperature (°C)	Temperature - diff (°C)	Current (C)	R_DC 0ms (mOhm)	R_DC 50ms (mOhm)	R_DC 50 ms PEC (mOhm)
0.0528	3381.22	4.1980	4.1979	0.7415	26.58	0.59	0.750			
0.0551	3525.19	4.1950	4.1952	0.7553	26.58	0.59	0.750			
0.0574	3672.28	4.1920	4.1917	0.7626	26.58	0.59	0.750			
0.0597	3819.12	4.1890	4.1889	0.7655	26.58	0.59	0.750			
0.0620	3967.65	4.1860	4.1861	0.7631	26.58	0.59	0.750			
0.0643	4114.12	4.1830	4.1830	0.7685	26.58	0.59	0.750			
0.0666	4261.21	4.1800	4.1800	0.7624	26.58	0.59	0.750			
0.0689	4407.22	4.1770	4.1771	0.7613	26.58	0.59	0.750			
0.0712	4553.67	4.1740	4.1741	0.7625	26.58	0.59	0.750			
0.0735	4701.62	4.1710	4.1711	0.7656	26.58	0.59	0.750			
0.0757	4847.51	4.1680	4.1680	0.7659	26.58	0.59	0.750			
0.0781	4995.69	4.1650	4.1649	0.7705	26.57	0.58	0.750			
0.0803	5141.77	4.1620	4.1620	0.7697	26.57	0.58	0.750			
0.0827	5291.53	4.1590	4.1589	0.7715	26.57	0.58	0.750			
0.0850	5438.96	4.1560	4.1561	0.7721	26.57	0.58	0.750			
0.0873	5589.43	4.1530	4.1531	0.7718	26.57	0.58	0.750			
0.0896	5736.15	4.1500	4.1500	0.7749	26.56	0.57	0.750			
0.0919	5884.53	4.1470	4.1470	0.7775	26.56	0.57	0.750			
0.0943	6033.47	4.1440	4.1438	0.7763	26.56	0.57	0.750			
0.0966	6182.97	4.1410	4.1411	0.7778	26.56	0.57	0.750			
0.0990	6336.10	4.1380	4.1380	0.7773	26.56	0.57	0.750			
0.1013	6482.44	4.1350	4.1350	0.7775	26.57	0.58	0.750			
0.1036	6631.62	4.1320	4.1320	0.7805	26.57	0.58	0.750			
0.1059	6780.12	4.1290	4.1291	0.7803	26.57	0.58	0.750			
0.1083	6930.14	4.1260	4.1258	0.7831	26.57	0.58	0.750			
0.1107	7082.39	4.1230	4.1231	0.7843	26.57	0.58	0.750			
0.1130	7234.04	4.1200	4.1201	0.7861	26.57	0.58	0.750			
0.1154	7384.17	4.1170	4.1170	0.7909	26.57	0.58	0.750			
0.1177	7535.38	4.1140	4.1140	0.7920	26.57	0.58	0.750			
0.1201	7687.70	4.1110	4.1109	0.7913	26.57	0.58	0.750			
0.1225	7840.55	4.1080	4.1080	0.7943	26.57	0.58	0.750			
0.1249	7994.52	4.1050	4.1051	0.7958	26.57	0.58	0.750			
0.1273	8147.26	4.1020	4.1020	0.7959	26.57	0.58	0.750			
0.1297	8298.71	4.0990	4.0990	0.7960	26.57	0.58	0.750			
0.1320	8450.82	4.0960	4.0959	0.7965	26.57	0.58	0.750			
0.1344	8604.15	4.0930	4.0930	0.7985	26.57	0.58	0.750			
0.1369	8760.16	4.0900	4.0900	0.7961	26.57	0.58	0.750			
0.1393	8912.20	4.0870	4.0871	0.8017	26.58	0.59	0.750			
0.1416	9065.07	4.0840	4.0840	0.8072	26.58	0.59	0.750			
0.1441	9219.50	4.0810	4.0809	0.8071	26.58	0.59	0.750			
0.1465	9375.48	4.0780	4.0781	0.8079	26.58	0.59	0.750			
0.1489	9532.68	4.0750	4.0750	0.8071	26.58	0.59	0.750			
0.1514	9686.64	4.0720	4.0722	0.8149	26.58	0.59	0.750			
0.1538	9843.93	4.0690	4.0689	0.8210	26.58	0.59	0.750			
0.1562	9998.77	4.0660	4.0660	0.8233	26.58	0.59	0.750			
0.1587	10157.95	4.0630	4.0631	0.8289	26.58	0.59	0.750			
0.1612	10319.97	4.0600	4.0601	0.8357	26.58	0.59	0.750			
0.1638	10481.47	4.0570	4.0570	0.8361	26.57	0.58	0.750			
0.1663	10642.78	4.0540	4.0540	0.8362	26.57	0.58	0.750			
0.1688	10801.00	4.0510	4.0511	0.8286	26.57	0.58	0.750			
0.1713	10960.10	4.0480	4.0480	0.8305	26.57	0.58	0.750			
0.1738	11120.58	4.0450	4.0450	0.8224	26.57	0.58	0.750			
0.1762	11277.78	4.0420	4.0420	0.8307	26.58	0.59	0.750			
0.1787	11436.35	4.0390	4.0390	0.8375	26.58	0.59	0.750			
0.1812	11596.44	4.0360	4.0361	0.8416	26.58	0.59	0.750			
0.1837	11759.82	4.0330	4.0331	0.8466	26.58	0.59	0.750			
0.1863	11924.53	4.0300	4.0300	0.8510	26.58	0.59	0.750			
0.1889	12088.82	4.0270	4.0270	0.8506	26.58	0.59	0.750			
0.1915	12252.89	4.0240	4.0240	0.8545	26.58	0.59	0.750			
0.1940	12413.32	4.0210	4.0209	0.8524	26.58	0.59	0.750			
0.1965	12577.26	4.0180	4.0180	0.8576	26.58	0.59	0.750			
0.1991	12742.30	4.0150	4.0150	0.8600	26.58	0.59	0.750			
0.2017	12907.83	4.0120	4.0121	0.8665	26.59	0.60	0.750			
0.2043	13075.32	4.0090	4.0091	0.8753	26.59	0.60	0.750			
0.2069	13244.61	4.0060	4.0059	0.8765	26.59	0.60	0.750			
0.2096	13412.13	4.0030	4.0029	0.8783	26.59	0.60	0.750			
0.2122	13581.76	4.0000	4.0001	0.8771	26.59	0.60	0.750			
0.2149	13750.54	3.9970	3.9970	0.8818	26.59	0.60	0.750			
0.2175	13919.94	3.9940	3.9940	0.8785	26.59	0.60	0.750			
0.2201	14088.45	3.9910	3.9909	0.8806	26.59	0.60	0.750			
0.2228	14257.62	3.9880	3.9881	0.8775	26.59	0.60	0.750			
0.2254	14425.56	3.9850	3.9850	0.8868	26.59	0.60	0.750			
0.2281	14596.07	3.9820	3.9820	0.8906	26.60	0.61	0.750			
0.2308	14769.11	3.9790	3.9790	0.8952	26.60	0.61	0.750			
0.2334	14940.17	3.9760	3.9759	0.8913	26.60	0.61	0.750			
0.2361	15112.05	3.9730	3.9731	0.8956	26.60	0.61	0.750			
0.2388	15283.80	3.9700	3.9701	0.8972	26.60	0.61	0.750			
0.2415	15456.28	3.9670	3.9670	0.9003	26.60	0.61	0.750			
0.2442	15627.22	3.9640	3.9639	0.8985	26.60	0.61	0.750			
0.2469	15801.21	3.9610	3.9611	0.9033	26.60	0.61	0.750			
0.2496	15976.12	3.9580	3.9580	0.8982	26.60	0.61	0.750			
0.2523	16148.36	3.9550	3.9550	0.9058	26.60	0.61	0.750			
0.2550	16320.53	3.9520	3.9521	0.9062	26.60	0.61	0.750			
0.2577	16493.57	3.9490	3.9487	0.9089	26.60	0.61	0.750			
0.2605	16669.82	3.9460	3.9460	0.9118	26.60	0.61	0.750			
0.2632	16846.57	3.9430	3.9430	0.9149	26.60	0.61	0.750			
0.2660	17023.77	3.9400	3.9401	0.9171	26.60	0.61	0.750			
0.2687	17198.93	3.9370	3.9370	0.9135	26.60	0.61	0.750			
0.2715	17373.24	3.9340	3.9340	0.9116	26.60	0.61	0.750			
0.2742	17547.25	3.9310	3.9310	0.9116	26.60	0.61	0.750			
0.2769	17722.59	3.9280	3.9281	0.9142	26.60	0.61	0.750			
0.2797	17900.65	3.9250	3.9250	0.9154	26.60	0.61	0.750			
0.2824	18075.74	3.9220	3.9215	0.9114	26.60	0.61	0.750			
0.2852	18251.14	3.9190	3.9191	0.9064	26.60	0.61	0.750			
0.2879	18422.52	3.9160	3.9160	0.9142	26.60	0.61	0.750			
0.2906	18597.77	3.9130	3.9130	0.9184	26.59	0.60	0.750			
0.2933	18773.65	3.9100	3.9101	0.9198	26.59	0.60	0.750			
0.2961	18952.31	3.9070	3.9070	0.9302	26.59	0.60	0.750			
0.2990	19132.88	3.9040	3.9041	0.9283	26.59	0.60	0.750			
0.3017	19311.50	3.9010	3.9010	0.9328	26.58	0.59	0.750			
0.3045	19490.41	3.8980	3.8980	0.9348	26.58	0.59	0.750			
0.3073	19667.11	3.8950	3.8948	0.9365	26.58	0.59	0.750			
0.3102	19850.55	3.8920	3.8920	0.9332	26.58	0.59	0.750			
0.3129	20027.68	3.8890	3.8890	0.9480	26.57	0.58	0.750			
0.3158	20209.85	3.8860	3.8860	0.9611	26.57	0.58	0.750			
0.3187	20395.35	3.8830	3.8832	0.9686	26.56	0.57	0.750			
0.3217	20587.06	3.8800	3.8801	0.9635	26.56	0.57	0.750			
0.3246	20773.28	3.8770	3.8771	0.9726	26.55	0.56	0.750			
0.3275	20959.62	3.8740	3.8741	0.9760	26.55	0.56	0.750			
0.3304	21147.36	3.8710	3.8711	0.9853	26.54	0.55	0.750			
0.3333	21331.46	3.8680	3.8680	0.9784	26.54	0.55	0.750			
0.3363	21520.30	3.8650	3.8651	0.9833	26.53	0.54	0.750			
0.3392	21710.33	3.8620	3.8620	0.9954	26.52	0.53	0.750			
0.3423	21904.39	3.8590	3.8591	1.0021	26.51	0.52	0.750			
0.3452	22095.66	3.8560	3.8560	1.0033	26.50	0.51	0.750			
0.3483	22289.23	3.8530	3.8531	1.0087	26.49	0.50	0.750			
0.3513	22482.78	3.8500	3.8500	1.0259	26.48	0.49	0.750			
0.3544	22682.41	3.8470	3.8470	1.0345	26.47	0.48	0.750			
0.3576	22883.85	3.8440	3.8439	1.0378	26.46	0.47	0.750			
0.3607	23082.08	3.8410	3.8410	1.0383	26.45	0.46	0.750			
0.3638	23283.05	3.8380	3.8381	1.0393	26.45	0.46	0.750			
0.3669	23481.09	3.8350	3.8350	1.0408	26.44	0.45	0.750			
0.3700	23680.87	3.8320	3.8317	1.0428	26.44	0.45	0.750			
0.3731	23878.00	3.8290	3.8291	1.0341	26.43	0.44	0.750			
0.3762	24077.06	3.8260	3.8260	1.0476	26.41	0.42	0.750			
0.3794	24279.31	3.8230	3.8231	1.0579	26.40	0.41	0.750			
0.3825	24483.18	3.8200	3.8197	1.0642	26.39	0.40	0.750			
0.3857	24687.43	3.8170	3.8169	1.0731	26.38	0.39	0.750			
0.3890	24894.89	3.8140	3.8141	1.0765	26.37	0.38	0.750			
0.3923	25104.23	3.8110	3.8110	1.0838	26.36	0.37	0.750			
0.3955	25314.44	3.8080	3.8080	1.0738	26.35	0.36	0.750			
0.3987	25519.20	3.8050	3.8049	1.0833	26.34	0.35	0.750			
0.4020	25726.38	3.8020	3.8021	1.0843	26.33	0.34	0.750			
0.4052	25933.41	3.7990	3.7991	1.0982	26.32	0.33	0.750			
0.4085	26145.93	3.7960	3.7960	1.1001	26.31	0.32	0.750			
0.4118	26357.32	3.7930	3.7930	1.1204	26.30	0.31	0.750			
0.4152	26572.47	3.7900	3.7901	1.1353	26.29	0.30	0.750			
0.4186	26793.56	3.7870	3.7869	1.1492	26.28	0.29	0.750			
0.4221	27013.78	3.7840	3.7841	1.1585	26.27	0.28	0.750			
0.4256	27238.59	3.7810	3.7810	1.1861	26.26	0.27	0.750			
0.4292	27465.94	3.7780	3.7781	1.2078	26.24	0.25	0.750			
0.4329	27702.47	3.7750	3.7750	1.2182	26.23	0.24	0.750			
0.4365	27934.98	3.7720	3.7720	1.2435	26.22	0.23	0.750			
0.4402	28172.29	3.7690	3.7692	1.2805	26.21	0.22	0.750			
0.4441	28422.52	3.7660	3.7660	1.3181	26.19	0.20	0.750			
0.4481	28679.90	3.7630	3.7620	1.3514	26.18	0.19	0.750	0.300	0.393	
0.4522	28943.25	3.7600	3.7602	1.3863	26.17	0.18	0.750			
0.4565	29217.55	3.7570	3.7570	1.4150	26.15	0.16	0.750			
0.4609	29494.78	3.7540	3.7541	1.4398	26.14	0.15	0.750			
0.4651	29768.66	3.7510	3.7510	1.4444	26.13	0.14	0.750			
0.4695	30050.18	3.7480	3.7477	1.4562	26.11	0.12	0.750			
0.4739	30332.76	3.7450	3.7450	1.4638	26.10	0.11	0.750			
0.4784	30614.96	3.7420	3.7421	1.4846	26.08	0.09	0.750			
0.4829	30903.64	3.7390	3.7390	1.5110	26.07	0.08	0.750			
0.4874	31195.07	3.7360	3.7358	1.5590	26.05	0.06	0.750			
0.4921	31491.32	3.7330	3.7331	1.5926	26.04	0.05	0.750			
0.4969	31803.21	3.7300	3.7301	1.6613	26.03	0.04	0.750			
0.5020	32130.00	3.7270	3.7274	1.7570	26.01	0.02	0.750			
0.5075	32481.22	3.7240	3.7240	1.8078	26.00	0.01	0.750			
0.5131	32836.29	3.7210	3.7211	1.8554	25.98	-0.01	0.750			
0.5188	33200.86	3.7180	3.7180	1.9105	25.95	-0.04	0.750			
0.5246	33572.64	3.7150	3.7149	1.9575	25.94	-0.05	0.750			
0.5304	33942.91	3.7120	3.7118	2.0196	25.92	-0.07	0.750			
0.5365	34333.96	3.7090	3.7092	2.0661	25.91	-0.08	0.750			
0.5428	34739.12	3.7060	3.7060	2.1475	25.90	-0.09	0.750			
0.5492	35148.23	3.7030	3.7030	2.1908	25.88	-0.11	0.750			
0.5559	35579.67	3.7000	3.7001	2.2658	25.85	-0.14	0.750			
0.5630	36030.19	3.6970	3.6970	2.3261	25.84	-0.15	0.750			
0.5700	36479.02	3.6940	3.6942	2.3904	25.82	-0.17	0.750			
0.5772	36938.04	3.6910	3.6908	2.4668	25.81	-0.18	0.750			
0.5848	37427.54	3.6880	3.6878	2.5145	25.79	-0.20	0.750			
0.5923	37908.59	3.6850	3.6851	2.5559	25.78	-0.21	0.750			
0.6002	38411.79	3.6820	3.6821	2.6751	25.76	-0.23	0.750			
0.6084	38935.83	3.6790	3.6788	2.7857	25.75	-0.24	0.750			
0.6168	39475.62	3.6760	3.6763	2.8655	25.73	-0.26	0.750			
0.6257	40043.41	3.6730	3.6729	2.9642	25.72	-0.27	0.750			
0.6346	40614.42	3.6700	3.6700	3.0160	25.72	-0.27	0.750			
0.6439	41212.39	3.6670	3.6670	3.0354	25.70	-0.29	0.750			
0.6533	41814.02	3.6640	3.6641	2.9286	25.70	-0.29	0.750			
0.6618	42356.48	3.6610	3.6609	2.6333	25.70	-0.29	0.750			
0.6690	42815.04	3.6580	3.6580	2.3410	25.70	-0.29	0.750			
0.6755	43234.54	3.6550	3.6550	2.1017	25.70	-0.29	0.750			
0.6812	43598.12	3.6520	3.6518	1.8849	25.71	-0.28	0.750			
0.6863	43924.37	3.6490	3.6493	1.7052	25.71	-0.28	0.750			
0.6912	44239.96	3.6460	3.6461	1.5870	25.71	-0.28	0.750			
0.6959	44535.41	3.6430	3.6431	1.4715	25.71	-0.28	0.750			
0.7002	44810.37	3.6400	3.6400	1.3766	25.71	-0.28	0.750			
0.7040	45054.09	3.6370	3.6371	1.3039	25.72	-0.27	0.750			
0.7077	45290.98	3.6340	3.6338	1.2381	25.72	-0.27	0.750			
0.7112	45518.29	3.6310	3.6310	1.2123	25.72	-0.27	0.750			
0.7148	45748.12	3.6280	3.6281	1.2073	25.72	-0.27	0.750			
0.7185	45980.90	3.6250	3.6249	1.1996	25.72	-0.27	0.750			
0.7220	46208.58	3.6220	3.6220	1.1991	25.72	-0.27	0.750			
0.7256	46438.05	3.6190	3.6191	1.2028	25.72	-0.27	0.750			
0.7292	46670.63	3.6160	3.6161	1.2049	25.72	-0.27	0.750			
0.7329	46908.36	3.6130	3.6128	1.1850	25.72	-0.27	0.750			
0.7365	47134.35	3.6100	3.6101	1.1790	25.72	-0.27	0.750			
0.7400	47359.53	3.6070	3.6072	1.1675	25.72	-0.27	0.750			
0.7435	47582.15	3.6040	3.6042	1.1587	25.72	-0.27	0.750			
0.7468	47798.36	3.6010	3.6011	1.1447	25.72	-0.27	0.750			
0.7502	48013.79	3.5980	3.5981	1.1440	25.72	-0.27	0.750			
0.7536	48232.76	3.5950	3.5950	1.1648	25.72	-0.27	0.750			
0.7572	48463.53	3.5920	3.5915	1.1854	25.72	-0.27	0.750			
0.7607	48687.18	3.5890	3.5891	1.1950	25.72	-0.27	0.750			
0.7643	48916.26	3.5860	3.5861	1.2397	25.73	-0.26	0.750			
0.7682	49162.03	3.5830	3.5830	1.2666	25.73	-0.26	0.750			
0.7720	49409.07	3.5800	3.5799	1.3046	25.73	-0.26	0.750			
0.7759	49656.15	3.5770	3.5770	1.3557	25.73	-0.26	0.750			
0.7801	49923.48	3.5740	3.5743	1.3918	25.72	-0.27	0.750			
0.7843	50198.17	3.5710	3.5710	1.4469	25.72	-0.27	0.750			
0.7887	50477.97	3.5680	3.5681	1.4846	25.72	-0.27	0.750			
0.7932	50763.62	3.5650	3.5651	1.5206	25.72	-0.27	0.750			
0.7979	51066.87	3.5620	3.5617	1.5587	25.72	-0.27	0.750			
0.8027	51373.67	3.5590	3.5591	1.5869	25.72	-0.27	0.750			
0.8074	51676.28	3.5560	3.5560	1.6048	25.72	-0.27	0.750			
0.8123	51988.40	3.5530	3.5532	1.6297	25.72	-0.27	0.750			
0.8173	52306.49	3.5500	3.5503	1.6352	25.72	-0.27	0.750			
0.8222	52622.94	3.5470	3.5467	1.6592	25.72	-0.27	0.750			
0.8273	52945.65	3.5440	3.5439	1.6797	25.73	-0.26	0.750			
0.8324	53271.25	3.5410	3.5404	1.6973	25.74	-0.25	0.750			
0.8374	53595.25	3.5380	3.5380	1.7431	25.74	-0.25	0.750			
0.8426	53926.28	3.5350	3.5353	1.7621	25.75	-0.24	0.750			
0.8481	54279.69	3.5320	3.5321	1.7627	25.76	-0.23	0.750			
0.8539	54646.79	3.5290	3.5291	1.6243	25.76	-0.23	0.750			
0.8588	54964.60	3.5260	3.5264	1.4261	25.78	-0.21	0.750			
0.8632	55244.88	3.5230	3.5234	1.1854	25.79	-0.20	0.750			
0.8660	55425.47	3.5200	3.5199	0.9088	25.80	-0.19	0.750			
0.8680	55552.77	3.5170	3.5165	0.6630	25.81	-0.18	0.750			
0.8691	55622.60	3.5140	3.5141	0.4788	25.82	-0.17	0.750			
0.8703	55698.73	3.5110	3.5108	0.4021	25.82	-0.17	0.750			
0.8714	55767.12	3.5080	3.5079	0.3664	25.83	-0.16	0.750			
0.8723	55829.13	3.5050	3.5050	0.3336	25.84	-0.15	0.750			
0.8733	55890.76	3.5020	3.5020	0.3180	25.84	-0.15	0.750			
0.8742	55949.85	3.4990	3.4989	0.3044	25.85	-0.14	0.750			
0.8751	56006.05	3.4960	3.4962	0.2933	25.86	-0.13	0.750			
0.8760	56061.45	3.4930	3.4930	0.2854	25.86	-0.13	0.750			
0.8768	56114.82	3.4900	3.4900	0.2789	25.87	-0.12	0.750			
0.8776	56167.65	3.4870	3.4869	0.2717	25.88	-0.11	0.750			
0.8784	56219.35	3.4840	3.4840	0.2669	25.88	-0.11	0.750			
0.8792	56270.04	3.4810	3.4810	0.2618	25.89	-0.10	0.750			
0.8800	56320.36	3.4780	3.4781	0.2547	25.89	-0.10	0.750			
0.8808	56368.23	3.4750	3.4750	0.2494	25.90	-0.09	0.750			
0.8815	56415.18	3.4720	3.4719	0.2434	25.90	-0.09	0.750			
0.8822	56461.11	3.4690	3.4689	0.2378	25.91	-0.08	0.750			
0.8829	56506.02	3.4660	3.4660	0.2328	25.91	-0.08	0.750			
0.8836	56550.40	3.4630	3.4631	0.2285	25.92	-0.07	0.750			
0.8843	56594.16	3.4600	3.4600	0.2242	25.92	-0.07	0.750			
0.8850	56637.03	3.4570	3.4571	0.2210	25.93	-0.06	0.750			
0.8856	56678.94	3.4540	3.4539	0.2155	25.93	-0.06	0.750			
0.8862	56719.07	3.4510	3.4511	0.2108	25.93	-0.06	0.750			
0.8869	56759.60	3.4480	3.4480	0.2062	25.94	-0.05	0.750			
0.8875	56798.82	3.4450	3.4450	0.2013	25.94	-0.05	0.750			
0.8881	56836.98	3.4420	3.4420	0.1962	25.95	-0.04	0.750			
0.8887	56874.39	3.4390	3.4391	0.1907	25.95	-0.04	0.750			
0.8892	56910.20	3.4360	3.4359	0.1864	25.95	-0.04	0.750			
0.8898	56945.67	3.4330	3.4329	0.1805	25.96	-0.03	0.750			
0.8903	56979.83	3.4300	3.4300	0.1752	25.96	-0.03	0.750			
0.8908	57012.92	3.4270	3.4270	0.1693	25.96	-0.03	0.750			
0.8913	57045.28	3.4240	3.4243	0.1642	25.97	-0.02	0.750			
0.8918	57076.17	3.4210	3.4210	0.1583	25.97	-0.02	0.750			
0.8923	57105.98	3.4180	3.4180	0.1522	25.97	-0.02	0.750			
0.8927	57134.57	3.4150	3.4149	0.1469	25.98	-0.01	0.750			
0.8932	57161.78	3.4120	3.4121	0.1404	25.98	-0.01	0.750			
0.8936	57188.60	3.4090	3.4090	0.1361	25.98	-0.01	0.750			
0.8940	57214.37	3.4060	3.4059	0.1296	25.98	-0.01	0.750			
0.8944	57238.79	3.4030	3.4030	0.1235	25.99	-0.00	0.750			
0.8947	57262.13	3.4000	3.4002	0.1169	25.99	-0.00	0.750			
0.8951	57284.05	3.3970	3.3971	0.1101	25.99	0.00	0.750			
0.8954	57305.65	3.3940	3.3938	0.1002	25.99	0.00	0.750			
0.8957	57324.29	3.3910	3.3909	0.0916	26.00	0.01	0.750			
0.8960	57341.42	3.3880	3.3880	0.0830	26.00	0.01	0.750			
0.8962	57356.30	3.3850	3.3852	0.0721	26.00	0.01	0.750			
0.8964	57370.37	3.3820	3.3826	0.0624	26.00	0.01	0.750			
0.8966	57381.16	3.3790	3.3795	0.0500	26.00	0.01	0.750			
0.8967	57389.58	3.3760	3.3770	0.0377	26.00	0.01	0.750			
0.8968	57395.63	3.3730	3.3742	0.0253	26.00	0.01	0.750			
0.8969	57399.31	3.3700	3.3721	0.0130	26.00	0.01	0.750			
