Ah_balance (normalized)	Ah_balance (mAh)	Voltage - fit (V)	Voltage -  interpolate (V)	dQ/dV (1/V)	Temperature (°C)	Temperature - diff (°C)	Current (C)	R_DC 0ms (mOhm)	R_DC 50ms (mOhm)	R_DC 50 ms PEC (mOhm)
0.0499	3191.40	4.1980	4.1980	0.7666	26.07	0.10	0.750			
0.0522	3338.49	4.1950	4.1948	0.7671	26.07	0.10	0.750			
0.0545	3486.42	4.1920	4.1920	0.7692	26.07	0.10	0.750			
0.0568	3634.69	4.1890	4.1890	0.7685	26.07	0.10	0.750			
0.0591	3781.60	4.1860	4.1860	0.7700	26.07	0.10	0.750			
0.0614	3928.89	4.1830	4.1830	0.7724	26.07	0.10	0.750			
0.0637	4076.76	4.1800	4.1800	0.7748	26.07	0.10	0.750			
0.0660	4226.23	4.1770	4.1770	0.7786	26.07	0.10	0.750			
0.0684	4376.78	4.1740	4.1740	0.7798	26.07	0.10	0.750			
0.0707	4527.65	4.1710	4.1710	0.7812	26.07	0.10	0.750			
0.0731	4678.13	4.1680	4.1680	0.7830	26.07	0.10	0.750			
0.0754	4827.46	4.1650	4.1651	0.7818	26.07	0.10	0.750			
0.0777	4974.96	4.1620	4.1622	0.7862	26.07	0.10	0.750			
0.0801	5126.98	4.1590	4.1590	0.7903	26.07	0.10	0.750			
0.0825	5279.90	4.1560	4.1560	0.7896	26.07	0.10	0.750			
0.0849	5432.05	4.1530	4.1530	0.7912	26.07	0.10	0.750			
0.0872	5583.93	4.1500	4.1502	0.7961	26.07	0.10	0.750			
0.0896	5736.86	4.1470	4.1468	0.7972	26.07	0.10	0.750			
0.0920	5889.01	4.1440	4.1440	0.7987	26.07	0.10	0.750			
0.0944	6043.73	4.1410	4.1409	0.7931	26.07	0.10	0.750			
0.0968	6197.90	4.1380	4.1381	0.7988	26.08	0.11	0.750			
0.0992	6350.26	4.1350	4.1351	0.8030	26.08	0.11	0.750			
0.1016	6502.41	4.1320	4.1319	0.8029	26.08	0.11	0.750			
0.1040	6656.91	4.1290	4.1290	0.8019	26.08	0.11	0.750			
0.1064	6812.60	4.1260	4.1260	0.7973	26.08	0.11	0.750			
0.1088	6964.62	4.1230	4.1231	0.8001	26.08	0.11	0.750			
0.1113	7120.84	4.1200	4.1200	0.8041	26.08	0.11	0.750			
0.1136	7271.58	4.1170	4.1170	0.8012	26.08	0.11	0.750			
0.1160	7424.38	4.1140	4.1140	0.8067	26.08	0.11	0.750			
0.1185	7582.04	4.1110	4.1110	0.8077	26.08	0.11	0.750			
0.1209	7737.84	4.1080	4.1081	0.8170	26.08	0.11	0.750			
0.1234	7896.38	4.1050	4.1050	0.8253	26.08	0.11	0.750			
0.1258	8054.06	4.1020	4.1021	0.8208	26.08	0.11	0.750			
0.1283	8211.92	4.0990	4.0990	0.8230	26.08	0.11	0.750			
0.1308	8371.74	4.0960	4.0961	0.8154	26.08	0.11	0.750			
0.1332	8527.64	4.0930	4.0931	0.8192	26.08	0.11	0.750			
0.1357	8684.43	4.0900	4.0900	0.8238	26.09	0.12	0.750			
0.1381	8841.17	4.0870	4.0870	0.8246	26.09	0.12	0.750			
0.1406	8998.67	4.0840	4.0840	0.8301	26.09	0.12	0.750			
0.1431	9161.56	4.0810	4.0811	0.8292	26.09	0.12	0.750			
0.1457	9321.71	4.0780	4.0781	0.8368	26.09	0.12	0.750			
0.1482	9483.00	4.0750	4.0750	0.8408	26.09	0.12	0.750			
0.1507	9643.05	4.0720	4.0720	0.8393	26.09	0.12	0.750			
0.1532	9803.29	4.0690	4.0690	0.8416	26.09	0.12	0.750			
0.1557	9966.77	4.0660	4.0661	0.8431	26.09	0.12	0.750			
0.1583	10129.27	4.0630	4.0631	0.8515	26.09	0.12	0.750			
0.1608	10293.27	4.0600	4.0600	0.8603	26.10	0.13	0.750			
0.1634	10456.27	4.0570	4.0571	0.8645	26.10	0.13	0.750			
0.1660	10626.07	4.0540	4.0540	0.8665	26.10	0.13	0.750			
0.1687	10794.07	4.0510	4.0510	0.8691	26.10	0.13	0.750			
0.1712	10959.61	4.0480	4.0482	0.8639	26.11	0.14	0.750			
0.1738	11124.71	4.0450	4.0451	0.8655	26.11	0.14	0.750			
0.1764	11287.55	4.0420	4.0419	0.8630	26.11	0.14	0.750			
0.1790	11453.11	4.0390	4.0391	0.8689	26.11	0.14	0.750			
0.1816	11620.21	4.0360	4.0361	0.8687	26.11	0.14	0.750			
0.1842	11790.81	4.0330	4.0330	0.8779	26.11	0.14	0.750			
0.1869	11962.65	4.0300	4.0300	0.8856	26.11	0.14	0.750			
0.1895	12127.59	4.0270	4.0267	0.8732	26.11	0.14	0.750			
0.1921	12294.98	4.0240	4.0240	0.8777	26.11	0.14	0.750			
0.1947	12463.86	4.0210	4.0211	0.8823	26.11	0.14	0.750			
0.1974	12633.58	4.0180	4.0179	0.8873	26.11	0.14	0.750			
0.2001	12805.07	4.0150	4.0150	0.8945	26.11	0.14	0.750			
0.2027	12975.94	4.0120	4.0121	0.8957	26.11	0.14	0.750			
0.2055	13149.97	4.0090	4.0089	0.8946	26.11	0.14	0.750			
0.2082	13322.48	4.0060	4.0061	0.9006	26.11	0.14	0.750			
0.2109	13494.75	4.0030	4.0031	0.9028	26.12	0.15	0.750			
0.2136	13668.58	4.0000	4.0000	0.9064	26.12	0.15	0.750			
0.2163	13842.74	3.9970	3.9971	0.9097	26.12	0.15	0.750			
0.2190	14016.66	3.9940	3.9940	0.9091	26.12	0.15	0.750			
0.2217	14191.65	3.9910	3.9911	0.9161	26.13	0.16	0.750			
0.2245	14369.06	3.9880	3.9880	0.9230	26.13	0.16	0.750			
0.2273	14545.93	3.9850	3.9848	0.9155	26.13	0.16	0.750			
0.2301	14723.90	3.9820	3.9820	0.9112	26.13	0.16	0.750			
0.2328	14896.57	3.9790	3.9791	0.9197	26.14	0.17	0.750			
0.2355	15071.87	3.9760	3.9760	0.9278	26.14	0.17	0.750			
0.2383	15248.67	3.9730	3.9730	0.9324	26.15	0.18	0.750			
0.2411	15431.42	3.9700	3.9700	0.9367	26.15	0.18	0.750			
0.2440	15614.75	3.9670	3.9671	0.9444	26.15	0.18	0.750			
0.2469	15799.28	3.9640	3.9640	0.9446	26.15	0.18	0.750			
0.2497	15981.28	3.9610	3.9611	0.9398	26.15	0.18	0.750			
0.2524	16155.93	3.9580	3.9579	0.9282	26.15	0.18	0.750			
0.2552	16334.40	3.9550	3.9549	0.9275	26.15	0.18	0.750			
0.2580	16510.43	3.9520	3.9520	0.9363	26.16	0.19	0.750			
0.2608	16692.38	3.9490	3.9491	0.9458	26.16	0.19	0.750			
0.2637	16877.10	3.9460	3.9459	0.9510	26.17	0.20	0.750			
0.2666	17062.71	3.9430	3.9431	0.9439	26.17	0.20	0.750			
0.2694	17242.79	3.9400	3.9401	0.9487	26.18	0.21	0.750			
0.2722	17423.65	3.9370	3.9371	0.9527	26.18	0.21	0.750			
0.2751	17605.89	3.9340	3.9340	0.9560	26.19	0.22	0.750			
0.2779	17788.27	3.9310	3.9310	0.9596	26.19	0.22	0.750			
0.2808	17973.19	3.9280	3.9281	0.9649	26.19	0.22	0.750			
0.2838	18161.79	3.9250	3.9250	0.9722	26.19	0.22	0.750			
0.2867	18349.43	3.9220	3.9220	0.9731	26.19	0.22	0.750			
0.2896	18534.11	3.9190	3.9189	0.9752	26.19	0.22	0.750			
0.2926	18723.51	3.9160	3.9160	0.9707	26.19	0.22	0.750			
0.2955	18910.14	3.9130	3.9130	0.9812	26.20	0.23	0.750			
0.2984	19099.34	3.9100	3.9101	0.9835	26.20	0.23	0.750			
0.3014	19287.69	3.9070	3.9069	0.9862	26.21	0.24	0.750			
0.3044	19479.47	3.9040	3.9041	0.9849	26.21	0.24	0.750			
0.3073	19668.08	3.9010	3.9010	0.9894	26.21	0.24	0.750			
0.3103	19856.82	3.8980	3.8981	0.9933	26.21	0.24	0.750			
0.3132	20047.56	3.8950	3.8950	0.9969	26.21	0.24	0.750			
0.3163	20240.63	3.8920	3.8920	1.0023	26.21	0.24	0.750			
0.3193	20434.74	3.8890	3.8890	1.0117	26.22	0.25	0.750			
0.3223	20629.14	3.8860	3.8861	1.0156	26.22	0.25	0.750			
0.3254	20826.05	3.8830	3.8831	1.0177	26.23	0.26	0.750			
0.3285	21023.30	3.8800	3.8800	1.0193	26.23	0.26	0.750			
0.3315	21217.64	3.8770	3.8770	1.0177	26.23	0.26	0.750			
0.3346	21411.88	3.8740	3.8741	1.0260	26.22	0.25	0.750			
0.3376	21608.83	3.8710	3.8709	1.0377	26.22	0.25	0.750			
0.3408	21811.09	3.8680	3.8681	1.0368	26.22	0.25	0.750			
0.3439	22009.96	3.8650	3.8650	1.0494	26.22	0.25	0.750			
0.3471	22212.01	3.8620	3.8621	1.0632	26.23	0.26	0.750			
0.3503	22419.38	3.8590	3.8591	1.0665	26.23	0.26	0.750			
0.3535	22624.97	3.8560	3.8559	1.0659	26.23	0.26	0.750			
0.3567	22828.64	3.8530	3.8531	1.0702	26.22	0.25	0.750			
0.3599	23034.17	3.8500	3.8501	1.0735	26.22	0.25	0.750			
0.3631	23240.49	3.8470	3.8469	1.0859	26.21	0.24	0.750			
0.3664	23449.71	3.8440	3.8440	1.0756	26.21	0.24	0.750			
0.3696	23651.84	3.8410	3.8411	1.0978	26.21	0.24	0.750			
0.3729	23864.73	3.8380	3.8381	1.1251	26.21	0.24	0.750			
0.3763	24083.84	3.8350	3.8349	1.1430	26.21	0.24	0.750			
0.3798	24304.70	3.8320	3.8320	1.1633	26.21	0.24	0.750			
0.3833	24532.60	3.8290	3.8292	1.1849	26.20	0.23	0.750			
0.3869	24762.54	3.8260	3.8261	1.2035	26.19	0.22	0.750			
0.3906	24996.90	3.8230	3.8230	1.2123	26.19	0.22	0.750			
0.3942	25228.52	3.8200	3.8200	1.2309	26.18	0.21	0.750			
0.3979	25465.91	3.8170	3.8170	1.2473	26.18	0.21	0.750			
0.4017	25709.19	3.8140	3.8138	1.2622	26.17	0.20	0.750			
0.4055	25953.03	3.8110	3.8111	1.2787	26.16	0.19	0.750			
0.4094	26199.19	3.8080	3.8081	1.2998	26.16	0.19	0.750			
0.4133	26452.80	3.8050	3.8049	1.3094	26.15	0.18	0.750			
0.4173	26705.47	3.8020	3.8019	1.3328	26.15	0.18	0.750			
0.4212	26959.55	3.7990	3.7991	1.3455	26.14	0.17	0.750			
0.4254	27223.26	3.7960	3.7960	1.3588	26.13	0.16	0.750			
0.4295	27487.53	3.7930	3.7931	1.3824	26.12	0.15	0.750			
0.4336	27750.15	3.7900	3.7900	1.3965	26.11	0.14	0.750			
0.4378	28021.81	3.7870	3.7870	1.4118	26.10	0.13	0.750			
0.4421	28297.56	3.7840	3.7840	1.4229	26.09	0.12	0.750			
0.4464	28570.55	3.7810	3.7810	1.4245	26.08	0.11	0.750			
0.4507	28846.40	3.7780	3.7781	1.4203	26.07	0.10	0.750			
0.4549	29116.10	3.7750	3.7750	1.4420	26.06	0.09	0.750			
0.4592	29388.36	3.7720	3.7718	1.4538	26.05	0.08	0.750			
0.4637	29675.11	3.7690	3.7689	1.4392	26.03	0.06	0.750			
0.4679	29945.79	3.7660	3.7660	1.5007	26.02	0.05	0.750			
0.4725	30238.60	3.7630	3.7633	1.5316	26.02	0.05	0.750			
0.4771	30531.72	3.7600	3.7599	1.5634	26.01	0.04	0.750	0.328	0.418	
0.4818	30837.92	3.7570	3.7572	1.5946	26.00	0.03	0.750			
0.4867	31151.13	3.7540	3.7543	1.6226	25.99	0.02	0.750			
0.4917	31471.00	3.7510	3.7510	1.6427	25.98	0.01	0.750			
0.4968	31792.42	3.7480	3.7478	1.6754	25.97	-0.00	0.750			
0.5016	32102.45	3.7450	3.7448	1.6696	25.95	-0.02	0.750			
0.5068	32432.45	3.7420	3.7420	1.7243	25.94	-0.03	0.750			
0.5119	32761.14	3.7390	3.7392	1.7578	25.93	-0.04	0.750			
0.5173	33105.46	3.7360	3.7361	1.8072	25.92	-0.05	0.750			
0.5228	33460.61	3.7330	3.7330	1.8566	25.90	-0.07	0.750			
0.5285	33822.60	3.7300	3.7298	1.8933	25.89	-0.08	0.750			
0.5342	34189.56	3.7270	3.7272	1.9296	25.87	-0.10	0.750			
0.5400	34558.51	3.7240	3.7241	1.9812	25.86	-0.11	0.750			
0.5460	34940.86	3.7210	3.7210	2.0383	25.85	-0.12	0.750			
0.5521	35337.53	3.7180	3.7179	2.1118	25.83	-0.14	0.750			
0.5587	35754.88	3.7150	3.7151	2.1971	25.82	-0.15	0.750			
0.5655	36189.59	3.7120	3.7124	2.2529	25.81	-0.16	0.750			
0.5723	36624.05	3.7090	3.7091	2.3258	25.79	-0.18	0.750			
0.5792	37071.93	3.7060	3.7062	2.3970	25.78	-0.19	0.750			
0.5865	37534.65	3.7030	3.7030	2.4819	25.76	-0.21	0.750			
0.5940	38018.25	3.7000	3.6998	2.5673	25.74	-0.23	0.750			
0.6019	38520.23	3.6970	3.6971	2.6445	25.72	-0.25	0.750			
0.6101	39047.82	3.6940	3.6940	2.7242	25.71	-0.26	0.750			
0.6184	39577.17	3.6910	3.6911	2.7513	25.69	-0.28	0.750			
0.6265	40099.04	3.6880	3.6881	2.8237	25.68	-0.29	0.750			
0.6350	40642.86	3.6850	3.6850	2.9279	25.67	-0.30	0.750			
0.6439	41209.41	3.6820	3.6819	3.0402	25.65	-0.32	0.750			
0.6532	41807.12	3.6790	3.6791	3.1833	25.64	-0.33	0.750			
0.6631	42436.04	3.6760	3.6760	3.2431	25.64	-0.33	0.750			
0.6729	43064.63	3.6730	3.6732	3.3163	25.63	-0.34	0.750			
0.6830	43710.89	3.6700	3.6699	3.3717	25.62	-0.35	0.750			
0.6932	44366.44	3.6670	3.6670	3.4434	25.62	-0.35	0.750			
0.7041	45061.08	3.6640	3.6640	3.4307	25.61	-0.36	0.750			
0.7144	45724.01	3.6610	3.6609	3.2045	25.62	-0.35	0.750			
0.7234	46294.87	3.6580	3.6581	2.8336	25.62	-0.35	0.750			
0.7312	46795.89	3.6550	3.6551	2.4974	25.62	-0.35	0.750			
0.7380	47229.92	3.6520	3.6520	2.1858	25.63	-0.34	0.750			
0.7439	47610.87	3.6490	3.6489	1.9625	25.63	-0.34	0.750			
0.7493	47956.15	3.6460	3.6459	1.7511	25.64	-0.33	0.750			
0.7542	48270.13	3.6430	3.6428	1.6140	25.64	-0.33	0.750			
0.7588	48564.01	3.6400	3.6402	1.4939	25.65	-0.32	0.750			
0.7630	48831.44	3.6370	3.6370	1.3892	25.66	-0.31	0.750			
0.7669	49082.77	3.6340	3.6341	1.3056	25.66	-0.31	0.750			
0.7706	49317.30	3.6310	3.6310	1.2482	25.66	-0.31	0.750			
0.7742	49551.69	3.6280	3.6281	1.2307	25.67	-0.30	0.750			
0.7778	49780.85	3.6250	3.6250	1.2166	25.67	-0.30	0.750			
0.7815	50013.43	3.6220	3.6220	1.2267	25.67	-0.30	0.750			
0.7851	50248.47	3.6190	3.6190	1.2418	25.68	-0.29	0.750			
0.7890	50493.57	3.6160	3.6158	1.2486	25.68	-0.29	0.750			
0.7928	50738.19	3.6130	3.6131	1.2509	25.68	-0.29	0.750			
0.7966	50979.23	3.6100	3.6100	1.2429	25.69	-0.28	0.750			
0.8003	51219.96	3.6070	3.6072	1.2259	25.69	-0.28	0.750			
0.8039	51450.85	3.6040	3.6040	1.2079	25.69	-0.28	0.750			
0.8074	51676.27	3.6010	3.6010	1.1895	25.69	-0.28	0.750			
0.8109	51898.27	3.5980	3.5982	1.1976	25.70	-0.27	0.750			
0.8146	52131.23	3.5950	3.5946	1.2016	25.70	-0.27	0.750			
0.8181	52358.64	3.5920	3.5922	1.2212	25.70	-0.27	0.750			
0.8218	52592.86	3.5890	3.5891	1.2562	25.70	-0.27	0.750			
0.8256	52840.45	3.5860	3.5861	1.2871	25.70	-0.27	0.750			
0.8295	53087.48	3.5830	3.5831	1.3203	25.70	-0.27	0.750			
0.8335	53343.99	3.5800	3.5801	1.3673	25.71	-0.26	0.750			
0.8377	53611.64	3.5770	3.5771	1.4021	25.72	-0.25	0.750			
0.8420	53887.00	3.5740	3.5741	1.4560	25.72	-0.25	0.750			
0.8464	54170.09	3.5710	3.5710	1.4810	25.71	-0.26	0.750			
0.8509	54457.81	3.5680	3.5680	1.5184	25.71	-0.26	0.750			
0.8556	54757.66	3.5650	3.5647	1.5453	25.71	-0.26	0.750			
0.8603	55056.06	3.5620	3.5622	1.5721	25.72	-0.25	0.750			
0.8650	55361.60	3.5590	3.5589	1.5691	25.72	-0.25	0.750			
0.8697	55662.40	3.5560	3.5560	1.5821	25.72	-0.25	0.750			
0.8744	55964.07	3.5530	3.5532	1.5786	25.72	-0.25	0.750			
0.8792	56271.34	3.5500	3.5501	1.6091	25.72	-0.25	0.750			
0.8840	56579.15	3.5470	3.5469	1.6203	25.72	-0.25	0.750			
0.8890	56893.22	3.5440	3.5440	1.6392	25.72	-0.25	0.750			
0.8938	57205.30	3.5410	3.5411	1.6851	25.73	-0.24	0.750			
0.8988	57526.13	3.5380	3.5380	1.7313	25.74	-0.23	0.750			
0.9043	57876.21	3.5350	3.5347	1.7347	25.75	-0.22	0.750			
0.9098	58227.74	3.5320	3.5318	1.6890	25.76	-0.21	0.750			
0.9153	58576.92	3.5290	3.5289	1.5280	25.77	-0.20	0.750			
0.9201	58883.68	3.5260	3.5264	1.3246	25.79	-0.18	0.750			
0.9236	59107.82	3.5230	3.5235	1.0536	25.80	-0.17	0.750			
0.9261	59268.76	3.5200	3.5198	0.7830	25.81	-0.16	0.750			
0.9276	59363.21	3.5170	3.5168	0.5649	25.81	-0.16	0.750			
0.9288	59446.29	3.5140	3.5137	0.4503	25.82	-0.15	0.750			
0.9299	59512.10	3.5110	3.5111	0.3823	25.83	-0.14	0.750			
0.9309	59579.71	3.5080	3.5078	0.3506	25.83	-0.14	0.750			
0.9319	59641.26	3.5050	3.5050	0.3278	25.84	-0.13	0.750			
0.9328	59701.92	3.5020	3.5020	0.3125	25.85	-0.12	0.750			
0.9338	59760.30	3.4990	3.4989	0.3014	25.85	-0.12	0.750			
0.9346	59816.73	3.4960	3.4960	0.2914	25.86	-0.11	0.750			
0.9355	59871.13	3.4930	3.4932	0.2822	25.86	-0.11	0.750			
0.9363	59924.49	3.4900	3.4899	0.2758	25.87	-0.10	0.750			
0.9371	59976.30	3.4870	3.4870	0.2681	25.87	-0.10	0.750			
0.9379	60026.91	3.4840	3.4840	0.2639	25.88	-0.09	0.750			
0.9387	60077.38	3.4810	3.4810	0.2589	25.88	-0.09	0.750			
0.9395	60126.92	3.4780	3.4779	0.2527	25.89	-0.08	0.750			
0.9402	60174.87	3.4750	3.4750	0.2465	25.89	-0.08	0.750			
0.9410	60221.60	3.4720	3.4721	0.2420	25.90	-0.07	0.750			
0.9417	60267.36	3.4690	3.4690	0.2376	25.90	-0.07	0.750			
0.9424	60312.03	3.4660	3.4659	0.2321	25.91	-0.06	0.750			
0.9431	60356.23	3.4630	3.4629	0.2283	25.91	-0.06	0.750			
0.9437	60399.22	3.4600	3.4600	0.2236	25.92	-0.05	0.750			
0.9444	60442.22	3.4570	3.4570	0.2208	25.92	-0.05	0.750			
0.9451	60484.28	3.4540	3.4540	0.2179	25.92	-0.05	0.750			
0.9457	60525.75	3.4510	3.4510	0.2140	25.93	-0.04	0.750			
0.9463	60566.38	3.4480	3.4478	0.2082	25.93	-0.04	0.750			
0.9470	60606.23	3.4450	3.4450	0.2032	25.94	-0.03	0.750			
0.9476	60645.07	3.4420	3.4421	0.1986	25.94	-0.03	0.750			
0.9482	60682.62	3.4390	3.4391	0.1926	25.94	-0.03	0.750			
0.9487	60719.13	3.4360	3.4359	0.1876	25.95	-0.02	0.750			
0.9493	60754.01	3.4330	3.4330	0.1824	25.95	-0.02	0.750			
0.9498	60788.64	3.4300	3.4299	0.1765	25.95	-0.02	0.750			
0.9503	60822.10	3.4270	3.4270	0.1720	25.96	-0.01	0.750			
0.9509	60854.98	3.4240	3.4240	0.1685	25.96	-0.01	0.750			
0.9514	60886.81	3.4210	3.4212	0.1639	25.96	-0.01	0.750			
0.9518	60917.81	3.4180	3.4180	0.1593	25.97	-0.00	0.750			
0.9523	60947.99	3.4150	3.4149	0.1544	25.97	0.00	0.750			
0.9528	60977.28	3.4120	3.4121	0.1489	25.97	0.00	0.750			
0.9532	61005.51	3.4090	3.4090	0.1433	25.98	0.01	0.750			
0.9536	61032.50	3.4060	3.4061	0.1378	25.98	0.01	0.750			
0.9540	61058.96	3.4030	3.4030	0.1324	25.98	0.01	0.750			
0.9544	61083.50	3.4000	3.3999	0.1255	25.98	0.01	0.750			
0.9548	61107.25	3.3970	3.3970	0.1187	25.99	0.02	0.750			
0.9551	61129.39	3.3940	3.3940	0.1119	25.99	0.02	0.750			
0.9555	61151.35	3.3910	3.3909	0.1033	25.99	0.02	0.750			
0.9558	61170.75	3.3880	3.3880	0.0956	25.99	0.02	0.750			
0.9561	61188.18	3.3850	3.3851	0.0859	25.99	0.02	0.750			
0.9563	61204.30	3.3820	3.3822	0.0767	26.00	0.03	0.750			
0.9565	61218.03	3.3790	3.3793	0.0663	26.00	0.03	0.750			
0.9567	61230.27	3.3760	3.3763	0.0554	26.00	0.03	0.750			
0.9569	61239.83	3.3730	3.3737	0.0441	26.00	0.03	0.750			
0.9570	61247.23	3.3700	3.3711	0.0329	26.00	0.03	0.750			
