Ah_balance (normalized)	Ah_balance (mAh)	Voltage - fit (V)	Voltage -  interpolate (V)	dQ/dV (1/V)	Temperature (°C)	Temperature - diff (°C)	Current (C)	R_DC 0ms (mOhm)	R_DC 50ms (mOhm)	R_DC 50 ms PEC (mOhm)
0.0002	15.69	4.1560	4.1559	-0.1082	24.95	0.00	-0.750			
0.0006	40.23	4.1530	4.1528	-0.1455	24.95	0.00	-0.750			
0.0011	71.90	4.1500	4.1500	-0.1812	24.95	-0.00	-0.750			
0.0017	110.11	4.1470	4.1471	-0.2169	24.95	-0.00	-0.750			
0.0024	155.09	4.1440	4.1439	-0.2526	24.95	-0.00	-0.750			
0.0033	208.27	4.1410	4.1409	-0.2834	24.95	-0.00	-0.750			
0.0042	265.78	4.1380	4.1381	-0.3154	24.95	-0.00	-0.750			
0.0051	329.56	4.1350	4.1351	-0.3445	24.95	-0.00	-0.750			
0.0062	399.36	4.1320	4.1320	-0.3722	24.95	-0.00	-0.750			
0.0074	474.31	4.1290	4.1289	-0.3982	24.94	-0.01	-0.750			
0.0086	552.88	4.1260	4.1261	-0.4245	24.94	-0.01	-0.750			
0.0100	637.30	4.1230	4.1230	-0.4491	24.94	-0.01	-0.750			
0.0114	726.76	4.1200	4.1200	-0.4722	24.94	-0.01	-0.750			
0.0128	819.98	4.1170	4.1170	-0.4907	24.94	-0.01	-0.750			
0.0143	916.82	4.1140	4.1140	-0.5092	24.94	-0.01	-0.750			
0.0159	1017.38	4.1110	4.1110	-0.5270	24.94	-0.01	-0.750			
0.0175	1119.64	4.1080	4.1080	-0.5425	24.94	-0.01	-0.750			
0.0191	1224.32	4.1050	4.1050	-0.5572	24.94	-0.01	-0.750			
0.0208	1333.96	4.1020	4.1019	-0.5729	24.93	-0.02	-0.750			
0.0226	1446.62	4.0990	4.0990	-0.5800	24.93	-0.02	-0.750			
0.0244	1560.32	4.0960	4.0960	-0.5903	24.93	-0.02	-0.750			
0.0262	1673.94	4.0930	4.0932	-0.5960	24.93	-0.02	-0.750			
0.0279	1788.56	4.0900	4.0899	-0.6029	24.93	-0.02	-0.750			
0.0297	1903.93	4.0870	4.0870	-0.6114	24.93	-0.02	-0.750			
0.0316	2021.15	4.0840	4.0841	-0.6284	24.93	-0.02	-0.750			
0.0335	2144.94	4.0810	4.0809	-0.6314	24.94	-0.01	-0.750			
0.0354	2267.55	4.0780	4.0780	-0.6409	24.94	-0.01	-0.750			
0.0374	2392.54	4.0750	4.0751	-0.6421	24.94	-0.01	-0.750			
0.0393	2516.13	4.0720	4.0719	-0.6439	24.94	-0.01	-0.750			
0.0412	2638.84	4.0690	4.0690	-0.6496	24.94	-0.01	-0.750			
0.0432	2763.36	4.0660	4.0660	-0.6539	24.94	-0.01	-0.750			
0.0451	2888.23	4.0630	4.0629	-0.6611	24.95	-0.00	-0.750			
0.0472	3019.82	4.0600	4.0600	-0.6657	24.95	-0.00	-0.750			
0.0492	3147.38	4.0570	4.0570	-0.6685	24.95	-0.00	-0.750			
0.0512	3277.24	4.0540	4.0542	-0.6736	24.95	0.00	-0.750			
0.0532	3406.11	4.0510	4.0509	-0.6740	24.95	0.00	-0.750			
0.0552	3533.72	4.0480	4.0480	-0.6785	24.95	0.00	-0.750			
0.0572	3663.71	4.0450	4.0451	-0.6784	24.96	0.01	-0.750			
0.0593	3798.28	4.0420	4.0419	-0.6855	24.96	0.01	-0.750			
0.0614	3929.56	4.0390	4.0389	-0.6859	24.96	0.01	-0.750			
0.0634	4059.72	4.0360	4.0364	-0.6861	24.96	0.01	-0.750			
0.0655	4191.66	4.0330	4.0329	-0.6908	24.96	0.01	-0.750			
0.0676	4324.24	4.0300	4.0300	-0.6919	24.96	0.01	-0.750			
0.0696	4457.28	4.0270	4.0270	-0.6951	24.97	0.02	-0.750			
0.0718	4592.28	4.0240	4.0240	-0.7010	24.97	0.02	-0.750			
0.0739	4727.02	4.0210	4.0209	-0.7030	24.97	0.02	-0.750			
0.0760	4861.14	4.0180	4.0183	-0.7044	24.97	0.02	-0.750			
0.0781	4997.40	4.0150	4.0151	-0.7055	24.98	0.03	-0.750			
0.0802	5132.21	4.0120	4.0120	-0.7115	24.98	0.03	-0.750			
0.0824	5270.56	4.0090	4.0090	-0.7135	24.99	0.04	-0.750			
0.0845	5406.93	4.0060	4.0060	-0.7122	24.99	0.04	-0.750			
0.0866	5543.77	4.0030	4.0030	-0.7119	25.00	0.05	-0.750			
0.0888	5680.38	4.0000	4.0001	-0.7134	25.00	0.05	-0.750			
0.0909	5817.46	3.9970	3.9969	-0.7140	25.00	0.05	-0.750			
0.0930	5953.10	3.9940	3.9940	-0.7232	25.00	0.05	-0.750			
0.0952	6092.63	3.9910	3.9910	-0.7235	25.01	0.06	-0.750			
0.0974	6233.67	3.9880	3.9879	-0.7311	25.01	0.06	-0.750			
0.0996	6374.95	3.9850	3.9850	-0.7284	25.01	0.06	-0.750			
0.1018	6515.01	3.9820	3.9820	-0.7294	25.01	0.06	-0.750			
0.1040	6654.76	3.9790	3.9790	-0.7268	25.01	0.06	-0.750			
0.1061	6792.86	3.9760	3.9759	-0.7285	25.01	0.06	-0.750			
0.1083	6930.79	3.9730	3.9730	-0.7280	25.01	0.06	-0.750			
0.1105	7073.26	3.9700	3.9699	-0.7336	25.01	0.06	-0.750			
0.1127	7214.56	3.9670	3.9670	-0.7347	25.01	0.06	-0.750			
0.1149	7356.33	3.9640	3.9640	-0.7378	25.01	0.06	-0.750			
0.1171	7497.17	3.9610	3.9610	-0.7374	25.02	0.07	-0.750			
0.1194	7639.27	3.9580	3.9580	-0.7431	25.02	0.07	-0.750			
0.1216	7781.23	3.9550	3.9550	-0.7407	25.02	0.07	-0.750			
0.1238	7924.90	3.9520	3.9520	-0.7446	25.03	0.08	-0.750			
0.1261	8068.37	3.9490	3.9492	-0.7448	25.03	0.08	-0.750			
0.1283	8211.68	3.9460	3.9459	-0.7455	25.03	0.08	-0.750			
0.1305	8353.54	3.9430	3.9430	-0.7515	25.04	0.09	-0.750			
0.1328	8497.21	3.9400	3.9399	-0.7531	25.04	0.09	-0.750			
0.1351	8643.55	3.9370	3.9369	-0.7593	25.04	0.09	-0.750			
0.1373	8790.18	3.9340	3.9340	-0.7628	25.05	0.10	-0.750			
0.1396	8936.97	3.9310	3.9310	-0.7668	25.05	0.10	-0.750			
0.1419	9083.84	3.9280	3.9280	-0.7733	25.05	0.10	-0.750			
0.1442	9231.67	3.9250	3.9250	-0.7738	25.05	0.10	-0.750			
0.1466	9381.61	3.9220	3.9220	-0.7655	25.05	0.10	-0.750			
0.1489	9531.26	3.9190	3.9190	-0.7699	25.05	0.10	-0.750			
0.1512	9677.61	3.9160	3.9162	-0.7692	25.05	0.10	-0.750			
0.1535	9824.86	3.9130	3.9129	-0.7652	25.05	0.10	-0.750			
0.1558	9969.75	3.9100	3.9099	-0.7686	25.06	0.11	-0.750			
0.1581	10117.03	3.9070	3.9070	-0.7730	25.06	0.11	-0.750			
0.1604	10267.06	3.9040	3.9040	-0.7758	25.07	0.12	-0.750			
0.1628	10417.67	3.9010	3.9010	-0.7790	25.07	0.12	-0.750			
0.1651	10566.39	3.8980	3.8980	-0.7773	25.07	0.12	-0.750			
0.1674	10715.44	3.8950	3.8949	-0.7805	25.08	0.13	-0.750			
0.1698	10865.34	3.8920	3.8920	-0.7831	25.09	0.14	-0.750			
0.1721	11015.29	3.8890	3.8890	-0.7793	25.09	0.14	-0.750			
0.1745	11167.06	3.8860	3.8859	-0.7793	25.10	0.15	-0.750			
0.1768	11317.04	3.8830	3.8831	-0.7782	25.10	0.15	-0.750			
0.1791	11464.09	3.8800	3.8801	-0.7799	25.10	0.15	-0.750			
0.1815	11613.40	3.8770	3.8769	-0.7824	25.10	0.15	-0.750			
0.1838	11763.39	3.8740	3.8740	-0.7769	25.10	0.15	-0.750			
0.1861	11913.22	3.8710	3.8710	-0.7789	25.10	0.15	-0.750			
0.1885	12064.57	3.8680	3.8684	-0.7832	25.10	0.15	-0.750			
0.1908	12214.19	3.8650	3.8649	-0.7826	25.10	0.15	-0.750			
0.1932	12363.31	3.8620	3.8620	-0.7835	25.10	0.15	-0.750			
0.1955	12513.50	3.8590	3.8590	-0.7849	25.11	0.16	-0.750			
0.1979	12666.43	3.8560	3.8560	-0.7824	25.11	0.16	-0.750			
0.2003	12816.69	3.8530	3.8530	-0.7876	25.11	0.16	-0.750			
0.2026	12967.19	3.8500	3.8500	-0.7852	25.11	0.16	-0.750			
0.2049	13115.81	3.8470	3.8470	-0.7945	25.11	0.16	-0.750			
0.2073	13269.64	3.8440	3.8439	-0.7864	25.12	0.17	-0.750			
0.2097	13420.90	3.8410	3.8410	-0.7863	25.12	0.17	-0.750			
0.2121	13573.80	3.8380	3.8380	-0.7852	25.12	0.17	-0.750			
0.2145	13725.13	3.8350	3.8349	-0.7796	25.12	0.17	-0.750			
0.2167	13870.55	3.8320	3.8320	-0.7742	25.13	0.18	-0.750			
0.2191	14020.08	3.8290	3.8289	-0.7741	25.13	0.18	-0.750			
0.2213	14165.88	3.8260	3.8261	-0.7682	25.13	0.18	-0.750			
0.2237	14318.18	3.8230	3.8229	-0.7717	25.14	0.19	-0.750			
0.2260	14465.80	3.8200	3.8203	-0.7681	25.14	0.19	-0.750			
0.2283	14613.58	3.8170	3.8170	-0.7645	25.14	0.19	-0.750			
0.2306	14758.75	3.8140	3.8140	-0.7635	25.14	0.19	-0.750			
0.2329	14904.93	3.8110	3.8110	-0.7573	25.14	0.19	-0.750			
0.2352	15050.22	3.8080	3.8080	-0.7565	25.14	0.19	-0.750			
0.2374	15195.16	3.8050	3.8050	-0.7517	25.14	0.19	-0.750			
0.2397	15340.51	3.8020	3.8020	-0.7504	25.14	0.19	-0.750			
0.2419	15482.98	3.7990	3.7990	-0.7468	25.14	0.19	-0.750			
0.2442	15625.74	3.7960	3.7960	-0.7491	25.14	0.19	-0.750			
0.2464	15770.86	3.7930	3.7929	-0.7425	25.15	0.20	-0.750			
0.2487	15915.28	3.7900	3.7900	-0.7418	25.15	0.20	-0.750			
0.2509	16055.98	3.7870	3.7874	-0.7333	25.15	0.20	-0.750			
0.2531	16196.47	3.7840	3.7840	-0.7279	25.15	0.20	-0.750			
0.2552	16333.15	3.7810	3.7810	-0.7257	25.16	0.21	-0.750			
0.2574	16471.38	3.7780	3.7779	-0.7227	25.16	0.21	-0.750			
0.2595	16610.32	3.7750	3.7751	-0.7262	25.16	0.21	-0.750			
0.2617	16750.45	3.7720	3.7720	-0.7266	25.17	0.22	-0.750			
0.2639	16890.42	3.7690	3.7690	-0.7260	25.17	0.22	-0.750			
0.2661	17030.10	3.7660	3.7660	-0.7253	25.17	0.22	-0.750			
0.2682	17167.28	3.7630	3.7630	-0.7271	25.17	0.22	-0.750			
0.2704	17304.54	3.7600	3.7600	-0.7408	25.18	0.23	-0.750			
0.2726	17448.81	3.7570	3.7569	-0.7506	25.18	0.23	-0.750			
0.2749	17594.31	3.7540	3.7538	-0.7518	25.18	0.23	-0.750			
0.2772	17740.81	3.7510	3.7512	-0.7603	25.18	0.23	-0.750			
0.2795	17886.43	3.7480	3.7481	-0.7724	25.18	0.23	-0.750			
0.2818	18036.83	3.7450	3.7448	-0.7746	25.18	0.23	-0.750			
0.2841	18184.54	3.7420	3.7419	-0.7736	25.18	0.23	-0.750			
0.2864	18332.65	3.7390	3.7390	-0.7766	25.18	0.23	-0.750			
0.2888	18485.07	3.7360	3.7362	-0.7864	25.18	0.23	-0.750			
0.2912	18636.34	3.7330	3.7329	-0.7901	25.18	0.23	-0.750			
0.2935	18785.68	3.7300	3.7300	-0.7985	25.18	0.23	-0.750			
0.2959	18939.50	3.7270	3.7269	-0.8001	25.18	0.23	-0.750			
0.2984	19096.34	3.7240	3.7240	-0.8153	25.18	0.23	-0.750			
0.3008	19253.00	3.7210	3.7213	-0.8284	25.18	0.23	-0.750			
0.3033	19412.70	3.7180	3.7180	-0.8409	25.18	0.23	-0.750			
0.3059	19574.94	3.7150	3.7149	-0.8591	25.18	0.23	-0.750			
0.3084	19740.59	3.7120	3.7120	-0.8713	25.18	0.23	-0.750			
0.3111	19911.08	3.7090	3.7089	-0.8908	25.18	0.23	-0.750			
0.3138	20084.66	3.7060	3.7061	-0.9050	25.18	0.23	-0.750			
0.3165	20258.77	3.7030	3.7030	-0.9223	25.18	0.23	-0.750			
0.3193	20436.91	3.7000	3.6999	-0.9347	25.18	0.23	-0.750			
0.3222	20617.73	3.6970	3.6970	-0.9478	25.17	0.22	-0.750			
0.3250	20802.26	3.6940	3.6941	-0.9663	25.17	0.22	-0.750			
0.3279	20988.58	3.6910	3.6910	-0.9837	25.17	0.22	-0.750			
0.3309	21179.06	3.6880	3.6880	-0.9978	25.16	0.21	-0.750			
0.3339	21371.95	3.6850	3.6850	-1.0105	25.16	0.21	-0.750			
0.3370	21565.52	3.6820	3.6820	-1.0253	25.15	0.20	-0.750			
0.3401	21766.42	3.6790	3.6790	-1.0511	25.15	0.20	-0.750			
0.3433	21969.82	3.6760	3.6760	-1.0678	25.15	0.20	-0.750			
0.3465	22177.86	3.6730	3.6729	-1.0753	25.14	0.19	-0.750			
0.3497	22383.98	3.6700	3.6701	-1.0907	25.14	0.19	-0.750			
0.3531	22595.79	3.6670	3.6670	-1.1229	25.13	0.18	-0.750			
0.3565	22812.91	3.6640	3.6638	-1.1436	25.13	0.18	-0.750			
0.3599	23033.77	3.6610	3.6609	-1.1645	25.12	0.17	-0.750			
0.3634	23258.88	3.6580	3.6584	-1.1869	25.11	0.16	-0.750			
0.3671	23493.22	3.6550	3.6550	-1.2168	25.10	0.15	-0.750			
0.3708	23729.56	3.6520	3.6519	-1.2390	25.09	0.14	-0.750			
0.3744	23962.35	3.6490	3.6490	-1.2586	25.07	0.12	-0.750			
0.3783	24210.63	3.6460	3.6460	-1.2797	25.07	0.12	-0.750			
0.3822	24457.96	3.6430	3.6429	-1.2995	25.06	0.11	-0.750			
0.3860	24706.46	3.6400	3.6400	-1.3345	25.06	0.11	-0.750			
0.3901	24966.29	3.6370	3.6369	-1.3520	25.06	0.11	-0.750			
0.3942	25230.79	3.6340	3.6339	-1.3793	25.05	0.10	-0.750			
0.3984	25497.53	3.6310	3.6309	-1.3999	25.04	0.09	-0.750			
0.4026	25763.89	3.6280	3.6281	-1.4285	25.04	0.09	-0.750			
0.4070	26046.02	3.6250	3.6249	-1.4634	25.04	0.09	-0.750			
0.4114	26326.43	3.6220	3.6219	-1.4972	25.03	0.08	-0.750			
0.4159	26617.94	3.6190	3.6189	-1.5151	25.03	0.08	-0.750			
0.4205	26914.83	3.6160	3.6161	-1.5732	25.02	0.07	-0.750			
0.4253	27222.09	3.6130	3.6132	-1.6005	25.01	0.06	-0.750			
0.4302	27534.85	3.6100	3.6100	-1.6159	25.00	0.05	-0.750	0.393	0.559	
0.4351	27846.60	3.6070	3.6070	-1.6406	25.00	0.05	-0.750			
0.4400	28161.27	3.6040	3.6040	-1.6709	24.99	0.04	-0.750			
0.4451	28486.87	3.6010	3.6010	-1.6998	24.99	0.04	-0.750			
0.4502	28814.70	3.5980	3.5982	-1.7276	24.99	0.04	-0.750			
0.4554	29143.85	3.5950	3.5950	-1.7615	24.98	0.03	-0.750			
0.4608	29491.22	3.5920	3.5920	-1.7968	24.97	0.02	-0.750			
0.4663	29841.47	3.5890	3.5892	-1.8295	24.97	0.02	-0.750			
0.4718	30195.61	3.5860	3.5859	-1.8598	24.97	0.02	-0.750			
0.4774	30552.75	3.5830	3.5831	-1.8869	24.97	0.02	-0.750			
0.4831	30919.03	3.5800	3.5799	-1.9216	24.96	0.01	-0.750			
0.4889	31290.22	3.5770	3.5768	-1.9618	24.96	0.01	-0.750			
0.4948	31666.75	3.5740	3.5742	-1.9788	24.95	0.00	-0.750			
0.5008	32054.38	3.5710	3.5709	-2.0085	24.95	0.00	-0.750			
0.5069	32443.71	3.5680	3.5681	-2.0205	24.96	0.01	-0.750			
0.5130	32834.40	3.5650	3.5646	-2.0410	24.97	0.02	-0.750			
0.5192	33231.33	3.5620	3.5621	-2.0626	24.97	0.02	-0.750			
0.5253	33622.18	3.5590	3.5590	-2.0598	24.97	0.02	-0.750			
0.5316	34021.88	3.5560	3.5560	-2.0758	24.97	0.02	-0.750			
0.5378	34418.89	3.5530	3.5529	-2.0953	24.96	0.01	-0.750			
0.5442	34829.86	3.5500	3.5498	-2.1080	24.96	0.01	-0.750			
0.5506	35237.29	3.5470	3.5470	-2.0997	24.96	0.01	-0.750			
0.5569	35638.85	3.5440	3.5441	-2.0985	24.96	0.01	-0.750			
0.5632	36043.42	3.5410	3.5411	-2.0768	24.96	0.01	-0.750			
0.5694	36440.49	3.5380	3.5380	-2.0548	24.96	0.01	-0.750			
0.5755	36834.15	3.5350	3.5350	-2.0386	24.97	0.02	-0.750			
0.5816	37221.92	3.5320	3.5319	-2.0058	24.97	0.02	-0.750			
0.5877	37612.04	3.5290	3.5289	-1.9832	24.97	0.02	-0.750			
0.5936	37988.06	3.5260	3.5260	-1.9508	24.98	0.03	-0.750			
0.5993	38356.54	3.5230	3.5230	-1.9151	24.99	0.04	-0.750			
0.6051	38724.09	3.5200	3.5200	-1.8839	24.99	0.04	-0.750			
0.6107	39083.44	3.5170	3.5168	-1.8359	25.00	0.05	-0.750			
0.6161	39432.42	3.5140	3.5141	-1.7977	25.01	0.06	-0.750			
0.6215	39775.74	3.5110	3.5110	-1.7710	25.02	0.07	-0.750			
0.6267	40110.47	3.5080	3.5081	-1.7329	25.03	0.08	-0.750			
0.6319	40441.85	3.5050	3.5050	-1.6739	25.04	0.09	-0.750			
0.6369	40761.92	3.5020	3.5022	-1.6310	25.05	0.10	-0.750			
0.6417	41068.61	3.4990	3.4989	-1.5846	25.06	0.11	-0.750			
0.6464	41369.01	3.4960	3.4959	-1.5404	25.08	0.13	-0.750			
0.6509	41654.92	3.4930	3.4931	-1.4958	25.10	0.15	-0.750			
0.6553	41939.41	3.4900	3.4899	-1.4544	25.11	0.16	-0.750			
0.6596	42217.42	3.4870	3.4870	-1.4103	25.12	0.17	-0.750			
0.6639	42488.10	3.4840	3.4842	-1.3642	25.13	0.18	-0.750			
0.6679	42745.01	3.4810	3.4810	-1.3182	25.15	0.20	-0.750			
0.6717	42988.57	3.4780	3.4780	-1.2733	25.16	0.21	-0.750			
0.6754	43223.84	3.4750	3.4749	-1.2303	25.18	0.23	-0.750			
0.6791	43459.79	3.4720	3.4719	-1.2033	25.19	0.24	-0.750			
0.6826	43687.02	3.4690	3.4690	-1.1703	25.20	0.25	-0.750			
0.6861	43911.36	3.4660	3.4660	-1.1366	25.21	0.26	-0.750			
0.6895	44125.13	3.4630	3.4630	-1.1045	25.22	0.27	-0.750			
0.6927	44333.66	3.4600	3.4600	-1.0638	25.23	0.28	-0.750			
0.6959	44534.60	3.4570	3.4570	-1.0311	25.24	0.29	-0.750			
0.6989	44727.71	3.4540	3.4539	-0.9963	25.25	0.30	-0.750			
0.7018	44916.47	3.4510	3.4511	-0.9663	25.27	0.32	-0.750			
0.7046	45096.94	3.4480	3.4480	-0.9435	25.28	0.33	-0.750			
0.7075	45277.08	3.4450	3.4449	-0.9177	25.29	0.34	-0.750			
0.7101	45449.17	3.4420	3.4420	-0.8907	25.31	0.36	-0.750			
0.7128	45619.25	3.4390	3.4392	-0.8778	25.32	0.37	-0.750			
0.7154	45784.38	3.4360	3.4360	-0.8616	25.33	0.38	-0.750			
0.7179	45947.77	3.4330	3.4330	-0.8536	25.34	0.39	-0.750			
0.7204	46108.33	3.4300	3.4300	-0.8420	25.34	0.39	-0.750			
0.7229	46267.82	3.4270	3.4270	-0.8385	25.35	0.40	-0.750			
0.7255	46430.97	3.4240	3.4240	-0.8444	25.36	0.41	-0.750			
0.7280	46592.43	3.4210	3.4210	-0.8425	25.37	0.42	-0.750			
0.7305	46753.39	3.4180	3.4180	-0.8488	25.38	0.43	-0.750			
0.7331	46918.92	3.4150	3.4149	-0.8487	25.39	0.44	-0.750			
0.7357	47082.05	3.4120	3.4120	-0.8480	25.40	0.45	-0.750			
0.7382	47246.30	3.4090	3.4094	-0.8505	25.41	0.46	-0.750			
0.7408	47408.96	3.4060	3.4059	-0.8458	25.42	0.47	-0.750			
0.7433	47571.32	3.4030	3.4029	-0.8392	25.42	0.47	-0.750			
0.7458	47732.45	3.4000	3.4000	-0.8304	25.43	0.48	-0.750			
0.7483	47893.19	3.3970	3.3970	-0.8230	25.43	0.48	-0.750			
0.7508	48050.81	3.3940	3.3941	-0.8065	25.44	0.49	-0.750			
0.7532	48204.29	3.3910	3.3910	-0.7852	25.45	0.50	-0.750			
0.7555	48351.93	3.3880	3.3880	-0.7671	25.46	0.51	-0.750			
0.7578	48497.33	3.3850	3.3850	-0.7479	25.46	0.51	-0.750			
0.7600	48639.08	3.3820	3.3821	-0.7317	25.47	0.52	-0.750			
0.7622	48777.71	3.3790	3.3788	-0.7116	25.48	0.53	-0.750			
0.7643	48914.18	3.3760	3.3760	-0.6922	25.48	0.53	-0.750			
0.7663	49045.27	3.3730	3.3730	-0.6725	25.49	0.54	-0.750			
0.7683	49172.49	3.3700	3.3700	-0.6508	25.50	0.55	-0.750			
0.7702	49293.43	3.3670	3.3670	-0.6237	25.50	0.55	-0.750			
0.7721	49412.56	3.3640	3.3641	-0.6084	25.51	0.56	-0.750			
0.7739	49527.14	3.3610	3.3610	-0.5865	25.51	0.56	-0.750			
0.7756	49638.08	3.3580	3.3579	-0.5686	25.52	0.57	-0.750			
0.7773	49745.58	3.3550	3.3550	-0.5515	25.53	0.58	-0.750			
0.7789	49848.47	3.3520	3.3521	-0.5332	25.53	0.58	-0.750			
0.7805	49949.35	3.3490	3.3489	-0.5173	25.54	0.59	-0.750			
0.7820	50047.19	3.3460	3.3460	-0.5010	25.55	0.60	-0.750			
0.7835	50141.42	3.3430	3.3430	-0.4844	25.55	0.60	-0.750			
0.7849	50233.37	3.3400	3.3400	-0.4694	25.56	0.61	-0.750			
0.7863	50321.39	3.3370	3.3370	-0.4551	25.56	0.61	-0.750			
0.7876	50407.18	3.3340	3.3339	-0.4417	25.57	0.62	-0.750			
0.7889	50490.33	3.3310	3.3309	-0.4280	25.57	0.62	-0.750			
0.7902	50571.29	3.3280	3.3280	-0.4168	25.58	0.63	-0.750			
0.7914	50650.26	3.3250	3.3250	-0.4056	25.58	0.63	-0.750			
0.7926	50726.39	3.3220	3.3221	-0.3950	25.59	0.64	-0.750			
0.7938	50801.65	3.3190	3.3189	-0.3864	25.59	0.64	-0.750			
0.7949	50874.30	3.3160	3.3160	-0.3760	25.60	0.65	-0.750			
0.7960	50946.23	3.3130	3.3130	-0.3679	25.60	0.65	-0.750			
0.7971	51016.16	3.3100	3.3100	-0.3591	25.61	0.66	-0.750			
0.7982	51084.37	3.3070	3.3070	-0.3485	25.61	0.66	-0.750			
0.7992	51149.93	3.3040	3.3040	-0.3398	25.61	0.66	-0.750			
0.8002	51213.71	3.3010	3.3010	-0.3318	25.62	0.67	-0.750			
0.8012	51276.36	3.2980	3.2980	-0.3242	25.62	0.67	-0.750			
0.8022	51337.90	3.2950	3.2949	-0.3173	25.63	0.68	-0.750			
0.8031	51398.20	3.2920	3.2921	-0.3114	25.64	0.69	-0.750			
0.8040	51457.49	3.2890	3.2890	-0.3049	25.64	0.69	-0.750			
0.8049	51515.51	3.2860	3.2860	-0.2991	25.65	0.70	-0.750			
0.8058	51571.62	3.2830	3.2830	-0.2931	25.65	0.70	-0.750			
0.8067	51627.60	3.2800	3.2800	-0.2883	25.66	0.71	-0.750			
0.8075	51682.47	3.2770	3.2770	-0.2840	25.66	0.71	-0.750			
0.8084	51736.57	3.2740	3.2740	-0.2797	25.67	0.72	-0.750			
0.8092	51789.92	3.2710	3.2711	-0.2748	25.67	0.72	-0.750			
0.8100	51842.25	3.2680	3.2680	-0.2711	25.68	0.73	-0.750			
0.8108	51893.72	3.2650	3.2650	-0.2667	25.68	0.73	-0.750			
0.8116	51944.73	3.2620	3.2620	-0.2614	25.69	0.74	-0.750			
0.8124	51994.56	3.2590	3.2589	-0.2584	25.69	0.74	-0.750			
0.8132	52043.25	3.2560	3.2562	-0.2547	25.70	0.75	-0.750			
0.8139	52091.60	3.2530	3.2531	-0.2516	25.71	0.76	-0.750			
0.8147	52139.77	3.2500	3.2498	-0.2488	25.71	0.76	-0.750			
0.8154	52187.27	3.2470	3.2471	-0.2460	25.72	0.77	-0.750			
0.8162	52234.08	3.2440	3.2440	-0.2412	25.72	0.77	-0.750			
0.8169	52280.40	3.2410	3.2410	-0.2384	25.73	0.78	-0.750			
0.8176	52326.21	3.2380	3.2380	-0.2352	25.73	0.78	-0.750			
0.8183	52370.39	3.2350	3.2350	-0.2303	25.74	0.79	-0.750			
0.8190	52414.09	3.2320	3.2319	-0.2274	25.74	0.79	-0.750			
0.8196	52456.95	3.2290	3.2291	-0.2256	25.75	0.80	-0.750			
0.8203	52500.22	3.2260	3.2260	-0.2232	25.75	0.80	-0.750			
0.8210	52542.91	3.2230	3.2229	-0.2215	25.76	0.81	-0.750			
0.8216	52585.59	3.2200	3.2200	-0.2194	25.76	0.81	-0.750			
0.8223	52627.43	3.2170	3.2171	-0.2166	25.77	0.82	-0.750			
0.8230	52668.86	3.2140	3.2141	-0.2151	25.77	0.82	-0.750			
0.8236	52710.07	3.2110	3.2109	-0.2120	25.77	0.82	-0.750			
0.8242	52750.54	3.2080	3.2079	-0.2091	25.78	0.83	-0.750			
0.8248	52790.15	3.2050	3.2050	-0.2059	25.78	0.83	-0.750			
0.8255	52829.59	3.2020	3.2021	-0.2043	25.79	0.84	-0.750			
0.8261	52868.35	3.1990	3.1989	-0.2025	25.79	0.84	-0.750			
0.8267	52906.80	3.1960	3.1960	-0.2003	25.80	0.85	-0.750			
0.8273	52944.96	3.1930	3.1929	-0.1983	25.81	0.86	-0.750			
0.8279	52982.74	3.1900	3.1900	-0.1962	25.81	0.86	-0.750			
0.8284	53020.72	3.1870	3.1871	-0.1953	25.82	0.87	-0.750			
0.8290	53058.00	3.1840	3.1840	-0.1931	25.83	0.88	-0.750			
0.8296	53094.97	3.1810	3.1810	-0.1910	25.83	0.88	-0.750			
0.8302	53131.37	3.1780	3.1780	-0.1886	25.84	0.89	-0.750			
0.8307	53167.23	3.1750	3.1750	-0.1861	25.84	0.89	-0.750			
0.8313	53202.76	3.1720	3.1720	-0.1840	25.85	0.90	-0.750			
0.8318	53238.02	3.1690	3.1690	-0.1819	25.86	0.91	-0.750			
0.8324	53272.49	3.1660	3.1660	-0.1802	25.86	0.91	-0.750			
0.8329	53306.83	3.1630	3.1630	-0.1785	25.87	0.92	-0.750			
0.8335	53340.98	3.1600	3.1600	-0.1770	25.87	0.92	-0.750			
0.8340	53374.84	3.1570	3.1569	-0.1750	25.88	0.93	-0.750			
0.8345	53408.37	3.1540	3.1540	-0.1734	25.89	0.94	-0.750			
0.8350	53441.60	3.1510	3.1511	-0.1717	25.89	0.94	-0.750			
0.8355	53474.26	3.1480	3.1480	-0.1705	25.90	0.95	-0.750			
0.8360	53506.83	3.1450	3.1449	-0.1692	25.90	0.95	-0.750			
0.8365	53539.04	3.1420	3.1421	-0.1671	25.90	0.95	-0.750			
0.8370	53571.01	3.1390	3.1389	-0.1659	25.91	0.96	-0.750			
0.8375	53602.80	3.1360	3.1361	-0.1647	25.91	0.96	-0.750			
0.8380	53634.48	3.1330	3.1330	-0.1634	25.92	0.97	-0.750			
0.8385	53665.68	3.1300	3.1301	-0.1616	25.92	0.97	-0.750			
0.8390	53696.53	3.1270	3.1269	-0.1598	25.93	0.98	-0.750			
0.8395	53726.91	3.1240	3.1241	-0.1580	25.94	0.99	-0.750			
0.8400	53757.14	3.1210	3.1210	-0.1565	25.94	0.99	-0.750			
0.8404	53786.84	3.1180	3.1180	-0.1556	25.95	1.00	-0.750			
0.8409	53816.62	3.1150	3.1150	-0.1546	25.95	1.00	-0.750			
0.8413	53845.99	3.1120	3.1120	-0.1534	25.96	1.01	-0.750			
0.8418	53875.52	3.1090	3.1089	-0.1520	25.96	1.01	-0.750			
0.8423	53904.70	3.1060	3.1060	-0.1509	25.97	1.02	-0.750			
0.8427	53933.53	3.1030	3.1031	-0.1494	25.97	1.02	-0.750			
0.8432	53962.19	3.1000	3.1000	-0.1481	25.98	1.03	-0.750			
0.8436	53990.41	3.0970	3.0970	-0.1470	25.98	1.03	-0.750			
0.8440	54018.22	3.0940	3.0940	-0.1451	25.99	1.04	-0.750			
0.8445	54046.00	3.0910	3.0910	-0.1443	25.99	1.04	-0.750			
0.8449	54073.66	3.0880	3.0880	-0.1435	26.00	1.05	-0.750			
0.8453	54101.30	3.0850	3.0850	-0.1426	26.01	1.06	-0.750			
0.8458	54128.55	3.0820	3.0820	-0.1413	26.01	1.06	-0.750			
0.8462	54155.55	3.0790	3.0790	-0.1402	26.02	1.07	-0.750			
0.8466	54182.28	3.0760	3.0760	-0.1394	26.02	1.07	-0.750			
0.8470	54209.00	3.0730	3.0730	-0.1381	26.03	1.08	-0.750			
0.8474	54235.45	3.0700	3.0700	-0.1372	26.03	1.08	-0.750			
0.8478	54261.76	3.0670	3.0670	-0.1357	26.04	1.09	-0.750			
0.8482	54287.63	3.0640	3.0641	-0.1347	26.04	1.09	-0.750			
0.8486	54313.36	3.0610	3.0610	-0.1337	26.05	1.10	-0.750			
0.8490	54338.91	3.0580	3.0580	-0.1325	26.05	1.10	-0.750			
0.8494	54364.15	3.0550	3.0549	-0.1313	26.05	1.10	-0.750			
0.8498	54389.03	3.0520	3.0521	-0.1303	26.06	1.11	-0.750			
0.8502	54414.08	3.0490	3.0490	-0.1299	26.06	1.11	-0.750			
0.8506	54438.99	3.0460	3.0459	-0.1292	26.07	1.12	-0.750			
0.8510	54463.86	3.0430	3.0429	-0.1284	26.07	1.12	-0.750			
0.8514	54488.36	3.0400	3.0400	-0.1273	26.08	1.13	-0.750			
0.8518	54512.71	3.0370	3.0371	-0.1264	26.08	1.13	-0.750			
0.8521	54536.94	3.0340	3.0341	-0.1258	26.09	1.14	-0.750			
0.8525	54561.00	3.0310	3.0309	-0.1251	26.09	1.14	-0.750			
0.8529	54584.79	3.0280	3.0280	-0.1240	26.10	1.15	-0.750			
0.8533	54608.75	3.0250	3.0249	-0.1228	26.10	1.15	-0.750			
0.8536	54632.32	3.0220	3.0220	-0.1219	26.10	1.15	-0.750			
0.8540	54655.65	3.0190	3.0191	-0.1206	26.11	1.16	-0.750			
0.8544	54678.93	3.0160	3.0160	-0.1196	26.11	1.16	-0.750			
0.8547	54701.60	3.0130	3.0129	-0.1186	26.12	1.17	-0.750			
0.8551	54724.04	3.0100	3.0100	-0.1173	26.12	1.17	-0.750			
0.8554	54746.47	3.0070	3.0072	-0.1164	26.13	1.18	-0.750			
0.8558	54768.58	3.0040	3.0038	-0.1166	26.13	1.18	-0.751			
0.8561	54790.97	3.0010	3.0010	-0.1166	26.13	1.18	-0.751			
