Ah_balance (normalized)	Ah_balance (mAh)	Voltage - fit (V)	Voltage -  interpolate (V)	dQ/dV (1/V)	Temperature (°C)	Temperature - diff (°C)	Current (C)	R_DC 0ms (mOhm)	R_DC 50ms (mOhm)	R_DC 50 ms PEC (mOhm)
0.0004	28.32	4.1540	4.1539	-0.1257	24.90	0.00	-0.750			
0.0009	57.41	4.1510	4.1508	-0.1654	24.90	0.00	-0.750			
0.0014	92.79	4.1480	4.1480	-0.1999	24.90	0.00	-0.750			
0.0021	134.85	4.1450	4.1451	-0.2326	24.90	0.00	-0.750			
0.0029	182.86	4.1420	4.1420	-0.2662	24.90	-0.00	-0.750			
0.0037	237.61	4.1390	4.1390	-0.3002	24.90	-0.00	-0.750			
0.0047	298.62	4.1360	4.1360	-0.3295	24.90	-0.00	-0.750			
0.0057	365.25	4.1330	4.1331	-0.3591	24.90	-0.00	-0.750			
0.0068	437.41	4.1300	4.1300	-0.3869	24.90	-0.00	-0.750			
0.0080	514.47	4.1270	4.1270	-0.4129	24.90	-0.00	-0.750			
0.0093	595.47	4.1240	4.1240	-0.4429	24.89	-0.01	-0.750			
0.0107	684.33	4.1210	4.1209	-0.4627	24.89	-0.01	-0.750			
0.0121	776.77	4.1180	4.1180	-0.4842	24.89	-0.01	-0.750			
0.0136	872.59	4.1150	4.1150	-0.5014	24.89	-0.01	-0.750			
0.0152	971.62	4.1120	4.1121	-0.5177	24.89	-0.01	-0.750			
0.0168	1072.38	4.1090	4.1089	-0.5305	24.89	-0.01	-0.750			
0.0183	1173.73	4.1060	4.1059	-0.5443	24.89	-0.01	-0.750			
0.0200	1278.19	4.1030	4.1031	-0.5567	24.89	-0.01	-0.750			
0.0217	1388.69	4.1000	4.1000	-0.5762	24.88	-0.02	-0.750			
0.0235	1501.66	4.0970	4.0969	-0.5875	24.88	-0.02	-0.750			
0.0253	1616.04	4.0940	4.0940	-0.5983	24.88	-0.02	-0.750			
0.0271	1732.23	4.0910	4.0910	-0.6077	24.88	-0.02	-0.750			
0.0289	1849.75	4.0880	4.0880	-0.6139	24.88	-0.02	-0.750			
0.0307	1967.35	4.0850	4.0850	-0.6184	24.88	-0.02	-0.750			
0.0326	2086.67	4.0820	4.0821	-0.6290	24.88	-0.02	-0.750			
0.0345	2208.45	4.0790	4.0789	-0.6353	24.87	-0.03	-0.750			
0.0365	2332.85	4.0760	4.0760	-0.6414	24.87	-0.03	-0.750			
0.0384	2456.36	4.0730	4.0729	-0.6432	24.87	-0.03	-0.750			
0.0403	2580.28	4.0700	4.0702	-0.6489	24.87	-0.03	-0.750			
0.0423	2705.20	4.0670	4.0670	-0.6537	24.87	-0.03	-0.750			
0.0442	2830.19	4.0640	4.0639	-0.6556	24.88	-0.02	-0.750			
0.0462	2955.25	4.0610	4.0610	-0.6564	24.88	-0.02	-0.750			
0.0482	3083.84	4.0580	4.0581	-0.6618	24.88	-0.02	-0.750			
0.0502	3212.59	4.0550	4.0549	-0.6675	24.89	-0.01	-0.750			
0.0522	3339.45	4.0520	4.0521	-0.6721	24.89	-0.01	-0.750			
0.0542	3468.97	4.0490	4.0490	-0.6719	24.89	-0.01	-0.750			
0.0562	3597.01	4.0460	4.0459	-0.6783	24.89	-0.01	-0.750			
0.0583	3728.71	4.0430	4.0430	-0.6834	24.89	-0.01	-0.750			
0.0603	3861.30	4.0400	4.0401	-0.6879	24.90	-0.00	-0.750			
0.0624	3993.79	4.0370	4.0369	-0.6893	24.90	-0.00	-0.750			
0.0645	4126.47	4.0340	4.0339	-0.6877	24.90	-0.00	-0.750			
0.0665	4257.31	4.0310	4.0310	-0.6908	24.90	0.00	-0.750			
0.0686	4390.48	4.0280	4.0280	-0.6936	24.90	0.00	-0.750			
0.0707	4522.39	4.0250	4.0250	-0.6970	24.90	0.00	-0.750			
0.0728	4658.77	4.0220	4.0220	-0.7040	24.91	0.01	-0.750			
0.0749	4794.78	4.0190	4.0190	-0.7046	24.91	0.01	-0.750			
0.0770	4930.47	4.0160	4.0159	-0.7034	24.91	0.01	-0.750			
0.0792	5065.81	4.0130	4.0131	-0.7047	24.91	0.01	-0.750			
0.0812	5199.89	4.0100	4.0100	-0.7042	24.92	0.02	-0.750			
0.0834	5334.52	4.0070	4.0070	-0.7105	24.92	0.02	-0.750			
0.0855	5471.16	4.0040	4.0038	-0.7095	24.92	0.02	-0.750			
0.0876	5608.47	4.0010	4.0010	-0.7154	24.93	0.03	-0.750			
0.0898	5746.79	3.9980	3.9982	-0.7192	24.93	0.03	-0.750			
0.0920	5886.36	3.9950	3.9950	-0.7214	24.93	0.03	-0.750			
0.0941	6023.76	3.9920	3.9919	-0.7247	24.94	0.04	-0.750			
0.0963	6161.85	3.9890	3.9890	-0.7234	24.94	0.04	-0.750			
0.0985	6300.99	3.9860	3.9860	-0.7284	24.94	0.04	-0.750			
0.1007	6442.51	3.9830	3.9828	-0.7274	24.95	0.05	-0.750			
0.1028	6581.59	3.9800	3.9801	-0.7290	24.95	0.05	-0.750			
0.1050	6721.75	3.9770	3.9770	-0.7316	24.95	0.05	-0.750			
0.1072	6862.45	3.9740	3.9739	-0.7326	24.96	0.06	-0.750			
0.1094	7001.24	3.9710	3.9710	-0.7282	24.96	0.06	-0.750			
0.1116	7143.17	3.9680	3.9681	-0.7372	24.97	0.07	-0.750			
0.1138	7284.99	3.9650	3.9650	-0.7419	24.97	0.07	-0.750			
0.1161	7429.37	3.9620	3.9618	-0.7447	24.97	0.07	-0.750			
0.1183	7570.80	3.9590	3.9590	-0.7426	24.98	0.08	-0.750			
0.1205	7714.33	3.9560	3.9562	-0.7455	24.98	0.08	-0.750			
0.1228	7858.81	3.9530	3.9529	-0.7465	24.98	0.08	-0.750			
0.1250	8002.53	3.9500	3.9499	-0.7419	24.99	0.09	-0.750			
0.1272	8142.15	3.9470	3.9472	-0.7417	24.99	0.09	-0.750			
0.1294	8283.81	3.9440	3.9441	-0.7450	24.99	0.09	-0.750			
0.1317	8427.71	3.9410	3.9410	-0.7533	24.99	0.09	-0.750			
0.1340	8572.84	3.9380	3.9379	-0.7575	25.00	0.10	-0.750			
0.1362	8719.26	3.9350	3.9350	-0.7615	25.00	0.10	-0.750			
0.1386	8867.32	3.9320	3.9320	-0.7627	25.00	0.10	-0.750			
0.1409	9016.17	3.9290	3.9291	-0.7632	25.00	0.10	-0.750			
0.1431	9158.92	3.9260	3.9260	-0.7641	25.01	0.11	-0.750			
0.1454	9304.57	3.9230	3.9230	-0.7633	25.01	0.11	-0.750			
0.1477	9452.09	3.9200	3.9199	-0.7570	25.01	0.11	-0.750			
0.1500	9597.24	3.9170	3.9169	-0.7598	25.02	0.12	-0.750			
0.1522	9743.89	3.9140	3.9147	-0.7661	25.02	0.12	-0.750			
0.1545	9890.82	3.9110	3.9108	-0.7709	25.02	0.12	-0.750			
0.1569	10040.00	3.9080	3.9079	-0.7714	25.03	0.13	-0.750			
0.1592	10187.59	3.9050	3.9051	-0.7715	25.03	0.13	-0.750			
0.1615	10336.69	3.9020	3.9020	-0.7787	25.03	0.13	-0.750			
0.1639	10487.20	3.8990	3.8987	-0.7826	25.04	0.14	-0.750			
0.1662	10635.93	3.8960	3.8958	-0.7778	25.04	0.14	-0.750			
0.1685	10784.74	3.8930	3.8930	-0.7805	25.04	0.14	-0.750			
0.1709	10935.24	3.8900	3.8901	-0.7802	25.04	0.14	-0.750			
0.1732	11085.77	3.8870	3.8870	-0.7738	25.05	0.15	-0.750			
0.1755	11234.80	3.8840	3.8840	-0.7798	25.05	0.15	-0.750			
0.1779	11383.78	3.8810	3.8811	-0.7798	25.05	0.15	-0.750			
0.1802	11530.38	3.8780	3.8782	-0.7868	25.05	0.15	-0.750			
0.1826	11684.30	3.8750	3.8748	-0.7919	25.05	0.15	-0.750			
0.1850	11838.32	3.8720	3.8721	-0.7906	25.06	0.16	-0.750			
0.1874	11992.28	3.8690	3.8689	-0.7913	25.06	0.16	-0.750			
0.1898	12145.04	3.8660	3.8663	-0.7907	25.06	0.16	-0.750			
0.1921	12293.83	3.8630	3.8629	-0.7825	25.06	0.16	-0.750			
0.1944	12440.77	3.8600	3.8600	-0.7822	25.06	0.16	-0.750			
0.1967	12590.56	3.8570	3.8568	-0.7811	25.07	0.17	-0.750			
0.1991	12744.06	3.8540	3.8540	-0.7829	25.07	0.17	-0.750			
0.2015	12893.32	3.8510	3.8510	-0.7811	25.07	0.17	-0.750			
0.2038	13042.95	3.8480	3.8481	-0.7815	25.07	0.17	-0.750			
0.2061	13192.05	3.8450	3.8449	-0.7828	25.08	0.18	-0.750			
0.2084	13339.96	3.8420	3.8419	-0.7768	25.09	0.19	-0.750			
0.2108	13489.37	3.8390	3.8390	-0.7784	25.09	0.19	-0.750			
0.2132	13641.67	3.8360	3.8361	-0.7848	25.10	0.20	-0.750			
0.2155	13792.97	3.8330	3.8331	-0.7840	25.10	0.20	-0.750			
0.2178	13942.12	3.8300	3.8300	-0.7790	25.11	0.21	-0.750			
0.2202	14092.15	3.8270	3.8270	-0.7778	25.11	0.21	-0.750			
0.2225	14240.00	3.8240	3.8240	-0.7719	25.11	0.21	-0.750			
0.2248	14389.48	3.8210	3.8210	-0.7696	25.12	0.22	-0.750			
0.2271	14536.19	3.8180	3.8182	-0.7653	25.12	0.22	-0.750			
0.2294	14682.05	3.8150	3.8150	-0.7609	25.12	0.22	-0.750			
0.2317	14827.66	3.8120	3.8121	-0.7591	25.13	0.23	-0.750			
0.2340	14973.77	3.8090	3.8090	-0.7563	25.13	0.23	-0.750			
0.2362	15119.36	3.8060	3.8060	-0.7529	25.13	0.23	-0.750			
0.2385	15263.43	3.8030	3.8029	-0.7498	25.14	0.24	-0.750			
0.2407	15407.20	3.8000	3.8001	-0.7450	25.14	0.24	-0.750			
0.2430	15549.54	3.7970	3.7970	-0.7350	25.14	0.24	-0.750			
0.2451	15688.30	3.7940	3.7939	-0.7382	25.14	0.24	-0.750			
0.2473	15829.14	3.7910	3.7911	-0.7369	25.15	0.25	-0.750			
0.2496	15972.63	3.7880	3.7878	-0.7354	25.15	0.25	-0.750			
0.2518	16115.29	3.7850	3.7852	-0.7316	25.15	0.25	-0.750			
0.2540	16255.54	3.7820	3.7820	-0.7250	25.15	0.25	-0.750			
0.2562	16394.71	3.7790	3.7789	-0.7205	25.15	0.25	-0.750			
0.2583	16532.05	3.7760	3.7760	-0.7246	25.15	0.25	-0.750			
0.2604	16668.63	3.7730	3.7729	-0.7126	25.16	0.26	-0.750			
0.2626	16807.58	3.7700	3.7699	-0.7187	25.16	0.26	-0.750			
0.2648	16946.08	3.7670	3.7675	-0.7196	25.16	0.26	-0.750			
0.2669	17084.50	3.7640	3.7639	-0.7218	25.16	0.26	-0.750			
0.2691	17221.15	3.7610	3.7609	-0.7289	25.17	0.27	-0.750			
0.2712	17359.70	3.7580	3.7580	-0.7272	25.17	0.27	-0.750			
0.2735	17502.95	3.7550	3.7549	-0.7367	25.17	0.27	-0.750			
0.2757	17644.43	3.7520	3.7520	-0.7391	25.18	0.28	-0.750			
0.2779	17785.49	3.7490	3.7491	-0.7428	25.18	0.28	-0.750			
0.2801	17929.30	3.7460	3.7460	-0.7454	25.18	0.28	-0.750			
0.2823	18070.01	3.7430	3.7429	-0.7516	25.18	0.28	-0.750			
0.2846	18214.88	3.7400	3.7400	-0.7570	25.19	0.29	-0.750			
0.2869	18361.93	3.7370	3.7370	-0.7724	25.19	0.29	-0.750			
0.2892	18511.91	3.7340	3.7339	-0.7827	25.19	0.29	-0.750			
0.2916	18662.30	3.7310	3.7311	-0.7902	25.19	0.29	-0.750			
0.2940	18813.77	3.7280	3.7280	-0.8038	25.19	0.29	-0.750			
0.2964	18971.29	3.7250	3.7250	-0.8180	25.20	0.30	-0.750			
0.2989	19128.64	3.7220	3.7219	-0.8247	25.20	0.30	-0.750			
0.3014	19290.61	3.7190	3.7191	-0.8372	25.20	0.30	-0.750			
0.3039	19449.15	3.7160	3.7160	-0.8481	25.20	0.30	-0.750			
0.3065	19613.84	3.7130	3.7130	-0.8599	25.19	0.29	-0.750			
0.3090	19778.86	3.7100	3.7100	-0.8733	25.19	0.29	-0.750			
0.3116	19945.60	3.7070	3.7069	-0.8830	25.18	0.28	-0.750			
0.3144	20118.96	3.7040	3.7042	-0.9066	25.18	0.28	-0.750			
0.3171	20293.68	3.7010	3.7010	-0.9297	25.18	0.28	-0.750			
0.3199	20475.86	3.6980	3.6980	-0.9493	25.18	0.28	-0.750			
0.3228	20660.29	3.6950	3.6950	-0.9606	25.18	0.28	-0.750			
0.3258	20848.05	3.6920	3.6918	-0.9761	25.18	0.28	-0.750			
0.3287	21034.71	3.6890	3.6891	-0.9911	25.18	0.28	-0.750			
0.3317	21226.14	3.6860	3.6859	-1.0067	25.17	0.27	-0.750			
0.3347	21418.68	3.6830	3.6830	-1.0192	25.16	0.26	-0.750			
0.3377	21615.86	3.6800	3.6798	-1.0325	25.15	0.25	-0.750			
0.3409	21817.18	3.6770	3.6772	-1.0605	25.15	0.25	-0.750			
0.3442	22025.91	3.6740	3.6739	-1.0788	25.15	0.25	-0.750			
0.3474	22234.54	3.6710	3.6709	-1.0893	25.14	0.24	-0.750			
0.3507	22442.70	3.6680	3.6681	-1.1068	25.14	0.24	-0.750			
0.3540	22657.53	3.6650	3.6650	-1.1363	25.14	0.24	-0.750			
0.3575	22878.09	3.6620	3.6619	-1.1563	25.13	0.23	-0.750			
0.3610	23102.26	3.6590	3.6590	-1.1773	25.13	0.23	-0.750			
0.3645	23327.93	3.6560	3.6562	-1.2011	25.12	0.22	-0.750			
0.3682	23564.81	3.6530	3.6529	-1.2336	25.11	0.21	-0.750			
0.3720	23805.32	3.6500	3.6500	-1.2540	25.10	0.20	-0.750			
0.3757	24045.01	3.6470	3.6469	-1.2812	25.09	0.19	-0.750			
0.3796	24297.24	3.6440	3.6440	-1.2970	25.09	0.19	-0.750			
0.3836	24548.28	3.6410	3.6410	-1.3139	25.08	0.18	-0.750			
0.3875	24798.38	3.6380	3.6380	-1.3389	25.07	0.17	-0.750			
0.3915	25056.54	3.6350	3.6349	-1.3594	25.07	0.17	-0.750			
0.3956	25319.78	3.6320	3.6319	-1.3948	25.06	0.16	-0.750			
0.3999	25593.45	3.6290	3.6288	-1.4231	25.05	0.15	-0.750			
0.4042	25871.38	3.6260	3.6260	-1.4440	25.04	0.14	-0.750			
0.4087	26156.16	3.6230	3.6230	-1.4772	25.03	0.13	-0.750			
0.4131	26439.97	3.6200	3.6199	-1.5001	25.02	0.12	-0.750			
0.4176	26723.73	3.6170	3.6168	-1.5168	25.02	0.12	-0.750			
0.4222	27021.12	3.6140	3.6141	-1.5468	25.01	0.11	-0.750			
0.4268	27317.50	3.6110	3.6111	-1.5720	25.01	0.11	-0.750	0.384	0.571	
0.4317	27627.17	3.6080	3.6079	-1.6121	25.00	0.10	-0.750			
0.4366	27943.20	3.6050	3.6050	-1.6465	24.99	0.09	-0.750			
0.4416	28260.78	3.6020	3.6019	-1.6736	24.99	0.09	-0.750			
0.4466	28584.83	3.5990	3.5991	-1.7209	24.99	0.09	-0.750			
0.4519	28918.88	3.5960	3.5960	-1.7526	24.99	0.09	-0.750			
0.4571	29256.86	3.5930	3.5931	-1.7819	24.98	0.08	-0.750			
0.4626	29604.40	3.5900	3.5900	-1.8157	24.97	0.07	-0.750			
0.4680	29952.54	3.5870	3.5868	-1.8419	24.97	0.07	-0.750			
0.4736	30307.61	3.5840	3.5838	-1.8895	24.97	0.07	-0.750			
0.4793	30673.89	3.5810	3.5808	-1.9178	24.97	0.07	-0.750			
0.4851	31046.49	3.5780	3.5780	-1.9686	24.96	0.06	-0.750			
0.4911	31433.14	3.5750	3.5751	-1.9811	24.95	0.05	-0.750			
0.4972	31820.15	3.5720	3.5720	-2.0127	24.95	0.05	-0.750			
0.5033	32210.11	3.5690	3.5691	-2.0342	24.95	0.05	-0.750			
0.5095	32610.18	3.5660	3.5659	-2.0451	24.95	0.05	-0.750			
0.5156	32997.18	3.5630	3.5630	-2.0730	24.95	0.05	-0.750			
0.5219	33402.72	3.5600	3.5601	-2.0787	24.95	0.05	-0.750			
0.5282	33802.07	3.5570	3.5571	-2.0735	24.95	0.05	-0.750			
0.5345	34208.47	3.5540	3.5541	-2.0838	24.96	0.06	-0.750			
0.5407	34605.72	3.5510	3.5509	-2.0631	24.96	0.06	-0.750			
0.5468	34997.73	3.5480	3.5481	-2.0747	24.95	0.05	-0.750			
0.5531	35397.84	3.5450	3.5450	-2.0672	24.95	0.05	-0.750			
0.5592	35788.05	3.5420	3.5421	-2.0521	24.96	0.06	-0.750			
0.5654	36186.35	3.5390	3.5392	-2.0421	24.96	0.06	-0.750			
0.5716	36579.30	3.5360	3.5358	-2.0403	24.97	0.07	-0.750			
0.5776	36966.14	3.5330	3.5329	-2.0183	24.97	0.07	-0.750			
0.5837	37356.76	3.5300	3.5298	-1.9934	24.98	0.08	-0.750			
0.5895	37728.71	3.5270	3.5270	-1.9682	24.99	0.09	-0.750			
0.5954	38106.98	3.5240	3.5238	-1.9444	24.99	0.09	-0.750			
0.6012	38479.89	3.5210	3.5206	-1.9143	24.99	0.09	-0.750			
0.6070	38845.30	3.5180	3.5181	-1.8741	25.00	0.10	-0.750			
0.6125	39201.97	3.5150	3.5151	-1.8476	25.01	0.11	-0.750			
0.6181	39559.07	3.5120	3.5118	-1.7987	25.02	0.12	-0.750			
0.6235	39902.23	3.5090	3.5087	-1.7570	25.04	0.14	-0.750			
0.6287	40237.88	3.5060	3.5059	-1.7056	25.05	0.15	-0.750			
0.6338	40562.60	3.5030	3.5030	-1.6651	25.06	0.16	-0.750			
0.6386	40870.24	3.5000	3.5002	-1.6178	25.07	0.17	-0.750			
0.6434	41175.12	3.4970	3.4969	-1.5761	25.09	0.19	-0.750			
0.6481	41478.14	3.4940	3.4936	-1.5483	25.10	0.20	-0.750			
0.6527	41773.46	3.4910	3.4909	-1.5074	25.12	0.22	-0.750			
0.6572	42058.35	3.4880	3.4882	-1.4548	25.13	0.23	-0.750			
0.6616	42343.80	3.4850	3.4849	-1.4104	25.14	0.24	-0.750			
0.6657	42601.74	3.4820	3.4820	-1.3457	25.15	0.25	-0.750			
0.6695	42850.59	3.4790	3.4790	-1.2904	25.17	0.27	-0.750			
0.6734	43097.45	3.4760	3.4759	-1.2606	25.19	0.29	-0.750			
0.6771	43334.77	3.4730	3.4732	-1.2250	25.20	0.30	-0.750			
0.6808	43568.59	3.4700	3.4700	-1.1841	25.22	0.32	-0.750			
0.6843	43793.24	3.4670	3.4669	-1.1423	25.23	0.33	-0.750			
0.6876	44007.57	3.4640	3.4640	-1.1087	25.25	0.35	-0.750			
0.6909	44215.65	3.4610	3.4610	-1.0729	25.26	0.36	-0.750			
0.6940	44416.82	3.4580	3.4579	-1.0350	25.27	0.37	-0.750			
0.6970	44610.66	3.4550	3.4550	-1.0032	25.28	0.38	-0.750			
0.7000	44799.88	3.4520	3.4521	-0.9778	25.29	0.39	-0.750			
0.7029	44987.03	3.4490	3.4490	-0.9543	25.30	0.40	-0.750			
0.7057	45166.75	3.4460	3.4460	-0.9309	25.32	0.42	-0.750			
0.7085	45341.95	3.4430	3.4430	-0.9046	25.33	0.43	-0.750			
0.7111	45513.57	3.4400	3.4399	-0.8856	25.34	0.44	-0.750			
0.7138	45681.13	3.4370	3.4371	-0.8704	25.36	0.46	-0.750			
0.7163	45845.16	3.4340	3.4340	-0.8575	25.37	0.47	-0.750			
0.7189	46007.13	3.4310	3.4310	-0.8493	25.38	0.48	-0.750			
0.7214	46169.72	3.4280	3.4279	-0.8436	25.39	0.49	-0.750			
0.7239	46329.30	3.4250	3.4250	-0.8383	25.40	0.50	-0.750			
0.7264	46491.07	3.4220	3.4220	-0.8423	25.42	0.52	-0.750			
0.7289	46652.40	3.4190	3.4190	-0.8442	25.43	0.53	-0.750			
0.7315	46813.83	3.4160	3.4159	-0.8437	25.43	0.53	-0.750			
0.7340	46977.11	3.4130	3.4130	-0.8448	25.44	0.54	-0.750			
0.7366	47140.05	3.4100	3.4101	-0.8423	25.45	0.55	-0.750			
0.7391	47304.19	3.4070	3.4070	-0.8421	25.46	0.56	-0.750			
0.7416	47465.53	3.4040	3.4040	-0.8317	25.47	0.57	-0.750			
0.7441	47623.54	3.4010	3.4011	-0.8241	25.47	0.57	-0.750			
0.7466	47781.57	3.3980	3.3979	-0.8136	25.48	0.58	-0.750			
0.7490	47937.81	3.3950	3.3949	-0.8013	25.49	0.59	-0.750			
0.7514	48091.62	3.3920	3.3920	-0.7885	25.50	0.60	-0.750			
0.7538	48241.10	3.3890	3.3890	-0.7732	25.51	0.61	-0.750			
0.7561	48389.47	3.3860	3.3860	-0.7564	25.51	0.61	-0.750			
0.7583	48533.25	3.3830	3.3830	-0.7387	25.52	0.62	-0.750			
0.7605	48672.27	3.3800	3.3800	-0.7154	25.53	0.63	-0.750			
0.7627	48810.35	3.3770	3.3770	-0.7000	25.53	0.63	-0.750			
0.7647	48942.31	3.3740	3.3742	-0.6770	25.54	0.64	-0.750			
0.7667	49069.67	3.3710	3.3710	-0.6560	25.55	0.65	-0.750			
0.7686	49192.93	3.3680	3.3680	-0.6345	25.55	0.65	-0.750			
0.7705	49313.22	3.3650	3.3649	-0.6144	25.56	0.66	-0.750			
0.7723	49429.83	3.3620	3.3620	-0.5953	25.56	0.66	-0.750			
0.7741	49541.54	3.3590	3.3590	-0.5758	25.57	0.67	-0.750			
0.7758	49650.24	3.3560	3.3560	-0.5560	25.58	0.68	-0.750			
0.7774	49754.59	3.3530	3.3530	-0.5398	25.58	0.68	-0.750			
0.7790	49855.62	3.3500	3.3501	-0.5208	25.59	0.69	-0.750			
0.7805	49954.16	3.3470	3.3470	-0.5070	25.59	0.69	-0.750			
0.7820	50049.66	3.3440	3.3440	-0.4931	25.60	0.70	-0.750			
0.7835	50143.37	3.3410	3.3411	-0.4780	25.60	0.70	-0.750			
0.7849	50233.39	3.3380	3.3380	-0.4642	25.60	0.70	-0.750			
0.7863	50322.35	3.3350	3.3350	-0.4498	25.61	0.71	-0.750			
0.7876	50406.95	3.3320	3.3320	-0.4340	25.61	0.71	-0.750			
0.7889	50488.57	3.3290	3.3289	-0.4210	25.62	0.72	-0.750			
0.7901	50566.94	3.3260	3.3261	-0.4091	25.62	0.72	-0.750			
0.7913	50643.18	3.3230	3.3229	-0.3976	25.63	0.73	-0.750			
0.7925	50718.98	3.3200	3.3199	-0.3889	25.63	0.73	-0.750			
0.7936	50792.72	3.3170	3.3170	-0.3789	25.64	0.74	-0.750			
0.7948	50865.36	3.3140	3.3140	-0.3704	25.64	0.74	-0.750			
0.7959	50936.19	3.3110	3.3111	-0.3609	25.65	0.75	-0.750			
0.7969	51004.16	3.3080	3.3080	-0.3513	25.66	0.76	-0.750			
0.7980	51069.05	3.3050	3.3050	-0.3422	25.66	0.76	-0.750			
0.7990	51134.70	3.3020	3.3020	-0.3354	25.67	0.77	-0.750			
0.8000	51198.50	3.2990	3.2989	-0.3274	25.67	0.77	-0.750			
0.8009	51260.24	3.2960	3.2961	-0.3209	25.67	0.77	-0.750			
0.8019	51321.46	3.2930	3.2932	-0.3157	25.68	0.78	-0.750			
0.8028	51381.27	3.2900	3.2899	-0.3093	25.68	0.78	-0.750			
0.8037	51439.59	3.2870	3.2870	-0.3020	25.69	0.79	-0.750			
0.8046	51496.98	3.2840	3.2841	-0.2970	25.70	0.80	-0.750			
0.8055	51553.39	3.2810	3.2810	-0.2928	25.70	0.80	-0.750			
0.8064	51609.88	3.2780	3.2780	-0.2885	25.71	0.81	-0.750			
0.8073	51664.34	3.2750	3.2750	-0.2826	25.71	0.81	-0.750			
0.8081	51718.06	3.2720	3.2720	-0.2778	25.72	0.82	-0.750			
0.8089	51771.13	3.2690	3.2690	-0.2737	25.72	0.82	-0.750			
0.8097	51823.26	3.2660	3.2660	-0.2692	25.73	0.83	-0.750			
0.8105	51874.33	3.2630	3.2630	-0.2641	25.73	0.83	-0.750			
0.8113	51923.98	3.2600	3.2601	-0.2600	25.74	0.84	-0.750			
0.8121	51973.68	3.2570	3.2570	-0.2571	25.74	0.84	-0.750			
0.8129	52022.80	3.2540	3.2540	-0.2531	25.75	0.85	-0.750			
0.8136	52071.01	3.2510	3.2509	-0.2495	25.75	0.85	-0.750			
0.8144	52118.72	3.2480	3.2480	-0.2458	25.76	0.86	-0.750			
0.8151	52165.51	3.2450	3.2450	-0.2425	25.76	0.86	-0.750			
0.8158	52211.79	3.2420	3.2420	-0.2390	25.77	0.87	-0.750			
0.8165	52257.29	3.2390	3.2390	-0.2352	25.78	0.88	-0.750			
0.8172	52301.26	3.2360	3.2360	-0.2328	25.78	0.88	-0.750			
0.8179	52346.03	3.2330	3.2330	-0.2302	25.79	0.89	-0.750			
0.8186	52390.37	3.2300	3.2300	-0.2282	25.79	0.89	-0.750			
0.8193	52433.92	3.2270	3.2269	-0.2254	25.80	0.90	-0.750			
0.8200	52477.15	3.2240	3.2241	-0.2223	25.80	0.90	-0.750			
0.8206	52519.34	3.2210	3.2211	-0.2197	25.81	0.91	-0.750			
0.8213	52561.33	3.2180	3.2179	-0.2169	25.81	0.91	-0.750			
0.8219	52602.62	3.2150	3.2150	-0.2140	25.82	0.92	-0.750			
0.8225	52642.85	3.2120	3.2120	-0.2108	25.82	0.92	-0.750			
0.8232	52683.25	3.2090	3.2091	-0.2098	25.83	0.93	-0.750			
0.8238	52723.35	3.2060	3.2060	-0.2080	25.83	0.93	-0.750			
0.8244	52763.06	3.2030	3.2030	-0.2060	25.84	0.94	-0.750			
0.8250	52802.27	3.2000	3.2000	-0.2055	25.85	0.95	-0.750			
0.8257	52841.77	3.1970	3.1970	-0.2029	25.85	0.95	-0.750			
0.8263	52880.77	3.1940	3.1940	-0.2005	25.85	0.95	-0.750			
0.8269	52919.61	3.1910	3.1909	-0.1978	25.86	0.96	-0.750			
0.8275	52957.58	3.1880	3.1880	-0.1947	25.87	0.97	-0.750			
0.8280	52994.35	3.1850	3.1850	-0.1920	25.88	0.98	-0.750			
0.8286	53030.60	3.1820	3.1821	-0.1903	25.89	0.99	-0.750			
0.8292	53065.95	3.1790	3.1790	-0.1870	25.89	0.99	-0.750			
0.8297	53102.07	3.1760	3.1759	-0.1858	25.90	1.00	-0.750			
0.8303	53137.98	3.1730	3.1730	-0.1846	25.90	1.00	-0.750			
0.8308	53173.22	3.1700	3.1702	-0.1835	25.91	1.01	-0.750			
0.8314	53208.68	3.1670	3.1669	-0.1827	25.91	1.01	-0.750			
0.8319	53243.56	3.1640	3.1640	-0.1804	25.92	1.02	-0.750			
0.8325	53277.77	3.1610	3.1609	-0.1784	25.92	1.02	-0.750			
0.8330	53311.75	3.1580	3.1581	-0.1762	25.93	1.03	-0.750			
0.8335	53345.44	3.1550	3.1551	-0.1747	25.93	1.03	-0.750			
0.8340	53379.08	3.1520	3.1519	-0.1733	25.94	1.04	-0.750			
0.8346	53412.09	3.1490	3.1490	-0.1717	25.94	1.04	-0.750			
0.8351	53444.69	3.1460	3.1459	-0.1696	25.95	1.05	-0.750			
0.8356	53477.18	3.1430	3.1431	-0.1681	25.95	1.05	-0.750			
0.8361	53509.46	3.1400	3.1399	-0.1668	25.96	1.06	-0.750			
0.8366	53541.30	3.1370	3.1370	-0.1651	25.96	1.06	-0.750			
0.8371	53572.97	3.1340	3.1341	-0.1634	25.97	1.07	-0.750			
0.8376	53604.16	3.1310	3.1309	-0.1615	25.97	1.07	-0.750			
0.8380	53634.93	3.1280	3.1280	-0.1601	25.98	1.08	-0.750			
0.8385	53665.36	3.1250	3.1250	-0.1586	25.98	1.08	-0.750			
0.8390	53695.68	3.1220	3.1221	-0.1573	25.99	1.09	-0.750			
0.8395	53725.64	3.1190	3.1189	-0.1561	25.99	1.09	-0.750			
0.8399	53755.52	3.1160	3.1160	-0.1552	26.00	1.10	-0.750			
0.8404	53785.27	3.1130	3.1130	-0.1540	26.00	1.10	-0.750			
0.8409	53814.87	3.1100	3.1100	-0.1530	26.01	1.11	-0.750			
0.8413	53844.10	3.1070	3.1070	-0.1515	26.02	1.12	-0.750			
0.8418	53873.05	3.1040	3.1040	-0.1501	26.02	1.12	-0.750			
0.8422	53901.77	3.1010	3.1010	-0.1489	26.03	1.13	-0.750			
0.8427	53930.19	3.0980	3.0981	-0.1477	26.03	1.13	-0.750			
0.8431	53958.25	3.0950	3.0949	-0.1463	26.04	1.14	-0.750			
0.8435	53986.27	3.0920	3.0920	-0.1455	26.05	1.15	-0.750			
0.8440	54014.18	3.0890	3.0890	-0.1445	26.05	1.15	-0.750			
0.8444	54042.01	3.0860	3.0859	-0.1431	26.06	1.16	-0.750			
0.8448	54069.48	3.0830	3.0831	-0.1418	26.07	1.17	-0.750			
0.8453	54096.45	3.0800	3.0800	-0.1406	26.07	1.17	-0.750			
0.8457	54123.29	3.0770	3.0770	-0.1392	26.08	1.18	-0.750			
0.8461	54149.89	3.0740	3.0739	-0.1377	26.08	1.18	-0.750			
0.8465	54176.11	3.0710	3.0709	-0.1361	26.09	1.19	-0.750			
0.8469	54202.06	3.0680	3.0680	-0.1352	26.10	1.20	-0.750			
0.8473	54227.77	3.0650	3.0650	-0.1348	26.10	1.20	-0.750			
0.8477	54253.63	3.0620	3.0619	-0.1342	26.11	1.21	-0.750			
0.8481	54279.33	3.0590	3.0590	-0.1336	26.11	1.21	-0.750			
0.8485	54304.84	3.0560	3.0560	-0.1325	26.12	1.22	-0.750			
0.8489	54330.30	3.0530	3.0530	-0.1322	26.12	1.22	-0.750			
0.8493	54355.77	3.0500	3.0500	-0.1318	26.13	1.23	-0.750			
0.8497	54381.06	3.0470	3.0471	-0.1303	26.13	1.23	-0.750			
0.8501	54405.97	3.0440	3.0439	-0.1289	26.14	1.24	-0.750			
0.8505	54430.47	3.0410	3.0411	-0.1275	26.14	1.24	-0.750			
0.8509	54454.97	3.0380	3.0381	-0.1264	26.14	1.24	-0.750			
0.8512	54478.99	3.0350	3.0351	-0.1255	26.15	1.25	-0.750			
0.8516	54502.80	3.0320	3.0319	-0.1248	26.15	1.25	-0.750			
0.8520	54526.71	3.0290	3.0290	-0.1242	26.16	1.26	-0.750			
0.8523	54550.29	3.0260	3.0259	-0.1231	26.16	1.26	-0.750			
0.8527	54573.89	3.0230	3.0230	-0.1227	26.17	1.27	-0.750			
0.8531	54597.82	3.0200	3.0201	-0.1213	26.17	1.27	-0.750			
0.8535	54621.27	3.0170	3.0169	-0.1201	26.18	1.28	-0.750			
0.8538	54644.05	3.0140	3.0140	-0.1184	26.18	1.28	-0.750			
0.8542	54666.71	3.0110	3.0111	-0.1166	26.19	1.29	-0.750			
0.8545	54688.80	3.0080	3.0079	-0.1147	26.19	1.29	-0.751			
0.8549	54710.66	3.0050	3.0050	-0.1130	26.19	1.29	-0.751			
0.8552	54732.17	3.0020	3.0020	-0.1143	26.20	1.30	-0.751			
