Ah_balance (normalized)	Ah_balance (mAh)	Voltage - fit (V)	Voltage -  interpolate (V)	dQ/dV (1/V)	Temperature (°C)	Temperature - diff (°C)	Current (C)	R_DC 0ms (mOhm)	R_DC 50ms (mOhm)	R_DC 50 ms PEC (mOhm)
0.0004	24.26	4.1600	4.1597	-0.1291	25.98	0.01	-0.750			
0.0008	52.68	4.1570	4.1568	-0.1660	25.98	0.01	-0.750			
0.0014	87.09	4.1540	4.1540	-0.2034	25.98	0.01	-0.750			
0.0020	129.67	4.1510	4.1512	-0.2436	25.98	0.01	-0.750			
0.0028	180.28	4.1480	4.1480	-0.2836	25.98	0.01	-0.750			
0.0037	238.71	4.1450	4.1449	-0.3224	25.98	0.01	-0.750			
0.0048	304.02	4.1420	4.1421	-0.3630	25.98	0.01	-0.750			
0.0059	378.32	4.1390	4.1390	-0.3957	25.98	0.01	-0.750			
0.0072	459.86	4.1360	4.1360	-0.4294	25.97	0.00	-0.750			
0.0085	546.06	4.1330	4.1327	-0.4532	25.97	0.00	-0.750			
0.0099	636.00	4.1300	4.1300	-0.4794	25.97	-0.00	-0.750			
0.0114	730.46	4.1270	4.1270	-0.5021	25.97	-0.00	-0.750			
0.0130	828.88	4.1240	4.1238	-0.5232	25.96	-0.01	-0.750			
0.0145	929.91	4.1210	4.1211	-0.5392	25.96	-0.01	-0.750			
0.0162	1038.55	4.1180	4.1180	-0.5619	25.96	-0.01	-0.750			
0.0180	1149.54	4.1150	4.1150	-0.5774	25.96	-0.01	-0.750			
0.0197	1262.62	4.1120	4.1119	-0.5901	25.95	-0.02	-0.750			
0.0215	1376.71	4.1090	4.1091	-0.5982	25.95	-0.02	-0.750			
0.0233	1492.43	4.1060	4.1060	-0.6104	25.95	-0.02	-0.750			
0.0252	1610.69	4.1030	4.1030	-0.6186	25.94	-0.03	-0.750			
0.0270	1729.63	4.1000	4.1000	-0.6304	25.94	-0.03	-0.750			
0.0289	1851.82	4.0970	4.0970	-0.6404	25.94	-0.03	-0.750			
0.0309	1976.66	4.0940	4.0940	-0.6477	25.94	-0.03	-0.750			
0.0328	2101.95	4.0910	4.0910	-0.6518	25.93	-0.04	-0.750			
0.0348	2229.29	4.0880	4.0881	-0.6547	25.93	-0.04	-0.750			
0.0368	2354.67	4.0850	4.0849	-0.6541	25.93	-0.04	-0.750			
0.0387	2479.69	4.0820	4.0821	-0.6621	25.93	-0.04	-0.750			
0.0407	2606.13	4.0790	4.0791	-0.6721	25.93	-0.04	-0.750			
0.0428	2736.68	4.0760	4.0758	-0.6798	25.93	-0.04	-0.750			
0.0448	2868.98	4.0730	4.0730	-0.6848	25.93	-0.04	-0.750			
0.0469	3002.86	4.0700	4.0704	-0.6870	25.93	-0.04	-0.750			
0.0490	3134.87	4.0670	4.0670	-0.6896	25.93	-0.04	-0.750			
0.0510	3266.53	4.0640	4.0641	-0.6921	25.93	-0.04	-0.750			
0.0531	3397.76	4.0610	4.0610	-0.6932	25.93	-0.04	-0.750			
0.0552	3532.35	4.0580	4.0579	-0.6972	25.92	-0.05	-0.750			
0.0573	3666.27	4.0550	4.0550	-0.6990	25.92	-0.05	-0.750			
0.0594	3800.74	4.0520	4.0523	-0.7060	25.92	-0.05	-0.750			
0.0615	3936.37	4.0490	4.0490	-0.7101	25.92	-0.05	-0.750			
0.0636	4072.03	4.0460	4.0459	-0.7099	25.92	-0.05	-0.750			
0.0658	4209.35	4.0430	4.0429	-0.7145	25.93	-0.04	-0.750			
0.0679	4348.03	4.0400	4.0401	-0.7154	25.93	-0.04	-0.750			
0.0701	4485.84	4.0370	4.0370	-0.7167	25.93	-0.04	-0.750			
0.0722	4623.08	4.0340	4.0341	-0.7157	25.93	-0.04	-0.750			
0.0744	4760.80	4.0310	4.0309	-0.7094	25.93	-0.04	-0.750			
0.0765	4893.67	4.0280	4.0280	-0.7151	25.93	-0.04	-0.750			
0.0786	5031.77	4.0250	4.0249	-0.7202	25.93	-0.04	-0.750			
0.0808	5170.55	4.0220	4.0221	-0.7246	25.93	-0.04	-0.750			
0.0830	5311.21	4.0190	4.0188	-0.7286	25.93	-0.04	-0.750			
0.0852	5452.22	4.0160	4.0161	-0.7301	25.93	-0.04	-0.750			
0.0874	5593.06	4.0130	4.0130	-0.7333	25.93	-0.04	-0.750			
0.0896	5734.44	4.0100	4.0100	-0.7375	25.93	-0.04	-0.750			
0.0918	5872.35	4.0070	4.0070	-0.7300	25.93	-0.04	-0.750			
0.0940	6015.61	4.0040	4.0039	-0.7356	25.93	-0.04	-0.750			
0.0962	6156.21	4.0010	4.0011	-0.7394	25.93	-0.04	-0.750			
0.0984	6298.64	3.9980	3.9980	-0.7390	25.93	-0.04	-0.750			
0.1006	6440.58	3.9950	3.9949	-0.7447	25.93	-0.04	-0.750			
0.1029	6583.55	3.9920	3.9920	-0.7441	25.93	-0.04	-0.750			
0.1051	6725.90	3.9890	3.9890	-0.7452	25.94	-0.03	-0.750			
0.1074	6871.11	3.9860	3.9859	-0.7490	25.94	-0.03	-0.750			
0.1096	7015.18	3.9830	3.9832	-0.7511	25.94	-0.03	-0.750			
0.1118	7157.88	3.9800	3.9800	-0.7516	25.94	-0.03	-0.750			
0.1141	7304.85	3.9770	3.9769	-0.7553	25.95	-0.02	-0.750			
0.1164	7448.74	3.9740	3.9740	-0.7556	25.95	-0.02	-0.750			
0.1187	7594.59	3.9710	3.9710	-0.7598	25.95	-0.02	-0.750			
0.1209	7740.67	3.9680	3.9680	-0.7576	25.96	-0.01	-0.750			
0.1232	7886.56	3.9650	3.9647	-0.7592	25.96	-0.01	-0.750			
0.1255	8030.91	3.9620	3.9621	-0.7630	25.96	-0.01	-0.750			
0.1278	8177.21	3.9590	3.9590	-0.7614	25.96	-0.01	-0.750			
0.1300	8323.09	3.9560	3.9560	-0.7661	25.97	-0.00	-0.750			
0.1324	8471.04	3.9530	3.9530	-0.7713	25.97	-0.00	-0.750			
0.1347	8620.54	3.9500	3.9502	-0.7766	25.97	0.00	-0.750			
0.1371	8771.50	3.9470	3.9470	-0.7830	25.97	0.00	-0.750			
0.1394	8922.31	3.9440	3.9440	-0.7815	25.98	0.01	-0.750			
0.1418	9073.09	3.9410	3.9410	-0.7792	25.98	0.01	-0.750			
0.1441	9223.40	3.9380	3.9380	-0.7847	25.99	0.02	-0.750			
0.1464	9372.26	3.9350	3.9350	-0.7827	25.99	0.02	-0.750			
0.1488	9522.26	3.9320	3.9319	-0.7812	25.99	0.02	-0.750			
0.1511	9671.55	3.9290	3.9290	-0.7874	26.00	0.03	-0.750			
0.1535	9824.25	3.9260	3.9260	-0.7841	26.00	0.03	-0.750			
0.1559	9975.64	3.9230	3.9229	-0.7817	26.00	0.03	-0.750			
0.1582	10125.74	3.9200	3.9200	-0.7838	26.01	0.04	-0.750			
0.1605	10274.53	3.9170	3.9171	-0.7827	26.01	0.04	-0.750			
0.1629	10423.41	3.9140	3.9139	-0.7906	26.01	0.04	-0.750			
0.1653	10577.33	3.9110	3.9109	-0.7932	26.01	0.04	-0.750			
0.1676	10728.85	3.9080	3.9080	-0.7958	26.02	0.05	-0.750			
0.1701	10886.58	3.9050	3.9051	-0.8045	26.02	0.05	-0.750			
0.1725	11040.01	3.9020	3.9021	-0.8052	26.02	0.05	-0.750			
0.1749	11193.48	3.8990	3.8989	-0.8022	26.02	0.05	-0.750			
0.1773	11347.61	3.8960	3.8960	-0.8014	26.02	0.05	-0.750			
0.1797	11500.40	3.8930	3.8930	-0.8019	26.03	0.06	-0.750			
0.1821	11655.80	3.8900	3.8900	-0.8067	26.03	0.06	-0.750			
0.1845	11811.15	3.8870	3.8871	-0.8071	26.03	0.06	-0.750			
0.1870	11966.00	3.8840	3.8839	-0.8065	26.03	0.06	-0.750			
0.1894	12120.28	3.8810	3.8811	-0.8132	26.04	0.07	-0.750			
0.1918	12277.54	3.8780	3.8780	-0.8138	26.04	0.07	-0.750			
0.1943	12436.44	3.8750	3.8748	-0.8181	26.05	0.08	-0.750			
0.1967	12591.35	3.8720	3.8724	-0.8164	26.05	0.08	-0.750			
0.1992	12748.32	3.8690	3.8689	-0.8145	26.05	0.08	-0.750			
0.2016	12904.54	3.8660	3.8659	-0.8152	26.06	0.09	-0.750			
0.2041	13059.64	3.8630	3.8630	-0.8136	26.06	0.09	-0.750			
0.2065	13217.35	3.8600	3.8601	-0.8200	26.07	0.10	-0.750			
0.2090	13374.92	3.8570	3.8570	-0.8178	26.07	0.10	-0.750			
0.2114	13532.02	3.8540	3.8539	-0.8178	26.07	0.10	-0.750			
0.2139	13687.85	3.8510	3.8511	-0.8209	26.07	0.10	-0.750			
0.2164	13847.36	3.8480	3.8479	-0.8215	26.07	0.10	-0.750			
0.2188	14004.94	3.8450	3.8449	-0.8175	26.07	0.10	-0.750			
0.2213	14162.76	3.8420	3.8421	-0.8152	26.07	0.10	-0.750			
0.2237	14318.60	3.8390	3.8390	-0.8119	26.07	0.10	-0.750			
0.2262	14473.62	3.8360	3.8360	-0.8152	26.08	0.11	-0.750			
0.2286	14629.55	3.8330	3.8329	-0.8124	26.08	0.11	-0.750			
0.2310	14784.59	3.8300	3.8299	-0.8065	26.08	0.11	-0.750			
0.2335	14941.60	3.8270	3.8271	-0.8135	26.09	0.12	-0.750			
0.2359	15097.07	3.8240	3.8241	-0.8124	26.09	0.12	-0.750			
0.2383	15252.74	3.8210	3.8209	-0.8168	26.10	0.13	-0.750			
0.2408	15409.91	3.8180	3.8179	-0.8155	26.10	0.13	-0.750			
0.2432	15564.56	3.8150	3.8150	-0.8131	26.10	0.13	-0.750			
0.2457	15724.88	3.8120	3.8120	-0.8140	26.11	0.14	-0.750			
0.2481	15881.02	3.8090	3.8090	-0.8080	26.11	0.14	-0.750			
0.2505	16033.46	3.8060	3.8060	-0.8034	26.12	0.15	-0.750			
0.2529	16187.72	3.8030	3.8029	-0.7995	26.12	0.15	-0.750			
0.2553	16339.24	3.8000	3.8000	-0.7931	26.12	0.15	-0.750			
0.2577	16492.81	3.7970	3.7970	-0.7929	26.13	0.16	-0.750			
0.2601	16645.36	3.7940	3.7940	-0.7906	26.13	0.16	-0.750			
0.2625	16797.63	3.7910	3.7910	-0.7878	26.13	0.16	-0.750			
0.2648	16947.11	3.7880	3.7880	-0.7902	26.14	0.17	-0.750			
0.2672	17099.82	3.7850	3.7850	-0.7847	26.14	0.17	-0.750			
0.2696	17252.01	3.7820	3.7819	-0.7814	26.15	0.18	-0.750			
0.2719	17400.50	3.7790	3.7794	-0.7774	26.15	0.18	-0.750			
0.2742	17549.25	3.7760	3.7760	-0.7744	26.15	0.18	-0.750			
0.2765	17697.51	3.7730	3.7729	-0.7682	26.16	0.19	-0.750			
0.2788	17843.94	3.7700	3.7699	-0.7604	26.16	0.19	-0.750			
0.2811	17990.15	3.7670	3.7671	-0.7606	26.16	0.19	-0.750			
0.2833	18134.17	3.7640	3.7641	-0.7651	26.17	0.20	-0.750			
0.2856	18281.00	3.7610	3.7609	-0.7651	26.17	0.20	-0.750			
0.2879	18426.63	3.7580	3.7579	-0.7685	26.17	0.20	-0.750			
0.2902	18573.39	3.7550	3.7549	-0.7741	26.17	0.20	-0.750			
0.2926	18724.88	3.7520	3.7521	-0.7788	26.17	0.20	-0.750			
0.2949	18876.55	3.7490	3.7489	-0.7827	26.17	0.20	-0.750			
0.2973	19027.01	3.7460	3.7461	-0.7823	26.17	0.20	-0.750			
0.2996	19176.04	3.7430	3.7430	-0.7848	26.17	0.20	-0.750			
0.3020	19326.53	3.7400	3.7400	-0.7953	26.18	0.21	-0.750			
0.3044	19479.96	3.7370	3.7369	-0.7963	26.18	0.21	-0.750			
0.3068	19633.06	3.7340	3.7339	-0.8029	26.19	0.22	-0.750			
0.3092	19787.09	3.7310	3.7314	-0.8161	26.19	0.22	-0.750			
0.3116	19944.23	3.7280	3.7279	-0.8273	26.19	0.22	-0.750			
0.3141	20103.59	3.7250	3.7249	-0.8421	26.19	0.22	-0.750			
0.3167	20265.97	3.7220	3.7220	-0.8480	26.19	0.22	-0.750			
0.3193	20433.28	3.7190	3.7190	-0.8671	26.19	0.22	-0.750			
0.3219	20600.19	3.7160	3.7161	-0.8783	26.19	0.22	-0.750			
0.3245	20766.92	3.7130	3.7130	-0.8932	26.19	0.22	-0.750			
0.3272	20939.67	3.7100	3.7099	-0.9034	26.19	0.22	-0.750			
0.3299	21113.77	3.7070	3.7069	-0.9174	26.19	0.22	-0.750			
0.3327	21291.40	3.7040	3.7040	-0.9344	26.19	0.22	-0.750			
0.3355	21473.05	3.7010	3.7010	-0.9549	26.19	0.22	-0.750			
0.3384	21657.52	3.6980	3.6980	-0.9800	26.19	0.22	-0.750			
0.3414	21846.76	3.6950	3.6948	-1.0002	26.19	0.22	-0.750			
0.3444	22039.90	3.6920	3.6920	-1.0187	26.19	0.22	-0.750			
0.3475	22241.04	3.6890	3.6892	-1.0433	26.19	0.22	-0.750			
0.3507	22443.85	3.6860	3.6860	-1.0637	26.18	0.21	-0.750			
0.3539	22649.73	3.6830	3.6830	-1.0802	26.18	0.21	-0.750			
0.3571	22855.70	3.6800	3.6798	-1.0923	26.17	0.20	-0.750			
0.3604	23067.16	3.6770	3.6771	-1.1194	26.17	0.20	-0.750			
0.3638	23284.31	3.6740	3.6740	-1.1397	26.16	0.19	-0.750			
0.3673	23506.21	3.6710	3.6709	-1.1603	26.16	0.19	-0.750			
0.3708	23728.08	3.6680	3.6680	-1.1799	26.15	0.18	-0.750			
0.3743	23958.16	3.6650	3.6651	-1.2063	26.15	0.18	-0.750			
0.3780	24192.66	3.6620	3.6619	-1.2308	26.15	0.18	-0.750			
0.3817	24429.35	3.6590	3.6590	-1.2622	26.14	0.17	-0.750			
0.3855	24673.75	3.6560	3.6561	-1.2818	26.14	0.17	-0.750			
0.3895	24926.63	3.6530	3.6530	-1.3084	26.14	0.17	-0.750			
0.3934	25179.31	3.6500	3.6500	-1.3320	26.13	0.16	-0.750			
0.3974	25434.64	3.6470	3.6472	-1.3606	26.13	0.16	-0.750			
0.4016	25700.77	3.6440	3.6439	-1.3908	26.12	0.15	-0.750			
0.4057	25967.86	3.6410	3.6409	-1.4257	26.11	0.14	-0.750			
0.4101	26244.87	3.6380	3.6381	-1.4702	26.10	0.13	-0.750			
0.4146	26536.75	3.6350	3.6349	-1.5046	26.09	0.12	-0.750			
0.4192	26828.49	3.6320	3.6319	-1.5327	26.08	0.11	-0.750			
0.4239	27126.98	3.6290	3.6289	-1.5485	26.07	0.10	-0.750			
0.4286	27427.22	3.6260	3.6260	-1.5845	26.07	0.10	-0.750			
0.4333	27734.04	3.6230	3.6231	-1.6038	26.07	0.10	-0.750			
0.4381	28037.17	3.6200	3.6200	-1.6312	26.06	0.09	-0.750			
0.4431	28360.67	3.6170	3.6173	-1.6674	26.06	0.09	-0.750	0.393	0.526	
0.4481	28680.95	3.6140	3.6141	-1.7072	26.05	0.08	-0.750			
0.4533	29013.18	3.6110	3.6108	-1.7330	26.04	0.07	-0.750			
0.4585	29347.04	3.6080	3.6078	-1.7714	26.03	0.06	-0.750			
0.4639	29692.52	3.6050	3.6048	-1.7817	26.02	0.05	-0.750			
0.4693	30038.11	3.6020	3.6020	-1.8025	26.01	0.04	-0.750			
0.4747	30381.15	3.5990	3.5993	-1.8343	26.01	0.04	-0.750			
0.4803	30742.33	3.5960	3.5957	-1.8775	26.00	0.03	-0.750			
0.4859	31095.13	3.5930	3.5931	-1.9197	26.00	0.03	-0.750			
0.4917	31471.21	3.5900	3.5899	-1.9740	25.99	0.02	-0.750			
0.4979	31862.48	3.5870	3.5870	-2.0447	25.99	0.02	-0.750			
0.5042	32266.09	3.5840	3.5842	-2.0960	25.99	0.02	-0.750			
0.5105	32670.00	3.5810	3.5809	-2.1299	25.99	0.02	-0.750			
0.5170	33085.08	3.5780	3.5781	-2.1480	25.99	0.02	-0.750			
0.5235	33503.75	3.5750	3.5749	-2.1717	25.99	0.02	-0.750			
0.5300	33919.86	3.5720	3.5721	-2.1955	25.98	0.01	-0.750			
0.5367	34349.12	3.5690	3.5689	-2.1897	25.97	0.00	-0.750			
0.5434	34775.01	3.5660	3.5661	-2.1730	25.97	0.00	-0.750			
0.5498	35189.71	3.5630	3.5630	-2.1943	25.97	0.00	-0.750			
0.5564	35609.10	3.5600	3.5597	-2.1959	25.97	0.00	-0.750			
0.5630	36032.25	3.5570	3.5570	-2.1909	25.97	0.00	-0.750			
0.5696	36456.16	3.5540	3.5541	-2.1954	25.97	0.00	-0.750			
0.5762	36874.05	3.5510	3.5510	-2.2043	25.97	0.00	-0.750			
0.5828	37299.42	3.5480	3.5478	-2.2026	25.97	0.00	-0.750			
0.5895	37729.89	3.5450	3.5452	-2.1984	25.97	0.00	-0.750			
0.5960	38140.92	3.5420	3.5420	-2.1842	25.97	0.00	-0.750			
0.6026	38564.91	3.5390	3.5387	-2.1690	25.98	0.01	-0.750			
0.6092	38986.11	3.5360	3.5359	-2.1506	25.99	0.02	-0.750			
0.6155	39391.96	3.5330	3.5331	-2.1204	25.99	0.02	-0.750			
0.6220	39805.08	3.5300	3.5299	-2.0662	25.99	0.02	-0.750			
0.6280	40192.74	3.5270	3.5272	-2.0214	26.00	0.03	-0.750			
0.6341	40584.78	3.5240	3.5240	-1.9748	26.01	0.04	-0.750			
0.6399	40956.71	3.5210	3.5209	-1.9341	26.01	0.04	-0.750			
0.6457	41323.49	3.5180	3.5180	-1.8838	26.02	0.05	-0.750			
0.6513	41681.33	3.5150	3.5150	-1.8387	26.02	0.05	-0.750			
0.6567	42028.94	3.5120	3.5121	-1.7824	26.03	0.06	-0.750			
0.6621	42371.33	3.5090	3.5089	-1.7366	26.04	0.07	-0.750			
0.6671	42695.87	3.5060	3.5060	-1.6537	26.06	0.09	-0.750			
0.6720	43009.38	3.5030	3.5032	-1.6196	26.07	0.10	-0.750			
0.6768	43312.91	3.5000	3.4999	-1.5635	26.09	0.12	-0.750			
0.6813	43604.94	3.4970	3.4971	-1.5125	26.10	0.13	-0.750			
0.6858	43892.82	3.4940	3.4941	-1.4732	26.11	0.14	-0.750			
0.6902	44172.81	3.4910	3.4910	-1.4293	26.13	0.16	-0.750			
0.6944	44442.85	3.4880	3.4879	-1.3845	26.14	0.17	-0.750			
0.6985	44702.64	3.4850	3.4851	-1.3275	26.16	0.19	-0.750			
0.7024	44955.21	3.4820	3.4820	-1.2893	26.18	0.21	-0.750			
0.7062	45198.99	3.4790	3.4790	-1.2442	26.20	0.23	-0.750			
0.7098	45428.95	3.4760	3.4763	-1.2038	26.21	0.24	-0.750			
0.7134	45658.31	3.4730	3.4730	-1.1664	26.22	0.25	-0.750			
0.7169	45880.32	3.4700	3.4699	-1.1281	26.23	0.26	-0.750			
0.7202	46090.99	3.4670	3.4670	-1.0922	26.24	0.27	-0.750			
0.7234	46297.81	3.4640	3.4638	-1.0582	26.26	0.29	-0.750			
0.7265	46497.19	3.4610	3.4610	-1.0266	26.27	0.30	-0.750			
0.7295	46690.70	3.4580	3.4579	-0.9958	26.27	0.30	-0.750			
0.7325	46876.97	3.4550	3.4551	-0.9703	26.28	0.31	-0.750			
0.7354	47063.50	3.4520	3.4519	-0.9492	26.30	0.33	-0.750			
0.7382	47242.16	3.4490	3.4490	-0.9262	26.31	0.34	-0.750			
0.7409	47416.12	3.4460	3.4460	-0.9034	26.32	0.35	-0.750			
0.7435	47585.47	3.4430	3.4430	-0.8867	26.33	0.36	-0.750			
0.7462	47755.54	3.4400	3.4400	-0.8802	26.35	0.38	-0.750			
0.7487	47917.99	3.4370	3.4370	-0.8783	26.36	0.39	-0.750			
0.7513	48085.59	3.4340	3.4340	-0.8824	26.36	0.39	-0.750			
0.7540	48254.75	3.4310	3.4310	-0.8933	26.37	0.40	-0.750			
0.7567	48426.48	3.4280	3.4280	-0.9077	26.38	0.41	-0.750			
0.7594	48601.76	3.4250	3.4254	-0.9310	26.39	0.42	-0.750			
0.7622	48783.43	3.4220	3.4218	-0.9535	26.40	0.43	-0.750			
0.7652	48969.66	3.4190	3.4190	-0.9717	26.41	0.44	-0.750			
0.7681	49160.18	3.4160	3.4160	-0.9780	26.42	0.45	-0.750			
0.7711	49353.20	3.4130	3.4131	-0.9898	26.43	0.46	-0.750			
0.7741	49544.12	3.4100	3.4099	-0.9846	26.44	0.47	-0.750			
0.7771	49733.79	3.4070	3.4070	-0.9678	26.45	0.48	-0.750			
0.7800	49918.09	3.4040	3.4039	-0.9440	26.46	0.49	-0.750			
0.7828	50097.72	3.4010	3.4009	-0.9194	26.47	0.50	-0.750			
0.7855	50273.61	3.3980	3.3980	-0.8956	26.47	0.50	-0.750			
0.7882	50442.05	3.3950	3.3950	-0.8716	26.48	0.51	-0.750			
0.7907	50607.00	3.3920	3.3920	-0.8394	26.49	0.52	-0.750			
0.7932	50764.87	3.3890	3.3890	-0.8060	26.50	0.53	-0.750			
0.7956	50921.47	3.3860	3.3859	-0.7651	26.51	0.54	-0.750			
0.7979	51065.42	3.3830	3.3830	-0.7277	26.51	0.54	-0.750			
0.8000	51198.47	3.3800	3.3801	-0.6966	26.52	0.55	-0.750			
0.8020	51325.40	3.3770	3.3767	-0.6637	26.52	0.55	-0.750			
0.8039	51446.48	3.3740	3.3739	-0.6444	26.53	0.56	-0.750			
0.8058	51570.55	3.3710	3.3710	-0.6338	26.53	0.56	-0.750			
0.8077	51691.62	3.3680	3.3680	-0.6232	26.54	0.57	-0.750			
0.8096	51813.02	3.3650	3.3652	-0.6086	26.54	0.57	-0.750			
0.8114	51927.83	3.3620	3.3619	-0.5844	26.55	0.58	-0.750			
0.8131	52037.88	3.3590	3.3591	-0.5630	26.56	0.59	-0.750			
0.8147	52143.66	3.3560	3.3560	-0.5410	26.57	0.60	-0.750			
0.8163	52244.85	3.3530	3.3530	-0.5257	26.57	0.60	-0.750			
0.8179	52344.04	3.3500	3.3499	-0.5027	26.58	0.61	-0.750			
0.8193	52438.08	3.3470	3.3470	-0.4823	26.59	0.62	-0.750			
0.8208	52529.17	3.3440	3.3440	-0.4658	26.60	0.63	-0.750			
0.8221	52616.73	3.3410	3.3411	-0.4522	26.60	0.63	-0.750			
0.8235	52701.66	3.3380	3.3378	-0.4345	26.61	0.64	-0.750			
0.8247	52782.73	3.3350	3.3350	-0.4208	26.61	0.64	-0.750			
0.8260	52861.40	3.3320	3.3321	-0.4069	26.61	0.64	-0.750			
0.8272	52939.70	3.3290	3.3290	-0.3980	26.62	0.65	-0.750			
0.8284	53014.98	3.3260	3.3261	-0.3856	26.62	0.65	-0.750			
0.8295	53086.80	3.3230	3.3230	-0.3734	26.62	0.65	-0.750			
0.8306	53157.28	3.3200	3.3199	-0.3630	26.63	0.66	-0.750			
0.8317	53226.76	3.3170	3.3170	-0.3524	26.63	0.66	-0.750			
0.8327	53292.84	3.3140	3.3141	-0.3398	26.63	0.66	-0.750			
0.8337	53357.24	3.3110	3.3110	-0.3308	26.64	0.67	-0.750			
0.8347	53419.75	3.3080	3.3079	-0.3195	26.64	0.67	-0.750			
0.8356	53479.09	3.3050	3.3050	-0.3097	26.65	0.68	-0.750			
0.8365	53537.30	3.3020	3.3020	-0.3014	26.65	0.68	-0.750			
0.8374	53594.44	3.2990	3.2991	-0.2940	26.66	0.69	-0.750			
0.8383	53650.37	3.2960	3.2959	-0.2874	26.67	0.70	-0.750			
0.8391	53704.42	3.2930	3.2931	-0.2804	26.67	0.70	-0.750			
0.8400	53757.53	3.2900	3.2900	-0.2738	26.68	0.71	-0.750			
0.8408	53809.99	3.2870	3.2871	-0.2689	26.68	0.71	-0.750			
0.8416	53860.70	3.2840	3.2839	-0.2623	26.69	0.72	-0.750			
0.8424	53910.44	3.2810	3.2812	-0.2560	26.69	0.72	-0.750			
0.8431	53959.29	3.2780	3.2780	-0.2501	26.70	0.73	-0.750			
0.8438	54006.19	3.2750	3.2750	-0.2452	26.70	0.73	-0.750			
0.8446	54052.42	3.2720	3.2720	-0.2419	26.71	0.74	-0.750			
0.8453	54098.47	3.2690	3.2690	-0.2367	26.71	0.74	-0.750			
0.8460	54144.03	3.2660	3.2659	-0.2322	26.71	0.74	-0.750			
0.8467	54187.89	3.2630	3.2629	-0.2282	26.72	0.75	-0.750			
0.8474	54231.40	3.2600	3.2600	-0.2240	26.72	0.75	-0.750			
0.8480	54274.30	3.2570	3.2570	-0.2196	26.73	0.76	-0.750			
0.8487	54315.72	3.2540	3.2539	-0.2158	26.74	0.77	-0.750			
0.8493	54355.68	3.2510	3.2510	-0.2109	26.74	0.77	-0.750			
0.8499	54395.98	3.2480	3.2481	-0.2089	26.75	0.78	-0.750			
0.8506	54436.42	3.2450	3.2450	-0.2050	26.75	0.78	-0.750			
0.8512	54475.38	3.2420	3.2420	-0.2025	26.76	0.79	-0.750			
0.8518	54513.58	3.2390	3.2391	-0.1986	26.76	0.79	-0.750			
0.8524	54551.47	3.2360	3.2361	-0.1960	26.77	0.80	-0.750			
0.8530	54589.00	3.2330	3.2329	-0.1940	26.77	0.80	-0.750			
0.8535	54625.59	3.2300	3.2301	-0.1911	26.78	0.81	-0.750			
0.8541	54662.30	3.2270	3.2270	-0.1885	26.78	0.81	-0.750			
0.8547	54698.27	3.2240	3.2240	-0.1862	26.79	0.82	-0.750			
0.8552	54734.08	3.2210	3.2210	-0.1851	26.79	0.82	-0.750			
0.8558	54769.16	3.2180	3.2180	-0.1818	26.80	0.83	-0.750			
0.8563	54803.97	3.2150	3.2150	-0.1799	26.80	0.83	-0.750			
0.8568	54838.28	3.2120	3.2119	-0.1775	26.81	0.84	-0.750			
0.8574	54872.04	3.2090	3.2091	-0.1751	26.81	0.84	-0.750			
0.8579	54905.41	3.2060	3.2059	-0.1731	26.82	0.85	-0.750			
0.8584	54938.61	3.2030	3.2030	-0.1712	26.82	0.85	-0.750			
0.8589	54971.27	3.2000	3.1999	-0.1686	26.82	0.85	-0.750			
0.8594	55003.04	3.1970	3.1970	-0.1660	26.82	0.85	-0.750			
0.8599	55034.81	3.1940	3.1941	-0.1647	26.83	0.86	-0.750			
0.8604	55066.11	3.1910	3.1910	-0.1626	26.83	0.86	-0.750			
0.8609	55097.06	3.1880	3.1879	-0.1618	26.84	0.87	-0.750			
0.8614	55127.91	3.1850	3.1850	-0.1604	26.84	0.87	-0.750			
0.8619	55158.75	3.1820	3.1819	-0.1587	26.85	0.88	-0.750			
0.8623	55189.09	3.1790	3.1791	-0.1573	26.86	0.89	-0.750			
0.8628	55219.45	3.1760	3.1760	-0.1559	26.86	0.89	-0.750			
0.8633	55249.15	3.1730	3.1730	-0.1546	26.87	0.90	-0.750			
0.8637	55278.48	3.1700	3.1700	-0.1530	26.87	0.90	-0.750			
0.8642	55307.73	3.1670	3.1670	-0.1517	26.88	0.91	-0.750			
0.8646	55336.57	3.1640	3.1639	-0.1499	26.88	0.91	-0.750			
0.8651	55365.44	3.1610	3.1611	-0.1483	26.89	0.92	-0.750			
0.8655	55393.75	3.1580	3.1581	-0.1475	26.89	0.92	-0.750			
0.8660	55421.90	3.1550	3.1550	-0.1458	26.90	0.93	-0.750			
0.8664	55449.61	3.1520	3.1520	-0.1445	26.90	0.93	-0.750			
0.8668	55477.13	3.1490	3.1490	-0.1428	26.91	0.94	-0.750			
0.8673	55504.36	3.1460	3.1459	-0.1416	26.91	0.94	-0.750			
0.8677	55531.37	3.1430	3.1430	-0.1411	26.92	0.95	-0.750			
0.8681	55558.68	3.1400	3.1400	-0.1399	26.92	0.95	-0.750			
0.8685	55585.61	3.1370	3.1370	-0.1388	26.93	0.96	-0.750			
0.8689	55612.04	3.1340	3.1339	-0.1376	26.93	0.96	-0.750			
0.8693	55638.18	3.1310	3.1311	-0.1362	26.94	0.97	-0.750			
0.8698	55664.11	3.1280	3.1279	-0.1353	26.94	0.97	-0.750			
0.8702	55690.05	3.1250	3.1250	-0.1346	26.94	0.97	-0.750			
0.8706	55715.88	3.1220	3.1220	-0.1332	26.95	0.98	-0.750			
0.8710	55741.15	3.1190	3.1190	-0.1318	26.95	0.98	-0.750			
0.8714	55766.64	3.1160	3.1160	-0.1312	26.96	0.99	-0.750			
0.8717	55791.63	3.1130	3.1132	-0.1302	26.96	0.99	-0.750			
0.8721	55816.41	3.1100	3.1100	-0.1292	26.97	1.00	-0.750			
0.8725	55841.13	3.1070	3.1068	-0.1283	26.97	1.00	-0.750			
0.8729	55865.61	3.1040	3.1041	-0.1269	26.98	1.01	-0.750			
0.8733	55889.91	3.1010	3.1009	-0.1261	26.98	1.01	-0.750			
0.8737	55914.21	3.0980	3.0981	-0.1256	26.99	1.02	-0.750			
0.8740	55938.17	3.0950	3.0949	-0.1244	26.99	1.02	-0.750			
0.8744	55961.94	3.0920	3.0920	-0.1236	27.00	1.03	-0.750			
0.8748	55985.48	3.0890	3.0890	-0.1226	27.00	1.03	-0.750			
0.8751	56009.00	3.0860	3.0860	-0.1217	27.01	1.04	-0.750			
0.8755	56032.28	3.0830	3.0830	-0.1208	27.02	1.05	-0.750			
0.8759	56055.36	3.0800	3.0801	-0.1205	27.02	1.05	-0.750			
0.8762	56078.42	3.0770	3.0770	-0.1198	27.03	1.06	-0.750			
0.8766	56101.25	3.0740	3.0740	-0.1190	27.03	1.06	-0.750			
0.8769	56124.06	3.0710	3.0709	-0.1186	27.04	1.07	-0.750			
0.8773	56146.94	3.0680	3.0680	-0.1176	27.04	1.07	-0.750			
0.8776	56169.41	3.0650	3.0651	-0.1166	27.05	1.08	-0.750			
0.8780	56191.86	3.0620	3.0620	-0.1159	27.05	1.08	-0.750			
0.8783	56213.81	3.0590	3.0590	-0.1153	27.06	1.09	-0.750			
0.8787	56235.66	3.0560	3.0560	-0.1141	27.06	1.09	-0.750			
0.8790	56257.68	3.0530	3.0530	-0.1133	27.07	1.10	-0.750			
0.8794	56279.34	3.0500	3.0500	-0.1125	27.07	1.10	-0.750			
0.8797	56300.78	3.0470	3.0470	-0.1120	27.08	1.11	-0.750			
0.8800	56322.33	3.0440	3.0440	-0.1116	27.08	1.11	-0.750			
0.8804	56343.65	3.0410	3.0410	-0.1110	27.09	1.12	-0.750			
0.8807	56364.85	3.0380	3.0378	-0.1104	27.09	1.12	-0.750			
0.8810	56385.92	3.0350	3.0350	-0.1101	27.10	1.13	-0.750			
0.8814	56406.80	3.0320	3.0321	-0.1094	27.10	1.13	-0.750			
0.8817	56428.00	3.0290	3.0290	-0.1088	27.11	1.14	-0.750			
0.8820	56449.12	3.0260	3.0259	-0.1087	27.11	1.14	-0.750			
0.8823	56469.77	3.0230	3.0230	-0.1081	27.12	1.15	-0.750			
0.8827	56490.39	3.0200	3.0202	-0.1074	27.12	1.15	-0.750			
0.8830	56510.95	3.0170	3.0169	-0.1068	27.13	1.16	-0.750			
0.8833	56531.60	3.0140	3.0140	-0.1055	27.13	1.16	-0.750			
0.8836	56551.75	3.0110	3.0108	-0.1044	27.14	1.17	-0.750			
0.8839	56571.68	3.0080	3.0080	-0.1032	27.14	1.17	-0.751			
0.8842	56591.38	3.0050	3.0052	-0.1020	27.15	1.18	-0.751			
0.8845	56610.58	3.0020	3.0020	-0.0953	27.15	1.18	-0.751			
