Ah_balance (normalized)	Ah_balance (mAh)	Voltage - fit (V)	Voltage -  interpolate (V)	dQ/dV (1/V)	Temperature (°C)	Temperature - diff (°C)	Current (C)	R_DC 0ms (mOhm)	R_DC 50ms (mOhm)	R_DC 50 ms PEC (mOhm)
0.0004	24.79	4.1550	4.1547	-0.1179	24.90	0.00	-0.750			
0.0008	52.07	4.1520	4.1519	-0.1543	24.90	0.00	-0.750			
0.0013	84.06	4.1490	4.1490	-0.1868	24.90	0.00	-0.750			
0.0019	122.71	4.1460	4.1461	-0.2223	24.90	0.00	-0.750			
0.0026	168.74	4.1430	4.1430	-0.2572	24.90	0.00	-0.750			
0.0035	221.70	4.1400	4.1399	-0.2907	24.90	0.00	-0.750			
0.0044	280.95	4.1370	4.1370	-0.3238	24.90	0.00	-0.750			
0.0054	346.92	4.1340	4.1340	-0.3533	24.90	-0.00	-0.750			
0.0065	418.61	4.1310	4.1311	-0.3823	24.90	-0.00	-0.750			
0.0077	495.89	4.1280	4.1280	-0.4083	24.90	-0.00	-0.750			
0.0090	576.83	4.1250	4.1251	-0.4320	24.90	-0.00	-0.750			
0.0103	662.22	4.1220	4.1220	-0.4560	24.90	-0.00	-0.750			
0.0117	751.60	4.1190	4.1191	-0.4789	24.89	-0.01	-0.750			
0.0132	847.14	4.1160	4.1159	-0.4958	24.89	-0.01	-0.750			
0.0148	945.08	4.1130	4.1130	-0.5166	24.89	-0.01	-0.750			
0.0163	1045.91	4.1100	4.1099	-0.5307	24.89	-0.01	-0.750			
0.0180	1149.91	4.1070	4.1071	-0.5462	24.89	-0.01	-0.750			
0.0196	1255.59	4.1040	4.1039	-0.5594	24.89	-0.01	-0.750			
0.0213	1363.69	4.1010	4.1010	-0.5716	24.88	-0.02	-0.750			
0.0230	1474.25	4.0980	4.0980	-0.5822	24.88	-0.02	-0.750			
0.0248	1590.05	4.0950	4.0950	-0.5945	24.88	-0.02	-0.750			
0.0267	1705.64	4.0920	4.0920	-0.6002	24.88	-0.02	-0.750			
0.0285	1821.67	4.0890	4.0890	-0.6082	24.87	-0.03	-0.750			
0.0303	1938.95	4.0860	4.0861	-0.6141	24.87	-0.03	-0.750			
0.0321	2057.06	4.0830	4.0830	-0.6186	24.87	-0.03	-0.750			
0.0340	2175.29	4.0800	4.0800	-0.6277	24.87	-0.03	-0.750			
0.0359	2296.63	4.0770	4.0771	-0.6384	24.87	-0.03	-0.750			
0.0378	2421.70	4.0740	4.0739	-0.6451	24.88	-0.02	-0.750			
0.0398	2545.77	4.0710	4.0710	-0.6490	24.88	-0.02	-0.750			
0.0417	2670.87	4.0680	4.0681	-0.6550	24.88	-0.02	-0.750			
0.0437	2797.68	4.0650	4.0649	-0.6602	24.88	-0.02	-0.750			
0.0457	2926.26	4.0620	4.0619	-0.6592	24.88	-0.02	-0.750			
0.0477	3051.65	4.0590	4.0591	-0.6606	24.88	-0.02	-0.750			
0.0497	3178.69	4.0560	4.0561	-0.6693	24.89	-0.01	-0.750			
0.0517	3308.45	4.0530	4.0529	-0.6745	24.89	-0.01	-0.750			
0.0537	3438.21	4.0500	4.0499	-0.6762	24.89	-0.01	-0.750			
0.0558	3568.38	4.0470	4.0471	-0.6784	24.89	-0.01	-0.750			
0.0578	3699.97	4.0440	4.0440	-0.6823	24.89	-0.01	-0.750			
0.0599	3831.77	4.0410	4.0410	-0.6835	24.89	-0.01	-0.750			
0.0619	3960.35	4.0380	4.0380	-0.6809	24.90	-0.00	-0.750			
0.0639	4092.74	4.0350	4.0350	-0.6873	24.90	-0.00	-0.750			
0.0660	4224.51	4.0320	4.0320	-0.6909	24.90	-0.00	-0.750			
0.0681	4357.96	4.0290	4.0290	-0.6924	24.90	0.00	-0.750			
0.0702	4491.65	4.0260	4.0260	-0.6960	24.90	0.00	-0.750			
0.0723	4624.41	4.0230	4.0230	-0.7030	24.90	0.00	-0.750			
0.0744	4760.83	4.0200	4.0199	-0.7033	24.91	0.01	-0.750			
0.0765	4896.61	4.0170	4.0169	-0.7023	24.91	0.01	-0.750			
0.0786	5030.84	4.0140	4.0140	-0.7064	24.91	0.01	-0.750			
0.0807	5167.11	4.0110	4.0111	-0.7075	24.91	0.01	-0.750			
0.0829	5303.22	4.0080	4.0079	-0.7097	24.91	0.01	-0.750			
0.0850	5437.79	4.0050	4.0050	-0.7126	24.92	0.02	-0.750			
0.0871	5574.73	4.0020	4.0021	-0.7120	24.92	0.02	-0.750			
0.0893	5714.11	3.9990	3.9989	-0.7175	24.92	0.02	-0.750			
0.0914	5852.32	3.9960	3.9960	-0.7204	24.93	0.03	-0.750			
0.0936	5989.54	3.9930	3.9930	-0.7201	24.93	0.03	-0.750			
0.0958	6128.86	3.9900	3.9899	-0.7215	24.94	0.04	-0.750			
0.0979	6267.01	3.9870	3.9870	-0.7237	24.94	0.04	-0.750			
0.1001	6405.86	3.9840	3.9840	-0.7217	24.94	0.04	-0.750			
0.1023	6545.51	3.9810	3.9809	-0.7249	24.95	0.05	-0.750			
0.1045	6685.15	3.9780	3.9781	-0.7246	24.95	0.05	-0.750			
0.1066	6823.00	3.9750	3.9749	-0.7286	24.95	0.05	-0.750			
0.1088	6962.54	3.9720	3.9719	-0.7308	24.96	0.06	-0.750			
0.1110	7104.03	3.9690	3.9690	-0.7362	24.96	0.06	-0.750			
0.1132	7245.69	3.9660	3.9660	-0.7337	24.96	0.06	-0.750			
0.1155	7389.26	3.9630	3.9630	-0.7397	24.97	0.07	-0.750			
0.1177	7530.38	3.9600	3.9602	-0.7408	24.97	0.07	-0.750			
0.1199	7672.41	3.9570	3.9569	-0.7401	24.97	0.07	-0.750			
0.1221	7812.21	3.9540	3.9540	-0.7460	24.97	0.07	-0.750			
0.1243	7957.13	3.9510	3.9510	-0.7476	24.97	0.07	-0.750			
0.1266	8102.94	3.9480	3.9479	-0.7541	24.97	0.07	-0.750			
0.1289	8248.53	3.9450	3.9449	-0.7523	24.97	0.07	-0.750			
0.1311	8392.69	3.9420	3.9420	-0.7489	24.97	0.07	-0.750			
0.1334	8535.43	3.9390	3.9390	-0.7500	24.98	0.08	-0.750			
0.1356	8678.66	3.9360	3.9361	-0.7525	24.98	0.08	-0.750			
0.1378	8820.98	3.9330	3.9329	-0.7553	24.98	0.08	-0.750			
0.1401	8968.84	3.9300	3.9299	-0.7610	24.99	0.09	-0.750			
0.1424	9114.99	3.9270	3.9271	-0.7643	24.99	0.09	-0.750			
0.1447	9263.17	3.9240	3.9240	-0.7631	24.99	0.09	-0.750			
0.1470	9410.65	3.9210	3.9209	-0.7661	25.00	0.10	-0.750			
0.1493	9556.67	3.9180	3.9181	-0.7693	25.00	0.10	-0.750			
0.1516	9704.33	3.9150	3.9149	-0.7694	25.00	0.10	-0.750			
0.1539	9851.65	3.9120	3.9118	-0.7731	25.01	0.11	-0.750			
0.1563	10001.40	3.9090	3.9091	-0.7769	25.01	0.11	-0.750			
0.1586	10150.37	3.9060	3.9060	-0.7807	25.02	0.12	-0.750			
0.1610	10301.62	3.9030	3.9030	-0.7829	25.02	0.12	-0.750			
0.1633	10451.98	3.9000	3.9000	-0.7780	25.02	0.12	-0.750			
0.1657	10602.11	3.8970	3.8970	-0.7739	25.03	0.13	-0.750			
0.1680	10750.67	3.8940	3.8942	-0.7757	25.03	0.13	-0.750			
0.1703	10897.74	3.8910	3.8910	-0.7749	25.03	0.13	-0.750			
0.1726	11046.28	3.8880	3.8879	-0.7743	25.04	0.14	-0.750			
0.1749	11194.18	3.8850	3.8849	-0.7762	25.04	0.14	-0.750			
0.1772	11343.97	3.8820	3.8821	-0.7796	25.05	0.15	-0.750			
0.1796	11494.23	3.8790	3.8790	-0.7843	25.05	0.15	-0.750			
0.1820	11646.09	3.8760	3.8759	-0.7876	25.05	0.15	-0.750			
0.1843	11796.62	3.8730	3.8730	-0.7877	25.06	0.16	-0.750			
0.1867	11948.20	3.8700	3.8700	-0.7853	25.06	0.16	-0.750			
0.1891	12099.86	3.8670	3.8670	-0.7853	25.06	0.16	-0.750			
0.1914	12251.25	3.8640	3.8640	-0.7812	25.07	0.17	-0.750			
0.1938	12400.32	3.8610	3.8610	-0.7800	25.07	0.17	-0.750			
0.1960	12546.63	3.8580	3.8580	-0.7827	25.07	0.17	-0.750			
0.1984	12698.51	3.8550	3.8549	-0.7818	25.07	0.17	-0.750			
0.2008	12849.12	3.8520	3.8519	-0.7811	25.07	0.17	-0.750			
0.2031	12999.95	3.8490	3.8489	-0.7827	25.07	0.17	-0.750			
0.2055	13151.47	3.8460	3.8461	-0.7816	25.07	0.17	-0.750			
0.2078	13301.78	3.8430	3.8430	-0.7782	25.07	0.17	-0.750			
0.2101	13449.01	3.8400	3.8400	-0.7766	25.08	0.18	-0.750			
0.2124	13596.10	3.8370	3.8370	-0.7712	25.08	0.18	-0.750			
0.2148	13748.01	3.8340	3.8339	-0.7778	25.09	0.19	-0.750			
0.2171	13896.62	3.8310	3.8310	-0.7754	25.09	0.19	-0.750			
0.2195	14044.97	3.8280	3.8280	-0.7715	25.09	0.19	-0.750			
0.2218	14193.20	3.8250	3.8250	-0.7720	25.09	0.19	-0.750			
0.2241	14341.44	3.8220	3.8220	-0.7673	25.10	0.20	-0.750			
0.2264	14487.62	3.8190	3.8190	-0.7650	25.10	0.20	-0.750			
0.2287	14634.94	3.8160	3.8160	-0.7633	25.10	0.20	-0.750			
0.2310	14781.55	3.8130	3.8130	-0.7585	25.10	0.20	-0.750			
0.2332	14926.53	3.8100	3.8100	-0.7527	25.11	0.21	-0.750			
0.2355	15071.26	3.8070	3.8070	-0.7504	25.11	0.21	-0.750			
0.2377	15214.88	3.8040	3.8041	-0.7437	25.11	0.21	-0.750			
0.2400	15356.95	3.8010	3.8009	-0.7437	25.12	0.22	-0.750			
0.2422	15498.59	3.7980	3.7982	-0.7397	25.12	0.22	-0.750			
0.2444	15641.39	3.7950	3.7948	-0.7376	25.12	0.22	-0.750			
0.2466	15782.84	3.7920	3.7920	-0.7367	25.12	0.22	-0.750			
0.2488	15924.03	3.7890	3.7890	-0.7349	25.12	0.22	-0.750			
0.2510	16064.23	3.7860	3.7861	-0.7277	25.12	0.22	-0.750			
0.2532	16205.84	3.7830	3.7829	-0.7271	25.12	0.22	-0.750			
0.2554	16343.69	3.7800	3.7801	-0.7246	25.12	0.22	-0.750			
0.2575	16482.24	3.7770	3.7770	-0.7224	25.12	0.22	-0.750			
0.2597	16619.82	3.7740	3.7740	-0.7256	25.13	0.23	-0.750			
0.2619	16759.38	3.7710	3.7710	-0.7219	25.13	0.23	-0.750			
0.2640	16899.00	3.7680	3.7680	-0.7253	25.13	0.23	-0.750			
0.2662	17038.44	3.7650	3.7650	-0.7264	25.14	0.24	-0.750			
0.2684	17177.82	3.7620	3.7619	-0.7243	25.14	0.24	-0.750			
0.2706	17316.53	3.7590	3.7590	-0.7267	25.14	0.24	-0.750			
0.2728	17456.14	3.7560	3.7560	-0.7329	25.14	0.24	-0.750			
0.2750	17597.23	3.7530	3.7529	-0.7337	25.15	0.25	-0.750			
0.2772	17739.45	3.7500	3.7500	-0.7409	25.15	0.25	-0.750			
0.2794	17881.42	3.7470	3.7471	-0.7421	25.15	0.25	-0.750			
0.2816	18023.49	3.7440	3.7439	-0.7506	25.15	0.25	-0.750			
0.2839	18167.77	3.7410	3.7409	-0.7578	25.15	0.25	-0.750			
0.2861	18312.61	3.7380	3.7380	-0.7654	25.15	0.25	-0.750			
0.2884	18459.29	3.7350	3.7351	-0.7738	25.15	0.25	-0.750			
0.2908	18611.79	3.7320	3.7320	-0.7906	25.15	0.25	-0.750			
0.2932	18763.81	3.7290	3.7290	-0.7986	25.15	0.25	-0.750			
0.2956	18917.81	3.7260	3.7258	-0.8100	25.15	0.25	-0.750			
0.2980	19073.76	3.7230	3.7231	-0.8248	25.15	0.25	-0.750			
0.3005	19235.02	3.7200	3.7198	-0.8373	25.15	0.25	-0.750			
0.3031	19397.20	3.7170	3.7170	-0.8505	25.15	0.25	-0.750			
0.3057	19561.80	3.7140	3.7141	-0.8637	25.15	0.25	-0.750			
0.3082	19727.43	3.7110	3.7110	-0.8798	25.15	0.25	-0.750			
0.3109	19898.42	3.7080	3.7079	-0.8945	25.15	0.25	-0.750			
0.3136	20069.67	3.7050	3.7050	-0.9072	25.14	0.24	-0.750			
0.3164	20246.88	3.7020	3.7019	-0.9237	25.14	0.24	-0.750			
0.3192	20425.76	3.6990	3.6990	-0.9368	25.14	0.24	-0.750			
0.3220	20606.27	3.6960	3.6960	-0.9515	25.14	0.24	-0.750			
0.3248	20790.13	3.6930	3.6931	-0.9668	25.14	0.24	-0.750			
0.3278	20976.53	3.6900	3.6900	-0.9798	25.14	0.24	-0.750			
0.3307	21166.70	3.6870	3.6870	-0.9990	25.14	0.24	-0.750			
0.3338	21360.20	3.6840	3.6840	-1.0174	25.13	0.23	-0.750			
0.3368	21558.03	3.6810	3.6810	-1.0331	25.13	0.23	-0.750			
0.3400	21757.26	3.6780	3.6780	-1.0477	25.12	0.22	-0.750			
0.3431	21956.18	3.6750	3.6751	-1.0763	25.12	0.22	-0.750			
0.3464	22167.46	3.6720	3.6719	-1.0970	25.11	0.21	-0.750			
0.3497	22380.57	3.6690	3.6689	-1.1195	25.11	0.21	-0.750			
0.3531	22599.01	3.6660	3.6658	-1.1336	25.10	0.20	-0.750			
0.3566	22820.01	3.6630	3.6630	-1.1580	25.10	0.20	-0.750			
0.3601	23045.35	3.6600	3.6599	-1.1736	25.09	0.19	-0.750			
0.3636	23269.24	3.6570	3.6570	-1.1928	25.09	0.19	-0.750			
0.3671	23495.84	3.6540	3.6541	-1.2066	25.08	0.18	-0.750			
0.3708	23733.88	3.6510	3.6510	-1.2411	25.07	0.17	-0.750			
0.3746	23973.87	3.6480	3.6480	-1.2632	25.06	0.16	-0.750			
0.3784	24217.59	3.6450	3.6450	-1.3010	25.05	0.15	-0.750			
0.3824	24471.71	3.6420	3.6419	-1.3159	25.05	0.15	-0.750			
0.3864	24730.04	3.6390	3.6390	-1.3409	25.04	0.14	-0.750			
0.3904	24987.94	3.6360	3.6361	-1.3633	25.04	0.14	-0.750			
0.3946	25252.48	3.6330	3.6329	-1.3855	25.04	0.14	-0.750			
0.3988	25520.09	3.6300	3.6299	-1.4056	25.03	0.13	-0.750			
0.4030	25790.31	3.6270	3.6269	-1.4338	25.02	0.12	-0.750			
0.4073	26067.86	3.6240	3.6239	-1.4547	25.02	0.12	-0.750			
0.4117	26350.42	3.6210	3.6210	-1.5064	25.01	0.11	-0.750			
0.4163	26644.72	3.6180	3.6179	-1.5287	25.01	0.11	-0.750			
0.4210	26941.19	3.6150	3.6148	-1.5473	25.00	0.10	-0.750			
0.4257	27243.10	3.6120	3.6119	-1.5809	25.00	0.10	-0.750	0.392	0.560	
0.4304	27547.48	3.6090	3.6091	-1.6076	24.99	0.09	-0.750			
0.4352	27854.44	3.6060	3.6060	-1.6315	24.99	0.09	-0.750			
0.4401	28168.78	3.6030	3.6030	-1.6789	24.98	0.08	-0.750			
0.4452	28490.79	3.6000	3.6000	-1.6922	24.98	0.08	-0.750			
0.4504	28827.91	3.5970	3.5968	-1.7492	24.97	0.07	-0.750			
0.4557	29165.38	3.5940	3.5941	-1.7794	24.97	0.07	-0.750			
0.4611	29512.65	3.5910	3.5907	-1.8033	24.97	0.07	-0.750			
0.4666	29864.23	3.5880	3.5881	-1.8282	24.97	0.07	-0.750			
0.4721	30216.97	3.5850	3.5850	-1.8675	24.97	0.07	-0.750			
0.4777	30574.09	3.5820	3.5820	-1.9016	24.97	0.07	-0.750			
0.4835	30942.98	3.5790	3.5791	-1.9387	24.97	0.07	-0.750			
0.4894	31321.75	3.5760	3.5760	-1.9718	24.97	0.07	-0.750			
0.4954	31705.25	3.5730	3.5732	-1.9993	24.97	0.07	-0.750			
0.5015	32095.03	3.5700	3.5699	-2.0284	24.97	0.07	-0.750			
0.5076	32488.05	3.5670	3.5670	-2.0509	24.97	0.07	-0.750			
0.5137	32879.48	3.5640	3.5640	-2.0565	24.97	0.07	-0.750			
0.5200	33278.00	3.5610	3.5609	-2.0810	24.97	0.07	-0.750			
0.5262	33678.85	3.5580	3.5581	-2.0781	24.97	0.07	-0.750			
0.5325	34081.21	3.5550	3.5551	-2.0928	24.97	0.07	-0.750			
0.5388	34484.00	3.5520	3.5520	-2.0965	24.98	0.08	-0.750			
0.5451	34886.08	3.5490	3.5489	-2.0679	24.99	0.09	-0.750			
0.5513	35284.66	3.5460	3.5460	-2.0697	25.00	0.10	-0.750			
0.5576	35684.78	3.5430	3.5430	-2.0537	25.00	0.10	-0.750			
0.5637	36073.81	3.5400	3.5397	-2.0300	25.01	0.11	-0.750			
0.5698	36466.26	3.5370	3.5371	-2.0070	25.01	0.11	-0.750			
0.5757	36847.28	3.5340	3.5341	-1.9796	25.02	0.12	-0.750			
0.5817	37228.78	3.5310	3.5310	-1.9567	25.03	0.13	-0.750			
0.5875	37600.30	3.5280	3.5281	-1.9291	25.04	0.14	-0.750			
0.5932	37965.65	3.5250	3.5249	-1.9307	25.04	0.14	-0.750			
0.5991	38339.52	3.5220	3.5221	-1.9062	25.05	0.15	-0.750			
0.6048	38707.01	3.5190	3.5191	-1.8804	25.06	0.16	-0.750			
0.6104	39066.46	3.5160	3.5160	-1.8621	25.07	0.17	-0.750			
0.6160	39426.11	3.5130	3.5130	-1.8211	25.09	0.19	-0.750			
0.6215	39774.15	3.5100	3.5099	-1.7961	25.10	0.20	-0.750			
0.6268	40115.60	3.5070	3.5068	-1.7356	25.11	0.21	-0.750			
0.6318	40437.52	3.5040	3.5041	-1.6825	25.12	0.22	-0.750			
0.6369	40761.65	3.5010	3.5010	-1.6476	25.14	0.24	-0.750			
0.6417	41069.92	3.4980	3.4979	-1.5874	25.15	0.25	-0.750			
0.6464	41372.40	3.4950	3.4949	-1.5330	25.16	0.26	-0.750			
0.6509	41660.13	3.4920	3.4917	-1.4792	25.18	0.28	-0.750			
0.6553	41936.86	3.4890	3.4893	-1.4329	25.19	0.29	-0.750			
0.6596	42212.17	3.4860	3.4858	-1.3904	25.20	0.30	-0.750			
0.6636	42470.66	3.4830	3.4829	-1.3360	25.22	0.32	-0.750			
0.6675	42719.71	3.4800	3.4803	-1.2962	25.23	0.33	-0.750			
0.6715	42973.32	3.4770	3.4770	-1.2747	25.25	0.35	-0.750			
0.6752	43212.03	3.4740	3.4738	-1.2314	25.26	0.36	-0.750			
0.6788	43442.48	3.4710	3.4710	-1.1830	25.28	0.38	-0.750			
0.6823	43667.43	3.4680	3.4680	-1.1616	25.29	0.39	-0.750			
0.6858	43888.57	3.4650	3.4649	-1.1227	25.31	0.41	-0.750			
0.6891	44099.65	3.4620	3.4619	-1.0840	25.32	0.42	-0.750			
0.6922	44302.39	3.4590	3.4595	-1.0492	25.34	0.44	-0.750			
0.6954	44502.78	3.4560	3.4559	-1.0266	25.35	0.45	-0.750			
0.6984	44695.33	3.4530	3.4529	-0.9947	25.36	0.46	-0.750			
0.7013	44882.26	3.4500	3.4500	-0.9640	25.37	0.47	-0.750			
0.7042	45066.38	3.4470	3.4470	-0.9458	25.38	0.48	-0.750			
0.7069	45244.16	3.4440	3.4439	-0.9216	25.39	0.49	-0.750			
0.7096	45417.33	3.4410	3.4410	-0.8957	25.40	0.50	-0.750			
0.7123	45585.89	3.4380	3.4380	-0.8778	25.42	0.52	-0.750			
0.7149	45751.86	3.4350	3.4350	-0.8580	25.43	0.53	-0.750			
0.7174	45915.70	3.4320	3.4323	-0.8481	25.44	0.54	-0.750			
0.7199	46076.22	3.4290	3.4290	-0.8418	25.45	0.55	-0.750			
0.7224	46234.75	3.4260	3.4261	-0.8393	25.46	0.56	-0.750			
0.7249	46396.10	3.4230	3.4229	-0.8393	25.46	0.56	-0.750			
0.7275	46558.43	3.4200	3.4199	-0.8397	25.47	0.57	-0.750			
0.7300	46719.35	3.4170	3.4172	-0.8441	25.48	0.58	-0.750			
0.7325	46882.96	3.4140	3.4140	-0.8498	25.49	0.59	-0.750			
0.7351	47045.35	3.4110	3.4109	-0.8490	25.50	0.60	-0.750			
0.7376	47207.49	3.4080	3.4080	-0.8478	25.50	0.60	-0.750			
0.7402	47372.69	3.4050	3.4050	-0.8480	25.51	0.61	-0.750			
0.7428	47536.14	3.4020	3.4020	-0.8442	25.52	0.62	-0.750			
0.7453	47699.59	3.3990	3.3990	-0.8377	25.53	0.63	-0.750			
0.7478	47858.90	3.3960	3.3960	-0.8223	25.54	0.64	-0.750			
0.7503	48017.49	3.3930	3.3930	-0.8060	25.55	0.65	-0.750			
0.7527	48170.85	3.3900	3.3900	-0.7868	25.56	0.66	-0.750			
0.7550	48319.49	3.3870	3.3872	-0.7675	25.57	0.67	-0.750			
0.7573	48466.01	3.3840	3.3839	-0.7492	25.58	0.68	-0.750			
0.7595	48605.66	3.3810	3.3810	-0.7292	25.58	0.68	-0.750			
0.7616	48744.06	3.3780	3.3780	-0.7097	25.59	0.69	-0.750			
0.7638	48881.37	3.3750	3.3750	-0.6880	25.60	0.70	-0.750			
0.7658	49011.11	3.3720	3.3719	-0.6630	25.60	0.70	-0.750			
0.7677	49134.72	3.3690	3.3692	-0.6428	25.61	0.71	-0.750			
0.7696	49255.22	3.3660	3.3659	-0.6216	25.62	0.72	-0.750			
0.7714	49371.88	3.3630	3.3629	-0.6012	25.63	0.73	-0.750			
0.7732	49485.16	3.3600	3.3601	-0.5821	25.63	0.73	-0.750			
0.7749	49596.44	3.3570	3.3570	-0.5703	25.64	0.74	-0.750			
0.7766	49705.09	3.3540	3.3540	-0.5526	25.65	0.75	-0.750			
0.7783	49809.34	3.3510	3.3509	-0.5311	25.65	0.75	-0.750			
0.7798	49908.73	3.3480	3.3482	-0.5120	25.66	0.76	-0.750			
0.7813	50005.36	3.3450	3.3450	-0.4954	25.66	0.76	-0.750			
0.7828	50098.38	3.3420	3.3420	-0.4804	25.67	0.77	-0.750			
0.7842	50188.01	3.3390	3.3389	-0.4645	25.67	0.77	-0.750			
0.7856	50275.58	3.3360	3.3360	-0.4536	25.68	0.78	-0.750			
0.7869	50361.55	3.3330	3.3330	-0.4407	25.68	0.78	-0.750			
0.7882	50445.37	3.3300	3.3299	-0.4307	25.69	0.79	-0.750			
0.7895	50526.86	3.3270	3.3270	-0.4170	25.69	0.79	-0.750			
0.7907	50605.20	3.3240	3.3240	-0.4060	25.69	0.79	-0.750			
0.7919	50681.90	3.3210	3.3210	-0.3944	25.70	0.80	-0.750			
0.7931	50756.81	3.3180	3.3179	-0.3852	25.70	0.80	-0.750			
0.7942	50829.10	3.3150	3.3150	-0.3748	25.71	0.81	-0.750			
0.7953	50900.37	3.3120	3.3119	-0.3662	25.72	0.82	-0.750			
0.7964	50969.65	3.3090	3.3090	-0.3559	25.72	0.82	-0.750			
0.7975	51037.40	3.3060	3.3060	-0.3476	25.73	0.83	-0.750			
0.7985	51102.80	3.3030	3.3030	-0.3378	25.73	0.83	-0.750			
0.7995	51166.98	3.3000	3.2999	-0.3310	25.74	0.84	-0.750			
0.8005	51229.07	3.2970	3.2970	-0.3229	25.74	0.84	-0.750			
0.8014	51290.17	3.2940	3.2940	-0.3181	25.75	0.85	-0.750			
0.8024	51350.59	3.2910	3.2910	-0.3123	25.76	0.86	-0.750			
0.8033	51410.51	3.2880	3.2880	-0.3057	25.76	0.86	-0.750			
0.8042	51468.49	3.2850	3.2849	-0.2998	25.77	0.87	-0.750			
0.8051	51525.44	3.2820	3.2822	-0.2942	25.77	0.87	-0.750			
0.8060	51580.89	3.2790	3.2790	-0.2879	25.78	0.88	-0.750			
0.8068	51635.71	3.2760	3.2760	-0.2829	25.78	0.88	-0.750			
0.8076	51688.78	3.2730	3.2730	-0.2771	25.79	0.89	-0.750			
0.8085	51742.15	3.2700	3.2701	-0.2738	25.79	0.89	-0.750			
0.8093	51794.27	3.2670	3.2671	-0.2701	25.80	0.90	-0.750			
0.8101	51845.47	3.2640	3.2640	-0.2659	25.80	0.90	-0.750			
0.8109	51896.33	3.2610	3.2610	-0.2628	25.81	0.91	-0.750			
0.8117	51946.16	3.2580	3.2580	-0.2588	25.81	0.91	-0.750			
0.8124	51995.79	3.2550	3.2550	-0.2550	25.82	0.92	-0.750			
0.8132	52044.50	3.2520	3.2520	-0.2513	25.82	0.92	-0.750			
0.8139	52092.13	3.2490	3.2491	-0.2485	25.83	0.93	-0.750			
0.8147	52139.68	3.2460	3.2459	-0.2446	25.83	0.93	-0.750			
0.8154	52186.28	3.2430	3.2429	-0.2403	25.84	0.94	-0.750			
0.8161	52231.82	3.2400	3.2400	-0.2371	25.84	0.94	-0.750			
0.8168	52276.90	3.2370	3.2371	-0.2343	25.85	0.95	-0.750			
0.8175	52321.62	3.2340	3.2340	-0.2315	25.85	0.95	-0.750			
0.8182	52365.96	3.2310	3.2309	-0.2283	25.86	0.96	-0.750			
0.8189	52409.08	3.2280	3.2282	-0.2264	25.86	0.96	-0.750			
0.8196	52452.10	3.2250	3.2250	-0.2238	25.87	0.97	-0.750			
0.8202	52495.43	3.2220	3.2220	-0.2219	25.88	0.98	-0.750			
0.8209	52537.90	3.2190	3.2191	-0.2196	25.88	0.98	-0.750			
0.8216	52579.60	3.2160	3.2160	-0.2164	25.89	0.99	-0.750			
0.8222	52620.86	3.2130	3.2130	-0.2145	25.90	1.00	-0.750			
0.8228	52662.05	3.2100	3.2099	-0.2122	25.90	1.00	-0.750			
0.8235	52702.48	3.2070	3.2070	-0.2081	25.91	1.01	-0.750			
0.8241	52742.18	3.2040	3.2040	-0.2054	25.92	1.02	-0.750			
0.8247	52781.50	3.2010	3.2011	-0.2035	25.92	1.02	-0.750			
0.8253	52819.98	3.1980	3.1980	-0.2027	25.93	1.03	-0.750			
0.8259	52858.88	3.1950	3.1949	-0.1998	25.93	1.03	-0.750			
0.8265	52897.08	3.1920	3.1918	-0.1979	25.94	1.04	-0.750			
0.8271	52934.71	3.1890	3.1890	-0.1959	25.95	1.05	-0.750			
0.8277	52972.42	3.1860	3.1861	-0.1947	25.95	1.05	-0.750			
0.8283	53010.14	3.1830	3.1829	-0.1926	25.96	1.06	-0.750			
0.8289	53046.66	3.1800	3.1800	-0.1896	25.96	1.06	-0.750			
0.8294	53082.32	3.1770	3.1770	-0.1868	25.97	1.07	-0.750			
0.8300	53117.57	3.1740	3.1743	-0.1842	25.97	1.07	-0.750			
0.8305	53153.23	3.1710	3.1709	-0.1833	25.98	1.08	-0.750			
0.8311	53187.83	3.1680	3.1680	-0.1809	25.98	1.08	-0.750			
0.8316	53222.32	3.1650	3.1650	-0.1791	25.99	1.09	-0.750			
0.8321	53256.61	3.1620	3.1620	-0.1781	26.00	1.10	-0.750			
0.8327	53290.97	3.1590	3.1590	-0.1770	26.00	1.10	-0.750			
0.8332	53324.81	3.1560	3.1560	-0.1755	26.01	1.11	-0.750			
0.8337	53358.31	3.1530	3.1530	-0.1738	26.02	1.12	-0.750			
0.8342	53391.53	3.1500	3.1500	-0.1722	26.02	1.12	-0.750			
0.8348	53424.58	3.1470	3.1470	-0.1703	26.03	1.13	-0.750			
0.8353	53457.02	3.1440	3.1440	-0.1687	26.03	1.13	-0.750			
0.8358	53489.16	3.1410	3.1411	-0.1672	26.04	1.14	-0.750			
0.8363	53521.12	3.1380	3.1380	-0.1657	26.05	1.15	-0.750			
0.8368	53552.87	3.1350	3.1349	-0.1635	26.05	1.15	-0.750			
0.8373	53584.15	3.1320	3.1320	-0.1617	26.06	1.16	-0.750			
0.8377	53615.09	3.1290	3.1290	-0.1598	26.06	1.16	-0.750			
0.8382	53645.37	3.1260	3.1261	-0.1590	26.07	1.17	-0.750			
0.8387	53675.84	3.1230	3.1229	-0.1574	26.07	1.17	-0.750			
0.8392	53705.61	3.1200	3.1200	-0.1559	26.08	1.18	-0.750			
0.8396	53735.48	3.1170	3.1170	-0.1552	26.08	1.18	-0.750			
0.8401	53765.13	3.1140	3.1141	-0.1540	26.09	1.19	-0.750			
0.8405	53794.86	3.1110	3.1109	-0.1534	26.09	1.19	-0.750			
0.8410	53824.12	3.1080	3.1080	-0.1523	26.10	1.20	-0.750			
0.8415	53853.25	3.1050	3.1050	-0.1512	26.10	1.20	-0.750			
0.8419	53882.04	3.1020	3.1020	-0.1495	26.11	1.21	-0.750			
0.8424	53910.91	3.0990	3.0990	-0.1486	26.11	1.21	-0.750			
0.8428	53939.22	3.0960	3.0960	-0.1469	26.12	1.22	-0.750			
0.8432	53967.37	3.0930	3.0930	-0.1448	26.12	1.22	-0.750			
0.8437	53995.07	3.0900	3.0900	-0.1435	26.13	1.23	-0.750			
0.8441	54022.16	3.0870	3.0871	-0.1422	26.13	1.23	-0.750			
0.8445	54049.36	3.0840	3.0840	-0.1411	26.14	1.24	-0.750			
0.8449	54076.08	3.0810	3.0810	-0.1399	26.15	1.25	-0.750			
0.8454	54102.94	3.0780	3.0779	-0.1390	26.15	1.25	-0.750			
0.8458	54129.50	3.0750	3.0751	-0.1383	26.16	1.26	-0.750			
0.8462	54155.98	3.0720	3.0721	-0.1376	26.16	1.26	-0.750			
0.8466	54182.56	3.0690	3.0690	-0.1368	26.17	1.27	-0.750			
0.8470	54208.64	3.0660	3.0659	-0.1357	26.18	1.28	-0.750			
0.8474	54234.48	3.0630	3.0630	-0.1344	26.18	1.28	-0.750			
0.8478	54260.20	3.0600	3.0601	-0.1337	26.19	1.29	-0.750			
0.8482	54285.87	3.0570	3.0571	-0.1330	26.19	1.29	-0.750			
0.8486	54311.39	3.0540	3.0538	-0.1320	26.20	1.30	-0.750			
0.8490	54336.54	3.0510	3.0510	-0.1307	26.21	1.31	-0.750			
0.8494	54361.55	3.0480	3.0479	-0.1298	26.21	1.31	-0.750			
0.8498	54386.50	3.0450	3.0450	-0.1289	26.22	1.32	-0.750			
0.8502	54411.14	3.0420	3.0420	-0.1278	26.22	1.32	-0.750			
0.8506	54435.57	3.0390	3.0390	-0.1267	26.23	1.33	-0.750			
0.8509	54459.72	3.0360	3.0360	-0.1261	26.23	1.33	-0.750			
0.8513	54483.75	3.0330	3.0330	-0.1251	26.24	1.34	-0.750			
0.8517	54507.72	3.0300	3.0300	-0.1245	26.24	1.34	-0.750			
0.8521	54531.59	3.0270	3.0269	-0.1236	26.25	1.35	-0.750			
0.8524	54555.25	3.0240	3.0240	-0.1228	26.25	1.35	-0.750			
0.8528	54578.86	3.0210	3.0211	-0.1219	26.26	1.36	-0.750			
0.8532	54602.28	3.0180	3.0179	-0.1210	26.26	1.36	-0.750			
0.8535	54625.40	3.0150	3.0151	-0.1198	26.27	1.37	-0.750			
0.8539	54648.20	3.0120	3.0120	-0.1184	26.28	1.38	-0.750			
0.8542	54670.83	3.0090	3.0090	-0.1173	26.28	1.38	-0.750			
0.8546	54693.28	3.0060	3.0060	-0.1159	26.29	1.39	-0.751			
0.8549	54715.42	3.0030	3.0030	-0.1146	26.29	1.39	-0.751			
