Ah_balance (normalized)	Ah_balance (mAh)	Voltage - fit (V)	Voltage -  interpolate (V)	dQ/dV (1/V)	Temperature (°C)	Temperature - diff (°C)	Current (C)	R_DC 0ms (mOhm)	R_DC 50ms (mOhm)	R_DC 50 ms PEC (mOhm)
0.0002	13.97	4.1560	4.1557	-0.1035	25.07	0.01	-0.750			
0.0006	37.57	4.1530	4.1526	-0.1389	25.07	0.01	-0.750			
0.0010	66.69	4.1500	4.1500	-0.1720	25.07	0.01	-0.750			
0.0016	102.64	4.1470	4.1471	-0.2076	25.07	0.01	-0.750			
0.0023	146.65	4.1440	4.1440	-0.2410	25.06	0.00	-0.750			
0.0031	196.11	4.1410	4.1409	-0.2758	25.06	0.00	-0.750			
0.0040	253.06	4.1380	4.1380	-0.3067	25.06	0.00	-0.750			
0.0049	315.49	4.1350	4.1351	-0.3372	25.06	0.00	-0.750			
0.0060	384.21	4.1320	4.1319	-0.3656	25.06	-0.00	-0.750			
0.0071	457.05	4.1290	4.1290	-0.3922	25.06	-0.00	-0.750			
0.0084	534.91	4.1260	4.1260	-0.4187	25.05	-0.01	-0.750			
0.0097	618.50	4.1230	4.1230	-0.4399	25.05	-0.01	-0.750			
0.0110	705.31	4.1200	4.1199	-0.4639	25.05	-0.01	-0.750			
0.0125	797.37	4.1170	4.1171	-0.4896	25.05	-0.01	-0.750			
0.0140	894.61	4.1140	4.1140	-0.5089	25.05	-0.01	-0.750			
0.0155	995.05	4.1110	4.1109	-0.5251	25.04	-0.02	-0.750			
0.0172	1097.94	4.1080	4.1081	-0.5416	25.04	-0.02	-0.750			
0.0188	1204.08	4.1050	4.1049	-0.5525	25.04	-0.02	-0.750			
0.0205	1312.74	4.1020	4.1020	-0.5656	25.04	-0.02	-0.750			
0.0222	1419.87	4.0990	4.0990	-0.5742	25.04	-0.02	-0.750			
0.0239	1529.83	4.0960	4.0961	-0.5853	25.03	-0.03	-0.750			
0.0257	1645.99	4.0930	4.0929	-0.5977	25.03	-0.03	-0.750			
0.0275	1761.46	4.0900	4.0900	-0.6058	25.03	-0.03	-0.750			
0.0294	1880.16	4.0870	4.0871	-0.6102	25.03	-0.03	-0.750			
0.0312	1998.38	4.0840	4.0840	-0.6176	25.03	-0.03	-0.750			
0.0331	2117.16	4.0810	4.0810	-0.6230	25.03	-0.03	-0.750			
0.0349	2236.77	4.0780	4.0780	-0.6284	25.03	-0.03	-0.750			
0.0368	2357.93	4.0750	4.0749	-0.6350	25.03	-0.03	-0.750			
0.0388	2481.21	4.0720	4.0721	-0.6417	25.03	-0.03	-0.750			
0.0407	2605.85	4.0690	4.0689	-0.6477	25.03	-0.03	-0.750			
0.0427	2730.98	4.0660	4.0662	-0.6554	25.03	-0.03	-0.750			
0.0446	2856.58	4.0630	4.0630	-0.6580	25.03	-0.03	-0.750			
0.0466	2983.03	4.0600	4.0599	-0.6646	25.04	-0.02	-0.750			
0.0486	3111.30	4.0570	4.0571	-0.6699	25.04	-0.02	-0.750			
0.0507	3243.01	4.0540	4.0539	-0.6723	25.04	-0.02	-0.750			
0.0527	3371.11	4.0510	4.0510	-0.6736	25.05	-0.01	-0.750			
0.0547	3501.05	4.0480	4.0480	-0.6757	25.05	-0.01	-0.750			
0.0567	3630.01	4.0450	4.0450	-0.6784	25.05	-0.01	-0.750			
0.0588	3761.29	4.0420	4.0420	-0.6818	25.06	-0.00	-0.750			
0.0608	3892.60	4.0390	4.0389	-0.6845	25.06	-0.00	-0.750			
0.0629	4024.28	4.0360	4.0361	-0.6853	25.06	0.00	-0.750			
0.0650	4158.36	4.0330	4.0329	-0.6898	25.07	0.01	-0.750			
0.0670	4288.97	4.0300	4.0299	-0.6860	25.07	0.01	-0.750			
0.0691	4419.90	4.0270	4.0270	-0.6906	25.07	0.01	-0.750			
0.0711	4552.19	4.0240	4.0240	-0.6942	25.07	0.01	-0.750			
0.0732	4685.67	4.0210	4.0210	-0.7003	25.07	0.01	-0.750			
0.0753	4821.59	4.0180	4.0180	-0.7018	25.07	0.01	-0.750			
0.0775	4958.50	4.0150	4.0150	-0.7081	25.07	0.01	-0.750			
0.0796	5094.82	4.0120	4.0119	-0.7091	25.07	0.01	-0.750			
0.0817	5230.98	4.0090	4.0090	-0.7086	25.07	0.01	-0.750			
0.0839	5366.51	4.0060	4.0060	-0.7066	25.08	0.02	-0.750			
0.0860	5502.72	4.0030	4.0030	-0.7098	25.08	0.02	-0.750			
0.0881	5638.80	4.0000	4.0000	-0.7104	25.09	0.03	-0.750			
0.0903	5776.37	3.9970	3.9969	-0.7175	25.09	0.03	-0.750			
0.0924	5913.03	3.9940	3.9942	-0.7178	25.10	0.04	-0.750			
0.0946	6051.92	3.9910	3.9909	-0.7196	25.10	0.04	-0.750			
0.0967	6190.60	3.9880	3.9881	-0.7206	25.11	0.05	-0.750			
0.0989	6327.98	3.9850	3.9850	-0.7274	25.11	0.05	-0.750			
0.1011	6469.57	3.9820	3.9820	-0.7342	25.11	0.05	-0.750			
0.1033	6610.80	3.9790	3.9789	-0.7283	25.12	0.06	-0.750			
0.1055	6749.67	3.9760	3.9761	-0.7275	25.12	0.06	-0.750			
0.1077	6890.06	3.9730	3.9731	-0.7304	25.12	0.06	-0.750			
0.1098	7029.43	3.9700	3.9700	-0.7377	25.13	0.07	-0.750			
0.1120	7170.59	3.9670	3.9668	-0.7370	25.13	0.07	-0.750			
0.1142	7311.40	3.9640	3.9641	-0.7419	25.13	0.07	-0.750			
0.1165	7456.64	3.9610	3.9609	-0.7414	25.14	0.08	-0.750			
0.1188	7601.90	3.9580	3.9579	-0.7468	25.14	0.08	-0.750			
0.1210	7743.94	3.9550	3.9550	-0.7433	25.14	0.08	-0.750			
0.1232	7883.80	3.9520	3.9520	-0.7451	25.14	0.08	-0.750			
0.1254	8025.66	3.9490	3.9490	-0.7466	25.15	0.09	-0.750			
0.1277	8171.72	3.9460	3.9460	-0.7506	25.15	0.09	-0.750			
0.1299	8315.71	3.9430	3.9431	-0.7520	25.15	0.09	-0.750			
0.1322	8461.59	3.9400	3.9400	-0.7531	25.16	0.10	-0.750			
0.1345	8604.83	3.9370	3.9369	-0.7556	25.16	0.10	-0.750			
0.1367	8750.21	3.9340	3.9340	-0.7523	25.17	0.11	-0.750			
0.1389	8892.78	3.9310	3.9310	-0.7530	25.17	0.11	-0.750			
0.1412	9038.33	3.9280	3.9280	-0.7610	25.18	0.12	-0.750			
0.1435	9185.63	3.9250	3.9247	-0.7645	25.18	0.12	-0.750			
0.1458	9331.61	3.9220	3.9220	-0.7683	25.18	0.12	-0.750			
0.1481	9480.79	3.9190	3.9191	-0.7693	25.18	0.12	-0.750			
0.1505	9629.06	3.9160	3.9160	-0.7699	25.18	0.12	-0.750			
0.1528	9778.51	3.9130	3.9129	-0.7760	25.18	0.12	-0.750			
0.1551	9925.00	3.9100	3.9104	-0.7722	25.18	0.12	-0.750			
0.1574	10073.42	3.9070	3.9070	-0.7725	25.18	0.12	-0.750			
0.1597	10223.04	3.9040	3.9039	-0.7750	25.19	0.13	-0.750			
0.1621	10371.36	3.9010	3.9010	-0.7747	25.19	0.13	-0.750			
0.1644	10519.64	3.8980	3.8981	-0.7802	25.19	0.13	-0.750			
0.1667	10668.14	3.8950	3.8949	-0.7829	25.20	0.14	-0.750			
0.1690	10818.76	3.8920	3.8919	-0.7850	25.20	0.14	-0.750			
0.1714	10970.47	3.8890	3.8890	-0.7932	25.21	0.15	-0.750			
0.1738	11125.07	3.8860	3.8860	-0.7936	25.21	0.15	-0.750			
0.1762	11278.06	3.8830	3.8830	-0.7911	25.21	0.15	-0.750			
0.1786	11430.66	3.8800	3.8799	-0.7872	25.22	0.16	-0.750			
0.1809	11580.01	3.8770	3.8771	-0.7839	25.22	0.16	-0.750			
0.1833	11729.42	3.8740	3.8739	-0.7817	25.23	0.17	-0.750			
0.1856	11879.11	3.8710	3.8709	-0.7807	25.23	0.17	-0.750			
0.1879	12028.17	3.8680	3.8680	-0.7745	25.23	0.17	-0.750			
0.1903	12178.42	3.8650	3.8651	-0.7786	25.24	0.18	-0.750			
0.1926	12328.51	3.8620	3.8620	-0.7801	25.24	0.18	-0.750			
0.1950	12477.68	3.8590	3.8590	-0.7821	25.24	0.18	-0.750			
0.1973	12625.60	3.8560	3.8559	-0.7805	25.24	0.18	-0.750			
0.1996	12776.98	3.8530	3.8530	-0.7848	25.25	0.19	-0.750			
0.2020	12929.39	3.8500	3.8500	-0.7862	25.25	0.19	-0.750			
0.2044	13081.80	3.8470	3.8470	-0.7824	25.25	0.19	-0.750			
0.2068	13232.60	3.8440	3.8440	-0.7765	25.25	0.19	-0.750			
0.2090	13378.05	3.8410	3.8411	-0.7802	25.25	0.19	-0.750			
0.2114	13528.78	3.8380	3.8380	-0.7755	25.26	0.20	-0.750			
0.2137	13677.81	3.8350	3.8348	-0.7694	25.26	0.20	-0.750			
0.2160	13825.20	3.8320	3.8320	-0.7703	25.26	0.20	-0.750			
0.2183	13972.88	3.8290	3.8292	-0.7683	25.26	0.20	-0.750			
0.2206	14120.45	3.8260	3.8259	-0.7709	25.26	0.20	-0.750			
0.2229	14267.24	3.8230	3.8229	-0.7663	25.27	0.21	-0.750			
0.2252	14411.58	3.8200	3.8201	-0.7607	25.27	0.21	-0.750			
0.2275	14562.20	3.8170	3.8170	-0.7586	25.28	0.22	-0.750			
0.2298	14708.43	3.8140	3.8140	-0.7565	25.28	0.22	-0.750			
0.2320	14850.73	3.8110	3.8111	-0.7507	25.28	0.22	-0.750			
0.2343	14992.98	3.8080	3.8078	-0.7479	25.28	0.22	-0.750			
0.2365	15137.68	3.8050	3.8049	-0.7458	25.29	0.23	-0.750			
0.2388	15280.66	3.8020	3.8020	-0.7467	25.29	0.23	-0.750			
0.2410	15426.31	3.7990	3.7990	-0.7454	25.29	0.23	-0.750			
0.2433	15570.22	3.7960	3.7960	-0.7411	25.29	0.23	-0.750			
0.2455	15710.32	3.7930	3.7929	-0.7324	25.29	0.23	-0.750			
0.2477	15850.20	3.7900	3.7901	-0.7287	25.29	0.23	-0.750			
0.2498	15987.02	3.7870	3.7870	-0.7236	25.30	0.24	-0.750			
0.2520	16128.17	3.7840	3.7840	-0.7276	25.30	0.24	-0.750			
0.2542	16266.95	3.7810	3.7809	-0.7173	25.30	0.24	-0.750			
0.2563	16404.59	3.7780	3.7779	-0.7182	25.30	0.24	-0.750			
0.2585	16542.01	3.7750	3.7751	-0.7181	25.30	0.24	-0.750			
0.2606	16678.92	3.7720	3.7719	-0.7228	25.30	0.24	-0.750			
0.2628	16817.66	3.7690	3.7689	-0.7247	25.31	0.25	-0.750			
0.2650	16958.37	3.7660	3.7660	-0.7242	25.31	0.25	-0.750			
0.2672	17098.15	3.7630	3.7631	-0.7270	25.31	0.25	-0.750			
0.2694	17238.68	3.7600	3.7600	-0.7273	25.31	0.25	-0.750			
0.2715	17376.80	3.7570	3.7569	-0.7235	25.31	0.25	-0.750			
0.2737	17515.57	3.7540	3.7540	-0.7305	25.31	0.25	-0.750			
0.2759	17654.95	3.7510	3.7510	-0.7294	25.32	0.26	-0.750			
0.2781	17796.74	3.7480	3.7479	-0.7393	25.32	0.26	-0.750			
0.2803	17939.42	3.7450	3.7453	-0.7466	25.32	0.26	-0.750			
0.2825	18082.21	3.7420	3.7419	-0.7535	25.32	0.26	-0.750			
0.2848	18227.72	3.7390	3.7390	-0.7638	25.33	0.27	-0.750			
0.2871	18374.05	3.7360	3.7360	-0.7701	25.33	0.27	-0.750			
0.2894	18524.34	3.7330	3.7330	-0.7895	25.33	0.27	-0.750			
0.2918	18676.87	3.7300	3.7299	-0.7986	25.34	0.28	-0.750			
0.2942	18830.17	3.7270	3.7269	-0.8046	25.34	0.28	-0.750			
0.2967	18985.78	3.7240	3.7240	-0.8178	25.34	0.28	-0.750			
0.2991	19143.10	3.7210	3.7211	-0.8286	25.34	0.28	-0.750			
0.3016	19305.17	3.7180	3.7178	-0.8358	25.34	0.28	-0.750			
0.3042	19467.14	3.7150	3.7150	-0.8474	25.34	0.28	-0.750			
0.3067	19628.88	3.7120	3.7120	-0.8600	25.34	0.28	-0.750			
0.3093	19795.04	3.7090	3.7091	-0.8812	25.34	0.28	-0.750			
0.3120	19966.83	3.7060	3.7058	-0.8968	25.34	0.28	-0.750			
0.3147	20137.86	3.7030	3.7030	-0.9138	25.34	0.28	-0.750			
0.3175	20318.70	3.7000	3.7000	-0.9314	25.34	0.28	-0.750			
0.3203	20500.01	3.6970	3.6970	-0.9494	25.34	0.28	-0.750			
0.3232	20684.18	3.6940	3.6939	-0.9638	25.33	0.27	-0.750			
0.3261	20867.66	3.6910	3.6911	-0.9720	25.33	0.27	-0.750			
0.3290	21056.09	3.6880	3.6879	-0.9893	25.32	0.26	-0.750			
0.3320	21246.73	3.6850	3.6850	-1.0090	25.32	0.26	-0.750			
0.3350	21441.61	3.6820	3.6820	-1.0226	25.31	0.25	-0.750			
0.3381	21641.09	3.6790	3.6789	-1.0432	25.31	0.25	-0.750			
0.3413	21842.93	3.6760	3.6761	-1.0590	25.30	0.24	-0.750			
0.3445	22048.15	3.6730	3.6730	-1.0912	25.30	0.24	-0.750			
0.3478	22260.19	3.6700	3.6699	-1.1145	25.29	0.23	-0.750			
0.3512	22477.47	3.6670	3.6669	-1.1294	25.29	0.23	-0.750			
0.3546	22695.18	3.6640	3.6643	-1.1466	25.28	0.22	-0.750			
0.3581	22921.42	3.6610	3.6610	-1.1756	25.28	0.22	-0.750			
0.3617	23149.29	3.6580	3.6579	-1.1914	25.27	0.21	-0.750			
0.3653	23377.78	3.6550	3.6549	-1.2101	25.26	0.20	-0.750			
0.3689	23608.79	3.6520	3.6521	-1.2251	25.26	0.20	-0.750			
0.3726	23849.12	3.6490	3.6490	-1.2511	25.26	0.20	-0.750			
0.3764	24092.52	3.6460	3.6459	-1.2676	25.26	0.20	-0.750			
0.3802	24333.38	3.6430	3.6434	-1.2901	25.26	0.20	-0.750			
0.3842	24589.11	3.6400	3.6399	-1.3187	25.25	0.19	-0.750			
0.3882	24842.87	3.6370	3.6370	-1.3388	25.25	0.19	-0.750			
0.3922	25102.21	3.6340	3.6342	-1.3687	25.24	0.18	-0.750			
0.3963	25363.51	3.6310	3.6310	-1.4038	25.23	0.17	-0.750			
0.4006	25637.82	3.6280	3.6277	-1.4325	25.23	0.17	-0.750			
0.4050	25917.95	3.6250	3.6253	-1.4562	25.22	0.16	-0.750			
0.4094	26201.80	3.6220	3.6218	-1.4992	25.21	0.15	-0.750			
0.4140	26494.40	3.6190	3.6192	-1.5229	25.21	0.15	-0.750			
0.4185	26784.78	3.6160	3.6160	-1.5349	25.20	0.14	-0.750			
0.4232	27083.80	3.6130	3.6134	-1.5708	25.19	0.13	-0.750			
0.4279	27385.87	3.6100	3.6104	-1.5861	25.18	0.12	-0.750	0.399	0.571	
0.4327	27691.86	3.6070	3.6068	-1.6147	25.18	0.12	-0.750			
0.4375	28001.65	3.6040	3.6040	-1.6513	25.18	0.12	-0.750			
0.4425	28319.08	3.6010	3.6011	-1.6938	25.18	0.12	-0.750			
0.4476	28647.18	3.5980	3.5978	-1.7227	25.18	0.12	-0.750			
0.4528	28980.53	3.5950	3.5951	-1.7647	25.17	0.11	-0.750			
0.4583	29329.72	3.5920	3.5919	-1.7984	25.16	0.10	-0.750			
0.4638	29683.10	3.5890	3.5887	-1.8363	25.16	0.10	-0.750			
0.4693	30036.02	3.5860	3.5860	-1.8632	25.15	0.09	-0.750			
0.4749	30390.44	3.5830	3.5831	-1.9012	25.15	0.09	-0.750			
0.4807	30762.33	3.5800	3.5799	-1.9137	25.15	0.09	-0.750			
0.4864	31130.51	3.5770	3.5772	-1.9421	25.14	0.08	-0.750			
0.4923	31506.24	3.5740	3.5742	-1.9760	25.14	0.08	-0.750			
0.4983	31892.82	3.5710	3.5706	-2.0075	25.14	0.08	-0.750			
0.5044	32279.98	3.5680	3.5679	-2.0233	25.13	0.07	-0.750			
0.5104	32668.72	3.5650	3.5649	-2.0414	25.13	0.07	-0.750			
0.5167	33066.59	3.5620	3.5620	-2.0477	25.14	0.08	-0.750			
0.5228	33460.08	3.5590	3.5591	-2.0584	25.14	0.08	-0.750			
0.5290	33858.12	3.5560	3.5560	-2.0482	25.13	0.07	-0.750			
0.5351	34245.69	3.5530	3.5530	-2.0587	25.13	0.07	-0.750			
0.5413	34643.81	3.5500	3.5500	-2.0736	25.14	0.08	-0.750			
0.5476	35045.56	3.5470	3.5467	-2.0869	25.14	0.08	-0.750			
0.5539	35449.99	3.5440	3.5441	-2.0822	25.14	0.08	-0.750			
0.5602	35855.17	3.5410	3.5411	-2.0779	25.14	0.08	-0.750			
0.5665	36252.93	3.5380	3.5380	-2.0675	25.14	0.08	-0.750			
0.5727	36650.37	3.5350	3.5349	-2.0264	25.14	0.08	-0.750			
0.5788	37040.00	3.5320	3.5319	-1.9983	25.15	0.09	-0.750			
0.5847	37420.45	3.5290	3.5290	-1.9747	25.15	0.09	-0.750			
0.5906	37799.16	3.5260	3.5260	-1.9501	25.16	0.10	-0.750			
0.5964	38169.69	3.5230	3.5229	-1.9284	25.17	0.11	-0.750			
0.6021	38537.39	3.5200	3.5197	-1.8837	25.18	0.12	-0.750			
0.6078	38896.24	3.5170	3.5172	-1.8475	25.18	0.12	-0.750			
0.6133	39251.79	3.5140	3.5140	-1.8216	25.19	0.13	-0.750			
0.6187	39599.90	3.5110	3.5110	-1.7669	25.20	0.14	-0.750			
0.6240	39934.45	3.5080	3.5082	-1.7182	25.21	0.15	-0.750			
0.6291	40260.35	3.5050	3.5052	-1.6731	25.22	0.16	-0.750			
0.6340	40574.93	3.5020	3.5020	-1.6326	25.23	0.17	-0.750			
0.6388	40884.98	3.4990	3.4990	-1.5955	25.23	0.17	-0.750			
0.6436	41187.62	3.4960	3.4961	-1.5518	25.24	0.18	-0.750			
0.6482	41482.01	3.4930	3.4928	-1.5027	25.26	0.20	-0.750			
0.6526	41767.81	3.4900	3.4901	-1.4611	25.27	0.21	-0.750			
0.6569	42041.26	3.4870	3.4868	-1.4038	25.29	0.23	-0.750			
0.6610	42306.90	3.4840	3.4841	-1.3553	25.30	0.24	-0.750			
0.6649	42556.72	3.4810	3.4809	-1.3005	25.31	0.25	-0.750			
0.6688	42802.85	3.4780	3.4781	-1.2716	25.32	0.26	-0.750			
0.6726	43047.49	3.4750	3.4749	-1.2418	25.34	0.28	-0.750			
0.6763	43280.90	3.4720	3.4719	-1.2064	25.35	0.29	-0.750			
0.6798	43506.62	3.4690	3.4690	-1.1699	25.36	0.30	-0.750			
0.6833	43732.14	3.4660	3.4660	-1.1443	25.38	0.32	-0.750			
0.6867	43947.00	3.4630	3.4630	-1.1209	25.39	0.33	-0.750			
0.6900	44158.09	3.4600	3.4600	-1.0939	25.41	0.35	-0.750			
0.6932	44367.24	3.4570	3.4570	-1.0625	25.42	0.36	-0.750			
0.6964	44570.56	3.4540	3.4541	-1.0331	25.44	0.38	-0.750			
0.6995	44766.25	3.4510	3.4511	-0.9981	25.45	0.39	-0.750			
0.7024	44954.25	3.4480	3.4479	-0.9580	25.47	0.41	-0.750			
0.7052	45134.39	3.4450	3.4451	-0.9320	25.48	0.42	-0.750			
0.7079	45305.73	3.4420	3.4420	-0.8974	25.49	0.43	-0.750			
0.7105	45474.29	3.4390	3.4389	-0.8747	25.50	0.44	-0.750			
0.7131	45639.45	3.4360	3.4360	-0.8651	25.51	0.45	-0.750			
0.7157	45802.09	3.4330	3.4330	-0.8550	25.51	0.45	-0.750			
0.7182	45964.77	3.4300	3.4300	-0.8478	25.52	0.46	-0.750			
0.7207	46127.82	3.4270	3.4270	-0.8450	25.53	0.47	-0.750			
0.7233	46289.82	3.4240	3.4240	-0.8455	25.54	0.48	-0.750			
0.7258	46453.50	3.4210	3.4209	-0.8458	25.55	0.49	-0.750			
0.7284	46615.54	3.4180	3.4179	-0.8461	25.55	0.49	-0.750			
0.7309	46777.50	3.4150	3.4152	-0.8423	25.56	0.50	-0.750			
0.7334	46938.65	3.4120	3.4119	-0.8446	25.57	0.51	-0.750			
0.7360	47101.15	3.4090	3.4090	-0.8440	25.58	0.52	-0.750			
0.7385	47261.05	3.4060	3.4061	-0.8375	25.59	0.53	-0.750			
0.7410	47425.79	3.4030	3.4030	-0.8381	25.60	0.54	-0.750			
0.7436	47587.94	3.4000	3.4000	-0.8308	25.60	0.54	-0.750			
0.7460	47745.66	3.3970	3.3970	-0.8211	25.61	0.55	-0.750			
0.7485	47902.75	3.3940	3.3940	-0.8100	25.62	0.56	-0.750			
0.7509	48056.43	3.3910	3.3910	-0.7926	25.63	0.57	-0.750			
0.7533	48208.02	3.3880	3.3879	-0.7775	25.63	0.57	-0.750			
0.7556	48356.93	3.3850	3.3852	-0.7567	25.64	0.58	-0.750			
0.7578	48500.62	3.3820	3.3819	-0.7373	25.65	0.59	-0.750			
0.7600	48639.75	3.3790	3.3791	-0.7154	25.66	0.60	-0.750			
0.7621	48774.45	3.3760	3.3759	-0.6912	25.66	0.60	-0.750			
0.7641	48904.79	3.3730	3.3730	-0.6701	25.67	0.61	-0.750			
0.7661	49031.56	3.3700	3.3698	-0.6488	25.68	0.62	-0.750			
0.7680	49153.73	3.3670	3.3672	-0.6272	25.68	0.62	-0.750			
0.7699	49271.95	3.3640	3.3640	-0.6079	25.69	0.63	-0.750			
0.7716	49385.38	3.3610	3.3610	-0.5878	25.69	0.63	-0.750			
0.7734	49495.48	3.3580	3.3581	-0.5674	25.70	0.64	-0.750			
0.7751	49604.76	3.3550	3.3549	-0.5525	25.70	0.64	-0.750			
0.7767	49708.91	3.3520	3.3520	-0.5361	25.71	0.65	-0.750			
0.7783	49810.31	3.3490	3.3490	-0.5195	25.71	0.65	-0.750			
0.7798	49907.92	3.3460	3.3460	-0.5044	25.72	0.66	-0.750			
0.7813	50003.04	3.3430	3.3429	-0.4888	25.73	0.67	-0.750			
0.7827	50094.82	3.3400	3.3399	-0.4724	25.73	0.67	-0.750			
0.7841	50184.62	3.3370	3.3370	-0.4587	25.74	0.68	-0.750			
0.7855	50271.52	3.3340	3.3341	-0.4445	25.74	0.68	-0.750			
0.7868	50354.92	3.3310	3.3310	-0.4318	25.75	0.69	-0.750			
0.7881	50436.38	3.3280	3.3280	-0.4216	25.75	0.69	-0.750			
0.7893	50515.26	3.3250	3.3249	-0.4089	25.76	0.70	-0.750			
0.7905	50593.30	3.3220	3.3220	-0.3994	25.76	0.70	-0.750			
0.7917	50669.73	3.3190	3.3190	-0.3902	25.77	0.71	-0.750			
0.7929	50743.47	3.3160	3.3161	-0.3800	25.77	0.71	-0.750			
0.7940	50815.92	3.3130	3.3130	-0.3693	25.78	0.72	-0.750			
0.7951	50885.34	3.3100	3.3100	-0.3579	25.78	0.72	-0.750			
0.7961	50952.42	3.3070	3.3070	-0.3479	25.78	0.72	-0.750			
0.7972	51018.04	3.3040	3.3041	-0.3420	25.79	0.73	-0.750			
0.7982	51082.47	3.3010	3.3009	-0.3358	25.79	0.73	-0.750			
0.7992	51146.54	3.2980	3.2980	-0.3280	25.80	0.74	-0.750			
0.8001	51209.45	3.2950	3.2949	-0.3212	25.80	0.74	-0.750			
0.8011	51270.77	3.2920	3.2921	-0.3155	25.80	0.74	-0.750			
0.8020	51330.57	3.2890	3.2890	-0.3104	25.81	0.75	-0.750			
0.8030	51389.31	3.2860	3.2859	-0.3031	25.81	0.75	-0.750			
0.8039	51446.79	3.2830	3.2829	-0.2962	25.82	0.76	-0.750			
0.8047	51502.71	3.2800	3.2801	-0.2904	25.82	0.76	-0.750			
0.8056	51558.15	3.2770	3.2770	-0.2864	25.82	0.76	-0.750			
0.8065	51612.82	3.2740	3.2739	-0.2811	25.83	0.77	-0.750			
0.8073	51665.83	3.2710	3.2709	-0.2754	25.84	0.78	-0.750			
0.8081	51717.68	3.2680	3.2681	-0.2699	25.84	0.78	-0.750			
0.8089	51769.43	3.2650	3.2651	-0.2681	25.85	0.79	-0.750			
0.8097	51820.56	3.2620	3.2620	-0.2643	25.85	0.79	-0.750			
0.8105	51870.63	3.2590	3.2590	-0.2601	25.86	0.80	-0.750			
0.8113	51920.35	3.2560	3.2560	-0.2555	25.86	0.80	-0.750			
0.8120	51969.43	3.2530	3.2531	-0.2527	25.87	0.81	-0.750			
0.8128	52017.55	3.2500	3.2501	-0.2489	25.88	0.82	-0.750			
0.8135	52064.73	3.2470	3.2470	-0.2451	25.88	0.82	-0.750			
0.8142	52111.15	3.2440	3.2440	-0.2409	25.89	0.83	-0.750			
0.8149	52156.55	3.2410	3.2411	-0.2382	25.89	0.83	-0.750			
0.8157	52202.32	3.2380	3.2380	-0.2356	25.90	0.84	-0.750			
0.8164	52247.74	3.2350	3.2350	-0.2326	25.90	0.84	-0.750			
0.8171	52292.25	3.2320	3.2320	-0.2304	25.91	0.85	-0.750			
0.8177	52335.95	3.2290	3.2291	-0.2271	25.91	0.85	-0.750			
0.8184	52379.23	3.2260	3.2259	-0.2252	25.92	0.86	-0.750			
0.8191	52422.31	3.2230	3.2229	-0.2219	25.92	0.86	-0.750			
0.8198	52464.47	3.2200	3.2201	-0.2191	25.93	0.87	-0.750			
0.8204	52506.65	3.2170	3.2170	-0.2175	25.93	0.87	-0.750			
0.8211	52548.04	3.2140	3.2141	-0.2150	25.94	0.88	-0.750			
0.8217	52589.09	3.2110	3.2109	-0.2128	25.94	0.88	-0.750			
0.8223	52629.40	3.2080	3.2080	-0.2100	25.95	0.89	-0.750			
0.8230	52669.54	3.2050	3.2050	-0.2081	25.95	0.89	-0.750			
0.8236	52709.23	3.2020	3.2021	-0.2057	25.96	0.90	-0.750			
0.8242	52748.96	3.1990	3.1990	-0.2037	25.97	0.91	-0.750			
0.8248	52787.62	3.1960	3.1961	-0.2011	25.97	0.91	-0.750			
0.8254	52825.99	3.1930	3.1930	-0.1986	25.98	0.92	-0.750			
0.8260	52863.90	3.1900	3.1900	-0.1959	25.98	0.92	-0.750			
0.8266	52901.21	3.1870	3.1870	-0.1935	25.98	0.92	-0.750			
0.8272	52937.85	3.1840	3.1841	-0.1917	25.99	0.93	-0.750			
0.8277	52974.58	3.1810	3.1810	-0.1900	25.99	0.93	-0.750			
0.8283	53010.86	3.1780	3.1780	-0.1882	26.00	0.94	-0.750			
0.8289	53046.83	3.1750	3.1750	-0.1865	26.00	0.94	-0.750			
0.8294	53082.38	3.1720	3.1720	-0.1848	26.01	0.95	-0.750			
0.8300	53117.85	3.1690	3.1691	-0.1830	26.01	0.95	-0.750			
0.8305	53153.06	3.1660	3.1659	-0.1814	26.02	0.96	-0.750			
0.8311	53187.75	3.1630	3.1630	-0.1792	26.02	0.96	-0.750			
0.8316	53221.65	3.1600	3.1600	-0.1772	26.03	0.97	-0.750			
0.8321	53255.52	3.1570	3.1570	-0.1760	26.03	0.97	-0.750			
0.8326	53289.15	3.1540	3.1540	-0.1744	26.04	0.98	-0.750			
0.8332	53322.37	3.1510	3.1509	-0.1725	26.04	0.98	-0.750			
0.8337	53355.33	3.1480	3.1480	-0.1707	26.05	0.99	-0.750			
0.8342	53388.07	3.1450	3.1450	-0.1697	26.06	1.00	-0.750			
0.8347	53420.48	3.1420	3.1420	-0.1680	26.06	1.00	-0.750			
0.8352	53452.69	3.1390	3.1390	-0.1661	26.07	1.01	-0.750			
0.8357	53484.28	3.1360	3.1360	-0.1640	26.07	1.01	-0.750			
0.8362	53515.47	3.1330	3.1330	-0.1624	26.08	1.02	-0.750			
0.8367	53546.52	3.1300	3.1300	-0.1610	26.08	1.02	-0.750			
0.8371	53577.26	3.1270	3.1270	-0.1599	26.09	1.03	-0.750			
0.8376	53607.83	3.1240	3.1240	-0.1585	26.09	1.03	-0.750			
0.8381	53638.02	3.1210	3.1210	-0.1571	26.10	1.04	-0.750			
0.8386	53668.12	3.1180	3.1180	-0.1559	26.11	1.05	-0.750			
0.8390	53698.08	3.1150	3.1151	-0.1549	26.11	1.05	-0.750			
0.8395	53727.80	3.1120	3.1119	-0.1535	26.11	1.05	-0.750			
0.8400	53757.10	3.1090	3.1090	-0.1519	26.12	1.06	-0.750			
0.8404	53786.11	3.1060	3.1060	-0.1505	26.12	1.06	-0.750			
0.8409	53814.77	3.1030	3.1030	-0.1493	26.12	1.06	-0.750			
0.8413	53843.41	3.1000	3.0999	-0.1481	26.12	1.06	-0.750			
0.8417	53871.70	3.0970	3.0970	-0.1467	26.13	1.07	-0.750			
0.8422	53899.66	3.0940	3.0940	-0.1455	26.13	1.07	-0.750			
0.8426	53927.45	3.0910	3.0911	-0.1443	26.13	1.07	-0.750			
0.8430	53955.09	3.0880	3.0880	-0.1435	26.14	1.08	-0.750			
0.8435	53982.52	3.0850	3.0850	-0.1423	26.14	1.08	-0.750			
0.8439	54009.66	3.0820	3.0820	-0.1414	26.15	1.09	-0.750			
0.8443	54036.71	3.0790	3.0790	-0.1402	26.16	1.10	-0.750			
0.8447	54063.76	3.0760	3.0760	-0.1392	26.16	1.10	-0.750			
0.8452	54090.35	3.0730	3.0730	-0.1378	26.17	1.11	-0.750			
0.8456	54116.66	3.0700	3.0700	-0.1367	26.18	1.12	-0.750			
0.8460	54142.78	3.0670	3.0670	-0.1356	26.18	1.12	-0.750			
0.8464	54168.66	3.0640	3.0641	-0.1343	26.19	1.13	-0.750			
0.8468	54194.33	3.0610	3.0609	-0.1331	26.19	1.13	-0.750			
0.8472	54219.64	3.0580	3.0580	-0.1325	26.20	1.14	-0.750			
0.8476	54244.92	3.0550	3.0550	-0.1321	26.21	1.15	-0.750			
0.8480	54270.42	3.0520	3.0520	-0.1313	26.21	1.15	-0.750			
0.8484	54295.56	3.0490	3.0489	-0.1305	26.22	1.16	-0.750			
0.8488	54320.57	3.0460	3.0460	-0.1294	26.22	1.16	-0.750			
0.8491	54345.46	3.0430	3.0431	-0.1285	26.23	1.17	-0.750			
0.8495	54370.07	3.0400	3.0400	-0.1278	26.23	1.17	-0.750			
0.8499	54394.49	3.0370	3.0370	-0.1266	26.24	1.18	-0.750			
0.8503	54418.52	3.0340	3.0339	-0.1254	26.25	1.19	-0.750			
0.8507	54442.22	3.0310	3.0310	-0.1245	26.25	1.19	-0.750			
0.8510	54466.10	3.0280	3.0281	-0.1242	26.26	1.20	-0.750			
0.8514	54490.07	3.0250	3.0250	-0.1235	26.26	1.20	-0.750			
0.8518	54513.71	3.0220	3.0219	-0.1228	26.27	1.21	-0.750			
0.8521	54537.59	3.0190	3.0190	-0.1209	26.27	1.21	-0.750			
0.8525	54560.89	3.0160	3.0160	-0.1195	26.28	1.22	-0.750			
0.8529	54583.51	3.0130	3.0131	-0.1178	26.28	1.22	-0.750			
0.8532	54606.22	3.0100	3.0100	-0.1160	26.29	1.23	-0.750			
0.8536	54628.27	3.0070	3.0070	-0.1136	26.30	1.24	-0.750			
0.8539	54649.67	3.0040	3.0039	-0.1123	26.30	1.24	-0.751			
0.8542	54671.09	3.0010	3.0010	-0.1108	26.31	1.25	-0.751			
