Ah_balance (normalized)	Ah_balance (mAh)	Voltage - fit (V)	Voltage -  interpolate (V)	dQ/dV (1/V)	Temperature (°C)	Temperature - diff (°C)	Current (C)	R_DC 0ms (mOhm)	R_DC 50ms (mOhm)	R_DC 50 ms PEC (mOhm)
0.0520	3325.70	4.1980	4.1980	0.7196	26.80	0.82	0.750			
0.0542	3468.75	4.1950	4.1948	0.7589	26.80	0.82	0.750			
0.0565	3616.68	4.1920	4.1920	0.7679	26.80	0.82	0.750			
0.0588	3766.11	4.1890	4.1890	0.7657	26.80	0.82	0.750			
0.0611	3912.61	4.1860	4.1862	0.7689	26.80	0.82	0.750			
0.0634	4059.35	4.1830	4.1830	0.7672	26.80	0.82	0.750			
0.0657	4207.22	4.1800	4.1800	0.7654	26.80	0.82	0.750			
0.0680	4352.51	4.1770	4.1771	0.7634	26.80	0.82	0.750			
0.0703	4499.60	4.1740	4.1741	0.7645	26.80	0.82	0.750			
0.0726	4647.50	4.1710	4.1710	0.7690	26.80	0.82	0.750			
0.0749	4796.10	4.1680	4.1679	0.7701	26.79	0.81	0.750			
0.0772	4941.13	4.1650	4.1650	0.7712	26.79	0.81	0.750			
0.0795	5089.97	4.1620	4.1620	0.7747	26.79	0.81	0.750			
0.0819	5240.11	4.1590	4.1590	0.7822	26.79	0.81	0.750			
0.0842	5391.79	4.1560	4.1560	0.7796	26.79	0.81	0.750			
0.0866	5541.65	4.1530	4.1530	0.7801	26.78	0.80	0.750			
0.0889	5690.60	4.1500	4.1501	0.7812	26.78	0.80	0.750			
0.0913	5840.56	4.1470	4.1469	0.7810	26.78	0.80	0.750			
0.0936	5989.31	4.1440	4.1439	0.7852	26.78	0.80	0.750			
0.0960	6142.22	4.1410	4.1410	0.7825	26.78	0.80	0.750			
0.0983	6290.81	4.1380	4.1381	0.7859	26.78	0.80	0.750			
0.1007	6444.51	4.1350	4.1351	0.7910	26.78	0.80	0.750			
0.1030	6594.43	4.1320	4.1320	0.7887	26.78	0.80	0.750			
0.1054	6745.79	4.1290	4.1289	0.7909	26.78	0.80	0.750			
0.1078	6898.74	4.1260	4.1261	0.7886	26.78	0.80	0.750			
0.1101	7049.14	4.1230	4.1230	0.7876	26.78	0.80	0.750			
0.1125	7202.22	4.1200	4.1201	0.7943	26.78	0.80	0.750			
0.1149	7353.41	4.1170	4.1171	0.7925	26.78	0.80	0.750			
0.1173	7505.58	4.1140	4.1139	0.7957	26.78	0.80	0.750			
0.1197	7657.96	4.1110	4.1109	0.8011	26.78	0.80	0.750			
0.1221	7812.52	4.1080	4.1081	0.8005	26.77	0.79	0.750			
0.1245	7966.86	4.1050	4.1050	0.8049	26.77	0.79	0.750			
0.1269	8121.37	4.1020	4.1021	0.8075	26.76	0.78	0.750			
0.1293	8276.75	4.0990	4.0988	0.8080	26.76	0.78	0.750			
0.1318	8432.35	4.0960	4.0960	0.8070	26.76	0.78	0.750			
0.1342	8587.31	4.0930	4.0931	0.8076	26.76	0.78	0.750			
0.1366	8742.02	4.0900	4.0900	0.8091	26.76	0.78	0.750			
0.1390	8896.92	4.0870	4.0870	0.8126	26.76	0.78	0.750			
0.1415	9053.20	4.0840	4.0839	0.8150	26.76	0.78	0.750			
0.1439	9210.03	4.0810	4.0810	0.8161	26.76	0.78	0.750			
0.1464	9367.68	4.0780	4.0779	0.8189	26.76	0.78	0.750			
0.1488	9525.61	4.0750	4.0751	0.8229	26.76	0.78	0.750			
0.1513	9682.30	4.0720	4.0720	0.8224	26.76	0.78	0.750			
0.1538	9840.74	4.0690	4.0688	0.8231	26.76	0.78	0.750			
0.1563	10001.10	4.0660	4.0661	0.8124	26.76	0.78	0.750			
0.1587	10158.78	4.0630	4.0631	0.8020	26.76	0.78	0.750			
0.1611	10311.23	4.0600	4.0601	0.8035	26.76	0.78	0.750			
0.1635	10461.27	4.0570	4.0570	0.8076	26.76	0.78	0.750			
0.1658	10612.32	4.0540	4.0538	0.8080	26.76	0.78	0.750			
0.1682	10767.98	4.0510	4.0511	0.8217	26.76	0.78	0.750			
0.1708	10931.28	4.0480	4.0481	0.8283	26.76	0.78	0.750			
0.1733	11093.27	4.0450	4.0450	0.8419	26.75	0.77	0.750			
0.1759	11256.23	4.0420	4.0420	0.8462	26.75	0.77	0.750			
0.1784	11415.79	4.0390	4.0391	0.8435	26.75	0.77	0.750			
0.1809	11578.03	4.0360	4.0361	0.8468	26.75	0.77	0.750			
0.1835	11742.01	4.0330	4.0330	0.8498	26.75	0.77	0.750			
0.1860	11904.49	4.0300	4.0300	0.8549	26.74	0.76	0.750			
0.1886	12069.76	4.0270	4.0271	0.8552	26.74	0.76	0.750			
0.1912	12235.70	4.0240	4.0239	0.8612	26.74	0.76	0.750			
0.1938	12401.71	4.0210	4.0209	0.8637	26.74	0.76	0.750			
0.1964	12568.25	4.0180	4.0181	0.8670	26.74	0.76	0.750			
0.1990	12735.79	4.0150	4.0150	0.8711	26.74	0.76	0.750			
0.2016	12902.09	4.0120	4.0120	0.8753	26.74	0.76	0.750			
0.2042	13069.71	4.0090	4.0089	0.8773	26.74	0.76	0.750			
0.2069	13239.38	4.0060	4.0059	0.8766	26.74	0.76	0.750			
0.2095	13407.23	4.0030	4.0030	0.8812	26.74	0.76	0.750			
0.2121	13576.83	4.0000	4.0001	0.8877	26.74	0.76	0.750			
0.2148	13746.91	3.9970	3.9970	0.8886	26.74	0.76	0.750			
0.2175	13920.56	3.9940	3.9940	0.8891	26.74	0.76	0.750			
0.2202	14092.37	3.9910	3.9911	0.8813	26.74	0.76	0.750			
0.2228	14259.87	3.9880	3.9881	0.8910	26.74	0.76	0.750			
0.2255	14431.19	3.9850	3.9851	0.8938	26.74	0.76	0.750			
0.2281	14598.91	3.9820	3.9819	0.8955	26.74	0.76	0.750			
0.2308	14772.67	3.9790	3.9790	0.9012	26.74	0.76	0.750			
0.2336	14948.68	3.9760	3.9761	0.9029	26.74	0.76	0.750			
0.2363	15123.31	3.9730	3.9730	0.9055	26.74	0.76	0.750			
0.2391	15299.34	3.9700	3.9701	0.9078	26.74	0.76	0.750			
0.2417	15469.74	3.9670	3.9668	0.9023	26.74	0.76	0.750			
0.2444	15644.73	3.9640	3.9640	0.9016	26.74	0.76	0.750			
0.2471	15815.53	3.9610	3.9611	0.9077	26.74	0.76	0.750			
0.2499	15991.75	3.9580	3.9580	0.9148	26.74	0.76	0.750			
0.2526	16168.24	3.9550	3.9551	0.9150	26.74	0.76	0.750			
0.2553	16342.23	3.9520	3.9519	0.9167	26.74	0.76	0.750			
0.2581	16518.67	3.9490	3.9492	0.9201	26.73	0.75	0.750			
0.2609	16696.44	3.9460	3.9460	0.9208	26.73	0.75	0.750			
0.2637	16873.69	3.9430	3.9429	0.9254	26.73	0.75	0.750			
0.2664	17051.91	3.9400	3.9400	0.9194	26.72	0.74	0.750			
0.2692	17230.67	3.9370	3.9370	0.9193	26.72	0.74	0.750			
0.2720	17405.76	3.9340	3.9340	0.9203	26.72	0.74	0.750			
0.2747	17580.69	3.9310	3.9310	0.9204	26.72	0.74	0.750			
0.2775	17757.38	3.9280	3.9281	0.9270	26.72	0.74	0.750			
0.2803	17936.60	3.9250	3.9249	0.9241	26.72	0.74	0.750			
0.2830	18113.12	3.9220	3.9220	0.9224	26.72	0.74	0.750			
0.2858	18291.94	3.9190	3.9191	0.9278	26.72	0.74	0.750			
0.2886	18468.65	3.9160	3.9159	0.9282	26.72	0.74	0.750			
0.2913	18646.08	3.9130	3.9126	0.9257	26.72	0.74	0.750			
0.2942	18827.11	3.9100	3.9101	0.9226	26.72	0.74	0.750			
0.2969	19002.51	3.9070	3.9071	0.9319	26.71	0.73	0.750			
0.2997	19182.75	3.9040	3.9040	0.9413	26.71	0.73	0.750			
0.3026	19363.90	3.9010	3.9011	0.9426	26.70	0.72	0.750			
0.3054	19543.78	3.8980	3.8980	0.9438	26.70	0.72	0.750			
0.3082	19725.27	3.8950	3.8951	0.9469	26.69	0.71	0.750			
0.3111	19907.23	3.8920	3.8920	0.9568	26.69	0.71	0.750			
0.3139	20091.45	3.8890	3.8890	0.9637	26.68	0.70	0.750			
0.3168	20276.13	3.8860	3.8856	0.9634	26.68	0.70	0.750			
0.3197	20461.84	3.8830	3.8831	0.9776	26.68	0.70	0.750			
0.3227	20650.29	3.8800	3.8801	0.9770	26.67	0.69	0.750			
0.3256	20837.68	3.8770	3.8771	0.9864	26.67	0.69	0.750			
0.3285	21025.53	3.8740	3.8738	0.9864	26.66	0.68	0.750			
0.3315	21217.76	3.8710	3.8711	0.9953	26.65	0.67	0.750			
0.3345	21410.88	3.8680	3.8681	0.9981	26.64	0.66	0.750			
0.3376	21603.50	3.8650	3.8651	1.0027	26.63	0.65	0.750			
0.3406	21798.96	3.8620	3.8620	1.0164	26.62	0.64	0.750			
0.3436	21988.56	3.8590	3.8589	1.0058	26.61	0.63	0.750			
0.3466	22179.83	3.8560	3.8560	1.0101	26.60	0.62	0.750			
0.3496	22375.03	3.8530	3.8530	1.0223	26.60	0.62	0.750			
0.3527	22573.92	3.8500	3.8500	1.0373	26.59	0.61	0.750			
0.3559	22774.96	3.8470	3.8470	1.0427	26.58	0.60	0.750			
0.3590	22974.65	3.8440	3.8440	1.0474	26.57	0.59	0.750			
0.3621	23176.71	3.8410	3.8411	1.0558	26.57	0.59	0.750			
0.3653	23380.25	3.8380	3.8380	1.0649	26.56	0.58	0.750			
0.3686	23587.37	3.8350	3.8349	1.0579	26.55	0.57	0.750			
0.3717	23788.27	3.8320	3.8320	1.0720	26.54	0.56	0.750			
0.3749	23994.80	3.8290	3.8291	1.0787	26.53	0.55	0.750			
0.3782	24204.56	3.8260	3.8259	1.0872	26.52	0.54	0.750			
0.3815	24413.99	3.8230	3.8232	1.0824	26.51	0.53	0.750			
0.3847	24621.35	3.8200	3.8201	1.0833	26.50	0.52	0.750			
0.3880	24829.20	3.8170	3.8171	1.0855	26.49	0.51	0.750			
0.3913	25040.13	3.8140	3.8138	1.0879	26.48	0.50	0.750			
0.3944	25244.09	3.8110	3.8111	1.0832	26.47	0.49	0.750			
0.3977	25451.74	3.8080	3.8080	1.0972	26.46	0.48	0.750			
0.4010	25662.89	3.8050	3.8050	1.1110	26.44	0.46	0.750			
0.4044	25883.39	3.8020	3.8018	1.1089	26.43	0.45	0.750			
0.4077	26094.04	3.7990	3.7991	1.1195	26.42	0.44	0.750			
0.4111	26307.68	3.7960	3.7961	1.1368	26.41	0.43	0.750			
0.4145	26527.11	3.7930	3.7931	1.1505	26.40	0.42	0.750			
0.4179	26747.90	3.7900	3.7901	1.1530	26.39	0.41	0.750			
0.4214	26968.67	3.7870	3.7871	1.1748	26.38	0.40	0.750			
0.4249	27196.56	3.7840	3.7842	1.1968	26.37	0.39	0.750			
0.4287	27434.43	3.7810	3.7807	1.1998	26.36	0.38	0.750			
0.4323	27664.35	3.7780	3.7781	1.2133	26.35	0.37	0.750			
0.4359	27897.23	3.7750	3.7751	1.2316	26.33	0.35	0.750			
0.4396	28135.41	3.7720	3.7720	1.2546	26.32	0.34	0.750			
0.4433	28373.49	3.7690	3.7692	1.2776	26.31	0.33	0.750			
0.4472	28620.19	3.7660	3.7661	1.3144	26.29	0.31	0.750			
0.4513	28880.08	3.7630	3.7629	1.3441	26.28	0.30	0.750			
0.4553	29141.20	3.7600	3.7600	1.3810	26.27	0.29	0.750	0.309	0.401	
0.4595	29411.01	3.7570	3.7571	1.4036	26.25	0.27	0.750			
0.4638	29684.78	3.7540	3.7541	1.4270	26.24	0.26	0.750			
0.4682	29964.63	3.7510	3.7507	1.4513	26.23	0.25	0.750			
0.4725	30239.16	3.7480	3.7482	1.4944	26.21	0.23	0.750			
0.4771	30536.33	3.7450	3.7452	1.5043	26.20	0.22	0.750			
0.4817	30827.90	3.7420	3.7421	1.5375	26.18	0.20	0.750			
0.4863	31123.56	3.7390	3.7395	1.5825	26.17	0.19	0.750			
0.4911	31428.02	3.7360	3.7359	1.6294	26.15	0.17	0.750			
0.4960	31744.25	3.7330	3.7332	1.6668	26.14	0.16	0.750			
0.5010	32066.52	3.7300	3.7302	1.7119	26.13	0.15	0.750			
0.5062	32398.95	3.7270	3.7271	1.7726	26.11	0.13	0.750			
0.5117	32751.86	3.7240	3.7237	1.8132	26.09	0.11	0.750			
0.5171	33091.72	3.7210	3.7209	1.8731	26.07	0.09	0.750			
0.5228	33457.84	3.7180	3.7180	1.9202	26.06	0.08	0.750			
0.5286	33831.03	3.7150	3.7147	1.9808	26.05	0.07	0.750			
0.5347	34217.77	3.7120	3.7119	2.0185	26.03	0.05	0.750			
0.5409	34616.55	3.7090	3.7091	2.0859	26.01	0.03	0.750			
0.5471	35016.64	3.7060	3.7060	2.1600	25.99	0.01	0.750			
0.5539	35446.77	3.7030	3.7029	2.2286	25.97	-0.01	0.750			
0.5604	35863.60	3.7000	3.7004	2.2896	25.95	-0.03	0.750			
0.5674	36315.83	3.6970	3.6972	2.4049	25.93	-0.05	0.750			
0.5748	36789.36	3.6940	3.6938	2.4350	25.91	-0.07	0.750			
0.5822	37262.85	3.6910	3.6911	2.4877	25.89	-0.09	0.750			
0.5898	37749.94	3.6880	3.6883	2.5504	25.87	-0.11	0.750			
0.5976	38248.65	3.6850	3.6849	2.6233	25.86	-0.12	0.750			
0.6054	38746.63	3.6820	3.6820	2.7286	25.85	-0.13	0.750			
0.6139	39288.43	3.6790	3.6788	2.8733	25.83	-0.15	0.750			
0.6225	39840.99	3.6760	3.6762	2.9656	25.82	-0.16	0.750			
0.6318	40433.99	3.6730	3.6729	3.0143	25.81	-0.17	0.750			
0.6407	41006.83	3.6700	3.6700	3.0650	25.79	-0.19	0.750			
0.6500	41600.65	3.6670	3.6668	3.0862	25.79	-0.19	0.750			
0.6596	42214.55	3.6640	3.6639	3.0275	25.78	-0.20	0.750			
0.6688	42805.45	3.6610	3.6609	2.8773	25.77	-0.21	0.750			
0.6768	43313.65	3.6580	3.6582	2.5244	25.77	-0.21	0.750			
0.6836	43748.63	3.6550	3.6550	2.2059	25.77	-0.21	0.750			
0.6896	44136.09	3.6520	3.6520	1.9649	25.77	-0.21	0.750			
0.6949	44472.81	3.6490	3.6490	1.7738	25.77	-0.21	0.750			
0.6999	44790.62	3.6460	3.6457	1.6327	25.77	-0.21	0.750			
0.7045	45090.73	3.6430	3.6427	1.5160	25.77	-0.21	0.750			
0.7089	45370.53	3.6400	3.6401	1.4216	25.77	-0.21	0.750			
0.7129	45626.93	3.6370	3.6371	1.3409	25.77	-0.21	0.750			
0.7167	45871.12	3.6340	3.6337	1.2653	25.77	-0.21	0.750			
0.7204	46104.43	3.6310	3.6311	1.2252	25.77	-0.21	0.750			
0.7240	46335.60	3.6280	3.6280	1.2123	25.77	-0.21	0.750			
0.7276	46565.82	3.6250	3.6249	1.2050	25.77	-0.21	0.750			
0.7312	46793.85	3.6220	3.6221	1.2031	25.77	-0.21	0.750			
0.7347	47022.08	3.6190	3.6191	1.2147	25.77	-0.21	0.750			
0.7384	47259.33	3.6160	3.6160	1.2191	25.78	-0.20	0.750			
0.7422	47499.35	3.6130	3.6126	1.2052	25.78	-0.20	0.750			
0.7458	47731.69	3.6100	3.6101	1.1982	25.78	-0.20	0.750			
0.7494	47960.28	3.6070	3.6072	1.1897	25.79	-0.19	0.750			
0.7529	48187.34	3.6040	3.6040	1.1802	25.79	-0.19	0.750			
0.7564	48407.24	3.6010	3.6010	1.1542	25.79	-0.19	0.750			
0.7598	48626.20	3.5980	3.5980	1.1522	25.79	-0.19	0.750			
0.7633	48848.32	3.5950	3.5952	1.1723	25.79	-0.19	0.750			
0.7669	49078.69	3.5920	3.5917	1.1844	25.79	-0.19	0.750			
0.7703	49300.81	3.5890	3.5890	1.2022	25.79	-0.19	0.750			
0.7739	49529.06	3.5860	3.5861	1.2415	25.78	-0.20	0.750			
0.7777	49770.44	3.5830	3.5830	1.2741	25.78	-0.20	0.750			
0.7816	50019.90	3.5800	3.5800	1.3274	25.78	-0.20	0.750			
0.7856	50276.19	3.5770	3.5770	1.3745	25.78	-0.20	0.750			
0.7897	50542.87	3.5740	3.5742	1.4338	25.78	-0.20	0.750			
0.7942	50831.86	3.5710	3.5710	1.4740	25.78	-0.20	0.750			
0.7988	51120.18	3.5680	3.5677	1.5049	25.77	-0.21	0.750			
0.8033	51411.16	3.5650	3.5651	1.5398	25.77	-0.21	0.750			
0.8081	51716.89	3.5620	3.5621	1.5568	25.77	-0.21	0.750			
0.8127	52015.66	3.5590	3.5589	1.5784	25.76	-0.22	0.750			
0.8174	52316.34	3.5560	3.5559	1.5909	25.76	-0.22	0.750			
0.8223	52624.66	3.5530	3.5530	1.6203	25.76	-0.22	0.750			
0.8272	52941.98	3.5500	3.5502	1.6588	25.77	-0.21	0.750			
0.8322	53263.13	3.5470	3.5471	1.6690	25.77	-0.21	0.750			
0.8373	53586.43	3.5440	3.5440	1.6842	25.76	-0.22	0.750			
0.8424	53916.20	3.5410	3.5409	1.7199	25.76	-0.22	0.750			
0.8476	54245.93	3.5380	3.5378	1.7512	25.76	-0.22	0.750			
0.8529	54587.09	3.5350	3.5348	1.7492	25.76	-0.22	0.750			
0.8585	54943.78	3.5320	3.5320	1.7173	25.77	-0.21	0.750			
0.8640	55295.43	3.5290	3.5291	1.6200	25.78	-0.20	0.750			
0.8689	55612.07	3.5260	3.5262	1.3888	25.80	-0.18	0.750			
0.8730	55872.72	3.5230	3.5234	1.1415	25.81	-0.17	0.750			
0.8759	56056.27	3.5200	3.5200	0.9036	25.83	-0.15	0.750			
0.8778	56179.39	3.5170	3.5166	0.6586	25.83	-0.15	0.750			
0.8790	56257.98	3.5140	3.5136	0.4927	25.84	-0.14	0.750			
0.8802	56333.78	3.5110	3.5108	0.4111	25.85	-0.13	0.750			
0.8812	56395.77	3.5080	3.5080	0.3604	25.85	-0.13	0.750			
0.8822	56461.28	3.5050	3.5049	0.3364	25.86	-0.12	0.750			
0.8832	56522.04	3.5020	3.5020	0.3182	25.86	-0.12	0.750			
0.8841	56580.71	3.4990	3.4990	0.3039	25.87	-0.11	0.750			
0.8850	56637.40	3.4960	3.4961	0.2939	25.87	-0.11	0.750			
0.8858	56693.31	3.4930	3.4930	0.2870	25.88	-0.10	0.750			
0.8867	56746.58	3.4900	3.4900	0.2786	25.88	-0.10	0.750			
0.8875	56799.12	3.4870	3.4870	0.2738	25.89	-0.09	0.750			
0.8883	56851.15	3.4840	3.4840	0.2701	25.89	-0.09	0.750			
0.8891	56902.89	3.4810	3.4810	0.2622	25.89	-0.09	0.750			
0.8899	56953.22	3.4780	3.4779	0.2572	25.90	-0.08	0.750			
0.8907	57001.85	3.4750	3.4751	0.2509	25.90	-0.08	0.750			
0.8914	57049.17	3.4720	3.4719	0.2451	25.91	-0.07	0.750			
0.8921	57095.57	3.4690	3.4689	0.2399	25.91	-0.07	0.750			
0.8928	57140.72	3.4660	3.4660	0.2345	25.92	-0.06	0.750			
0.8935	57184.55	3.4630	3.4630	0.2306	25.92	-0.06	0.750			
0.8942	57229.58	3.4600	3.4600	0.2281	25.92	-0.06	0.750			
0.8949	57272.29	3.4570	3.4569	0.2224	25.93	-0.05	0.750			
0.8955	57314.62	3.4540	3.4540	0.2186	25.93	-0.05	0.750			
0.8962	57356.53	3.4510	3.4510	0.2136	25.93	-0.05	0.750			
0.8968	57397.32	3.4480	3.4479	0.2083	25.94	-0.04	0.750			
0.8974	57436.54	3.4450	3.4452	0.2040	25.94	-0.04	0.750			
0.8981	57475.23	3.4420	3.4419	0.1991	25.95	-0.03	0.750			
0.8986	57512.67	3.4390	3.4390	0.1942	25.95	-0.03	0.750			
0.8992	57550.01	3.4360	3.4358	0.1885	25.95	-0.03	0.750			
0.8998	57585.57	3.4330	3.4331	0.1829	25.95	-0.03	0.750			
0.9003	57620.18	3.4300	3.4300	0.1775	25.96	-0.02	0.750			
0.9008	57653.89	3.4270	3.4271	0.1735	25.96	-0.02	0.750			
0.9014	57686.72	3.4240	3.4238	0.1683	25.96	-0.02	0.750			
0.9018	57718.07	3.4210	3.4210	0.1622	25.97	-0.01	0.750			
0.9023	57748.81	3.4180	3.4180	0.1581	25.97	-0.01	0.750			
0.9028	57778.94	3.4150	3.4151	0.1528	25.97	-0.01	0.750			
0.9033	57808.36	3.4120	3.4120	0.1484	25.97	-0.01	0.750			
0.9037	57836.07	3.4090	3.4090	0.1424	25.98	-0.00	0.750			
0.9041	57862.87	3.4060	3.4060	0.1367	25.98	-0.00	0.750			
0.9045	57888.47	3.4030	3.4031	0.1306	25.98	0.00	0.750			
0.9049	57913.18	3.4000	3.4000	0.1253	25.98	0.00	0.750			
0.9053	57937.19	3.3970	3.3970	0.1184	25.99	0.01	0.750			
0.9056	57959.24	3.3940	3.3941	0.1112	25.99	0.01	0.750			
0.9060	57981.28	3.3910	3.3909	0.1029	25.99	0.01	0.750			
0.9063	58000.41	3.3880	3.3882	0.0946	25.99	0.01	0.750			
0.9065	58017.61	3.3850	3.3850	0.0845	25.99	0.01	0.750			
0.9068	58033.28	3.3820	3.3821	0.0750	25.99	0.01	0.750			
0.9070	58046.66	3.3790	3.3793	0.0644	26.00	0.02	0.750			
0.9072	58058.24	3.3760	3.3766	0.0538	26.00	0.02	0.750			
0.9073	58067.51	3.3730	3.3738	0.0429	26.00	0.02	0.750			
0.9074	58074.70	3.3700	3.3716	0.0320	26.00	0.02	0.750			
0.9075	58079.79	3.3670	3.3694	0.0210	26.00	0.02	0.750			
