Ah_balance (normalized)	Ah_balance (mAh)	Voltage - fit (V)	Voltage -  interpolate (V)	dQ/dV (1/V)	Temperature (°C)	Temperature - diff (°C)	Current (C)	R_DC 0ms (mOhm)	R_DC 50ms (mOhm)	R_DC 50 ms PEC (mOhm)
0.0522	3338.96	4.1960	4.1960	0.7485	26.21	0.22	0.750			
0.0544	3484.17	4.1930	4.1931	0.7641	26.21	0.22	0.750			
0.0568	3634.90	4.1900	4.1900	0.7747	26.21	0.22	0.750			
0.0591	3784.88	4.1870	4.1867	0.7761	26.21	0.22	0.750			
0.0615	3934.54	4.1840	4.1842	0.7813	26.21	0.22	0.750			
0.0638	4086.10	4.1810	4.1811	0.7743	26.21	0.22	0.750			
0.0662	4234.21	4.1780	4.1780	0.7812	26.21	0.22	0.750			
0.0685	4382.91	4.1750	4.1750	0.7768	26.21	0.22	0.750			
0.0708	4532.14	4.1720	4.1721	0.7758	26.21	0.22	0.750			
0.0732	4682.20	4.1690	4.1691	0.7785	26.21	0.22	0.750			
0.0755	4833.03	4.1660	4.1661	0.7784	26.21	0.22	0.750			
0.0778	4981.46	4.1630	4.1629	0.7743	26.21	0.22	0.750			
0.0802	5131.02	4.1600	4.1600	0.7796	26.20	0.21	0.750			
0.0824	5275.98	4.1570	4.1571	0.7776	26.20	0.21	0.750			
0.0848	5426.49	4.1540	4.1540	0.7844	26.20	0.21	0.750			
0.0872	5578.75	4.1510	4.1509	0.7873	26.20	0.21	0.750			
0.0896	5731.65	4.1480	4.1480	0.7786	26.20	0.21	0.750			
0.0919	5878.92	4.1450	4.1451	0.7828	26.21	0.22	0.750			
0.0942	6029.11	4.1420	4.1422	0.7842	26.21	0.22	0.750			
0.0965	6177.95	4.1390	4.1385	0.7903	26.21	0.22	0.750			
0.0989	6328.75	4.1360	4.1361	0.7900	26.21	0.22	0.750			
0.1013	6483.78	4.1330	4.1331	0.7952	26.21	0.22	0.750			
0.1038	6640.08	4.1300	4.1300	0.8063	26.21	0.22	0.750			
0.1061	6793.43	4.1270	4.1271	0.7970	26.21	0.22	0.750			
0.1085	6945.86	4.1240	4.1239	0.7985	26.21	0.22	0.750			
0.1109	7099.13	4.1210	4.1211	0.7986	26.21	0.22	0.750			
0.1133	7253.65	4.1180	4.1179	0.7922	26.21	0.22	0.750			
0.1157	7405.21	4.1150	4.1151	0.7984	26.21	0.22	0.750			
0.1181	7559.06	4.1120	4.1120	0.8039	26.21	0.22	0.750			
0.1205	7712.16	4.1090	4.1091	0.8042	26.21	0.22	0.750			
0.1229	7866.73	4.1060	4.1060	0.8122	26.21	0.22	0.750			
0.1254	8025.77	4.1030	4.1030	0.8065	26.21	0.22	0.750			
0.1278	8180.13	4.1000	4.1000	0.8153	26.21	0.22	0.750			
0.1303	8337.70	4.0970	4.0970	0.8217	26.21	0.22	0.750			
0.1327	8493.43	4.0940	4.0941	0.8166	26.21	0.22	0.750			
0.1352	8650.24	4.0910	4.0911	0.8176	26.21	0.22	0.750			
0.1376	8808.79	4.0880	4.0881	0.8255	26.21	0.22	0.750			
0.1401	8966.94	4.0850	4.0850	0.8274	26.21	0.22	0.750			
0.1426	9128.36	4.0820	4.0819	0.8306	26.21	0.22	0.750			
0.1451	9286.14	4.0790	4.0793	0.8288	26.21	0.22	0.750			
0.1476	9445.91	4.0760	4.0759	0.8346	26.21	0.22	0.750			
0.1501	9607.20	4.0730	4.0730	0.8340	26.21	0.22	0.750			
0.1526	9767.67	4.0700	4.0699	0.8318	26.21	0.22	0.750			
0.1551	9926.40	4.0670	4.0671	0.8275	26.21	0.22	0.750			
0.1576	10086.06	4.0640	4.0642	0.8308	26.21	0.22	0.750			
0.1601	10245.44	4.0610	4.0609	0.8350	26.21	0.22	0.750			
0.1626	10405.83	4.0580	4.0579	0.8302	26.21	0.22	0.750			
0.1651	10564.86	4.0550	4.0550	0.8380	26.21	0.22	0.750			
0.1676	10725.82	4.0520	4.0521	0.8511	26.21	0.22	0.750			
0.1702	10890.32	4.0490	4.0491	0.8569	26.21	0.22	0.750			
0.1728	11056.10	4.0460	4.0460	0.8595	26.21	0.22	0.750			
0.1753	11222.18	4.0430	4.0430	0.8532	26.21	0.22	0.750			
0.1779	11385.71	4.0400	4.0402	0.8624	26.21	0.22	0.750			
0.1805	11552.46	4.0370	4.0370	0.8654	26.21	0.22	0.750			
0.1831	11716.89	4.0340	4.0340	0.8648	26.21	0.22	0.750			
0.1857	11883.57	4.0310	4.0311	0.8683	26.21	0.22	0.750			
0.1883	12052.56	4.0280	4.0281	0.8706	26.22	0.23	0.750			
0.1909	12220.36	4.0250	4.0250	0.8736	26.22	0.23	0.750			
0.1935	12387.01	4.0220	4.0221	0.8722	26.22	0.23	0.750			
0.1962	12554.69	4.0190	4.0188	0.8775	26.23	0.24	0.750			
0.1988	12724.05	4.0160	4.0161	0.8823	26.23	0.24	0.750			
0.2015	12893.16	4.0130	4.0130	0.8836	26.23	0.24	0.750			
0.2041	13064.28	4.0100	4.0101	0.8932	26.23	0.24	0.750			
0.2068	13235.43	4.0070	4.0070	0.8907	26.23	0.24	0.750			
0.2095	13406.55	4.0040	4.0041	0.8996	26.23	0.24	0.750			
0.2122	13581.56	4.0010	4.0011	0.8958	26.23	0.24	0.750			
0.2149	13753.80	3.9980	3.9980	0.9000	26.23	0.24	0.750			
0.2176	13928.85	3.9950	3.9950	0.9030	26.23	0.24	0.750			
0.2203	14099.43	3.9920	3.9922	0.9013	26.23	0.24	0.750			
0.2230	14272.55	3.9890	3.9890	0.9091	26.23	0.24	0.750			
0.2257	14447.51	3.9860	3.9860	0.9142	26.23	0.24	0.750			
0.2285	14623.87	3.9830	3.9830	0.9157	26.23	0.24	0.750			
0.2313	14803.42	3.9800	3.9800	0.9270	26.23	0.24	0.750			
0.2341	14979.80	3.9770	3.9768	0.9207	26.23	0.24	0.750			
0.2369	15159.49	3.9740	3.9740	0.9123	26.23	0.24	0.750			
0.2396	15331.63	3.9710	3.9710	0.9127	26.24	0.25	0.750			
0.2423	15504.52	3.9680	3.9681	0.9153	26.24	0.25	0.750			
0.2450	15679.52	3.9650	3.9651	0.9260	26.25	0.26	0.750			
0.2478	15857.31	3.9620	3.9619	0.9323	26.25	0.26	0.750			
0.2506	16036.92	3.9590	3.9591	0.9304	26.25	0.26	0.750			
0.2534	16218.59	3.9560	3.9560	0.9363	26.25	0.26	0.750			
0.2562	16399.58	3.9530	3.9532	0.9371	26.25	0.26	0.750			
0.2590	16577.40	3.9500	3.9497	0.9348	26.25	0.26	0.750			
0.2618	16756.92	3.9470	3.9470	0.9288	26.25	0.26	0.750			
0.2646	16934.79	3.9440	3.9441	0.9370	26.26	0.27	0.750			
0.2674	17115.43	3.9410	3.9410	0.9455	26.26	0.27	0.750			
0.2703	17297.61	3.9380	3.9381	0.9445	26.27	0.28	0.750			
0.2732	17482.29	3.9350	3.9352	0.9458	26.27	0.28	0.750			
0.2760	17662.89	3.9320	3.9320	0.9473	26.27	0.28	0.750			
0.2788	17844.98	3.9290	3.9291	0.9463	26.27	0.28	0.750			
0.2817	18026.94	3.9260	3.9260	0.9497	26.27	0.28	0.750			
0.2845	18207.69	3.9230	3.9228	0.9475	26.27	0.28	0.750			
0.2873	18389.15	3.9200	3.9201	0.9480	26.28	0.29	0.750			
0.2902	18570.99	3.9170	3.9171	0.9564	26.28	0.29	0.750			
0.2931	18755.24	3.9140	3.9140	0.9610	26.28	0.29	0.750			
0.2959	18940.55	3.9110	3.9109	0.9634	26.29	0.30	0.750			
0.2989	19127.68	3.9080	3.9081	0.9652	26.29	0.30	0.750			
0.3018	19312.19	3.9050	3.9050	0.9702	26.29	0.30	0.750			
0.3047	19500.18	3.9020	3.9020	0.9735	26.29	0.30	0.750			
0.3076	19686.23	3.8990	3.8990	0.9716	26.29	0.30	0.750			
0.3105	19873.41	3.8960	3.8961	0.9691	26.29	0.30	0.750			
0.3134	20060.08	3.8930	3.8930	0.9751	26.29	0.30	0.750			
0.3164	20246.87	3.8900	3.8900	0.9783	26.29	0.30	0.750			
0.3193	20435.19	3.8870	3.8870	0.9844	26.29	0.30	0.750			
0.3222	20622.89	3.8840	3.8840	0.9891	26.29	0.30	0.750			
0.3252	20814.55	3.8810	3.8810	0.9923	26.29	0.30	0.750			
0.3282	21006.40	3.8780	3.8781	0.9966	26.29	0.30	0.750			
0.3312	21198.67	3.8750	3.8750	0.9994	26.29	0.30	0.750			
0.3342	21389.59	3.8720	3.8718	1.0000	26.29	0.30	0.750			
0.3372	21580.25	3.8690	3.8690	1.0067	26.29	0.30	0.750			
0.3402	21773.41	3.8660	3.8660	1.0165	26.29	0.30	0.750			
0.3433	21969.21	3.8630	3.8630	1.0263	26.28	0.29	0.750			
0.3464	22168.76	3.8600	3.8599	1.0391	26.28	0.29	0.750			
0.3495	22369.34	3.8570	3.8570	1.0458	26.28	0.29	0.750			
0.3527	22569.87	3.8540	3.8540	1.0579	26.28	0.29	0.750			
0.3558	22773.99	3.8510	3.8510	1.0661	26.27	0.28	0.750			
0.3591	22979.93	3.8480	3.8478	1.0744	26.27	0.28	0.750			
0.3623	23186.19	3.8450	3.8450	1.0855	26.27	0.28	0.750			
0.3656	23395.90	3.8420	3.8421	1.0977	26.26	0.27	0.750			
0.3689	23608.28	3.8390	3.8390	1.1103	26.25	0.26	0.750			
0.3722	23823.10	3.8360	3.8360	1.1139	26.25	0.26	0.750			
0.3756	24037.62	3.8330	3.8330	1.1273	26.24	0.25	0.750			
0.3790	24253.26	3.8300	3.8300	1.1464	26.24	0.25	0.750			
0.3824	24474.60	3.8270	3.8270	1.1615	26.23	0.24	0.750			
0.3859	24699.38	3.8240	3.8240	1.1632	26.23	0.24	0.750			
0.3894	24924.38	3.8210	3.8211	1.1772	26.22	0.23	0.750			
0.3930	25149.93	3.8180	3.8182	1.1973	26.22	0.23	0.750			
0.3966	25380.43	3.8150	3.8146	1.2166	26.21	0.22	0.750			
0.4002	25612.43	3.8120	3.8121	1.2174	26.20	0.21	0.750			
0.4039	25846.62	3.8090	3.8091	1.2341	26.19	0.20	0.750			
0.4076	26089.00	3.8060	3.8061	1.2521	26.18	0.19	0.750			
0.4114	26330.63	3.8030	3.8031	1.2460	26.17	0.18	0.750			
0.4151	26569.48	3.8000	3.8001	1.2504	26.17	0.18	0.750			
0.4189	26809.25	3.7970	3.7972	1.2544	26.16	0.17	0.750			
0.4227	27055.02	3.7940	3.7941	1.2653	26.15	0.16	0.750			
0.4264	27290.32	3.7910	3.7910	1.2506	26.14	0.15	0.750			
0.4302	27530.01	3.7880	3.7881	1.2642	26.14	0.15	0.750			
0.4340	27777.60	3.7850	3.7845	1.2632	26.13	0.14	0.750			
0.4378	28018.05	3.7820	3.7820	1.2755	26.12	0.13	0.750			
0.4416	28263.76	3.7790	3.7792	1.2982	26.11	0.12	0.750			
0.4456	28516.90	3.7760	3.7758	1.3069	26.10	0.11	0.750			
0.4495	28768.96	3.7730	3.7731	1.3305	26.09	0.10	0.750			
0.4534	29019.62	3.7700	3.7701	1.3557	26.08	0.09	0.750			
0.4575	29281.42	3.7670	3.7670	1.3792	26.07	0.08	0.750			
0.4617	29550.34	3.7640	3.7640	1.4170	26.06	0.07	0.750			
0.4660	29821.87	3.7610	3.7610	1.4435	26.05	0.06	0.750			
0.4704	30107.47	3.7580	3.7581	1.4629	26.03	0.04	0.750	0.324	0.403	
0.4749	30394.88	3.7550	3.7549	1.5028	26.02	0.03	0.750			
0.4794	30684.28	3.7520	3.7521	1.5227	26.02	0.03	0.750			
0.4840	30976.01	3.7490	3.7488	1.5540	26.01	0.02	0.750			
0.4887	31273.83	3.7460	3.7457	1.5934	26.00	0.01	0.750			
0.4935	31582.97	3.7430	3.7431	1.6387	25.98	-0.01	0.750			
0.4985	31901.50	3.7400	3.7401	1.6764	25.97	-0.02	0.750			
0.5036	32227.85	3.7370	3.7369	1.7164	25.96	-0.03	0.750			
0.5088	32562.22	3.7340	3.7339	1.7518	25.95	-0.04	0.750			
0.5141	32905.06	3.7310	3.7310	1.8019	25.93	-0.06	0.750			
0.5196	33251.31	3.7280	3.7280	1.8451	25.92	-0.07	0.750			
0.5251	33609.30	3.7250	3.7249	1.8944	25.90	-0.09	0.750			
0.5309	33977.76	3.7220	3.7221	1.9543	25.88	-0.11	0.750			
0.5369	34363.99	3.7190	3.7190	2.0184	25.87	-0.12	0.750			
0.5431	34755.55	3.7160	3.7159	2.0757	25.86	-0.13	0.750			
0.5494	35159.14	3.7130	3.7131	2.1317	25.84	-0.15	0.750			
0.5559	35575.29	3.7100	3.7100	2.2008	25.83	-0.16	0.750			
0.5625	36000.05	3.7070	3.7070	2.2670	25.81	-0.18	0.750			
0.5695	36445.25	3.7040	3.7041	2.3271	25.80	-0.19	0.750			
0.5766	36903.17	3.7010	3.7008	2.3791	25.78	-0.21	0.750			
0.5838	37363.61	3.6980	3.6979	2.4445	25.77	-0.22	0.750			
0.5912	37833.73	3.6950	3.6951	2.5116	25.75	-0.24	0.750			
0.5988	38320.81	3.6920	3.6919	2.6022	25.73	-0.26	0.750			
0.6066	38821.65	3.6890	3.6890	2.6835	25.71	-0.28	0.750			
0.6148	39348.32	3.6860	3.6861	2.7655	25.70	-0.29	0.750			
0.6234	39896.51	3.6830	3.6831	2.8827	25.69	-0.30	0.750			
0.6321	40454.53	3.6800	3.6800	2.9580	25.67	-0.32	0.750			
0.6411	41027.27	3.6770	3.6769	3.0670	25.66	-0.33	0.750			
0.6504	41626.23	3.6740	3.6739	3.1501	25.65	-0.34	0.750			
0.6601	42247.39	3.6710	3.6709	3.1819	25.64	-0.35	0.750			
0.6697	42858.62	3.6680	3.6680	3.1708	25.62	-0.37	0.750			
0.6793	43474.93	3.6650	3.6649	3.1636	25.63	-0.36	0.750			
0.6888	44081.98	3.6620	3.6619	3.0263	25.63	-0.36	0.750			
0.6980	44669.22	3.6590	3.6590	2.7989	25.63	-0.36	0.750			
0.7061	45190.50	3.6560	3.6559	2.5391	25.63	-0.36	0.750			
0.7131	45639.21	3.6530	3.6532	2.2658	25.63	-0.36	0.750			
0.7192	46028.19	3.6500	3.6499	2.0177	25.64	-0.35	0.750			
0.7247	46378.49	3.6470	3.6470	1.8043	25.64	-0.35	0.750			
0.7297	46702.85	3.6440	3.6439	1.6500	25.65	-0.34	0.750			
0.7345	47006.89	3.6410	3.6409	1.5356	25.65	-0.34	0.750			
0.7388	47286.31	3.6380	3.6381	1.4230	25.65	-0.34	0.750			
0.7428	47541.51	3.6350	3.6350	1.3428	25.66	-0.33	0.750			
0.7466	47785.07	3.6320	3.6319	1.2691	25.66	-0.33	0.750			
0.7502	48014.24	3.6290	3.6290	1.2314	25.66	-0.33	0.750			
0.7539	48248.65	3.6260	3.6259	1.2227	25.66	-0.33	0.750			
0.7575	48481.30	3.6230	3.6230	1.2111	25.66	-0.33	0.750			
0.7611	48711.39	3.6200	3.6200	1.2164	25.66	-0.33	0.750			
0.7648	48945.57	3.6170	3.6172	1.2238	25.67	-0.32	0.750			
0.7685	49181.60	3.6140	3.6140	1.2252	25.67	-0.32	0.750			
0.7722	49420.98	3.6110	3.6109	1.2151	25.68	-0.31	0.750			
0.7758	49652.82	3.6080	3.6081	1.2021	25.68	-0.31	0.750			
0.7794	49883.55	3.6050	3.6051	1.1960	25.69	-0.30	0.750			
0.7830	50110.95	3.6020	3.6020	1.1838	25.69	-0.30	0.750			
0.7864	50331.50	3.5990	3.5991	1.1812	25.69	-0.30	0.750			
0.7899	50555.00	3.5960	3.5960	1.1864	25.69	-0.30	0.750			
0.7935	50784.16	3.5930	3.5929	1.2005	25.70	-0.29	0.750			
0.7971	51016.76	3.5900	3.5900	1.2134	25.70	-0.29	0.750			
0.8008	51249.52	3.5870	3.5872	1.2461	25.69	-0.30	0.750			
0.8045	51488.92	3.5840	3.5840	1.2762	25.69	-0.30	0.750			
0.8084	51738.45	3.5810	3.5807	1.3078	25.68	-0.31	0.750			
0.8123	51987.07	3.5780	3.5781	1.3368	25.68	-0.31	0.750			
0.8164	52250.58	3.5750	3.5751	1.3882	25.68	-0.31	0.750			
0.8207	52523.88	3.5720	3.5720	1.4353	25.68	-0.31	0.750			
0.8250	52802.38	3.5690	3.5690	1.4600	25.68	-0.31	0.750			
0.8295	53089.28	3.5660	3.5660	1.4954	25.69	-0.30	0.750			
0.8342	53385.76	3.5630	3.5627	1.5250	25.69	-0.30	0.750			
0.8387	53679.13	3.5600	3.5600	1.5630	25.69	-0.30	0.750			
0.8435	53984.13	3.5570	3.5571	1.5706	25.68	-0.31	0.750			
0.8483	54291.24	3.5540	3.5541	1.5863	25.68	-0.31	0.750			
0.8530	54591.83	3.5510	3.5513	1.6094	25.69	-0.30	0.750			
0.8579	54904.25	3.5480	3.5480	1.6410	25.70	-0.29	0.750			
0.8628	55221.17	3.5450	3.5451	1.6549	25.70	-0.29	0.750			
0.8679	55546.60	3.5420	3.5421	1.6695	25.71	-0.28	0.750			
0.8729	55865.53	3.5390	3.5390	1.6806	25.71	-0.28	0.750			
0.8779	56187.74	3.5360	3.5359	1.7227	25.72	-0.27	0.750			
0.8833	56531.34	3.5330	3.5327	1.7200	25.72	-0.27	0.750			
0.8887	56877.60	3.5300	3.5297	1.6524	25.73	-0.26	0.750			
0.8941	57224.35	3.5270	3.5270	1.4941	25.74	-0.25	0.750			
0.8988	57521.65	3.5240	3.5245	1.3087	25.76	-0.23	0.750			
0.9023	57749.03	3.5210	3.5213	1.0555	25.78	-0.21	0.750			
0.9048	57907.33	3.5180	3.5177	0.7801	25.79	-0.20	0.750			
0.9061	57993.45	3.5150	3.5148	0.5550	25.80	-0.19	0.750			
0.9075	58077.49	3.5120	3.5117	0.4481	25.80	-0.19	0.750			
0.9085	58143.30	3.5090	3.5090	0.3829	25.81	-0.18	0.750			
0.9095	58211.18	3.5060	3.5060	0.3509	25.81	-0.18	0.750			
0.9105	58274.60	3.5030	3.5029	0.3284	25.82	-0.17	0.750			
0.9115	58335.53	3.5000	3.5001	0.3122	25.83	-0.16	0.750			
0.9124	58392.96	3.4970	3.4970	0.2993	25.83	-0.16	0.750			
0.9133	58448.70	3.4940	3.4940	0.2887	25.84	-0.15	0.750			
0.9141	58502.28	3.4910	3.4909	0.2815	25.85	-0.14	0.750			
0.9149	58555.17	3.4880	3.4880	0.2754	25.85	-0.14	0.750			
0.9157	58607.82	3.4850	3.4850	0.2706	25.86	-0.13	0.750			
0.9166	58659.50	3.4820	3.4821	0.2649	25.86	-0.13	0.750			
0.9173	58710.19	3.4790	3.4790	0.2602	25.87	-0.12	0.750			
0.9181	58759.66	3.4760	3.4760	0.2543	25.87	-0.12	0.750			
0.9189	58807.76	3.4730	3.4729	0.2480	25.88	-0.11	0.750			
0.9196	58853.99	3.4700	3.4700	0.2428	25.89	-0.10	0.750			
0.9203	58900.33	3.4670	3.4671	0.2394	25.89	-0.10	0.750			
0.9210	58945.92	3.4640	3.4640	0.2356	25.90	-0.09	0.750			
0.9217	58990.82	3.4610	3.4609	0.2320	25.90	-0.09	0.750			
0.9224	59035.14	3.4580	3.4580	0.2282	25.91	-0.08	0.750			
0.9231	59078.59	3.4550	3.4550	0.2238	25.91	-0.08	0.750			
0.9238	59121.41	3.4520	3.4520	0.2207	25.92	-0.07	0.750			
0.9244	59163.34	3.4490	3.4490	0.2161	25.92	-0.07	0.750			
0.9251	59204.22	3.4460	3.4460	0.2111	25.92	-0.07	0.750			
0.9257	59244.48	3.4430	3.4430	0.2065	25.93	-0.06	0.750			
0.9263	59283.60	3.4400	3.4400	0.2021	25.93	-0.06	0.750			
0.9269	59321.96	3.4370	3.4371	0.1975	25.94	-0.05	0.750			
0.9275	59359.49	3.4340	3.4340	0.1929	25.94	-0.05	0.750			
0.9281	59396.05	3.4310	3.4309	0.1883	25.95	-0.04	0.750			
0.9286	59431.41	3.4280	3.4281	0.1837	25.95	-0.04	0.750			
0.9292	59466.33	3.4250	3.4250	0.1800	25.95	-0.04	0.750			
0.9297	59500.54	3.4220	3.4220	0.1763	25.96	-0.03	0.750			
0.9302	59534.30	3.4190	3.4189	0.1716	25.96	-0.03	0.750			
0.9307	59567.02	3.4160	3.4160	0.1668	25.97	-0.02	0.750			
0.9312	59598.55	3.4130	3.4131	0.1616	25.97	-0.02	0.750			
0.9317	59629.33	3.4100	3.4101	0.1570	25.97	-0.02	0.750			
0.9322	59658.96	3.4070	3.4069	0.1518	25.98	-0.01	0.750			
0.9326	59687.23	3.4040	3.4040	0.1460	25.98	-0.01	0.750			
0.9330	59714.81	3.4010	3.4009	0.1413	25.98	-0.01	0.750			
0.9335	59741.62	3.3980	3.3980	0.1357	25.99	-0.00	0.750			
0.9339	59767.48	3.3950	3.3950	0.1310	25.99	-0.00	0.750			
0.9343	59792.24	3.3920	3.3921	0.1255	25.99	0.00	0.750			
0.9346	59815.76	3.3890	3.3891	0.1194	25.99	0.00	0.750			
0.9350	59838.39	3.3860	3.3859	0.1126	26.00	0.01	0.750			
0.9353	59859.56	3.3830	3.3830	0.1062	26.00	0.01	0.750			
0.9356	59879.99	3.3800	3.3799	0.0976	26.00	0.01	0.750			
0.9359	59898.15	3.3770	3.3770	0.0899	26.00	0.01	0.750			
0.9362	59914.57	3.3740	3.3741	0.0811	26.00	0.01	0.750			
0.9364	59930.08	3.3710	3.3710	0.0731	26.01	0.02	0.750			
0.9366	59943.18	3.3680	3.3683	0.0634	26.01	0.02	0.750			
0.9368	59954.60	3.3650	3.3656	0.0536	26.01	0.02	0.750			
0.9369	59963.93	3.3620	3.3627	0.0436	26.01	0.02	0.750			
0.9371	59971.34	3.3590	3.3599	0.0336	26.01	0.02	0.750			
