Ah_balance (normalized)	Ah_balance (mAh)	Voltage - fit (V)	Voltage -  interpolate (V)	dQ/dV (1/V)	Temperature (°C)	Temperature - diff (°C)	Current (C)	R_DC 0ms (mOhm)	R_DC 50ms (mOhm)	R_DC 50 ms PEC (mOhm)
0.0001	8.68	4.1570	4.1568	-0.0901	25.04	0.01	-0.750			
0.0005	29.43	4.1540	4.1538	-0.1260	25.04	0.01	-0.750			
0.0009	57.04	4.1510	4.1509	-0.1617	25.04	0.01	-0.750			
0.0014	91.44	4.1480	4.1481	-0.1980	25.04	0.01	-0.750			
0.0021	133.49	4.1450	4.1450	-0.2324	25.04	0.01	-0.750			
0.0028	181.61	4.1420	4.1420	-0.2650	25.04	0.01	-0.750			
0.0037	236.38	4.1390	4.1391	-0.2976	25.04	0.01	-0.750			
0.0046	296.66	4.1360	4.1361	-0.3288	25.04	0.01	-0.750			
0.0057	363.28	4.1330	4.1330	-0.3586	25.04	0.01	-0.750			
0.0068	434.99	4.1300	4.1299	-0.3859	25.03	0.00	-0.750			
0.0080	511.35	4.1270	4.1271	-0.4142	25.03	0.00	-0.750			
0.0093	595.09	4.1240	4.1240	-0.4366	25.03	0.00	-0.750			
0.0107	681.77	4.1210	4.1210	-0.4621	25.03	0.00	-0.750			
0.0121	772.97	4.1180	4.1180	-0.4818	25.03	-0.00	-0.750			
0.0136	867.97	4.1150	4.1150	-0.5002	25.03	-0.00	-0.750			
0.0151	965.94	4.1120	4.1119	-0.5183	25.03	-0.00	-0.750			
0.0167	1067.64	4.1090	4.1091	-0.5343	25.03	-0.00	-0.750			
0.0183	1171.27	4.1060	4.1060	-0.5490	25.02	-0.01	-0.750			
0.0200	1279.68	4.1030	4.1030	-0.5638	25.02	-0.01	-0.750			
0.0217	1388.68	4.1000	4.1001	-0.5723	25.02	-0.01	-0.750			
0.0235	1501.11	4.0970	4.0970	-0.5823	25.02	-0.01	-0.750			
0.0252	1613.36	4.0940	4.0940	-0.5903	25.02	-0.01	-0.750			
0.0270	1726.77	4.0910	4.0911	-0.5974	25.02	-0.01	-0.750			
0.0288	1842.05	4.0880	4.0880	-0.6063	25.02	-0.01	-0.750			
0.0306	1959.07	4.0850	4.0850	-0.6158	25.02	-0.01	-0.750			
0.0325	2079.29	4.0820	4.0819	-0.6242	25.02	-0.01	-0.750			
0.0344	2200.99	4.0790	4.0790	-0.6319	25.02	-0.01	-0.750			
0.0363	2322.98	4.0760	4.0760	-0.6385	25.02	-0.01	-0.750			
0.0382	2445.95	4.0730	4.0730	-0.6415	25.02	-0.01	-0.750			
0.0402	2569.87	4.0700	4.0700	-0.6449	25.02	-0.01	-0.750			
0.0421	2692.63	4.0670	4.0670	-0.6490	25.02	-0.01	-0.750			
0.0440	2817.33	4.0640	4.0640	-0.6566	25.03	-0.00	-0.750			
0.0460	2946.10	4.0610	4.0610	-0.6643	25.03	-0.00	-0.750			
0.0480	3074.26	4.0580	4.0579	-0.6680	25.03	-0.00	-0.750			
0.0501	3203.97	4.0550	4.0551	-0.6711	25.03	0.00	-0.750			
0.0521	3333.70	4.0520	4.0521	-0.6750	25.03	0.00	-0.750			
0.0541	3461.84	4.0490	4.0490	-0.6757	25.03	0.00	-0.750			
0.0561	3589.76	4.0460	4.0460	-0.6761	25.04	0.01	-0.750			
0.0582	3722.08	4.0430	4.0430	-0.6834	25.04	0.01	-0.750			
0.0602	3853.40	4.0400	4.0398	-0.6855	25.04	0.01	-0.750			
0.0623	3984.93	4.0370	4.0373	-0.6860	25.04	0.01	-0.750			
0.0644	4118.59	4.0340	4.0340	-0.6863	25.04	0.01	-0.750			
0.0664	4248.65	4.0310	4.0310	-0.6909	25.04	0.01	-0.750			
0.0685	4381.93	4.0280	4.0280	-0.6948	25.05	0.02	-0.750			
0.0705	4514.65	4.0250	4.0250	-0.6942	25.05	0.02	-0.750			
0.0726	4648.84	4.0220	4.0219	-0.6970	25.05	0.02	-0.750			
0.0747	4783.10	4.0190	4.0193	-0.6998	25.05	0.02	-0.750			
0.0769	4918.43	4.0160	4.0159	-0.6983	25.05	0.02	-0.750			
0.0789	5051.12	4.0130	4.0130	-0.7063	25.06	0.03	-0.750			
0.0810	5186.19	4.0100	4.0100	-0.7049	25.06	0.03	-0.750			
0.0832	5322.14	4.0070	4.0070	-0.7097	25.06	0.03	-0.750			
0.0853	5459.69	4.0040	4.0040	-0.7117	25.07	0.04	-0.750			
0.0875	5596.98	4.0010	4.0011	-0.7140	25.07	0.04	-0.750			
0.0896	5733.96	3.9980	3.9980	-0.7158	25.07	0.04	-0.750			
0.0917	5870.75	3.9950	3.9950	-0.7214	25.08	0.05	-0.750			
0.0939	6008.48	3.9920	3.9920	-0.7211	25.08	0.05	-0.750			
0.0961	6149.97	3.9890	3.9889	-0.7250	25.08	0.05	-0.750			
0.0983	6288.85	3.9860	3.9860	-0.7232	25.09	0.06	-0.750			
0.1004	6428.58	3.9830	3.9831	-0.7246	25.09	0.06	-0.750			
0.1026	6565.97	3.9800	3.9800	-0.7270	25.10	0.07	-0.750			
0.1048	6704.43	3.9770	3.9770	-0.7340	25.10	0.07	-0.750			
0.1070	6846.72	3.9740	3.9739	-0.7359	25.11	0.08	-0.750			
0.1092	6990.68	3.9710	3.9709	-0.7368	25.11	0.08	-0.750			
0.1115	7134.34	3.9680	3.9681	-0.7415	25.12	0.09	-0.750			
0.1137	7275.86	3.9650	3.9649	-0.7385	25.12	0.09	-0.750			
0.1159	7416.59	3.9620	3.9619	-0.7345	25.13	0.10	-0.750			
0.1181	7555.31	3.9590	3.9590	-0.7390	25.13	0.10	-0.750			
0.1203	7696.54	3.9560	3.9561	-0.7374	25.13	0.10	-0.750			
0.1225	7842.98	3.9530	3.9529	-0.7485	25.14	0.11	-0.750			
0.1248	7986.12	3.9500	3.9502	-0.7483	25.14	0.11	-0.750			
0.1270	8128.74	3.9470	3.9470	-0.7514	25.14	0.11	-0.750			
0.1293	8274.66	3.9440	3.9439	-0.7535	25.14	0.11	-0.750			
0.1316	8420.39	3.9410	3.9409	-0.7498	25.15	0.12	-0.750			
0.1338	8564.64	3.9380	3.9381	-0.7543	25.15	0.12	-0.750			
0.1361	8709.54	3.9350	3.9351	-0.7556	25.15	0.12	-0.750			
0.1383	8854.01	3.9320	3.9318	-0.7564	25.15	0.12	-0.750			
0.1406	8998.78	3.9290	3.9289	-0.7604	25.16	0.13	-0.750			
0.1429	9142.98	3.9260	3.9261	-0.7596	25.16	0.13	-0.750			
0.1452	9290.44	3.9230	3.9230	-0.7633	25.16	0.13	-0.750			
0.1475	9439.33	3.9200	3.9200	-0.7701	25.17	0.14	-0.750			
0.1498	9585.90	3.9170	3.9173	-0.7679	25.17	0.14	-0.750			
0.1521	9734.19	3.9140	3.9139	-0.7704	25.17	0.14	-0.750			
0.1544	9882.28	3.9110	3.9110	-0.7726	25.18	0.15	-0.750			
0.1567	10031.36	3.9080	3.9080	-0.7736	25.18	0.15	-0.750			
0.1591	10180.85	3.9050	3.9049	-0.7752	25.19	0.16	-0.750			
0.1614	10329.41	3.9020	3.9019	-0.7755	25.19	0.16	-0.750			
0.1637	10477.24	3.8990	3.8990	-0.7730	25.19	0.16	-0.750			
0.1660	10625.24	3.8960	3.8960	-0.7774	25.19	0.16	-0.750			
0.1684	10775.24	3.8930	3.8930	-0.7781	25.20	0.17	-0.750			
0.1707	10925.03	3.8900	3.8900	-0.7767	25.20	0.17	-0.750			
0.1731	11075.36	3.8870	3.8869	-0.7801	25.20	0.17	-0.750			
0.1754	11226.15	3.8840	3.8842	-0.7738	25.20	0.17	-0.750			
0.1777	11372.11	3.8810	3.8810	-0.7765	25.21	0.18	-0.750			
0.1800	11520.70	3.8780	3.8781	-0.7810	25.21	0.18	-0.750			
0.1823	11669.52	3.8750	3.8750	-0.7798	25.21	0.18	-0.750			
0.1847	11821.33	3.8720	3.8719	-0.7838	25.22	0.19	-0.750			
0.1871	11974.01	3.8690	3.8693	-0.7856	25.22	0.19	-0.750			
0.1894	12124.09	3.8660	3.8660	-0.7855	25.22	0.19	-0.750			
0.1918	12276.51	3.8630	3.8630	-0.7902	25.23	0.20	-0.750			
0.1942	12425.93	3.8600	3.8599	-0.7833	25.23	0.20	-0.750			
0.1965	12576.47	3.8570	3.8569	-0.7815	25.24	0.21	-0.750			
0.1989	12727.09	3.8540	3.8539	-0.7832	25.24	0.21	-0.750			
0.2012	12878.22	3.8510	3.8510	-0.7833	25.24	0.21	-0.750			
0.2035	13027.16	3.8480	3.8480	-0.7824	25.25	0.22	-0.750			
0.2059	13177.06	3.8450	3.8450	-0.7777	25.25	0.22	-0.750			
0.2082	13326.62	3.8420	3.8420	-0.7775	25.25	0.22	-0.750			
0.2106	13476.91	3.8390	3.8389	-0.7783	25.26	0.23	-0.750			
0.2129	13626.36	3.8360	3.8362	-0.7750	25.26	0.23	-0.750			
0.2152	13773.62	3.8330	3.8329	-0.7731	25.26	0.23	-0.750			
0.2175	13922.45	3.8300	3.8300	-0.7709	25.26	0.23	-0.750			
0.2198	14069.62	3.8270	3.8270	-0.7652	25.27	0.24	-0.750			
0.2222	14217.85	3.8240	3.8240	-0.7625	25.27	0.24	-0.750			
0.2244	14363.67	3.8210	3.8212	-0.7618	25.27	0.24	-0.750			
0.2267	14509.16	3.8180	3.8180	-0.7607	25.27	0.24	-0.750			
0.2290	14654.31	3.8150	3.8150	-0.7627	25.27	0.24	-0.750			
0.2313	14801.85	3.8120	3.8119	-0.7576	25.28	0.25	-0.750			
0.2336	14948.02	3.8090	3.8090	-0.7582	25.28	0.25	-0.750			
0.2358	15093.66	3.8060	3.8060	-0.7524	25.28	0.25	-0.750			
0.2381	15238.14	3.8030	3.8031	-0.7465	25.28	0.25	-0.750			
0.2403	15379.40	3.8000	3.7999	-0.7407	25.29	0.26	-0.750			
0.2425	15521.49	3.7970	3.7969	-0.7400	25.29	0.26	-0.750			
0.2447	15661.95	3.7940	3.7940	-0.7362	25.29	0.26	-0.750			
0.2469	15804.63	3.7910	3.7910	-0.7354	25.30	0.27	-0.750			
0.2492	15946.10	3.7880	3.7881	-0.7315	25.30	0.27	-0.750			
0.2514	16086.98	3.7850	3.7849	-0.7264	25.30	0.27	-0.750			
0.2535	16225.41	3.7820	3.7820	-0.7214	25.31	0.28	-0.750			
0.2557	16362.25	3.7790	3.7790	-0.7228	25.31	0.28	-0.750			
0.2578	16499.82	3.7760	3.7759	-0.7217	25.31	0.28	-0.750			
0.2600	16639.92	3.7730	3.7729	-0.7211	25.32	0.29	-0.750			
0.2622	16778.58	3.7700	3.7702	-0.7203	25.32	0.29	-0.750			
0.2643	16917.47	3.7670	3.7670	-0.7207	25.32	0.29	-0.750			
0.2665	17055.24	3.7640	3.7641	-0.7218	25.33	0.30	-0.750			
0.2686	17191.24	3.7610	3.7609	-0.7219	25.33	0.30	-0.750			
0.2708	17330.55	3.7580	3.7580	-0.7249	25.33	0.30	-0.750			
0.2730	17470.03	3.7550	3.7549	-0.7298	25.34	0.31	-0.750			
0.2752	17610.97	3.7520	3.7521	-0.7376	25.34	0.31	-0.750			
0.2774	17753.00	3.7490	3.7489	-0.7397	25.34	0.31	-0.750			
0.2796	17894.38	3.7460	3.7460	-0.7484	25.34	0.31	-0.750			
0.2818	18037.61	3.7430	3.7430	-0.7539	25.34	0.31	-0.750			
0.2841	18184.79	3.7400	3.7400	-0.7607	25.34	0.31	-0.750			
0.2864	18332.64	3.7370	3.7367	-0.7659	25.34	0.31	-0.750			
0.2887	18478.53	3.7340	3.7341	-0.7772	25.34	0.31	-0.750			
0.2911	18627.28	3.7310	3.7310	-0.7955	25.34	0.31	-0.750			
0.2935	18781.48	3.7280	3.7279	-0.8008	25.34	0.31	-0.750			
0.2959	18934.45	3.7250	3.7249	-0.8071	25.34	0.31	-0.750			
0.2983	19093.22	3.7220	3.7222	-0.8226	25.34	0.31	-0.750			
0.3008	19252.78	3.7190	3.7188	-0.8368	25.34	0.31	-0.750			
0.3033	19414.15	3.7160	3.7160	-0.8520	25.34	0.31	-0.750			
0.3059	19576.95	3.7130	3.7129	-0.8642	25.34	0.31	-0.750			
0.3085	19743.67	3.7100	3.7100	-0.8762	25.34	0.31	-0.750			
0.3112	19916.91	3.7070	3.7068	-0.8964	25.34	0.31	-0.750			
0.3139	20089.73	3.7040	3.7039	-0.9117	25.34	0.31	-0.750			
0.3167	20266.92	3.7010	3.7009	-0.9192	25.34	0.31	-0.750			
0.3194	20440.72	3.6980	3.6981	-0.9365	25.34	0.31	-0.750			
0.3222	20620.22	3.6950	3.6951	-0.9531	25.34	0.31	-0.750			
0.3251	20806.41	3.6920	3.6920	-0.9768	25.34	0.31	-0.750			
0.3281	20997.50	3.6890	3.6889	-0.9960	25.33	0.30	-0.750			
0.3311	21189.97	3.6860	3.6861	-1.0130	25.33	0.30	-0.750			
0.3342	21386.29	3.6830	3.6829	-1.0305	25.32	0.29	-0.750			
0.3373	21587.32	3.6800	3.6803	-1.0528	25.32	0.29	-0.750			
0.3405	21789.27	3.6770	3.6769	-1.0629	25.31	0.28	-0.750			
0.3437	21994.44	3.6740	3.6740	-1.0818	25.31	0.28	-0.750			
0.3469	22204.52	3.6710	3.6708	-1.0988	25.30	0.27	-0.750			
0.3503	22419.95	3.6680	3.6681	-1.1133	25.30	0.27	-0.750			
0.3537	22634.18	3.6650	3.6650	-1.1233	25.29	0.26	-0.750			
0.3570	22849.46	3.6620	3.6620	-1.1429	25.29	0.26	-0.750			
0.3604	23067.69	3.6590	3.6589	-1.1755	25.28	0.25	-0.750			
0.3640	23294.67	3.6560	3.6557	-1.1968	25.28	0.25	-0.750			
0.3676	23525.43	3.6530	3.6530	-1.2283	25.27	0.24	-0.750			
0.3713	23766.00	3.6500	3.6501	-1.2552	25.27	0.24	-0.750			
0.3752	24010.55	3.6470	3.6472	-1.2799	25.26	0.23	-0.750			
0.3792	24266.06	3.6440	3.6439	-1.3064	25.25	0.22	-0.750			
0.3830	24514.53	3.6410	3.6410	-1.3143	25.24	0.21	-0.750			
0.3870	24768.14	3.6380	3.6382	-1.3394	25.23	0.20	-0.750			
0.3911	25028.63	3.6350	3.6350	-1.3650	25.23	0.20	-0.750			
0.3952	25290.81	3.6320	3.6318	-1.3797	25.22	0.19	-0.750			
0.3994	25560.70	3.6290	3.6292	-1.4070	25.22	0.19	-0.750			
0.4036	25827.95	3.6260	3.6260	-1.4626	25.21	0.18	-0.750			
0.4080	26112.24	3.6230	3.6229	-1.5062	25.21	0.18	-0.750			
0.4126	26404.73	3.6200	3.6200	-1.5487	25.20	0.17	-0.750			
0.4174	26714.50	3.6170	3.6173	-1.5819	25.19	0.16	-0.750			
0.4222	27023.21	3.6140	3.6139	-1.6061	25.18	0.15	-0.750			
0.4271	27333.87	3.6110	3.6112	-1.6266	25.18	0.15	-0.750	0.402	0.578	
0.4320	27647.09	3.6080	3.6079	-1.6536	25.18	0.15	-0.750			
0.4369	27959.55	3.6050	3.6052	-1.6566	25.18	0.15	-0.750			
0.4418	28277.24	3.6020	3.6020	-1.6758	25.17	0.14	-0.750			
0.4469	28601.81	3.5990	3.5990	-1.7128	25.16	0.13	-0.750			
0.4522	28937.99	3.5960	3.5959	-1.7537	25.16	0.13	-0.750			
0.4575	29278.76	3.5930	3.5929	-1.7881	25.15	0.12	-0.750			
0.4629	29625.15	3.5900	3.5900	-1.8131	25.15	0.12	-0.750			
0.4684	29978.85	3.5870	3.5872	-1.8591	25.14	0.11	-0.750			
0.4740	30336.87	3.5840	3.5840	-1.8703	25.14	0.11	-0.750			
0.4797	30698.75	3.5810	3.5811	-1.9007	25.14	0.11	-0.750			
0.4854	31063.67	3.5780	3.5779	-1.9310	25.14	0.11	-0.750			
0.4912	31438.27	3.5750	3.5751	-1.9723	25.14	0.11	-0.750			
0.4972	31821.31	3.5720	3.5718	-2.0057	25.14	0.11	-0.750			
0.5033	32208.30	3.5690	3.5691	-2.0238	25.14	0.11	-0.750			
0.5094	32601.13	3.5660	3.5659	-2.0443	25.14	0.11	-0.750			
0.5156	32998.78	3.5630	3.5631	-2.0500	25.14	0.11	-0.750			
0.5218	33395.33	3.5600	3.5600	-2.0564	25.14	0.11	-0.750			
0.5279	33786.97	3.5570	3.5569	-2.0750	25.14	0.11	-0.750			
0.5342	34187.54	3.5540	3.5539	-2.0910	25.14	0.11	-0.750			
0.5405	34595.08	3.5510	3.5512	-2.0989	25.14	0.11	-0.750			
0.5469	34999.71	3.5480	3.5480	-2.1055	25.14	0.11	-0.750			
0.5532	35405.81	3.5450	3.5451	-2.0858	25.14	0.11	-0.750			
0.5596	35812.64	3.5420	3.5420	-2.0643	25.14	0.11	-0.750			
0.5657	36206.52	3.5390	3.5390	-2.0479	25.14	0.11	-0.750			
0.5717	36591.22	3.5360	3.5361	-2.0157	25.15	0.12	-0.750			
0.5778	36977.37	3.5330	3.5328	-2.0007	25.15	0.12	-0.750			
0.5838	37360.79	3.5300	3.5300	-1.9750	25.15	0.12	-0.750			
0.5896	37735.98	3.5270	3.5272	-1.9508	25.15	0.12	-0.750			
0.5955	38113.28	3.5240	3.5240	-1.9351	25.16	0.13	-0.750			
0.6012	38479.65	3.5210	3.5209	-1.8958	25.17	0.14	-0.750			
0.6069	38840.61	3.5180	3.5181	-1.8493	25.18	0.15	-0.750			
0.6124	39194.85	3.5150	3.5150	-1.8288	25.18	0.15	-0.750			
0.6178	39541.16	3.5120	3.5119	-1.7750	25.19	0.16	-0.750			
0.6231	39880.09	3.5090	3.5090	-1.7421	25.20	0.17	-0.750			
0.6282	40206.55	3.5060	3.5060	-1.6947	25.21	0.18	-0.750			
0.6332	40527.87	3.5030	3.5029	-1.6472	25.22	0.19	-0.750			
0.6381	40841.38	3.5000	3.5000	-1.5956	25.23	0.20	-0.750			
0.6429	41147.24	3.4970	3.4969	-1.5518	25.24	0.21	-0.750			
0.6475	41437.90	3.4940	3.4941	-1.4982	25.26	0.23	-0.750			
0.6519	41723.47	3.4910	3.4909	-1.4548	25.27	0.24	-0.750			
0.6561	41992.86	3.4880	3.4880	-1.4013	25.28	0.25	-0.750			
0.6603	42256.38	3.4850	3.4848	-1.3596	25.29	0.26	-0.750			
0.6643	42516.15	3.4820	3.4820	-1.3227	25.31	0.28	-0.750			
0.6682	42767.10	3.4790	3.4790	-1.2871	25.32	0.29	-0.750			
0.6720	43009.53	3.4760	3.4760	-1.2500	25.33	0.30	-0.750			
0.6757	43243.94	3.4730	3.4731	-1.2087	25.34	0.31	-0.750			
0.6793	43476.19	3.4700	3.4699	-1.1784	25.36	0.33	-0.750			
0.6828	43698.46	3.4670	3.4670	-1.1420	25.37	0.34	-0.750			
0.6862	43914.04	3.4640	3.4640	-1.1041	25.38	0.35	-0.750			
0.6894	44122.48	3.4610	3.4609	-1.0753	25.39	0.36	-0.750			
0.6926	44325.15	3.4580	3.4580	-1.0377	25.40	0.37	-0.750			
0.6956	44520.96	3.4550	3.4550	-1.0058	25.41	0.38	-0.750			
0.6986	44710.45	3.4520	3.4519	-0.9749	25.42	0.39	-0.750			
0.7015	44895.26	3.4490	3.4490	-0.9513	25.43	0.40	-0.750			
0.7043	45074.13	3.4460	3.4460	-0.9260	25.44	0.41	-0.750			
0.7070	45248.19	3.4430	3.4430	-0.9033	25.46	0.43	-0.750			
0.7097	45418.67	3.4400	3.4400	-0.8820	25.47	0.44	-0.750			
0.7123	45587.21	3.4370	3.4371	-0.8700	25.48	0.45	-0.750			
0.7149	45751.32	3.4340	3.4340	-0.8574	25.49	0.46	-0.750			
0.7174	45913.51	3.4310	3.4310	-0.8508	25.50	0.47	-0.750			
0.7199	46075.71	3.4280	3.4279	-0.8446	25.51	0.48	-0.750			
0.7225	46236.86	3.4250	3.4250	-0.8410	25.52	0.49	-0.750			
0.7250	46398.72	3.4220	3.4221	-0.8416	25.53	0.50	-0.750			
0.7275	46560.90	3.4190	3.4189	-0.8435	25.54	0.51	-0.750			
0.7300	46722.75	3.4160	3.4160	-0.8464	25.55	0.52	-0.750			
0.7326	46884.13	3.4130	3.4131	-0.8462	25.56	0.53	-0.750			
0.7351	47048.48	3.4100	3.4099	-0.8492	25.56	0.53	-0.750			
0.7377	47212.30	3.4070	3.4071	-0.8476	25.57	0.54	-0.750			
0.7402	47374.41	3.4040	3.4040	-0.8474	25.58	0.55	-0.750			
0.7428	47537.93	3.4010	3.4010	-0.8387	25.58	0.55	-0.750			
0.7453	47698.94	3.3980	3.3980	-0.8268	25.59	0.56	-0.750			
0.7478	47859.42	3.3950	3.3949	-0.8174	25.60	0.57	-0.750			
0.7502	48014.76	3.3920	3.3921	-0.8013	25.60	0.57	-0.750			
0.7526	48167.21	3.3890	3.3890	-0.7829	25.61	0.58	-0.750			
0.7549	48315.82	3.3860	3.3859	-0.7618	25.62	0.59	-0.750			
0.7572	48458.48	3.3830	3.3830	-0.7397	25.62	0.59	-0.750			
0.7594	48601.18	3.3800	3.3800	-0.7234	25.63	0.60	-0.750			
0.7615	48738.46	3.3770	3.3771	-0.7023	25.64	0.61	-0.750			
0.7636	48870.84	3.3740	3.3740	-0.6804	25.65	0.62	-0.750			
0.7656	48998.34	3.3710	3.3710	-0.6590	25.65	0.62	-0.750			
0.7675	49122.84	3.3680	3.3680	-0.6411	25.66	0.63	-0.750			
0.7694	49243.80	3.3650	3.3650	-0.6208	25.67	0.64	-0.750			
0.7713	49361.51	3.3620	3.3620	-0.5990	25.68	0.65	-0.750			
0.7730	49475.11	3.3590	3.3589	-0.5798	25.68	0.65	-0.750			
0.7748	49584.57	3.3560	3.3561	-0.5607	25.69	0.66	-0.750			
0.7764	49689.95	3.3530	3.3529	-0.5415	25.70	0.67	-0.750			
0.7780	49790.84	3.3500	3.3500	-0.5228	25.71	0.68	-0.750			
0.7795	49889.50	3.3470	3.3470	-0.5081	25.71	0.68	-0.750			
0.7810	49985.89	3.3440	3.3440	-0.4933	25.72	0.69	-0.750			
0.7825	50079.17	3.3410	3.3410	-0.4813	25.73	0.70	-0.750			
0.7839	50170.62	3.3380	3.3380	-0.4653	25.74	0.71	-0.750			
0.7853	50257.95	3.3350	3.3351	-0.4528	25.74	0.71	-0.750			
0.7866	50343.92	3.3320	3.3320	-0.4380	25.75	0.72	-0.750			
0.7879	50426.45	3.3290	3.3289	-0.4258	25.75	0.72	-0.750			
0.7892	50506.36	3.3260	3.3260	-0.4124	25.76	0.73	-0.750			
0.7904	50584.10	3.3230	3.3231	-0.4018	25.77	0.74	-0.750			
0.7916	50659.40	3.3200	3.3200	-0.3905	25.77	0.74	-0.750			
0.7927	50734.53	3.3170	3.3170	-0.3844	25.78	0.75	-0.750			
0.7939	50806.73	3.3140	3.3140	-0.3744	25.78	0.75	-0.750			
0.7950	50878.62	3.3110	3.3109	-0.3662	25.79	0.76	-0.750			
0.7961	50947.64	3.3080	3.3080	-0.3557	25.79	0.76	-0.750			
0.7971	51015.38	3.3050	3.3050	-0.3468	25.80	0.77	-0.750			
0.7981	51080.87	3.3020	3.3020	-0.3363	25.80	0.77	-0.750			
0.7991	51143.96	3.2990	3.2990	-0.3281	25.81	0.78	-0.750			
0.8001	51205.42	3.2960	3.2960	-0.3221	25.81	0.78	-0.750			
0.8010	51266.84	3.2930	3.2929	-0.3151	25.82	0.79	-0.750			
0.8020	51326.85	3.2900	3.2900	-0.3106	25.82	0.79	-0.750			
0.8029	51385.72	3.2870	3.2871	-0.3052	25.83	0.80	-0.750			
0.8038	51444.23	3.2840	3.2839	-0.2988	25.83	0.80	-0.750			
0.8047	51501.10	3.2810	3.2810	-0.2947	25.84	0.81	-0.750			
0.8056	51556.87	3.2780	3.2780	-0.2887	25.84	0.81	-0.750			
0.8064	51611.82	3.2750	3.2751	-0.2823	25.84	0.81	-0.750			
0.8073	51665.82	3.2720	3.2718	-0.2780	25.85	0.82	-0.750			
0.8081	51718.02	3.2690	3.2691	-0.2724	25.85	0.82	-0.750			
0.8089	51769.85	3.2660	3.2660	-0.2692	25.86	0.83	-0.750			
0.8097	51821.06	3.2630	3.2630	-0.2646	25.86	0.83	-0.750			
0.8105	51871.78	3.2600	3.2599	-0.2613	25.86	0.83	-0.750			
0.8113	51921.34	3.2570	3.2570	-0.2575	25.87	0.84	-0.750			
0.8120	51970.51	3.2540	3.2541	-0.2543	25.87	0.84	-0.750			
0.8128	52019.07	3.2510	3.2510	-0.2503	25.88	0.85	-0.750			
0.8135	52066.66	3.2480	3.2480	-0.2450	25.88	0.85	-0.750			
0.8143	52112.85	3.2450	3.2451	-0.2419	25.89	0.86	-0.750			
0.8150	52158.99	3.2420	3.2420	-0.2398	25.90	0.87	-0.750			
0.8157	52204.52	3.2390	3.2390	-0.2363	25.90	0.87	-0.750			
0.8164	52249.57	3.2360	3.2359	-0.2339	25.91	0.88	-0.750			
0.8171	52294.25	3.2330	3.2331	-0.2313	25.91	0.88	-0.750			
0.8178	52338.52	3.2300	3.2302	-0.2292	25.92	0.89	-0.750			
0.8185	52382.75	3.2270	3.2270	-0.2271	25.92	0.89	-0.750			
0.8192	52426.47	3.2240	3.2240	-0.2246	25.93	0.90	-0.750			
0.8198	52468.79	3.2210	3.2210	-0.2206	25.94	0.91	-0.750			
0.8205	52510.93	3.2180	3.2180	-0.2182	25.94	0.91	-0.750			
0.8211	52552.75	3.2150	3.2150	-0.2155	25.95	0.92	-0.750			
0.8218	52593.83	3.2120	3.2120	-0.2124	25.95	0.92	-0.750			
0.8224	52634.13	3.2090	3.2090	-0.2102	25.96	0.93	-0.750			
0.8230	52674.02	3.2060	3.2060	-0.2077	25.96	0.93	-0.750			
0.8237	52713.86	3.2030	3.2029	-0.2054	25.97	0.94	-0.750			
0.8243	52753.07	3.2000	3.2000	-0.2031	25.97	0.94	-0.750			
0.8249	52791.94	3.1970	3.1971	-0.2007	25.97	0.94	-0.750			
0.8255	52830.18	3.1940	3.1940	-0.1984	25.98	0.95	-0.750			
0.8261	52868.07	3.1910	3.1910	-0.1965	25.99	0.96	-0.750			
0.8266	52905.28	3.1880	3.1879	-0.1937	25.99	0.96	-0.750			
0.8272	52942.30	3.1850	3.1851	-0.1922	26.00	0.97	-0.750			
0.8278	52979.04	3.1820	3.1820	-0.1906	26.00	0.97	-0.750			
0.8284	53015.55	3.1790	3.1790	-0.1892	26.01	0.98	-0.750			
0.8289	53051.72	3.1760	3.1760	-0.1876	26.01	0.98	-0.750			
0.8295	53087.65	3.1730	3.1730	-0.1857	26.02	0.99	-0.750			
0.8300	53123.19	3.1700	3.1700	-0.1838	26.03	1.00	-0.750			
0.8306	53158.21	3.1670	3.1670	-0.1821	26.03	1.00	-0.750			
0.8311	53192.99	3.1640	3.1640	-0.1802	26.04	1.01	-0.750			
0.8317	53227.36	3.1610	3.1610	-0.1785	26.04	1.01	-0.750			
0.8322	53261.47	3.1580	3.1580	-0.1767	26.05	1.02	-0.750			
0.8327	53295.32	3.1550	3.1551	-0.1745	26.05	1.02	-0.750			
0.8333	53328.57	3.1520	3.1520	-0.1728	26.06	1.03	-0.750			
0.8338	53361.68	3.1490	3.1490	-0.1710	26.06	1.03	-0.750			
0.8343	53394.29	3.1460	3.1460	-0.1692	26.07	1.04	-0.750			
0.8348	53426.40	3.1430	3.1430	-0.1673	26.07	1.04	-0.750			
0.8353	53458.40	3.1400	3.1400	-0.1660	26.08	1.05	-0.750			
0.8358	53490.06	3.1370	3.1369	-0.1646	26.08	1.05	-0.750			
0.8363	53521.58	3.1340	3.1340	-0.1630	26.08	1.05	-0.750			
0.8368	53552.96	3.1310	3.1310	-0.1614	26.09	1.06	-0.750			
0.8372	53583.47	3.1280	3.1280	-0.1599	26.09	1.06	-0.750			
0.8377	53614.06	3.1250	3.1250	-0.1587	26.10	1.07	-0.750			
0.8382	53644.45	3.1220	3.1220	-0.1569	26.11	1.08	-0.750			
0.8387	53674.27	3.1190	3.1189	-0.1558	26.11	1.08	-0.750			
0.8391	53704.07	3.1160	3.1161	-0.1545	26.12	1.09	-0.750			
0.8396	53733.65	3.1130	3.1130	-0.1535	26.12	1.09	-0.750			
0.8400	53763.07	3.1100	3.1100	-0.1525	26.13	1.10	-0.750			
0.8405	53792.37	3.1070	3.1070	-0.1512	26.14	1.11	-0.750			
0.8410	53821.16	3.1040	3.1039	-0.1494	26.14	1.11	-0.750			
0.8414	53849.73	3.1010	3.1011	-0.1482	26.15	1.12	-0.750			
0.8418	53878.27	3.0980	3.0980	-0.1472	26.15	1.12	-0.750			
0.8423	53906.25	3.0950	3.0950	-0.1455	26.16	1.13	-0.750			
0.8427	53933.83	3.0920	3.0921	-0.1446	26.16	1.13	-0.750			
0.8431	53961.53	3.0890	3.0889	-0.1439	26.17	1.14	-0.750			
0.8436	53989.10	3.0860	3.0860	-0.1423	26.18	1.15	-0.750			
0.8440	54016.26	3.0830	3.0829	-0.1417	26.18	1.15	-0.750			
0.8444	54043.38	3.0800	3.0800	-0.1409	26.19	1.16	-0.750			
0.8449	54070.47	3.0770	3.0771	-0.1394	26.19	1.16	-0.750			
0.8453	54097.13	3.0740	3.0739	-0.1382	26.20	1.17	-0.750			
0.8457	54123.49	3.0710	3.0710	-0.1373	26.20	1.17	-0.750			
0.8461	54149.50	3.0680	3.0681	-0.1357	26.21	1.18	-0.750			
0.8465	54175.54	3.0650	3.0650	-0.1350	26.21	1.18	-0.750			
0.8469	54201.62	3.0620	3.0620	-0.1342	26.22	1.19	-0.750			
0.8473	54226.97	3.0590	3.0590	-0.1329	26.22	1.19	-0.750			
0.8477	54252.44	3.0560	3.0561	-0.1325	26.23	1.20	-0.750			
0.8481	54278.19	3.0530	3.0530	-0.1314	26.23	1.20	-0.750			
0.8485	54303.32	3.0500	3.0500	-0.1300	26.24	1.21	-0.750			
0.8489	54328.05	3.0470	3.0470	-0.1289	26.24	1.21	-0.750			
0.8493	54352.60	3.0440	3.0441	-0.1281	26.25	1.22	-0.750			
0.8496	54377.11	3.0410	3.0410	-0.1273	26.25	1.22	-0.750			
0.8500	54401.42	3.0380	3.0379	-0.1266	26.26	1.23	-0.750			
0.8504	54425.66	3.0350	3.0350	-0.1259	26.26	1.23	-0.750			
0.8508	54449.56	3.0320	3.0321	-0.1249	26.27	1.24	-0.750			
0.8512	54473.86	3.0290	3.0289	-0.1249	26.27	1.24	-0.750			
0.8515	54497.77	3.0260	3.0260	-0.1237	26.28	1.25	-0.750			
0.8519	54521.40	3.0230	3.0229	-0.1225	26.28	1.25	-0.750			
0.8523	54544.88	3.0200	3.0200	-0.1213	26.29	1.26	-0.750			
0.8526	54568.05	3.0170	3.0170	-0.1200	26.29	1.26	-0.750			
0.8530	54590.95	3.0140	3.0139	-0.1189	26.29	1.26	-0.750			
0.8533	54613.65	3.0110	3.0110	-0.1176	26.30	1.27	-0.750			
0.8537	54636.02	3.0080	3.0080	-0.1165	26.30	1.27	-0.751			
0.8540	54658.30	3.0050	3.0050	-0.1155	26.31	1.28	-0.751			
0.8544	54680.38	3.0020	3.0021	-0.1150	26.31	1.28	-0.751			
