Ah_balance (normalized)	Ah_balance (mAh)	Voltage - fit (V)	Voltage -  interpolate (V)	dQ/dV (1/V)	Temperature (°C)	Temperature - diff (°C)	Current (C)	R_DC 0ms (mOhm)	R_DC 50ms (mOhm)	R_DC 50 ms PEC (mOhm)
0.0004	28.21	4.1620	4.1618	-0.1347	25.70	0.02	-0.750			
0.0009	59.83	4.1590	4.1589	-0.1818	25.70	0.02	-0.750			
0.0015	99.07	4.1560	4.1559	-0.2229	25.69	0.01	-0.750			
0.0023	145.62	4.1530	4.1531	-0.2643	25.69	0.01	-0.750			
0.0031	200.47	4.1500	4.1500	-0.3043	25.69	0.01	-0.750			
0.0041	263.41	4.1470	4.1470	-0.3432	25.69	0.01	-0.750			
0.0052	333.92	4.1440	4.1440	-0.3754	25.69	0.01	-0.750			
0.0064	409.52	4.1410	4.1410	-0.4106	25.68	0.00	-0.750			
0.0077	492.39	4.1380	4.1381	-0.4410	25.68	-0.00	-0.750			
0.0091	580.32	4.1350	4.1350	-0.4710	25.68	-0.00	-0.750			
0.0105	673.65	4.1320	4.1320	-0.4962	25.67	-0.01	-0.750			
0.0121	772.46	4.1290	4.1290	-0.5205	25.67	-0.01	-0.750			
0.0137	874.32	4.1260	4.1260	-0.5456	25.66	-0.02	-0.750			
0.0154	982.80	4.1230	4.1230	-0.5627	25.66	-0.02	-0.750			
0.0171	1093.26	4.1200	4.1200	-0.5763	25.66	-0.02	-0.750			
0.0188	1206.17	4.1170	4.1169	-0.5900	25.65	-0.03	-0.750			
0.0206	1320.62	4.1140	4.1140	-0.6021	25.65	-0.03	-0.750			
0.0225	1437.81	4.1110	4.1110	-0.6111	25.65	-0.03	-0.750			
0.0243	1555.49	4.1080	4.1080	-0.6231	25.64	-0.04	-0.750			
0.0262	1674.39	4.1050	4.1051	-0.6339	25.64	-0.04	-0.750			
0.0281	1800.65	4.1020	4.1019	-0.6469	25.64	-0.04	-0.750			
0.0301	1926.58	4.0990	4.0989	-0.6557	25.63	-0.05	-0.750			
0.0321	2054.04	4.0960	4.0962	-0.6560	25.63	-0.05	-0.750			
0.0341	2180.61	4.0930	4.0929	-0.6651	25.63	-0.05	-0.750			
0.0361	2309.15	4.0900	4.0900	-0.6690	25.63	-0.05	-0.750			
0.0381	2435.30	4.0870	4.0869	-0.6729	25.63	-0.05	-0.750			
0.0401	2565.38	4.0840	4.0841	-0.6792	25.62	-0.06	-0.750			
0.0422	2698.78	4.0810	4.0810	-0.6894	25.62	-0.06	-0.750			
0.0442	2831.51	4.0780	4.0779	-0.6914	25.62	-0.06	-0.750			
0.0464	2966.42	4.0750	4.0749	-0.6964	25.62	-0.06	-0.750			
0.0484	3098.79	4.0720	4.0720	-0.6932	25.62	-0.06	-0.750			
0.0505	3231.98	4.0690	4.0690	-0.7005	25.62	-0.06	-0.750			
0.0526	3366.11	4.0660	4.0660	-0.7028	25.62	-0.06	-0.750			
0.0547	3502.32	4.0630	4.0629	-0.7079	25.62	-0.06	-0.750			
0.0568	3637.53	4.0600	4.0600	-0.7134	25.62	-0.06	-0.750			
0.0590	3776.07	4.0570	4.0570	-0.7194	25.62	-0.06	-0.750			
0.0612	3915.22	4.0540	4.0539	-0.7208	25.61	-0.07	-0.750			
0.0634	4055.04	4.0510	4.0510	-0.7210	25.61	-0.07	-0.750			
0.0655	4191.92	4.0480	4.0481	-0.7208	25.61	-0.07	-0.750			
0.0677	4331.50	4.0450	4.0450	-0.7259	25.60	-0.08	-0.750			
0.0699	4471.45	4.0420	4.0420	-0.7245	25.60	-0.08	-0.750			
0.0720	4608.90	4.0390	4.0389	-0.7232	25.60	-0.08	-0.750			
0.0742	4748.20	4.0360	4.0361	-0.7278	25.60	-0.08	-0.750			
0.0764	4888.60	4.0330	4.0331	-0.7338	25.61	-0.07	-0.750			
0.0786	5030.57	4.0300	4.0298	-0.7370	25.61	-0.07	-0.750			
0.0808	5171.43	4.0270	4.0270	-0.7354	25.61	-0.07	-0.750			
0.0830	5312.94	4.0240	4.0241	-0.7370	25.61	-0.07	-0.750			
0.0852	5455.36	4.0210	4.0210	-0.7393	25.61	-0.07	-0.750			
0.0875	5598.53	4.0180	4.0179	-0.7443	25.61	-0.07	-0.750			
0.0897	5739.98	4.0150	4.0150	-0.7428	25.62	-0.06	-0.750			
0.0919	5882.89	4.0120	4.0119	-0.7447	25.62	-0.06	-0.750			
0.0942	6026.93	4.0090	4.0090	-0.7438	25.62	-0.06	-0.750			
0.0964	6170.07	4.0060	4.0059	-0.7444	25.62	-0.06	-0.750			
0.0986	6312.00	4.0030	4.0030	-0.7457	25.62	-0.06	-0.750			
0.1008	6454.35	4.0000	4.0001	-0.7484	25.62	-0.06	-0.750			
0.1031	6597.83	3.9970	3.9969	-0.7518	25.62	-0.06	-0.750			
0.1054	6744.08	3.9940	3.9939	-0.7562	25.62	-0.06	-0.750			
0.1077	6890.12	3.9910	3.9911	-0.7597	25.62	-0.06	-0.750			
0.1100	7037.33	3.9880	3.9880	-0.7658	25.62	-0.06	-0.750			
0.1122	7183.60	3.9850	3.9850	-0.7669	25.62	-0.06	-0.750			
0.1145	7330.06	3.9820	3.9820	-0.7664	25.63	-0.05	-0.750			
0.1169	7479.41	3.9790	3.9789	-0.7680	25.63	-0.05	-0.750			
0.1192	7625.92	3.9760	3.9760	-0.7682	25.63	-0.05	-0.750			
0.1215	7773.42	3.9730	3.9731	-0.7701	25.63	-0.05	-0.750			
0.1237	7919.49	3.9700	3.9700	-0.7757	25.63	-0.05	-0.750			
0.1261	8068.82	3.9670	3.9669	-0.7760	25.63	-0.05	-0.750			
0.1284	8219.22	3.9640	3.9639	-0.7789	25.64	-0.04	-0.750			
0.1308	8370.33	3.9610	3.9610	-0.7833	25.64	-0.04	-0.750			
0.1332	8521.65	3.9580	3.9582	-0.7834	25.64	-0.04	-0.750			
0.1355	8671.11	3.9550	3.9550	-0.7832	25.64	-0.04	-0.750			
0.1378	8821.95	3.9520	3.9520	-0.7829	25.64	-0.04	-0.750			
0.1402	8969.90	3.9490	3.9490	-0.7801	25.64	-0.04	-0.750			
0.1425	9121.85	3.9460	3.9460	-0.7845	25.64	-0.04	-0.750			
0.1449	9272.09	3.9430	3.9432	-0.7910	25.64	-0.04	-0.750			
0.1472	9423.78	3.9400	3.9400	-0.7931	25.64	-0.04	-0.750			
0.1496	9577.05	3.9370	3.9369	-0.8015	25.65	-0.03	-0.750			
0.1521	9732.37	3.9340	3.9340	-0.8015	25.65	-0.03	-0.750			
0.1545	9887.71	3.9310	3.9310	-0.8044	25.66	-0.02	-0.750			
0.1569	10042.40	3.9280	3.9282	-0.8001	25.66	-0.02	-0.750			
0.1593	10196.48	3.9250	3.9249	-0.8006	25.66	-0.02	-0.750			
0.1617	10347.43	3.9220	3.9220	-0.8005	25.67	-0.01	-0.750			
0.1641	10500.32	3.9190	3.9190	-0.8018	25.67	-0.01	-0.750			
0.1665	10654.35	3.9160	3.9160	-0.8043	25.67	-0.01	-0.750			
0.1689	10812.72	3.9130	3.9130	-0.8106	25.68	-0.00	-0.750			
0.1714	10968.13	3.9100	3.9099	-0.8107	25.68	0.00	-0.750			
0.1738	11124.23	3.9070	3.9070	-0.8171	25.69	0.01	-0.750			
0.1763	11281.74	3.9040	3.9040	-0.8124	25.69	0.01	-0.750			
0.1787	11436.17	3.9010	3.9010	-0.8108	25.69	0.01	-0.750			
0.1811	11593.35	3.8980	3.8979	-0.8166	25.70	0.02	-0.750			
0.1836	11750.11	3.8950	3.8951	-0.8183	25.70	0.02	-0.750			
0.1860	11906.72	3.8920	3.8919	-0.8212	25.70	0.02	-0.750			
0.1885	12063.47	3.8890	3.8891	-0.8229	25.70	0.02	-0.750			
0.1910	12221.73	3.8860	3.8860	-0.8245	25.70	0.02	-0.750			
0.1935	12383.06	3.8830	3.8827	-0.8290	25.70	0.02	-0.750			
0.1960	12542.03	3.8800	3.8801	-0.8299	25.70	0.02	-0.750			
0.1985	12701.05	3.8770	3.8770	-0.8318	25.71	0.03	-0.750			
0.2010	12862.51	3.8740	3.8740	-0.8303	25.71	0.03	-0.750			
0.2034	13019.82	3.8710	3.8709	-0.8256	25.71	0.03	-0.750			
0.2059	13180.10	3.8680	3.8679	-0.8286	25.72	0.04	-0.750			
0.2084	13339.04	3.8650	3.8650	-0.8310	25.72	0.04	-0.750			
0.2109	13497.38	3.8620	3.8620	-0.8355	25.73	0.05	-0.750			
0.2134	13657.87	3.8590	3.8590	-0.8358	25.73	0.05	-0.750			
0.2159	13819.02	3.8560	3.8559	-0.8374	25.73	0.05	-0.750			
0.2185	13983.21	3.8530	3.8529	-0.8359	25.74	0.06	-0.750			
0.2210	14143.11	3.8500	3.8500	-0.8346	25.74	0.06	-0.750			
0.2235	14302.17	3.8470	3.8471	-0.8404	25.74	0.06	-0.750			
0.2260	14462.71	3.8440	3.8440	-0.8362	25.74	0.06	-0.750			
0.2285	14623.00	3.8410	3.8409	-0.8328	25.75	0.07	-0.750			
0.2310	14784.60	3.8380	3.8380	-0.8376	25.75	0.07	-0.750			
0.2335	14945.78	3.8350	3.8350	-0.8406	25.75	0.07	-0.750			
0.2361	15107.69	3.8320	3.8320	-0.8436	25.76	0.08	-0.750			
0.2386	15269.33	3.8290	3.8289	-0.8361	25.76	0.08	-0.750			
0.2411	15431.40	3.8260	3.8260	-0.8262	25.76	0.08	-0.750			
0.2436	15592.06	3.8230	3.8227	-0.8220	25.77	0.09	-0.750			
0.2460	15746.94	3.8200	3.8200	-0.8239	25.77	0.09	-0.750			
0.2485	15901.72	3.8170	3.8170	-0.8272	25.78	0.10	-0.750			
0.2509	16058.72	3.8140	3.8138	-0.8225	25.78	0.10	-0.750			
0.2534	16215.05	3.8110	3.8110	-0.8227	25.78	0.10	-0.750			
0.2559	16380.07	3.8080	3.8080	-0.8381	25.79	0.11	-0.750			
0.2585	16542.47	3.8050	3.8049	-0.8361	25.79	0.11	-0.750			
0.2610	16701.72	3.8020	3.8019	-0.8382	25.80	0.12	-0.750			
0.2635	16861.48	3.7990	3.7990	-0.8282	25.80	0.12	-0.750			
0.2659	17019.51	3.7960	3.7960	-0.8252	25.80	0.12	-0.750			
0.2685	17181.28	3.7930	3.7929	-0.8230	25.81	0.13	-0.750			
0.2709	17337.36	3.7900	3.7899	-0.8194	25.81	0.13	-0.750			
0.2733	17492.20	3.7870	3.7870	-0.8240	25.81	0.13	-0.750			
0.2758	17652.24	3.7840	3.7838	-0.8155	25.81	0.13	-0.750			
0.2782	17807.10	3.7810	3.7810	-0.8073	25.82	0.14	-0.750			
0.2807	17964.30	3.7780	3.7780	-0.8128	25.82	0.14	-0.750			
0.2831	18119.86	3.7750	3.7750	-0.8091	25.82	0.14	-0.750			
0.2855	18273.94	3.7720	3.7719	-0.8114	25.83	0.15	-0.750			
0.2879	18427.00	3.7690	3.7690	-0.8007	25.83	0.15	-0.750			
0.2903	18580.34	3.7660	3.7661	-0.7987	25.84	0.16	-0.750			
0.2928	18737.65	3.7630	3.7629	-0.8080	25.85	0.17	-0.750			
0.2952	18891.97	3.7600	3.7601	-0.8056	25.85	0.17	-0.750			
0.2976	19045.78	3.7570	3.7570	-0.8035	25.85	0.17	-0.750			
0.3000	19199.87	3.7540	3.7540	-0.8101	25.86	0.18	-0.750			
0.3024	19356.20	3.7510	3.7510	-0.8115	25.86	0.18	-0.750			
0.3049	19514.28	3.7480	3.7479	-0.8176	25.87	0.19	-0.750			
0.3073	19670.24	3.7450	3.7453	-0.8153	25.87	0.19	-0.750			
0.3098	19827.50	3.7420	3.7420	-0.8128	25.87	0.19	-0.750			
0.3122	19982.80	3.7390	3.7390	-0.8220	25.88	0.20	-0.750			
0.3147	20140.18	3.7360	3.7360	-0.8250	25.88	0.20	-0.750			
0.3172	20300.18	3.7330	3.7329	-0.8346	25.89	0.21	-0.750			
0.3197	20459.96	3.7300	3.7303	-0.8406	25.89	0.21	-0.750			
0.3222	20622.08	3.7270	3.7271	-0.8494	25.89	0.21	-0.750			
0.3248	20785.88	3.7240	3.7239	-0.8667	25.89	0.21	-0.750			
0.3274	20953.34	3.7210	3.7209	-0.8779	25.89	0.21	-0.750			
0.3301	21123.72	3.7180	3.7179	-0.8916	25.89	0.21	-0.750			
0.3327	21295.31	3.7150	3.7153	-0.9062	25.89	0.21	-0.750			
0.3355	21471.72	3.7120	3.7120	-0.9258	25.89	0.21	-0.750			
0.3383	21650.63	3.7090	3.7089	-0.9392	25.89	0.21	-0.750			
0.3411	21831.41	3.7060	3.7059	-0.9492	25.90	0.22	-0.750			
0.3440	22016.91	3.7030	3.7031	-0.9702	25.90	0.22	-0.750			
0.3469	22203.53	3.7000	3.7000	-0.9893	25.90	0.22	-0.750			
0.3499	22395.90	3.6970	3.6970	-1.0038	25.90	0.22	-0.750			
0.3529	22588.41	3.6940	3.6939	-1.0214	25.91	0.23	-0.750			
0.3560	22784.97	3.6910	3.6910	-1.0392	25.91	0.23	-0.750			
0.3592	22988.48	3.6880	3.6879	-1.0599	25.91	0.23	-0.750			
0.3624	23194.67	3.6850	3.6850	-1.0740	25.90	0.22	-0.750			
0.3657	23403.37	3.6820	3.6820	-1.0846	25.90	0.22	-0.750			
0.3689	23611.29	3.6790	3.6790	-1.0980	25.89	0.21	-0.750			
0.3722	23823.45	3.6760	3.6761	-1.1315	25.89	0.21	-0.750			
0.3756	24038.20	3.6730	3.6730	-1.1578	25.89	0.21	-0.750			
0.3791	24263.23	3.6700	3.6698	-1.1961	25.88	0.20	-0.750			
0.3828	24498.91	3.6670	3.6672	-1.2344	25.88	0.20	-0.750			
0.3866	24743.25	3.6640	3.6640	-1.2669	25.88	0.20	-0.750			
0.3905	24990.00	3.6610	3.6610	-1.2896	25.87	0.19	-0.750			
0.3943	25238.24	3.6580	3.6583	-1.3165	25.87	0.19	-0.750			
0.3983	25493.04	3.6550	3.6548	-1.3405	25.86	0.18	-0.750			
0.4024	25752.02	3.6520	3.6519	-1.3656	25.86	0.18	-0.750			
0.4065	26015.30	3.6490	3.6491	-1.3933	25.85	0.17	-0.750			
0.4108	26291.45	3.6460	3.6460	-1.4348	25.84	0.16	-0.750			
0.4151	26567.90	3.6430	3.6429	-1.4655	25.83	0.15	-0.750			
0.4196	26852.29	3.6400	3.6401	-1.4886	25.82	0.14	-0.750			
0.4241	27139.28	3.6370	3.6369	-1.5154	25.82	0.14	-0.750			
0.4287	27435.04	3.6340	3.6343	-1.5549	25.81	0.13	-0.750			
0.4334	27735.15	3.6310	3.6310	-1.5897	25.81	0.13	-0.750			
0.4381	28041.60	3.6280	3.6281	-1.6189	25.81	0.13	-0.750			
0.4431	28358.41	3.6250	3.6250	-1.6486	25.81	0.13	-0.750			
0.4481	28678.26	3.6220	3.6220	-1.6905	25.80	0.12	-0.750	0.388	0.503	
0.4533	29009.17	3.6190	3.6188	-1.7087	25.79	0.11	-0.750			
0.4584	29338.93	3.6160	3.6160	-1.7232	25.78	0.10	-0.750			
0.4636	29668.75	3.6130	3.6130	-1.7560	25.77	0.09	-0.750			
0.4689	30006.59	3.6100	3.6099	-1.7882	25.77	0.09	-0.750			
0.4742	30349.81	3.6070	3.6070	-1.8352	25.77	0.09	-0.750			
0.4798	30710.24	3.6040	3.6038	-1.8857	25.77	0.09	-0.750			
0.4855	31073.50	3.6010	3.6008	-1.9207	25.76	0.08	-0.750			
0.4915	31454.94	3.5980	3.5981	-1.9703	25.76	0.08	-0.750			
0.4974	31835.93	3.5950	3.5950	-1.9974	25.75	0.07	-0.750			
0.5035	32220.93	3.5920	3.5919	-2.0229	25.75	0.07	-0.750			
0.5097	32619.93	3.5890	3.5890	-2.0130	25.75	0.07	-0.750			
0.5157	33003.89	3.5860	3.5861	-2.0382	25.74	0.06	-0.750			
0.5218	33393.09	3.5830	3.5831	-2.0647	25.74	0.06	-0.750			
0.5279	33782.69	3.5800	3.5797	-2.1003	25.73	0.05	-0.750			
0.5342	34190.42	3.5770	3.5771	-2.1400	25.72	0.04	-0.750			
0.5408	34610.39	3.5740	3.5740	-2.1789	25.72	0.04	-0.750			
0.5475	35040.51	3.5710	3.5709	-2.2382	25.72	0.04	-0.750			
0.5544	35479.30	3.5680	3.5679	-2.2459	25.72	0.04	-0.750			
0.5612	35914.14	3.5650	3.5651	-2.2560	25.72	0.04	-0.750			
0.5680	36350.14	3.5620	3.5618	-2.2524	25.71	0.03	-0.750			
0.5747	36779.92	3.5590	3.5588	-2.2557	25.71	0.03	-0.750			
0.5815	37215.46	3.5560	3.5562	-2.2707	25.71	0.03	-0.750			
0.5884	37658.34	3.5530	3.5532	-2.2597	25.71	0.03	-0.750			
0.5951	38089.49	3.5500	3.5502	-2.2527	25.71	0.03	-0.750			
0.6019	38522.21	3.5470	3.5471	-2.2228	25.72	0.04	-0.750			
0.6086	38952.73	3.5440	3.5441	-2.2376	25.72	0.04	-0.750			
0.6154	39383.98	3.5410	3.5408	-2.2050	25.72	0.04	-0.750			
0.6218	39797.93	3.5380	3.5378	-2.1877	25.72	0.04	-0.750			
0.6283	40213.32	3.5350	3.5352	-2.1677	25.72	0.04	-0.750			
0.6349	40636.11	3.5320	3.5317	-2.1310	25.72	0.04	-0.750			
0.6414	41047.36	3.5290	3.5292	-2.0908	25.73	0.05	-0.750			
0.6476	41445.74	3.5260	3.5260	-2.0427	25.74	0.06	-0.750			
0.6537	41836.82	3.5230	3.5228	-2.0039	25.75	0.07	-0.750			
0.6597	42218.15	3.5200	3.5202	-1.9336	25.76	0.08	-0.750			
0.6653	42577.59	3.5170	3.5172	-1.9009	25.77	0.09	-0.750			
0.6709	42938.05	3.5140	3.5141	-1.8502	25.77	0.09	-0.750			
0.6765	43293.74	3.5110	3.5107	-1.7846	25.79	0.11	-0.750			
0.6817	43631.77	3.5080	3.5082	-1.7123	25.81	0.13	-0.750			
0.6868	43953.77	3.5050	3.5050	-1.6558	25.82	0.14	-0.750			
0.6917	44271.43	3.5020	3.5021	-1.6036	25.83	0.15	-0.750			
0.6964	44568.04	3.4990	3.4990	-1.5297	25.85	0.17	-0.750			
0.7008	44850.84	3.4960	3.4959	-1.4716	25.86	0.18	-0.750			
0.7051	45128.84	3.4930	3.4930	-1.4353	25.88	0.20	-0.750			
0.7095	45406.59	3.4900	3.4899	-1.4021	25.90	0.22	-0.750			
0.7137	45675.38	3.4870	3.4869	-1.3591	25.91	0.23	-0.750			
0.7176	45928.26	3.4840	3.4840	-1.3090	25.92	0.24	-0.750			
0.7215	46177.02	3.4810	3.4811	-1.2695	25.94	0.26	-0.750			
0.7253	46420.56	3.4780	3.4780	-1.2328	25.96	0.28	-0.750			
0.7289	46651.17	3.4750	3.4750	-1.1895	25.97	0.29	-0.750			
0.7324	46871.95	3.4720	3.4722	-1.1418	25.99	0.31	-0.750			
0.7358	47089.77	3.4690	3.4689	-1.1116	26.00	0.32	-0.750			
0.7391	47299.79	3.4660	3.4660	-1.0761	26.01	0.33	-0.750			
0.7422	47500.40	3.4630	3.4628	-1.0387	26.02	0.34	-0.750			
0.7453	47698.53	3.4600	3.4602	-1.0073	26.03	0.35	-0.750			
0.7482	47887.08	3.4570	3.4570	-0.9803	26.05	0.37	-0.750			
0.7511	48071.11	3.4540	3.4540	-0.9506	26.06	0.38	-0.750			
0.7539	48251.12	3.4510	3.4509	-0.9335	26.07	0.39	-0.750			
0.7567	48426.09	3.4480	3.4481	-0.9120	26.09	0.41	-0.750			
0.7593	48596.80	3.4450	3.4450	-0.9128	26.10	0.42	-0.750			
0.7620	48769.92	3.4420	3.4421	-0.9060	26.11	0.43	-0.750			
0.7647	48943.37	3.4390	3.4389	-0.9086	26.11	0.43	-0.750			
0.7674	49113.99	3.4360	3.4360	-0.9168	26.12	0.44	-0.750			
0.7702	49292.53	3.4330	3.4332	-0.9377	26.13	0.45	-0.750			
0.7730	49473.38	3.4300	3.4299	-0.9638	26.14	0.46	-0.750			
0.7760	49662.48	3.4270	3.4269	-0.9856	26.15	0.47	-0.750			
0.7789	49852.77	3.4240	3.4240	-1.0055	26.16	0.48	-0.750			
0.7821	50052.45	3.4210	3.4212	-1.0295	26.17	0.49	-0.750			
0.7852	50253.07	3.4180	3.4179	-1.0340	26.18	0.50	-0.750			
0.7883	50452.83	3.4150	3.4150	-1.0326	26.19	0.51	-0.750			
0.7914	50652.27	3.4120	3.4121	-1.0229	26.20	0.52	-0.750			
0.7945	50850.49	3.4090	3.4090	-1.0159	26.21	0.53	-0.750			
0.7976	51044.58	3.4060	3.4059	-0.9950	26.22	0.54	-0.750			
0.8006	51235.29	3.4030	3.4029	-0.9659	26.22	0.54	-0.750			
0.8034	51419.46	3.4000	3.4000	-0.9345	26.23	0.55	-0.750			
0.8062	51596.79	3.3970	3.3968	-0.8998	26.24	0.56	-0.750			
0.8088	51766.37	3.3940	3.3939	-0.8667	26.25	0.57	-0.750			
0.8114	51928.53	3.3910	3.3909	-0.8331	26.25	0.57	-0.750			
0.8138	52081.41	3.3880	3.3881	-0.7999	26.26	0.58	-0.750			
0.8161	52230.45	3.3850	3.3851	-0.7689	26.27	0.59	-0.750			
0.8185	52381.26	3.3820	3.3819	-0.7471	26.28	0.60	-0.750			
0.8206	52521.23	3.3790	3.3790	-0.7148	26.28	0.60	-0.750			
0.8227	52655.25	3.3760	3.3761	-0.6866	26.29	0.61	-0.750			
0.8247	52783.56	3.3730	3.3729	-0.6560	26.30	0.62	-0.750			
0.8266	52904.71	3.3700	3.3700	-0.6327	26.31	0.63	-0.750			
0.8285	53024.36	3.3670	3.3670	-0.6101	26.31	0.63	-0.750			
0.8303	53139.81	3.3640	3.3640	-0.5892	26.32	0.64	-0.750			
0.8321	53251.54	3.3610	3.3611	-0.5690	26.33	0.65	-0.750			
0.8337	53358.14	3.3580	3.3580	-0.5454	26.33	0.65	-0.750			
0.8353	53460.67	3.3550	3.3550	-0.5219	26.34	0.66	-0.750			
0.8369	53558.96	3.3520	3.3520	-0.5006	26.34	0.66	-0.750			
0.8383	53651.20	3.3490	3.3490	-0.4778	26.35	0.67	-0.750			
0.8397	53741.37	3.3460	3.3460	-0.4649	26.35	0.67	-0.750			
0.8411	53828.48	3.3430	3.3430	-0.4474	26.36	0.68	-0.750			
0.8424	53912.41	3.3400	3.3399	-0.4306	26.36	0.68	-0.750			
0.8437	53994.22	3.3370	3.3370	-0.4151	26.37	0.69	-0.750			
0.8449	54072.85	3.3340	3.3342	-0.4012	26.37	0.69	-0.750			
0.8461	54148.20	3.3310	3.3310	-0.3849	26.38	0.70	-0.750			
0.8472	54219.78	3.3280	3.3280	-0.3713	26.38	0.70	-0.750			
0.8483	54289.48	3.3250	3.3250	-0.3567	26.39	0.71	-0.750			
0.8493	54356.56	3.3220	3.3220	-0.3466	26.40	0.72	-0.750			
0.8503	54421.81	3.3190	3.3191	-0.3361	26.40	0.72	-0.750			
0.8513	54485.23	3.3160	3.3160	-0.3267	26.41	0.73	-0.750			
0.8523	54546.80	3.3130	3.3129	-0.3161	26.41	0.73	-0.750			
0.8532	54606.58	3.3100	3.3101	-0.3073	26.42	0.74	-0.750			
0.8541	54664.38	3.3070	3.3071	-0.2982	26.42	0.74	-0.750			
0.8550	54721.81	3.3040	3.3040	-0.2906	26.43	0.75	-0.750			
0.8559	54776.26	3.3010	3.3010	-0.2797	26.43	0.75	-0.750			
0.8567	54828.86	3.2980	3.2980	-0.2698	26.44	0.76	-0.750			
0.8575	54879.51	3.2950	3.2951	-0.2632	26.44	0.76	-0.750			
0.8583	54929.06	3.2920	3.2920	-0.2568	26.45	0.77	-0.750			
0.8590	54977.37	3.2890	3.2889	-0.2498	26.45	0.77	-0.750			
0.8598	55024.67	3.2860	3.2861	-0.2442	26.46	0.78	-0.750			
0.8605	55071.40	3.2830	3.2831	-0.2398	26.46	0.78	-0.750			
0.8612	55117.11	3.2800	3.2800	-0.2349	26.47	0.79	-0.750			
0.8619	55161.54	3.2770	3.2769	-0.2297	26.47	0.79	-0.750			
0.8626	55204.63	3.2740	3.2741	-0.2233	26.47	0.79	-0.750			
0.8632	55247.10	3.2710	3.2709	-0.2190	26.48	0.80	-0.750			
0.8639	55288.68	3.2680	3.2681	-0.2153	26.48	0.80	-0.750			
0.8645	55329.71	3.2650	3.2650	-0.2116	26.49	0.81	-0.750			
0.8652	55369.82	3.2620	3.2619	-0.2073	26.49	0.81	-0.750			
0.8658	55409.26	3.2590	3.2590	-0.2035	26.49	0.81	-0.750			
0.8664	55447.92	3.2560	3.2561	-0.2000	26.50	0.82	-0.750			
0.8670	55485.90	3.2530	3.2530	-0.1968	26.50	0.82	-0.750			
0.8676	55523.36	3.2500	3.2499	-0.1938	26.51	0.83	-0.750			
0.8681	55560.30	3.2470	3.2471	-0.1904	26.51	0.83	-0.750			
0.8687	55596.37	3.2440	3.2440	-0.1870	26.51	0.83	-0.750			
0.8693	55632.11	3.2410	3.2410	-0.1837	26.52	0.84	-0.750			
0.8698	55667.05	3.2380	3.2381	-0.1810	26.52	0.84	-0.750			
0.8703	55701.49	3.2350	3.2350	-0.1778	26.53	0.85	-0.750			
0.8709	55735.17	3.2320	3.2320	-0.1751	26.53	0.85	-0.750			
0.8714	55768.15	3.2290	3.2290	-0.1731	26.54	0.86	-0.750			
0.8719	55801.06	3.2260	3.2260	-0.1714	26.54	0.86	-0.750			
0.8724	55833.82	3.2230	3.2230	-0.1702	26.55	0.87	-0.750			
0.8729	55866.49	3.2200	3.2199	-0.1685	26.55	0.87	-0.750			
0.8734	55899.04	3.2170	3.2170	-0.1661	26.56	0.88	-0.750			
0.8739	55930.71	3.2140	3.2140	-0.1640	26.56	0.88	-0.750			
0.8744	55961.96	3.2110	3.2110	-0.1615	26.57	0.89	-0.750			
0.8749	55992.76	3.2080	3.2080	-0.1595	26.57	0.89	-0.750			
0.8754	56022.87	3.2050	3.2049	-0.1573	26.58	0.90	-0.750			
0.8758	56052.71	3.2020	3.2020	-0.1554	26.58	0.90	-0.750			
0.8763	56082.41	3.1990	3.1990	-0.1541	26.59	0.91	-0.750			
0.8767	56111.83	3.1960	3.1961	-0.1529	26.59	0.91	-0.750			
0.8772	56141.18	3.1930	3.1930	-0.1520	26.60	0.92	-0.750			
0.8777	56170.08	3.1900	3.1900	-0.1504	26.60	0.92	-0.750			
0.8781	56198.91	3.1870	3.1870	-0.1491	26.61	0.93	-0.750			
0.8786	56227.51	3.1840	3.1840	-0.1476	26.61	0.93	-0.750			
0.8790	56255.88	3.1810	3.1810	-0.1461	26.62	0.94	-0.750			
0.8794	56283.84	3.1780	3.1780	-0.1444	26.62	0.94	-0.750			
0.8799	56311.31	3.1750	3.1751	-0.1427	26.62	0.94	-0.750			
0.8803	56338.47	3.1720	3.1720	-0.1411	26.63	0.95	-0.750			
0.8807	56365.31	3.1690	3.1690	-0.1394	26.63	0.95	-0.750			
0.8811	56391.91	3.1660	3.1660	-0.1384	26.63	0.95	-0.750			
0.8815	56418.31	3.1630	3.1630	-0.1372	26.63	0.95	-0.750			
0.8819	56444.50	3.1600	3.1599	-0.1362	26.64	0.96	-0.750			
0.8824	56470.58	3.1570	3.1571	-0.1353	26.64	0.96	-0.750			
0.8828	56496.40	3.1540	3.1541	-0.1348	26.65	0.97	-0.750			
0.8832	56522.31	3.1510	3.1510	-0.1334	26.65	0.97	-0.750			
0.8836	56547.81	3.1480	3.1480	-0.1326	26.66	0.98	-0.750			
0.8840	56573.16	3.1450	3.1450	-0.1315	26.66	0.98	-0.750			
0.8843	56598.39	3.1420	3.1421	-0.1302	26.67	0.99	-0.750			
0.8847	56623.35	3.1390	3.1389	-0.1290	26.67	0.99	-0.750			
0.8851	56647.88	3.1360	3.1361	-0.1277	26.68	1.00	-0.750			
0.8855	56672.28	3.1330	3.1330	-0.1265	26.69	1.01	-0.750			
0.8859	56696.24	3.1300	3.1300	-0.1256	26.69	1.01	-0.750			
0.8863	56720.58	3.1270	3.1269	-0.1247	26.70	1.02	-0.750			
0.8866	56744.39	3.1240	3.1239	-0.1233	26.70	1.02	-0.750			
0.8870	56767.72	3.1210	3.1211	-0.1223	26.71	1.03	-0.750			
0.8874	56791.12	3.1180	3.1181	-0.1215	26.71	1.03	-0.750			
0.8877	56814.29	3.1150	3.1152	-0.1217	26.72	1.04	-0.750			
0.8881	56837.70	3.1120	3.1118	-0.1206	26.72	1.04	-0.750			
0.8885	56860.80	3.1090	3.1089	-0.1201	26.73	1.05	-0.750			
0.8888	56883.90	3.1060	3.1061	-0.1191	26.73	1.05	-0.750			
0.8892	56907.07	3.1030	3.1030	-0.1190	26.74	1.06	-0.750			
0.8895	56929.62	3.1000	3.1000	-0.1178	26.74	1.06	-0.750			
0.8899	56952.08	3.0970	3.0970	-0.1165	26.75	1.07	-0.750			
0.8902	56974.29	3.0940	3.0940	-0.1154	26.75	1.07	-0.750			
0.8906	56996.04	3.0910	3.0911	-0.1140	26.76	1.08	-0.750			
0.8909	57017.88	3.0880	3.0880	-0.1134	26.76	1.08	-0.750			
0.8912	57039.74	3.0850	3.0850	-0.1130	26.77	1.09	-0.750			
0.8916	57061.37	3.0820	3.0818	-0.1121	26.77	1.09	-0.750			
0.8919	57082.79	3.0790	3.0791	-0.1112	26.78	1.10	-0.750			
0.8922	57103.98	3.0760	3.0761	-0.1108	26.78	1.10	-0.750			
0.8926	57125.08	3.0730	3.0731	-0.1102	26.79	1.11	-0.750			
0.8929	57146.24	3.0700	3.0700	-0.1096	26.79	1.11	-0.750			
0.8932	57167.27	3.0670	3.0670	-0.1091	26.80	1.12	-0.750			
0.8936	57188.14	3.0640	3.0640	-0.1087	26.80	1.12	-0.750			
0.8939	57208.89	3.0610	3.0610	-0.1081	26.81	1.13	-0.750			
0.8942	57229.75	3.0580	3.0579	-0.1073	26.81	1.13	-0.750			
0.8945	57250.48	3.0550	3.0549	-0.1068	26.82	1.14	-0.750			
0.8949	57270.79	3.0520	3.0521	-0.1063	26.82	1.14	-0.750			
0.8952	57291.02	3.0490	3.0490	-0.1054	26.83	1.15	-0.750			
0.8955	57311.28	3.0460	3.0460	-0.1046	26.83	1.15	-0.750			
0.8958	57331.37	3.0430	3.0429	-0.1040	26.84	1.16	-0.750			
0.8961	57351.21	3.0400	3.0400	-0.1033	26.84	1.16	-0.750			
0.8964	57370.88	3.0370	3.0370	-0.1025	26.84	1.16	-0.750			
0.8967	57390.46	3.0340	3.0342	-0.1020	26.85	1.17	-0.750			
0.8970	57410.06	3.0310	3.0310	-0.1016	26.85	1.17	-0.750			
0.8973	57429.49	3.0280	3.0279	-0.1011	26.86	1.18	-0.750			
0.8976	57448.66	3.0250	3.0250	-0.1003	26.86	1.18	-0.750			
0.8979	57465.92	3.0220	3.0223	-0.1074	26.87	1.19	-0.750			
0.8982	57485.30	3.0190	3.0193	-0.1106	26.87	1.19	-0.750			
0.8986	57508.18	3.0160	3.0158	-0.1137	26.88	1.20	-0.750			
0.8989	57529.99	3.0130	3.0123	-0.1183	26.88	1.20	-0.750			
0.8993	57553.27	3.0100	3.0106	-0.1242	26.89	1.21	-0.742			
0.8997	57578.55	3.0070	3.0076	-0.1267	26.89	1.21	-0.739			
0.9000	57603.08	3.0040	3.0041	-0.1288	26.90	1.22	-0.739			
