Ah_balance (normalized)	Ah_balance (mAh)	Voltage - fit (V)	Voltage -  interpolate (V)	dQ/dV (1/V)	Temperature (°C)	Temperature - diff (°C)	Current (C)	R_DC 0ms (mOhm)	R_DC 50ms (mOhm)	R_DC 50 ms PEC (mOhm)
0.0003	16.98	4.1630	4.1627	-0.1141	25.83	0.02	-0.750			
0.0007	43.14	4.1600	4.1598	-0.1555	25.83	0.02	-0.750			
0.0012	75.91	4.1570	4.1571	-0.1950	25.83	0.02	-0.750			
0.0018	117.14	4.1540	4.1541	-0.2373	25.83	0.02	-0.750			
0.0026	167.79	4.1510	4.1510	-0.2750	25.83	0.02	-0.750			
0.0035	225.12	4.1480	4.1479	-0.3138	25.82	0.01	-0.750			
0.0045	288.99	4.1450	4.1451	-0.3488	25.82	0.01	-0.750			
0.0056	360.51	4.1420	4.1420	-0.3854	25.82	0.01	-0.750			
0.0069	438.96	4.1390	4.1389	-0.4186	25.82	0.01	-0.750			
0.0082	523.01	4.1360	4.1359	-0.4456	25.81	0.00	-0.750			
0.0096	612.05	4.1330	4.1330	-0.4724	25.81	-0.00	-0.750			
0.0110	705.71	4.1300	4.1301	-0.4983	25.81	-0.00	-0.750			
0.0126	803.98	4.1270	4.1271	-0.5181	25.80	-0.01	-0.750			
0.0141	904.54	4.1240	4.1239	-0.5368	25.80	-0.01	-0.750			
0.0158	1011.93	4.1210	4.1210	-0.5607	25.79	-0.02	-0.750			
0.0175	1121.53	4.1180	4.1181	-0.5774	25.79	-0.02	-0.750			
0.0193	1235.11	4.1150	4.1150	-0.5890	25.79	-0.02	-0.750			
0.0211	1350.96	4.1120	4.1120	-0.5998	25.78	-0.03	-0.750			
0.0229	1466.69	4.1090	4.1089	-0.6076	25.78	-0.03	-0.750			
0.0248	1584.20	4.1060	4.1059	-0.6162	25.77	-0.04	-0.750			
0.0266	1701.27	4.1030	4.1030	-0.6250	25.77	-0.04	-0.750			
0.0285	1821.73	4.1000	4.1000	-0.6347	25.77	-0.04	-0.750			
0.0304	1946.17	4.0970	4.0969	-0.6453	25.77	-0.04	-0.750			
0.0324	2071.90	4.0940	4.0940	-0.6538	25.76	-0.05	-0.750			
0.0344	2198.71	4.0910	4.0911	-0.6609	25.76	-0.05	-0.750			
0.0363	2325.71	4.0880	4.0880	-0.6657	25.76	-0.05	-0.750			
0.0383	2453.61	4.0850	4.0850	-0.6716	25.76	-0.05	-0.750			
0.0404	2583.73	4.0820	4.0820	-0.6734	25.75	-0.06	-0.750			
0.0424	2713.19	4.0790	4.0790	-0.6795	25.75	-0.06	-0.750			
0.0444	2843.74	4.0760	4.0760	-0.6853	25.75	-0.06	-0.750			
0.0465	2976.53	4.0730	4.0732	-0.6894	25.75	-0.06	-0.750			
0.0486	3108.88	4.0700	4.0699	-0.6940	25.75	-0.06	-0.750			
0.0507	3242.44	4.0670	4.0671	-0.6964	25.75	-0.06	-0.750			
0.0528	3376.69	4.0640	4.0640	-0.7009	25.75	-0.06	-0.750			
0.0549	3513.01	4.0610	4.0609	-0.7063	25.74	-0.07	-0.750			
0.0570	3647.66	4.0580	4.0580	-0.7054	25.74	-0.07	-0.750			
0.0591	3782.62	4.0550	4.0551	-0.7073	25.74	-0.07	-0.750			
0.0612	3919.30	4.0520	4.0520	-0.7107	25.74	-0.07	-0.750			
0.0634	4055.19	4.0490	4.0490	-0.7129	25.74	-0.07	-0.750			
0.0655	4192.63	4.0460	4.0460	-0.7185	25.75	-0.06	-0.750			
0.0677	4330.92	4.0430	4.0430	-0.7190	25.75	-0.06	-0.750			
0.0698	4470.14	4.0400	4.0399	-0.7193	25.75	-0.06	-0.750			
0.0720	4608.10	4.0370	4.0371	-0.7223	25.75	-0.06	-0.750			
0.0742	4747.22	4.0340	4.0340	-0.7222	25.75	-0.06	-0.750			
0.0763	4884.57	4.0310	4.0310	-0.7287	25.75	-0.06	-0.750			
0.0785	5025.68	4.0280	4.0280	-0.7284	25.75	-0.06	-0.750			
0.0807	5166.32	4.0250	4.0249	-0.7283	25.75	-0.06	-0.750			
0.0829	5306.31	4.0220	4.0220	-0.7337	25.75	-0.06	-0.750			
0.0851	5447.84	4.0190	4.0190	-0.7339	25.75	-0.06	-0.750			
0.0873	5587.74	4.0160	4.0159	-0.7314	25.75	-0.06	-0.750			
0.0895	5728.04	4.0130	4.0130	-0.7369	25.75	-0.06	-0.750			
0.0917	5868.93	4.0100	4.0101	-0.7348	25.75	-0.06	-0.750			
0.0939	6012.33	4.0070	4.0069	-0.7398	25.75	-0.06	-0.750			
0.0962	6154.45	4.0040	4.0041	-0.7412	25.75	-0.06	-0.750			
0.0984	6295.94	4.0010	4.0010	-0.7397	25.75	-0.06	-0.750			
0.1006	6438.66	3.9980	3.9979	-0.7436	25.75	-0.06	-0.750			
0.1028	6581.01	3.9950	3.9950	-0.7469	25.75	-0.06	-0.750			
0.1050	6723.11	3.9920	3.9920	-0.7490	25.75	-0.06	-0.750			
0.1073	6869.95	3.9890	3.9890	-0.7564	25.75	-0.06	-0.750			
0.1096	7015.32	3.9860	3.9860	-0.7568	25.75	-0.06	-0.750			
0.1119	7160.48	3.9830	3.9830	-0.7592	25.75	-0.06	-0.750			
0.1142	7306.95	3.9800	3.9800	-0.7626	25.76	-0.05	-0.750			
0.1164	7452.80	3.9770	3.9770	-0.7627	25.76	-0.05	-0.750			
0.1187	7599.95	3.9740	3.9740	-0.7631	25.77	-0.04	-0.750			
0.1210	7746.05	3.9710	3.9710	-0.7634	25.77	-0.04	-0.750			
0.1233	7893.36	3.9680	3.9680	-0.7657	25.77	-0.04	-0.750			
0.1256	8039.60	3.9650	3.9649	-0.7684	25.77	-0.04	-0.750			
0.1279	8186.47	3.9620	3.9620	-0.7693	25.78	-0.03	-0.750			
0.1302	8334.67	3.9590	3.9590	-0.7726	25.78	-0.03	-0.750			
0.1326	8484.95	3.9560	3.9559	-0.7733	25.78	-0.03	-0.750			
0.1349	8633.78	3.9530	3.9531	-0.7743	25.78	-0.03	-0.750			
0.1372	8780.82	3.9500	3.9501	-0.7773	25.78	-0.03	-0.750			
0.1395	8930.41	3.9470	3.9469	-0.7793	25.78	-0.03	-0.750			
0.1419	9079.53	3.9440	3.9440	-0.7787	25.79	-0.02	-0.750			
0.1442	9229.65	3.9410	3.9411	-0.7847	25.79	-0.02	-0.750			
0.1466	9382.26	3.9380	3.9382	-0.7886	25.79	-0.02	-0.750			
0.1490	9534.40	3.9350	3.9349	-0.7909	25.79	-0.02	-0.750			
0.1513	9684.52	3.9320	3.9320	-0.7928	25.79	-0.02	-0.750			
0.1537	9837.35	3.9290	3.9290	-0.7928	25.79	-0.02	-0.750			
0.1561	9991.14	3.9260	3.9259	-0.7980	25.79	-0.02	-0.750			
0.1585	10144.98	3.9230	3.9231	-0.7962	25.79	-0.02	-0.750			
0.1609	10297.27	3.9200	3.9200	-0.7958	25.79	-0.02	-0.750			
0.1633	10449.28	3.9170	3.9170	-0.8017	25.80	-0.01	-0.750			
0.1657	10602.74	3.9140	3.9140	-0.8009	25.80	-0.01	-0.750			
0.1681	10756.27	3.9110	3.9110	-0.8047	25.80	-0.01	-0.750			
0.1705	10913.78	3.9080	3.9080	-0.8075	25.81	-0.00	-0.750			
0.1729	11068.40	3.9050	3.9050	-0.8055	25.81	0.00	-0.750			
0.1754	11223.69	3.9020	3.9020	-0.8129	25.81	0.00	-0.750			
0.1778	11379.31	3.8990	3.8990	-0.8102	25.81	0.00	-0.750			
0.1802	11533.75	3.8960	3.8959	-0.8072	25.81	0.00	-0.750			
0.1827	11690.46	3.8930	3.8931	-0.8101	25.81	0.00	-0.750			
0.1851	11845.54	3.8900	3.8900	-0.8124	25.81	0.00	-0.750			
0.1875	12001.18	3.8870	3.8870	-0.8180	25.81	0.00	-0.750			
0.1900	12158.19	3.8840	3.8840	-0.8180	25.81	0.00	-0.750			
0.1924	12315.40	3.8810	3.8809	-0.8190	25.82	0.01	-0.750			
0.1949	12475.20	3.8780	3.8779	-0.8222	25.82	0.01	-0.750			
0.1974	12634.28	3.8750	3.8751	-0.8209	25.82	0.01	-0.750			
0.1998	12789.56	3.8720	3.8720	-0.8237	25.83	0.02	-0.750			
0.2023	12947.63	3.8690	3.8691	-0.8190	25.83	0.02	-0.750			
0.2048	13104.22	3.8660	3.8659	-0.8126	25.83	0.02	-0.750			
0.2072	13261.89	3.8630	3.8628	-0.8193	25.84	0.03	-0.750			
0.2097	13419.06	3.8600	3.8603	-0.8209	25.84	0.03	-0.750			
0.2121	13575.33	3.8570	3.8569	-0.8255	25.84	0.03	-0.750			
0.2146	13736.21	3.8540	3.8540	-0.8236	25.84	0.03	-0.750			
0.2171	13892.89	3.8510	3.8509	-0.8112	25.85	0.04	-0.750			
0.2195	14051.05	3.8480	3.8480	-0.8204	25.85	0.04	-0.750			
0.2220	14208.40	3.8450	3.8451	-0.8234	25.85	0.04	-0.750			
0.2244	14364.43	3.8420	3.8419	-0.8248	25.85	0.04	-0.750			
0.2269	14522.27	3.8390	3.8389	-0.8343	25.85	0.04	-0.750			
0.2295	14685.64	3.8360	3.8360	-0.8354	25.86	0.05	-0.750			
0.2320	14851.20	3.8330	3.8329	-0.8390	25.86	0.05	-0.750			
0.2346	15011.90	3.8300	3.8302	-0.8323	25.86	0.05	-0.750			
0.2370	15169.59	3.8270	3.8270	-0.8249	25.86	0.05	-0.750			
0.2395	15326.68	3.8240	3.8239	-0.8220	25.86	0.05	-0.750			
0.2419	15481.51	3.8210	3.8210	-0.8158	25.87	0.06	-0.750			
0.2444	15640.42	3.8180	3.8180	-0.8194	25.87	0.06	-0.750			
0.2468	15797.24	3.8150	3.8151	-0.8202	25.87	0.06	-0.750			
0.2493	15955.46	3.8120	3.8119	-0.8207	25.87	0.06	-0.750			
0.2517	16111.93	3.8090	3.8090	-0.8199	25.88	0.07	-0.750			
0.2542	16269.72	3.8060	3.8060	-0.8161	25.88	0.07	-0.750			
0.2567	16427.83	3.8030	3.8030	-0.8157	25.89	0.08	-0.750			
0.2591	16584.16	3.8000	3.8000	-0.8114	25.89	0.08	-0.750			
0.2615	16738.64	3.7970	3.7970	-0.8090	25.89	0.08	-0.750			
0.2639	16892.50	3.7940	3.7940	-0.8079	25.90	0.09	-0.750			
0.2664	17047.98	3.7910	3.7909	-0.8067	25.90	0.09	-0.750			
0.2688	17203.57	3.7880	3.7879	-0.8033	25.91	0.10	-0.750			
0.2712	17358.56	3.7850	3.7852	-0.8007	25.91	0.10	-0.750			
0.2736	17512.38	3.7820	3.7819	-0.7970	25.91	0.10	-0.750			
0.2760	17664.20	3.7790	3.7789	-0.7909	25.91	0.10	-0.750			
0.2783	17812.40	3.7760	3.7760	-0.7850	25.91	0.10	-0.750			
0.2807	17963.42	3.7730	3.7729	-0.7832	25.91	0.10	-0.750			
0.2831	18115.82	3.7700	3.7700	-0.7834	25.91	0.10	-0.750			
0.2854	18266.23	3.7670	3.7670	-0.7808	25.91	0.10	-0.750			
0.2877	18415.22	3.7640	3.7640	-0.7827	25.92	0.11	-0.750			
0.2901	18566.32	3.7610	3.7610	-0.7776	25.92	0.11	-0.750			
0.2924	18714.27	3.7580	3.7579	-0.7776	25.92	0.11	-0.750			
0.2947	18863.16	3.7550	3.7551	-0.7791	25.93	0.12	-0.750			
0.2971	19012.90	3.7520	3.7520	-0.7837	25.93	0.12	-0.750			
0.2994	19162.73	3.7490	3.7490	-0.7869	25.93	0.12	-0.750			
0.3018	19313.41	3.7460	3.7460	-0.7965	25.93	0.12	-0.750			
0.3042	19468.76	3.7430	3.7429	-0.7964	25.93	0.12	-0.750			
0.3066	19624.56	3.7400	3.7399	-0.8043	25.93	0.12	-0.750			
0.3090	19777.11	3.7370	3.7373	-0.8074	25.93	0.12	-0.750			
0.3114	19932.42	3.7340	3.7340	-0.8124	25.93	0.12	-0.750			
0.3139	20088.49	3.7310	3.7308	-0.8223	25.94	0.13	-0.750			
0.3163	20245.96	3.7280	3.7280	-0.8256	25.94	0.13	-0.750			
0.3188	20406.16	3.7250	3.7250	-0.8392	25.95	0.14	-0.750			
0.3214	20568.97	3.7220	3.7222	-0.8516	25.95	0.14	-0.750			
0.3239	20731.13	3.7190	3.7189	-0.8663	25.95	0.14	-0.750			
0.3265	20897.93	3.7160	3.7160	-0.8822	25.95	0.14	-0.750			
0.3292	21068.58	3.7130	3.7130	-0.8986	25.95	0.14	-0.750			
0.3320	21245.61	3.7100	3.7100	-0.9207	25.95	0.14	-0.750			
0.3348	21424.07	3.7070	3.7071	-0.9362	25.95	0.14	-0.750			
0.3376	21604.48	3.7040	3.7041	-0.9561	25.94	0.13	-0.750			
0.3405	21790.44	3.7010	3.7009	-0.9684	25.94	0.13	-0.750			
0.3434	21976.91	3.6980	3.6979	-0.9847	25.94	0.13	-0.750			
0.3464	22166.88	3.6950	3.6953	-1.0056	25.93	0.12	-0.750			
0.3494	22362.27	3.6920	3.6919	-1.0220	25.93	0.12	-0.750			
0.3525	22560.71	3.6890	3.6890	-1.0412	25.93	0.12	-0.750			
0.3556	22760.80	3.6860	3.6860	-1.0596	25.92	0.11	-0.750			
0.3589	22967.34	3.6830	3.6831	-1.0828	25.92	0.11	-0.750			
0.3621	23177.11	3.6800	3.6800	-1.1032	25.92	0.11	-0.750			
0.3654	23388.50	3.6770	3.6770	-1.1232	25.91	0.10	-0.750			
0.3689	23607.03	3.6740	3.6740	-1.1447	25.91	0.10	-0.750			
0.3723	23828.51	3.6710	3.6710	-1.1742	25.91	0.10	-0.750			
0.3759	24057.44	3.6680	3.6680	-1.2009	25.90	0.09	-0.750			
0.3796	24291.98	3.6650	3.6649	-1.2216	25.90	0.09	-0.750			
0.3833	24528.06	3.6620	3.6618	-1.2520	25.89	0.08	-0.750			
0.3870	24771.16	3.6590	3.6590	-1.2725	25.89	0.08	-0.750			
0.3909	25017.02	3.6560	3.6560	-1.2940	25.88	0.07	-0.750			
0.3948	25266.04	3.6530	3.6529	-1.3246	25.87	0.06	-0.750			
0.3988	25523.96	3.6500	3.6499	-1.3572	25.87	0.06	-0.750			
0.4029	25785.79	3.6470	3.6470	-1.3796	25.86	0.05	-0.750			
0.4071	26054.84	3.6440	3.6439	-1.4119	25.85	0.04	-0.750			
0.4113	26325.64	3.6410	3.6410	-1.4456	25.84	0.03	-0.750			
0.4157	26607.28	3.6380	3.6380	-1.4851	25.83	0.02	-0.750			
0.4203	26896.68	3.6350	3.6349	-1.5193	25.82	0.01	-0.750			
0.4248	27187.69	3.6320	3.6319	-1.5576	25.81	0.00	-0.750			
0.4296	27494.10	3.6290	3.6289	-1.5993	25.81	-0.00	-0.750			
0.4345	27806.27	3.6260	3.6260	-1.6272	25.80	-0.01	-0.750			
0.4394	28120.96	3.6230	3.6229	-1.6441	25.80	-0.01	-0.750			
0.4444	28442.88	3.6200	3.6201	-1.6598	25.79	-0.02	-0.750	0.409	0.528	
0.4494	28763.57	3.6170	3.6169	-1.6854	25.79	-0.02	-0.750			
0.4545	29086.16	3.6140	3.6139	-1.7257	25.78	-0.03	-0.750			
0.4597	29419.42	3.6110	3.6111	-1.7502	25.77	-0.04	-0.750			
0.4650	29757.10	3.6080	3.6082	-1.8000	25.76	-0.05	-0.750			
0.4705	30112.78	3.6050	3.6050	-1.8262	25.75	-0.06	-0.750			
0.4761	30470.29	3.6020	3.6020	-1.8696	25.75	-0.06	-0.750			
0.4817	30831.29	3.5990	3.5991	-1.9089	25.74	-0.07	-0.750			
0.4875	31198.68	3.5960	3.5961	-1.9463	25.73	-0.08	-0.750			
0.4933	31571.24	3.5930	3.5932	-1.9808	25.73	-0.08	-0.750			
0.4994	31958.53	3.5900	3.5901	-2.0235	25.72	-0.09	-0.750			
0.5054	32347.41	3.5870	3.5870	-2.0599	25.72	-0.09	-0.750			
0.5118	32752.68	3.5840	3.5840	-2.1154	25.72	-0.09	-0.750			
0.5181	33161.15	3.5810	3.5810	-2.1441	25.71	-0.10	-0.750			
0.5247	33577.89	3.5780	3.5780	-2.1720	25.71	-0.10	-0.750			
0.5312	33997.54	3.5750	3.5750	-2.1877	25.70	-0.11	-0.750			
0.5378	34420.27	3.5720	3.5720	-2.2069	25.70	-0.11	-0.750			
0.5445	34848.12	3.5690	3.5690	-2.2162	25.69	-0.12	-0.750			
0.5511	35272.95	3.5660	3.5660	-2.2340	25.69	-0.12	-0.750			
0.5578	35700.63	3.5630	3.5630	-2.2441	25.70	-0.11	-0.750			
0.5646	36136.31	3.5600	3.5600	-2.2587	25.70	-0.11	-0.750			
0.5714	36572.71	3.5570	3.5572	-2.2580	25.70	-0.11	-0.750			
0.5783	37008.03	3.5540	3.5541	-2.2642	25.70	-0.11	-0.750			
0.5851	37443.23	3.5510	3.5510	-2.2583	25.70	-0.11	-0.750			
0.5918	37877.91	3.5480	3.5480	-2.2409	25.70	-0.11	-0.750			
0.5986	38307.29	3.5450	3.5450	-2.2239	25.70	-0.11	-0.750			
0.6052	38735.44	3.5420	3.5419	-2.1901	25.71	-0.10	-0.750			
0.6118	39152.95	3.5390	3.5390	-2.1599	25.71	-0.10	-0.750			
0.6182	39563.19	3.5360	3.5361	-2.1378	25.72	-0.09	-0.750			
0.6245	39967.36	3.5330	3.5328	-2.1034	25.73	-0.08	-0.750			
0.6308	40372.72	3.5300	3.5300	-2.0625	25.74	-0.07	-0.750			
0.6370	40768.12	3.5270	3.5270	-2.0332	25.75	-0.06	-0.750			
0.6431	41160.38	3.5240	3.5240	-1.9893	25.75	-0.06	-0.750			
0.6490	41534.72	3.5210	3.5212	-1.9387	25.76	-0.05	-0.750			
0.6547	41901.58	3.5180	3.5179	-1.8820	25.77	-0.04	-0.750			
0.6603	42256.72	3.5150	3.5150	-1.8306	25.78	-0.03	-0.750			
0.6657	42603.76	3.5120	3.5120	-1.7843	25.80	-0.01	-0.750			
0.6710	42945.18	3.5090	3.5089	-1.7342	25.81	-0.00	-0.750			
0.6762	43275.47	3.5060	3.5061	-1.6776	25.82	0.01	-0.750			
0.6811	43593.60	3.5030	3.5028	-1.6318	25.84	0.03	-0.750			
0.6859	43897.44	3.5000	3.5000	-1.5659	25.86	0.05	-0.750			
0.6906	44195.64	3.4970	3.4969	-1.5206	25.87	0.06	-0.750			
0.6950	44478.55	3.4940	3.4940	-1.4647	25.88	0.07	-0.750			
0.6993	44757.99	3.4910	3.4910	-1.4177	25.90	0.09	-0.750			
0.7035	45026.16	3.4880	3.4880	-1.3756	25.92	0.11	-0.750			
0.7076	45283.57	3.4850	3.4850	-1.3326	25.94	0.13	-0.750			
0.7115	45534.73	3.4820	3.4819	-1.2871	25.96	0.15	-0.750			
0.7153	45779.16	3.4790	3.4790	-1.2484	25.97	0.16	-0.750			
0.7190	46014.26	3.4760	3.4759	-1.2064	25.99	0.18	-0.750			
0.7225	46239.26	3.4730	3.4732	-1.1752	26.01	0.20	-0.750			
0.7260	46465.55	3.4700	3.4700	-1.1351	26.03	0.22	-0.750			
0.7294	46678.42	3.4670	3.4669	-1.0942	26.04	0.23	-0.750			
0.7326	46884.99	3.4640	3.4640	-1.0523	26.06	0.25	-0.750			
0.7357	47085.13	3.4610	3.4609	-1.0189	26.08	0.27	-0.750			
0.7387	47275.60	3.4580	3.4580	-0.9877	26.08	0.27	-0.750			
0.7416	47460.66	3.4550	3.4551	-0.9561	26.09	0.28	-0.750			
0.7443	47638.28	3.4520	3.4519	-0.9231	26.10	0.29	-0.750			
0.7471	47815.38	3.4490	3.4491	-0.9112	26.11	0.30	-0.750			
0.7498	47985.17	3.4460	3.4460	-0.8932	26.13	0.32	-0.750			
0.7524	48154.73	3.4430	3.4429	-0.8833	26.14	0.33	-0.750			
0.7550	48320.45	3.4400	3.4400	-0.8797	26.15	0.34	-0.750			
0.7576	48486.20	3.4370	3.4371	-0.8888	26.16	0.35	-0.750			
0.7603	48657.87	3.4340	3.4340	-0.9033	26.17	0.36	-0.750			
0.7630	48832.11	3.4310	3.4309	-0.9254	26.18	0.37	-0.750			
0.7658	49011.85	3.4280	3.4280	-0.9435	26.19	0.38	-0.750			
0.7687	49196.26	3.4250	3.4250	-0.9632	26.20	0.39	-0.750			
0.7716	49384.84	3.4220	3.4222	-0.9815	26.21	0.40	-0.750			
0.7746	49575.71	3.4190	3.4190	-0.9909	26.22	0.41	-0.750			
0.7776	49767.98	3.4160	3.4160	-0.9967	26.23	0.42	-0.750			
0.7806	49961.18	3.4130	3.4130	-0.9959	26.24	0.43	-0.750			
0.7837	50154.31	3.4100	3.4100	-0.9943	26.25	0.44	-0.750			
0.7866	50343.97	3.4070	3.4070	-0.9817	26.26	0.45	-0.750			
0.7896	50534.88	3.4040	3.4040	-0.9567	26.27	0.46	-0.750			
0.7924	50716.77	3.4010	3.4010	-0.9253	26.28	0.47	-0.750			
0.7952	50892.12	3.3980	3.3979	-0.8973	26.29	0.48	-0.750			
0.7978	51061.48	3.3950	3.3948	-0.8663	26.30	0.49	-0.750			
0.8004	51223.58	3.3920	3.3919	-0.8341	26.31	0.50	-0.750			
0.8028	51380.69	3.3890	3.3891	-0.7989	26.32	0.51	-0.750			
0.8052	51529.79	3.3860	3.3860	-0.7666	26.32	0.51	-0.750			
0.8075	51677.52	3.3830	3.3828	-0.7423	26.33	0.52	-0.750			
0.8096	51814.83	3.3800	3.3801	-0.7138	26.34	0.53	-0.750			
0.8117	51947.79	3.3770	3.3769	-0.6870	26.35	0.54	-0.750			
0.8137	52077.54	3.3740	3.3740	-0.6620	26.35	0.54	-0.750			
0.8157	52201.99	3.3710	3.3710	-0.6376	26.36	0.55	-0.750			
0.8176	52324.27	3.3680	3.3680	-0.6182	26.36	0.55	-0.750			
0.8194	52440.16	3.3650	3.3650	-0.5953	26.36	0.55	-0.750			
0.8211	52552.06	3.3620	3.3620	-0.5707	26.37	0.56	-0.750			
0.8228	52658.71	3.3590	3.3590	-0.5485	26.38	0.57	-0.750			
0.8244	52761.12	3.3560	3.3560	-0.5282	26.38	0.57	-0.750			
0.8259	52860.66	3.3530	3.3530	-0.5085	26.39	0.58	-0.750			
0.8274	52956.04	3.3500	3.3499	-0.4890	26.40	0.59	-0.750			
0.8289	53047.10	3.3470	3.3470	-0.4752	26.41	0.60	-0.750			
0.8303	53136.83	3.3440	3.3440	-0.4591	26.41	0.60	-0.750			
0.8316	53224.87	3.3410	3.3409	-0.4425	26.42	0.61	-0.750			
0.8329	53308.10	3.3380	3.3379	-0.4239	26.42	0.61	-0.750			
0.8342	53387.31	3.3350	3.3353	-0.4077	26.43	0.62	-0.750			
0.8354	53463.89	3.3320	3.3320	-0.3938	26.44	0.63	-0.750			
0.8365	53536.93	3.3290	3.3289	-0.3799	26.44	0.63	-0.750			
0.8376	53607.84	3.3260	3.3259	-0.3682	26.45	0.64	-0.750			
0.8387	53677.90	3.3230	3.3231	-0.3599	26.46	0.65	-0.750			
0.8398	53746.31	3.3200	3.3201	-0.3508	26.46	0.65	-0.750			
0.8408	53813.16	3.3170	3.3169	-0.3410	26.47	0.66	-0.750			
0.8418	53877.69	3.3140	3.3139	-0.3294	26.47	0.66	-0.750			
0.8428	53938.99	3.3110	3.3111	-0.3181	26.48	0.67	-0.750			
0.8437	53998.94	3.3080	3.3080	-0.3090	26.48	0.67	-0.750			
0.8447	54057.64	3.3050	3.3050	-0.2997	26.49	0.68	-0.750			
0.8455	54113.91	3.3020	3.3019	-0.2921	26.49	0.68	-0.750			
0.8464	54168.67	3.2990	3.2991	-0.2839	26.50	0.69	-0.750			
0.8472	54222.70	3.2960	3.2960	-0.2768	26.50	0.69	-0.750			
0.8481	54275.37	3.2930	3.2930	-0.2705	26.51	0.70	-0.750			
0.8489	54326.48	3.2900	3.2901	-0.2636	26.51	0.70	-0.750			
0.8496	54375.89	3.2870	3.2870	-0.2578	26.52	0.71	-0.750			
0.8504	54425.08	3.2840	3.2840	-0.2519	26.52	0.71	-0.750			
0.8511	54472.49	3.2810	3.2810	-0.2465	26.53	0.72	-0.750			
0.8519	54519.35	3.2780	3.2780	-0.2421	26.53	0.72	-0.750			
0.8526	54565.63	3.2750	3.2751	-0.2370	26.54	0.73	-0.750			
0.8533	54610.59	3.2720	3.2719	-0.2316	26.54	0.73	-0.750			
0.8540	54654.41	3.2690	3.2690	-0.2270	26.55	0.74	-0.750			
0.8546	54697.49	3.2660	3.2661	-0.2224	26.55	0.74	-0.750			
0.8553	54739.42	3.2630	3.2630	-0.2181	26.56	0.75	-0.750			
0.8560	54781.17	3.2600	3.2599	-0.2144	26.56	0.75	-0.750			
0.8566	54821.38	3.2570	3.2571	-0.2105	26.56	0.75	-0.750			
0.8572	54861.44	3.2540	3.2539	-0.2072	26.57	0.76	-0.750			
0.8578	54901.19	3.2510	3.2511	-0.2046	26.57	0.76	-0.750			
0.8584	54939.98	3.2480	3.2479	-0.2017	26.58	0.77	-0.750			
0.8590	54978.22	3.2450	3.2451	-0.1985	26.58	0.77	-0.750			
0.8596	55016.13	3.2420	3.2420	-0.1959	26.59	0.78	-0.750			
0.8602	55053.40	3.2390	3.2390	-0.1930	26.59	0.78	-0.750			
0.8608	55090.22	3.2360	3.2360	-0.1905	26.60	0.79	-0.750			
0.8614	55126.60	3.2330	3.2330	-0.1871	26.60	0.79	-0.750			
0.8619	55162.23	3.2300	3.2300	-0.1850	26.61	0.80	-0.750			
0.8625	55197.50	3.2270	3.2270	-0.1822	26.62	0.81	-0.750			
0.8630	55232.22	3.2240	3.2239	-0.1794	26.62	0.81	-0.750			
0.8635	55266.26	3.2210	3.2210	-0.1764	26.63	0.82	-0.750			
0.8641	55299.93	3.2180	3.2181	-0.1736	26.63	0.82	-0.750			
0.8646	55332.64	3.2150	3.2151	-0.1718	26.64	0.83	-0.750			
0.8651	55365.47	3.2120	3.2120	-0.1701	26.64	0.83	-0.750			
0.8656	55397.88	3.2090	3.2090	-0.1688	26.65	0.84	-0.750			
0.8661	55429.74	3.2060	3.2059	-0.1671	26.66	0.85	-0.750			
0.8666	55461.78	3.2030	3.2029	-0.1666	26.66	0.85	-0.750			
0.8671	55493.86	3.2000	3.2001	-0.1645	26.67	0.86	-0.750			
0.8676	55525.79	3.1970	3.1970	-0.1622	26.67	0.86	-0.750			
0.8681	55556.94	3.1940	3.1941	-0.1602	26.68	0.87	-0.750			
0.8686	55587.22	3.1910	3.1910	-0.1568	26.68	0.87	-0.750			
0.8690	55616.84	3.1880	3.1880	-0.1555	26.68	0.87	-0.750			
0.8695	55646.16	3.1850	3.1850	-0.1544	26.69	0.88	-0.750			
0.8699	55675.49	3.1820	3.1819	-0.1525	26.69	0.88	-0.750			
0.8704	55704.71	3.1790	3.1790	-0.1520	26.69	0.88	-0.750			
0.8708	55734.06	3.1760	3.1760	-0.1506	26.70	0.89	-0.750			
0.8713	55763.13	3.1730	3.1731	-0.1498	26.70	0.89	-0.750			
0.8717	55791.66	3.1700	3.1700	-0.1485	26.70	0.89	-0.750			
0.8722	55820.02	3.1670	3.1670	-0.1469	26.71	0.90	-0.750			
0.8726	55847.97	3.1640	3.1639	-0.1449	26.72	0.91	-0.750			
0.8731	55875.43	3.1610	3.1611	-0.1436	26.72	0.91	-0.750			
0.8735	55902.94	3.1580	3.1580	-0.1430	26.73	0.92	-0.750			
0.8739	55930.31	3.1550	3.1551	-0.1421	26.73	0.92	-0.750			
0.8743	55957.65	3.1520	3.1518	-0.1404	26.74	0.93	-0.750			
0.8748	55984.46	3.1490	3.1490	-0.1388	26.75	0.94	-0.750			
0.8752	56010.96	3.1460	3.1460	-0.1374	26.75	0.94	-0.750			
0.8756	56037.21	3.1430	3.1432	-0.1360	26.76	0.95	-0.750			
0.8760	56063.26	3.1400	3.1400	-0.1351	26.76	0.95	-0.750			
0.8764	56088.49	3.1370	3.1370	-0.1339	26.77	0.96	-0.750			
0.8768	56113.90	3.1340	3.1340	-0.1331	26.77	0.96	-0.750			
0.8772	56139.73	3.1310	3.1310	-0.1325	26.78	0.97	-0.750			
0.8776	56165.36	3.1280	3.1280	-0.1324	26.79	0.98	-0.750			
0.8780	56190.95	3.1250	3.1248	-0.1312	26.79	0.98	-0.750			
0.8784	56215.94	3.1220	3.1221	-0.1306	26.80	0.99	-0.750			
0.8788	56240.89	3.1190	3.1190	-0.1294	26.80	0.99	-0.750			
0.8792	56265.63	3.1160	3.1160	-0.1282	26.81	1.00	-0.750			
0.8795	56290.14	3.1130	3.1129	-0.1270	26.81	1.00	-0.750			
0.8799	56314.12	3.1100	3.1102	-0.1252	26.81	1.00	-0.750			
0.8803	56338.26	3.1070	3.1070	-0.1249	26.82	1.01	-0.750			
0.8807	56362.11	3.1040	3.1039	-0.1236	26.82	1.01	-0.750			
0.8810	56385.60	3.1010	3.1011	-0.1229	26.83	1.02	-0.750			
0.8814	56408.79	3.0980	3.0980	-0.1214	26.83	1.02	-0.750			
0.8818	56432.19	3.0950	3.0949	-0.1209	26.83	1.02	-0.750			
0.8821	56455.37	3.0920	3.0921	-0.1205	26.84	1.03	-0.750			
0.8825	56478.56	3.0890	3.0890	-0.1197	26.84	1.03	-0.750			
0.8828	56501.66	3.0860	3.0860	-0.1192	26.85	1.04	-0.750			
0.8832	56524.41	3.0830	3.0830	-0.1183	26.85	1.04	-0.750			
0.8835	56547.06	3.0800	3.0800	-0.1174	26.85	1.04	-0.750			
0.8839	56569.52	3.0770	3.0770	-0.1165	26.86	1.05	-0.750			
0.8842	56591.73	3.0740	3.0739	-0.1154	26.86	1.05	-0.750			
0.8846	56613.78	3.0710	3.0711	-0.1147	26.87	1.06	-0.750			
0.8849	56635.72	3.0680	3.0680	-0.1139	26.87	1.06	-0.750			
0.8853	56657.47	3.0650	3.0650	-0.1133	26.88	1.07	-0.750			
0.8856	56679.13	3.0620	3.0619	-0.1126	26.89	1.08	-0.750			
0.8859	56700.67	3.0590	3.0591	-0.1121	26.89	1.08	-0.750			
0.8863	56722.05	3.0560	3.0560	-0.1115	26.90	1.09	-0.750			
0.8866	56743.43	3.0530	3.0530	-0.1110	26.90	1.09	-0.750			
0.8869	56764.75	3.0500	3.0500	-0.1106	26.91	1.10	-0.750			
0.8873	56786.06	3.0470	3.0470	-0.1098	26.91	1.10	-0.750			
0.8876	56807.16	3.0440	3.0440	-0.1092	26.92	1.11	-0.750			
0.8879	56828.03	3.0410	3.0410	-0.1083	26.92	1.11	-0.750			
0.8883	56848.80	3.0380	3.0380	-0.1075	26.93	1.12	-0.750			
0.8886	56869.13	3.0350	3.0350	-0.1072	26.94	1.13	-0.750			
0.8889	56889.49	3.0320	3.0320	-0.1064	26.94	1.13	-0.750			
0.8892	56910.00	3.0290	3.0290	-0.1059	26.95	1.14	-0.750			
0.8895	56930.19	3.0260	3.0259	-0.1053	26.95	1.14	-0.750			
0.8898	56950.37	3.0230	3.0229	-0.1050	26.96	1.15	-0.750			
0.8902	56970.66	3.0200	3.0201	-0.1048	26.96	1.15	-0.750			
0.8905	56990.71	3.0170	3.0170	-0.1042	26.97	1.16	-0.750			
0.8908	57010.86	3.0140	3.0139	-0.1034	26.97	1.16	-0.750			
0.8911	57030.62	3.0110	3.0110	-0.1024	26.98	1.17	-0.750			
0.8914	57050.02	3.0080	3.0081	-0.1016	26.98	1.17	-0.751			
0.8917	57069.47	3.0050	3.0050	-0.1010	26.99	1.18	-0.751			
0.8920	57088.74	3.0020	3.0020	-0.0979	26.99	1.18	-0.751			
