Ah_balance (normalized)	Ah_balance (mAh)	Voltage - fit (V)	Voltage -  interpolate (V)	dQ/dV (1/V)	Temperature (°C)	Temperature - diff (°C)	Current (C)	R_DC 0ms (mOhm)	R_DC 50ms (mOhm)	R_DC 50 ms PEC (mOhm)
0.0529	3385.53	4.1980	4.1980	0.7239	26.60	0.67	0.750			
0.0551	3526.46	4.1950	4.1951	0.7425	26.60	0.67	0.750			
0.0574	3673.06	4.1920	4.1920	0.7545	26.60	0.67	0.750			
0.0597	3818.45	4.1890	4.1890	0.7573	26.60	0.67	0.750			
0.0619	3964.66	4.1860	4.1861	0.7584	26.60	0.67	0.750			
0.0643	4112.24	4.1830	4.1829	0.7583	26.60	0.67	0.750			
0.0665	4255.79	4.1800	4.1800	0.7605	26.60	0.67	0.750			
0.0688	4400.25	4.1770	4.1770	0.7587	26.60	0.67	0.750			
0.0710	4546.45	4.1740	4.1739	0.7626	26.60	0.67	0.750			
0.0733	4693.94	4.1710	4.1711	0.7688	26.60	0.67	0.750			
0.0757	4843.85	4.1680	4.1680	0.7656	26.59	0.66	0.750			
0.0780	4990.09	4.1650	4.1649	0.7709	26.59	0.66	0.750			
0.0803	5138.21	4.1620	4.1621	0.7736	26.59	0.66	0.750			
0.0826	5286.37	4.1590	4.1591	0.7703	26.58	0.65	0.750			
0.0849	5435.55	4.1560	4.1561	0.7715	26.58	0.65	0.750			
0.0872	5583.18	4.1530	4.1531	0.7731	26.58	0.65	0.750			
0.0895	5730.61	4.1500	4.1501	0.7724	26.58	0.65	0.750			
0.0919	5879.88	4.1470	4.1470	0.7734	26.58	0.65	0.750			
0.0942	6026.84	4.1440	4.1439	0.7725	26.58	0.65	0.750			
0.0965	6176.35	4.1410	4.1406	0.7786	26.58	0.65	0.750			
0.0989	6326.84	4.1380	4.1381	0.7838	26.58	0.65	0.750			
0.1012	6478.83	4.1350	4.1351	0.7781	26.58	0.65	0.750			
0.1035	6627.14	4.1320	4.1320	0.7829	26.58	0.65	0.750			
0.1059	6778.00	4.1290	4.1290	0.7883	26.58	0.65	0.750			
0.1082	6927.66	4.1260	4.1261	0.7933	26.58	0.65	0.750			
0.1106	7079.82	4.1230	4.1230	0.7980	26.58	0.65	0.750			
0.1131	7236.74	4.1200	4.1200	0.7968	26.58	0.65	0.750			
0.1155	7390.80	4.1170	4.1171	0.7951	26.58	0.65	0.750			
0.1179	7544.82	4.1140	4.1140	0.7975	26.58	0.65	0.750			
0.1202	7694.52	4.1110	4.1109	0.7879	26.58	0.65	0.750			
0.1226	7844.21	4.1080	4.1080	0.7855	26.58	0.65	0.750			
0.1249	7995.45	4.1050	4.1050	0.7795	26.58	0.65	0.750			
0.1273	8146.50	4.1020	4.1020	0.7718	26.58	0.65	0.750			
0.1296	8292.25	4.0990	4.0991	0.7764	26.58	0.65	0.750			
0.1319	8439.17	4.0960	4.0962	0.7740	26.58	0.65	0.750			
0.1342	8586.53	4.0930	4.0926	0.7800	26.58	0.65	0.750			
0.1365	8735.68	4.0900	4.0901	0.7861	26.58	0.65	0.750			
0.1389	8889.08	4.0870	4.0871	0.7914	26.59	0.66	0.750			
0.1413	9044.81	4.0840	4.0840	0.8085	26.59	0.66	0.750			
0.1437	9198.48	4.0810	4.0811	0.8072	26.60	0.67	0.750			
0.1462	9354.06	4.0780	4.0779	0.8124	26.60	0.67	0.750			
0.1486	9512.28	4.0750	4.0750	0.8187	26.60	0.67	0.750			
0.1511	9671.30	4.0720	4.0720	0.8136	26.60	0.67	0.750			
0.1536	9827.33	4.0690	4.0690	0.8222	26.60	0.67	0.750			
0.1560	9986.14	4.0660	4.0661	0.8267	26.60	0.67	0.750			
0.1585	10142.51	4.0630	4.0628	0.8226	26.60	0.67	0.750			
0.1610	10301.45	4.0600	4.0602	0.8272	26.60	0.67	0.750			
0.1635	10464.60	4.0570	4.0569	0.8168	26.60	0.67	0.750			
0.1659	10619.62	4.0540	4.0541	0.8195	26.60	0.67	0.750			
0.1684	10775.50	4.0510	4.0511	0.8296	26.60	0.67	0.750			
0.1708	10932.08	4.0480	4.0482	0.8314	26.60	0.67	0.750			
0.1733	11093.07	4.0450	4.0451	0.8343	26.60	0.67	0.750			
0.1759	11255.33	4.0420	4.0421	0.8357	26.60	0.67	0.750			
0.1784	11416.35	4.0390	4.0392	0.8413	26.60	0.67	0.750			
0.1810	11581.63	4.0360	4.0359	0.8486	26.60	0.67	0.750			
0.1834	11739.87	4.0330	4.0329	0.8409	26.60	0.67	0.750			
0.1860	11901.15	4.0300	4.0300	0.8452	26.60	0.67	0.750			
0.1885	12064.95	4.0270	4.0270	0.8478	26.60	0.67	0.750			
0.1911	12228.13	4.0240	4.0241	0.8565	26.61	0.68	0.750			
0.1936	12392.82	4.0210	4.0210	0.8577	26.61	0.68	0.750			
0.1962	12557.50	4.0180	4.0179	0.8676	26.61	0.68	0.750			
0.1988	12724.87	4.0150	4.0150	0.8728	26.61	0.68	0.750			
0.2015	12897.06	4.0120	4.0119	0.8563	26.61	0.68	0.750			
0.2041	13060.47	4.0090	4.0091	0.8626	26.62	0.69	0.750			
0.2066	13221.66	4.0060	4.0063	0.8633	26.62	0.69	0.750			
0.2092	13386.34	4.0030	4.0023	0.8643	26.62	0.69	0.750			
0.2118	13555.35	4.0000	4.0001	0.8587	26.62	0.69	0.750			
0.2144	13718.57	3.9970	3.9970	0.8626	26.62	0.69	0.750			
0.2170	13888.96	3.9940	3.9943	0.8777	26.62	0.69	0.750			
0.2197	14061.55	3.9910	3.9909	0.8804	26.62	0.69	0.750			
0.2222	14221.74	3.9880	3.9877	0.8731	26.62	0.69	0.750			
0.2248	14389.52	3.9850	3.9852	0.8803	26.62	0.69	0.750			
0.2275	14560.76	3.9820	3.9820	0.8878	26.62	0.69	0.750			
0.2302	14733.56	3.9790	3.9789	0.8925	26.63	0.70	0.750			
0.2328	14902.33	3.9760	3.9761	0.8916	26.63	0.70	0.750			
0.2355	15074.54	3.9730	3.9731	0.8994	26.63	0.70	0.750			
0.2383	15250.36	3.9700	3.9699	0.9016	26.63	0.70	0.750			
0.2410	15422.03	3.9670	3.9670	0.8993	26.63	0.70	0.750			
0.2437	15594.83	3.9640	3.9642	0.9068	26.63	0.70	0.750			
0.2464	15770.53	3.9610	3.9607	0.9080	26.63	0.70	0.750			
0.2492	15947.54	3.9580	3.9579	0.9024	26.63	0.70	0.750			
0.2519	16118.51	3.9550	3.9551	0.9002	26.63	0.70	0.750			
0.2546	16291.23	3.9520	3.9520	0.9013	26.64	0.71	0.750			
0.2573	16464.84	3.9490	3.9490	0.9004	26.64	0.71	0.750			
0.2599	16634.06	3.9460	3.9459	0.8994	26.64	0.71	0.750			
0.2626	16805.82	3.9430	3.9430	0.9028	26.64	0.71	0.750			
0.2653	16981.77	3.9400	3.9400	0.9153	26.64	0.71	0.750			
0.2681	17159.01	3.9370	3.9370	0.9190	26.64	0.71	0.750			
0.2709	17335.48	3.9340	3.9340	0.9159	26.64	0.71	0.750			
0.2736	17513.41	3.9310	3.9311	0.9194	26.64	0.71	0.750			
0.2764	17691.60	3.9280	3.9280	0.9072	26.64	0.71	0.750			
0.2791	17862.58	3.9250	3.9250	0.9064	26.63	0.70	0.750			
0.2818	18034.85	3.9220	3.9222	0.9024	26.63	0.70	0.750			
0.2845	18206.18	3.9190	3.9186	0.9025	26.63	0.70	0.750			
0.2872	18380.76	3.9160	3.9161	0.9043	26.63	0.70	0.750			
0.2899	18554.20	3.9130	3.9131	0.9101	26.63	0.70	0.750			
0.2926	18728.68	3.9100	3.9100	0.9226	26.62	0.69	0.750			
0.2954	18906.95	3.9070	3.9070	0.9225	26.62	0.69	0.750			
0.2982	19085.10	3.9040	3.9040	0.9268	26.62	0.69	0.750			
0.3010	19264.78	3.9010	3.9011	0.9376	26.62	0.69	0.750			
0.3038	19444.77	3.8980	3.8981	0.9451	26.62	0.69	0.750			
0.3067	19627.93	3.8950	3.8949	0.9494	26.62	0.69	0.750			
0.3095	19809.47	3.8920	3.8920	0.9504	26.62	0.69	0.750			
0.3124	19993.74	3.8890	3.8890	0.9434	26.62	0.69	0.750			
0.3152	20175.35	3.8860	3.8861	0.9573	26.61	0.68	0.750			
0.3181	20357.16	3.8830	3.8831	0.9624	26.61	0.68	0.750			
0.3210	20541.33	3.8800	3.8798	0.9642	26.60	0.67	0.750			
0.3239	20728.92	3.8770	3.8769	0.9646	26.59	0.66	0.750			
0.3268	20915.48	3.8740	3.8741	0.9681	26.58	0.65	0.750			
0.3297	21100.34	3.8710	3.8712	0.9733	26.57	0.64	0.750			
0.3326	21286.86	3.8680	3.8680	0.9792	26.57	0.64	0.750			
0.3356	21476.10	3.8650	3.8649	0.9853	26.56	0.63	0.750			
0.3385	21663.71	3.8620	3.8620	0.9920	26.55	0.62	0.750			
0.3415	21857.23	3.8590	3.8591	1.0079	26.55	0.62	0.750			
0.3446	22056.85	3.8560	3.8561	1.0223	26.54	0.61	0.750			
0.3477	22252.94	3.8530	3.8530	1.0177	26.54	0.61	0.750			
0.3507	22447.98	3.8500	3.8500	1.0190	26.53	0.60	0.750			
0.3538	22640.56	3.8470	3.8471	1.0246	26.52	0.59	0.750			
0.3569	22839.66	3.8440	3.8440	1.0337	26.51	0.58	0.750			
0.3600	23040.63	3.8410	3.8411	1.0333	26.50	0.57	0.750			
0.3631	23239.15	3.8380	3.8380	1.0350	26.49	0.56	0.750			
0.3662	23438.17	3.8350	3.8352	1.0434	26.48	0.55	0.750			
0.3694	23639.46	3.8320	3.8321	1.0464	26.47	0.54	0.750			
0.3726	23843.32	3.8290	3.8289	1.0346	26.46	0.53	0.750			
0.3756	24038.73	3.8260	3.8260	1.0360	26.45	0.52	0.750			
0.3787	24235.34	3.8230	3.8232	1.0504	26.44	0.51	0.750			
0.3818	24437.94	3.8200	3.8200	1.0586	26.44	0.51	0.750			
0.3851	24644.58	3.8170	3.8167	1.0558	26.43	0.50	0.750			
0.3882	24846.59	3.8140	3.8142	1.0646	26.41	0.48	0.750			
0.3915	25052.88	3.8110	3.8111	1.0770	26.40	0.47	0.750			
0.3947	25260.76	3.8080	3.8080	1.0878	26.39	0.46	0.750			
0.3979	25467.29	3.8050	3.8050	1.0808	26.38	0.45	0.750			
0.4012	25675.83	3.8020	3.8020	1.0907	26.37	0.44	0.750			
0.4045	25885.42	3.7990	3.7991	1.1113	26.36	0.43	0.750			
0.4078	26100.56	3.7960	3.7960	1.1266	26.34	0.41	0.750			
0.4112	26316.78	3.7930	3.7930	1.1271	26.33	0.40	0.750			
0.4146	26533.79	3.7900	3.7900	1.1453	26.32	0.39	0.750			
0.4181	26758.48	3.7870	3.7872	1.1526	26.31	0.38	0.750			
0.4216	26982.22	3.7840	3.7837	1.1670	26.30	0.37	0.750			
0.4251	27204.11	3.7810	3.7811	1.1816	26.29	0.36	0.750			
0.4286	27429.56	3.7780	3.7782	1.2014	26.28	0.35	0.750			
0.4323	27665.52	3.7750	3.7747	1.2129	26.27	0.34	0.750			
0.4359	27897.62	3.7720	3.7721	1.2320	26.26	0.33	0.750			
0.4395	28130.58	3.7690	3.7692	1.2672	26.25	0.32	0.750			
0.4434	28378.47	3.7660	3.7661	1.3131	26.23	0.30	0.750			
0.4474	28635.26	3.7630	3.7626	1.3232	26.22	0.29	0.750	0.318	0.418	
0.4515	28893.67	3.7600	3.7601	1.3489	26.21	0.28	0.750			
0.4556	29160.16	3.7570	3.7572	1.3781	26.20	0.27	0.750			
0.4598	29426.75	3.7540	3.7536	1.4130	26.19	0.26	0.750			
0.4639	29690.91	3.7510	3.7513	1.4333	26.18	0.25	0.750			
0.4683	29970.57	3.7480	3.7480	1.4737	26.16	0.23	0.750			
0.4728	30261.88	3.7450	3.7450	1.5063	26.15	0.22	0.750			
0.4774	30552.25	3.7420	3.7420	1.5427	26.13	0.20	0.750			
0.4821	30852.40	3.7390	3.7393	1.5938	26.12	0.19	0.750			
0.4869	31164.26	3.7360	3.7360	1.6282	26.10	0.17	0.750			
0.4919	31480.91	3.7330	3.7328	1.6584	26.07	0.14	0.750			
0.4970	31805.61	3.7300	3.7300	1.7076	26.05	0.12	0.750			
0.5022	32138.08	3.7270	3.7268	1.7528	26.03	0.10	0.750			
0.5075	32477.34	3.7240	3.7241	1.7997	26.02	0.09	0.750			
0.5129	32825.19	3.7210	3.7206	1.8472	26.00	0.07	0.750			
0.5185	33185.72	3.7180	3.7178	1.9113	25.98	0.05	0.750			
0.5243	33556.84	3.7150	3.7153	1.9907	25.96	0.03	0.750			
0.5303	33941.66	3.7120	3.7120	2.0370	25.94	0.01	0.750			
0.5367	34346.55	3.7090	3.7089	2.0672	25.92	-0.01	0.750			
0.5430	34754.46	3.7060	3.7060	2.0878	25.91	-0.02	0.750			
0.5494	35161.26	3.7030	3.7030	2.1423	25.89	-0.04	0.750			
0.5557	35565.57	3.7000	3.6998	2.1879	25.88	-0.05	0.750			
0.5622	35980.32	3.6970	3.6969	2.2435	25.86	-0.07	0.750			
0.5691	36421.99	3.6940	3.6941	2.3453	25.83	-0.10	0.750			
0.5764	36888.87	3.6910	3.6910	2.4548	25.81	-0.12	0.750			
0.5838	37365.79	3.6880	3.6880	2.5584	25.79	-0.14	0.750			
0.5916	37860.30	3.6850	3.6847	2.6210	25.78	-0.15	0.750			
0.5996	38373.12	3.6820	3.6817	2.7238	25.77	-0.16	0.750			
0.6079	38907.32	3.6790	3.6790	2.8036	25.75	-0.18	0.750			
0.6167	39465.80	3.6760	3.6762	2.9000	25.74	-0.19	0.750			
0.6254	40026.61	3.6730	3.6731	3.0143	25.72	-0.21	0.750			
0.6347	40618.31	3.6700	3.6701	3.0587	25.70	-0.23	0.750			
0.6441	41219.30	3.6670	3.6672	3.0497	25.70	-0.23	0.750			
0.6534	41818.63	3.6640	3.6638	2.8887	25.69	-0.24	0.750			
0.6617	42350.80	3.6610	3.6610	2.6325	25.69	-0.24	0.750			
0.6692	42826.34	3.6580	3.6577	2.3507	25.68	-0.25	0.750			
0.6757	43247.88	3.6550	3.6548	2.1053	25.69	-0.24	0.750			
0.6814	43606.85	3.6520	3.6520	1.8803	25.70	-0.23	0.750			
0.6864	43931.75	3.6490	3.6490	1.6696	25.70	-0.23	0.750			
0.6912	44237.05	3.6460	3.6462	1.5503	25.70	-0.23	0.750			
0.6956	44515.43	3.6430	3.6431	1.4237	25.70	-0.23	0.750			
0.6997	44783.57	3.6400	3.6398	1.3420	25.70	-0.23	0.750			
0.7035	45022.18	3.6370	3.6371	1.2767	25.70	-0.23	0.750			
0.7070	45248.51	3.6340	3.6342	1.2247	25.70	-0.23	0.750			
0.7106	45481.55	3.6310	3.6309	1.2173	25.70	-0.23	0.750			
0.7142	45706.11	3.6280	3.6279	1.1999	25.70	-0.23	0.750			
0.7178	45940.74	3.6250	3.6251	1.2066	25.71	-0.22	0.750			
0.7216	46179.94	3.6220	3.6217	1.2080	25.71	-0.22	0.750			
0.7252	46410.00	3.6190	3.6190	1.2142	25.71	-0.22	0.750			
0.7288	46643.62	3.6160	3.6161	1.2055	25.71	-0.22	0.750			
0.7324	46873.24	3.6130	3.6129	1.1949	25.71	-0.22	0.750			
0.7360	47102.74	3.6100	3.6102	1.1769	25.71	-0.22	0.750			
0.7395	47327.27	3.6070	3.6071	1.1698	25.71	-0.22	0.750			
0.7430	47551.16	3.6040	3.6040	1.1644	25.71	-0.22	0.750			
0.7465	47774.05	3.6010	3.6009	1.1558	25.71	-0.22	0.750			
0.7499	47990.71	3.5980	3.5980	1.1493	25.71	-0.22	0.750			
0.7533	48211.57	3.5950	3.5951	1.1688	25.72	-0.21	0.750			
0.7568	48434.99	3.5920	3.5920	1.1853	25.72	-0.21	0.750			
0.7603	48661.95	3.5890	3.5891	1.2096	25.72	-0.21	0.750			
0.7640	48894.56	3.5860	3.5861	1.2461	25.72	-0.21	0.750			
0.7678	49136.90	3.5830	3.5830	1.2833	25.72	-0.21	0.750			
0.7717	49389.67	3.5800	3.5797	1.3118	25.72	-0.21	0.750			
0.7756	49640.54	3.5770	3.5772	1.3548	25.72	-0.21	0.750			
0.7798	49906.34	3.5740	3.5741	1.3955	25.72	-0.21	0.750			
0.7840	50177.19	3.5710	3.5707	1.4432	25.72	-0.21	0.750			
0.7884	50457.98	3.5680	3.5679	1.4688	25.72	-0.21	0.750			
0.7929	50743.58	3.5650	3.5653	1.5366	25.72	-0.21	0.750			
0.7977	51049.93	3.5620	3.5618	1.5672	25.72	-0.21	0.750			
0.8024	51353.75	3.5590	3.5590	1.5941	25.72	-0.21	0.750			
0.8072	51661.31	3.5560	3.5561	1.6133	25.72	-0.21	0.750			
0.8122	51978.95	3.5530	3.5532	1.6353	25.72	-0.21	0.750			
0.8172	52298.43	3.5500	3.5500	1.6535	25.72	-0.21	0.750			
0.8221	52615.97	3.5470	3.5469	1.6750	25.72	-0.21	0.750			
0.8271	52937.12	3.5440	3.5443	1.6984	25.72	-0.21	0.750			
0.8322	53260.13	3.5410	3.5412	1.6966	25.72	-0.21	0.750			
0.8372	53581.77	3.5380	3.5379	1.7317	25.73	-0.20	0.750			
0.8425	53923.15	3.5350	3.5353	1.7562	25.74	-0.19	0.750			
0.8481	54278.40	3.5320	3.5319	1.7300	25.75	-0.18	0.750			
0.8538	54641.29	3.5290	3.5285	1.6044	25.77	-0.16	0.750			
0.8586	54950.19	3.5260	3.5263	1.3952	25.79	-0.14	0.750			
0.8627	55214.47	3.5230	3.5236	1.1615	25.81	-0.12	0.750			
0.8656	55400.37	3.5200	3.5199	0.8683	25.82	-0.11	0.750			
0.8674	55511.76	3.5170	3.5165	0.6100	25.83	-0.10	0.750			
0.8685	55585.14	3.5140	3.5138	0.4783	25.83	-0.10	0.750			
0.8696	55656.39	3.5110	3.5109	0.3948	25.84	-0.09	0.750			
0.8707	55724.05	3.5080	3.5079	0.3560	25.84	-0.09	0.750			
0.8717	55788.06	3.5050	3.5051	0.3344	25.85	-0.08	0.750			
0.8726	55849.58	3.5020	3.5020	0.3178	25.86	-0.07	0.750			
0.8736	55908.40	3.4990	3.4990	0.3062	25.86	-0.07	0.750			
0.8745	55965.42	3.4960	3.4960	0.2947	25.87	-0.06	0.750			
0.8753	56020.68	3.4930	3.4930	0.2859	25.87	-0.06	0.750			
0.8762	56075.02	3.4900	3.4899	0.2793	25.88	-0.05	0.750			
0.8770	56127.60	3.4870	3.4871	0.2729	25.88	-0.05	0.750			
0.8778	56179.52	3.4840	3.4840	0.2659	25.89	-0.04	0.750			
0.8786	56229.60	3.4810	3.4810	0.2606	25.89	-0.04	0.750			
0.8794	56279.19	3.4780	3.4780	0.2546	25.90	-0.03	0.750			
0.8801	56327.52	3.4750	3.4750	0.2491	25.90	-0.03	0.750			
0.8808	56374.36	3.4720	3.4719	0.2452	25.91	-0.02	0.750			
0.8816	56421.49	3.4690	3.4691	0.2388	25.91	-0.02	0.750			
0.8823	56466.70	3.4660	3.4659	0.2336	25.92	-0.01	0.750			
0.8830	56510.88	3.4630	3.4630	0.2289	25.92	-0.01	0.750			
0.8837	56554.69	3.4600	3.4602	0.2243	25.93	-0.00	0.750			
0.8843	56596.66	3.4570	3.4568	0.2183	25.93	0.00	0.750			
0.8850	56638.53	3.4540	3.4539	0.2139	25.93	0.00	0.750			
0.8856	56678.90	3.4510	3.4511	0.2091	25.94	0.01	0.750			
0.8862	56717.95	3.4480	3.4481	0.2038	25.94	0.01	0.750			
0.8868	56757.63	3.4450	3.4450	0.2004	25.95	0.02	0.750			
0.8874	56795.01	3.4420	3.4419	0.1948	25.95	0.02	0.750			
0.8880	56832.02	3.4390	3.4391	0.1898	25.95	0.02	0.750			
0.8886	56868.05	3.4360	3.4360	0.1855	25.96	0.03	0.750			
0.8891	56903.52	3.4330	3.4330	0.1806	25.96	0.03	0.750			
0.8897	56938.03	3.4300	3.4301	0.1756	25.96	0.03	0.750			
0.8902	56971.10	3.4270	3.4270	0.1695	25.97	0.04	0.750			
0.8907	57003.02	3.4240	3.4240	0.1643	25.97	0.04	0.750			
0.8912	57034.12	3.4210	3.4210	0.1589	25.97	0.04	0.750			
0.8916	57063.93	3.4180	3.4180	0.1530	25.98	0.05	0.750			
0.8921	57092.87	3.4150	3.4149	0.1478	25.98	0.05	0.750			
0.8925	57120.81	3.4120	3.4121	0.1419	25.98	0.05	0.750			
0.8929	57147.71	3.4090	3.4090	0.1360	25.99	0.06	0.750			
0.8933	57173.36	3.4060	3.4061	0.1300	25.99	0.06	0.750			
0.8937	57197.78	3.4030	3.4029	0.1230	25.99	0.06	0.750			
0.8941	57220.78	3.4000	3.4001	0.1162	25.99	0.06	0.750			
0.8944	57242.59	3.3970	3.3970	0.1094	26.00	0.07	0.750			
0.8947	57263.98	3.3940	3.3938	0.1003	26.00	0.07	0.750			
0.8950	57282.29	3.3910	3.3910	0.0905	26.00	0.07	0.750			
0.8953	57299.38	3.3880	3.3880	0.0818	26.00	0.07	0.750			
0.8955	57314.06	3.3850	3.3854	0.0712	26.00	0.07	0.750			
0.8957	57327.56	3.3820	3.3822	0.0606	26.00	0.07	0.750			
0.8959	57338.08	3.3790	3.3797	0.0489	26.00	0.07	0.750			
0.8960	57346.35	3.3760	3.3772	0.0372	26.01	0.08	0.750			
0.8961	57352.38	3.3730	3.3747	0.0256	26.01	0.08	0.750			
