Ah_balance (normalized)	Ah_balance (mAh)	Voltage - fit (V)	Voltage -  interpolate (V)	dQ/dV (1/V)	Temperature (°C)	Temperature - diff (°C)	Current (C)	R_DC 0ms (mOhm)	R_DC 50ms (mOhm)	R_DC 50 ms PEC (mOhm)
0.0002	12.18	4.1650	4.1646	-0.1016	25.92	0.02	-0.750			
0.0006	36.78	4.1620	4.1617	-0.1509	25.92	0.02	-0.750			
0.0011	70.58	4.1590	4.1590	-0.1966	25.92	0.02	-0.750			
0.0018	112.76	4.1560	4.1561	-0.2404	25.91	0.01	-0.750			
0.0026	163.73	4.1530	4.1530	-0.2807	25.91	0.01	-0.750			
0.0035	222.17	4.1500	4.1500	-0.3235	25.91	0.01	-0.750			
0.0045	288.61	4.1470	4.1470	-0.3588	25.91	0.01	-0.750			
0.0057	361.68	4.1440	4.1440	-0.3939	25.90	0.00	-0.750			
0.0069	441.93	4.1410	4.1410	-0.4267	25.90	0.00	-0.750			
0.0082	526.67	4.1380	4.1381	-0.4584	25.90	-0.00	-0.750			
0.0097	618.19	4.1350	4.1350	-0.4877	25.89	-0.01	-0.750			
0.0112	715.51	4.1320	4.1320	-0.5127	25.89	-0.01	-0.750			
0.0128	816.76	4.1290	4.1290	-0.5355	25.89	-0.01	-0.750			
0.0144	923.01	4.1260	4.1261	-0.5560	25.88	-0.02	-0.750			
0.0161	1032.31	4.1230	4.1230	-0.5753	25.88	-0.02	-0.750			
0.0179	1144.89	4.1200	4.1200	-0.5886	25.88	-0.02	-0.750			
0.0197	1258.67	4.1170	4.1170	-0.6029	25.87	-0.03	-0.750			
0.0215	1376.39	4.1140	4.1140	-0.6160	25.87	-0.03	-0.750			
0.0234	1497.15	4.1110	4.1110	-0.6282	25.86	-0.04	-0.750			
0.0253	1618.46	4.1080	4.1080	-0.6361	25.86	-0.04	-0.750			
0.0272	1742.15	4.1050	4.1050	-0.6453	25.86	-0.04	-0.750			
0.0292	1867.06	4.1020	4.1020	-0.6521	25.86	-0.04	-0.750			
0.0311	1992.94	4.0990	4.0989	-0.6623	25.85	-0.05	-0.750			
0.0331	2120.04	4.0960	4.0960	-0.6681	25.85	-0.05	-0.750			
0.0352	2249.83	4.0930	4.0931	-0.6777	25.84	-0.06	-0.750			
0.0372	2380.53	4.0900	4.0900	-0.6873	25.84	-0.06	-0.750			
0.0393	2513.71	4.0870	4.0870	-0.6937	25.83	-0.07	-0.750			
0.0414	2648.53	4.0840	4.0839	-0.6968	25.83	-0.07	-0.750			
0.0435	2782.88	4.0810	4.0809	-0.6994	25.82	-0.08	-0.750			
0.0456	2917.53	4.0780	4.0783	-0.7005	25.82	-0.08	-0.750			
0.0477	3052.35	4.0750	4.0750	-0.7032	25.82	-0.08	-0.750			
0.0498	3186.18	4.0720	4.0720	-0.7081	25.82	-0.08	-0.750			
0.0519	3322.88	4.0690	4.0690	-0.7087	25.81	-0.09	-0.750			
0.0541	3459.40	4.0660	4.0659	-0.7111	25.81	-0.09	-0.750			
0.0562	3597.05	4.0630	4.0630	-0.7169	25.81	-0.09	-0.750			
0.0583	3733.73	4.0600	4.0601	-0.7196	25.81	-0.09	-0.750			
0.0605	3873.57	4.0570	4.0569	-0.7193	25.81	-0.09	-0.750			
0.0627	4010.66	4.0540	4.0539	-0.7253	25.81	-0.09	-0.750			
0.0648	4149.28	4.0510	4.0511	-0.7257	25.81	-0.09	-0.750			
0.0670	4291.00	4.0480	4.0480	-0.7325	25.81	-0.09	-0.750			
0.0693	4433.30	4.0450	4.0449	-0.7315	25.81	-0.09	-0.750			
0.0714	4572.69	4.0420	4.0420	-0.7315	25.81	-0.09	-0.750			
0.0736	4711.58	4.0390	4.0391	-0.7331	25.81	-0.09	-0.750			
0.0758	4852.76	4.0360	4.0360	-0.7463	25.81	-0.09	-0.750			
0.0781	4996.13	4.0330	4.0329	-0.7429	25.81	-0.09	-0.750			
0.0803	5142.24	4.0300	4.0299	-0.7504	25.81	-0.09	-0.750			
0.0826	5286.31	4.0270	4.0274	-0.7520	25.81	-0.09	-0.750			
0.0849	5433.08	4.0240	4.0239	-0.7554	25.81	-0.09	-0.750			
0.0871	5575.91	4.0210	4.0210	-0.7517	25.81	-0.09	-0.750			
0.0893	5717.74	4.0180	4.0180	-0.7479	25.82	-0.08	-0.750			
0.0916	5863.48	4.0150	4.0151	-0.7526	25.82	-0.08	-0.750			
0.0939	6008.58	4.0120	4.0120	-0.7548	25.82	-0.08	-0.750			
0.0962	6153.99	4.0090	4.0090	-0.7518	25.82	-0.08	-0.750			
0.0984	6296.49	4.0060	4.0060	-0.7515	25.82	-0.08	-0.750			
0.1006	6439.76	4.0030	4.0030	-0.7529	25.82	-0.08	-0.750			
0.1029	6584.07	4.0000	4.0001	-0.7541	25.82	-0.08	-0.750			
0.1051	6729.49	3.9970	3.9968	-0.7588	25.82	-0.08	-0.750			
0.1074	6876.22	3.9940	3.9943	-0.7641	25.82	-0.08	-0.750			
0.1097	7023.26	3.9910	3.9911	-0.7666	25.82	-0.08	-0.750			
0.1121	7171.98	3.9880	3.9879	-0.7737	25.82	-0.08	-0.750			
0.1144	7320.43	3.9850	3.9850	-0.7718	25.83	-0.07	-0.750			
0.1167	7467.48	3.9820	3.9820	-0.7734	25.83	-0.07	-0.750			
0.1190	7616.85	3.9790	3.9790	-0.7737	25.83	-0.07	-0.750			
0.1213	7765.95	3.9760	3.9759	-0.7737	25.83	-0.07	-0.750			
0.1236	7913.59	3.9730	3.9730	-0.7776	25.84	-0.06	-0.750			
0.1260	8062.60	3.9700	3.9701	-0.7820	25.84	-0.06	-0.750			
0.1283	8213.25	3.9670	3.9669	-0.7826	25.84	-0.06	-0.750			
0.1307	8364.57	3.9640	3.9641	-0.7879	25.85	-0.05	-0.750			
0.1331	8516.22	3.9610	3.9611	-0.7877	25.85	-0.05	-0.750			
0.1354	8668.51	3.9580	3.9579	-0.7881	25.85	-0.05	-0.750			
0.1378	8820.98	3.9550	3.9550	-0.7870	25.85	-0.05	-0.750			
0.1402	8970.76	3.9520	3.9520	-0.7857	25.85	-0.05	-0.750			
0.1425	9121.81	3.9490	3.9490	-0.7865	25.85	-0.05	-0.750			
0.1449	9273.43	3.9460	3.9461	-0.7877	25.85	-0.05	-0.750			
0.1472	9422.27	3.9430	3.9430	-0.7902	25.85	-0.05	-0.750			
0.1496	9574.85	3.9400	3.9401	-0.8005	25.85	-0.05	-0.750			
0.1520	9729.25	3.9370	3.9369	-0.8059	25.86	-0.04	-0.750			
0.1545	9885.47	3.9340	3.9338	-0.8060	25.86	-0.04	-0.750			
0.1569	10042.41	3.9310	3.9312	-0.8072	25.86	-0.04	-0.750			
0.1593	10197.76	3.9280	3.9279	-0.8082	25.86	-0.04	-0.750			
0.1618	10353.09	3.9250	3.9249	-0.8117	25.86	-0.04	-0.750			
0.1642	10507.84	3.9220	3.9219	-0.8116	25.87	-0.03	-0.750			
0.1666	10662.05	3.9190	3.9190	-0.8094	25.87	-0.03	-0.750			
0.1691	10820.24	3.9160	3.9161	-0.8172	25.87	-0.03	-0.750			
0.1715	10978.60	3.9130	3.9129	-0.8180	25.87	-0.03	-0.750			
0.1740	11135.03	3.9100	3.9100	-0.8231	25.88	-0.02	-0.750			
0.1765	11292.98	3.9070	3.9069	-0.8223	25.88	-0.02	-0.750			
0.1789	11449.50	3.9040	3.9040	-0.8217	25.88	-0.02	-0.750			
0.1814	11610.00	3.9010	3.9008	-0.8219	25.89	-0.01	-0.750			
0.1839	11767.28	3.8980	3.8980	-0.8241	25.89	-0.01	-0.750			
0.1863	11923.51	3.8950	3.8950	-0.8325	25.90	-0.00	-0.750			
0.1888	12085.43	3.8920	3.8919	-0.8331	25.90	0.00	-0.750			
0.1913	12244.76	3.8890	3.8889	-0.8327	25.90	0.00	-0.750			
0.1939	12407.61	3.8860	3.8860	-0.8342	25.91	0.01	-0.750			
0.1964	12568.89	3.8830	3.8829	-0.8338	25.91	0.01	-0.750			
0.1989	12729.12	3.8800	3.8800	-0.8322	25.92	0.02	-0.750			
0.2013	12885.50	3.8770	3.8770	-0.8284	25.92	0.02	-0.750			
0.2038	13042.49	3.8740	3.8740	-0.8306	25.92	0.02	-0.750			
0.2063	13205.21	3.8710	3.8710	-0.8380	25.93	0.03	-0.750			
0.2088	13365.55	3.8680	3.8679	-0.8406	25.93	0.03	-0.750			
0.2114	13528.14	3.8650	3.8651	-0.8445	25.94	0.04	-0.750			
0.2139	13691.51	3.8620	3.8620	-0.8446	25.94	0.04	-0.750			
0.2165	13854.90	3.8590	3.8590	-0.8438	25.94	0.04	-0.750			
0.2190	14015.38	3.8560	3.8560	-0.8445	25.95	0.05	-0.750			
0.2215	14176.10	3.8530	3.8531	-0.8453	25.95	0.05	-0.750			
0.2241	14340.45	3.8500	3.8499	-0.8493	25.95	0.05	-0.750			
0.2266	14503.47	3.8470	3.8469	-0.8479	25.95	0.05	-0.750			
0.2292	14666.85	3.8440	3.8440	-0.8489	25.95	0.05	-0.750			
0.2317	14830.73	3.8410	3.8410	-0.8491	25.95	0.05	-0.750			
0.2343	14994.03	3.8380	3.8378	-0.8486	25.95	0.05	-0.750			
0.2368	15156.20	3.8350	3.8350	-0.8456	25.96	0.06	-0.750			
0.2393	15316.08	3.8320	3.8320	-0.8456	25.96	0.06	-0.750			
0.2419	15478.53	3.8290	3.8290	-0.8470	25.96	0.06	-0.750			
0.2444	15643.19	3.8260	3.8260	-0.8530	25.97	0.07	-0.750			
0.2470	15807.07	3.8230	3.8229	-0.8531	25.97	0.07	-0.750			
0.2496	15972.05	3.8200	3.8201	-0.8550	25.98	0.08	-0.750			
0.2521	16137.46	3.8170	3.8169	-0.8502	25.98	0.08	-0.750			
0.2547	16300.23	3.8140	3.8140	-0.8450	25.99	0.09	-0.750			
0.2572	16462.08	3.8110	3.8111	-0.8397	25.99	0.09	-0.750			
0.2597	16621.89	3.8080	3.8080	-0.8423	25.99	0.09	-0.750			
0.2622	16783.39	3.8050	3.8049	-0.8412	26.00	0.10	-0.750			
0.2648	16945.91	3.8020	3.8019	-0.8430	26.00	0.10	-0.750			
0.2673	17108.13	3.7990	3.7990	-0.8442	26.01	0.11	-0.750			
0.2699	17272.34	3.7960	3.7962	-0.8473	26.01	0.11	-0.750			
0.2724	17434.97	3.7930	3.7929	-0.8380	26.01	0.11	-0.750			
0.2749	17594.60	3.7900	3.7899	-0.8341	26.02	0.12	-0.750			
0.2774	17753.22	3.7870	3.7871	-0.8277	26.02	0.12	-0.750			
0.2799	17912.68	3.7840	3.7839	-0.8295	26.03	0.13	-0.750			
0.2823	18069.01	3.7810	3.7811	-0.8258	26.03	0.13	-0.750			
0.2848	18227.48	3.7780	3.7780	-0.8241	26.03	0.13	-0.750			
0.2873	18385.84	3.7750	3.7749	-0.8289	26.03	0.13	-0.750			
0.2898	18547.41	3.7720	3.7720	-0.8259	26.04	0.14	-0.750			
0.2923	18705.28	3.7690	3.7689	-0.8202	26.04	0.14	-0.750			
0.2947	18863.83	3.7660	3.7661	-0.8219	26.04	0.14	-0.750			
0.2972	19021.33	3.7630	3.7629	-0.8175	26.04	0.14	-0.750			
0.2996	19176.31	3.7600	3.7599	-0.8154	26.05	0.15	-0.750			
0.3021	19333.25	3.7570	3.7570	-0.8159	26.05	0.15	-0.750			
0.3045	19489.13	3.7540	3.7541	-0.8121	26.06	0.16	-0.750			
0.3070	19648.10	3.7510	3.7511	-0.8164	26.06	0.16	-0.750			
0.3094	19803.22	3.7480	3.7479	-0.8117	26.06	0.16	-0.750			
0.3118	19955.86	3.7450	3.7450	-0.8131	26.06	0.16	-0.750			
0.3143	20112.15	3.7420	3.7420	-0.8196	26.07	0.17	-0.750			
0.3167	20270.20	3.7390	3.7389	-0.8188	26.07	0.17	-0.750			
0.3192	20428.46	3.7360	3.7360	-0.8306	26.07	0.17	-0.750			
0.3217	20588.48	3.7330	3.7330	-0.8420	26.07	0.17	-0.750			
0.3242	20750.55	3.7300	3.7300	-0.8553	26.07	0.17	-0.750			
0.3268	20916.65	3.7270	3.7268	-0.8662	26.08	0.18	-0.750			
0.3294	21082.96	3.7240	3.7241	-0.8710	26.08	0.18	-0.750			
0.3321	21252.57	3.7210	3.7210	-0.8874	26.08	0.18	-0.750			
0.3347	21423.30	3.7180	3.7180	-0.9047	26.08	0.18	-0.750			
0.3375	21596.83	3.7150	3.7149	-0.9108	26.08	0.18	-0.750			
0.3402	21774.40	3.7120	3.7120	-0.9225	26.09	0.19	-0.750			
0.3430	21951.74	3.7090	3.7089	-0.9384	26.09	0.19	-0.750			
0.3459	22135.22	3.7060	3.7062	-0.9600	26.09	0.19	-0.750			
0.3488	22321.27	3.7030	3.7029	-0.9760	26.09	0.19	-0.750			
0.3517	22508.82	3.7000	3.6999	-0.9864	26.09	0.19	-0.750			
0.3547	22697.64	3.6970	3.6970	-1.0023	26.09	0.19	-0.750			
0.3577	22892.98	3.6940	3.6941	-1.0328	26.09	0.19	-0.750			
0.3608	23093.80	3.6910	3.6909	-1.0574	26.08	0.18	-0.750			
0.3640	23298.04	3.6880	3.6879	-1.0750	26.08	0.18	-0.750			
0.3673	23507.65	3.6850	3.6850	-1.0964	26.07	0.17	-0.750			
0.3707	23721.77	3.6820	3.6821	-1.1245	26.07	0.17	-0.750			
0.3741	23940.38	3.6790	3.6790	-1.1433	26.07	0.17	-0.750			
0.3775	24159.05	3.6760	3.6759	-1.1632	26.07	0.17	-0.750			
0.3810	24383.44	3.6730	3.6730	-1.1931	26.07	0.17	-0.750			
0.3846	24615.13	3.6700	3.6700	-1.2184	26.07	0.17	-0.750			
0.3883	24852.73	3.6670	3.6670	-1.2423	26.06	0.16	-0.750			
0.3922	25097.75	3.6640	3.6640	-1.2560	26.05	0.15	-0.750			
0.3959	25339.93	3.6610	3.6611	-1.2646	26.05	0.15	-0.750			
0.3997	25582.56	3.6580	3.6580	-1.2888	26.04	0.14	-0.750			
0.4035	25823.14	3.6550	3.6551	-1.3225	26.04	0.14	-0.750			
0.4075	26080.30	3.6520	3.6521	-1.3648	26.03	0.13	-0.750			
0.4117	26349.30	3.6490	3.6489	-1.3964	26.02	0.12	-0.750			
0.4160	26622.76	3.6460	3.6459	-1.4290	26.02	0.12	-0.750			
0.4204	26903.55	3.6430	3.6432	-1.4821	26.01	0.11	-0.750			
0.4249	27191.07	3.6400	3.6399	-1.5100	26.00	0.10	-0.750			
0.4294	27479.37	3.6370	3.6369	-1.5651	26.00	0.10	-0.750			
0.4341	27781.71	3.6340	3.6339	-1.6003	25.99	0.09	-0.750			
0.4391	28104.05	3.6310	3.6310	-1.6622	25.98	0.08	-0.750			
0.4442	28429.54	3.6280	3.6282	-1.6912	25.97	0.07	-0.750			
0.4494	28758.46	3.6250	3.6249	-1.7082	25.96	0.06	-0.750			
0.4545	29087.42	3.6220	3.6226	-1.7383	25.95	0.05	-0.750	0.373	0.491	
0.4597	29419.16	3.6190	3.6188	-1.7481	25.95	0.05	-0.750			
0.4649	29754.27	3.6160	3.6159	-1.7724	25.94	0.04	-0.750			
0.4703	30101.90	3.6130	3.6130	-1.7888	25.94	0.04	-0.750			
0.4758	30448.34	3.6100	3.6099	-1.8353	25.94	0.04	-0.750			
0.4813	30802.61	3.6070	3.6071	-1.8706	25.93	0.03	-0.750			
0.4870	31169.17	3.6040	3.6038	-1.9190	25.92	0.02	-0.750			
0.4927	31534.82	3.6010	3.6012	-1.9586	25.91	0.01	-0.750			
0.4988	31921.10	3.5980	3.5978	-2.0019	25.91	0.01	-0.750			
0.5049	32311.44	3.5950	3.5951	-2.0335	25.91	0.01	-0.750			
0.5111	32709.01	3.5920	3.5920	-2.0686	25.90	0.00	-0.750			
0.5173	33104.15	3.5890	3.5890	-2.0800	25.89	-0.01	-0.750			
0.5235	33505.55	3.5860	3.5861	-2.1268	25.89	-0.01	-0.750			
0.5300	33919.44	3.5830	3.5830	-2.1755	25.89	-0.01	-0.750			
0.5365	34338.75	3.5800	3.5799	-2.2007	25.89	-0.01	-0.750			
0.5433	34770.55	3.5770	3.5771	-2.2316	25.89	-0.01	-0.750			
0.5501	35206.70	3.5740	3.5741	-2.2574	25.89	-0.01	-0.750			
0.5569	35640.79	3.5710	3.5710	-2.2816	25.89	-0.01	-0.750			
0.5638	36080.01	3.5680	3.5680	-2.2964	25.89	-0.01	-0.750			
0.5706	36520.34	3.5650	3.5651	-2.3037	25.89	-0.01	-0.750			
0.5776	36963.59	3.5620	3.5621	-2.3239	25.89	-0.01	-0.750			
0.5846	37416.40	3.5590	3.5589	-2.3218	25.89	-0.01	-0.750			
0.5916	37862.97	3.5560	3.5558	-2.3198	25.89	-0.01	-0.750			
0.5986	38310.40	3.5530	3.5530	-2.3035	25.89	-0.01	-0.750			
0.6054	38746.55	3.5500	3.5500	-2.2781	25.89	-0.01	-0.750			
0.6123	39184.86	3.5470	3.5469	-2.2661	25.89	-0.01	-0.750			
0.6190	39614.97	3.5440	3.5440	-2.2471	25.89	-0.01	-0.750			
0.6257	40046.83	3.5410	3.5410	-2.2242	25.90	-0.00	-0.750			
0.6325	40479.16	3.5380	3.5381	-2.2010	25.91	0.01	-0.750			
0.6390	40898.31	3.5350	3.5349	-2.1716	25.91	0.01	-0.750			
0.6456	41315.78	3.5320	3.5321	-2.1352	25.91	0.01	-0.750			
0.6519	41719.56	3.5290	3.5292	-2.0952	25.92	0.02	-0.750			
0.6581	42118.85	3.5260	3.5259	-2.0497	25.92	0.02	-0.750			
0.6642	42508.03	3.5230	3.5230	-1.9832	25.94	0.04	-0.750			
0.6701	42886.06	3.5200	3.5199	-1.9363	25.95	0.05	-0.750			
0.6759	43260.39	3.5170	3.5168	-1.8832	25.96	0.06	-0.750			
0.6814	43608.77	3.5140	3.5139	-1.8118	25.97	0.07	-0.750			
0.6867	43947.40	3.5110	3.5109	-1.7709	25.98	0.08	-0.750			
0.6919	44281.96	3.5080	3.5081	-1.7085	26.00	0.10	-0.750			
0.6970	44608.92	3.5050	3.5050	-1.6594	26.01	0.11	-0.750			
0.7020	44927.13	3.5020	3.5020	-1.6090	26.02	0.12	-0.750			
0.7068	45233.46	3.4990	3.4989	-1.5525	26.03	0.13	-0.750			
0.7114	45528.32	3.4960	3.4959	-1.4922	26.05	0.15	-0.750			
0.7157	45804.98	3.4930	3.4928	-1.4235	26.07	0.17	-0.750			
0.7198	46065.79	3.4900	3.4904	-1.3683	26.09	0.19	-0.750			
0.7238	46325.90	3.4870	3.4869	-1.3283	26.10	0.20	-0.750			
0.7277	46575.66	3.4840	3.4839	-1.2814	26.11	0.21	-0.750			
0.7315	46817.72	3.4810	3.4811	-1.2451	26.13	0.23	-0.750			
0.7353	47057.34	3.4780	3.4780	-1.2200	26.14	0.24	-0.750			
0.7388	47285.91	3.4750	3.4749	-1.1770	26.16	0.26	-0.750			
0.7423	47507.79	3.4720	3.4720	-1.1367	26.18	0.28	-0.750			
0.7456	47719.92	3.4690	3.4691	-1.1055	26.19	0.29	-0.750			
0.7489	47931.85	3.4660	3.4660	-1.0699	26.20	0.30	-0.750			
0.7521	48134.85	3.4630	3.4629	-1.0287	26.21	0.31	-0.750			
0.7551	48326.88	3.4600	3.4600	-0.9893	26.22	0.32	-0.750			
0.7580	48512.79	3.4570	3.4572	-0.9611	26.23	0.33	-0.750			
0.7608	48691.47	3.4540	3.4540	-0.9393	26.24	0.34	-0.750			
0.7635	48866.74	3.4510	3.4509	-0.9157	26.25	0.35	-0.750			
0.7662	49038.91	3.4480	3.4480	-0.9036	26.26	0.36	-0.750			
0.7689	49211.38	3.4450	3.4451	-0.9083	26.27	0.37	-0.750			
0.7716	49384.10	3.4420	3.4420	-0.9099	26.28	0.38	-0.750			
0.7743	49556.13	3.4390	3.4389	-0.9266	26.28	0.38	-0.750			
0.7771	49734.90	3.4360	3.4359	-0.9467	26.29	0.39	-0.750			
0.7799	49915.63	3.4330	3.4330	-0.9734	26.30	0.40	-0.750			
0.7829	50105.56	3.4300	3.4302	-1.0128	26.31	0.41	-0.750			
0.7860	50304.21	3.4270	3.4270	-1.0416	26.32	0.42	-0.750			
0.7892	50510.16	3.4240	3.4239	-1.0559	26.33	0.43	-0.750			
0.7925	50717.00	3.4210	3.4209	-1.0728	26.33	0.43	-0.750			
0.7957	50926.86	3.4180	3.4182	-1.0787	26.34	0.44	-0.750			
0.7990	51137.14	3.4150	3.4150	-1.0663	26.35	0.45	-0.750			
0.8022	51341.96	3.4120	3.4119	-1.0461	26.36	0.46	-0.750			
0.8053	51541.31	3.4090	3.4090	-1.0240	26.36	0.46	-0.750			
0.8084	51737.63	3.4060	3.4061	-0.9980	26.37	0.47	-0.750			
0.8114	51927.06	3.4030	3.4030	-0.9680	26.38	0.48	-0.750			
0.8142	52109.87	3.4000	3.4000	-0.9300	26.39	0.49	-0.750			
0.8170	52286.05	3.3970	3.3970	-0.8918	26.40	0.50	-0.750			
0.8196	52455.05	3.3940	3.3942	-0.8590	26.41	0.51	-0.750			
0.8221	52615.83	3.3910	3.3909	-0.8238	26.42	0.52	-0.750			
0.8245	52767.98	3.3880	3.3880	-0.7918	26.42	0.52	-0.750			
0.8268	52916.64	3.3850	3.3849	-0.7610	26.43	0.53	-0.750			
0.8290	53058.20	3.3820	3.3821	-0.7307	26.44	0.54	-0.750			
0.8312	53198.03	3.3790	3.3789	-0.7060	26.45	0.55	-0.750			
0.8333	53330.84	3.3760	3.3760	-0.6769	26.45	0.55	-0.750			
0.8353	53457.49	3.3730	3.3731	-0.6493	26.46	0.56	-0.750			
0.8372	53579.06	3.3700	3.3700	-0.6245	26.47	0.57	-0.750			
0.8390	53695.18	3.3670	3.3671	-0.6005	26.47	0.57	-0.750			
0.8408	53810.04	3.3640	3.3639	-0.5810	26.48	0.58	-0.750			
0.8425	53918.90	3.3610	3.3610	-0.5589	26.48	0.58	-0.750			
0.8441	54024.38	3.3580	3.3580	-0.5377	26.49	0.59	-0.750			
0.8457	54125.71	3.3550	3.3551	-0.5182	26.49	0.59	-0.750			
0.8472	54222.77	3.3520	3.3519	-0.4968	26.50	0.60	-0.750			
0.8487	54315.62	3.3490	3.3490	-0.4748	26.50	0.60	-0.750			
0.8501	54404.18	3.3460	3.3460	-0.4569	26.51	0.61	-0.750			
0.8514	54490.18	3.3430	3.3430	-0.4400	26.52	0.62	-0.750			
0.8527	54572.80	3.3400	3.3400	-0.4230	26.52	0.62	-0.750			
0.8539	54652.41	3.3370	3.3370	-0.4072	26.53	0.63	-0.750			
0.8551	54728.78	3.3340	3.3341	-0.3922	26.53	0.63	-0.750			
0.8563	54803.38	3.3310	3.3309	-0.3780	26.54	0.64	-0.750			
0.8574	54874.99	3.3280	3.3280	-0.3617	26.54	0.64	-0.750			
0.8585	54941.87	3.3250	3.3250	-0.3480	26.54	0.64	-0.750			
0.8595	55006.78	3.3220	3.3222	-0.3368	26.55	0.65	-0.750			
0.8605	55070.05	3.3190	3.3188	-0.3262	26.55	0.65	-0.750			
0.8614	55131.32	3.3160	3.3160	-0.3157	26.56	0.66	-0.750			
0.8624	55190.85	3.3130	3.3130	-0.3062	26.56	0.66	-0.750			
0.8633	55249.22	3.3100	3.3100	-0.2973	26.57	0.67	-0.750			
0.8642	55306.34	3.3070	3.3070	-0.2887	26.57	0.67	-0.750			
0.8650	55359.84	3.3040	3.3040	-0.2783	26.58	0.68	-0.750			
0.8658	55411.70	3.3010	3.3010	-0.2692	26.58	0.68	-0.750			
0.8666	55462.78	3.2980	3.2980	-0.2627	26.58	0.68	-0.750			
0.8674	55512.09	3.2950	3.2950	-0.2562	26.59	0.69	-0.750			
0.8681	55560.76	3.2920	3.2920	-0.2493	26.59	0.69	-0.750			
0.8689	55608.59	3.2890	3.2890	-0.2438	26.59	0.69	-0.750			
0.8696	55654.84	3.2860	3.2859	-0.2368	26.60	0.70	-0.750			
0.8703	55699.56	3.2830	3.2830	-0.2303	26.60	0.70	-0.750			
0.8710	55742.75	3.2800	3.2799	-0.2242	26.61	0.71	-0.750			
0.8716	55785.00	3.2770	3.2769	-0.2188	26.61	0.71	-0.750			
0.8723	55826.20	3.2740	3.2740	-0.2133	26.61	0.71	-0.750			
0.8729	55866.38	3.2710	3.2710	-0.2086	26.62	0.72	-0.750			
0.8735	55906.05	3.2680	3.2680	-0.2055	26.62	0.72	-0.750			
0.8741	55944.95	3.2650	3.2650	-0.2017	26.63	0.73	-0.750			
0.8747	55983.36	3.2620	3.2620	-0.1985	26.63	0.73	-0.750			
0.8753	56021.40	3.2590	3.2589	-0.1932	26.63	0.73	-0.750			
0.8759	56057.94	3.2560	3.2561	-0.1899	26.64	0.74	-0.750			
0.8765	56093.84	3.2530	3.2531	-0.1868	26.64	0.74	-0.750			
0.8770	56129.38	3.2500	3.2500	-0.1835	26.65	0.75	-0.750			
0.8776	56164.07	3.2470	3.2468	-0.1805	26.65	0.75	-0.750			
0.8781	56197.99	3.2440	3.2441	-0.1775	26.65	0.75	-0.750			
0.8786	56232.01	3.2410	3.2410	-0.1754	26.66	0.76	-0.750			
0.8791	56265.51	3.2380	3.2380	-0.1736	26.66	0.76	-0.750			
0.8797	56299.31	3.2350	3.2349	-0.1714	26.66	0.76	-0.750			
0.8802	56331.71	3.2320	3.2320	-0.1678	26.67	0.77	-0.750			
0.8807	56363.73	3.2290	3.2290	-0.1649	26.67	0.77	-0.750			
0.8812	56394.96	3.2260	3.2261	-0.1627	26.67	0.77	-0.750			
0.8817	56425.82	3.2230	3.2230	-0.1607	26.67	0.77	-0.750			
0.8821	56456.32	3.2200	3.2199	-0.1580	26.68	0.78	-0.750			
0.8826	56486.44	3.2170	3.2170	-0.1561	26.68	0.78	-0.750			
0.8831	56516.31	3.2140	3.2141	-0.1539	26.69	0.79	-0.750			
0.8835	56545.70	3.2110	3.2111	-0.1524	26.69	0.79	-0.750			
0.8840	56574.82	3.2080	3.2080	-0.1506	26.70	0.80	-0.750			
0.8844	56603.54	3.2050	3.2050	-0.1485	26.70	0.80	-0.750			
0.8849	56631.60	3.2020	3.2019	-0.1470	26.71	0.81	-0.750			
0.8853	56659.51	3.1990	3.1991	-0.1458	26.71	0.81	-0.750			
0.8857	56687.64	3.1960	3.1959	-0.1446	26.72	0.82	-0.750			
0.8862	56715.26	3.1930	3.1929	-0.1431	26.72	0.82	-0.750			
0.8866	56742.65	3.1900	3.1901	-0.1418	26.73	0.83	-0.750			
0.8870	56769.52	3.1870	3.1871	-0.1408	26.73	0.83	-0.750			
0.8874	56796.54	3.1840	3.1840	-0.1399	26.74	0.84	-0.750			
0.8879	56823.30	3.1810	3.1809	-0.1389	26.74	0.84	-0.750			
0.8883	56849.93	3.1780	3.1780	-0.1367	26.74	0.84	-0.750			
0.8887	56875.92	3.1750	3.1751	-0.1356	26.75	0.85	-0.750			
0.8891	56902.05	3.1720	3.1720	-0.1347	26.75	0.85	-0.750			
0.8895	56927.74	3.1690	3.1690	-0.1330	26.76	0.86	-0.750			
0.8899	56952.94	3.1660	3.1659	-0.1317	26.76	0.86	-0.750			
0.8903	56977.86	3.1630	3.1630	-0.1303	26.77	0.87	-0.750			
0.8907	57002.82	3.1600	3.1601	-0.1297	26.77	0.87	-0.750			
0.8911	57027.75	3.1570	3.1569	-0.1286	26.78	0.88	-0.750			
0.8914	57052.52	3.1540	3.1541	-0.1280	26.78	0.88	-0.750			
0.8918	57076.78	3.1510	3.1510	-0.1264	26.78	0.88	-0.750			
0.8922	57101.13	3.1480	3.1480	-0.1256	26.79	0.89	-0.750			
0.8926	57125.13	3.1450	3.1450	-0.1243	26.79	0.89	-0.750			
0.8929	57148.60	3.1420	3.1420	-0.1235	26.80	0.90	-0.750			
0.8933	57172.11	3.1390	3.1391	-0.1227	26.80	0.90	-0.750			
0.8937	57195.76	3.1360	3.1360	-0.1218	26.81	0.91	-0.750			
0.8941	57219.26	3.1330	3.1329	-0.1210	26.81	0.91	-0.750			
0.8944	57242.40	3.1300	3.1301	-0.1200	26.81	0.91	-0.750			
0.8948	57265.37	3.1270	3.1270	-0.1189	26.82	0.92	-0.750			
0.8951	57288.09	3.1240	3.1239	-0.1178	26.82	0.92	-0.750			
0.8955	57310.49	3.1210	3.1210	-0.1172	26.83	0.93	-0.750			
0.8958	57332.91	3.1180	3.1180	-0.1164	26.83	0.93	-0.750			
0.8962	57355.11	3.1150	3.1149	-0.1147	26.84	0.94	-0.750			
0.8965	57377.19	3.1120	3.1119	-0.1141	26.84	0.94	-0.750			
0.8969	57398.98	3.1090	3.1090	-0.1129	26.84	0.94	-0.750			
0.8972	57420.41	3.1060	3.1061	-0.1130	26.85	0.95	-0.750			
0.8975	57442.07	3.1030	3.1031	-0.1126	26.85	0.95	-0.750			
0.8979	57463.56	3.1000	3.0999	-0.1120	26.86	0.96	-0.750			
0.8982	57485.04	3.0970	3.0969	-0.1117	26.86	0.96	-0.750			
0.8985	57506.41	3.0940	3.0941	-0.1105	26.87	0.97	-0.750			
0.8989	57527.58	3.0910	3.0911	-0.1100	26.87	0.97	-0.750			
0.8992	57549.02	3.0880	3.0880	-0.1103	26.87	0.97	-0.750			
0.8995	57570.09	3.0850	3.0850	-0.1092	26.88	0.98	-0.750			
0.8999	57590.64	3.0820	3.0820	-0.1079	26.88	0.98	-0.750			
0.9002	57611.33	3.0790	3.0788	-0.1075	26.89	0.99	-0.750			
0.9005	57632.08	3.0760	3.0761	-0.1064	26.89	0.99	-0.750			
0.9008	57652.42	3.0730	3.0730	-0.1055	26.90	1.00	-0.750			
0.9011	57672.66	3.0700	3.0701	-0.1052	26.90	1.00	-0.750			
0.9014	57692.76	3.0670	3.0669	-0.1042	26.90	1.00	-0.750			
0.9018	57712.39	3.0640	3.0639	-0.1033	26.91	1.01	-0.750			
0.9021	57732.25	3.0610	3.0610	-0.1029	26.91	1.01	-0.750			
0.9024	57751.93	3.0580	3.0580	-0.1024	26.92	1.02	-0.750			
0.9027	57771.57	3.0550	3.0551	-0.1021	26.92	1.02	-0.750			
0.9030	57791.31	3.0520	3.0520	-0.1019	26.92	1.02	-0.750			
0.9033	57810.81	3.0490	3.0491	-0.1012	26.93	1.03	-0.750			
0.9036	57830.14	3.0460	3.0459	-0.1005	26.93	1.03	-0.750			
0.9039	57849.37	3.0430	3.0431	-0.0999	26.94	1.04	-0.750			
0.9042	57868.38	3.0400	3.0400	-0.0997	26.94	1.04	-0.750			
0.9045	57887.50	3.0370	3.0371	-0.0994	26.94	1.04	-0.750			
0.9048	57906.65	3.0340	3.0340	-0.0987	26.95	1.05	-0.750			
0.9051	57925.54	3.0310	3.0309	-0.0981	26.95	1.05	-0.750			
0.9054	57944.31	3.0280	3.0280	-0.0977	26.95	1.05	-0.750			
0.9057	57963.01	3.0250	3.0251	-0.0971	26.96	1.06	-0.750			
0.9060	57981.71	3.0220	3.0219	-0.0965	26.96	1.06	-0.750			
0.9063	58000.15	3.0190	3.0189	-0.0957	26.96	1.06	-0.750			
0.9065	58018.50	3.0160	3.0159	-0.0942	26.97	1.07	-0.750			
0.9068	58036.48	3.0130	3.0131	-0.0931	26.97	1.07	-0.750			
0.9071	58054.65	3.0100	3.0099	-0.0917	26.98	1.08	-0.751			
0.9074	58072.06	3.0070	3.0070	-0.0897	26.98	1.08	-0.751			
0.9076	58089.08	3.0040	3.0040	-0.0867	26.98	1.08	-0.751			
