Ah_balance (normalized)	Ah_balance (mAh)	Voltage - fit (V)	Voltage -  interpolate (V)	dQ/dV (1/V)	Temperature (°C)	Temperature - diff (°C)	Current (C)	R_DC 0ms (mOhm)	R_DC 50ms (mOhm)	R_DC 50 ms PEC (mOhm)
0.0003	19.91	4.1630	4.1628	-0.1429	25.95	0.02	-0.750			
0.0008	50.90	4.1600	4.1599	-0.1796	25.95	0.02	-0.750			
0.0014	88.16	4.1570	4.1571	-0.2175	25.95	0.02	-0.750			
0.0021	134.11	4.1540	4.1540	-0.2554	25.94	0.01	-0.750			
0.0029	186.51	4.1510	4.1510	-0.2940	25.94	0.01	-0.750			
0.0038	246.25	4.1480	4.1481	-0.3364	25.94	0.01	-0.750			
0.0049	315.70	4.1450	4.1450	-0.3719	25.94	0.01	-0.750			
0.0061	391.59	4.1420	4.1418	-0.4058	25.93	0.00	-0.750			
0.0074	474.69	4.1390	4.1392	-0.4383	25.93	0.00	-0.750			
0.0088	562.09	4.1360	4.1360	-0.4658	25.93	-0.00	-0.750			
0.0102	655.38	4.1330	4.1329	-0.4928	25.92	-0.01	-0.750			
0.0118	752.40	4.1300	4.1300	-0.5130	25.92	-0.01	-0.750			
0.0133	851.53	4.1270	4.1270	-0.5324	25.92	-0.01	-0.750			
0.0150	958.16	4.1240	4.1241	-0.5603	25.91	-0.02	-0.750			
0.0167	1067.43	4.1210	4.1210	-0.5768	25.91	-0.02	-0.750			
0.0185	1181.22	4.1180	4.1179	-0.5941	25.90	-0.03	-0.750			
0.0203	1297.07	4.1150	4.1151	-0.6075	25.90	-0.03	-0.750			
0.0221	1416.00	4.1120	4.1120	-0.6182	25.90	-0.03	-0.750			
0.0240	1535.61	4.1090	4.1091	-0.6301	25.89	-0.04	-0.750			
0.0259	1656.21	4.1060	4.1060	-0.6406	25.89	-0.04	-0.750			
0.0278	1780.82	4.1030	4.1029	-0.6464	25.88	-0.05	-0.750			
0.0298	1907.02	4.1000	4.1000	-0.6557	25.88	-0.05	-0.750			
0.0318	2033.96	4.0970	4.0970	-0.6597	25.87	-0.06	-0.750			
0.0338	2162.32	4.0940	4.0939	-0.6651	25.87	-0.06	-0.750			
0.0358	2289.95	4.0910	4.0910	-0.6695	25.87	-0.06	-0.750			
0.0378	2416.64	4.0880	4.0880	-0.6721	25.87	-0.06	-0.750			
0.0398	2546.65	4.0850	4.0850	-0.6764	25.87	-0.06	-0.750			
0.0419	2678.62	4.0820	4.0819	-0.6840	25.87	-0.06	-0.750			
0.0439	2809.27	4.0790	4.0791	-0.6900	25.87	-0.06	-0.750			
0.0460	2942.19	4.0760	4.0762	-0.6982	25.87	-0.06	-0.750			
0.0481	3078.09	4.0730	4.0729	-0.7022	25.87	-0.06	-0.750			
0.0502	3213.25	4.0700	4.0699	-0.7064	25.87	-0.06	-0.750			
0.0523	3348.59	4.0670	4.0671	-0.7100	25.87	-0.06	-0.750			
0.0545	3486.28	4.0640	4.0641	-0.7137	25.87	-0.06	-0.750			
0.0566	3624.38	4.0610	4.0609	-0.7162	25.87	-0.06	-0.750			
0.0588	3761.00	4.0580	4.0580	-0.7175	25.87	-0.06	-0.750			
0.0609	3898.36	4.0550	4.0551	-0.7198	25.87	-0.06	-0.750			
0.0631	4038.10	4.0520	4.0520	-0.7275	25.87	-0.06	-0.750			
0.0653	4179.78	4.0490	4.0488	-0.7259	25.87	-0.06	-0.750			
0.0675	4319.20	4.0460	4.0460	-0.7258	25.87	-0.06	-0.750			
0.0697	4458.71	4.0430	4.0431	-0.7259	25.87	-0.06	-0.750			
0.0718	4597.18	4.0400	4.0399	-0.7232	25.87	-0.06	-0.750			
0.0740	4734.64	4.0370	4.0369	-0.7221	25.87	-0.06	-0.750			
0.0761	4872.73	4.0340	4.0340	-0.7276	25.87	-0.06	-0.750			
0.0783	5011.25	4.0310	4.0310	-0.7318	25.86	-0.07	-0.750			
0.0806	5155.54	4.0280	4.0279	-0.7412	25.86	-0.07	-0.750			
0.0828	5297.57	4.0250	4.0251	-0.7424	25.86	-0.07	-0.750			
0.0850	5441.53	4.0220	4.0220	-0.7460	25.86	-0.07	-0.750			
0.0873	5586.10	4.0190	4.0189	-0.7432	25.86	-0.07	-0.750			
0.0895	5727.86	4.0160	4.0160	-0.7453	25.87	-0.06	-0.750			
0.0917	5871.02	4.0130	4.0131	-0.7494	25.87	-0.06	-0.750			
0.0940	6014.94	4.0100	4.0099	-0.7489	25.87	-0.06	-0.750			
0.0962	6158.69	4.0070	4.0070	-0.7500	25.87	-0.06	-0.750			
0.0985	6302.35	4.0040	4.0040	-0.7518	25.87	-0.06	-0.750			
0.1007	6447.26	4.0010	4.0010	-0.7518	25.87	-0.06	-0.750			
0.1030	6591.77	3.9980	3.9980	-0.7488	25.87	-0.06	-0.750			
0.1053	6736.78	3.9950	3.9950	-0.7562	25.87	-0.06	-0.750			
0.1075	6880.83	3.9920	3.9921	-0.7554	25.87	-0.06	-0.750			
0.1098	7026.76	3.9890	3.9889	-0.7591	25.87	-0.06	-0.750			
0.1120	7171.07	3.9860	3.9861	-0.7653	25.88	-0.05	-0.750			
0.1144	7320.04	3.9830	3.9830	-0.7668	25.88	-0.05	-0.750			
0.1167	7467.87	3.9800	3.9800	-0.7688	25.88	-0.05	-0.750			
0.1190	7616.77	3.9770	3.9769	-0.7723	25.89	-0.04	-0.750			
0.1213	7764.85	3.9740	3.9741	-0.7703	25.89	-0.04	-0.750			
0.1236	7911.78	3.9710	3.9709	-0.7785	25.89	-0.04	-0.750			
0.1260	8061.59	3.9680	3.9681	-0.7796	25.89	-0.04	-0.750			
0.1283	8210.69	3.9650	3.9649	-0.7770	25.89	-0.04	-0.750			
0.1307	8361.79	3.9620	3.9620	-0.7828	25.89	-0.04	-0.750			
0.1330	8512.26	3.9590	3.9594	-0.7842	25.89	-0.04	-0.750			
0.1354	8662.44	3.9560	3.9559	-0.7862	25.89	-0.04	-0.750			
0.1377	8814.07	3.9530	3.9530	-0.7874	25.90	-0.03	-0.750			
0.1401	8964.02	3.9500	3.9499	-0.7876	25.90	-0.03	-0.750			
0.1425	9117.36	3.9470	3.9471	-0.7921	25.91	-0.02	-0.750			
0.1448	9269.22	3.9440	3.9439	-0.7939	25.91	-0.02	-0.750			
0.1472	9420.38	3.9410	3.9410	-0.7970	25.91	-0.02	-0.750			
0.1496	9573.12	3.9380	3.9380	-0.8044	25.91	-0.02	-0.750			
0.1520	9728.13	3.9350	3.9349	-0.8018	25.92	-0.01	-0.750			
0.1544	9883.26	3.9320	3.9320	-0.8032	25.92	-0.01	-0.750			
0.1569	10039.07	3.9290	3.9291	-0.7988	25.92	-0.01	-0.750			
0.1592	10191.64	3.9260	3.9258	-0.7992	25.92	-0.01	-0.750			
0.1616	10340.36	3.9230	3.9231	-0.8092	25.92	-0.01	-0.750			
0.1640	10497.70	3.9200	3.9199	-0.8131	25.92	-0.01	-0.750			
0.1665	10654.78	3.9170	3.9169	-0.8182	25.93	-0.00	-0.750			
0.1690	10815.09	3.9140	3.9139	-0.8227	25.93	-0.00	-0.750			
0.1715	10974.09	3.9110	3.9110	-0.8242	25.93	0.00	-0.750			
0.1739	11131.91	3.9080	3.9079	-0.8308	25.93	0.00	-0.750			
0.1764	11290.25	3.9050	3.9048	-0.8214	25.93	0.00	-0.750			
0.1788	11445.98	3.9020	3.9020	-0.8158	25.94	0.01	-0.750			
0.1813	11606.11	3.8990	3.8990	-0.8244	25.94	0.01	-0.750			
0.1838	11765.21	3.8960	3.8960	-0.8232	25.94	0.01	-0.750			
0.1863	11921.33	3.8930	3.8929	-0.8288	25.94	0.01	-0.750			
0.1887	12079.54	3.8900	3.8900	-0.8258	25.94	0.01	-0.750			
0.1912	12238.51	3.8870	3.8870	-0.8219	25.95	0.02	-0.750			
0.1937	12398.72	3.8840	3.8839	-0.8292	25.95	0.02	-0.750			
0.1962	12557.41	3.8810	3.8811	-0.8301	25.95	0.02	-0.750			
0.1987	12715.59	3.8780	3.8780	-0.8323	25.96	0.03	-0.750			
0.2012	12875.79	3.8750	3.8749	-0.8315	25.96	0.03	-0.750			
0.2036	13033.50	3.8720	3.8720	-0.8289	25.96	0.03	-0.750			
0.2062	13196.22	3.8690	3.8691	-0.8386	25.97	0.04	-0.750			
0.2087	13358.36	3.8660	3.8660	-0.8428	25.97	0.04	-0.750			
0.2112	13519.16	3.8630	3.8629	-0.8371	25.98	0.05	-0.750			
0.2138	13680.94	3.8600	3.8600	-0.8402	25.98	0.05	-0.750			
0.2163	13843.55	3.8570	3.8569	-0.8403	25.98	0.05	-0.750			
0.2188	14005.40	3.8540	3.8539	-0.8403	25.99	0.06	-0.750			
0.2213	14165.66	3.8510	3.8511	-0.8366	25.99	0.06	-0.750			
0.2238	14324.48	3.8480	3.8479	-0.8395	25.99	0.06	-0.750			
0.2263	14484.82	3.8450	3.8450	-0.8376	25.99	0.06	-0.750			
0.2289	14646.89	3.8420	3.8420	-0.8306	25.99	0.06	-0.750			
0.2314	14809.89	3.8390	3.8389	-0.8292	25.99	0.06	-0.750			
0.2339	14969.76	3.8360	3.8361	-0.8224	25.99	0.06	-0.750			
0.2363	15124.15	3.8330	3.8331	-0.8247	26.00	0.07	-0.750			
0.2387	15278.54	3.8300	3.8299	-0.8249	26.00	0.07	-0.750			
0.2412	15435.28	3.8270	3.8269	-0.8269	26.00	0.07	-0.750			
0.2437	15598.93	3.8240	3.8240	-0.8351	26.01	0.08	-0.750			
0.2463	15762.94	3.8210	3.8211	-0.8464	26.01	0.08	-0.750			
0.2488	15925.25	3.8180	3.8181	-0.8473	26.02	0.09	-0.750			
0.2514	16089.48	3.8150	3.8149	-0.8421	26.02	0.09	-0.750			
0.2539	16248.15	3.8120	3.8119	-0.8357	26.02	0.09	-0.750			
0.2564	16409.30	3.8090	3.8090	-0.8351	26.03	0.10	-0.750			
0.2589	16570.26	3.8060	3.8061	-0.8323	26.03	0.10	-0.750			
0.2614	16728.37	3.8030	3.8029	-0.8366	26.04	0.11	-0.750			
0.2639	16888.09	3.8000	3.8000	-0.8316	26.04	0.11	-0.750			
0.2664	17047.93	3.7970	3.7969	-0.8294	26.04	0.11	-0.750			
0.2689	17209.12	3.7940	3.7939	-0.8316	26.05	0.12	-0.750			
0.2714	17368.87	3.7910	3.7910	-0.8270	26.05	0.12	-0.750			
0.2739	17527.21	3.7880	3.7880	-0.8288	26.06	0.13	-0.750			
0.2763	17685.94	3.7850	3.7850	-0.8246	26.06	0.13	-0.750			
0.2788	17842.32	3.7820	3.7820	-0.8174	26.06	0.13	-0.750			
0.2813	18001.02	3.7790	3.7790	-0.8234	26.07	0.14	-0.750			
0.2837	18159.65	3.7760	3.7759	-0.8190	26.07	0.14	-0.750			
0.2862	18315.68	3.7730	3.7731	-0.8165	26.07	0.14	-0.750			
0.2886	18472.06	3.7700	3.7700	-0.8158	26.07	0.14	-0.750			
0.2911	18627.85	3.7670	3.7671	-0.8096	26.08	0.15	-0.750			
0.2935	18784.99	3.7640	3.7638	-0.8102	26.08	0.15	-0.750			
0.2959	18939.48	3.7610	3.7611	-0.8044	26.08	0.15	-0.750			
0.2983	19092.56	3.7580	3.7580	-0.8005	26.08	0.15	-0.750			
0.3007	19247.47	3.7550	3.7550	-0.8059	26.08	0.15	-0.750			
0.3031	19400.77	3.7520	3.7519	-0.8049	26.09	0.16	-0.750			
0.3055	19554.89	3.7490	3.7490	-0.8053	26.09	0.16	-0.750			
0.3080	19710.64	3.7460	3.7462	-0.8073	26.09	0.16	-0.750			
0.3104	19865.97	3.7430	3.7430	-0.8099	26.09	0.16	-0.750			
0.3128	20021.37	3.7400	3.7400	-0.8193	26.10	0.17	-0.750			
0.3153	20176.57	3.7370	3.7370	-0.8213	26.10	0.17	-0.750			
0.3177	20335.46	3.7340	3.7339	-0.8343	26.11	0.18	-0.750			
0.3203	20496.42	3.7310	3.7313	-0.8403	26.11	0.18	-0.750			
0.3228	20659.42	3.7280	3.7278	-0.8513	26.11	0.18	-0.750			
0.3254	20823.92	3.7250	3.7251	-0.8642	26.12	0.19	-0.750			
0.3280	20990.92	3.7220	3.7220	-0.8682	26.12	0.19	-0.750			
0.3306	21160.38	3.7190	3.7189	-0.8776	26.13	0.20	-0.750			
0.3332	21327.92	3.7160	3.7162	-0.8895	26.13	0.20	-0.750			
0.3359	21497.97	3.7130	3.7130	-0.9001	26.13	0.20	-0.750			
0.3386	21671.95	3.7100	3.7099	-0.9146	26.13	0.20	-0.750			
0.3414	21847.48	3.7070	3.7070	-0.9262	26.13	0.20	-0.750			
0.3442	22027.72	3.7040	3.7041	-0.9525	26.13	0.20	-0.750			
0.3471	22212.42	3.7010	3.7008	-0.9743	26.13	0.20	-0.750			
0.3500	22403.01	3.6980	3.6979	-1.0015	26.13	0.20	-0.750			
0.3531	22597.12	3.6950	3.6950	-1.0178	26.12	0.19	-0.750			
0.3562	22795.34	3.6920	3.6920	-1.0300	26.12	0.19	-0.750			
0.3593	22997.87	3.6890	3.6891	-1.0533	26.12	0.19	-0.750			
0.3625	23199.15	3.6860	3.6860	-1.0725	26.12	0.19	-0.750			
0.3657	23403.88	3.6830	3.6829	-1.0932	26.11	0.18	-0.750			
0.3689	23612.31	3.6800	3.6800	-1.1127	26.11	0.18	-0.750			
0.3724	23832.44	3.6770	3.6769	-1.1508	26.11	0.18	-0.750			
0.3759	24060.56	3.6740	3.6740	-1.1744	26.10	0.17	-0.750			
0.3795	24289.10	3.6710	3.6710	-1.1928	26.10	0.17	-0.750			
0.3831	24518.14	3.6680	3.6682	-1.2150	26.09	0.16	-0.750			
0.3868	24753.36	3.6650	3.6649	-1.2375	26.08	0.15	-0.750			
0.3905	24988.82	3.6620	3.6620	-1.2637	26.08	0.15	-0.750			
0.3943	25234.49	3.6590	3.6590	-1.2987	26.07	0.14	-0.750			
0.3983	25489.33	3.6560	3.6560	-1.3375	26.07	0.14	-0.750			
0.4024	25750.91	3.6530	3.6529	-1.3625	26.06	0.13	-0.750			
0.4065	26014.47	3.6500	3.6500	-1.4034	26.05	0.12	-0.750			
0.4108	26288.42	3.6470	3.6468	-1.4262	26.05	0.12	-0.750			
0.4151	26566.84	3.6440	3.6439	-1.4610	26.04	0.11	-0.750			
0.4195	26848.88	3.6410	3.6411	-1.4917	26.03	0.10	-0.750			
0.4240	27135.33	3.6380	3.6379	-1.5216	26.02	0.09	-0.750			
0.4286	27433.60	3.6350	3.6353	-1.5549	26.02	0.09	-0.750			
0.4334	27734.43	3.6320	3.6321	-1.5800	26.01	0.08	-0.750			
0.4381	28035.49	3.6290	3.6287	-1.6043	26.00	0.07	-0.750			
0.4430	28353.42	3.6260	3.6261	-1.6386	25.99	0.06	-0.750			
0.4480	28671.68	3.6230	3.6228	-1.6752	25.99	0.06	-0.750			
0.4531	28999.01	3.6200	3.6201	-1.7035	25.98	0.05	-0.750	0.404	0.512	
0.4582	29321.79	3.6170	3.6172	-1.7254	25.97	0.04	-0.750			
0.4635	29661.13	3.6140	3.6143	-1.7727	25.96	0.03	-0.750			
0.4688	30005.82	3.6110	3.6110	-1.8148	25.95	0.02	-0.750			
0.4743	30354.82	3.6080	3.6078	-1.8515	25.94	0.01	-0.750			
0.4799	30715.28	3.6050	3.6051	-1.8870	25.93	0.00	-0.750			
0.4856	31079.14	3.6020	3.6020	-1.9486	25.93	0.00	-0.750			
0.4916	31461.10	3.5990	3.5990	-1.9859	25.93	0.00	-0.750			
0.4975	31841.80	3.5960	3.5959	-2.0315	25.93	-0.00	-0.750			
0.5038	32244.95	3.5930	3.5931	-2.0746	25.92	-0.01	-0.750			
0.5101	32645.08	3.5900	3.5902	-2.1121	25.91	-0.02	-0.750			
0.5165	33056.06	3.5870	3.5870	-2.1460	25.91	-0.02	-0.750			
0.5230	33472.24	3.5840	3.5839	-2.1739	25.91	-0.02	-0.750			
0.5295	33889.89	3.5810	3.5811	-2.1995	25.91	-0.02	-0.750			
0.5362	34317.19	3.5780	3.5780	-2.2266	25.91	-0.02	-0.750			
0.5430	34752.48	3.5750	3.5750	-2.2255	25.90	-0.03	-0.750			
0.5498	35188.32	3.5720	3.5721	-2.2277	25.90	-0.03	-0.750			
0.5564	35606.95	3.5690	3.5691	-2.2426	25.89	-0.04	-0.750			
0.5631	36035.86	3.5660	3.5659	-2.2560	25.89	-0.04	-0.750			
0.5698	36468.47	3.5630	3.5632	-2.2689	25.89	-0.04	-0.750			
0.5767	36905.66	3.5600	3.5599	-2.2869	25.89	-0.04	-0.750			
0.5836	37349.53	3.5570	3.5570	-2.3129	25.89	-0.04	-0.750			
0.5906	37797.89	3.5540	3.5539	-2.3097	25.89	-0.04	-0.750			
0.5976	38249.26	3.5510	3.5509	-2.3152	25.89	-0.04	-0.750			
0.6044	38684.75	3.5480	3.5480	-2.2722	25.90	-0.03	-0.750			
0.6114	39127.49	3.5450	3.5449	-2.2607	25.91	-0.02	-0.750			
0.6181	39558.41	3.5420	3.5421	-2.2340	25.91	-0.02	-0.750			
0.6248	39985.26	3.5390	3.5389	-2.2038	25.92	-0.01	-0.750			
0.6313	40403.98	3.5360	3.5360	-2.1696	25.93	-0.00	-0.750			
0.6378	40818.07	3.5330	3.5330	-2.1433	25.93	0.00	-0.750			
0.6443	41232.71	3.5300	3.5300	-2.0971	25.93	0.00	-0.750			
0.6505	41630.94	3.5270	3.5270	-2.0710	25.94	0.01	-0.750			
0.6567	42026.42	3.5240	3.5241	-2.0189	25.95	0.02	-0.750			
0.6626	42408.86	3.5210	3.5208	-1.9738	25.96	0.03	-0.750			
0.6685	42782.39	3.5180	3.5180	-1.9235	25.97	0.04	-0.750			
0.6743	43152.31	3.5150	3.5151	-1.8549	25.98	0.05	-0.750			
0.6797	43503.30	3.5120	3.5121	-1.7934	25.99	0.06	-0.750			
0.6851	43846.54	3.5090	3.5089	-1.7469	26.00	0.07	-0.750			
0.6901	44167.78	3.5060	3.5061	-1.6655	26.01	0.08	-0.750			
0.6951	44486.30	3.5030	3.5029	-1.6179	26.02	0.09	-0.750			
0.6998	44789.69	3.5000	3.5001	-1.5540	26.04	0.11	-0.750			
0.7044	45079.06	3.4970	3.4969	-1.4951	26.06	0.13	-0.750			
0.7088	45365.57	3.4940	3.4941	-1.4511	26.07	0.14	-0.750			
0.7130	45634.90	3.4910	3.4909	-1.3927	26.09	0.16	-0.750			
0.7171	45892.68	3.4880	3.4880	-1.3426	26.10	0.17	-0.750			
0.7210	46146.76	3.4850	3.4852	-1.3043	26.11	0.18	-0.750			
0.7250	46399.86	3.4820	3.4819	-1.2757	26.13	0.20	-0.750			
0.7288	46640.43	3.4790	3.4790	-1.2328	26.14	0.21	-0.750			
0.7324	46872.01	3.4760	3.4760	-1.1921	26.15	0.22	-0.750			
0.7359	47098.12	3.4730	3.4730	-1.1598	26.16	0.23	-0.750			
0.7394	47318.42	3.4700	3.4700	-1.1166	26.18	0.25	-0.750			
0.7426	47527.65	3.4670	3.4669	-1.0755	26.20	0.27	-0.750			
0.7458	47728.67	3.4640	3.4642	-1.0406	26.21	0.28	-0.750			
0.7489	47927.04	3.4610	3.4609	-1.0098	26.22	0.29	-0.750			
0.7518	48115.89	3.4580	3.4579	-0.9748	26.24	0.31	-0.750			
0.7547	48297.64	3.4550	3.4550	-0.9449	26.25	0.32	-0.750			
0.7575	48477.55	3.4520	3.4521	-0.9275	26.26	0.33	-0.750			
0.7602	48651.81	3.4490	3.4489	-0.9135	26.27	0.34	-0.750			
0.7629	48822.70	3.4460	3.4460	-0.8968	26.28	0.35	-0.750			
0.7655	48992.19	3.4430	3.4430	-0.8936	26.29	0.36	-0.750			
0.7681	49161.52	3.4400	3.4401	-0.9002	26.30	0.37	-0.750			
0.7708	49332.63	3.4370	3.4371	-0.9188	26.31	0.38	-0.750			
0.7736	49509.50	3.4340	3.4340	-0.9444	26.32	0.39	-0.750			
0.7764	49691.47	3.4310	3.4309	-0.9697	26.33	0.40	-0.750			
0.7794	49882.08	3.4280	3.4280	-0.9942	26.34	0.41	-0.750			
0.7825	50078.62	3.4250	3.4251	-1.0210	26.35	0.42	-0.750			
0.7856	50277.95	3.4220	3.4220	-1.0431	26.35	0.42	-0.750			
0.7888	50484.34	3.4190	3.4189	-1.0453	26.36	0.43	-0.750			
0.7920	50686.25	3.4160	3.4159	-1.0438	26.36	0.43	-0.750			
0.7951	50887.87	3.4130	3.4133	-1.0343	26.37	0.44	-0.750			
0.7983	51089.05	3.4100	3.4100	-1.0224	26.38	0.45	-0.750			
0.8013	51285.17	3.4070	3.4068	-0.9962	26.39	0.46	-0.750			
0.8043	51474.47	3.4040	3.4040	-0.9643	26.41	0.48	-0.750			
0.8071	51657.26	3.4010	3.4011	-0.9384	26.42	0.49	-0.750			
0.8099	51834.73	3.3980	3.3980	-0.9063	26.43	0.50	-0.750			
0.8126	52004.17	3.3950	3.3950	-0.8688	26.43	0.50	-0.750			
0.8151	52167.69	3.3920	3.3920	-0.8372	26.44	0.51	-0.750			
0.8176	52325.60	3.3890	3.3890	-0.8037	26.44	0.51	-0.750			
0.8200	52478.59	3.3860	3.3860	-0.7729	26.45	0.52	-0.750			
0.8222	52622.43	3.3830	3.3830	-0.7405	26.46	0.53	-0.750			
0.8244	52760.08	3.3800	3.3800	-0.7087	26.47	0.54	-0.750			
0.8265	52893.18	3.3770	3.3770	-0.6838	26.47	0.54	-0.750			
0.8285	53021.25	3.3740	3.3740	-0.6575	26.48	0.55	-0.750			
0.8304	53145.41	3.3710	3.3710	-0.6313	26.49	0.56	-0.750			
0.8323	53264.18	3.3680	3.3679	-0.6092	26.50	0.57	-0.750			
0.8340	53378.64	3.3650	3.3650	-0.5864	26.50	0.57	-0.750			
0.8358	53488.18	3.3620	3.3619	-0.5639	26.51	0.58	-0.750			
0.8374	53594.19	3.3590	3.3590	-0.5402	26.51	0.58	-0.750			
0.8390	53695.67	3.3560	3.3560	-0.5199	26.51	0.58	-0.750			
0.8405	53794.25	3.3530	3.3531	-0.5017	26.52	0.59	-0.750			
0.8420	53888.72	3.3500	3.3499	-0.4819	26.52	0.59	-0.750			
0.8434	53977.68	3.3470	3.3470	-0.4621	26.53	0.60	-0.750			
0.8448	54065.14	3.3440	3.3439	-0.4455	26.53	0.60	-0.750			
0.8461	54148.44	3.3410	3.3409	-0.4289	26.53	0.60	-0.750			
0.8473	54229.81	3.3380	3.3380	-0.4148	26.54	0.61	-0.750			
0.8486	54307.25	3.3350	3.3350	-0.3986	26.55	0.62	-0.750			
0.8497	54382.06	3.3320	3.3320	-0.3853	26.55	0.62	-0.750			
0.8509	54454.60	3.3290	3.3291	-0.3722	26.56	0.63	-0.750			
0.8519	54524.54	3.3260	3.3260	-0.3594	26.57	0.64	-0.750			
0.8530	54592.91	3.3230	3.3229	-0.3470	26.57	0.64	-0.750			
0.8540	54658.01	3.3200	3.3201	-0.3361	26.58	0.65	-0.750			
0.8550	54721.34	3.3170	3.3170	-0.3254	26.58	0.65	-0.750			
0.8560	54782.92	3.3140	3.3140	-0.3150	26.59	0.66	-0.750			
0.8569	54842.37	3.3110	3.3111	-0.3045	26.60	0.67	-0.750			
0.8578	54899.54	3.3080	3.3079	-0.2951	26.60	0.67	-0.750			
0.8587	54955.20	3.3050	3.3050	-0.2866	26.60	0.67	-0.750			
0.8595	55009.47	3.3020	3.3020	-0.2774	26.61	0.68	-0.750			
0.8603	55061.09	3.2990	3.2990	-0.2685	26.61	0.68	-0.750			
0.8611	55111.91	3.2960	3.2960	-0.2625	26.62	0.69	-0.750			
0.8619	55161.23	3.2930	3.2931	-0.2556	26.62	0.69	-0.750			
0.8627	55209.69	3.2900	3.2899	-0.2495	26.62	0.69	-0.750			
0.8634	55257.01	3.2870	3.2870	-0.2429	26.63	0.70	-0.750			
0.8641	55303.21	3.2840	3.2841	-0.2377	26.63	0.70	-0.750			
0.8648	55348.13	3.2810	3.2810	-0.2316	26.63	0.70	-0.750			
0.8655	55392.37	3.2780	3.2780	-0.2274	26.64	0.71	-0.750			
0.8662	55434.93	3.2750	3.2749	-0.2213	26.64	0.71	-0.750			
0.8668	55476.52	3.2720	3.2720	-0.2168	26.64	0.71	-0.750			
0.8675	55517.81	3.2690	3.2691	-0.2133	26.65	0.72	-0.750			
0.8681	55558.34	3.2660	3.2661	-0.2103	26.65	0.72	-0.750			
0.8687	55598.76	3.2630	3.2629	-0.2060	26.65	0.72	-0.750			
0.8693	55637.85	3.2600	3.2600	-0.2020	26.66	0.73	-0.750			
0.8699	55676.24	3.2570	3.2570	-0.1979	26.66	0.73	-0.750			
0.8705	55713.78	3.2540	3.2541	-0.1945	26.66	0.73	-0.750			
0.8711	55750.92	3.2510	3.2509	-0.1909	26.67	0.74	-0.750			
0.8717	55786.60	3.2480	3.2480	-0.1870	26.67	0.74	-0.750			
0.8722	55822.26	3.2450	3.2450	-0.1844	26.68	0.75	-0.750			
0.8728	55857.31	3.2420	3.2420	-0.1809	26.68	0.75	-0.750			
0.8733	55891.96	3.2390	3.2389	-0.1790	26.69	0.76	-0.750			
0.8738	55925.82	3.2360	3.2360	-0.1761	26.69	0.76	-0.750			
0.8744	55959.41	3.2330	3.2331	-0.1738	26.70	0.77	-0.750			
0.8749	55992.43	3.2300	3.2300	-0.1715	26.70	0.77	-0.750			
0.8754	56025.12	3.2270	3.2271	-0.1701	26.71	0.78	-0.750			
0.8759	56057.51	3.2240	3.2240	-0.1676	26.71	0.78	-0.750			
0.8764	56089.55	3.2210	3.2209	-0.1661	26.72	0.79	-0.750			
0.8769	56121.70	3.2180	3.2180	-0.1640	26.72	0.79	-0.750			
0.8774	56152.79	3.2150	3.2151	-0.1617	26.73	0.80	-0.750			
0.8779	56183.58	3.2120	3.2120	-0.1599	26.73	0.80	-0.750			
0.8783	56214.08	3.2090	3.2090	-0.1578	26.74	0.81	-0.750			
0.8788	56244.18	3.2060	3.2059	-0.1554	26.74	0.81	-0.750			
0.8793	56273.56	3.2030	3.2030	-0.1533	26.75	0.82	-0.750			
0.8797	56302.93	3.2000	3.2000	-0.1519	26.75	0.82	-0.750			
0.8802	56331.85	3.1970	3.1970	-0.1508	26.76	0.83	-0.750			
0.8806	56360.65	3.1940	3.1939	-0.1496	26.76	0.83	-0.750			
0.8811	56389.24	3.1910	3.1909	-0.1478	26.77	0.84	-0.750			
0.8815	56417.52	3.1880	3.1881	-0.1465	26.77	0.84	-0.750			
0.8820	56445.56	3.1850	3.1849	-0.1450	26.77	0.84	-0.750			
0.8824	56473.44	3.1820	3.1821	-0.1440	26.78	0.85	-0.750			
0.8828	56500.89	3.1790	3.1790	-0.1422	26.78	0.85	-0.750			
0.8833	56528.07	3.1760	3.1759	-0.1403	26.79	0.86	-0.750			
0.8837	56554.66	3.1730	3.1730	-0.1388	26.79	0.86	-0.750			
0.8841	56581.13	3.1700	3.1700	-0.1372	26.80	0.87	-0.750			
0.8845	56607.36	3.1670	3.1670	-0.1360	26.80	0.87	-0.750			
0.8849	56633.32	3.1640	3.1639	-0.1352	26.81	0.88	-0.750			
0.8853	56659.19	3.1610	3.1610	-0.1337	26.81	0.88	-0.750			
0.8857	56684.70	3.1580	3.1580	-0.1325	26.82	0.89	-0.750			
0.8861	56710.02	3.1550	3.1550	-0.1317	26.82	0.89	-0.750			
0.8865	56735.27	3.1520	3.1521	-0.1312	26.83	0.90	-0.750			
0.8869	56760.24	3.1490	3.1490	-0.1302	26.83	0.90	-0.750			
0.8873	56785.18	3.1460	3.1459	-0.1296	26.84	0.91	-0.750			
0.8877	56810.03	3.1430	3.1430	-0.1287	26.84	0.91	-0.750			
0.8880	56834.65	3.1400	3.1400	-0.1276	26.84	0.91	-0.750			
0.8884	56859.34	3.1370	3.1370	-0.1271	26.85	0.92	-0.750			
0.8888	56883.59	3.1340	3.1340	-0.1260	26.85	0.92	-0.750			
0.8892	56907.63	3.1310	3.1310	-0.1247	26.86	0.93	-0.750			
0.8896	56931.45	3.1280	3.1280	-0.1234	26.86	0.93	-0.750			
0.8899	56955.05	3.1250	3.1250	-0.1222	26.87	0.94	-0.750			
0.8903	56978.35	3.1220	3.1220	-0.1212	26.87	0.94	-0.750			
0.8906	57001.49	3.1190	3.1191	-0.1200	26.88	0.95	-0.750			
0.8910	57024.22	3.1160	3.1160	-0.1196	26.88	0.95	-0.750			
0.8914	57047.13	3.1130	3.1130	-0.1191	26.89	0.96	-0.750			
0.8917	57069.93	3.1100	3.1100	-0.1181	26.89	0.96	-0.750			
0.8921	57092.55	3.1070	3.1069	-0.1175	26.89	0.96	-0.750			
0.8924	57115.32	3.1040	3.1041	-0.1167	26.90	0.97	-0.750			
0.8928	57137.61	3.1010	3.1010	-0.1155	26.90	0.97	-0.750			
0.8931	57159.68	3.0980	3.0980	-0.1149	26.91	0.98	-0.750			
0.8935	57181.63	3.0950	3.0950	-0.1138	26.91	0.98	-0.750			
0.8938	57203.00	3.0920	3.0920	-0.1130	26.91	0.98	-0.750			
0.8941	57224.68	3.0890	3.0890	-0.1128	26.92	0.99	-0.750			
0.8945	57246.41	3.0860	3.0859	-0.1120	26.92	0.99	-0.750			
0.8948	57267.87	3.0830	3.0831	-0.1115	26.92	0.99	-0.750			
0.8951	57289.36	3.0800	3.0800	-0.1111	26.93	1.00	-0.750			
0.8955	57310.60	3.0770	3.0771	-0.1102	26.93	1.00	-0.750			
0.8958	57331.68	3.0740	3.0740	-0.1095	26.94	1.01	-0.750			
0.8961	57352.62	3.0710	3.0710	-0.1087	26.95	1.02	-0.750			
0.8965	57373.38	3.0680	3.0680	-0.1076	26.95	1.02	-0.750			
0.8968	57393.95	3.0650	3.0650	-0.1068	26.96	1.03	-0.750			
0.8971	57414.38	3.0620	3.0621	-0.1065	26.96	1.03	-0.750			
0.8974	57434.76	3.0590	3.0590	-0.1058	26.97	1.04	-0.750			
0.8977	57454.77	3.0560	3.0560	-0.1053	26.97	1.04	-0.750			
0.8980	57474.97	3.0530	3.0530	-0.1052	26.98	1.05	-0.750			
0.8984	57495.28	3.0500	3.0500	-0.1043	26.98	1.05	-0.750			
0.8987	57515.26	3.0470	3.0470	-0.1038	26.99	1.06	-0.750			
0.8990	57535.31	3.0440	3.0440	-0.1036	27.00	1.07	-0.750			
0.8993	57555.11	3.0410	3.0410	-0.1027	27.00	1.07	-0.750			
0.8996	57574.68	3.0380	3.0380	-0.1019	27.01	1.08	-0.750			
0.8999	57594.17	3.0350	3.0349	-0.1012	27.01	1.08	-0.750			
0.9002	57613.27	3.0320	3.0321	-0.1006	27.02	1.09	-0.750			
0.9005	57632.70	3.0290	3.0289	-0.1003	27.02	1.09	-0.750			
0.9008	57652.03	3.0260	3.0260	-0.1002	27.03	1.10	-0.750			
0.9011	57671.40	3.0230	3.0228	-0.0993	27.03	1.10	-0.750			
0.9014	57690.49	3.0200	3.0200	-0.0986	27.04	1.11	-0.750			
0.9017	57709.32	3.0170	3.0171	-0.0975	27.04	1.11	-0.750			
0.9020	57728.03	3.0140	3.0140	-0.0970	27.05	1.12	-0.750			
0.9023	57746.55	3.0110	3.0111	-0.0959	27.05	1.12	-0.750			
0.9026	57764.67	3.0080	3.0080	-0.0950	27.06	1.13	-0.751			
0.9029	57782.85	3.0050	3.0049	-0.0944	27.06	1.13	-0.751			
0.9031	57801.05	3.0020	3.0020	-0.0968	27.07	1.14	-0.751			
