Ah_balance (normalized)	Ah_balance (mAh)	Voltage - fit (V)	Voltage -  interpolate (V)	dQ/dV (1/V)	Temperature (°C)	Temperature - diff (°C)	Current (C)	R_DC 0ms (mOhm)	R_DC 50ms (mOhm)	R_DC 50 ms PEC (mOhm)
0.0004	27.43	4.1580	4.1580	-0.1327	25.79	0.02	-0.750			
0.0009	58.37	4.1550	4.1549	-0.1757	25.79	0.02	-0.750			
0.0015	95.68	4.1520	4.1519	-0.2121	25.79	0.02	-0.750			
0.0022	140.18	4.1490	4.1490	-0.2472	25.79	0.02	-0.750			
0.0030	191.39	4.1460	4.1460	-0.2802	25.78	0.01	-0.750			
0.0039	249.04	4.1430	4.1430	-0.3152	25.78	0.01	-0.750			
0.0049	312.95	4.1400	4.1400	-0.3467	25.78	0.01	-0.750			
0.0060	382.50	4.1370	4.1370	-0.3774	25.78	0.01	-0.750			
0.0072	458.25	4.1340	4.1340	-0.4114	25.78	0.01	-0.750			
0.0085	541.47	4.1310	4.1310	-0.4390	25.78	0.01	-0.750			
0.0098	629.78	4.1280	4.1279	-0.4618	25.77	0.00	-0.750			
0.0113	722.26	4.1250	4.1250	-0.4844	25.77	0.00	-0.750			
0.0128	816.50	4.1220	4.1220	-0.5021	25.77	-0.00	-0.750			
0.0143	915.06	4.1190	4.1189	-0.5200	25.77	-0.00	-0.750			
0.0159	1015.77	4.1160	4.1160	-0.5356	25.76	-0.01	-0.750			
0.0175	1118.44	4.1130	4.1130	-0.5515	25.76	-0.01	-0.750			
0.0192	1228.57	4.1100	4.1101	-0.5728	25.76	-0.01	-0.750			
0.0210	1341.59	4.1070	4.1070	-0.5827	25.76	-0.01	-0.750			
0.0227	1455.73	4.1040	4.1040	-0.5951	25.75	-0.02	-0.750			
0.0245	1570.64	4.1010	4.1011	-0.6043	25.75	-0.02	-0.750			
0.0264	1687.36	4.0980	4.0981	-0.6127	25.75	-0.02	-0.750			
0.0282	1805.59	4.0950	4.0948	-0.6204	25.74	-0.03	-0.750			
0.0301	1924.61	4.0920	4.0920	-0.6313	25.74	-0.03	-0.750			
0.0320	2047.95	4.0890	4.0890	-0.6350	25.73	-0.04	-0.750			
0.0339	2171.17	4.0860	4.0860	-0.6408	25.73	-0.04	-0.750			
0.0359	2294.48	4.0830	4.0830	-0.6464	25.72	-0.05	-0.750			
0.0378	2418.94	4.0800	4.0800	-0.6513	25.72	-0.05	-0.750			
0.0398	2544.14	4.0770	4.0769	-0.6561	25.72	-0.05	-0.750			
0.0417	2670.83	4.0740	4.0740	-0.6589	25.72	-0.05	-0.750			
0.0437	2798.42	4.0710	4.0711	-0.6670	25.72	-0.05	-0.750			
0.0458	2929.33	4.0680	4.0679	-0.6725	25.72	-0.05	-0.750			
0.0478	3059.09	4.0650	4.0649	-0.6751	25.72	-0.05	-0.750			
0.0498	3189.02	4.0620	4.0622	-0.6740	25.72	-0.05	-0.750			
0.0518	3317.73	4.0590	4.0590	-0.6762	25.72	-0.05	-0.750			
0.0538	3446.18	4.0560	4.0560	-0.6816	25.72	-0.05	-0.750			
0.0559	3574.84	4.0530	4.0530	-0.6799	25.72	-0.05	-0.750			
0.0580	3709.28	4.0500	4.0499	-0.6923	25.72	-0.05	-0.750			
0.0600	3843.18	4.0470	4.0470	-0.6973	25.72	-0.05	-0.750			
0.0622	3978.30	4.0440	4.0441	-0.6975	25.72	-0.05	-0.750			
0.0643	4114.61	4.0410	4.0410	-0.7017	25.72	-0.05	-0.750			
0.0664	4247.17	4.0380	4.0380	-0.7032	25.72	-0.05	-0.750			
0.0685	4381.10	4.0350	4.0351	-0.7014	25.72	-0.05	-0.750			
0.0706	4516.67	4.0320	4.0319	-0.7031	25.72	-0.05	-0.750			
0.0727	4650.70	4.0290	4.0289	-0.7065	25.72	-0.05	-0.750			
0.0748	4786.83	4.0260	4.0261	-0.7098	25.72	-0.05	-0.750			
0.0769	4923.91	4.0230	4.0230	-0.7116	25.72	-0.05	-0.750			
0.0791	5060.28	4.0200	4.0200	-0.7168	25.72	-0.05	-0.750			
0.0812	5198.49	4.0170	4.0170	-0.7124	25.73	-0.04	-0.750			
0.0834	5337.56	4.0140	4.0140	-0.7166	25.73	-0.04	-0.750			
0.0855	5474.08	4.0110	4.0110	-0.7200	25.73	-0.04	-0.750			
0.0877	5611.94	4.0080	4.0080	-0.7178	25.73	-0.04	-0.750			
0.0898	5750.02	4.0050	4.0049	-0.7203	25.73	-0.04	-0.750			
0.0920	5887.73	4.0020	4.0020	-0.7248	25.74	-0.03	-0.750			
0.0942	6026.37	3.9990	3.9991	-0.7267	25.74	-0.03	-0.750			
0.0964	6168.75	3.9960	3.9959	-0.7327	25.75	-0.02	-0.750			
0.0986	6310.16	3.9930	3.9930	-0.7308	25.75	-0.02	-0.750			
0.1008	6449.19	3.9900	3.9900	-0.7316	25.75	-0.02	-0.750			
0.1030	6590.60	3.9870	3.9870	-0.7370	25.75	-0.02	-0.750			
0.1052	6731.35	3.9840	3.9839	-0.7408	25.75	-0.02	-0.750			
0.1074	6873.02	3.9810	3.9809	-0.7388	25.75	-0.02	-0.750			
0.1096	7016.52	3.9780	3.9780	-0.7433	25.75	-0.02	-0.750			
0.1119	7160.04	3.9750	3.9752	-0.7433	25.75	-0.02	-0.750			
0.1141	7304.09	3.9720	3.9719	-0.7455	25.75	-0.02	-0.750			
0.1163	7444.23	3.9690	3.9691	-0.7497	25.76	-0.01	-0.750			
0.1186	7588.03	3.9660	3.9660	-0.7482	25.76	-0.01	-0.750			
0.1208	7733.31	3.9630	3.9629	-0.7558	25.76	-0.01	-0.750			
0.1231	7879.90	3.9600	3.9599	-0.7572	25.77	-0.00	-0.750			
0.1254	8025.32	3.9570	3.9571	-0.7595	25.77	0.00	-0.750			
0.1277	8170.95	3.9540	3.9539	-0.7590	25.78	0.01	-0.750			
0.1299	8315.45	3.9510	3.9510	-0.7622	25.78	0.01	-0.750			
0.1322	8462.22	3.9480	3.9480	-0.7606	25.78	0.01	-0.750			
0.1345	8609.90	3.9450	3.9448	-0.7669	25.79	0.02	-0.750			
0.1369	8758.47	3.9420	3.9424	-0.7655	25.79	0.02	-0.750			
0.1391	8905.52	3.9390	3.9389	-0.7666	25.79	0.02	-0.750			
0.1414	9051.24	3.9360	3.9360	-0.7713	25.80	0.03	-0.750			
0.1438	9200.27	3.9330	3.9330	-0.7720	25.80	0.03	-0.750			
0.1461	9349.47	3.9300	3.9299	-0.7760	25.80	0.03	-0.750			
0.1484	9498.50	3.9270	3.9270	-0.7744	25.81	0.04	-0.750			
0.1507	9647.04	3.9240	3.9241	-0.7752	25.81	0.04	-0.750			
0.1531	9796.02	3.9210	3.9210	-0.7786	25.81	0.04	-0.750			
0.1554	9945.35	3.9180	3.9179	-0.7712	25.81	0.04	-0.750			
0.1577	10093.11	3.9150	3.9150	-0.7681	25.82	0.05	-0.750			
0.1600	10241.66	3.9120	3.9121	-0.7720	25.82	0.05	-0.750			
0.1623	10386.80	3.9090	3.9091	-0.7799	25.82	0.05	-0.750			
0.1646	10537.58	3.9060	3.9060	-0.7886	25.82	0.05	-0.750			
0.1670	10688.01	3.9030	3.9029	-0.7970	25.82	0.05	-0.750			
0.1695	10844.82	3.9000	3.9000	-0.7993	25.83	0.06	-0.750			
0.1719	11002.64	3.8970	3.8970	-0.8077	25.83	0.06	-0.750			
0.1743	11157.44	3.8940	3.8943	-0.8036	25.83	0.06	-0.750			
0.1767	11311.31	3.8910	3.8909	-0.7991	25.83	0.06	-0.750			
0.1791	11462.47	3.8880	3.8879	-0.7952	25.84	0.07	-0.750			
0.1815	11614.07	3.8850	3.8850	-0.7923	25.84	0.07	-0.750			
0.1839	11766.66	3.8820	3.8820	-0.7982	25.85	0.08	-0.750			
0.1862	11919.86	3.8790	3.8791	-0.7978	25.85	0.08	-0.750			
0.1886	12073.13	3.8760	3.8760	-0.7971	25.85	0.08	-0.750			
0.1910	12226.07	3.8730	3.8729	-0.8024	25.86	0.09	-0.750			
0.1934	12380.28	3.8700	3.8701	-0.8036	25.86	0.09	-0.750			
0.1959	12536.03	3.8670	3.8670	-0.8020	25.86	0.09	-0.750			
0.1983	12690.92	3.8640	3.8639	-0.8042	25.87	0.10	-0.750			
0.2007	12844.73	3.8610	3.8610	-0.8009	25.87	0.10	-0.750			
0.2031	12997.22	3.8580	3.8579	-0.8003	25.88	0.11	-0.750			
0.2055	13150.48	3.8550	3.8549	-0.7995	25.88	0.11	-0.750			
0.2079	13303.09	3.8520	3.8521	-0.7972	25.88	0.11	-0.750			
0.2103	13458.46	3.8490	3.8490	-0.7989	25.89	0.12	-0.750			
0.2127	13612.63	3.8460	3.8461	-0.8002	25.89	0.12	-0.750			
0.2151	13763.61	3.8430	3.8430	-0.8045	25.89	0.12	-0.750			
0.2175	13919.00	3.8400	3.8399	-0.8006	25.89	0.12	-0.750			
0.2199	14072.35	3.8370	3.8369	-0.7986	25.90	0.13	-0.750			
0.2223	14226.20	3.8340	3.8340	-0.7988	25.90	0.13	-0.750			
0.2247	14380.29	3.8310	3.8312	-0.8015	25.90	0.13	-0.750			
0.2271	14535.01	3.8280	3.8279	-0.7963	25.90	0.13	-0.750			
0.2295	14686.20	3.8250	3.8250	-0.7927	25.90	0.13	-0.750			
0.2318	14837.94	3.8220	3.8220	-0.7917	25.91	0.14	-0.750			
0.2343	14992.67	3.8190	3.8190	-0.7950	25.91	0.14	-0.750			
0.2366	15143.43	3.8160	3.8158	-0.7885	25.91	0.14	-0.750			
0.2390	15294.12	3.8130	3.8130	-0.7868	25.91	0.14	-0.750			
0.2413	15445.00	3.8100	3.8100	-0.7845	25.92	0.15	-0.750			
0.2437	15596.77	3.8070	3.8069	-0.7821	25.92	0.15	-0.750			
0.2460	15746.29	3.8040	3.8040	-0.7745	25.92	0.15	-0.750			
0.2483	15893.26	3.8010	3.8011	-0.7684	25.93	0.16	-0.750			
0.2506	16040.79	3.7980	3.7980	-0.7671	25.93	0.16	-0.750			
0.2529	16186.01	3.7950	3.7949	-0.7655	25.94	0.17	-0.750			
0.2552	16331.98	3.7920	3.7920	-0.7596	25.94	0.17	-0.750			
0.2575	16478.67	3.7890	3.7890	-0.7580	25.94	0.17	-0.750			
0.2598	16626.70	3.7860	3.7860	-0.7586	25.95	0.18	-0.750			
0.2621	16772.58	3.7830	3.7831	-0.7527	25.95	0.18	-0.750			
0.2643	16914.92	3.7800	3.7800	-0.7437	25.95	0.18	-0.750			
0.2665	17055.59	3.7770	3.7770	-0.7454	25.96	0.19	-0.750			
0.2687	17198.37	3.7740	3.7740	-0.7429	25.96	0.19	-0.750			
0.2710	17341.13	3.7710	3.7709	-0.7442	25.96	0.19	-0.750			
0.2732	17483.90	3.7680	3.7680	-0.7423	25.97	0.20	-0.750			
0.2754	17626.75	3.7650	3.7648	-0.7432	25.97	0.20	-0.750			
0.2777	17769.69	3.7620	3.7620	-0.7434	25.97	0.20	-0.750			
0.2799	17912.35	3.7590	3.7590	-0.7430	25.97	0.20	-0.750			
0.2821	18054.66	3.7560	3.7560	-0.7414	25.98	0.21	-0.750			
0.2843	18198.32	3.7530	3.7530	-0.7450	25.98	0.21	-0.750			
0.2866	18340.00	3.7500	3.7501	-0.7475	25.98	0.21	-0.750			
0.2888	18483.45	3.7470	3.7469	-0.7523	25.98	0.21	-0.750			
0.2910	18626.66	3.7440	3.7441	-0.7585	25.98	0.21	-0.750			
0.2933	18772.83	3.7410	3.7410	-0.7673	25.99	0.22	-0.750			
0.2956	18921.20	3.7380	3.7380	-0.7764	25.99	0.22	-0.750			
0.2980	19071.99	3.7350	3.7350	-0.7888	25.99	0.22	-0.750			
0.3004	19223.42	3.7320	3.7321	-0.8006	25.99	0.22	-0.750			
0.3028	19376.21	3.7290	3.7290	-0.8198	25.99	0.22	-0.750			
0.3053	19537.59	3.7260	3.7259	-0.8302	25.99	0.22	-0.750			
0.3078	19699.50	3.7230	3.7230	-0.8384	26.00	0.23	-0.750			
0.3103	19861.96	3.7200	3.7200	-0.8484	26.00	0.23	-0.750			
0.3129	20026.02	3.7170	3.7169	-0.8615	26.00	0.23	-0.750			
0.3155	20191.17	3.7140	3.7139	-0.8726	26.00	0.23	-0.750			
0.3181	20356.96	3.7110	3.7109	-0.8814	25.99	0.22	-0.750			
0.3207	20526.59	3.7080	3.7081	-0.8945	25.99	0.22	-0.750			
0.3235	20703.46	3.7050	3.7050	-0.9195	25.99	0.22	-0.750			
0.3263	20881.03	3.7020	3.7020	-0.9393	25.99	0.22	-0.750			
0.3291	21062.49	3.6990	3.6990	-0.9544	25.99	0.22	-0.750			
0.3320	21247.10	3.6960	3.6960	-0.9669	25.99	0.22	-0.750			
0.3349	21435.28	3.6930	3.6930	-0.9856	25.99	0.22	-0.750			
0.3379	21624.44	3.6900	3.6901	-1.0130	25.99	0.22	-0.750			
0.3410	21822.06	3.6870	3.6870	-1.0258	25.99	0.22	-0.750			
0.3441	22021.23	3.6840	3.6839	-1.0390	25.98	0.21	-0.750			
0.3472	22220.35	3.6810	3.6810	-1.0578	25.98	0.21	-0.750			
0.3504	22426.18	3.6780	3.6780	-1.0863	25.98	0.21	-0.750			
0.3537	22637.49	3.6750	3.6750	-1.1084	25.97	0.20	-0.750			
0.3571	22851.67	3.6720	3.6719	-1.1255	25.96	0.19	-0.750			
0.3604	23068.61	3.6690	3.6691	-1.1428	25.95	0.18	-0.750			
0.3640	23294.81	3.6660	3.6660	-1.1764	25.95	0.18	-0.750			
0.3675	23522.73	3.6630	3.6630	-1.1925	25.94	0.17	-0.750			
0.3711	23751.57	3.6600	3.6599	-1.2062	25.94	0.17	-0.750			
0.3747	23982.62	3.6570	3.6571	-1.2311	25.93	0.16	-0.750			
0.3785	24222.83	3.6540	3.6540	-1.2596	25.92	0.15	-0.750			
0.3823	24466.80	3.6510	3.6509	-1.2858	25.92	0.15	-0.750			
0.3862	24715.50	3.6480	3.6479	-1.3146	25.91	0.14	-0.750			
0.3902	24973.24	3.6450	3.6450	-1.3412	25.90	0.13	-0.750			
0.3943	25233.97	3.6420	3.6420	-1.3675	25.90	0.13	-0.750			
0.3984	25498.08	3.6390	3.6391	-1.3975	25.89	0.12	-0.750			
0.4026	25769.51	3.6360	3.6359	-1.4141	25.88	0.11	-0.750			
0.4070	26045.33	3.6330	3.6329	-1.4420	25.88	0.11	-0.750			
0.4113	26324.01	3.6300	3.6302	-1.4766	25.87	0.10	-0.750			
0.4157	26607.85	3.6270	3.6269	-1.5073	25.86	0.09	-0.750			
0.4203	26902.36	3.6240	3.6241	-1.5420	25.86	0.09	-0.750			
0.4251	27203.45	3.6210	3.6212	-1.5525	25.85	0.08	-0.750			
0.4297	27500.69	3.6180	3.6179	-1.5868	25.84	0.07	-0.750			
0.4346	27813.85	3.6150	3.6151	-1.6137	25.83	0.06	-0.750	0.391	0.548	
0.4394	28124.41	3.6120	3.6119	-1.6443	25.82	0.05	-0.750			
0.4444	28442.69	3.6090	3.6090	-1.6858	25.81	0.04	-0.750			
0.4494	28761.21	3.6060	3.6062	-1.7259	25.81	0.04	-0.750			
0.4547	29100.30	3.6030	3.6032	-1.7856	25.80	0.03	-0.750			
0.4602	29450.42	3.6000	3.6000	-1.8424	25.79	0.02	-0.750			
0.4657	29807.79	3.5970	3.5969	-1.8654	25.79	0.02	-0.750			
0.4715	30175.92	3.5940	3.5941	-1.9183	25.79	0.02	-0.750			
0.4773	30546.62	3.5910	3.5910	-1.9266	25.79	0.02	-0.750			
0.4831	30920.07	3.5880	3.5879	-1.9517	25.78	0.01	-0.750			
0.4890	31293.54	3.5850	3.5850	-1.9752	25.77	0.00	-0.750			
0.4949	31676.76	3.5820	3.5817	-2.0008	25.77	0.00	-0.750			
0.5010	32064.22	3.5790	3.5790	-2.0227	25.77	-0.00	-0.750			
0.5072	32461.68	3.5760	3.5761	-2.0469	25.76	-0.01	-0.750			
0.5134	32857.96	3.5730	3.5729	-2.0643	25.76	-0.01	-0.750			
0.5196	33257.27	3.5700	3.5700	-2.0681	25.75	-0.02	-0.750			
0.5258	33650.72	3.5670	3.5672	-2.0912	25.75	-0.02	-0.750			
0.5321	34056.01	3.5640	3.5640	-2.1069	25.74	-0.03	-0.750			
0.5385	34462.29	3.5610	3.5611	-2.1216	25.74	-0.03	-0.750			
0.5449	34872.58	3.5580	3.5582	-2.1310	25.75	-0.02	-0.750			
0.5513	35281.51	3.5550	3.5551	-2.1513	25.75	-0.02	-0.750			
0.5578	35701.23	3.5520	3.5519	-2.1646	25.75	-0.02	-0.750			
0.5643	36114.71	3.5490	3.5486	-2.1680	25.75	-0.02	-0.750			
0.5709	36540.36	3.5460	3.5463	-2.1764	25.75	-0.02	-0.750			
0.5775	36960.09	3.5430	3.5428	-2.1648	25.75	-0.02	-0.750			
0.5840	37374.71	3.5400	3.5400	-2.1472	25.75	-0.02	-0.750			
0.5904	37783.88	3.5370	3.5372	-2.1062	25.76	-0.01	-0.750			
0.5968	38196.14	3.5340	3.5341	-2.0816	25.77	-0.00	-0.750			
0.6029	38586.56	3.5310	3.5311	-2.0327	25.77	0.00	-0.750			
0.6089	38971.21	3.5280	3.5281	-1.9867	25.78	0.01	-0.750			
0.6148	39349.71	3.5250	3.5249	-1.9608	25.78	0.01	-0.750			
0.6206	39721.09	3.5220	3.5220	-1.9061	25.79	0.02	-0.750			
0.6263	40082.59	3.5190	3.5188	-1.8685	25.79	0.02	-0.750			
0.6319	40439.96	3.5160	3.5160	-1.8431	25.80	0.03	-0.750			
0.6373	40789.35	3.5130	3.5132	-1.8067	25.81	0.04	-0.750			
0.6427	41133.44	3.5100	3.5101	-1.7659	25.82	0.05	-0.750			
0.6480	41470.63	3.5070	3.5070	-1.7054	25.84	0.07	-0.750			
0.6531	41796.29	3.5040	3.5039	-1.6546	25.85	0.08	-0.750			
0.6580	42110.59	3.5010	3.5008	-1.5999	25.86	0.09	-0.750			
0.6627	42410.77	3.4980	3.4979	-1.5451	25.87	0.10	-0.750			
0.6671	42697.52	3.4950	3.4948	-1.4851	25.89	0.12	-0.750			
0.6715	42975.41	3.4920	3.4921	-1.4536	25.91	0.14	-0.750			
0.6758	43252.24	3.4890	3.4891	-1.4035	25.93	0.16	-0.750			
0.6800	43522.71	3.4860	3.4858	-1.3731	25.94	0.17	-0.750			
0.6841	43781.35	3.4830	3.4829	-1.3254	25.96	0.19	-0.750			
0.6879	44027.86	3.4800	3.4801	-1.2774	25.97	0.20	-0.750			
0.6918	44273.69	3.4770	3.4769	-1.2492	25.99	0.22	-0.750			
0.6954	44507.45	3.4740	3.4740	-1.2029	26.00	0.23	-0.750			
0.6989	44730.67	3.4710	3.4711	-1.1569	26.01	0.24	-0.750			
0.7024	44955.41	3.4680	3.4680	-1.1387	26.03	0.26	-0.750			
0.7058	45169.71	3.4650	3.4650	-1.0964	26.04	0.27	-0.750			
0.7090	45377.65	3.4620	3.4619	-1.0572	26.06	0.29	-0.750			
0.7121	45575.56	3.4590	3.4592	-1.0185	26.07	0.30	-0.750			
0.7151	45767.13	3.4560	3.4559	-0.9887	26.08	0.31	-0.750			
0.7180	45954.17	3.4530	3.4530	-0.9593	26.10	0.33	-0.750			
0.7208	46133.28	3.4500	3.4500	-0.9311	26.11	0.34	-0.750			
0.7236	46310.45	3.4470	3.4470	-0.9067	26.12	0.35	-0.750			
0.7263	46480.56	3.4440	3.4440	-0.8920	26.13	0.36	-0.750			
0.7289	46648.80	3.4410	3.4410	-0.8756	26.14	0.37	-0.750			
0.7315	46813.11	3.4380	3.4380	-0.8663	26.15	0.38	-0.750			
0.7340	46977.49	3.4350	3.4349	-0.8531	26.16	0.39	-0.750			
0.7366	47139.93	3.4320	3.4322	-0.8580	26.17	0.40	-0.750			
0.7391	47302.34	3.4290	3.4291	-0.8690	26.18	0.41	-0.750			
0.7417	47469.70	3.4260	3.4260	-0.8823	26.19	0.42	-0.750			
0.7444	47639.36	3.4230	3.4228	-0.8912	26.19	0.42	-0.750			
0.7471	47812.37	3.4200	3.4200	-0.9070	26.20	0.43	-0.750			
0.7498	47989.41	3.4170	3.4172	-0.9190	26.21	0.44	-0.750			
0.7527	48171.03	3.4140	3.4140	-0.9388	26.23	0.46	-0.750			
0.7555	48351.08	3.4110	3.4109	-0.9348	26.24	0.47	-0.750			
0.7583	48531.16	3.4080	3.4080	-0.9264	26.25	0.48	-0.750			
0.7611	48710.94	3.4050	3.4051	-0.9219	26.27	0.50	-0.750			
0.7639	48888.32	3.4020	3.4020	-0.9069	26.28	0.51	-0.750			
0.7666	49061.45	3.3990	3.3989	-0.8895	26.29	0.52	-0.750			
0.7692	49230.21	3.3960	3.3960	-0.8652	26.29	0.52	-0.750			
0.7718	49393.53	3.3930	3.3930	-0.8391	26.30	0.53	-0.750			
0.7743	49555.39	3.3900	3.3901	-0.8214	26.31	0.54	-0.750			
0.7767	49711.00	3.3870	3.3870	-0.7952	26.32	0.55	-0.750			
0.7791	49859.76	3.3840	3.3840	-0.7716	26.33	0.56	-0.750			
0.7813	50005.92	3.3810	3.3810	-0.7471	26.33	0.56	-0.750			
0.7835	50146.92	3.3780	3.3780	-0.7217	26.34	0.57	-0.750			
0.7857	50284.54	3.3750	3.3750	-0.6967	26.35	0.58	-0.750			
0.7877	50415.97	3.3720	3.3720	-0.6707	26.35	0.58	-0.750			
0.7897	50540.79	3.3690	3.3690	-0.6462	26.36	0.59	-0.750			
0.7916	50662.56	3.3660	3.3660	-0.6228	26.37	0.60	-0.750			
0.7934	50779.43	3.3630	3.3629	-0.5983	26.37	0.60	-0.750			
0.7952	50893.29	3.3600	3.3600	-0.5760	26.38	0.61	-0.750			
0.7969	51001.74	3.3570	3.3570	-0.5563	26.38	0.61	-0.750			
0.7985	51105.98	3.3540	3.3540	-0.5365	26.39	0.62	-0.750			
0.8001	51206.13	3.3510	3.3509	-0.5157	26.39	0.62	-0.750			
0.8016	51302.38	3.3480	3.3480	-0.4984	26.40	0.63	-0.750			
0.8031	51396.18	3.3450	3.3450	-0.4840	26.41	0.64	-0.750			
0.8045	51487.69	3.3420	3.3420	-0.4709	26.42	0.65	-0.750			
0.8059	51578.06	3.3390	3.3389	-0.4587	26.42	0.65	-0.750			
0.8072	51663.90	3.3360	3.3360	-0.4432	26.43	0.66	-0.750			
0.8086	51748.34	3.3330	3.3330	-0.4294	26.43	0.66	-0.750			
0.8098	51829.53	3.3300	3.3300	-0.4156	26.44	0.67	-0.750			
0.8111	51907.60	3.3270	3.3271	-0.4018	26.45	0.68	-0.750			
0.8122	51982.49	3.3240	3.3239	-0.3881	26.45	0.68	-0.750			
0.8134	52055.49	3.3210	3.3210	-0.3775	26.46	0.69	-0.750			
0.8145	52126.95	3.3180	3.3180	-0.3670	26.47	0.70	-0.750			
0.8156	52195.96	3.3150	3.3150	-0.3581	26.47	0.70	-0.750			
0.8166	52263.88	3.3120	3.3120	-0.3508	26.48	0.71	-0.750			
0.8177	52330.64	3.3090	3.3090	-0.3413	26.49	0.72	-0.750			
0.8187	52395.65	3.3060	3.3059	-0.3316	26.49	0.72	-0.750			
0.8197	52458.31	3.3030	3.3031	-0.3217	26.50	0.73	-0.750			
0.8206	52518.71	3.3000	3.3001	-0.3140	26.51	0.74	-0.750			
0.8215	52578.11	3.2970	3.2970	-0.3060	26.51	0.74	-0.750			
0.8224	52635.46	3.2940	3.2940	-0.2986	26.52	0.75	-0.750			
0.8233	52691.92	3.2910	3.2910	-0.2926	26.52	0.75	-0.750			
0.8242	52748.16	3.2880	3.2881	-0.2884	26.53	0.76	-0.750			
0.8250	52802.97	3.2850	3.2850	-0.2824	26.54	0.77	-0.750			
0.8259	52856.90	3.2820	3.2820	-0.2749	26.54	0.77	-0.750			
0.8267	52908.82	3.2790	3.2790	-0.2690	26.55	0.78	-0.750			
0.8275	52959.74	3.2760	3.2761	-0.2642	26.55	0.78	-0.750			
0.8283	53009.57	3.2730	3.2729	-0.2591	26.56	0.79	-0.750			
0.8290	53058.72	3.2700	3.2700	-0.2551	26.56	0.79	-0.750			
0.8298	53107.20	3.2670	3.2670	-0.2509	26.57	0.80	-0.750			
0.8306	53155.51	3.2640	3.2640	-0.2469	26.58	0.81	-0.750			
0.8313	53202.99	3.2610	3.2610	-0.2429	26.58	0.81	-0.750			
0.8320	53248.73	3.2580	3.2580	-0.2380	26.59	0.82	-0.750			
0.8327	53293.92	3.2550	3.2551	-0.2338	26.59	0.82	-0.750			
0.8334	53338.16	3.2520	3.2519	-0.2300	26.60	0.83	-0.750			
0.8341	53381.87	3.2490	3.2490	-0.2263	26.60	0.83	-0.750			
0.8348	53425.13	3.2460	3.2460	-0.2224	26.61	0.84	-0.750			
0.8354	53467.55	3.2430	3.2430	-0.2189	26.61	0.84	-0.750			
0.8361	53509.33	3.2400	3.2401	-0.2166	26.62	0.85	-0.750			
0.8367	53550.38	3.2370	3.2372	-0.2138	26.62	0.85	-0.750			
0.8374	53590.95	3.2340	3.2339	-0.2105	26.63	0.86	-0.750			
0.8380	53631.01	3.2310	3.2309	-0.2077	26.63	0.86	-0.750			
0.8386	53670.39	3.2280	3.2280	-0.2051	26.64	0.87	-0.750			
0.8392	53709.63	3.2250	3.2250	-0.2027	26.64	0.87	-0.750			
0.8398	53748.86	3.2220	3.2220	-0.2013	26.65	0.88	-0.750			
0.8404	53787.19	3.2190	3.2190	-0.1979	26.66	0.89	-0.750			
0.8410	53824.66	3.2160	3.2160	-0.1944	26.66	0.89	-0.750			
0.8416	53861.59	3.2130	3.2131	-0.1917	26.67	0.90	-0.750			
0.8422	53898.13	3.2100	3.2100	-0.1890	26.67	0.90	-0.750			
0.8427	53934.12	3.2070	3.2070	-0.1875	26.68	0.91	-0.750			
0.8433	53969.60	3.2040	3.2040	-0.1851	26.68	0.91	-0.750			
0.8438	54005.11	3.2010	3.2009	-0.1830	26.69	0.92	-0.750			
0.8444	54040.08	3.1980	3.1980	-0.1812	26.70	0.93	-0.750			
0.8449	54074.79	3.1950	3.1951	-0.1799	26.70	0.93	-0.750			
0.8455	54109.37	3.1920	3.1920	-0.1777	26.71	0.94	-0.750			
0.8460	54143.31	3.1890	3.1891	-0.1754	26.71	0.94	-0.750			
0.8465	54176.71	3.1860	3.1859	-0.1731	26.72	0.95	-0.750			
0.8470	54209.43	3.1830	3.1832	-0.1713	26.72	0.95	-0.750			
0.8475	54242.24	3.1800	3.1800	-0.1695	26.73	0.96	-0.750			
0.8480	54274.67	3.1770	3.1769	-0.1677	26.73	0.96	-0.750			
0.8485	54306.61	3.1740	3.1740	-0.1665	26.73	0.96	-0.750			
0.8490	54338.24	3.1710	3.1710	-0.1645	26.74	0.97	-0.750			
0.8495	54369.83	3.1680	3.1679	-0.1636	26.74	0.97	-0.750			
0.8500	54401.09	3.1650	3.1650	-0.1620	26.75	0.98	-0.750			
0.8505	54432.13	3.1620	3.1620	-0.1598	26.76	0.99	-0.750			
0.8510	54462.54	3.1590	3.1590	-0.1579	26.76	0.99	-0.750			
0.8514	54492.56	3.1560	3.1560	-0.1570	26.77	1.00	-0.750			
0.8519	54522.58	3.1530	3.1530	-0.1556	26.78	1.01	-0.750			
0.8524	54552.17	3.1500	3.1500	-0.1536	26.78	1.01	-0.750			
0.8528	54581.36	3.1470	3.1470	-0.1532	26.79	1.02	-0.750			
0.8533	54610.69	3.1440	3.1441	-0.1519	26.79	1.02	-0.750			
0.8537	54639.79	3.1410	3.1410	-0.1512	26.80	1.03	-0.750			
0.8542	54669.09	3.1380	3.1379	-0.1497	26.80	1.03	-0.750			
0.8547	54697.84	3.1350	3.1351	-0.1479	26.81	1.04	-0.750			
0.8551	54725.79	3.1320	3.1319	-0.1463	26.82	1.05	-0.750			
0.8555	54753.76	3.1290	3.1291	-0.1450	26.82	1.05	-0.750			
0.8560	54781.66	3.1260	3.1260	-0.1434	26.83	1.06	-0.750			
0.8564	54808.58	3.1230	3.1229	-0.1415	26.83	1.06	-0.750			
0.8568	54835.83	3.1200	3.1200	-0.1406	26.84	1.07	-0.750			
0.8572	54862.70	3.1170	3.1170	-0.1393	26.84	1.07	-0.750			
0.8576	54889.36	3.1140	3.1139	-0.1385	26.85	1.08	-0.750			
0.8581	54915.95	3.1110	3.1110	-0.1371	26.85	1.08	-0.750			
0.8585	54941.76	3.1080	3.1081	-0.1358	26.86	1.09	-0.750			
0.8589	54967.79	3.1050	3.1049	-0.1353	26.86	1.09	-0.750			
0.8593	54993.74	3.1020	3.1020	-0.1350	26.87	1.10	-0.750			
0.8597	55019.63	3.0990	3.0989	-0.1340	26.87	1.10	-0.750			
0.8601	55045.41	3.0960	3.0960	-0.1336	26.88	1.11	-0.750			
0.8605	55071.00	3.0930	3.0930	-0.1325	26.88	1.11	-0.750			
0.8609	55096.40	3.0900	3.0901	-0.1314	26.89	1.12	-0.750			
0.8613	55121.83	3.0870	3.0869	-0.1305	26.89	1.12	-0.750			
0.8617	55146.48	3.0840	3.0840	-0.1288	26.90	1.13	-0.750			
0.8620	55171.05	3.0810	3.0810	-0.1278	26.91	1.14	-0.750			
0.8624	55195.42	3.0780	3.0780	-0.1267	26.91	1.14	-0.750			
0.8628	55219.67	3.0750	3.0750	-0.1260	26.92	1.15	-0.750			
0.8632	55243.78	3.0720	3.0720	-0.1251	26.93	1.16	-0.750			
0.8636	55267.69	3.0690	3.0690	-0.1241	26.93	1.16	-0.750			
0.8639	55291.47	3.0660	3.0660	-0.1233	26.94	1.17	-0.750			
0.8643	55314.97	3.0630	3.0631	-0.1227	26.94	1.17	-0.750			
0.8647	55338.45	3.0600	3.0599	-0.1220	26.95	1.18	-0.750			
0.8650	55361.78	3.0570	3.0570	-0.1213	26.96	1.19	-0.750			
0.8654	55385.01	3.0540	3.0539	-0.1207	26.96	1.19	-0.750			
0.8658	55408.11	3.0510	3.0511	-0.1200	26.97	1.20	-0.750			
0.8661	55431.10	3.0480	3.0480	-0.1195	26.98	1.21	-0.750			
0.8665	55454.29	3.0450	3.0449	-0.1185	26.98	1.21	-0.750			
0.8668	55476.91	3.0420	3.0420	-0.1171	26.99	1.22	-0.750			
0.8672	55499.21	3.0390	3.0390	-0.1161	26.99	1.22	-0.750			
0.8675	55521.39	3.0360	3.0361	-0.1149	27.00	1.23	-0.750			
0.8679	55543.18	3.0330	3.0330	-0.1142	27.01	1.24	-0.750			
0.8682	55565.04	3.0300	3.0299	-0.1135	27.01	1.24	-0.750			
0.8685	55586.47	3.0270	3.0270	-0.1129	27.02	1.25	-0.750			
0.8689	55608.16	3.0240	3.0240	-0.1130	27.02	1.25	-0.750			
0.8692	55630.15	3.0210	3.0210	-0.1124	27.03	1.26	-0.750			
0.8696	55651.66	3.0180	3.0180	-0.1116	27.03	1.26	-0.750			
0.8699	55673.18	3.0150	3.0150	-0.1109	27.04	1.27	-0.750			
0.8702	55694.38	3.0120	3.0121	-0.1098	27.05	1.28	-0.750			
0.8706	55715.48	3.0090	3.0090	-0.1086	27.05	1.28	-0.750			
0.8709	55736.20	3.0060	3.0059	-0.1072	27.06	1.29	-0.751			
0.8712	55756.68	3.0030	3.0030	-0.1080	27.06	1.29	-0.751			
