Ah_balance (normalized)	Ah_balance (mAh)	Voltage - fit (V)	Voltage -  interpolate (V)	dQ/dV (1/V)	Temperature (°C)	Temperature - diff (°C)	Current (C)	R_DC 0ms (mOhm)	R_DC 50ms (mOhm)	R_DC 50 ms PEC (mOhm)
0.0577	3690.64	4.1980	4.1981	0.7262	25.89	-0.06	0.750			
0.0599	3832.45	4.1950	4.1949	0.7392	25.89	-0.06	0.750			
0.0621	3974.51	4.1920	4.1920	0.7389	25.89	-0.06	0.750			
0.0643	4116.51	4.1890	4.1891	0.7375	25.89	-0.06	0.750			
0.0665	4257.83	4.1860	4.1860	0.7409	25.89	-0.06	0.750			
0.0687	4399.43	4.1830	4.1830	0.7479	25.89	-0.06	0.750			
0.0710	4542.26	4.1800	4.1800	0.7483	25.89	-0.06	0.750			
0.0732	4687.69	4.1770	4.1770	0.7480	25.89	-0.06	0.750			
0.0755	4833.61	4.1740	4.1741	0.7506	25.89	-0.06	0.750			
0.0778	4976.28	4.1710	4.1711	0.7487	25.89	-0.06	0.750			
0.0800	5118.52	4.1680	4.1679	0.7506	25.89	-0.06	0.750			
0.0822	5261.28	4.1650	4.1650	0.7488	25.89	-0.06	0.750			
0.0845	5405.16	4.1620	4.1618	0.7515	25.89	-0.06	0.750			
0.0867	5551.62	4.1590	4.1591	0.7560	25.89	-0.06	0.750			
0.0891	5699.27	4.1560	4.1560	0.7490	25.90	-0.05	0.750			
0.0913	5842.84	4.1530	4.1530	0.7513	25.90	-0.05	0.750			
0.0935	5984.73	4.1500	4.1500	0.7500	25.90	-0.05	0.750			
0.0957	6126.84	4.1470	4.1471	0.7505	25.91	-0.04	0.750			
0.0980	6272.76	4.1440	4.1440	0.7535	25.91	-0.04	0.750			
0.1003	6418.20	4.1410	4.1412	0.7558	25.91	-0.04	0.750			
0.1026	6564.19	4.1380	4.1380	0.7549	25.91	-0.04	0.750			
0.1048	6709.51	4.1350	4.1350	0.7601	25.91	-0.04	0.750			
0.1070	6851.13	4.1320	4.1320	0.7562	25.91	-0.04	0.750			
0.1093	6997.13	4.1290	4.1286	0.7652	25.91	-0.04	0.750			
0.1117	7145.63	4.1260	4.1260	0.7697	25.91	-0.04	0.750			
0.1140	7295.99	4.1230	4.1230	0.7708	25.92	-0.03	0.750			
0.1163	7445.33	4.1200	4.1201	0.7735	25.92	-0.03	0.750			
0.1186	7592.74	4.1170	4.1170	0.7649	25.92	-0.03	0.750			
0.1209	7739.07	4.1140	4.1140	0.7643	25.93	-0.02	0.750			
0.1232	7885.62	4.1110	4.1110	0.7672	25.93	-0.02	0.750			
0.1255	8033.85	4.1080	4.1081	0.7633	25.93	-0.02	0.750			
0.1278	8179.96	4.1050	4.1049	0.7674	25.93	-0.02	0.750			
0.1301	8328.09	4.1020	4.1021	0.7734	25.93	-0.02	0.750			
0.1324	8475.91	4.0990	4.0991	0.7714	25.93	-0.02	0.750			
0.1347	8623.57	4.0960	4.0958	0.7796	25.93	-0.02	0.750			
0.1371	8773.05	4.0930	4.0931	0.7857	25.93	-0.02	0.750			
0.1395	8925.30	4.0900	4.0899	0.7850	25.93	-0.02	0.750			
0.1418	9077.56	4.0870	4.0870	0.7888	25.93	-0.02	0.750			
0.1442	9227.64	4.0840	4.0841	0.7880	25.93	-0.02	0.750			
0.1466	9379.92	4.0810	4.0810	0.7913	25.93	-0.02	0.750			
0.1489	9532.73	4.0780	4.0779	0.7925	25.93	-0.02	0.750			
0.1513	9684.43	4.0750	4.0749	0.7871	25.94	-0.01	0.750			
0.1537	9835.74	4.0720	4.0722	0.7894	25.94	-0.01	0.750			
0.1561	9988.61	4.0690	4.0691	0.7910	25.94	-0.01	0.750			
0.1584	10138.98	4.0660	4.0659	0.7901	25.95	-0.00	0.750			
0.1608	10289.59	4.0630	4.0630	0.7951	25.95	0.00	0.750			
0.1632	10443.98	4.0600	4.0600	0.7934	25.95	0.00	0.750			
0.1656	10595.57	4.0570	4.0570	0.8043	25.95	0.00	0.750			
0.1680	10751.54	4.0540	4.0540	0.8147	25.95	0.00	0.750			
0.1704	10908.58	4.0510	4.0511	0.8171	25.95	0.00	0.750			
0.1729	11067.27	4.0480	4.0480	0.8193	25.95	0.00	0.750			
0.1754	11226.08	4.0450	4.0450	0.8129	25.96	0.01	0.750			
0.1778	11380.27	4.0420	4.0422	0.8138	25.96	0.01	0.750			
0.1803	11537.18	4.0390	4.0390	0.8135	25.96	0.01	0.750			
0.1827	11690.79	4.0360	4.0360	0.8097	25.97	0.02	0.750			
0.1851	11845.99	4.0330	4.0329	0.8154	25.97	0.02	0.750			
0.1876	12005.21	4.0300	4.0301	0.8174	25.97	0.02	0.750			
0.1900	12162.93	4.0270	4.0270	0.8299	25.97	0.02	0.750			
0.1926	12323.55	4.0240	4.0240	0.8338	25.97	0.02	0.750			
0.1951	12483.49	4.0210	4.0211	0.8337	25.97	0.02	0.750			
0.1976	12644.68	4.0180	4.0179	0.8384	25.97	0.02	0.750			
0.2001	12807.79	4.0150	4.0151	0.8311	25.98	0.03	0.750			
0.2026	12965.92	4.0120	4.0120	0.8360	25.98	0.03	0.750			
0.2051	13126.47	4.0090	4.0091	0.8383	25.98	0.03	0.750			
0.2076	13286.42	4.0060	4.0061	0.8343	25.99	0.04	0.750			
0.2101	13447.23	4.0030	4.0029	0.8412	25.99	0.04	0.750			
0.2127	13610.63	4.0000	4.0001	0.8385	25.99	0.04	0.750			
0.2152	13771.52	3.9970	3.9970	0.8448	25.99	0.04	0.750			
0.2177	13933.66	3.9940	3.9940	0.8497	25.99	0.04	0.750			
0.2202	14095.96	3.9910	3.9912	0.8475	25.99	0.04	0.750			
0.2228	14260.29	3.9880	3.9881	0.8511	25.99	0.04	0.750			
0.2254	14424.97	3.9850	3.9850	0.8507	25.99	0.04	0.750			
0.2279	14587.74	3.9820	3.9821	0.8521	25.99	0.04	0.750			
0.2305	14752.11	3.9790	3.9790	0.8578	25.99	0.04	0.750			
0.2331	14916.40	3.9760	3.9760	0.8549	25.99	0.04	0.750			
0.2356	15081.29	3.9730	3.9730	0.8548	25.99	0.04	0.750			
0.2382	15246.38	3.9700	3.9702	0.8553	25.99	0.04	0.750			
0.2408	15410.89	3.9670	3.9670	0.8558	25.99	0.04	0.750			
0.2434	15574.62	3.9640	3.9639	0.8562	25.99	0.04	0.750			
0.2459	15735.85	3.9610	3.9611	0.8566	25.99	0.04	0.750			
0.2484	15900.46	3.9580	3.9580	0.8621	25.99	0.04	0.750			
0.2511	16068.95	3.9550	3.9549	0.8625	25.99	0.04	0.750			
0.2537	16235.20	3.9520	3.9519	0.8643	25.98	0.03	0.750			
0.2563	16400.77	3.9490	3.9492	0.8652	25.98	0.03	0.750			
0.2589	16567.37	3.9460	3.9458	0.8673	25.98	0.03	0.750			
0.2615	16733.11	3.9430	3.9431	0.8643	25.98	0.03	0.750			
0.2640	16898.90	3.9400	3.9400	0.8643	25.98	0.03	0.750			
0.2666	17062.78	3.9370	3.9370	0.8732	25.99	0.04	0.750			
0.2692	17230.54	3.9340	3.9340	0.8782	25.99	0.04	0.750			
0.2719	17401.07	3.9310	3.9308	0.8848	25.99	0.04	0.750			
0.2746	17574.15	3.9280	3.9279	0.8827	25.98	0.03	0.750			
0.2773	17744.46	3.9250	3.9252	0.8848	25.98	0.03	0.750			
0.2799	17915.35	3.9220	3.9221	0.8873	25.97	0.02	0.750			
0.2826	18083.72	3.9190	3.9190	0.8817	25.96	0.01	0.750			
0.2852	18250.31	3.9160	3.9160	0.8790	25.96	0.01	0.750			
0.2878	18421.01	3.9130	3.9130	0.8815	25.96	0.01	0.750			
0.2905	18591.40	3.9100	3.9101	0.8927	25.96	0.01	0.750			
0.2932	18763.43	3.9070	3.9070	0.8979	25.95	0.00	0.750			
0.2959	18935.23	3.9040	3.9039	0.9024	25.95	0.00	0.750			
0.2986	19109.90	3.9010	3.9010	0.9093	25.95	-0.00	0.750			
0.3013	19285.57	3.8980	3.8980	0.9069	25.94	-0.01	0.750			
0.3041	19459.49	3.8950	3.8951	0.9132	25.94	-0.01	0.750			
0.3068	19636.48	3.8920	3.8920	0.9170	25.93	-0.02	0.750			
0.3095	19810.86	3.8890	3.8887	0.9170	25.93	-0.02	0.750			
0.3123	19989.03	3.8860	3.8861	0.9129	25.93	-0.02	0.750			
0.3151	20163.45	3.8830	3.8830	0.9161	25.92	-0.03	0.750			
0.3178	20341.04	3.8800	3.8801	0.9225	25.92	-0.03	0.750			
0.3206	20516.04	3.8770	3.8770	0.9178	25.91	-0.04	0.750			
0.3233	20692.19	3.8740	3.8741	0.9226	25.91	-0.04	0.750			
0.3261	20870.60	3.8710	3.8710	0.9217	25.90	-0.05	0.750			
0.3289	21047.28	3.8680	3.8680	0.9239	25.89	-0.06	0.750			
0.3317	21227.54	3.8650	3.8651	0.9310	25.89	-0.06	0.750			
0.3344	21403.20	3.8620	3.8617	0.9327	25.88	-0.07	0.750			
0.3372	21583.45	3.8590	3.8590	0.9319	25.87	-0.08	0.750			
0.3401	21763.92	3.8560	3.8560	0.9367	25.87	-0.08	0.750			
0.3429	21944.34	3.8530	3.8531	0.9406	25.86	-0.09	0.750			
0.3457	22123.86	3.8500	3.8501	0.9416	25.85	-0.10	0.750			
0.3486	22307.40	3.8470	3.8470	0.9402	25.84	-0.11	0.750			
0.3514	22486.87	3.8440	3.8440	0.9430	25.84	-0.11	0.750			
0.3542	22667.11	3.8410	3.8410	0.9474	25.83	-0.12	0.750			
0.3570	22851.11	3.8380	3.8381	0.9524	25.82	-0.13	0.750			
0.3599	23032.78	3.8350	3.8349	0.9568	25.81	-0.14	0.750			
0.3627	23215.55	3.8320	3.8320	0.9636	25.80	-0.15	0.750			
0.3656	23399.52	3.8290	3.8290	0.9736	25.80	-0.15	0.750			
0.3686	23590.56	3.8260	3.8259	0.9828	25.79	-0.16	0.750			
0.3716	23779.47	3.8230	3.8229	0.9883	25.78	-0.17	0.750			
0.3745	23970.03	3.8200	3.8201	1.0038	25.78	-0.17	0.750			
0.3775	24161.83	3.8170	3.8171	1.0055	25.77	-0.18	0.750			
0.3805	24354.43	3.8140	3.8140	1.0078	25.77	-0.18	0.750			
0.3835	24547.14	3.8110	3.8109	1.0157	25.76	-0.19	0.750			
0.3866	24745.48	3.8080	3.8083	1.0143	25.75	-0.20	0.750			
0.3897	24942.21	3.8050	3.8051	1.0331	25.74	-0.21	0.750			
0.3928	25138.90	3.8020	3.8020	1.0450	25.73	-0.22	0.750			
0.3960	25343.03	3.7990	3.7989	1.0666	25.72	-0.23	0.750			
0.3991	25541.43	3.7960	3.7960	1.0657	25.71	-0.24	0.750			
0.4023	25748.61	3.7930	3.7931	1.0951	25.71	-0.24	0.750			
0.4056	25961.03	3.7900	3.7900	1.1145	25.70	-0.25	0.750			
0.4091	26185.03	3.7870	3.7867	1.1256	25.69	-0.26	0.750			
0.4124	26396.51	3.7840	3.7840	1.1328	25.68	-0.27	0.750			
0.4160	26622.99	3.7810	3.7811	1.1268	25.67	-0.28	0.750			
0.4192	26831.67	3.7780	3.7782	1.1677	25.67	-0.28	0.750			
0.4227	27051.73	3.7750	3.7749	1.1921	25.66	-0.29	0.750			
0.4263	27282.62	3.7720	3.7720	1.2426	25.65	-0.30	0.750	0.311	0.456	
0.4301	27525.51	3.7690	3.7695	1.2920	25.63	-0.32	0.750			
0.4341	27783.51	3.7660	3.7658	1.3214	25.62	-0.33	0.750			
0.4382	28045.13	3.7630	3.7632	1.3473	25.61	-0.34	0.750			
0.4424	28316.47	3.7600	3.7601	1.3798	25.61	-0.34	0.750			
0.4464	28571.82	3.7570	3.7568	1.3626	25.60	-0.35	0.750			
0.4505	28829.95	3.7540	3.7541	1.3827	25.59	-0.36	0.750			
0.4547	29099.73	3.7510	3.7511	1.4110	25.57	-0.38	0.750			
0.4589	29370.98	3.7480	3.7477	1.4517	25.56	-0.39	0.750			
0.4633	29652.57	3.7450	3.7448	1.4881	25.55	-0.40	0.750			
0.4678	29940.34	3.7420	3.7423	1.5385	25.55	-0.40	0.750			
0.4726	30243.93	3.7390	3.7389	1.5722	25.54	-0.41	0.750			
0.4773	30546.99	3.7360	3.7360	1.6123	25.53	-0.42	0.750			
0.4822	30863.22	3.7330	3.7331	1.6456	25.52	-0.43	0.750			
0.4872	31183.32	3.7300	3.7301	1.7036	25.50	-0.45	0.750			
0.4924	31511.66	3.7270	3.7271	1.7435	25.49	-0.46	0.750			
0.4978	31857.13	3.7240	3.7241	1.7869	25.48	-0.47	0.750			
0.5031	32200.22	3.7210	3.7209	1.8516	25.47	-0.48	0.750			
0.5087	32558.01	3.7180	3.7180	1.8845	25.46	-0.49	0.750			
0.5145	32927.08	3.7150	3.7150	1.9301	25.45	-0.50	0.750			
0.5204	33307.86	3.7120	3.7120	2.0032	25.44	-0.51	0.750			
0.5263	33686.37	3.7090	3.7091	2.0463	25.43	-0.52	0.750			
0.5326	34083.79	3.7060	3.7061	2.1087	25.42	-0.53	0.750			
0.5391	34500.75	3.7030	3.7028	2.2003	25.41	-0.54	0.750			
0.5457	34921.97	3.7000	3.7000	2.2601	25.40	-0.55	0.750			
0.5527	35372.40	3.6970	3.6968	2.3176	25.40	-0.55	0.750			
0.5598	35828.63	3.6940	3.6941	2.4075	25.40	-0.55	0.750			
0.5671	36291.85	3.6910	3.6911	2.4638	25.39	-0.56	0.750			
0.5745	36764.93	3.6880	3.6878	2.5605	25.38	-0.57	0.750			
0.5822	37262.76	3.6850	3.6851	2.6364	25.38	-0.57	0.750			
0.5904	37782.79	3.6820	3.6818	2.7406	25.38	-0.57	0.750			
0.5989	38326.70	3.6790	3.6790	2.7583	25.38	-0.57	0.750			
0.6073	38867.70	3.6760	3.6760	2.7446	25.38	-0.57	0.750			
0.6158	39409.54	3.6730	3.6731	2.6014	25.39	-0.56	0.750			
0.6235	39903.34	3.6700	3.6700	2.4027	25.40	-0.55	0.750			
0.6302	40335.11	3.6670	3.6673	2.1407	25.41	-0.54	0.750			
0.6361	40707.24	3.6640	3.6639	1.9256	25.42	-0.53	0.750			
0.6414	41047.05	3.6610	3.6607	1.7510	25.43	-0.52	0.750			
0.6461	41350.35	3.6580	3.6579	1.6085	25.44	-0.51	0.750			
0.6506	41640.72	3.6550	3.6551	1.5078	25.45	-0.50	0.750			
0.6550	41923.03	3.6520	3.6521	1.4435	25.45	-0.50	0.750			
0.6594	42198.42	3.6490	3.6488	1.3706	25.46	-0.49	0.750			
0.6633	42452.92	3.6460	3.6459	1.3114	25.47	-0.48	0.750			
0.6671	42693.35	3.6430	3.6432	1.2539	25.47	-0.48	0.750			
0.6707	42927.04	3.6400	3.6400	1.2189	25.48	-0.47	0.750			
0.6743	43156.62	3.6370	3.6370	1.1955	25.48	-0.47	0.750			
0.6778	43377.14	3.6340	3.6339	1.1766	25.49	-0.46	0.750			
0.6812	43597.05	3.6310	3.6311	1.1724	25.49	-0.46	0.750			
0.6848	43826.33	3.6280	3.6277	1.1642	25.50	-0.45	0.750			
0.6883	44050.38	3.6250	3.6251	1.1729	25.51	-0.44	0.750			
0.6918	44278.00	3.6220	3.6220	1.1714	25.51	-0.44	0.750			
0.6954	44504.68	3.6190	3.6191	1.1649	25.52	-0.43	0.750			
0.6989	44728.21	3.6160	3.6162	1.1390	25.52	-0.43	0.750			
0.7023	44944.47	3.6130	3.6131	1.1241	25.53	-0.42	0.750			
0.7056	45157.31	3.6100	3.6101	1.1179	25.53	-0.42	0.750			
0.7089	45371.38	3.6070	3.6068	1.1123	25.54	-0.41	0.750			
0.7122	45579.56	3.6040	3.6040	1.1108	25.54	-0.41	0.750			
0.7155	45790.14	3.6010	3.6010	1.1261	25.55	-0.40	0.750			
0.7189	46006.41	3.5980	3.5982	1.1516	25.56	-0.39	0.750			
0.7223	46229.50	3.5950	3.5951	1.1750	25.56	-0.39	0.750			
0.7259	46457.10	3.5920	3.5920	1.2112	25.56	-0.39	0.750			
0.7295	46686.58	3.5890	3.5891	1.2550	25.57	-0.38	0.750			
0.7334	46935.78	3.5860	3.5859	1.3004	25.57	-0.38	0.750			
0.7373	47189.69	3.5830	3.5830	1.3471	25.57	-0.38	0.750			
0.7415	47452.86	3.5800	3.5799	1.3873	25.58	-0.37	0.750			
0.7458	47732.13	3.5770	3.5770	1.4056	25.58	-0.37	0.750			
0.7500	47999.96	3.5740	3.5741	1.4537	25.59	-0.36	0.750			
0.7543	48277.27	3.5710	3.5709	1.4998	25.59	-0.36	0.750			
0.7589	48567.52	3.5680	3.5676	1.5386	25.60	-0.35	0.750			
0.7637	48874.09	3.5650	3.5652	1.5945	25.61	-0.34	0.750			
0.7686	49191.90	3.5620	3.5622	1.6071	25.61	-0.34	0.750			
0.7736	49508.28	3.5590	3.5591	1.6189	25.62	-0.33	0.750			
0.7785	49824.40	3.5560	3.5562	1.6365	25.63	-0.32	0.750			
0.7832	50122.56	3.5530	3.5530	1.6278	25.64	-0.31	0.750			
0.7880	50432.94	3.5500	3.5501	1.6477	25.65	-0.30	0.750			
0.7930	50755.18	3.5470	3.5471	1.6606	25.65	-0.30	0.750			
0.7980	51073.86	3.5440	3.5440	1.7132	25.66	-0.29	0.750			
0.8034	51415.14	3.5410	3.5407	1.7408	25.68	-0.27	0.750			
0.8087	51756.75	3.5380	3.5378	1.6939	25.70	-0.25	0.750			
0.8142	52108.00	3.5350	3.5353	1.5299	25.73	-0.22	0.750			
0.8190	52412.95	3.5320	3.5325	1.3395	25.75	-0.20	0.750			
0.8228	52661.23	3.5290	3.5294	1.0986	25.78	-0.17	0.750			
0.8256	52840.12	3.5260	3.5255	0.8247	25.79	-0.16	0.750			
0.8272	52939.24	3.5230	3.5226	0.6107	25.80	-0.15	0.750			
0.8284	53016.50	3.5200	3.5199	0.4631	25.81	-0.14	0.750			
0.8295	53086.27	3.5170	3.5169	0.3949	25.82	-0.13	0.750			
0.8306	53155.45	3.5140	3.5139	0.3585	25.83	-0.12	0.750			
0.8315	53217.54	3.5110	3.5110	0.3314	25.83	-0.12	0.750			
0.8325	53278.36	3.5080	3.5081	0.3155	25.84	-0.11	0.750			
0.8334	53336.81	3.5050	3.5050	0.3033	25.84	-0.11	0.750			
0.8343	53393.42	3.5020	3.5018	0.2930	25.85	-0.10	0.750			
0.8351	53448.28	3.4990	3.4986	0.2836	25.85	-0.10	0.750			
0.8360	53501.58	3.4960	3.4961	0.2754	25.86	-0.09	0.750			
0.8368	53554.26	3.4930	3.4931	0.2692	25.86	-0.09	0.750			
0.8376	53605.67	3.4900	3.4900	0.2621	25.87	-0.08	0.750			
0.8384	53654.89	3.4870	3.4869	0.2540	25.88	-0.07	0.750			
0.8391	53701.93	3.4840	3.4840	0.2461	25.88	-0.07	0.750			
0.8398	53748.34	3.4810	3.4811	0.2415	25.89	-0.06	0.750			
0.8405	53794.22	3.4780	3.4780	0.2367	25.90	-0.05	0.750			
0.8412	53838.62	3.4750	3.4750	0.2320	25.90	-0.05	0.750			
0.8419	53882.97	3.4720	3.4720	0.2276	25.91	-0.04	0.750			
0.8426	53926.95	3.4690	3.4690	0.2235	25.91	-0.04	0.750			
0.8433	53969.36	3.4660	3.4660	0.2183	25.92	-0.03	0.750			
0.8439	54011.41	3.4630	3.4630	0.2127	25.93	-0.02	0.750			
0.8446	54051.78	3.4600	3.4601	0.2067	25.93	-0.02	0.750			
0.8452	54090.32	3.4570	3.4570	0.2000	25.94	-0.01	0.750			
0.8457	54127.98	3.4540	3.4540	0.1948	25.94	-0.01	0.750			
0.8463	54164.51	3.4510	3.4510	0.1893	25.95	-0.00	0.750			
0.8469	54200.42	3.4480	3.4479	0.1839	25.95	0.00	0.750			
0.8474	54235.13	3.4450	3.4451	0.1800	25.96	0.01	0.750			
0.8480	54269.09	3.4420	3.4421	0.1765	25.96	0.01	0.750			
0.8485	54302.46	3.4390	3.4390	0.1728	25.96	0.01	0.750			
0.8490	54335.40	3.4360	3.4358	0.1683	25.97	0.02	0.750			
0.8495	54367.97	3.4330	3.4328	0.1626	25.97	0.02	0.750			
0.8500	54399.10	3.4300	3.4303	0.1576	25.98	0.03	0.750			
0.8505	54429.06	3.4270	3.4268	0.1490	25.98	0.03	0.750			
0.8509	54457.83	3.4240	3.4241	0.1416	25.98	0.03	0.750			
0.8513	54483.75	3.4210	3.4211	0.1333	25.99	0.04	0.750			
0.8517	54508.04	3.4180	3.4180	0.1239	25.99	0.04	0.750			
0.8520	54530.61	3.4150	3.4150	0.1182	25.99	0.04	0.750			
0.8524	54552.16	3.4120	3.4120	0.1116	26.00	0.05	0.750			
0.8527	54575.27	3.4090	3.4085	0.1021	26.00	0.05	0.750			
0.8530	54593.87	3.4060	3.4059	0.0917	26.00	0.05	0.750			
0.8533	54612.05	3.4030	3.4033	0.0851	26.01	0.06	0.750			
0.8535	54627.16	3.4000	3.4005	0.0724	26.01	0.06	0.750			
0.8538	54642.68	3.3970	3.3971	0.0612	26.01	0.06	0.750			
0.8540	54652.85	3.3940	3.3941	0.0447	26.01	0.06	0.750			
0.8541	54659.84	3.3910	3.3916	0.0281	26.01	0.06	0.750			
0.8541	54663.65	3.3880	3.3900	0.0116	26.01	0.06	0.750			
