Ah_balance (normalized)	Ah_balance (mAh)	Voltage - fit (V)	Voltage -  interpolate (V)	dQ/dV (1/V)	Temperature (°C)	Temperature - diff (°C)	Current (C)	R_DC 0ms (mOhm)	R_DC 50ms (mOhm)	R_DC 50 ms PEC (mOhm)
0.0003	20.27	4.1510	4.1507	-0.1118	25.99	0.00	-0.750			
0.0007	46.48	4.1480	4.1478	-0.1550	25.99	0.00	-0.750			
0.0013	80.43	4.1450	4.1448	-0.1936	25.99	0.00	-0.750			
0.0019	121.28	4.1420	4.1420	-0.2308	25.99	0.00	-0.750			
0.0026	169.51	4.1390	4.1389	-0.2668	25.99	0.00	-0.750			
0.0035	224.30	4.1360	4.1360	-0.3026	25.99	-0.00	-0.750			
0.0045	286.51	4.1330	4.1330	-0.3385	25.99	-0.00	-0.750			
0.0056	355.40	4.1300	4.1300	-0.3700	25.99	-0.00	-0.750			
0.0067	429.98	4.1270	4.1270	-0.4016	25.98	-0.01	-0.750			
0.0080	510.91	4.1240	4.1240	-0.4303	25.98	-0.01	-0.750			
0.0093	596.84	4.1210	4.1211	-0.4572	25.98	-0.01	-0.750			
0.0107	687.63	4.1180	4.1179	-0.4843	25.98	-0.01	-0.750			
0.0123	784.15	4.1150	4.1150	-0.5038	25.97	-0.02	-0.750			
0.0138	883.54	4.1120	4.1119	-0.5226	25.97	-0.02	-0.750			
0.0154	986.28	4.1090	4.1092	-0.5403	25.97	-0.02	-0.750			
0.0171	1091.86	4.1060	4.1060	-0.5584	25.97	-0.02	-0.750			
0.0188	1200.40	4.1030	4.1029	-0.5732	25.96	-0.03	-0.750			
0.0205	1311.04	4.1000	4.1001	-0.5876	25.96	-0.03	-0.750			
0.0223	1427.23	4.0970	4.0969	-0.6013	25.96	-0.03	-0.750			
0.0241	1544.39	4.0940	4.0939	-0.6101	25.96	-0.03	-0.750			
0.0260	1663.54	4.0910	4.0911	-0.6168	25.95	-0.04	-0.750			
0.0278	1781.63	4.0880	4.0880	-0.6255	25.95	-0.04	-0.750			
0.0297	1901.88	4.0850	4.0850	-0.6328	25.95	-0.04	-0.750			
0.0316	2024.69	4.0820	4.0820	-0.6431	25.95	-0.04	-0.750			
0.0336	2148.70	4.0790	4.0790	-0.6533	25.95	-0.04	-0.750			
0.0356	2277.09	4.0760	4.0760	-0.6623	25.95	-0.04	-0.750			
0.0376	2405.66	4.0730	4.0730	-0.6641	25.95	-0.04	-0.750			
0.0396	2534.29	4.0700	4.0700	-0.6687	25.95	-0.04	-0.750			
0.0416	2661.74	4.0670	4.0669	-0.6673	25.95	-0.04	-0.750			
0.0436	2789.37	4.0640	4.0639	-0.6687	25.95	-0.04	-0.750			
0.0456	2917.49	4.0610	4.0610	-0.6732	25.95	-0.04	-0.750			
0.0476	3046.05	4.0580	4.0581	-0.6770	25.95	-0.04	-0.750			
0.0497	3179.46	4.0550	4.0549	-0.6853	25.95	-0.04	-0.750			
0.0517	3311.65	4.0520	4.0520	-0.6899	25.95	-0.04	-0.750			
0.0538	3443.92	4.0490	4.0489	-0.6917	25.95	-0.04	-0.750			
0.0559	3577.19	4.0460	4.0460	-0.6962	25.96	-0.03	-0.750			
0.0580	3710.15	4.0430	4.0431	-0.7007	25.96	-0.03	-0.750			
0.0601	3845.32	4.0400	4.0400	-0.7018	25.96	-0.03	-0.750			
0.0622	3982.81	4.0370	4.0369	-0.7007	25.97	-0.02	-0.750			
0.0643	4116.39	4.0340	4.0341	-0.7030	25.97	-0.02	-0.750			
0.0664	4250.73	4.0310	4.0310	-0.7039	25.97	-0.02	-0.750			
0.0685	4385.92	4.0280	4.0279	-0.7078	25.98	-0.01	-0.750			
0.0706	4521.19	4.0250	4.0249	-0.7183	25.98	-0.01	-0.750			
0.0728	4659.57	4.0220	4.0220	-0.7219	25.98	-0.01	-0.750			
0.0750	4801.21	4.0190	4.0189	-0.7220	25.99	-0.00	-0.750			
0.0772	4942.26	4.0160	4.0162	-0.7258	25.99	-0.00	-0.750			
0.0794	5080.07	4.0130	4.0130	-0.7224	25.99	0.00	-0.750			
0.0815	5218.09	4.0100	4.0098	-0.7204	26.00	0.01	-0.750			
0.0837	5355.05	4.0070	4.0070	-0.7254	26.00	0.01	-0.750			
0.0858	5492.69	4.0040	4.0040	-0.7228	26.00	0.01	-0.750			
0.0880	5634.80	4.0010	4.0009	-0.7350	26.01	0.02	-0.750			
0.0903	5776.67	3.9980	3.9982	-0.7389	26.01	0.02	-0.750			
0.0925	5917.80	3.9950	3.9949	-0.7398	26.01	0.02	-0.750			
0.0947	6060.18	3.9920	3.9920	-0.7443	26.02	0.03	-0.750			
0.0969	6204.23	3.9890	3.9890	-0.7427	26.02	0.03	-0.750			
0.0992	6348.57	3.9860	3.9860	-0.7433	26.02	0.03	-0.750			
0.1014	6490.71	3.9830	3.9829	-0.7416	26.03	0.04	-0.750			
0.1036	6631.37	3.9800	3.9800	-0.7351	26.03	0.04	-0.750			
0.1058	6772.15	3.9770	3.9770	-0.7374	26.04	0.05	-0.750			
0.1080	6912.35	3.9740	3.9740	-0.7424	26.04	0.05	-0.750			
0.1102	7054.68	3.9710	3.9710	-0.7454	26.04	0.05	-0.750			
0.1125	7200.46	3.9680	3.9680	-0.7524	26.05	0.06	-0.750			
0.1148	7346.19	3.9650	3.9650	-0.7558	26.05	0.06	-0.750			
0.1171	7491.53	3.9620	3.9620	-0.7547	26.05	0.06	-0.750			
0.1193	7636.06	3.9590	3.9590	-0.7591	26.06	0.07	-0.750			
0.1216	7780.85	3.9560	3.9560	-0.7603	26.06	0.07	-0.750			
0.1239	7927.55	3.9530	3.9530	-0.7558	26.06	0.07	-0.750			
0.1262	8074.40	3.9500	3.9499	-0.7615	26.07	0.08	-0.750			
0.1284	8220.35	3.9470	3.9472	-0.7632	26.07	0.08	-0.750			
0.1307	8366.14	3.9440	3.9440	-0.7668	26.08	0.09	-0.750			
0.1330	8513.76	3.9410	3.9409	-0.7684	26.09	0.10	-0.750			
0.1353	8659.83	3.9380	3.9380	-0.7672	26.09	0.10	-0.750			
0.1376	8808.96	3.9350	3.9350	-0.7697	26.10	0.11	-0.750			
0.1400	8959.76	3.9320	3.9321	-0.7730	26.11	0.12	-0.750			
0.1423	9104.99	3.9290	3.9290	-0.7719	26.11	0.12	-0.750			
0.1446	9251.83	3.9260	3.9259	-0.7756	26.12	0.13	-0.750			
0.1469	9402.09	3.9230	3.9230	-0.7768	26.12	0.13	-0.750			
0.1492	9551.97	3.9200	3.9200	-0.7784	26.12	0.13	-0.750			
0.1516	9703.05	3.9170	3.9170	-0.7828	26.13	0.14	-0.750			
0.1540	9853.67	3.9140	3.9140	-0.7858	26.13	0.14	-0.750			
0.1563	10003.79	3.9110	3.9110	-0.7885	26.14	0.15	-0.750			
0.1587	10154.35	3.9080	3.9079	-0.7898	26.15	0.16	-0.750			
0.1610	10306.37	3.9050	3.9050	-0.7884	26.16	0.17	-0.750			
0.1634	10460.05	3.9020	3.9019	-0.7917	26.16	0.17	-0.750			
0.1658	10610.75	3.8990	3.8992	-0.7923	26.17	0.18	-0.750			
0.1682	10763.94	3.8960	3.8960	-0.7905	26.17	0.18	-0.750			
0.1705	10914.06	3.8930	3.8929	-0.7919	26.18	0.19	-0.750			
0.1729	11066.70	3.8900	3.8900	-0.7929	26.18	0.19	-0.750			
0.1753	11219.28	3.8870	3.8870	-0.7929	26.19	0.20	-0.750			
0.1777	11371.67	3.8840	3.8841	-0.7948	26.19	0.20	-0.750			
0.1801	11524.03	3.8810	3.8810	-0.7956	26.19	0.20	-0.750			
0.1824	11676.24	3.8780	3.8780	-0.7987	26.20	0.21	-0.750			
0.1849	11830.61	3.8750	3.8749	-0.8002	26.20	0.21	-0.750			
0.1873	11985.25	3.8720	3.8720	-0.7962	26.21	0.22	-0.750			
0.1897	12137.88	3.8690	3.8691	-0.7959	26.21	0.22	-0.750			
0.1920	12290.09	3.8660	3.8660	-0.7980	26.21	0.22	-0.750			
0.1944	12441.41	3.8630	3.8629	-0.8011	26.22	0.23	-0.750			
0.1968	12594.85	3.8600	3.8599	-0.7970	26.23	0.24	-0.750			
0.1992	12748.47	3.8570	3.8570	-0.7979	26.23	0.24	-0.750			
0.2016	12904.77	3.8540	3.8541	-0.7982	26.24	0.25	-0.750			
0.2040	13058.12	3.8510	3.8509	-0.7951	26.24	0.25	-0.750			
0.2064	13207.11	3.8480	3.8480	-0.7953	26.25	0.26	-0.750			
0.2088	13360.75	3.8450	3.8449	-0.7916	26.25	0.26	-0.750			
0.2111	13511.55	3.8420	3.8420	-0.7900	26.26	0.27	-0.750			
0.2135	13665.23	3.8390	3.8390	-0.7951	26.27	0.28	-0.750			
0.2159	13818.30	3.8360	3.8361	-0.7959	26.27	0.28	-0.750			
0.2183	13970.68	3.8330	3.8329	-0.7974	26.27	0.28	-0.750			
0.2207	14122.90	3.8300	3.8300	-0.7939	26.28	0.29	-0.750			
0.2231	14276.11	3.8270	3.8269	-0.7846	26.28	0.29	-0.750			
0.2255	14428.85	3.8240	3.8240	-0.7842	26.29	0.30	-0.750			
0.2278	14577.62	3.8210	3.8212	-0.7774	26.29	0.30	-0.750			
0.2301	14725.43	3.8180	3.8179	-0.7710	26.30	0.31	-0.750			
0.2324	14871.10	3.8150	3.8150	-0.7710	26.30	0.31	-0.750			
0.2347	15019.97	3.8120	3.8120	-0.7687	26.31	0.32	-0.750			
0.2370	15168.45	3.8090	3.8090	-0.7708	26.32	0.33	-0.750			
0.2393	15317.77	3.8060	3.8059	-0.7697	26.33	0.34	-0.750			
0.2416	15464.62	3.8030	3.8031	-0.7652	26.33	0.34	-0.750			
0.2439	15611.00	3.8000	3.7999	-0.7605	26.34	0.35	-0.750			
0.2462	15755.10	3.7970	3.7970	-0.7626	26.34	0.35	-0.750			
0.2485	15902.23	3.7940	3.7939	-0.7558	26.35	0.36	-0.750			
0.2508	16049.90	3.7910	3.7910	-0.7563	26.36	0.37	-0.750			
0.2530	16193.83	3.7880	3.7882	-0.7480	26.36	0.37	-0.750			
0.2553	16337.25	3.7850	3.7849	-0.7451	26.37	0.38	-0.750			
0.2575	16478.47	3.7820	3.7820	-0.7421	26.37	0.38	-0.750			
0.2597	16618.87	3.7790	3.7790	-0.7377	26.38	0.39	-0.750			
0.2619	16761.07	3.7760	3.7760	-0.7383	26.38	0.39	-0.750			
0.2641	16904.08	3.7730	3.7729	-0.7409	26.39	0.40	-0.750			
0.2664	17046.70	3.7700	3.7701	-0.7370	26.39	0.40	-0.750			
0.2686	17187.57	3.7670	3.7669	-0.7382	26.40	0.41	-0.750			
0.2708	17328.59	3.7640	3.7640	-0.7386	26.40	0.41	-0.750			
0.2730	17470.35	3.7610	3.7609	-0.7362	26.41	0.42	-0.750			
0.2752	17612.65	3.7580	3.7581	-0.7398	26.41	0.42	-0.750			
0.2774	17754.89	3.7550	3.7551	-0.7439	26.42	0.43	-0.750			
0.2796	17896.72	3.7520	3.7519	-0.7498	26.42	0.43	-0.750			
0.2819	18040.95	3.7490	3.7490	-0.7565	26.43	0.44	-0.750			
0.2842	18185.61	3.7460	3.7460	-0.7590	26.44	0.45	-0.750			
0.2864	18332.22	3.7430	3.7430	-0.7671	26.44	0.45	-0.750			
0.2888	18482.54	3.7400	3.7401	-0.7778	26.45	0.46	-0.750			
0.2911	18631.29	3.7370	3.7370	-0.7853	26.45	0.46	-0.750			
0.2934	18780.51	3.7340	3.7340	-0.7990	26.45	0.46	-0.750			
0.2959	18936.75	3.7310	3.7310	-0.8083	26.45	0.46	-0.750			
0.2983	19093.25	3.7280	3.7279	-0.8209	26.46	0.47	-0.750			
0.3008	19252.13	3.7250	3.7249	-0.8343	26.46	0.47	-0.750			
0.3033	19413.52	3.7220	3.7222	-0.8435	26.46	0.47	-0.750			
0.3059	19574.77	3.7190	3.7189	-0.8630	26.47	0.48	-0.750			
0.3085	19741.70	3.7160	3.7159	-0.8741	26.47	0.48	-0.750			
0.3111	19910.10	3.7130	3.7131	-0.8868	26.47	0.48	-0.750			
0.3138	20085.52	3.7100	3.7099	-0.9075	26.48	0.49	-0.750			
0.3166	20261.55	3.7070	3.7070	-0.9198	26.48	0.49	-0.750			
0.3194	20440.55	3.7040	3.7039	-0.9296	26.48	0.49	-0.750			
0.3222	20620.32	3.7010	3.7010	-0.9343	26.48	0.49	-0.750			
0.3249	20796.64	3.6980	3.6980	-0.9386	26.48	0.49	-0.750			
0.3278	20979.37	3.6950	3.6952	-0.9615	26.48	0.49	-0.750			
0.3307	21163.22	3.6920	3.6919	-0.9812	26.48	0.49	-0.750			
0.3336	21352.59	3.6890	3.6889	-1.0047	26.48	0.49	-0.750			
0.3367	21547.87	3.6860	3.6860	-1.0238	26.48	0.49	-0.750			
0.3398	21750.31	3.6830	3.6831	-1.0537	26.48	0.49	-0.750			
0.3430	21955.02	3.6800	3.6800	-1.0749	26.48	0.49	-0.750			
0.3463	22162.26	3.6770	3.6769	-1.0886	26.48	0.49	-0.750			
0.3496	22372.52	3.6740	3.6740	-1.1063	26.48	0.49	-0.750			
0.3529	22584.03	3.6710	3.6713	-1.1320	26.48	0.49	-0.750			
0.3564	22809.12	3.6680	3.6679	-1.1446	26.48	0.49	-0.750			
0.3599	23030.46	3.6650	3.6649	-1.1612	26.48	0.49	-0.750			
0.3633	23253.08	3.6620	3.6619	-1.1803	26.48	0.49	-0.750			
0.3669	23482.73	3.6590	3.6590	-1.2117	26.48	0.49	-0.750			
0.3705	23715.17	3.6560	3.6558	-1.2341	26.48	0.49	-0.750			
0.3742	23951.95	3.6530	3.6530	-1.2610	26.47	0.48	-0.750			
0.3781	24196.50	3.6500	3.6502	-1.2930	26.47	0.48	-0.750			
0.3821	24454.93	3.6470	3.6468	-1.3248	26.47	0.48	-0.750			
0.3861	24713.11	3.6440	3.6440	-1.3404	26.46	0.47	-0.750			
0.3902	24972.81	3.6410	3.6413	-1.3622	26.46	0.47	-0.750			
0.3943	25235.48	3.6380	3.6379	-1.3905	26.46	0.47	-0.750			
0.3985	25503.53	3.6350	3.6349	-1.4069	26.45	0.46	-0.750			
0.4027	25771.89	3.6320	3.6322	-1.4291	26.45	0.46	-0.750			
0.4071	26051.95	3.6290	3.6288	-1.4685	26.45	0.46	-0.750			
0.4115	26333.50	3.6260	3.6262	-1.5131	26.44	0.45	-0.750			
0.4161	26627.90	3.6230	3.6230	-1.5438	26.44	0.45	-0.750			
0.4208	26930.25	3.6200	3.6200	-1.5784	26.44	0.45	-0.750			
0.4256	27238.29	3.6170	3.6170	-1.5916	26.44	0.45	-0.750			
0.4304	27542.59	3.6140	3.6139	-1.6275	26.44	0.45	-0.750	0.393	0.552	
0.4353	27860.23	3.6110	3.6108	-1.6448	26.43	0.44	-0.750			
0.4402	28174.23	3.6080	3.6080	-1.6721	26.43	0.44	-0.750			
0.4453	28496.15	3.6050	3.6049	-1.6990	26.43	0.44	-0.750			
0.4504	28824.34	3.6020	3.6022	-1.7464	26.42	0.43	-0.750			
0.4557	29166.20	3.5990	3.5989	-1.7750	26.42	0.43	-0.750			
0.4611	29511.19	3.5960	3.5961	-1.8361	26.42	0.43	-0.750			
0.4666	29865.00	3.5930	3.5931	-1.8659	26.42	0.43	-0.750			
0.4723	30228.39	3.5900	3.5900	-1.9081	26.42	0.43	-0.750			
0.4782	30601.96	3.5870	3.5871	-1.9318	26.42	0.43	-0.750			
0.4840	30978.10	3.5840	3.5837	-1.9603	26.42	0.43	-0.750			
0.4899	31354.22	3.5810	3.5810	-1.9905	26.42	0.43	-0.750			
0.4960	31742.10	3.5780	3.5777	-2.0232	26.42	0.43	-0.750			
0.5020	32126.91	3.5750	3.5752	-2.0475	26.42	0.43	-0.750			
0.5082	32524.80	3.5720	3.5719	-2.0671	26.42	0.43	-0.750			
0.5145	32931.13	3.5690	3.5686	-2.0942	26.42	0.43	-0.750			
0.5209	33334.51	3.5660	3.5661	-2.1083	26.42	0.43	-0.750			
0.5272	33743.98	3.5630	3.5629	-2.1439	26.42	0.43	-0.750			
0.5337	34156.85	3.5600	3.5601	-2.1355	26.42	0.43	-0.750			
0.5401	34568.83	3.5570	3.5570	-2.1442	26.43	0.44	-0.750			
0.5466	34981.92	3.5540	3.5542	-2.1613	26.44	0.45	-0.750			
0.5532	35404.26	3.5510	3.5509	-2.1452	26.44	0.45	-0.750			
0.5596	35817.46	3.5480	3.5480	-2.1565	26.44	0.45	-0.750			
0.5660	36225.04	3.5450	3.5451	-2.1512	26.44	0.45	-0.750			
0.5725	36640.49	3.5420	3.5419	-2.1459	26.45	0.46	-0.750			
0.5790	37056.16	3.5390	3.5391	-2.1348	26.45	0.46	-0.750			
0.5854	37467.75	3.5360	3.5361	-2.0951	26.46	0.47	-0.750			
0.5917	37867.76	3.5330	3.5330	-2.0664	26.46	0.47	-0.750			
0.5980	38270.25	3.5300	3.5300	-2.0233	26.47	0.48	-0.750			
0.6039	38649.71	3.5270	3.5271	-1.9689	26.48	0.49	-0.750			
0.6097	39018.96	3.5240	3.5238	-1.9351	26.49	0.50	-0.750			
0.6154	39383.76	3.5210	3.5211	-1.8858	26.50	0.51	-0.750			
0.6210	39742.71	3.5180	3.5182	-1.8519	26.51	0.52	-0.750			
0.6265	40095.42	3.5150	3.5151	-1.8232	26.52	0.53	-0.750			
0.6319	40441.16	3.5120	3.5121	-1.7750	26.53	0.54	-0.750			
0.6373	40787.41	3.5090	3.5090	-1.7397	26.54	0.55	-0.750			
0.6425	41117.43	3.5060	3.5059	-1.6921	26.55	0.56	-0.750			
0.6474	41433.78	3.5030	3.5031	-1.6241	26.57	0.58	-0.750			
0.6522	41743.40	3.5000	3.5002	-1.5747	26.59	0.60	-0.750			
0.6568	42037.69	3.4970	3.4970	-1.5150	26.60	0.61	-0.750			
0.6613	42320.57	3.4940	3.4939	-1.4603	26.61	0.62	-0.750			
0.6655	42592.39	3.4910	3.4910	-1.4295	26.62	0.63	-0.750			
0.6697	42861.70	3.4880	3.4879	-1.3895	26.64	0.65	-0.750			
0.6738	43125.97	3.4850	3.4849	-1.3539	26.65	0.66	-0.750			
0.6779	43387.68	3.4820	3.4822	-1.3200	26.67	0.68	-0.750			
0.6819	43638.86	3.4790	3.4790	-1.2818	26.69	0.70	-0.750			
0.6857	43881.87	3.4760	3.4760	-1.2352	26.70	0.71	-0.750			
0.6892	44111.62	3.4730	3.4729	-1.1827	26.72	0.73	-0.750			
0.6927	44332.96	3.4700	3.4699	-1.1434	26.73	0.74	-0.750			
0.6961	44549.09	3.4670	3.4670	-1.1042	26.75	0.76	-0.750			
0.6993	44755.03	3.4640	3.4640	-1.0683	26.76	0.77	-0.750			
0.7024	44956.36	3.4610	3.4611	-1.0352	26.78	0.79	-0.750			
0.7055	45152.06	3.4580	3.4580	-1.0054	26.79	0.80	-0.750			
0.7085	45343.32	3.4550	3.4550	-0.9775	26.80	0.81	-0.750			
0.7114	45527.27	3.4520	3.4520	-0.9473	26.81	0.82	-0.750			
0.7142	45705.71	3.4490	3.4489	-0.9204	26.83	0.84	-0.750			
0.7169	45878.91	3.4460	3.4460	-0.9036	26.84	0.85	-0.750			
0.7195	46048.81	3.4430	3.4430	-0.8865	26.85	0.86	-0.750			
0.7221	46215.96	3.4400	3.4400	-0.8719	26.86	0.87	-0.750			
0.7247	46379.69	3.4370	3.4370	-0.8642	26.87	0.88	-0.750			
0.7273	46546.45	3.4340	3.4340	-0.8659	26.88	0.89	-0.750			
0.7299	46711.59	3.4310	3.4310	-0.8684	26.89	0.90	-0.750			
0.7325	46877.69	3.4280	3.4279	-0.8692	26.90	0.91	-0.750			
0.7351	47044.55	3.4250	3.4250	-0.8682	26.91	0.92	-0.750			
0.7377	47211.45	3.4220	3.4220	-0.8743	26.92	0.93	-0.750			
0.7403	47379.40	3.4190	3.4192	-0.8876	26.93	0.94	-0.750			
0.7429	47548.02	3.4160	3.4159	-0.9059	26.94	0.95	-0.750			
0.7457	47725.57	3.4130	3.4129	-0.9092	26.95	0.96	-0.750			
0.7485	47902.75	3.4100	3.4100	-0.9135	26.96	0.97	-0.750			
0.7513	48082.15	3.4070	3.4070	-0.9201	26.97	0.98	-0.750			
0.7541	48260.40	3.4040	3.4041	-0.9150	26.98	0.99	-0.750			
0.7568	48434.75	3.4010	3.4008	-0.9025	26.99	1.00	-0.750			
0.7595	48605.69	3.3980	3.3981	-0.8874	27.00	1.01	-0.750			
0.7621	48775.39	3.3950	3.3950	-0.8613	27.00	1.01	-0.750			
0.7647	48942.27	3.3920	3.3919	-0.8477	27.01	1.02	-0.750			
0.7673	49104.37	3.3890	3.3890	-0.8233	27.02	1.03	-0.750			
0.7697	49258.47	3.3860	3.3860	-0.7966	27.03	1.04	-0.750			
0.7720	49409.00	3.3830	3.3829	-0.7697	27.04	1.05	-0.750			
0.7743	49553.89	3.3800	3.3800	-0.7451	27.05	1.06	-0.750			
0.7765	49695.17	3.3770	3.3770	-0.7195	27.06	1.07	-0.750			
0.7786	49831.83	3.3740	3.3740	-0.6956	27.06	1.07	-0.750			
0.7806	49961.52	3.3710	3.3710	-0.6693	27.07	1.08	-0.750			
0.7826	50088.08	3.3680	3.3680	-0.6467	27.08	1.09	-0.750			
0.7845	50209.13	3.3650	3.3650	-0.6271	27.08	1.09	-0.750			
0.7864	50328.12	3.3620	3.3619	-0.6082	27.09	1.10	-0.750			
0.7882	50442.72	3.3590	3.3590	-0.5875	27.09	1.10	-0.750			
0.7899	50554.13	3.3560	3.3562	-0.5689	27.10	1.11	-0.750			
0.7916	50661.22	3.3530	3.3530	-0.5510	27.11	1.12	-0.750			
0.7932	50765.54	3.3500	3.3498	-0.5294	27.11	1.12	-0.750			
0.7947	50863.96	3.3470	3.3470	-0.5119	27.12	1.13	-0.750			
0.7963	50960.03	3.3440	3.3440	-0.4925	27.12	1.13	-0.750			
0.7977	51052.98	3.3410	3.3410	-0.4837	27.13	1.14	-0.750			
0.7991	51145.05	3.3380	3.3380	-0.4683	27.14	1.15	-0.750			
0.8005	51232.89	3.3350	3.3349	-0.4548	27.14	1.15	-0.750			
0.8019	51319.64	3.3320	3.3320	-0.4394	27.15	1.16	-0.750			
0.8032	51403.92	3.3290	3.3290	-0.4265	27.15	1.16	-0.750			
0.8044	51483.11	3.3260	3.3260	-0.4119	27.16	1.17	-0.750			
0.8056	51560.99	3.3230	3.3230	-0.3974	27.17	1.18	-0.750			
0.8068	51634.29	3.3200	3.3199	-0.3812	27.18	1.19	-0.750			
0.8079	51707.28	3.3170	3.3170	-0.3727	27.18	1.19	-0.750			
0.8090	51776.74	3.3140	3.3141	-0.3616	27.19	1.20	-0.750			
0.8101	51845.42	3.3110	3.3110	-0.3540	27.20	1.21	-0.750			
0.8111	51911.99	3.3080	3.3079	-0.3452	27.20	1.21	-0.750			
0.8121	51977.36	3.3050	3.3050	-0.3371	27.21	1.22	-0.750			
0.8132	52042.62	3.3020	3.3019	-0.3284	27.22	1.23	-0.750			
0.8141	52104.48	3.2990	3.2990	-0.3193	27.22	1.23	-0.750			
0.8151	52164.43	3.2960	3.2962	-0.3112	27.23	1.24	-0.750			
0.8160	52223.06	3.2930	3.2929	-0.3047	27.24	1.25	-0.750			
0.8169	52280.70	3.2900	3.2899	-0.2969	27.24	1.25	-0.750			
0.8178	52337.27	3.2870	3.2870	-0.2906	27.25	1.26	-0.750			
0.8186	52392.84	3.2840	3.2841	-0.2865	27.25	1.26	-0.750			
0.8195	52447.95	3.2810	3.2810	-0.2801	27.26	1.27	-0.750			
0.8203	52500.37	3.2780	3.2777	-0.2727	27.26	1.27	-0.750			
0.8211	52551.28	3.2750	3.2750	-0.2663	27.27	1.28	-0.750			
0.8219	52601.70	3.2720	3.2721	-0.2631	27.27	1.28	-0.750			
0.8227	52652.21	3.2690	3.2689	-0.2585	27.28	1.29	-0.750			
0.8235	52701.41	3.2660	3.2660	-0.2545	27.28	1.29	-0.750			
0.8242	52749.40	3.2630	3.2630	-0.2497	27.29	1.30	-0.750			
0.8250	52797.60	3.2600	3.2601	-0.2461	27.29	1.30	-0.750			
0.8257	52844.47	3.2570	3.2569	-0.2409	27.30	1.31	-0.750			
0.8264	52890.00	3.2540	3.2540	-0.2365	27.30	1.31	-0.750			
0.8271	52934.84	3.2510	3.2510	-0.2324	27.31	1.32	-0.750			
0.8278	52978.62	3.2480	3.2480	-0.2279	27.31	1.32	-0.750			
0.8285	53022.28	3.2450	3.2449	-0.2251	27.32	1.33	-0.750			
0.8291	53064.67	3.2420	3.2421	-0.2210	27.32	1.33	-0.750			
0.8298	53107.16	3.2390	3.2390	-0.2182	27.33	1.34	-0.750			
0.8304	53148.73	3.2360	3.2360	-0.2148	27.34	1.35	-0.750			
0.8311	53189.81	3.2330	3.2330	-0.2117	27.34	1.35	-0.750			
0.8317	53229.96	3.2300	3.2300	-0.2084	27.35	1.36	-0.750			
0.8323	53269.29	3.2270	3.2271	-0.2060	27.35	1.36	-0.750			
0.8329	53308.63	3.2240	3.2239	-0.2038	27.36	1.37	-0.750			
0.8336	53347.32	3.2210	3.2210	-0.2013	27.37	1.38	-0.750			
0.8342	53385.87	3.2180	3.2180	-0.1988	27.37	1.38	-0.750			
0.8348	53424.31	3.2150	3.2150	-0.1967	27.38	1.39	-0.750			
0.8353	53461.76	3.2120	3.2120	-0.1934	27.38	1.39	-0.750			
0.8359	53498.45	3.2090	3.2090	-0.1921	27.39	1.40	-0.750			
0.8365	53535.16	3.2060	3.2060	-0.1893	27.39	1.40	-0.750			
0.8370	53570.85	3.2030	3.2029	-0.1864	27.40	1.41	-0.750			
0.8376	53606.50	3.2000	3.1999	-0.1849	27.40	1.41	-0.750			
0.8382	53641.96	3.1970	3.1972	-0.1829	27.41	1.42	-0.750			
0.8387	53677.10	3.1940	3.1940	-0.1809	27.41	1.42	-0.750			
0.8392	53711.64	3.1910	3.1910	-0.1790	27.42	1.43	-0.750			
0.8398	53745.76	3.1880	3.1880	-0.1764	27.43	1.44	-0.750			
0.8403	53778.92	3.1850	3.1851	-0.1739	27.43	1.44	-0.750			
0.8408	53812.54	3.1820	3.1819	-0.1721	27.44	1.45	-0.750			
0.8413	53845.01	3.1790	3.1790	-0.1697	27.44	1.45	-0.750			
0.8418	53877.43	3.1760	3.1761	-0.1680	27.45	1.46	-0.750			
0.8423	53909.40	3.1730	3.1730	-0.1670	27.46	1.47	-0.750			
0.8428	53941.26	3.1700	3.1700	-0.1656	27.46	1.47	-0.750			
0.8433	53972.74	3.1670	3.1669	-0.1642	27.47	1.48	-0.750			
0.8438	54004.42	3.1640	3.1640	-0.1621	27.47	1.48	-0.750			
0.8443	54035.53	3.1610	3.1611	-0.1608	27.48	1.49	-0.750			
0.8448	54066.46	3.1580	3.1578	-0.1595	27.48	1.49	-0.750			
0.8453	54096.87	3.1550	3.1552	-0.1572	27.49	1.50	-0.750			
0.8457	54126.62	3.1520	3.1519	-0.1556	27.50	1.51	-0.750			
0.8462	54156.13	3.1490	3.1490	-0.1538	27.50	1.51	-0.750			
0.8466	54185.45	3.1460	3.1460	-0.1528	27.51	1.52	-0.750			
0.8471	54214.70	3.1430	3.1431	-0.1520	27.51	1.52	-0.750			
0.8476	54244.01	3.1400	3.1400	-0.1507	27.52	1.53	-0.750			
0.8480	54272.78	3.1370	3.1369	-0.1490	27.52	1.53	-0.750			
0.8485	54301.41	3.1340	3.1340	-0.1478	27.53	1.54	-0.750			
0.8489	54329.59	3.1310	3.1310	-0.1462	27.53	1.54	-0.750			
0.8493	54357.54	3.1280	3.1280	-0.1445	27.54	1.55	-0.750			
0.8498	54384.84	3.1250	3.1250	-0.1437	27.54	1.55	-0.750			
0.8502	54412.01	3.1220	3.1220	-0.1422	27.55	1.56	-0.750			
0.8506	54439.43	3.1190	3.1191	-0.1411	27.55	1.56	-0.750			
0.8510	54466.40	3.1160	3.1159	-0.1406	27.55	1.56	-0.750			
0.8515	54493.60	3.1130	3.1131	-0.1396	27.56	1.57	-0.750			
0.8519	54520.27	3.1100	3.1101	-0.1383	27.56	1.57	-0.750			
0.8523	54546.79	3.1070	3.1068	-0.1373	27.57	1.58	-0.750			
0.8527	54573.11	3.1040	3.1041	-0.1363	27.57	1.58	-0.750			
0.8531	54598.88	3.1010	3.1009	-0.1344	27.58	1.59	-0.750			
0.8535	54624.61	3.0980	3.0980	-0.1336	27.58	1.59	-0.750			
0.8539	54650.31	3.0950	3.0950	-0.1328	27.59	1.60	-0.750			
0.8543	54675.40	3.0920	3.0921	-0.1318	27.60	1.61	-0.750			
0.8547	54700.92	3.0890	3.0890	-0.1314	27.60	1.61	-0.750			
0.8551	54726.05	3.0860	3.0860	-0.1304	27.61	1.62	-0.750			
0.8555	54750.92	3.0830	3.0829	-0.1294	27.61	1.62	-0.750			
0.8559	54775.67	3.0800	3.0801	-0.1287	27.62	1.63	-0.750			
0.8563	54800.36	3.0770	3.0770	-0.1281	27.63	1.64	-0.750			
0.8566	54824.88	3.0740	3.0739	-0.1271	27.63	1.64	-0.750			
0.8570	54849.18	3.0710	3.0710	-0.1261	27.64	1.65	-0.750			
0.8574	54873.24	3.0680	3.0682	-0.1250	27.64	1.65	-0.750			
0.8578	54897.36	3.0650	3.0650	-0.1244	27.65	1.66	-0.750			
0.8581	54921.11	3.0620	3.0620	-0.1232	27.66	1.67	-0.750			
0.8585	54944.66	3.0590	3.0590	-0.1220	27.66	1.67	-0.750			
0.8589	54967.83	3.0560	3.0560	-0.1208	27.67	1.68	-0.750			
0.8592	54990.94	3.0530	3.0530	-0.1199	27.67	1.68	-0.750			
0.8596	55013.80	3.0500	3.0500	-0.1191	27.68	1.69	-0.750			
0.8599	55036.61	3.0470	3.0470	-0.1184	27.69	1.70	-0.750			
0.8603	55059.24	3.0440	3.0441	-0.1176	27.69	1.70	-0.750			
0.8607	55081.76	3.0410	3.0410	-0.1170	27.70	1.71	-0.750			
0.8610	55104.04	3.0380	3.0381	-0.1168	27.70	1.71	-0.750			
0.8614	55126.44	3.0350	3.0350	-0.1166	27.71	1.72	-0.750			
0.8617	55148.93	3.0320	3.0318	-0.1158	27.72	1.73	-0.750			
0.8620	55171.10	3.0290	3.0290	-0.1152	27.72	1.73	-0.750			
0.8624	55193.20	3.0260	3.0260	-0.1147	27.73	1.74	-0.750			
0.8627	55215.16	3.0230	3.0231	-0.1140	27.74	1.75	-0.750			
0.8631	55237.27	3.0200	3.0198	-0.1131	27.74	1.75	-0.750			
0.8634	55258.84	3.0170	3.0170	-0.1117	27.75	1.76	-0.750			
0.8637	55279.95	3.0140	3.0141	-0.1106	27.76	1.77	-0.750			
0.8641	55301.10	3.0110	3.0111	-0.1098	27.76	1.77	-0.750			
0.8644	55322.22	3.0080	3.0079	-0.1088	27.77	1.78	-0.751			
0.8647	55343.00	3.0050	3.0050	-0.1076	27.77	1.78	-0.751			
0.8651	55363.72	3.0020	3.0019	-0.1113	27.78	1.79	-0.751			
