Ah_balance (normalized)	Ah_balance (mAh)	Voltage - fit (V)	Voltage -  interpolate (V)	dQ/dV (1/V)	Temperature (°C)	Temperature - diff (°C)	Current (C)	R_DC 0ms (mOhm)	R_DC 50ms (mOhm)	R_DC 50 ms PEC (mOhm)
0.0003	18.03	4.1600	4.1595	-0.1051	25.96	0.02	-0.750			
0.0007	41.79	4.1570	4.1570	-0.1458	25.95	0.01	-0.750			
0.0012	74.76	4.1540	4.1538	-0.1877	25.95	0.01	-0.750			
0.0018	115.59	4.1510	4.1509	-0.2251	25.95	0.01	-0.750			
0.0025	162.44	4.1480	4.1480	-0.2613	25.95	0.01	-0.750			
0.0034	217.34	4.1450	4.1451	-0.2973	25.95	0.01	-0.750			
0.0043	277.63	4.1420	4.1420	-0.3289	25.95	0.01	-0.750			
0.0054	344.28	4.1390	4.1389	-0.3599	25.94	0.00	-0.750			
0.0065	417.26	4.1360	4.1360	-0.3854	25.94	0.00	-0.750			
0.0077	493.73	4.1330	4.1330	-0.4126	25.94	-0.00	-0.750			
0.0090	576.12	4.1300	4.1300	-0.4393	25.93	-0.01	-0.750			
0.0103	662.31	4.1270	4.1271	-0.4637	25.93	-0.01	-0.750			
0.0118	753.60	4.1240	4.1239	-0.4868	25.93	-0.01	-0.750			
0.0133	849.90	4.1210	4.1211	-0.5098	25.92	-0.02	-0.750			
0.0149	950.87	4.1180	4.1180	-0.5288	25.92	-0.02	-0.750			
0.0165	1056.13	4.1150	4.1150	-0.5488	25.92	-0.02	-0.750			
0.0182	1162.31	4.1120	4.1119	-0.5608	25.91	-0.03	-0.750			
0.0199	1271.61	4.1090	4.1090	-0.5736	25.91	-0.03	-0.750			
0.0216	1383.55	4.1060	4.1061	-0.5828	25.90	-0.04	-0.750			
0.0234	1496.68	4.1030	4.1029	-0.5946	25.90	-0.04	-0.750			
0.0252	1610.62	4.1000	4.1001	-0.6048	25.90	-0.04	-0.750			
0.0270	1729.23	4.0970	4.0970	-0.6143	25.89	-0.05	-0.750			
0.0289	1847.97	4.0940	4.0939	-0.6225	25.89	-0.05	-0.750			
0.0308	1968.28	4.0910	4.0910	-0.6302	25.88	-0.06	-0.750			
0.0327	2090.07	4.0880	4.0880	-0.6374	25.88	-0.06	-0.750			
0.0346	2213.05	4.0850	4.0850	-0.6447	25.88	-0.06	-0.750			
0.0365	2336.63	4.0820	4.0820	-0.6492	25.88	-0.06	-0.750			
0.0385	2462.73	4.0790	4.0790	-0.6552	25.87	-0.07	-0.750			
0.0405	2590.74	4.0760	4.0760	-0.6584	25.87	-0.07	-0.750			
0.0425	2717.32	4.0730	4.0730	-0.6623	25.87	-0.07	-0.750			
0.0445	2844.83	4.0700	4.0701	-0.6647	25.87	-0.07	-0.750			
0.0464	2971.98	4.0670	4.0669	-0.6681	25.87	-0.07	-0.750			
0.0484	3099.89	4.0640	4.0640	-0.6724	25.87	-0.07	-0.750			
0.0505	3229.29	4.0610	4.0611	-0.6756	25.87	-0.07	-0.750			
0.0525	3360.82	4.0580	4.0579	-0.6843	25.86	-0.08	-0.750			
0.0546	3492.64	4.0550	4.0550	-0.6878	25.86	-0.08	-0.750			
0.0566	3624.30	4.0520	4.0521	-0.6901	25.86	-0.08	-0.750			
0.0587	3758.07	4.0490	4.0490	-0.6928	25.86	-0.08	-0.750			
0.0608	3891.51	4.0460	4.0459	-0.6936	25.86	-0.08	-0.750			
0.0629	4025.24	4.0430	4.0430	-0.6994	25.86	-0.08	-0.750			
0.0650	4161.06	4.0400	4.0400	-0.6977	25.85	-0.09	-0.750			
0.0671	4293.94	4.0370	4.0369	-0.6952	25.85	-0.09	-0.750			
0.0692	4427.31	4.0340	4.0343	-0.7013	25.85	-0.09	-0.750			
0.0713	4560.85	4.0310	4.0309	-0.7026	25.85	-0.09	-0.750			
0.0734	4695.49	4.0280	4.0279	-0.7075	25.85	-0.09	-0.750			
0.0755	4831.83	4.0250	4.0250	-0.7065	25.85	-0.09	-0.750			
0.0776	4969.41	4.0220	4.0221	-0.7151	25.85	-0.09	-0.750			
0.0798	5107.59	4.0190	4.0189	-0.7153	25.85	-0.09	-0.750			
0.0819	5243.34	4.0160	4.0162	-0.7152	25.85	-0.09	-0.750			
0.0841	5380.48	4.0130	4.0130	-0.7149	25.85	-0.09	-0.750			
0.0862	5516.11	4.0100	4.0100	-0.7226	25.85	-0.09	-0.750			
0.0884	5657.57	4.0070	4.0069	-0.7233	25.85	-0.09	-0.750			
0.0906	5797.81	4.0040	4.0040	-0.7282	25.85	-0.09	-0.750			
0.0928	5936.21	4.0010	4.0009	-0.7285	25.85	-0.09	-0.750			
0.0950	6077.16	3.9980	3.9981	-0.7314	25.85	-0.09	-0.750			
0.0972	6217.68	3.9950	3.9949	-0.7287	25.85	-0.09	-0.750			
0.0993	6357.55	3.9920	3.9920	-0.7325	25.86	-0.08	-0.750			
0.1015	6497.67	3.9890	3.9891	-0.7266	25.86	-0.08	-0.750			
0.1037	6639.14	3.9860	3.9859	-0.7337	25.87	-0.07	-0.750			
0.1059	6779.03	3.9830	3.9830	-0.7319	25.87	-0.07	-0.750			
0.1081	6918.78	3.9800	3.9799	-0.7348	25.87	-0.07	-0.750			
0.1103	7059.77	3.9770	3.9769	-0.7389	25.88	-0.06	-0.750			
0.1125	7202.41	3.9740	3.9740	-0.7461	25.88	-0.06	-0.750			
0.1148	7345.81	3.9710	3.9710	-0.7445	25.88	-0.06	-0.750			
0.1171	7493.04	3.9680	3.9679	-0.7542	25.89	-0.05	-0.750			
0.1193	7637.15	3.9650	3.9652	-0.7506	25.89	-0.05	-0.750			
0.1216	7780.39	3.9620	3.9620	-0.7525	25.89	-0.05	-0.750			
0.1238	7924.66	3.9590	3.9590	-0.7548	25.89	-0.05	-0.750			
0.1261	8068.30	3.9560	3.9560	-0.7572	25.89	-0.05	-0.750			
0.1284	8216.10	3.9530	3.9529	-0.7635	25.89	-0.05	-0.750			
0.1307	8363.33	3.9500	3.9501	-0.7619	25.89	-0.05	-0.750			
0.1330	8510.13	3.9470	3.9469	-0.7610	25.89	-0.05	-0.750			
0.1352	8653.83	3.9440	3.9441	-0.7708	25.90	-0.04	-0.750			
0.1375	8801.04	3.9410	3.9410	-0.7635	25.90	-0.04	-0.750			
0.1398	8948.41	3.9380	3.9379	-0.7664	25.90	-0.04	-0.750			
0.1421	9096.51	3.9350	3.9350	-0.7719	25.91	-0.03	-0.750			
0.1445	9245.49	3.9320	3.9323	-0.7734	25.91	-0.03	-0.750			
0.1468	9394.15	3.9290	3.9289	-0.7745	25.91	-0.03	-0.750			
0.1491	9542.34	3.9260	3.9260	-0.7751	25.91	-0.03	-0.750			
0.1514	9690.52	3.9230	3.9230	-0.7752	25.91	-0.03	-0.750			
0.1538	9840.62	3.9200	3.9200	-0.7784	25.91	-0.03	-0.750			
0.1561	9989.50	3.9170	3.9168	-0.7795	25.91	-0.03	-0.750			
0.1584	10138.25	3.9140	3.9141	-0.7833	25.91	-0.03	-0.750			
0.1608	10289.52	3.9110	3.9110	-0.7889	25.92	-0.02	-0.750			
0.1631	10441.03	3.9080	3.9080	-0.7910	25.92	-0.02	-0.750			
0.1655	10594.14	3.9050	3.9050	-0.7931	25.92	-0.02	-0.750			
0.1679	10748.78	3.9020	3.9020	-0.7912	25.93	-0.01	-0.750			
0.1703	10899.98	3.8990	3.8990	-0.7892	25.93	-0.01	-0.750			
0.1726	11048.49	3.8960	3.8961	-0.7898	25.93	-0.01	-0.750			
0.1750	11199.67	3.8930	3.8930	-0.7914	25.93	-0.01	-0.750			
0.1774	11352.33	3.8900	3.8899	-0.7918	25.93	-0.01	-0.750			
0.1798	11505.18	3.8870	3.8869	-0.7938	25.93	-0.01	-0.750			
0.1822	11659.12	3.8840	3.8842	-0.7967	25.93	-0.01	-0.750			
0.1846	11812.75	3.8810	3.8810	-0.7955	25.93	-0.01	-0.750			
0.1869	11963.57	3.8780	3.8780	-0.7998	25.94	-0.00	-0.750			
0.1894	12119.19	3.8750	3.8749	-0.7956	25.94	0.00	-0.750			
0.1917	12271.30	3.8720	3.8719	-0.7996	25.95	0.01	-0.750			
0.1941	12424.81	3.8690	3.8694	-0.8003	25.95	0.01	-0.750			
0.1966	12579.27	3.8660	3.8659	-0.8008	25.95	0.01	-0.750			
0.1989	12732.77	3.8630	3.8629	-0.8024	25.96	0.02	-0.750			
0.2014	12886.51	3.8600	3.8600	-0.7971	25.96	0.02	-0.750			
0.2038	13040.39	3.8570	3.8570	-0.8017	25.97	0.03	-0.750			
0.2062	13195.17	3.8540	3.8541	-0.7995	25.97	0.03	-0.750			
0.2085	13345.99	3.8510	3.8509	-0.7954	25.97	0.03	-0.750			
0.2109	13499.05	3.8480	3.8480	-0.8038	25.98	0.04	-0.750			
0.2134	13654.51	3.8450	3.8450	-0.8000	25.98	0.04	-0.750			
0.2158	13808.68	3.8420	3.8419	-0.7974	25.98	0.04	-0.750			
0.2182	13964.61	3.8390	3.8391	-0.8010	25.99	0.05	-0.750			
0.2206	14116.57	3.8360	3.8359	-0.7964	25.99	0.05	-0.750			
0.2229	14267.98	3.8330	3.8329	-0.7962	26.00	0.06	-0.750			
0.2253	14420.26	3.8300	3.8299	-0.7894	26.00	0.06	-0.750			
0.2276	14569.18	3.8270	3.8271	-0.7866	26.00	0.06	-0.750			
0.2301	14726.07	3.8240	3.8239	-0.7905	26.01	0.07	-0.750			
0.2324	14875.80	3.8210	3.8211	-0.7811	26.01	0.07	-0.750			
0.2347	15023.23	3.8180	3.8180	-0.7809	26.01	0.07	-0.750			
0.2371	15172.25	3.8150	3.8150	-0.7823	26.02	0.08	-0.750			
0.2394	15322.48	3.8120	3.8119	-0.7796	26.02	0.08	-0.750			
0.2418	15474.49	3.8090	3.8090	-0.7835	26.03	0.09	-0.750			
0.2442	15626.06	3.8060	3.8062	-0.7797	26.03	0.09	-0.750			
0.2465	15777.52	3.8030	3.8030	-0.7751	26.03	0.09	-0.750			
0.2488	15924.56	3.8000	3.8000	-0.7673	26.04	0.10	-0.750			
0.2511	16070.64	3.7970	3.7970	-0.7509	26.04	0.10	-0.750			
0.2533	16212.02	3.7940	3.7940	-0.7480	26.04	0.10	-0.750			
0.2556	16355.21	3.7910	3.7910	-0.7461	26.05	0.11	-0.750			
0.2578	16496.51	3.7880	3.7878	-0.7455	26.05	0.11	-0.750			
0.2600	16641.22	3.7850	3.7850	-0.7436	26.05	0.11	-0.750			
0.2623	16785.23	3.7820	3.7820	-0.7435	26.05	0.11	-0.750			
0.2645	16928.42	3.7790	3.7790	-0.7426	26.06	0.12	-0.750			
0.2668	17073.14	3.7760	3.7761	-0.7417	26.06	0.12	-0.750			
0.2689	17211.29	3.7730	3.7731	-0.7377	26.06	0.12	-0.750			
0.2711	17352.93	3.7700	3.7699	-0.7461	26.06	0.12	-0.750			
0.2734	17495.43	3.7670	3.7671	-0.7459	26.06	0.12	-0.750			
0.2756	17641.30	3.7640	3.7639	-0.7511	26.07	0.13	-0.750			
0.2779	17786.61	3.7610	3.7611	-0.7521	26.07	0.13	-0.750			
0.2802	17933.02	3.7580	3.7580	-0.7520	26.07	0.13	-0.750			
0.2825	18077.07	3.7550	3.7551	-0.7512	26.07	0.13	-0.750			
0.2847	18219.53	3.7520	3.7519	-0.7473	26.07	0.13	-0.750			
0.2869	18362.17	3.7490	3.7490	-0.7545	26.08	0.14	-0.750			
0.2892	18507.22	3.7460	3.7460	-0.7548	26.08	0.14	-0.750			
0.2915	18654.15	3.7430	3.7430	-0.7612	26.09	0.15	-0.750			
0.2938	18800.56	3.7400	3.7400	-0.7695	26.09	0.15	-0.750			
0.2961	18948.87	3.7370	3.7370	-0.7787	26.09	0.15	-0.750			
0.2984	19097.21	3.7340	3.7339	-0.7871	26.10	0.16	-0.750			
0.3008	19248.85	3.7310	3.7310	-0.8012	26.10	0.16	-0.750			
0.3032	19403.23	3.7280	3.7281	-0.8116	26.10	0.16	-0.750			
0.3057	19563.17	3.7250	3.7248	-0.8312	26.11	0.17	-0.750			
0.3082	19724.23	3.7220	3.7220	-0.8375	26.11	0.17	-0.750			
0.3107	19884.96	3.7190	3.7190	-0.8472	26.11	0.17	-0.750			
0.3132	20047.90	3.7160	3.7161	-0.8628	26.11	0.17	-0.750			
0.3158	20213.77	3.7130	3.7130	-0.8748	26.11	0.17	-0.750			
0.3185	20382.12	3.7100	3.7100	-0.8912	26.11	0.17	-0.750			
0.3212	20554.37	3.7070	3.7070	-0.9171	26.11	0.17	-0.750			
0.3240	20733.28	3.7040	3.7039	-0.9318	26.11	0.17	-0.750			
0.3268	20916.46	3.7010	3.7010	-0.9524	26.10	0.16	-0.750			
0.3297	21101.07	3.6980	3.6980	-0.9606	26.10	0.16	-0.750			
0.3326	21286.19	3.6950	3.6951	-0.9766	26.10	0.16	-0.750			
0.3356	21476.60	3.6920	3.6920	-0.9994	26.10	0.16	-0.750			
0.3385	21666.40	3.6890	3.6888	-1.0141	26.09	0.15	-0.750			
0.3416	21862.24	3.6860	3.6860	-1.0321	26.09	0.15	-0.750			
0.3448	22065.07	3.6830	3.6832	-1.0629	26.09	0.15	-0.750			
0.3480	22274.71	3.6800	3.6800	-1.0814	26.09	0.15	-0.750			
0.3513	22485.65	3.6770	3.6769	-1.0946	26.09	0.15	-0.750			
0.3546	22691.31	3.6740	3.6740	-1.1046	26.09	0.15	-0.750			
0.3579	22907.08	3.6710	3.6711	-1.1359	26.09	0.15	-0.750			
0.3613	23125.37	3.6680	3.6678	-1.1539	26.08	0.14	-0.750			
0.3649	23352.85	3.6650	3.6649	-1.1639	26.08	0.14	-0.750			
0.3684	23575.94	3.6620	3.6620	-1.1811	26.07	0.13	-0.750			
0.3720	23806.18	3.6590	3.6590	-1.2215	26.07	0.13	-0.750			
0.3757	24042.58	3.6560	3.6560	-1.2481	26.06	0.12	-0.750			
0.3794	24283.18	3.6530	3.6527	-1.2729	26.05	0.11	-0.750			
0.3833	24528.43	3.6500	3.6502	-1.2991	26.05	0.11	-0.750			
0.3873	24786.05	3.6470	3.6470	-1.3290	26.04	0.10	-0.750			
0.3913	25044.91	3.6440	3.6439	-1.3548	26.03	0.09	-0.750			
0.3954	25305.02	3.6410	3.6410	-1.3663	26.03	0.09	-0.750			
0.3996	25573.64	3.6380	3.6380	-1.3969	26.03	0.09	-0.750			
0.4038	25842.03	3.6350	3.6350	-1.4262	26.03	0.09	-0.750			
0.4081	26116.28	3.6320	3.6321	-1.4651	26.03	0.09	-0.750			
0.4125	26400.64	3.6290	3.6289	-1.4915	26.02	0.08	-0.750			
0.4171	26692.07	3.6260	3.6258	-1.5248	26.01	0.07	-0.750			
0.4217	26986.99	3.6230	3.6229	-1.5538	26.01	0.07	-0.750			
0.4264	27290.91	3.6200	3.6200	-1.5901	26.00	0.06	-0.750			
0.4312	27597.44	3.6170	3.6172	-1.6165	25.99	0.05	-0.750			
0.4361	27908.25	3.6140	3.6143	-1.6258	25.99	0.05	-0.750	0.389	0.538	
0.4410	28223.62	3.6110	3.6110	-1.6636	25.98	0.04	-0.750			
0.4461	28548.42	3.6080	3.6079	-1.7105	25.98	0.04	-0.750			
0.4513	28883.95	3.6050	3.6050	-1.7408	25.97	0.03	-0.750			
0.4565	29217.27	3.6020	3.6020	-1.7517	25.97	0.03	-0.750			
0.4618	29554.68	3.5990	3.5990	-1.7819	25.96	0.02	-0.750			
0.4672	29900.67	3.5960	3.5961	-1.8200	25.95	0.01	-0.750			
0.4726	30249.17	3.5930	3.5928	-1.8617	25.95	0.01	-0.750			
0.4783	30613.52	3.5900	3.5897	-1.8786	25.95	0.01	-0.750			
0.4840	30973.79	3.5870	3.5871	-1.9343	25.95	0.01	-0.750			
0.4899	31353.14	3.5840	3.5841	-1.9927	25.95	0.01	-0.750			
0.4960	31741.08	3.5810	3.5807	-2.0102	25.95	0.01	-0.750			
0.5021	32133.01	3.5780	3.5781	-2.0315	25.94	-0.00	-0.750			
0.5082	32525.20	3.5750	3.5751	-2.0769	25.93	-0.01	-0.750			
0.5147	32939.87	3.5720	3.5720	-2.0924	25.93	-0.01	-0.750			
0.5209	33335.14	3.5690	3.5690	-2.1002	25.93	-0.01	-0.750			
0.5272	33739.86	3.5660	3.5659	-2.1293	25.93	-0.01	-0.750			
0.5336	34150.98	3.5630	3.5631	-2.1495	25.93	-0.01	-0.750			
0.5401	34569.39	3.5600	3.5600	-2.1716	25.93	-0.01	-0.750			
0.5467	34988.32	3.5570	3.5571	-2.1934	25.93	-0.01	-0.750			
0.5533	35408.26	3.5540	3.5540	-2.1809	25.93	-0.01	-0.750			
0.5600	35840.88	3.5510	3.5510	-2.1963	25.93	-0.01	-0.750			
0.5665	36256.92	3.5480	3.5480	-2.1563	25.93	-0.01	-0.750			
0.5730	36669.20	3.5450	3.5450	-2.1436	25.93	-0.01	-0.750			
0.5794	37078.73	3.5420	3.5421	-2.1213	25.93	-0.01	-0.750			
0.5856	37480.36	3.5390	3.5389	-2.1102	25.93	-0.01	-0.750			
0.5919	37884.41	3.5360	3.5360	-2.0722	25.93	-0.01	-0.750			
0.5982	38283.14	3.5330	3.5330	-2.0515	25.94	-0.00	-0.750			
0.6044	38681.67	3.5300	3.5301	-2.0167	25.95	0.01	-0.750			
0.6103	39061.65	3.5270	3.5268	-1.9800	25.96	0.02	-0.750			
0.6162	39434.75	3.5240	3.5241	-1.9359	25.97	0.03	-0.750			
0.6219	39803.51	3.5210	3.5212	-1.9107	25.97	0.03	-0.750			
0.6276	40166.72	3.5180	3.5179	-1.8640	25.97	0.03	-0.750			
0.6332	40527.59	3.5150	3.5150	-1.8187	25.97	0.03	-0.750			
0.6386	40873.53	3.5120	3.5120	-1.7718	25.98	0.04	-0.750			
0.6439	41209.70	3.5090	3.5088	-1.7229	25.99	0.05	-0.750			
0.6490	41533.97	3.5060	3.5061	-1.6574	26.01	0.07	-0.750			
0.6539	41847.83	3.5030	3.5029	-1.6081	26.02	0.08	-0.750			
0.6586	42150.24	3.5000	3.5001	-1.5504	26.04	0.10	-0.750			
0.6632	42445.14	3.4970	3.4970	-1.5092	26.05	0.11	-0.750			
0.6676	42728.43	3.4940	3.4938	-1.4658	26.07	0.13	-0.750			
0.6719	43004.65	3.4910	3.4910	-1.4177	26.08	0.14	-0.750			
0.6762	43275.24	3.4880	3.4879	-1.3763	26.09	0.15	-0.750			
0.6802	43535.47	3.4850	3.4850	-1.3412	26.11	0.17	-0.750			
0.6842	43787.49	3.4820	3.4819	-1.2939	26.12	0.18	-0.750			
0.6880	44034.52	3.4790	3.4790	-1.2603	26.13	0.19	-0.750			
0.6917	44269.74	3.4760	3.4759	-1.2193	26.14	0.20	-0.750			
0.6953	44498.94	3.4730	3.4731	-1.1796	26.16	0.22	-0.750			
0.6989	44727.45	3.4700	3.4700	-1.1538	26.17	0.23	-0.750			
0.7023	44945.59	3.4670	3.4669	-1.1174	26.19	0.25	-0.750			
0.7056	45155.60	3.4640	3.4640	-1.0768	26.20	0.26	-0.750			
0.7087	45359.42	3.4610	3.4608	-1.0520	26.22	0.28	-0.750			
0.7118	45558.27	3.4580	3.4580	-1.0163	26.23	0.29	-0.750			
0.7148	45750.19	3.4550	3.4549	-0.9822	26.24	0.30	-0.750			
0.7177	45934.14	3.4520	3.4519	-0.9517	26.25	0.31	-0.750			
0.7205	46115.09	3.4490	3.4491	-0.9261	26.26	0.32	-0.750			
0.7233	46290.01	3.4460	3.4459	-0.9016	26.27	0.33	-0.750			
0.7259	46458.45	3.4430	3.4430	-0.8806	26.28	0.34	-0.750			
0.7285	46622.71	3.4400	3.4400	-0.8654	26.29	0.35	-0.750			
0.7311	46789.76	3.4370	3.4369	-0.8636	26.30	0.36	-0.750			
0.7336	46952.27	3.4340	3.4339	-0.8659	26.31	0.37	-0.750			
0.7362	47117.96	3.4310	3.4311	-0.8680	26.32	0.38	-0.750			
0.7388	47283.92	3.4280	3.4279	-0.8757	26.33	0.39	-0.750			
0.7415	47453.99	3.4250	3.4250	-0.8828	26.34	0.40	-0.750			
0.7441	47624.51	3.4220	3.4222	-0.8896	26.35	0.41	-0.750			
0.7468	47793.97	3.4190	3.4190	-0.9108	26.36	0.42	-0.750			
0.7496	47971.46	3.4160	3.4161	-0.9191	26.37	0.43	-0.750			
0.7523	48149.05	3.4130	3.4129	-0.9263	26.38	0.44	-0.750			
0.7552	48330.76	3.4100	3.4099	-0.9324	26.39	0.45	-0.750			
0.7580	48511.32	3.4070	3.4070	-0.9265	26.39	0.45	-0.750			
0.7608	48692.51	3.4040	3.4040	-0.9227	26.40	0.46	-0.750			
0.7636	48867.23	3.4010	3.4010	-0.9050	26.41	0.47	-0.750			
0.7662	49037.55	3.3980	3.3980	-0.8777	26.41	0.47	-0.750			
0.7689	49208.44	3.3950	3.3949	-0.8647	26.42	0.48	-0.750			
0.7715	49372.94	3.3920	3.3920	-0.8384	26.43	0.49	-0.750			
0.7739	49531.26	3.3890	3.3891	-0.8138	26.44	0.50	-0.750			
0.7763	49685.94	3.3860	3.3859	-0.7855	26.45	0.51	-0.750			
0.7786	49833.00	3.3830	3.3829	-0.7532	26.46	0.52	-0.750			
0.7808	49974.26	3.3800	3.3801	-0.7266	26.47	0.53	-0.750			
0.7830	50111.47	3.3770	3.3770	-0.7016	26.47	0.53	-0.750			
0.7850	50242.97	3.3740	3.3739	-0.6767	26.48	0.54	-0.750			
0.7870	50370.43	3.3710	3.3710	-0.6550	26.48	0.54	-0.750			
0.7889	50492.62	3.3680	3.3681	-0.6330	26.49	0.55	-0.750			
0.7909	50614.89	3.3650	3.3650	-0.6151	26.49	0.55	-0.750			
0.7927	50730.47	3.3620	3.3620	-0.5932	26.50	0.56	-0.750			
0.7944	50841.52	3.3590	3.3591	-0.5697	26.50	0.56	-0.750			
0.7961	50948.52	3.3560	3.3559	-0.5502	26.51	0.57	-0.750			
0.7977	51051.56	3.3530	3.3530	-0.5315	26.51	0.57	-0.750			
0.7992	51150.93	3.3500	3.3501	-0.5135	26.52	0.58	-0.750			
0.8008	51248.39	3.3470	3.3469	-0.4980	26.53	0.59	-0.750			
0.8022	51342.13	3.3440	3.3440	-0.4830	26.53	0.59	-0.750			
0.8036	51432.84	3.3410	3.3410	-0.4659	26.54	0.60	-0.750			
0.8050	51521.53	3.3380	3.3380	-0.4510	26.54	0.60	-0.750			
0.8063	51606.33	3.3350	3.3350	-0.4351	26.55	0.61	-0.750			
0.8076	51688.06	3.3320	3.3321	-0.4221	26.55	0.61	-0.750			
0.8089	51767.23	3.3290	3.3290	-0.4091	26.56	0.62	-0.750			
0.8101	51844.92	3.3260	3.3259	-0.3971	26.57	0.63	-0.750			
0.8112	51919.73	3.3230	3.3230	-0.3844	26.57	0.63	-0.750			
0.8124	51992.34	3.3200	3.3200	-0.3747	26.58	0.64	-0.750			
0.8135	52063.26	3.3170	3.3170	-0.3647	26.58	0.64	-0.750			
0.8146	52132.00	3.3140	3.3139	-0.3541	26.59	0.65	-0.750			
0.8156	52198.14	3.3110	3.3110	-0.3482	26.59	0.65	-0.750			
0.8166	52264.79	3.3080	3.3080	-0.3389	26.60	0.66	-0.750			
0.8176	52329.43	3.3050	3.3049	-0.3319	26.60	0.66	-0.750			
0.8186	52392.73	3.3020	3.3020	-0.3235	26.61	0.67	-0.750			
0.8196	52454.02	3.2990	3.2991	-0.3131	26.61	0.67	-0.750			
0.8205	52513.19	3.2960	3.2959	-0.3049	26.62	0.68	-0.750			
0.8214	52570.50	3.2930	3.2930	-0.2962	26.62	0.68	-0.750			
0.8223	52625.40	3.2900	3.2901	-0.2878	26.63	0.69	-0.750			
0.8231	52680.82	3.2870	3.2870	-0.2843	26.63	0.69	-0.750			
0.8240	52734.40	3.2840	3.2840	-0.2786	26.64	0.70	-0.750			
0.8248	52787.75	3.2810	3.2810	-0.2742	26.64	0.70	-0.750			
0.8256	52840.51	3.2780	3.2780	-0.2694	26.65	0.71	-0.750			
0.8264	52891.52	3.2750	3.2750	-0.2627	26.65	0.71	-0.750			
0.8272	52941.49	3.2720	3.2720	-0.2573	26.66	0.72	-0.750			
0.8280	52989.85	3.2690	3.2690	-0.2521	26.66	0.72	-0.750			
0.8287	53037.24	3.2660	3.2660	-0.2464	26.66	0.72	-0.750			
0.8294	53083.61	3.2630	3.2630	-0.2438	26.67	0.73	-0.750			
0.8302	53130.32	3.2600	3.2601	-0.2397	26.67	0.73	-0.750			
0.8309	53175.97	3.2570	3.2570	-0.2376	26.68	0.74	-0.750			
0.8316	53221.40	3.2540	3.2540	-0.2363	26.68	0.74	-0.750			
0.8323	53266.75	3.2510	3.2510	-0.2334	26.69	0.75	-0.750			
0.8330	53311.53	3.2480	3.2480	-0.2300	26.69	0.75	-0.750			
0.8337	53355.42	3.2450	3.2450	-0.2266	26.70	0.76	-0.750			
0.8344	53398.75	3.2420	3.2421	-0.2223	26.70	0.76	-0.750			
0.8350	53441.62	3.2390	3.2390	-0.2193	26.71	0.77	-0.750			
0.8357	53482.58	3.2360	3.2360	-0.2137	26.71	0.77	-0.750			
0.8363	53523.20	3.2330	3.2330	-0.2095	26.72	0.78	-0.750			
0.8369	53562.37	3.2300	3.2300	-0.2073	26.72	0.78	-0.750			
0.8375	53601.77	3.2270	3.2270	-0.2051	26.73	0.79	-0.750			
0.8381	53641.22	3.2240	3.2240	-0.2025	26.74	0.80	-0.750			
0.8387	53679.90	3.2210	3.2209	-0.2003	26.74	0.80	-0.750			
0.8393	53718.39	3.2180	3.2181	-0.1977	26.75	0.81	-0.750			
0.8399	53756.35	3.2150	3.2151	-0.1949	26.75	0.81	-0.750			
0.8405	53793.27	3.2120	3.2119	-0.1923	26.76	0.82	-0.750			
0.8411	53829.89	3.2090	3.2090	-0.1892	26.76	0.82	-0.750			
0.8416	53865.54	3.2060	3.2060	-0.1859	26.77	0.83	-0.750			
0.8422	53900.70	3.2030	3.2030	-0.1839	26.77	0.83	-0.750			
0.8427	53935.89	3.2000	3.2000	-0.1824	26.77	0.83	-0.750			
0.8433	53970.79	3.1970	3.1971	-0.1805	26.78	0.84	-0.750			
0.8438	54005.22	3.1940	3.1940	-0.1784	26.78	0.84	-0.750			
0.8444	54039.41	3.1910	3.1910	-0.1767	26.78	0.84	-0.750			
0.8449	54073.17	3.1880	3.1880	-0.1743	26.79	0.85	-0.750			
0.8454	54106.28	3.1850	3.1850	-0.1727	26.79	0.85	-0.750			
0.8459	54139.37	3.1820	3.1821	-0.1712	26.80	0.86	-0.750			
0.8464	54172.04	3.1790	3.1789	-0.1692	26.81	0.87	-0.750			
0.8469	54204.02	3.1760	3.1760	-0.1674	26.81	0.87	-0.750			
0.8474	54236.07	3.1730	3.1731	-0.1662	26.82	0.88	-0.750			
0.8479	54267.95	3.1700	3.1700	-0.1647	26.83	0.89	-0.750			
0.8484	54299.43	3.1670	3.1669	-0.1632	26.83	0.89	-0.750			
0.8489	54330.71	3.1640	3.1640	-0.1619	26.84	0.90	-0.750			
0.8494	54361.67	3.1610	3.1610	-0.1596	26.84	0.90	-0.750			
0.8499	54392.21	3.1580	3.1580	-0.1581	26.85	0.91	-0.750			
0.8503	54422.38	3.1550	3.1551	-0.1561	26.85	0.91	-0.750			
0.8508	54452.14	3.1520	3.1520	-0.1543	26.86	0.92	-0.750			
0.8513	54481.39	3.1490	3.1489	-0.1528	26.87	0.93	-0.750			
0.8517	54510.51	3.1460	3.1460	-0.1513	26.87	0.93	-0.750			
0.8522	54539.45	3.1430	3.1430	-0.1501	26.88	0.94	-0.750			
0.8526	54567.86	3.1400	3.1400	-0.1495	26.88	0.94	-0.750			
0.8531	54596.92	3.1370	3.1368	-0.1484	26.89	0.95	-0.750			
0.8535	54625.31	3.1340	3.1341	-0.1470	26.89	0.95	-0.750			
0.8540	54653.42	3.1310	3.1310	-0.1454	26.90	0.96	-0.750			
0.8544	54681.23	3.1280	3.1282	-0.1446	26.90	0.96	-0.750			
0.8548	54708.77	3.1250	3.1249	-0.1432	26.91	0.97	-0.750			
0.8553	54736.15	3.1220	3.1220	-0.1420	26.91	0.97	-0.750			
0.8557	54763.26	3.1190	3.1189	-0.1405	26.92	0.98	-0.750			
0.8561	54789.80	3.1160	3.1162	-0.1394	26.92	0.98	-0.750			
0.8565	54816.82	3.1130	3.1130	-0.1392	26.93	0.99	-0.750			
0.8569	54843.41	3.1100	3.1099	-0.1383	26.93	0.99	-0.750			
0.8573	54869.83	3.1070	3.1069	-0.1370	26.94	1.00	-0.750			
0.8577	54895.92	3.1040	3.1040	-0.1359	26.95	1.01	-0.750			
0.8582	54922.07	3.1010	3.1010	-0.1350	26.95	1.01	-0.750			
0.8586	54947.87	3.0980	3.0981	-0.1337	26.96	1.02	-0.750			
0.8590	54973.60	3.0950	3.0951	-0.1325	26.97	1.03	-0.750			
0.8594	54998.58	3.0920	3.0918	-0.1315	26.97	1.03	-0.750			
0.8597	55023.87	3.0890	3.0890	-0.1304	26.98	1.04	-0.750			
0.8601	55048.80	3.0860	3.0860	-0.1294	26.98	1.04	-0.750			
0.8605	55073.61	3.0830	3.0830	-0.1284	26.99	1.05	-0.750			
0.8609	55098.16	3.0800	3.0801	-0.1273	27.00	1.06	-0.750			
0.8613	55122.45	3.0770	3.0770	-0.1266	27.00	1.06	-0.750			
0.8617	55146.62	3.0740	3.0740	-0.1257	27.01	1.07	-0.750			
0.8620	55170.70	3.0710	3.0710	-0.1249	27.01	1.07	-0.750			
0.8624	55194.56	3.0680	3.0679	-0.1237	27.02	1.08	-0.750			
0.8628	55218.43	3.0650	3.0650	-0.1233	27.02	1.08	-0.750			
0.8632	55241.88	3.0620	3.0622	-0.1226	27.03	1.09	-0.750			
0.8635	55265.34	3.0590	3.0590	-0.1217	27.04	1.10	-0.750			
0.8639	55288.50	3.0560	3.0560	-0.1215	27.04	1.10	-0.750			
0.8642	55311.54	3.0530	3.0530	-0.1208	27.05	1.11	-0.750			
0.8646	55334.90	3.0500	3.0500	-0.1198	27.05	1.11	-0.750			
0.8650	55357.96	3.0470	3.0470	-0.1194	27.06	1.12	-0.750			
0.8653	55380.90	3.0440	3.0441	-0.1181	27.07	1.13	-0.750			
0.8657	55403.80	3.0410	3.0411	-0.1172	27.07	1.13	-0.750			
0.8660	55425.92	3.0380	3.0381	-0.1163	27.08	1.14	-0.750			
0.8664	55448.16	3.0350	3.0350	-0.1154	27.08	1.14	-0.750			
0.8667	55469.89	3.0320	3.0320	-0.1143	27.09	1.15	-0.750			
0.8671	55491.82	3.0290	3.0290	-0.1141	27.10	1.16	-0.750			
0.8674	55513.74	3.0260	3.0260	-0.1138	27.10	1.16	-0.750			
0.8677	55535.56	3.0230	3.0231	-0.1135	27.11	1.17	-0.750			
0.8681	55557.57	3.0200	3.0200	-0.1130	27.11	1.17	-0.750			
0.8684	55579.19	3.0170	3.0170	-0.1122	27.12	1.18	-0.750			
0.8688	55600.53	3.0140	3.0141	-0.1117	27.12	1.18	-0.750			
0.8691	55621.92	3.0110	3.0110	-0.1111	27.13	1.19	-0.750			
0.8694	55643.15	3.0080	3.0079	-0.1106	27.13	1.19	-0.750			
0.8698	55664.36	3.0050	3.0050	-0.1103	27.14	1.20	-0.750			
0.8701	55685.50	3.0020	3.0020	-0.1125	27.15	1.21	-0.751			
