Ah_balance (normalized)	Ah_balance (mAh)	Voltage - fit (V)	Voltage -  interpolate (V)	dQ/dV (1/V)	Temperature (°C)	Temperature - diff (°C)	Current (C)	R_DC 0ms (mOhm)	R_DC 50ms (mOhm)	R_DC 50 ms PEC (mOhm)
0.0519	3322.14	4.1960	4.1961	0.7738	26.71	0.78	0.750			
0.0542	3470.41	4.1930	4.1929	0.7751	26.71	0.78	0.750			
0.0566	3619.43	4.1900	4.1900	0.7791	26.71	0.78	0.750			
0.0589	3770.24	4.1870	4.1871	0.7804	26.71	0.78	0.750			
0.0613	3920.65	4.1840	4.1839	0.7833	26.72	0.79	0.750			
0.0636	4071.26	4.1810	4.1810	0.7839	26.72	0.79	0.750			
0.0659	4220.74	4.1780	4.1781	0.7830	26.72	0.79	0.750			
0.0683	4370.87	4.1750	4.1750	0.7838	26.72	0.79	0.750			
0.0707	4523.75	4.1720	4.1720	0.7803	26.71	0.78	0.750			
0.0730	4672.52	4.1690	4.1690	0.7831	26.71	0.78	0.750			
0.0754	4822.56	4.1660	4.1660	0.7871	26.71	0.78	0.750			
0.0777	4972.28	4.1630	4.1630	0.7912	26.70	0.77	0.750			
0.0801	5124.72	4.1600	4.1598	0.7913	26.70	0.77	0.750			
0.0825	5277.62	4.1570	4.1570	0.7931	26.70	0.77	0.750			
0.0849	5431.36	4.1540	4.1541	0.7932	26.70	0.77	0.750			
0.0872	5583.89	4.1510	4.1511	0.7939	26.70	0.77	0.750			
0.0896	5733.98	4.1480	4.1480	0.7906	26.70	0.77	0.750			
0.0920	5885.30	4.1450	4.1448	0.8010	26.70	0.77	0.750			
0.0944	6038.57	4.1420	4.1421	0.7994	26.70	0.77	0.750			
0.0968	6195.26	4.1390	4.1389	0.8005	26.71	0.78	0.750			
0.0992	6350.67	4.1360	4.1361	0.8053	26.71	0.78	0.750			
0.1016	6504.68	4.1330	4.1330	0.8087	26.72	0.79	0.750			
0.1040	6657.72	4.1300	4.1299	0.8090	26.72	0.79	0.750			
0.1065	6813.69	4.1270	4.1270	0.8107	26.72	0.79	0.750			
0.1089	6969.80	4.1240	4.1241	0.8038	26.72	0.79	0.750			
0.1113	7125.94	4.1210	4.1210	0.8092	26.72	0.79	0.750			
0.1138	7281.54	4.1180	4.1181	0.8143	26.72	0.79	0.750			
0.1162	7435.77	4.1150	4.1150	0.8074	26.72	0.79	0.750			
0.1186	7590.13	4.1120	4.1120	0.8111	26.72	0.79	0.750			
0.1211	7747.38	4.1090	4.1091	0.8096	26.72	0.79	0.750			
0.1235	7903.51	4.1060	4.1061	0.8166	26.72	0.79	0.750			
0.1260	8061.84	4.1030	4.1030	0.8254	26.72	0.79	0.750			
0.1284	8218.35	4.1000	4.1000	0.8228	26.72	0.79	0.750			
0.1309	8376.15	4.0970	4.0971	0.8272	26.72	0.79	0.750			
0.1334	8537.27	4.0940	4.0941	0.8317	26.72	0.79	0.750			
0.1359	8696.37	4.0910	4.0910	0.8330	26.72	0.79	0.750			
0.1384	8858.51	4.0880	4.0879	0.8386	26.72	0.79	0.750			
0.1409	9017.94	4.0850	4.0851	0.8361	26.72	0.79	0.750			
0.1434	9178.24	4.0820	4.0820	0.8394	26.72	0.79	0.750			
0.1460	9342.00	4.0790	4.0790	0.8388	26.72	0.79	0.750			
0.1485	9502.35	4.0760	4.0760	0.8430	26.72	0.79	0.750			
0.1510	9664.26	4.0730	4.0731	0.8472	26.72	0.79	0.750			
0.1535	9826.35	4.0700	4.0700	0.8470	26.72	0.79	0.750			
0.1561	9989.15	4.0670	4.0671	0.8498	26.72	0.79	0.750			
0.1586	10153.29	4.0640	4.0640	0.8491	26.72	0.79	0.750			
0.1612	10315.52	4.0610	4.0610	0.8545	26.72	0.79	0.750			
0.1638	10481.10	4.0580	4.0580	0.8601	26.72	0.79	0.750			
0.1663	10644.89	4.0550	4.0550	0.8609	26.72	0.79	0.750			
0.1689	10810.88	4.0520	4.0520	0.8677	26.72	0.79	0.750			
0.1715	10978.87	4.0490	4.0490	0.8691	26.72	0.79	0.750			
0.1742	11146.24	4.0460	4.0460	0.8705	26.72	0.79	0.750			
0.1768	11313.81	4.0430	4.0430	0.8721	26.72	0.79	0.750			
0.1794	11481.22	4.0400	4.0398	0.8753	26.72	0.79	0.750			
0.1820	11649.69	4.0370	4.0370	0.8763	26.72	0.79	0.750			
0.1847	11817.67	4.0340	4.0341	0.8793	26.73	0.80	0.750			
0.1873	11986.38	4.0310	4.0310	0.8834	26.73	0.80	0.750			
0.1900	12157.45	4.0280	4.0280	0.8880	26.74	0.81	0.750			
0.1926	12326.97	4.0250	4.0251	0.8906	26.74	0.81	0.750			
0.1953	12498.73	4.0220	4.0220	0.8910	26.74	0.81	0.750			
0.1980	12670.93	4.0190	4.0190	0.8951	26.74	0.81	0.750			
0.2007	12843.28	4.0160	4.0160	0.8990	26.74	0.81	0.750			
0.2034	13015.23	4.0130	4.0130	0.9000	26.74	0.81	0.750			
0.2061	13188.49	4.0100	4.0100	0.9029	26.74	0.81	0.750			
0.2088	13361.88	4.0070	4.0070	0.9013	26.74	0.81	0.750			
0.2115	13533.89	4.0040	4.0041	0.9054	26.74	0.81	0.750			
0.2142	13708.69	4.0010	4.0011	0.9117	26.74	0.81	0.750			
0.2169	13882.71	3.9980	3.9977	0.9163	26.74	0.81	0.750			
0.2197	14060.41	3.9950	3.9951	0.9148	26.74	0.81	0.750			
0.2224	14236.21	3.9920	3.9920	0.9218	26.74	0.81	0.750			
0.2252	14415.09	3.9890	3.9890	0.9278	26.74	0.81	0.750			
0.2280	14590.98	3.9860	3.9860	0.9231	26.74	0.81	0.750			
0.2308	14770.05	3.9830	3.9830	0.9318	26.74	0.81	0.750			
0.2336	14950.89	3.9800	3.9800	0.9271	26.74	0.81	0.750			
0.2364	15128.56	3.9770	3.9771	0.9283	26.75	0.82	0.750			
0.2392	15307.09	3.9740	3.9741	0.9319	26.75	0.82	0.750			
0.2419	15484.69	3.9710	3.9708	0.9297	26.75	0.82	0.750			
0.2447	15662.94	3.9680	3.9680	0.9322	26.75	0.82	0.750			
0.2475	15841.09	3.9650	3.9651	0.9393	26.75	0.82	0.750			
0.2504	16023.38	3.9620	3.9621	0.9473	26.75	0.82	0.750			
0.2532	16206.82	3.9590	3.9589	0.9483	26.75	0.82	0.750			
0.2561	16391.10	3.9560	3.9560	0.9467	26.75	0.82	0.750			
0.2589	16572.13	3.9530	3.9530	0.9490	26.75	0.82	0.750			
0.2618	16754.19	3.9500	3.9501	0.9534	26.76	0.83	0.750			
0.2646	16936.56	3.9470	3.9470	0.9561	26.76	0.83	0.750			
0.2675	17119.10	3.9440	3.9438	0.9570	26.76	0.83	0.750			
0.2704	17304.86	3.9410	3.9410	0.9611	26.76	0.83	0.750			
0.2733	17490.32	3.9380	3.9381	0.9672	26.76	0.83	0.750			
0.2762	17676.21	3.9350	3.9350	0.9700	26.76	0.83	0.750			
0.2791	17862.43	3.9320	3.9319	0.9699	26.76	0.83	0.750			
0.2820	18049.42	3.9290	3.9290	0.9670	26.76	0.83	0.750			
0.2849	18234.53	3.9260	3.9260	0.9741	26.76	0.83	0.750			
0.2878	18421.82	3.9230	3.9231	0.9803	26.76	0.83	0.750			
0.2908	18610.49	3.9200	3.9200	0.9823	26.76	0.83	0.750			
0.2938	18801.75	3.9170	3.9170	0.9765	26.76	0.83	0.750			
0.2967	18988.34	3.9140	3.9141	0.9833	26.76	0.83	0.750			
0.2996	19175.93	3.9110	3.9111	0.9909	26.77	0.84	0.750			
0.3026	19367.29	3.9080	3.9080	0.9971	26.77	0.84	0.750			
0.3056	19559.03	3.9050	3.9050	0.9896	26.77	0.84	0.750			
0.3086	19749.56	3.9020	3.9020	0.9986	26.77	0.84	0.750			
0.3116	19943.34	3.8990	3.8992	1.0066	26.78	0.85	0.750			
0.3147	20137.73	3.8960	3.8960	1.0121	26.78	0.85	0.750			
0.3177	20329.88	3.8930	3.8930	1.0112	26.78	0.85	0.750			
0.3207	20524.98	3.8900	3.8900	1.0152	26.78	0.85	0.750			
0.3238	20720.58	3.8870	3.8871	1.0243	26.78	0.85	0.750			
0.3269	20918.88	3.8840	3.8840	1.0287	26.78	0.85	0.750			
0.3299	21114.69	3.8810	3.8809	1.0372	26.78	0.85	0.750			
0.3330	21315.18	3.8780	3.8780	1.0335	26.78	0.85	0.750			
0.3361	21513.08	3.8750	3.8750	1.0395	26.78	0.85	0.750			
0.3393	21713.02	3.8720	3.8721	1.0481	26.78	0.85	0.750			
0.3425	21916.92	3.8690	3.8686	1.0515	26.78	0.85	0.750			
0.3456	22116.40	3.8660	3.8660	1.0572	26.78	0.85	0.750			
0.3487	22319.89	3.8630	3.8631	1.0692	26.78	0.85	0.750			
0.3520	22525.31	3.8600	3.8601	1.0773	26.78	0.85	0.750			
0.3552	22734.31	3.8570	3.8569	1.0863	26.78	0.85	0.750			
0.3585	22945.43	3.8540	3.8541	1.0934	26.77	0.84	0.750			
0.3618	23156.25	3.8510	3.8510	1.0992	26.77	0.84	0.750			
0.3651	23368.27	3.8480	3.8481	1.1099	26.76	0.83	0.750			
0.3685	23582.18	3.8450	3.8449	1.1080	26.76	0.83	0.750			
0.3718	23792.21	3.8420	3.8420	1.1253	26.75	0.82	0.750			
0.3752	24010.48	3.8390	3.8390	1.1407	26.75	0.82	0.750			
0.3786	24230.67	3.8360	3.8359	1.1615	26.74	0.81	0.750			
0.3821	24455.91	3.8330	3.8331	1.1850	26.74	0.81	0.750			
0.3857	24684.28	3.8300	3.8300	1.2069	26.73	0.80	0.750			
0.3893	24918.26	3.8270	3.8271	1.2279	26.72	0.79	0.750			
0.3931	25157.86	3.8240	3.8240	1.2295	26.72	0.79	0.750			
0.3968	25395.12	3.8210	3.8209	1.2459	26.72	0.79	0.750			
0.4006	25635.58	3.8180	3.8182	1.2707	26.71	0.78	0.750			
0.4044	25883.00	3.8150	3.8147	1.2653	26.71	0.78	0.750			
0.4082	26125.20	3.8120	3.8120	1.2912	26.70	0.77	0.750			
0.4121	26374.51	3.8090	3.8092	1.3121	26.70	0.77	0.750			
0.4160	26626.40	3.8060	3.8059	1.3430	26.69	0.76	0.750			
0.4201	26888.91	3.8030	3.8031	1.3732	26.68	0.75	0.750			
0.4242	27150.73	3.8000	3.8000	1.3921	26.67	0.74	0.750			
0.4285	27422.12	3.7970	3.7970	1.4122	26.66	0.73	0.750			
0.4328	27697.47	3.7940	3.7941	1.4296	26.65	0.72	0.750			
0.4371	27973.82	3.7910	3.7911	1.4580	26.64	0.71	0.750			
0.4415	28255.57	3.7880	3.7878	1.4778	26.62	0.69	0.750			
0.4459	28539.65	3.7850	3.7848	1.4959	26.61	0.68	0.750			
0.4505	28831.94	3.7820	3.7822	1.5242	26.59	0.66	0.750			
0.4552	29130.45	3.7790	3.7791	1.5434	26.58	0.65	0.750			
0.4598	29429.02	3.7760	3.7761	1.5466	26.57	0.64	0.750			
0.4645	29731.14	3.7730	3.7730	1.5474	26.56	0.63	0.750			
0.4691	30023.73	3.7700	3.7700	1.5647	26.55	0.62	0.750			
0.4737	30316.23	3.7670	3.7669	1.5942	26.53	0.60	0.750			
0.4785	30626.74	3.7640	3.7639	1.6212	26.52	0.59	0.750			
0.4835	30944.34	3.7610	3.7611	1.6542	26.50	0.57	0.750	0.385	0.437	
0.4886	31267.46	3.7580	3.7581	1.6926	26.48	0.55	0.750			
0.4938	31600.17	3.7550	3.7551	1.7073	26.45	0.52	0.750			
0.4989	31932.17	3.7520	3.7523	1.7284	26.44	0.51	0.750			
0.5041	32262.67	3.7490	3.7490	1.7495	26.42	0.49	0.750			
0.5092	32591.65	3.7460	3.7461	1.7555	26.41	0.48	0.750			
0.5145	32930.44	3.7430	3.7431	1.7912	26.40	0.47	0.750			
0.5200	33280.03	3.7400	3.7399	1.8329	26.38	0.45	0.750			
0.5255	33630.94	3.7370	3.7370	1.8811	26.36	0.43	0.750			
0.5313	34000.13	3.7340	3.7340	1.9364	26.33	0.40	0.750			
0.5371	34375.68	3.7310	3.7308	1.9806	26.31	0.38	0.750			
0.5431	34759.95	3.7280	3.7280	2.0227	26.29	0.36	0.750			
0.5493	35155.82	3.7250	3.7250	2.0795	26.27	0.34	0.750			
0.5555	35553.01	3.7220	3.7219	2.1294	26.25	0.32	0.750			
0.5621	35971.73	3.7190	3.7191	2.1770	26.23	0.30	0.750			
0.5686	36390.95	3.7160	3.7160	2.2289	26.21	0.28	0.750			
0.5753	36819.40	3.7130	3.7130	2.3088	26.18	0.25	0.750			
0.5824	37271.51	3.7100	3.7098	2.3866	26.16	0.23	0.750			
0.5897	37739.25	3.7070	3.7070	2.4558	26.14	0.21	0.750			
0.5972	38219.55	3.7040	3.7041	2.5250	26.11	0.18	0.750			
0.6048	38708.49	3.7010	3.7010	2.5905	26.09	0.16	0.750			
0.6128	39216.36	3.6980	3.6979	2.6389	26.06	0.13	0.750			
0.6207	39726.03	3.6950	3.6951	2.6757	26.04	0.11	0.750			
0.6287	40238.50	3.6920	3.6921	2.7834	26.01	0.08	0.750			
0.6372	40783.80	3.6890	3.6890	2.8697	26.00	0.07	0.750			
0.6460	41343.49	3.6860	3.6860	2.9802	25.98	0.05	0.750			
0.6552	41934.26	3.6830	3.6832	3.1373	25.95	0.02	0.750			
0.6649	42554.32	3.6800	3.6802	3.2572	25.93	0.00	0.750			
0.6748	43188.03	3.6770	3.6772	3.3669	25.91	-0.02	0.750			
0.6852	43853.31	3.6740	3.6740	3.4632	25.88	-0.05	0.750			
0.6958	44528.11	3.6710	3.6710	3.5119	25.86	-0.07	0.750			
0.7063	45204.93	3.6680	3.6679	3.5452	25.85	-0.08	0.750			
0.7171	45893.67	3.6650	3.6651	3.4252	25.85	-0.08	0.750			
0.7276	46566.23	3.6620	3.6622	3.2493	25.82	-0.11	0.750			
0.7369	47159.91	3.6590	3.6590	2.8857	25.82	-0.11	0.750			
0.7448	47666.62	3.6560	3.6561	2.5494	25.82	-0.11	0.750			
0.7515	48096.19	3.6530	3.6535	2.2134	25.81	-0.12	0.750			
0.7577	48492.14	3.6500	3.6497	1.9761	25.81	-0.12	0.750			
0.7631	48836.87	3.6470	3.6470	1.7690	25.82	-0.11	0.750			
0.7680	49154.64	3.6440	3.6439	1.6180	25.82	-0.11	0.750			
0.7727	49450.94	3.6410	3.6412	1.5084	25.82	-0.11	0.750			
0.7769	49722.97	3.6380	3.6381	1.3943	25.81	-0.12	0.750			
0.7809	49975.94	3.6350	3.6350	1.3166	25.81	-0.12	0.750			
0.7846	50212.80	3.6320	3.6320	1.2650	25.81	-0.12	0.750			
0.7881	50440.12	3.6290	3.6290	1.2431	25.81	-0.12	0.750			
0.7919	50678.41	3.6260	3.6256	1.2514	25.81	-0.12	0.750			
0.7956	50918.14	3.6230	3.6231	1.2583	25.81	-0.12	0.750			
0.7994	51163.39	3.6200	3.6201	1.2697	25.80	-0.13	0.750			
0.8034	51416.25	3.6170	3.6169	1.2693	25.80	-0.13	0.750			
0.8072	51660.64	3.6140	3.6141	1.2666	25.80	-0.13	0.750			
0.8109	51897.90	3.6110	3.6110	1.2508	25.80	-0.13	0.750			
0.8147	52138.58	3.6080	3.6080	1.2447	25.80	-0.13	0.750			
0.8184	52375.85	3.6050	3.6051	1.2268	25.80	-0.13	0.750			
0.8220	52608.00	3.6020	3.6022	1.2220	25.80	-0.13	0.750			
0.8257	52841.66	3.5990	3.5990	1.2303	25.79	-0.14	0.750			
0.8293	53076.89	3.5960	3.5958	1.2410	25.79	-0.14	0.750			
0.8330	53310.91	3.5930	3.5931	1.2626	25.79	-0.14	0.750			
0.8368	53554.76	3.5900	3.5901	1.3052	25.79	-0.14	0.750			
0.8408	53813.23	3.5870	3.5869	1.3378	25.79	-0.14	0.750			
0.8449	54073.85	3.5840	3.5840	1.3835	25.79	-0.14	0.750			
0.8491	54344.64	3.5810	3.5810	1.4003	25.78	-0.15	0.750			
0.8535	54621.10	3.5780	3.5779	1.4326	25.77	-0.16	0.750			
0.8578	54899.03	3.5750	3.5752	1.4679	25.77	-0.16	0.750			
0.8622	55182.32	3.5720	3.5718	1.5035	25.77	-0.16	0.750			
0.8668	55472.61	3.5690	3.5690	1.5263	25.77	-0.16	0.750			
0.8714	55769.08	3.5660	3.5663	1.5450	25.77	-0.16	0.750			
0.8760	56066.68	3.5630	3.5632	1.5637	25.77	-0.16	0.750			
0.8808	56374.08	3.5600	3.5598	1.5888	25.77	-0.16	0.750			
0.8857	56685.39	3.5570	3.5568	1.6264	25.77	-0.16	0.750			
0.8906	56995.84	3.5540	3.5540	1.6023	25.77	-0.16	0.750			
0.8953	57301.15	3.5510	3.5511	1.6078	25.77	-0.16	0.750			
0.9002	57611.11	3.5480	3.5481	1.6194	25.76	-0.17	0.750			
0.9050	57921.26	3.5450	3.5448	1.6682	25.76	-0.17	0.750			
0.9099	58236.42	3.5420	3.5419	1.7197	25.76	-0.17	0.750			
0.9153	58578.46	3.5390	3.5388	1.7540	25.77	-0.16	0.750			
0.9209	58936.90	3.5360	3.5361	1.7372	25.78	-0.15	0.750			
0.9266	59300.93	3.5330	3.5333	1.5783	25.79	-0.14	0.750			
0.9315	59617.73	3.5300	3.5303	1.3836	25.81	-0.12	0.750			
0.9356	59875.35	3.5270	3.5275	1.1394	25.82	-0.11	0.750			
0.9383	60052.76	3.5240	3.5238	0.8645	25.83	-0.10	0.750			
0.9401	60165.82	3.5210	3.5206	0.6154	25.84	-0.09	0.750			
0.9413	60246.24	3.5180	3.5178	0.4806	25.85	-0.08	0.750			
0.9424	60315.82	3.5150	3.5148	0.3943	25.85	-0.08	0.750			
0.9435	60382.55	3.5120	3.5119	0.3569	25.86	-0.07	0.750			
0.9444	60443.04	3.5090	3.5090	0.3262	25.86	-0.07	0.750			
0.9454	60503.75	3.5060	3.5060	0.3118	25.87	-0.06	0.750			
0.9463	60561.98	3.5030	3.5029	0.2998	25.88	-0.05	0.750			
0.9471	60616.89	3.5000	3.5001	0.2890	25.88	-0.05	0.750			
0.9480	60671.40	3.4970	3.4970	0.2819	25.89	-0.04	0.750			
0.9488	60724.92	3.4940	3.4940	0.2749	25.89	-0.04	0.750			
0.9496	60777.18	3.4910	3.4909	0.2669	25.90	-0.03	0.750			
0.9504	60827.52	3.4880	3.4880	0.2591	25.90	-0.03	0.750			
0.9512	60876.99	3.4850	3.4850	0.2532	25.91	-0.02	0.750			
0.9519	60924.42	3.4820	3.4820	0.2466	25.91	-0.02	0.750			
0.9527	60970.78	3.4790	3.4789	0.2419	25.92	-0.01	0.750			
0.9534	61016.55	3.4760	3.4759	0.2361	25.92	-0.01	0.750			
0.9541	61061.13	3.4730	3.4730	0.2318	25.93	-0.00	0.750			
0.9548	61105.36	3.4700	3.4700	0.2282	25.93	0.00	0.750			
0.9555	61149.46	3.4670	3.4670	0.2236	25.94	0.01	0.750			
0.9561	61191.55	3.4640	3.4639	0.2177	25.94	0.01	0.750			
0.9568	61232.72	3.4610	3.4612	0.2130	25.94	0.01	0.750			
0.9574	61273.16	3.4580	3.4580	0.2083	25.95	0.02	0.750			
0.9580	61312.42	3.4550	3.4550	0.2041	25.95	0.02	0.750			
0.9586	61351.88	3.4520	3.4519	0.1982	25.96	0.03	0.750			
0.9592	61389.29	3.4490	3.4490	0.1920	25.96	0.03	0.750			
0.9598	61425.59	3.4460	3.4461	0.1861	25.96	0.03	0.750			
0.9603	61461.50	3.4430	3.4430	0.1786	25.97	0.04	0.750			
0.9609	61495.16	3.4400	3.4398	0.1711	25.97	0.04	0.750			
0.9614	61526.63	3.4370	3.4371	0.1638	25.97	0.04	0.750			
0.9618	61557.43	3.4340	3.4341	0.1571	25.98	0.05	0.750			
0.9623	61586.44	3.4310	3.4308	0.1508	25.98	0.05	0.750			
0.9627	61614.94	3.4280	3.4279	0.1456	25.98	0.05	0.750			
0.9632	61641.90	3.4250	3.4250	0.1395	25.98	0.05	0.750			
0.9636	61668.45	3.4220	3.4221	0.1336	25.99	0.06	0.750			
0.9640	61694.07	3.4190	3.4190	0.1285	25.99	0.06	0.750			
0.9644	61718.62	3.4160	3.4161	0.1212	25.99	0.06	0.750			
0.9647	61741.26	3.4130	3.4130	0.1137	25.99	0.06	0.750			
0.9651	61763.28	3.4100	3.4100	0.1026	26.00	0.07	0.750			
0.9654	61782.67	3.4070	3.4070	0.0936	26.00	0.07	0.750			
0.9656	61800.10	3.4040	3.4040	0.0833	26.00	0.07	0.750			
0.9659	61814.94	3.4010	3.4012	0.0712	26.00	0.07	0.750			
0.9661	61827.98	3.3980	3.3983	0.0589	26.00	0.07	0.750			
0.9662	61838.02	3.3950	3.3956	0.0457	26.00	0.07	0.750			
0.9663	61845.54	3.3920	3.3930	0.0326	26.00	0.07	0.750			
