Ah_balance (normalized)	Ah_balance (mAh)	Voltage - fit (V)	Voltage -  interpolate (V)	dQ/dV (1/V)	Temperature (°C)	Temperature - diff (°C)	Current (C)	R_DC 0ms (mOhm)	R_DC 50ms (mOhm)	R_DC 50 ms PEC (mOhm)
0.0002	13.39	4.1610	4.1606	-0.1289	25.81	0.01	-0.750			
0.0007	41.65	4.1580	4.1582	-0.1670	25.81	0.01	-0.750			
0.0012	77.22	4.1550	4.1550	-0.2059	25.81	0.01	-0.750			
0.0019	122.07	4.1520	4.1518	-0.2428	25.81	0.01	-0.750			
0.0027	172.73	4.1490	4.1490	-0.2763	25.80	0.00	-0.750			
0.0036	229.53	4.1460	4.1460	-0.3114	25.80	0.00	-0.750			
0.0046	292.28	4.1430	4.1431	-0.3436	25.80	0.00	-0.750			
0.0057	361.61	4.1400	4.1400	-0.3774	25.80	-0.00	-0.750			
0.0068	436.71	4.1370	4.1369	-0.4076	25.79	-0.01	-0.750			
0.0081	518.49	4.1340	4.1340	-0.4366	25.79	-0.01	-0.750			
0.0095	606.31	4.1310	4.1310	-0.4672	25.79	-0.01	-0.750			
0.0109	698.98	4.1280	4.1281	-0.4912	25.78	-0.02	-0.750			
0.0124	796.52	4.1250	4.1249	-0.5148	25.78	-0.02	-0.750			
0.0140	898.53	4.1220	4.1220	-0.5336	25.78	-0.02	-0.750			
0.0157	1002.42	4.1190	4.1191	-0.5508	25.77	-0.03	-0.750			
0.0174	1111.98	4.1160	4.1159	-0.5651	25.77	-0.03	-0.750			
0.0191	1221.58	4.1130	4.1130	-0.5780	25.77	-0.03	-0.750			
0.0209	1334.54	4.1100	4.1099	-0.5864	25.76	-0.04	-0.750			
0.0226	1446.98	4.1070	4.1071	-0.5994	25.76	-0.04	-0.750			
0.0244	1563.62	4.1040	4.1039	-0.6075	25.76	-0.04	-0.750			
0.0263	1681.43	4.1010	4.1011	-0.6166	25.76	-0.04	-0.750			
0.0281	1800.55	4.0980	4.0978	-0.6256	25.75	-0.05	-0.750			
0.0300	1922.49	4.0950	4.0953	-0.6329	25.75	-0.05	-0.750			
0.0320	2044.91	4.0920	4.0919	-0.6360	25.75	-0.05	-0.750			
0.0339	2167.84	4.0890	4.0890	-0.6443	25.75	-0.05	-0.750			
0.0358	2289.57	4.0860	4.0860	-0.6518	25.75	-0.05	-0.750			
0.0378	2417.24	4.0830	4.0829	-0.6657	25.74	-0.06	-0.750			
0.0398	2546.84	4.0800	4.0800	-0.6724	25.74	-0.06	-0.750			
0.0418	2677.21	4.0770	4.0771	-0.6780	25.74	-0.06	-0.750			
0.0439	2809.06	4.0740	4.0741	-0.6815	25.74	-0.06	-0.750			
0.0459	2940.68	4.0710	4.0710	-0.6872	25.73	-0.07	-0.750			
0.0480	3072.14	4.0680	4.0680	-0.6874	25.73	-0.07	-0.750			
0.0500	3203.10	4.0650	4.0649	-0.6882	25.73	-0.07	-0.750			
0.0521	3336.80	4.0620	4.0620	-0.6924	25.72	-0.08	-0.750			
0.0542	3470.24	4.0590	4.0590	-0.6950	25.72	-0.08	-0.750			
0.0563	3604.71	4.0560	4.0559	-0.6980	25.72	-0.08	-0.750			
0.0584	3738.70	4.0530	4.0530	-0.6987	25.72	-0.08	-0.750			
0.0605	3871.59	4.0500	4.0500	-0.7029	25.72	-0.08	-0.750			
0.0626	4008.07	4.0470	4.0470	-0.7071	25.72	-0.08	-0.750			
0.0648	4146.43	4.0440	4.0439	-0.7035	25.72	-0.08	-0.750			
0.0669	4281.11	4.0410	4.0413	-0.7039	25.72	-0.08	-0.750			
0.0690	4415.36	4.0380	4.0380	-0.7038	25.72	-0.08	-0.750			
0.0711	4549.24	4.0350	4.0350	-0.7070	25.72	-0.08	-0.750			
0.0732	4683.33	4.0320	4.0319	-0.7126	25.72	-0.08	-0.750			
0.0754	4824.01	4.0290	4.0288	-0.7176	25.72	-0.08	-0.750			
0.0775	4961.72	4.0260	4.0260	-0.7205	25.72	-0.08	-0.750			
0.0797	5100.95	4.0230	4.0233	-0.7235	25.72	-0.08	-0.750			
0.0819	5239.54	4.0200	4.0199	-0.7239	25.72	-0.08	-0.750			
0.0840	5378.58	4.0170	4.0169	-0.7280	25.72	-0.08	-0.750			
0.0862	5517.17	4.0140	4.0140	-0.7238	25.73	-0.07	-0.750			
0.0884	5658.02	4.0110	4.0110	-0.7322	25.73	-0.07	-0.750			
0.0906	5799.39	4.0080	4.0080	-0.7327	25.73	-0.07	-0.750			
0.0928	5939.04	4.0050	4.0051	-0.7300	25.73	-0.07	-0.750			
0.0950	6079.41	4.0020	4.0019	-0.7316	25.73	-0.07	-0.750			
0.0972	6218.96	3.9990	3.9990	-0.7342	25.73	-0.07	-0.750			
0.0994	6360.85	3.9960	3.9960	-0.7356	25.74	-0.06	-0.750			
0.1016	6503.64	3.9930	3.9930	-0.7380	25.74	-0.06	-0.750			
0.1038	6645.16	3.9900	3.9898	-0.7392	25.74	-0.06	-0.750			
0.1060	6786.46	3.9870	3.9869	-0.7426	25.74	-0.06	-0.750			
0.1083	6929.45	3.9840	3.9839	-0.7432	25.74	-0.06	-0.750			
0.1105	7071.09	3.9810	3.9810	-0.7494	25.74	-0.06	-0.750			
0.1127	7215.89	3.9780	3.9780	-0.7461	25.75	-0.05	-0.750			
0.1150	7362.87	3.9750	3.9749	-0.7538	25.75	-0.05	-0.750			
0.1173	7506.56	3.9720	3.9722	-0.7541	25.75	-0.05	-0.750			
0.1195	7650.35	3.9690	3.9690	-0.7518	25.75	-0.05	-0.750			
0.1218	7794.26	3.9660	3.9659	-0.7541	25.76	-0.04	-0.750			
0.1240	7938.78	3.9630	3.9629	-0.7567	25.76	-0.04	-0.750			
0.1263	8085.10	3.9600	3.9601	-0.7609	25.76	-0.04	-0.750			
0.1286	8232.17	3.9570	3.9569	-0.7671	25.77	-0.03	-0.750			
0.1309	8379.37	3.9540	3.9540	-0.7710	25.77	-0.03	-0.750			
0.1332	8527.79	3.9510	3.9510	-0.7739	25.78	-0.02	-0.750			
0.1356	8677.28	3.9480	3.9480	-0.7741	25.78	-0.02	-0.750			
0.1379	8826.26	3.9450	3.9450	-0.7718	25.78	-0.02	-0.750			
0.1402	8974.77	3.9420	3.9420	-0.7727	25.79	-0.01	-0.750			
0.1425	9122.09	3.9390	3.9391	-0.7739	25.79	-0.01	-0.750			
0.1448	9269.56	3.9360	3.9360	-0.7741	25.79	-0.01	-0.750			
0.1472	9418.12	3.9330	3.9330	-0.7816	25.79	-0.01	-0.750			
0.1495	9570.14	3.9300	3.9299	-0.7849	25.80	-0.00	-0.750			
0.1519	9723.34	3.9270	3.9270	-0.7868	25.80	-0.00	-0.750			
0.1543	9874.53	3.9240	3.9243	-0.7841	25.80	-0.00	-0.750			
0.1566	10024.02	3.9210	3.9209	-0.7870	25.80	0.00	-0.750			
0.1590	10174.49	3.9180	3.9180	-0.7900	25.81	0.01	-0.750			
0.1613	10324.29	3.9150	3.9149	-0.7906	25.81	0.01	-0.750			
0.1637	10476.19	3.9120	3.9121	-0.7912	25.81	0.01	-0.750			
0.1661	10632.26	3.9090	3.9090	-0.7980	25.82	0.02	-0.750			
0.1685	10785.76	3.9060	3.9060	-0.7959	25.82	0.02	-0.750			
0.1709	10937.69	3.9030	3.9030	-0.7986	25.83	0.03	-0.750			
0.1733	11090.37	3.9000	3.9000	-0.7981	25.83	0.03	-0.750			
0.1757	11243.23	3.8970	3.8970	-0.8014	25.83	0.03	-0.750			
0.1781	11398.00	3.8940	3.8940	-0.8057	25.84	0.04	-0.750			
0.1805	11554.75	3.8910	3.8910	-0.8085	25.84	0.04	-0.750			
0.1830	11709.70	3.8880	3.8879	-0.8053	25.85	0.05	-0.750			
0.1854	11864.45	3.8850	3.8850	-0.8128	25.85	0.05	-0.750			
0.1878	12021.49	3.8820	3.8820	-0.8079	25.85	0.05	-0.750			
0.1903	12176.62	3.8790	3.8789	-0.8074	25.86	0.06	-0.750			
0.1927	12330.01	3.8760	3.8762	-0.8081	25.86	0.06	-0.750			
0.1951	12485.73	3.8730	3.8729	-0.8086	25.86	0.06	-0.750			
0.1975	12640.81	3.8700	3.8699	-0.8127	25.86	0.06	-0.750			
0.2000	12797.14	3.8670	3.8670	-0.8125	25.87	0.07	-0.750			
0.2024	12953.76	3.8640	3.8640	-0.8158	25.87	0.07	-0.750			
0.2049	13111.85	3.8610	3.8610	-0.8175	25.87	0.07	-0.750			
0.2073	13268.49	3.8580	3.8580	-0.8139	25.87	0.07	-0.750			
0.2097	13423.98	3.8550	3.8550	-0.8160	25.88	0.08	-0.750			
0.2122	13580.66	3.8520	3.8520	-0.8170	25.88	0.08	-0.750			
0.2146	13737.29	3.8490	3.8490	-0.8159	25.89	0.09	-0.750			
0.2171	13894.76	3.8460	3.8461	-0.8137	25.89	0.09	-0.750			
0.2195	14051.18	3.8430	3.8430	-0.8140	25.89	0.09	-0.750			
0.2220	14206.90	3.8400	3.8400	-0.8170	25.90	0.10	-0.750			
0.2244	14363.77	3.8370	3.8369	-0.8146	25.90	0.10	-0.750			
0.2269	14519.68	3.8340	3.8340	-0.8145	25.91	0.11	-0.750			
0.2293	14676.46	3.8310	3.8311	-0.8154	25.91	0.11	-0.750			
0.2318	14835.58	3.8280	3.8280	-0.8123	25.91	0.11	-0.750			
0.2342	14990.73	3.8250	3.8250	-0.8100	25.92	0.12	-0.750			
0.2366	15144.46	3.8220	3.8220	-0.8058	25.92	0.12	-0.750			
0.2390	15297.61	3.8190	3.8191	-0.8026	25.93	0.13	-0.750			
0.2415	15453.25	3.8160	3.8159	-0.8013	25.93	0.13	-0.750			
0.2438	15606.30	3.8130	3.8129	-0.7967	25.93	0.13	-0.750			
0.2462	15758.90	3.8100	3.8101	-0.8013	25.94	0.14	-0.750			
0.2487	15914.49	3.8070	3.8070	-0.7983	25.94	0.14	-0.750			
0.2510	16067.09	3.8040	3.8039	-0.7934	25.94	0.14	-0.750			
0.2534	16219.49	3.8010	3.8010	-0.7919	25.95	0.15	-0.750			
0.2558	16371.55	3.7980	3.7979	-0.7904	25.95	0.15	-0.750			
0.2582	16522.89	3.7950	3.7949	-0.7898	25.96	0.16	-0.750			
0.2605	16673.68	3.7920	3.7919	-0.7821	25.96	0.16	-0.750			
0.2628	16821.36	3.7890	3.7891	-0.7720	25.96	0.16	-0.750			
0.2652	16973.85	3.7860	3.7859	-0.7754	25.97	0.17	-0.750			
0.2675	17121.25	3.7830	3.7832	-0.7695	25.97	0.17	-0.750			
0.2698	17267.74	3.7800	3.7799	-0.7684	25.97	0.17	-0.750			
0.2721	17413.92	3.7770	3.7770	-0.7673	25.98	0.18	-0.750			
0.2744	17561.76	3.7740	3.7740	-0.7661	25.98	0.18	-0.750			
0.2767	17710.09	3.7710	3.7709	-0.7673	25.99	0.19	-0.750			
0.2790	17857.53	3.7680	3.7679	-0.7621	25.99	0.19	-0.750			
0.2813	18002.93	3.7650	3.7650	-0.7583	25.99	0.19	-0.750			
0.2835	18146.58	3.7620	3.7620	-0.7586	26.00	0.20	-0.750			
0.2858	18290.47	3.7590	3.7590	-0.7579	26.00	0.20	-0.750			
0.2881	18436.73	3.7560	3.7559	-0.7606	26.00	0.20	-0.750			
0.2904	18582.93	3.7530	3.7530	-0.7672	26.01	0.21	-0.750			
0.2927	18731.24	3.7500	3.7501	-0.7675	26.01	0.21	-0.750			
0.2950	18881.20	3.7470	3.7470	-0.7699	26.01	0.21	-0.750			
0.2973	19028.05	3.7440	3.7440	-0.7736	26.02	0.22	-0.750			
0.2996	19173.92	3.7410	3.7410	-0.7746	26.02	0.22	-0.750			
0.3019	19323.18	3.7380	3.7380	-0.7884	26.03	0.23	-0.750			
0.3043	19475.00	3.7350	3.7350	-0.8027	26.03	0.23	-0.750			
0.3067	19630.08	3.7320	3.7319	-0.8124	26.03	0.23	-0.750			
0.3092	19788.80	3.7290	3.7291	-0.8274	26.04	0.24	-0.750			
0.3117	19950.38	3.7260	3.7260	-0.8375	26.04	0.24	-0.750			
0.3142	20110.37	3.7230	3.7230	-0.8494	26.05	0.25	-0.750			
0.3168	20274.75	3.7200	3.7200	-0.8593	26.05	0.25	-0.750			
0.3194	20438.90	3.7170	3.7170	-0.8748	26.05	0.25	-0.750			
0.3220	20607.82	3.7140	3.7140	-0.8903	26.04	0.24	-0.750			
0.3247	20781.40	3.7110	3.7110	-0.9072	26.04	0.24	-0.750			
0.3275	20957.33	3.7080	3.7079	-0.9217	26.03	0.23	-0.750			
0.3303	21137.13	3.7050	3.7051	-0.9371	26.03	0.23	-0.750			
0.3331	21317.64	3.7020	3.7020	-0.9495	26.03	0.23	-0.750			
0.3360	21502.91	3.6990	3.6990	-0.9633	26.04	0.24	-0.750			
0.3389	21686.91	3.6960	3.6960	-0.9758	26.04	0.24	-0.750			
0.3418	21874.07	3.6930	3.6931	-0.9939	26.04	0.24	-0.750			
0.3448	22067.32	3.6900	3.6900	-1.0046	26.04	0.24	-0.750			
0.3478	22261.74	3.6870	3.6868	-1.0191	26.04	0.24	-0.750			
0.3509	22457.47	3.6840	3.6842	-1.0370	26.03	0.23	-0.750			
0.3540	22656.52	3.6810	3.6807	-1.0621	26.03	0.23	-0.750			
0.3572	22863.88	3.6780	3.6779	-1.0863	26.03	0.23	-0.750			
0.3605	23074.01	3.6750	3.6749	-1.1105	26.03	0.23	-0.750			
0.3639	23288.26	3.6720	3.6720	-1.1359	26.03	0.23	-0.750			
0.3674	23511.36	3.6690	3.6691	-1.1777	26.03	0.23	-0.750			
0.3709	23738.42	3.6660	3.6659	-1.1992	26.02	0.22	-0.750			
0.3746	23972.59	3.6630	3.6630	-1.2210	26.02	0.22	-0.750			
0.3782	24206.39	3.6600	3.6600	-1.2473	26.01	0.21	-0.750			
0.3821	24453.85	3.6570	3.6570	-1.2775	26.01	0.21	-0.750			
0.3859	24698.44	3.6540	3.6540	-1.2989	26.00	0.20	-0.750			
0.3898	24948.44	3.6510	3.6509	-1.3216	25.99	0.19	-0.750			
0.3938	25201.09	3.6480	3.6481	-1.3500	25.99	0.19	-0.750			
0.3979	25467.02	3.6450	3.6449	-1.3755	25.99	0.19	-0.750			
0.4020	25730.74	3.6420	3.6420	-1.4224	25.98	0.18	-0.750			
0.4064	26011.74	3.6390	3.6389	-1.4357	25.98	0.18	-0.750			
0.4108	26290.31	3.6360	3.6361	-1.4763	25.98	0.18	-0.750			
0.4152	26574.73	3.6330	3.6332	-1.5129	25.97	0.17	-0.750			
0.4199	26872.83	3.6300	3.6298	-1.5420	25.97	0.17	-0.750			
0.4245	27169.19	3.6270	3.6270	-1.5831	25.96	0.16	-0.750			
0.4293	27477.91	3.6240	3.6242	-1.6099	25.95	0.15	-0.750			
0.4342	27786.68	3.6210	3.6210	-1.6417	25.94	0.14	-0.750			
0.4392	28108.21	3.6180	3.6178	-1.6766	25.93	0.13	-0.750	0.384	0.524	
0.4442	28427.66	3.6150	3.6147	-1.6884	25.93	0.13	-0.750			
0.4494	28758.44	3.6120	3.6119	-1.7170	25.93	0.13	-0.750			
0.4545	29090.99	3.6090	3.6091	-1.7300	25.93	0.13	-0.750			
0.4597	29422.63	3.6060	3.6059	-1.7647	25.92	0.12	-0.750			
0.4650	29762.17	3.6030	3.6030	-1.7914	25.91	0.11	-0.750			
0.4705	30111.51	3.6000	3.5998	-1.8343	25.91	0.11	-0.750			
0.4761	30473.16	3.5970	3.5972	-1.8393	25.91	0.11	-0.750			
0.4817	30827.10	3.5940	3.5941	-1.8669	25.91	0.11	-0.750			
0.4873	31187.47	3.5910	3.5911	-1.8992	25.90	0.10	-0.750			
0.4929	31545.31	3.5880	3.5881	-1.9391	25.89	0.09	-0.750			
0.4987	31919.94	3.5850	3.5851	-1.9850	25.90	0.10	-0.750			
0.5048	32308.49	3.5820	3.5822	-2.0336	25.90	0.10	-0.750			
0.5111	32710.36	3.5790	3.5791	-2.0933	25.89	0.09	-0.750			
0.5176	33124.52	3.5760	3.5759	-2.1382	25.89	0.09	-0.750			
0.5240	33537.76	3.5730	3.5731	-2.1550	25.88	0.08	-0.750			
0.5306	33959.34	3.5700	3.5701	-2.1778	25.87	0.07	-0.750			
0.5371	34371.75	3.5670	3.5670	-2.1859	25.87	0.07	-0.750			
0.5437	34799.42	3.5640	3.5640	-2.1870	25.87	0.07	-0.750			
0.5503	35219.71	3.5610	3.5611	-2.1972	25.88	0.08	-0.750			
0.5568	35634.19	3.5580	3.5580	-2.2036	25.88	0.08	-0.750			
0.5635	36061.48	3.5550	3.5547	-2.2111	25.89	0.09	-0.750			
0.5702	36490.71	3.5520	3.5520	-2.2115	25.89	0.09	-0.750			
0.5768	36915.43	3.5490	3.5492	-2.2124	25.88	0.08	-0.750			
0.5835	37341.25	3.5460	3.5460	-2.2171	25.88	0.08	-0.750			
0.5901	37769.37	3.5430	3.5431	-2.2005	25.89	0.09	-0.750			
0.5968	38198.01	3.5400	3.5398	-2.1623	25.89	0.09	-0.750			
0.6033	38611.14	3.5370	3.5371	-2.1393	25.90	0.10	-0.750			
0.6097	39019.64	3.5340	3.5340	-2.1072	25.90	0.10	-0.750			
0.6159	39417.28	3.5310	3.5309	-2.0596	25.91	0.11	-0.750			
0.6220	39809.95	3.5280	3.5280	-2.0243	25.91	0.11	-0.750			
0.6280	40191.97	3.5250	3.5250	-1.9911	25.92	0.12	-0.750			
0.6340	40574.75	3.5220	3.5220	-1.9496	25.92	0.12	-0.750			
0.6399	40953.05	3.5190	3.5189	-1.9108	25.93	0.13	-0.750			
0.6455	41310.59	3.5160	3.5161	-1.8551	25.94	0.14	-0.750			
0.6510	41661.96	3.5130	3.5128	-1.8151	25.94	0.14	-0.750			
0.6563	42005.61	3.5100	3.5101	-1.7661	25.96	0.16	-0.750			
0.6616	42341.09	3.5070	3.5069	-1.7055	25.97	0.17	-0.750			
0.6667	42667.38	3.5040	3.5039	-1.6490	25.99	0.19	-0.750			
0.6715	42978.12	3.5010	3.5010	-1.5808	26.00	0.20	-0.750			
0.6762	43276.72	3.4980	3.4982	-1.5203	26.01	0.21	-0.750			
0.6807	43561.61	3.4950	3.4950	-1.4794	26.02	0.22	-0.750			
0.6849	43835.95	3.4920	3.4920	-1.4224	26.03	0.23	-0.750			
0.6892	44109.44	3.4890	3.4888	-1.3956	26.04	0.24	-0.750			
0.6934	44374.41	3.4860	3.4861	-1.3587	26.06	0.26	-0.750			
0.6974	44632.82	3.4830	3.4830	-1.3193	26.08	0.28	-0.750			
0.7013	44881.69	3.4800	3.4799	-1.2707	26.09	0.29	-0.750			
0.7049	45115.71	3.4770	3.4772	-1.2193	26.11	0.31	-0.750			
0.7086	45352.82	3.4740	3.4740	-1.1949	26.12	0.32	-0.750			
0.7122	45577.83	3.4710	3.4709	-1.1525	26.13	0.33	-0.750			
0.7155	45794.28	3.4680	3.4680	-1.1126	26.15	0.35	-0.750			
0.7188	46002.03	3.4650	3.4650	-1.0823	26.16	0.36	-0.750			
0.7220	46207.14	3.4620	3.4620	-1.0434	26.17	0.37	-0.750			
0.7251	46404.87	3.4590	3.4589	-1.0115	26.18	0.38	-0.750			
0.7280	46595.18	3.4560	3.4560	-0.9755	26.19	0.39	-0.750			
0.7309	46780.33	3.4530	3.4530	-0.9425	26.20	0.40	-0.750			
0.7337	46955.27	3.4500	3.4500	-0.9243	26.21	0.41	-0.750			
0.7364	47128.75	3.4470	3.4470	-0.9040	26.22	0.42	-0.750			
0.7390	47296.91	3.4440	3.4439	-0.8850	26.24	0.44	-0.750			
0.7417	47468.14	3.4410	3.4411	-0.8803	26.25	0.45	-0.750			
0.7443	47633.20	3.4380	3.4381	-0.8778	26.26	0.46	-0.750			
0.7469	47802.84	3.4350	3.4350	-0.8767	26.27	0.47	-0.750			
0.7495	47969.57	3.4320	3.4319	-0.8786	26.27	0.47	-0.750			
0.7521	48135.90	3.4290	3.4290	-0.8813	26.28	0.48	-0.750			
0.7547	48303.44	3.4260	3.4265	-0.9034	26.29	0.49	-0.750			
0.7575	48478.70	3.4230	3.4229	-0.9293	26.30	0.50	-0.750			
0.7603	48660.82	3.4200	3.4199	-0.9484	26.30	0.50	-0.750			
0.7632	48846.52	3.4170	3.4169	-0.9566	26.31	0.51	-0.750			
0.7662	49035.60	3.4140	3.4142	-0.9722	26.32	0.52	-0.750			
0.7691	49223.15	3.4110	3.4110	-0.9741	26.32	0.52	-0.750			
0.7721	49413.38	3.4080	3.4077	-0.9625	26.33	0.53	-0.750			
0.7749	49595.96	3.4050	3.4051	-0.9433	26.34	0.54	-0.750			
0.7777	49775.49	3.4020	3.4021	-0.9209	26.35	0.55	-0.750			
0.7806	49955.72	3.3990	3.3990	-0.9035	26.35	0.55	-0.750			
0.7832	50125.38	3.3960	3.3959	-0.8794	26.36	0.56	-0.750			
0.7858	50289.70	3.3930	3.3930	-0.8441	26.37	0.57	-0.750			
0.7883	50448.74	3.3900	3.3900	-0.8165	26.38	0.58	-0.750			
0.7907	50604.37	3.3870	3.3869	-0.7926	26.39	0.59	-0.750			
0.7930	50752.57	3.3840	3.3840	-0.7630	26.39	0.59	-0.750			
0.7953	50896.52	3.3810	3.3809	-0.7361	26.40	0.60	-0.750			
0.7974	51034.81	3.3780	3.3780	-0.7096	26.40	0.60	-0.750			
0.7995	51166.92	3.3750	3.3750	-0.6821	26.41	0.61	-0.750			
0.8015	51297.80	3.3720	3.3719	-0.6621	26.41	0.61	-0.750			
0.8035	51421.57	3.3690	3.3690	-0.6371	26.42	0.62	-0.750			
0.8053	51541.50	3.3660	3.3660	-0.6142	26.42	0.62	-0.750			
0.8071	51657.50	3.3630	3.3630	-0.5894	26.43	0.63	-0.750			
0.8089	51769.02	3.3600	3.3600	-0.5656	26.43	0.63	-0.750			
0.8105	51874.25	3.3570	3.3570	-0.5425	26.44	0.64	-0.750			
0.8121	51975.25	3.3540	3.3540	-0.5262	26.44	0.64	-0.750			
0.8137	52073.74	3.3510	3.3510	-0.5093	26.45	0.65	-0.750			
0.8152	52170.06	3.3480	3.3479	-0.4916	26.45	0.65	-0.750			
0.8166	52263.48	3.3450	3.3449	-0.4782	26.46	0.66	-0.750			
0.8180	52354.97	3.3420	3.3420	-0.4633	26.46	0.66	-0.750			
0.8194	52442.06	3.3390	3.3390	-0.4475	26.47	0.67	-0.750			
0.8207	52525.19	3.3360	3.3360	-0.4301	26.48	0.68	-0.750			
0.8220	52605.90	3.3330	3.3331	-0.4141	26.48	0.68	-0.750			
0.8232	52684.69	3.3300	3.3299	-0.3997	26.49	0.69	-0.750			
0.8244	52760.05	3.3270	3.3269	-0.3871	26.49	0.69	-0.750			
0.8255	52831.45	3.3240	3.3243	-0.3763	26.50	0.70	-0.750			
0.8266	52903.17	3.3210	3.3209	-0.3653	26.51	0.71	-0.750			
0.8277	52972.18	3.3180	3.3179	-0.3527	26.51	0.71	-0.750			
0.8287	53039.15	3.3150	3.3150	-0.3443	26.52	0.72	-0.750			
0.8298	53104.44	3.3120	3.3122	-0.3347	26.52	0.72	-0.750			
0.8307	53167.72	3.3090	3.3088	-0.3234	26.53	0.73	-0.750			
0.8317	53227.65	3.3060	3.3061	-0.3130	26.53	0.73	-0.750			
0.8326	53286.52	3.3030	3.3029	-0.3048	26.53	0.73	-0.750			
0.8335	53344.99	3.3000	3.3000	-0.2998	26.54	0.74	-0.750			
0.8344	53401.62	3.2970	3.2970	-0.2916	26.54	0.74	-0.750			
0.8353	53456.57	3.2940	3.2940	-0.2843	26.55	0.75	-0.750			
0.8361	53510.88	3.2910	3.2910	-0.2789	26.55	0.75	-0.750			
0.8369	53563.54	3.2880	3.2880	-0.2729	26.56	0.76	-0.750			
0.8377	53615.15	3.2850	3.2851	-0.2658	26.56	0.76	-0.750			
0.8385	53665.77	3.2820	3.2819	-0.2600	26.56	0.76	-0.750			
0.8393	53714.79	3.2790	3.2789	-0.2553	26.57	0.77	-0.750			
0.8401	53763.27	3.2760	3.2761	-0.2495	26.57	0.77	-0.750			
0.8408	53810.19	3.2730	3.2730	-0.2447	26.57	0.77	-0.750			
0.8415	53857.32	3.2700	3.2699	-0.2413	26.58	0.78	-0.750			
0.8422	53902.70	3.2670	3.2670	-0.2368	26.58	0.78	-0.750			
0.8429	53947.56	3.2640	3.2641	-0.2333	26.59	0.79	-0.750			
0.8436	53992.30	3.2610	3.2610	-0.2309	26.59	0.79	-0.750			
0.8443	54036.16	3.2580	3.2579	-0.2262	26.60	0.80	-0.750			
0.8450	54079.97	3.2550	3.2550	-0.2229	26.60	0.80	-0.750			
0.8457	54121.87	3.2520	3.2520	-0.2186	26.61	0.81	-0.750			
0.8463	54163.45	3.2490	3.2491	-0.2146	26.61	0.81	-0.750			
0.8469	54204.38	3.2460	3.2460	-0.2107	26.61	0.81	-0.750			
0.8476	54244.12	3.2430	3.2429	-0.2065	26.62	0.82	-0.750			
0.8482	54283.17	3.2400	3.2400	-0.2027	26.62	0.82	-0.750			
0.8488	54321.83	3.2370	3.2370	-0.1999	26.63	0.83	-0.750			
0.8494	54359.93	3.2340	3.2340	-0.1983	26.63	0.83	-0.750			
0.8500	54397.72	3.2310	3.2309	-0.1960	26.64	0.84	-0.750			
0.8505	54434.92	3.2280	3.2279	-0.1928	26.64	0.84	-0.750			
0.8511	54471.77	3.2250	3.2251	-0.1910	26.65	0.85	-0.750			
0.8517	54508.54	3.2220	3.2221	-0.1890	26.65	0.85	-0.750			
0.8523	54544.68	3.2190	3.2190	-0.1870	26.65	0.85	-0.750			
0.8528	54580.29	3.2160	3.2160	-0.1848	26.66	0.86	-0.750			
0.8534	54615.78	3.2130	3.2129	-0.1817	26.66	0.86	-0.750			
0.8539	54650.29	3.2100	3.2100	-0.1787	26.67	0.87	-0.750			
0.8544	54684.29	3.2070	3.2070	-0.1771	26.67	0.87	-0.750			
0.8550	54718.08	3.2040	3.2041	-0.1749	26.67	0.87	-0.750			
0.8555	54751.51	3.2010	3.2010	-0.1723	26.68	0.88	-0.750			
0.8560	54784.32	3.1980	3.1978	-0.1698	26.68	0.88	-0.750			
0.8565	54816.41	3.1950	3.1951	-0.1681	26.69	0.89	-0.750			
0.8570	54848.14	3.1920	3.1921	-0.1672	26.70	0.90	-0.750			
0.8575	54880.29	3.1890	3.1890	-0.1668	26.70	0.90	-0.750			
0.8580	54912.24	3.1860	3.1858	-0.1662	26.71	0.91	-0.750			
0.8585	54944.00	3.1830	3.1829	-0.1636	26.71	0.91	-0.750			
0.8590	54975.71	3.1800	3.1801	-0.1626	26.72	0.92	-0.750			
0.8595	55007.27	3.1770	3.1770	-0.1614	26.72	0.92	-0.750			
0.8600	55037.81	3.1740	3.1741	-0.1590	26.73	0.93	-0.750			
0.8604	55067.94	3.1710	3.1709	-0.1565	26.73	0.93	-0.750			
0.8609	55097.36	3.1680	3.1681	-0.1539	26.74	0.94	-0.750			
0.8614	55126.77	3.1650	3.1649	-0.1524	26.74	0.94	-0.750			
0.8618	55155.73	3.1620	3.1621	-0.1514	26.75	0.95	-0.750			
0.8623	55184.86	3.1590	3.1590	-0.1508	26.75	0.95	-0.750			
0.8627	55213.72	3.1560	3.1560	-0.1488	26.75	0.95	-0.750			
0.8632	55242.20	3.1530	3.1529	-0.1474	26.76	0.96	-0.750			
0.8636	55270.42	3.1500	3.1501	-0.1460	26.76	0.96	-0.750			
0.8640	55298.40	3.1470	3.1471	-0.1450	26.77	0.97	-0.750			
0.8645	55325.97	3.1440	3.1441	-0.1436	26.77	0.97	-0.750			
0.8649	55353.15	3.1410	3.1409	-0.1431	26.78	0.98	-0.750			
0.8653	55380.22	3.1380	3.1380	-0.1422	26.78	0.98	-0.750			
0.8657	55407.76	3.1350	3.1350	-0.1402	26.79	0.99	-0.750			
0.8662	55434.68	3.1320	3.1320	-0.1400	26.79	0.99	-0.750			
0.8666	55461.49	3.1290	3.1290	-0.1389	26.79	0.99	-0.750			
0.8670	55488.06	3.1260	3.1262	-0.1373	26.80	1.00	-0.750			
0.8674	55514.38	3.1230	3.1228	-0.1356	26.80	1.00	-0.750			
0.8678	55540.06	3.1200	3.1199	-0.1343	26.81	1.01	-0.750			
0.8682	55565.73	3.1170	3.1172	-0.1330	26.82	1.02	-0.750			
0.8686	55590.77	3.1140	3.1141	-0.1320	26.82	1.02	-0.750			
0.8690	55616.39	3.1110	3.1109	-0.1319	26.83	1.03	-0.750			
0.8694	55641.41	3.1080	3.1079	-0.1298	26.83	1.03	-0.750			
0.8698	55666.28	3.1050	3.1050	-0.1292	26.84	1.04	-0.750			
0.8702	55691.25	3.1020	3.1020	-0.1285	26.85	1.05	-0.750			
0.8706	55715.84	3.0990	3.0990	-0.1280	26.85	1.05	-0.750			
0.8709	55740.10	3.0960	3.0960	-0.1266	26.86	1.06	-0.750			
0.8713	55764.43	3.0930	3.0929	-0.1255	26.86	1.06	-0.750			
0.8717	55788.20	3.0900	3.0900	-0.1250	26.87	1.07	-0.750			
0.8721	55812.08	3.0870	3.0870	-0.1245	26.87	1.07	-0.750			
0.8724	55836.30	3.0840	3.0841	-0.1240	26.88	1.08	-0.750			
0.8728	55860.02	3.0810	3.0811	-0.1230	26.89	1.09	-0.750			
0.8732	55883.52	3.0780	3.0778	-0.1221	26.89	1.09	-0.750			
0.8735	55906.82	3.0750	3.0750	-0.1210	26.90	1.10	-0.750			
0.8739	55929.98	3.0720	3.0720	-0.1201	26.90	1.10	-0.750			
0.8743	55953.18	3.0690	3.0689	-0.1194	26.91	1.11	-0.750			
0.8746	55975.90	3.0660	3.0661	-0.1185	26.91	1.11	-0.750			
0.8750	55998.18	3.0630	3.0629	-0.1171	26.92	1.12	-0.750			
0.8753	56020.50	3.0600	3.0601	-0.1171	26.92	1.12	-0.750			
0.8757	56043.00	3.0570	3.0570	-0.1170	26.93	1.13	-0.750			
0.8760	56065.59	3.0540	3.0539	-0.1160	26.93	1.13	-0.750			
0.8764	56087.78	3.0510	3.0509	-0.1154	26.94	1.14	-0.750			
0.8767	56109.98	3.0480	3.0481	-0.1142	26.94	1.14	-0.750			
0.8771	56132.08	3.0450	3.0450	-0.1135	26.95	1.15	-0.750			
0.8774	56153.58	3.0420	3.0421	-0.1130	26.95	1.15	-0.750			
0.8777	56175.23	3.0390	3.0389	-0.1122	26.95	1.15	-0.750			
0.8781	56196.61	3.0360	3.0359	-0.1116	26.96	1.16	-0.750			
0.8784	56217.56	3.0330	3.0330	-0.1106	26.96	1.16	-0.750			
0.8787	56238.91	3.0300	3.0300	-0.1100	26.97	1.17	-0.750			
0.8791	56260.16	3.0270	3.0270	-0.1099	26.97	1.17	-0.750			
0.8794	56281.29	3.0240	3.0240	-0.1089	26.98	1.18	-0.750			
0.8797	56302.38	3.0210	3.0209	-0.1084	26.98	1.18	-0.750			
0.8800	56322.97	3.0180	3.0179	-0.1075	26.99	1.19	-0.750			
0.8804	56343.40	3.0150	3.0150	-0.1064	26.99	1.19	-0.750			
0.8807	56363.75	3.0120	3.0121	-0.1056	27.00	1.20	-0.750			
0.8810	56383.91	3.0090	3.0089	-0.1048	27.00	1.20	-0.751			
0.8813	56403.97	3.0060	3.0060	-0.1041	27.00	1.20	-0.751			
0.8816	56423.88	3.0030	3.0029	-0.1048	27.01	1.21	-0.751			
