Ah_balance (normalized)	Ah_balance (mAh)	Voltage - fit (V)	Voltage -  interpolate (V)	dQ/dV (1/V)	Temperature (°C)	Temperature - diff (°C)	Current (C)	R_DC 0ms (mOhm)	R_DC 50ms (mOhm)	R_DC 50 ms PEC (mOhm)
0.0497	3181.16	4.1980	4.1980	0.8036	26.31	0.32	0.750			
0.0521	3331.24	4.1950	4.1951	0.7767	26.32	0.33	0.750			
0.0544	3478.75	4.1920	4.1920	0.7724	26.32	0.33	0.750			
0.0567	3626.47	4.1890	4.1891	0.7738	26.32	0.33	0.750			
0.0590	3774.71	4.1860	4.1860	0.7731	26.32	0.33	0.750			
0.0613	3923.65	4.1830	4.1830	0.7759	26.32	0.33	0.750			
0.0636	4073.23	4.1800	4.1800	0.7788	26.32	0.33	0.750			
0.0660	4223.92	4.1770	4.1770	0.7821	26.33	0.34	0.750			
0.0683	4373.23	4.1740	4.1740	0.7784	26.33	0.34	0.750			
0.0707	4522.08	4.1710	4.1710	0.7791	26.33	0.34	0.750			
0.0730	4671.20	4.1680	4.1680	0.7840	26.33	0.34	0.750			
0.0753	4821.65	4.1650	4.1650	0.7849	26.33	0.34	0.750			
0.0777	4972.14	4.1620	4.1620	0.7871	26.32	0.33	0.750			
0.0801	5124.17	4.1590	4.1590	0.7909	26.32	0.33	0.750			
0.0825	5277.28	4.1560	4.1559	0.7924	26.32	0.33	0.750			
0.0848	5430.06	4.1530	4.1531	0.7940	26.32	0.33	0.750			
0.0872	5583.23	4.1500	4.1500	0.7877	26.32	0.33	0.750			
0.0896	5733.34	4.1470	4.1470	0.7875	26.31	0.32	0.750			
0.0920	5884.96	4.1440	4.1440	0.7899	26.31	0.32	0.750			
0.0943	6033.54	4.1410	4.1411	0.7916	26.31	0.32	0.750			
0.0966	6185.50	4.1380	4.1379	0.7967	26.31	0.32	0.750			
0.0991	6341.46	4.1350	4.1350	0.7987	26.31	0.32	0.750			
0.1015	6494.54	4.1320	4.1320	0.8027	26.31	0.32	0.750			
0.1039	6650.65	4.1290	4.1290	0.8096	26.31	0.32	0.750			
0.1063	6804.29	4.1260	4.1261	0.8108	26.31	0.32	0.750			
0.1087	6959.68	4.1230	4.1229	0.8117	26.31	0.32	0.750			
0.1112	7117.62	4.1200	4.1200	0.8067	26.31	0.32	0.750			
0.1136	7271.66	4.1170	4.1171	0.8135	26.31	0.32	0.750			
0.1161	7428.02	4.1140	4.1141	0.8170	26.31	0.32	0.750			
0.1185	7584.63	4.1110	4.1110	0.8190	26.31	0.32	0.750			
0.1210	7741.65	4.1080	4.1079	0.8216	26.31	0.32	0.750			
0.1235	7900.92	4.1050	4.1051	0.8214	26.31	0.32	0.750			
0.1259	8060.01	4.1020	4.1021	0.8279	26.31	0.32	0.750			
0.1284	8219.86	4.0990	4.0990	0.8276	26.31	0.32	0.750			
0.1309	8376.21	4.0960	4.0960	0.8266	26.31	0.32	0.750			
0.1333	8533.38	4.0930	4.0930	0.8355	26.31	0.32	0.750			
0.1359	8696.25	4.0900	4.0900	0.8323	26.31	0.32	0.750			
0.1384	8858.26	4.0870	4.0869	0.8351	26.31	0.32	0.750			
0.1409	9018.82	4.0840	4.0841	0.8360	26.31	0.32	0.750			
0.1434	9178.44	4.0810	4.0810	0.8377	26.31	0.32	0.750			
0.1459	9339.39	4.0780	4.0779	0.8380	26.31	0.32	0.750			
0.1484	9500.33	4.0750	4.0750	0.8339	26.31	0.32	0.750			
0.1509	9659.79	4.0720	4.0722	0.8331	26.31	0.32	0.750			
0.1535	9822.33	4.0690	4.0690	0.8377	26.32	0.33	0.750			
0.1560	9981.74	4.0660	4.0660	0.8358	26.32	0.33	0.750			
0.1584	10139.82	4.0630	4.0630	0.8337	26.32	0.33	0.750			
0.1610	10301.42	4.0600	4.0600	0.8361	26.32	0.33	0.750			
0.1635	10462.61	4.0570	4.0570	0.8464	26.32	0.33	0.750			
0.1660	10626.30	4.0540	4.0540	0.8508	26.33	0.34	0.750			
0.1686	10790.20	4.0510	4.0512	0.8551	26.33	0.34	0.750			
0.1712	10954.05	4.0480	4.0480	0.8630	26.33	0.34	0.750			
0.1738	11121.88	4.0450	4.0450	0.8643	26.33	0.34	0.750			
0.1764	11286.57	4.0420	4.0420	0.8673	26.33	0.34	0.750			
0.1790	11453.14	4.0390	4.0391	0.8720	26.33	0.34	0.750			
0.1816	11622.39	4.0360	4.0361	0.8734	26.33	0.34	0.750			
0.1842	11791.50	4.0330	4.0329	0.8800	26.33	0.34	0.750			
0.1869	11959.71	4.0300	4.0301	0.8803	26.33	0.34	0.750			
0.1895	12128.86	4.0270	4.0271	0.8832	26.32	0.33	0.750			
0.1922	12301.22	4.0240	4.0239	0.8938	26.32	0.33	0.750			
0.1949	12471.78	4.0210	4.0208	0.8904	26.32	0.33	0.750			
0.1976	12644.27	4.0180	4.0180	0.8880	26.32	0.33	0.750			
0.2002	12813.54	4.0150	4.0151	0.8918	26.33	0.34	0.750			
0.2029	12985.44	4.0120	4.0120	0.8945	26.33	0.34	0.750			
0.2056	13157.58	4.0090	4.0090	0.8956	26.34	0.35	0.750			
0.2082	13326.22	4.0060	4.0058	0.9021	26.34	0.35	0.750			
0.2109	13500.72	4.0030	4.0030	0.9050	26.34	0.35	0.750			
0.2137	13675.70	4.0000	4.0000	0.9145	26.34	0.35	0.750			
0.2164	13852.46	3.9970	3.9970	0.9197	26.35	0.36	0.750			
0.2192	14029.57	3.9940	3.9941	0.9197	26.35	0.36	0.750			
0.2220	14207.89	3.9910	3.9910	0.9287	26.35	0.36	0.750			
0.2248	14386.96	3.9880	3.9880	0.9241	26.35	0.36	0.750			
0.2275	14562.40	3.9850	3.9850	0.9242	26.34	0.35	0.750			
0.2303	14740.69	3.9820	3.9821	0.9304	26.34	0.35	0.750			
0.2331	14917.21	3.9790	3.9787	0.9350	26.34	0.35	0.750			
0.2359	15100.05	3.9760	3.9759	0.9274	26.34	0.35	0.750			
0.2387	15277.06	3.9730	3.9731	0.9324	26.34	0.35	0.750			
0.2415	15456.43	3.9700	3.9701	0.9370	26.35	0.36	0.750			
0.2443	15636.38	3.9670	3.9672	0.9343	26.35	0.36	0.750			
0.2471	15816.46	3.9640	3.9640	0.9377	26.35	0.36	0.750			
0.2499	15994.37	3.9610	3.9611	0.9298	26.35	0.36	0.750			
0.2527	16172.16	3.9580	3.9581	0.9331	26.35	0.36	0.750			
0.2555	16353.98	3.9550	3.9551	0.9449	26.35	0.36	0.750			
0.2583	16531.72	3.9520	3.9516	0.9399	26.35	0.36	0.750			
0.2611	16712.85	3.9490	3.9491	0.9411	26.35	0.36	0.750			
0.2640	16895.06	3.9460	3.9461	0.9498	26.35	0.36	0.750			
0.2669	17080.07	3.9430	3.9430	0.9550	26.35	0.36	0.750			
0.2697	17261.42	3.9400	3.9399	0.9501	26.35	0.36	0.750			
0.2726	17446.99	3.9370	3.9371	0.9533	26.35	0.36	0.750			
0.2755	17629.93	3.9340	3.9340	0.9559	26.36	0.37	0.750			
0.2783	17813.90	3.9310	3.9310	0.9605	26.36	0.37	0.750			
0.2812	17997.56	3.9280	3.9281	0.9612	26.37	0.38	0.750			
0.2841	18183.69	3.9250	3.9250	0.9578	26.37	0.38	0.750			
0.2870	18367.64	3.9220	3.9221	0.9670	26.37	0.38	0.750			
0.2899	18552.48	3.9190	3.9190	0.9716	26.37	0.38	0.750			
0.2928	18741.41	3.9160	3.9160	0.9792	26.37	0.38	0.750			
0.2957	18927.96	3.9130	3.9129	0.9806	26.37	0.38	0.750			
0.2987	19117.13	3.9100	3.9101	0.9807	26.37	0.38	0.750			
0.3017	19305.87	3.9070	3.9070	0.9873	26.37	0.38	0.750			
0.3046	19497.30	3.9040	3.9040	0.9914	26.37	0.38	0.750			
0.3076	19686.27	3.9010	3.9008	0.9904	26.37	0.38	0.750			
0.3106	19877.21	3.8980	3.8980	0.9959	26.37	0.38	0.750			
0.3136	20068.75	3.8950	3.8951	1.0046	26.37	0.38	0.750			
0.3166	20262.00	3.8920	3.8919	1.0090	26.38	0.39	0.750			
0.3196	20456.53	3.8890	3.8890	1.0081	26.38	0.39	0.750			
0.3227	20651.38	3.8860	3.8860	1.0117	26.38	0.39	0.750			
0.3257	20845.56	3.8830	3.8831	1.0231	26.38	0.39	0.750			
0.3288	21042.31	3.8800	3.8800	1.0290	26.39	0.40	0.750			
0.3319	21241.59	3.8770	3.8769	1.0327	26.39	0.40	0.750			
0.3350	21439.65	3.8740	3.8740	1.0346	26.39	0.40	0.750			
0.3381	21639.57	3.8710	3.8711	1.0426	26.39	0.40	0.750			
0.3413	21840.10	3.8680	3.8680	1.0497	26.38	0.39	0.750			
0.3444	22041.62	3.8650	3.8649	1.0551	26.38	0.39	0.750			
0.3476	22245.04	3.8620	3.8619	1.0489	26.38	0.39	0.750			
0.3507	22446.68	3.8590	3.8591	1.0588	26.38	0.39	0.750			
0.3539	22650.27	3.8560	3.8560	1.0687	26.37	0.38	0.750			
0.3571	22854.03	3.8530	3.8529	1.0840	26.37	0.38	0.750			
0.3603	23062.07	3.8500	3.8500	1.0860	26.37	0.38	0.750			
0.3636	23271.17	3.8470	3.8470	1.1011	26.37	0.38	0.750			
0.3670	23486.33	3.8440	3.8441	1.1195	26.37	0.38	0.750			
0.3704	23706.92	3.8410	3.8408	1.1268	26.37	0.38	0.750			
0.3738	23920.49	3.8380	3.8380	1.1331	26.36	0.37	0.750			
0.3771	24137.50	3.8350	3.8351	1.1522	26.36	0.37	0.750			
0.3806	24357.93	3.8320	3.8322	1.1679	26.35	0.36	0.750			
0.3842	24586.31	3.8290	3.8290	1.1813	26.35	0.36	0.750			
0.3877	24813.54	3.8260	3.8261	1.1975	26.35	0.36	0.750			
0.3913	25044.16	3.8230	3.8231	1.2217	26.34	0.35	0.750			
0.3951	25284.15	3.8200	3.8198	1.2302	26.34	0.35	0.750			
0.3987	25519.50	3.8170	3.8170	1.2476	26.33	0.34	0.750			
0.4025	25760.43	3.8140	3.8141	1.2655	26.32	0.33	0.750			
0.4064	26008.81	3.8110	3.8110	1.2784	26.31	0.32	0.750			
0.4102	26255.04	3.8080	3.8080	1.3036	26.30	0.31	0.750			
0.4141	26503.88	3.8050	3.8051	1.3197	26.29	0.30	0.750			
0.4181	26760.23	3.8020	3.8020	1.3373	26.29	0.30	0.750			
0.4222	27022.35	3.7990	3.7990	1.3692	26.28	0.29	0.750			
0.4263	27283.18	3.7960	3.7961	1.3802	26.27	0.28	0.750			
0.4306	27555.36	3.7930	3.7929	1.3934	26.26	0.27	0.750			
0.4348	27824.10	3.7900	3.7901	1.4147	26.26	0.27	0.750			
0.4389	28091.97	3.7870	3.7871	1.4228	26.25	0.26	0.750			
0.4433	28370.16	3.7840	3.7841	1.4279	26.24	0.25	0.750			
0.4476	28648.13	3.7810	3.7809	1.4409	26.22	0.23	0.750			
0.4519	28923.33	3.7780	3.7781	1.4522	26.21	0.22	0.750			
0.4563	29202.56	3.7750	3.7750	1.4644	26.20	0.21	0.750			
0.4607	29486.80	3.7720	3.7721	1.4823	26.19	0.20	0.750			
0.4651	29769.28	3.7690	3.7688	1.4603	26.18	0.19	0.750			
0.4695	30049.36	3.7660	3.7659	1.5057	26.17	0.18	0.750			
0.4740	30337.08	3.7630	3.7632	1.5298	26.16	0.17	0.750			
0.4787	30635.97	3.7600	3.7599	1.5600	26.14	0.15	0.750	0.348	0.410	
0.4835	30941.53	3.7570	3.7569	1.5871	26.13	0.14	0.750			
0.4883	31250.78	3.7540	3.7542	1.6177	26.12	0.13	0.750			
0.4933	31573.24	3.7510	3.7511	1.6563	26.11	0.12	0.750			
0.4984	31895.50	3.7480	3.7481	1.6791	26.10	0.11	0.750			
0.5033	32208.12	3.7450	3.7449	1.6879	26.08	0.09	0.750			
0.5084	32539.36	3.7420	3.7420	1.7412	26.07	0.08	0.750			
0.5137	32875.87	3.7390	3.7391	1.7823	26.05	0.06	0.750			
0.5191	33220.15	3.7360	3.7359	1.8228	26.03	0.04	0.750			
0.5246	33576.18	3.7330	3.7330	1.8797	26.02	0.03	0.750			
0.5304	33945.38	3.7300	3.7298	1.9276	26.01	0.02	0.750			
0.5363	34320.22	3.7270	3.7272	1.9738	26.00	0.01	0.750			
0.5422	34703.09	3.7240	3.7244	2.0186	25.98	-0.01	0.750			
0.5483	35092.54	3.7210	3.7209	2.0855	25.96	-0.03	0.750			
0.5547	35502.96	3.7180	3.7180	2.1395	25.94	-0.05	0.750			
0.5612	35919.32	3.7150	3.7150	2.2133	25.92	-0.07	0.750			
0.5680	36351.69	3.7120	3.7121	2.2861	25.91	-0.08	0.750			
0.5749	36793.89	3.7090	3.7090	2.3413	25.89	-0.10	0.750			
0.5821	37252.62	3.7060	3.7060	2.4013	25.87	-0.12	0.750			
0.5893	37716.68	3.7030	3.7030	2.4708	25.85	-0.14	0.750			
0.5968	38197.32	3.7000	3.6999	2.5201	25.83	-0.16	0.750			
0.6045	38687.99	3.6970	3.6970	2.6119	25.82	-0.17	0.750			
0.6124	39196.38	3.6940	3.6941	2.6742	25.80	-0.19	0.750			
0.6206	39718.25	3.6910	3.6908	2.7472	25.79	-0.20	0.750			
0.6289	40251.19	3.6880	3.6881	2.8318	25.77	-0.22	0.750			
0.6375	40798.87	3.6850	3.6849	2.9270	25.75	-0.24	0.750			
0.6464	41367.69	3.6820	3.6820	3.0536	25.73	-0.26	0.750			
0.6557	41962.90	3.6790	3.6790	3.1349	25.71	-0.28	0.750			
0.6654	42583.40	3.6760	3.6760	3.2688	25.70	-0.29	0.750			
0.6753	43219.81	3.6730	3.6728	3.3376	25.69	-0.30	0.750			
0.6855	43869.71	3.6700	3.6701	3.4531	25.68	-0.31	0.750			
0.6960	44545.96	3.6670	3.6669	3.5191	25.66	-0.33	0.750			
0.7070	45248.84	3.6640	3.6640	3.3982	25.66	-0.33	0.750			
0.7172	45903.18	3.6610	3.6611	3.1821	25.66	-0.33	0.750			
0.7262	46474.69	3.6580	3.6580	2.8197	25.66	-0.33	0.750			
0.7339	46972.41	3.6550	3.6550	2.5006	25.66	-0.33	0.750			
0.7408	47412.99	3.6520	3.6520	2.2101	25.66	-0.33	0.750			
0.7469	47803.25	3.6490	3.6489	1.9916	25.66	-0.33	0.750			
0.7524	48150.79	3.6460	3.6459	1.7829	25.67	-0.32	0.750			
0.7574	48471.78	3.6430	3.6430	1.6258	25.68	-0.31	0.750			
0.7620	48768.83	3.6400	3.6400	1.4950	25.68	-0.31	0.750			
0.7661	49033.22	3.6370	3.6371	1.3907	25.67	-0.32	0.750			
0.7700	49282.21	3.6340	3.6337	1.3083	25.67	-0.32	0.750			
0.7737	49518.39	3.6310	3.6310	1.2578	25.67	-0.32	0.750			
0.7774	49753.09	3.6280	3.6279	1.2379	25.68	-0.31	0.750			
0.7810	49986.70	3.6250	3.6250	1.2346	25.68	-0.31	0.750			
0.7847	50223.54	3.6220	3.6220	1.2401	25.68	-0.31	0.750			
0.7885	50461.85	3.6190	3.6190	1.2445	25.68	-0.31	0.750			
0.7922	50702.20	3.6160	3.6160	1.2471	25.69	-0.30	0.750			
0.7960	50944.61	3.6130	3.6130	1.2392	25.69	-0.30	0.750			
0.7997	51183.79	3.6100	3.6100	1.2317	25.69	-0.30	0.750			
0.8034	51418.78	3.6070	3.6071	1.2169	25.70	-0.29	0.750			
0.8071	51651.63	3.6040	3.6039	1.1992	25.70	-0.29	0.750			
0.8106	51877.77	3.6010	3.6011	1.1904	25.70	-0.29	0.750			
0.8141	52101.75	3.5980	3.5980	1.2031	25.70	-0.29	0.750			
0.8177	52330.49	3.5950	3.5951	1.2178	25.70	-0.29	0.750			
0.8213	52565.09	3.5920	3.5918	1.2344	25.70	-0.29	0.750			
0.8250	52802.39	3.5890	3.5891	1.2664	25.70	-0.29	0.750			
0.8289	53048.18	3.5860	3.5861	1.3040	25.70	-0.29	0.750			
0.8328	53302.32	3.5830	3.5829	1.3398	25.70	-0.29	0.750			
0.8369	53561.83	3.5800	3.5797	1.3685	25.70	-0.29	0.750			
0.8411	53829.62	3.5770	3.5772	1.4062	25.71	-0.28	0.750			
0.8454	54103.87	3.5740	3.5738	1.4538	25.71	-0.28	0.750			
0.8498	54387.86	3.5710	3.5710	1.4921	25.71	-0.28	0.750			
0.8544	54680.88	3.5680	3.5680	1.5167	25.71	-0.28	0.750			
0.8590	54973.07	3.5650	3.5650	1.5487	25.71	-0.28	0.750			
0.8636	55270.33	3.5620	3.5622	1.5839	25.71	-0.28	0.750			
0.8685	55583.64	3.5590	3.5589	1.5948	25.70	-0.29	0.750			
0.8733	55892.31	3.5560	3.5560	1.5925	25.70	-0.29	0.750			
0.8781	56198.00	3.5530	3.5531	1.6066	25.71	-0.28	0.750			
0.8830	56509.48	3.5500	3.5497	1.6170	25.72	-0.27	0.750			
0.8878	56820.40	3.5470	3.5469	1.6355	25.72	-0.27	0.750			
0.8926	57129.02	3.5440	3.5442	1.6387	25.72	-0.27	0.750			
0.8975	57443.19	3.5410	3.5411	1.6783	25.73	-0.26	0.750			
0.9027	57771.53	3.5380	3.5379	1.7476	25.74	-0.25	0.750			
0.9082	58124.32	3.5350	3.5349	1.7370	25.75	-0.24	0.750			
0.9137	58476.75	3.5320	3.5317	1.6759	25.76	-0.23	0.750			
0.9190	58816.76	3.5290	3.5291	1.4861	25.77	-0.22	0.750			
0.9236	59109.42	3.5260	3.5265	1.2742	25.78	-0.21	0.750			
0.9271	59332.48	3.5230	3.5232	1.0325	25.80	-0.19	0.750			
0.9294	59484.78	3.5200	3.5196	0.7714	25.81	-0.18	0.750			
0.9308	59573.43	3.5170	3.5166	0.5386	25.81	-0.18	0.750			
0.9320	59649.56	3.5140	3.5137	0.4424	25.82	-0.17	0.750			
0.9330	59713.24	3.5110	3.5110	0.3712	25.82	-0.17	0.750			
0.9341	59779.28	3.5080	3.5079	0.3455	25.83	-0.16	0.750			
0.9350	59840.84	3.5050	3.5051	0.3234	25.84	-0.15	0.750			
0.9360	59901.02	3.5020	3.5020	0.3100	25.84	-0.15	0.750			
0.9369	59959.11	3.4990	3.4989	0.2983	25.85	-0.14	0.750			
0.9377	60014.95	3.4960	3.4960	0.2884	25.86	-0.13	0.750			
0.9386	60068.59	3.4930	3.4930	0.2797	25.86	-0.13	0.750			
0.9394	60121.47	3.4900	3.4900	0.2728	25.87	-0.12	0.750			
0.9402	60173.02	3.4870	3.4870	0.2678	25.87	-0.12	0.750			
0.9410	60223.47	3.4840	3.4840	0.2621	25.88	-0.11	0.750			
0.9418	60273.87	3.4810	3.4810	0.2572	25.88	-0.11	0.750			
0.9425	60322.97	3.4780	3.4779	0.2522	25.89	-0.10	0.750			
0.9433	60370.92	3.4750	3.4750	0.2472	25.90	-0.09	0.750			
0.9440	60417.83	3.4720	3.4721	0.2415	25.90	-0.09	0.750			
0.9447	60463.93	3.4690	3.4690	0.2358	25.91	-0.08	0.750			
0.9454	60508.41	3.4660	3.4661	0.2309	25.91	-0.08	0.750			
0.9461	60551.38	3.4630	3.4631	0.2255	25.92	-0.07	0.750			
0.9468	60594.13	3.4600	3.4600	0.2217	25.92	-0.07	0.750			
0.9474	60636.66	3.4570	3.4569	0.2176	25.92	-0.07	0.750			
0.9481	60677.85	3.4540	3.4540	0.2125	25.93	-0.06	0.750			
0.9487	60718.80	3.4510	3.4510	0.2097	25.93	-0.06	0.750			
0.9494	60758.57	3.4480	3.4482	0.2052	25.94	-0.05	0.750			
0.9500	60797.93	3.4450	3.4449	0.2005	25.94	-0.05	0.750			
0.9506	60835.64	3.4420	3.4420	0.1951	25.94	-0.05	0.750			
0.9511	60872.64	3.4390	3.4390	0.1903	25.95	-0.04	0.750			
0.9517	60908.50	3.4360	3.4361	0.1856	25.95	-0.04	0.750			
0.9522	60943.92	3.4330	3.4330	0.1814	25.95	-0.04	0.750			
0.9528	60978.06	3.4300	3.4300	0.1769	25.96	-0.03	0.750			
0.9533	61011.62	3.4270	3.4270	0.1727	25.96	-0.03	0.750			
0.9538	61044.44	3.4240	3.4240	0.1670	25.96	-0.03	0.750			
0.9543	61076.47	3.4210	3.4210	0.1619	25.97	-0.02	0.750			
0.9548	61107.10	3.4180	3.4181	0.1562	25.97	-0.02	0.750			
0.9553	61136.49	3.4150	3.4151	0.1500	25.97	-0.02	0.750			
0.9557	61164.71	3.4120	3.4119	0.1446	25.98	-0.01	0.750			
0.9561	61191.79	3.4090	3.4090	0.1385	25.98	-0.01	0.750			
0.9565	61217.67	3.4060	3.4060	0.1323	25.98	-0.01	0.750			
0.9569	61242.55	3.4030	3.4030	0.1269	25.98	-0.01	0.750			
0.9573	61267.13	3.4000	3.3999	0.1201	25.99	-0.00	0.750			
0.9577	61289.80	3.3970	3.3969	0.1134	25.99	-0.00	0.750			
0.9580	61311.72	3.3940	3.3940	0.1055	25.99	0.00	0.750			
0.9583	61331.05	3.3910	3.3910	0.0959	25.99	0.00	0.750			
0.9586	61348.86	3.3880	3.3880	0.0868	25.99	0.00	0.750			
0.9588	61365.03	3.3850	3.3850	0.0774	26.00	0.01	0.750			
0.9590	61378.87	3.3820	3.3822	0.0667	26.00	0.01	0.750			
0.9592	61390.43	3.3790	3.3797	0.0562	26.00	0.01	0.750			
0.9594	61400.23	3.3760	3.3769	0.0459	26.00	0.01	0.750			
0.9595	61408.06	3.3730	3.3739	0.0356	26.00	0.01	0.750			
