Ah_balance (normalized)	Ah_balance (mAh)	Voltage - fit (V)	Voltage -  interpolate (V)	dQ/dV (1/V)	Temperature (°C)	Temperature - diff (°C)	Current (C)	R_DC 0ms (mOhm)	R_DC 50ms (mOhm)	R_DC 50 ms PEC (mOhm)
0.0003	19.02	4.1590	4.1588	-0.1101	25.83	0.01	-0.750			
0.0007	44.51	4.1560	4.1559	-0.1522	25.83	0.01	-0.750			
0.0012	77.35	4.1530	4.1532	-0.1920	25.83	0.01	-0.750			
0.0019	118.76	4.1500	4.1501	-0.2306	25.83	0.01	-0.750			
0.0026	166.67	4.1470	4.1470	-0.2675	25.83	0.01	-0.750			
0.0035	222.68	4.1440	4.1439	-0.3015	25.83	0.01	-0.750			
0.0044	284.44	4.1410	4.1411	-0.3357	25.82	0.00	-0.750			
0.0055	352.75	4.1380	4.1378	-0.3632	25.82	0.00	-0.750			
0.0066	425.06	4.1350	4.1350	-0.3944	25.82	-0.00	-0.750			
0.0079	503.93	4.1320	4.1321	-0.4223	25.82	-0.00	-0.750			
0.0092	588.21	4.1290	4.1290	-0.4494	25.81	-0.01	-0.750			
0.0106	677.37	4.1260	4.1258	-0.4721	25.81	-0.01	-0.750			
0.0121	772.31	4.1230	4.1231	-0.4946	25.81	-0.01	-0.750			
0.0136	869.68	4.1200	4.1200	-0.5158	25.80	-0.02	-0.750			
0.0152	971.53	4.1170	4.1170	-0.5320	25.80	-0.02	-0.750			
0.0168	1074.65	4.1140	4.1139	-0.5439	25.79	-0.03	-0.750			
0.0184	1180.49	4.1110	4.1111	-0.5613	25.79	-0.03	-0.750			
0.0202	1290.31	4.1080	4.1079	-0.5734	25.79	-0.03	-0.750			
0.0219	1401.60	4.1050	4.1050	-0.5850	25.78	-0.04	-0.750			
0.0237	1516.07	4.1020	4.1020	-0.5962	25.78	-0.04	-0.750			
0.0255	1631.12	4.0990	4.0990	-0.6043	25.78	-0.04	-0.750			
0.0273	1750.23	4.0960	4.0959	-0.6137	25.78	-0.04	-0.750			
0.0292	1867.88	4.0930	4.0930	-0.6219	25.77	-0.05	-0.750			
0.0311	1987.53	4.0900	4.0901	-0.6284	25.77	-0.05	-0.750			
0.0330	2110.26	4.0870	4.0869	-0.6359	25.77	-0.05	-0.750			
0.0349	2232.45	4.0840	4.0840	-0.6440	25.76	-0.06	-0.750			
0.0368	2356.15	4.0810	4.0811	-0.6539	25.76	-0.06	-0.750			
0.0388	2484.75	4.0780	4.0780	-0.6524	25.76	-0.06	-0.750			
0.0408	2611.32	4.0750	4.0749	-0.6586	25.75	-0.07	-0.750			
0.0428	2736.97	4.0720	4.0720	-0.6616	25.75	-0.07	-0.750			
0.0448	2864.14	4.0690	4.0690	-0.6662	25.75	-0.07	-0.750			
0.0467	2991.93	4.0660	4.0658	-0.6697	25.75	-0.07	-0.750			
0.0487	3119.92	4.0630	4.0630	-0.6713	25.74	-0.08	-0.750			
0.0508	3249.53	4.0600	4.0601	-0.6763	25.74	-0.08	-0.750			
0.0529	3382.43	4.0570	4.0569	-0.6830	25.74	-0.08	-0.750			
0.0549	3512.33	4.0540	4.0541	-0.6838	25.73	-0.09	-0.750			
0.0569	3644.33	4.0510	4.0510	-0.6879	25.73	-0.09	-0.750			
0.0590	3776.89	4.0480	4.0480	-0.6895	25.73	-0.09	-0.750			
0.0611	3908.69	4.0450	4.0450	-0.7004	25.73	-0.09	-0.750			
0.0632	4045.40	4.0420	4.0419	-0.6997	25.73	-0.09	-0.750			
0.0653	4180.14	4.0390	4.0389	-0.7002	25.73	-0.09	-0.750			
0.0674	4314.28	4.0360	4.0361	-0.7020	25.73	-0.09	-0.750			
0.0695	4448.98	4.0330	4.0330	-0.7029	25.73	-0.09	-0.750			
0.0716	4583.87	4.0300	4.0299	-0.7065	25.73	-0.09	-0.750			
0.0737	4717.21	4.0270	4.0270	-0.7145	25.73	-0.09	-0.750			
0.0759	4855.14	4.0240	4.0240	-0.7133	25.72	-0.10	-0.750			
0.0781	4995.55	4.0210	4.0209	-0.7197	25.72	-0.10	-0.750			
0.0802	5134.87	4.0180	4.0180	-0.7170	25.72	-0.10	-0.750			
0.0824	5272.05	4.0150	4.0149	-0.7152	25.72	-0.10	-0.750			
0.0845	5408.25	4.0120	4.0120	-0.7167	25.72	-0.10	-0.750			
0.0866	5542.99	4.0090	4.0091	-0.7304	25.72	-0.10	-0.750			
0.0888	5681.37	4.0060	4.0059	-0.7373	25.73	-0.09	-0.750			
0.0911	5828.90	4.0030	4.0028	-0.7431	25.73	-0.09	-0.750			
0.0933	5973.98	4.0000	4.0001	-0.7446	25.73	-0.09	-0.750			
0.0956	6117.56	3.9970	3.9972	-0.7439	25.73	-0.09	-0.750			
0.0978	6261.37	3.9940	3.9940	-0.7400	25.73	-0.09	-0.750			
0.1000	6402.09	3.9910	3.9909	-0.7403	25.74	-0.08	-0.750			
0.1022	6540.67	3.9880	3.9879	-0.7334	25.74	-0.08	-0.750			
0.1044	6684.15	3.9850	3.9850	-0.7383	25.74	-0.08	-0.750			
0.1067	6826.79	3.9820	3.9822	-0.7359	25.74	-0.08	-0.750			
0.1089	6968.38	3.9790	3.9790	-0.7348	25.74	-0.08	-0.750			
0.1111	7107.26	3.9760	3.9760	-0.7388	25.74	-0.08	-0.750			
0.1132	7247.13	3.9730	3.9728	-0.7413	25.75	-0.07	-0.750			
0.1155	7391.03	3.9700	3.9700	-0.7479	25.75	-0.07	-0.750			
0.1178	7536.22	3.9670	3.9670	-0.7470	25.75	-0.07	-0.750			
0.1200	7681.89	3.9640	3.9640	-0.7498	25.75	-0.07	-0.750			
0.1223	7824.97	3.9610	3.9610	-0.7546	25.75	-0.07	-0.750			
0.1245	7967.83	3.9580	3.9580	-0.7539	25.75	-0.07	-0.750			
0.1267	8111.94	3.9550	3.9549	-0.7531	25.75	-0.07	-0.750			
0.1290	8257.35	3.9520	3.9520	-0.7591	25.75	-0.07	-0.750			
0.1313	8405.68	3.9490	3.9493	-0.7603	25.75	-0.07	-0.750			
0.1336	8552.09	3.9460	3.9460	-0.7602	25.75	-0.07	-0.750			
0.1359	8696.86	3.9430	3.9430	-0.7647	25.75	-0.07	-0.750			
0.1382	8843.95	3.9400	3.9400	-0.7616	25.75	-0.07	-0.750			
0.1405	8989.78	3.9370	3.9369	-0.7654	25.75	-0.07	-0.750			
0.1428	9137.37	3.9340	3.9340	-0.7689	25.75	-0.07	-0.750			
0.1451	9285.59	3.9310	3.9311	-0.7689	25.75	-0.07	-0.750			
0.1474	9434.09	3.9280	3.9279	-0.7727	25.76	-0.06	-0.750			
0.1497	9583.36	3.9250	3.9250	-0.7659	25.76	-0.06	-0.750			
0.1520	9729.17	3.9220	3.9220	-0.7612	25.76	-0.06	-0.750			
0.1543	9875.26	3.9190	3.9191	-0.7633	25.77	-0.05	-0.750			
0.1566	10020.97	3.9160	3.9160	-0.7629	25.77	-0.05	-0.750			
0.1588	10166.26	3.9130	3.9129	-0.7701	25.77	-0.05	-0.750			
0.1612	10314.06	3.9100	3.9100	-0.7784	25.77	-0.05	-0.750			
0.1635	10464.36	3.9070	3.9071	-0.7841	25.77	-0.05	-0.750			
0.1659	10620.72	3.9040	3.9038	-0.7892	25.77	-0.05	-0.750			
0.1683	10771.51	3.9010	3.9012	-0.7865	25.77	-0.05	-0.750			
0.1706	10920.98	3.8980	3.8980	-0.7872	25.77	-0.05	-0.750			
0.1730	11070.96	3.8950	3.8950	-0.7935	25.78	-0.04	-0.750			
0.1754	11222.97	3.8920	3.8919	-0.7883	25.78	-0.04	-0.750			
0.1777	11375.02	3.8890	3.8890	-0.7932	25.78	-0.04	-0.750			
0.1802	11530.51	3.8860	3.8861	-0.7959	25.79	-0.03	-0.750			
0.1826	11683.20	3.8830	3.8830	-0.7984	25.79	-0.03	-0.750			
0.1849	11834.54	3.8800	3.8800	-0.7986	25.79	-0.03	-0.750			
0.1873	11988.16	3.8770	3.8769	-0.7981	25.79	-0.03	-0.750			
0.1897	12141.44	3.8740	3.8740	-0.7942	25.79	-0.03	-0.750			
0.1921	12295.65	3.8710	3.8708	-0.8006	25.79	-0.03	-0.750			
0.1945	12449.85	3.8680	3.8681	-0.7998	25.79	-0.03	-0.750			
0.1969	12602.58	3.8650	3.8650	-0.8034	25.80	-0.02	-0.750			
0.1993	12756.06	3.8620	3.8620	-0.7989	25.80	-0.02	-0.750			
0.2017	12908.64	3.8590	3.8590	-0.7961	25.80	-0.02	-0.750			
0.2041	13064.52	3.8560	3.8559	-0.8016	25.81	-0.01	-0.750			
0.2065	13218.83	3.8530	3.8532	-0.8041	25.81	-0.01	-0.750			
0.2089	13372.06	3.8500	3.8500	-0.7970	25.81	-0.01	-0.750			
0.2113	13526.26	3.8470	3.8470	-0.8028	25.81	-0.01	-0.750			
0.2138	13680.62	3.8440	3.8440	-0.7992	25.81	-0.01	-0.750			
0.2162	13835.46	3.8410	3.8409	-0.7992	25.81	-0.01	-0.750			
0.2186	13987.98	3.8380	3.8384	-0.7925	25.81	-0.01	-0.750			
0.2209	14139.08	3.8350	3.8349	-0.7929	25.81	-0.01	-0.750			
0.2233	14290.47	3.8320	3.8320	-0.7913	25.81	-0.01	-0.750			
0.2256	14440.82	3.8290	3.8290	-0.7925	25.82	-0.00	-0.750			
0.2281	14595.67	3.8260	3.8258	-0.7964	25.82	-0.00	-0.750			
0.2304	14748.13	3.8230	3.8231	-0.7929	25.82	-0.00	-0.750			
0.2328	14901.53	3.8200	3.8199	-0.7903	25.82	0.00	-0.750			
0.2352	15051.47	3.8170	3.8170	-0.7882	25.83	0.01	-0.750			
0.2375	15201.18	3.8140	3.8140	-0.7776	25.84	0.02	-0.750			
0.2398	15350.01	3.8110	3.8110	-0.7785	25.84	0.02	-0.750			
0.2422	15500.00	3.8080	3.8079	-0.7739	25.85	0.03	-0.750			
0.2445	15649.14	3.8050	3.8051	-0.7740	25.85	0.03	-0.750			
0.2468	15796.73	3.8020	3.8020	-0.7709	25.85	0.03	-0.750			
0.2491	15944.66	3.7990	3.7990	-0.7699	25.85	0.03	-0.750			
0.2514	16091.64	3.7960	3.7960	-0.7645	25.85	0.03	-0.750			
0.2538	16240.31	3.7930	3.7929	-0.7655	25.85	0.03	-0.750			
0.2560	16386.10	3.7900	3.7901	-0.7590	25.85	0.03	-0.750			
0.2583	16532.35	3.7870	3.7870	-0.7561	25.85	0.03	-0.750			
0.2606	16677.06	3.7840	3.7840	-0.7489	25.86	0.04	-0.750			
0.2628	16820.89	3.7810	3.7810	-0.7469	25.86	0.04	-0.750			
0.2650	16962.58	3.7780	3.7779	-0.7424	25.86	0.04	-0.750			
0.2673	17105.37	3.7750	3.7750	-0.7414	25.87	0.05	-0.750			
0.2695	17247.03	3.7720	3.7721	-0.7386	25.87	0.05	-0.750			
0.2717	17389.43	3.7690	3.7689	-0.7363	25.87	0.05	-0.750			
0.2739	17529.48	3.7660	3.7660	-0.7389	25.88	0.06	-0.750			
0.2761	17669.18	3.7630	3.7630	-0.7376	25.88	0.06	-0.750			
0.2783	17814.12	3.7600	3.7599	-0.7406	25.89	0.07	-0.750			
0.2806	17956.65	3.7570	3.7569	-0.7388	25.89	0.07	-0.750			
0.2828	18098.78	3.7540	3.7540	-0.7385	25.89	0.07	-0.750			
0.2850	18238.93	3.7510	3.7511	-0.7443	25.89	0.07	-0.750			
0.2872	18381.24	3.7480	3.7479	-0.7512	25.89	0.07	-0.750			
0.2894	18524.22	3.7450	3.7449	-0.7535	25.89	0.07	-0.750			
0.2917	18671.01	3.7420	3.7419	-0.7624	25.89	0.07	-0.750			
0.2940	18818.42	3.7390	3.7393	-0.7758	25.89	0.07	-0.750			
0.2964	18969.11	3.7360	3.7360	-0.7873	25.89	0.07	-0.750			
0.2988	19120.97	3.7330	3.7329	-0.7994	25.89	0.07	-0.750			
0.3012	19275.86	3.7300	3.7299	-0.8054	25.89	0.07	-0.750			
0.3036	19430.95	3.7270	3.7271	-0.8152	25.89	0.07	-0.750			
0.3061	19588.91	3.7240	3.7242	-0.8281	25.89	0.07	-0.750			
0.3086	19750.25	3.7210	3.7209	-0.8343	25.89	0.07	-0.750			
0.3111	19909.23	3.7180	3.7179	-0.8477	25.89	0.07	-0.750			
0.3136	20071.36	3.7150	3.7151	-0.8576	25.90	0.08	-0.750			
0.3162	20238.54	3.7120	3.7118	-0.8759	25.90	0.08	-0.750			
0.3189	20407.00	3.7090	3.7093	-0.8979	25.90	0.08	-0.750			
0.3216	20580.40	3.7060	3.7059	-0.9183	25.90	0.08	-0.750			
0.3244	20758.43	3.7030	3.7030	-0.9356	25.90	0.08	-0.750			
0.3272	20941.30	3.7000	3.7000	-0.9566	25.89	0.07	-0.750			
0.3301	21128.24	3.6970	3.6970	-0.9721	25.89	0.07	-0.750			
0.3331	21317.34	3.6940	3.6939	-0.9811	25.89	0.07	-0.750			
0.3360	21506.21	3.6910	3.6910	-0.9976	25.88	0.06	-0.750			
0.3390	21697.15	3.6880	3.6880	-1.0083	25.88	0.06	-0.750			
0.3421	21891.60	3.6850	3.6849	-1.0279	25.87	0.05	-0.750			
0.3452	22090.74	3.6820	3.6820	-1.0565	25.87	0.05	-0.750			
0.3484	22296.17	3.6790	3.6790	-1.0741	25.87	0.05	-0.750			
0.3517	22506.08	3.6760	3.6759	-1.0949	25.87	0.05	-0.750			
0.3550	22718.08	3.6730	3.6731	-1.1097	25.87	0.05	-0.750			
0.3584	22935.09	3.6700	3.6699	-1.1406	25.87	0.05	-0.750			
0.3618	23153.92	3.6670	3.6670	-1.1622	25.86	0.04	-0.750			
0.3653	23377.85	3.6640	3.6639	-1.1853	25.86	0.04	-0.750			
0.3689	23607.01	3.6610	3.6611	-1.2014	25.85	0.03	-0.750			
0.3726	23845.76	3.6580	3.6580	-1.2351	25.84	0.02	-0.750			
0.3763	24083.36	3.6550	3.6550	-1.2524	25.83	0.01	-0.750			
0.3801	24323.58	3.6520	3.6520	-1.2812	25.82	0.00	-0.750			
0.3839	24571.85	3.6490	3.6489	-1.2997	25.82	-0.00	-0.750			
0.3879	24823.96	3.6460	3.6459	-1.3216	25.81	-0.01	-0.750			
0.3919	25080.49	3.6430	3.6430	-1.3547	25.80	-0.02	-0.750			
0.3960	25345.62	3.6400	3.6399	-1.3789	25.80	-0.02	-0.750			
0.4002	25613.30	3.6370	3.6369	-1.4018	25.79	-0.03	-0.750			
0.4044	25883.70	3.6340	3.6338	-1.4401	25.78	-0.04	-0.750			
0.4088	26162.25	3.6310	3.6309	-1.4651	25.78	-0.04	-0.750			
0.4133	26452.15	3.6280	3.6278	-1.4924	25.77	-0.05	-0.750			
0.4178	26741.71	3.6250	3.6251	-1.5186	25.77	-0.05	-0.750			
0.4224	27031.02	3.6220	3.6221	-1.5576	25.76	-0.06	-0.750			
0.4272	27340.49	3.6190	3.6188	-1.6061	25.76	-0.06	-0.750			
0.4320	27647.72	3.6160	3.6160	-1.6487	25.75	-0.07	-0.750			
0.4370	27965.13	3.6130	3.6126	-1.6665	25.74	-0.08	-0.750	0.413	0.559	
0.4422	28298.47	3.6100	3.6100	-1.6980	25.72	-0.10	-0.750			
0.4474	28633.65	3.6070	3.6069	-1.7248	25.72	-0.10	-0.750			
0.4525	28960.83	3.6040	3.6038	-1.7273	25.72	-0.10	-0.750			
0.4578	29296.00	3.6010	3.6009	-1.7702	25.72	-0.10	-0.750			
0.4630	29634.98	3.5980	3.5982	-1.8090	25.71	-0.11	-0.750			
0.4685	29987.10	3.5950	3.5951	-1.8470	25.70	-0.12	-0.750			
0.4743	30352.39	3.5920	3.5921	-1.8834	25.70	-0.12	-0.750			
0.4801	30723.28	3.5890	3.5889	-1.9134	25.70	-0.12	-0.750			
0.4858	31093.23	3.5860	3.5862	-1.9575	25.70	-0.12	-0.750			
0.4917	31465.74	3.5830	3.5829	-1.9981	25.70	-0.12	-0.750			
0.4977	31850.15	3.5800	3.5798	-2.0269	25.69	-0.13	-0.750			
0.5039	32246.46	3.5770	3.5771	-2.0447	25.68	-0.14	-0.750			
0.5100	32641.53	3.5740	3.5741	-2.0827	25.68	-0.14	-0.750			
0.5164	33051.05	3.5710	3.5710	-2.1056	25.68	-0.14	-0.750			
0.5228	33459.25	3.5680	3.5679	-2.1206	25.68	-0.14	-0.750			
0.5291	33863.71	3.5650	3.5651	-2.1297	25.68	-0.14	-0.750			
0.5355	34272.47	3.5620	3.5620	-2.1422	25.68	-0.14	-0.750			
0.5420	34689.68	3.5590	3.5590	-2.1546	25.68	-0.14	-0.750			
0.5485	35106.21	3.5560	3.5560	-2.1473	25.69	-0.13	-0.750			
0.5550	35517.38	3.5530	3.5530	-2.1684	25.70	-0.12	-0.750			
0.5615	35935.47	3.5500	3.5500	-2.1543	25.70	-0.12	-0.750			
0.5680	36349.78	3.5470	3.5470	-2.1480	25.71	-0.11	-0.750			
0.5744	36759.05	3.5440	3.5441	-2.1503	25.71	-0.11	-0.750			
0.5809	37176.37	3.5410	3.5408	-2.1249	25.72	-0.10	-0.750			
0.5873	37588.73	3.5380	3.5379	-2.1035	25.72	-0.10	-0.750			
0.5935	37985.77	3.5350	3.5351	-2.0784	25.72	-0.10	-0.750			
0.5997	38383.30	3.5320	3.5317	-2.0391	25.73	-0.09	-0.750			
0.6059	38775.43	3.5290	3.5292	-2.0060	25.74	-0.08	-0.750			
0.6118	39154.43	3.5260	3.5260	-1.9674	25.75	-0.07	-0.750			
0.6176	39527.58	3.5230	3.5229	-1.9377	25.77	-0.05	-0.750			
0.6234	39899.10	3.5200	3.5201	-1.9010	25.77	-0.05	-0.750			
0.6292	40267.39	3.5170	3.5168	-1.8604	25.78	-0.04	-0.750			
0.6347	40618.08	3.5140	3.5139	-1.8099	25.79	-0.03	-0.750			
0.6401	40965.42	3.5110	3.5111	-1.7725	25.80	-0.02	-0.750			
0.6452	41294.87	3.5080	3.5080	-1.7262	25.81	-0.01	-0.750			
0.6504	41623.81	3.5050	3.5051	-1.6634	25.83	0.01	-0.750			
0.6553	41940.61	3.5020	3.5022	-1.6123	25.85	0.03	-0.750			
0.6601	42246.08	3.4990	3.4990	-1.5591	25.86	0.04	-0.750			
0.6647	42542.37	3.4960	3.4958	-1.5109	25.88	0.06	-0.750			
0.6691	42825.05	3.4930	3.4931	-1.4701	25.89	0.07	-0.750			
0.6734	43100.78	3.4900	3.4899	-1.4191	25.91	0.09	-0.750			
0.6776	43366.72	3.4870	3.4870	-1.3691	25.92	0.10	-0.750			
0.6817	43629.88	3.4840	3.4842	-1.3351	25.93	0.11	-0.750			
0.6857	43884.01	3.4810	3.4809	-1.2959	25.95	0.13	-0.750			
0.6895	44125.85	3.4780	3.4779	-1.2494	25.97	0.15	-0.750			
0.6931	44357.57	3.4750	3.4750	-1.2008	25.99	0.17	-0.750			
0.6966	44585.47	3.4720	3.4720	-1.1780	26.00	0.18	-0.750			
0.7001	44809.01	3.4690	3.4690	-1.1437	26.01	0.19	-0.750			
0.7035	45025.99	3.4660	3.4659	-1.1061	26.02	0.20	-0.750			
0.7068	45234.65	3.4630	3.4632	-1.0664	26.03	0.21	-0.750			
0.7099	45436.37	3.4600	3.4600	-1.0379	26.05	0.23	-0.750			
0.7130	45631.60	3.4570	3.4570	-1.0047	26.06	0.24	-0.750			
0.7159	45820.66	3.4540	3.4539	-0.9720	26.08	0.26	-0.750			
0.7188	46004.38	3.4510	3.4513	-0.9393	26.09	0.27	-0.750			
0.7216	46181.48	3.4480	3.4480	-0.9138	26.10	0.28	-0.750			
0.7243	46352.81	3.4450	3.4450	-0.8942	26.11	0.29	-0.750			
0.7269	46520.46	3.4420	3.4419	-0.8746	26.12	0.30	-0.750			
0.7294	46682.96	3.4390	3.4389	-0.8667	26.13	0.31	-0.750			
0.7320	46847.45	3.4360	3.4361	-0.8638	26.14	0.32	-0.750			
0.7346	47012.34	3.4330	3.4331	-0.8687	26.16	0.34	-0.750			
0.7372	47180.53	3.4300	3.4300	-0.8746	26.17	0.35	-0.750			
0.7398	47347.95	3.4270	3.4270	-0.8792	26.18	0.36	-0.750			
0.7425	47517.57	3.4240	3.4239	-0.8911	26.19	0.37	-0.750			
0.7452	47689.69	3.4210	3.4209	-0.9002	26.21	0.39	-0.750			
0.7479	47863.20	3.4180	3.4180	-0.9161	26.22	0.40	-0.750			
0.7507	48043.32	3.4150	3.4150	-0.9214	26.23	0.41	-0.750			
0.7535	48221.43	3.4120	3.4119	-0.9173	26.24	0.42	-0.750			
0.7563	48400.77	3.4090	3.4094	-0.9188	26.25	0.43	-0.750			
0.7590	48576.88	3.4060	3.4059	-0.9129	26.26	0.44	-0.750			
0.7617	48751.48	3.4030	3.4030	-0.8997	26.26	0.44	-0.750			
0.7644	48922.81	3.4000	3.4000	-0.8834	26.27	0.45	-0.750			
0.7671	49093.77	3.3970	3.3969	-0.8712	26.28	0.46	-0.750			
0.7697	49259.53	3.3940	3.3941	-0.8489	26.28	0.46	-0.750			
0.7722	49420.54	3.3910	3.3910	-0.8247	26.29	0.47	-0.750			
0.7746	49575.29	3.3880	3.3880	-0.7964	26.29	0.47	-0.750			
0.7770	49724.96	3.3850	3.3851	-0.7711	26.30	0.48	-0.750			
0.7792	49871.48	3.3820	3.3818	-0.7487	26.31	0.49	-0.750			
0.7815	50014.15	3.3790	3.3791	-0.7210	26.31	0.49	-0.750			
0.7836	50150.02	3.3760	3.3761	-0.6933	26.32	0.50	-0.750			
0.7856	50279.96	3.3730	3.3730	-0.6697	26.33	0.51	-0.750			
0.7876	50405.34	3.3700	3.3699	-0.6523	26.34	0.52	-0.750			
0.7895	50526.88	3.3670	3.3669	-0.6281	26.34	0.52	-0.750			
0.7914	50646.48	3.3640	3.3639	-0.6035	26.35	0.53	-0.750			
0.7931	50761.33	3.3610	3.3611	-0.5865	26.36	0.54	-0.750			
0.7949	50871.99	3.3580	3.3580	-0.5676	26.36	0.54	-0.750			
0.7965	50977.75	3.3550	3.3549	-0.5458	26.37	0.55	-0.750			
0.7981	51079.88	3.3520	3.3519	-0.5243	26.37	0.55	-0.750			
0.7996	51176.76	3.3490	3.3490	-0.5021	26.38	0.56	-0.750			
0.8012	51273.81	3.3460	3.3461	-0.4916	26.38	0.56	-0.750			
0.8026	51366.26	3.3430	3.3430	-0.4755	26.39	0.57	-0.750			
0.8040	51454.95	3.3400	3.3399	-0.4568	26.39	0.57	-0.750			
0.8053	51541.40	3.3370	3.3369	-0.4441	26.40	0.58	-0.750			
0.8066	51624.76	3.3340	3.3341	-0.4300	26.40	0.58	-0.750			
0.8079	51706.61	3.3310	3.3310	-0.4173	26.41	0.59	-0.750			
0.8092	51785.63	3.3280	3.3280	-0.4045	26.42	0.60	-0.750			
0.8103	51860.65	3.3250	3.3250	-0.3897	26.42	0.60	-0.750			
0.8115	51934.64	3.3220	3.3219	-0.3811	26.43	0.61	-0.750			
0.8126	52006.85	3.3190	3.3190	-0.3696	26.44	0.62	-0.750			
0.8137	52076.28	3.3160	3.3160	-0.3610	26.44	0.62	-0.750			
0.8148	52145.36	3.3130	3.3131	-0.3531	26.45	0.63	-0.750			
0.8158	52212.35	3.3100	3.3099	-0.3452	26.45	0.63	-0.750			
0.8168	52277.58	3.3070	3.3070	-0.3342	26.46	0.64	-0.750			
0.8178	52340.81	3.3040	3.3040	-0.3253	26.47	0.65	-0.750			
0.8188	52402.09	3.3010	3.3011	-0.3175	26.47	0.65	-0.750			
0.8197	52462.74	3.2980	3.2980	-0.3102	26.48	0.66	-0.750			
0.8206	52520.67	3.2950	3.2949	-0.3026	26.48	0.66	-0.750			
0.8215	52578.15	3.2920	3.2920	-0.2959	26.49	0.67	-0.750			
0.8224	52634.38	3.2890	3.2890	-0.2889	26.49	0.67	-0.750			
0.8233	52689.57	3.2860	3.2860	-0.2834	26.50	0.68	-0.750			
0.8241	52742.75	3.2830	3.2831	-0.2774	26.50	0.68	-0.750			
0.8249	52795.19	3.2800	3.2800	-0.2724	26.50	0.68	-0.750			
0.8257	52846.97	3.2770	3.2770	-0.2681	26.51	0.69	-0.750			
0.8265	52898.02	3.2740	3.2740	-0.2625	26.51	0.69	-0.750			
0.8273	52948.64	3.2710	3.2711	-0.2589	26.52	0.70	-0.750			
0.8281	52997.63	3.2680	3.2680	-0.2553	26.52	0.70	-0.750			
0.8288	53046.18	3.2650	3.2650	-0.2497	26.53	0.71	-0.750			
0.8296	53093.64	3.2620	3.2619	-0.2443	26.53	0.71	-0.750			
0.8303	53140.04	3.2590	3.2589	-0.2394	26.54	0.72	-0.750			
0.8310	53185.31	3.2560	3.2562	-0.2358	26.54	0.72	-0.750			
0.8317	53230.59	3.2530	3.2530	-0.2329	26.54	0.72	-0.750			
0.8324	53274.69	3.2500	3.2499	-0.2289	26.55	0.73	-0.750			
0.8331	53317.89	3.2470	3.2470	-0.2246	26.56	0.74	-0.750			
0.8338	53360.05	3.2440	3.2441	-0.2213	26.56	0.74	-0.750			
0.8344	53402.82	3.2410	3.2410	-0.2193	26.57	0.75	-0.750			
0.8351	53444.77	3.2380	3.2380	-0.2162	26.58	0.76	-0.750			
0.8357	53485.94	3.2350	3.2349	-0.2127	26.58	0.76	-0.750			
0.8363	53526.12	3.2320	3.2320	-0.2097	26.59	0.77	-0.750			
0.8370	53566.30	3.2290	3.2290	-0.2074	26.59	0.77	-0.750			
0.8376	53605.63	3.2260	3.2260	-0.2046	26.60	0.78	-0.750			
0.8382	53644.69	3.2230	3.2230	-0.2023	26.60	0.78	-0.750			
0.8388	53683.19	3.2200	3.2200	-0.1993	26.61	0.79	-0.750			
0.8394	53721.09	3.2170	3.2169	-0.1978	26.62	0.80	-0.750			
0.8400	53759.34	3.2140	3.2140	-0.1955	26.62	0.80	-0.750			
0.8406	53796.59	3.2110	3.2110	-0.1926	26.63	0.81	-0.750			
0.8411	53833.13	3.2080	3.2079	-0.1905	26.63	0.81	-0.750			
0.8417	53869.54	3.2050	3.2050	-0.1883	26.64	0.82	-0.750			
0.8423	53905.47	3.2020	3.2019	-0.1856	26.64	0.82	-0.750			
0.8428	53940.87	3.1990	3.1990	-0.1832	26.64	0.82	-0.750			
0.8434	53975.91	3.1960	3.1960	-0.1808	26.65	0.83	-0.750			
0.8439	54010.06	3.1930	3.1930	-0.1782	26.65	0.83	-0.750			
0.8444	54044.39	3.1900	3.1900	-0.1770	26.66	0.84	-0.750			
0.8450	54077.97	3.1870	3.1870	-0.1749	26.66	0.84	-0.750			
0.8455	54110.95	3.1840	3.1840	-0.1725	26.67	0.85	-0.750			
0.8460	54143.90	3.1810	3.1810	-0.1711	26.67	0.85	-0.750			
0.8465	54176.57	3.1780	3.1780	-0.1700	26.68	0.86	-0.750			
0.8470	54209.03	3.1750	3.1750	-0.1688	26.69	0.87	-0.750			
0.8475	54241.36	3.1720	3.1720	-0.1677	26.69	0.87	-0.750			
0.8480	54273.61	3.1690	3.1690	-0.1658	26.70	0.88	-0.750			
0.8485	54305.64	3.1660	3.1660	-0.1639	26.70	0.88	-0.750			
0.8490	54337.04	3.1630	3.1630	-0.1616	26.71	0.89	-0.750			
0.8495	54367.57	3.1600	3.1601	-0.1599	26.71	0.89	-0.750			
0.8500	54397.92	3.1570	3.1570	-0.1583	26.72	0.90	-0.750			
0.8504	54427.93	3.1540	3.1539	-0.1562	26.72	0.90	-0.750			
0.8509	54457.81	3.1510	3.1510	-0.1551	26.73	0.91	-0.750			
0.8514	54487.24	3.1480	3.1481	-0.1545	26.73	0.91	-0.750			
0.8518	54517.15	3.1450	3.1450	-0.1532	26.74	0.92	-0.750			
0.8523	54546.70	3.1420	3.1421	-0.1522	26.74	0.92	-0.750			
0.8527	54575.74	3.1390	3.1389	-0.1503	26.75	0.93	-0.750			
0.8532	54604.38	3.1360	3.1361	-0.1482	26.75	0.93	-0.750			
0.8536	54632.41	3.1330	3.1330	-0.1474	26.76	0.94	-0.750			
0.8541	54660.49	3.1300	3.1300	-0.1461	26.77	0.95	-0.750			
0.8545	54688.44	3.1270	3.1270	-0.1451	26.77	0.95	-0.750			
0.8549	54715.98	3.1240	3.1239	-0.1436	26.78	0.96	-0.750			
0.8554	54743.67	3.1210	3.1211	-0.1432	26.79	0.97	-0.750			
0.8558	54771.09	3.1180	3.1181	-0.1421	26.79	0.97	-0.750			
0.8562	54798.40	3.1150	3.1150	-0.1412	26.80	0.98	-0.750			
0.8566	54825.52	3.1120	3.1120	-0.1402	26.81	0.99	-0.750			
0.8571	54852.00	3.1090	3.1089	-0.1383	26.81	0.99	-0.750			
0.8575	54878.56	3.1060	3.1060	-0.1370	26.82	1.00	-0.750			
0.8579	54904.94	3.1030	3.1030	-0.1358	26.82	1.00	-0.750			
0.8583	54930.98	3.1000	3.1001	-0.1345	26.83	1.01	-0.750			
0.8587	54956.55	3.0970	3.0969	-0.1333	26.83	1.01	-0.750			
0.8591	54981.86	3.0940	3.0940	-0.1324	26.84	1.02	-0.750			
0.8595	55006.97	3.0910	3.0910	-0.1316	26.84	1.02	-0.750			
0.8599	55032.09	3.0880	3.0880	-0.1311	26.85	1.03	-0.750			
0.8603	55057.48	3.0850	3.0850	-0.1301	26.85	1.03	-0.750			
0.8607	55082.54	3.0820	3.0820	-0.1295	26.86	1.04	-0.750			
0.8611	55107.59	3.0790	3.0791	-0.1285	26.86	1.04	-0.750			
0.8614	55132.10	3.0760	3.0760	-0.1268	26.87	1.05	-0.750			
0.8618	55156.13	3.0730	3.0731	-0.1263	26.87	1.05	-0.750			
0.8622	55180.03	3.0700	3.0700	-0.1255	26.88	1.06	-0.750			
0.8626	55204.08	3.0670	3.0669	-0.1250	26.88	1.06	-0.750			
0.8629	55227.95	3.0640	3.0640	-0.1236	26.89	1.07	-0.750			
0.8633	55251.63	3.0610	3.0611	-0.1230	26.89	1.07	-0.750			
0.8637	55275.50	3.0580	3.0579	-0.1221	26.90	1.08	-0.750			
0.8640	55298.75	3.0550	3.0552	-0.1218	26.90	1.08	-0.750			
0.8644	55322.04	3.0520	3.0520	-0.1208	26.91	1.09	-0.750			
0.8648	55344.93	3.0490	3.0489	-0.1195	26.91	1.09	-0.750			
0.8651	55367.81	3.0460	3.0459	-0.1188	26.92	1.10	-0.750			
0.8655	55390.47	3.0430	3.0431	-0.1181	26.93	1.11	-0.750			
0.8658	55413.29	3.0400	3.0400	-0.1180	26.93	1.11	-0.750			
0.8662	55435.85	3.0370	3.0370	-0.1173	26.94	1.12	-0.750			
0.8665	55458.38	3.0340	3.0340	-0.1166	26.94	1.12	-0.750			
0.8669	55480.68	3.0310	3.0309	-0.1157	26.95	1.13	-0.750			
0.8672	55502.63	3.0280	3.0281	-0.1146	26.96	1.14	-0.750			
0.8676	55524.62	3.0250	3.0250	-0.1138	26.96	1.14	-0.750			
0.8679	55546.61	3.0220	3.0219	-0.1132	26.97	1.15	-0.750			
0.8683	55568.35	3.0190	3.0189	-0.1114	26.97	1.15	-0.750			
0.8686	55589.71	3.0160	3.0160	-0.1101	26.98	1.16	-0.750			
0.8689	55610.58	3.0130	3.0131	-0.1093	26.98	1.16	-0.750			
0.8692	55631.38	3.0100	3.0101	-0.1082	26.99	1.17	-0.750			
0.8696	55652.06	3.0070	3.0067	-0.1072	26.99	1.17	-0.751			
0.8699	55672.43	3.0040	3.0040	-0.1070	27.00	1.18	-0.751			
0.8702	55693.24	3.0010	3.0010	-0.1132	27.01	1.19	-0.751			
