Ah_balance (normalized)	Ah_balance (mAh)	Voltage - fit (V)	Voltage -  interpolate (V)	dQ/dV (1/V)	Temperature (°C)	Temperature - diff (°C)	Current (C)	R_DC 0ms (mOhm)	R_DC 50ms (mOhm)	R_DC 50 ms PEC (mOhm)
0.0580	3712.91	4.1970	4.1969	0.7494	25.90	-0.07	0.750			
0.0602	3854.46	4.1940	4.1941	0.7415	25.90	-0.07	0.750			
0.0625	3997.08	4.1910	4.1910	0.7473	25.90	-0.07	0.750			
0.0647	4142.64	4.1880	4.1880	0.7479	25.90	-0.07	0.750			
0.0670	4287.03	4.1850	4.1849	0.7442	25.90	-0.07	0.750			
0.0692	4430.65	4.1820	4.1821	0.7436	25.90	-0.07	0.750			
0.0715	4573.82	4.1790	4.1791	0.7381	25.90	-0.07	0.750			
0.0736	4713.44	4.1760	4.1760	0.7399	25.90	-0.07	0.750			
0.0758	4853.65	4.1730	4.1730	0.7373	25.90	-0.07	0.750			
0.0780	4993.95	4.1700	4.1700	0.7409	25.90	-0.07	0.750			
0.0803	5137.78	4.1670	4.1671	0.7483	25.90	-0.07	0.750			
0.0825	5282.61	4.1640	4.1639	0.7571	25.90	-0.07	0.750			
0.0848	5428.59	4.1610	4.1610	0.7577	25.90	-0.07	0.750			
0.0871	5575.59	4.1580	4.1580	0.7598	25.91	-0.06	0.750			
0.0894	5721.00	4.1550	4.1550	0.7563	25.91	-0.06	0.750			
0.0917	5867.83	4.1520	4.1518	0.7574	25.91	-0.06	0.750			
0.0939	6011.81	4.1490	4.1491	0.7564	25.91	-0.06	0.750			
0.0962	6157.15	4.1460	4.1460	0.7551	25.91	-0.06	0.750			
0.0984	6300.72	4.1430	4.1430	0.7556	25.91	-0.06	0.750			
0.1007	6446.26	4.1400	4.1400	0.7626	25.91	-0.06	0.750			
0.1030	6592.53	4.1370	4.1370	0.7648	25.91	-0.06	0.750			
0.1053	6740.58	4.1340	4.1340	0.7646	25.91	-0.06	0.750			
0.1076	6887.50	4.1310	4.1310	0.7671	25.91	-0.06	0.750			
0.1099	7034.58	4.1280	4.1281	0.7649	25.91	-0.06	0.750			
0.1122	7182.05	4.1250	4.1249	0.7667	25.91	-0.06	0.750			
0.1145	7327.62	4.1220	4.1220	0.7664	25.91	-0.06	0.750			
0.1168	7474.77	4.1190	4.1186	0.7682	25.91	-0.06	0.750			
0.1191	7623.01	4.1160	4.1160	0.7720	25.91	-0.06	0.750			
0.1214	7772.56	4.1130	4.1130	0.7708	25.92	-0.05	0.750			
0.1237	7918.95	4.1100	4.1101	0.7753	25.92	-0.05	0.750			
0.1261	8069.09	4.1070	4.1070	0.7797	25.92	-0.05	0.750			
0.1284	8218.77	4.1040	4.1039	0.7771	25.93	-0.04	0.750			
0.1308	8368.43	4.1010	4.1010	0.7767	25.93	-0.04	0.750			
0.1331	8518.74	4.0980	4.0982	0.7758	25.93	-0.04	0.750			
0.1354	8666.39	4.0950	4.0950	0.7778	25.93	-0.04	0.750			
0.1377	8815.62	4.0920	4.0919	0.7814	25.93	-0.04	0.750			
0.1401	8964.10	4.0890	4.0890	0.7802	25.93	-0.04	0.750			
0.1424	9114.38	4.0860	4.0861	0.7849	25.93	-0.04	0.750			
0.1448	9266.38	4.0830	4.0831	0.7888	25.93	-0.04	0.750			
0.1472	9418.39	4.0800	4.0800	0.7881	25.94	-0.03	0.750			
0.1495	9568.41	4.0770	4.0770	0.7914	25.94	-0.03	0.750			
0.1519	9719.22	4.0740	4.0741	0.7892	25.95	-0.02	0.750			
0.1543	9872.01	4.0710	4.0706	0.7962	25.95	-0.02	0.750			
0.1567	10025.98	4.0680	4.0681	0.8002	25.95	-0.02	0.750			
0.1591	10180.48	4.0650	4.0651	0.7997	25.95	-0.02	0.750			
0.1615	10335.35	4.0620	4.0621	0.8053	25.95	-0.02	0.750			
0.1639	10488.00	4.0590	4.0590	0.7984	25.95	-0.02	0.750			
0.1663	10642.60	4.0560	4.0559	0.8054	25.95	-0.02	0.750			
0.1687	10797.00	4.0530	4.0531	0.8121	25.95	-0.02	0.750			
0.1711	10953.55	4.0500	4.0500	0.8123	25.95	-0.02	0.750			
0.1736	11112.26	4.0470	4.0469	0.8173	25.95	-0.02	0.750			
0.1761	11269.62	4.0440	4.0441	0.8169	25.95	-0.02	0.750			
0.1785	11424.78	4.0410	4.0410	0.8156	25.95	-0.02	0.750			
0.1810	11581.64	4.0380	4.0380	0.8191	25.95	-0.02	0.750			
0.1834	11738.64	4.0350	4.0350	0.8153	25.96	-0.01	0.750			
0.1859	11894.46	4.0320	4.0320	0.8199	25.96	-0.01	0.750			
0.1883	12052.93	4.0290	4.0290	0.8282	25.96	-0.01	0.750			
0.1908	12211.28	4.0260	4.0260	0.8338	25.97	-0.00	0.750			
0.1933	12372.48	4.0230	4.0230	0.8383	25.97	0.00	0.750			
0.1959	12534.86	4.0200	4.0200	0.8377	25.98	0.01	0.750			
0.1984	12695.56	4.0170	4.0171	0.8437	25.98	0.01	0.750			
0.2009	12858.53	4.0140	4.0141	0.8489	25.98	0.01	0.750			
0.2035	13021.29	4.0110	4.0109	0.8507	25.99	0.02	0.750			
0.2060	13184.77	4.0080	4.0080	0.8524	25.99	0.02	0.750			
0.2086	13349.20	4.0050	4.0051	0.8502	25.99	0.02	0.750			
0.2111	13512.75	4.0020	4.0021	0.8547	25.99	0.02	0.750			
0.2137	13678.05	3.9990	3.9989	0.8523	25.99	0.02	0.750			
0.2163	13840.79	3.9960	3.9959	0.8515	25.99	0.02	0.750			
0.2188	14003.25	3.9930	3.9931	0.8507	25.99	0.02	0.750			
0.2214	14167.25	3.9900	3.9901	0.8460	25.99	0.02	0.750			
0.2239	14330.74	3.9870	3.9870	0.8516	25.99	0.02	0.750			
0.2265	14492.89	3.9840	3.9841	0.8520	25.99	0.02	0.750			
0.2290	14656.22	3.9810	3.9808	0.8547	25.99	0.02	0.750			
0.2316	14821.38	3.9780	3.9781	0.8609	25.99	0.02	0.750			
0.2342	14986.63	3.9750	3.9750	0.8580	26.00	0.03	0.750			
0.2368	15152.15	3.9720	3.9721	0.8637	26.00	0.03	0.750			
0.2393	15318.14	3.9690	3.9690	0.8584	26.01	0.04	0.750			
0.2419	15482.51	3.9660	3.9657	0.8608	26.01	0.04	0.750			
0.2445	15649.28	3.9630	3.9631	0.8580	26.01	0.04	0.750			
0.2471	15813.71	3.9600	3.9600	0.8646	26.01	0.04	0.750			
0.2497	15980.06	3.9570	3.9570	0.8712	26.01	0.04	0.750			
0.2523	16147.56	3.9540	3.9541	0.8710	26.01	0.04	0.750			
0.2549	16314.55	3.9510	3.9511	0.8761	26.01	0.04	0.750			
0.2576	16486.31	3.9480	3.9480	0.8744	26.01	0.04	0.750			
0.2602	16654.32	3.9450	3.9450	0.8780	26.01	0.04	0.750			
0.2628	16821.02	3.9420	3.9421	0.8853	26.01	0.04	0.750			
0.2655	16989.57	3.9390	3.9391	0.8865	26.01	0.04	0.750			
0.2681	17161.21	3.9360	3.9361	0.8917	26.01	0.04	0.750			
0.2709	17335.86	3.9330	3.9328	0.8884	26.00	0.03	0.750			
0.2735	17506.71	3.9300	3.9302	0.8853	26.00	0.03	0.750			
0.2762	17678.87	3.9270	3.9271	0.8883	25.99	0.02	0.750			
0.2788	17846.26	3.9240	3.9236	0.8775	25.99	0.02	0.750			
0.2814	18012.60	3.9210	3.9211	0.8770	25.99	0.02	0.750			
0.2840	18178.58	3.9180	3.9180	0.8768	25.99	0.02	0.750			
0.2867	18347.57	3.9150	3.9150	0.8843	25.99	0.02	0.750			
0.2894	18520.47	3.9120	3.9120	0.8963	25.99	0.02	0.750			
0.2921	18691.43	3.9090	3.9090	0.8991	25.99	0.02	0.750			
0.2948	18866.28	3.9060	3.9060	0.8957	25.99	0.02	0.750			
0.2975	19038.66	3.9030	3.9030	0.9027	25.98	0.01	0.750			
0.3002	19211.01	3.9000	3.9001	0.9071	25.98	0.01	0.750			
0.3029	19385.22	3.8970	3.8970	0.9123	25.97	0.00	0.750			
0.3056	19560.73	3.8940	3.8940	0.9134	25.97	-0.00	0.750			
0.3084	19737.77	3.8910	3.8910	0.9093	25.96	-0.01	0.750			
0.3111	19912.76	3.8880	3.8881	0.9101	25.96	-0.01	0.750			
0.3139	20088.71	3.8850	3.8850	0.9170	25.95	-0.02	0.750			
0.3166	20260.90	3.8820	3.8819	0.9172	25.95	-0.02	0.750			
0.3193	20436.52	3.8790	3.8790	0.9157	25.95	-0.02	0.750			
0.3221	20612.89	3.8760	3.8759	0.9258	25.94	-0.03	0.750			
0.3249	20794.18	3.8730	3.8731	0.9356	25.94	-0.03	0.750			
0.3277	20975.40	3.8700	3.8700	0.9397	25.93	-0.04	0.750			
0.3305	21155.08	3.8670	3.8670	0.9424	25.93	-0.04	0.750			
0.3334	21336.82	3.8640	3.8640	0.9294	25.92	-0.05	0.750			
0.3361	21512.87	3.8610	3.8611	0.9352	25.92	-0.05	0.750			
0.3390	21692.92	3.8580	3.8581	0.9433	25.91	-0.06	0.750			
0.3418	21873.26	3.8550	3.8545	0.9402	25.91	-0.06	0.750			
0.3446	22054.71	3.8520	3.8520	0.9429	25.90	-0.07	0.750			
0.3474	22235.83	3.8490	3.8492	0.9473	25.89	-0.08	0.750			
0.3503	22420.82	3.8460	3.8460	0.9504	25.88	-0.09	0.750			
0.3532	22602.32	3.8430	3.8430	0.9484	25.87	-0.10	0.750			
0.3560	22784.71	3.8400	3.8400	0.9506	25.87	-0.10	0.750			
0.3588	22965.72	3.8370	3.8370	0.9596	25.86	-0.11	0.750			
0.3618	23152.28	3.8340	3.8340	0.9680	25.86	-0.11	0.750			
0.3647	23338.43	3.8310	3.8310	0.9733	25.85	-0.12	0.750			
0.3676	23525.29	3.8280	3.8280	0.9825	25.85	-0.12	0.750			
0.3705	23714.85	3.8250	3.8251	0.9868	25.84	-0.13	0.750			
0.3735	23904.24	3.8220	3.8219	0.9902	25.83	-0.14	0.750			
0.3765	24095.43	3.8190	3.8191	0.9974	25.83	-0.14	0.750			
0.3795	24286.34	3.8160	3.8158	1.0038	25.82	-0.15	0.750			
0.3825	24481.30	3.8130	3.8131	1.0068	25.81	-0.16	0.750			
0.3855	24672.83	3.8100	3.8100	1.0186	25.81	-0.16	0.750			
0.3885	24867.05	3.8070	3.8071	1.0301	25.81	-0.16	0.750			
0.3917	25068.36	3.8040	3.8037	1.0431	25.80	-0.17	0.750			
0.3948	25267.97	3.8010	3.8010	1.0570	25.79	-0.18	0.750			
0.3980	25471.67	3.7980	3.7981	1.0807	25.79	-0.18	0.750			
0.4013	25682.58	3.7950	3.7950	1.0974	25.78	-0.19	0.750			
0.4047	25900.55	3.7920	3.7918	1.0941	25.77	-0.20	0.750			
0.4079	26108.52	3.7890	3.7892	1.1095	25.76	-0.21	0.750			
0.4112	26319.22	3.7860	3.7861	1.1301	25.76	-0.21	0.750			
0.4147	26537.97	3.7830	3.7830	1.1503	25.75	-0.22	0.750			
0.4181	26756.41	3.7800	3.7802	1.1690	25.75	-0.22	0.750			
0.4216	26981.51	3.7770	3.7771	1.2038	25.74	-0.23	0.750			
0.4253	27220.43	3.7740	3.7741	1.2416	25.73	-0.24	0.750			
0.4292	27467.64	3.7710	3.7705	1.2504	25.72	-0.25	0.750	0.320	0.455	
0.4329	27708.47	3.7680	3.7681	1.2757	25.71	-0.26	0.750			
0.4368	27953.60	3.7650	3.7651	1.3066	25.70	-0.27	0.750			
0.4408	28208.83	3.7620	3.7618	1.3247	25.68	-0.29	0.750			
0.4447	28462.77	3.7590	3.7591	1.3506	25.68	-0.29	0.750			
0.4488	28721.87	3.7560	3.7561	1.3759	25.67	-0.30	0.750			
0.4530	28990.35	3.7530	3.7530	1.4082	25.66	-0.31	0.750			
0.4573	29267.21	3.7500	3.7498	1.4353	25.65	-0.32	0.750			
0.4616	29540.25	3.7470	3.7472	1.4551	25.64	-0.33	0.750			
0.4659	29819.71	3.7440	3.7441	1.4962	25.62	-0.35	0.750			
0.4704	30108.77	3.7410	3.7407	1.5341	25.61	-0.36	0.750			
0.4752	30412.27	3.7380	3.7380	1.5726	25.59	-0.38	0.750			
0.4799	30716.01	3.7350	3.7349	1.6158	25.58	-0.39	0.750			
0.4849	31033.62	3.7320	3.7321	1.6645	25.57	-0.40	0.750			
0.4899	31354.27	3.7290	3.7290	1.7012	25.56	-0.41	0.750			
0.4951	31684.22	3.7260	3.7262	1.7520	25.55	-0.42	0.750			
0.5004	32023.76	3.7230	3.7231	1.7781	25.54	-0.43	0.750			
0.5058	32372.09	3.7200	3.7200	1.8437	25.53	-0.44	0.750			
0.5114	32730.84	3.7170	3.7168	1.9053	25.51	-0.46	0.750			
0.5172	33100.39	3.7140	3.7137	1.9638	25.50	-0.47	0.750			
0.5231	33480.06	3.7110	3.7114	2.0332	25.49	-0.48	0.750			
0.5293	33875.87	3.7080	3.7081	2.1076	25.49	-0.48	0.750			
0.5358	34289.28	3.7050	3.7051	2.1616	25.47	-0.50	0.750			
0.5424	34712.42	3.7020	3.7020	2.2275	25.46	-0.51	0.750			
0.5492	35150.08	3.6990	3.6990	2.2997	25.45	-0.52	0.750			
0.5562	35594.14	3.6960	3.6959	2.3666	25.44	-0.53	0.750			
0.5634	36057.65	3.6930	3.6931	2.4324	25.43	-0.54	0.750			
0.5708	36531.10	3.6900	3.6901	2.5190	25.43	-0.54	0.750			
0.5785	37024.26	3.6870	3.6870	2.5990	25.42	-0.55	0.750			
0.5863	37522.68	3.6840	3.6839	2.6762	25.41	-0.56	0.750			
0.5944	38043.26	3.6810	3.6807	2.7596	25.41	-0.56	0.750			
0.6030	38593.32	3.6780	3.6780	2.7805	25.41	-0.56	0.750			
0.6115	39137.51	3.6750	3.6750	2.7573	25.42	-0.55	0.750			
0.6200	39680.33	3.6720	3.6719	2.6294	25.42	-0.55	0.750			
0.6278	40176.15	3.6690	3.6690	2.4208	25.43	-0.54	0.750			
0.6346	40616.47	3.6660	3.6664	2.1880	25.43	-0.54	0.750			
0.6407	41005.23	3.6630	3.6629	1.9775	25.44	-0.53	0.750			
0.6462	41354.55	3.6600	3.6598	1.8044	25.45	-0.52	0.750			
0.6511	41670.24	3.6570	3.6570	1.6436	25.45	-0.52	0.750			
0.6559	41974.67	3.6540	3.6541	1.5414	25.46	-0.51	0.750			
0.6604	42264.86	3.6510	3.6510	1.4617	25.47	-0.50	0.750			
0.6644	42523.35	3.6480	3.6480	1.3461	25.48	-0.49	0.750			
0.6684	42776.00	3.6450	3.6450	1.2559	25.48	-0.49	0.750			
0.6718	42996.73	3.6420	3.6420	1.2089	25.49	-0.48	0.750			
0.6753	43220.58	3.6390	3.6391	1.1830	25.49	-0.48	0.750			
0.6788	43443.34	3.6360	3.6356	1.1641	25.50	-0.47	0.750			
0.6823	43664.02	3.6330	3.6331	1.1690	25.50	-0.47	0.750			
0.6858	43889.97	3.6300	3.6301	1.1754	25.51	-0.46	0.750			
0.6894	44118.44	3.6270	3.6270	1.1857	25.51	-0.46	0.750			
0.6929	44346.21	3.6240	3.6242	1.1724	25.51	-0.46	0.750			
0.6964	44571.52	3.6210	3.6211	1.1696	25.52	-0.45	0.750			
0.7000	44799.17	3.6180	3.6180	1.1641	25.53	-0.44	0.750			
0.7035	45024.30	3.6150	3.6149	1.1457	25.54	-0.43	0.750			
0.7069	45244.22	3.6120	3.6121	1.1140	25.54	-0.43	0.750			
0.7102	45451.06	3.6090	3.6091	1.1022	25.55	-0.42	0.750			
0.7134	45656.58	3.6060	3.6062	1.0950	25.55	-0.42	0.750			
0.7166	45865.11	3.6030	3.6026	1.1056	25.56	-0.41	0.750			
0.7199	46072.55	3.6000	3.6000	1.1193	25.56	-0.41	0.750			
0.7233	46289.47	3.5970	3.5971	1.1488	25.57	-0.40	0.750			
0.7268	46515.86	3.5940	3.5940	1.1892	25.58	-0.39	0.750			
0.7304	46746.38	3.5910	3.5910	1.2144	25.58	-0.39	0.750			
0.7341	46981.00	3.5880	3.5880	1.2559	25.58	-0.39	0.750			
0.7379	47224.73	3.5850	3.5850	1.2969	25.59	-0.38	0.750			
0.7419	47479.85	3.5820	3.5819	1.3257	25.59	-0.38	0.750			
0.7459	47739.37	3.5790	3.5791	1.3604	25.59	-0.38	0.750			
0.7500	48001.14	3.5760	3.5761	1.4214	25.60	-0.37	0.750			
0.7544	48279.05	3.5730	3.5727	1.4736	25.60	-0.37	0.750			
0.7589	48567.63	3.5700	3.5701	1.5234	25.61	-0.36	0.750			
0.7636	48871.02	3.5670	3.5672	1.5390	25.61	-0.36	0.750			
0.7684	49176.06	3.5640	3.5641	1.5811	25.62	-0.35	0.750			
0.7732	49485.51	3.5610	3.5611	1.5926	25.63	-0.34	0.750			
0.7780	49793.40	3.5580	3.5579	1.5924	25.64	-0.33	0.750			
0.7827	50093.15	3.5550	3.5551	1.6037	25.64	-0.33	0.750			
0.7876	50404.66	3.5520	3.5521	1.6317	25.65	-0.32	0.750			
0.7925	50717.97	3.5490	3.5490	1.6657	25.65	-0.32	0.750			
0.7976	51044.89	3.5460	3.5460	1.6984	25.66	-0.31	0.750			
0.8026	51368.10	3.5430	3.5430	1.7256	25.68	-0.29	0.750			
0.8080	51713.06	3.5400	3.5402	1.7526	25.69	-0.28	0.750			
0.8136	52068.76	3.5370	3.5370	1.7014	25.71	-0.26	0.750			
0.8190	52416.67	3.5340	3.5341	1.5303	25.73	-0.24	0.750			
0.8238	52724.95	3.5310	3.5312	1.3486	25.75	-0.22	0.750			
0.8277	52971.25	3.5280	3.5288	1.1179	25.76	-0.21	0.750			
0.8305	53150.48	3.5250	3.5247	0.8506	25.77	-0.20	0.750			
0.8323	53265.54	3.5220	3.5215	0.6435	25.79	-0.18	0.750			
0.8335	53343.33	3.5190	3.5187	0.4735	25.80	-0.17	0.750			
0.8346	53411.71	3.5160	3.5158	0.4038	25.81	-0.16	0.750			
0.8356	53479.50	3.5130	3.5129	0.3571	25.82	-0.15	0.750			
0.8366	53543.16	3.5100	3.5100	0.3331	25.83	-0.14	0.750			
0.8376	53603.68	3.5070	3.5070	0.3158	25.83	-0.14	0.750			
0.8385	53661.86	3.5040	3.5041	0.3015	25.84	-0.13	0.750			
0.8393	53718.32	3.5010	3.5009	0.2909	25.85	-0.12	0.750			
0.8402	53772.84	3.4980	3.4979	0.2809	25.86	-0.11	0.750			
0.8410	53825.73	3.4950	3.4951	0.2745	25.86	-0.11	0.750			
0.8418	53877.59	3.4920	3.4920	0.2693	25.87	-0.10	0.750			
0.8426	53928.21	3.4890	3.4890	0.2629	25.87	-0.10	0.750			
0.8434	53977.70	3.4860	3.4858	0.2558	25.87	-0.10	0.750			
0.8442	54027.09	3.4830	3.4831	0.2521	25.88	-0.09	0.750			
0.8449	54075.38	3.4800	3.4801	0.2473	25.88	-0.09	0.750			
0.8457	54122.70	3.4770	3.4770	0.2409	25.89	-0.08	0.750			
0.8464	54168.30	3.4740	3.4740	0.2350	25.90	-0.07	0.750			
0.8471	54211.92	3.4710	3.4710	0.2280	25.90	-0.07	0.750			
0.8477	54254.98	3.4680	3.4681	0.2226	25.91	-0.06	0.750			
0.8484	54297.37	3.4650	3.4649	0.2171	25.92	-0.05	0.750			
0.8490	54338.61	3.4620	3.4620	0.2116	25.92	-0.05	0.750			
0.8497	54378.59	3.4590	3.4591	0.2065	25.93	-0.04	0.750			
0.8503	54417.74	3.4560	3.4560	0.2013	25.93	-0.04	0.750			
0.8509	54455.87	3.4530	3.4530	0.1970	25.94	-0.03	0.750			
0.8515	54493.08	3.4500	3.4499	0.1913	25.94	-0.03	0.750			
0.8520	54529.76	3.4470	3.4470	0.1857	25.95	-0.02	0.750			
0.8526	54564.87	3.4440	3.4440	0.1800	25.95	-0.02	0.750			
0.8531	54599.14	3.4410	3.4411	0.1751	25.96	-0.01	0.750			
0.8536	54632.27	3.4380	3.4380	0.1695	25.96	-0.01	0.750			
0.8541	54664.03	3.4350	3.4350	0.1631	25.97	-0.00	0.750			
0.8546	54694.79	3.4320	3.4318	0.1574	25.97	0.00	0.750			
0.8551	54724.28	3.4290	3.4291	0.1514	25.98	0.01	0.750			
0.8555	54753.13	3.4260	3.4262	0.1459	25.98	0.01	0.750			
0.8560	54780.89	3.4230	3.4229	0.1405	25.99	0.02	0.750			
0.8564	54807.18	3.4200	3.4201	0.1338	25.99	0.02	0.750			
0.8568	54832.02	3.4170	3.4170	0.1269	25.99	0.02	0.750			
0.8571	54856.21	3.4140	3.4141	0.1198	26.00	0.03	0.750			
0.8575	54878.70	3.4110	3.4109	0.1127	26.00	0.03	0.750			
0.8578	54900.75	3.4080	3.4079	0.1026	26.00	0.03	0.750			
0.8581	54919.86	3.4050	3.4050	0.0939	26.01	0.04	0.750			
0.8584	54936.87	3.4020	3.4021	0.0833	26.01	0.04	0.750			
0.8586	54952.56	3.3990	3.3993	0.0736	26.01	0.04	0.750			
0.8588	54965.59	3.3960	3.3963	0.0622	26.01	0.04	0.750			
0.8590	54977.04	3.3930	3.3938	0.0508	26.01	0.04	0.750			
0.8592	54985.64	3.3900	3.3911	0.0388	26.02	0.05	0.750			
0.8592	54991.94	3.3870	3.3885	0.0268	26.02	0.05	0.750			
0.8593	54995.93	3.3840	3.3864	0.0148	26.02	0.05	0.750			
