Ah_balance (normalized)	Ah_balance (mAh)	Voltage - fit (V)	Voltage -  interpolate (V)	dQ/dV (1/V)	Temperature (°C)	Temperature - diff (°C)	Current (C)	R_DC 0ms (mOhm)	R_DC 50ms (mOhm)	R_DC 50 ms PEC (mOhm)
0.0563	3602.60	4.1970	4.1969	0.7458	26.68	0.74	0.750			
0.0586	3747.68	4.1940	4.1940	0.7554	26.68	0.74	0.750			
0.0608	3894.35	4.1910	4.1909	0.7530	26.68	0.74	0.750			
0.0631	4037.53	4.1880	4.1881	0.7514	26.67	0.73	0.750			
0.0653	4180.65	4.1850	4.1851	0.7488	26.67	0.73	0.750			
0.0676	4325.83	4.1820	4.1820	0.7503	26.67	0.73	0.750			
0.0698	4468.50	4.1790	4.1791	0.7491	26.67	0.73	0.750			
0.0721	4611.91	4.1760	4.1760	0.7497	26.67	0.73	0.750			
0.0743	4755.70	4.1730	4.1730	0.7530	26.67	0.73	0.750			
0.0766	4901.38	4.1700	4.1700	0.7573	26.66	0.72	0.750			
0.0789	5046.53	4.1670	4.1670	0.7566	26.66	0.72	0.750			
0.0811	5191.99	4.1640	4.1638	0.7604	26.66	0.72	0.750			
0.0834	5338.22	4.1610	4.1611	0.7643	26.66	0.72	0.750			
0.0857	5485.83	4.1580	4.1580	0.7638	26.66	0.72	0.750			
0.0880	5633.05	4.1550	4.1550	0.7660	26.66	0.72	0.750			
0.0903	5780.18	4.1520	4.1520	0.7654	26.66	0.72	0.750			
0.0926	5926.46	4.1490	4.1491	0.7671	26.66	0.72	0.750			
0.0949	6074.24	4.1460	4.1460	0.7672	26.66	0.72	0.750			
0.0972	6221.16	4.1430	4.1430	0.7651	26.65	0.71	0.750			
0.0995	6368.03	4.1400	4.1400	0.7665	26.65	0.71	0.750			
0.1018	6515.36	4.1370	4.1370	0.7706	26.65	0.71	0.750			
0.1041	6663.37	4.1340	4.1340	0.7674	26.64	0.70	0.750			
0.1064	6810.54	4.1310	4.1309	0.7690	26.64	0.70	0.750			
0.1087	6958.12	4.1280	4.1280	0.7678	26.64	0.70	0.750			
0.1111	7107.29	4.1250	4.1250	0.7664	26.64	0.70	0.750			
0.1133	7252.65	4.1220	4.1220	0.7706	26.64	0.70	0.750			
0.1156	7400.18	4.1190	4.1190	0.7718	26.64	0.70	0.750			
0.1179	7547.05	4.1160	4.1159	0.7769	26.64	0.70	0.750			
0.1203	7698.09	4.1130	4.1131	0.7820	26.64	0.70	0.750			
0.1227	7850.33	4.1100	4.1100	0.7797	26.64	0.70	0.750			
0.1250	8000.96	4.1070	4.1071	0.7821	26.63	0.69	0.750			
0.1274	8151.00	4.1040	4.1040	0.7840	26.63	0.69	0.750			
0.1297	8298.55	4.1010	4.1010	0.7871	26.63	0.69	0.750			
0.1320	8450.44	4.0980	4.0979	0.7890	26.63	0.69	0.750			
0.1344	8602.69	4.0950	4.0949	0.7874	26.63	0.69	0.750			
0.1368	8755.62	4.0920	4.0921	0.7937	26.63	0.69	0.750			
0.1392	8908.11	4.0890	4.0891	0.7941	26.62	0.68	0.750			
0.1416	9060.10	4.0860	4.0859	0.7925	26.62	0.68	0.750			
0.1439	9211.27	4.0830	4.0829	0.7907	26.62	0.68	0.750			
0.1463	9362.50	4.0800	4.0800	0.7947	26.62	0.68	0.750			
0.1487	9518.13	4.0770	4.0770	0.7979	26.62	0.68	0.750			
0.1511	9669.87	4.0740	4.0741	0.8014	26.62	0.68	0.750			
0.1535	9823.41	4.0710	4.0710	0.8008	26.62	0.68	0.750			
0.1559	9977.72	4.0680	4.0678	0.8053	26.62	0.68	0.750			
0.1583	10131.88	4.0650	4.0651	0.8080	26.62	0.68	0.750			
0.1608	10288.15	4.0620	4.0621	0.8080	26.62	0.68	0.750			
0.1632	10444.37	4.0590	4.0590	0.8121	26.62	0.68	0.750			
0.1656	10598.28	4.0560	4.0561	0.8147	26.62	0.68	0.750			
0.1681	10755.54	4.0530	4.0530	0.8219	26.62	0.68	0.750			
0.1706	10915.88	4.0500	4.0499	0.8242	26.62	0.68	0.750			
0.1731	11075.61	4.0470	4.0470	0.8182	26.62	0.68	0.750			
0.1755	11232.58	4.0440	4.0441	0.8251	26.61	0.67	0.750			
0.1780	11390.67	4.0410	4.0409	0.8302	26.61	0.67	0.750			
0.1804	11548.65	4.0380	4.0379	0.8262	26.61	0.67	0.750			
0.1829	11706.97	4.0350	4.0351	0.8287	26.61	0.67	0.750			
0.1855	11868.88	4.0320	4.0321	0.8283	26.61	0.67	0.750			
0.1879	12027.18	4.0290	4.0290	0.8410	26.61	0.67	0.750			
0.1905	12189.74	4.0260	4.0260	0.8429	26.61	0.67	0.750			
0.1930	12349.64	4.0230	4.0228	0.8417	26.61	0.67	0.750			
0.1955	12512.28	4.0200	4.0201	0.8464	26.61	0.67	0.750			
0.1981	12678.53	4.0170	4.0171	0.8437	26.61	0.67	0.750			
0.2006	12839.70	4.0140	4.0140	0.8488	26.60	0.66	0.750			
0.2031	13001.23	4.0110	4.0111	0.8466	26.60	0.66	0.750			
0.2057	13164.21	4.0080	4.0078	0.8512	26.60	0.66	0.750			
0.2083	13330.44	4.0050	4.0050	0.8566	26.60	0.66	0.750			
0.2109	13494.55	4.0020	4.0020	0.8534	26.60	0.66	0.750			
0.2134	13658.84	3.9990	3.9991	0.8572	26.60	0.66	0.750			
0.2159	13820.61	3.9960	3.9961	0.8564	26.60	0.66	0.750			
0.2185	13986.66	3.9930	3.9927	0.8628	26.60	0.66	0.750			
0.2212	14154.06	3.9900	3.9900	0.8586	26.60	0.66	0.750			
0.2237	14319.22	3.9870	3.9871	0.8637	26.60	0.66	0.750			
0.2264	14487.53	3.9840	3.9842	0.8714	26.60	0.66	0.750			
0.2290	14653.37	3.9810	3.9810	0.8670	26.60	0.66	0.750			
0.2315	14818.50	3.9780	3.9778	0.8710	26.60	0.66	0.750			
0.2342	14987.41	3.9750	3.9751	0.8668	26.60	0.66	0.750			
0.2368	15155.75	3.9720	3.9721	0.8717	26.60	0.66	0.750			
0.2394	15321.95	3.9690	3.9690	0.8764	26.60	0.66	0.750			
0.2420	15489.70	3.9660	3.9659	0.8769	26.60	0.66	0.750			
0.2446	15657.14	3.9630	3.9632	0.8766	26.60	0.66	0.750			
0.2473	15827.25	3.9600	3.9600	0.8784	26.60	0.66	0.750			
0.2499	15996.35	3.9570	3.9571	0.8809	26.60	0.66	0.750			
0.2526	16167.60	3.9540	3.9540	0.8861	26.60	0.66	0.750			
0.2553	16336.17	3.9510	3.9510	0.8825	26.60	0.66	0.750			
0.2579	16505.52	3.9480	3.9480	0.8792	26.60	0.66	0.750			
0.2605	16674.12	3.9450	3.9451	0.8774	26.60	0.66	0.750			
0.2632	16842.51	3.9420	3.9420	0.8800	26.59	0.65	0.750			
0.2658	17009.90	3.9390	3.9391	0.8832	26.59	0.65	0.750			
0.2684	17180.28	3.9360	3.9357	0.8862	26.59	0.65	0.750			
0.2711	17350.79	3.9330	3.9330	0.8863	26.59	0.65	0.750			
0.2738	17522.21	3.9300	3.9300	0.8897	26.58	0.64	0.750			
0.2765	17695.49	3.9270	3.9271	0.8934	26.58	0.64	0.750			
0.2792	17866.07	3.9240	3.9240	0.8922	26.57	0.63	0.750			
0.2818	18034.30	3.9210	3.9210	0.8914	26.57	0.63	0.750			
0.2845	18206.14	3.9180	3.9180	0.8925	26.56	0.62	0.750			
0.2872	18377.81	3.9150	3.9150	0.8991	26.56	0.62	0.750			
0.2899	18550.56	3.9120	3.9120	0.9032	26.56	0.62	0.750			
0.2926	18724.29	3.9090	3.9090	0.9093	26.55	0.61	0.750			
0.2953	18898.66	3.9060	3.9060	0.9190	26.55	0.61	0.750			
0.2981	19077.35	3.9030	3.9030	0.9090	26.54	0.60	0.750			
0.3008	19250.54	3.9000	3.9001	0.9162	26.53	0.59	0.750			
0.3035	19427.13	3.8970	3.8971	0.9230	26.53	0.59	0.750			
0.3063	19603.39	3.8940	3.8934	0.9248	26.52	0.58	0.750			
0.3091	19781.35	3.8910	3.8911	0.9228	26.51	0.57	0.750			
0.3119	19958.69	3.8880	3.8881	0.9261	26.51	0.57	0.750			
0.3147	20138.03	3.8850	3.8850	0.9339	26.50	0.56	0.750			
0.3174	20316.53	3.8820	3.8821	0.9346	26.49	0.55	0.750			
0.3203	20497.93	3.8790	3.8790	0.9369	26.49	0.55	0.750			
0.3231	20678.88	3.8760	3.8760	0.9403	26.48	0.54	0.750			
0.3259	20859.99	3.8730	3.8730	0.9460	26.47	0.53	0.750			
0.3288	21042.94	3.8700	3.8701	0.9522	26.47	0.53	0.750			
0.3316	21225.31	3.8670	3.8669	0.9484	26.46	0.52	0.750			
0.3345	21407.85	3.8640	3.8639	0.9386	26.45	0.51	0.750			
0.3373	21586.07	3.8610	3.8611	0.9435	26.44	0.50	0.750			
0.3401	21768.73	3.8580	3.8580	0.9505	26.43	0.49	0.750			
0.3430	21951.36	3.8550	3.8548	0.9519	26.42	0.48	0.750			
0.3459	22135.39	3.8520	3.8520	0.9439	26.41	0.47	0.750			
0.3487	22315.94	3.8490	3.8491	0.9503	26.40	0.46	0.750			
0.3515	22497.31	3.8460	3.8461	0.9634	26.40	0.46	0.750			
0.3544	22683.66	3.8430	3.8430	0.9686	26.39	0.45	0.750			
0.3573	22869.05	3.8400	3.8401	0.9632	26.38	0.44	0.750			
0.3602	23055.25	3.8370	3.8370	0.9701	26.37	0.43	0.750			
0.3632	23244.45	3.8340	3.8342	0.9757	26.36	0.42	0.750			
0.3661	23432.36	3.8310	3.8310	0.9814	26.35	0.41	0.750			
0.3691	23619.50	3.8280	3.8279	0.9777	26.34	0.40	0.750			
0.3720	23806.10	3.8250	3.8250	0.9764	26.33	0.39	0.750			
0.3749	23994.28	3.8220	3.8221	0.9873	26.33	0.39	0.750			
0.3779	24183.23	3.8190	3.8190	0.9977	26.32	0.38	0.750			
0.3809	24374.63	3.8160	3.8156	1.0027	26.31	0.37	0.750			
0.3839	24567.44	3.8130	3.8131	1.0147	26.30	0.36	0.750			
0.3869	24761.99	3.8100	3.8101	1.0310	26.29	0.35	0.750			
0.3901	24964.93	3.8070	3.8070	1.0452	26.28	0.34	0.750			
0.3932	25167.03	3.8040	3.8038	1.0585	26.27	0.33	0.750			
0.3964	25370.47	3.8010	3.8011	1.0564	26.27	0.33	0.750			
0.3996	25572.16	3.7980	3.7980	1.0730	26.26	0.32	0.750			
0.4028	25779.33	3.7950	3.7951	1.0892	26.26	0.32	0.750			
0.4061	25989.71	3.7920	3.7916	1.0984	26.25	0.31	0.750			
0.4094	26200.62	3.7890	3.7891	1.1122	26.24	0.30	0.750			
0.4128	26416.33	3.7860	3.7861	1.1341	26.23	0.29	0.750			
0.4162	26635.29	3.7830	3.7830	1.1511	26.22	0.28	0.750			
0.4197	26858.92	3.7800	3.7801	1.1539	26.21	0.27	0.750			
0.4231	27079.38	3.7770	3.7770	1.1770	26.20	0.26	0.750			
0.4266	27304.24	3.7740	3.7742	1.2135	26.19	0.25	0.750			
0.4303	27541.85	3.7710	3.7709	1.2429	26.18	0.24	0.750			
0.4341	27781.23	3.7680	3.7679	1.2844	26.17	0.23	0.750	0.296	0.430	
0.4380	28032.10	3.7650	3.7652	1.3196	26.16	0.22	0.750			
0.4421	28293.38	3.7620	3.7620	1.3553	26.15	0.21	0.750			
0.4462	28559.18	3.7590	3.7590	1.3589	26.14	0.20	0.750			
0.4502	28813.06	3.7560	3.7562	1.3726	26.13	0.19	0.750			
0.4544	29079.32	3.7530	3.7532	1.3935	26.12	0.18	0.750			
0.4586	29353.51	3.7500	3.7501	1.4265	26.10	0.16	0.750			
0.4629	29623.92	3.7470	3.7471	1.4649	26.09	0.15	0.750			
0.4673	29907.38	3.7440	3.7440	1.5099	26.07	0.13	0.750			
0.4719	30203.01	3.7410	3.7412	1.5673	26.06	0.12	0.750			
0.4767	30507.14	3.7380	3.7377	1.5844	26.06	0.12	0.750			
0.4815	30816.89	3.7350	3.7348	1.6284	26.05	0.11	0.750			
0.4865	31134.59	3.7320	3.7322	1.6674	26.03	0.09	0.750			
0.4916	31463.43	3.7290	3.7292	1.7115	26.02	0.08	0.750			
0.4967	31790.56	3.7260	3.7261	1.7451	26.00	0.06	0.750			
0.5020	32130.68	3.7230	3.7231	1.7789	25.98	0.04	0.750			
0.5075	32477.44	3.7200	3.7199	1.8455	25.97	0.03	0.750			
0.5131	32837.61	3.7170	3.7168	1.9121	25.96	0.02	0.750			
0.5189	33208.02	3.7140	3.7142	1.9640	25.95	0.01	0.750			
0.5248	33588.43	3.7110	3.7111	2.0319	25.93	-0.01	0.750			
0.5310	33983.97	3.7080	3.7079	2.0852	25.91	-0.03	0.750			
0.5374	34395.74	3.7050	3.7050	2.1397	25.90	-0.04	0.750			
0.5440	34817.00	3.7020	3.7022	2.2182	25.89	-0.05	0.750			
0.5507	35243.42	3.6990	3.6989	2.2730	25.88	-0.06	0.750			
0.5575	35682.81	3.6960	3.6959	2.3487	25.87	-0.07	0.750			
0.5647	36141.86	3.6930	3.6931	2.4068	25.85	-0.09	0.750			
0.5721	36612.02	3.6900	3.6901	2.5139	25.83	-0.11	0.750			
0.5796	37093.74	3.6870	3.6871	2.6247	25.81	-0.13	0.750			
0.5877	37615.68	3.6840	3.6838	2.6669	25.80	-0.14	0.750			
0.5958	38133.07	3.6810	3.6811	2.7794	25.79	-0.15	0.750			
0.6044	38682.66	3.6780	3.6782	2.8538	25.79	-0.15	0.750			
0.6131	39237.52	3.6750	3.6751	2.9100	25.78	-0.16	0.750			
0.6221	39817.55	3.6720	3.6719	2.7762	25.77	-0.17	0.750			
0.6306	40357.48	3.6690	3.6691	2.6055	25.77	-0.17	0.750			
0.6379	40828.53	3.6660	3.6658	2.3086	25.77	-0.17	0.750			
0.6443	41237.03	3.6630	3.6627	2.0860	25.77	-0.17	0.750			
0.6498	41590.31	3.6600	3.6600	1.8700	25.77	-0.17	0.750			
0.6551	41924.70	3.6570	3.6570	1.7208	25.77	-0.17	0.750			
0.6600	42242.75	3.6540	3.6542	1.6070	25.77	-0.17	0.750			
0.6647	42541.52	3.6510	3.6510	1.5005	25.77	-0.17	0.750			
0.6692	42828.63	3.6480	3.6480	1.4196	25.77	-0.17	0.750			
0.6732	43082.04	3.6450	3.6451	1.3257	25.77	-0.17	0.750			
0.6770	43328.65	3.6420	3.6420	1.2669	25.78	-0.16	0.750			
0.6806	43557.64	3.6390	3.6389	1.2125	25.78	-0.16	0.750			
0.6841	43783.09	3.6360	3.6360	1.1909	25.78	-0.16	0.750			
0.6876	44006.96	3.6330	3.6331	1.1856	25.79	-0.15	0.750			
0.6911	44232.18	3.6300	3.6301	1.1924	25.79	-0.15	0.750			
0.6947	44462.59	3.6270	3.6270	1.1905	25.79	-0.15	0.750			
0.6983	44692.86	3.6240	3.6240	1.1975	25.79	-0.15	0.750			
0.7020	44925.95	3.6210	3.6211	1.1976	25.79	-0.15	0.750			
0.7056	45161.05	3.6180	3.6178	1.1753	25.79	-0.15	0.750			
0.7091	45385.52	3.6150	3.6151	1.1637	25.79	-0.15	0.750			
0.7126	45605.86	3.6120	3.6121	1.1479	25.79	-0.15	0.750			
0.7159	45820.26	3.6090	3.6091	1.1334	25.79	-0.15	0.750			
0.7193	46035.88	3.6060	3.6058	1.1204	25.79	-0.15	0.750			
0.7226	46247.91	3.6030	3.6031	1.1304	25.79	-0.15	0.750			
0.7260	46465.55	3.6000	3.6001	1.1484	25.79	-0.15	0.750			
0.7295	46688.27	3.5970	3.5970	1.1711	25.79	-0.15	0.750			
0.7330	46911.59	3.5940	3.5941	1.1933	25.79	-0.15	0.750			
0.7366	47140.83	3.5910	3.5910	1.2369	25.79	-0.15	0.750			
0.7404	47383.04	3.5880	3.5880	1.2843	25.79	-0.15	0.750			
0.7443	47634.36	3.5850	3.5848	1.3195	25.79	-0.15	0.750			
0.7482	47886.52	3.5820	3.5821	1.3671	25.79	-0.15	0.750			
0.7524	48156.40	3.5790	3.5791	1.4140	25.78	-0.16	0.750			
0.7568	48433.52	3.5760	3.5760	1.4606	25.78	-0.16	0.750			
0.7612	48716.84	3.5730	3.5731	1.5065	25.78	-0.16	0.750			
0.7658	49013.29	3.5700	3.5702	1.5394	25.78	-0.16	0.750			
0.7706	49318.71	3.5670	3.5669	1.5889	25.78	-0.16	0.750			
0.7754	49627.27	3.5640	3.5639	1.6139	25.77	-0.17	0.750			
0.7803	49941.36	3.5610	3.5610	1.6454	25.77	-0.17	0.750			
0.7853	50259.56	3.5580	3.5583	1.6645	25.77	-0.17	0.750			
0.7904	50583.51	3.5550	3.5552	1.6804	25.77	-0.17	0.750			
0.7955	50909.49	3.5520	3.5520	1.6884	25.77	-0.17	0.750			
0.8005	51234.99	3.5490	3.5487	1.7006	25.77	-0.17	0.750			
0.8056	51558.47	3.5460	3.5459	1.7240	25.77	-0.17	0.750			
0.8107	51887.86	3.5430	3.5431	1.7568	25.78	-0.16	0.750			
0.8163	52242.00	3.5400	3.5399	1.7568	25.79	-0.15	0.750			
0.8218	52597.76	3.5370	3.5367	1.6967	25.80	-0.14	0.750			
0.8273	52945.36	3.5340	3.5341	1.5157	25.80	-0.14	0.750			
0.8320	53245.31	3.5310	3.5313	1.3127	25.81	-0.13	0.750			
0.8356	53476.79	3.5280	3.5284	1.0697	25.83	-0.11	0.750			
0.8380	53634.18	3.5250	3.5247	0.7817	25.84	-0.10	0.750			
0.8397	53738.44	3.5220	3.5215	0.5970	25.85	-0.09	0.750			
0.8408	53809.78	3.5190	3.5188	0.4535	25.86	-0.08	0.750			
0.8419	53879.22	3.5160	3.5163	0.3824	25.86	-0.08	0.750			
0.8429	53946.33	3.5130	3.5129	0.3495	25.87	-0.07	0.750			
0.8439	54007.24	3.5100	3.5098	0.3270	25.87	-0.07	0.750			
0.8448	54067.39	3.5070	3.5070	0.3134	25.88	-0.06	0.750			
0.8457	54126.46	3.5040	3.5040	0.3029	25.88	-0.06	0.750			
0.8466	54184.30	3.5010	3.5009	0.2937	25.89	-0.05	0.750			
0.8475	54238.88	3.4980	3.4981	0.2837	25.89	-0.05	0.750			
0.8483	54292.64	3.4950	3.4950	0.2753	25.90	-0.04	0.750			
0.8491	54344.34	3.4920	3.4919	0.2679	25.90	-0.04	0.750			
0.8499	54394.98	3.4890	3.4890	0.2611	25.90	-0.04	0.750			
0.8507	54443.87	3.4860	3.4860	0.2552	25.91	-0.03	0.750			
0.8514	54492.58	3.4830	3.4829	0.2505	25.91	-0.03	0.750			
0.8522	54540.02	3.4800	3.4800	0.2451	25.92	-0.02	0.750			
0.8529	54586.23	3.4770	3.4770	0.2418	25.92	-0.02	0.750			
0.8536	54632.38	3.4740	3.4741	0.2373	25.93	-0.01	0.750			
0.8543	54678.03	3.4710	3.4709	0.2321	25.93	-0.01	0.750			
0.8550	54722.03	3.4680	3.4680	0.2268	25.93	-0.01	0.750			
0.8557	54765.29	3.4650	3.4651	0.2219	25.94	-0.00	0.750			
0.8564	54807.15	3.4620	3.4619	0.2169	25.94	0.00	0.750			
0.8570	54848.24	3.4590	3.4590	0.2119	25.94	0.00	0.750			
0.8576	54887.89	3.4560	3.4560	0.2067	25.95	0.01	0.750			
0.8582	54927.80	3.4530	3.4530	0.2026	25.95	0.01	0.750			
0.8589	54966.45	3.4500	3.4500	0.1979	25.95	0.01	0.750			
0.8594	55004.00	3.4470	3.4470	0.1925	25.96	0.02	0.750			
0.8600	55040.45	3.4440	3.4440	0.1865	25.96	0.02	0.750			
0.8606	55075.74	3.4410	3.4410	0.1811	25.96	0.02	0.750			
0.8611	55109.70	3.4380	3.4379	0.1753	25.97	0.03	0.750			
0.8616	55142.86	3.4350	3.4351	0.1701	25.97	0.03	0.750			
0.8621	55174.96	3.4320	3.4320	0.1643	25.97	0.03	0.750			
0.8626	55206.21	3.4290	3.4290	0.1587	25.98	0.04	0.750			
0.8631	55235.93	3.4260	3.4261	0.1534	25.98	0.04	0.750			
0.8635	55264.87	3.4230	3.4231	0.1481	25.98	0.04	0.750			
0.8640	55293.00	3.4200	3.4199	0.1419	25.98	0.04	0.750			
0.8644	55319.71	3.4170	3.4169	0.1356	25.99	0.05	0.750			
0.8648	55345.19	3.4140	3.4142	0.1295	25.99	0.05	0.750			
0.8652	55369.70	3.4110	3.4110	0.1224	25.99	0.05	0.750			
0.8655	55392.88	3.4080	3.4079	0.1159	25.99	0.05	0.750			
0.8659	55414.67	3.4050	3.4050	0.1087	25.99	0.05	0.750			
0.8662	55435.78	3.4020	3.4019	0.0985	26.00	0.06	0.750			
0.8665	55453.71	3.3990	3.3991	0.0882	26.00	0.06	0.750			
0.8667	55470.61	3.3960	3.3960	0.0795	26.00	0.06	0.750			
0.8669	55484.76	3.3930	3.3933	0.0680	26.00	0.06	0.750			
0.8671	55497.42	3.3900	3.3906	0.0565	26.00	0.06	0.750			
0.8673	55507.08	3.3870	3.3879	0.0441	26.00	0.06	0.750			
0.8674	55514.35	3.3840	3.3854	0.0316	26.00	0.06	0.750			
0.8675	55519.23	3.3810	3.3829	0.0192	26.00	0.06	0.750			
