Ah_balance (normalized)	Ah_balance (mAh)	Voltage - fit (V)	Voltage -  interpolate (V)	dQ/dV (1/V)	Temperature (°C)	Temperature - diff (°C)	Current (C)	R_DC 0ms (mOhm)	R_DC 50ms (mOhm)	R_DC 50 ms PEC (mOhm)
0.0004	24.20	4.1550	4.1548	-0.1191	25.20	0.00	-0.750			
0.0008	51.67	4.1520	4.1519	-0.1560	25.20	0.00	-0.750			
0.0013	84.85	4.1490	4.1489	-0.1887	25.20	0.00	-0.750			
0.0019	124.10	4.1460	4.1461	-0.2214	25.20	0.00	-0.750			
0.0026	169.52	4.1430	4.1431	-0.2555	25.20	0.00	-0.750			
0.0035	222.24	4.1400	4.1400	-0.2871	25.20	0.00	-0.750			
0.0044	280.60	4.1370	4.1370	-0.3182	25.20	0.00	-0.750			
0.0054	345.09	4.1340	4.1339	-0.3484	25.20	0.00	-0.750			
0.0065	415.86	4.1310	4.1310	-0.3771	25.20	-0.00	-0.750			
0.0077	491.01	4.1280	4.1280	-0.4025	25.20	-0.00	-0.750			
0.0089	571.03	4.1250	4.1250	-0.4264	25.20	-0.00	-0.750			
0.0102	655.26	4.1220	4.1220	-0.4489	25.20	-0.00	-0.750			
0.0116	744.11	4.1190	4.1190	-0.4722	25.20	-0.00	-0.750			
0.0131	837.67	4.1160	4.1159	-0.4887	25.19	-0.01	-0.750			
0.0146	934.08	4.1130	4.1130	-0.5077	25.19	-0.01	-0.750			
0.0161	1032.95	4.1100	4.1101	-0.5249	25.19	-0.01	-0.750			
0.0177	1135.67	4.1070	4.1071	-0.5406	25.19	-0.01	-0.750			
0.0194	1241.62	4.1040	4.1038	-0.5524	25.19	-0.01	-0.750			
0.0211	1349.07	4.1010	4.1010	-0.5630	25.19	-0.01	-0.750			
0.0228	1458.60	4.0980	4.0981	-0.5716	25.19	-0.01	-0.750			
0.0245	1569.70	4.0950	4.0950	-0.5859	25.18	-0.02	-0.750			
0.0263	1684.40	4.0920	4.0919	-0.5914	25.18	-0.02	-0.750			
0.0281	1798.79	4.0890	4.0889	-0.5973	25.18	-0.02	-0.750			
0.0299	1914.37	4.0860	4.0860	-0.6042	25.18	-0.02	-0.750			
0.0318	2034.21	4.0830	4.0829	-0.5991	25.18	-0.02	-0.750			
0.0336	2147.36	4.0800	4.0800	-0.6046	25.18	-0.02	-0.750			
0.0353	2259.17	4.0770	4.0771	-0.6208	25.18	-0.02	-0.750			
0.0371	2376.41	4.0740	4.0742	-0.6321	25.19	-0.01	-0.750			
0.0391	2502.92	4.0710	4.0704	-0.6470	25.19	-0.01	-0.750			
0.0411	2629.50	4.0680	4.0681	-0.6556	25.19	-0.01	-0.750			
0.0431	2760.07	4.0650	4.0653	-0.6660	25.19	-0.01	-0.750			
0.0452	2890.16	4.0620	4.0620	-0.6711	25.19	-0.01	-0.750			
0.0471	3015.48	4.0590	4.0590	-0.6629	25.20	-0.00	-0.750			
0.0491	3142.82	4.0560	4.0559	-0.6644	25.20	-0.00	-0.750			
0.0511	3270.94	4.0530	4.0530	-0.6723	25.20	0.00	-0.750			
0.0532	3401.93	4.0500	4.0500	-0.6751	25.21	0.01	-0.750			
0.0552	3533.35	4.0470	4.0471	-0.6778	25.21	0.01	-0.750			
0.0572	3662.87	4.0440	4.0439	-0.6759	25.21	0.01	-0.750			
0.0592	3791.80	4.0410	4.0410	-0.6743	25.21	0.01	-0.750			
0.0613	3920.37	4.0380	4.0380	-0.6800	25.21	0.01	-0.750			
0.0633	4050.85	4.0350	4.0350	-0.6844	25.22	0.02	-0.750			
0.0654	4183.03	4.0320	4.0319	-0.6867	25.22	0.02	-0.750			
0.0674	4315.80	4.0290	4.0290	-0.6947	25.22	0.02	-0.750			
0.0695	4450.68	4.0260	4.0260	-0.6987	25.22	0.02	-0.750			
0.0716	4585.16	4.0230	4.0229	-0.7016	25.23	0.03	-0.750			
0.0738	4720.22	4.0200	4.0200	-0.7033	25.23	0.03	-0.750			
0.0759	4854.80	4.0170	4.0170	-0.7044	25.23	0.03	-0.750			
0.0780	4992.57	4.0140	4.0139	-0.7050	25.24	0.04	-0.750			
0.0801	5127.96	4.0110	4.0111	-0.7034	25.24	0.04	-0.750			
0.0822	5261.06	4.0080	4.0079	-0.7023	25.24	0.04	-0.750			
0.0843	5396.11	4.0050	4.0050	-0.7044	25.25	0.05	-0.750			
0.0864	5529.81	4.0020	4.0020	-0.7054	25.25	0.05	-0.750			
0.0885	5665.78	3.9990	3.9990	-0.7088	25.26	0.06	-0.750			
0.0907	5803.31	3.9960	3.9961	-0.7145	25.26	0.06	-0.750			
0.0928	5941.84	3.9930	3.9930	-0.7182	25.27	0.07	-0.750			
0.0950	6079.50	3.9900	3.9900	-0.7206	25.27	0.07	-0.750			
0.0972	6218.14	3.9870	3.9870	-0.7221	25.28	0.08	-0.750			
0.0993	6357.37	3.9840	3.9840	-0.7276	25.28	0.08	-0.750			
0.1015	6497.90	3.9810	3.9809	-0.7257	25.28	0.08	-0.750			
0.1037	6638.26	3.9780	3.9780	-0.7272	25.29	0.09	-0.750			
0.1059	6776.78	3.9750	3.9752	-0.7306	25.29	0.09	-0.750			
0.1081	6917.38	3.9720	3.9718	-0.7316	25.29	0.09	-0.750			
0.1103	7056.52	3.9690	3.9690	-0.7376	25.29	0.09	-0.750			
0.1125	7199.74	3.9660	3.9661	-0.7340	25.30	0.10	-0.750			
0.1147	7342.67	3.9630	3.9630	-0.7385	25.30	0.10	-0.750			
0.1169	7483.86	3.9600	3.9599	-0.7403	25.30	0.10	-0.750			
0.1191	7624.67	3.9570	3.9570	-0.7394	25.30	0.10	-0.750			
0.1213	7766.13	3.9540	3.9539	-0.7380	25.31	0.11	-0.750			
0.1236	7908.34	3.9510	3.9510	-0.7420	25.32	0.12	-0.750			
0.1258	8049.46	3.9480	3.9481	-0.7437	25.32	0.12	-0.750			
0.1281	8195.31	3.9450	3.9450	-0.7515	25.33	0.13	-0.750			
0.1303	8339.38	3.9420	3.9420	-0.7497	25.34	0.14	-0.750			
0.1325	8482.77	3.9390	3.9390	-0.7528	25.34	0.14	-0.750			
0.1348	8627.21	3.9360	3.9360	-0.7588	25.35	0.15	-0.750			
0.1371	8775.01	3.9330	3.9329	-0.7603	25.35	0.15	-0.750			
0.1394	8920.64	3.9300	3.9300	-0.7607	25.35	0.15	-0.750			
0.1417	9067.64	3.9270	3.9270	-0.7624	25.36	0.16	-0.750			
0.1440	9214.59	3.9240	3.9242	-0.7630	25.36	0.16	-0.750			
0.1463	9360.72	3.9210	3.9209	-0.7629	25.36	0.16	-0.750			
0.1485	9506.68	3.9180	3.9180	-0.7590	25.36	0.16	-0.750			
0.1508	9650.68	3.9150	3.9151	-0.7599	25.36	0.16	-0.750			
0.1531	9797.47	3.9120	3.9119	-0.7628	25.36	0.16	-0.750			
0.1554	9943.42	3.9090	3.9091	-0.7673	25.36	0.16	-0.750			
0.1577	10091.14	3.9060	3.9060	-0.7727	25.36	0.16	-0.750			
0.1600	10240.49	3.9030	3.9029	-0.7775	25.37	0.17	-0.750			
0.1624	10391.57	3.9000	3.9000	-0.7758	25.37	0.17	-0.750			
0.1647	10541.18	3.8970	3.8969	-0.7763	25.37	0.17	-0.750			
0.1670	10689.14	3.8940	3.8941	-0.7732	25.38	0.18	-0.750			
0.1693	10838.33	3.8910	3.8909	-0.7697	25.38	0.18	-0.750			
0.1716	10982.83	3.8880	3.8880	-0.7700	25.39	0.19	-0.750			
0.1739	11132.19	3.8850	3.8851	-0.7666	25.39	0.19	-0.750			
0.1762	11278.33	3.8820	3.8820	-0.7701	25.39	0.19	-0.750			
0.1785	11426.19	3.8790	3.8790	-0.7761	25.40	0.20	-0.750			
0.1809	11574.65	3.8760	3.8762	-0.7787	25.40	0.20	-0.750			
0.1832	11724.99	3.8730	3.8729	-0.7816	25.40	0.20	-0.750			
0.1856	11877.55	3.8700	3.8701	-0.7839	25.40	0.20	-0.750			
0.1879	12027.34	3.8670	3.8672	-0.7833	25.41	0.21	-0.750			
0.1903	12180.85	3.8640	3.8639	-0.7846	25.41	0.21	-0.750			
0.1926	12329.29	3.8610	3.8609	-0.7743	25.41	0.21	-0.750			
0.1949	12474.39	3.8580	3.8580	-0.7718	25.41	0.21	-0.750			
0.1972	12621.91	3.8550	3.8550	-0.7765	25.42	0.22	-0.750			
0.1996	12772.34	3.8520	3.8520	-0.7774	25.43	0.23	-0.750			
0.2019	12921.87	3.8490	3.8489	-0.7777	25.43	0.23	-0.750			
0.2043	13072.07	3.8460	3.8461	-0.7766	25.44	0.24	-0.750			
0.2066	13222.84	3.8430	3.8431	-0.7752	25.44	0.24	-0.750			
0.2089	13370.67	3.8400	3.8400	-0.7734	25.45	0.25	-0.750			
0.2112	13518.05	3.8370	3.8370	-0.7674	25.45	0.25	-0.750			
0.2135	13664.03	3.8340	3.8340	-0.7633	25.45	0.25	-0.750			
0.2158	13811.72	3.8310	3.8310	-0.7615	25.46	0.26	-0.750			
0.2181	13957.87	3.8280	3.8282	-0.7588	25.46	0.26	-0.750			
0.2204	14102.99	3.8250	3.8250	-0.7567	25.46	0.26	-0.750			
0.2226	14247.30	3.8220	3.8220	-0.7569	25.47	0.27	-0.750			
0.2249	14392.31	3.8190	3.8190	-0.7503	25.47	0.27	-0.750			
0.2271	14536.34	3.8160	3.8160	-0.7486	25.47	0.27	-0.750			
0.2294	14679.68	3.8130	3.8130	-0.7473	25.48	0.28	-0.750			
0.2316	14824.54	3.8100	3.8098	-0.7434	25.48	0.28	-0.750			
0.2338	14966.19	3.8070	3.8070	-0.7365	25.49	0.29	-0.750			
0.2360	15106.61	3.8040	3.8041	-0.7331	25.49	0.29	-0.750			
0.2382	15246.39	3.8010	3.8010	-0.7285	25.49	0.29	-0.750			
0.2404	15387.41	3.7980	3.7979	-0.7255	25.50	0.30	-0.750			
0.2426	15523.82	3.7950	3.7950	-0.7228	25.50	0.30	-0.750			
0.2447	15661.93	3.7920	3.7920	-0.7242	25.50	0.30	-0.750			
0.2469	15802.51	3.7890	3.7890	-0.7278	25.51	0.31	-0.750			
0.2491	15942.49	3.7860	3.7858	-0.7271	25.51	0.31	-0.750			
0.2513	16083.84	3.7830	3.7831	-0.7188	25.51	0.31	-0.750			
0.2535	16222.72	3.7800	3.7800	-0.7165	25.52	0.32	-0.750			
0.2556	16358.63	3.7770	3.7772	-0.7130	25.52	0.32	-0.750			
0.2577	16492.64	3.7740	3.7739	-0.7033	25.52	0.32	-0.750			
0.2598	16626.18	3.7710	3.7709	-0.7062	25.53	0.33	-0.750			
0.2619	16761.81	3.7680	3.7680	-0.7057	25.53	0.33	-0.750			
0.2640	16898.94	3.7650	3.7650	-0.7145	25.53	0.33	-0.750			
0.2662	17036.91	3.7620	3.7620	-0.7181	25.54	0.34	-0.750			
0.2684	17174.50	3.7590	3.7591	-0.7152	25.54	0.34	-0.750			
0.2705	17311.10	3.7560	3.7560	-0.7195	25.54	0.34	-0.750			
0.2726	17448.95	3.7530	3.7531	-0.7259	25.55	0.35	-0.750			
0.2748	17587.70	3.7500	3.7500	-0.7337	25.55	0.35	-0.750			
0.2770	17729.50	3.7470	3.7469	-0.7466	25.55	0.35	-0.750			
0.2793	17873.16	3.7440	3.7440	-0.7544	25.56	0.36	-0.750			
0.2816	18019.55	3.7410	3.7410	-0.7673	25.56	0.36	-0.750			
0.2839	18167.91	3.7380	3.7381	-0.7818	25.56	0.36	-0.750			
0.2862	18319.11	3.7350	3.7350	-0.7883	25.56	0.36	-0.750			
0.2886	18472.61	3.7320	3.7320	-0.7966	25.56	0.36	-0.750			
0.2910	18626.55	3.7290	3.7289	-0.8053	25.56	0.36	-0.750			
0.2935	18781.70	3.7260	3.7262	-0.8136	25.56	0.36	-0.750			
0.2959	18938.67	3.7230	3.7230	-0.8244	25.56	0.36	-0.750			
0.2984	19096.54	3.7200	3.7199	-0.8404	25.56	0.36	-0.750			
0.3009	19259.38	3.7170	3.7170	-0.8530	25.57	0.37	-0.750			
0.3035	19425.46	3.7140	3.7139	-0.8691	25.57	0.37	-0.750			
0.3062	19593.62	3.7110	3.7112	-0.8771	25.57	0.37	-0.750			
0.3088	19763.17	3.7080	3.7079	-0.8915	25.57	0.37	-0.750			
0.3115	19935.53	3.7050	3.7050	-0.9027	25.57	0.37	-0.750			
0.3142	20108.08	3.7020	3.7019	-0.9125	25.56	0.36	-0.750			
0.3170	20285.36	3.6990	3.6989	-0.9301	25.56	0.36	-0.750			
0.3197	20463.06	3.6960	3.6961	-0.9571	25.56	0.36	-0.750			
0.3227	20649.91	3.6930	3.6929	-0.9717	25.56	0.36	-0.750			
0.3256	20839.43	3.6900	3.6900	-0.9885	25.56	0.36	-0.750			
0.3286	21031.03	3.6870	3.6869	-1.0002	25.56	0.36	-0.750			
0.3317	21225.96	3.6840	3.6841	-1.0219	25.56	0.36	-0.750			
0.3347	21422.97	3.6810	3.6809	-1.0360	25.55	0.35	-0.750			
0.3378	21620.43	3.6780	3.6780	-1.0480	25.55	0.35	-0.750			
0.3410	21821.44	3.6750	3.6750	-1.0587	25.54	0.34	-0.750			
0.3442	22031.66	3.6720	3.6721	-1.0896	25.54	0.34	-0.750			
0.3476	22243.99	3.6690	3.6689	-1.1037	25.53	0.33	-0.750			
0.3509	22456.67	3.6660	3.6660	-1.1214	25.53	0.33	-0.750			
0.3543	22672.11	3.6630	3.6630	-1.1342	25.52	0.32	-0.750			
0.3577	22891.81	3.6600	3.6599	-1.1615	25.52	0.32	-0.750			
0.3612	23117.58	3.6570	3.6570	-1.1785	25.51	0.31	-0.750			
0.3648	23345.41	3.6540	3.6539	-1.2011	25.51	0.31	-0.750			
0.3684	23578.62	3.6510	3.6512	-1.2198	25.50	0.30	-0.750			
0.3722	23817.88	3.6480	3.6480	-1.2431	25.49	0.29	-0.750			
0.3759	24056.35	3.6450	3.6449	-1.2565	25.49	0.29	-0.750			
0.3797	24299.39	3.6420	3.6420	-1.2799	25.48	0.28	-0.750			
0.3835	24545.71	3.6390	3.6390	-1.3039	25.48	0.28	-0.750			
0.3875	24797.13	3.6360	3.6360	-1.3309	25.47	0.27	-0.750			
0.3915	25054.10	3.6330	3.6330	-1.3588	25.46	0.26	-0.750			
0.3956	25319.90	3.6300	3.6300	-1.3873	25.46	0.26	-0.750			
0.3999	25591.28	3.6270	3.6270	-1.4140	25.45	0.25	-0.750			
0.4041	25865.48	3.6240	3.6238	-1.4395	25.44	0.24	-0.750			
0.4085	26143.06	3.6210	3.6210	-1.4635	25.44	0.24	-0.750			
0.4129	26426.99	3.6180	3.6179	-1.4875	25.43	0.23	-0.750			
0.4174	26712.67	3.6150	3.6150	-1.5179	25.42	0.22	-0.750			
0.4220	27005.85	3.6120	3.6120	-1.5459	25.41	0.21	-0.750			
0.4267	27310.24	3.6090	3.6089	-1.5884	25.41	0.21	-0.750	0.386	0.556	
0.4315	27617.10	3.6060	3.6061	-1.6223	25.40	0.20	-0.750			
0.4364	27932.13	3.6030	3.6031	-1.6442	25.39	0.19	-0.750			
0.4415	28253.45	3.6000	3.6000	-1.6791	25.38	0.18	-0.750			
0.4465	28575.74	3.5970	3.5970	-1.7150	25.38	0.18	-0.750			
0.4516	28905.37	3.5940	3.5939	-1.7423	25.37	0.17	-0.750			
0.4569	29244.79	3.5910	3.5910	-1.7733	25.37	0.17	-0.750			
0.4623	29586.19	3.5880	3.5878	-1.8167	25.36	0.16	-0.750			
0.4678	29940.55	3.5850	3.5849	-1.8555	25.36	0.16	-0.750			
0.4735	30304.68	3.5820	3.5821	-1.8933	25.36	0.16	-0.750			
0.4793	30672.30	3.5790	3.5790	-1.9232	25.35	0.15	-0.750			
0.4850	31042.56	3.5760	3.5761	-1.9356	25.35	0.15	-0.750			
0.4909	31419.24	3.5730	3.5731	-1.9712	25.34	0.14	-0.750			
0.4969	31802.79	3.5700	3.5699	-1.9840	25.34	0.14	-0.750			
0.5029	32185.58	3.5670	3.5670	-1.9936	25.34	0.14	-0.750			
0.5089	32569.62	3.5640	3.5641	-2.0189	25.34	0.14	-0.750			
0.5150	32958.60	3.5610	3.5609	-2.0287	25.33	0.13	-0.750			
0.5211	33350.96	3.5580	3.5581	-2.0455	25.33	0.13	-0.750			
0.5273	33745.42	3.5550	3.5550	-2.0615	25.32	0.12	-0.750			
0.5335	34142.71	3.5520	3.5519	-2.0604	25.32	0.12	-0.750			
0.5397	34543.66	3.5490	3.5490	-2.0574	25.33	0.13	-0.750			
0.5459	34939.92	3.5460	3.5461	-2.0553	25.34	0.14	-0.750			
0.5521	35331.80	3.5430	3.5429	-2.0359	25.33	0.13	-0.750			
0.5582	35722.86	3.5400	3.5400	-2.0171	25.33	0.13	-0.750			
0.5641	36104.91	3.5370	3.5370	-2.0039	25.34	0.14	-0.750			
0.5702	36491.31	3.5340	3.5340	-1.9853	25.34	0.14	-0.750			
0.5761	36869.52	3.5310	3.5310	-1.9640	25.34	0.14	-0.750			
0.5820	37249.73	3.5280	3.5280	-1.9406	25.34	0.14	-0.750			
0.5878	37619.85	3.5250	3.5251	-1.9083	25.35	0.15	-0.750			
0.5935	37984.19	3.5220	3.5220	-1.8823	25.35	0.15	-0.750			
0.5991	38341.94	3.5190	3.5189	-1.8488	25.35	0.15	-0.750			
0.6046	38693.04	3.5160	3.5161	-1.8151	25.36	0.16	-0.750			
0.6101	39044.38	3.5130	3.5130	-1.7833	25.37	0.17	-0.750			
0.6153	39381.66	3.5100	3.5099	-1.7396	25.38	0.18	-0.750			
0.6205	39714.44	3.5070	3.5072	-1.6942	25.38	0.18	-0.750			
0.6255	40033.65	3.5040	3.5040	-1.6487	25.39	0.19	-0.750			
0.6304	40347.56	3.5010	3.5010	-1.5965	25.40	0.20	-0.750			
0.6352	40650.77	3.4980	3.4979	-1.5473	25.41	0.21	-0.750			
0.6397	40941.37	3.4950	3.4951	-1.5010	25.43	0.23	-0.750			
0.6442	41227.25	3.4920	3.4921	-1.4669	25.44	0.24	-0.750			
0.6485	41504.32	3.4890	3.4889	-1.4239	25.45	0.25	-0.750			
0.6527	41772.91	3.4860	3.4859	-1.3842	25.46	0.26	-0.750			
0.6568	42034.00	3.4830	3.4831	-1.3479	25.47	0.27	-0.750			
0.6609	42295.17	3.4800	3.4800	-1.3154	25.48	0.28	-0.750			
0.6647	42542.74	3.4770	3.4769	-1.2656	25.49	0.29	-0.750			
0.6684	42777.06	3.4740	3.4742	-1.2230	25.50	0.30	-0.750			
0.6720	43009.70	3.4710	3.4709	-1.1882	25.52	0.32	-0.750			
0.6755	43233.28	3.4680	3.4680	-1.1502	25.54	0.34	-0.750			
0.6789	43449.49	3.4650	3.4649	-1.1160	25.55	0.35	-0.750			
0.6822	43662.49	3.4620	3.4620	-1.0855	25.56	0.36	-0.750			
0.6854	43868.43	3.4590	3.4590	-1.0488	25.57	0.37	-0.750			
0.6885	44064.74	3.4560	3.4560	-1.0137	25.58	0.38	-0.750			
0.6915	44253.22	3.4530	3.4531	-0.9765	25.59	0.39	-0.750			
0.6944	44439.10	3.4500	3.4500	-0.9553	25.60	0.40	-0.750			
0.6972	44618.39	3.4470	3.4470	-0.9306	25.61	0.41	-0.750			
0.6999	44794.66	3.4440	3.4440	-0.9076	25.62	0.42	-0.750			
0.7026	44967.50	3.4410	3.4409	-0.8872	25.63	0.43	-0.750			
0.7052	45135.27	3.4380	3.4382	-0.8685	25.64	0.44	-0.750			
0.7078	45297.95	3.4350	3.4350	-0.8532	25.65	0.45	-0.750			
0.7103	45460.05	3.4320	3.4319	-0.8468	25.66	0.46	-0.750			
0.7128	45618.59	3.4290	3.4290	-0.8393	25.66	0.46	-0.750			
0.7153	45780.07	3.4260	3.4260	-0.8387	25.67	0.47	-0.750			
0.7179	45942.56	3.4230	3.4231	-0.8424	25.68	0.48	-0.750			
0.7204	46104.44	3.4200	3.4200	-0.8459	25.69	0.49	-0.750			
0.7229	46265.74	3.4170	3.4170	-0.8503	25.70	0.50	-0.750			
0.7255	46430.15	3.4140	3.4139	-0.8535	25.70	0.50	-0.750			
0.7280	46594.79	3.4110	3.4110	-0.8527	25.71	0.51	-0.750			
0.7306	46760.20	3.4080	3.4081	-0.8551	25.72	0.52	-0.750			
0.7332	46925.18	3.4050	3.4050	-0.8533	25.73	0.53	-0.750			
0.7358	47089.30	3.4020	3.4020	-0.8494	25.74	0.54	-0.750			
0.7383	47252.76	3.3990	3.3989	-0.8377	25.74	0.54	-0.750			
0.7408	47413.76	3.3960	3.3960	-0.8275	25.75	0.55	-0.750			
0.7433	47572.16	3.3930	3.3932	-0.8117	25.76	0.56	-0.750			
0.7457	47727.72	3.3900	3.3899	-0.7962	25.77	0.57	-0.750			
0.7481	47877.93	3.3870	3.3870	-0.7746	25.77	0.57	-0.750			
0.7504	48024.67	3.3840	3.3840	-0.7534	25.78	0.58	-0.750			
0.7526	48168.61	3.3810	3.3810	-0.7356	25.78	0.58	-0.750			
0.7548	48307.96	3.3780	3.3780	-0.7125	25.79	0.59	-0.750			
0.7569	48441.86	3.3750	3.3749	-0.6909	25.79	0.59	-0.750			
0.7589	48572.50	3.3720	3.3720	-0.6686	25.80	0.60	-0.750			
0.7609	48697.07	3.3690	3.3690	-0.6491	25.81	0.61	-0.750			
0.7628	48819.77	3.3660	3.3660	-0.6311	25.81	0.61	-0.750			
0.7647	48940.45	3.3630	3.3630	-0.6128	25.82	0.62	-0.750			
0.7665	49056.46	3.3600	3.3599	-0.5927	25.83	0.63	-0.750			
0.7683	49169.12	3.3570	3.3571	-0.5735	25.83	0.63	-0.750			
0.7699	49276.66	3.3540	3.3540	-0.5534	25.84	0.64	-0.750			
0.7716	49379.90	3.3510	3.3510	-0.5379	25.84	0.64	-0.750			
0.7731	49480.86	3.3480	3.3479	-0.5204	25.85	0.65	-0.750			
0.7747	49578.91	3.3450	3.3450	-0.5079	25.86	0.66	-0.750			
0.7762	49675.41	3.3420	3.3420	-0.4952	25.86	0.66	-0.750			
0.7777	49769.98	3.3390	3.3391	-0.4823	25.87	0.67	-0.750			
0.7791	49861.50	3.3360	3.3359	-0.4680	25.87	0.67	-0.750			
0.7805	49949.64	3.3330	3.3331	-0.4525	25.88	0.68	-0.750			
0.7818	50034.91	3.3300	3.3300	-0.4374	25.88	0.68	-0.750			
0.7831	50117.48	3.3270	3.3270	-0.4262	25.89	0.69	-0.750			
0.7843	50197.20	3.3240	3.3240	-0.4135	25.89	0.69	-0.750			
0.7856	50275.27	3.3210	3.3209	-0.4022	25.90	0.70	-0.750			
0.7867	50351.17	3.3180	3.3180	-0.3940	25.90	0.70	-0.750			
0.7879	50425.54	3.3150	3.3150	-0.3856	25.90	0.70	-0.750			
0.7890	50498.71	3.3120	3.3120	-0.3788	25.91	0.71	-0.750			
0.7902	50571.18	3.3090	3.3090	-0.3700	25.91	0.71	-0.750			
0.7913	50641.35	3.3060	3.3060	-0.3607	25.91	0.71	-0.750			
0.7924	50710.47	3.3030	3.3029	-0.3522	25.92	0.72	-0.750			
0.7934	50777.49	3.3000	3.3000	-0.3426	25.92	0.72	-0.750			
0.7944	50841.55	3.2970	3.2970	-0.3337	25.93	0.73	-0.750			
0.7954	50904.23	3.2940	3.2940	-0.3257	25.93	0.73	-0.750			
0.7963	50965.34	3.2910	3.2909	-0.3182	25.94	0.74	-0.750			
0.7973	51026.36	3.2880	3.2880	-0.3140	25.94	0.74	-0.750			
0.7982	51085.94	3.2850	3.2850	-0.3080	25.95	0.75	-0.750			
0.7991	51144.41	3.2820	3.2820	-0.3031	25.95	0.75	-0.750			
0.8000	51202.47	3.2790	3.2790	-0.2982	25.96	0.76	-0.750			
0.8009	51258.88	3.2760	3.2760	-0.2923	25.96	0.76	-0.750			
0.8018	51314.44	3.2730	3.2729	-0.2873	25.97	0.77	-0.750			
0.8026	51369.37	3.2700	3.2701	-0.2824	25.97	0.77	-0.750			
0.8035	51423.15	3.2670	3.2669	-0.2773	25.98	0.78	-0.750			
0.8043	51476.20	3.2640	3.2640	-0.2725	25.98	0.78	-0.750			
0.8051	51527.84	3.2610	3.2610	-0.2671	25.99	0.79	-0.750			
0.8059	51578.24	3.2580	3.2580	-0.2628	25.99	0.79	-0.750			
0.8067	51628.19	3.2550	3.2550	-0.2585	26.00	0.80	-0.750			
0.8075	51676.98	3.2520	3.2520	-0.2544	26.00	0.80	-0.750			
0.8082	51725.56	3.2490	3.2490	-0.2508	26.01	0.81	-0.750			
0.8090	51773.59	3.2460	3.2460	-0.2476	26.01	0.81	-0.750			
0.8097	51820.86	3.2430	3.2430	-0.2440	26.02	0.82	-0.750			
0.8104	51867.40	3.2400	3.2400	-0.2409	26.02	0.82	-0.750			
0.8111	51913.15	3.2370	3.2370	-0.2369	26.03	0.83	-0.750			
0.8118	51958.09	3.2340	3.2340	-0.2335	26.03	0.83	-0.750			
0.8125	52002.70	3.2310	3.2310	-0.2306	26.03	0.83	-0.750			
0.8132	52046.61	3.2280	3.2280	-0.2271	26.04	0.84	-0.750			
0.8139	52089.87	3.2250	3.2250	-0.2244	26.04	0.84	-0.750			
0.8146	52132.59	3.2220	3.2220	-0.2216	26.05	0.85	-0.750			
0.8152	52174.88	3.2190	3.2191	-0.2190	26.05	0.85	-0.750			
0.8159	52216.39	3.2160	3.2160	-0.2167	26.06	0.86	-0.750			
0.8165	52257.97	3.2130	3.2130	-0.2144	26.06	0.86	-0.750			
0.8172	52298.86	3.2100	3.2101	-0.2120	26.06	0.86	-0.750			
0.8178	52339.35	3.2070	3.2069	-0.2098	26.07	0.87	-0.750			
0.8184	52379.71	3.2040	3.2040	-0.2069	26.07	0.87	-0.750			
0.8190	52418.98	3.2010	3.2010	-0.2045	26.08	0.88	-0.750			
0.8197	52458.07	3.1980	3.1980	-0.2018	26.09	0.89	-0.750			
0.8203	52496.57	3.1950	3.1950	-0.1991	26.09	0.89	-0.750			
0.8209	52534.42	3.1920	3.1920	-0.1965	26.10	0.90	-0.750			
0.8214	52571.96	3.1890	3.1891	-0.1943	26.10	0.90	-0.750			
0.8220	52608.73	3.1860	3.1859	-0.1923	26.11	0.91	-0.750			
0.8226	52645.50	3.1830	3.1830	-0.1907	26.11	0.91	-0.750			
0.8232	52682.14	3.1800	3.1800	-0.1880	26.12	0.92	-0.750			
0.8237	52717.73	3.1770	3.1770	-0.1860	26.13	0.93	-0.750			
0.8243	52753.60	3.1740	3.1741	-0.1842	26.13	0.93	-0.750			
0.8248	52788.74	3.1710	3.1710	-0.1818	26.14	0.94	-0.750			
0.8254	52823.39	3.1680	3.1680	-0.1799	26.14	0.94	-0.750			
0.8259	52857.52	3.1650	3.1651	-0.1782	26.15	0.95	-0.750			
0.8264	52891.48	3.1620	3.1620	-0.1759	26.15	0.95	-0.750			
0.8270	52925.12	3.1590	3.1589	-0.1746	26.16	0.96	-0.750			
0.8275	52958.69	3.1560	3.1560	-0.1735	26.16	0.96	-0.750			
0.8280	52991.68	3.1530	3.1531	-0.1715	26.17	0.97	-0.750			
0.8285	53024.52	3.1500	3.1500	-0.1707	26.17	0.97	-0.750			
0.8290	53057.17	3.1470	3.1470	-0.1693	26.17	0.97	-0.750			
0.8295	53089.41	3.1440	3.1440	-0.1677	26.17	0.97	-0.750			
0.8300	53121.67	3.1410	3.1409	-0.1654	26.17	0.97	-0.750			
0.8305	53153.44	3.1380	3.1381	-0.1640	26.17	0.97	-0.750			
0.8310	53184.68	3.1350	3.1350	-0.1615	26.18	0.98	-0.750			
0.8315	53215.24	3.1320	3.1321	-0.1606	26.18	0.98	-0.750			
0.8320	53246.00	3.1290	3.1289	-0.1586	26.19	0.99	-0.750			
0.8324	53276.05	3.1260	3.1260	-0.1565	26.20	1.00	-0.750			
0.8329	53305.98	3.1230	3.1230	-0.1553	26.20	1.00	-0.750			
0.8334	53335.67	3.1200	3.1202	-0.1545	26.21	1.01	-0.750			
0.8338	53365.51	3.1170	3.1169	-0.1534	26.22	1.02	-0.750			
0.8343	53394.72	3.1140	3.1139	-0.1516	26.22	1.02	-0.750			
0.8347	53423.69	3.1110	3.1111	-0.1501	26.23	1.03	-0.750			
0.8352	53452.05	3.1080	3.1081	-0.1492	26.24	1.04	-0.750			
0.8356	53480.65	3.1050	3.1050	-0.1493	26.24	1.04	-0.750			
0.8361	53509.39	3.1020	3.1019	-0.1478	26.25	1.05	-0.750			
0.8365	53537.69	3.0990	3.0990	-0.1470	26.25	1.05	-0.750			
0.8370	53565.90	3.0960	3.0959	-0.1451	26.26	1.06	-0.750			
0.8374	53593.95	3.0930	3.0931	-0.1440	26.27	1.07	-0.750			
0.8378	53621.23	3.0900	3.0900	-0.1429	26.27	1.07	-0.750			
0.8383	53648.53	3.0870	3.0870	-0.1414	26.28	1.08	-0.750			
0.8387	53675.31	3.0840	3.0840	-0.1394	26.28	1.08	-0.750			
0.8391	53701.58	3.0810	3.0811	-0.1382	26.29	1.09	-0.750			
0.8395	53728.42	3.0780	3.0781	-0.1379	26.29	1.09	-0.750			
0.8399	53754.78	3.0750	3.0750	-0.1367	26.30	1.10	-0.750			
0.8403	53781.00	3.0720	3.0719	-0.1357	26.30	1.10	-0.750			
0.8407	53806.79	3.0690	3.0691	-0.1348	26.31	1.11	-0.750			
0.8411	53832.42	3.0660	3.0660	-0.1335	26.32	1.12	-0.750			
0.8415	53858.02	3.0630	3.0630	-0.1331	26.32	1.12	-0.750			
0.8419	53883.75	3.0600	3.0600	-0.1322	26.33	1.13	-0.750			
0.8423	53908.94	3.0570	3.0570	-0.1310	26.33	1.13	-0.750			
0.8427	53934.18	3.0540	3.0540	-0.1304	26.34	1.14	-0.750			
0.8431	53959.04	3.0510	3.0511	-0.1294	26.34	1.14	-0.750			
0.8435	53983.73	3.0480	3.0480	-0.1282	26.35	1.15	-0.750			
0.8439	54008.07	3.0450	3.0450	-0.1273	26.35	1.15	-0.750			
0.8443	54032.42	3.0420	3.0420	-0.1266	26.36	1.16	-0.750			
0.8446	54056.72	3.0390	3.0391	-0.1258	26.36	1.16	-0.750			
0.8450	54080.88	3.0360	3.0359	-0.1252	26.37	1.17	-0.750			
0.8454	54104.72	3.0330	3.0330	-0.1250	26.37	1.17	-0.750			
0.8458	54128.58	3.0300	3.0300	-0.1245	26.37	1.17	-0.750			
0.8461	54152.76	3.0270	3.0269	-0.1232	26.38	1.18	-0.750			
0.8465	54176.30	3.0240	3.0239	-0.1220	26.38	1.18	-0.750			
0.8469	54199.67	3.0210	3.0212	-0.1212	26.39	1.19	-0.750			
0.8472	54222.82	3.0180	3.0181	-0.1199	26.39	1.19	-0.750			
0.8476	54245.89	3.0150	3.0149	-0.1187	26.40	1.20	-0.750			
0.8479	54268.52	3.0120	3.0119	-0.1170	26.40	1.20	-0.750			
0.8483	54290.45	3.0090	3.0091	-0.1156	26.41	1.21	-0.750			
0.8486	54312.57	3.0060	3.0061	-0.1149	26.41	1.21	-0.750			
0.8490	54334.58	3.0030	3.0031	-0.1101	26.42	1.22	-0.751			
