Ah_balance (normalized)	Ah_balance (mAh)	Voltage - fit (V)	Voltage -  interpolate (V)	dQ/dV (1/V)	Temperature (°C)	Temperature - diff (°C)	Current (C)	R_DC 0ms (mOhm)	R_DC 50ms (mOhm)	R_DC 50 ms PEC (mOhm)
0.0541	3464.78	4.1990	4.1990	0.7352	26.82	0.87	0.750			
0.0564	3610.62	4.1960	4.1959	0.7594	26.82	0.87	0.750			
0.0586	3750.93	4.1930	4.1930	0.7469	26.81	0.86	0.750			
0.0608	3893.74	4.1900	4.1901	0.7516	26.81	0.86	0.750			
0.0631	4039.12	4.1870	4.1870	0.7549	26.81	0.86	0.750			
0.0654	4184.49	4.1840	4.1841	0.7568	26.81	0.86	0.750			
0.0677	4331.67	4.1810	4.1810	0.7572	26.81	0.86	0.750			
0.0699	4476.19	4.1780	4.1781	0.7553	26.81	0.86	0.750			
0.0722	4621.49	4.1750	4.1750	0.7525	26.80	0.85	0.750			
0.0745	4766.12	4.1720	4.1720	0.7548	26.80	0.85	0.750			
0.0767	4909.09	4.1690	4.1690	0.7568	26.80	0.85	0.750			
0.0790	5055.58	4.1660	4.1660	0.7624	26.80	0.85	0.750			
0.0813	5204.35	4.1630	4.1630	0.7625	26.80	0.85	0.750			
0.0836	5350.66	4.1600	4.1600	0.7668	26.79	0.84	0.750			
0.0859	5497.77	4.1570	4.1571	0.7676	26.79	0.84	0.750			
0.0882	5645.92	4.1540	4.1539	0.7654	26.79	0.84	0.750			
0.0905	5792.26	4.1510	4.1510	0.7651	26.79	0.84	0.750			
0.0928	5939.65	4.1480	4.1481	0.7613	26.79	0.84	0.750			
0.0951	6085.48	4.1450	4.1450	0.7637	26.79	0.84	0.750			
0.0974	6231.75	4.1420	4.1420	0.7657	26.78	0.83	0.750			
0.0997	6378.76	4.1390	4.1390	0.7704	26.78	0.83	0.750			
0.1020	6527.05	4.1360	4.1361	0.7747	26.78	0.83	0.750			
0.1043	6677.19	4.1330	4.1331	0.7810	26.78	0.83	0.750			
0.1067	6827.54	4.1300	4.1300	0.7810	26.78	0.83	0.750			
0.1090	6978.98	4.1270	4.1270	0.7817	26.78	0.83	0.750			
0.1114	7128.77	4.1240	4.1240	0.7768	26.78	0.83	0.750			
0.1137	7277.26	4.1210	4.1207	0.7775	26.78	0.83	0.750			
0.1160	7426.75	4.1180	4.1181	0.7785	26.78	0.83	0.750			
0.1184	7576.47	4.1150	4.1150	0.7773	26.78	0.83	0.750			
0.1207	7725.19	4.1120	4.1119	0.7789	26.78	0.83	0.750			
0.1231	7875.26	4.1090	4.1090	0.7817	26.78	0.83	0.750			
0.1254	8024.89	4.1060	4.1059	0.7841	26.78	0.83	0.750			
0.1277	8175.57	4.1030	4.1031	0.7850	26.78	0.83	0.750			
0.1301	8327.93	4.1000	4.1000	0.7803	26.78	0.83	0.750			
0.1325	8476.86	4.0970	4.0970	0.7841	26.78	0.83	0.750			
0.1348	8627.30	4.0940	4.0941	0.7873	26.78	0.83	0.750			
0.1371	8777.07	4.0910	4.0910	0.7922	26.78	0.83	0.750			
0.1395	8929.53	4.0880	4.0879	0.7954	26.78	0.83	0.750			
0.1419	9084.59	4.0850	4.0850	0.7945	26.78	0.83	0.750			
0.1443	9238.36	4.0820	4.0820	0.8003	26.78	0.83	0.750			
0.1467	9391.98	4.0790	4.0791	0.8059	26.77	0.82	0.750			
0.1492	9546.29	4.0760	4.0760	0.8025	26.77	0.82	0.750			
0.1516	9700.14	4.0730	4.0728	0.8020	26.77	0.82	0.750			
0.1540	9853.83	4.0700	4.0701	0.8045	26.77	0.82	0.750			
0.1564	10009.42	4.0670	4.0671	0.8096	26.77	0.82	0.750			
0.1588	10164.64	4.0640	4.0639	0.8151	26.76	0.81	0.750			
0.1612	10319.91	4.0610	4.0610	0.8141	26.76	0.81	0.750			
0.1637	10477.36	4.0580	4.0578	0.8176	26.76	0.81	0.750			
0.1662	10637.23	4.0550	4.0551	0.8225	26.76	0.81	0.750			
0.1687	10795.42	4.0520	4.0520	0.8181	26.76	0.81	0.750			
0.1711	10951.21	4.0490	4.0490	0.8205	26.76	0.81	0.750			
0.1735	11106.25	4.0460	4.0461	0.8196	26.76	0.81	0.750			
0.1760	11264.28	4.0430	4.0427	0.8258	26.76	0.81	0.750			
0.1785	11423.99	4.0400	4.0401	0.8324	26.76	0.81	0.750			
0.1810	11585.84	4.0370	4.0370	0.8313	26.76	0.81	0.750			
0.1835	11746.45	4.0340	4.0341	0.8396	26.76	0.81	0.750			
0.1860	11904.38	4.0310	4.0311	0.8388	26.76	0.81	0.750			
0.1886	12067.44	4.0280	4.0277	0.8411	26.76	0.81	0.750			
0.1911	12228.74	4.0250	4.0250	0.8453	26.76	0.81	0.750			
0.1936	12392.82	4.0220	4.0221	0.8449	26.76	0.81	0.750			
0.1962	12556.68	4.0190	4.0189	0.8507	26.76	0.81	0.750			
0.1987	12718.89	4.0160	4.0160	0.8477	26.76	0.81	0.750			
0.2013	12880.99	4.0130	4.0128	0.8536	26.76	0.81	0.750			
0.2038	13044.29	4.0100	4.0101	0.8555	26.76	0.81	0.750			
0.2064	13211.43	4.0070	4.0070	0.8580	26.76	0.81	0.750			
0.2090	13375.42	4.0040	4.0041	0.8630	26.76	0.81	0.750			
0.2116	13541.05	4.0010	4.0011	0.8652	26.76	0.81	0.750			
0.2142	13707.79	3.9980	3.9979	0.8692	26.76	0.81	0.750			
0.2168	13875.44	3.9950	3.9950	0.8716	26.76	0.81	0.750			
0.2194	14042.78	3.9920	3.9920	0.8772	26.76	0.81	0.750			
0.2221	14214.81	3.9890	3.9890	0.8800	26.76	0.81	0.750			
0.2248	14384.40	3.9860	3.9860	0.8776	26.76	0.81	0.750			
0.2274	14551.26	3.9830	3.9831	0.8722	26.76	0.81	0.750			
0.2300	14719.41	3.9800	3.9801	0.8693	26.76	0.81	0.750			
0.2326	14884.40	3.9770	3.9769	0.8733	26.76	0.81	0.750			
0.2352	15051.29	3.9740	3.9741	0.8744	26.76	0.81	0.750			
0.2378	15218.05	3.9710	3.9709	0.8769	26.76	0.81	0.750			
0.2404	15386.75	3.9680	3.9680	0.8894	26.76	0.81	0.750			
0.2431	15560.90	3.9650	3.9650	0.8867	26.75	0.80	0.750			
0.2458	15732.28	3.9620	3.9620	0.8855	26.75	0.80	0.750			
0.2485	15903.77	3.9590	3.9591	0.8865	26.74	0.79	0.750			
0.2511	16072.39	3.9560	3.9559	0.8808	26.74	0.79	0.750			
0.2538	16241.65	3.9530	3.9529	0.8787	26.74	0.79	0.750			
0.2564	16407.96	3.9500	3.9500	0.8807	26.73	0.78	0.750			
0.2590	16576.01	3.9470	3.9470	0.8785	26.73	0.78	0.750			
0.2617	16747.41	3.9440	3.9440	0.8865	26.72	0.77	0.750			
0.2643	16917.33	3.9410	3.9409	0.8876	26.72	0.77	0.750			
0.2670	17088.22	3.9380	3.9380	0.8857	26.71	0.76	0.750			
0.2697	17258.39	3.9350	3.9350	0.8880	26.71	0.76	0.750			
0.2723	17428.18	3.9320	3.9320	0.8907	26.71	0.76	0.750			
0.2750	17598.92	3.9290	3.9290	0.8874	26.70	0.75	0.750			
0.2777	17770.85	3.9260	3.9260	0.8929	26.70	0.75	0.750			
0.2803	17942.01	3.9230	3.9230	0.8897	26.69	0.74	0.750			
0.2830	18112.05	3.9200	3.9201	0.8931	26.69	0.74	0.750			
0.2857	18283.45	3.9170	3.9170	0.9008	26.69	0.74	0.750			
0.2884	18455.98	3.9140	3.9138	0.9034	26.68	0.73	0.750			
0.2911	18630.97	3.9110	3.9111	0.9029	26.67	0.72	0.750			
0.2938	18804.58	3.9080	3.9081	0.9123	26.66	0.71	0.750			
0.2966	18980.73	3.9050	3.9051	0.9200	26.66	0.71	0.750			
0.2994	19158.76	3.9020	3.9020	0.9255	26.65	0.70	0.750			
0.3021	19334.25	3.8990	3.8989	0.9251	26.64	0.69	0.750			
0.3049	19512.44	3.8960	3.8961	0.9291	26.63	0.68	0.750			
0.3077	19692.81	3.8930	3.8931	0.9358	26.63	0.68	0.750			
0.3105	19872.87	3.8900	3.8900	0.9399	26.63	0.68	0.750			
0.3133	20053.35	3.8870	3.8868	0.9395	26.62	0.67	0.750			
0.3162	20234.84	3.8840	3.8841	0.9380	26.61	0.66	0.750			
0.3190	20414.22	3.8810	3.8810	0.9446	26.60	0.65	0.750			
0.3218	20595.63	3.8780	3.8781	0.9503	26.59	0.64	0.750			
0.3247	20777.80	3.8750	3.8750	0.9475	26.59	0.64	0.750			
0.3275	20961.26	3.8720	3.8720	0.9563	26.58	0.63	0.750			
0.3304	21144.47	3.8690	3.8691	0.9582	26.57	0.62	0.750			
0.3333	21329.11	3.8660	3.8661	0.9664	26.56	0.61	0.750			
0.3362	21516.87	3.8630	3.8630	0.9698	26.55	0.60	0.750			
0.3391	21701.12	3.8600	3.8598	0.9695	26.54	0.59	0.750			
0.3421	21892.15	3.8570	3.8570	0.9588	26.53	0.58	0.750			
0.3449	22075.67	3.8540	3.8541	0.9651	26.52	0.57	0.750			
0.3478	22260.17	3.8510	3.8511	0.9674	26.51	0.56	0.750			
0.3507	22443.24	3.8480	3.8479	0.9636	26.50	0.55	0.750			
0.3536	22629.00	3.8450	3.8451	0.9723	26.49	0.54	0.750			
0.3565	22815.55	3.8420	3.8420	0.9672	26.48	0.53	0.750			
0.3594	22999.86	3.8390	3.8391	0.9756	26.47	0.52	0.750			
0.3624	23190.94	3.8360	3.8360	0.9885	26.46	0.51	0.750			
0.3653	23377.74	3.8330	3.8332	0.9840	26.46	0.51	0.750			
0.3683	23568.17	3.8300	3.8301	0.9938	26.45	0.50	0.750			
0.3713	23760.78	3.8270	3.8271	1.0029	26.44	0.49	0.750			
0.3743	23955.39	3.8240	3.8241	1.0092	26.43	0.48	0.750			
0.3773	24149.35	3.8210	3.8209	1.0043	26.42	0.47	0.750			
0.3803	24341.40	3.8180	3.8181	1.0156	26.41	0.46	0.750			
0.3834	24536.31	3.8150	3.8150	1.0235	26.40	0.45	0.750			
0.3865	24734.09	3.8120	3.8119	1.0327	26.39	0.44	0.750			
0.3897	24937.94	3.8090	3.8091	1.0278	26.38	0.43	0.750			
0.3927	25133.28	3.8060	3.8060	1.0336	26.37	0.42	0.750			
0.3958	25331.58	3.8030	3.8032	1.0419	26.36	0.41	0.750			
0.3989	25529.86	3.8000	3.8002	1.0573	26.36	0.41	0.750			
0.4020	25730.81	3.7970	3.7967	1.0664	26.35	0.40	0.750			
0.4053	25936.46	3.7940	3.7941	1.0901	26.34	0.39	0.750			
0.4086	26149.93	3.7910	3.7910	1.1079	26.33	0.38	0.750			
0.4120	26366.28	3.7880	3.7880	1.1298	26.32	0.37	0.750			
0.4154	26585.14	3.7850	3.7851	1.1396	26.31	0.36	0.750			
0.4188	26804.19	3.7820	3.7820	1.1572	26.29	0.34	0.750			
0.4223	27026.65	3.7790	3.7790	1.1830	26.28	0.33	0.750			
0.4259	27256.58	3.7760	3.7758	1.2021	26.27	0.32	0.750			
0.4295	27487.34	3.7730	3.7730	1.2376	26.26	0.31	0.750			
0.4333	27729.97	3.7700	3.7701	1.2716	26.26	0.31	0.750			
0.4372	27981.25	3.7670	3.7671	1.2865	26.25	0.30	0.750	0.300	0.426	
0.4411	28229.41	3.7640	3.7641	1.3141	26.24	0.29	0.750			
0.4450	28482.19	3.7610	3.7611	1.3375	26.22	0.27	0.750			
0.4491	28741.35	3.7580	3.7581	1.3575	26.20	0.25	0.750			
0.4532	29003.67	3.7550	3.7550	1.3881	26.18	0.23	0.750			
0.4573	29269.40	3.7520	3.7521	1.4050	26.17	0.22	0.750			
0.4617	29545.72	3.7490	3.7490	1.4290	26.16	0.21	0.750			
0.4660	29821.41	3.7460	3.7461	1.4700	26.15	0.20	0.750			
0.4704	30105.02	3.7430	3.7428	1.4886	26.14	0.19	0.750			
0.4749	30392.20	3.7400	3.7400	1.5388	26.13	0.18	0.750			
0.4795	30687.96	3.7370	3.7369	1.5914	26.12	0.17	0.750			
0.4844	30998.81	3.7340	3.7340	1.6409	26.10	0.15	0.750			
0.4894	31323.62	3.7310	3.7306	1.6991	26.09	0.14	0.750			
0.4945	31650.68	3.7280	3.7279	1.7625	26.07	0.12	0.750			
0.5000	31998.86	3.7250	3.7250	1.7956	26.05	0.10	0.750			
0.5055	32353.84	3.7220	3.7222	1.8331	26.04	0.09	0.750			
0.5110	32703.77	3.7190	3.7193	1.8617	26.02	0.07	0.750			
0.5165	33059.00	3.7160	3.7158	1.9118	26.01	0.06	0.750			
0.5224	33431.39	3.7130	3.7130	1.9680	26.00	0.05	0.750			
0.5284	33816.43	3.7100	3.7100	2.0289	25.98	0.03	0.750			
0.5346	34215.46	3.7070	3.7070	2.1177	25.96	0.01	0.750			
0.5409	34619.15	3.7040	3.7040	2.1570	25.95	-0.00	0.750			
0.5476	35046.47	3.7010	3.7010	2.2423	25.94	-0.01	0.750			
0.5544	35481.21	3.6980	3.6982	2.3187	25.92	-0.03	0.750			
0.5615	35932.99	3.6950	3.6949	2.3771	25.90	-0.05	0.750			
0.5687	36397.69	3.6920	3.6920	2.4557	25.88	-0.07	0.750			
0.5761	36872.74	3.6890	3.6891	2.5300	25.87	-0.08	0.750			
0.5839	37367.11	3.6860	3.6859	2.6327	25.86	-0.09	0.750			
0.5919	37880.75	3.6830	3.6830	2.7353	25.85	-0.10	0.750			
0.6003	38417.53	3.6800	3.6800	2.8300	25.84	-0.11	0.750			
0.6089	38970.27	3.6770	3.6770	2.8846	25.83	-0.12	0.750			
0.6176	39529.57	3.6740	3.6740	2.9103	25.82	-0.13	0.750			
0.6265	40098.40	3.6710	3.6708	2.8289	25.81	-0.14	0.750			
0.6352	40653.49	3.6680	3.6679	2.6586	25.81	-0.14	0.750			
0.6428	41139.14	3.6650	3.6649	2.3976	25.81	-0.14	0.750			
0.6495	41568.90	3.6620	3.6622	2.1363	25.81	-0.14	0.750			
0.6553	41937.50	3.6590	3.6588	1.9281	25.81	-0.14	0.750			
0.6605	42269.74	3.6560	3.6561	1.7423	25.82	-0.13	0.750			
0.6653	42580.94	3.6530	3.6530	1.6085	25.82	-0.13	0.750			
0.6700	42879.40	3.6500	3.6499	1.5177	25.82	-0.13	0.750			
0.6744	43158.94	3.6470	3.6472	1.4201	25.81	-0.14	0.750			
0.6785	43421.72	3.6440	3.6441	1.3476	25.81	-0.14	0.750			
0.6824	43671.17	3.6410	3.6410	1.2820	25.81	-0.14	0.750			
0.6859	43900.06	3.6380	3.6381	1.2331	25.82	-0.13	0.750			
0.6896	44135.47	3.6350	3.6348	1.2029	25.82	-0.13	0.750			
0.6931	44356.58	3.6320	3.6321	1.1906	25.82	-0.13	0.750			
0.6966	44579.66	3.6290	3.6290	1.1956	25.81	-0.14	0.750			
0.7002	44812.40	3.6260	3.6260	1.1962	25.81	-0.14	0.750			
0.7038	45041.49	3.6230	3.6230	1.2102	25.81	-0.14	0.750			
0.7075	45276.88	3.6200	3.6201	1.2143	25.81	-0.14	0.750			
0.7112	45516.30	3.6170	3.6171	1.1995	25.82	-0.13	0.750			
0.7149	45751.39	3.6140	3.6139	1.1724	25.82	-0.13	0.750			
0.7183	45972.89	3.6110	3.6113	1.1478	25.82	-0.13	0.750			
0.7216	46184.51	3.6080	3.6081	1.1286	25.81	-0.14	0.750			
0.7250	46398.24	3.6050	3.6049	1.1270	25.81	-0.14	0.750			
0.7282	46607.17	3.6020	3.6020	1.1205	25.81	-0.14	0.750			
0.7316	46820.40	3.5990	3.5990	1.1441	25.81	-0.14	0.750			
0.7350	47041.80	3.5960	3.5960	1.1743	25.81	-0.14	0.750			
0.7386	47272.70	3.5930	3.5923	1.2004	25.81	-0.14	0.750			
0.7422	47501.29	3.5900	3.5901	1.2407	25.81	-0.14	0.750			
0.7460	47741.70	3.5870	3.5871	1.2875	25.81	-0.14	0.750			
0.7499	47994.34	3.5840	3.5839	1.3298	25.81	-0.14	0.750			
0.7540	48257.50	3.5810	3.5810	1.3728	25.81	-0.14	0.750			
0.7581	48519.16	3.5780	3.5781	1.4270	25.81	-0.14	0.750			
0.7625	48799.75	3.5750	3.5750	1.4748	25.81	-0.14	0.750			
0.7671	49091.26	3.5720	3.5720	1.5073	25.80	-0.15	0.750			
0.7716	49383.40	3.5690	3.5688	1.5597	25.80	-0.15	0.750			
0.7764	49690.20	3.5660	3.5658	1.5854	25.79	-0.16	0.750			
0.7812	49997.63	3.5630	3.5630	1.6225	25.79	-0.16	0.750			
0.7861	50311.76	3.5600	3.5602	1.6394	25.79	-0.16	0.750			
0.7910	50625.87	3.5570	3.5571	1.6489	25.79	-0.16	0.750			
0.7961	50948.15	3.5540	3.5540	1.6737	25.79	-0.16	0.750			
0.8012	51274.58	3.5510	3.5508	1.6978	25.79	-0.16	0.750			
0.8063	51603.45	3.5480	3.5481	1.7163	25.79	-0.16	0.750			
0.8114	51927.22	3.5450	3.5453	1.7252	25.79	-0.16	0.750			
0.8165	52254.62	3.5420	3.5420	1.7528	25.79	-0.16	0.750			
0.8219	52599.38	3.5390	3.5390	1.7641	25.79	-0.16	0.750			
0.8275	52963.10	3.5360	3.5357	1.6845	25.79	-0.16	0.750			
0.8329	53305.06	3.5330	3.5327	1.5582	25.81	-0.14	0.750			
0.8376	53607.70	3.5300	3.5304	1.3299	25.82	-0.13	0.750			
0.8413	53846.25	3.5270	3.5272	1.0499	25.83	-0.12	0.750			
0.8437	53997.49	3.5240	3.5237	0.7863	25.84	-0.11	0.750			
0.8452	54094.75	3.5210	3.5209	0.5555	25.85	-0.10	0.750			
0.8464	54169.64	3.5180	3.5178	0.4437	25.86	-0.09	0.750			
0.8475	54241.12	3.5150	3.5148	0.3820	25.86	-0.09	0.750			
0.8485	54303.42	3.5120	3.5120	0.3450	25.87	-0.08	0.750			
0.8495	54364.98	3.5090	3.5089	0.3245	25.87	-0.08	0.750			
0.8504	54425.12	3.5060	3.5060	0.3135	25.88	-0.07	0.750			
0.8513	54483.84	3.5030	3.5027	0.3027	25.88	-0.07	0.750			
0.8522	54540.88	3.5000	3.5000	0.2935	25.89	-0.06	0.750			
0.8531	54596.76	3.4970	3.4972	0.2856	25.89	-0.06	0.750			
0.8539	54650.83	3.4940	3.4939	0.2778	25.89	-0.06	0.750			
0.8547	54703.37	3.4910	3.4909	0.2699	25.90	-0.05	0.750			
0.8555	54752.99	3.4880	3.4880	0.2620	25.90	-0.05	0.750			
0.8563	54802.40	3.4850	3.4850	0.2558	25.91	-0.04	0.750			
0.8571	54851.57	3.4820	3.4820	0.2522	25.91	-0.04	0.750			
0.8578	54899.37	3.4790	3.4789	0.2464	25.92	-0.03	0.750			
0.8585	54946.15	3.4760	3.4760	0.2416	25.92	-0.03	0.750			
0.8593	54992.07	3.4730	3.4731	0.2371	25.92	-0.03	0.750			
0.8600	55037.05	3.4700	3.4700	0.2322	25.93	-0.02	0.750			
0.8606	55081.37	3.4670	3.4669	0.2268	25.93	-0.02	0.750			
0.8613	55124.07	3.4640	3.4640	0.2218	25.94	-0.01	0.750			
0.8620	55166.41	3.4610	3.4611	0.2172	25.94	-0.01	0.750			
0.8626	55207.57	3.4580	3.4580	0.2124	25.94	-0.01	0.750			
0.8633	55248.01	3.4550	3.4549	0.2077	25.95	-0.00	0.750			
0.8639	55287.30	3.4520	3.4521	0.2022	25.95	0.00	0.750			
0.8645	55325.49	3.4490	3.4490	0.1977	25.95	0.00	0.750			
0.8650	55363.02	3.4460	3.4460	0.1933	25.96	0.01	0.750			
0.8656	55399.93	3.4430	3.4431	0.1883	25.96	0.01	0.750			
0.8662	55435.37	3.4400	3.4400	0.1833	25.96	0.01	0.750			
0.8667	55470.48	3.4370	3.4370	0.1784	25.97	0.02	0.750			
0.8673	55504.21	3.4340	3.4341	0.1730	25.97	0.02	0.750			
0.8678	55536.98	3.4310	3.4309	0.1673	25.97	0.02	0.750			
0.8683	55568.67	3.4280	3.4281	0.1621	25.97	0.02	0.750			
0.8687	55599.10	3.4250	3.4250	0.1559	25.98	0.03	0.750			
0.8692	55628.50	3.4220	3.4219	0.1503	25.98	0.03	0.750			
0.8696	55656.98	3.4190	3.4190	0.1445	25.98	0.03	0.750			
0.8701	55684.03	3.4160	3.4161	0.1384	25.99	0.04	0.750			
0.8705	55710.29	3.4130	3.4131	0.1328	25.99	0.04	0.750			
0.8709	55735.19	3.4100	3.4100	0.1265	25.99	0.04	0.750			
0.8712	55759.12	3.4070	3.4070	0.1196	25.99	0.04	0.750			
0.8716	55781.43	3.4040	3.4040	0.1127	25.99	0.04	0.750			
0.8719	55803.75	3.4010	3.4008	0.1025	26.00	0.05	0.750			
0.8722	55823.19	3.3980	3.3980	0.0948	26.00	0.05	0.750			
0.8725	55840.41	3.3950	3.3951	0.0846	26.00	0.05	0.750			
0.8728	55856.77	3.3920	3.3923	0.0753	26.00	0.05	0.750			
0.8730	55870.12	3.3890	3.3894	0.0638	26.00	0.05	0.750			
0.8732	55882.05	3.3860	3.3863	0.0517	26.00	0.05	0.750			
0.8733	55890.75	3.3830	3.3838	0.0390	26.00	0.05	0.750			
0.8734	55897.01	3.3800	3.3813	0.0263	26.00	0.05	0.750			
