Ah_balance (normalized)	Ah_balance (mAh)	Voltage - fit (V)	Voltage -  interpolate (V)	dQ/dV (1/V)	Temperature (°C)	Temperature - diff (°C)	Current (C)	R_DC 0ms (mOhm)	R_DC 50ms (mOhm)	R_DC 50 ms PEC (mOhm)
0.0004	25.99	4.1550	4.1547	-0.1159	25.18	0.01	-0.750			
0.0008	52.31	4.1520	4.1519	-0.1538	25.17	0.00	-0.750			
0.0013	85.42	4.1490	4.1490	-0.1897	25.17	0.00	-0.750			
0.0020	125.85	4.1460	4.1461	-0.2221	25.17	0.00	-0.750			
0.0027	171.73	4.1430	4.1430	-0.2551	25.17	0.00	-0.750			
0.0035	224.73	4.1400	4.1400	-0.2881	25.17	0.00	-0.750			
0.0044	283.12	4.1370	4.1369	-0.3183	25.17	-0.00	-0.750			
0.0054	347.29	4.1340	4.1340	-0.3472	25.17	-0.00	-0.750			
0.0065	417.42	4.1310	4.1311	-0.3738	25.17	-0.00	-0.750			
0.0077	492.11	4.1280	4.1280	-0.4021	25.16	-0.01	-0.750			
0.0089	572.43	4.1250	4.1250	-0.4274	25.16	-0.01	-0.750			
0.0103	657.06	4.1220	4.1220	-0.4496	25.16	-0.01	-0.750			
0.0117	745.76	4.1190	4.1190	-0.4734	25.16	-0.01	-0.750			
0.0131	839.81	4.1160	4.1160	-0.4955	25.16	-0.01	-0.750			
0.0147	937.74	4.1130	4.1130	-0.5113	25.15	-0.02	-0.750			
0.0162	1038.47	4.1100	4.1101	-0.5291	25.15	-0.02	-0.750			
0.0178	1140.97	4.1070	4.1070	-0.5417	25.15	-0.02	-0.750			
0.0195	1246.99	4.1040	4.1039	-0.5538	25.15	-0.02	-0.750			
0.0212	1354.29	4.1010	4.1010	-0.5638	25.15	-0.02	-0.750			
0.0229	1463.28	4.0980	4.0980	-0.5772	25.15	-0.02	-0.750			
0.0246	1576.69	4.0950	4.0950	-0.5884	25.15	-0.02	-0.750			
0.0264	1691.31	4.0920	4.0919	-0.5981	25.15	-0.02	-0.750			
0.0282	1806.93	4.0890	4.0891	-0.6061	25.15	-0.02	-0.750			
0.0301	1924.72	4.0860	4.0859	-0.6137	25.15	-0.02	-0.750			
0.0319	2044.05	4.0830	4.0830	-0.6199	25.15	-0.02	-0.750			
0.0338	2162.90	4.0800	4.0800	-0.6246	25.15	-0.02	-0.750			
0.0357	2281.92	4.0770	4.0770	-0.6267	25.15	-0.02	-0.750			
0.0376	2403.70	4.0740	4.0740	-0.6384	25.15	-0.02	-0.750			
0.0395	2526.98	4.0710	4.0710	-0.6423	25.15	-0.02	-0.750			
0.0414	2650.87	4.0680	4.0680	-0.6500	25.15	-0.02	-0.750			
0.0434	2777.27	4.0650	4.0650	-0.6517	25.15	-0.02	-0.750			
0.0454	2903.26	4.0620	4.0621	-0.6569	25.16	-0.01	-0.750			
0.0473	3029.01	4.0590	4.0590	-0.6627	25.16	-0.01	-0.750			
0.0493	3156.81	4.0560	4.0559	-0.6666	25.17	-0.00	-0.750			
0.0513	3284.82	4.0530	4.0530	-0.6679	25.17	0.00	-0.750			
0.0533	3413.70	4.0500	4.0500	-0.6718	25.18	0.01	-0.750			
0.0554	3543.44	4.0470	4.0470	-0.6783	25.18	0.01	-0.750			
0.0574	3675.02	4.0440	4.0440	-0.6838	25.19	0.02	-0.750			
0.0595	3805.59	4.0410	4.0409	-0.6861	25.19	0.02	-0.750			
0.0615	3938.17	4.0380	4.0380	-0.6872	25.19	0.02	-0.750			
0.0636	4071.88	4.0350	4.0350	-0.6911	25.20	0.03	-0.750			
0.0657	4204.93	4.0320	4.0319	-0.6913	25.20	0.03	-0.750			
0.0678	4337.59	4.0290	4.0290	-0.6910	25.20	0.03	-0.750			
0.0698	4469.40	4.0260	4.0260	-0.6894	25.20	0.03	-0.750			
0.0719	4600.90	4.0230	4.0230	-0.6916	25.20	0.03	-0.750			
0.0740	4733.70	4.0200	4.0200	-0.6943	25.21	0.04	-0.750			
0.0761	4868.43	4.0170	4.0170	-0.7009	25.21	0.04	-0.750			
0.0782	5002.84	4.0140	4.0140	-0.7029	25.21	0.04	-0.750			
0.0803	5138.30	4.0110	4.0110	-0.7068	25.21	0.04	-0.750			
0.0824	5275.17	4.0080	4.0080	-0.7073	25.22	0.05	-0.750			
0.0846	5411.52	4.0050	4.0050	-0.7124	25.22	0.05	-0.750			
0.0867	5548.45	4.0020	4.0020	-0.7129	25.23	0.06	-0.750			
0.0888	5686.05	3.9990	3.9990	-0.7147	25.23	0.06	-0.750			
0.0910	5822.90	3.9960	3.9962	-0.7150	25.24	0.07	-0.750			
0.0931	5960.28	3.9930	3.9929	-0.7174	25.24	0.07	-0.750			
0.0953	6097.66	3.9900	3.9900	-0.7203	25.25	0.08	-0.750			
0.0974	6236.21	3.9870	3.9870	-0.7274	25.25	0.08	-0.750			
0.0996	6375.97	3.9840	3.9840	-0.7276	25.25	0.08	-0.750			
0.1019	6518.67	3.9810	3.9810	-0.7318	25.26	0.09	-0.750			
0.1041	6659.92	3.9780	3.9782	-0.7287	25.26	0.09	-0.750			
0.1063	6800.11	3.9750	3.9751	-0.7295	25.26	0.09	-0.750			
0.1084	6939.38	3.9720	3.9720	-0.7295	25.27	0.10	-0.750			
0.1106	7077.54	3.9690	3.9690	-0.7281	25.27	0.10	-0.750			
0.1128	7217.31	3.9660	3.9659	-0.7335	25.27	0.10	-0.750			
0.1150	7358.81	3.9630	3.9630	-0.7365	25.28	0.11	-0.750			
0.1172	7501.75	3.9600	3.9600	-0.7425	25.28	0.11	-0.750			
0.1195	7645.06	3.9570	3.9569	-0.7438	25.28	0.11	-0.750			
0.1217	7787.75	3.9540	3.9541	-0.7431	25.29	0.12	-0.750			
0.1239	7930.59	3.9510	3.9509	-0.7458	25.29	0.12	-0.750			
0.1261	8073.42	3.9480	3.9480	-0.7473	25.30	0.13	-0.750			
0.1284	8216.78	3.9450	3.9450	-0.7482	25.30	0.13	-0.750			
0.1306	8360.55	3.9420	3.9420	-0.7520	25.30	0.13	-0.750			
0.1329	8504.06	3.9390	3.9390	-0.7593	25.31	0.14	-0.750			
0.1352	8652.54	3.9360	3.9360	-0.7588	25.31	0.14	-0.750			
0.1375	8798.97	3.9330	3.9329	-0.7586	25.31	0.14	-0.750			
0.1398	8945.29	3.9300	3.9300	-0.7590	25.32	0.15	-0.750			
0.1420	9090.82	3.9270	3.9271	-0.7599	25.32	0.15	-0.750			
0.1443	9235.67	3.9240	3.9239	-0.7609	25.32	0.15	-0.750			
0.1466	9381.53	3.9210	3.9210	-0.7623	25.33	0.16	-0.750			
0.1489	9527.25	3.9180	3.9180	-0.7614	25.33	0.16	-0.750			
0.1512	9676.20	3.9150	3.9150	-0.7677	25.34	0.17	-0.750			
0.1535	9823.62	3.9120	3.9120	-0.7679	25.34	0.17	-0.750			
0.1558	9971.14	3.9090	3.9089	-0.7658	25.34	0.17	-0.750			
0.1581	10116.41	3.9060	3.9061	-0.7681	25.35	0.18	-0.750			
0.1604	10264.85	3.9030	3.9030	-0.7684	25.35	0.18	-0.750			
0.1627	10412.48	3.9000	3.9000	-0.7697	25.35	0.18	-0.750			
0.1650	10561.34	3.8970	3.8969	-0.7737	25.36	0.19	-0.750			
0.1673	10709.22	3.8940	3.8941	-0.7746	25.36	0.19	-0.750			
0.1696	10857.56	3.8910	3.8909	-0.7795	25.37	0.20	-0.750			
0.1720	11007.99	3.8880	3.8881	-0.7832	25.37	0.20	-0.750			
0.1743	11158.00	3.8850	3.8850	-0.7804	25.37	0.20	-0.750			
0.1767	11310.09	3.8820	3.8819	-0.7822	25.38	0.21	-0.750			
0.1791	11460.50	3.8790	3.8794	-0.7816	25.38	0.21	-0.750			
0.1814	11610.48	3.8760	3.8759	-0.7773	25.38	0.21	-0.750			
0.1837	11758.62	3.8730	3.8730	-0.7797	25.38	0.21	-0.750			
0.1861	11908.36	3.8700	3.8700	-0.7783	25.38	0.21	-0.750			
0.1884	12057.83	3.8670	3.8670	-0.7804	25.38	0.21	-0.750			
0.1908	12208.30	3.8640	3.8640	-0.7814	25.38	0.21	-0.750			
0.1931	12359.38	3.8610	3.8610	-0.7788	25.38	0.21	-0.750			
0.1954	12507.66	3.8580	3.8580	-0.7778	25.39	0.22	-0.750			
0.1978	12656.23	3.8550	3.8550	-0.7795	25.39	0.22	-0.750			
0.2001	12804.86	3.8520	3.8520	-0.7771	25.39	0.22	-0.750			
0.2024	12955.67	3.8490	3.8488	-0.7784	25.40	0.23	-0.750			
0.2048	13104.79	3.8460	3.8461	-0.7758	25.40	0.23	-0.750			
0.2071	13255.08	3.8430	3.8430	-0.7736	25.41	0.24	-0.750			
0.2094	13404.25	3.8400	3.8400	-0.7747	25.41	0.24	-0.750			
0.2117	13550.84	3.8370	3.8369	-0.7698	25.41	0.24	-0.750			
0.2140	13699.03	3.8340	3.8339	-0.7684	25.42	0.25	-0.750			
0.2164	13847.02	3.8310	3.8314	-0.7657	25.42	0.25	-0.750			
0.2186	13993.13	3.8280	3.8280	-0.7642	25.42	0.25	-0.750			
0.2209	14140.15	3.8250	3.8251	-0.7601	25.43	0.26	-0.750			
0.2232	14285.33	3.8220	3.8219	-0.7570	25.43	0.26	-0.750			
0.2255	14430.94	3.8190	3.8190	-0.7578	25.43	0.26	-0.750			
0.2277	14575.30	3.8160	3.8160	-0.7509	25.44	0.27	-0.750			
0.2300	14719.81	3.8130	3.8130	-0.7484	25.44	0.27	-0.750			
0.2322	14862.96	3.8100	3.8100	-0.7448	25.45	0.28	-0.750			
0.2345	15005.06	3.8070	3.8070	-0.7403	25.45	0.28	-0.750			
0.2367	15148.15	3.8040	3.8040	-0.7363	25.45	0.28	-0.750			
0.2389	15289.06	3.8010	3.8010	-0.7276	25.46	0.29	-0.750			
0.2411	15428.11	3.7980	3.7981	-0.7229	25.46	0.29	-0.750			
0.2432	15566.16	3.7950	3.7949	-0.7195	25.46	0.29	-0.750			
0.2454	15702.98	3.7920	3.7919	-0.7133	25.47	0.30	-0.750			
0.2475	15839.08	3.7890	3.7890	-0.7132	25.47	0.30	-0.750			
0.2496	15975.67	3.7860	3.7860	-0.7102	25.47	0.30	-0.750			
0.2518	16113.92	3.7830	3.7830	-0.7113	25.48	0.31	-0.750			
0.2539	16250.38	3.7800	3.7802	-0.7080	25.48	0.31	-0.750			
0.2560	16384.99	3.7770	3.7769	-0.7049	25.48	0.31	-0.750			
0.2581	16519.42	3.7740	3.7740	-0.7068	25.48	0.31	-0.750			
0.2602	16653.79	3.7710	3.7710	-0.7083	25.48	0.31	-0.750			
0.2624	16791.60	3.7680	3.7680	-0.7104	25.48	0.31	-0.750			
0.2645	16927.27	3.7650	3.7650	-0.7116	25.48	0.31	-0.750			
0.2666	17064.10	3.7620	3.7621	-0.7138	25.48	0.31	-0.750			
0.2688	17201.41	3.7590	3.7589	-0.7164	25.48	0.31	-0.750			
0.2709	17336.84	3.7560	3.7560	-0.7223	25.49	0.32	-0.750			
0.2731	17476.55	3.7530	3.7530	-0.7278	25.49	0.32	-0.750			
0.2753	17617.31	3.7500	3.7500	-0.7340	25.49	0.32	-0.750			
0.2775	17759.26	3.7470	3.7470	-0.7444	25.50	0.33	-0.750			
0.2797	17902.23	3.7440	3.7440	-0.7505	25.50	0.33	-0.750			
0.2820	18046.44	3.7410	3.7410	-0.7645	25.50	0.33	-0.750			
0.2843	18193.79	3.7380	3.7380	-0.7712	25.50	0.33	-0.750			
0.2866	18342.81	3.7350	3.7350	-0.7760	25.50	0.33	-0.750			
0.2890	18494.53	3.7320	3.7320	-0.7881	25.50	0.33	-0.750			
0.2913	18646.27	3.7290	3.7296	-0.7993	25.50	0.33	-0.750			
0.2937	18799.29	3.7260	3.7260	-0.8089	25.50	0.33	-0.750			
0.2962	18954.08	3.7230	3.7230	-0.8260	25.50	0.33	-0.750			
0.2987	19114.49	3.7200	3.7200	-0.8407	25.50	0.33	-0.750			
0.3012	19279.87	3.7170	3.7169	-0.8583	25.50	0.33	-0.750			
0.3038	19445.69	3.7140	3.7142	-0.8724	25.50	0.33	-0.750			
0.3065	19613.46	3.7110	3.7110	-0.8909	25.50	0.33	-0.750			
0.3092	19786.71	3.7080	3.7080	-0.9007	25.50	0.33	-0.750			
0.3119	19960.63	3.7050	3.7049	-0.9100	25.50	0.33	-0.750			
0.3146	20136.19	3.7020	3.7020	-0.9249	25.50	0.33	-0.750			
0.3174	20314.86	3.6990	3.6991	-0.9409	25.50	0.33	-0.750			
0.3203	20498.37	3.6960	3.6959	-0.9648	25.49	0.32	-0.750			
0.3232	20686.05	3.6930	3.6928	-0.9711	25.49	0.32	-0.750			
0.3261	20872.88	3.6900	3.6900	-0.9832	25.48	0.31	-0.750			
0.3291	21065.00	3.6870	3.6874	-1.0030	25.48	0.31	-0.750			
0.3322	21258.59	3.6840	3.6839	-1.0202	25.48	0.31	-0.750			
0.3352	21454.16	3.6810	3.6809	-1.0349	25.47	0.30	-0.750			
0.3383	21651.02	3.6780	3.6780	-1.0490	25.47	0.30	-0.750			
0.3415	21856.53	3.6750	3.6751	-1.0887	25.47	0.30	-0.750			
0.3448	22069.81	3.6720	3.6720	-1.1016	25.47	0.30	-0.750			
0.3482	22283.76	3.6690	3.6689	-1.1174	25.46	0.29	-0.750			
0.3516	22499.66	3.6660	3.6660	-1.1327	25.46	0.29	-0.750			
0.3550	22718.12	3.6630	3.6631	-1.1574	25.46	0.29	-0.750			
0.3585	22941.82	3.6600	3.6599	-1.1765	25.45	0.28	-0.750			
0.3620	23169.09	3.6570	3.6569	-1.1913	25.45	0.28	-0.750			
0.3656	23398.19	3.6540	3.6541	-1.2139	25.44	0.27	-0.750			
0.3693	23637.27	3.6510	3.6510	-1.2372	25.44	0.27	-0.750			
0.3731	23876.47	3.6480	3.6479	-1.2506	25.43	0.26	-0.750			
0.3768	24114.66	3.6450	3.6450	-1.2767	25.42	0.25	-0.750			
0.3806	24359.84	3.6420	3.6420	-1.2919	25.42	0.25	-0.750			
0.3846	24612.58	3.6390	3.6389	-1.3222	25.42	0.25	-0.750			
0.3885	24867.16	3.6360	3.6359	-1.3596	25.41	0.24	-0.750			
0.3927	25133.70	3.6330	3.6331	-1.3774	25.41	0.24	-0.750			
0.3969	25402.96	3.6300	3.6299	-1.4014	25.41	0.24	-0.750			
0.4012	25674.01	3.6270	3.6270	-1.4253	25.40	0.23	-0.750			
0.4054	25946.09	3.6240	3.6241	-1.4439	25.40	0.23	-0.750			
0.4098	26225.34	3.6210	3.6209	-1.4902	25.39	0.22	-0.750			
0.4143	26514.36	3.6180	3.6179	-1.5102	25.38	0.21	-0.750			
0.4189	26807.89	3.6150	3.6150	-1.5377	25.38	0.21	-0.750			
0.4236	27112.01	3.6120	3.6120	-1.5785	25.37	0.20	-0.750	0.384	0.558	
0.4284	27419.89	3.6090	3.6091	-1.6038	25.36	0.19	-0.750			
0.4333	27729.86	3.6060	3.6060	-1.6151	25.36	0.19	-0.750			
0.4381	28040.00	3.6030	3.6029	-1.6427	25.36	0.19	-0.750			
0.4430	28351.43	3.6000	3.6000	-1.6721	25.36	0.19	-0.750			
0.4481	28676.39	3.5970	3.5970	-1.7215	25.36	0.19	-0.750			
0.4533	29012.26	3.5940	3.5940	-1.7509	25.36	0.19	-0.750			
0.4587	29354.87	3.5910	3.5910	-1.7907	25.35	0.18	-0.750			
0.4642	29707.36	3.5880	3.5881	-1.8244	25.34	0.17	-0.750			
0.4697	30060.68	3.5850	3.5851	-1.8588	25.34	0.17	-0.750			
0.4752	30415.10	3.5820	3.5821	-1.8910	25.34	0.17	-0.750			
0.4810	30781.96	3.5790	3.5789	-1.9050	25.34	0.17	-0.750			
0.4867	31147.92	3.5760	3.5760	-1.9426	25.34	0.17	-0.750			
0.4927	31530.45	3.5730	3.5730	-1.9809	25.34	0.17	-0.750			
0.4986	31913.24	3.5700	3.5700	-2.0024	25.33	0.16	-0.750			
0.5047	32299.51	3.5670	3.5671	-2.0267	25.33	0.16	-0.750			
0.5108	32690.00	3.5640	3.5640	-2.0322	25.34	0.17	-0.750			
0.5169	33083.73	3.5610	3.5610	-2.0454	25.34	0.17	-0.750			
0.5232	33483.38	3.5580	3.5581	-2.0601	25.35	0.18	-0.750			
0.5293	33874.66	3.5550	3.5550	-2.0427	25.36	0.19	-0.750			
0.5355	34269.54	3.5520	3.5521	-2.0531	25.37	0.20	-0.750			
0.5416	34660.79	3.5490	3.5491	-2.0573	25.38	0.21	-0.750			
0.5478	35056.05	3.5460	3.5458	-2.0531	25.39	0.22	-0.750			
0.5540	35452.98	3.5430	3.5431	-2.0469	25.40	0.23	-0.750			
0.5601	35845.53	3.5400	3.5401	-2.0477	25.41	0.24	-0.750			
0.5663	36242.14	3.5370	3.5369	-2.0253	25.42	0.25	-0.750			
0.5723	36626.74	3.5340	3.5340	-2.0018	25.43	0.26	-0.750			
0.5783	37010.20	3.5310	3.5308	-1.9855	25.44	0.27	-0.750			
0.5842	37388.10	3.5280	3.5280	-1.9594	25.45	0.28	-0.750			
0.5900	37762.44	3.5250	3.5251	-1.9411	25.46	0.29	-0.750			
0.5959	38137.36	3.5220	3.5219	-1.9101	25.47	0.30	-0.750			
0.6015	38498.69	3.5190	3.5191	-1.8646	25.48	0.31	-0.750			
0.6072	38860.98	3.5160	3.5160	-1.8349	25.50	0.33	-0.750			
0.6126	39207.59	3.5130	3.5130	-1.7836	25.51	0.34	-0.750			
0.6179	39547.37	3.5100	3.5100	-1.7448	25.53	0.36	-0.750			
0.6231	39876.44	3.5070	3.5069	-1.6940	25.54	0.37	-0.750			
0.6281	40196.02	3.5040	3.5041	-1.6424	25.56	0.39	-0.750			
0.6329	40508.05	3.5010	3.5010	-1.6020	25.57	0.40	-0.750			
0.6376	40809.20	3.4980	3.4979	-1.5544	25.59	0.42	-0.750			
0.6423	41105.46	3.4950	3.4950	-1.5137	25.60	0.43	-0.750			
0.6467	41390.98	3.4920	3.4920	-1.4677	25.62	0.45	-0.750			
0.6511	41667.30	3.4890	3.4890	-1.4287	25.63	0.46	-0.750			
0.6553	41939.94	3.4860	3.4860	-1.3882	25.65	0.48	-0.750			
0.6594	42204.27	3.4830	3.4829	-1.3462	25.66	0.49	-0.750			
0.6634	42457.23	3.4800	3.4800	-1.2991	25.68	0.51	-0.750			
0.6672	42702.38	3.4770	3.4771	-1.2545	25.69	0.52	-0.750			
0.6709	42939.25	3.4740	3.4740	-1.2141	25.71	0.54	-0.750			
0.6745	43166.29	3.4710	3.4710	-1.1729	25.72	0.55	-0.750			
0.6779	43386.48	3.4680	3.4680	-1.1345	25.74	0.57	-0.750			
0.6813	43601.63	3.4650	3.4649	-1.1069	25.75	0.58	-0.750			
0.6845	43810.78	3.4620	3.4620	-1.0723	25.76	0.59	-0.750			
0.6877	44013.28	3.4590	3.4590	-1.0388	25.78	0.61	-0.750			
0.6908	44209.65	3.4560	3.4561	-1.0097	25.79	0.62	-0.750			
0.6938	44400.18	3.4530	3.4530	-0.9790	25.80	0.63	-0.750			
0.6967	44585.79	3.4500	3.4499	-0.9479	25.81	0.64	-0.750			
0.6994	44763.29	3.4470	3.4470	-0.9187	25.82	0.65	-0.750			
0.7021	44935.80	3.4440	3.4441	-0.8938	25.83	0.66	-0.750			
0.7048	45105.78	3.4410	3.4410	-0.8754	25.84	0.67	-0.750			
0.7073	45270.14	3.4380	3.4379	-0.8618	25.85	0.68	-0.750			
0.7099	45431.29	3.4350	3.4350	-0.8473	25.86	0.69	-0.750			
0.7124	45592.24	3.4320	3.4320	-0.8443	25.87	0.70	-0.750			
0.7149	45754.33	3.4290	3.4290	-0.8457	25.88	0.71	-0.750			
0.7174	45915.54	3.4260	3.4260	-0.8474	25.89	0.72	-0.750			
0.7200	46079.30	3.4230	3.4230	-0.8526	25.90	0.73	-0.750			
0.7226	46243.51	3.4200	3.4200	-0.8553	25.90	0.73	-0.750			
0.7251	46408.24	3.4170	3.4170	-0.8606	25.90	0.73	-0.750			
0.7277	46575.00	3.4140	3.4141	-0.8644	25.91	0.74	-0.750			
0.7303	46740.50	3.4110	3.4110	-0.8642	25.91	0.74	-0.750			
0.7329	46908.33	3.4080	3.4080	-0.8591	25.92	0.75	-0.750			
0.7355	47073.98	3.4050	3.4050	-0.8500	25.93	0.76	-0.750			
0.7381	47236.68	3.4020	3.4020	-0.8426	25.94	0.77	-0.750			
0.7406	47397.97	3.3990	3.3991	-0.8339	25.95	0.78	-0.750			
0.7431	47555.70	3.3960	3.3960	-0.8227	25.95	0.78	-0.750			
0.7455	47712.59	3.3930	3.3929	-0.8136	25.96	0.79	-0.750			
0.7480	47868.81	3.3900	3.3900	-0.7983	25.96	0.79	-0.750			
0.7504	48022.86	3.3870	3.3870	-0.7820	25.96	0.79	-0.750			
0.7527	48172.98	3.3840	3.3840	-0.7663	25.97	0.80	-0.750			
0.7550	48317.11	3.3810	3.3809	-0.7429	25.97	0.80	-0.750			
0.7571	48456.87	3.3780	3.3780	-0.7189	25.98	0.81	-0.750			
0.7593	48592.18	3.3750	3.3750	-0.6987	25.99	0.82	-0.750			
0.7613	48725.36	3.3720	3.3720	-0.6767	25.99	0.82	-0.750			
0.7633	48853.95	3.3690	3.3690	-0.6562	26.00	0.83	-0.750			
0.7653	48977.80	3.3660	3.3660	-0.6354	26.01	0.84	-0.750			
0.7671	49096.72	3.3630	3.3630	-0.6120	26.01	0.84	-0.750			
0.7689	49211.82	3.3600	3.3600	-0.5920	26.01	0.84	-0.750			
0.7707	49323.55	3.3570	3.3570	-0.5741	26.02	0.85	-0.750			
0.7724	49430.86	3.3540	3.3540	-0.5558	26.02	0.85	-0.750			
0.7740	49536.76	3.3510	3.3510	-0.5395	26.02	0.85	-0.750			
0.7756	49637.91	3.3480	3.3480	-0.5233	26.02	0.85	-0.750			
0.7771	49736.96	3.3450	3.3450	-0.5082	26.03	0.86	-0.750			
0.7786	49833.12	3.3420	3.3421	-0.4931	26.03	0.86	-0.750			
0.7801	49926.06	3.3390	3.3390	-0.4793	26.03	0.86	-0.750			
0.7815	50016.78	3.3360	3.3360	-0.4651	26.04	0.87	-0.750			
0.7829	50104.83	3.3330	3.3330	-0.4513	26.04	0.87	-0.750			
0.7842	50189.75	3.3300	3.3300	-0.4369	26.05	0.88	-0.750			
0.7855	50271.92	3.3270	3.3270	-0.4236	26.05	0.88	-0.750			
0.7867	50351.76	3.3240	3.3239	-0.4143	26.06	0.89	-0.750			
0.7880	50429.67	3.3210	3.3211	-0.4047	26.06	0.89	-0.750			
0.7892	50506.38	3.3180	3.3178	-0.3938	26.06	0.89	-0.750			
0.7903	50581.56	3.3150	3.3150	-0.3851	26.07	0.90	-0.750			
0.7915	50654.91	3.3120	3.3122	-0.3757	26.07	0.90	-0.750			
0.7926	50726.15	3.3090	3.3089	-0.3668	26.08	0.91	-0.750			
0.7937	50795.58	3.3060	3.3060	-0.3571	26.08	0.91	-0.750			
0.7947	50862.07	3.3030	3.3030	-0.3461	26.08	0.91	-0.750			
0.7957	50927.82	3.3000	3.3000	-0.3390	26.09	0.92	-0.750			
0.7968	50992.54	3.2970	3.2970	-0.3314	26.09	0.92	-0.750			
0.7977	51054.94	3.2940	3.2940	-0.3239	26.10	0.93	-0.750			
0.7987	51116.10	3.2910	3.2910	-0.3180	26.10	0.93	-0.750			
0.7996	51176.09	3.2880	3.2881	-0.3123	26.10	0.93	-0.750			
0.8006	51235.72	3.2850	3.2849	-0.3080	26.11	0.94	-0.750			
0.8015	51294.87	3.2820	3.2820	-0.3023	26.11	0.94	-0.750			
0.8024	51352.66	3.2790	3.2790	-0.2959	26.11	0.94	-0.750			
0.8033	51409.26	3.2760	3.2760	-0.2901	26.12	0.95	-0.750			
0.8041	51464.05	3.2730	3.2731	-0.2831	26.12	0.95	-0.750			
0.8050	51516.96	3.2700	3.2700	-0.2766	26.13	0.96	-0.750			
0.8058	51569.24	3.2670	3.2670	-0.2723	26.13	0.96	-0.750			
0.8066	51620.89	3.2640	3.2640	-0.2683	26.14	0.97	-0.750			
0.8074	51672.50	3.2610	3.2610	-0.2646	26.14	0.97	-0.750			
0.8082	51723.32	3.2580	3.2579	-0.2614	26.14	0.97	-0.750			
0.8090	51773.08	3.2550	3.2551	-0.2569	26.15	0.98	-0.750			
0.8097	51821.80	3.2520	3.2521	-0.2528	26.15	0.98	-0.750			
0.8105	51869.83	3.2490	3.2489	-0.2486	26.16	0.99	-0.750			
0.8112	51916.78	3.2460	3.2460	-0.2440	26.16	0.99	-0.750			
0.8119	51963.36	3.2430	3.2430	-0.2404	26.17	1.00	-0.750			
0.8126	52009.36	3.2400	3.2401	-0.2380	26.17	1.00	-0.750			
0.8134	52055.02	3.2370	3.2370	-0.2352	26.17	1.00	-0.750			
0.8141	52099.73	3.2340	3.2340	-0.2310	26.18	1.01	-0.750			
0.8147	52143.71	3.2310	3.2310	-0.2276	26.18	1.01	-0.750			
0.8154	52186.82	3.2280	3.2281	-0.2240	26.19	1.02	-0.750			
0.8161	52229.71	3.2250	3.2251	-0.2213	26.19	1.02	-0.750			
0.8167	52271.88	3.2220	3.2219	-0.2180	26.19	1.02	-0.750			
0.8174	52313.26	3.2190	3.2190	-0.2156	26.20	1.03	-0.750			
0.8180	52354.32	3.2160	3.2160	-0.2120	26.21	1.04	-0.750			
0.8187	52394.87	3.2130	3.2129	-0.2099	26.21	1.04	-0.750			
0.8193	52434.90	3.2100	3.2100	-0.2071	26.22	1.05	-0.750			
0.8199	52474.21	3.2070	3.2071	-0.2049	26.22	1.05	-0.750			
0.8205	52513.29	3.2040	3.2039	-0.2025	26.23	1.06	-0.750			
0.8211	52551.97	3.2010	3.2010	-0.2004	26.23	1.06	-0.750			
0.8217	52590.26	3.1980	3.1979	-0.1982	26.24	1.07	-0.750			
0.8223	52628.05	3.1950	3.1950	-0.1953	26.24	1.07	-0.750			
0.8229	52665.55	3.1920	3.1919	-0.1938	26.25	1.08	-0.750			
0.8235	52702.41	3.1890	3.1891	-0.1910	26.25	1.08	-0.750			
0.8240	52738.88	3.1860	3.1860	-0.1883	26.26	1.09	-0.750			
0.8246	52774.51	3.1830	3.1830	-0.1862	26.26	1.09	-0.750			
0.8252	52810.05	3.1800	3.1800	-0.1843	26.27	1.10	-0.750			
0.8257	52845.26	3.1770	3.1770	-0.1825	26.27	1.10	-0.750			
0.8263	52880.05	3.1740	3.1739	-0.1807	26.28	1.11	-0.750			
0.8268	52914.60	3.1710	3.1710	-0.1794	26.28	1.11	-0.750			
0.8273	52949.04	3.1680	3.1680	-0.1770	26.29	1.12	-0.750			
0.8279	52982.84	3.1650	3.1650	-0.1751	26.29	1.12	-0.750			
0.8284	53016.48	3.1620	3.1620	-0.1734	26.29	1.12	-0.750			
0.8289	53049.36	3.1590	3.1591	-0.1714	26.29	1.12	-0.750			
0.8294	53082.02	3.1560	3.1560	-0.1697	26.30	1.13	-0.750			
0.8299	53114.46	3.1530	3.1528	-0.1681	26.30	1.13	-0.750			
0.8304	53146.32	3.1500	3.1501	-0.1673	26.31	1.14	-0.750			
0.8309	53178.41	3.1470	3.1470	-0.1654	26.31	1.14	-0.750			
0.8314	53210.34	3.1440	3.1440	-0.1647	26.32	1.15	-0.750			
0.8319	53241.80	3.1410	3.1409	-0.1630	26.32	1.15	-0.750			
0.8324	53272.99	3.1380	3.1381	-0.1609	26.33	1.16	-0.750			
0.8329	53303.70	3.1350	3.1350	-0.1592	26.34	1.17	-0.750			
0.8333	53333.83	3.1320	3.1320	-0.1577	26.34	1.17	-0.750			
0.8338	53363.98	3.1290	3.1290	-0.1564	26.35	1.18	-0.750			
0.8343	53393.66	3.1260	3.1259	-0.1544	26.35	1.18	-0.750			
0.8347	53423.35	3.1230	3.1230	-0.1535	26.36	1.19	-0.750			
0.8352	53452.55	3.1200	3.1200	-0.1520	26.36	1.19	-0.750			
0.8357	53481.63	3.1170	3.1171	-0.1510	26.37	1.20	-0.750			
0.8361	53510.67	3.1140	3.1139	-0.1498	26.37	1.20	-0.750			
0.8366	53539.28	3.1110	3.1110	-0.1482	26.38	1.21	-0.750			
0.8370	53567.47	3.1080	3.1080	-0.1466	26.38	1.21	-0.750			
0.8374	53595.47	3.1050	3.1050	-0.1460	26.39	1.22	-0.750			
0.8379	53623.62	3.1020	3.1020	-0.1450	26.39	1.22	-0.750			
0.8383	53651.24	3.0990	3.0990	-0.1436	26.40	1.23	-0.750			
0.8387	53678.66	3.0960	3.0960	-0.1425	26.40	1.23	-0.750			
0.8392	53705.92	3.0930	3.0931	-0.1414	26.41	1.24	-0.750			
0.8396	53733.03	3.0900	3.0900	-0.1405	26.42	1.25	-0.750			
0.8400	53759.84	3.0870	3.0870	-0.1397	26.42	1.25	-0.750			
0.8404	53786.57	3.0840	3.0840	-0.1388	26.43	1.26	-0.750			
0.8408	53813.04	3.0810	3.0809	-0.1372	26.43	1.26	-0.750			
0.8412	53839.58	3.0780	3.0780	-0.1360	26.44	1.27	-0.750			
0.8417	53865.67	3.0750	3.0750	-0.1345	26.44	1.27	-0.750			
0.8420	53891.08	3.0720	3.0722	-0.1340	26.45	1.28	-0.750			
0.8424	53916.67	3.0690	3.0689	-0.1329	26.46	1.29	-0.750			
0.8428	53942.04	3.0660	3.0658	-0.1317	26.46	1.29	-0.750			
0.8432	53967.24	3.0630	3.0630	-0.1308	26.47	1.30	-0.750			
0.8436	53992.10	3.0600	3.0601	-0.1302	26.47	1.30	-0.750			
0.8440	54017.30	3.0570	3.0570	-0.1296	26.48	1.31	-0.750			
0.8444	54042.23	3.0540	3.0540	-0.1288	26.48	1.31	-0.750			
0.8448	54066.76	3.0510	3.0510	-0.1277	26.49	1.32	-0.750			
0.8452	54090.87	3.0480	3.0480	-0.1264	26.49	1.32	-0.750			
0.8456	54115.21	3.0450	3.0450	-0.1260	26.50	1.33	-0.750			
0.8459	54139.30	3.0420	3.0420	-0.1252	26.50	1.33	-0.750			
0.8463	54163.27	3.0390	3.0390	-0.1244	26.51	1.34	-0.750			
0.8467	54186.94	3.0360	3.0360	-0.1235	26.51	1.34	-0.750			
0.8470	54210.70	3.0330	3.0332	-0.1230	26.51	1.34	-0.750			
0.8474	54234.25	3.0300	3.0300	-0.1222	26.52	1.35	-0.750			
0.8478	54257.70	3.0270	3.0271	-0.1214	26.52	1.35	-0.750			
0.8481	54281.01	3.0240	3.0239	-0.1203	26.53	1.36	-0.750			
0.8485	54304.03	3.0210	3.0210	-0.1192	26.53	1.36	-0.750			
0.8489	54326.64	3.0180	3.0181	-0.1186	26.54	1.37	-0.750			
0.8492	54349.29	3.0150	3.0151	-0.1177	26.54	1.37	-0.750			
0.8496	54371.83	3.0120	3.0119	-0.1170	26.55	1.38	-0.750			
0.8499	54393.97	3.0090	3.0090	-0.1166	26.55	1.38	-0.750			
0.8503	54416.36	3.0060	3.0060	-0.1167	26.56	1.39	-0.750			
0.8506	54438.84	3.0030	3.0030	-0.1188	26.56	1.39	-0.751			
