Ah_balance (normalized)	Ah_balance (mAh)	Voltage - fit (V)	Voltage -  interpolate (V)	dQ/dV (1/V)	Temperature (°C)	Temperature - diff (°C)	Current (C)	R_DC 0ms (mOhm)	R_DC 50ms (mOhm)	R_DC 50 ms PEC (mOhm)
0.0005	29.37	4.1650	4.1648	-0.1468	25.54	-0.00	-0.750			
0.0010	62.58	4.1620	4.1620	-0.1964	25.54	-0.00	-0.750			
0.0016	105.23	4.1590	4.1589	-0.2440	25.54	-0.00	-0.750			
0.0025	156.91	4.1560	4.1561	-0.2900	25.53	-0.01	-0.750			
0.0034	217.07	4.1530	4.1530	-0.3353	25.53	-0.01	-0.750			
0.0045	286.71	4.1500	4.1500	-0.3772	25.53	-0.01	-0.750			
0.0057	363.69	4.1470	4.1470	-0.4187	25.52	-0.02	-0.750			
0.0070	447.40	4.1440	4.1441	-0.4612	25.52	-0.02	-0.750			
0.0085	540.82	4.1410	4.1409	-0.5000	25.51	-0.03	-0.750			
0.0100	641.62	4.1380	4.1379	-0.5348	25.51	-0.03	-0.750			
0.0117	748.73	4.1350	4.1350	-0.5634	25.50	-0.04	-0.750			
0.0135	861.68	4.1320	4.1320	-0.5912	25.50	-0.04	-0.750			
0.0153	978.28	4.1290	4.1291	-0.6147	25.50	-0.04	-0.750			
0.0172	1098.95	4.1260	4.1259	-0.6326	25.49	-0.05	-0.750			
0.0191	1222.22	4.1230	4.1230	-0.6504	25.49	-0.05	-0.750			
0.0211	1350.63	4.1200	4.1200	-0.6640	25.49	-0.05	-0.750			
0.0231	1480.68	4.1170	4.1170	-0.6780	25.48	-0.06	-0.750			
0.0252	1611.84	4.1140	4.1143	-0.6859	25.48	-0.06	-0.750			
0.0272	1743.79	4.1110	4.1109	-0.6955	25.48	-0.06	-0.750			
0.0293	1876.48	4.1080	4.1080	-0.7082	25.47	-0.07	-0.750			
0.0315	2012.80	4.1050	4.1050	-0.7193	25.47	-0.07	-0.750			
0.0337	2154.53	4.1020	4.1019	-0.7309	25.47	-0.07	-0.750			
0.0359	2296.05	4.0990	4.0990	-0.7364	25.46	-0.08	-0.750			
0.0381	2438.78	4.0960	4.0961	-0.7411	25.46	-0.08	-0.750			
0.0403	2581.82	4.0930	4.0930	-0.7442	25.46	-0.08	-0.750			
0.0425	2722.98	4.0900	4.0900	-0.7474	25.46	-0.08	-0.750			
0.0448	2866.85	4.0870	4.0869	-0.7524	25.46	-0.08	-0.750			
0.0471	3012.58	4.0840	4.0840	-0.7578	25.46	-0.08	-0.750			
0.0494	3159.31	4.0810	4.0809	-0.7596	25.46	-0.08	-0.750			
0.0516	3305.37	4.0780	4.0780	-0.7639	25.46	-0.08	-0.750			
0.0539	3451.90	4.0750	4.0750	-0.7682	25.46	-0.08	-0.750			
0.0562	3598.21	4.0720	4.0721	-0.7705	25.46	-0.08	-0.750			
0.0585	3745.99	4.0690	4.0689	-0.7689	25.46	-0.08	-0.750			
0.0609	3897.24	4.0660	4.0661	-0.7718	25.46	-0.08	-0.750			
0.0632	4045.52	4.0630	4.0631	-0.7728	25.46	-0.08	-0.750			
0.0655	4194.34	4.0600	4.0600	-0.7744	25.46	-0.08	-0.750			
0.0678	4340.74	4.0570	4.0569	-0.7797	25.46	-0.08	-0.750			
0.0701	4489.07	4.0540	4.0540	-0.7794	25.46	-0.08	-0.750			
0.0725	4640.25	4.0510	4.0509	-0.7836	25.46	-0.08	-0.750			
0.0749	4791.82	4.0480	4.0480	-0.7871	25.46	-0.08	-0.750			
0.0773	4945.26	4.0450	4.0450	-0.7885	25.46	-0.08	-0.750			
0.0796	5094.97	4.0420	4.0419	-0.7891	25.46	-0.08	-0.750			
0.0820	5245.41	4.0390	4.0391	-0.7899	25.46	-0.08	-0.750			
0.0843	5397.57	4.0360	4.0359	-0.7888	25.46	-0.08	-0.750			
0.0867	5550.89	4.0330	4.0329	-0.7946	25.46	-0.08	-0.750			
0.0891	5703.25	4.0300	4.0300	-0.7953	25.46	-0.08	-0.750			
0.0915	5854.21	4.0270	4.0271	-0.8046	25.46	-0.08	-0.750			
0.0939	6010.31	4.0240	4.0239	-0.8051	25.46	-0.08	-0.750			
0.0963	6164.46	4.0210	4.0209	-0.8040	25.46	-0.08	-0.750			
0.0988	6320.03	4.0180	4.0179	-0.8048	25.46	-0.08	-0.750			
0.1012	6475.81	4.0150	4.0150	-0.8041	25.46	-0.08	-0.750			
0.1036	6627.81	4.0120	4.0120	-0.8088	25.47	-0.07	-0.750			
0.1060	6783.92	4.0090	4.0088	-0.8081	25.47	-0.07	-0.750			
0.1084	6937.46	4.0060	4.0060	-0.8042	25.47	-0.07	-0.750			
0.1109	7095.02	4.0030	4.0030	-0.8120	25.48	-0.06	-0.750			
0.1133	7251.36	4.0000	4.0001	-0.8152	25.48	-0.06	-0.750			
0.1158	7408.07	3.9970	3.9970	-0.8160	25.48	-0.06	-0.750			
0.1182	7563.51	3.9940	3.9939	-0.8211	25.48	-0.06	-0.750			
0.1206	7720.44	3.9910	3.9910	-0.8201	25.48	-0.06	-0.750			
0.1231	7880.73	3.9880	3.9880	-0.8278	25.48	-0.06	-0.750			
0.1256	8041.42	3.9850	3.9851	-0.8282	25.48	-0.06	-0.750			
0.1281	8199.96	3.9820	3.9819	-0.8245	25.48	-0.06	-0.750			
0.1306	8357.07	3.9790	3.9790	-0.8283	25.49	-0.05	-0.750			
0.1331	8516.63	3.9760	3.9760	-0.8246	25.49	-0.05	-0.750			
0.1356	8675.56	3.9730	3.9729	-0.8281	25.50	-0.04	-0.750			
0.1380	8833.57	3.9700	3.9702	-0.8315	25.50	-0.04	-0.750			
0.1405	8993.22	3.9670	3.9670	-0.8324	25.50	-0.04	-0.750			
0.1430	9153.44	3.9640	3.9639	-0.8375	25.50	-0.04	-0.750			
0.1455	9313.99	3.9610	3.9610	-0.8373	25.50	-0.04	-0.750			
0.1481	9476.17	3.9580	3.9580	-0.8450	25.50	-0.04	-0.750			
0.1506	9639.06	3.9550	3.9551	-0.8474	25.50	-0.04	-0.750			
0.1532	9802.61	3.9520	3.9520	-0.8431	25.50	-0.04	-0.750			
0.1557	9964.37	3.9490	3.9490	-0.8490	25.51	-0.03	-0.750			
0.1582	10127.77	3.9460	3.9460	-0.8503	25.51	-0.03	-0.750			
0.1608	10291.62	3.9430	3.9429	-0.8532	25.52	-0.02	-0.750			
0.1634	10455.26	3.9400	3.9401	-0.8531	25.52	-0.02	-0.750			
0.1659	10618.22	3.9370	3.9370	-0.8554	25.52	-0.02	-0.750			
0.1685	10783.06	3.9340	3.9340	-0.8577	25.52	-0.02	-0.750			
0.1710	10946.97	3.9310	3.9310	-0.8550	25.52	-0.02	-0.750			
0.1737	11114.05	3.9280	3.9279	-0.8610	25.52	-0.02	-0.750			
0.1762	11279.16	3.9250	3.9250	-0.8649	25.52	-0.02	-0.750			
0.1788	11445.11	3.9220	3.9220	-0.8678	25.53	-0.01	-0.750			
0.1814	11612.79	3.9190	3.9190	-0.8692	25.53	-0.01	-0.750			
0.1841	11779.60	3.9160	3.9159	-0.8644	25.53	-0.01	-0.750			
0.1867	11946.79	3.9130	3.9130	-0.8698	25.54	-0.00	-0.750			
0.1893	12112.93	3.9100	3.9100	-0.8705	25.54	0.00	-0.750			
0.1919	12280.18	3.9070	3.9070	-0.8702	25.54	0.00	-0.750			
0.1945	12445.61	3.9040	3.9040	-0.8702	25.54	0.00	-0.750			
0.1971	12613.67	3.9010	3.9010	-0.8754	25.54	0.00	-0.750			
0.1998	12784.05	3.8980	3.8980	-0.8804	25.54	0.00	-0.750			
0.2024	12952.68	3.8950	3.8950	-0.8837	25.54	0.00	-0.750			
0.2050	13122.15	3.8920	3.8921	-0.8831	25.55	0.01	-0.750			
0.2077	13292.56	3.8890	3.8889	-0.8855	25.55	0.01	-0.750			
0.2103	13461.86	3.8860	3.8859	-0.8845	25.56	0.02	-0.750			
0.2130	13631.33	3.8830	3.8832	-0.8869	25.56	0.02	-0.750			
0.2156	13801.29	3.8800	3.8800	-0.8936	25.56	0.02	-0.750			
0.2184	13975.00	3.8770	3.8770	-0.8959	25.57	0.03	-0.750			
0.2211	14147.60	3.8740	3.8739	-0.8943	25.57	0.03	-0.750			
0.2237	14319.58	3.8710	3.8710	-0.8966	25.58	0.04	-0.750			
0.2264	14491.36	3.8680	3.8681	-0.8977	25.58	0.04	-0.750			
0.2291	14664.75	3.8650	3.8649	-0.8958	25.58	0.04	-0.750			
0.2318	14835.90	3.8620	3.8619	-0.8931	25.58	0.04	-0.750			
0.2345	15007.18	3.8590	3.8590	-0.8855	25.58	0.04	-0.750			
0.2372	15177.72	3.8560	3.8560	-0.8843	25.58	0.04	-0.750			
0.2397	15343.53	3.8530	3.8530	-0.8985	25.58	0.04	-0.750			
0.2424	15516.45	3.8500	3.8499	-0.9035	25.59	0.05	-0.750			
0.2451	15688.61	3.8470	3.8469	-0.9124	25.59	0.05	-0.750			
0.2479	15868.32	3.8440	3.8439	-0.9183	25.60	0.06	-0.750			
0.2508	16049.00	3.8410	3.8412	-0.9247	25.60	0.06	-0.750			
0.2536	16227.96	3.8380	3.8379	-0.9265	25.60	0.06	-0.750			
0.2564	16406.43	3.8350	3.8350	-0.9164	25.60	0.06	-0.750			
0.2590	16576.52	3.8320	3.8320	-0.9019	25.60	0.06	-0.750			
0.2618	16752.20	3.8290	3.8290	-0.9099	25.60	0.06	-0.750			
0.2645	16925.47	3.8260	3.8261	-0.9054	25.60	0.06	-0.750			
0.2672	17099.96	3.8230	3.8229	-0.9155	25.61	0.07	-0.750			
0.2700	17277.21	3.8200	3.8200	-0.9132	25.61	0.07	-0.750			
0.2727	17452.13	3.8170	3.8169	-0.9141	25.62	0.08	-0.750			
0.2754	17628.79	3.8140	3.8142	-0.9111	25.62	0.08	-0.750			
0.2782	17803.74	3.8110	3.8109	-0.9163	25.62	0.08	-0.750			
0.2809	17979.25	3.8080	3.8080	-0.9177	25.62	0.08	-0.750			
0.2837	18155.28	3.8050	3.8050	-0.9177	25.63	0.09	-0.750			
0.2864	18332.17	3.8020	3.8020	-0.9215	25.63	0.09	-0.750			
0.2892	18511.28	3.7990	3.7989	-0.9169	25.63	0.09	-0.750			
0.2920	18686.06	3.7960	3.7960	-0.9165	25.63	0.09	-0.750			
0.2947	18861.91	3.7930	3.7931	-0.9160	25.64	0.10	-0.750			
0.2974	19034.77	3.7900	3.7900	-0.9089	25.64	0.10	-0.750			
0.3002	19212.00	3.7870	3.7870	-0.9148	25.64	0.10	-0.750			
0.3029	19385.25	3.7840	3.7841	-0.9204	25.64	0.10	-0.750			
0.3057	19562.91	3.7810	3.7810	-0.9220	25.65	0.11	-0.750			
0.3085	19742.48	3.7780	3.7779	-0.9269	25.65	0.11	-0.750			
0.3113	19920.34	3.7750	3.7749	-0.9240	25.66	0.12	-0.750			
0.3140	20098.45	3.7720	3.7721	-0.9234	25.66	0.12	-0.750			
0.3168	20276.22	3.7690	3.7690	-0.9292	25.66	0.12	-0.750			
0.3196	20455.82	3.7660	3.7660	-0.9215	25.66	0.12	-0.750			
0.3224	20632.21	3.7630	3.7629	-0.9073	25.66	0.12	-0.750			
0.3251	20805.46	3.7600	3.7604	-0.9124	25.66	0.12	-0.750			
0.3278	20978.41	3.7570	3.7570	-0.9148	25.66	0.12	-0.750			
0.3305	21152.61	3.7540	3.7539	-0.9197	25.67	0.13	-0.750			
0.3332	21326.75	3.7510	3.7509	-0.9231	25.67	0.13	-0.750			
0.3361	21507.34	3.7480	3.7481	-0.9364	25.68	0.14	-0.750			
0.3389	21689.87	3.7450	3.7450	-0.9424	25.68	0.14	-0.750			
0.3418	21874.48	3.7420	3.7420	-0.9530	25.68	0.14	-0.750			
0.3446	22055.55	3.7390	3.7389	-0.9450	25.68	0.14	-0.750			
0.3474	22235.45	3.7360	3.7360	-0.9464	25.68	0.14	-0.750			
0.3503	22417.69	3.7330	3.7333	-0.9577	25.68	0.14	-0.750			
0.3531	22601.04	3.7300	3.7298	-0.9681	25.68	0.14	-0.750			
0.3561	22788.86	3.7270	3.7269	-0.9737	25.69	0.15	-0.750			
0.3590	22977.14	3.7240	3.7240	-0.9783	25.69	0.15	-0.750			
0.3620	23167.45	3.7210	3.7211	-0.9901	25.70	0.16	-0.750			
0.3649	23356.42	3.7180	3.7179	-1.0023	25.70	0.16	-0.750			
0.3679	23546.81	3.7150	3.7149	-1.0042	25.70	0.16	-0.750			
0.3709	23739.32	3.7120	3.7120	-1.0164	25.70	0.16	-0.750			
0.3740	23935.20	3.7090	3.7091	-1.0272	25.70	0.16	-0.750			
0.3771	24137.01	3.7060	3.7061	-1.0555	25.70	0.16	-0.750			
0.3803	24341.02	3.7030	3.7029	-1.0687	25.70	0.16	-0.750			
0.3835	24546.47	3.7000	3.6999	-1.0841	25.70	0.16	-0.750			
0.3868	24755.89	3.6970	3.6971	-1.1018	25.70	0.16	-0.750			
0.3902	24971.89	3.6940	3.6939	-1.1153	25.70	0.16	-0.750			
0.3935	25186.76	3.6910	3.6910	-1.1395	25.70	0.16	-0.750			
0.3970	25406.27	3.6880	3.6880	-1.1621	25.70	0.16	-0.750			
0.4004	25628.13	3.6850	3.6851	-1.1865	25.70	0.16	-0.750			
0.4041	25861.19	3.6820	3.6819	-1.2169	25.69	0.15	-0.750			
0.4078	26099.61	3.6790	3.6790	-1.2337	25.69	0.15	-0.750			
0.4116	26340.12	3.6760	3.6760	-1.2547	25.68	0.14	-0.750			
0.4154	26586.31	3.6730	3.6730	-1.2815	25.68	0.14	-0.750			
0.4192	26828.55	3.6700	3.6701	-1.2884	25.67	0.13	-0.750			
0.4230	27071.70	3.6670	3.6669	-1.3235	25.66	0.12	-0.750			
0.4270	27328.37	3.6640	3.6641	-1.3586	25.66	0.12	-0.750			
0.4312	27594.03	3.6610	3.6609	-1.3985	25.65	0.11	-0.750			
0.4354	27867.28	3.6580	3.6580	-1.4409	25.64	0.10	-0.750			
0.4399	28151.39	3.6550	3.6550	-1.4754	25.64	0.10	-0.750			
0.4443	28436.72	3.6520	3.6520	-1.5198	25.63	0.09	-0.750			
0.4489	28731.62	3.6490	3.6489	-1.5548	25.63	0.09	-0.750			
0.4536	29029.42	3.6460	3.6460	-1.5976	25.62	0.08	-0.750			
0.4585	29343.10	3.6430	3.6430	-1.6543	25.62	0.08	-0.750			
0.4636	29669.87	3.6400	3.6401	-1.6926	25.61	0.07	-0.750			
0.4687	29998.70	3.6370	3.6370	-1.7284	25.60	0.06	-0.750			
0.4740	30339.14	3.6340	3.6337	-1.7636	25.59	0.05	-0.750			
0.4793	30675.67	3.6310	3.6311	-1.7896	25.58	0.04	-0.750	0.397	0.496	
0.4848	31026.06	3.6280	3.6278	-1.8072	25.57	0.03	-0.750			
0.4902	31371.33	3.6250	3.6249	-1.8437	25.57	0.03	-0.750			
0.4957	31726.49	3.6220	3.6221	-1.8758	25.56	0.02	-0.750			
0.5015	32096.79	3.6190	3.6189	-1.9075	25.56	0.02	-0.750			
0.5073	32467.18	3.6160	3.6161	-1.9402	25.55	0.01	-0.750			
0.5132	32842.26	3.6130	3.6130	-1.9798	25.54	0.00	-0.750			
0.5191	33224.71	3.6100	3.6101	-2.0315	25.54	0.00	-0.750			
0.5253	33621.34	3.6070	3.6071	-2.0700	25.54	-0.00	-0.750			
0.5315	34017.41	3.6040	3.6042	-2.0998	25.52	-0.02	-0.750			
0.5380	34433.25	3.6010	3.6011	-2.1463	25.51	-0.03	-0.750			
0.5446	34854.57	3.5980	3.5979	-2.1899	25.51	-0.03	-0.750			
0.5512	35274.29	3.5950	3.5951	-2.2022	25.51	-0.03	-0.750			
0.5578	35698.67	3.5920	3.5920	-2.2267	25.50	-0.04	-0.750			
0.5644	36123.95	3.5890	3.5890	-2.2621	25.49	-0.05	-0.750			
0.5713	36561.51	3.5860	3.5860	-2.2870	25.48	-0.06	-0.750			
0.5782	37004.51	3.5830	3.5829	-2.3208	25.48	-0.06	-0.750			
0.5852	37453.84	3.5800	3.5800	-2.3431	25.48	-0.06	-0.750			
0.5923	37906.01	3.5770	3.5770	-2.3894	25.48	-0.06	-0.750			
0.5995	38369.73	3.5740	3.5740	-2.4254	25.47	-0.07	-0.750			
0.6069	38841.17	3.5710	3.5709	-2.4224	25.46	-0.08	-0.750			
0.6142	39309.48	3.5680	3.5682	-2.4403	25.46	-0.08	-0.750			
0.6215	39778.91	3.5650	3.5649	-2.4527	25.47	-0.07	-0.750			
0.6289	40248.09	3.5620	3.5617	-2.4760	25.47	-0.07	-0.750			
0.6363	40724.44	3.5590	3.5589	-2.4537	25.46	-0.08	-0.750			
0.6438	41201.23	3.5560	3.5561	-2.4575	25.46	-0.08	-0.750			
0.6512	41677.24	3.5530	3.5532	-2.4227	25.47	-0.07	-0.750			
0.6585	42142.04	3.5500	3.5499	-2.4022	25.47	-0.07	-0.750			
0.6655	42594.90	3.5470	3.5470	-2.3756	25.47	-0.07	-0.750			
0.6726	43047.91	3.5440	3.5439	-2.3483	25.48	-0.06	-0.750			
0.6797	43499.76	3.5410	3.5410	-2.3141	25.48	-0.06	-0.750			
0.6866	43944.33	3.5380	3.5381	-2.2977	25.49	-0.05	-0.750			
0.6936	44387.71	3.5350	3.5350	-2.2615	25.50	-0.04	-0.750			
0.7003	44821.20	3.5320	3.5320	-2.2154	25.51	-0.03	-0.750			
0.7068	45234.49	3.5290	3.5291	-2.1610	25.52	-0.02	-0.750			
0.7133	45650.37	3.5260	3.5260	-2.1050	25.52	-0.02	-0.750			
0.7196	46053.78	3.5230	3.5230	-2.0442	25.53	-0.01	-0.750			
0.7257	46446.00	3.5200	3.5200	-1.9759	25.54	0.00	-0.750			
0.7314	46812.34	3.5170	3.5170	-1.8909	25.56	0.02	-0.750			
0.7370	47169.41	3.5140	3.5142	-1.8205	25.58	0.04	-0.750			
0.7423	47509.16	3.5110	3.5110	-1.7423	25.59	0.05	-0.750			
0.7474	47831.61	3.5080	3.5079	-1.6732	25.60	0.06	-0.750			
0.7523	48147.43	3.5050	3.5049	-1.6153	25.62	0.08	-0.750			
0.7570	48450.53	3.5020	3.5021	-1.5526	25.64	0.10	-0.750			
0.7616	48744.84	3.4990	3.4990	-1.5058	25.66	0.12	-0.750			
0.7661	49028.49	3.4960	3.4960	-1.4522	25.67	0.13	-0.750			
0.7704	49303.96	3.4930	3.4929	-1.4058	25.68	0.14	-0.750			
0.7745	49567.95	3.4900	3.4900	-1.3595	25.70	0.16	-0.750			
0.7785	49823.69	3.4870	3.4870	-1.3115	25.71	0.17	-0.750			
0.7824	50071.96	3.4840	3.4840	-1.2650	25.73	0.19	-0.750			
0.7861	50309.62	3.4810	3.4809	-1.2181	25.74	0.20	-0.750			
0.7896	50537.25	3.4780	3.4780	-1.1704	25.76	0.22	-0.750			
0.7931	50760.13	3.4750	3.4750	-1.1274	25.77	0.23	-0.750			
0.7964	50970.65	3.4720	3.4719	-1.0907	25.78	0.24	-0.750			
0.7996	51174.22	3.4690	3.4691	-1.0539	25.79	0.25	-0.750			
0.8027	51373.62	3.4660	3.4659	-1.0312	25.80	0.26	-0.750			
0.8058	51568.14	3.4630	3.4629	-1.0048	25.80	0.26	-0.750			
0.8087	51757.19	3.4600	3.4600	-0.9852	25.81	0.27	-0.750			
0.8116	51942.13	3.4570	3.4570	-0.9730	25.82	0.28	-0.750			
0.8145	52125.61	3.4540	3.4539	-0.9840	25.83	0.29	-0.750			
0.8173	52310.29	3.4510	3.4509	-0.9989	25.84	0.30	-0.750			
0.8203	52496.34	3.4480	3.4479	-1.0321	25.85	0.31	-0.750			
0.8234	52694.71	3.4450	3.4450	-1.0871	25.86	0.32	-0.750			
0.8267	52910.71	3.4420	3.4419	-1.1508	25.88	0.34	-0.750			
0.8303	53141.04	3.4390	3.4389	-1.2004	25.89	0.35	-0.750			
0.8341	53380.20	3.4360	3.4360	-1.2468	25.90	0.36	-0.750			
0.8379	53628.09	3.4330	3.4332	-1.2797	25.91	0.37	-0.750			
0.8420	53885.69	3.4300	3.4299	-1.2801	25.92	0.38	-0.750			
0.8459	54137.12	3.4270	3.4269	-1.2619	25.92	0.38	-0.750			
0.8497	54379.40	3.4240	3.4243	-1.2246	25.93	0.39	-0.750			
0.8533	54613.08	3.4210	3.4209	-1.1853	25.94	0.40	-0.750			
0.8568	54834.71	3.4180	3.4181	-1.1369	25.95	0.41	-0.750			
0.8600	55043.01	3.4150	3.4150	-1.0881	25.96	0.42	-0.750			
0.8633	55248.98	3.4120	3.4121	-1.0554	25.97	0.43	-0.750			
0.8664	55447.95	3.4090	3.4088	-1.0210	25.98	0.44	-0.750			
0.8694	55641.22	3.4060	3.4060	-0.9843	25.98	0.44	-0.750			
0.8723	55826.62	3.4030	3.4029	-0.9437	25.99	0.45	-0.750			
0.8751	56004.89	3.4000	3.4001	-0.9083	25.99	0.45	-0.750			
0.8777	56175.23	3.3970	3.3970	-0.8716	26.00	0.46	-0.750			
0.8802	56335.82	3.3940	3.3941	-0.8383	26.01	0.47	-0.750			
0.8827	56495.05	3.3910	3.3909	-0.8065	26.01	0.47	-0.750			
0.8851	56646.51	3.3880	3.3879	-0.7759	26.02	0.48	-0.750			
0.8874	56793.02	3.3850	3.3853	-0.7456	26.03	0.49	-0.750			
0.8896	56933.34	3.3820	3.3819	-0.7159	26.04	0.50	-0.750			
0.8917	57067.03	3.3790	3.3789	-0.6830	26.04	0.50	-0.750			
0.8936	57192.11	3.3760	3.3760	-0.6534	26.05	0.51	-0.750			
0.8956	57316.72	3.3730	3.3730	-0.6312	26.06	0.52	-0.750			
0.8974	57435.66	3.3700	3.3700	-0.6045	26.06	0.52	-0.750			
0.8992	57549.24	3.3670	3.3670	-0.5781	26.07	0.53	-0.750			
0.9009	57657.32	3.3640	3.3640	-0.5547	26.07	0.53	-0.750			
0.9025	57760.37	3.3610	3.3610	-0.5301	26.08	0.54	-0.750			
0.9041	57859.84	3.3580	3.3580	-0.5087	26.08	0.54	-0.750			
0.9055	57954.68	3.3550	3.3550	-0.4869	26.09	0.55	-0.750			
0.9070	58046.82	3.3520	3.3521	-0.4679	26.09	0.55	-0.750			
0.9084	58134.85	3.3490	3.3490	-0.4490	26.10	0.56	-0.750			
0.9097	58219.51	3.3460	3.3459	-0.4269	26.10	0.56	-0.750			
0.9109	58298.51	3.3430	3.3430	-0.4066	26.10	0.56	-0.750			
0.9121	58375.12	3.3400	3.3400	-0.3890	26.11	0.57	-0.750			
0.9132	58447.57	3.3370	3.3370	-0.3718	26.11	0.57	-0.750			
0.9143	58517.32	3.3340	3.3339	-0.3547	26.12	0.58	-0.750			
0.9154	58583.23	3.3310	3.3310	-0.3386	26.12	0.58	-0.750			
0.9163	58646.28	3.3280	3.3280	-0.3241	26.13	0.59	-0.750			
0.9173	58707.47	3.3250	3.3250	-0.3115	26.13	0.59	-0.750			
0.9182	58765.21	3.3220	3.3220	-0.2983	26.14	0.60	-0.750			
0.9191	58821.57	3.3190	3.3189	-0.2870	26.14	0.60	-0.750			
0.9199	58875.19	3.3160	3.3161	-0.2756	26.15	0.61	-0.750			
0.9207	58927.50	3.3130	3.3131	-0.2660	26.15	0.61	-0.750			
0.9215	58977.49	3.3100	3.3100	-0.2552	26.15	0.61	-0.750			
0.9223	59025.53	3.3070	3.3069	-0.2455	26.16	0.62	-0.750			
0.9230	59071.24	3.3040	3.3040	-0.2353	26.16	0.62	-0.750			
0.9237	59115.12	3.3010	3.3010	-0.2261	26.16	0.62	-0.750			
0.9243	59157.72	3.2980	3.2980	-0.2176	26.17	0.63	-0.750			
0.9250	59198.52	3.2950	3.2950	-0.2104	26.17	0.63	-0.750			
0.9256	59237.78	3.2920	3.2920	-0.2026	26.17	0.63	-0.750			
0.9262	59275.80	3.2890	3.2890	-0.1961	26.18	0.64	-0.750			
0.9268	59312.86	3.2860	3.2860	-0.1900	26.18	0.64	-0.750			
0.9273	59348.56	3.2830	3.2831	-0.1844	26.18	0.64	-0.750			
0.9279	59383.49	3.2800	3.2799	-0.1789	26.19	0.65	-0.750			
0.9284	59417.03	3.2770	3.2770	-0.1734	26.19	0.65	-0.750			
0.9289	59449.86	3.2740	3.2741	-0.1685	26.19	0.65	-0.750			
0.9294	59481.40	3.2710	3.2710	-0.1648	26.20	0.66	-0.750			
0.9299	59512.65	3.2680	3.2680	-0.1609	26.20	0.66	-0.750			
0.9304	59543.17	3.2650	3.2650	-0.1566	26.20	0.66	-0.750			
0.9308	59572.88	3.2620	3.2619	-0.1529	26.21	0.67	-0.750			
0.9313	59601.85	3.2590	3.2591	-0.1496	26.21	0.67	-0.750			
0.9317	59630.41	3.2560	3.2559	-0.1463	26.21	0.67	-0.750			
0.9322	59658.04	3.2530	3.2530	-0.1425	26.22	0.68	-0.750			
0.9326	59685.04	3.2500	3.2499	-0.1388	26.22	0.68	-0.750			
0.9330	59710.97	3.2470	3.2471	-0.1358	26.22	0.68	-0.750			
0.9334	59736.79	3.2440	3.2440	-0.1332	26.22	0.68	-0.750			
0.9338	59762.13	3.2410	3.2409	-0.1306	26.23	0.69	-0.750			
0.9342	59786.82	3.2380	3.2381	-0.1283	26.23	0.69	-0.750			
0.9345	59810.98	3.2350	3.2351	-0.1257	26.23	0.69	-0.750			
0.9349	59834.90	3.2320	3.2320	-0.1239	26.23	0.69	-0.750			
0.9353	59858.49	3.2290	3.2290	-0.1220	26.24	0.70	-0.750			
0.9357	59881.81	3.2260	3.2259	-0.1200	26.24	0.70	-0.750			
0.9360	59904.55	3.2230	3.2231	-0.1179	26.24	0.70	-0.750			
0.9364	59927.02	3.2200	3.2199	-0.1160	26.24	0.70	-0.750			
0.9367	59949.28	3.2170	3.2170	-0.1144	26.24	0.70	-0.750			
0.9370	59970.98	3.2140	3.2140	-0.1126	26.25	0.71	-0.750			
0.9374	59992.34	3.2110	3.2110	-0.1106	26.25	0.71	-0.750			
0.9377	60013.35	3.2080	3.2080	-0.1090	26.25	0.71	-0.750			
0.9380	60033.97	3.2050	3.2050	-0.1071	26.26	0.72	-0.750			
0.9383	60054.40	3.2020	3.2020	-0.1058	26.26	0.72	-0.750			
0.9387	60074.60	3.1990	3.1990	-0.1044	26.26	0.72	-0.750			
0.9390	60094.54	3.1960	3.1960	-0.1028	26.27	0.73	-0.750			
0.9393	60114.12	3.1930	3.1929	-0.1013	26.27	0.73	-0.750			
0.9396	60133.49	3.1900	3.1900	-0.0996	26.27	0.73	-0.750			
0.9399	60152.54	3.1870	3.1871	-0.0980	26.28	0.74	-0.750			
0.9402	60170.97	3.1840	3.1840	-0.0970	26.28	0.74	-0.750			
0.9405	60189.33	3.1810	3.1810	-0.0956	26.28	0.74	-0.750			
0.9407	60207.49	3.1780	3.1780	-0.0949	26.29	0.75	-0.750			
0.9410	60225.36	3.1750	3.1748	-0.0938	26.29	0.75	-0.750			
0.9413	60243.53	3.1720	3.1720	-0.0926	26.29	0.75	-0.750			
0.9416	60261.32	3.1690	3.1691	-0.0918	26.29	0.75	-0.750			
0.9419	60278.88	3.1660	3.1659	-0.0906	26.30	0.76	-0.750			
0.9421	60296.48	3.1630	3.1632	-0.0898	26.30	0.76	-0.750			
0.9424	60313.29	3.1600	3.1600	-0.0891	26.30	0.76	-0.750			
0.9427	60330.05	3.1570	3.1569	-0.0877	26.31	0.77	-0.750			
0.9429	60346.84	3.1540	3.1539	-0.0871	26.31	0.77	-0.750			
0.9432	60363.36	3.1510	3.1510	-0.0860	26.31	0.77	-0.750			
0.9434	60379.82	3.1480	3.1481	-0.0855	26.32	0.78	-0.750			
0.9437	60396.47	3.1450	3.1451	-0.0850	26.32	0.78	-0.750			
0.9439	60412.71	3.1420	3.1420	-0.0841	26.32	0.78	-0.750			
0.9442	60428.95	3.1390	3.1390	-0.0833	26.32	0.78	-0.750			
0.9444	60444.68	3.1360	3.1360	-0.0826	26.33	0.79	-0.750			
0.9447	60460.27	3.1330	3.1330	-0.0814	26.33	0.79	-0.750			
0.9449	60475.85	3.1300	3.1300	-0.0808	26.33	0.79	-0.750			
0.9452	60491.30	3.1270	3.1270	-0.0803	26.33	0.79	-0.750			
0.9454	60506.62	3.1240	3.1241	-0.0797	26.34	0.80	-0.750			
0.9457	60521.88	3.1210	3.1210	-0.0793	26.34	0.80	-0.750			
0.9459	60537.08	3.1180	3.1180	-0.0787	26.34	0.80	-0.750			
0.9461	60552.19	3.1150	3.1150	-0.0782	26.35	0.81	-0.750			
0.9464	60567.21	3.1120	3.1119	-0.0773	26.35	0.81	-0.750			
0.9466	60582.06	3.1090	3.1091	-0.0767	26.35	0.81	-0.750			
0.9468	60596.71	3.1060	3.1061	-0.0759	26.35	0.81	-0.750			
0.9470	60611.14	3.1030	3.1030	-0.0753	26.36	0.82	-0.750			
0.9473	60625.48	3.1000	3.1001	-0.0745	26.36	0.82	-0.750			
0.9475	60639.73	3.0970	3.0969	-0.0739	26.36	0.82	-0.750			
0.9477	60653.84	3.0940	3.0940	-0.0734	26.36	0.82	-0.750			
0.9479	60667.77	3.0910	3.0909	-0.0728	26.37	0.83	-0.750			
0.9482	60681.66	3.0880	3.0882	-0.0725	26.37	0.83	-0.750			
0.9484	60695.54	3.0850	3.0851	-0.0722	26.37	0.83	-0.750			
0.9486	60709.35	3.0820	3.0820	-0.0718	26.37	0.83	-0.750			
0.9488	60723.19	3.0790	3.0790	-0.0712	26.38	0.84	-0.750			
0.9490	60736.86	3.0760	3.0759	-0.0708	26.38	0.84	-0.750			
0.9492	60750.41	3.0730	3.0731	-0.0703	26.38	0.84	-0.750			
0.9494	60763.86	3.0700	3.0699	-0.0698	26.38	0.84	-0.750			
0.9496	60777.29	3.0670	3.0670	-0.0693	26.39	0.85	-0.750			
0.9499	60790.55	3.0640	3.0639	-0.0687	26.39	0.85	-0.750			
0.9501	60803.62	3.0610	3.0610	-0.0685	26.39	0.85	-0.750			
0.9503	60816.56	3.0580	3.0580	-0.0679	26.39	0.85	-0.750			
0.9505	60829.66	3.0550	3.0549	-0.0674	26.39	0.85	-0.750			
0.9507	60842.63	3.0520	3.0520	-0.0672	26.40	0.86	-0.750			
0.9509	60855.47	3.0490	3.0490	-0.0667	26.40	0.86	-0.750			
0.9511	60868.24	3.0460	3.0461	-0.0662	26.40	0.86	-0.750			
0.9513	60880.97	3.0430	3.0430	-0.0657	26.40	0.86	-0.750			
0.9515	60893.53	3.0400	3.0399	-0.0651	26.41	0.87	-0.750			
0.9517	60905.89	3.0370	3.0371	-0.0651	26.41	0.87	-0.750			
0.9518	60918.16	3.0340	3.0340	-0.0646	26.41	0.87	-0.750			
0.9520	60930.66	3.0310	3.0309	-0.0644	26.41	0.87	-0.750			
0.9522	60943.00	3.0280	3.0279	-0.0642	26.41	0.87	-0.750			
0.9524	60955.32	3.0250	3.0250	-0.0640	26.42	0.88	-0.750			
0.9526	60967.69	3.0220	3.0220	-0.0635	26.42	0.88	-0.750			
0.9528	60980.01	3.0190	3.0190	-0.0634	26.42	0.88	-0.750			
0.9530	60992.12	3.0160	3.0161	-0.0627	26.42	0.88	-0.750			
0.9532	61004.11	3.0130	3.0128	-0.0621	26.43	0.89	-0.750			
0.9534	61015.95	3.0100	3.0101	-0.0615	26.43	0.89	-0.750			
0.9536	61027.69	3.0070	3.0071	-0.0608	26.43	0.89	-0.750			
0.9537	61039.31	3.0040	3.0039	-0.0602	26.43	0.89	-0.751			
