Ah_balance (normalized)	Ah_balance (mAh)	Voltage - fit (V)	Voltage -  interpolate (V)	dQ/dV (1/V)	Temperature (°C)	Temperature - diff (°C)	Current (C)	R_DC 0ms (mOhm)	R_DC 50ms (mOhm)	R_DC 50 ms PEC (mOhm)
0.0001	7.12	4.1610	4.1607	-0.0885	25.78	0.04	-0.750			
0.0004	28.57	4.1580	4.1580	-0.1321	25.78	0.04	-0.750			
0.0009	57.71	4.1550	4.1548	-0.1711	25.78	0.04	-0.750			
0.0015	94.85	4.1520	4.1520	-0.2089	25.77	0.03	-0.750			
0.0022	138.60	4.1490	4.1491	-0.2457	25.77	0.03	-0.750			
0.0030	190.00	4.1460	4.1460	-0.2816	25.77	0.03	-0.750			
0.0039	247.69	4.1430	4.1430	-0.3133	25.77	0.03	-0.750			
0.0049	311.28	4.1400	4.1400	-0.3451	25.76	0.02	-0.750			
0.0059	380.71	4.1370	4.1370	-0.3768	25.76	0.02	-0.750			
0.0071	455.49	4.1340	4.1341	-0.4106	25.76	0.02	-0.750			
0.0084	539.22	4.1310	4.1309	-0.4367	25.75	0.01	-0.750			
0.0098	626.36	4.1280	4.1279	-0.4605	25.75	0.01	-0.750			
0.0112	717.39	4.1250	4.1250	-0.4842	25.74	0.00	-0.750			
0.0127	813.75	4.1220	4.1220	-0.5054	25.74	-0.00	-0.750			
0.0143	912.19	4.1190	4.1189	-0.5233	25.73	-0.01	-0.750			
0.0159	1014.50	4.1160	4.1160	-0.5370	25.73	-0.01	-0.750			
0.0175	1118.46	4.1130	4.1131	-0.5518	25.72	-0.02	-0.750			
0.0192	1227.64	4.1100	4.1100	-0.5699	25.72	-0.02	-0.750			
0.0209	1338.84	4.1070	4.1071	-0.5812	25.71	-0.03	-0.750			
0.0227	1451.40	4.1040	4.1039	-0.5893	25.71	-0.03	-0.750			
0.0245	1566.00	4.1010	4.1011	-0.6005	25.70	-0.04	-0.750			
0.0263	1682.52	4.0980	4.0980	-0.6074	25.70	-0.04	-0.750			
0.0281	1800.40	4.0950	4.0949	-0.6173	25.69	-0.05	-0.750			
0.0300	1918.65	4.0920	4.0920	-0.6235	25.69	-0.05	-0.750			
0.0318	2038.32	4.0890	4.0891	-0.6315	25.69	-0.05	-0.750			
0.0338	2161.47	4.0860	4.0860	-0.6401	25.69	-0.05	-0.750			
0.0357	2285.51	4.0830	4.0830	-0.6451	25.68	-0.06	-0.750			
0.0377	2410.11	4.0800	4.0801	-0.6480	25.68	-0.06	-0.750			
0.0396	2534.87	4.0770	4.0771	-0.6543	25.68	-0.06	-0.750			
0.0416	2660.64	4.0740	4.0740	-0.6597	25.68	-0.06	-0.750			
0.0436	2788.59	4.0710	4.0709	-0.6708	25.68	-0.06	-0.750			
0.0456	2919.39	4.0680	4.0679	-0.6723	25.68	-0.06	-0.750			
0.0476	3049.35	4.0650	4.0650	-0.6760	25.68	-0.06	-0.750			
0.0497	3180.44	4.0620	4.0625	-0.6810	25.68	-0.06	-0.750			
0.0517	3311.44	4.0590	4.0589	-0.6801	25.68	-0.06	-0.750			
0.0537	3439.57	4.0560	4.0560	-0.6788	25.67	-0.07	-0.750			
0.0558	3569.09	4.0530	4.0530	-0.6832	25.67	-0.07	-0.750			
0.0578	3702.31	4.0500	4.0500	-0.6931	25.67	-0.07	-0.750			
0.0599	3835.15	4.0470	4.0469	-0.6959	25.66	-0.08	-0.750			
0.0620	3968.70	4.0440	4.0440	-0.6994	25.66	-0.08	-0.750			
0.0641	4104.35	4.0410	4.0410	-0.6991	25.66	-0.08	-0.750			
0.0662	4238.85	4.0380	4.0380	-0.7046	25.66	-0.08	-0.750			
0.0683	4373.53	4.0350	4.0351	-0.7128	25.66	-0.08	-0.750			
0.0705	4511.50	4.0320	4.0318	-0.7133	25.66	-0.08	-0.750			
0.0726	4649.06	4.0290	4.0289	-0.7173	25.66	-0.08	-0.750			
0.0748	4787.97	4.0260	4.0262	-0.7146	25.66	-0.08	-0.750			
0.0770	4926.43	4.0230	4.0231	-0.7144	25.66	-0.08	-0.750			
0.0791	5062.41	4.0200	4.0199	-0.7188	25.66	-0.08	-0.750			
0.0812	5198.32	4.0170	4.0169	-0.7108	25.66	-0.08	-0.750			
0.0834	5334.93	4.0140	4.0140	-0.7127	25.66	-0.08	-0.750			
0.0855	5472.59	4.0110	4.0109	-0.7134	25.66	-0.08	-0.750			
0.0877	5609.97	4.0080	4.0082	-0.7159	25.66	-0.08	-0.750			
0.0898	5748.49	4.0050	4.0049	-0.7182	25.66	-0.08	-0.750			
0.0919	5883.84	4.0020	4.0020	-0.7221	25.66	-0.08	-0.750			
0.0941	6022.33	3.9990	3.9991	-0.7211	25.66	-0.08	-0.750			
0.0963	6164.35	3.9960	3.9959	-0.7293	25.66	-0.08	-0.750			
0.0985	6304.55	3.9930	3.9930	-0.7313	25.66	-0.08	-0.750			
0.1007	6445.46	3.9900	3.9901	-0.7329	25.66	-0.08	-0.750			
0.1029	6585.16	3.9870	3.9869	-0.7357	25.66	-0.08	-0.750			
0.1051	6725.81	3.9840	3.9840	-0.7416	25.66	-0.08	-0.750			
0.1073	6868.47	3.9810	3.9810	-0.7432	25.67	-0.07	-0.750			
0.1096	7014.01	3.9780	3.9779	-0.7431	25.67	-0.07	-0.750			
0.1118	7157.72	3.9750	3.9751	-0.7452	25.67	-0.07	-0.750			
0.1141	7300.49	3.9720	3.9720	-0.7386	25.67	-0.07	-0.750			
0.1163	7440.79	3.9690	3.9690	-0.7412	25.67	-0.07	-0.750			
0.1185	7583.74	3.9660	3.9660	-0.7497	25.68	-0.06	-0.750			
0.1207	7727.09	3.9630	3.9628	-0.7530	25.68	-0.06	-0.750			
0.1230	7874.72	3.9600	3.9599	-0.7604	25.68	-0.06	-0.750			
0.1253	8021.68	3.9570	3.9572	-0.7614	25.68	-0.06	-0.750			
0.1277	8169.62	3.9540	3.9539	-0.7583	25.68	-0.06	-0.750			
0.1299	8316.58	3.9510	3.9509	-0.7523	25.69	-0.05	-0.750			
0.1321	8456.25	3.9480	3.9481	-0.7360	25.69	-0.05	-0.750			
0.1343	8597.93	3.9450	3.9451	-0.7473	25.70	-0.04	-0.750			
0.1365	8739.08	3.9420	3.9420	-0.7467	25.70	-0.04	-0.750			
0.1388	8881.38	3.9390	3.9388	-0.7573	25.70	-0.04	-0.750			
0.1410	9024.80	3.9360	3.9360	-0.7742	25.70	-0.04	-0.750			
0.1434	9179.18	3.9330	3.9330	-0.7768	25.70	-0.04	-0.750			
0.1458	9331.91	3.9300	3.9300	-0.7837	25.70	-0.04	-0.750			
0.1482	9485.55	3.9270	3.9270	-0.7879	25.70	-0.04	-0.750			
0.1506	9635.62	3.9240	3.9239	-0.7790	25.70	-0.04	-0.750			
0.1528	9782.33	3.9210	3.9209	-0.7789	25.71	-0.03	-0.750			
0.1552	9930.85	3.9180	3.9181	-0.7755	25.71	-0.03	-0.750			
0.1575	10078.11	3.9150	3.9150	-0.7767	25.71	-0.03	-0.750			
0.1599	10232.20	3.9120	3.9119	-0.7820	25.72	-0.02	-0.750			
0.1622	10380.19	3.9090	3.9094	-0.7822	25.72	-0.02	-0.750			
0.1645	10530.32	3.9060	3.9060	-0.7846	25.72	-0.02	-0.750			
0.1669	10682.41	3.9030	3.9030	-0.7885	25.72	-0.02	-0.750			
0.1693	10833.06	3.9000	3.9000	-0.7891	25.72	-0.02	-0.750			
0.1717	10986.06	3.8970	3.8970	-0.7916	25.72	-0.02	-0.750			
0.1740	11137.89	3.8940	3.8940	-0.7884	25.72	-0.02	-0.750			
0.1764	11290.28	3.8910	3.8909	-0.7921	25.72	-0.02	-0.750			
0.1787	11439.19	3.8880	3.8881	-0.7933	25.73	-0.01	-0.750			
0.1811	11591.56	3.8850	3.8850	-0.7940	25.74	-0.00	-0.750			
0.1835	11743.95	3.8820	3.8820	-0.7990	25.74	0.00	-0.750			
0.1859	11898.91	3.8790	3.8790	-0.7982	25.75	0.01	-0.750			
0.1883	12052.98	3.8760	3.8760	-0.8001	25.75	0.01	-0.750			
0.1907	12206.29	3.8730	3.8730	-0.8046	25.75	0.01	-0.750			
0.1931	12360.63	3.8700	3.8699	-0.8021	25.75	0.01	-0.750			
0.1955	12513.40	3.8670	3.8670	-0.7986	25.76	0.02	-0.750			
0.1980	12669.40	3.8640	3.8639	-0.7982	25.76	0.02	-0.750			
0.2003	12822.40	3.8610	3.8611	-0.7963	25.76	0.02	-0.750			
0.2027	12974.63	3.8580	3.8580	-0.8010	25.76	0.02	-0.750			
0.2051	13126.28	3.8550	3.8549	-0.7982	25.76	0.02	-0.750			
0.2075	13279.06	3.8520	3.8519	-0.7933	25.77	0.03	-0.750			
0.2099	13433.81	3.8490	3.8490	-0.7989	25.77	0.03	-0.750			
0.2123	13588.44	3.8460	3.8461	-0.7992	25.77	0.03	-0.750			
0.2147	13742.16	3.8430	3.8430	-0.7978	25.77	0.03	-0.750			
0.2171	13893.65	3.8400	3.8400	-0.7953	25.78	0.04	-0.750			
0.2195	14045.69	3.8370	3.8370	-0.7931	25.78	0.04	-0.750			
0.2218	14198.00	3.8340	3.8339	-0.7961	25.79	0.05	-0.750			
0.2242	14351.57	3.8310	3.8311	-0.7962	25.79	0.05	-0.750			
0.2266	14504.79	3.8280	3.8279	-0.7957	25.79	0.05	-0.750			
0.2290	14657.74	3.8250	3.8250	-0.7981	25.80	0.06	-0.750			
0.2314	14811.12	3.8220	3.8220	-0.7952	25.80	0.06	-0.750			
0.2338	14964.26	3.8190	3.8190	-0.7905	25.80	0.06	-0.750			
0.2362	15118.62	3.8160	3.8161	-0.7845	25.81	0.07	-0.750			
0.2385	15266.89	3.8130	3.8129	-0.7802	25.81	0.07	-0.750			
0.2409	15414.73	3.8100	3.8100	-0.7792	25.81	0.07	-0.750			
0.2432	15563.90	3.8070	3.8070	-0.7721	25.81	0.07	-0.750			
0.2455	15709.66	3.8040	3.8039	-0.7675	25.82	0.08	-0.750			
0.2478	15860.25	3.8010	3.8010	-0.7685	25.82	0.08	-0.750			
0.2501	16007.99	3.7980	3.7982	-0.7645	25.82	0.08	-0.750			
0.2524	16156.03	3.7950	3.7949	-0.7616	25.82	0.08	-0.750			
0.2547	16299.07	3.7920	3.7920	-0.7599	25.82	0.08	-0.750			
0.2569	16444.15	3.7890	3.7890	-0.7562	25.83	0.09	-0.750			
0.2592	16592.00	3.7860	3.7859	-0.7538	25.83	0.09	-0.750			
0.2615	16736.13	3.7830	3.7831	-0.7477	25.83	0.09	-0.750			
0.2637	16879.54	3.7800	3.7800	-0.7442	25.83	0.09	-0.750			
0.2659	17020.78	3.7770	3.7769	-0.7398	25.84	0.10	-0.750			
0.2681	17160.76	3.7740	3.7740	-0.7410	25.84	0.10	-0.750			
0.2704	17302.83	3.7710	3.7710	-0.7379	25.84	0.10	-0.750			
0.2726	17446.89	3.7680	3.7679	-0.7413	25.85	0.11	-0.750			
0.2748	17589.31	3.7650	3.7652	-0.7428	25.85	0.11	-0.750			
0.2771	17731.32	3.7620	3.7619	-0.7392	25.85	0.11	-0.750			
0.2792	17871.98	3.7590	3.7590	-0.7411	25.86	0.12	-0.750			
0.2815	18012.84	3.7560	3.7560	-0.7408	25.86	0.12	-0.750			
0.2837	18156.03	3.7530	3.7530	-0.7494	25.86	0.12	-0.750			
0.2860	18301.59	3.7500	3.7499	-0.7541	25.87	0.13	-0.750			
0.2882	18446.82	3.7470	3.7470	-0.7566	25.87	0.13	-0.750			
0.2905	18590.21	3.7440	3.7440	-0.7658	25.88	0.14	-0.750			
0.2928	18738.47	3.7410	3.7411	-0.7722	25.88	0.14	-0.750			
0.2951	18886.63	3.7380	3.7379	-0.7775	25.88	0.14	-0.750			
0.2975	19037.55	3.7350	3.7348	-0.7855	25.89	0.15	-0.750			
0.2998	19187.86	3.7320	3.7323	-0.7962	25.89	0.15	-0.750			
0.3022	19342.69	3.7290	3.7290	-0.8057	25.89	0.15	-0.750			
0.3047	19498.67	3.7260	3.7259	-0.8250	25.89	0.15	-0.750			
0.3072	19659.17	3.7230	3.7229	-0.8305	25.89	0.15	-0.750			
0.3097	19820.87	3.7200	3.7199	-0.8433	25.89	0.15	-0.750			
0.3122	19982.40	3.7170	3.7175	-0.8565	25.89	0.15	-0.750			
0.3148	20147.53	3.7140	3.7139	-0.8714	25.89	0.15	-0.750			
0.3174	20314.08	3.7110	3.7109	-0.8881	25.89	0.15	-0.750			
0.3201	20485.16	3.7080	3.7080	-0.9019	25.89	0.15	-0.750			
0.3228	20662.33	3.7050	3.7050	-0.9247	25.89	0.15	-0.750			
0.3257	20842.03	3.7020	3.7021	-0.9420	25.89	0.15	-0.750			
0.3285	21025.56	3.6990	3.6990	-0.9605	25.89	0.15	-0.750			
0.3314	21211.46	3.6960	3.6959	-0.9700	25.89	0.15	-0.750			
0.3343	21398.15	3.6930	3.6930	-0.9851	25.89	0.15	-0.750			
0.3373	21587.35	3.6900	3.6903	-1.0085	25.89	0.15	-0.750			
0.3404	21784.19	3.6870	3.6869	-1.0285	25.88	0.14	-0.750			
0.3435	21983.21	3.6840	3.6839	-1.0434	25.88	0.14	-0.750			
0.3466	22184.49	3.6810	3.6810	-1.0632	25.87	0.13	-0.750			
0.3499	22392.10	3.6780	3.6783	-1.0927	25.87	0.13	-0.750			
0.3532	22604.07	3.6750	3.6750	-1.1088	25.87	0.13	-0.750			
0.3565	22816.78	3.6720	3.6719	-1.1241	25.87	0.13	-0.750			
0.3599	23034.00	3.6690	3.6690	-1.1433	25.87	0.13	-0.750			
0.3634	23257.63	3.6660	3.6660	-1.1725	25.87	0.13	-0.750			
0.3670	23484.98	3.6630	3.6629	-1.1895	25.86	0.12	-0.750			
0.3706	23715.27	3.6600	3.6599	-1.2072	25.86	0.12	-0.750			
0.3742	23947.79	3.6570	3.6571	-1.2380	25.85	0.11	-0.750			
0.3779	24188.55	3.6540	3.6539	-1.2668	25.84	0.10	-0.750			
0.3818	24435.03	3.6510	3.6509	-1.2888	25.83	0.09	-0.750			
0.3857	24684.20	3.6480	3.6481	-1.3167	25.82	0.08	-0.750			
0.3897	24943.34	3.6450	3.6449	-1.3432	25.82	0.08	-0.750			
0.3938	25201.28	3.6420	3.6420	-1.3608	25.81	0.07	-0.750			
0.3979	25463.55	3.6390	3.6390	-1.3838	25.81	0.07	-0.750			
0.4019	25723.32	3.6360	3.6359	-1.4157	25.81	0.07	-0.750			
0.4063	26003.50	3.6330	3.6330	-1.4456	25.80	0.06	-0.750			
0.4107	26285.46	3.6300	3.6299	-1.4809	25.80	0.06	-0.750			
0.4152	26575.54	3.6270	3.6269	-1.5066	25.79	0.05	-0.750			
0.4198	26868.31	3.6240	3.6240	-1.5545	25.79	0.05	-0.750			
0.4245	27169.18	3.6210	3.6212	-1.5756	25.78	0.04	-0.750			
0.4293	27475.23	3.6180	3.6179	-1.5913	25.78	0.04	-0.750			
0.4341	27783.65	3.6150	3.6149	-1.6160	25.77	0.03	-0.750	0.388	0.532	
0.4390	28097.29	3.6120	3.6119	-1.6651	25.77	0.03	-0.750			
0.4441	28419.91	3.6090	3.6090	-1.6908	25.76	0.02	-0.750			
0.4492	28745.87	3.6060	3.6063	-1.7115	25.76	0.02	-0.750			
0.4543	29076.59	3.6030	3.6029	-1.7500	25.76	0.02	-0.750			
0.4597	29417.94	3.6000	3.6001	-1.7818	25.77	0.03	-0.750			
0.4650	29761.00	3.5970	3.5968	-1.8204	25.77	0.03	-0.750			
0.4705	30112.74	3.5940	3.5940	-1.8559	25.76	0.02	-0.750			
0.4761	30473.40	3.5910	3.5911	-1.8882	25.75	0.01	-0.750			
0.4820	30846.22	3.5880	3.5879	-1.9257	25.75	0.01	-0.750			
0.4878	31219.19	3.5850	3.5852	-1.9655	25.75	0.01	-0.750			
0.4937	31599.48	3.5820	3.5818	-1.9921	25.75	0.01	-0.750			
0.4997	31982.76	3.5790	3.5790	-2.0258	25.75	0.01	-0.750			
0.5058	32372.61	3.5760	3.5760	-2.0470	25.75	0.01	-0.750			
0.5120	32766.78	3.5730	3.5730	-2.0872	25.75	0.01	-0.750			
0.5184	33178.59	3.5700	3.5701	-2.1201	25.74	0.00	-0.750			
0.5249	33590.95	3.5670	3.5669	-2.1460	25.74	0.00	-0.750			
0.5313	34003.68	3.5640	3.5640	-2.1539	25.75	0.01	-0.750			
0.5379	34422.74	3.5610	3.5610	-2.1587	25.75	0.01	-0.750			
0.5443	34836.49	3.5580	3.5580	-2.1772	25.76	0.02	-0.750			
0.5509	35256.11	3.5550	3.5549	-2.1764	25.76	0.02	-0.750			
0.5574	35675.39	3.5520	3.5519	-2.1620	25.75	0.01	-0.750			
0.5640	36094.90	3.5490	3.5491	-2.1650	25.75	0.01	-0.750			
0.5705	36510.12	3.5460	3.5460	-2.1600	25.76	0.02	-0.750			
0.5769	36922.29	3.5430	3.5427	-2.1326	25.77	0.03	-0.750			
0.5833	37332.30	3.5400	3.5402	-2.1190	25.78	0.04	-0.750			
0.5896	37733.56	3.5370	3.5370	-2.1077	25.78	0.04	-0.750			
0.5959	38140.28	3.5340	3.5340	-2.0681	25.79	0.05	-0.750			
0.6022	38538.04	3.5310	3.5310	-2.0331	25.79	0.05	-0.750			
0.6083	38929.13	3.5280	3.5280	-2.0051	25.80	0.06	-0.750			
0.6142	39308.99	3.5250	3.5248	-1.9611	25.80	0.06	-0.750			
0.6201	39684.59	3.5220	3.5222	-1.9208	25.81	0.07	-0.750			
0.6257	40047.13	3.5190	3.5190	-1.8795	25.82	0.08	-0.750			
0.6313	40402.53	3.5160	3.5162	-1.8440	25.84	0.10	-0.750			
0.6369	40760.15	3.5130	3.5130	-1.7780	25.85	0.11	-0.750			
0.6421	41093.38	3.5100	3.5102	-1.7273	25.87	0.13	-0.750			
0.6472	41423.16	3.5070	3.5070	-1.6743	25.88	0.14	-0.750			
0.6522	41738.48	3.5040	3.5038	-1.6355	25.89	0.15	-0.750			
0.6569	42044.67	3.5010	3.5009	-1.5763	25.90	0.16	-0.750			
0.6615	42338.61	3.4980	3.4981	-1.5399	25.91	0.17	-0.750			
0.6662	42637.38	3.4950	3.4950	-1.4983	25.93	0.19	-0.750			
0.6707	42925.35	3.4920	3.4919	-1.4578	25.94	0.20	-0.750			
0.6749	43196.66	3.4890	3.4893	-1.4063	25.96	0.22	-0.750			
0.6791	43462.11	3.4860	3.4859	-1.3620	25.98	0.24	-0.750			
0.6831	43717.19	3.4830	3.4829	-1.3118	25.99	0.25	-0.750			
0.6869	43964.68	3.4800	3.4802	-1.2790	26.01	0.27	-0.750			
0.6908	44208.71	3.4770	3.4769	-1.2425	26.03	0.29	-0.750			
0.6944	44444.58	3.4740	3.4740	-1.2028	26.05	0.31	-0.750			
0.6979	44668.29	3.4710	3.4709	-1.1635	26.06	0.32	-0.750			
0.7014	44889.38	3.4680	3.4679	-1.1386	26.08	0.34	-0.750			
0.7048	45105.82	3.4650	3.4649	-1.0980	26.10	0.36	-0.750			
0.7080	45314.41	3.4620	3.4619	-1.0589	26.11	0.37	-0.750			
0.7111	45511.15	3.4590	3.4592	-1.0183	26.13	0.39	-0.750			
0.7141	45704.46	3.4560	3.4560	-1.0017	26.14	0.40	-0.750			
0.7171	45892.88	3.4530	3.4529	-0.9642	26.15	0.41	-0.750			
0.7199	46073.54	3.4500	3.4498	-0.9342	26.17	0.43	-0.750			
0.7226	46248.20	3.4470	3.4470	-0.9079	26.18	0.44	-0.750			
0.7254	46423.29	3.4440	3.4440	-0.8969	26.19	0.45	-0.750			
0.7280	46590.85	3.4410	3.4409	-0.8790	26.20	0.46	-0.750			
0.7305	46754.00	3.4380	3.4380	-0.8618	26.21	0.47	-0.750			
0.7331	46916.58	3.4350	3.4350	-0.8528	26.22	0.48	-0.750			
0.7357	47083.45	3.4320	3.4319	-0.8608	26.23	0.49	-0.750			
0.7382	47246.35	3.4290	3.4290	-0.8611	26.24	0.50	-0.750			
0.7408	47410.30	3.4260	3.4260	-0.8755	26.25	0.51	-0.750			
0.7434	47577.90	3.4230	3.4229	-0.8849	26.26	0.52	-0.750			
0.7461	47748.71	3.4200	3.4200	-0.9004	26.27	0.53	-0.750			
0.7488	47926.34	3.4170	3.4171	-0.9191	26.29	0.55	-0.750			
0.7517	48105.77	3.4140	3.4140	-0.9339	26.29	0.55	-0.750			
0.7545	48288.92	3.4110	3.4110	-0.9347	26.30	0.56	-0.750			
0.7573	48470.14	3.4080	3.4080	-0.9282	26.30	0.56	-0.750			
0.7601	48648.84	3.4050	3.4049	-0.9122	26.31	0.57	-0.750			
0.7629	48825.15	3.4020	3.4021	-0.8996	26.31	0.57	-0.750			
0.7655	48993.74	3.3990	3.3990	-0.8826	26.32	0.58	-0.750			
0.7682	49161.94	3.3960	3.3959	-0.8634	26.33	0.59	-0.750			
0.7707	49323.65	3.3930	3.3929	-0.8374	26.34	0.60	-0.750			
0.7732	49485.84	3.3900	3.3900	-0.8196	26.35	0.61	-0.750			
0.7757	49642.93	3.3870	3.3870	-0.7988	26.35	0.61	-0.750			
0.7780	49794.62	3.3840	3.3840	-0.7710	26.36	0.62	-0.750			
0.7803	49939.15	3.3810	3.3808	-0.7446	26.37	0.63	-0.750			
0.7825	50078.79	3.3780	3.3781	-0.7160	26.38	0.64	-0.750			
0.7846	50214.91	3.3750	3.3750	-0.6957	26.38	0.64	-0.750			
0.7867	50346.82	3.3720	3.3721	-0.6700	26.39	0.65	-0.750			
0.7886	50472.60	3.3690	3.3689	-0.6452	26.40	0.66	-0.750			
0.7905	50592.82	3.3660	3.3661	-0.6179	26.40	0.66	-0.750			
0.7923	50708.05	3.3630	3.3630	-0.5976	26.41	0.67	-0.750			
0.7941	50819.42	3.3600	3.3599	-0.5768	26.42	0.68	-0.750			
0.7958	50930.40	3.3570	3.3570	-0.5595	26.42	0.68	-0.750			
0.7974	51035.24	3.3540	3.3540	-0.5397	26.43	0.69	-0.750			
0.7990	51138.62	3.3510	3.3511	-0.5240	26.44	0.70	-0.750			
0.8006	51236.82	3.3480	3.3479	-0.5046	26.44	0.70	-0.750			
0.8021	51331.57	3.3450	3.3449	-0.4856	26.45	0.71	-0.750			
0.8035	51421.48	3.3420	3.3421	-0.4692	26.46	0.72	-0.750			
0.8048	51509.01	3.3390	3.3389	-0.4544	26.47	0.73	-0.750			
0.8062	51596.29	3.3360	3.3361	-0.4437	26.47	0.73	-0.750			
0.8075	51679.84	3.3330	3.3330	-0.4284	26.48	0.74	-0.750			
0.8088	51760.72	3.3300	3.3300	-0.4170	26.48	0.74	-0.750			
0.8100	51839.60	3.3270	3.3270	-0.4048	26.49	0.75	-0.750			
0.8112	51915.48	3.3240	3.3238	-0.3926	26.50	0.76	-0.750			
0.8123	51989.26	3.3210	3.3211	-0.3794	26.50	0.76	-0.750			
0.8135	52061.17	3.3180	3.3180	-0.3699	26.51	0.77	-0.750			
0.8146	52131.44	3.3150	3.3150	-0.3595	26.51	0.77	-0.750			
0.8156	52199.94	3.3120	3.3119	-0.3476	26.52	0.78	-0.750			
0.8166	52264.16	3.3090	3.3090	-0.3377	26.52	0.78	-0.750			
0.8176	52328.16	3.3060	3.3060	-0.3292	26.53	0.79	-0.750			
0.8186	52390.02	3.3030	3.3030	-0.3210	26.53	0.79	-0.750			
0.8195	52450.95	3.3000	3.2999	-0.3147	26.54	0.80	-0.750			
0.8205	52510.22	3.2970	3.2971	-0.3073	26.54	0.80	-0.750			
0.8214	52568.92	3.2940	3.2940	-0.3024	26.54	0.80	-0.750			
0.8223	52626.93	3.2910	3.2910	-0.2966	26.55	0.81	-0.750			
0.8232	52682.95	3.2880	3.2880	-0.2885	26.55	0.81	-0.750			
0.8240	52737.49	3.2850	3.2850	-0.2832	26.56	0.82	-0.750			
0.8249	52790.75	3.2820	3.2821	-0.2797	26.56	0.82	-0.750			
0.8257	52843.44	3.2790	3.2790	-0.2752	26.57	0.83	-0.750			
0.8265	52896.39	3.2760	3.2758	-0.2710	26.57	0.83	-0.750			
0.8273	52948.65	3.2730	3.2729	-0.2655	26.58	0.84	-0.750			
0.8281	52999.64	3.2700	3.2702	-0.2604	26.58	0.84	-0.750			
0.8289	53048.90	3.2670	3.2670	-0.2546	26.59	0.85	-0.750			
0.8297	53097.64	3.2640	3.2640	-0.2480	26.59	0.85	-0.750			
0.8304	53142.85	3.2610	3.2609	-0.2404	26.60	0.86	-0.750			
0.8311	53189.02	3.2580	3.2580	-0.2368	26.60	0.86	-0.750			
0.8318	53234.04	3.2550	3.2550	-0.2335	26.61	0.87	-0.750			
0.8325	53278.52	3.2520	3.2521	-0.2301	26.61	0.87	-0.750			
0.8332	53322.68	3.2490	3.2491	-0.2269	26.62	0.88	-0.750			
0.8338	53365.59	3.2460	3.2459	-0.2233	26.62	0.88	-0.750			
0.8345	53407.59	3.2430	3.2430	-0.2208	26.62	0.88	-0.750			
0.8352	53450.25	3.2400	3.2400	-0.2175	26.63	0.89	-0.750			
0.8358	53491.77	3.2370	3.2370	-0.2146	26.63	0.89	-0.750			
0.8365	53533.19	3.2340	3.2339	-0.2113	26.64	0.90	-0.750			
0.8371	53573.01	3.2310	3.2313	-0.2083	26.64	0.90	-0.750			
0.8377	53612.75	3.2280	3.2280	-0.2051	26.65	0.91	-0.750			
0.8383	53651.91	3.2250	3.2248	-0.2020	26.65	0.91	-0.750			
0.8389	53690.06	3.2220	3.2219	-0.1990	26.66	0.92	-0.750			
0.8395	53727.67	3.2190	3.2191	-0.1957	26.66	0.92	-0.750			
0.8401	53765.30	3.2160	3.2161	-0.1951	26.67	0.93	-0.750			
0.8407	53802.54	3.2130	3.2129	-0.1928	26.67	0.93	-0.750			
0.8412	53839.20	3.2100	3.2100	-0.1908	26.68	0.94	-0.750			
0.8418	53875.39	3.2070	3.2070	-0.1880	26.68	0.94	-0.750			
0.8424	53911.67	3.2040	3.2040	-0.1869	26.69	0.95	-0.750			
0.8429	53947.34	3.2010	3.2010	-0.1847	26.69	0.95	-0.750			
0.8435	53982.72	3.1980	3.1980	-0.1821	26.70	0.96	-0.750			
0.8440	54017.54	3.1950	3.1950	-0.1799	26.70	0.96	-0.750			
0.8446	54051.59	3.1920	3.1919	-0.1768	26.71	0.97	-0.750			
0.8451	54085.23	3.1890	3.1892	-0.1754	26.71	0.97	-0.750			
0.8456	54118.79	3.1860	3.1860	-0.1731	26.72	0.98	-0.750			
0.8461	54151.66	3.1830	3.1830	-0.1716	26.72	0.98	-0.750			
0.8466	54184.42	3.1800	3.1800	-0.1698	26.73	0.99	-0.750			
0.8471	54216.89	3.1770	3.1771	-0.1684	26.73	0.99	-0.750			
0.8476	54249.18	3.1740	3.1739	-0.1670	26.74	1.00	-0.750			
0.8481	54281.04	3.1710	3.1709	-0.1653	26.74	1.00	-0.750			
0.8486	54312.64	3.1680	3.1681	-0.1638	26.74	1.00	-0.750			
0.8491	54343.96	3.1650	3.1650	-0.1614	26.75	1.01	-0.750			
0.8496	54375.00	3.1620	3.1620	-0.1600	26.75	1.01	-0.750			
0.8501	54405.03	3.1590	3.1591	-0.1581	26.76	1.02	-0.750			
0.8505	54435.20	3.1560	3.1561	-0.1568	26.76	1.02	-0.750			
0.8510	54465.17	3.1530	3.1530	-0.1559	26.77	1.03	-0.750			
0.8515	54495.00	3.1500	3.1499	-0.1543	26.77	1.03	-0.750			
0.8519	54524.50	3.1470	3.1471	-0.1533	26.78	1.04	-0.750			
0.8524	54553.88	3.1440	3.1440	-0.1519	26.79	1.05	-0.750			
0.8529	54583.23	3.1410	3.1410	-0.1510	26.79	1.05	-0.750			
0.8533	54612.05	3.1380	3.1380	-0.1492	26.80	1.06	-0.750			
0.8538	54640.38	3.1350	3.1350	-0.1472	26.80	1.06	-0.750			
0.8542	54668.53	3.1320	3.1320	-0.1458	26.81	1.07	-0.750			
0.8546	54696.35	3.1290	3.1290	-0.1446	26.81	1.07	-0.750			
0.8551	54723.90	3.1260	3.1259	-0.1438	26.82	1.08	-0.750			
0.8555	54751.41	3.1230	3.1230	-0.1428	26.82	1.08	-0.750			
0.8559	54778.63	3.1200	3.1199	-0.1415	26.83	1.09	-0.750			
0.8563	54805.62	3.1170	3.1170	-0.1406	26.84	1.10	-0.750			
0.8568	54832.65	3.1140	3.1140	-0.1400	26.84	1.10	-0.750			
0.8572	54859.45	3.1110	3.1111	-0.1390	26.85	1.11	-0.750			
0.8576	54886.23	3.1080	3.1079	-0.1373	26.85	1.11	-0.750			
0.8580	54912.39	3.1050	3.1050	-0.1362	26.86	1.12	-0.750			
0.8584	54938.33	3.1020	3.1020	-0.1347	26.86	1.12	-0.750			
0.8588	54964.07	3.0990	3.0991	-0.1336	26.86	1.12	-0.750			
0.8592	54989.61	3.0960	3.0959	-0.1327	26.87	1.13	-0.750			
0.8596	55014.80	3.0930	3.0930	-0.1313	26.87	1.13	-0.750			
0.8600	55039.95	3.0900	3.0901	-0.1306	26.88	1.14	-0.750			
0.8604	55064.90	3.0870	3.0870	-0.1301	26.88	1.14	-0.750			
0.8608	55089.96	3.0840	3.0840	-0.1296	26.89	1.15	-0.750			
0.8612	55114.70	3.0810	3.0811	-0.1283	26.89	1.15	-0.750			
0.8616	55139.36	3.0780	3.0779	-0.1272	26.89	1.15	-0.750			
0.8619	55163.83	3.0750	3.0750	-0.1262	26.90	1.16	-0.750			
0.8623	55187.95	3.0720	3.0719	-0.1251	26.90	1.16	-0.750			
0.8627	55211.70	3.0690	3.0690	-0.1244	26.91	1.17	-0.750			
0.8631	55235.42	3.0660	3.0658	-0.1234	26.92	1.18	-0.750			
0.8634	55258.85	3.0630	3.0632	-0.1222	26.92	1.18	-0.750			
0.8638	55282.26	3.0600	3.0598	-0.1217	26.93	1.19	-0.750			
0.8641	55305.58	3.0570	3.0570	-0.1214	26.94	1.20	-0.750			
0.8645	55328.92	3.0540	3.0541	-0.1211	26.94	1.20	-0.750			
0.8649	55352.12	3.0510	3.0510	-0.1204	26.95	1.21	-0.750			
0.8652	55375.21	3.0480	3.0480	-0.1199	26.96	1.22	-0.750			
0.8656	55398.24	3.0450	3.0451	-0.1186	26.96	1.22	-0.750			
0.8660	55420.86	3.0420	3.0420	-0.1178	26.97	1.23	-0.750			
0.8663	55443.41	3.0390	3.0391	-0.1170	26.98	1.24	-0.750			
0.8667	55465.75	3.0360	3.0360	-0.1166	26.98	1.24	-0.750			
0.8670	55487.89	3.0330	3.0329	-0.1156	26.99	1.25	-0.750			
0.8673	55510.27	3.0300	3.0300	-0.1145	26.99	1.25	-0.750			
0.8677	55532.24	3.0270	3.0270	-0.1138	27.00	1.26	-0.750			
0.8680	55553.85	3.0240	3.0241	-0.1133	27.01	1.27	-0.750			
0.8684	55575.71	3.0210	3.0210	-0.1129	27.01	1.27	-0.750			
0.8687	55597.30	3.0180	3.0180	-0.1120	27.02	1.28	-0.750			
0.8690	55618.60	3.0150	3.0149	-0.1110	27.02	1.28	-0.750			
0.8694	55639.85	3.0120	3.0120	-0.1103	27.03	1.29	-0.750			
0.8697	55660.76	3.0090	3.0090	-0.1100	27.04	1.30	-0.750			
0.8700	55681.86	3.0060	3.0061	-0.1098	27.04	1.30	-0.751			
0.8704	55702.74	3.0030	3.0029	-0.1047	27.05	1.31	-0.751			
