Ah_balance (normalized)	Ah_balance (mAh)	Voltage - fit (V)	Voltage -  interpolate (V)	dQ/dV (1/V)	Temperature (°C)	Temperature - diff (°C)	Current (C)	R_DC 0ms (mOhm)	R_DC 50ms (mOhm)	R_DC 50 ms PEC (mOhm)
0.0003	20.64	4.1590	4.1590	-0.1158	25.98	0.01	-0.750			
0.0007	47.24	4.1560	4.1560	-0.1591	25.98	0.01	-0.750			
0.0013	83.45	4.1530	4.1529	-0.1990	25.98	0.01	-0.750			
0.0020	124.87	4.1500	4.1499	-0.2357	25.98	0.01	-0.750			
0.0027	173.24	4.1470	4.1472	-0.2749	25.98	0.01	-0.750			
0.0036	230.03	4.1440	4.1440	-0.3117	25.97	0.00	-0.750			
0.0046	294.18	4.1410	4.1409	-0.3428	25.97	0.00	-0.750			
0.0057	364.10	4.1380	4.1380	-0.3745	25.97	0.00	-0.750			
0.0069	439.93	4.1350	4.1351	-0.4051	25.97	-0.00	-0.750			
0.0081	521.16	4.1320	4.1320	-0.4323	25.97	-0.00	-0.750			
0.0095	605.22	4.1290	4.1289	-0.4614	25.97	-0.00	-0.750			
0.0109	695.89	4.1260	4.1261	-0.4913	25.96	-0.01	-0.750			
0.0124	794.43	4.1230	4.1229	-0.5169	25.96	-0.01	-0.750			
0.0140	897.80	4.1200	4.1199	-0.5391	25.96	-0.01	-0.750			
0.0157	1005.79	4.1170	4.1171	-0.5559	25.96	-0.01	-0.750			
0.0174	1114.81	4.1140	4.1140	-0.5686	25.95	-0.02	-0.750			
0.0192	1226.34	4.1110	4.1110	-0.5796	25.95	-0.02	-0.750			
0.0209	1337.00	4.1080	4.1079	-0.5876	25.95	-0.02	-0.750			
0.0226	1449.57	4.1050	4.1051	-0.5970	25.94	-0.03	-0.750			
0.0245	1565.57	4.1020	4.1020	-0.6099	25.94	-0.03	-0.750			
0.0263	1684.60	4.0990	4.0989	-0.6206	25.94	-0.03	-0.750			
0.0282	1805.89	4.0960	4.0960	-0.6243	25.94	-0.03	-0.750			
0.0301	1925.62	4.0930	4.0930	-0.6294	25.93	-0.04	-0.750			
0.0320	2047.97	4.0900	4.0901	-0.6351	25.93	-0.04	-0.750			
0.0339	2170.18	4.0870	4.0869	-0.6397	25.93	-0.04	-0.750			
0.0358	2292.44	4.0840	4.0839	-0.6438	25.92	-0.05	-0.750			
0.0378	2417.13	4.0810	4.0811	-0.6520	25.92	-0.05	-0.750			
0.0397	2543.85	4.0780	4.0779	-0.6589	25.92	-0.05	-0.750			
0.0417	2671.00	4.0750	4.0749	-0.6652	25.91	-0.06	-0.750			
0.0437	2798.86	4.0720	4.0722	-0.6679	25.91	-0.06	-0.750			
0.0458	2928.01	4.0690	4.0688	-0.6714	25.91	-0.06	-0.750			
0.0478	3057.11	4.0660	4.0660	-0.6758	25.91	-0.06	-0.750			
0.0498	3186.86	4.0630	4.0631	-0.6801	25.91	-0.06	-0.750			
0.0518	3316.87	4.0600	4.0600	-0.6813	25.91	-0.06	-0.750			
0.0539	3450.70	4.0570	4.0570	-0.6864	25.91	-0.06	-0.750			
0.0560	3582.48	4.0540	4.0539	-0.6879	25.91	-0.06	-0.750			
0.0580	3715.10	4.0510	4.0510	-0.6907	25.91	-0.06	-0.750			
0.0601	3847.87	4.0480	4.0479	-0.6916	25.91	-0.06	-0.750			
0.0622	3979.80	4.0450	4.0450	-0.6940	25.91	-0.06	-0.750			
0.0643	4112.88	4.0420	4.0421	-0.6961	25.90	-0.07	-0.750			
0.0664	4248.52	4.0390	4.0389	-0.7023	25.90	-0.07	-0.750			
0.0685	4383.39	4.0360	4.0359	-0.7042	25.90	-0.07	-0.750			
0.0706	4518.42	4.0330	4.0330	-0.7071	25.90	-0.07	-0.750			
0.0727	4654.94	4.0300	4.0300	-0.7085	25.90	-0.07	-0.750			
0.0749	4791.34	4.0270	4.0270	-0.7132	25.90	-0.07	-0.750			
0.0770	4928.63	4.0240	4.0240	-0.7132	25.91	-0.06	-0.750			
0.0792	5066.74	4.0210	4.0210	-0.7151	25.91	-0.06	-0.750			
0.0813	5203.71	4.0180	4.0181	-0.7172	25.91	-0.06	-0.750			
0.0835	5341.40	4.0150	4.0150	-0.7175	25.91	-0.06	-0.750			
0.0856	5479.25	4.0120	4.0119	-0.7175	25.91	-0.06	-0.750			
0.0878	5616.30	4.0090	4.0090	-0.7236	25.91	-0.06	-0.750			
0.0899	5755.32	4.0060	4.0060	-0.7250	25.91	-0.06	-0.750			
0.0921	5897.17	4.0030	4.0029	-0.7297	25.91	-0.06	-0.750			
0.0943	6036.90	4.0000	4.0002	-0.7300	25.91	-0.06	-0.750			
0.0965	6177.22	3.9970	3.9970	-0.7294	25.91	-0.06	-0.750			
0.0987	6316.80	3.9940	3.9940	-0.7363	25.91	-0.06	-0.750			
0.1009	6457.56	3.9910	3.9909	-0.7366	25.91	-0.06	-0.750			
0.1031	6599.61	3.9880	3.9881	-0.7391	25.91	-0.06	-0.750			
0.1053	6741.97	3.9850	3.9849	-0.7422	25.91	-0.06	-0.750			
0.1076	6885.62	3.9820	3.9821	-0.7467	25.91	-0.06	-0.750			
0.1098	7028.96	3.9790	3.9790	-0.7470	25.92	-0.05	-0.750			
0.1121	7171.77	3.9760	3.9759	-0.7507	25.92	-0.05	-0.750			
0.1143	7314.82	3.9730	3.9731	-0.7481	25.92	-0.05	-0.750			
0.1166	7461.39	3.9700	3.9699	-0.7521	25.93	-0.04	-0.750			
0.1188	7606.23	3.9670	3.9671	-0.7546	25.93	-0.04	-0.750			
0.1211	7750.74	3.9640	3.9640	-0.7539	25.93	-0.04	-0.750			
0.1233	7894.40	3.9610	3.9610	-0.7559	25.93	-0.04	-0.750			
0.1256	8039.87	3.9580	3.9580	-0.7585	25.94	-0.03	-0.750			
0.1279	8184.61	3.9550	3.9550	-0.7580	25.94	-0.03	-0.750			
0.1302	8333.16	3.9520	3.9519	-0.7638	25.94	-0.03	-0.750			
0.1325	8479.93	3.9490	3.9491	-0.7634	25.94	-0.03	-0.750			
0.1348	8625.60	3.9460	3.9460	-0.7647	25.94	-0.03	-0.750			
0.1371	8772.47	3.9430	3.9430	-0.7684	25.94	-0.03	-0.750			
0.1394	8919.54	3.9400	3.9399	-0.7668	25.95	-0.02	-0.750			
0.1417	9067.36	3.9370	3.9370	-0.7707	25.95	-0.02	-0.750			
0.1440	9216.83	3.9340	3.9340	-0.7726	25.95	-0.02	-0.750			
0.1463	9364.29	3.9310	3.9310	-0.7739	25.95	-0.02	-0.750			
0.1486	9512.69	3.9280	3.9280	-0.7783	25.96	-0.01	-0.750			
0.1510	9662.46	3.9250	3.9250	-0.7793	25.96	-0.01	-0.750			
0.1533	9812.51	3.9220	3.9219	-0.7818	25.96	-0.01	-0.750			
0.1557	9964.01	3.9190	3.9190	-0.7850	25.97	-0.00	-0.750			
0.1580	10114.45	3.9160	3.9160	-0.7846	25.97	0.00	-0.750			
0.1604	10265.47	3.9130	3.9130	-0.7896	25.97	0.00	-0.750			
0.1628	10416.92	3.9100	3.9100	-0.7889	25.97	0.00	-0.750			
0.1651	10567.53	3.9070	3.9070	-0.7888	25.98	0.01	-0.750			
0.1675	10720.22	3.9040	3.9040	-0.7901	25.98	0.01	-0.750			
0.1699	10871.87	3.9010	3.9010	-0.7922	25.98	0.01	-0.750			
0.1722	11023.60	3.8980	3.8980	-0.7952	25.98	0.01	-0.750			
0.1746	11176.78	3.8950	3.8950	-0.7988	25.98	0.01	-0.750			
0.1770	11330.72	3.8920	3.8919	-0.7956	25.99	0.02	-0.750			
0.1794	11484.67	3.8890	3.8890	-0.7970	25.99	0.02	-0.750			
0.1818	11637.11	3.8860	3.8862	-0.7976	25.99	0.02	-0.750			
0.1842	11790.43	3.8830	3.8828	-0.7986	25.99	0.02	-0.750			
0.1866	11942.52	3.8800	3.8800	-0.8054	25.99	0.02	-0.750			
0.1890	12096.14	3.8770	3.8770	-0.8060	26.00	0.03	-0.750			
0.1915	12254.60	3.8740	3.8739	-0.8106	26.00	0.03	-0.750			
0.1939	12410.90	3.8710	3.8712	-0.8081	26.00	0.03	-0.750			
0.1963	12565.19	3.8680	3.8680	-0.8050	26.01	0.04	-0.750			
0.1987	12717.92	3.8650	3.8650	-0.8069	26.01	0.04	-0.750			
0.2011	12870.42	3.8620	3.8620	-0.8071	26.02	0.05	-0.750			
0.2035	13025.76	3.8590	3.8589	-0.8051	26.02	0.05	-0.750			
0.2060	13183.66	3.8560	3.8561	-0.8103	26.03	0.06	-0.750			
0.2084	13339.65	3.8530	3.8530	-0.8092	26.03	0.06	-0.750			
0.2109	13495.12	3.8500	3.8499	-0.8102	26.03	0.06	-0.750			
0.2133	13650.54	3.8470	3.8470	-0.8074	26.04	0.07	-0.750			
0.2157	13803.25	3.8440	3.8440	-0.8019	26.04	0.07	-0.750			
0.2181	13958.59	3.8410	3.8410	-0.8012	26.04	0.07	-0.750			
0.2205	14113.41	3.8380	3.8380	-0.8007	26.04	0.07	-0.750			
0.2229	14264.25	3.8350	3.8350	-0.8017	26.04	0.07	-0.750			
0.2253	14418.10	3.8320	3.8320	-0.7997	26.04	0.07	-0.750			
0.2277	14571.50	3.8290	3.8289	-0.7968	26.05	0.08	-0.750			
0.2301	14725.52	3.8260	3.8258	-0.7972	26.05	0.08	-0.750			
0.2325	14879.04	3.8230	3.8231	-0.7959	26.05	0.08	-0.750			
0.2349	15031.57	3.8200	3.8200	-0.7943	26.06	0.09	-0.750			
0.2372	15183.62	3.8170	3.8169	-0.7923	26.06	0.09	-0.750			
0.2396	15333.81	3.8140	3.8140	-0.7827	26.06	0.09	-0.750			
0.2420	15487.06	3.8110	3.8110	-0.7875	26.07	0.10	-0.750			
0.2444	15638.41	3.8080	3.8080	-0.7856	26.07	0.10	-0.750			
0.2467	15788.13	3.8050	3.8050	-0.7820	26.07	0.10	-0.750			
0.2490	15937.43	3.8020	3.8020	-0.7817	26.08	0.11	-0.750			
0.2514	16088.29	3.7990	3.7990	-0.7753	26.08	0.11	-0.750			
0.2537	16238.31	3.7960	3.7959	-0.7695	26.09	0.12	-0.750			
0.2560	16385.37	3.7930	3.7931	-0.7650	26.09	0.12	-0.750			
0.2583	16530.57	3.7900	3.7900	-0.7621	26.09	0.12	-0.750			
0.2606	16675.55	3.7870	3.7870	-0.7591	26.10	0.13	-0.750			
0.2628	16819.88	3.7840	3.7839	-0.7527	26.10	0.13	-0.750			
0.2651	16965.78	3.7810	3.7810	-0.7431	26.10	0.13	-0.750			
0.2674	17111.39	3.7780	3.7781	-0.7426	26.11	0.14	-0.750			
0.2696	17251.56	3.7750	3.7751	-0.7354	26.11	0.14	-0.750			
0.2717	17390.80	3.7720	3.7719	-0.7264	26.11	0.14	-0.750			
0.2739	17527.23	3.7690	3.7689	-0.7328	26.12	0.15	-0.750			
0.2761	17667.96	3.7660	3.7661	-0.7365	26.12	0.15	-0.750			
0.2783	17811.04	3.7630	3.7629	-0.7425	26.12	0.15	-0.750			
0.2805	17955.14	3.7600	3.7599	-0.7464	26.13	0.16	-0.750			
0.2828	18099.17	3.7570	3.7571	-0.7471	26.13	0.16	-0.750			
0.2850	18242.49	3.7540	3.7540	-0.7488	26.14	0.17	-0.750			
0.2873	18386.17	3.7510	3.7510	-0.7523	26.14	0.17	-0.750			
0.2895	18528.92	3.7480	3.7480	-0.7512	26.14	0.17	-0.750			
0.2918	18674.50	3.7450	3.7449	-0.7636	26.15	0.18	-0.750			
0.2941	18821.95	3.7420	3.7422	-0.7719	26.15	0.18	-0.750			
0.2964	18970.86	3.7390	3.7389	-0.7784	26.15	0.18	-0.750			
0.2988	19120.99	3.7360	3.7359	-0.7903	26.15	0.18	-0.750			
0.3011	19273.19	3.7330	3.7331	-0.8012	26.15	0.18	-0.750			
0.3036	19428.85	3.7300	3.7299	-0.8115	26.15	0.18	-0.750			
0.3060	19585.18	3.7270	3.7271	-0.8200	26.15	0.18	-0.750			
0.3085	19742.30	3.7240	3.7240	-0.8282	26.15	0.18	-0.750			
0.3110	19902.35	3.7210	3.7210	-0.8470	26.16	0.19	-0.750			
0.3135	20066.59	3.7180	3.7180	-0.8602	26.16	0.19	-0.750			
0.3161	20232.06	3.7150	3.7149	-0.8740	26.17	0.20	-0.750			
0.3188	20402.37	3.7120	3.7121	-0.8931	26.17	0.20	-0.750			
0.3215	20575.27	3.7090	3.7090	-0.9147	26.17	0.20	-0.750			
0.3243	20752.83	3.7060	3.7060	-0.9261	26.16	0.19	-0.750			
0.3271	20932.80	3.7030	3.7030	-0.9367	26.16	0.19	-0.750			
0.3299	21111.62	3.7000	3.6998	-0.9496	26.15	0.18	-0.750			
0.3328	21297.74	3.6970	3.6970	-0.9673	26.15	0.18	-0.750			
0.3357	21484.79	3.6940	3.6940	-0.9873	26.15	0.18	-0.750			
0.3387	21675.79	3.6910	3.6909	-1.0035	26.15	0.18	-0.750			
0.3417	21868.88	3.6880	3.6880	-1.0180	26.15	0.18	-0.750			
0.3448	22069.37	3.6850	3.6852	-1.0465	26.15	0.18	-0.750			
0.3480	22272.87	3.6820	3.6819	-1.0635	26.14	0.17	-0.750			
0.3512	22477.60	3.6790	3.6790	-1.0762	26.14	0.17	-0.750			
0.3544	22682.24	3.6760	3.6760	-1.0912	26.13	0.16	-0.750			
0.3578	22896.50	3.6730	3.6730	-1.1238	26.13	0.16	-0.750			
0.3611	23113.21	3.6700	3.6700	-1.1429	26.13	0.16	-0.750			
0.3646	23333.99	3.6670	3.6670	-1.1693	26.12	0.15	-0.750			
0.3681	23561.05	3.6640	3.6639	-1.1978	26.12	0.15	-0.750			
0.3718	23795.16	3.6610	3.6610	-1.2255	26.12	0.15	-0.750			
0.3755	24033.75	3.6580	3.6580	-1.2482	26.11	0.14	-0.750			
0.3793	24273.29	3.6550	3.6550	-1.2753	26.11	0.14	-0.750			
0.3832	24522.28	3.6520	3.6520	-1.2888	26.11	0.14	-0.750			
0.3871	24776.76	3.6490	3.6490	-1.3043	26.10	0.13	-0.750			
0.3911	25028.82	3.6460	3.6459	-1.3040	26.09	0.12	-0.750			
0.3950	25279.83	3.6430	3.6432	-1.3268	26.09	0.12	-0.750			
0.3989	25531.20	3.6400	3.6401	-1.3541	26.08	0.11	-0.750			
0.4029	25786.59	3.6370	3.6368	-1.3856	26.08	0.11	-0.750			
0.4071	26056.92	3.6340	3.6342	-1.4056	26.07	0.10	-0.750			
0.4115	26337.24	3.6310	3.6307	-1.4494	26.06	0.09	-0.750			
0.4159	26620.11	3.6280	3.6281	-1.4955	26.06	0.09	-0.750			
0.4205	26913.48	3.6250	3.6251	-1.5320	26.05	0.08	-0.750			
0.4251	27209.50	3.6220	3.6218	-1.5679	26.05	0.08	-0.750			
0.4298	27509.85	3.6190	3.6193	-1.5869	26.04	0.07	-0.750			
0.4347	27821.95	3.6160	3.6158	-1.6122	26.04	0.07	-0.750	0.412	0.546	
0.4397	28140.91	3.6130	3.6128	-1.6604	26.03	0.06	-0.750			
0.4447	28460.00	3.6100	3.6102	-1.6832	26.03	0.06	-0.750			
0.4498	28784.73	3.6070	3.6070	-1.7217	26.02	0.05	-0.750			
0.4550	29117.32	3.6040	3.6040	-1.7563	26.01	0.04	-0.750			
0.4603	29459.27	3.6010	3.6008	-1.7760	26.00	0.03	-0.750			
0.4658	29811.11	3.5980	3.5981	-1.8278	26.00	0.03	-0.750			
0.4712	30157.62	3.5950	3.5950	-1.8721	25.99	0.02	-0.750			
0.4769	30522.60	3.5920	3.5921	-1.8895	25.99	0.02	-0.750			
0.4826	30889.12	3.5890	3.5888	-1.9239	25.99	0.02	-0.750			
0.4885	31261.20	3.5860	3.5859	-1.9720	25.99	0.02	-0.750			
0.4944	31639.05	3.5830	3.5833	-2.0359	25.99	0.02	-0.750			
0.5006	32040.48	3.5800	3.5802	-2.0703	25.99	0.02	-0.750			
0.5069	32441.12	3.5770	3.5769	-2.1063	25.99	0.02	-0.750			
0.5133	32853.04	3.5740	3.5742	-2.1398	25.98	0.01	-0.750			
0.5199	33274.24	3.5710	3.5710	-2.1746	25.97	0.00	-0.750			
0.5265	33698.03	3.5680	3.5680	-2.1922	25.97	0.00	-0.750			
0.5331	34115.48	3.5650	3.5649	-2.1815	25.97	0.00	-0.750			
0.5396	34537.06	3.5620	3.5620	-2.2013	25.97	0.00	-0.750			
0.5463	34961.92	3.5590	3.5590	-2.1909	25.97	0.00	-0.750			
0.5528	35380.13	3.5560	3.5557	-2.1851	25.97	0.00	-0.750			
0.5593	35796.75	3.5530	3.5531	-2.1918	25.97	0.00	-0.750			
0.5659	36220.66	3.5500	3.5499	-2.1763	25.97	0.00	-0.750			
0.5725	36637.80	3.5470	3.5469	-2.1657	25.97	0.00	-0.750			
0.5790	37055.55	3.5440	3.5441	-2.1490	25.97	0.00	-0.750			
0.5855	37470.73	3.5410	3.5407	-2.1289	25.97	0.00	-0.750			
0.5919	37878.83	3.5380	3.5381	-2.0969	25.97	0.00	-0.750			
0.5980	38274.49	3.5350	3.5351	-2.0644	25.98	0.01	-0.750			
0.6042	38671.31	3.5320	3.5319	-2.0440	25.99	0.02	-0.750			
0.6103	39060.18	3.5290	3.5289	-2.0185	26.00	0.03	-0.750			
0.6164	39450.15	3.5260	3.5258	-1.9906	26.01	0.04	-0.750			
0.6224	39835.47	3.5230	3.5232	-1.9603	26.01	0.04	-0.750			
0.6282	40207.31	3.5200	3.5201	-1.9071	26.02	0.05	-0.750			
0.6339	40567.12	3.5170	3.5171	-1.8561	26.03	0.06	-0.750			
0.6394	40921.32	3.5140	3.5140	-1.7916	26.04	0.07	-0.750			
0.6447	41262.44	3.5110	3.5110	-1.7454	26.05	0.08	-0.750			
0.6498	41585.38	3.5080	3.5077	-1.6954	26.06	0.09	-0.750			
0.6548	41907.52	3.5050	3.5050	-1.6549	26.07	0.10	-0.750			
0.6598	42224.29	3.5020	3.5020	-1.6045	26.08	0.11	-0.750			
0.6645	42530.50	3.4990	3.4991	-1.5604	26.10	0.13	-0.750			
0.6691	42823.37	3.4960	3.4962	-1.5036	26.11	0.14	-0.750			
0.6736	43112.58	3.4930	3.4929	-1.4629	26.13	0.16	-0.750			
0.6779	43387.22	3.4900	3.4899	-1.4092	26.15	0.18	-0.750			
0.6820	43648.36	3.4870	3.4872	-1.3621	26.17	0.20	-0.750			
0.6861	43909.25	3.4840	3.4839	-1.3290	26.18	0.21	-0.750			
0.6900	44159.08	3.4810	3.4810	-1.2899	26.20	0.23	-0.750			
0.6938	44401.10	3.4780	3.4781	-1.2476	26.21	0.24	-0.750			
0.6975	44640.96	3.4750	3.4749	-1.2135	26.22	0.25	-0.750			
0.7011	44868.23	3.4720	3.4720	-1.1692	26.24	0.27	-0.750			
0.7045	45088.88	3.4690	3.4690	-1.1289	26.25	0.28	-0.750			
0.7078	45298.98	3.4660	3.4660	-1.0982	26.26	0.29	-0.750			
0.7110	45507.20	3.4630	3.4629	-1.0610	26.28	0.31	-0.750			
0.7142	45708.11	3.4600	3.4599	-1.0242	26.29	0.32	-0.750			
0.7172	45901.79	3.4570	3.4570	-0.9956	26.30	0.33	-0.750			
0.7202	46089.91	3.4540	3.4541	-0.9617	26.31	0.34	-0.750			
0.7230	46269.03	3.4510	3.4510	-0.9326	26.33	0.36	-0.750			
0.7257	46444.52	3.4480	3.4479	-0.9067	26.34	0.37	-0.750			
0.7283	46612.42	3.4450	3.4451	-0.8828	26.35	0.38	-0.750			
0.7310	46782.13	3.4420	3.4420	-0.8765	26.36	0.39	-0.750			
0.7335	46946.55	3.4390	3.4391	-0.8717	26.37	0.40	-0.750			
0.7361	47112.32	3.4360	3.4360	-0.8661	26.38	0.41	-0.750			
0.7387	47277.34	3.4330	3.4330	-0.8698	26.39	0.42	-0.750			
0.7413	47443.77	3.4300	3.4300	-0.8751	26.41	0.44	-0.750			
0.7439	47612.23	3.4270	3.4272	-0.8886	26.42	0.45	-0.750			
0.7466	47782.31	3.4240	3.4240	-0.9068	26.43	0.46	-0.750			
0.7493	47957.82	3.4210	3.4210	-0.9197	26.43	0.46	-0.750			
0.7521	48137.24	3.4180	3.4180	-0.9312	26.44	0.47	-0.750			
0.7550	48319.66	3.4150	3.4149	-0.9459	26.45	0.48	-0.750			
0.7579	48502.41	3.4120	3.4120	-0.9495	26.46	0.49	-0.750			
0.7607	48687.37	3.4090	3.4090	-0.9494	26.47	0.50	-0.750			
0.7636	48870.38	3.4060	3.4060	-0.9365	26.48	0.51	-0.750			
0.7664	49049.52	3.4030	3.4030	-0.9206	26.49	0.52	-0.750			
0.7692	49227.44	3.4000	3.4001	-0.9049	26.50	0.53	-0.750			
0.7719	49400.51	3.3970	3.3969	-0.8827	26.50	0.53	-0.750			
0.7745	49566.73	3.3940	3.3940	-0.8571	26.51	0.54	-0.750			
0.7770	49729.44	3.3910	3.3910	-0.8291	26.51	0.54	-0.750			
0.7795	49887.50	3.3880	3.3880	-0.8009	26.52	0.55	-0.750			
0.7818	50037.89	3.3850	3.3852	-0.7730	26.52	0.55	-0.750			
0.7841	50182.52	3.3820	3.3820	-0.7446	26.53	0.56	-0.750			
0.7863	50321.75	3.3790	3.3790	-0.7193	26.54	0.57	-0.750			
0.7884	50455.71	3.3760	3.3760	-0.6947	26.54	0.57	-0.750			
0.7905	50588.82	3.3730	3.3730	-0.6737	26.55	0.58	-0.750			
0.7924	50715.97	3.3700	3.3699	-0.6486	26.55	0.58	-0.750			
0.7943	50838.37	3.3670	3.3672	-0.6285	26.56	0.59	-0.750			
0.7962	50956.17	3.3640	3.3640	-0.6030	26.57	0.60	-0.750			
0.7980	51068.87	3.3610	3.3610	-0.5810	26.58	0.61	-0.750			
0.7997	51178.11	3.3580	3.3580	-0.5624	26.59	0.62	-0.750			
0.8013	51283.48	3.3550	3.3550	-0.5435	26.59	0.62	-0.750			
0.8029	51386.82	3.3520	3.3519	-0.5256	26.60	0.63	-0.750			
0.8045	51485.61	3.3490	3.3490	-0.5084	26.61	0.64	-0.750			
0.8060	51580.94	3.3460	3.3460	-0.4915	26.62	0.65	-0.750			
0.8074	51674.86	3.3430	3.3430	-0.4753	26.62	0.65	-0.750			
0.8088	51763.49	3.3400	3.3399	-0.4600	26.63	0.66	-0.750			
0.8102	51849.60	3.3370	3.3370	-0.4440	26.64	0.67	-0.750			
0.8115	51933.72	3.3340	3.3340	-0.4312	26.64	0.67	-0.750			
0.8127	52014.97	3.3310	3.3309	-0.4174	26.65	0.68	-0.750			
0.8140	52093.61	3.3280	3.3281	-0.4039	26.66	0.69	-0.750			
0.8152	52170.06	3.3250	3.3250	-0.3929	26.66	0.69	-0.750			
0.8163	52245.02	3.3220	3.3219	-0.3808	26.67	0.70	-0.750			
0.8174	52316.32	3.3190	3.3190	-0.3672	26.67	0.70	-0.750			
0.8185	52385.16	3.3160	3.3160	-0.3564	26.68	0.71	-0.750			
0.8196	52452.19	3.3130	3.3130	-0.3461	26.68	0.71	-0.750			
0.8206	52517.17	3.3100	3.3100	-0.3377	26.69	0.72	-0.750			
0.8216	52581.05	3.3070	3.3069	-0.3295	26.70	0.73	-0.750			
0.8226	52643.41	3.3040	3.3040	-0.3211	26.70	0.73	-0.750			
0.8235	52704.86	3.3010	3.3010	-0.3143	26.71	0.74	-0.750			
0.8244	52764.64	3.2980	3.2981	-0.3060	26.71	0.74	-0.750			
0.8253	52822.21	3.2950	3.2949	-0.2988	26.72	0.75	-0.750			
0.8262	52878.43	3.2920	3.2921	-0.2912	26.73	0.76	-0.750			
0.8271	52933.46	3.2890	3.2890	-0.2848	26.73	0.76	-0.750			
0.8279	52987.81	3.2860	3.2860	-0.2785	26.74	0.77	-0.750			
0.8288	53040.48	3.2830	3.2831	-0.2737	26.74	0.77	-0.750			
0.8296	53092.35	3.2800	3.2800	-0.2684	26.75	0.78	-0.750			
0.8304	53143.50	3.2770	3.2770	-0.2633	26.75	0.78	-0.750			
0.8311	53193.46	3.2740	3.2739	-0.2577	26.76	0.79	-0.750			
0.8319	53242.04	3.2710	3.2712	-0.2523	26.76	0.79	-0.750			
0.8327	53290.22	3.2680	3.2680	-0.2483	26.77	0.80	-0.750			
0.8334	53337.42	3.2650	3.2650	-0.2437	26.77	0.80	-0.750			
0.8341	53383.97	3.2620	3.2620	-0.2392	26.78	0.81	-0.750			
0.8348	53428.80	3.2590	3.2590	-0.2343	26.78	0.81	-0.750			
0.8355	53473.47	3.2560	3.2561	-0.2314	26.79	0.82	-0.750			
0.8362	53517.80	3.2530	3.2530	-0.2276	26.79	0.82	-0.750			
0.8369	53561.12	3.2500	3.2499	-0.2237	26.79	0.82	-0.750			
0.8376	53603.71	3.2470	3.2470	-0.2197	26.80	0.83	-0.750			
0.8382	53645.34	3.2440	3.2441	-0.2162	26.80	0.83	-0.750			
0.8389	53686.49	3.2410	3.2410	-0.2130	26.81	0.84	-0.750			
0.8395	53727.05	3.2380	3.2379	-0.2095	26.81	0.84	-0.750			
0.8401	53766.64	3.2350	3.2350	-0.2068	26.81	0.84	-0.750			
0.8407	53805.84	3.2320	3.2320	-0.2038	26.82	0.85	-0.750			
0.8413	53845.18	3.2290	3.2290	-0.2017	26.82	0.85	-0.750			
0.8419	53883.62	3.2260	3.2260	-0.1987	26.83	0.86	-0.750			
0.8425	53921.48	3.2230	3.2230	-0.1965	26.83	0.86	-0.750			
0.8431	53958.75	3.2200	3.2200	-0.1942	26.83	0.86	-0.750			
0.8437	53995.91	3.2170	3.2170	-0.1918	26.84	0.87	-0.750			
0.8443	54032.50	3.2140	3.2140	-0.1894	26.84	0.87	-0.750			
0.8448	54068.60	3.2110	3.2110	-0.1861	26.85	0.88	-0.750			
0.8454	54104.21	3.2080	3.2081	-0.1837	26.85	0.88	-0.750			
0.8459	54139.18	3.2050	3.2049	-0.1817	26.86	0.89	-0.750			
0.8465	54173.79	3.2020	3.2020	-0.1789	26.86	0.89	-0.750			
0.8470	54207.49	3.1990	3.1990	-0.1769	26.87	0.90	-0.750			
0.8475	54241.11	3.1960	3.1960	-0.1746	26.88	0.91	-0.750			
0.8480	54274.49	3.1930	3.1932	-0.1734	26.88	0.91	-0.750			
0.8486	54307.64	3.1900	3.1900	-0.1720	26.89	0.92	-0.750			
0.8491	54340.72	3.1870	3.1870	-0.1705	26.89	0.92	-0.750			
0.8496	54373.23	3.1840	3.1840	-0.1689	26.90	0.93	-0.750			
0.8501	54405.55	3.1810	3.1810	-0.1670	26.90	0.93	-0.750			
0.8506	54437.45	3.1780	3.1780	-0.1653	26.91	0.94	-0.750			
0.8511	54469.08	3.1750	3.1750	-0.1634	26.91	0.94	-0.750			
0.8516	54500.40	3.1720	3.1720	-0.1618	26.92	0.95	-0.750			
0.8520	54531.05	3.1690	3.1691	-0.1598	26.92	0.95	-0.750			
0.8525	54561.59	3.1660	3.1659	-0.1583	26.93	0.96	-0.750			
0.8530	54591.85	3.1630	3.1630	-0.1566	26.93	0.96	-0.750			
0.8535	54621.61	3.1600	3.1600	-0.1550	26.94	0.97	-0.750			
0.8539	54651.29	3.1570	3.1571	-0.1539	26.94	0.97	-0.750			
0.8544	54680.72	3.1540	3.1540	-0.1526	26.94	0.97	-0.750			
0.8548	54709.83	3.1510	3.1510	-0.1515	26.95	0.98	-0.750			
0.8553	54738.77	3.1480	3.1480	-0.1504	26.95	0.98	-0.750			
0.8557	54767.47	3.1450	3.1450	-0.1493	26.95	0.98	-0.750			
0.8562	54796.15	3.1420	3.1420	-0.1478	26.96	0.99	-0.750			
0.8566	54824.56	3.1390	3.1390	-0.1466	26.96	0.99	-0.750			
0.8571	54852.64	3.1360	3.1360	-0.1450	26.97	1.00	-0.750			
0.8575	54880.38	3.1330	3.1330	-0.1433	26.97	1.00	-0.750			
0.8579	54907.56	3.1300	3.1300	-0.1424	26.98	1.01	-0.750			
0.8584	54934.64	3.1270	3.1271	-0.1410	26.99	1.02	-0.750			
0.8588	54961.63	3.1240	3.1239	-0.1397	26.99	1.02	-0.750			
0.8592	54988.34	3.1210	3.1210	-0.1386	27.00	1.03	-0.750			
0.8596	55014.99	3.1180	3.1180	-0.1375	27.00	1.03	-0.750			
0.8600	55041.23	3.1150	3.1150	-0.1364	27.01	1.04	-0.750			
0.8604	55067.27	3.1120	3.1121	-0.1356	27.01	1.04	-0.750			
0.8608	55093.21	3.1090	3.1089	-0.1345	27.02	1.05	-0.750			
0.8612	55118.71	3.1060	3.1060	-0.1332	27.03	1.06	-0.750			
0.8616	55144.21	3.1030	3.1030	-0.1325	27.03	1.06	-0.750			
0.8620	55169.65	3.1000	3.1001	-0.1319	27.04	1.07	-0.750			
0.8624	55194.96	3.0970	3.0970	-0.1308	27.04	1.07	-0.750			
0.8628	55220.03	3.0940	3.0939	-0.1298	27.05	1.08	-0.750			
0.8632	55244.86	3.0910	3.0911	-0.1288	27.05	1.08	-0.750			
0.8636	55269.46	3.0880	3.0880	-0.1276	27.06	1.09	-0.750			
0.8640	55293.87	3.0850	3.0850	-0.1265	27.06	1.09	-0.750			
0.8643	55318.00	3.0820	3.0819	-0.1257	27.07	1.10	-0.750			
0.8647	55341.86	3.0790	3.0791	-0.1245	27.08	1.11	-0.750			
0.8651	55365.68	3.0760	3.0759	-0.1240	27.08	1.11	-0.750			
0.8655	55389.55	3.0730	3.0729	-0.1233	27.09	1.12	-0.750			
0.8658	55413.15	3.0700	3.0700	-0.1225	27.09	1.12	-0.750			
0.8662	55436.63	3.0670	3.0671	-0.1219	27.10	1.13	-0.750			
0.8666	55459.96	3.0640	3.0641	-0.1211	27.10	1.13	-0.750			
0.8669	55483.27	3.0610	3.0610	-0.1204	27.11	1.14	-0.750			
0.8673	55506.23	3.0580	3.0580	-0.1193	27.11	1.14	-0.750			
0.8676	55528.97	3.0550	3.0549	-0.1186	27.12	1.15	-0.750			
0.8680	55551.58	3.0520	3.0520	-0.1178	27.12	1.15	-0.750			
0.8683	55574.13	3.0490	3.0491	-0.1173	27.13	1.16	-0.750			
0.8687	55596.61	3.0460	3.0459	-0.1168	27.13	1.16	-0.750			
0.8690	55619.01	3.0430	3.0431	-0.1162	27.14	1.17	-0.750			
0.8694	55641.20	3.0400	3.0399	-0.1156	27.14	1.17	-0.750			
0.8697	55663.42	3.0370	3.0371	-0.1147	27.15	1.18	-0.750			
0.8701	55685.57	3.0340	3.0340	-0.1142	27.15	1.18	-0.750			
0.8704	55707.37	3.0310	3.0309	-0.1133	27.16	1.19	-0.750			
0.8708	55729.01	3.0280	3.0280	-0.1123	27.16	1.19	-0.750			
0.8711	55750.54	3.0250	3.0249	-0.1111	27.17	1.20	-0.750			
0.8714	55771.83	3.0220	3.0220	-0.1100	27.17	1.20	-0.750			
0.8718	55792.76	3.0190	3.0190	-0.1093	27.18	1.21	-0.750			
0.8721	55813.60	3.0160	3.0161	-0.1083	27.18	1.21	-0.750			
0.8724	55834.26	3.0130	3.0132	-0.1079	27.19	1.22	-0.750			
0.8727	55854.78	3.0100	3.0099	-0.1073	27.19	1.22	-0.751			
0.8731	55875.35	3.0070	3.0070	-0.1069	27.20	1.23	-0.751			
0.8734	55895.67	3.0040	3.0040	-0.1076	27.20	1.23	-0.751			
0.8737	55916.37	3.0010	3.0010	-0.1080	27.21	1.24	-0.751			
