Ah_balance (normalized)	Ah_balance (mAh)	Voltage - fit (V)	Voltage -  interpolate (V)	dQ/dV (1/V)	Temperature (°C)	Temperature - diff (°C)	Current (C)	R_DC 0ms (mOhm)	R_DC 50ms (mOhm)	R_DC 50 ms PEC (mOhm)
0.0533	3408.51	4.1980	4.1978	0.7674	26.60	0.61	0.750			
0.0555	3555.12	4.1950	4.1950	0.7632	26.60	0.61	0.750			
0.0578	3701.96	4.1920	4.1920	0.7602	26.60	0.61	0.750			
0.0601	3846.59	4.1890	4.1891	0.7595	26.59	0.60	0.750			
0.0624	3993.16	4.1860	4.1860	0.7601	26.59	0.60	0.750			
0.0646	4137.01	4.1830	4.1829	0.7599	26.59	0.60	0.750			
0.0669	4282.42	4.1800	4.1801	0.7608	26.59	0.60	0.750			
0.0692	4431.84	4.1770	4.1770	0.7621	26.59	0.60	0.750			
0.0715	4576.82	4.1740	4.1740	0.7626	26.59	0.60	0.750			
0.0738	4724.77	4.1710	4.1711	0.7634	26.58	0.59	0.750			
0.0761	4869.08	4.1680	4.1681	0.7673	26.58	0.59	0.750			
0.0784	5016.01	4.1650	4.1649	0.7715	26.58	0.59	0.750			
0.0807	5165.13	4.1620	4.1620	0.7702	26.58	0.59	0.750			
0.0830	5315.13	4.1590	4.1590	0.7700	26.58	0.59	0.750			
0.0853	5462.28	4.1560	4.1561	0.7727	26.58	0.59	0.750			
0.0877	5610.41	4.1530	4.1530	0.7686	26.58	0.59	0.750			
0.0900	5757.89	4.1500	4.1498	0.7721	26.58	0.59	0.750			
0.0923	5904.55	4.1470	4.1471	0.7732	26.58	0.59	0.750			
0.0946	6054.78	4.1440	4.1440	0.7716	26.58	0.59	0.750			
0.0969	6203.80	4.1410	4.1410	0.7760	26.57	0.58	0.750			
0.0993	6353.23	4.1380	4.1380	0.7786	26.57	0.58	0.750			
0.1016	6501.34	4.1350	4.1350	0.7764	26.57	0.58	0.750			
0.1039	6650.89	4.1320	4.1320	0.7787	26.57	0.58	0.750			
0.1062	6799.48	4.1290	4.1291	0.7805	26.57	0.58	0.750			
0.1086	6949.41	4.1260	4.1260	0.7842	26.57	0.58	0.750			
0.1110	7101.75	4.1230	4.1230	0.7859	26.58	0.59	0.750			
0.1133	7250.63	4.1200	4.1200	0.7885	26.58	0.59	0.750			
0.1157	7403.25	4.1170	4.1167	0.7923	26.58	0.59	0.750			
0.1181	7557.18	4.1140	4.1140	0.7911	26.58	0.59	0.750			
0.1205	7710.84	4.1110	4.1110	0.7798	26.57	0.58	0.750			
0.1228	7858.96	4.1080	4.1081	0.7839	26.57	0.58	0.750			
0.1251	8008.16	4.1050	4.1051	0.7911	26.56	0.57	0.750			
0.1275	8158.39	4.1020	4.1018	0.7959	26.56	0.57	0.750			
0.1299	8311.45	4.0990	4.0990	0.7966	26.56	0.57	0.750			
0.1323	8467.19	4.0960	4.0962	0.8006	26.56	0.57	0.750			
0.1347	8622.50	4.0930	4.0930	0.8012	26.56	0.57	0.750			
0.1372	8779.09	4.0900	4.0900	0.8024	26.56	0.57	0.750			
0.1395	8927.80	4.0870	4.0870	0.7962	26.56	0.57	0.750			
0.1419	9079.80	4.0840	4.0840	0.8010	26.56	0.57	0.750			
0.1443	9236.37	4.0810	4.0810	0.7967	26.56	0.57	0.750			
0.1467	9389.10	4.0780	4.0781	0.8057	26.56	0.57	0.750			
0.1491	9544.32	4.0750	4.0751	0.8131	26.56	0.57	0.750			
0.1516	9700.43	4.0720	4.0719	0.8142	26.56	0.57	0.750			
0.1540	9856.42	4.0690	4.0690	0.8166	26.56	0.57	0.750			
0.1565	10014.72	4.0660	4.0661	0.8158	26.56	0.57	0.750			
0.1589	10172.06	4.0630	4.0631	0.8225	26.56	0.57	0.750			
0.1614	10331.82	4.0600	4.0600	0.8246	26.56	0.57	0.750			
0.1639	10486.95	4.0570	4.0571	0.8251	26.56	0.57	0.750			
0.1663	10645.23	4.0540	4.0540	0.8316	26.56	0.57	0.750			
0.1689	10807.35	4.0510	4.0510	0.8334	26.56	0.57	0.750			
0.1714	10968.95	4.0480	4.0479	0.8348	26.56	0.57	0.750			
0.1739	11129.76	4.0450	4.0451	0.8350	26.56	0.57	0.750			
0.1764	11289.65	4.0420	4.0421	0.8347	26.56	0.57	0.750			
0.1789	11450.24	4.0390	4.0390	0.8370	26.56	0.57	0.750			
0.1814	11611.42	4.0360	4.0359	0.8341	26.56	0.57	0.750			
0.1839	11769.99	4.0330	4.0331	0.8408	26.56	0.57	0.750			
0.1864	11932.44	4.0300	4.0300	0.8477	26.56	0.57	0.750			
0.1890	12095.75	4.0270	4.0271	0.8528	26.56	0.57	0.750			
0.1916	12259.82	4.0240	4.0241	0.8562	26.56	0.57	0.750			
0.1942	12426.28	4.0210	4.0210	0.8519	26.56	0.57	0.750			
0.1967	12590.08	4.0180	4.0180	0.8598	26.56	0.57	0.750			
0.1993	12755.35	4.0150	4.0151	0.8620	26.56	0.57	0.750			
0.2019	12919.46	4.0120	4.0121	0.8631	26.56	0.57	0.750			
0.2045	13085.99	4.0090	4.0091	0.8691	26.56	0.57	0.750			
0.2071	13253.90	4.0060	4.0060	0.8705	26.56	0.57	0.750			
0.2097	13422.33	4.0030	4.0030	0.8716	26.56	0.57	0.750			
0.2123	13589.96	4.0000	4.0001	0.8709	26.56	0.57	0.750			
0.2150	13757.28	3.9970	3.9969	0.8769	26.56	0.57	0.750			
0.2176	13926.00	3.9940	3.9939	0.8800	26.56	0.57	0.750			
0.2202	14095.59	3.9910	3.9910	0.8785	26.56	0.57	0.750			
0.2229	14263.88	3.9880	3.9881	0.8811	26.56	0.57	0.750			
0.2256	14435.76	3.9850	3.9850	0.8856	26.56	0.57	0.750			
0.2282	14604.99	3.9820	3.9818	0.8855	26.56	0.57	0.750			
0.2308	14774.31	3.9790	3.9790	0.8813	26.56	0.57	0.750			
0.2335	14943.05	3.9760	3.9760	0.8864	26.56	0.57	0.750			
0.2362	15113.61	3.9730	3.9730	0.8928	26.56	0.57	0.750			
0.2388	15286.20	3.9700	3.9700	0.8954	26.56	0.57	0.750			
0.2415	15457.66	3.9670	3.9670	0.8940	26.56	0.57	0.750			
0.2442	15630.03	3.9640	3.9641	0.8951	26.56	0.57	0.750			
0.2469	15801.80	3.9610	3.9610	0.8973	26.56	0.57	0.750			
0.2496	15974.77	3.9580	3.9579	0.8983	26.56	0.57	0.750			
0.2523	16145.47	3.9550	3.9549	0.8962	26.56	0.57	0.750			
0.2550	16318.88	3.9520	3.9520	0.8976	26.56	0.57	0.750			
0.2577	16492.03	3.9490	3.9490	0.9028	26.56	0.57	0.750			
0.2604	16665.16	3.9460	3.9460	0.9063	26.56	0.57	0.750			
0.2631	16839.15	3.9430	3.9431	0.9086	26.56	0.57	0.750			
0.2658	17013.12	3.9400	3.9399	0.9109	26.56	0.57	0.750			
0.2686	17189.77	3.9370	3.9370	0.9131	26.56	0.57	0.750			
0.2713	17365.77	3.9340	3.9340	0.9093	26.55	0.56	0.750			
0.2741	17539.90	3.9310	3.9310	0.9094	26.55	0.56	0.750			
0.2768	17714.59	3.9280	3.9280	0.9048	26.54	0.55	0.750			
0.2795	17887.20	3.9250	3.9249	0.9068	26.54	0.55	0.750			
0.2822	18060.89	3.9220	3.9220	0.9006	26.54	0.55	0.750			
0.2849	18232.53	3.9190	3.9191	0.9035	26.54	0.55	0.750			
0.2876	18406.52	3.9160	3.9160	0.9097	26.54	0.55	0.750			
0.2903	18580.69	3.9130	3.9128	0.9181	26.54	0.55	0.750			
0.2931	18757.94	3.9100	3.9100	0.9138	26.54	0.55	0.750			
0.2958	18934.26	3.9070	3.9070	0.9210	26.53	0.54	0.750			
0.2986	19111.88	3.9040	3.9041	0.9257	26.53	0.54	0.750			
0.3014	19291.74	3.9010	3.9011	0.9335	26.52	0.53	0.750			
0.3042	19468.56	3.8980	3.8979	0.9306	26.52	0.53	0.750			
0.3070	19648.63	3.8950	3.8950	0.9262	26.52	0.53	0.750			
0.3097	19823.00	3.8920	3.8922	0.9356	26.51	0.52	0.750			
0.3126	20004.37	3.8890	3.8890	0.9477	26.51	0.52	0.750			
0.3154	20186.20	3.8860	3.8856	0.9520	26.51	0.52	0.750			
0.3183	20369.99	3.8830	3.8831	0.9567	26.51	0.52	0.750			
0.3212	20555.45	3.8800	3.8801	0.9681	26.50	0.51	0.750			
0.3242	20746.16	3.8770	3.8770	0.9781	26.50	0.51	0.750			
0.3271	20932.74	3.8740	3.8739	0.9741	26.49	0.50	0.750			
0.3300	21120.47	3.8710	3.8711	0.9752	26.49	0.50	0.750			
0.3329	21308.29	3.8680	3.8680	0.9843	26.48	0.49	0.750			
0.3359	21498.27	3.8650	3.8650	0.9872	26.47	0.48	0.750			
0.3388	21686.09	3.8620	3.8620	0.9914	26.46	0.47	0.750			
0.3419	21879.06	3.8590	3.8591	0.9961	26.46	0.47	0.750			
0.3449	22072.01	3.8560	3.8559	1.0035	26.45	0.46	0.750			
0.3479	22264.19	3.8530	3.8530	1.0069	26.44	0.45	0.750			
0.3509	22458.14	3.8500	3.8501	1.0123	26.44	0.45	0.750			
0.3539	22652.50	3.8470	3.8470	1.0171	26.43	0.44	0.750			
0.3570	22848.16	3.8440	3.8440	1.0255	26.42	0.43	0.750			
0.3601	23044.20	3.8410	3.8411	1.0290	26.41	0.42	0.750			
0.3632	23243.57	3.8380	3.8380	1.0429	26.41	0.42	0.750			
0.3664	23448.65	3.8350	3.8351	1.0398	26.40	0.41	0.750			
0.3695	23648.27	3.8320	3.8320	1.0407	26.39	0.40	0.750			
0.3726	23848.26	3.8290	3.8290	1.0394	26.38	0.39	0.750			
0.3757	24046.98	3.8260	3.8261	1.0361	26.38	0.39	0.750			
0.3788	24245.00	3.8230	3.8229	1.0312	26.37	0.38	0.750			
0.3819	24441.08	3.8200	3.8201	1.0369	26.36	0.37	0.750			
0.3850	24637.35	3.8170	3.8170	1.0464	26.35	0.36	0.750			
0.3881	24840.87	3.8140	3.8140	1.0660	26.35	0.36	0.750			
0.3914	25051.02	3.8110	3.8110	1.0595	26.34	0.35	0.750			
0.3946	25253.55	3.8080	3.8081	1.0773	26.32	0.33	0.750			
0.3979	25462.53	3.8050	3.8051	1.0875	26.31	0.32	0.750			
0.4011	25672.94	3.8020	3.8021	1.0895	26.30	0.31	0.750			
0.4044	25881.96	3.7990	3.7989	1.0813	26.29	0.30	0.750			
0.4076	26087.98	3.7960	3.7962	1.0914	26.28	0.29	0.750			
0.4109	26296.89	3.7930	3.7930	1.1004	26.27	0.28	0.750			
0.4142	26509.87	3.7900	3.7899	1.1155	26.26	0.27	0.750			
0.4175	26720.80	3.7870	3.7870	1.1184	26.26	0.27	0.750			
0.4209	26936.51	3.7840	3.7841	1.1482	26.25	0.26	0.750			
0.4244	27160.67	3.7810	3.7811	1.1756	26.24	0.25	0.750			
0.4280	27391.21	3.7780	3.7774	1.1959	26.23	0.24	0.750			
0.4315	27619.02	3.7750	3.7751	1.2174	26.22	0.23	0.750			
0.4352	27854.86	3.7720	3.7721	1.2568	26.21	0.22	0.750			
0.4391	28101.54	3.7690	3.7689	1.2804	26.19	0.20	0.750			
0.4430	28350.44	3.7660	3.7659	1.3082	26.18	0.19	0.750			
0.4469	28601.00	3.7630	3.7630	1.3295	26.17	0.18	0.750	0.308	0.416	
0.4510	28862.75	3.7600	3.7602	1.3506	26.17	0.18	0.750			
0.4551	29124.99	3.7570	3.7570	1.3900	26.15	0.16	0.750			
0.4592	29391.96	3.7540	3.7540	1.4098	26.14	0.15	0.750			
0.4635	29662.29	3.7510	3.7510	1.4343	26.13	0.14	0.750			
0.4679	29946.45	3.7480	3.7481	1.4661	26.11	0.12	0.750			
0.4723	30227.93	3.7450	3.7451	1.4921	26.10	0.11	0.750			
0.4769	30518.71	3.7420	3.7419	1.5220	26.09	0.10	0.750			
0.4814	30811.56	3.7390	3.7391	1.5539	26.08	0.09	0.750			
0.4861	31113.24	3.7360	3.7359	1.6000	26.07	0.08	0.750			
0.4910	31423.06	3.7330	3.7329	1.6541	26.06	0.07	0.750			
0.4960	31743.83	3.7300	3.7301	1.7043	26.05	0.06	0.750			
0.5012	32076.87	3.7270	3.7269	1.7672	26.03	0.04	0.750			
0.5066	32423.72	3.7240	3.7239	1.8029	26.02	0.03	0.750			
0.5121	32777.10	3.7210	3.7211	1.8524	26.00	0.01	0.750			
0.5177	33135.71	3.7180	3.7178	1.9029	25.98	-0.01	0.750			
0.5235	33506.49	3.7150	3.7151	1.9650	25.96	-0.03	0.750			
0.5295	33885.65	3.7120	3.7120	2.0223	25.95	-0.04	0.750			
0.5357	34285.79	3.7090	3.7090	2.0749	25.94	-0.05	0.750			
0.5420	34686.02	3.7060	3.7060	2.1363	25.93	-0.06	0.750			
0.5486	35109.26	3.7030	3.7029	2.1971	25.91	-0.08	0.750			
0.5552	35533.51	3.7000	3.7000	2.2520	25.89	-0.10	0.750			
0.5620	35969.70	3.6970	3.6971	2.3125	25.88	-0.11	0.750			
0.5691	36419.40	3.6940	3.6938	2.3691	25.86	-0.13	0.750			
0.5762	36876.22	3.6910	3.6911	2.4368	25.85	-0.14	0.750			
0.5837	37353.88	3.6880	3.6880	2.5292	25.83	-0.16	0.750			
0.5914	37852.22	3.6850	3.6849	2.6512	25.81	-0.18	0.750			
0.5995	38370.65	3.6820	3.6823	2.7441	25.80	-0.19	0.750			
0.6079	38908.39	3.6790	3.6790	2.8550	25.79	-0.20	0.750			
0.6166	39465.24	3.6760	3.6760	2.9299	25.78	-0.21	0.750			
0.6256	40036.97	3.6730	3.6730	3.0028	25.76	-0.23	0.750			
0.6347	40619.07	3.6700	3.6698	3.0449	25.75	-0.24	0.750			
0.6441	41224.58	3.6670	3.6670	2.9439	25.75	-0.24	0.750			
0.6529	41788.63	3.6640	3.6641	2.7592	25.74	-0.25	0.750			
0.6607	42285.97	3.6610	3.6609	2.4736	25.74	-0.25	0.750			
0.6675	42721.15	3.6580	3.6581	2.2053	25.74	-0.25	0.750			
0.6737	43119.12	3.6550	3.6549	1.9759	25.74	-0.25	0.750			
0.6792	43467.68	3.6520	3.6518	1.8138	25.74	-0.25	0.750			
0.6843	43796.17	3.6490	3.6488	1.6737	25.74	-0.25	0.750			
0.6890	44097.77	3.6460	3.6460	1.5433	25.74	-0.25	0.750			
0.6935	44385.18	3.6430	3.6432	1.4458	25.74	-0.25	0.750			
0.6976	44649.39	3.6400	3.6402	1.3527	25.74	-0.25	0.750			
0.7016	44902.10	3.6370	3.6368	1.2830	25.74	-0.25	0.750			
0.7052	45131.63	3.6340	3.6340	1.2288	25.74	-0.25	0.750			
0.7087	45353.92	3.6310	3.6310	1.1910	25.74	-0.25	0.750			
0.7122	45578.55	3.6280	3.6280	1.1918	25.75	-0.24	0.750			
0.7157	45806.15	3.6250	3.6249	1.1937	25.75	-0.24	0.750			
0.7193	46033.81	3.6220	3.6220	1.2055	25.75	-0.24	0.750			
0.7230	46270.97	3.6190	3.6191	1.2200	25.75	-0.24	0.750			
0.7268	46512.44	3.6160	3.6158	1.2152	25.75	-0.24	0.750			
0.7304	46746.81	3.6130	3.6131	1.2017	25.75	-0.24	0.750			
0.7340	46976.74	3.6100	3.6101	1.1846	25.75	-0.24	0.750			
0.7375	47200.34	3.6070	3.6071	1.1681	25.76	-0.23	0.750			
0.7410	47421.79	3.6040	3.6039	1.1337	25.76	-0.23	0.750			
0.7443	47636.82	3.6010	3.6010	1.1446	25.76	-0.23	0.750			
0.7477	47854.21	3.5980	3.5980	1.1499	25.76	-0.23	0.750			
0.7512	48073.86	3.5950	3.5951	1.1713	25.76	-0.23	0.750			
0.7547	48300.70	3.5920	3.5922	1.1775	25.76	-0.23	0.750			
0.7582	48524.91	3.5890	3.5891	1.2062	25.76	-0.23	0.750			
0.7618	48757.88	3.5860	3.5861	1.2457	25.76	-0.23	0.750			
0.7656	48999.39	3.5830	3.5825	1.2844	25.76	-0.23	0.750			
0.7695	49249.66	3.5800	3.5800	1.3155	25.76	-0.23	0.750			
0.7736	49508.00	3.5770	3.5771	1.3600	25.75	-0.24	0.750			
0.7777	49771.26	3.5740	3.5740	1.4097	25.75	-0.24	0.750			
0.7820	50046.14	3.5710	3.5711	1.4520	25.75	-0.24	0.750			
0.7864	50332.67	3.5680	3.5679	1.4939	25.75	-0.24	0.750			
0.7910	50621.76	3.5650	3.5648	1.5398	25.75	-0.24	0.750			
0.7957	50922.75	3.5620	3.5622	1.5809	25.75	-0.24	0.750			
0.8005	51232.96	3.5590	3.5593	1.6142	25.75	-0.24	0.750			
0.8055	51549.94	3.5560	3.5559	1.6251	25.75	-0.24	0.750			
0.8104	51865.17	3.5530	3.5528	1.6425	25.75	-0.24	0.750			
0.8153	52181.36	3.5500	3.5498	1.6618	25.75	-0.24	0.750			
0.8204	52505.48	3.5470	3.5469	1.6907	25.75	-0.24	0.750			
0.8254	52828.53	3.5440	3.5441	1.6734	25.75	-0.24	0.750			
0.8305	53149.06	3.5410	3.5410	1.6870	25.75	-0.24	0.750			
0.8355	53473.86	3.5380	3.5380	1.7499	25.76	-0.23	0.750			
0.8409	53818.95	3.5350	3.5347	1.7534	25.76	-0.23	0.750			
0.8464	54168.20	3.5320	3.5319	1.7026	25.77	-0.22	0.750			
0.8517	54509.02	3.5290	3.5290	1.5172	25.79	-0.20	0.750			
0.8565	54818.62	3.5260	3.5265	1.3279	25.81	-0.18	0.750			
0.8603	55056.76	3.5230	3.5235	1.0566	25.82	-0.17	0.750			
0.8628	55217.66	3.5200	3.5197	0.8153	25.84	-0.15	0.750			
0.8643	55316.49	3.5170	3.5168	0.5673	25.84	-0.15	0.750			
0.8655	55394.69	3.5140	3.5136	0.4567	25.85	-0.14	0.750			
0.8666	55462.50	3.5110	3.5109	0.3802	25.86	-0.13	0.750			
0.8676	55528.93	3.5080	3.5080	0.3516	25.86	-0.13	0.750			
0.8686	55590.54	3.5050	3.5050	0.3252	25.86	-0.13	0.750			
0.8695	55650.76	3.5020	3.5020	0.3116	25.87	-0.12	0.750			
0.8705	55708.96	3.4990	3.4990	0.3000	25.87	-0.12	0.750			
0.8713	55765.43	3.4960	3.4961	0.2908	25.88	-0.11	0.750			
0.8722	55819.77	3.4930	3.4930	0.2830	25.88	-0.11	0.750			
0.8730	55872.93	3.4900	3.4900	0.2755	25.89	-0.10	0.750			
0.8738	55924.90	3.4870	3.4870	0.2692	25.89	-0.10	0.750			
0.8746	55976.36	3.4840	3.4839	0.2638	25.89	-0.10	0.750			
0.8754	56026.10	3.4810	3.4811	0.2557	25.90	-0.09	0.750			
0.8762	56075.16	3.4780	3.4781	0.2515	25.90	-0.09	0.750			
0.8769	56122.54	3.4750	3.4750	0.2462	25.90	-0.09	0.750			
0.8776	56168.85	3.4720	3.4720	0.2406	25.91	-0.08	0.750			
0.8783	56214.00	3.4690	3.4690	0.2352	25.91	-0.08	0.750			
0.8790	56258.80	3.4660	3.4661	0.2312	25.92	-0.07	0.750			
0.8797	56303.01	3.4630	3.4630	0.2270	25.92	-0.07	0.750			
0.8804	56346.62	3.4600	3.4600	0.2226	25.93	-0.06	0.750			
0.8811	56389.41	3.4570	3.4570	0.2180	25.93	-0.06	0.750			
0.8817	56430.30	3.4540	3.4540	0.2126	25.93	-0.06	0.750			
0.8824	56470.66	3.4510	3.4511	0.2080	25.94	-0.05	0.750			
0.8830	56510.43	3.4480	3.4479	0.2027	25.94	-0.05	0.750			
0.8836	56548.82	3.4450	3.4450	0.1972	25.95	-0.04	0.750			
0.8842	56586.15	3.4420	3.4420	0.1920	25.95	-0.04	0.750			
0.8847	56622.31	3.4390	3.4392	0.1875	25.95	-0.04	0.750			
0.8853	56657.78	3.4360	3.4359	0.1827	25.96	-0.03	0.750			
0.8858	56692.51	3.4330	3.4329	0.1774	25.96	-0.03	0.750			
0.8863	56725.99	3.4300	3.4300	0.1718	25.96	-0.03	0.750			
0.8869	56758.70	3.4270	3.4271	0.1664	25.97	-0.02	0.750			
0.8874	56790.61	3.4240	3.4240	0.1615	25.97	-0.02	0.750			
0.8878	56820.94	3.4210	3.4209	0.1549	25.97	-0.02	0.750			
0.8883	56849.81	3.4180	3.4180	0.1492	25.98	-0.01	0.750			
0.8887	56877.64	3.4150	3.4150	0.1427	25.98	-0.01	0.750			
0.8891	56904.53	3.4120	3.4120	0.1374	25.98	-0.01	0.750			
0.8895	56930.63	3.4090	3.4089	0.1314	25.98	-0.01	0.750			
0.8899	56955.35	3.4060	3.4061	0.1254	25.99	-0.00	0.750			
0.8903	56979.21	3.4030	3.4030	0.1189	25.99	-0.00	0.750			
0.8906	57001.36	3.4000	3.4000	0.1118	25.99	0.00	0.750			
0.8910	57023.63	3.3970	3.3968	0.1026	25.99	0.00	0.750			
0.8913	57042.65	3.3940	3.3939	0.0938	25.99	0.00	0.750			
0.8916	57059.66	3.3910	3.3910	0.0835	26.00	0.01	0.750			
0.8918	57075.56	3.3880	3.3883	0.0743	26.00	0.01	0.750			
0.8920	57088.74	3.3850	3.3855	0.0631	26.00	0.01	0.750			
0.8922	57100.82	3.3820	3.3824	0.0519	26.00	0.01	0.750			
0.8923	57109.60	3.3790	3.3800	0.0396	26.00	0.01	0.750			
0.8924	57116.01	3.3760	3.3776	0.0273	26.00	0.01	0.750			
0.8925	57120.07	3.3730	3.3753	0.0150	26.00	0.01	0.750			
