Ah_balance (normalized)	Ah_balance (mAh)	Voltage - fit (V)	Voltage -  interpolate (V)	dQ/dV (1/V)	Temperature (°C)	Temperature - diff (°C)	Current (C)	R_DC 0ms (mOhm)	R_DC 50ms (mOhm)	R_DC 50 ms PEC (mOhm)
0.0500	3200.28	4.1980	4.1979	0.7909	26.30	0.33	0.750			
0.0523	3348.33	4.1950	4.1951	0.7726	26.30	0.33	0.750			
0.0547	3497.77	4.1920	4.1919	0.7703	26.30	0.33	0.750			
0.0569	3643.88	4.1890	4.1890	0.7707	26.29	0.32	0.750			
0.0592	3791.31	4.1860	4.1860	0.7743	26.29	0.32	0.750			
0.0616	3939.23	4.1830	4.1830	0.7740	26.29	0.32	0.750			
0.0639	4089.73	4.1800	4.1799	0.7755	26.29	0.32	0.750			
0.0663	4240.15	4.1770	4.1770	0.7750	26.30	0.33	0.750			
0.0686	4388.46	4.1740	4.1741	0.7737	26.30	0.33	0.750			
0.0709	4537.38	4.1710	4.1709	0.7763	26.30	0.33	0.750			
0.0732	4683.95	4.1680	4.1681	0.7762	26.31	0.34	0.750			
0.0755	4832.77	4.1650	4.1650	0.7728	26.31	0.34	0.750			
0.0778	4980.99	4.1620	4.1620	0.7808	26.31	0.34	0.750			
0.0802	5132.64	4.1590	4.1590	0.7761	26.31	0.34	0.750			
0.0825	5280.32	4.1560	4.1561	0.7765	26.31	0.34	0.750			
0.0848	5428.72	4.1530	4.1530	0.7820	26.31	0.34	0.750			
0.0872	5578.98	4.1500	4.1496	0.7879	26.31	0.34	0.750			
0.0895	5730.76	4.1470	4.1471	0.7886	26.31	0.34	0.750			
0.0920	5885.13	4.1440	4.1441	0.7913	26.31	0.34	0.750			
0.0943	6037.88	4.1410	4.1411	0.7892	26.31	0.34	0.750			
0.0967	6191.66	4.1380	4.1380	0.7916	26.31	0.34	0.750			
0.0990	6338.96	4.1350	4.1349	0.7869	26.31	0.34	0.750			
0.1014	6488.71	4.1320	4.1319	0.7923	26.31	0.34	0.750			
0.1038	6642.23	4.1290	4.1290	0.7919	26.31	0.34	0.750			
0.1062	6795.28	4.1260	4.1261	0.7956	26.31	0.34	0.750			
0.1086	6950.80	4.1230	4.1230	0.7984	26.31	0.34	0.750			
0.1110	7102.70	4.1200	4.1201	0.7958	26.31	0.34	0.750			
0.1134	7254.67	4.1170	4.1171	0.7975	26.31	0.34	0.750			
0.1157	7407.42	4.1140	4.1140	0.8018	26.31	0.34	0.750			
0.1181	7560.26	4.1110	4.1110	0.7923	26.31	0.34	0.750			
0.1205	7712.25	4.1080	4.1081	0.7984	26.32	0.35	0.750			
0.1229	7864.24	4.1050	4.1052	0.8038	26.32	0.35	0.750			
0.1253	8019.25	4.1020	4.1016	0.8090	26.32	0.35	0.750			
0.1278	8176.13	4.0990	4.0991	0.8091	26.32	0.35	0.750			
0.1302	8332.71	4.0960	4.0961	0.8117	26.33	0.36	0.750			
0.1327	8491.11	4.0930	4.0931	0.8181	26.33	0.36	0.750			
0.1351	8646.14	4.0900	4.0900	0.8151	26.34	0.37	0.750			
0.1375	8801.64	4.0870	4.0869	0.8194	26.34	0.37	0.750			
0.1400	8961.12	4.0840	4.0840	0.8199	26.34	0.37	0.750			
0.1425	9119.92	4.0810	4.0810	0.8270	26.34	0.37	0.750			
0.1450	9278.04	4.0780	4.0782	0.8345	26.34	0.37	0.750			
0.1475	9439.87	4.0750	4.0750	0.8347	26.34	0.37	0.750			
0.1500	9600.39	4.0720	4.0718	0.8286	26.34	0.37	0.750			
0.1525	9758.86	4.0690	4.0690	0.8298	26.34	0.37	0.750			
0.1550	9916.92	4.0660	4.0662	0.8300	26.34	0.37	0.750			
0.1574	10076.60	4.0630	4.0629	0.8351	26.34	0.37	0.750			
0.1599	10234.96	4.0600	4.0600	0.8370	26.34	0.37	0.750			
0.1624	10396.34	4.0570	4.0566	0.8431	26.34	0.37	0.750			
0.1650	10561.34	4.0540	4.0541	0.8516	26.34	0.37	0.750			
0.1676	10726.43	4.0510	4.0511	0.8531	26.34	0.37	0.750			
0.1702	10891.73	4.0480	4.0480	0.8512	26.35	0.38	0.750			
0.1727	11051.33	4.0450	4.0451	0.8553	26.35	0.38	0.750			
0.1753	11216.90	4.0420	4.0420	0.8578	26.35	0.38	0.750			
0.1779	11382.78	4.0390	4.0389	0.8562	26.35	0.38	0.750			
0.1804	11548.55	4.0360	4.0361	0.8582	26.35	0.38	0.750			
0.1830	11711.52	4.0330	4.0332	0.8622	26.35	0.38	0.750			
0.1856	11879.09	4.0300	4.0300	0.8696	26.35	0.38	0.750			
0.1882	12044.75	4.0270	4.0270	0.8689	26.35	0.38	0.750			
0.1908	12211.45	4.0240	4.0240	0.8647	26.35	0.38	0.750			
0.1934	12379.44	4.0210	4.0211	0.8773	26.35	0.38	0.750			
0.1961	12548.34	4.0180	4.0181	0.8777	26.36	0.39	0.750			
0.1987	12716.67	4.0150	4.0149	0.8796	26.36	0.39	0.750			
0.2013	12884.87	4.0120	4.0121	0.8790	26.36	0.39	0.750			
0.2040	13053.47	4.0090	4.0091	0.8817	26.36	0.39	0.750			
0.2066	13223.16	4.0060	4.0060	0.8878	26.36	0.39	0.750			
0.2093	13395.54	4.0030	4.0030	0.8942	26.36	0.39	0.750			
0.2120	13565.38	4.0000	3.9999	0.8913	26.36	0.39	0.750			
0.2147	13738.98	3.9970	3.9970	0.8926	26.36	0.39	0.750			
0.2173	13909.34	3.9940	3.9940	0.8954	26.36	0.39	0.750			
0.2200	14081.00	3.9910	3.9911	0.8996	26.35	0.38	0.750			
0.2227	14253.43	3.9880	3.9880	0.9025	26.35	0.38	0.750			
0.2254	14425.43	3.9850	3.9851	0.9052	26.35	0.38	0.750			
0.2282	14603.29	3.9820	3.9819	0.8987	26.36	0.39	0.750			
0.2309	14775.42	3.9790	3.9791	0.9102	26.36	0.39	0.750			
0.2336	14950.15	3.9760	3.9760	0.9151	26.36	0.39	0.750			
0.2363	15124.96	3.9730	3.9731	0.9127	26.37	0.40	0.750			
0.2391	15303.08	3.9700	3.9701	0.9117	26.37	0.40	0.750			
0.2418	15478.06	3.9670	3.9671	0.9126	26.37	0.40	0.750			
0.2446	15653.39	3.9640	3.9641	0.9146	26.37	0.40	0.750			
0.2474	15830.79	3.9610	3.9610	0.9191	26.37	0.40	0.750			
0.2500	16001.62	3.9580	3.9578	0.9158	26.37	0.40	0.750			
0.2528	16179.82	3.9550	3.9550	0.9142	26.37	0.40	0.750			
0.2556	16355.72	3.9520	3.9520	0.9268	26.37	0.40	0.750			
0.2583	16534.34	3.9490	3.9491	0.9336	26.38	0.41	0.750			
0.2612	16714.34	3.9460	3.9460	0.9357	26.38	0.41	0.750			
0.2640	16896.72	3.9430	3.9431	0.9353	26.38	0.41	0.750			
0.2668	17075.77	3.9400	3.9400	0.9404	26.38	0.41	0.750			
0.2696	17256.27	3.9370	3.9371	0.9435	26.38	0.41	0.750			
0.2725	17440.25	3.9340	3.9341	0.9481	26.38	0.41	0.750			
0.2753	17619.11	3.9310	3.9308	0.9443	26.38	0.41	0.750			
0.2782	17801.64	3.9280	3.9281	0.9430	26.38	0.41	0.750			
0.2810	17982.92	3.9250	3.9250	0.9451	26.38	0.41	0.750			
0.2838	18164.15	3.9220	3.9220	0.9498	26.38	0.41	0.750			
0.2867	18346.84	3.9190	3.9189	0.9480	26.38	0.41	0.750			
0.2895	18530.96	3.9160	3.9159	0.9456	26.38	0.41	0.750			
0.2924	18711.59	3.9130	3.9132	0.9514	26.38	0.41	0.750			
0.2952	18893.14	3.9100	3.9100	0.9556	26.38	0.41	0.750			
0.2981	19077.11	3.9070	3.9070	0.9587	26.38	0.41	0.750			
0.3010	19261.10	3.9040	3.9040	0.9619	26.38	0.41	0.750			
0.3038	19445.44	3.9010	3.9011	0.9581	26.38	0.41	0.750			
0.3067	19631.16	3.8980	3.8980	0.9652	26.37	0.40	0.750			
0.3096	19815.94	3.8950	3.8951	0.9702	26.37	0.40	0.750			
0.3125	20000.79	3.8920	3.8916	0.9713	26.37	0.40	0.750			
0.3154	20187.53	3.8890	3.8892	0.9734	26.37	0.40	0.750			
0.3184	20375.49	3.8860	3.8860	0.9846	26.37	0.40	0.750			
0.3214	20567.83	3.8830	3.8831	0.9909	26.37	0.40	0.750			
0.3243	20757.24	3.8800	3.8799	0.9865	26.37	0.40	0.750			
0.3273	20950.26	3.8770	3.8770	0.9819	26.37	0.40	0.750			
0.3303	21136.15	3.8740	3.8741	0.9934	26.37	0.40	0.750			
0.3332	21325.57	3.8710	3.8710	0.9997	26.36	0.39	0.750			
0.3362	21517.54	3.8680	3.8680	1.0031	26.36	0.39	0.750			
0.3392	21711.51	3.8650	3.8651	1.0085	26.36	0.39	0.750			
0.3423	21905.83	3.8620	3.8621	1.0288	26.35	0.38	0.750			
0.3454	22104.97	3.8590	3.8590	1.0405	26.35	0.38	0.750			
0.3486	22307.23	3.8560	3.8559	1.0394	26.34	0.37	0.750			
0.3517	22508.03	3.8530	3.8530	1.0401	26.34	0.37	0.750			
0.3548	22709.02	3.8500	3.8502	1.0574	26.33	0.36	0.750			
0.3580	22913.18	3.8470	3.8470	1.0688	26.32	0.35	0.750			
0.3612	23119.22	3.8440	3.8438	1.0773	26.31	0.34	0.750			
0.3644	23323.94	3.8410	3.8411	1.0852	26.31	0.34	0.750			
0.3677	23534.41	3.8380	3.8381	1.1050	26.30	0.33	0.750			
0.3711	23748.90	3.8350	3.8350	1.1222	26.30	0.33	0.750			
0.3745	23967.38	3.8320	3.8319	1.1341	26.29	0.32	0.750			
0.3779	24183.08	3.8290	3.8292	1.1517	26.28	0.31	0.750			
0.3814	24407.61	3.8260	3.8260	1.1647	26.27	0.30	0.750			
0.3849	24634.85	3.8230	3.8230	1.1730	26.27	0.30	0.750			
0.3885	24862.78	3.8200	3.8200	1.1598	26.26	0.29	0.750			
0.3919	25084.40	3.8170	3.8172	1.1688	26.25	0.28	0.750			
0.3955	25309.44	3.8140	3.8140	1.1693	26.24	0.27	0.750			
0.3990	25533.63	3.8110	3.8108	1.1720	26.23	0.26	0.750			
0.4024	25756.17	3.8080	3.8081	1.1813	26.22	0.25	0.750			
0.4060	25984.54	3.8050	3.8050	1.1951	26.21	0.24	0.750			
0.4096	26214.83	3.8020	3.8021	1.2079	26.20	0.23	0.750			
0.4133	26449.24	3.7990	3.7991	1.2055	26.19	0.22	0.750			
0.4169	26680.44	3.7960	3.7961	1.2173	26.18	0.21	0.750			
0.4206	26916.44	3.7930	3.7931	1.2284	26.16	0.19	0.750			
0.4243	27153.64	3.7900	3.7896	1.2288	26.15	0.18	0.750			
0.4279	27387.80	3.7870	3.7872	1.2390	26.14	0.17	0.750			
0.4317	27627.15	3.7840	3.7841	1.2548	26.13	0.16	0.750			
0.4355	27870.72	3.7810	3.7810	1.2642	26.12	0.15	0.750			
0.4393	28115.43	3.7780	3.7780	1.2917	26.12	0.15	0.750			
0.4431	28360.61	3.7750	3.7751	1.2877	26.11	0.14	0.750			
0.4470	28610.18	3.7720	3.7720	1.3071	26.10	0.13	0.750			
0.4510	28864.22	3.7690	3.7692	1.3165	26.09	0.12	0.750			
0.4548	29109.46	3.7660	3.7661	1.3509	26.07	0.10	0.750			
0.4589	29371.75	3.7630	3.7630	1.3783	26.06	0.09	0.750			
0.4631	29638.90	3.7600	3.7598	1.4271	26.05	0.08	0.750			
0.4675	29917.24	3.7570	3.7574	1.4561	26.03	0.06	0.750	0.312	0.389	
0.4720	30208.80	3.7540	3.7541	1.4805	26.02	0.05	0.750			
0.4765	30498.11	3.7510	3.7511	1.5119	26.00	0.03	0.750			
0.4810	30782.02	3.7480	3.7482	1.5235	25.99	0.02	0.750			
0.4856	31079.37	3.7450	3.7449	1.5507	25.98	0.01	0.750			
0.4903	31378.56	3.7420	3.7418	1.6037	25.96	-0.01	0.750			
0.4951	31687.80	3.7390	3.7393	1.6423	25.94	-0.03	0.750			
0.5002	32011.38	3.7360	3.7359	1.7014	25.93	-0.04	0.750			
0.5055	32350.27	3.7330	3.7331	1.7441	25.91	-0.06	0.750			
0.5108	32689.87	3.7300	3.7299	1.7887	25.89	-0.08	0.750			
0.5162	33035.35	3.7270	3.7272	1.8351	25.88	-0.09	0.750			
0.5218	33393.03	3.7240	3.7242	1.8767	25.87	-0.10	0.750			
0.5274	33755.53	3.7210	3.7209	1.9150	25.85	-0.12	0.750			
0.5333	34130.96	3.7180	3.7182	1.9638	25.83	-0.14	0.750			
0.5392	34508.53	3.7150	3.7151	2.0233	25.82	-0.15	0.750			
0.5454	34903.73	3.7120	3.7118	2.0851	25.80	-0.17	0.750			
0.5517	35308.10	3.7090	3.7091	2.1423	25.78	-0.19	0.750			
0.5582	35725.17	3.7060	3.7060	2.2058	25.76	-0.21	0.750			
0.5650	36160.01	3.7030	3.7028	2.2823	25.74	-0.23	0.750			
0.5720	36610.93	3.7000	3.6999	2.3415	25.73	-0.24	0.750			
0.5791	37063.68	3.6970	3.6971	2.3998	25.71	-0.26	0.750			
0.5865	37536.60	3.6940	3.6940	2.4733	25.68	-0.29	0.750			
0.5939	38012.75	3.6910	3.6909	2.5323	25.67	-0.30	0.750			
0.6016	38500.56	3.6880	3.6882	2.6254	25.66	-0.31	0.750			
0.6096	39013.16	3.6850	3.6849	2.7545	25.64	-0.33	0.750			
0.6181	39556.59	3.6820	3.6819	2.7942	25.62	-0.35	0.750			
0.6267	40109.12	3.6790	3.6791	2.9319	25.61	-0.36	0.750			
0.6357	40684.04	3.6760	3.6760	3.0161	25.60	-0.37	0.750			
0.6447	41263.42	3.6730	3.6732	3.0664	25.59	-0.38	0.750			
0.6541	41862.89	3.6700	3.6702	3.1622	25.58	-0.39	0.750			
0.6640	42493.28	3.6670	3.6670	3.2115	25.57	-0.40	0.750			
0.6737	43117.61	3.6640	3.6641	3.1692	25.57	-0.40	0.750			
0.6835	43742.90	3.6610	3.6611	3.0707	25.56	-0.41	0.750			
0.6924	44311.58	3.6580	3.6579	2.7932	25.57	-0.40	0.750			
0.7002	44812.22	3.6550	3.6552	2.4935	25.58	-0.39	0.750			
0.7072	45262.59	3.6520	3.6518	2.1979	25.58	-0.39	0.750			
0.7132	45641.94	3.6490	3.6487	2.0026	25.58	-0.39	0.750			
0.7185	45985.04	3.6460	3.6458	1.7961	25.59	-0.38	0.750			
0.7236	46307.83	3.6430	3.6430	1.6390	25.60	-0.37	0.750			
0.7283	46611.12	3.6400	3.6403	1.5257	25.60	-0.37	0.750			
0.7327	46895.69	3.6370	3.6372	1.4243	25.60	-0.37	0.750			
0.7369	47161.51	3.6340	3.6336	1.3384	25.60	-0.37	0.750			
0.7405	47391.37	3.6310	3.6310	1.2426	25.61	-0.36	0.750			
0.7440	47618.59	3.6280	3.6281	1.2201	25.61	-0.36	0.750			
0.7476	47847.05	3.6250	3.6251	1.2112	25.62	-0.35	0.750			
0.7512	48075.38	3.6220	3.6221	1.2059	25.62	-0.35	0.750			
0.7548	48304.77	3.6190	3.6191	1.2318	25.62	-0.35	0.750			
0.7585	48545.30	3.6160	3.6161	1.2401	25.63	-0.34	0.750			
0.7624	48791.73	3.6130	3.6124	1.2352	25.63	-0.34	0.750			
0.7661	49033.06	3.6100	3.6102	1.2284	25.63	-0.34	0.750			
0.7698	49268.23	3.6070	3.6072	1.2167	25.64	-0.33	0.750			
0.7735	49503.46	3.6040	3.6039	1.1970	25.64	-0.33	0.750			
0.7770	49729.02	3.6010	3.6010	1.1682	25.64	-0.33	0.750			
0.7803	49938.93	3.5980	3.5982	1.1418	25.64	-0.33	0.750			
0.7837	50156.16	3.5950	3.5952	1.1629	25.64	-0.33	0.750			
0.7872	50379.76	3.5920	3.5912	1.1722	25.64	-0.33	0.750			
0.7906	50600.28	3.5890	3.5892	1.1916	25.65	-0.32	0.750			
0.7942	50830.81	3.5860	3.5861	1.2251	25.65	-0.32	0.750			
0.7981	51076.29	3.5830	3.5831	1.2693	25.66	-0.31	0.750			
0.8019	51323.35	3.5800	3.5800	1.3200	25.66	-0.31	0.750			
0.8058	51571.40	3.5770	3.5770	1.3562	25.66	-0.31	0.750			
0.8100	51840.54	3.5740	3.5740	1.3915	25.66	-0.31	0.750			
0.8143	52115.75	3.5710	3.5711	1.4215	25.66	-0.31	0.750			
0.8186	52388.49	3.5680	3.5682	1.4473	25.67	-0.30	0.750			
0.8229	52665.71	3.5650	3.5654	1.4898	25.67	-0.30	0.750			
0.8275	52958.21	3.5620	3.5616	1.5060	25.67	-0.30	0.750			
0.8319	53244.77	3.5590	3.5586	1.5457	25.67	-0.30	0.750			
0.8367	53547.35	3.5560	3.5559	1.5762	25.67	-0.30	0.750			
0.8416	53861.86	3.5530	3.5531	1.6185	25.67	-0.30	0.750			
0.8464	54172.19	3.5500	3.5503	1.6037	25.68	-0.29	0.750			
0.8513	54483.79	3.5470	3.5465	1.6056	25.68	-0.29	0.750			
0.8561	54791.47	3.5440	3.5440	1.5974	25.69	-0.28	0.750			
0.8609	55095.51	3.5410	3.5412	1.6525	25.69	-0.28	0.750			
0.8657	55405.06	3.5380	3.5384	1.6903	25.70	-0.27	0.750			
0.8707	55727.60	3.5350	3.5357	1.7421	25.70	-0.27	0.750			
0.8764	56089.24	3.5320	3.5318	1.7655	25.71	-0.26	0.750			
0.8821	56453.09	3.5290	3.5287	1.7376	25.73	-0.24	0.750			
0.8875	56801.86	3.5260	3.5261	1.5427	25.74	-0.23	0.750			
0.8924	57111.17	3.5230	3.5236	1.3205	25.76	-0.21	0.750			
0.8960	57345.07	3.5200	3.5205	1.0566	25.78	-0.19	0.750			
0.8986	57511.49	3.5170	3.5169	0.7919	25.79	-0.18	0.750			
0.9001	57608.19	3.5140	3.5136	0.5756	25.79	-0.18	0.750			
0.9015	57696.11	3.5110	3.5106	0.4656	25.80	-0.17	0.750			
0.9026	57764.83	3.5080	3.5081	0.3910	25.81	-0.16	0.750			
0.9036	57833.42	3.5050	3.5050	0.3542	25.82	-0.15	0.750			
0.9046	57895.29	3.5020	3.5020	0.3284	25.82	-0.15	0.750			
0.9056	57955.38	3.4990	3.4990	0.3119	25.83	-0.14	0.750			
0.9064	58012.02	3.4960	3.4959	0.2978	25.83	-0.14	0.750			
0.9073	58067.90	3.4930	3.4929	0.2890	25.84	-0.13	0.750			
0.9081	58121.03	3.4900	3.4903	0.2823	25.84	-0.13	0.750			
0.9090	58175.32	3.4870	3.4870	0.2816	25.85	-0.12	0.750			
0.9098	58228.37	3.4840	3.4840	0.2771	25.85	-0.12	0.750			
0.9107	58282.01	3.4810	3.4811	0.2732	25.86	-0.11	0.750			
0.9115	58334.83	3.4780	3.4779	0.2670	25.87	-0.10	0.750			
0.9123	58386.80	3.4750	3.4743	0.2604	25.87	-0.10	0.750			
0.9131	58436.82	3.4720	3.4723	0.2526	25.88	-0.09	0.750			
0.9138	58483.35	3.4690	3.4690	0.2443	25.88	-0.09	0.750			
0.9145	58528.47	3.4660	3.4661	0.2370	25.89	-0.08	0.750			
0.9152	58573.48	3.4630	3.4628	0.2316	25.89	-0.08	0.750			
0.9159	58615.55	3.4600	3.4600	0.2261	25.90	-0.07	0.750			
0.9166	58659.67	3.4570	3.4571	0.2239	25.90	-0.07	0.750			
0.9172	58702.55	3.4540	3.4540	0.2210	25.91	-0.06	0.750			
0.9179	58745.35	3.4510	3.4510	0.2185	25.92	-0.05	0.750			
0.9185	58786.72	3.4480	3.4479	0.2140	25.92	-0.05	0.750			
0.9192	58826.76	3.4450	3.4450	0.2094	25.93	-0.04	0.750			
0.9198	58866.73	3.4420	3.4422	0.2061	25.93	-0.04	0.750			
0.9204	58905.95	3.4390	3.4389	0.2024	25.94	-0.03	0.750			
0.9210	58944.58	3.4360	3.4360	0.1972	25.94	-0.03	0.750			
0.9216	58982.31	3.4330	3.4330	0.1932	25.94	-0.03	0.750			
0.9222	59018.85	3.4300	3.4301	0.1884	25.95	-0.02	0.750			
0.9227	59054.56	3.4270	3.4270	0.1835	25.95	-0.02	0.750			
0.9233	59089.38	3.4240	3.4239	0.1789	25.96	-0.01	0.750			
0.9238	59122.95	3.4210	3.4210	0.1741	25.96	-0.01	0.750			
0.9243	59155.81	3.4180	3.4181	0.1698	25.97	-0.00	0.750			
0.9248	59188.01	3.4150	3.4149	0.1664	25.97	0.00	0.750			
0.9253	59220.10	3.4120	3.4119	0.1613	25.97	0.00	0.750			
0.9258	59250.56	3.4090	3.4090	0.1565	25.98	0.01	0.750			
0.9263	59280.33	3.4060	3.4060	0.1519	25.98	0.01	0.750			
0.9267	59309.03	3.4030	3.4031	0.1461	25.99	0.02	0.750			
0.9271	59336.55	3.4000	3.3999	0.1410	25.99	0.02	0.750			
0.9275	59362.95	3.3970	3.3969	0.1352	25.99	0.02	0.750			
0.9279	59388.57	3.3940	3.3941	0.1293	26.00	0.03	0.750			
0.9283	59412.70	3.3910	3.3910	0.1234	26.00	0.03	0.750			
0.9287	59436.54	3.3880	3.3879	0.1179	26.00	0.03	0.750			
0.9290	59458.48	3.3850	3.3850	0.1110	26.00	0.03	0.750			
0.9294	59479.14	3.3820	3.3823	0.1042	26.01	0.04	0.750			
0.9297	59499.50	3.3790	3.3789	0.0959	26.01	0.04	0.750			
0.9300	59517.05	3.3760	3.3761	0.0869	26.01	0.04	0.750			
0.9302	59533.23	3.3730	3.3733	0.0784	26.01	0.04	0.750			
0.9304	59547.36	3.3700	3.3701	0.0689	26.02	0.05	0.750			
0.9306	59560.53	3.3670	3.3673	0.0595	26.02	0.05	0.750			
0.9308	59570.93	3.3640	3.3647	0.0489	26.02	0.05	0.750			
0.9309	59579.29	3.3610	3.3620	0.0382	26.02	0.05	0.750			
0.9310	59585.61	3.3580	3.3594	0.0276	26.02	0.05	0.750			
