Ah_balance (normalized)	Ah_balance (mAh)	Voltage - fit (V)	Voltage -  interpolate (V)	dQ/dV (1/V)	Temperature (°C)	Temperature - diff (°C)	Current (C)	R_DC 0ms (mOhm)	R_DC 50ms (mOhm)	R_DC 50 ms PEC (mOhm)
0.0002	13.64	4.1610	4.1608	-0.1102	25.98	0.01	-0.750			
0.0006	38.89	4.1580	4.1579	-0.1529	25.98	0.01	-0.750			
0.0011	72.67	4.1550	4.1550	-0.1953	25.98	0.01	-0.750			
0.0018	114.78	4.1520	4.1520	-0.2352	25.98	0.01	-0.750			
0.0026	164.14	4.1490	4.1490	-0.2723	25.98	0.01	-0.750			
0.0035	221.21	4.1460	4.1460	-0.3083	25.98	0.01	-0.750			
0.0044	283.21	4.1430	4.1431	-0.3445	25.98	0.01	-0.750			
0.0055	353.24	4.1400	4.1400	-0.3777	25.97	0.00	-0.750			
0.0067	429.22	4.1370	4.1369	-0.4095	25.97	0.00	-0.750			
0.0080	511.15	4.1340	4.1340	-0.4411	25.97	0.00	-0.750			
0.0094	599.80	4.1310	4.1310	-0.4668	25.97	-0.00	-0.750			
0.0108	693.24	4.1280	4.1280	-0.4944	25.97	-0.00	-0.750			
0.0124	790.89	4.1250	4.1250	-0.5159	25.96	-0.01	-0.750			
0.0139	892.49	4.1220	4.1220	-0.5320	25.96	-0.01	-0.750			
0.0156	998.58	4.1190	4.1190	-0.5505	25.96	-0.01	-0.750			
0.0173	1104.99	4.1160	4.1160	-0.5645	25.96	-0.01	-0.750			
0.0190	1214.88	4.1130	4.1131	-0.5771	25.95	-0.02	-0.750			
0.0207	1327.09	4.1100	4.1101	-0.5912	25.95	-0.02	-0.750			
0.0225	1440.40	4.1070	4.1069	-0.6023	25.95	-0.02	-0.750			
0.0243	1557.54	4.1040	4.1040	-0.6179	25.94	-0.03	-0.750			
0.0262	1678.08	4.1010	4.1010	-0.6317	25.94	-0.03	-0.750			
0.0281	1801.17	4.0980	4.0980	-0.6374	25.93	-0.04	-0.750			
0.0301	1925.95	4.0950	4.0951	-0.6433	25.93	-0.04	-0.750			
0.0320	2050.84	4.0920	4.0919	-0.6485	25.92	-0.05	-0.750			
0.0340	2174.70	4.0890	4.0891	-0.6524	25.92	-0.05	-0.750			
0.0359	2300.18	4.0860	4.0860	-0.6564	25.92	-0.05	-0.750			
0.0379	2425.66	4.0830	4.0830	-0.6597	25.92	-0.05	-0.750			
0.0399	2553.27	4.0800	4.0799	-0.6736	25.93	-0.04	-0.750			
0.0420	2686.26	4.0770	4.0770	-0.6778	25.93	-0.04	-0.750			
0.0440	2816.24	4.0740	4.0739	-0.6799	25.93	-0.04	-0.750			
0.0461	2947.92	4.0710	4.0715	-0.6827	25.93	-0.04	-0.750			
0.0481	3079.13	4.0680	4.0680	-0.6836	25.93	-0.04	-0.750			
0.0501	3208.49	4.0650	4.0649	-0.6890	25.93	-0.04	-0.750			
0.0522	3340.45	4.0620	4.0621	-0.6926	25.93	-0.04	-0.750			
0.0543	3474.12	4.0590	4.0589	-0.6992	25.93	-0.04	-0.750			
0.0564	3609.00	4.0560	4.0559	-0.7056	25.93	-0.04	-0.750			
0.0585	3745.07	4.0530	4.0534	-0.7073	25.93	-0.04	-0.750			
0.0607	3882.08	4.0500	4.0500	-0.7105	25.93	-0.04	-0.750			
0.0628	4017.77	4.0470	4.0470	-0.7159	25.93	-0.04	-0.750			
0.0649	4155.79	4.0440	4.0440	-0.7168	25.92	-0.05	-0.750			
0.0671	4294.63	4.0410	4.0410	-0.7176	25.92	-0.05	-0.750			
0.0693	4432.69	4.0380	4.0379	-0.7151	25.92	-0.05	-0.750			
0.0714	4569.08	4.0350	4.0352	-0.7161	25.92	-0.05	-0.750			
0.0736	4707.25	4.0320	4.0319	-0.7161	25.92	-0.05	-0.750			
0.0757	4842.70	4.0290	4.0290	-0.7195	25.92	-0.05	-0.750			
0.0778	4981.20	4.0260	4.0260	-0.7199	25.93	-0.04	-0.750			
0.0800	5120.65	4.0230	4.0230	-0.7247	25.93	-0.04	-0.750			
0.0822	5260.19	4.0200	4.0198	-0.7259	25.93	-0.04	-0.750			
0.0844	5400.11	4.0170	4.0171	-0.7275	25.93	-0.04	-0.750			
0.0866	5539.23	4.0140	4.0139	-0.7272	25.93	-0.04	-0.750			
0.0887	5678.78	4.0110	4.0110	-0.7332	25.94	-0.03	-0.750			
0.0909	5818.11	4.0080	4.0080	-0.7300	25.94	-0.03	-0.750			
0.0931	5961.15	4.0050	4.0049	-0.7352	25.95	-0.02	-0.750			
0.0954	6102.91	4.0020	4.0020	-0.7368	25.95	-0.02	-0.750			
0.0976	6243.84	3.9990	3.9990	-0.7383	25.95	-0.02	-0.750			
0.0998	6385.36	3.9960	3.9959	-0.7402	25.96	-0.01	-0.750			
0.1020	6527.37	3.9930	3.9930	-0.7433	25.96	-0.01	-0.750			
0.1042	6669.26	3.9900	3.9900	-0.7405	25.96	-0.01	-0.750			
0.1065	6813.73	3.9870	3.9870	-0.7482	25.97	-0.00	-0.750			
0.1087	6957.35	3.9840	3.9841	-0.7494	25.97	0.00	-0.750			
0.1110	7100.86	3.9810	3.9808	-0.7499	25.97	0.00	-0.750			
0.1132	7246.41	3.9780	3.9780	-0.7481	25.97	0.00	-0.750			
0.1155	7389.66	3.9750	3.9750	-0.7471	25.98	0.01	-0.750			
0.1177	7534.30	3.9720	3.9720	-0.7481	25.98	0.01	-0.750			
0.1200	7677.23	3.9690	3.9691	-0.7514	25.98	0.01	-0.750			
0.1222	7818.86	3.9660	3.9658	-0.7509	25.98	0.01	-0.750			
0.1244	7962.84	3.9630	3.9630	-0.7573	25.98	0.01	-0.750			
0.1267	8108.74	3.9600	3.9601	-0.7593	25.98	0.01	-0.750			
0.1290	8255.65	3.9570	3.9570	-0.7642	25.99	0.02	-0.750			
0.1313	8405.01	3.9540	3.9539	-0.7699	25.99	0.02	-0.750			
0.1336	8551.61	3.9510	3.9512	-0.7705	25.99	0.02	-0.750			
0.1359	8698.21	3.9480	3.9480	-0.7756	25.99	0.02	-0.750			
0.1382	8847.87	3.9450	3.9450	-0.7785	26.00	0.03	-0.750			
0.1406	8998.59	3.9420	3.9420	-0.7811	26.00	0.03	-0.750			
0.1430	9150.11	3.9390	3.9390	-0.7858	26.01	0.04	-0.750			
0.1453	9300.54	3.9360	3.9360	-0.7849	26.01	0.04	-0.750			
0.1477	9450.85	3.9330	3.9330	-0.7861	26.01	0.04	-0.750			
0.1500	9600.05	3.9300	3.9300	-0.7929	26.02	0.05	-0.750			
0.1524	9753.28	3.9270	3.9270	-0.7867	26.02	0.05	-0.750			
0.1548	9905.81	3.9240	3.9239	-0.7901	26.02	0.05	-0.750			
0.1572	10058.12	3.9210	3.9210	-0.7930	26.03	0.06	-0.750			
0.1595	10210.28	3.9180	3.9179	-0.7896	26.03	0.06	-0.750			
0.1619	10360.07	3.9150	3.9149	-0.7907	26.04	0.07	-0.750			
0.1642	10511.45	3.9120	3.9120	-0.7923	26.04	0.07	-0.750			
0.1666	10662.25	3.9090	3.9090	-0.7925	26.04	0.07	-0.750			
0.1690	10817.73	3.9060	3.9059	-0.8035	26.05	0.08	-0.750			
0.1714	10971.98	3.9030	3.9031	-0.8038	26.05	0.08	-0.750			
0.1739	11127.45	3.9000	3.9001	-0.8028	26.05	0.08	-0.750			
0.1763	11282.72	3.8970	3.8969	-0.8083	26.06	0.09	-0.750			
0.1787	11437.53	3.8940	3.8940	-0.8062	26.06	0.09	-0.750			
0.1811	11591.31	3.8910	3.8910	-0.8078	26.07	0.10	-0.750			
0.1835	11745.90	3.8880	3.8882	-0.8091	26.07	0.10	-0.750			
0.1860	11901.04	3.8850	3.8850	-0.8114	26.07	0.10	-0.750			
0.1884	12058.69	3.8820	3.8819	-0.8142	26.08	0.11	-0.750			
0.1909	12216.62	3.8790	3.8789	-0.8133	26.08	0.11	-0.750			
0.1933	12373.52	3.8760	3.8760	-0.8115	26.09	0.12	-0.750			
0.1957	12527.99	3.8730	3.8732	-0.8108	26.09	0.12	-0.750			
0.1982	12682.05	3.8700	3.8699	-0.8098	26.10	0.13	-0.750			
0.2006	12837.39	3.8670	3.8670	-0.8149	26.10	0.13	-0.750			
0.2030	12993.15	3.8640	3.8640	-0.8149	26.11	0.14	-0.750			
0.2055	13150.99	3.8610	3.8610	-0.8165	26.12	0.15	-0.750			
0.2080	13311.90	3.8580	3.8581	-0.8148	26.13	0.16	-0.750			
0.2104	13466.56	3.8550	3.8550	-0.8162	26.13	0.16	-0.750			
0.2128	13620.86	3.8520	3.8520	-0.8160	26.13	0.16	-0.750			
0.2153	13777.68	3.8490	3.8490	-0.8209	26.14	0.17	-0.750			
0.2177	13935.98	3.8460	3.8459	-0.8188	26.14	0.17	-0.750			
0.2203	14096.28	3.8430	3.8430	-0.8225	26.14	0.17	-0.750			
0.2227	14254.60	3.8400	3.8400	-0.8199	26.14	0.17	-0.750			
0.2252	14413.09	3.8370	3.8370	-0.8220	26.15	0.18	-0.750			
0.2276	14567.82	3.8340	3.8339	-0.8138	26.16	0.19	-0.750			
0.2300	14722.31	3.8310	3.8310	-0.8111	26.16	0.19	-0.750			
0.2325	14878.43	3.8280	3.8280	-0.8117	26.17	0.20	-0.750			
0.2349	15035.07	3.8250	3.8249	-0.8124	26.17	0.20	-0.750			
0.2374	15191.46	3.8220	3.8220	-0.8136	26.18	0.21	-0.750			
0.2398	15347.59	3.8190	3.8190	-0.8098	26.18	0.21	-0.750			
0.2422	15502.13	3.8160	3.8160	-0.8076	26.18	0.21	-0.750			
0.2447	15658.44	3.8130	3.8129	-0.8071	26.19	0.22	-0.750			
0.2471	15812.90	3.8100	3.8100	-0.8032	26.19	0.22	-0.750			
0.2495	15966.21	3.8070	3.8070	-0.8025	26.20	0.23	-0.750			
0.2519	16120.15	3.8040	3.8040	-0.8013	26.20	0.23	-0.750			
0.2543	16273.41	3.8010	3.8010	-0.7947	26.20	0.23	-0.750			
0.2567	16426.49	3.7980	3.7980	-0.7960	26.21	0.24	-0.750			
0.2590	16579.04	3.7950	3.7951	-0.7922	26.21	0.24	-0.750			
0.2614	16731.32	3.7920	3.7919	-0.7914	26.21	0.24	-0.750			
0.2638	16882.84	3.7890	3.7890	-0.7902	26.22	0.25	-0.750			
0.2662	17034.55	3.7860	3.7860	-0.7852	26.22	0.25	-0.750			
0.2685	17185.55	3.7830	3.7830	-0.7829	26.23	0.26	-0.750			
0.2709	17336.38	3.7800	3.7801	-0.7776	26.23	0.26	-0.750			
0.2732	17484.16	3.7770	3.7769	-0.7713	26.23	0.26	-0.750			
0.2755	17631.82	3.7740	3.7740	-0.7678	26.24	0.27	-0.750			
0.2778	17776.89	3.7710	3.7710	-0.7648	26.24	0.27	-0.750			
0.2801	17923.77	3.7680	3.7680	-0.7620	26.24	0.27	-0.750			
0.2824	18070.98	3.7650	3.7650	-0.7645	26.25	0.28	-0.750			
0.2846	18217.57	3.7620	3.7620	-0.7618	26.25	0.28	-0.750			
0.2869	18363.02	3.7590	3.7591	-0.7642	26.26	0.29	-0.750			
0.2892	18509.58	3.7560	3.7560	-0.7652	26.26	0.29	-0.750			
0.2915	18656.35	3.7530	3.7530	-0.7655	26.26	0.29	-0.750			
0.2938	18803.16	3.7500	3.7499	-0.7691	26.27	0.30	-0.750			
0.2961	18951.16	3.7470	3.7473	-0.7751	26.27	0.30	-0.750			
0.2984	19099.90	3.7440	3.7440	-0.7768	26.27	0.30	-0.750			
0.3008	19249.77	3.7410	3.7410	-0.7878	26.28	0.31	-0.750			
0.3032	19401.96	3.7380	3.7380	-0.7905	26.28	0.31	-0.750			
0.3055	19552.90	3.7350	3.7350	-0.8017	26.29	0.32	-0.750			
0.3079	19707.49	3.7320	3.7321	-0.8130	26.29	0.32	-0.750			
0.3104	19864.58	3.7290	3.7290	-0.8207	26.29	0.32	-0.750			
0.3129	20023.10	3.7260	3.7260	-0.8332	26.29	0.32	-0.750			
0.3154	20184.69	3.7230	3.7230	-0.8434	26.30	0.33	-0.750			
0.3179	20346.64	3.7200	3.7200	-0.8543	26.30	0.33	-0.750			
0.3205	20513.04	3.7170	3.7170	-0.8710	26.30	0.33	-0.750			
0.3231	20678.21	3.7140	3.7140	-0.8887	26.30	0.33	-0.750			
0.3258	20850.86	3.7110	3.7110	-0.9050	26.30	0.33	-0.750			
0.3285	21026.71	3.7080	3.7079	-0.9273	26.31	0.34	-0.750			
0.3314	21206.58	3.7050	3.7049	-0.9439	26.31	0.34	-0.750			
0.3343	21392.05	3.7020	3.7021	-0.9603	26.31	0.34	-0.750			
0.3371	21577.02	3.6990	3.6990	-0.9789	26.30	0.33	-0.750			
0.3401	21766.82	3.6960	3.6960	-0.9945	26.30	0.33	-0.750			
0.3431	21957.69	3.6930	3.6930	-1.0059	26.29	0.32	-0.750			
0.3462	22153.95	3.6900	3.6902	-1.0318	26.29	0.32	-0.750			
0.3493	22353.19	3.6870	3.6870	-1.0498	26.29	0.32	-0.750			
0.3525	22557.15	3.6840	3.6840	-1.0695	26.29	0.32	-0.750			
0.3557	22764.58	3.6810	3.6810	-1.0847	26.29	0.32	-0.750			
0.3590	22973.38	3.6780	3.6781	-1.1082	26.29	0.32	-0.750			
0.3623	23187.43	3.6750	3.6750	-1.1328	26.28	0.31	-0.750			
0.3657	23407.20	3.6720	3.6719	-1.1544	26.28	0.31	-0.750			
0.3692	23629.34	3.6690	3.6689	-1.1813	26.27	0.30	-0.750			
0.3728	23859.79	3.6660	3.6661	-1.2031	26.27	0.30	-0.750			
0.3765	24093.58	3.6630	3.6630	-1.2258	26.27	0.30	-0.750			
0.3802	24331.57	3.6600	3.6599	-1.2529	26.26	0.29	-0.750			
0.3839	24572.00	3.6570	3.6573	-1.2723	26.26	0.29	-0.750			
0.3878	24820.03	3.6540	3.6539	-1.2966	26.26	0.29	-0.750			
0.3917	25071.05	3.6510	3.6510	-1.3254	26.25	0.28	-0.750			
0.3957	25326.91	3.6480	3.6480	-1.3587	26.25	0.28	-0.750			
0.3999	25592.98	3.6450	3.6449	-1.3892	26.24	0.27	-0.750			
0.4041	25861.36	3.6420	3.6419	-1.4140	26.24	0.27	-0.750			
0.4084	26135.61	3.6390	3.6392	-1.4479	26.23	0.26	-0.750			
0.4128	26419.41	3.6360	3.6359	-1.4764	26.22	0.25	-0.750			
0.4173	26705.71	3.6330	3.6329	-1.5159	26.22	0.25	-0.750			
0.4218	26998.37	3.6300	3.6302	-1.5405	26.21	0.24	-0.750			
0.4265	27297.16	3.6270	3.6271	-1.5747	26.20	0.23	-0.750			
0.4313	27601.39	3.6240	3.6239	-1.6068	26.19	0.22	-0.750			
0.4361	27912.19	3.6210	3.6208	-1.6254	26.19	0.22	-0.750			
0.4411	28231.55	3.6180	3.6180	-1.6643	26.19	0.22	-0.750	0.397	0.517	
0.4461	28552.89	3.6150	3.6149	-1.6930	26.19	0.22	-0.750			
0.4512	28876.70	3.6120	3.6119	-1.7176	26.18	0.21	-0.750			
0.4565	29213.44	3.6090	3.6091	-1.7363	26.17	0.20	-0.750			
0.4617	29547.76	3.6060	3.6058	-1.7762	26.16	0.19	-0.750			
0.4670	29888.53	3.6030	3.6031	-1.8207	26.16	0.19	-0.750			
0.4726	30246.51	3.6000	3.5998	-1.8605	26.15	0.18	-0.750			
0.4782	30602.74	3.5970	3.5971	-1.9007	26.14	0.17	-0.750			
0.4841	30979.75	3.5940	3.5940	-1.9337	26.14	0.17	-0.750			
0.4899	31355.84	3.5910	3.5910	-1.9802	26.13	0.16	-0.750			
0.4960	31743.68	3.5880	3.5881	-2.0173	26.13	0.16	-0.750			
0.5020	32127.63	3.5850	3.5852	-2.0502	26.12	0.15	-0.750			
0.5082	32523.51	3.5820	3.5821	-2.0757	26.11	0.14	-0.750			
0.5145	32929.22	3.5790	3.5791	-2.1105	26.11	0.14	-0.750			
0.5209	33335.71	3.5760	3.5761	-2.1447	26.11	0.14	-0.750			
0.5274	33755.35	3.5730	3.5728	-2.1829	26.10	0.13	-0.750			
0.5340	34174.28	3.5700	3.5701	-2.1814	26.10	0.13	-0.750			
0.5406	34598.48	3.5670	3.5670	-2.2048	26.09	0.12	-0.750			
0.5472	35021.39	3.5640	3.5640	-2.2202	26.09	0.12	-0.750			
0.5539	35451.04	3.5610	3.5609	-2.2080	26.09	0.12	-0.750			
0.5606	35876.12	3.5580	3.5581	-2.2265	26.09	0.12	-0.750			
0.5672	36299.30	3.5550	3.5550	-2.2220	26.09	0.12	-0.750			
0.5739	36730.47	3.5520	3.5518	-2.2217	26.09	0.12	-0.750			
0.5807	37161.84	3.5490	3.5491	-2.2106	26.09	0.12	-0.750			
0.5873	37584.17	3.5460	3.5460	-2.1903	26.09	0.12	-0.750			
0.5938	38005.24	3.5430	3.5430	-2.1784	26.08	0.11	-0.750			
0.6004	38423.99	3.5400	3.5400	-2.1554	26.08	0.11	-0.750			
0.6068	38833.45	3.5370	3.5371	-2.1229	26.08	0.11	-0.750			
0.6131	39239.47	3.5340	3.5339	-2.1020	26.08	0.11	-0.750			
0.6194	39643.24	3.5310	3.5310	-2.0576	26.09	0.12	-0.750			
0.6255	40034.50	3.5280	3.5280	-2.0320	26.09	0.12	-0.750			
0.6315	40419.02	3.5250	3.5250	-1.9793	26.10	0.13	-0.750			
0.6375	40800.28	3.5220	3.5220	-1.9338	26.10	0.13	-0.750			
0.6433	41171.06	3.5190	3.5190	-1.8904	26.11	0.14	-0.750			
0.6489	41528.69	3.5160	3.5157	-1.8390	26.11	0.14	-0.750			
0.6543	41876.54	3.5130	3.5132	-1.7835	26.12	0.15	-0.750			
0.6596	42217.16	3.5100	3.5100	-1.7349	26.12	0.15	-0.750			
0.6646	42536.96	3.5070	3.5069	-1.6721	26.13	0.16	-0.750			
0.6696	42853.88	3.5040	3.5040	-1.6185	26.15	0.18	-0.750			
0.6744	43161.48	3.5010	3.5010	-1.5710	26.16	0.19	-0.750			
0.6790	43458.69	3.4980	3.4980	-1.5221	26.17	0.20	-0.750			
0.6836	43747.30	3.4950	3.4954	-1.4832	26.18	0.21	-0.750			
0.6880	44030.62	3.4920	3.4919	-1.4332	26.19	0.22	-0.750			
0.6922	44301.13	3.4890	3.4889	-1.3873	26.20	0.23	-0.750			
0.6963	44562.65	3.4860	3.4863	-1.3502	26.21	0.24	-0.750			
0.7003	44820.28	3.4830	3.4828	-1.3068	26.23	0.26	-0.750			
0.7042	45065.80	3.4800	3.4799	-1.2573	26.24	0.27	-0.750			
0.7078	45300.63	3.4770	3.4774	-1.2085	26.26	0.29	-0.750			
0.7114	45530.33	3.4740	3.4739	-1.1833	26.27	0.30	-0.750			
0.7149	45754.11	3.4710	3.4709	-1.1391	26.29	0.32	-0.750			
0.7182	45964.37	3.4680	3.4679	-1.0944	26.30	0.33	-0.750			
0.7214	46170.48	3.4650	3.4653	-1.0526	26.31	0.34	-0.750			
0.7246	46373.79	3.4620	3.4618	-1.0283	26.32	0.35	-0.750			
0.7276	46566.02	3.4590	3.4590	-0.9932	26.33	0.36	-0.750			
0.7305	46750.49	3.4560	3.4559	-0.9583	26.34	0.37	-0.750			
0.7333	46933.02	3.4530	3.4531	-0.9341	26.35	0.38	-0.750			
0.7361	47108.92	3.4500	3.4500	-0.9139	26.36	0.39	-0.750			
0.7387	47279.37	3.4470	3.4470	-0.8920	26.37	0.40	-0.750			
0.7414	47448.88	3.4440	3.4439	-0.8805	26.38	0.41	-0.750			
0.7440	47613.98	3.4410	3.4409	-0.8651	26.38	0.41	-0.750			
0.7465	47777.44	3.4380	3.4381	-0.8685	26.39	0.42	-0.750			
0.7491	47943.51	3.4350	3.4350	-0.8788	26.40	0.43	-0.750			
0.7517	48111.69	3.4320	3.4319	-0.8873	26.41	0.44	-0.750			
0.7544	48281.63	3.4290	3.4290	-0.9036	26.42	0.45	-0.750			
0.7571	48456.02	3.4260	3.4259	-0.9225	26.43	0.46	-0.750			
0.7599	48635.92	3.4230	3.4230	-0.9411	26.44	0.47	-0.750			
0.7628	48819.29	3.4200	3.4200	-0.9625	26.45	0.48	-0.750			
0.7657	49006.05	3.4170	3.4169	-0.9701	26.46	0.49	-0.750			
0.7687	49195.49	3.4140	3.4140	-0.9780	26.46	0.49	-0.750			
0.7717	49386.80	3.4110	3.4111	-0.9727	26.47	0.50	-0.750			
0.7746	49575.33	3.4080	3.4080	-0.9662	26.48	0.51	-0.750			
0.7775	49761.56	3.4050	3.4050	-0.9498	26.49	0.52	-0.750			
0.7804	49944.04	3.4020	3.4019	-0.9232	26.49	0.52	-0.750			
0.7831	50118.75	3.3990	3.3992	-0.8970	26.50	0.53	-0.750			
0.7858	50288.19	3.3960	3.3960	-0.8734	26.51	0.54	-0.750			
0.7883	50453.19	3.3930	3.3930	-0.8508	26.52	0.55	-0.750			
0.7909	50615.08	3.3900	3.3898	-0.8217	26.52	0.55	-0.750			
0.7933	50768.77	3.3870	3.3870	-0.7892	26.53	0.56	-0.750			
0.7956	50920.36	3.3840	3.3842	-0.7643	26.54	0.57	-0.750			
0.7979	51064.60	3.3810	3.3809	-0.7368	26.54	0.57	-0.750			
0.8000	51202.12	3.3780	3.3779	-0.7055	26.55	0.58	-0.750			
0.8021	51333.35	3.3750	3.3750	-0.6788	26.55	0.58	-0.750			
0.8041	51459.60	3.3720	3.3722	-0.6536	26.56	0.59	-0.750			
0.8060	51585.78	3.3690	3.3689	-0.6338	26.56	0.59	-0.750			
0.8079	51704.48	3.3660	3.3659	-0.6093	26.57	0.60	-0.750			
0.8097	51818.36	3.3630	3.3630	-0.5864	26.57	0.60	-0.750			
0.8114	51928.74	3.3600	3.3600	-0.5634	26.58	0.61	-0.750			
0.8130	52035.11	3.3570	3.3570	-0.5437	26.58	0.61	-0.750			
0.8146	52137.26	3.3540	3.3540	-0.5220	26.59	0.62	-0.750			
0.8162	52234.86	3.3510	3.3510	-0.5058	26.59	0.62	-0.750			
0.8176	52329.56	3.3480	3.3480	-0.4913	26.60	0.63	-0.750			
0.8191	52421.84	3.3450	3.3450	-0.4789	26.60	0.63	-0.750			
0.8205	52512.54	3.3420	3.3419	-0.4633	26.61	0.64	-0.750			
0.8219	52600.95	3.3390	3.3390	-0.4490	26.61	0.64	-0.750			
0.8232	52686.28	3.3360	3.3361	-0.4329	26.62	0.65	-0.750			
0.8245	52768.45	3.3330	3.3330	-0.4169	26.62	0.65	-0.750			
0.8257	52846.26	3.3300	3.3300	-0.4002	26.63	0.66	-0.750			
0.8269	52920.61	3.3270	3.3270	-0.3830	26.63	0.66	-0.750			
0.8280	52992.71	3.3240	3.3240	-0.3703	26.64	0.67	-0.750			
0.8291	53062.86	3.3210	3.3210	-0.3591	26.64	0.67	-0.750			
0.8302	53130.19	3.3180	3.3180	-0.3497	26.65	0.68	-0.750			
0.8312	53196.19	3.3150	3.3150	-0.3397	26.65	0.68	-0.750			
0.8322	53260.23	3.3120	3.3119	-0.3309	26.65	0.68	-0.750			
0.8332	53323.08	3.3090	3.3090	-0.3221	26.66	0.69	-0.750			
0.8341	53384.43	3.3060	3.3059	-0.3140	26.66	0.69	-0.750			
0.8351	53443.53	3.3030	3.3030	-0.3060	26.67	0.70	-0.750			
0.8360	53501.18	3.3000	3.3000	-0.2975	26.67	0.70	-0.750			
0.8368	53557.28	3.2970	3.2970	-0.2893	26.68	0.71	-0.750			
0.8377	53612.38	3.2940	3.2940	-0.2835	26.68	0.71	-0.750			
0.8385	53666.22	3.2910	3.2910	-0.2760	26.69	0.72	-0.750			
0.8394	53718.72	3.2880	3.2880	-0.2702	26.69	0.72	-0.750			
0.8402	53769.72	3.2850	3.2850	-0.2633	26.70	0.73	-0.750			
0.8409	53818.92	3.2820	3.2821	-0.2568	26.70	0.73	-0.750			
0.8417	53868.11	3.2790	3.2789	-0.2520	26.71	0.74	-0.750			
0.8424	53915.90	3.2760	3.2760	-0.2466	26.71	0.74	-0.750			
0.8432	53962.34	3.2730	3.2730	-0.2417	26.71	0.74	-0.750			
0.8439	54008.66	3.2700	3.2701	-0.2374	26.72	0.75	-0.750			
0.8446	54053.87	3.2670	3.2670	-0.2338	26.72	0.75	-0.750			
0.8453	54098.05	3.2640	3.2639	-0.2288	26.73	0.76	-0.750			
0.8460	54141.44	3.2610	3.2610	-0.2252	26.73	0.76	-0.750			
0.8466	54184.07	3.2580	3.2579	-0.2210	26.73	0.76	-0.750			
0.8473	54226.45	3.2550	3.2550	-0.2186	26.74	0.77	-0.750			
0.8479	54268.08	3.2520	3.2520	-0.2151	26.74	0.77	-0.750			
0.8486	54308.92	3.2490	3.2490	-0.2108	26.75	0.78	-0.750			
0.8492	54349.24	3.2460	3.2460	-0.2080	26.75	0.78	-0.750			
0.8498	54388.79	3.2430	3.2429	-0.2037	26.76	0.79	-0.750			
0.8504	54427.53	3.2400	3.2401	-0.1999	26.76	0.79	-0.750			
0.8510	54465.45	3.2370	3.2370	-0.1973	26.77	0.80	-0.750			
0.8516	54502.83	3.2340	3.2341	-0.1947	26.77	0.80	-0.750			
0.8522	54539.71	3.2310	3.2309	-0.1918	26.77	0.80	-0.750			
0.8528	54576.35	3.2280	3.2280	-0.1898	26.78	0.81	-0.750			
0.8533	54612.62	3.2250	3.2250	-0.1881	26.78	0.81	-0.750			
0.8539	54648.58	3.2220	3.2220	-0.1853	26.79	0.82	-0.750			
0.8544	54684.32	3.2190	3.2189	-0.1836	26.79	0.82	-0.750			
0.8550	54719.28	3.2160	3.2160	-0.1806	26.80	0.83	-0.750			
0.8555	54753.41	3.2130	3.2131	-0.1788	26.80	0.83	-0.750			
0.8561	54787.49	3.2100	3.2100	-0.1765	26.80	0.83	-0.750			
0.8566	54821.27	3.2070	3.2069	-0.1741	26.81	0.84	-0.750			
0.8571	54854.48	3.2040	3.2040	-0.1719	26.81	0.84	-0.750			
0.8576	54887.11	3.2010	3.2010	-0.1701	26.81	0.84	-0.750			
0.8581	54919.57	3.1980	3.1980	-0.1691	26.82	0.85	-0.750			
0.8586	54951.98	3.1950	3.1950	-0.1670	26.82	0.85	-0.750			
0.8591	54983.86	3.1920	3.1918	-0.1652	26.83	0.86	-0.750			
0.8596	55015.14	3.1890	3.1890	-0.1635	26.83	0.86	-0.750			
0.8601	55046.82	3.1860	3.1861	-0.1618	26.84	0.87	-0.750			
0.8606	55077.98	3.1830	3.1829	-0.1600	26.84	0.87	-0.750			
0.8611	55108.26	3.1800	3.1799	-0.1582	26.85	0.88	-0.750			
0.8615	55138.16	3.1770	3.1771	-0.1564	26.85	0.88	-0.750			
0.8620	55167.85	3.1740	3.1740	-0.1546	26.86	0.89	-0.750			
0.8625	55197.43	3.1710	3.1709	-0.1536	26.86	0.89	-0.750			
0.8629	55226.92	3.1680	3.1680	-0.1527	26.87	0.90	-0.750			
0.8634	55256.04	3.1650	3.1650	-0.1509	26.87	0.90	-0.750			
0.8638	55285.18	3.1620	3.1621	-0.1501	26.88	0.91	-0.750			
0.8643	55313.83	3.1590	3.1590	-0.1483	26.88	0.91	-0.750			
0.8647	55341.97	3.1560	3.1560	-0.1470	26.89	0.92	-0.750			
0.8652	55370.04	3.1530	3.1530	-0.1457	26.89	0.92	-0.750			
0.8656	55398.05	3.1500	3.1500	-0.1440	26.90	0.93	-0.750			
0.8660	55425.55	3.1470	3.1469	-0.1424	26.90	0.93	-0.750			
0.8664	55452.62	3.1440	3.1441	-0.1414	26.91	0.94	-0.750			
0.8669	55479.62	3.1410	3.1410	-0.1406	26.91	0.94	-0.750			
0.8673	55506.49	3.1380	3.1379	-0.1393	26.92	0.95	-0.750			
0.8677	55533.14	3.1350	3.1350	-0.1383	26.92	0.95	-0.750			
0.8681	55559.63	3.1320	3.1320	-0.1365	26.93	0.96	-0.750			
0.8685	55585.66	3.1290	3.1291	-0.1360	26.93	0.96	-0.750			
0.8689	55611.78	3.1260	3.1261	-0.1353	26.94	0.97	-0.750			
0.8693	55637.65	3.1230	3.1229	-0.1341	26.94	0.97	-0.750			
0.8697	55663.19	3.1200	3.1198	-0.1322	26.95	0.98	-0.750			
0.8701	55688.43	3.1170	3.1171	-0.1309	26.95	0.98	-0.750			
0.8705	55713.40	3.1140	3.1141	-0.1308	26.95	0.98	-0.750			
0.8709	55738.43	3.1110	3.1111	-0.1300	26.96	0.99	-0.750			
0.8713	55763.44	3.1080	3.1079	-0.1291	26.96	0.99	-0.750			
0.8717	55787.72	3.1050	3.1048	-0.1278	26.97	1.00	-0.750			
0.8721	55812.35	3.1020	3.1021	-0.1267	26.98	1.01	-0.750			
0.8724	55836.76	3.0990	3.0990	-0.1260	26.98	1.01	-0.750			
0.8728	55861.09	3.0960	3.0960	-0.1258	26.99	1.02	-0.750			
0.8732	55885.12	3.0930	3.0929	-0.1245	26.99	1.02	-0.750			
0.8736	55908.64	3.0900	3.0900	-0.1227	27.00	1.03	-0.750			
0.8739	55931.97	3.0870	3.0869	-0.1223	27.00	1.03	-0.750			
0.8743	55955.37	3.0840	3.0841	-0.1218	27.01	1.04	-0.750			
0.8747	55978.76	3.0810	3.0810	-0.1211	27.01	1.04	-0.750			
0.8750	56001.97	3.0780	3.0779	-0.1205	27.02	1.05	-0.750			
0.8754	56025.11	3.0750	3.0751	-0.1196	27.02	1.05	-0.750			
0.8757	56047.98	3.0720	3.0720	-0.1188	27.03	1.06	-0.750			
0.8761	56070.75	3.0690	3.0690	-0.1179	27.03	1.06	-0.750			
0.8765	56093.58	3.0660	3.0660	-0.1173	27.04	1.07	-0.750			
0.8768	56115.85	3.0630	3.0631	-0.1166	27.04	1.07	-0.750			
0.8772	56137.90	3.0600	3.0600	-0.1155	27.05	1.08	-0.750			
0.8775	56160.05	3.0570	3.0570	-0.1149	27.05	1.08	-0.750			
0.8778	56182.02	3.0540	3.0539	-0.1143	27.05	1.08	-0.750			
0.8782	56203.94	3.0510	3.0510	-0.1135	27.06	1.09	-0.750			
0.8785	56225.74	3.0480	3.0480	-0.1128	27.06	1.09	-0.750			
0.8789	56247.20	3.0450	3.0450	-0.1127	27.07	1.10	-0.750			
0.8792	56268.72	3.0420	3.0420	-0.1122	27.07	1.10	-0.750			
0.8795	56290.38	3.0390	3.0390	-0.1112	27.08	1.11	-0.750			
0.8799	56311.67	3.0360	3.0359	-0.1105	27.08	1.11	-0.750			
0.8802	56332.87	3.0330	3.0331	-0.1096	27.09	1.12	-0.750			
0.8805	56354.02	3.0300	3.0301	-0.1089	27.09	1.12	-0.750			
0.8809	56374.68	3.0270	3.0270	-0.1085	27.10	1.13	-0.750			
0.8812	56395.44	3.0240	3.0240	-0.1077	27.10	1.13	-0.750			
0.8815	56416.23	3.0210	3.0209	-0.1062	27.10	1.13	-0.750			
0.8818	56436.36	3.0180	3.0180	-0.1048	27.11	1.14	-0.750			
0.8821	56456.42	3.0150	3.0151	-0.1036	27.11	1.14	-0.750			
0.8824	56476.59	3.0120	3.0122	-0.1026	27.12	1.15	-0.750			
0.8828	56496.12	3.0090	3.0090	-0.1008	27.12	1.15	-0.750			
0.8831	56515.47	3.0060	3.0059	-0.0983	27.12	1.15	-0.751			
0.8833	56534.10	3.0030	3.0029	-0.0959	27.13	1.16	-0.751			
