Ah_balance (normalized)	Ah_balance (mAh)	Voltage - fit (V)	Voltage -  interpolate (V)	dQ/dV (1/V)	Temperature (°C)	Temperature - diff (°C)	Current (C)	R_DC 0ms (mOhm)	R_DC 50ms (mOhm)	R_DC 50 ms PEC (mOhm)
0.0592	3788.46	4.1970	4.1970	0.7277	26.00	0.05	0.750			
0.0614	3931.13	4.1940	4.1939	0.7396	26.00	0.05	0.750			
0.0636	4071.98	4.1910	4.1911	0.7407	26.01	0.06	0.750			
0.0659	4214.60	4.1880	4.1881	0.7433	26.01	0.06	0.750			
0.0681	4357.73	4.1850	4.1851	0.7480	26.01	0.06	0.750			
0.0703	4502.06	4.1820	4.1820	0.7454	26.01	0.06	0.750			
0.0726	4644.81	4.1790	4.1790	0.7471	26.01	0.06	0.750			
0.0748	4788.28	4.1760	4.1761	0.7425	26.01	0.06	0.750			
0.0770	4931.20	4.1730	4.1729	0.7480	26.02	0.07	0.750			
0.0793	5072.43	4.1700	4.1700	0.7472	26.02	0.07	0.750			
0.0815	5217.16	4.1670	4.1668	0.7520	26.02	0.07	0.750			
0.0838	5361.66	4.1640	4.1641	0.7530	26.02	0.07	0.750			
0.0861	5509.17	4.1610	4.1610	0.7507	26.02	0.07	0.750			
0.0883	5653.50	4.1580	4.1581	0.7484	26.03	0.08	0.750			
0.0905	5795.10	4.1550	4.1550	0.7493	26.03	0.08	0.750			
0.0928	5937.84	4.1520	4.1520	0.7506	26.03	0.08	0.750			
0.0950	6081.43	4.1490	4.1490	0.7500	26.03	0.08	0.750			
0.0973	6225.64	4.1460	4.1460	0.7564	26.03	0.08	0.750			
0.0996	6373.10	4.1430	4.1431	0.7583	26.03	0.08	0.750			
0.1019	6519.35	4.1400	4.1400	0.7600	26.03	0.08	0.750			
0.1041	6664.72	4.1370	4.1370	0.7589	26.03	0.08	0.750			
0.1064	6809.49	4.1340	4.1339	0.7601	26.03	0.08	0.750			
0.1087	6956.58	4.1310	4.1310	0.7605	26.03	0.08	0.750			
0.1110	7103.26	4.1280	4.1280	0.7610	26.04	0.09	0.750			
0.1133	7248.93	4.1250	4.1250	0.7604	26.04	0.09	0.750			
0.1155	7395.13	4.1220	4.1221	0.7664	26.04	0.09	0.750			
0.1178	7540.73	4.1190	4.1189	0.7662	26.05	0.10	0.750			
0.1201	7688.50	4.1160	4.1160	0.7674	26.05	0.10	0.750			
0.1224	7834.83	4.1130	4.1130	0.7732	26.05	0.10	0.750			
0.1248	7985.63	4.1100	4.1101	0.7731	26.05	0.10	0.750			
0.1271	8134.73	4.1070	4.1069	0.7739	26.05	0.10	0.750			
0.1294	8282.26	4.1040	4.1041	0.7752	26.05	0.10	0.750			
0.1317	8430.62	4.1010	4.1010	0.7768	26.05	0.10	0.750			
0.1341	8580.37	4.0980	4.0980	0.7760	26.05	0.10	0.750			
0.1364	8729.85	4.0950	4.0950	0.7758	26.05	0.10	0.750			
0.1387	8877.68	4.0920	4.0921	0.7757	26.06	0.11	0.750			
0.1411	9028.05	4.0890	4.0889	0.7823	26.06	0.11	0.750			
0.1434	9176.91	4.0860	4.0860	0.7811	26.06	0.11	0.750			
0.1457	9326.71	4.0830	4.0829	0.7846	26.06	0.11	0.750			
0.1481	9477.89	4.0800	4.0801	0.7886	26.06	0.11	0.750			
0.1505	9630.12	4.0770	4.0770	0.7945	26.07	0.12	0.750			
0.1529	9783.31	4.0740	4.0740	0.7965	26.07	0.12	0.750			
0.1553	9936.01	4.0710	4.0710	0.7960	26.07	0.12	0.750			
0.1577	10089.64	4.0680	4.0680	0.7959	26.07	0.12	0.750			
0.1601	10245.64	4.0650	4.0650	0.7952	26.08	0.13	0.750			
0.1624	10396.24	4.0620	4.0620	0.7950	26.08	0.13	0.750			
0.1648	10547.47	4.0590	4.0591	0.7961	26.08	0.13	0.750			
0.1672	10699.02	4.0560	4.0561	0.8015	26.09	0.14	0.750			
0.1696	10853.25	4.0530	4.0528	0.8073	26.09	0.14	0.750			
0.1720	11009.46	4.0500	4.0500	0.8131	26.09	0.14	0.750			
0.1745	11167.49	4.0470	4.0471	0.8209	26.09	0.14	0.750			
0.1770	11326.70	4.0440	4.0440	0.8194	26.09	0.14	0.750			
0.1794	11484.36	4.0410	4.0410	0.8161	26.09	0.14	0.750			
0.1819	11639.89	4.0380	4.0380	0.8213	26.09	0.14	0.750			
0.1843	11797.84	4.0350	4.0350	0.8224	26.09	0.14	0.750			
0.1868	11956.50	4.0320	4.0319	0.8206	26.10	0.15	0.750			
0.1893	12113.44	4.0290	4.0291	0.8227	26.10	0.15	0.750			
0.1917	12271.60	4.0260	4.0261	0.8275	26.11	0.16	0.750			
0.1942	12431.47	4.0230	4.0228	0.8298	26.11	0.16	0.750			
0.1967	12590.06	4.0200	4.0200	0.8308	26.11	0.16	0.750			
0.1992	12748.67	4.0170	4.0170	0.8298	26.12	0.17	0.750			
0.2017	12909.62	4.0140	4.0141	0.8369	26.12	0.17	0.750			
0.2042	13069.22	4.0110	4.0110	0.8385	26.13	0.18	0.750			
0.2067	13230.61	4.0080	4.0076	0.8436	26.13	0.18	0.750			
0.2093	13393.65	4.0050	4.0051	0.8438	26.13	0.18	0.750			
0.2118	13557.24	4.0020	4.0020	0.8469	26.13	0.18	0.750			
0.2144	13721.24	3.9990	3.9990	0.8493	26.13	0.18	0.750			
0.2169	13883.47	3.9960	3.9960	0.8448	26.13	0.18	0.750			
0.2195	14045.84	3.9930	3.9930	0.8453	26.13	0.18	0.750			
0.2220	14208.13	3.9900	3.9900	0.8450	26.13	0.18	0.750			
0.2245	14370.30	3.9870	3.9870	0.8479	26.13	0.18	0.750			
0.2271	14533.39	3.9840	3.9840	0.8509	26.13	0.18	0.750			
0.2296	14695.96	3.9810	3.9810	0.8534	26.13	0.18	0.750			
0.2322	14860.27	3.9780	3.9780	0.8537	26.13	0.18	0.750			
0.2348	15026.44	3.9750	3.9750	0.8490	26.13	0.18	0.750			
0.2373	15189.61	3.9720	3.9720	0.8523	26.14	0.19	0.750			
0.2399	15352.09	3.9690	3.9691	0.8534	26.14	0.19	0.750			
0.2424	15515.10	3.9660	3.9660	0.8557	26.15	0.20	0.750			
0.2450	15679.72	3.9630	3.9631	0.8553	26.15	0.20	0.750			
0.2476	15844.62	3.9600	3.9601	0.8564	26.15	0.20	0.750			
0.2502	16010.31	3.9570	3.9570	0.8605	26.15	0.20	0.750			
0.2527	16175.81	3.9540	3.9540	0.8615	26.15	0.20	0.750			
0.2553	16339.72	3.9510	3.9510	0.8602	26.15	0.20	0.750			
0.2579	16505.36	3.9480	3.9480	0.8625	26.15	0.20	0.750			
0.2605	16671.26	3.9450	3.9450	0.8639	26.15	0.20	0.750			
0.2631	16838.05	3.9420	3.9420	0.8690	26.15	0.20	0.750			
0.2657	17004.27	3.9390	3.9391	0.8759	26.15	0.20	0.750			
0.2683	17173.19	3.9360	3.9359	0.8752	26.15	0.20	0.750			
0.2710	17341.47	3.9330	3.9330	0.8792	26.15	0.20	0.750			
0.2736	17509.95	3.9300	3.9300	0.8797	26.14	0.19	0.750			
0.2762	17679.10	3.9270	3.9270	0.8850	26.14	0.19	0.750			
0.2789	17850.16	3.9240	3.9240	0.8871	26.13	0.18	0.750			
0.2816	18020.45	3.9210	3.9206	0.8868	26.13	0.18	0.750			
0.2842	18190.37	3.9180	3.9181	0.8850	26.13	0.18	0.750			
0.2869	18362.02	3.9150	3.9150	0.8907	26.12	0.17	0.750			
0.2896	18531.77	3.9120	3.9120	0.8939	26.12	0.17	0.750			
0.2923	18704.38	3.9090	3.9090	0.8972	26.11	0.16	0.750			
0.2949	18874.86	3.9060	3.9061	0.8986	26.11	0.16	0.750			
0.2977	19049.71	3.9030	3.9030	0.8988	26.11	0.16	0.750			
0.3004	19223.08	3.9000	3.9000	0.9018	26.11	0.16	0.750			
0.3031	19395.91	3.8970	3.8970	0.9024	26.11	0.16	0.750			
0.3057	19567.88	3.8940	3.8939	0.9033	26.11	0.16	0.750			
0.3085	19741.31	3.8910	3.8910	0.9054	26.11	0.16	0.750			
0.3112	19915.69	3.8880	3.8880	0.9023	26.10	0.15	0.750			
0.3139	20087.98	3.8850	3.8851	0.9072	26.10	0.15	0.750			
0.3166	20263.67	3.8820	3.8821	0.9127	26.09	0.14	0.750			
0.3193	20437.91	3.8790	3.8787	0.9123	26.09	0.14	0.750			
0.3221	20613.75	3.8760	3.8761	0.9109	26.09	0.14	0.750			
0.3248	20788.83	3.8730	3.8730	0.9137	26.08	0.13	0.750			
0.3276	20966.07	3.8700	3.8700	0.9168	26.08	0.13	0.750			
0.3303	21139.96	3.8670	3.8670	0.9129	26.07	0.12	0.750			
0.3331	21315.80	3.8640	3.8640	0.9146	26.07	0.12	0.750			
0.3358	21491.75	3.8610	3.8610	0.9193	26.06	0.11	0.750			
0.3386	21668.79	3.8580	3.8580	0.9252	26.06	0.11	0.750			
0.3414	21847.46	3.8550	3.8550	0.9333	26.05	0.10	0.750			
0.3442	22027.06	3.8520	3.8519	0.9330	26.05	0.10	0.750			
0.3470	22208.58	3.8490	3.8491	0.9300	26.05	0.10	0.750			
0.3498	22386.51	3.8460	3.8460	0.9342	26.04	0.09	0.750			
0.3526	22565.54	3.8430	3.8431	0.9402	26.04	0.09	0.750			
0.3554	22744.26	3.8400	3.8400	0.9406	26.03	0.08	0.750			
0.3582	22925.03	3.8370	3.8371	0.9478	26.03	0.08	0.750			
0.3611	23107.84	3.8340	3.8340	0.9546	26.02	0.07	0.750			
0.3640	23293.31	3.8310	3.8310	0.9652	26.01	0.06	0.750			
0.3669	23480.84	3.8280	3.8281	0.9745	26.01	0.06	0.750			
0.3698	23666.70	3.8250	3.8249	0.9782	26.00	0.05	0.750			
0.3727	23854.91	3.8220	3.8220	0.9837	25.99	0.04	0.750			
0.3757	24044.19	3.8190	3.8190	0.9909	25.98	0.03	0.750			
0.3787	24234.42	3.8160	3.8160	1.0011	25.98	0.03	0.750			
0.3817	24428.43	3.8130	3.8127	1.0099	25.97	0.02	0.750			
0.3847	24622.99	3.8100	3.8101	1.0098	25.97	0.02	0.750			
0.3877	24815.83	3.8070	3.8071	1.0223	25.96	0.01	0.750			
0.3908	25012.04	3.8040	3.8041	1.0357	25.96	0.01	0.750			
0.3939	25211.69	3.8010	3.8007	1.0464	25.95	0.00	0.750			
0.3971	25413.23	3.7980	3.7981	1.0662	25.95	-0.00	0.750			
0.4003	25619.40	3.7950	3.7951	1.0876	25.94	-0.01	0.750			
0.4036	25832.30	3.7920	3.7921	1.1155	25.93	-0.02	0.750			
0.4070	26050.16	3.7890	3.7888	1.1170	25.93	-0.02	0.750			
0.4104	26265.92	3.7860	3.7860	1.1325	25.92	-0.03	0.750			
0.4138	26484.77	3.7830	3.7831	1.1471	25.92	-0.03	0.750			
0.4172	26703.00	3.7800	3.7800	1.1817	25.91	-0.04	0.750			
0.4208	26931.93	3.7770	3.7770	1.1955	25.91	-0.04	0.750			
0.4244	27161.05	3.7740	3.7738	1.2303	25.90	-0.05	0.750	0.313	0.459	
0.4281	27401.20	3.7710	3.7713	1.2691	25.90	-0.05	0.750			
0.4321	27653.16	3.7680	3.7676	1.2994	25.89	-0.06	0.750			
0.4360	27903.09	3.7650	3.7652	1.3220	25.88	-0.07	0.750			
0.4400	28159.75	3.7620	3.7621	1.3450	25.88	-0.07	0.750			
0.4442	28425.61	3.7590	3.7588	1.3431	25.87	-0.08	0.750			
0.4481	28678.61	3.7560	3.7560	1.3646	25.86	-0.09	0.750			
0.4522	28942.87	3.7530	3.7532	1.3925	25.86	-0.09	0.750			
0.4564	29210.45	3.7500	3.7497	1.4306	25.85	-0.10	0.750			
0.4608	29490.73	3.7470	3.7472	1.4537	25.84	-0.11	0.750			
0.4652	29771.64	3.7440	3.7442	1.4953	25.83	-0.12	0.750			
0.4697	30063.39	3.7410	3.7410	1.5465	25.82	-0.13	0.750			
0.4745	30366.79	3.7380	3.7379	1.5793	25.82	-0.13	0.750			
0.4792	30668.13	3.7350	3.7350	1.6076	25.81	-0.14	0.750			
0.4840	30977.65	3.7320	3.7321	1.6635	25.81	-0.14	0.750			
0.4891	31301.37	3.7290	3.7291	1.7128	25.80	-0.15	0.750			
0.4944	31643.06	3.7260	3.7257	1.7645	25.79	-0.16	0.750			
0.4997	31982.50	3.7230	3.7229	1.8048	25.78	-0.17	0.750			
0.5052	32333.97	3.7200	3.7201	1.8657	25.77	-0.18	0.750			
0.5109	32700.16	3.7170	3.7168	1.9315	25.76	-0.19	0.750			
0.5168	33074.05	3.7140	3.7138	1.9740	25.75	-0.20	0.750			
0.5227	33453.47	3.7110	3.7113	2.0261	25.75	-0.20	0.750			
0.5290	33853.20	3.7080	3.7081	2.0975	25.75	-0.20	0.750			
0.5354	34263.71	3.7050	3.7048	2.1466	25.74	-0.21	0.750			
0.5420	34685.01	3.7020	3.7020	2.1979	25.71	-0.24	0.750			
0.5487	35115.47	3.6990	3.6992	2.2782	25.70	-0.25	0.750			
0.5555	35553.30	3.6960	3.6959	2.3769	25.71	-0.24	0.750			
0.5627	36012.95	3.6930	3.6928	2.4491	25.71	-0.24	0.750			
0.5702	36491.71	3.6900	3.6900	2.5430	25.70	-0.25	0.750			
0.5782	37001.68	3.6870	3.6870	2.6437	25.69	-0.26	0.750			
0.5862	37514.62	3.6840	3.6840	2.7277	25.68	-0.27	0.750			
0.5944	38042.40	3.6810	3.6810	2.7531	25.67	-0.28	0.750			
0.6031	38597.49	3.6780	3.6779	2.7364	25.66	-0.29	0.750			
0.6113	39126.08	3.6750	3.6749	2.5902	25.66	-0.29	0.750			
0.6190	39613.88	3.6720	3.6720	2.3863	25.65	-0.30	0.750			
0.6256	40037.85	3.6690	3.6690	2.1412	25.66	-0.29	0.750			
0.6316	40420.11	3.6660	3.6659	1.9322	25.66	-0.29	0.750			
0.6368	40754.85	3.6630	3.6630	1.7600	25.66	-0.29	0.750			
0.6418	41073.88	3.6600	3.6601	1.6172	25.65	-0.30	0.750			
0.6464	41369.10	3.6570	3.6571	1.5155	25.65	-0.30	0.750			
0.6509	41654.44	3.6540	3.6541	1.4346	25.66	-0.29	0.750			
0.6550	41920.44	3.6510	3.6510	1.3556	25.66	-0.29	0.750			
0.6588	42163.96	3.6480	3.6480	1.2831	25.66	-0.29	0.750			
0.6625	42397.40	3.6450	3.6450	1.2211	25.66	-0.29	0.750			
0.6660	42623.20	3.6420	3.6421	1.1946	25.66	-0.29	0.750			
0.6695	42850.66	3.6390	3.6388	1.1645	25.66	-0.29	0.750			
0.6730	43070.06	3.6360	3.6362	1.1637	25.66	-0.29	0.750			
0.6764	43290.90	3.6330	3.6330	1.1684	25.66	-0.29	0.750			
0.6800	43517.12	3.6300	3.6300	1.1756	25.66	-0.29	0.750			
0.6835	43744.81	3.6270	3.6270	1.1629	25.66	-0.29	0.750			
0.6870	43968.85	3.6240	3.6241	1.1698	25.66	-0.29	0.750			
0.6905	44194.18	3.6210	3.6211	1.1606	25.66	-0.29	0.750			
0.6941	44420.27	3.6180	3.6175	1.1486	25.66	-0.29	0.750			
0.6974	44635.44	3.6150	3.6152	1.1269	25.66	-0.29	0.750			
0.7008	44849.22	3.6120	3.6121	1.1188	25.66	-0.29	0.750			
0.7041	45062.72	3.6090	3.6091	1.1241	25.66	-0.29	0.750			
0.7074	45275.20	3.6060	3.6060	1.1142	25.66	-0.29	0.750			
0.7107	45487.93	3.6030	3.6030	1.1329	25.66	-0.29	0.750			
0.7142	45707.34	3.6000	3.6001	1.1566	25.67	-0.28	0.750			
0.7177	45932.15	3.5970	3.5969	1.1793	25.67	-0.28	0.750			
0.7212	46158.39	3.5940	3.5941	1.2130	25.67	-0.28	0.750			
0.7249	46392.35	3.5910	3.5910	1.2492	25.67	-0.28	0.750			
0.7287	46638.20	3.5880	3.5880	1.2842	25.67	-0.28	0.750			
0.7327	46892.02	3.5850	3.5849	1.3277	25.67	-0.28	0.750			
0.7366	47144.79	3.5820	3.5821	1.3881	25.67	-0.28	0.750			
0.7409	47417.26	3.5790	3.5791	1.4399	25.67	-0.28	0.750			
0.7454	47703.50	3.5760	3.5760	1.4812	25.67	-0.28	0.750			
0.7499	47992.06	3.5730	3.5731	1.5205	25.67	-0.28	0.750			
0.7545	48290.87	3.5700	3.5701	1.5503	25.68	-0.27	0.750			
0.7593	48594.27	3.5670	3.5671	1.5677	25.68	-0.27	0.750			
0.7640	48894.84	3.5640	3.5639	1.5926	25.68	-0.27	0.750			
0.7688	49200.21	3.5610	3.5609	1.6083	25.68	-0.27	0.750			
0.7737	49513.77	3.5580	3.5581	1.6430	25.69	-0.26	0.750			
0.7787	49835.25	3.5550	3.5552	1.6632	25.70	-0.25	0.750			
0.7838	50161.22	3.5520	3.5521	1.6688	25.70	-0.25	0.750			
0.7888	50481.18	3.5490	3.5490	1.6976	25.71	-0.24	0.750			
0.7938	50801.27	3.5460	3.5460	1.7492	25.71	-0.24	0.750			
0.7991	51143.36	3.5430	3.5429	1.7728	25.72	-0.23	0.750			
0.8048	51504.78	3.5400	3.5399	1.6828	25.73	-0.22	0.750			
0.8102	51849.75	3.5370	3.5372	1.5639	25.74	-0.21	0.750			
0.8150	52157.64	3.5340	3.5345	1.3353	25.76	-0.19	0.750			
0.8189	52408.27	3.5310	3.5311	1.0811	25.78	-0.17	0.750			
0.8214	52567.77	3.5280	3.5278	0.8338	25.80	-0.15	0.750			
0.8231	52676.17	3.5250	3.5245	0.5982	25.81	-0.14	0.750			
0.8242	52749.85	3.5220	3.5218	0.4655	25.82	-0.13	0.750			
0.8254	52823.85	3.5190	3.5187	0.3951	25.82	-0.13	0.750			
0.8264	52887.35	3.5160	3.5161	0.3543	25.83	-0.12	0.750			
0.8274	52951.63	3.5130	3.5129	0.3319	25.84	-0.11	0.750			
0.8283	53011.40	3.5100	3.5100	0.3145	25.85	-0.10	0.750			
0.8292	53070.18	3.5070	3.5070	0.3045	25.85	-0.10	0.750			
0.8301	53126.95	3.5040	3.5040	0.2952	25.86	-0.09	0.750			
0.8310	53182.90	3.5010	3.5011	0.2866	25.87	-0.08	0.750			
0.8318	53237.24	3.4980	3.4980	0.2790	25.87	-0.08	0.750			
0.8327	53289.85	3.4950	3.4950	0.2704	25.88	-0.07	0.750			
0.8335	53340.95	3.4920	3.4920	0.2642	25.88	-0.07	0.750			
0.8342	53390.77	3.4890	3.4890	0.2568	25.89	-0.06	0.750			
0.8350	53438.79	3.4860	3.4860	0.2514	25.89	-0.06	0.750			
0.8357	53486.74	3.4830	3.4830	0.2462	25.90	-0.05	0.750			
0.8365	53533.61	3.4800	3.4799	0.2412	25.90	-0.05	0.750			
0.8372	53579.48	3.4770	3.4770	0.2366	25.91	-0.04	0.750			
0.8379	53624.37	3.4740	3.4740	0.2316	25.91	-0.04	0.750			
0.8386	53668.16	3.4710	3.4710	0.2264	25.91	-0.04	0.750			
0.8392	53711.51	3.4680	3.4679	0.2217	25.92	-0.03	0.750			
0.8399	53753.12	3.4650	3.4651	0.2164	25.92	-0.03	0.750			
0.8405	53794.44	3.4620	3.4620	0.2127	25.93	-0.02	0.750			
0.8412	53834.83	3.4590	3.4590	0.2081	25.93	-0.02	0.750			
0.8418	53874.46	3.4560	3.4560	0.2020	25.93	-0.02	0.750			
0.8424	53912.54	3.4530	3.4530	0.1976	25.94	-0.01	0.750			
0.8430	53950.07	3.4500	3.4501	0.1930	25.94	-0.01	0.750			
0.8435	53986.54	3.4470	3.4470	0.1887	25.95	-0.00	0.750			
0.8441	54022.34	3.4440	3.4438	0.1844	25.95	-0.00	0.750			
0.8446	54057.34	3.4410	3.4410	0.1781	25.95	0.00	0.750			
0.8452	54091.26	3.4380	3.4380	0.1732	25.96	0.01	0.750			
0.8457	54124.12	3.4350	3.4351	0.1672	25.96	0.01	0.750			
0.8462	54156.24	3.4320	3.4321	0.1616	25.96	0.01	0.750			
0.8467	54186.27	3.4290	3.4289	0.1551	25.97	0.02	0.750			
0.8471	54215.28	3.4260	3.4260	0.1498	25.97	0.02	0.750			
0.8476	54243.38	3.4230	3.4231	0.1434	25.97	0.02	0.750			
0.8480	54270.43	3.4200	3.4199	0.1384	25.97	0.02	0.750			
0.8484	54296.82	3.4170	3.4170	0.1333	25.98	0.03	0.750			
0.8488	54321.74	3.4140	3.4141	0.1273	25.98	0.03	0.750			
0.8492	54346.22	3.4110	3.4110	0.1215	25.98	0.03	0.750			
0.8495	54368.88	3.4080	3.4079	0.1146	25.98	0.03	0.750			
0.8499	54391.81	3.4050	3.4049	0.1059	25.99	0.04	0.750			
0.8502	54411.49	3.4020	3.4019	0.0975	25.99	0.04	0.750			
0.8505	54429.22	3.3990	3.3991	0.0872	25.99	0.04	0.750			
0.8507	54445.96	3.3960	3.3960	0.0784	25.99	0.04	0.750			
0.8509	54459.93	3.3930	3.3934	0.0671	25.99	0.04	0.750			
0.8511	54472.39	3.3900	3.3905	0.0557	25.99	0.04	0.750			
0.8513	54481.92	3.3870	3.3879	0.0436	26.00	0.05	0.750			
0.8514	54489.12	3.3840	3.3855	0.0314	26.00	0.05	0.750			
0.8515	54493.98	3.3810	3.3831	0.0192	26.00	0.05	0.750			
