Ah_balance (normalized)	Ah_balance (mAh)	Voltage - fit (V)	Voltage -  interpolate (V)	dQ/dV (1/V)	Temperature (°C)	Temperature - diff (°C)	Current (C)	R_DC 0ms (mOhm)	R_DC 50ms (mOhm)	R_DC 50 ms PEC (mOhm)
0.0004	23.93	4.1600	4.1598	-0.1223	25.93	0.04	-0.750			
0.0008	51.70	4.1570	4.1569	-0.1642	25.92	0.03	-0.750			
0.0014	87.70	4.1540	4.1540	-0.2038	25.92	0.03	-0.750			
0.0020	130.83	4.1510	4.1510	-0.2420	25.92	0.03	-0.750			
0.0028	181.21	4.1480	4.1480	-0.2784	25.92	0.03	-0.750			
0.0037	239.23	4.1450	4.1450	-0.3139	25.91	0.02	-0.750			
0.0047	303.15	4.1420	4.1420	-0.3466	25.91	0.02	-0.750			
0.0058	372.70	4.1390	4.1390	-0.3798	25.91	0.02	-0.750			
0.0070	448.94	4.1360	4.1360	-0.4103	25.90	0.01	-0.750			
0.0083	531.57	4.1330	4.1330	-0.4380	25.90	0.01	-0.750			
0.0097	618.48	4.1300	4.1300	-0.4631	25.90	0.01	-0.750			
0.0111	711.40	4.1270	4.1271	-0.4881	25.89	0.00	-0.750			
0.0126	807.63	4.1240	4.1240	-0.5088	25.89	-0.00	-0.750			
0.0142	907.47	4.1210	4.1210	-0.5282	25.88	-0.01	-0.750			
0.0158	1011.05	4.1180	4.1180	-0.5417	25.88	-0.01	-0.750			
0.0174	1115.76	4.1150	4.1150	-0.5606	25.87	-0.02	-0.750			
0.0192	1226.44	4.1120	4.1120	-0.5756	25.87	-0.02	-0.750			
0.0209	1338.22	4.1090	4.1089	-0.5872	25.86	-0.03	-0.750			
0.0227	1453.12	4.1060	4.1059	-0.5977	25.85	-0.04	-0.750			
0.0245	1568.48	4.1030	4.1031	-0.6077	25.85	-0.04	-0.750			
0.0264	1686.48	4.1000	4.1001	-0.6178	25.85	-0.04	-0.750			
0.0282	1806.58	4.0970	4.0970	-0.6263	25.85	-0.04	-0.750			
0.0301	1926.92	4.0940	4.0939	-0.6311	25.85	-0.04	-0.750			
0.0320	2050.31	4.0910	4.0910	-0.6411	25.85	-0.04	-0.750			
0.0340	2174.09	4.0880	4.0880	-0.6475	25.85	-0.04	-0.750			
0.0359	2299.25	4.0850	4.0851	-0.6519	25.85	-0.04	-0.750			
0.0379	2424.20	4.0820	4.0819	-0.6550	25.85	-0.04	-0.750			
0.0398	2550.27	4.0790	4.0790	-0.6608	25.84	-0.05	-0.750			
0.0418	2677.64	4.0760	4.0760	-0.6672	25.84	-0.05	-0.750			
0.0438	2806.08	4.0730	4.0730	-0.6728	25.84	-0.05	-0.750			
0.0459	2937.24	4.0700	4.0700	-0.6769	25.83	-0.06	-0.750			
0.0479	3067.89	4.0670	4.0670	-0.6798	25.83	-0.06	-0.750			
0.0500	3199.56	4.0640	4.0640	-0.6832	25.83	-0.06	-0.750			
0.0520	3330.47	4.0610	4.0610	-0.6864	25.83	-0.06	-0.750			
0.0541	3461.02	4.0580	4.0580	-0.6895	25.83	-0.06	-0.750			
0.0562	3593.88	4.0550	4.0550	-0.6929	25.82	-0.07	-0.750			
0.0583	3729.04	4.0520	4.0521	-0.6965	25.82	-0.07	-0.750			
0.0604	3864.10	4.0490	4.0489	-0.6991	25.82	-0.07	-0.750			
0.0625	3997.94	4.0460	4.0460	-0.6999	25.82	-0.07	-0.750			
0.0646	4132.21	4.0430	4.0430	-0.7008	25.82	-0.07	-0.750			
0.0667	4266.23	4.0400	4.0401	-0.7016	25.82	-0.07	-0.750			
0.0688	4401.68	4.0370	4.0369	-0.6989	25.82	-0.07	-0.750			
0.0709	4536.13	4.0340	4.0340	-0.7016	25.82	-0.07	-0.750			
0.0730	4670.31	4.0310	4.0309	-0.7100	25.82	-0.07	-0.750			
0.0751	4806.33	4.0280	4.0280	-0.7134	25.82	-0.07	-0.750			
0.0772	4943.84	4.0250	4.0249	-0.7173	25.83	-0.06	-0.750			
0.0794	5082.74	4.0220	4.0221	-0.7256	25.83	-0.06	-0.750			
0.0816	5224.87	4.0190	4.0190	-0.7272	25.83	-0.06	-0.750			
0.0838	5365.60	4.0160	4.0160	-0.7253	25.84	-0.05	-0.750			
0.0860	5504.90	4.0130	4.0131	-0.7190	25.84	-0.05	-0.750			
0.0881	5640.97	4.0100	4.0100	-0.7184	25.84	-0.05	-0.750			
0.0903	5777.78	4.0070	4.0069	-0.7222	25.84	-0.05	-0.750			
0.0924	5916.17	4.0040	4.0040	-0.7310	25.84	-0.05	-0.750			
0.0946	6057.55	4.0010	4.0009	-0.7284	25.85	-0.04	-0.750			
0.0969	6201.12	3.9980	3.9979	-0.7368	25.85	-0.04	-0.750			
0.0991	6342.69	3.9950	3.9954	-0.7360	25.85	-0.04	-0.750			
0.1013	6484.42	3.9920	3.9918	-0.7365	25.85	-0.04	-0.750			
0.1035	6622.86	3.9890	3.9890	-0.7407	25.85	-0.04	-0.750			
0.1057	6763.27	3.9860	3.9861	-0.7387	25.86	-0.03	-0.750			
0.1080	6909.50	3.9830	3.9829	-0.7483	25.86	-0.03	-0.750			
0.1102	7052.90	3.9800	3.9799	-0.7496	25.86	-0.03	-0.750			
0.1124	7196.64	3.9770	3.9770	-0.7481	25.86	-0.03	-0.750			
0.1147	7339.99	3.9740	3.9740	-0.7504	25.86	-0.03	-0.750			
0.1169	7483.93	3.9710	3.9709	-0.7505	25.86	-0.03	-0.750			
0.1192	7626.65	3.9680	3.9681	-0.7496	25.87	-0.02	-0.750			
0.1215	7772.99	3.9650	3.9650	-0.7568	25.87	-0.02	-0.750			
0.1237	7919.38	3.9620	3.9621	-0.7584	25.87	-0.02	-0.750			
0.1260	8064.40	3.9590	3.9589	-0.7577	25.87	-0.02	-0.750			
0.1283	8209.43	3.9560	3.9560	-0.7606	25.88	-0.01	-0.750			
0.1306	8355.58	3.9530	3.9530	-0.7604	25.88	-0.01	-0.750			
0.1328	8501.17	3.9500	3.9500	-0.7636	25.88	-0.01	-0.750			
0.1351	8648.89	3.9470	3.9469	-0.7657	25.89	-0.00	-0.750			
0.1374	8795.87	3.9440	3.9441	-0.7680	25.89	0.00	-0.750			
0.1398	8944.01	3.9410	3.9409	-0.7712	25.89	0.00	-0.750			
0.1421	9091.56	3.9380	3.9380	-0.7753	25.89	0.00	-0.750			
0.1444	9240.09	3.9350	3.9350	-0.7768	25.89	0.00	-0.750			
0.1467	9389.97	3.9320	3.9320	-0.7827	25.89	0.00	-0.750			
0.1491	9540.39	3.9290	3.9290	-0.7869	25.89	0.00	-0.750			
0.1515	9692.85	3.9260	3.9260	-0.7911	25.89	0.00	-0.750			
0.1538	9845.76	3.9230	3.9230	-0.7950	25.90	0.01	-0.750			
0.1562	9999.07	3.9200	3.9200	-0.7969	25.90	0.01	-0.750			
0.1586	10152.61	3.9170	3.9170	-0.7960	25.91	0.02	-0.750			
0.1610	10305.81	3.9140	3.9141	-0.7977	25.91	0.02	-0.750			
0.1634	10459.37	3.9110	3.9109	-0.7918	25.91	0.02	-0.750			
0.1658	10609.71	3.9080	3.9080	-0.7942	25.92	0.03	-0.750			
0.1682	10762.28	3.9050	3.9050	-0.7931	25.92	0.03	-0.750			
0.1705	10914.09	3.9020	3.9020	-0.7913	25.92	0.03	-0.750			
0.1729	11066.98	3.8990	3.8990	-0.7927	25.93	0.04	-0.750			
0.1753	11218.79	3.8960	3.8960	-0.7958	25.93	0.04	-0.750			
0.1777	11371.02	3.8930	3.8930	-0.7986	25.94	0.05	-0.750			
0.1801	11526.23	3.8900	3.8900	-0.8002	25.94	0.05	-0.750			
0.1825	11678.10	3.8870	3.8870	-0.7983	25.94	0.05	-0.750			
0.1849	11833.38	3.8840	3.8840	-0.8021	25.95	0.06	-0.750			
0.1873	11988.18	3.8810	3.8810	-0.8015	25.95	0.06	-0.750			
0.1897	12140.24	3.8780	3.8780	-0.8051	25.95	0.06	-0.750			
0.1921	12294.23	3.8750	3.8750	-0.8052	25.95	0.06	-0.750			
0.1945	12449.68	3.8720	3.8720	-0.8035	25.95	0.06	-0.750			
0.1970	12605.88	3.8690	3.8689	-0.8029	25.95	0.06	-0.750			
0.1994	12760.16	3.8660	3.8662	-0.8022	25.95	0.06	-0.750			
0.2018	12913.97	3.8630	3.8629	-0.8028	25.95	0.06	-0.750			
0.2042	13067.02	3.8600	3.8600	-0.8049	25.96	0.07	-0.750			
0.2066	13221.03	3.8570	3.8570	-0.8043	25.96	0.07	-0.750			
0.2090	13376.85	3.8540	3.8539	-0.8078	25.97	0.08	-0.750			
0.2114	13532.51	3.8510	3.8512	-0.8100	25.97	0.08	-0.750			
0.2139	13688.98	3.8480	3.8480	-0.8114	25.97	0.08	-0.750			
0.2163	13843.59	3.8450	3.8450	-0.8116	25.98	0.09	-0.750			
0.2187	13998.90	3.8420	3.8420	-0.8091	25.98	0.09	-0.750			
0.2212	14155.51	3.8390	3.8390	-0.8128	25.99	0.10	-0.750			
0.2236	14311.89	3.8360	3.8361	-0.8073	25.99	0.10	-0.750			
0.2261	14467.58	3.8330	3.8330	-0.8049	25.99	0.10	-0.750			
0.2285	14620.86	3.8300	3.8300	-0.7987	25.99	0.10	-0.750			
0.2308	14773.79	3.8270	3.8270	-0.7933	25.99	0.10	-0.750			
0.2332	14924.34	3.8240	3.8241	-0.7926	25.99	0.10	-0.750			
0.2356	15076.11	3.8210	3.8210	-0.7914	25.99	0.10	-0.750			
0.2379	15227.20	3.8180	3.8181	-0.7919	25.99	0.10	-0.750			
0.2403	15377.95	3.8150	3.8150	-0.8006	26.00	0.11	-0.750			
0.2427	15533.11	3.8120	3.8117	-0.7984	26.00	0.11	-0.750			
0.2451	15687.93	3.8090	3.8091	-0.7997	26.00	0.11	-0.750			
0.2475	15842.68	3.8060	3.8059	-0.7951	26.01	0.12	-0.750			
0.2499	15996.29	3.8030	3.8030	-0.7899	26.01	0.12	-0.750			
0.2523	16148.16	3.8000	3.7999	-0.7874	26.02	0.13	-0.750			
0.2546	16296.58	3.7970	3.7969	-0.7770	26.02	0.13	-0.750			
0.2569	16443.36	3.7940	3.7940	-0.7665	26.02	0.13	-0.750			
0.2593	16592.27	3.7910	3.7911	-0.7717	26.03	0.14	-0.750			
0.2616	16739.37	3.7880	3.7881	-0.7698	26.03	0.14	-0.750			
0.2639	16887.37	3.7850	3.7850	-0.7690	26.03	0.14	-0.750			
0.2662	17034.96	3.7820	3.7819	-0.7668	26.04	0.15	-0.750			
0.2685	17182.21	3.7790	3.7791	-0.7632	26.04	0.15	-0.750			
0.2708	17329.55	3.7760	3.7760	-0.7639	26.04	0.15	-0.750			
0.2731	17475.64	3.7730	3.7730	-0.7586	26.05	0.16	-0.750			
0.2753	17620.71	3.7700	3.7699	-0.7504	26.05	0.16	-0.750			
0.2776	17764.33	3.7670	3.7670	-0.7470	26.05	0.16	-0.750			
0.2798	17906.78	3.7640	3.7641	-0.7518	26.05	0.16	-0.750			
0.2821	18051.46	3.7610	3.7610	-0.7517	26.06	0.17	-0.750			
0.2843	18196.96	3.7580	3.7578	-0.7531	26.06	0.17	-0.750			
0.2866	18341.59	3.7550	3.7553	-0.7519	26.06	0.17	-0.750			
0.2889	18486.53	3.7520	3.7520	-0.7546	26.06	0.17	-0.750			
0.2911	18630.81	3.7490	3.7490	-0.7579	26.06	0.17	-0.750			
0.2934	18775.11	3.7460	3.7460	-0.7646	26.07	0.18	-0.750			
0.2956	18921.01	3.7430	3.7429	-0.7709	26.07	0.18	-0.750			
0.2980	19070.12	3.7400	3.7400	-0.7789	26.07	0.18	-0.750			
0.3003	19220.46	3.7370	3.7371	-0.7902	26.07	0.18	-0.750			
0.3027	19372.67	3.7340	3.7340	-0.8024	26.08	0.19	-0.750			
0.3051	19528.24	3.7310	3.7309	-0.8109	26.08	0.19	-0.750			
0.3076	19684.84	3.7280	3.7280	-0.8178	26.08	0.19	-0.750			
0.3100	19842.13	3.7250	3.7250	-0.8307	26.09	0.20	-0.750			
0.3125	20003.10	3.7220	3.7220	-0.8456	26.09	0.20	-0.750			
0.3151	20166.46	3.7190	3.7190	-0.8589	26.09	0.20	-0.750			
0.3177	20331.41	3.7160	3.7159	-0.8702	26.09	0.20	-0.750			
0.3203	20500.48	3.7130	3.7131	-0.8834	26.09	0.20	-0.750			
0.3230	20672.11	3.7100	3.7100	-0.9023	26.09	0.20	-0.750			
0.3257	20846.14	3.7070	3.7070	-0.9205	26.09	0.20	-0.750			
0.3285	21023.61	3.7040	3.7040	-0.9355	26.09	0.20	-0.750			
0.3313	21204.04	3.7010	3.7009	-0.9504	26.09	0.20	-0.750			
0.3342	21389.16	3.6980	3.6980	-0.9666	26.09	0.20	-0.750			
0.3372	21577.96	3.6950	3.6951	-0.9843	26.09	0.20	-0.750			
0.3401	21768.51	3.6920	3.6920	-1.0038	26.08	0.19	-0.750			
0.3432	21961.86	3.6890	3.6890	-1.0186	26.08	0.19	-0.750			
0.3462	22159.18	3.6860	3.6860	-1.0377	26.07	0.18	-0.750			
0.3494	22358.44	3.6830	3.6832	-1.0657	26.07	0.18	-0.750			
0.3526	22565.82	3.6800	3.6800	-1.0886	26.06	0.17	-0.750			
0.3559	22777.90	3.6770	3.6769	-1.1094	26.06	0.17	-0.750			
0.3593	22992.45	3.6740	3.6739	-1.1267	26.05	0.16	-0.750			
0.3627	23211.54	3.6710	3.6711	-1.1550	26.05	0.16	-0.750			
0.3662	23435.00	3.6680	3.6680	-1.1754	26.04	0.15	-0.750			
0.3697	23661.91	3.6650	3.6649	-1.1960	26.04	0.15	-0.750			
0.3733	23889.15	3.6620	3.6621	-1.2221	26.03	0.14	-0.750			
0.3771	24132.88	3.6590	3.6590	-1.2366	26.02	0.13	-0.750			
0.3809	24375.57	3.6560	3.6559	-1.2538	26.02	0.13	-0.750			
0.3846	24614.05	3.6530	3.6531	-1.2787	26.01	0.12	-0.750			
0.3884	24858.63	3.6500	3.6499	-1.2953	26.01	0.12	-0.750			
0.3923	25110.34	3.6470	3.6468	-1.3152	26.00	0.11	-0.750			
0.3963	25361.64	3.6440	3.6440	-1.3640	25.99	0.10	-0.750			
0.4004	25627.83	3.6410	3.6411	-1.3869	25.99	0.10	-0.750			
0.4048	25904.16	3.6380	3.6378	-1.4205	25.98	0.09	-0.750			
0.4090	26178.95	3.6350	3.6352	-1.4560	25.97	0.08	-0.750			
0.4134	26457.10	3.6320	3.6320	-1.4833	25.97	0.08	-0.750			
0.4179	26746.73	3.6290	3.6289	-1.5237	25.96	0.07	-0.750			
0.4225	27040.63	3.6260	3.6261	-1.5602	25.96	0.07	-0.750			
0.4273	27346.99	3.6230	3.6229	-1.5869	25.95	0.06	-0.750			
0.4322	27657.92	3.6200	3.6198	-1.6075	25.94	0.05	-0.750			
0.4370	27969.30	3.6170	3.6171	-1.6292	25.93	0.04	-0.750	0.393	0.530	
0.4419	28280.95	3.6140	3.6137	-1.6548	25.93	0.04	-0.750			
0.4469	28600.60	3.6110	3.6109	-1.6761	25.93	0.04	-0.750			
0.4519	28922.23	3.6080	3.6082	-1.7240	25.93	0.04	-0.750			
0.4572	29260.28	3.6050	3.6052	-1.7610	25.92	0.03	-0.750			
0.4625	29602.10	3.6020	3.6020	-1.7932	25.91	0.02	-0.750			
0.4679	29946.12	3.5990	3.5991	-1.8387	25.91	0.02	-0.750			
0.4735	30307.20	3.5960	3.5958	-1.8759	25.91	0.02	-0.750			
0.4791	30663.74	3.5930	3.5931	-1.9243	25.90	0.01	-0.750			
0.4851	31045.88	3.5900	3.5899	-1.9578	25.89	0.00	-0.750			
0.4910	31422.50	3.5870	3.5870	-1.9886	25.89	-0.00	-0.750			
0.4971	31812.49	3.5840	3.5841	-2.0230	25.88	-0.01	-0.750			
0.5032	32206.79	3.5810	3.5811	-2.0427	25.88	-0.01	-0.750			
0.5094	32601.85	3.5780	3.5780	-2.0660	25.87	-0.02	-0.750			
0.5156	33000.38	3.5750	3.5750	-2.1098	25.87	-0.02	-0.750			
0.5219	33404.19	3.5720	3.5721	-2.1095	25.86	-0.03	-0.750			
0.5284	33815.99	3.5690	3.5691	-2.1488	25.86	-0.03	-0.750			
0.5348	34225.82	3.5660	3.5660	-2.1747	25.87	-0.02	-0.750			
0.5414	34648.18	3.5630	3.5628	-2.1864	25.87	-0.02	-0.750			
0.5480	35074.74	3.5600	3.5602	-2.2041	25.86	-0.03	-0.750			
0.5547	35498.28	3.5570	3.5569	-2.2101	25.86	-0.03	-0.750			
0.5614	35927.06	3.5540	3.5537	-2.2100	25.87	-0.02	-0.750			
0.5681	36356.41	3.5510	3.5511	-2.1821	25.87	-0.02	-0.750			
0.5746	36776.90	3.5480	3.5480	-2.1798	25.87	-0.02	-0.750			
0.5810	37185.07	3.5450	3.5450	-2.1604	25.87	-0.02	-0.750			
0.5875	37598.01	3.5420	3.5420	-2.1524	25.87	-0.02	-0.750			
0.5940	38015.94	3.5390	3.5390	-2.1419	25.87	-0.02	-0.750			
0.6004	38425.63	3.5360	3.5360	-2.1139	25.87	-0.02	-0.750			
0.6069	38838.89	3.5330	3.5331	-2.0905	25.88	-0.01	-0.750			
0.6132	39243.75	3.5300	3.5300	-2.0610	25.88	-0.01	-0.750			
0.6193	39633.41	3.5270	3.5269	-1.9925	25.89	-0.00	-0.750			
0.6251	40003.59	3.5240	3.5240	-1.9489	25.89	0.00	-0.750			
0.6308	40372.36	3.5210	3.5210	-1.9058	25.90	0.01	-0.750			
0.6365	40736.80	3.5180	3.5181	-1.8635	25.91	0.02	-0.750			
0.6420	41089.64	3.5150	3.5150	-1.8215	25.92	0.03	-0.750			
0.6475	41437.60	3.5120	3.5120	-1.7720	25.93	0.04	-0.750			
0.6527	41773.36	3.5090	3.5090	-1.7244	25.94	0.05	-0.750			
0.6579	42105.07	3.5060	3.5060	-1.6842	25.95	0.06	-0.750			
0.6628	42418.35	3.5030	3.5030	-1.6150	25.96	0.07	-0.750			
0.6676	42725.66	3.5000	3.5002	-1.5669	25.97	0.08	-0.750			
0.6722	43019.73	3.4970	3.4969	-1.5202	25.99	0.10	-0.750			
0.6766	43304.33	3.4940	3.4940	-1.4703	26.00	0.11	-0.750			
0.6810	43581.76	3.4910	3.4909	-1.4290	26.01	0.12	-0.750			
0.6852	43850.49	3.4880	3.4879	-1.3942	26.03	0.14	-0.750			
0.6893	44114.08	3.4850	3.4850	-1.3440	26.04	0.15	-0.750			
0.6933	44373.24	3.4820	3.4819	-1.3043	26.05	0.16	-0.750			
0.6972	44617.65	3.4790	3.4791	-1.2600	26.06	0.17	-0.750			
0.7008	44851.88	3.4760	3.4759	-1.2159	26.08	0.19	-0.750			
0.7044	45082.68	3.4730	3.4729	-1.1799	26.10	0.21	-0.750			
0.7079	45305.43	3.4700	3.4700	-1.1400	26.11	0.22	-0.750			
0.7112	45519.07	3.4670	3.4671	-1.1014	26.13	0.24	-0.750			
0.7145	45729.49	3.4640	3.4640	-1.0717	26.15	0.26	-0.750			
0.7177	45931.80	3.4610	3.4609	-1.0343	26.16	0.27	-0.750			
0.7207	46124.75	3.4580	3.4580	-0.9992	26.17	0.28	-0.750			
0.7236	46312.30	3.4550	3.4550	-0.9687	26.19	0.30	-0.750			
0.7265	46493.95	3.4520	3.4520	-0.9494	26.20	0.31	-0.750			
0.7293	46675.13	3.4490	3.4490	-0.9234	26.21	0.32	-0.750			
0.7320	46849.30	3.4460	3.4459	-0.8987	26.22	0.33	-0.750			
0.7347	47018.57	3.4430	3.4430	-0.8813	26.22	0.33	-0.750			
0.7373	47184.69	3.4400	3.4400	-0.8700	26.23	0.34	-0.750			
0.7398	47348.83	3.4370	3.4370	-0.8632	26.24	0.35	-0.750			
0.7424	47510.96	3.4340	3.4340	-0.8630	26.25	0.36	-0.750			
0.7449	47674.40	3.4310	3.4310	-0.8675	26.26	0.37	-0.750			
0.7476	47844.26	3.4280	3.4280	-0.8872	26.27	0.38	-0.750			
0.7502	48014.88	3.4250	3.4250	-0.9018	26.28	0.39	-0.750			
0.7530	48189.89	3.4220	3.4220	-0.9171	26.29	0.40	-0.750			
0.7558	48368.33	3.4190	3.4189	-0.9282	26.30	0.41	-0.750			
0.7586	48549.75	3.4160	3.4160	-0.9401	26.31	0.42	-0.750			
0.7614	48731.22	3.4130	3.4132	-0.9423	26.32	0.43	-0.750			
0.7643	48914.38	3.4100	3.4099	-0.9495	26.33	0.44	-0.750			
0.7672	49098.24	3.4070	3.4070	-0.9440	26.33	0.44	-0.750			
0.7700	49281.35	3.4040	3.4039	-0.9277	26.34	0.45	-0.750			
0.7728	49461.41	3.4010	3.4010	-0.9143	26.35	0.46	-0.750			
0.7755	49634.48	3.3980	3.3980	-0.8870	26.36	0.47	-0.750			
0.7782	49802.24	3.3950	3.3950	-0.8629	26.36	0.47	-0.750			
0.7807	49964.46	3.3920	3.3919	-0.8330	26.37	0.48	-0.750			
0.7831	50120.29	3.3890	3.3889	-0.8000	26.38	0.49	-0.750			
0.7855	50274.51	3.3860	3.3860	-0.7779	26.39	0.50	-0.750			
0.7878	50421.04	3.3830	3.3830	-0.7498	26.40	0.51	-0.750			
0.7900	50561.79	3.3800	3.3800	-0.7236	26.40	0.51	-0.750			
0.7921	50696.96	3.3770	3.3769	-0.6977	26.41	0.52	-0.750			
0.7942	50826.66	3.3740	3.3740	-0.6724	26.42	0.53	-0.750			
0.7962	50955.60	3.3710	3.3710	-0.6511	26.43	0.54	-0.750			
0.7981	51078.67	3.3680	3.3679	-0.6278	26.44	0.55	-0.750			
0.8000	51197.79	3.3650	3.3651	-0.6060	26.44	0.55	-0.750			
0.8017	51310.32	3.3620	3.3620	-0.5848	26.45	0.56	-0.750			
0.8034	51420.74	3.3590	3.3590	-0.5622	26.45	0.56	-0.750			
0.8051	51525.66	3.3560	3.3560	-0.5443	26.46	0.57	-0.750			
0.8067	51629.49	3.3530	3.3530	-0.5306	26.47	0.58	-0.750			
0.8083	51730.78	3.3500	3.3499	-0.5114	26.47	0.58	-0.750			
0.8098	51827.02	3.3470	3.3470	-0.4903	26.47	0.58	-0.750			
0.8112	51918.79	3.3440	3.3443	-0.4733	26.48	0.59	-0.750			
0.8126	52007.59	3.3410	3.3409	-0.4557	26.49	0.60	-0.750			
0.8140	52092.93	3.3380	3.3379	-0.4399	26.49	0.60	-0.750			
0.8152	52174.24	3.3350	3.3350	-0.4231	26.50	0.61	-0.750			
0.8165	52254.91	3.3320	3.3321	-0.4141	26.50	0.61	-0.750			
0.8177	52332.56	3.3290	3.3290	-0.4013	26.51	0.62	-0.750			
0.8189	52408.53	3.3260	3.3260	-0.3888	26.52	0.63	-0.750			
0.8200	52481.90	3.3230	3.3230	-0.3749	26.52	0.63	-0.750			
0.8211	52552.66	3.3200	3.3200	-0.3656	26.53	0.64	-0.750			
0.8222	52621.75	3.3170	3.3170	-0.3551	26.53	0.64	-0.750			
0.8233	52688.60	3.3140	3.3140	-0.3444	26.54	0.65	-0.750			
0.8243	52753.28	3.3110	3.3110	-0.3346	26.54	0.65	-0.750			
0.8253	52816.67	3.3080	3.3080	-0.3259	26.55	0.66	-0.750			
0.8262	52878.52	3.3050	3.3050	-0.3190	26.55	0.66	-0.750			
0.8272	52939.01	3.3020	3.3020	-0.3123	26.56	0.67	-0.750			
0.8281	52997.83	3.2990	3.2990	-0.3031	26.56	0.67	-0.750			
0.8290	53055.67	3.2960	3.2960	-0.2975	26.56	0.67	-0.750			
0.8299	53112.19	3.2930	3.2930	-0.2901	26.57	0.68	-0.750			
0.8307	53167.11	3.2900	3.2900	-0.2834	26.57	0.68	-0.750			
0.8316	53220.86	3.2870	3.2870	-0.2771	26.58	0.69	-0.750			
0.8324	53273.14	3.2840	3.2840	-0.2707	26.58	0.69	-0.750			
0.8332	53324.29	3.2810	3.2810	-0.2652	26.58	0.69	-0.750			
0.8340	53374.83	3.2780	3.2781	-0.2611	26.59	0.70	-0.750			
0.8348	53424.48	3.2750	3.2750	-0.2548	26.59	0.70	-0.750			
0.8355	53473.13	3.2720	3.2720	-0.2504	26.60	0.71	-0.750			
0.8363	53520.40	3.2690	3.2691	-0.2454	26.60	0.71	-0.750			
0.8370	53567.06	3.2660	3.2660	-0.2410	26.61	0.72	-0.750			
0.8377	53612.70	3.2630	3.2629	-0.2374	26.61	0.72	-0.750			
0.8384	53657.89	3.2600	3.2600	-0.2329	26.62	0.73	-0.750			
0.8391	53702.47	3.2570	3.2570	-0.2287	26.62	0.73	-0.750			
0.8398	53746.01	3.2540	3.2540	-0.2248	26.63	0.74	-0.750			
0.8405	53789.22	3.2510	3.2510	-0.2217	26.64	0.75	-0.750			
0.8411	53831.19	3.2480	3.2480	-0.2174	26.64	0.75	-0.750			
0.8417	53871.98	3.2450	3.2450	-0.2137	26.65	0.76	-0.750			
0.8424	53912.76	3.2420	3.2419	-0.2110	26.65	0.76	-0.750			
0.8430	53952.73	3.2390	3.2391	-0.2079	26.66	0.77	-0.750			
0.8436	53992.62	3.2360	3.2360	-0.2056	26.66	0.77	-0.750			
0.8442	54031.75	3.2330	3.2330	-0.2036	26.67	0.78	-0.750			
0.8449	54070.60	3.2300	3.2300	-0.2012	26.67	0.78	-0.750			
0.8455	54108.90	3.2270	3.2270	-0.1984	26.68	0.79	-0.750			
0.8460	54147.07	3.2240	3.2240	-0.1958	26.68	0.79	-0.750			
0.8466	54183.79	3.2210	3.2211	-0.1935	26.69	0.80	-0.750			
0.8472	54221.03	3.2180	3.2179	-0.1914	26.69	0.80	-0.750			
0.8478	54257.71	3.2150	3.2150	-0.1895	26.70	0.81	-0.750			
0.8483	54294.06	3.2120	3.2119	-0.1863	26.70	0.81	-0.750			
0.8489	54329.39	3.2090	3.2093	-0.1835	26.70	0.81	-0.750			
0.8494	54364.16	3.2060	3.2061	-0.1817	26.71	0.82	-0.750			
0.8500	54398.95	3.2030	3.2029	-0.1798	26.71	0.82	-0.750			
0.8505	54433.29	3.2000	3.1999	-0.1771	26.72	0.83	-0.750			
0.8510	54466.61	3.1970	3.1970	-0.1740	26.72	0.83	-0.750			
0.8516	54500.16	3.1940	3.1940	-0.1731	26.73	0.84	-0.750			
0.8521	54533.21	3.1910	3.1912	-0.1711	26.73	0.84	-0.750			
0.8526	54565.95	3.1880	3.1879	-0.1698	26.74	0.85	-0.750			
0.8531	54598.14	3.1850	3.1850	-0.1678	26.74	0.85	-0.750			
0.8536	54630.02	3.1820	3.1820	-0.1657	26.75	0.86	-0.750			
0.8541	54661.75	3.1790	3.1790	-0.1648	26.75	0.86	-0.750			
0.8546	54693.57	3.1760	3.1760	-0.1637	26.76	0.87	-0.750			
0.8551	54725.20	3.1730	3.1730	-0.1613	26.76	0.87	-0.750			
0.8556	54756.11	3.1700	3.1699	-0.1589	26.77	0.88	-0.750			
0.8560	54786.16	3.1670	3.1671	-0.1572	26.77	0.88	-0.750			
0.8565	54815.77	3.1640	3.1641	-0.1562	26.78	0.89	-0.750			
0.8570	54845.61	3.1610	3.1609	-0.1545	26.78	0.89	-0.750			
0.8574	54874.98	3.1580	3.1579	-0.1531	26.79	0.90	-0.750			
0.8579	54904.34	3.1550	3.1550	-0.1522	26.79	0.90	-0.750			
0.8583	54933.58	3.1520	3.1521	-0.1511	26.80	0.91	-0.750			
0.8588	54963.00	3.1490	3.1490	-0.1506	26.80	0.91	-0.750			
0.8592	54991.70	3.1460	3.1460	-0.1485	26.81	0.92	-0.750			
0.8597	55019.80	3.1430	3.1430	-0.1468	26.82	0.93	-0.750			
0.8601	55047.66	3.1400	3.1400	-0.1451	26.82	0.93	-0.750			
0.8606	55075.57	3.1370	3.1370	-0.1442	26.83	0.94	-0.750			
0.8610	55103.00	3.1340	3.1340	-0.1434	26.83	0.94	-0.750			
0.8614	55130.22	3.1310	3.1311	-0.1422	26.84	0.95	-0.750			
0.8618	55157.59	3.1280	3.1280	-0.1412	26.85	0.96	-0.750			
0.8623	55184.61	3.1250	3.1249	-0.1402	26.85	0.96	-0.750			
0.8627	55211.55	3.1220	3.1220	-0.1394	26.86	0.97	-0.750			
0.8631	55238.19	3.1190	3.1192	-0.1384	26.86	0.97	-0.750			
0.8635	55264.96	3.1160	3.1158	-0.1370	26.87	0.98	-0.750			
0.8639	55291.10	3.1130	3.1131	-0.1352	26.87	0.98	-0.750			
0.8643	55316.80	3.1100	3.1100	-0.1337	26.88	0.99	-0.750			
0.8647	55342.24	3.1070	3.1070	-0.1328	26.88	0.99	-0.750			
0.8651	55367.54	3.1040	3.1040	-0.1317	26.89	1.00	-0.750			
0.8655	55392.73	3.1010	3.1009	-0.1307	26.89	1.00	-0.750			
0.8659	55417.45	3.0980	3.0980	-0.1298	26.90	1.01	-0.750			
0.8663	55442.33	3.0950	3.0950	-0.1290	26.90	1.01	-0.750			
0.8667	55467.31	3.0920	3.0920	-0.1291	26.91	1.02	-0.750			
0.8671	55492.00	3.0890	3.0890	-0.1281	26.91	1.02	-0.750			
0.8674	55516.48	3.0860	3.0860	-0.1271	26.92	1.03	-0.750			
0.8678	55540.84	3.0830	3.0831	-0.1260	26.92	1.03	-0.750			
0.8682	55564.87	3.0800	3.0800	-0.1251	26.93	1.04	-0.750			
0.8686	55588.86	3.0770	3.0770	-0.1242	26.93	1.04	-0.750			
0.8689	55612.48	3.0740	3.0741	-0.1232	26.94	1.05	-0.750			
0.8693	55636.05	3.0710	3.0709	-0.1224	26.94	1.05	-0.750			
0.8697	55659.41	3.0680	3.0681	-0.1216	26.95	1.06	-0.750			
0.8700	55682.69	3.0650	3.0650	-0.1209	26.95	1.06	-0.750			
0.8704	55705.74	3.0620	3.0620	-0.1203	26.96	1.07	-0.750			
0.8708	55728.85	3.0590	3.0590	-0.1199	26.96	1.07	-0.750			
0.8711	55751.87	3.0560	3.0560	-0.1190	26.97	1.08	-0.750			
0.8715	55774.63	3.0530	3.0530	-0.1182	26.97	1.08	-0.750			
0.8718	55797.31	3.0500	3.0501	-0.1167	26.98	1.09	-0.750			
0.8722	55819.82	3.0470	3.0470	-0.1157	26.98	1.09	-0.750			
0.8725	55841.77	3.0440	3.0440	-0.1152	26.99	1.10	-0.750			
0.8729	55863.73	3.0410	3.0410	-0.1142	26.99	1.10	-0.750			
0.8732	55885.32	3.0380	3.0380	-0.1135	27.00	1.11	-0.750			
0.8735	55907.09	3.0350	3.0348	-0.1133	27.01	1.12	-0.750			
0.8739	55928.83	3.0320	3.0321	-0.1127	27.01	1.12	-0.750			
0.8742	55950.44	3.0290	3.0290	-0.1124	27.02	1.13	-0.750			
0.8746	55972.28	3.0260	3.0262	-0.1122	27.02	1.13	-0.750			
0.8749	55993.74	3.0230	3.0229	-0.1113	27.03	1.14	-0.750			
0.8752	56014.93	3.0200	3.0201	-0.1106	27.03	1.14	-0.750			
0.8756	56036.10	3.0170	3.0169	-0.1099	27.04	1.15	-0.750			
0.8759	56057.22	3.0140	3.0140	-0.1089	27.04	1.15	-0.750			
0.8762	56078.05	3.0110	3.0110	-0.1080	27.05	1.16	-0.750			
0.8765	56098.82	3.0080	3.0081	-0.1070	27.05	1.16	-0.751			
0.8769	56119.24	3.0050	3.0050	-0.1057	27.06	1.17	-0.751			
0.8772	56139.30	3.0020	3.0020	-0.1020	27.06	1.17	-0.751			
