Ah_balance (normalized)	Ah_balance (mAh)	Voltage - fit (V)	Voltage -  interpolate (V)	dQ/dV (1/V)	Temperature (°C)	Temperature - diff (°C)	Current (C)	R_DC 0ms (mOhm)	R_DC 50ms (mOhm)	R_DC 50 ms PEC (mOhm)
0.0003	19.59	4.1560	4.1557	-0.1109	25.10	0.00	-0.750			
0.0007	44.38	4.1530	4.1529	-0.1479	25.10	0.00	-0.750			
0.0012	77.62	4.1500	4.1499	-0.1843	25.10	0.00	-0.750			
0.0018	115.91	4.1470	4.1470	-0.2184	25.10	0.00	-0.750			
0.0025	161.57	4.1440	4.1440	-0.2511	25.10	0.00	-0.750			
0.0033	213.79	4.1410	4.1410	-0.2836	25.10	0.00	-0.750			
0.0042	271.11	4.1380	4.1379	-0.3149	25.10	0.00	-0.750			
0.0052	334.95	4.1350	4.1350	-0.3448	25.10	0.00	-0.750			
0.0063	404.25	4.1320	4.1319	-0.3741	25.10	-0.00	-0.750			
0.0075	479.27	4.1290	4.1290	-0.4024	25.10	-0.00	-0.750			
0.0087	559.52	4.1260	4.1260	-0.4274	25.10	-0.00	-0.750			
0.0101	644.93	4.1230	4.1230	-0.4510	25.10	-0.00	-0.750			
0.0115	734.80	4.1200	4.1200	-0.4733	25.10	-0.00	-0.750			
0.0129	827.35	4.1170	4.1170	-0.4933	25.09	-0.01	-0.750			
0.0145	924.89	4.1140	4.1140	-0.5126	25.09	-0.01	-0.750			
0.0160	1025.27	4.1110	4.1110	-0.5256	25.09	-0.01	-0.750			
0.0176	1127.49	4.1080	4.1080	-0.5437	25.09	-0.01	-0.750			
0.0193	1234.26	4.1050	4.1050	-0.5567	25.09	-0.01	-0.750			
0.0210	1343.01	4.1020	4.1018	-0.5692	25.09	-0.01	-0.750			
0.0227	1452.99	4.0990	4.0990	-0.5780	25.08	-0.02	-0.750			
0.0245	1564.92	4.0960	4.0962	-0.5881	25.08	-0.02	-0.750			
0.0263	1680.43	4.0930	4.0929	-0.5995	25.08	-0.02	-0.750			
0.0281	1797.15	4.0900	4.0899	-0.6054	25.07	-0.03	-0.750			
0.0299	1912.01	4.0870	4.0871	-0.6093	25.07	-0.03	-0.750			
0.0317	2030.58	4.0840	4.0840	-0.6188	25.07	-0.03	-0.750			
0.0336	2150.06	4.0810	4.0810	-0.6273	25.07	-0.03	-0.750			
0.0355	2270.93	4.0780	4.0779	-0.6357	25.07	-0.03	-0.750			
0.0374	2393.83	4.0750	4.0750	-0.6414	25.08	-0.02	-0.750			
0.0394	2519.38	4.0720	4.0720	-0.6495	25.08	-0.02	-0.750			
0.0413	2645.26	4.0690	4.0690	-0.6529	25.08	-0.02	-0.750			
0.0433	2770.44	4.0660	4.0661	-0.6585	25.08	-0.02	-0.750			
0.0453	2896.66	4.0630	4.0630	-0.6606	25.08	-0.02	-0.750			
0.0472	3022.53	4.0600	4.0600	-0.6684	25.08	-0.02	-0.750			
0.0492	3150.65	4.0570	4.0570	-0.6734	25.08	-0.02	-0.750			
0.0513	3283.74	4.0540	4.0540	-0.6787	25.08	-0.02	-0.750			
0.0533	3413.63	4.0510	4.0510	-0.6779	25.08	-0.02	-0.750			
0.0554	3544.71	4.0480	4.0483	-0.6817	25.08	-0.02	-0.750			
0.0574	3675.75	4.0450	4.0450	-0.6781	25.08	-0.02	-0.750			
0.0594	3804.16	4.0420	4.0419	-0.6815	25.09	-0.01	-0.750			
0.0615	3934.51	4.0390	4.0390	-0.6815	25.09	-0.01	-0.750			
0.0635	4065.53	4.0360	4.0361	-0.6866	25.10	-0.00	-0.750			
0.0656	4198.43	4.0330	4.0329	-0.6909	25.10	0.00	-0.750			
0.0677	4331.14	4.0300	4.0300	-0.6934	25.11	0.01	-0.750			
0.0698	4464.58	4.0270	4.0270	-0.6970	25.11	0.01	-0.750			
0.0719	4599.57	4.0240	4.0240	-0.7024	25.11	0.01	-0.750			
0.0740	4733.68	4.0210	4.0210	-0.7071	25.11	0.01	-0.750			
0.0761	4871.70	4.0180	4.0179	-0.7054	25.12	0.02	-0.750			
0.0783	5008.71	4.0150	4.0149	-0.7066	25.12	0.02	-0.750			
0.0804	5143.89	4.0120	4.0123	-0.7065	25.12	0.02	-0.750			
0.0825	5278.59	4.0090	4.0090	-0.7081	25.12	0.02	-0.750			
0.0846	5413.05	4.0060	4.0059	-0.7124	25.13	0.03	-0.750			
0.0867	5548.30	4.0030	4.0030	-0.7131	25.13	0.03	-0.750			
0.0889	5688.42	4.0000	4.0000	-0.7183	25.14	0.04	-0.750			
0.0910	5826.81	3.9970	3.9970	-0.7215	25.15	0.05	-0.750			
0.0932	5966.22	3.9940	3.9942	-0.7209	25.15	0.05	-0.750			
0.0954	6104.91	3.9910	3.9909	-0.7160	25.16	0.06	-0.750			
0.0975	6239.23	3.9880	3.9880	-0.7170	25.16	0.06	-0.750			
0.0996	6377.38	3.9850	3.9850	-0.7216	25.17	0.07	-0.750			
0.1018	6517.01	3.9820	3.9819	-0.7250	25.17	0.07	-0.750			
0.1040	6656.84	3.9790	3.9789	-0.7254	25.18	0.08	-0.750			
0.1062	6795.25	3.9760	3.9762	-0.7269	25.18	0.08	-0.750			
0.1084	6935.94	3.9730	3.9730	-0.7308	25.18	0.08	-0.750			
0.1106	7077.45	3.9700	3.9699	-0.7355	25.19	0.09	-0.750			
0.1128	7216.32	3.9670	3.9670	-0.7338	25.19	0.09	-0.750			
0.1150	7358.72	3.9640	3.9640	-0.7406	25.20	0.10	-0.750			
0.1172	7502.73	3.9610	3.9610	-0.7472	25.20	0.10	-0.750			
0.1195	7646.12	3.9580	3.9578	-0.7497	25.20	0.10	-0.750			
0.1217	7789.44	3.9550	3.9550	-0.7509	25.21	0.11	-0.750			
0.1240	7933.81	3.9520	3.9521	-0.7575	25.21	0.11	-0.750			
0.1263	8081.10	3.9490	3.9490	-0.7559	25.21	0.11	-0.750			
0.1286	8228.05	3.9460	3.9459	-0.7565	25.22	0.12	-0.750			
0.1308	8372.43	3.9430	3.9432	-0.7592	25.22	0.12	-0.750			
0.1331	8517.83	3.9400	3.9399	-0.7568	25.23	0.13	-0.750			
0.1354	8663.05	3.9370	3.9369	-0.7547	25.24	0.14	-0.750			
0.1376	8805.97	3.9340	3.9340	-0.7552	25.24	0.14	-0.750			
0.1399	8952.33	3.9310	3.9311	-0.7630	25.25	0.15	-0.750			
0.1422	9099.26	3.9280	3.9278	-0.7646	25.26	0.16	-0.750			
0.1445	9246.27	3.9250	3.9248	-0.7643	25.26	0.16	-0.750			
0.1468	9392.09	3.9220	3.9220	-0.7687	25.26	0.16	-0.750			
0.1491	9541.85	3.9190	3.9191	-0.7680	25.26	0.16	-0.750			
0.1514	9688.38	3.9160	3.9160	-0.7635	25.26	0.16	-0.750			
0.1537	9834.89	3.9130	3.9129	-0.7641	25.26	0.16	-0.750			
0.1560	9981.62	3.9100	3.9102	-0.7662	25.26	0.16	-0.750			
0.1583	10128.08	3.9070	3.9070	-0.7685	25.26	0.16	-0.750			
0.1606	10276.06	3.9040	3.9039	-0.7737	25.27	0.17	-0.750			
0.1629	10426.34	3.9010	3.9010	-0.7730	25.27	0.17	-0.750			
0.1653	10576.47	3.8980	3.8980	-0.7811	25.28	0.18	-0.750			
0.1676	10725.84	3.8950	3.8950	-0.7810	25.28	0.18	-0.750			
0.1699	10875.72	3.8920	3.8919	-0.7803	25.28	0.18	-0.750			
0.1723	11024.49	3.8890	3.8889	-0.7799	25.29	0.19	-0.750			
0.1746	11174.07	3.8860	3.8861	-0.7808	25.29	0.19	-0.750			
0.1770	11325.49	3.8830	3.8830	-0.7869	25.29	0.19	-0.750			
0.1793	11476.50	3.8800	3.8799	-0.7856	25.30	0.20	-0.750			
0.1817	11627.34	3.8770	3.8770	-0.7833	25.30	0.20	-0.750			
0.1840	11777.12	3.8740	3.8740	-0.7815	25.30	0.20	-0.750			
0.1864	11927.56	3.8710	3.8710	-0.7792	25.30	0.20	-0.750			
0.1887	12076.21	3.8680	3.8680	-0.7766	25.31	0.21	-0.750			
0.1910	12225.37	3.8650	3.8650	-0.7727	25.31	0.21	-0.750			
0.1933	12372.76	3.8620	3.8621	-0.7719	25.31	0.21	-0.750			
0.1956	12520.52	3.8590	3.8590	-0.7736	25.32	0.22	-0.750			
0.1979	12668.77	3.8560	3.8560	-0.7753	25.32	0.22	-0.750			
0.2003	12818.07	3.8530	3.8529	-0.7762	25.33	0.23	-0.750			
0.2026	12968.10	3.8500	3.8500	-0.7753	25.33	0.23	-0.750			
0.2050	13117.33	3.8470	3.8469	-0.7720	25.34	0.24	-0.750			
0.2073	13266.24	3.8440	3.8440	-0.7716	25.34	0.24	-0.750			
0.2096	13412.97	3.8410	3.8409	-0.7666	25.35	0.25	-0.750			
0.2118	13558.21	3.8380	3.8380	-0.7648	25.35	0.25	-0.750			
0.2141	13705.27	3.8350	3.8350	-0.7634	25.35	0.25	-0.750			
0.2164	13852.57	3.8320	3.8319	-0.7626	25.36	0.26	-0.750			
0.2187	13998.85	3.8290	3.8290	-0.7628	25.36	0.26	-0.750			
0.2210	14145.59	3.8260	3.8260	-0.7595	25.36	0.26	-0.750			
0.2233	14291.29	3.8230	3.8230	-0.7551	25.37	0.27	-0.750			
0.2256	14436.77	3.8200	3.8200	-0.7491	25.37	0.27	-0.750			
0.2278	14580.00	3.8170	3.8170	-0.7414	25.38	0.28	-0.750			
0.2300	14721.34	3.8140	3.8140	-0.7400	25.38	0.28	-0.750			
0.2322	14861.63	3.8110	3.8110	-0.7373	25.38	0.28	-0.750			
0.2344	15002.30	3.8080	3.8079	-0.7346	25.38	0.28	-0.750			
0.2366	15144.05	3.8050	3.8050	-0.7362	25.38	0.28	-0.750			
0.2389	15286.56	3.8020	3.8020	-0.7317	25.38	0.28	-0.750			
0.2411	15428.96	3.7990	3.7990	-0.7318	25.38	0.28	-0.750			
0.2433	15568.69	3.7960	3.7962	-0.7262	25.38	0.28	-0.750			
0.2454	15706.13	3.7930	3.7930	-0.7168	25.38	0.28	-0.750			
0.2476	15843.58	3.7900	3.7899	-0.7139	25.39	0.29	-0.750			
0.2497	15978.59	3.7870	3.7870	-0.7106	25.39	0.29	-0.750			
0.2518	16115.35	3.7840	3.7840	-0.7162	25.39	0.29	-0.750			
0.2539	16251.76	3.7810	3.7810	-0.7164	25.40	0.30	-0.750			
0.2561	16390.40	3.7780	3.7779	-0.7118	25.40	0.30	-0.750			
0.2582	16527.88	3.7750	3.7751	-0.7099	25.40	0.30	-0.750			
0.2604	16663.42	3.7720	3.7721	-0.7129	25.41	0.31	-0.750			
0.2625	16799.24	3.7690	3.7689	-0.7139	25.41	0.31	-0.750			
0.2646	16935.21	3.7660	3.7660	-0.7145	25.41	0.31	-0.750			
0.2668	17072.27	3.7630	3.7629	-0.7187	25.42	0.32	-0.750			
0.2689	17211.40	3.7600	3.7600	-0.7254	25.42	0.32	-0.750			
0.2711	17352.43	3.7570	3.7570	-0.7328	25.42	0.32	-0.750			
0.2733	17492.95	3.7540	3.7540	-0.7400	25.42	0.32	-0.750			
0.2755	17634.24	3.7510	3.7510	-0.7439	25.42	0.32	-0.750			
0.2778	17779.49	3.7480	3.7479	-0.7490	25.42	0.32	-0.750			
0.2801	17923.90	3.7450	3.7451	-0.7541	25.42	0.32	-0.750			
0.2823	18068.26	3.7420	3.7420	-0.7631	25.42	0.32	-0.750			
0.2846	18214.40	3.7390	3.7389	-0.7726	25.43	0.33	-0.750			
0.2869	18363.19	3.7360	3.7360	-0.7815	25.43	0.33	-0.750			
0.2893	18512.49	3.7330	3.7330	-0.7928	25.43	0.33	-0.750			
0.2917	18668.29	3.7300	3.7300	-0.8056	25.44	0.34	-0.750			
0.2941	18825.30	3.7270	3.7270	-0.8164	25.44	0.34	-0.750			
0.2966	18981.58	3.7240	3.7240	-0.8291	25.44	0.34	-0.750			
0.2991	19141.11	3.7210	3.7210	-0.8382	25.44	0.34	-0.750			
0.3016	19302.45	3.7180	3.7180	-0.8508	25.43	0.33	-0.750			
0.3042	19467.42	3.7150	3.7150	-0.8677	25.43	0.33	-0.750			
0.3068	19635.14	3.7120	3.7119	-0.8797	25.43	0.33	-0.750			
0.3095	19806.90	3.7090	3.7090	-0.8982	25.43	0.33	-0.750			
0.3122	19981.63	3.7060	3.7060	-0.9083	25.42	0.32	-0.750			
0.3149	20156.19	3.7030	3.7030	-0.9203	25.42	0.32	-0.750			
0.3177	20335.58	3.7000	3.7002	-0.9331	25.42	0.32	-0.750			
0.3205	20513.76	3.6970	3.6969	-0.9446	25.42	0.32	-0.750			
0.3234	20694.45	3.6940	3.6940	-0.9635	25.42	0.32	-0.750			
0.3262	20879.81	3.6910	3.6910	-0.9835	25.41	0.31	-0.750			
0.3293	21073.29	3.6880	3.6879	-1.0041	25.41	0.31	-0.750			
0.3323	21267.55	3.6850	3.6850	-1.0260	25.41	0.31	-0.750			
0.3354	21466.21	3.6820	3.6821	-1.0424	25.41	0.31	-0.750			
0.3386	21670.37	3.6790	3.6789	-1.0564	25.40	0.30	-0.750			
0.3418	21873.94	3.6760	3.6761	-1.0683	25.40	0.30	-0.750			
0.3450	22079.62	3.6730	3.6729	-1.0902	25.40	0.30	-0.750			
0.3483	22290.94	3.6700	3.6700	-1.1044	25.39	0.29	-0.750			
0.3516	22505.09	3.6670	3.6668	-1.1179	25.39	0.29	-0.750			
0.3550	22718.38	3.6640	3.6642	-1.1252	25.38	0.28	-0.750			
0.3584	22938.85	3.6610	3.6610	-1.1501	25.38	0.28	-0.750			
0.3619	23160.09	3.6580	3.6579	-1.1713	25.37	0.27	-0.750			
0.3654	23384.30	3.6550	3.6550	-1.1840	25.36	0.26	-0.750			
0.3690	23612.84	3.6520	3.6521	-1.2149	25.36	0.26	-0.750			
0.3727	23853.80	3.6490	3.6490	-1.2430	25.35	0.25	-0.750			
0.3765	24095.64	3.6460	3.6459	-1.2616	25.35	0.25	-0.750			
0.3803	24341.16	3.6430	3.6432	-1.2908	25.34	0.24	-0.750			
0.3842	24591.48	3.6400	3.6399	-1.3066	25.33	0.23	-0.750			
0.3882	24843.63	3.6370	3.6369	-1.3250	25.33	0.23	-0.750			
0.3922	25098.66	3.6340	3.6343	-1.3574	25.32	0.22	-0.750			
0.3963	25361.92	3.6310	3.6309	-1.3836	25.32	0.22	-0.750			
0.4005	25630.90	3.6280	3.6278	-1.4045	25.32	0.22	-0.750			
0.4047	25902.46	3.6250	3.6252	-1.4262	25.32	0.22	-0.750			
0.4090	26177.16	3.6220	3.6220	-1.4527	25.31	0.21	-0.750			
0.4134	26460.31	3.6190	3.6190	-1.4987	25.31	0.21	-0.750			
0.4180	26750.21	3.6160	3.6161	-1.5255	25.30	0.20	-0.750			
0.4226	27044.07	3.6130	3.6131	-1.5433	25.30	0.20	-0.750			
0.4273	27348.52	3.6100	3.6101	-1.5877	25.29	0.19	-0.750	0.406	0.587	
0.4322	27658.10	3.6070	3.6070	-1.6170	25.29	0.19	-0.750			
0.4370	27970.29	3.6040	3.6040	-1.6528	25.28	0.18	-0.750			
0.4420	28289.25	3.6010	3.6012	-1.6793	25.28	0.18	-0.750			
0.4471	28616.23	3.5980	3.5981	-1.6924	25.28	0.18	-0.750			
0.4523	28949.04	3.5950	3.5948	-1.7373	25.28	0.18	-0.750			
0.4576	29286.06	3.5920	3.5919	-1.7717	25.28	0.18	-0.750			
0.4629	29627.15	3.5890	3.5889	-1.8093	25.27	0.17	-0.750			
0.4683	29972.79	3.5860	3.5862	-1.8421	25.27	0.17	-0.750			
0.4741	30340.12	3.5830	3.5832	-1.8652	25.27	0.17	-0.750			
0.4797	30698.50	3.5800	3.5803	-1.9133	25.26	0.16	-0.750			
0.4855	31070.43	3.5770	3.5771	-1.9379	25.26	0.16	-0.750			
0.4913	31442.74	3.5740	3.5740	-1.9536	25.26	0.16	-0.750			
0.4972	31821.62	3.5710	3.5707	-1.9889	25.26	0.16	-0.750			
0.5032	32205.22	3.5680	3.5681	-2.0118	25.27	0.17	-0.750			
0.5093	32594.39	3.5650	3.5649	-2.0359	25.27	0.17	-0.750			
0.5155	32992.58	3.5620	3.5622	-2.0703	25.26	0.16	-0.750			
0.5217	33387.94	3.5590	3.5592	-2.0839	25.26	0.16	-0.750			
0.5281	33797.60	3.5560	3.5557	-2.1130	25.27	0.17	-0.750			
0.5344	34202.44	3.5530	3.5530	-2.0991	25.27	0.17	-0.750			
0.5408	34608.55	3.5500	3.5501	-2.1007	25.28	0.18	-0.750			
0.5470	35009.70	3.5470	3.5469	-2.0871	25.28	0.18	-0.750			
0.5534	35414.62	3.5440	3.5440	-2.0530	25.29	0.19	-0.750			
0.5594	35801.66	3.5410	3.5410	-2.0401	25.29	0.19	-0.750			
0.5655	36190.76	3.5380	3.5380	-2.0162	25.30	0.20	-0.750			
0.5715	36573.02	3.5350	3.5347	-1.9968	25.31	0.21	-0.750			
0.5775	36959.74	3.5320	3.5323	-2.0040	25.32	0.22	-0.750			
0.5834	37340.80	3.5290	3.5290	-1.9620	25.32	0.22	-0.750			
0.5894	37721.58	3.5260	3.5262	-1.9361	25.32	0.22	-0.750			
0.5952	38093.19	3.5230	3.5230	-1.8968	25.33	0.23	-0.750			
0.6009	38459.61	3.5200	3.5198	-1.8732	25.35	0.25	-0.750			
0.6064	38808.55	3.5170	3.5171	-1.8154	25.36	0.26	-0.750			
0.6118	39152.03	3.5140	3.5141	-1.7905	25.37	0.27	-0.750			
0.6171	39496.94	3.5110	3.5111	-1.7395	25.38	0.28	-0.750			
0.6223	39829.92	3.5080	3.5079	-1.7088	25.39	0.29	-0.750			
0.6274	40151.97	3.5050	3.5049	-1.6610	25.40	0.30	-0.750			
0.6323	40465.91	3.5020	3.5020	-1.6136	25.41	0.31	-0.750			
0.6370	40767.68	3.4990	3.4988	-1.5628	25.43	0.33	-0.750			
0.6416	41064.12	3.4960	3.4960	-1.5235	25.44	0.34	-0.750			
0.6461	41352.95	3.4930	3.4929	-1.4842	25.45	0.35	-0.750			
0.6506	41637.07	3.4900	3.4900	-1.4494	25.46	0.36	-0.750			
0.6548	41907.73	3.4870	3.4871	-1.4006	25.48	0.38	-0.750			
0.6590	42175.27	3.4840	3.4839	-1.3608	25.49	0.39	-0.750			
0.6630	42433.96	3.4810	3.4810	-1.3170	25.51	0.41	-0.750			
0.6669	42681.00	3.4780	3.4781	-1.2738	25.53	0.43	-0.750			
0.6707	42922.26	3.4750	3.4750	-1.2363	25.54	0.44	-0.750			
0.6744	43158.52	3.4720	3.4719	-1.2017	25.56	0.46	-0.750			
0.6779	43384.68	3.4690	3.4689	-1.1591	25.57	0.47	-0.750			
0.6813	43602.47	3.4660	3.4662	-1.1214	25.58	0.48	-0.750			
0.6846	43816.14	3.4630	3.4629	-1.0882	25.60	0.50	-0.750			
0.6878	44020.25	3.4600	3.4600	-1.0479	25.62	0.52	-0.750			
0.6908	44213.93	3.4570	3.4570	-1.0028	25.63	0.53	-0.750			
0.6938	44405.96	3.4540	3.4541	-0.9873	25.64	0.54	-0.750			
0.6967	44590.42	3.4510	3.4510	-0.9608	25.65	0.55	-0.750			
0.6996	44773.22	3.4480	3.4480	-0.9407	25.66	0.56	-0.750			
0.7024	44950.72	3.4450	3.4448	-0.9208	25.67	0.57	-0.750			
0.7051	45126.38	3.4420	3.4422	-0.9089	25.68	0.58	-0.750			
0.7078	45298.98	3.4390	3.4390	-0.8966	25.69	0.59	-0.750			
0.7105	45469.82	3.4360	3.4360	-0.8831	25.71	0.61	-0.750			
0.7131	45635.55	3.4330	3.4330	-0.8707	25.72	0.62	-0.750			
0.7157	45802.62	3.4300	3.4300	-0.8653	25.74	0.64	-0.750			
0.7183	45968.48	3.4270	3.4271	-0.8669	25.75	0.65	-0.750			
0.7208	46133.00	3.4240	3.4240	-0.8702	25.76	0.66	-0.750			
0.7234	46299.07	3.4210	3.4210	-0.8739	25.77	0.67	-0.750			
0.7261	46468.22	3.4180	3.4180	-0.8808	25.78	0.68	-0.750			
0.7287	46639.56	3.4150	3.4149	-0.8820	25.78	0.68	-0.750			
0.7314	46809.21	3.4120	3.4122	-0.8813	25.79	0.69	-0.750			
0.7341	46979.78	3.4090	3.4090	-0.8854	25.80	0.70	-0.750			
0.7367	47148.83	3.4060	3.4059	-0.8794	25.80	0.70	-0.750			
0.7393	47317.10	3.4030	3.4030	-0.8721	25.81	0.71	-0.750			
0.7420	47485.34	3.4000	3.4000	-0.8677	25.82	0.72	-0.750			
0.7446	47654.83	3.3970	3.3970	-0.8564	25.83	0.73	-0.750			
0.7472	47818.48	3.3940	3.3940	-0.8428	25.84	0.74	-0.750			
0.7497	47979.76	3.3910	3.3910	-0.8189	25.85	0.75	-0.750			
0.7521	48134.11	3.3880	3.3880	-0.7947	25.86	0.76	-0.750			
0.7544	48284.71	3.3850	3.3849	-0.7746	25.87	0.77	-0.750			
0.7567	48430.70	3.3820	3.3821	-0.7513	25.87	0.77	-0.750			
0.7589	48572.38	3.3790	3.3789	-0.7307	25.88	0.78	-0.750			
0.7611	48711.02	3.3760	3.3760	-0.7134	25.88	0.78	-0.750			
0.7632	48845.75	3.3730	3.3730	-0.6901	25.88	0.78	-0.750			
0.7653	48977.61	3.3700	3.3700	-0.6728	25.89	0.79	-0.750			
0.7673	49105.22	3.3670	3.3671	-0.6502	25.89	0.79	-0.750			
0.7692	49227.40	3.3640	3.3640	-0.6305	25.89	0.79	-0.750			
0.7710	49346.50	3.3610	3.3609	-0.6104	25.90	0.80	-0.750			
0.7728	49461.47	3.3580	3.3581	-0.5894	25.91	0.81	-0.750			
0.7746	49571.40	3.3550	3.3550	-0.5714	25.92	0.82	-0.750			
0.7763	49681.29	3.3520	3.3520	-0.5554	25.92	0.82	-0.750			
0.7779	49785.57	3.3490	3.3490	-0.5360	25.93	0.83	-0.750			
0.7795	49886.51	3.3460	3.3459	-0.5197	25.94	0.84	-0.750			
0.7810	49984.11	3.3430	3.3431	-0.5017	25.94	0.84	-0.750			
0.7825	50078.66	3.3400	3.3399	-0.4873	25.95	0.85	-0.750			
0.7839	50170.52	3.3370	3.3370	-0.4733	25.95	0.85	-0.750			
0.7853	50259.32	3.3340	3.3341	-0.4567	25.96	0.86	-0.750			
0.7867	50346.24	3.3310	3.3310	-0.4463	25.96	0.86	-0.750			
0.7880	50430.52	3.3280	3.3280	-0.4333	25.97	0.87	-0.750			
0.7893	50512.56	3.3250	3.3249	-0.4213	25.98	0.88	-0.750			
0.7905	50592.25	3.3220	3.3220	-0.4086	25.98	0.88	-0.750			
0.7917	50669.27	3.3190	3.3190	-0.3963	25.99	0.89	-0.750			
0.7929	50744.40	3.3160	3.3160	-0.3854	25.99	0.89	-0.750			
0.7940	50817.18	3.3130	3.3130	-0.3775	26.00	0.90	-0.750			
0.7951	50887.92	3.3100	3.3100	-0.3654	26.00	0.90	-0.750			
0.7962	50957.28	3.3070	3.3070	-0.3570	26.01	0.91	-0.750			
0.7973	51025.31	3.3040	3.3041	-0.3479	26.01	0.91	-0.750			
0.7983	51091.23	3.3010	3.3010	-0.3388	26.02	0.92	-0.750			
0.7993	51155.26	3.2980	3.2979	-0.3287	26.02	0.92	-0.750			
0.8003	51216.75	3.2950	3.2951	-0.3215	26.03	0.93	-0.750			
0.8012	51277.34	3.2920	3.2919	-0.3143	26.03	0.93	-0.750			
0.8021	51337.07	3.2890	3.2890	-0.3101	26.03	0.93	-0.750			
0.8031	51396.10	3.2860	3.2860	-0.3036	26.04	0.94	-0.750			
0.8040	51454.16	3.2830	3.2830	-0.2986	26.04	0.94	-0.750			
0.8049	51511.00	3.2800	3.2800	-0.2922	26.05	0.95	-0.750			
0.8057	51566.60	3.2770	3.2770	-0.2858	26.05	0.95	-0.750			
0.8066	51620.27	3.2740	3.2740	-0.2793	26.06	0.96	-0.750			
0.8074	51673.31	3.2710	3.2710	-0.2735	26.07	0.97	-0.750			
0.8082	51724.65	3.2680	3.2681	-0.2676	26.07	0.97	-0.750			
0.8090	51775.95	3.2650	3.2650	-0.2645	26.08	0.98	-0.750			
0.8098	51826.26	3.2620	3.2621	-0.2600	26.09	0.99	-0.750			
0.8106	51875.78	3.2590	3.2590	-0.2571	26.09	0.99	-0.750			
0.8113	51924.76	3.2560	3.2560	-0.2534	26.10	1.00	-0.750			
0.8121	51973.03	3.2530	3.2530	-0.2496	26.10	1.00	-0.750			
0.8128	52020.69	3.2500	3.2500	-0.2450	26.11	1.01	-0.750			
0.8136	52067.34	3.2470	3.2471	-0.2416	26.12	1.02	-0.750			
0.8143	52113.17	3.2440	3.2441	-0.2377	26.12	1.02	-0.750			
0.8150	52158.52	3.2410	3.2409	-0.2342	26.13	1.03	-0.750			
0.8157	52202.83	3.2380	3.2379	-0.2302	26.13	1.03	-0.750			
0.8164	52246.71	3.2350	3.2350	-0.2265	26.14	1.04	-0.750			
0.8170	52289.88	3.2320	3.2319	-0.2239	26.15	1.05	-0.750			
0.8177	52332.57	3.2290	3.2291	-0.2208	26.15	1.05	-0.750			
0.8184	52374.64	3.2260	3.2260	-0.2190	26.15	1.05	-0.750			
0.8190	52416.12	3.2230	3.2230	-0.2159	26.16	1.06	-0.750			
0.8196	52457.58	3.2200	3.2200	-0.2134	26.16	1.06	-0.750			
0.8203	52498.49	3.2170	3.2170	-0.2112	26.17	1.07	-0.750			
0.8209	52538.77	3.2140	3.2140	-0.2083	26.17	1.07	-0.750			
0.8215	52578.64	3.2110	3.2110	-0.2062	26.18	1.08	-0.750			
0.8222	52617.82	3.2080	3.2080	-0.2029	26.19	1.09	-0.750			
0.8228	52656.51	3.2050	3.2049	-0.2001	26.19	1.09	-0.750			
0.8234	52694.50	3.2020	3.2020	-0.1968	26.20	1.10	-0.750			
0.8239	52732.12	3.1990	3.1990	-0.1945	26.20	1.10	-0.750			
0.8245	52768.70	3.1960	3.1961	-0.1932	26.21	1.11	-0.750			
0.8251	52805.65	3.1930	3.1929	-0.1918	26.21	1.11	-0.750			
0.8257	52842.21	3.1900	3.1900	-0.1892	26.21	1.11	-0.750			
0.8262	52878.34	3.1870	3.1869	-0.1870	26.22	1.12	-0.750			
0.8268	52914.49	3.1840	3.1841	-0.1855	26.22	1.12	-0.750			
0.8273	52949.85	3.1810	3.1812	-0.1829	26.23	1.13	-0.750			
0.8279	52984.94	3.1780	3.1779	-0.1814	26.23	1.13	-0.750			
0.8284	53019.36	3.1750	3.1750	-0.1790	26.24	1.14	-0.750			
0.8290	53053.02	3.1720	3.1720	-0.1760	26.24	1.14	-0.750			
0.8295	53086.72	3.1690	3.1690	-0.1750	26.25	1.15	-0.750			
0.8300	53120.58	3.1660	3.1660	-0.1736	26.25	1.15	-0.750			
0.8305	53153.71	3.1630	3.1630	-0.1717	26.25	1.15	-0.750			
0.8310	53186.67	3.1600	3.1600	-0.1700	26.26	1.16	-0.750			
0.8315	53219.10	3.1570	3.1570	-0.1678	26.26	1.16	-0.750			
0.8320	53250.91	3.1540	3.1540	-0.1659	26.27	1.17	-0.750			
0.8325	53282.62	3.1510	3.1510	-0.1644	26.27	1.17	-0.750			
0.8330	53313.85	3.1480	3.1480	-0.1627	26.28	1.18	-0.750			
0.8335	53344.96	3.1450	3.1450	-0.1614	26.29	1.19	-0.750			
0.8340	53375.67	3.1420	3.1420	-0.1608	26.29	1.19	-0.750			
0.8345	53406.47	3.1390	3.1390	-0.1596	26.30	1.20	-0.750			
0.8350	53437.28	3.1360	3.1359	-0.1587	26.30	1.20	-0.750			
0.8354	53467.62	3.1330	3.1330	-0.1573	26.31	1.21	-0.750			
0.8359	53497.84	3.1300	3.1301	-0.1557	26.31	1.21	-0.750			
0.8364	53527.81	3.1270	3.1270	-0.1539	26.32	1.22	-0.750			
0.8368	53556.95	3.1240	3.1240	-0.1521	26.32	1.22	-0.750			
0.8373	53585.97	3.1210	3.1211	-0.1502	26.33	1.23	-0.750			
0.8377	53614.35	3.1180	3.1180	-0.1485	26.34	1.24	-0.750			
0.8382	53642.70	3.1150	3.1149	-0.1472	26.34	1.24	-0.750			
0.8386	53670.79	3.1120	3.1120	-0.1460	26.35	1.25	-0.750			
0.8390	53698.73	3.1090	3.1090	-0.1450	26.35	1.25	-0.750			
0.8395	53726.35	3.1060	3.1060	-0.1448	26.35	1.25	-0.750			
0.8399	53754.31	3.1030	3.1029	-0.1438	26.36	1.26	-0.750			
0.8403	53781.88	3.1000	3.1000	-0.1425	26.36	1.26	-0.750			
0.8408	53809.12	3.0970	3.0970	-0.1413	26.37	1.27	-0.750			
0.8412	53836.32	3.0940	3.0941	-0.1402	26.37	1.27	-0.750			
0.8416	53863.11	3.0910	3.0910	-0.1392	26.38	1.28	-0.750			
0.8420	53889.62	3.0880	3.0879	-0.1376	26.38	1.28	-0.750			
0.8424	53915.93	3.0850	3.0850	-0.1363	26.38	1.28	-0.750			
0.8428	53941.78	3.0820	3.0819	-0.1346	26.39	1.29	-0.750			
0.8432	53967.70	3.0790	3.0790	-0.1339	26.39	1.29	-0.750			
0.8436	53993.18	3.0760	3.0760	-0.1329	26.40	1.30	-0.750			
0.8440	54018.59	3.0730	3.0730	-0.1318	26.41	1.31	-0.750			
0.8444	54043.71	3.0700	3.0700	-0.1308	26.41	1.31	-0.750			
0.8448	54068.68	3.0670	3.0670	-0.1297	26.42	1.32	-0.750			
0.8452	54093.48	3.0640	3.0640	-0.1292	26.43	1.33	-0.750			
0.8456	54118.22	3.0610	3.0611	-0.1286	26.43	1.33	-0.750			
0.8460	54142.92	3.0580	3.0580	-0.1279	26.44	1.34	-0.750			
0.8464	54167.44	3.0550	3.0550	-0.1269	26.44	1.34	-0.750			
0.8467	54191.69	3.0520	3.0520	-0.1259	26.45	1.35	-0.750			
0.8471	54215.75	3.0490	3.0491	-0.1250	26.45	1.35	-0.750			
0.8475	54239.75	3.0460	3.0460	-0.1243	26.46	1.36	-0.750			
0.8479	54263.57	3.0430	3.0431	-0.1234	26.47	1.37	-0.750			
0.8482	54287.01	3.0400	3.0400	-0.1220	26.47	1.37	-0.750			
0.8486	54310.42	3.0370	3.0369	-0.1210	26.48	1.38	-0.750			
0.8490	54333.60	3.0340	3.0340	-0.1202	26.48	1.38	-0.750			
0.8493	54356.49	3.0310	3.0311	-0.1195	26.49	1.39	-0.750			
0.8497	54379.36	3.0280	3.0280	-0.1188	26.49	1.39	-0.750			
0.8500	54402.11	3.0250	3.0250	-0.1180	26.50	1.40	-0.750			
0.8504	54424.57	3.0220	3.0220	-0.1171	26.51	1.41	-0.750			
0.8507	54447.22	3.0190	3.0189	-0.1159	26.51	1.41	-0.750			
0.8511	54469.52	3.0160	3.0162	-0.1150	26.52	1.42	-0.750			
0.8514	54491.54	3.0130	3.0129	-0.1133	26.52	1.42	-0.750			
0.8518	54513.47	3.0100	3.0101	-0.1118	26.53	1.43	-0.750			
0.8521	54534.73	3.0070	3.0072	-0.1097	26.53	1.43	-0.750			
0.8524	54555.63	3.0040	3.0039	-0.1074	26.54	1.44	-0.751			
0.8528	54576.04	3.0010	3.0010	-0.1052	26.54	1.44	-0.751			
