Ah_balance (normalized)	Ah_balance (mAh)	Voltage - fit (V)	Voltage -  interpolate (V)	dQ/dV (1/V)	Temperature (°C)	Temperature - diff (°C)	Current (C)	R_DC 0ms (mOhm)	R_DC 50ms (mOhm)	R_DC 50 ms PEC (mOhm)
0.0002	13.85	4.1620	4.1615	-0.0994	25.89	0.02	-0.750			
0.0006	37.80	4.1590	4.1587	-0.1446	25.89	0.02	-0.750			
0.0011	69.94	4.1560	4.1559	-0.1846	25.89	0.02	-0.750			
0.0017	109.16	4.1530	4.1530	-0.2231	25.89	0.02	-0.750			
0.0024	155.40	4.1500	4.1501	-0.2630	25.89	0.02	-0.750			
0.0033	210.37	4.1470	4.1470	-0.3002	25.89	0.02	-0.750			
0.0042	271.64	4.1440	4.1440	-0.3355	25.88	0.01	-0.750			
0.0053	339.33	4.1410	4.1411	-0.3722	25.88	0.01	-0.750			
0.0065	415.67	4.1380	4.1380	-0.4007	25.88	0.01	-0.750			
0.0078	497.06	4.1350	4.1349	-0.4299	25.88	0.01	-0.750			
0.0091	582.16	4.1320	4.1320	-0.4562	25.87	0.00	-0.750			
0.0105	672.22	4.1290	4.1291	-0.4813	25.87	-0.00	-0.750			
0.0120	768.05	4.1260	4.1259	-0.5026	25.87	-0.00	-0.750			
0.0135	867.02	4.1230	4.1230	-0.5218	25.86	-0.01	-0.750			
0.0152	969.86	4.1200	4.1200	-0.5369	25.86	-0.01	-0.750			
0.0168	1075.50	4.1170	4.1170	-0.5586	25.85	-0.02	-0.750			
0.0185	1184.03	4.1140	4.1140	-0.5718	25.85	-0.02	-0.750			
0.0202	1295.00	4.1110	4.1109	-0.5839	25.85	-0.02	-0.750			
0.0220	1409.48	4.1080	4.1079	-0.5940	25.84	-0.03	-0.750			
0.0238	1524.14	4.1050	4.1050	-0.6089	25.84	-0.03	-0.750			
0.0257	1642.96	4.1020	4.1020	-0.6178	25.83	-0.04	-0.750			
0.0275	1762.17	4.0990	4.0990	-0.6266	25.83	-0.04	-0.750			
0.0294	1882.35	4.0960	4.0959	-0.6309	25.82	-0.05	-0.750			
0.0314	2006.57	4.0930	4.0932	-0.6376	25.82	-0.05	-0.750			
0.0333	2129.73	4.0900	4.0899	-0.6410	25.81	-0.06	-0.750			
0.0352	2252.77	4.0870	4.0874	-0.6500	25.81	-0.06	-0.750			
0.0371	2377.05	4.0840	4.0839	-0.6495	25.81	-0.06	-0.750			
0.0391	2503.02	4.0810	4.0809	-0.6573	25.81	-0.06	-0.750			
0.0411	2629.29	4.0780	4.0780	-0.6657	25.81	-0.06	-0.750			
0.0431	2758.98	4.0750	4.0751	-0.6732	25.80	-0.07	-0.750			
0.0451	2889.39	4.0720	4.0720	-0.6770	25.80	-0.07	-0.750			
0.0472	3019.96	4.0690	4.0691	-0.6795	25.80	-0.07	-0.750			
0.0492	3150.00	4.0660	4.0659	-0.6828	25.80	-0.07	-0.750			
0.0513	3281.55	4.0630	4.0630	-0.6899	25.80	-0.07	-0.750			
0.0533	3412.83	4.0600	4.0600	-0.6956	25.80	-0.07	-0.750			
0.0554	3546.70	4.0570	4.0571	-0.6966	25.79	-0.08	-0.750			
0.0576	3684.85	4.0540	4.0539	-0.6991	25.79	-0.08	-0.750			
0.0597	3819.13	4.0510	4.0510	-0.6986	25.79	-0.08	-0.750			
0.0618	3952.87	4.0480	4.0480	-0.7013	25.79	-0.08	-0.750			
0.0639	4086.65	4.0450	4.0449	-0.7020	25.79	-0.08	-0.750			
0.0659	4220.64	4.0420	4.0420	-0.7000	25.79	-0.08	-0.750			
0.0680	4355.11	4.0390	4.0391	-0.7040	25.79	-0.08	-0.750			
0.0702	4492.93	4.0360	4.0360	-0.7079	25.79	-0.08	-0.750			
0.0723	4628.34	4.0330	4.0328	-0.7098	25.79	-0.08	-0.750			
0.0744	4763.16	4.0300	4.0300	-0.7110	25.79	-0.08	-0.750			
0.0766	4899.47	4.0270	4.0268	-0.7154	25.79	-0.08	-0.750			
0.0787	5037.40	4.0240	4.0241	-0.7215	25.79	-0.08	-0.750			
0.0809	5177.90	4.0210	4.0210	-0.7241	25.79	-0.08	-0.750			
0.0831	5317.93	4.0180	4.0180	-0.7288	25.79	-0.08	-0.750			
0.0853	5459.07	4.0150	4.0151	-0.7283	25.79	-0.08	-0.750			
0.0875	5596.87	4.0120	4.0120	-0.7281	25.79	-0.08	-0.750			
0.0896	5735.78	4.0090	4.0090	-0.7366	25.79	-0.08	-0.750			
0.0918	5877.83	4.0060	4.0059	-0.7370	25.80	-0.07	-0.750			
0.0941	6021.40	4.0030	4.0029	-0.7392	25.80	-0.07	-0.750			
0.0963	6164.26	4.0000	3.9999	-0.7377	25.80	-0.07	-0.750			
0.0985	6305.81	3.9970	3.9970	-0.7379	25.80	-0.07	-0.750			
0.1007	6447.56	3.9940	3.9940	-0.7391	25.80	-0.07	-0.750			
0.1029	6586.01	3.9910	3.9910	-0.7403	25.80	-0.07	-0.750			
0.1051	6728.83	3.9880	3.9880	-0.7389	25.80	-0.07	-0.750			
0.1074	6873.98	3.9850	3.9849	-0.7472	25.80	-0.07	-0.750			
0.1097	7019.26	3.9820	3.9822	-0.7474	25.80	-0.07	-0.750			
0.1119	7161.78	3.9790	3.9789	-0.7463	25.80	-0.07	-0.750			
0.1141	7303.99	3.9760	3.9761	-0.7440	25.80	-0.07	-0.750			
0.1164	7446.53	3.9730	3.9730	-0.7532	25.81	-0.06	-0.750			
0.1186	7590.37	3.9700	3.9699	-0.7530	25.81	-0.06	-0.750			
0.1209	7738.82	3.9670	3.9669	-0.7622	25.81	-0.06	-0.750			
0.1232	7884.55	3.9640	3.9642	-0.7612	25.81	-0.06	-0.750			
0.1255	8032.32	3.9610	3.9610	-0.7676	25.81	-0.06	-0.750			
0.1278	8179.37	3.9580	3.9579	-0.7662	25.81	-0.06	-0.750			
0.1301	8324.12	3.9550	3.9550	-0.7590	25.82	-0.05	-0.750			
0.1324	8471.69	3.9520	3.9520	-0.7682	25.82	-0.05	-0.750			
0.1347	8620.54	3.9490	3.9490	-0.7688	25.82	-0.05	-0.750			
0.1370	8765.67	3.9460	3.9460	-0.7731	25.82	-0.05	-0.750			
0.1393	8913.77	3.9430	3.9430	-0.7783	25.82	-0.05	-0.750			
0.1416	9065.10	3.9400	3.9400	-0.7754	25.82	-0.05	-0.750			
0.1440	9214.68	3.9370	3.9370	-0.7759	25.82	-0.05	-0.750			
0.1463	9364.78	3.9340	3.9342	-0.7803	25.82	-0.05	-0.750			
0.1486	9513.59	3.9310	3.9308	-0.7787	25.82	-0.05	-0.750			
0.1510	9661.90	3.9280	3.9280	-0.7850	25.83	-0.04	-0.750			
0.1533	9812.26	3.9250	3.9250	-0.7816	25.83	-0.04	-0.750			
0.1557	9963.28	3.9220	3.9220	-0.7838	25.83	-0.04	-0.750			
0.1581	10115.55	3.9190	3.9190	-0.7868	25.84	-0.03	-0.750			
0.1604	10266.21	3.9160	3.9163	-0.7845	25.84	-0.03	-0.750			
0.1627	10415.85	3.9130	3.9129	-0.7845	25.84	-0.03	-0.750			
0.1651	10565.55	3.9100	3.9100	-0.7876	25.84	-0.03	-0.750			
0.1675	10716.90	3.9070	3.9070	-0.7892	25.84	-0.03	-0.750			
0.1698	10869.77	3.9040	3.9040	-0.7970	25.84	-0.03	-0.750			
0.1722	11022.93	3.9010	3.9009	-0.7938	25.84	-0.03	-0.750			
0.1746	11175.00	3.8980	3.8980	-0.7977	25.84	-0.03	-0.750			
0.1770	11328.54	3.8950	3.8949	-0.8052	25.84	-0.03	-0.750			
0.1794	11483.28	3.8920	3.8920	-0.8050	25.85	-0.02	-0.750			
0.1819	11639.14	3.8890	3.8890	-0.8056	25.85	-0.02	-0.750			
0.1843	11796.07	3.8860	3.8861	-0.8073	25.85	-0.02	-0.750			
0.1867	11949.88	3.8830	3.8829	-0.8083	25.85	-0.02	-0.750			
0.1891	12104.29	3.8800	3.8800	-0.8145	25.86	-0.01	-0.750			
0.1915	12258.87	3.8770	3.8769	-0.8172	25.86	-0.01	-0.750			
0.1940	12415.44	3.8740	3.8740	-0.8171	25.86	-0.01	-0.750			
0.1965	12576.56	3.8710	3.8710	-0.8232	25.87	-0.00	-0.750			
0.1990	12734.64	3.8680	3.8681	-0.8235	25.87	0.00	-0.750			
0.2015	12893.77	3.8650	3.8650	-0.8251	25.87	0.00	-0.750			
0.2039	13051.81	3.8620	3.8620	-0.8185	25.88	0.01	-0.750			
0.2064	13206.75	3.8590	3.8590	-0.8140	25.88	0.01	-0.750			
0.2088	13364.00	3.8560	3.8560	-0.8156	25.88	0.01	-0.750			
0.2113	13521.01	3.8530	3.8530	-0.8201	25.88	0.01	-0.750			
0.2137	13677.06	3.8500	3.8499	-0.8210	25.88	0.01	-0.750			
0.2162	13834.92	3.8470	3.8470	-0.8180	25.88	0.01	-0.750			
0.2186	13992.93	3.8440	3.8440	-0.8166	25.89	0.02	-0.750			
0.2211	14150.25	3.8410	3.8410	-0.8178	25.89	0.02	-0.750			
0.2236	14307.51	3.8380	3.8380	-0.8123	25.89	0.02	-0.750			
0.2260	14461.60	3.8350	3.8350	-0.8160	25.89	0.02	-0.750			
0.2284	14618.22	3.8320	3.8319	-0.8086	25.89	0.02	-0.750			
0.2309	14774.75	3.8290	3.8291	-0.8056	25.90	0.03	-0.750			
0.2333	14930.37	3.8260	3.8260	-0.8064	25.90	0.03	-0.750			
0.2357	15084.56	3.8230	3.8231	-0.8049	25.90	0.03	-0.750			
0.2381	15238.18	3.8200	3.8200	-0.7997	25.90	0.03	-0.750			
0.2405	15390.09	3.8170	3.8170	-0.8036	25.90	0.03	-0.750			
0.2429	15543.63	3.8140	3.8140	-0.8015	25.91	0.04	-0.750			
0.2453	15700.64	3.8110	3.8109	-0.8067	25.91	0.04	-0.750			
0.2477	15855.51	3.8080	3.8082	-0.8033	25.91	0.04	-0.750			
0.2501	16009.04	3.8050	3.8050	-0.8010	25.91	0.04	-0.750			
0.2526	16163.73	3.8020	3.8020	-0.7985	25.91	0.04	-0.750			
0.2549	16316.07	3.7990	3.7989	-0.7944	25.92	0.05	-0.750			
0.2573	16468.85	3.7960	3.7960	-0.7918	25.92	0.05	-0.750			
0.2597	16620.86	3.7930	3.7931	-0.7845	25.92	0.05	-0.750			
0.2621	16771.56	3.7900	3.7899	-0.7813	25.92	0.05	-0.750			
0.2644	16920.04	3.7870	3.7870	-0.7762	25.92	0.05	-0.750			
0.2667	17066.69	3.7840	3.7840	-0.7704	25.93	0.06	-0.750			
0.2690	17214.59	3.7810	3.7811	-0.7703	25.93	0.06	-0.750			
0.2713	17362.89	3.7780	3.7779	-0.7689	25.93	0.06	-0.750			
0.2736	17511.19	3.7750	3.7750	-0.7664	25.93	0.06	-0.750			
0.2759	17658.45	3.7720	3.7720	-0.7629	25.94	0.07	-0.750			
0.2782	17803.02	3.7690	3.7691	-0.7609	25.94	0.07	-0.750			
0.2804	17948.16	3.7660	3.7661	-0.7607	25.94	0.07	-0.750			
0.2827	18094.88	3.7630	3.7628	-0.7617	25.95	0.08	-0.750			
0.2850	18241.21	3.7600	3.7601	-0.7599	25.95	0.08	-0.750			
0.2873	18387.23	3.7570	3.7571	-0.7622	25.95	0.08	-0.750			
0.2896	18534.41	3.7540	3.7541	-0.7689	25.95	0.08	-0.750			
0.2919	18681.83	3.7510	3.7509	-0.7702	25.95	0.08	-0.750			
0.2942	18827.13	3.7480	3.7480	-0.7705	25.95	0.08	-0.750			
0.2965	18975.90	3.7450	3.7450	-0.7762	25.95	0.08	-0.750			
0.2988	19126.10	3.7420	3.7419	-0.7786	25.95	0.08	-0.750			
0.3012	19275.40	3.7390	3.7391	-0.7924	25.96	0.09	-0.750			
0.3036	19428.25	3.7360	3.7359	-0.7964	25.96	0.09	-0.750			
0.3060	19581.77	3.7330	3.7330	-0.8020	25.96	0.09	-0.750			
0.3084	19736.26	3.7300	3.7299	-0.8161	25.97	0.10	-0.750			
0.3108	19893.17	3.7270	3.7272	-0.8267	25.97	0.10	-0.750			
0.3133	20052.07	3.7240	3.7239	-0.8507	25.97	0.10	-0.750			
0.3159	20218.71	3.7210	3.7209	-0.8609	25.97	0.10	-0.750			
0.3185	20383.10	3.7180	3.7180	-0.8713	25.97	0.10	-0.750			
0.3212	20554.83	3.7150	3.7151	-0.8921	25.97	0.10	-0.750			
0.3239	20729.10	3.7120	3.7120	-0.9038	25.97	0.10	-0.750			
0.3266	20902.00	3.7090	3.7089	-0.9201	25.97	0.10	-0.750			
0.3294	21079.16	3.7060	3.7060	-0.9296	25.97	0.10	-0.750			
0.3322	21258.40	3.7030	3.7029	-0.9432	25.97	0.10	-0.750			
0.3350	21442.40	3.7000	3.7003	-0.9646	25.97	0.10	-0.750			
0.3379	21627.18	3.6970	3.6970	-0.9844	25.97	0.10	-0.750			
0.3409	21819.82	3.6940	3.6939	-0.9983	25.97	0.10	-0.750			
0.3440	22013.17	3.6910	3.6909	-1.0163	25.96	0.09	-0.750			
0.3471	22212.05	3.6880	3.6881	-1.0296	25.96	0.09	-0.750			
0.3502	22410.34	3.6850	3.6850	-1.0490	25.96	0.09	-0.750			
0.3533	22610.18	3.6820	3.6821	-1.0690	25.96	0.09	-0.750			
0.3565	22815.72	3.6790	3.6789	-1.0901	25.95	0.08	-0.750			
0.3598	23024.90	3.6760	3.6758	-1.1161	25.95	0.08	-0.750			
0.3633	23249.06	3.6730	3.6730	-1.1489	25.94	0.07	-0.750			
0.3667	23470.98	3.6700	3.6700	-1.1686	25.94	0.07	-0.750			
0.3703	23700.89	3.6670	3.6669	-1.1942	25.93	0.06	-0.750			
0.3739	23931.83	3.6640	3.6638	-1.1976	25.93	0.06	-0.750			
0.3775	24162.29	3.6610	3.6610	-1.2068	25.92	0.05	-0.750			
0.3812	24394.07	3.6580	3.6581	-1.2296	25.92	0.05	-0.750			
0.3848	24627.13	3.6550	3.6551	-1.2510	25.91	0.04	-0.750			
0.3887	24873.81	3.6520	3.6518	-1.2876	25.91	0.04	-0.750			
0.3925	25118.40	3.6490	3.6490	-1.3157	25.90	0.03	-0.750			
0.3965	25375.58	3.6460	3.6461	-1.3617	25.90	0.03	-0.750			
0.4007	25644.78	3.6430	3.6429	-1.3975	25.89	0.02	-0.750			
0.4050	25919.08	3.6400	3.6399	-1.4243	25.89	0.02	-0.750			
0.4093	26196.15	3.6370	3.6371	-1.4486	25.88	0.01	-0.750			
0.4137	26476.91	3.6340	3.6339	-1.4812	25.88	0.01	-0.750			
0.4182	26765.45	3.6310	3.6309	-1.5096	25.87	0.00	-0.750			
0.4227	27052.17	3.6280	3.6282	-1.5437	25.87	-0.00	-0.750			
0.4274	27352.90	3.6250	3.6253	-1.5716	25.86	-0.01	-0.750			
0.4322	27662.08	3.6220	3.6219	-1.6132	25.85	-0.02	-0.750			
0.4371	27973.72	3.6190	3.6188	-1.6380	25.85	-0.02	-0.750			
0.4420	28289.66	3.6160	3.6154	-1.6794	25.84	-0.03	-0.750	0.386	0.516	
0.4471	28616.35	3.6130	3.6128	-1.6989	25.83	-0.04	-0.750			
0.4522	28941.88	3.6100	3.6099	-1.7116	25.83	-0.04	-0.750			
0.4573	29264.26	3.6070	3.6071	-1.7267	25.82	-0.05	-0.750			
0.4626	29604.15	3.6040	3.6038	-1.7848	25.82	-0.05	-0.750			
0.4679	29947.25	3.6010	3.6009	-1.8293	25.82	-0.05	-0.750			
0.4736	30307.34	3.5980	3.5980	-1.8745	25.82	-0.05	-0.750			
0.4793	30674.45	3.5950	3.5951	-1.9322	25.81	-0.06	-0.750			
0.4851	31049.21	3.5920	3.5919	-1.9356	25.81	-0.06	-0.750			
0.4911	31429.12	3.5890	3.5888	-1.9476	25.81	-0.06	-0.750			
0.4968	31797.02	3.5860	3.5861	-1.9673	25.80	-0.07	-0.750			
0.5027	32175.30	3.5830	3.5827	-1.9948	25.80	-0.07	-0.750			
0.5086	32552.96	3.5800	3.5798	-2.0308	25.81	-0.06	-0.750			
0.5148	32947.87	3.5770	3.5771	-2.0756	25.81	-0.06	-0.750			
0.5212	33355.73	3.5740	3.5740	-2.1288	25.81	-0.06	-0.750			
0.5277	33774.76	3.5710	3.5711	-2.1626	25.81	-0.06	-0.750			
0.5344	34201.73	3.5680	3.5680	-2.1839	25.80	-0.07	-0.750			
0.5409	34619.81	3.5650	3.5649	-2.1815	25.80	-0.07	-0.750			
0.5475	35038.35	3.5620	3.5621	-2.2115	25.81	-0.06	-0.750			
0.5542	35467.80	3.5590	3.5589	-2.2072	25.81	-0.06	-0.750			
0.5608	35892.58	3.5560	3.5560	-2.2122	25.81	-0.06	-0.750			
0.5674	36314.57	3.5530	3.5529	-2.2087	25.82	-0.05	-0.750			
0.5741	36743.86	3.5500	3.5501	-2.2123	25.82	-0.05	-0.750			
0.5808	37168.95	3.5470	3.5470	-2.2044	25.82	-0.05	-0.750			
0.5873	37585.57	3.5440	3.5440	-2.1957	25.82	-0.05	-0.750			
0.5939	38007.32	3.5410	3.5409	-2.1665	25.83	-0.04	-0.750			
0.6005	38432.12	3.5380	3.5382	-2.1419	25.84	-0.03	-0.750			
0.6068	38836.57	3.5350	3.5351	-2.1215	25.85	-0.02	-0.750			
0.6132	39242.10	3.5320	3.5317	-2.0842	25.85	-0.02	-0.750			
0.6194	39638.93	3.5290	3.5287	-2.0342	25.85	-0.02	-0.750			
0.6254	40025.84	3.5260	3.5262	-2.0266	25.86	-0.01	-0.750			
0.6315	40415.19	3.5230	3.5227	-1.9669	25.88	0.01	-0.750			
0.6374	40795.40	3.5200	3.5197	-1.9108	25.89	0.02	-0.750			
0.6431	41157.19	3.5170	3.5173	-1.8699	25.90	0.03	-0.750			
0.6486	41511.84	3.5140	3.5140	-1.8246	25.90	0.03	-0.750			
0.6540	41856.46	3.5110	3.5110	-1.7740	25.92	0.05	-0.750			
0.6592	42191.54	3.5080	3.5083	-1.7157	25.93	0.06	-0.750			
0.6643	42517.15	3.5050	3.5050	-1.6608	25.94	0.07	-0.750			
0.6694	42840.82	3.5020	3.5019	-1.6218	25.95	0.08	-0.750			
0.6741	43142.86	3.4990	3.4989	-1.5617	25.96	0.09	-0.750			
0.6786	43431.66	3.4960	3.4962	-1.5041	25.97	0.10	-0.750			
0.6831	43715.56	3.4930	3.4928	-1.4578	25.99	0.12	-0.750			
0.6874	43991.57	3.4900	3.4900	-1.4175	26.01	0.14	-0.750			
0.6916	44261.58	3.4870	3.4870	-1.3728	26.03	0.16	-0.750			
0.6956	44520.28	3.4840	3.4837	-1.3363	26.04	0.17	-0.750			
0.6995	44768.01	3.4810	3.4811	-1.2831	26.06	0.19	-0.750			
0.7034	45015.62	3.4780	3.4779	-1.2442	26.07	0.20	-0.750			
0.7070	45250.78	3.4750	3.4749	-1.2020	26.08	0.21	-0.750			
0.7105	45471.06	3.4720	3.4723	-1.1655	26.09	0.22	-0.750			
0.7140	45696.35	3.4690	3.4689	-1.1318	26.11	0.24	-0.750			
0.7174	45912.27	3.4660	3.4658	-1.0939	26.13	0.26	-0.750			
0.7206	46116.28	3.4630	3.4630	-1.0599	26.14	0.27	-0.750			
0.7237	46316.86	3.4600	3.4600	-1.0291	26.15	0.28	-0.750			
0.7267	46511.65	3.4570	3.4569	-0.9995	26.16	0.29	-0.750			
0.7297	46698.56	3.4540	3.4540	-0.9630	26.17	0.30	-0.750			
0.7325	46877.98	3.4510	3.4510	-0.9312	26.18	0.31	-0.750			
0.7353	47058.36	3.4480	3.4480	-0.9147	26.19	0.32	-0.750			
0.7380	47229.13	3.4450	3.4450	-0.8918	26.20	0.33	-0.750			
0.7405	47394.50	3.4420	3.4420	-0.8756	26.22	0.35	-0.750			
0.7431	47558.83	3.4390	3.4391	-0.8702	26.23	0.36	-0.750			
0.7457	47724.59	3.4360	3.4358	-0.8674	26.24	0.37	-0.750			
0.7483	47891.33	3.4330	3.4331	-0.8733	26.25	0.38	-0.750			
0.7509	48057.02	3.4300	3.4300	-0.8865	26.26	0.39	-0.750			
0.7536	48228.08	3.4270	3.4270	-0.9044	26.27	0.40	-0.750			
0.7563	48403.40	3.4240	3.4239	-0.9165	26.28	0.41	-0.750			
0.7591	48581.84	3.4210	3.4209	-0.9352	26.29	0.42	-0.750			
0.7619	48762.38	3.4180	3.4180	-0.9554	26.29	0.42	-0.750			
0.7649	48951.49	3.4150	3.4150	-0.9671	26.30	0.43	-0.750			
0.7678	49140.29	3.4120	3.4119	-0.9672	26.30	0.43	-0.750			
0.7707	49327.04	3.4090	3.4089	-0.9532	26.31	0.44	-0.750			
0.7736	49512.03	3.4060	3.4061	-0.9434	26.31	0.44	-0.750			
0.7764	49692.40	3.4030	3.4030	-0.9285	26.32	0.45	-0.750			
0.7792	49867.90	3.4000	3.3999	-0.9055	26.33	0.46	-0.750			
0.7818	50037.60	3.3970	3.3970	-0.8789	26.34	0.47	-0.750			
0.7845	50208.19	3.3940	3.3939	-0.8629	26.35	0.48	-0.750			
0.7871	50373.60	3.3910	3.3909	-0.8384	26.36	0.49	-0.750			
0.7896	50532.26	3.3880	3.3880	-0.8090	26.36	0.49	-0.750			
0.7919	50684.24	3.3850	3.3850	-0.7763	26.37	0.50	-0.750			
0.7942	50829.55	3.3820	3.3820	-0.7435	26.38	0.51	-0.750			
0.7964	50969.61	3.3790	3.3789	-0.7149	26.39	0.52	-0.750			
0.7985	51103.10	3.3760	3.3760	-0.6881	26.39	0.52	-0.750			
0.8005	51232.15	3.3730	3.3730	-0.6649	26.40	0.53	-0.750			
0.8025	51357.19	3.3700	3.3700	-0.6404	26.41	0.54	-0.750			
0.8043	51477.66	3.3670	3.3670	-0.6195	26.41	0.54	-0.750			
0.8062	51595.11	3.3640	3.3641	-0.5992	26.42	0.55	-0.750			
0.8079	51708.78	3.3610	3.3609	-0.5764	26.42	0.55	-0.750			
0.8096	51816.75	3.3580	3.3579	-0.5541	26.43	0.56	-0.750			
0.8112	51919.95	3.3550	3.3551	-0.5344	26.44	0.57	-0.750			
0.8128	52020.82	3.3520	3.3520	-0.5150	26.44	0.57	-0.750			
0.8143	52117.91	3.3490	3.3489	-0.4976	26.45	0.58	-0.750			
0.8158	52210.82	3.3460	3.3461	-0.4806	26.45	0.58	-0.750			
0.8172	52301.87	3.3430	3.3430	-0.4657	26.46	0.59	-0.750			
0.8186	52390.15	3.3400	3.3400	-0.4505	26.46	0.59	-0.750			
0.8199	52474.11	3.3370	3.3370	-0.4345	26.47	0.60	-0.750			
0.8212	52556.20	3.3340	3.3340	-0.4189	26.47	0.60	-0.750			
0.8224	52635.99	3.3310	3.3310	-0.4068	26.48	0.61	-0.750			
0.8236	52712.35	3.3280	3.3280	-0.3919	26.49	0.62	-0.750			
0.8248	52785.85	3.3250	3.3250	-0.3782	26.49	0.62	-0.750			
0.8259	52857.10	3.3220	3.3220	-0.3682	26.50	0.63	-0.750			
0.8270	52926.29	3.3190	3.3190	-0.3576	26.50	0.63	-0.750			
0.8280	52994.08	3.3160	3.3159	-0.3464	26.51	0.64	-0.750			
0.8291	53059.90	3.3130	3.3130	-0.3379	26.51	0.64	-0.750			
0.8301	53123.50	3.3100	3.3100	-0.3284	26.52	0.65	-0.750			
0.8310	53185.79	3.3070	3.3071	-0.3202	26.52	0.65	-0.750			
0.8320	53246.50	3.3040	3.3038	-0.3114	26.53	0.66	-0.750			
0.8329	53305.27	3.3010	3.3010	-0.3029	26.53	0.66	-0.750			
0.8338	53362.43	3.2980	3.2980	-0.2958	26.53	0.66	-0.750			
0.8347	53418.56	3.2950	3.2950	-0.2890	26.54	0.67	-0.750			
0.8355	53473.32	3.2920	3.2919	-0.2816	26.54	0.67	-0.750			
0.8364	53526.63	3.2890	3.2890	-0.2758	26.55	0.68	-0.750			
0.8372	53578.75	3.2860	3.2860	-0.2697	26.55	0.68	-0.750			
0.8380	53630.06	3.2830	3.2830	-0.2641	26.56	0.69	-0.750			
0.8388	53680.72	3.2800	3.2799	-0.2588	26.56	0.69	-0.750			
0.8395	53729.60	3.2770	3.2770	-0.2531	26.57	0.70	-0.750			
0.8403	53777.68	3.2740	3.2740	-0.2478	26.57	0.70	-0.750			
0.8410	53824.46	3.2710	3.2710	-0.2435	26.58	0.71	-0.750			
0.8417	53870.59	3.2680	3.2680	-0.2381	26.58	0.71	-0.750			
0.8424	53915.96	3.2650	3.2650	-0.2343	26.59	0.72	-0.750			
0.8431	53960.58	3.2620	3.2619	-0.2305	26.59	0.72	-0.750			
0.8438	54004.57	3.2590	3.2591	-0.2265	26.60	0.73	-0.750			
0.8445	54047.61	3.2560	3.2560	-0.2233	26.60	0.73	-0.750			
0.8452	54089.87	3.2530	3.2530	-0.2192	26.61	0.74	-0.750			
0.8458	54131.76	3.2500	3.2500	-0.2152	26.61	0.74	-0.750			
0.8464	54172.45	3.2470	3.2470	-0.2119	26.61	0.74	-0.750			
0.8471	54212.85	3.2440	3.2441	-0.2096	26.62	0.75	-0.750			
0.8477	54252.82	3.2410	3.2410	-0.2068	26.62	0.75	-0.750			
0.8483	54292.23	3.2380	3.2380	-0.2027	26.63	0.76	-0.750			
0.8489	54330.84	3.2350	3.2350	-0.2001	26.63	0.76	-0.750			
0.8495	54368.57	3.2320	3.2321	-0.1974	26.64	0.77	-0.750			
0.8501	54406.43	3.2290	3.2291	-0.1955	26.64	0.77	-0.750			
0.8507	54443.90	3.2260	3.2258	-0.1919	26.65	0.78	-0.750			
0.8513	54480.07	3.2230	3.2230	-0.1894	26.65	0.78	-0.750			
0.8518	54516.28	3.2200	3.2201	-0.1865	26.66	0.79	-0.750			
0.8524	54551.84	3.2170	3.2170	-0.1840	26.66	0.79	-0.750			
0.8529	54587.17	3.2140	3.2140	-0.1824	26.67	0.80	-0.750			
0.8535	54621.32	3.2110	3.2111	-0.1808	26.67	0.80	-0.750			
0.8540	54655.86	3.2080	3.2078	-0.1786	26.68	0.81	-0.750			
0.8545	54690.06	3.2050	3.2051	-0.1776	26.68	0.81	-0.750			
0.8551	54724.50	3.2020	3.2019	-0.1759	26.69	0.82	-0.750			
0.8556	54758.13	3.1990	3.1992	-0.1731	26.69	0.82	-0.750			
0.8561	54791.24	3.1960	3.1960	-0.1722	26.70	0.83	-0.750			
0.8566	54824.06	3.1930	3.1929	-0.1697	26.70	0.83	-0.750			
0.8571	54856.25	3.1900	3.1900	-0.1667	26.71	0.84	-0.750			
0.8576	54887.52	3.1870	3.1869	-0.1649	26.71	0.84	-0.750			
0.8581	54919.16	3.1840	3.1841	-0.1639	26.71	0.84	-0.750			
0.8586	54950.67	3.1810	3.1810	-0.1622	26.72	0.85	-0.750			
0.8591	54981.70	3.1780	3.1779	-0.1606	26.72	0.85	-0.750			
0.8596	55012.55	3.1750	3.1750	-0.1590	26.73	0.86	-0.750			
0.8600	55042.62	3.1720	3.1721	-0.1569	26.73	0.86	-0.750			
0.8605	55072.79	3.1690	3.1689	-0.1560	26.74	0.87	-0.750			
0.8610	55102.56	3.1660	3.1660	-0.1541	26.74	0.87	-0.750			
0.8614	55131.67	3.1630	3.1630	-0.1519	26.75	0.88	-0.750			
0.8619	55160.74	3.1600	3.1600	-0.1505	26.75	0.88	-0.750			
0.8623	55189.55	3.1570	3.1571	-0.1494	26.76	0.89	-0.750			
0.8628	55218.09	3.1540	3.1539	-0.1478	26.76	0.89	-0.750			
0.8632	55246.22	3.1510	3.1510	-0.1463	26.77	0.90	-0.750			
0.8637	55273.99	3.1480	3.1481	-0.1451	26.77	0.90	-0.750			
0.8641	55301.70	3.1450	3.1449	-0.1442	26.78	0.91	-0.750			
0.8645	55329.26	3.1420	3.1421	-0.1440	26.78	0.91	-0.750			
0.8650	55356.99	3.1390	3.1390	-0.1429	26.79	0.92	-0.750			
0.8654	55384.44	3.1360	3.1359	-0.1419	26.79	0.92	-0.750			
0.8658	55411.67	3.1330	3.1331	-0.1408	26.79	0.92	-0.750			
0.8662	55438.59	3.1300	3.1300	-0.1393	26.80	0.93	-0.750			
0.8666	55465.22	3.1270	3.1270	-0.1385	26.80	0.93	-0.750			
0.8671	55491.54	3.1240	3.1240	-0.1371	26.81	0.94	-0.750			
0.8675	55517.77	3.1210	3.1209	-0.1361	26.81	0.94	-0.750			
0.8679	55543.69	3.1180	3.1180	-0.1344	26.82	0.95	-0.750			
0.8683	55569.57	3.1150	3.1150	-0.1335	26.82	0.95	-0.750			
0.8687	55595.05	3.1120	3.1118	-0.1322	26.83	0.96	-0.750			
0.8691	55620.30	3.1090	3.1091	-0.1308	26.83	0.96	-0.750			
0.8695	55645.14	3.1060	3.1059	-0.1301	26.84	0.97	-0.750			
0.8698	55669.73	3.1030	3.1031	-0.1290	26.84	0.97	-0.750			
0.8702	55694.46	3.1000	3.1000	-0.1282	26.85	0.98	-0.750			
0.8706	55719.15	3.0970	3.0969	-0.1280	26.85	0.98	-0.750			
0.8710	55743.79	3.0940	3.0941	-0.1267	26.86	0.99	-0.750			
0.8714	55768.12	3.0910	3.0910	-0.1257	26.86	0.99	-0.750			
0.8718	55792.19	3.0880	3.0881	-0.1242	26.87	1.00	-0.750			
0.8721	55815.68	3.0850	3.0851	-0.1237	26.87	1.00	-0.750			
0.8725	55839.05	3.0820	3.0822	-0.1221	26.88	1.01	-0.750			
0.8729	55862.45	3.0790	3.0790	-0.1218	26.89	1.02	-0.750			
0.8732	55885.58	3.0760	3.0758	-0.1210	26.89	1.02	-0.750			
0.8736	55909.03	3.0730	3.0730	-0.1205	26.90	1.03	-0.750			
0.8739	55932.32	3.0700	3.0701	-0.1204	26.90	1.03	-0.750			
0.8743	55955.36	3.0670	3.0671	-0.1197	26.91	1.04	-0.750			
0.8747	55978.54	3.0640	3.0640	-0.1194	26.91	1.04	-0.750			
0.8750	56001.32	3.0610	3.0610	-0.1182	26.92	1.05	-0.750			
0.8754	56023.72	3.0580	3.0580	-0.1168	26.93	1.06	-0.750			
0.8757	56046.01	3.0550	3.0550	-0.1162	26.93	1.06	-0.750			
0.8761	56068.22	3.0520	3.0521	-0.1154	26.94	1.07	-0.750			
0.8764	56090.38	3.0490	3.0489	-0.1146	26.94	1.07	-0.750			
0.8768	56112.37	3.0460	3.0459	-0.1139	26.95	1.08	-0.750			
0.8771	56134.06	3.0430	3.0430	-0.1133	26.95	1.08	-0.750			
0.8774	56155.60	3.0400	3.0401	-0.1124	26.96	1.09	-0.750			
0.8778	56177.21	3.0370	3.0370	-0.1117	26.96	1.09	-0.750			
0.8781	56198.70	3.0340	3.0338	-0.1112	26.97	1.10	-0.750			
0.8784	56219.93	3.0310	3.0312	-0.1106	26.98	1.11	-0.750			
0.8788	56241.01	3.0280	3.0279	-0.1099	26.98	1.11	-0.750			
0.8791	56262.08	3.0250	3.0250	-0.1093	26.99	1.12	-0.750			
0.8794	56283.10	3.0220	3.0221	-0.1088	26.99	1.12	-0.750			
0.8797	56303.84	3.0190	3.0190	-0.1084	27.00	1.13	-0.750			
0.8801	56324.45	3.0160	3.0160	-0.1077	27.00	1.13	-0.750			
0.8804	56345.11	3.0130	3.0131	-0.1074	27.01	1.14	-0.750			
0.8807	56365.73	3.0100	3.0098	-0.1071	27.01	1.14	-0.750			
0.8810	56386.27	3.0070	3.0070	-0.1068	27.02	1.15	-0.751			
0.8814	56406.78	3.0040	3.0042	-0.1077	27.02	1.15	-0.751			
