Ah_balance (normalized)	Ah_balance (mAh)	Voltage - fit (V)	Voltage -  interpolate (V)	dQ/dV (1/V)	Temperature (°C)	Temperature - diff (°C)	Current (C)	R_DC 0ms (mOhm)	R_DC 50ms (mOhm)	R_DC 50 ms PEC (mOhm)
0.0002	10.62	4.1640	4.1641	-0.1119	26.00	0.01	-0.750			
0.0006	36.18	4.1610	4.1612	-0.1575	26.00	0.01	-0.750			
0.0011	72.41	4.1580	4.1578	-0.2050	26.00	0.01	-0.750			
0.0018	116.89	4.1550	4.1548	-0.2469	25.99	0.00	-0.750			
0.0026	168.99	4.1520	4.1520	-0.2849	25.99	0.00	-0.750			
0.0036	227.99	4.1490	4.1491	-0.3258	25.99	-0.00	-0.750			
0.0046	294.18	4.1460	4.1461	-0.3617	25.99	-0.00	-0.750			
0.0057	367.77	4.1430	4.1430	-0.3972	25.98	-0.01	-0.750			
0.0070	447.50	4.1400	4.1399	-0.4290	25.98	-0.01	-0.750			
0.0083	533.84	4.1370	4.1370	-0.4626	25.97	-0.02	-0.750			
0.0098	626.64	4.1340	4.1341	-0.4925	25.97	-0.02	-0.750			
0.0113	725.34	4.1310	4.1309	-0.5211	25.96	-0.03	-0.750			
0.0129	828.69	4.1280	4.1281	-0.5440	25.96	-0.03	-0.750			
0.0146	936.28	4.1250	4.1249	-0.5653	25.95	-0.04	-0.750			
0.0164	1047.31	4.1220	4.1222	-0.5810	25.95	-0.04	-0.750			
0.0182	1161.81	4.1190	4.1189	-0.5950	25.95	-0.04	-0.750			
0.0199	1276.40	4.1160	4.1160	-0.6060	25.95	-0.04	-0.750			
0.0218	1393.21	4.1130	4.1131	-0.6158	25.95	-0.04	-0.750			
0.0237	1514.39	4.1100	4.1100	-0.6321	25.94	-0.05	-0.750			
0.0256	1637.83	4.1070	4.1069	-0.6393	25.94	-0.05	-0.750			
0.0275	1760.85	4.1040	4.1041	-0.6486	25.94	-0.05	-0.750			
0.0295	1887.23	4.1010	4.1009	-0.6587	25.94	-0.05	-0.750			
0.0315	2013.75	4.0980	4.0980	-0.6668	25.94	-0.05	-0.750			
0.0335	2141.16	4.0950	4.0950	-0.6736	25.94	-0.05	-0.750			
0.0355	2272.39	4.0920	4.0920	-0.6778	25.93	-0.06	-0.750			
0.0376	2404.49	4.0890	4.0889	-0.6878	25.93	-0.06	-0.750			
0.0397	2538.35	4.0860	4.0860	-0.6908	25.93	-0.06	-0.750			
0.0417	2670.96	4.0830	4.0830	-0.6907	25.93	-0.06	-0.750			
0.0438	2803.03	4.0800	4.0800	-0.6956	25.93	-0.06	-0.750			
0.0459	2935.64	4.0770	4.0770	-0.7037	25.92	-0.07	-0.750			
0.0480	3071.47	4.0740	4.0739	-0.7040	25.92	-0.07	-0.750			
0.0501	3207.84	4.0710	4.0710	-0.7096	25.92	-0.07	-0.750			
0.0523	3344.87	4.0680	4.0680	-0.7107	25.91	-0.08	-0.750			
0.0544	3482.73	4.0650	4.0649	-0.7132	25.91	-0.08	-0.750			
0.0565	3618.87	4.0620	4.0620	-0.7160	25.91	-0.08	-0.750			
0.0587	3754.63	4.0590	4.0591	-0.7223	25.91	-0.08	-0.750			
0.0608	3894.03	4.0560	4.0559	-0.7229	25.91	-0.08	-0.750			
0.0631	4036.08	4.0530	4.0529	-0.7265	25.91	-0.08	-0.750			
0.0652	4175.40	4.0500	4.0501	-0.7286	25.91	-0.08	-0.750			
0.0674	4315.74	4.0470	4.0471	-0.7309	25.91	-0.08	-0.750			
0.0696	4456.29	4.0440	4.0439	-0.7309	25.91	-0.08	-0.750			
0.0718	4595.50	4.0410	4.0409	-0.7334	25.91	-0.08	-0.750			
0.0740	4735.63	4.0380	4.0381	-0.7321	25.91	-0.08	-0.750			
0.0762	4879.39	4.0350	4.0349	-0.7398	25.91	-0.08	-0.750			
0.0784	5020.39	4.0320	4.0322	-0.7391	25.91	-0.08	-0.750			
0.0806	5161.15	4.0290	4.0289	-0.7390	25.91	-0.08	-0.750			
0.0829	5302.86	4.0260	4.0261	-0.7452	25.91	-0.08	-0.750			
0.0851	5446.80	4.0230	4.0229	-0.7458	25.92	-0.07	-0.750			
0.0874	5591.19	4.0200	4.0200	-0.7510	25.92	-0.07	-0.750			
0.0896	5735.96	4.0170	4.0169	-0.7523	25.92	-0.07	-0.750			
0.0919	5880.67	4.0140	4.0140	-0.7527	25.92	-0.07	-0.750			
0.0941	6024.66	4.0110	4.0110	-0.7524	25.92	-0.07	-0.750			
0.0964	6167.39	4.0080	4.0080	-0.7538	25.92	-0.07	-0.750			
0.0986	6311.69	4.0050	4.0050	-0.7529	25.93	-0.06	-0.750			
0.1009	6460.12	4.0020	4.0019	-0.7562	25.93	-0.06	-0.750			
0.1032	6605.01	3.9990	3.9991	-0.7570	25.93	-0.06	-0.750			
0.1055	6750.02	3.9960	3.9960	-0.7614	25.93	-0.06	-0.750			
0.1077	6895.77	3.9930	3.9931	-0.7654	25.93	-0.06	-0.750			
0.1100	7043.13	3.9900	3.9898	-0.7670	25.94	-0.05	-0.750			
0.1123	7189.62	3.9870	3.9870	-0.7693	25.94	-0.05	-0.750			
0.1147	7339.56	3.9840	3.9840	-0.7709	25.94	-0.05	-0.750			
0.1170	7487.60	3.9810	3.9810	-0.7711	25.94	-0.05	-0.750			
0.1193	7634.77	3.9780	3.9780	-0.7729	25.94	-0.05	-0.750			
0.1216	7783.44	3.9750	3.9750	-0.7728	25.94	-0.05	-0.750			
0.1239	7930.78	3.9720	3.9720	-0.7751	25.95	-0.04	-0.750			
0.1262	8080.00	3.9690	3.9689	-0.7826	25.95	-0.04	-0.750			
0.1286	8230.55	3.9660	3.9662	-0.7855	25.95	-0.04	-0.750			
0.1310	8382.93	3.9630	3.9629	-0.7883	25.95	-0.04	-0.750			
0.1334	8534.70	3.9600	3.9601	-0.7949	25.96	-0.03	-0.750			
0.1358	8688.58	3.9570	3.9569	-0.7950	25.96	-0.03	-0.750			
0.1382	8841.82	3.9540	3.9540	-0.8006	25.97	-0.02	-0.750			
0.1405	8995.14	3.9510	3.9512	-0.7996	25.97	-0.02	-0.750			
0.1429	9148.24	3.9480	3.9479	-0.7984	25.97	-0.02	-0.750			
0.1454	9302.53	3.9450	3.9450	-0.8019	25.97	-0.02	-0.750			
0.1478	9456.03	3.9420	3.9420	-0.8006	25.98	-0.01	-0.750			
0.1501	9608.93	3.9390	3.9389	-0.7969	25.98	-0.01	-0.750			
0.1526	9763.59	3.9360	3.9361	-0.8027	25.98	-0.01	-0.750			
0.1550	9916.88	3.9330	3.9329	-0.8005	25.98	-0.01	-0.750			
0.1573	10069.21	3.9300	3.9300	-0.8090	25.98	-0.01	-0.750			
0.1598	10225.90	3.9270	3.9269	-0.8085	25.99	-0.00	-0.750			
0.1622	10380.02	3.9240	3.9240	-0.8118	25.99	-0.00	-0.750			
0.1647	10538.87	3.9210	3.9209	-0.8139	25.99	-0.00	-0.750			
0.1671	10695.05	3.9180	3.9179	-0.8150	25.99	0.00	-0.750			
0.1695	10848.40	3.9150	3.9150	-0.8218	26.00	0.01	-0.750			
0.1720	11008.82	3.9120	3.9119	-0.8264	26.00	0.01	-0.750			
0.1745	11167.78	3.9090	3.9089	-0.8216	26.00	0.01	-0.750			
0.1770	11328.98	3.9060	3.9059	-0.8256	26.01	0.02	-0.750			
0.1795	11487.62	3.9030	3.9032	-0.8223	26.01	0.02	-0.750			
0.1820	11644.90	3.9000	3.8999	-0.8284	26.02	0.03	-0.750			
0.1844	11800.87	3.8970	3.8970	-0.8251	26.02	0.03	-0.750			
0.1868	11957.79	3.8940	3.8939	-0.8237	26.02	0.03	-0.750			
0.1894	12119.79	3.8910	3.8910	-0.8314	26.03	0.04	-0.750			
0.1919	12282.04	3.8880	3.8881	-0.8372	26.03	0.04	-0.750			
0.1944	12441.50	3.8850	3.8850	-0.8366	26.04	0.05	-0.750			
0.1969	12603.01	3.8820	3.8820	-0.8334	26.04	0.05	-0.750			
0.1994	12761.71	3.8790	3.8790	-0.8280	26.04	0.05	-0.750			
0.2019	12920.92	3.8760	3.8760	-0.8333	26.05	0.06	-0.750			
0.2044	13081.16	3.8730	3.8730	-0.8359	26.05	0.06	-0.750			
0.2069	13240.12	3.8700	3.8699	-0.8429	26.06	0.07	-0.750			
0.2094	13403.94	3.8670	3.8670	-0.8411	26.06	0.07	-0.750			
0.2120	13565.38	3.8640	3.8640	-0.8456	26.06	0.07	-0.750			
0.2145	13730.45	3.8610	3.8610	-0.8468	26.07	0.08	-0.750			
0.2171	13894.31	3.8580	3.8580	-0.8425	26.07	0.08	-0.750			
0.2196	14054.31	3.8550	3.8549	-0.8476	26.07	0.08	-0.750			
0.2221	14217.01	3.8520	3.8520	-0.8460	26.08	0.09	-0.750			
0.2247	14379.30	3.8490	3.8488	-0.8439	26.08	0.09	-0.750			
0.2272	14542.99	3.8460	3.8460	-0.8493	26.08	0.09	-0.750			
0.2298	14705.28	3.8430	3.8428	-0.8460	26.08	0.09	-0.750			
0.2323	14868.82	3.8400	3.8399	-0.8458	26.09	0.10	-0.750			
0.2348	15030.10	3.8370	3.8370	-0.8432	26.10	0.11	-0.750			
0.2373	15189.23	3.8340	3.8341	-0.8386	26.10	0.11	-0.750			
0.2399	15354.17	3.8310	3.8310	-0.8439	26.11	0.12	-0.750			
0.2424	15515.45	3.8280	3.8280	-0.8433	26.11	0.12	-0.750			
0.2449	15675.55	3.8250	3.8250	-0.8471	26.11	0.12	-0.750			
0.2475	15840.14	3.8220	3.8219	-0.8493	26.11	0.12	-0.750			
0.2501	16004.26	3.8190	3.8190	-0.8483	26.11	0.12	-0.750			
0.2526	16167.44	3.8160	3.8160	-0.8446	26.11	0.12	-0.750			
0.2551	16329.37	3.8130	3.8131	-0.8480	26.11	0.12	-0.750			
0.2577	16491.40	3.8100	3.8099	-0.8466	26.12	0.13	-0.750			
0.2602	16652.06	3.8070	3.8070	-0.8434	26.13	0.14	-0.750			
0.2627	16814.81	3.8040	3.8040	-0.8390	26.13	0.14	-0.750			
0.2653	16978.50	3.8010	3.8010	-0.8440	26.14	0.15	-0.750			
0.2678	17139.65	3.7980	3.7980	-0.8437	26.14	0.15	-0.750			
0.2703	17301.75	3.7950	3.7950	-0.8387	26.14	0.15	-0.750			
0.2728	17461.15	3.7920	3.7919	-0.8334	26.15	0.16	-0.750			
0.2753	17621.56	3.7890	3.7890	-0.8303	26.15	0.16	-0.750			
0.2778	17781.98	3.7860	3.7860	-0.8234	26.15	0.16	-0.750			
0.2803	17938.70	3.7830	3.7829	-0.8222	26.15	0.16	-0.750			
0.2827	18093.95	3.7800	3.7801	-0.8200	26.16	0.17	-0.750			
0.2852	18250.40	3.7770	3.7770	-0.8227	26.16	0.17	-0.750			
0.2877	18410.81	3.7740	3.7739	-0.8197	26.16	0.17	-0.750			
0.2901	18568.47	3.7710	3.7710	-0.8193	26.17	0.18	-0.750			
0.2926	18726.72	3.7680	3.7680	-0.8171	26.17	0.18	-0.750			
0.2951	18884.92	3.7650	3.7649	-0.8157	26.18	0.19	-0.750			
0.2975	19038.08	3.7620	3.7619	-0.8105	26.18	0.19	-0.750			
0.2999	19191.47	3.7590	3.7591	-0.8098	26.18	0.19	-0.750			
0.3023	19347.89	3.7560	3.7559	-0.8134	26.19	0.20	-0.750			
0.3048	19505.44	3.7530	3.7530	-0.8193	26.19	0.20	-0.750			
0.3072	19660.92	3.7500	3.7500	-0.8271	26.20	0.21	-0.750			
0.3097	19822.49	3.7470	3.7469	-0.8336	26.20	0.21	-0.750			
0.3122	19983.86	3.7440	3.7440	-0.8384	26.20	0.21	-0.750			
0.3148	20146.29	3.7410	3.7410	-0.8388	26.21	0.22	-0.750			
0.3173	20308.90	3.7380	3.7380	-0.8401	26.21	0.22	-0.750			
0.3198	20470.10	3.7350	3.7349	-0.8477	26.21	0.22	-0.750			
0.3224	20631.02	3.7320	3.7320	-0.8472	26.22	0.23	-0.750			
0.3249	20792.60	3.7290	3.7289	-0.8471	26.22	0.23	-0.750			
0.3275	20957.47	3.7260	3.7260	-0.8587	26.22	0.23	-0.750			
0.3300	21121.46	3.7230	3.7230	-0.8711	26.22	0.23	-0.750			
0.3326	21289.51	3.7200	3.7199	-0.8848	26.22	0.23	-0.750			
0.3353	21459.25	3.7170	3.7170	-0.8988	26.23	0.24	-0.750			
0.3380	21632.44	3.7140	3.7141	-0.9119	26.23	0.24	-0.750			
0.3408	21812.74	3.7110	3.7111	-0.9325	26.23	0.24	-0.750			
0.3436	21992.91	3.7080	3.7080	-0.9553	26.23	0.24	-0.750			
0.3465	22177.24	3.7050	3.7050	-0.9676	26.23	0.24	-0.750			
0.3495	22364.89	3.7020	3.7018	-0.9797	26.23	0.24	-0.750			
0.3524	22555.87	3.6990	3.6990	-0.9948	26.23	0.24	-0.750			
0.3554	22746.82	3.6960	3.6960	-1.0177	26.23	0.24	-0.750			
0.3585	22944.88	3.6930	3.6929	-1.0374	26.23	0.24	-0.750			
0.3616	23143.84	3.6900	3.6899	-1.0584	26.22	0.23	-0.750			
0.3648	23347.23	3.6870	3.6868	-1.0718	26.22	0.23	-0.750			
0.3681	23559.77	3.6840	3.6840	-1.1068	26.22	0.23	-0.750			
0.3715	23774.69	3.6810	3.6810	-1.1276	26.22	0.23	-0.750			
0.3749	23993.06	3.6780	3.6780	-1.1481	26.21	0.22	-0.750			
0.3784	24215.36	3.6750	3.6753	-1.1764	26.21	0.22	-0.750			
0.3819	24441.56	3.6720	3.6719	-1.1936	26.21	0.22	-0.750			
0.3855	24672.15	3.6690	3.6690	-1.2147	26.21	0.22	-0.750			
0.3892	24905.67	3.6660	3.6660	-1.2495	26.21	0.22	-0.750			
0.3930	25151.14	3.6630	3.6629	-1.2775	26.21	0.22	-0.750			
0.3968	25395.43	3.6600	3.6600	-1.3142	26.20	0.21	-0.750			
0.4008	25652.04	3.6570	3.6570	-1.3414	26.19	0.20	-0.750			
0.4049	25914.35	3.6540	3.6541	-1.3662	26.19	0.20	-0.750			
0.4091	26179.79	3.6510	3.6509	-1.4034	26.18	0.19	-0.750			
0.4133	26450.71	3.6480	3.6481	-1.4325	26.17	0.18	-0.750			
0.4176	26724.13	3.6450	3.6449	-1.4626	26.17	0.18	-0.750			
0.4220	27011.16	3.6420	3.6419	-1.5005	26.16	0.17	-0.750			
0.4266	27300.68	3.6390	3.6390	-1.5245	26.15	0.16	-0.750			
0.4313	27602.86	3.6360	3.6359	-1.5738	26.14	0.15	-0.750			
0.4361	27907.80	3.6330	3.6330	-1.6061	26.13	0.14	-0.750			
0.4409	28216.09	3.6300	3.6301	-1.6288	26.12	0.13	-0.750			
0.4458	28534.31	3.6270	3.6271	-1.6558	26.11	0.12	-0.750			
0.4508	28851.27	3.6240	3.6240	-1.6943	26.10	0.11	-0.750			
0.4560	29181.59	3.6210	3.6209	-1.7313	26.10	0.11	-0.750	0.396	0.505	
0.4612	29519.25	3.6180	3.6179	-1.7470	26.09	0.10	-0.750			
0.4665	29855.38	3.6150	3.6151	-1.7753	26.09	0.10	-0.750			
0.4719	30202.25	3.6120	3.6118	-1.8077	26.08	0.09	-0.750			
0.4773	30546.86	3.6090	3.6089	-1.8550	26.07	0.08	-0.750			
0.4830	30910.60	3.6060	3.6060	-1.8843	26.06	0.07	-0.750			
0.4886	31267.54	3.6030	3.6029	-1.9183	26.05	0.06	-0.750			
0.4945	31645.00	3.6000	3.6002	-1.9444	26.05	0.06	-0.750			
0.5003	32021.29	3.5970	3.5968	-2.0172	26.05	0.06	-0.750			
0.5064	32409.37	3.5940	3.5937	-2.0596	26.05	0.06	-0.750			
0.5127	32813.68	3.5910	3.5907	-2.1024	26.03	0.04	-0.750			
0.5191	33223.35	3.5880	3.5881	-2.1515	26.02	0.03	-0.750			
0.5257	33646.08	3.5850	3.5851	-2.1907	26.01	0.02	-0.750			
0.5324	34072.41	3.5820	3.5820	-2.2042	26.01	0.02	-0.750			
0.5390	34498.84	3.5790	3.5790	-2.2171	26.01	0.02	-0.750			
0.5457	34925.64	3.5760	3.5760	-2.2176	26.00	0.01	-0.750			
0.5525	35357.17	3.5730	3.5730	-2.2298	25.99	0.00	-0.750			
0.5591	35783.19	3.5700	3.5698	-2.2470	25.99	0.00	-0.750			
0.5658	36210.38	3.5670	3.5669	-2.2707	25.99	0.00	-0.750			
0.5727	36650.90	3.5640	3.5638	-2.2788	25.99	0.00	-0.750			
0.5797	37097.77	3.5610	3.5610	-2.2943	25.99	0.00	-0.750			
0.5865	37536.74	3.5580	3.5581	-2.2942	25.99	0.00	-0.750			
0.5935	37981.53	3.5550	3.5549	-2.3104	25.99	-0.00	-0.750			
0.6004	38423.81	3.5520	3.5522	-2.3007	25.98	-0.01	-0.750			
0.6074	38870.60	3.5490	3.5490	-2.2956	25.98	-0.01	-0.750			
0.6142	39309.76	3.5460	3.5461	-2.2781	25.99	-0.00	-0.750			
0.6211	39748.57	3.5430	3.5430	-2.2646	25.99	0.00	-0.750			
0.6279	40186.53	3.5400	3.5401	-2.2427	25.99	0.00	-0.750			
0.6346	40612.86	3.5370	3.5369	-2.1977	26.00	0.01	-0.750			
0.6411	41027.71	3.5340	3.5340	-2.1641	26.00	0.01	-0.750			
0.6476	41447.87	3.5310	3.5311	-2.1159	26.01	0.02	-0.750			
0.6539	41850.56	3.5280	3.5281	-2.0927	26.01	0.02	-0.750			
0.6601	42244.38	3.5250	3.5250	-2.0224	26.02	0.03	-0.750			
0.6660	42625.25	3.5220	3.5221	-1.9666	26.03	0.04	-0.750			
0.6719	43000.85	3.5190	3.5190	-1.9239	26.04	0.05	-0.750			
0.6776	43366.95	3.5160	3.5157	-1.8683	26.05	0.06	-0.750			
0.6830	43713.12	3.5130	3.5130	-1.8009	26.07	0.08	-0.750			
0.6885	44061.19	3.5100	3.5101	-1.7596	26.08	0.09	-0.750			
0.6935	44385.99	3.5070	3.5067	-1.6942	26.10	0.11	-0.750			
0.6986	44711.53	3.5040	3.5039	-1.6309	26.12	0.13	-0.750			
0.7035	45023.42	3.5010	3.5013	-1.5736	26.13	0.14	-0.750			
0.7081	45318.66	3.4980	3.4977	-1.5145	26.15	0.16	-0.750			
0.7125	45598.67	3.4950	3.4952	-1.4468	26.16	0.17	-0.750			
0.7168	45873.08	3.4920	3.4920	-1.4103	26.17	0.18	-0.750			
0.7209	46139.84	3.4890	3.4889	-1.3715	26.19	0.20	-0.750			
0.7249	46392.56	3.4860	3.4860	-1.3128	26.20	0.21	-0.750			
0.7289	46647.20	3.4830	3.4832	-1.2859	26.21	0.22	-0.750			
0.7327	46891.38	3.4800	3.4799	-1.2438	26.23	0.24	-0.750			
0.7363	47122.78	3.4770	3.4770	-1.2026	26.24	0.25	-0.750			
0.7398	47347.69	3.4740	3.4739	-1.1582	26.26	0.27	-0.750			
0.7433	47568.45	3.4710	3.4709	-1.1262	26.27	0.28	-0.750			
0.7466	47780.69	3.4680	3.4680	-1.0815	26.28	0.29	-0.750			
0.7497	47983.59	3.4650	3.4651	-1.0438	26.30	0.31	-0.750			
0.7528	48178.51	3.4620	3.4621	-1.0059	26.31	0.32	-0.750			
0.7557	48366.53	3.4590	3.4590	-0.9859	26.32	0.33	-0.750			
0.7586	48553.15	3.4560	3.4559	-0.9557	26.33	0.34	-0.750			
0.7615	48733.92	3.4530	3.4530	-0.9365	26.34	0.35	-0.750			
0.7642	48911.22	3.4500	3.4500	-0.9187	26.35	0.36	-0.750			
0.7670	49086.71	3.4470	3.4469	-0.9109	26.36	0.37	-0.750			
0.7696	49257.38	3.4440	3.4440	-0.9092	26.37	0.38	-0.750			
0.7723	49427.29	3.4410	3.4409	-0.9079	26.38	0.39	-0.750			
0.7750	49598.49	3.4380	3.4380	-0.9214	26.39	0.40	-0.750			
0.7778	49780.22	3.4350	3.4350	-0.9542	26.40	0.41	-0.750			
0.7807	49963.01	3.4320	3.4320	-0.9824	26.41	0.42	-0.750			
0.7837	50154.81	3.4290	3.4290	-1.0163	26.42	0.43	-0.750			
0.7868	50352.96	3.4260	3.4259	-1.0396	26.43	0.44	-0.750			
0.7900	50557.82	3.4230	3.4229	-1.0608	26.44	0.45	-0.750			
0.7933	50768.39	3.4200	3.4200	-1.0813	26.45	0.46	-0.750			
0.7966	50980.84	3.4170	3.4169	-1.0718	26.46	0.47	-0.750			
0.7998	51189.28	3.4140	3.4140	-1.0638	26.47	0.48	-0.750			
0.8030	51393.53	3.4110	3.4112	-1.0380	26.48	0.49	-0.750			
0.8061	51591.53	3.4080	3.4079	-1.0119	26.49	0.50	-0.750			
0.8091	51783.10	3.4050	3.4050	-0.9827	26.49	0.50	-0.750			
0.8120	51966.93	3.4020	3.4020	-0.9485	26.50	0.51	-0.750			
0.8148	52146.78	3.3990	3.3990	-0.9205	26.51	0.52	-0.750			
0.8175	52321.45	3.3960	3.3959	-0.8883	26.51	0.52	-0.750			
0.8201	52487.04	3.3930	3.3930	-0.8551	26.52	0.53	-0.750			
0.8227	52649.72	3.3900	3.3900	-0.8231	26.53	0.54	-0.750			
0.8250	52802.72	3.3870	3.3870	-0.7892	26.53	0.54	-0.750			
0.8274	52951.75	3.3840	3.3839	-0.7563	26.54	0.55	-0.750			
0.8296	53094.23	3.3810	3.3809	-0.7266	26.54	0.55	-0.750			
0.8317	53229.94	3.3780	3.3780	-0.6969	26.55	0.56	-0.750			
0.8338	53361.04	3.3750	3.3749	-0.6660	26.56	0.57	-0.750			
0.8357	53484.54	3.3720	3.3720	-0.6401	26.56	0.57	-0.750			
0.8376	53606.10	3.3690	3.3689	-0.6165	26.57	0.58	-0.750			
0.8394	53720.74	3.3660	3.3660	-0.5915	26.58	0.59	-0.750			
0.8411	53832.25	3.3630	3.3631	-0.5709	26.58	0.59	-0.750			
0.8428	53939.33	3.3600	3.3600	-0.5481	26.59	0.60	-0.750			
0.8444	54042.59	3.3570	3.3570	-0.5277	26.60	0.61	-0.750			
0.8460	54141.68	3.3540	3.3539	-0.5086	26.61	0.62	-0.750			
0.8474	54236.58	3.3510	3.3511	-0.4889	26.61	0.62	-0.750			
0.8489	54329.00	3.3480	3.3480	-0.4740	26.62	0.63	-0.750			
0.8503	54418.21	3.3450	3.3450	-0.4555	26.63	0.64	-0.750			
0.8516	54504.69	3.3420	3.3420	-0.4365	26.63	0.64	-0.750			
0.8529	54587.26	3.3390	3.3390	-0.4181	26.64	0.65	-0.750			
0.8541	54664.73	3.3360	3.3360	-0.4012	26.64	0.65	-0.750			
0.8553	54738.99	3.3330	3.3330	-0.3840	26.65	0.66	-0.750			
0.8564	54810.71	3.3300	3.3299	-0.3698	26.65	0.66	-0.750			
0.8575	54879.15	3.3270	3.3270	-0.3565	26.65	0.66	-0.750			
0.8586	54947.82	3.3240	3.3241	-0.3454	26.66	0.67	-0.750			
0.8596	55013.12	3.3210	3.3210	-0.3339	26.66	0.67	-0.750			
0.8606	55075.41	3.3180	3.3181	-0.3241	26.66	0.67	-0.750			
0.8615	55136.11	3.3150	3.3150	-0.3130	26.67	0.68	-0.750			
0.8624	55194.75	3.3120	3.3119	-0.3034	26.67	0.68	-0.750			
0.8633	55252.46	3.3090	3.3090	-0.2947	26.67	0.68	-0.750			
0.8642	55308.06	3.3060	3.3063	-0.2857	26.68	0.69	-0.750			
0.8650	55362.63	3.3030	3.3029	-0.2782	26.68	0.69	-0.750			
0.8659	55414.72	3.3000	3.3001	-0.2691	26.68	0.69	-0.750			
0.8666	55465.37	3.2970	3.2969	-0.2610	26.69	0.70	-0.750			
0.8674	55514.34	3.2940	3.2940	-0.2535	26.69	0.70	-0.750			
0.8682	55562.79	3.2910	3.2911	-0.2474	26.70	0.71	-0.750			
0.8689	55609.87	3.2880	3.2879	-0.2409	26.70	0.71	-0.750			
0.8696	55655.30	3.2850	3.2850	-0.2344	26.70	0.71	-0.750			
0.8703	55699.50	3.2820	3.2820	-0.2272	26.71	0.72	-0.750			
0.8710	55742.14	3.2790	3.2790	-0.2215	26.71	0.72	-0.750			
0.8716	55784.14	3.2760	3.2760	-0.2160	26.72	0.73	-0.750			
0.8723	55824.69	3.2730	3.2731	-0.2117	26.72	0.73	-0.750			
0.8729	55864.30	3.2700	3.2699	-0.2076	26.73	0.74	-0.750			
0.8735	55904.19	3.2670	3.2670	-0.2042	26.73	0.74	-0.750			
0.8741	55943.07	3.2640	3.2640	-0.2008	26.73	0.74	-0.750			
0.8747	55981.32	3.2610	3.2610	-0.1969	26.74	0.75	-0.750			
0.8753	56019.05	3.2580	3.2580	-0.1941	26.74	0.75	-0.750			
0.8759	56055.80	3.2550	3.2551	-0.1898	26.74	0.75	-0.750			
0.8764	56091.79	3.2520	3.2518	-0.1867	26.75	0.76	-0.750			
0.8770	56126.99	3.2490	3.2490	-0.1837	26.75	0.76	-0.750			
0.8775	56162.16	3.2460	3.2459	-0.1796	26.76	0.77	-0.750			
0.8781	56196.37	3.2430	3.2430	-0.1776	26.76	0.77	-0.750			
0.8786	56230.16	3.2400	3.2400	-0.1744	26.76	0.77	-0.750			
0.8791	56263.33	3.2370	3.2371	-0.1713	26.77	0.78	-0.750			
0.8796	56295.54	3.2340	3.2339	-0.1686	26.77	0.78	-0.750			
0.8801	56327.48	3.2310	3.2310	-0.1662	26.78	0.79	-0.750			
0.8806	56359.30	3.2280	3.2281	-0.1641	26.79	0.80	-0.750			
0.8811	56390.47	3.2250	3.2250	-0.1623	26.79	0.80	-0.750			
0.8816	56422.02	3.2220	3.2220	-0.1606	26.80	0.81	-0.750			
0.8821	56452.41	3.2190	3.2190	-0.1575	26.80	0.81	-0.750			
0.8825	56482.17	3.2160	3.2160	-0.1570	26.81	0.82	-0.750			
0.8830	56512.25	3.2130	3.2130	-0.1556	26.81	0.82	-0.750			
0.8835	56542.15	3.2100	3.2099	-0.1531	26.82	0.83	-0.750			
0.8839	56571.36	3.2070	3.2069	-0.1512	26.82	0.83	-0.750			
0.8844	56600.55	3.2040	3.2041	-0.1485	26.83	0.84	-0.750			
0.8848	56628.72	3.2010	3.2011	-0.1468	26.83	0.84	-0.750			
0.8853	56656.39	3.1980	3.1981	-0.1457	26.84	0.85	-0.750			
0.8857	56684.21	3.1950	3.1948	-0.1441	26.84	0.85	-0.750			
0.8861	56710.94	3.1920	3.1920	-0.1423	26.85	0.86	-0.750			
0.8865	56738.53	3.1890	3.1890	-0.1411	26.85	0.86	-0.750			
0.8870	56765.95	3.1860	3.1861	-0.1409	26.86	0.87	-0.750			
0.8874	56792.68	3.1830	3.1832	-0.1402	26.86	0.87	-0.750			
0.8878	56819.72	3.1800	3.1800	-0.1392	26.86	0.87	-0.750			
0.8882	56846.20	3.1770	3.1771	-0.1372	26.86	0.87	-0.750			
0.8886	56872.20	3.1740	3.1736	-0.1355	26.87	0.88	-0.750			
0.8890	56898.13	3.1710	3.1711	-0.1346	26.87	0.88	-0.750			
0.8894	56923.94	3.1680	3.1681	-0.1337	26.87	0.88	-0.750			
0.8898	56949.73	3.1650	3.1648	-0.1326	26.87	0.88	-0.750			
0.8902	56975.07	3.1620	3.1620	-0.1307	26.88	0.89	-0.750			
0.8906	56999.79	3.1590	3.1589	-0.1285	26.88	0.89	-0.750			
0.8910	57024.16	3.1560	3.1559	-0.1274	26.88	0.89	-0.750			
0.8914	57048.69	3.1530	3.1531	-0.1263	26.89	0.90	-0.750			
0.8918	57072.30	3.1500	3.1499	-0.1253	26.89	0.90	-0.750			
0.8921	57096.01	3.1470	3.1470	-0.1243	26.90	0.91	-0.750			
0.8925	57120.02	3.1440	3.1439	-0.1241	26.91	0.92	-0.750			
0.8929	57143.75	3.1410	3.1411	-0.1238	26.91	0.92	-0.750			
0.8932	57167.77	3.1380	3.1378	-0.1231	26.92	0.93	-0.750			
0.8936	57191.72	3.1350	3.1350	-0.1231	26.92	0.93	-0.750			
0.8940	57215.20	3.1320	3.1320	-0.1220	26.93	0.94	-0.750			
0.8944	57238.61	3.1290	3.1291	-0.1210	26.93	0.94	-0.750			
0.8947	57261.77	3.1260	3.1259	-0.1196	26.94	0.95	-0.750			
0.8951	57284.57	3.1230	3.1230	-0.1182	26.94	0.95	-0.750			
0.8954	57307.14	3.1200	3.1199	-0.1169	26.95	0.96	-0.750			
0.8958	57329.30	3.1170	3.1170	-0.1163	26.95	0.96	-0.750			
0.8961	57351.56	3.1140	3.1142	-0.1156	26.96	0.97	-0.750			
0.8965	57373.60	3.1110	3.1110	-0.1149	26.96	0.97	-0.750			
0.8968	57395.78	3.1080	3.1078	-0.1138	26.97	0.98	-0.750			
0.8971	57417.55	3.1050	3.1050	-0.1129	26.97	0.98	-0.750			
0.8975	57439.08	3.1020	3.1021	-0.1121	26.98	0.99	-0.750			
0.8978	57460.72	3.0990	3.0992	-0.1115	26.98	0.99	-0.750			
0.8982	57481.84	3.0960	3.0960	-0.1109	26.99	1.00	-0.750			
0.8985	57502.76	3.0930	3.0930	-0.1097	26.99	1.00	-0.750			
0.8988	57523.92	3.0900	3.0897	-0.1090	26.99	1.00	-0.750			
0.8991	57544.74	3.0870	3.0870	-0.1084	27.00	1.01	-0.750			
0.8995	57565.52	3.0840	3.0841	-0.1078	27.00	1.01	-0.750			
0.8998	57586.38	3.0810	3.0811	-0.1076	27.00	1.01	-0.750			
0.9001	57606.76	3.0780	3.0780	-0.1074	27.01	1.02	-0.750			
0.9004	57627.16	3.0750	3.0750	-0.1067	27.01	1.02	-0.750			
0.9007	57647.88	3.0720	3.0721	-0.1058	27.01	1.02	-0.750			
0.9011	57668.13	3.0690	3.0690	-0.1051	27.02	1.03	-0.750			
0.9014	57688.21	3.0660	3.0659	-0.1046	27.02	1.03	-0.750			
0.9017	57708.43	3.0630	3.0631	-0.1043	27.02	1.03	-0.750			
0.9020	57728.38	3.0600	3.0601	-0.1035	27.03	1.04	-0.750			
0.9023	57747.94	3.0570	3.0569	-0.1034	27.03	1.04	-0.750			
0.9026	57767.79	3.0540	3.0540	-0.1033	27.03	1.04	-0.750			
0.9029	57787.50	3.0510	3.0507	-0.1019	27.04	1.05	-0.750			
0.9032	57807.04	3.0480	3.0481	-0.1016	27.04	1.05	-0.750			
0.9035	57827.02	3.0450	3.0450	-0.1011	27.04	1.05	-0.750			
0.9038	57846.29	3.0420	3.0422	-0.0996	27.05	1.06	-0.750			
0.9041	57865.15	3.0390	3.0389	-0.0991	27.05	1.06	-0.750			
0.9044	57884.10	3.0360	3.0361	-0.0983	27.05	1.06	-0.750			
0.9047	57902.52	3.0330	3.0331	-0.0973	27.06	1.07	-0.750			
0.9050	57921.19	3.0300	3.0298	-0.0972	27.06	1.07	-0.750			
0.9053	57939.77	3.0270	3.0270	-0.0976	27.06	1.07	-0.750			
0.9056	57958.53	3.0240	3.0242	-0.0978	27.07	1.08	-0.750			
0.9059	57977.64	3.0210	3.0209	-0.0970	27.07	1.08	-0.750			
0.9062	57996.18	3.0180	3.0179	-0.0962	27.07	1.08	-0.750			
0.9065	58014.69	3.0150	3.0152	-0.0956	27.07	1.08	-0.750			
0.9068	58032.96	3.0120	3.0121	-0.0947	27.08	1.09	-0.750			
0.9071	58051.33	3.0090	3.0091	-0.0934	27.08	1.09	-0.751			
0.9073	58069.09	3.0060	3.0056	-0.0916	27.08	1.09	-0.751			
0.9076	58086.67	3.0030	3.0030	-0.0951	27.09	1.10	-0.751			
