Ah_balance (normalized)	Ah_balance (mAh)	Voltage - fit (V)	Voltage -  interpolate (V)	dQ/dV (1/V)	Temperature (°C)	Temperature - diff (°C)	Current (C)	R_DC 0ms (mOhm)	R_DC 50ms (mOhm)	R_DC 50 ms PEC (mOhm)
0.0003	22.39	4.1550	4.1547	-0.1075	25.13	0.00	-0.750			
0.0007	47.27	4.1520	4.1520	-0.1466	25.13	0.00	-0.750			
0.0012	79.16	4.1490	4.1490	-0.1828	25.13	0.00	-0.750			
0.0018	117.82	4.1460	4.1460	-0.2184	25.13	-0.00	-0.750			
0.0026	163.63	4.1430	4.1430	-0.2520	25.13	-0.00	-0.750			
0.0034	216.01	4.1400	4.1400	-0.2861	25.13	-0.00	-0.750			
0.0043	274.72	4.1370	4.1370	-0.3163	25.13	-0.00	-0.750			
0.0053	338.73	4.1340	4.1340	-0.3454	25.12	-0.01	-0.750			
0.0064	408.53	4.1310	4.1310	-0.3716	25.12	-0.01	-0.750			
0.0075	482.39	4.1280	4.1280	-0.3966	25.12	-0.01	-0.750			
0.0088	560.91	4.1250	4.1251	-0.4201	25.12	-0.01	-0.750			
0.0101	643.85	4.1220	4.1220	-0.4448	25.12	-0.01	-0.750			
0.0114	731.78	4.1190	4.1190	-0.4682	25.11	-0.02	-0.750			
0.0129	824.62	4.1160	4.1160	-0.4890	25.11	-0.02	-0.750			
0.0144	920.62	4.1130	4.1131	-0.5072	25.11	-0.02	-0.750			
0.0160	1021.31	4.1100	4.1100	-0.5248	25.11	-0.02	-0.750			
0.0176	1123.49	4.1070	4.1070	-0.5385	25.11	-0.02	-0.750			
0.0192	1228.69	4.1040	4.1040	-0.5514	25.11	-0.02	-0.750			
0.0209	1336.09	4.1010	4.1010	-0.5637	25.11	-0.02	-0.750			
0.0226	1445.39	4.0980	4.0980	-0.5739	25.11	-0.02	-0.750			
0.0243	1557.32	4.0950	4.0950	-0.5846	25.11	-0.02	-0.750			
0.0261	1670.03	4.0920	4.0920	-0.5937	25.11	-0.02	-0.750			
0.0279	1785.20	4.0890	4.0890	-0.6037	25.11	-0.02	-0.750			
0.0297	1901.69	4.0860	4.0860	-0.6123	25.11	-0.02	-0.750			
0.0316	2020.50	4.0830	4.0830	-0.6190	25.11	-0.02	-0.750			
0.0334	2140.60	4.0800	4.0800	-0.6236	25.10	-0.03	-0.750			
0.0353	2261.50	4.0770	4.0770	-0.6314	25.10	-0.03	-0.750			
0.0372	2383.93	4.0740	4.0740	-0.6327	25.10	-0.03	-0.750			
0.0392	2506.14	4.0710	4.0710	-0.6315	25.10	-0.03	-0.750			
0.0410	2626.89	4.0680	4.0680	-0.6326	25.10	-0.03	-0.750			
0.0429	2746.67	4.0650	4.0652	-0.6371	25.11	-0.02	-0.750			
0.0448	2868.94	4.0620	4.0619	-0.6450	25.11	-0.02	-0.750			
0.0468	2992.58	4.0590	4.0589	-0.6526	25.11	-0.02	-0.750			
0.0487	3118.52	4.0560	4.0560	-0.6603	25.12	-0.01	-0.750			
0.0508	3248.58	4.0530	4.0530	-0.6722	25.12	-0.01	-0.750			
0.0528	3378.91	4.0500	4.0500	-0.6767	25.12	-0.01	-0.750			
0.0548	3508.66	4.0470	4.0470	-0.6802	25.12	-0.01	-0.750			
0.0569	3639.07	4.0440	4.0440	-0.6849	25.12	-0.01	-0.750			
0.0589	3771.81	4.0410	4.0409	-0.6848	25.13	-0.00	-0.750			
0.0610	3904.21	4.0380	4.0380	-0.6850	25.13	-0.00	-0.750			
0.0631	4035.54	4.0350	4.0351	-0.6884	25.13	-0.00	-0.750			
0.0651	4167.69	4.0320	4.0320	-0.6871	25.13	0.00	-0.750			
0.0672	4299.23	4.0290	4.0289	-0.6900	25.13	0.00	-0.750			
0.0692	4430.89	4.0260	4.0260	-0.6940	25.14	0.01	-0.750			
0.0713	4564.60	4.0230	4.0230	-0.6961	25.14	0.01	-0.750			
0.0734	4700.24	4.0200	4.0200	-0.6989	25.14	0.01	-0.750			
0.0755	4834.59	4.0170	4.0170	-0.7041	25.15	0.02	-0.750			
0.0776	4969.32	4.0140	4.0140	-0.7067	25.15	0.02	-0.750			
0.0798	5106.07	4.0110	4.0109	-0.7071	25.16	0.03	-0.750			
0.0819	5240.84	4.0080	4.0081	-0.7090	25.16	0.03	-0.750			
0.0840	5377.34	4.0050	4.0050	-0.7109	25.17	0.04	-0.750			
0.0862	5515.03	4.0020	4.0019	-0.7130	25.17	0.04	-0.750			
0.0883	5651.81	3.9990	3.9990	-0.7161	25.18	0.05	-0.750			
0.0904	5788.30	3.9960	3.9960	-0.7166	25.18	0.05	-0.750			
0.0926	5926.67	3.9930	3.9930	-0.7213	25.19	0.06	-0.750			
0.0948	6066.48	3.9900	3.9899	-0.7286	25.19	0.06	-0.750			
0.0970	6206.11	3.9870	3.9870	-0.7263	25.19	0.06	-0.750			
0.0992	6348.05	3.9840	3.9839	-0.7273	25.20	0.07	-0.750			
0.1014	6487.02	3.9810	3.9812	-0.7276	25.20	0.07	-0.750			
0.1035	6625.53	3.9780	3.9779	-0.7241	25.20	0.07	-0.750			
0.1057	6764.50	3.9750	3.9749	-0.7238	25.21	0.08	-0.750			
0.1078	6902.14	3.9720	3.9720	-0.7284	25.22	0.09	-0.750			
0.1100	7042.96	3.9690	3.9689	-0.7305	25.22	0.09	-0.750			
0.1123	7186.19	3.9660	3.9659	-0.7380	25.23	0.10	-0.750			
0.1145	7327.86	3.9630	3.9632	-0.7378	25.23	0.10	-0.750			
0.1167	7468.31	3.9600	3.9600	-0.7405	25.23	0.10	-0.750			
0.1189	7611.56	3.9570	3.9570	-0.7442	25.23	0.10	-0.750			
0.1212	7754.28	3.9540	3.9539	-0.7418	25.24	0.11	-0.750			
0.1234	7898.24	3.9510	3.9510	-0.7458	25.24	0.11	-0.750			
0.1256	8040.35	3.9480	3.9480	-0.7467	25.24	0.11	-0.750			
0.1279	8183.43	3.9450	3.9450	-0.7489	25.24	0.11	-0.750			
0.1301	8326.91	3.9420	3.9419	-0.7541	25.25	0.12	-0.750			
0.1324	8470.70	3.9390	3.9390	-0.7549	25.25	0.12	-0.750			
0.1346	8617.49	3.9360	3.9360	-0.7560	25.26	0.13	-0.750			
0.1369	8763.94	3.9330	3.9329	-0.7588	25.26	0.13	-0.750			
0.1392	8909.62	3.9300	3.9304	-0.7613	25.27	0.14	-0.750			
0.1415	9055.55	3.9270	3.9269	-0.7625	25.27	0.14	-0.750			
0.1438	9201.36	3.9240	3.9240	-0.7636	25.28	0.15	-0.750			
0.1461	9348.26	3.9210	3.9210	-0.7652	25.28	0.15	-0.750			
0.1484	9495.96	3.9180	3.9180	-0.7684	25.28	0.15	-0.750			
0.1507	9644.06	3.9150	3.9149	-0.7682	25.29	0.16	-0.750			
0.1530	9790.59	3.9120	3.9119	-0.7699	25.29	0.16	-0.750			
0.1553	9938.31	3.9090	3.9090	-0.7702	25.29	0.16	-0.750			
0.1576	10087.12	3.9060	3.9060	-0.7702	25.29	0.16	-0.750			
0.1599	10234.49	3.9030	3.9030	-0.7686	25.30	0.17	-0.750			
0.1622	10382.39	3.9000	3.9000	-0.7724	25.30	0.17	-0.750			
0.1645	10530.15	3.8970	3.8970	-0.7744	25.30	0.17	-0.750			
0.1669	10678.89	3.8940	3.8938	-0.7767	25.30	0.17	-0.750			
0.1692	10828.17	3.8910	3.8911	-0.7826	25.31	0.18	-0.750			
0.1716	10980.97	3.8880	3.8881	-0.7832	25.31	0.18	-0.750			
0.1740	11133.98	3.8850	3.8849	-0.7838	25.32	0.19	-0.750			
0.1763	11283.62	3.8820	3.8824	-0.7796	25.32	0.19	-0.750			
0.1786	11431.53	3.8790	3.8788	-0.7720	25.32	0.19	-0.750			
0.1809	11578.44	3.8760	3.8761	-0.7711	25.33	0.20	-0.750			
0.1832	11724.39	3.8730	3.8730	-0.7697	25.33	0.20	-0.750			
0.1855	11873.98	3.8700	3.8700	-0.7795	25.33	0.20	-0.750			
0.1879	12024.06	3.8670	3.8670	-0.7787	25.34	0.21	-0.750			
0.1902	12174.00	3.8640	3.8640	-0.7803	25.34	0.21	-0.750			
0.1925	12321.65	3.8610	3.8610	-0.7860	25.35	0.22	-0.750			
0.1949	12474.39	3.8580	3.8580	-0.7849	25.35	0.22	-0.750			
0.1973	12625.58	3.8550	3.8549	-0.7784	25.35	0.22	-0.750			
0.1996	12775.11	3.8520	3.8519	-0.7755	25.36	0.23	-0.750			
0.2019	12923.13	3.8490	3.8493	-0.7749	25.36	0.23	-0.750			
0.2042	13071.54	3.8460	3.8460	-0.7743	25.36	0.23	-0.750			
0.2066	13220.67	3.8430	3.8429	-0.7688	25.37	0.24	-0.750			
0.2089	13367.26	3.8400	3.8400	-0.7649	25.37	0.24	-0.750			
0.2112	13515.55	3.8370	3.8371	-0.7686	25.38	0.25	-0.750			
0.2135	13661.84	3.8340	3.8339	-0.7669	25.38	0.25	-0.750			
0.2158	13808.06	3.8310	3.8308	-0.7651	25.38	0.25	-0.750			
0.2180	13954.51	3.8280	3.8280	-0.7645	25.39	0.26	-0.750			
0.2203	14100.89	3.8250	3.8250	-0.7635	25.39	0.26	-0.750			
0.2226	14248.88	3.8220	3.8220	-0.7573	25.39	0.26	-0.750			
0.2249	14396.12	3.8190	3.8190	-0.7522	25.40	0.27	-0.750			
0.2272	14538.71	3.8160	3.8161	-0.7476	25.40	0.27	-0.750			
0.2294	14680.46	3.8130	3.8130	-0.7410	25.40	0.27	-0.750			
0.2316	14822.21	3.8100	3.8099	-0.7408	25.41	0.28	-0.750			
0.2338	14964.16	3.8070	3.8070	-0.7363	25.41	0.28	-0.750			
0.2360	15106.57	3.8040	3.8040	-0.7317	25.42	0.29	-0.750			
0.2382	15247.17	3.8010	3.8010	-0.7269	25.42	0.29	-0.750			
0.2404	15386.19	3.7980	3.7979	-0.7221	25.42	0.29	-0.750			
0.2426	15523.33	3.7950	3.7950	-0.7186	25.43	0.30	-0.750			
0.2447	15660.05	3.7920	3.7920	-0.7179	25.43	0.30	-0.750			
0.2468	15798.14	3.7890	3.7890	-0.7148	25.43	0.30	-0.750			
0.2490	15936.59	3.7860	3.7860	-0.7128	25.44	0.31	-0.750			
0.2512	16073.97	3.7830	3.7831	-0.7104	25.44	0.31	-0.750			
0.2533	16209.05	3.7800	3.7800	-0.7068	25.44	0.31	-0.750			
0.2554	16343.71	3.7770	3.7770	-0.7026	25.45	0.32	-0.750			
0.2575	16477.44	3.7740	3.7740	-0.7045	25.45	0.32	-0.750			
0.2596	16611.42	3.7710	3.7710	-0.7055	25.45	0.32	-0.750			
0.2617	16748.80	3.7680	3.7680	-0.7096	25.46	0.33	-0.750			
0.2638	16884.65	3.7650	3.7650	-0.7126	25.46	0.33	-0.750			
0.2660	17022.34	3.7620	3.7620	-0.7145	25.46	0.33	-0.750			
0.2681	17160.29	3.7590	3.7589	-0.7134	25.47	0.34	-0.750			
0.2703	17296.58	3.7560	3.7560	-0.7176	25.47	0.34	-0.750			
0.2724	17433.16	3.7530	3.7531	-0.7235	25.47	0.34	-0.750			
0.2746	17571.50	3.7500	3.7500	-0.7336	25.48	0.35	-0.750			
0.2768	17713.61	3.7470	3.7469	-0.7422	25.48	0.35	-0.750			
0.2790	17855.57	3.7440	3.7440	-0.7537	25.48	0.35	-0.750			
0.2813	18003.03	3.7410	3.7410	-0.7666	25.49	0.36	-0.750			
0.2837	18153.71	3.7380	3.7380	-0.7772	25.49	0.36	-0.750			
0.2860	18302.39	3.7350	3.7349	-0.7834	25.50	0.37	-0.750			
0.2883	18453.17	3.7320	3.7320	-0.7949	25.50	0.37	-0.750			
0.2907	18606.51	3.7290	3.7290	-0.8031	25.50	0.37	-0.750			
0.2932	18762.58	3.7260	3.7259	-0.8145	25.50	0.37	-0.750			
0.2956	18917.97	3.7230	3.7230	-0.8246	25.50	0.37	-0.750			
0.2981	19077.81	3.7200	3.7201	-0.8414	25.50	0.37	-0.750			
0.3007	19242.06	3.7170	3.7169	-0.8554	25.50	0.37	-0.750			
0.3032	19406.76	3.7140	3.7140	-0.8675	25.50	0.37	-0.750			
0.3059	19574.68	3.7110	3.7110	-0.8824	25.50	0.37	-0.750			
0.3085	19746.72	3.7080	3.7080	-0.8989	25.50	0.37	-0.750			
0.3113	19921.60	3.7050	3.7049	-0.9115	25.50	0.37	-0.750			
0.3140	20096.71	3.7020	3.7022	-0.9262	25.50	0.37	-0.750			
0.3168	20274.24	3.6990	3.6990	-0.9484	25.50	0.37	-0.750			
0.3197	20460.58	3.6960	3.6959	-0.9617	25.50	0.37	-0.750			
0.3226	20646.94	3.6930	3.6929	-0.9720	25.50	0.37	-0.750			
0.3256	20836.61	3.6900	3.6900	-0.9897	25.50	0.37	-0.750			
0.3285	21025.15	3.6870	3.6871	-1.0069	25.50	0.37	-0.750			
0.3316	21220.66	3.6840	3.6838	-1.0203	25.50	0.37	-0.750			
0.3346	21416.20	3.6810	3.6810	-1.0341	25.50	0.37	-0.750			
0.3377	21613.43	3.6780	3.6780	-1.0536	25.50	0.37	-0.750			
0.3410	21822.90	3.6750	3.6750	-1.0906	25.50	0.37	-0.750			
0.3443	22033.78	3.6720	3.6719	-1.1078	25.49	0.36	-0.750			
0.3476	22247.97	3.6690	3.6689	-1.1219	25.49	0.36	-0.750			
0.3510	22464.80	3.6660	3.6662	-1.1358	25.48	0.35	-0.750			
0.3545	22688.69	3.6630	3.6630	-1.1669	25.48	0.35	-0.750			
0.3580	22913.88	3.6600	3.6599	-1.1788	25.48	0.35	-0.750			
0.3615	23139.16	3.6570	3.6569	-1.1905	25.48	0.35	-0.750			
0.3651	23368.89	3.6540	3.6541	-1.2112	25.48	0.35	-0.750			
0.3688	23605.21	3.6510	3.6510	-1.2318	25.47	0.34	-0.750			
0.3726	23843.48	3.6480	3.6479	-1.2511	25.46	0.33	-0.750			
0.3763	24081.89	3.6450	3.6451	-1.2662	25.45	0.32	-0.750			
0.3802	24330.84	3.6420	3.6420	-1.2980	25.45	0.32	-0.750			
0.3841	24583.03	3.6390	3.6390	-1.3199	25.44	0.31	-0.750			
0.3881	24838.76	3.6360	3.6360	-1.3475	25.44	0.31	-0.750			
0.3922	25100.52	3.6330	3.6330	-1.3623	25.43	0.30	-0.750			
0.3963	25361.97	3.6300	3.6300	-1.3975	25.43	0.30	-0.750			
0.4005	25635.12	3.6270	3.6270	-1.4202	25.42	0.29	-0.750			
0.4049	25910.96	3.6240	3.6238	-1.4439	25.41	0.28	-0.750			
0.4092	26189.60	3.6210	3.6208	-1.4797	25.41	0.28	-0.750			
0.4137	26478.52	3.6180	3.6183	-1.5023	25.40	0.27	-0.750			
0.4183	26769.63	3.6150	3.6150	-1.5179	25.39	0.26	-0.750			
0.4230	27069.06	3.6120	3.6120	-1.5581	25.39	0.26	-0.750	0.388	0.559	
0.4275	27361.47	3.6090	3.6091	-1.5705	25.38	0.25	-0.750			
0.4324	27671.53	3.6060	3.6060	-1.6184	25.37	0.24	-0.750			
0.4372	27980.24	3.6030	3.6030	-1.6398	25.36	0.23	-0.750			
0.4422	28298.85	3.6000	3.5998	-1.6690	25.35	0.22	-0.750			
0.4473	28625.78	3.5970	3.5968	-1.7281	25.35	0.22	-0.750			
0.4525	28961.70	3.5940	3.5940	-1.7499	25.34	0.21	-0.750			
0.4578	29299.48	3.5910	3.5911	-1.7816	25.33	0.20	-0.750			
0.4632	29646.99	3.5880	3.5881	-1.8232	25.32	0.19	-0.750			
0.4688	30000.15	3.5850	3.5850	-1.8545	25.31	0.18	-0.750			
0.4744	30362.23	3.5820	3.5820	-1.8899	25.30	0.17	-0.750			
0.4802	30731.06	3.5790	3.5788	-1.9175	25.30	0.17	-0.750			
0.4859	31097.76	3.5760	3.5761	-1.9467	25.30	0.17	-0.750			
0.4919	31478.79	3.5730	3.5730	-1.9742	25.30	0.17	-0.750			
0.4977	31854.77	3.5700	3.5699	-1.9904	25.29	0.16	-0.750			
0.5038	32242.45	3.5670	3.5672	-2.0093	25.29	0.16	-0.750			
0.5099	32632.39	3.5640	3.5638	-2.0409	25.28	0.15	-0.750			
0.5161	33029.60	3.5610	3.5611	-2.0482	25.28	0.15	-0.750			
0.5223	33426.68	3.5580	3.5580	-2.0433	25.28	0.15	-0.750			
0.5284	33818.02	3.5550	3.5550	-2.0551	25.28	0.15	-0.750			
0.5346	34212.49	3.5520	3.5520	-2.0325	25.28	0.15	-0.750			
0.5407	34602.12	3.5490	3.5491	-2.0418	25.28	0.15	-0.750			
0.5468	34993.45	3.5460	3.5458	-2.0400	25.27	0.14	-0.750			
0.5529	35385.91	3.5430	3.5430	-2.0355	25.27	0.14	-0.750			
0.5591	35783.29	3.5400	3.5401	-2.0256	25.28	0.15	-0.750			
0.5652	36169.71	3.5370	3.5370	-2.0126	25.28	0.15	-0.750			
0.5712	36558.56	3.5340	3.5341	-1.9856	25.29	0.16	-0.750			
0.5772	36941.41	3.5310	3.5311	-1.9653	25.29	0.16	-0.750			
0.5830	37309.64	3.5280	3.5281	-1.9371	25.28	0.15	-0.750			
0.5887	37677.26	3.5250	3.5251	-1.9176	25.28	0.15	-0.750			
0.5945	38047.45	3.5220	3.5221	-1.8932	25.29	0.16	-0.750			
0.6001	38409.31	3.5190	3.5189	-1.8579	25.30	0.17	-0.750			
0.6056	38760.77	3.5160	3.5162	-1.8056	25.31	0.18	-0.750			
0.6111	39109.39	3.5130	3.5128	-1.7766	25.32	0.19	-0.750			
0.6163	39442.37	3.5100	3.5099	-1.7254	25.32	0.19	-0.750			
0.6214	39769.71	3.5070	3.5070	-1.6778	25.33	0.20	-0.750			
0.6264	40086.59	3.5040	3.5042	-1.6422	25.34	0.21	-0.750			
0.6312	40398.52	3.5010	3.5010	-1.5917	25.35	0.22	-0.750			
0.6360	40701.42	3.4980	3.4979	-1.5549	25.36	0.23	-0.750			
0.6406	40999.00	3.4950	3.4950	-1.5120	25.37	0.24	-0.750			
0.6451	41285.86	3.4920	3.4921	-1.4672	25.38	0.25	-0.750			
0.6493	41558.04	3.4890	3.4889	-1.4259	25.39	0.26	-0.750			
0.6536	41827.94	3.4860	3.4860	-1.3780	25.41	0.28	-0.750			
0.6577	42092.19	3.4830	3.4829	-1.3387	25.42	0.29	-0.750			
0.6616	42345.57	3.4800	3.4799	-1.2975	25.43	0.30	-0.750			
0.6654	42587.80	3.4770	3.4771	-1.2421	25.45	0.32	-0.750			
0.6691	42824.12	3.4740	3.4740	-1.2088	25.46	0.33	-0.750			
0.6727	43049.88	3.4710	3.4710	-1.1689	25.47	0.34	-0.750			
0.6760	43266.69	3.4680	3.4680	-1.1223	25.49	0.36	-0.750			
0.6794	43482.26	3.4650	3.4650	-1.1049	25.50	0.37	-0.750			
0.6827	43692.96	3.4620	3.4620	-1.0754	25.51	0.38	-0.750			
0.6859	43895.92	3.4590	3.4589	-1.0431	25.52	0.39	-0.750			
0.6890	44094.30	3.4560	3.4562	-1.0142	25.53	0.40	-0.750			
0.6919	44283.62	3.4530	3.4530	-0.9876	25.54	0.41	-0.750			
0.6949	44472.49	3.4500	3.4499	-0.9607	25.55	0.42	-0.750			
0.6977	44655.39	3.4470	3.4469	-0.9290	25.56	0.43	-0.750			
0.7005	44831.03	3.4440	3.4440	-0.9042	25.58	0.45	-0.750			
0.7031	44999.94	3.4410	3.4410	-0.8816	25.59	0.46	-0.750			
0.7057	45163.54	3.4380	3.4379	-0.8616	25.59	0.46	-0.750			
0.7082	45325.53	3.4350	3.4349	-0.8488	25.60	0.47	-0.750			
0.7107	45484.46	3.4320	3.4321	-0.8378	25.61	0.48	-0.750			
0.7133	45649.00	3.4290	3.4290	-0.8447	25.62	0.49	-0.750			
0.7158	45810.13	3.4260	3.4261	-0.8460	25.63	0.50	-0.750			
0.7183	45970.73	3.4230	3.4230	-0.8485	25.63	0.50	-0.750			
0.7208	46134.31	3.4200	3.4199	-0.8527	25.64	0.51	-0.750			
0.7234	46300.14	3.4170	3.4169	-0.8498	25.65	0.52	-0.750			
0.7260	46464.32	3.4140	3.4140	-0.8531	25.66	0.53	-0.750			
0.7286	46627.84	3.4110	3.4111	-0.8518	25.67	0.54	-0.750			
0.7311	46791.90	3.4080	3.4080	-0.8516	25.67	0.54	-0.750			
0.7337	46954.79	3.4050	3.4049	-0.8446	25.68	0.55	-0.750			
0.7362	47116.23	3.4020	3.4020	-0.8346	25.69	0.56	-0.750			
0.7387	47278.18	3.3990	3.3991	-0.8298	25.70	0.57	-0.750			
0.7412	47437.31	3.3960	3.3960	-0.8184	25.70	0.57	-0.750			
0.7436	47592.39	3.3930	3.3929	-0.8026	25.71	0.58	-0.750			
0.7460	47745.29	3.3900	3.3900	-0.7855	25.71	0.58	-0.750			
0.7483	47894.07	3.3870	3.3870	-0.7673	25.71	0.58	-0.750			
0.7507	48042.57	3.3840	3.3840	-0.7498	25.72	0.59	-0.750			
0.7529	48184.76	3.3810	3.3809	-0.7266	25.73	0.60	-0.750			
0.7550	48321.47	3.3780	3.3780	-0.7055	25.73	0.60	-0.750			
0.7571	48454.08	3.3750	3.3751	-0.6866	25.74	0.61	-0.750			
0.7591	48583.98	3.3720	3.3719	-0.6631	25.75	0.62	-0.750			
0.7611	48709.70	3.3690	3.3690	-0.6435	25.76	0.63	-0.750			
0.7630	48830.73	3.3660	3.3660	-0.6231	25.77	0.64	-0.750			
0.7648	48947.97	3.3630	3.3630	-0.6058	25.77	0.64	-0.750			
0.7666	49062.57	3.3600	3.3600	-0.5872	25.77	0.64	-0.750			
0.7683	49173.52	3.3570	3.3569	-0.5662	25.78	0.65	-0.750			
0.7700	49279.82	3.3540	3.3540	-0.5490	25.78	0.65	-0.750			
0.7716	49384.77	3.3510	3.3510	-0.5347	25.78	0.65	-0.750			
0.7732	49485.04	3.3480	3.3480	-0.5170	25.78	0.65	-0.750			
0.7747	49582.22	3.3450	3.3450	-0.5030	25.79	0.66	-0.750			
0.7762	49676.52	3.3420	3.3421	-0.4870	25.79	0.66	-0.750			
0.7776	49769.24	3.3390	3.3389	-0.4750	25.79	0.66	-0.750			
0.7791	49859.63	3.3360	3.3360	-0.4636	25.80	0.67	-0.750			
0.7804	49946.28	3.3330	3.3331	-0.4501	25.81	0.68	-0.750			
0.7817	50031.47	3.3300	3.3299	-0.4373	25.81	0.68	-0.750			
0.7830	50114.71	3.3270	3.3270	-0.4257	25.82	0.69	-0.750			
0.7843	50195.34	3.3240	3.3240	-0.4133	25.82	0.69	-0.750			
0.7855	50273.85	3.3210	3.3211	-0.4037	25.83	0.70	-0.750			
0.7867	50349.69	3.3180	3.3180	-0.3938	25.83	0.70	-0.750			
0.7879	50423.75	3.3150	3.3150	-0.3834	25.84	0.71	-0.750			
0.7890	50496.68	3.3120	3.3121	-0.3744	25.84	0.71	-0.750			
0.7901	50568.00	3.3090	3.3090	-0.3657	25.84	0.71	-0.750			
0.7912	50636.76	3.3060	3.3061	-0.3569	25.85	0.72	-0.750			
0.7923	50704.26	3.3030	3.3030	-0.3490	25.85	0.72	-0.750			
0.7933	50770.53	3.3000	3.3000	-0.3404	25.86	0.73	-0.750			
0.7943	50834.57	3.2970	3.2969	-0.3322	25.86	0.73	-0.750			
0.7953	50897.56	3.2940	3.2941	-0.3265	25.87	0.74	-0.750			
0.7962	50959.77	3.2910	3.2910	-0.3206	25.87	0.74	-0.750			
0.7972	51020.87	3.2880	3.2880	-0.3141	25.87	0.74	-0.750			
0.7981	51080.10	3.2850	3.2850	-0.3080	25.88	0.75	-0.750			
0.7990	51138.82	3.2820	3.2820	-0.3019	25.88	0.75	-0.750			
0.7999	51196.38	3.2790	3.2790	-0.2976	25.88	0.75	-0.750			
0.8008	51252.30	3.2760	3.2760	-0.2911	25.89	0.76	-0.750			
0.8017	51307.86	3.2730	3.2731	-0.2855	25.89	0.76	-0.750			
0.8025	51362.53	3.2700	3.2700	-0.2808	25.90	0.77	-0.750			
0.8034	51415.83	3.2670	3.2670	-0.2762	25.90	0.77	-0.750			
0.8042	51468.20	3.2640	3.2640	-0.2709	25.91	0.78	-0.750			
0.8050	51519.74	3.2610	3.2609	-0.2666	25.91	0.78	-0.750			
0.8058	51570.07	3.2580	3.2580	-0.2619	25.92	0.79	-0.750			
0.8066	51619.81	3.2550	3.2550	-0.2582	25.92	0.79	-0.750			
0.8073	51669.18	3.2520	3.2520	-0.2548	25.93	0.80	-0.750			
0.8081	51717.77	3.2490	3.2490	-0.2514	25.93	0.80	-0.750			
0.8088	51765.63	3.2460	3.2459	-0.2477	25.94	0.81	-0.750			
0.8096	51812.91	3.2430	3.2430	-0.2445	25.94	0.81	-0.750			
0.8103	51859.59	3.2400	3.2399	-0.2415	25.95	0.82	-0.750			
0.8110	51905.49	3.2370	3.2370	-0.2386	25.95	0.82	-0.750			
0.8117	51951.14	3.2340	3.2340	-0.2352	25.96	0.83	-0.750			
0.8124	51996.08	3.2310	3.2310	-0.2318	25.96	0.83	-0.750			
0.8131	52040.38	3.2280	3.2280	-0.2286	25.96	0.83	-0.750			
0.8138	52083.89	3.2250	3.2250	-0.2254	25.97	0.84	-0.750			
0.8145	52126.84	3.2220	3.2220	-0.2222	25.97	0.84	-0.750			
0.8151	52168.96	3.2190	3.2190	-0.2196	25.98	0.85	-0.750			
0.8158	52210.58	3.2160	3.2160	-0.2167	25.99	0.86	-0.750			
0.8164	52251.76	3.2130	3.2130	-0.2140	25.99	0.86	-0.750			
0.8171	52292.81	3.2100	3.2100	-0.2122	26.00	0.87	-0.750			
0.8177	52333.51	3.2070	3.2070	-0.2097	26.01	0.88	-0.750			
0.8183	52373.53	3.2040	3.2040	-0.2071	26.01	0.88	-0.750			
0.8190	52413.18	3.2010	3.2010	-0.2041	26.02	0.89	-0.750			
0.8196	52452.12	3.1980	3.1980	-0.2016	26.02	0.89	-0.750			
0.8202	52490.08	3.1950	3.1950	-0.1988	26.03	0.90	-0.750			
0.8208	52528.06	3.1920	3.1920	-0.1969	26.03	0.90	-0.750			
0.8213	52565.66	3.1890	3.1889	-0.1946	26.04	0.91	-0.750			
0.8219	52602.57	3.1860	3.1862	-0.1927	26.05	0.92	-0.750			
0.8225	52639.66	3.1830	3.1830	-0.1912	26.05	0.92	-0.750			
0.8231	52676.18	3.1800	3.1800	-0.1893	26.06	0.93	-0.750			
0.8236	52712.50	3.1770	3.1769	-0.1874	26.06	0.93	-0.750			
0.8242	52748.29	3.1740	3.1740	-0.1851	26.07	0.94	-0.750			
0.8247	52783.66	3.1710	3.1709	-0.1823	26.07	0.94	-0.750			
0.8253	52818.22	3.1680	3.1681	-0.1803	26.07	0.94	-0.750			
0.8258	52852.75	3.1650	3.1650	-0.1783	26.08	0.95	-0.750			
0.8264	52886.43	3.1620	3.1620	-0.1762	26.08	0.95	-0.750			
0.8269	52920.08	3.1590	3.1589	-0.1747	26.08	0.95	-0.750			
0.8274	52953.60	3.1560	3.1560	-0.1730	26.09	0.96	-0.750			
0.8279	52986.59	3.1530	3.1529	-0.1714	26.10	0.97	-0.750			
0.8284	53019.55	3.1500	3.1500	-0.1696	26.10	0.97	-0.750			
0.8289	53051.93	3.1470	3.1470	-0.1687	26.11	0.98	-0.750			
0.8294	53083.87	3.1440	3.1440	-0.1665	26.11	0.98	-0.750			
0.8299	53115.76	3.1410	3.1411	-0.1653	26.12	0.99	-0.750			
0.8304	53147.33	3.1380	3.1379	-0.1638	26.12	0.99	-0.750			
0.8309	53178.62	3.1350	3.1350	-0.1625	26.13	1.00	-0.750			
0.8314	53209.88	3.1320	3.1320	-0.1616	26.13	1.00	-0.750			
0.8319	53240.83	3.1290	3.1290	-0.1596	26.14	1.01	-0.750			
0.8324	53271.39	3.1260	3.1260	-0.1581	26.14	1.01	-0.750			
0.8328	53301.39	3.1230	3.1230	-0.1560	26.15	1.02	-0.750			
0.8333	53331.19	3.1200	3.1200	-0.1545	26.15	1.02	-0.750			
0.8338	53360.64	3.1170	3.1169	-0.1538	26.16	1.03	-0.750			
0.8342	53390.06	3.1140	3.1140	-0.1522	26.16	1.03	-0.750			
0.8347	53419.01	3.1110	3.1109	-0.1510	26.17	1.04	-0.750			
0.8351	53447.93	3.1080	3.1080	-0.1502	26.17	1.04	-0.750			
0.8356	53476.93	3.1050	3.1050	-0.1487	26.18	1.05	-0.750			
0.8360	53505.22	3.1020	3.1020	-0.1477	26.18	1.05	-0.750			
0.8365	53533.62	3.0990	3.0990	-0.1463	26.19	1.06	-0.750			
0.8369	53561.55	3.0960	3.0960	-0.1447	26.19	1.06	-0.750			
0.8373	53588.95	3.0930	3.0929	-0.1435	26.19	1.06	-0.750			
0.8378	53616.46	3.0900	3.0901	-0.1428	26.20	1.07	-0.750			
0.8382	53643.59	3.0870	3.0869	-0.1415	26.20	1.07	-0.750			
0.8386	53670.79	3.0840	3.0841	-0.1403	26.21	1.08	-0.750			
0.8390	53697.87	3.0810	3.0811	-0.1393	26.21	1.08	-0.750			
0.8394	53724.31	3.0780	3.0780	-0.1378	26.22	1.09	-0.750			
0.8399	53750.89	3.0750	3.0750	-0.1371	26.22	1.09	-0.750			
0.8403	53776.89	3.0720	3.0720	-0.1364	26.23	1.10	-0.750			
0.8407	53802.80	3.0690	3.0690	-0.1351	26.24	1.11	-0.750			
0.8411	53828.70	3.0660	3.0659	-0.1341	26.24	1.11	-0.750			
0.8415	53854.39	3.0630	3.0631	-0.1335	26.25	1.12	-0.750			
0.8419	53880.07	3.0600	3.0601	-0.1329	26.26	1.13	-0.750			
0.8423	53905.58	3.0570	3.0570	-0.1321	26.26	1.13	-0.750			
0.8427	53930.82	3.0540	3.0540	-0.1310	26.27	1.14	-0.750			
0.8431	53955.87	3.0510	3.0510	-0.1301	26.28	1.15	-0.750			
0.8434	53980.59	3.0480	3.0480	-0.1290	26.28	1.15	-0.750			
0.8438	54005.47	3.0450	3.0450	-0.1280	26.29	1.16	-0.750			
0.8442	54030.05	3.0420	3.0419	-0.1269	26.30	1.17	-0.750			
0.8446	54054.16	3.0390	3.0389	-0.1260	26.30	1.17	-0.750			
0.8450	54078.14	3.0360	3.0361	-0.1248	26.31	1.18	-0.750			
0.8453	54101.92	3.0330	3.0330	-0.1241	26.31	1.18	-0.750			
0.8457	54125.68	3.0300	3.0299	-0.1235	26.32	1.19	-0.750			
0.8461	54149.29	3.0270	3.0271	-0.1226	26.33	1.20	-0.750			
0.8464	54172.77	3.0240	3.0239	-0.1220	26.33	1.20	-0.750			
0.8468	54196.26	3.0210	3.0210	-0.1215	26.34	1.21	-0.750			
0.8472	54219.50	3.0180	3.0180	-0.1206	26.35	1.22	-0.750			
0.8475	54242.70	3.0150	3.0151	-0.1193	26.35	1.22	-0.750			
0.8479	54265.48	3.0120	3.0119	-0.1180	26.36	1.23	-0.750			
0.8483	54288.12	3.0090	3.0090	-0.1166	26.36	1.23	-0.750			
0.8486	54310.36	3.0060	3.0060	-0.1151	26.37	1.24	-0.750			
0.8489	54332.27	3.0030	3.0030	-0.1115	26.37	1.24	-0.750			
