Ah_balance (normalized)	Ah_balance (mAh)	Voltage - fit (V)	Voltage -  interpolate (V)	dQ/dV (1/V)	Temperature (°C)	Temperature - diff (°C)	Current (C)	R_DC 0ms (mOhm)	R_DC 50ms (mOhm)	R_DC 50 ms PEC (mOhm)
0.0494	3160.76	4.1980	4.1980	0.7455	26.19	0.26	0.750			
0.0516	3304.61	4.1950	4.1952	0.7561	26.19	0.26	0.750			
0.0539	3451.30	4.1920	4.1917	0.7679	26.19	0.26	0.750			
0.0563	3600.55	4.1890	4.1890	0.7745	26.19	0.26	0.750			
0.0586	3749.26	4.1860	4.1862	0.7744	26.19	0.26	0.750			
0.0609	3899.79	4.1830	4.1830	0.7774	26.19	0.26	0.750			
0.0633	4053.30	4.1800	4.1799	0.7870	26.19	0.26	0.750			
0.0656	4199.95	4.1770	4.1771	0.7756	26.19	0.26	0.750			
0.0680	4349.41	4.1740	4.1739	0.7788	26.19	0.26	0.750			
0.0703	4500.05	4.1710	4.1710	0.7778	26.20	0.27	0.750			
0.0727	4649.95	4.1680	4.1680	0.7702	26.20	0.27	0.750			
0.0749	4795.71	4.1650	4.1651	0.7746	26.20	0.27	0.750			
0.0772	4941.93	4.1620	4.1621	0.7804	26.21	0.28	0.750			
0.0796	5092.26	4.1590	4.1585	0.7825	26.21	0.28	0.750			
0.0819	5243.69	4.1560	4.1560	0.7891	26.21	0.28	0.750			
0.0843	5395.70	4.1530	4.1531	0.7926	26.21	0.28	0.750			
0.0868	5552.22	4.1500	4.1501	0.8007	26.21	0.28	0.750			
0.0891	5704.70	4.1470	4.1469	0.7926	26.21	0.28	0.750			
0.0915	5857.33	4.1440	4.1439	0.7923	26.21	0.28	0.750			
0.0939	6008.05	4.1410	4.1411	0.7916	26.21	0.28	0.750			
0.0963	6161.94	4.1380	4.1380	0.7938	26.21	0.28	0.750			
0.0987	6314.33	4.1350	4.1350	0.7947	26.21	0.28	0.750			
0.1010	6465.85	4.1320	4.1321	0.7968	26.21	0.28	0.750			
0.1034	6618.01	4.1290	4.1290	0.8002	26.21	0.28	0.750			
0.1058	6773.30	4.1260	4.1260	0.8021	26.21	0.28	0.750			
0.1083	6929.17	4.1230	4.1229	0.8005	26.22	0.29	0.750			
0.1107	7082.19	4.1200	4.1201	0.7985	26.22	0.29	0.750			
0.1131	7235.44	4.1170	4.1171	0.8026	26.22	0.29	0.750			
0.1154	7387.99	4.1140	4.1140	0.8027	26.23	0.30	0.750			
0.1178	7541.71	4.1110	4.1109	0.8067	26.23	0.30	0.750			
0.1203	7698.22	4.1080	4.1080	0.8050	26.23	0.30	0.750			
0.1227	7853.20	4.1050	4.1051	0.8120	26.23	0.30	0.750			
0.1252	8010.67	4.1020	4.1020	0.8211	26.23	0.30	0.750			
0.1276	8167.53	4.0990	4.0991	0.8259	26.23	0.30	0.750			
0.1301	8324.99	4.0960	4.0959	0.8271	26.23	0.30	0.750			
0.1326	8488.07	4.0930	4.0930	0.8237	26.24	0.31	0.750			
0.1351	8646.63	4.0900	4.0902	0.8287	26.24	0.31	0.750			
0.1376	8805.33	4.0870	4.0870	0.8328	26.24	0.31	0.750			
0.1401	8963.88	4.0840	4.0841	0.8359	26.25	0.32	0.750			
0.1425	9122.79	4.0810	4.0809	0.8370	26.25	0.32	0.750			
0.1451	9286.93	4.0780	4.0780	0.8305	26.25	0.32	0.750			
0.1476	9448.68	4.0750	4.0752	0.8394	26.25	0.32	0.750			
0.1501	9609.45	4.0720	4.0721	0.8434	26.25	0.32	0.750			
0.1527	9770.19	4.0690	4.0689	0.8401	26.25	0.32	0.750			
0.1551	9929.24	4.0660	4.0660	0.8421	26.25	0.32	0.750			
0.1576	10089.23	4.0630	4.0631	0.8600	26.25	0.32	0.750			
0.1603	10256.22	4.0600	4.0601	0.8634	26.25	0.32	0.750			
0.1629	10427.21	4.0570	4.0569	0.8606	26.25	0.32	0.750			
0.1655	10591.43	4.0540	4.0539	0.8528	26.25	0.32	0.750			
0.1680	10754.44	4.0510	4.0517	0.8529	26.25	0.32	0.750			
0.1706	10919.50	4.0480	4.0479	0.8497	26.26	0.33	0.750			
0.1731	11079.33	4.0450	4.0449	0.8565	26.26	0.33	0.750			
0.1757	11246.60	4.0420	4.0419	0.8518	26.26	0.33	0.750			
0.1783	11409.09	4.0390	4.0390	0.8476	26.27	0.34	0.750			
0.1809	11575.23	4.0360	4.0361	0.8562	26.27	0.34	0.750			
0.1834	11740.02	4.0330	4.0332	0.8467	26.27	0.34	0.750			
0.1859	11900.38	4.0300	4.0298	0.8554	26.27	0.34	0.750			
0.1885	12063.47	4.0270	4.0271	0.8588	26.27	0.34	0.750			
0.1910	12225.74	4.0240	4.0239	0.8622	26.27	0.34	0.750			
0.1937	12394.96	4.0210	4.0211	0.8793	26.27	0.34	0.750			
0.1963	12565.08	4.0180	4.0180	0.8869	26.27	0.34	0.750			
0.1990	12735.96	4.0150	4.0150	0.8960	26.28	0.35	0.750			
0.2017	12909.51	4.0120	4.0120	0.8991	26.28	0.35	0.750			
0.2045	13085.45	4.0090	4.0092	0.9072	26.28	0.35	0.750			
0.2072	13263.25	4.0060	4.0061	0.9080	26.28	0.35	0.750			
0.2100	13436.83	4.0030	4.0030	0.9091	26.28	0.35	0.750			
0.2127	13610.48	4.0000	4.0001	0.9126	26.29	0.36	0.750			
0.2154	13783.30	3.9970	3.9969	0.9121	26.29	0.36	0.750			
0.2181	13959.95	3.9940	3.9940	0.9141	26.29	0.36	0.750			
0.2209	14137.11	3.9910	3.9910	0.9139	26.29	0.36	0.750			
0.2236	14312.16	3.9880	3.9881	0.9137	26.30	0.37	0.750			
0.2264	14489.90	3.9850	3.9851	0.9173	26.30	0.37	0.750			
0.2291	14662.65	3.9820	3.9819	0.9185	26.30	0.37	0.750			
0.2318	14838.17	3.9790	3.9790	0.9184	26.30	0.37	0.750			
0.2346	15015.65	3.9760	3.9760	0.9271	26.30	0.37	0.750			
0.2374	15196.60	3.9730	3.9730	0.9366	26.31	0.38	0.750			
0.2403	15376.73	3.9700	3.9700	0.9362	26.31	0.38	0.750			
0.2431	15557.32	3.9670	3.9670	0.9382	26.31	0.38	0.750			
0.2459	15738.50	3.9640	3.9640	0.9280	26.32	0.39	0.750			
0.2486	15912.77	3.9610	3.9611	0.9305	26.32	0.39	0.750			
0.2514	16092.36	3.9580	3.9581	0.9307	26.33	0.40	0.750			
0.2542	16269.65	3.9550	3.9547	0.9330	26.33	0.40	0.750			
0.2570	16449.84	3.9520	3.9520	0.9315	26.33	0.40	0.750			
0.2598	16628.94	3.9490	3.9492	0.9366	26.33	0.40	0.750			
0.2626	16808.77	3.9460	3.9461	0.9468	26.34	0.41	0.750			
0.2655	16990.43	3.9430	3.9430	0.9487	26.34	0.41	0.750			
0.2683	17173.82	3.9400	3.9400	0.9486	26.34	0.41	0.750			
0.2712	17358.25	3.9370	3.9370	0.9562	26.34	0.41	0.750			
0.2741	17540.00	3.9340	3.9342	0.9613	26.35	0.42	0.750			
0.2770	17727.46	3.9310	3.9310	0.9676	26.35	0.42	0.750			
0.2799	17912.34	3.9280	3.9279	0.9642	26.35	0.42	0.750			
0.2828	18099.56	3.9250	3.9249	0.9478	26.35	0.42	0.750			
0.2856	18278.27	3.9220	3.9222	0.9652	26.35	0.42	0.750			
0.2885	18463.51	3.9190	3.9191	0.9762	26.35	0.42	0.750			
0.2914	18650.71	3.9160	3.9156	0.9872	26.35	0.42	0.750			
0.2944	18844.27	3.9130	3.9130	0.9761	26.35	0.42	0.750			
0.2974	19033.35	3.9100	3.9101	0.9928	26.35	0.42	0.750			
0.3004	19226.60	3.9070	3.9072	0.9970	26.35	0.42	0.750			
0.3034	19418.40	3.9040	3.9040	0.9921	26.35	0.42	0.750			
0.3064	19612.33	3.9010	3.9011	0.9805	26.35	0.42	0.750			
0.3094	19798.73	3.8980	3.8983	0.9803	26.36	0.43	0.750			
0.3123	19984.78	3.8950	3.8950	0.9884	26.36	0.43	0.750			
0.3153	20178.62	3.8920	3.8922	1.0003	26.37	0.44	0.750			
0.3182	20366.98	3.8890	3.8890	0.9880	26.37	0.44	0.750			
0.3212	20557.45	3.8860	3.8861	0.9966	26.37	0.44	0.750			
0.3242	20751.06	3.8830	3.8831	1.0052	26.37	0.44	0.750			
0.3273	20946.27	3.8800	3.8802	1.0157	26.37	0.44	0.750			
0.3303	21140.48	3.8770	3.8770	1.0179	26.37	0.44	0.750			
0.3334	21335.77	3.8740	3.8740	1.0118	26.37	0.44	0.750			
0.3364	21529.02	3.8710	3.8711	1.0252	26.37	0.44	0.750			
0.3395	21727.69	3.8680	3.8681	1.0333	26.37	0.44	0.750			
0.3426	21928.76	3.8650	3.8650	1.0294	26.37	0.44	0.750			
0.3457	22126.01	3.8620	3.8620	1.0352	26.37	0.44	0.750			
0.3488	22323.34	3.8590	3.8592	1.0474	26.36	0.43	0.750			
0.3520	22525.53	3.8560	3.8560	1.0612	26.36	0.43	0.750			
0.3552	22731.48	3.8530	3.8528	1.0581	26.36	0.43	0.750			
0.3583	22933.26	3.8500	3.8500	1.0778	26.36	0.43	0.750			
0.3616	23142.94	3.8470	3.8472	1.0990	26.36	0.43	0.750			
0.3649	23356.57	3.8440	3.8440	1.1111	26.36	0.43	0.750			
0.3683	23573.53	3.8410	3.8410	1.1030	26.36	0.43	0.750			
0.3716	23782.34	3.8380	3.8382	1.1303	26.35	0.42	0.750			
0.3750	23998.65	3.8350	3.8350	1.1524	26.35	0.42	0.750			
0.3785	24225.51	3.8320	3.8317	1.1632	26.34	0.41	0.750			
0.3820	24447.55	3.8290	3.8292	1.1784	26.33	0.40	0.750			
0.3856	24677.81	3.8260	3.8261	1.2023	26.32	0.39	0.750			
0.3892	24910.80	3.8230	3.8231	1.2290	26.32	0.39	0.750			
0.3929	25148.64	3.8200	3.8200	1.2257	26.31	0.38	0.750			
0.3966	25384.72	3.8170	3.8171	1.2402	26.30	0.37	0.750			
0.4004	25624.23	3.8140	3.8141	1.2626	26.30	0.37	0.750			
0.4043	25872.50	3.8110	3.8105	1.2703	26.29	0.36	0.750			
0.4081	26115.68	3.8080	3.8080	1.2811	26.28	0.35	0.750			
0.4119	26362.31	3.8050	3.8050	1.2967	26.28	0.35	0.750			
0.4159	26617.69	3.8020	3.8018	1.2886	26.27	0.34	0.750			
0.4198	26865.52	3.7990	3.7991	1.3126	26.26	0.33	0.750			
0.4236	27112.46	3.7960	3.7961	1.3253	26.25	0.32	0.750			
0.4277	27370.60	3.7930	3.7932	1.3283	26.24	0.31	0.750			
0.4317	27628.47	3.7900	3.7900	1.3564	26.22	0.29	0.750			
0.4357	27886.06	3.7870	3.7872	1.3712	26.21	0.28	0.750			
0.4399	28154.51	3.7840	3.7840	1.3868	26.20	0.27	0.750			
0.4442	28427.81	3.7810	3.7811	1.4124	26.19	0.26	0.750			
0.4483	28692.85	3.7780	3.7780	1.4046	26.18	0.25	0.750			
0.4526	28968.78	3.7750	3.7750	1.4043	26.17	0.24	0.750			
0.4570	29246.06	3.7720	3.7720	1.4208	26.15	0.22	0.750			
0.4612	29513.70	3.7690	3.7691	1.4221	26.14	0.21	0.750			
0.4653	29781.93	3.7660	3.7659	1.4524	26.13	0.20	0.750			
0.4697	30058.06	3.7630	3.7633	1.4891	26.12	0.19	0.750			
0.4742	30347.83	3.7600	3.7596	1.5166	26.11	0.18	0.750			
0.4788	30643.08	3.7570	3.7569	1.5503	26.09	0.16	0.750	0.357	0.407	
0.4835	30946.66	3.7540	3.7540	1.5756	26.08	0.15	0.750			
0.4884	31258.10	3.7510	3.7511	1.5956	26.07	0.14	0.750			
0.4932	31563.74	3.7480	3.7478	1.6212	26.06	0.13	0.750			
0.4980	31873.50	3.7450	3.7449	1.6526	26.04	0.11	0.750			
0.5031	32197.25	3.7420	3.7420	1.6895	26.02	0.09	0.750			
0.5082	32527.92	3.7390	3.7393	1.7440	26.00	0.07	0.750			
0.5135	32866.31	3.7360	3.7363	1.7960	25.98	0.05	0.750			
0.5190	33216.76	3.7330	3.7330	1.8516	25.97	0.04	0.750			
0.5247	33577.92	3.7300	3.7299	1.9089	25.96	0.03	0.750			
0.5305	33951.10	3.7270	3.7270	1.9571	25.95	0.02	0.750			
0.5364	34331.48	3.7240	3.7239	2.0003	25.93	-0.00	0.750			
0.5426	34726.37	3.7210	3.7210	2.0432	25.91	-0.02	0.750			
0.5488	35122.33	3.7180	3.7179	2.0946	25.89	-0.04	0.750			
0.5551	35525.70	3.7150	3.7150	2.1567	25.87	-0.06	0.750			
0.5618	35954.32	3.7120	3.7117	2.2127	25.85	-0.08	0.750			
0.5685	36383.59	3.7090	3.7092	2.2814	25.83	-0.10	0.750			
0.5754	36827.79	3.7060	3.7061	2.3435	25.81	-0.12	0.750			
0.5826	37284.43	3.7030	3.7034	2.4258	25.79	-0.14	0.750			
0.5899	37752.48	3.7000	3.7000	2.4948	25.77	-0.16	0.750			
0.5974	38235.39	3.6970	3.6968	2.5760	25.75	-0.18	0.750			
0.6053	38741.98	3.6940	3.6940	2.6096	25.72	-0.21	0.750			
0.6134	39255.17	3.6910	3.6910	2.6701	25.71	-0.22	0.750			
0.6214	39766.41	3.6880	3.6882	2.7813	25.69	-0.24	0.750			
0.6297	40298.90	3.6850	3.6847	2.9083	25.67	-0.26	0.750			
0.6387	40874.38	3.6820	3.6817	3.0212	25.64	-0.29	0.750			
0.6481	41475.97	3.6790	3.6789	3.1229	25.61	-0.32	0.750			
0.6577	42092.99	3.6760	3.6761	3.1947	25.59	-0.34	0.750			
0.6672	42702.08	3.6730	3.6731	3.2884	25.58	-0.35	0.750			
0.6772	43338.72	3.6700	3.6700	3.4336	25.56	-0.37	0.750			
0.6880	44033.48	3.6670	3.6672	3.4491	25.56	-0.37	0.750			
0.6985	44702.88	3.6640	3.6642	3.3431	25.55	-0.38	0.750			
0.7084	45338.96	3.6610	3.6611	3.1043	25.54	-0.39	0.750			
0.7174	45913.27	3.6580	3.6581	2.8288	25.55	-0.38	0.750			
0.7251	46407.84	3.6550	3.6553	2.5161	25.54	-0.39	0.750			
0.7323	46864.80	3.6520	3.6517	2.2439	25.54	-0.39	0.750			
0.7383	47253.82	3.6490	3.6491	2.0007	25.55	-0.38	0.750			
0.7439	47606.77	3.6460	3.6458	1.8039	25.56	-0.37	0.750			
0.7488	47925.16	3.6430	3.6433	1.6442	25.56	-0.37	0.750			
0.7536	48228.12	3.6400	3.6399	1.5050	25.56	-0.37	0.750			
0.7578	48498.23	3.6370	3.6371	1.4115	25.56	-0.37	0.750			
0.7618	48753.23	3.6340	3.6341	1.3225	25.57	-0.36	0.750			
0.7655	48989.92	3.6310	3.6309	1.2580	25.57	-0.36	0.750			
0.7691	49223.95	3.6280	3.6280	1.2291	25.57	-0.36	0.750			
0.7726	49449.01	3.6250	3.6251	1.2123	25.57	-0.36	0.750			
0.7763	49680.92	3.6220	3.6220	1.2206	25.58	-0.35	0.750			
0.7799	49915.26	3.6190	3.6191	1.2300	25.58	-0.35	0.750			
0.7837	50154.81	3.6160	3.6160	1.2330	25.59	-0.34	0.750			
0.7874	50390.87	3.6130	3.6131	1.2653	25.59	-0.34	0.750			
0.7913	50645.89	3.6100	3.6098	1.2417	25.60	-0.33	0.750			
0.7951	50884.93	3.6070	3.6071	1.2274	25.60	-0.33	0.750			
0.7987	51118.70	3.6040	3.6039	1.2106	25.60	-0.33	0.750			
0.8023	51347.01	3.6010	3.6012	1.1914	25.60	-0.33	0.750			
0.8058	51568.55	3.5980	3.5980	1.1770	25.60	-0.33	0.750			
0.8092	51790.17	3.5950	3.5951	1.1885	25.61	-0.32	0.750			
0.8126	52008.95	3.5920	3.5921	1.2028	25.61	-0.32	0.750			
0.8165	52254.91	3.5890	3.5889	1.2394	25.62	-0.31	0.750			
0.8202	52490.46	3.5860	3.5860	1.2703	25.62	-0.31	0.750			
0.8240	52738.27	3.5830	3.5831	1.3142	25.62	-0.31	0.750			
0.8281	52995.65	3.5800	3.5801	1.3538	25.62	-0.31	0.750			
0.8322	53260.06	3.5770	3.5769	1.3916	25.62	-0.31	0.750			
0.8365	53533.48	3.5740	3.5740	1.4185	25.63	-0.30	0.750			
0.8408	53810.32	3.5710	3.5709	1.4760	25.64	-0.29	0.750			
0.8453	54101.44	3.5680	3.5681	1.5233	25.64	-0.29	0.750			
0.8499	54396.77	3.5650	3.5647	1.5404	25.65	-0.28	0.750			
0.8546	54697.53	3.5620	3.5624	1.5821	25.65	-0.28	0.750			
0.8594	55003.63	3.5590	3.5589	1.6018	25.65	-0.28	0.750			
0.8643	55317.60	3.5560	3.5559	1.6117	25.66	-0.27	0.750			
0.8692	55631.80	3.5530	3.5529	1.6102	25.66	-0.27	0.750			
0.8740	55938.02	3.5500	3.5503	1.6187	25.67	-0.26	0.750			
0.8789	56251.00	3.5470	3.5469	1.6167	25.67	-0.26	0.750			
0.8838	56562.76	3.5440	3.5441	1.6476	25.67	-0.26	0.750			
0.8887	56874.34	3.5410	3.5411	1.6722	25.68	-0.25	0.750			
0.8937	57194.85	3.5380	3.5380	1.7185	25.68	-0.25	0.750			
0.8990	57536.23	3.5350	3.5351	1.7415	25.70	-0.23	0.750			
0.9047	57901.51	3.5320	3.5317	1.6809	25.71	-0.22	0.750			
0.9098	58229.68	3.5290	3.5290	1.5340	25.73	-0.20	0.750			
0.9147	58541.77	3.5260	3.5263	1.3347	25.74	-0.19	0.750			
0.9186	58787.69	3.5230	3.5234	1.0877	25.76	-0.17	0.750			
0.9212	58954.71	3.5200	3.5198	0.8468	25.77	-0.16	0.750			
0.9229	59064.72	3.5170	3.5165	0.6133	25.78	-0.15	0.750			
0.9239	59132.37	3.5140	3.5139	0.4578	25.79	-0.14	0.750			
0.9251	59208.21	3.5110	3.5109	0.3978	25.80	-0.13	0.750			
0.9262	59274.81	3.5080	3.5079	0.3554	25.80	-0.13	0.750			
0.9272	59339.33	3.5050	3.5050	0.3314	25.81	-0.12	0.750			
0.9281	59399.45	3.5020	3.5020	0.3153	25.81	-0.12	0.750			
0.9290	59458.19	3.4990	3.4990	0.3025	25.82	-0.11	0.750			
0.9299	59514.02	3.4960	3.4958	0.2919	25.83	-0.10	0.750			
0.9308	59568.97	3.4930	3.4930	0.2838	25.84	-0.09	0.750			
0.9316	59622.52	3.4900	3.4901	0.2765	25.84	-0.09	0.750			
0.9324	59675.58	3.4870	3.4870	0.2716	25.85	-0.08	0.750			
0.9332	59727.22	3.4840	3.4841	0.2653	25.86	-0.07	0.750			
0.9340	59776.81	3.4810	3.4810	0.2589	25.86	-0.07	0.750			
0.9348	59825.93	3.4780	3.4779	0.2541	25.87	-0.06	0.750			
0.9355	59873.98	3.4750	3.4750	0.2492	25.88	-0.05	0.750			
0.9363	59921.53	3.4720	3.4719	0.2446	25.88	-0.05	0.750			
0.9370	59968.11	3.4690	3.4690	0.2400	25.89	-0.04	0.750			
0.9377	60013.79	3.4660	3.4660	0.2353	25.90	-0.03	0.750			
0.9384	60058.05	3.4630	3.4631	0.2323	25.90	-0.03	0.750			
0.9391	60102.40	3.4600	3.4599	0.2279	25.91	-0.02	0.750			
0.9398	60146.37	3.4570	3.4569	0.2235	25.91	-0.02	0.750			
0.9405	60188.82	3.4540	3.4539	0.2186	25.92	-0.01	0.750			
0.9411	60230.46	3.4510	3.4512	0.2141	25.92	-0.01	0.750			
0.9417	60271.17	3.4480	3.4481	0.2103	25.93	-0.00	0.750			
0.9424	60310.79	3.4450	3.4450	0.2055	25.94	0.01	0.750			
0.9430	60349.84	3.4420	3.4418	0.2012	25.94	0.01	0.750			
0.9436	60387.36	3.4390	3.4390	0.1962	25.95	0.02	0.750			
0.9441	60425.16	3.4360	3.4361	0.1930	25.95	0.02	0.750			
0.9447	60462.27	3.4330	3.4329	0.1896	25.96	0.03	0.750			
0.9453	60498.00	3.4300	3.4301	0.1859	25.96	0.03	0.750			
0.9458	60533.35	3.4270	3.4270	0.1806	25.96	0.03	0.750			
0.9464	60567.51	3.4240	3.4239	0.1760	25.97	0.04	0.750			
0.9469	60600.96	3.4210	3.4211	0.1717	25.97	0.04	0.750			
0.9474	60633.63	3.4180	3.4181	0.1657	25.98	0.05	0.750			
0.9479	60665.12	3.4150	3.4149	0.1606	25.98	0.05	0.750			
0.9484	60695.24	3.4120	3.4121	0.1554	25.99	0.06	0.750			
0.9488	60724.56	3.4090	3.4090	0.1501	25.99	0.06	0.750			
0.9493	60752.53	3.4060	3.4060	0.1445	25.99	0.06	0.750			
0.9497	60780.06	3.4030	3.4030	0.1396	26.00	0.07	0.750			
0.9501	60806.15	3.4000	3.4001	0.1340	26.00	0.07	0.750			
0.9505	60831.49	3.3970	3.3970	0.1285	26.00	0.07	0.750			
0.9509	60856.03	3.3940	3.3940	0.1233	26.01	0.08	0.750			
0.9512	60879.24	3.3910	3.3910	0.1168	26.01	0.08	0.750			
0.9516	60901.06	3.3880	3.3879	0.1105	26.01	0.08	0.750			
0.9519	60922.68	3.3850	3.3848	0.1015	26.02	0.09	0.750			
0.9522	60941.84	3.3820	3.3821	0.0942	26.02	0.09	0.750			
0.9525	60959.57	3.3790	3.3791	0.0863	26.02	0.09	0.750			
0.9527	60975.18	3.3760	3.3762	0.0763	26.02	0.09	0.750			
0.9530	60989.54	3.3730	3.3733	0.0667	26.03	0.10	0.750			
0.9531	61001.31	3.3700	3.3705	0.0559	26.03	0.10	0.750			
0.9533	61010.99	3.3670	3.3678	0.0450	26.03	0.10	0.750			
0.9534	61018.60	3.3640	3.3653	0.0342	26.03	0.10	0.750			
