Ah_balance (normalized)	Ah_balance (mAh)	Voltage - fit (V)	Voltage -  interpolate (V)	dQ/dV (1/V)	Temperature (°C)	Temperature - diff (°C)	Current (C)	R_DC 0ms (mOhm)	R_DC 50ms (mOhm)	R_DC 50 ms PEC (mOhm)
0.0003	20.52	4.1660	4.1658	-0.1293	25.66	0.02	-0.750			
0.0008	49.58	4.1630	4.1631	-0.1783	25.66	0.02	-0.750			
0.0014	90.08	4.1600	4.1600	-0.2284	25.66	0.02	-0.750			
0.0022	138.74	4.1570	4.1572	-0.2744	25.66	0.02	-0.750			
0.0031	195.68	4.1540	4.1540	-0.3206	25.65	0.01	-0.750			
0.0041	262.94	4.1510	4.1510	-0.3627	25.65	0.01	-0.750			
0.0053	337.03	4.1480	4.1480	-0.4058	25.65	0.01	-0.750			
0.0066	419.23	4.1450	4.1449	-0.4419	25.64	0.00	-0.750			
0.0079	508.00	4.1420	4.1420	-0.4784	25.64	-0.00	-0.750			
0.0094	604.07	4.1390	4.1390	-0.5140	25.63	-0.01	-0.750			
0.0110	706.59	4.1360	4.1360	-0.5465	25.63	-0.01	-0.750			
0.0127	813.91	4.1330	4.1330	-0.5771	25.62	-0.02	-0.750			
0.0145	930.99	4.1300	4.1300	-0.5996	25.62	-0.02	-0.750			
0.0164	1049.68	4.1270	4.1270	-0.6190	25.61	-0.03	-0.750			
0.0183	1171.03	4.1240	4.1239	-0.6358	25.60	-0.04	-0.750			
0.0202	1294.79	4.1210	4.1212	-0.6493	25.60	-0.04	-0.750			
0.0222	1420.56	4.1180	4.1179	-0.6595	25.60	-0.04	-0.750			
0.0242	1547.58	4.1150	4.1149	-0.6717	25.60	-0.04	-0.750			
0.0262	1676.79	4.1120	4.1121	-0.6800	25.60	-0.04	-0.750			
0.0283	1810.76	4.1090	4.1090	-0.6954	25.60	-0.04	-0.750			
0.0304	1945.41	4.1060	4.1059	-0.7049	25.60	-0.04	-0.750			
0.0325	2081.63	4.1030	4.1031	-0.7120	25.60	-0.04	-0.750			
0.0347	2219.16	4.1000	4.0999	-0.7192	25.60	-0.04	-0.750			
0.0368	2357.93	4.0970	4.0971	-0.7276	25.60	-0.04	-0.750			
0.0390	2499.07	4.0940	4.0940	-0.7309	25.59	-0.05	-0.750			
0.0413	2640.45	4.0910	4.0910	-0.7354	25.59	-0.05	-0.750			
0.0435	2781.70	4.0880	4.0880	-0.7370	25.59	-0.05	-0.750			
0.0457	2922.53	4.0850	4.0850	-0.7407	25.59	-0.05	-0.750			
0.0479	3065.23	4.0820	4.0820	-0.7432	25.59	-0.05	-0.750			
0.0501	3207.73	4.0790	4.0790	-0.7511	25.59	-0.05	-0.750			
0.0524	3353.62	4.0760	4.0760	-0.7521	25.59	-0.05	-0.750			
0.0547	3499.66	4.0730	4.0729	-0.7562	25.59	-0.05	-0.750			
0.0570	3645.22	4.0700	4.0702	-0.7567	25.59	-0.05	-0.750			
0.0592	3789.99	4.0670	4.0669	-0.7583	25.59	-0.05	-0.750			
0.0615	3933.43	4.0640	4.0640	-0.7614	25.59	-0.05	-0.750			
0.0638	4080.70	4.0610	4.0610	-0.7657	25.59	-0.05	-0.750			
0.0661	4228.76	4.0580	4.0579	-0.7714	25.59	-0.05	-0.750			
0.0684	4377.79	4.0550	4.0550	-0.7735	25.59	-0.05	-0.750			
0.0707	4526.44	4.0520	4.0521	-0.7747	25.59	-0.05	-0.750			
0.0730	4674.93	4.0490	4.0490	-0.7763	25.59	-0.05	-0.750			
0.0753	4822.29	4.0460	4.0460	-0.7760	25.59	-0.05	-0.750			
0.0777	4971.96	4.0430	4.0430	-0.7749	25.60	-0.04	-0.750			
0.0800	5122.60	4.0400	4.0400	-0.7815	25.60	-0.04	-0.750			
0.0824	5273.20	4.0370	4.0370	-0.7858	25.60	-0.04	-0.750			
0.0848	5424.37	4.0340	4.0341	-0.7859	25.60	-0.04	-0.750			
0.0871	5575.52	4.0310	4.0309	-0.7877	25.60	-0.04	-0.750			
0.0895	5727.18	4.0280	4.0280	-0.7870	25.61	-0.03	-0.750			
0.0918	5878.18	4.0250	4.0250	-0.7881	25.61	-0.03	-0.750			
0.0942	6029.71	4.0220	4.0221	-0.7913	25.61	-0.03	-0.750			
0.0966	6182.13	4.0190	4.0189	-0.7898	25.61	-0.03	-0.750			
0.0990	6332.91	4.0160	4.0160	-0.7929	25.61	-0.03	-0.750			
0.1013	6485.60	4.0130	4.0130	-0.7950	25.62	-0.02	-0.750			
0.1037	6637.95	4.0100	4.0100	-0.7970	25.62	-0.02	-0.750			
0.1061	6793.02	4.0070	4.0069	-0.7987	25.62	-0.02	-0.750			
0.1085	6945.50	4.0040	4.0040	-0.7996	25.62	-0.02	-0.750			
0.1109	7098.45	4.0010	4.0010	-0.8024	25.63	-0.01	-0.750			
0.1133	7253.82	3.9980	3.9979	-0.8044	25.63	-0.01	-0.750			
0.1157	7407.63	3.9950	3.9950	-0.8042	25.63	-0.01	-0.750			
0.1182	7563.48	3.9920	3.9919	-0.8048	25.64	-0.00	-0.750			
0.1206	7718.27	3.9890	3.9891	-0.8063	25.64	0.00	-0.750			
0.1230	7871.82	3.9860	3.9860	-0.8131	25.65	0.01	-0.750			
0.1254	8027.43	3.9830	3.9830	-0.8131	25.65	0.01	-0.750			
0.1279	8184.14	3.9800	3.9799	-0.8143	25.65	0.01	-0.750			
0.1304	8342.42	3.9770	3.9769	-0.8199	25.66	0.02	-0.750			
0.1328	8500.68	3.9740	3.9742	-0.8239	25.66	0.02	-0.750			
0.1353	8659.74	3.9710	3.9710	-0.8255	25.66	0.02	-0.750			
0.1378	8817.72	3.9680	3.9680	-0.8256	25.66	0.02	-0.750			
0.1402	8974.38	3.9650	3.9650	-0.8193	25.67	0.03	-0.750			
0.1427	9134.69	3.9620	3.9620	-0.8270	25.67	0.03	-0.750			
0.1452	9293.62	3.9590	3.9591	-0.8309	25.67	0.03	-0.750			
0.1477	9452.37	3.9560	3.9559	-0.8319	25.67	0.03	-0.750			
0.1502	9612.30	3.9530	3.9530	-0.8362	25.67	0.03	-0.750			
0.1527	9773.96	3.9500	3.9500	-0.8387	25.68	0.04	-0.750			
0.1553	9937.13	3.9470	3.9469	-0.8419	25.68	0.04	-0.750			
0.1578	10098.41	3.9440	3.9441	-0.8445	25.68	0.04	-0.750			
0.1603	10260.10	3.9410	3.9410	-0.8451	25.68	0.04	-0.750			
0.1629	10422.87	3.9380	3.9379	-0.8490	25.69	0.05	-0.750			
0.1654	10586.11	3.9350	3.9350	-0.8512	25.69	0.05	-0.750			
0.1680	10751.59	3.9320	3.9319	-0.8537	25.70	0.06	-0.750			
0.1706	10915.43	3.9290	3.9291	-0.8507	25.70	0.06	-0.750			
0.1731	11078.03	3.9260	3.9259	-0.8552	25.70	0.06	-0.750			
0.1756	11241.21	3.9230	3.9230	-0.8548	25.70	0.06	-0.750			
0.1782	11403.43	3.9200	3.9200	-0.8551	25.70	0.06	-0.750			
0.1808	11570.49	3.9170	3.9170	-0.8619	25.70	0.06	-0.750			
0.1834	11737.18	3.9140	3.9141	-0.8631	25.70	0.06	-0.750			
0.1860	11903.41	3.9110	3.9110	-0.8679	25.71	0.07	-0.750			
0.1886	12069.74	3.9080	3.9079	-0.8668	25.71	0.07	-0.750			
0.1912	12234.14	3.9050	3.9050	-0.8682	25.71	0.07	-0.750			
0.1938	12402.83	3.9020	3.9020	-0.8731	25.72	0.08	-0.750			
0.1964	12570.67	3.8990	3.8990	-0.8756	25.72	0.08	-0.750			
0.1991	12740.19	3.8960	3.8960	-0.8777	25.73	0.09	-0.750			
0.2017	12908.76	3.8930	3.8931	-0.8782	25.74	0.10	-0.750			
0.2043	13076.36	3.8900	3.8900	-0.8764	25.74	0.10	-0.750			
0.2070	13245.37	3.8870	3.8870	-0.8787	25.75	0.11	-0.750			
0.2096	13412.68	3.8840	3.8840	-0.8790	25.75	0.11	-0.750			
0.2122	13582.94	3.8810	3.8809	-0.8812	25.76	0.12	-0.750			
0.2149	13751.27	3.8780	3.8780	-0.8835	25.76	0.12	-0.750			
0.2175	13920.70	3.8750	3.8749	-0.8848	25.77	0.13	-0.750			
0.2202	14092.09	3.8720	3.8721	-0.8860	25.77	0.13	-0.750			
0.2228	14262.04	3.8690	3.8690	-0.8895	25.77	0.13	-0.750			
0.2255	14433.47	3.8660	3.8660	-0.8893	25.77	0.13	-0.750			
0.2282	14604.77	3.8630	3.8630	-0.8887	25.77	0.13	-0.750			
0.2309	14775.06	3.8600	3.8600	-0.8920	25.77	0.13	-0.750			
0.2335	14946.03	3.8570	3.8571	-0.8883	25.77	0.13	-0.750			
0.2362	15116.63	3.8540	3.8539	-0.8937	25.78	0.14	-0.750			
0.2389	15288.74	3.8510	3.8510	-0.8925	25.78	0.14	-0.750			
0.2416	15459.45	3.8480	3.8480	-0.8903	25.78	0.14	-0.750			
0.2442	15631.61	3.8450	3.8449	-0.8893	25.79	0.15	-0.750			
0.2469	15801.84	3.8420	3.8420	-0.8928	25.79	0.15	-0.750			
0.2496	15972.56	3.8390	3.8390	-0.8928	25.79	0.15	-0.750			
0.2523	16144.11	3.8360	3.8360	-0.8946	25.80	0.16	-0.750			
0.2549	16315.12	3.8330	3.8330	-0.8927	25.80	0.16	-0.750			
0.2576	16488.26	3.8300	3.8301	-0.8968	25.80	0.16	-0.750			
0.2603	16659.87	3.8270	3.8270	-0.8990	25.80	0.16	-0.750			
0.2630	16833.59	3.8240	3.8240	-0.8981	25.80	0.16	-0.750			
0.2657	17004.94	3.8210	3.8209	-0.8955	25.81	0.17	-0.750			
0.2684	17177.08	3.8180	3.8180	-0.8988	25.81	0.17	-0.750			
0.2711	17349.49	3.8150	3.8150	-0.9025	25.81	0.17	-0.750			
0.2738	17524.02	3.8120	3.8119	-0.9030	25.81	0.17	-0.750			
0.2765	17696.76	3.8090	3.8090	-0.9033	25.82	0.18	-0.750			
0.2792	17869.64	3.8060	3.8060	-0.9004	25.82	0.18	-0.750			
0.2819	18043.36	3.8030	3.8029	-0.9023	25.82	0.18	-0.750			
0.2846	18214.71	3.8000	3.8000	-0.9077	25.82	0.18	-0.750			
0.2873	18389.98	3.7970	3.7969	-0.9054	25.82	0.18	-0.750			
0.2901	18564.40	3.7940	3.7940	-0.9041	25.82	0.18	-0.750			
0.2928	18738.89	3.7910	3.7909	-0.9055	25.82	0.18	-0.750			
0.2955	18913.07	3.7880	3.7881	-0.9038	25.82	0.18	-0.750			
0.2982	19087.38	3.7850	3.7849	-0.9039	25.83	0.19	-0.750			
0.3009	19259.95	3.7820	3.7819	-0.8975	25.84	0.20	-0.750			
0.3036	19429.68	3.7790	3.7790	-0.8929	25.85	0.21	-0.750			
0.3063	19603.67	3.7760	3.7761	-0.9002	25.86	0.22	-0.750			
0.3090	19775.71	3.7730	3.7729	-0.9013	25.86	0.22	-0.750			
0.3117	19948.29	3.7700	3.7700	-0.9008	25.86	0.22	-0.750			
0.3144	20121.34	3.7670	3.7670	-0.9016	25.87	0.23	-0.750			
0.3171	20295.17	3.7640	3.7640	-0.9001	25.87	0.23	-0.750			
0.3198	20469.02	3.7610	3.7613	-0.9034	25.87	0.23	-0.750			
0.3225	20641.06	3.7580	3.7580	-0.9031	25.87	0.23	-0.750			
0.3252	20814.86	3.7550	3.7550	-0.9034	25.88	0.24	-0.750			
0.3280	20988.99	3.7520	3.7519	-0.9012	25.88	0.24	-0.750			
0.3307	21162.03	3.7490	3.7490	-0.9018	25.89	0.25	-0.750			
0.3334	21334.95	3.7460	3.7461	-0.9017	25.89	0.25	-0.750			
0.3361	21508.37	3.7430	3.7430	-0.9062	25.89	0.25	-0.750			
0.3388	21680.56	3.7400	3.7400	-0.9094	25.89	0.25	-0.750			
0.3415	21855.05	3.7370	3.7370	-0.9108	25.89	0.25	-0.750			
0.3442	22031.05	3.7340	3.7341	-0.9189	25.89	0.25	-0.750			
0.3470	22207.47	3.7310	3.7310	-0.9331	25.89	0.25	-0.750			
0.3498	22387.97	3.7280	3.7280	-0.9367	25.89	0.25	-0.750			
0.3526	22568.34	3.7250	3.7249	-0.9435	25.90	0.26	-0.750			
0.3555	22750.68	3.7220	3.7219	-0.9456	25.90	0.26	-0.750			
0.3583	22933.27	3.7190	3.7190	-0.9515	25.90	0.26	-0.750			
0.3612	23116.39	3.7160	3.7160	-0.9683	25.90	0.26	-0.750			
0.3641	23301.38	3.7130	3.7129	-0.9780	25.91	0.27	-0.750			
0.3670	23488.69	3.7100	3.7099	-0.9892	25.91	0.27	-0.750			
0.3700	23682.19	3.7070	3.7071	-1.0146	25.91	0.27	-0.750			
0.3731	23878.60	3.7040	3.7041	-1.0340	25.91	0.27	-0.750			
0.3763	24080.35	3.7010	3.7009	-1.0542	25.91	0.27	-0.750			
0.3794	24283.26	3.6980	3.6980	-1.0695	25.91	0.27	-0.750			
0.3826	24488.57	3.6950	3.6951	-1.0959	25.91	0.27	-0.750			
0.3860	24703.46	3.6920	3.6920	-1.1122	25.91	0.27	-0.750			
0.3894	24919.38	3.6890	3.6889	-1.1338	25.90	0.26	-0.750			
0.3928	25137.62	3.6860	3.6860	-1.1534	25.90	0.26	-0.750			
0.3963	25360.62	3.6830	3.6830	-1.1789	25.90	0.26	-0.750			
0.3998	25589.05	3.6800	3.6799	-1.2036	25.90	0.26	-0.750			
0.4035	25822.05	3.6770	3.6769	-1.2286	25.89	0.25	-0.750			
0.4072	26060.28	3.6740	3.6741	-1.2600	25.89	0.25	-0.750			
0.4111	26308.85	3.6710	3.6709	-1.2914	25.88	0.24	-0.750			
0.4150	26558.41	3.6680	3.6680	-1.3157	25.88	0.24	-0.750			
0.4190	26813.70	3.6650	3.6652	-1.3496	25.87	0.23	-0.750			
0.4231	27076.89	3.6620	3.6619	-1.3762	25.86	0.22	-0.750			
0.4272	27340.14	3.6590	3.6590	-1.4138	25.86	0.22	-0.750			
0.4315	27613.09	3.6560	3.6561	-1.4491	25.85	0.21	-0.750			
0.4358	27892.95	3.6530	3.6529	-1.4911	25.84	0.20	-0.750			
0.4404	28188.76	3.6500	3.6498	-1.5276	25.84	0.20	-0.750			
0.4451	28485.87	3.6470	3.6472	-1.5584	25.83	0.19	-0.750			
0.4498	28786.48	3.6440	3.6438	-1.5964	25.82	0.18	-0.750			
0.4547	29098.91	3.6410	3.6411	-1.6402	25.81	0.17	-0.750			
0.4596	29415.17	3.6380	3.6380	-1.6604	25.81	0.17	-0.750			
0.4647	29741.98	3.6350	3.6349	-1.7141	25.80	0.16	-0.750			
0.4698	30068.04	3.6320	3.6322	-1.7431	25.79	0.15	-0.750			
0.4752	30413.03	3.6290	3.6291	-1.7842	25.78	0.14	-0.750	0.406	0.491	
0.4806	30758.27	3.6260	3.6260	-1.8235	25.77	0.13	-0.750			
0.4861	31110.56	3.6230	3.6230	-1.8534	25.77	0.13	-0.750			
0.4918	31472.52	3.6200	3.6199	-1.8775	25.76	0.12	-0.750			
0.4975	31836.93	3.6170	3.6171	-1.9164	25.75	0.11	-0.750			
0.5032	32206.79	3.6140	3.6139	-1.9422	25.74	0.10	-0.750			
0.5091	32582.85	3.6110	3.6109	-1.9754	25.73	0.09	-0.750			
0.5151	32963.71	3.6080	3.6082	-2.0165	25.72	0.08	-0.750			
0.5212	33356.65	3.6050	3.6049	-2.0586	25.72	0.08	-0.750			
0.5275	33758.41	3.6020	3.6020	-2.0841	25.71	0.07	-0.750			
0.5338	34162.11	3.5990	3.5991	-2.1325	25.70	0.06	-0.750			
0.5401	34567.56	3.5960	3.5960	-2.1682	25.69	0.05	-0.750			
0.5468	34996.06	3.5930	3.5929	-2.1855	25.69	0.05	-0.750			
0.5534	35418.82	3.5900	3.5901	-2.2126	25.68	0.04	-0.750			
0.5601	35843.83	3.5870	3.5870	-2.2399	25.68	0.04	-0.750			
0.5668	36276.45	3.5840	3.5837	-2.2891	25.68	0.04	-0.750			
0.5737	36719.90	3.5810	3.5811	-2.3224	25.68	0.04	-0.750			
0.5808	37168.18	3.5780	3.5780	-2.3454	25.67	0.03	-0.750			
0.5879	37623.79	3.5750	3.5750	-2.3796	25.67	0.03	-0.750			
0.5951	38086.92	3.5720	3.5721	-2.4113	25.66	0.02	-0.750			
0.6025	38558.02	3.5690	3.5690	-2.4231	25.66	0.02	-0.750			
0.6097	39021.82	3.5660	3.5661	-2.4244	25.66	0.02	-0.750			
0.6170	39485.94	3.5630	3.5630	-2.4270	25.66	0.02	-0.750			
0.6243	39956.29	3.5600	3.5599	-2.4418	25.66	0.02	-0.750			
0.6316	40425.47	3.5570	3.5571	-2.4256	25.67	0.03	-0.750			
0.6390	40893.21	3.5540	3.5541	-2.4044	25.68	0.04	-0.750			
0.6461	41353.31	3.5510	3.5511	-2.3961	25.68	0.04	-0.750			
0.6533	41809.64	3.5480	3.5480	-2.3708	25.68	0.04	-0.750			
0.6604	42264.08	3.5450	3.5448	-2.3499	25.69	0.05	-0.750			
0.6674	42716.60	3.5420	3.5421	-2.3197	25.70	0.06	-0.750			
0.6743	43155.40	3.5390	3.5391	-2.2837	25.70	0.06	-0.750			
0.6812	43596.34	3.5360	3.5360	-2.2458	25.70	0.06	-0.750			
0.6879	44023.54	3.5330	3.5329	-2.2022	25.71	0.07	-0.750			
0.6944	44442.29	3.5300	3.5301	-2.1521	25.72	0.08	-0.750			
0.7008	44851.25	3.5270	3.5270	-2.0833	25.72	0.08	-0.750			
0.7071	45251.31	3.5240	3.5239	-2.0173	25.72	0.08	-0.750			
0.7129	45628.73	3.5210	3.5208	-1.9620	25.74	0.10	-0.750			
0.7187	45998.65	3.5180	3.5177	-1.8990	25.76	0.12	-0.750			
0.7244	46358.54	3.5150	3.5149	-1.8332	25.77	0.13	-0.750			
0.7297	46700.15	3.5120	3.5122	-1.7761	25.78	0.14	-0.750			
0.7350	47038.15	3.5090	3.5089	-1.7081	25.80	0.16	-0.750			
0.7401	47368.23	3.5060	3.5060	-1.6539	25.81	0.17	-0.750			
0.7450	47677.23	3.5030	3.5029	-1.5894	25.82	0.18	-0.750			
0.7496	47976.44	3.5000	3.5000	-1.5194	25.84	0.20	-0.750			
0.7540	48257.61	3.4970	3.4970	-1.4588	25.86	0.22	-0.750			
0.7583	48532.88	3.4940	3.4942	-1.4054	25.87	0.23	-0.750			
0.7624	48792.67	3.4910	3.4909	-1.3431	25.89	0.25	-0.750			
0.7664	49049.89	3.4880	3.4878	-1.2982	25.90	0.26	-0.750			
0.7701	49289.14	3.4850	3.4853	-1.2511	25.91	0.27	-0.750			
0.7739	49529.12	3.4820	3.4820	-1.2228	25.93	0.29	-0.750			
0.7775	49762.50	3.4790	3.4789	-1.1829	25.95	0.31	-0.750			
0.7810	49984.02	3.4760	3.4759	-1.1333	25.96	0.32	-0.750			
0.7843	50196.58	3.4730	3.4730	-1.1023	25.98	0.34	-0.750			
0.7876	50405.40	3.4700	3.4700	-1.0632	25.99	0.35	-0.750			
0.7907	50604.10	3.4670	3.4669	-1.0282	26.00	0.36	-0.750			
0.7936	50793.05	3.4640	3.4640	-0.9952	26.01	0.37	-0.750			
0.7966	50980.01	3.4610	3.4612	-0.9843	26.02	0.38	-0.750			
0.7995	51168.51	3.4580	3.4579	-0.9728	26.03	0.39	-0.750			
0.8024	51352.68	3.4550	3.4550	-0.9661	26.04	0.40	-0.750			
0.8052	51534.73	3.4520	3.4520	-0.9708	26.05	0.41	-0.750			
0.8081	51720.56	3.4490	3.4491	-0.9953	26.06	0.42	-0.750			
0.8111	51909.04	3.4460	3.4459	-1.0317	26.07	0.43	-0.750			
0.8141	52102.91	3.4430	3.4430	-1.0726	26.08	0.44	-0.750			
0.8174	52310.53	3.4400	3.4399	-1.1318	26.08	0.44	-0.750			
0.8209	52539.64	3.4370	3.4371	-1.2024	26.09	0.45	-0.750			
0.8247	52783.78	3.4340	3.4339	-1.2460	26.11	0.47	-0.750			
0.8286	53032.15	3.4310	3.4309	-1.2697	26.12	0.48	-0.750			
0.8326	53286.52	3.4280	3.4282	-1.2722	26.13	0.49	-0.750			
0.8365	53534.18	3.4250	3.4251	-1.2499	26.14	0.50	-0.750			
0.8402	53774.46	3.4220	3.4219	-1.2139	26.16	0.52	-0.750			
0.8438	54003.00	3.4190	3.4189	-1.1681	26.17	0.53	-0.750			
0.8472	54220.92	3.4160	3.4159	-1.1318	26.17	0.53	-0.750			
0.8505	54433.69	3.4130	3.4129	-1.0903	26.18	0.54	-0.750			
0.8538	54640.68	3.4100	3.4099	-1.0468	26.18	0.54	-0.750			
0.8568	54836.57	3.4070	3.4073	-1.0081	26.19	0.55	-0.750			
0.8598	55027.21	3.4040	3.4040	-0.9767	26.20	0.56	-0.750			
0.8627	55210.95	3.4010	3.4009	-0.9373	26.20	0.56	-0.750			
0.8654	55385.78	3.3980	3.3979	-0.8972	26.21	0.57	-0.750			
0.8680	55553.33	3.3950	3.3950	-0.8624	26.22	0.58	-0.750			
0.8706	55718.29	3.3920	3.3921	-0.8355	26.22	0.58	-0.750			
0.8731	55875.35	3.3890	3.3889	-0.8035	26.23	0.59	-0.750			
0.8754	56025.13	3.3860	3.3860	-0.7671	26.24	0.60	-0.750			
0.8776	56168.00	3.3830	3.3830	-0.7359	26.25	0.61	-0.750			
0.8798	56308.31	3.3800	3.3800	-0.7124	26.26	0.62	-0.750			
0.8819	56442.62	3.3770	3.3771	-0.6821	26.27	0.63	-0.750			
0.8839	56570.41	3.3740	3.3739	-0.6504	26.28	0.64	-0.750			
0.8858	56692.40	3.3710	3.3710	-0.6208	26.28	0.64	-0.750			
0.8876	56808.12	3.3680	3.3680	-0.5970	26.29	0.65	-0.750			
0.8894	56919.08	3.3650	3.3650	-0.5734	26.29	0.65	-0.750			
0.8910	57026.43	3.3620	3.3619	-0.5481	26.30	0.66	-0.750			
0.8927	57129.95	3.3590	3.3589	-0.5252	26.30	0.66	-0.750			
0.8942	57230.06	3.3560	3.3561	-0.5029	26.31	0.67	-0.750			
0.8957	57324.03	3.3530	3.3530	-0.4818	26.31	0.67	-0.750			
0.8971	57413.81	3.3500	3.3500	-0.4598	26.32	0.68	-0.750			
0.8984	57499.29	3.3470	3.3469	-0.4370	26.32	0.68	-0.750			
0.8997	57580.09	3.3440	3.3440	-0.4165	26.33	0.69	-0.750			
0.9009	57658.81	3.3410	3.3410	-0.4010	26.33	0.69	-0.750			
0.9021	57733.75	3.3380	3.3380	-0.3834	26.33	0.69	-0.750			
0.9032	57805.62	3.3350	3.3349	-0.3679	26.34	0.70	-0.750			
0.9043	57873.90	3.3320	3.3320	-0.3502	26.34	0.70	-0.750			
0.9053	57940.31	3.3290	3.3290	-0.3340	26.34	0.70	-0.750			
0.9063	58003.37	3.3260	3.3260	-0.3190	26.35	0.71	-0.750			
0.9072	58062.20	3.3230	3.3232	-0.3050	26.35	0.71	-0.750			
0.9081	58118.93	3.3200	3.3199	-0.2919	26.36	0.72	-0.750			
0.9090	58173.52	3.3170	3.3169	-0.2795	26.36	0.72	-0.750			
0.9098	58225.78	3.3140	3.3141	-0.2695	26.37	0.73	-0.750			
0.9106	58276.70	3.3110	3.3110	-0.2608	26.37	0.73	-0.750			
0.9113	58326.11	3.3080	3.3080	-0.2521	26.38	0.74	-0.750			
0.9121	58373.05	3.3050	3.3049	-0.2427	26.39	0.75	-0.750			
0.9128	58418.57	3.3020	3.3020	-0.2332	26.39	0.75	-0.750			
0.9135	58462.78	3.2990	3.2990	-0.2257	26.40	0.76	-0.750			
0.9141	58505.26	3.2960	3.2960	-0.2187	26.40	0.76	-0.750			
0.9148	58546.65	3.2930	3.2931	-0.2115	26.41	0.77	-0.750			
0.9154	58585.98	3.2900	3.2899	-0.2034	26.41	0.77	-0.750			
0.9160	58624.41	3.2870	3.2870	-0.1969	26.41	0.77	-0.750			
0.9166	58661.35	3.2840	3.2841	-0.1914	26.42	0.78	-0.750			
0.9171	58697.10	3.2810	3.2809	-0.1860	26.42	0.78	-0.750			
0.9177	58732.44	3.2780	3.2780	-0.1817	26.43	0.79	-0.750			
0.9182	58766.96	3.2750	3.2750	-0.1765	26.43	0.79	-0.750			
0.9187	58799.86	3.2720	3.2720	-0.1723	26.43	0.79	-0.750			
0.9193	58832.69	3.2690	3.2691	-0.1690	26.44	0.80	-0.750			
0.9198	58864.70	3.2660	3.2660	-0.1651	26.44	0.80	-0.750			
0.9203	58896.09	3.2630	3.2629	-0.1614	26.45	0.81	-0.750			
0.9207	58926.61	3.2600	3.2601	-0.1577	26.45	0.81	-0.750			
0.9212	58956.55	3.2570	3.2571	-0.1542	26.45	0.81	-0.750			
0.9217	58986.12	3.2540	3.2540	-0.1512	26.46	0.82	-0.750			
0.9221	59014.59	3.2510	3.2510	-0.1483	26.46	0.82	-0.750			
0.9225	59042.48	3.2480	3.2480	-0.1444	26.46	0.82	-0.750			
0.9230	59069.94	3.2450	3.2450	-0.1415	26.47	0.83	-0.750			
0.9234	59096.81	3.2420	3.2420	-0.1385	26.47	0.83	-0.750			
0.9238	59123.05	3.2390	3.2391	-0.1364	26.47	0.83	-0.750			
0.9242	59148.78	3.2360	3.2360	-0.1343	26.48	0.84	-0.750			
0.9246	59174.22	3.2330	3.2331	-0.1321	26.48	0.84	-0.750			
0.9250	59199.50	3.2300	3.2299	-0.1302	26.48	0.84	-0.750			
0.9254	59224.08	3.2270	3.2271	-0.1283	26.49	0.85	-0.750			
0.9258	59248.89	3.2240	3.2239	-0.1267	26.49	0.85	-0.750			
0.9261	59273.15	3.2210	3.2211	-0.1247	26.49	0.85	-0.750			
0.9265	59296.78	3.2180	3.2180	-0.1229	26.50	0.86	-0.750			
0.9269	59320.04	3.2150	3.2150	-0.1208	26.50	0.86	-0.750			
0.9272	59343.04	3.2120	3.2120	-0.1191	26.50	0.86	-0.750			
0.9276	59365.58	3.2090	3.2090	-0.1173	26.51	0.87	-0.750			
0.9279	59388.03	3.2060	3.2060	-0.1157	26.51	0.87	-0.750			
0.9283	59410.09	3.2030	3.2030	-0.1140	26.51	0.87	-0.750			
0.9286	59431.79	3.2000	3.2001	-0.1125	26.51	0.87	-0.750			
0.9290	59453.24	3.1970	3.1969	-0.1109	26.52	0.88	-0.750			
0.9293	59474.27	3.1940	3.1940	-0.1094	26.52	0.88	-0.750			
0.9296	59495.16	3.1910	3.1910	-0.1081	26.52	0.88	-0.750			
0.9299	59515.72	3.1880	3.1880	-0.1069	26.53	0.89	-0.750			
0.9303	59536.14	3.1850	3.1850	-0.1058	26.53	0.89	-0.750			
0.9306	59556.28	3.1820	3.1821	-0.1048	26.53	0.89	-0.750			
0.9309	59576.32	3.1790	3.1789	-0.1039	26.53	0.89	-0.750			
0.9312	59596.22	3.1760	3.1760	-0.1028	26.54	0.90	-0.750			
0.9315	59615.85	3.1730	3.1730	-0.1017	26.54	0.90	-0.750			
0.9318	59635.25	3.1700	3.1701	-0.1009	26.54	0.90	-0.750			
0.9321	59654.54	3.1670	3.1670	-0.1000	26.53	0.89	-0.750			
0.9324	59673.66	3.1640	3.1639	-0.0991	26.53	0.89	-0.750			
0.9327	59692.59	3.1610	3.1610	-0.0981	26.54	0.90	-0.750			
0.9330	59711.37	3.1580	3.1580	-0.0970	26.54	0.90	-0.750			
0.9333	59729.90	3.1550	3.1551	-0.0960	26.54	0.90	-0.750			
0.9336	59748.24	3.1520	3.1520	-0.0954	26.55	0.91	-0.750			
0.9339	59766.47	3.1490	3.1490	-0.0945	26.55	0.91	-0.750			
0.9341	59784.55	3.1460	3.1459	-0.0931	26.55	0.91	-0.750			
0.9344	59802.33	3.1430	3.1430	-0.0921	26.56	0.92	-0.750			
0.9347	59819.85	3.1400	3.1401	-0.0914	26.56	0.92	-0.750			
0.9350	59837.32	3.1370	3.1371	-0.0905	26.56	0.92	-0.750			
0.9352	59854.50	3.1340	3.1339	-0.0900	26.57	0.93	-0.750			
0.9355	59871.73	3.1310	3.1310	-0.0895	26.57	0.93	-0.750			
0.9358	59888.66	3.1280	3.1280	-0.0887	26.57	0.93	-0.750			
0.9360	59905.69	3.1250	3.1250	-0.0886	26.58	0.94	-0.750			
0.9363	59923.01	3.1220	3.1219	-0.0882	26.58	0.94	-0.750			
0.9366	59939.86	3.1190	3.1191	-0.0873	26.58	0.94	-0.750			
0.9368	59956.56	3.1160	3.1161	-0.0866	26.59	0.95	-0.750			
0.9371	59973.11	3.1130	3.1130	-0.0857	26.59	0.95	-0.750			
0.9373	59989.33	3.1100	3.1100	-0.0851	26.59	0.95	-0.750			
0.9376	60005.61	3.1070	3.1070	-0.0845	26.60	0.96	-0.750			
0.9378	60021.60	3.1040	3.1041	-0.0838	26.60	0.96	-0.750			
0.9381	60037.76	3.1010	3.1010	-0.0833	26.60	0.96	-0.750			
0.9383	60053.79	3.0980	3.0980	-0.0830	26.61	0.97	-0.750			
0.9386	60069.62	3.0950	3.0950	-0.0824	26.61	0.97	-0.750			
0.9388	60085.40	3.0920	3.0921	-0.0819	26.61	0.97	-0.750			
0.9391	60101.10	3.0890	3.0890	-0.0814	26.62	0.98	-0.750			
0.9393	60116.73	3.0860	3.0861	-0.0807	26.62	0.98	-0.750			
0.9396	60132.16	3.0830	3.0829	-0.0800	26.62	0.98	-0.750			
0.9398	60147.46	3.0800	3.0801	-0.0794	26.62	0.98	-0.750			
0.9400	60162.57	3.0770	3.0771	-0.0792	26.63	0.99	-0.750			
0.9403	60177.70	3.0740	3.0740	-0.0787	26.63	0.99	-0.750			
0.9405	60192.78	3.0710	3.0710	-0.0783	26.63	0.99	-0.750			
0.9407	60207.77	3.0680	3.0679	-0.0779	26.64	1.00	-0.750			
0.9410	60222.57	3.0650	3.0650	-0.0774	26.64	1.00	-0.750			
0.9412	60237.45	3.0620	3.0621	-0.0770	26.64	1.00	-0.750			
0.9414	60252.32	3.0590	3.0590	-0.0769	26.65	1.01	-0.750			
0.9417	60267.03	3.0560	3.0560	-0.0763	26.65	1.01	-0.750			
0.9419	60281.56	3.0530	3.0530	-0.0762	26.65	1.01	-0.750			
0.9421	60296.00	3.0500	3.0499	-0.0756	26.66	1.02	-0.750			
0.9424	60310.68	3.0470	3.0470	-0.0752	26.66	1.02	-0.750			
0.9426	60325.07	3.0440	3.0439	-0.0748	26.66	1.02	-0.750			
0.9428	60339.51	3.0410	3.0410	-0.0744	26.67	1.03	-0.750			
0.9430	60353.66	3.0380	3.0381	-0.0741	26.67	1.03	-0.750			
0.9432	60367.86	3.0350	3.0350	-0.0737	26.67	1.03	-0.750			
0.9435	60381.97	3.0320	3.0320	-0.0732	26.67	1.03	-0.750			
0.9437	60396.01	3.0290	3.0289	-0.0727	26.68	1.04	-0.750			
0.9439	60409.81	3.0260	3.0260	-0.0721	26.68	1.04	-0.750			
0.9441	60423.70	3.0230	3.0230	-0.0716	26.68	1.04	-0.750			
0.9443	60437.40	3.0200	3.0201	-0.0712	26.69	1.05	-0.750			
0.9445	60451.18	3.0170	3.0170	-0.0708	26.69	1.05	-0.750			
0.9448	60464.72	3.0140	3.0139	-0.0701	26.69	1.05	-0.750			
0.9450	60478.12	3.0110	3.0110	-0.0695	26.69	1.05	-0.750			
0.9452	60491.32	3.0080	3.0079	-0.0691	26.70	1.06	-0.750			
0.9454	60504.56	3.0050	3.0050	-0.0687	26.70	1.06	-0.750			
