Ah_balance (normalized)	Ah_balance (mAh)	Voltage - fit (V)	Voltage -  interpolate (V)	dQ/dV (1/V)	Temperature (°C)	Temperature - diff (°C)	Current (C)	R_DC 0ms (mOhm)	R_DC 50ms (mOhm)	R_DC 50 ms PEC (mOhm)
0.0003	17.66	4.1640	4.1636	-0.1070	25.96	0.01	-0.750			
0.0007	43.92	4.1610	4.1606	-0.1570	25.96	0.01	-0.750			
0.0012	78.72	4.1580	4.1580	-0.2023	25.96	0.01	-0.750			
0.0019	122.81	4.1550	4.1549	-0.2438	25.96	0.01	-0.750			
0.0027	173.72	4.1520	4.1520	-0.2837	25.95	0.00	-0.750			
0.0036	233.02	4.1490	4.1490	-0.3254	25.95	0.00	-0.750			
0.0047	299.45	4.1460	4.1460	-0.3604	25.95	-0.00	-0.750			
0.0058	372.35	4.1430	4.1429	-0.3961	25.95	-0.00	-0.750			
0.0071	452.42	4.1400	4.1401	-0.4289	25.94	-0.01	-0.750			
0.0084	538.36	4.1370	4.1370	-0.4595	25.94	-0.01	-0.750			
0.0099	630.99	4.1340	4.1340	-0.4916	25.94	-0.01	-0.750			
0.0114	728.49	4.1310	4.1310	-0.5141	25.93	-0.02	-0.750			
0.0130	830.43	4.1280	4.1279	-0.5361	25.93	-0.02	-0.750			
0.0146	936.48	4.1250	4.1250	-0.5544	25.92	-0.03	-0.750			
0.0163	1044.75	4.1220	4.1219	-0.5705	25.92	-0.03	-0.750			
0.0181	1155.76	4.1190	4.1190	-0.5874	25.92	-0.03	-0.750			
0.0198	1270.32	4.1160	4.1161	-0.6032	25.91	-0.04	-0.750			
0.0217	1386.86	4.1130	4.1129	-0.6174	25.91	-0.04	-0.750			
0.0236	1508.09	4.1100	4.1101	-0.6301	25.90	-0.05	-0.750			
0.0255	1631.29	4.1070	4.1070	-0.6394	25.90	-0.05	-0.750			
0.0274	1755.28	4.1040	4.1040	-0.6455	25.89	-0.06	-0.750			
0.0294	1880.65	4.1010	4.1011	-0.6502	25.89	-0.06	-0.750			
0.0313	2005.25	4.0980	4.0980	-0.6547	25.89	-0.06	-0.750			
0.0333	2130.47	4.0950	4.0950	-0.6622	25.89	-0.06	-0.750			
0.0353	2259.08	4.0920	4.0920	-0.6648	25.88	-0.07	-0.750			
0.0373	2387.47	4.0890	4.0890	-0.6748	25.88	-0.07	-0.750			
0.0393	2517.53	4.0860	4.0860	-0.6788	25.88	-0.07	-0.750			
0.0414	2648.46	4.0830	4.0832	-0.6855	25.88	-0.07	-0.750			
0.0434	2780.70	4.0800	4.0800	-0.6911	25.88	-0.07	-0.750			
0.0455	2913.34	4.0770	4.0769	-0.6960	25.88	-0.07	-0.750			
0.0476	3047.97	4.0740	4.0740	-0.7023	25.88	-0.07	-0.750			
0.0498	3185.67	4.0710	4.0710	-0.7088	25.87	-0.08	-0.750			
0.0519	3320.86	4.0680	4.0680	-0.7061	25.87	-0.08	-0.750			
0.0540	3457.03	4.0650	4.0651	-0.7107	25.87	-0.08	-0.750			
0.0561	3592.97	4.0620	4.0620	-0.7109	25.87	-0.08	-0.750			
0.0583	3728.28	4.0590	4.0589	-0.7184	25.87	-0.08	-0.750			
0.0604	3866.58	4.0560	4.0560	-0.7190	25.87	-0.08	-0.750			
0.0626	4006.70	4.0530	4.0530	-0.7219	25.87	-0.08	-0.750			
0.0648	4145.47	4.0500	4.0500	-0.7232	25.87	-0.08	-0.750			
0.0669	4284.60	4.0470	4.0471	-0.7231	25.87	-0.08	-0.750			
0.0691	4422.90	4.0440	4.0440	-0.7210	25.87	-0.08	-0.750			
0.0712	4559.12	4.0410	4.0410	-0.7275	25.87	-0.08	-0.750			
0.0734	4699.87	4.0380	4.0379	-0.7283	25.87	-0.08	-0.750			
0.0757	4842.21	4.0350	4.0350	-0.7346	25.87	-0.08	-0.750			
0.0779	4983.21	4.0320	4.0320	-0.7344	25.87	-0.08	-0.750			
0.0801	5124.66	4.0290	4.0290	-0.7355	25.87	-0.08	-0.750			
0.0823	5266.48	4.0260	4.0259	-0.7372	25.87	-0.08	-0.750			
0.0845	5406.82	4.0230	4.0230	-0.7388	25.87	-0.08	-0.750			
0.0867	5547.56	4.0200	4.0200	-0.7389	25.87	-0.08	-0.750			
0.0889	5691.25	4.0170	4.0170	-0.7427	25.87	-0.08	-0.750			
0.0912	5833.82	4.0140	4.0141	-0.7464	25.87	-0.08	-0.750			
0.0934	5977.01	4.0110	4.0110	-0.7484	25.87	-0.08	-0.750			
0.0956	6120.09	4.0080	4.0078	-0.7511	25.87	-0.08	-0.750			
0.0979	6266.22	4.0050	4.0051	-0.7539	25.87	-0.08	-0.750			
0.1002	6412.32	4.0020	4.0019	-0.7509	25.87	-0.08	-0.750			
0.1025	6558.18	3.9990	3.9990	-0.7563	25.87	-0.08	-0.750			
0.1047	6702.92	3.9960	3.9961	-0.7564	25.87	-0.08	-0.750			
0.1070	6844.87	3.9930	3.9929	-0.7582	25.87	-0.08	-0.750			
0.1092	6991.27	3.9900	3.9899	-0.7621	25.88	-0.07	-0.750			
0.1115	7136.45	3.9870	3.9870	-0.7625	25.88	-0.07	-0.750			
0.1138	7286.09	3.9840	3.9840	-0.7694	25.89	-0.06	-0.750			
0.1162	7435.53	3.9810	3.9810	-0.7731	25.89	-0.06	-0.750			
0.1185	7582.75	3.9780	3.9779	-0.7677	25.89	-0.06	-0.750			
0.1208	7728.57	3.9750	3.9749	-0.7686	25.89	-0.06	-0.750			
0.1231	7876.12	3.9720	3.9721	-0.7701	25.89	-0.06	-0.750			
0.1254	8024.26	3.9690	3.9690	-0.7735	25.89	-0.06	-0.750			
0.1277	8174.61	3.9660	3.9660	-0.7790	25.89	-0.06	-0.750			
0.1301	8324.29	3.9630	3.9630	-0.7802	25.89	-0.06	-0.750			
0.1324	8472.79	3.9600	3.9600	-0.7866	25.90	-0.05	-0.750			
0.1348	8625.56	3.9570	3.9570	-0.7900	25.90	-0.05	-0.750			
0.1372	8777.96	3.9540	3.9539	-0.7864	25.90	-0.05	-0.750			
0.1395	8929.25	3.9510	3.9510	-0.7904	25.91	-0.04	-0.750			
0.1419	9081.23	3.9480	3.9481	-0.7911	25.91	-0.04	-0.750			
0.1443	9232.49	3.9450	3.9450	-0.7924	25.91	-0.04	-0.750			
0.1466	9384.58	3.9420	3.9419	-0.7967	25.91	-0.04	-0.750			
0.1490	9537.88	3.9390	3.9390	-0.7959	25.92	-0.03	-0.750			
0.1514	9692.30	3.9360	3.9359	-0.8012	25.92	-0.03	-0.750			
0.1538	9846.35	3.9330	3.9332	-0.8016	25.92	-0.03	-0.750			
0.1562	9999.15	3.9300	3.9300	-0.8021	25.92	-0.03	-0.750			
0.1587	10154.43	3.9270	3.9270	-0.8047	25.92	-0.03	-0.750			
0.1611	10308.81	3.9240	3.9240	-0.8033	25.93	-0.02	-0.750			
0.1635	10463.39	3.9210	3.9211	-0.8003	25.93	-0.02	-0.750			
0.1659	10618.83	3.9180	3.9181	-0.8034	25.93	-0.02	-0.750			
0.1683	10770.76	3.9150	3.9150	-0.8070	25.93	-0.02	-0.750			
0.1707	10924.85	3.9120	3.9119	-0.8109	25.93	-0.02	-0.750			
0.1731	11080.70	3.9090	3.9090	-0.8166	25.94	-0.01	-0.750			
0.1756	11239.52	3.9060	3.9060	-0.8211	25.94	-0.01	-0.750			
0.1781	11400.57	3.9030	3.9030	-0.8272	25.94	-0.01	-0.750			
0.1806	11560.39	3.9000	3.8998	-0.8261	25.94	-0.01	-0.750			
0.1831	11717.29	3.8970	3.8970	-0.8252	25.94	-0.01	-0.750			
0.1855	11874.91	3.8940	3.8939	-0.8222	25.95	-0.00	-0.750			
0.1880	12031.90	3.8910	3.8910	-0.8228	25.95	-0.00	-0.750			
0.1905	12191.41	3.8880	3.8879	-0.8256	25.95	-0.00	-0.750			
0.1930	12349.92	3.8850	3.8849	-0.8255	25.95	0.00	-0.750			
0.1955	12509.58	3.8820	3.8820	-0.8254	25.96	0.01	-0.750			
0.1979	12666.59	3.8790	3.8790	-0.8273	25.96	0.01	-0.750			
0.2004	12823.59	3.8760	3.8760	-0.8273	25.96	0.01	-0.750			
0.2029	12985.02	3.8730	3.8730	-0.8345	25.97	0.02	-0.750			
0.2054	13145.06	3.8700	3.8700	-0.8376	25.97	0.02	-0.750			
0.2079	13307.75	3.8670	3.8670	-0.8413	25.97	0.02	-0.750			
0.2105	13470.22	3.8640	3.8641	-0.8417	25.98	0.03	-0.750			
0.2130	13631.60	3.8610	3.8610	-0.8424	25.98	0.03	-0.750			
0.2155	13792.55	3.8580	3.8579	-0.8386	25.98	0.03	-0.750			
0.2180	13953.36	3.8550	3.8550	-0.8370	25.98	0.03	-0.750			
0.2205	14113.88	3.8520	3.8520	-0.8380	25.99	0.04	-0.750			
0.2231	14276.49	3.8490	3.8489	-0.8347	25.99	0.04	-0.750			
0.2255	14434.73	3.8460	3.8460	-0.8363	25.99	0.04	-0.750			
0.2281	14595.74	3.8430	3.8430	-0.8391	26.00	0.05	-0.750			
0.2306	14756.53	3.8400	3.8399	-0.8391	26.00	0.05	-0.750			
0.2331	14918.80	3.8370	3.8369	-0.8418	26.00	0.05	-0.750			
0.2356	15080.72	3.8340	3.8341	-0.8411	26.01	0.06	-0.750			
0.2382	15241.62	3.8310	3.8310	-0.8404	26.01	0.06	-0.750			
0.2407	15405.70	3.8280	3.8280	-0.8444	26.01	0.06	-0.750			
0.2432	15565.34	3.8250	3.8249	-0.8395	26.01	0.06	-0.750			
0.2457	15726.94	3.8220	3.8220	-0.8408	26.02	0.07	-0.750			
0.2483	15888.81	3.8190	3.8190	-0.8397	26.02	0.07	-0.750			
0.2508	16049.88	3.8160	3.8160	-0.8381	26.02	0.07	-0.750			
0.2533	16211.77	3.8130	3.8129	-0.8370	26.03	0.08	-0.750			
0.2558	16371.22	3.8100	3.8100	-0.8341	26.03	0.08	-0.750			
0.2583	16531.76	3.8070	3.8070	-0.8360	26.04	0.09	-0.750			
0.2608	16691.69	3.8040	3.8040	-0.8350	26.04	0.09	-0.750			
0.2633	16851.99	3.8010	3.8009	-0.8297	26.04	0.09	-0.750			
0.2658	17013.02	3.7980	3.7981	-0.8322	26.05	0.10	-0.750			
0.2683	17172.14	3.7950	3.7949	-0.8280	26.05	0.10	-0.750			
0.2708	17330.77	3.7920	3.7919	-0.8301	26.06	0.11	-0.750			
0.2733	17489.30	3.7890	3.7890	-0.8287	26.06	0.11	-0.750			
0.2757	17647.40	3.7860	3.7859	-0.8245	26.06	0.11	-0.750			
0.2783	17809.06	3.7830	3.7831	-0.8255	26.07	0.12	-0.750			
0.2808	17968.09	3.7800	3.7799	-0.8217	26.07	0.12	-0.750			
0.2832	18124.45	3.7770	3.7770	-0.8190	26.07	0.12	-0.750			
0.2857	18282.13	3.7740	3.7740	-0.8125	26.08	0.13	-0.750			
0.2880	18435.00	3.7710	3.7710	-0.8033	26.08	0.13	-0.750			
0.2905	18590.36	3.7680	3.7680	-0.8034	26.08	0.13	-0.750			
0.2929	18743.96	3.7650	3.7651	-0.8030	26.08	0.13	-0.750			
0.2953	18896.52	3.7620	3.7619	-0.8063	26.08	0.13	-0.750			
0.2977	19052.09	3.7590	3.7589	-0.8026	26.08	0.13	-0.750			
0.3001	19205.31	3.7560	3.7560	-0.8023	26.09	0.14	-0.750			
0.3025	19361.96	3.7530	3.7529	-0.8005	26.09	0.14	-0.750			
0.3049	19515.71	3.7500	3.7500	-0.8017	26.09	0.14	-0.750			
0.3073	19667.20	3.7470	3.7470	-0.8093	26.09	0.14	-0.750			
0.3097	19820.64	3.7440	3.7439	-0.8116	26.09	0.14	-0.750			
0.3121	19976.87	3.7410	3.7409	-0.8145	26.10	0.15	-0.750			
0.3146	20136.99	3.7380	3.7380	-0.8241	26.10	0.15	-0.750			
0.3171	20295.66	3.7350	3.7351	-0.8316	26.10	0.15	-0.750			
0.3196	20456.92	3.7320	3.7320	-0.8386	26.10	0.15	-0.750			
0.3221	20616.21	3.7290	3.7289	-0.8475	26.10	0.15	-0.750			
0.3247	20779.86	3.7260	3.7260	-0.8578	26.11	0.16	-0.750			
0.3273	20947.58	3.7230	3.7229	-0.8697	26.11	0.16	-0.750			
0.3299	21115.93	3.7200	3.7201	-0.8768	26.11	0.16	-0.750			
0.3326	21284.91	3.7170	3.7170	-0.8922	26.11	0.16	-0.750			
0.3352	21455.98	3.7140	3.7140	-0.9014	26.11	0.16	-0.750			
0.3379	21627.37	3.7110	3.7109	-0.9096	26.11	0.16	-0.750			
0.3407	21806.43	3.7080	3.7079	-0.9306	26.11	0.16	-0.750			
0.3435	21983.59	3.7050	3.7051	-0.9594	26.11	0.16	-0.750			
0.3464	22172.20	3.7020	3.7020	-0.9768	26.11	0.16	-0.750			
0.3494	22363.03	3.6990	3.6989	-0.9932	26.11	0.16	-0.750			
0.3524	22554.58	3.6960	3.6960	-1.0081	26.11	0.16	-0.750			
0.3555	22750.53	3.6930	3.6930	-1.0347	26.11	0.16	-0.750			
0.3586	22951.13	3.6900	3.6899	-1.0502	26.10	0.15	-0.750			
0.3618	23153.03	3.6870	3.6870	-1.0674	26.10	0.15	-0.750			
0.3649	23356.76	3.6840	3.6840	-1.0822	26.09	0.14	-0.750			
0.3683	23570.91	3.6810	3.6810	-1.1249	26.09	0.14	-0.750			
0.3717	23791.08	3.6780	3.6779	-1.1463	26.08	0.13	-0.750			
0.3752	24012.99	3.6750	3.6748	-1.1666	26.08	0.13	-0.750			
0.3787	24238.18	3.6720	3.6724	-1.1894	26.07	0.12	-0.750			
0.3824	24471.92	3.6690	3.6689	-1.2110	26.07	0.12	-0.750			
0.3860	24705.56	3.6660	3.6659	-1.2304	26.06	0.11	-0.750			
0.3897	24940.44	3.6630	3.6630	-1.2647	26.06	0.11	-0.750			
0.3935	25185.98	3.6600	3.6600	-1.2927	26.06	0.11	-0.750			
0.3975	25436.90	3.6570	3.6569	-1.3181	26.05	0.10	-0.750			
0.4014	25690.14	3.6540	3.6540	-1.3568	26.04	0.09	-0.750			
0.4055	25953.82	3.6510	3.6511	-1.3866	26.04	0.09	-0.750			
0.4098	26226.69	3.6480	3.6479	-1.4215	26.03	0.08	-0.750			
0.4141	26502.00	3.6450	3.6449	-1.4471	26.02	0.07	-0.750			
0.4185	26783.37	3.6420	3.6419	-1.4679	26.01	0.06	-0.750			
0.4230	27070.33	3.6390	3.6391	-1.5065	26.00	0.05	-0.750			
0.4275	27360.81	3.6360	3.6359	-1.5412	25.99	0.04	-0.750			
0.4321	27654.08	3.6330	3.6330	-1.5713	25.99	0.04	-0.750			
0.4369	27964.30	3.6300	3.6300	-1.6265	25.98	0.03	-0.750			
0.4419	28280.95	3.6270	3.6272	-1.6664	25.97	0.02	-0.750			
0.4470	28606.37	3.6240	3.6237	-1.6882	25.96	0.01	-0.750			
0.4521	28935.92	3.6210	3.6214	-1.7279	25.95	0.00	-0.750	0.399	0.506	
0.4573	29269.53	3.6180	3.6180	-1.7345	25.94	-0.01	-0.750			
0.4626	29604.89	3.6150	3.6147	-1.7719	25.94	-0.01	-0.750			
0.4678	29938.68	3.6120	3.6121	-1.7866	25.93	-0.02	-0.750			
0.4732	30286.25	3.6090	3.6091	-1.8276	25.92	-0.03	-0.750			
0.4788	30643.07	3.6060	3.6060	-1.8771	25.91	-0.04	-0.750			
0.4845	31009.69	3.6030	3.6029	-1.9191	25.90	-0.05	-0.750			
0.4903	31381.56	3.6000	3.5998	-1.9491	25.89	-0.06	-0.750			
0.4963	31764.51	3.5970	3.5970	-1.9930	25.89	-0.06	-0.750			
0.5023	32147.79	3.5940	3.5940	-2.0030	25.89	-0.06	-0.750			
0.5084	32536.05	3.5910	3.5911	-2.0247	25.88	-0.07	-0.750			
0.5145	32925.38	3.5880	3.5879	-2.0687	25.87	-0.08	-0.750			
0.5206	33320.90	3.5850	3.5850	-2.0951	25.87	-0.08	-0.750			
0.5270	33728.33	3.5820	3.5819	-2.1254	25.87	-0.08	-0.750			
0.5334	34140.43	3.5790	3.5791	-2.1566	25.87	-0.08	-0.750			
0.5400	34558.86	3.5760	3.5760	-2.1970	25.86	-0.09	-0.750			
0.5467	34986.96	3.5730	3.5730	-2.2417	25.86	-0.09	-0.750			
0.5534	35418.29	3.5700	3.5699	-2.2707	25.86	-0.09	-0.750			
0.5603	35857.83	3.5670	3.5670	-2.2957	25.86	-0.09	-0.750			
0.5673	36305.98	3.5640	3.5642	-2.3115	25.86	-0.09	-0.750			
0.5743	36755.00	3.5610	3.5609	-2.3307	25.86	-0.09	-0.750			
0.5814	37206.99	3.5580	3.5580	-2.3225	25.86	-0.09	-0.750			
0.5882	37647.51	3.5550	3.5549	-2.3148	25.87	-0.08	-0.750			
0.5953	38097.32	3.5520	3.5522	-2.3047	25.87	-0.08	-0.750			
0.6022	38538.90	3.5490	3.5490	-2.2888	25.87	-0.08	-0.750			
0.6091	38980.19	3.5460	3.5460	-2.2545	25.87	-0.08	-0.750			
0.6157	39407.67	3.5430	3.5430	-2.2259	25.88	-0.07	-0.750			
0.6224	39833.84	3.5400	3.5403	-2.2070	25.88	-0.07	-0.750			
0.6289	40252.51	3.5370	3.5367	-2.1802	25.89	-0.06	-0.750			
0.6354	40666.10	3.5340	3.5341	-2.1409	25.89	-0.06	-0.750			
0.6419	41080.71	3.5310	3.5311	-2.0935	25.89	-0.06	-0.750			
0.6481	41478.81	3.5280	3.5280	-2.0781	25.90	-0.05	-0.750			
0.6542	41869.76	3.5250	3.5250	-2.0249	25.91	-0.04	-0.750			
0.6603	42257.60	3.5220	3.5216	-1.9725	25.92	-0.03	-0.750			
0.6661	42632.91	3.5190	3.5192	-1.9297	25.93	-0.02	-0.750			
0.6719	42999.45	3.5160	3.5159	-1.8683	25.94	-0.01	-0.750			
0.6775	43358.40	3.5130	3.5130	-1.8113	25.95	-0.00	-0.750			
0.6827	43694.58	3.5100	3.5099	-1.7529	25.96	0.01	-0.750			
0.6879	44024.89	3.5070	3.5069	-1.6842	25.98	0.03	-0.750			
0.6929	44345.35	3.5040	3.5040	-1.6237	25.99	0.04	-0.750			
0.6977	44655.33	3.5010	3.5008	-1.5747	26.01	0.06	-0.750			
0.7024	44950.51	3.4980	3.4981	-1.5249	26.02	0.07	-0.750			
0.7069	45238.62	3.4950	3.4949	-1.4689	26.04	0.09	-0.750			
0.7112	45515.49	3.4920	3.4919	-1.4189	26.05	0.10	-0.750			
0.7152	45775.97	3.4890	3.4890	-1.3647	26.07	0.12	-0.750			
0.7194	46039.97	3.4860	3.4860	-1.3356	26.08	0.13	-0.750			
0.7234	46294.46	3.4830	3.4829	-1.2955	26.10	0.15	-0.750			
0.7271	46536.87	3.4800	3.4800	-1.2487	26.12	0.17	-0.750			
0.7308	46770.98	3.4770	3.4771	-1.2095	26.14	0.19	-0.750			
0.7345	47005.09	3.4740	3.4739	-1.1776	26.15	0.20	-0.750			
0.7379	47227.33	3.4710	3.4710	-1.1310	26.16	0.21	-0.750			
0.7412	47437.94	3.4680	3.4682	-1.0870	26.17	0.22	-0.750			
0.7444	47642.43	3.4650	3.4649	-1.0555	26.18	0.23	-0.750			
0.7475	47841.30	3.4620	3.4620	-1.0192	26.20	0.25	-0.750			
0.7505	48032.79	3.4590	3.4589	-0.9852	26.21	0.26	-0.750			
0.7534	48219.37	3.4560	3.4560	-0.9608	26.23	0.28	-0.750			
0.7562	48399.34	3.4530	3.4530	-0.9354	26.24	0.29	-0.750			
0.7590	48575.47	3.4500	3.4500	-0.9143	26.25	0.30	-0.750			
0.7617	48745.61	3.4470	3.4470	-0.9008	26.25	0.30	-0.750			
0.7643	48914.66	3.4440	3.4440	-0.8922	26.26	0.31	-0.750			
0.7670	49085.20	3.4410	3.4411	-0.9011	26.27	0.32	-0.750			
0.7696	49256.75	3.4380	3.4380	-0.9160	26.28	0.33	-0.750			
0.7724	49432.44	3.4350	3.4350	-0.9310	26.29	0.34	-0.750			
0.7752	49612.87	3.4320	3.4320	-0.9554	26.30	0.35	-0.750			
0.7781	49797.96	3.4290	3.4290	-0.9812	26.31	0.36	-0.750			
0.7811	49989.46	3.4260	3.4260	-1.0081	26.32	0.37	-0.750			
0.7842	50187.32	3.4230	3.4230	-1.0310	26.33	0.38	-0.750			
0.7873	50389.31	3.4200	3.4199	-1.0381	26.34	0.39	-0.750			
0.7905	50591.75	3.4170	3.4169	-1.0418	26.36	0.41	-0.750			
0.7937	50796.04	3.4140	3.4140	-1.0428	26.37	0.42	-0.750			
0.7968	50995.79	3.4110	3.4110	-1.0287	26.37	0.42	-0.750			
0.7999	51192.90	3.4080	3.4080	-1.0073	26.38	0.43	-0.750			
0.8029	51386.03	3.4050	3.4050	-0.9753	26.39	0.44	-0.750			
0.8058	51573.20	3.4020	3.4021	-0.9465	26.40	0.45	-0.750			
0.8086	51753.04	3.3990	3.3990	-0.9112	26.41	0.46	-0.750			
0.8113	51922.97	3.3960	3.3960	-0.8762	26.42	0.47	-0.750			
0.8138	52086.05	3.3930	3.3929	-0.8405	26.43	0.48	-0.750			
0.8163	52243.44	3.3900	3.3900	-0.8079	26.44	0.49	-0.750			
0.8187	52395.75	3.3870	3.3869	-0.7793	26.45	0.50	-0.750			
0.8210	52541.92	3.3840	3.3841	-0.7535	26.45	0.50	-0.750			
0.8232	52682.96	3.3810	3.3810	-0.7268	26.46	0.51	-0.750			
0.8253	52822.34	3.3780	3.3780	-0.7033	26.47	0.52	-0.750			
0.8274	52953.24	3.3750	3.3750	-0.6709	26.47	0.52	-0.750			
0.8294	53079.30	3.3720	3.3721	-0.6471	26.48	0.53	-0.750			
0.8313	53201.58	3.3690	3.3690	-0.6216	26.49	0.54	-0.750			
0.8331	53317.18	3.3660	3.3659	-0.5969	26.49	0.54	-0.750			
0.8348	53428.83	3.3630	3.3630	-0.5735	26.50	0.55	-0.750			
0.8365	53536.73	3.3600	3.3600	-0.5524	26.50	0.55	-0.750			
0.8382	53641.75	3.3570	3.3570	-0.5313	26.51	0.56	-0.750			
0.8397	53741.35	3.3540	3.3540	-0.5097	26.51	0.56	-0.750			
0.8412	53836.25	3.3510	3.3511	-0.4889	26.52	0.57	-0.750			
0.8426	53927.84	3.3480	3.3480	-0.4713	26.53	0.58	-0.750			
0.8440	54015.96	3.3450	3.3449	-0.4532	26.53	0.58	-0.750			
0.8453	54101.26	3.3420	3.3420	-0.4372	26.54	0.59	-0.750			
0.8466	54183.83	3.3390	3.3391	-0.4216	26.54	0.59	-0.750			
0.8479	54263.97	3.3360	3.3360	-0.4076	26.55	0.60	-0.750			
0.8491	54340.53	3.3330	3.3330	-0.3911	26.56	0.61	-0.750			
0.8502	54413.16	3.3300	3.3300	-0.3759	26.56	0.61	-0.750			
0.8513	54483.93	3.3270	3.3270	-0.3627	26.57	0.62	-0.750			
0.8524	54552.22	3.3240	3.3240	-0.3497	26.57	0.62	-0.750			
0.8534	54617.91	3.3210	3.3209	-0.3377	26.58	0.63	-0.750			
0.8544	54681.61	3.3180	3.3181	-0.3279	26.58	0.63	-0.750			
0.8554	54743.31	3.3150	3.3150	-0.3173	26.59	0.64	-0.750			
0.8563	54802.86	3.3120	3.3120	-0.3077	26.59	0.64	-0.750			
0.8572	54860.91	3.3090	3.3090	-0.2976	26.60	0.65	-0.750			
0.8581	54917.29	3.3060	3.3060	-0.2897	26.60	0.65	-0.750			
0.8589	54972.05	3.3030	3.3031	-0.2821	26.61	0.66	-0.750			
0.8598	55025.37	3.3000	3.3000	-0.2740	26.61	0.66	-0.750			
0.8606	55077.01	3.2970	3.2969	-0.2659	26.62	0.67	-0.750			
0.8614	55127.74	3.2940	3.2940	-0.2592	26.62	0.67	-0.750			
0.8621	55176.40	3.2910	3.2912	-0.2513	26.63	0.68	-0.750			
0.8629	55223.67	3.2880	3.2880	-0.2454	26.63	0.68	-0.750			
0.8636	55269.66	3.2850	3.2850	-0.2398	26.63	0.68	-0.750			
0.8643	55315.46	3.2820	3.2820	-0.2342	26.64	0.69	-0.750			
0.8650	55359.97	3.2790	3.2789	-0.2290	26.64	0.69	-0.750			
0.8657	55403.69	3.2760	3.2760	-0.2246	26.65	0.70	-0.750			
0.8663	55446.29	3.2730	3.2731	-0.2195	26.65	0.70	-0.750			
0.8670	55488.04	3.2700	3.2699	-0.2151	26.65	0.70	-0.750			
0.8676	55528.57	3.2670	3.2670	-0.2105	26.66	0.71	-0.750			
0.8683	55568.07	3.2640	3.2640	-0.2057	26.67	0.72	-0.750			
0.8689	55606.94	3.2610	3.2610	-0.2021	26.67	0.72	-0.750			
0.8695	55645.84	3.2580	3.2580	-0.1992	26.68	0.73	-0.750			
0.8701	55683.51	3.2550	3.2550	-0.1955	26.68	0.73	-0.750			
0.8706	55720.74	3.2520	3.2520	-0.1923	26.69	0.74	-0.750			
0.8712	55757.31	3.2490	3.2490	-0.1894	26.69	0.74	-0.750			
0.8718	55793.32	3.2460	3.2460	-0.1861	26.70	0.75	-0.750			
0.8723	55828.72	3.2430	3.2430	-0.1832	26.70	0.75	-0.750			
0.8729	55863.62	3.2400	3.2400	-0.1804	26.71	0.76	-0.750			
0.8734	55897.93	3.2370	3.2370	-0.1777	26.71	0.76	-0.750			
0.8739	55931.85	3.2340	3.2340	-0.1751	26.72	0.77	-0.750			
0.8745	55964.93	3.2310	3.2310	-0.1725	26.72	0.77	-0.750			
0.8750	55997.85	3.2280	3.2280	-0.1704	26.73	0.78	-0.750			
0.8755	56030.21	3.2250	3.2250	-0.1687	26.73	0.78	-0.750			
0.8760	56062.52	3.2220	3.2220	-0.1667	26.74	0.79	-0.750			
0.8765	56094.31	3.2190	3.2190	-0.1649	26.74	0.79	-0.750			
0.8770	56125.81	3.2160	3.2160	-0.1632	26.74	0.79	-0.750			
0.8775	56157.20	3.2130	3.2130	-0.1608	26.75	0.80	-0.750			
0.8779	56187.84	3.2100	3.2100	-0.1590	26.75	0.80	-0.750			
0.8784	56218.05	3.2070	3.2070	-0.1565	26.76	0.81	-0.750			
0.8789	56247.84	3.2040	3.2041	-0.1548	26.76	0.81	-0.750			
0.8793	56277.23	3.2010	3.2009	-0.1529	26.76	0.81	-0.750			
0.8798	56306.48	3.1980	3.1979	-0.1513	26.77	0.82	-0.750			
0.8802	56335.37	3.1950	3.1951	-0.1497	26.77	0.82	-0.750			
0.8807	56363.78	3.1920	3.1921	-0.1484	26.78	0.83	-0.750			
0.8811	56392.47	3.1890	3.1889	-0.1471	26.78	0.83	-0.750			
0.8816	56420.45	3.1860	3.1860	-0.1450	26.79	0.84	-0.750			
0.8820	56448.14	3.1830	3.1830	-0.1433	26.79	0.84	-0.750			
0.8824	56475.49	3.1800	3.1801	-0.1419	26.80	0.85	-0.750			
0.8829	56502.60	3.1770	3.1769	-0.1404	26.80	0.85	-0.750			
0.8833	56529.41	3.1740	3.1740	-0.1388	26.80	0.85	-0.750			
0.8837	56555.77	3.1710	3.1711	-0.1383	26.81	0.86	-0.750			
0.8841	56581.99	3.1680	3.1680	-0.1372	26.81	0.86	-0.750			
0.8845	56608.48	3.1650	3.1650	-0.1366	26.82	0.87	-0.750			
0.8849	56634.66	3.1620	3.1619	-0.1358	26.82	0.87	-0.750			
0.8853	56660.66	3.1590	3.1591	-0.1347	26.82	0.87	-0.750			
0.8857	56686.53	3.1560	3.1560	-0.1336	26.83	0.88	-0.750			
0.8861	56712.21	3.1530	3.1530	-0.1324	26.83	0.88	-0.750			
0.8865	56737.46	3.1500	3.1499	-0.1309	26.84	0.89	-0.750			
0.8869	56762.19	3.1470	3.1470	-0.1295	26.84	0.89	-0.750			
0.8873	56786.96	3.1440	3.1441	-0.1284	26.85	0.90	-0.750			
0.8877	56811.44	3.1410	3.1409	-0.1275	26.85	0.90	-0.750			
0.8881	56835.88	3.1380	3.1379	-0.1265	26.85	0.90	-0.750			
0.8884	56860.01	3.1350	3.1351	-0.1255	26.86	0.91	-0.750			
0.8888	56883.99	3.1320	3.1320	-0.1248	26.86	0.91	-0.750			
0.8892	56907.87	3.1290	3.1291	-0.1240	26.86	0.91	-0.750			
0.8896	56931.69	3.1260	3.1260	-0.1233	26.87	0.92	-0.750			
0.8899	56955.18	3.1230	3.1229	-0.1222	26.87	0.92	-0.750			
0.8903	56978.76	3.1200	3.1200	-0.1210	26.87	0.92	-0.750			
0.8907	57001.97	3.1170	3.1170	-0.1200	26.87	0.92	-0.750			
0.8910	57024.68	3.1140	3.1140	-0.1193	26.88	0.93	-0.750			
0.8914	57047.52	3.1110	3.1110	-0.1185	26.88	0.93	-0.750			
0.8917	57070.22	3.1080	3.1079	-0.1176	26.88	0.93	-0.750			
0.8921	57092.54	3.1050	3.1048	-0.1164	26.89	0.94	-0.750			
0.8924	57114.76	3.1020	3.1021	-0.1160	26.89	0.94	-0.750			
0.8928	57136.89	3.0990	3.0991	-0.1153	26.90	0.95	-0.750			
0.8931	57159.09	3.0960	3.0960	-0.1147	26.91	0.96	-0.750			
0.8935	57181.26	3.0930	3.0930	-0.1145	26.91	0.96	-0.750			
0.8938	57203.15	3.0900	3.0898	-0.1136	26.92	0.97	-0.750			
0.8941	57224.74	3.0870	3.0870	-0.1125	26.92	0.97	-0.750			
0.8945	57246.31	3.0840	3.0840	-0.1118	26.93	0.98	-0.750			
0.8948	57267.89	3.0810	3.0810	-0.1114	26.93	0.98	-0.750			
0.8951	57289.21	3.0780	3.0780	-0.1103	26.94	0.99	-0.750			
0.8955	57310.23	3.0750	3.0750	-0.1092	26.94	0.99	-0.750			
0.8958	57330.91	3.0720	3.0720	-0.1088	26.95	1.00	-0.750			
0.8961	57351.66	3.0690	3.0690	-0.1081	26.95	1.00	-0.750			
0.8964	57372.37	3.0660	3.0660	-0.1077	26.96	1.01	-0.750			
0.8968	57392.92	3.0630	3.0630	-0.1071	26.96	1.01	-0.750			
0.8971	57413.63	3.0600	3.0599	-0.1065	26.97	1.02	-0.750			
0.8974	57434.06	3.0570	3.0570	-0.1060	26.97	1.02	-0.750			
0.8977	57454.31	3.0540	3.0541	-0.1054	26.98	1.03	-0.750			
0.8980	57474.68	3.0510	3.0510	-0.1051	26.98	1.03	-0.750			
0.8984	57494.78	3.0480	3.0480	-0.1041	26.99	1.04	-0.750			
0.8987	57514.56	3.0450	3.0450	-0.1030	26.99	1.04	-0.750			
0.8990	57534.22	3.0420	3.0419	-0.1023	27.00	1.05	-0.750			
0.8993	57553.78	3.0390	3.0390	-0.1016	27.00	1.05	-0.750			
0.8996	57573.05	3.0360	3.0361	-0.1014	27.01	1.06	-0.750			
0.8999	57592.45	3.0330	3.0329	-0.1011	27.01	1.06	-0.750			
0.9002	57611.88	3.0300	3.0300	-0.1008	27.02	1.07	-0.750			
0.9005	57631.04	3.0270	3.0269	-0.1002	27.02	1.07	-0.750			
0.9008	57650.28	3.0240	3.0241	-0.1002	27.02	1.07	-0.750			
0.9011	57669.78	3.0210	3.0211	-0.0999	27.03	1.08	-0.750			
0.9014	57688.90	3.0180	3.0180	-0.0993	27.03	1.08	-0.750			
0.9017	57708.18	3.0150	3.0150	-0.0983	27.04	1.09	-0.750			
0.9020	57726.93	3.0120	3.0119	-0.0970	27.04	1.09	-0.750			
0.9023	57745.41	3.0090	3.0090	-0.0957	27.05	1.10	-0.750			
0.9026	57763.67	3.0060	3.0061	-0.0944	27.05	1.10	-0.750			
0.9028	57781.61	3.0030	3.0030	-0.0915	27.06	1.11	-0.751			
