Ah_balance (normalized)	Ah_balance (mAh)	Voltage - fit (V)	Voltage -  interpolate (V)	dQ/dV (1/V)	Temperature (°C)	Temperature - diff (°C)	Current (C)	R_DC 0ms (mOhm)	R_DC 50ms (mOhm)	R_DC 50 ms PEC (mOhm)
0.0534	3417.33	4.1960	4.1960	0.7604	26.76	0.79	0.750			
0.0557	3565.18	4.1930	4.1930	0.7681	26.76	0.79	0.750			
0.0580	3712.73	4.1900	4.1900	0.7693	26.77	0.80	0.750			
0.0603	3861.05	4.1870	4.1869	0.7677	26.77	0.80	0.750			
0.0626	4008.35	4.1840	4.1841	0.7679	26.77	0.80	0.750			
0.0649	4154.76	4.1810	4.1811	0.7718	26.77	0.80	0.750			
0.0672	4303.82	4.1780	4.1780	0.7742	26.77	0.80	0.750			
0.0696	4452.09	4.1750	4.1749	0.7661	26.77	0.80	0.750			
0.0718	4598.24	4.1720	4.1721	0.7681	26.77	0.80	0.750			
0.0741	4745.17	4.1690	4.1692	0.7693	26.77	0.80	0.750			
0.0764	4892.43	4.1660	4.1654	0.7732	26.77	0.80	0.750			
0.0788	5040.29	4.1630	4.1631	0.7724	26.77	0.80	0.750			
0.0811	5189.78	4.1600	4.1600	0.7691	26.77	0.80	0.750			
0.0834	5340.23	4.1570	4.1570	0.7745	26.77	0.80	0.750			
0.0857	5486.81	4.1540	4.1541	0.7683	26.77	0.80	0.750			
0.0880	5634.65	4.1510	4.1509	0.7716	26.77	0.80	0.750			
0.0904	5783.37	4.1480	4.1480	0.7736	26.77	0.80	0.750			
0.0927	5931.60	4.1450	4.1450	0.7725	26.77	0.80	0.750			
0.0950	6080.96	4.1420	4.1421	0.7775	26.77	0.80	0.750			
0.0974	6232.99	4.1390	4.1389	0.7818	26.76	0.79	0.750			
0.0997	6380.34	4.1360	4.1361	0.7807	26.76	0.79	0.750			
0.1020	6529.15	4.1330	4.1330	0.7812	26.76	0.79	0.750			
0.1044	6679.76	4.1300	4.1300	0.7858	26.76	0.79	0.750			
0.1067	6831.03	4.1270	4.1270	0.7873	26.76	0.79	0.750			
0.1091	6982.52	4.1240	4.1240	0.7892	26.76	0.79	0.750			
0.1115	7134.57	4.1210	4.1211	0.7909	26.76	0.79	0.750			
0.1139	7286.93	4.1180	4.1177	0.7937	26.76	0.79	0.750			
0.1162	7438.83	4.1150	4.1151	0.7932	26.76	0.79	0.750			
0.1186	7593.36	4.1120	4.1119	0.7889	26.76	0.79	0.750			
0.1210	7744.25	4.1090	4.1090	0.7975	26.76	0.79	0.750			
0.1234	7895.32	4.1060	4.1061	0.7966	26.76	0.79	0.750			
0.1258	8050.03	4.1030	4.1028	0.8046	26.76	0.79	0.750			
0.1282	8205.10	4.1000	4.1002	0.8085	26.76	0.79	0.750			
0.1307	8363.04	4.0970	4.0970	0.8041	26.77	0.80	0.750			
0.1331	8518.76	4.0940	4.0941	0.8099	26.77	0.80	0.750			
0.1355	8673.52	4.0910	4.0910	0.8099	26.77	0.80	0.750			
0.1379	8826.56	4.0880	4.0880	0.8061	26.78	0.81	0.750			
0.1403	8981.09	4.0850	4.0851	0.8090	26.78	0.81	0.750			
0.1428	9137.96	4.0820	4.0820	0.8051	26.77	0.80	0.750			
0.1452	9292.06	4.0790	4.0790	0.8100	26.77	0.80	0.750			
0.1476	9448.77	4.0760	4.0761	0.8193	26.77	0.80	0.750			
0.1501	9603.77	4.0730	4.0730	0.8202	26.76	0.79	0.750			
0.1525	9762.65	4.0700	4.0701	0.8226	26.76	0.79	0.750			
0.1550	9922.01	4.0670	4.0670	0.8231	26.77	0.80	0.750			
0.1575	10079.42	4.0640	4.0640	0.8280	26.77	0.80	0.750			
0.1600	10240.48	4.0610	4.0611	0.8340	26.77	0.80	0.750			
0.1625	10398.06	4.0580	4.0579	0.8338	26.78	0.81	0.750			
0.1650	10558.14	4.0550	4.0550	0.8348	26.78	0.81	0.750			
0.1675	10719.97	4.0520	4.0520	0.8363	26.77	0.80	0.750			
0.1700	10881.34	4.0490	4.0490	0.8438	26.77	0.80	0.750			
0.1726	11043.97	4.0460	4.0460	0.8482	26.77	0.80	0.750			
0.1751	11205.26	4.0430	4.0430	0.8458	26.76	0.79	0.750			
0.1776	11369.53	4.0400	4.0400	0.8482	26.76	0.79	0.750			
0.1802	11535.99	4.0370	4.0369	0.8361	26.77	0.80	0.750			
0.1827	11695.70	4.0340	4.0341	0.8421	26.77	0.80	0.750			
0.1852	11854.86	4.0310	4.0311	0.8488	26.77	0.80	0.750			
0.1877	12015.07	4.0280	4.0281	0.8514	26.78	0.81	0.750			
0.1903	12179.66	4.0250	4.0252	0.8615	26.78	0.81	0.750			
0.1929	12347.26	4.0220	4.0221	0.8661	26.78	0.81	0.750			
0.1956	12515.84	4.0190	4.0191	0.8729	26.78	0.81	0.750			
0.1982	12686.75	4.0160	4.0160	0.8798	26.78	0.81	0.750			
0.2008	12852.03	4.0130	4.0128	0.8739	26.78	0.81	0.750			
0.2034	13020.03	4.0100	4.0100	0.8771	26.78	0.81	0.750			
0.2061	13189.02	4.0070	4.0070	0.8747	26.78	0.81	0.750			
0.2087	13357.55	4.0040	4.0040	0.8754	26.78	0.81	0.750			
0.2114	13526.98	4.0010	4.0010	0.8812	26.78	0.81	0.750			
0.2140	13693.96	3.9980	3.9979	0.8793	26.78	0.81	0.750			
0.2166	13864.25	3.9950	3.9949	0.8745	26.78	0.81	0.750			
0.2192	14031.13	3.9920	3.9920	0.8807	26.78	0.81	0.750			
0.2219	14199.05	3.9890	3.9891	0.8886	26.79	0.82	0.750			
0.2245	14370.76	3.9860	3.9861	0.8967	26.79	0.82	0.750			
0.2272	14542.98	3.9830	3.9828	0.8998	26.79	0.82	0.750			
0.2300	14717.75	3.9800	3.9800	0.8979	26.79	0.82	0.750			
0.2327	14892.56	3.9770	3.9771	0.8990	26.79	0.82	0.750			
0.2354	15065.30	3.9740	3.9741	0.9011	26.79	0.82	0.750			
0.2381	15236.64	3.9710	3.9709	0.8971	26.79	0.82	0.750			
0.2407	15407.80	3.9680	3.9679	0.8924	26.79	0.82	0.750			
0.2434	15578.69	3.9650	3.9650	0.9017	26.79	0.82	0.750			
0.2461	15753.39	3.9620	3.9620	0.9036	26.80	0.83	0.750			
0.2489	15929.05	3.9590	3.9590	0.9096	26.80	0.83	0.750			
0.2516	16103.84	3.9560	3.9560	0.9093	26.80	0.83	0.750			
0.2544	16279.96	3.9530	3.9530	0.8974	26.80	0.83	0.750			
0.2570	16449.16	3.9500	3.9500	0.9042	26.80	0.83	0.750			
0.2597	16623.39	3.9470	3.9470	0.9072	26.80	0.83	0.750			
0.2624	16795.17	3.9440	3.9441	0.9088	26.80	0.83	0.750			
0.2652	16972.40	3.9410	3.9410	0.9189	26.80	0.83	0.750			
0.2680	17149.38	3.9380	3.9381	0.9208	26.80	0.83	0.750			
0.2707	17326.05	3.9350	3.9351	0.9380	26.80	0.83	0.750			
0.2736	17508.02	3.9320	3.9320	0.9550	26.80	0.83	0.750			
0.2764	17690.27	3.9290	3.9285	0.9518	26.80	0.83	0.750			
0.2793	17877.36	3.9260	3.9262	0.9568	26.80	0.83	0.750			
0.2822	18062.45	3.9230	3.9231	0.9463	26.80	0.83	0.750			
0.2851	18245.82	3.9200	3.9200	0.9482	26.80	0.83	0.750			
0.2879	18422.90	3.9170	3.9170	0.9277	26.80	0.83	0.750			
0.2906	18601.38	3.9140	3.9139	0.9200	26.80	0.83	0.750			
0.2934	18775.92	3.9110	3.9110	0.9207	26.79	0.82	0.750			
0.2961	18953.36	3.9080	3.9081	0.9277	26.79	0.82	0.750			
0.2989	19132.75	3.9050	3.9050	0.9343	26.78	0.81	0.750			
0.3017	19311.00	3.9020	3.9018	0.9383	26.78	0.81	0.750			
0.3046	19492.69	3.8990	3.8991	0.9320	26.78	0.81	0.750			
0.3074	19672.46	3.8960	3.8960	0.9472	26.78	0.81	0.750			
0.3102	19855.96	3.8930	3.8930	0.9514	26.78	0.81	0.750			
0.3131	20037.08	3.8900	3.8899	0.9511	26.78	0.81	0.750			
0.3160	20221.99	3.8870	3.8871	0.9527	26.78	0.81	0.750			
0.3188	20404.76	3.8840	3.8841	0.9606	26.77	0.80	0.750			
0.3217	20588.86	3.8810	3.8810	0.9693	26.77	0.80	0.750			
0.3246	20774.89	3.8780	3.8781	0.9699	26.76	0.79	0.750			
0.3276	20965.29	3.8750	3.8750	0.9781	26.76	0.79	0.750			
0.3305	21152.69	3.8720	3.8721	0.9891	26.75	0.78	0.750			
0.3335	21344.43	3.8690	3.8691	0.9953	26.75	0.78	0.750			
0.3365	21536.40	3.8660	3.8660	1.0035	26.74	0.77	0.750			
0.3395	21729.09	3.8630	3.8630	1.0070	26.74	0.77	0.750			
0.3426	21923.87	3.8600	3.8601	1.0117	26.73	0.76	0.750			
0.3456	22119.64	3.8570	3.8569	1.0196	26.72	0.75	0.750			
0.3487	22315.42	3.8540	3.8541	1.0267	26.71	0.74	0.750			
0.3518	22512.47	3.8510	3.8511	1.0265	26.70	0.73	0.750			
0.3549	22710.55	3.8480	3.8480	1.0402	26.69	0.72	0.750			
0.3580	22910.51	3.8450	3.8450	1.0481	26.68	0.71	0.750			
0.3611	23113.55	3.8420	3.8421	1.0578	26.68	0.71	0.750			
0.3644	23320.69	3.8390	3.8389	1.0633	26.67	0.70	0.750			
0.3676	23524.48	3.8360	3.8361	1.0633	26.66	0.69	0.750			
0.3707	23727.13	3.8330	3.8330	1.0693	26.65	0.68	0.750			
0.3739	23932.79	3.8300	3.8301	1.0777	26.65	0.68	0.750			
0.3772	24141.77	3.8270	3.8271	1.0666	26.64	0.67	0.750			
0.3804	24345.88	3.8240	3.8239	1.0728	26.63	0.66	0.750			
0.3836	24552.36	3.8210	3.8212	1.0815	26.62	0.65	0.750			
0.3869	24760.69	3.8180	3.8181	1.0896	26.61	0.64	0.750			
0.3902	24970.24	3.8150	3.8150	1.0914	26.60	0.63	0.750			
0.3934	25179.95	3.8120	3.8121	1.0936	26.59	0.62	0.750			
0.3967	25389.28	3.8090	3.8092	1.1036	26.57	0.60	0.750			
0.4001	25603.56	3.8060	3.8060	1.1159	26.56	0.59	0.750			
0.4034	25817.69	3.8030	3.8029	1.1108	26.55	0.58	0.750			
0.4067	26028.99	3.8000	3.8000	1.1193	26.54	0.57	0.750			
0.4101	26244.76	3.7970	3.7971	1.1333	26.53	0.56	0.750			
0.4135	26465.94	3.7940	3.7936	1.1425	26.52	0.55	0.750			
0.4169	26684.74	3.7910	3.7911	1.1541	26.51	0.54	0.750			
0.4204	26906.41	3.7880	3.7881	1.1695	26.50	0.53	0.750			
0.4240	27133.56	3.7850	3.7850	1.1847	26.49	0.52	0.750			
0.4275	27360.78	3.7820	3.7821	1.1894	26.48	0.51	0.750			
0.4311	27592.08	3.7790	3.7791	1.2145	26.46	0.49	0.750			
0.4348	27827.99	3.7760	3.7760	1.2307	26.45	0.48	0.750			
0.4386	28067.81	3.7730	3.7730	1.2421	26.44	0.47	0.750			
0.4422	28301.99	3.7700	3.7701	1.2680	26.43	0.46	0.750			
0.4460	28545.86	3.7670	3.7671	1.3100	26.41	0.44	0.750			
0.4500	28802.92	3.7640	3.7637	1.3334	26.40	0.43	0.750			
0.4541	29061.01	3.7610	3.7609	1.3681	26.38	0.41	0.750	0.312	0.420	
0.4582	29326.96	3.7580	3.7583	1.4034	26.37	0.40	0.750			
0.4626	29604.11	3.7550	3.7549	1.4215	26.36	0.39	0.750			
0.4669	29881.09	3.7520	3.7520	1.4536	26.35	0.38	0.750			
0.4712	30155.17	3.7490	3.7491	1.4628	26.33	0.36	0.750			
0.4757	30442.33	3.7460	3.7459	1.5061	26.31	0.34	0.750			
0.4803	30738.05	3.7430	3.7431	1.5431	26.30	0.33	0.750			
0.4850	31037.09	3.7400	3.7401	1.5762	26.28	0.31	0.750			
0.4898	31344.53	3.7370	3.7371	1.6287	26.27	0.30	0.750			
0.4947	31661.14	3.7340	3.7342	1.6772	26.25	0.28	0.750			
0.4998	31987.14	3.7310	3.7309	1.7190	26.23	0.26	0.750			
0.5051	32323.55	3.7280	3.7281	1.7572	26.21	0.24	0.750			
0.5104	32665.73	3.7250	3.7251	1.7944	26.20	0.23	0.750			
0.5157	33007.93	3.7220	3.7220	1.8695	26.18	0.21	0.750			
0.5215	33378.24	3.7190	3.7191	1.9079	26.15	0.18	0.750			
0.5273	33749.99	3.7160	3.7158	1.9685	26.13	0.16	0.750			
0.5333	34133.68	3.7130	3.7132	2.0296	26.11	0.14	0.750			
0.5395	34527.03	3.7100	3.7102	2.1053	26.09	0.12	0.750			
0.5459	34940.57	3.7070	3.7071	2.1428	26.07	0.10	0.750			
0.5525	35358.35	3.7040	3.7038	2.1946	26.05	0.08	0.750			
0.5592	35787.87	3.7010	3.7011	2.2713	26.03	0.06	0.750			
0.5660	36226.40	3.6980	3.6979	2.3421	26.01	0.04	0.750			
0.5731	36676.23	3.6950	3.6947	2.4299	25.99	0.02	0.750			
0.5806	37157.50	3.6920	3.6919	2.4830	25.97	-0.00	0.750			
0.5883	37649.82	3.6890	3.6890	2.5323	25.95	-0.02	0.750			
0.5959	38138.78	3.6860	3.6863	2.6150	25.94	-0.03	0.750			
0.6037	38638.07	3.6830	3.6828	2.7016	25.92	-0.05	0.750			
0.6119	39158.69	3.6800	3.6799	2.8300	25.90	-0.07	0.750			
0.6205	39714.63	3.6770	3.6771	2.9419	25.88	-0.09	0.750			
0.6298	40304.03	3.6740	3.6739	3.0311	25.86	-0.11	0.750			
0.6389	40891.98	3.6710	3.6708	3.0867	25.85	-0.12	0.750			
0.6483	41491.51	3.6680	3.6679	3.1211	25.83	-0.14	0.750			
0.6579	42103.78	3.6650	3.6649	3.0569	25.81	-0.16	0.750			
0.6672	42698.54	3.6620	3.6618	2.8271	25.81	-0.16	0.750			
0.6750	43200.85	3.6590	3.6591	2.5300	25.81	-0.16	0.750			
0.6821	43652.91	3.6560	3.6558	2.2460	25.80	-0.17	0.750			
0.6881	44038.52	3.6530	3.6529	2.0048	25.79	-0.18	0.750			
0.6936	44390.03	3.6500	3.6500	1.8205	25.80	-0.17	0.750			
0.6987	44719.82	3.6470	3.6472	1.6622	25.81	-0.16	0.750			
0.7035	45025.64	3.6440	3.6442	1.5475	25.81	-0.16	0.750			
0.7080	45312.44	3.6410	3.6411	1.4452	25.80	-0.17	0.750			
0.7121	45573.13	3.6380	3.6380	1.3579	25.79	-0.18	0.750			
0.7159	45817.61	3.6350	3.6350	1.2840	25.79	-0.18	0.750			
0.7195	46050.29	3.6320	3.6320	1.2348	25.79	-0.18	0.750			
0.7232	46281.85	3.6290	3.6290	1.2151	25.79	-0.18	0.750			
0.7267	46511.05	3.6260	3.6261	1.2035	25.79	-0.18	0.750			
0.7303	46740.47	3.6230	3.6231	1.2102	25.79	-0.18	0.750			
0.7340	46972.84	3.6200	3.6199	1.2157	25.79	-0.18	0.750			
0.7377	47214.34	3.6170	3.6169	1.2029	25.79	-0.18	0.750			
0.7413	47444.85	3.6140	3.6140	1.1991	25.79	-0.18	0.750			
0.7449	47674.49	3.6110	3.6112	1.1898	25.79	-0.18	0.750			
0.7485	47901.79	3.6080	3.6081	1.1775	25.78	-0.19	0.750			
0.7520	48125.18	3.6050	3.6048	1.1613	25.78	-0.19	0.750			
0.7554	48344.89	3.6020	3.6021	1.1613	25.78	-0.19	0.750			
0.7588	48565.98	3.5990	3.5991	1.1656	25.79	-0.18	0.750			
0.7624	48793.35	3.5960	3.5959	1.1759	25.79	-0.18	0.750			
0.7659	49016.50	3.5930	3.5931	1.1849	25.79	-0.18	0.750			
0.7694	49243.75	3.5900	3.5900	1.2055	25.79	-0.18	0.750			
0.7730	49474.35	3.5870	3.5871	1.2383	25.79	-0.18	0.750			
0.7768	49715.50	3.5840	3.5840	1.2494	25.79	-0.18	0.750			
0.7805	49955.05	3.5810	3.5811	1.3217	25.78	-0.19	0.750			
0.7846	50215.98	3.5780	3.5777	1.3630	25.78	-0.19	0.750			
0.7888	50482.84	3.5750	3.5745	1.4172	25.77	-0.20	0.750			
0.7932	50763.63	3.5720	3.5725	1.4571	25.77	-0.20	0.750			
0.7976	51049.52	3.5690	3.5691	1.4971	25.77	-0.20	0.750			
0.8022	51339.44	3.5660	3.5661	1.5159	25.77	-0.20	0.750			
0.8067	51630.98	3.5630	3.5629	1.5557	25.77	-0.20	0.750			
0.8115	51933.16	3.5600	3.5601	1.5887	25.77	-0.20	0.750			
0.8163	52246.34	3.5570	3.5569	1.6122	25.77	-0.20	0.750			
0.8212	52559.50	3.5540	3.5538	1.6468	25.77	-0.20	0.750			
0.8263	52881.75	3.5510	3.5508	1.6509	25.77	-0.20	0.750			
0.8312	53195.92	3.5480	3.5480	1.6640	25.77	-0.20	0.750			
0.8362	53514.68	3.5450	3.5451	1.6569	25.76	-0.21	0.750			
0.8411	53830.76	3.5420	3.5422	1.6754	25.76	-0.21	0.750			
0.8461	54152.13	3.5390	3.5390	1.7492	25.77	-0.20	0.750			
0.8515	54494.97	3.5360	3.5358	1.7695	25.77	-0.20	0.750			
0.8572	54860.96	3.5330	3.5328	1.7488	25.77	-0.20	0.750			
0.8625	55202.56	3.5300	3.5305	1.6279	25.78	-0.19	0.750			
0.8677	55529.99	3.5270	3.5272	1.4440	25.79	-0.18	0.750			
0.8720	55808.64	3.5240	3.5245	1.2060	25.81	-0.16	0.750			
0.8751	56006.17	3.5210	3.5213	0.9464	25.82	-0.15	0.750			
0.8774	56151.73	3.5180	3.5175	0.7104	25.83	-0.14	0.750			
0.8785	56225.21	3.5150	3.5150	0.5053	25.83	-0.14	0.750			
0.8797	56303.55	3.5120	3.5117	0.4180	25.84	-0.13	0.750			
0.8808	56368.39	3.5090	3.5089	0.3692	25.85	-0.12	0.750			
0.8818	56433.89	3.5060	3.5060	0.3409	25.85	-0.12	0.750			
0.8827	56495.89	3.5030	3.5030	0.3227	25.86	-0.11	0.750			
0.8837	56556.44	3.5000	3.5001	0.3086	25.86	-0.11	0.750			
0.8846	56613.26	3.4970	3.4970	0.2974	25.87	-0.10	0.750			
0.8855	56669.05	3.4940	3.4939	0.2870	25.87	-0.10	0.750			
0.8863	56722.66	3.4910	3.4910	0.2787	25.88	-0.09	0.750			
0.8871	56774.74	3.4880	3.4881	0.2718	25.88	-0.09	0.750			
0.8879	56826.80	3.4850	3.4850	0.2673	25.89	-0.08	0.750			
0.8887	56877.40	3.4820	3.4818	0.2629	25.89	-0.08	0.750			
0.8895	56927.49	3.4790	3.4790	0.2569	25.89	-0.08	0.750			
0.8902	56975.95	3.4760	3.4761	0.2514	25.90	-0.07	0.750			
0.8910	57024.18	3.4730	3.4730	0.2467	25.90	-0.07	0.750			
0.8917	57070.90	3.4700	3.4701	0.2417	25.91	-0.06	0.750			
0.8924	57116.79	3.4670	3.4669	0.2369	25.91	-0.06	0.750			
0.8932	57161.87	3.4640	3.4640	0.2312	25.92	-0.05	0.750			
0.8938	57205.70	3.4610	3.4610	0.2268	25.92	-0.05	0.750			
0.8945	57248.39	3.4580	3.4581	0.2223	25.93	-0.04	0.750			
0.8952	57291.08	3.4550	3.4550	0.2190	25.93	-0.04	0.750			
0.8958	57332.50	3.4520	3.4519	0.2139	25.94	-0.03	0.750			
0.8965	57373.35	3.4490	3.4489	0.2099	25.94	-0.03	0.750			
0.8971	57413.24	3.4460	3.4461	0.2046	25.94	-0.03	0.750			
0.8977	57452.09	3.4430	3.4431	0.2000	25.95	-0.02	0.750			
0.8983	57490.53	3.4400	3.4400	0.1957	25.95	-0.02	0.750			
0.8989	57527.51	3.4370	3.4371	0.1898	25.95	-0.02	0.750			
0.8994	57563.33	3.4340	3.4339	0.1841	25.96	-0.01	0.750			
0.9000	57598.08	3.4310	3.4310	0.1799	25.96	-0.01	0.750			
0.9005	57632.19	3.4280	3.4280	0.1752	25.97	-0.00	0.750			
0.9010	57665.17	3.4250	3.4250	0.1704	25.97	-0.00	0.750			
0.9015	57697.76	3.4220	3.4220	0.1656	25.97	0.00	0.750			
0.9020	57729.08	3.4190	3.4191	0.1606	25.97	0.00	0.750			
0.9025	57759.54	3.4160	3.4160	0.1552	25.98	0.01	0.750			
0.9030	57789.07	3.4130	3.4130	0.1502	25.98	0.01	0.750			
0.9034	57817.14	3.4100	3.4101	0.1440	25.98	0.01	0.750			
0.9038	57844.26	3.4070	3.4069	0.1385	25.99	0.02	0.750			
0.9042	57870.46	3.4040	3.4040	0.1326	25.99	0.02	0.750			
0.9046	57895.31	3.4010	3.4010	0.1267	25.99	0.02	0.750			
0.9050	57919.55	3.3980	3.3980	0.1207	25.99	0.02	0.750			
0.9053	57942.05	3.3950	3.3950	0.1137	26.00	0.03	0.750			
0.9057	57964.43	3.3920	3.3917	0.1054	26.00	0.03	0.750			
0.9060	57984.06	3.3890	3.3890	0.0975	26.00	0.03	0.750			
0.9063	58001.86	3.3860	3.3861	0.0879	26.00	0.03	0.750			
0.9065	58018.36	3.3830	3.3831	0.0792	26.00	0.03	0.750			
0.9068	58032.58	3.3800	3.3803	0.0690	26.01	0.04	0.750			
0.9070	58045.60	3.3770	3.3775	0.0590	26.01	0.04	0.750			
0.9071	58055.87	3.3740	3.3749	0.0480	26.01	0.04	0.750			
0.9073	58064.03	3.3710	3.3723	0.0370	26.01	0.04	0.750			
0.9073	58070.09	3.3680	3.3699	0.0261	26.01	0.04	0.750			
