Ah_balance (normalized)	Ah_balance (mAh)	Voltage - fit (V)	Voltage -  interpolate (V)	dQ/dV (1/V)	Temperature (°C)	Temperature - diff (°C)	Current (C)	R_DC 0ms (mOhm)	R_DC 50ms (mOhm)	R_DC 50 ms PEC (mOhm)
0.0004	22.69	4.1550	4.1547	-0.1084	25.10	0.00	-0.750			
0.0007	47.40	4.1520	4.1520	-0.1467	25.10	-0.00	-0.750			
0.0012	79.29	4.1490	4.1489	-0.1832	25.10	-0.00	-0.750			
0.0019	118.62	4.1460	4.1459	-0.2175	25.10	-0.00	-0.750			
0.0026	163.90	4.1430	4.1431	-0.2504	25.09	-0.01	-0.750			
0.0034	215.79	4.1400	4.1400	-0.2838	25.09	-0.01	-0.750			
0.0043	274.11	4.1370	4.1370	-0.3145	25.09	-0.01	-0.750			
0.0053	337.09	4.1340	4.1340	-0.3433	25.09	-0.01	-0.750			
0.0063	405.89	4.1310	4.1310	-0.3714	25.09	-0.01	-0.750			
0.0075	480.43	4.1280	4.1281	-0.3981	25.08	-0.02	-0.750			
0.0088	560.09	4.1250	4.1250	-0.4223	25.08	-0.02	-0.750			
0.0101	644.17	4.1220	4.1221	-0.4465	25.08	-0.02	-0.750			
0.0114	732.03	4.1190	4.1190	-0.4680	25.07	-0.03	-0.750			
0.0129	824.67	4.1160	4.1160	-0.4895	25.07	-0.03	-0.750			
0.0144	920.71	4.1130	4.1130	-0.5057	25.07	-0.03	-0.750			
0.0159	1019.92	4.1100	4.1100	-0.5228	25.07	-0.03	-0.750			
0.0175	1121.82	4.1070	4.1070	-0.5384	25.07	-0.03	-0.750			
0.0192	1227.36	4.1040	4.1040	-0.5533	25.07	-0.03	-0.750			
0.0209	1335.02	4.1010	4.1010	-0.5633	25.07	-0.03	-0.750			
0.0226	1444.29	4.0980	4.0980	-0.5755	25.07	-0.03	-0.750			
0.0243	1556.91	4.0950	4.0950	-0.5836	25.07	-0.03	-0.750			
0.0261	1669.78	4.0920	4.0921	-0.5935	25.07	-0.03	-0.750			
0.0279	1784.33	4.0890	4.0890	-0.6028	25.07	-0.03	-0.750			
0.0297	1900.83	4.0860	4.0860	-0.6111	25.07	-0.03	-0.750			
0.0315	2019.16	4.0830	4.0829	-0.6189	25.07	-0.03	-0.750			
0.0334	2139.03	4.0800	4.0801	-0.6264	25.07	-0.03	-0.750			
0.0353	2260.18	4.0770	4.0770	-0.6335	25.07	-0.03	-0.750			
0.0372	2383.21	4.0740	4.0739	-0.6409	25.07	-0.03	-0.750			
0.0392	2505.99	4.0710	4.0710	-0.6443	25.07	-0.03	-0.750			
0.0411	2630.86	4.0680	4.0680	-0.6488	25.08	-0.02	-0.750			
0.0431	2756.67	4.0650	4.0650	-0.6530	25.08	-0.02	-0.750			
0.0450	2882.45	4.0620	4.0620	-0.6553	25.09	-0.01	-0.750			
0.0470	3008.36	4.0590	4.0591	-0.6589	25.09	-0.01	-0.750			
0.0490	3134.89	4.0560	4.0560	-0.6612	25.10	-0.00	-0.750			
0.0510	3261.63	4.0530	4.0530	-0.6638	25.10	0.00	-0.750			
0.0530	3389.50	4.0500	4.0500	-0.6666	25.10	0.00	-0.750			
0.0550	3518.07	4.0470	4.0470	-0.6735	25.10	0.00	-0.750			
0.0570	3647.36	4.0440	4.0440	-0.6785	25.10	0.00	-0.750			
0.0590	3778.93	4.0410	4.0410	-0.6791	25.10	0.00	-0.750			
0.0611	3909.63	4.0380	4.0380	-0.6805	25.10	0.00	-0.750			
0.0631	4040.38	4.0350	4.0351	-0.6854	25.10	0.00	-0.750			
0.0652	4172.15	4.0320	4.0320	-0.6883	25.10	0.00	-0.750			
0.0672	4303.91	4.0290	4.0290	-0.6929	25.11	0.01	-0.750			
0.0693	4437.03	4.0260	4.0260	-0.6945	25.11	0.01	-0.750			
0.0714	4571.73	4.0230	4.0230	-0.6975	25.11	0.01	-0.750			
0.0735	4707.09	4.0200	4.0200	-0.7003	25.12	0.02	-0.750			
0.0756	4841.35	4.0170	4.0172	-0.7016	25.12	0.02	-0.750			
0.0777	4975.36	4.0140	4.0140	-0.7024	25.12	0.02	-0.750			
0.0798	5110.18	4.0110	4.0110	-0.7035	25.13	0.03	-0.750			
0.0820	5244.95	4.0080	4.0081	-0.7066	25.13	0.03	-0.750			
0.0841	5381.90	4.0050	4.0050	-0.7089	25.13	0.03	-0.750			
0.0862	5517.81	4.0020	4.0020	-0.7102	25.14	0.04	-0.750			
0.0883	5654.13	3.9990	3.9990	-0.7128	25.14	0.04	-0.750			
0.0905	5790.77	3.9960	3.9959	-0.7155	25.15	0.05	-0.750			
0.0926	5927.87	3.9930	3.9930	-0.7212	25.15	0.05	-0.750			
0.0948	6068.37	3.9900	3.9900	-0.7212	25.16	0.06	-0.750			
0.0970	6207.82	3.9870	3.9870	-0.7204	25.16	0.06	-0.750			
0.0992	6346.20	3.9840	3.9840	-0.7226	25.17	0.07	-0.750			
0.1013	6484.17	3.9810	3.9810	-0.7217	25.17	0.07	-0.750			
0.1035	6622.03	3.9780	3.9779	-0.7248	25.18	0.08	-0.750			
0.1056	6760.33	3.9750	3.9750	-0.7297	25.18	0.08	-0.750			
0.1078	6901.07	3.9720	3.9720	-0.7343	25.19	0.09	-0.750			
0.1101	7045.47	3.9690	3.9690	-0.7363	25.19	0.09	-0.750			
0.1123	7187.82	3.9660	3.9660	-0.7366	25.20	0.10	-0.750			
0.1145	7327.59	3.9630	3.9630	-0.7379	25.20	0.10	-0.750			
0.1167	7468.65	3.9600	3.9599	-0.7381	25.21	0.11	-0.750			
0.1189	7610.07	3.9570	3.9569	-0.7388	25.21	0.11	-0.750			
0.1211	7751.83	3.9540	3.9540	-0.7376	25.21	0.11	-0.750			
0.1234	7896.09	3.9510	3.9510	-0.7424	25.22	0.12	-0.750			
0.1256	8038.43	3.9480	3.9481	-0.7465	25.22	0.12	-0.750			
0.1278	8181.20	3.9450	3.9449	-0.7437	25.22	0.12	-0.750			
0.1300	8322.46	3.9420	3.9420	-0.7478	25.23	0.13	-0.750			
0.1323	8466.46	3.9390	3.9390	-0.7527	25.23	0.13	-0.750			
0.1346	8612.43	3.9360	3.9360	-0.7602	25.23	0.13	-0.750			
0.1369	8759.17	3.9330	3.9330	-0.7606	25.24	0.14	-0.750			
0.1391	8905.57	3.9300	3.9301	-0.7634	25.24	0.14	-0.750			
0.1414	9051.71	3.9270	3.9270	-0.7628	25.25	0.15	-0.750			
0.1437	9199.92	3.9240	3.9239	-0.7629	25.26	0.16	-0.750			
0.1460	9344.31	3.9210	3.9210	-0.7615	25.27	0.17	-0.750			
0.1483	9490.83	3.9180	3.9180	-0.7626	25.27	0.17	-0.750			
0.1506	9637.28	3.9150	3.9151	-0.7642	25.28	0.18	-0.750			
0.1529	9784.20	3.9120	3.9120	-0.7683	25.28	0.18	-0.750			
0.1552	9931.28	3.9090	3.9091	-0.7684	25.29	0.19	-0.750			
0.1575	10079.81	3.9060	3.9060	-0.7716	25.29	0.19	-0.750			
0.1598	10229.14	3.9030	3.9030	-0.7731	25.30	0.20	-0.750			
0.1621	10376.64	3.9000	3.8999	-0.7716	25.30	0.20	-0.750			
0.1645	10524.80	3.8970	3.8970	-0.7746	25.30	0.20	-0.750			
0.1668	10673.32	3.8940	3.8940	-0.7751	25.31	0.21	-0.750			
0.1691	10821.91	3.8910	3.8910	-0.7741	25.31	0.21	-0.750			
0.1714	10971.17	3.8880	3.8880	-0.7767	25.31	0.21	-0.750			
0.1738	11120.42	3.8850	3.8850	-0.7773	25.32	0.22	-0.750			
0.1761	11269.35	3.8820	3.8820	-0.7797	25.32	0.22	-0.750			
0.1784	11417.96	3.8790	3.8790	-0.7806	25.32	0.22	-0.750			
0.1808	11569.12	3.8760	3.8759	-0.7784	25.32	0.22	-0.750			
0.1831	11719.25	3.8730	3.8730	-0.7811	25.33	0.23	-0.750			
0.1855	11870.29	3.8700	3.8701	-0.7776	25.33	0.23	-0.750			
0.1878	12019.61	3.8670	3.8670	-0.7750	25.33	0.23	-0.750			
0.1901	12168.54	3.8640	3.8640	-0.7685	25.34	0.24	-0.750			
0.1924	12313.29	3.8610	3.8610	-0.7625	25.34	0.24	-0.750			
0.1947	12458.88	3.8580	3.8580	-0.7640	25.35	0.25	-0.750			
0.1970	12605.59	3.8550	3.8550	-0.7670	25.35	0.25	-0.750			
0.1992	12751.79	3.8520	3.8519	-0.7668	25.36	0.26	-0.750			
0.2016	12900.06	3.8490	3.8490	-0.7719	25.36	0.26	-0.750			
0.2039	13048.51	3.8460	3.8460	-0.7753	25.37	0.27	-0.750			
0.2062	13198.88	3.8430	3.8429	-0.7780	25.37	0.27	-0.750			
0.2086	13348.72	3.8400	3.8400	-0.7746	25.37	0.27	-0.750			
0.2109	13497.84	3.8370	3.8370	-0.7719	25.38	0.28	-0.750			
0.2132	13645.77	3.8340	3.8342	-0.7701	25.38	0.28	-0.750			
0.2155	13793.36	3.8310	3.8310	-0.7684	25.38	0.28	-0.750			
0.2178	13940.32	3.8280	3.8280	-0.7660	25.38	0.28	-0.750			
0.2201	14087.30	3.8250	3.8250	-0.7635	25.38	0.28	-0.750			
0.2224	14234.70	3.8220	3.8220	-0.7607	25.38	0.28	-0.750			
0.2247	14380.72	3.8190	3.8189	-0.7562	25.38	0.28	-0.750			
0.2270	14525.35	3.8160	3.8159	-0.7527	25.38	0.28	-0.750			
0.2292	14668.89	3.8130	3.8130	-0.7470	25.39	0.29	-0.750			
0.2314	14810.66	3.8100	3.8100	-0.7431	25.39	0.29	-0.750			
0.2336	14952.57	3.8070	3.8070	-0.7375	25.39	0.29	-0.750			
0.2359	15096.68	3.8040	3.8040	-0.7359	25.40	0.30	-0.750			
0.2381	15237.98	3.8010	3.8010	-0.7286	25.40	0.30	-0.750			
0.2403	15377.27	3.7980	3.7980	-0.7219	25.40	0.30	-0.750			
0.2424	15513.59	3.7950	3.7951	-0.7199	25.41	0.31	-0.750			
0.2445	15650.73	3.7920	3.7920	-0.7162	25.41	0.31	-0.750			
0.2467	15787.66	3.7890	3.7889	-0.7145	25.41	0.31	-0.750			
0.2488	15925.27	3.7860	3.7860	-0.7137	25.42	0.32	-0.750			
0.2510	16063.96	3.7830	3.7831	-0.7139	25.42	0.32	-0.750			
0.2531	16200.88	3.7800	3.7800	-0.7096	25.42	0.32	-0.750			
0.2552	16335.49	3.7770	3.7770	-0.7094	25.42	0.32	-0.750			
0.2573	16470.39	3.7740	3.7741	-0.7052	25.42	0.32	-0.750			
0.2595	16607.05	3.7710	3.7709	-0.7086	25.42	0.32	-0.750			
0.2616	16743.16	3.7680	3.7680	-0.7091	25.42	0.32	-0.750			
0.2637	16879.59	3.7650	3.7650	-0.7102	25.42	0.32	-0.750			
0.2659	17015.15	3.7620	3.7620	-0.7166	25.42	0.32	-0.750			
0.2680	17152.66	3.7590	3.7590	-0.7210	25.43	0.33	-0.750			
0.2702	17291.19	3.7560	3.7560	-0.7249	25.43	0.33	-0.750			
0.2724	17431.95	3.7530	3.7530	-0.7315	25.44	0.34	-0.750			
0.2746	17573.62	3.7500	3.7500	-0.7371	25.44	0.34	-0.750			
0.2768	17715.09	3.7470	3.7470	-0.7438	25.44	0.34	-0.750			
0.2790	17856.85	3.7440	3.7440	-0.7515	25.44	0.34	-0.750			
0.2813	18001.18	3.7410	3.7410	-0.7576	25.44	0.34	-0.750			
0.2836	18147.75	3.7380	3.7380	-0.7670	25.44	0.34	-0.750			
0.2859	18297.33	3.7350	3.7350	-0.7776	25.44	0.34	-0.750			
0.2882	18447.44	3.7320	3.7321	-0.7836	25.44	0.34	-0.750			
0.2906	18597.43	3.7290	3.7289	-0.7959	25.44	0.34	-0.750			
0.2930	18749.30	3.7260	3.7261	-0.8176	25.44	0.34	-0.750			
0.2955	18910.24	3.7230	3.7228	-0.8292	25.44	0.34	-0.750			
0.2980	19071.65	3.7200	3.7199	-0.8479	25.44	0.34	-0.750			
0.3006	19235.86	3.7170	3.7174	-0.8590	25.44	0.34	-0.750			
0.3032	19402.85	3.7140	3.7140	-0.8751	25.44	0.34	-0.750			
0.3058	19571.55	3.7110	3.7109	-0.8861	25.44	0.34	-0.750			
0.3084	19738.61	3.7080	3.7079	-0.8912	25.44	0.34	-0.750			
0.3111	19912.93	3.7050	3.7051	-0.9132	25.44	0.34	-0.750			
0.3139	20090.12	3.7020	3.7020	-0.9275	25.44	0.34	-0.750			
0.3167	20268.87	3.6990	3.6990	-0.9461	25.43	0.33	-0.750			
0.3196	20454.18	3.6960	3.6959	-0.9618	25.43	0.33	-0.750			
0.3225	20639.65	3.6930	3.6930	-0.9745	25.42	0.32	-0.750			
0.3255	20829.00	3.6900	3.6902	-0.9918	25.42	0.32	-0.750			
0.3285	21021.19	3.6870	3.6870	-1.0093	25.42	0.32	-0.750			
0.3315	21217.27	3.6840	3.6839	-1.0177	25.41	0.31	-0.750			
0.3346	21411.81	3.6810	3.6810	-1.0310	25.41	0.31	-0.750			
0.3377	21609.65	3.6780	3.6782	-1.0565	25.40	0.30	-0.750			
0.3408	21814.19	3.6750	3.6750	-1.0766	25.40	0.30	-0.750			
0.3441	22022.68	3.6720	3.6718	-1.0930	25.39	0.29	-0.750			
0.3474	22234.47	3.6690	3.6690	-1.1104	25.38	0.28	-0.750			
0.3508	22450.84	3.6660	3.6662	-1.1429	25.38	0.28	-0.750			
0.3543	22673.90	3.6630	3.6629	-1.1610	25.38	0.28	-0.750			
0.3578	22897.74	3.6600	3.6599	-1.1715	25.38	0.28	-0.750			
0.3613	23124.34	3.6570	3.6569	-1.1858	25.38	0.28	-0.750			
0.3649	23354.81	3.6540	3.6540	-1.2152	25.38	0.28	-0.750			
0.3686	23591.68	3.6510	3.6509	-1.2264	25.37	0.27	-0.750			
0.3723	23826.44	3.6480	3.6480	-1.2469	25.36	0.26	-0.750			
0.3760	24064.81	3.6450	3.6453	-1.2667	25.36	0.26	-0.750			
0.3799	24315.12	3.6420	3.6419	-1.2961	25.35	0.25	-0.750			
0.3838	24565.57	3.6390	3.6389	-1.3152	25.35	0.25	-0.750			
0.3878	24818.06	3.6360	3.6362	-1.3410	25.34	0.24	-0.750			
0.3919	25079.26	3.6330	3.6330	-1.3697	25.33	0.23	-0.750			
0.3960	25345.22	3.6300	3.6299	-1.3929	25.33	0.23	-0.750			
0.4002	25610.88	3.6270	3.6271	-1.4205	25.32	0.22	-0.750			
0.4045	25890.26	3.6240	3.6240	-1.4510	25.32	0.22	-0.750			
0.4089	26170.13	3.6210	3.6209	-1.4836	25.31	0.21	-0.750			
0.4134	26460.26	3.6180	3.6182	-1.5068	25.31	0.21	-0.750			
0.4180	26749.58	3.6150	3.6149	-1.5411	25.31	0.21	-0.750			
0.4227	27051.26	3.6120	3.6119	-1.5716	25.30	0.20	-0.750	0.396	0.567	
0.4274	27353.74	3.6090	3.6089	-1.6068	25.30	0.20	-0.750			
0.4323	27664.33	3.6060	3.6060	-1.6474	25.30	0.20	-0.750			
0.4373	27986.68	3.6030	3.6030	-1.6618	25.30	0.20	-0.750			
0.4423	28304.78	3.6000	3.5999	-1.6965	25.30	0.20	-0.750			
0.4474	28633.23	3.5970	3.5971	-1.7379	25.30	0.20	-0.750			
0.4526	28965.22	3.5940	3.5940	-1.7531	25.30	0.20	-0.750			
0.4579	29306.56	3.5910	3.5910	-1.8068	25.30	0.20	-0.750			
0.4634	29658.47	3.5880	3.5880	-1.8329	25.30	0.20	-0.750			
0.4690	30018.58	3.5850	3.5847	-1.8827	25.30	0.20	-0.750			
0.4747	30380.47	3.5820	3.5820	-1.9121	25.30	0.20	-0.750			
0.4805	30749.07	3.5790	3.5789	-1.9249	25.30	0.20	-0.750			
0.4863	31122.65	3.5760	3.5760	-1.9619	25.30	0.20	-0.750			
0.4923	31504.13	3.5730	3.5730	-1.9782	25.30	0.20	-0.750			
0.4982	31884.89	3.5700	3.5700	-2.0006	25.31	0.21	-0.750			
0.5043	32275.43	3.5670	3.5671	-2.0308	25.31	0.21	-0.750			
0.5104	32667.24	3.5640	3.5639	-2.0246	25.31	0.21	-0.750			
0.5165	33056.53	3.5610	3.5610	-2.0407	25.31	0.21	-0.750			
0.5227	33451.53	3.5580	3.5581	-2.0614	25.32	0.22	-0.750			
0.5289	33846.55	3.5550	3.5549	-2.0631	25.32	0.22	-0.750			
0.5351	34245.10	3.5520	3.5521	-2.0623	25.32	0.22	-0.750			
0.5413	34640.60	3.5490	3.5491	-2.0574	25.33	0.23	-0.750			
0.5475	35039.00	3.5460	3.5459	-2.0478	25.34	0.24	-0.750			
0.5536	35432.23	3.5430	3.5430	-2.0396	25.34	0.24	-0.750			
0.5597	35818.76	3.5400	3.5400	-2.0262	25.34	0.24	-0.750			
0.5658	36208.88	3.5370	3.5368	-2.0112	25.34	0.24	-0.750			
0.5718	36594.44	3.5340	3.5341	-1.9927	25.35	0.25	-0.750			
0.5778	36978.84	3.5310	3.5310	-1.9718	25.35	0.25	-0.750			
0.5837	37357.37	3.5280	3.5281	-1.9538	25.36	0.26	-0.750			
0.5896	37732.45	3.5250	3.5249	-1.9116	25.36	0.26	-0.750			
0.5953	38097.56	3.5220	3.5219	-1.8840	25.36	0.26	-0.750			
0.6008	38452.78	3.5190	3.5193	-1.8421	25.36	0.26	-0.750			
0.6063	38804.59	3.5160	3.5161	-1.8069	25.37	0.27	-0.750			
0.6117	39146.56	3.5130	3.5130	-1.7651	25.38	0.28	-0.750			
0.6169	39481.54	3.5100	3.5100	-1.7204	25.39	0.29	-0.750			
0.6221	39811.81	3.5070	3.5070	-1.6888	25.39	0.29	-0.750			
0.6271	40133.49	3.5040	3.5040	-1.6436	25.40	0.30	-0.750			
0.6319	40441.09	3.5010	3.5011	-1.5910	25.41	0.31	-0.750			
0.6366	40741.99	3.4980	3.4979	-1.5466	25.42	0.32	-0.750			
0.6412	41036.60	3.4950	3.4950	-1.5033	25.43	0.33	-0.750			
0.6456	41320.18	3.4920	3.4919	-1.4539	25.44	0.34	-0.750			
0.6499	41593.69	3.4890	3.4891	-1.4184	25.45	0.35	-0.750			
0.6541	41859.95	3.4860	3.4859	-1.3705	25.46	0.36	-0.750			
0.6582	42121.89	3.4830	3.4829	-1.3352	25.48	0.38	-0.750			
0.6621	42374.48	3.4800	3.4801	-1.2916	25.50	0.40	-0.750			
0.6659	42619.74	3.4770	3.4769	-1.2532	25.51	0.41	-0.750			
0.6697	42860.23	3.4740	3.4740	-1.2153	25.52	0.42	-0.750			
0.6732	43087.23	3.4710	3.4709	-1.1769	25.52	0.42	-0.750			
0.6766	43305.53	3.4680	3.4681	-1.1348	25.53	0.43	-0.750			
0.6800	43522.24	3.4650	3.4649	-1.1016	25.55	0.45	-0.750			
0.6833	43728.90	3.4620	3.4620	-1.0645	25.56	0.46	-0.750			
0.6864	43928.09	3.4590	3.4591	-1.0278	25.57	0.47	-0.750			
0.6895	44126.66	3.4560	3.4560	-1.0044	25.58	0.48	-0.750			
0.6924	44315.66	3.4530	3.4530	-0.9762	25.58	0.48	-0.750			
0.6953	44499.87	3.4500	3.4500	-0.9461	25.59	0.49	-0.750			
0.6981	44678.89	3.4470	3.4470	-0.9176	25.60	0.50	-0.750			
0.7008	44852.74	3.4440	3.4441	-0.8962	25.61	0.51	-0.750			
0.7035	45021.42	3.4410	3.4410	-0.8741	25.62	0.52	-0.750			
0.7060	45186.29	3.4380	3.4379	-0.8597	25.63	0.53	-0.750			
0.7086	45348.20	3.4350	3.4350	-0.8452	25.64	0.54	-0.750			
0.7111	45507.96	3.4320	3.4319	-0.8424	25.64	0.54	-0.750			
0.7136	45668.85	3.4290	3.4291	-0.8407	25.65	0.55	-0.750			
0.7161	45829.02	3.4260	3.4259	-0.8443	25.66	0.56	-0.750			
0.7186	45990.74	3.4230	3.4230	-0.8445	25.67	0.57	-0.750			
0.7211	46152.59	3.4200	3.4200	-0.8474	25.68	0.58	-0.750			
0.7237	46318.95	3.4170	3.4170	-0.8557	25.68	0.58	-0.750			
0.7263	46483.55	3.4140	3.4140	-0.8557	25.69	0.59	-0.750			
0.7289	46646.52	3.4110	3.4110	-0.8570	25.70	0.60	-0.750			
0.7314	46812.49	3.4080	3.4080	-0.8541	25.70	0.60	-0.750			
0.7340	46976.93	3.4050	3.4049	-0.8491	25.71	0.61	-0.750			
0.7366	47141.32	3.4020	3.4019	-0.8412	25.72	0.62	-0.750			
0.7391	47301.64	3.3990	3.3990	-0.8326	25.72	0.62	-0.750			
0.7416	47460.24	3.3960	3.3960	-0.8221	25.73	0.63	-0.750			
0.7440	47617.42	3.3930	3.3930	-0.8056	25.73	0.63	-0.750			
0.7464	47769.98	3.3900	3.3900	-0.7876	25.74	0.64	-0.750			
0.7488	47922.49	3.3870	3.3869	-0.7725	25.75	0.65	-0.750			
0.7511	48070.06	3.3840	3.3841	-0.7522	25.75	0.65	-0.750			
0.7533	48212.09	3.3810	3.3810	-0.7295	25.76	0.66	-0.750			
0.7554	48348.16	3.3780	3.3780	-0.7093	25.76	0.66	-0.750			
0.7575	48482.68	3.3750	3.3750	-0.6841	25.77	0.67	-0.750			
0.7596	48613.40	3.3720	3.3719	-0.6686	25.77	0.67	-0.750			
0.7616	48740.36	3.3690	3.3690	-0.6466	25.78	0.68	-0.750			
0.7635	48863.30	3.3660	3.3660	-0.6241	25.78	0.68	-0.750			
0.7653	48979.95	3.3630	3.3629	-0.6052	25.79	0.69	-0.750			
0.7671	49093.37	3.3600	3.3600	-0.5848	25.79	0.69	-0.750			
0.7688	49201.22	3.3570	3.3570	-0.5663	25.80	0.70	-0.750			
0.7705	49310.77	3.3540	3.3539	-0.5529	25.80	0.70	-0.750			
0.7721	49414.79	3.3510	3.3510	-0.5355	25.81	0.71	-0.750			
0.7737	49517.36	3.3480	3.3480	-0.5194	25.81	0.71	-0.750			
0.7752	49615.86	3.3450	3.3452	-0.5053	25.82	0.72	-0.750			
0.7767	49710.10	3.3420	3.3419	-0.4871	25.83	0.73	-0.750			
0.7781	49801.26	3.3390	3.3391	-0.4730	25.83	0.73	-0.750			
0.7795	49890.83	3.3360	3.3360	-0.4579	25.84	0.74	-0.750			
0.7809	49978.36	3.3330	3.3329	-0.4488	25.84	0.74	-0.750			
0.7822	50062.51	3.3300	3.3300	-0.4363	25.85	0.75	-0.750			
0.7835	50145.15	3.3270	3.3271	-0.4269	25.85	0.75	-0.750			
0.7848	50225.80	3.3240	3.3239	-0.4131	25.86	0.76	-0.750			
0.7860	50304.71	3.3210	3.3211	-0.4024	25.86	0.76	-0.750			
0.7872	50380.56	3.3180	3.3179	-0.3915	25.87	0.77	-0.750			
0.7884	50455.28	3.3150	3.3151	-0.3819	25.87	0.77	-0.750			
0.7895	50525.92	3.3120	3.3119	-0.3711	25.88	0.78	-0.750			
0.7906	50595.65	3.3090	3.3090	-0.3650	25.88	0.78	-0.750			
0.7916	50665.32	3.3060	3.3060	-0.3551	25.89	0.79	-0.750			
0.7927	50733.32	3.3030	3.3029	-0.3486	25.89	0.79	-0.750			
0.7937	50799.69	3.3000	3.3001	-0.3426	25.89	0.79	-0.750			
0.7948	50865.02	3.2970	3.2970	-0.3344	25.90	0.80	-0.750			
0.7957	50927.93	3.2940	3.2939	-0.3284	25.90	0.80	-0.750			
0.7967	50990.16	3.2910	3.2910	-0.3213	25.91	0.81	-0.750			
0.7977	51050.94	3.2880	3.2881	-0.3138	25.91	0.81	-0.750			
0.7986	51111.42	3.2850	3.2849	-0.3096	25.91	0.81	-0.750			
0.7995	51169.94	3.2820	3.2821	-0.3020	25.92	0.82	-0.750			
0.8004	51226.93	3.2790	3.2790	-0.2951	25.92	0.82	-0.750			
0.8013	51283.23	3.2760	3.2760	-0.2900	25.93	0.83	-0.750			
0.8022	51337.61	3.2730	3.2730	-0.2840	25.93	0.83	-0.750			
0.8030	51391.28	3.2700	3.2700	-0.2801	25.93	0.83	-0.750			
0.8038	51445.14	3.2670	3.2670	-0.2761	25.94	0.84	-0.750			
0.8047	51497.70	3.2640	3.2639	-0.2706	25.94	0.84	-0.750			
0.8055	51549.67	3.2610	3.2610	-0.2669	25.95	0.85	-0.750			
0.8063	51600.51	3.2580	3.2581	-0.2623	25.95	0.85	-0.750			
0.8070	51649.91	3.2550	3.2549	-0.2578	25.96	0.86	-0.750			
0.8078	51699.02	3.2520	3.2520	-0.2539	25.96	0.86	-0.750			
0.8085	51746.73	3.2490	3.2489	-0.2497	25.97	0.87	-0.750			
0.8093	51794.92	3.2460	3.2460	-0.2473	25.97	0.87	-0.750			
0.8100	51841.84	3.2430	3.2430	-0.2450	25.97	0.87	-0.750			
0.8108	51888.81	3.2400	3.2400	-0.2408	25.98	0.88	-0.750			
0.8115	51934.83	3.2370	3.2369	-0.2375	25.98	0.88	-0.750			
0.8122	51979.95	3.2340	3.2339	-0.2339	25.99	0.89	-0.750			
0.8129	52024.69	3.2310	3.2312	-0.2307	25.99	0.89	-0.750			
0.8136	52068.28	3.2280	3.2279	-0.2278	26.00	0.90	-0.750			
0.8142	52111.58	3.2250	3.2250	-0.2247	26.00	0.90	-0.750			
0.8149	52154.41	3.2220	3.2220	-0.2214	26.01	0.91	-0.750			
0.8156	52196.33	3.2190	3.2190	-0.2176	26.01	0.91	-0.750			
0.8162	52238.29	3.2160	3.2160	-0.2164	26.02	0.92	-0.750			
0.8169	52279.55	3.2130	3.2131	-0.2133	26.02	0.92	-0.750			
0.8175	52320.05	3.2100	3.2100	-0.2103	26.03	0.93	-0.750			
0.8181	52360.24	3.2070	3.2069	-0.2074	26.03	0.93	-0.750			
0.8187	52399.32	3.2040	3.2040	-0.2042	26.04	0.94	-0.750			
0.8193	52438.35	3.2010	3.2011	-0.2023	26.04	0.94	-0.750			
0.8200	52477.22	3.1980	3.1980	-0.2002	26.05	0.95	-0.750			
0.8206	52515.49	3.1950	3.1949	-0.1976	26.05	0.95	-0.750			
0.8211	52553.08	3.1920	3.1920	-0.1949	26.06	0.96	-0.750			
0.8217	52590.17	3.1890	3.1890	-0.1934	26.06	0.96	-0.750			
0.8223	52626.88	3.1860	3.1860	-0.1925	26.07	0.97	-0.750			
0.8229	52663.83	3.1830	3.1829	-0.1910	26.07	0.97	-0.750			
0.8234	52700.12	3.1800	3.1800	-0.1893	26.08	0.98	-0.750			
0.8240	52736.74	3.1770	3.1770	-0.1868	26.08	0.98	-0.750			
0.8246	52772.91	3.1740	3.1740	-0.1847	26.09	0.99	-0.750			
0.8251	52808.25	3.1710	3.1710	-0.1826	26.09	0.99	-0.750			
0.8257	52842.98	3.1680	3.1680	-0.1792	26.09	0.99	-0.750			
0.8262	52876.69	3.1650	3.1650	-0.1771	26.10	1.00	-0.750			
0.8267	52909.83	3.1620	3.1620	-0.1747	26.10	1.00	-0.750			
0.8272	52943.18	3.1590	3.1589	-0.1738	26.11	1.01	-0.750			
0.8278	52976.69	3.1560	3.1560	-0.1717	26.12	1.02	-0.750			
0.8283	53009.51	3.1530	3.1530	-0.1711	26.12	1.02	-0.750			
0.8288	53042.36	3.1500	3.1500	-0.1698	26.13	1.03	-0.750			
0.8293	53074.82	3.1470	3.1470	-0.1683	26.13	1.03	-0.750			
0.8298	53107.03	3.1440	3.1439	-0.1664	26.14	1.04	-0.750			
0.8303	53138.73	3.1410	3.1411	-0.1646	26.14	1.04	-0.750			
0.8308	53169.95	3.1380	3.1380	-0.1635	26.15	1.05	-0.750			
0.8313	53201.25	3.1350	3.1351	-0.1625	26.15	1.05	-0.750			
0.8318	53232.81	3.1320	3.1319	-0.1600	26.16	1.06	-0.750			
0.8322	53262.87	3.1290	3.1289	-0.1578	26.16	1.06	-0.750			
0.8327	53292.78	3.1260	3.1262	-0.1573	26.17	1.07	-0.750			
0.8332	53322.92	3.1230	3.1231	-0.1566	26.17	1.07	-0.750			
0.8336	53352.74	3.1200	3.1198	-0.1562	26.18	1.08	-0.750			
0.8341	53382.62	3.1170	3.1171	-0.1550	26.18	1.08	-0.750			
0.8346	53412.93	3.1140	3.1140	-0.1531	26.19	1.09	-0.750			
0.8350	53442.15	3.1110	3.1109	-0.1512	26.19	1.09	-0.750			
0.8355	53471.93	3.1080	3.1081	-0.1498	26.20	1.10	-0.750			
0.8359	53499.86	3.1050	3.1051	-0.1478	26.20	1.10	-0.750			
0.8364	53527.52	3.1020	3.1020	-0.1447	26.21	1.11	-0.750			
0.8368	53555.05	3.0990	3.0988	-0.1447	26.21	1.11	-0.750			
0.8372	53582.39	3.0960	3.0960	-0.1436	26.21	1.11	-0.750			
0.8377	53609.76	3.0930	3.0930	-0.1437	26.22	1.12	-0.750			
0.8381	53638.21	3.0900	3.0900	-0.1437	26.22	1.12	-0.750			
0.8385	53665.69	3.0870	3.0870	-0.1419	26.23	1.13	-0.750			
0.8390	53692.88	3.0840	3.0840	-0.1405	26.24	1.14	-0.750			
0.8394	53719.61	3.0810	3.0810	-0.1384	26.24	1.14	-0.750			
0.8398	53745.93	3.0780	3.0779	-0.1373	26.25	1.15	-0.750			
0.8402	53771.92	3.0750	3.0750	-0.1358	26.25	1.15	-0.750			
0.8406	53797.65	3.0720	3.0719	-0.1352	26.26	1.16	-0.750			
0.8410	53823.58	3.0690	3.0691	-0.1349	26.26	1.16	-0.750			
0.8414	53849.44	3.0660	3.0660	-0.1343	26.27	1.17	-0.750			
0.8418	53875.36	3.0630	3.0629	-0.1334	26.27	1.17	-0.750			
0.8422	53901.01	3.0600	3.0600	-0.1327	26.28	1.18	-0.750			
0.8426	53926.48	3.0570	3.0570	-0.1309	26.29	1.19	-0.750			
0.8430	53951.41	3.0540	3.0540	-0.1302	26.29	1.19	-0.750			
0.8434	53976.34	3.0510	3.0511	-0.1290	26.30	1.20	-0.750			
0.8438	54000.55	3.0480	3.0480	-0.1276	26.30	1.20	-0.750			
0.8441	54025.17	3.0450	3.0449	-0.1269	26.31	1.21	-0.750			
0.8445	54049.45	3.0420	3.0420	-0.1262	26.31	1.21	-0.750			
0.8449	54073.72	3.0390	3.0391	-0.1257	26.32	1.22	-0.750			
0.8453	54097.77	3.0360	3.0360	-0.1249	26.32	1.22	-0.750			
0.8457	54121.83	3.0330	3.0330	-0.1246	26.33	1.23	-0.750			
0.8460	54145.34	3.0300	3.0300	-0.1231	26.33	1.23	-0.750			
0.8464	54169.11	3.0270	3.0270	-0.1221	26.34	1.24	-0.750			
0.8468	54192.51	3.0240	3.0240	-0.1213	26.34	1.24	-0.750			
0.8471	54215.77	3.0210	3.0211	-0.1199	26.35	1.25	-0.750			
0.8475	54238.94	3.0180	3.0179	-0.1189	26.35	1.25	-0.750			
0.8478	54261.48	3.0150	3.0150	-0.1181	26.36	1.26	-0.750			
0.8482	54283.95	3.0120	3.0119	-0.1170	26.36	1.26	-0.750			
0.8485	54305.97	3.0090	3.0089	-0.1163	26.37	1.27	-0.751			
0.8489	54328.30	3.0060	3.0060	-0.1163	26.37	1.27	-0.751			
0.8492	54350.65	3.0030	3.0030	-0.1181	26.38	1.28	-0.751			
