Ah_balance (normalized)	Ah_balance (mAh)	Voltage - fit (V)	Voltage -  interpolate (V)	dQ/dV (1/V)	Temperature (°C)	Temperature - diff (°C)	Current (C)	R_DC 0ms (mOhm)	R_DC 50ms (mOhm)	R_DC 50 ms PEC (mOhm)
0.0003	16.00	4.1560	4.1556	-0.1034	25.28	0.00	-0.750			
0.0006	39.67	4.1530	4.1528	-0.1409	25.28	0.00	-0.750			
0.0011	70.44	4.1500	4.1500	-0.1762	25.28	0.00	-0.750			
0.0017	107.71	4.1470	4.1471	-0.2105	25.28	0.00	-0.750			
0.0024	151.73	4.1440	4.1440	-0.2434	25.28	0.00	-0.750			
0.0032	202.58	4.1410	4.1410	-0.2759	25.28	0.00	-0.750			
0.0040	258.80	4.1380	4.1380	-0.3056	25.28	0.00	-0.750			
0.0050	320.33	4.1350	4.1351	-0.3347	25.28	0.00	-0.750			
0.0061	387.71	4.1320	4.1320	-0.3642	25.28	0.00	-0.750			
0.0072	460.41	4.1290	4.1290	-0.3927	25.28	0.00	-0.750			
0.0084	538.97	4.1260	4.1260	-0.4202	25.28	0.00	-0.750			
0.0097	623.50	4.1230	4.1230	-0.4446	25.28	0.00	-0.750			
0.0111	712.00	4.1200	4.1200	-0.4642	25.28	0.00	-0.750			
0.0126	803.41	4.1170	4.1170	-0.4846	25.28	0.00	-0.750			
0.0140	898.57	4.1140	4.1140	-0.5028	25.28	-0.00	-0.750			
0.0156	996.29	4.1110	4.1109	-0.5206	25.28	-0.00	-0.750			
0.0171	1097.36	4.1080	4.1080	-0.5366	25.27	-0.01	-0.750			
0.0188	1202.39	4.1050	4.1050	-0.5522	25.27	-0.01	-0.750			
0.0205	1312.44	4.1020	4.1020	-0.5702	25.27	-0.01	-0.750			
0.0222	1423.89	4.0990	4.0990	-0.5792	25.27	-0.01	-0.750			
0.0240	1536.39	4.0960	4.0960	-0.5866	25.26	-0.02	-0.750			
0.0258	1650.01	4.0930	4.0931	-0.5943	25.26	-0.02	-0.750			
0.0276	1763.90	4.0900	4.0900	-0.6012	25.26	-0.02	-0.750			
0.0294	1879.83	4.0870	4.0870	-0.6109	25.26	-0.02	-0.750			
0.0312	1997.46	4.0840	4.0840	-0.6208	25.26	-0.02	-0.750			
0.0331	2118.60	4.0810	4.0809	-0.6285	25.27	-0.01	-0.750			
0.0350	2240.48	4.0780	4.0780	-0.6355	25.27	-0.01	-0.750			
0.0369	2364.15	4.0750	4.0750	-0.6409	25.27	-0.01	-0.750			
0.0389	2487.57	4.0720	4.0720	-0.6437	25.27	-0.01	-0.750			
0.0408	2610.83	4.0690	4.0690	-0.6471	25.27	-0.01	-0.750			
0.0427	2735.00	4.0660	4.0660	-0.6531	25.27	-0.01	-0.750			
0.0447	2860.61	4.0630	4.0630	-0.6614	25.28	-0.00	-0.750			
0.0467	2989.69	4.0600	4.0600	-0.6667	25.28	-0.00	-0.750			
0.0487	3119.66	4.0570	4.0569	-0.6680	25.28	-0.00	-0.750			
0.0507	3247.99	4.0540	4.0542	-0.6708	25.28	0.00	-0.750			
0.0528	3377.33	4.0510	4.0510	-0.6702	25.28	0.00	-0.750			
0.0547	3503.94	4.0480	4.0480	-0.6744	25.28	0.00	-0.750			
0.0568	3632.22	4.0450	4.0450	-0.6759	25.28	0.00	-0.750			
0.0588	3764.39	4.0420	4.0420	-0.6821	25.29	0.01	-0.750			
0.0609	3895.98	4.0390	4.0390	-0.6853	25.29	0.01	-0.750			
0.0630	4029.05	4.0360	4.0362	-0.6907	25.29	0.01	-0.750			
0.0650	4161.25	4.0330	4.0330	-0.6894	25.29	0.01	-0.750			
0.0671	4293.65	4.0300	4.0299	-0.6926	25.30	0.02	-0.750			
0.0692	4425.67	4.0270	4.0270	-0.6924	25.30	0.02	-0.750			
0.0712	4558.41	4.0240	4.0240	-0.6978	25.31	0.03	-0.750			
0.0733	4693.06	4.0210	4.0210	-0.7012	25.31	0.03	-0.750			
0.0754	4828.03	4.0180	4.0180	-0.7060	25.32	0.04	-0.750			
0.0776	4964.58	4.0150	4.0150	-0.7063	25.32	0.04	-0.750			
0.0797	5101.39	4.0120	4.0120	-0.7083	25.33	0.05	-0.750			
0.0818	5237.33	4.0090	4.0090	-0.7117	25.33	0.05	-0.750			
0.0840	5374.44	4.0060	4.0059	-0.7110	25.33	0.05	-0.750			
0.0861	5510.99	4.0030	4.0029	-0.7106	25.34	0.06	-0.750			
0.0882	5647.41	4.0000	4.0002	-0.7118	25.34	0.06	-0.750			
0.0904	5783.51	3.9970	3.9970	-0.7138	25.34	0.06	-0.750			
0.0925	5920.63	3.9940	3.9939	-0.7208	25.34	0.06	-0.750			
0.0947	6058.30	3.9910	3.9909	-0.7218	25.35	0.07	-0.750			
0.0969	6198.91	3.9880	3.9880	-0.7276	25.35	0.07	-0.750			
0.0990	6338.74	3.9850	3.9850	-0.7293	25.35	0.07	-0.750			
0.1012	6479.91	3.9820	3.9821	-0.7320	25.35	0.07	-0.750			
0.1034	6620.34	3.9790	3.9790	-0.7335	25.36	0.08	-0.750			
0.1056	6760.15	3.9760	3.9759	-0.7356	25.36	0.08	-0.750			
0.1078	6901.94	3.9730	3.9730	-0.7364	25.37	0.09	-0.750			
0.1101	7045.16	3.9700	3.9700	-0.7375	25.37	0.09	-0.750			
0.1123	7187.75	3.9670	3.9670	-0.7386	25.38	0.10	-0.750			
0.1145	7328.13	3.9640	3.9640	-0.7382	25.38	0.10	-0.750			
0.1167	7468.83	3.9610	3.9610	-0.7377	25.39	0.11	-0.750			
0.1189	7609.93	3.9580	3.9580	-0.7405	25.39	0.11	-0.750			
0.1211	7752.49	3.9550	3.9550	-0.7407	25.39	0.11	-0.750			
0.1234	7896.57	3.9520	3.9520	-0.7484	25.40	0.12	-0.750			
0.1256	8040.72	3.9490	3.9491	-0.7498	25.40	0.12	-0.750			
0.1279	8184.61	3.9460	3.9459	-0.7500	25.40	0.12	-0.750			
0.1301	8328.22	3.9430	3.9430	-0.7531	25.41	0.13	-0.750			
0.1324	8473.06	3.9400	3.9400	-0.7551	25.41	0.13	-0.750			
0.1347	8619.42	3.9370	3.9369	-0.7604	25.41	0.13	-0.750			
0.1370	8765.99	3.9340	3.9340	-0.7611	25.42	0.14	-0.750			
0.1392	8911.33	3.9310	3.9309	-0.7610	25.42	0.14	-0.750			
0.1415	9058.24	3.9280	3.9280	-0.7622	25.43	0.15	-0.750			
0.1438	9204.29	3.9250	3.9250	-0.7652	25.43	0.15	-0.750			
0.1461	9351.41	3.9220	3.9220	-0.7638	25.43	0.15	-0.750			
0.1484	9499.76	3.9190	3.9190	-0.7661	25.44	0.16	-0.750			
0.1507	9646.24	3.9160	3.9162	-0.7646	25.44	0.16	-0.750			
0.1530	9792.80	3.9130	3.9130	-0.7653	25.44	0.16	-0.750			
0.1553	9938.91	3.9100	3.9100	-0.7700	25.45	0.17	-0.750			
0.1576	10087.40	3.9070	3.9069	-0.7715	25.45	0.17	-0.750			
0.1599	10236.77	3.9040	3.9040	-0.7753	25.46	0.18	-0.750			
0.1623	10386.55	3.9010	3.9010	-0.7751	25.46	0.18	-0.750			
0.1646	10535.41	3.8980	3.8980	-0.7771	25.46	0.18	-0.750			
0.1670	10684.96	3.8950	3.8950	-0.7736	25.47	0.19	-0.750			
0.1693	10832.68	3.8920	3.8919	-0.7748	25.47	0.19	-0.750			
0.1716	10980.68	3.8890	3.8890	-0.7759	25.47	0.19	-0.750			
0.1739	11131.29	3.8860	3.8860	-0.7823	25.48	0.20	-0.750			
0.1763	11281.61	3.8830	3.8832	-0.7814	25.48	0.20	-0.750			
0.1786	11432.14	3.8800	3.8799	-0.7848	25.48	0.20	-0.750			
0.1810	11582.78	3.8770	3.8770	-0.7832	25.49	0.21	-0.750			
0.1833	11732.67	3.8740	3.8741	-0.7776	25.49	0.21	-0.750			
0.1857	11883.98	3.8710	3.8710	-0.7814	25.50	0.22	-0.750			
0.1880	12033.35	3.8680	3.8682	-0.7804	25.50	0.22	-0.750			
0.1904	12183.13	3.8650	3.8650	-0.7790	25.50	0.22	-0.750			
0.1927	12333.52	3.8620	3.8619	-0.7793	25.51	0.23	-0.750			
0.1950	12482.11	3.8590	3.8590	-0.7773	25.51	0.23	-0.750			
0.1974	12631.55	3.8560	3.8560	-0.7807	25.51	0.23	-0.750			
0.1997	12781.36	3.8530	3.8530	-0.7805	25.52	0.24	-0.750			
0.2020	12931.04	3.8500	3.8499	-0.7798	25.52	0.24	-0.750			
0.2044	13080.09	3.8470	3.8470	-0.7811	25.53	0.25	-0.750			
0.2067	13231.12	3.8440	3.8440	-0.7815	25.53	0.25	-0.750			
0.2091	13381.59	3.8410	3.8410	-0.7784	25.53	0.25	-0.750			
0.2114	13531.45	3.8380	3.8380	-0.7748	25.54	0.26	-0.750			
0.2137	13679.44	3.8350	3.8351	-0.7717	25.54	0.26	-0.750			
0.2161	13827.35	3.8320	3.8321	-0.7698	25.54	0.26	-0.750			
0.2184	13974.50	3.8290	3.8289	-0.7676	25.54	0.26	-0.750			
0.2206	14121.11	3.8260	3.8260	-0.7651	25.55	0.27	-0.750			
0.2230	14268.96	3.8230	3.8230	-0.7646	25.55	0.27	-0.750			
0.2253	14416.26	3.8200	3.8200	-0.7619	25.55	0.27	-0.750			
0.2275	14562.47	3.8170	3.8170	-0.7544	25.55	0.27	-0.750			
0.2298	14706.27	3.8140	3.8140	-0.7480	25.55	0.27	-0.750			
0.2320	14849.55	3.8110	3.8110	-0.7457	25.56	0.28	-0.750			
0.2343	14992.29	3.8080	3.8080	-0.7412	25.56	0.28	-0.750			
0.2365	15134.24	3.8050	3.8049	-0.7361	25.56	0.28	-0.750			
0.2387	15274.85	3.8020	3.8021	-0.7341	25.56	0.28	-0.750			
0.2409	15415.33	3.7990	3.7990	-0.7320	25.56	0.28	-0.750			
0.2430	15554.69	3.7960	3.7960	-0.7336	25.57	0.29	-0.750			
0.2452	15695.40	3.7930	3.7929	-0.7222	25.57	0.29	-0.750			
0.2474	15835.92	3.7900	3.7900	-0.7220	25.58	0.30	-0.750			
0.2496	15974.07	3.7870	3.7870	-0.7157	25.58	0.30	-0.750			
0.2517	16110.70	3.7840	3.7838	-0.7093	25.58	0.30	-0.750			
0.2538	16243.98	3.7810	3.7810	-0.7058	25.59	0.31	-0.750			
0.2559	16378.96	3.7780	3.7780	-0.7080	25.59	0.31	-0.750			
0.2580	16514.38	3.7750	3.7750	-0.7078	25.59	0.31	-0.750			
0.2602	16653.60	3.7720	3.7720	-0.7123	25.60	0.32	-0.750			
0.2623	16790.21	3.7690	3.7690	-0.7103	25.60	0.32	-0.750			
0.2645	16926.78	3.7660	3.7660	-0.7104	25.60	0.32	-0.750			
0.2666	17062.58	3.7630	3.7630	-0.7118	25.60	0.32	-0.750			
0.2687	17197.73	3.7600	3.7599	-0.7170	25.60	0.32	-0.750			
0.2709	17335.33	3.7570	3.7570	-0.7201	25.60	0.32	-0.750			
0.2730	17474.92	3.7540	3.7540	-0.7262	25.60	0.32	-0.750			
0.2752	17615.02	3.7510	3.7511	-0.7298	25.60	0.32	-0.750			
0.2774	17755.66	3.7480	3.7480	-0.7379	25.60	0.32	-0.750			
0.2796	17896.37	3.7450	3.7449	-0.7469	25.60	0.32	-0.750			
0.2819	18040.35	3.7420	3.7420	-0.7572	25.60	0.32	-0.750			
0.2842	18186.18	3.7390	3.7390	-0.7654	25.60	0.32	-0.750			
0.2865	18336.44	3.7360	3.7360	-0.7788	25.60	0.32	-0.750			
0.2889	18486.84	3.7330	3.7331	-0.7877	25.60	0.32	-0.750			
0.2912	18638.50	3.7300	3.7300	-0.7987	25.60	0.32	-0.750			
0.2936	18791.49	3.7270	3.7270	-0.8093	25.60	0.32	-0.750			
0.2960	18946.44	3.7240	3.7240	-0.8199	25.61	0.33	-0.750			
0.2985	19106.27	3.7210	3.7209	-0.8341	25.61	0.33	-0.750			
0.3011	19268.47	3.7180	3.7181	-0.8495	25.61	0.33	-0.750			
0.3036	19431.78	3.7150	3.7150	-0.8663	25.61	0.33	-0.750			
0.3063	19600.53	3.7120	3.7120	-0.8758	25.61	0.33	-0.750			
0.3089	19769.49	3.7090	3.7089	-0.8896	25.60	0.32	-0.750			
0.3116	19940.94	3.7060	3.7060	-0.9029	25.60	0.32	-0.750			
0.3143	20115.86	3.7030	3.7029	-0.9189	25.60	0.32	-0.750			
0.3171	20294.33	3.7000	3.7000	-0.9394	25.60	0.32	-0.750			
0.3199	20476.05	3.6970	3.6970	-0.9526	25.59	0.31	-0.750			
0.3228	20659.99	3.6940	3.6939	-0.9671	25.59	0.31	-0.750			
0.3258	20849.07	3.6910	3.6911	-0.9849	25.59	0.31	-0.750			
0.3287	21037.77	3.6880	3.6880	-0.9985	25.59	0.31	-0.750			
0.3317	21230.64	3.6850	3.6850	-1.0165	25.59	0.31	-0.750			
0.3348	21427.06	3.6820	3.6820	-1.0306	25.58	0.30	-0.750			
0.3379	21627.59	3.6790	3.6790	-1.0498	25.58	0.30	-0.750			
0.3411	21830.85	3.6760	3.6760	-1.0726	25.58	0.30	-0.750			
0.3444	22039.34	3.6730	3.6730	-1.0897	25.57	0.29	-0.750			
0.3477	22250.39	3.6700	3.6699	-1.1064	25.56	0.28	-0.750			
0.3510	22463.10	3.6670	3.6672	-1.1284	25.56	0.28	-0.750			
0.3544	22682.24	3.6640	3.6640	-1.1441	25.55	0.27	-0.750			
0.3579	22904.36	3.6610	3.6609	-1.1613	25.55	0.27	-0.750			
0.3614	23126.47	3.6580	3.6580	-1.1860	25.54	0.26	-0.750			
0.3650	23357.05	3.6550	3.6549	-1.2084	25.54	0.26	-0.750			
0.3686	23591.49	3.6520	3.6519	-1.2250	25.53	0.25	-0.750			
0.3723	23829.12	3.6490	3.6490	-1.2410	25.53	0.25	-0.750			
0.3761	24068.09	3.6460	3.6463	-1.2733	25.52	0.24	-0.750			
0.3800	24318.31	3.6430	3.6429	-1.2934	25.51	0.23	-0.750			
0.3839	24567.56	3.6400	3.6399	-1.3124	25.51	0.23	-0.750			
0.3878	24819.87	3.6370	3.6374	-1.3364	25.50	0.22	-0.750			
0.3919	25080.14	3.6340	3.6339	-1.3642	25.49	0.21	-0.750			
0.3960	25344.74	3.6310	3.6309	-1.3844	25.49	0.21	-0.750			
0.4002	25610.61	3.6280	3.6281	-1.4062	25.48	0.20	-0.750			
0.4044	25882.65	3.6250	3.6250	-1.4434	25.47	0.19	-0.750			
0.4088	26163.23	3.6220	3.6220	-1.4680	25.47	0.19	-0.750			
0.4132	26445.88	3.6190	3.6191	-1.4974	25.46	0.18	-0.750			
0.4177	26735.60	3.6160	3.6159	-1.5324	25.45	0.17	-0.750			
0.4224	27036.27	3.6130	3.6131	-1.5610	25.44	0.16	-0.750			
0.4272	27338.06	3.6100	3.6101	-1.5988	25.44	0.16	-0.750	0.383	0.562	
0.4320	27648.32	3.6070	3.6070	-1.6266	25.44	0.16	-0.750			
0.4369	27961.91	3.6040	3.6039	-1.6534	25.44	0.16	-0.750			
0.4419	28282.40	3.6010	3.6010	-1.6734	25.43	0.15	-0.750			
0.4470	28607.07	3.5980	3.5978	-1.7201	25.43	0.15	-0.750			
0.4522	28939.04	3.5950	3.5950	-1.7469	25.42	0.14	-0.750			
0.4575	29278.89	3.5920	3.5920	-1.7845	25.42	0.14	-0.750			
0.4629	29623.82	3.5890	3.5891	-1.8169	25.42	0.14	-0.750			
0.4684	29979.75	3.5860	3.5860	-1.8537	25.41	0.13	-0.750			
0.4741	30340.83	3.5830	3.5830	-1.8849	25.40	0.12	-0.750			
0.4798	30704.69	3.5800	3.5801	-1.9172	25.40	0.12	-0.750			
0.4855	31074.93	3.5770	3.5768	-1.9369	25.40	0.12	-0.750			
0.4914	31449.44	3.5740	3.5739	-1.9725	25.40	0.12	-0.750			
0.4974	31831.33	3.5710	3.5710	-1.9921	25.40	0.12	-0.750			
0.5034	32217.12	3.5680	3.5682	-2.0058	25.40	0.12	-0.750			
0.5095	32609.77	3.5650	3.5650	-2.0272	25.39	0.11	-0.750			
0.5156	32996.10	3.5620	3.5621	-2.0433	25.39	0.11	-0.750			
0.5217	33389.91	3.5590	3.5589	-2.0534	25.40	0.12	-0.750			
0.5280	33789.29	3.5560	3.5560	-2.0745	25.40	0.12	-0.750			
0.5342	34187.68	3.5530	3.5530	-2.0687	25.39	0.11	-0.750			
0.5405	34591.25	3.5500	3.5500	-2.0747	25.39	0.11	-0.750			
0.5467	34987.70	3.5470	3.5471	-2.0713	25.40	0.12	-0.750			
0.5529	35382.57	3.5440	3.5439	-2.0644	25.40	0.12	-0.750			
0.5590	35778.82	3.5410	3.5410	-2.0444	25.40	0.12	-0.750			
0.5652	36173.35	3.5380	3.5381	-2.0371	25.40	0.12	-0.750			
0.5714	36566.67	3.5350	3.5350	-2.0200	25.41	0.13	-0.750			
0.5774	36950.49	3.5320	3.5320	-2.0029	25.42	0.14	-0.750			
0.5833	37331.56	3.5290	3.5290	-1.9762	25.42	0.14	-0.750			
0.5892	37706.57	3.5260	3.5259	-1.9402	25.42	0.14	-0.750			
0.5950	38079.88	3.5230	3.5231	-1.9107	25.43	0.15	-0.750			
0.6007	38446.85	3.5200	3.5199	-1.8772	25.44	0.16	-0.750			
0.6063	38802.36	3.5170	3.5169	-1.8429	25.45	0.17	-0.750			
0.6118	39155.72	3.5140	3.5139	-1.8044	25.46	0.18	-0.750			
0.6171	39497.56	3.5110	3.5109	-1.7519	25.47	0.19	-0.750			
0.6223	39829.85	3.5080	3.5082	-1.7073	25.47	0.19	-0.750			
0.6274	40156.60	3.5050	3.5051	-1.6627	25.48	0.20	-0.750			
0.6324	40472.79	3.5020	3.5019	-1.6228	25.50	0.22	-0.750			
0.6372	40778.29	3.4990	3.4991	-1.5788	25.51	0.23	-0.750			
0.6418	41077.22	3.4960	3.4959	-1.5343	25.52	0.24	-0.750			
0.6464	41367.77	3.4930	3.4931	-1.4900	25.53	0.25	-0.750			
0.6508	41651.18	3.4900	3.4902	-1.4514	25.54	0.26	-0.750			
0.6551	41923.86	3.4870	3.4869	-1.4000	25.56	0.28	-0.750			
0.6592	42189.48	3.4840	3.4840	-1.3592	25.57	0.29	-0.750			
0.6632	42444.28	3.4810	3.4811	-1.3143	25.59	0.31	-0.750			
0.6671	42694.74	3.4780	3.4780	-1.2766	25.61	0.33	-0.750			
0.6709	42935.52	3.4750	3.4749	-1.2322	25.63	0.35	-0.750			
0.6745	43165.56	3.4720	3.4720	-1.1902	25.65	0.37	-0.750			
0.6780	43389.54	3.4690	3.4691	-1.1587	25.66	0.38	-0.750			
0.6814	43608.88	3.4660	3.4659	-1.1264	25.67	0.39	-0.750			
0.6847	43821.84	3.4630	3.4629	-1.0898	25.69	0.41	-0.750			
0.6880	44029.33	3.4600	3.4601	-1.0555	25.70	0.42	-0.750			
0.6911	44228.96	3.4570	3.4570	-1.0256	25.71	0.43	-0.750			
0.6941	44423.33	3.4540	3.4540	-0.9883	25.72	0.44	-0.750			
0.6970	44606.54	3.4510	3.4510	-0.9536	25.74	0.46	-0.750			
0.6998	44785.79	3.4480	3.4479	-0.9260	25.75	0.47	-0.750			
0.7025	44960.21	3.4450	3.4450	-0.9002	25.76	0.48	-0.750			
0.7052	45130.89	3.4420	3.4420	-0.8789	25.76	0.48	-0.750			
0.7078	45296.06	3.4390	3.4390	-0.8621	25.77	0.49	-0.750			
0.7103	45458.32	3.4360	3.4360	-0.8473	25.78	0.50	-0.750			
0.7128	45620.28	3.4330	3.4330	-0.8398	25.79	0.51	-0.750			
0.7153	45778.40	3.4300	3.4300	-0.8348	25.80	0.52	-0.750			
0.7178	45937.53	3.4270	3.4270	-0.8388	25.81	0.53	-0.750			
0.7203	46099.47	3.4240	3.4239	-0.8438	25.82	0.54	-0.750			
0.7228	46261.32	3.4210	3.4210	-0.8485	25.83	0.55	-0.750			
0.7254	46424.15	3.4180	3.4182	-0.8545	25.84	0.56	-0.750			
0.7280	46589.70	3.4150	3.4150	-0.8636	25.85	0.57	-0.750			
0.7306	46756.73	3.4120	3.4120	-0.8695	25.86	0.58	-0.750			
0.7332	46924.97	3.4090	3.4090	-0.8657	25.86	0.58	-0.750			
0.7358	47092.38	3.4060	3.4060	-0.8686	25.87	0.59	-0.750			
0.7384	47259.78	3.4030	3.4031	-0.8624	25.88	0.60	-0.750			
0.7410	47425.35	3.4000	3.3999	-0.8537	25.89	0.61	-0.750			
0.7436	47588.62	3.3970	3.3970	-0.8430	25.89	0.61	-0.750			
0.7461	47750.64	3.3940	3.3940	-0.8230	25.90	0.62	-0.750			
0.7486	47908.15	3.3910	3.3910	-0.8082	25.91	0.63	-0.750			
0.7510	48062.42	3.3880	3.3881	-0.7883	25.91	0.63	-0.750			
0.7533	48210.44	3.3850	3.3850	-0.7647	25.92	0.64	-0.750			
0.7555	48355.11	3.3820	3.3820	-0.7453	25.93	0.65	-0.750			
0.7577	48495.83	3.3790	3.3790	-0.7222	25.93	0.65	-0.750			
0.7599	48633.49	3.3760	3.3760	-0.7028	25.94	0.66	-0.750			
0.7620	48766.59	3.3730	3.3729	-0.6815	25.95	0.67	-0.750			
0.7640	48894.36	3.3700	3.3700	-0.6579	25.95	0.67	-0.750			
0.7659	49019.11	3.3670	3.3670	-0.6384	25.96	0.68	-0.750			
0.7678	49139.28	3.3640	3.3640	-0.6169	25.96	0.68	-0.750			
0.7696	49255.35	3.3610	3.3610	-0.5967	25.97	0.69	-0.750			
0.7714	49369.03	3.3580	3.3580	-0.5802	25.97	0.69	-0.750			
0.7731	49478.12	3.3550	3.3549	-0.5616	25.97	0.69	-0.750			
0.7747	49583.81	3.3520	3.3520	-0.5448	25.98	0.70	-0.750			
0.7763	49686.24	3.3490	3.3490	-0.5280	25.98	0.70	-0.750			
0.7779	49786.02	3.3460	3.3460	-0.5125	25.99	0.71	-0.750			
0.7794	49883.02	3.3430	3.3430	-0.4983	26.00	0.72	-0.750			
0.7809	49977.63	3.3400	3.3400	-0.4811	26.00	0.72	-0.750			
0.7823	50068.15	3.3370	3.3370	-0.4687	26.01	0.73	-0.750			
0.7837	50156.26	3.3340	3.3340	-0.4552	26.01	0.73	-0.750			
0.7850	50242.48	3.3310	3.3310	-0.4420	26.02	0.74	-0.750			
0.7863	50325.73	3.3280	3.3279	-0.4312	26.02	0.74	-0.750			
0.7876	50407.62	3.3250	3.3250	-0.4197	26.03	0.75	-0.750			
0.7889	50487.06	3.3220	3.3220	-0.4084	26.03	0.75	-0.750			
0.7901	50564.72	3.3190	3.3190	-0.3986	26.04	0.76	-0.750			
0.7912	50639.05	3.3160	3.3161	-0.3863	26.05	0.77	-0.750			
0.7924	50712.53	3.3130	3.3129	-0.3793	26.05	0.77	-0.750			
0.7935	50784.54	3.3100	3.3100	-0.3711	26.06	0.78	-0.750			
0.7946	50854.39	3.3070	3.3071	-0.3632	26.06	0.78	-0.750			
0.7957	50924.04	3.3040	3.3039	-0.3574	26.07	0.79	-0.750			
0.7968	50992.03	3.3010	3.3010	-0.3499	26.07	0.79	-0.750			
0.7978	51058.29	3.2980	3.2980	-0.3415	26.08	0.80	-0.750			
0.7988	51123.26	3.2950	3.2950	-0.3339	26.08	0.80	-0.750			
0.7998	51186.83	3.2920	3.2920	-0.3261	26.09	0.81	-0.750			
0.8008	51248.53	3.2890	3.2891	-0.3198	26.09	0.81	-0.750			
0.8017	51308.58	3.2860	3.2861	-0.3122	26.10	0.82	-0.750			
0.8026	51367.93	3.2830	3.2829	-0.3077	26.10	0.82	-0.750			
0.8035	51426.39	3.2800	3.2800	-0.3027	26.10	0.82	-0.750			
0.8044	51484.66	3.2770	3.2770	-0.2952	26.11	0.83	-0.750			
0.8053	51540.55	3.2740	3.2741	-0.2891	26.11	0.83	-0.750			
0.8062	51595.53	3.2710	3.2711	-0.2839	26.12	0.84	-0.750			
0.8070	51649.09	3.2680	3.2679	-0.2788	26.12	0.84	-0.750			
0.8078	51701.74	3.2650	3.2649	-0.2734	26.13	0.85	-0.750			
0.8086	51753.52	3.2620	3.2620	-0.2693	26.13	0.85	-0.750			
0.8095	51805.18	3.2590	3.2591	-0.2656	26.13	0.85	-0.750			
0.8103	51856.19	3.2560	3.2560	-0.2624	26.14	0.86	-0.750			
0.8110	51905.88	3.2530	3.2530	-0.2574	26.14	0.86	-0.750			
0.8118	51955.15	3.2500	3.2500	-0.2522	26.14	0.86	-0.750			
0.8125	52002.65	3.2470	3.2470	-0.2482	26.15	0.87	-0.750			
0.8133	52050.12	3.2440	3.2441	-0.2445	26.15	0.87	-0.750			
0.8140	52096.45	3.2410	3.2410	-0.2405	26.16	0.88	-0.750			
0.8147	52141.94	3.2380	3.2380	-0.2375	26.16	0.88	-0.750			
0.8154	52186.86	3.2350	3.2351	-0.2343	26.17	0.89	-0.750			
0.8161	52232.07	3.2320	3.2320	-0.2316	26.18	0.90	-0.750			
0.8168	52276.74	3.2290	3.2289	-0.2291	26.18	0.90	-0.750			
0.8175	52320.14	3.2260	3.2260	-0.2245	26.19	0.91	-0.750			
0.8182	52362.91	3.2230	3.2231	-0.2210	26.19	0.91	-0.750			
0.8188	52405.10	3.2200	3.2200	-0.2187	26.20	0.92	-0.750			
0.8195	52446.43	3.2170	3.2171	-0.2156	26.20	0.92	-0.750			
0.8201	52487.46	3.2140	3.2140	-0.2118	26.21	0.93	-0.750			
0.8207	52527.92	3.2110	3.2108	-0.2096	26.21	0.93	-0.750			
0.8214	52568.29	3.2080	3.2080	-0.2073	26.22	0.94	-0.750			
0.8220	52607.91	3.2050	3.2051	-0.2047	26.22	0.94	-0.750			
0.8226	52647.04	3.2020	3.2020	-0.2017	26.23	0.95	-0.750			
0.8232	52685.27	3.1990	3.1990	-0.1997	26.23	0.95	-0.750			
0.8238	52723.04	3.1960	3.1960	-0.1968	26.24	0.96	-0.750			
0.8244	52760.65	3.1930	3.1930	-0.1944	26.24	0.96	-0.750			
0.8250	52797.88	3.1900	3.1900	-0.1929	26.25	0.97	-0.750			
0.8255	52834.70	3.1870	3.1871	-0.1906	26.25	0.97	-0.750			
0.8261	52871.07	3.1840	3.1840	-0.1883	26.26	0.98	-0.750			
0.8267	52907.07	3.1810	3.1809	-0.1859	26.26	0.98	-0.750			
0.8272	52942.31	3.1780	3.1780	-0.1834	26.27	0.99	-0.750			
0.8278	52977.34	3.1750	3.1751	-0.1815	26.27	0.99	-0.750			
0.8283	53012.14	3.1720	3.1720	-0.1796	26.28	1.00	-0.750			
0.8288	53046.27	3.1690	3.1689	-0.1780	26.29	1.01	-0.750			
0.8294	53080.14	3.1660	3.1660	-0.1758	26.29	1.01	-0.750			
0.8299	53113.76	3.1630	3.1630	-0.1744	26.30	1.02	-0.750			
0.8304	53147.31	3.1600	3.1599	-0.1721	26.30	1.02	-0.750			
0.8309	53180.25	3.1570	3.1570	-0.1705	26.31	1.03	-0.750			
0.8314	53212.61	3.1540	3.1541	-0.1685	26.31	1.03	-0.750			
0.8319	53244.79	3.1510	3.1510	-0.1667	26.32	1.04	-0.750			
0.8324	53276.49	3.1480	3.1479	-0.1656	26.32	1.04	-0.750			
0.8329	53307.82	3.1450	3.1450	-0.1640	26.33	1.05	-0.750			
0.8334	53339.19	3.1420	3.1420	-0.1634	26.33	1.05	-0.750			
0.8339	53370.71	3.1390	3.1390	-0.1618	26.34	1.06	-0.750			
0.8344	53402.12	3.1360	3.1360	-0.1604	26.34	1.06	-0.750			
0.8349	53432.86	3.1330	3.1330	-0.1583	26.35	1.07	-0.750			
0.8354	53463.03	3.1300	3.1300	-0.1565	26.35	1.07	-0.750			
0.8358	53492.58	3.1270	3.1270	-0.1554	26.36	1.08	-0.750			
0.8363	53522.05	3.1240	3.1239	-0.1536	26.36	1.08	-0.750			
0.8367	53551.21	3.1210	3.1210	-0.1522	26.37	1.09	-0.750			
0.8372	53580.54	3.1180	3.1180	-0.1507	26.37	1.09	-0.750			
0.8376	53609.56	3.1150	3.1151	-0.1496	26.38	1.10	-0.750			
0.8381	53638.40	3.1120	3.1121	-0.1484	26.38	1.10	-0.750			
0.8385	53666.52	3.1090	3.1090	-0.1476	26.39	1.11	-0.750			
0.8390	53694.65	3.1060	3.1059	-0.1461	26.39	1.11	-0.750			
0.8394	53722.46	3.1030	3.1029	-0.1444	26.40	1.12	-0.750			
0.8398	53750.10	3.1000	3.1000	-0.1435	26.41	1.13	-0.750			
0.8403	53777.67	3.0970	3.0971	-0.1423	26.41	1.13	-0.750			
0.8407	53804.90	3.0940	3.0940	-0.1419	26.42	1.14	-0.750			
0.8411	53832.03	3.0910	3.0910	-0.1404	26.42	1.14	-0.750			
0.8415	53858.89	3.0880	3.0880	-0.1393	26.43	1.15	-0.750			
0.8420	53885.37	3.0850	3.0849	-0.1380	26.44	1.16	-0.750			
0.8424	53911.87	3.0820	3.0821	-0.1374	26.44	1.16	-0.750			
0.8428	53938.27	3.0790	3.0789	-0.1365	26.45	1.17	-0.750			
0.8432	53964.35	3.0760	3.0760	-0.1352	26.45	1.17	-0.750			
0.8436	53990.15	3.0730	3.0730	-0.1341	26.46	1.18	-0.750			
0.8440	54015.62	3.0700	3.0700	-0.1329	26.46	1.18	-0.750			
0.8444	54041.24	3.0670	3.0669	-0.1323	26.47	1.19	-0.750			
0.8448	54066.52	3.0640	3.0640	-0.1314	26.48	1.20	-0.750			
0.8452	54091.59	3.0610	3.0610	-0.1306	26.48	1.20	-0.750			
0.8456	54116.44	3.0580	3.0580	-0.1296	26.49	1.21	-0.750			
0.8460	54141.46	3.0550	3.0550	-0.1286	26.49	1.21	-0.750			
0.8463	54165.96	3.0520	3.0520	-0.1278	26.50	1.22	-0.750			
0.8467	54190.37	3.0490	3.0491	-0.1268	26.50	1.22	-0.750			
0.8471	54214.68	3.0460	3.0460	-0.1257	26.51	1.23	-0.750			
0.8475	54238.66	3.0430	3.0430	-0.1248	26.51	1.23	-0.750			
0.8479	54262.49	3.0400	3.0401	-0.1239	26.52	1.24	-0.750			
0.8482	54286.11	3.0370	3.0371	-0.1230	26.52	1.24	-0.750			
0.8486	54309.66	3.0340	3.0338	-0.1223	26.53	1.25	-0.750			
0.8490	54333.13	3.0310	3.0310	-0.1218	26.53	1.25	-0.750			
0.8493	54356.28	3.0280	3.0280	-0.1208	26.53	1.25	-0.750			
0.8497	54379.48	3.0250	3.0250	-0.1203	26.54	1.26	-0.750			
0.8500	54402.62	3.0220	3.0221	-0.1200	26.54	1.26	-0.750			
0.8504	54425.74	3.0190	3.0190	-0.1187	26.55	1.27	-0.750			
0.8508	54448.55	3.0160	3.0159	-0.1178	26.55	1.27	-0.750			
0.8511	54471.15	3.0130	3.0130	-0.1158	26.56	1.28	-0.750			
0.8515	54493.57	3.0100	3.0100	-0.1143	26.56	1.28	-0.750			
0.8518	54515.30	3.0070	3.0070	-0.1120	26.57	1.29	-0.750			
0.8521	54536.76	3.0040	3.0041	-0.1090	26.57	1.29	-0.750			
0.8525	54557.39	3.0010	3.0010	-0.1060	26.58	1.30	-0.751			
