Ah_balance (normalized)	Ah_balance (mAh)	Voltage - fit (V)	Voltage -  interpolate (V)	dQ/dV (1/V)	Temperature (°C)	Temperature - diff (°C)	Current (C)	R_DC 0ms (mOhm)	R_DC 50ms (mOhm)	R_DC 50 ms PEC (mOhm)
0.0523	3348.07	4.1970	4.1970	0.7582	26.59	0.64	0.750			
0.0546	3492.63	4.1940	4.1941	0.7604	26.58	0.63	0.750			
0.0569	3639.96	4.1910	4.1911	0.7682	26.58	0.63	0.750			
0.0592	3788.73	4.1880	4.1880	0.7708	26.57	0.62	0.750			
0.0615	3937.52	4.1850	4.1850	0.7734	26.57	0.62	0.750			
0.0639	4086.93	4.1820	4.1821	0.7739	26.57	0.62	0.750			
0.0662	4235.27	4.1790	4.1790	0.7771	26.56	0.61	0.750			
0.0685	4384.94	4.1760	4.1760	0.7759	26.56	0.61	0.750			
0.0708	4532.77	4.1730	4.1730	0.7763	26.56	0.61	0.750			
0.0732	4683.76	4.1700	4.1699	0.7730	26.56	0.61	0.750			
0.0755	4832.42	4.1670	4.1671	0.7765	26.57	0.62	0.750			
0.0778	4981.04	4.1640	4.1641	0.7728	26.57	0.62	0.750			
0.0801	5128.65	4.1610	4.1610	0.7753	26.57	0.62	0.750			
0.0825	5276.91	4.1580	4.1580	0.7743	26.57	0.62	0.750			
0.0848	5427.73	4.1550	4.1550	0.7710	26.57	0.62	0.750			
0.0871	5573.81	4.1520	4.1520	0.7733	26.57	0.62	0.750			
0.0894	5723.28	4.1490	4.1491	0.7862	26.58	0.63	0.750			
0.0918	5873.10	4.1460	4.1460	0.7866	26.58	0.63	0.750			
0.0941	6025.46	4.1430	4.1428	0.7895	26.58	0.63	0.750			
0.0965	6177.02	4.1400	4.1403	0.7911	26.58	0.63	0.750			
0.0989	6329.62	4.1370	4.1370	0.7967	26.58	0.63	0.750			
0.1013	6484.26	4.1340	4.1338	0.7933	26.57	0.62	0.750			
0.1037	6633.92	4.1310	4.1310	0.7857	26.57	0.62	0.750			
0.1060	6784.43	4.1280	4.1279	0.7879	26.57	0.62	0.750			
0.1084	6937.46	4.1250	4.1251	0.7928	26.57	0.62	0.750			
0.1108	7090.16	4.1220	4.1219	0.7912	26.57	0.62	0.750			
0.1131	7241.08	4.1190	4.1190	0.7913	26.58	0.63	0.750			
0.1155	7391.50	4.1160	4.1161	0.7901	26.58	0.63	0.750			
0.1179	7545.40	4.1130	4.1130	0.8005	26.58	0.63	0.750			
0.1203	7697.96	4.1100	4.1100	0.8004	26.58	0.63	0.750			
0.1227	7854.44	4.1070	4.1070	0.7967	26.58	0.63	0.750			
0.1251	8008.21	4.1040	4.1040	0.8005	26.58	0.63	0.750			
0.1275	8160.91	4.1010	4.1010	0.8053	26.58	0.63	0.750			
0.1299	8314.43	4.0980	4.0982	0.8039	26.58	0.63	0.750			
0.1323	8468.97	4.0950	4.0951	0.8069	26.58	0.63	0.750			
0.1347	8623.81	4.0920	4.0920	0.8078	26.58	0.63	0.750			
0.1372	8780.36	4.0890	4.0890	0.8102	26.58	0.63	0.750			
0.1397	8938.57	4.0860	4.0860	0.8142	26.58	0.63	0.750			
0.1421	9091.66	4.0830	4.0830	0.8149	26.58	0.63	0.750			
0.1445	9247.67	4.0800	4.0799	0.8135	26.58	0.63	0.750			
0.1470	9404.98	4.0770	4.0770	0.8194	26.58	0.63	0.750			
0.1494	9562.71	4.0740	4.0741	0.8233	26.58	0.63	0.750			
0.1519	9722.70	4.0710	4.0710	0.8290	26.58	0.63	0.750			
0.1544	9881.62	4.0680	4.0681	0.8322	26.58	0.63	0.750			
0.1569	10041.36	4.0650	4.0650	0.8319	26.58	0.63	0.750			
0.1594	10202.32	4.0620	4.0619	0.8258	26.58	0.63	0.750			
0.1619	10361.23	4.0590	4.0590	0.8302	26.58	0.63	0.750			
0.1643	10518.24	4.0560	4.0561	0.8319	26.59	0.64	0.750			
0.1668	10677.77	4.0530	4.0531	0.8388	26.59	0.64	0.750			
0.1694	10838.58	4.0500	4.0500	0.8449	26.59	0.64	0.750			
0.1719	11003.75	4.0470	4.0470	0.8434	26.59	0.64	0.750			
0.1745	11167.19	4.0440	4.0441	0.8518	26.59	0.64	0.750			
0.1770	11330.95	4.0410	4.0411	0.8547	26.60	0.65	0.750			
0.1796	11494.49	4.0380	4.0382	0.8546	26.60	0.65	0.750			
0.1821	11657.20	4.0350	4.0350	0.8578	26.60	0.65	0.750			
0.1847	11823.43	4.0320	4.0320	0.8563	26.60	0.65	0.750			
0.1873	11987.40	4.0290	4.0291	0.8654	26.60	0.65	0.750			
0.1899	12155.61	4.0260	4.0261	0.8689	26.60	0.65	0.750			
0.1925	12322.28	4.0230	4.0230	0.8677	26.60	0.65	0.750			
0.1952	12489.82	4.0200	4.0200	0.8730	26.60	0.65	0.750			
0.1978	12657.51	4.0170	4.0172	0.8706	26.61	0.66	0.750			
0.2004	12824.34	4.0140	4.0140	0.8746	26.61	0.66	0.750			
0.2030	12993.26	4.0110	4.0111	0.8760	26.62	0.67	0.750			
0.2057	13161.79	4.0080	4.0077	0.8770	26.62	0.67	0.750			
0.2083	13332.89	4.0050	4.0049	0.8790	26.62	0.67	0.750			
0.2109	13500.26	4.0020	4.0021	0.8789	26.62	0.67	0.750			
0.2136	13668.57	3.9990	3.9990	0.8814	26.61	0.66	0.750			
0.2162	13838.39	3.9960	3.9960	0.8841	26.61	0.66	0.750			
0.2188	14005.55	3.9930	3.9929	0.8834	26.61	0.66	0.750			
0.2215	14176.51	3.9900	3.9901	0.8882	26.61	0.66	0.750			
0.2242	14349.14	3.9870	3.9870	0.8959	26.61	0.66	0.750			
0.2269	14521.78	3.9840	3.9840	0.8985	26.62	0.67	0.750			
0.2296	14693.04	3.9810	3.9810	0.8998	26.62	0.67	0.750			
0.2323	14867.39	3.9780	3.9780	0.9030	26.62	0.67	0.750			
0.2350	15041.18	3.9750	3.9750	0.9006	26.62	0.67	0.750			
0.2377	15213.25	3.9720	3.9720	0.9018	26.62	0.67	0.750			
0.2404	15385.81	3.9690	3.9691	0.9121	26.62	0.67	0.750			
0.2431	15561.08	3.9660	3.9657	0.9144	26.62	0.67	0.750			
0.2459	15738.47	3.9630	3.9630	0.9137	26.62	0.67	0.750			
0.2486	15912.79	3.9600	3.9602	0.9227	26.63	0.68	0.750			
0.2515	16092.99	3.9570	3.9570	0.9321	26.63	0.68	0.750			
0.2543	16274.27	3.9540	3.9539	0.9263	26.64	0.69	0.750			
0.2570	16449.57	3.9510	3.9510	0.9192	26.64	0.69	0.750			
0.2598	16624.68	3.9480	3.9482	0.9163	26.64	0.69	0.750			
0.2625	16801.48	3.9450	3.9450	0.9211	26.64	0.69	0.750			
0.2653	16977.00	3.9420	3.9419	0.9261	26.64	0.69	0.750			
0.2680	17152.29	3.9390	3.9389	0.9238	26.64	0.69	0.750			
0.2709	17334.81	3.9360	3.9360	0.9244	26.64	0.69	0.750			
0.2736	17512.17	3.9330	3.9331	0.9312	26.64	0.69	0.750			
0.2764	17690.32	3.9300	3.9300	0.9322	26.63	0.68	0.750			
0.2792	17869.42	3.9270	3.9271	0.9338	26.63	0.68	0.750			
0.2820	18046.03	3.9240	3.9239	0.9328	26.63	0.68	0.750			
0.2848	18226.56	3.9210	3.9211	0.9277	26.63	0.68	0.750			
0.2876	18404.58	3.9180	3.9181	0.9396	26.64	0.69	0.750			
0.2904	18585.31	3.9150	3.9150	0.9459	26.64	0.69	0.750			
0.2932	18766.46	3.9120	3.9118	0.9446	26.64	0.69	0.750			
0.2961	18949.27	3.9090	3.9090	0.9436	26.64	0.69	0.750			
0.2989	19131.13	3.9060	3.9062	0.9469	26.64	0.69	0.750			
0.3018	19315.23	3.9030	3.9030	0.9509	26.63	0.68	0.750			
0.3046	19497.58	3.9000	3.9000	0.9441	26.63	0.68	0.750			
0.3074	19676.53	3.8970	3.8969	0.9419	26.63	0.68	0.750			
0.3103	19856.50	3.8940	3.8941	0.9416	26.63	0.68	0.750			
0.3131	20037.25	3.8910	3.8910	0.9486	26.62	0.67	0.750			
0.3159	20219.61	3.8880	3.8880	0.9616	26.62	0.67	0.750			
0.3188	20403.88	3.8850	3.8847	0.9674	26.62	0.67	0.750			
0.3217	20590.11	3.8820	3.8820	0.9743	26.62	0.67	0.750			
0.3247	20779.54	3.8790	3.8791	0.9843	26.62	0.67	0.750			
0.3277	20970.95	3.8760	3.8760	0.9892	26.61	0.66	0.750			
0.3306	21158.85	3.8730	3.8729	0.9921	26.61	0.66	0.750			
0.3336	21351.39	3.8700	3.8700	0.9947	26.60	0.65	0.750			
0.3366	21541.87	3.8670	3.8670	1.0014	26.60	0.65	0.750			
0.3396	21735.38	3.8640	3.8639	1.0114	26.59	0.64	0.750			
0.3426	21928.79	3.8610	3.8610	1.0160	26.58	0.63	0.750			
0.3457	22126.80	3.8580	3.8580	1.0235	26.58	0.63	0.750			
0.3488	22325.61	3.8550	3.8550	1.0287	26.57	0.62	0.750			
0.3519	22522.55	3.8520	3.8520	1.0323	26.57	0.62	0.750			
0.3550	22722.40	3.8490	3.8490	1.0401	26.56	0.61	0.750			
0.3581	22919.52	3.8460	3.8460	1.0451	26.56	0.61	0.750			
0.3612	23118.31	3.8430	3.8430	1.0561	26.55	0.60	0.750			
0.3644	23322.49	3.8400	3.8400	1.0720	26.55	0.60	0.750			
0.3677	23530.48	3.8370	3.8369	1.0850	26.54	0.59	0.750			
0.3710	23742.31	3.8340	3.8340	1.0931	26.53	0.58	0.750			
0.3742	23950.86	3.8310	3.8311	1.1055	26.52	0.57	0.750			
0.3776	24163.81	3.8280	3.8280	1.1171	26.51	0.56	0.750			
0.3810	24382.78	3.8250	3.8247	1.1086	26.50	0.55	0.750			
0.3843	24594.59	3.8220	3.8220	1.1094	26.49	0.54	0.750			
0.3876	24807.57	3.8190	3.8192	1.1128	26.48	0.53	0.750			
0.3910	25022.34	3.8160	3.8160	1.1198	26.47	0.52	0.750			
0.3943	25235.05	3.8130	3.8129	1.1110	26.46	0.51	0.750			
0.3976	25447.65	3.8100	3.8100	1.1178	26.45	0.50	0.750			
0.4010	25662.92	3.8070	3.8070	1.1269	26.44	0.49	0.750			
0.4044	25882.80	3.8040	3.8041	1.1388	26.43	0.48	0.750			
0.4078	26100.24	3.8010	3.8010	1.1412	26.41	0.46	0.750			
0.4112	26319.10	3.7980	3.7980	1.1532	26.40	0.45	0.750			
0.4147	26541.97	3.7950	3.7950	1.1675	26.39	0.44	0.750			
0.4183	26769.98	3.7920	3.7919	1.1717	26.38	0.43	0.750			
0.4218	26995.09	3.7890	3.7890	1.1816	26.37	0.42	0.750			
0.4253	27222.36	3.7860	3.7861	1.1957	26.36	0.41	0.750			
0.4289	27452.66	3.7830	3.7830	1.2067	26.35	0.40	0.750			
0.4326	27683.40	3.7800	3.7801	1.2180	26.34	0.39	0.750			
0.4362	27918.89	3.7770	3.7771	1.2340	26.32	0.37	0.750			
0.4399	28155.72	3.7740	3.7740	1.2581	26.31	0.36	0.750			
0.4438	28403.38	3.7710	3.7710	1.2615	26.29	0.34	0.750			
0.4475	28640.39	3.7680	3.7681	1.2939	26.28	0.33	0.750			
0.4514	28888.01	3.7650	3.7650	1.3384	26.26	0.31	0.750			
0.4555	29148.83	3.7620	3.7617	1.3659	26.25	0.30	0.750			
0.4596	29412.87	3.7590	3.7593	1.4033	26.24	0.29	0.750	0.304	0.392	
0.4640	29694.83	3.7560	3.7560	1.4275	26.22	0.27	0.750			
0.4683	29973.09	3.7530	3.7527	1.4643	26.21	0.26	0.750			
0.4728	30257.82	3.7500	3.7501	1.4914	26.20	0.25	0.750			
0.4771	30534.24	3.7470	3.7472	1.5027	26.18	0.23	0.750			
0.4817	30829.48	3.7440	3.7436	1.5335	26.17	0.22	0.750			
0.4863	31126.32	3.7410	3.7410	1.5761	26.15	0.20	0.750			
0.4911	31432.27	3.7380	3.7382	1.6280	26.14	0.19	0.750			
0.4962	31755.59	3.7350	3.7350	1.6789	26.12	0.17	0.750			
0.5013	32080.80	3.7320	3.7318	1.7026	26.11	0.16	0.750			
0.5065	32419.01	3.7290	3.7289	1.7626	26.09	0.14	0.750			
0.5118	32757.06	3.7260	3.7262	1.8136	26.07	0.12	0.750			
0.5172	33103.60	3.7230	3.7230	1.8742	26.05	0.10	0.750			
0.5230	33470.38	3.7200	3.7203	1.9185	26.04	0.09	0.750			
0.5289	33846.81	3.7170	3.7171	1.9799	26.02	0.07	0.750			
0.5349	34235.34	3.7140	3.7138	2.0366	26.00	0.05	0.750			
0.5412	34637.46	3.7110	3.7112	2.1086	25.99	0.04	0.750			
0.5476	35046.60	3.7080	3.7080	2.1879	25.96	0.01	0.750			
0.5543	35472.28	3.7050	3.7048	2.2481	25.94	-0.01	0.750			
0.5610	35904.64	3.7020	3.7021	2.3121	25.91	-0.04	0.750			
0.5682	36366.76	3.6990	3.6992	2.3562	25.89	-0.06	0.750			
0.5754	36824.84	3.6960	3.6959	2.4009	25.88	-0.07	0.750			
0.5826	37283.33	3.6930	3.6932	2.4787	25.86	-0.09	0.750			
0.5899	37753.33	3.6900	3.6898	2.5218	25.83	-0.12	0.750			
0.5977	38250.33	3.6870	3.6869	2.6060	25.81	-0.14	0.750			
0.6056	38760.67	3.6840	3.6842	2.6980	25.80	-0.15	0.750			
0.6139	39292.66	3.6810	3.6811	2.7740	25.78	-0.17	0.750			
0.6223	39826.96	3.6780	3.6779	2.8425	25.76	-0.19	0.750			
0.6310	40382.31	3.6750	3.6752	2.9406	25.75	-0.20	0.750			
0.6399	40956.47	3.6720	3.6719	3.0551	25.73	-0.22	0.750			
0.6492	41547.72	3.6690	3.6691	3.1196	25.72	-0.23	0.750			
0.6589	42167.66	3.6660	3.6662	3.1309	25.71	-0.24	0.750			
0.6684	42777.75	3.6630	3.6630	3.0228	25.70	-0.25	0.750			
0.6774	43355.64	3.6600	3.6598	2.7669	25.70	-0.25	0.750			
0.6852	43851.48	3.6570	3.6574	2.4969	25.70	-0.25	0.750			
0.6919	44279.75	3.6540	3.6542	2.1827	25.70	-0.25	0.750			
0.6979	44666.99	3.6510	3.6510	1.9654	25.70	-0.25	0.750			
0.7032	45005.84	3.6480	3.6479	1.7604	25.70	-0.25	0.750			
0.7083	45328.89	3.6450	3.6451	1.6356	25.70	-0.25	0.750			
0.7130	45630.60	3.6420	3.6422	1.5169	25.70	-0.25	0.750			
0.7173	45907.34	3.6390	3.6389	1.4130	25.70	-0.25	0.750			
0.7212	46157.92	3.6360	3.6360	1.3190	25.70	-0.25	0.750			
0.7250	46398.46	3.6330	3.6330	1.2646	25.70	-0.25	0.750			
0.7286	46627.47	3.6300	3.6300	1.2206	25.70	-0.25	0.750			
0.7321	46855.95	3.6270	3.6271	1.2063	25.70	-0.25	0.750			
0.7357	47085.29	3.6240	3.6241	1.2093	25.70	-0.25	0.750			
0.7393	47316.52	3.6210	3.6210	1.2164	25.70	-0.25	0.750			
0.7430	47552.69	3.6180	3.6180	1.2174	25.70	-0.25	0.750			
0.7466	47784.43	3.6150	3.6150	1.2199	25.70	-0.25	0.750			
0.7504	48025.79	3.6120	3.6120	1.2164	25.70	-0.25	0.750			
0.7541	48261.25	3.6090	3.6091	1.2092	25.70	-0.25	0.750			
0.7577	48492.30	3.6060	3.6060	1.1830	25.70	-0.25	0.750			
0.7612	48714.78	3.6030	3.6032	1.1618	25.70	-0.25	0.750			
0.7645	48931.07	3.6000	3.6000	1.1595	25.70	-0.25	0.750			
0.7680	49149.81	3.5970	3.5968	1.1578	25.70	-0.25	0.750			
0.7714	49367.53	3.5940	3.5941	1.1623	25.70	-0.25	0.750			
0.7749	49593.83	3.5910	3.5910	1.1939	25.70	-0.25	0.750			
0.7785	49826.85	3.5880	3.5882	1.2197	25.70	-0.25	0.750			
0.7822	50061.52	3.5850	3.5850	1.2461	25.70	-0.25	0.750			
0.7859	50299.65	3.5820	3.5821	1.2858	25.70	-0.25	0.750			
0.7899	50554.71	3.5790	3.5790	1.3211	25.71	-0.24	0.750			
0.7939	50811.64	3.5760	3.5757	1.3587	25.71	-0.24	0.750			
0.7980	51074.96	3.5730	3.5731	1.4180	25.71	-0.24	0.750			
0.8024	51353.67	3.5700	3.5702	1.4611	25.71	-0.24	0.750			
0.8069	51641.36	3.5670	3.5669	1.5022	25.71	-0.24	0.750			
0.8114	51929.69	3.5640	3.5641	1.5304	25.71	-0.24	0.750			
0.8161	52229.22	3.5610	3.5612	1.5593	25.71	-0.24	0.750			
0.8208	52532.60	3.5580	3.5580	1.6012	25.71	-0.24	0.750			
0.8257	52844.50	3.5550	3.5548	1.6237	25.72	-0.23	0.750			
0.8306	53159.77	3.5520	3.5520	1.6143	25.72	-0.23	0.750			
0.8356	53477.57	3.5490	3.5488	1.6429	25.72	-0.23	0.750			
0.8405	53792.86	3.5460	3.5461	1.6407	25.72	-0.23	0.750			
0.8454	54106.65	3.5430	3.5431	1.6264	25.72	-0.23	0.750			
0.8503	54416.02	3.5400	3.5403	1.6630	25.73	-0.22	0.750			
0.8551	54727.47	3.5370	3.5373	1.7085	25.73	-0.22	0.750			
0.8604	55063.55	3.5340	3.5327	1.7678	25.74	-0.21	0.750			
0.8661	55429.70	3.5310	3.5310	1.6961	25.75	-0.20	0.750			
0.8716	55779.24	3.5280	3.5279	1.6082	25.76	-0.19	0.750			
0.8767	56106.94	3.5250	3.5254	1.4149	25.78	-0.17	0.750			
0.8807	56367.77	3.5220	3.5221	1.1492	25.79	-0.16	0.750			
0.8835	56542.37	3.5190	3.5189	0.8892	25.80	-0.15	0.750			
0.8853	56661.04	3.5160	3.5155	0.6367	25.81	-0.14	0.750			
0.8864	56731.26	3.5130	3.5127	0.4812	25.82	-0.13	0.750			
0.8876	56803.86	3.5100	3.5099	0.3984	25.83	-0.12	0.750			
0.8886	56870.90	3.5070	3.5070	0.3583	25.83	-0.12	0.750			
0.8896	56935.20	3.5040	3.5041	0.3322	25.84	-0.11	0.750			
0.8906	56995.81	3.5010	3.5010	0.3146	25.84	-0.11	0.750			
0.8915	57053.23	3.4980	3.4980	0.3023	25.85	-0.10	0.750			
0.8923	57108.91	3.4950	3.4950	0.2943	25.85	-0.10	0.750			
0.8932	57164.95	3.4920	3.4919	0.2893	25.86	-0.09	0.750			
0.8941	57221.10	3.4890	3.4891	0.2832	25.86	-0.09	0.750			
0.8949	57274.96	3.4860	3.4859	0.2760	25.87	-0.08	0.750			
0.8957	57327.35	3.4830	3.4830	0.2695	25.88	-0.07	0.750			
0.8965	57378.22	3.4800	3.4801	0.2611	25.88	-0.07	0.750			
0.8973	57427.51	3.4770	3.4768	0.2531	25.89	-0.06	0.750			
0.8980	57474.25	3.4740	3.4741	0.2469	25.89	-0.06	0.750			
0.8988	57520.91	3.4710	3.4711	0.2431	25.90	-0.05	0.750			
0.8995	57566.69	3.4680	3.4681	0.2391	25.90	-0.05	0.750			
0.9002	57613.00	3.4650	3.4648	0.2360	25.91	-0.04	0.750			
0.9009	57657.69	3.4620	3.4620	0.2310	25.91	-0.04	0.750			
0.9016	57701.95	3.4590	3.4591	0.2272	25.92	-0.03	0.750			
0.9023	57745.16	3.4560	3.4561	0.2228	25.92	-0.03	0.750			
0.9029	57788.15	3.4530	3.4530	0.2192	25.93	-0.02	0.750			
0.9036	57829.24	3.4500	3.4499	0.2134	25.93	-0.02	0.750			
0.9042	57869.38	3.4470	3.4470	0.2091	25.94	-0.01	0.750			
0.9048	57909.42	3.4440	3.4441	0.2051	25.94	-0.01	0.750			
0.9054	57948.52	3.4410	3.4410	0.2013	25.95	-0.00	0.750			
0.9060	57986.83	3.4380	3.4379	0.1971	25.95	0.00	0.750			
0.9066	58024.57	3.4350	3.4350	0.1924	25.95	0.00	0.750			
0.9072	58060.88	3.4320	3.4320	0.1876	25.96	0.01	0.750			
0.9078	58096.49	3.4290	3.4290	0.1827	25.96	0.01	0.750			
0.9083	58131.11	3.4260	3.4260	0.1780	25.97	0.02	0.750			
0.9088	58164.58	3.4230	3.4229	0.1725	25.97	0.02	0.750			
0.9093	58197.41	3.4200	3.4201	0.1681	25.97	0.02	0.750			
0.9098	58229.22	3.4170	3.4169	0.1633	25.98	0.03	0.750			
0.9103	58260.08	3.4140	3.4140	0.1581	25.98	0.03	0.750			
0.9108	58290.21	3.4110	3.4109	0.1535	25.98	0.03	0.750			
0.9112	58318.98	3.4080	3.4081	0.1478	25.99	0.04	0.750			
0.9117	58346.83	3.4050	3.4049	0.1430	25.99	0.04	0.750			
0.9121	58374.07	3.4020	3.4020	0.1372	25.99	0.04	0.750			
0.9125	58400.02	3.3990	3.3990	0.1316	26.00	0.05	0.750			
0.9129	58424.85	3.3960	3.3960	0.1255	26.00	0.05	0.750			
0.9133	58448.32	3.3930	3.3931	0.1190	26.00	0.05	0.750			
0.9136	58470.76	3.3900	3.3899	0.1123	26.00	0.05	0.750			
0.9139	58491.68	3.3870	3.3871	0.1053	26.01	0.06	0.750			
0.9143	58512.03	3.3840	3.3838	0.0960	26.01	0.06	0.750			
0.9145	58529.85	3.3810	3.3811	0.0877	26.01	0.06	0.750			
0.9148	58546.50	3.3780	3.3780	0.0801	26.01	0.06	0.750			
0.9150	58560.92	3.3750	3.3753	0.0700	26.02	0.07	0.750			
0.9152	58574.08	3.3720	3.3723	0.0602	26.02	0.07	0.750			
0.9154	58584.59	3.3690	3.3695	0.0493	26.02	0.07	0.750			
0.9155	58592.99	3.3660	3.3670	0.0383	26.02	0.07	0.750			
0.9156	58599.29	3.3630	3.3643	0.0273	26.02	0.07	0.750			
