Ah_balance (normalized)	Ah_balance (mAh)	Voltage - fit (V)	Voltage -  interpolate (V)	dQ/dV (1/V)	Temperature (°C)	Temperature - diff (°C)	Current (C)	R_DC 0ms (mOhm)	R_DC 50ms (mOhm)	R_DC 50 ms PEC (mOhm)
0.0546	3496.96	4.1960	4.1961	0.7787	26.59	0.60	0.750			
0.0569	3644.28	4.1930	4.1930	0.7603	26.59	0.60	0.750			
0.0592	3786.28	4.1900	4.1900	0.7508	26.58	0.59	0.750			
0.0614	3927.35	4.1870	4.1870	0.7508	26.58	0.59	0.750			
0.0636	4070.92	4.1840	4.1840	0.7535	26.58	0.59	0.750			
0.0659	4216.00	4.1810	4.1811	0.7611	26.58	0.59	0.750			
0.0682	4363.07	4.1780	4.1781	0.7685	26.58	0.59	0.750			
0.0705	4513.97	4.1750	4.1750	0.7659	26.58	0.59	0.750			
0.0728	4661.03	4.1720	4.1720	0.7669	26.59	0.60	0.750			
0.0751	4807.88	4.1690	4.1692	0.7624	26.59	0.60	0.750			
0.0774	4952.76	4.1660	4.1658	0.7658	26.59	0.60	0.750			
0.0797	5099.62	4.1630	4.1631	0.7696	26.59	0.60	0.750			
0.0820	5249.73	4.1600	4.1599	0.7610	26.59	0.60	0.750			
0.0843	5396.31	4.1570	4.1571	0.7655	26.58	0.59	0.750			
0.0866	5541.90	4.1540	4.1541	0.7647	26.58	0.59	0.750			
0.0888	5686.09	4.1510	4.1511	0.7830	26.58	0.59	0.750			
0.0912	5836.47	4.1480	4.1479	0.7938	26.58	0.59	0.750			
0.0936	5991.31	4.1450	4.1449	0.7973	26.58	0.59	0.750			
0.0961	6148.57	4.1420	4.1422	0.8079	26.58	0.59	0.750			
0.0986	6308.47	4.1390	4.1391	0.8044	26.58	0.59	0.750			
0.1010	6462.41	4.1360	4.1360	0.7984	26.58	0.59	0.750			
0.1033	6613.64	4.1330	4.1331	0.7885	26.58	0.59	0.750			
0.1057	6762.32	4.1300	4.1300	0.7798	26.58	0.59	0.750			
0.1080	6912.53	4.1270	4.1270	0.7761	26.58	0.59	0.750			
0.1103	7060.75	4.1240	4.1241	0.7759	26.58	0.59	0.750			
0.1126	7208.38	4.1210	4.1211	0.7783	26.58	0.59	0.750			
0.1150	7357.66	4.1180	4.1178	0.7872	26.58	0.59	0.750			
0.1173	7507.78	4.1150	4.1151	0.7844	26.58	0.59	0.750			
0.1197	7661.47	4.1120	4.1120	0.7896	26.58	0.59	0.750			
0.1221	7815.12	4.1090	4.1091	0.7948	26.57	0.58	0.750			
0.1245	7968.26	4.1060	4.1060	0.7952	26.57	0.58	0.750			
0.1268	8118.27	4.1030	4.1030	0.7928	26.57	0.58	0.750			
0.1292	8270.42	4.1000	4.1000	0.7928	26.57	0.58	0.750			
0.1316	8423.12	4.0970	4.0970	0.7885	26.57	0.58	0.750			
0.1340	8574.81	4.0940	4.0940	0.7969	26.57	0.58	0.750			
0.1364	8728.24	4.0910	4.0910	0.8003	26.58	0.59	0.750			
0.1388	8881.08	4.0880	4.0881	0.8049	26.58	0.59	0.750			
0.1412	9036.26	4.0850	4.0849	0.8057	26.58	0.59	0.750			
0.1436	9193.56	4.0820	4.0820	0.8036	26.57	0.58	0.750			
0.1461	9347.85	4.0790	4.0791	0.8087	26.57	0.58	0.750			
0.1485	9502.53	4.0760	4.0760	0.8099	26.57	0.58	0.750			
0.1509	9656.44	4.0730	4.0731	0.8103	26.56	0.57	0.750			
0.1533	9812.13	4.0700	4.0699	0.8119	26.56	0.57	0.750			
0.1558	9969.10	4.0670	4.0670	0.8121	26.56	0.57	0.750			
0.1582	10127.36	4.0640	4.0641	0.8216	26.56	0.57	0.750			
0.1607	10285.15	4.0610	4.0611	0.8217	26.56	0.57	0.750			
0.1632	10442.47	4.0580	4.0580	0.8201	26.56	0.57	0.750			
0.1656	10599.54	4.0550	4.0549	0.8228	26.56	0.57	0.750			
0.1681	10758.48	4.0520	4.0521	0.8244	26.56	0.57	0.750			
0.1706	10917.59	4.0490	4.0490	0.8303	26.56	0.57	0.750			
0.1731	11076.66	4.0460	4.0460	0.8330	26.56	0.57	0.750			
0.1756	11236.81	4.0430	4.0430	0.8345	26.56	0.57	0.750			
0.1781	11397.66	4.0400	4.0399	0.8406	26.56	0.57	0.750			
0.1806	11560.90	4.0370	4.0370	0.8383	26.56	0.57	0.750			
0.1831	11720.84	4.0340	4.0341	0.8428	26.56	0.57	0.750			
0.1857	11882.78	4.0310	4.0310	0.8476	26.57	0.58	0.750			
0.1882	12045.22	4.0280	4.0280	0.8496	26.57	0.58	0.750			
0.1908	12208.35	4.0250	4.0250	0.8533	26.57	0.58	0.750			
0.1933	12373.93	4.0220	4.0221	0.8517	26.57	0.58	0.750			
0.1959	12537.10	4.0190	4.0190	0.8595	26.57	0.58	0.750			
0.1985	12704.66	4.0160	4.0160	0.8592	26.57	0.58	0.750			
0.2011	12869.14	4.0130	4.0130	0.8539	26.57	0.58	0.750			
0.2036	13032.41	4.0100	4.0101	0.8562	26.57	0.58	0.750			
0.2062	13197.74	4.0070	4.0070	0.8535	26.57	0.58	0.750			
0.2088	13360.47	4.0040	4.0040	0.8624	26.57	0.58	0.750			
0.2113	13525.87	4.0010	4.0010	0.8703	26.58	0.59	0.750			
0.2139	13692.63	3.9980	3.9980	0.8700	26.58	0.59	0.750			
0.2166	13862.22	3.9950	3.9951	0.8813	26.58	0.59	0.750			
0.2193	14032.89	3.9920	3.9920	0.8831	26.58	0.59	0.750			
0.2219	14202.40	3.9890	3.9890	0.8829	26.57	0.58	0.750			
0.2245	14370.94	3.9860	3.9860	0.8797	26.57	0.58	0.750			
0.2272	14540.63	3.9830	3.9828	0.8851	26.57	0.58	0.750			
0.2299	14710.89	3.9800	3.9800	0.8872	26.57	0.58	0.750			
0.2325	14882.50	3.9770	3.9769	0.8933	26.57	0.58	0.750			
0.2352	15054.67	3.9740	3.9741	0.8927	26.58	0.59	0.750			
0.2379	15227.09	3.9710	3.9710	0.8944	26.58	0.59	0.750			
0.2406	15398.93	3.9680	3.9680	0.8946	26.58	0.59	0.750			
0.2433	15570.77	3.9650	3.9650	0.8915	26.58	0.59	0.750			
0.2459	15740.53	3.9620	3.9619	0.8938	26.57	0.58	0.750			
0.2486	15912.49	3.9590	3.9591	0.8932	26.57	0.58	0.750			
0.2513	16083.54	3.9560	3.9559	0.8936	26.56	0.57	0.750			
0.2540	16255.95	3.9530	3.9531	0.8945	26.56	0.57	0.750			
0.2567	16426.78	3.9500	3.9500	0.8931	26.56	0.57	0.750			
0.2593	16597.07	3.9470	3.9470	0.8981	26.56	0.57	0.750			
0.2620	16770.79	3.9440	3.9441	0.9032	26.56	0.57	0.750			
0.2648	16944.14	3.9410	3.9408	0.9044	26.56	0.57	0.750			
0.2675	17120.47	3.9380	3.9381	0.9090	26.56	0.57	0.750			
0.2702	17295.18	3.9350	3.9351	0.9091	26.56	0.57	0.750			
0.2730	17471.17	3.9320	3.9319	0.9101	26.56	0.57	0.750			
0.2757	17645.35	3.9290	3.9289	0.9063	26.56	0.57	0.750			
0.2784	17815.83	3.9260	3.9261	0.9044	26.56	0.57	0.750			
0.2811	17991.94	3.9230	3.9230	0.8971	26.56	0.57	0.750			
0.2838	18163.53	3.9200	3.9200	0.9052	26.56	0.57	0.750			
0.2865	18336.81	3.9170	3.9171	0.9074	26.55	0.56	0.750			
0.2892	18509.75	3.9140	3.9140	0.9114	26.55	0.56	0.750			
0.2920	18685.90	3.9110	3.9110	0.9175	26.55	0.56	0.750			
0.2947	18862.68	3.9080	3.9081	0.9243	26.54	0.55	0.750			
0.2975	19041.68	3.9050	3.9050	0.9279	26.53	0.54	0.750			
0.3004	19223.94	3.9020	3.9020	0.9354	26.53	0.54	0.750			
0.3031	19399.65	3.8990	3.8990	0.9297	26.52	0.53	0.750			
0.3060	19580.96	3.8960	3.8960	0.9273	26.51	0.52	0.750			
0.3087	19757.55	3.8930	3.8930	0.9326	26.51	0.52	0.750			
0.3115	19936.42	3.8900	3.8900	0.9410	26.51	0.52	0.750			
0.3143	20116.93	3.8870	3.8869	0.9497	26.50	0.51	0.750			
0.3172	20301.98	3.8840	3.8840	0.9494	26.50	0.51	0.750			
0.3201	20484.56	3.8810	3.8811	0.9572	26.49	0.50	0.750			
0.3230	20669.46	3.8780	3.8780	0.9610	26.48	0.49	0.750			
0.3259	20854.76	3.8750	3.8750	0.9696	26.47	0.48	0.750			
0.3287	21038.68	3.8720	3.8720	0.9719	26.47	0.48	0.750			
0.3316	21225.60	3.8690	3.8690	0.9722	26.46	0.47	0.750			
0.3346	21412.87	3.8660	3.8660	0.9818	26.45	0.46	0.750			
0.3375	21602.87	3.8630	3.8631	0.9951	26.45	0.46	0.750			
0.3405	21794.22	3.8600	3.8599	0.9981	26.44	0.45	0.750			
0.3435	21986.57	3.8570	3.8570	1.0073	26.43	0.44	0.750			
0.3466	22181.09	3.8540	3.8541	1.0099	26.43	0.44	0.750			
0.3496	22377.06	3.8510	3.8510	1.0150	26.42	0.43	0.750			
0.3527	22571.28	3.8480	3.8478	1.0134	26.42	0.43	0.750			
0.3557	22766.29	3.8450	3.8451	1.0152	26.41	0.42	0.750			
0.3588	22960.65	3.8420	3.8420	1.0209	26.40	0.41	0.750			
0.3619	23158.99	3.8390	3.8390	1.0230	26.38	0.39	0.750			
0.3649	23354.16	3.8360	3.8359	1.0278	26.37	0.38	0.750			
0.3680	23552.69	3.8330	3.8330	1.0309	26.36	0.37	0.750			
0.3711	23750.06	3.8300	3.8300	1.0317	26.36	0.37	0.750			
0.3742	23947.99	3.8270	3.8269	1.0354	26.35	0.36	0.750			
0.3773	24146.75	3.8240	3.8238	1.0342	26.34	0.35	0.750			
0.3804	24346.73	3.8210	3.8210	1.0349	26.33	0.34	0.750			
0.3835	24546.01	3.8180	3.8181	1.0409	26.32	0.33	0.750			
0.3866	24743.26	3.8150	3.8150	1.0453	26.30	0.31	0.750			
0.3898	24946.84	3.8120	3.8118	1.0532	26.29	0.30	0.750			
0.3929	25147.80	3.8090	3.8090	1.0515	26.28	0.29	0.750			
0.3961	25348.16	3.8060	3.8061	1.0643	26.27	0.28	0.750			
0.3993	25553.97	3.8030	3.8031	1.0802	26.26	0.27	0.750			
0.4026	25765.34	3.8000	3.7996	1.0860	26.25	0.26	0.750			
0.4058	25970.10	3.7970	3.7971	1.0997	26.24	0.25	0.750			
0.4091	26181.72	3.7940	3.7942	1.1237	26.23	0.24	0.750			
0.4125	26402.88	3.7910	3.7911	1.1417	26.23	0.24	0.750			
0.4160	26622.74	3.7880	3.7879	1.1447	26.22	0.23	0.750			
0.4195	26844.91	3.7850	3.7852	1.1594	26.21	0.22	0.750			
0.4230	27069.60	3.7820	3.7819	1.1730	26.20	0.21	0.750			
0.4265	27297.77	3.7790	3.7790	1.1815	26.18	0.19	0.750			
0.4301	27523.45	3.7760	3.7761	1.1910	26.17	0.18	0.750			
0.4336	27749.27	3.7730	3.7730	1.2089	26.16	0.17	0.750			
0.4372	27981.74	3.7700	3.7701	1.2512	26.14	0.15	0.750			
0.4410	28221.46	3.7670	3.7670	1.2842	26.13	0.14	0.750			
0.4449	28473.31	3.7640	3.7632	1.3278	26.12	0.13	0.750	0.294	0.413	
0.4490	28736.57	3.7610	3.7613	1.3641	26.10	0.11	0.750			
0.4532	29004.50	3.7580	3.7580	1.3926	26.09	0.10	0.750			
0.4575	29277.06	3.7550	3.7550	1.4102	26.08	0.09	0.750			
0.4617	29548.58	3.7520	3.7521	1.4166	26.08	0.09	0.750			
0.4660	29821.55	3.7490	3.7490	1.4506	26.07	0.08	0.750			
0.4703	30101.78	3.7460	3.7460	1.4874	26.05	0.06	0.750			
0.4749	30392.11	3.7430	3.7431	1.5094	26.04	0.05	0.750			
0.4794	30684.00	3.7400	3.7399	1.5493	26.02	0.03	0.750			
0.4841	30984.33	3.7370	3.7370	1.5982	26.01	0.02	0.750			
0.4890	31295.56	3.7340	3.7340	1.6365	25.99	0.00	0.750			
0.4939	31612.05	3.7310	3.7311	1.6776	25.98	-0.01	0.750			
0.4991	31939.28	3.7280	3.7281	1.7176	25.98	-0.01	0.750			
0.5043	32274.24	3.7250	3.7251	1.7736	25.96	-0.03	0.750			
0.5097	32619.77	3.7220	3.7220	1.8366	25.95	-0.04	0.750			
0.5152	32970.02	3.7190	3.7190	1.8978	25.93	-0.06	0.750			
0.5210	33345.92	3.7160	3.7160	1.9337	25.91	-0.08	0.750			
0.5270	33725.38	3.7130	3.7130	1.9924	25.89	-0.10	0.750			
0.5330	34109.24	3.7100	3.7101	2.0494	25.87	-0.12	0.750			
0.5391	34503.88	3.7070	3.7071	2.1334	25.85	-0.14	0.750			
0.5456	34919.27	3.7040	3.7038	2.1914	25.84	-0.15	0.750			
0.5523	35347.69	3.7010	3.7009	2.2603	25.82	-0.17	0.750			
0.5593	35792.65	3.6980	3.6981	2.3205	25.81	-0.18	0.750			
0.5665	36254.53	3.6950	3.6948	2.3992	25.80	-0.19	0.750			
0.5737	36714.37	3.6920	3.6919	2.4103	25.78	-0.21	0.750			
0.5808	37173.26	3.6890	3.6891	2.4499	25.76	-0.23	0.750			
0.5883	37651.67	3.6860	3.6863	2.4892	25.75	-0.24	0.750			
0.5958	38132.95	3.6830	3.6831	2.6258	25.74	-0.25	0.750			
0.6037	38635.83	3.6800	3.6799	2.7118	25.73	-0.26	0.750			
0.6121	39172.33	3.6770	3.6771	2.8431	25.71	-0.28	0.750			
0.6207	39722.95	3.6740	3.6741	2.9490	25.71	-0.28	0.750			
0.6298	40308.34	3.6710	3.6708	3.0077	25.70	-0.29	0.750			
0.6390	40899.17	3.6680	3.6680	2.9755	25.70	-0.29	0.750			
0.6483	41488.07	3.6650	3.6650	2.8662	25.69	-0.30	0.750			
0.6565	42013.62	3.6620	3.6620	2.5631	25.69	-0.30	0.750			
0.6635	42463.30	3.6590	3.6591	2.2898	25.69	-0.30	0.750			
0.6699	42874.97	3.6560	3.6559	2.0702	25.69	-0.30	0.750			
0.6756	43238.94	3.6530	3.6526	1.8636	25.70	-0.29	0.750			
0.6808	43570.06	3.6500	3.6498	1.7081	25.70	-0.29	0.750			
0.6856	43876.72	3.6470	3.6472	1.5746	25.70	-0.29	0.750			
0.6902	44174.46	3.6440	3.6441	1.4546	25.70	-0.29	0.750			
0.6944	44440.55	3.6410	3.6410	1.3670	25.70	-0.29	0.750			
0.6981	44681.54	3.6380	3.6381	1.2740	25.71	-0.28	0.750			
0.7018	44918.10	3.6350	3.6348	1.2313	25.71	-0.28	0.750			
0.7054	45146.45	3.6320	3.6320	1.2003	25.71	-0.28	0.750			
0.7089	45366.98	3.6290	3.6291	1.1855	25.71	-0.28	0.750			
0.7124	45593.95	3.6260	3.6261	1.1908	25.71	-0.28	0.750			
0.7160	45822.65	3.6230	3.6230	1.1934	25.71	-0.28	0.750			
0.7196	46054.05	3.6200	3.6199	1.2026	25.71	-0.28	0.750			
0.7232	46287.79	3.6170	3.6171	1.2035	25.72	-0.27	0.750			
0.7269	46524.23	3.6140	3.6140	1.1944	25.72	-0.27	0.750			
0.7305	46754.29	3.6110	3.6111	1.1856	25.72	-0.27	0.750			
0.7341	46979.80	3.6080	3.6080	1.1691	25.72	-0.27	0.750			
0.7375	47200.17	3.6050	3.6050	1.1544	25.72	-0.27	0.750			
0.7409	47419.79	3.6020	3.6019	1.1355	25.72	-0.27	0.750			
0.7443	47634.34	3.5990	3.5990	1.1350	25.72	-0.27	0.750			
0.7477	47851.48	3.5960	3.5961	1.1411	25.73	-0.26	0.750			
0.7511	48068.03	3.5930	3.5929	1.1561	25.73	-0.26	0.750			
0.7545	48286.01	3.5900	3.5900	1.1796	25.73	-0.26	0.750			
0.7580	48510.95	3.5870	3.5871	1.2171	25.73	-0.26	0.750			
0.7617	48748.06	3.5840	3.5840	1.2715	25.72	-0.27	0.750			
0.7657	49001.77	3.5810	3.5809	1.3142	25.72	-0.27	0.750			
0.7696	49252.81	3.5780	3.5780	1.3766	25.72	-0.27	0.750			
0.7739	49526.47	3.5750	3.5751	1.4267	25.72	-0.27	0.750			
0.7782	49806.14	3.5720	3.5717	1.4771	25.72	-0.27	0.750			
0.7827	50095.73	3.5690	3.5689	1.5095	25.72	-0.27	0.750			
0.7873	50389.57	3.5660	3.5662	1.5496	25.72	-0.27	0.750			
0.7921	50692.21	3.5630	3.5631	1.5858	25.72	-0.27	0.750			
0.7968	50998.01	3.5600	3.5597	1.6190	25.72	-0.27	0.750			
0.8017	51309.66	3.5570	3.5570	1.6212	25.72	-0.27	0.750			
0.8068	51632.12	3.5540	3.5541	1.6660	25.72	-0.27	0.750			
0.8118	51954.80	3.5510	3.5513	1.6791	25.72	-0.27	0.750			
0.8169	52278.84	3.5480	3.5483	1.6776	25.72	-0.27	0.750			
0.8219	52602.93	3.5450	3.5449	1.6917	25.73	-0.26	0.750			
0.8270	52926.36	3.5420	3.5419	1.7043	25.73	-0.26	0.750			
0.8321	53254.27	3.5390	3.5391	1.7465	25.74	-0.25	0.750			
0.8374	53591.31	3.5360	3.5361	1.7636	25.75	-0.24	0.750			
0.8431	53960.97	3.5330	3.5326	1.7063	25.76	-0.23	0.750			
0.8485	54300.86	3.5300	3.5300	1.5799	25.77	-0.22	0.750			
0.8534	54618.68	3.5270	3.5273	1.3812	25.78	-0.21	0.750			
0.8574	54874.73	3.5240	3.5244	1.1293	25.80	-0.19	0.750			
0.8602	55052.27	3.5210	3.5209	0.8843	25.81	-0.18	0.750			
0.8619	55164.12	3.5180	3.5175	0.6314	25.82	-0.17	0.750			
0.8631	55235.27	3.5150	3.5150	0.4654	25.82	-0.17	0.750			
0.8642	55309.99	3.5120	3.5119	0.3964	25.83	-0.16	0.750			
0.8652	55375.82	3.5090	3.5090	0.3559	25.83	-0.16	0.750			
0.8663	55440.30	3.5060	3.5060	0.3336	25.84	-0.15	0.750			
0.8672	55501.46	3.5030	3.5030	0.3159	25.84	-0.15	0.750			
0.8681	55560.01	3.5000	3.5000	0.3018	25.85	-0.14	0.750			
0.8690	55616.48	3.4970	3.4970	0.2921	25.86	-0.13	0.750			
0.8699	55671.11	3.4940	3.4940	0.2843	25.86	-0.13	0.750			
0.8707	55724.55	3.4910	3.4909	0.2773	25.87	-0.12	0.750			
0.8715	55777.14	3.4880	3.4880	0.2712	25.88	-0.11	0.750			
0.8723	55828.71	3.4850	3.4850	0.2651	25.88	-0.11	0.750			
0.8731	55879.56	3.4820	3.4820	0.2603	25.89	-0.10	0.750			
0.8739	55929.11	3.4790	3.4789	0.2540	25.89	-0.10	0.750			
0.8746	55976.75	3.4760	3.4761	0.2465	25.90	-0.09	0.750			
0.8754	56023.15	3.4730	3.4730	0.2422	25.90	-0.09	0.750			
0.8761	56068.77	3.4700	3.4700	0.2371	25.91	-0.08	0.750			
0.8768	56113.73	3.4670	3.4670	0.2333	25.91	-0.08	0.750			
0.8775	56158.17	3.4640	3.4639	0.2280	25.92	-0.07	0.750			
0.8782	56202.00	3.4610	3.4611	0.2238	25.92	-0.07	0.750			
0.8788	56244.49	3.4580	3.4580	0.2188	25.93	-0.06	0.750			
0.8795	56286.37	3.4550	3.4551	0.2139	25.93	-0.06	0.750			
0.8801	56327.00	3.4520	3.4519	0.2095	25.93	-0.06	0.750			
0.8807	56366.09	3.4490	3.4491	0.2030	25.94	-0.05	0.750			
0.8813	56404.67	3.4460	3.4459	0.1989	25.94	-0.05	0.750			
0.8819	56442.39	3.4430	3.4430	0.1943	25.94	-0.05	0.750			
0.8825	56479.70	3.4400	3.4401	0.1896	25.95	-0.04	0.750			
0.8831	56515.72	3.4370	3.4370	0.1847	25.95	-0.04	0.750			
0.8836	56550.65	3.4340	3.4340	0.1792	25.95	-0.04	0.750			
0.8841	56584.58	3.4310	3.4310	0.1739	25.96	-0.03	0.750			
0.8846	56617.30	3.4280	3.4280	0.1683	25.96	-0.03	0.750			
0.8851	56649.25	3.4250	3.4249	0.1629	25.96	-0.03	0.750			
0.8856	56680.00	3.4220	3.4220	0.1573	25.96	-0.03	0.750			
0.8861	56709.65	3.4190	3.4190	0.1517	25.97	-0.02	0.750			
0.8865	56738.46	3.4160	3.4161	0.1460	25.97	-0.02	0.750			
0.8870	56765.91	3.4130	3.4130	0.1399	25.97	-0.02	0.750			
0.8874	56792.21	3.4100	3.4100	0.1336	25.97	-0.02	0.750			
0.8878	56817.32	3.4070	3.4071	0.1274	25.98	-0.01	0.750			
0.8881	56841.35	3.4040	3.4040	0.1206	25.98	-0.01	0.750			
0.8885	56864.02	3.4010	3.4010	0.1141	25.98	-0.01	0.750			
0.8888	56886.28	3.3980	3.3979	0.1046	25.98	-0.01	0.750			
0.8892	56905.84	3.3950	3.3949	0.0963	25.98	-0.01	0.750			
0.8894	56923.99	3.3920	3.3922	0.0880	25.99	-0.00	0.750			
0.8897	56939.86	3.3890	3.3892	0.0773	25.99	-0.00	0.750			
0.8899	56954.46	3.3860	3.3862	0.0670	25.99	-0.00	0.750			
0.8901	56966.17	3.3830	3.3834	0.0551	25.99	-0.00	0.750			
0.8902	56975.61	3.3800	3.3810	0.0432	25.99	0.00	0.750			
0.8904	56982.76	3.3770	3.3784	0.0313	25.99	0.00	0.750			
