Ah_balance (normalized)	Ah_balance (mAh)	Voltage - fit (V)	Voltage -  interpolate (V)	dQ/dV (1/V)	Temperature (°C)	Temperature - diff (°C)	Current (C)	R_DC 0ms (mOhm)	R_DC 50ms (mOhm)	R_DC 50 ms PEC (mOhm)
0.0565	3614.81	4.1970	4.1971	0.7375	26.61	0.66	0.750			
0.0587	3756.59	4.1940	4.1940	0.7416	26.61	0.66	0.750			
0.0609	3900.08	4.1910	4.1910	0.7462	26.61	0.66	0.750			
0.0632	4044.64	4.1880	4.1880	0.7448	26.61	0.66	0.750			
0.0654	4187.08	4.1850	4.1850	0.7483	26.61	0.66	0.750			
0.0677	4331.51	4.1820	4.1820	0.7474	26.61	0.66	0.750			
0.0699	4474.30	4.1790	4.1790	0.7481	26.61	0.66	0.750			
0.0722	4618.41	4.1760	4.1761	0.7473	26.61	0.66	0.750			
0.0744	4761.50	4.1730	4.1730	0.7482	26.61	0.66	0.750			
0.0766	4905.23	4.1700	4.1700	0.7508	26.61	0.66	0.750			
0.0789	5049.59	4.1670	4.1670	0.7530	26.61	0.66	0.750			
0.0811	5192.45	4.1640	4.1640	0.7564	26.61	0.66	0.750			
0.0834	5338.75	4.1610	4.1609	0.7639	26.61	0.66	0.750			
0.0857	5485.52	4.1580	4.1581	0.7696	26.61	0.66	0.750			
0.0881	5636.06	4.1550	4.1549	0.7704	26.61	0.66	0.750			
0.0904	5785.47	4.1520	4.1520	0.7683	26.61	0.66	0.750			
0.0927	5932.89	4.1490	4.1491	0.7679	26.61	0.66	0.750			
0.0950	6079.00	4.1460	4.1460	0.7660	26.61	0.66	0.750			
0.0973	6224.89	4.1430	4.1429	0.7638	26.61	0.66	0.750			
0.0995	6370.61	4.1400	4.1400	0.7608	26.61	0.66	0.750			
0.1018	6516.30	4.1370	4.1370	0.7622	26.61	0.66	0.750			
0.1041	6664.98	4.1340	4.1341	0.7685	26.62	0.67	0.750			
0.1064	6811.94	4.1310	4.1310	0.7671	26.62	0.67	0.750			
0.1087	6957.38	4.1280	4.1281	0.7673	26.62	0.67	0.750			
0.1110	7106.00	4.1250	4.1250	0.7706	26.62	0.67	0.750			
0.1133	7254.02	4.1220	4.1220	0.7704	26.62	0.67	0.750			
0.1157	7402.15	4.1190	4.1190	0.7728	26.62	0.67	0.750			
0.1180	7550.50	4.1160	4.1162	0.7758	26.62	0.67	0.750			
0.1203	7700.02	4.1130	4.1128	0.7775	26.62	0.67	0.750			
0.1226	7849.59	4.1100	4.1100	0.7787	26.62	0.67	0.750			
0.1250	7999.62	4.1070	4.1071	0.7781	26.62	0.67	0.750			
0.1273	8149.19	4.1040	4.1040	0.7838	26.62	0.67	0.750			
0.1297	8299.00	4.1010	4.1010	0.7877	26.62	0.67	0.750			
0.1320	8449.63	4.0980	4.0980	0.7875	26.62	0.67	0.750			
0.1344	8601.84	4.0950	4.0951	0.7876	26.62	0.67	0.750			
0.1368	8755.83	4.0920	4.0920	0.7888	26.62	0.67	0.750			
0.1392	8906.35	4.0890	4.0890	0.7893	26.62	0.67	0.750			
0.1415	9056.49	4.0860	4.0861	0.7925	26.62	0.67	0.750			
0.1439	9207.12	4.0830	4.0830	0.7951	26.62	0.67	0.750			
0.1463	9360.12	4.0800	4.0799	0.7949	26.62	0.67	0.750			
0.1487	9514.47	4.0770	4.0770	0.8000	26.62	0.67	0.750			
0.1511	9669.99	4.0740	4.0741	0.8031	26.62	0.67	0.750			
0.1535	9823.36	4.0710	4.0710	0.8029	26.63	0.68	0.750			
0.1559	9975.28	4.0680	4.0680	0.8025	26.63	0.68	0.750			
0.1583	10129.89	4.0650	4.0648	0.8083	26.63	0.68	0.750			
0.1607	10285.52	4.0620	4.0620	0.8113	26.63	0.68	0.750			
0.1632	10442.72	4.0590	4.0590	0.8135	26.63	0.68	0.750			
0.1656	10598.45	4.0560	4.0561	0.8207	26.64	0.69	0.750			
0.1681	10755.74	4.0530	4.0531	0.8213	26.64	0.69	0.750			
0.1705	10915.00	4.0500	4.0498	0.8252	26.64	0.69	0.750			
0.1730	11073.46	4.0470	4.0471	0.8257	26.64	0.69	0.750			
0.1755	11234.00	4.0440	4.0441	0.8207	26.64	0.69	0.750			
0.1780	11391.69	4.0410	4.0411	0.8247	26.64	0.69	0.750			
0.1804	11547.13	4.0380	4.0380	0.8194	26.64	0.69	0.750			
0.1829	11704.02	4.0350	4.0348	0.8226	26.64	0.69	0.750			
0.1853	11861.50	4.0320	4.0320	0.8292	26.64	0.69	0.750			
0.1878	12021.90	4.0290	4.0291	0.8314	26.64	0.69	0.750			
0.1904	12183.58	4.0260	4.0260	0.8411	26.64	0.69	0.750			
0.1929	12345.37	4.0230	4.0230	0.8438	26.64	0.69	0.750			
0.1954	12506.58	4.0200	4.0199	0.8508	26.64	0.69	0.750			
0.1980	12670.32	4.0170	4.0171	0.8561	26.64	0.69	0.750			
0.2006	12837.17	4.0140	4.0140	0.8545	26.64	0.69	0.750			
0.2032	13002.41	4.0110	4.0109	0.8554	26.64	0.69	0.750			
0.2057	13165.89	4.0080	4.0082	0.8536	26.64	0.69	0.750			
0.2083	13328.75	4.0050	4.0049	0.8554	26.64	0.69	0.750			
0.2108	13493.96	4.0020	4.0019	0.8536	26.64	0.69	0.750			
0.2134	13657.45	3.9990	3.9989	0.8561	26.64	0.69	0.750			
0.2160	13821.86	3.9960	3.9961	0.8616	26.65	0.70	0.750			
0.2186	13987.69	3.9930	3.9931	0.8654	26.65	0.70	0.750			
0.2212	14154.49	3.9900	3.9900	0.8694	26.65	0.70	0.750			
0.2238	14322.63	3.9870	3.9870	0.8651	26.65	0.70	0.750			
0.2264	14487.43	3.9840	3.9841	0.8652	26.65	0.70	0.750			
0.2290	14653.63	3.9810	3.9811	0.8696	26.65	0.70	0.750			
0.2316	14821.12	3.9780	3.9779	0.8682	26.65	0.70	0.750			
0.2342	14987.25	3.9750	3.9750	0.8689	26.65	0.70	0.750			
0.2368	15154.73	3.9720	3.9720	0.8699	26.65	0.70	0.750			
0.2394	15322.12	3.9690	3.9691	0.8738	26.65	0.70	0.750			
0.2420	15490.57	3.9660	3.9660	0.8810	26.64	0.69	0.750			
0.2447	15659.62	3.9630	3.9630	0.8763	26.64	0.69	0.750			
0.2473	15828.08	3.9600	3.9600	0.8791	26.64	0.69	0.750			
0.2500	15998.38	3.9570	3.9570	0.8774	26.64	0.69	0.750			
0.2526	16165.48	3.9540	3.9541	0.8796	26.64	0.69	0.750			
0.2552	16334.83	3.9510	3.9509	0.8796	26.64	0.69	0.750			
0.2579	16502.44	3.9480	3.9478	0.8806	26.64	0.69	0.750			
0.2605	16670.94	3.9450	3.9451	0.8789	26.64	0.69	0.750			
0.2631	16841.56	3.9420	3.9420	0.8790	26.63	0.68	0.750			
0.2658	17009.23	3.9390	3.9391	0.8825	26.63	0.68	0.750			
0.2684	17177.95	3.9360	3.9361	0.8823	26.62	0.67	0.750			
0.2711	17347.80	3.9330	3.9330	0.8855	26.62	0.67	0.750			
0.2737	17519.31	3.9300	3.9301	0.8890	26.62	0.67	0.750			
0.2764	17689.43	3.9270	3.9270	0.8932	26.61	0.66	0.750			
0.2791	17863.52	3.9240	3.9240	0.8989	26.61	0.66	0.750			
0.2818	18034.97	3.9210	3.9210	0.8955	26.60	0.65	0.750			
0.2845	18206.37	3.9180	3.9180	0.8984	26.60	0.65	0.750			
0.2872	18380.23	3.9150	3.9151	0.8975	26.60	0.65	0.750			
0.2899	18551.35	3.9120	3.9120	0.9049	26.59	0.64	0.750			
0.2926	18724.25	3.9090	3.9090	0.9122	26.59	0.64	0.750			
0.2953	18899.84	3.9060	3.9057	0.9160	26.59	0.64	0.750			
0.2981	19079.62	3.9030	3.9031	0.9146	26.58	0.63	0.750			
0.3008	19253.88	3.9000	3.9000	0.9198	26.58	0.63	0.750			
0.3036	19431.70	3.8970	3.8972	0.9247	26.57	0.62	0.750			
0.3064	19609.10	3.8940	3.8940	0.9318	26.56	0.61	0.750			
0.3091	19783.42	3.8910	3.8909	0.9299	26.56	0.61	0.750			
0.3119	19964.54	3.8880	3.8881	0.9321	26.55	0.60	0.750			
0.3147	20143.97	3.8850	3.8850	0.9446	26.54	0.59	0.750			
0.3176	20326.85	3.8820	3.8821	0.9506	26.54	0.59	0.750			
0.3205	20509.81	3.8790	3.8787	0.9471	26.53	0.58	0.750			
0.3233	20694.29	3.8760	3.8760	0.9442	26.52	0.57	0.750			
0.3262	20874.62	3.8730	3.8731	0.9461	26.52	0.57	0.750			
0.3290	21057.60	3.8700	3.8701	0.9454	26.51	0.56	0.750			
0.3318	21237.32	3.8670	3.8669	0.9365	26.50	0.55	0.750			
0.3346	21416.19	3.8640	3.8641	0.9373	26.50	0.55	0.750			
0.3374	21595.09	3.8610	3.8611	0.9368	26.49	0.54	0.750			
0.3402	21775.04	3.8580	3.8580	0.9416	26.48	0.53	0.750			
0.3431	21955.79	3.8550	3.8551	0.9511	26.47	0.52	0.750			
0.3459	22137.37	3.8520	3.8517	0.9534	26.46	0.51	0.750			
0.3488	22322.71	3.8490	3.8491	0.9619	26.45	0.50	0.750			
0.3517	22508.69	3.8460	3.8460	0.9684	26.44	0.49	0.750			
0.3546	22696.52	3.8430	3.8431	0.9741	26.43	0.48	0.750			
0.3575	22883.08	3.8400	3.8399	0.9722	26.42	0.47	0.750			
0.3605	23072.05	3.8370	3.8370	0.9708	26.41	0.46	0.750			
0.3634	23256.65	3.8340	3.8340	0.9740	26.41	0.46	0.750			
0.3663	23442.46	3.8310	3.8310	0.9832	26.40	0.45	0.750			
0.3692	23631.09	3.8280	3.8281	0.9865	26.39	0.44	0.750			
0.3722	23822.74	3.8250	3.8250	0.9900	26.39	0.44	0.750			
0.3752	24013.31	3.8220	3.8220	1.0024	26.38	0.43	0.750			
0.3782	24207.68	3.8190	3.8191	1.0083	26.37	0.42	0.750			
0.3813	24403.15	3.8160	3.8160	1.0169	26.36	0.41	0.750			
0.3843	24597.32	3.8130	3.8131	1.0117	26.35	0.40	0.750			
0.3874	24790.87	3.8100	3.8100	1.0220	26.34	0.39	0.750			
0.3904	24987.48	3.8070	3.8070	1.0334	26.33	0.38	0.750			
0.3935	25185.63	3.8040	3.8040	1.0471	26.32	0.37	0.750			
0.3967	25387.95	3.8010	3.8009	1.0485	26.31	0.36	0.750			
0.3999	25590.87	3.7980	3.7980	1.0692	26.30	0.35	0.750			
0.4031	25796.68	3.7950	3.7951	1.0851	26.29	0.34	0.750			
0.4064	26007.41	3.7920	3.7921	1.1035	26.28	0.33	0.750			
0.4097	26222.89	3.7890	3.7890	1.1000	26.27	0.32	0.750			
0.4130	26433.05	3.7860	3.7861	1.1241	26.25	0.30	0.750			
0.4164	26649.36	3.7830	3.7831	1.1448	26.24	0.29	0.750			
0.4198	26868.84	3.7800	3.7799	1.1786	26.23	0.28	0.750			
0.4233	27093.43	3.7770	3.7771	1.1983	26.22	0.27	0.750			
0.4270	27326.66	3.7740	3.7740	1.2277	26.21	0.26	0.750			
0.4308	27570.43	3.7710	3.7710	1.2487	26.20	0.25	0.750			
0.4346	27814.43	3.7680	3.7678	1.2701	26.19	0.24	0.750	0.321	0.444	
0.4384	28060.03	3.7650	3.7653	1.2979	26.17	0.22	0.750			
0.4424	28314.18	3.7620	3.7620	1.3175	26.16	0.21	0.750			
0.4464	28570.73	3.7590	3.7588	1.3235	26.15	0.20	0.750			
0.4503	28818.53	3.7560	3.7561	1.3613	26.14	0.19	0.750			
0.4545	29089.94	3.7530	3.7531	1.3939	26.14	0.19	0.750			
0.4587	29357.38	3.7500	3.7497	1.4374	26.13	0.18	0.750			
0.4631	29639.71	3.7470	3.7473	1.4525	26.11	0.16	0.750			
0.4675	29921.50	3.7440	3.7441	1.4954	26.10	0.15	0.750			
0.4721	30215.87	3.7410	3.7411	1.5377	26.09	0.14	0.750			
0.4767	30509.48	3.7380	3.7378	1.5918	26.07	0.12	0.750			
0.4815	30817.29	3.7350	3.7352	1.6140	26.06	0.11	0.750			
0.4865	31133.69	3.7320	3.7321	1.6656	26.04	0.09	0.750			
0.4915	31453.32	3.7290	3.7289	1.7177	26.02	0.07	0.750			
0.4968	31793.20	3.7260	3.7263	1.7751	26.01	0.06	0.750			
0.5021	32136.96	3.7230	3.7232	1.8102	25.99	0.04	0.750			
0.5077	32491.16	3.7200	3.7200	1.8626	25.97	0.02	0.750			
0.5133	32850.43	3.7170	3.7170	1.9339	25.96	0.01	0.750			
0.5193	33232.34	3.7140	3.7140	1.9829	25.95	0.00	0.750			
0.5253	33620.18	3.7110	3.7111	2.0418	25.94	-0.01	0.750			
0.5314	34011.41	3.7080	3.7081	2.0863	25.92	-0.03	0.750			
0.5378	34421.65	3.7050	3.7051	2.1556	25.91	-0.04	0.750			
0.5443	34837.60	3.7020	3.7018	2.2158	25.89	-0.06	0.750			
0.5510	35264.81	3.6990	3.6989	2.2533	25.88	-0.07	0.750			
0.5578	35700.39	3.6960	3.6961	2.3457	25.86	-0.09	0.750			
0.5651	36169.36	3.6930	3.6930	2.4409	25.84	-0.11	0.750			
0.5725	36638.90	3.6900	3.6899	2.5222	25.83	-0.12	0.750			
0.5801	37129.49	3.6870	3.6871	2.5904	25.81	-0.14	0.750			
0.5881	37637.61	3.6840	3.6838	2.6908	25.81	-0.14	0.750			
0.5963	38164.11	3.6810	3.6809	2.7535	25.81	-0.14	0.750			
0.6048	38707.14	3.6780	3.6782	2.8508	25.80	-0.15	0.750			
0.6136	39273.07	3.6750	3.6750	2.8469	25.78	-0.17	0.750			
0.6225	39837.21	3.6720	3.6721	2.7595	25.77	-0.18	0.750			
0.6308	40368.73	3.6690	3.6690	2.6038	25.77	-0.18	0.750			
0.6382	40846.12	3.6660	3.6659	2.3546	25.78	-0.17	0.750			
0.6448	41269.70	3.6630	3.6629	2.1181	25.79	-0.16	0.750			
0.6506	41639.54	3.6600	3.6598	1.9204	25.79	-0.16	0.750			
0.6559	41980.26	3.6570	3.6571	1.7313	25.79	-0.16	0.750			
0.6607	42282.10	3.6540	3.6540	1.5974	25.79	-0.16	0.750			
0.6653	42579.75	3.6510	3.6511	1.4987	25.80	-0.15	0.750			
0.6697	42860.85	3.6480	3.6479	1.4006	25.80	-0.15	0.750			
0.6738	43123.11	3.6450	3.6450	1.3351	25.80	-0.15	0.750			
0.6775	43358.99	3.6420	3.6421	1.2653	25.79	-0.16	0.750			
0.6812	43594.98	3.6390	3.6391	1.2286	25.79	-0.16	0.750			
0.6847	43821.50	3.6360	3.6361	1.1959	25.79	-0.16	0.750			
0.6882	44047.58	3.6330	3.6331	1.1905	25.79	-0.16	0.750			
0.6918	44274.52	3.6300	3.6300	1.1949	25.80	-0.15	0.750			
0.6954	44506.09	3.6270	3.6268	1.1916	25.80	-0.15	0.750			
0.6990	44734.38	3.6240	3.6240	1.1949	25.80	-0.15	0.750			
0.7026	44966.33	3.6210	3.6211	1.1940	25.79	-0.16	0.750			
0.7062	45199.86	3.6180	3.6180	1.1928	25.79	-0.16	0.750			
0.7098	45429.80	3.6150	3.6152	1.1636	25.79	-0.16	0.750			
0.7133	45649.11	3.6120	3.6120	1.1490	25.79	-0.16	0.750			
0.7167	45866.44	3.6090	3.6091	1.1357	25.79	-0.16	0.750			
0.7200	46080.87	3.6060	3.6059	1.1312	25.79	-0.16	0.750			
0.7233	46293.57	3.6030	3.6030	1.1321	25.79	-0.16	0.750			
0.7267	46508.87	3.6000	3.6001	1.1498	25.79	-0.16	0.750			
0.7302	46730.88	3.5970	3.5970	1.1767	25.79	-0.16	0.750			
0.7337	46959.42	3.5940	3.5940	1.2006	25.79	-0.16	0.750			
0.7373	47188.62	3.5910	3.5910	1.2446	25.79	-0.16	0.750			
0.7411	47430.64	3.5880	3.5881	1.2896	25.79	-0.16	0.750			
0.7451	47683.65	3.5850	3.5848	1.3314	25.79	-0.16	0.750			
0.7492	47947.09	3.5820	3.5820	1.3676	25.79	-0.16	0.750			
0.7534	48215.01	3.5790	3.5791	1.4081	25.79	-0.16	0.750			
0.7576	48487.73	3.5760	3.5758	1.4511	25.79	-0.16	0.750			
0.7620	48769.60	3.5730	3.5731	1.4729	25.79	-0.16	0.750			
0.7665	49053.04	3.5700	3.5700	1.5331	25.78	-0.17	0.750			
0.7711	49348.54	3.5670	3.5668	1.5801	25.78	-0.17	0.750			
0.7759	49656.15	3.5640	3.5641	1.6289	25.78	-0.17	0.750			
0.7809	49980.43	3.5610	3.5614	1.6439	25.77	-0.18	0.750			
0.7860	50304.75	3.5580	3.5579	1.6502	25.77	-0.18	0.750			
0.7910	50625.46	3.5550	3.5554	1.6700	25.77	-0.18	0.750			
0.7960	50945.61	3.5520	3.5517	1.6871	25.77	-0.18	0.750			
0.8011	51269.27	3.5490	3.5489	1.7092	25.77	-0.18	0.750			
0.8061	51590.96	3.5460	3.5462	1.7211	25.77	-0.18	0.750			
0.8113	51925.30	3.5430	3.5433	1.7761	25.77	-0.18	0.750			
0.8169	52279.19	3.5400	3.5400	1.7738	25.78	-0.17	0.750			
0.8226	52647.85	3.5370	3.5367	1.6858	25.79	-0.16	0.750			
0.8279	52985.66	3.5340	3.5339	1.5482	25.80	-0.15	0.750			
0.8324	53274.78	3.5310	3.5313	1.3101	25.81	-0.14	0.750			
0.8363	53521.80	3.5280	3.5284	1.0629	25.82	-0.13	0.750			
0.8389	53691.16	3.5250	3.5248	0.7911	25.84	-0.11	0.750			
0.8404	53786.36	3.5220	3.5216	0.5797	25.84	-0.11	0.750			
0.8416	53863.61	3.5190	3.5189	0.4391	25.85	-0.10	0.750			
0.8427	53932.96	3.5160	3.5161	0.3859	25.86	-0.09	0.750			
0.8437	53999.12	3.5130	3.5129	0.3520	25.86	-0.09	0.750			
0.8447	54060.89	3.5100	3.5099	0.3276	25.87	-0.08	0.750			
0.8456	54120.20	3.5070	3.5071	0.3130	25.87	-0.08	0.750			
0.8465	54178.12	3.5040	3.5039	0.3030	25.88	-0.07	0.750			
0.8474	54236.43	3.5010	3.5011	0.2958	25.88	-0.07	0.750			
0.8483	54292.46	3.4980	3.4979	0.2861	25.89	-0.06	0.750			
0.8492	54346.41	3.4950	3.4951	0.2773	25.89	-0.06	0.750			
0.8500	54399.21	3.4920	3.4920	0.2707	25.90	-0.05	0.750			
0.8508	54449.57	3.4890	3.4890	0.2624	25.90	-0.05	0.750			
0.8515	54498.82	3.4860	3.4859	0.2564	25.91	-0.04	0.750			
0.8523	54547.04	3.4830	3.4830	0.2506	25.91	-0.04	0.750			
0.8530	54594.66	3.4800	3.4800	0.2457	25.92	-0.03	0.750			
0.8538	54641.64	3.4770	3.4770	0.2417	25.92	-0.03	0.750			
0.8545	54687.90	3.4740	3.4740	0.2366	25.93	-0.02	0.750			
0.8552	54732.77	3.4710	3.4710	0.2313	25.93	-0.02	0.750			
0.8559	54776.68	3.4680	3.4680	0.2258	25.94	-0.01	0.750			
0.8566	54819.25	3.4650	3.4650	0.2208	25.94	-0.01	0.750			
0.8572	54861.02	3.4620	3.4620	0.2158	25.94	-0.01	0.750			
0.8578	54901.78	3.4590	3.4591	0.2121	25.95	-0.00	0.750			
0.8585	54942.27	3.4560	3.4559	0.2070	25.95	0.00	0.750			
0.8591	54981.76	3.4530	3.4530	0.2023	25.96	0.01	0.750			
0.8597	55020.41	3.4500	3.4499	0.1979	25.96	0.01	0.750			
0.8603	55058.20	3.4470	3.4471	0.1925	25.96	0.01	0.750			
0.8609	55094.72	3.4440	3.4440	0.1872	25.97	0.02	0.750			
0.8614	55129.95	3.4410	3.4410	0.1808	25.97	0.02	0.750			
0.8619	55164.00	3.4380	3.4379	0.1756	25.97	0.02	0.750			
0.8625	55196.82	3.4350	3.4350	0.1701	25.98	0.03	0.750			
0.8630	55229.14	3.4320	3.4320	0.1658	25.98	0.03	0.750			
0.8634	55260.51	3.4290	3.4290	0.1610	25.98	0.03	0.750			
0.8639	55291.04	3.4260	3.4260	0.1545	25.99	0.04	0.750			
0.8644	55320.42	3.4230	3.4230	0.1490	25.99	0.04	0.750			
0.8648	55348.41	3.4200	3.4201	0.1433	25.99	0.04	0.750			
0.8652	55375.33	3.4170	3.4169	0.1372	26.00	0.05	0.750			
0.8656	55401.08	3.4140	3.4140	0.1308	26.00	0.05	0.750			
0.8660	55425.55	3.4110	3.4110	0.1246	26.00	0.05	0.750			
0.8664	55449.11	3.4080	3.4080	0.1175	26.00	0.05	0.750			
0.8667	55471.01	3.4050	3.4051	0.1106	26.00	0.05	0.750			
0.8671	55493.55	3.4020	3.4019	0.1011	26.01	0.06	0.750			
0.8674	55512.30	3.3990	3.3989	0.0919	26.01	0.06	0.750			
0.8676	55528.86	3.3960	3.3961	0.0806	26.01	0.06	0.750			
0.8679	55544.00	3.3930	3.3932	0.0704	26.01	0.06	0.750			
0.8681	55556.37	3.3900	3.3905	0.0584	26.01	0.06	0.750			
0.8682	55567.50	3.3870	3.3876	0.0465	26.01	0.06	0.750			
0.8684	55575.18	3.3840	3.3853	0.0334	26.01	0.06	0.750			
0.8684	55580.34	3.3810	3.3829	0.0204	26.02	0.07	0.750			
0.8685	55583.01	3.3780	3.3811	0.0074	26.02	0.07	0.750			
