Ah_balance (normalized)	Ah_balance (mAh)	Voltage - fit (V)	Voltage -  interpolate (V)	dQ/dV (1/V)	Temperature (°C)	Temperature - diff (°C)	Current (C)	R_DC 0ms (mOhm)	R_DC 50ms (mOhm)	R_DC 50 ms PEC (mOhm)
0.0521	3333.86	4.1980	4.1980	0.7265	26.73	0.73	0.750			
0.0543	3476.44	4.1950	4.1949	0.7513	26.73	0.73	0.750			
0.0566	3623.60	4.1920	4.1919	0.7606	26.73	0.73	0.750			
0.0589	3769.63	4.1890	4.1891	0.7614	26.73	0.73	0.750			
0.0612	3917.14	4.1860	4.1860	0.7619	26.73	0.73	0.750			
0.0635	4062.73	4.1830	4.1830	0.7634	26.73	0.73	0.750			
0.0657	4207.14	4.1800	4.1799	0.7589	26.73	0.73	0.750			
0.0680	4353.70	4.1770	4.1769	0.7618	26.73	0.73	0.750			
0.0703	4500.87	4.1740	4.1739	0.7642	26.73	0.73	0.750			
0.0726	4648.10	4.1710	4.1711	0.7647	26.73	0.73	0.750			
0.0749	4794.98	4.1680	4.1682	0.7690	26.72	0.72	0.750			
0.0772	4943.25	4.1650	4.1649	0.7745	26.72	0.72	0.750			
0.0796	5091.44	4.1620	4.1620	0.7755	26.72	0.72	0.750			
0.0819	5240.97	4.1590	4.1590	0.7770	26.72	0.72	0.750			
0.0842	5390.16	4.1560	4.1562	0.7795	26.72	0.72	0.750			
0.0866	5541.75	4.1530	4.1529	0.7796	26.72	0.72	0.750			
0.0889	5690.64	4.1500	4.1500	0.7810	26.72	0.72	0.750			
0.0912	5838.42	4.1470	4.1470	0.7821	26.72	0.72	0.750			
0.0936	5989.19	4.1440	4.1438	0.7860	26.72	0.72	0.750			
0.0960	6141.45	4.1410	4.1410	0.7915	26.72	0.72	0.750			
0.0984	6295.13	4.1380	4.1380	0.7887	26.72	0.72	0.750			
0.1007	6447.11	4.1350	4.1350	0.7889	26.72	0.72	0.750			
0.1031	6599.07	4.1320	4.1321	0.7865	26.72	0.72	0.750			
0.1054	6747.74	4.1290	4.1289	0.7821	26.72	0.72	0.750			
0.1078	6896.70	4.1260	4.1260	0.7853	26.72	0.72	0.750			
0.1101	7048.47	4.1230	4.1230	0.7821	26.72	0.72	0.750			
0.1125	7197.47	4.1200	4.1200	0.7863	26.72	0.72	0.750			
0.1149	7350.75	4.1170	4.1170	0.7917	26.72	0.72	0.750			
0.1172	7501.02	4.1140	4.1142	0.7928	26.72	0.72	0.750			
0.1196	7655.30	4.1110	4.1110	0.7951	26.72	0.72	0.750			
0.1220	7807.67	4.1080	4.1080	0.7958	26.72	0.72	0.750			
0.1244	7960.72	4.1050	4.1051	0.7981	26.72	0.72	0.750			
0.1268	8114.43	4.1020	4.1020	0.8068	26.72	0.72	0.750			
0.1292	8268.07	4.0990	4.0990	0.8034	26.72	0.72	0.750			
0.1316	8423.68	4.0960	4.0961	0.8048	26.72	0.72	0.750			
0.1340	8577.90	4.0930	4.0930	0.8046	26.72	0.72	0.750			
0.1365	8734.47	4.0900	4.0901	0.8021	26.72	0.72	0.750			
0.1388	8885.44	4.0870	4.0870	0.8045	26.72	0.72	0.750			
0.1412	9038.86	4.0840	4.0841	0.8058	26.72	0.72	0.750			
0.1436	9192.76	4.0810	4.0805	0.8116	26.72	0.72	0.750			
0.1461	9349.66	4.0780	4.0782	0.8209	26.72	0.72	0.750			
0.1486	9509.49	4.0750	4.0750	0.8156	26.72	0.72	0.750			
0.1510	9666.84	4.0720	4.0719	0.8232	26.72	0.72	0.750			
0.1535	9822.58	4.0690	4.0692	0.8174	26.72	0.72	0.750			
0.1560	9980.92	4.0660	4.0656	0.8205	26.72	0.72	0.750			
0.1584	10138.73	4.0630	4.0631	0.8271	26.72	0.72	0.750			
0.1609	10297.99	4.0600	4.0601	0.8276	26.72	0.72	0.750			
0.1634	10457.56	4.0570	4.0569	0.8348	26.73	0.73	0.750			
0.1659	10617.92	4.0540	4.0540	0.8350	26.73	0.73	0.750			
0.1684	10778.28	4.0510	4.0508	0.8388	26.73	0.73	0.750			
0.1709	10940.55	4.0480	4.0481	0.8446	26.73	0.73	0.750			
0.1735	11103.96	4.0450	4.0450	0.8440	26.73	0.73	0.750			
0.1760	11265.16	4.0420	4.0420	0.8446	26.72	0.72	0.750			
0.1785	11426.50	4.0390	4.0391	0.8462	26.72	0.72	0.750			
0.1811	11589.62	4.0360	4.0358	0.8500	26.72	0.72	0.750			
0.1837	11754.37	4.0330	4.0330	0.8497	26.72	0.72	0.750			
0.1862	11916.85	4.0300	4.0300	0.8543	26.72	0.72	0.750			
0.1888	12081.40	4.0270	4.0271	0.8602	26.72	0.72	0.750			
0.1914	12246.56	4.0240	4.0241	0.8602	26.72	0.72	0.750			
0.1939	12411.46	4.0210	4.0209	0.8665	26.72	0.72	0.750			
0.1966	12581.27	4.0180	4.0181	0.8604	26.72	0.72	0.750			
0.1992	12746.79	4.0150	4.0150	0.8690	26.72	0.72	0.750			
0.2018	12913.50	4.0120	4.0121	0.8710	26.72	0.72	0.750			
0.2044	13079.80	4.0090	4.0091	0.8740	26.72	0.72	0.750			
0.2070	13247.44	4.0060	4.0061	0.8758	26.72	0.72	0.750			
0.2096	13416.92	4.0030	4.0030	0.8777	26.72	0.72	0.750			
0.2123	13584.54	4.0000	4.0000	0.8833	26.72	0.72	0.750			
0.2149	13756.42	3.9970	3.9971	0.8898	26.73	0.73	0.750			
0.2176	13926.63	3.9940	3.9938	0.8874	26.73	0.73	0.750			
0.2203	14097.02	3.9910	3.9910	0.8980	26.73	0.73	0.750			
0.2230	14269.65	3.9880	3.9881	0.8973	26.73	0.73	0.750			
0.2257	14444.11	3.9850	3.9850	0.9010	26.72	0.72	0.750			
0.2284	14618.71	3.9820	3.9820	0.9033	26.72	0.72	0.750			
0.2311	14791.45	3.9790	3.9790	0.8965	26.72	0.72	0.750			
0.2338	14963.89	3.9760	3.9760	0.8955	26.72	0.72	0.750			
0.2365	15135.14	3.9730	3.9730	0.8940	26.72	0.72	0.750			
0.2391	15304.10	3.9700	3.9700	0.8957	26.72	0.72	0.750			
0.2418	15476.73	3.9670	3.9670	0.8996	26.72	0.72	0.750			
0.2445	15650.46	3.9640	3.9640	0.9047	26.72	0.72	0.750			
0.2473	15826.35	3.9610	3.9610	0.8959	26.72	0.72	0.750			
0.2500	15998.87	3.9580	3.9580	0.9052	26.72	0.72	0.750			
0.2527	16171.27	3.9550	3.9550	0.9089	26.72	0.72	0.750			
0.2554	16343.65	3.9520	3.9519	0.9156	26.72	0.72	0.750			
0.2582	16522.89	3.9490	3.9490	0.9096	26.72	0.72	0.750			
0.2609	16697.77	3.9460	3.9461	0.9173	26.72	0.72	0.750			
0.2637	16874.42	3.9430	3.9431	0.9220	26.73	0.73	0.750			
0.2665	17054.15	3.9400	3.9401	0.9271	26.73	0.73	0.750			
0.2692	17228.00	3.9370	3.9368	0.9189	26.73	0.73	0.750			
0.2719	17404.09	3.9340	3.9341	0.9228	26.73	0.73	0.750			
0.2747	17581.20	3.9310	3.9310	0.9249	26.73	0.73	0.750			
0.2775	17762.52	3.9280	3.9280	0.9315	26.72	0.72	0.750			
0.2803	17940.25	3.9250	3.9249	0.9286	26.72	0.72	0.750			
0.2831	18120.86	3.9220	3.9221	0.9244	26.72	0.72	0.750			
0.2859	18297.64	3.9190	3.9190	0.9279	26.72	0.72	0.750			
0.2887	18474.36	3.9160	3.9160	0.9281	26.71	0.71	0.750			
0.2914	18651.40	3.9130	3.9130	0.9342	26.71	0.71	0.750			
0.2942	18831.67	3.9100	3.9099	0.9351	26.71	0.71	0.750			
0.2971	19011.67	3.9070	3.9070	0.9336	26.71	0.71	0.750			
0.2998	19190.15	3.9040	3.9041	0.9392	26.70	0.70	0.750			
0.3027	19371.67	3.9010	3.9012	0.9460	26.70	0.70	0.750			
0.3055	19551.87	3.8980	3.8978	0.9446	26.70	0.70	0.750			
0.3084	19735.45	3.8950	3.8950	0.9424	26.70	0.70	0.750			
0.3112	19916.18	3.8920	3.8921	0.9480	26.69	0.69	0.750			
0.3141	20100.72	3.8890	3.8890	0.9583	26.69	0.69	0.750			
0.3169	20282.60	3.8860	3.8861	0.9536	26.68	0.68	0.750			
0.3198	20466.51	3.8830	3.8830	0.9590	26.68	0.68	0.750			
0.3226	20649.55	3.8800	3.8800	0.9672	26.67	0.67	0.750			
0.3256	20837.00	3.8770	3.8770	0.9771	26.67	0.67	0.750			
0.3286	21027.62	3.8740	3.8740	0.9842	26.66	0.66	0.750			
0.3315	21214.15	3.8710	3.8710	0.9909	26.66	0.66	0.750			
0.3345	21405.67	3.8680	3.8681	0.9975	26.65	0.65	0.750			
0.3375	21597.25	3.8650	3.8649	1.0067	26.64	0.64	0.750			
0.3405	21792.64	3.8620	3.8620	1.0102	26.63	0.63	0.750			
0.3435	21986.87	3.8590	3.8588	1.0158	26.62	0.62	0.750			
0.3466	22183.40	3.8560	3.8560	1.0210	26.62	0.62	0.750			
0.3497	22379.29	3.8530	3.8530	1.0292	26.61	0.61	0.750			
0.3527	22574.74	3.8500	3.8500	1.0304	26.61	0.61	0.750			
0.3558	22774.21	3.8470	3.8467	1.0339	26.60	0.60	0.750			
0.3590	22974.02	3.8440	3.8441	1.0365	26.59	0.59	0.750			
0.3621	23173.73	3.8410	3.8410	1.0471	26.58	0.58	0.750			
0.3652	23373.86	3.8380	3.8381	1.0547	26.57	0.57	0.750			
0.3684	23577.92	3.8350	3.8347	1.0636	26.56	0.56	0.750			
0.3716	23780.09	3.8320	3.8321	1.0630	26.55	0.55	0.750			
0.3748	23985.91	3.8290	3.8291	1.0779	26.54	0.54	0.750			
0.3780	24195.09	3.8260	3.8261	1.0899	26.53	0.53	0.750			
0.3814	24407.18	3.8230	3.8227	1.0873	26.52	0.52	0.750			
0.3846	24613.91	3.8200	3.8200	1.0843	26.51	0.51	0.750			
0.3878	24822.33	3.8170	3.8171	1.0919	26.50	0.50	0.750			
0.3911	25032.91	3.8140	3.8141	1.1000	26.49	0.49	0.750			
0.3945	25246.12	3.8110	3.8108	1.0830	26.48	0.48	0.750			
0.3977	25452.24	3.8080	3.8080	1.0943	26.47	0.47	0.750			
0.4010	25661.00	3.8050	3.8052	1.1035	26.46	0.46	0.750			
0.4043	25873.83	3.8020	3.8021	1.1180	26.45	0.45	0.750			
0.4076	26089.32	3.7990	3.7991	1.1194	26.43	0.43	0.750			
0.4110	26302.75	3.7960	3.7961	1.1365	26.42	0.42	0.750			
0.4144	26522.54	3.7930	3.7931	1.1507	26.41	0.41	0.750			
0.4180	26748.83	3.7900	3.7898	1.1605	26.39	0.39	0.750			
0.4214	26970.99	3.7870	3.7871	1.1676	26.38	0.38	0.750			
0.4249	27196.05	3.7840	3.7841	1.1849	26.37	0.37	0.750			
0.4285	27423.81	3.7810	3.7811	1.2008	26.36	0.36	0.750			
0.4321	27656.33	3.7780	3.7780	1.2001	26.35	0.35	0.750			
0.4357	27885.59	3.7750	3.7751	1.2225	26.33	0.33	0.750			
0.4394	28123.55	3.7720	3.7721	1.2423	26.32	0.32	0.750			
0.4432	28364.73	3.7690	3.7686	1.2612	26.31	0.31	0.750			
0.4469	28601.01	3.7660	3.7661	1.3114	26.30	0.30	0.750			
0.4509	28857.24	3.7630	3.7631	1.3651	26.29	0.29	0.750			
0.4551	29127.67	3.7600	3.7599	1.3965	26.27	0.27	0.750	0.320	0.402	
0.4594	29404.06	3.7570	3.7572	1.4158	26.26	0.26	0.750			
0.4638	29681.02	3.7540	3.7542	1.4440	26.25	0.25	0.750			
0.4681	29960.46	3.7510	3.7509	1.4798	26.23	0.23	0.750			
0.4724	30235.50	3.7480	3.7482	1.4931	26.22	0.22	0.750			
0.4770	30528.00	3.7450	3.7449	1.5416	26.20	0.20	0.750			
0.4817	30831.68	3.7420	3.7419	1.5798	26.19	0.19	0.750			
0.4866	31143.38	3.7390	3.7391	1.6226	26.17	0.17	0.750			
0.4916	31459.37	3.7360	3.7361	1.6616	26.16	0.16	0.750			
0.4966	31782.10	3.7330	3.7331	1.6856	26.14	0.14	0.750			
0.5016	32104.54	3.7300	3.7300	1.7133	26.12	0.12	0.750			
0.5069	32439.21	3.7270	3.7269	1.7621	26.11	0.11	0.750			
0.5122	32778.93	3.7240	3.7239	1.8190	26.09	0.09	0.750			
0.5177	33133.05	3.7210	3.7210	1.8624	26.07	0.07	0.750			
0.5233	33494.24	3.7180	3.7179	1.9260	26.05	0.05	0.750			
0.5293	33872.69	3.7150	3.7151	1.9785	26.04	0.04	0.750			
0.5353	34262.30	3.7120	3.7119	2.0360	26.02	0.02	0.750			
0.5415	34657.15	3.7090	3.7090	2.0973	26.00	-0.00	0.750			
0.5479	35063.59	3.7060	3.7059	2.1783	25.98	-0.02	0.750			
0.5544	35484.22	3.7030	3.7031	2.2545	25.95	-0.05	0.750			
0.5614	35929.08	3.7000	3.6999	2.3153	25.93	-0.07	0.750			
0.5685	36381.61	3.6970	3.6971	2.3772	25.91	-0.09	0.750			
0.5757	36844.36	3.6940	3.6941	2.4650	25.90	-0.10	0.750			
0.5833	37333.53	3.6910	3.6908	2.4881	25.88	-0.12	0.750			
0.5907	37806.20	3.6880	3.6880	2.5230	25.86	-0.14	0.750			
0.5984	38298.27	3.6850	3.6851	2.6217	25.84	-0.16	0.750			
0.6064	38809.51	3.6820	3.6818	2.7373	25.83	-0.17	0.750			
0.6146	39335.70	3.6790	3.6793	2.8270	25.82	-0.18	0.750			
0.6235	39903.06	3.6760	3.6760	2.9418	25.80	-0.20	0.750			
0.6324	40472.95	3.6730	3.6730	3.0053	25.79	-0.21	0.750			
0.6416	41061.19	3.6700	3.6699	3.0560	25.78	-0.22	0.750			
0.6509	41659.66	3.6670	3.6670	3.0431	25.77	-0.23	0.750			
0.6603	42259.17	3.6640	3.6638	2.9843	25.76	-0.24	0.750			
0.6693	42833.25	3.6610	3.6613	2.7528	25.75	-0.25	0.750			
0.6770	43325.66	3.6580	3.6581	2.4541	25.76	-0.24	0.750			
0.6838	43760.06	3.6550	3.6552	2.1765	25.76	-0.24	0.750			
0.6896	44134.00	3.6520	3.6520	1.9163	25.76	-0.24	0.750			
0.6947	44459.32	3.6490	3.6490	1.7300	25.76	-0.24	0.750			
0.6997	44780.52	3.6460	3.6458	1.6151	25.76	-0.24	0.750			
0.7043	45078.15	3.6430	3.6431	1.5043	25.77	-0.23	0.750			
0.7087	45359.29	3.6400	3.6402	1.4110	25.77	-0.23	0.750			
0.7128	45616.77	3.6370	3.6370	1.3332	25.76	-0.24	0.750			
0.7166	45863.70	3.6340	3.6340	1.2722	25.76	-0.24	0.750			
0.7202	46092.08	3.6310	3.6310	1.2235	25.76	-0.24	0.750			
0.7237	46315.17	3.6280	3.6280	1.1980	25.76	-0.24	0.750			
0.7272	46542.11	3.6250	3.6251	1.2048	25.77	-0.23	0.750			
0.7308	46772.91	3.6220	3.6217	1.2128	25.77	-0.23	0.750			
0.7345	47005.84	3.6190	3.6190	1.2119	25.77	-0.23	0.750			
0.7381	47239.92	3.6160	3.6161	1.2165	25.77	-0.23	0.750			
0.7419	47478.50	3.6130	3.6131	1.2162	25.77	-0.23	0.750			
0.7455	47712.59	3.6100	3.6101	1.1986	25.77	-0.23	0.750			
0.7491	47940.57	3.6070	3.6071	1.1833	25.77	-0.23	0.750			
0.7526	48167.40	3.6040	3.6041	1.1708	25.77	-0.23	0.750			
0.7562	48394.06	3.6010	3.6009	1.1660	25.77	-0.23	0.750			
0.7595	48607.92	3.5980	3.5980	1.1544	25.77	-0.23	0.750			
0.7629	48826.81	3.5950	3.5950	1.1654	25.77	-0.23	0.750			
0.7664	49050.77	3.5920	3.5920	1.1879	25.77	-0.23	0.750			
0.7700	49278.93	3.5890	3.5891	1.2187	25.77	-0.23	0.750			
0.7736	49512.42	3.5860	3.5860	1.2503	25.77	-0.23	0.750			
0.7775	49759.49	3.5830	3.5830	1.2861	25.77	-0.23	0.750			
0.7814	50009.13	3.5800	3.5797	1.3323	25.77	-0.23	0.750			
0.7855	50269.90	3.5770	3.5771	1.3666	25.76	-0.24	0.750			
0.7896	50536.51	3.5740	3.5740	1.4153	25.76	-0.24	0.750			
0.7940	50813.94	3.5710	3.5709	1.4607	25.75	-0.25	0.750			
0.7984	51094.81	3.5680	3.5679	1.5005	25.75	-0.25	0.750			
0.8030	51393.36	3.5650	3.5651	1.5404	25.76	-0.24	0.750			
0.8077	51694.66	3.5620	3.5621	1.5658	25.76	-0.24	0.750			
0.8124	51995.83	3.5590	3.5592	1.5847	25.75	-0.25	0.750			
0.8173	52304.63	3.5560	3.5560	1.6158	25.75	-0.25	0.750			
0.8221	52612.32	3.5530	3.5527	1.6358	25.75	-0.25	0.750			
0.8270	52930.56	3.5500	3.5499	1.6547	25.75	-0.25	0.750			
0.8321	53254.53	3.5470	3.5469	1.6733	25.75	-0.25	0.750			
0.8372	53581.76	3.5440	3.5438	1.6847	25.75	-0.25	0.750			
0.8423	53904.57	3.5410	3.5411	1.6934	25.76	-0.24	0.750			
0.8473	54230.25	3.5380	3.5382	1.7401	25.76	-0.24	0.750			
0.8526	54563.39	3.5350	3.5350	1.7655	25.77	-0.23	0.750			
0.8582	54925.92	3.5320	3.5317	1.6998	25.77	-0.23	0.750			
0.8636	55268.97	3.5290	3.5294	1.5972	25.78	-0.22	0.750			
0.8684	55579.57	3.5260	3.5264	1.3682	25.79	-0.21	0.750			
0.8726	55845.72	3.5230	3.5234	1.1221	25.81	-0.19	0.750			
0.8753	56021.79	3.5200	3.5200	0.8667	25.82	-0.18	0.750			
0.8772	56142.75	3.5170	3.5166	0.6386	25.83	-0.17	0.750			
0.8783	56213.38	3.5140	3.5139	0.4763	25.84	-0.16	0.750			
0.8795	56289.49	3.5110	3.5107	0.4038	25.84	-0.16	0.750			
0.8805	56354.70	3.5080	3.5080	0.3556	25.85	-0.15	0.750			
0.8815	56418.99	3.5050	3.5050	0.3356	25.85	-0.15	0.750			
0.8825	56481.07	3.5020	3.5022	0.3180	25.86	-0.14	0.750			
0.8834	56540.00	3.4990	3.4989	0.3044	25.87	-0.13	0.750			
0.8843	56596.68	3.4960	3.4959	0.2922	25.87	-0.13	0.750			
0.8852	56650.42	3.4930	3.4931	0.2825	25.88	-0.12	0.750			
0.8860	56703.28	3.4900	3.4899	0.2755	25.88	-0.12	0.750			
0.8868	56756.06	3.4870	3.4870	0.2708	25.89	-0.11	0.750			
0.8876	56807.19	3.4840	3.4840	0.2644	25.89	-0.11	0.750			
0.8884	56857.77	3.4810	3.4810	0.2598	25.90	-0.10	0.750			
0.8892	56907.20	3.4780	3.4780	0.2548	25.90	-0.10	0.750			
0.8899	56955.54	3.4750	3.4750	0.2495	25.91	-0.09	0.750			
0.8907	57002.85	3.4720	3.4719	0.2437	25.91	-0.09	0.750			
0.8914	57048.62	3.4690	3.4690	0.2386	25.92	-0.08	0.750			
0.8921	57093.81	3.4660	3.4661	0.2340	25.92	-0.08	0.750			
0.8928	57138.33	3.4630	3.4630	0.2299	25.93	-0.07	0.750			
0.8935	57182.09	3.4600	3.4598	0.2263	25.93	-0.07	0.750			
0.8941	57224.97	3.4570	3.4570	0.2223	25.93	-0.07	0.750			
0.8948	57267.15	3.4540	3.4540	0.2187	25.94	-0.06	0.750			
0.8955	57309.26	3.4510	3.4510	0.2141	25.94	-0.06	0.750			
0.8961	57350.31	3.4480	3.4480	0.2093	25.94	-0.06	0.750			
0.8967	57390.00	3.4450	3.4452	0.2034	25.95	-0.05	0.750			
0.8973	57428.50	3.4420	3.4419	0.1976	25.95	-0.05	0.750			
0.8979	57466.05	3.4390	3.4390	0.1923	25.95	-0.05	0.750			
0.8985	57502.04	3.4360	3.4361	0.1870	25.96	-0.04	0.750			
0.8990	57537.10	3.4330	3.4330	0.1820	25.96	-0.04	0.750			
0.8996	57571.66	3.4300	3.4300	0.1780	25.96	-0.04	0.750			
0.9001	57605.53	3.4270	3.4270	0.1731	25.97	-0.03	0.750			
0.9006	57638.42	3.4240	3.4240	0.1683	25.97	-0.03	0.750			
0.9011	57670.55	3.4210	3.4210	0.1638	25.97	-0.03	0.750			
0.9016	57701.47	3.4180	3.4180	0.1583	25.98	-0.02	0.750			
0.9021	57731.43	3.4150	3.4149	0.1528	25.98	-0.02	0.750			
0.9025	57760.12	3.4120	3.4120	0.1473	25.98	-0.02	0.750			
0.9029	57787.90	3.4090	3.4090	0.1415	25.98	-0.02	0.750			
0.9034	57814.54	3.4060	3.4060	0.1360	25.99	-0.01	0.750			
0.9038	57840.50	3.4030	3.4030	0.1298	25.99	-0.01	0.750			
0.9041	57864.90	3.4000	3.4000	0.1235	25.99	-0.01	0.750			
0.9045	57888.17	3.3970	3.3970	0.1169	25.99	-0.01	0.750			
0.9048	57909.94	3.3940	3.3941	0.1098	25.99	-0.01	0.750			
0.9052	57931.39	3.3910	3.3909	0.1009	26.00	-0.00	0.750			
0.9055	57950.10	3.3880	3.3878	0.0924	26.00	-0.00	0.750			
0.9057	57966.91	3.3850	3.3850	0.0827	26.00	-0.00	0.750			
0.9060	57982.40	3.3820	3.3823	0.0735	26.00	0.00	0.750			
0.9062	57995.52	3.3790	3.3794	0.0631	26.00	0.00	0.750			
0.9064	58007.70	3.3760	3.3765	0.0516	26.00	0.00	0.750			
0.9065	58016.43	3.3730	3.3741	0.0394	26.00	0.00	0.750			
0.9066	58022.81	3.3700	3.3714	0.0271	26.00	0.00	0.750			
