Ah_balance (normalized)	Ah_balance (mAh)	Voltage - fit (V)	Voltage -  interpolate (V)	dQ/dV (1/V)	Temperature (°C)	Temperature - diff (°C)	Current (C)	R_DC 0ms (mOhm)	R_DC 50ms (mOhm)	R_DC 50 ms PEC (mOhm)
0.0002	14.87	4.1650	4.1653	-0.1397	25.75	0.01	-0.750			
0.0007	44.15	4.1620	4.1622	-0.1755	25.75	0.01	-0.750			
0.0013	83.50	4.1590	4.1590	-0.2212	25.75	0.01	-0.750			
0.0020	130.30	4.1560	4.1560	-0.2617	25.74	0.00	-0.750			
0.0029	184.48	4.1530	4.1529	-0.3020	25.74	0.00	-0.750			
0.0039	246.46	4.1500	4.1500	-0.3422	25.74	-0.00	-0.750			
0.0050	316.87	4.1470	4.1469	-0.3822	25.74	-0.00	-0.750			
0.0062	393.80	4.1440	4.1440	-0.4171	25.73	-0.01	-0.750			
0.0075	478.13	4.1410	4.1410	-0.4493	25.73	-0.01	-0.750			
0.0089	567.33	4.1380	4.1381	-0.4843	25.72	-0.02	-0.750			
0.0104	665.27	4.1350	4.1350	-0.5157	25.72	-0.02	-0.750			
0.0120	767.76	4.1320	4.1319	-0.5408	25.71	-0.03	-0.750			
0.0137	875.84	4.1290	4.1290	-0.5627	25.71	-0.03	-0.750			
0.0154	986.59	4.1260	4.1260	-0.5817	25.70	-0.04	-0.750			
0.0172	1101.68	4.1230	4.1230	-0.5968	25.70	-0.04	-0.750			
0.0190	1217.07	4.1200	4.1200	-0.6107	25.70	-0.04	-0.750			
0.0208	1333.14	4.1170	4.1170	-0.6251	25.69	-0.05	-0.750			
0.0227	1455.52	4.1140	4.1139	-0.6410	25.69	-0.05	-0.750			
0.0247	1581.94	4.1110	4.1109	-0.6526	25.69	-0.05	-0.750			
0.0267	1708.61	4.1080	4.1080	-0.6626	25.68	-0.06	-0.750			
0.0287	1838.00	4.1050	4.1051	-0.6747	25.68	-0.06	-0.750			
0.0308	1968.99	4.1020	4.1020	-0.6824	25.67	-0.07	-0.750			
0.0328	2098.39	4.0990	4.0989	-0.6853	25.67	-0.07	-0.750			
0.0349	2231.00	4.0960	4.0960	-0.6905	25.66	-0.08	-0.750			
0.0370	2365.52	4.0930	4.0930	-0.6970	25.66	-0.08	-0.750			
0.0391	2499.76	4.0900	4.0900	-0.7000	25.65	-0.09	-0.750			
0.0412	2633.69	4.0870	4.0873	-0.7044	25.65	-0.09	-0.750			
0.0433	2768.88	4.0840	4.0839	-0.7092	25.65	-0.09	-0.750			
0.0454	2905.03	4.0810	4.0810	-0.7147	25.65	-0.09	-0.750			
0.0476	3044.71	4.0780	4.0780	-0.7156	25.64	-0.10	-0.750			
0.0497	3183.25	4.0750	4.0750	-0.7210	25.64	-0.10	-0.750			
0.0519	3321.57	4.0720	4.0719	-0.7224	25.64	-0.10	-0.750			
0.0541	3459.59	4.0690	4.0691	-0.7242	25.64	-0.10	-0.750			
0.0562	3598.78	4.0660	4.0658	-0.7231	25.64	-0.10	-0.750			
0.0584	3736.82	4.0630	4.0631	-0.7320	25.64	-0.10	-0.750			
0.0606	3878.07	4.0600	4.0600	-0.7352	25.64	-0.10	-0.750			
0.0628	4022.29	4.0570	4.0569	-0.7405	25.64	-0.10	-0.750			
0.0651	4164.31	4.0540	4.0540	-0.7407	25.64	-0.10	-0.750			
0.0673	4306.95	4.0510	4.0510	-0.7414	25.64	-0.10	-0.750			
0.0695	4449.31	4.0480	4.0480	-0.7432	25.64	-0.10	-0.750			
0.0717	4591.60	4.0450	4.0449	-0.7508	25.64	-0.10	-0.750			
0.0740	4735.00	4.0420	4.0420	-0.7463	25.64	-0.10	-0.750			
0.0763	4881.25	4.0390	4.0389	-0.7533	25.64	-0.10	-0.750			
0.0785	5025.50	4.0360	4.0363	-0.7560	25.64	-0.10	-0.750			
0.0808	5170.24	4.0330	4.0329	-0.7588	25.64	-0.10	-0.750			
0.0831	5316.99	4.0300	4.0300	-0.7579	25.64	-0.10	-0.750			
0.0853	5462.12	4.0270	4.0270	-0.7528	25.64	-0.10	-0.750			
0.0876	5608.23	4.0240	4.0241	-0.7553	25.64	-0.10	-0.750			
0.0899	5753.17	4.0210	4.0210	-0.7590	25.64	-0.10	-0.750			
0.0921	5897.15	4.0180	4.0180	-0.7583	25.64	-0.10	-0.750			
0.0944	6041.01	4.0150	4.0149	-0.7646	25.64	-0.10	-0.750			
0.0967	6187.32	4.0120	4.0121	-0.7695	25.64	-0.10	-0.750			
0.0990	6337.45	4.0090	4.0089	-0.7763	25.64	-0.10	-0.750			
0.1014	6487.51	4.0060	4.0060	-0.7835	25.64	-0.10	-0.750			
0.1038	6640.20	4.0030	4.0032	-0.7820	25.64	-0.10	-0.750			
0.1061	6789.40	4.0000	3.9999	-0.7815	25.64	-0.10	-0.750			
0.1084	6940.17	3.9970	3.9971	-0.7839	25.64	-0.10	-0.750			
0.1108	7090.95	3.9940	3.9939	-0.7822	25.65	-0.09	-0.750			
0.1131	7241.17	3.9910	3.9909	-0.7853	25.65	-0.09	-0.750			
0.1155	7391.22	3.9880	3.9880	-0.7870	25.65	-0.09	-0.750			
0.1178	7541.89	3.9850	3.9850	-0.7871	25.65	-0.09	-0.750			
0.1202	7693.68	3.9820	3.9820	-0.7942	25.66	-0.08	-0.750			
0.1226	7845.78	3.9790	3.9790	-0.7921	25.66	-0.08	-0.750			
0.1250	7998.36	3.9760	3.9760	-0.7946	25.66	-0.08	-0.750			
0.1274	8152.37	3.9730	3.9730	-0.7976	25.67	-0.07	-0.750			
0.1298	8305.09	3.9700	3.9700	-0.7956	25.67	-0.07	-0.750			
0.1321	8455.70	3.9670	3.9670	-0.8030	25.67	-0.07	-0.750			
0.1346	8611.66	3.9640	3.9638	-0.8053	25.67	-0.07	-0.750			
0.1370	8766.16	3.9610	3.9610	-0.8051	25.66	-0.08	-0.750			
0.1394	8922.29	3.9580	3.9580	-0.8073	25.66	-0.08	-0.750			
0.1418	9078.38	3.9550	3.9550	-0.8075	25.66	-0.08	-0.750			
0.1443	9232.15	3.9520	3.9520	-0.8119	25.67	-0.07	-0.750			
0.1467	9386.47	3.9490	3.9489	-0.8118	25.67	-0.07	-0.750			
0.1491	9541.03	3.9460	3.9461	-0.8067	25.67	-0.07	-0.750			
0.1515	9698.73	3.9430	3.9429	-0.8125	25.68	-0.06	-0.750			
0.1540	9854.60	3.9400	3.9402	-0.8169	25.68	-0.06	-0.750			
0.1564	10011.39	3.9370	3.9368	-0.8193	25.68	-0.06	-0.750			
0.1589	10167.66	3.9340	3.9340	-0.8221	25.68	-0.06	-0.750			
0.1613	10325.33	3.9310	3.9309	-0.8245	25.69	-0.05	-0.750			
0.1638	10485.21	3.9280	3.9281	-0.8313	25.69	-0.05	-0.750			
0.1664	10646.67	3.9250	3.9250	-0.8325	25.69	-0.05	-0.750			
0.1688	10806.27	3.9220	3.9219	-0.8325	25.69	-0.05	-0.750			
0.1713	10965.67	3.9190	3.9190	-0.8357	25.69	-0.05	-0.750			
0.1739	11126.71	3.9160	3.9160	-0.8326	25.70	-0.04	-0.750			
0.1764	11286.55	3.9130	3.9129	-0.8337	25.70	-0.04	-0.750			
0.1788	11445.65	3.9100	3.9102	-0.8390	25.70	-0.04	-0.750			
0.1814	11606.60	3.9070	3.9069	-0.8405	25.70	-0.04	-0.750			
0.1839	11768.53	3.9040	3.9039	-0.8455	25.71	-0.03	-0.750			
0.1864	11932.23	3.9010	3.9010	-0.8417	25.71	-0.03	-0.750			
0.1890	12095.46	3.8980	3.8980	-0.8451	25.72	-0.02	-0.750			
0.1915	12258.27	3.8950	3.8951	-0.8415	25.72	-0.02	-0.750			
0.1940	12418.24	3.8920	3.8920	-0.8370	25.73	-0.01	-0.750			
0.1965	12578.39	3.8890	3.8889	-0.8387	25.73	-0.01	-0.750			
0.1991	12739.62	3.8860	3.8860	-0.8378	25.74	-0.00	-0.750			
0.2016	12901.37	3.8830	3.8829	-0.8384	25.75	0.01	-0.750			
0.2041	13062.12	3.8800	3.8802	-0.8425	25.75	0.01	-0.750			
0.2066	13224.21	3.8770	3.8769	-0.8395	25.75	0.01	-0.750			
0.2092	13386.62	3.8740	3.8739	-0.8421	25.75	0.01	-0.750			
0.2117	13545.95	3.8710	3.8711	-0.8405	25.75	0.01	-0.750			
0.2142	13708.71	3.8680	3.8680	-0.8516	25.75	0.01	-0.750			
0.2168	13873.45	3.8650	3.8651	-0.8574	25.75	0.01	-0.750			
0.2193	14037.33	3.8620	3.8618	-0.8625	25.76	0.02	-0.750			
0.2219	14203.24	3.8590	3.8591	-0.8606	25.76	0.02	-0.750			
0.2245	14369.71	3.8560	3.8560	-0.8619	25.76	0.02	-0.750			
0.2271	14536.81	3.8530	3.8530	-0.8681	25.77	0.03	-0.750			
0.2297	14702.68	3.8500	3.8498	-0.8624	25.77	0.03	-0.750			
0.2323	14867.69	3.8470	3.8470	-0.8618	25.77	0.03	-0.750			
0.2349	15031.71	3.8440	3.8440	-0.8687	25.78	0.04	-0.750			
0.2375	15199.70	3.8410	3.8411	-0.8744	25.78	0.04	-0.750			
0.2402	15369.98	3.8380	3.8379	-0.8804	25.78	0.04	-0.750			
0.2428	15539.17	3.8350	3.8349	-0.8812	25.78	0.04	-0.750			
0.2455	15709.50	3.8320	3.8322	-0.8874	25.78	0.04	-0.750			
0.2482	15882.07	3.8290	3.8289	-0.8911	25.79	0.05	-0.750			
0.2508	16052.97	3.8260	3.8259	-0.8878	25.79	0.05	-0.750			
0.2535	16221.95	3.8230	3.8233	-0.8783	25.79	0.05	-0.750			
0.2561	16392.05	3.8200	3.8200	-0.8764	25.79	0.05	-0.750			
0.2588	16561.56	3.8170	3.8170	-0.8771	25.80	0.06	-0.750			
0.2614	16728.53	3.8140	3.8140	-0.8688	25.80	0.06	-0.750			
0.2640	16895.74	3.8110	3.8109	-0.8671	25.81	0.07	-0.750			
0.2666	17059.81	3.8080	3.8081	-0.8640	25.81	0.07	-0.750			
0.2691	17225.28	3.8050	3.8050	-0.8625	25.81	0.07	-0.750			
0.2717	17390.39	3.8020	3.8020	-0.8628	25.81	0.07	-0.750			
0.2743	17554.12	3.7990	3.7991	-0.8590	25.82	0.08	-0.750			
0.2769	17722.36	3.7960	3.7960	-0.8624	25.82	0.08	-0.750			
0.2795	17887.74	3.7930	3.7929	-0.8627	25.82	0.08	-0.750			
0.2821	18052.83	3.7900	3.7901	-0.8649	25.83	0.09	-0.750			
0.2847	18218.93	3.7870	3.7870	-0.8630	25.83	0.09	-0.750			
0.2873	18385.30	3.7840	3.7839	-0.8630	25.83	0.09	-0.750			
0.2899	18551.72	3.7810	3.7810	-0.8615	25.84	0.10	-0.750			
0.2924	18716.41	3.7780	3.7780	-0.8593	25.84	0.10	-0.750			
0.2950	18881.99	3.7750	3.7749	-0.8607	25.84	0.10	-0.750			
0.2976	19046.08	3.7720	3.7720	-0.8539	25.85	0.11	-0.750			
0.3002	19210.56	3.7690	3.7689	-0.8468	25.85	0.11	-0.750			
0.3027	19374.01	3.7660	3.7660	-0.8474	25.85	0.11	-0.750			
0.3052	19534.63	3.7630	3.7629	-0.8472	25.85	0.11	-0.750			
0.3078	19696.19	3.7600	3.7599	-0.8485	25.86	0.12	-0.750			
0.3103	19858.71	3.7570	3.7569	-0.8504	25.86	0.12	-0.750			
0.3128	20021.76	3.7540	3.7540	-0.8466	25.87	0.13	-0.750			
0.3154	20188.25	3.7510	3.7511	-0.8525	25.87	0.13	-0.750			
0.3180	20351.88	3.7480	3.7480	-0.8535	25.87	0.13	-0.750			
0.3205	20512.89	3.7450	3.7448	-0.8534	25.88	0.14	-0.750			
0.3231	20676.38	3.7420	3.7420	-0.8561	25.88	0.14	-0.750			
0.3256	20841.21	3.7390	3.7390	-0.8569	25.89	0.15	-0.750			
0.3283	21008.11	3.7360	3.7361	-0.8657	25.89	0.15	-0.750			
0.3308	21174.30	3.7330	3.7330	-0.8768	25.89	0.15	-0.750			
0.3335	21342.97	3.7300	3.7299	-0.8787	25.89	0.15	-0.750			
0.3361	21511.20	3.7270	3.7269	-0.8854	25.90	0.16	-0.750			
0.3388	21681.24	3.7240	3.7240	-0.8916	25.90	0.16	-0.750			
0.3415	21854.29	3.7210	3.7213	-0.9068	25.90	0.16	-0.750			
0.3442	22028.95	3.7180	3.7179	-0.9222	25.90	0.16	-0.750			
0.3470	22205.93	3.7150	3.7150	-0.9327	25.90	0.16	-0.750			
0.3498	22386.29	3.7120	3.7119	-0.9459	25.90	0.16	-0.750			
0.3527	22570.99	3.7090	3.7091	-0.9614	25.90	0.16	-0.750			
0.3556	22755.49	3.7060	3.7060	-0.9804	25.90	0.16	-0.750			
0.3585	22945.24	3.7030	3.7029	-0.9997	25.90	0.16	-0.750			
0.3616	23139.48	3.7000	3.7000	-1.0145	25.90	0.16	-0.750			
0.3646	23333.98	3.6970	3.6969	-1.0311	25.90	0.16	-0.750			
0.3678	23536.78	3.6940	3.6940	-1.0589	25.90	0.16	-0.750			
0.3710	23742.94	3.6910	3.6909	-1.0754	25.90	0.16	-0.750			
0.3742	23951.09	3.6880	3.6879	-1.0893	25.89	0.15	-0.750			
0.3775	24159.03	3.6850	3.6853	-1.0995	25.89	0.15	-0.750			
0.3809	24374.69	3.6820	3.6819	-1.1292	25.89	0.15	-0.750			
0.3843	24592.64	3.6790	3.6788	-1.1536	25.89	0.15	-0.750			
0.3877	24813.79	3.6760	3.6760	-1.1788	25.89	0.15	-0.750			
0.3913	25040.50	3.6730	3.6733	-1.2046	25.89	0.15	-0.750			
0.3950	25279.90	3.6700	3.6699	-1.2382	25.88	0.14	-0.750			
0.3987	25519.44	3.6670	3.6670	-1.2719	25.88	0.14	-0.750			
0.4026	25765.25	3.6640	3.6639	-1.3009	25.87	0.13	-0.750			
0.4066	26021.10	3.6610	3.6609	-1.3382	25.86	0.12	-0.750			
0.4106	26278.96	3.6580	3.6580	-1.3657	25.86	0.12	-0.750			
0.4147	26543.30	3.6550	3.6551	-1.3983	25.85	0.11	-0.750			
0.4190	26813.58	3.6520	3.6519	-1.4417	25.85	0.11	-0.750			
0.4233	27094.31	3.6490	3.6490	-1.4763	25.84	0.10	-0.750			
0.4278	27381.43	3.6460	3.6460	-1.5068	25.84	0.10	-0.750			
0.4324	27675.47	3.6430	3.6430	-1.5425	25.83	0.09	-0.750			
0.4372	27979.49	3.6400	3.6398	-1.5821	25.83	0.09	-0.750			
0.4419	28284.38	3.6370	3.6370	-1.6161	25.82	0.08	-0.750			
0.4468	28597.27	3.6340	3.6341	-1.6437	25.82	0.08	-0.750			
0.4518	28915.65	3.6310	3.6310	-1.6681	25.81	0.07	-0.750			
0.4569	29239.30	3.6280	3.6279	-1.6999	25.80	0.06	-0.750			
0.4620	29570.18	3.6250	3.6249	-1.7400	25.80	0.06	-0.750	0.398	0.503	
0.4673	29904.91	3.6220	3.6219	-1.7662	25.79	0.05	-0.750			
0.4726	30246.88	3.6190	3.6190	-1.7968	25.78	0.04	-0.750			
0.4780	30593.88	3.6160	3.6160	-1.8331	25.78	0.04	-0.750			
0.4836	30953.16	3.6130	3.6130	-1.8697	25.78	0.04	-0.750			
0.4893	31312.75	3.6100	3.6101	-1.9134	25.77	0.03	-0.750			
0.4951	31685.94	3.6070	3.6069	-1.9352	25.76	0.02	-0.750			
0.5009	32059.59	3.6040	3.6040	-1.9588	25.75	0.01	-0.750			
0.5069	32438.93	3.6010	3.6010	-2.0002	25.75	0.01	-0.750			
0.5129	32824.34	3.5980	3.5978	-2.0311	25.75	0.01	-0.750			
0.5190	33216.63	3.5950	3.5949	-2.0686	25.74	0.00	-0.750			
0.5252	33614.62	3.5920	3.5921	-2.1267	25.73	-0.01	-0.750			
0.5317	34027.04	3.5890	3.5890	-2.1694	25.72	-0.02	-0.750			
0.5384	34457.07	3.5860	3.5860	-2.2014	25.72	-0.02	-0.750			
0.5451	34885.16	3.5830	3.5830	-2.2297	25.72	-0.02	-0.750			
0.5518	35314.83	3.5800	3.5801	-2.2676	25.72	-0.02	-0.750			
0.5587	35754.74	3.5770	3.5769	-2.2789	25.72	-0.02	-0.750			
0.5655	36191.86	3.5740	3.5738	-2.3035	25.71	-0.03	-0.750			
0.5724	36631.18	3.5710	3.5711	-2.3148	25.70	-0.04	-0.750			
0.5794	37082.18	3.5680	3.5679	-2.3538	25.70	-0.04	-0.750			
0.5866	37541.72	3.5650	3.5650	-2.3690	25.70	-0.04	-0.750			
0.5936	37993.44	3.5620	3.5619	-2.3693	25.70	-0.04	-0.750			
0.6008	38452.49	3.5590	3.5591	-2.3757	25.70	-0.04	-0.750			
0.6080	38913.10	3.5560	3.5559	-2.3750	25.70	-0.04	-0.750			
0.6151	39365.57	3.5530	3.5529	-2.3541	25.71	-0.03	-0.750			
0.6221	39817.25	3.5500	3.5500	-2.3311	25.72	-0.02	-0.750			
0.6291	40265.04	3.5470	3.5470	-2.3059	25.72	-0.02	-0.750			
0.6361	40707.76	3.5440	3.5438	-2.2943	25.72	-0.02	-0.750			
0.6429	41142.66	3.5410	3.5411	-2.2568	25.72	-0.02	-0.750			
0.6497	41579.46	3.5380	3.5381	-2.2331	25.73	-0.01	-0.750			
0.6563	42004.42	3.5350	3.5350	-2.2045	25.74	0.00	-0.750			
0.6629	42424.72	3.5320	3.5320	-2.1406	25.75	0.01	-0.750			
0.6693	42837.47	3.5290	3.5292	-2.1115	25.76	0.02	-0.750			
0.6756	43237.00	3.5260	3.5260	-2.0743	25.77	0.03	-0.750			
0.6817	43628.41	3.5230	3.5227	-2.0044	25.78	0.04	-0.750			
0.6877	44014.05	3.5200	3.5202	-1.9522	25.78	0.04	-0.750			
0.6935	44386.73	3.5170	3.5170	-1.8985	25.80	0.06	-0.750			
0.6991	44742.69	3.5140	3.5139	-1.8283	25.81	0.07	-0.750			
0.7045	45085.78	3.5110	3.5112	-1.7649	25.82	0.08	-0.750			
0.7097	45422.34	3.5080	3.5077	-1.7022	25.84	0.10	-0.750			
0.7147	45738.48	3.5050	3.5049	-1.6372	25.86	0.12	-0.750			
0.7196	46051.78	3.5020	3.5019	-1.5844	25.87	0.13	-0.750			
0.7241	46344.56	3.4990	3.4990	-1.5221	25.89	0.15	-0.750			
0.7286	46633.34	3.4960	3.4962	-1.4690	25.90	0.16	-0.750			
0.7330	46911.37	3.4930	3.4929	-1.3950	25.92	0.18	-0.750			
0.7371	47176.16	3.4900	3.4900	-1.3340	25.94	0.20	-0.750			
0.7410	47425.88	3.4870	3.4873	-1.3002	25.95	0.21	-0.750			
0.7448	47666.65	3.4840	3.4838	-1.2496	25.97	0.23	-0.750			
0.7485	47901.15	3.4810	3.4808	-1.2108	25.99	0.25	-0.750			
0.7520	48124.80	3.4780	3.4779	-1.1732	26.00	0.26	-0.750			
0.7555	48353.16	3.4750	3.4750	-1.1634	26.02	0.28	-0.750			
0.7590	48577.01	3.4720	3.4719	-1.1321	26.03	0.29	-0.750			
0.7623	48789.61	3.4690	3.4688	-1.0908	26.04	0.30	-0.750			
0.7655	48990.97	3.4660	3.4663	-1.0482	26.05	0.31	-0.750			
0.7686	49192.99	3.4630	3.4629	-1.0274	26.06	0.32	-0.750			
0.7717	49386.40	3.4600	3.4599	-0.9955	26.07	0.33	-0.750			
0.7745	49570.99	3.4570	3.4570	-0.9638	26.08	0.34	-0.750			
0.7774	49752.78	3.4540	3.4539	-0.9466	26.09	0.35	-0.750			
0.7802	49933.29	3.4510	3.4510	-0.9408	26.10	0.36	-0.750			
0.7830	50112.93	3.4480	3.4479	-0.9279	26.11	0.37	-0.750			
0.7857	50285.36	3.4450	3.4450	-0.9280	26.12	0.38	-0.750			
0.7884	50459.27	3.4420	3.4421	-0.9418	26.13	0.39	-0.750			
0.7912	50639.94	3.4390	3.4391	-0.9729	26.14	0.40	-0.750			
0.7942	50828.21	3.4360	3.4359	-1.0106	26.15	0.41	-0.750			
0.7972	51022.96	3.4330	3.4330	-1.0500	26.16	0.42	-0.750			
0.8005	51229.90	3.4300	3.4300	-1.0985	26.16	0.42	-0.750			
0.8039	51452.61	3.4270	3.4271	-1.1385	26.17	0.43	-0.750			
0.8074	51676.45	3.4240	3.4239	-1.1568	26.18	0.44	-0.750			
0.8111	51907.35	3.4210	3.4210	-1.1536	26.19	0.45	-0.750			
0.8146	52132.72	3.4180	3.4179	-1.1347	26.21	0.47	-0.750			
0.8180	52351.11	3.4150	3.4149	-1.1174	26.21	0.47	-0.750			
0.8213	52563.78	3.4120	3.4119	-1.0785	26.22	0.48	-0.750			
0.8245	52765.58	3.4090	3.4090	-1.0365	26.22	0.48	-0.750			
0.8275	52958.45	3.4060	3.4062	-1.0000	26.23	0.49	-0.750			
0.8304	53148.59	3.4030	3.4029	-0.9687	26.24	0.50	-0.750			
0.8333	53332.56	3.4000	3.3999	-0.9363	26.25	0.51	-0.750			
0.8361	53508.64	3.3970	3.3969	-0.8960	26.25	0.51	-0.750			
0.8387	53673.99	3.3940	3.3940	-0.8585	26.26	0.52	-0.750			
0.8413	53840.20	3.3910	3.3912	-0.8314	26.27	0.53	-0.750			
0.8437	53995.54	3.3880	3.3880	-0.7951	26.28	0.54	-0.750			
0.8460	54141.91	3.3850	3.3849	-0.7612	26.29	0.55	-0.750			
0.8482	54285.71	3.3820	3.3819	-0.7363	26.29	0.55	-0.750			
0.8504	54424.05	3.3790	3.3790	-0.7089	26.30	0.56	-0.750			
0.8525	54557.85	3.3760	3.3757	-0.6839	26.31	0.57	-0.750			
0.8545	54686.77	3.3730	3.3730	-0.6561	26.31	0.57	-0.750			
0.8564	54811.03	3.3700	3.3700	-0.6314	26.32	0.58	-0.750			
0.8583	54929.57	3.3670	3.3670	-0.6031	26.33	0.59	-0.750			
0.8600	55039.44	3.3640	3.3641	-0.5771	26.33	0.59	-0.750			
0.8617	55150.39	3.3610	3.3610	-0.5564	26.34	0.60	-0.750			
0.8634	55255.00	3.3580	3.3579	-0.5333	26.34	0.60	-0.750			
0.8649	55354.64	3.3550	3.3548	-0.5109	26.35	0.61	-0.750			
0.8664	55451.08	3.3520	3.3519	-0.4901	26.35	0.61	-0.750			
0.8679	55542.97	3.3490	3.3490	-0.4690	26.36	0.62	-0.750			
0.8692	55630.87	3.3460	3.3459	-0.4489	26.36	0.62	-0.750			
0.8705	55713.38	3.3430	3.3431	-0.4249	26.36	0.62	-0.750			
0.8718	55795.21	3.3400	3.3400	-0.4109	26.37	0.63	-0.750			
0.8730	55870.87	3.3370	3.3370	-0.3942	26.37	0.63	-0.750			
0.8741	55944.39	3.3340	3.3340	-0.3793	26.38	0.64	-0.750			
0.8752	56015.18	3.3310	3.3309	-0.3656	26.38	0.64	-0.750			
0.8763	56084.23	3.3280	3.3280	-0.3519	26.38	0.64	-0.750			
0.8774	56150.99	3.3250	3.3251	-0.3392	26.39	0.65	-0.750			
0.8784	56215.10	3.3220	3.3221	-0.3267	26.39	0.65	-0.750			
0.8793	56276.67	3.3190	3.3190	-0.3135	26.40	0.66	-0.750			
0.8802	56335.04	3.3160	3.3160	-0.3003	26.40	0.66	-0.750			
0.8811	56391.09	3.3130	3.3129	-0.2896	26.41	0.67	-0.750			
0.8820	56445.78	3.3100	3.3100	-0.2783	26.41	0.67	-0.750			
0.8828	56498.07	3.3070	3.3070	-0.2699	26.42	0.68	-0.750			
0.8836	56548.51	3.3040	3.3042	-0.2625	26.42	0.68	-0.750			
0.8843	56598.21	3.3010	3.3010	-0.2544	26.43	0.69	-0.750			
0.8851	56645.94	3.2980	3.2977	-0.2469	26.43	0.69	-0.750			
0.8858	56692.48	3.2950	3.2951	-0.2401	26.44	0.70	-0.750			
0.8865	56737.95	3.2920	3.2922	-0.2329	26.44	0.70	-0.750			
0.8872	56782.56	3.2890	3.2889	-0.2284	26.45	0.71	-0.750			
0.8879	56825.84	3.2860	3.2861	-0.2223	26.45	0.71	-0.750			
0.8885	56866.97	3.2830	3.2829	-0.2149	26.46	0.72	-0.750			
0.8892	56907.39	3.2800	3.2800	-0.2102	26.46	0.72	-0.750			
0.8898	56948.01	3.2770	3.2771	-0.2053	26.46	0.72	-0.750			
0.8904	56986.78	3.2740	3.2739	-0.1997	26.47	0.73	-0.750			
0.8910	57024.59	3.2710	3.2711	-0.1942	26.47	0.73	-0.750			
0.8916	57061.41	3.2680	3.2681	-0.1903	26.48	0.74	-0.750			
0.8921	57096.92	3.2650	3.2649	-0.1851	26.48	0.74	-0.750			
0.8927	57131.96	3.2620	3.2621	-0.1815	26.48	0.74	-0.750			
0.8932	57166.47	3.2590	3.2589	-0.1780	26.49	0.75	-0.750			
0.8937	57200.00	3.2560	3.2560	-0.1746	26.49	0.75	-0.750			
0.8943	57233.62	3.2530	3.2530	-0.1717	26.50	0.76	-0.750			
0.8948	57266.09	3.2500	3.2500	-0.1683	26.50	0.76	-0.750			
0.8953	57298.09	3.2470	3.2470	-0.1650	26.51	0.77	-0.750			
0.8958	57329.21	3.2440	3.2440	-0.1622	26.51	0.77	-0.750			
0.8963	57360.13	3.2410	3.2410	-0.1597	26.51	0.77	-0.750			
0.8967	57390.46	3.2380	3.2380	-0.1568	26.52	0.78	-0.750			
0.8972	57420.33	3.2350	3.2350	-0.1543	26.52	0.78	-0.750			
0.8977	57449.61	3.2320	3.2320	-0.1524	26.52	0.78	-0.750			
0.8981	57478.71	3.2290	3.2290	-0.1506	26.53	0.79	-0.750			
0.8986	57507.28	3.2260	3.2260	-0.1483	26.53	0.79	-0.750			
0.8990	57535.60	3.2230	3.2229	-0.1465	26.54	0.80	-0.750			
0.8994	57563.45	3.2200	3.2200	-0.1449	26.54	0.80	-0.750			
0.8999	57591.28	3.2170	3.2170	-0.1430	26.54	0.80	-0.750			
0.9003	57618.73	3.2140	3.2140	-0.1413	26.55	0.81	-0.750			
0.9007	57645.56	3.2110	3.2109	-0.1396	26.55	0.81	-0.750			
0.9011	57671.94	3.2080	3.2081	-0.1381	26.55	0.81	-0.750			
0.9015	57698.37	3.2050	3.2050	-0.1365	26.56	0.82	-0.750			
0.9019	57724.45	3.2020	3.2019	-0.1351	26.56	0.82	-0.750			
0.9023	57750.27	3.1990	3.1990	-0.1335	26.56	0.82	-0.750			
0.9027	57775.75	3.1960	3.1961	-0.1320	26.57	0.83	-0.750			
0.9031	57801.20	3.1930	3.1930	-0.1308	26.57	0.83	-0.750			
0.9035	57826.10	3.1900	3.1899	-0.1288	26.57	0.83	-0.750			
0.9039	57850.59	3.1870	3.1870	-0.1268	26.58	0.84	-0.750			
0.9043	57874.30	3.1840	3.1840	-0.1260	26.58	0.84	-0.750			
0.9047	57898.43	3.1810	3.1809	-0.1250	26.58	0.84	-0.750			
0.9050	57922.37	3.1780	3.1781	-0.1244	26.59	0.85	-0.750			
0.9054	57946.22	3.1750	3.1748	-0.1232	26.59	0.85	-0.750			
0.9058	57969.80	3.1720	3.1721	-0.1224	26.59	0.85	-0.750			
0.9061	57993.53	3.1690	3.1690	-0.1214	26.60	0.86	-0.750			
0.9065	58016.93	3.1660	3.1660	-0.1203	26.60	0.86	-0.750			
0.9069	58039.66	3.1630	3.1631	-0.1188	26.61	0.87	-0.750			
0.9072	58062.00	3.1600	3.1600	-0.1168	26.61	0.87	-0.750			
0.9076	58084.21	3.1570	3.1571	-0.1161	26.61	0.87	-0.750			
0.9079	58106.33	3.1540	3.1540	-0.1153	26.62	0.88	-0.750			
0.9083	58128.23	3.1510	3.1511	-0.1145	26.62	0.88	-0.750			
0.9086	58150.20	3.1480	3.1480	-0.1143	26.62	0.88	-0.750			
0.9089	58172.24	3.1450	3.1449	-0.1135	26.63	0.89	-0.750			
0.9093	58194.09	3.1420	3.1420	-0.1130	26.63	0.89	-0.750			
0.9096	58215.84	3.1390	3.1390	-0.1116	26.63	0.89	-0.750			
0.9100	58237.42	3.1360	3.1361	-0.1107	26.64	0.90	-0.750			
0.9103	58258.40	3.1330	3.1330	-0.1098	26.64	0.90	-0.750			
0.9106	58279.35	3.1300	3.1300	-0.1086	26.64	0.90	-0.750			
0.9109	58300.10	3.1270	3.1268	-0.1074	26.65	0.91	-0.750			
0.9113	58320.45	3.1240	3.1241	-0.1061	26.65	0.91	-0.750			
0.9116	58340.46	3.1210	3.1209	-0.1064	26.65	0.91	-0.750			
0.9119	58360.60	3.1180	3.1181	-0.1060	26.66	0.92	-0.750			
0.9122	58381.14	3.1150	3.1150	-0.1055	26.66	0.92	-0.750			
0.9125	58401.44	3.1120	3.1117	-0.1054	26.66	0.92	-0.750			
0.9128	58421.88	3.1090	3.1090	-0.1040	26.67	0.93	-0.750			
0.9132	58441.97	3.1060	3.1063	-0.1033	26.67	0.93	-0.750			
0.9135	58461.57	3.1030	3.1030	-0.1027	26.67	0.93	-0.750			
0.9138	58481.54	3.1000	3.1001	-0.1021	26.68	0.94	-0.750			
0.9141	58500.83	3.0970	3.0968	-0.1013	26.68	0.94	-0.750			
0.9144	58519.63	3.0940	3.0939	-0.0998	26.68	0.94	-0.750			
0.9147	58538.77	3.0910	3.0910	-0.0997	26.69	0.95	-0.750			
0.9150	58557.82	3.0880	3.0880	-0.0995	26.69	0.95	-0.750			
0.9153	58577.06	3.0850	3.0851	-0.0988	26.69	0.95	-0.750			
0.9156	58596.27	3.0820	3.0820	-0.0986	26.70	0.96	-0.750			
0.9159	58615.12	3.0790	3.0789	-0.0977	26.70	0.96	-0.750			
0.9162	58633.76	3.0760	3.0761	-0.0968	26.70	0.96	-0.750			
0.9164	58652.23	3.0730	3.0730	-0.0961	26.71	0.97	-0.750			
0.9167	58670.66	3.0700	3.0700	-0.0954	26.71	0.97	-0.750			
0.9170	58688.76	3.0670	3.0669	-0.0952	26.72	0.98	-0.750			
0.9173	58706.76	3.0640	3.0640	-0.0946	26.72	0.98	-0.750			
0.9176	58724.92	3.0610	3.0609	-0.0943	26.73	0.99	-0.750			
0.9179	58742.98	3.0580	3.0580	-0.0941	26.73	0.99	-0.750			
0.9181	58761.14	3.0550	3.0550	-0.0935	26.74	1.00	-0.750			
0.9184	58779.19	3.0520	3.0522	-0.0932	26.74	1.00	-0.750			
0.9187	58797.05	3.0490	3.0488	-0.0925	26.75	1.01	-0.750			
0.9190	58814.90	3.0460	3.0462	-0.0919	26.75	1.01	-0.750			
0.9193	58832.42	3.0430	3.0430	-0.0913	26.75	1.01	-0.750			
0.9195	58849.80	3.0400	3.0399	-0.0904	26.76	1.02	-0.750			
0.9198	58866.98	3.0370	3.0369	-0.0904	26.76	1.02	-0.750			
0.9201	58884.12	3.0340	3.0341	-0.0899	26.77	1.03	-0.750			
0.9203	58901.40	3.0310	3.0309	-0.0898	26.77	1.03	-0.750			
0.9206	58918.58	3.0280	3.0281	-0.0896	26.78	1.04	-0.750			
0.9209	58935.86	3.0250	3.0251	-0.0892	26.78	1.04	-0.750			
0.9211	58953.04	3.0220	3.0219	-0.0890	26.78	1.04	-0.750			
0.9214	58970.13	3.0190	3.0190	-0.0885	26.79	1.05	-0.750			
0.9217	58987.24	3.0160	3.0159	-0.0883	26.79	1.05	-0.750			
0.9219	59004.13	3.0130	3.0130	-0.0876	26.80	1.06	-0.750			
0.9222	59020.80	3.0100	3.0101	-0.0870	26.80	1.06	-0.750			
0.9225	59037.47	3.0070	3.0069	-0.0866	26.81	1.07	-0.751			
0.9227	59054.04	3.0040	3.0040	-0.0864	26.81	1.07	-0.751			
