Ah_balance (normalized)	Ah_balance (mAh)	Voltage - fit (V)	Voltage -  interpolate (V)	dQ/dV (1/V)	Temperature (°C)	Temperature - diff (°C)	Current (C)	R_DC 0ms (mOhm)	R_DC 50ms (mOhm)	R_DC 50 ms PEC (mOhm)
0.0004	26.38	4.1540	4.1539	-0.1304	24.97	0.00	-0.750			
0.0009	54.97	4.1510	4.1510	-0.1654	24.97	0.00	-0.750			
0.0014	90.60	4.1480	4.1479	-0.1988	24.97	0.00	-0.750			
0.0021	132.06	4.1450	4.1450	-0.2308	24.97	0.00	-0.750			
0.0028	179.27	4.1420	4.1420	-0.2645	24.97	0.00	-0.750			
0.0036	233.55	4.1390	4.1390	-0.2965	24.97	0.00	-0.750			
0.0046	293.46	4.1360	4.1359	-0.3289	24.97	0.00	-0.750			
0.0056	360.07	4.1330	4.1330	-0.3574	24.97	0.00	-0.750			
0.0068	432.90	4.1300	4.1300	-0.3842	24.97	0.00	-0.750			
0.0080	509.34	4.1270	4.1270	-0.4114	24.97	0.00	-0.750			
0.0092	590.90	4.1240	4.1240	-0.4378	24.97	0.00	-0.750			
0.0106	677.36	4.1210	4.1209	-0.4594	24.97	0.00	-0.750			
0.0120	768.56	4.1180	4.1181	-0.4799	24.97	0.00	-0.750			
0.0135	863.43	4.1150	4.1150	-0.5005	24.97	0.00	-0.750			
0.0150	962.31	4.1120	4.1120	-0.5189	24.97	0.00	-0.750			
0.0166	1064.55	4.1090	4.1090	-0.5339	24.97	0.00	-0.750			
0.0182	1167.07	4.1060	4.1060	-0.5472	24.97	0.00	-0.750			
0.0199	1274.16	4.1030	4.1030	-0.5596	24.97	-0.00	-0.750			
0.0216	1384.06	4.1000	4.0999	-0.5704	24.97	-0.00	-0.750			
0.0234	1495.13	4.0970	4.0970	-0.5814	24.96	-0.01	-0.750			
0.0251	1606.63	4.0940	4.0941	-0.5912	24.96	-0.01	-0.750			
0.0269	1722.92	4.0910	4.0909	-0.5999	24.96	-0.01	-0.750			
0.0287	1838.26	4.0880	4.0880	-0.6094	24.95	-0.02	-0.750			
0.0305	1955.05	4.0850	4.0850	-0.6156	24.95	-0.02	-0.750			
0.0324	2075.16	4.0820	4.0820	-0.6245	24.95	-0.02	-0.750			
0.0343	2197.01	4.0790	4.0789	-0.6315	24.95	-0.02	-0.750			
0.0362	2317.54	4.0760	4.0761	-0.6373	24.95	-0.02	-0.750			
0.0381	2440.39	4.0730	4.0730	-0.6471	24.96	-0.01	-0.750			
0.0401	2568.16	4.0700	4.0699	-0.6516	24.96	-0.01	-0.750			
0.0421	2693.06	4.0670	4.0669	-0.6500	24.96	-0.01	-0.750			
0.0440	2817.85	4.0640	4.0642	-0.6562	24.96	-0.01	-0.750			
0.0460	2944.63	4.0610	4.0609	-0.6560	24.96	-0.01	-0.750			
0.0480	3070.62	4.0580	4.0579	-0.6598	24.96	-0.01	-0.750			
0.0499	3195.71	4.0550	4.0551	-0.6668	24.97	-0.00	-0.750			
0.0520	3326.01	4.0520	4.0520	-0.6746	24.97	-0.00	-0.750			
0.0540	3457.55	4.0490	4.0489	-0.6786	24.97	-0.00	-0.750			
0.0561	3587.84	4.0460	4.0464	-0.6823	24.97	-0.00	-0.750			
0.0581	3718.18	4.0430	4.0430	-0.6855	24.97	0.00	-0.750			
0.0602	3851.05	4.0400	4.0399	-0.6899	24.98	0.01	-0.750			
0.0622	3982.28	4.0370	4.0369	-0.6898	24.98	0.01	-0.750			
0.0643	4116.61	4.0340	4.0341	-0.6940	24.98	0.01	-0.750			
0.0664	4249.69	4.0310	4.0310	-0.6921	24.99	0.02	-0.750			
0.0685	4383.00	4.0280	4.0280	-0.6974	24.99	0.02	-0.750			
0.0706	4515.73	4.0250	4.0250	-0.6964	24.99	0.02	-0.750			
0.0726	4648.25	4.0220	4.0220	-0.6953	24.99	0.02	-0.750			
0.0747	4782.33	4.0190	4.0190	-0.7053	24.99	0.02	-0.750			
0.0769	4919.05	4.0160	4.0158	-0.7086	25.00	0.03	-0.750			
0.0790	5057.38	4.0130	4.0130	-0.7115	25.00	0.03	-0.750			
0.0812	5194.41	4.0100	4.0103	-0.7102	25.00	0.03	-0.750			
0.0833	5330.32	4.0070	4.0070	-0.7085	25.00	0.03	-0.750			
0.0854	5466.01	4.0040	4.0040	-0.7132	25.01	0.04	-0.750			
0.0875	5600.68	4.0010	4.0010	-0.7125	25.01	0.04	-0.750			
0.0897	5737.81	3.9980	3.9979	-0.7151	25.01	0.04	-0.750			
0.0918	5875.73	3.9950	3.9948	-0.7170	25.02	0.05	-0.750			
0.0940	6013.95	3.9920	3.9923	-0.7226	25.02	0.05	-0.750			
0.0961	6152.97	3.9890	3.9890	-0.7233	25.02	0.05	-0.750			
0.0983	6291.40	3.9860	3.9860	-0.7269	25.03	0.06	-0.750			
0.1005	6431.72	3.9830	3.9829	-0.7278	25.03	0.06	-0.750			
0.1027	6572.13	3.9800	3.9801	-0.7280	25.03	0.06	-0.750			
0.1049	6711.93	3.9770	3.9769	-0.7286	25.04	0.07	-0.750			
0.1071	6851.60	3.9740	3.9741	-0.7308	25.04	0.07	-0.750			
0.1092	6991.22	3.9710	3.9710	-0.7302	25.04	0.07	-0.750			
0.1114	7130.28	3.9680	3.9679	-0.7367	25.04	0.07	-0.750			
0.1136	7271.06	3.9650	3.9651	-0.7371	25.05	0.08	-0.750			
0.1159	7415.41	3.9620	3.9619	-0.7444	25.05	0.08	-0.750			
0.1181	7560.34	3.9590	3.9590	-0.7485	25.05	0.08	-0.750			
0.1204	7703.65	3.9560	3.9560	-0.7470	25.05	0.08	-0.750			
0.1226	7846.72	3.9530	3.9530	-0.7448	25.06	0.09	-0.750			
0.1248	7990.38	3.9500	3.9500	-0.7488	25.06	0.09	-0.750			
0.1271	8132.55	3.9470	3.9469	-0.7462	25.06	0.09	-0.750			
0.1293	8278.33	3.9440	3.9440	-0.7469	25.07	0.10	-0.750			
0.1316	8420.88	3.9410	3.9412	-0.7481	25.07	0.10	-0.750			
0.1338	8565.53	3.9380	3.9380	-0.7461	25.07	0.10	-0.750			
0.1361	8707.44	3.9350	3.9349	-0.7507	25.07	0.10	-0.750			
0.1383	8849.53	3.9320	3.9321	-0.7528	25.07	0.10	-0.750			
0.1406	8995.65	3.9290	3.9289	-0.7585	25.07	0.10	-0.750			
0.1428	9141.13	3.9260	3.9261	-0.7615	25.07	0.10	-0.750			
0.1451	9289.50	3.9230	3.9230	-0.7638	25.07	0.10	-0.750			
0.1474	9434.79	3.9200	3.9200	-0.7640	25.08	0.11	-0.750			
0.1497	9583.23	3.9170	3.9169	-0.7660	25.08	0.11	-0.750			
0.1520	9727.91	3.9140	3.9140	-0.7671	25.09	0.12	-0.750			
0.1543	9874.93	3.9110	3.9109	-0.7730	25.10	0.13	-0.750			
0.1566	10024.95	3.9080	3.9081	-0.7772	25.10	0.13	-0.750			
0.1590	10174.86	3.9050	3.9050	-0.7784	25.10	0.13	-0.750			
0.1614	10326.88	3.9020	3.9020	-0.7842	25.11	0.14	-0.750			
0.1637	10478.14	3.8990	3.8989	-0.7795	25.11	0.14	-0.750			
0.1660	10627.17	3.8960	3.8960	-0.7810	25.12	0.15	-0.750			
0.1684	10775.66	3.8930	3.8934	-0.7780	25.12	0.15	-0.750			
0.1707	10924.02	3.8900	3.8899	-0.7774	25.12	0.15	-0.750			
0.1730	11073.43	3.8870	3.8869	-0.7809	25.13	0.16	-0.750			
0.1754	11222.61	3.8840	3.8840	-0.7792	25.13	0.16	-0.750			
0.1777	11375.38	3.8810	3.8810	-0.7853	25.13	0.16	-0.750			
0.1801	11524.91	3.8780	3.8779	-0.7813	25.14	0.17	-0.750			
0.1824	11674.17	3.8750	3.8750	-0.7741	25.14	0.17	-0.750			
0.1847	11822.39	3.8720	3.8720	-0.7792	25.14	0.17	-0.750			
0.1870	11970.66	3.8690	3.8690	-0.7774	25.14	0.17	-0.750			
0.1894	12119.01	3.8660	3.8660	-0.7829	25.15	0.18	-0.750			
0.1917	12270.60	3.8630	3.8630	-0.7872	25.15	0.18	-0.750			
0.1941	12423.14	3.8600	3.8603	-0.7877	25.15	0.18	-0.750			
0.1965	12575.07	3.8570	3.8569	-0.7842	25.16	0.19	-0.750			
0.1988	12725.98	3.8540	3.8541	-0.7913	25.16	0.19	-0.750			
0.2012	12876.63	3.8510	3.8510	-0.7904	25.17	0.20	-0.750			
0.2036	13029.27	3.8480	3.8479	-0.7888	25.17	0.20	-0.750			
0.2059	13180.69	3.8450	3.8452	-0.7861	25.18	0.21	-0.750			
0.2083	13332.07	3.8420	3.8421	-0.7853	25.18	0.21	-0.750			
0.2107	13482.82	3.8390	3.8389	-0.7821	25.18	0.21	-0.750			
0.2130	13632.45	3.8360	3.8360	-0.7804	25.18	0.21	-0.750			
0.2153	13780.53	3.8330	3.8329	-0.7726	25.18	0.21	-0.750			
0.2177	13930.00	3.8300	3.8300	-0.7723	25.18	0.21	-0.750			
0.2200	14078.55	3.8270	3.8271	-0.7695	25.18	0.21	-0.750			
0.2223	14225.20	3.8240	3.8239	-0.7686	25.19	0.22	-0.750			
0.2246	14372.09	3.8210	3.8210	-0.7673	25.19	0.22	-0.750			
0.2269	14519.09	3.8180	3.8180	-0.7616	25.19	0.22	-0.750			
0.2291	14664.62	3.8150	3.8149	-0.7611	25.20	0.23	-0.750			
0.2314	14812.50	3.8120	3.8123	-0.7601	25.20	0.23	-0.750			
0.2337	14957.96	3.8090	3.8090	-0.7525	25.20	0.23	-0.750			
0.2360	15102.06	3.8060	3.8059	-0.7516	25.21	0.24	-0.750			
0.2382	15245.77	3.8030	3.8030	-0.7470	25.21	0.24	-0.750			
0.2404	15388.39	3.8000	3.8000	-0.7436	25.21	0.24	-0.750			
0.2427	15531.72	3.7970	3.7968	-0.7397	25.22	0.25	-0.750			
0.2449	15672.92	3.7940	3.7939	-0.7354	25.22	0.25	-0.750			
0.2471	15814.37	3.7910	3.7910	-0.7328	25.22	0.25	-0.750			
0.2493	15953.89	3.7880	3.7880	-0.7317	25.22	0.25	-0.750			
0.2514	16091.91	3.7850	3.7850	-0.7254	25.23	0.26	-0.750			
0.2536	16233.53	3.7820	3.7820	-0.7276	25.23	0.26	-0.750			
0.2558	16372.81	3.7790	3.7790	-0.7278	25.23	0.26	-0.750			
0.2580	16513.37	3.7760	3.7760	-0.7251	25.23	0.26	-0.750			
0.2602	16652.29	3.7730	3.7730	-0.7231	25.23	0.26	-0.750			
0.2624	16791.49	3.7700	3.7700	-0.7280	25.24	0.27	-0.750			
0.2645	16931.07	3.7670	3.7670	-0.7251	25.24	0.27	-0.750			
0.2667	17071.11	3.7640	3.7639	-0.7254	25.24	0.27	-0.750			
0.2689	17210.01	3.7610	3.7613	-0.7254	25.24	0.27	-0.750			
0.2711	17349.23	3.7580	3.7579	-0.7231	25.24	0.27	-0.750			
0.2732	17486.59	3.7550	3.7550	-0.7339	25.24	0.27	-0.750			
0.2754	17626.57	3.7520	3.7520	-0.7318	25.25	0.28	-0.750			
0.2777	17770.02	3.7490	3.7489	-0.7383	25.25	0.28	-0.750			
0.2799	17911.62	3.7460	3.7459	-0.7433	25.25	0.28	-0.750			
0.2821	18054.96	3.7430	3.7429	-0.7468	25.25	0.28	-0.750			
0.2843	18196.91	3.7400	3.7400	-0.7573	25.25	0.28	-0.750			
0.2866	18342.03	3.7370	3.7370	-0.7651	25.25	0.28	-0.750			
0.2889	18487.26	3.7340	3.7340	-0.7719	25.26	0.29	-0.750			
0.2913	18640.20	3.7310	3.7309	-0.7917	25.26	0.29	-0.750			
0.2937	18794.25	3.7280	3.7283	-0.8024	25.26	0.29	-0.750			
0.2961	18948.38	3.7250	3.7250	-0.8123	25.26	0.29	-0.750			
0.2985	19106.96	3.7220	3.7220	-0.8304	25.26	0.29	-0.750			
0.3011	19267.87	3.7190	3.7189	-0.8367	25.26	0.29	-0.750			
0.3036	19430.18	3.7160	3.7159	-0.8492	25.26	0.29	-0.750			
0.3062	19593.79	3.7130	3.7134	-0.8600	25.26	0.29	-0.750			
0.3087	19758.37	3.7100	3.7100	-0.8766	25.26	0.29	-0.750			
0.3114	19927.42	3.7070	3.7069	-0.8906	25.25	0.28	-0.750			
0.3140	20098.14	3.7040	3.7040	-0.9002	25.25	0.28	-0.750			
0.3168	20275.46	3.7010	3.7009	-0.9240	25.24	0.27	-0.750			
0.3196	20453.11	3.6980	3.6981	-0.9399	25.24	0.27	-0.750			
0.3224	20634.91	3.6950	3.6950	-0.9544	25.24	0.27	-0.750			
0.3253	20819.23	3.6920	3.6919	-0.9724	25.23	0.26	-0.750			
0.3282	21007.01	3.6890	3.6890	-0.9856	25.23	0.26	-0.750			
0.3312	21198.47	3.6860	3.6860	-1.0127	25.23	0.26	-0.750			
0.3343	21396.77	3.6830	3.6830	-1.0296	25.23	0.26	-0.750			
0.3374	21595.30	3.6800	3.6800	-1.0434	25.22	0.25	-0.750			
0.3406	21796.32	3.6770	3.6770	-1.0581	25.22	0.25	-0.750			
0.3437	21999.65	3.6740	3.6742	-1.0814	25.22	0.25	-0.750			
0.3470	22210.76	3.6710	3.6709	-1.0948	25.21	0.24	-0.750			
0.3504	22423.66	3.6680	3.6680	-1.1135	25.21	0.24	-0.750			
0.3537	22637.78	3.6650	3.6649	-1.1287	25.20	0.23	-0.750			
0.3571	22857.20	3.6620	3.6622	-1.1618	25.20	0.23	-0.750			
0.3607	23082.56	3.6590	3.6588	-1.1762	25.19	0.22	-0.750			
0.3642	23310.10	3.6560	3.6559	-1.1944	25.18	0.21	-0.750			
0.3678	23537.71	3.6530	3.6531	-1.2147	25.17	0.20	-0.750			
0.3715	23777.62	3.6500	3.6499	-1.2467	25.17	0.20	-0.750			
0.3753	24019.50	3.6470	3.6469	-1.2625	25.16	0.19	-0.750			
0.3791	24259.55	3.6440	3.6440	-1.2992	25.15	0.18	-0.750			
0.3830	24511.37	3.6410	3.6411	-1.3184	25.15	0.18	-0.750			
0.3871	24774.88	3.6380	3.6379	-1.3469	25.14	0.17	-0.750			
0.3911	25032.22	3.6350	3.6350	-1.3770	25.13	0.16	-0.750			
0.3953	25300.23	3.6320	3.6321	-1.3895	25.13	0.16	-0.750			
0.3995	25570.07	3.6290	3.6289	-1.4199	25.12	0.15	-0.750			
0.4038	25844.18	3.6260	3.6258	-1.4478	25.11	0.14	-0.750			
0.4081	26121.21	3.6230	3.6230	-1.4629	25.11	0.14	-0.750			
0.4127	26410.35	3.6200	3.6200	-1.4941	25.10	0.13	-0.750			
0.4172	26701.41	3.6170	3.6169	-1.5199	25.10	0.13	-0.750			
0.4217	26988.37	3.6140	3.6140	-1.5423	25.09	0.12	-0.750			
0.4264	27291.87	3.6110	3.6111	-1.5863	25.08	0.11	-0.750	0.405	0.578	
0.4311	27592.97	3.6080	3.6081	-1.6169	25.07	0.10	-0.750			
0.4361	27908.87	3.6050	3.6051	-1.6423	25.06	0.09	-0.750			
0.4412	28235.02	3.6020	3.6019	-1.6815	25.05	0.08	-0.750			
0.4463	28561.47	3.5990	3.5988	-1.7076	25.05	0.08	-0.750			
0.4515	28893.26	3.5960	3.5958	-1.7370	25.05	0.08	-0.750			
0.4566	29223.99	3.5930	3.5931	-1.7611	25.05	0.08	-0.750			
0.4619	29562.36	3.5900	3.5903	-1.8073	25.04	0.07	-0.750			
0.4673	29908.72	3.5870	3.5870	-1.8477	25.03	0.06	-0.750			
0.4730	30270.41	3.5840	3.5839	-1.8930	25.03	0.06	-0.750			
0.4788	30642.62	3.5810	3.5811	-1.9399	25.03	0.06	-0.750			
0.4847	31022.15	3.5780	3.5781	-1.9743	25.03	0.06	-0.750			
0.4907	31402.02	3.5750	3.5749	-1.9939	25.02	0.05	-0.750			
0.4967	31788.61	3.5720	3.5717	-2.0103	25.02	0.05	-0.750			
0.5027	32174.20	3.5690	3.5689	-2.0156	25.01	0.04	-0.750			
0.5088	32564.37	3.5660	3.5658	-2.0351	25.01	0.04	-0.750			
0.5149	32955.96	3.5630	3.5628	-2.0568	25.01	0.04	-0.750			
0.5211	33350.99	3.5600	3.5598	-2.0692	25.01	0.04	-0.750			
0.5275	33757.05	3.5570	3.5570	-2.0794	25.01	0.04	-0.750			
0.5337	34158.03	3.5540	3.5542	-2.0851	25.01	0.04	-0.750			
0.5401	34565.01	3.5510	3.5511	-2.0784	25.02	0.05	-0.750			
0.5463	34966.16	3.5480	3.5479	-2.0639	25.02	0.05	-0.750			
0.5524	35356.71	3.5450	3.5453	-2.0653	25.01	0.04	-0.750			
0.5587	35755.31	3.5420	3.5417	-2.0501	25.01	0.04	-0.750			
0.5648	36146.59	3.5390	3.5391	-2.0376	25.01	0.04	-0.750			
0.5709	36536.69	3.5360	3.5361	-2.0159	25.01	0.04	-0.750			
0.5769	36924.05	3.5330	3.5328	-2.0222	25.02	0.05	-0.750			
0.5830	37311.31	3.5300	3.5300	-1.9733	25.02	0.05	-0.750			
0.5889	37689.58	3.5270	3.5270	-1.9557	25.03	0.06	-0.750			
0.5947	38061.96	3.5240	3.5241	-1.9230	25.03	0.06	-0.750			
0.6005	38432.90	3.5210	3.5211	-1.8894	25.04	0.07	-0.750			
0.6062	38795.49	3.5180	3.5178	-1.8575	25.04	0.07	-0.750			
0.6117	39147.98	3.5150	3.5148	-1.8209	25.04	0.07	-0.750			
0.6171	39491.72	3.5120	3.5120	-1.7743	25.05	0.08	-0.750			
0.6225	39837.51	3.5090	3.5090	-1.7536	25.06	0.09	-0.750			
0.6276	40166.72	3.5060	3.5058	-1.6968	25.08	0.11	-0.750			
0.6326	40484.76	3.5030	3.5030	-1.6506	25.09	0.12	-0.750			
0.6375	40800.74	3.5000	3.5003	-1.6106	25.11	0.14	-0.750			
0.6423	41106.58	3.4970	3.4970	-1.5655	25.12	0.15	-0.750			
0.6470	41406.16	3.4940	3.4938	-1.5185	25.13	0.16	-0.750			
0.6515	41693.48	3.4910	3.4909	-1.4706	25.14	0.17	-0.750			
0.6558	41971.56	3.4880	3.4882	-1.4352	25.15	0.18	-0.750			
0.6600	42240.74	3.4850	3.4849	-1.3835	25.17	0.20	-0.750			
0.6641	42500.87	3.4820	3.4819	-1.3361	25.18	0.21	-0.750			
0.6680	42755.07	3.4790	3.4792	-1.3008	25.20	0.23	-0.750			
0.6719	43003.52	3.4760	3.4759	-1.2632	25.22	0.25	-0.750			
0.6756	43239.55	3.4730	3.4729	-1.2146	25.23	0.26	-0.750			
0.6792	43466.87	3.4700	3.4700	-1.1788	25.25	0.28	-0.750			
0.6826	43685.44	3.4670	3.4672	-1.1439	25.26	0.29	-0.750			
0.6860	43904.97	3.4640	3.4638	-1.1157	25.28	0.31	-0.750			
0.6893	44115.77	3.4610	3.4608	-1.0801	25.29	0.32	-0.750			
0.6925	44319.62	3.4580	3.4581	-1.0498	25.30	0.33	-0.750			
0.6956	44519.32	3.4550	3.4550	-1.0195	25.31	0.34	-0.750			
0.6986	44713.28	3.4520	3.4519	-0.9828	25.32	0.35	-0.750			
0.7015	44896.76	3.4490	3.4490	-0.9487	25.34	0.37	-0.750			
0.7042	45071.15	3.4460	3.4460	-0.9216	25.35	0.38	-0.750			
0.7070	45247.82	3.4430	3.4430	-0.9033	25.36	0.39	-0.750			
0.7097	45417.77	3.4400	3.4399	-0.8869	25.37	0.40	-0.750			
0.7123	45584.77	3.4370	3.4370	-0.8703	25.38	0.41	-0.750			
0.7148	45750.38	3.4340	3.4341	-0.8593	25.39	0.42	-0.750			
0.7174	45914.65	3.4310	3.4310	-0.8677	25.40	0.43	-0.750			
0.7200	46078.51	3.4280	3.4280	-0.8651	25.40	0.43	-0.750			
0.7226	46245.51	3.4250	3.4248	-0.8692	25.41	0.44	-0.750			
0.7252	46414.77	3.4220	3.4220	-0.8728	25.42	0.45	-0.750			
0.7279	46583.00	3.4190	3.4190	-0.8671	25.43	0.46	-0.750			
0.7305	46751.25	3.4160	3.4159	-0.8617	25.44	0.47	-0.750			
0.7331	46915.74	3.4130	3.4130	-0.8558	25.45	0.48	-0.750			
0.7356	47077.16	3.4100	3.4099	-0.8473	25.45	0.48	-0.750			
0.7381	47238.68	3.4070	3.4070	-0.8433	25.46	0.49	-0.750			
0.7406	47401.59	3.4040	3.4040	-0.8323	25.47	0.50	-0.750			
0.7432	47562.81	3.4010	3.4011	-0.8281	25.48	0.51	-0.750			
0.7456	47721.00	3.3980	3.3980	-0.8168	25.49	0.52	-0.750			
0.7481	47876.54	3.3950	3.3950	-0.8059	25.49	0.52	-0.750			
0.7505	48029.72	3.3920	3.3919	-0.7889	25.50	0.53	-0.750			
0.7528	48179.54	3.3890	3.3890	-0.7734	25.51	0.54	-0.750			
0.7551	48328.08	3.3860	3.3861	-0.7561	25.52	0.55	-0.750			
0.7574	48472.65	3.3830	3.3829	-0.7384	25.52	0.55	-0.750			
0.7596	48613.27	3.3800	3.3800	-0.7124	25.53	0.56	-0.750			
0.7617	48747.45	3.3770	3.3770	-0.6922	25.54	0.57	-0.750			
0.7637	48876.87	3.3740	3.3740	-0.6719	25.54	0.57	-0.750			
0.7657	49004.35	3.3710	3.3711	-0.6545	25.55	0.58	-0.750			
0.7676	49127.51	3.3680	3.3678	-0.6345	25.56	0.59	-0.750			
0.7695	49247.97	3.3650	3.3650	-0.6152	25.56	0.59	-0.750			
0.7713	49364.47	3.3620	3.3620	-0.5958	25.56	0.59	-0.750			
0.7731	49477.42	3.3590	3.3591	-0.5776	25.57	0.60	-0.750			
0.7748	49585.37	3.3560	3.3560	-0.5576	25.57	0.60	-0.750			
0.7764	49690.98	3.3530	3.3530	-0.5409	25.57	0.60	-0.750			
0.7780	49792.69	3.3500	3.3500	-0.5230	25.58	0.61	-0.750			
0.7796	49891.96	3.3470	3.3470	-0.5060	25.58	0.61	-0.750			
0.7811	49987.58	3.3440	3.3441	-0.4928	25.58	0.61	-0.750			
0.7825	50080.39	3.3410	3.3410	-0.4770	25.59	0.62	-0.750			
0.7839	50169.62	3.3380	3.3380	-0.4638	25.59	0.62	-0.750			
0.7853	50257.90	3.3350	3.3349	-0.4485	25.60	0.63	-0.750			
0.7866	50342.69	3.3320	3.3320	-0.4357	25.60	0.63	-0.750			
0.7879	50425.07	3.3290	3.3291	-0.4236	25.61	0.64	-0.750			
0.7891	50505.59	3.3260	3.3260	-0.4109	25.61	0.64	-0.750			
0.7903	50582.33	3.3230	3.3229	-0.3996	25.62	0.65	-0.750			
0.7915	50657.92	3.3200	3.3201	-0.3901	25.62	0.65	-0.750			
0.7927	50732.10	3.3170	3.3169	-0.3769	25.63	0.66	-0.750			
0.7938	50803.77	3.3140	3.3141	-0.3696	25.63	0.66	-0.750			
0.7949	50873.18	3.3110	3.3111	-0.3606	25.64	0.67	-0.750			
0.7960	50941.30	3.3080	3.3079	-0.3533	25.64	0.67	-0.750			
0.7970	51008.29	3.3050	3.3050	-0.3445	25.65	0.68	-0.750			
0.7980	51074.27	3.3020	3.3020	-0.3375	25.65	0.68	-0.750			
0.7990	51138.13	3.2990	3.2991	-0.3294	25.66	0.69	-0.750			
0.8000	51201.35	3.2960	3.2959	-0.3244	25.66	0.69	-0.750			
0.8010	51261.68	3.2930	3.2930	-0.3155	25.67	0.70	-0.750			
0.8019	51321.17	3.2900	3.2899	-0.3082	25.67	0.70	-0.750			
0.8028	51379.76	3.2870	3.2871	-0.3041	25.67	0.70	-0.750			
0.8037	51438.38	3.2840	3.2840	-0.2984	25.68	0.71	-0.750			
0.8046	51494.86	3.2810	3.2810	-0.2920	25.68	0.71	-0.750			
0.8055	51550.18	3.2780	3.2780	-0.2866	25.69	0.72	-0.750			
0.8063	51604.43	3.2750	3.2751	-0.2816	25.69	0.72	-0.750			
0.8072	51657.91	3.2720	3.2719	-0.2774	25.70	0.73	-0.750			
0.8080	51710.85	3.2690	3.2691	-0.2733	25.70	0.73	-0.750			
0.8088	51762.63	3.2660	3.2659	-0.2686	25.71	0.74	-0.750			
0.8096	51814.44	3.2630	3.2630	-0.2652	25.71	0.74	-0.750			
0.8104	51864.71	3.2600	3.2600	-0.2608	25.72	0.75	-0.750			
0.8112	51914.22	3.2570	3.2570	-0.2565	25.72	0.75	-0.750			
0.8119	51962.81	3.2540	3.2539	-0.2535	25.73	0.76	-0.750			
0.8127	52011.35	3.2510	3.2510	-0.2498	25.73	0.76	-0.750			
0.8134	52059.15	3.2480	3.2479	-0.2465	25.74	0.77	-0.750			
0.8142	52106.12	3.2450	3.2450	-0.2428	25.74	0.77	-0.750			
0.8149	52152.52	3.2420	3.2421	-0.2394	25.75	0.78	-0.750			
0.8156	52198.01	3.2390	3.2390	-0.2369	25.75	0.78	-0.750			
0.8163	52242.81	3.2360	3.2360	-0.2342	25.76	0.79	-0.750			
0.8170	52287.68	3.2330	3.2330	-0.2313	25.76	0.79	-0.750			
0.8177	52331.57	3.2300	3.2300	-0.2285	25.76	0.79	-0.750			
0.8184	52375.65	3.2270	3.2270	-0.2262	25.77	0.80	-0.750			
0.8190	52418.83	3.2240	3.2241	-0.2238	25.77	0.80	-0.750			
0.8197	52461.50	3.2210	3.2210	-0.2207	25.78	0.81	-0.750			
0.8204	52503.53	3.2180	3.2180	-0.2184	25.79	0.82	-0.750			
0.8210	52544.95	3.2150	3.2150	-0.2150	25.79	0.82	-0.750			
0.8217	52585.94	3.2120	3.2120	-0.2126	25.80	0.83	-0.750			
0.8223	52626.85	3.2090	3.2090	-0.2109	25.80	0.83	-0.750			
0.8229	52666.89	3.2060	3.2061	-0.2094	25.81	0.84	-0.750			
0.8235	52706.90	3.2030	3.2029	-0.2069	25.81	0.84	-0.750			
0.8242	52746.38	3.2000	3.1999	-0.2043	25.82	0.85	-0.750			
0.8248	52785.41	3.1970	3.1971	-0.2022	25.83	0.86	-0.750			
0.8254	52824.07	3.1940	3.1940	-0.1998	25.83	0.86	-0.750			
0.8260	52862.37	3.1910	3.1910	-0.1981	25.84	0.87	-0.750			
0.8266	52900.14	3.1880	3.1880	-0.1953	25.84	0.87	-0.750			
0.8271	52937.40	3.1850	3.1849	-0.1928	25.85	0.88	-0.750			
0.8277	52973.79	3.1820	3.1821	-0.1912	25.85	0.88	-0.750			
0.8283	53010.52	3.1790	3.1790	-0.1897	25.86	0.89	-0.750			
0.8289	53046.58	3.1760	3.1760	-0.1883	25.86	0.89	-0.750			
0.8294	53082.84	3.1730	3.1730	-0.1865	25.87	0.90	-0.750			
0.8300	53118.52	3.1700	3.1700	-0.1848	25.87	0.90	-0.750			
0.8305	53153.90	3.1670	3.1669	-0.1828	25.87	0.90	-0.750			
0.8311	53188.94	3.1640	3.1642	-0.1814	25.87	0.90	-0.750			
0.8316	53223.46	3.1610	3.1610	-0.1794	25.88	0.91	-0.750			
0.8321	53257.49	3.1580	3.1579	-0.1772	25.88	0.91	-0.750			
0.8327	53291.50	3.1550	3.1549	-0.1748	25.89	0.92	-0.750			
0.8332	53324.62	3.1520	3.1521	-0.1726	25.90	0.93	-0.750			
0.8337	53357.73	3.1490	3.1490	-0.1716	25.90	0.93	-0.750			
0.8342	53390.49	3.1460	3.1461	-0.1697	25.91	0.94	-0.750			
0.8347	53422.67	3.1430	3.1429	-0.1683	25.91	0.94	-0.750			
0.8352	53454.79	3.1400	3.1400	-0.1664	25.92	0.95	-0.750			
0.8357	53486.49	3.1370	3.1370	-0.1654	25.93	0.96	-0.750			
0.8362	53518.18	3.1340	3.1340	-0.1646	25.93	0.96	-0.750			
0.8367	53550.06	3.1310	3.1310	-0.1630	25.94	0.97	-0.750			
0.8372	53581.12	3.1280	3.1280	-0.1614	25.94	0.97	-0.750			
0.8377	53611.95	3.1250	3.1250	-0.1598	25.95	0.98	-0.750			
0.8382	53642.46	3.1220	3.1221	-0.1581	25.96	0.99	-0.750			
0.8386	53672.42	3.1190	3.1189	-0.1572	25.96	0.99	-0.750			
0.8391	53702.58	3.1160	3.1158	-0.1561	25.97	1.00	-0.750			
0.8396	53732.36	3.1130	3.1131	-0.1544	25.97	1.00	-0.750			
0.8400	53761.91	3.1100	3.1100	-0.1535	25.98	1.01	-0.750			
0.8405	53791.81	3.1070	3.1070	-0.1516	25.98	1.01	-0.750			
0.8409	53820.59	3.1040	3.1040	-0.1502	25.99	1.02	-0.750			
0.8414	53849.04	3.1010	3.1011	-0.1488	25.99	1.02	-0.750			
0.8418	53877.48	3.0980	3.0980	-0.1474	25.99	1.02	-0.750			
0.8423	53905.39	3.0950	3.0949	-0.1454	26.00	1.03	-0.750			
0.8427	53933.09	3.0920	3.0920	-0.1446	26.00	1.03	-0.750			
0.8431	53960.69	3.0890	3.0891	-0.1440	26.01	1.04	-0.750			
0.8436	53988.30	3.0860	3.0861	-0.1436	26.01	1.04	-0.750			
0.8440	54016.13	3.0830	3.0829	-0.1425	26.02	1.05	-0.750			
0.8444	54043.17	3.0800	3.0800	-0.1412	26.02	1.05	-0.750			
0.8448	54070.36	3.0770	3.0771	-0.1397	26.03	1.06	-0.750			
0.8453	54097.20	3.0740	3.0740	-0.1385	26.04	1.07	-0.750			
0.8457	54123.74	3.0710	3.0709	-0.1380	26.04	1.07	-0.750			
0.8461	54149.83	3.0680	3.0680	-0.1366	26.05	1.08	-0.750			
0.8465	54175.76	3.0650	3.0650	-0.1355	26.06	1.09	-0.750			
0.8469	54201.83	3.0620	3.0620	-0.1348	26.06	1.09	-0.750			
0.8473	54227.86	3.0590	3.0590	-0.1339	26.07	1.10	-0.750			
0.8477	54253.35	3.0560	3.0561	-0.1329	26.07	1.10	-0.750			
0.8481	54279.04	3.0530	3.0530	-0.1324	26.08	1.11	-0.750			
0.8485	54304.24	3.0500	3.0500	-0.1315	26.09	1.12	-0.750			
0.8489	54329.24	3.0470	3.0469	-0.1299	26.09	1.12	-0.750			
0.8493	54354.15	3.0440	3.0440	-0.1291	26.10	1.13	-0.750			
0.8497	54378.82	3.0410	3.0411	-0.1282	26.10	1.13	-0.750			
0.8501	54403.34	3.0380	3.0380	-0.1276	26.11	1.14	-0.750			
0.8504	54427.81	3.0350	3.0350	-0.1269	26.12	1.15	-0.750			
0.8508	54452.00	3.0320	3.0319	-0.1256	26.12	1.15	-0.750			
0.8512	54476.05	3.0290	3.0290	-0.1249	26.13	1.16	-0.750			
0.8516	54500.00	3.0260	3.0261	-0.1238	26.13	1.16	-0.750			
0.8519	54523.96	3.0230	3.0230	-0.1232	26.14	1.17	-0.750			
0.8523	54547.46	3.0200	3.0200	-0.1219	26.15	1.18	-0.750			
0.8527	54570.71	3.0170	3.0170	-0.1205	26.15	1.18	-0.750			
0.8530	54593.63	3.0140	3.0141	-0.1192	26.16	1.19	-0.750			
0.8534	54616.41	3.0110	3.0110	-0.1181	26.16	1.19	-0.750			
0.8537	54639.01	3.0080	3.0081	-0.1170	26.17	1.20	-0.750			
0.8541	54661.35	3.0050	3.0049	-0.1158	26.17	1.20	-0.750			
0.8544	54683.46	3.0020	3.0020	-0.1150	26.18	1.21	-0.751			
