Ah_balance (normalized)	Ah_balance (mAh)	Voltage - fit (V)	Voltage -  interpolate (V)	dQ/dV (1/V)	Temperature (°C)	Temperature - diff (°C)	Current (C)	R_DC 0ms (mOhm)	R_DC 50ms (mOhm)	R_DC 50 ms PEC (mOhm)
0.0001	9.55	4.1640	4.1638	-0.0950	25.77	0.00	-0.750			
0.0005	30.98	4.1610	4.1610	-0.1366	25.77	0.00	-0.750			
0.0010	63.65	4.1580	4.1579	-0.1842	25.77	0.00	-0.750			
0.0016	103.73	4.1550	4.1550	-0.2257	25.77	0.00	-0.750			
0.0024	151.52	4.1520	4.1519	-0.2640	25.77	0.00	-0.750			
0.0032	206.93	4.1490	4.1491	-0.3035	25.77	-0.00	-0.750			
0.0042	268.86	4.1460	4.1461	-0.3380	25.77	-0.00	-0.750			
0.0053	337.38	4.1430	4.1430	-0.3732	25.77	-0.00	-0.750			
0.0064	412.78	4.1400	4.1400	-0.4044	25.76	-0.01	-0.750			
0.0077	494.36	4.1370	4.1370	-0.4380	25.76	-0.01	-0.750			
0.0091	581.62	4.1340	4.1340	-0.4662	25.76	-0.01	-0.750			
0.0105	674.40	4.1310	4.1310	-0.4925	25.76	-0.01	-0.750			
0.0121	772.08	4.1280	4.1280	-0.5168	25.76	-0.01	-0.750			
0.0137	874.04	4.1250	4.1250	-0.5361	25.75	-0.02	-0.750			
0.0153	979.50	4.1220	4.1220	-0.5539	25.75	-0.02	-0.750			
0.0170	1087.84	4.1190	4.1190	-0.5707	25.75	-0.02	-0.750			
0.0187	1199.64	4.1160	4.1159	-0.5819	25.74	-0.03	-0.750			
0.0205	1313.28	4.1130	4.1130	-0.5950	25.73	-0.04	-0.750			
0.0223	1428.25	4.1100	4.1100	-0.6075	25.73	-0.04	-0.750			
0.0242	1547.12	4.1070	4.1070	-0.6200	25.72	-0.05	-0.750			
0.0261	1667.81	4.1040	4.1040	-0.6290	25.72	-0.05	-0.750			
0.0280	1789.76	4.1010	4.1013	-0.6363	25.71	-0.06	-0.750			
0.0299	1912.70	4.0980	4.0980	-0.6417	25.71	-0.06	-0.750			
0.0318	2036.98	4.0950	4.0950	-0.6494	25.71	-0.06	-0.750			
0.0338	2160.55	4.0920	4.0920	-0.6572	25.71	-0.06	-0.750			
0.0358	2288.46	4.0890	4.0890	-0.6660	25.71	-0.06	-0.750			
0.0378	2416.78	4.0860	4.0859	-0.6688	25.71	-0.06	-0.750			
0.0398	2547.10	4.0830	4.0830	-0.6754	25.71	-0.06	-0.750			
0.0418	2677.02	4.0800	4.0800	-0.6799	25.71	-0.06	-0.750			
0.0439	2808.43	4.0770	4.0769	-0.6819	25.71	-0.06	-0.750			
0.0459	2938.31	4.0740	4.0740	-0.6852	25.71	-0.06	-0.750			
0.0479	3068.72	4.0710	4.0710	-0.6865	25.70	-0.07	-0.750			
0.0501	3203.42	4.0680	4.0680	-0.6939	25.70	-0.07	-0.750			
0.0521	3337.51	4.0650	4.0648	-0.6923	25.70	-0.07	-0.750			
0.0542	3469.66	4.0620	4.0621	-0.6969	25.70	-0.07	-0.750			
0.0563	3603.14	4.0590	4.0590	-0.7016	25.70	-0.07	-0.750			
0.0584	3738.13	4.0560	4.0559	-0.7075	25.70	-0.07	-0.750			
0.0605	3874.44	4.0530	4.0530	-0.7101	25.70	-0.07	-0.750			
0.0627	4012.99	4.0500	4.0501	-0.7136	25.70	-0.07	-0.750			
0.0649	4151.13	4.0470	4.0470	-0.7139	25.70	-0.07	-0.750			
0.0670	4288.46	4.0440	4.0441	-0.7142	25.70	-0.07	-0.750			
0.0691	4422.79	4.0410	4.0410	-0.7146	25.70	-0.07	-0.750			
0.0713	4560.24	4.0380	4.0380	-0.7257	25.70	-0.07	-0.750			
0.0735	4701.76	4.0350	4.0349	-0.7253	25.70	-0.07	-0.750			
0.0757	4843.33	4.0320	4.0319	-0.7307	25.70	-0.07	-0.750			
0.0779	4983.66	4.0290	4.0293	-0.7295	25.70	-0.07	-0.750			
0.0801	5123.34	4.0260	4.0260	-0.7269	25.70	-0.07	-0.750			
0.0822	5260.71	4.0230	4.0229	-0.7278	25.70	-0.07	-0.750			
0.0844	5399.98	4.0200	4.0199	-0.7268	25.70	-0.07	-0.750			
0.0866	5539.74	4.0170	4.0171	-0.7287	25.70	-0.07	-0.750			
0.0887	5679.91	4.0140	4.0140	-0.7324	25.70	-0.07	-0.750			
0.0909	5820.15	4.0110	4.0111	-0.7370	25.70	-0.07	-0.750			
0.0932	5962.07	4.0080	4.0078	-0.7416	25.70	-0.07	-0.750			
0.0954	6103.73	4.0050	4.0050	-0.7463	25.70	-0.07	-0.750			
0.0976	6248.84	4.0020	4.0020	-0.7491	25.71	-0.06	-0.750			
0.0999	6395.86	3.9990	3.9990	-0.7531	25.71	-0.06	-0.750			
0.1022	6540.58	3.9960	3.9960	-0.7490	25.71	-0.06	-0.750			
0.1044	6682.08	3.9930	3.9930	-0.7483	25.71	-0.06	-0.750			
0.1066	6824.90	3.9900	3.9899	-0.7493	25.71	-0.06	-0.750			
0.1089	6967.45	3.9870	3.9870	-0.7537	25.71	-0.06	-0.750			
0.1111	7113.55	3.9840	3.9840	-0.7532	25.72	-0.05	-0.750			
0.1135	7261.79	3.9810	3.9810	-0.7602	25.72	-0.05	-0.750			
0.1157	7407.30	3.9780	3.9782	-0.7600	25.72	-0.05	-0.750			
0.1180	7552.82	3.9750	3.9749	-0.7569	25.72	-0.05	-0.750			
0.1202	7695.83	3.9720	3.9720	-0.7581	25.72	-0.05	-0.750			
0.1225	7841.05	3.9690	3.9690	-0.7609	25.73	-0.04	-0.750			
0.1248	7988.81	3.9660	3.9660	-0.7659	25.73	-0.04	-0.750			
0.1271	8135.72	3.9630	3.9630	-0.7709	25.73	-0.04	-0.750			
0.1294	8283.84	3.9600	3.9600	-0.7735	25.73	-0.04	-0.750			
0.1318	8432.40	3.9570	3.9569	-0.7763	25.74	-0.03	-0.750			
0.1341	8581.91	3.9540	3.9541	-0.7805	25.74	-0.03	-0.750			
0.1364	8731.80	3.9510	3.9510	-0.7802	25.74	-0.03	-0.750			
0.1388	8883.35	3.9480	3.9479	-0.7840	25.75	-0.02	-0.750			
0.1412	9034.59	3.9450	3.9451	-0.7821	25.75	-0.02	-0.750			
0.1435	9184.00	3.9420	3.9420	-0.7774	25.75	-0.02	-0.750			
0.1458	9333.04	3.9390	3.9390	-0.7866	25.76	-0.01	-0.750			
0.1482	9484.17	3.9360	3.9360	-0.7878	25.76	-0.01	-0.750			
0.1506	9635.40	3.9330	3.9328	-0.7882	25.77	-0.00	-0.750			
0.1529	9787.46	3.9300	3.9303	-0.7897	25.77	-0.00	-0.750			
0.1553	9939.87	3.9270	3.9269	-0.7914	25.77	0.00	-0.750			
0.1577	10092.00	3.9240	3.9241	-0.8005	25.77	0.00	-0.750			
0.1601	10246.13	3.9210	3.9209	-0.7987	25.77	0.00	-0.750			
0.1625	10400.79	3.9180	3.9179	-0.8011	25.77	0.00	-0.750			
0.1649	10554.45	3.9150	3.9153	-0.8021	25.77	0.00	-0.750			
0.1673	10708.87	3.9120	3.9119	-0.8041	25.77	0.00	-0.750			
0.1697	10862.31	3.9090	3.9089	-0.8042	25.78	0.01	-0.750			
0.1721	11015.16	3.9060	3.9060	-0.7997	25.78	0.01	-0.750			
0.1745	11167.16	3.9030	3.9031	-0.8021	25.78	0.01	-0.750			
0.1770	11325.51	3.9000	3.9000	-0.8104	25.79	0.02	-0.750			
0.1794	11480.86	3.8970	3.8970	-0.8100	25.79	0.02	-0.750			
0.1818	11634.00	3.8940	3.8940	-0.8172	25.79	0.02	-0.750			
0.1843	11793.12	3.8910	3.8910	-0.8181	25.80	0.03	-0.750			
0.1867	11951.36	3.8880	3.8879	-0.8176	25.80	0.03	-0.750			
0.1892	12108.89	3.8850	3.8849	-0.8177	25.80	0.03	-0.750			
0.1917	12265.84	3.8820	3.8819	-0.8158	25.80	0.03	-0.750			
0.1941	12421.19	3.8790	3.8790	-0.8228	25.80	0.03	-0.750			
0.1965	12579.17	3.8760	3.8758	-0.8207	25.80	0.03	-0.750			
0.1990	12735.54	3.8730	3.8730	-0.8182	25.81	0.04	-0.750			
0.2015	12897.25	3.8700	3.8700	-0.8216	25.81	0.04	-0.750			
0.2040	13056.07	3.8670	3.8670	-0.8202	25.81	0.04	-0.750			
0.2064	13210.89	3.8640	3.8640	-0.8251	25.81	0.04	-0.750			
0.2089	13367.69	3.8610	3.8610	-0.8223	25.81	0.04	-0.750			
0.2113	13524.33	3.8580	3.8579	-0.8221	25.82	0.05	-0.750			
0.2138	13684.83	3.8550	3.8549	-0.8286	25.82	0.05	-0.750			
0.2163	13845.01	3.8520	3.8521	-0.8322	25.82	0.05	-0.750			
0.2188	14004.83	3.8490	3.8490	-0.8343	25.82	0.05	-0.750			
0.2213	14165.56	3.8460	3.8460	-0.8292	25.82	0.05	-0.750			
0.2238	14322.69	3.8430	3.8430	-0.8229	25.83	0.06	-0.750			
0.2263	14483.48	3.8400	3.8399	-0.8242	25.83	0.06	-0.750			
0.2288	14641.02	3.8370	3.8371	-0.8218	25.83	0.06	-0.750			
0.2312	14797.71	3.8340	3.8340	-0.8206	25.84	0.07	-0.750			
0.2337	14953.99	3.8310	3.8310	-0.8213	25.84	0.07	-0.750			
0.2361	15111.40	3.8280	3.8280	-0.8208	25.84	0.07	-0.750			
0.2386	15271.34	3.8250	3.8250	-0.8270	25.85	0.08	-0.750			
0.2411	15430.84	3.8220	3.8220	-0.8256	25.85	0.08	-0.750			
0.2436	15589.26	3.8190	3.8190	-0.8281	25.85	0.08	-0.750			
0.2461	15748.47	3.8160	3.8160	-0.8267	25.86	0.09	-0.750			
0.2486	15908.97	3.8130	3.8129	-0.8147	25.86	0.09	-0.750			
0.2510	16065.77	3.8100	3.8100	-0.8087	25.87	0.10	-0.750			
0.2534	16218.59	3.8070	3.8072	-0.8102	25.87	0.10	-0.750			
0.2558	16372.78	3.8040	3.8040	-0.8081	25.87	0.10	-0.750			
0.2582	16526.91	3.8010	3.8008	-0.8198	25.88	0.11	-0.750			
0.2607	16683.91	3.7980	3.7981	-0.8140	25.88	0.11	-0.750			
0.2632	16844.61	3.7950	3.7949	-0.8222	25.89	0.12	-0.750			
0.2657	17004.45	3.7920	3.7924	-0.8142	25.89	0.12	-0.750			
0.2681	17161.03	3.7890	3.7888	-0.8042	25.89	0.12	-0.750			
0.2705	17312.07	3.7860	3.7861	-0.7960	25.90	0.13	-0.750			
0.2728	17462.32	3.7830	3.7831	-0.7886	25.90	0.13	-0.750			
0.2752	17614.00	3.7800	3.7799	-0.7897	25.91	0.14	-0.750			
0.2776	17765.51	3.7770	3.7770	-0.7905	25.91	0.14	-0.750			
0.2799	17915.92	3.7740	3.7740	-0.7886	25.91	0.14	-0.750			
0.2823	18068.08	3.7710	3.7710	-0.7890	25.92	0.15	-0.750			
0.2847	18220.18	3.7680	3.7680	-0.7849	25.92	0.15	-0.750			
0.2870	18370.28	3.7650	3.7650	-0.7828	25.92	0.15	-0.750			
0.2894	18520.76	3.7620	3.7620	-0.7825	25.93	0.16	-0.750			
0.2917	18670.39	3.7590	3.7590	-0.7813	25.93	0.16	-0.750			
0.2940	18817.94	3.7560	3.7560	-0.7838	25.93	0.16	-0.750			
0.2964	18969.44	3.7530	3.7530	-0.7870	25.93	0.16	-0.750			
0.2988	19121.93	3.7500	3.7500	-0.7876	25.93	0.16	-0.750			
0.3012	19274.19	3.7470	3.7469	-0.7860	25.93	0.16	-0.750			
0.3035	19424.73	3.7440	3.7442	-0.7881	25.93	0.16	-0.750			
0.3059	19575.90	3.7410	3.7410	-0.7896	25.93	0.16	-0.750			
0.3082	19725.64	3.7380	3.7379	-0.7992	25.94	0.17	-0.750			
0.3106	19878.89	3.7350	3.7350	-0.8083	25.94	0.17	-0.750			
0.3131	20035.91	3.7320	3.7319	-0.8184	25.95	0.18	-0.750			
0.3155	20194.58	3.7290	3.7291	-0.8275	25.95	0.18	-0.750			
0.3180	20353.98	3.7260	3.7260	-0.8446	25.95	0.18	-0.750			
0.3206	20516.32	3.7230	3.7231	-0.8569	25.95	0.18	-0.750			
0.3232	20682.22	3.7200	3.7199	-0.8672	25.95	0.18	-0.750			
0.3258	20849.39	3.7170	3.7169	-0.8822	25.95	0.18	-0.750			
0.3285	21020.94	3.7140	3.7143	-0.8970	25.95	0.18	-0.750			
0.3312	21195.28	3.7110	3.7110	-0.9209	25.95	0.18	-0.750			
0.3340	21373.98	3.7080	3.7079	-0.9307	25.95	0.18	-0.750			
0.3368	21554.36	3.7050	3.7049	-0.9425	25.95	0.18	-0.750			
0.3396	21736.45	3.7020	3.7022	-0.9564	25.95	0.18	-0.750			
0.3425	21921.00	3.6990	3.6989	-0.9738	25.95	0.18	-0.750			
0.3454	22107.84	3.6960	3.6960	-0.9886	25.95	0.18	-0.750			
0.3484	22298.62	3.6930	3.6929	-1.0062	25.94	0.17	-0.750			
0.3514	22490.61	3.6900	3.6900	-1.0225	25.94	0.17	-0.750			
0.3546	22693.33	3.6870	3.6870	-1.0571	25.94	0.17	-0.750			
0.3578	22899.17	3.6840	3.6840	-1.0740	25.94	0.17	-0.750			
0.3611	23108.19	3.6810	3.6809	-1.0939	25.93	0.16	-0.750			
0.3644	23319.47	3.6780	3.6781	-1.1101	25.93	0.16	-0.750			
0.3678	23537.53	3.6750	3.6749	-1.1356	25.93	0.16	-0.750			
0.3712	23755.59	3.6720	3.6719	-1.1508	25.92	0.15	-0.750			
0.3746	23975.70	3.6690	3.6690	-1.1761	25.92	0.15	-0.750			
0.3781	24200.22	3.6660	3.6665	-1.2060	25.91	0.14	-0.750			
0.3818	24437.47	3.6630	3.6625	-1.2452	25.90	0.13	-0.750			
0.3856	24679.87	3.6600	3.6602	-1.2733	25.90	0.13	-0.750			
0.3895	24928.06	3.6570	3.6569	-1.3072	25.89	0.12	-0.750			
0.3936	25190.85	3.6540	3.6539	-1.3510	25.89	0.12	-0.750			
0.3976	25447.85	3.6510	3.6509	-1.3483	25.88	0.11	-0.750			
0.4017	25710.21	3.6480	3.6481	-1.3826	25.87	0.10	-0.750			
0.4058	25974.29	3.6450	3.6449	-1.4127	25.87	0.10	-0.750			
0.4101	26248.40	3.6420	3.6420	-1.4446	25.86	0.09	-0.750			
0.4145	26528.22	3.6390	3.6390	-1.4788	25.85	0.08	-0.750			
0.4190	26813.75	3.6360	3.6360	-1.5047	25.84	0.07	-0.750			
0.4236	27111.39	3.6330	3.6329	-1.5398	25.83	0.06	-0.750			
0.4283	27409.95	3.6300	3.6300	-1.5657	25.82	0.05	-0.750			
0.4329	27706.58	3.6270	3.6269	-1.6008	25.82	0.05	-0.750			
0.4378	28019.53	3.6240	3.6241	-1.6243	25.81	0.04	-0.750			
0.4427	28332.36	3.6210	3.6209	-1.6651	25.81	0.04	-0.750			
0.4478	28659.45	3.6180	3.6180	-1.6953	25.80	0.03	-0.750	0.393	0.512	
0.4530	28989.75	3.6150	3.6153	-1.7248	25.79	0.02	-0.750			
0.4582	29322.40	3.6120	3.6120	-1.7466	25.78	0.01	-0.750			
0.4634	29658.71	3.6090	3.6090	-1.7833	25.77	0.00	-0.750			
0.4687	29998.93	3.6060	3.6058	-1.8158	25.77	-0.00	-0.750			
0.4743	30354.72	3.6030	3.6028	-1.8505	25.76	-0.01	-0.750			
0.4798	30708.73	3.6000	3.6001	-1.8885	25.76	-0.01	-0.750			
0.4856	31081.33	3.5970	3.5970	-1.9247	25.75	-0.02	-0.750			
0.4915	31456.83	3.5940	3.5940	-1.9516	25.74	-0.03	-0.750			
0.4974	31833.33	3.5910	3.5910	-1.9877	25.73	-0.04	-0.750			
0.5034	32218.13	3.5880	3.5879	-2.0198	25.72	-0.05	-0.750			
0.5095	32609.91	3.5850	3.5852	-2.0576	25.71	-0.06	-0.750			
0.5158	33009.87	3.5820	3.5819	-2.1003	25.70	-0.07	-0.750			
0.5221	33412.81	3.5790	3.5789	-2.1331	25.70	-0.07	-0.750			
0.5285	33827.04	3.5760	3.5761	-2.1715	25.70	-0.07	-0.750			
0.5352	34252.33	3.5730	3.5730	-2.2142	25.69	-0.08	-0.750			
0.5419	34679.22	3.5700	3.5700	-2.2270	25.69	-0.08	-0.750			
0.5486	35111.84	3.5670	3.5670	-2.2383	25.68	-0.09	-0.750			
0.5554	35546.57	3.5640	3.5640	-2.2490	25.68	-0.09	-0.750			
0.5621	35976.73	3.5610	3.5609	-2.2416	25.68	-0.09	-0.750			
0.5688	36404.91	3.5580	3.5579	-2.2430	25.68	-0.09	-0.750			
0.5755	36830.89	3.5550	3.5551	-2.2433	25.68	-0.09	-0.750			
0.5823	37264.99	3.5520	3.5519	-2.2547	25.68	-0.09	-0.750			
0.5890	37699.02	3.5490	3.5489	-2.2592	25.68	-0.09	-0.750			
0.5959	38135.75	3.5460	3.5459	-2.2495	25.68	-0.09	-0.750			
0.6028	38577.69	3.5430	3.5431	-2.2307	25.68	-0.09	-0.750			
0.6094	39004.21	3.5400	3.5400	-2.1910	25.68	-0.09	-0.750			
0.6160	39421.81	3.5370	3.5369	-2.1503	25.68	-0.09	-0.750			
0.6223	39829.08	3.5340	3.5341	-2.1122	25.68	-0.09	-0.750			
0.6287	40234.30	3.5310	3.5309	-2.0898	25.68	-0.09	-0.750			
0.6348	40629.18	3.5280	3.5278	-2.0485	25.69	-0.08	-0.750			
0.6410	41021.98	3.5250	3.5253	-2.0047	25.69	-0.08	-0.750			
0.6471	41411.58	3.5220	3.5219	-1.9696	25.71	-0.06	-0.750			
0.6528	41779.04	3.5190	3.5190	-1.9137	25.72	-0.05	-0.750			
0.6585	42142.02	3.5160	3.5161	-1.8595	25.73	-0.04	-0.750			
0.6641	42499.97	3.5130	3.5129	-1.8059	25.74	-0.03	-0.750			
0.6693	42836.62	3.5100	3.5099	-1.7313	25.75	-0.02	-0.750			
0.6744	43163.91	3.5070	3.5069	-1.6835	25.76	-0.01	-0.750			
0.6794	43480.52	3.5040	3.5041	-1.6366	25.77	0.00	-0.750			
0.6842	43789.83	3.5010	3.5009	-1.5845	25.79	0.02	-0.750			
0.6889	44088.27	3.4980	3.4981	-1.5294	25.80	0.03	-0.750			
0.6934	44378.56	3.4950	3.4949	-1.4846	25.81	0.04	-0.750			
0.6979	44662.71	3.4920	3.4920	-1.4470	25.82	0.05	-0.750			
0.7021	44934.34	3.4890	3.4890	-1.4037	25.84	0.07	-0.750			
0.7062	45198.22	3.4860	3.4859	-1.3523	25.85	0.08	-0.750			
0.7102	45455.30	3.4830	3.4829	-1.3059	25.87	0.10	-0.750			
0.7141	45704.51	3.4800	3.4801	-1.2592	25.88	0.11	-0.750			
0.7178	45941.27	3.4770	3.4770	-1.2127	25.90	0.13	-0.750			
0.7214	46167.18	3.4740	3.4740	-1.1684	25.92	0.15	-0.750			
0.7248	46385.00	3.4710	3.4710	-1.1287	25.93	0.16	-0.750			
0.7280	46594.08	3.4680	3.4680	-1.0869	25.95	0.18	-0.750			
0.7313	46803.78	3.4650	3.4649	-1.0608	25.96	0.19	-0.750			
0.7344	47004.57	3.4620	3.4621	-1.0262	25.98	0.21	-0.750			
0.7375	47199.99	3.4590	3.4590	-0.9958	25.99	0.22	-0.750			
0.7404	47386.34	3.4560	3.4562	-0.9625	26.00	0.23	-0.750			
0.7432	47565.35	3.4530	3.4530	-0.9407	26.01	0.24	-0.750			
0.7459	47740.66	3.4500	3.4499	-0.9170	26.02	0.25	-0.750			
0.7487	47916.28	3.4470	3.4470	-0.9011	26.03	0.26	-0.750			
0.7514	48087.70	3.4440	3.4438	-0.8906	26.04	0.27	-0.750			
0.7540	48255.57	3.4410	3.4411	-0.8839	26.05	0.28	-0.750			
0.7566	48422.03	3.4380	3.4381	-0.8863	26.06	0.29	-0.750			
0.7592	48590.96	3.4350	3.4350	-0.8925	26.07	0.30	-0.750			
0.7619	48758.74	3.4320	3.4319	-0.9042	26.08	0.31	-0.750			
0.7646	48936.71	3.4290	3.4290	-0.9314	26.09	0.32	-0.750			
0.7675	49117.51	3.4260	3.4260	-0.9594	26.10	0.33	-0.750			
0.7704	49305.61	3.4230	3.4229	-0.9739	26.11	0.34	-0.750			
0.7734	49496.78	3.4200	3.4200	-0.9860	26.12	0.35	-0.750			
0.7764	49689.00	3.4170	3.4170	-0.9924	26.13	0.36	-0.750			
0.7794	49882.22	3.4140	3.4140	-0.9970	26.14	0.37	-0.750			
0.7824	50075.63	3.4110	3.4109	-0.9912	26.15	0.38	-0.750			
0.7854	50267.58	3.4080	3.4079	-0.9791	26.16	0.39	-0.750			
0.7884	50454.86	3.4050	3.4049	-0.9535	26.17	0.40	-0.750			
0.7912	50638.78	3.4020	3.4022	-0.9303	26.18	0.41	-0.750			
0.7940	50814.86	3.3990	3.3989	-0.9043	26.19	0.42	-0.750			
0.7966	50984.35	3.3960	3.3959	-0.8702	26.19	0.42	-0.750			
0.7991	51145.03	3.3930	3.3930	-0.8349	26.20	0.43	-0.750			
0.8017	51305.87	3.3900	3.3900	-0.8155	26.21	0.44	-0.750			
0.8041	51460.09	3.3870	3.3870	-0.7865	26.21	0.44	-0.750			
0.8064	51608.56	3.3840	3.3839	-0.7581	26.22	0.45	-0.750			
0.8086	51751.09	3.3810	3.3811	-0.7302	26.23	0.46	-0.750			
0.8107	51887.66	3.3780	3.3780	-0.6997	26.23	0.46	-0.750			
0.8128	52019.74	3.3750	3.3750	-0.6763	26.24	0.47	-0.750			
0.8148	52146.44	3.3720	3.3720	-0.6478	26.25	0.48	-0.750			
0.8167	52268.00	3.3690	3.3689	-0.6224	26.26	0.49	-0.750			
0.8185	52385.43	3.3660	3.3660	-0.5992	26.26	0.49	-0.750			
0.8203	52497.63	3.3630	3.3631	-0.5752	26.27	0.50	-0.750			
0.8219	52604.68	3.3600	3.3600	-0.5532	26.28	0.51	-0.750			
0.8236	52709.41	3.3570	3.3570	-0.5335	26.29	0.52	-0.750			
0.8251	52809.57	3.3540	3.3540	-0.5133	26.30	0.53	-0.750			
0.8267	52906.62	3.3510	3.3510	-0.4956	26.30	0.53	-0.750			
0.8281	52999.37	3.3480	3.3482	-0.4790	26.31	0.54	-0.750			
0.8295	53089.13	3.3450	3.3450	-0.4629	26.32	0.55	-0.750			
0.8309	53176.92	3.3420	3.3419	-0.4464	26.32	0.55	-0.750			
0.8322	53260.55	3.3390	3.3390	-0.4305	26.33	0.56	-0.750			
0.8335	53341.61	3.3360	3.3360	-0.4172	26.34	0.57	-0.750			
0.8347	53420.36	3.3330	3.3330	-0.4025	26.34	0.57	-0.750			
0.8359	53495.99	3.3300	3.3299	-0.3884	26.35	0.58	-0.750			
0.8370	53568.52	3.3270	3.3271	-0.3756	26.35	0.58	-0.750			
0.8381	53639.56	3.3240	3.3240	-0.3631	26.36	0.59	-0.750			
0.8392	53708.36	3.3210	3.3209	-0.3520	26.36	0.59	-0.750			
0.8402	53773.94	3.3180	3.3181	-0.3401	26.37	0.60	-0.750			
0.8412	53838.38	3.3150	3.3151	-0.3304	26.38	0.61	-0.750			
0.8422	53900.94	3.3120	3.3119	-0.3228	26.38	0.61	-0.750			
0.8432	53962.16	3.3090	3.3090	-0.3137	26.39	0.62	-0.750			
0.8441	54020.99	3.3060	3.3061	-0.3042	26.39	0.62	-0.750			
0.8450	54079.39	3.3030	3.3029	-0.2969	26.40	0.63	-0.750			
0.8459	54135.34	3.3000	3.3001	-0.2878	26.40	0.63	-0.750			
0.8467	54189.08	3.2970	3.2969	-0.2789	26.41	0.64	-0.750			
0.8475	54241.65	3.2940	3.2940	-0.2718	26.42	0.65	-0.750			
0.8483	54292.62	3.2910	3.2910	-0.2643	26.42	0.65	-0.750			
0.8491	54342.87	3.2880	3.2880	-0.2597	26.43	0.66	-0.750			
0.8499	54392.25	3.2850	3.2850	-0.2546	26.43	0.66	-0.750			
0.8506	54440.90	3.2820	3.2820	-0.2497	26.44	0.67	-0.750			
0.8514	54488.56	3.2790	3.2790	-0.2444	26.44	0.67	-0.750			
0.8521	54535.18	3.2760	3.2760	-0.2392	26.44	0.67	-0.750			
0.8528	54580.58	3.2730	3.2730	-0.2332	26.45	0.68	-0.750			
0.8535	54624.64	3.2700	3.2700	-0.2281	26.45	0.68	-0.750			
0.8542	54667.39	3.2670	3.2670	-0.2237	26.46	0.69	-0.750			
0.8548	54709.56	3.2640	3.2641	-0.2193	26.46	0.69	-0.750			
0.8555	54750.87	3.2610	3.2610	-0.2169	26.47	0.70	-0.750			
0.8561	54792.52	3.2580	3.2580	-0.2135	26.47	0.70	-0.750			
0.8568	54833.63	3.2550	3.2550	-0.2104	26.48	0.71	-0.750			
0.8574	54873.69	3.2520	3.2520	-0.2068	26.48	0.71	-0.750			
0.8580	54913.39	3.2490	3.2491	-0.2041	26.49	0.72	-0.750			
0.8586	54952.08	3.2460	3.2460	-0.2006	26.49	0.72	-0.750			
0.8592	54989.82	3.2430	3.2430	-0.1967	26.50	0.73	-0.750			
0.8598	55027.33	3.2400	3.2399	-0.1940	26.50	0.73	-0.750			
0.8604	55064.07	3.2370	3.2370	-0.1906	26.50	0.73	-0.750			
0.8609	55100.73	3.2340	3.2340	-0.1886	26.51	0.74	-0.750			
0.8615	55136.60	3.2310	3.2310	-0.1861	26.51	0.74	-0.750			
0.8621	55172.07	3.2280	3.2280	-0.1833	26.52	0.75	-0.750			
0.8626	55206.72	3.2250	3.2250	-0.1809	26.52	0.75	-0.750			
0.8631	55241.23	3.2220	3.2219	-0.1785	26.52	0.75	-0.750			
0.8637	55275.27	3.2190	3.2190	-0.1762	26.53	0.76	-0.750			
0.8642	55308.92	3.2160	3.2160	-0.1743	26.53	0.76	-0.750			
0.8647	55342.47	3.2130	3.2130	-0.1717	26.53	0.76	-0.750			
0.8652	55374.90	3.2100	3.2100	-0.1700	26.54	0.77	-0.750			
0.8657	55407.29	3.2070	3.2070	-0.1685	26.54	0.77	-0.750			
0.8662	55439.28	3.2040	3.2039	-0.1667	26.55	0.78	-0.750			
0.8667	55471.12	3.2010	3.2010	-0.1645	26.56	0.79	-0.750			
0.8672	55502.58	3.1980	3.1981	-0.1632	26.56	0.79	-0.750			
0.8677	55533.86	3.1950	3.1951	-0.1617	26.57	0.80	-0.750			
0.8682	55564.73	3.1920	3.1920	-0.1599	26.57	0.80	-0.750			
0.8687	55595.48	3.1890	3.1889	-0.1583	26.58	0.81	-0.750			
0.8691	55625.32	3.1860	3.1861	-0.1562	26.59	0.82	-0.750			
0.8696	55655.23	3.1830	3.1830	-0.1548	26.59	0.82	-0.750			
0.8701	55684.81	3.1800	3.1800	-0.1533	26.60	0.83	-0.750			
0.8705	55714.32	3.1770	3.1770	-0.1515	26.60	0.83	-0.750			
0.8710	55743.08	3.1740	3.1741	-0.1496	26.61	0.84	-0.750			
0.8714	55771.41	3.1710	3.1710	-0.1485	26.61	0.84	-0.750			
0.8719	55799.83	3.1680	3.1680	-0.1475	26.62	0.85	-0.750			
0.8723	55828.01	3.1650	3.1650	-0.1459	26.62	0.85	-0.750			
0.8727	55855.77	3.1620	3.1619	-0.1449	26.63	0.86	-0.750			
0.8732	55883.71	3.1590	3.1590	-0.1437	26.64	0.87	-0.750			
0.8736	55911.18	3.1560	3.1561	-0.1424	26.64	0.87	-0.750			
0.8740	55938.71	3.1530	3.1529	-0.1408	26.65	0.88	-0.750			
0.8745	55965.28	3.1500	3.1501	-0.1399	26.65	0.88	-0.750			
0.8749	55991.76	3.1470	3.1471	-0.1381	26.65	0.88	-0.750			
0.8753	56018.22	3.1440	3.1439	-0.1375	26.66	0.89	-0.750			
0.8757	56044.56	3.1410	3.1409	-0.1372	26.66	0.89	-0.750			
0.8761	56070.93	3.1380	3.1380	-0.1356	26.67	0.90	-0.750			
0.8765	56097.19	3.1350	3.1349	-0.1351	26.67	0.90	-0.750			
0.8769	56122.99	3.1320	3.1321	-0.1332	26.68	0.91	-0.750			
0.8773	56148.42	3.1290	3.1291	-0.1324	26.68	0.91	-0.750			
0.8777	56173.38	3.1260	3.1259	-0.1304	26.69	0.92	-0.750			
0.8781	56198.33	3.1230	3.1231	-0.1292	26.69	0.92	-0.750			
0.8785	56223.04	3.1200	3.1199	-0.1282	26.70	0.93	-0.750			
0.8789	56247.12	3.1170	3.1171	-0.1277	26.70	0.93	-0.750			
0.8793	56272.03	3.1140	3.1140	-0.1273	26.71	0.94	-0.750			
0.8796	56296.39	3.1110	3.1110	-0.1264	26.71	0.94	-0.750			
0.8800	56320.64	3.1080	3.1079	-0.1256	26.72	0.95	-0.750			
0.8804	56344.67	3.1050	3.1051	-0.1247	26.72	0.95	-0.750			
0.8808	56368.50	3.1020	3.1021	-0.1236	26.73	0.96	-0.750			
0.8811	56392.30	3.0990	3.0989	-0.1229	26.73	0.96	-0.750			
0.8815	56415.60	3.0960	3.0959	-0.1220	26.74	0.97	-0.750			
0.8819	56438.63	3.0930	3.0930	-0.1206	26.74	0.97	-0.750			
0.8822	56461.88	3.0900	3.0900	-0.1198	26.75	0.98	-0.750			
0.8826	56484.99	3.0870	3.0869	-0.1194	26.75	0.98	-0.750			
0.8829	56507.75	3.0840	3.0841	-0.1185	26.76	0.99	-0.750			
0.8833	56530.38	3.0810	3.0811	-0.1176	26.76	0.99	-0.750			
0.8836	56552.88	3.0780	3.0779	-0.1168	26.77	1.00	-0.750			
0.8840	56575.19	3.0750	3.0751	-0.1164	26.77	1.00	-0.750			
0.8843	56597.44	3.0720	3.0718	-0.1158	26.78	1.01	-0.750			
0.8847	56619.48	3.0690	3.0690	-0.1151	26.78	1.01	-0.750			
0.8850	56641.67	3.0660	3.0659	-0.1145	26.78	1.01	-0.750			
0.8854	56663.74	3.0630	3.0630	-0.1142	26.79	1.02	-0.750			
0.8857	56685.63	3.0600	3.0599	-0.1132	26.79	1.02	-0.750			
0.8861	56707.38	3.0570	3.0571	-0.1125	26.80	1.03	-0.750			
0.8864	56728.79	3.0540	3.0540	-0.1117	26.81	1.04	-0.750			
0.8867	56750.10	3.0510	3.0510	-0.1107	26.81	1.04	-0.750			
0.8871	56771.27	3.0480	3.0480	-0.1100	26.82	1.05	-0.750			
0.8874	56792.23	3.0450	3.0450	-0.1091	26.82	1.05	-0.750			
0.8877	56813.07	3.0420	3.0419	-0.1086	26.83	1.06	-0.750			
0.8880	56833.82	3.0390	3.0390	-0.1080	26.83	1.06	-0.750			
0.8884	56854.53	3.0360	3.0360	-0.1074	26.84	1.07	-0.750			
0.8887	56875.12	3.0330	3.0330	-0.1069	26.84	1.07	-0.750			
0.8890	56895.57	3.0300	3.0299	-0.1064	26.85	1.08	-0.750			
0.8893	56915.91	3.0270	3.0270	-0.1059	26.85	1.08	-0.750			
0.8896	56936.17	3.0240	3.0240	-0.1055	26.86	1.09	-0.750			
0.8899	56956.41	3.0210	3.0211	-0.1052	26.86	1.09	-0.750			
0.8903	56976.65	3.0180	3.0179	-0.1045	26.87	1.10	-0.750			
0.8906	56996.67	3.0150	3.0150	-0.1040	26.87	1.10	-0.750			
0.8909	57016.58	3.0120	3.0120	-0.1034	26.88	1.11	-0.750			
0.8912	57036.53	3.0090	3.0090	-0.1027	26.88	1.11	-0.750			
0.8915	57056.16	3.0060	3.0060	-0.1017	26.89	1.12	-0.751			
0.8918	57075.60	3.0030	3.0030	-0.0997	26.89	1.12	-0.751			
