Ah_balance (normalized)	Ah_balance (mAh)	Voltage - fit (V)	Voltage -  interpolate (V)	dQ/dV (1/V)	Temperature (°C)	Temperature - diff (°C)	Current (C)	R_DC 0ms (mOhm)	R_DC 50ms (mOhm)	R_DC 50 ms PEC (mOhm)
0.0003	16.50	4.1570	4.1566	-0.0983	25.03	0.00	-0.750			
0.0006	40.39	4.1540	4.1538	-0.1413	25.03	0.00	-0.750			
0.0011	70.73	4.1510	4.1510	-0.1779	25.03	0.00	-0.750			
0.0017	109.46	4.1480	4.1479	-0.2127	25.03	0.00	-0.750			
0.0024	153.67	4.1450	4.1450	-0.2465	25.03	0.00	-0.750			
0.0032	204.85	4.1420	4.1420	-0.2803	25.03	-0.00	-0.750			
0.0041	261.60	4.1390	4.1391	-0.3124	25.03	-0.00	-0.750			
0.0051	324.81	4.1360	4.1360	-0.3433	25.03	-0.00	-0.750			
0.0062	393.68	4.1330	4.1329	-0.3736	25.02	-0.01	-0.750			
0.0073	469.30	4.1300	4.1301	-0.4016	25.02	-0.01	-0.750			
0.0086	550.02	4.1270	4.1270	-0.4284	25.02	-0.01	-0.750			
0.0099	635.53	4.1240	4.1240	-0.4529	25.02	-0.01	-0.750			
0.0113	725.05	4.1210	4.1210	-0.4732	25.02	-0.01	-0.750			
0.0128	817.36	4.1180	4.1180	-0.4939	25.01	-0.02	-0.750			
0.0143	914.85	4.1150	4.1149	-0.5127	25.01	-0.02	-0.750			
0.0159	1015.13	4.1120	4.1119	-0.5302	25.01	-0.02	-0.750			
0.0175	1119.41	4.1090	4.1090	-0.5447	25.01	-0.02	-0.750			
0.0192	1226.32	4.1060	4.1061	-0.5598	25.01	-0.02	-0.750			
0.0209	1334.64	4.1030	4.1030	-0.5733	25.01	-0.02	-0.750			
0.0226	1446.40	4.1000	4.1000	-0.5849	25.00	-0.03	-0.750			
0.0244	1559.60	4.0970	4.0970	-0.5907	25.00	-0.03	-0.750			
0.0262	1675.01	4.0940	4.0940	-0.5963	25.00	-0.03	-0.750			
0.0280	1789.90	4.0910	4.0911	-0.6077	25.00	-0.03	-0.750			
0.0298	1907.30	4.0880	4.0879	-0.6164	25.00	-0.03	-0.750			
0.0317	2025.65	4.0850	4.0849	-0.6230	25.00	-0.03	-0.750			
0.0335	2146.32	4.0820	4.0820	-0.6337	25.00	-0.03	-0.750			
0.0355	2270.50	4.0790	4.0790	-0.6419	25.01	-0.02	-0.750			
0.0374	2395.47	4.0760	4.0760	-0.6467	25.01	-0.02	-0.750			
0.0394	2520.80	4.0730	4.0731	-0.6515	25.01	-0.02	-0.750			
0.0413	2644.63	4.0700	4.0699	-0.6518	25.01	-0.02	-0.750			
0.0433	2769.76	4.0670	4.0669	-0.6565	25.01	-0.02	-0.750			
0.0452	2895.29	4.0640	4.0640	-0.6624	25.01	-0.02	-0.750			
0.0472	3022.81	4.0610	4.0611	-0.6626	25.01	-0.02	-0.750			
0.0493	3153.64	4.0580	4.0579	-0.6695	25.01	-0.02	-0.750			
0.0513	3281.60	4.0550	4.0549	-0.6705	25.01	-0.02	-0.750			
0.0533	3409.48	4.0520	4.0521	-0.6722	25.01	-0.02	-0.750			
0.0553	3538.63	4.0490	4.0490	-0.6746	25.01	-0.02	-0.750			
0.0573	3666.92	4.0460	4.0460	-0.6790	25.02	-0.01	-0.750			
0.0593	3797.74	4.0430	4.0430	-0.6813	25.02	-0.01	-0.750			
0.0614	3932.01	4.0400	4.0400	-0.6908	25.02	-0.01	-0.750			
0.0635	4066.21	4.0370	4.0369	-0.6927	25.03	-0.00	-0.750			
0.0656	4198.78	4.0340	4.0342	-0.6951	25.03	0.00	-0.750			
0.0677	4332.12	4.0310	4.0310	-0.6970	25.03	0.00	-0.750			
0.0698	4465.65	4.0280	4.0279	-0.7028	25.04	0.01	-0.750			
0.0719	4600.00	4.0250	4.0251	-0.7011	25.04	0.01	-0.750			
0.0740	4735.92	4.0220	4.0220	-0.7058	25.04	0.01	-0.750			
0.0761	4872.74	4.0190	4.0189	-0.7078	25.05	0.02	-0.750			
0.0783	5009.71	4.0160	4.0161	-0.7067	25.05	0.02	-0.750			
0.0804	5144.47	4.0130	4.0130	-0.7045	25.05	0.02	-0.750			
0.0825	5278.71	4.0100	4.0100	-0.7085	25.06	0.03	-0.750			
0.0846	5414.54	4.0070	4.0070	-0.7049	25.06	0.03	-0.750			
0.0867	5551.10	4.0040	4.0039	-0.7093	25.06	0.03	-0.750			
0.0889	5687.22	4.0010	4.0010	-0.7112	25.07	0.04	-0.750			
0.0910	5823.99	3.9980	3.9981	-0.7138	25.07	0.04	-0.750			
0.0932	5961.94	3.9950	3.9949	-0.7161	25.08	0.05	-0.750			
0.0953	6098.56	3.9920	3.9920	-0.7210	25.08	0.05	-0.750			
0.0975	6237.38	3.9890	3.9890	-0.7190	25.09	0.06	-0.750			
0.0997	6377.84	3.9860	3.9859	-0.7230	25.09	0.06	-0.750			
0.1018	6516.64	3.9830	3.9830	-0.7228	25.10	0.07	-0.750			
0.1040	6654.86	3.9800	3.9800	-0.7244	25.10	0.07	-0.750			
0.1061	6793.52	3.9770	3.9770	-0.7246	25.11	0.08	-0.750			
0.1083	6933.10	3.9740	3.9739	-0.7304	25.11	0.08	-0.750			
0.1105	7073.22	3.9710	3.9710	-0.7283	25.11	0.08	-0.750			
0.1128	7217.02	3.9680	3.9679	-0.7372	25.12	0.09	-0.750			
0.1150	7357.48	3.9650	3.9654	-0.7353	25.12	0.09	-0.750			
0.1172	7497.77	3.9620	3.9620	-0.7364	25.12	0.09	-0.750			
0.1194	7638.60	3.9590	3.9589	-0.7385	25.13	0.10	-0.750			
0.1216	7780.00	3.9560	3.9560	-0.7410	25.13	0.10	-0.750			
0.1238	7925.24	3.9530	3.9529	-0.7510	25.13	0.10	-0.750			
0.1261	8069.46	3.9500	3.9500	-0.7475	25.14	0.11	-0.750			
0.1283	8212.92	3.9470	3.9471	-0.7529	25.14	0.11	-0.750			
0.1306	8357.84	3.9440	3.9440	-0.7526	25.14	0.11	-0.750			
0.1328	8501.72	3.9410	3.9409	-0.7567	25.14	0.11	-0.750			
0.1351	8646.36	3.9380	3.9380	-0.7573	25.15	0.12	-0.750			
0.1374	8792.95	3.9350	3.9350	-0.7638	25.15	0.12	-0.750			
0.1397	8941.02	3.9320	3.9321	-0.7653	25.15	0.12	-0.750			
0.1420	9089.51	3.9290	3.9289	-0.7639	25.15	0.12	-0.750			
0.1443	9234.12	3.9260	3.9260	-0.7642	25.16	0.13	-0.750			
0.1466	9380.68	3.9230	3.9231	-0.7654	25.17	0.14	-0.750			
0.1489	9526.44	3.9200	3.9199	-0.7656	25.17	0.14	-0.750			
0.1512	9674.64	3.9170	3.9169	-0.7676	25.18	0.15	-0.750			
0.1535	9821.18	3.9140	3.9141	-0.7713	25.18	0.15	-0.750			
0.1558	9969.81	3.9110	3.9111	-0.7809	25.18	0.15	-0.750			
0.1581	10121.05	3.9080	3.9080	-0.7839	25.18	0.15	-0.750			
0.1605	10270.80	3.9050	3.9049	-0.7860	25.19	0.16	-0.750			
0.1629	10424.11	3.9020	3.9020	-0.7912	25.19	0.16	-0.750			
0.1653	10577.26	3.8990	3.8991	-0.7913	25.19	0.16	-0.750			
0.1676	10729.50	3.8960	3.8960	-0.7900	25.20	0.17	-0.750			
0.1700	10880.05	3.8930	3.8931	-0.7880	25.20	0.17	-0.750			
0.1724	11031.37	3.8900	3.8900	-0.7858	25.21	0.18	-0.750			
0.1747	11183.19	3.8870	3.8869	-0.7851	25.21	0.18	-0.750			
0.1771	11333.16	3.8840	3.8841	-0.7781	25.22	0.19	-0.750			
0.1794	11482.45	3.8810	3.8810	-0.7785	25.22	0.19	-0.750			
0.1817	11629.18	3.8780	3.8780	-0.7855	25.22	0.19	-0.750			
0.1841	11780.59	3.8750	3.8750	-0.7808	25.22	0.19	-0.750			
0.1864	11931.72	3.8720	3.8719	-0.7759	25.22	0.19	-0.750			
0.1888	12083.08	3.8690	3.8690	-0.7788	25.22	0.19	-0.750			
0.1911	12231.38	3.8660	3.8661	-0.7811	25.22	0.19	-0.750			
0.1934	12379.49	3.8630	3.8629	-0.7878	25.23	0.20	-0.750			
0.1958	12529.35	3.8600	3.8600	-0.7923	25.23	0.20	-0.750			
0.1981	12681.39	3.8570	3.8569	-0.7867	25.23	0.20	-0.750			
0.2006	12837.56	3.8540	3.8541	-0.7941	25.24	0.21	-0.750			
0.2030	12992.00	3.8510	3.8512	-0.7986	25.24	0.21	-0.750			
0.2054	13143.45	3.8480	3.8480	-0.7913	25.25	0.22	-0.750			
0.2077	13292.94	3.8450	3.8449	-0.7870	25.25	0.22	-0.750			
0.2101	13444.12	3.8420	3.8419	-0.7873	25.26	0.23	-0.750			
0.2124	13595.86	3.8390	3.8391	-0.7883	25.26	0.23	-0.750			
0.2148	13749.20	3.8360	3.8358	-0.7868	25.27	0.24	-0.750			
0.2172	13901.20	3.8330	3.8330	-0.7825	25.27	0.24	-0.750			
0.2195	14049.23	3.8300	3.8300	-0.7803	25.27	0.24	-0.750			
0.2218	14198.00	3.8270	3.8270	-0.7784	25.28	0.25	-0.750			
0.2242	14347.16	3.8240	3.8240	-0.7750	25.28	0.25	-0.750			
0.2265	14496.53	3.8210	3.8209	-0.7716	25.28	0.25	-0.750			
0.2288	14644.11	3.8180	3.8180	-0.7684	25.28	0.25	-0.750			
0.2311	14791.13	3.8150	3.8150	-0.7718	25.29	0.26	-0.750			
0.2334	14939.09	3.8120	3.8120	-0.7673	25.29	0.26	-0.750			
0.2357	15085.18	3.8090	3.8089	-0.7610	25.29	0.26	-0.750			
0.2380	15232.67	3.8060	3.8060	-0.7596	25.30	0.27	-0.750			
0.2403	15379.27	3.8030	3.8033	-0.7567	25.30	0.27	-0.750			
0.2426	15523.94	3.8000	3.8000	-0.7512	25.30	0.27	-0.750			
0.2448	15666.78	3.7970	3.7970	-0.7468	25.30	0.27	-0.750			
0.2470	15809.46	3.7940	3.7940	-0.7396	25.31	0.28	-0.750			
0.2492	15951.22	3.7910	3.7910	-0.7384	25.31	0.28	-0.750			
0.2514	16091.90	3.7880	3.7880	-0.7353	25.31	0.28	-0.750			
0.2536	16232.88	3.7850	3.7849	-0.7329	25.31	0.28	-0.750			
0.2558	16373.29	3.7820	3.7820	-0.7296	25.32	0.29	-0.750			
0.2580	16512.90	3.7790	3.7790	-0.7307	25.32	0.29	-0.750			
0.2602	16653.32	3.7760	3.7760	-0.7301	25.32	0.29	-0.750			
0.2624	16794.85	3.7730	3.7730	-0.7307	25.33	0.30	-0.750			
0.2646	16934.06	3.7700	3.7700	-0.7277	25.33	0.30	-0.750			
0.2668	17074.09	3.7670	3.7669	-0.7255	25.33	0.30	-0.750			
0.2689	17212.70	3.7640	3.7640	-0.7256	25.33	0.30	-0.750			
0.2711	17351.08	3.7610	3.7610	-0.7300	25.33	0.30	-0.750			
0.2733	17490.80	3.7580	3.7580	-0.7289	25.34	0.31	-0.750			
0.2755	17632.96	3.7550	3.7549	-0.7337	25.34	0.31	-0.750			
0.2777	17774.11	3.7520	3.7522	-0.7350	25.34	0.31	-0.750			
0.2799	17914.77	3.7490	3.7490	-0.7389	25.34	0.31	-0.750			
0.2821	18055.87	3.7460	3.7460	-0.7486	25.35	0.32	-0.750			
0.2844	18199.11	3.7430	3.7429	-0.7518	25.35	0.32	-0.750			
0.2866	18344.93	3.7400	3.7400	-0.7628	25.35	0.32	-0.750			
0.2889	18492.74	3.7370	3.7370	-0.7734	25.36	0.33	-0.750			
0.2913	18643.10	3.7340	3.7340	-0.7838	25.36	0.33	-0.750			
0.2936	18792.89	3.7310	3.7309	-0.7996	25.36	0.33	-0.750			
0.2960	18946.93	3.7280	3.7280	-0.8036	25.36	0.33	-0.750			
0.2985	19101.69	3.7250	3.7250	-0.8136	25.36	0.33	-0.750			
0.3009	19260.55	3.7220	3.7220	-0.8291	25.36	0.33	-0.750			
0.3035	19421.03	3.7190	3.7190	-0.8401	25.36	0.33	-0.750			
0.3060	19582.29	3.7160	3.7160	-0.8552	25.36	0.33	-0.750			
0.3086	19747.22	3.7130	3.7130	-0.8682	25.36	0.33	-0.750			
0.3112	19914.47	3.7100	3.7100	-0.8789	25.36	0.33	-0.750			
0.3139	20087.45	3.7070	3.7069	-0.9005	25.36	0.33	-0.750			
0.3166	20261.05	3.7040	3.7040	-0.9112	25.36	0.33	-0.750			
0.3193	20437.24	3.7010	3.7010	-0.9309	25.35	0.32	-0.750			
0.3222	20617.93	3.6980	3.6980	-0.9452	25.35	0.32	-0.750			
0.3250	20799.91	3.6950	3.6950	-0.9575	25.34	0.31	-0.750			
0.3279	20985.83	3.6920	3.6922	-0.9833	25.34	0.31	-0.750			
0.3309	21176.98	3.6890	3.6890	-1.0016	25.34	0.31	-0.750			
0.3339	21370.33	3.6860	3.6859	-1.0169	25.34	0.31	-0.750			
0.3370	21566.78	3.6830	3.6830	-1.0343	25.34	0.31	-0.750			
0.3401	21767.84	3.6800	3.6802	-1.0544	25.34	0.31	-0.750			
0.3433	21971.70	3.6770	3.6770	-1.0717	25.33	0.30	-0.750			
0.3466	22180.74	3.6740	3.6740	-1.0840	25.33	0.30	-0.750			
0.3499	22391.55	3.6710	3.6710	-1.0841	25.32	0.29	-0.750			
0.3531	22598.01	3.6680	3.6681	-1.1170	25.32	0.29	-0.750			
0.3564	22812.55	3.6650	3.6651	-1.1439	25.31	0.28	-0.750			
0.3599	23033.15	3.6620	3.6618	-1.1656	25.31	0.28	-0.750			
0.3634	23258.17	3.6590	3.6589	-1.2022	25.30	0.27	-0.750			
0.3671	23493.15	3.6560	3.6561	-1.2255	25.30	0.27	-0.750			
0.3709	23734.67	3.6530	3.6530	-1.2475	25.29	0.26	-0.750			
0.3747	23980.88	3.6500	3.6499	-1.2642	25.28	0.25	-0.750			
0.3784	24218.31	3.6470	3.6472	-1.2753	25.28	0.25	-0.750			
0.3823	24467.75	3.6440	3.6440	-1.2994	25.27	0.24	-0.750			
0.3863	24723.23	3.6410	3.6409	-1.3073	25.27	0.24	-0.750			
0.3902	24973.20	3.6380	3.6382	-1.3176	25.26	0.23	-0.750			
0.3942	25227.85	3.6350	3.6351	-1.3341	25.25	0.22	-0.750			
0.3982	25482.35	3.6320	3.6320	-1.3609	25.25	0.22	-0.750			
0.4022	25741.80	3.6290	3.6290	-1.3973	25.24	0.21	-0.750			
0.4064	26011.31	3.6260	3.6259	-1.4303	25.23	0.20	-0.750			
0.4108	26292.11	3.6230	3.6229	-1.4662	25.23	0.20	-0.750			
0.4154	26584.00	3.6200	3.6203	-1.5171	25.22	0.19	-0.750			
0.4200	26877.18	3.6170	3.6169	-1.5421	25.21	0.18	-0.750			
0.4247	27178.36	3.6140	3.6140	-1.5691	25.20	0.17	-0.750			
0.4294	27480.27	3.6110	3.6115	-1.6003	25.20	0.17	-0.750	0.403	0.567	
0.4342	27789.80	3.6080	3.6082	-1.6416	25.19	0.16	-0.750			
0.4392	28107.52	3.6050	3.6050	-1.6716	25.18	0.15	-0.750			
0.4442	28430.07	3.6020	3.6020	-1.6918	25.18	0.15	-0.750			
0.4494	28758.86	3.5990	3.5989	-1.7409	25.18	0.15	-0.750			
0.4547	29099.48	3.5960	3.5959	-1.7839	25.17	0.14	-0.750			
0.4601	29448.17	3.5930	3.5929	-1.7964	25.16	0.13	-0.750			
0.4655	29792.02	3.5900	3.5899	-1.8257	25.15	0.12	-0.750			
0.4711	30147.72	3.5870	3.5873	-1.8584	25.15	0.12	-0.750			
0.4767	30508.71	3.5840	3.5838	-1.8966	25.15	0.12	-0.750			
0.4824	30873.53	3.5810	3.5809	-1.9183	25.15	0.12	-0.750			
0.4881	31235.99	3.5780	3.5781	-1.9614	25.14	0.11	-0.750			
0.4941	31625.29	3.5750	3.5749	-2.0014	25.14	0.11	-0.750			
0.5002	32015.45	3.5720	3.5717	-2.0200	25.13	0.10	-0.750			
0.5063	32401.88	3.5690	3.5692	-2.0465	25.13	0.10	-0.750			
0.5125	32798.71	3.5660	3.5658	-2.0653	25.13	0.10	-0.750			
0.5187	33197.96	3.5630	3.5632	-2.0913	25.13	0.10	-0.750			
0.5249	33596.47	3.5600	3.5600	-2.1158	25.13	0.10	-0.750			
0.5314	34009.26	3.5570	3.5568	-2.1315	25.13	0.10	-0.750			
0.5379	34425.50	3.5540	3.5541	-2.1233	25.13	0.10	-0.750			
0.5444	34841.24	3.5510	3.5511	-2.1492	25.13	0.10	-0.750			
0.5508	35248.03	3.5480	3.5480	-2.0994	25.13	0.10	-0.750			
0.5570	35649.02	3.5450	3.5450	-2.0725	25.13	0.10	-0.750			
0.5631	36041.09	3.5420	3.5423	-2.0701	25.14	0.11	-0.750			
0.5694	36440.04	3.5390	3.5388	-2.0646	25.14	0.11	-0.750			
0.5756	36839.19	3.5360	3.5360	-2.0473	25.14	0.11	-0.750			
0.5818	37233.36	3.5330	3.5331	-2.0442	25.14	0.11	-0.750			
0.5879	37624.29	3.5300	3.5300	-2.0050	25.15	0.12	-0.750			
0.5940	38013.15	3.5270	3.5270	-1.9626	25.16	0.13	-0.750			
0.5998	38386.93	3.5240	3.5241	-1.9028	25.17	0.14	-0.750			
0.6053	38738.36	3.5210	3.5209	-1.8806	25.18	0.15	-0.750			
0.6110	39102.98	3.5180	3.5179	-1.8447	25.19	0.16	-0.750			
0.6165	39455.01	3.5150	3.5148	-1.8005	25.20	0.17	-0.750			
0.6218	39792.03	3.5120	3.5121	-1.7684	25.21	0.18	-0.750			
0.6271	40131.41	3.5090	3.5089	-1.7323	25.21	0.18	-0.750			
0.6322	40462.62	3.5060	3.5060	-1.6973	25.22	0.19	-0.750			
0.6373	40784.10	3.5030	3.5028	-1.6541	25.23	0.20	-0.750			
0.6421	41093.03	3.5000	3.4998	-1.5968	25.25	0.22	-0.750			
0.6469	41402.09	3.4970	3.4970	-1.5608	25.26	0.23	-0.750			
0.6516	41699.37	3.4940	3.4942	-1.5189	25.28	0.25	-0.750			
0.6560	41985.27	3.4910	3.4908	-1.4640	25.29	0.26	-0.750			
0.6604	42263.12	3.4880	3.4882	-1.4087	25.30	0.27	-0.750			
0.6645	42530.99	3.4850	3.4851	-1.3691	25.32	0.29	-0.750			
0.6685	42785.39	3.4820	3.4820	-1.3209	25.34	0.31	-0.750			
0.6724	43036.17	3.4790	3.4790	-1.2825	25.36	0.33	-0.750			
0.6762	43273.68	3.4760	3.4759	-1.2425	25.37	0.34	-0.750			
0.6798	43508.83	3.4730	3.4730	-1.2184	25.39	0.36	-0.750			
0.6835	43745.45	3.4700	3.4699	-1.1835	25.40	0.37	-0.750			
0.6870	43970.30	3.4670	3.4669	-1.1482	25.42	0.39	-0.750			
0.6904	44187.63	3.4640	3.4643	-1.1137	25.43	0.40	-0.750			
0.6937	44398.84	3.4610	3.4609	-1.0795	25.44	0.41	-0.750			
0.6969	44601.18	3.4580	3.4579	-1.0432	25.46	0.43	-0.750			
0.6999	44793.47	3.4550	3.4551	-1.0047	25.47	0.44	-0.750			
0.7029	44986.07	3.4520	3.4521	-0.9840	25.48	0.45	-0.750			
0.7058	45172.25	3.4490	3.4490	-0.9607	25.49	0.46	-0.750			
0.7086	45353.56	3.4460	3.4460	-0.9311	25.50	0.47	-0.750			
0.7114	45529.56	3.4430	3.4430	-0.9057	25.52	0.49	-0.750			
0.7141	45701.23	3.4400	3.4400	-0.8853	25.53	0.50	-0.750			
0.7167	45869.35	3.4370	3.4370	-0.8642	25.54	0.51	-0.750			
0.7192	46030.76	3.4340	3.4340	-0.8567	25.55	0.52	-0.750			
0.7218	46193.15	3.4310	3.4310	-0.8483	25.56	0.53	-0.750			
0.7243	46353.19	3.4280	3.4279	-0.8445	25.57	0.54	-0.750			
0.7268	46516.88	3.4250	3.4250	-0.8481	25.58	0.55	-0.750			
0.7294	46679.39	3.4220	3.4219	-0.8499	25.59	0.56	-0.750			
0.7319	46842.96	3.4190	3.4189	-0.8533	25.60	0.57	-0.750			
0.7345	47007.45	3.4160	3.4160	-0.8544	25.61	0.58	-0.750			
0.7370	47170.07	3.4130	3.4130	-0.8537	25.62	0.59	-0.750			
0.7396	47336.91	3.4100	3.4101	-0.8587	25.63	0.60	-0.750			
0.7422	47502.46	3.4070	3.4069	-0.8537	25.64	0.61	-0.750			
0.7448	47667.34	3.4040	3.4040	-0.8505	25.64	0.61	-0.750			
0.7473	47829.41	3.4010	3.4010	-0.8430	25.65	0.62	-0.750			
0.7499	47991.12	3.3980	3.3980	-0.8313	25.65	0.62	-0.750			
0.7524	48151.73	3.3950	3.3950	-0.8199	25.66	0.63	-0.750			
0.7548	48308.38	3.3920	3.3920	-0.8010	25.67	0.64	-0.750			
0.7572	48460.97	3.3890	3.3891	-0.7841	25.67	0.64	-0.750			
0.7595	48609.70	3.3860	3.3860	-0.7663	25.68	0.65	-0.750			
0.7618	48754.76	3.3830	3.3831	-0.7454	25.69	0.66	-0.750			
0.7640	48896.36	3.3800	3.3799	-0.7231	25.70	0.67	-0.750			
0.7662	49033.96	3.3770	3.3771	-0.7014	25.70	0.67	-0.750			
0.7682	49167.20	3.3740	3.3740	-0.6808	25.71	0.68	-0.750			
0.7702	49295.34	3.3710	3.3710	-0.6592	25.72	0.69	-0.750			
0.7722	49419.18	3.3680	3.3680	-0.6403	25.72	0.69	-0.750			
0.7741	49541.02	3.3650	3.3650	-0.6180	25.73	0.70	-0.750			
0.7759	49658.88	3.3620	3.3619	-0.5976	25.73	0.70	-0.750			
0.7777	49771.81	3.3590	3.3592	-0.5756	25.74	0.71	-0.750			
0.7794	49880.27	3.3560	3.3560	-0.5540	25.75	0.72	-0.750			
0.7810	49982.91	3.3530	3.3530	-0.5330	25.75	0.72	-0.750			
0.7825	50081.64	3.3500	3.3500	-0.5135	25.76	0.73	-0.750			
0.7841	50179.23	3.3470	3.3470	-0.4996	25.76	0.73	-0.750			
0.7855	50273.79	3.3440	3.3440	-0.4890	25.77	0.74	-0.750			
0.7870	50366.77	3.3410	3.3410	-0.4757	25.77	0.74	-0.750			
0.7884	50456.99	3.3380	3.3380	-0.4613	25.77	0.74	-0.750			
0.7898	50544.31	3.3350	3.3350	-0.4481	25.78	0.75	-0.750			
0.7911	50628.90	3.3320	3.3319	-0.4341	25.78	0.75	-0.750			
0.7924	50710.65	3.3290	3.3289	-0.4190	25.79	0.76	-0.750			
0.7936	50789.27	3.3260	3.3260	-0.4069	25.79	0.76	-0.750			
0.7948	50865.07	3.3230	3.3230	-0.3933	25.80	0.77	-0.750			
0.7960	50940.82	3.3200	3.3200	-0.3856	25.80	0.77	-0.750			
0.7971	51013.66	3.3170	3.3170	-0.3757	25.80	0.77	-0.750			
0.7982	51084.22	3.3140	3.3140	-0.3661	25.81	0.78	-0.750			
0.7993	51154.09	3.3110	3.3110	-0.3578	25.81	0.78	-0.750			
0.8003	51221.83	3.3080	3.3080	-0.3500	25.81	0.78	-0.750			
0.8014	51287.76	3.3050	3.3050	-0.3422	25.82	0.79	-0.750			
0.8024	51353.16	3.3020	3.3021	-0.3340	25.82	0.79	-0.750			
0.8034	51416.64	3.2990	3.2989	-0.3245	25.83	0.80	-0.750			
0.8043	51478.17	3.2960	3.2960	-0.3173	25.83	0.80	-0.750			
0.8053	51538.04	3.2930	3.2931	-0.3110	25.84	0.81	-0.750			
0.8062	51596.56	3.2900	3.2900	-0.3044	25.85	0.82	-0.750			
0.8071	51654.05	3.2870	3.2869	-0.2980	25.85	0.82	-0.750			
0.8080	51710.81	3.2840	3.2840	-0.2931	25.86	0.83	-0.750			
0.8089	51767.12	3.2810	3.2810	-0.2893	25.87	0.84	-0.750			
0.8097	51822.31	3.2780	3.2780	-0.2832	25.87	0.84	-0.750			
0.8106	51875.97	3.2750	3.2750	-0.2769	25.88	0.85	-0.750			
0.8114	51928.34	3.2720	3.2720	-0.2726	25.88	0.85	-0.750			
0.8122	51979.56	3.2690	3.2692	-0.2697	25.89	0.86	-0.750			
0.8130	52031.31	3.2660	3.2659	-0.2660	25.90	0.87	-0.750			
0.8138	52082.24	3.2630	3.2629	-0.2619	25.90	0.87	-0.750			
0.8146	52132.30	3.2600	3.2600	-0.2577	25.91	0.88	-0.750			
0.8153	52181.60	3.2570	3.2571	-0.2546	25.91	0.88	-0.750			
0.8161	52230.57	3.2540	3.2539	-0.2505	25.92	0.89	-0.750			
0.8168	52277.19	3.2510	3.2510	-0.2448	25.92	0.89	-0.750			
0.8176	52324.03	3.2480	3.2480	-0.2395	25.93	0.90	-0.750			
0.8183	52369.48	3.2450	3.2451	-0.2385	25.93	0.90	-0.750			
0.8190	52414.83	3.2420	3.2421	-0.2362	25.94	0.91	-0.750			
0.8197	52459.85	3.2390	3.2390	-0.2334	25.94	0.91	-0.750			
0.8204	52504.30	3.2360	3.2358	-0.2310	25.94	0.91	-0.750			
0.8211	52548.52	3.2330	3.2331	-0.2277	25.95	0.92	-0.750			
0.8218	52592.10	3.2300	3.2300	-0.2249	25.95	0.92	-0.750			
0.8224	52635.54	3.2270	3.2271	-0.2224	25.96	0.93	-0.750			
0.8231	52678.25	3.2240	3.2240	-0.2209	25.96	0.93	-0.750			
0.8237	52719.40	3.2210	3.2210	-0.2169	25.97	0.94	-0.750			
0.8244	52761.23	3.2180	3.2181	-0.2142	25.97	0.94	-0.750			
0.8250	52802.32	3.2150	3.2149	-0.2120	25.97	0.94	-0.750			
0.8257	52842.68	3.2120	3.2122	-0.2096	25.98	0.95	-0.750			
0.8263	52882.83	3.2090	3.2090	-0.2075	25.98	0.95	-0.750			
0.8269	52922.07	3.2060	3.2060	-0.2055	25.99	0.96	-0.750			
0.8275	52961.38	3.2030	3.2031	-0.2034	25.99	0.96	-0.750			
0.8281	52999.86	3.2000	3.2000	-0.2013	26.00	0.97	-0.750			
0.8287	53038.66	3.1970	3.1969	-0.1985	26.00	0.97	-0.750			
0.8293	53077.10	3.1940	3.1940	-0.1964	26.01	0.98	-0.750			
0.8299	53114.10	3.1910	3.1910	-0.1932	26.01	0.98	-0.750			
0.8305	53150.92	3.1880	3.1880	-0.1904	26.02	0.99	-0.750			
0.8310	53186.84	3.1850	3.1850	-0.1895	26.02	0.99	-0.750			
0.8316	53222.81	3.1820	3.1819	-0.1867	26.03	1.00	-0.750			
0.8322	53258.50	3.1790	3.1789	-0.1856	26.04	1.01	-0.750			
0.8327	53294.05	3.1760	3.1761	-0.1847	26.04	1.01	-0.750			
0.8333	53329.77	3.1730	3.1730	-0.1829	26.05	1.02	-0.750			
0.8338	53364.95	3.1700	3.1699	-0.1810	26.05	1.02	-0.750			
0.8344	53399.38	3.1670	3.1670	-0.1785	26.06	1.03	-0.750			
0.8349	53433.43	3.1640	3.1641	-0.1761	26.06	1.03	-0.750			
0.8354	53466.59	3.1610	3.1609	-0.1747	26.07	1.04	-0.750			
0.8359	53500.36	3.1580	3.1580	-0.1730	26.07	1.04	-0.750			
0.8365	53532.91	3.1550	3.1550	-0.1710	26.08	1.05	-0.750			
0.8370	53565.65	3.1520	3.1519	-0.1701	26.08	1.05	-0.750			
0.8375	53598.39	3.1490	3.1491	-0.1686	26.09	1.06	-0.750			
0.8380	53630.69	3.1460	3.1459	-0.1672	26.09	1.06	-0.750			
0.8385	53662.54	3.1430	3.1430	-0.1659	26.10	1.07	-0.750			
0.8390	53694.32	3.1400	3.1400	-0.1644	26.10	1.07	-0.750			
0.8395	53725.58	3.1370	3.1370	-0.1628	26.11	1.08	-0.750			
0.8400	53756.98	3.1340	3.1340	-0.1619	26.11	1.08	-0.750			
0.8404	53787.78	3.1310	3.1310	-0.1597	26.11	1.08	-0.750			
0.8409	53818.42	3.1280	3.1280	-0.1579	26.12	1.09	-0.750			
0.8414	53848.85	3.1250	3.1249	-0.1563	26.13	1.10	-0.750			
0.8419	53878.48	3.1220	3.1220	-0.1549	26.13	1.10	-0.750			
0.8423	53907.90	3.1190	3.1190	-0.1532	26.14	1.11	-0.750			
0.8428	53937.02	3.1160	3.1160	-0.1521	26.15	1.12	-0.750			
0.8432	53966.16	3.1130	3.1129	-0.1514	26.15	1.12	-0.750			
0.8437	53995.11	3.1100	3.1100	-0.1498	26.16	1.13	-0.750			
0.8441	54024.01	3.1070	3.1071	-0.1487	26.16	1.13	-0.750			
0.8446	54052.66	3.1040	3.1039	-0.1475	26.17	1.14	-0.750			
0.8450	54080.68	3.1010	3.1011	-0.1461	26.18	1.15	-0.750			
0.8454	54108.27	3.0980	3.0980	-0.1451	26.18	1.15	-0.750			
0.8459	54136.06	3.0950	3.0949	-0.1441	26.19	1.16	-0.750			
0.8463	54163.76	3.0920	3.0920	-0.1424	26.19	1.16	-0.750			
0.8467	54190.99	3.0890	3.0889	-0.1413	26.20	1.17	-0.750			
0.8472	54218.24	3.0860	3.0861	-0.1405	26.20	1.17	-0.750			
0.8476	54245.04	3.0830	3.0831	-0.1396	26.21	1.18	-0.750			
0.8480	54271.61	3.0800	3.0799	-0.1386	26.22	1.19	-0.750			
0.8484	54297.93	3.0770	3.0770	-0.1374	26.22	1.19	-0.750			
0.8488	54324.11	3.0740	3.0740	-0.1358	26.22	1.19	-0.750			
0.8492	54350.20	3.0710	3.0710	-0.1353	26.23	1.20	-0.750			
0.8496	54376.33	3.0680	3.0681	-0.1347	26.23	1.20	-0.750			
0.8500	54402.07	3.0650	3.0651	-0.1331	26.24	1.21	-0.750			
0.8504	54427.29	3.0620	3.0619	-0.1321	26.24	1.21	-0.750			
0.8508	54452.41	3.0590	3.0590	-0.1310	26.25	1.22	-0.750			
0.8512	54477.50	3.0560	3.0560	-0.1303	26.25	1.22	-0.750			
0.8516	54502.44	3.0530	3.0529	-0.1292	26.26	1.23	-0.750			
0.8520	54527.32	3.0500	3.0500	-0.1286	26.26	1.23	-0.750			
0.8524	54551.83	3.0470	3.0470	-0.1274	26.27	1.24	-0.750			
0.8528	54576.17	3.0440	3.0440	-0.1266	26.27	1.24	-0.750			
0.8531	54600.55	3.0410	3.0410	-0.1259	26.28	1.25	-0.750			
0.8535	54624.40	3.0380	3.0380	-0.1249	26.28	1.25	-0.750			
0.8539	54648.16	3.0350	3.0351	-0.1245	26.29	1.26	-0.750			
0.8543	54672.29	3.0320	3.0319	-0.1237	26.29	1.26	-0.750			
0.8546	54696.10	3.0290	3.0291	-0.1232	26.29	1.26	-0.750			
0.8550	54719.80	3.0260	3.0260	-0.1215	26.30	1.27	-0.750			
0.8554	54743.20	3.0230	3.0230	-0.1203	26.30	1.27	-0.750			
0.8557	54766.16	3.0200	3.0202	-0.1191	26.31	1.28	-0.750			
0.8561	54788.88	3.0170	3.0169	-0.1175	26.31	1.28	-0.750			
0.8564	54811.13	3.0140	3.0140	-0.1162	26.32	1.29	-0.750			
0.8568	54832.94	3.0110	3.0110	-0.1147	26.32	1.29	-0.750			
0.8571	54854.91	3.0080	3.0081	-0.1141	26.32	1.29	-0.751			
0.8574	54876.70	3.0050	3.0050	-0.1138	26.33	1.30	-0.751			
0.8578	54898.51	3.0020	3.0020	-0.1134	26.33	1.30	-0.751			
