Ah_balance (normalized)	Ah_balance (mAh)	Voltage - fit (V)	Voltage -  interpolate (V)	dQ/dV (1/V)	Temperature (°C)	Temperature - diff (°C)	Current (C)	R_DC 0ms (mOhm)	R_DC 50ms (mOhm)	R_DC 50 ms PEC (mOhm)
0.0005	29.45	4.1630	4.1628	-0.1560	25.85	0.00	-0.750			
0.0010	62.77	4.1600	4.1601	-0.1956	25.85	0.00	-0.750			
0.0016	105.10	4.1570	4.1569	-0.2361	25.85	0.00	-0.750			
0.0024	154.29	4.1540	4.1541	-0.2749	25.85	0.00	-0.750			
0.0033	210.91	4.1510	4.1510	-0.3123	25.85	-0.00	-0.750			
0.0043	275.13	4.1480	4.1481	-0.3492	25.85	-0.00	-0.750			
0.0054	346.19	4.1450	4.1450	-0.3849	25.84	-0.01	-0.750			
0.0066	423.32	4.1420	4.1420	-0.4200	25.84	-0.01	-0.750			
0.0079	507.27	4.1390	4.1390	-0.4545	25.84	-0.01	-0.750			
0.0093	597.89	4.1360	4.1360	-0.4891	25.83	-0.02	-0.750			
0.0109	697.47	4.1330	4.1329	-0.5132	25.83	-0.02	-0.750			
0.0125	799.30	4.1300	4.1301	-0.5367	25.83	-0.02	-0.750			
0.0142	905.80	4.1270	4.1270	-0.5600	25.82	-0.03	-0.750			
0.0159	1015.11	4.1240	4.1240	-0.5787	25.82	-0.03	-0.750			
0.0176	1127.97	4.1210	4.1209	-0.5930	25.81	-0.04	-0.750			
0.0194	1243.21	4.1180	4.1180	-0.6074	25.81	-0.04	-0.750			
0.0213	1362.76	4.1150	4.1150	-0.6192	25.80	-0.05	-0.750			
0.0232	1483.98	4.1120	4.1120	-0.6318	25.80	-0.05	-0.750			
0.0251	1606.67	4.1090	4.1090	-0.6394	25.80	-0.05	-0.750			
0.0270	1730.22	4.1060	4.1058	-0.6444	25.79	-0.06	-0.750			
0.0290	1853.30	4.1030	4.1030	-0.6533	25.79	-0.06	-0.750			
0.0309	1979.40	4.1000	4.1001	-0.6645	25.78	-0.07	-0.750			
0.0329	2108.29	4.0970	4.0969	-0.6737	25.78	-0.07	-0.750			
0.0350	2239.00	4.0940	4.0938	-0.6821	25.78	-0.07	-0.750			
0.0371	2371.97	4.0910	4.0911	-0.6856	25.77	-0.08	-0.750			
0.0391	2505.43	4.0880	4.0880	-0.6873	25.77	-0.08	-0.750			
0.0412	2639.80	4.0850	4.0849	-0.6895	25.77	-0.08	-0.750			
0.0433	2770.02	4.0820	4.0820	-0.6964	25.77	-0.08	-0.750			
0.0454	2902.49	4.0790	4.0790	-0.7021	25.77	-0.08	-0.750			
0.0475	3038.93	4.0760	4.0758	-0.7078	25.76	-0.09	-0.750			
0.0496	3177.52	4.0730	4.0732	-0.7133	25.76	-0.09	-0.750			
0.0518	3315.82	4.0700	4.0702	-0.7154	25.76	-0.09	-0.750			
0.0540	3454.00	4.0670	4.0668	-0.7159	25.76	-0.09	-0.750			
0.0561	3588.36	4.0640	4.0640	-0.7143	25.76	-0.09	-0.750			
0.0582	3723.22	4.0610	4.0611	-0.7207	25.76	-0.09	-0.750			
0.0604	3863.00	4.0580	4.0579	-0.7217	25.75	-0.10	-0.750			
0.0626	4005.49	4.0550	4.0549	-0.7313	25.75	-0.10	-0.750			
0.0648	4146.40	4.0520	4.0523	-0.7310	25.75	-0.10	-0.750			
0.0670	4288.86	4.0490	4.0489	-0.7301	25.75	-0.10	-0.750			
0.0692	4428.84	4.0460	4.0459	-0.7256	25.75	-0.10	-0.750			
0.0713	4563.36	4.0430	4.0430	-0.7226	25.76	-0.09	-0.750			
0.0735	4701.95	4.0400	4.0401	-0.7333	25.76	-0.09	-0.750			
0.0757	4843.65	4.0370	4.0369	-0.7384	25.76	-0.09	-0.750			
0.0779	4987.14	4.0340	4.0339	-0.7387	25.76	-0.09	-0.750			
0.0802	5129.93	4.0310	4.0311	-0.7437	25.76	-0.09	-0.750			
0.0824	5273.37	4.0280	4.0281	-0.7544	25.76	-0.09	-0.750			
0.0847	5418.51	4.0250	4.0249	-0.7532	25.75	-0.10	-0.750			
0.0869	5562.45	4.0220	4.0218	-0.7500	25.75	-0.10	-0.750			
0.0892	5706.40	4.0190	4.0190	-0.7528	25.75	-0.10	-0.750			
0.0915	5852.88	4.0160	4.0160	-0.7532	25.75	-0.10	-0.750			
0.0937	5996.19	4.0130	4.0129	-0.7561	25.76	-0.09	-0.750			
0.0959	6139.10	4.0100	4.0101	-0.7541	25.76	-0.09	-0.750			
0.0982	6283.90	4.0070	4.0069	-0.7498	25.76	-0.09	-0.750			
0.1005	6429.79	4.0040	4.0040	-0.7578	25.77	-0.08	-0.750			
0.1027	6575.11	4.0010	4.0013	-0.7599	25.77	-0.08	-0.750			
0.1050	6720.32	3.9980	3.9978	-0.7646	25.77	-0.08	-0.750			
0.1073	6868.69	3.9950	3.9950	-0.7703	25.77	-0.08	-0.750			
0.1096	7014.98	3.9920	3.9920	-0.7715	25.77	-0.08	-0.750			
0.1120	7165.04	3.9890	3.9890	-0.7780	25.77	-0.08	-0.750			
0.1143	7317.32	3.9860	3.9859	-0.7779	25.77	-0.08	-0.750			
0.1166	7464.91	3.9830	3.9830	-0.7762	25.77	-0.08	-0.750			
0.1190	7612.86	3.9800	3.9801	-0.7832	25.78	-0.07	-0.750			
0.1213	7762.45	3.9770	3.9770	-0.7828	25.78	-0.07	-0.750			
0.1237	7914.06	3.9740	3.9739	-0.7858	25.78	-0.07	-0.750			
0.1260	8065.37	3.9710	3.9710	-0.7887	25.79	-0.06	-0.750			
0.1284	8218.11	3.9680	3.9681	-0.7897	25.79	-0.06	-0.750			
0.1308	8370.73	3.9650	3.9650	-0.7987	25.79	-0.06	-0.750			
0.1332	8523.47	3.9620	3.9620	-0.7933	25.79	-0.06	-0.750			
0.1355	8675.18	3.9590	3.9589	-0.7853	25.79	-0.06	-0.750			
0.1379	8828.17	3.9560	3.9560	-0.7843	25.79	-0.06	-0.750			
0.1403	8977.04	3.9530	3.9532	-0.7881	25.79	-0.06	-0.750			
0.1426	9126.98	3.9500	3.9500	-0.7876	25.79	-0.06	-0.750			
0.1450	9277.53	3.9470	3.9469	-0.7943	25.80	-0.05	-0.750			
0.1473	9429.11	3.9440	3.9440	-0.8008	25.80	-0.05	-0.750			
0.1498	9586.78	3.9410	3.9410	-0.8066	25.81	-0.04	-0.750			
0.1522	9742.31	3.9380	3.9381	-0.8109	25.81	-0.04	-0.750			
0.1547	9899.02	3.9350	3.9350	-0.8145	25.81	-0.04	-0.750			
0.1571	10054.38	3.9320	3.9319	-0.8208	25.81	-0.04	-0.750			
0.1596	10214.57	3.9290	3.9289	-0.8185	25.82	-0.03	-0.750			
0.1621	10372.00	3.9260	3.9258	-0.8135	25.82	-0.03	-0.750			
0.1645	10529.56	3.9230	3.9233	-0.8148	25.82	-0.03	-0.750			
0.1670	10686.17	3.9200	3.9199	-0.8128	25.82	-0.03	-0.750			
0.1694	10839.04	3.9170	3.9169	-0.8143	25.82	-0.03	-0.750			
0.1718	10994.86	3.9140	3.9139	-0.8165	25.83	-0.02	-0.750			
0.1743	11152.09	3.9110	3.9109	-0.8246	25.83	-0.02	-0.750			
0.1767	11311.12	3.9080	3.9081	-0.8288	25.83	-0.02	-0.750			
0.1792	11470.97	3.9050	3.9050	-0.8289	25.83	-0.02	-0.750			
0.1817	11629.85	3.9020	3.9019	-0.8323	25.84	-0.01	-0.750			
0.1842	11790.17	3.8990	3.8990	-0.8355	25.84	-0.01	-0.750			
0.1867	11949.48	3.8960	3.8960	-0.8316	25.84	-0.01	-0.750			
0.1893	12112.85	3.8930	3.8930	-0.8347	25.85	-0.00	-0.750			
0.1918	12272.09	3.8900	3.8900	-0.8348	25.85	0.00	-0.750			
0.1942	12431.36	3.8870	3.8870	-0.8396	25.86	0.01	-0.750			
0.1968	12594.59	3.8840	3.8839	-0.8364	25.86	0.01	-0.750			
0.1993	12753.08	3.8810	3.8809	-0.8354	25.86	0.01	-0.750			
0.2018	12915.03	3.8780	3.8781	-0.8421	25.87	0.02	-0.750			
0.2043	13077.51	3.8750	3.8748	-0.8441	25.87	0.02	-0.750			
0.2069	13239.79	3.8720	3.8719	-0.8497	25.87	0.02	-0.750			
0.2094	13402.44	3.8690	3.8690	-0.8463	25.88	0.03	-0.750			
0.2120	13564.80	3.8660	3.8660	-0.8414	25.88	0.03	-0.750			
0.2146	13731.44	3.8630	3.8632	-0.8489	25.88	0.03	-0.750			
0.2171	13892.23	3.8600	3.8599	-0.8439	25.89	0.04	-0.750			
0.2196	14052.61	3.8570	3.8570	-0.8435	25.89	0.04	-0.750			
0.2221	14214.32	3.8540	3.8539	-0.8461	25.90	0.05	-0.750			
0.2246	14375.14	3.8510	3.8511	-0.8474	25.90	0.05	-0.750			
0.2272	14540.74	3.8480	3.8481	-0.8579	25.91	0.06	-0.750			
0.2298	14705.83	3.8450	3.8450	-0.8552	25.91	0.06	-0.750			
0.2324	14871.49	3.8420	3.8420	-0.8569	25.91	0.06	-0.750			
0.2349	15036.03	3.8390	3.8390	-0.8572	25.92	0.07	-0.750			
0.2375	15201.02	3.8360	3.8358	-0.8540	25.92	0.07	-0.750			
0.2401	15365.11	3.8330	3.8333	-0.8542	25.92	0.07	-0.750			
0.2426	15529.10	3.8300	3.8299	-0.8497	25.92	0.07	-0.750			
0.2452	15691.60	3.8270	3.8271	-0.8543	25.92	0.07	-0.750			
0.2478	15857.27	3.8240	3.8240	-0.8491	25.93	0.08	-0.750			
0.2503	16021.00	3.8210	3.8209	-0.8502	25.93	0.08	-0.750			
0.2528	16181.39	3.8180	3.8183	-0.8497	25.93	0.08	-0.750			
0.2554	16344.51	3.8150	3.8147	-0.8477	25.93	0.08	-0.750			
0.2579	16507.20	3.8120	3.8120	-0.8489	25.94	0.09	-0.750			
0.2605	16670.30	3.8090	3.8090	-0.8501	25.94	0.09	-0.750			
0.2631	16835.58	3.8060	3.8060	-0.8538	25.95	0.10	-0.750			
0.2656	17000.50	3.8030	3.8030	-0.8529	25.95	0.10	-0.750			
0.2682	17162.41	3.8000	3.8000	-0.8471	25.96	0.11	-0.750			
0.2707	17325.23	3.7970	3.7970	-0.8523	25.96	0.11	-0.750			
0.2733	17489.67	3.7940	3.7939	-0.8468	25.96	0.11	-0.750			
0.2759	17654.56	3.7910	3.7909	-0.8447	25.97	0.12	-0.750			
0.2784	17816.14	3.7880	3.7880	-0.8375	25.97	0.12	-0.750			
0.2809	17974.58	3.7850	3.7850	-0.8369	25.98	0.13	-0.750			
0.2833	18133.86	3.7820	3.7819	-0.8353	25.98	0.13	-0.750			
0.2858	18290.52	3.7790	3.7790	-0.8261	25.98	0.13	-0.750			
0.2883	18454.16	3.7760	3.7759	-0.8312	25.99	0.14	-0.750			
0.2909	18616.90	3.7730	3.7730	-0.8243	25.99	0.14	-0.750			
0.2933	18772.18	3.7700	3.7701	-0.8253	26.00	0.15	-0.750			
0.2957	18927.98	3.7670	3.7671	-0.8225	26.00	0.15	-0.750			
0.2982	19083.94	3.7640	3.7639	-0.8180	26.00	0.15	-0.750			
0.3007	19243.47	3.7610	3.7609	-0.8182	26.01	0.16	-0.750			
0.3031	19400.56	3.7580	3.7582	-0.8200	26.01	0.16	-0.750			
0.3056	19558.06	3.7550	3.7551	-0.8199	26.02	0.17	-0.750			
0.3081	19716.76	3.7520	3.7519	-0.8254	26.02	0.17	-0.750			
0.3105	19871.45	3.7490	3.7489	-0.8170	26.02	0.17	-0.750			
0.3130	20029.11	3.7460	3.7461	-0.8257	26.03	0.18	-0.750			
0.3154	20188.75	3.7430	3.7431	-0.8324	26.03	0.18	-0.750			
0.3180	20351.66	3.7400	3.7398	-0.8373	26.03	0.18	-0.750			
0.3205	20511.52	3.7370	3.7370	-0.8410	26.04	0.19	-0.750			
0.3230	20672.18	3.7340	3.7340	-0.8444	26.04	0.19	-0.750			
0.3256	20835.55	3.7310	3.7310	-0.8494	26.05	0.20	-0.750			
0.3281	20998.80	3.7280	3.7280	-0.8583	26.05	0.20	-0.750			
0.3307	21161.92	3.7250	3.7251	-0.8641	26.05	0.20	-0.750			
0.3333	21328.53	3.7220	3.7220	-0.8741	26.05	0.20	-0.750			
0.3359	21496.56	3.7190	3.7190	-0.8832	26.06	0.21	-0.750			
0.3386	21668.10	3.7160	3.7159	-0.9066	26.06	0.21	-0.750			
0.3413	21842.28	3.7130	3.7129	-0.9221	26.06	0.21	-0.750			
0.3441	22021.96	3.7100	3.7100	-0.9491	26.06	0.21	-0.750			
0.3470	22207.29	3.7070	3.7070	-0.9593	26.07	0.22	-0.750			
0.3499	22394.38	3.7040	3.7040	-0.9763	26.07	0.22	-0.750			
0.3529	22584.38	3.7010	3.7012	-0.9863	26.07	0.22	-0.750			
0.3558	22773.88	3.6980	3.6978	-1.0078	26.07	0.22	-0.750			
0.3589	22967.92	3.6950	3.6950	-1.0208	26.07	0.22	-0.750			
0.3619	23164.69	3.6920	3.6919	-1.0356	26.07	0.22	-0.750			
0.3651	23364.54	3.6890	3.6894	-1.0709	26.07	0.22	-0.750			
0.3683	23574.04	3.6860	3.6860	-1.0907	26.07	0.22	-0.750			
0.3716	23784.71	3.6830	3.6829	-1.1080	26.07	0.22	-0.750			
0.3750	23999.09	3.6800	3.6799	-1.1328	26.07	0.22	-0.750			
0.3784	24218.93	3.6770	3.6771	-1.1629	26.07	0.22	-0.750			
0.3820	24447.04	3.6740	3.6739	-1.1817	26.06	0.21	-0.750			
0.3856	24676.36	3.6710	3.6710	-1.2006	26.06	0.21	-0.750			
0.3891	24903.57	3.6680	3.6681	-1.2220	26.05	0.20	-0.750			
0.3929	25144.74	3.6650	3.6649	-1.2576	26.05	0.20	-0.750			
0.3967	25387.71	3.6620	3.6618	-1.2738	26.04	0.19	-0.750			
0.4005	25629.19	3.6590	3.6591	-1.3120	26.03	0.18	-0.750			
0.4045	25885.56	3.6560	3.6561	-1.3353	26.03	0.18	-0.750			
0.4086	26151.56	3.6530	3.6529	-1.3740	26.02	0.17	-0.750			
0.4128	26416.45	3.6500	3.6499	-1.4082	26.01	0.16	-0.750			
0.4169	26684.42	3.6470	3.6470	-1.4428	26.01	0.16	-0.750			
0.4213	26966.23	3.6440	3.6439	-1.4905	26.00	0.15	-0.750			
0.4260	27261.06	3.6410	3.6408	-1.5278	26.00	0.15	-0.750			
0.4306	27559.70	3.6380	3.6378	-1.5441	26.00	0.15	-0.750			
0.4354	27862.68	3.6350	3.6349	-1.5934	25.99	0.14	-0.750			
0.4402	28173.98	3.6320	3.6322	-1.6028	25.99	0.14	-0.750			
0.4450	28479.27	3.6290	3.6292	-1.6283	25.98	0.13	-0.750			
0.4499	28795.34	3.6260	3.6261	-1.6526	25.97	0.12	-0.750			
0.4549	29114.15	3.6230	3.6229	-1.6755	25.96	0.11	-0.750	0.387	0.505	
0.4601	29446.32	3.6200	3.6204	-1.7275	25.95	0.10	-0.750			
0.4653	29781.12	3.6170	3.6171	-1.7616	25.95	0.10	-0.750			
0.4706	30115.56	3.6140	3.6141	-1.8004	25.94	0.09	-0.750			
0.4761	30467.27	3.6110	3.6111	-1.8203	25.93	0.08	-0.750			
0.4816	30820.11	3.6080	3.6080	-1.8785	25.92	0.07	-0.750			
0.4874	31190.75	3.6050	3.6048	-1.9194	25.91	0.06	-0.750			
0.4931	31560.94	3.6020	3.6018	-1.9573	25.91	0.06	-0.750			
0.4990	31935.53	3.5990	3.5988	-1.9922	25.90	0.05	-0.750			
0.5050	32322.97	3.5960	3.5962	-2.0161	25.90	0.05	-0.750			
0.5112	32715.72	3.5930	3.5930	-2.0648	25.89	0.04	-0.750			
0.5173	33108.29	3.5900	3.5900	-2.0958	25.88	0.03	-0.750			
0.5237	33517.84	3.5870	3.5868	-2.1156	25.87	0.02	-0.750			
0.5302	33929.98	3.5840	3.5840	-2.1591	25.87	0.02	-0.750			
0.5367	34347.95	3.5810	3.5810	-2.1945	25.86	0.01	-0.750			
0.5433	34769.16	3.5780	3.5776	-2.2335	25.85	0.00	-0.750			
0.5501	35206.25	3.5750	3.5750	-2.2594	25.85	0.00	-0.750			
0.5569	35643.44	3.5720	3.5720	-2.2924	25.84	-0.01	-0.750			
0.5639	36090.04	3.5690	3.5689	-2.3229	25.82	-0.03	-0.750			
0.5710	36542.53	3.5660	3.5660	-2.3251	25.82	-0.03	-0.750			
0.5781	36996.90	3.5630	3.5630	-2.3310	25.82	-0.03	-0.750			
0.5850	37440.24	3.5600	3.5600	-2.3318	25.82	-0.03	-0.750			
0.5920	37886.54	3.5570	3.5571	-2.3055	25.82	-0.03	-0.750			
0.5989	38331.68	3.5540	3.5539	-2.3091	25.82	-0.03	-0.750			
0.6058	38771.90	3.5510	3.5511	-2.2937	25.82	-0.03	-0.750			
0.6127	39210.05	3.5480	3.5479	-2.2802	25.82	-0.03	-0.750			
0.6195	39650.65	3.5450	3.5450	-2.2794	25.82	-0.03	-0.750			
0.6264	40090.04	3.5420	3.5419	-2.2228	25.81	-0.04	-0.750			
0.6330	40511.17	3.5390	3.5391	-2.2065	25.81	-0.04	-0.750			
0.6397	40941.94	3.5360	3.5361	-2.1509	25.82	-0.03	-0.750			
0.6461	41349.21	3.5330	3.5325	-2.1017	25.82	-0.03	-0.750			
0.6523	41744.39	3.5300	3.5302	-2.0654	25.83	-0.02	-0.750			
0.6584	42139.59	3.5270	3.5273	-2.0230	25.84	-0.01	-0.750			
0.6645	42526.25	3.5240	3.5241	-1.9959	25.85	-0.00	-0.750			
0.6703	42900.56	3.5210	3.5211	-1.9621	25.85	0.00	-0.750			
0.6762	43273.80	3.5180	3.5181	-1.9222	25.86	0.01	-0.750			
0.6821	43651.63	3.5150	3.5151	-1.8985	25.87	0.02	-0.750			
0.6877	44009.73	3.5120	3.5121	-1.8546	25.88	0.03	-0.750			
0.6931	44356.20	3.5090	3.5087	-1.8041	25.89	0.04	-0.750			
0.6985	44704.75	3.5060	3.5056	-1.7364	25.90	0.05	-0.750			
0.7036	45033.31	3.5030	3.5032	-1.6642	25.91	0.06	-0.750			
0.7086	45353.45	3.5000	3.4999	-1.5962	25.93	0.08	-0.750			
0.7133	45650.61	3.4970	3.4970	-1.5202	25.94	0.09	-0.750			
0.7176	45928.62	3.4940	3.4938	-1.4481	25.96	0.11	-0.750			
0.7219	46198.88	3.4910	3.4910	-1.4030	25.97	0.12	-0.750			
0.7259	46458.73	3.4880	3.4881	-1.3646	25.99	0.14	-0.750			
0.7301	46724.08	3.4850	3.4850	-1.3292	26.00	0.15	-0.750			
0.7341	46979.68	3.4820	3.4820	-1.2827	26.01	0.16	-0.750			
0.7378	47221.14	3.4790	3.4789	-1.2382	26.02	0.17	-0.750			
0.7415	47453.22	3.4760	3.4761	-1.1971	26.04	0.19	-0.750			
0.7450	47677.49	3.4730	3.4729	-1.1517	26.05	0.20	-0.750			
0.7483	47892.31	3.4700	3.4699	-1.1065	26.07	0.22	-0.750			
0.7515	48098.20	3.4670	3.4671	-1.0651	26.09	0.24	-0.750			
0.7547	48303.05	3.4640	3.4640	-1.0418	26.10	0.25	-0.750			
0.7578	48501.63	3.4610	3.4610	-1.0078	26.11	0.26	-0.750			
0.7608	48688.61	3.4580	3.4579	-0.9719	26.12	0.27	-0.750			
0.7636	48868.70	3.4550	3.4550	-0.9491	26.13	0.28	-0.750			
0.7664	49048.91	3.4520	3.4519	-0.9329	26.15	0.30	-0.750			
0.7692	49226.09	3.4490	3.4489	-0.9201	26.16	0.31	-0.750			
0.7719	49398.59	3.4460	3.4461	-0.9146	26.17	0.32	-0.750			
0.7746	49571.59	3.4430	3.4431	-0.9160	26.18	0.33	-0.750			
0.7773	49748.21	3.4400	3.4398	-0.9333	26.19	0.34	-0.750			
0.7801	49924.68	3.4370	3.4370	-0.9525	26.20	0.35	-0.750			
0.7830	50109.44	3.4340	3.4339	-0.9757	26.21	0.36	-0.750			
0.7859	50297.97	3.4310	3.4310	-1.0112	26.22	0.37	-0.750			
0.7890	50497.16	3.4280	3.4280	-1.0446	26.23	0.38	-0.750			
0.7922	50701.07	3.4250	3.4249	-1.0737	26.23	0.38	-0.750			
0.7956	50915.72	3.4220	3.4219	-1.0904	26.24	0.39	-0.750			
0.7989	51129.37	3.4190	3.4190	-1.0928	26.24	0.39	-0.750			
0.8022	51341.28	3.4160	3.4162	-1.0791	26.25	0.40	-0.750			
0.8055	51553.74	3.4130	3.4130	-1.0680	26.26	0.41	-0.750			
0.8087	51754.35	3.4100	3.4100	-1.0348	26.27	0.42	-0.750			
0.8117	51950.84	3.4070	3.4070	-1.0022	26.28	0.43	-0.750			
0.8147	52139.88	3.4040	3.4040	-0.9717	26.29	0.44	-0.750			
0.8175	52321.94	3.4010	3.4010	-0.9458	26.30	0.45	-0.750			
0.8203	52502.34	3.3980	3.3980	-0.9103	26.30	0.45	-0.750			
0.8230	52674.27	3.3950	3.3949	-0.8749	26.31	0.46	-0.750			
0.8256	52838.89	3.3920	3.3920	-0.8401	26.32	0.47	-0.750			
0.8281	52997.23	3.3890	3.3890	-0.8057	26.32	0.47	-0.750			
0.8304	53148.26	3.3860	3.3860	-0.7736	26.33	0.48	-0.750			
0.8327	53291.38	3.3830	3.3830	-0.7423	26.33	0.48	-0.750			
0.8348	53430.24	3.3800	3.3800	-0.7105	26.34	0.49	-0.750			
0.8370	53566.73	3.3770	3.3769	-0.6877	26.34	0.49	-0.750			
0.8390	53695.56	3.3740	3.3739	-0.6586	26.35	0.50	-0.750			
0.8409	53818.83	3.3710	3.3710	-0.6311	26.36	0.51	-0.750			
0.8428	53936.53	3.3680	3.3679	-0.6046	26.36	0.51	-0.750			
0.8445	54049.36	3.3650	3.3649	-0.5791	26.37	0.52	-0.750			
0.8462	54156.01	3.3620	3.3621	-0.5574	26.38	0.53	-0.750			
0.8479	54263.10	3.3590	3.3589	-0.5417	26.39	0.54	-0.750			
0.8495	54365.25	3.3560	3.3560	-0.5206	26.40	0.55	-0.750			
0.8510	54463.74	3.3530	3.3530	-0.4995	26.40	0.55	-0.750			
0.8525	54557.27	3.3500	3.3503	-0.4804	26.41	0.56	-0.750			
0.8539	54647.78	3.3470	3.3470	-0.4625	26.42	0.57	-0.750			
0.8552	54733.94	3.3440	3.3440	-0.4442	26.42	0.57	-0.750			
0.8565	54816.96	3.3410	3.3410	-0.4256	26.43	0.58	-0.750			
0.8578	54897.05	3.3380	3.3380	-0.4110	26.43	0.58	-0.750			
0.8590	54974.85	3.3350	3.3350	-0.3946	26.44	0.59	-0.750			
0.8601	55049.28	3.3320	3.3320	-0.3795	26.44	0.59	-0.750			
0.8612	55119.66	3.3290	3.3290	-0.3647	26.45	0.60	-0.750			
0.8623	55187.72	3.3260	3.3260	-0.3507	26.45	0.60	-0.750			
0.8633	55254.26	3.3230	3.3230	-0.3366	26.45	0.60	-0.750			
0.8643	55317.15	3.3200	3.3199	-0.3250	26.46	0.61	-0.750			
0.8653	55377.91	3.3170	3.3170	-0.3131	26.46	0.61	-0.750			
0.8662	55436.87	3.3140	3.3141	-0.3039	26.47	0.62	-0.750			
0.8671	55493.61	3.3110	3.3109	-0.2944	26.47	0.62	-0.750			
0.8679	55548.70	3.3080	3.3081	-0.2855	26.48	0.63	-0.750			
0.8688	55603.67	3.3050	3.3049	-0.2780	26.49	0.64	-0.750			
0.8696	55656.86	3.3020	3.3020	-0.2716	26.49	0.64	-0.750			
0.8704	55707.68	3.2990	3.2991	-0.2620	26.50	0.65	-0.750			
0.8712	55757.13	3.2960	3.2960	-0.2535	26.50	0.65	-0.750			
0.8719	55804.72	3.2930	3.2929	-0.2459	26.51	0.66	-0.750			
0.8727	55850.23	3.2900	3.2901	-0.2382	26.51	0.66	-0.750			
0.8734	55895.31	3.2870	3.2870	-0.2323	26.51	0.66	-0.750			
0.8741	55939.40	3.2840	3.2840	-0.2270	26.52	0.67	-0.750			
0.8747	55982.55	3.2810	3.2810	-0.2222	26.52	0.67	-0.750			
0.8754	56024.36	3.2780	3.2780	-0.2169	26.53	0.68	-0.750			
0.8760	56065.71	3.2750	3.2750	-0.2125	26.53	0.68	-0.750			
0.8767	56106.06	3.2720	3.2721	-0.2078	26.54	0.69	-0.750			
0.8773	56145.35	3.2690	3.2690	-0.2040	26.54	0.69	-0.750			
0.8779	56184.03	3.2660	3.2660	-0.1997	26.54	0.69	-0.750			
0.8785	56222.27	3.2630	3.2630	-0.1955	26.55	0.70	-0.750			
0.8791	56259.37	3.2600	3.2599	-0.1909	26.55	0.70	-0.750			
0.8796	56295.43	3.2570	3.2571	-0.1875	26.56	0.71	-0.750			
0.8802	56330.95	3.2540	3.2541	-0.1838	26.56	0.71	-0.750			
0.8807	56365.76	3.2510	3.2510	-0.1805	26.57	0.72	-0.750			
0.8813	56400.11	3.2480	3.2479	-0.1773	26.57	0.72	-0.750			
0.8818	56433.43	3.2450	3.2451	-0.1745	26.58	0.73	-0.750			
0.8823	56466.79	3.2420	3.2420	-0.1721	26.58	0.73	-0.750			
0.8828	56499.70	3.2390	3.2390	-0.1702	26.58	0.73	-0.750			
0.8833	56532.13	3.2360	3.2359	-0.1677	26.59	0.74	-0.750			
0.8838	56563.84	3.2330	3.2330	-0.1652	26.59	0.74	-0.750			
0.8843	56595.41	3.2300	3.2300	-0.1634	26.60	0.75	-0.750			
0.8848	56626.70	3.2270	3.2270	-0.1611	26.60	0.75	-0.750			
0.8853	56657.42	3.2240	3.2240	-0.1588	26.60	0.75	-0.750			
0.8857	56687.63	3.2210	3.2210	-0.1567	26.61	0.76	-0.750			
0.8862	56717.68	3.2180	3.2179	-0.1545	26.61	0.76	-0.750			
0.8867	56747.09	3.2150	3.2151	-0.1519	26.62	0.77	-0.750			
0.8871	56775.97	3.2120	3.2119	-0.1498	26.62	0.77	-0.750			
0.8876	56804.26	3.2090	3.2091	-0.1484	26.62	0.77	-0.750			
0.8880	56832.37	3.2060	3.2059	-0.1469	26.63	0.78	-0.750			
0.8884	56860.49	3.2030	3.2031	-0.1461	26.63	0.78	-0.750			
0.8889	56888.53	3.2000	3.1999	-0.1445	26.63	0.78	-0.750			
0.8893	56916.39	3.1970	3.1970	-0.1422	26.64	0.79	-0.750			
0.8897	56943.47	3.1940	3.1941	-0.1413	26.64	0.79	-0.750			
0.8902	56970.42	3.1910	3.1910	-0.1394	26.64	0.79	-0.750			
0.8906	56996.90	3.1880	3.1880	-0.1383	26.65	0.80	-0.750			
0.8910	57023.09	3.1850	3.1848	-0.1362	26.65	0.80	-0.750			
0.8914	57048.89	3.1820	3.1820	-0.1351	26.66	0.81	-0.750			
0.8918	57074.79	3.1790	3.1791	-0.1347	26.66	0.81	-0.750			
0.8922	57100.85	3.1760	3.1761	-0.1335	26.67	0.82	-0.750			
0.8926	57126.57	3.1730	3.1729	-0.1328	26.67	0.82	-0.750			
0.8930	57151.72	3.1700	3.1700	-0.1307	26.68	0.83	-0.750			
0.8934	57176.70	3.1670	3.1671	-0.1296	26.68	0.83	-0.750			
0.8938	57201.54	3.1640	3.1639	-0.1284	26.69	0.84	-0.750			
0.8942	57226.25	3.1610	3.1610	-0.1274	26.69	0.84	-0.750			
0.8945	57250.19	3.1580	3.1581	-0.1258	26.69	0.84	-0.750			
0.8949	57274.28	3.1550	3.1549	-0.1251	26.70	0.85	-0.750			
0.8953	57298.40	3.1520	3.1520	-0.1244	26.70	0.85	-0.750			
0.8957	57322.02	3.1490	3.1489	-0.1232	26.71	0.86	-0.750			
0.8960	57345.61	3.1460	3.1461	-0.1225	26.71	0.86	-0.750			
0.8964	57369.13	3.1430	3.1429	-0.1219	26.72	0.87	-0.750			
0.8968	57392.49	3.1400	3.1401	-0.1210	26.72	0.87	-0.750			
0.8971	57415.70	3.1370	3.1370	-0.1201	26.73	0.88	-0.750			
0.8975	57438.69	3.1340	3.1339	-0.1190	26.73	0.88	-0.750			
0.8978	57461.39	3.1310	3.1311	-0.1179	26.73	0.88	-0.750			
0.8982	57483.90	3.1280	3.1280	-0.1172	26.74	0.89	-0.750			
0.8985	57506.38	3.1250	3.1250	-0.1164	26.74	0.89	-0.750			
0.8989	57528.67	3.1220	3.1220	-0.1153	26.75	0.90	-0.750			
0.8992	57550.63	3.1190	3.1189	-0.1142	26.75	0.90	-0.750			
0.8996	57572.47	3.1160	3.1161	-0.1134	26.75	0.90	-0.750			
0.8999	57594.20	3.1130	3.1130	-0.1126	26.76	0.91	-0.750			
0.9002	57615.72	3.1100	3.1101	-0.1118	26.76	0.91	-0.750			
0.9006	57637.10	3.1070	3.1069	-0.1109	26.76	0.91	-0.750			
0.9009	57658.08	3.1040	3.1040	-0.1102	26.77	0.92	-0.750			
0.9012	57679.21	3.1010	3.1010	-0.1098	26.77	0.92	-0.750			
0.9016	57700.27	3.0980	3.0980	-0.1095	26.77	0.92	-0.750			
0.9019	57721.27	3.0950	3.0950	-0.1092	26.78	0.93	-0.750			
0.9022	57742.18	3.0920	3.0921	-0.1087	26.78	0.93	-0.750			
0.9025	57763.02	3.0890	3.0889	-0.1084	26.78	0.93	-0.750			
0.9029	57784.05	3.0860	3.0860	-0.1076	26.79	0.94	-0.750			
0.9032	57804.60	3.0830	3.0829	-0.1065	26.79	0.94	-0.750			
0.9035	57824.92	3.0800	3.0800	-0.1058	26.80	0.95	-0.750			
0.9038	57845.14	3.0770	3.0771	-0.1048	26.80	0.95	-0.750			
0.9041	57865.10	3.0740	3.0740	-0.1040	26.81	0.96	-0.750			
0.9045	57884.99	3.0710	3.0709	-0.1032	26.81	0.96	-0.750			
0.9048	57904.51	3.0680	3.0681	-0.1026	26.82	0.97	-0.750			
0.9051	57924.20	3.0650	3.0649	-0.1024	26.83	0.98	-0.750			
0.9054	57944.03	3.0620	3.0620	-0.1019	26.83	0.98	-0.750			
0.9057	57963.52	3.0590	3.0589	-0.1012	26.84	0.99	-0.750			
0.9060	57982.82	3.0560	3.0561	-0.1007	26.84	0.99	-0.750			
0.9063	58002.10	3.0530	3.0530	-0.1002	26.85	1.00	-0.750			
0.9066	58021.40	3.0500	3.0500	-0.0995	26.85	1.00	-0.750			
0.9069	58040.44	3.0470	3.0469	-0.0987	26.86	1.01	-0.750			
0.9072	58059.18	3.0440	3.0441	-0.0981	26.86	1.01	-0.750			
0.9075	58077.97	3.0410	3.0410	-0.0977	26.86	1.01	-0.750			
0.9078	58096.69	3.0380	3.0379	-0.0974	26.87	1.02	-0.750			
0.9081	58115.35	3.0350	3.0350	-0.0970	26.87	1.02	-0.750			
0.9083	58133.76	3.0320	3.0321	-0.0965	26.88	1.03	-0.750			
0.9086	58152.28	3.0290	3.0289	-0.0964	26.88	1.03	-0.750			
0.9089	58171.02	3.0260	3.0259	-0.0961	26.89	1.04	-0.750			
0.9092	58189.40	3.0230	3.0230	-0.0955	26.89	1.04	-0.750			
0.9095	58207.74	3.0200	3.0201	-0.0949	26.90	1.05	-0.750			
0.9098	58225.89	3.0170	3.0170	-0.0941	26.90	1.05	-0.750			
0.9101	58243.89	3.0140	3.0140	-0.0935	26.91	1.06	-0.750			
0.9103	58261.80	3.0110	3.0110	-0.0927	26.91	1.06	-0.751			
0.9106	58279.53	3.0080	3.0080	-0.0919	26.92	1.07	-0.751			
0.9109	58297.00	3.0050	3.0051	-0.0917	26.92	1.07	-0.751			
0.9112	58314.58	3.0020	3.0020	-0.0914	26.93	1.08	-0.751			
