Ah_balance (normalized)	Ah_balance (mAh)	Voltage - fit (V)	Voltage -  interpolate (V)	dQ/dV (1/V)	Temperature (°C)	Temperature - diff (°C)	Current (C)	R_DC 0ms (mOhm)	R_DC 50ms (mOhm)	R_DC 50 ms PEC (mOhm)
0.0003	18.57	4.1590	4.1590	-0.1228	25.97	0.02	-0.750			
0.0007	45.24	4.1560	4.1559	-0.1572	25.97	0.02	-0.750			
0.0012	78.99	4.1530	4.1531	-0.1938	25.97	0.02	-0.750			
0.0019	119.61	4.1500	4.1500	-0.2300	25.97	0.02	-0.750			
0.0026	167.42	4.1470	4.1470	-0.2657	25.96	0.01	-0.750			
0.0035	222.55	4.1440	4.1440	-0.2998	25.96	0.01	-0.750			
0.0044	283.50	4.1410	4.1409	-0.3312	25.96	0.01	-0.750			
0.0055	350.99	4.1380	4.1381	-0.3623	25.95	0.00	-0.750			
0.0066	423.54	4.1350	4.1351	-0.3934	25.95	0.00	-0.750			
0.0078	501.98	4.1320	4.1320	-0.4225	25.95	-0.00	-0.750			
0.0092	586.27	4.1290	4.1290	-0.4496	25.94	-0.01	-0.750			
0.0106	676.31	4.1260	4.1260	-0.4717	25.94	-0.01	-0.750			
0.0120	771.07	4.1230	4.1230	-0.4940	25.93	-0.02	-0.750			
0.0136	867.45	4.1200	4.1201	-0.5146	25.93	-0.02	-0.750			
0.0151	967.72	4.1170	4.1170	-0.5325	25.92	-0.03	-0.750			
0.0167	1071.45	4.1140	4.1139	-0.5481	25.92	-0.03	-0.750			
0.0184	1179.06	4.1110	4.1109	-0.5627	25.91	-0.04	-0.750			
0.0202	1289.93	4.1080	4.1079	-0.5756	25.91	-0.04	-0.750			
0.0219	1402.24	4.1050	4.1050	-0.5859	25.91	-0.04	-0.750			
0.0237	1515.72	4.1020	4.1020	-0.5956	25.90	-0.05	-0.750			
0.0255	1629.73	4.0990	4.0990	-0.6020	25.90	-0.05	-0.750			
0.0273	1747.84	4.0960	4.0960	-0.6138	25.90	-0.05	-0.750			
0.0292	1865.97	4.0930	4.0930	-0.6229	25.89	-0.06	-0.750			
0.0310	1986.69	4.0900	4.0900	-0.6310	25.89	-0.06	-0.750			
0.0330	2109.82	4.0870	4.0869	-0.6382	25.89	-0.06	-0.750			
0.0349	2233.11	4.0840	4.0840	-0.6401	25.88	-0.07	-0.750			
0.0368	2355.03	4.0810	4.0811	-0.6476	25.88	-0.07	-0.750			
0.0388	2480.54	4.0780	4.0780	-0.6512	25.88	-0.07	-0.750			
0.0407	2606.32	4.0750	4.0750	-0.6577	25.88	-0.07	-0.750			
0.0427	2732.99	4.0720	4.0720	-0.6619	25.87	-0.08	-0.750			
0.0447	2861.58	4.0690	4.0690	-0.6637	25.87	-0.08	-0.750			
0.0467	2989.52	4.0660	4.0660	-0.6654	25.87	-0.08	-0.750			
0.0487	3116.12	4.0630	4.0631	-0.6731	25.87	-0.08	-0.750			
0.0507	3244.73	4.0600	4.0600	-0.6755	25.87	-0.08	-0.750			
0.0528	3376.75	4.0570	4.0569	-0.6804	25.87	-0.08	-0.750			
0.0548	3506.24	4.0540	4.0540	-0.6863	25.87	-0.08	-0.750			
0.0569	3639.62	4.0510	4.0512	-0.6896	25.87	-0.08	-0.750			
0.0590	3773.56	4.0480	4.0479	-0.6903	25.87	-0.08	-0.750			
0.0610	3904.73	4.0450	4.0450	-0.6936	25.87	-0.08	-0.750			
0.0631	4037.40	4.0420	4.0420	-0.6950	25.86	-0.09	-0.750			
0.0652	4171.18	4.0390	4.0390	-0.7007	25.86	-0.09	-0.750			
0.0673	4306.85	4.0360	4.0359	-0.7000	25.86	-0.09	-0.750			
0.0694	4439.44	4.0330	4.0333	-0.7065	25.86	-0.09	-0.750			
0.0715	4577.50	4.0300	4.0300	-0.7142	25.86	-0.09	-0.750			
0.0737	4715.02	4.0270	4.0270	-0.7189	25.86	-0.09	-0.750			
0.0758	4852.84	4.0240	4.0240	-0.7205	25.86	-0.09	-0.750			
0.0780	4991.62	4.0210	4.0211	-0.7274	25.86	-0.09	-0.750			
0.0802	5132.13	4.0180	4.0178	-0.7294	25.86	-0.09	-0.750			
0.0824	5273.81	4.0150	4.0150	-0.7314	25.86	-0.09	-0.750			
0.0846	5412.79	4.0120	4.0120	-0.7266	25.86	-0.09	-0.750			
0.0868	5554.45	4.0090	4.0090	-0.7304	25.86	-0.09	-0.750			
0.0890	5693.64	4.0060	4.0060	-0.7243	25.87	-0.08	-0.750			
0.0911	5832.61	4.0030	4.0030	-0.7260	25.87	-0.08	-0.750			
0.0933	5970.75	4.0000	4.0000	-0.7236	25.87	-0.08	-0.750			
0.0955	6110.13	3.9970	3.9969	-0.7260	25.87	-0.08	-0.750			
0.0976	6249.29	3.9940	3.9940	-0.7263	25.87	-0.08	-0.750			
0.0998	6387.78	3.9910	3.9911	-0.7326	25.87	-0.08	-0.750			
0.1020	6528.62	3.9880	3.9880	-0.7349	25.87	-0.08	-0.750			
0.1043	6672.15	3.9850	3.9848	-0.7377	25.87	-0.08	-0.750			
0.1065	6814.47	3.9820	3.9822	-0.7349	25.87	-0.08	-0.750			
0.1087	6954.86	3.9790	3.9790	-0.7361	25.87	-0.08	-0.750			
0.1109	7096.66	3.9760	3.9759	-0.7371	25.87	-0.08	-0.750			
0.1131	7237.50	3.9730	3.9730	-0.7422	25.87	-0.08	-0.750			
0.1153	7377.98	3.9700	3.9699	-0.7403	25.87	-0.08	-0.750			
0.1175	7522.37	3.9670	3.9670	-0.7474	25.87	-0.08	-0.750			
0.1198	7666.74	3.9640	3.9641	-0.7471	25.87	-0.08	-0.750			
0.1221	7811.25	3.9610	3.9609	-0.7501	25.87	-0.08	-0.750			
0.1243	7953.91	3.9580	3.9580	-0.7551	25.88	-0.07	-0.750			
0.1266	8099.25	3.9550	3.9549	-0.7534	25.88	-0.07	-0.750			
0.1288	8243.76	3.9520	3.9519	-0.7563	25.89	-0.06	-0.750			
0.1311	8390.06	3.9490	3.9491	-0.7604	25.89	-0.06	-0.750			
0.1334	8536.02	3.9460	3.9460	-0.7624	25.89	-0.06	-0.750			
0.1357	8682.60	3.9430	3.9429	-0.7665	25.89	-0.06	-0.750			
0.1380	8830.01	3.9400	3.9400	-0.7632	25.89	-0.06	-0.750			
0.1403	8977.47	3.9370	3.9370	-0.7576	25.89	-0.06	-0.750			
0.1426	9125.63	3.9340	3.9340	-0.7594	25.89	-0.06	-0.750			
0.1448	9268.58	3.9310	3.9312	-0.7533	25.89	-0.06	-0.750			
0.1470	9409.17	3.9280	3.9280	-0.7570	25.89	-0.06	-0.750			
0.1493	9554.65	3.9250	3.9249	-0.7607	25.90	-0.05	-0.750			
0.1516	9699.51	3.9220	3.9220	-0.7643	25.90	-0.05	-0.750			
0.1539	9849.00	3.9190	3.9190	-0.7701	25.91	-0.04	-0.750			
0.1563	10000.87	3.9160	3.9160	-0.7807	25.91	-0.04	-0.750			
0.1586	10149.89	3.9130	3.9130	-0.7795	25.91	-0.04	-0.750			
0.1609	10297.59	3.9100	3.9099	-0.7790	25.91	-0.04	-0.750			
0.1632	10446.89	3.9070	3.9071	-0.7819	25.92	-0.03	-0.750			
0.1656	10597.25	3.9040	3.9039	-0.7859	25.92	-0.03	-0.750			
0.1680	10751.24	3.9010	3.9010	-0.7883	25.92	-0.03	-0.750			
0.1704	10903.20	3.8980	3.8980	-0.7879	25.92	-0.03	-0.750			
0.1727	11052.57	3.8950	3.8951	-0.7923	25.92	-0.03	-0.750			
0.1751	11205.67	3.8920	3.8920	-0.7940	25.92	-0.03	-0.750			
0.1775	11358.98	3.8890	3.8889	-0.7894	25.93	-0.02	-0.750			
0.1799	11511.05	3.8860	3.8860	-0.7875	25.93	-0.02	-0.750			
0.1822	11661.82	3.8830	3.8831	-0.7918	25.93	-0.02	-0.750			
0.1846	11813.45	3.8800	3.8801	-0.7950	25.93	-0.02	-0.750			
0.1870	11965.10	3.8770	3.8768	-0.7978	25.94	-0.01	-0.750			
0.1894	12118.98	3.8740	3.8740	-0.7958	25.94	-0.01	-0.750			
0.1918	12273.59	3.8710	3.8710	-0.8004	25.95	-0.00	-0.750			
0.1942	12428.06	3.8680	3.8682	-0.7993	25.95	0.00	-0.750			
0.1966	12582.43	3.8650	3.8649	-0.7969	25.95	0.00	-0.750			
0.1990	12733.46	3.8620	3.8620	-0.7986	25.96	0.01	-0.750			
0.2013	12885.81	3.8590	3.8590	-0.7963	25.96	0.01	-0.750			
0.2038	13040.19	3.8560	3.8559	-0.8012	25.97	0.02	-0.750			
0.2062	13194.66	3.8530	3.8531	-0.8008	25.97	0.02	-0.750			
0.2086	13348.56	3.8500	3.8500	-0.7968	25.97	0.02	-0.750			
0.2109	13500.19	3.8470	3.8470	-0.7996	25.97	0.02	-0.750			
0.2133	13653.24	3.8440	3.8440	-0.7972	25.98	0.03	-0.750			
0.2157	13805.81	3.8410	3.8409	-0.7958	25.98	0.03	-0.750			
0.2181	13960.43	3.8380	3.8380	-0.7996	25.98	0.03	-0.750			
0.2205	14114.07	3.8350	3.8351	-0.7955	25.98	0.03	-0.750			
0.2229	14267.75	3.8320	3.8319	-0.7950	25.99	0.04	-0.750			
0.2253	14419.99	3.8290	3.8289	-0.7925	25.99	0.04	-0.750			
0.2276	14569.18	3.8260	3.8260	-0.7872	26.00	0.05	-0.750			
0.2300	14721.42	3.8230	3.8231	-0.7908	26.01	0.06	-0.750			
0.2324	14874.72	3.8200	3.8199	-0.7846	26.01	0.06	-0.750			
0.2348	15025.08	3.8170	3.8170	-0.7770	26.02	0.07	-0.750			
0.2371	15173.39	3.8140	3.8141	-0.7846	26.02	0.07	-0.750			
0.2394	15324.19	3.8110	3.8109	-0.7786	26.02	0.07	-0.750			
0.2418	15474.07	3.8080	3.8078	-0.7739	26.03	0.08	-0.750			
0.2441	15622.51	3.8050	3.8054	-0.7710	26.03	0.08	-0.750			
0.2464	15770.57	3.8020	3.8020	-0.7684	26.03	0.08	-0.750			
0.2487	15918.06	3.7990	3.7989	-0.7698	26.04	0.09	-0.750			
0.2510	16064.64	3.7960	3.7960	-0.7622	26.04	0.09	-0.750			
0.2533	16210.04	3.7930	3.7930	-0.7621	26.04	0.09	-0.750			
0.2556	16358.99	3.7900	3.7898	-0.7521	26.05	0.10	-0.750			
0.2579	16503.64	3.7870	3.7871	-0.7445	26.05	0.10	-0.750			
0.2601	16644.22	3.7840	3.7840	-0.7335	26.05	0.10	-0.750			
0.2622	16781.60	3.7810	3.7811	-0.7317	26.05	0.10	-0.750			
0.2644	16920.31	3.7780	3.7779	-0.7239	26.06	0.11	-0.750			
0.2666	17061.21	3.7750	3.7748	-0.7246	26.06	0.11	-0.750			
0.2687	17199.64	3.7720	3.7722	-0.7250	26.06	0.11	-0.750			
0.2709	17340.03	3.7690	3.7690	-0.7320	26.06	0.11	-0.750			
0.2731	17481.41	3.7660	3.7659	-0.7303	26.06	0.11	-0.750			
0.2754	17624.04	3.7630	3.7629	-0.7335	26.06	0.11	-0.750			
0.2775	17761.38	3.7600	3.7601	-0.7358	26.07	0.12	-0.750			
0.2798	17905.58	3.7570	3.7569	-0.7503	26.07	0.12	-0.750			
0.2820	18049.77	3.7540	3.7541	-0.7542	26.07	0.12	-0.750			
0.2843	18193.57	3.7510	3.7508	-0.7577	26.07	0.12	-0.750			
0.2866	18339.91	3.7480	3.7481	-0.7657	26.08	0.13	-0.750			
0.2889	18487.59	3.7450	3.7450	-0.7700	26.08	0.13	-0.750			
0.2913	18640.91	3.7420	3.7419	-0.7837	26.09	0.14	-0.750			
0.2936	18789.90	3.7390	3.7389	-0.7827	26.09	0.14	-0.750			
0.2959	18938.02	3.7360	3.7359	-0.7860	26.09	0.14	-0.750			
0.2983	19089.57	3.7330	3.7329	-0.7993	26.09	0.14	-0.750			
0.3007	19242.40	3.7300	3.7300	-0.8042	26.10	0.15	-0.750			
0.3031	19396.66	3.7270	3.7270	-0.8136	26.10	0.15	-0.750			
0.3056	19556.77	3.7240	3.7240	-0.8260	26.10	0.15	-0.750			
0.3081	19716.05	3.7210	3.7209	-0.8394	26.10	0.15	-0.750			
0.3106	19876.52	3.7180	3.7180	-0.8532	26.10	0.15	-0.750			
0.3131	20041.60	3.7150	3.7150	-0.8687	26.10	0.15	-0.750			
0.3158	20208.89	3.7120	3.7120	-0.8824	26.10	0.15	-0.750			
0.3185	20381.58	3.7090	3.7089	-0.9026	26.10	0.15	-0.750			
0.3212	20555.25	3.7060	3.7060	-0.9215	26.10	0.15	-0.750			
0.3240	20735.61	3.7030	3.7029	-0.9343	26.10	0.15	-0.750			
0.3268	20915.61	3.7000	3.7000	-0.9486	26.10	0.15	-0.750			
0.3297	21099.03	3.6970	3.6970	-0.9621	26.10	0.15	-0.750			
0.3326	21285.03	3.6940	3.6941	-0.9838	26.10	0.15	-0.750			
0.3356	21476.12	3.6910	3.6909	-0.9977	26.10	0.15	-0.750			
0.3386	21667.71	3.6880	3.6880	-1.0071	26.09	0.14	-0.750			
0.3416	21860.05	3.6850	3.6851	-1.0254	26.09	0.14	-0.750			
0.3447	22059.06	3.6820	3.6822	-1.0561	26.09	0.14	-0.750			
0.3479	22263.42	3.6790	3.6787	-1.0744	26.08	0.13	-0.750			
0.3512	22473.64	3.6760	3.6760	-1.0980	26.08	0.13	-0.750			
0.3545	22686.86	3.6730	3.6729	-1.1161	26.07	0.12	-0.750			
0.3579	22906.66	3.6700	3.6701	-1.1484	26.07	0.12	-0.750			
0.3614	23130.67	3.6670	3.6670	-1.1627	26.06	0.11	-0.750			
0.3649	23352.38	3.6640	3.6640	-1.1771	26.06	0.11	-0.750			
0.3684	23577.25	3.6610	3.6610	-1.1970	26.05	0.10	-0.750			
0.3721	23812.25	3.6580	3.6579	-1.2214	26.05	0.10	-0.750			
0.3758	24048.69	3.6550	3.6550	-1.2419	26.04	0.09	-0.750			
0.3794	24283.90	3.6520	3.6520	-1.2819	26.04	0.09	-0.750			
0.3834	24536.01	3.6490	3.6489	-1.2967	26.04	0.09	-0.750			
0.3874	24791.64	3.6460	3.6459	-1.3283	26.04	0.09	-0.750			
0.3913	25045.58	3.6430	3.6430	-1.3627	26.03	0.08	-0.750			
0.3955	25311.78	3.6400	3.6401	-1.3822	26.03	0.08	-0.750			
0.3997	25582.01	3.6370	3.6368	-1.4083	26.02	0.07	-0.750			
0.4040	25852.85	3.6340	3.6339	-1.4338	26.01	0.06	-0.750			
0.4083	26128.99	3.6310	3.6310	-1.4497	26.01	0.06	-0.750			
0.4127	26413.42	3.6280	3.6279	-1.4901	26.01	0.06	-0.750			
0.4171	26691.56	3.6250	3.6251	-1.5424	26.00	0.05	-0.750			
0.4219	27000.75	3.6220	3.6218	-1.5574	26.00	0.05	-0.750			
0.4267	27311.84	3.6190	3.6186	-1.5905	25.99	0.04	-0.750			
0.4316	27619.60	3.6160	3.6161	-1.6139	25.99	0.04	-0.750			
0.4364	27927.40	3.6130	3.6129	-1.6465	25.98	0.03	-0.750	0.402	0.550	
0.4414	28251.13	3.6100	3.6098	-1.6665	25.97	0.02	-0.750			
0.4464	28567.62	3.6070	3.6070	-1.6847	25.97	0.02	-0.750			
0.4514	28886.53	3.6040	3.6041	-1.7308	25.97	0.02	-0.750			
0.4567	29227.64	3.6010	3.6012	-1.7866	25.97	0.02	-0.750			
0.4621	29572.31	3.5980	3.5981	-1.8153	25.96	0.01	-0.750			
0.4675	29920.80	3.5950	3.5950	-1.8356	25.95	0.00	-0.750			
0.4731	30275.90	3.5920	3.5921	-1.8716	25.95	-0.00	-0.750			
0.4788	30640.92	3.5890	3.5888	-1.9243	25.94	-0.01	-0.750			
0.4846	31015.85	3.5860	3.5857	-1.9353	25.94	-0.01	-0.750			
0.4905	31390.88	3.5830	3.5830	-1.9708	25.94	-0.01	-0.750			
0.4964	31772.08	3.5800	3.5801	-2.0177	25.94	-0.01	-0.750			
0.5025	32163.05	3.5770	3.5768	-2.0501	25.93	-0.02	-0.750			
0.5088	32564.92	3.5740	3.5742	-2.0813	25.93	-0.02	-0.750			
0.5152	32969.96	3.5710	3.5711	-2.1080	25.93	-0.02	-0.750			
0.5216	33379.44	3.5680	3.5679	-2.1285	25.93	-0.02	-0.750			
0.5280	33795.18	3.5650	3.5652	-2.1238	25.93	-0.02	-0.750			
0.5344	34200.95	3.5620	3.5620	-2.1476	25.93	-0.02	-0.750			
0.5408	34610.80	3.5590	3.5591	-2.1358	25.93	-0.02	-0.750			
0.5472	35019.52	3.5560	3.5558	-2.1328	25.93	-0.02	-0.750			
0.5537	35434.87	3.5530	3.5532	-2.1536	25.95	-0.00	-0.750			
0.5601	35845.42	3.5500	3.5497	-2.1526	25.95	0.00	-0.750			
0.5667	36269.43	3.5470	3.5470	-2.1430	25.95	0.00	-0.750			
0.5731	36679.07	3.5440	3.5440	-2.1089	25.95	0.00	-0.750			
0.5793	37076.71	3.5410	3.5411	-2.1038	25.95	0.00	-0.750			
0.5856	37480.98	3.5380	3.5381	-2.0648	25.95	0.00	-0.750			
0.5918	37874.38	3.5350	3.5349	-2.0596	25.95	0.00	-0.750			
0.5979	38265.26	3.5320	3.5322	-2.0397	25.96	0.01	-0.750			
0.6041	38659.70	3.5290	3.5288	-2.0084	25.97	0.02	-0.750			
0.6102	39052.78	3.5260	3.5260	-2.0149	25.98	0.03	-0.750			
0.6161	39431.74	3.5230	3.5230	-1.9461	25.99	0.04	-0.750			
0.6219	39802.41	3.5200	3.5201	-1.8909	25.99	0.04	-0.750			
0.6276	40163.98	3.5170	3.5172	-1.8567	26.00	0.05	-0.750			
0.6330	40514.79	3.5140	3.5141	-1.8042	26.00	0.05	-0.750			
0.6384	40854.57	3.5110	3.5110	-1.7827	26.02	0.07	-0.750			
0.6437	41195.69	3.5080	3.5083	-1.7348	26.03	0.08	-0.750			
0.6489	41530.96	3.5050	3.5050	-1.6802	26.04	0.09	-0.750			
0.6539	41849.07	3.5020	3.5020	-1.6272	26.05	0.10	-0.750			
0.6587	42155.93	3.4990	3.4987	-1.5647	26.06	0.11	-0.750			
0.6632	42445.77	3.4960	3.4960	-1.5070	26.08	0.13	-0.750			
0.6676	42725.57	3.4930	3.4929	-1.4520	26.09	0.14	-0.750			
0.6718	42997.19	3.4900	3.4900	-1.4077	26.11	0.16	-0.750			
0.6760	43263.87	3.4870	3.4870	-1.3674	26.12	0.17	-0.750			
0.6801	43526.53	3.4840	3.4840	-1.3390	26.14	0.19	-0.750			
0.6840	43778.42	3.4810	3.4810	-1.2895	26.15	0.20	-0.750			
0.6879	44025.10	3.4780	3.4780	-1.2528	26.17	0.22	-0.750			
0.6916	44259.71	3.4750	3.4749	-1.2114	26.18	0.23	-0.750			
0.6951	44487.70	3.4720	3.4720	-1.1753	26.19	0.24	-0.750			
0.6986	44709.20	3.4690	3.4690	-1.1417	26.21	0.26	-0.750			
0.7020	44925.55	3.4660	3.4659	-1.1032	26.23	0.28	-0.750			
0.7052	45132.22	3.4630	3.4630	-1.0737	26.24	0.29	-0.750			
0.7084	45338.39	3.4600	3.4598	-1.0459	26.26	0.31	-0.750			
0.7115	45535.71	3.4570	3.4569	-1.0166	26.27	0.32	-0.750			
0.7145	45728.36	3.4540	3.4540	-0.9789	26.28	0.33	-0.750			
0.7174	45912.19	3.4510	3.4510	-0.9425	26.28	0.33	-0.750			
0.7202	46092.73	3.4480	3.4480	-0.9173	26.30	0.35	-0.750			
0.7229	46262.53	3.4450	3.4451	-0.8955	26.31	0.36	-0.750			
0.7254	46428.19	3.4420	3.4419	-0.8742	26.32	0.37	-0.750			
0.7280	46590.28	3.4390	3.4390	-0.8607	26.33	0.38	-0.750			
0.7306	46756.20	3.4360	3.4360	-0.8614	26.35	0.40	-0.750			
0.7332	46922.51	3.4330	3.4329	-0.8635	26.36	0.41	-0.750			
0.7357	47086.86	3.4300	3.4300	-0.8674	26.36	0.41	-0.750			
0.7383	47252.58	3.4270	3.4269	-0.8711	26.37	0.42	-0.750			
0.7409	47418.94	3.4240	3.4240	-0.8815	26.38	0.43	-0.750			
0.7436	47590.64	3.4210	3.4210	-0.8927	26.39	0.44	-0.750			
0.7463	47762.88	3.4180	3.4179	-0.9053	26.40	0.45	-0.750			
0.7490	47938.52	3.4150	3.4151	-0.9165	26.41	0.46	-0.750			
0.7518	48116.96	3.4120	3.4120	-0.9195	26.41	0.46	-0.750			
0.7546	48293.80	3.4090	3.4090	-0.9202	26.42	0.47	-0.750			
0.7574	48472.72	3.4060	3.4060	-0.9184	26.43	0.48	-0.750			
0.7601	48649.20	3.4030	3.4029	-0.9114	26.44	0.49	-0.750			
0.7629	48827.31	3.4000	3.3999	-0.8990	26.45	0.50	-0.750			
0.7656	48997.91	3.3970	3.3971	-0.8783	26.46	0.51	-0.750			
0.7682	49166.91	3.3940	3.3941	-0.8573	26.47	0.52	-0.750			
0.7708	49329.77	3.3910	3.3910	-0.8319	26.47	0.52	-0.750			
0.7732	49485.26	3.3880	3.3880	-0.8044	26.48	0.53	-0.750			
0.7756	49637.23	3.3850	3.3850	-0.7743	26.49	0.54	-0.750			
0.7779	49782.40	3.3820	3.3820	-0.7466	26.49	0.54	-0.750			
0.7801	49924.72	3.3790	3.3790	-0.7267	26.50	0.55	-0.750			
0.7822	50060.68	3.3760	3.3761	-0.6976	26.50	0.55	-0.750			
0.7843	50192.65	3.3730	3.3729	-0.6754	26.51	0.56	-0.750			
0.7862	50319.44	3.3700	3.3700	-0.6513	26.51	0.56	-0.750			
0.7881	50441.38	3.3670	3.3671	-0.6280	26.52	0.57	-0.750			
0.7900	50561.36	3.3640	3.3639	-0.6078	26.53	0.58	-0.750			
0.7918	50675.08	3.3610	3.3610	-0.5833	26.53	0.58	-0.750			
0.7935	50784.16	3.3580	3.3580	-0.5646	26.54	0.59	-0.750			
0.7952	50891.16	3.3550	3.3550	-0.5462	26.54	0.59	-0.750			
0.7968	50993.63	3.3520	3.3519	-0.5274	26.55	0.60	-0.750			
0.7983	51092.39	3.3490	3.3490	-0.5101	26.56	0.61	-0.750			
0.7998	51188.72	3.3460	3.3460	-0.4959	26.56	0.61	-0.750			
0.8013	51283.01	3.3430	3.3430	-0.4799	26.57	0.62	-0.750			
0.8027	51373.79	3.3400	3.3399	-0.4669	26.57	0.62	-0.750			
0.8041	51461.92	3.3370	3.3370	-0.4503	26.58	0.63	-0.750			
0.8054	51547.71	3.3340	3.3339	-0.4351	26.59	0.64	-0.750			
0.8067	51629.25	3.3310	3.3312	-0.4207	26.59	0.64	-0.750			
0.8079	51708.22	3.3280	3.3279	-0.4054	26.60	0.65	-0.750			
0.8091	51784.02	3.3250	3.3250	-0.3943	26.60	0.65	-0.750			
0.8103	51858.29	3.3220	3.3220	-0.3829	26.61	0.66	-0.750			
0.8114	51931.07	3.3190	3.3189	-0.3723	26.62	0.67	-0.750			
0.8125	52001.53	3.3160	3.3160	-0.3625	26.62	0.67	-0.750			
0.8136	52069.80	3.3130	3.3130	-0.3537	26.63	0.68	-0.750			
0.8146	52136.39	3.3100	3.3100	-0.3435	26.64	0.69	-0.750			
0.8156	52201.36	3.3070	3.3069	-0.3355	26.64	0.69	-0.750			
0.8166	52264.76	3.3040	3.3041	-0.3254	26.65	0.70	-0.750			
0.8176	52326.82	3.3010	3.3010	-0.3191	26.65	0.70	-0.750			
0.8186	52387.22	3.2980	3.2979	-0.3120	26.66	0.71	-0.750			
0.8195	52445.56	3.2950	3.2950	-0.3041	26.66	0.71	-0.750			
0.8204	52503.20	3.2920	3.2920	-0.2989	26.67	0.72	-0.750			
0.8213	52560.51	3.2890	3.2890	-0.2934	26.67	0.72	-0.750			
0.8221	52616.45	3.2860	3.2860	-0.2874	26.68	0.73	-0.750			
0.8230	52671.52	3.2830	3.2830	-0.2821	26.68	0.73	-0.750			
0.8238	52724.74	3.2800	3.2800	-0.2747	26.69	0.74	-0.750			
0.8246	52776.94	3.2770	3.2770	-0.2687	26.69	0.74	-0.750			
0.8254	52827.23	3.2740	3.2741	-0.2623	26.70	0.75	-0.750			
0.8262	52876.94	3.2710	3.2710	-0.2573	26.70	0.75	-0.750			
0.8270	52926.28	3.2680	3.2680	-0.2528	26.70	0.75	-0.750			
0.8277	52973.84	3.2650	3.2650	-0.2479	26.71	0.76	-0.750			
0.8285	53020.90	3.2620	3.2620	-0.2446	26.71	0.76	-0.750			
0.8292	53067.65	3.2590	3.2590	-0.2404	26.72	0.77	-0.750			
0.8299	53113.33	3.2560	3.2559	-0.2363	26.72	0.77	-0.750			
0.8306	53158.32	3.2530	3.2530	-0.2330	26.72	0.77	-0.750			
0.8313	53202.72	3.2500	3.2500	-0.2296	26.73	0.78	-0.750			
0.8320	53246.74	3.2470	3.2470	-0.2260	26.73	0.78	-0.750			
0.8327	53290.03	3.2440	3.2439	-0.2222	26.74	0.79	-0.750			
0.8333	53331.72	3.2410	3.2410	-0.2188	26.74	0.79	-0.750			
0.8340	53373.19	3.2380	3.2381	-0.2163	26.75	0.80	-0.750			
0.8346	53414.90	3.2350	3.2349	-0.2140	26.76	0.81	-0.750			
0.8352	53455.69	3.2320	3.2319	-0.2109	26.76	0.81	-0.750			
0.8359	53495.41	3.2290	3.2291	-0.2100	26.77	0.82	-0.750			
0.8365	53535.50	3.2260	3.2261	-0.2084	26.77	0.82	-0.750			
0.8371	53575.92	3.2230	3.2228	-0.2066	26.78	0.83	-0.750			
0.8377	53615.35	3.2200	3.2199	-0.2042	26.78	0.83	-0.750			
0.8384	53654.48	3.2170	3.2172	-0.2007	26.79	0.84	-0.750			
0.8390	53693.05	3.2140	3.2141	-0.1977	26.79	0.84	-0.750			
0.8395	53730.89	3.2110	3.2109	-0.1950	26.80	0.85	-0.750			
0.8401	53767.90	3.2080	3.2080	-0.1906	26.80	0.85	-0.750			
0.8407	53803.27	3.2050	3.2050	-0.1877	26.81	0.86	-0.750			
0.8412	53838.84	3.2020	3.2020	-0.1855	26.81	0.86	-0.750			
0.8418	53874.66	3.1990	3.1989	-0.1832	26.81	0.86	-0.750			
0.8423	53909.60	3.1960	3.1960	-0.1808	26.82	0.87	-0.750			
0.8429	53944.20	3.1930	3.1931	-0.1784	26.82	0.87	-0.750			
0.8434	53978.23	3.1900	3.1901	-0.1762	26.83	0.88	-0.750			
0.8439	54011.35	3.1870	3.1870	-0.1743	26.83	0.88	-0.750			
0.8444	54044.67	3.1840	3.1839	-0.1728	26.83	0.88	-0.750			
0.8450	54077.31	3.1810	3.1810	-0.1706	26.84	0.89	-0.750			
0.8455	54110.02	3.1780	3.1780	-0.1690	26.85	0.90	-0.750			
0.8460	54142.71	3.1750	3.1750	-0.1683	26.85	0.90	-0.750			
0.8465	54174.68	3.1720	3.1721	-0.1675	26.86	0.91	-0.750			
0.8470	54206.87	3.1690	3.1690	-0.1654	26.87	0.92	-0.750			
0.8475	54238.48	3.1660	3.1660	-0.1637	26.87	0.92	-0.750			
0.8480	54269.47	3.1630	3.1630	-0.1613	26.88	0.93	-0.750			
0.8484	54300.36	3.1600	3.1602	-0.1597	26.88	0.93	-0.750			
0.8489	54331.07	3.1570	3.1569	-0.1585	26.89	0.94	-0.750			
0.8494	54361.09	3.1540	3.1541	-0.1572	26.90	0.95	-0.750			
0.8499	54391.14	3.1510	3.1510	-0.1559	26.90	0.95	-0.750			
0.8503	54420.66	3.1480	3.1479	-0.1540	26.91	0.96	-0.750			
0.8508	54450.50	3.1450	3.1449	-0.1529	26.91	0.96	-0.750			
0.8512	54479.67	3.1420	3.1421	-0.1514	26.92	0.97	-0.750			
0.8517	54508.57	3.1390	3.1391	-0.1497	26.92	0.97	-0.750			
0.8521	54537.16	3.1360	3.1359	-0.1487	26.93	0.98	-0.750			
0.8526	54565.53	3.1330	3.1330	-0.1470	26.93	0.98	-0.750			
0.8530	54593.37	3.1300	3.1299	-0.1455	26.94	0.99	-0.750			
0.8535	54621.23	3.1270	3.1271	-0.1447	26.94	0.99	-0.750			
0.8539	54649.16	3.1240	3.1240	-0.1432	26.95	1.00	-0.750			
0.8543	54676.50	3.1210	3.1210	-0.1421	26.95	1.00	-0.750			
0.8547	54703.55	3.1180	3.1180	-0.1409	26.96	1.01	-0.750			
0.8552	54730.49	3.1150	3.1151	-0.1397	26.96	1.01	-0.750			
0.8556	54757.04	3.1120	3.1119	-0.1388	26.97	1.02	-0.750			
0.8560	54783.83	3.1090	3.1090	-0.1378	26.97	1.02	-0.750			
0.8564	54810.11	3.1060	3.1060	-0.1365	26.98	1.03	-0.750			
0.8568	54836.24	3.1030	3.1029	-0.1354	26.98	1.03	-0.750			
0.8572	54862.40	3.1000	3.1000	-0.1344	26.99	1.04	-0.750			
0.8576	54887.89	3.0970	3.0971	-0.1334	27.00	1.05	-0.750			
0.8580	54913.30	3.0940	3.0939	-0.1323	27.00	1.05	-0.750			
0.8584	54938.63	3.0910	3.0910	-0.1315	27.01	1.06	-0.750			
0.8588	54963.67	3.0880	3.0880	-0.1305	27.01	1.06	-0.750			
0.8592	54988.74	3.0850	3.0851	-0.1295	27.02	1.07	-0.750			
0.8596	55013.72	3.0820	3.0820	-0.1288	27.03	1.08	-0.750			
0.8600	55038.35	3.0790	3.0791	-0.1278	27.03	1.08	-0.750			
0.8604	55062.79	3.0760	3.0760	-0.1267	27.04	1.09	-0.750			
0.8607	55086.97	3.0730	3.0729	-0.1256	27.04	1.09	-0.750			
0.8611	55110.93	3.0700	3.0701	-0.1248	27.05	1.10	-0.750			
0.8615	55134.81	3.0670	3.0670	-0.1239	27.06	1.11	-0.750			
0.8618	55158.35	3.0640	3.0639	-0.1236	27.06	1.11	-0.750			
0.8622	55182.23	3.0610	3.0610	-0.1228	27.07	1.12	-0.750			
0.8626	55205.73	3.0580	3.0580	-0.1220	27.07	1.12	-0.750			
0.8630	55229.05	3.0550	3.0549	-0.1214	27.08	1.13	-0.750			
0.8633	55252.29	3.0520	3.0520	-0.1207	27.08	1.13	-0.750			
0.8637	55275.52	3.0490	3.0489	-0.1200	27.09	1.14	-0.750			
0.8640	55298.45	3.0460	3.0460	-0.1191	27.09	1.14	-0.750			
0.8644	55321.26	3.0430	3.0430	-0.1182	27.10	1.15	-0.750			
0.8647	55343.72	3.0400	3.0400	-0.1171	27.11	1.16	-0.750			
0.8651	55366.15	3.0370	3.0371	-0.1164	27.11	1.16	-0.750			
0.8654	55388.63	3.0340	3.0340	-0.1158	27.12	1.17	-0.750			
0.8658	55410.69	3.0310	3.0309	-0.1152	27.12	1.17	-0.750			
0.8661	55432.53	3.0280	3.0280	-0.1143	27.13	1.18	-0.750			
0.8665	55454.43	3.0250	3.0248	-0.1139	27.13	1.18	-0.750			
0.8668	55476.21	3.0220	3.0221	-0.1134	27.14	1.19	-0.750			
0.8672	55498.03	3.0190	3.0190	-0.1128	27.14	1.19	-0.750			
0.8675	55519.72	3.0160	3.0160	-0.1123	27.15	1.20	-0.750			
0.8678	55541.22	3.0130	3.0130	-0.1116	27.15	1.20	-0.750			
0.8682	55562.66	3.0100	3.0099	-0.1108	27.16	1.21	-0.750			
0.8685	55583.86	3.0070	3.0071	-0.1100	27.16	1.21	-0.751			
0.8688	55604.88	3.0040	3.0039	-0.1084	27.17	1.22	-0.751			
