Ah_balance (normalized)	Ah_balance (mAh)	Voltage - fit (V)	Voltage -  interpolate (V)	dQ/dV (1/V)	Temperature (°C)	Temperature - diff (°C)	Current (C)	R_DC 0ms (mOhm)	R_DC 50ms (mOhm)	R_DC 50 ms PEC (mOhm)
0.0003	18.74	4.1560	4.1558	-0.0967	25.22	0.00	-0.750			
0.0007	43.37	4.1530	4.1528	-0.1440	25.22	0.00	-0.750			
0.0012	75.96	4.1500	4.1498	-0.1817	25.22	0.00	-0.750			
0.0018	114.52	4.1470	4.1470	-0.2165	25.22	0.00	-0.750			
0.0025	160.02	4.1440	4.1440	-0.2486	25.22	-0.00	-0.750			
0.0033	212.35	4.1410	4.1410	-0.2815	25.22	-0.00	-0.750			
0.0042	269.00	4.1380	4.1380	-0.3121	25.22	-0.00	-0.750			
0.0052	331.33	4.1350	4.1351	-0.3417	25.21	-0.01	-0.750			
0.0063	400.35	4.1320	4.1319	-0.3717	25.21	-0.01	-0.750			
0.0074	474.77	4.1290	4.1290	-0.4005	25.21	-0.01	-0.750			
0.0087	555.06	4.1260	4.1260	-0.4262	25.21	-0.01	-0.750			
0.0100	640.23	4.1230	4.1230	-0.4496	25.21	-0.01	-0.750			
0.0114	729.43	4.1200	4.1201	-0.4735	25.20	-0.02	-0.750			
0.0128	822.22	4.1170	4.1170	-0.4914	25.20	-0.02	-0.750			
0.0144	918.56	4.1140	4.1141	-0.5108	25.20	-0.02	-0.750			
0.0159	1019.07	4.1110	4.1110	-0.5268	25.20	-0.02	-0.750			
0.0175	1121.66	4.1080	4.1079	-0.5441	25.20	-0.02	-0.750			
0.0192	1228.45	4.1050	4.1051	-0.5570	25.19	-0.03	-0.750			
0.0209	1336.29	4.1020	4.1020	-0.5698	25.19	-0.03	-0.750			
0.0226	1447.69	4.0990	4.0990	-0.5792	25.19	-0.03	-0.750			
0.0244	1560.69	4.0960	4.0959	-0.5892	25.18	-0.04	-0.750			
0.0262	1674.20	4.0930	4.0930	-0.5981	25.18	-0.04	-0.750			
0.0280	1790.18	4.0900	4.0900	-0.6073	25.18	-0.04	-0.750			
0.0298	1907.63	4.0870	4.0870	-0.6106	25.18	-0.04	-0.750			
0.0316	2025.57	4.0840	4.0840	-0.6205	25.18	-0.04	-0.750			
0.0335	2144.69	4.0810	4.0811	-0.6294	25.19	-0.03	-0.750			
0.0354	2267.29	4.0780	4.0778	-0.6367	25.19	-0.03	-0.750			
0.0373	2390.15	4.0750	4.0749	-0.6427	25.19	-0.03	-0.750			
0.0393	2514.50	4.0720	4.0722	-0.6465	25.19	-0.03	-0.750			
0.0412	2639.81	4.0690	4.0689	-0.6531	25.19	-0.03	-0.750			
0.0432	2766.05	4.0660	4.0659	-0.6583	25.19	-0.03	-0.750			
0.0452	2890.77	4.0630	4.0630	-0.6623	25.19	-0.03	-0.750			
0.0472	3019.49	4.0600	4.0600	-0.6678	25.20	-0.02	-0.750			
0.0492	3150.65	4.0570	4.0569	-0.6720	25.20	-0.02	-0.750			
0.0513	3280.04	4.0540	4.0540	-0.6713	25.20	-0.02	-0.750			
0.0533	3409.21	4.0510	4.0509	-0.6736	25.20	-0.02	-0.750			
0.0553	3537.24	4.0480	4.0479	-0.6740	25.20	-0.02	-0.750			
0.0573	3664.74	4.0450	4.0450	-0.6763	25.20	-0.02	-0.750			
0.0593	3794.03	4.0420	4.0420	-0.6797	25.21	-0.01	-0.750			
0.0614	3927.91	4.0390	4.0390	-0.6883	25.21	-0.01	-0.750			
0.0635	4061.00	4.0360	4.0360	-0.6910	25.21	-0.01	-0.750			
0.0656	4195.25	4.0330	4.0330	-0.6925	25.21	-0.01	-0.750			
0.0676	4327.61	4.0300	4.0300	-0.6912	25.21	-0.01	-0.750			
0.0697	4458.57	4.0270	4.0271	-0.6911	25.21	-0.01	-0.750			
0.0717	4591.34	4.0240	4.0240	-0.6933	25.22	-0.00	-0.750			
0.0738	4724.16	4.0210	4.0209	-0.6984	25.22	-0.00	-0.750			
0.0759	4859.02	4.0180	4.0180	-0.7018	25.22	-0.00	-0.750			
0.0780	4993.91	4.0150	4.0150	-0.7060	25.22	0.00	-0.750			
0.0802	5131.62	4.0120	4.0120	-0.7099	25.23	0.01	-0.750			
0.0823	5267.77	4.0090	4.0090	-0.7133	25.23	0.01	-0.750			
0.0844	5404.16	4.0060	4.0060	-0.7137	25.24	0.02	-0.750			
0.0866	5542.69	4.0030	4.0030	-0.7142	25.24	0.02	-0.750			
0.0887	5679.55	4.0000	4.0000	-0.7143	25.25	0.03	-0.750			
0.0909	5817.21	3.9970	3.9970	-0.7153	25.25	0.03	-0.750			
0.0930	5953.59	3.9940	3.9940	-0.7170	25.26	0.04	-0.750			
0.0952	6091.52	3.9910	3.9909	-0.7187	25.26	0.04	-0.750			
0.0973	6228.98	3.9880	3.9880	-0.7181	25.26	0.04	-0.750			
0.0995	6368.05	3.9850	3.9850	-0.7231	25.27	0.05	-0.750			
0.1017	6507.12	3.9820	3.9820	-0.7272	25.27	0.05	-0.750			
0.1039	6646.69	3.9790	3.9790	-0.7281	25.27	0.05	-0.750			
0.1061	6787.27	3.9760	3.9760	-0.7292	25.28	0.06	-0.750			
0.1082	6927.78	3.9730	3.9730	-0.7360	25.28	0.06	-0.750			
0.1105	7070.29	3.9700	3.9700	-0.7383	25.28	0.06	-0.750			
0.1127	7213.03	3.9670	3.9669	-0.7395	25.29	0.07	-0.750			
0.1149	7354.67	3.9640	3.9642	-0.7399	25.29	0.07	-0.750			
0.1171	7496.59	3.9610	3.9610	-0.7412	25.29	0.07	-0.750			
0.1194	7639.55	3.9580	3.9580	-0.7457	25.29	0.07	-0.750			
0.1216	7782.42	3.9550	3.9550	-0.7457	25.30	0.08	-0.750			
0.1239	7927.96	3.9520	3.9519	-0.7487	25.30	0.08	-0.750			
0.1261	8070.93	3.9490	3.9490	-0.7466	25.30	0.08	-0.750			
0.1283	8214.22	3.9460	3.9459	-0.7480	25.30	0.08	-0.750			
0.1306	8357.02	3.9430	3.9430	-0.7480	25.31	0.09	-0.750			
0.1328	8499.75	3.9400	3.9399	-0.7525	25.31	0.09	-0.750			
0.1351	8645.02	3.9370	3.9370	-0.7533	25.31	0.09	-0.750			
0.1374	8791.73	3.9340	3.9339	-0.7599	25.32	0.10	-0.750			
0.1397	8938.34	3.9310	3.9312	-0.7590	25.32	0.10	-0.750			
0.1419	9083.88	3.9280	3.9280	-0.7592	25.33	0.11	-0.750			
0.1442	9228.98	3.9250	3.9250	-0.7606	25.33	0.11	-0.750			
0.1465	9374.49	3.9220	3.9220	-0.7587	25.34	0.12	-0.750			
0.1488	9521.03	3.9190	3.9190	-0.7654	25.34	0.12	-0.750			
0.1511	9668.05	3.9160	3.9160	-0.7669	25.35	0.13	-0.750			
0.1534	9815.48	3.9130	3.9130	-0.7688	25.35	0.13	-0.750			
0.1557	9963.41	3.9100	3.9100	-0.7764	25.35	0.13	-0.750			
0.1580	10112.45	3.9070	3.9070	-0.7765	25.35	0.13	-0.750			
0.1603	10261.71	3.9040	3.9040	-0.7810	25.36	0.14	-0.750			
0.1627	10413.45	3.9010	3.9010	-0.7838	25.36	0.14	-0.750			
0.1651	10564.06	3.8980	3.8982	-0.7820	25.36	0.14	-0.750			
0.1674	10714.97	3.8950	3.8949	-0.7806	25.36	0.14	-0.750			
0.1698	10864.60	3.8920	3.8920	-0.7797	25.37	0.15	-0.750			
0.1721	11013.44	3.8890	3.8889	-0.7771	25.37	0.15	-0.750			
0.1744	11162.94	3.8860	3.8860	-0.7751	25.38	0.16	-0.750			
0.1767	11311.53	3.8830	3.8830	-0.7712	25.38	0.16	-0.750			
0.1790	11458.70	3.8800	3.8800	-0.7750	25.38	0.16	-0.750			
0.1814	11606.55	3.8770	3.8769	-0.7810	25.38	0.16	-0.750			
0.1837	11756.04	3.8740	3.8740	-0.7821	25.39	0.17	-0.750			
0.1860	11906.30	3.8710	3.8710	-0.7869	25.39	0.17	-0.750			
0.1884	12060.55	3.8680	3.8680	-0.7859	25.39	0.17	-0.750			
0.1908	12211.97	3.8650	3.8649	-0.7869	25.39	0.17	-0.750			
0.1932	12362.83	3.8620	3.8620	-0.7851	25.40	0.18	-0.750			
0.1955	12512.28	3.8590	3.8590	-0.7792	25.40	0.18	-0.750			
0.1978	12660.83	3.8560	3.8560	-0.7746	25.41	0.19	-0.750			
0.2002	12810.46	3.8530	3.8530	-0.7742	25.42	0.20	-0.750			
0.2025	12958.00	3.8500	3.8501	-0.7739	25.42	0.20	-0.750			
0.2048	13107.16	3.8470	3.8470	-0.7751	25.42	0.20	-0.750			
0.2071	13255.01	3.8440	3.8440	-0.7725	25.43	0.21	-0.750			
0.2094	13404.19	3.8410	3.8410	-0.7739	25.43	0.21	-0.750			
0.2118	13553.41	3.8380	3.8380	-0.7728	25.44	0.22	-0.750			
0.2141	13701.62	3.8350	3.8349	-0.7705	25.44	0.22	-0.750			
0.2164	13850.15	3.8320	3.8320	-0.7643	25.44	0.22	-0.750			
0.2187	13995.71	3.8290	3.8290	-0.7586	25.45	0.23	-0.750			
0.2209	14140.67	3.8260	3.8260	-0.7546	25.45	0.23	-0.750			
0.2232	14284.64	3.8230	3.8230	-0.7530	25.45	0.23	-0.750			
0.2255	14428.86	3.8200	3.8200	-0.7503	25.46	0.24	-0.750			
0.2277	14572.87	3.8170	3.8170	-0.7480	25.46	0.24	-0.750			
0.2299	14716.65	3.8140	3.8140	-0.7447	25.46	0.24	-0.750			
0.2322	14860.19	3.8110	3.8110	-0.7435	25.47	0.25	-0.750			
0.2344	15002.07	3.8080	3.8080	-0.7395	25.47	0.25	-0.750			
0.2366	15143.65	3.8050	3.8050	-0.7363	25.48	0.26	-0.750			
0.2388	15285.21	3.8020	3.8019	-0.7298	25.48	0.26	-0.750			
0.2410	15425.14	3.7990	3.7989	-0.7257	25.48	0.26	-0.750			
0.2432	15563.70	3.7960	3.7961	-0.7212	25.48	0.26	-0.750			
0.2453	15701.12	3.7930	3.7930	-0.7199	25.48	0.26	-0.750			
0.2475	15837.70	3.7900	3.7899	-0.7147	25.48	0.26	-0.750			
0.2496	15976.22	3.7870	3.7870	-0.7110	25.48	0.26	-0.750			
0.2518	16112.46	3.7840	3.7841	-0.7107	25.48	0.26	-0.750			
0.2539	16249.36	3.7810	3.7810	-0.7135	25.48	0.26	-0.750			
0.2560	16385.84	3.7780	3.7779	-0.7086	25.49	0.27	-0.750			
0.2581	16520.40	3.7750	3.7750	-0.7094	25.49	0.27	-0.750			
0.2603	16657.15	3.7720	3.7720	-0.7084	25.49	0.27	-0.750			
0.2624	16793.85	3.7690	3.7690	-0.7132	25.50	0.28	-0.750			
0.2645	16930.85	3.7660	3.7662	-0.7155	25.50	0.28	-0.750			
0.2667	17067.73	3.7630	3.7629	-0.7145	25.50	0.28	-0.750			
0.2688	17204.21	3.7600	3.7600	-0.7221	25.51	0.29	-0.750			
0.2710	17343.12	3.7570	3.7570	-0.7271	25.51	0.29	-0.750			
0.2732	17484.36	3.7540	3.7540	-0.7318	25.51	0.29	-0.750			
0.2754	17625.47	3.7510	3.7509	-0.7343	25.52	0.30	-0.750			
0.2776	17765.73	3.7480	3.7481	-0.7352	25.52	0.30	-0.750			
0.2798	17907.08	3.7450	3.7450	-0.7429	25.52	0.30	-0.750			
0.2820	18047.96	3.7420	3.7420	-0.7555	25.52	0.30	-0.750			
0.2843	18192.18	3.7390	3.7388	-0.7653	25.52	0.30	-0.750			
0.2866	18342.14	3.7360	3.7360	-0.7829	25.52	0.30	-0.750			
0.2890	18494.34	3.7330	3.7331	-0.7987	25.52	0.30	-0.750			
0.2914	18651.01	3.7300	3.7300	-0.8128	25.52	0.30	-0.750			
0.2939	18809.07	3.7270	3.7269	-0.8252	25.52	0.30	-0.750			
0.2964	18967.70	3.7240	3.7240	-0.8321	25.53	0.31	-0.750			
0.2989	19128.35	3.7210	3.7210	-0.8389	25.53	0.31	-0.750			
0.3014	19291.14	3.7180	3.7180	-0.8495	25.53	0.31	-0.750			
0.3040	19453.78	3.7150	3.7150	-0.8636	25.53	0.31	-0.750			
0.3065	19618.69	3.7120	3.7119	-0.8754	25.53	0.31	-0.750			
0.3092	19788.27	3.7090	3.7090	-0.8896	25.52	0.30	-0.750			
0.3119	19959.78	3.7060	3.7061	-0.9073	25.52	0.30	-0.750			
0.3146	20137.20	3.7030	3.7030	-0.9269	25.52	0.30	-0.750			
0.3175	20317.91	3.7000	3.6999	-0.9442	25.52	0.30	-0.750			
0.3203	20500.61	3.6970	3.6970	-0.9577	25.52	0.30	-0.750			
0.3232	20685.90	3.6940	3.6940	-0.9689	25.52	0.30	-0.750			
0.3262	20873.80	3.6910	3.6910	-0.9863	25.52	0.30	-0.750			
0.3291	21064.31	3.6880	3.6879	-1.0039	25.51	0.29	-0.750			
0.3321	21256.74	3.6850	3.6850	-1.0157	25.50	0.28	-0.750			
0.3352	21453.96	3.6820	3.6819	-1.0326	25.49	0.27	-0.750			
0.3383	21652.65	3.6790	3.6790	-1.0510	25.48	0.26	-0.750			
0.3415	21858.55	3.6760	3.6760	-1.0708	25.48	0.26	-0.750			
0.3448	22066.70	3.6730	3.6730	-1.0838	25.47	0.25	-0.750			
0.3480	22274.38	3.6700	3.6700	-1.1000	25.47	0.25	-0.750			
0.3514	22487.01	3.6670	3.6671	-1.1187	25.46	0.24	-0.750			
0.3547	22703.85	3.6640	3.6639	-1.1419	25.46	0.24	-0.750			
0.3582	22925.75	3.6610	3.6609	-1.1606	25.46	0.24	-0.750			
0.3617	23150.69	3.6580	3.6580	-1.1765	25.45	0.23	-0.750			
0.3653	23378.43	3.6550	3.6551	-1.2056	25.45	0.23	-0.750			
0.3690	23613.80	3.6520	3.6520	-1.2285	25.45	0.23	-0.750			
0.3727	23850.98	3.6490	3.6489	-1.2441	25.44	0.22	-0.750			
0.3764	24091.27	3.6460	3.6460	-1.2680	25.44	0.22	-0.750			
0.3803	24338.51	3.6430	3.6430	-1.2886	25.43	0.21	-0.750			
0.3842	24586.83	3.6400	3.6400	-1.3095	25.43	0.21	-0.750			
0.3881	24840.47	3.6370	3.6371	-1.3334	25.42	0.20	-0.750			
0.3921	25096.60	3.6340	3.6339	-1.3527	25.42	0.20	-0.750			
0.3963	25361.12	3.6310	3.6309	-1.3760	25.41	0.19	-0.750			
0.4004	25626.86	3.6280	3.6281	-1.4026	25.40	0.18	-0.750			
0.4046	25893.90	3.6250	3.6250	-1.4387	25.40	0.18	-0.750			
0.4090	26175.63	3.6220	3.6219	-1.4718	25.39	0.17	-0.750			
0.4135	26462.22	3.6190	3.6189	-1.4973	25.38	0.16	-0.750			
0.4180	26753.40	3.6160	3.6160	-1.5206	25.37	0.15	-0.750			
0.4227	27050.69	3.6130	3.6129	-1.5603	25.37	0.15	-0.750			
0.4274	27353.84	3.6100	3.6100	-1.5811	25.36	0.14	-0.750	0.392	0.563	
0.4321	27655.51	3.6070	3.6070	-1.6064	25.36	0.14	-0.750			
0.4370	27965.01	3.6040	3.6040	-1.6281	25.35	0.13	-0.750			
0.4420	28284.87	3.6010	3.6009	-1.6668	25.35	0.13	-0.750			
0.4470	28606.13	3.5980	3.5980	-1.7094	25.34	0.12	-0.750			
0.4521	28933.91	3.5950	3.5952	-1.7525	25.34	0.12	-0.750			
0.4574	29276.09	3.5920	3.5921	-1.7804	25.33	0.11	-0.750			
0.4628	29621.92	3.5890	3.5890	-1.8245	25.32	0.10	-0.750			
0.4684	29974.51	3.5860	3.5862	-1.8537	25.32	0.10	-0.750			
0.4740	30338.86	3.5830	3.5828	-1.8881	25.32	0.10	-0.750			
0.4797	30700.91	3.5800	3.5801	-1.9204	25.32	0.10	-0.750			
0.4855	31074.32	3.5770	3.5769	-1.9384	25.31	0.09	-0.750			
0.4914	31449.62	3.5740	3.5740	-1.9707	25.31	0.09	-0.750			
0.4974	31831.29	3.5710	3.5710	-2.0046	25.31	0.09	-0.750			
0.5035	32221.22	3.5680	3.5679	-2.0231	25.31	0.09	-0.750			
0.5096	32612.21	3.5650	3.5651	-2.0410	25.30	0.08	-0.750			
0.5157	33007.12	3.5620	3.5620	-2.0573	25.30	0.08	-0.750			
0.5219	33402.47	3.5590	3.5590	-2.0555	25.30	0.08	-0.750			
0.5281	33801.45	3.5560	3.5560	-2.0656	25.30	0.08	-0.750			
0.5343	34197.38	3.5530	3.5531	-2.0738	25.30	0.08	-0.750			
0.5405	34595.05	3.5500	3.5500	-2.0674	25.30	0.08	-0.750			
0.5468	34996.13	3.5470	3.5470	-2.0811	25.30	0.08	-0.750			
0.5530	35394.39	3.5440	3.5441	-2.0679	25.30	0.08	-0.750			
0.5593	35793.39	3.5410	3.5410	-2.0580	25.31	0.09	-0.750			
0.5655	36190.80	3.5380	3.5381	-2.0402	25.31	0.09	-0.750			
0.5715	36577.19	3.5350	3.5350	-2.0143	25.32	0.10	-0.750			
0.5776	36963.56	3.5320	3.5320	-1.9926	25.32	0.10	-0.750			
0.5835	37343.71	3.5290	3.5290	-1.9679	25.33	0.11	-0.750			
0.5894	37719.05	3.5260	3.5258	-1.9382	25.33	0.11	-0.750			
0.5952	38090.52	3.5230	3.5230	-1.9070	25.33	0.11	-0.750			
0.6008	38452.01	3.5200	3.5201	-1.8777	25.34	0.12	-0.750			
0.6064	38811.29	3.5170	3.5170	-1.8413	25.35	0.13	-0.750			
0.6119	39159.25	3.5140	3.5140	-1.7901	25.36	0.14	-0.750			
0.6172	39503.35	3.5110	3.5110	-1.7576	25.37	0.15	-0.750			
0.6225	39836.88	3.5080	3.5080	-1.7149	25.39	0.17	-0.750			
0.6276	40163.29	3.5050	3.5050	-1.6804	25.40	0.18	-0.750			
0.6325	40482.88	3.5020	3.5021	-1.6262	25.41	0.19	-0.750			
0.6373	40789.70	3.4990	3.4990	-1.5779	25.42	0.20	-0.750			
0.6421	41091.22	3.4960	3.4958	-1.5323	25.43	0.21	-0.750			
0.6465	41378.83	3.4930	3.4930	-1.4836	25.44	0.22	-0.750			
0.6509	41656.18	3.4900	3.4900	-1.4350	25.46	0.24	-0.750			
0.6551	41925.99	3.4870	3.4870	-1.3880	25.48	0.26	-0.750			
0.6592	42189.02	3.4840	3.4840	-1.3455	25.49	0.27	-0.750			
0.6632	42445.57	3.4810	3.4810	-1.3154	25.51	0.29	-0.750			
0.6671	42693.18	3.4780	3.4780	-1.2679	25.53	0.31	-0.750			
0.6709	42934.59	3.4750	3.4749	-1.2318	25.54	0.32	-0.750			
0.6745	43165.90	3.4720	3.4720	-1.1921	25.55	0.33	-0.750			
0.6779	43388.73	3.4690	3.4691	-1.1589	25.56	0.34	-0.750			
0.6814	43609.80	3.4660	3.4659	-1.1233	25.57	0.35	-0.750			
0.6847	43822.06	3.4630	3.4630	-1.0872	25.58	0.36	-0.750			
0.6879	44026.56	3.4600	3.4600	-1.0500	25.60	0.38	-0.750			
0.6910	44226.44	3.4570	3.4570	-1.0193	25.61	0.39	-0.750			
0.6940	44417.51	3.4540	3.4540	-0.9818	25.62	0.40	-0.750			
0.6969	44601.11	3.4510	3.4509	-0.9523	25.64	0.42	-0.750			
0.6997	44779.23	3.4480	3.4481	-0.9221	25.65	0.43	-0.750			
0.7024	44954.65	3.4450	3.4450	-0.9051	25.66	0.44	-0.750			
0.7051	45124.28	3.4420	3.4420	-0.8874	25.67	0.45	-0.750			
0.7077	45292.78	3.4390	3.4390	-0.8690	25.68	0.46	-0.750			
0.7102	45455.81	3.4360	3.4359	-0.8590	25.69	0.47	-0.750			
0.7128	45617.24	3.4330	3.4331	-0.8594	25.69	0.47	-0.750			
0.7153	45781.75	3.4300	3.4298	-0.8600	25.70	0.48	-0.750			
0.7179	45947.39	3.4270	3.4270	-0.8665	25.71	0.49	-0.750			
0.7205	46114.15	3.4240	3.4240	-0.8743	25.72	0.50	-0.750			
0.7232	46283.29	3.4210	3.4211	-0.8812	25.73	0.51	-0.750			
0.7259	46455.39	3.4180	3.4180	-0.8897	25.75	0.53	-0.750			
0.7285	46624.69	3.4150	3.4149	-0.8882	25.75	0.53	-0.750			
0.7312	46796.01	3.4120	3.4120	-0.8885	25.76	0.54	-0.750			
0.7339	46968.53	3.4090	3.4090	-0.8875	25.77	0.55	-0.750			
0.7365	47138.28	3.4060	3.4060	-0.8793	25.77	0.55	-0.750			
0.7392	47308.51	3.4030	3.4030	-0.8701	25.78	0.56	-0.750			
0.7418	47474.34	3.4000	3.4000	-0.8619	25.79	0.57	-0.750			
0.7444	47638.78	3.3970	3.3970	-0.8492	25.79	0.57	-0.750			
0.7469	47800.93	3.3940	3.3939	-0.8355	25.80	0.58	-0.750			
0.7494	47961.06	3.3910	3.3910	-0.8135	25.80	0.58	-0.750			
0.7518	48117.26	3.3880	3.3881	-0.7942	25.81	0.59	-0.750			
0.7542	48267.45	3.3850	3.3850	-0.7692	25.82	0.60	-0.750			
0.7565	48413.43	3.3820	3.3819	-0.7449	25.82	0.60	-0.750			
0.7586	48551.94	3.3790	3.3790	-0.7225	25.83	0.61	-0.750			
0.7608	48688.15	3.3760	3.3760	-0.7020	25.84	0.62	-0.750			
0.7628	48821.29	3.3730	3.3729	-0.6838	25.84	0.62	-0.750			
0.7649	48951.73	3.3700	3.3700	-0.6641	25.85	0.63	-0.750			
0.7668	49077.32	3.3670	3.3670	-0.6423	25.86	0.64	-0.750			
0.7687	49198.97	3.3640	3.3640	-0.6219	25.86	0.64	-0.750			
0.7706	49316.33	3.3610	3.3610	-0.6009	25.86	0.64	-0.750			
0.7723	49428.70	3.3580	3.3579	-0.5807	25.87	0.65	-0.750			
0.7740	49537.94	3.3550	3.3551	-0.5640	25.87	0.65	-0.750			
0.7757	49644.11	3.3520	3.3519	-0.5458	25.88	0.66	-0.750			
0.7773	49747.51	3.3490	3.3490	-0.5305	25.88	0.66	-0.750			
0.7789	49848.03	3.3460	3.3460	-0.5156	25.89	0.67	-0.750			
0.7804	49945.22	3.3430	3.3430	-0.4992	25.89	0.67	-0.750			
0.7819	50039.67	3.3400	3.3400	-0.4844	25.90	0.68	-0.750			
0.7833	50130.91	3.3370	3.3370	-0.4704	25.91	0.69	-0.750			
0.7847	50219.92	3.3340	3.3339	-0.4570	25.91	0.69	-0.750			
0.7860	50306.71	3.3310	3.3310	-0.4434	25.92	0.70	-0.750			
0.7873	50389.98	3.3280	3.3281	-0.4315	25.92	0.70	-0.750			
0.7886	50471.49	3.3250	3.3250	-0.4195	25.93	0.71	-0.750			
0.7899	50550.92	3.3220	3.3219	-0.4092	25.93	0.71	-0.750			
0.7911	50627.49	3.3190	3.3190	-0.3985	25.94	0.72	-0.750			
0.7922	50703.05	3.3160	3.3160	-0.3883	25.94	0.72	-0.750			
0.7934	50777.00	3.3130	3.3129	-0.3799	25.94	0.72	-0.750			
0.7945	50849.39	3.3100	3.3100	-0.3693	25.95	0.73	-0.750			
0.7956	50919.01	3.3070	3.3069	-0.3587	25.95	0.73	-0.750			
0.7967	50986.92	3.3040	3.3040	-0.3498	25.95	0.73	-0.750			
0.7977	51053.00	3.3010	3.3010	-0.3403	25.96	0.74	-0.750			
0.7987	51116.80	3.2980	3.2980	-0.3328	25.96	0.74	-0.750			
0.7997	51180.10	3.2950	3.2950	-0.3260	25.96	0.74	-0.750			
0.8007	51241.82	3.2920	3.2920	-0.3184	25.97	0.75	-0.750			
0.8016	51302.65	3.2890	3.2889	-0.3120	25.97	0.75	-0.750			
0.8025	51361.61	3.2860	3.2860	-0.3056	25.97	0.75	-0.750			
0.8034	51419.80	3.2830	3.2830	-0.2984	25.98	0.76	-0.750			
0.8043	51476.16	3.2800	3.2799	-0.2926	25.99	0.77	-0.750			
0.8052	51531.40	3.2770	3.2770	-0.2865	25.99	0.77	-0.750			
0.8060	51586.08	3.2740	3.2740	-0.2814	26.00	0.78	-0.750			
0.8069	51639.74	3.2710	3.2710	-0.2755	26.00	0.78	-0.750			
0.8077	51692.15	3.2680	3.2680	-0.2700	26.01	0.79	-0.750			
0.8085	51743.15	3.2650	3.2650	-0.2650	26.01	0.79	-0.750			
0.8093	51793.71	3.2620	3.2620	-0.2609	26.02	0.80	-0.750			
0.8100	51842.78	3.2590	3.2590	-0.2560	26.02	0.80	-0.750			
0.8108	51891.45	3.2560	3.2560	-0.2525	26.03	0.81	-0.750			
0.8116	51939.70	3.2530	3.2530	-0.2496	26.03	0.81	-0.750			
0.8123	51987.39	3.2500	3.2500	-0.2456	26.04	0.82	-0.750			
0.8130	52034.12	3.2470	3.2470	-0.2416	26.04	0.82	-0.750			
0.8137	52079.98	3.2440	3.2441	-0.2384	26.05	0.83	-0.750			
0.8145	52125.43	3.2410	3.2410	-0.2348	26.05	0.83	-0.750			
0.8152	52170.27	3.2380	3.2379	-0.2314	26.06	0.84	-0.750			
0.8158	52214.23	3.2350	3.2350	-0.2277	26.06	0.84	-0.750			
0.8165	52257.77	3.2320	3.2321	-0.2244	26.07	0.85	-0.750			
0.8172	52300.75	3.2290	3.2290	-0.2216	26.07	0.85	-0.750			
0.8179	52342.66	3.2260	3.2260	-0.2172	26.08	0.86	-0.750			
0.8185	52383.84	3.2230	3.2230	-0.2154	26.09	0.87	-0.750			
0.8191	52424.83	3.2200	3.2200	-0.2119	26.09	0.87	-0.750			
0.8198	52465.31	3.2170	3.2169	-0.2097	26.10	0.88	-0.750			
0.8204	52505.38	3.2140	3.2141	-0.2073	26.10	0.88	-0.750			
0.8210	52544.94	3.2110	3.2110	-0.2049	26.11	0.89	-0.750			
0.8216	52584.11	3.2080	3.2079	-0.2024	26.11	0.89	-0.750			
0.8222	52622.53	3.2050	3.2051	-0.2003	26.12	0.90	-0.750			
0.8228	52660.79	3.2020	3.2020	-0.1982	26.12	0.90	-0.750			
0.8234	52698.36	3.1990	3.1990	-0.1958	26.13	0.91	-0.750			
0.8240	52736.17	3.1960	3.1960	-0.1939	26.13	0.91	-0.750			
0.8246	52773.00	3.1930	3.1931	-0.1915	26.14	0.92	-0.750			
0.8251	52809.60	3.1900	3.1900	-0.1891	26.14	0.92	-0.750			
0.8257	52845.71	3.1870	3.1870	-0.1869	26.15	0.93	-0.750			
0.8263	52881.41	3.1840	3.1838	-0.1846	26.15	0.93	-0.750			
0.8268	52916.40	3.1810	3.1810	-0.1823	26.15	0.93	-0.750			
0.8274	52951.27	3.1780	3.1780	-0.1803	26.15	0.93	-0.750			
0.8279	52985.72	3.1750	3.1750	-0.1786	26.16	0.94	-0.750			
0.8284	53019.83	3.1720	3.1720	-0.1767	26.17	0.95	-0.750			
0.8290	53053.38	3.1690	3.1690	-0.1750	26.17	0.95	-0.750			
0.8295	53086.98	3.1660	3.1660	-0.1733	26.18	0.96	-0.750			
0.8300	53120.15	3.1630	3.1630	-0.1713	26.18	0.96	-0.750			
0.8305	53152.84	3.1600	3.1599	-0.1692	26.19	0.97	-0.750			
0.8310	53185.03	3.1570	3.1571	-0.1681	26.19	0.97	-0.750			
0.8315	53217.15	3.1540	3.1540	-0.1667	26.20	0.98	-0.750			
0.8320	53248.95	3.1510	3.1509	-0.1649	26.21	0.99	-0.750			
0.8325	53280.49	3.1480	3.1479	-0.1636	26.21	0.99	-0.750			
0.8330	53311.72	3.1450	3.1451	-0.1621	26.22	1.00	-0.750			
0.8335	53343.06	3.1420	3.1420	-0.1606	26.22	1.00	-0.750			
0.8340	53373.66	3.1390	3.1390	-0.1592	26.23	1.01	-0.750			
0.8344	53404.05	3.1360	3.1360	-0.1573	26.23	1.01	-0.750			
0.8349	53433.82	3.1330	3.1331	-0.1554	26.24	1.02	-0.750			
0.8354	53463.40	3.1300	3.1299	-0.1543	26.24	1.02	-0.750			
0.8358	53492.84	3.1270	3.1270	-0.1531	26.25	1.03	-0.750			
0.8363	53522.13	3.1240	3.1240	-0.1524	26.25	1.03	-0.750			
0.8367	53551.45	3.1210	3.1210	-0.1509	26.26	1.04	-0.750			
0.8372	53580.44	3.1180	3.1180	-0.1501	26.26	1.04	-0.750			
0.8376	53609.11	3.1150	3.1150	-0.1486	26.27	1.05	-0.750			
0.8381	53637.47	3.1120	3.1121	-0.1471	26.27	1.05	-0.750			
0.8385	53665.63	3.1090	3.1089	-0.1459	26.28	1.06	-0.750			
0.8390	53693.34	3.1060	3.1060	-0.1442	26.28	1.06	-0.750			
0.8394	53720.79	3.1030	3.1031	-0.1441	26.29	1.07	-0.750			
0.8398	53748.41	3.1000	3.1000	-0.1427	26.30	1.08	-0.750			
0.8403	53776.03	3.0970	3.0969	-0.1419	26.30	1.08	-0.750			
0.8407	53803.12	3.0940	3.0940	-0.1404	26.31	1.09	-0.750			
0.8411	53829.92	3.0910	3.0912	-0.1390	26.31	1.09	-0.750			
0.8415	53856.57	3.0880	3.0880	-0.1379	26.32	1.10	-0.750			
0.8419	53882.66	3.0850	3.0849	-0.1367	26.32	1.10	-0.750			
0.8423	53908.81	3.0820	3.0820	-0.1357	26.33	1.11	-0.750			
0.8427	53934.41	3.0790	3.0790	-0.1349	26.33	1.11	-0.750			
0.8431	53960.53	3.0760	3.0760	-0.1343	26.34	1.12	-0.750			
0.8435	53986.40	3.0730	3.0730	-0.1334	26.34	1.12	-0.750			
0.8439	54011.91	3.0700	3.0700	-0.1322	26.35	1.13	-0.750			
0.8443	54037.30	3.0670	3.0671	-0.1310	26.35	1.13	-0.750			
0.8447	54062.43	3.0640	3.0640	-0.1296	26.36	1.14	-0.750			
0.8451	54086.91	3.0610	3.0610	-0.1285	26.36	1.14	-0.750			
0.8455	54111.40	3.0580	3.0580	-0.1281	26.37	1.15	-0.750			
0.8459	54135.74	3.0550	3.0549	-0.1275	26.37	1.15	-0.750			
0.8463	54160.28	3.0520	3.0520	-0.1267	26.38	1.16	-0.750			
0.8466	54184.67	3.0490	3.0490	-0.1257	26.38	1.16	-0.750			
0.8470	54208.85	3.0460	3.0460	-0.1250	26.39	1.17	-0.750			
0.8474	54232.88	3.0430	3.0431	-0.1244	26.39	1.17	-0.750			
0.8478	54256.65	3.0400	3.0401	-0.1231	26.40	1.18	-0.750			
0.8481	54279.93	3.0370	3.0369	-0.1221	26.40	1.18	-0.750			
0.8485	54303.13	3.0340	3.0339	-0.1210	26.41	1.19	-0.750			
0.8488	54326.31	3.0310	3.0311	-0.1205	26.42	1.20	-0.750			
0.8492	54349.34	3.0280	3.0280	-0.1199	26.42	1.20	-0.750			
0.8496	54372.33	3.0250	3.0250	-0.1195	26.43	1.21	-0.750			
0.8499	54395.42	3.0220	3.0220	-0.1187	26.43	1.21	-0.750			
0.8503	54418.12	3.0190	3.0189	-0.1177	26.44	1.22	-0.750			
0.8506	54440.84	3.0160	3.0161	-0.1165	26.44	1.22	-0.750			
0.8510	54463.07	3.0130	3.0129	-0.1150	26.45	1.23	-0.750			
0.8513	54485.15	3.0100	3.0099	-0.1135	26.45	1.23	-0.750			
0.8517	54506.76	3.0070	3.0071	-0.1117	26.46	1.24	-0.750			
0.8520	54528.03	3.0040	3.0041	-0.1101	26.46	1.24	-0.750			
