Ah_balance (normalized)	Ah_balance (mAh)	Voltage - fit (V)	Voltage -  interpolate (V)	dQ/dV (1/V)	Temperature (°C)	Temperature - diff (°C)	Current (C)	R_DC 0ms (mOhm)	R_DC 50ms (mOhm)	R_DC 50 ms PEC (mOhm)
0.0569	3641.24	4.1970	4.1970	0.7609	26.76	0.83	0.750			
0.0592	3791.32	4.1940	4.1939	0.7660	26.76	0.83	0.750			
0.0613	3925.75	4.1910	4.1911	0.7417	26.76	0.83	0.750			
0.0636	4069.32	4.1880	4.1882	0.7471	26.76	0.83	0.750			
0.0658	4213.18	4.1850	4.1844	0.7486	26.76	0.83	0.750			
0.0681	4356.67	4.1820	4.1822	0.7528	26.76	0.83	0.750			
0.0704	4503.14	4.1790	4.1791	0.7508	26.76	0.83	0.750			
0.0726	4648.37	4.1760	4.1760	0.7540	26.76	0.83	0.750			
0.0749	4792.95	4.1730	4.1730	0.7487	26.76	0.83	0.750			
0.0771	4936.52	4.1700	4.1701	0.7505	26.76	0.83	0.750			
0.0794	5082.44	4.1670	4.1670	0.7552	26.76	0.83	0.750			
0.0817	5226.98	4.1640	4.1640	0.7576	26.76	0.83	0.750			
0.0839	5372.28	4.1610	4.1611	0.7568	26.76	0.83	0.750			
0.0862	5518.90	4.1580	4.1580	0.7590	26.76	0.83	0.750			
0.0885	5664.09	4.1550	4.1550	0.7596	26.76	0.83	0.750			
0.0908	5810.07	4.1520	4.1519	0.7635	26.76	0.83	0.750			
0.0931	5957.24	4.1490	4.1490	0.7653	26.76	0.83	0.750			
0.0954	6104.65	4.1460	4.1460	0.7646	26.76	0.83	0.750			
0.0977	6251.45	4.1430	4.1430	0.7659	26.76	0.83	0.750			
0.1000	6399.66	4.1400	4.1400	0.7667	26.76	0.83	0.750			
0.1023	6545.20	4.1370	4.1371	0.7686	26.76	0.83	0.750			
0.1046	6691.58	4.1340	4.1341	0.7720	26.76	0.83	0.750			
0.1069	6841.43	4.1310	4.1310	0.7721	26.76	0.83	0.750			
0.1092	6991.22	4.1280	4.1279	0.7729	26.76	0.83	0.750			
0.1116	7140.32	4.1250	4.1251	0.7738	26.76	0.83	0.750			
0.1139	7287.58	4.1220	4.1221	0.7730	26.76	0.83	0.750			
0.1162	7436.35	4.1190	4.1190	0.7733	26.76	0.83	0.750			
0.1185	7582.36	4.1160	4.1160	0.7756	26.76	0.83	0.750			
0.1208	7730.55	4.1130	4.1130	0.7756	26.76	0.83	0.750			
0.1232	7881.81	4.1100	4.1100	0.7799	26.76	0.83	0.750			
0.1255	8032.47	4.1070	4.1069	0.7813	26.76	0.83	0.750			
0.1278	8182.05	4.1040	4.1040	0.7833	26.76	0.83	0.750			
0.1302	8332.81	4.1010	4.1010	0.7840	26.76	0.83	0.750			
0.1326	8484.86	4.0980	4.0979	0.7792	26.76	0.83	0.750			
0.1349	8632.57	4.0950	4.0950	0.7828	26.76	0.83	0.750			
0.1372	8782.57	4.0920	4.0921	0.7874	26.76	0.83	0.750			
0.1396	8932.89	4.0890	4.0891	0.7916	26.76	0.83	0.750			
0.1419	9084.77	4.0860	4.0859	0.7942	26.76	0.83	0.750			
0.1444	9239.41	4.0830	4.0830	0.7920	26.76	0.83	0.750			
0.1468	9392.13	4.0800	4.0800	0.7997	26.76	0.83	0.750			
0.1492	9546.36	4.0770	4.0771	0.8019	26.76	0.83	0.750			
0.1515	9698.88	4.0740	4.0740	0.8025	26.76	0.83	0.750			
0.1539	9852.77	4.0710	4.0708	0.8065	26.76	0.83	0.750			
0.1564	10009.54	4.0680	4.0680	0.8094	26.76	0.83	0.750			
0.1589	10166.90	4.0650	4.0650	0.8142	26.76	0.83	0.750			
0.1613	10323.41	4.0620	4.0620	0.8162	26.75	0.82	0.750			
0.1637	10479.35	4.0590	4.0591	0.8124	26.75	0.82	0.750			
0.1662	10634.91	4.0560	4.0558	0.8157	26.75	0.82	0.750			
0.1686	10791.17	4.0530	4.0530	0.8157	26.75	0.82	0.750			
0.1711	10947.63	4.0500	4.0500	0.8183	26.75	0.82	0.750			
0.1735	11105.86	4.0470	4.0470	0.8199	26.75	0.82	0.750			
0.1760	11265.01	4.0440	4.0440	0.8204	26.75	0.82	0.750			
0.1785	11422.23	4.0410	4.0410	0.8200	26.75	0.82	0.750			
0.1809	11579.34	4.0380	4.0380	0.8253	26.75	0.82	0.750			
0.1834	11737.05	4.0350	4.0350	0.8211	26.75	0.82	0.750			
0.1858	11894.40	4.0320	4.0320	0.8303	26.74	0.81	0.750			
0.1883	12053.19	4.0290	4.0290	0.8369	26.74	0.81	0.750			
0.1909	12216.18	4.0260	4.0257	0.8390	26.74	0.81	0.750			
0.1934	12378.07	4.0230	4.0231	0.8454	26.74	0.81	0.750			
0.1959	12540.52	4.0200	4.0201	0.8418	26.74	0.81	0.750			
0.1985	12701.18	4.0170	4.0171	0.8445	26.74	0.81	0.750			
0.2010	12862.48	4.0140	4.0140	0.8473	26.74	0.81	0.750			
0.2035	13026.33	4.0110	4.0107	0.8496	26.74	0.81	0.750			
0.2061	13192.07	4.0080	4.0080	0.8481	26.74	0.81	0.750			
0.2087	13355.65	4.0050	4.0052	0.8530	26.74	0.81	0.750			
0.2112	13519.80	4.0020	4.0021	0.8544	26.74	0.81	0.750			
0.2138	13683.11	3.9990	3.9989	0.8546	26.74	0.81	0.750			
0.2163	13845.32	3.9960	3.9959	0.8521	26.74	0.81	0.750			
0.2189	14010.21	3.9930	3.9930	0.8549	26.74	0.81	0.750			
0.2215	14177.64	3.9900	3.9900	0.8652	26.74	0.81	0.750			
0.2241	14342.83	3.9870	3.9870	0.8677	26.74	0.81	0.750			
0.2267	14508.49	3.9840	3.9841	0.8652	26.74	0.81	0.750			
0.2293	14675.87	3.9810	3.9810	0.8658	26.74	0.81	0.750			
0.2319	14842.95	3.9780	3.9780	0.8651	26.73	0.80	0.750			
0.2345	15008.53	3.9750	3.9751	0.8716	26.73	0.80	0.750			
0.2371	15175.19	3.9720	3.9720	0.8755	26.73	0.80	0.750			
0.2397	15343.62	3.9690	3.9689	0.8740	26.72	0.79	0.750			
0.2424	15512.91	3.9660	3.9660	0.8741	26.72	0.79	0.750			
0.2450	15681.70	3.9630	3.9631	0.8770	26.72	0.79	0.750			
0.2476	15849.17	3.9600	3.9600	0.8791	26.71	0.78	0.750			
0.2503	16017.70	3.9570	3.9571	0.8806	26.71	0.78	0.750			
0.2529	16185.22	3.9540	3.9538	0.8793	26.71	0.78	0.750			
0.2555	16354.83	3.9510	3.9510	0.8787	26.71	0.78	0.750			
0.2582	16525.03	3.9480	3.9481	0.8799	26.70	0.77	0.750			
0.2609	16695.24	3.9450	3.9449	0.8789	26.70	0.77	0.750			
0.2635	16860.94	3.9420	3.9421	0.8714	26.69	0.76	0.750			
0.2661	17028.59	3.9390	3.9389	0.8758	26.69	0.76	0.750			
0.2687	17195.56	3.9360	3.9361	0.8768	26.69	0.76	0.750			
0.2713	17364.34	3.9330	3.9330	0.8828	26.68	0.75	0.750			
0.2740	17534.95	3.9300	3.9300	0.8893	26.68	0.75	0.750			
0.2767	17705.94	3.9270	3.9269	0.8910	26.67	0.74	0.750			
0.2793	17876.85	3.9240	3.9240	0.8982	26.67	0.74	0.750			
0.2820	18050.39	3.9210	3.9210	0.8997	26.66	0.73	0.750			
0.2847	18222.68	3.9180	3.9180	0.9032	26.66	0.73	0.750			
0.2875	18397.07	3.9150	3.9150	0.9070	26.65	0.72	0.750			
0.2902	18570.92	3.9120	3.9119	0.9108	26.64	0.71	0.750			
0.2929	18746.31	3.9090	3.9089	0.9160	26.63	0.70	0.750			
0.2957	18923.81	3.9060	3.9060	0.9071	26.63	0.70	0.750			
0.2984	19094.66	3.9030	3.9032	0.9143	26.62	0.69	0.750			
0.3011	19271.22	3.9000	3.9001	0.9192	26.61	0.68	0.750			
0.3039	19447.43	3.8970	3.8966	0.9208	26.60	0.67	0.750			
0.3066	19625.59	3.8940	3.8940	0.9149	26.59	0.66	0.750			
0.3094	19800.20	3.8910	3.8912	0.9226	26.58	0.65	0.750			
0.3122	19979.62	3.8880	3.8880	0.9292	26.57	0.64	0.750			
0.3150	20156.96	3.8850	3.8849	0.9283	26.56	0.63	0.750			
0.3177	20335.73	3.8820	3.8821	0.9318	26.55	0.62	0.750			
0.3206	20515.68	3.8790	3.8790	0.9414	26.55	0.62	0.750			
0.3234	20697.90	3.8760	3.8760	0.9450	26.54	0.61	0.750			
0.3263	20882.11	3.8730	3.8731	0.9523	26.53	0.60	0.750			
0.3291	21062.79	3.8700	3.8699	0.9449	26.52	0.59	0.750			
0.3320	21246.58	3.8670	3.8670	0.9345	26.51	0.58	0.750			
0.3347	21423.03	3.8640	3.8641	0.9359	26.50	0.57	0.750			
0.3375	21601.76	3.8610	3.8610	0.9373	26.48	0.55	0.750			
0.3403	21781.56	3.8580	3.8579	0.9376	26.47	0.54	0.750			
0.3432	21962.32	3.8550	3.8550	0.9367	26.46	0.53	0.750			
0.3460	22141.64	3.8520	3.8521	0.9402	26.46	0.53	0.750			
0.3488	22323.77	3.8490	3.8491	0.9485	26.45	0.52	0.750			
0.3517	22506.27	3.8460	3.8459	0.9484	26.44	0.51	0.750			
0.3545	22688.62	3.8430	3.8430	0.9538	26.44	0.51	0.750			
0.3574	22871.95	3.8400	3.8400	0.9557	26.42	0.49	0.750			
0.3603	23057.16	3.8370	3.8371	0.9612	26.41	0.48	0.750			
0.3631	23241.15	3.8340	3.8340	0.9707	26.39	0.46	0.750			
0.3660	23426.33	3.8310	3.8309	0.9776	26.38	0.45	0.750			
0.3690	23615.27	3.8280	3.8280	0.9792	26.37	0.44	0.750			
0.3719	23803.61	3.8250	3.8250	0.9908	26.36	0.43	0.750			
0.3749	23996.00	3.8220	3.8220	0.9997	26.35	0.42	0.750			
0.3780	24189.38	3.8190	3.8188	1.0027	26.34	0.41	0.750			
0.3810	24383.38	3.8160	3.8159	1.0046	26.33	0.40	0.750			
0.3840	24574.47	3.8130	3.8131	1.0133	26.32	0.39	0.750			
0.3870	24769.42	3.8100	3.8101	1.0275	26.31	0.38	0.750			
0.3902	24970.36	3.8070	3.8068	1.0480	26.29	0.36	0.750			
0.3933	25168.61	3.8040	3.8041	1.0441	26.28	0.35	0.750			
0.3964	25370.92	3.8010	3.8011	1.0631	26.27	0.34	0.750			
0.3996	25576.92	3.7980	3.7980	1.0766	26.26	0.33	0.750			
0.4029	25785.40	3.7950	3.7948	1.0907	26.25	0.32	0.750			
0.4062	25994.22	3.7920	3.7921	1.0983	26.24	0.31	0.750			
0.4094	26203.85	3.7890	3.7890	1.1162	26.23	0.30	0.750			
0.4128	26420.86	3.7860	3.7860	1.1385	26.22	0.29	0.750			
0.4163	26641.45	3.7830	3.7829	1.1496	26.21	0.28	0.750			
0.4197	26862.66	3.7800	3.7801	1.1757	26.20	0.27	0.750			
0.4233	27091.36	3.7770	3.7771	1.2144	26.19	0.26	0.750			
0.4270	27329.14	3.7740	3.7739	1.2379	26.17	0.24	0.750			
0.4308	27569.04	3.7710	3.7709	1.2625	26.16	0.23	0.750	0.314	0.454	
0.4346	27813.90	3.7680	3.7682	1.2898	26.15	0.22	0.750			
0.4386	28068.58	3.7650	3.7651	1.3075	26.14	0.21	0.750			
0.4425	28322.91	3.7620	3.7619	1.3330	26.13	0.20	0.750			
0.4465	28575.75	3.7590	3.7591	1.3489	26.11	0.18	0.750			
0.4506	28838.82	3.7560	3.7561	1.3695	26.10	0.17	0.750			
0.4547	29103.49	3.7530	3.7530	1.4011	26.08	0.15	0.750			
0.4589	29372.57	3.7500	3.7501	1.4328	26.06	0.13	0.750			
0.4633	29652.21	3.7470	3.7471	1.4565	26.04	0.11	0.750			
0.4677	29934.23	3.7440	3.7441	1.5052	26.03	0.10	0.750			
0.4723	30227.33	3.7410	3.7409	1.5422	26.02	0.09	0.750			
0.4770	30525.63	3.7380	3.7381	1.5923	26.01	0.08	0.750			
0.4818	30835.39	3.7350	3.7352	1.6447	26.00	0.07	0.750			
0.4868	31157.40	3.7320	3.7321	1.6814	25.98	0.05	0.750			
0.4920	31486.22	3.7290	3.7288	1.7215	25.96	0.03	0.750			
0.4973	31825.66	3.7260	3.7258	1.7690	25.94	0.01	0.750			
0.5025	32160.52	3.7230	3.7231	1.8114	25.92	-0.01	0.750			
0.5081	32516.28	3.7200	3.7199	1.8547	25.91	-0.02	0.750			
0.5136	32872.10	3.7170	3.7174	1.9286	25.90	-0.03	0.750			
0.5195	33247.44	3.7140	3.7139	1.9866	25.88	-0.05	0.750			
0.5257	33642.98	3.7110	3.7108	2.0480	25.86	-0.07	0.750			
0.5319	34039.66	3.7080	3.7082	2.1114	25.84	-0.09	0.750			
0.5384	34457.61	3.7050	3.7050	2.1755	25.83	-0.10	0.750			
0.5449	34874.51	3.7020	3.7020	2.2009	25.81	-0.12	0.750			
0.5516	35304.12	3.6990	3.6990	2.2783	25.79	-0.14	0.750			
0.5585	35743.22	3.6960	3.6960	2.3618	25.78	-0.15	0.750			
0.5657	36203.20	3.6930	3.6927	2.4443	25.76	-0.17	0.750			
0.5731	36679.07	3.6900	3.6899	2.5309	25.75	-0.18	0.750			
0.5809	37175.43	3.6870	3.6871	2.5919	25.74	-0.19	0.750			
0.5889	37688.17	3.6840	3.6842	2.7108	25.72	-0.21	0.750			
0.5971	38211.52	3.6810	3.6810	2.8131	25.71	-0.22	0.750			
0.6057	38764.66	3.6780	3.6781	2.8854	25.70	-0.23	0.750			
0.6148	39347.33	3.6750	3.6750	2.8350	25.70	-0.23	0.750			
0.6233	39890.02	3.6720	3.6720	2.6687	25.69	-0.24	0.750			
0.6309	40378.10	3.6690	3.6690	2.4276	25.69	-0.24	0.750			
0.6375	40799.45	3.6660	3.6660	2.1528	25.69	-0.24	0.750			
0.6436	41187.88	3.6630	3.6631	1.9651	25.69	-0.24	0.750			
0.6490	41535.39	3.6600	3.6600	1.7854	25.70	-0.23	0.750			
0.6541	41863.06	3.6570	3.6568	1.6586	25.70	-0.23	0.750			
0.6589	42166.52	3.6540	3.6541	1.5481	25.70	-0.23	0.750			
0.6632	42447.51	3.6510	3.6511	1.4467	25.70	-0.23	0.750			
0.6675	42717.10	3.6480	3.6481	1.3635	25.70	-0.23	0.750			
0.6713	42965.45	3.6450	3.6450	1.2819	25.70	-0.23	0.750			
0.6750	43201.92	3.6420	3.6421	1.2351	25.71	-0.22	0.750			
0.6786	43432.60	3.6390	3.6387	1.1987	25.71	-0.22	0.750			
0.6821	43654.65	3.6360	3.6360	1.1867	25.71	-0.22	0.750			
0.6856	43880.17	3.6330	3.6330	1.1845	25.70	-0.23	0.750			
0.6891	44105.12	3.6300	3.6299	1.1928	25.70	-0.23	0.750			
0.6927	44334.99	3.6270	3.6272	1.1897	25.70	-0.23	0.750			
0.6964	44567.27	3.6240	3.6240	1.1964	25.71	-0.22	0.750			
0.7000	44798.42	3.6210	3.6210	1.1966	25.71	-0.22	0.750			
0.7036	45031.45	3.6180	3.6178	1.1713	25.72	-0.21	0.750			
0.7071	45253.93	3.6150	3.6151	1.1584	25.72	-0.21	0.750			
0.7105	45473.74	3.6120	3.6121	1.1481	25.72	-0.21	0.750			
0.7139	45689.07	3.6090	3.6090	1.1387	25.72	-0.21	0.750			
0.7173	45905.77	3.6060	3.6060	1.1295	25.72	-0.21	0.750			
0.7206	46120.07	3.6030	3.6031	1.1418	25.72	-0.21	0.750			
0.7240	46335.94	3.6000	3.6000	1.1655	25.73	-0.20	0.750			
0.7276	46567.28	3.5970	3.5969	1.1781	25.73	-0.20	0.750			
0.7311	46792.61	3.5940	3.5939	1.2012	25.73	-0.20	0.750			
0.7347	47021.33	3.5910	3.5912	1.2496	25.73	-0.20	0.750			
0.7386	47267.86	3.5880	3.5881	1.2761	25.72	-0.21	0.750			
0.7424	47513.43	3.5850	3.5849	1.3353	25.72	-0.21	0.750			
0.7465	47773.15	3.5820	3.5820	1.3812	25.72	-0.21	0.750			
0.7507	48041.98	3.5790	3.5794	1.4298	25.72	-0.21	0.750			
0.7551	48325.84	3.5760	3.5763	1.4806	25.72	-0.21	0.750			
0.7596	48614.06	3.5730	3.5728	1.5194	25.72	-0.21	0.750			
0.7642	48907.93	3.5700	3.5702	1.5552	25.73	-0.20	0.750			
0.7691	49219.92	3.5670	3.5670	1.5985	25.73	-0.20	0.750			
0.7739	49530.53	3.5640	3.5640	1.6177	25.72	-0.21	0.750			
0.7788	49845.18	3.5610	3.5608	1.6392	25.72	-0.21	0.750			
0.7837	50157.56	3.5580	3.5582	1.6721	25.72	-0.21	0.750			
0.7887	50476.74	3.5550	3.5553	1.6937	25.73	-0.20	0.750			
0.7938	50805.35	3.5520	3.5520	1.7115	25.73	-0.20	0.750			
0.7991	51142.39	3.5490	3.5491	1.7352	25.73	-0.20	0.750			
0.8043	51478.04	3.5460	3.5459	1.7614	25.73	-0.20	0.750			
0.8097	51821.60	3.5430	3.5426	1.8016	25.74	-0.19	0.750			
0.8152	52174.38	3.5400	3.5398	1.7308	25.76	-0.17	0.750			
0.8206	52518.05	3.5370	3.5367	1.6240	25.77	-0.16	0.750			
0.8259	52855.47	3.5340	3.5344	1.4384	25.78	-0.15	0.750			
0.8301	53127.62	3.5310	3.5314	1.1835	25.80	-0.13	0.750			
0.8331	53317.97	3.5280	3.5282	0.9244	25.82	-0.11	0.750			
0.8352	53451.31	3.5250	3.5246	0.6733	25.83	-0.10	0.750			
0.8364	53530.17	3.5220	3.5217	0.5049	25.83	-0.10	0.750			
0.8376	53605.65	3.5190	3.5187	0.4153	25.84	-0.09	0.750			
0.8386	53671.54	3.5160	3.5161	0.3633	25.85	-0.08	0.750			
0.8396	53735.11	3.5130	3.5130	0.3386	25.85	-0.08	0.750			
0.8406	53795.87	3.5100	3.5099	0.3192	25.86	-0.07	0.750			
0.8415	53854.52	3.5070	3.5070	0.3069	25.86	-0.07	0.750			
0.8424	53911.98	3.5040	3.5040	0.2970	25.87	-0.06	0.750			
0.8433	53968.13	3.5010	3.5011	0.2896	25.87	-0.06	0.750			
0.8441	54023.12	3.4980	3.4980	0.2819	25.88	-0.05	0.750			
0.8449	54076.48	3.4950	3.4950	0.2738	25.88	-0.05	0.750			
0.8457	54127.94	3.4920	3.4920	0.2667	25.89	-0.04	0.750			
0.8465	54178.12	3.4890	3.4891	0.2600	25.89	-0.04	0.750			
0.8473	54227.20	3.4860	3.4860	0.2556	25.90	-0.03	0.750			
0.8481	54275.49	3.4830	3.4830	0.2508	25.90	-0.03	0.750			
0.8488	54322.90	3.4800	3.4800	0.2451	25.90	-0.03	0.750			
0.8495	54369.81	3.4770	3.4770	0.2409	25.91	-0.02	0.750			
0.8503	54416.17	3.4740	3.4740	0.2366	25.91	-0.02	0.750			
0.8510	54461.06	3.4710	3.4711	0.2310	25.92	-0.01	0.750			
0.8516	54504.94	3.4680	3.4680	0.2260	25.92	-0.01	0.750			
0.8523	54547.69	3.4650	3.4651	0.2215	25.92	-0.01	0.750			
0.8530	54589.06	3.4620	3.4621	0.2159	25.93	-0.00	0.750			
0.8536	54630.20	3.4590	3.4589	0.2126	25.93	0.00	0.750			
0.8542	54671.05	3.4560	3.4559	0.2073	25.93	0.00	0.750			
0.8549	54710.48	3.4530	3.4530	0.2026	25.94	0.01	0.750			
0.8555	54749.24	3.4500	3.4501	0.1983	25.94	0.01	0.750			
0.8560	54786.76	3.4470	3.4471	0.1925	25.94	0.01	0.750			
0.8566	54823.18	3.4440	3.4439	0.1867	25.95	0.02	0.750			
0.8572	54858.27	3.4410	3.4410	0.1810	25.95	0.02	0.750			
0.8577	54892.32	3.4380	3.4380	0.1754	25.95	0.02	0.750			
0.8582	54925.54	3.4350	3.4350	0.1706	25.96	0.03	0.750			
0.8587	54958.13	3.4320	3.4320	0.1657	25.96	0.03	0.750			
0.8592	54989.17	3.4290	3.4290	0.1601	25.96	0.03	0.750			
0.8597	55019.49	3.4260	3.4260	0.1551	25.96	0.03	0.750			
0.8601	55048.78	3.4230	3.4230	0.1500	25.97	0.04	0.750			
0.8606	55077.35	3.4200	3.4200	0.1444	25.97	0.04	0.750			
0.8610	55104.58	3.4170	3.4169	0.1387	25.97	0.04	0.750			
0.8614	55130.89	3.4140	3.4141	0.1322	25.97	0.04	0.750			
0.8618	55155.61	3.4110	3.4111	0.1254	25.98	0.05	0.750			
0.8622	55179.22	3.4080	3.4080	0.1187	25.98	0.05	0.750			
0.8625	55201.28	3.4050	3.4051	0.1115	25.98	0.05	0.750			
0.8629	55223.05	3.4020	3.4017	0.1014	25.98	0.05	0.750			
0.8632	55242.00	3.3990	3.3991	0.0929	25.98	0.05	0.750			
0.8634	55259.53	3.3960	3.3961	0.0844	25.99	0.06	0.750			
0.8637	55274.71	3.3930	3.3934	0.0737	25.99	0.06	0.750			
0.8639	55289.11	3.3900	3.3903	0.0635	25.99	0.06	0.750			
0.8641	55300.12	3.3870	3.3876	0.0511	25.99	0.06	0.750			
0.8642	55308.74	3.3840	3.3852	0.0387	25.99	0.06	0.750			
0.8643	55314.97	3.3810	3.3828	0.0262	25.99	0.06	0.750			
