Ah_balance (normalized)	Ah_balance (mAh)	Voltage - fit (V)	Voltage -  interpolate (V)	dQ/dV (1/V)	Temperature (°C)	Temperature - diff (°C)	Current (C)	R_DC 0ms (mOhm)	R_DC 50ms (mOhm)	R_DC 50 ms PEC (mOhm)
0.0589	3767.00	4.1970	4.1970	0.7412	25.98	0.05	0.750			
0.0612	3915.36	4.1940	4.1939	0.7547	25.98	0.05	0.750			
0.0633	4053.43	4.1910	4.1911	0.7452	25.98	0.05	0.750			
0.0656	4196.68	4.1880	4.1880	0.7468	25.98	0.05	0.750			
0.0678	4338.33	4.1850	4.1853	0.7530	25.98	0.05	0.750			
0.0701	4484.32	4.1820	4.1821	0.7554	25.98	0.05	0.750			
0.0724	4631.78	4.1790	4.1791	0.7529	25.98	0.05	0.750			
0.0746	4777.52	4.1760	4.1760	0.7537	25.98	0.05	0.750			
0.0769	4922.63	4.1730	4.1732	0.7457	25.98	0.05	0.750			
0.0791	5064.18	4.1700	4.1700	0.7493	25.98	0.05	0.750			
0.0814	5207.36	4.1670	4.1668	0.7484	25.98	0.05	0.750			
0.0836	5350.20	4.1640	4.1639	0.7465	25.98	0.05	0.750			
0.0859	5497.55	4.1610	4.1610	0.7492	25.98	0.05	0.750			
0.0881	5640.67	4.1580	4.1581	0.7488	25.99	0.06	0.750			
0.0903	5781.90	4.1550	4.1550	0.7485	25.99	0.06	0.750			
0.0926	5925.39	4.1520	4.1521	0.7497	25.99	0.06	0.750			
0.0948	6069.11	4.1490	4.1491	0.7518	25.99	0.06	0.750			
0.0971	6215.24	4.1460	4.1459	0.7582	25.99	0.06	0.750			
0.0994	6362.16	4.1430	4.1431	0.7567	25.99	0.06	0.750			
0.1017	6508.06	4.1400	4.1401	0.7601	25.99	0.06	0.750			
0.1039	6651.14	4.1370	4.1370	0.7631	25.99	0.06	0.750			
0.1062	6798.07	4.1340	4.1336	0.7672	25.99	0.06	0.750			
0.1085	6945.55	4.1310	4.1309	0.7710	25.99	0.06	0.750			
0.1109	7095.53	4.1280	4.1281	0.7686	25.99	0.06	0.750			
0.1132	7246.04	4.1250	4.1250	0.7706	26.00	0.07	0.750			
0.1155	7392.41	4.1220	4.1220	0.7636	26.00	0.07	0.750			
0.1178	7537.94	4.1190	4.1190	0.7657	26.00	0.07	0.750			
0.1201	7684.51	4.1160	4.1161	0.7646	26.00	0.07	0.750			
0.1224	7832.06	4.1130	4.1129	0.7685	26.00	0.07	0.750			
0.1247	7980.19	4.1100	4.1101	0.7697	26.00	0.07	0.750			
0.1270	8130.56	4.1070	4.1069	0.7754	26.01	0.08	0.750			
0.1293	8277.11	4.1040	4.1040	0.7741	26.01	0.08	0.750			
0.1316	8425.24	4.1010	4.1010	0.7765	26.01	0.08	0.750			
0.1340	8574.18	4.0980	4.0980	0.7807	26.01	0.08	0.750			
0.1364	8726.72	4.0950	4.0949	0.7832	26.01	0.08	0.750			
0.1387	8876.59	4.0920	4.0921	0.7836	26.01	0.08	0.750			
0.1411	9028.43	4.0890	4.0890	0.7848	26.01	0.08	0.750			
0.1434	9178.41	4.0860	4.0860	0.7837	26.01	0.08	0.750			
0.1457	9327.11	4.0830	4.0830	0.7844	26.01	0.08	0.750			
0.1481	9478.69	4.0800	4.0800	0.7841	26.02	0.09	0.750			
0.1505	9629.18	4.0770	4.0770	0.7903	26.02	0.09	0.750			
0.1528	9781.89	4.0740	4.0740	0.7954	26.02	0.09	0.750			
0.1552	9933.97	4.0710	4.0710	0.7999	26.03	0.10	0.750			
0.1576	10089.42	4.0680	4.0680	0.8021	26.03	0.10	0.750			
0.1601	10244.70	4.0650	4.0650	0.8003	26.04	0.11	0.750			
0.1625	10396.81	4.0620	4.0620	0.8070	26.04	0.11	0.750			
0.1649	10552.78	4.0590	4.0591	0.8124	26.04	0.11	0.750			
0.1673	10707.12	4.0560	4.0559	0.8105	26.05	0.12	0.750			
0.1697	10863.39	4.0530	4.0530	0.8154	26.05	0.12	0.750			
0.1722	11022.63	4.0500	4.0501	0.8101	26.05	0.12	0.750			
0.1747	11177.68	4.0470	4.0469	0.8161	26.05	0.12	0.750			
0.1771	11334.32	4.0440	4.0441	0.8181	26.05	0.12	0.750			
0.1795	11488.81	4.0410	4.0410	0.8190	26.05	0.12	0.750			
0.1820	11645.93	4.0380	4.0380	0.8260	26.05	0.12	0.750			
0.1845	11807.05	4.0350	4.0351	0.8256	26.06	0.13	0.750			
0.1870	11966.54	4.0320	4.0319	0.8300	26.06	0.13	0.750			
0.1895	12127.62	4.0290	4.0291	0.8304	26.06	0.13	0.750			
0.1919	12284.59	4.0260	4.0260	0.8319	26.07	0.14	0.750			
0.1944	12444.57	4.0230	4.0230	0.8335	26.07	0.14	0.750			
0.1970	12605.93	4.0200	4.0199	0.8319	26.07	0.14	0.750			
0.1994	12764.16	4.0170	4.0171	0.8375	26.07	0.14	0.750			
0.2020	12926.30	4.0140	4.0141	0.8415	26.07	0.14	0.750			
0.2045	13087.06	4.0110	4.0110	0.8430	26.07	0.14	0.750			
0.2070	13249.16	4.0080	4.0079	0.8459	26.07	0.14	0.750			
0.2096	13415.52	4.0050	4.0051	0.8314	26.08	0.15	0.750			
0.2121	13575.53	4.0020	4.0019	0.8404	26.08	0.15	0.750			
0.2146	13733.22	3.9990	3.9992	0.8490	26.08	0.15	0.750			
0.2171	13894.93	3.9960	3.9961	0.8513	26.09	0.16	0.750			
0.2197	14057.97	3.9930	3.9931	0.8619	26.09	0.16	0.750			
0.2223	14227.81	3.9900	3.9901	0.8580	26.09	0.16	0.750			
0.2250	14397.65	3.9870	3.9871	0.8537	26.09	0.16	0.750			
0.2276	14565.34	3.9840	3.9840	0.8298	26.09	0.16	0.750			
0.2300	14717.67	3.9810	3.9814	0.8078	26.09	0.16	0.750			
0.2322	14862.61	3.9780	3.9785	0.8223	26.09	0.16	0.750			
0.2346	15016.22	3.9750	3.9756	0.8302	26.09	0.16	0.750			
0.2371	15176.44	3.9720	3.9709	0.8559	26.09	0.16	0.750			
0.2399	15351.28	3.9690	3.9696	0.8806	26.09	0.16	0.750			
0.2426	15526.72	3.9660	3.9661	0.8903	26.09	0.16	0.750			
0.2453	15701.09	3.9630	3.9630	0.8904	26.09	0.16	0.750			
0.2480	15868.95	3.9600	3.9599	0.8543	26.09	0.16	0.750			
0.2504	16026.45	3.9570	3.9570	0.8537	26.09	0.16	0.750			
0.2530	16191.23	3.9540	3.9541	0.8588	26.09	0.16	0.750			
0.2555	16354.15	3.9510	3.9509	0.8572	26.09	0.16	0.750			
0.2581	16520.38	3.9480	3.9481	0.8626	26.09	0.16	0.750			
0.2607	16686.43	3.9450	3.9451	0.8656	26.09	0.16	0.750			
0.2633	16852.73	3.9420	3.9420	0.8686	26.09	0.16	0.750			
0.2659	17020.34	3.9390	3.9390	0.8699	26.09	0.16	0.750			
0.2685	17186.84	3.9360	3.9356	0.8745	26.09	0.16	0.750			
0.2712	17358.32	3.9330	3.9330	0.8740	26.09	0.16	0.750			
0.2738	17526.06	3.9300	3.9300	0.8770	26.08	0.15	0.750			
0.2765	17693.29	3.9270	3.9271	0.8873	26.08	0.15	0.750			
0.2791	17864.34	3.9240	3.9240	0.8904	26.07	0.14	0.750			
0.2818	18034.11	3.9210	3.9209	0.8932	26.07	0.14	0.750			
0.2845	18210.23	3.9180	3.9180	0.8801	26.07	0.14	0.750			
0.2872	18378.49	3.9150	3.9151	0.8919	26.07	0.14	0.750			
0.2898	18549.30	3.9120	3.9121	0.8989	26.07	0.14	0.750			
0.2925	18720.00	3.9090	3.9092	0.9007	26.07	0.14	0.750			
0.2951	18889.19	3.9060	3.9060	0.9057	26.07	0.14	0.750			
0.2979	19067.71	3.9030	3.9031	0.9055	26.06	0.13	0.750			
0.3007	19243.84	3.9000	3.9000	0.9106	26.05	0.12	0.750			
0.3035	19421.01	3.8970	3.8971	0.9103	26.05	0.12	0.750			
0.3061	19593.13	3.8940	3.8938	0.9010	26.04	0.11	0.750			
0.3088	19765.97	3.8910	3.8910	0.8997	26.03	0.10	0.750			
0.3115	19938.81	3.8880	3.8881	0.9047	26.03	0.10	0.750			
0.3142	20111.24	3.8850	3.8851	0.9087	26.02	0.09	0.750			
0.3170	20288.20	3.8820	3.8820	0.9118	26.01	0.08	0.750			
0.3197	20463.10	3.8790	3.8789	0.9135	26.01	0.08	0.750			
0.3225	20639.39	3.8760	3.8761	0.9136	26.00	0.07	0.750			
0.3252	20814.26	3.8730	3.8731	0.9135	26.00	0.07	0.750			
0.3280	20989.59	3.8700	3.8700	0.9208	26.00	0.07	0.750			
0.3307	21166.35	3.8670	3.8668	0.9197	25.99	0.06	0.750			
0.3335	21344.03	3.8640	3.8640	0.9172	25.98	0.05	0.750			
0.3362	21519.65	3.8610	3.8611	0.9267	25.97	0.04	0.750			
0.3390	21698.63	3.8580	3.8580	0.9328	25.96	0.03	0.750			
0.3419	21878.63	3.8550	3.8550	0.9384	25.96	0.03	0.750			
0.3447	22057.67	3.8520	3.8520	0.9367	25.95	0.02	0.750			
0.3475	22237.66	3.8490	3.8491	0.9363	25.94	0.01	0.750			
0.3503	22419.38	3.8460	3.8460	0.9459	25.94	0.01	0.750			
0.3531	22600.99	3.8430	3.8430	0.9456	25.93	0.00	0.750			
0.3560	22781.25	3.8400	3.8399	0.9419	25.93	0.00	0.750			
0.3588	22963.80	3.8370	3.8371	0.9439	25.93	-0.00	0.750			
0.3616	23144.42	3.8340	3.8340	0.9519	25.92	-0.01	0.750			
0.3645	23327.49	3.8310	3.8310	0.9628	25.92	-0.01	0.750			
0.3674	23511.48	3.8280	3.8280	0.9691	25.91	-0.02	0.750			
0.3703	23699.34	3.8250	3.8250	0.9773	25.90	-0.03	0.750			
0.3733	23889.85	3.8220	3.8221	0.9935	25.90	-0.03	0.750			
0.3763	24082.03	3.8190	3.8190	1.0021	25.89	-0.04	0.750			
0.3793	24276.19	3.8160	3.8161	1.0087	25.88	-0.05	0.750			
0.3823	24469.71	3.8130	3.8130	1.0097	25.87	-0.06	0.750			
0.3854	24663.17	3.8100	3.8100	1.0221	25.86	-0.07	0.750			
0.3884	24860.36	3.8070	3.8070	1.0310	25.86	-0.07	0.750			
0.3915	25058.74	3.8040	3.8041	1.0421	25.85	-0.08	0.750			
0.3947	25261.26	3.8010	3.8010	1.0475	25.85	-0.08	0.750			
0.3979	25462.95	3.7980	3.7980	1.0656	25.84	-0.09	0.750			
0.4010	25667.00	3.7950	3.7950	1.0844	25.83	-0.10	0.750			
0.4043	25875.89	3.7920	3.7921	1.1055	25.82	-0.11	0.750			
0.4076	26089.07	3.7890	3.7891	1.1201	25.82	-0.11	0.750			
0.4111	26308.39	3.7860	3.7860	1.1456	25.82	-0.11	0.750			
0.4146	26532.45	3.7830	3.7830	1.1562	25.81	-0.12	0.750			
0.4180	26754.74	3.7800	3.7799	1.1882	25.81	-0.12	0.750			
0.4216	26980.72	3.7770	3.7771	1.2150	25.80	-0.13	0.750			
0.4253	27218.39	3.7740	3.7741	1.2401	25.79	-0.14	0.750	0.314	0.465	
0.4291	27463.63	3.7710	3.7712	1.2560	25.78	-0.15	0.750			
0.4329	27706.52	3.7680	3.7682	1.2819	25.77	-0.16	0.750			
0.4368	27953.75	3.7650	3.7651	1.3102	25.76	-0.17	0.750			
0.4408	28208.10	3.7620	3.7620	1.3272	25.75	-0.18	0.750			
0.4447	28458.98	3.7590	3.7588	1.3548	25.75	-0.18	0.750			
0.4488	28721.35	3.7560	3.7561	1.3916	25.74	-0.19	0.750			
0.4531	28999.53	3.7530	3.7531	1.4291	25.73	-0.20	0.750			
0.4574	29276.12	3.7500	3.7501	1.4561	25.72	-0.21	0.750			
0.4618	29555.38	3.7470	3.7471	1.4798	25.70	-0.23	0.750			
0.4662	29837.89	3.7440	3.7442	1.5114	25.69	-0.24	0.750			
0.4708	30131.01	3.7410	3.7409	1.5557	25.68	-0.25	0.750			
0.4755	30435.16	3.7380	3.7377	1.5848	25.67	-0.26	0.750			
0.4804	30747.03	3.7350	3.7349	1.6262	25.66	-0.27	0.750			
0.4854	31062.86	3.7320	3.7318	1.6876	25.65	-0.28	0.750			
0.4905	31389.30	3.7290	3.7292	1.7171	25.63	-0.30	0.750			
0.4957	31721.71	3.7260	3.7260	1.7611	25.62	-0.31	0.750			
0.5011	32068.34	3.7230	3.7227	1.8085	25.61	-0.32	0.750			
0.5066	32421.46	3.7200	3.7203	1.8537	25.60	-0.33	0.750			
0.5123	32785.46	3.7170	3.7172	1.9148	25.59	-0.34	0.750			
0.5181	33155.84	3.7140	3.7139	1.9575	25.58	-0.35	0.750			
0.5240	33533.46	3.7110	3.7111	2.0248	25.57	-0.36	0.750			
0.5302	33931.62	3.7080	3.7078	2.0812	25.55	-0.38	0.750			
0.5365	34335.45	3.7050	3.7051	2.1540	25.54	-0.39	0.750			
0.5431	34758.03	3.7020	3.7022	2.2478	25.52	-0.41	0.750			
0.5500	35197.96	3.6990	3.6987	2.3186	25.51	-0.42	0.750			
0.5569	35643.79	3.6960	3.6960	2.3881	25.50	-0.43	0.750			
0.5643	36112.32	3.6930	3.6931	2.4637	25.50	-0.43	0.750			
0.5718	36597.07	3.6900	3.6900	2.5724	25.49	-0.44	0.750			
0.5795	37090.49	3.6870	3.6869	2.6379	25.48	-0.45	0.750			
0.5876	37608.58	3.6840	3.6839	2.7476	25.48	-0.45	0.750			
0.5961	38148.44	3.6810	3.6808	2.7586	25.48	-0.45	0.750			
0.6047	38699.99	3.6780	3.6780	2.6944	25.48	-0.45	0.750			
0.6127	39215.82	3.6750	3.6750	2.5439	25.48	-0.45	0.750			
0.6202	39691.45	3.6720	3.6721	2.3306	25.48	-0.45	0.750			
0.6266	40105.31	3.6690	3.6690	2.0983	25.49	-0.44	0.750			
0.6326	40484.62	3.6660	3.6661	1.9183	25.50	-0.43	0.750			
0.6380	40829.19	3.6630	3.6627	1.7553	25.51	-0.42	0.750			
0.6428	41142.35	3.6600	3.6597	1.6220	25.51	-0.42	0.750			
0.6474	41436.38	3.6570	3.6572	1.5188	25.51	-0.42	0.750			
0.6518	41714.51	3.6540	3.6541	1.4251	25.52	-0.41	0.750			
0.6560	41983.24	3.6510	3.6507	1.3438	25.52	-0.41	0.750			
0.6598	42229.97	3.6480	3.6481	1.2692	25.53	-0.40	0.750			
0.6635	42464.43	3.6450	3.6451	1.2209	25.53	-0.40	0.750			
0.6671	42691.92	3.6420	3.6419	1.1852	25.54	-0.39	0.750			
0.6705	42911.76	3.6390	3.6391	1.1556	25.54	-0.39	0.750			
0.6738	43124.42	3.6360	3.6360	1.1504	25.55	-0.38	0.750			
0.6773	43346.41	3.6330	3.6330	1.1646	25.55	-0.38	0.750			
0.6808	43574.02	3.6300	3.6297	1.1656	25.56	-0.37	0.750			
0.6844	43799.05	3.6270	3.6271	1.1731	25.56	-0.37	0.750			
0.6879	44026.04	3.6240	3.6241	1.1742	25.57	-0.36	0.750			
0.6915	44255.24	3.6210	3.6211	1.1656	25.57	-0.36	0.750			
0.6950	44479.85	3.6180	3.6179	1.1302	25.57	-0.36	0.750			
0.6983	44693.20	3.6150	3.6150	1.1209	25.57	-0.36	0.750			
0.7016	44904.15	3.6120	3.6122	1.1115	25.58	-0.35	0.750			
0.7049	45114.91	3.6090	3.6089	1.1103	25.58	-0.35	0.750			
0.7082	45323.28	3.6060	3.6061	1.1087	25.58	-0.35	0.750			
0.7115	45534.37	3.6030	3.6031	1.1224	25.59	-0.34	0.750			
0.7149	45751.90	3.6000	3.6000	1.1552	25.59	-0.34	0.750			
0.7184	45980.26	3.5970	3.5966	1.1847	25.60	-0.33	0.750			
0.7220	46204.98	3.5940	3.5940	1.2103	25.60	-0.33	0.750			
0.7256	46439.69	3.5910	3.5912	1.2567	25.60	-0.33	0.750			
0.7295	46685.51	3.5880	3.5879	1.2959	25.60	-0.33	0.750			
0.7334	46937.18	3.5850	3.5850	1.3593	25.60	-0.33	0.750			
0.7375	47201.73	3.5820	3.5820	1.3939	25.61	-0.32	0.750			
0.7418	47478.35	3.5790	3.5790	1.4157	25.62	-0.31	0.750			
0.7462	47758.72	3.5760	3.5762	1.4591	25.62	-0.31	0.750			
0.7506	48039.82	3.5730	3.5727	1.4921	25.63	-0.30	0.750			
0.7551	48325.89	3.5700	3.5700	1.5233	25.63	-0.30	0.750			
0.7597	48621.00	3.5670	3.5671	1.5475	25.63	-0.30	0.750			
0.7644	48921.87	3.5640	3.5640	1.5812	25.63	-0.30	0.750			
0.7692	49229.04	3.5610	3.5609	1.6214	25.63	-0.30	0.750			
0.7743	49554.00	3.5580	3.5580	1.6452	25.63	-0.30	0.750			
0.7792	49870.89	3.5550	3.5551	1.6446	25.64	-0.29	0.750			
0.7842	50190.44	3.5520	3.5519	1.6616	25.64	-0.29	0.750			
0.7892	50511.56	3.5490	3.5494	1.6811	25.65	-0.28	0.750			
0.7942	50828.97	3.5460	3.5460	1.7156	25.66	-0.27	0.750			
0.7994	51161.10	3.5430	3.5430	1.7262	25.68	-0.25	0.750			
0.8048	51507.30	3.5400	3.5399	1.6926	25.70	-0.23	0.750			
0.8103	51857.32	3.5370	3.5369	1.5422	25.72	-0.21	0.750			
0.8150	52157.76	3.5340	3.5346	1.3408	25.74	-0.19	0.750			
0.8190	52412.85	3.5310	3.5317	1.1037	25.75	-0.18	0.750			
0.8218	52598.23	3.5280	3.5277	0.8413	25.77	-0.16	0.750			
0.8234	52698.22	3.5250	3.5247	0.6129	25.78	-0.15	0.750			
0.8248	52785.37	3.5220	3.5217	0.4735	25.79	-0.14	0.750			
0.8258	52850.15	3.5190	3.5189	0.3949	25.80	-0.13	0.750			
0.8269	52918.84	3.5160	3.5159	0.3564	25.80	-0.13	0.750			
0.8278	52981.00	3.5130	3.5130	0.3288	25.81	-0.12	0.750			
0.8288	53040.79	3.5100	3.5100	0.3117	25.81	-0.12	0.750			
0.8297	53098.30	3.5070	3.5071	0.3006	25.82	-0.11	0.750			
0.8305	53154.82	3.5040	3.5040	0.2922	25.83	-0.10	0.750			
0.8314	53209.50	3.5010	3.5010	0.2853	25.83	-0.10	0.750			
0.8322	53263.18	3.4980	3.4980	0.2777	25.84	-0.09	0.750			
0.8331	53316.43	3.4950	3.4950	0.2731	25.85	-0.08	0.750			
0.8339	53368.62	3.4920	3.4921	0.2668	25.85	-0.08	0.750			
0.8347	53419.30	3.4890	3.4890	0.2596	25.86	-0.07	0.750			
0.8354	53468.21	3.4860	3.4859	0.2535	25.86	-0.07	0.750			
0.8362	53516.04	3.4830	3.4830	0.2470	25.87	-0.06	0.750			
0.8369	53562.52	3.4800	3.4800	0.2416	25.88	-0.05	0.750			
0.8376	53608.70	3.4770	3.4770	0.2364	25.88	-0.05	0.750			
0.8383	53653.55	3.4740	3.4740	0.2321	25.89	-0.04	0.750			
0.8390	53697.49	3.4710	3.4711	0.2274	25.89	-0.04	0.750			
0.8397	53740.94	3.4680	3.4681	0.2230	25.90	-0.03	0.750			
0.8404	53783.36	3.4650	3.4648	0.2182	25.90	-0.03	0.750			
0.8410	53824.54	3.4620	3.4619	0.2132	25.91	-0.02	0.750			
0.8416	53865.05	3.4590	3.4592	0.2088	25.91	-0.02	0.750			
0.8423	53904.70	3.4560	3.4560	0.2041	25.92	-0.01	0.750			
0.8429	53943.73	3.4530	3.4529	0.2000	25.92	-0.01	0.750			
0.8435	53981.30	3.4500	3.4500	0.1948	25.93	-0.00	0.750			
0.8440	54018.50	3.4470	3.4470	0.1899	25.93	0.00	0.750			
0.8446	54054.68	3.4440	3.4439	0.1854	25.94	0.01	0.750			
0.8452	54090.02	3.4410	3.4410	0.1801	25.94	0.01	0.750			
0.8457	54124.14	3.4380	3.4380	0.1743	25.95	0.02	0.750			
0.8462	54156.92	3.4350	3.4350	0.1692	25.95	0.02	0.750			
0.8467	54188.88	3.4320	3.4321	0.1636	25.95	0.02	0.750			
0.8472	54219.55	3.4290	3.4290	0.1583	25.96	0.03	0.750			
0.8476	54249.31	3.4260	3.4259	0.1528	25.96	0.03	0.750			
0.8481	54278.29	3.4230	3.4230	0.1482	25.97	0.04	0.750			
0.8485	54306.27	3.4200	3.4201	0.1433	25.97	0.04	0.750			
0.8490	54333.55	3.4170	3.4170	0.1375	25.97	0.04	0.750			
0.8494	54359.62	3.4140	3.4139	0.1320	25.98	0.05	0.750			
0.8498	54384.30	3.4110	3.4110	0.1256	25.98	0.05	0.750			
0.8501	54407.82	3.4080	3.4081	0.1194	25.98	0.05	0.750			
0.8505	54430.44	3.4050	3.4049	0.1124	25.98	0.05	0.750			
0.8508	54451.54	3.4020	3.4020	0.1056	25.99	0.06	0.750			
0.8511	54472.26	3.3990	3.3989	0.0965	25.99	0.06	0.750			
0.8514	54489.82	3.3960	3.3959	0.0864	25.99	0.06	0.750			
0.8517	54506.24	3.3930	3.3931	0.0780	25.99	0.06	0.750			
0.8519	54520.14	3.3900	3.3902	0.0668	26.00	0.07	0.750			
0.8521	54532.57	3.3870	3.3873	0.0559	26.00	0.07	0.750			
0.8522	54542.14	3.3840	3.3847	0.0438	26.00	0.07	0.750			
0.8523	54549.39	3.3810	3.3823	0.0317	26.00	0.07	0.750			
0.8524	54554.32	3.3780	3.3800	0.0197	26.00	0.07	0.750			
