Ah_balance (normalized)	Ah_balance (mAh)	Voltage - fit (V)	Voltage -  interpolate (V)	dQ/dV (1/V)	Temperature (°C)	Temperature - diff (°C)	Current (C)	R_DC 0ms (mOhm)	R_DC 50ms (mOhm)	R_DC 50 ms PEC (mOhm)
0.0003	22.21	4.1630	4.1628	-0.1273	26.00	0.01	-0.750			
0.0008	51.04	4.1600	4.1597	-0.1729	26.00	0.01	-0.750			
0.0014	89.61	4.1570	4.1570	-0.2171	25.99	0.00	-0.750			
0.0021	135.85	4.1540	4.1539	-0.2570	25.99	0.00	-0.750			
0.0029	188.75	4.1510	4.1510	-0.2980	25.99	-0.00	-0.750			
0.0039	251.35	4.1480	4.1481	-0.3350	25.99	-0.00	-0.750			
0.0050	318.96	4.1450	4.1449	-0.3711	25.98	-0.01	-0.750			
0.0062	393.93	4.1420	4.1420	-0.4058	25.98	-0.01	-0.750			
0.0074	475.38	4.1390	4.1390	-0.4399	25.97	-0.02	-0.750			
0.0088	564.35	4.1360	4.1360	-0.4715	25.97	-0.02	-0.750			
0.0103	658.32	4.1330	4.1330	-0.4991	25.97	-0.02	-0.750			
0.0118	757.85	4.1300	4.1300	-0.5213	25.96	-0.03	-0.750			
0.0135	861.11	4.1270	4.1270	-0.5440	25.96	-0.03	-0.750			
0.0151	966.95	4.1240	4.1240	-0.5624	25.95	-0.04	-0.750			
0.0168	1077.26	4.1210	4.1209	-0.5786	25.95	-0.04	-0.750			
0.0186	1189.30	4.1180	4.1180	-0.5960	25.94	-0.05	-0.750			
0.0204	1305.93	4.1150	4.1151	-0.6108	25.94	-0.05	-0.750			
0.0223	1426.04	4.1120	4.1120	-0.6228	25.94	-0.05	-0.750			
0.0242	1547.59	4.1090	4.1090	-0.6320	25.94	-0.05	-0.750			
0.0261	1668.54	4.1060	4.1060	-0.6415	25.93	-0.06	-0.750			
0.0280	1793.12	4.1030	4.1032	-0.6477	25.93	-0.06	-0.750			
0.0300	1918.65	4.1000	4.0999	-0.6542	25.93	-0.06	-0.750			
0.0319	2044.51	4.0970	4.0970	-0.6610	25.93	-0.06	-0.750			
0.0340	2172.92	4.0940	4.0941	-0.6730	25.92	-0.07	-0.750			
0.0360	2303.84	4.0910	4.0909	-0.6795	25.92	-0.07	-0.750			
0.0380	2434.56	4.0880	4.0881	-0.6832	25.92	-0.07	-0.750			
0.0401	2565.52	4.0850	4.0853	-0.6860	25.92	-0.07	-0.750			
0.0422	2698.80	4.0820	4.0819	-0.6917	25.92	-0.07	-0.750			
0.0442	2831.44	4.0790	4.0791	-0.6946	25.92	-0.07	-0.750			
0.0463	2964.89	4.0760	4.0760	-0.6939	25.92	-0.07	-0.750			
0.0484	3099.34	4.0730	4.0731	-0.7007	25.91	-0.08	-0.750			
0.0505	3234.59	4.0700	4.0700	-0.7000	25.91	-0.08	-0.750			
0.0526	3367.96	4.0670	4.0671	-0.7025	25.91	-0.08	-0.750			
0.0547	3503.14	4.0640	4.0640	-0.7044	25.91	-0.08	-0.750			
0.0568	3636.46	4.0610	4.0611	-0.7129	25.91	-0.08	-0.750			
0.0590	3774.30	4.0580	4.0580	-0.7196	25.91	-0.08	-0.750			
0.0612	3914.87	4.0550	4.0549	-0.7248	25.91	-0.08	-0.750			
0.0634	4054.53	4.0520	4.0520	-0.7235	25.91	-0.08	-0.750			
0.0655	4194.38	4.0490	4.0492	-0.7290	25.91	-0.08	-0.750			
0.0677	4333.13	4.0460	4.0460	-0.7290	25.91	-0.08	-0.750			
0.0699	4472.23	4.0430	4.0430	-0.7336	25.91	-0.08	-0.750			
0.0721	4612.81	4.0400	4.0399	-0.7330	25.91	-0.08	-0.750			
0.0743	4754.99	4.0370	4.0370	-0.7405	25.91	-0.08	-0.750			
0.0765	4897.54	4.0340	4.0339	-0.7460	25.91	-0.08	-0.750			
0.0788	5042.40	4.0310	4.0308	-0.7490	25.91	-0.08	-0.750			
0.0810	5185.59	4.0280	4.0280	-0.7491	25.91	-0.08	-0.750			
0.0833	5329.44	4.0250	4.0250	-0.7509	25.91	-0.08	-0.750			
0.0855	5474.10	4.0220	4.0221	-0.7471	25.91	-0.08	-0.750			
0.0878	5620.16	4.0190	4.0189	-0.7470	25.91	-0.08	-0.750			
0.0900	5762.42	4.0160	4.0161	-0.7421	25.91	-0.08	-0.750			
0.0922	5903.30	4.0130	4.0130	-0.7453	25.91	-0.08	-0.750			
0.0945	6045.52	4.0100	4.0100	-0.7478	25.92	-0.07	-0.750			
0.0967	6189.77	4.0070	4.0069	-0.7475	25.92	-0.07	-0.750			
0.0990	6333.49	4.0040	4.0040	-0.7491	25.92	-0.07	-0.750			
0.1012	6478.90	4.0010	4.0011	-0.7562	25.93	-0.06	-0.750			
0.1035	6623.87	3.9980	3.9980	-0.7576	25.93	-0.06	-0.750			
0.1058	6768.27	3.9950	3.9949	-0.7601	25.93	-0.06	-0.750			
0.1080	6914.03	3.9920	3.9920	-0.7617	25.93	-0.06	-0.750			
0.1103	7060.99	3.9890	3.9890	-0.7663	25.93	-0.06	-0.750			
0.1127	7210.11	3.9860	3.9860	-0.7685	25.93	-0.06	-0.750			
0.1150	7358.37	3.9830	3.9830	-0.7655	25.93	-0.06	-0.750			
0.1172	7503.65	3.9800	3.9800	-0.7671	25.93	-0.06	-0.750			
0.1195	7650.42	3.9770	3.9770	-0.7690	25.93	-0.06	-0.750			
0.1218	7797.87	3.9740	3.9739	-0.7740	25.94	-0.05	-0.750			
0.1242	7946.68	3.9710	3.9710	-0.7770	25.94	-0.05	-0.750			
0.1265	8098.09	3.9680	3.9680	-0.7798	25.94	-0.05	-0.750			
0.1289	8248.66	3.9650	3.9651	-0.7812	25.94	-0.05	-0.750			
0.1312	8399.60	3.9620	3.9620	-0.7797	25.94	-0.05	-0.750			
0.1336	8547.96	3.9590	3.9590	-0.7758	25.94	-0.05	-0.750			
0.1359	8696.33	3.9560	3.9560	-0.7746	25.95	-0.04	-0.750			
0.1382	8844.56	3.9530	3.9529	-0.7733	25.95	-0.04	-0.750			
0.1405	8993.00	3.9500	3.9501	-0.7759	25.95	-0.04	-0.750			
0.1428	9141.70	3.9470	3.9470	-0.7780	25.95	-0.04	-0.750			
0.1452	9290.95	3.9440	3.9440	-0.7892	25.96	-0.03	-0.750			
0.1476	9444.15	3.9410	3.9410	-0.7959	25.96	-0.03	-0.750			
0.1500	9598.46	3.9380	3.9379	-0.7965	25.97	-0.02	-0.750			
0.1524	9752.26	3.9350	3.9353	-0.7986	25.97	-0.02	-0.750			
0.1548	9906.09	3.9320	3.9320	-0.8053	25.97	-0.02	-0.750			
0.1572	10060.91	3.9290	3.9290	-0.8097	25.97	-0.02	-0.750			
0.1596	10216.09	3.9260	3.9259	-0.8081	25.97	-0.02	-0.750			
0.1621	10371.28	3.9230	3.9230	-0.8048	25.97	-0.02	-0.750			
0.1645	10529.08	3.9200	3.9202	-0.8103	25.97	-0.02	-0.750			
0.1669	10684.62	3.9170	3.9169	-0.8091	25.97	-0.02	-0.750			
0.1694	10839.63	3.9140	3.9140	-0.8089	25.97	-0.02	-0.750			
0.1718	10993.19	3.9110	3.9109	-0.8092	25.97	-0.02	-0.750			
0.1742	11147.38	3.9080	3.9080	-0.8117	25.97	-0.02	-0.750			
0.1767	11306.26	3.9050	3.9051	-0.8208	25.97	-0.02	-0.750			
0.1791	11464.64	3.9020	3.9018	-0.8222	25.97	-0.02	-0.750			
0.1816	11621.62	3.8990	3.8990	-0.8286	25.98	-0.01	-0.750			
0.1841	11782.58	3.8960	3.8960	-0.8284	25.98	-0.01	-0.750			
0.1866	11941.52	3.8930	3.8930	-0.8242	25.98	-0.01	-0.750			
0.1891	12101.70	3.8900	3.8899	-0.8228	25.99	-0.00	-0.750			
0.1915	12258.32	3.8870	3.8871	-0.8237	25.99	0.00	-0.750			
0.1940	12415.26	3.8840	3.8840	-0.8240	26.00	0.01	-0.750			
0.1965	12573.28	3.8810	3.8808	-0.8276	26.00	0.01	-0.750			
0.1989	12731.10	3.8780	3.8781	-0.8283	26.00	0.01	-0.750			
0.2015	12893.53	3.8750	3.8750	-0.8332	26.01	0.02	-0.750			
0.2040	13055.03	3.8720	3.8721	-0.8387	26.01	0.02	-0.750			
0.2065	13215.67	3.8690	3.8690	-0.8418	26.02	0.03	-0.750			
0.2090	13376.15	3.8660	3.8659	-0.8392	26.02	0.03	-0.750			
0.2115	13538.71	3.8630	3.8629	-0.8388	26.02	0.03	-0.750			
0.2141	13699.94	3.8600	3.8601	-0.8391	26.03	0.04	-0.750			
0.2166	13862.49	3.8570	3.8570	-0.8385	26.03	0.04	-0.750			
0.2191	14022.79	3.8540	3.8539	-0.8428	26.03	0.04	-0.750			
0.2216	14182.94	3.8510	3.8510	-0.8394	26.03	0.04	-0.750			
0.2241	14345.03	3.8480	3.8479	-0.8414	26.03	0.04	-0.750			
0.2267	14507.40	3.8450	3.8450	-0.8408	26.03	0.04	-0.750			
0.2292	14669.81	3.8420	3.8419	-0.8410	26.03	0.04	-0.750			
0.2317	14829.49	3.8390	3.8390	-0.8420	26.04	0.05	-0.750			
0.2342	14990.66	3.8360	3.8361	-0.8421	26.04	0.05	-0.750			
0.2367	15151.33	3.8330	3.8330	-0.8405	26.04	0.05	-0.750			
0.2393	15315.46	3.8300	3.8299	-0.8467	26.05	0.06	-0.750			
0.2418	15478.39	3.8270	3.8270	-0.8468	26.05	0.06	-0.750			
0.2444	15641.88	3.8240	3.8240	-0.8468	26.06	0.07	-0.750			
0.2469	15804.19	3.8210	3.8210	-0.8413	26.06	0.07	-0.750			
0.2494	15964.66	3.8180	3.8180	-0.8337	26.06	0.07	-0.750			
0.2520	16125.46	3.8150	3.8151	-0.8323	26.07	0.08	-0.750			
0.2544	16283.87	3.8120	3.8120	-0.8298	26.07	0.08	-0.750			
0.2569	16441.05	3.8090	3.8090	-0.8362	26.08	0.09	-0.750			
0.2594	16602.58	3.8060	3.8059	-0.8398	26.08	0.09	-0.750			
0.2620	16765.67	3.8030	3.8029	-0.8381	26.08	0.09	-0.750			
0.2645	16929.48	3.8000	3.8000	-0.8357	26.09	0.10	-0.750			
0.2670	17088.63	3.7970	3.7970	-0.8359	26.09	0.10	-0.750			
0.2695	17249.02	3.7940	3.7940	-0.8316	26.09	0.10	-0.750			
0.2720	17407.01	3.7910	3.7909	-0.8246	26.10	0.11	-0.750			
0.2744	17561.86	3.7880	3.7881	-0.8171	26.10	0.11	-0.750			
0.2769	17722.49	3.7850	3.7851	-0.8224	26.10	0.11	-0.750			
0.2794	17880.50	3.7820	3.7819	-0.8195	26.10	0.11	-0.750			
0.2818	18037.01	3.7790	3.7790	-0.8225	26.10	0.11	-0.750			
0.2843	18193.09	3.7760	3.7761	-0.8181	26.11	0.12	-0.750			
0.2867	18351.42	3.7730	3.7729	-0.8184	26.11	0.12	-0.750			
0.2892	18509.67	3.7700	3.7699	-0.8176	26.11	0.12	-0.750			
0.2917	18666.38	3.7670	3.7671	-0.8141	26.11	0.12	-0.750			
0.2941	18821.06	3.7640	3.7640	-0.8185	26.12	0.13	-0.750			
0.2966	18980.27	3.7610	3.7609	-0.8086	26.12	0.13	-0.750			
0.2990	19133.80	3.7580	3.7580	-0.8007	26.12	0.13	-0.750			
0.3014	19288.02	3.7550	3.7549	-0.8052	26.13	0.14	-0.750			
0.3038	19441.94	3.7520	3.7520	-0.8044	26.13	0.14	-0.750			
0.3062	19595.20	3.7490	3.7488	-0.8051	26.14	0.15	-0.750			
0.3086	19747.99	3.7460	3.7460	-0.8079	26.14	0.15	-0.750			
0.3110	19901.79	3.7430	3.7431	-0.8095	26.14	0.15	-0.750			
0.3135	20062.20	3.7400	3.7399	-0.8203	26.15	0.16	-0.750			
0.3159	20219.10	3.7370	3.7370	-0.8261	26.15	0.16	-0.750			
0.3184	20377.82	3.7340	3.7339	-0.8300	26.15	0.16	-0.750			
0.3209	20538.96	3.7310	3.7310	-0.8401	26.15	0.16	-0.750			
0.3235	20701.18	3.7280	3.7280	-0.8476	26.15	0.16	-0.750			
0.3260	20863.88	3.7250	3.7250	-0.8565	26.15	0.16	-0.750			
0.3286	21029.12	3.7220	3.7221	-0.8685	26.15	0.16	-0.750			
0.3312	21196.36	3.7190	3.7189	-0.8818	26.15	0.16	-0.750			
0.3338	21365.77	3.7160	3.7160	-0.8922	26.15	0.16	-0.750			
0.3365	21537.06	3.7130	3.7130	-0.9049	26.15	0.16	-0.750			
0.3393	21715.82	3.7100	3.7099	-0.9229	26.15	0.16	-0.750			
0.3421	21892.22	3.7070	3.7070	-0.9437	26.15	0.16	-0.750			
0.3449	22075.72	3.7040	3.7040	-0.9605	26.15	0.16	-0.750			
0.3478	22261.22	3.7010	3.7010	-0.9761	26.15	0.16	-0.750			
0.3508	22451.33	3.6980	3.6980	-0.9918	26.15	0.16	-0.750			
0.3538	22644.01	3.6950	3.6951	-1.0141	26.15	0.16	-0.750			
0.3569	22840.06	3.6920	3.6919	-1.0295	26.15	0.16	-0.750			
0.3600	23039.23	3.6890	3.6890	-1.0487	26.15	0.16	-0.750			
0.3631	23238.55	3.6860	3.6860	-1.0674	26.15	0.16	-0.750			
0.3664	23447.44	3.6830	3.6831	-1.1050	26.15	0.16	-0.750			
0.3698	23665.32	3.6800	3.6799	-1.1288	26.14	0.15	-0.750			
0.3732	23886.11	3.6770	3.6769	-1.1449	26.14	0.15	-0.750			
0.3767	24106.73	3.6740	3.6741	-1.1669	26.13	0.14	-0.750			
0.3802	24334.04	3.6710	3.6709	-1.1990	26.13	0.14	-0.750			
0.3838	24565.31	3.6680	3.6678	-1.2172	26.13	0.14	-0.750			
0.3875	24799.17	3.6650	3.6649	-1.2419	26.12	0.13	-0.750			
0.3912	25038.04	3.6620	3.6622	-1.2669	26.12	0.13	-0.750			
0.3952	25290.23	3.6590	3.6589	-1.3056	26.11	0.12	-0.750			
0.3991	25542.00	3.6560	3.6559	-1.3323	26.10	0.11	-0.750			
0.4031	25796.44	3.6530	3.6531	-1.3612	26.09	0.10	-0.750			
0.4073	26066.53	3.6500	3.6499	-1.3920	26.08	0.09	-0.750			
0.4115	26335.13	3.6470	3.6470	-1.4377	26.08	0.09	-0.750			
0.4158	26613.57	3.6440	3.6442	-1.4698	26.07	0.08	-0.750			
0.4203	26899.72	3.6410	3.6408	-1.5030	26.06	0.07	-0.750			
0.4249	27192.99	3.6380	3.6380	-1.5366	26.05	0.06	-0.750			
0.4295	27487.37	3.6350	3.6349	-1.5743	26.05	0.06	-0.750			
0.4344	27798.47	3.6320	3.6321	-1.6132	26.04	0.05	-0.750			
0.4392	28111.26	3.6290	3.6291	-1.6379	26.03	0.04	-0.750			
0.4442	28429.58	3.6260	3.6259	-1.6522	26.03	0.04	-0.750			
0.4492	28747.27	3.6230	3.6227	-1.6860	26.02	0.03	-0.750			
0.4542	29069.96	3.6200	3.6200	-1.7072	26.02	0.03	-0.750	0.397	0.511	
0.4594	29398.90	3.6170	3.6170	-1.7376	26.01	0.02	-0.750			
0.4646	29731.73	3.6140	3.6141	-1.7612	26.00	0.01	-0.750			
0.4699	30070.42	3.6110	3.6110	-1.7962	26.00	0.01	-0.750			
0.4754	30422.80	3.6080	3.6081	-1.8362	25.99	0.00	-0.750			
0.4809	30776.67	3.6050	3.6049	-1.8754	25.98	-0.01	-0.750			
0.4865	31134.47	3.6020	3.6017	-1.9051	25.98	-0.01	-0.750			
0.4923	31507.91	3.5990	3.5987	-1.9566	25.97	-0.02	-0.750			
0.4983	31890.25	3.5960	3.5958	-1.9937	25.96	-0.03	-0.750			
0.5043	32276.95	3.5930	3.5929	-2.0385	25.95	-0.04	-0.750			
0.5106	32676.04	3.5900	3.5901	-2.0830	25.95	-0.04	-0.750			
0.5169	33079.54	3.5870	3.5871	-2.0835	25.95	-0.04	-0.750			
0.5232	33485.78	3.5840	3.5840	-2.0962	25.94	-0.05	-0.750			
0.5295	33888.38	3.5810	3.5811	-2.1521	25.94	-0.05	-0.750			
0.5359	34300.19	3.5780	3.5778	-2.1930	25.93	-0.06	-0.750			
0.5426	34725.55	3.5750	3.5751	-2.2123	25.93	-0.06	-0.750			
0.5493	35152.53	3.5720	3.5723	-2.2460	25.93	-0.06	-0.750			
0.5563	35600.41	3.5690	3.5691	-2.2733	25.93	-0.06	-0.750			
0.5631	36038.60	3.5660	3.5659	-2.2793	25.93	-0.06	-0.750			
0.5700	36479.37	3.5630	3.5630	-2.2960	25.93	-0.06	-0.750			
0.5767	36910.87	3.5600	3.5601	-2.3063	25.93	-0.06	-0.750			
0.5837	37358.54	3.5570	3.5571	-2.3304	25.93	-0.06	-0.750			
0.5908	37808.89	3.5540	3.5540	-2.3413	25.93	-0.06	-0.750			
0.5978	38261.86	3.5510	3.5509	-2.3368	25.93	-0.06	-0.750			
0.6051	38723.88	3.5480	3.5479	-2.3091	25.93	-0.06	-0.750			
0.6119	39162.06	3.5450	3.5450	-2.2798	25.93	-0.06	-0.750			
0.6186	39592.45	3.5420	3.5421	-2.2371	25.93	-0.06	-0.750			
0.6252	40011.03	3.5390	3.5389	-2.1960	25.93	-0.06	-0.750			
0.6317	40431.64	3.5360	3.5361	-2.1675	25.94	-0.05	-0.750			
0.6383	40853.18	3.5330	3.5329	-2.1380	25.95	-0.04	-0.750			
0.6448	41264.27	3.5300	3.5300	-2.1157	25.95	-0.04	-0.750			
0.6511	41671.06	3.5270	3.5270	-2.0699	25.95	-0.04	-0.750			
0.6572	42059.10	3.5240	3.5241	-2.0244	25.96	-0.03	-0.750			
0.6632	42444.04	3.5210	3.5208	-1.9671	25.98	-0.01	-0.750			
0.6690	42815.30	3.5180	3.5180	-1.9030	25.99	-0.00	-0.750			
0.6746	43175.65	3.5150	3.5151	-1.8554	26.00	0.01	-0.750			
0.6801	43528.30	3.5120	3.5119	-1.7885	26.01	0.02	-0.750			
0.6854	43865.83	3.5090	3.5089	-1.7211	26.02	0.03	-0.750			
0.6905	44192.69	3.5060	3.5059	-1.6602	26.03	0.04	-0.750			
0.6954	44502.81	3.5030	3.5029	-1.5945	26.05	0.06	-0.750			
0.7000	44802.06	3.5000	3.5000	-1.5449	26.06	0.07	-0.750			
0.7046	45095.18	3.4970	3.4969	-1.5014	26.08	0.09	-0.750			
0.7090	45373.15	3.4940	3.4939	-1.4452	26.09	0.10	-0.750			
0.7133	45649.10	3.4910	3.4909	-1.4213	26.10	0.11	-0.750			
0.7175	45917.70	3.4880	3.4880	-1.3697	26.12	0.13	-0.750			
0.7216	46179.91	3.4850	3.4849	-1.3290	26.13	0.14	-0.750			
0.7255	46429.58	3.4820	3.4818	-1.2801	26.14	0.15	-0.750			
0.7292	46668.60	3.4790	3.4789	-1.2298	26.16	0.17	-0.750			
0.7329	46903.92	3.4760	3.4759	-1.1861	26.18	0.19	-0.750			
0.7364	47127.07	3.4730	3.4730	-1.1424	26.19	0.20	-0.750			
0.7396	47335.79	3.4700	3.4702	-1.0983	26.21	0.22	-0.750			
0.7429	47548.16	3.4670	3.4669	-1.0847	26.22	0.23	-0.750			
0.7461	47750.54	3.4640	3.4640	-1.0497	26.24	0.25	-0.750			
0.7492	47950.79	3.4610	3.4609	-1.0117	26.25	0.26	-0.750			
0.7522	48142.27	3.4580	3.4583	-0.9817	26.27	0.28	-0.750			
0.7552	48329.90	3.4550	3.4550	-0.9623	26.28	0.29	-0.750			
0.7579	48508.58	3.4520	3.4519	-0.9347	26.29	0.30	-0.750			
0.7606	48680.36	3.4490	3.4489	-0.9067	26.30	0.31	-0.750			
0.7633	48851.90	3.4460	3.4461	-0.8962	26.30	0.31	-0.750			
0.7660	49023.77	3.4430	3.4431	-0.8974	26.31	0.32	-0.750			
0.7687	49194.53	3.4400	3.4400	-0.9083	26.32	0.33	-0.750			
0.7713	49364.85	3.4370	3.4369	-0.9168	26.33	0.34	-0.750			
0.7741	49540.14	3.4340	3.4340	-0.9372	26.34	0.35	-0.750			
0.7769	49723.22	3.4310	3.4311	-0.9685	26.35	0.36	-0.750			
0.7799	49912.90	3.4280	3.4280	-1.0056	26.36	0.37	-0.750			
0.7830	50111.75	3.4250	3.4249	-1.0328	26.37	0.38	-0.750			
0.7862	50314.02	3.4220	3.4219	-1.0385	26.38	0.39	-0.750			
0.7893	50516.98	3.4190	3.4192	-1.0495	26.39	0.40	-0.750			
0.7926	50723.20	3.4160	3.4160	-1.0523	26.40	0.41	-0.750			
0.7957	50926.28	3.4130	3.4129	-1.0402	26.41	0.42	-0.750			
0.7988	51124.21	3.4100	3.4100	-1.0225	26.42	0.43	-0.750			
0.8018	51318.30	3.4070	3.4071	-1.0010	26.43	0.44	-0.750			
0.8049	51513.19	3.4040	3.4039	-0.9821	26.44	0.45	-0.750			
0.8078	51701.61	3.4010	3.4009	-0.9483	26.44	0.45	-0.750			
0.8106	51879.62	3.3980	3.3981	-0.9092	26.45	0.46	-0.750			
0.8133	52051.37	3.3950	3.3949	-0.8703	26.46	0.47	-0.750			
0.8159	52215.26	3.3920	3.3921	-0.8359	26.46	0.47	-0.750			
0.8183	52370.14	3.3890	3.3889	-0.8005	26.47	0.48	-0.750			
0.8206	52519.18	3.3860	3.3860	-0.7712	26.48	0.49	-0.750			
0.8229	52663.13	3.3830	3.3829	-0.7390	26.48	0.49	-0.750			
0.8251	52804.93	3.3800	3.3800	-0.7150	26.49	0.50	-0.750			
0.8272	52939.46	3.3770	3.3770	-0.6912	26.50	0.51	-0.750			
0.8292	53069.86	3.3740	3.3740	-0.6655	26.51	0.52	-0.750			
0.8311	53193.24	3.3710	3.3710	-0.6367	26.51	0.52	-0.750			
0.8330	53312.69	3.3680	3.3680	-0.6136	26.52	0.53	-0.750			
0.8348	53428.25	3.3650	3.3650	-0.5925	26.52	0.53	-0.750			
0.8366	53541.06	3.3620	3.3620	-0.5723	26.53	0.54	-0.750			
0.8383	53648.58	3.3590	3.3589	-0.5489	26.53	0.54	-0.750			
0.8399	53751.16	3.3560	3.3561	-0.5247	26.54	0.55	-0.750			
0.8414	53850.51	3.3530	3.3530	-0.5060	26.55	0.56	-0.750			
0.8429	53945.18	3.3500	3.3499	-0.4829	26.55	0.56	-0.750			
0.8443	54035.82	3.3470	3.3470	-0.4625	26.56	0.57	-0.750			
0.8456	54121.18	3.3440	3.3440	-0.4433	26.57	0.58	-0.750			
0.8469	54204.68	3.3410	3.3411	-0.4285	26.57	0.58	-0.750			
0.8482	54284.83	3.3380	3.3379	-0.4160	26.58	0.59	-0.750			
0.8494	54363.21	3.3350	3.3349	-0.4003	26.58	0.59	-0.750			
0.8506	54438.83	3.3320	3.3321	-0.3867	26.59	0.60	-0.750			
0.8518	54512.22	3.3290	3.3289	-0.3767	26.60	0.61	-0.750			
0.8529	54583.46	3.3260	3.3262	-0.3623	26.60	0.61	-0.750			
0.8539	54650.75	3.3230	3.3229	-0.3481	26.61	0.62	-0.750			
0.8549	54716.41	3.3200	3.3200	-0.3361	26.61	0.62	-0.750			
0.8559	54779.24	3.3170	3.3171	-0.3244	26.62	0.63	-0.750			
0.8569	54841.05	3.3140	3.3140	-0.3171	26.62	0.63	-0.750			
0.8578	54900.48	3.3110	3.3110	-0.3062	26.62	0.63	-0.750			
0.8587	54958.19	3.3080	3.3080	-0.2959	26.63	0.64	-0.750			
0.8596	55014.77	3.3050	3.3050	-0.2870	26.63	0.64	-0.750			
0.8604	55068.68	3.3020	3.3021	-0.2795	26.64	0.65	-0.750			
0.8613	55121.70	3.2990	3.2989	-0.2713	26.64	0.65	-0.750			
0.8621	55172.33	3.2960	3.2959	-0.2634	26.65	0.66	-0.750			
0.8628	55222.20	3.2930	3.2931	-0.2566	26.65	0.66	-0.750			
0.8636	55270.64	3.2900	3.2901	-0.2501	26.65	0.66	-0.750			
0.8643	55318.39	3.2870	3.2869	-0.2447	26.66	0.67	-0.750			
0.8651	55365.03	3.2840	3.2841	-0.2385	26.66	0.67	-0.750			
0.8658	55409.63	3.2810	3.2810	-0.2320	26.67	0.68	-0.750			
0.8665	55453.88	3.2780	3.2780	-0.2265	26.67	0.68	-0.750			
0.8671	55497.13	3.2750	3.2750	-0.2211	26.68	0.69	-0.750			
0.8678	55538.30	3.2720	3.2719	-0.2166	26.68	0.69	-0.750			
0.8684	55579.55	3.2690	3.2690	-0.2126	26.69	0.70	-0.750			
0.8691	55619.98	3.2660	3.2658	-0.2077	26.69	0.70	-0.750			
0.8697	55659.44	3.2630	3.2630	-0.2034	26.70	0.71	-0.750			
0.8703	55698.04	3.2600	3.2601	-0.2002	26.70	0.71	-0.750			
0.8709	55735.90	3.2570	3.2570	-0.1967	26.71	0.72	-0.750			
0.8715	55773.52	3.2540	3.2538	-0.1937	26.71	0.72	-0.750			
0.8720	55810.36	3.2510	3.2510	-0.1901	26.72	0.73	-0.750			
0.8726	55846.07	3.2480	3.2480	-0.1865	26.72	0.73	-0.750			
0.8732	55881.72	3.2450	3.2450	-0.1840	26.72	0.73	-0.750			
0.8737	55917.00	3.2420	3.2419	-0.1815	26.73	0.74	-0.750			
0.8742	55951.52	3.2390	3.2391	-0.1780	26.73	0.74	-0.750			
0.8748	55985.06	3.2360	3.2360	-0.1750	26.74	0.75	-0.750			
0.8753	56018.18	3.2330	3.2332	-0.1729	26.74	0.75	-0.750			
0.8758	56051.15	3.2300	3.2300	-0.1709	26.75	0.76	-0.750			
0.8763	56083.85	3.2270	3.2269	-0.1687	26.75	0.76	-0.750			
0.8768	56115.85	3.2240	3.2240	-0.1670	26.75	0.76	-0.750			
0.8773	56147.77	3.2210	3.2210	-0.1651	26.76	0.77	-0.750			
0.8778	56179.59	3.2180	3.2180	-0.1635	26.76	0.77	-0.750			
0.8783	56210.77	3.2150	3.2149	-0.1612	26.77	0.78	-0.750			
0.8788	56241.63	3.2120	3.2120	-0.1586	26.77	0.78	-0.750			
0.8792	56271.64	3.2090	3.2091	-0.1565	26.78	0.79	-0.750			
0.8797	56301.58	3.2060	3.2060	-0.1545	26.78	0.79	-0.750			
0.8802	56330.96	3.2030	3.2030	-0.1526	26.78	0.79	-0.750			
0.8806	56359.62	3.2000	3.1999	-0.1511	26.79	0.80	-0.750			
0.8811	56388.53	3.1970	3.1970	-0.1497	26.79	0.80	-0.750			
0.8815	56417.17	3.1940	3.1941	-0.1487	26.80	0.81	-0.750			
0.8820	56445.69	3.1910	3.1909	-0.1476	26.80	0.81	-0.750			
0.8824	56474.13	3.1880	3.1880	-0.1463	26.81	0.82	-0.750			
0.8828	56502.02	3.1850	3.1850	-0.1445	26.81	0.82	-0.750			
0.8833	56529.61	3.1820	3.1820	-0.1429	26.82	0.83	-0.750			
0.8837	56557.00	3.1790	3.1790	-0.1414	26.82	0.83	-0.750			
0.8841	56583.88	3.1760	3.1760	-0.1393	26.82	0.83	-0.750			
0.8845	56610.29	3.1730	3.1730	-0.1384	26.83	0.84	-0.750			
0.8849	56636.76	3.1700	3.1700	-0.1373	26.83	0.84	-0.750			
0.8854	56662.85	3.1670	3.1670	-0.1360	26.84	0.85	-0.750			
0.8858	56689.04	3.1640	3.1640	-0.1344	26.84	0.85	-0.750			
0.8862	56714.71	3.1610	3.1610	-0.1332	26.84	0.85	-0.750			
0.8866	56740.16	3.1580	3.1580	-0.1318	26.85	0.86	-0.750			
0.8870	56765.30	3.1550	3.1551	-0.1312	26.85	0.86	-0.750			
0.8873	56790.39	3.1520	3.1519	-0.1303	26.86	0.87	-0.750			
0.8877	56815.02	3.1490	3.1490	-0.1287	26.86	0.87	-0.750			
0.8881	56839.71	3.1460	3.1459	-0.1284	26.86	0.87	-0.750			
0.8885	56864.51	3.1430	3.1431	-0.1276	26.87	0.88	-0.750			
0.8889	56889.07	3.1400	3.1400	-0.1272	26.87	0.88	-0.750			
0.8893	56913.33	3.1370	3.1370	-0.1261	26.87	0.88	-0.750			
0.8896	56937.51	3.1340	3.1341	-0.1248	26.88	0.89	-0.750			
0.8900	56961.31	3.1310	3.1310	-0.1236	26.88	0.89	-0.750			
0.8904	56985.00	3.1280	3.1281	-0.1228	26.88	0.89	-0.750			
0.8908	57008.46	3.1250	3.1250	-0.1217	26.89	0.90	-0.750			
0.8911	57031.74	3.1220	3.1219	-0.1206	26.89	0.90	-0.750			
0.8915	57054.85	3.1190	3.1190	-0.1195	26.90	0.91	-0.750			
0.8918	57077.39	3.1160	3.1160	-0.1185	26.90	0.91	-0.750			
0.8922	57100.09	3.1130	3.1131	-0.1180	26.91	0.92	-0.750			
0.8925	57122.73	3.1100	3.1100	-0.1173	26.92	0.93	-0.750			
0.8929	57145.26	3.1070	3.1070	-0.1168	26.92	0.93	-0.750			
0.8932	57167.65	3.1040	3.1039	-0.1159	26.93	0.94	-0.750			
0.8936	57189.82	3.1010	3.1011	-0.1152	26.93	0.94	-0.750			
0.8939	57211.83	3.0980	3.0981	-0.1147	26.94	0.95	-0.750			
0.8943	57233.88	3.0950	3.0950	-0.1141	26.94	0.95	-0.750			
0.8946	57255.72	3.0920	3.0920	-0.1134	26.95	0.96	-0.750			
0.8950	57277.29	3.0890	3.0890	-0.1125	26.95	0.96	-0.750			
0.8953	57298.87	3.0860	3.0861	-0.1118	26.96	0.97	-0.750			
0.8956	57320.32	3.0830	3.0829	-0.1112	26.96	0.97	-0.750			
0.8960	57341.63	3.0800	3.0801	-0.1102	26.96	0.97	-0.750			
0.8963	57362.84	3.0770	3.0769	-0.1094	26.97	0.98	-0.750			
0.8966	57383.67	3.0740	3.0740	-0.1088	26.97	0.98	-0.750			
0.8969	57404.36	3.0710	3.0710	-0.1080	26.98	0.99	-0.750			
0.8973	57425.09	3.0680	3.0679	-0.1070	26.98	0.99	-0.750			
0.8976	57445.60	3.0650	3.0650	-0.1062	26.99	1.00	-0.750			
0.8979	57465.91	3.0620	3.0621	-0.1053	26.99	1.00	-0.750			
0.8982	57486.09	3.0590	3.0590	-0.1045	27.00	1.01	-0.750			
0.8985	57505.84	3.0560	3.0560	-0.1044	27.00	1.01	-0.750			
0.8988	57525.85	3.0530	3.0530	-0.1041	27.01	1.02	-0.750			
0.8991	57545.53	3.0500	3.0500	-0.1036	27.01	1.02	-0.750			
0.8995	57565.45	3.0470	3.0470	-0.1039	27.02	1.03	-0.750			
0.8998	57585.82	3.0440	3.0440	-0.1034	27.02	1.03	-0.750			
0.9001	57605.60	3.0410	3.0410	-0.1027	27.02	1.03	-0.750			
0.9004	57625.55	3.0380	3.0380	-0.1023	27.03	1.04	-0.750			
0.9007	57645.06	3.0350	3.0351	-0.1009	27.03	1.04	-0.750			
0.9010	57663.96	3.0320	3.0319	-0.1002	27.04	1.05	-0.750			
0.9013	57683.15	3.0290	3.0290	-0.0997	27.04	1.05	-0.750			
0.9016	57702.10	3.0260	3.0258	-0.0987	27.05	1.06	-0.750			
0.9019	57721.02	3.0230	3.0231	-0.0984	27.05	1.06	-0.750			
0.9022	57740.18	3.0200	3.0201	-0.0980	27.05	1.06	-0.750			
0.9025	57758.92	3.0170	3.0169	-0.0971	27.06	1.07	-0.750			
0.9028	57777.55	3.0140	3.0141	-0.0966	27.06	1.07	-0.750			
0.9031	57796.00	3.0110	3.0109	-0.0956	27.07	1.08	-0.750			
0.9033	57814.25	3.0080	3.0079	-0.0946	27.07	1.08	-0.751			
0.9036	57832.17	3.0050	3.0050	-0.0945	27.07	1.08	-0.751			
0.9039	57850.28	3.0020	3.0020	-0.0942	27.08	1.09	-0.751			
