Ah_balance (normalized)	Ah_balance (mAh)	Voltage - fit (V)	Voltage -  interpolate (V)	dQ/dV (1/V)	Temperature (°C)	Temperature - diff (°C)	Current (C)	R_DC 0ms (mOhm)	R_DC 50ms (mOhm)	R_DC 50 ms PEC (mOhm)
0.0522	3339.70	4.1970	4.1970	0.7727	26.52	0.53	0.750			
0.0545	3486.99	4.1940	4.1940	0.7730	26.52	0.53	0.750			
0.0568	3636.45	4.1910	4.1910	0.7769	26.52	0.53	0.750			
0.0591	3785.59	4.1880	4.1879	0.7825	26.52	0.53	0.750			
0.0615	3936.56	4.1850	4.1850	0.7854	26.52	0.53	0.750			
0.0639	4088.03	4.1820	4.1819	0.7882	26.52	0.53	0.750			
0.0663	4241.26	4.1790	4.1790	0.7894	26.52	0.53	0.750			
0.0686	4392.80	4.1760	4.1761	0.7871	26.52	0.53	0.750			
0.0710	4542.84	4.1730	4.1730	0.7851	26.52	0.53	0.750			
0.0733	4694.02	4.1700	4.1700	0.7864	26.52	0.53	0.750			
0.0757	4842.36	4.1670	4.1670	0.7851	26.52	0.53	0.750			
0.0780	4993.40	4.1640	4.1639	0.7898	26.52	0.53	0.750			
0.0804	5146.59	4.1610	4.1610	0.7904	26.52	0.53	0.750			
0.0828	5298.31	4.1580	4.1580	0.7937	26.52	0.53	0.750			
0.0852	5451.08	4.1550	4.1550	0.7958	26.53	0.54	0.750			
0.0876	5604.20	4.1520	4.1520	0.7966	26.53	0.54	0.750			
0.0899	5756.53	4.1490	4.1489	0.7972	26.53	0.54	0.750			
0.0924	5910.63	4.1460	4.1461	0.7965	26.53	0.54	0.750			
0.0947	6063.62	4.1430	4.1430	0.7987	26.53	0.54	0.750			
0.0971	6217.00	4.1400	4.1400	0.8037	26.54	0.55	0.750			
0.0995	6370.83	4.1370	4.1370	0.8056	26.54	0.55	0.750			
0.1020	6525.74	4.1340	4.1339	0.8068	26.54	0.55	0.750			
0.1044	6681.19	4.1310	4.1311	0.8090	26.54	0.55	0.750			
0.1068	6837.18	4.1280	4.1280	0.8087	26.54	0.55	0.750			
0.1092	6991.96	4.1250	4.1250	0.8119	26.54	0.55	0.750			
0.1117	7147.53	4.1220	4.1220	0.8102	26.54	0.55	0.750			
0.1141	7303.00	4.1190	4.1189	0.8144	26.54	0.55	0.750			
0.1166	7460.18	4.1160	4.1160	0.8176	26.54	0.55	0.750			
0.1190	7618.14	4.1130	4.1130	0.8183	26.54	0.55	0.750			
0.1215	7775.59	4.1100	4.1101	0.8192	26.54	0.55	0.750			
0.1240	7932.94	4.1070	4.1070	0.8182	26.54	0.55	0.750			
0.1264	8088.67	4.1040	4.1039	0.8228	26.54	0.55	0.750			
0.1289	8246.50	4.1010	4.1010	0.8269	26.54	0.55	0.750			
0.1313	8405.80	4.0980	4.0980	0.8235	26.54	0.55	0.750			
0.1338	8565.16	4.0950	4.0951	0.8281	26.55	0.56	0.750			
0.1363	8724.15	4.0920	4.0921	0.8280	26.55	0.56	0.750			
0.1388	8882.74	4.0890	4.0888	0.8346	26.55	0.56	0.750			
0.1413	9042.58	4.0860	4.0860	0.8357	26.55	0.56	0.750			
0.1438	9202.49	4.0830	4.0830	0.8386	26.55	0.56	0.750			
0.1463	9366.01	4.0800	4.0801	0.8452	26.56	0.57	0.750			
0.1489	9528.71	4.0770	4.0770	0.8472	26.56	0.57	0.750			
0.1514	9692.37	4.0740	4.0740	0.8478	26.56	0.57	0.750			
0.1540	9854.69	4.0710	4.0710	0.8505	26.56	0.57	0.750			
0.1565	10017.43	4.0680	4.0680	0.8502	26.56	0.57	0.750			
0.1591	10180.84	4.0650	4.0649	0.8562	26.57	0.58	0.750			
0.1616	10345.40	4.0620	4.0620	0.8587	26.57	0.58	0.750			
0.1642	10510.68	4.0590	4.0589	0.8613	26.57	0.58	0.750			
0.1668	10676.90	4.0560	4.0560	0.8622	26.57	0.58	0.750			
0.1694	10843.19	4.0530	4.0530	0.8662	26.57	0.58	0.750			
0.1720	11008.70	4.0500	4.0500	0.8706	26.58	0.59	0.750			
0.1746	11176.18	4.0470	4.0470	0.8731	26.58	0.59	0.750			
0.1773	11344.76	4.0440	4.0440	0.8747	26.58	0.59	0.750			
0.1799	11514.16	4.0410	4.0411	0.8780	26.58	0.59	0.750			
0.1825	11682.58	4.0380	4.0380	0.8823	26.58	0.59	0.750			
0.1852	11851.75	4.0350	4.0351	0.8863	26.59	0.60	0.750			
0.1878	12021.36	4.0320	4.0319	0.8870	26.59	0.60	0.750			
0.1905	12192.04	4.0290	4.0289	0.8904	26.59	0.60	0.750			
0.1932	12364.12	4.0260	4.0261	0.8937	26.59	0.60	0.750			
0.1959	12535.98	4.0230	4.0231	0.8974	26.60	0.61	0.750			
0.1986	12709.42	4.0200	4.0200	0.9023	26.60	0.61	0.750			
0.2013	12882.51	4.0170	4.0168	0.9036	26.60	0.61	0.750			
0.2040	13057.31	4.0140	4.0140	0.8991	26.60	0.61	0.750			
0.2067	13228.80	4.0110	4.0111	0.9050	26.61	0.62	0.750			
0.2094	13403.17	4.0080	4.0080	0.9094	26.61	0.62	0.750			
0.2122	13577.78	4.0050	4.0050	0.9124	26.62	0.63	0.750			
0.2149	13751.44	4.0020	4.0019	0.9145	26.62	0.63	0.750			
0.2176	13928.07	3.9990	3.9991	0.9166	26.63	0.64	0.750			
0.2204	14106.21	3.9960	3.9960	0.9213	26.63	0.64	0.750			
0.2232	14284.26	3.9930	3.9930	0.9211	26.63	0.64	0.750			
0.2259	14459.69	3.9900	3.9900	0.9169	26.64	0.65	0.750			
0.2287	14636.73	3.9870	3.9870	0.9177	26.64	0.65	0.750			
0.2314	14811.59	3.9840	3.9840	0.9216	26.64	0.65	0.750			
0.2342	14986.70	3.9810	3.9810	0.9278	26.64	0.65	0.750			
0.2370	15167.17	3.9780	3.9781	0.9345	26.64	0.65	0.750			
0.2398	15347.82	3.9750	3.9748	0.9386	26.64	0.65	0.750			
0.2426	15529.21	3.9720	3.9720	0.9381	26.64	0.65	0.750			
0.2454	15708.65	3.9690	3.9691	0.9424	26.64	0.65	0.750			
0.2483	15889.53	3.9660	3.9660	0.9461	26.64	0.65	0.750			
0.2511	16071.43	3.9630	3.9628	0.9458	26.64	0.65	0.750			
0.2539	16252.76	3.9600	3.9601	0.9436	26.64	0.65	0.750			
0.2568	16435.52	3.9570	3.9570	0.9505	26.65	0.66	0.750			
0.2597	16619.05	3.9540	3.9540	0.9571	26.65	0.66	0.750			
0.2625	16801.64	3.9510	3.9510	0.9539	26.66	0.67	0.750			
0.2654	16986.56	3.9480	3.9480	0.9534	26.66	0.67	0.750			
0.2683	17169.13	3.9450	3.9450	0.9593	26.66	0.67	0.750			
0.2712	17354.20	3.9420	3.9421	0.9640	26.67	0.68	0.750			
0.2741	17539.95	3.9390	3.9390	0.9686	26.67	0.68	0.750			
0.2769	17724.71	3.9360	3.9359	0.9709	26.67	0.68	0.750			
0.2799	17911.75	3.9330	3.9331	0.9713	26.67	0.68	0.750			
0.2828	18099.42	3.9300	3.9300	0.9760	26.67	0.68	0.750			
0.2857	18287.64	3.9270	3.9270	0.9785	26.68	0.69	0.750			
0.2887	18474.96	3.9240	3.9239	0.9810	26.68	0.69	0.750			
0.2916	18663.66	3.9210	3.9210	0.9871	26.68	0.69	0.750			
0.2946	18853.54	3.9180	3.9180	0.9899	26.68	0.69	0.750			
0.2976	19044.17	3.9150	3.9151	0.9930	26.68	0.69	0.750			
0.3006	19235.72	3.9120	3.9120	0.9935	26.68	0.69	0.750			
0.3036	19428.70	3.9090	3.9090	0.9897	26.68	0.69	0.750			
0.3065	19618.39	3.9060	3.9060	0.9938	26.68	0.69	0.750			
0.3095	19807.39	3.9030	3.9031	1.0005	26.69	0.70	0.750			
0.3125	19999.42	3.9000	3.9000	1.0077	26.69	0.70	0.750			
0.3155	20194.06	3.8970	3.8970	1.0106	26.69	0.70	0.750			
0.3186	20389.34	3.8940	3.8941	1.0186	26.69	0.70	0.750			
0.3217	20585.72	3.8910	3.8910	1.0252	26.70	0.71	0.750			
0.3248	20784.81	3.8880	3.8880	1.0325	26.70	0.71	0.750			
0.3278	20981.24	3.8850	3.8850	1.0303	26.70	0.71	0.750			
0.3309	21179.00	3.8820	3.8820	1.0368	26.70	0.71	0.750			
0.3340	21379.15	3.8790	3.8790	1.0438	26.70	0.71	0.750			
0.3372	21581.17	3.8760	3.8760	1.0465	26.70	0.71	0.750			
0.3404	21783.59	3.8730	3.8730	1.0445	26.70	0.71	0.750			
0.3435	21982.70	3.8700	3.8700	1.0527	26.70	0.71	0.750			
0.3466	22184.95	3.8670	3.8670	1.0603	26.70	0.71	0.750			
0.3498	22388.07	3.8640	3.8640	1.0673	26.70	0.71	0.750			
0.3530	22595.18	3.8610	3.8610	1.0679	26.70	0.71	0.750			
0.3563	22800.79	3.8580	3.8581	1.0836	26.70	0.71	0.750			
0.3595	23009.44	3.8550	3.8551	1.0984	26.70	0.71	0.750			
0.3628	23220.38	3.8520	3.8520	1.1121	26.70	0.71	0.750			
0.3662	23434.28	3.8490	3.8490	1.1127	26.70	0.71	0.750			
0.3695	23648.84	3.8460	3.8460	1.1303	26.70	0.71	0.750			
0.3729	23868.26	3.8430	3.8431	1.1423	26.69	0.70	0.750			
0.3764	24091.32	3.8400	3.8398	1.1558	26.69	0.70	0.750			
0.3799	24310.64	3.8370	3.8371	1.1629	26.69	0.70	0.750			
0.3834	24534.60	3.8340	3.8340	1.1833	26.68	0.69	0.750			
0.3869	24762.21	3.8310	3.8310	1.2048	26.68	0.69	0.750			
0.3906	24997.15	3.8280	3.8280	1.2132	26.68	0.69	0.750			
0.3942	25229.39	3.8250	3.8251	1.2342	26.67	0.68	0.750			
0.3980	25469.60	3.8220	3.8221	1.2571	26.67	0.68	0.750			
0.4017	25711.70	3.8190	3.8186	1.2798	26.66	0.67	0.750			
0.4056	25958.86	3.8160	3.8161	1.2980	26.65	0.66	0.750			
0.4095	26211.15	3.8130	3.8130	1.3173	26.65	0.66	0.750			
0.4136	26467.61	3.8100	3.8100	1.3416	26.64	0.65	0.750			
0.4176	26725.72	3.8070	3.8071	1.3579	26.63	0.64	0.750			
0.4217	26988.50	3.8040	3.8040	1.3819	26.62	0.63	0.750			
0.4259	27255.49	3.8010	3.8009	1.4054	26.60	0.61	0.750			
0.4301	27527.45	3.7980	3.7980	1.4238	26.59	0.60	0.750			
0.4344	27803.77	3.7950	3.7951	1.4590	26.59	0.60	0.750			
0.4389	28088.64	3.7920	3.7919	1.4841	26.58	0.59	0.750			
0.4433	28373.43	3.7890	3.7890	1.5113	26.57	0.58	0.750			
0.4479	28668.34	3.7860	3.7861	1.5385	26.56	0.57	0.750			
0.4527	28970.59	3.7830	3.7830	1.5537	26.55	0.56	0.750			
0.4573	29268.13	3.7800	3.7801	1.5756	26.53	0.54	0.750			
0.4621	29572.73	3.7770	3.7770	1.5965	26.51	0.52	0.750			
0.4669	29879.06	3.7740	3.7741	1.6080	26.50	0.51	0.750			
0.4717	30191.31	3.7710	3.7709	1.6404	26.49	0.50	0.750			
0.4767	30509.44	3.7680	3.7679	1.6502	26.48	0.49	0.750			
0.4817	30831.43	3.7650	3.7649	1.6767	26.46	0.47	0.750	0.388	0.449	
0.4868	31155.17	3.7620	3.7622	1.6835	26.45	0.46	0.750			
0.4918	31476.61	3.7590	3.7591	1.7002	26.43	0.44	0.750			
0.4970	31805.97	3.7560	3.7559	1.7169	26.41	0.42	0.750			
0.5021	32133.90	3.7530	3.7532	1.7344	26.39	0.40	0.750			
0.5073	32466.94	3.7500	3.7500	1.7687	26.37	0.38	0.750			
0.5126	32809.27	3.7470	3.7470	1.8008	26.35	0.36	0.750			
0.5181	33158.03	3.7440	3.7440	1.8404	26.34	0.35	0.750			
0.5237	33514.73	3.7410	3.7409	1.8836	26.33	0.34	0.750			
0.5294	33882.65	3.7380	3.7380	1.9169	26.31	0.32	0.750			
0.5352	34252.41	3.7350	3.7351	1.9769	26.29	0.30	0.750			
0.5412	34634.92	3.7320	3.7318	2.0164	26.26	0.27	0.750			
0.5473	35026.16	3.7290	3.7291	2.0481	26.24	0.25	0.750			
0.5535	35424.24	3.7260	3.7260	2.1077	26.23	0.24	0.750			
0.5599	35830.99	3.7230	3.7230	2.1605	26.22	0.23	0.750			
0.5664	36248.62	3.7200	3.7201	2.2193	26.20	0.21	0.750			
0.5732	36686.26	3.7170	3.7170	2.2815	26.18	0.19	0.750			
0.5801	37127.37	3.7140	3.7140	2.3417	26.16	0.17	0.750			
0.5873	37584.12	3.7110	3.7111	2.4127	26.14	0.15	0.750			
0.5946	38055.84	3.7080	3.7080	2.4872	26.11	0.12	0.750			
0.6022	38539.15	3.7050	3.7051	2.5361	26.09	0.10	0.750			
0.6099	39032.73	3.7020	3.7020	2.5997	26.06	0.07	0.750			
0.6178	39537.84	3.6990	3.6990	2.6734	26.04	0.05	0.750			
0.6259	40056.48	3.6960	3.6959	2.7357	26.01	0.02	0.750			
0.6342	40587.27	3.6930	3.6929	2.8301	26.00	0.01	0.750			
0.6427	41135.42	3.6900	3.6900	2.9175	25.98	-0.01	0.750			
0.6516	41703.89	3.6870	3.6870	3.0309	25.96	-0.03	0.750			
0.6609	42296.83	3.6840	3.6840	3.1409	25.94	-0.05	0.750			
0.6705	42909.65	3.6810	3.6810	3.2803	25.91	-0.08	0.750			
0.6804	43546.03	3.6780	3.6780	3.4137	25.88	-0.11	0.750			
0.6910	44221.24	3.6750	3.6749	3.4991	25.87	-0.12	0.750			
0.7016	44903.30	3.6720	3.6720	3.5399	25.85	-0.14	0.750			
0.7123	45588.75	3.6690	3.6690	3.5436	25.82	-0.17	0.750			
0.7232	46287.71	3.6660	3.6660	3.4030	25.82	-0.17	0.750			
0.7335	46941.21	3.6630	3.6631	3.1548	25.82	-0.17	0.750			
0.7423	47507.00	3.6600	3.6602	2.8176	25.82	-0.17	0.750			
0.7497	47983.05	3.6570	3.6571	2.4467	25.81	-0.18	0.750			
0.7566	48423.11	3.6540	3.6538	2.1732	25.81	-0.18	0.750			
0.7625	48798.09	3.6510	3.6509	1.9396	25.81	-0.18	0.750			
0.7679	49147.42	3.6480	3.6478	1.7650	25.81	-0.18	0.750			
0.7729	49463.60	3.6450	3.6452	1.6155	25.81	-0.18	0.750			
0.7775	49762.83	3.6420	3.6419	1.4943	25.81	-0.18	0.750			
0.7817	50026.80	3.6390	3.6391	1.3834	25.81	-0.18	0.750			
0.7856	50275.48	3.6360	3.6360	1.2973	25.82	-0.17	0.750			
0.7894	50519.72	3.6330	3.6329	1.2375	25.82	-0.17	0.750			
0.7929	50748.25	3.6300	3.6299	1.1867	25.82	-0.17	0.750			
0.7963	50962.88	3.6270	3.6272	1.1816	25.82	-0.17	0.750			
0.7998	51189.51	3.6240	3.6242	1.1695	25.82	-0.17	0.750			
0.8033	51411.91	3.6210	3.6208	1.1607	25.82	-0.17	0.750			
0.8068	51633.75	3.6180	3.6182	1.1683	25.82	-0.17	0.750			
0.8103	51856.36	3.6150	3.6152	1.1812	25.82	-0.17	0.750			
0.8139	52087.02	3.6120	3.6116	1.1965	25.82	-0.17	0.750			
0.8175	52320.70	3.6090	3.6089	1.1929	25.83	-0.16	0.750			
0.8209	52538.75	3.6060	3.6062	1.2088	25.83	-0.16	0.750			
0.8247	52783.57	3.6030	3.6030	1.2549	25.84	-0.15	0.750			
0.8285	53024.00	3.6000	3.6000	1.2787	25.84	-0.15	0.750			
0.8323	53268.86	3.5970	3.5968	1.2940	25.83	-0.16	0.750			
0.8363	53524.58	3.5940	3.5942	1.3090	25.82	-0.17	0.750			
0.8403	53779.39	3.5910	3.5910	1.3467	25.82	-0.17	0.750			
0.8444	54041.01	3.5880	3.5881	1.3638	25.82	-0.17	0.750			
0.8484	54297.40	3.5850	3.5851	1.3771	25.82	-0.17	0.750			
0.8526	54566.90	3.5820	3.5819	1.4161	25.82	-0.17	0.750			
0.8569	54842.17	3.5790	3.5791	1.4447	25.82	-0.17	0.750			
0.8613	55126.03	3.5760	3.5762	1.4795	25.81	-0.18	0.750			
0.8659	55414.47	3.5730	3.5730	1.5027	25.81	-0.18	0.750			
0.8704	55704.16	3.5700	3.5700	1.5182	25.81	-0.18	0.750			
0.8750	56002.70	3.5670	3.5669	1.5399	25.81	-0.18	0.750			
0.8796	56295.63	3.5640	3.5641	1.5617	25.81	-0.18	0.750			
0.8844	56602.09	3.5610	3.5610	1.5762	25.81	-0.18	0.750			
0.8892	56905.86	3.5580	3.5580	1.5979	25.81	-0.18	0.750			
0.8940	57215.14	3.5550	3.5549	1.6029	25.81	-0.18	0.750			
0.8988	57524.82	3.5520	3.5520	1.6012	25.80	-0.19	0.750			
0.9037	57834.23	3.5490	3.5492	1.6110	25.80	-0.19	0.750			
0.9084	58139.59	3.5460	3.5457	1.6567	25.81	-0.18	0.750			
0.9133	58450.93	3.5430	3.5430	1.7055	25.81	-0.18	0.750			
0.9186	58788.72	3.5400	3.5401	1.7595	25.81	-0.18	0.750			
0.9244	59160.58	3.5370	3.5371	1.6875	25.81	-0.18	0.750			
0.9298	59508.16	3.5340	3.5340	1.5833	25.82	-0.17	0.750			
0.9347	59819.53	3.5310	3.5315	1.3712	25.84	-0.15	0.750			
0.9386	60070.96	3.5280	3.5281	1.1188	25.85	-0.14	0.750			
0.9414	60247.33	3.5250	3.5245	0.8379	25.86	-0.13	0.750			
0.9430	60353.84	3.5220	3.5215	0.6242	25.87	-0.12	0.750			
0.9442	60428.86	3.5190	3.5188	0.4651	25.87	-0.12	0.750			
0.9453	60501.79	3.5160	3.5159	0.3975	25.88	-0.11	0.750			
0.9464	60569.91	3.5130	3.5129	0.3548	25.89	-0.10	0.750			
0.9473	60629.59	3.5100	3.5099	0.3266	25.89	-0.10	0.750			
0.9483	60689.00	3.5070	3.5069	0.3081	25.89	-0.10	0.750			
0.9491	60744.54	3.5040	3.5040	0.2923	25.90	-0.09	0.750			
0.9500	60799.63	3.5010	3.5010	0.2839	25.90	-0.09	0.750			
0.9508	60852.91	3.4980	3.4981	0.2762	25.91	-0.08	0.750			
0.9516	60904.73	3.4950	3.4947	0.2691	25.91	-0.08	0.750			
0.9524	60955.25	3.4920	3.4920	0.2625	25.92	-0.07	0.750			
0.9532	61005.74	3.4890	3.4890	0.2561	25.92	-0.07	0.750			
0.9540	61054.72	3.4860	3.4860	0.2492	25.93	-0.06	0.750			
0.9547	61102.88	3.4830	3.4830	0.2418	25.93	-0.06	0.750			
0.9554	61147.61	3.4800	3.4801	0.2333	25.93	-0.06	0.750			
0.9561	61191.55	3.4770	3.4771	0.2250	25.94	-0.05	0.750			
0.9568	61233.67	3.4740	3.4739	0.2178	25.94	-0.05	0.750			
0.9574	61274.01	3.4710	3.4708	0.2115	25.95	-0.04	0.750			
0.9580	61313.81	3.4680	3.4680	0.2056	25.95	-0.04	0.750			
0.9586	61353.22	3.4650	3.4651	0.2018	25.96	-0.03	0.750			
0.9592	61391.50	3.4620	3.4619	0.1968	25.96	-0.03	0.750			
0.9598	61429.16	3.4590	3.4590	0.1922	25.96	-0.03	0.750			
0.9604	61465.51	3.4560	3.4560	0.1857	25.97	-0.02	0.750			
0.9609	61500.61	3.4530	3.4531	0.1799	25.97	-0.02	0.750			
0.9615	61534.94	3.4500	3.4500	0.1743	25.97	-0.02	0.750			
0.9620	61567.72	3.4470	3.4469	0.1675	25.98	-0.01	0.750			
0.9625	61599.46	3.4440	3.4441	0.1614	25.98	-0.01	0.750			
0.9630	61629.78	3.4410	3.4409	0.1545	25.98	-0.01	0.750			
0.9634	61658.77	3.4380	3.4380	0.1474	25.99	-0.00	0.750			
0.9639	61686.43	3.4350	3.4352	0.1405	25.99	-0.00	0.750			
0.9643	61713.08	3.4320	3.4320	0.1334	25.99	0.00	0.750			
0.9647	61737.92	3.4290	3.4290	0.1255	25.99	0.00	0.750			
0.9650	61761.95	3.4260	3.4261	0.1159	26.00	0.01	0.750			
0.9654	61783.69	3.4230	3.4229	0.1074	26.00	0.01	0.750			
0.9657	61803.33	3.4200	3.4201	0.0971	26.00	0.01	0.750			
0.9660	61821.44	3.4170	3.4171	0.0869	26.00	0.01	0.750			
0.9662	61837.07	3.4140	3.4149	0.0759	26.00	0.01	0.750			
0.9664	61850.85	3.4110	3.4127	0.0639	26.00	0.01	0.750			
0.9666	61861.97	3.4080	3.4095	0.0520	26.01	0.02	0.750			
