Ah_balance (normalized)	Ah_balance (mAh)	Voltage - fit (V)	Voltage -  interpolate (V)	dQ/dV (1/V)	Temperature (°C)	Temperature - diff (°C)	Current (C)	R_DC 0ms (mOhm)	R_DC 50ms (mOhm)	R_DC 50 ms PEC (mOhm)
0.0005	30.24	4.1540	4.1539	-0.1306	24.88	0.01	-0.750			
0.0009	59.74	4.1510	4.1508	-0.1690	24.88	0.01	-0.750			
0.0015	96.41	4.1480	4.1480	-0.2025	24.88	0.01	-0.750			
0.0022	138.36	4.1450	4.1450	-0.2352	24.88	0.01	-0.750			
0.0029	186.57	4.1420	4.1422	-0.2691	24.88	0.01	-0.750			
0.0038	242.25	4.1390	4.1389	-0.3000	24.88	0.01	-0.750			
0.0047	302.65	4.1360	4.1360	-0.3319	24.88	0.01	-0.750			
0.0058	369.63	4.1330	4.1331	-0.3637	24.88	0.01	-0.750			
0.0069	444.32	4.1300	4.1300	-0.3898	24.87	0.00	-0.750			
0.0082	521.81	4.1270	4.1269	-0.4153	24.87	0.00	-0.750			
0.0094	603.43	4.1240	4.1240	-0.4396	24.87	0.00	-0.750			
0.0108	690.15	4.1210	4.1209	-0.4621	24.87	-0.00	-0.750			
0.0122	781.73	4.1180	4.1179	-0.4835	24.87	-0.00	-0.750			
0.0137	876.42	4.1150	4.1150	-0.5019	24.86	-0.01	-0.750			
0.0153	976.16	4.1120	4.1121	-0.5237	24.86	-0.01	-0.750			
0.0169	1079.70	4.1090	4.1090	-0.5415	24.86	-0.01	-0.750			
0.0185	1184.88	4.1060	4.1060	-0.5524	24.86	-0.01	-0.750			
0.0202	1292.46	4.1030	4.1030	-0.5635	24.85	-0.02	-0.750			
0.0219	1402.14	4.1000	4.1001	-0.5759	24.85	-0.02	-0.750			
0.0236	1513.37	4.0970	4.0969	-0.5851	24.85	-0.02	-0.750			
0.0254	1626.38	4.0940	4.0939	-0.5951	24.85	-0.02	-0.750			
0.0272	1741.57	4.0910	4.0910	-0.6008	24.85	-0.02	-0.750			
0.0290	1858.77	4.0880	4.0879	-0.6134	24.85	-0.02	-0.750			
0.0309	1976.71	4.0850	4.0851	-0.6210	24.85	-0.02	-0.750			
0.0328	2096.70	4.0820	4.0820	-0.6289	24.85	-0.02	-0.750			
0.0347	2218.48	4.0790	4.0791	-0.6333	24.85	-0.02	-0.750			
0.0366	2340.97	4.0760	4.0760	-0.6384	24.85	-0.02	-0.750			
0.0385	2464.00	4.0730	4.0731	-0.6414	24.86	-0.01	-0.750			
0.0404	2587.39	4.0700	4.0700	-0.6512	24.86	-0.01	-0.750			
0.0424	2713.71	4.0670	4.0669	-0.6532	24.86	-0.01	-0.750			
0.0444	2838.56	4.0640	4.0640	-0.6587	24.87	-0.00	-0.750			
0.0463	2965.77	4.0610	4.0610	-0.6653	24.87	-0.00	-0.750			
0.0484	3095.62	4.0580	4.0580	-0.6670	24.87	0.00	-0.750			
0.0504	3223.21	4.0550	4.0549	-0.6713	24.87	0.00	-0.750			
0.0524	3351.66	4.0520	4.0520	-0.6749	24.87	0.00	-0.750			
0.0544	3480.60	4.0490	4.0490	-0.6748	24.88	0.01	-0.750			
0.0565	3612.87	4.0460	4.0460	-0.6827	24.88	0.01	-0.750			
0.0585	3742.44	4.0430	4.0430	-0.6835	24.88	0.01	-0.750			
0.0605	3875.15	4.0400	4.0400	-0.6863	24.88	0.01	-0.750			
0.0626	4008.40	4.0370	4.0369	-0.6898	24.88	0.01	-0.750			
0.0647	4138.41	4.0340	4.0341	-0.6942	24.88	0.01	-0.750			
0.0668	4273.45	4.0310	4.0310	-0.6938	24.89	0.02	-0.750			
0.0689	4407.56	4.0280	4.0279	-0.6953	24.89	0.02	-0.750			
0.0710	4541.21	4.0250	4.0250	-0.6946	24.89	0.02	-0.750			
0.0730	4674.01	4.0220	4.0221	-0.6957	24.89	0.02	-0.750			
0.0751	4808.34	4.0190	4.0189	-0.6996	24.90	0.03	-0.750			
0.0772	4941.90	4.0160	4.0160	-0.6991	24.90	0.03	-0.750			
0.0793	5074.34	4.0130	4.0130	-0.6966	24.91	0.04	-0.750			
0.0814	5210.20	4.0100	4.0101	-0.7052	24.91	0.04	-0.750			
0.0835	5346.23	4.0070	4.0068	-0.7079	24.92	0.05	-0.750			
0.0857	5481.96	4.0040	4.0039	-0.7133	24.92	0.05	-0.750			
0.0878	5618.91	4.0010	4.0010	-0.7139	24.92	0.05	-0.750			
0.0899	5756.55	3.9980	3.9980	-0.7207	24.92	0.05	-0.750			
0.0922	5898.09	3.9950	3.9950	-0.7202	24.93	0.06	-0.750			
0.0943	6036.08	3.9920	3.9920	-0.7210	24.93	0.06	-0.750			
0.0965	6173.55	3.9890	3.9891	-0.7219	24.93	0.06	-0.750			
0.0986	6311.97	3.9860	3.9860	-0.7247	24.93	0.06	-0.750			
0.1008	6450.40	3.9830	3.9829	-0.7237	24.94	0.07	-0.750			
0.1030	6590.33	3.9800	3.9800	-0.7306	24.94	0.07	-0.750			
0.1052	6730.41	3.9770	3.9771	-0.7334	24.94	0.07	-0.750			
0.1074	6874.62	3.9740	3.9739	-0.7435	24.95	0.08	-0.750			
0.1096	7016.35	3.9710	3.9712	-0.7400	24.95	0.08	-0.750			
0.1118	7158.31	3.9680	3.9680	-0.7411	24.96	0.09	-0.750			
0.1141	7300.72	3.9650	3.9650	-0.7457	24.96	0.09	-0.750			
0.1163	7444.84	3.9620	3.9620	-0.7443	24.97	0.10	-0.750			
0.1186	7587.99	3.9590	3.9591	-0.7468	24.97	0.10	-0.750			
0.1208	7730.89	3.9560	3.9560	-0.7442	24.98	0.11	-0.750			
0.1230	7873.54	3.9530	3.9530	-0.7463	24.98	0.11	-0.750			
0.1253	8016.91	3.9500	3.9500	-0.7480	24.98	0.11	-0.750			
0.1275	8159.91	3.9470	3.9470	-0.7492	24.98	0.11	-0.750			
0.1297	8303.68	3.9440	3.9439	-0.7520	24.99	0.12	-0.750			
0.1320	8449.25	3.9410	3.9411	-0.7577	24.99	0.12	-0.750			
0.1343	8594.53	3.9380	3.9380	-0.7594	24.99	0.12	-0.750			
0.1366	8740.99	3.9350	3.9350	-0.7644	24.99	0.12	-0.750			
0.1389	8887.69	3.9320	3.9320	-0.7663	25.00	0.13	-0.750			
0.1412	9036.90	3.9290	3.9290	-0.7635	25.00	0.13	-0.750			
0.1435	9184.45	3.9260	3.9260	-0.7594	25.00	0.13	-0.750			
0.1458	9329.21	3.9230	3.9231	-0.7603	25.01	0.14	-0.750			
0.1480	9474.49	3.9200	3.9200	-0.7596	25.01	0.14	-0.750			
0.1503	9617.37	3.9170	3.9170	-0.7647	25.02	0.15	-0.750			
0.1526	9764.61	3.9140	3.9140	-0.7694	25.02	0.15	-0.750			
0.1549	9914.62	3.9110	3.9110	-0.7732	25.02	0.15	-0.750			
0.1573	10064.52	3.9080	3.9080	-0.7808	25.03	0.16	-0.750			
0.1596	10216.50	3.9050	3.9055	-0.7798	25.03	0.16	-0.750			
0.1620	10365.24	3.9020	3.9020	-0.7760	25.03	0.16	-0.750			
0.1643	10513.95	3.8990	3.8990	-0.7779	25.04	0.17	-0.750			
0.1666	10662.62	3.8960	3.8960	-0.7751	25.04	0.17	-0.750			
0.1689	10812.27	3.8930	3.8929	-0.7762	25.04	0.17	-0.750			
0.1713	10960.98	3.8900	3.8900	-0.7735	25.05	0.18	-0.750			
0.1736	11108.10	3.8870	3.8870	-0.7708	25.05	0.18	-0.750			
0.1759	11255.41	3.8840	3.8840	-0.7794	25.06	0.19	-0.750			
0.1782	11404.36	3.8810	3.8810	-0.7785	25.06	0.19	-0.750			
0.1805	11554.37	3.8780	3.8779	-0.7810	25.06	0.19	-0.750			
0.1829	11707.91	3.8750	3.8750	-0.7870	25.07	0.20	-0.750			
0.1853	11860.16	3.8720	3.8721	-0.7853	25.07	0.20	-0.750			
0.1877	12009.80	3.8690	3.8690	-0.7877	25.07	0.20	-0.750			
0.1900	12160.62	3.8660	3.8660	-0.7852	25.07	0.20	-0.750			
0.1923	12309.03	3.8630	3.8629	-0.7782	25.08	0.21	-0.750			
0.1947	12460.34	3.8600	3.8599	-0.7823	25.08	0.21	-0.750			
0.1970	12611.01	3.8570	3.8571	-0.7833	25.08	0.21	-0.750			
0.1994	12760.80	3.8540	3.8540	-0.7821	25.08	0.21	-0.750			
0.2018	12912.19	3.8510	3.8509	-0.7848	25.09	0.22	-0.750			
0.2041	13061.89	3.8480	3.8480	-0.7825	25.09	0.22	-0.750			
0.2064	13211.77	3.8450	3.8449	-0.7846	25.09	0.22	-0.750			
0.2088	13363.20	3.8420	3.8419	-0.7832	25.10	0.23	-0.750			
0.2112	13514.27	3.8390	3.8389	-0.7818	25.10	0.23	-0.750			
0.2135	13663.08	3.8360	3.8360	-0.7811	25.11	0.24	-0.750			
0.2158	13813.26	3.8330	3.8330	-0.7790	25.11	0.24	-0.750			
0.2182	13962.68	3.8300	3.8300	-0.7767	25.11	0.24	-0.750			
0.2205	14112.31	3.8270	3.8269	-0.7753	25.12	0.25	-0.750			
0.2228	14261.21	3.8240	3.8241	-0.7707	25.12	0.25	-0.750			
0.2252	14409.75	3.8210	3.8210	-0.7697	25.12	0.25	-0.750			
0.2274	14556.60	3.8180	3.8180	-0.7664	25.13	0.26	-0.750			
0.2297	14701.89	3.8150	3.8150	-0.7644	25.13	0.26	-0.750			
0.2320	14849.06	3.8120	3.8120	-0.7682	25.14	0.27	-0.750			
0.2343	14997.33	3.8090	3.8089	-0.7692	25.14	0.27	-0.750			
0.2367	15145.82	3.8060	3.8060	-0.7648	25.14	0.27	-0.750			
0.2390	15293.19	3.8030	3.8030	-0.7606	25.14	0.27	-0.750			
0.2412	15439.74	3.8000	3.8000	-0.7531	25.14	0.27	-0.750			
0.2435	15584.40	3.7970	3.7969	-0.7468	25.14	0.27	-0.750			
0.2457	15724.72	3.7940	3.7940	-0.7370	25.14	0.27	-0.750			
0.2479	15864.86	3.7910	3.7911	-0.7323	25.14	0.27	-0.750			
0.2501	16004.89	3.7880	3.7879	-0.7332	25.14	0.27	-0.750			
0.2523	16145.94	3.7850	3.7849	-0.7347	25.14	0.27	-0.750			
0.2545	16287.11	3.7820	3.7820	-0.7310	25.15	0.28	-0.750			
0.2567	16427.96	3.7790	3.7790	-0.7307	25.15	0.28	-0.750			
0.2589	16569.33	3.7760	3.7760	-0.7297	25.15	0.28	-0.750			
0.2611	16708.56	3.7730	3.7729	-0.7259	25.15	0.28	-0.750			
0.2632	16846.47	3.7700	3.7699	-0.7198	25.16	0.29	-0.750			
0.2654	16983.66	3.7670	3.7671	-0.7233	25.16	0.29	-0.750			
0.2675	17122.46	3.7640	3.7640	-0.7244	25.17	0.30	-0.750			
0.2697	17263.45	3.7610	3.7609	-0.7323	25.17	0.30	-0.750			
0.2719	17403.67	3.7580	3.7583	-0.7319	25.18	0.31	-0.750			
0.2741	17545.08	3.7550	3.7549	-0.7296	25.18	0.31	-0.750			
0.2763	17684.64	3.7520	3.7520	-0.7318	25.18	0.31	-0.750			
0.2785	17824.13	3.7490	3.7491	-0.7390	25.18	0.31	-0.750			
0.2807	17967.89	3.7460	3.7458	-0.7459	25.18	0.31	-0.750			
0.2830	18110.60	3.7430	3.7429	-0.7515	25.18	0.31	-0.750			
0.2852	18254.50	3.7400	3.7401	-0.7634	25.18	0.31	-0.750			
0.2876	18403.99	3.7370	3.7370	-0.7718	25.18	0.31	-0.750			
0.2899	18553.96	3.7340	3.7339	-0.7819	25.18	0.31	-0.750			
0.2922	18702.57	3.7310	3.7311	-0.7837	25.18	0.31	-0.750			
0.2946	18854.71	3.7280	3.7280	-0.8001	25.18	0.31	-0.750			
0.2970	19009.10	3.7250	3.7252	-0.8084	25.18	0.31	-0.750			
0.2994	19163.71	3.7220	3.7219	-0.8182	25.18	0.31	-0.750			
0.3019	19320.92	3.7190	3.7190	-0.8401	25.18	0.31	-0.750			
0.3045	19486.63	3.7160	3.7160	-0.8545	25.18	0.31	-0.750			
0.3071	19652.92	3.7130	3.7129	-0.8719	25.18	0.31	-0.750			
0.3097	19821.51	3.7100	3.7103	-0.8839	25.18	0.31	-0.750			
0.3124	19990.87	3.7070	3.7069	-0.9026	25.18	0.31	-0.750			
0.3151	20167.07	3.7040	3.7039	-0.9142	25.18	0.31	-0.750			
0.3179	20343.22	3.7010	3.7010	-0.9238	25.18	0.31	-0.750			
0.3207	20521.93	3.6980	3.6980	-0.9407	25.18	0.31	-0.750			
0.3235	20703.98	3.6950	3.6951	-0.9571	25.18	0.31	-0.750			
0.3264	20888.46	3.6920	3.6919	-0.9738	25.17	0.30	-0.750			
0.3293	21077.30	3.6890	3.6889	-0.9881	25.17	0.30	-0.750			
0.3323	21267.82	3.6860	3.6860	-0.9990	25.16	0.29	-0.750			
0.3354	21462.79	3.6830	3.6832	-1.0248	25.16	0.29	-0.750			
0.3385	21662.64	3.6800	3.6800	-1.0355	25.15	0.28	-0.750			
0.3416	21860.87	3.6770	3.6769	-1.0500	25.15	0.28	-0.750			
0.3447	22060.84	3.6740	3.6740	-1.0625	25.14	0.27	-0.750			
0.3480	22268.81	3.6710	3.6711	-1.0956	25.14	0.27	-0.750			
0.3513	22483.07	3.6680	3.6679	-1.1122	25.13	0.26	-0.750			
0.3547	22699.80	3.6650	3.6650	-1.1288	25.13	0.26	-0.750			
0.3581	22916.83	3.6620	3.6620	-1.1507	25.12	0.25	-0.750			
0.3616	23141.38	3.6590	3.6590	-1.1814	25.12	0.25	-0.750			
0.3651	23368.14	3.6560	3.6558	-1.1974	25.11	0.24	-0.750			
0.3688	23600.57	3.6530	3.6530	-1.2206	25.11	0.24	-0.750			
0.3724	23836.50	3.6500	3.6502	-1.2531	25.10	0.23	-0.750			
0.3764	24087.16	3.6470	3.6470	-1.2701	25.09	0.22	-0.750			
0.3802	24334.18	3.6440	3.6438	-1.2859	25.08	0.21	-0.750			
0.3840	24579.19	3.6410	3.6414	-1.3102	25.07	0.20	-0.750			
0.3880	24831.54	3.6380	3.6379	-1.3314	25.06	0.19	-0.750			
0.3920	25087.86	3.6350	3.6348	-1.3565	25.06	0.19	-0.750			
0.3961	25348.42	3.6320	3.6321	-1.3801	25.05	0.18	-0.750			
0.4003	25621.34	3.6290	3.6290	-1.4218	25.04	0.17	-0.750			
0.4046	25896.76	3.6260	3.6260	-1.4605	25.04	0.17	-0.750			
0.4091	26182.40	3.6230	3.6230	-1.4856	25.03	0.16	-0.750			
0.4136	26467.32	3.6200	3.6199	-1.5102	25.03	0.16	-0.750			
0.4182	26761.63	3.6170	3.6172	-1.5505	25.02	0.15	-0.750			
0.4229	27062.70	3.6140	3.6141	-1.5716	25.02	0.15	-0.750			
0.4276	27365.45	3.6110	3.6114	-1.5979	25.01	0.14	-0.750	0.396	0.569	
0.4324	27675.67	3.6080	3.6080	-1.6143	25.00	0.13	-0.750			
0.4373	27986.80	3.6050	3.6047	-1.6417	25.00	0.13	-0.750			
0.4423	28304.59	3.6020	3.6019	-1.6915	24.99	0.12	-0.750			
0.4473	28629.44	3.5990	3.5990	-1.7319	24.98	0.11	-0.750			
0.4526	28964.05	3.5960	3.5960	-1.7512	24.98	0.11	-0.750			
0.4579	29305.71	3.5930	3.5931	-1.7760	24.97	0.10	-0.750			
0.4633	29648.32	3.5900	3.5902	-1.8038	24.97	0.10	-0.750			
0.4688	30003.32	3.5870	3.5868	-1.8497	24.97	0.10	-0.750			
0.4743	30354.69	3.5840	3.5839	-1.8818	24.97	0.10	-0.750			
0.4800	30720.22	3.5810	3.5808	-1.9116	24.96	0.09	-0.750			
0.4859	31095.60	3.5780	3.5782	-1.9585	24.96	0.09	-0.750			
0.4919	31480.62	3.5750	3.5748	-1.9910	24.95	0.08	-0.750			
0.4980	31869.96	3.5720	3.5721	-2.0030	24.95	0.08	-0.750			
0.5040	32254.95	3.5690	3.5688	-2.0218	24.95	0.08	-0.750			
0.5100	32642.67	3.5660	3.5660	-2.0281	24.95	0.08	-0.750			
0.5162	33035.07	3.5630	3.5630	-2.0351	24.95	0.08	-0.750			
0.5223	33426.38	3.5600	3.5600	-2.0589	24.95	0.08	-0.750			
0.5285	33824.74	3.5570	3.5573	-2.0778	24.95	0.08	-0.750			
0.5348	34230.05	3.5540	3.5542	-2.0900	24.95	0.08	-0.750			
0.5411	34632.84	3.5510	3.5512	-2.1022	24.95	0.08	-0.750			
0.5474	35036.75	3.5480	3.5480	-2.0825	24.95	0.08	-0.750			
0.5538	35444.33	3.5450	3.5450	-2.0894	24.96	0.09	-0.750			
0.5601	35846.02	3.5420	3.5420	-2.0680	24.96	0.09	-0.750			
0.5662	36238.06	3.5390	3.5391	-2.0440	24.97	0.10	-0.750			
0.5723	36627.42	3.5360	3.5358	-2.0173	24.97	0.10	-0.750			
0.5783	37009.77	3.5330	3.5331	-2.0169	24.97	0.10	-0.750			
0.5843	37395.10	3.5300	3.5300	-1.9826	24.98	0.11	-0.750			
0.5904	37785.55	3.5270	3.5272	-1.9705	24.98	0.11	-0.750			
0.5962	38160.00	3.5240	3.5240	-1.9303	24.99	0.12	-0.750			
0.6020	38528.54	3.5210	3.5210	-1.9066	24.99	0.12	-0.750			
0.6076	38884.88	3.5180	3.5181	-1.8717	25.00	0.13	-0.750			
0.6132	39243.17	3.5150	3.5148	-1.8313	25.01	0.14	-0.750			
0.6186	39593.44	3.5120	3.5118	-1.7881	25.01	0.14	-0.750			
0.6241	39941.82	3.5090	3.5089	-1.7513	25.02	0.15	-0.750			
0.6292	40269.96	3.5060	3.5061	-1.7064	25.03	0.16	-0.750			
0.6343	40596.28	3.5030	3.5032	-1.6544	25.04	0.17	-0.750			
0.6392	40907.69	3.5000	3.4999	-1.5930	25.05	0.18	-0.750			
0.6439	41208.26	3.4970	3.4969	-1.5662	25.06	0.19	-0.750			
0.6485	41506.37	3.4940	3.4940	-1.5180	25.07	0.20	-0.750			
0.6531	41796.66	3.4910	3.4908	-1.4768	25.09	0.22	-0.750			
0.6573	42070.33	3.4880	3.4880	-1.4295	25.10	0.23	-0.750			
0.6616	42339.64	3.4850	3.4850	-1.3763	25.11	0.24	-0.750			
0.6657	42601.81	3.4820	3.4819	-1.3418	25.12	0.25	-0.750			
0.6696	42851.79	3.4790	3.4789	-1.2967	25.13	0.26	-0.750			
0.6733	43093.82	3.4760	3.4760	-1.2598	25.15	0.28	-0.750			
0.6772	43338.67	3.4730	3.4729	-1.2252	25.16	0.29	-0.750			
0.6808	43571.19	3.4700	3.4700	-1.1809	25.18	0.31	-0.750			
0.6842	43791.37	3.4670	3.4671	-1.1389	25.20	0.33	-0.750			
0.6877	44009.84	3.4640	3.4639	-1.1082	25.21	0.34	-0.750			
0.6908	44213.07	3.4610	3.4609	-1.0661	25.22	0.35	-0.750			
0.6940	44414.64	3.4580	3.4580	-1.0335	25.23	0.36	-0.750			
0.6970	44610.00	3.4550	3.4552	-1.0113	25.24	0.37	-0.750			
0.7000	44801.64	3.4520	3.4520	-0.9905	25.25	0.38	-0.750			
0.7030	44990.18	3.4490	3.4490	-0.9616	25.26	0.39	-0.750			
0.7058	45170.02	3.4460	3.4459	-0.9338	25.27	0.40	-0.750			
0.7086	45348.84	3.4430	3.4430	-0.9189	25.29	0.42	-0.750			
0.7113	45521.16	3.4400	3.4399	-0.8937	25.30	0.43	-0.750			
0.7139	45692.13	3.4370	3.4369	-0.8804	25.31	0.44	-0.750			
0.7165	45857.64	3.4340	3.4339	-0.8593	25.32	0.45	-0.750			
0.7190	46018.23	3.4310	3.4310	-0.8474	25.33	0.46	-0.750			
0.7216	46183.31	3.4280	3.4280	-0.8406	25.34	0.47	-0.750			
0.7241	46341.28	3.4250	3.4249	-0.8338	25.35	0.48	-0.750			
0.7265	46498.38	3.4220	3.4221	-0.8342	25.35	0.48	-0.750			
0.7290	46658.62	3.4190	3.4190	-0.8381	25.36	0.49	-0.750			
0.7316	46819.53	3.4160	3.4160	-0.8395	25.37	0.50	-0.750			
0.7341	46983.77	3.4130	3.4131	-0.8476	25.38	0.51	-0.750			
0.7367	47147.25	3.4100	3.4100	-0.8463	25.38	0.51	-0.750			
0.7393	47312.74	3.4070	3.4070	-0.8520	25.39	0.52	-0.750			
0.7418	47475.81	3.4040	3.4039	-0.8435	25.39	0.52	-0.750			
0.7443	47636.89	3.4010	3.4010	-0.8364	25.40	0.53	-0.750			
0.7469	47799.19	3.3980	3.3982	-0.8296	25.40	0.53	-0.750			
0.7493	47956.59	3.3950	3.3950	-0.8215	25.41	0.54	-0.750			
0.7518	48113.61	3.3920	3.3919	-0.8125	25.42	0.55	-0.750			
0.7542	48269.89	3.3890	3.3889	-0.7980	25.42	0.55	-0.750			
0.7566	48424.64	3.3860	3.3859	-0.7826	25.43	0.56	-0.750			
0.7590	48573.87	3.3830	3.3832	-0.7545	25.44	0.57	-0.750			
0.7612	48717.28	3.3800	3.3799	-0.7290	25.45	0.58	-0.750			
0.7633	48854.37	3.3770	3.3770	-0.7008	25.45	0.58	-0.750			
0.7654	48983.52	3.3740	3.3739	-0.6764	25.46	0.59	-0.750			
0.7673	49108.59	3.3710	3.3710	-0.6513	25.46	0.59	-0.750			
0.7693	49233.86	3.3680	3.3679	-0.6314	25.47	0.60	-0.750			
0.7711	49352.73	3.3650	3.3650	-0.6090	25.48	0.61	-0.750			
0.7730	49469.02	3.3620	3.3620	-0.5909	25.48	0.61	-0.750			
0.7747	49578.88	3.3590	3.3590	-0.5699	25.49	0.62	-0.750			
0.7763	49685.44	3.3560	3.3560	-0.5487	25.49	0.62	-0.750			
0.7779	49787.79	3.3530	3.3530	-0.5315	25.50	0.63	-0.750			
0.7795	49889.04	3.3500	3.3500	-0.5187	25.50	0.63	-0.750			
0.7811	49987.76	3.3470	3.3470	-0.5058	25.51	0.64	-0.750			
0.7826	50083.24	3.3440	3.3439	-0.4888	25.51	0.64	-0.750			
0.7840	50175.33	3.3410	3.3411	-0.4742	25.52	0.65	-0.750			
0.7854	50264.96	3.3380	3.3381	-0.4605	25.52	0.65	-0.750			
0.7868	50352.83	3.3350	3.3349	-0.4464	25.53	0.66	-0.750			
0.7881	50436.41	3.3320	3.3319	-0.4321	25.54	0.67	-0.750			
0.7893	50517.46	3.3290	3.3291	-0.4197	25.54	0.67	-0.750			
0.7906	50596.55	3.3260	3.3261	-0.4090	25.55	0.68	-0.750			
0.7918	50674.25	3.3230	3.3229	-0.3987	25.55	0.68	-0.750			
0.7930	50749.04	3.3200	3.3200	-0.3895	25.56	0.69	-0.750			
0.7941	50823.19	3.3170	3.3170	-0.3785	25.57	0.70	-0.750			
0.7952	50895.11	3.3140	3.3139	-0.3695	25.57	0.70	-0.750			
0.7963	50964.99	3.3110	3.3110	-0.3591	25.58	0.71	-0.750			
0.7974	51032.92	3.3080	3.3082	-0.3506	25.58	0.71	-0.750			
0.7984	51098.96	3.3050	3.3049	-0.3416	25.59	0.72	-0.750			
0.7994	51163.79	3.3020	3.3020	-0.3342	25.59	0.72	-0.750			
0.8004	51226.44	3.2990	3.2990	-0.3259	25.60	0.73	-0.750			
0.8014	51288.96	3.2960	3.2960	-0.3208	25.60	0.73	-0.750			
0.8023	51350.02	3.2930	3.2930	-0.3136	25.61	0.74	-0.750			
0.8033	51409.83	3.2900	3.2900	-0.3070	25.61	0.74	-0.750			
0.8042	51468.01	3.2870	3.2870	-0.2995	25.62	0.75	-0.750			
0.8051	51524.75	3.2840	3.2840	-0.2937	25.62	0.75	-0.750			
0.8059	51579.89	3.2810	3.2810	-0.2882	25.63	0.76	-0.750			
0.8068	51634.61	3.2780	3.2780	-0.2831	25.63	0.76	-0.750			
0.8076	51688.61	3.2750	3.2749	-0.2780	25.64	0.77	-0.750			
0.8085	51741.55	3.2720	3.2721	-0.2739	25.64	0.77	-0.750			
0.8093	51793.98	3.2690	3.2690	-0.2704	25.65	0.78	-0.750			
0.8101	51845.43	3.2660	3.2660	-0.2664	25.65	0.78	-0.750			
0.8109	51895.61	3.2630	3.2629	-0.2617	25.66	0.79	-0.750			
0.8117	51945.70	3.2600	3.2600	-0.2574	25.67	0.80	-0.750			
0.8124	51994.83	3.2570	3.2570	-0.2547	25.68	0.81	-0.750			
0.8132	52043.34	3.2540	3.2541	-0.2529	25.68	0.81	-0.750			
0.8139	52091.81	3.2510	3.2509	-0.2497	25.69	0.82	-0.750			
0.8147	52139.13	3.2480	3.2480	-0.2465	25.70	0.83	-0.750			
0.8154	52186.07	3.2450	3.2451	-0.2439	25.70	0.83	-0.750			
0.8161	52233.10	3.2420	3.2421	-0.2408	25.71	0.84	-0.750			
0.8169	52279.24	3.2390	3.2389	-0.2385	25.72	0.85	-0.750			
0.8176	52324.23	3.2360	3.2360	-0.2349	25.72	0.85	-0.750			
0.8183	52369.28	3.2330	3.2330	-0.2310	25.73	0.86	-0.750			
0.8189	52412.77	3.2300	3.2301	-0.2292	25.73	0.86	-0.750			
0.8196	52456.98	3.2270	3.2270	-0.2269	25.74	0.87	-0.750			
0.8203	52500.14	3.2240	3.2241	-0.2240	25.75	0.88	-0.750			
0.8210	52543.14	3.2210	3.2209	-0.2215	25.75	0.88	-0.750			
0.8216	52585.17	3.2180	3.2180	-0.2182	25.75	0.88	-0.750			
0.8223	52626.84	3.2150	3.2151	-0.2157	25.75	0.88	-0.750			
0.8229	52668.15	3.2120	3.2120	-0.2132	25.76	0.89	-0.750			
0.8236	52709.09	3.2090	3.2090	-0.2107	25.77	0.90	-0.750			
0.8242	52748.33	3.2060	3.2060	-0.2073	25.77	0.90	-0.750			
0.8248	52788.56	3.2030	3.2030	-0.2061	25.78	0.91	-0.750			
0.8254	52827.89	3.2000	3.2000	-0.2036	25.78	0.91	-0.750			
0.8260	52866.66	3.1970	3.1969	-0.2013	25.79	0.92	-0.750			
0.8266	52904.87	3.1940	3.1941	-0.1995	25.79	0.92	-0.750			
0.8272	52943.17	3.1910	3.1910	-0.1975	25.80	0.93	-0.750			
0.8278	52980.89	3.1880	3.1879	-0.1954	25.81	0.94	-0.750			
0.8284	53018.21	3.1850	3.1850	-0.1936	25.81	0.94	-0.750			
0.8290	53055.01	3.1820	3.1820	-0.1913	25.82	0.95	-0.750			
0.8296	53091.77	3.1790	3.1791	-0.1902	25.82	0.95	-0.750			
0.8301	53128.09	3.1760	3.1759	-0.1881	25.83	0.96	-0.750			
0.8307	53163.93	3.1730	3.1730	-0.1858	25.83	0.96	-0.750			
0.8312	53199.33	3.1700	3.1701	-0.1835	25.84	0.97	-0.750			
0.8318	53234.54	3.1670	3.1669	-0.1822	25.85	0.98	-0.750			
0.8323	53269.31	3.1640	3.1641	-0.1800	25.85	0.98	-0.750			
0.8329	53303.47	3.1610	3.1610	-0.1785	25.86	0.99	-0.750			
0.8334	53337.57	3.1580	3.1580	-0.1767	25.86	0.99	-0.750			
0.8339	53371.30	3.1550	3.1550	-0.1751	25.86	0.99	-0.750			
0.8344	53404.80	3.1520	3.1520	-0.1739	25.87	1.00	-0.750			
0.8350	53438.13	3.1490	3.1490	-0.1726	25.88	1.01	-0.750			
0.8355	53471.34	3.1460	3.1459	-0.1704	25.88	1.01	-0.750			
0.8360	53503.78	3.1430	3.1430	-0.1687	25.89	1.02	-0.750			
0.8365	53535.86	3.1400	3.1401	-0.1666	25.89	1.02	-0.750			
0.8370	53567.70	3.1370	3.1370	-0.1650	25.90	1.03	-0.750			
0.8375	53599.22	3.1340	3.1339	-0.1637	25.91	1.04	-0.750			
0.8380	53630.34	3.1310	3.1310	-0.1622	25.91	1.04	-0.750			
0.8385	53661.37	3.1280	3.1279	-0.1607	25.92	1.05	-0.750			
0.8389	53692.11	3.1250	3.1251	-0.1595	25.93	1.06	-0.750			
0.8394	53722.93	3.1220	3.1220	-0.1580	25.93	1.06	-0.750			
0.8399	53752.91	3.1190	3.1191	-0.1565	25.94	1.07	-0.750			
0.8404	53782.67	3.1160	3.1160	-0.1553	25.94	1.07	-0.750			
0.8408	53812.39	3.1130	3.1131	-0.1543	25.95	1.08	-0.750			
0.8413	53841.80	3.1100	3.1099	-0.1528	25.96	1.09	-0.750			
0.8417	53871.08	3.1070	3.1070	-0.1515	25.96	1.09	-0.750			
0.8422	53900.18	3.1040	3.1040	-0.1506	25.97	1.10	-0.750			
0.8426	53929.00	3.1010	3.1011	-0.1491	25.97	1.10	-0.750			
0.8431	53957.58	3.0980	3.0980	-0.1480	25.98	1.11	-0.750			
0.8435	53985.69	3.0950	3.0950	-0.1464	25.98	1.11	-0.750			
0.8440	54013.67	3.0920	3.0920	-0.1451	25.99	1.12	-0.750			
0.8444	54041.19	3.0890	3.0890	-0.1444	26.00	1.13	-0.750			
0.8448	54068.93	3.0860	3.0860	-0.1434	26.00	1.13	-0.750			
0.8453	54096.33	3.0830	3.0830	-0.1426	26.01	1.14	-0.750			
0.8457	54123.64	3.0800	3.0800	-0.1419	26.01	1.14	-0.750			
0.8461	54151.00	3.0770	3.0770	-0.1406	26.02	1.15	-0.750			
0.8465	54177.90	3.0740	3.0740	-0.1393	26.02	1.15	-0.750			
0.8469	54204.60	3.0710	3.0711	-0.1381	26.03	1.16	-0.750			
0.8474	54230.92	3.0680	3.0680	-0.1366	26.03	1.16	-0.750			
0.8478	54256.75	3.0650	3.0650	-0.1354	26.04	1.17	-0.750			
0.8482	54282.65	3.0620	3.0619	-0.1344	26.05	1.18	-0.750			
0.8486	54308.15	3.0590	3.0590	-0.1333	26.05	1.18	-0.750			
0.8490	54333.75	3.0560	3.0559	-0.1328	26.06	1.19	-0.750			
0.8494	54359.27	3.0530	3.0531	-0.1325	26.06	1.19	-0.750			
0.8498	54384.84	3.0500	3.0499	-0.1311	26.07	1.20	-0.750			
0.8502	54410.09	3.0470	3.0470	-0.1301	26.08	1.21	-0.750			
0.8505	54435.05	3.0440	3.0439	-0.1292	26.08	1.21	-0.750			
0.8509	54459.71	3.0410	3.0411	-0.1277	26.09	1.22	-0.750			
0.8513	54483.78	3.0380	3.0380	-0.1274	26.09	1.22	-0.750			
0.8517	54507.96	3.0350	3.0349	-0.1265	26.10	1.23	-0.750			
0.8521	54532.32	3.0320	3.0320	-0.1259	26.11	1.24	-0.750			
0.8524	54556.16	3.0290	3.0289	-0.1252	26.11	1.24	-0.750			
0.8528	54580.42	3.0260	3.0261	-0.1239	26.12	1.25	-0.750			
0.8532	54604.67	3.0230	3.0230	-0.1233	26.12	1.25	-0.750			
0.8536	54628.42	3.0200	3.0199	-0.1215	26.13	1.26	-0.750			
0.8539	54651.51	3.0170	3.0170	-0.1191	26.13	1.26	-0.750			
0.8543	54673.78	3.0140	3.0140	-0.1175	26.14	1.27	-0.750			
0.8546	54696.22	3.0110	3.0111	-0.1162	26.14	1.27	-0.750			
0.8550	54718.20	3.0080	3.0080	-0.1152	26.15	1.28	-0.751			
0.8553	54740.24	3.0050	3.0049	-0.1145	26.15	1.28	-0.751			
0.8557	54762.27	3.0020	3.0020	-0.1174	26.16	1.29	-0.751			
