Ah_balance (normalized)	Ah_balance (mAh)	Voltage - fit (V)	Voltage -  interpolate (V)	dQ/dV (1/V)	Temperature (°C)	Temperature - diff (°C)	Current (C)	R_DC 0ms (mOhm)	R_DC 50ms (mOhm)	R_DC 50 ms PEC (mOhm)
0.0005	30.92	4.1590	4.1589	-0.1323	25.95	0.01	-0.750			
0.0010	61.47	4.1560	4.1558	-0.1756	25.95	0.01	-0.750			
0.0015	99.11	4.1530	4.1530	-0.2139	25.95	0.01	-0.750			
0.0022	143.00	4.1500	4.1500	-0.2546	25.95	0.01	-0.750			
0.0031	196.67	4.1470	4.1472	-0.2881	25.95	0.01	-0.750			
0.0040	256.79	4.1440	4.1439	-0.3228	25.94	0.00	-0.750			
0.0050	322.11	4.1410	4.1409	-0.3569	25.94	0.00	-0.750			
0.0062	394.07	4.1380	4.1380	-0.3885	25.94	-0.00	-0.750			
0.0074	471.78	4.1350	4.1349	-0.4167	25.94	-0.00	-0.750			
0.0087	555.34	4.1320	4.1320	-0.4446	25.93	-0.01	-0.750			
0.0101	643.44	4.1290	4.1291	-0.4666	25.93	-0.01	-0.750			
0.0115	737.20	4.1260	4.1259	-0.4930	25.93	-0.01	-0.750			
0.0130	834.83	4.1230	4.1230	-0.5135	25.92	-0.02	-0.750			
0.0146	934.91	4.1200	4.1200	-0.5312	25.92	-0.02	-0.750			
0.0162	1039.57	4.1170	4.1170	-0.5489	25.91	-0.03	-0.750			
0.0179	1147.00	4.1140	4.1141	-0.5636	25.91	-0.03	-0.750			
0.0196	1256.77	4.1110	4.1109	-0.5787	25.91	-0.03	-0.750			
0.0214	1369.43	4.1080	4.1080	-0.5922	25.90	-0.04	-0.750			
0.0232	1484.05	4.1050	4.1050	-0.6032	25.90	-0.04	-0.750			
0.0250	1601.70	4.1020	4.1021	-0.6121	25.90	-0.04	-0.750			
0.0269	1721.44	4.0990	4.0990	-0.6222	25.90	-0.04	-0.750			
0.0288	1842.15	4.0960	4.0960	-0.6289	25.89	-0.05	-0.750			
0.0307	1963.58	4.0930	4.0932	-0.6344	25.89	-0.05	-0.750			
0.0326	2085.73	4.0900	4.0900	-0.6370	25.89	-0.05	-0.750			
0.0345	2208.50	4.0870	4.0870	-0.6433	25.89	-0.05	-0.750			
0.0365	2332.98	4.0840	4.0840	-0.6526	25.89	-0.05	-0.750			
0.0384	2460.52	4.0810	4.0810	-0.6568	25.89	-0.05	-0.750			
0.0404	2585.75	4.0780	4.0779	-0.6607	25.89	-0.05	-0.750			
0.0424	2714.26	4.0750	4.0750	-0.6653	25.89	-0.05	-0.750			
0.0444	2842.19	4.0720	4.0718	-0.6696	25.89	-0.05	-0.750			
0.0464	2970.54	4.0690	4.0689	-0.6723	25.89	-0.05	-0.750			
0.0484	3097.80	4.0660	4.0661	-0.6785	25.89	-0.05	-0.750			
0.0504	3228.15	4.0630	4.0631	-0.6796	25.88	-0.06	-0.750			
0.0526	3363.63	4.0600	4.0599	-0.6896	25.88	-0.06	-0.750			
0.0546	3495.09	4.0570	4.0570	-0.6913	25.88	-0.06	-0.750			
0.0567	3628.38	4.0540	4.0540	-0.6960	25.88	-0.06	-0.750			
0.0588	3762.15	4.0510	4.0510	-0.6961	25.88	-0.06	-0.750			
0.0609	3896.00	4.0480	4.0480	-0.6995	25.88	-0.06	-0.750			
0.0630	4030.37	4.0450	4.0450	-0.7002	25.89	-0.05	-0.750			
0.0651	4166.46	4.0420	4.0420	-0.7030	25.89	-0.05	-0.750			
0.0672	4301.29	4.0390	4.0390	-0.7042	25.89	-0.05	-0.750			
0.0693	4436.38	4.0360	4.0360	-0.7025	25.89	-0.05	-0.750			
0.0714	4570.79	4.0330	4.0330	-0.7066	25.89	-0.05	-0.750			
0.0735	4706.65	4.0300	4.0300	-0.7137	25.89	-0.05	-0.750			
0.0757	4844.02	4.0270	4.0270	-0.7164	25.89	-0.05	-0.750			
0.0779	4983.43	4.0240	4.0240	-0.7191	25.89	-0.05	-0.750			
0.0800	5122.74	4.0210	4.0211	-0.7218	25.89	-0.05	-0.750			
0.0822	5261.52	4.0180	4.0179	-0.7204	25.89	-0.05	-0.750			
0.0844	5400.53	4.0150	4.0150	-0.7187	25.90	-0.04	-0.750			
0.0865	5535.75	4.0120	4.0120	-0.7198	25.90	-0.04	-0.750			
0.0886	5672.55	4.0090	4.0091	-0.7221	25.90	-0.04	-0.750			
0.0908	5813.60	4.0060	4.0059	-0.7260	25.91	-0.03	-0.750			
0.0930	5954.12	4.0030	4.0030	-0.7243	25.91	-0.03	-0.750			
0.0952	6093.48	4.0000	4.0001	-0.7280	25.91	-0.03	-0.750			
0.0974	6233.20	3.9970	3.9970	-0.7312	25.91	-0.03	-0.750			
0.0996	6373.88	3.9940	3.9939	-0.7361	25.92	-0.02	-0.750			
0.1018	6515.27	3.9910	3.9910	-0.7363	25.92	-0.02	-0.750			
0.1040	6657.30	3.9880	3.9880	-0.7416	25.92	-0.02	-0.750			
0.1063	6800.72	3.9850	3.9851	-0.7450	25.92	-0.02	-0.750			
0.1085	6945.47	3.9820	3.9819	-0.7479	25.92	-0.02	-0.750			
0.1107	7087.53	3.9790	3.9790	-0.7483	25.93	-0.01	-0.750			
0.1130	7230.62	3.9760	3.9760	-0.7470	25.93	-0.01	-0.750			
0.1153	7376.38	3.9730	3.9730	-0.7503	25.94	-0.00	-0.750			
0.1175	7520.32	3.9700	3.9699	-0.7517	25.94	-0.00	-0.750			
0.1198	7664.32	3.9670	3.9669	-0.7511	25.94	0.00	-0.750			
0.1220	7808.68	3.9640	3.9640	-0.7518	25.94	0.00	-0.750			
0.1243	7952.43	3.9610	3.9610	-0.7547	25.94	0.00	-0.750			
0.1265	8096.49	3.9580	3.9581	-0.7550	25.95	0.01	-0.750			
0.1288	8244.10	3.9550	3.9549	-0.7631	25.95	0.01	-0.750			
0.1311	8390.73	3.9520	3.9521	-0.7667	25.95	0.01	-0.750			
0.1334	8538.06	3.9490	3.9490	-0.7665	25.95	0.01	-0.750			
0.1357	8686.15	3.9460	3.9460	-0.7686	25.96	0.02	-0.750			
0.1380	8834.14	3.9430	3.9430	-0.7685	25.96	0.02	-0.750			
0.1403	8981.42	3.9400	3.9400	-0.7698	25.97	0.03	-0.750			
0.1426	9128.60	3.9370	3.9369	-0.7701	25.97	0.03	-0.750			
0.1449	9276.26	3.9340	3.9340	-0.7712	25.97	0.03	-0.750			
0.1472	9423.88	3.9310	3.9309	-0.7767	25.97	0.03	-0.750			
0.1496	9575.02	3.9280	3.9280	-0.7775	25.97	0.03	-0.750			
0.1519	9724.18	3.9250	3.9250	-0.7781	25.97	0.03	-0.750			
0.1543	9873.68	3.9220	3.9220	-0.7836	25.97	0.03	-0.750			
0.1566	10024.15	3.9190	3.9191	-0.7863	25.97	0.03	-0.750			
0.1590	10173.89	3.9160	3.9159	-0.7901	25.98	0.04	-0.750			
0.1613	10326.26	3.9130	3.9130	-0.7946	25.99	0.05	-0.750			
0.1637	10479.84	3.9100	3.9100	-0.7950	26.00	0.06	-0.750			
0.1662	10634.74	3.9070	3.9070	-0.7970	26.00	0.06	-0.750			
0.1686	10787.61	3.9040	3.9041	-0.7958	26.01	0.07	-0.750			
0.1709	10940.19	3.9010	3.9010	-0.7912	26.01	0.07	-0.750			
0.1733	11091.13	3.8980	3.8980	-0.7915	26.02	0.08	-0.750			
0.1757	11242.62	3.8950	3.8950	-0.7909	26.02	0.08	-0.750			
0.1780	11393.99	3.8920	3.8920	-0.7940	26.03	0.09	-0.750			
0.1804	11546.57	3.8890	3.8890	-0.7981	26.03	0.09	-0.750			
0.1828	11700.87	3.8860	3.8860	-0.7996	26.03	0.09	-0.750			
0.1852	11854.67	3.8830	3.8830	-0.8034	26.03	0.09	-0.750			
0.1877	12011.80	3.8800	3.8800	-0.8022	26.03	0.09	-0.750			
0.1901	12164.25	3.8770	3.8770	-0.7999	26.03	0.09	-0.750			
0.1925	12317.51	3.8740	3.8741	-0.8006	26.03	0.09	-0.750			
0.1948	12469.88	3.8710	3.8709	-0.8017	26.03	0.09	-0.750			
0.1972	12622.17	3.8680	3.8679	-0.8050	26.04	0.10	-0.750			
0.1997	12777.97	3.8650	3.8650	-0.8056	26.04	0.10	-0.750			
0.2021	12931.88	3.8620	3.8620	-0.8087	26.04	0.10	-0.750			
0.2046	13091.72	3.8590	3.8590	-0.8138	26.05	0.11	-0.750			
0.2070	13246.44	3.8560	3.8559	-0.8105	26.05	0.11	-0.750			
0.2094	13400.36	3.8530	3.8530	-0.8106	26.06	0.12	-0.750			
0.2118	13556.69	3.8500	3.8499	-0.8111	26.06	0.12	-0.750			
0.2143	13712.54	3.8470	3.8470	-0.8091	26.06	0.12	-0.750			
0.2167	13869.77	3.8440	3.8438	-0.8078	26.07	0.13	-0.750			
0.2191	14024.35	3.8410	3.8411	-0.8028	26.07	0.13	-0.750			
0.2215	14177.06	3.8380	3.8380	-0.8083	26.08	0.14	-0.750			
0.2239	14331.11	3.8350	3.8350	-0.8032	26.08	0.14	-0.750			
0.2263	14484.23	3.8320	3.8319	-0.7981	26.08	0.14	-0.750			
0.2287	14639.19	3.8290	3.8290	-0.8013	26.09	0.15	-0.750			
0.2312	14794.51	3.8260	3.8261	-0.8019	26.09	0.15	-0.750			
0.2336	14947.77	3.8230	3.8230	-0.8009	26.09	0.15	-0.750			
0.2360	15101.31	3.8200	3.8200	-0.8001	26.10	0.16	-0.750			
0.2383	15254.37	3.8170	3.8170	-0.7949	26.10	0.16	-0.750			
0.2408	15408.78	3.8140	3.8140	-0.7972	26.11	0.17	-0.750			
0.2431	15561.26	3.8110	3.8112	-0.7918	26.11	0.17	-0.750			
0.2455	15713.14	3.8080	3.8079	-0.7875	26.11	0.17	-0.750			
0.2479	15863.24	3.8050	3.8050	-0.7838	26.12	0.18	-0.750			
0.2502	16012.14	3.8020	3.8020	-0.7781	26.12	0.18	-0.750			
0.2525	16161.98	3.7990	3.7990	-0.7806	26.12	0.18	-0.750			
0.2549	16311.81	3.7960	3.7960	-0.7774	26.13	0.19	-0.750			
0.2572	16460.95	3.7930	3.7930	-0.7723	26.13	0.19	-0.750			
0.2595	16607.98	3.7900	3.7900	-0.7712	26.13	0.19	-0.750			
0.2618	16756.20	3.7870	3.7870	-0.7669	26.13	0.19	-0.750			
0.2641	16903.62	3.7840	3.7840	-0.7603	26.13	0.19	-0.750			
0.2664	17049.35	3.7810	3.7809	-0.7560	26.13	0.19	-0.750			
0.2686	17193.22	3.7780	3.7782	-0.7537	26.13	0.19	-0.750			
0.2709	17338.28	3.7750	3.7750	-0.7512	26.13	0.19	-0.750			
0.2732	17482.28	3.7720	3.7719	-0.7525	26.14	0.20	-0.750			
0.2754	17626.52	3.7690	3.7690	-0.7484	26.14	0.20	-0.750			
0.2776	17769.59	3.7660	3.7660	-0.7499	26.15	0.21	-0.750			
0.2799	17913.99	3.7630	3.7630	-0.7470	26.15	0.21	-0.750			
0.2821	18056.33	3.7600	3.7599	-0.7479	26.15	0.21	-0.750			
0.2844	18199.31	3.7570	3.7569	-0.7491	26.16	0.22	-0.750			
0.2866	18343.12	3.7540	3.7541	-0.7527	26.16	0.22	-0.750			
0.2889	18487.19	3.7510	3.7509	-0.7543	26.16	0.22	-0.750			
0.2912	18634.20	3.7480	3.7481	-0.7621	26.17	0.23	-0.750			
0.2934	18780.24	3.7450	3.7451	-0.7652	26.17	0.23	-0.750			
0.2957	18927.92	3.7420	3.7419	-0.7717	26.17	0.23	-0.750			
0.2980	19074.85	3.7390	3.7390	-0.7797	26.17	0.23	-0.750			
0.3004	19224.39	3.7360	3.7360	-0.7897	26.17	0.23	-0.750			
0.3028	19378.12	3.7330	3.7330	-0.8009	26.17	0.23	-0.750			
0.3052	19533.58	3.7300	3.7299	-0.8065	26.17	0.23	-0.750			
0.3076	19689.13	3.7270	3.7270	-0.8169	26.17	0.23	-0.750			
0.3101	19845.79	3.7240	3.7240	-0.8341	26.17	0.23	-0.750			
0.3126	20005.68	3.7210	3.7210	-0.8470	26.18	0.24	-0.750			
0.3152	20169.94	3.7180	3.7180	-0.8598	26.18	0.24	-0.750			
0.3178	20337.33	3.7150	3.7151	-0.8776	26.18	0.24	-0.750			
0.3204	20507.16	3.7120	3.7120	-0.8975	26.18	0.24	-0.750			
0.3232	20683.57	3.7090	3.7090	-0.9102	26.18	0.24	-0.750			
0.3259	20858.13	3.7060	3.7059	-0.9200	26.17	0.23	-0.750			
0.3287	21034.26	3.7030	3.7030	-0.9302	26.17	0.23	-0.750			
0.3315	21215.64	3.7000	3.7001	-0.9479	26.17	0.23	-0.750			
0.3344	21399.65	3.6970	3.6969	-0.9707	26.16	0.22	-0.750			
0.3373	21587.57	3.6940	3.6939	-0.9849	26.16	0.22	-0.750			
0.3403	21777.66	3.6910	3.6910	-1.0003	26.15	0.21	-0.750			
0.3433	21972.62	3.6880	3.6884	-1.0272	26.15	0.21	-0.750			
0.3464	22171.14	3.6850	3.6850	-1.0465	26.15	0.21	-0.750			
0.3496	22374.32	3.6820	3.6819	-1.0658	26.14	0.20	-0.750			
0.3528	22578.56	3.6790	3.6790	-1.0821	26.14	0.20	-0.750			
0.3561	22790.49	3.6760	3.6762	-1.1155	26.14	0.20	-0.750			
0.3595	23006.21	3.6730	3.6730	-1.1352	26.13	0.19	-0.750			
0.3629	23226.97	3.6700	3.6699	-1.1555	26.13	0.19	-0.750			
0.3664	23447.65	3.6670	3.6670	-1.1875	26.12	0.18	-0.750			
0.3700	23678.54	3.6640	3.6640	-1.2043	26.12	0.18	-0.750			
0.3736	23913.08	3.6610	3.6610	-1.2283	26.11	0.17	-0.750			
0.3774	24152.31	3.6580	3.6579	-1.2471	26.10	0.16	-0.750			
0.3811	24392.06	3.6550	3.6553	-1.2717	26.09	0.15	-0.750			
0.3850	24641.49	3.6520	3.6520	-1.2906	26.08	0.14	-0.750			
0.3889	24890.75	3.6490	3.6489	-1.3148	26.08	0.14	-0.750			
0.3929	25143.12	3.6460	3.6462	-1.3427	26.07	0.13	-0.750			
0.3969	25403.50	3.6430	3.6429	-1.3741	26.06	0.12	-0.750			
0.4011	25669.21	3.6400	3.6399	-1.4010	26.06	0.12	-0.750			
0.4053	25941.04	3.6370	3.6371	-1.4418	26.05	0.11	-0.750			
0.4098	26225.71	3.6340	3.6339	-1.4747	26.04	0.10	-0.750			
0.4142	26511.13	3.6310	3.6309	-1.5084	26.04	0.10	-0.750			
0.4188	26804.25	3.6280	3.6282	-1.5196	26.03	0.09	-0.750			
0.4234	27097.35	3.6250	3.6249	-1.5521	26.02	0.08	-0.750			
0.4281	27400.20	3.6220	3.6220	-1.5758	26.01	0.07	-0.750			
0.4329	27704.38	3.6190	3.6189	-1.6046	26.01	0.07	-0.750			
0.4377	28014.47	3.6160	3.6160	-1.6442	26.00	0.06	-0.750	0.381	0.525	
0.4427	28334.56	3.6130	3.6130	-1.6682	25.99	0.05	-0.750			
0.4478	28656.46	3.6100	3.6100	-1.7049	25.98	0.04	-0.750			
0.4529	28986.25	3.6070	3.6069	-1.7430	25.97	0.03	-0.750			
0.4581	29318.96	3.6040	3.6039	-1.7803	25.97	0.03	-0.750			
0.4636	29669.32	3.6010	3.6011	-1.8216	25.96	0.02	-0.750			
0.4691	30021.26	3.5980	3.5979	-1.8525	25.96	0.02	-0.750			
0.4748	30386.99	3.5950	3.5951	-1.8909	25.95	0.01	-0.750			
0.4805	30754.06	3.5920	3.5916	-1.9344	25.95	0.01	-0.750			
0.4863	31125.64	3.5890	3.5890	-1.9522	25.94	0.00	-0.750			
0.4923	31505.69	3.5860	3.5861	-1.9856	25.93	-0.01	-0.750			
0.4983	31890.74	3.5830	3.5830	-2.0213	25.92	-0.02	-0.750			
0.5044	32281.37	3.5800	3.5800	-2.0430	25.91	-0.03	-0.750			
0.5105	32675.14	3.5770	3.5772	-2.0778	25.91	-0.03	-0.750			
0.5168	33078.22	3.5740	3.5739	-2.0963	25.90	-0.04	-0.750			
0.5232	33484.31	3.5710	3.5709	-2.1163	25.90	-0.04	-0.750			
0.5296	33894.41	3.5680	3.5680	-2.1406	25.89	-0.05	-0.750			
0.5360	34303.36	3.5650	3.5649	-2.1625	25.89	-0.05	-0.750			
0.5426	34724.97	3.5620	3.5620	-2.1885	25.89	-0.05	-0.750			
0.5492	35149.54	3.5590	3.5590	-2.1952	25.89	-0.05	-0.750			
0.5559	35575.45	3.5560	3.5560	-2.1945	25.89	-0.05	-0.750			
0.5625	35998.08	3.5530	3.5531	-2.1984	25.88	-0.06	-0.750			
0.5691	36421.79	3.5500	3.5500	-2.1912	25.88	-0.06	-0.750			
0.5756	36839.70	3.5470	3.5470	-2.1827	25.88	-0.06	-0.750			
0.5821	37256.69	3.5440	3.5439	-2.1616	25.88	-0.06	-0.750			
0.5887	37676.27	3.5410	3.5410	-2.1397	25.89	-0.05	-0.750			
0.5951	38089.45	3.5380	3.5381	-2.1184	25.89	-0.05	-0.750			
0.6015	38493.79	3.5350	3.5349	-2.0566	25.89	-0.05	-0.750			
0.6076	38885.43	3.5320	3.5319	-2.0272	25.89	-0.05	-0.750			
0.6136	39271.90	3.5290	3.5292	-1.9954	25.89	-0.05	-0.750			
0.6195	39649.72	3.5260	3.5259	-1.9660	25.89	-0.05	-0.750			
0.6254	40025.28	3.5230	3.5231	-1.9311	25.90	-0.04	-0.750			
0.6312	40395.15	3.5200	3.5201	-1.9055	25.91	-0.03	-0.750			
0.6368	40755.54	3.5170	3.5173	-1.8595	25.92	-0.02	-0.750			
0.6424	41114.71	3.5140	3.5140	-1.8224	25.94	-0.00	-0.750			
0.6478	41459.33	3.5110	3.5109	-1.7647	25.94	0.00	-0.750			
0.6530	41793.09	3.5080	3.5081	-1.7171	25.95	0.01	-0.750			
0.6581	42118.26	3.5050	3.5049	-1.6657	25.96	0.02	-0.750			
0.6630	42429.12	3.5020	3.5020	-1.6104	25.97	0.03	-0.750			
0.6677	42734.63	3.4990	3.4990	-1.5617	25.99	0.05	-0.750			
0.6724	43031.81	3.4960	3.4959	-1.5148	26.00	0.06	-0.750			
0.6768	43316.79	3.4930	3.4930	-1.4641	26.02	0.08	-0.750			
0.6811	43593.30	3.4900	3.4901	-1.4232	26.03	0.09	-0.750			
0.6853	43860.77	3.4870	3.4869	-1.3691	26.05	0.11	-0.750			
0.6894	44119.57	3.4840	3.4839	-1.3220	26.06	0.12	-0.750			
0.6932	44366.60	3.4810	3.4811	-1.2809	26.07	0.13	-0.750			
0.6970	44610.06	3.4780	3.4780	-1.2443	26.09	0.15	-0.750			
0.7007	44843.18	3.4750	3.4749	-1.2023	26.11	0.17	-0.750			
0.7042	45067.90	3.4720	3.4719	-1.1623	26.12	0.18	-0.750			
0.7076	45288.06	3.4690	3.4691	-1.1357	26.14	0.20	-0.750			
0.7110	45505.58	3.4660	3.4659	-1.1017	26.15	0.21	-0.750			
0.7143	45714.35	3.4630	3.4629	-1.0634	26.16	0.22	-0.750			
0.7174	45914.13	3.4600	3.4602	-1.0226	26.17	0.23	-0.750			
0.7204	46106.61	3.4570	3.4569	-0.9936	26.18	0.24	-0.750			
0.7233	46292.97	3.4540	3.4539	-0.9577	26.20	0.26	-0.750			
0.7261	46472.21	3.4510	3.4509	-0.9276	26.21	0.27	-0.750			
0.7288	46644.39	3.4480	3.4480	-0.8977	26.22	0.28	-0.750			
0.7315	46816.61	3.4450	3.4450	-0.8833	26.23	0.29	-0.750			
0.7341	46982.31	3.4420	3.4420	-0.8687	26.24	0.30	-0.750			
0.7366	47143.50	3.4390	3.4390	-0.8626	26.25	0.31	-0.750			
0.7392	47306.32	3.4360	3.4360	-0.8609	26.26	0.32	-0.750			
0.7418	47473.57	3.4330	3.4330	-0.8689	26.27	0.33	-0.750			
0.7444	47640.86	3.4300	3.4300	-0.8741	26.28	0.34	-0.750			
0.7470	47809.77	3.4270	3.4271	-0.8901	26.29	0.35	-0.750			
0.7497	47980.98	3.4240	3.4240	-0.9021	26.30	0.36	-0.750			
0.7524	48155.74	3.4210	3.4209	-0.9138	26.31	0.37	-0.750			
0.7552	48331.66	3.4180	3.4181	-0.9258	26.32	0.38	-0.750			
0.7580	48511.54	3.4150	3.4150	-0.9407	26.33	0.39	-0.750			
0.7609	48696.15	3.4120	3.4120	-0.9437	26.33	0.39	-0.750			
0.7638	48880.31	3.4090	3.4089	-0.9412	26.34	0.40	-0.750			
0.7666	49060.41	3.4060	3.4060	-0.9245	26.35	0.41	-0.750			
0.7694	49239.11	3.4030	3.4031	-0.9159	26.35	0.41	-0.750			
0.7721	49414.02	3.4000	3.4000	-0.9022	26.36	0.42	-0.750			
0.7748	49584.83	3.3970	3.3969	-0.8826	26.37	0.43	-0.750			
0.7774	49754.18	3.3940	3.3939	-0.8582	26.38	0.44	-0.750			
0.7800	49918.88	3.3910	3.3911	-0.8338	26.39	0.45	-0.750			
0.7825	50078.55	3.3880	3.3879	-0.8081	26.40	0.46	-0.750			
0.7849	50230.89	3.3850	3.3850	-0.7746	26.41	0.47	-0.750			
0.7871	50373.48	3.3820	3.3819	-0.7424	26.42	0.48	-0.750			
0.7893	50512.98	3.3790	3.3790	-0.7145	26.42	0.48	-0.750			
0.7914	50648.14	3.3760	3.3760	-0.6886	26.43	0.49	-0.750			
0.7934	50778.25	3.3730	3.3732	-0.6648	26.44	0.50	-0.750			
0.7954	50903.70	3.3700	3.3700	-0.6426	26.45	0.51	-0.750			
0.7972	51023.91	3.3670	3.3669	-0.6195	26.45	0.51	-0.750			
0.7991	51139.92	3.3640	3.3640	-0.5962	26.46	0.52	-0.750			
0.8008	51252.70	3.3610	3.3610	-0.5779	26.46	0.52	-0.750			
0.8025	51361.72	3.3580	3.3580	-0.5568	26.47	0.53	-0.750			
0.8042	51467.31	3.3550	3.3550	-0.5358	26.48	0.54	-0.750			
0.8057	51567.37	3.3520	3.3521	-0.5163	26.48	0.54	-0.750			
0.8072	51663.71	3.3490	3.3490	-0.4971	26.49	0.55	-0.750			
0.8087	51757.32	3.3460	3.3460	-0.4825	26.49	0.55	-0.750			
0.8101	51848.09	3.3430	3.3429	-0.4658	26.50	0.56	-0.750			
0.8115	51935.83	3.3400	3.3400	-0.4520	26.50	0.56	-0.750			
0.8128	52021.55	3.3370	3.3370	-0.4381	26.51	0.57	-0.750			
0.8141	52104.56	3.3340	3.3341	-0.4255	26.51	0.57	-0.750			
0.8154	52184.60	3.3310	3.3310	-0.4102	26.52	0.58	-0.750			
0.8166	52261.37	3.3280	3.3280	-0.3967	26.52	0.58	-0.750			
0.8178	52336.11	3.3250	3.3250	-0.3851	26.53	0.59	-0.750			
0.8189	52408.88	3.3220	3.3221	-0.3741	26.53	0.59	-0.750			
0.8200	52478.86	3.3190	3.3190	-0.3628	26.54	0.60	-0.750			
0.8211	52547.63	3.3160	3.3160	-0.3540	26.55	0.61	-0.750			
0.8221	52614.75	3.3130	3.3130	-0.3447	26.55	0.61	-0.750			
0.8231	52680.37	3.3100	3.3100	-0.3360	26.56	0.62	-0.750			
0.8241	52743.76	3.3070	3.3070	-0.3271	26.56	0.62	-0.750			
0.8251	52805.49	3.3040	3.3041	-0.3192	26.57	0.63	-0.750			
0.8260	52866.26	3.3010	3.3009	-0.3111	26.57	0.63	-0.750			
0.8269	52924.68	3.2980	3.2980	-0.3019	26.58	0.64	-0.750			
0.8278	52981.78	3.2950	3.2950	-0.2954	26.58	0.64	-0.750			
0.8287	53037.97	3.2920	3.2920	-0.2882	26.59	0.65	-0.750			
0.8296	53092.87	3.2890	3.2889	-0.2811	26.59	0.65	-0.750			
0.8304	53145.81	3.2860	3.2859	-0.2743	26.60	0.66	-0.750			
0.8312	53197.53	3.2830	3.2830	-0.2683	26.60	0.66	-0.750			
0.8320	53248.50	3.2800	3.2800	-0.2638	26.61	0.67	-0.750			
0.8328	53298.25	3.2770	3.2770	-0.2583	26.61	0.67	-0.750			
0.8336	53347.21	3.2740	3.2740	-0.2524	26.62	0.68	-0.750			
0.8343	53395.52	3.2710	3.2710	-0.2493	26.62	0.68	-0.750			
0.8350	53442.71	3.2680	3.2681	-0.2452	26.63	0.69	-0.750			
0.8358	53489.47	3.2650	3.2650	-0.2413	26.63	0.69	-0.750			
0.8365	53535.13	3.2620	3.2619	-0.2371	26.64	0.70	-0.750			
0.8372	53580.54	3.2590	3.2590	-0.2325	26.64	0.70	-0.750			
0.8379	53624.70	3.2560	3.2561	-0.2287	26.65	0.71	-0.750			
0.8386	53668.24	3.2530	3.2530	-0.2248	26.65	0.71	-0.750			
0.8392	53711.18	3.2500	3.2500	-0.2226	26.66	0.72	-0.750			
0.8399	53753.03	3.2470	3.2469	-0.2184	26.66	0.72	-0.750			
0.8405	53794.56	3.2440	3.2439	-0.2152	26.66	0.72	-0.750			
0.8412	53835.67	3.2410	3.2410	-0.2130	26.67	0.73	-0.750			
0.8418	53876.56	3.2380	3.2381	-0.2097	26.67	0.73	-0.750			
0.8425	53916.88	3.2350	3.2350	-0.2076	26.68	0.74	-0.750			
0.8431	53956.17	3.2320	3.2321	-0.2040	26.68	0.74	-0.750			
0.8437	53995.03	3.2290	3.2289	-0.2008	26.69	0.75	-0.750			
0.8443	54032.97	3.2260	3.2260	-0.1978	26.69	0.75	-0.750			
0.8449	54070.70	3.2230	3.2230	-0.1956	26.70	0.76	-0.750			
0.8454	54107.97	3.2200	3.2200	-0.1933	26.71	0.77	-0.750			
0.8460	54144.88	3.2170	3.2170	-0.1911	26.71	0.77	-0.750			
0.8466	54181.51	3.2140	3.2140	-0.1886	26.72	0.78	-0.750			
0.8471	54217.42	3.2110	3.2110	-0.1859	26.73	0.79	-0.750			
0.8477	54252.95	3.2080	3.2080	-0.1836	26.73	0.79	-0.750			
0.8482	54287.94	3.2050	3.2049	-0.1809	26.74	0.80	-0.750			
0.8488	54322.35	3.2020	3.2021	-0.1791	26.74	0.80	-0.750			
0.8493	54356.36	3.1990	3.1990	-0.1768	26.75	0.81	-0.750			
0.8498	54390.05	3.1960	3.1960	-0.1748	26.76	0.82	-0.750			
0.8504	54423.46	3.1930	3.1930	-0.1732	26.76	0.82	-0.750			
0.8509	54456.50	3.1900	3.1901	-0.1722	26.77	0.83	-0.750			
0.8514	54489.48	3.1870	3.1870	-0.1706	26.77	0.83	-0.750			
0.8519	54522.13	3.1840	3.1840	-0.1692	26.78	0.84	-0.750			
0.8524	54554.55	3.1810	3.1810	-0.1670	26.78	0.84	-0.750			
0.8529	54586.35	3.1780	3.1781	-0.1655	26.78	0.84	-0.750			
0.8534	54618.16	3.1750	3.1751	-0.1637	26.79	0.85	-0.750			
0.8539	54649.45	3.1720	3.1719	-0.1616	26.79	0.85	-0.750			
0.8544	54680.22	3.1690	3.1689	-0.1598	26.79	0.85	-0.750			
0.8549	54710.50	3.1660	3.1660	-0.1576	26.80	0.86	-0.750			
0.8553	54740.50	3.1630	3.1629	-0.1566	26.80	0.86	-0.750			
0.8558	54770.55	3.1600	3.1600	-0.1549	26.80	0.86	-0.750			
0.8563	54800.20	3.1570	3.1570	-0.1533	26.81	0.87	-0.750			
0.8567	54829.12	3.1540	3.1540	-0.1524	26.81	0.87	-0.750			
0.8572	54858.46	3.1510	3.1511	-0.1516	26.82	0.88	-0.750			
0.8576	54887.41	3.1480	3.1479	-0.1505	26.83	0.89	-0.750			
0.8581	54916.31	3.1450	3.1450	-0.1490	26.83	0.89	-0.750			
0.8585	54944.87	3.1420	3.1421	-0.1479	26.84	0.90	-0.750			
0.8590	54973.18	3.1390	3.1390	-0.1460	26.84	0.90	-0.750			
0.8594	55001.41	3.1360	3.1359	-0.1449	26.85	0.91	-0.750			
0.8598	55028.79	3.1330	3.1330	-0.1437	26.86	0.92	-0.750			
0.8602	55055.98	3.1300	3.1301	-0.1416	26.86	0.92	-0.750			
0.8607	55082.99	3.1270	3.1270	-0.1408	26.87	0.93	-0.750			
0.8611	55109.94	3.1240	3.1240	-0.1399	26.87	0.93	-0.750			
0.8615	55136.69	3.1210	3.1211	-0.1390	26.88	0.94	-0.750			
0.8619	55163.33	3.1180	3.1179	-0.1375	26.88	0.94	-0.750			
0.8623	55189.85	3.1150	3.1151	-0.1366	26.89	0.95	-0.750			
0.8627	55215.80	3.1120	3.1120	-0.1361	26.90	0.96	-0.750			
0.8632	55241.67	3.1090	3.1091	-0.1347	26.90	0.96	-0.750			
0.8636	55267.63	3.1060	3.1060	-0.1341	26.91	0.97	-0.750			
0.8640	55293.12	3.1030	3.1029	-0.1327	26.91	0.97	-0.750			
0.8644	55318.53	3.1000	3.1001	-0.1319	26.91	0.97	-0.750			
0.8647	55343.80	3.0970	3.0969	-0.1311	26.92	0.98	-0.750			
0.8651	55369.09	3.0940	3.0941	-0.1303	26.92	0.98	-0.750			
0.8655	55393.91	3.0910	3.0909	-0.1291	26.93	0.99	-0.750			
0.8659	55418.37	3.0880	3.0880	-0.1276	26.93	0.99	-0.750			
0.8663	55442.83	3.0850	3.0850	-0.1271	26.94	1.00	-0.750			
0.8667	55467.14	3.0820	3.0820	-0.1261	26.94	1.00	-0.750			
0.8671	55491.23	3.0790	3.0789	-0.1251	26.95	1.01	-0.750			
0.8674	55515.09	3.0760	3.0760	-0.1241	26.95	1.01	-0.750			
0.8678	55538.86	3.0730	3.0730	-0.1232	26.96	1.02	-0.750			
0.8682	55562.51	3.0700	3.0700	-0.1225	26.96	1.02	-0.750			
0.8685	55585.90	3.0670	3.0671	-0.1217	26.97	1.03	-0.750			
0.8689	55609.19	3.0640	3.0639	-0.1208	26.97	1.03	-0.750			
0.8693	55632.26	3.0610	3.0610	-0.1200	26.98	1.04	-0.750			
0.8696	55655.10	3.0580	3.0580	-0.1191	26.98	1.04	-0.750			
0.8700	55677.88	3.0550	3.0550	-0.1186	26.99	1.05	-0.750			
0.8703	55700.62	3.0520	3.0521	-0.1181	27.00	1.06	-0.750			
0.8707	55723.26	3.0490	3.0490	-0.1173	27.00	1.06	-0.750			
0.8710	55745.73	3.0460	3.0460	-0.1167	27.01	1.07	-0.750			
0.8714	55768.10	3.0430	3.0429	-0.1159	27.01	1.07	-0.750			
0.8717	55790.33	3.0400	3.0402	-0.1153	27.02	1.08	-0.750			
0.8721	55812.38	3.0370	3.0369	-0.1145	27.03	1.09	-0.750			
0.8724	55834.34	3.0340	3.0341	-0.1138	27.03	1.09	-0.750			
0.8728	55856.09	3.0310	3.0310	-0.1131	27.04	1.10	-0.750			
0.8731	55877.65	3.0280	3.0280	-0.1124	27.04	1.10	-0.750			
0.8734	55899.17	3.0250	3.0250	-0.1117	27.05	1.11	-0.750			
0.8738	55920.57	3.0220	3.0220	-0.1112	27.05	1.11	-0.750			
0.8741	55941.89	3.0190	3.0191	-0.1104	27.06	1.12	-0.750			
0.8744	55963.05	3.0160	3.0159	-0.1097	27.06	1.12	-0.750			
0.8748	55984.09	3.0130	3.0129	-0.1086	27.07	1.13	-0.750			
0.8751	56004.98	3.0100	3.0100	-0.1077	27.08	1.14	-0.750			
0.8754	56025.55	3.0070	3.0070	-0.1066	27.08	1.14	-0.751			
0.8757	56045.97	3.0040	3.0040	-0.1050	27.09	1.15	-0.751			
0.8760	56066.00	3.0010	3.0010	-0.1036	27.09	1.15	-0.751			
