Ah_balance (normalized)	Ah_balance (mAh)	Voltage - fit (V)	Voltage -  interpolate (V)	dQ/dV (1/V)	Temperature (°C)	Temperature - diff (°C)	Current (C)	R_DC 0ms (mOhm)	R_DC 50ms (mOhm)	R_DC 50 ms PEC (mOhm)
0.0589	3772.50	4.1980	4.1980	0.7544	26.00	0.05	0.750			
0.0611	3912.18	4.1950	4.1951	0.7300	26.01	0.06	0.750			
0.0633	4052.42	4.1920	4.1920	0.7341	26.01	0.06	0.750			
0.0655	4193.90	4.1890	4.1890	0.7390	26.01	0.06	0.750			
0.0677	4335.41	4.1860	4.1861	0.7415	26.01	0.06	0.750			
0.0700	4479.22	4.1830	4.1830	0.7488	26.01	0.06	0.750			
0.0723	4624.33	4.1800	4.1800	0.7470	26.01	0.06	0.750			
0.0745	4768.10	4.1770	4.1769	0.7486	26.02	0.07	0.750			
0.0767	4910.87	4.1740	4.1741	0.7454	26.02	0.07	0.750			
0.0790	5053.98	4.1710	4.1709	0.7471	26.02	0.07	0.750			
0.0812	5197.14	4.1680	4.1679	0.7474	26.02	0.07	0.750			
0.0835	5341.27	4.1650	4.1650	0.7454	26.02	0.07	0.750			
0.0857	5483.61	4.1620	4.1620	0.7480	26.01	0.06	0.750			
0.0879	5627.09	4.1590	4.1591	0.7491	26.01	0.06	0.750			
0.0902	5771.51	4.1560	4.1560	0.7489	26.01	0.06	0.750			
0.0924	5915.06	4.1530	4.1530	0.7531	26.01	0.06	0.750			
0.0947	6059.57	4.1500	4.1500	0.7541	26.01	0.06	0.750			
0.0970	6205.45	4.1470	4.1470	0.7542	26.01	0.06	0.750			
0.0992	6351.37	4.1440	4.1439	0.7555	26.01	0.06	0.750			
0.1015	6494.66	4.1410	4.1412	0.7554	26.01	0.06	0.750			
0.1038	6640.48	4.1380	4.1377	0.7577	26.01	0.06	0.750			
0.1060	6785.75	4.1350	4.1350	0.7626	26.01	0.06	0.750			
0.1083	6932.60	4.1320	4.1320	0.7620	26.02	0.07	0.750			
0.1106	7079.63	4.1290	4.1290	0.7659	26.02	0.07	0.750			
0.1129	7227.49	4.1260	4.1260	0.7675	26.02	0.07	0.750			
0.1152	7374.16	4.1230	4.1231	0.7660	26.03	0.08	0.750			
0.1175	7520.62	4.1200	4.1200	0.7643	26.03	0.08	0.750			
0.1198	7667.34	4.1170	4.1170	0.7674	26.03	0.08	0.750			
0.1221	7814.24	4.1140	4.1140	0.7662	26.03	0.08	0.750			
0.1244	7961.29	4.1110	4.1110	0.7718	26.03	0.08	0.750			
0.1267	8110.06	4.1080	4.1080	0.7729	26.03	0.08	0.750			
0.1290	8259.11	4.1050	4.1048	0.7743	26.03	0.08	0.750			
0.1314	8408.33	4.1020	4.1020	0.7772	26.03	0.08	0.750			
0.1337	8558.33	4.0990	4.0990	0.7756	26.03	0.08	0.750			
0.1360	8706.20	4.0960	4.0960	0.7780	26.03	0.08	0.750			
0.1384	8855.70	4.0930	4.0931	0.7831	26.03	0.08	0.750			
0.1407	9005.09	4.0900	4.0900	0.7830	26.03	0.08	0.750			
0.1431	9156.89	4.0870	4.0870	0.7863	26.03	0.08	0.750			
0.1454	9308.24	4.0840	4.0841	0.7900	26.03	0.08	0.750			
0.1478	9459.89	4.0810	4.0811	0.7917	26.03	0.08	0.750			
0.1502	9613.34	4.0780	4.0779	0.7953	26.03	0.08	0.750			
0.1526	9764.64	4.0750	4.0750	0.7935	26.03	0.08	0.750			
0.1550	9917.87	4.0720	4.0720	0.7961	26.03	0.08	0.750			
0.1574	10072.95	4.0690	4.0690	0.7949	26.03	0.08	0.750			
0.1598	10224.60	4.0660	4.0660	0.7944	26.03	0.08	0.750			
0.1621	10375.08	4.0630	4.0631	0.7986	26.03	0.08	0.750			
0.1645	10529.21	4.0600	4.0600	0.8013	26.03	0.08	0.750			
0.1669	10683.08	4.0570	4.0568	0.8026	26.03	0.08	0.750			
0.1693	10837.72	4.0540	4.0541	0.8056	26.03	0.08	0.750			
0.1718	10994.21	4.0510	4.0510	0.8051	26.04	0.09	0.750			
0.1742	11147.45	4.0480	4.0480	0.8109	26.04	0.09	0.750			
0.1766	11300.26	4.0450	4.0451	0.8118	26.05	0.10	0.750			
0.1790	11456.35	4.0420	4.0415	0.8215	26.05	0.10	0.750			
0.1815	11616.63	4.0390	4.0391	0.8317	26.05	0.10	0.750			
0.1840	11778.74	4.0360	4.0360	0.8265	26.05	0.10	0.750			
0.1866	11939.41	4.0330	4.0331	0.8321	26.05	0.10	0.750			
0.1890	12096.88	4.0300	4.0301	0.8246	26.05	0.10	0.750			
0.1915	12255.48	4.0270	4.0267	0.8272	26.05	0.10	0.750			
0.1940	12413.27	4.0240	4.0241	0.8258	26.05	0.10	0.750			
0.1964	12572.03	4.0210	4.0210	0.8255	26.05	0.10	0.750			
0.1989	12731.37	4.0180	4.0180	0.8337	26.05	0.10	0.750			
0.2014	12891.39	4.0150	4.0150	0.8322	26.05	0.10	0.750			
0.2039	13049.97	4.0120	4.0118	0.8420	26.05	0.10	0.750			
0.2065	13213.02	4.0090	4.0089	0.8440	26.05	0.10	0.750			
0.2090	13376.74	4.0060	4.0060	0.8405	26.06	0.11	0.750			
0.2116	13540.39	4.0030	4.0031	0.8409	26.06	0.11	0.750			
0.2141	13699.25	4.0000	4.0002	0.8392	26.07	0.12	0.750			
0.2166	13860.03	3.9970	3.9968	0.8411	26.07	0.12	0.750			
0.2191	14020.21	3.9940	3.9940	0.8409	26.07	0.12	0.750			
0.2216	14180.55	3.9910	3.9910	0.8466	26.06	0.11	0.750			
0.2242	14346.81	3.9880	3.9880	0.8582	26.06	0.11	0.750			
0.2268	14512.73	3.9850	3.9849	0.8561	26.05	0.10	0.750			
0.2293	14677.87	3.9820	3.9820	0.8582	26.05	0.10	0.750			
0.2319	14843.14	3.9790	3.9790	0.8512	26.05	0.10	0.750			
0.2345	15006.01	3.9760	3.9760	0.8554	26.05	0.10	0.750			
0.2370	15169.23	3.9730	3.9730	0.8580	26.06	0.11	0.750			
0.2396	15333.02	3.9700	3.9700	0.8529	26.06	0.11	0.750			
0.2421	15496.95	3.9670	3.9671	0.8599	26.06	0.11	0.750			
0.2448	15664.51	3.9640	3.9641	0.8564	26.06	0.11	0.750			
0.2473	15829.59	3.9610	3.9609	0.8564	26.06	0.11	0.750			
0.2499	15993.10	3.9580	3.9580	0.8566	26.05	0.10	0.750			
0.2524	16155.62	3.9550	3.9551	0.8510	26.05	0.10	0.750			
0.2550	16318.77	3.9520	3.9520	0.8548	26.05	0.10	0.750			
0.2576	16484.58	3.9490	3.9490	0.8559	26.05	0.10	0.750			
0.2601	16646.51	3.9460	3.9461	0.8604	26.05	0.10	0.750			
0.2627	16814.42	3.9430	3.9430	0.8668	26.04	0.09	0.750			
0.2653	16981.24	3.9400	3.9400	0.8690	26.04	0.09	0.750			
0.2679	17148.77	3.9370	3.9371	0.8731	26.04	0.09	0.750			
0.2706	17316.25	3.9340	3.9341	0.8789	26.04	0.09	0.750			
0.2732	17485.34	3.9310	3.9310	0.8817	26.03	0.08	0.750			
0.2759	17655.83	3.9280	3.9280	0.8871	26.03	0.08	0.750			
0.2785	17824.46	3.9250	3.9250	0.8880	26.03	0.08	0.750			
0.2812	17999.34	3.9220	3.9220	0.8885	26.03	0.08	0.750			
0.2839	18168.96	3.9190	3.9190	0.8865	26.03	0.08	0.750			
0.2865	18337.50	3.9160	3.9161	0.8916	26.02	0.07	0.750			
0.2892	18508.05	3.9130	3.9131	0.8956	26.02	0.07	0.750			
0.2919	18679.87	3.9100	3.9098	0.9010	26.02	0.07	0.750			
0.2946	18853.83	3.9070	3.9071	0.9051	26.02	0.07	0.750			
0.2973	19030.30	3.9040	3.9040	0.9055	26.01	0.06	0.750			
0.3001	19206.11	3.9010	3.9010	0.9062	26.01	0.06	0.750			
0.3028	19377.44	3.8980	3.8980	0.9054	26.00	0.05	0.750			
0.3055	19550.00	3.8950	3.8951	0.9078	26.00	0.05	0.750			
0.3082	19725.06	3.8920	3.8919	0.9021	25.99	0.04	0.750			
0.3109	19897.48	3.8890	3.8890	0.9062	25.99	0.04	0.750			
0.3136	20072.36	3.8860	3.8861	0.9123	25.98	0.03	0.750			
0.3164	20248.79	3.8830	3.8827	0.9121	25.98	0.03	0.750			
0.3191	20425.52	3.8800	3.8800	0.9054	25.97	0.02	0.750			
0.3218	20596.62	3.8770	3.8771	0.9073	25.97	0.02	0.750			
0.3245	20771.10	3.8740	3.8740	0.9116	25.96	0.01	0.750			
0.3273	20947.44	3.8710	3.8710	0.9152	25.95	0.00	0.750			
0.3300	21119.42	3.8680	3.8679	0.9113	25.95	-0.00	0.750			
0.3328	21296.18	3.8650	3.8651	0.9081	25.94	-0.01	0.750			
0.3355	21471.98	3.8620	3.8620	0.9145	25.94	-0.01	0.750			
0.3382	21646.79	3.8590	3.8591	0.9185	25.94	-0.01	0.750			
0.3410	21821.34	3.8560	3.8559	0.9188	25.93	-0.02	0.750			
0.3437	21999.28	3.8530	3.8530	0.9215	25.93	-0.02	0.750			
0.3465	22176.38	3.8500	3.8500	0.9304	25.92	-0.03	0.750			
0.3493	22355.82	3.8470	3.8471	0.9375	25.92	-0.03	0.750			
0.3522	22538.27	3.8440	3.8439	0.9427	25.91	-0.04	0.750			
0.3550	22716.98	3.8410	3.8410	0.9398	25.91	-0.04	0.750			
0.3578	22897.83	3.8380	3.8381	0.9423	25.90	-0.05	0.750			
0.3606	23077.97	3.8350	3.8350	0.9498	25.90	-0.05	0.750			
0.3634	23260.15	3.8320	3.8320	0.9611	25.89	-0.06	0.750			
0.3663	23444.18	3.8290	3.8288	0.9675	25.89	-0.06	0.750			
0.3692	23631.46	3.8260	3.8260	0.9757	25.88	-0.07	0.750			
0.3722	23820.65	3.8230	3.8231	0.9876	25.87	-0.08	0.750			
0.3752	24013.36	3.8200	3.8201	0.9962	25.86	-0.09	0.750			
0.3782	24204.10	3.8170	3.8169	0.9978	25.85	-0.10	0.750			
0.3812	24397.76	3.8140	3.8141	0.9946	25.84	-0.11	0.750			
0.3842	24586.77	3.8110	3.8110	1.0107	25.84	-0.11	0.750			
0.3872	24780.50	3.8080	3.8080	1.0259	25.83	-0.12	0.750			
0.3903	24977.85	3.8050	3.8050	1.0396	25.82	-0.13	0.750			
0.3934	25179.81	3.8020	3.8021	1.0518	25.82	-0.13	0.750			
0.3966	25385.01	3.7990	3.7991	1.0712	25.81	-0.14	0.750			
0.3999	25592.36	3.7960	3.7960	1.0888	25.80	-0.15	0.750			
0.4032	25805.26	3.7930	3.7929	1.1053	25.79	-0.16	0.750			
0.4065	26014.63	3.7900	3.7900	1.0996	25.79	-0.16	0.750			
0.4098	26226.47	3.7870	3.7871	1.1127	25.78	-0.17	0.750			
0.4131	26437.77	3.7840	3.7841	1.1386	25.78	-0.17	0.750			
0.4165	26658.48	3.7810	3.7804	1.1664	25.77	-0.18	0.750			
0.4200	26880.70	3.7780	3.7781	1.1962	25.76	-0.19	0.750			
0.4236	27113.34	3.7750	3.7752	1.2374	25.75	-0.20	0.750	0.329	0.480	
0.4275	27362.99	3.7720	3.7720	1.2616	25.74	-0.21	0.750			
0.4314	27610.40	3.7690	3.7690	1.2938	25.73	-0.22	0.750			
0.4352	27855.73	3.7660	3.7661	1.3128	25.73	-0.22	0.750			
0.4392	28108.85	3.7630	3.7630	1.3308	25.72	-0.23	0.750			
0.4432	28364.73	3.7600	3.7599	1.3578	25.71	-0.24	0.750			
0.4473	28626.23	3.7570	3.7571	1.3829	25.70	-0.25	0.750			
0.4515	28898.26	3.7540	3.7540	1.4054	25.69	-0.26	0.750			
0.4558	29173.98	3.7510	3.7510	1.4373	25.68	-0.27	0.750			
0.4601	29448.66	3.7480	3.7480	1.4593	25.67	-0.28	0.750			
0.4646	29732.93	3.7450	3.7450	1.4895	25.66	-0.29	0.750			
0.4690	30017.52	3.7420	3.7422	1.5353	25.66	-0.29	0.750			
0.4737	30313.66	3.7390	3.7389	1.5797	25.65	-0.30	0.750			
0.4785	30625.69	3.7360	3.7358	1.6102	25.64	-0.31	0.750			
0.4834	30936.31	3.7330	3.7330	1.6601	25.63	-0.32	0.750			
0.4884	31260.51	3.7300	3.7301	1.7203	25.62	-0.33	0.750			
0.4937	31593.60	3.7270	3.7269	1.7678	25.60	-0.35	0.750			
0.4990	31937.57	3.7240	3.7239	1.8169	25.59	-0.36	0.750			
0.5046	32293.97	3.7210	3.7209	1.8667	25.58	-0.37	0.750			
0.5104	32664.27	3.7180	3.7175	1.9247	25.57	-0.38	0.750			
0.5162	33036.15	3.7150	3.7150	1.9714	25.56	-0.39	0.750			
0.5222	33417.64	3.7120	3.7123	2.0138	25.55	-0.40	0.750			
0.5283	33808.59	3.7090	3.7089	2.0732	25.54	-0.41	0.750			
0.5344	34204.36	3.7060	3.7060	2.1439	25.53	-0.42	0.750			
0.5410	34624.67	3.7030	3.7030	2.2260	25.52	-0.43	0.750			
0.5480	35072.18	3.7000	3.7000	2.3103	25.51	-0.44	0.750			
0.5550	35518.04	3.6970	3.6970	2.3645	25.50	-0.45	0.750			
0.5622	35977.97	3.6940	3.6941	2.4533	25.49	-0.46	0.750			
0.5696	36451.81	3.6910	3.6908	2.5304	25.48	-0.47	0.750			
0.5772	36942.90	3.6880	3.6879	2.6303	25.48	-0.47	0.750			
0.5853	37457.17	3.6850	3.6851	2.7276	25.47	-0.48	0.750			
0.5937	37998.54	3.6820	3.6819	2.8093	25.46	-0.49	0.750			
0.6025	38558.44	3.6790	3.6789	2.7577	25.48	-0.47	0.750			
0.6111	39108.81	3.6760	3.6759	2.5873	25.48	-0.47	0.750			
0.6184	39580.67	3.6730	3.6731	2.3457	25.48	-0.47	0.750			
0.6250	39999.72	3.6700	3.6702	2.0684	25.49	-0.46	0.750			
0.6304	40346.79	3.6670	3.6666	1.8714	25.50	-0.45	0.750			
0.6354	40667.21	3.6640	3.6638	1.7022	25.50	-0.45	0.750			
0.6403	40979.99	3.6610	3.6610	1.5865	25.50	-0.45	0.750			
0.6449	41271.59	3.6580	3.6581	1.4974	25.51	-0.44	0.750			
0.6493	41555.77	3.6550	3.6552	1.4176	25.51	-0.44	0.750			
0.6535	41824.94	3.6520	3.6517	1.3446	25.52	-0.43	0.750			
0.6574	42071.47	3.6490	3.6490	1.2788	25.53	-0.42	0.750			
0.6609	42296.41	3.6460	3.6461	1.2158	25.54	-0.41	0.750			
0.6644	42524.29	3.6430	3.6432	1.1921	25.55	-0.40	0.750			
0.6680	42750.49	3.6400	3.6399	1.1635	25.55	-0.40	0.750			
0.6714	42969.45	3.6370	3.6371	1.1580	25.55	-0.40	0.750			
0.6748	43189.19	3.6340	3.6341	1.1580	25.56	-0.39	0.750			
0.6783	43413.12	3.6310	3.6309	1.1607	25.56	-0.39	0.750			
0.6818	43635.15	3.6280	3.6280	1.1585	25.56	-0.39	0.750			
0.6853	43859.94	3.6250	3.6251	1.1631	25.57	-0.38	0.750			
0.6888	44086.12	3.6220	3.6220	1.1641	25.58	-0.37	0.750			
0.6924	44314.32	3.6190	3.6191	1.1426	25.58	-0.37	0.750			
0.6958	44529.35	3.6160	3.6161	1.1310	25.58	-0.37	0.750			
0.6991	44742.59	3.6130	3.6131	1.1199	25.59	-0.36	0.750			
0.7024	44954.01	3.6100	3.6101	1.1228	25.59	-0.36	0.750			
0.7058	45169.60	3.6070	3.6070	1.1066	25.59	-0.36	0.750			
0.7090	45376.75	3.6040	3.6041	1.1292	25.59	-0.36	0.750			
0.7124	45594.10	3.6010	3.6011	1.1538	25.60	-0.35	0.750			
0.7160	45821.88	3.5980	3.5976	1.1784	25.60	-0.35	0.750			
0.7194	46044.74	3.5950	3.5952	1.2092	25.60	-0.35	0.750			
0.7231	46278.04	3.5920	3.5922	1.2479	25.61	-0.34	0.750			
0.7269	46524.71	3.5890	3.5890	1.2813	25.62	-0.33	0.750			
0.7309	46780.51	3.5860	3.5860	1.3337	25.62	-0.33	0.750			
0.7348	47026.92	3.5830	3.5832	1.3701	25.62	-0.33	0.750			
0.7391	47300.79	3.5800	3.5801	1.4091	25.62	-0.33	0.750			
0.7434	47580.62	3.5770	3.5770	1.4580	25.62	-0.33	0.750			
0.7478	47859.17	3.5740	3.5741	1.4966	25.63	-0.32	0.750			
0.7524	48152.86	3.5710	3.5711	1.5281	25.64	-0.31	0.750			
0.7570	48450.65	3.5680	3.5682	1.5578	25.64	-0.31	0.750			
0.7618	48752.43	3.5650	3.5649	1.5921	25.64	-0.31	0.750			
0.7666	49060.53	3.5620	3.5618	1.6080	25.64	-0.31	0.750			
0.7715	49373.04	3.5590	3.5591	1.6391	25.65	-0.30	0.750			
0.7765	49694.13	3.5560	3.5563	1.6614	25.66	-0.29	0.750			
0.7815	50013.55	3.5530	3.5530	1.6816	25.67	-0.28	0.750			
0.7865	50336.72	3.5500	3.5499	1.6913	25.68	-0.27	0.750			
0.7916	50661.44	3.5470	3.5467	1.7417	25.68	-0.27	0.750			
0.7971	51013.85	3.5440	3.5437	1.7448	25.69	-0.26	0.750			
0.8026	51363.51	3.5410	3.5409	1.6865	25.71	-0.24	0.750			
0.8079	51706.51	3.5380	3.5380	1.5760	25.73	-0.22	0.750			
0.8129	52023.37	3.5350	3.5354	1.3644	25.75	-0.20	0.750			
0.8167	52268.83	3.5320	3.5321	1.0916	25.77	-0.18	0.750			
0.8194	52438.48	3.5290	3.5288	0.8380	25.79	-0.16	0.750			
0.8210	52544.72	3.5260	3.5257	0.5885	25.80	-0.15	0.750			
0.8223	52624.39	3.5230	3.5227	0.4736	25.81	-0.14	0.750			
0.8234	52696.34	3.5200	3.5199	0.3958	25.81	-0.14	0.750			
0.8244	52759.17	3.5170	3.5169	0.3535	25.82	-0.13	0.750			
0.8254	52823.65	3.5140	3.5138	0.3304	25.83	-0.12	0.750			
0.8263	52883.13	3.5110	3.5111	0.3138	25.83	-0.12	0.750			
0.8272	52941.29	3.5080	3.5080	0.3026	25.84	-0.11	0.750			
0.8281	52998.38	3.5050	3.5050	0.2937	25.84	-0.11	0.750			
0.8290	53053.47	3.5020	3.5017	0.2858	25.85	-0.10	0.750			
0.8298	53107.00	3.4990	3.4991	0.2780	25.85	-0.10	0.750			
0.8306	53160.01	3.4960	3.4960	0.2720	25.86	-0.09	0.750			
0.8314	53212.28	3.4930	3.4930	0.2670	25.86	-0.09	0.750			
0.8322	53261.66	3.4900	3.4900	0.2574	25.87	-0.08	0.750			
0.8330	53311.15	3.4870	3.4869	0.2530	25.88	-0.07	0.750			
0.8337	53359.30	3.4840	3.4840	0.2475	25.88	-0.07	0.750			
0.8345	53405.90	3.4810	3.4810	0.2422	25.89	-0.06	0.750			
0.8352	53451.80	3.4780	3.4780	0.2380	25.90	-0.05	0.750			
0.8359	53497.43	3.4750	3.4750	0.2328	25.90	-0.05	0.750			
0.8366	53541.55	3.4720	3.4718	0.2275	25.91	-0.04	0.750			
0.8373	53584.87	3.4690	3.4690	0.2218	25.91	-0.04	0.750			
0.8379	53627.01	3.4660	3.4661	0.2169	25.92	-0.03	0.750			
0.8386	53668.26	3.4630	3.4630	0.2119	25.92	-0.03	0.750			
0.8392	53708.38	3.4600	3.4600	0.2059	25.93	-0.02	0.750			
0.8398	53746.76	3.4570	3.4570	0.2009	25.94	-0.01	0.750			
0.8404	53784.53	3.4540	3.4540	0.1960	25.94	-0.01	0.750			
0.8410	53822.08	3.4510	3.4511	0.1927	25.95	-0.00	0.750			
0.8415	53858.66	3.4480	3.4478	0.1884	25.95	0.00	0.750			
0.8421	53894.51	3.4450	3.4451	0.1835	25.96	0.01	0.750			
0.8427	53929.71	3.4420	3.4420	0.1775	25.96	0.01	0.750			
0.8432	53963.24	3.4390	3.4391	0.1727	25.96	0.01	0.750			
0.8437	53995.81	3.4360	3.4361	0.1666	25.97	0.02	0.750			
0.8442	54027.02	3.4330	3.4329	0.1610	25.97	0.02	0.750			
0.8446	54057.33	3.4300	3.4298	0.1553	25.98	0.03	0.750			
0.8451	54086.51	3.4270	3.4270	0.1496	25.98	0.03	0.750			
0.8455	54114.74	3.4240	3.4241	0.1446	25.99	0.04	0.750			
0.8460	54142.17	3.4210	3.4211	0.1389	25.99	0.04	0.750			
0.8464	54168.65	3.4180	3.4180	0.1338	25.99	0.04	0.750			
0.8468	54193.48	3.4150	3.4150	0.1270	26.00	0.05	0.750			
0.8472	54217.74	3.4120	3.4120	0.1198	26.00	0.05	0.750			
0.8475	54240.41	3.4090	3.4090	0.1134	26.00	0.05	0.750			
0.8478	54261.83	3.4060	3.4060	0.1063	26.01	0.06	0.750			
0.8482	54282.51	3.4030	3.4030	0.0970	26.01	0.06	0.750			
0.8484	54300.13	3.4000	3.4001	0.0866	26.01	0.06	0.750			
0.8487	54316.37	3.3970	3.3970	0.0772	26.01	0.06	0.750			
0.8489	54330.11	3.3940	3.3942	0.0660	26.01	0.06	0.750			
0.8491	54341.87	3.3910	3.3915	0.0547	26.02	0.07	0.750			
0.8492	54351.28	3.3880	3.3889	0.0433	26.02	0.07	0.750			
0.8494	54358.49	3.3850	3.3866	0.0318	26.02	0.07	0.750			
0.8494	54363.49	3.3820	3.3843	0.0203	26.02	0.07	0.750			
