Ah_balance (normalized)	Ah_balance (mAh)	Voltage - fit (V)	Voltage -  interpolate (V)	dQ/dV (1/V)	Temperature (°C)	Temperature - diff (°C)	Current (C)	R_DC 0ms (mOhm)	R_DC 50ms (mOhm)	R_DC 50 ms PEC (mOhm)
0.0534	3419.34	4.1980	4.1980	0.7047	26.57	0.64	0.750			
0.0556	3558.59	4.1950	4.1950	0.7396	26.57	0.64	0.750			
0.0579	3704.25	4.1920	4.1921	0.7542	26.57	0.64	0.750			
0.0601	3849.53	4.1890	4.1891	0.7570	26.57	0.64	0.750			
0.0625	3996.91	4.1860	4.1861	0.7574	26.57	0.64	0.750			
0.0647	4142.22	4.1830	4.1830	0.7575	26.56	0.63	0.750			
0.0669	4284.29	4.1800	4.1800	0.7556	26.56	0.63	0.750			
0.0692	4430.03	4.1770	4.1769	0.7595	26.56	0.63	0.750			
0.0715	4576.23	4.1740	4.1740	0.7648	26.56	0.63	0.750			
0.0738	4726.25	4.1710	4.1710	0.7608	26.56	0.63	0.750			
0.0761	4872.65	4.1680	4.1680	0.7661	26.56	0.63	0.750			
0.0784	5018.92	4.1650	4.1650	0.7658	26.56	0.63	0.750			
0.0807	5165.96	4.1620	4.1620	0.7673	26.56	0.63	0.750			
0.0830	5311.73	4.1590	4.1592	0.7678	26.56	0.63	0.750			
0.0853	5460.77	4.1560	4.1561	0.7717	26.56	0.63	0.750			
0.0877	5610.21	4.1530	4.1530	0.7715	26.56	0.63	0.750			
0.0900	5759.14	4.1500	4.1500	0.7726	26.56	0.63	0.750			
0.0923	5906.00	4.1470	4.1471	0.7710	26.56	0.63	0.750			
0.0946	6053.98	4.1440	4.1436	0.7741	26.56	0.63	0.750			
0.0969	6202.16	4.1410	4.1410	0.7771	26.56	0.63	0.750			
0.0993	6352.37	4.1380	4.1381	0.7774	26.56	0.63	0.750			
0.1016	6503.89	4.1350	4.1349	0.7805	26.56	0.63	0.750			
0.1040	6653.02	4.1320	4.1320	0.7823	26.56	0.63	0.750			
0.1063	6802.30	4.1290	4.1291	0.7791	26.56	0.63	0.750			
0.1086	6951.13	4.1260	4.1260	0.7818	26.56	0.63	0.750			
0.1110	7103.50	4.1230	4.1229	0.7802	26.56	0.63	0.750			
0.1133	7252.08	4.1200	4.1200	0.7867	26.56	0.63	0.750			
0.1157	7403.94	4.1170	4.1170	0.7923	26.56	0.63	0.750			
0.1181	7556.53	4.1140	4.1141	0.7914	26.56	0.63	0.750			
0.1204	7707.93	4.1110	4.1109	0.7925	26.56	0.63	0.750			
0.1228	7861.92	4.1080	4.1081	0.7936	26.56	0.63	0.750			
0.1252	8013.52	4.1050	4.1051	0.7914	26.56	0.63	0.750			
0.1276	8166.03	4.1020	4.1019	0.7908	26.56	0.63	0.750			
0.1299	8315.60	4.0990	4.0991	0.7881	26.56	0.63	0.750			
0.1323	8467.29	4.0960	4.0959	0.7925	26.56	0.63	0.750			
0.1347	8619.85	4.0930	4.0930	0.7973	26.56	0.63	0.750			
0.1371	8774.02	4.0900	4.0900	0.7961	26.56	0.63	0.750			
0.1395	8928.24	4.0870	4.0870	0.7991	26.56	0.63	0.750			
0.1419	9080.15	4.0840	4.0841	0.8047	26.56	0.63	0.750			
0.1443	9235.85	4.0810	4.0809	0.8089	26.56	0.63	0.750			
0.1467	9390.76	4.0780	4.0780	0.8072	26.56	0.63	0.750			
0.1492	9547.49	4.0750	4.0751	0.8066	26.56	0.63	0.750			
0.1516	9702.95	4.0720	4.0721	0.8126	26.56	0.63	0.750			
0.1541	9859.29	4.0690	4.0690	0.8164	26.56	0.63	0.750			
0.1565	10014.41	4.0660	4.0659	0.8138	26.56	0.63	0.750			
0.1589	10168.95	4.0630	4.0631	0.8199	26.56	0.63	0.750			
0.1614	10328.47	4.0600	4.0600	0.8252	26.56	0.63	0.750			
0.1639	10487.99	4.0570	4.0570	0.8267	26.56	0.63	0.750			
0.1664	10647.54	4.0540	4.0540	0.8314	26.56	0.63	0.750			
0.1688	10806.02	4.0510	4.0511	0.8313	26.56	0.63	0.750			
0.1713	10966.06	4.0480	4.0479	0.8375	26.56	0.63	0.750			
0.1739	11129.83	4.0450	4.0450	0.8305	26.56	0.63	0.750			
0.1764	11287.18	4.0420	4.0420	0.8348	26.57	0.64	0.750			
0.1789	11448.39	4.0390	4.0391	0.8392	26.57	0.64	0.750			
0.1814	11608.01	4.0360	4.0360	0.8412	26.57	0.64	0.750			
0.1839	11769.31	4.0330	4.0331	0.8460	26.57	0.64	0.750			
0.1865	11934.91	4.0300	4.0299	0.8373	26.57	0.64	0.750			
0.1890	12094.04	4.0270	4.0271	0.8463	26.58	0.65	0.750			
0.1915	12259.03	4.0240	4.0241	0.8557	26.58	0.65	0.750			
0.1941	12420.33	4.0210	4.0209	0.8529	26.58	0.65	0.750			
0.1966	12585.10	4.0180	4.0181	0.8610	26.58	0.65	0.750			
0.1992	12750.28	4.0150	4.0151	0.8593	26.58	0.65	0.750			
0.2018	12916.42	4.0120	4.0121	0.8669	26.58	0.65	0.750			
0.2044	13084.27	4.0090	4.0090	0.8663	26.58	0.65	0.750			
0.2070	13250.92	4.0060	4.0057	0.8717	26.58	0.65	0.750			
0.2097	13419.71	4.0030	4.0030	0.8718	26.58	0.65	0.750			
0.2123	13587.66	4.0000	4.0000	0.8753	26.58	0.65	0.750			
0.2149	13756.22	3.9970	3.9971	0.8799	26.58	0.65	0.750			
0.2176	13926.31	3.9940	3.9940	0.8836	26.58	0.65	0.750			
0.2202	14094.00	3.9910	3.9910	0.8799	26.58	0.65	0.750			
0.2229	14263.88	3.9880	3.9880	0.8806	26.58	0.65	0.750			
0.2255	14433.11	3.9850	3.9851	0.8832	26.58	0.65	0.750			
0.2282	14603.32	3.9820	3.9820	0.8856	26.58	0.65	0.750			
0.2308	14772.34	3.9790	3.9790	0.8851	26.58	0.65	0.750			
0.2335	14942.61	3.9760	3.9760	0.8856	26.58	0.65	0.750			
0.2361	15112.69	3.9730	3.9730	0.8882	26.58	0.65	0.750			
0.2388	15283.71	3.9700	3.9700	0.8921	26.58	0.65	0.750			
0.2415	15454.68	3.9670	3.9670	0.8964	26.58	0.65	0.750			
0.2442	15626.81	3.9640	3.9639	0.8972	26.58	0.65	0.750			
0.2469	15800.98	3.9610	3.9610	0.8973	26.58	0.65	0.750			
0.2496	15972.58	3.9580	3.9581	0.9022	26.59	0.66	0.750			
0.2523	16146.39	3.9550	3.9550	0.9079	26.59	0.66	0.750			
0.2550	16320.78	3.9520	3.9520	0.9087	26.60	0.67	0.750			
0.2577	16495.15	3.9490	3.9489	0.9071	26.60	0.67	0.750			
0.2605	16669.13	3.9460	3.9461	0.9102	26.59	0.66	0.750			
0.2632	16845.34	3.9430	3.9430	0.9143	26.59	0.66	0.750			
0.2660	17021.48	3.9400	3.9399	0.9114	26.59	0.66	0.750			
0.2687	17195.05	3.9370	3.9369	0.9057	26.58	0.65	0.750			
0.2714	17370.11	3.9340	3.9341	0.9040	26.58	0.65	0.750			
0.2741	17543.90	3.9310	3.9310	0.9028	26.58	0.65	0.750			
0.2768	17715.32	3.9280	3.9280	0.9069	26.58	0.65	0.750			
0.2795	17887.50	3.9250	3.9250	0.9055	26.58	0.65	0.750			
0.2822	18061.04	3.9220	3.9218	0.9161	26.58	0.65	0.750			
0.2850	18240.23	3.9190	3.9190	0.9182	26.58	0.65	0.750			
0.2878	18416.65	3.9160	3.9160	0.9237	26.57	0.64	0.750			
0.2906	18596.06	3.9130	3.9130	0.9304	26.57	0.64	0.750			
0.2933	18773.68	3.9100	3.9102	0.9261	26.56	0.63	0.750			
0.2961	18951.24	3.9070	3.9070	0.9288	26.56	0.63	0.750			
0.2989	19131.35	3.9040	3.9040	0.9266	26.55	0.62	0.750			
0.3017	19307.27	3.9010	3.9010	0.9264	26.55	0.62	0.750			
0.3045	19487.86	3.8980	3.8980	0.9305	26.54	0.61	0.750			
0.3072	19663.82	3.8950	3.8949	0.9272	26.54	0.61	0.750			
0.3100	19842.59	3.8920	3.8920	0.9244	26.54	0.61	0.750			
0.3128	20019.75	3.8890	3.8891	0.9340	26.53	0.60	0.750			
0.3156	20197.36	3.8860	3.8861	0.9429	26.53	0.60	0.750			
0.3184	20378.85	3.8830	3.8830	0.9562	26.52	0.59	0.750			
0.3213	20564.72	3.8800	3.8801	0.9585	26.52	0.59	0.750			
0.3242	20750.87	3.8770	3.8770	0.9696	26.51	0.58	0.750			
0.3271	20937.45	3.8740	3.8741	0.9759	26.51	0.58	0.750			
0.3301	21126.78	3.8710	3.8710	0.9826	26.50	0.57	0.750			
0.3330	21314.34	3.8680	3.8680	0.9810	26.50	0.57	0.750			
0.3360	21502.79	3.8650	3.8650	0.9811	26.49	0.56	0.750			
0.3389	21690.44	3.8620	3.8620	0.9841	26.48	0.55	0.750			
0.3419	21880.91	3.8590	3.8591	0.9930	26.47	0.54	0.750			
0.3449	22071.25	3.8560	3.8558	0.9961	26.46	0.53	0.750			
0.3478	22261.88	3.8530	3.8530	1.0017	26.45	0.52	0.750			
0.3509	22455.31	3.8500	3.8501	1.0116	26.44	0.51	0.750			
0.3539	22649.93	3.8470	3.8470	1.0248	26.43	0.50	0.750			
0.3570	22849.39	3.8440	3.8439	1.0290	26.42	0.49	0.750			
0.3601	23047.87	3.8410	3.8410	1.0266	26.41	0.48	0.750			
0.3632	23245.47	3.8380	3.8380	1.0246	26.41	0.48	0.750			
0.3663	23442.18	3.8350	3.8352	1.0311	26.40	0.47	0.750			
0.3694	23640.35	3.8320	3.8317	1.0294	26.39	0.46	0.750			
0.3724	23836.13	3.8290	3.8290	1.0276	26.38	0.45	0.750			
0.3755	24032.72	3.8260	3.8261	1.0321	26.37	0.44	0.750			
0.3786	24232.69	3.8230	3.8230	1.0440	26.36	0.43	0.750			
0.3818	24433.30	3.8200	3.8198	1.0505	26.35	0.42	0.750			
0.3849	24635.04	3.8170	3.8170	1.0460	26.34	0.41	0.750			
0.3880	24833.90	3.8140	3.8141	1.0514	26.33	0.40	0.750			
0.3912	25037.75	3.8110	3.8111	1.0643	26.32	0.39	0.750			
0.3944	25242.24	3.8080	3.8078	1.0711	26.31	0.38	0.750			
0.3976	25446.79	3.8050	3.8051	1.0727	26.30	0.37	0.750			
0.4008	25653.43	3.8020	3.8020	1.0826	26.29	0.36	0.750			
0.4041	25861.31	3.7990	3.7991	1.1004	26.28	0.35	0.750			
0.4074	26076.46	3.7960	3.7957	1.1140	26.27	0.34	0.750			
0.4108	26288.04	3.7930	3.7930	1.1227	26.26	0.33	0.750			
0.4142	26506.10	3.7900	3.7900	1.1394	26.25	0.32	0.750			
0.4176	26727.35	3.7870	3.7871	1.1582	26.24	0.31	0.750			
0.4211	26951.05	3.7840	3.7840	1.1619	26.23	0.30	0.750			
0.4246	27174.77	3.7810	3.7810	1.1790	26.21	0.28	0.750			
0.4281	27401.28	3.7780	3.7780	1.1930	26.20	0.27	0.750			
0.4318	27635.07	3.7750	3.7746	1.2056	26.19	0.26	0.750			
0.4356	27881.26	3.7720	3.7718	1.1854	26.18	0.25	0.750			
0.4389	28092.02	3.7690	3.7692	1.2483	26.17	0.24	0.750			
0.4427	28332.97	3.7660	3.7661	1.2780	26.16	0.23	0.750			
0.4466	28581.65	3.7630	3.7633	1.3357	26.15	0.22	0.750	0.320	0.427	
0.4506	28841.47	3.7600	3.7606	1.3715	26.14	0.21	0.750			
0.4549	29115.78	3.7570	3.7572	1.4050	26.12	0.19	0.750			
0.4594	29400.98	3.7540	3.7541	1.4347	26.11	0.18	0.750			
0.4636	29669.34	3.7510	3.7512	1.4283	26.10	0.17	0.750			
0.4680	29953.69	3.7480	3.7480	1.4450	26.09	0.16	0.750			
0.4724	30235.72	3.7450	3.7451	1.4971	26.08	0.15	0.750			
0.4768	30518.28	3.7420	3.7423	1.5447	26.06	0.13	0.750			
0.4816	30822.32	3.7390	3.7387	1.5746	26.04	0.11	0.750			
0.4865	31132.86	3.7360	3.7363	1.6256	26.03	0.10	0.750			
0.4913	31443.62	3.7330	3.7331	1.6786	26.01	0.08	0.750			
0.4964	31769.44	3.7300	3.7301	1.7209	25.99	0.06	0.750			
0.5017	32106.29	3.7270	3.7271	1.7526	25.97	0.04	0.750			
0.5070	32450.83	3.7240	3.7240	1.8087	25.95	0.02	0.750			
0.5125	32797.86	3.7210	3.7211	1.8599	25.94	0.01	0.750			
0.5182	33165.90	3.7180	3.7180	1.9141	25.93	0.00	0.750			
0.5241	33539.83	3.7150	3.7148	1.9573	25.92	-0.01	0.750			
0.5299	33911.76	3.7120	3.7121	2.0077	25.90	-0.03	0.750			
0.5361	34309.92	3.7090	3.7086	2.0742	25.88	-0.05	0.750			
0.5423	34709.81	3.7060	3.7062	2.1544	25.86	-0.07	0.750			
0.5489	35129.23	3.7030	3.7029	2.2033	25.84	-0.09	0.750			
0.5556	35556.32	3.7000	3.7000	2.2862	25.82	-0.11	0.750			
0.5626	36007.11	3.6970	3.6971	2.3508	25.81	-0.12	0.750			
0.5698	36467.93	3.6940	3.6938	2.4131	25.80	-0.13	0.750			
0.5771	36933.86	3.6910	3.6911	2.4692	25.78	-0.15	0.750			
0.5846	37413.39	3.6880	3.6880	2.5500	25.77	-0.16	0.750			
0.5924	37911.99	3.6850	3.6850	2.6223	25.75	-0.18	0.750			
0.6002	38415.17	3.6820	3.6820	2.7431	25.74	-0.19	0.750			
0.6087	38957.35	3.6790	3.6789	2.8324	25.72	-0.21	0.750			
0.6174	39512.53	3.6760	3.6761	2.9061	25.70	-0.23	0.750			
0.6261	40072.79	3.6730	3.6729	2.9659	25.69	-0.24	0.750			
0.6352	40651.95	3.6700	3.6700	3.0076	25.69	-0.24	0.750			
0.6444	41243.33	3.6670	3.6669	2.9464	25.68	-0.25	0.750			
0.6535	41824.14	3.6640	3.6640	2.7662	25.68	-0.25	0.750			
0.6613	42325.53	3.6610	3.6609	2.4811	25.68	-0.25	0.750			
0.6678	42741.44	3.6580	3.6584	2.1665	25.68	-0.25	0.750			
0.6741	43139.22	3.6550	3.6552	1.9770	25.69	-0.24	0.750			
0.6794	43484.27	3.6520	3.6521	1.7993	25.70	-0.23	0.750			
0.6844	43804.03	3.6490	3.6490	1.6445	25.70	-0.23	0.750			
0.6893	44117.05	3.6460	3.6462	1.5493	25.70	-0.23	0.750			
0.6939	44407.46	3.6430	3.6429	1.4437	25.70	-0.23	0.750			
0.6979	44668.72	3.6400	3.6401	1.3554	25.70	-0.23	0.750			
0.7017	44907.70	3.6370	3.6370	1.2811	25.70	-0.23	0.750			
0.7053	45136.19	3.6340	3.6340	1.2196	25.70	-0.23	0.750			
0.7089	45366.80	3.6310	3.6310	1.1962	25.70	-0.23	0.750			
0.7123	45589.78	3.6280	3.6281	1.1852	25.70	-0.23	0.750			
0.7159	45815.07	3.6250	3.6251	1.1929	25.71	-0.22	0.750			
0.7195	46047.05	3.6220	3.6215	1.1931	25.71	-0.22	0.750			
0.7230	46273.02	3.6190	3.6190	1.1964	25.71	-0.22	0.750			
0.7267	46506.74	3.6160	3.6161	1.2018	25.71	-0.22	0.750			
0.7303	46741.66	3.6130	3.6130	1.2044	25.71	-0.22	0.750			
0.7340	46976.79	3.6100	3.6101	1.1938	25.71	-0.22	0.750			
0.7375	47198.00	3.6070	3.6070	1.1657	25.71	-0.22	0.750			
0.7409	47420.35	3.6040	3.6041	1.1506	25.72	-0.21	0.750			
0.7444	47640.76	3.6010	3.6008	1.1452	25.72	-0.21	0.750			
0.7477	47855.14	3.5980	3.5981	1.1396	25.72	-0.21	0.750			
0.7511	48069.55	3.5950	3.5950	1.1654	25.72	-0.21	0.750			
0.7545	48290.02	3.5920	3.5921	1.1950	25.72	-0.21	0.750			
0.7581	48520.84	3.5890	3.5889	1.2266	25.72	-0.21	0.750			
0.7619	48763.17	3.5860	3.5860	1.2695	25.72	-0.21	0.750			
0.7658	49013.71	3.5830	3.5831	1.3123	25.72	-0.21	0.750			
0.7699	49271.94	3.5800	3.5798	1.3288	25.72	-0.21	0.750			
0.7739	49529.76	3.5770	3.5771	1.3670	25.72	-0.21	0.750			
0.7781	49795.27	3.5740	3.5740	1.4007	25.72	-0.21	0.750			
0.7822	50062.71	3.5710	3.5708	1.4488	25.72	-0.21	0.750			
0.7866	50339.25	3.5680	3.5683	1.5089	25.72	-0.21	0.750			
0.7912	50638.63	3.5650	3.5650	1.5624	25.72	-0.21	0.750			
0.7961	50951.53	3.5620	3.5617	1.5942	25.72	-0.21	0.750			
0.8010	51265.99	3.5590	3.5590	1.6124	25.72	-0.21	0.750			
0.8059	51574.71	3.5560	3.5563	1.6240	25.72	-0.21	0.750			
0.8108	51890.94	3.5530	3.5527	1.6504	25.72	-0.21	0.750			
0.8157	52207.33	3.5500	3.5497	1.6472	25.72	-0.21	0.750			
0.8207	52523.89	3.5470	3.5472	1.6602	25.72	-0.21	0.750			
0.8258	52851.79	3.5440	3.5443	1.6961	25.72	-0.21	0.750			
0.8309	53176.48	3.5410	3.5410	1.7174	25.72	-0.21	0.750			
0.8361	53509.18	3.5380	3.5381	1.7598	25.73	-0.20	0.750			
0.8415	53859.01	3.5350	3.5350	1.7508	25.75	-0.18	0.750			
0.8470	54207.33	3.5320	3.5319	1.6734	25.77	-0.16	0.750			
0.8526	54564.09	3.5290	3.5290	1.5085	25.78	-0.15	0.750			
0.8572	54857.93	3.5260	3.5264	1.2953	25.79	-0.14	0.750			
0.8605	55072.80	3.5230	3.5232	1.0243	25.81	-0.12	0.750			
0.8630	55230.62	3.5200	3.5196	0.7615	25.82	-0.11	0.750			
0.8643	55318.02	3.5170	3.5167	0.5657	25.82	-0.11	0.750			
0.8655	55394.05	3.5140	3.5137	0.4416	25.83	-0.10	0.750			
0.8666	55462.33	3.5110	3.5109	0.3777	25.84	-0.09	0.750			
0.8676	55528.31	3.5080	3.5080	0.3455	25.84	-0.09	0.750			
0.8686	55589.83	3.5050	3.5051	0.3248	25.84	-0.09	0.750			
0.8695	55650.14	3.5020	3.5019	0.3108	25.85	-0.08	0.750			
0.8704	55706.99	3.4990	3.4990	0.2982	25.85	-0.08	0.750			
0.8713	55762.99	3.4960	3.4959	0.2904	25.86	-0.07	0.750			
0.8722	55818.01	3.4930	3.4930	0.2832	25.87	-0.06	0.750			
0.8730	55871.89	3.4900	3.4900	0.2769	25.87	-0.06	0.750			
0.8738	55924.14	3.4870	3.4870	0.2710	25.88	-0.05	0.750			
0.8746	55975.48	3.4840	3.4840	0.2648	25.88	-0.05	0.750			
0.8754	56025.61	3.4810	3.4810	0.2584	25.89	-0.04	0.750			
0.8762	56074.74	3.4780	3.4782	0.2524	25.89	-0.04	0.750			
0.8769	56122.66	3.4750	3.4749	0.2463	25.90	-0.03	0.750			
0.8776	56169.37	3.4720	3.4719	0.2412	25.90	-0.03	0.750			
0.8784	56214.88	3.4690	3.4690	0.2351	25.91	-0.02	0.750			
0.8790	56258.93	3.4660	3.4661	0.2301	25.91	-0.02	0.750			
0.8797	56302.88	3.4630	3.4630	0.2261	25.91	-0.02	0.750			
0.8804	56346.27	3.4600	3.4600	0.2217	25.92	-0.01	0.750			
0.8811	56388.36	3.4570	3.4570	0.2168	25.92	-0.01	0.750			
0.8817	56429.68	3.4540	3.4540	0.2117	25.93	-0.00	0.750			
0.8823	56469.89	3.4510	3.4511	0.2069	25.93	0.00	0.750			
0.8829	56508.73	3.4480	3.4480	0.2020	25.93	0.00	0.750			
0.8835	56547.10	3.4450	3.4450	0.1977	25.94	0.01	0.750			
0.8841	56584.27	3.4420	3.4420	0.1935	25.94	0.01	0.750			
0.8847	56621.26	3.4390	3.4390	0.1887	25.95	0.02	0.750			
0.8853	56657.53	3.4360	3.4360	0.1842	25.95	0.02	0.750			
0.8858	56692.38	3.4330	3.4331	0.1788	25.95	0.02	0.750			
0.8864	56726.52	3.4300	3.4300	0.1728	25.96	0.03	0.750			
0.8869	56759.14	3.4270	3.4270	0.1671	25.96	0.03	0.750			
0.8874	56790.53	3.4240	3.4240	0.1604	25.96	0.03	0.750			
0.8878	56820.73	3.4210	3.4210	0.1542	25.97	0.04	0.750			
0.8883	56849.52	3.4180	3.4180	0.1487	25.97	0.04	0.750			
0.8887	56877.70	3.4150	3.4150	0.1430	25.97	0.04	0.750			
0.8891	56904.57	3.4120	3.4120	0.1371	25.97	0.04	0.750			
0.8895	56930.31	3.4090	3.4090	0.1315	25.98	0.05	0.750			
0.8899	56955.05	3.4060	3.4061	0.1258	25.98	0.05	0.750			
0.8903	56979.08	3.4030	3.4029	0.1184	25.98	0.05	0.750			
0.8907	57001.60	3.4000	3.4000	0.1120	25.98	0.05	0.750			
0.8910	57023.08	3.3970	3.3970	0.1022	25.99	0.06	0.750			
0.8913	57042.08	3.3940	3.3941	0.0934	25.99	0.06	0.750			
0.8916	57059.67	3.3910	3.3908	0.0849	25.99	0.06	0.750			
0.8918	57074.92	3.3880	3.3882	0.0739	25.99	0.06	0.750			
0.8920	57087.91	3.3850	3.3852	0.0629	25.99	0.06	0.750			
0.8922	57098.95	3.3820	3.3828	0.0521	25.99	0.06	0.750			
0.8923	57107.93	3.3790	3.3801	0.0414	25.99	0.06	0.750			
0.8924	57114.84	3.3760	3.3775	0.0306	26.00	0.07	0.750			
