Ah_balance (normalized)	Ah_balance (mAh)	Voltage - fit (V)	Voltage -  interpolate (V)	dQ/dV (1/V)	Temperature (°C)	Temperature - diff (°C)	Current (C)	R_DC 0ms (mOhm)	R_DC 50ms (mOhm)	R_DC 50 ms PEC (mOhm)
0.0526	3367.54	4.1970	4.1970	0.6797	26.60	0.65	0.750			
0.0547	3501.43	4.1940	4.1942	0.7102	26.60	0.65	0.750			
0.0569	3642.10	4.1910	4.1912	0.7309	26.60	0.65	0.750			
0.0591	3783.86	4.1880	4.1880	0.7420	26.60	0.65	0.750			
0.0614	3928.65	4.1850	4.1851	0.7455	26.60	0.65	0.750			
0.0636	4071.64	4.1820	4.1821	0.7534	26.60	0.65	0.750			
0.0659	4216.59	4.1790	4.1790	0.7603	26.60	0.65	0.750			
0.0682	4362.21	4.1760	4.1755	0.7683	26.60	0.65	0.750			
0.0705	4509.59	4.1730	4.1730	0.7748	26.60	0.65	0.750			
0.0728	4661.94	4.1700	4.1700	0.7764	26.60	0.65	0.750			
0.0752	4813.76	4.1670	4.1671	0.7778	26.60	0.65	0.750			
0.0776	4965.44	4.1640	4.1639	0.7801	26.60	0.65	0.750			
0.0798	5109.79	4.1610	4.1613	0.7676	26.60	0.65	0.750			
0.0821	5256.26	4.1580	4.1580	0.7696	26.60	0.65	0.750			
0.0844	5402.67	4.1550	4.1550	0.7671	26.59	0.64	0.750			
0.0867	5551.10	4.1520	4.1519	0.7705	26.59	0.64	0.750			
0.0891	5700.34	4.1490	4.1490	0.7796	26.59	0.64	0.750			
0.0914	5848.71	4.1460	4.1461	0.7763	26.58	0.63	0.750			
0.0937	5997.61	4.1430	4.1430	0.7779	26.58	0.63	0.750			
0.0961	6147.72	4.1400	4.1400	0.7793	26.58	0.63	0.750			
0.0984	6296.36	4.1370	4.1371	0.7759	26.58	0.63	0.750			
0.1007	6446.24	4.1340	4.1340	0.7782	26.58	0.63	0.750			
0.1031	6595.81	4.1310	4.1311	0.7808	26.58	0.63	0.750			
0.1054	6744.84	4.1280	4.1277	0.7825	26.58	0.63	0.750			
0.1077	6895.89	4.1250	4.1250	0.7858	26.58	0.63	0.750			
0.1102	7049.78	4.1220	4.1220	0.7777	26.58	0.63	0.750			
0.1124	7196.78	4.1190	4.1189	0.7873	26.58	0.63	0.750			
0.1148	7348.10	4.1160	4.1161	0.7900	26.58	0.63	0.750			
0.1172	7497.78	4.1130	4.1130	0.7908	26.58	0.63	0.750			
0.1195	7650.00	4.1100	4.1100	0.7921	26.58	0.63	0.750			
0.1219	7803.53	4.1070	4.1072	0.7961	26.58	0.63	0.750			
0.1243	7958.17	4.1040	4.1040	0.7991	26.58	0.63	0.750			
0.1268	8114.79	4.1010	4.1010	0.8059	26.58	0.63	0.750			
0.1291	8265.00	4.0980	4.0981	0.7980	26.58	0.63	0.750			
0.1315	8418.71	4.0950	4.0951	0.8026	26.58	0.63	0.750			
0.1340	8574.82	4.0920	4.0920	0.7970	26.58	0.63	0.750			
0.1364	8728.04	4.0890	4.0890	0.7993	26.58	0.63	0.750			
0.1387	8879.46	4.0860	4.0861	0.8020	26.58	0.63	0.750			
0.1412	9033.67	4.0830	4.0830	0.8063	26.58	0.63	0.750			
0.1435	9186.71	4.0800	4.0798	0.8111	26.58	0.63	0.750			
0.1460	9343.88	4.0770	4.0771	0.8178	26.58	0.63	0.750			
0.1485	9503.72	4.0740	4.0740	0.8194	26.58	0.63	0.750			
0.1510	9661.94	4.0710	4.0711	0.8258	26.58	0.63	0.750			
0.1534	9819.48	4.0680	4.0681	0.8206	26.58	0.63	0.750			
0.1559	9976.21	4.0650	4.0646	0.8267	26.58	0.63	0.750			
0.1584	10134.63	4.0620	4.0622	0.8291	26.58	0.63	0.750			
0.1608	10293.80	4.0590	4.0590	0.8282	26.58	0.63	0.750			
0.1634	10455.76	4.0560	4.0560	0.8337	26.58	0.63	0.750			
0.1658	10613.48	4.0530	4.0532	0.8294	26.58	0.63	0.750			
0.1683	10774.33	4.0500	4.0496	0.8303	26.58	0.63	0.750			
0.1708	10933.91	4.0470	4.0471	0.8376	26.58	0.63	0.750			
0.1734	11095.17	4.0440	4.0440	0.8270	26.58	0.63	0.750			
0.1758	11250.06	4.0410	4.0411	0.8437	26.58	0.63	0.750			
0.1783	11411.10	4.0380	4.0381	0.8435	26.58	0.63	0.750			
0.1809	11576.31	4.0350	4.0344	0.8537	26.58	0.63	0.750			
0.1835	11741.82	4.0320	4.0320	0.8566	26.58	0.63	0.750			
0.1861	11907.37	4.0290	4.0294	0.8577	26.58	0.63	0.750			
0.1886	12071.70	4.0260	4.0261	0.8623	26.58	0.63	0.750			
0.1912	12236.57	4.0230	4.0230	0.8577	26.58	0.63	0.750			
0.1938	12400.64	4.0200	4.0197	0.8626	26.58	0.63	0.750			
0.1964	12567.68	4.0170	4.0172	0.8704	26.58	0.63	0.750			
0.1990	12734.38	4.0140	4.0140	0.8631	26.58	0.63	0.750			
0.2016	12901.54	4.0110	4.0111	0.8693	26.58	0.63	0.750			
0.2041	13064.26	4.0080	4.0081	0.8642	26.58	0.63	0.750			
0.2067	13230.24	4.0050	4.0052	0.8722	26.58	0.63	0.750			
0.2094	13400.08	4.0020	4.0020	0.8813	26.58	0.63	0.750			
0.2120	13568.94	3.9990	3.9991	0.8779	26.58	0.63	0.750			
0.2147	13738.46	3.9960	3.9961	0.8849	26.58	0.63	0.750			
0.2173	13907.19	3.9930	3.9932	0.8788	26.58	0.63	0.750			
0.2200	14077.67	3.9900	3.9901	0.8833	26.58	0.63	0.750			
0.2226	14246.31	3.9870	3.9871	0.8803	26.58	0.63	0.750			
0.2253	14416.22	3.9840	3.9841	0.8874	26.59	0.64	0.750			
0.2280	14589.97	3.9810	3.9810	0.9014	26.59	0.64	0.750			
0.2306	14758.04	3.9780	3.9774	0.8912	26.59	0.64	0.750			
0.2333	14930.02	3.9750	3.9750	0.8948	26.59	0.64	0.750			
0.2360	15102.34	3.9720	3.9721	0.9087	26.59	0.64	0.750			
0.2388	15280.25	3.9690	3.9689	0.9132	26.59	0.64	0.750			
0.2415	15457.09	3.9660	3.9661	0.9086	26.59	0.64	0.750			
0.2442	15630.13	3.9630	3.9630	0.9066	26.59	0.64	0.750			
0.2470	15806.84	3.9600	3.9600	0.8922	26.59	0.64	0.750			
0.2496	15975.98	3.9570	3.9570	0.8964	26.60	0.65	0.750			
0.2523	16145.60	3.9540	3.9541	0.8980	26.60	0.65	0.750			
0.2549	16316.15	3.9510	3.9509	0.8952	26.60	0.65	0.750			
0.2577	16490.63	3.9480	3.9481	0.9023	26.60	0.65	0.750			
0.2604	16665.17	3.9450	3.9452	0.9075	26.60	0.65	0.750			
0.2631	16838.66	3.9420	3.9420	0.9126	26.60	0.65	0.750			
0.2659	17018.19	3.9390	3.9389	0.9226	26.60	0.65	0.750			
0.2686	17190.48	3.9360	3.9362	0.9188	26.60	0.65	0.750			
0.2714	17369.60	3.9330	3.9331	0.9188	26.60	0.65	0.750			
0.2742	17548.95	3.9300	3.9300	0.9241	26.60	0.65	0.750			
0.2770	17725.38	3.9270	3.9270	0.9258	26.60	0.65	0.750			
0.2797	17902.67	3.9240	3.9241	0.9224	26.60	0.65	0.750			
0.2825	18079.12	3.9210	3.9210	0.9186	26.60	0.65	0.750			
0.2853	18256.13	3.9180	3.9180	0.9135	26.60	0.65	0.750			
0.2880	18429.25	3.9150	3.9151	0.9156	26.60	0.65	0.750			
0.2907	18604.91	3.9120	3.9121	0.9264	26.60	0.65	0.750			
0.2935	18781.57	3.9090	3.9089	0.9241	26.60	0.65	0.750			
0.2963	18962.57	3.9060	3.9059	0.9109	26.60	0.65	0.750			
0.2990	19136.88	3.9030	3.9031	0.9290	26.59	0.64	0.750			
0.3018	19315.18	3.9000	3.9002	0.9430	26.59	0.64	0.750			
0.3046	19496.69	3.8970	3.8971	0.9446	26.58	0.63	0.750			
0.3075	19680.02	3.8940	3.8942	0.9438	26.58	0.63	0.750			
0.3103	19862.08	3.8910	3.8911	0.9438	26.58	0.63	0.750			
0.3132	20045.36	3.8880	3.8881	0.9520	26.58	0.63	0.750			
0.3160	20226.73	3.8850	3.8851	0.9562	26.58	0.63	0.750			
0.3188	20406.01	3.8820	3.8820	0.9520	26.58	0.63	0.750			
0.3217	20591.22	3.8790	3.8789	0.9485	26.57	0.62	0.750			
0.3246	20773.55	3.8760	3.8760	0.9624	26.57	0.62	0.750			
0.3275	20958.74	3.8730	3.8732	0.9720	26.57	0.62	0.750			
0.3304	21145.05	3.8700	3.8697	0.9851	26.56	0.61	0.750			
0.3334	21335.65	3.8670	3.8670	0.9835	26.55	0.60	0.750			
0.3363	21525.79	3.8640	3.8641	0.9946	26.54	0.59	0.750			
0.3393	21718.00	3.8610	3.8610	1.0090	26.53	0.58	0.750			
0.3424	21913.30	3.8580	3.8580	1.0155	26.52	0.57	0.750			
0.3455	22110.04	3.8550	3.8549	1.0148	26.52	0.57	0.750			
0.3485	22305.01	3.8520	3.8521	1.0270	26.51	0.56	0.750			
0.3516	22503.69	3.8490	3.8492	1.0327	26.51	0.56	0.750			
0.3548	22705.80	3.8460	3.8458	1.0426	26.50	0.55	0.750			
0.3579	22904.77	3.8430	3.8431	1.0294	26.49	0.54	0.750			
0.3609	23099.13	3.8400	3.8401	1.0360	26.48	0.53	0.750			
0.3640	23298.16	3.8370	3.8370	1.0448	26.47	0.52	0.750			
0.3672	23498.46	3.8340	3.8339	1.0514	26.46	0.51	0.750			
0.3704	23702.61	3.8310	3.8311	1.0546	26.45	0.50	0.750			
0.3736	23908.16	3.8280	3.8281	1.0669	26.45	0.50	0.750			
0.3768	24113.97	3.8250	3.8251	1.0711	26.44	0.49	0.750			
0.3800	24322.64	3.8220	3.8218	1.0732	26.43	0.48	0.750			
0.3832	24525.46	3.8190	3.8190	1.0611	26.42	0.47	0.750			
0.3863	24725.76	3.8160	3.8160	1.0721	26.41	0.46	0.750			
0.3896	24931.68	3.8130	3.8132	1.0808	26.40	0.45	0.750			
0.3928	25139.93	3.8100	3.8097	1.1015	26.39	0.44	0.750			
0.3961	25352.10	3.8070	3.8071	1.0958	26.38	0.43	0.750			
0.3994	25564.46	3.8040	3.8041	1.1069	26.37	0.42	0.750			
0.4028	25780.42	3.8010	3.8011	1.1179	26.36	0.41	0.750			
0.4062	25996.97	3.7980	3.7976	1.1023	26.35	0.40	0.750			
0.4094	26204.49	3.7950	3.7951	1.1168	26.34	0.39	0.750			
0.4128	26418.12	3.7920	3.7921	1.1343	26.34	0.39	0.750			
0.4162	26636.70	3.7890	3.7891	1.1523	26.33	0.38	0.750			
0.4197	26862.44	3.7860	3.7862	1.1534	26.33	0.38	0.750			
0.4232	27084.33	3.7830	3.7832	1.1729	26.31	0.36	0.750			
0.4268	27312.34	3.7800	3.7801	1.1884	26.30	0.35	0.750			
0.4304	27546.85	3.7770	3.7766	1.1866	26.29	0.34	0.750			
0.4339	27769.47	3.7740	3.7742	1.2003	26.27	0.32	0.750			
0.4375	28000.23	3.7710	3.7711	1.2243	26.26	0.31	0.750			
0.4412	28237.63	3.7680	3.7682	1.2612	26.24	0.29	0.750			
0.4450	28480.09	3.7650	3.7649	1.3006	26.23	0.28	0.750			
0.4490	28734.60	3.7620	3.7620	1.3438	26.22	0.27	0.750	0.268	0.370	
0.4532	29002.97	3.7590	3.7593	1.3816	26.21	0.26	0.750			
0.4574	29273.39	3.7560	3.7562	1.4170	26.20	0.25	0.750			
0.4617	29549.56	3.7530	3.7531	1.4335	26.19	0.24	0.750			
0.4661	29832.35	3.7500	3.7500	1.4416	26.18	0.23	0.750			
0.4704	30105.25	3.7470	3.7471	1.4605	26.16	0.21	0.750			
0.4747	30382.12	3.7440	3.7442	1.4895	26.15	0.20	0.750			
0.4793	30673.56	3.7410	3.7409	1.5129	26.13	0.18	0.750			
0.4838	30965.19	3.7380	3.7379	1.5636	26.12	0.17	0.750			
0.4886	31269.18	3.7350	3.7349	1.5954	26.10	0.15	0.750			
0.4935	31581.41	3.7320	3.7316	1.6577	26.09	0.14	0.750			
0.4986	31907.88	3.7290	3.7290	1.7340	26.07	0.12	0.750			
0.5037	32236.86	3.7260	3.7260	1.7846	26.06	0.11	0.750			
0.5093	32593.70	3.7230	3.7233	1.8179	26.04	0.09	0.750			
0.5149	32953.04	3.7200	3.7203	1.8521	26.02	0.07	0.750			
0.5205	33313.38	3.7170	3.7170	1.9101	26.00	0.05	0.750			
0.5263	33685.78	3.7140	3.7138	1.9818	25.98	0.03	0.750			
0.5324	34071.10	3.7110	3.7109	2.0326	25.96	0.01	0.750			
0.5386	34470.01	3.7080	3.7081	2.0912	25.94	-0.01	0.750			
0.5449	34873.92	3.7050	3.7047	2.1727	25.93	-0.02	0.750			
0.5516	35302.21	3.7020	3.7020	2.1842	25.92	-0.03	0.750			
0.5583	35732.20	3.6990	3.6991	2.2289	25.90	-0.05	0.750			
0.5651	36164.96	3.6960	3.6963	2.2730	25.88	-0.07	0.750			
0.5720	36607.63	3.6930	3.6925	2.3495	25.85	-0.10	0.750			
0.5792	37067.48	3.6900	3.6898	2.4333	25.83	-0.12	0.750			
0.5863	37524.24	3.6870	3.6871	2.5505	25.82	-0.13	0.750			
0.5943	38037.11	3.6840	3.6837	2.6232	25.81	-0.14	0.750			
0.6023	38546.67	3.6810	3.6809	2.7222	25.80	-0.15	0.750			
0.6106	39076.79	3.6780	3.6782	2.8066	25.77	-0.18	0.750			
0.6194	39643.25	3.6750	3.6752	2.9107	25.75	-0.20	0.750			
0.6282	40205.47	3.6720	3.6721	2.9832	25.74	-0.21	0.750			
0.6372	40781.89	3.6690	3.6692	3.0226	25.73	-0.22	0.750			
0.6466	41383.88	3.6660	3.6660	3.0554	25.72	-0.23	0.750			
0.6560	41981.91	3.6630	3.6633	2.9657	25.71	-0.24	0.750			
0.6650	42556.81	3.6600	3.6600	2.7330	25.71	-0.24	0.750			
0.6725	43038.30	3.6570	3.6571	2.4290	25.71	-0.24	0.750			
0.6789	43451.19	3.6540	3.6543	2.1482	25.71	-0.24	0.750			
0.6850	43840.02	3.6510	3.6512	1.9385	25.71	-0.24	0.750			
0.6904	44186.85	3.6480	3.6482	1.7448	25.72	-0.23	0.750			
0.6952	44494.93	3.6450	3.6445	1.6095	25.72	-0.23	0.750			
0.7000	44797.48	3.6420	3.6423	1.5124	25.72	-0.23	0.750			
0.7044	45079.13	3.6390	3.6389	1.4113	25.72	-0.23	0.750			
0.7083	45332.48	3.6360	3.6361	1.3206	25.72	-0.23	0.750			
0.7119	45564.73	3.6330	3.6333	1.2404	25.72	-0.23	0.750			
0.7156	45798.48	3.6300	3.6301	1.2190	25.72	-0.23	0.750			
0.7191	46025.32	3.6270	3.6271	1.1898	25.72	-0.23	0.750			
0.7227	46249.98	3.6240	3.6241	1.2009	25.72	-0.23	0.750			
0.7263	46481.80	3.6210	3.6210	1.2124	25.72	-0.23	0.750			
0.7301	46724.45	3.6180	3.6178	1.2091	25.72	-0.23	0.750			
0.7337	46956.61	3.6150	3.6151	1.2150	25.72	-0.23	0.750			
0.7374	47191.48	3.6120	3.6121	1.2120	25.72	-0.23	0.750			
0.7410	47426.50	3.6090	3.6092	1.1965	25.72	-0.23	0.750			
0.7446	47655.11	3.6060	3.6060	1.1592	25.72	-0.23	0.750			
0.7480	47870.98	3.6030	3.6032	1.1525	25.72	-0.23	0.750			
0.7514	48090.47	3.6000	3.6001	1.1468	25.72	-0.23	0.750			
0.7548	48307.23	3.5970	3.5968	1.1532	25.72	-0.23	0.750			
0.7582	48526.33	3.5940	3.5941	1.1606	25.72	-0.23	0.750			
0.7617	48749.68	3.5910	3.5911	1.1868	25.72	-0.23	0.750			
0.7653	48980.47	3.5880	3.5881	1.2239	25.73	-0.22	0.750			
0.7691	49219.27	3.5850	3.5849	1.2415	25.73	-0.22	0.750			
0.7728	49458.13	3.5820	3.5820	1.2837	25.73	-0.22	0.750			
0.7767	49707.82	3.5790	3.5791	1.3301	25.73	-0.22	0.750			
0.7808	49969.66	3.5760	3.5757	1.3515	25.73	-0.22	0.750			
0.7848	50226.72	3.5730	3.5731	1.4096	25.73	-0.22	0.750			
0.7891	50502.94	3.5700	3.5701	1.4602	25.73	-0.22	0.750			
0.7936	50789.29	3.5670	3.5667	1.4913	25.73	-0.22	0.750			
0.7981	51080.57	3.5640	3.5639	1.5200	25.73	-0.22	0.750			
0.8028	51376.51	3.5610	3.5613	1.5432	25.72	-0.23	0.750			
0.8074	51671.77	3.5580	3.5576	1.6021	25.72	-0.23	0.750			
0.8122	51983.71	3.5550	3.5547	1.6007	25.72	-0.23	0.750			
0.8171	52291.44	3.5520	3.5521	1.6010	25.72	-0.23	0.750			
0.8219	52603.39	3.5490	3.5494	1.6687	25.73	-0.22	0.750			
0.8270	52929.01	3.5460	3.5464	1.6708	25.73	-0.22	0.750			
0.8321	53255.04	3.5430	3.5431	1.6869	25.74	-0.21	0.750			
0.8372	53579.27	3.5400	3.5405	1.7378	25.75	-0.20	0.750			
0.8424	53912.85	3.5370	3.5371	1.7667	25.75	-0.20	0.750			
0.8478	54258.57	3.5340	3.5341	1.7859	25.76	-0.19	0.750			
0.8535	54622.82	3.5310	3.5309	1.7085	25.77	-0.18	0.750			
0.8588	54962.86	3.5280	3.5277	1.6015	25.77	-0.18	0.750			
0.8638	55281.25	3.5250	3.5257	1.3987	25.78	-0.17	0.750			
0.8679	55546.13	3.5220	3.5220	1.1498	25.79	-0.16	0.750			
0.8707	55721.94	3.5190	3.5191	0.8931	25.80	-0.15	0.750			
0.8728	55857.35	3.5160	3.5152	0.6739	25.82	-0.13	0.750			
0.8738	55921.98	3.5130	3.5129	0.4939	25.82	-0.13	0.750			
0.8750	55999.64	3.5100	3.5097	0.4110	25.83	-0.12	0.750			
0.8760	56062.89	3.5070	3.5069	0.3603	25.83	-0.12	0.750			
0.8770	56127.70	3.5040	3.5041	0.3339	25.84	-0.11	0.750			
0.8779	56188.32	3.5010	3.5011	0.3141	25.84	-0.11	0.750			
0.8788	56246.04	3.4980	3.4980	0.3038	25.85	-0.10	0.750			
0.8797	56302.00	3.4950	3.4950	0.2926	25.85	-0.10	0.750			
0.8806	56356.49	3.4920	3.4918	0.2841	25.86	-0.09	0.750			
0.8814	56411.22	3.4890	3.4891	0.2803	25.87	-0.08	0.750			
0.8823	56464.27	3.4860	3.4860	0.2730	25.87	-0.08	0.750			
0.8831	56516.64	3.4830	3.4829	0.2681	25.88	-0.07	0.750			
0.8839	56567.49	3.4800	3.4802	0.2609	25.88	-0.07	0.750			
0.8846	56616.23	3.4770	3.4770	0.2536	25.89	-0.06	0.750			
0.8854	56664.48	3.4740	3.4740	0.2484	25.89	-0.06	0.750			
0.8861	56711.38	3.4710	3.4710	0.2445	25.90	-0.05	0.750			
0.8868	56757.04	3.4680	3.4679	0.2403	25.90	-0.05	0.750			
0.8876	56803.24	3.4650	3.4650	0.2362	25.91	-0.04	0.750			
0.8883	56849.03	3.4620	3.4618	0.2311	25.91	-0.04	0.750			
0.8890	56893.02	3.4590	3.4591	0.2269	25.92	-0.03	0.750			
0.8896	56936.26	3.4560	3.4561	0.2213	25.92	-0.03	0.750			
0.8903	56977.83	3.4530	3.4530	0.2155	25.93	-0.02	0.750			
0.8909	57018.55	3.4500	3.4497	0.2081	25.93	-0.02	0.750			
0.8915	57057.34	3.4470	3.4470	0.2029	25.94	-0.01	0.750			
0.8921	57095.92	3.4440	3.4442	0.1990	25.94	-0.01	0.750			
0.8927	57133.70	3.4410	3.4411	0.1959	25.95	-0.00	0.750			
0.8933	57171.51	3.4380	3.4376	0.1914	25.95	0.00	0.750			
0.8939	57207.80	3.4350	3.4351	0.1861	25.95	0.00	0.750			
0.8944	57242.67	3.4320	3.4321	0.1808	25.96	0.01	0.750			
0.8950	57277.25	3.4290	3.4291	0.1762	25.96	0.01	0.750			
0.8955	57311.03	3.4260	3.4259	0.1718	25.97	0.02	0.750			
0.8960	57343.18	3.4230	3.4229	0.1643	25.97	0.02	0.750			
0.8965	57374.18	3.4200	3.4200	0.1587	25.97	0.02	0.750			
0.8969	57403.97	3.4170	3.4170	0.1533	25.98	0.03	0.750			
0.8974	57433.13	3.4140	3.4141	0.1487	25.98	0.03	0.750			
0.8978	57461.01	3.4110	3.4109	0.1428	25.98	0.03	0.750			
0.8982	57487.91	3.4080	3.4079	0.1374	25.99	0.04	0.750			
0.8987	57513.83	3.4050	3.4050	0.1310	25.99	0.04	0.750			
0.8990	57538.51	3.4020	3.4021	0.1253	25.99	0.04	0.750			
0.8994	57562.76	3.3990	3.3991	0.1194	25.99	0.04	0.750			
0.8998	57584.92	3.3960	3.3959	0.1115	26.00	0.05	0.750			
0.9001	57606.61	3.3930	3.3928	0.1024	26.00	0.05	0.750			
0.9004	57625.57	3.3900	3.3900	0.0938	26.00	0.05	0.750			
0.9007	57642.62	3.3870	3.3871	0.0838	26.00	0.05	0.750			
0.9009	57658.27	3.3840	3.3841	0.0746	26.01	0.06	0.750			
0.9011	57671.58	3.3810	3.3813	0.0640	26.01	0.06	0.750			
0.9013	57683.55	3.3780	3.3786	0.0535	26.01	0.06	0.750			
0.9014	57692.73	3.3750	3.3758	0.0422	26.01	0.06	0.750			
0.9016	57699.74	3.3720	3.3733	0.0308	26.01	0.06	0.750			
0.9016	57704.56	3.3690	3.3714	0.0195	26.01	0.06	0.750			
