Ah_balance (normalized)	Ah_balance (mAh)	Voltage - fit (V)	Voltage -  interpolate (V)	dQ/dV (1/V)	Temperature (°C)	Temperature - diff (°C)	Current (C)	R_DC 0ms (mOhm)	R_DC 50ms (mOhm)	R_DC 50 ms PEC (mOhm)
0.0003	19.17	4.1590	4.1589	-0.1299	25.94	0.01	-0.750			
0.0007	46.87	4.1560	4.1560	-0.1629	25.94	0.01	-0.750			
0.0013	82.46	4.1530	4.1530	-0.1981	25.94	0.01	-0.750			
0.0019	122.81	4.1500	4.1500	-0.2333	25.94	0.01	-0.750			
0.0027	171.01	4.1470	4.1470	-0.2687	25.94	0.01	-0.750			
0.0035	226.38	4.1440	4.1439	-0.3021	25.94	0.01	-0.750			
0.0045	287.68	4.1410	4.1410	-0.3361	25.94	0.01	-0.750			
0.0056	355.69	4.1380	4.1380	-0.3694	25.94	0.01	-0.750			
0.0067	430.34	4.1350	4.1350	-0.4009	25.93	0.00	-0.750			
0.0080	511.60	4.1320	4.1320	-0.4281	25.93	0.00	-0.750			
0.0093	596.38	4.1290	4.1290	-0.4527	25.93	0.00	-0.750			
0.0107	686.58	4.1260	4.1260	-0.4764	25.93	0.00	-0.750			
0.0122	781.04	4.1230	4.1232	-0.4973	25.93	-0.00	-0.750			
0.0137	878.57	4.1200	4.1199	-0.5117	25.93	-0.00	-0.750			
0.0153	977.74	4.1170	4.1171	-0.5314	25.93	-0.00	-0.750			
0.0169	1081.65	4.1140	4.1140	-0.5491	25.93	-0.00	-0.750			
0.0186	1190.00	4.1110	4.1110	-0.5663	25.92	-0.01	-0.750			
0.0203	1300.27	4.1080	4.1079	-0.5776	25.92	-0.01	-0.750			
0.0221	1413.71	4.1050	4.1051	-0.5903	25.92	-0.01	-0.750			
0.0239	1528.75	4.1020	4.1020	-0.5992	25.92	-0.01	-0.750			
0.0257	1645.22	4.0990	4.0989	-0.6075	25.92	-0.01	-0.750			
0.0275	1761.20	4.0960	4.0960	-0.6102	25.92	-0.01	-0.750			
0.0293	1877.82	4.0930	4.0930	-0.6198	25.91	-0.02	-0.750			
0.0312	1997.78	4.0900	4.0900	-0.6273	25.91	-0.02	-0.750			
0.0331	2119.70	4.0870	4.0870	-0.6362	25.91	-0.02	-0.750			
0.0350	2242.36	4.0840	4.0840	-0.6439	25.90	-0.03	-0.750			
0.0370	2367.20	4.0810	4.0810	-0.6548	25.90	-0.03	-0.750			
0.0390	2494.58	4.0780	4.0779	-0.6592	25.90	-0.03	-0.750			
0.0410	2622.05	4.0750	4.0750	-0.6618	25.90	-0.03	-0.750			
0.0430	2749.45	4.0720	4.0721	-0.6657	25.90	-0.03	-0.750			
0.0450	2879.10	4.0690	4.0689	-0.6707	25.89	-0.04	-0.750			
0.0470	3007.40	4.0660	4.0659	-0.6709	25.89	-0.04	-0.750			
0.0490	3135.86	4.0630	4.0629	-0.6722	25.89	-0.04	-0.750			
0.0510	3264.14	4.0600	4.0599	-0.6735	25.89	-0.04	-0.750			
0.0530	3393.99	4.0570	4.0570	-0.6805	25.89	-0.04	-0.750			
0.0551	3524.53	4.0540	4.0540	-0.6837	25.89	-0.04	-0.750			
0.0571	3655.36	4.0510	4.0509	-0.6850	25.89	-0.04	-0.750			
0.0592	3789.80	4.0480	4.0481	-0.6923	25.89	-0.04	-0.750			
0.0613	3923.21	4.0450	4.0450	-0.6949	25.89	-0.04	-0.750			
0.0634	4057.86	4.0420	4.0420	-0.6945	25.89	-0.04	-0.750			
0.0655	4190.69	4.0390	4.0390	-0.6992	25.89	-0.04	-0.750			
0.0676	4324.38	4.0360	4.0360	-0.6968	25.89	-0.04	-0.750			
0.0697	4458.76	4.0330	4.0329	-0.6996	25.89	-0.04	-0.750			
0.0718	4593.08	4.0300	4.0301	-0.7039	25.89	-0.04	-0.750			
0.0739	4728.10	4.0270	4.0271	-0.7053	25.89	-0.04	-0.750			
0.0760	4863.75	4.0240	4.0239	-0.7097	25.89	-0.04	-0.750			
0.0781	5000.71	4.0210	4.0210	-0.7116	25.90	-0.03	-0.750			
0.0803	5137.03	4.0180	4.0181	-0.7153	25.90	-0.03	-0.750			
0.0824	5276.53	4.0150	4.0150	-0.7182	25.90	-0.03	-0.750			
0.0846	5414.88	4.0120	4.0119	-0.7203	25.91	-0.02	-0.750			
0.0868	5553.55	4.0090	4.0092	-0.7174	25.91	-0.02	-0.750			
0.0889	5690.63	4.0060	4.0059	-0.7191	25.91	-0.02	-0.750			
0.0911	5828.58	4.0030	4.0031	-0.7166	25.91	-0.02	-0.750			
0.0932	5965.70	4.0000	4.0000	-0.7188	25.91	-0.02	-0.750			
0.0954	6102.71	3.9970	3.9970	-0.7148	25.91	-0.02	-0.750			
0.0975	6241.87	3.9940	3.9940	-0.7178	25.91	-0.02	-0.750			
0.0997	6378.42	3.9910	3.9910	-0.7208	25.91	-0.02	-0.750			
0.1018	6517.80	3.9880	3.9880	-0.7246	25.91	-0.02	-0.750			
0.1040	6656.03	3.9850	3.9850	-0.7284	25.92	-0.01	-0.750			
0.1062	6797.78	3.9820	3.9820	-0.7332	25.92	-0.01	-0.750			
0.1084	6938.59	3.9790	3.9790	-0.7372	25.92	-0.01	-0.750			
0.1106	7081.49	3.9760	3.9760	-0.7402	25.93	-0.00	-0.750			
0.1129	7223.11	3.9730	3.9731	-0.7414	25.93	0.00	-0.750			
0.1151	7364.98	3.9700	3.9699	-0.7415	25.93	0.00	-0.750			
0.1173	7508.22	3.9670	3.9669	-0.7472	25.94	0.01	-0.750			
0.1195	7650.98	3.9640	3.9640	-0.7493	25.94	0.01	-0.750			
0.1218	7797.48	3.9610	3.9610	-0.7507	25.95	0.02	-0.750			
0.1241	7942.31	3.9580	3.9580	-0.7495	25.95	0.02	-0.750			
0.1263	8086.12	3.9550	3.9549	-0.7483	25.95	0.02	-0.750			
0.1285	8225.83	3.9520	3.9521	-0.7510	25.96	0.03	-0.750			
0.1308	8370.50	3.9490	3.9490	-0.7569	25.96	0.03	-0.750			
0.1331	8515.34	3.9460	3.9458	-0.7597	25.96	0.03	-0.750			
0.1354	8665.30	3.9430	3.9430	-0.7648	25.97	0.04	-0.750			
0.1377	8813.03	3.9400	3.9402	-0.7708	25.97	0.04	-0.750			
0.1400	8962.91	3.9370	3.9370	-0.7735	25.97	0.04	-0.750			
0.1424	9111.34	3.9340	3.9340	-0.7796	25.98	0.05	-0.750			
0.1447	9258.88	3.9310	3.9308	-0.7721	25.98	0.05	-0.750			
0.1470	9409.78	3.9280	3.9280	-0.7756	25.99	0.06	-0.750			
0.1494	9559.97	3.9250	3.9253	-0.7792	25.99	0.06	-0.750			
0.1517	9708.38	3.9220	3.9220	-0.7813	25.99	0.06	-0.750			
0.1540	9858.72	3.9190	3.9189	-0.7847	26.00	0.07	-0.750			
0.1564	10008.26	3.9160	3.9159	-0.7811	26.00	0.07	-0.750			
0.1587	10159.80	3.9130	3.9130	-0.7868	26.00	0.07	-0.750			
0.1611	10311.12	3.9100	3.9100	-0.7867	26.01	0.08	-0.750			
0.1635	10462.23	3.9070	3.9069	-0.7866	26.01	0.08	-0.750			
0.1658	10611.67	3.9040	3.9040	-0.7858	26.01	0.08	-0.750			
0.1682	10762.41	3.9010	3.9009	-0.7887	26.01	0.08	-0.750			
0.1705	10913.81	3.8980	3.8980	-0.7881	26.01	0.08	-0.750			
0.1729	11066.94	3.8950	3.8949	-0.7945	26.01	0.08	-0.750			
0.1753	11218.89	3.8920	3.8922	-0.7932	26.01	0.08	-0.750			
0.1777	11371.36	3.8890	3.8890	-0.7966	26.01	0.08	-0.750			
0.1801	11524.74	3.8860	3.8859	-0.8002	26.01	0.08	-0.750			
0.1825	11679.64	3.8830	3.8830	-0.7969	26.02	0.09	-0.750			
0.1849	11833.22	3.8800	3.8800	-0.7973	26.02	0.09	-0.750			
0.1873	11987.27	3.8770	3.8771	-0.8016	26.02	0.09	-0.750			
0.1897	12139.46	3.8740	3.8740	-0.8000	26.02	0.09	-0.750			
0.1921	12293.27	3.8710	3.8709	-0.8027	26.02	0.09	-0.750			
0.1945	12447.82	3.8680	3.8680	-0.7994	26.03	0.10	-0.750			
0.1969	12604.25	3.8650	3.8650	-0.7999	26.03	0.10	-0.750			
0.1993	12757.16	3.8620	3.8623	-0.7965	26.03	0.10	-0.750			
0.2017	12910.46	3.8590	3.8589	-0.7882	26.04	0.11	-0.750			
0.2040	13059.08	3.8560	3.8560	-0.7859	26.04	0.11	-0.750			
0.2064	13207.03	3.8530	3.8530	-0.7845	26.05	0.12	-0.750			
0.2087	13359.13	3.8500	3.8500	-0.7935	26.05	0.12	-0.750			
0.2111	13511.68	3.8470	3.8470	-0.7957	26.06	0.13	-0.750			
0.2135	13666.05	3.8440	3.8441	-0.8028	26.06	0.13	-0.750			
0.2159	13819.58	3.8410	3.8410	-0.8040	26.06	0.13	-0.750			
0.2184	13976.19	3.8380	3.8381	-0.8016	26.07	0.14	-0.750			
0.2208	14129.12	3.8350	3.8350	-0.7975	26.07	0.14	-0.750			
0.2232	14282.80	3.8320	3.8320	-0.7967	26.07	0.14	-0.750			
0.2256	14435.67	3.8290	3.8290	-0.7936	26.07	0.14	-0.750			
0.2279	14585.86	3.8260	3.8260	-0.7980	26.08	0.15	-0.750			
0.2303	14738.82	3.8230	3.8230	-0.7968	26.08	0.15	-0.750			
0.2327	14893.88	3.8200	3.8199	-0.7921	26.08	0.15	-0.750			
0.2351	15047.97	3.8170	3.8169	-0.7886	26.09	0.16	-0.750			
0.2375	15197.98	3.8140	3.8142	-0.7850	26.09	0.16	-0.750			
0.2398	15348.97	3.8110	3.8110	-0.7759	26.09	0.16	-0.750			
0.2421	15495.65	3.8080	3.8079	-0.7722	26.10	0.17	-0.750			
0.2444	15642.46	3.8050	3.8050	-0.7660	26.10	0.17	-0.750			
0.2467	15790.62	3.8020	3.8020	-0.7642	26.11	0.18	-0.750			
0.2490	15936.88	3.7990	3.7990	-0.7614	26.11	0.18	-0.750			
0.2513	16082.50	3.7960	3.7960	-0.7594	26.11	0.18	-0.750			
0.2535	16226.60	3.7930	3.7929	-0.7583	26.12	0.19	-0.750			
0.2558	16373.16	3.7900	3.7899	-0.7565	26.12	0.19	-0.750			
0.2581	16516.85	3.7870	3.7871	-0.7525	26.12	0.19	-0.750			
0.2604	16662.69	3.7840	3.7840	-0.7569	26.13	0.20	-0.750			
0.2626	16808.23	3.7810	3.7811	-0.7533	26.13	0.20	-0.750			
0.2649	16951.20	3.7780	3.7780	-0.7521	26.13	0.20	-0.750			
0.2671	17095.91	3.7750	3.7750	-0.7516	26.13	0.20	-0.750			
0.2694	17240.66	3.7720	3.7719	-0.7500	26.14	0.21	-0.750			
0.2717	17386.13	3.7690	3.7690	-0.7494	26.14	0.21	-0.750			
0.2739	17529.77	3.7660	3.7658	-0.7433	26.14	0.21	-0.750			
0.2761	17671.41	3.7630	3.7630	-0.7391	26.14	0.21	-0.750			
0.2783	17813.28	3.7600	3.7600	-0.7378	26.14	0.21	-0.750			
0.2805	17952.78	3.7570	3.7570	-0.7378	26.14	0.21	-0.750			
0.2827	18094.16	3.7540	3.7540	-0.7362	26.15	0.22	-0.750			
0.2849	18236.75	3.7510	3.7509	-0.7440	26.15	0.22	-0.750			
0.2872	18379.80	3.7480	3.7483	-0.7480	26.15	0.22	-0.750			
0.2894	18524.74	3.7450	3.7449	-0.7533	26.15	0.22	-0.750			
0.2917	18668.77	3.7420	3.7420	-0.7608	26.15	0.22	-0.750			
0.2940	18813.79	3.7390	3.7390	-0.7683	26.15	0.22	-0.750			
0.2963	18963.27	3.7360	3.7360	-0.7858	26.15	0.22	-0.750			
0.2987	19114.89	3.7330	3.7330	-0.7956	26.15	0.22	-0.750			
0.3011	19268.21	3.7300	3.7299	-0.8062	26.15	0.22	-0.750			
0.3035	19425.06	3.7270	3.7270	-0.8220	26.16	0.23	-0.750			
0.3060	19584.80	3.7240	3.7240	-0.8339	26.16	0.23	-0.750			
0.3085	19745.30	3.7210	3.7210	-0.8442	26.16	0.23	-0.750			
0.3111	19909.15	3.7180	3.7180	-0.8543	26.17	0.24	-0.750			
0.3137	20073.74	3.7150	3.7150	-0.8661	26.17	0.24	-0.750			
0.3163	20240.64	3.7120	3.7120	-0.8825	26.17	0.24	-0.750			
0.3189	20410.53	3.7090	3.7089	-0.8982	26.17	0.24	-0.750			
0.3217	20585.68	3.7060	3.7060	-0.8996	26.17	0.24	-0.750			
0.3244	20761.43	3.7030	3.7029	-0.9072	26.17	0.24	-0.750			
0.3271	20934.68	3.7000	3.7002	-0.9266	26.17	0.24	-0.750			
0.3299	21112.90	3.6970	3.6968	-0.9462	26.17	0.24	-0.750			
0.3327	21293.36	3.6940	3.6938	-0.9626	26.16	0.23	-0.750			
0.3356	21480.76	3.6910	3.6910	-0.9791	26.16	0.23	-0.750			
0.3386	21670.87	3.6880	3.6882	-1.0074	26.16	0.23	-0.750			
0.3417	21869.56	3.6850	3.6850	-1.0333	26.16	0.23	-0.750			
0.3448	22069.06	3.6820	3.6819	-1.0538	26.15	0.22	-0.750			
0.3480	22271.04	3.6790	3.6789	-1.0641	26.15	0.22	-0.750			
0.3512	22478.82	3.6760	3.6761	-1.0879	26.15	0.22	-0.750			
0.3545	22690.86	3.6730	3.6730	-1.1112	26.14	0.21	-0.750			
0.3579	22905.61	3.6700	3.6698	-1.1357	26.14	0.21	-0.750			
0.3613	23122.21	3.6670	3.6671	-1.1569	26.13	0.20	-0.750			
0.3648	23348.43	3.6640	3.6639	-1.1774	26.13	0.20	-0.750			
0.3684	23575.73	3.6610	3.6610	-1.2073	26.12	0.19	-0.750			
0.3720	23810.29	3.6580	3.6581	-1.2379	26.11	0.18	-0.750			
0.3758	24048.22	3.6550	3.6550	-1.2648	26.11	0.18	-0.750			
0.3797	24297.98	3.6520	3.6520	-1.2796	26.10	0.17	-0.750			
0.3835	24545.92	3.6490	3.6489	-1.2983	26.10	0.17	-0.750			
0.3874	24796.59	3.6460	3.6463	-1.3236	26.09	0.16	-0.750			
0.3915	25054.59	3.6430	3.6429	-1.3472	26.09	0.16	-0.750			
0.3955	25309.91	3.6400	3.6399	-1.3650	26.08	0.15	-0.750			
0.3996	25576.29	3.6370	3.6369	-1.4004	26.08	0.15	-0.750			
0.4039	25847.41	3.6340	3.6340	-1.4344	26.08	0.15	-0.750			
0.4083	26129.71	3.6310	3.6310	-1.4636	26.07	0.14	-0.750			
0.4128	26416.01	3.6280	3.6281	-1.4892	26.07	0.14	-0.750			
0.4172	26702.52	3.6250	3.6252	-1.5170	26.06	0.13	-0.750			
0.4218	26994.29	3.6220	3.6219	-1.5482	26.05	0.12	-0.750			
0.4265	27296.51	3.6190	3.6190	-1.5642	26.05	0.12	-0.750			
0.4312	27599.74	3.6160	3.6159	-1.5971	26.04	0.11	-0.750			
0.4360	27905.13	3.6130	3.6130	-1.6367	26.03	0.10	-0.750	0.417	0.566	
0.4410	28224.21	3.6100	3.6100	-1.6643	26.03	0.10	-0.750			
0.4461	28552.14	3.6070	3.6071	-1.7081	26.03	0.10	-0.750			
0.4513	28882.43	3.6040	3.6040	-1.7347	26.03	0.10	-0.750			
0.4565	29218.95	3.6010	3.6011	-1.7711	26.02	0.09	-0.750			
0.4620	29567.13	3.5980	3.5982	-1.8210	26.01	0.08	-0.750			
0.4674	29913.99	3.5950	3.5951	-1.8471	26.00	0.07	-0.750			
0.4730	30272.37	3.5920	3.5920	-1.9048	25.99	0.06	-0.750			
0.4788	30645.60	3.5890	3.5891	-1.9322	25.99	0.06	-0.750			
0.4848	31025.16	3.5860	3.5859	-1.9643	25.99	0.06	-0.750			
0.4906	31399.65	3.5830	3.5832	-1.9915	25.99	0.06	-0.750			
0.4966	31785.41	3.5800	3.5798	-2.0177	25.99	0.06	-0.750			
0.5027	32173.83	3.5770	3.5770	-2.0330	25.99	0.06	-0.750			
0.5088	32565.92	3.5740	3.5741	-2.0700	25.98	0.05	-0.750			
0.5151	32964.60	3.5710	3.5711	-2.1256	25.98	0.05	-0.750			
0.5216	33382.91	3.5680	3.5679	-2.1334	25.97	0.04	-0.750			
0.5281	33798.79	3.5650	3.5649	-2.1615	25.97	0.04	-0.750			
0.5346	34216.60	3.5620	3.5622	-2.1526	25.97	0.04	-0.750			
0.5412	34635.56	3.5590	3.5589	-2.1641	25.97	0.04	-0.750			
0.5477	35049.61	3.5560	3.5561	-2.1590	25.96	0.03	-0.750			
0.5540	35456.05	3.5530	3.5529	-2.1562	25.96	0.03	-0.750			
0.5605	35873.81	3.5500	3.5500	-2.1489	25.96	0.03	-0.750			
0.5670	36290.02	3.5470	3.5470	-2.1476	25.96	0.03	-0.750			
0.5735	36706.00	3.5440	3.5440	-2.1537	25.97	0.04	-0.750			
0.5801	37123.55	3.5410	3.5406	-2.1153	25.97	0.04	-0.750			
0.5863	37522.34	3.5380	3.5383	-2.1001	25.97	0.04	-0.750			
0.5926	37927.06	3.5350	3.5350	-2.0641	25.98	0.05	-0.750			
0.5988	38323.09	3.5320	3.5321	-2.0387	25.99	0.06	-0.750			
0.6048	38710.09	3.5290	3.5290	-2.0000	25.99	0.06	-0.750			
0.6108	39089.36	3.5260	3.5259	-1.9812	26.00	0.07	-0.750			
0.6167	39467.49	3.5230	3.5230	-1.9433	26.00	0.07	-0.750			
0.6225	39842.35	3.5200	3.5199	-1.9027	26.01	0.08	-0.750			
0.6282	40201.75	3.5170	3.5170	-1.8580	26.02	0.09	-0.750			
0.6338	40560.72	3.5140	3.5139	-1.8177	26.02	0.09	-0.750			
0.6391	40905.31	3.5110	3.5109	-1.7593	26.04	0.11	-0.750			
0.6443	41237.42	3.5080	3.5081	-1.7155	26.05	0.12	-0.750			
0.6494	41563.87	3.5050	3.5050	-1.6642	26.06	0.13	-0.750			
0.6544	41884.18	3.5020	3.5020	-1.6114	26.07	0.14	-0.750			
0.6592	42187.78	3.4990	3.4988	-1.5688	26.08	0.15	-0.750			
0.6637	42479.33	3.4960	3.4960	-1.5091	26.10	0.17	-0.750			
0.6682	42767.65	3.4930	3.4929	-1.4643	26.11	0.18	-0.750			
0.6725	43039.52	3.4900	3.4899	-1.4192	26.13	0.20	-0.750			
0.6767	43308.74	3.4870	3.4870	-1.3659	26.15	0.22	-0.750			
0.6808	43571.34	3.4840	3.4839	-1.3323	26.17	0.24	-0.750			
0.6847	43820.63	3.4810	3.4809	-1.2914	26.18	0.25	-0.750			
0.6885	44060.81	3.4780	3.4781	-1.2491	26.20	0.27	-0.750			
0.6922	44303.29	3.4750	3.4748	-1.2105	26.21	0.28	-0.750			
0.6958	44532.29	3.4720	3.4720	-1.1704	26.23	0.30	-0.750			
0.6992	44750.04	3.4690	3.4693	-1.1280	26.24	0.31	-0.750			
0.7026	44965.75	3.4660	3.4659	-1.0990	26.25	0.32	-0.750			
0.7058	45169.46	3.4630	3.4628	-1.0572	26.27	0.34	-0.750			
0.7089	45367.31	3.4600	3.4601	-1.0235	26.28	0.35	-0.750			
0.7119	45563.46	3.4570	3.4570	-1.0025	26.29	0.36	-0.750			
0.7149	45751.39	3.4540	3.4540	-0.9790	26.30	0.37	-0.750			
0.7177	45936.00	3.4510	3.4509	-0.9457	26.32	0.39	-0.750			
0.7205	46114.83	3.4480	3.4480	-0.9208	26.33	0.40	-0.750			
0.7233	46289.32	3.4450	3.4450	-0.8977	26.34	0.41	-0.750			
0.7259	46458.91	3.4420	3.4419	-0.8791	26.36	0.43	-0.750			
0.7285	46624.74	3.4390	3.4390	-0.8700	26.37	0.44	-0.750			
0.7310	46787.11	3.4360	3.4359	-0.8585	26.39	0.46	-0.750			
0.7336	46948.30	3.4330	3.4330	-0.8553	26.40	0.47	-0.750			
0.7362	47113.96	3.4300	3.4299	-0.8653	26.42	0.49	-0.750			
0.7387	47279.03	3.4270	3.4270	-0.8751	26.43	0.50	-0.750			
0.7414	47448.39	3.4240	3.4239	-0.8871	26.43	0.50	-0.750			
0.7440	47618.23	3.4210	3.4211	-0.8997	26.44	0.51	-0.750			
0.7468	47792.44	3.4180	3.4180	-0.9109	26.45	0.52	-0.750			
0.7496	47972.28	3.4150	3.4150	-0.9241	26.46	0.53	-0.750			
0.7524	48151.19	3.4120	3.4120	-0.9313	26.47	0.54	-0.750			
0.7552	48331.52	3.4090	3.4090	-0.9296	26.48	0.55	-0.750			
0.7580	48510.37	3.4060	3.4059	-0.9239	26.49	0.56	-0.750			
0.7608	48689.14	3.4030	3.4030	-0.9147	26.50	0.57	-0.750			
0.7635	48863.99	3.4000	3.4000	-0.8959	26.50	0.57	-0.750			
0.7662	49035.24	3.3970	3.3970	-0.8786	26.51	0.58	-0.750			
0.7688	49202.83	3.3940	3.3940	-0.8597	26.52	0.59	-0.750			
0.7713	49365.99	3.3910	3.3910	-0.8320	26.53	0.60	-0.750			
0.7738	49524.52	3.3880	3.3879	-0.8054	26.54	0.61	-0.750			
0.7762	49676.29	3.3850	3.3850	-0.7797	26.55	0.62	-0.750			
0.7785	49823.37	3.3820	3.3820	-0.7527	26.55	0.62	-0.750			
0.7807	49965.67	3.3790	3.3789	-0.7279	26.56	0.63	-0.750			
0.7828	50101.62	3.3760	3.3760	-0.6998	26.57	0.64	-0.750			
0.7849	50232.90	3.3730	3.3730	-0.6775	26.57	0.64	-0.750			
0.7869	50361.83	3.3700	3.3702	-0.6571	26.58	0.65	-0.750			
0.7888	50485.97	3.3670	3.3669	-0.6327	26.59	0.66	-0.750			
0.7907	50604.06	3.3640	3.3640	-0.6099	26.59	0.66	-0.750			
0.7925	50718.92	3.3610	3.3611	-0.5874	26.60	0.67	-0.750			
0.7942	50830.41	3.3580	3.3579	-0.5725	26.60	0.67	-0.750			
0.7959	50937.72	3.3550	3.3550	-0.5512	26.61	0.68	-0.750			
0.7975	51041.14	3.3520	3.3519	-0.5318	26.61	0.68	-0.750			
0.7991	51141.76	3.3490	3.3491	-0.5145	26.62	0.69	-0.750			
0.8006	51239.05	3.3460	3.3459	-0.4973	26.63	0.70	-0.750			
0.8021	51332.19	3.3430	3.3430	-0.4789	26.63	0.70	-0.750			
0.8035	51422.13	3.3400	3.3400	-0.4651	26.64	0.71	-0.750			
0.8048	51508.43	3.3370	3.3371	-0.4469	26.65	0.72	-0.750			
0.8062	51593.64	3.3340	3.3340	-0.4354	26.65	0.72	-0.750			
0.8074	51675.61	3.3310	3.3310	-0.4240	26.66	0.73	-0.750			
0.8087	51756.21	3.3280	3.3281	-0.4106	26.66	0.73	-0.750			
0.8099	51833.99	3.3250	3.3249	-0.3964	26.67	0.74	-0.750			
0.8111	51908.89	3.3220	3.3220	-0.3843	26.68	0.75	-0.750			
0.8122	51981.09	3.3190	3.3192	-0.3726	26.68	0.75	-0.750			
0.8133	52051.38	3.3160	3.3159	-0.3627	26.69	0.76	-0.750			
0.8144	52118.96	3.3130	3.3130	-0.3523	26.70	0.77	-0.750			
0.8154	52185.10	3.3100	3.3101	-0.3438	26.70	0.77	-0.750			
0.8164	52251.35	3.3070	3.3070	-0.3369	26.71	0.78	-0.750			
0.8174	52315.52	3.3040	3.3039	-0.3264	26.71	0.78	-0.750			
0.8184	52376.74	3.3010	3.3011	-0.3186	26.72	0.79	-0.750			
0.8193	52436.90	3.2980	3.2980	-0.3127	26.73	0.80	-0.750			
0.8203	52496.30	3.2950	3.2949	-0.3049	26.73	0.80	-0.750			
0.8212	52554.09	3.2920	3.2920	-0.2990	26.74	0.81	-0.750			
0.8220	52610.75	3.2890	3.2890	-0.2923	26.74	0.81	-0.750			
0.8229	52666.74	3.2860	3.2860	-0.2862	26.75	0.82	-0.750			
0.8238	52721.32	3.2830	3.2829	-0.2806	26.76	0.83	-0.750			
0.8246	52773.72	3.2800	3.2801	-0.2727	26.76	0.83	-0.750			
0.8254	52825.06	3.2770	3.2770	-0.2665	26.77	0.84	-0.750			
0.8262	52875.92	3.2740	3.2740	-0.2630	26.77	0.84	-0.750			
0.8270	52926.09	3.2710	3.2710	-0.2577	26.78	0.85	-0.750			
0.8277	52974.75	3.2680	3.2680	-0.2543	26.79	0.86	-0.750			
0.8285	53023.39	3.2650	3.2650	-0.2491	26.79	0.86	-0.750			
0.8292	53070.71	3.2620	3.2620	-0.2454	26.80	0.87	-0.750			
0.8300	53117.46	3.2590	3.2590	-0.2406	26.80	0.87	-0.750			
0.8307	53163.32	3.2560	3.2561	-0.2361	26.81	0.88	-0.750			
0.8314	53208.09	3.2530	3.2529	-0.2314	26.82	0.89	-0.750			
0.8321	53251.98	3.2500	3.2500	-0.2283	26.82	0.89	-0.750			
0.8327	53294.93	3.2470	3.2471	-0.2235	26.83	0.90	-0.750			
0.8334	53337.60	3.2440	3.2439	-0.2210	26.83	0.90	-0.750			
0.8341	53380.02	3.2410	3.2409	-0.2188	26.84	0.91	-0.750			
0.8347	53421.41	3.2380	3.2380	-0.2149	26.84	0.91	-0.750			
0.8354	53462.79	3.2350	3.2350	-0.2133	26.85	0.92	-0.750			
0.8360	53503.42	3.2320	3.2320	-0.2102	26.85	0.92	-0.750			
0.8366	53543.55	3.2290	3.2290	-0.2072	26.86	0.93	-0.750			
0.8372	53582.80	3.2260	3.2260	-0.2042	26.86	0.93	-0.750			
0.8378	53621.81	3.2230	3.2231	-0.2016	26.87	0.94	-0.750			
0.8384	53660.33	3.2200	3.2199	-0.1988	26.87	0.94	-0.750			
0.8390	53698.22	3.2170	3.2170	-0.1960	26.88	0.95	-0.750			
0.8396	53735.68	3.2140	3.2140	-0.1937	26.88	0.95	-0.750			
0.8402	53772.39	3.2110	3.2110	-0.1909	26.89	0.96	-0.750			
0.8408	53808.77	3.2080	3.2080	-0.1884	26.89	0.96	-0.750			
0.8413	53844.70	3.2050	3.2049	-0.1863	26.90	0.97	-0.750			
0.8419	53880.10	3.2020	3.2020	-0.1841	26.90	0.97	-0.750			
0.8424	53915.10	3.1990	3.1990	-0.1827	26.91	0.98	-0.750			
0.8430	53950.05	3.1960	3.1960	-0.1814	26.91	0.98	-0.750			
0.8435	53984.79	3.1930	3.1929	-0.1795	26.92	0.99	-0.750			
0.8441	54019.23	3.1900	3.1900	-0.1770	26.92	0.99	-0.750			
0.8446	54053.21	3.1870	3.1870	-0.1749	26.93	1.00	-0.750			
0.8451	54086.55	3.1840	3.1841	-0.1723	26.93	1.00	-0.750			
0.8456	54119.47	3.1810	3.1810	-0.1701	26.94	1.01	-0.750			
0.8461	54151.54	3.1780	3.1779	-0.1684	26.94	1.01	-0.750			
0.8466	54183.25	3.1750	3.1751	-0.1662	26.94	1.01	-0.750			
0.8471	54215.19	3.1720	3.1719	-0.1648	26.95	1.02	-0.750			
0.8476	54246.65	3.1690	3.1690	-0.1639	26.95	1.02	-0.750			
0.8481	54278.16	3.1660	3.1662	-0.1629	26.96	1.03	-0.750			
0.8486	54309.40	3.1630	3.1629	-0.1618	26.96	1.03	-0.750			
0.8491	54340.46	3.1600	3.1600	-0.1596	26.97	1.04	-0.750			
0.8495	54371.06	3.1570	3.1571	-0.1578	26.98	1.05	-0.750			
0.8500	54400.82	3.1540	3.1540	-0.1562	26.99	1.06	-0.750			
0.8505	54430.68	3.1510	3.1511	-0.1549	26.99	1.06	-0.750			
0.8509	54460.30	3.1480	3.1480	-0.1537	27.00	1.07	-0.750			
0.8514	54489.48	3.1450	3.1449	-0.1520	27.01	1.08	-0.750			
0.8519	54518.65	3.1420	3.1421	-0.1508	27.01	1.08	-0.750			
0.8523	54547.51	3.1390	3.1390	-0.1498	27.02	1.09	-0.750			
0.8528	54576.60	3.1360	3.1359	-0.1479	27.02	1.09	-0.750			
0.8532	54604.78	3.1330	3.1331	-0.1463	27.03	1.10	-0.750			
0.8536	54632.06	3.1300	3.1300	-0.1445	27.04	1.11	-0.750			
0.8541	54659.74	3.1270	3.1271	-0.1439	27.04	1.11	-0.750			
0.8545	54687.26	3.1240	3.1239	-0.1425	27.05	1.12	-0.750			
0.8549	54714.50	3.1210	3.1211	-0.1414	27.05	1.12	-0.750			
0.8553	54741.62	3.1180	3.1180	-0.1407	27.06	1.13	-0.750			
0.8558	54768.59	3.1150	3.1151	-0.1398	27.06	1.13	-0.750			
0.8562	54795.69	3.1120	3.1119	-0.1389	27.07	1.14	-0.750			
0.8566	54821.87	3.1090	3.1090	-0.1377	27.07	1.14	-0.750			
0.8570	54847.86	3.1060	3.1062	-0.1362	27.08	1.15	-0.750			
0.8574	54874.24	3.1030	3.1030	-0.1351	27.09	1.16	-0.750			
0.8578	54900.29	3.1000	3.0999	-0.1346	27.09	1.16	-0.750			
0.8582	54925.91	3.0970	3.0970	-0.1335	27.09	1.16	-0.750			
0.8586	54951.47	3.0940	3.0941	-0.1327	27.10	1.17	-0.750			
0.8590	54976.94	3.0910	3.0909	-0.1313	27.10	1.17	-0.750			
0.8594	55002.12	3.0880	3.0880	-0.1303	27.11	1.18	-0.750			
0.8598	55026.86	3.0850	3.0850	-0.1286	27.11	1.18	-0.750			
0.8602	55051.36	3.0820	3.0821	-0.1279	27.12	1.19	-0.750			
0.8606	55076.07	3.0790	3.0790	-0.1272	27.12	1.19	-0.750			
0.8609	55100.22	3.0760	3.0759	-0.1256	27.13	1.20	-0.750			
0.8613	55124.07	3.0730	3.0730	-0.1247	27.13	1.20	-0.750			
0.8617	55147.97	3.0700	3.0700	-0.1242	27.14	1.21	-0.750			
0.8621	55171.98	3.0670	3.0671	-0.1236	27.14	1.21	-0.750			
0.8624	55195.61	3.0640	3.0640	-0.1226	27.15	1.22	-0.750			
0.8628	55219.02	3.0610	3.0609	-0.1219	27.15	1.22	-0.750			
0.8632	55242.21	3.0580	3.0580	-0.1208	27.16	1.23	-0.750			
0.8635	55265.18	3.0550	3.0551	-0.1206	27.16	1.23	-0.750			
0.8639	55288.34	3.0520	3.0519	-0.1204	27.17	1.24	-0.750			
0.8642	55311.52	3.0490	3.0490	-0.1198	27.18	1.25	-0.750			
0.8646	55334.28	3.0460	3.0459	-0.1191	27.18	1.25	-0.750			
0.8650	55357.35	3.0430	3.0430	-0.1182	27.19	1.26	-0.750			
0.8653	55380.34	3.0400	3.0401	-0.1180	27.19	1.26	-0.750			
0.8657	55402.91	3.0370	3.0369	-0.1166	27.20	1.27	-0.750			
0.8660	55425.37	3.0340	3.0339	-0.1155	27.20	1.27	-0.750			
0.8664	55447.04	3.0310	3.0312	-0.1151	27.21	1.28	-0.750			
0.8667	55468.67	3.0280	3.0279	-0.1138	27.22	1.29	-0.750			
0.8670	55490.74	3.0250	3.0251	-0.1127	27.22	1.29	-0.750			
0.8674	55512.31	3.0220	3.0218	-0.1119	27.23	1.30	-0.750			
0.8677	55533.83	3.0190	3.0191	-0.1106	27.23	1.30	-0.750			
0.8680	55555.19	3.0160	3.0160	-0.1098	27.24	1.31	-0.750			
0.8684	55575.97	3.0130	3.0133	-0.1093	27.24	1.31	-0.750			
0.8687	55596.94	3.0100	3.0098	-0.1084	27.25	1.32	-0.751			
0.8690	55617.65	3.0070	3.0069	-0.1073	27.25	1.32	-0.751			
0.8693	55637.56	3.0040	3.0040	-0.1096	27.26	1.33	-0.751			
0.8697	55658.78	3.0010	3.0010	-0.1114	27.26	1.33	-0.751			
