Ah_balance (normalized)	Ah_balance (mAh)	Voltage - fit (V)	Voltage -  interpolate (V)	dQ/dV (1/V)	Temperature (°C)	Temperature - diff (°C)	Current (C)	R_DC 0ms (mOhm)	R_DC 50ms (mOhm)	R_DC 50 ms PEC (mOhm)
0.0592	3788.45	4.1990	4.1989	0.7479	25.97	0.06	0.750			
0.0615	3932.99	4.1960	4.1961	0.7521	25.97	0.06	0.750			
0.0637	4077.54	4.1930	4.1930	0.7453	25.97	0.06	0.750			
0.0659	4218.87	4.1900	4.1900	0.7358	25.97	0.06	0.750			
0.0681	4358.60	4.1870	4.1871	0.7263	25.97	0.06	0.750			
0.0702	4494.46	4.1840	4.1841	0.7319	25.97	0.06	0.750			
0.0724	4635.03	4.1810	4.1809	0.7347	25.97	0.06	0.750			
0.0746	4777.42	4.1780	4.1780	0.7356	25.97	0.06	0.750			
0.0769	4920.76	4.1750	4.1749	0.7396	25.96	0.05	0.750			
0.0791	5062.94	4.1720	4.1723	0.7437	25.96	0.05	0.750			
0.0814	5206.51	4.1690	4.1690	0.7469	25.96	0.05	0.750			
0.0836	5348.99	4.1660	4.1659	0.7463	25.95	0.04	0.750			
0.0858	5491.35	4.1630	4.1631	0.7461	25.95	0.04	0.750			
0.0880	5634.82	4.1600	4.1601	0.7542	25.95	0.04	0.750			
0.0903	5780.20	4.1570	4.1570	0.7541	25.95	0.04	0.750			
0.0926	5924.61	4.1540	4.1540	0.7574	25.95	0.04	0.750			
0.0948	6069.36	4.1510	4.1510	0.7574	25.95	0.04	0.750			
0.0971	6215.45	4.1480	4.1476	0.7575	25.95	0.04	0.750			
0.0994	6361.25	4.1450	4.1452	0.7594	25.95	0.04	0.750			
0.1017	6508.82	4.1420	4.1420	0.7521	25.95	0.04	0.750			
0.1039	6652.71	4.1390	4.1389	0.7533	25.95	0.04	0.750			
0.1062	6797.54	4.1360	4.1361	0.7551	25.95	0.04	0.750			
0.1084	6938.48	4.1330	4.1329	0.7506	25.95	0.04	0.750			
0.1107	7083.61	4.1300	4.1301	0.7560	25.95	0.04	0.750			
0.1130	7229.50	4.1270	4.1270	0.7575	25.95	0.04	0.750			
0.1152	7374.56	4.1240	4.1240	0.7608	25.95	0.04	0.750			
0.1175	7522.01	4.1210	4.1210	0.7654	25.96	0.05	0.750			
0.1198	7668.73	4.1180	4.1180	0.7644	25.96	0.05	0.750			
0.1221	7816.05	4.1150	4.1147	0.7642	25.96	0.05	0.750			
0.1244	7962.42	4.1120	4.1121	0.7651	25.96	0.05	0.750			
0.1267	8110.50	4.1090	4.1090	0.7633	25.96	0.05	0.750			
0.1290	8256.36	4.1060	4.1060	0.7674	25.97	0.06	0.750			
0.1313	8402.89	4.1030	4.1030	0.7674	25.97	0.06	0.750			
0.1336	8549.00	4.1000	4.1001	0.7736	25.97	0.06	0.750			
0.1359	8699.16	4.0970	4.0970	0.7782	25.97	0.06	0.750			
0.1383	8849.70	4.0940	4.0940	0.7830	25.97	0.06	0.750			
0.1406	9000.42	4.0910	4.0911	0.7853	25.97	0.06	0.750			
0.1430	9152.87	4.0880	4.0880	0.7874	25.97	0.06	0.750			
0.1454	9302.64	4.0850	4.0849	0.7840	25.97	0.06	0.750			
0.1477	9452.82	4.0820	4.0820	0.7864	25.97	0.06	0.750			
0.1500	9603.08	4.0790	4.0790	0.7871	25.97	0.06	0.750			
0.1524	9756.60	4.0760	4.0760	0.7851	25.98	0.07	0.750			
0.1548	9905.27	4.0730	4.0730	0.7876	25.98	0.07	0.750			
0.1571	10055.81	4.0700	4.0701	0.7921	25.99	0.08	0.750			
0.1595	10208.29	4.0670	4.0668	0.7987	25.99	0.08	0.750			
0.1619	10362.63	4.0640	4.0640	0.7977	25.99	0.08	0.750			
0.1643	10517.46	4.0610	4.0611	0.7934	25.99	0.08	0.750			
0.1667	10670.37	4.0580	4.0581	0.8005	26.00	0.09	0.750			
0.1691	10822.84	4.0550	4.0550	0.8082	26.00	0.09	0.750			
0.1715	10974.70	4.0520	4.0519	0.8040	26.00	0.09	0.750			
0.1739	11130.88	4.0490	4.0490	0.8095	26.00	0.09	0.750			
0.1764	11288.11	4.0460	4.0460	0.8112	26.00	0.09	0.750			
0.1788	11445.27	4.0430	4.0432	0.8171	26.01	0.10	0.750			
0.1813	11603.20	4.0400	4.0400	0.8215	26.01	0.10	0.750			
0.1837	11758.40	4.0370	4.0370	0.8172	26.01	0.10	0.750			
0.1862	11916.08	4.0340	4.0340	0.8176	26.01	0.10	0.750			
0.1887	12075.33	4.0310	4.0310	0.8170	26.01	0.10	0.750			
0.1911	12230.85	4.0280	4.0281	0.8229	26.02	0.11	0.750			
0.1936	12388.89	4.0250	4.0251	0.8290	26.02	0.11	0.750			
0.1960	12546.47	4.0220	4.0219	0.8286	26.02	0.11	0.750			
0.1985	12706.95	4.0190	4.0191	0.8375	26.02	0.11	0.750			
0.2011	12871.38	4.0160	4.0160	0.8367	26.02	0.11	0.750			
0.2036	13032.37	4.0130	4.0130	0.8400	26.03	0.12	0.750			
0.2062	13194.50	4.0100	4.0101	0.8424	26.03	0.12	0.750			
0.2087	13354.38	4.0070	4.0069	0.8360	26.03	0.12	0.750			
0.2112	13514.49	4.0040	4.0040	0.8354	26.03	0.12	0.750			
0.2137	13675.00	4.0010	4.0011	0.8298	26.04	0.13	0.750			
0.2161	13832.50	3.9980	3.9981	0.8342	26.04	0.13	0.750			
0.2187	13994.87	3.9950	3.9950	0.8456	26.04	0.13	0.750			
0.2212	14155.55	3.9920	3.9920	0.8408	26.05	0.14	0.750			
0.2237	14317.46	3.9890	3.9891	0.8484	26.05	0.14	0.750			
0.2263	14484.20	3.9860	3.9860	0.8484	26.05	0.14	0.750			
0.2289	14648.10	3.9830	3.9830	0.8442	26.05	0.14	0.750			
0.2314	14810.38	3.9800	3.9800	0.8412	26.05	0.14	0.750			
0.2339	14968.11	3.9770	3.9771	0.8355	26.05	0.14	0.750			
0.2364	15127.97	3.9740	3.9740	0.8386	26.05	0.14	0.750			
0.2389	15289.30	3.9710	3.9709	0.8402	26.05	0.14	0.750			
0.2414	15449.27	3.9680	3.9680	0.8415	26.05	0.14	0.750			
0.2440	15613.96	3.9650	3.9652	0.8501	26.05	0.14	0.750			
0.2465	15776.88	3.9620	3.9619	0.8544	26.05	0.14	0.750			
0.2491	15941.16	3.9590	3.9589	0.8558	26.05	0.14	0.750			
0.2516	16103.95	3.9560	3.9560	0.8564	26.05	0.14	0.750			
0.2542	16269.40	3.9530	3.9531	0.8609	26.05	0.14	0.750			
0.2568	16437.53	3.9500	3.9500	0.8641	26.05	0.14	0.750			
0.2594	16603.06	3.9470	3.9470	0.8632	26.05	0.14	0.750			
0.2620	16768.12	3.9440	3.9440	0.8623	26.05	0.14	0.750			
0.2646	16932.34	3.9410	3.9410	0.8622	26.04	0.13	0.750			
0.2672	17098.00	3.9380	3.9380	0.8658	26.04	0.13	0.750			
0.2697	17263.21	3.9350	3.9350	0.8703	26.03	0.12	0.750			
0.2724	17430.78	3.9320	3.9316	0.8786	26.03	0.12	0.750			
0.2750	17603.08	3.9290	3.9291	0.8788	26.03	0.12	0.750			
0.2777	17772.13	3.9260	3.9260	0.8783	26.03	0.12	0.750			
0.2803	17941.25	3.9230	3.9231	0.8837	26.02	0.11	0.750			
0.2830	18111.31	3.9200	3.9200	0.8827	26.02	0.11	0.750			
0.2856	18278.00	3.9170	3.9170	0.8831	26.02	0.11	0.750			
0.2882	18447.92	3.9140	3.9140	0.8825	26.02	0.11	0.750			
0.2909	18616.57	3.9110	3.9111	0.8888	26.02	0.11	0.750			
0.2936	18789.41	3.9080	3.9080	0.8939	26.01	0.10	0.750			
0.2963	18961.24	3.9050	3.9049	0.8940	26.01	0.10	0.750			
0.2989	19132.61	3.9020	3.9020	0.8952	26.01	0.10	0.750			
0.3017	19305.81	3.8990	3.8991	0.8976	26.00	0.09	0.750			
0.3043	19477.76	3.8960	3.8960	0.8982	26.00	0.09	0.750			
0.3070	19651.02	3.8930	3.8930	0.9013	25.99	0.08	0.750			
0.3097	19822.67	3.8900	3.8898	0.9001	25.99	0.08	0.750			
0.3125	19997.36	3.8870	3.8870	0.9002	25.99	0.08	0.750			
0.3151	20168.92	3.8840	3.8839	0.9036	25.98	0.07	0.750			
0.3178	20342.19	3.8810	3.8811	0.9066	25.98	0.07	0.750			
0.3206	20516.72	3.8780	3.8781	0.9081	25.97	0.06	0.750			
0.3233	20691.06	3.8750	3.8749	0.9107	25.97	0.06	0.750			
0.3260	20866.95	3.8720	3.8720	0.9087	25.96	0.05	0.750			
0.3288	21041.46	3.8690	3.8690	0.9074	25.95	0.04	0.750			
0.3315	21215.57	3.8660	3.8661	0.9093	25.94	0.03	0.750			
0.3342	21388.88	3.8630	3.8630	0.9092	25.93	0.02	0.750			
0.3370	21565.85	3.8600	3.8600	0.9087	25.93	0.02	0.750			
0.3397	21740.48	3.8570	3.8570	0.9103	25.92	0.01	0.750			
0.3424	21913.99	3.8540	3.8540	0.9162	25.92	0.01	0.750			
0.3452	22090.48	3.8510	3.8512	0.9257	25.91	0.00	0.750			
0.3479	22267.64	3.8480	3.8478	0.9289	25.91	-0.00	0.750			
0.3507	22447.68	3.8450	3.8450	0.9233	25.90	-0.01	0.750			
0.3535	22624.69	3.8420	3.8421	0.9351	25.90	-0.01	0.750			
0.3563	22805.07	3.8390	3.8391	0.9453	25.90	-0.01	0.750			
0.3592	22986.80	3.8360	3.8358	0.9533	25.89	-0.02	0.750			
0.3620	23170.19	3.8330	3.8331	0.9627	25.88	-0.03	0.750			
0.3649	23355.88	3.8300	3.8300	0.9688	25.87	-0.04	0.750			
0.3679	23544.86	3.8270	3.8270	0.9774	25.86	-0.05	0.750			
0.3709	23734.97	3.8240	3.8240	0.9770	25.85	-0.06	0.750			
0.3738	23922.98	3.8210	3.8210	0.9821	25.85	-0.06	0.750			
0.3767	24110.47	3.8180	3.8180	0.9891	25.84	-0.07	0.750			
0.3797	24299.97	3.8150	3.8150	1.0030	25.83	-0.08	0.750			
0.3827	24492.09	3.8120	3.8120	1.0214	25.83	-0.08	0.750			
0.3859	24694.43	3.8090	3.8090	1.0256	25.82	-0.09	0.750			
0.3889	24891.12	3.8060	3.8061	1.0427	25.81	-0.10	0.750			
0.3921	25092.94	3.8030	3.8030	1.0614	25.80	-0.11	0.750			
0.3953	25296.30	3.8000	3.8001	1.0801	25.79	-0.12	0.750			
0.3985	25505.11	3.7970	3.7970	1.0882	25.79	-0.12	0.750			
0.4018	25715.44	3.7940	3.7940	1.0934	25.78	-0.13	0.750			
0.4051	25926.47	3.7910	3.7911	1.1096	25.78	-0.13	0.750			
0.4085	26142.58	3.7880	3.7881	1.1270	25.77	-0.14	0.750			
0.4118	26355.82	3.7850	3.7854	1.1338	25.76	-0.15	0.750			
0.4152	26571.48	3.7820	3.7822	1.1613	25.75	-0.16	0.750			
0.4187	26797.94	3.7790	3.7790	1.1926	25.74	-0.17	0.750			
0.4224	27033.40	3.7760	3.7755	1.2254	25.73	-0.18	0.750	0.322	0.473	
0.4261	27269.05	3.7730	3.7732	1.2441	25.72	-0.19	0.750			
0.4299	27512.44	3.7700	3.7701	1.2758	25.71	-0.20	0.750			
0.4338	27764.16	3.7670	3.7669	1.2997	25.70	-0.21	0.750			
0.4377	28011.19	3.7640	3.7640	1.3113	25.69	-0.22	0.750			
0.4417	28266.67	3.7610	3.7610	1.3418	25.68	-0.23	0.750			
0.4458	28531.51	3.7580	3.7580	1.3647	25.67	-0.24	0.750			
0.4499	28794.99	3.7550	3.7550	1.3950	25.66	-0.25	0.750			
0.4541	29062.79	3.7520	3.7521	1.4250	25.65	-0.26	0.750			
0.4584	29339.32	3.7490	3.7489	1.4540	25.64	-0.27	0.750			
0.4628	29620.55	3.7460	3.7461	1.4928	25.64	-0.27	0.750			
0.4673	29909.05	3.7430	3.7429	1.5281	25.63	-0.28	0.750			
0.4720	30208.00	3.7400	3.7398	1.5624	25.62	-0.29	0.750			
0.4767	30509.54	3.7370	3.7370	1.6028	25.61	-0.30	0.750			
0.4816	30824.95	3.7340	3.7339	1.6407	25.60	-0.31	0.750			
0.4865	31138.04	3.7310	3.7311	1.6986	25.59	-0.32	0.750			
0.4918	31472.88	3.7280	3.7278	1.7462	25.57	-0.34	0.750			
0.4971	31811.84	3.7250	3.7249	1.7863	25.56	-0.35	0.750			
0.5025	32159.40	3.7220	3.7219	1.8424	25.55	-0.36	0.750			
0.5081	32516.13	3.7190	3.7192	1.9112	25.54	-0.37	0.750			
0.5139	32890.88	3.7160	3.7159	1.9425	25.53	-0.38	0.750			
0.5199	33272.83	3.7130	3.7130	2.0113	25.52	-0.39	0.750			
0.5259	33660.24	3.7100	3.7100	2.0621	25.52	-0.39	0.750			
0.5323	34069.30	3.7070	3.7067	2.1153	25.51	-0.40	0.750			
0.5387	34475.03	3.7040	3.7045	2.1906	25.51	-0.40	0.750			
0.5453	34898.73	3.7010	3.7010	2.2701	25.50	-0.41	0.750			
0.5522	35340.85	3.6980	3.6978	2.3251	25.49	-0.42	0.750			
0.5593	35796.30	3.6950	3.6951	2.3898	25.48	-0.43	0.750			
0.5667	36269.90	3.6920	3.6920	2.5048	25.48	-0.43	0.750			
0.5744	36762.41	3.6890	3.6890	2.5718	25.48	-0.43	0.750			
0.5821	37257.27	3.6860	3.6858	2.6476	25.46	-0.45	0.750			
0.5903	37781.42	3.6830	3.6832	2.7113	25.46	-0.45	0.750			
0.5987	38317.40	3.6800	3.6798	2.6858	25.47	-0.44	0.750			
0.6069	38841.81	3.6770	3.6770	2.5407	25.48	-0.43	0.750			
0.6145	39331.17	3.6740	3.6745	2.3841	25.48	-0.43	0.750			
0.6210	39747.12	3.6710	3.6711	2.1172	25.48	-0.43	0.750			
0.6269	40121.54	3.6680	3.6684	1.9072	25.49	-0.42	0.750			
0.6321	40454.90	3.6650	3.6653	1.7399	25.50	-0.41	0.750			
0.6370	40768.29	3.6620	3.6622	1.6060	25.51	-0.40	0.750			
0.6417	41069.76	3.6590	3.6590	1.5169	25.52	-0.39	0.750			
0.6462	41358.43	3.6560	3.6558	1.4260	25.52	-0.39	0.750			
0.6503	41618.00	3.6530	3.6533	1.3392	25.52	-0.39	0.750			
0.6542	41868.10	3.6500	3.6500	1.2709	25.53	-0.38	0.750			
0.6577	42091.71	3.6470	3.6471	1.2115	25.54	-0.37	0.750			
0.6613	42320.35	3.6440	3.6439	1.1729	25.54	-0.37	0.750			
0.6646	42531.68	3.6410	3.6411	1.1523	25.55	-0.36	0.750			
0.6680	42751.37	3.6380	3.6382	1.1509	25.55	-0.36	0.750			
0.6715	42974.62	3.6350	3.6348	1.1510	25.56	-0.35	0.750			
0.6749	43194.48	3.6320	3.6321	1.1506	25.56	-0.35	0.750			
0.6784	43415.22	3.6290	3.6291	1.1575	25.57	-0.34	0.750			
0.6818	43637.67	3.6260	3.6261	1.1678	25.58	-0.33	0.750			
0.6855	43869.99	3.6230	3.6228	1.1419	25.58	-0.33	0.750			
0.6889	44088.21	3.6200	3.6201	1.1299	25.58	-0.33	0.750			
0.6923	44305.14	3.6170	3.6171	1.1186	25.59	-0.32	0.750			
0.6956	44516.09	3.6140	3.6141	1.1073	25.59	-0.32	0.750			
0.6988	44724.27	3.6110	3.6110	1.0887	25.59	-0.32	0.750			
0.7020	44929.19	3.6080	3.6081	1.0932	25.60	-0.31	0.750			
0.7052	45133.87	3.6050	3.6051	1.1110	25.60	-0.31	0.750			
0.7086	45352.69	3.6020	3.6020	1.1412	25.61	-0.30	0.750			
0.7120	45570.24	3.5990	3.5990	1.1738	25.61	-0.30	0.750			
0.7156	45797.39	3.5960	3.5960	1.2124	25.61	-0.30	0.750			
0.7193	46037.06	3.5930	3.5931	1.2492	25.62	-0.29	0.750			
0.7231	46280.96	3.5900	3.5899	1.2969	25.62	-0.29	0.750			
0.7271	46533.45	3.5870	3.5871	1.3366	25.63	-0.28	0.750			
0.7311	46793.33	3.5840	3.5840	1.3694	25.63	-0.28	0.750			
0.7353	47060.87	3.5810	3.5810	1.4145	25.64	-0.27	0.750			
0.7397	47338.34	3.5780	3.5781	1.4336	25.64	-0.27	0.750			
0.7441	47620.41	3.5750	3.5750	1.4793	25.64	-0.27	0.750			
0.7485	47905.91	3.5720	3.5720	1.5215	25.64	-0.27	0.750			
0.7531	48200.77	3.5690	3.5689	1.5513	25.64	-0.27	0.750			
0.7579	48505.08	3.5660	3.5662	1.5847	25.64	-0.27	0.750			
0.7627	48815.21	3.5630	3.5631	1.6104	25.64	-0.27	0.750			
0.7676	49128.84	3.5600	3.5601	1.6301	25.65	-0.26	0.750			
0.7726	49445.64	3.5570	3.5570	1.6503	25.66	-0.25	0.750			
0.7775	49761.13	3.5540	3.5540	1.6531	25.66	-0.25	0.750			
0.7824	50075.33	3.5510	3.5509	1.6690	25.67	-0.24	0.750			
0.7874	50395.00	3.5480	3.5481	1.7141	25.68	-0.23	0.750			
0.7927	50729.81	3.5450	3.5451	1.7511	25.69	-0.22	0.750			
0.7981	51077.48	3.5420	3.5417	1.7434	25.70	-0.21	0.750			
0.8038	51443.82	3.5390	3.5389	1.6067	25.72	-0.19	0.750			
0.8086	51752.14	3.5360	3.5363	1.4123	25.73	-0.18	0.750			
0.8130	52032.27	3.5330	3.5336	1.1876	25.75	-0.16	0.750			
0.8162	52235.88	3.5300	3.5299	0.9116	25.77	-0.14	0.750			
0.8180	52353.10	3.5270	3.5268	0.6805	25.78	-0.13	0.750			
0.8195	52448.08	3.5240	3.5236	0.5193	25.79	-0.12	0.750			
0.8206	52517.12	3.5210	3.5208	0.4124	25.80	-0.11	0.750			
0.8216	52584.72	3.5180	3.5179	0.3691	25.81	-0.10	0.750			
0.8226	52646.29	3.5150	3.5151	0.3364	25.81	-0.10	0.750			
0.8236	52707.33	3.5120	3.5120	0.3202	25.81	-0.10	0.750			
0.8245	52766.61	3.5090	3.5090	0.3075	25.82	-0.09	0.750			
0.8254	52824.12	3.5060	3.5060	0.2973	25.83	-0.08	0.750			
0.8263	52880.56	3.5030	3.5030	0.2891	25.84	-0.07	0.750			
0.8271	52934.78	3.5000	3.5000	0.2816	25.84	-0.07	0.750			
0.8279	52987.93	3.4970	3.4969	0.2742	25.85	-0.06	0.750			
0.8287	53039.72	3.4940	3.4940	0.2666	25.86	-0.05	0.750			
0.8295	53090.38	3.4910	3.4911	0.2605	25.86	-0.05	0.750			
0.8303	53139.68	3.4880	3.4880	0.2552	25.87	-0.04	0.750			
0.8311	53188.31	3.4850	3.4850	0.2490	25.88	-0.03	0.750			
0.8318	53235.48	3.4820	3.4819	0.2420	25.88	-0.03	0.750			
0.8325	53281.12	3.4790	3.4789	0.2354	25.89	-0.02	0.750			
0.8332	53325.59	3.4760	3.4762	0.2312	25.90	-0.01	0.750			
0.8339	53369.25	3.4730	3.4729	0.2264	25.90	-0.01	0.750			
0.8346	53412.20	3.4700	3.4699	0.2219	25.91	-0.00	0.750			
0.8352	53453.94	3.4670	3.4669	0.2175	25.91	0.00	0.750			
0.8359	53495.23	3.4640	3.4641	0.2130	25.92	0.01	0.750			
0.8365	53536.67	3.4610	3.4610	0.2089	25.92	0.01	0.750			
0.8371	53576.95	3.4580	3.4579	0.2042	25.93	0.02	0.750			
0.8377	53615.60	3.4550	3.4551	0.1982	25.94	0.03	0.750			
0.8383	53652.68	3.4520	3.4522	0.1924	25.94	0.03	0.750			
0.8389	53689.24	3.4490	3.4489	0.1867	25.95	0.04	0.750			
0.8394	53724.52	3.4460	3.4459	0.1808	25.95	0.04	0.750			
0.8400	53758.44	3.4430	3.4430	0.1754	25.95	0.04	0.750			
0.8405	53791.56	3.4400	3.4401	0.1701	25.96	0.05	0.750			
0.8410	53823.77	3.4370	3.4370	0.1656	25.96	0.05	0.750			
0.8415	53855.07	3.4340	3.4339	0.1605	25.97	0.06	0.750			
0.8420	53885.29	3.4310	3.4310	0.1552	25.97	0.06	0.750			
0.8424	53914.65	3.4280	3.4280	0.1496	25.98	0.07	0.750			
0.8429	53943.25	3.4250	3.4250	0.1449	25.98	0.07	0.750			
0.8433	53970.50	3.4220	3.4221	0.1389	25.98	0.07	0.750			
0.8437	53996.68	3.4190	3.4190	0.1326	25.99	0.08	0.750			
0.8441	54021.67	3.4160	3.4159	0.1265	25.99	0.08	0.750			
0.8445	54045.51	3.4130	3.4130	0.1195	25.99	0.08	0.750			
0.8448	54067.78	3.4100	3.4099	0.1125	26.00	0.09	0.750			
0.8451	54088.87	3.4070	3.4070	0.1055	26.00	0.09	0.750			
0.8455	54109.66	3.4040	3.4039	0.0958	26.00	0.09	0.750			
0.8457	54127.04	3.4010	3.4010	0.0853	26.00	0.09	0.750			
0.8460	54143.09	3.3980	3.3982	0.0758	26.01	0.10	0.750			
0.8462	54156.56	3.3950	3.3954	0.0645	26.01	0.10	0.750			
0.8464	54168.82	3.3920	3.3925	0.0532	26.01	0.10	0.750			
0.8465	54177.84	3.3890	3.3898	0.0407	26.01	0.10	0.750			
0.8466	54184.46	3.3860	3.3875	0.0282	26.01	0.10	0.750			
0.8467	54188.68	3.3830	3.3854	0.0157	26.01	0.10	0.750			
