Ah_balance (normalized)	Ah_balance (mAh)	Voltage - fit (V)	Voltage -  interpolate (V)	dQ/dV (1/V)	Temperature (°C)	Temperature - diff (°C)	Current (C)	R_DC 0ms (mOhm)	R_DC 50ms (mOhm)	R_DC 50 ms PEC (mOhm)
0.0005	30.25	4.1640	4.1640	-0.1492	25.88	0.03	-0.750			
0.0010	63.16	4.1610	4.1611	-0.1963	25.88	0.03	-0.750			
0.0017	106.51	4.1580	4.1579	-0.2426	25.88	0.03	-0.750			
0.0025	157.42	4.1550	4.1550	-0.2873	25.87	0.02	-0.750			
0.0034	217.23	4.1520	4.1520	-0.3323	25.87	0.02	-0.750			
0.0045	284.81	4.1490	4.1491	-0.3790	25.87	0.02	-0.750			
0.0057	361.86	4.1460	4.1460	-0.4247	25.87	0.02	-0.750			
0.0070	448.23	4.1430	4.1430	-0.4696	25.86	0.01	-0.750			
0.0085	543.63	4.1400	4.1400	-0.5122	25.86	0.01	-0.750			
0.0101	648.59	4.1370	4.1369	-0.5467	25.86	0.01	-0.750			
0.0119	759.20	4.1340	4.1341	-0.5800	25.85	0.00	-0.750			
0.0137	874.53	4.1310	4.1309	-0.6022	25.85	-0.00	-0.750			
0.0155	992.14	4.1280	4.1281	-0.6262	25.84	-0.01	-0.750			
0.0174	1114.51	4.1250	4.1249	-0.6478	25.84	-0.01	-0.750			
0.0194	1242.03	4.1220	4.1219	-0.6681	25.83	-0.02	-0.750			
0.0215	1374.85	4.1190	4.1189	-0.6864	25.83	-0.02	-0.750			
0.0236	1508.72	4.1160	4.1160	-0.7011	25.82	-0.03	-0.750			
0.0257	1645.69	4.1130	4.1131	-0.7128	25.82	-0.03	-0.750			
0.0279	1783.53	4.1100	4.1099	-0.7246	25.81	-0.04	-0.750			
0.0300	1922.50	4.1070	4.1070	-0.7309	25.81	-0.04	-0.750			
0.0322	2062.39	4.1040	4.1040	-0.7345	25.80	-0.05	-0.750			
0.0345	2208.10	4.1010	4.1010	-0.7471	25.80	-0.05	-0.750			
0.0368	2352.03	4.0980	4.0981	-0.7524	25.79	-0.06	-0.750			
0.0390	2495.99	4.0950	4.0950	-0.7540	25.79	-0.06	-0.750			
0.0413	2640.80	4.0920	4.0919	-0.7581	25.79	-0.06	-0.750			
0.0435	2785.72	4.0890	4.0890	-0.7641	25.79	-0.06	-0.750			
0.0458	2932.99	4.0860	4.0860	-0.7685	25.79	-0.06	-0.750			
0.0482	3082.77	4.0830	4.0830	-0.7756	25.79	-0.06	-0.750			
0.0505	3232.28	4.0800	4.0801	-0.7767	25.79	-0.06	-0.750			
0.0528	3381.87	4.0770	4.0770	-0.7762	25.79	-0.06	-0.750			
0.0552	3531.15	4.0740	4.0740	-0.7809	25.78	-0.07	-0.750			
0.0575	3680.30	4.0710	4.0710	-0.7800	25.78	-0.07	-0.750			
0.0598	3829.52	4.0680	4.0680	-0.7837	25.77	-0.08	-0.750			
0.0622	3981.05	4.0650	4.0648	-0.7873	25.77	-0.08	-0.750			
0.0646	4132.81	4.0620	4.0620	-0.7892	25.77	-0.08	-0.750			
0.0669	4284.62	4.0590	4.0590	-0.7932	25.77	-0.08	-0.750			
0.0693	4437.02	4.0560	4.0560	-0.7966	25.77	-0.08	-0.750			
0.0717	4589.50	4.0530	4.0530	-0.7978	25.77	-0.08	-0.750			
0.0741	4744.24	4.0500	4.0500	-0.7989	25.77	-0.08	-0.750			
0.0765	4897.28	4.0470	4.0470	-0.7990	25.77	-0.08	-0.750			
0.0789	5051.11	4.0440	4.0440	-0.8035	25.77	-0.08	-0.750			
0.0813	5205.55	4.0410	4.0410	-0.8027	25.78	-0.07	-0.750			
0.0837	5359.16	4.0380	4.0379	-0.8023	25.78	-0.07	-0.750			
0.0862	5513.65	4.0350	4.0350	-0.8048	25.78	-0.07	-0.750			
0.0886	5668.46	4.0320	4.0320	-0.8069	25.78	-0.07	-0.750			
0.0910	5823.25	4.0290	4.0290	-0.8109	25.78	-0.07	-0.750			
0.0934	5980.07	4.0260	4.0260	-0.8099	25.78	-0.07	-0.750			
0.0959	6135.62	4.0230	4.0229	-0.8111	25.79	-0.06	-0.750			
0.0983	6292.95	4.0200	4.0200	-0.8075	25.79	-0.06	-0.750			
0.1007	6446.52	4.0170	4.0171	-0.8087	25.79	-0.06	-0.750			
0.1031	6600.76	4.0140	4.0139	-0.8115	25.79	-0.06	-0.750			
0.1056	6756.22	4.0110	4.0109	-0.8176	25.79	-0.06	-0.750			
0.1080	6912.84	4.0080	4.0080	-0.8233	25.80	-0.05	-0.750			
0.1105	7072.49	4.0050	4.0050	-0.8365	25.80	-0.05	-0.750			
0.1131	7235.65	4.0020	4.0021	-0.8416	25.80	-0.05	-0.750			
0.1156	7400.18	3.9990	3.9989	-0.8429	25.80	-0.05	-0.750			
0.1182	7562.52	3.9960	3.9960	-0.8394	25.80	-0.05	-0.750			
0.1207	7723.08	3.9930	3.9930	-0.8363	25.81	-0.04	-0.750			
0.1232	7884.20	3.9900	3.9900	-0.8384	25.81	-0.04	-0.750			
0.1257	8043.05	3.9870	3.9870	-0.8354	25.81	-0.04	-0.750			
0.1282	8201.93	3.9840	3.9840	-0.8304	25.81	-0.04	-0.750			
0.1307	8364.00	3.9810	3.9810	-0.8337	25.81	-0.04	-0.750			
0.1332	8523.10	3.9780	3.9780	-0.8320	25.82	-0.03	-0.750			
0.1357	8685.94	3.9750	3.9749	-0.8424	25.82	-0.03	-0.750			
0.1382	8845.64	3.9720	3.9722	-0.8376	25.82	-0.03	-0.750			
0.1407	9005.25	3.9690	3.9688	-0.8435	25.83	-0.02	-0.750			
0.1432	9167.12	3.9660	3.9661	-0.8452	25.83	-0.02	-0.750			
0.1458	9330.14	3.9630	3.9629	-0.8475	25.84	-0.01	-0.750			
0.1484	9496.25	3.9600	3.9600	-0.8558	25.85	-0.00	-0.750			
0.1510	9660.88	3.9570	3.9571	-0.8522	25.85	0.00	-0.750			
0.1535	9823.05	3.9540	3.9540	-0.8576	25.86	0.01	-0.750			
0.1561	9989.86	3.9510	3.9509	-0.8569	25.86	0.01	-0.750			
0.1586	10153.08	3.9480	3.9480	-0.8569	25.86	0.01	-0.750			
0.1612	10318.02	3.9450	3.9449	-0.8635	25.87	0.02	-0.750			
0.1638	10485.63	3.9420	3.9421	-0.8637	25.87	0.02	-0.750			
0.1664	10651.97	3.9390	3.9389	-0.8646	25.87	0.02	-0.750			
0.1690	10817.79	3.9360	3.9359	-0.8625	25.88	0.03	-0.750			
0.1716	10980.46	3.9330	3.9331	-0.8599	25.88	0.03	-0.750			
0.1742	11148.64	3.9300	3.9299	-0.8674	25.88	0.03	-0.750			
0.1768	11313.38	3.9270	3.9269	-0.8718	25.88	0.03	-0.750			
0.1794	11481.85	3.9240	3.9240	-0.8742	25.88	0.03	-0.750			
0.1820	11650.54	3.9210	3.9210	-0.8814	25.89	0.04	-0.750			
0.1847	11819.03	3.9180	3.9180	-0.8820	25.89	0.04	-0.750			
0.1874	11991.63	3.9150	3.9152	-0.8861	25.89	0.04	-0.750			
0.1900	12160.55	3.9120	3.9120	-0.8891	25.89	0.04	-0.750			
0.1927	12332.56	3.9090	3.9090	-0.8928	25.90	0.05	-0.750			
0.1954	12503.28	3.9060	3.9060	-0.8944	25.90	0.05	-0.750			
0.1981	12676.26	3.9030	3.9030	-0.9003	25.91	0.06	-0.750			
0.2008	12849.17	3.9000	3.9000	-0.8990	25.91	0.06	-0.750			
0.2035	13022.83	3.8970	3.8970	-0.9019	25.92	0.07	-0.750			
0.2062	13197.29	3.8940	3.8940	-0.9041	25.92	0.07	-0.750			
0.2089	13370.17	3.8910	3.8911	-0.9019	25.92	0.07	-0.750			
0.2116	13542.83	3.8880	3.8880	-0.9049	25.93	0.08	-0.750			
0.2143	13716.13	3.8850	3.8849	-0.9042	25.93	0.08	-0.750			
0.2170	13889.19	3.8820	3.8820	-0.9063	25.94	0.09	-0.750			
0.2197	14062.94	3.8790	3.8790	-0.9093	25.94	0.09	-0.750			
0.2225	14238.78	3.8760	3.8760	-0.9071	25.95	0.10	-0.750			
0.2252	14414.73	3.8730	3.8730	-0.9102	25.95	0.10	-0.750			
0.2279	14588.58	3.8700	3.8701	-0.9152	25.95	0.10	-0.750			
0.2307	14764.46	3.8670	3.8671	-0.9122	25.96	0.11	-0.750			
0.2334	14940.27	3.8640	3.8639	-0.9164	25.96	0.11	-0.750			
0.2362	15115.08	3.8610	3.8610	-0.9180	25.97	0.12	-0.750			
0.2389	15292.41	3.8580	3.8580	-0.9209	25.97	0.12	-0.750			
0.2417	15471.21	3.8550	3.8549	-0.9361	25.98	0.13	-0.750			
0.2446	15652.36	3.8520	3.8519	-0.9295	25.98	0.13	-0.750			
0.2473	15830.33	3.8490	3.8489	-0.9276	25.99	0.14	-0.750			
0.2501	16009.60	3.8460	3.8464	-0.9333	25.99	0.14	-0.750			
0.2529	16188.32	3.8430	3.8429	-0.9285	25.99	0.14	-0.750			
0.2557	16365.34	3.8400	3.8399	-0.9300	25.99	0.14	-0.750			
0.2585	16542.40	3.8370	3.8370	-0.9278	26.00	0.15	-0.750			
0.2613	16722.53	3.8340	3.8340	-0.9351	26.00	0.15	-0.750			
0.2641	16902.60	3.8310	3.8310	-0.9384	26.00	0.15	-0.750			
0.2669	17082.06	3.8280	3.8280	-0.9392	26.01	0.16	-0.750			
0.2697	17263.49	3.8250	3.8250	-0.9371	26.02	0.17	-0.750			
0.2726	17444.94	3.8220	3.8219	-0.9366	26.02	0.17	-0.750			
0.2754	17623.59	3.8190	3.8191	-0.9348	26.03	0.18	-0.750			
0.2782	17803.02	3.8160	3.8160	-0.9383	26.04	0.19	-0.750			
0.2810	17982.14	3.8130	3.8129	-0.9374	26.04	0.19	-0.750			
0.2838	18161.61	3.8100	3.8100	-0.9383	26.04	0.19	-0.750			
0.2866	18343.00	3.8070	3.8070	-0.9442	26.05	0.20	-0.750			
0.2894	18524.71	3.8040	3.8039	-0.9487	26.05	0.20	-0.750			
0.2923	18708.07	3.8010	3.8010	-0.9498	26.06	0.21	-0.750			
0.2951	18889.04	3.7980	3.7980	-0.9530	26.06	0.21	-0.750			
0.2980	19072.31	3.7950	3.7950	-0.9526	26.07	0.22	-0.750			
0.3009	19256.75	3.7920	3.7920	-0.9565	26.07	0.22	-0.750			
0.3038	19440.96	3.7890	3.7891	-0.9592	26.08	0.23	-0.750			
0.3066	19625.42	3.7860	3.7860	-0.9608	26.08	0.23	-0.750			
0.3095	19810.11	3.7830	3.7829	-0.9608	26.09	0.24	-0.750			
0.3124	19995.09	3.7800	3.7802	-0.9624	26.09	0.24	-0.750			
0.3153	20179.19	3.7770	3.7769	-0.9666	26.09	0.24	-0.750			
0.3182	20366.60	3.7740	3.7741	-0.9701	26.10	0.25	-0.750			
0.3211	20552.14	3.7710	3.7710	-0.9695	26.10	0.25	-0.750			
0.3241	20739.84	3.7680	3.7679	-0.9749	26.11	0.26	-0.750			
0.3270	20925.16	3.7650	3.7649	-0.9776	26.11	0.26	-0.750			
0.3299	21113.25	3.7620	3.7619	-0.9764	26.12	0.27	-0.750			
0.3328	21300.10	3.7590	3.7590	-0.9763	26.12	0.27	-0.750			
0.3357	21486.08	3.7560	3.7560	-0.9785	26.13	0.28	-0.750			
0.3387	21677.46	3.7530	3.7530	-0.9873	26.13	0.28	-0.750			
0.3417	21867.28	3.7500	3.7499	-0.9939	26.14	0.29	-0.750			
0.3447	22058.26	3.7470	3.7470	-0.9953	26.14	0.29	-0.750			
0.3476	22249.40	3.7440	3.7440	-0.9947	26.15	0.30	-0.750			
0.3507	22441.66	3.7410	3.7411	-1.0083	26.15	0.30	-0.750			
0.3537	22634.95	3.7380	3.7380	-1.0115	26.15	0.30	-0.750			
0.3567	22829.54	3.7350	3.7349	-1.0127	26.16	0.31	-0.750			
0.3598	23024.49	3.7320	3.7320	-1.0161	26.16	0.31	-0.750			
0.3628	23219.09	3.7290	3.7293	-1.0274	26.16	0.31	-0.750			
0.3659	23417.27	3.7260	3.7260	-1.0341	26.16	0.31	-0.750			
0.3690	23618.68	3.7230	3.7229	-1.0286	26.17	0.32	-0.750			
0.3721	23813.77	3.7200	3.7199	-1.0304	26.17	0.32	-0.750			
0.3752	24010.76	3.7170	3.7175	-1.0429	26.17	0.32	-0.750			
0.3783	24211.47	3.7140	3.7139	-1.0554	26.17	0.32	-0.750			
0.3814	24412.61	3.7110	3.7109	-1.0693	26.17	0.32	-0.750			
0.3847	24618.11	3.7080	3.7080	-1.0893	26.17	0.32	-0.750			
0.3879	24827.70	3.7050	3.7052	-1.1228	26.17	0.32	-0.750			
0.3914	25050.30	3.7020	3.7019	-1.1419	26.17	0.32	-0.750			
0.3949	25272.49	3.6990	3.6989	-1.1520	26.17	0.32	-0.750			
0.3984	25495.73	3.6960	3.6960	-1.1673	26.17	0.32	-0.750			
0.4019	25721.29	3.6930	3.6929	-1.1918	26.17	0.32	-0.750			
0.4055	25951.96	3.6900	3.6899	-1.2062	26.17	0.32	-0.750			
0.4091	26184.62	3.6870	3.6869	-1.2159	26.17	0.32	-0.750			
0.4128	26417.95	3.6840	3.6843	-1.2370	26.17	0.32	-0.750			
0.4166	26661.62	3.6810	3.6810	-1.2627	26.17	0.32	-0.750			
0.4204	26903.14	3.6780	3.6779	-1.2884	26.16	0.31	-0.750			
0.4242	27149.70	3.6750	3.6751	-1.3233	26.16	0.31	-0.750			
0.4282	27407.12	3.6720	3.6719	-1.3572	26.16	0.31	-0.750			
0.4324	27672.60	3.6690	3.6689	-1.3929	26.15	0.30	-0.750			
0.4367	27945.73	3.6660	3.6661	-1.4343	26.15	0.30	-0.750			
0.4410	28226.39	3.6630	3.6629	-1.4498	26.15	0.30	-0.750			
0.4455	28513.29	3.6600	3.6601	-1.4736	26.14	0.29	-0.750			
0.4499	28793.21	3.6570	3.6573	-1.5048	26.14	0.29	-0.750			
0.4543	29077.77	3.6540	3.6540	-1.5444	26.14	0.29	-0.750			
0.4590	29378.97	3.6510	3.6508	-1.5907	26.13	0.28	-0.750			
0.4639	29688.52	3.6480	3.6481	-1.6318	26.13	0.28	-0.750			
0.4689	30011.77	3.6450	3.6450	-1.6870	26.12	0.27	-0.750			
0.4741	30341.17	3.6420	3.6420	-1.7270	26.11	0.26	-0.750			
0.4793	30676.27	3.6390	3.6389	-1.7686	26.11	0.26	-0.750			
0.4846	31014.25	3.6360	3.6362	-1.7946	26.10	0.25	-0.750	0.444	0.517	
0.4901	31363.48	3.6330	3.6330	-1.8454	26.10	0.25	-0.750			
0.4957	31727.13	3.6300	3.6301	-1.8929	26.09	0.24	-0.750			
0.5016	32105.14	3.6270	3.6272	-1.9239	26.09	0.24	-0.750			
0.5075	32481.55	3.6240	3.6239	-1.9346	26.08	0.23	-0.750			
0.5133	32851.04	3.6210	3.6211	-1.9481	26.07	0.22	-0.750			
0.5190	33219.16	3.6180	3.6181	-1.9876	26.07	0.22	-0.750			
0.5250	33599.89	3.6150	3.6149	-2.0244	26.07	0.22	-0.750			
0.5311	33991.39	3.6120	3.6119	-2.0666	26.07	0.22	-0.750			
0.5374	34396.05	3.6090	3.6092	-2.1151	26.07	0.22	-0.750			
0.5439	34809.50	3.6060	3.6059	-2.1574	26.06	0.21	-0.750			
0.5506	35240.65	3.6030	3.6030	-2.1915	26.05	0.20	-0.750			
0.5572	35658.00	3.6000	3.6000	-2.2001	26.05	0.20	-0.750			
0.5637	36079.01	3.5970	3.5970	-2.2320	26.05	0.20	-0.750			
0.5705	36511.45	3.5940	3.5940	-2.2525	26.04	0.19	-0.750			
0.5773	36946.88	3.5910	3.5908	-2.3015	26.04	0.19	-0.750			
0.5842	37391.11	3.5880	3.5881	-2.3422	26.03	0.18	-0.750			
0.5914	37848.51	3.5850	3.5850	-2.3787	26.03	0.18	-0.750			
0.5987	38317.51	3.5820	3.5821	-2.4071	26.03	0.18	-0.750			
0.6058	38771.75	3.5790	3.5792	-2.4255	26.03	0.18	-0.750			
0.6132	39243.59	3.5760	3.5760	-2.4381	26.03	0.18	-0.750			
0.6204	39708.04	3.5730	3.5729	-2.4417	26.02	0.17	-0.750			
0.6278	40179.94	3.5700	3.5701	-2.4890	26.02	0.17	-0.750			
0.6354	40664.99	3.5670	3.5668	-2.5023	26.03	0.18	-0.750			
0.6430	41153.18	3.5640	3.5639	-2.5039	26.03	0.18	-0.750			
0.6505	41633.96	3.5610	3.5612	-2.4928	26.03	0.18	-0.750			
0.6582	42122.25	3.5580	3.5579	-2.5045	26.03	0.18	-0.750			
0.6655	42593.49	3.5550	3.5550	-2.4715	26.03	0.18	-0.750			
0.6729	43063.20	3.5520	3.5520	-2.4339	26.03	0.18	-0.750			
0.6802	43533.65	3.5490	3.5493	-2.4222	26.04	0.19	-0.750			
0.6874	43993.42	3.5460	3.5459	-2.3822	26.05	0.20	-0.750			
0.6945	44450.37	3.5430	3.5427	-2.3490	26.05	0.20	-0.750			
0.7014	44891.04	3.5400	3.5402	-2.2999	26.05	0.20	-0.750			
0.7083	45332.53	3.5370	3.5370	-2.2722	26.06	0.21	-0.750			
0.7151	45768.43	3.5340	3.5339	-2.2254	26.06	0.21	-0.750			
0.7217	46190.79	3.5310	3.5311	-2.1516	26.07	0.22	-0.750			
0.7283	46610.40	3.5280	3.5280	-2.1109	26.08	0.23	-0.750			
0.7346	47011.66	3.5250	3.5252	-2.0420	26.09	0.24	-0.750			
0.7405	47394.89	3.5220	3.5217	-1.9787	26.09	0.24	-0.750			
0.7464	47768.39	3.5190	3.5191	-1.9174	26.10	0.25	-0.750			
0.7520	48129.03	3.5160	3.5161	-1.8579	26.12	0.27	-0.750			
0.7576	48486.06	3.5130	3.5130	-1.8178	26.13	0.28	-0.750			
0.7629	48827.36	3.5100	3.5101	-1.7392	26.15	0.30	-0.750			
0.7681	49156.40	3.5070	3.5072	-1.6820	26.16	0.31	-0.750			
0.7730	49474.26	3.5040	3.5039	-1.6231	26.18	0.33	-0.750			
0.7778	49780.43	3.5010	3.5009	-1.5508	26.19	0.34	-0.750			
0.7824	50073.36	3.4980	3.4980	-1.4937	26.21	0.36	-0.750			
0.7867	50350.65	3.4950	3.4950	-1.4392	26.23	0.38	-0.750			
0.7910	50621.89	3.4920	3.4919	-1.3846	26.24	0.39	-0.750			
0.7951	50884.77	3.4890	3.4889	-1.3462	26.24	0.39	-0.750			
0.7989	51132.32	3.4860	3.4862	-1.3019	26.25	0.40	-0.750			
0.8028	51380.98	3.4830	3.4829	-1.2567	26.26	0.41	-0.750			
0.8066	51623.38	3.4800	3.4799	-1.2222	26.28	0.43	-0.750			
0.8102	51851.79	3.4770	3.4770	-1.1704	26.29	0.44	-0.750			
0.8136	52069.15	3.4740	3.4740	-1.1246	26.30	0.45	-0.750			
0.8169	52284.02	3.4710	3.4710	-1.0876	26.32	0.47	-0.750			
0.8201	52485.55	3.4680	3.4679	-1.0478	26.33	0.48	-0.750			
0.8231	52679.50	3.4650	3.4650	-1.0156	26.34	0.49	-0.750			
0.8262	52874.26	3.4620	3.4620	-0.9950	26.35	0.50	-0.750			
0.8290	53057.82	3.4590	3.4590	-0.9855	26.36	0.51	-0.750			
0.8319	53243.34	3.4560	3.4561	-0.9920	26.37	0.52	-0.750			
0.8348	53429.52	3.4530	3.4530	-1.0028	26.38	0.53	-0.750			
0.8378	53620.70	3.4500	3.4502	-1.0476	26.39	0.54	-0.750			
0.8410	53823.66	3.4470	3.4469	-1.0793	26.40	0.55	-0.750			
0.8443	54035.48	3.4440	3.4440	-1.1301	26.42	0.57	-0.750			
0.8478	54256.98	3.4410	3.4410	-1.1880	26.43	0.58	-0.750			
0.8514	54492.13	3.4380	3.4380	-1.2320	26.44	0.59	-0.750			
0.8553	54739.21	3.4350	3.4348	-1.2507	26.45	0.60	-0.750			
0.8592	54987.63	3.4320	3.4320	-1.2580	26.45	0.60	-0.750			
0.8630	55232.43	3.4290	3.4292	-1.2411	26.46	0.61	-0.750			
0.8668	55476.85	3.4260	3.4260	-1.2190	26.47	0.62	-0.750			
0.8704	55707.49	3.4230	3.4229	-1.1709	26.49	0.64	-0.750			
0.8739	55926.46	3.4200	3.4200	-1.1192	26.50	0.65	-0.750			
0.8771	56137.25	3.4170	3.4169	-1.0811	26.50	0.65	-0.750			
0.8803	56339.92	3.4140	3.4139	-1.0362	26.51	0.66	-0.750			
0.8833	56533.10	3.4110	3.4110	-0.9909	26.51	0.66	-0.750			
0.8862	56717.38	3.4080	3.4079	-0.9496	26.52	0.67	-0.750			
0.8890	56898.87	3.4050	3.4049	-0.9202	26.52	0.67	-0.750			
0.8917	57071.01	3.4020	3.4020	-0.8891	26.53	0.68	-0.750			
0.8943	57237.41	3.3990	3.3990	-0.8564	26.54	0.69	-0.750			
0.8968	57397.58	3.3960	3.3960	-0.8208	26.54	0.69	-0.750			
0.8993	57555.30	3.3930	3.3929	-0.7992	26.55	0.70	-0.750			
0.9017	57706.45	3.3900	3.3900	-0.7697	26.56	0.71	-0.750			
0.9039	57851.00	3.3870	3.3870	-0.7384	26.56	0.71	-0.750			
0.9061	57988.96	3.3840	3.3840	-0.7109	26.57	0.72	-0.750			
0.9082	58121.86	3.3810	3.3810	-0.6812	26.58	0.73	-0.750			
0.9102	58251.68	3.3780	3.3779	-0.6568	26.58	0.73	-0.750			
0.9121	58375.10	3.3750	3.3751	-0.6298	26.59	0.74	-0.750			
0.9140	58493.24	3.3720	3.3720	-0.6011	26.59	0.74	-0.750			
0.9157	58606.05	3.3690	3.3691	-0.5748	26.60	0.75	-0.750			
0.9174	58712.51	3.3660	3.3660	-0.5509	26.60	0.75	-0.750			
0.9190	58815.06	3.3630	3.3629	-0.5288	26.61	0.76	-0.750			
0.9206	58915.27	3.3600	3.3600	-0.5105	26.61	0.76	-0.750			
0.9221	59011.83	3.3570	3.3571	-0.4889	26.61	0.76	-0.750			
0.9235	59104.48	3.3540	3.3539	-0.4707	26.62	0.77	-0.750			
0.9249	59193.77	3.3510	3.3512	-0.4497	26.62	0.77	-0.750			
0.9262	59277.31	3.3480	3.3479	-0.4264	26.63	0.78	-0.750			
0.9274	59356.06	3.3450	3.3449	-0.4059	26.63	0.78	-0.750			
0.9286	59431.32	3.3420	3.3421	-0.3871	26.64	0.79	-0.750			
0.9298	59504.12	3.3390	3.3389	-0.3741	26.64	0.79	-0.750			
0.9308	59573.80	3.3360	3.3360	-0.3586	26.65	0.80	-0.750			
0.9319	59640.15	3.3330	3.3330	-0.3453	26.65	0.80	-0.750			
0.9329	59706.36	3.3300	3.3300	-0.3329	26.66	0.81	-0.750			
0.9339	59769.52	3.3270	3.3269	-0.3204	26.66	0.81	-0.750			
0.9348	59829.21	3.3240	3.3240	-0.3065	26.67	0.82	-0.750			
0.9357	59886.89	3.3210	3.3210	-0.2947	26.67	0.82	-0.750			
0.9366	59941.72	3.3180	3.3179	-0.2812	26.68	0.83	-0.750			
0.9374	59994.74	3.3150	3.3150	-0.2696	26.68	0.83	-0.750			
0.9382	60044.55	3.3120	3.3121	-0.2572	26.68	0.83	-0.750			
0.9390	60093.25	3.3090	3.3091	-0.2487	26.69	0.84	-0.750			
0.9397	60139.98	3.3060	3.3060	-0.2383	26.69	0.84	-0.750			
0.9404	60184.49	3.3030	3.3030	-0.2277	26.70	0.85	-0.750			
0.9410	60227.05	3.3000	3.3000	-0.2181	26.70	0.85	-0.750			
0.9417	60267.51	3.2970	3.2971	-0.2095	26.71	0.86	-0.750			
0.9423	60306.97	3.2940	3.2940	-0.2016	26.71	0.86	-0.750			
0.9429	60344.61	3.2910	3.2910	-0.1955	26.71	0.86	-0.750			
0.9435	60381.20	3.2880	3.2879	-0.1883	26.72	0.87	-0.750			
0.9440	60416.39	3.2850	3.2850	-0.1817	26.72	0.87	-0.750			
0.9445	60450.79	3.2820	3.2820	-0.1766	26.73	0.88	-0.750			
0.9451	60484.50	3.2790	3.2790	-0.1715	26.73	0.88	-0.750			
0.9456	60516.98	3.2760	3.2759	-0.1661	26.73	0.88	-0.750			
0.9461	60547.94	3.2730	3.2729	-0.1603	26.74	0.89	-0.750			
0.9465	60578.25	3.2700	3.2701	-0.1554	26.74	0.89	-0.750			
0.9470	60607.31	3.2670	3.2670	-0.1505	26.74	0.89	-0.750			
0.9474	60635.79	3.2640	3.2640	-0.1468	26.74	0.89	-0.750			
0.9479	60663.34	3.2610	3.2610	-0.1423	26.75	0.90	-0.750			
0.9483	60690.29	3.2580	3.2581	-0.1391	26.75	0.90	-0.750			
0.9487	60716.74	3.2550	3.2550	-0.1349	26.75	0.90	-0.750			
0.9491	60742.19	3.2520	3.2520	-0.1318	26.75	0.90	-0.750			
0.9495	60767.08	3.2490	3.2490	-0.1281	26.76	0.91	-0.750			
0.9499	60791.22	3.2460	3.2461	-0.1254	26.76	0.91	-0.750			
0.9502	60814.94	3.2430	3.2429	-0.1224	26.76	0.91	-0.750			
0.9506	60838.15	3.2400	3.2399	-0.1191	26.77	0.92	-0.750			
0.9509	60860.75	3.2370	3.2372	-0.1164	26.77	0.92	-0.750			
0.9513	60882.78	3.2340	3.2341	-0.1137	26.77	0.92	-0.750			
0.9516	60904.67	3.2310	3.2310	-0.1115	26.78	0.93	-0.750			
0.9520	60925.54	3.2280	3.2279	-0.1092	26.78	0.93	-0.750			
0.9523	60945.98	3.2250	3.2250	-0.1063	26.78	0.93	-0.750			
0.9526	60966.16	3.2220	3.2220	-0.1043	26.79	0.94	-0.750			
0.9529	60985.74	3.2190	3.2191	-0.1021	26.79	0.94	-0.750			
0.9532	61005.22	3.2160	3.2160	-0.1003	26.79	0.94	-0.750			
0.9535	61024.44	3.2130	3.2130	-0.0987	26.80	0.95	-0.750			
0.9538	61043.15	3.2100	3.2101	-0.0970	26.80	0.95	-0.750			
0.9541	61061.55	3.2070	3.2068	-0.0951	26.80	0.95	-0.750			
0.9544	61079.59	3.2040	3.2041	-0.0935	26.80	0.95	-0.750			
0.9546	61097.28	3.2010	3.2009	-0.0918	26.81	0.96	-0.750			
0.9549	61114.76	3.1980	3.1980	-0.0904	26.81	0.96	-0.750			
0.9552	61131.97	3.1950	3.1950	-0.0889	26.81	0.96	-0.750			
0.9555	61148.87	3.1920	3.1920	-0.0876	26.82	0.97	-0.750			
0.9557	61165.53	3.1890	3.1890	-0.0862	26.82	0.97	-0.750			
0.9560	61181.97	3.1860	3.1860	-0.0849	26.82	0.97	-0.750			
0.9562	61198.26	3.1830	3.1830	-0.0833	26.82	0.97	-0.750			
0.9565	61214.10	3.1800	3.1800	-0.0817	26.83	0.98	-0.750			
0.9567	61229.55	3.1770	3.1770	-0.0804	26.83	0.98	-0.750			
0.9570	61244.84	3.1740	3.1742	-0.0789	26.83	0.98	-0.750			
0.9572	61259.81	3.1710	3.1708	-0.0774	26.83	0.98	-0.750			
0.9574	61274.37	3.1680	3.1680	-0.0765	26.83	0.98	-0.750			
0.9576	61288.71	3.1650	3.1651	-0.0750	26.84	0.99	-0.750			
0.9579	61303.04	3.1620	3.1620	-0.0743	26.84	0.99	-0.750			
0.9581	61317.22	3.1590	3.1590	-0.0738	26.84	0.99	-0.750			
0.9583	61331.32	3.1560	3.1560	-0.0732	26.84	0.99	-0.750			
0.9585	61345.32	3.1530	3.1531	-0.0727	26.85	1.00	-0.750			
0.9587	61359.35	3.1500	3.1498	-0.0713	26.85	1.00	-0.750			
0.9590	61373.12	3.1470	3.1470	-0.0705	26.85	1.00	-0.750			
0.9592	61386.48	3.1440	3.1442	-0.0696	26.85	1.00	-0.750			
0.9594	61399.73	3.1410	3.1410	-0.0685	26.85	1.00	-0.750			
0.9596	61412.87	3.1380	3.1379	-0.0676	26.86	1.01	-0.750			
0.9598	61425.61	3.1350	3.1349	-0.0668	26.86	1.01	-0.750			
0.9600	61438.12	3.1320	3.1321	-0.0654	26.86	1.01	-0.750			
0.9602	61450.63	3.1290	3.1290	-0.0649	26.86	1.01	-0.750			
0.9604	61463.03	3.1260	3.1260	-0.0642	26.86	1.01	-0.750			
0.9606	61475.34	3.1230	3.1230	-0.0637	26.86	1.01	-0.750			
0.9607	61487.51	3.1200	3.1201	-0.0631	26.87	1.02	-0.750			
0.9609	61499.56	3.1170	3.1170	-0.0624	26.87	1.02	-0.750			
0.9611	61511.53	3.1140	3.1140	-0.0616	26.87	1.02	-0.750			
0.9613	61523.28	3.1110	3.1111	-0.0609	26.87	1.02	-0.750			
0.9615	61534.90	3.1080	3.1080	-0.0601	26.87	1.02	-0.750			
0.9617	61546.23	3.1050	3.1050	-0.0597	26.87	1.02	-0.750			
0.9618	61557.64	3.1020	3.1020	-0.0592	26.88	1.03	-0.750			
0.9620	61568.95	3.0990	3.0990	-0.0587	26.88	1.03	-0.750			
0.9622	61580.19	3.0960	3.0960	-0.0578	26.88	1.03	-0.750			
0.9624	61591.24	3.0930	3.0929	-0.0572	26.88	1.03	-0.750			
0.9625	61602.17	3.0900	3.0900	-0.0566	26.88	1.03	-0.750			
0.9627	61612.98	3.0870	3.0871	-0.0561	26.88	1.03	-0.750			
0.9629	61623.81	3.0840	3.0839	-0.0557	26.88	1.03	-0.750			
0.9630	61634.44	3.0810	3.0810	-0.0551	26.88	1.03	-0.750			
0.9632	61644.95	3.0780	3.0779	-0.0544	26.89	1.04	-0.750			
0.9634	61655.14	3.0750	3.0749	-0.0538	26.89	1.04	-0.750			
0.9635	61665.43	3.0720	3.0720	-0.0534	26.89	1.04	-0.750			
0.9637	61675.64	3.0690	3.0690	-0.0530	26.89	1.04	-0.750			
0.9638	61685.84	3.0660	3.0661	-0.0526	26.89	1.04	-0.750			
0.9640	61695.90	3.0630	3.0629	-0.0522	26.89	1.04	-0.750			
0.9642	61705.87	3.0600	3.0600	-0.0517	26.89	1.04	-0.750			
0.9643	61715.74	3.0570	3.0570	-0.0512	26.89	1.04	-0.750			
0.9645	61725.53	3.0540	3.0540	-0.0508	26.90	1.05	-0.750			
0.9646	61735.23	3.0510	3.0509	-0.0503	26.90	1.05	-0.750			
0.9648	61744.85	3.0480	3.0482	-0.0499	26.90	1.05	-0.750			
0.9649	61754.34	3.0450	3.0450	-0.0495	26.90	1.05	-0.750			
0.9651	61763.81	3.0420	3.0420	-0.0491	26.90	1.05	-0.750			
0.9652	61773.21	3.0390	3.0389	-0.0487	26.90	1.05	-0.750			
0.9654	61782.47	3.0360	3.0361	-0.0483	26.90	1.05	-0.750			
0.9655	61791.78	3.0330	3.0330	-0.0479	26.90	1.05	-0.750			
0.9656	61800.94	3.0300	3.0300	-0.0475	26.91	1.06	-0.750			
0.9658	61810.02	3.0270	3.0268	-0.0471	26.91	1.06	-0.750			
0.9659	61819.10	3.0240	3.0240	-0.0468	26.91	1.06	-0.750			
0.9661	61827.99	3.0210	3.0211	-0.0464	26.91	1.06	-0.750			
0.9662	61836.86	3.0180	3.0180	-0.0460	26.91	1.06	-0.750			
0.9663	61845.64	3.0150	3.0151	-0.0456	26.91	1.06	-0.750			
0.9665	61854.29	3.0120	3.0120	-0.0452	26.91	1.06	-0.750			
0.9666	61862.93	3.0090	3.0091	-0.0448	26.91	1.06	-0.750			
0.9667	61871.51	3.0060	3.0060	-0.0445	26.91	1.06	-0.750			
0.9669	61880.02	3.0030	3.0030	-0.0442	26.92	1.07	-0.750			
