Ah_balance (normalized)	Ah_balance (mAh)	Voltage - fit (V)	Voltage -  interpolate (V)	dQ/dV (1/V)	Temperature (°C)	Temperature - diff (°C)	Current (C)	R_DC 0ms (mOhm)	R_DC 50ms (mOhm)	R_DC 50 ms PEC (mOhm)
0.0002	11.99	4.1630	4.1625	-0.0976	25.90	0.01	-0.750			
0.0006	35.60	4.1600	4.1598	-0.1437	25.90	0.01	-0.750			
0.0011	67.73	4.1570	4.1568	-0.1845	25.90	0.01	-0.750			
0.0017	107.13	4.1540	4.1540	-0.2227	25.89	0.00	-0.750			
0.0024	153.33	4.1510	4.1511	-0.2612	25.89	0.00	-0.750			
0.0032	207.30	4.1480	4.1481	-0.2987	25.89	0.00	-0.750			
0.0042	269.06	4.1450	4.1450	-0.3360	25.89	-0.00	-0.750			
0.0053	337.25	4.1420	4.1420	-0.3696	25.89	-0.00	-0.750			
0.0064	412.44	4.1390	4.1390	-0.4016	25.88	-0.01	-0.750			
0.0077	493.43	4.1360	4.1361	-0.4314	25.88	-0.01	-0.750			
0.0091	580.49	4.1330	4.1330	-0.4577	25.88	-0.01	-0.750			
0.0105	670.83	4.1300	4.1300	-0.4808	25.87	-0.02	-0.750			
0.0120	765.03	4.1270	4.1270	-0.5050	25.87	-0.02	-0.750			
0.0135	863.98	4.1240	4.1240	-0.5275	25.87	-0.02	-0.750			
0.0151	968.75	4.1210	4.1209	-0.5482	25.86	-0.03	-0.750			
0.0168	1076.93	4.1180	4.1180	-0.5622	25.86	-0.03	-0.750			
0.0186	1187.53	4.1150	4.1151	-0.5792	25.85	-0.04	-0.750			
0.0203	1300.59	4.1120	4.1121	-0.5905	25.85	-0.04	-0.750			
0.0221	1415.65	4.1090	4.1089	-0.6008	25.84	-0.05	-0.750			
0.0239	1531.72	4.1060	4.1060	-0.6079	25.84	-0.05	-0.750			
0.0258	1648.18	4.1030	4.1030	-0.6191	25.84	-0.05	-0.750			
0.0276	1768.21	4.1000	4.1001	-0.6300	25.83	-0.06	-0.750			
0.0296	1891.64	4.0970	4.0969	-0.6394	25.83	-0.06	-0.750			
0.0315	2014.15	4.0940	4.0940	-0.6446	25.83	-0.06	-0.750			
0.0334	2138.85	4.0910	4.0911	-0.6547	25.83	-0.06	-0.750			
0.0354	2266.05	4.0880	4.0879	-0.6599	25.82	-0.07	-0.750			
0.0374	2394.88	4.0850	4.0850	-0.6657	25.82	-0.07	-0.750			
0.0394	2522.92	4.0820	4.0820	-0.6647	25.82	-0.07	-0.750			
0.0414	2651.28	4.0790	4.0790	-0.6713	25.82	-0.07	-0.750			
0.0434	2780.79	4.0760	4.0760	-0.6731	25.82	-0.07	-0.750			
0.0454	2908.05	4.0730	4.0729	-0.6777	25.82	-0.07	-0.750			
0.0475	3038.57	4.0700	4.0701	-0.6775	25.81	-0.08	-0.750			
0.0495	3169.79	4.0670	4.0670	-0.6860	25.81	-0.08	-0.750			
0.0516	3301.06	4.0640	4.0640	-0.6888	25.81	-0.08	-0.750			
0.0537	3434.81	4.0610	4.0612	-0.6948	25.81	-0.08	-0.750			
0.0557	3567.70	4.0580	4.0580	-0.6976	25.81	-0.08	-0.750			
0.0578	3702.38	4.0550	4.0550	-0.7054	25.81	-0.08	-0.750			
0.0600	3838.73	4.0520	4.0521	-0.7064	25.81	-0.08	-0.750			
0.0621	3976.98	4.0490	4.0489	-0.7077	25.81	-0.08	-0.750			
0.0642	4111.44	4.0460	4.0461	-0.7031	25.81	-0.08	-0.750			
0.0663	4245.62	4.0430	4.0432	-0.7064	25.81	-0.08	-0.750			
0.0685	4380.91	4.0400	4.0400	-0.7063	25.81	-0.08	-0.750			
0.0705	4514.62	4.0370	4.0370	-0.7133	25.81	-0.08	-0.750			
0.0727	4652.86	4.0340	4.0340	-0.7165	25.81	-0.08	-0.750			
0.0749	4793.01	4.0310	4.0310	-0.7238	25.81	-0.08	-0.750			
0.0771	4933.41	4.0280	4.0279	-0.7236	25.81	-0.08	-0.750			
0.0793	5073.48	4.0250	4.0251	-0.7224	25.81	-0.08	-0.750			
0.0814	5211.32	4.0220	4.0219	-0.7210	25.81	-0.08	-0.750			
0.0836	5349.12	4.0190	4.0191	-0.7225	25.81	-0.08	-0.750			
0.0857	5484.92	4.0160	4.0159	-0.7206	25.82	-0.07	-0.750			
0.0879	5625.19	4.0130	4.0130	-0.7270	25.82	-0.07	-0.750			
0.0901	5765.55	4.0100	4.0100	-0.7288	25.82	-0.07	-0.750			
0.0923	5906.05	4.0070	4.0069	-0.7305	25.82	-0.07	-0.750			
0.0945	6047.14	4.0040	4.0040	-0.7342	25.82	-0.07	-0.750			
0.0967	6188.55	4.0010	4.0010	-0.7397	25.82	-0.07	-0.750			
0.0989	6330.71	3.9980	3.9979	-0.7387	25.83	-0.06	-0.750			
0.1012	6473.84	3.9950	3.9949	-0.7402	25.83	-0.06	-0.750			
0.1034	6615.74	3.9920	3.9925	-0.7439	25.83	-0.06	-0.750			
0.1056	6758.50	3.9890	3.9889	-0.7459	25.83	-0.06	-0.750			
0.1078	6900.66	3.9860	3.9860	-0.7514	25.83	-0.06	-0.750			
0.1101	7045.77	3.9830	3.9828	-0.7508	25.84	-0.05	-0.750			
0.1124	7192.52	3.9800	3.9801	-0.7573	25.84	-0.05	-0.750			
0.1146	7336.57	3.9770	3.9769	-0.7579	25.84	-0.05	-0.750			
0.1169	7482.18	3.9740	3.9741	-0.7607	25.84	-0.05	-0.750			
0.1192	7628.40	3.9710	3.9709	-0.7587	25.84	-0.05	-0.750			
0.1214	7772.61	3.9680	3.9680	-0.7607	25.84	-0.05	-0.750			
0.1237	7919.84	3.9650	3.9651	-0.7561	25.85	-0.04	-0.750			
0.1260	8066.39	3.9620	3.9620	-0.7635	25.85	-0.04	-0.750			
0.1283	8212.15	3.9590	3.9592	-0.7660	25.85	-0.04	-0.750			
0.1306	8358.59	3.9560	3.9560	-0.7654	25.85	-0.04	-0.750			
0.1329	8504.53	3.9530	3.9528	-0.7695	25.86	-0.03	-0.750			
0.1352	8654.39	3.9500	3.9500	-0.7715	25.86	-0.03	-0.750			
0.1376	8804.09	3.9470	3.9471	-0.7742	25.86	-0.03	-0.750			
0.1399	8953.45	3.9440	3.9439	-0.7732	25.87	-0.02	-0.750			
0.1422	9099.89	3.9410	3.9411	-0.7718	25.87	-0.02	-0.750			
0.1445	9247.26	3.9380	3.9379	-0.7790	25.88	-0.01	-0.750			
0.1468	9395.95	3.9350	3.9350	-0.7824	25.88	-0.01	-0.750			
0.1492	9546.96	3.9320	3.9320	-0.7862	25.88	-0.01	-0.750			
0.1516	9702.61	3.9290	3.9289	-0.7912	25.89	-0.00	-0.750			
0.1540	9854.55	3.9260	3.9261	-0.7875	25.89	0.00	-0.750			
0.1563	10005.73	3.9230	3.9231	-0.7855	25.89	0.00	-0.750			
0.1587	10154.60	3.9200	3.9199	-0.7872	25.89	0.00	-0.750			
0.1610	10304.62	3.9170	3.9170	-0.7865	25.90	0.01	-0.750			
0.1634	10456.96	3.9140	3.9139	-0.7937	25.90	0.01	-0.750			
0.1658	10609.83	3.9110	3.9112	-0.7969	25.90	0.01	-0.750			
0.1682	10764.78	3.9080	3.9080	-0.8054	25.91	0.02	-0.750			
0.1706	10919.32	3.9050	3.9049	-0.8108	25.91	0.02	-0.750			
0.1731	11075.98	3.9020	3.9019	-0.8096	25.92	0.03	-0.750			
0.1755	11232.73	3.8990	3.8990	-0.8141	25.92	0.03	-0.750			
0.1779	11388.67	3.8960	3.8962	-0.8102	25.93	0.04	-0.750			
0.1804	11545.32	3.8930	3.8929	-0.8107	25.93	0.04	-0.750			
0.1828	11699.83	3.8900	3.8899	-0.8103	25.93	0.04	-0.750			
0.1852	11854.11	3.8870	3.8870	-0.8087	25.93	0.04	-0.750			
0.1876	12008.82	3.8840	3.8840	-0.8055	25.93	0.04	-0.750			
0.1901	12166.42	3.8810	3.8810	-0.8100	25.93	0.04	-0.750			
0.1925	12320.80	3.8780	3.8780	-0.8091	25.93	0.04	-0.750			
0.1949	12476.13	3.8750	3.8750	-0.8085	25.94	0.05	-0.750			
0.1974	12630.43	3.8720	3.8720	-0.8067	25.94	0.05	-0.750			
0.1998	12784.34	3.8690	3.8691	-0.8065	25.94	0.05	-0.750			
0.2022	12940.11	3.8660	3.8660	-0.8083	25.95	0.06	-0.750			
0.2046	13095.08	3.8630	3.8629	-0.8128	25.95	0.06	-0.750			
0.2070	13249.33	3.8600	3.8601	-0.8190	25.95	0.06	-0.750			
0.2095	13408.79	3.8570	3.8568	-0.8215	25.95	0.06	-0.750			
0.2120	13568.51	3.8540	3.8540	-0.8271	25.96	0.07	-0.750			
0.2145	13729.06	3.8510	3.8510	-0.8214	25.96	0.07	-0.750			
0.2170	13886.97	3.8480	3.8480	-0.8194	25.96	0.07	-0.750			
0.2194	14042.40	3.8450	3.8450	-0.8242	25.97	0.08	-0.750			
0.2218	14198.10	3.8420	3.8419	-0.8174	25.97	0.08	-0.750			
0.2243	14355.05	3.8390	3.8389	-0.8178	25.97	0.08	-0.750			
0.2268	14513.96	3.8360	3.8360	-0.8190	25.98	0.09	-0.750			
0.2293	14672.11	3.8330	3.8331	-0.8195	25.98	0.09	-0.750			
0.2317	14829.27	3.8300	3.8300	-0.8239	25.99	0.10	-0.750			
0.2341	14985.11	3.8270	3.8269	-0.8166	25.99	0.10	-0.750			
0.2366	15140.98	3.8240	3.8240	-0.8131	25.99	0.10	-0.750			
0.2391	15300.09	3.8210	3.8209	-0.8177	26.00	0.11	-0.750			
0.2415	15457.82	3.8180	3.8181	-0.8162	26.00	0.11	-0.750			
0.2440	15614.15	3.8150	3.8150	-0.8141	26.00	0.11	-0.750			
0.2464	15769.51	3.8120	3.8120	-0.8131	26.00	0.11	-0.750			
0.2488	15924.99	3.8090	3.8089	-0.8062	26.01	0.12	-0.750			
0.2513	16081.97	3.8060	3.8060	-0.8072	26.01	0.12	-0.750			
0.2537	16236.25	3.8030	3.8032	-0.8053	26.01	0.12	-0.750			
0.2561	16390.07	3.8000	3.8000	-0.7999	26.01	0.12	-0.750			
0.2585	16544.03	3.7970	3.7969	-0.7975	26.02	0.13	-0.750			
0.2609	16694.53	3.7940	3.7941	-0.7933	26.02	0.13	-0.750			
0.2633	16848.60	3.7910	3.7910	-0.7930	26.03	0.14	-0.750			
0.2656	16999.96	3.7880	3.7881	-0.7888	26.03	0.14	-0.750			
0.2680	17151.81	3.7850	3.7850	-0.7825	26.03	0.14	-0.750			
0.2703	17300.16	3.7820	3.7820	-0.7802	26.04	0.15	-0.750			
0.2727	17449.87	3.7790	3.7790	-0.7769	26.04	0.15	-0.750			
0.2750	17598.16	3.7760	3.7760	-0.7752	26.04	0.15	-0.750			
0.2773	17747.25	3.7730	3.7729	-0.7724	26.05	0.16	-0.750			
0.2796	17895.67	3.7700	3.7700	-0.7741	26.05	0.16	-0.750			
0.2819	18043.87	3.7670	3.7670	-0.7711	26.06	0.17	-0.750			
0.2843	18192.90	3.7640	3.7640	-0.7674	26.06	0.17	-0.750			
0.2865	18338.13	3.7610	3.7610	-0.7652	26.06	0.17	-0.750			
0.2888	18485.78	3.7580	3.7579	-0.7667	26.07	0.18	-0.750			
0.2911	18631.98	3.7550	3.7551	-0.7665	26.07	0.18	-0.750			
0.2934	18779.54	3.7520	3.7520	-0.7674	26.07	0.18	-0.750			
0.2957	18926.29	3.7490	3.7491	-0.7735	26.07	0.18	-0.750			
0.2981	19076.41	3.7460	3.7460	-0.7792	26.08	0.19	-0.750			
0.3004	19226.34	3.7430	3.7429	-0.7858	26.08	0.19	-0.750			
0.3028	19376.72	3.7400	3.7399	-0.7899	26.08	0.19	-0.750			
0.3051	19529.58	3.7370	3.7370	-0.7962	26.08	0.19	-0.750			
0.3075	19681.91	3.7340	3.7340	-0.8073	26.08	0.19	-0.750			
0.3100	19837.94	3.7310	3.7310	-0.8148	26.09	0.20	-0.750			
0.3124	19993.56	3.7280	3.7280	-0.8251	26.09	0.20	-0.750			
0.3149	20153.98	3.7250	3.7250	-0.8393	26.09	0.20	-0.750			
0.3174	20315.90	3.7220	3.7220	-0.8518	26.09	0.20	-0.750			
0.3200	20481.45	3.7190	3.7189	-0.8680	26.09	0.20	-0.750			
0.3227	20651.05	3.7160	3.7160	-0.8739	26.09	0.20	-0.750			
0.3253	20819.15	3.7130	3.7130	-0.8807	26.09	0.20	-0.750			
0.3280	20990.30	3.7100	3.7101	-0.8958	26.09	0.20	-0.750			
0.3306	21159.69	3.7070	3.7069	-0.9145	26.09	0.20	-0.750			
0.3334	21337.75	3.7040	3.7039	-0.9264	26.09	0.20	-0.750			
0.3362	21515.70	3.7010	3.7010	-0.9447	26.09	0.20	-0.750			
0.3390	21698.35	3.6980	3.6980	-0.9682	26.09	0.20	-0.750			
0.3420	21889.79	3.6950	3.6951	-0.9962	26.09	0.20	-0.750			
0.3450	22082.51	3.6920	3.6918	-1.0095	26.09	0.20	-0.750			
0.3481	22276.29	3.6890	3.6890	-1.0286	26.09	0.20	-0.750			
0.3511	22472.64	3.6860	3.6861	-1.0549	26.09	0.20	-0.750			
0.3544	22679.80	3.6830	3.6830	-1.0966	26.09	0.20	-0.750			
0.3577	22894.43	3.6800	3.6799	-1.1168	26.08	0.19	-0.750			
0.3612	23113.98	3.6770	3.6769	-1.1336	26.08	0.19	-0.750			
0.3646	23337.13	3.6740	3.6740	-1.1557	26.07	0.18	-0.750			
0.3682	23562.02	3.6710	3.6710	-1.1749	26.07	0.18	-0.750			
0.3717	23785.83	3.6680	3.6678	-1.1841	26.06	0.17	-0.750			
0.3752	24012.27	3.6650	3.6650	-1.1991	26.06	0.17	-0.750			
0.3788	24240.26	3.6620	3.6622	-1.2283	26.05	0.16	-0.750			
0.3826	24484.75	3.6590	3.6590	-1.2631	26.05	0.16	-0.750			
0.3864	24728.59	3.6560	3.6559	-1.2915	26.04	0.15	-0.750			
0.3903	24978.31	3.6530	3.6531	-1.3248	26.04	0.15	-0.750			
0.3944	25239.96	3.6500	3.6499	-1.3543	26.03	0.14	-0.750			
0.3985	25502.10	3.6470	3.6469	-1.3744	26.03	0.14	-0.750			
0.4026	25768.48	3.6440	3.6442	-1.3970	26.02	0.13	-0.750			
0.4068	26037.11	3.6410	3.6409	-1.4159	26.02	0.13	-0.750			
0.4112	26314.52	3.6380	3.6379	-1.4324	26.01	0.12	-0.750			
0.4154	26588.28	3.6350	3.6351	-1.4470	26.01	0.12	-0.750			
0.4197	26863.23	3.6320	3.6321	-1.4688	26.00	0.11	-0.750			
0.4242	27147.60	3.6290	3.6290	-1.5198	26.00	0.11	-0.750			
0.4288	27442.10	3.6260	3.6261	-1.5535	25.99	0.10	-0.750			
0.4335	27745.14	3.6230	3.6227	-1.5860	25.98	0.09	-0.750			
0.4384	28057.07	3.6200	3.6200	-1.6289	25.97	0.08	-0.750			
0.4434	28377.22	3.6170	3.6171	-1.6652	25.97	0.08	-0.750	0.408	0.533	
0.4485	28702.23	3.6140	3.6140	-1.7184	25.97	0.08	-0.750			
0.4536	29033.56	3.6110	3.6111	-1.7496	25.97	0.08	-0.750			
0.4589	29370.22	3.6080	3.6082	-1.7772	25.96	0.07	-0.750			
0.4643	29716.12	3.6050	3.6052	-1.8061	25.95	0.06	-0.750			
0.4697	30062.35	3.6020	3.6020	-1.8348	25.95	0.06	-0.750			
0.4753	30417.32	3.5990	3.5988	-1.8705	25.94	0.05	-0.750			
0.4809	30774.85	3.5960	3.5958	-1.9080	25.94	0.05	-0.750			
0.4866	31144.42	3.5930	3.5931	-1.9545	25.93	0.04	-0.750			
0.4926	31527.94	3.5900	3.5901	-2.0003	25.93	0.04	-0.750			
0.4988	31925.76	3.5870	3.5870	-2.0187	25.93	0.04	-0.750			
0.5049	32311.73	3.5840	3.5841	-2.0559	25.93	0.04	-0.750			
0.5111	32709.87	3.5810	3.5810	-2.0872	25.93	0.04	-0.750			
0.5174	33113.46	3.5780	3.5781	-2.1147	25.93	0.04	-0.750			
0.5238	33521.49	3.5750	3.5747	-2.1466	25.93	0.04	-0.750			
0.5302	33934.62	3.5720	3.5721	-2.1909	25.93	0.04	-0.750			
0.5370	34366.02	3.5690	3.5691	-2.1998	25.92	0.03	-0.750			
0.5437	34794.27	3.5660	3.5662	-2.2306	25.92	0.03	-0.750			
0.5503	35216.66	3.5630	3.5630	-2.2312	25.92	0.03	-0.750			
0.5571	35652.69	3.5600	3.5597	-2.2514	25.92	0.03	-0.750			
0.5639	36090.53	3.5570	3.5572	-2.2500	25.92	0.03	-0.750			
0.5707	36523.93	3.5540	3.5540	-2.2476	25.92	0.03	-0.750			
0.5774	36952.51	3.5510	3.5510	-2.2282	25.93	0.04	-0.750			
0.5841	37382.55	3.5480	3.5479	-2.2193	25.93	0.04	-0.750			
0.5908	37811.14	3.5450	3.5450	-2.1841	25.93	0.04	-0.750			
0.5973	38227.28	3.5420	3.5420	-2.1615	25.94	0.05	-0.750			
0.6037	38638.99	3.5390	3.5392	-2.1501	25.95	0.06	-0.750			
0.6101	39049.03	3.5360	3.5359	-2.1388	25.95	0.06	-0.750			
0.6165	39458.48	3.5330	3.5331	-2.1027	25.95	0.06	-0.750			
0.6228	39861.84	3.5300	3.5298	-2.0682	25.96	0.07	-0.750			
0.6291	40262.80	3.5270	3.5272	-2.0370	25.97	0.08	-0.750			
0.6352	40651.14	3.5240	3.5237	-1.9943	25.97	0.08	-0.750			
0.6410	41025.80	3.5210	3.5209	-1.9378	25.97	0.08	-0.750			
0.6468	41394.12	3.5180	3.5182	-1.8899	25.98	0.09	-0.750			
0.6524	41755.93	3.5150	3.5150	-1.8440	26.00	0.11	-0.750			
0.6579	42104.44	3.5120	3.5120	-1.7888	26.01	0.12	-0.750			
0.6632	42447.54	3.5090	3.5089	-1.7453	26.02	0.13	-0.750			
0.6685	42782.61	3.5060	3.5060	-1.6907	26.04	0.15	-0.750			
0.6734	43096.22	3.5030	3.5031	-1.6155	26.05	0.16	-0.750			
0.6782	43403.04	3.5000	3.5002	-1.5623	26.06	0.17	-0.750			
0.6827	43695.43	3.4970	3.4969	-1.5067	26.08	0.19	-0.750			
0.6872	43978.73	3.4940	3.4938	-1.4557	26.10	0.21	-0.750			
0.6914	44249.42	3.4910	3.4912	-1.4153	26.11	0.22	-0.750			
0.6957	44524.03	3.4880	3.4880	-1.3768	26.13	0.24	-0.750			
0.6997	44783.99	3.4850	3.4849	-1.3294	26.14	0.25	-0.750			
0.7036	45033.36	3.4820	3.4823	-1.2827	26.15	0.26	-0.750			
0.7075	45278.39	3.4790	3.4789	-1.2445	26.16	0.27	-0.750			
0.7111	45508.12	3.4760	3.4759	-1.2028	26.17	0.28	-0.750			
0.7146	45733.25	3.4730	3.4730	-1.1631	26.19	0.30	-0.750			
0.7180	45955.10	3.4700	3.4699	-1.1355	26.20	0.31	-0.750			
0.7214	46171.68	3.4670	3.4669	-1.0947	26.22	0.33	-0.750			
0.7246	46377.08	3.4640	3.4641	-1.0566	26.23	0.34	-0.750			
0.7277	46576.00	3.4610	3.4612	-1.0199	26.25	0.36	-0.750			
0.7307	46766.77	3.4580	3.4579	-0.9938	26.26	0.37	-0.750			
0.7336	46953.58	3.4550	3.4550	-0.9589	26.27	0.38	-0.750			
0.7365	47133.81	3.4520	3.4520	-0.9333	26.28	0.39	-0.750			
0.7392	47310.53	3.4490	3.4488	-0.9103	26.28	0.39	-0.750			
0.7420	47485.37	3.4460	3.4460	-0.8976	26.29	0.40	-0.750			
0.7446	47652.77	3.4430	3.4429	-0.8860	26.31	0.42	-0.750			
0.7472	47819.36	3.4400	3.4399	-0.8763	26.32	0.43	-0.750			
0.7497	47983.52	3.4370	3.4370	-0.8701	26.33	0.44	-0.750			
0.7524	48154.07	3.4340	3.4339	-0.8864	26.34	0.45	-0.750			
0.7550	48322.64	3.4310	3.4309	-0.8992	26.34	0.45	-0.750			
0.7577	48495.98	3.4280	3.4280	-0.9176	26.35	0.46	-0.750			
0.7605	48671.26	3.4250	3.4250	-0.9330	26.36	0.47	-0.750			
0.7633	48852.08	3.4220	3.4220	-0.9535	26.36	0.47	-0.750			
0.7663	49042.10	3.4190	3.4190	-0.9726	26.37	0.48	-0.750			
0.7692	49231.40	3.4160	3.4159	-0.9831	26.38	0.49	-0.750			
0.7722	49423.16	3.4130	3.4131	-0.9888	26.40	0.51	-0.750			
0.7752	49615.12	3.4100	3.4100	-0.9770	26.41	0.52	-0.750			
0.7782	49803.70	3.4070	3.4070	-0.9657	26.42	0.53	-0.750			
0.7811	49988.00	3.4040	3.4041	-0.9525	26.43	0.54	-0.750			
0.7839	50169.31	3.4010	3.4010	-0.9277	26.43	0.54	-0.750			
0.7867	50345.99	3.3980	3.3979	-0.9021	26.44	0.55	-0.750			
0.7893	50517.18	3.3950	3.3950	-0.8744	26.45	0.56	-0.750			
0.7919	50683.89	3.3920	3.3920	-0.8440	26.45	0.56	-0.750			
0.7944	50843.29	3.3890	3.3889	-0.8156	26.46	0.57	-0.750			
0.7968	50996.07	3.3860	3.3860	-0.7814	26.46	0.57	-0.750			
0.7991	51141.10	3.3830	3.3831	-0.7523	26.47	0.58	-0.750			
0.8013	51284.31	3.3800	3.3799	-0.7270	26.48	0.59	-0.750			
0.8035	51421.21	3.3770	3.3772	-0.7001	26.48	0.59	-0.750			
0.8055	51552.58	3.3740	3.3740	-0.6745	26.49	0.60	-0.750			
0.8075	51680.44	3.3710	3.3710	-0.6519	26.49	0.60	-0.750			
0.8094	51801.70	3.3680	3.3680	-0.6273	26.50	0.61	-0.750			
0.8113	51920.24	3.3650	3.3649	-0.6038	26.51	0.62	-0.750			
0.8130	52033.13	3.3620	3.3619	-0.5801	26.51	0.62	-0.750			
0.8147	52143.10	3.3590	3.3590	-0.5596	26.52	0.63	-0.750			
0.8164	52247.45	3.3560	3.3562	-0.5382	26.52	0.63	-0.750			
0.8180	52348.90	3.3530	3.3529	-0.5175	26.53	0.64	-0.750			
0.8195	52445.85	3.3500	3.3499	-0.5001	26.53	0.64	-0.750			
0.8209	52538.88	3.3470	3.3470	-0.4806	26.54	0.65	-0.750			
0.8223	52630.25	3.3440	3.3440	-0.4667	26.54	0.65	-0.750			
0.8237	52718.68	3.3410	3.3410	-0.4518	26.55	0.66	-0.750			
0.8251	52803.97	3.3380	3.3381	-0.4375	26.55	0.66	-0.750			
0.8263	52886.11	3.3350	3.3349	-0.4216	26.55	0.66	-0.750			
0.8276	52965.99	3.3320	3.3320	-0.4080	26.56	0.67	-0.750			
0.8288	53041.75	3.3290	3.3290	-0.3921	26.56	0.67	-0.750			
0.8299	53116.01	3.3260	3.3261	-0.3806	26.57	0.68	-0.750			
0.8311	53188.18	3.3230	3.3229	-0.3683	26.57	0.68	-0.750			
0.8321	53257.15	3.3200	3.3201	-0.3557	26.58	0.69	-0.750			
0.8332	53324.00	3.3170	3.3170	-0.3466	26.58	0.69	-0.750			
0.8342	53389.25	3.3140	3.3140	-0.3383	26.59	0.70	-0.750			
0.8352	53453.82	3.3110	3.3109	-0.3284	26.59	0.70	-0.750			
0.8362	53515.92	3.3080	3.3080	-0.3177	26.60	0.71	-0.750			
0.8371	53575.72	3.3050	3.3051	-0.3104	26.60	0.71	-0.750			
0.8380	53634.69	3.3020	3.3021	-0.3020	26.61	0.72	-0.750			
0.8389	53691.76	3.2990	3.2988	-0.2926	26.61	0.72	-0.750			
0.8398	53746.80	3.2960	3.2961	-0.2837	26.62	0.73	-0.750			
0.8406	53799.91	3.2930	3.2931	-0.2763	26.62	0.73	-0.750			
0.8414	53852.50	3.2900	3.2900	-0.2710	26.62	0.73	-0.750			
0.8422	53903.80	3.2870	3.2869	-0.2651	26.63	0.74	-0.750			
0.8430	53953.21	3.2840	3.2840	-0.2595	26.63	0.74	-0.750			
0.8438	54003.07	3.2810	3.2809	-0.2541	26.64	0.75	-0.750			
0.8446	54051.67	3.2780	3.2780	-0.2494	26.64	0.75	-0.750			
0.8453	54099.44	3.2750	3.2750	-0.2435	26.65	0.76	-0.750			
0.8460	54145.53	3.2720	3.2721	-0.2392	26.65	0.76	-0.750			
0.8467	54190.48	3.2690	3.2690	-0.2345	26.66	0.77	-0.750			
0.8474	54234.61	3.2660	3.2659	-0.2297	26.66	0.77	-0.750			
0.8481	54278.76	3.2630	3.2630	-0.2254	26.67	0.78	-0.750			
0.8488	54322.26	3.2600	3.2600	-0.2225	26.67	0.78	-0.750			
0.8494	54364.46	3.2570	3.2570	-0.2175	26.68	0.79	-0.750			
0.8501	54405.57	3.2540	3.2540	-0.2138	26.68	0.79	-0.750			
0.8507	54445.60	3.2510	3.2511	-0.2080	26.68	0.79	-0.750			
0.8513	54485.01	3.2480	3.2479	-0.2064	26.69	0.80	-0.750			
0.8519	54524.14	3.2450	3.2450	-0.2034	26.69	0.80	-0.750			
0.8526	54563.23	3.2420	3.2419	-0.2000	26.70	0.81	-0.750			
0.8531	54601.21	3.2390	3.2391	-0.1979	26.70	0.81	-0.750			
0.8537	54639.39	3.2360	3.2361	-0.1959	26.70	0.81	-0.750			
0.8543	54676.76	3.2330	3.2330	-0.1931	26.71	0.82	-0.750			
0.8549	54713.28	3.2300	3.2299	-0.1901	26.71	0.82	-0.750			
0.8555	54749.19	3.2270	3.2271	-0.1872	26.72	0.83	-0.750			
0.8560	54784.99	3.2240	3.2240	-0.1857	26.72	0.83	-0.750			
0.8566	54820.87	3.2210	3.2210	-0.1832	26.73	0.84	-0.750			
0.8571	54856.18	3.2180	3.2179	-0.1809	26.73	0.84	-0.750			
0.8577	54889.98	3.2150	3.2151	-0.1776	26.74	0.85	-0.750			
0.8582	54923.88	3.2120	3.2121	-0.1756	26.74	0.85	-0.750			
0.8587	54957.46	3.2090	3.2090	-0.1736	26.75	0.86	-0.750			
0.8592	54990.47	3.2060	3.2059	-0.1713	26.75	0.86	-0.750			
0.8597	55023.09	3.2030	3.2030	-0.1690	26.76	0.87	-0.750			
0.8602	55055.38	3.2000	3.2001	-0.1673	26.76	0.87	-0.750			
0.8607	55087.51	3.1970	3.1970	-0.1663	26.76	0.87	-0.750			
0.8612	55119.29	3.1940	3.1940	-0.1645	26.77	0.88	-0.750			
0.8617	55150.39	3.1910	3.1909	-0.1623	26.77	0.88	-0.750			
0.8622	55181.57	3.1880	3.1880	-0.1602	26.78	0.89	-0.750			
0.8627	55212.21	3.1850	3.1851	-0.1591	26.78	0.89	-0.750			
0.8632	55242.64	3.1820	3.1819	-0.1575	26.78	0.89	-0.750			
0.8636	55272.62	3.1790	3.1790	-0.1568	26.79	0.90	-0.750			
0.8641	55302.67	3.1760	3.1759	-0.1550	26.79	0.90	-0.750			
0.8646	55332.11	3.1730	3.1731	-0.1535	26.80	0.91	-0.750			
0.8650	55361.78	3.1700	3.1700	-0.1523	26.80	0.91	-0.750			
0.8655	55390.82	3.1670	3.1671	-0.1506	26.80	0.91	-0.750			
0.8659	55419.85	3.1640	3.1640	-0.1489	26.80	0.91	-0.750			
0.8664	55448.04	3.1610	3.1609	-0.1471	26.81	0.92	-0.750			
0.8668	55476.23	3.1580	3.1580	-0.1448	26.81	0.92	-0.750			
0.8672	55503.54	3.1550	3.1551	-0.1431	26.82	0.93	-0.750			
0.8677	55531.05	3.1520	3.1520	-0.1420	26.83	0.94	-0.750			
0.8681	55557.95	3.1490	3.1491	-0.1418	26.83	0.94	-0.750			
0.8685	55585.00	3.1460	3.1459	-0.1404	26.84	0.95	-0.750			
0.8689	55611.87	3.1430	3.1431	-0.1395	26.84	0.95	-0.750			
0.8694	55638.59	3.1400	3.1400	-0.1389	26.85	0.96	-0.750			
0.8698	55665.33	3.1370	3.1371	-0.1379	26.85	0.96	-0.750			
0.8702	55692.13	3.1340	3.1339	-0.1372	26.86	0.97	-0.750			
0.8706	55718.19	3.1310	3.1311	-0.1353	26.87	0.98	-0.750			
0.8710	55743.82	3.1280	3.1280	-0.1345	26.87	0.98	-0.750			
0.8714	55769.23	3.1250	3.1250	-0.1333	26.88	0.99	-0.750			
0.8718	55794.92	3.1220	3.1220	-0.1327	26.88	0.99	-0.750			
0.8722	55820.32	3.1190	3.1189	-0.1317	26.89	1.00	-0.750			
0.8726	55845.40	3.1160	3.1161	-0.1307	26.89	1.00	-0.750			
0.8730	55870.66	3.1130	3.1129	-0.1296	26.90	1.01	-0.750			
0.8734	55895.42	3.1100	3.1100	-0.1283	26.90	1.01	-0.750			
0.8737	55919.90	3.1070	3.1071	-0.1279	26.91	1.02	-0.750			
0.8741	55944.30	3.1040	3.1040	-0.1263	26.91	1.02	-0.750			
0.8745	55968.46	3.1010	3.1009	-0.1254	26.92	1.03	-0.750			
0.8749	55992.40	3.0980	3.0979	-0.1246	26.92	1.03	-0.750			
0.8753	56016.24	3.0950	3.0951	-0.1237	26.93	1.04	-0.750			
0.8756	56039.90	3.0920	3.0920	-0.1229	26.93	1.04	-0.750			
0.8760	56063.56	3.0890	3.0889	-0.1223	26.93	1.04	-0.750			
0.8764	56086.87	3.0860	3.0861	-0.1213	26.94	1.05	-0.750			
0.8767	56109.80	3.0830	3.0830	-0.1200	26.94	1.05	-0.750			
0.8771	56132.81	3.0800	3.0801	-0.1195	26.95	1.06	-0.750			
0.8774	56155.91	3.0770	3.0770	-0.1191	26.95	1.06	-0.750			
0.8778	56178.62	3.0740	3.0740	-0.1180	26.95	1.06	-0.750			
0.8781	56201.20	3.0710	3.0709	-0.1172	26.96	1.07	-0.750			
0.8785	56223.65	3.0680	3.0680	-0.1166	26.96	1.07	-0.750			
0.8788	56245.95	3.0650	3.0650	-0.1158	26.97	1.08	-0.750			
0.8792	56268.21	3.0620	3.0620	-0.1144	26.97	1.08	-0.750			
0.8795	56290.23	3.0590	3.0590	-0.1134	26.98	1.09	-0.750			
0.8799	56311.59	3.0560	3.0561	-0.1135	26.99	1.10	-0.750			
0.8802	56333.10	3.0530	3.0531	-0.1128	26.99	1.10	-0.750			
0.8805	56354.86	3.0500	3.0499	-0.1120	27.00	1.11	-0.750			
0.8809	56376.26	3.0470	3.0468	-0.1114	27.00	1.11	-0.750			
0.8812	56397.61	3.0440	3.0439	-0.1109	27.01	1.12	-0.750			
0.8815	56418.83	3.0410	3.0412	-0.1104	27.01	1.12	-0.750			
0.8819	56440.02	3.0380	3.0380	-0.1097	27.02	1.13	-0.750			
0.8822	56461.37	3.0350	3.0349	-0.1093	27.02	1.13	-0.750			
0.8825	56482.11	3.0320	3.0320	-0.1088	27.03	1.14	-0.750			
0.8829	56502.50	3.0290	3.0291	-0.1077	27.03	1.14	-0.750			
0.8832	56523.24	3.0260	3.0260	-0.1073	27.04	1.15	-0.750			
0.8835	56544.00	3.0230	3.0230	-0.1071	27.04	1.15	-0.750			
0.8838	56564.52	3.0200	3.0200	-0.1064	27.05	1.16	-0.750			
0.8841	56584.87	3.0170	3.0170	-0.1058	27.05	1.16	-0.750			
0.8845	56605.25	3.0140	3.0138	-0.1042	27.06	1.17	-0.750			
0.8848	56625.46	3.0110	3.0110	-0.1031	27.06	1.17	-0.750			
0.8851	56645.09	3.0080	3.0081	-0.1014	27.07	1.18	-0.751			
0.8854	56664.56	3.0050	3.0051	-0.0989	27.07	1.18	-0.751			
0.8857	56683.33	3.0020	3.0020	-0.0965	27.08	1.19	-0.751			
