Ah_balance (normalized)	Ah_balance (mAh)	Voltage - fit (V)	Voltage -  interpolate (V)	dQ/dV (1/V)	Temperature (°C)	Temperature - diff (°C)	Current (C)	R_DC 0ms (mOhm)	R_DC 50ms (mOhm)	R_DC 50 ms PEC (mOhm)
0.0570	3648.72	4.1980	4.1980	0.7717	25.81	-0.16	0.750			
0.0592	3791.97	4.1950	4.1950	0.7416	25.81	-0.16	0.750			
0.0615	3933.41	4.1920	4.1921	0.7395	25.81	-0.16	0.750			
0.0637	4074.04	4.1890	4.1890	0.7441	25.81	-0.16	0.750			
0.0659	4217.43	4.1860	4.1860	0.7497	25.81	-0.16	0.750			
0.0681	4361.16	4.1830	4.1830	0.7502	25.81	-0.16	0.750			
0.0705	4508.92	4.1800	4.1799	0.7490	25.81	-0.16	0.750			
0.0727	4652.97	4.1770	4.1772	0.7464	25.81	-0.16	0.750			
0.0749	4795.87	4.1740	4.1741	0.7414	25.81	-0.16	0.750			
0.0771	4936.35	4.1710	4.1708	0.7443	25.81	-0.16	0.750			
0.0793	5076.85	4.1680	4.1681	0.7401	25.81	-0.16	0.750			
0.0816	5220.99	4.1650	4.1649	0.7425	25.81	-0.16	0.750			
0.0838	5364.74	4.1620	4.1621	0.7531	25.82	-0.15	0.750			
0.0861	5509.07	4.1590	4.1590	0.7583	25.82	-0.15	0.750			
0.0884	5656.08	4.1560	4.1560	0.7615	25.82	-0.15	0.750			
0.0907	5803.59	4.1530	4.1529	0.7601	25.82	-0.15	0.750			
0.0930	5949.30	4.1500	4.1502	0.7582	25.82	-0.15	0.750			
0.0953	6097.89	4.1470	4.1471	0.7548	25.82	-0.15	0.750			
0.0975	6241.05	4.1440	4.1439	0.7508	25.82	-0.15	0.750			
0.0997	6381.10	4.1410	4.1411	0.7436	25.82	-0.15	0.750			
0.1019	6524.03	4.1380	4.1379	0.7493	25.82	-0.15	0.750			
0.1042	6668.53	4.1350	4.1350	0.7600	25.82	-0.15	0.750			
0.1065	6818.24	4.1320	4.1319	0.7601	25.82	-0.15	0.750			
0.1088	6965.24	4.1290	4.1290	0.7665	25.82	-0.15	0.750			
0.1111	7111.58	4.1260	4.1260	0.7680	25.82	-0.15	0.750			
0.1134	7259.94	4.1230	4.1232	0.7670	25.82	-0.15	0.750			
0.1157	7406.81	4.1200	4.1200	0.7641	25.82	-0.15	0.750			
0.1180	7552.85	4.1170	4.1171	0.7670	25.83	-0.14	0.750			
0.1203	7700.06	4.1140	4.1141	0.7600	25.83	-0.14	0.750			
0.1226	7846.01	4.1110	4.1110	0.7647	25.84	-0.13	0.750			
0.1249	7991.32	4.1080	4.1080	0.7663	25.84	-0.13	0.750			
0.1272	8138.63	4.1050	4.1047	0.7747	25.85	-0.12	0.750			
0.1295	8289.56	4.1020	4.1021	0.7826	25.85	-0.12	0.750			
0.1319	8440.71	4.0990	4.0991	0.7865	25.85	-0.12	0.750			
0.1343	8593.74	4.0960	4.0960	0.7908	25.85	-0.12	0.750			
0.1367	8747.98	4.0930	4.0930	0.7956	25.85	-0.12	0.750			
0.1390	8896.76	4.0900	4.0899	0.7913	25.85	-0.12	0.750			
0.1414	9049.48	4.0870	4.0870	0.7912	25.85	-0.12	0.750			
0.1438	9203.46	4.0840	4.0840	0.7871	25.85	-0.12	0.750			
0.1462	9354.14	4.0810	4.0811	0.7862	25.85	-0.12	0.750			
0.1485	9504.52	4.0780	4.0781	0.7874	25.86	-0.11	0.750			
0.1508	9654.22	4.0750	4.0750	0.7906	25.86	-0.11	0.750			
0.1532	9805.50	4.0720	4.0721	0.7873	25.86	-0.11	0.750			
0.1556	9956.87	4.0690	4.0691	0.7906	25.86	-0.11	0.750			
0.1580	10110.85	4.0660	4.0660	0.7910	25.86	-0.11	0.750			
0.1603	10261.19	4.0630	4.0630	0.7970	25.87	-0.10	0.750			
0.1627	10412.70	4.0600	4.0600	0.7981	25.87	-0.10	0.750			
0.1651	10565.95	4.0570	4.0566	0.8073	25.87	-0.10	0.750			
0.1675	10720.84	4.0540	4.0541	0.8143	25.87	-0.10	0.750			
0.1700	10880.82	4.0510	4.0510	0.8169	25.88	-0.09	0.750			
0.1725	11039.50	4.0480	4.0480	0.8211	25.88	-0.09	0.750			
0.1749	11196.25	4.0450	4.0451	0.8163	25.89	-0.08	0.750			
0.1774	11353.55	4.0420	4.0418	0.8176	25.89	-0.08	0.750			
0.1799	11511.02	4.0390	4.0390	0.8169	25.89	-0.08	0.750			
0.1823	11666.75	4.0360	4.0360	0.8173	25.90	-0.07	0.750			
0.1848	11824.13	4.0330	4.0331	0.8206	25.90	-0.07	0.750			
0.1872	11981.52	4.0300	4.0299	0.8210	25.91	-0.06	0.750			
0.1897	12138.52	4.0270	4.0269	0.8224	25.91	-0.06	0.750			
0.1921	12296.27	4.0240	4.0241	0.8251	25.91	-0.06	0.750			
0.1946	12455.99	4.0210	4.0210	0.8217	25.91	-0.06	0.750			
0.1971	12612.99	4.0180	4.0179	0.8295	25.91	-0.06	0.750			
0.1995	12770.83	4.0150	4.0153	0.8285	25.91	-0.06	0.750			
0.2021	12931.77	4.0120	4.0118	0.8367	25.91	-0.06	0.750			
0.2046	13093.59	4.0090	4.0090	0.8416	25.91	-0.06	0.750			
0.2071	13256.94	4.0060	4.0062	0.8421	25.92	-0.05	0.750			
0.2097	13417.83	4.0030	4.0031	0.8487	25.92	-0.05	0.750			
0.2122	13581.03	4.0000	4.0000	0.8463	25.93	-0.04	0.750			
0.2147	13743.20	3.9970	3.9968	0.8482	25.93	-0.04	0.750			
0.2173	13906.79	3.9940	3.9940	0.8497	25.93	-0.04	0.750			
0.2198	14069.57	3.9910	3.9911	0.8471	25.93	-0.04	0.750			
0.2224	14232.19	3.9880	3.9881	0.8542	25.94	-0.03	0.750			
0.2249	14395.11	3.9850	3.9850	0.8537	25.94	-0.03	0.750			
0.2275	14560.22	3.9820	3.9815	0.8546	25.94	-0.03	0.750			
0.2301	14725.62	3.9790	3.9791	0.8562	25.94	-0.03	0.750			
0.2327	14890.06	3.9760	3.9762	0.8577	25.94	-0.03	0.750			
0.2353	15057.56	3.9730	3.9730	0.8610	25.94	-0.03	0.750			
0.2378	15222.40	3.9700	3.9699	0.8662	25.94	-0.03	0.750			
0.2404	15383.19	3.9670	3.9671	0.8613	25.94	-0.03	0.750			
0.2430	15551.54	3.9640	3.9640	0.8634	25.94	-0.03	0.750			
0.2456	15720.54	3.9610	3.9610	0.8674	25.94	-0.03	0.750			
0.2482	15885.74	3.9580	3.9581	0.8681	25.95	-0.02	0.750			
0.2508	16052.46	3.9550	3.9550	0.8629	25.95	-0.02	0.750			
0.2534	16217.68	3.9520	3.9519	0.8631	25.95	-0.02	0.750			
0.2560	16383.12	3.9490	3.9491	0.8600	25.95	-0.02	0.750			
0.2585	16546.76	3.9460	3.9460	0.8666	25.95	-0.02	0.750			
0.2612	16714.59	3.9430	3.9430	0.8703	25.95	-0.02	0.750			
0.2638	16881.41	3.9400	3.9400	0.8734	25.95	-0.02	0.750			
0.2664	17049.21	3.9370	3.9371	0.8781	25.95	-0.02	0.750			
0.2691	17222.53	3.9340	3.9339	0.8767	25.95	-0.02	0.750			
0.2717	17388.56	3.9310	3.9310	0.8806	25.94	-0.03	0.750			
0.2743	17556.99	3.9280	3.9281	0.8882	25.94	-0.03	0.750			
0.2770	17726.68	3.9250	3.9246	0.8908	25.94	-0.03	0.750			
0.2797	17901.07	3.9220	3.9220	0.8885	25.94	-0.03	0.750			
0.2824	18071.88	3.9190	3.9191	0.8869	25.94	-0.03	0.750			
0.2850	18242.38	3.9160	3.9161	0.8873	25.93	-0.04	0.750			
0.2877	18415.19	3.9130	3.9129	0.8913	25.93	-0.04	0.750			
0.2903	18579.92	3.9100	3.9100	0.8837	25.93	-0.04	0.750			
0.2930	18750.30	3.9070	3.9070	0.8841	25.93	-0.04	0.750			
0.2956	18920.56	3.9040	3.9040	0.8995	25.92	-0.05	0.750			
0.2984	19095.02	3.9010	3.9010	0.9146	25.92	-0.05	0.750			
0.3011	19271.40	3.8980	3.8980	0.9250	25.91	-0.06	0.750			
0.3039	19451.84	3.8950	3.8950	0.9285	25.91	-0.06	0.750			
0.3068	19633.91	3.8920	3.8919	0.9256	25.90	-0.07	0.750			
0.3095	19811.18	3.8890	3.8893	0.9265	25.90	-0.07	0.750			
0.3123	19989.31	3.8860	3.8860	0.9246	25.89	-0.08	0.750			
0.3150	20163.06	3.8830	3.8830	0.9142	25.89	-0.08	0.750			
0.3178	20339.18	3.8800	3.8800	0.9011	25.89	-0.08	0.750			
0.3205	20510.19	3.8770	3.8771	0.9044	25.88	-0.09	0.750			
0.3232	20687.22	3.8740	3.8741	0.9120	25.88	-0.09	0.750			
0.3259	20858.76	3.8710	3.8711	0.9143	25.87	-0.10	0.750			
0.3286	21033.04	3.8680	3.8681	0.9228	25.87	-0.10	0.750			
0.3314	21212.77	3.8650	3.8650	0.9275	25.86	-0.11	0.750			
0.3343	21392.26	3.8620	3.8621	0.9388	25.85	-0.12	0.750			
0.3371	21575.24	3.8590	3.8591	0.9428	25.85	-0.12	0.750			
0.3399	21755.97	3.8560	3.8557	0.9406	25.84	-0.13	0.750			
0.3428	21939.29	3.8530	3.8530	0.9365	25.83	-0.14	0.750			
0.3456	22117.82	3.8500	3.8501	0.9376	25.83	-0.14	0.750			
0.3484	22296.59	3.8470	3.8471	0.9479	25.82	-0.15	0.750			
0.3512	22477.71	3.8440	3.8440	0.9515	25.81	-0.16	0.750			
0.3541	22661.69	3.8410	3.8410	0.9558	25.81	-0.16	0.750			
0.3570	22848.85	3.8380	3.8381	0.9608	25.80	-0.17	0.750			
0.3599	23032.89	3.8350	3.8351	0.9648	25.80	-0.17	0.750			
0.3628	23219.91	3.8320	3.8319	0.9726	25.79	-0.18	0.750			
0.3657	23403.81	3.8290	3.8290	0.9733	25.79	-0.18	0.750			
0.3686	23590.32	3.8260	3.8259	0.9684	25.78	-0.19	0.750			
0.3715	23776.58	3.8230	3.8231	0.9765	25.77	-0.20	0.750			
0.3744	23963.91	3.8200	3.8201	0.9913	25.76	-0.21	0.750			
0.3774	24155.14	3.8170	3.8164	0.9992	25.75	-0.22	0.750			
0.3804	24346.51	3.8140	3.8141	0.9981	25.75	-0.22	0.750			
0.3834	24539.57	3.8110	3.8111	1.0085	25.74	-0.23	0.750			
0.3865	24734.52	3.8080	3.8082	1.0268	25.74	-0.23	0.750			
0.3896	24935.80	3.8050	3.8047	1.0485	25.73	-0.24	0.750			
0.3927	25131.00	3.8020	3.8021	1.0495	25.72	-0.25	0.750			
0.3959	25334.68	3.7990	3.7992	1.0633	25.72	-0.25	0.750			
0.3991	25543.24	3.7960	3.7960	1.0871	25.71	-0.26	0.750			
0.4025	25757.87	3.7930	3.7927	1.0904	25.70	-0.27	0.750			
0.4057	25964.13	3.7900	3.7900	1.1029	25.69	-0.28	0.750			
0.4090	26174.50	3.7870	3.7870	1.1166	25.69	-0.28	0.750			
0.4123	26389.95	3.7840	3.7841	1.1393	25.68	-0.29	0.750			
0.4158	26611.14	3.7810	3.7810	1.1441	25.68	-0.29	0.750			
0.4193	26832.26	3.7780	3.7781	1.1826	25.67	-0.30	0.750			
0.4228	27058.32	3.7750	3.7752	1.2175	25.67	-0.30	0.750			
0.4265	27296.97	3.7720	3.7718	1.2581	25.66	-0.31	0.750			
0.4303	27542.22	3.7690	3.7693	1.2737	25.66	-0.31	0.750	0.319	0.455	
0.4343	27793.73	3.7660	3.7662	1.3018	25.65	-0.32	0.750			
0.4383	28048.99	3.7630	3.7631	1.3165	25.64	-0.33	0.750			
0.4423	28306.54	3.7600	3.7599	1.3441	25.63	-0.34	0.750			
0.4462	28559.73	3.7570	3.7570	1.3503	25.62	-0.35	0.750			
0.4504	28823.39	3.7540	3.7539	1.3578	25.61	-0.36	0.750			
0.4544	29084.48	3.7510	3.7511	1.3959	25.60	-0.37	0.750			
0.4587	29354.89	3.7480	3.7481	1.4177	25.59	-0.38	0.750			
0.4629	29624.34	3.7450	3.7450	1.4629	25.58	-0.39	0.750			
0.4672	29903.78	3.7420	3.7422	1.5144	25.57	-0.40	0.750			
0.4719	30204.70	3.7390	3.7385	1.5471	25.56	-0.41	0.750			
0.4767	30506.46	3.7360	3.7360	1.6027	25.54	-0.43	0.750			
0.4816	30822.55	3.7330	3.7328	1.6542	25.54	-0.43	0.750			
0.4867	31145.69	3.7300	3.7303	1.6808	25.53	-0.44	0.750			
0.4917	31469.86	3.7270	3.7268	1.7083	25.53	-0.44	0.750			
0.4969	31798.44	3.7240	3.7238	1.7553	25.51	-0.46	0.750			
0.5022	32138.21	3.7210	3.7207	1.8002	25.50	-0.47	0.750			
0.5077	32494.94	3.7180	3.7180	1.8746	25.49	-0.48	0.750			
0.5134	32859.65	3.7150	3.7149	1.9101	25.48	-0.49	0.750			
0.5193	33234.09	3.7120	3.7119	1.9854	25.47	-0.50	0.750			
0.5253	33619.38	3.7090	3.7091	2.0572	25.46	-0.51	0.750			
0.5317	34025.65	3.7060	3.7062	2.0856	25.45	-0.52	0.750			
0.5380	34431.69	3.7030	3.7033	2.1662	25.44	-0.53	0.750			
0.5446	34852.72	3.7000	3.7003	2.2210	25.44	-0.53	0.750			
0.5513	35281.02	3.6970	3.6968	2.3934	25.44	-0.53	0.750			
0.5584	35740.77	3.6940	3.6939	2.5404	25.43	-0.54	0.750			
0.5665	36253.57	3.6910	3.6910	2.6318	25.42	-0.55	0.750			
0.5749	36792.81	3.6880	3.6881	2.6685	25.42	-0.55	0.750			
0.5829	37305.89	3.6850	3.6851	2.7053	25.41	-0.56	0.750			
0.5908	37810.07	3.6820	3.6819	2.7372	25.40	-0.57	0.750			
0.5992	38349.59	3.6790	3.6792	2.7902	25.40	-0.57	0.750			
0.6080	38914.08	3.6760	3.6760	2.7970	25.41	-0.56	0.750			
0.6165	39458.71	3.6730	3.6730	2.6555	25.42	-0.55	0.750			
0.6241	39942.39	3.6700	3.6700	2.4278	25.42	-0.55	0.750			
0.6308	40373.05	3.6670	3.6671	2.1710	25.43	-0.54	0.750			
0.6369	40763.63	3.6640	3.6642	1.9676	25.44	-0.53	0.750			
0.6423	41108.08	3.6610	3.6610	1.8088	25.44	-0.53	0.750			
0.6474	41432.84	3.6580	3.6582	1.6762	25.45	-0.52	0.750			
0.6522	41742.88	3.6550	3.6546	1.5713	25.46	-0.51	0.750			
0.6568	42034.33	3.6520	3.6522	1.4806	25.47	-0.50	0.750			
0.6611	42309.98	3.6490	3.6491	1.3994	25.47	-0.50	0.750			
0.6651	42568.18	3.6460	3.6457	1.3124	25.48	-0.49	0.750			
0.6689	42806.69	3.6430	3.6431	1.2383	25.49	-0.48	0.750			
0.6724	43033.46	3.6400	3.6402	1.2018	25.49	-0.48	0.750			
0.6759	43256.77	3.6370	3.6369	1.1766	25.50	-0.47	0.750			
0.6793	43477.15	3.6340	3.6340	1.1559	25.50	-0.47	0.750			
0.6827	43694.06	3.6310	3.6311	1.1571	25.51	-0.46	0.750			
0.6862	43916.61	3.6280	3.6281	1.1673	25.51	-0.46	0.750			
0.6897	44143.99	3.6250	3.6245	1.1839	25.52	-0.45	0.750			
0.6933	44373.84	3.6220	3.6220	1.1789	25.53	-0.44	0.750			
0.6969	44601.23	3.6190	3.6191	1.1794	25.53	-0.44	0.750			
0.7005	44833.36	3.6160	3.6160	1.1669	25.54	-0.43	0.750			
0.7041	45060.12	3.6130	3.6129	1.1329	25.54	-0.43	0.750			
0.7074	45271.00	3.6100	3.6100	1.1087	25.55	-0.42	0.750			
0.7106	45476.91	3.6070	3.6071	1.1050	25.56	-0.41	0.750			
0.7138	45682.02	3.6040	3.6039	1.1013	25.57	-0.40	0.750			
0.7171	45894.04	3.6010	3.6010	1.1132	25.58	-0.39	0.750			
0.7204	46104.95	3.5980	3.5982	1.1278	25.58	-0.39	0.750			
0.7238	46325.20	3.5950	3.5950	1.1640	25.59	-0.38	0.750			
0.7274	46554.64	3.5920	3.5916	1.1944	25.60	-0.37	0.750			
0.7309	46779.78	3.5890	3.5890	1.2328	25.60	-0.37	0.750			
0.7347	47019.53	3.5860	3.5861	1.2714	25.60	-0.37	0.750			
0.7386	47272.37	3.5830	3.5829	1.3034	25.60	-0.37	0.750			
0.7426	47525.07	3.5800	3.5801	1.3638	25.60	-0.37	0.750			
0.7467	47789.82	3.5770	3.5771	1.4080	25.61	-0.36	0.750			
0.7511	48067.79	3.5740	3.5738	1.4279	25.62	-0.35	0.750			
0.7554	48347.72	3.5710	3.5711	1.4687	25.62	-0.35	0.750			
0.7598	48629.34	3.5680	3.5682	1.5072	25.62	-0.35	0.750			
0.7644	48924.14	3.5650	3.5646	1.5518	25.62	-0.35	0.750			
0.7691	49223.67	3.5620	3.5623	1.5697	25.63	-0.34	0.750			
0.7740	49533.41	3.5590	3.5592	1.5883	25.63	-0.34	0.750			
0.7789	49847.49	3.5560	3.5559	1.6180	25.64	-0.33	0.750			
0.7838	50160.63	3.5530	3.5528	1.6183	25.65	-0.32	0.750			
0.7887	50476.10	3.5500	3.5501	1.6358	25.66	-0.31	0.750			
0.7936	50790.07	3.5470	3.5470	1.6272	25.67	-0.30	0.750			
0.7984	51094.99	3.5440	3.5441	1.6615	25.67	-0.30	0.750			
0.8034	51416.51	3.5410	3.5410	1.6783	25.68	-0.29	0.750			
0.8086	51747.84	3.5380	3.5379	1.7249	25.70	-0.27	0.750			
0.8140	52096.29	3.5350	3.5348	1.6169	25.73	-0.24	0.750			
0.8191	52423.22	3.5320	3.5322	1.4802	25.75	-0.22	0.750			
0.8236	52713.32	3.5290	3.5299	1.2467	25.77	-0.20	0.750			
0.8273	52949.56	3.5260	3.5260	1.0000	25.79	-0.18	0.750			
0.8297	53097.94	3.5230	3.5227	0.7605	25.80	-0.17	0.750			
0.8312	53197.11	3.5200	3.5193	0.5579	25.81	-0.16	0.750			
0.8322	53262.46	3.5170	3.5169	0.4359	25.82	-0.15	0.750			
0.8334	53334.89	3.5140	3.5137	0.3807	25.83	-0.14	0.750			
0.8343	53398.37	3.5110	3.5110	0.3471	25.83	-0.14	0.750			
0.8353	53461.62	3.5080	3.5079	0.3253	25.84	-0.13	0.750			
0.8363	53520.45	3.5050	3.5050	0.3083	25.85	-0.12	0.750			
0.8372	53578.50	3.5020	3.5021	0.2956	25.85	-0.12	0.750			
0.8380	53633.11	3.4990	3.4990	0.2846	25.86	-0.11	0.750			
0.8388	53686.20	3.4960	3.4960	0.2764	25.86	-0.11	0.750			
0.8397	53737.75	3.4930	3.4929	0.2696	25.87	-0.10	0.750			
0.8404	53788.41	3.4900	3.4900	0.2639	25.87	-0.10	0.750			
0.8412	53838.78	3.4870	3.4871	0.2595	25.88	-0.09	0.750			
0.8420	53888.49	3.4840	3.4840	0.2540	25.88	-0.09	0.750			
0.8428	53937.45	3.4810	3.4810	0.2493	25.89	-0.08	0.750			
0.8435	53984.98	3.4780	3.4779	0.2428	25.90	-0.07	0.750			
0.8442	54030.33	3.4750	3.4751	0.2358	25.90	-0.07	0.750			
0.8449	54074.66	3.4720	3.4720	0.2315	25.91	-0.06	0.750			
0.8456	54118.63	3.4690	3.4690	0.2260	25.91	-0.06	0.750			
0.8463	54161.44	3.4660	3.4659	0.2200	25.92	-0.05	0.750			
0.8469	54203.02	3.4630	3.4629	0.2147	25.92	-0.05	0.750			
0.8476	54244.23	3.4600	3.4601	0.2103	25.93	-0.04	0.750			
0.8482	54284.01	3.4570	3.4570	0.2044	25.93	-0.04	0.750			
0.8488	54322.76	3.4540	3.4540	0.1991	25.94	-0.03	0.750			
0.8494	54360.35	3.4510	3.4509	0.1932	25.94	-0.03	0.750			
0.8499	54396.31	3.4480	3.4480	0.1872	25.95	-0.02	0.750			
0.8505	54432.34	3.4450	3.4450	0.1822	25.95	-0.02	0.750			
0.8510	54466.61	3.4420	3.4420	0.1772	25.96	-0.01	0.750			
0.8516	54500.12	3.4390	3.4391	0.1719	25.96	-0.01	0.750			
0.8521	54532.60	3.4360	3.4360	0.1657	25.97	-0.00	0.750			
0.8526	54563.98	3.4330	3.4330	0.1600	25.97	0.00	0.750			
0.8530	54594.03	3.4300	3.4300	0.1542	25.98	0.01	0.750			
0.8535	54623.09	3.4270	3.4272	0.1485	25.98	0.01	0.750			
0.8539	54651.24	3.4240	3.4239	0.1421	25.98	0.01	0.750			
0.8543	54678.20	3.4210	3.4210	0.1360	25.99	0.02	0.750			
0.8547	54703.45	3.4180	3.4181	0.1286	25.99	0.02	0.750			
0.8551	54727.75	3.4150	3.4150	0.1215	25.99	0.02	0.750			
0.8555	54750.79	3.4120	3.4120	0.1151	26.00	0.03	0.750			
0.8558	54772.22	3.4090	3.4091	0.1075	26.00	0.03	0.750			
0.8561	54793.24	3.4060	3.4059	0.0980	26.00	0.03	0.750			
0.8564	54811.07	3.4030	3.4029	0.0877	26.00	0.03	0.750			
0.8567	54827.70	3.4000	3.4000	0.0790	26.01	0.04	0.750			
0.8569	54841.79	3.3970	3.3973	0.0677	26.01	0.04	0.750			
0.8571	54854.59	3.3940	3.3945	0.0568	26.01	0.04	0.750			
0.8573	54864.30	3.3910	3.3918	0.0444	26.01	0.04	0.750			
0.8574	54871.63	3.3880	3.3893	0.0319	26.01	0.04	0.750			
0.8574	54876.57	3.3850	3.3871	0.0195	26.01	0.04	0.750			
