Ah_balance (normalized)	Ah_balance (mAh)	Voltage - fit (V)	Voltage -  interpolate (V)	dQ/dV (1/V)	Temperature (°C)	Temperature - diff (°C)	Current (C)	R_DC 0ms (mOhm)	R_DC 50ms (mOhm)	R_DC 50 ms PEC (mOhm)
0.0002	10.80	4.1580	4.1578	-0.1013	25.99	0.01	-0.750			
0.0005	34.25	4.1550	4.1547	-0.1407	25.99	0.01	-0.750			
0.0010	64.22	4.1520	4.1520	-0.1770	25.99	0.01	-0.750			
0.0016	100.88	4.1490	4.1491	-0.2160	25.99	0.01	-0.750			
0.0023	147.65	4.1460	4.1460	-0.2514	25.98	0.00	-0.750			
0.0031	199.92	4.1430	4.1429	-0.2839	25.98	0.00	-0.750			
0.0040	258.42	4.1400	4.1399	-0.3188	25.98	0.00	-0.750			
0.0050	322.98	4.1370	4.1372	-0.3513	25.98	-0.00	-0.750			
0.0062	393.85	4.1340	4.1340	-0.3830	25.98	-0.00	-0.750			
0.0073	470.16	4.1310	4.1309	-0.4118	25.98	-0.00	-0.750			
0.0086	552.37	4.1280	4.1281	-0.4371	25.97	-0.01	-0.750			
0.0100	641.06	4.1250	4.1250	-0.4667	25.97	-0.01	-0.750			
0.0115	733.50	4.1220	4.1220	-0.4931	25.97	-0.01	-0.750			
0.0130	830.39	4.1190	4.1190	-0.5123	25.97	-0.01	-0.750			
0.0146	931.80	4.1160	4.1159	-0.5312	25.96	-0.02	-0.750			
0.0162	1036.11	4.1130	4.1129	-0.5463	25.96	-0.02	-0.750			
0.0179	1143.32	4.1100	4.1101	-0.5606	25.96	-0.02	-0.750			
0.0196	1252.31	4.1070	4.1071	-0.5720	25.95	-0.03	-0.750			
0.0213	1363.27	4.1040	4.1040	-0.5825	25.95	-0.03	-0.750			
0.0230	1474.52	4.1010	4.1010	-0.5911	25.95	-0.03	-0.750			
0.0249	1591.02	4.0980	4.0980	-0.6038	25.94	-0.04	-0.750			
0.0267	1708.01	4.0950	4.0950	-0.6154	25.94	-0.04	-0.750			
0.0286	1827.64	4.0920	4.0920	-0.6226	25.93	-0.05	-0.750			
0.0305	1948.94	4.0890	4.0890	-0.6295	25.93	-0.05	-0.750			
0.0323	2069.66	4.0860	4.0860	-0.6358	25.93	-0.05	-0.750			
0.0343	2192.45	4.0830	4.0831	-0.6397	25.93	-0.05	-0.750			
0.0362	2314.78	4.0800	4.0800	-0.6498	25.93	-0.05	-0.750			
0.0382	2442.12	4.0770	4.0769	-0.6545	25.93	-0.05	-0.750			
0.0401	2568.48	4.0740	4.0740	-0.6574	25.93	-0.05	-0.750			
0.0421	2695.58	4.0710	4.0712	-0.6628	25.93	-0.05	-0.750			
0.0441	2824.17	4.0680	4.0680	-0.6655	25.93	-0.05	-0.750			
0.0461	2950.83	4.0650	4.0649	-0.6671	25.93	-0.05	-0.750			
0.0481	3078.00	4.0620	4.0620	-0.6723	25.93	-0.05	-0.750			
0.0501	3207.76	4.0590	4.0590	-0.6783	25.93	-0.05	-0.750			
0.0522	3339.45	4.0560	4.0560	-0.6853	25.93	-0.05	-0.750			
0.0543	3472.39	4.0530	4.0529	-0.6871	25.93	-0.05	-0.750			
0.0563	3604.52	4.0500	4.0499	-0.6875	25.93	-0.05	-0.750			
0.0584	3737.07	4.0470	4.0470	-0.6893	25.93	-0.05	-0.750			
0.0604	3868.11	4.0440	4.0440	-0.6899	25.93	-0.05	-0.750			
0.0625	3999.58	4.0410	4.0410	-0.6904	25.93	-0.05	-0.750			
0.0646	4133.91	4.0380	4.0380	-0.6957	25.93	-0.05	-0.750			
0.0667	4267.37	4.0350	4.0351	-0.6993	25.93	-0.05	-0.750			
0.0688	4402.86	4.0320	4.0320	-0.7053	25.93	-0.05	-0.750			
0.0709	4538.01	4.0290	4.0290	-0.7094	25.93	-0.05	-0.750			
0.0730	4674.91	4.0260	4.0260	-0.7155	25.93	-0.05	-0.750			
0.0752	4813.80	4.0230	4.0230	-0.7173	25.93	-0.05	-0.750			
0.0774	4953.40	4.0200	4.0200	-0.7185	25.93	-0.05	-0.750			
0.0796	5091.79	4.0170	4.0172	-0.7152	25.93	-0.05	-0.750			
0.0817	5227.49	4.0140	4.0139	-0.7182	25.93	-0.05	-0.750			
0.0838	5365.57	4.0110	4.0110	-0.7151	25.94	-0.04	-0.750			
0.0860	5502.24	4.0080	4.0079	-0.7170	25.94	-0.04	-0.750			
0.0881	5639.43	4.0050	4.0051	-0.7152	25.94	-0.04	-0.750			
0.0903	5779.16	4.0020	4.0020	-0.7192	25.95	-0.03	-0.750			
0.0924	5916.22	3.9990	3.9992	-0.7220	25.95	-0.03	-0.750			
0.0946	6054.56	3.9960	3.9959	-0.7242	25.95	-0.03	-0.750			
0.0967	6191.87	3.9930	3.9930	-0.7294	25.96	-0.02	-0.750			
0.0990	6334.08	3.9900	3.9900	-0.7345	25.96	-0.02	-0.750			
0.1012	6476.45	3.9870	3.9870	-0.7391	25.96	-0.02	-0.750			
0.1034	6618.87	3.9840	3.9839	-0.7390	25.97	-0.01	-0.750			
0.1056	6761.20	3.9810	3.9810	-0.7378	25.97	-0.01	-0.750			
0.1078	6901.83	3.9780	3.9780	-0.7362	25.97	-0.01	-0.750			
0.1100	7042.84	3.9750	3.9749	-0.7399	25.97	-0.01	-0.750			
0.1123	7184.36	3.9720	3.9720	-0.7384	25.98	-0.00	-0.750			
0.1145	7327.65	3.9690	3.9689	-0.7477	25.98	-0.00	-0.750			
0.1167	7471.12	3.9660	3.9661	-0.7532	25.98	-0.00	-0.750			
0.1190	7616.94	3.9630	3.9628	-0.7544	25.98	0.00	-0.750			
0.1213	7762.47	3.9600	3.9600	-0.7563	25.98	0.00	-0.750			
0.1236	7907.55	3.9570	3.9571	-0.7572	25.99	0.01	-0.750			
0.1258	8052.31	3.9540	3.9540	-0.7527	25.99	0.01	-0.750			
0.1281	8199.16	3.9510	3.9510	-0.7560	25.99	0.01	-0.750			
0.1304	8342.62	3.9480	3.9481	-0.7570	25.99	0.01	-0.750			
0.1326	8487.44	3.9450	3.9450	-0.7587	25.99	0.01	-0.750			
0.1349	8633.98	3.9420	3.9419	-0.7644	26.00	0.02	-0.750			
0.1372	8780.26	3.9390	3.9390	-0.7666	26.00	0.02	-0.750			
0.1395	8929.24	3.9360	3.9360	-0.7697	26.01	0.03	-0.750			
0.1418	9077.41	3.9330	3.9329	-0.7719	26.01	0.03	-0.750			
0.1441	9225.35	3.9300	3.9300	-0.7719	26.01	0.03	-0.750			
0.1465	9373.10	3.9270	3.9270	-0.7745	26.01	0.03	-0.750			
0.1488	9522.84	3.9240	3.9240	-0.7740	26.02	0.04	-0.750			
0.1511	9671.50	3.9210	3.9210	-0.7728	26.02	0.04	-0.750			
0.1534	9819.68	3.9180	3.9180	-0.7753	26.02	0.04	-0.750			
0.1558	9968.87	3.9150	3.9151	-0.7747	26.02	0.04	-0.750			
0.1580	10115.04	3.9120	3.9120	-0.7803	26.03	0.05	-0.750			
0.1604	10265.85	3.9090	3.9089	-0.7847	26.03	0.05	-0.750			
0.1628	10417.42	3.9060	3.9060	-0.7869	26.04	0.06	-0.750			
0.1652	10570.72	3.9030	3.9030	-0.7893	26.04	0.06	-0.750			
0.1676	10723.93	3.9000	3.9001	-0.7911	26.05	0.07	-0.750			
0.1699	10875.34	3.8970	3.8970	-0.7887	26.05	0.07	-0.750			
0.1723	11025.41	3.8940	3.8939	-0.7933	26.05	0.07	-0.750			
0.1746	11177.25	3.8910	3.8910	-0.7893	26.05	0.07	-0.750			
0.1770	11329.66	3.8880	3.8879	-0.7933	26.05	0.07	-0.750			
0.1794	11481.99	3.8850	3.8852	-0.7924	26.05	0.07	-0.750			
0.1818	11634.88	3.8820	3.8819	-0.7947	26.05	0.07	-0.750			
0.1842	11786.11	3.8790	3.8790	-0.7956	26.06	0.08	-0.750			
0.1865	11937.93	3.8760	3.8760	-0.7919	26.06	0.08	-0.750			
0.1889	12089.81	3.8730	3.8729	-0.7904	26.06	0.08	-0.750			
0.1913	12245.02	3.8700	3.8701	-0.7922	26.07	0.09	-0.750			
0.1937	12395.36	3.8670	3.8669	-0.7911	26.07	0.09	-0.750			
0.1960	12546.18	3.8640	3.8640	-0.7955	26.08	0.10	-0.750			
0.1984	12699.46	3.8610	3.8609	-0.7941	26.08	0.10	-0.750			
0.2008	12851.36	3.8580	3.8580	-0.7931	26.08	0.10	-0.750			
0.2032	13004.72	3.8550	3.8549	-0.7979	26.09	0.11	-0.750			
0.2056	13158.87	3.8520	3.8520	-0.7981	26.09	0.11	-0.750			
0.2080	13310.54	3.8490	3.8490	-0.8022	26.10	0.12	-0.750			
0.2104	13463.86	3.8460	3.8460	-0.7987	26.10	0.12	-0.750			
0.2128	13617.53	3.8430	3.8430	-0.7965	26.10	0.12	-0.750			
0.2152	13773.04	3.8400	3.8399	-0.7980	26.11	0.13	-0.750			
0.2176	13925.75	3.8370	3.8372	-0.7957	26.11	0.13	-0.750			
0.2200	14077.50	3.8340	3.8339	-0.7906	26.11	0.13	-0.750			
0.2223	14228.28	3.8310	3.8310	-0.7936	26.12	0.14	-0.750			
0.2247	14380.49	3.8280	3.8279	-0.7878	26.12	0.14	-0.750			
0.2271	14533.20	3.8250	3.8250	-0.7885	26.13	0.15	-0.750			
0.2294	14684.54	3.8220	3.8222	-0.7815	26.13	0.15	-0.750			
0.2318	14833.90	3.8190	3.8190	-0.7821	26.13	0.15	-0.750			
0.2341	14982.34	3.8160	3.8159	-0.7818	26.14	0.16	-0.750			
0.2364	15131.41	3.8130	3.8130	-0.7755	26.14	0.16	-0.750			
0.2387	15279.98	3.8100	3.8100	-0.7707	26.14	0.16	-0.750			
0.2411	15431.13	3.8070	3.8070	-0.7736	26.15	0.17	-0.750			
0.2434	15579.00	3.8040	3.8040	-0.7653	26.15	0.17	-0.750			
0.2457	15724.29	3.8010	3.8009	-0.7642	26.15	0.17	-0.750			
0.2480	15869.34	3.7980	3.7981	-0.7586	26.15	0.17	-0.750			
0.2502	16014.99	3.7950	3.7950	-0.7514	26.15	0.17	-0.750			
0.2525	16161.12	3.7920	3.7920	-0.7466	26.15	0.17	-0.750			
0.2547	16303.97	3.7890	3.7891	-0.7447	26.15	0.17	-0.750			
0.2570	16445.07	3.7860	3.7860	-0.7412	26.15	0.17	-0.750			
0.2592	16586.31	3.7830	3.7829	-0.7420	26.16	0.18	-0.750			
0.2614	16729.25	3.7800	3.7799	-0.7396	26.16	0.18	-0.750			
0.2636	16872.71	3.7770	3.7770	-0.7388	26.16	0.18	-0.750			
0.2658	17014.13	3.7740	3.7740	-0.7401	26.17	0.19	-0.750			
0.2681	17156.80	3.7710	3.7711	-0.7376	26.17	0.19	-0.750			
0.2702	17295.96	3.7680	3.7679	-0.7321	26.17	0.19	-0.750			
0.2724	17436.20	3.7650	3.7649	-0.7353	26.18	0.20	-0.750			
0.2746	17576.10	3.7620	3.7621	-0.7347	26.18	0.20	-0.750			
0.2769	17720.31	3.7590	3.7589	-0.7376	26.19	0.21	-0.750			
0.2791	17862.14	3.7560	3.7560	-0.7405	26.19	0.21	-0.750			
0.2813	18002.62	3.7530	3.7530	-0.7412	26.19	0.21	-0.750			
0.2835	18144.28	3.7500	3.7501	-0.7482	26.19	0.21	-0.750			
0.2858	18288.23	3.7470	3.7468	-0.7524	26.19	0.21	-0.750			
0.2880	18432.56	3.7440	3.7440	-0.7549	26.20	0.22	-0.750			
0.2903	18578.67	3.7410	3.7411	-0.7673	26.20	0.22	-0.750			
0.2926	18726.10	3.7380	3.7382	-0.7787	26.20	0.22	-0.750			
0.2949	18876.18	3.7350	3.7350	-0.7870	26.20	0.22	-0.750			
0.2973	19028.96	3.7320	3.7319	-0.8007	26.20	0.22	-0.750			
0.2997	19183.41	3.7290	3.7290	-0.8115	26.21	0.23	-0.750			
0.3022	19342.67	3.7260	3.7260	-0.8241	26.21	0.23	-0.750			
0.3047	19501.22	3.7230	3.7231	-0.8374	26.21	0.23	-0.750			
0.3072	19661.28	3.7200	3.7200	-0.8469	26.21	0.23	-0.750			
0.3098	19825.70	3.7170	3.7170	-0.8587	26.21	0.23	-0.750			
0.3124	19991.62	3.7140	3.7140	-0.8721	26.21	0.23	-0.750			
0.3150	20160.26	3.7110	3.7109	-0.8895	26.21	0.23	-0.750			
0.3177	20331.82	3.7080	3.7081	-0.9033	26.21	0.23	-0.750			
0.3204	20506.12	3.7050	3.7050	-0.9199	26.21	0.23	-0.750			
0.3232	20683.48	3.7020	3.7020	-0.9344	26.21	0.23	-0.750			
0.3260	20865.22	3.6990	3.6989	-0.9555	26.21	0.23	-0.750			
0.3289	21051.78	3.6960	3.6960	-0.9703	26.21	0.23	-0.750			
0.3318	21238.24	3.6930	3.6930	-0.9899	26.21	0.23	-0.750			
0.3348	21430.30	3.6900	3.6900	-1.0065	26.20	0.22	-0.750			
0.3379	21627.23	3.6870	3.6871	-1.0221	26.20	0.22	-0.750			
0.3410	21823.60	3.6840	3.6839	-1.0387	26.19	0.21	-0.750			
0.3441	22024.38	3.6810	3.6810	-1.0616	26.19	0.21	-0.750			
0.3474	22230.41	3.6780	3.6780	-1.0794	26.18	0.20	-0.750			
0.3506	22439.24	3.6750	3.6748	-1.0960	26.18	0.20	-0.750			
0.3539	22651.33	3.6720	3.6721	-1.1102	26.17	0.19	-0.750			
0.3573	22869.27	3.6690	3.6689	-1.1337	26.17	0.19	-0.750			
0.3607	23087.33	3.6660	3.6660	-1.1532	26.17	0.19	-0.750			
0.3642	23308.75	3.6630	3.6630	-1.1684	26.16	0.18	-0.750			
0.3677	23533.81	3.6600	3.6602	-1.2049	26.16	0.18	-0.750			
0.3714	23769.41	3.6570	3.6569	-1.2389	26.15	0.17	-0.750			
0.3752	24012.95	3.6540	3.6539	-1.2571	26.14	0.16	-0.750			
0.3790	24256.69	3.6510	3.6512	-1.2883	26.13	0.15	-0.750			
0.3830	24510.22	3.6480	3.6480	-1.3159	26.13	0.15	-0.750			
0.3869	24762.41	3.6450	3.6450	-1.3326	26.12	0.14	-0.750			
0.3909	25018.21	3.6420	3.6420	-1.3542	26.12	0.14	-0.750			
0.3950	25278.36	3.6390	3.6390	-1.3752	26.12	0.14	-0.750			
0.3992	25549.20	3.6360	3.6360	-1.4011	26.11	0.13	-0.750			
0.4034	25820.11	3.6330	3.6330	-1.4369	26.10	0.12	-0.750			
0.4078	26096.99	3.6300	3.6300	-1.4538	26.10	0.12	-0.750			
0.4122	26379.52	3.6270	3.6269	-1.4885	26.09	0.11	-0.750			
0.4167	26667.42	3.6240	3.6240	-1.5220	26.09	0.11	-0.750			
0.4213	26960.29	3.6210	3.6210	-1.5553	26.08	0.10	-0.750			
0.4261	27268.58	3.6180	3.6178	-1.5846	26.08	0.10	-0.750			
0.4309	27574.48	3.6150	3.6151	-1.6186	26.07	0.09	-0.750			
0.4357	27885.44	3.6120	3.6120	-1.6452	26.06	0.08	-0.750	0.406	0.556	
0.4408	28211.81	3.6090	3.6089	-1.6730	26.05	0.07	-0.750			
0.4458	28532.01	3.6060	3.6059	-1.6906	26.05	0.07	-0.750			
0.4510	28862.93	3.6030	3.6029	-1.7254	26.04	0.06	-0.750			
0.4561	29193.30	3.6000	3.5999	-1.7525	26.04	0.06	-0.750			
0.4614	29529.80	3.5970	3.5972	-1.8061	26.03	0.05	-0.750			
0.4669	29879.03	3.5940	3.5941	-1.8332	26.03	0.05	-0.750			
0.4725	30240.48	3.5910	3.5911	-1.8815	26.03	0.05	-0.750			
0.4783	30612.05	3.5880	3.5879	-1.9285	26.03	0.05	-0.750			
0.4842	30987.38	3.5850	3.5850	-1.9657	26.02	0.04	-0.750			
0.4901	31365.33	3.5820	3.5821	-1.9880	26.01	0.03	-0.750			
0.4961	31750.25	3.5790	3.5790	-2.0169	26.00	0.02	-0.750			
0.5022	32138.63	3.5760	3.5758	-2.0434	25.99	0.01	-0.750			
0.5084	32540.18	3.5730	3.5730	-2.0633	25.99	0.01	-0.750			
0.5146	32933.11	3.5700	3.5702	-2.0853	25.99	0.01	-0.750			
0.5209	33335.66	3.5670	3.5670	-2.1089	25.99	0.01	-0.750			
0.5272	33743.71	3.5640	3.5637	-2.1403	25.99	0.01	-0.750			
0.5337	34159.22	3.5610	3.5611	-2.1527	25.99	0.01	-0.750			
0.5403	34577.44	3.5580	3.5581	-2.1682	25.99	0.01	-0.750			
0.5469	35001.90	3.5550	3.5551	-2.1647	25.99	0.01	-0.750			
0.5531	35401.24	3.5520	3.5520	-2.1537	25.99	0.01	-0.750			
0.5596	35813.66	3.5490	3.5491	-2.1610	25.99	0.01	-0.750			
0.5662	36233.97	3.5460	3.5459	-2.1568	25.99	0.01	-0.750			
0.5727	36655.92	3.5430	3.5428	-2.1549	25.99	0.01	-0.750			
0.5792	37069.66	3.5400	3.5399	-2.1410	25.99	0.01	-0.750			
0.5857	37483.44	3.5370	3.5369	-2.1203	25.99	0.01	-0.750			
0.5919	37882.78	3.5340	3.5339	-2.0750	25.99	0.01	-0.750			
0.5980	38269.34	3.5310	3.5310	-2.0144	26.00	0.02	-0.750			
0.6041	38664.58	3.5280	3.5279	-1.9938	26.01	0.03	-0.750			
0.6101	39046.37	3.5250	3.5251	-1.9517	26.02	0.04	-0.750			
0.6159	39417.27	3.5220	3.5220	-1.9122	26.03	0.05	-0.750			
0.6215	39775.23	3.5190	3.5190	-1.8695	26.04	0.06	-0.750			
0.6271	40132.36	3.5160	3.5158	-1.8125	26.05	0.07	-0.750			
0.6324	40476.06	3.5130	3.5133	-1.7704	26.05	0.07	-0.750			
0.6377	40812.50	3.5100	3.5100	-1.7232	26.06	0.08	-0.750			
0.6428	41138.65	3.5070	3.5072	-1.6767	26.07	0.09	-0.750			
0.6478	41456.05	3.5040	3.5042	-1.6204	26.08	0.10	-0.750			
0.6526	41765.80	3.5010	3.5008	-1.5812	26.09	0.11	-0.750			
0.6572	42062.78	3.4980	3.4978	-1.5219	26.10	0.12	-0.750			
0.6617	42349.47	3.4950	3.4951	-1.4787	26.11	0.13	-0.750			
0.6661	42628.20	3.4920	3.4920	-1.4440	26.13	0.15	-0.750			
0.6703	42898.48	3.4890	3.4888	-1.3977	26.14	0.16	-0.750			
0.6744	43162.69	3.4860	3.4859	-1.3613	26.16	0.18	-0.750			
0.6785	43424.04	3.4830	3.4830	-1.3353	26.18	0.20	-0.750			
0.6825	43678.40	3.4800	3.4799	-1.2928	26.20	0.22	-0.750			
0.6864	43928.03	3.4770	3.4770	-1.2556	26.21	0.23	-0.750			
0.6900	44161.58	3.4740	3.4740	-1.2073	26.22	0.24	-0.750			
0.6935	44386.27	3.4710	3.4711	-1.1630	26.24	0.26	-0.750			
0.6970	44607.34	3.4680	3.4679	-1.1265	26.25	0.27	-0.750			
0.7003	44819.16	3.4650	3.4649	-1.0864	26.27	0.29	-0.750			
0.7035	45024.29	3.4620	3.4620	-1.0504	26.28	0.30	-0.750			
0.7066	45222.37	3.4590	3.4591	-1.0221	26.30	0.32	-0.750			
0.7096	45415.93	3.4560	3.4560	-0.9925	26.31	0.33	-0.750			
0.7125	45603.04	3.4530	3.4529	-0.9607	26.32	0.34	-0.750			
0.7154	45783.45	3.4500	3.4500	-0.9310	26.33	0.35	-0.750			
0.7181	45959.57	3.4470	3.4470	-0.9078	26.34	0.36	-0.750			
0.7208	46131.15	3.4440	3.4440	-0.8902	26.35	0.37	-0.750			
0.7234	46298.31	3.4410	3.4409	-0.8742	26.36	0.38	-0.750			
0.7260	46461.01	3.4380	3.4380	-0.8609	26.37	0.39	-0.750			
0.7285	46626.89	3.4350	3.4350	-0.8580	26.39	0.41	-0.750			
0.7311	46789.98	3.4320	3.4320	-0.8580	26.40	0.42	-0.750			
0.7337	46953.64	3.4290	3.4290	-0.8627	26.41	0.43	-0.750			
0.7362	47118.24	3.4260	3.4260	-0.8656	26.42	0.44	-0.750			
0.7388	47284.16	3.4230	3.4230	-0.8763	26.43	0.45	-0.750			
0.7415	47454.02	3.4200	3.4200	-0.8910	26.44	0.46	-0.750			
0.7441	47625.28	3.4170	3.4170	-0.9056	26.45	0.47	-0.750			
0.7469	47801.67	3.4140	3.4140	-0.9174	26.46	0.48	-0.750			
0.7497	47981.21	3.4110	3.4110	-0.9140	26.46	0.48	-0.750			
0.7525	48158.25	3.4080	3.4080	-0.9131	26.47	0.49	-0.750			
0.7553	48336.21	3.4050	3.4052	-0.9078	26.48	0.50	-0.750			
0.7579	48508.67	3.4020	3.4018	-0.8950	26.49	0.51	-0.750			
0.7606	48679.33	3.3990	3.3990	-0.8797	26.50	0.52	-0.750			
0.7632	48847.35	3.3960	3.3961	-0.8608	26.51	0.53	-0.750			
0.7658	49013.17	3.3930	3.3929	-0.8425	26.52	0.54	-0.750			
0.7683	49174.20	3.3900	3.3901	-0.8185	26.53	0.55	-0.750			
0.7707	49327.58	3.3870	3.3870	-0.7907	26.54	0.56	-0.750			
0.7731	49477.02	3.3840	3.3840	-0.7633	26.55	0.57	-0.750			
0.7753	49620.05	3.3810	3.3810	-0.7350	26.56	0.58	-0.750			
0.7775	49758.55	3.3780	3.3780	-0.7125	26.57	0.59	-0.750			
0.7796	49894.07	3.3750	3.3751	-0.6896	26.58	0.60	-0.750			
0.7816	50023.14	3.3720	3.3720	-0.6667	26.59	0.61	-0.750			
0.7836	50148.38	3.3690	3.3691	-0.6464	26.59	0.61	-0.750			
0.7855	50270.36	3.3660	3.3660	-0.6246	26.60	0.62	-0.750			
0.7873	50388.49	3.3630	3.3629	-0.6023	26.60	0.62	-0.750			
0.7891	50502.50	3.3600	3.3601	-0.5809	26.61	0.63	-0.750			
0.7908	50611.76	3.3570	3.3569	-0.5598	26.62	0.64	-0.750			
0.7925	50717.67	3.3540	3.3541	-0.5415	26.62	0.64	-0.750			
0.7940	50818.93	3.3510	3.3510	-0.5225	26.63	0.65	-0.750			
0.7956	50916.51	3.3480	3.3480	-0.5044	26.63	0.65	-0.750			
0.7971	51012.36	3.3450	3.3451	-0.4895	26.64	0.66	-0.750			
0.7985	51104.54	3.3420	3.3419	-0.4754	26.65	0.67	-0.750			
0.7999	51194.06	3.3390	3.3390	-0.4597	26.65	0.67	-0.750			
0.8013	51280.61	3.3360	3.3359	-0.4456	26.66	0.68	-0.750			
0.8026	51364.74	3.3330	3.3331	-0.4322	26.66	0.68	-0.750			
0.8038	51446.28	3.3300	3.3300	-0.4194	26.67	0.69	-0.750			
0.8051	51525.67	3.3270	3.3270	-0.4074	26.67	0.69	-0.750			
0.8063	51602.71	3.3240	3.3241	-0.3948	26.68	0.70	-0.750			
0.8075	51677.17	3.3210	3.3210	-0.3830	26.69	0.71	-0.750			
0.8086	51749.72	3.3180	3.3179	-0.3723	26.69	0.71	-0.750			
0.8097	51819.63	3.3150	3.3150	-0.3628	26.70	0.72	-0.750			
0.8108	51888.35	3.3120	3.3120	-0.3534	26.70	0.72	-0.750			
0.8118	51955.16	3.3090	3.3090	-0.3446	26.71	0.73	-0.750			
0.8128	52020.80	3.3060	3.3061	-0.3360	26.72	0.74	-0.750			
0.8138	52084.53	3.3030	3.3030	-0.3271	26.72	0.74	-0.750			
0.8148	52146.21	3.3000	3.2999	-0.3196	26.73	0.75	-0.750			
0.8157	52206.48	3.2970	3.2971	-0.3118	26.73	0.75	-0.750			
0.8167	52265.70	3.2940	3.2939	-0.3040	26.74	0.76	-0.750			
0.8176	52323.50	3.2910	3.2910	-0.2982	26.74	0.76	-0.750			
0.8184	52379.89	3.2880	3.2880	-0.2920	26.75	0.77	-0.750			
0.8193	52435.37	3.2850	3.2850	-0.2864	26.76	0.78	-0.750			
0.8202	52489.69	3.2820	3.2819	-0.2803	26.76	0.78	-0.750			
0.8210	52542.65	3.2790	3.2790	-0.2741	26.77	0.79	-0.750			
0.8218	52594.78	3.2760	3.2760	-0.2688	26.77	0.79	-0.750			
0.8226	52645.98	3.2730	3.2730	-0.2648	26.78	0.80	-0.750			
0.8234	52696.23	3.2700	3.2700	-0.2589	26.78	0.80	-0.750			
0.8241	52745.52	3.2670	3.2669	-0.2544	26.79	0.81	-0.750			
0.8249	52794.00	3.2640	3.2640	-0.2498	26.80	0.82	-0.750			
0.8256	52841.47	3.2610	3.2611	-0.2459	26.80	0.82	-0.750			
0.8264	52887.88	3.2580	3.2580	-0.2424	26.81	0.83	-0.750			
0.8271	52933.79	3.2550	3.2550	-0.2389	26.81	0.83	-0.750			
0.8278	52979.30	3.2520	3.2519	-0.2350	26.82	0.84	-0.750			
0.8285	53024.13	3.2490	3.2490	-0.2322	26.82	0.84	-0.750			
0.8292	53069.03	3.2460	3.2461	-0.2290	26.83	0.85	-0.750			
0.8299	53112.60	3.2430	3.2431	-0.2249	26.83	0.85	-0.750			
0.8306	53155.54	3.2400	3.2400	-0.2214	26.84	0.86	-0.750			
0.8312	53197.38	3.2370	3.2371	-0.2181	26.84	0.86	-0.750			
0.8319	53238.66	3.2340	3.2340	-0.2142	26.85	0.87	-0.750			
0.8325	53279.52	3.2310	3.2310	-0.2115	26.85	0.87	-0.750			
0.8331	53319.92	3.2280	3.2280	-0.2094	26.86	0.88	-0.750			
0.8337	53359.59	3.2250	3.2250	-0.2065	26.87	0.89	-0.750			
0.8344	53399.46	3.2220	3.2220	-0.2045	26.87	0.89	-0.750			
0.8350	53438.43	3.2190	3.2190	-0.2014	26.88	0.90	-0.750			
0.8356	53476.80	3.2160	3.2159	-0.1981	26.88	0.90	-0.750			
0.8362	53514.42	3.2130	3.2130	-0.1956	26.89	0.91	-0.750			
0.8367	53551.59	3.2100	3.2100	-0.1935	26.89	0.91	-0.750			
0.8373	53588.53	3.2070	3.2069	-0.1912	26.90	0.92	-0.750			
0.8379	53624.65	3.2040	3.2040	-0.1892	26.90	0.92	-0.750			
0.8384	53660.72	3.2010	3.2010	-0.1875	26.91	0.93	-0.750			
0.8390	53696.88	3.1980	3.1980	-0.1860	26.91	0.93	-0.750			
0.8396	53732.46	3.1950	3.1950	-0.1839	26.92	0.94	-0.750			
0.8401	53767.79	3.1920	3.1920	-0.1820	26.92	0.94	-0.750			
0.8407	53802.49	3.1890	3.1890	-0.1797	26.93	0.95	-0.750			
0.8412	53836.74	3.1860	3.1859	-0.1773	26.93	0.95	-0.750			
0.8417	53870.50	3.1830	3.1830	-0.1751	26.94	0.96	-0.750			
0.8422	53903.86	3.1800	3.1801	-0.1728	26.94	0.96	-0.750			
0.8428	53936.67	3.1770	3.1770	-0.1710	26.95	0.97	-0.750			
0.8433	53969.37	3.1740	3.1740	-0.1694	26.95	0.97	-0.750			
0.8438	54001.79	3.1710	3.1710	-0.1674	26.96	0.98	-0.750			
0.8443	54033.76	3.1680	3.1680	-0.1656	26.97	0.99	-0.750			
0.8448	54065.39	3.1650	3.1650	-0.1640	26.97	0.99	-0.750			
0.8453	54096.58	3.1620	3.1621	-0.1629	26.98	1.00	-0.750			
0.8457	54127.83	3.1590	3.1588	-0.1611	26.99	1.01	-0.750			
0.8462	54158.61	3.1560	3.1561	-0.1595	26.99	1.01	-0.750			
0.8467	54188.94	3.1530	3.1530	-0.1583	27.00	1.02	-0.750			
0.8472	54219.37	3.1500	3.1500	-0.1569	27.00	1.02	-0.750			
0.8476	54249.20	3.1470	3.1470	-0.1561	27.01	1.03	-0.750			
0.8481	54279.06	3.1440	3.1440	-0.1549	27.02	1.04	-0.750			
0.8486	54308.77	3.1410	3.1410	-0.1527	27.02	1.04	-0.750			
0.8490	54337.71	3.1380	3.1379	-0.1513	27.03	1.05	-0.750			
0.8495	54366.90	3.1350	3.1351	-0.1506	27.03	1.05	-0.750			
0.8499	54395.66	3.1320	3.1321	-0.1490	27.04	1.06	-0.750			
0.8504	54423.93	3.1290	3.1289	-0.1476	27.04	1.06	-0.750			
0.8508	54452.31	3.1260	3.1260	-0.1463	27.05	1.07	-0.750			
0.8513	54480.12	3.1230	3.1230	-0.1442	27.05	1.07	-0.750			
0.8517	54507.69	3.1200	3.1200	-0.1430	27.06	1.08	-0.750			
0.8521	54535.22	3.1170	3.1170	-0.1427	27.06	1.08	-0.750			
0.8525	54562.24	3.1140	3.1140	-0.1409	27.07	1.09	-0.750			
0.8530	54589.21	3.1110	3.1110	-0.1400	27.07	1.09	-0.750			
0.8534	54616.08	3.1080	3.1079	-0.1387	27.08	1.10	-0.750			
0.8538	54642.65	3.1050	3.1051	-0.1372	27.08	1.10	-0.750			
0.8542	54669.13	3.1020	3.1020	-0.1361	27.08	1.10	-0.750			
0.8546	54694.85	3.0990	3.0990	-0.1355	27.09	1.11	-0.750			
0.8550	54720.77	3.0960	3.0960	-0.1344	27.10	1.12	-0.750			
0.8554	54746.16	3.0930	3.0930	-0.1332	27.10	1.12	-0.750			
0.8558	54771.69	3.0900	3.0900	-0.1329	27.11	1.13	-0.750			
0.8562	54797.18	3.0870	3.0871	-0.1325	27.11	1.13	-0.750			
0.8566	54822.86	3.0840	3.0839	-0.1316	27.12	1.14	-0.750			
0.8570	54848.32	3.0810	3.0810	-0.1307	27.13	1.15	-0.750			
0.8574	54873.23	3.0780	3.0780	-0.1289	27.13	1.15	-0.750			
0.8578	54897.53	3.0750	3.0751	-0.1277	27.14	1.16	-0.750			
0.8582	54922.04	3.0720	3.0720	-0.1268	27.15	1.17	-0.750			
0.8585	54946.07	3.0690	3.0690	-0.1251	27.15	1.17	-0.750			
0.8589	54970.00	3.0660	3.0658	-0.1242	27.16	1.18	-0.750			
0.8593	54993.42	3.0630	3.0630	-0.1238	27.17	1.19	-0.750			
0.8596	55017.28	3.0600	3.0601	-0.1236	27.17	1.19	-0.750			
0.8600	55040.98	3.0570	3.0569	-0.1233	27.18	1.20	-0.750			
0.8604	55064.84	3.0540	3.0539	-0.1225	27.18	1.20	-0.750			
0.8608	55088.29	3.0510	3.0511	-0.1217	27.19	1.21	-0.750			
0.8611	55111.58	3.0480	3.0480	-0.1207	27.20	1.22	-0.750			
0.8615	55134.98	3.0450	3.0450	-0.1203	27.20	1.22	-0.750			
0.8618	55157.80	3.0420	3.0420	-0.1191	27.21	1.23	-0.750			
0.8622	55180.35	3.0390	3.0389	-0.1176	27.21	1.23	-0.750			
0.8625	55202.76	3.0360	3.0360	-0.1170	27.22	1.24	-0.750			
0.8629	55225.00	3.0330	3.0329	-0.1161	27.23	1.25	-0.750			
0.8632	55247.21	3.0300	3.0301	-0.1157	27.23	1.25	-0.750			
0.8636	55269.37	3.0270	3.0270	-0.1152	27.24	1.26	-0.750			
0.8639	55291.63	3.0240	3.0240	-0.1141	27.24	1.26	-0.750			
0.8643	55313.57	3.0210	3.0209	-0.1134	27.25	1.27	-0.750			
0.8646	55335.23	3.0180	3.0180	-0.1124	27.25	1.27	-0.750			
0.8650	55356.87	3.0150	3.0151	-0.1115	27.26	1.28	-0.750			
0.8653	55378.16	3.0120	3.0121	-0.1102	27.27	1.29	-0.750			
0.8656	55399.19	3.0090	3.0088	-0.1089	27.27	1.29	-0.751			
0.8659	55419.99	3.0060	3.0060	-0.1077	27.28	1.30	-0.751			
0.8663	55440.63	3.0030	3.0029	-0.1094	27.28	1.30	-0.751			
