Ah_balance (normalized)	Ah_balance (mAh)	Voltage - fit (V)	Voltage -  interpolate (V)	dQ/dV (1/V)	Temperature (°C)	Temperature - diff (°C)	Current (C)	R_DC 0ms (mOhm)	R_DC 50ms (mOhm)	R_DC 50 ms PEC (mOhm)
0.0551	3523.35	4.1960	4.1960	0.7475	26.55	0.58	0.750			
0.0573	3667.19	4.1930	4.1930	0.7533	26.55	0.58	0.750			
0.0596	3813.34	4.1900	4.1899	0.7593	26.55	0.58	0.750			
0.0619	3959.60	4.1870	4.1870	0.7630	26.55	0.58	0.750			
0.0642	4108.02	4.1840	4.1840	0.7601	26.55	0.58	0.750			
0.0665	4253.27	4.1810	4.1811	0.7599	26.54	0.57	0.750			
0.0687	4398.90	4.1780	4.1781	0.7607	26.54	0.57	0.750			
0.0710	4544.81	4.1750	4.1750	0.7624	26.54	0.57	0.750			
0.0733	4690.30	4.1720	4.1720	0.7651	26.54	0.57	0.750			
0.0756	4839.18	4.1690	4.1690	0.7655	26.54	0.57	0.750			
0.0779	4986.21	4.1660	4.1660	0.7655	26.54	0.57	0.750			
0.0802	5135.15	4.1630	4.1630	0.7732	26.54	0.57	0.750			
0.0825	5282.08	4.1600	4.1601	0.7672	26.54	0.57	0.750			
0.0848	5428.26	4.1570	4.1569	0.7681	26.54	0.57	0.750			
0.0871	5576.78	4.1540	4.1540	0.7669	26.54	0.57	0.750			
0.0894	5724.58	4.1510	4.1509	0.7601	26.54	0.57	0.750			
0.0917	5869.77	4.1480	4.1480	0.7636	26.53	0.56	0.750			
0.0940	6016.71	4.1450	4.1450	0.7648	26.53	0.56	0.750			
0.0963	6160.90	4.1420	4.1418	0.7644	26.53	0.56	0.750			
0.0986	6308.86	4.1390	4.1390	0.7709	26.53	0.56	0.750			
0.1009	6456.57	4.1360	4.1360	0.7733	26.53	0.56	0.750			
0.1032	6607.10	4.1330	4.1331	0.7795	26.52	0.55	0.750			
0.1056	6758.34	4.1300	4.1299	0.7855	26.52	0.55	0.750			
0.1079	6907.86	4.1270	4.1271	0.7821	26.52	0.55	0.750			
0.1103	7058.59	4.1240	4.1240	0.7815	26.52	0.55	0.750			
0.1126	7208.24	4.1210	4.1210	0.7825	26.52	0.55	0.750			
0.1150	7358.73	4.1180	4.1181	0.7772	26.52	0.55	0.750			
0.1173	7506.31	4.1150	4.1150	0.7804	26.52	0.55	0.750			
0.1196	7655.42	4.1120	4.1121	0.7825	26.52	0.55	0.750			
0.1220	7805.50	4.1090	4.1086	0.7895	26.52	0.55	0.750			
0.1243	7958.31	4.1060	4.1061	0.7962	26.52	0.55	0.750			
0.1268	8113.74	4.1030	4.1030	0.7920	26.52	0.55	0.750			
0.1292	8266.72	4.1000	4.1001	0.7979	26.52	0.55	0.750			
0.1315	8418.41	4.0970	4.0971	0.7968	26.52	0.55	0.750			
0.1339	8572.06	4.0940	4.0938	0.7999	26.52	0.55	0.750			
0.1363	8725.24	4.0910	4.0910	0.8026	26.52	0.55	0.750			
0.1388	8881.40	4.0880	4.0881	0.7977	26.52	0.55	0.750			
0.1412	9036.71	4.0850	4.0850	0.8056	26.52	0.55	0.750			
0.1436	9191.33	4.0820	4.0821	0.8071	26.52	0.55	0.750			
0.1460	9343.42	4.0790	4.0790	0.8002	26.52	0.55	0.750			
0.1484	9496.08	4.0760	4.0761	0.8042	26.52	0.55	0.750			
0.1508	9651.10	4.0730	4.0731	0.8080	26.52	0.55	0.750			
0.1532	9805.31	4.0700	4.0700	0.8160	26.52	0.55	0.750			
0.1557	9966.02	4.0670	4.0670	0.8235	26.52	0.55	0.750			
0.1582	10122.69	4.0640	4.0640	0.8208	26.52	0.55	0.750			
0.1607	10281.78	4.0610	4.0610	0.8229	26.52	0.55	0.750			
0.1632	10442.00	4.0580	4.0580	0.8215	26.52	0.55	0.750			
0.1656	10597.57	4.0550	4.0550	0.8240	26.52	0.55	0.750			
0.1681	10755.81	4.0520	4.0520	0.8251	26.51	0.54	0.750			
0.1705	10911.96	4.0490	4.0490	0.8256	26.51	0.54	0.750			
0.1730	11072.88	4.0460	4.0461	0.8338	26.51	0.54	0.750			
0.1755	11233.77	4.0430	4.0430	0.8373	26.51	0.54	0.750			
0.1780	11395.15	4.0400	4.0400	0.8419	26.51	0.54	0.750			
0.1806	11557.98	4.0370	4.0371	0.8445	26.52	0.55	0.750			
0.1831	11718.83	4.0340	4.0340	0.8432	26.52	0.55	0.750			
0.1856	11881.54	4.0310	4.0310	0.8495	26.52	0.55	0.750			
0.1882	12045.00	4.0280	4.0280	0.8467	26.52	0.55	0.750			
0.1907	12207.55	4.0250	4.0250	0.8502	26.52	0.55	0.750			
0.1933	12371.36	4.0220	4.0221	0.8521	26.52	0.55	0.750			
0.1959	12534.80	4.0190	4.0190	0.8546	26.52	0.55	0.750			
0.1984	12699.47	4.0160	4.0160	0.8572	26.52	0.55	0.750			
0.2010	12862.07	4.0130	4.0131	0.8641	26.52	0.55	0.750			
0.2036	13029.70	4.0100	4.0100	0.8676	26.51	0.54	0.750			
0.2062	13199.72	4.0070	4.0069	0.8729	26.51	0.54	0.750			
0.2089	13366.78	4.0040	4.0039	0.8681	26.51	0.54	0.750			
0.2115	13532.84	4.0010	4.0011	0.8703	26.51	0.54	0.750			
0.2140	13699.15	3.9980	3.9980	0.8681	26.51	0.54	0.750			
0.2166	13862.17	3.9950	3.9950	0.8747	26.50	0.53	0.750			
0.2192	14030.35	3.9920	3.9921	0.8752	26.50	0.53	0.750			
0.2219	14201.40	3.9890	3.9887	0.8901	26.50	0.53	0.750			
0.2246	14376.57	3.9860	3.9860	0.8889	26.50	0.53	0.750			
0.2273	14548.21	3.9830	3.9831	0.8855	26.50	0.53	0.750			
0.2300	14717.67	3.9800	3.9800	0.8838	26.50	0.53	0.750			
0.2326	14885.67	3.9770	3.9770	0.8764	26.50	0.53	0.750			
0.2352	15050.20	3.9740	3.9741	0.8757	26.50	0.53	0.750			
0.2378	15220.75	3.9710	3.9710	0.8843	26.50	0.53	0.750			
0.2405	15390.44	3.9680	3.9680	0.8902	26.50	0.53	0.750			
0.2432	15564.66	3.9650	3.9651	0.8972	26.50	0.53	0.750			
0.2459	15736.76	3.9620	3.9619	0.8998	26.50	0.53	0.750			
0.2486	15910.08	3.9590	3.9590	0.9011	26.50	0.53	0.750			
0.2514	16087.03	3.9560	3.9560	0.8869	26.49	0.52	0.750			
0.2540	16256.37	3.9530	3.9529	0.8730	26.49	0.52	0.750			
0.2566	16421.60	3.9500	3.9503	0.8708	26.48	0.51	0.750			
0.2591	16585.25	3.9470	3.9468	0.8672	26.48	0.51	0.750			
0.2617	16750.52	3.9440	3.9438	0.8662	26.48	0.51	0.750			
0.2643	16914.42	3.9410	3.9410	0.8749	26.48	0.51	0.750			
0.2669	17083.19	3.9380	3.9381	0.8918	26.48	0.51	0.750			
0.2697	17260.63	3.9350	3.9351	0.9122	26.48	0.51	0.750			
0.2724	17435.99	3.9320	3.9317	0.9112	26.48	0.51	0.750			
0.2752	17611.86	3.9290	3.9291	0.9065	26.48	0.51	0.750			
0.2779	17785.73	3.9260	3.9260	0.9066	26.48	0.51	0.750			
0.2806	17960.00	3.9230	3.9229	0.9071	26.47	0.50	0.750			
0.2833	18131.33	3.9200	3.9200	0.9034	26.47	0.50	0.750			
0.2860	18304.74	3.9170	3.9170	0.9082	26.47	0.50	0.750			
0.2888	18481.33	3.9140	3.9140	0.9044	26.47	0.50	0.750			
0.2915	18653.21	3.9110	3.9110	0.9121	26.46	0.49	0.750			
0.2942	18828.70	3.9080	3.9082	0.9175	26.46	0.49	0.750			
0.2969	19003.20	3.9050	3.9045	0.9242	26.46	0.49	0.750			
0.2998	19184.54	3.9020	3.9020	0.9153	26.46	0.49	0.750			
0.3025	19358.64	3.8990	3.8992	0.9251	26.45	0.48	0.750			
0.3053	19537.72	3.8960	3.8961	0.9369	26.45	0.48	0.750			
0.3081	19715.35	3.8930	3.8931	0.9362	26.44	0.47	0.750			
0.3109	19899.77	3.8900	3.8900	0.9382	26.44	0.47	0.750			
0.3137	20078.54	3.8870	3.8872	0.9504	26.43	0.46	0.750			
0.3166	20262.16	3.8840	3.8840	0.9590	26.43	0.46	0.750			
0.3195	20449.32	3.8810	3.8811	0.9681	26.42	0.45	0.750			
0.3224	20632.35	3.8780	3.8777	0.9661	26.42	0.45	0.750			
0.3253	20822.35	3.8750	3.8752	0.9570	26.41	0.44	0.750			
0.3282	21005.84	3.8720	3.8720	0.9715	26.40	0.43	0.750			
0.3311	21193.38	3.8690	3.8691	0.9830	26.39	0.42	0.750			
0.3341	21380.89	3.8660	3.8656	0.9820	26.38	0.41	0.750			
0.3371	21572.26	3.8630	3.8631	0.9801	26.37	0.40	0.750			
0.3400	21760.48	3.8600	3.8601	0.9915	26.37	0.40	0.750			
0.3430	21951.31	3.8570	3.8569	0.9970	26.36	0.39	0.750			
0.3460	22143.64	3.8540	3.8540	0.9944	26.35	0.38	0.750			
0.3490	22337.33	3.8510	3.8511	0.9977	26.35	0.38	0.750			
0.3520	22528.54	3.8480	3.8480	1.0087	26.34	0.37	0.750			
0.3551	22725.21	3.8450	3.8450	1.0147	26.33	0.36	0.750			
0.3581	22919.66	3.8420	3.8421	1.0087	26.32	0.35	0.750			
0.3612	23115.29	3.8390	3.8392	1.0139	26.32	0.35	0.750			
0.3642	23311.02	3.8360	3.8360	1.0138	26.31	0.34	0.750			
0.3673	23504.90	3.8330	3.8330	1.0163	26.30	0.33	0.750			
0.3703	23700.24	3.8300	3.8300	1.0225	26.29	0.32	0.750			
0.3733	23894.32	3.8270	3.8270	1.0139	26.29	0.32	0.750			
0.3764	24091.22	3.8240	3.8240	1.0266	26.28	0.31	0.750			
0.3795	24288.72	3.8210	3.8210	1.0294	26.27	0.30	0.750			
0.3826	24486.27	3.8180	3.8180	1.0357	26.26	0.29	0.750			
0.3857	24686.41	3.8150	3.8151	1.0402	26.25	0.28	0.750			
0.3888	24884.58	3.8120	3.8120	1.0506	26.24	0.27	0.750			
0.3920	25086.33	3.8090	3.8090	1.0609	26.23	0.26	0.750			
0.3952	25292.43	3.8060	3.8060	1.0684	26.22	0.25	0.750			
0.3984	25500.78	3.8030	3.8031	1.0595	26.21	0.24	0.750			
0.4016	25704.30	3.8000	3.8001	1.0767	26.20	0.23	0.750			
0.4048	25908.76	3.7970	3.7970	1.0897	26.19	0.22	0.750			
0.4081	26117.38	3.7940	3.7941	1.1016	26.18	0.21	0.750			
0.4114	26329.35	3.7910	3.7911	1.1084	26.16	0.19	0.750			
0.4148	26544.46	3.7880	3.7882	1.1302	26.15	0.18	0.750			
0.4182	26763.84	3.7850	3.7851	1.1590	26.14	0.17	0.750			
0.4217	26991.49	3.7820	3.7815	1.1779	26.13	0.16	0.750			
0.4252	27214.92	3.7790	3.7790	1.1805	26.12	0.15	0.750			
0.4288	27443.51	3.7760	3.7761	1.2002	26.12	0.15	0.750			
0.4325	27678.72	3.7730	3.7731	1.2200	26.11	0.14	0.750			
0.4361	27908.71	3.7700	3.7700	1.2531	26.10	0.13	0.750			
0.4398	28145.39	3.7670	3.7670	1.2762	26.09	0.12	0.750			
0.4437	28396.35	3.7640	3.7638	1.3079	26.08	0.11	0.750	0.312	0.421	
0.4477	28654.11	3.7610	3.7610	1.3532	26.07	0.10	0.750			
0.4518	28918.23	3.7580	3.7582	1.3861	26.05	0.08	0.750			
0.4562	29194.26	3.7550	3.7551	1.4061	26.04	0.07	0.750			
0.4604	29468.38	3.7520	3.7519	1.4248	26.03	0.06	0.750			
0.4646	29735.01	3.7490	3.7491	1.4450	26.01	0.04	0.750			
0.4690	30014.79	3.7460	3.7461	1.4763	26.00	0.03	0.750			
0.4735	30301.43	3.7430	3.7432	1.4959	25.99	0.02	0.750			
0.4780	30590.09	3.7400	3.7401	1.5356	25.98	0.01	0.750			
0.4826	30887.24	3.7370	3.7371	1.5784	25.97	0.00	0.750			
0.4875	31199.85	3.7340	3.7339	1.6198	25.96	-0.01	0.750			
0.4924	31514.65	3.7310	3.7309	1.6798	25.94	-0.03	0.750			
0.4975	31842.74	3.7280	3.7279	1.7131	25.93	-0.04	0.750			
0.5028	32176.89	3.7250	3.7250	1.7911	25.91	-0.06	0.750			
0.5081	32520.19	3.7220	3.7219	1.8312	25.89	-0.08	0.750			
0.5137	32878.05	3.7190	3.7194	1.8655	25.88	-0.09	0.750			
0.5193	33238.39	3.7160	3.7162	1.9185	25.87	-0.10	0.750			
0.5252	33614.53	3.7130	3.7130	1.9595	25.85	-0.12	0.750			
0.5312	33994.06	3.7100	3.7097	2.0152	25.83	-0.14	0.750			
0.5373	34387.98	3.7070	3.7069	2.0988	25.81	-0.16	0.750			
0.5436	34792.69	3.7040	3.7037	2.1682	25.80	-0.17	0.750			
0.5502	35215.04	3.7010	3.7010	2.2354	25.78	-0.19	0.750			
0.5572	35662.01	3.6980	3.6980	2.3107	25.77	-0.20	0.750			
0.5642	36106.21	3.6950	3.6950	2.3488	25.76	-0.21	0.750			
0.5713	36565.49	3.6920	3.6918	2.4405	25.75	-0.22	0.750			
0.5787	37039.59	3.6890	3.6889	2.4883	25.73	-0.24	0.750			
0.5863	37520.49	3.6860	3.6861	2.5687	25.72	-0.25	0.750			
0.5942	38031.54	3.6830	3.6831	2.6986	25.70	-0.27	0.750			
0.6025	38556.92	3.6800	3.6800	2.7836	25.69	-0.28	0.750			
0.6109	39094.94	3.6770	3.6770	2.8461	25.68	-0.29	0.750			
0.6197	39657.80	3.6740	3.6740	2.9661	25.66	-0.31	0.750			
0.6288	40241.37	3.6710	3.6710	2.9626	25.66	-0.31	0.750			
0.6376	40809.08	3.6680	3.6681	2.8996	25.66	-0.31	0.750			
0.6465	41376.70	3.6650	3.6650	2.8009	25.65	-0.32	0.750			
0.6548	41906.82	3.6620	3.6619	2.5709	25.64	-0.33	0.750			
0.6620	42367.37	3.6590	3.6594	2.3136	25.64	-0.33	0.750			
0.6685	42782.70	3.6560	3.6563	2.0874	25.65	-0.32	0.750			
0.6744	43159.26	3.6530	3.6527	1.8588	25.66	-0.31	0.750			
0.6793	43472.27	3.6500	3.6497	1.6911	25.66	-0.31	0.750			
0.6841	43783.72	3.6470	3.6468	1.5811	25.66	-0.31	0.750			
0.6887	44077.92	3.6440	3.6437	1.4835	25.66	-0.31	0.750			
0.6929	44345.54	3.6410	3.6413	1.3793	25.66	-0.31	0.750			
0.6969	44600.90	3.6380	3.6377	1.2913	25.66	-0.31	0.750			
0.7006	44838.26	3.6350	3.6352	1.2401	25.66	-0.31	0.750			
0.7042	45068.45	3.6320	3.6319	1.2171	25.66	-0.31	0.750			
0.7076	45285.56	3.6290	3.6291	1.2005	25.66	-0.31	0.750			
0.7112	45516.02	3.6260	3.6260	1.1828	25.66	-0.31	0.750			
0.7148	45744.19	3.6230	3.6231	1.1975	25.66	-0.31	0.750			
0.7184	45975.03	3.6200	3.6201	1.2100	25.67	-0.30	0.750			
0.7221	46211.95	3.6170	3.6165	1.2081	25.67	-0.30	0.750			
0.7257	46441.85	3.6140	3.6140	1.1936	25.67	-0.30	0.750			
0.7293	46672.32	3.6110	3.6111	1.1851	25.68	-0.29	0.750			
0.7328	46900.15	3.6080	3.6082	1.1713	25.68	-0.29	0.750			
0.7364	47132.58	3.6050	3.6049	1.1443	25.68	-0.29	0.750			
0.7396	47336.69	3.6020	3.6021	1.1340	25.68	-0.29	0.750			
0.7430	47549.93	3.5990	3.5992	1.1448	25.68	-0.29	0.750			
0.7465	47773.38	3.5960	3.5955	1.1477	25.68	-0.29	0.750			
0.7498	47989.22	3.5930	3.5932	1.1642	25.68	-0.29	0.750			
0.7533	48213.67	3.5900	3.5901	1.1955	25.68	-0.29	0.750			
0.7570	48446.16	3.5870	3.5871	1.2283	25.68	-0.29	0.750			
0.7607	48683.82	3.5840	3.5839	1.2634	25.68	-0.29	0.750			
0.7645	48928.74	3.5810	3.5811	1.3115	25.68	-0.29	0.750			
0.7686	49187.76	3.5780	3.5780	1.3554	25.68	-0.29	0.750			
0.7728	49456.45	3.5750	3.5751	1.3940	25.68	-0.29	0.750			
0.7769	49723.20	3.5720	3.5721	1.4312	25.68	-0.29	0.750			
0.7812	49996.18	3.5690	3.5693	1.4916	25.68	-0.29	0.750			
0.7857	50283.48	3.5660	3.5654	1.5489	25.68	-0.29	0.750			
0.7905	50591.77	3.5630	3.5629	1.5819	25.68	-0.29	0.750			
0.7955	50910.54	3.5600	3.5598	1.6113	25.68	-0.29	0.750			
0.8004	51224.58	3.5570	3.5571	1.6432	25.68	-0.29	0.750			
0.8054	51548.01	3.5540	3.5544	1.6402	25.69	-0.28	0.750			
0.8104	51865.23	3.5510	3.5510	1.6565	25.69	-0.28	0.750			
0.8154	52184.14	3.5480	3.5479	1.6572	25.69	-0.28	0.750			
0.8201	52488.39	3.5450	3.5451	1.6451	25.70	-0.27	0.750			
0.8251	52805.52	3.5420	3.5423	1.7048	25.71	-0.26	0.750			
0.8303	53139.43	3.5390	3.5390	1.7330	25.71	-0.26	0.750			
0.8355	53472.28	3.5360	3.5357	1.7698	25.72	-0.25	0.750			
0.8412	53838.81	3.5330	3.5328	1.7282	25.74	-0.23	0.750			
0.8466	54179.49	3.5300	3.5300	1.6045	25.75	-0.22	0.750			
0.8518	54514.09	3.5270	3.5275	1.4030	25.77	-0.20	0.750			
0.8558	54772.15	3.5240	3.5245	1.1331	25.78	-0.19	0.750			
0.8586	54951.96	3.5210	3.5212	0.8794	25.79	-0.18	0.750			
0.8606	55080.99	3.5180	3.5175	0.6461	25.80	-0.17	0.750			
0.8618	55152.22	3.5150	3.5149	0.4747	25.81	-0.16	0.750			
0.8629	55225.35	3.5120	3.5118	0.3963	25.82	-0.15	0.750			
0.8639	55290.76	3.5090	3.5090	0.3573	25.83	-0.14	0.750			
0.8649	55353.42	3.5060	3.5059	0.3308	25.83	-0.14	0.750			
0.8658	55412.65	3.5030	3.5030	0.3146	25.84	-0.13	0.750			
0.8668	55472.20	3.5000	3.5000	0.3052	25.85	-0.12	0.750			
0.8677	55529.70	3.4970	3.4969	0.2952	25.86	-0.11	0.750			
0.8685	55585.53	3.4940	3.4940	0.2853	25.86	-0.11	0.750			
0.8694	55639.54	3.4910	3.4913	0.2770	25.87	-0.10	0.750			
0.8702	55690.91	3.4880	3.4880	0.2706	25.88	-0.09	0.750			
0.8710	55742.11	3.4850	3.4849	0.2633	25.88	-0.09	0.750			
0.8717	55791.74	3.4820	3.4819	0.2597	25.89	-0.08	0.750			
0.8725	55840.87	3.4790	3.4791	0.2538	25.89	-0.08	0.750			
0.8733	55890.16	3.4760	3.4759	0.2496	25.90	-0.07	0.750			
0.8740	55938.46	3.4730	3.4729	0.2450	25.90	-0.07	0.750			
0.8748	55984.44	3.4700	3.4701	0.2389	25.91	-0.06	0.750			
0.8755	56029.14	3.4670	3.4670	0.2329	25.91	-0.06	0.750			
0.8761	56073.15	3.4640	3.4639	0.2298	25.92	-0.05	0.750			
0.8768	56116.88	3.4610	3.4609	0.2257	25.92	-0.05	0.750			
0.8775	56159.17	3.4580	3.4580	0.2193	25.93	-0.04	0.750			
0.8781	56201.55	3.4550	3.4549	0.2156	25.93	-0.04	0.750			
0.8788	56243.13	3.4520	3.4520	0.2110	25.93	-0.04	0.750			
0.8794	56283.00	3.4490	3.4492	0.2044	25.94	-0.03	0.750			
0.8800	56321.68	3.4460	3.4459	0.1982	25.94	-0.03	0.750			
0.8806	56359.04	3.4430	3.4430	0.1920	25.95	-0.02	0.750			
0.8812	56394.51	3.4400	3.4401	0.1855	25.95	-0.02	0.750			
0.8817	56429.72	3.4370	3.4370	0.1812	25.95	-0.02	0.750			
0.8823	56464.19	3.4340	3.4340	0.1771	25.96	-0.01	0.750			
0.8828	56497.53	3.4310	3.4309	0.1718	25.96	-0.01	0.750			
0.8833	56530.27	3.4280	3.4280	0.1679	25.96	-0.01	0.750			
0.8838	56562.13	3.4250	3.4251	0.1629	25.97	-0.00	0.750			
0.8843	56593.23	3.4220	3.4220	0.1577	25.97	-0.00	0.750			
0.8847	56623.27	3.4190	3.4189	0.1525	25.97	0.00	0.750			
0.8852	56652.06	3.4160	3.4160	0.1455	25.98	0.01	0.750			
0.8856	56679.37	3.4130	3.4129	0.1389	25.98	0.01	0.750			
0.8860	56705.50	3.4100	3.4102	0.1327	25.98	0.01	0.750			
0.8864	56730.45	3.4070	3.4070	0.1261	25.98	0.01	0.750			
0.8868	56754.01	3.4040	3.4039	0.1192	25.99	0.02	0.750			
0.8871	56776.13	3.4010	3.4010	0.1122	25.99	0.02	0.750			
0.8875	56798.27	3.3980	3.3978	0.1036	25.99	0.02	0.750			
0.8878	56817.27	3.3950	3.3950	0.0942	25.99	0.02	0.750			
0.8881	56835.42	3.3920	3.3921	0.0869	25.99	0.02	0.750			
0.8883	56851.08	3.3890	3.3893	0.0762	26.00	0.03	0.750			
0.8885	56865.42	3.3860	3.3862	0.0659	26.00	0.03	0.750			
0.8887	56876.95	3.3830	3.3835	0.0542	26.00	0.03	0.750			
0.8888	56886.23	3.3800	3.3809	0.0424	26.00	0.03	0.750			
0.8890	56893.25	3.3770	3.3782	0.0307	26.00	0.03	0.750			
