Ah_balance (normalized)	Ah_balance (mAh)	Voltage - fit (V)	Voltage -  interpolate (V)	dQ/dV (1/V)	Temperature (°C)	Temperature - diff (°C)	Current (C)	R_DC 0ms (mOhm)	R_DC 50ms (mOhm)	R_DC 50 ms PEC (mOhm)
0.0004	27.58	4.1550	4.1549	-0.1290	26.00	0.03	-0.750			
0.0009	57.30	4.1520	4.1518	-0.1708	26.00	0.03	-0.750			
0.0015	93.96	4.1490	4.1490	-0.2082	25.99	0.02	-0.750			
0.0022	137.81	4.1460	4.1460	-0.2443	25.99	0.02	-0.750			
0.0029	188.31	4.1430	4.1430	-0.2795	25.99	0.02	-0.750			
0.0038	246.05	4.1400	4.1400	-0.3152	25.99	0.02	-0.750			
0.0048	310.20	4.1370	4.1370	-0.3474	25.99	0.02	-0.750			
0.0059	380.59	4.1340	4.1340	-0.3787	25.98	0.01	-0.750			
0.0071	457.06	4.1310	4.1310	-0.4072	25.98	0.01	-0.750			
0.0084	538.47	4.1280	4.1280	-0.4342	25.98	0.01	-0.750			
0.0098	624.18	4.1250	4.1250	-0.4609	25.97	0.00	-0.750			
0.0112	715.10	4.1220	4.1220	-0.4863	25.97	0.00	-0.750			
0.0127	811.72	4.1190	4.1189	-0.5074	25.97	-0.00	-0.750			
0.0143	912.48	4.1160	4.1160	-0.5292	25.96	-0.01	-0.750			
0.0159	1016.43	4.1130	4.1130	-0.5455	25.96	-0.01	-0.750			
0.0175	1123.00	4.1100	4.1101	-0.5639	25.96	-0.01	-0.750			
0.0193	1234.49	4.1070	4.1069	-0.5739	25.95	-0.02	-0.750			
0.0210	1345.04	4.1040	4.1040	-0.5851	25.95	-0.02	-0.750			
0.0228	1458.65	4.1010	4.1010	-0.5954	25.94	-0.03	-0.750			
0.0246	1574.22	4.0980	4.0982	-0.6060	25.94	-0.03	-0.750			
0.0264	1691.89	4.0950	4.0949	-0.6135	25.94	-0.03	-0.750			
0.0283	1810.36	4.0920	4.0920	-0.6211	25.94	-0.03	-0.750			
0.0302	1929.86	4.0890	4.0891	-0.6266	25.94	-0.03	-0.750			
0.0321	2052.12	4.0860	4.0860	-0.6356	25.93	-0.04	-0.750			
0.0340	2173.83	4.0830	4.0830	-0.6424	25.93	-0.04	-0.750			
0.0359	2298.85	4.0800	4.0800	-0.6499	25.93	-0.04	-0.750			
0.0379	2424.86	4.0770	4.0770	-0.6545	25.93	-0.04	-0.750			
0.0399	2550.99	4.0740	4.0740	-0.6616	25.93	-0.04	-0.750			
0.0419	2678.42	4.0710	4.0711	-0.6670	25.93	-0.04	-0.750			
0.0439	2807.79	4.0680	4.0679	-0.6690	25.93	-0.04	-0.750			
0.0459	2935.76	4.0650	4.0649	-0.6728	25.93	-0.04	-0.750			
0.0479	3064.37	4.0620	4.0621	-0.6778	25.93	-0.04	-0.750			
0.0499	3195.83	4.0590	4.0590	-0.6863	25.93	-0.04	-0.750			
0.0520	3328.75	4.0560	4.0559	-0.6875	25.93	-0.04	-0.750			
0.0541	3460.87	4.0530	4.0531	-0.6916	25.93	-0.04	-0.750			
0.0562	3593.88	4.0500	4.0500	-0.6943	25.93	-0.04	-0.750			
0.0583	3728.45	4.0470	4.0469	-0.6953	25.93	-0.04	-0.750			
0.0603	3861.06	4.0440	4.0440	-0.6949	25.93	-0.04	-0.750			
0.0624	3994.56	4.0410	4.0410	-0.6963	25.93	-0.04	-0.750			
0.0645	4128.39	4.0380	4.0380	-0.6991	25.93	-0.04	-0.750			
0.0666	4263.37	4.0350	4.0350	-0.7027	25.93	-0.04	-0.750			
0.0687	4397.81	4.0320	4.0320	-0.7031	25.93	-0.04	-0.750			
0.0708	4533.77	4.0290	4.0290	-0.7059	25.93	-0.04	-0.750			
0.0730	4670.24	4.0260	4.0260	-0.7069	25.93	-0.04	-0.750			
0.0751	4804.78	4.0230	4.0231	-0.7097	25.93	-0.04	-0.750			
0.0772	4940.88	4.0200	4.0200	-0.7150	25.94	-0.03	-0.750			
0.0793	5078.37	4.0170	4.0170	-0.7211	25.94	-0.03	-0.750			
0.0815	5217.82	4.0140	4.0139	-0.7236	25.94	-0.03	-0.750			
0.0837	5358.27	4.0110	4.0110	-0.7241	25.95	-0.02	-0.750			
0.0859	5499.37	4.0080	4.0081	-0.7242	25.95	-0.02	-0.750			
0.0881	5637.37	4.0050	4.0050	-0.7237	25.95	-0.02	-0.750			
0.0902	5774.90	4.0020	4.0020	-0.7176	25.95	-0.02	-0.750			
0.0924	5912.37	3.9990	3.9990	-0.7219	25.95	-0.02	-0.750			
0.0945	6050.49	3.9960	3.9959	-0.7220	25.96	-0.01	-0.750			
0.0967	6191.55	3.9930	3.9930	-0.7260	25.96	-0.01	-0.750			
0.0989	6330.62	3.9900	3.9903	-0.7275	25.96	-0.01	-0.750			
0.1011	6471.35	3.9870	3.9869	-0.7285	25.96	-0.01	-0.750			
0.1033	6608.84	3.9840	3.9840	-0.7346	25.96	-0.01	-0.750			
0.1055	6749.61	3.9810	3.9810	-0.7383	25.97	-0.00	-0.750			
0.1077	6893.28	3.9780	3.9779	-0.7449	25.97	-0.00	-0.750			
0.1100	7036.92	3.9750	3.9749	-0.7441	25.97	-0.00	-0.750			
0.1122	7180.52	3.9720	3.9722	-0.7502	25.97	0.00	-0.750			
0.1144	7324.00	3.9690	3.9690	-0.7493	25.97	0.00	-0.750			
0.1167	7469.16	3.9660	3.9658	-0.7489	25.98	0.01	-0.750			
0.1189	7611.21	3.9630	3.9630	-0.7405	25.98	0.01	-0.750			
0.1212	7755.03	3.9600	3.9600	-0.7458	25.99	0.02	-0.750			
0.1234	7898.89	3.9570	3.9571	-0.7483	25.99	0.02	-0.750			
0.1257	8041.71	3.9540	3.9538	-0.7483	25.99	0.02	-0.750			
0.1278	8181.60	3.9510	3.9510	-0.7496	26.00	0.03	-0.750			
0.1301	8327.41	3.9480	3.9480	-0.7551	26.00	0.03	-0.750			
0.1324	8472.71	3.9450	3.9450	-0.7599	26.00	0.03	-0.750			
0.1347	8621.21	3.9420	3.9420	-0.7661	26.01	0.04	-0.750			
0.1370	8769.06	3.9390	3.9391	-0.7629	26.01	0.04	-0.750			
0.1393	8915.66	3.9360	3.9361	-0.7668	26.01	0.04	-0.750			
0.1416	9063.51	3.9330	3.9330	-0.7682	26.02	0.05	-0.750			
0.1439	9208.69	3.9300	3.9301	-0.7692	26.02	0.05	-0.750			
0.1462	9358.31	3.9270	3.9269	-0.7756	26.03	0.06	-0.750			
0.1485	9506.59	3.9240	3.9240	-0.7777	26.03	0.06	-0.750			
0.1509	9656.27	3.9210	3.9209	-0.7811	26.03	0.06	-0.750			
0.1532	9806.69	3.9180	3.9180	-0.7879	26.03	0.06	-0.750			
0.1556	9959.00	3.9150	3.9150	-0.7838	26.04	0.07	-0.750			
0.1580	10110.80	3.9120	3.9120	-0.7830	26.04	0.07	-0.750			
0.1603	10260.25	3.9090	3.9091	-0.7853	26.04	0.07	-0.750			
0.1627	10411.67	3.9060	3.9060	-0.7873	26.04	0.07	-0.750			
0.1650	10561.56	3.9030	3.9029	-0.7903	26.04	0.07	-0.750			
0.1674	10714.17	3.9000	3.9000	-0.7899	26.04	0.07	-0.750			
0.1698	10865.47	3.8970	3.8971	-0.7914	26.05	0.08	-0.750			
0.1722	11019.82	3.8940	3.8940	-0.7922	26.05	0.08	-0.750			
0.1746	11172.17	3.8910	3.8912	-0.7930	26.05	0.08	-0.750			
0.1769	11322.49	3.8880	3.8880	-0.7910	26.05	0.08	-0.750			
0.1793	11473.81	3.8850	3.8850	-0.7920	26.06	0.09	-0.750			
0.1817	11626.32	3.8820	3.8819	-0.7896	26.06	0.09	-0.750			
0.1840	11779.03	3.8790	3.8790	-0.7914	26.07	0.10	-0.750			
0.1864	11929.80	3.8760	3.8762	-0.7922	26.07	0.10	-0.750			
0.1888	12082.08	3.8730	3.8730	-0.7957	26.08	0.11	-0.750			
0.1912	12233.96	3.8700	3.8699	-0.7965	26.08	0.11	-0.750			
0.1936	12388.50	3.8670	3.8669	-0.7994	26.09	0.12	-0.750			
0.1960	12542.51	3.8640	3.8640	-0.7997	26.09	0.12	-0.750			
0.1984	12697.40	3.8610	3.8611	-0.7981	26.10	0.13	-0.750			
0.2008	12850.62	3.8580	3.8580	-0.7961	26.10	0.13	-0.750			
0.2031	13000.87	3.8550	3.8549	-0.7992	26.11	0.14	-0.750			
0.2055	13153.31	3.8520	3.8520	-0.7964	26.11	0.14	-0.750			
0.2079	13306.61	3.8490	3.8490	-0.7996	26.11	0.14	-0.750			
0.2104	13463.49	3.8460	3.8459	-0.7994	26.12	0.15	-0.750			
0.2128	13617.13	3.8430	3.8430	-0.7951	26.12	0.15	-0.750			
0.2151	13769.26	3.8400	3.8400	-0.7958	26.12	0.15	-0.750			
0.2175	13920.79	3.8370	3.8370	-0.7903	26.12	0.15	-0.750			
0.2198	14069.67	3.8340	3.8339	-0.7854	26.13	0.16	-0.750			
0.2222	14223.03	3.8310	3.8310	-0.7867	26.13	0.16	-0.750			
0.2246	14373.14	3.8280	3.8281	-0.7874	26.13	0.16	-0.750			
0.2269	14524.76	3.8250	3.8250	-0.7886	26.14	0.17	-0.750			
0.2293	14675.73	3.8220	3.8220	-0.7891	26.15	0.18	-0.750			
0.2317	14827.70	3.8190	3.8189	-0.7860	26.15	0.18	-0.750			
0.2341	14980.18	3.8160	3.8160	-0.7845	26.16	0.19	-0.750			
0.2364	15131.13	3.8130	3.8131	-0.7808	26.17	0.20	-0.750			
0.2388	15281.44	3.8100	3.8100	-0.7763	26.17	0.20	-0.750			
0.2411	15428.31	3.8070	3.8070	-0.7720	26.17	0.20	-0.750			
0.2434	15574.71	3.8040	3.8040	-0.7684	26.17	0.20	-0.750			
0.2457	15722.14	3.8010	3.8009	-0.7643	26.17	0.20	-0.750			
0.2480	15869.52	3.7980	3.7979	-0.7627	26.17	0.20	-0.750			
0.2503	16016.57	3.7950	3.7950	-0.7614	26.17	0.20	-0.750			
0.2525	16162.07	3.7920	3.7920	-0.7556	26.18	0.21	-0.750			
0.2548	16306.66	3.7890	3.7890	-0.7511	26.18	0.21	-0.750			
0.2570	16449.20	3.7860	3.7861	-0.7465	26.18	0.21	-0.750			
0.2593	16592.77	3.7830	3.7829	-0.7437	26.19	0.22	-0.750			
0.2615	16735.85	3.7800	3.7800	-0.7405	26.19	0.22	-0.750			
0.2637	16877.31	3.7770	3.7770	-0.7373	26.19	0.22	-0.750			
0.2659	17018.18	3.7740	3.7741	-0.7338	26.20	0.23	-0.750			
0.2681	17159.85	3.7710	3.7710	-0.7355	26.20	0.23	-0.750			
0.2703	17301.21	3.7680	3.7680	-0.7334	26.20	0.23	-0.750			
0.2725	17441.34	3.7650	3.7650	-0.7322	26.21	0.24	-0.750			
0.2747	17581.56	3.7620	3.7620	-0.7346	26.21	0.24	-0.750			
0.2769	17721.92	3.7590	3.7590	-0.7369	26.21	0.24	-0.750			
0.2791	17862.59	3.7560	3.7559	-0.7454	26.22	0.25	-0.750			
0.2813	18005.51	3.7530	3.7530	-0.7473	26.22	0.25	-0.750			
0.2836	18153.19	3.7500	3.7499	-0.7515	26.23	0.26	-0.750			
0.2859	18298.51	3.7470	3.7471	-0.7552	26.23	0.26	-0.750			
0.2882	18442.63	3.7440	3.7440	-0.7606	26.23	0.26	-0.750			
0.2904	18586.29	3.7410	3.7410	-0.7659	26.24	0.27	-0.750			
0.2927	18733.51	3.7380	3.7379	-0.7749	26.24	0.27	-0.750			
0.2950	18881.14	3.7350	3.7351	-0.7823	26.24	0.27	-0.750			
0.2974	19035.17	3.7320	3.7320	-0.8007	26.25	0.28	-0.750			
0.2999	19190.42	3.7290	3.7291	-0.8115	26.25	0.28	-0.750			
0.3023	19345.76	3.7260	3.7260	-0.8236	26.25	0.28	-0.750			
0.3048	19505.48	3.7230	3.7229	-0.8331	26.25	0.28	-0.750			
0.3073	19665.61	3.7200	3.7201	-0.8475	26.25	0.28	-0.750			
0.3099	19831.09	3.7170	3.7169	-0.8623	26.25	0.28	-0.750			
0.3125	19999.23	3.7140	3.7140	-0.8731	26.25	0.28	-0.750			
0.3151	20166.43	3.7110	3.7110	-0.8938	26.25	0.28	-0.750			
0.3178	20339.05	3.7080	3.7080	-0.9097	26.25	0.28	-0.750			
0.3206	20515.59	3.7050	3.7049	-0.9155	26.25	0.28	-0.750			
0.3234	20695.22	3.7020	3.7022	-0.9337	26.25	0.28	-0.750			
0.3261	20872.80	3.6990	3.6991	-0.9532	26.25	0.28	-0.750			
0.3291	21059.39	3.6960	3.6959	-0.9678	26.25	0.28	-0.750			
0.3320	21245.24	3.6930	3.6929	-0.9854	26.25	0.28	-0.750			
0.3349	21434.84	3.6900	3.6900	-0.9949	26.25	0.28	-0.750			
0.3380	21629.81	3.6870	3.6870	-1.0259	26.25	0.28	-0.750			
0.3411	21830.40	3.6840	3.6840	-1.0440	26.24	0.27	-0.750			
0.3442	22030.72	3.6810	3.6809	-1.0613	26.24	0.27	-0.750			
0.3474	22234.03	3.6780	3.6779	-1.0800	26.23	0.26	-0.750			
0.3507	22447.47	3.6750	3.6749	-1.1186	26.23	0.26	-0.750			
0.3542	22665.81	3.6720	3.6719	-1.1315	26.22	0.25	-0.750			
0.3576	22886.05	3.6690	3.6689	-1.1530	26.22	0.25	-0.750			
0.3611	23107.51	3.6660	3.6664	-1.1675	26.21	0.24	-0.750			
0.3646	23337.27	3.6630	3.6628	-1.1891	26.20	0.23	-0.750			
0.3682	23564.28	3.6600	3.6600	-1.2019	26.20	0.23	-0.750			
0.3717	23790.07	3.6570	3.6571	-1.2266	26.19	0.22	-0.750			
0.3755	24032.34	3.6540	3.6540	-1.2652	26.19	0.22	-0.750			
0.3794	24278.71	3.6510	3.6509	-1.2874	26.18	0.21	-0.750			
0.3832	24527.72	3.6480	3.6480	-1.3074	26.18	0.21	-0.750			
0.3872	24783.55	3.6450	3.6451	-1.3366	26.17	0.20	-0.750			
0.3913	25043.15	3.6420	3.6420	-1.3617	26.16	0.19	-0.750			
0.3954	25305.83	3.6390	3.6389	-1.3742	26.16	0.19	-0.750			
0.3995	25566.56	3.6360	3.6362	-1.4161	26.15	0.18	-0.750			
0.4038	25845.02	3.6330	3.6329	-1.4458	26.14	0.17	-0.750			
0.4082	26125.68	3.6300	3.6299	-1.4688	26.14	0.17	-0.750			
0.4126	26408.27	3.6270	3.6271	-1.5002	26.13	0.16	-0.750			
0.4172	26703.17	3.6240	3.6243	-1.5281	26.13	0.16	-0.750			
0.4218	26997.41	3.6210	3.6208	-1.5455	26.12	0.15	-0.750			
0.4264	27292.75	3.6180	3.6179	-1.5677	26.12	0.15	-0.750			
0.4312	27598.27	3.6150	3.6151	-1.6115	26.11	0.14	-0.750	0.400	0.550	
0.4362	27913.60	3.6120	3.6119	-1.6473	26.10	0.13	-0.750			
0.4411	28228.93	3.6090	3.6091	-1.6704	26.10	0.13	-0.750			
0.4462	28554.04	3.6060	3.6059	-1.6930	26.09	0.12	-0.750			
0.4514	28887.01	3.6030	3.6027	-1.7291	26.09	0.12	-0.750			
0.4566	29221.34	3.6000	3.6000	-1.7726	26.08	0.11	-0.750			
0.4619	29560.23	3.5970	3.5972	-1.8065	26.07	0.10	-0.750			
0.4674	29915.77	3.5940	3.5942	-1.8491	26.07	0.10	-0.750			
0.4730	30271.55	3.5910	3.5912	-1.8862	26.07	0.10	-0.750			
0.4787	30639.90	3.5880	3.5879	-1.9360	26.06	0.09	-0.750			
0.4847	31020.91	3.5850	3.5849	-1.9636	26.05	0.08	-0.750			
0.4906	31400.33	3.5820	3.5819	-2.0025	26.05	0.08	-0.750			
0.4967	31785.88	3.5790	3.5791	-2.0284	26.05	0.08	-0.750			
0.5028	32181.31	3.5760	3.5760	-2.0580	26.04	0.07	-0.750			
0.5091	32580.00	3.5730	3.5730	-2.0851	26.03	0.06	-0.750			
0.5153	32981.19	3.5700	3.5700	-2.0872	26.03	0.06	-0.750			
0.5216	33384.42	3.5670	3.5671	-2.1071	26.03	0.06	-0.750			
0.5281	33797.66	3.5640	3.5640	-2.1267	26.03	0.06	-0.750			
0.5344	34200.36	3.5610	3.5609	-2.1405	26.03	0.06	-0.750			
0.5408	34613.41	3.5580	3.5580	-2.1510	26.03	0.06	-0.750			
0.5474	35031.31	3.5550	3.5548	-2.1573	26.03	0.06	-0.750			
0.5539	35449.22	3.5520	3.5521	-2.1667	26.03	0.06	-0.750			
0.5604	35865.91	3.5490	3.5489	-2.1380	26.03	0.06	-0.750			
0.5667	36270.73	3.5460	3.5462	-2.1279	26.03	0.06	-0.750			
0.5731	36676.06	3.5430	3.5431	-2.1144	26.03	0.06	-0.750			
0.5794	37084.68	3.5400	3.5396	-2.0923	26.04	0.07	-0.750			
0.5857	37487.52	3.5370	3.5370	-2.0732	26.05	0.08	-0.750			
0.5920	37888.10	3.5340	3.5339	-2.0637	26.05	0.08	-0.750			
0.5982	38284.12	3.5310	3.5308	-2.0400	26.05	0.08	-0.750			
0.6042	38671.83	3.5280	3.5281	-1.9896	26.06	0.09	-0.750			
0.6102	39051.86	3.5250	3.5250	-1.9643	26.07	0.10	-0.750			
0.6160	39424.95	3.5220	3.5221	-1.9187	26.08	0.11	-0.750			
0.6218	39795.30	3.5190	3.5189	-1.8844	26.09	0.12	-0.750			
0.6273	40148.61	3.5160	3.5159	-1.8307	26.10	0.13	-0.750			
0.6328	40497.18	3.5130	3.5129	-1.7846	26.10	0.13	-0.750			
0.6381	40837.61	3.5100	3.5101	-1.7354	26.11	0.14	-0.750			
0.6433	41170.66	3.5070	3.5069	-1.6851	26.12	0.15	-0.750			
0.6483	41491.20	3.5040	3.5042	-1.6386	26.13	0.16	-0.750			
0.6532	41802.09	3.5010	3.5010	-1.5766	26.14	0.17	-0.750			
0.6578	42098.63	3.4980	3.4979	-1.5274	26.16	0.19	-0.750			
0.6623	42386.24	3.4950	3.4952	-1.4840	26.17	0.20	-0.750			
0.6666	42665.31	3.4920	3.4919	-1.4406	26.19	0.22	-0.750			
0.6709	42939.39	3.4890	3.4889	-1.3974	26.20	0.23	-0.750			
0.6751	43204.32	3.4860	3.4861	-1.3589	26.21	0.24	-0.750			
0.6791	43463.53	3.4830	3.4829	-1.3251	26.23	0.26	-0.750			
0.6830	43714.90	3.4800	3.4799	-1.2809	26.25	0.28	-0.750			
0.6868	43952.96	3.4770	3.4771	-1.2302	26.26	0.29	-0.750			
0.6904	44188.65	3.4740	3.4740	-1.1948	26.28	0.31	-0.750			
0.6940	44413.77	3.4710	3.4710	-1.1547	26.29	0.32	-0.750			
0.6974	44630.93	3.4680	3.4678	-1.1194	26.30	0.33	-0.750			
0.7006	44839.94	3.4650	3.4649	-1.0855	26.32	0.35	-0.750			
0.7038	45045.27	3.4620	3.4619	-1.0487	26.33	0.36	-0.750			
0.7070	45245.15	3.4590	3.4590	-1.0138	26.35	0.38	-0.750			
0.7099	45433.19	3.4560	3.4560	-0.9762	26.36	0.39	-0.750			
0.7128	45621.27	3.4530	3.4530	-0.9594	26.38	0.41	-0.750			
0.7156	45798.70	3.4500	3.4499	-0.9335	26.39	0.42	-0.750			
0.7184	45975.35	3.4470	3.4469	-0.9133	26.40	0.43	-0.750			
0.7211	46149.12	3.4440	3.4440	-0.8884	26.41	0.44	-0.750			
0.7237	46318.93	3.4410	3.4411	-0.8768	26.42	0.45	-0.750			
0.7263	46485.11	3.4380	3.4380	-0.8694	26.43	0.46	-0.750			
0.7289	46649.47	3.4350	3.4349	-0.8610	26.44	0.47	-0.750			
0.7314	46810.37	3.4320	3.4319	-0.8550	26.44	0.47	-0.750			
0.7340	46974.89	3.4290	3.4290	-0.8583	26.45	0.48	-0.750			
0.7366	47140.22	3.4260	3.4262	-0.8737	26.46	0.49	-0.750			
0.7392	47309.29	3.4230	3.4229	-0.8839	26.47	0.50	-0.750			
0.7419	47478.54	3.4200	3.4199	-0.8895	26.48	0.51	-0.750			
0.7445	47651.03	3.4170	3.4171	-0.8983	26.49	0.52	-0.750			
0.7473	47827.08	3.4140	3.4139	-0.9101	26.49	0.52	-0.750			
0.7500	48001.51	3.4110	3.4110	-0.9107	26.50	0.53	-0.750			
0.7528	48176.83	3.4080	3.4080	-0.9113	26.51	0.54	-0.750			
0.7555	48351.05	3.4050	3.4049	-0.9041	26.52	0.55	-0.750			
0.7583	48528.39	3.4020	3.4020	-0.8937	26.53	0.56	-0.750			
0.7609	48699.49	3.3990	3.3991	-0.8785	26.54	0.57	-0.750			
0.7636	48867.96	3.3960	3.3960	-0.8622	26.55	0.58	-0.750			
0.7661	49031.28	3.3930	3.3928	-0.8432	26.56	0.59	-0.750			
0.7686	49191.12	3.3900	3.3900	-0.8140	26.56	0.59	-0.750			
0.7710	49345.44	3.3870	3.3869	-0.7898	26.57	0.60	-0.750			
0.7734	49497.14	3.3840	3.3841	-0.7657	26.58	0.61	-0.750			
0.7756	49641.29	3.3810	3.3809	-0.7404	26.59	0.62	-0.750			
0.7778	49778.74	3.3780	3.3780	-0.7108	26.59	0.62	-0.750			
0.7799	49911.25	3.3750	3.3750	-0.6887	26.60	0.63	-0.750			
0.7819	50039.66	3.3720	3.3720	-0.6642	26.61	0.64	-0.750			
0.7839	50168.43	3.3690	3.3690	-0.6484	26.61	0.64	-0.750			
0.7858	50289.47	3.3660	3.3660	-0.6240	26.62	0.65	-0.750			
0.7876	50408.35	3.3630	3.3631	-0.6062	26.62	0.65	-0.750			
0.7894	50521.73	3.3600	3.3600	-0.5858	26.63	0.66	-0.750			
0.7911	50632.58	3.3570	3.3569	-0.5630	26.64	0.67	-0.750			
0.7928	50737.90	3.3540	3.3540	-0.5454	26.64	0.67	-0.750			
0.7944	50841.51	3.3510	3.3509	-0.5278	26.65	0.68	-0.750			
0.7959	50940.50	3.3480	3.3480	-0.5088	26.65	0.68	-0.750			
0.7974	51036.18	3.3450	3.3450	-0.4904	26.66	0.69	-0.750			
0.7989	51127.96	3.3420	3.3422	-0.4745	26.66	0.69	-0.750			
0.8003	51218.22	3.3390	3.3390	-0.4590	26.67	0.70	-0.750			
0.8016	51304.75	3.3360	3.3360	-0.4459	26.67	0.70	-0.750			
0.8029	51387.49	3.3330	3.3331	-0.4312	26.68	0.71	-0.750			
0.8042	51468.99	3.3300	3.3300	-0.4192	26.69	0.72	-0.750			
0.8054	51547.98	3.3270	3.3269	-0.4074	26.69	0.72	-0.750			
0.8066	51624.91	3.3240	3.3240	-0.3953	26.70	0.73	-0.750			
0.8078	51699.28	3.3210	3.3210	-0.3853	26.70	0.73	-0.750			
0.8090	51773.36	3.3180	3.3181	-0.3757	26.71	0.74	-0.750			
0.8101	51843.95	3.3150	3.3149	-0.3646	26.71	0.74	-0.750			
0.8111	51912.46	3.3120	3.3120	-0.3543	26.72	0.75	-0.750			
0.8122	51980.16	3.3090	3.3091	-0.3456	26.72	0.75	-0.750			
0.8132	52045.02	3.3060	3.3060	-0.3359	26.73	0.76	-0.750			
0.8142	52108.90	3.3030	3.3030	-0.3265	26.73	0.76	-0.750			
0.8152	52169.77	3.3000	3.3000	-0.3174	26.74	0.77	-0.750			
0.8161	52229.66	3.2970	3.2970	-0.3110	26.74	0.77	-0.750			
0.8170	52288.00	3.2940	3.2940	-0.3044	26.75	0.78	-0.750			
0.8179	52345.93	3.2910	3.2909	-0.2978	26.75	0.78	-0.750			
0.8188	52402.94	3.2880	3.2879	-0.2921	26.76	0.79	-0.750			
0.8197	52458.56	3.2850	3.2851	-0.2864	26.76	0.79	-0.750			
0.8205	52513.17	3.2820	3.2820	-0.2816	26.76	0.79	-0.750			
0.8214	52566.41	3.2790	3.2790	-0.2743	26.77	0.80	-0.750			
0.8222	52618.66	3.2760	3.2760	-0.2687	26.77	0.80	-0.750			
0.8229	52668.70	3.2730	3.2729	-0.2628	26.78	0.81	-0.750			
0.8237	52718.80	3.2700	3.2701	-0.2598	26.78	0.81	-0.750			
0.8245	52768.23	3.2670	3.2669	-0.2557	26.79	0.82	-0.750			
0.8253	52817.06	3.2640	3.2639	-0.2515	26.79	0.82	-0.750			
0.8260	52864.70	3.2610	3.2610	-0.2472	26.80	0.83	-0.750			
0.8267	52911.80	3.2580	3.2581	-0.2435	26.80	0.83	-0.750			
0.8275	52958.64	3.2550	3.2550	-0.2402	26.81	0.84	-0.750			
0.8282	53004.53	3.2520	3.2520	-0.2354	26.82	0.85	-0.750			
0.8289	53049.15	3.2490	3.2489	-0.2304	26.82	0.85	-0.750			
0.8296	53092.71	3.2460	3.2460	-0.2261	26.83	0.86	-0.750			
0.8302	53135.51	3.2430	3.2430	-0.2230	26.83	0.86	-0.750			
0.8309	53177.45	3.2400	3.2401	-0.2203	26.84	0.87	-0.750			
0.8316	53219.56	3.2370	3.2369	-0.2184	26.85	0.88	-0.750			
0.8322	53261.03	3.2340	3.2339	-0.2150	26.85	0.88	-0.750			
0.8328	53302.24	3.2310	3.2309	-0.2125	26.86	0.89	-0.750			
0.8335	53343.31	3.2280	3.2281	-0.2111	26.86	0.89	-0.750			
0.8341	53383.52	3.2250	3.2251	-0.2077	26.87	0.90	-0.750			
0.8347	53423.15	3.2220	3.2219	-0.2049	26.87	0.90	-0.750			
0.8353	53462.03	3.2190	3.2190	-0.2014	26.88	0.91	-0.750			
0.8359	53500.18	3.2160	3.2159	-0.1978	26.88	0.91	-0.750			
0.8365	53537.93	3.2130	3.2132	-0.1954	26.88	0.91	-0.750			
0.8371	53575.46	3.2100	3.2100	-0.1936	26.89	0.92	-0.750			
0.8377	53612.12	3.2070	3.2070	-0.1914	26.89	0.92	-0.750			
0.8383	53648.59	3.2040	3.2039	-0.1889	26.90	0.93	-0.750			
0.8388	53684.60	3.2010	3.2010	-0.1869	26.91	0.94	-0.750			
0.8394	53720.40	3.1980	3.1980	-0.1847	26.91	0.94	-0.750			
0.8399	53755.94	3.1950	3.1950	-0.1825	26.92	0.95	-0.750			
0.8405	53790.83	3.1920	3.1919	-0.1800	26.92	0.95	-0.750			
0.8410	53825.11	3.1890	3.1890	-0.1771	26.93	0.96	-0.750			
0.8415	53858.54	3.1860	3.1860	-0.1760	26.94	0.97	-0.750			
0.8421	53891.81	3.1830	3.1830	-0.1744	26.94	0.97	-0.750			
0.8426	53925.36	3.1800	3.1798	-0.1729	26.95	0.98	-0.750			
0.8431	53958.45	3.1770	3.1770	-0.1717	26.95	0.98	-0.750			
0.8436	53991.40	3.1740	3.1741	-0.1701	26.96	0.99	-0.750			
0.8441	54024.28	3.1710	3.1711	-0.1684	26.96	0.99	-0.750			
0.8446	54056.64	3.1680	3.1680	-0.1663	26.97	1.00	-0.750			
0.8451	54088.28	3.1650	3.1650	-0.1633	26.97	1.00	-0.750			
0.8456	54118.74	3.1620	3.1619	-0.1624	26.98	1.01	-0.750			
0.8461	54149.60	3.1590	3.1590	-0.1611	26.98	1.01	-0.750			
0.8466	54180.81	3.1560	3.1559	-0.1596	26.99	1.02	-0.750			
0.8471	54211.32	3.1530	3.1528	-0.1582	26.99	1.02	-0.750			
0.8475	54241.64	3.1500	3.1501	-0.1565	27.00	1.03	-0.750			
0.8480	54271.73	3.1470	3.1471	-0.1554	27.00	1.03	-0.750			
0.8485	54301.34	3.1440	3.1438	-0.1540	27.01	1.04	-0.750			
0.8489	54330.70	3.1410	3.1412	-0.1519	27.01	1.04	-0.750			
0.8494	54359.02	3.1380	3.1380	-0.1502	27.02	1.05	-0.750			
0.8498	54387.94	3.1350	3.1350	-0.1491	27.02	1.05	-0.750			
0.8503	54416.50	3.1320	3.1320	-0.1482	27.03	1.06	-0.750			
0.8507	54445.12	3.1290	3.1290	-0.1473	27.04	1.07	-0.750			
0.8511	54473.28	3.1260	3.1260	-0.1459	27.04	1.07	-0.750			
0.8516	54500.91	3.1230	3.1231	-0.1451	27.05	1.08	-0.750			
0.8520	54528.91	3.1200	3.1199	-0.1438	27.05	1.08	-0.750			
0.8524	54556.40	3.1170	3.1170	-0.1425	27.06	1.09	-0.750			
0.8529	54583.60	3.1140	3.1140	-0.1413	27.07	1.10	-0.750			
0.8533	54610.59	3.1110	3.1111	-0.1410	27.07	1.10	-0.750			
0.8537	54637.64	3.1080	3.1079	-0.1396	27.08	1.11	-0.750			
0.8541	54664.35	3.1050	3.1050	-0.1386	27.08	1.11	-0.750			
0.8545	54691.05	3.1020	3.1019	-0.1369	27.09	1.12	-0.750			
0.8550	54717.08	3.0990	3.0990	-0.1352	27.10	1.13	-0.750			
0.8554	54743.36	3.0960	3.0961	-0.1345	27.10	1.13	-0.750			
0.8558	54768.54	3.0930	3.0930	-0.1334	27.11	1.14	-0.750			
0.8562	54793.76	3.0900	3.0900	-0.1318	27.11	1.14	-0.750			
0.8565	54818.60	3.0870	3.0870	-0.1306	27.12	1.15	-0.750			
0.8569	54843.67	3.0840	3.0839	-0.1306	27.12	1.15	-0.750			
0.8573	54868.97	3.0810	3.0811	-0.1297	27.13	1.16	-0.750			
0.8577	54894.19	3.0780	3.0779	-0.1294	27.13	1.16	-0.750			
0.8581	54918.87	3.0750	3.0751	-0.1280	27.14	1.17	-0.750			
0.8585	54943.48	3.0720	3.0719	-0.1267	27.14	1.17	-0.750			
0.8589	54967.22	3.0690	3.0691	-0.1256	27.15	1.18	-0.750			
0.8592	54991.28	3.0660	3.0660	-0.1250	27.15	1.18	-0.750			
0.8596	55015.02	3.0630	3.0631	-0.1242	27.16	1.19	-0.750			
0.8600	55038.84	3.0600	3.0599	-0.1240	27.16	1.19	-0.750			
0.8604	55062.73	3.0570	3.0570	-0.1235	27.17	1.20	-0.750			
0.8607	55086.56	3.0540	3.0540	-0.1226	27.17	1.20	-0.750			
0.8611	55110.21	3.0510	3.0510	-0.1221	27.18	1.21	-0.750			
0.8615	55133.51	3.0480	3.0480	-0.1209	27.18	1.21	-0.750			
0.8618	55156.60	3.0450	3.0450	-0.1197	27.19	1.22	-0.750			
0.8622	55179.43	3.0420	3.0420	-0.1186	27.19	1.22	-0.750			
0.8625	55202.08	3.0390	3.0390	-0.1174	27.20	1.23	-0.750			
0.8629	55224.39	3.0360	3.0359	-0.1167	27.20	1.23	-0.750			
0.8632	55246.59	3.0330	3.0331	-0.1157	27.20	1.23	-0.750			
0.8636	55268.73	3.0300	3.0301	-0.1153	27.21	1.24	-0.750			
0.8639	55290.75	3.0270	3.0270	-0.1147	27.21	1.24	-0.750			
0.8643	55312.85	3.0240	3.0239	-0.1139	27.22	1.25	-0.750			
0.8646	55334.72	3.0210	3.0210	-0.1133	27.22	1.25	-0.750			
0.8649	55356.48	3.0180	3.0180	-0.1123	27.23	1.26	-0.750			
0.8653	55378.13	3.0150	3.0150	-0.1116	27.23	1.26	-0.750			
0.8656	55399.44	3.0120	3.0121	-0.1103	27.23	1.26	-0.750			
0.8659	55420.55	3.0090	3.0089	-0.1090	27.24	1.27	-0.751			
0.8663	55441.35	3.0060	3.0060	-0.1077	27.24	1.27	-0.751			
0.8666	55461.90	3.0030	3.0030	-0.1070	27.25	1.28	-0.751			
