Ah_balance (normalized)	Ah_balance (mAh)	Voltage - fit (V)	Voltage -  interpolate (V)	dQ/dV (1/V)	Temperature (°C)	Temperature - diff (°C)	Current (C)	R_DC 0ms (mOhm)	R_DC 50ms (mOhm)	R_DC 50 ms PEC (mOhm)
0.0545	3486.16	4.1980	4.1980	0.7638	26.70	0.71	0.750			
0.0568	3632.22	4.1950	4.1950	0.7579	26.70	0.71	0.750			
0.0590	3776.90	4.1920	4.1921	0.7533	26.69	0.70	0.750			
0.0613	3920.77	4.1890	4.1890	0.7516	26.69	0.70	0.750			
0.0635	4064.57	4.1860	4.1860	0.7524	26.69	0.70	0.750			
0.0658	4208.86	4.1830	4.1829	0.7518	26.69	0.70	0.750			
0.0680	4352.88	4.1800	4.1800	0.7552	26.69	0.70	0.750			
0.0703	4499.11	4.1770	4.1770	0.7549	26.69	0.70	0.750			
0.0726	4644.02	4.1740	4.1740	0.7537	26.68	0.69	0.750			
0.0748	4788.85	4.1710	4.1710	0.7553	26.68	0.69	0.750			
0.0771	4933.97	4.1680	4.1680	0.7565	26.68	0.69	0.750			
0.0793	5078.35	4.1650	4.1650	0.7572	26.68	0.69	0.750			
0.0816	5225.00	4.1620	4.1620	0.7580	26.68	0.69	0.750			
0.0839	5370.20	4.1590	4.1591	0.7595	26.68	0.69	0.750			
0.0862	5516.79	4.1560	4.1560	0.7645	26.68	0.69	0.750			
0.0885	5663.71	4.1530	4.1531	0.7656	26.68	0.69	0.750			
0.0908	5810.19	4.1500	4.1500	0.7663	26.68	0.69	0.750			
0.0931	5958.27	4.1470	4.1470	0.7662	26.68	0.69	0.750			
0.0954	6105.77	4.1440	4.1440	0.7656	26.68	0.69	0.750			
0.0977	6252.20	4.1410	4.1411	0.7688	26.69	0.70	0.750			
0.1000	6399.60	4.1380	4.1380	0.7684	26.69	0.70	0.750			
0.1023	6546.80	4.1350	4.1346	0.7719	26.69	0.70	0.750			
0.1046	6695.55	4.1320	4.1321	0.7744	26.69	0.70	0.750			
0.1070	6846.12	4.1290	4.1290	0.7705	26.69	0.70	0.750			
0.1093	6995.07	4.1260	4.1260	0.7775	26.68	0.69	0.750			
0.1116	7143.44	4.1230	4.1231	0.7782	26.68	0.69	0.750			
0.1139	7290.55	4.1200	4.1200	0.7763	26.68	0.69	0.750			
0.1163	7440.05	4.1170	4.1169	0.7830	26.68	0.69	0.750			
0.1186	7591.57	4.1140	4.1141	0.7820	26.68	0.69	0.750			
0.1210	7742.80	4.1110	4.1110	0.7846	26.68	0.69	0.750			
0.1234	7895.00	4.1080	4.1080	0.7924	26.68	0.69	0.750			
0.1257	8045.19	4.1050	4.1050	0.7877	26.68	0.69	0.750			
0.1281	8195.79	4.1020	4.1019	0.7907	26.68	0.69	0.750			
0.1304	8348.41	4.0990	4.0990	0.7944	26.68	0.69	0.750			
0.1328	8501.25	4.0960	4.0961	0.7898	26.68	0.69	0.750			
0.1352	8652.80	4.0930	4.0931	0.7954	26.68	0.69	0.750			
0.1376	8805.95	4.0900	4.0900	0.7934	26.68	0.69	0.750			
0.1399	8956.29	4.0870	4.0867	0.8019	26.68	0.69	0.750			
0.1424	9110.48	4.0840	4.0841	0.8063	26.68	0.69	0.750			
0.1448	9266.29	4.0810	4.0810	0.8071	26.68	0.69	0.750			
0.1473	9424.40	4.0780	4.0780	0.8095	26.69	0.70	0.750			
0.1497	9578.77	4.0750	4.0752	0.8119	26.69	0.70	0.750			
0.1521	9734.36	4.0720	4.0720	0.8178	26.69	0.70	0.750			
0.1546	9892.55	4.0690	4.0689	0.8201	26.69	0.70	0.750			
0.1570	10050.61	4.0660	4.0660	0.8081	26.69	0.70	0.750			
0.1595	10206.45	4.0630	4.0631	0.8178	26.70	0.71	0.750			
0.1619	10363.41	4.0600	4.0601	0.8161	26.70	0.71	0.750			
0.1644	10519.76	4.0570	4.0568	0.8154	26.70	0.71	0.750			
0.1668	10674.21	4.0540	4.0542	0.8130	26.70	0.71	0.750			
0.1692	10831.09	4.0510	4.0510	0.8067	26.70	0.71	0.750			
0.1717	10986.69	4.0480	4.0480	0.8122	26.69	0.70	0.750			
0.1741	11142.67	4.0450	4.0450	0.8247	26.69	0.70	0.750			
0.1765	11299.00	4.0420	4.0420	0.8224	26.69	0.70	0.750			
0.1790	11458.01	4.0390	4.0390	0.8329	26.69	0.70	0.750			
0.1816	11619.56	4.0360	4.0361	0.8334	26.69	0.70	0.750			
0.1841	11781.80	4.0330	4.0330	0.8381	26.69	0.70	0.750			
0.1866	11944.89	4.0300	4.0300	0.8411	26.69	0.70	0.750			
0.1891	12103.92	4.0270	4.0270	0.8354	26.69	0.70	0.750			
0.1916	12262.81	4.0240	4.0241	0.8358	26.69	0.70	0.750			
0.1941	12424.56	4.0210	4.0209	0.8390	26.69	0.70	0.750			
0.1966	12583.47	4.0180	4.0180	0.8424	26.70	0.71	0.750			
0.1991	12745.07	4.0150	4.0150	0.8477	26.70	0.71	0.750			
0.2017	12910.19	4.0120	4.0119	0.8549	26.70	0.71	0.750			
0.2043	13075.73	4.0090	4.0090	0.8584	26.70	0.71	0.750			
0.2069	13242.16	4.0060	4.0060	0.8555	26.70	0.71	0.750			
0.2095	13405.31	4.0030	4.0030	0.8577	26.70	0.71	0.750			
0.2120	13568.17	4.0000	4.0001	0.8602	26.70	0.71	0.750			
0.2146	13733.78	3.9970	3.9968	0.8633	26.70	0.71	0.750			
0.2172	13899.24	3.9940	3.9940	0.8687	26.70	0.71	0.750			
0.2198	14068.24	3.9910	3.9911	0.8688	26.70	0.71	0.750			
0.2225	14237.60	3.9880	3.9880	0.8718	26.70	0.71	0.750			
0.2251	14403.21	3.9850	3.9851	0.8698	26.70	0.71	0.750			
0.2276	14569.58	3.9820	3.9819	0.8745	26.70	0.71	0.750			
0.2303	14736.38	3.9790	3.9790	0.8733	26.70	0.71	0.750			
0.2329	14905.22	3.9760	3.9760	0.8812	26.70	0.71	0.750			
0.2356	15075.69	3.9730	3.9731	0.8853	26.70	0.71	0.750			
0.2382	15247.22	3.9700	3.9699	0.8921	26.70	0.71	0.750			
0.2409	15418.61	3.9670	3.9670	0.8928	26.70	0.71	0.750			
0.2436	15591.13	3.9640	3.9640	0.8868	26.70	0.71	0.750			
0.2463	15761.05	3.9610	3.9610	0.8862	26.70	0.71	0.750			
0.2489	15931.57	3.9580	3.9581	0.8866	26.70	0.71	0.750			
0.2516	16099.99	3.9550	3.9548	0.8861	26.70	0.71	0.750			
0.2542	16270.20	3.9520	3.9520	0.8858	26.70	0.71	0.750			
0.2569	16439.66	3.9490	3.9490	0.8843	26.69	0.70	0.750			
0.2595	16609.92	3.9460	3.9461	0.8896	26.69	0.70	0.750			
0.2622	16782.65	3.9430	3.9430	0.8979	26.68	0.69	0.750			
0.2649	16954.45	3.9400	3.9399	0.8942	26.68	0.69	0.750			
0.2676	17127.26	3.9370	3.9369	0.8918	26.68	0.69	0.750			
0.2703	17299.36	3.9340	3.9340	0.8864	26.68	0.69	0.750			
0.2730	17469.92	3.9310	3.9311	0.8904	26.68	0.69	0.750			
0.2756	17639.90	3.9280	3.9281	0.8877	26.68	0.69	0.750			
0.2782	17807.98	3.9250	3.9250	0.8875	26.68	0.69	0.750			
0.2809	17979.08	3.9220	3.9221	0.8862	26.67	0.68	0.750			
0.2836	18149.29	3.9190	3.9190	0.8983	26.67	0.68	0.750			
0.2863	18321.47	3.9160	3.9160	0.9056	26.67	0.68	0.750			
0.2890	18497.35	3.9130	3.9129	0.9147	26.66	0.67	0.750			
0.2918	18674.69	3.9100	3.9101	0.9109	26.66	0.67	0.750			
0.2945	18850.93	3.9070	3.9070	0.9187	26.65	0.66	0.750			
0.2973	19027.25	3.9040	3.9041	0.9229	26.65	0.66	0.750			
0.3001	19206.15	3.9010	3.9011	0.9254	26.64	0.65	0.750			
0.3028	19381.10	3.8980	3.8978	0.9281	26.64	0.65	0.750			
0.3057	19561.78	3.8950	3.8950	0.9209	26.63	0.64	0.750			
0.3084	19736.24	3.8920	3.8921	0.9323	26.63	0.64	0.750			
0.3112	19916.08	3.8890	3.8890	0.9430	26.62	0.63	0.750			
0.3140	20097.00	3.8860	3.8860	0.9451	26.61	0.62	0.750			
0.3169	20284.24	3.8830	3.8830	0.9413	26.61	0.62	0.750			
0.3198	20466.41	3.8800	3.8801	0.9500	26.60	0.61	0.750			
0.3226	20645.13	3.8770	3.8771	0.9608	26.59	0.60	0.750			
0.3255	20832.82	3.8740	3.8741	0.9676	26.58	0.59	0.750			
0.3284	21014.92	3.8710	3.8711	0.9595	26.58	0.59	0.750			
0.3313	21200.54	3.8680	3.8681	0.9670	26.57	0.58	0.750			
0.3342	21388.41	3.8650	3.8653	0.9754	26.56	0.57	0.750			
0.3371	21577.47	3.8620	3.8620	0.9773	26.56	0.57	0.750			
0.3401	21765.57	3.8590	3.8589	0.9739	26.55	0.56	0.750			
0.3430	21954.47	3.8560	3.8560	0.9537	26.54	0.55	0.750			
0.3459	22136.83	3.8530	3.8531	0.9699	26.54	0.55	0.750			
0.3487	22318.87	3.8500	3.8502	0.9809	26.53	0.54	0.750			
0.3517	22506.97	3.8470	3.8468	0.9865	26.52	0.53	0.750			
0.3547	22698.20	3.8440	3.8441	0.9876	26.51	0.52	0.750			
0.3577	22889.90	3.8410	3.8411	0.9793	26.50	0.51	0.750			
0.3606	23076.93	3.8380	3.8383	0.9825	26.49	0.50	0.750			
0.3636	23268.67	3.8350	3.8351	0.9881	26.48	0.49	0.750			
0.3664	23450.70	3.8320	3.8321	0.9808	26.48	0.49	0.750			
0.3694	23639.70	3.8290	3.8291	0.9964	26.47	0.48	0.750			
0.3724	23835.29	3.8260	3.8260	1.0027	26.46	0.47	0.750			
0.3755	24029.91	3.8230	3.8232	1.0147	26.45	0.46	0.750			
0.3785	24225.68	3.8200	3.8201	1.0120	26.44	0.45	0.750			
0.3816	24421.28	3.8170	3.8169	1.0162	26.42	0.43	0.750			
0.3846	24615.13	3.8140	3.8140	1.0227	26.41	0.42	0.750			
0.3877	24811.23	3.8110	3.8112	1.0299	26.40	0.41	0.750			
0.3908	25012.57	3.8080	3.8079	1.0333	26.39	0.40	0.750			
0.3939	25210.84	3.8050	3.8050	1.0480	26.38	0.39	0.750			
0.3970	25409.30	3.8020	3.8021	1.0530	26.37	0.38	0.750			
0.4002	25613.19	3.7990	3.7991	1.0746	26.36	0.37	0.750			
0.4035	25823.01	3.7960	3.7959	1.0833	26.35	0.36	0.750			
0.4067	26030.65	3.7930	3.7931	1.1029	26.34	0.35	0.750			
0.4101	26244.08	3.7900	3.7901	1.1231	26.33	0.34	0.750			
0.4135	26461.84	3.7870	3.7870	1.1445	26.31	0.32	0.750			
0.4169	26682.63	3.7840	3.7840	1.1493	26.30	0.31	0.750			
0.4204	26904.11	3.7810	3.7811	1.1690	26.29	0.30	0.750			
0.4239	27131.70	3.7780	3.7781	1.1819	26.28	0.29	0.750			
0.4275	27359.36	3.7750	3.7745	1.2058	26.27	0.28	0.750			
0.4311	27587.20	3.7720	3.7722	1.2259	26.26	0.27	0.750			
0.4348	27824.26	3.7690	3.7692	1.2648	26.25	0.26	0.750			
0.4386	28072.40	3.7660	3.7648	1.2914	26.23	0.24	0.750	0.325	0.421	
0.4426	28326.34	3.7630	3.7632	1.3377	26.22	0.23	0.750			
0.4466	28583.01	3.7600	3.7601	1.3636	26.21	0.22	0.750			
0.4509	28854.58	3.7570	3.7569	1.3755	26.19	0.20	0.750			
0.4550	29118.19	3.7540	3.7542	1.3974	26.18	0.19	0.750			
0.4592	29386.37	3.7510	3.7511	1.4242	26.17	0.18	0.750			
0.4635	29666.04	3.7480	3.7479	1.4325	26.15	0.16	0.750			
0.4679	29944.04	3.7450	3.7449	1.4720	26.14	0.15	0.750			
0.4722	30222.25	3.7420	3.7423	1.5167	26.13	0.14	0.750			
0.4769	30520.48	3.7390	3.7389	1.5582	26.11	0.12	0.750			
0.4816	30821.48	3.7360	3.7364	1.6059	26.10	0.11	0.750			
0.4865	31136.48	3.7330	3.7332	1.6567	26.09	0.10	0.750			
0.4915	31459.17	3.7300	3.7300	1.7079	26.07	0.08	0.750			
0.4968	31794.69	3.7270	3.7270	1.7576	26.05	0.06	0.750			
0.5021	32133.40	3.7240	3.7235	1.7983	26.03	0.04	0.750			
0.5075	32480.56	3.7210	3.7210	1.8355	26.02	0.03	0.750			
0.5131	32839.43	3.7180	3.7180	1.8872	26.00	0.01	0.750			
0.5187	33196.50	3.7150	3.7149	1.9498	25.99	0.00	0.750			
0.5246	33576.97	3.7120	3.7117	2.0064	25.98	-0.01	0.750			
0.5308	33972.24	3.7090	3.7088	2.0907	25.96	-0.03	0.750			
0.5372	34378.81	3.7060	3.7061	2.1843	25.94	-0.05	0.750			
0.5439	34811.77	3.7030	3.7029	2.2183	25.92	-0.07	0.750			
0.5507	35245.52	3.7000	3.6999	2.2762	25.90	-0.09	0.750			
0.5576	35686.32	3.6970	3.6972	2.3220	25.88	-0.11	0.750			
0.5647	36139.98	3.6940	3.6937	2.3818	25.87	-0.12	0.750			
0.5718	36597.30	3.6910	3.6910	2.4553	25.86	-0.13	0.750			
0.5793	37072.27	3.6880	3.6880	2.5108	25.85	-0.14	0.750			
0.5870	37564.82	3.6850	3.6849	2.6180	25.83	-0.16	0.750			
0.5949	38072.14	3.6820	3.6819	2.7414	25.81	-0.18	0.750			
0.6033	38613.83	3.6790	3.6789	2.8110	25.80	-0.19	0.750			
0.6120	39164.87	3.6760	3.6762	2.8851	25.79	-0.20	0.750			
0.6209	39734.79	3.6730	3.6728	2.9217	25.78	-0.21	0.750			
0.6298	40308.71	3.6700	3.6700	2.8353	25.77	-0.22	0.750			
0.6385	40866.80	3.6670	3.6670	2.7293	25.77	-0.22	0.750			
0.6463	41366.39	3.6640	3.6640	2.4554	25.77	-0.22	0.750			
0.6529	41786.85	3.6610	3.6609	2.1670	25.77	-0.22	0.750			
0.6590	42172.88	3.6580	3.6579	1.9598	25.77	-0.22	0.750			
0.6643	42512.86	3.6550	3.6546	1.7757	25.77	-0.22	0.750			
0.6692	42828.56	3.6520	3.6518	1.6417	25.77	-0.22	0.750			
0.6740	43133.26	3.6490	3.6492	1.5376	25.77	-0.22	0.750			
0.6785	43424.92	3.6460	3.6462	1.4445	25.77	-0.22	0.750			
0.6827	43694.90	3.6430	3.6430	1.3730	25.77	-0.22	0.750			
0.6864	43931.86	3.6400	3.6401	1.2732	25.77	-0.22	0.750			
0.6901	44167.52	3.6370	3.6366	1.2310	25.77	-0.22	0.750			
0.6936	44390.45	3.6340	3.6341	1.1950	25.77	-0.22	0.750			
0.6971	44614.29	3.6310	3.6312	1.1907	25.77	-0.22	0.750			
0.7007	44842.61	3.6280	3.6280	1.1948	25.77	-0.22	0.750			
0.7042	45071.25	3.6250	3.6250	1.1941	25.77	-0.22	0.750			
0.7078	45301.77	3.6220	3.6222	1.2016	25.77	-0.22	0.750			
0.7116	45540.17	3.6190	3.6191	1.2065	25.77	-0.22	0.750			
0.7153	45779.91	3.6160	3.6158	1.1972	25.77	-0.22	0.750			
0.7188	46001.20	3.6130	3.6130	1.1675	25.77	-0.22	0.750			
0.7222	46220.68	3.6100	3.6102	1.1520	25.78	-0.21	0.750			
0.7256	46440.05	3.6070	3.6070	1.1409	25.78	-0.21	0.750			
0.7290	46654.28	3.6040	3.6040	1.1329	25.78	-0.21	0.750			
0.7323	46867.48	3.6010	3.6011	1.1339	25.78	-0.21	0.750			
0.7357	47084.78	3.5980	3.5980	1.1519	25.78	-0.21	0.750			
0.7393	47312.32	3.5950	3.5948	1.1724	25.78	-0.21	0.750			
0.7427	47531.69	3.5920	3.5921	1.1953	25.78	-0.21	0.750			
0.7463	47763.60	3.5890	3.5891	1.2367	25.78	-0.21	0.750			
0.7501	48007.31	3.5860	3.5861	1.2773	25.78	-0.21	0.750			
0.7540	48255.29	3.5830	3.5830	1.3278	25.78	-0.21	0.750			
0.7580	48511.80	3.5800	3.5801	1.3771	25.78	-0.21	0.750			
0.7623	48784.56	3.5770	3.5771	1.4171	25.77	-0.22	0.750			
0.7666	49063.26	3.5740	3.5741	1.4656	25.77	-0.22	0.750			
0.7710	49346.49	3.5710	3.5711	1.5125	25.77	-0.22	0.750			
0.7756	49641.50	3.5680	3.5680	1.5606	25.77	-0.22	0.750			
0.7805	49949.32	3.5650	3.5650	1.5903	25.77	-0.22	0.750			
0.7854	50262.49	3.5620	3.5619	1.6133	25.76	-0.23	0.750			
0.7902	50575.96	3.5590	3.5588	1.6329	25.76	-0.23	0.750			
0.7951	50889.24	3.5560	3.5561	1.6603	25.76	-0.23	0.750			
0.8002	51215.98	3.5530	3.5531	1.6601	25.76	-0.23	0.750			
0.8052	51531.61	3.5500	3.5500	1.6668	25.76	-0.23	0.750			
0.8103	51857.04	3.5470	3.5470	1.7006	25.77	-0.22	0.750			
0.8153	52177.98	3.5440	3.5440	1.7319	25.77	-0.22	0.750			
0.8205	52512.09	3.5410	3.5410	1.7628	25.77	-0.22	0.750			
0.8259	52857.29	3.5380	3.5378	1.7554	25.77	-0.22	0.750			
0.8314	53211.15	3.5350	3.5348	1.7038	25.78	-0.21	0.750			
0.8371	53576.67	3.5320	3.5318	1.5676	25.79	-0.20	0.750			
0.8416	53864.56	3.5290	3.5294	1.3187	25.81	-0.18	0.750			
0.8454	54107.78	3.5260	3.5264	1.0769	25.82	-0.17	0.750			
0.8480	54270.21	3.5230	3.5229	0.8037	25.83	-0.16	0.750			
0.8496	54375.59	3.5200	3.5197	0.5832	25.84	-0.15	0.750			
0.8508	54453.78	3.5170	3.5167	0.4653	25.84	-0.15	0.750			
0.8519	54521.74	3.5140	3.5138	0.3878	25.85	-0.14	0.750			
0.8530	54588.82	3.5110	3.5110	0.3558	25.85	-0.14	0.750			
0.8539	54652.12	3.5080	3.5080	0.3322	25.86	-0.13	0.750			
0.8549	54713.75	3.5050	3.5050	0.3206	25.87	-0.12	0.750			
0.8558	54773.59	3.5020	3.5020	0.3079	25.87	-0.12	0.750			
0.8567	54831.23	3.4990	3.4989	0.2949	25.88	-0.11	0.750			
0.8576	54886.92	3.4960	3.4961	0.2843	25.88	-0.11	0.750			
0.8584	54940.03	3.4930	3.4931	0.2753	25.89	-0.10	0.750			
0.8592	54991.82	3.4900	3.4900	0.2686	25.89	-0.10	0.750			
0.8600	55042.03	3.4870	3.4869	0.2606	25.90	-0.09	0.750			
0.8608	55090.76	3.4840	3.4840	0.2527	25.90	-0.09	0.750			
0.8616	55139.49	3.4810	3.4810	0.2497	25.91	-0.08	0.750			
0.8623	55187.02	3.4780	3.4781	0.2459	25.91	-0.08	0.750			
0.8630	55233.92	3.4750	3.4750	0.2412	25.92	-0.07	0.750			
0.8637	55279.18	3.4720	3.4719	0.2360	25.92	-0.07	0.750			
0.8644	55324.30	3.4690	3.4691	0.2312	25.93	-0.06	0.750			
0.8651	55368.85	3.4660	3.4659	0.2271	25.93	-0.06	0.750			
0.8658	55411.93	3.4630	3.4631	0.2217	25.93	-0.06	0.750			
0.8665	55454.40	3.4600	3.4600	0.2172	25.94	-0.05	0.750			
0.8671	55495.21	3.4570	3.4570	0.2120	25.94	-0.05	0.750			
0.8677	55535.18	3.4540	3.4540	0.2061	25.94	-0.05	0.750			
0.8683	55574.33	3.4510	3.4509	0.2017	25.95	-0.04	0.750			
0.8689	55612.56	3.4480	3.4480	0.1966	25.95	-0.04	0.750			
0.8695	55650.20	3.4450	3.4451	0.1919	25.95	-0.04	0.750			
0.8701	55686.83	3.4420	3.4420	0.1869	25.96	-0.03	0.750			
0.8707	55722.12	3.4390	3.4389	0.1808	25.96	-0.03	0.750			
0.8712	55756.18	3.4360	3.4360	0.1747	25.96	-0.03	0.750			
0.8717	55788.89	3.4330	3.4330	0.1690	25.96	-0.03	0.750			
0.8722	55820.57	3.4300	3.4300	0.1641	25.97	-0.02	0.750			
0.8727	55851.64	3.4270	3.4270	0.1595	25.97	-0.02	0.750			
0.8731	55881.53	3.4240	3.4240	0.1550	25.97	-0.02	0.750			
0.8736	55911.48	3.4210	3.4209	0.1492	25.97	-0.02	0.750			
0.8741	55939.97	3.4180	3.4179	0.1444	25.97	-0.02	0.750			
0.8745	55967.29	3.4150	3.4151	0.1369	25.98	-0.01	0.750			
0.8749	55993.48	3.4120	3.4121	0.1303	25.98	-0.01	0.750			
0.8753	56017.63	3.4090	3.4088	0.1230	25.98	-0.01	0.750			
0.8756	56040.50	3.4060	3.4060	0.1151	25.98	-0.01	0.750			
0.8760	56062.65	3.4030	3.4028	0.1052	25.98	-0.01	0.750			
0.8763	56082.05	3.4000	3.3998	0.0961	25.98	-0.01	0.750			
0.8766	56099.57	3.3970	3.3972	0.0864	25.99	-0.00	0.750			
0.8768	56116.34	3.3940	3.3942	0.0781	25.99	-0.00	0.750			
0.8770	56130.29	3.3910	3.3915	0.0673	25.99	-0.00	0.750			
0.8772	56143.52	3.3880	3.3887	0.0563	25.99	-0.00	0.750			
0.8774	56153.15	3.3850	3.3859	0.0440	25.99	0.00	0.750			
0.8775	56160.41	3.3820	3.3836	0.0316	25.99	0.00	0.750			
0.8776	56165.29	3.3790	3.3815	0.0192	25.99	0.00	0.750			
