Ah_balance (normalized)	Ah_balance (mAh)	Voltage - fit (V)	Voltage -  interpolate (V)	dQ/dV (1/V)	Temperature (°C)	Temperature - diff (°C)	Current (C)	R_DC 0ms (mOhm)	R_DC 50ms (mOhm)	R_DC 50 ms PEC (mOhm)
0.0003	18.12	4.1570	4.1568	-0.1151	26.00	0.01	-0.750			
0.0007	43.99	4.1540	4.1539	-0.1536	26.00	0.01	-0.750			
0.0012	77.22	4.1510	4.1511	-0.1904	26.00	0.01	-0.750			
0.0018	117.44	4.1480	4.1480	-0.2269	26.00	0.01	-0.750			
0.0026	164.63	4.1450	4.1451	-0.2628	26.00	0.01	-0.750			
0.0034	218.81	4.1420	4.1419	-0.2984	25.99	0.00	-0.750			
0.0044	279.75	4.1390	4.1392	-0.3323	25.99	-0.00	-0.750			
0.0054	347.23	4.1360	4.1360	-0.3655	25.99	-0.00	-0.750			
0.0066	421.48	4.1330	4.1330	-0.3977	25.98	-0.01	-0.750			
0.0078	501.44	4.1300	4.1300	-0.4272	25.98	-0.01	-0.750			
0.0092	586.52	4.1270	4.1270	-0.4540	25.97	-0.02	-0.750			
0.0106	677.25	4.1240	4.1240	-0.4748	25.97	-0.02	-0.750			
0.0121	771.32	4.1210	4.1210	-0.4978	25.97	-0.02	-0.750			
0.0136	868.94	4.1180	4.1180	-0.5164	25.96	-0.03	-0.750			
0.0152	970.06	4.1150	4.1150	-0.5334	25.96	-0.03	-0.750			
0.0168	1074.29	4.1120	4.1122	-0.5475	25.95	-0.04	-0.750			
0.0185	1181.05	4.1090	4.1090	-0.5636	25.95	-0.04	-0.750			
0.0202	1290.85	4.1060	4.1060	-0.5775	25.94	-0.05	-0.750			
0.0219	1403.69	4.1030	4.1030	-0.5882	25.94	-0.05	-0.750			
0.0237	1518.23	4.1000	4.1000	-0.6028	25.94	-0.05	-0.750			
0.0256	1635.47	4.0970	4.0970	-0.6105	25.94	-0.05	-0.750			
0.0274	1753.77	4.0940	4.0940	-0.6195	25.93	-0.06	-0.750			
0.0293	1874.07	4.0910	4.0912	-0.6271	25.93	-0.06	-0.750			
0.0312	1994.64	4.0880	4.0880	-0.6324	25.93	-0.06	-0.750			
0.0331	2116.77	4.0850	4.0850	-0.6400	25.92	-0.07	-0.750			
0.0350	2239.84	4.0820	4.0820	-0.6484	25.92	-0.07	-0.750			
0.0370	2365.54	4.0790	4.0789	-0.6542	25.92	-0.07	-0.750			
0.0389	2492.64	4.0760	4.0760	-0.6564	25.91	-0.08	-0.750			
0.0409	2618.85	4.0730	4.0730	-0.6602	25.91	-0.08	-0.750			
0.0429	2745.97	4.0700	4.0700	-0.6638	25.91	-0.08	-0.750			
0.0449	2873.86	4.0670	4.0669	-0.6670	25.91	-0.08	-0.750			
0.0469	3000.89	4.0640	4.0640	-0.6710	25.91	-0.08	-0.750			
0.0489	3130.48	4.0610	4.0610	-0.6716	25.91	-0.08	-0.750			
0.0510	3260.88	4.0580	4.0581	-0.6760	25.91	-0.08	-0.750			
0.0530	3390.38	4.0550	4.0550	-0.6833	25.91	-0.08	-0.750			
0.0550	3521.09	4.0520	4.0521	-0.6858	25.91	-0.08	-0.750			
0.0571	3653.46	4.0490	4.0489	-0.6882	25.91	-0.08	-0.750			
0.0592	3785.76	4.0460	4.0460	-0.6936	25.91	-0.08	-0.750			
0.0613	3920.19	4.0430	4.0431	-0.6965	25.91	-0.08	-0.750			
0.0634	4056.01	4.0400	4.0400	-0.6992	25.91	-0.08	-0.750			
0.0655	4189.91	4.0370	4.0369	-0.6999	25.91	-0.08	-0.750			
0.0676	4323.36	4.0340	4.0341	-0.6994	25.91	-0.08	-0.750			
0.0696	4457.49	4.0310	4.0310	-0.7036	25.91	-0.08	-0.750			
0.0717	4591.69	4.0280	4.0280	-0.7104	25.91	-0.08	-0.750			
0.0739	4728.57	4.0250	4.0250	-0.7114	25.92	-0.07	-0.750			
0.0761	4867.27	4.0220	4.0220	-0.7138	25.92	-0.07	-0.750			
0.0782	5006.25	4.0190	4.0188	-0.7160	25.92	-0.07	-0.750			
0.0804	5142.84	4.0160	4.0160	-0.7139	25.92	-0.07	-0.750			
0.0825	5279.73	4.0130	4.0130	-0.7132	25.92	-0.07	-0.750			
0.0846	5415.17	4.0100	4.0100	-0.7150	25.92	-0.07	-0.750			
0.0867	5550.78	4.0070	4.0070	-0.7135	25.93	-0.06	-0.750			
0.0889	5690.74	4.0040	4.0040	-0.7197	25.93	-0.06	-0.750			
0.0911	5829.84	4.0010	4.0010	-0.7240	25.93	-0.06	-0.750			
0.0933	5968.32	3.9980	3.9980	-0.7260	25.93	-0.06	-0.750			
0.0954	6108.11	3.9950	3.9950	-0.7263	25.93	-0.06	-0.750			
0.0976	6248.07	3.9920	3.9919	-0.7322	25.93	-0.06	-0.750			
0.0998	6388.88	3.9890	3.9890	-0.7312	25.93	-0.06	-0.750			
0.1021	6531.36	3.9860	3.9859	-0.7341	25.93	-0.06	-0.750			
0.1042	6671.33	3.9830	3.9833	-0.7385	25.93	-0.06	-0.750			
0.1065	6813.93	3.9800	3.9799	-0.7351	25.93	-0.06	-0.750			
0.1086	6952.72	3.9770	3.9770	-0.7419	25.93	-0.06	-0.750			
0.1109	7096.84	3.9740	3.9740	-0.7429	25.94	-0.05	-0.750			
0.1131	7240.63	3.9710	3.9711	-0.7480	25.94	-0.05	-0.750			
0.1154	7384.24	3.9680	3.9679	-0.7485	25.94	-0.05	-0.750			
0.1176	7527.96	3.9650	3.9651	-0.7507	25.94	-0.05	-0.750			
0.1199	7671.61	3.9620	3.9619	-0.7495	25.94	-0.05	-0.750			
0.1221	7816.68	3.9590	3.9590	-0.7563	25.94	-0.05	-0.750			
0.1244	7959.95	3.9560	3.9560	-0.7503	25.95	-0.04	-0.750			
0.1267	8106.75	3.9530	3.9531	-0.7570	25.95	-0.04	-0.750			
0.1289	8251.55	3.9500	3.9500	-0.7591	25.95	-0.04	-0.750			
0.1312	8397.84	3.9470	3.9469	-0.7572	25.95	-0.04	-0.750			
0.1335	8541.26	3.9440	3.9439	-0.7603	25.96	-0.03	-0.750			
0.1357	8687.96	3.9410	3.9411	-0.7625	25.96	-0.03	-0.750			
0.1380	8834.60	3.9380	3.9380	-0.7640	25.96	-0.03	-0.750			
0.1404	8983.63	3.9350	3.9349	-0.7692	25.97	-0.02	-0.750			
0.1427	9131.83	3.9320	3.9320	-0.7639	25.97	-0.02	-0.750			
0.1449	9275.91	3.9290	3.9291	-0.7675	25.97	-0.02	-0.750			
0.1473	9424.26	3.9260	3.9260	-0.7723	25.98	-0.01	-0.750			
0.1495	9571.00	3.9230	3.9231	-0.7711	25.98	-0.01	-0.750			
0.1519	9720.95	3.9200	3.9199	-0.7790	25.99	-0.00	-0.750			
0.1542	9871.69	3.9170	3.9172	-0.7816	25.99	-0.00	-0.750			
0.1566	10022.57	3.9140	3.9140	-0.7836	25.99	0.00	-0.750			
0.1590	10174.96	3.9110	3.9110	-0.7869	25.99	0.00	-0.750			
0.1613	10324.00	3.9080	3.9080	-0.7811	25.99	0.00	-0.750			
0.1637	10473.98	3.9050	3.9050	-0.7815	25.99	0.00	-0.750			
0.1660	10623.36	3.9020	3.9020	-0.7815	25.99	0.00	-0.750			
0.1683	10772.66	3.8990	3.8989	-0.7812	25.99	0.00	-0.750			
0.1706	10921.29	3.8960	3.8960	-0.7904	26.00	0.01	-0.750			
0.1730	11073.73	3.8930	3.8930	-0.7921	26.00	0.01	-0.750			
0.1754	11227.41	3.8900	3.8900	-0.7950	26.00	0.01	-0.750			
0.1778	11382.23	3.8870	3.8870	-0.7975	26.01	0.02	-0.750			
0.1802	11535.66	3.8840	3.8840	-0.7981	26.01	0.02	-0.750			
0.1826	11686.37	3.8810	3.8811	-0.8050	26.02	0.03	-0.750			
0.1850	11841.20	3.8780	3.8779	-0.8041	26.02	0.03	-0.750			
0.1874	11996.06	3.8750	3.8749	-0.7969	26.02	0.03	-0.750			
0.1899	12151.42	3.8720	3.8719	-0.7976	26.03	0.04	-0.750			
0.1923	12305.27	3.8690	3.8693	-0.7970	26.03	0.04	-0.750			
0.1946	12456.93	3.8660	3.8659	-0.7918	26.03	0.04	-0.750			
0.1970	12605.86	3.8630	3.8629	-0.7884	26.04	0.05	-0.750			
0.1993	12755.73	3.8600	3.8600	-0.7905	26.04	0.05	-0.750			
0.2017	12909.60	3.8570	3.8570	-0.7949	26.05	0.06	-0.750			
0.2041	13062.39	3.8540	3.8540	-0.7964	26.05	0.06	-0.750			
0.2065	13215.91	3.8510	3.8510	-0.7959	26.05	0.06	-0.750			
0.2089	13368.24	3.8480	3.8479	-0.7987	26.05	0.06	-0.750			
0.2113	13521.52	3.8450	3.8450	-0.7987	26.06	0.07	-0.750			
0.2137	13675.26	3.8420	3.8420	-0.7981	26.06	0.07	-0.750			
0.2161	13829.36	3.8390	3.8390	-0.7975	26.06	0.07	-0.750			
0.2185	13983.62	3.8360	3.8360	-0.7936	26.06	0.07	-0.750			
0.2208	14133.36	3.8330	3.8330	-0.7960	26.06	0.07	-0.750			
0.2232	14287.27	3.8300	3.8300	-0.7892	26.07	0.08	-0.750			
0.2256	14437.17	3.8270	3.8269	-0.7839	26.07	0.08	-0.750			
0.2280	14589.42	3.8240	3.8239	-0.7812	26.07	0.08	-0.750			
0.2303	14738.56	3.8210	3.8210	-0.7786	26.07	0.08	-0.750			
0.2326	14887.18	3.8180	3.8180	-0.7773	26.08	0.09	-0.750			
0.2349	15036.51	3.8150	3.8149	-0.7721	26.08	0.09	-0.750			
0.2372	15181.65	3.8120	3.8120	-0.7663	26.08	0.09	-0.750			
0.2396	15332.33	3.8090	3.8091	-0.7719	26.09	0.10	-0.750			
0.2419	15479.50	3.8060	3.8062	-0.7687	26.09	0.10	-0.750			
0.2442	15627.32	3.8030	3.8030	-0.7669	26.09	0.10	-0.750			
0.2465	15773.63	3.8000	3.8000	-0.7632	26.10	0.11	-0.750			
0.2488	15920.66	3.7970	3.7970	-0.7615	26.10	0.11	-0.750			
0.2511	16068.58	3.7940	3.7940	-0.7578	26.10	0.11	-0.750			
0.2533	16212.41	3.7910	3.7909	-0.7481	26.11	0.12	-0.750			
0.2556	16355.45	3.7880	3.7880	-0.7451	26.11	0.12	-0.750			
0.2578	16497.01	3.7850	3.7850	-0.7402	26.12	0.13	-0.750			
0.2600	16637.40	3.7820	3.7819	-0.7415	26.12	0.13	-0.750			
0.2622	16780.36	3.7790	3.7790	-0.7406	26.12	0.13	-0.750			
0.2645	16924.83	3.7760	3.7759	-0.7394	26.13	0.14	-0.750			
0.2667	17068.12	3.7730	3.7733	-0.7380	26.13	0.14	-0.750			
0.2689	17208.99	3.7700	3.7700	-0.7360	26.13	0.14	-0.750			
0.2711	17348.58	3.7670	3.7671	-0.7309	26.13	0.14	-0.750			
0.2733	17488.19	3.7640	3.7639	-0.7362	26.14	0.15	-0.750			
0.2754	17628.73	3.7610	3.7610	-0.7390	26.14	0.15	-0.750			
0.2777	17770.86	3.7580	3.7580	-0.7437	26.14	0.15	-0.750			
0.2799	17914.79	3.7550	3.7551	-0.7436	26.14	0.15	-0.750			
0.2822	18058.34	3.7520	3.7519	-0.7465	26.14	0.15	-0.750			
0.2844	18201.50	3.7490	3.7490	-0.7509	26.14	0.15	-0.750			
0.2866	18344.75	3.7460	3.7459	-0.7552	26.15	0.16	-0.750			
0.2889	18489.91	3.7430	3.7430	-0.7631	26.15	0.16	-0.750			
0.2912	18636.61	3.7400	3.7399	-0.7737	26.15	0.16	-0.750			
0.2935	18786.28	3.7370	3.7369	-0.7813	26.15	0.16	-0.750			
0.2959	18937.14	3.7340	3.7340	-0.7986	26.16	0.17	-0.750			
0.2983	19091.84	3.7310	3.7310	-0.8035	26.16	0.17	-0.750			
0.3007	19247.05	3.7280	3.7281	-0.8098	26.16	0.17	-0.750			
0.3032	19404.29	3.7250	3.7249	-0.8234	26.17	0.18	-0.750			
0.3057	19562.99	3.7220	3.7219	-0.8340	26.17	0.18	-0.750			
0.3082	19721.94	3.7190	3.7190	-0.8481	26.16	0.17	-0.750			
0.3107	19887.02	3.7160	3.7161	-0.8641	26.16	0.17	-0.750			
0.3133	20054.24	3.7130	3.7130	-0.8756	26.16	0.17	-0.750			
0.3160	20226.30	3.7100	3.7099	-0.8962	26.15	0.16	-0.750			
0.3187	20397.81	3.7070	3.7071	-0.9172	26.15	0.16	-0.750			
0.3215	20575.56	3.7040	3.7040	-0.9308	26.15	0.16	-0.750			
0.3243	20756.21	3.7010	3.7009	-0.9482	26.15	0.16	-0.750			
0.3272	20940.47	3.6980	3.6979	-0.9581	26.15	0.16	-0.750			
0.3301	21127.77	3.6950	3.6951	-0.9778	26.15	0.16	-0.750			
0.3331	21316.87	3.6920	3.6920	-0.9976	26.15	0.16	-0.750			
0.3361	21509.25	3.6890	3.6889	-1.0121	26.15	0.16	-0.750			
0.3391	21702.46	3.6860	3.6859	-1.0243	26.15	0.16	-0.750			
0.3423	21904.26	3.6830	3.6833	-1.0540	26.15	0.16	-0.750			
0.3455	22109.35	3.6800	3.6800	-1.0688	26.14	0.15	-0.750			
0.3487	22317.23	3.6770	3.6770	-1.0851	26.14	0.15	-0.750			
0.3519	22523.64	3.6740	3.6740	-1.0995	26.13	0.14	-0.750			
0.3553	22737.80	3.6710	3.6710	-1.1301	26.13	0.14	-0.750			
0.3587	22955.84	3.6680	3.6680	-1.1495	26.12	0.13	-0.750			
0.3622	23178.17	3.6650	3.6649	-1.1714	26.12	0.13	-0.750			
0.3657	23405.22	3.6620	3.6619	-1.1984	26.11	0.12	-0.750			
0.3694	23639.45	3.6590	3.6590	-1.2231	26.11	0.12	-0.750			
0.3731	23875.77	3.6560	3.6560	-1.2426	26.11	0.12	-0.750			
0.3768	24115.05	3.6530	3.6530	-1.2621	26.10	0.11	-0.750			
0.3806	24357.84	3.6500	3.6500	-1.2843	26.10	0.11	-0.750			
0.3845	24608.66	3.6470	3.6471	-1.3125	26.09	0.10	-0.750			
0.3885	24861.81	3.6440	3.6440	-1.3413	26.09	0.10	-0.750			
0.3925	25121.60	3.6410	3.6410	-1.3788	26.08	0.09	-0.750			
0.3968	25392.92	3.6380	3.6379	-1.4065	26.08	0.09	-0.750			
0.4011	25667.28	3.6350	3.6349	-1.4272	26.07	0.08	-0.750			
0.4054	25945.46	3.6320	3.6321	-1.4608	26.07	0.08	-0.750			
0.4098	26227.60	3.6290	3.6289	-1.4865	26.06	0.07	-0.750			
0.4143	26515.67	3.6260	3.6258	-1.5085	26.05	0.06	-0.750			
0.4188	26805.13	3.6230	3.6231	-1.5331	26.05	0.06	-0.750			
0.4235	27102.57	3.6200	3.6200	-1.5677	26.04	0.05	-0.750			
0.4282	27407.74	3.6170	3.6169	-1.5897	26.03	0.04	-0.750			
0.4330	27712.98	3.6140	3.6140	-1.6151	26.03	0.04	-0.750	0.385	0.535	
0.4380	28030.86	3.6110	3.6109	-1.6624	26.03	0.04	-0.750			
0.4430	28353.02	3.6080	3.6080	-1.6894	26.03	0.04	-0.750			
0.4481	28679.95	3.6050	3.6052	-1.7295	26.02	0.03	-0.750			
0.4534	29020.57	3.6020	3.6020	-1.7621	26.02	0.03	-0.750			
0.4587	29358.58	3.5990	3.5989	-1.7956	26.02	0.03	-0.750			
0.4642	29707.89	3.5960	3.5961	-1.8286	26.01	0.02	-0.750			
0.4697	30059.75	3.5930	3.5931	-1.8700	26.01	0.02	-0.750			
0.4753	30419.15	3.5900	3.5900	-1.9071	26.01	0.02	-0.750			
0.4812	30793.87	3.5870	3.5871	-1.9443	26.01	0.02	-0.750			
0.4870	31167.98	3.5840	3.5839	-1.9900	26.00	0.01	-0.750			
0.4931	31556.06	3.5810	3.5811	-2.0264	26.00	0.01	-0.750			
0.4992	31951.30	3.5780	3.5781	-2.0477	25.99	0.00	-0.750			
0.5055	32350.04	3.5750	3.5748	-2.0650	25.99	0.00	-0.750			
0.5117	32750.12	3.5720	3.5721	-2.0841	25.99	0.00	-0.750			
0.5180	33151.92	3.5690	3.5690	-2.1021	25.99	0.00	-0.750			
0.5243	33556.94	3.5660	3.5659	-2.1177	25.99	0.00	-0.750			
0.5307	33965.40	3.5630	3.5630	-2.1208	25.99	0.00	-0.750			
0.5371	34376.26	3.5600	3.5600	-2.1357	25.99	0.00	-0.750			
0.5436	34789.43	3.5570	3.5570	-2.1475	25.99	0.00	-0.750			
0.5500	35200.36	3.5540	3.5539	-2.1297	26.00	0.01	-0.750			
0.5564	35608.62	3.5510	3.5511	-2.1320	26.00	0.01	-0.750			
0.5628	36016.75	3.5480	3.5481	-2.1362	26.01	0.02	-0.750			
0.5692	36429.13	3.5450	3.5449	-2.1334	26.01	0.02	-0.750			
0.5756	36841.48	3.5420	3.5420	-2.1292	26.02	0.03	-0.750			
0.5820	37250.79	3.5390	3.5390	-2.1206	26.02	0.03	-0.750			
0.5885	37661.83	3.5360	3.5359	-2.0968	26.03	0.04	-0.750			
0.5947	38063.75	3.5330	3.5331	-2.0494	26.03	0.04	-0.750			
0.6008	38453.14	3.5300	3.5300	-2.0055	26.04	0.05	-0.750			
0.6067	38830.38	3.5270	3.5269	-1.9630	26.05	0.06	-0.750			
0.6125	39199.83	3.5240	3.5239	-1.9309	26.06	0.07	-0.750			
0.6183	39568.21	3.5210	3.5210	-1.8934	26.07	0.08	-0.750			
0.6239	39930.17	3.5180	3.5179	-1.8610	26.08	0.09	-0.750			
0.6295	40286.07	3.5150	3.5149	-1.8254	26.09	0.10	-0.750			
0.6350	40638.13	3.5120	3.5118	-1.7785	26.10	0.11	-0.750			
0.6402	40973.29	3.5090	3.5092	-1.7167	26.11	0.12	-0.750			
0.6453	41301.48	3.5060	3.5059	-1.6538	26.12	0.13	-0.750			
0.6501	41608.79	3.5030	3.5028	-1.5963	26.14	0.15	-0.750			
0.6549	41911.64	3.5000	3.5000	-1.5345	26.15	0.16	-0.750			
0.6594	42199.14	3.4970	3.4972	-1.4834	26.17	0.18	-0.750			
0.6637	42479.73	3.4940	3.4939	-1.4426	26.20	0.21	-0.750			
0.6681	42755.77	3.4910	3.4909	-1.4087	26.21	0.22	-0.750			
0.6722	43020.13	3.4880	3.4879	-1.3686	26.23	0.24	-0.750			
0.6762	43278.47	3.4850	3.4850	-1.3278	26.24	0.25	-0.750			
0.6802	43531.81	3.4820	3.4822	-1.2952	26.25	0.26	-0.750			
0.6841	43780.20	3.4790	3.4788	-1.2622	26.27	0.28	-0.750			
0.6877	44014.69	3.4760	3.4760	-1.2168	26.28	0.29	-0.750			
0.6913	44242.12	3.4730	3.4730	-1.1790	26.29	0.30	-0.750			
0.6949	44471.18	3.4700	3.4700	-1.1555	26.30	0.31	-0.750			
0.6982	44687.74	3.4670	3.4670	-1.1138	26.32	0.33	-0.750			
0.7015	44898.45	3.4640	3.4640	-1.0767	26.34	0.35	-0.750			
0.7047	45100.42	3.4610	3.4610	-1.0397	26.35	0.36	-0.750			
0.7078	45297.33	3.4580	3.4579	-1.0132	26.37	0.38	-0.750			
0.7108	45488.31	3.4550	3.4550	-0.9814	26.38	0.39	-0.750			
0.7136	45672.70	3.4520	3.4520	-0.9528	26.39	0.40	-0.750			
0.7165	45853.85	3.4490	3.4491	-0.9287	26.41	0.42	-0.750			
0.7192	46028.87	3.4460	3.4460	-0.9071	26.42	0.43	-0.750			
0.7219	46200.37	3.4430	3.4429	-0.8843	26.43	0.44	-0.750			
0.7245	46365.97	3.4400	3.4400	-0.8672	26.44	0.45	-0.750			
0.7270	46527.97	3.4370	3.4370	-0.8557	26.45	0.46	-0.750			
0.7295	46691.13	3.4340	3.4342	-0.8579	26.46	0.47	-0.750			
0.7321	46854.35	3.4310	3.4309	-0.8614	26.47	0.48	-0.750			
0.7347	47018.79	3.4280	3.4280	-0.8670	26.48	0.49	-0.750			
0.7373	47185.93	3.4250	3.4250	-0.8770	26.49	0.50	-0.750			
0.7400	47357.01	3.4220	3.4220	-0.8888	26.50	0.51	-0.750			
0.7426	47527.95	3.4190	3.4190	-0.8995	26.51	0.52	-0.750			
0.7453	47700.61	3.4160	3.4160	-0.9117	26.52	0.53	-0.750			
0.7481	47878.48	3.4130	3.4129	-0.9172	26.53	0.54	-0.750			
0.7509	48057.51	3.4100	3.4099	-0.9201	26.53	0.54	-0.750			
0.7537	48235.80	3.4070	3.4072	-0.9176	26.54	0.55	-0.750			
0.7564	48412.69	3.4040	3.4040	-0.9058	26.55	0.56	-0.750			
0.7592	48586.88	3.4010	3.4009	-0.8942	26.56	0.57	-0.750			
0.7618	48756.55	3.3980	3.3980	-0.8753	26.57	0.58	-0.750			
0.7644	48922.15	3.3950	3.3950	-0.8529	26.58	0.59	-0.750			
0.7670	49087.98	3.3920	3.3919	-0.8365	26.59	0.60	-0.750			
0.7695	49245.34	3.3890	3.3890	-0.8103	26.60	0.61	-0.750			
0.7718	49398.14	3.3860	3.3860	-0.7867	26.60	0.61	-0.750			
0.7742	49547.17	3.3830	3.3829	-0.7612	26.61	0.62	-0.750			
0.7764	49690.48	3.3800	3.3800	-0.7332	26.61	0.62	-0.750			
0.7786	49828.75	3.3770	3.3770	-0.7103	26.62	0.63	-0.750			
0.7807	49963.25	3.3740	3.3741	-0.6884	26.63	0.64	-0.750			
0.7827	50092.50	3.3710	3.3709	-0.6638	26.64	0.65	-0.750			
0.7846	50217.47	3.3680	3.3680	-0.6380	26.65	0.66	-0.750			
0.7865	50337.97	3.3650	3.3650	-0.6177	26.65	0.66	-0.750			
0.7884	50454.56	3.3620	3.3619	-0.5986	26.66	0.67	-0.750			
0.7901	50567.33	3.3590	3.3589	-0.5772	26.67	0.68	-0.750			
0.7918	50675.50	3.3560	3.3562	-0.5556	26.68	0.69	-0.750			
0.7934	50780.07	3.3530	3.3530	-0.5349	26.69	0.70	-0.750			
0.7950	50880.76	3.3500	3.3500	-0.5181	26.69	0.70	-0.750			
0.7965	50977.96	3.3470	3.3470	-0.5010	26.70	0.71	-0.750			
0.7980	51072.32	3.3440	3.3440	-0.4849	26.70	0.71	-0.750			
0.7994	51162.95	3.3410	3.3410	-0.4679	26.70	0.71	-0.750			
0.8008	51251.13	3.3380	3.3380	-0.4544	26.71	0.72	-0.750			
0.8021	51337.09	3.3350	3.3350	-0.4415	26.71	0.72	-0.750			
0.8034	51420.13	3.3320	3.3320	-0.4295	26.72	0.73	-0.750			
0.8047	51501.06	3.3290	3.3290	-0.4155	26.72	0.73	-0.750			
0.8059	51580.06	3.3260	3.3260	-0.4044	26.73	0.74	-0.750			
0.8071	51657.11	3.3230	3.3230	-0.3918	26.73	0.74	-0.750			
0.8083	51730.57	3.3200	3.3200	-0.3796	26.74	0.75	-0.750			
0.8094	51801.89	3.3170	3.3170	-0.3684	26.74	0.75	-0.750			
0.8105	51870.79	3.3140	3.3139	-0.3580	26.75	0.76	-0.750			
0.8115	51938.40	3.3110	3.3110	-0.3504	26.75	0.76	-0.750			
0.8126	52005.39	3.3080	3.3079	-0.3429	26.76	0.77	-0.750			
0.8136	52070.59	3.3050	3.3050	-0.3347	26.76	0.77	-0.750			
0.8146	52134.57	3.3020	3.3021	-0.3264	26.77	0.78	-0.750			
0.8156	52195.98	3.2990	3.2990	-0.3180	26.77	0.78	-0.750			
0.8165	52256.51	3.2960	3.2959	-0.3101	26.78	0.79	-0.750			
0.8174	52314.46	3.2930	3.2930	-0.3011	26.78	0.79	-0.750			
0.8183	52371.08	3.2900	3.2900	-0.2951	26.79	0.80	-0.750			
0.8192	52427.37	3.2870	3.2871	-0.2899	26.80	0.81	-0.750			
0.8200	52482.33	3.2840	3.2840	-0.2849	26.80	0.81	-0.750			
0.8209	52536.82	3.2810	3.2809	-0.2799	26.81	0.82	-0.750			
0.8217	52590.14	3.2780	3.2780	-0.2739	26.82	0.83	-0.750			
0.8225	52642.46	3.2750	3.2750	-0.2694	26.82	0.83	-0.750			
0.8233	52693.69	3.2720	3.2720	-0.2632	26.83	0.84	-0.750			
0.8241	52743.54	3.2690	3.2690	-0.2562	26.83	0.84	-0.750			
0.8249	52791.67	3.2660	3.2660	-0.2516	26.84	0.85	-0.750			
0.8256	52839.11	3.2630	3.2631	-0.2472	26.84	0.85	-0.750			
0.8263	52885.90	3.2600	3.2600	-0.2445	26.85	0.86	-0.750			
0.8271	52932.73	3.2570	3.2570	-0.2408	26.85	0.86	-0.750			
0.8278	52979.05	3.2540	3.2540	-0.2369	26.86	0.87	-0.750			
0.8285	53024.30	3.2510	3.2510	-0.2329	26.86	0.87	-0.750			
0.8292	53068.85	3.2480	3.2481	-0.2300	26.87	0.88	-0.750			
0.8299	53112.04	3.2450	3.2450	-0.2257	26.87	0.88	-0.750			
0.8305	53155.07	3.2420	3.2419	-0.2222	26.88	0.89	-0.750			
0.8312	53197.29	3.2390	3.2390	-0.2188	26.89	0.90	-0.750			
0.8319	53238.54	3.2360	3.2360	-0.2158	26.89	0.90	-0.750			
0.8325	53280.00	3.2330	3.2331	-0.2140	26.90	0.91	-0.750			
0.8331	53320.99	3.2300	3.2300	-0.2116	26.90	0.91	-0.750			
0.8338	53361.34	3.2270	3.2270	-0.2087	26.91	0.92	-0.750			
0.8344	53400.97	3.2240	3.2240	-0.2053	26.91	0.92	-0.750			
0.8350	53440.03	3.2210	3.2211	-0.2030	26.92	0.93	-0.750			
0.8356	53478.89	3.2180	3.2180	-0.2009	26.92	0.93	-0.750			
0.8362	53517.20	3.2150	3.2150	-0.1982	26.93	0.94	-0.750			
0.8368	53554.88	3.2120	3.2120	-0.1953	26.93	0.94	-0.750			
0.8374	53592.17	3.2090	3.2091	-0.1924	26.94	0.95	-0.750			
0.8380	53628.84	3.2060	3.2060	-0.1902	26.94	0.95	-0.750			
0.8385	53665.10	3.2030	3.2031	-0.1876	26.95	0.96	-0.750			
0.8391	53700.88	3.2000	3.2000	-0.1854	26.95	0.96	-0.750			
0.8396	53736.12	3.1970	3.1969	-0.1821	26.95	0.96	-0.750			
0.8402	53770.60	3.1940	3.1940	-0.1804	26.96	0.97	-0.750			
0.8407	53805.10	3.1910	3.1911	-0.1788	26.96	0.97	-0.750			
0.8412	53839.24	3.1880	3.1880	-0.1772	26.97	0.98	-0.750			
0.8418	53873.09	3.1850	3.1849	-0.1757	26.97	0.98	-0.750			
0.8423	53906.72	3.1820	3.1821	-0.1735	26.98	0.99	-0.750			
0.8428	53939.95	3.1790	3.1790	-0.1716	26.98	0.99	-0.750			
0.8433	53972.90	3.1760	3.1760	-0.1698	26.99	1.00	-0.750			
0.8438	54005.40	3.1730	3.1730	-0.1687	26.99	1.00	-0.750			
0.8443	54037.12	3.1700	3.1700	-0.1668	27.00	1.01	-0.750			
0.8448	54069.20	3.1670	3.1669	-0.1652	27.00	1.01	-0.750			
0.8453	54100.79	3.1640	3.1640	-0.1638	27.01	1.02	-0.750			
0.8458	54132.17	3.1610	3.1610	-0.1618	27.01	1.02	-0.750			
0.8463	54163.17	3.1580	3.1581	-0.1609	27.02	1.03	-0.750			
0.8468	54193.89	3.1550	3.1550	-0.1592	27.03	1.04	-0.750			
0.8473	54224.29	3.1520	3.1519	-0.1574	27.03	1.04	-0.750			
0.8477	54254.12	3.1490	3.1489	-0.1555	27.04	1.05	-0.750			
0.8482	54283.79	3.1460	3.1461	-0.1539	27.04	1.05	-0.750			
0.8486	54313.16	3.1430	3.1431	-0.1534	27.05	1.06	-0.750			
0.8491	54342.50	3.1400	3.1400	-0.1523	27.05	1.06	-0.750			
0.8496	54371.65	3.1370	3.1370	-0.1509	27.06	1.07	-0.750			
0.8500	54400.42	3.1340	3.1340	-0.1492	27.06	1.07	-0.750			
0.8505	54429.12	3.1310	3.1310	-0.1484	27.07	1.08	-0.750			
0.8509	54457.54	3.1280	3.1281	-0.1466	27.07	1.08	-0.750			
0.8513	54485.61	3.1250	3.1250	-0.1453	27.08	1.09	-0.750			
0.8518	54513.41	3.1220	3.1219	-0.1436	27.09	1.10	-0.750			
0.8522	54540.76	3.1190	3.1190	-0.1422	27.09	1.10	-0.750			
0.8526	54567.53	3.1160	3.1160	-0.1411	27.10	1.11	-0.750			
0.8530	54594.52	3.1130	3.1131	-0.1402	27.11	1.12	-0.750			
0.8535	54621.38	3.1100	3.1099	-0.1396	27.12	1.13	-0.750			
0.8539	54648.13	3.1070	3.1071	-0.1386	27.12	1.13	-0.750			
0.8543	54674.81	3.1040	3.1042	-0.1377	27.13	1.14	-0.750			
0.8547	54701.24	3.1010	3.1010	-0.1365	27.14	1.15	-0.750			
0.8551	54727.32	3.0980	3.0979	-0.1352	27.14	1.15	-0.750			
0.8555	54753.27	3.0950	3.0950	-0.1337	27.15	1.16	-0.750			
0.8559	54778.60	3.0920	3.0920	-0.1324	27.15	1.16	-0.750			
0.8563	54803.86	3.0890	3.0891	-0.1311	27.16	1.17	-0.750			
0.8567	54828.81	3.0860	3.0859	-0.1307	27.16	1.17	-0.750			
0.8571	54853.68	3.0830	3.0830	-0.1300	27.17	1.18	-0.750			
0.8575	54878.48	3.0800	3.0802	-0.1296	27.17	1.18	-0.750			
0.8579	54903.67	3.0770	3.0768	-0.1289	27.18	1.19	-0.750			
0.8583	54928.34	3.0740	3.0739	-0.1281	27.19	1.20	-0.750			
0.8586	54953.05	3.0710	3.0711	-0.1273	27.19	1.20	-0.750			
0.8590	54977.47	3.0680	3.0681	-0.1261	27.20	1.21	-0.750			
0.8594	55001.47	3.0650	3.0650	-0.1249	27.20	1.21	-0.750			
0.8598	55025.14	3.0620	3.0619	-0.1235	27.21	1.22	-0.750			
0.8601	55048.70	3.0590	3.0591	-0.1230	27.21	1.22	-0.750			
0.8605	55072.20	3.0560	3.0559	-0.1221	27.22	1.23	-0.750			
0.8609	55095.65	3.0530	3.0530	-0.1216	27.22	1.23	-0.750			
0.8612	55118.95	3.0500	3.0499	-0.1207	27.23	1.24	-0.750			
0.8616	55142.06	3.0470	3.0470	-0.1199	27.23	1.24	-0.750			
0.8620	55164.96	3.0440	3.0440	-0.1191	27.24	1.25	-0.750			
0.8623	55187.80	3.0410	3.0410	-0.1184	27.24	1.25	-0.750			
0.8627	55210.42	3.0380	3.0380	-0.1176	27.25	1.26	-0.750			
0.8630	55232.82	3.0350	3.0351	-0.1167	27.25	1.26	-0.750			
0.8634	55255.16	3.0320	3.0319	-0.1161	27.26	1.27	-0.750			
0.8637	55277.40	3.0290	3.0290	-0.1155	27.26	1.27	-0.750			
0.8641	55299.58	3.0260	3.0260	-0.1147	27.27	1.28	-0.750			
0.8644	55321.60	3.0230	3.0231	-0.1141	27.27	1.28	-0.750			
0.8647	55343.28	3.0200	3.0199	-0.1138	27.28	1.29	-0.750			
0.8651	55364.97	3.0170	3.0171	-0.1132	27.28	1.29	-0.750			
0.8654	55386.74	3.0140	3.0141	-0.1124	27.29	1.30	-0.750			
0.8658	55408.28	3.0110	3.0109	-0.1119	27.29	1.30	-0.750			
0.8661	55429.71	3.0080	3.0080	-0.1114	27.30	1.31	-0.750			
0.8664	55451.02	3.0050	3.0051	-0.1109	27.30	1.31	-0.751			
0.8668	55472.27	3.0020	3.0020	-0.1104	27.31	1.32	-0.751			
