Ah_balance (normalized)	Ah_balance (mAh)	Voltage - fit (V)	Voltage -  interpolate (V)	dQ/dV (1/V)	Temperature (°C)	Temperature - diff (°C)	Current (C)	R_DC 0ms (mOhm)	R_DC 50ms (mOhm)	R_DC 50 ms PEC (mOhm)
0.0539	3446.80	4.1990	4.1990	0.7451	26.64	0.71	0.750			
0.0561	3588.86	4.1960	4.1961	0.7416	26.64	0.71	0.750			
0.0583	3733.94	4.1930	4.1930	0.7527	26.64	0.71	0.750			
0.0606	3879.40	4.1900	4.1900	0.7559	26.64	0.71	0.750			
0.0629	4025.24	4.1870	4.1869	0.7612	26.64	0.71	0.750			
0.0652	4171.55	4.1840	4.1840	0.7605	26.64	0.71	0.750			
0.0675	4318.48	4.1810	4.1810	0.7579	26.64	0.71	0.750			
0.0697	4463.98	4.1780	4.1780	0.7604	26.64	0.71	0.750			
0.0720	4609.51	4.1750	4.1751	0.7542	26.63	0.70	0.750			
0.0743	4754.13	4.1720	4.1719	0.7570	26.63	0.70	0.750			
0.0765	4898.46	4.1690	4.1690	0.7585	26.63	0.70	0.750			
0.0788	5043.56	4.1660	4.1660	0.7568	26.62	0.69	0.750			
0.0811	5189.77	4.1630	4.1630	0.7600	26.62	0.69	0.750			
0.0834	5338.06	4.1600	4.1600	0.7615	26.62	0.69	0.750			
0.0857	5482.40	4.1570	4.1570	0.7634	26.62	0.69	0.750			
0.0880	5629.32	4.1540	4.1540	0.7719	26.62	0.69	0.750			
0.0903	5777.09	4.1510	4.1510	0.7716	26.62	0.69	0.750			
0.0926	5924.99	4.1480	4.1479	0.7764	26.62	0.69	0.750			
0.0949	6076.56	4.1450	4.1451	0.7762	26.62	0.69	0.750			
0.0973	6228.37	4.1420	4.1419	0.7693	26.62	0.69	0.750			
0.0996	6373.61	4.1390	4.1391	0.7690	26.62	0.69	0.750			
0.1019	6519.75	4.1360	4.1360	0.7644	26.62	0.69	0.750			
0.1041	6664.63	4.1330	4.1328	0.7651	26.62	0.69	0.750			
0.1064	6812.48	4.1300	4.1300	0.7704	26.62	0.69	0.750			
0.1088	6960.10	4.1270	4.1271	0.7728	26.62	0.69	0.750			
0.1111	7110.77	4.1240	4.1240	0.7785	26.61	0.68	0.750			
0.1135	7262.01	4.1210	4.1210	0.7848	26.61	0.68	0.750			
0.1158	7410.21	4.1180	4.1181	0.7794	26.61	0.68	0.750			
0.1181	7560.57	4.1150	4.1150	0.7841	26.61	0.68	0.750			
0.1205	7710.87	4.1120	4.1120	0.7877	26.61	0.68	0.750			
0.1228	7862.02	4.1090	4.1090	0.7868	26.61	0.68	0.750			
0.1252	8012.92	4.1060	4.1060	0.7918	26.62	0.69	0.750			
0.1276	8165.66	4.1030	4.1031	0.7949	26.62	0.69	0.750			
0.1300	8318.87	4.1000	4.0996	0.7933	26.62	0.69	0.750			
0.1324	8472.63	4.0970	4.0972	0.7943	26.62	0.69	0.750			
0.1348	8624.59	4.0940	4.0940	0.7914	26.61	0.68	0.750			
0.1371	8775.72	4.0910	4.0909	0.7946	26.61	0.68	0.750			
0.1395	8925.49	4.0880	4.0881	0.7904	26.60	0.67	0.750			
0.1419	9079.13	4.0850	4.0849	0.7977	26.60	0.67	0.750			
0.1443	9234.23	4.0820	4.0820	0.8021	26.60	0.67	0.750			
0.1467	9390.68	4.0790	4.0791	0.7987	26.60	0.67	0.750			
0.1491	9543.74	4.0760	4.0760	0.8045	26.60	0.67	0.750			
0.1515	9697.66	4.0730	4.0729	0.8055	26.60	0.67	0.750			
0.1539	9849.99	4.0700	4.0700	0.8033	26.60	0.67	0.750			
0.1563	10004.61	4.0670	4.0671	0.8108	26.60	0.67	0.750			
0.1588	10162.91	4.0640	4.0640	0.8121	26.60	0.67	0.750			
0.1612	10318.66	4.0610	4.0610	0.8170	26.60	0.67	0.750			
0.1637	10476.34	4.0580	4.0580	0.8234	26.60	0.67	0.750			
0.1661	10632.89	4.0550	4.0551	0.8248	26.60	0.67	0.750			
0.1686	10792.25	4.0520	4.0520	0.8282	26.60	0.67	0.750			
0.1711	10953.25	4.0490	4.0491	0.8271	26.60	0.67	0.750			
0.1736	11111.69	4.0460	4.0460	0.8291	26.59	0.66	0.750			
0.1761	11272.03	4.0430	4.0430	0.8348	26.59	0.66	0.750			
0.1786	11430.18	4.0400	4.0400	0.8306	26.59	0.66	0.750			
0.1811	11589.42	4.0370	4.0371	0.8346	26.59	0.66	0.750			
0.1836	11752.59	4.0340	4.0340	0.8303	26.59	0.66	0.750			
0.1861	11911.59	4.0310	4.0310	0.8371	26.60	0.67	0.750			
0.1886	12072.61	4.0280	4.0280	0.8419	26.60	0.67	0.750			
0.1911	12232.74	4.0250	4.0251	0.8435	26.60	0.67	0.750			
0.1937	12394.03	4.0220	4.0221	0.8520	26.60	0.67	0.750			
0.1963	12560.03	4.0190	4.0190	0.8530	26.60	0.67	0.750			
0.1988	12724.36	4.0160	4.0160	0.8541	26.60	0.67	0.750			
0.2014	12891.37	4.0130	4.0130	0.8561	26.60	0.67	0.750			
0.2040	13052.90	4.0100	4.0101	0.8522	26.60	0.67	0.750			
0.2065	13216.73	4.0070	4.0069	0.8547	26.60	0.67	0.750			
0.2091	13379.65	4.0040	4.0041	0.8535	26.60	0.67	0.750			
0.2116	13543.22	4.0010	4.0010	0.8567	26.59	0.66	0.750			
0.2142	13708.76	3.9980	3.9980	0.8634	26.59	0.66	0.750			
0.2168	13874.96	3.9950	3.9949	0.8681	26.59	0.66	0.750			
0.2194	14042.14	3.9920	3.9920	0.8707	26.59	0.66	0.750			
0.2220	14208.80	3.9890	3.9890	0.8696	26.59	0.66	0.750			
0.2246	14376.43	3.9860	3.9860	0.8744	26.59	0.66	0.750			
0.2273	14544.84	3.9830	3.9831	0.8775	26.59	0.66	0.750			
0.2299	14712.77	3.9800	3.9798	0.8766	26.59	0.66	0.750			
0.2325	14882.59	3.9770	3.9770	0.8694	26.59	0.66	0.750			
0.2351	15049.48	3.9740	3.9740	0.8731	26.59	0.66	0.750			
0.2378	15216.28	3.9710	3.9711	0.8783	26.58	0.65	0.750			
0.2404	15383.94	3.9680	3.9680	0.8757	26.58	0.65	0.750			
0.2430	15551.52	3.9650	3.9651	0.8826	26.58	0.65	0.750			
0.2457	15723.04	3.9620	3.9621	0.8847	26.58	0.65	0.750			
0.2484	15894.89	3.9590	3.9590	0.8884	26.58	0.65	0.750			
0.2510	16066.30	3.9560	3.9560	0.8892	26.58	0.65	0.750			
0.2537	16235.51	3.9530	3.9530	0.8872	26.58	0.65	0.750			
0.2563	16405.58	3.9500	3.9500	0.8877	26.58	0.65	0.750			
0.2590	16576.41	3.9470	3.9470	0.8877	26.57	0.64	0.750			
0.2617	16745.94	3.9440	3.9441	0.8873	26.57	0.64	0.750			
0.2644	16918.78	3.9410	3.9410	0.8929	26.56	0.63	0.750			
0.2670	17088.96	3.9380	3.9378	0.8892	26.56	0.63	0.750			
0.2697	17260.65	3.9350	3.9350	0.8851	26.56	0.63	0.750			
0.2723	17429.76	3.9320	3.9320	0.8860	26.56	0.63	0.750			
0.2750	17600.00	3.9290	3.9290	0.8914	26.55	0.62	0.750			
0.2777	17771.27	3.9260	3.9261	0.8947	26.55	0.62	0.750			
0.2803	17941.35	3.9230	3.9228	0.9013	26.55	0.62	0.750			
0.2831	18115.48	3.9200	3.9201	0.9072	26.55	0.62	0.750			
0.2858	18291.50	3.9170	3.9169	0.9128	26.55	0.62	0.750			
0.2886	18468.11	3.9140	3.9141	0.9143	26.54	0.61	0.750			
0.2913	18644.31	3.9110	3.9109	0.9127	26.54	0.61	0.750			
0.2941	18821.05	3.9080	3.9080	0.9081	26.54	0.61	0.750			
0.2968	18995.16	3.9050	3.9049	0.9082	26.53	0.60	0.750			
0.2995	19167.47	3.9020	3.9021	0.9119	26.52	0.59	0.750			
0.3022	19342.55	3.8990	3.8990	0.9168	26.52	0.59	0.750			
0.3050	19517.96	3.8960	3.8958	0.9252	26.51	0.58	0.750			
0.3078	19697.50	3.8930	3.8931	0.9291	26.50	0.57	0.750			
0.3106	19876.02	3.8900	3.8900	0.9392	26.50	0.57	0.750			
0.3134	20057.90	3.8870	3.8870	0.9456	26.49	0.56	0.750			
0.3162	20238.86	3.8840	3.8840	0.9493	26.48	0.55	0.750			
0.3191	20422.85	3.8810	3.8810	0.9515	26.48	0.55	0.750			
0.3220	20606.35	3.8780	3.8780	0.9576	26.47	0.54	0.750			
0.3248	20790.15	3.8750	3.8751	0.9622	26.46	0.53	0.750			
0.3278	20976.75	3.8720	3.8720	0.9654	26.45	0.52	0.750			
0.3306	21160.63	3.8690	3.8690	0.9655	26.45	0.52	0.750			
0.3335	21347.10	3.8660	3.8661	0.9660	26.44	0.51	0.750			
0.3364	21531.80	3.8630	3.8630	0.9673	26.43	0.50	0.750			
0.3394	21718.54	3.8600	3.8600	0.9731	26.43	0.50	0.750			
0.3423	21905.27	3.8570	3.8569	0.9735	26.42	0.49	0.750			
0.3452	22092.77	3.8540	3.8540	0.9713	26.41	0.48	0.750			
0.3481	22279.24	3.8510	3.8511	0.9732	26.40	0.47	0.750			
0.3510	22465.32	3.8480	3.8480	0.9752	26.39	0.46	0.750			
0.3540	22652.98	3.8450	3.8449	0.9759	26.38	0.45	0.750			
0.3569	22841.33	3.8420	3.8419	0.9688	26.37	0.44	0.750			
0.3598	23026.51	3.8390	3.8391	0.9728	26.36	0.43	0.750			
0.3627	23214.05	3.8360	3.8361	0.9830	26.35	0.42	0.750			
0.3657	23402.11	3.8330	3.8329	0.9869	26.35	0.42	0.750			
0.3686	23593.36	3.8300	3.8300	0.9925	26.34	0.41	0.750			
0.3716	23782.62	3.8270	3.8271	0.9993	26.33	0.40	0.750			
0.3746	23976.05	3.8240	3.8241	1.0136	26.32	0.39	0.750			
0.3777	24175.37	3.8210	3.8210	1.0235	26.31	0.38	0.750			
0.3808	24372.06	3.8180	3.8180	1.0219	26.31	0.38	0.750			
0.3838	24566.39	3.8150	3.8151	1.0317	26.30	0.37	0.750			
0.3870	24765.99	3.8120	3.8120	1.0376	26.29	0.36	0.750			
0.3901	24966.04	3.8090	3.8089	1.0470	26.28	0.35	0.750			
0.3933	25168.81	3.8060	3.8061	1.0457	26.27	0.34	0.750			
0.3964	25368.41	3.8030	3.8031	1.0570	26.26	0.33	0.750			
0.3996	25573.03	3.8000	3.8000	1.0710	26.25	0.32	0.750			
0.4028	25778.30	3.7970	3.7971	1.0836	26.24	0.31	0.750			
0.4060	25984.81	3.7940	3.7940	1.0903	26.23	0.30	0.750			
0.4093	26196.82	3.7910	3.7910	1.1134	26.22	0.29	0.750			
0.4127	26412.98	3.7880	3.7880	1.1263	26.20	0.27	0.750			
0.4161	26631.99	3.7850	3.7850	1.1425	26.19	0.26	0.750			
0.4196	26852.24	3.7820	3.7820	1.1475	26.18	0.25	0.750			
0.4230	27073.17	3.7790	3.7790	1.1637	26.17	0.24	0.750			
0.4264	27290.30	3.7760	3.7761	1.1940	26.16	0.23	0.750			
0.4301	27524.64	3.7730	3.7728	1.2234	26.15	0.22	0.750			
0.4338	27760.95	3.7700	3.7700	1.2581	26.14	0.21	0.750			
0.4376	28007.84	3.7670	3.7670	1.2973	26.12	0.19	0.750	0.315	0.434	
0.4416	28264.24	3.7640	3.7639	1.3235	26.11	0.18	0.750			
0.4456	28520.58	3.7610	3.7611	1.3426	26.10	0.17	0.750			
0.4497	28781.84	3.7580	3.7581	1.3693	26.09	0.16	0.750			
0.4539	29049.29	3.7550	3.7549	1.3651	26.08	0.15	0.750			
0.4580	29313.70	3.7520	3.7520	1.3856	26.07	0.14	0.750			
0.4621	29576.60	3.7490	3.7491	1.4182	26.06	0.13	0.750			
0.4664	29847.82	3.7460	3.7461	1.4578	26.04	0.11	0.750			
0.4708	30128.88	3.7430	3.7430	1.4978	26.03	0.10	0.750			
0.4753	30422.01	3.7400	3.7399	1.5454	26.02	0.09	0.750			
0.4801	30724.61	3.7370	3.7369	1.6009	26.01	0.08	0.750			
0.4850	31041.92	3.7340	3.7340	1.6622	25.99	0.06	0.750			
0.4900	31361.71	3.7310	3.7311	1.7069	25.98	0.05	0.750			
0.4953	31696.98	3.7280	3.7282	1.7427	25.96	0.03	0.750			
0.5006	32038.53	3.7250	3.7251	1.7820	25.94	0.01	0.750			
0.5061	32387.96	3.7220	3.7220	1.8269	25.93	-0.00	0.750			
0.5116	32742.30	3.7190	3.7187	1.8495	25.92	-0.01	0.750			
0.5171	33091.85	3.7160	3.7158	1.9211	25.91	-0.02	0.750			
0.5230	33469.45	3.7130	3.7132	1.9577	25.89	-0.04	0.750			
0.5289	33849.57	3.7100	3.7099	2.0263	25.86	-0.07	0.750			
0.5351	34245.77	3.7070	3.7073	2.0876	25.85	-0.08	0.750			
0.5415	34657.54	3.7040	3.7037	2.1559	25.83	-0.10	0.750			
0.5481	35080.51	3.7010	3.7011	2.2387	25.82	-0.11	0.750			
0.5548	35508.77	3.6980	3.6981	2.2927	25.81	-0.12	0.750			
0.5620	35965.68	3.6950	3.6952	2.3523	25.79	-0.14	0.750			
0.5691	36420.69	3.6920	3.6921	2.4256	25.78	-0.15	0.750			
0.5765	36893.10	3.6890	3.6889	2.5203	25.76	-0.17	0.750			
0.5840	37378.97	3.6860	3.6860	2.6346	25.74	-0.19	0.750			
0.5921	37896.85	3.6830	3.6831	2.7117	25.73	-0.20	0.750			
0.6007	38442.03	3.6800	3.6800	2.8167	25.71	-0.22	0.750			
0.6091	38985.14	3.6770	3.6769	2.8431	25.69	-0.24	0.750			
0.6177	39535.26	3.6740	3.6740	2.9038	25.68	-0.25	0.750			
0.6267	40111.21	3.6710	3.6711	2.8727	25.68	-0.25	0.750			
0.6357	40681.62	3.6680	3.6680	2.7481	25.68	-0.25	0.750			
0.6436	41191.75	3.6650	3.6651	2.5191	25.68	-0.25	0.750			
0.6505	41634.98	3.6620	3.6621	2.2626	25.68	-0.25	0.750			
0.6569	42040.34	3.6590	3.6590	2.0113	25.68	-0.25	0.750			
0.6624	42394.58	3.6560	3.6559	1.8416	25.68	-0.25	0.750			
0.6676	42723.41	3.6530	3.6530	1.6830	25.68	-0.25	0.750			
0.6722	43022.95	3.6500	3.6499	1.5565	25.68	-0.25	0.750			
0.6769	43319.17	3.6470	3.6471	1.4723	25.69	-0.24	0.750			
0.6810	43586.59	3.6440	3.6442	1.3788	25.69	-0.24	0.750			
0.6849	43833.88	3.6410	3.6411	1.2959	25.69	-0.24	0.750			
0.6886	44067.81	3.6380	3.6381	1.2363	25.69	-0.24	0.750			
0.6922	44299.70	3.6350	3.6346	1.2020	25.69	-0.24	0.750			
0.6957	44523.56	3.6320	3.6321	1.1830	25.69	-0.24	0.750			
0.6992	44748.57	3.6290	3.6291	1.1782	25.69	-0.24	0.750			
0.7027	44974.44	3.6260	3.6260	1.1801	25.69	-0.24	0.750			
0.7062	45199.35	3.6230	3.6231	1.1760	25.69	-0.24	0.750			
0.7098	45424.82	3.6200	3.6200	1.1841	25.69	-0.24	0.750			
0.7134	45656.21	3.6170	3.6170	1.1901	25.70	-0.23	0.750			
0.7170	45889.94	3.6140	3.6137	1.1750	25.70	-0.23	0.750			
0.7205	46115.13	3.6110	3.6112	1.1641	25.70	-0.23	0.750			
0.7240	46337.08	3.6080	3.6080	1.1484	25.70	-0.23	0.750			
0.7274	46553.17	3.6050	3.6051	1.1375	25.70	-0.23	0.750			
0.7307	46766.30	3.6020	3.6020	1.1206	25.70	-0.23	0.750			
0.7340	46978.20	3.5990	3.5990	1.1389	25.70	-0.23	0.750			
0.7374	47196.77	3.5960	3.5960	1.1606	25.70	-0.23	0.750			
0.7410	47422.78	3.5930	3.5928	1.1861	25.70	-0.23	0.750			
0.7445	47650.12	3.5900	3.5901	1.2240	25.70	-0.23	0.750			
0.7482	47886.90	3.5870	3.5871	1.2728	25.70	-0.23	0.750			
0.7522	48138.94	3.5840	3.5840	1.3123	25.70	-0.23	0.750			
0.7562	48394.39	3.5810	3.5810	1.3640	25.70	-0.23	0.750			
0.7603	48660.65	3.5780	3.5781	1.4044	25.70	-0.23	0.750			
0.7647	48941.25	3.5750	3.5750	1.4349	25.70	-0.23	0.750			
0.7691	49219.52	3.5720	3.5721	1.4685	25.70	-0.23	0.750			
0.7734	49499.48	3.5690	3.5692	1.5037	25.70	-0.23	0.750			
0.7780	49790.62	3.5660	3.5660	1.5514	25.70	-0.23	0.750			
0.7828	50097.82	3.5630	3.5630	1.5820	25.70	-0.23	0.750			
0.7876	50406.78	3.5600	3.5600	1.6177	25.71	-0.22	0.750			
0.7926	50728.95	3.5570	3.5570	1.6311	25.71	-0.22	0.750			
0.7976	51048.49	3.5540	3.5539	1.6516	25.71	-0.22	0.750			
0.8025	51359.43	3.5510	3.5514	1.6608	25.71	-0.22	0.750			
0.8074	51672.84	3.5480	3.5480	1.6745	25.71	-0.22	0.750			
0.8125	51998.07	3.5450	3.5454	1.6943	25.72	-0.21	0.750			
0.8176	52327.60	3.5420	3.5418	1.7341	25.72	-0.21	0.750			
0.8229	52665.48	3.5390	3.5390	1.7707	25.73	-0.20	0.750			
0.8285	53022.51	3.5360	3.5358	1.7640	25.74	-0.19	0.750			
0.8341	53384.31	3.5330	3.5330	1.6189	25.75	-0.18	0.750			
0.8392	53706.29	3.5300	3.5304	1.4419	25.77	-0.16	0.750			
0.8434	53976.27	3.5270	3.5276	1.1964	25.79	-0.14	0.750			
0.8466	54182.09	3.5240	3.5240	0.9220	25.80	-0.13	0.750			
0.8485	54303.40	3.5210	3.5206	0.6891	25.82	-0.11	0.750			
0.8498	54388.25	3.5180	3.5176	0.5021	25.82	-0.11	0.750			
0.8509	54458.54	3.5150	3.5151	0.4077	25.83	-0.10	0.750			
0.8520	54528.03	3.5120	3.5119	0.3616	25.84	-0.09	0.750			
0.8530	54589.56	3.5090	3.5089	0.3345	25.84	-0.09	0.750			
0.8539	54650.13	3.5060	3.5060	0.3181	25.85	-0.08	0.750			
0.8548	54708.77	3.5030	3.5029	0.3067	25.85	-0.08	0.750			
0.8557	54766.88	3.5000	3.5001	0.2984	25.86	-0.07	0.750			
0.8566	54823.37	3.4970	3.4970	0.2892	25.86	-0.07	0.750			
0.8575	54878.24	3.4940	3.4940	0.2817	25.87	-0.06	0.750			
0.8583	54931.70	3.4910	3.4910	0.2730	25.87	-0.06	0.750			
0.8591	54982.65	3.4880	3.4880	0.2653	25.88	-0.05	0.750			
0.8599	55032.36	3.4850	3.4850	0.2590	25.88	-0.05	0.750			
0.8607	55081.72	3.4820	3.4820	0.2537	25.89	-0.04	0.750			
0.8614	55129.97	3.4790	3.4789	0.2480	25.89	-0.04	0.750			
0.8621	55176.75	3.4760	3.4761	0.2434	25.90	-0.03	0.750			
0.8629	55223.20	3.4730	3.4730	0.2390	25.90	-0.03	0.750			
0.8636	55268.67	3.4700	3.4700	0.2333	25.91	-0.02	0.750			
0.8643	55313.01	3.4670	3.4669	0.2277	25.91	-0.02	0.750			
0.8649	55355.80	3.4640	3.4641	0.2229	25.92	-0.01	0.750			
0.8656	55398.00	3.4610	3.4611	0.2191	25.92	-0.01	0.750			
0.8662	55439.66	3.4580	3.4579	0.2152	25.92	-0.01	0.750			
0.8669	55480.72	3.4550	3.4550	0.2104	25.93	-0.00	0.750			
0.8675	55520.60	3.4520	3.4519	0.2049	25.93	0.00	0.750			
0.8681	55559.86	3.4490	3.4492	0.1997	25.94	0.01	0.750			
0.8687	55598.46	3.4460	3.4460	0.1953	25.94	0.01	0.750			
0.8693	55635.70	3.4430	3.4430	0.1894	25.94	0.01	0.750			
0.8699	55671.07	3.4400	3.4402	0.1821	25.95	0.02	0.750			
0.8704	55705.28	3.4370	3.4369	0.1755	25.95	0.02	0.750			
0.8709	55738.29	3.4340	3.4340	0.1706	25.95	0.02	0.750			
0.8714	55770.43	3.4310	3.4310	0.1655	25.96	0.03	0.750			
0.8719	55801.56	3.4280	3.4280	0.1601	25.96	0.03	0.750			
0.8724	55831.88	3.4250	3.4250	0.1554	25.96	0.03	0.750			
0.8728	55861.29	3.4220	3.4220	0.1505	25.97	0.04	0.750			
0.8733	55890.04	3.4190	3.4190	0.1447	25.97	0.04	0.750			
0.8737	55917.56	3.4160	3.4159	0.1392	25.97	0.04	0.750			
0.8741	55943.65	3.4130	3.4130	0.1327	25.97	0.04	0.750			
0.8745	55968.50	3.4100	3.4101	0.1262	25.98	0.05	0.750			
0.8749	55992.39	3.4070	3.4070	0.1188	25.98	0.05	0.750			
0.8752	56014.65	3.4040	3.4040	0.1116	25.98	0.05	0.750			
0.8756	56036.19	3.4010	3.4009	0.1015	25.98	0.05	0.750			
0.8759	56055.08	3.3980	3.3981	0.0927	25.99	0.06	0.750			
0.8761	56072.60	3.3950	3.3950	0.0842	25.99	0.06	0.750			
0.8764	56087.71	3.3920	3.3921	0.0732	25.99	0.06	0.750			
0.8766	56101.13	3.3890	3.3895	0.0625	25.99	0.06	0.750			
0.8768	56112.01	3.3860	3.3868	0.0510	25.99	0.06	0.750			
0.8769	56120.69	3.3830	3.3841	0.0394	25.99	0.06	0.750			
0.8770	56127.16	3.3800	3.3813	0.0279	25.99	0.06	0.750			
