Ah_balance (normalized)	Ah_balance (mAh)	Voltage - fit (V)	Voltage -  interpolate (V)	dQ/dV (1/V)	Temperature (°C)	Temperature - diff (°C)	Current (C)	R_DC 0ms (mOhm)	R_DC 50ms (mOhm)	R_DC 50 ms PEC (mOhm)
0.0541	3460.40	4.1980	4.1980	0.7534	26.64	0.71	0.750			
0.0563	3605.95	4.1950	4.1951	0.7593	26.64	0.71	0.750			
0.0586	3752.28	4.1920	4.1920	0.7602	26.64	0.71	0.750			
0.0609	3898.73	4.1890	4.1890	0.7575	26.64	0.71	0.750			
0.0632	4043.68	4.1860	4.1860	0.7579	26.64	0.71	0.750			
0.0654	4187.82	4.1830	4.1830	0.7575	26.64	0.71	0.750			
0.0677	4333.64	4.1800	4.1799	0.7607	26.64	0.71	0.750			
0.0700	4479.58	4.1770	4.1770	0.7662	26.64	0.71	0.750			
0.0723	4628.35	4.1740	4.1740	0.7650	26.64	0.71	0.750			
0.0746	4776.00	4.1710	4.1711	0.7643	26.64	0.71	0.750			
0.0769	4923.22	4.1680	4.1680	0.7695	26.63	0.70	0.750			
0.0792	5070.54	4.1650	4.1650	0.7667	26.63	0.70	0.750			
0.0815	5216.08	4.1620	4.1619	0.7654	26.63	0.70	0.750			
0.0838	5363.67	4.1590	4.1590	0.7654	26.63	0.70	0.750			
0.0861	5510.68	4.1560	4.1561	0.7639	26.63	0.70	0.750			
0.0884	5658.54	4.1530	4.1529	0.7649	26.64	0.71	0.750			
0.0907	5804.16	4.1500	4.1501	0.7658	26.64	0.71	0.750			
0.0930	5950.05	4.1470	4.1469	0.7651	26.64	0.71	0.750			
0.0953	6098.00	4.1440	4.1440	0.7688	26.64	0.71	0.750			
0.0976	6246.84	4.1410	4.1410	0.7666	26.64	0.71	0.750			
0.0999	6394.47	4.1380	4.1379	0.7705	26.63	0.70	0.750			
0.1022	6541.80	4.1350	4.1350	0.7734	26.63	0.70	0.750			
0.1045	6689.05	4.1320	4.1321	0.7758	26.63	0.70	0.750			
0.1068	6837.64	4.1290	4.1290	0.7762	26.63	0.70	0.750			
0.1092	6988.09	4.1260	4.1260	0.7803	26.63	0.70	0.750			
0.1115	7138.41	4.1230	4.1230	0.7779	26.63	0.70	0.750			
0.1139	7287.69	4.1200	4.1200	0.7781	26.63	0.70	0.750			
0.1162	7435.24	4.1170	4.1171	0.7798	26.63	0.70	0.750			
0.1185	7585.28	4.1140	4.1137	0.7823	26.63	0.70	0.750			
0.1209	7735.09	4.1110	4.1110	0.7863	26.63	0.70	0.750			
0.1232	7887.83	4.1080	4.1080	0.7887	26.63	0.70	0.750			
0.1256	8040.60	4.1050	4.1051	0.7927	26.63	0.70	0.750			
0.1280	8192.18	4.1020	4.1020	0.7900	26.63	0.70	0.750			
0.1304	8344.71	4.0990	4.0989	0.7924	26.63	0.70	0.750			
0.1327	8495.37	4.0960	4.0960	0.7900	26.63	0.70	0.750			
0.1351	8648.73	4.0930	4.0929	0.7921	26.63	0.70	0.750			
0.1375	8800.96	4.0900	4.0901	0.7927	26.62	0.69	0.750			
0.1399	8953.46	4.0870	4.0870	0.7954	26.62	0.69	0.750			
0.1423	9104.80	4.0840	4.0840	0.7976	26.62	0.69	0.750			
0.1447	9258.28	4.0810	4.0810	0.8015	26.62	0.69	0.750			
0.1471	9415.08	4.0780	4.0779	0.7958	26.62	0.69	0.750			
0.1495	9565.87	4.0750	4.0750	0.8006	26.62	0.69	0.750			
0.1519	9719.39	4.0720	4.0721	0.8082	26.62	0.69	0.750			
0.1543	9874.03	4.0690	4.0691	0.8121	26.62	0.69	0.750			
0.1567	10029.41	4.0660	4.0658	0.8158	26.62	0.69	0.750			
0.1592	10189.95	4.0630	4.0630	0.8105	26.62	0.69	0.750			
0.1617	10345.73	4.0600	4.0601	0.8190	26.62	0.69	0.750			
0.1641	10504.01	4.0570	4.0571	0.8210	26.62	0.69	0.750			
0.1666	10659.40	4.0540	4.0541	0.8209	26.62	0.69	0.750			
0.1690	10815.61	4.0510	4.0509	0.8251	26.62	0.69	0.750			
0.1715	10977.35	4.0480	4.0481	0.8269	26.62	0.69	0.750			
0.1740	11137.66	4.0450	4.0451	0.8318	26.62	0.69	0.750			
0.1766	11299.34	4.0420	4.0420	0.8325	26.62	0.69	0.750			
0.1790	11456.45	4.0390	4.0391	0.8322	26.62	0.69	0.750			
0.1815	11616.47	4.0360	4.0359	0.8351	26.62	0.69	0.750			
0.1840	11777.30	4.0330	4.0330	0.8346	26.62	0.69	0.750			
0.1865	11938.41	4.0300	4.0301	0.8406	26.62	0.69	0.750			
0.1891	12101.26	4.0270	4.0270	0.8466	26.62	0.69	0.750			
0.1916	12264.21	4.0240	4.0240	0.8476	26.62	0.69	0.750			
0.1942	12425.66	4.0210	4.0211	0.8525	26.62	0.69	0.750			
0.1967	12589.63	4.0180	4.0180	0.8519	26.62	0.69	0.750			
0.1993	12754.42	4.0150	4.0150	0.8581	26.62	0.69	0.750			
0.2019	12920.01	4.0120	4.0119	0.8576	26.62	0.69	0.750			
0.2045	13085.73	4.0090	4.0092	0.8583	26.62	0.69	0.750			
0.2070	13249.33	4.0060	4.0061	0.8603	26.62	0.69	0.750			
0.2096	13415.55	4.0030	4.0029	0.8586	26.62	0.69	0.750			
0.2122	13579.73	4.0000	4.0000	0.8608	26.62	0.69	0.750			
0.2148	13745.05	3.9970	3.9971	0.8660	26.62	0.69	0.750			
0.2173	13910.30	3.9940	3.9940	0.8704	26.62	0.69	0.750			
0.2200	14078.93	3.9910	3.9910	0.8748	26.62	0.69	0.750			
0.2226	14247.11	3.9880	3.9879	0.8736	26.62	0.69	0.750			
0.2252	14414.76	3.9850	3.9851	0.8740	26.62	0.69	0.750			
0.2279	14583.37	3.9820	3.9821	0.8769	26.62	0.69	0.750			
0.2305	14752.01	3.9790	3.9786	0.8785	26.62	0.69	0.750			
0.2331	14920.12	3.9760	3.9761	0.8785	26.62	0.69	0.750			
0.2358	15088.81	3.9730	3.9731	0.8778	26.62	0.69	0.750			
0.2384	15258.22	3.9700	3.9700	0.8875	26.62	0.69	0.750			
0.2411	15430.13	3.9670	3.9670	0.8875	26.62	0.69	0.750			
0.2437	15597.93	3.9640	3.9640	0.8870	26.62	0.69	0.750			
0.2464	15768.95	3.9610	3.9611	0.8858	26.62	0.69	0.750			
0.2491	15940.17	3.9580	3.9581	0.8898	26.62	0.69	0.750			
0.2517	16111.82	3.9550	3.9549	0.8893	26.62	0.69	0.750			
0.2544	16281.43	3.9520	3.9521	0.8857	26.62	0.69	0.750			
0.2570	16451.04	3.9490	3.9490	0.8868	26.62	0.69	0.750			
0.2597	16622.85	3.9460	3.9461	0.8892	26.61	0.68	0.750			
0.2624	16792.70	3.9430	3.9430	0.8862	26.61	0.68	0.750			
0.2650	16961.80	3.9400	3.9400	0.8945	26.61	0.68	0.750			
0.2677	17132.85	3.9370	3.9369	0.8970	26.60	0.67	0.750			
0.2704	17307.86	3.9340	3.9340	0.8959	26.60	0.67	0.750			
0.2731	17479.57	3.9310	3.9310	0.8958	26.59	0.66	0.750			
0.2758	17651.49	3.9280	3.9282	0.9007	26.59	0.66	0.750			
0.2785	17824.84	3.9250	3.9250	0.9040	26.58	0.65	0.750			
0.2812	17998.01	3.9220	3.9218	0.9009	26.58	0.65	0.750			
0.2839	18170.15	3.9190	3.9190	0.8981	26.58	0.65	0.750			
0.2866	18342.32	3.9160	3.9161	0.9069	26.57	0.64	0.750			
0.2893	18518.04	3.9130	3.9130	0.9130	26.57	0.64	0.750			
0.2921	18692.98	3.9100	3.9099	0.9123	26.56	0.63	0.750			
0.2948	18868.36	3.9070	3.9070	0.9149	26.56	0.63	0.750			
0.2976	19045.37	3.9040	3.9041	0.9126	26.55	0.62	0.750			
0.3003	19219.27	3.9010	3.9011	0.9232	26.55	0.62	0.750			
0.3031	19396.23	3.8980	3.8980	0.9274	26.54	0.61	0.750			
0.3058	19574.07	3.8950	3.8947	0.9285	26.54	0.61	0.750			
0.3086	19753.59	3.8920	3.8921	0.9325	26.53	0.60	0.750			
0.3115	19932.87	3.8890	3.8891	0.9414	26.53	0.60	0.750			
0.3143	20115.73	3.8860	3.8859	0.9496	26.52	0.59	0.750			
0.3171	20296.84	3.8830	3.8830	0.9510	26.51	0.58	0.750			
0.3200	20480.90	3.8800	3.8800	0.9486	26.51	0.58	0.750			
0.3229	20663.87	3.8770	3.8771	0.9599	26.50	0.57	0.750			
0.3258	20849.46	3.8740	3.8740	0.9651	26.49	0.56	0.750			
0.3287	21034.67	3.8710	3.8710	0.9707	26.49	0.56	0.750			
0.3316	21219.92	3.8680	3.8679	0.9704	26.48	0.55	0.750			
0.3345	21407.86	3.8650	3.8651	0.9704	26.47	0.54	0.750			
0.3374	21594.09	3.8620	3.8621	0.9760	26.46	0.53	0.750			
0.3404	21782.79	3.8590	3.8590	0.9827	26.45	0.52	0.750			
0.3433	21970.59	3.8560	3.8557	0.9808	26.44	0.51	0.750			
0.3463	22160.39	3.8530	3.8530	0.9772	26.43	0.50	0.750			
0.3492	22347.36	3.8500	3.8501	0.9837	26.42	0.49	0.750			
0.3522	22538.09	3.8470	3.8470	0.9882	26.41	0.48	0.750			
0.3551	22726.25	3.8440	3.8439	0.9882	26.40	0.47	0.750			
0.3581	22917.19	3.8410	3.8411	0.9914	26.39	0.46	0.750			
0.3611	23107.38	3.8380	3.8380	0.9967	26.38	0.45	0.750			
0.3641	23300.03	3.8350	3.8351	1.0040	26.37	0.44	0.750			
0.3671	23493.71	3.8320	3.8320	1.0051	26.36	0.43	0.750			
0.3701	23688.25	3.8290	3.8290	1.0066	26.34	0.41	0.750			
0.3731	23880.96	3.8260	3.8260	1.0139	26.33	0.40	0.750			
0.3762	24075.08	3.8230	3.8231	1.0199	26.33	0.40	0.750			
0.3792	24271.54	3.8200	3.8200	1.0241	26.32	0.39	0.750			
0.3823	24469.68	3.8170	3.8170	1.0277	26.31	0.38	0.750			
0.3854	24666.55	3.8140	3.8141	1.0366	26.30	0.37	0.750			
0.3885	24865.68	3.8110	3.8110	1.0509	26.29	0.36	0.750			
0.3917	25068.65	3.8080	3.8081	1.0687	26.28	0.35	0.750			
0.3949	25276.78	3.8050	3.8049	1.0655	26.26	0.33	0.750			
0.3982	25481.90	3.8020	3.8020	1.0800	26.25	0.32	0.750			
0.4014	25690.38	3.7990	3.7991	1.0914	26.24	0.31	0.750			
0.4047	25901.82	3.7960	3.7961	1.0987	26.23	0.30	0.750			
0.4080	26112.13	3.7930	3.7930	1.0944	26.22	0.29	0.750			
0.4112	26319.25	3.7900	3.7901	1.1039	26.21	0.28	0.750			
0.4146	26531.56	3.7870	3.7872	1.1224	26.20	0.27	0.750			
0.4180	26752.65	3.7840	3.7836	1.1361	26.19	0.26	0.750			
0.4214	26966.60	3.7810	3.7811	1.1504	26.18	0.25	0.750			
0.4249	27191.73	3.7780	3.7781	1.1653	26.17	0.24	0.750			
0.4284	27414.61	3.7750	3.7751	1.2072	26.16	0.23	0.750			
0.4320	27645.87	3.7720	3.7720	1.2315	26.15	0.22	0.750			
0.4357	27885.52	3.7690	3.7689	1.2742	26.13	0.20	0.750			
0.4396	28135.19	3.7660	3.7667	1.3098	26.12	0.19	0.750	0.321	0.429	
0.4436	28392.69	3.7630	3.7628	1.3361	26.10	0.17	0.750			
0.4477	28653.31	3.7600	3.7601	1.3530	26.08	0.15	0.750			
0.4519	28918.63	3.7570	3.7571	1.3879	26.07	0.14	0.750			
0.4559	29180.56	3.7540	3.7538	1.4051	26.05	0.12	0.750			
0.4602	29454.13	3.7510	3.7511	1.4224	26.04	0.11	0.750			
0.4645	29730.82	3.7480	3.7480	1.4585	26.02	0.09	0.750			
0.4690	30014.68	3.7450	3.7451	1.4935	26.01	0.08	0.750			
0.4734	30300.03	3.7420	3.7420	1.5263	26.00	0.07	0.750			
0.4781	30601.50	3.7390	3.7390	1.5570	25.99	0.06	0.750			
0.4828	30897.77	3.7360	3.7359	1.5980	25.98	0.05	0.750			
0.4876	31207.60	3.7330	3.7329	1.6523	25.97	0.04	0.750			
0.4927	31534.41	3.7300	3.7298	1.6879	25.95	0.02	0.750			
0.4978	31860.45	3.7270	3.7268	1.7355	25.94	0.01	0.750			
0.5031	32195.87	3.7240	3.7240	1.7778	25.92	-0.01	0.750			
0.5085	32542.32	3.7210	3.7208	1.8283	25.90	-0.03	0.750			
0.5140	32899.20	3.7180	3.7181	1.8879	25.88	-0.05	0.750			
0.5197	33263.71	3.7150	3.7150	1.9408	25.87	-0.06	0.750			
0.5258	33649.02	3.7120	3.7120	2.0021	25.85	-0.08	0.750			
0.5319	34041.33	3.7090	3.7088	2.0827	25.83	-0.10	0.750			
0.5382	34445.79	3.7060	3.7060	2.1176	25.81	-0.12	0.750			
0.5446	34857.41	3.7030	3.7029	2.2047	25.80	-0.13	0.750			
0.5514	35289.60	3.7000	3.7001	2.2712	25.79	-0.14	0.750			
0.5582	35725.15	3.6970	3.6968	2.3372	25.77	-0.16	0.750			
0.5653	36182.13	3.6940	3.6941	2.4027	25.76	-0.17	0.750			
0.5726	36644.60	3.6910	3.6911	2.5023	25.74	-0.19	0.750			
0.5803	37140.12	3.6880	3.6883	2.5925	25.72	-0.21	0.750			
0.5882	37642.49	3.6850	3.6850	2.6470	25.71	-0.22	0.750			
0.5962	38156.88	3.6820	3.6818	2.7312	25.71	-0.22	0.750			
0.6044	38684.50	3.6790	3.6789	2.8048	25.69	-0.24	0.750			
0.6131	39237.17	3.6760	3.6760	2.8802	25.69	-0.24	0.750			
0.6219	39803.08	3.6730	3.6731	2.9482	25.69	-0.24	0.750			
0.6312	40394.65	3.6700	3.6700	2.9005	25.68	-0.25	0.750			
0.6400	40962.32	3.6670	3.6669	2.7457	25.68	-0.25	0.750			
0.6481	41478.72	3.6640	3.6641	2.5219	25.68	-0.25	0.750			
0.6551	41928.02	3.6610	3.6611	2.2401	25.68	-0.25	0.750			
0.6612	42317.91	3.6580	3.6579	1.9946	25.68	-0.25	0.750			
0.6666	42664.27	3.6550	3.6551	1.7975	25.68	-0.25	0.750			
0.6716	42983.25	3.6520	3.6517	1.6692	25.68	-0.25	0.750			
0.6762	43277.87	3.6490	3.6487	1.5366	25.68	-0.25	0.750			
0.6808	43569.41	3.6460	3.6456	1.4546	25.68	-0.25	0.750			
0.6850	43837.73	3.6430	3.6432	1.3788	25.69	-0.24	0.750			
0.6889	44091.01	3.6400	3.6401	1.2976	25.69	-0.24	0.750			
0.6926	44329.45	3.6370	3.6369	1.2347	25.70	-0.23	0.750			
0.6962	44557.55	3.6340	3.6341	1.1975	25.70	-0.23	0.750			
0.6997	44780.59	3.6310	3.6311	1.1920	25.70	-0.23	0.750			
0.7032	45007.01	3.6280	3.6279	1.1946	25.70	-0.23	0.750			
0.7068	45237.29	3.6250	3.6250	1.1937	25.70	-0.23	0.750			
0.7104	45467.65	3.6220	3.6221	1.1949	25.70	-0.23	0.750			
0.7141	45701.76	3.6190	3.6191	1.2004	25.71	-0.22	0.750			
0.7177	45934.13	3.6160	3.6159	1.1909	25.71	-0.22	0.750			
0.7213	46161.23	3.6130	3.6130	1.1765	25.71	-0.22	0.750			
0.7248	46385.86	3.6100	3.6100	1.1621	25.72	-0.21	0.750			
0.7282	46607.53	3.6070	3.6071	1.1509	25.72	-0.21	0.750			
0.7317	46826.42	3.6040	3.6040	1.1375	25.72	-0.21	0.750			
0.7350	47038.93	3.6010	3.6010	1.1361	25.72	-0.21	0.750			
0.7383	47250.41	3.5980	3.5980	1.1434	25.72	-0.21	0.750			
0.7418	47472.36	3.5950	3.5951	1.1584	25.72	-0.21	0.750			
0.7452	47693.45	3.5920	3.5921	1.1910	25.72	-0.21	0.750			
0.7488	47925.78	3.5890	3.5891	1.2298	25.72	-0.21	0.750			
0.7526	48168.38	3.5860	3.5861	1.2684	25.72	-0.21	0.750			
0.7565	48414.22	3.5830	3.5828	1.3159	25.72	-0.21	0.750			
0.7604	48667.06	3.5800	3.5802	1.3374	25.72	-0.21	0.750			
0.7645	48927.38	3.5770	3.5771	1.3918	25.72	-0.21	0.750			
0.7687	49199.34	3.5740	3.5738	1.4515	25.72	-0.21	0.750			
0.7732	49482.13	3.5710	3.5712	1.4919	25.72	-0.21	0.750			
0.7778	49778.35	3.5680	3.5681	1.5309	25.72	-0.21	0.750			
0.7824	50076.49	3.5650	3.5651	1.5780	25.72	-0.21	0.750			
0.7873	50387.39	3.5620	3.5620	1.6014	25.72	-0.21	0.750			
0.7922	50697.78	3.5590	3.5589	1.6433	25.72	-0.21	0.750			
0.7971	51014.64	3.5560	3.5562	1.6448	25.72	-0.21	0.750			
0.8021	51334.73	3.5530	3.5528	1.6505	25.73	-0.20	0.750			
0.8071	51655.44	3.5500	3.5504	1.6702	25.73	-0.20	0.750			
0.8122	51978.88	3.5470	3.5466	1.6864	25.74	-0.19	0.750			
0.8171	52297.36	3.5440	3.5440	1.7080	25.75	-0.18	0.750			
0.8223	52627.41	3.5410	3.5413	1.7362	25.75	-0.18	0.750			
0.8276	52966.82	3.5380	3.5381	1.7698	25.75	-0.18	0.750			
0.8332	53326.48	3.5350	3.5349	1.7422	25.76	-0.17	0.750			
0.8389	53686.53	3.5320	3.5317	1.5802	25.78	-0.15	0.750			
0.8438	54003.83	3.5290	3.5294	1.4019	25.79	-0.14	0.750			
0.8476	54248.99	3.5260	3.5266	1.1306	25.81	-0.12	0.750			
0.8506	54439.34	3.5230	3.5228	0.8648	25.82	-0.11	0.750			
0.8523	54548.97	3.5200	3.5196	0.6522	25.83	-0.10	0.750			
0.8536	54631.71	3.5170	3.5166	0.4870	25.84	-0.09	0.750			
0.8547	54697.75	3.5140	3.5139	0.3997	25.84	-0.09	0.750			
0.8557	54766.63	3.5110	3.5108	0.3613	25.85	-0.08	0.750			
0.8567	54829.34	3.5080	3.5080	0.3353	25.86	-0.07	0.750			
0.8577	54891.31	3.5050	3.5050	0.3206	25.86	-0.07	0.750			
0.8586	54950.91	3.5020	3.5020	0.3068	25.87	-0.06	0.750			
0.8595	55008.95	3.4990	3.4989	0.2969	25.87	-0.06	0.750			
0.8604	55064.12	3.4960	3.4961	0.2861	25.88	-0.05	0.750			
0.8612	55118.19	3.4930	3.4930	0.2799	25.88	-0.05	0.750			
0.8620	55170.42	3.4900	3.4901	0.2715	25.89	-0.04	0.750			
0.8628	55221.91	3.4870	3.4869	0.2656	25.89	-0.04	0.750			
0.8636	55271.85	3.4840	3.4840	0.2587	25.90	-0.03	0.750			
0.8644	55321.45	3.4810	3.4810	0.2540	25.90	-0.03	0.750			
0.8652	55370.17	3.4780	3.4780	0.2474	25.91	-0.02	0.750			
0.8659	55417.32	3.4750	3.4749	0.2400	25.91	-0.02	0.750			
0.8666	55461.55	3.4720	3.4720	0.2353	25.92	-0.01	0.750			
0.8673	55505.64	3.4690	3.4691	0.2299	25.92	-0.01	0.750			
0.8680	55549.58	3.4660	3.4660	0.2258	25.93	-0.00	0.750			
0.8686	55592.60	3.4630	3.4630	0.2221	25.93	0.00	0.750			
0.8693	55634.70	3.4600	3.4600	0.2190	25.94	0.01	0.750			
0.8699	55676.25	3.4570	3.4572	0.2158	25.94	0.01	0.750			
0.8706	55718.31	3.4540	3.4538	0.2115	25.94	0.01	0.750			
0.8712	55758.25	3.4510	3.4509	0.2051	25.95	0.02	0.750			
0.8718	55797.37	3.4480	3.4481	0.2004	25.95	0.02	0.750			
0.8724	55835.30	3.4450	3.4450	0.1946	25.96	0.03	0.750			
0.8730	55872.46	3.4420	3.4420	0.1893	25.96	0.03	0.750			
0.8736	55908.12	3.4390	3.4389	0.1827	25.96	0.03	0.750			
0.8741	55942.13	3.4360	3.4361	0.1760	25.97	0.04	0.750			
0.8746	55975.43	3.4330	3.4329	0.1709	25.97	0.04	0.750			
0.8751	56008.02	3.4300	3.4301	0.1662	25.97	0.04	0.750			
0.8756	56039.34	3.4270	3.4270	0.1604	25.98	0.05	0.750			
0.8761	56069.57	3.4240	3.4239	0.1546	25.98	0.05	0.750			
0.8765	56098.74	3.4210	3.4210	0.1493	25.98	0.05	0.750			
0.8770	56127.09	3.4180	3.4180	0.1435	25.99	0.06	0.750			
0.8774	56154.36	3.4150	3.4149	0.1381	25.99	0.06	0.750			
0.8778	56180.36	3.4120	3.4120	0.1313	25.99	0.06	0.750			
0.8782	56204.93	3.4090	3.4091	0.1246	25.99	0.06	0.750			
0.8786	56228.37	3.4060	3.4059	0.1176	26.00	0.07	0.750			
0.8789	56250.44	3.4030	3.4031	0.1107	26.00	0.07	0.750			
0.8793	56272.11	3.4000	3.3999	0.1007	26.00	0.07	0.750			
0.8795	56290.93	3.3970	3.3969	0.0923	26.00	0.07	0.750			
0.8798	56307.67	3.3940	3.3940	0.0820	26.00	0.07	0.750			
0.8801	56323.26	3.3910	3.3911	0.0725	26.00	0.07	0.750			
0.8803	56336.10	3.3880	3.3887	0.0612	26.01	0.08	0.750			
0.8804	56347.84	3.3850	3.3855	0.0487	26.01	0.08	0.750			
0.8806	56355.92	3.3820	3.3832	0.0355	26.01	0.08	0.750			
0.8806	56361.46	3.3790	3.3808	0.0222	26.01	0.08	0.750			
