Ah_balance (normalized)	Ah_balance (mAh)	Voltage - fit (V)	Voltage -  interpolate (V)	dQ/dV (1/V)	Temperature (°C)	Temperature - diff (°C)	Current (C)	R_DC 0ms (mOhm)	R_DC 50ms (mOhm)	R_DC 50 ms PEC (mOhm)
0.0502	3212.69	4.1980	4.1979	0.7639	26.15	0.16	0.750			
0.0525	3358.53	4.1950	4.1950	0.7617	26.14	0.15	0.750			
0.0548	3505.90	4.1920	4.1921	0.7652	26.14	0.15	0.750			
0.0571	3652.90	4.1890	4.1890	0.7685	26.14	0.15	0.750			
0.0594	3801.19	4.1860	4.1860	0.7747	26.14	0.15	0.750			
0.0617	3946.69	4.1830	4.1831	0.7803	26.14	0.15	0.750			
0.0640	4098.34	4.1800	4.1801	0.7884	26.13	0.14	0.750			
0.0665	4253.01	4.1770	4.1769	0.7899	26.13	0.14	0.750			
0.0688	4405.72	4.1740	4.1738	0.7887	26.13	0.14	0.750			
0.0712	4558.62	4.1710	4.1712	0.7871	26.13	0.14	0.750			
0.0736	4708.34	4.1680	4.1680	0.7816	26.13	0.14	0.750			
0.0759	4856.44	4.1650	4.1650	0.7795	26.14	0.15	0.750			
0.0782	5005.46	4.1620	4.1619	0.7777	26.14	0.15	0.750			
0.0805	5154.56	4.1590	4.1590	0.7821	26.14	0.15	0.750			
0.0829	5305.11	4.1560	4.1560	0.7848	26.14	0.15	0.750			
0.0853	5457.60	4.1530	4.1530	0.7856	26.14	0.15	0.750			
0.0876	5608.45	4.1500	4.1500	0.7863	26.14	0.15	0.750			
0.0900	5758.20	4.1470	4.1470	0.7870	26.13	0.14	0.750			
0.0923	5909.07	4.1440	4.1441	0.7899	26.13	0.14	0.750			
0.0947	6061.66	4.1410	4.1410	0.7912	26.13	0.14	0.750			
0.0971	6212.88	4.1380	4.1380	0.7919	26.13	0.14	0.750			
0.0995	6366.31	4.1350	4.1351	0.7876	26.14	0.15	0.750			
0.1018	6515.96	4.1320	4.1321	0.7942	26.14	0.15	0.750			
0.1042	6667.79	4.1290	4.1290	0.7964	26.15	0.16	0.750			
0.1066	6821.61	4.1260	4.1255	0.7992	26.15	0.16	0.750			
0.1090	6975.29	4.1230	4.1231	0.8006	26.15	0.16	0.750			
0.1114	7129.59	4.1200	4.1201	0.8045	26.15	0.16	0.750			
0.1138	7286.22	4.1170	4.1170	0.8071	26.15	0.16	0.750			
0.1163	7440.12	4.1140	4.1140	0.8002	26.15	0.16	0.750			
0.1187	7594.46	4.1110	4.1109	0.7949	26.15	0.16	0.750			
0.1211	7748.43	4.1080	4.1081	0.7905	26.15	0.16	0.750			
0.1234	7899.80	4.1050	4.1051	0.7848	26.15	0.16	0.750			
0.1258	8049.46	4.1020	4.1020	0.7872	26.15	0.16	0.750			
0.1281	8197.71	4.0990	4.0989	0.7927	26.15	0.16	0.750			
0.1304	8347.92	4.0960	4.0959	0.7992	26.15	0.16	0.750			
0.1329	8503.16	4.0930	4.0932	0.8080	26.15	0.16	0.750			
0.1354	8663.86	4.0900	4.0899	0.8155	26.16	0.17	0.750			
0.1378	8820.54	4.0870	4.0870	0.8184	26.16	0.17	0.750			
0.1403	8976.34	4.0840	4.0841	0.8240	26.16	0.17	0.750			
0.1427	9134.20	4.0810	4.0810	0.8295	26.17	0.18	0.750			
0.1452	9293.23	4.0780	4.0780	0.8298	26.17	0.18	0.750			
0.1477	9453.16	4.0750	4.0750	0.8349	26.17	0.18	0.750			
0.1502	9615.17	4.0720	4.0721	0.8390	26.17	0.18	0.750			
0.1528	9779.46	4.0690	4.0690	0.8422	26.18	0.19	0.750			
0.1553	9938.56	4.0660	4.0660	0.8369	26.18	0.19	0.750			
0.1578	10098.64	4.0630	4.0630	0.8400	26.18	0.19	0.750			
0.1603	10261.23	4.0600	4.0599	0.8360	26.18	0.19	0.750			
0.1628	10420.62	4.0570	4.0570	0.8474	26.18	0.19	0.750			
0.1653	10581.90	4.0540	4.0541	0.8568	26.18	0.19	0.750			
0.1680	10749.10	4.0510	4.0509	0.8604	26.18	0.19	0.750			
0.1706	10915.76	4.0480	4.0480	0.8641	26.18	0.19	0.750			
0.1732	11082.70	4.0450	4.0451	0.8622	26.18	0.19	0.750			
0.1757	11247.33	4.0420	4.0421	0.8685	26.19	0.20	0.750			
0.1784	11415.20	4.0390	4.0389	0.8624	26.19	0.20	0.750			
0.1810	11580.81	4.0360	4.0359	0.8656	26.19	0.20	0.750			
0.1835	11746.74	4.0330	4.0332	0.8631	26.19	0.20	0.750			
0.1862	11913.80	4.0300	4.0301	0.8688	26.20	0.21	0.750			
0.1888	12081.05	4.0270	4.0270	0.8703	26.20	0.21	0.750			
0.1913	12246.32	4.0240	4.0240	0.8705	26.21	0.22	0.750			
0.1939	12412.45	4.0210	4.0207	0.8748	26.21	0.22	0.750			
0.1966	12583.96	4.0180	4.0181	0.8810	26.21	0.22	0.750			
0.1993	12753.00	4.0150	4.0150	0.8831	26.21	0.22	0.750			
0.2019	12924.10	4.0120	4.0120	0.8902	26.21	0.22	0.750			
0.2046	13094.31	4.0090	4.0090	0.8917	26.21	0.22	0.750			
0.2073	13264.41	4.0060	4.0061	0.8983	26.21	0.22	0.750			
0.2100	13438.56	4.0030	4.0030	0.8964	26.22	0.23	0.750			
0.2127	13611.53	4.0000	4.0000	0.8999	26.22	0.23	0.750			
0.2154	13784.39	3.9970	3.9972	0.9034	26.22	0.23	0.750			
0.2181	13957.53	3.9940	3.9939	0.9040	26.23	0.24	0.750			
0.2208	14130.93	3.9910	3.9909	0.9053	26.23	0.24	0.750			
0.2235	14303.50	3.9880	3.9880	0.9030	26.24	0.25	0.750			
0.2262	14476.12	3.9850	3.9851	0.9112	26.24	0.25	0.750			
0.2290	14655.43	3.9820	3.9820	0.9182	26.25	0.26	0.750			
0.2317	14829.43	3.9790	3.9788	0.9175	26.25	0.26	0.750			
0.2345	15008.11	3.9760	3.9761	0.9137	26.25	0.26	0.750			
0.2372	15183.74	3.9730	3.9730	0.9191	26.25	0.26	0.750			
0.2400	15360.27	3.9700	3.9700	0.9215	26.26	0.27	0.750			
0.2427	15534.97	3.9670	3.9672	0.9201	26.26	0.27	0.750			
0.2455	15711.74	3.9640	3.9641	0.9239	26.26	0.27	0.750			
0.2483	15891.88	3.9610	3.9610	0.9258	26.26	0.27	0.750			
0.2511	16067.91	3.9580	3.9581	0.9306	26.27	0.28	0.750			
0.2539	16247.94	3.9550	3.9551	0.9395	26.27	0.28	0.750			
0.2567	16426.32	3.9520	3.9517	0.9395	26.27	0.28	0.750			
0.2595	16609.07	3.9490	3.9490	0.9380	26.27	0.28	0.750			
0.2623	16789.63	3.9460	3.9461	0.9399	26.27	0.28	0.750			
0.2652	16971.95	3.9430	3.9431	0.9465	26.27	0.28	0.750			
0.2680	17151.31	3.9400	3.9400	0.9444	26.27	0.28	0.750			
0.2708	17334.38	3.9370	3.9369	0.9452	26.27	0.28	0.750			
0.2737	17515.69	3.9340	3.9341	0.9508	26.28	0.29	0.750			
0.2766	17699.76	3.9310	3.9310	0.9536	26.28	0.29	0.750			
0.2795	17884.98	3.9280	3.9281	0.9628	26.29	0.30	0.750			
0.2823	18068.10	3.9250	3.9251	0.9571	26.29	0.30	0.750			
0.2852	18251.34	3.9220	3.9220	0.9602	26.30	0.31	0.750			
0.2881	18435.57	3.9190	3.9191	0.9644	26.30	0.31	0.750			
0.2910	18622.02	3.9160	3.9160	0.9711	26.31	0.32	0.750			
0.2939	18809.18	3.9130	3.9130	0.9710	26.31	0.32	0.750			
0.2969	18998.79	3.9100	3.9100	0.9662	26.31	0.32	0.750			
0.2997	19182.61	3.9070	3.9071	0.9731	26.31	0.32	0.750			
0.3027	19370.29	3.9040	3.9040	0.9793	26.31	0.32	0.750			
0.3056	19558.27	3.9010	3.9009	0.9780	26.31	0.32	0.750			
0.3086	19747.42	3.8980	3.8981	0.9729	26.31	0.32	0.750			
0.3115	19934.41	3.8950	3.8950	0.9779	26.31	0.32	0.750			
0.3144	20120.34	3.8920	3.8921	0.9907	26.31	0.32	0.750			
0.3173	20309.55	3.8890	3.8890	0.9892	26.31	0.32	0.750			
0.3204	20502.84	3.8860	3.8860	0.9918	26.31	0.32	0.750			
0.3234	20694.85	3.8830	3.8831	1.0045	26.31	0.32	0.750			
0.3264	20890.15	3.8800	3.8801	1.0123	26.31	0.32	0.750			
0.3295	21086.90	3.8770	3.8770	1.0173	26.31	0.32	0.750			
0.3325	21281.14	3.8740	3.8742	1.0106	26.31	0.32	0.750			
0.3355	21472.42	3.8710	3.8710	1.0181	26.31	0.32	0.750			
0.3386	21669.00	3.8680	3.8681	1.0272	26.32	0.33	0.750			
0.3417	21866.70	3.8650	3.8650	1.0353	26.32	0.33	0.750			
0.3448	22068.79	3.8620	3.8620	1.0328	26.32	0.33	0.750			
0.3479	22266.88	3.8590	3.8590	1.0359	26.32	0.33	0.750			
0.3510	22464.89	3.8560	3.8561	1.0448	26.31	0.32	0.750			
0.3541	22664.95	3.8530	3.8530	1.0561	26.31	0.32	0.750			
0.3573	22867.23	3.8500	3.8499	1.0528	26.31	0.32	0.750			
0.3605	23070.79	3.8470	3.8470	1.0730	26.31	0.32	0.750			
0.3637	23277.80	3.8440	3.8441	1.0888	26.30	0.31	0.750			
0.3670	23488.98	3.8410	3.8411	1.1101	26.30	0.31	0.750			
0.3704	23703.10	3.8380	3.8380	1.1163	26.30	0.31	0.750			
0.3737	23918.88	3.8350	3.8351	1.1314	26.29	0.30	0.750			
0.3771	24137.23	3.8320	3.8320	1.1446	26.28	0.29	0.750			
0.3806	24361.43	3.8290	3.8289	1.1531	26.27	0.28	0.750			
0.3841	24581.54	3.8260	3.8261	1.1631	26.27	0.28	0.750			
0.3876	24805.86	3.8230	3.8230	1.1787	26.27	0.28	0.750			
0.3911	25033.23	3.8200	3.8200	1.1907	26.26	0.27	0.750			
0.3947	25263.69	3.8170	3.8171	1.1989	26.26	0.27	0.750			
0.3984	25495.57	3.8140	3.8141	1.2161	26.25	0.26	0.750			
0.4020	25729.21	3.8110	3.8111	1.2374	26.24	0.25	0.750			
0.4058	25971.34	3.8080	3.8076	1.2449	26.23	0.24	0.750			
0.4095	26209.31	3.8050	3.8050	1.2598	26.23	0.24	0.750			
0.4133	26453.81	3.8020	3.8020	1.2790	26.22	0.23	0.750			
0.4172	26700.00	3.7990	3.7992	1.3062	26.21	0.22	0.750			
0.4211	26952.49	3.7960	3.7961	1.3381	26.20	0.21	0.750			
0.4252	27211.57	3.7930	3.7930	1.3522	26.19	0.20	0.750			
0.4294	27483.15	3.7900	3.7898	1.3360	26.18	0.19	0.750			
0.4335	27746.33	3.7870	3.7871	1.3370	26.17	0.18	0.750			
0.4375	27999.29	3.7840	3.7842	1.3145	26.16	0.17	0.750			
0.4413	28244.73	3.7810	3.7811	1.3033	26.15	0.16	0.750			
0.4450	28481.88	3.7780	3.7778	1.2927	26.15	0.16	0.750			
0.4489	28726.50	3.7750	3.7751	1.3181	26.13	0.14	0.750			
0.4529	28984.89	3.7720	3.7720	1.3462	26.12	0.13	0.750			
0.4570	29247.01	3.7690	3.7689	1.3905	26.11	0.12	0.750			
0.4612	29516.73	3.7660	3.7661	1.4172	26.10	0.11	0.750			
0.4655	29791.39	3.7630	3.7631	1.4554	26.10	0.11	0.750			
0.4700	30076.97	3.7600	3.7600	1.4695	26.09	0.10	0.750			
0.4743	30358.26	3.7570	3.7572	1.4999	26.07	0.08	0.750	0.317	0.394	
0.4789	30650.38	3.7540	3.7541	1.5332	26.06	0.07	0.750			
0.4836	30947.65	3.7510	3.7512	1.5780	26.04	0.05	0.750			
0.4884	31254.62	3.7480	3.7478	1.6016	26.02	0.03	0.750			
0.4933	31569.50	3.7450	3.7450	1.6168	26.00	0.01	0.750			
0.4982	31886.48	3.7420	3.7419	1.6601	25.99	-0.00	0.750			
0.5032	32203.56	3.7390	3.7390	1.6913	25.98	-0.01	0.750			
0.5082	32527.16	3.7360	3.7362	1.7274	25.97	-0.02	0.750			
0.5135	32864.38	3.7330	3.7332	1.7815	25.96	-0.03	0.750			
0.5189	33206.75	3.7300	3.7301	1.8293	25.95	-0.04	0.750			
0.5245	33568.47	3.7270	3.7272	1.8914	25.93	-0.06	0.750			
0.5304	33943.83	3.7240	3.7239	1.9470	25.91	-0.08	0.750			
0.5362	34317.18	3.7210	3.7208	1.9869	25.90	-0.09	0.750			
0.5422	34698.95	3.7180	3.7180	2.0253	25.89	-0.10	0.750			
0.5483	35089.15	3.7150	3.7149	2.0969	25.88	-0.11	0.750			
0.5546	35496.00	3.7120	3.7119	2.1805	25.86	-0.13	0.750			
0.5613	35924.24	3.7090	3.7090	2.2520	25.84	-0.15	0.750			
0.5682	36367.97	3.7060	3.7061	2.3460	25.82	-0.17	0.750			
0.5754	36825.14	3.7030	3.7032	2.3777	25.80	-0.19	0.750			
0.5828	37296.54	3.7000	3.7000	2.4403	25.79	-0.20	0.750			
0.5901	37768.76	3.6970	3.6971	2.4945	25.78	-0.21	0.750			
0.5976	38248.28	3.6940	3.6940	2.5447	25.76	-0.23	0.750			
0.6053	38736.85	3.6910	3.6910	2.6350	25.73	-0.26	0.750			
0.6133	39251.93	3.6880	3.6880	2.7180	25.72	-0.27	0.750			
0.6217	39789.50	3.6850	3.6849	2.8261	25.71	-0.28	0.750			
0.6303	40336.14	3.6820	3.6821	2.9261	25.69	-0.30	0.750			
0.6393	40917.52	3.6790	3.6790	3.0362	25.68	-0.31	0.750			
0.6485	41505.08	3.6760	3.6760	3.0979	25.67	-0.32	0.750			
0.6579	42105.90	3.6730	3.6730	3.2216	25.66	-0.33	0.750			
0.6678	42741.53	3.6700	3.6699	3.3128	25.64	-0.35	0.750			
0.6779	43384.67	3.6670	3.6670	3.3088	25.63	-0.36	0.750			
0.6881	44036.72	3.6640	3.6641	3.2868	25.62	-0.37	0.750			
0.6979	44668.67	3.6610	3.6609	3.0961	25.62	-0.37	0.750			
0.7071	45254.62	3.6580	3.6581	2.8241	25.62	-0.37	0.750			
0.7150	45759.19	3.6550	3.6550	2.5292	25.62	-0.37	0.750			
0.7220	46208.70	3.6520	3.6522	2.2480	25.62	-0.37	0.750			
0.7281	46595.68	3.6490	3.6490	1.9998	25.63	-0.36	0.750			
0.7335	46945.78	3.6460	3.6460	1.7959	25.64	-0.35	0.750			
0.7386	47269.97	3.6430	3.6434	1.6397	25.64	-0.35	0.750			
0.7434	47575.52	3.6400	3.6398	1.5067	25.64	-0.35	0.750			
0.7475	47839.18	3.6370	3.6371	1.4065	25.65	-0.34	0.750			
0.7514	48090.97	3.6340	3.6340	1.3193	25.65	-0.34	0.750			
0.7551	48327.69	3.6310	3.6309	1.2536	25.66	-0.33	0.750			
0.7588	48562.51	3.6280	3.6281	1.2289	25.66	-0.33	0.750			
0.7623	48790.16	3.6250	3.6251	1.2150	25.66	-0.33	0.750			
0.7660	49021.61	3.6220	3.6221	1.2249	25.66	-0.33	0.750			
0.7696	49255.81	3.6190	3.6189	1.2160	25.66	-0.33	0.750			
0.7733	49490.26	3.6160	3.6160	1.2272	25.66	-0.33	0.750			
0.7770	49729.57	3.6130	3.6130	1.2380	25.66	-0.33	0.750			
0.7808	49972.03	3.6100	3.6098	1.2303	25.66	-0.33	0.750			
0.7845	50209.01	3.6070	3.6071	1.2163	25.66	-0.33	0.750			
0.7881	50440.51	3.6040	3.6041	1.2016	25.67	-0.32	0.750			
0.7917	50667.72	3.6010	3.6011	1.1854	25.67	-0.32	0.750			
0.7952	50891.88	3.5980	3.5980	1.1777	25.67	-0.32	0.750			
0.7986	51113.56	3.5950	3.5950	1.1805	25.67	-0.32	0.750			
0.8022	51338.64	3.5920	3.5920	1.2056	25.67	-0.32	0.750			
0.8058	51572.34	3.5890	3.5889	1.2319	25.67	-0.32	0.750			
0.8095	51809.35	3.5860	3.5861	1.2659	25.67	-0.32	0.750			
0.8134	52056.45	3.5830	3.5831	1.3017	25.68	-0.31	0.750			
0.8174	52315.48	3.5800	3.5799	1.3240	25.68	-0.31	0.750			
0.8214	52569.64	3.5770	3.5770	1.3716	25.68	-0.31	0.750			
0.8255	52833.65	3.5740	3.5741	1.3979	25.69	-0.30	0.750			
0.8298	53105.15	3.5710	3.5710	1.4301	25.69	-0.30	0.750			
0.8341	53384.19	3.5680	3.5683	1.4728	25.69	-0.30	0.750			
0.8386	53669.44	3.5650	3.5645	1.5088	25.69	-0.30	0.750			
0.8432	53964.33	3.5620	3.5620	1.5474	25.69	-0.30	0.750			
0.8480	54271.72	3.5590	3.5592	1.5727	25.69	-0.30	0.750			
0.8527	54572.98	3.5560	3.5561	1.6003	25.69	-0.30	0.750			
0.8574	54875.91	3.5530	3.5528	1.6010	25.69	-0.30	0.750			
0.8623	55190.19	3.5500	3.5502	1.6148	25.69	-0.30	0.750			
0.8672	55503.36	3.5470	3.5469	1.6419	25.70	-0.29	0.750			
0.8722	55821.75	3.5440	3.5439	1.6324	25.70	-0.29	0.750			
0.8771	56136.22	3.5410	3.5413	1.6491	25.70	-0.29	0.750			
0.8821	56456.08	3.5380	3.5381	1.6899	25.70	-0.29	0.750			
0.8872	56781.92	3.5350	3.5347	1.7481	25.71	-0.28	0.750			
0.8926	57127.04	3.5320	3.5319	1.7116	25.72	-0.27	0.750			
0.8981	57477.67	3.5290	3.5288	1.6438	25.73	-0.26	0.750			
0.9033	57810.23	3.5260	3.5265	1.4311	25.75	-0.24	0.750			
0.9079	58103.06	3.5230	3.5235	1.2205	25.77	-0.22	0.750			
0.9111	58307.97	3.5200	3.5199	0.9686	25.78	-0.21	0.750			
0.9131	58438.48	3.5170	3.5164	0.6884	25.79	-0.20	0.750			
0.9143	58516.27	3.5140	3.5138	0.5100	25.80	-0.19	0.750			
0.9155	58592.19	3.5110	3.5108	0.4160	25.80	-0.19	0.750			
0.9165	58658.14	3.5080	3.5080	0.3676	25.81	-0.18	0.750			
0.9176	58724.50	3.5050	3.5049	0.3431	25.81	-0.18	0.750			
0.9185	58785.56	3.5020	3.5020	0.3216	25.82	-0.17	0.750			
0.9195	58846.09	3.4990	3.4990	0.3089	25.82	-0.17	0.750			
0.9204	58903.86	3.4960	3.4961	0.2970	25.83	-0.16	0.750			
0.9212	58959.25	3.4930	3.4930	0.2876	25.84	-0.15	0.750			
0.9221	59012.96	3.4900	3.4900	0.2813	25.84	-0.15	0.750			
0.9229	59065.76	3.4870	3.4870	0.2748	25.85	-0.14	0.750			
0.9237	59117.62	3.4840	3.4839	0.2695	25.85	-0.14	0.750			
0.9245	59169.64	3.4810	3.4811	0.2648	25.86	-0.13	0.750			
0.9253	59220.05	3.4780	3.4781	0.2606	25.87	-0.12	0.750			
0.9261	59269.60	3.4750	3.4750	0.2556	25.87	-0.12	0.750			
0.9268	59318.13	3.4720	3.4720	0.2489	25.88	-0.11	0.750			
0.9276	59364.73	3.4690	3.4689	0.2435	25.88	-0.11	0.750			
0.9283	59411.19	3.4660	3.4661	0.2395	25.89	-0.10	0.750			
0.9290	59456.95	3.4630	3.4630	0.2355	25.89	-0.10	0.750			
0.9297	59501.82	3.4600	3.4599	0.2305	25.90	-0.09	0.750			
0.9304	59545.74	3.4570	3.4570	0.2261	25.90	-0.09	0.750			
0.9311	59588.32	3.4540	3.4541	0.2210	25.91	-0.08	0.750			
0.9317	59630.36	3.4510	3.4509	0.2173	25.91	-0.08	0.750			
0.9324	59671.95	3.4480	3.4481	0.2134	25.92	-0.07	0.750			
0.9330	59711.80	3.4450	3.4450	0.2086	25.92	-0.07	0.750			
0.9336	59751.88	3.4420	3.4420	0.2052	25.92	-0.07	0.750			
0.9342	59790.99	3.4390	3.4390	0.2018	25.93	-0.06	0.750			
0.9348	59829.35	3.4360	3.4361	0.1978	25.93	-0.06	0.750			
0.9354	59867.03	3.4330	3.4330	0.1936	25.94	-0.05	0.750			
0.9360	59903.82	3.4300	3.4300	0.1897	25.94	-0.05	0.750			
0.9366	59939.72	3.4270	3.4270	0.1853	25.94	-0.05	0.750			
0.9371	59975.04	3.4240	3.4240	0.1804	25.95	-0.04	0.750			
0.9376	60009.22	3.4210	3.4210	0.1761	25.95	-0.04	0.750			
0.9382	60042.70	3.4180	3.4182	0.1720	25.95	-0.04	0.750			
0.9387	60075.09	3.4150	3.4150	0.1671	25.96	-0.03	0.750			
0.9392	60106.89	3.4120	3.4119	0.1621	25.96	-0.03	0.750			
0.9397	60137.64	3.4090	3.4090	0.1575	25.96	-0.03	0.750			
0.9401	60167.39	3.4060	3.4060	0.1526	25.97	-0.02	0.750			
0.9406	60196.23	3.4030	3.4031	0.1478	25.97	-0.02	0.750			
0.9410	60224.22	3.4000	3.3999	0.1436	25.97	-0.02	0.750			
0.9414	60251.05	3.3970	3.3971	0.1386	25.97	-0.02	0.750			
0.9418	60277.48	3.3940	3.3941	0.1329	25.98	-0.01	0.750			
0.9422	60302.61	3.3910	3.3909	0.1273	25.98	-0.01	0.750			
0.9426	60326.85	3.3880	3.3881	0.1221	25.98	-0.01	0.750			
0.9430	60349.91	3.3850	3.3851	0.1159	25.98	-0.01	0.750			
0.9433	60371.54	3.3820	3.3819	0.1094	25.99	-0.00	0.750			
0.9436	60392.11	3.3790	3.3789	0.1030	25.99	-0.00	0.750			
0.9439	60412.07	3.3760	3.3756	0.0941	25.99	0.00	0.750			
0.9442	60429.26	3.3730	3.3730	0.0851	25.99	0.00	0.750			
0.9445	60445.61	3.3700	3.3702	0.0776	25.99	0.00	0.750			
0.9447	60459.55	3.3670	3.3673	0.0676	25.99	0.00	0.750			
0.9449	60472.10	3.3640	3.3644	0.0577	26.00	0.01	0.750			
0.9450	60482.15	3.3610	3.3616	0.0470	26.00	0.01	0.750			
0.9452	60490.15	3.3580	3.3589	0.0363	26.00	0.01	0.750			
0.9453	60496.10	3.3550	3.3563	0.0257	26.00	0.01	0.750			
