Ah_balance (normalized)	Ah_balance (mAh)	Voltage - fit (V)	Voltage -  interpolate (V)	dQ/dV (1/V)	Temperature (°C)	Temperature - diff (°C)	Current (C)	R_DC 0ms (mOhm)	R_DC 50ms (mOhm)	R_DC 50 ms PEC (mOhm)
0.0002	15.57	4.1600	4.1598	-0.1034	26.00	0.01	-0.750			
0.0006	39.88	4.1570	4.1568	-0.1460	25.99	0.00	-0.750			
0.0011	72.97	4.1540	4.1538	-0.1848	25.99	0.00	-0.750			
0.0017	111.05	4.1510	4.1510	-0.2217	25.99	0.00	-0.750			
0.0025	157.69	4.1480	4.1480	-0.2573	25.99	-0.00	-0.750			
0.0033	211.15	4.1450	4.1450	-0.2939	25.99	-0.00	-0.750			
0.0042	270.89	4.1420	4.1419	-0.3276	25.98	-0.01	-0.750			
0.0053	336.81	4.1390	4.1391	-0.3614	25.98	-0.01	-0.750			
0.0064	410.54	4.1360	4.1359	-0.3933	25.98	-0.01	-0.750			
0.0077	489.99	4.1330	4.1330	-0.4215	25.97	-0.02	-0.750			
0.0090	573.87	4.1300	4.1300	-0.4474	25.97	-0.02	-0.750			
0.0104	663.71	4.1270	4.1270	-0.4701	25.96	-0.03	-0.750			
0.0118	756.78	4.1240	4.1240	-0.4901	25.96	-0.03	-0.750			
0.0133	852.30	4.1210	4.1210	-0.5091	25.95	-0.04	-0.750			
0.0149	951.63	4.1180	4.1180	-0.5257	25.95	-0.04	-0.750			
0.0165	1054.42	4.1150	4.1150	-0.5446	25.95	-0.04	-0.750			
0.0182	1161.79	4.1120	4.1120	-0.5582	25.94	-0.05	-0.750			
0.0198	1269.85	4.1090	4.1090	-0.5720	25.94	-0.05	-0.750			
0.0216	1382.42	4.1060	4.1060	-0.5897	25.94	-0.05	-0.750			
0.0234	1497.25	4.1030	4.1029	-0.5982	25.94	-0.05	-0.750			
0.0252	1613.38	4.1000	4.0999	-0.6062	25.93	-0.06	-0.750			
0.0271	1731.44	4.0970	4.0972	-0.6135	25.93	-0.06	-0.750			
0.0289	1849.77	4.0940	4.0940	-0.6217	25.93	-0.06	-0.750			
0.0308	1970.27	4.0910	4.0910	-0.6283	25.92	-0.07	-0.750			
0.0326	2088.46	4.0880	4.0880	-0.6378	25.92	-0.07	-0.750			
0.0346	2214.03	4.0850	4.0849	-0.6445	25.92	-0.07	-0.750			
0.0365	2339.16	4.0820	4.0819	-0.6487	25.91	-0.08	-0.750			
0.0385	2464.79	4.0790	4.0790	-0.6544	25.91	-0.08	-0.750			
0.0405	2590.72	4.0760	4.0761	-0.6568	25.91	-0.08	-0.750			
0.0424	2716.35	4.0730	4.0729	-0.6591	25.91	-0.08	-0.750			
0.0444	2843.62	4.0700	4.0699	-0.6620	25.91	-0.08	-0.750			
0.0464	2968.56	4.0670	4.0671	-0.6666	25.90	-0.09	-0.750			
0.0484	3099.87	4.0640	4.0640	-0.6736	25.90	-0.09	-0.750			
0.0505	3230.32	4.0610	4.0609	-0.6768	25.90	-0.09	-0.750			
0.0525	3360.16	4.0580	4.0581	-0.6793	25.90	-0.09	-0.750			
0.0545	3490.62	4.0550	4.0549	-0.6833	25.90	-0.09	-0.750			
0.0566	3621.59	4.0520	4.0520	-0.6893	25.90	-0.09	-0.750			
0.0587	3754.02	4.0490	4.0490	-0.6940	25.91	-0.08	-0.750			
0.0608	3889.07	4.0460	4.0460	-0.6959	25.91	-0.08	-0.750			
0.0629	4023.47	4.0430	4.0430	-0.6984	25.91	-0.08	-0.750			
0.0650	4157.47	4.0400	4.0402	-0.6989	25.91	-0.08	-0.750			
0.0671	4291.93	4.0370	4.0370	-0.6967	25.91	-0.08	-0.750			
0.0691	4422.40	4.0340	4.0340	-0.7075	25.91	-0.08	-0.750			
0.0713	4560.16	4.0310	4.0309	-0.7065	25.92	-0.07	-0.750			
0.0734	4696.78	4.0280	4.0279	-0.7106	25.92	-0.07	-0.750			
0.0755	4834.35	4.0250	4.0249	-0.7113	25.92	-0.07	-0.750			
0.0777	4972.42	4.0220	4.0220	-0.7090	25.92	-0.07	-0.750			
0.0798	5107.90	4.0190	4.0190	-0.7128	25.92	-0.07	-0.750			
0.0819	5243.64	4.0160	4.0159	-0.7117	25.92	-0.07	-0.750			
0.0840	5376.88	4.0130	4.0131	-0.7090	25.93	-0.06	-0.750			
0.0862	5517.40	4.0100	4.0100	-0.7221	25.93	-0.06	-0.750			
0.0884	5655.75	4.0070	4.0070	-0.7236	25.93	-0.06	-0.750			
0.0906	5795.79	4.0040	4.0040	-0.7266	25.93	-0.06	-0.750			
0.0928	5936.02	4.0010	4.0010	-0.7287	25.93	-0.06	-0.750			
0.0949	6074.91	3.9980	3.9980	-0.7281	25.93	-0.06	-0.750			
0.0971	6215.54	3.9950	3.9950	-0.7312	25.93	-0.06	-0.750			
0.0993	6355.61	3.9920	3.9919	-0.7325	25.93	-0.06	-0.750			
0.1015	6497.04	3.9890	3.9891	-0.7339	25.93	-0.06	-0.750			
0.1037	6637.87	3.9860	3.9859	-0.7360	25.93	-0.06	-0.750			
0.1059	6779.93	3.9830	3.9830	-0.7354	25.94	-0.05	-0.750			
0.1081	6920.65	3.9800	3.9800	-0.7391	25.94	-0.05	-0.750			
0.1103	7062.19	3.9770	3.9770	-0.7382	25.94	-0.05	-0.750			
0.1126	7205.03	3.9740	3.9740	-0.7417	25.95	-0.04	-0.750			
0.1148	7347.44	3.9710	3.9711	-0.7456	25.95	-0.04	-0.750			
0.1170	7490.92	3.9680	3.9680	-0.7502	25.95	-0.04	-0.750			
0.1193	7634.98	3.9650	3.9649	-0.7521	25.96	-0.03	-0.750			
0.1216	7780.20	3.9620	3.9620	-0.7522	25.96	-0.03	-0.750			
0.1238	7924.61	3.9590	3.9590	-0.7539	25.96	-0.03	-0.750			
0.1261	8069.33	3.9560	3.9560	-0.7557	25.97	-0.02	-0.750			
0.1283	8214.24	3.9530	3.9528	-0.7545	25.97	-0.02	-0.750			
0.1306	8358.32	3.9500	3.9500	-0.7590	25.98	-0.01	-0.750			
0.1329	8504.72	3.9470	3.9470	-0.7603	25.98	-0.01	-0.750			
0.1352	8651.54	3.9440	3.9440	-0.7632	25.98	-0.01	-0.750			
0.1375	8799.50	3.9410	3.9410	-0.7664	25.99	-0.00	-0.750			
0.1398	8945.18	3.9380	3.9381	-0.7684	25.99	0.00	-0.750			
0.1421	9093.56	3.9350	3.9350	-0.7691	25.99	0.00	-0.750			
0.1444	9241.88	3.9320	3.9320	-0.7713	25.99	0.00	-0.750			
0.1467	9389.47	3.9290	3.9290	-0.7709	26.00	0.01	-0.750			
0.1490	9539.01	3.9260	3.9261	-0.7747	26.00	0.01	-0.750			
0.1514	9686.97	3.9230	3.9230	-0.7746	26.00	0.01	-0.750			
0.1537	9835.58	3.9200	3.9199	-0.7776	26.00	0.01	-0.750			
0.1560	9984.64	3.9170	3.9170	-0.7804	26.00	0.01	-0.750			
0.1584	10134.93	3.9140	3.9139	-0.7836	26.01	0.02	-0.750			
0.1607	10285.26	3.9110	3.9111	-0.7842	26.01	0.02	-0.750			
0.1631	10437.69	3.9080	3.9079	-0.7860	26.01	0.02	-0.750			
0.1654	10587.83	3.9050	3.9050	-0.7889	26.01	0.02	-0.750			
0.1678	10738.57	3.9020	3.9020	-0.7907	26.02	0.03	-0.750			
0.1702	10889.90	3.8990	3.8990	-0.7973	26.02	0.03	-0.750			
0.1726	11044.05	3.8960	3.8959	-0.8015	26.02	0.03	-0.750			
0.1750	11199.08	3.8930	3.8930	-0.8073	26.03	0.04	-0.750			
0.1774	11356.20	3.8900	3.8900	-0.8099	26.03	0.04	-0.750			
0.1799	11512.88	3.8870	3.8870	-0.8059	26.03	0.04	-0.750			
0.1823	11667.81	3.8840	3.8840	-0.8031	26.04	0.05	-0.750			
0.1847	11821.18	3.8810	3.8810	-0.8012	26.04	0.05	-0.750			
0.1871	11973.44	3.8780	3.8780	-0.7952	26.05	0.06	-0.750			
0.1895	12125.38	3.8750	3.8752	-0.7966	26.05	0.06	-0.750			
0.1918	12277.30	3.8720	3.8719	-0.7962	26.05	0.06	-0.750			
0.1942	12430.99	3.8690	3.8691	-0.7976	26.06	0.07	-0.750			
0.1966	12584.85	3.8660	3.8660	-0.8006	26.06	0.07	-0.750			
0.1990	12739.17	3.8630	3.8631	-0.8032	26.07	0.08	-0.750			
0.2015	12893.39	3.8600	3.8600	-0.7992	26.07	0.08	-0.750			
0.2039	13047.75	3.8570	3.8569	-0.7974	26.07	0.08	-0.750			
0.2062	13199.09	3.8540	3.8540	-0.7989	26.08	0.09	-0.750			
0.2086	13352.35	3.8510	3.8511	-0.7982	26.08	0.09	-0.750			
0.2110	13505.92	3.8480	3.8480	-0.7975	26.08	0.09	-0.750			
0.2134	13658.82	3.8450	3.8449	-0.7989	26.09	0.10	-0.750			
0.2158	13813.18	3.8420	3.8419	-0.7977	26.09	0.10	-0.750			
0.2182	13965.33	3.8390	3.8390	-0.8023	26.09	0.10	-0.750			
0.2206	14119.70	3.8360	3.8360	-0.7987	26.09	0.10	-0.750			
0.2230	14271.85	3.8330	3.8330	-0.7942	26.10	0.11	-0.750			
0.2254	14427.16	3.8300	3.8299	-0.7978	26.10	0.11	-0.750			
0.2278	14580.33	3.8270	3.8271	-0.7946	26.10	0.11	-0.750			
0.2302	14731.51	3.8240	3.8240	-0.7937	26.10	0.11	-0.750			
0.2326	14884.66	3.8210	3.8210	-0.7919	26.10	0.11	-0.750			
0.2349	15035.65	3.8180	3.8180	-0.7809	26.11	0.12	-0.750			
0.2373	15187.16	3.8150	3.8150	-0.7791	26.11	0.12	-0.750			
0.2396	15335.98	3.8120	3.8121	-0.7719	26.11	0.12	-0.750			
0.2419	15482.68	3.8090	3.8089	-0.7662	26.11	0.12	-0.750			
0.2442	15627.30	3.8060	3.8060	-0.7653	26.12	0.13	-0.750			
0.2465	15773.97	3.8030	3.8030	-0.7630	26.12	0.13	-0.750			
0.2488	15921.44	3.8000	3.7999	-0.7658	26.12	0.13	-0.750			
0.2511	16069.54	3.7970	3.7970	-0.7661	26.13	0.14	-0.750			
0.2534	16218.12	3.7940	3.7940	-0.7601	26.13	0.14	-0.750			
0.2557	16363.34	3.7910	3.7910	-0.7542	26.14	0.15	-0.750			
0.2579	16505.60	3.7880	3.7881	-0.7512	26.14	0.15	-0.750			
0.2601	16649.40	3.7850	3.7850	-0.7470	26.14	0.15	-0.750			
0.2624	16793.73	3.7820	3.7818	-0.7465	26.15	0.16	-0.750			
0.2646	16936.46	3.7790	3.7792	-0.7406	26.15	0.16	-0.750			
0.2669	17078.85	3.7760	3.7761	-0.7405	26.15	0.16	-0.750			
0.2691	17220.97	3.7730	3.7730	-0.7399	26.16	0.17	-0.750			
0.2713	17362.84	3.7700	3.7699	-0.7339	26.16	0.17	-0.750			
0.2735	17501.79	3.7670	3.7670	-0.7303	26.16	0.17	-0.750			
0.2757	17642.17	3.7640	3.7640	-0.7308	26.17	0.18	-0.750			
0.2778	17782.28	3.7610	3.7610	-0.7319	26.17	0.18	-0.750			
0.2800	17921.72	3.7580	3.7579	-0.7369	26.17	0.18	-0.750			
0.2822	18061.46	3.7550	3.7551	-0.7413	26.17	0.18	-0.750			
0.2845	18205.48	3.7520	3.7519	-0.7490	26.17	0.18	-0.750			
0.2867	18351.21	3.7490	3.7490	-0.7556	26.17	0.18	-0.750			
0.2890	18497.98	3.7460	3.7460	-0.7578	26.17	0.18	-0.750			
0.2913	18642.97	3.7430	3.7430	-0.7643	26.17	0.18	-0.750			
0.2936	18788.68	3.7400	3.7400	-0.7706	26.18	0.19	-0.750			
0.2959	18936.74	3.7370	3.7370	-0.7775	26.18	0.19	-0.750			
0.2982	19086.08	3.7340	3.7340	-0.7868	26.18	0.19	-0.750			
0.3006	19239.15	3.7310	3.7311	-0.8022	26.19	0.20	-0.750			
0.3030	19394.19	3.7280	3.7280	-0.8146	26.19	0.20	-0.750			
0.3055	19551.75	3.7250	3.7250	-0.8302	26.19	0.20	-0.750			
0.3080	19711.98	3.7220	3.7220	-0.8389	26.19	0.20	-0.750			
0.3105	19874.25	3.7190	3.7190	-0.8501	26.19	0.20	-0.750			
0.3131	20039.14	3.7160	3.7160	-0.8668	26.19	0.20	-0.750			
0.3157	20206.26	3.7130	3.7130	-0.8806	26.19	0.20	-0.750			
0.3184	20376.38	3.7100	3.7100	-0.8969	26.19	0.20	-0.750			
0.3211	20549.40	3.7070	3.7070	-0.9140	26.19	0.20	-0.750			
0.3239	20726.91	3.7040	3.7040	-0.9285	26.19	0.20	-0.750			
0.3267	20908.14	3.7010	3.7011	-0.9488	26.19	0.20	-0.750			
0.3296	21092.07	3.6980	3.6980	-0.9645	26.19	0.20	-0.750			
0.3325	21277.89	3.6950	3.6950	-0.9784	26.19	0.20	-0.750			
0.3354	21466.69	3.6920	3.6920	-0.9930	26.19	0.20	-0.750			
0.3384	21658.15	3.6890	3.6888	-1.0120	26.19	0.20	-0.750			
0.3415	21855.84	3.6860	3.6859	-1.0266	26.19	0.20	-0.750			
0.3446	22054.33	3.6830	3.6830	-1.0453	26.18	0.19	-0.750			
0.3477	22255.07	3.6800	3.6800	-1.0652	26.18	0.19	-0.750			
0.3509	22459.62	3.6770	3.6770	-1.0839	26.17	0.18	-0.750			
0.3543	22672.66	3.6740	3.6739	-1.1139	26.17	0.18	-0.750			
0.3577	22890.38	3.6710	3.6710	-1.1340	26.16	0.17	-0.750			
0.3611	23111.06	3.6680	3.6680	-1.1520	26.16	0.17	-0.750			
0.3646	23334.25	3.6650	3.6652	-1.1832	26.15	0.16	-0.750			
0.3682	23562.49	3.6620	3.6619	-1.2023	26.14	0.15	-0.750			
0.3718	23794.52	3.6590	3.6589	-1.2282	26.14	0.15	-0.750			
0.3755	24031.08	3.6560	3.6559	-1.2558	26.13	0.14	-0.750			
0.3794	24279.14	3.6530	3.6529	-1.2819	26.13	0.14	-0.750			
0.3832	24527.21	3.6500	3.6500	-1.3041	26.12	0.13	-0.750			
0.3872	24778.13	3.6470	3.6471	-1.3289	26.11	0.12	-0.750			
0.3912	25036.02	3.6440	3.6440	-1.3496	26.11	0.12	-0.750			
0.3953	25296.21	3.6410	3.6409	-1.3665	26.10	0.11	-0.750			
0.3994	25558.51	3.6380	3.6380	-1.3948	26.09	0.10	-0.750			
0.4035	25825.58	3.6350	3.6350	-1.4273	26.09	0.10	-0.750			
0.4079	26105.82	3.6320	3.6320	-1.4597	26.08	0.09	-0.750			
0.4123	26389.00	3.6290	3.6289	-1.4805	26.07	0.08	-0.750			
0.4168	26673.78	3.6260	3.6260	-1.5152	26.07	0.08	-0.750			
0.4215	26974.79	3.6230	3.6231	-1.5533	26.06	0.07	-0.750			
0.4262	27276.63	3.6200	3.6198	-1.5709	26.05	0.06	-0.750			
0.4309	27575.87	3.6170	3.6170	-1.5974	26.04	0.05	-0.750			
0.4357	27886.99	3.6140	3.6140	-1.6222	26.04	0.05	-0.750	0.395	0.533	
0.4406	28201.13	3.6110	3.6109	-1.6534	26.03	0.04	-0.750			
0.4456	28517.41	3.6080	3.6077	-1.6869	26.03	0.04	-0.750			
0.4507	28843.14	3.6050	3.6050	-1.7179	26.02	0.03	-0.750			
0.4560	29182.83	3.6020	3.6019	-1.7776	26.02	0.03	-0.750			
0.4614	29529.81	3.5990	3.5991	-1.8001	26.01	0.02	-0.750			
0.4667	29870.17	3.5960	3.5962	-1.8310	26.01	0.02	-0.750			
0.4724	30230.71	3.5930	3.5929	-1.8723	26.00	0.01	-0.750			
0.4780	30591.98	3.5900	3.5901	-1.9102	25.99	-0.00	-0.750			
0.4838	30964.89	3.5870	3.5870	-1.9433	25.98	-0.01	-0.750			
0.4897	31339.57	3.5840	3.5841	-1.9846	25.98	-0.01	-0.750			
0.4957	31725.71	3.5810	3.5808	-2.0175	25.97	-0.02	-0.750			
0.5019	32120.83	3.5780	3.5779	-2.0475	25.97	-0.02	-0.750			
0.5081	32515.99	3.5750	3.5751	-2.0636	25.97	-0.02	-0.750			
0.5143	32915.98	3.5720	3.5718	-2.1081	25.97	-0.02	-0.750			
0.5206	33321.55	3.5690	3.5689	-2.1175	25.97	-0.02	-0.750			
0.5271	33735.22	3.5660	3.5662	-2.1447	25.96	-0.03	-0.750			
0.5336	34149.84	3.5630	3.5632	-2.1490	25.95	-0.04	-0.750			
0.5400	34560.59	3.5600	3.5599	-2.1570	25.95	-0.04	-0.750			
0.5465	34978.73	3.5570	3.5571	-2.1677	25.96	-0.03	-0.750			
0.5531	35397.76	3.5540	3.5539	-2.1753	25.96	-0.03	-0.750			
0.5596	35812.69	3.5510	3.5511	-2.1719	25.97	-0.02	-0.750			
0.5662	36233.82	3.5480	3.5480	-2.1619	25.97	-0.02	-0.750			
0.5727	36653.09	3.5450	3.5450	-2.1569	25.97	-0.02	-0.750			
0.5791	37060.62	3.5420	3.5420	-2.1250	25.97	-0.02	-0.750			
0.5855	37469.23	3.5390	3.5390	-2.1026	25.97	-0.02	-0.750			
0.5917	37870.33	3.5360	3.5360	-2.0792	25.97	-0.02	-0.750			
0.5979	38267.72	3.5330	3.5329	-2.0430	25.98	-0.01	-0.750			
0.6040	38657.82	3.5300	3.5301	-2.0093	25.99	0.00	-0.750			
0.6100	39042.17	3.5270	3.5270	-1.9790	25.99	0.00	-0.750			
0.6159	39415.50	3.5240	3.5240	-1.9482	25.99	0.00	-0.750			
0.6217	39787.18	3.5210	3.5210	-1.8931	26.00	0.01	-0.750			
0.6274	40150.90	3.5180	3.5180	-1.8610	26.01	0.02	-0.750			
0.6329	40503.41	3.5150	3.5149	-1.8193	26.02	0.03	-0.750			
0.6384	40854.90	3.5120	3.5118	-1.7714	26.03	0.04	-0.750			
0.6436	41189.20	3.5090	3.5090	-1.7170	26.04	0.05	-0.750			
0.6486	41511.38	3.5060	3.5059	-1.6621	26.04	0.05	-0.750			
0.6535	41822.38	3.5030	3.5031	-1.6010	26.05	0.06	-0.750			
0.6583	42129.30	3.5000	3.4998	-1.5719	26.07	0.08	-0.750			
0.6628	42419.24	3.4970	3.4969	-1.5181	26.08	0.09	-0.750			
0.6674	42710.50	3.4940	3.4940	-1.4806	26.10	0.11	-0.750			
0.6717	42991.81	3.4910	3.4909	-1.4395	26.11	0.12	-0.750			
0.6760	43264.12	3.4880	3.4880	-1.3958	26.13	0.14	-0.750			
0.6801	43528.22	3.4850	3.4849	-1.3461	26.15	0.16	-0.750			
0.6841	43785.09	3.4820	3.4819	-1.3050	26.16	0.17	-0.750			
0.6879	44027.01	3.4790	3.4791	-1.2626	26.18	0.19	-0.750			
0.6916	44263.54	3.4760	3.4760	-1.2313	26.20	0.21	-0.750			
0.6954	44502.59	3.4730	3.4729	-1.1950	26.21	0.22	-0.750			
0.6989	44727.99	3.4700	3.4699	-1.1505	26.22	0.23	-0.750			
0.7023	44944.38	3.4670	3.4673	-1.1135	26.23	0.24	-0.750			
0.7056	45155.92	3.4640	3.4639	-1.0726	26.25	0.26	-0.750			
0.7087	45355.57	3.4610	3.4609	-1.0311	26.26	0.27	-0.750			
0.7117	45547.29	3.4580	3.4580	-0.9926	26.28	0.29	-0.750			
0.7146	45733.17	3.4550	3.4553	-0.9688	26.29	0.30	-0.750			
0.7174	45915.78	3.4520	3.4520	-0.9486	26.30	0.31	-0.750			
0.7202	46094.60	3.4490	3.4490	-0.9241	26.31	0.32	-0.750			
0.7230	46269.92	3.4460	3.4460	-0.9021	26.32	0.33	-0.750			
0.7257	46441.98	3.4430	3.4430	-0.8869	26.33	0.34	-0.750			
0.7283	46609.93	3.4400	3.4401	-0.8688	26.34	0.35	-0.750			
0.7308	46771.61	3.4370	3.4370	-0.8666	26.35	0.36	-0.750			
0.7334	46936.09	3.4340	3.4339	-0.8608	26.36	0.37	-0.750			
0.7359	47098.44	3.4310	3.4309	-0.8620	26.37	0.38	-0.750			
0.7385	47266.00	3.4280	3.4279	-0.8710	26.38	0.39	-0.750			
0.7412	47433.92	3.4250	3.4251	-0.8842	26.39	0.40	-0.750			
0.7438	47604.91	3.4220	3.4219	-0.8912	26.40	0.41	-0.750			
0.7465	47775.29	3.4190	3.4191	-0.9030	26.41	0.42	-0.750			
0.7492	47949.12	3.4160	3.4159	-0.9041	26.42	0.43	-0.750			
0.7520	48128.15	3.4130	3.4133	-0.9192	26.43	0.44	-0.750			
0.7548	48304.81	3.4100	3.4100	-0.9208	26.44	0.45	-0.750			
0.7576	48485.23	3.4070	3.4071	-0.9206	26.44	0.45	-0.750			
0.7603	48660.96	3.4040	3.4040	-0.9119	26.45	0.46	-0.750			
0.7631	48836.61	3.4010	3.4009	-0.9044	26.46	0.47	-0.750			
0.7658	49008.83	3.3980	3.3981	-0.8863	26.46	0.47	-0.750			
0.7685	49180.99	3.3950	3.3948	-0.8695	26.47	0.48	-0.750			
0.7710	49343.93	3.3920	3.3921	-0.8396	26.48	0.49	-0.750			
0.7735	49503.63	3.3890	3.3890	-0.8135	26.49	0.50	-0.750			
0.7759	49657.30	3.3860	3.3860	-0.7847	26.50	0.51	-0.750			
0.7782	49804.60	3.3830	3.3829	-0.7554	26.50	0.51	-0.750			
0.7804	49946.79	3.3800	3.3801	-0.7283	26.51	0.52	-0.750			
0.7826	50084.32	3.3770	3.3769	-0.7075	26.52	0.53	-0.750			
0.7847	50218.28	3.3740	3.3740	-0.6840	26.52	0.53	-0.750			
0.7867	50347.51	3.3710	3.3709	-0.6597	26.53	0.54	-0.750			
0.7886	50471.43	3.3680	3.3680	-0.6382	26.54	0.55	-0.750			
0.7905	50591.92	3.3650	3.3649	-0.6175	26.54	0.55	-0.750			
0.7923	50707.99	3.3620	3.3619	-0.5928	26.55	0.56	-0.750			
0.7941	50819.63	3.3590	3.3590	-0.5714	26.56	0.57	-0.750			
0.7957	50925.38	3.3560	3.3561	-0.5491	26.57	0.58	-0.750			
0.7974	51030.55	3.3530	3.3529	-0.5322	26.57	0.58	-0.750			
0.7989	51130.08	3.3500	3.3500	-0.5138	26.58	0.59	-0.750			
0.8004	51226.37	3.3470	3.3470	-0.4974	26.58	0.59	-0.750			
0.8019	51320.05	3.3440	3.3441	-0.4818	26.59	0.60	-0.750			
0.8033	51411.95	3.3410	3.3409	-0.4682	26.60	0.61	-0.750			
0.8047	51499.91	3.3380	3.3381	-0.4528	26.60	0.61	-0.750			
0.8060	51585.40	3.3350	3.3350	-0.4390	26.61	0.62	-0.750			
0.8073	51668.11	3.3320	3.3321	-0.4239	26.61	0.62	-0.750			
0.8086	51747.86	3.3290	3.3290	-0.4103	26.62	0.63	-0.750			
0.8098	51825.32	3.3260	3.3260	-0.3980	26.62	0.63	-0.750			
0.8109	51900.35	3.3230	3.3230	-0.3875	26.63	0.64	-0.750			
0.8121	51973.67	3.3200	3.3200	-0.3754	26.63	0.64	-0.750			
0.8132	52044.74	3.3170	3.3170	-0.3646	26.64	0.65	-0.750			
0.8143	52113.54	3.3140	3.3140	-0.3555	26.64	0.65	-0.750			
0.8153	52180.63	3.3110	3.3110	-0.3475	26.65	0.66	-0.750			
0.8163	52246.26	3.3080	3.3080	-0.3383	26.65	0.66	-0.750			
0.8174	52310.45	3.3050	3.3050	-0.3291	26.66	0.67	-0.750			
0.8183	52372.64	3.3020	3.3020	-0.3208	26.67	0.68	-0.750			
0.8193	52434.25	3.2990	3.2990	-0.3138	26.67	0.68	-0.750			
0.8202	52493.64	3.2960	3.2960	-0.3026	26.68	0.69	-0.750			
0.8211	52550.02	3.2930	3.2930	-0.2960	26.68	0.69	-0.750			
0.8220	52606.09	3.2900	3.2902	-0.2894	26.69	0.70	-0.750			
0.8228	52660.59	3.2870	3.2869	-0.2843	26.69	0.70	-0.750			
0.8237	52714.38	3.2840	3.2840	-0.2802	26.70	0.71	-0.750			
0.8245	52768.12	3.2810	3.2810	-0.2745	26.70	0.71	-0.750			
0.8253	52820.75	3.2780	3.2780	-0.2701	26.71	0.72	-0.750			
0.8261	52872.66	3.2750	3.2750	-0.2657	26.72	0.73	-0.750			
0.8269	52922.40	3.2720	3.2722	-0.2580	26.72	0.73	-0.750			
0.8277	52972.19	3.2690	3.2689	-0.2514	26.73	0.74	-0.750			
0.8284	53018.98	3.2660	3.2660	-0.2462	26.73	0.74	-0.750			
0.8291	53065.26	3.2630	3.2631	-0.2413	26.73	0.74	-0.750			
0.8298	53110.31	3.2600	3.2601	-0.2383	26.74	0.75	-0.750			
0.8306	53156.25	3.2570	3.2570	-0.2366	26.74	0.75	-0.750			
0.8313	53201.43	3.2540	3.2540	-0.2331	26.75	0.76	-0.750			
0.8320	53246.24	3.2510	3.2511	-0.2312	26.75	0.76	-0.750			
0.8327	53291.02	3.2480	3.2479	-0.2293	26.76	0.77	-0.750			
0.8333	53334.12	3.2450	3.2450	-0.2240	26.76	0.77	-0.750			
0.8340	53377.12	3.2420	3.2420	-0.2209	26.77	0.78	-0.750			
0.8347	53418.83	3.2390	3.2390	-0.2161	26.77	0.78	-0.750			
0.8353	53459.95	3.2360	3.2361	-0.2128	26.77	0.78	-0.750			
0.8359	53500.59	3.2330	3.2330	-0.2094	26.78	0.79	-0.750			
0.8366	53540.06	3.2300	3.2300	-0.2069	26.78	0.79	-0.750			
0.8372	53579.55	3.2270	3.2270	-0.2044	26.79	0.80	-0.750			
0.8378	53618.15	3.2240	3.2240	-0.2023	26.79	0.80	-0.750			
0.8384	53657.07	3.2210	3.2209	-0.1992	26.79	0.80	-0.750			
0.8390	53695.27	3.2180	3.2179	-0.1971	26.80	0.81	-0.750			
0.8396	53732.83	3.2150	3.2151	-0.1942	26.80	0.81	-0.750			
0.8402	53769.93	3.2120	3.2121	-0.1918	26.81	0.82	-0.750			
0.8407	53806.41	3.2090	3.2089	-0.1901	26.81	0.82	-0.750			
0.8413	53842.29	3.2060	3.2059	-0.1868	26.82	0.83	-0.750			
0.8418	53877.92	3.2030	3.2031	-0.1851	26.83	0.84	-0.750			
0.8424	53913.49	3.2000	3.1999	-0.1827	26.83	0.84	-0.750			
0.8429	53948.71	3.1970	3.1971	-0.1812	26.84	0.85	-0.750			
0.8435	53983.06	3.1940	3.1941	-0.1789	26.84	0.85	-0.750			
0.8440	54017.22	3.1910	3.1909	-0.1768	26.85	0.86	-0.750			
0.8445	54050.93	3.1880	3.1879	-0.1744	26.85	0.86	-0.750			
0.8451	54083.84	3.1850	3.1850	-0.1727	26.86	0.87	-0.750			
0.8456	54117.05	3.1820	3.1820	-0.1712	26.86	0.87	-0.750			
0.8461	54149.77	3.1790	3.1791	-0.1696	26.87	0.88	-0.750			
0.8466	54182.30	3.1760	3.1759	-0.1677	26.88	0.89	-0.750			
0.8471	54214.19	3.1730	3.1730	-0.1658	26.88	0.89	-0.750			
0.8476	54245.73	3.1700	3.1700	-0.1644	26.89	0.90	-0.750			
0.8481	54277.18	3.1670	3.1670	-0.1631	26.89	0.90	-0.750			
0.8486	54308.46	3.1640	3.1640	-0.1617	26.90	0.91	-0.750			
0.8490	54339.19	3.1610	3.1610	-0.1597	26.90	0.91	-0.750			
0.8495	54370.06	3.1580	3.1580	-0.1584	26.90	0.91	-0.750			
0.8500	54400.27	3.1550	3.1550	-0.1563	26.91	0.92	-0.750			
0.8505	54430.06	3.1520	3.1520	-0.1553	26.91	0.92	-0.750			
0.8509	54459.65	3.1490	3.1490	-0.1535	26.91	0.92	-0.750			
0.8514	54488.77	3.1460	3.1459	-0.1517	26.92	0.93	-0.750			
0.8518	54517.87	3.1430	3.1430	-0.1500	26.92	0.93	-0.750			
0.8523	54546.57	3.1400	3.1401	-0.1486	26.93	0.94	-0.750			
0.8527	54574.86	3.1370	3.1371	-0.1475	26.93	0.94	-0.750			
0.8532	54603.06	3.1340	3.1339	-0.1463	26.94	0.95	-0.750			
0.8536	54630.99	3.1310	3.1310	-0.1455	26.94	0.95	-0.750			
0.8540	54658.61	3.1280	3.1280	-0.1437	26.95	0.96	-0.750			
0.8545	54686.34	3.1250	3.1250	-0.1431	26.96	0.97	-0.750			
0.8549	54713.69	3.1220	3.1221	-0.1419	26.96	0.97	-0.750			
0.8553	54740.87	3.1190	3.1190	-0.1414	26.97	0.98	-0.750			
0.8557	54767.89	3.1160	3.1160	-0.1403	26.97	0.98	-0.750			
0.8562	54794.62	3.1130	3.1130	-0.1390	26.98	0.99	-0.750			
0.8566	54821.23	3.1100	3.1099	-0.1382	26.99	1.00	-0.750			
0.8570	54847.75	3.1070	3.1071	-0.1369	26.99	1.00	-0.750			
0.8574	54874.17	3.1040	3.1040	-0.1361	27.00	1.01	-0.750			
0.8578	54900.33	3.1010	3.1009	-0.1343	27.00	1.01	-0.750			
0.8582	54925.76	3.0980	3.0981	-0.1332	27.01	1.02	-0.750			
0.8586	54950.91	3.0950	3.0951	-0.1321	27.01	1.02	-0.750			
0.8590	54976.25	3.0920	3.0919	-0.1311	27.02	1.03	-0.750			
0.8594	55001.26	3.0890	3.0890	-0.1301	27.03	1.04	-0.750			
0.8598	55026.16	3.0860	3.0861	-0.1295	27.03	1.04	-0.750			
0.8602	55051.12	3.0830	3.0830	-0.1287	27.04	1.05	-0.750			
0.8606	55075.88	3.0800	3.0798	-0.1279	27.04	1.05	-0.750			
0.8609	55100.26	3.0770	3.0771	-0.1267	27.05	1.06	-0.750			
0.8613	55124.33	3.0740	3.0740	-0.1254	27.05	1.06	-0.750			
0.8617	55148.22	3.0710	3.0711	-0.1248	27.05	1.06	-0.750			
0.8621	55172.16	3.0680	3.0679	-0.1241	27.06	1.07	-0.750			
0.8624	55195.93	3.0650	3.0650	-0.1233	27.06	1.07	-0.750			
0.8628	55219.25	3.0620	3.0620	-0.1226	27.07	1.08	-0.750			
0.8632	55242.76	3.0590	3.0590	-0.1223	27.07	1.08	-0.750			
0.8635	55266.43	3.0560	3.0560	-0.1214	27.08	1.09	-0.750			
0.8639	55289.75	3.0530	3.0529	-0.1207	27.08	1.09	-0.750			
0.8643	55312.79	3.0500	3.0502	-0.1198	27.09	1.10	-0.750			
0.8646	55335.71	3.0470	3.0470	-0.1188	27.09	1.10	-0.750			
0.8650	55358.42	3.0440	3.0440	-0.1178	27.10	1.11	-0.750			
0.8653	55381.03	3.0410	3.0409	-0.1169	27.10	1.11	-0.750			
0.8657	55403.20	3.0380	3.0380	-0.1156	27.11	1.12	-0.750			
0.8660	55425.32	3.0350	3.0350	-0.1148	27.11	1.12	-0.750			
0.8664	55447.26	3.0320	3.0320	-0.1147	27.12	1.13	-0.750			
0.8667	55469.22	3.0290	3.0290	-0.1141	27.12	1.13	-0.750			
0.8670	55490.91	3.0260	3.0260	-0.1135	27.12	1.13	-0.750			
0.8674	55512.69	3.0230	3.0229	-0.1133	27.13	1.14	-0.750			
0.8677	55534.52	3.0200	3.0200	-0.1128	27.13	1.14	-0.750			
0.8681	55556.13	3.0170	3.0171	-0.1123	27.14	1.15	-0.750			
0.8684	55577.84	3.0140	3.0140	-0.1119	27.14	1.15	-0.750			
0.8687	55599.25	3.0110	3.0111	-0.1111	27.15	1.16	-0.750			
0.8691	55620.42	3.0080	3.0081	-0.1103	27.15	1.16	-0.751			
0.8694	55641.53	3.0050	3.0049	-0.1096	27.15	1.16	-0.751			
0.8697	55662.51	3.0020	3.0019	-0.1093	27.16	1.17	-0.751			
