Ah_balance (normalized)	Ah_balance (mAh)	Voltage - fit (V)	Voltage -  interpolate (V)	dQ/dV (1/V)	Temperature (°C)	Temperature - diff (°C)	Current (C)	R_DC 0ms (mOhm)	R_DC 50ms (mOhm)	R_DC 50 ms PEC (mOhm)
0.0002	12.68	4.1600	4.1599	-0.1091	25.95	0.02	-0.750			
0.0006	38.42	4.1570	4.1568	-0.1517	25.95	0.02	-0.750			
0.0011	70.41	4.1540	4.1540	-0.1869	25.95	0.02	-0.750			
0.0017	110.38	4.1510	4.1510	-0.2224	25.94	0.01	-0.750			
0.0024	155.97	4.1480	4.1481	-0.2594	25.94	0.01	-0.750			
0.0033	210.02	4.1450	4.1449	-0.2939	25.94	0.01	-0.750			
0.0042	270.42	4.1420	4.1420	-0.3252	25.94	0.01	-0.750			
0.0053	336.44	4.1390	4.1389	-0.3569	25.93	0.00	-0.750			
0.0064	407.69	4.1360	4.1363	-0.3880	25.93	-0.00	-0.750			
0.0076	485.39	4.1330	4.1330	-0.4159	25.93	-0.00	-0.750			
0.0089	568.56	4.1300	4.1299	-0.4432	25.92	-0.01	-0.750			
0.0103	656.09	4.1270	4.1270	-0.4661	25.92	-0.01	-0.750			
0.0117	748.91	4.1240	4.1241	-0.4920	25.91	-0.02	-0.750			
0.0132	847.15	4.1210	4.1210	-0.5153	25.91	-0.02	-0.750			
0.0148	948.34	4.1180	4.1179	-0.5301	25.90	-0.03	-0.750			
0.0164	1052.17	4.1150	4.1150	-0.5440	25.90	-0.03	-0.750			
0.0181	1158.48	4.1120	4.1121	-0.5589	25.89	-0.04	-0.750			
0.0198	1266.69	4.1090	4.1090	-0.5732	25.89	-0.04	-0.750			
0.0215	1378.32	4.1060	4.1059	-0.5849	25.89	-0.04	-0.750			
0.0233	1491.76	4.1030	4.1030	-0.5927	25.88	-0.05	-0.750			
0.0251	1607.03	4.1000	4.1000	-0.6035	25.88	-0.05	-0.750			
0.0270	1725.51	4.0970	4.0971	-0.6159	25.88	-0.05	-0.750			
0.0288	1843.95	4.0940	4.0940	-0.6234	25.87	-0.06	-0.750			
0.0307	1964.02	4.0910	4.0909	-0.6279	25.87	-0.06	-0.750			
0.0326	2085.62	4.0880	4.0880	-0.6324	25.87	-0.06	-0.750			
0.0345	2208.36	4.0850	4.0851	-0.6403	25.87	-0.06	-0.750			
0.0364	2330.45	4.0820	4.0821	-0.6508	25.87	-0.06	-0.750			
0.0384	2456.80	4.0790	4.0790	-0.6530	25.86	-0.07	-0.750			
0.0404	2583.32	4.0760	4.0759	-0.6563	25.86	-0.07	-0.750			
0.0423	2709.83	4.0730	4.0730	-0.6613	25.86	-0.07	-0.750			
0.0444	2838.63	4.0700	4.0700	-0.6662	25.86	-0.07	-0.750			
0.0463	2966.09	4.0670	4.0669	-0.6707	25.86	-0.07	-0.750			
0.0483	3093.26	4.0640	4.0641	-0.6743	25.86	-0.07	-0.750			
0.0504	3222.63	4.0610	4.0610	-0.6755	25.85	-0.08	-0.750			
0.0524	3356.55	4.0580	4.0580	-0.6818	25.85	-0.08	-0.750			
0.0545	3487.66	4.0550	4.0550	-0.6847	25.85	-0.08	-0.750			
0.0565	3618.58	4.0520	4.0522	-0.6867	25.85	-0.08	-0.750			
0.0586	3751.67	4.0490	4.0490	-0.6872	25.85	-0.08	-0.750			
0.0607	3881.91	4.0460	4.0459	-0.6908	25.85	-0.08	-0.750			
0.0627	4014.93	4.0430	4.0431	-0.6934	25.85	-0.08	-0.750			
0.0648	4149.97	4.0400	4.0399	-0.6988	25.85	-0.08	-0.750			
0.0669	4284.13	4.0370	4.0371	-0.6999	25.85	-0.08	-0.750			
0.0690	4418.76	4.0340	4.0340	-0.6991	25.85	-0.08	-0.750			
0.0711	4552.99	4.0310	4.0310	-0.7023	25.85	-0.08	-0.750			
0.0732	4687.62	4.0280	4.0280	-0.7098	25.85	-0.08	-0.750			
0.0754	4824.17	4.0250	4.0250	-0.7075	25.85	-0.08	-0.750			
0.0775	4961.14	4.0220	4.0219	-0.7125	25.85	-0.08	-0.750			
0.0797	5098.31	4.0190	4.0190	-0.7143	25.85	-0.08	-0.750			
0.0818	5235.84	4.0160	4.0160	-0.7160	25.85	-0.08	-0.750			
0.0840	5373.31	4.0130	4.0130	-0.7165	25.85	-0.08	-0.750			
0.0861	5509.54	4.0100	4.0101	-0.7193	25.85	-0.08	-0.750			
0.0882	5647.99	4.0070	4.0070	-0.7169	25.85	-0.08	-0.750			
0.0904	5788.67	4.0040	4.0039	-0.7205	25.85	-0.08	-0.750			
0.0926	5925.28	4.0010	4.0010	-0.7211	25.85	-0.08	-0.750			
0.0947	6063.68	3.9980	3.9980	-0.7241	25.85	-0.08	-0.750			
0.0969	6202.80	3.9950	3.9949	-0.7262	25.86	-0.07	-0.750			
0.0991	6342.41	3.9920	3.9920	-0.7299	25.86	-0.07	-0.750			
0.1013	6481.46	3.9890	3.9891	-0.7328	25.86	-0.07	-0.750			
0.1035	6624.77	3.9860	3.9859	-0.7388	25.87	-0.06	-0.750			
0.1057	6767.49	3.9830	3.9830	-0.7409	25.87	-0.06	-0.750			
0.1080	6909.74	3.9800	3.9800	-0.7382	25.87	-0.06	-0.750			
0.1102	7051.47	3.9770	3.9770	-0.7412	25.87	-0.06	-0.750			
0.1124	7194.30	3.9740	3.9740	-0.7445	25.87	-0.06	-0.750			
0.1146	7336.70	3.9710	3.9710	-0.7430	25.87	-0.06	-0.750			
0.1169	7479.47	3.9680	3.9679	-0.7441	25.87	-0.06	-0.750			
0.1191	7622.46	3.9650	3.9651	-0.7470	25.87	-0.06	-0.750			
0.1213	7766.07	3.9620	3.9619	-0.7501	25.87	-0.06	-0.750			
0.1236	7910.23	3.9590	3.9590	-0.7544	25.88	-0.05	-0.750			
0.1259	8055.00	3.9560	3.9560	-0.7527	25.88	-0.05	-0.750			
0.1282	8201.65	3.9530	3.9530	-0.7590	25.89	-0.04	-0.750			
0.1304	8347.76	3.9500	3.9501	-0.7590	25.89	-0.04	-0.750			
0.1327	8492.71	3.9470	3.9470	-0.7599	25.89	-0.04	-0.750			
0.1350	8638.26	3.9440	3.9440	-0.7613	25.90	-0.03	-0.750			
0.1372	8783.11	3.9410	3.9410	-0.7640	25.90	-0.03	-0.750			
0.1395	8929.64	3.9380	3.9380	-0.7691	25.90	-0.03	-0.750			
0.1419	9079.41	3.9350	3.9350	-0.7753	25.91	-0.02	-0.750			
0.1442	9228.55	3.9320	3.9321	-0.7749	25.91	-0.02	-0.750			
0.1465	9378.77	3.9290	3.9289	-0.7779	25.91	-0.02	-0.750			
0.1489	9528.18	3.9260	3.9261	-0.7783	25.91	-0.02	-0.750			
0.1512	9677.61	3.9230	3.9229	-0.7746	25.91	-0.02	-0.750			
0.1535	9826.16	3.9200	3.9200	-0.7736	25.91	-0.02	-0.750			
0.1558	9974.26	3.9170	3.9170	-0.7751	25.91	-0.02	-0.750			
0.1582	10122.48	3.9140	3.9140	-0.7783	25.91	-0.02	-0.750			
0.1605	10272.15	3.9110	3.9110	-0.7826	25.92	-0.01	-0.750			
0.1629	10422.43	3.9080	3.9080	-0.7843	25.92	-0.01	-0.750			
0.1652	10573.64	3.9050	3.9050	-0.7849	25.92	-0.01	-0.750			
0.1676	10726.15	3.9020	3.9020	-0.7889	25.93	-0.00	-0.750			
0.1700	10877.68	3.8990	3.8989	-0.7825	25.93	0.00	-0.750			
0.1723	11027.35	3.8960	3.8959	-0.7783	25.94	0.01	-0.750			
0.1746	11176.29	3.8930	3.8931	-0.7746	25.94	0.01	-0.750			
0.1769	11322.81	3.8900	3.8900	-0.7733	25.94	0.01	-0.750			
0.1793	11472.69	3.8870	3.8870	-0.7745	25.95	0.02	-0.750			
0.1816	11619.92	3.8840	3.8841	-0.7813	25.95	0.02	-0.750			
0.1839	11768.43	3.8810	3.8810	-0.7883	25.95	0.02	-0.750			
0.1863	11922.95	3.8780	3.8779	-0.7988	25.95	0.02	-0.750			
0.1887	12078.35	3.8750	3.8749	-0.7951	25.96	0.03	-0.750			
0.1911	12232.57	3.8720	3.8720	-0.8000	25.96	0.03	-0.750			
0.1935	12386.22	3.8690	3.8692	-0.7981	25.96	0.03	-0.750			
0.1959	12538.93	3.8660	3.8659	-0.8030	25.96	0.03	-0.750			
0.1983	12691.51	3.8630	3.8628	-0.8054	25.96	0.03	-0.750			
0.2007	12845.74	3.8600	3.8600	-0.8053	25.97	0.04	-0.750			
0.2032	13004.65	3.8570	3.8570	-0.8100	25.97	0.04	-0.750			
0.2056	13160.59	3.8540	3.8542	-0.8056	25.97	0.04	-0.750			
0.2080	13314.34	3.8510	3.8510	-0.7971	25.97	0.04	-0.750			
0.2104	13464.71	3.8480	3.8479	-0.7999	25.98	0.05	-0.750			
0.2128	13617.48	3.8450	3.8450	-0.7960	25.98	0.05	-0.750			
0.2151	13769.52	3.8420	3.8417	-0.7918	25.98	0.05	-0.750			
0.2176	13924.77	3.8390	3.8391	-0.7944	25.99	0.06	-0.750			
0.2199	14076.11	3.8360	3.8359	-0.7954	25.99	0.06	-0.750			
0.2223	14227.20	3.8330	3.8329	-0.7976	26.00	0.07	-0.750			
0.2247	14381.28	3.8300	3.8300	-0.7936	26.00	0.07	-0.750			
0.2270	14529.60	3.8270	3.8270	-0.7841	26.00	0.07	-0.750			
0.2295	14685.17	3.8240	3.8241	-0.7935	26.01	0.08	-0.750			
0.2318	14836.81	3.8210	3.8211	-0.7919	26.01	0.08	-0.750			
0.2342	14988.16	3.8180	3.8180	-0.7888	26.01	0.08	-0.750			
0.2365	15138.98	3.8150	3.8149	-0.7814	26.02	0.09	-0.750			
0.2389	15287.90	3.8120	3.8121	-0.7776	26.02	0.09	-0.750			
0.2412	15438.98	3.8090	3.8090	-0.7802	26.03	0.10	-0.750			
0.2436	15588.30	3.8060	3.8061	-0.7764	26.03	0.10	-0.750			
0.2459	15735.77	3.8030	3.8029	-0.7717	26.03	0.10	-0.750			
0.2482	15882.52	3.8000	3.8001	-0.7666	26.03	0.10	-0.750			
0.2505	16031.16	3.7970	3.7970	-0.7622	26.03	0.10	-0.750			
0.2528	16178.65	3.7940	3.7940	-0.7590	26.03	0.10	-0.750			
0.2550	16321.68	3.7910	3.7911	-0.7571	26.03	0.10	-0.750			
0.2573	16466.09	3.7880	3.7880	-0.7528	26.03	0.10	-0.750			
0.2595	16610.06	3.7850	3.7849	-0.7533	26.04	0.11	-0.750			
0.2618	16754.93	3.7820	3.7821	-0.7477	26.04	0.11	-0.750			
0.2641	16899.77	3.7790	3.7790	-0.7464	26.04	0.11	-0.750			
0.2663	17042.94	3.7760	3.7760	-0.7425	26.05	0.12	-0.750			
0.2685	17184.31	3.7730	3.7733	-0.7374	26.05	0.12	-0.750			
0.2707	17324.09	3.7700	3.7700	-0.7318	26.06	0.13	-0.750			
0.2729	17464.09	3.7670	3.7670	-0.7342	26.06	0.13	-0.750			
0.2751	17604.77	3.7640	3.7640	-0.7332	26.07	0.14	-0.750			
0.2773	17745.80	3.7610	3.7610	-0.7376	26.08	0.15	-0.750			
0.2795	17886.98	3.7580	3.7579	-0.7374	26.08	0.15	-0.750			
0.2817	18028.73	3.7550	3.7551	-0.7401	26.09	0.16	-0.750			
0.2839	18171.33	3.7520	3.7519	-0.7434	26.09	0.16	-0.750			
0.2861	18313.51	3.7490	3.7491	-0.7520	26.09	0.16	-0.750			
0.2884	18458.15	3.7460	3.7460	-0.7595	26.09	0.16	-0.750			
0.2907	18606.30	3.7430	3.7429	-0.7646	26.09	0.16	-0.750			
0.2930	18752.97	3.7400	3.7398	-0.7717	26.09	0.16	-0.750			
0.2953	18902.25	3.7370	3.7370	-0.7757	26.09	0.16	-0.750			
0.2977	19049.97	3.7340	3.7340	-0.7897	26.10	0.17	-0.750			
0.3000	19202.55	3.7310	3.7309	-0.7965	26.10	0.17	-0.750			
0.3024	19355.27	3.7280	3.7279	-0.7996	26.10	0.17	-0.750			
0.3049	19511.23	3.7250	3.7250	-0.8163	26.11	0.18	-0.750			
0.3073	19669.18	3.7220	3.7222	-0.8314	26.11	0.18	-0.750			
0.3098	19827.72	3.7190	3.7189	-0.8496	26.11	0.18	-0.750			
0.3124	19994.36	3.7160	3.7159	-0.8675	26.11	0.18	-0.750			
0.3150	20160.30	3.7130	3.7130	-0.8779	26.11	0.18	-0.750			
0.3177	20333.86	3.7100	3.7100	-0.9007	26.11	0.18	-0.750			
0.3205	20509.74	3.7070	3.7070	-0.9223	26.11	0.18	-0.750			
0.3232	20686.91	3.7040	3.7039	-0.9355	26.10	0.17	-0.750			
0.3261	20867.51	3.7010	3.7010	-0.9450	26.10	0.17	-0.750			
0.3289	21049.54	3.6980	3.6980	-0.9574	26.09	0.16	-0.750			
0.3318	21236.49	3.6950	3.6951	-0.9835	26.09	0.16	-0.750			
0.3348	21425.85	3.6920	3.6920	-1.0000	26.09	0.16	-0.750			
0.3378	21619.77	3.6890	3.6889	-1.0134	26.09	0.16	-0.750			
0.3409	21814.44	3.6860	3.6860	-1.0318	26.09	0.16	-0.750			
0.3440	22014.00	3.6830	3.6833	-1.0560	26.09	0.16	-0.750			
0.3472	22221.46	3.6800	3.6799	-1.0691	26.08	0.15	-0.750			
0.3504	22428.55	3.6770	3.6769	-1.0824	26.08	0.15	-0.750			
0.3537	22635.79	3.6740	3.6740	-1.0993	26.07	0.14	-0.750			
0.3570	22847.48	3.6710	3.6711	-1.1263	26.07	0.14	-0.750			
0.3604	23066.85	3.6680	3.6679	-1.1499	26.06	0.13	-0.750			
0.3639	23288.05	3.6650	3.6650	-1.1698	26.06	0.13	-0.750			
0.3674	23513.11	3.6620	3.6621	-1.2048	26.05	0.12	-0.750			
0.3711	23753.13	3.6590	3.6589	-1.2313	26.05	0.12	-0.750			
0.3749	23992.02	3.6560	3.6559	-1.2440	26.04	0.11	-0.750			
0.3786	24229.53	3.6530	3.6530	-1.2701	26.03	0.10	-0.750			
0.3824	24476.37	3.6500	3.6501	-1.2905	26.03	0.10	-0.750			
0.3863	24725.65	3.6470	3.6469	-1.3177	26.02	0.09	-0.750			
0.3903	24979.78	3.6440	3.6440	-1.3415	26.02	0.09	-0.750			
0.3943	25237.60	3.6410	3.6411	-1.3605	26.01	0.08	-0.750			
0.3985	25503.54	3.6380	3.6380	-1.4021	26.00	0.07	-0.750			
0.4028	25776.05	3.6350	3.6351	-1.4276	26.00	0.07	-0.750			
0.4071	26052.95	3.6320	3.6319	-1.4576	25.99	0.06	-0.750			
0.4115	26337.31	3.6290	3.6288	-1.4982	25.99	0.06	-0.750			
0.4161	26629.14	3.6260	3.6261	-1.5160	25.99	0.06	-0.750			
0.4207	26924.69	3.6230	3.6230	-1.5434	25.99	0.06	-0.750			
0.4253	27221.82	3.6200	3.6200	-1.5739	25.98	0.05	-0.750			
0.4301	27524.62	3.6170	3.6168	-1.5955	25.97	0.04	-0.750			
0.4348	27826.71	3.6140	3.6140	-1.6307	25.96	0.03	-0.750	0.396	0.547	
0.4398	28148.62	3.6110	3.6111	-1.6723	25.96	0.03	-0.750			
0.4449	28474.47	3.6080	3.6081	-1.7035	25.95	0.02	-0.750			
0.4501	28807.34	3.6050	3.6049	-1.7393	25.94	0.01	-0.750			
0.4554	29146.47	3.6020	3.6019	-1.7805	25.93	0.00	-0.750			
0.4608	29492.61	3.5990	3.5990	-1.8149	25.93	0.00	-0.750			
0.4663	29840.75	3.5960	3.5959	-1.8486	25.93	0.00	-0.750			
0.4718	30197.73	3.5930	3.5928	-1.8872	25.93	-0.00	-0.750			
0.4777	30571.55	3.5900	3.5904	-1.9088	25.92	-0.01	-0.750			
0.4835	30941.11	3.5870	3.5871	-1.9435	25.92	-0.01	-0.750			
0.4894	31321.38	3.5840	3.5839	-1.9440	25.91	-0.02	-0.750			
0.4952	31691.47	3.5810	3.5811	-1.9676	25.91	-0.02	-0.750			
0.5012	32078.48	3.5780	3.5780	-1.9736	25.91	-0.02	-0.750			
0.5070	32448.41	3.5750	3.5751	-2.0142	25.91	-0.02	-0.750			
0.5131	32837.60	3.5720	3.5720	-2.0451	25.91	-0.02	-0.750			
0.5194	33240.76	3.5690	3.5690	-2.0962	25.91	-0.02	-0.750			
0.5257	33642.54	3.5660	3.5661	-2.1352	25.90	-0.03	-0.750			
0.5323	34068.24	3.5630	3.5631	-2.1576	25.90	-0.03	-0.750			
0.5387	34479.75	3.5600	3.5599	-2.1728	25.91	-0.02	-0.750			
0.5453	34898.38	3.5570	3.5572	-2.1631	25.91	-0.02	-0.750			
0.5518	35313.01	3.5540	3.5539	-2.1618	25.92	-0.01	-0.750			
0.5583	35733.60	3.5510	3.5512	-2.1815	25.92	-0.01	-0.750			
0.5648	36149.39	3.5480	3.5479	-2.1629	25.92	-0.01	-0.750			
0.5715	36573.70	3.5450	3.5449	-2.1542	25.92	-0.01	-0.750			
0.5778	36979.69	3.5420	3.5422	-2.1437	25.93	-0.00	-0.750			
0.5843	37396.44	3.5390	3.5389	-2.1230	25.93	0.00	-0.750			
0.5906	37799.31	3.5360	3.5356	-2.0727	25.93	0.00	-0.750			
0.5968	38193.53	3.5330	3.5332	-2.0584	25.94	0.01	-0.750			
0.6029	38588.38	3.5300	3.5301	-2.0350	25.94	0.01	-0.750			
0.6090	38977.37	3.5270	3.5271	-2.0038	25.95	0.02	-0.750			
0.6150	39359.79	3.5240	3.5240	-1.9497	25.96	0.03	-0.750			
0.6208	39730.27	3.5210	3.5211	-1.9185	25.97	0.04	-0.750			
0.6266	40101.38	3.5180	3.5180	-1.8918	25.98	0.05	-0.750			
0.6322	40462.49	3.5150	3.5151	-1.8403	25.99	0.06	-0.750			
0.6376	40804.88	3.5120	3.5118	-1.7823	26.00	0.07	-0.750			
0.6429	41145.46	3.5090	3.5088	-1.7439	26.01	0.08	-0.750			
0.6481	41477.39	3.5060	3.5060	-1.6883	26.02	0.09	-0.750			
0.6531	41797.88	3.5030	3.5031	-1.6391	26.04	0.11	-0.750			
0.6580	42109.28	3.5000	3.4999	-1.5796	26.06	0.13	-0.750			
0.6626	42406.73	3.4970	3.4970	-1.5174	26.07	0.14	-0.750			
0.6671	42691.66	3.4940	3.4939	-1.4785	26.09	0.16	-0.750			
0.6714	42966.60	3.4910	3.4909	-1.4280	26.10	0.17	-0.750			
0.6757	43241.75	3.4880	3.4879	-1.3928	26.11	0.18	-0.750			
0.6797	43503.52	3.4850	3.4849	-1.3526	26.13	0.20	-0.750			
0.6837	43756.62	3.4820	3.4820	-1.3027	26.14	0.21	-0.750			
0.6876	44008.47	3.4790	3.4791	-1.2692	26.16	0.23	-0.750			
0.6914	44248.24	3.4760	3.4758	-1.2170	26.18	0.25	-0.750			
0.6949	44473.10	3.4730	3.4730	-1.1708	26.20	0.27	-0.750			
0.6984	44697.02	3.4700	3.4701	-1.1318	26.21	0.28	-0.750			
0.7017	44908.99	3.4670	3.4670	-1.0983	26.23	0.30	-0.750			
0.7049	45115.35	3.4640	3.4639	-1.0607	26.24	0.31	-0.750			
0.7081	45315.34	3.4610	3.4609	-1.0395	26.26	0.33	-0.750			
0.7111	45512.78	3.4580	3.4579	-1.0062	26.27	0.34	-0.750			
0.7141	45703.98	3.4550	3.4550	-0.9764	26.29	0.36	-0.750			
0.7170	45886.12	3.4520	3.4520	-0.9444	26.30	0.37	-0.750			
0.7198	46069.88	3.4490	3.4489	-0.9224	26.31	0.38	-0.750			
0.7225	46240.26	3.4460	3.4459	-0.8976	26.32	0.39	-0.750			
0.7251	46407.00	3.4430	3.4430	-0.8780	26.33	0.40	-0.750			
0.7277	46571.57	3.4400	3.4400	-0.8636	26.34	0.41	-0.750			
0.7303	46739.35	3.4370	3.4369	-0.8641	26.35	0.42	-0.750			
0.7329	46902.40	3.4340	3.4340	-0.8625	26.36	0.43	-0.750			
0.7354	47067.40	3.4310	3.4311	-0.8675	26.37	0.44	-0.750			
0.7380	47235.07	3.4280	3.4279	-0.8772	26.38	0.45	-0.750			
0.7407	47402.20	3.4250	3.4250	-0.8823	26.39	0.46	-0.750			
0.7433	47571.81	3.4220	3.4220	-0.8945	26.40	0.47	-0.750			
0.7460	47744.61	3.4190	3.4190	-0.9121	26.41	0.48	-0.750			
0.7488	47923.31	3.4160	3.4159	-0.9205	26.43	0.50	-0.750			
0.7516	48101.24	3.4130	3.4130	-0.9246	26.44	0.51	-0.750			
0.7544	48280.90	3.4100	3.4100	-0.9276	26.45	0.52	-0.750			
0.7572	48462.10	3.4070	3.4070	-0.9264	26.46	0.53	-0.750			
0.7600	48640.67	3.4040	3.4039	-0.9191	26.47	0.54	-0.750			
0.7628	48816.63	3.4010	3.4010	-0.9028	26.48	0.55	-0.750			
0.7655	48989.89	3.3980	3.3980	-0.8813	26.48	0.55	-0.750			
0.7681	49158.90	3.3950	3.3951	-0.8601	26.49	0.56	-0.750			
0.7707	49321.76	3.3920	3.3920	-0.8366	26.50	0.57	-0.750			
0.7731	49478.61	3.3890	3.3890	-0.8120	26.51	0.58	-0.750			
0.7755	49632.54	3.3860	3.3859	-0.7842	26.52	0.59	-0.750			
0.7778	49780.22	3.3830	3.3831	-0.7569	26.53	0.60	-0.750			
0.7801	49924.24	3.3800	3.3800	-0.7346	26.54	0.61	-0.750			
0.7822	50062.30	3.3770	3.3769	-0.7110	26.54	0.61	-0.750			
0.7843	50195.33	3.3740	3.3740	-0.6866	26.55	0.62	-0.750			
0.7863	50324.40	3.3710	3.3709	-0.6623	26.56	0.63	-0.750			
0.7883	50451.01	3.3680	3.3680	-0.6409	26.56	0.63	-0.750			
0.7902	50573.01	3.3650	3.3650	-0.6210	26.57	0.64	-0.750			
0.7920	50690.30	3.3620	3.3619	-0.5977	26.58	0.65	-0.750			
0.7938	50801.78	3.3590	3.3592	-0.5764	26.58	0.65	-0.750			
0.7954	50908.67	3.3560	3.3559	-0.5537	26.59	0.66	-0.750			
0.7971	51013.57	3.3530	3.3530	-0.5355	26.59	0.66	-0.750			
0.7987	51114.36	3.3500	3.3500	-0.5173	26.60	0.67	-0.750			
0.8002	51213.40	3.3470	3.3470	-0.5058	26.60	0.67	-0.750			
0.8017	51307.16	3.3440	3.3441	-0.4849	26.61	0.68	-0.750			
0.8031	51398.56	3.3410	3.3409	-0.4689	26.61	0.68	-0.750			
0.8045	51486.66	3.3380	3.3380	-0.4534	26.61	0.68	-0.750			
0.8058	51571.87	3.3350	3.3350	-0.4387	26.62	0.69	-0.750			
0.8071	51654.35	3.3320	3.3320	-0.4254	26.63	0.70	-0.750			
0.8084	51734.96	3.3290	3.3290	-0.4127	26.63	0.70	-0.750			
0.8096	51812.73	3.3260	3.3260	-0.4012	26.64	0.71	-0.750			
0.8108	51888.68	3.3230	3.3229	-0.3885	26.65	0.72	-0.750			
0.8119	51962.06	3.3200	3.3201	-0.3780	26.65	0.72	-0.750			
0.8130	52033.64	3.3170	3.3171	-0.3667	26.66	0.73	-0.750			
0.8141	52102.60	3.3140	3.3140	-0.3586	26.66	0.73	-0.750			
0.8152	52170.29	3.3110	3.3109	-0.3501	26.67	0.74	-0.750			
0.8162	52236.14	3.3080	3.3081	-0.3404	26.68	0.75	-0.750			
0.8172	52300.81	3.3050	3.3050	-0.3321	26.68	0.75	-0.750			
0.8182	52365.38	3.3020	3.3021	-0.3234	26.69	0.76	-0.750			
0.8192	52425.95	3.2990	3.2991	-0.3130	26.69	0.76	-0.750			
0.8201	52484.42	3.2960	3.2960	-0.3057	26.70	0.77	-0.750			
0.8210	52541.51	3.2930	3.2929	-0.2975	26.71	0.78	-0.750			
0.8218	52597.71	3.2900	3.2899	-0.2919	26.71	0.78	-0.750			
0.8227	52653.34	3.2870	3.2872	-0.2866	26.72	0.79	-0.750			
0.8236	52708.50	3.2840	3.2839	-0.2824	26.73	0.80	-0.750			
0.8244	52762.54	3.2810	3.2810	-0.2769	26.73	0.80	-0.750			
0.8252	52814.60	3.2780	3.2781	-0.2705	26.74	0.81	-0.750			
0.8260	52865.71	3.2750	3.2749	-0.2647	26.74	0.81	-0.750			
0.8268	52916.38	3.2720	3.2720	-0.2600	26.75	0.82	-0.750			
0.8276	52965.62	3.2690	3.2689	-0.2554	26.75	0.82	-0.750			
0.8283	53014.03	3.2660	3.2661	-0.2512	26.76	0.83	-0.750			
0.8291	53062.09	3.2630	3.2630	-0.2468	26.77	0.84	-0.750			
0.8298	53108.93	3.2600	3.2600	-0.2421	26.77	0.84	-0.750			
0.8305	53155.06	3.2570	3.2570	-0.2381	26.78	0.85	-0.750			
0.8313	53200.18	3.2540	3.2541	-0.2332	26.78	0.85	-0.750			
0.8319	53244.46	3.2510	3.2510	-0.2305	26.79	0.86	-0.750			
0.8326	53288.28	3.2480	3.2480	-0.2268	26.79	0.86	-0.750			
0.8333	53331.28	3.2450	3.2450	-0.2223	26.80	0.87	-0.750			
0.8340	53373.46	3.2420	3.2420	-0.2192	26.80	0.87	-0.750			
0.8346	53415.46	3.2390	3.2390	-0.2166	26.81	0.88	-0.750			
0.8353	53456.74	3.2360	3.2361	-0.2134	26.81	0.88	-0.750			
0.8359	53497.26	3.2330	3.2329	-0.2107	26.82	0.89	-0.750			
0.8365	53537.63	3.2300	3.2300	-0.2076	26.82	0.89	-0.750			
0.8371	53576.71	3.2270	3.2270	-0.2041	26.83	0.90	-0.750			
0.8377	53615.69	3.2240	3.2240	-0.2020	26.83	0.90	-0.750			
0.8384	53654.55	3.2210	3.2210	-0.2002	26.84	0.91	-0.750			
0.8389	53692.59	3.2180	3.2179	-0.1971	26.84	0.91	-0.750			
0.8395	53730.26	3.2150	3.2150	-0.1948	26.85	0.92	-0.750			
0.8401	53767.41	3.2120	3.2120	-0.1923	26.85	0.92	-0.750			
0.8407	53803.98	3.2090	3.2090	-0.1900	26.86	0.93	-0.750			
0.8413	53840.27	3.2060	3.2060	-0.1886	26.86	0.93	-0.750			
0.8418	53876.13	3.2030	3.2029	-0.1858	26.87	0.94	-0.750			
0.8424	53911.87	3.2000	3.2001	-0.1833	26.87	0.94	-0.750			
0.8429	53946.92	3.1970	3.1970	-0.1810	26.88	0.95	-0.750			
0.8435	53981.64	3.1940	3.1941	-0.1788	26.88	0.95	-0.750			
0.8440	54015.49	3.1910	3.1910	-0.1768	26.88	0.95	-0.750			
0.8445	54049.15	3.1880	3.1880	-0.1747	26.89	0.96	-0.750			
0.8450	54082.23	3.1850	3.1850	-0.1725	26.90	0.97	-0.750			
0.8455	54114.90	3.1820	3.1819	-0.1708	26.90	0.97	-0.750			
0.8461	54147.77	3.1790	3.1790	-0.1697	26.91	0.98	-0.750			
0.8466	54180.59	3.1760	3.1760	-0.1684	26.91	0.98	-0.750			
0.8471	54212.72	3.1730	3.1730	-0.1663	26.92	0.99	-0.750			
0.8476	54244.24	3.1700	3.1699	-0.1656	26.92	0.99	-0.750			
0.8481	54275.79	3.1670	3.1671	-0.1639	26.93	1.00	-0.750			
0.8486	54307.54	3.1640	3.1639	-0.1622	26.93	1.00	-0.750			
0.8490	54338.50	3.1610	3.1609	-0.1602	26.94	1.01	-0.750			
0.8495	54369.18	3.1580	3.1581	-0.1580	26.94	1.01	-0.750			
0.8500	54399.35	3.1550	3.1551	-0.1564	26.95	1.02	-0.750			
0.8505	54428.95	3.1520	3.1520	-0.1549	26.95	1.02	-0.750			
0.8509	54458.53	3.1490	3.1489	-0.1532	26.96	1.03	-0.750			
0.8514	54487.09	3.1460	3.1460	-0.1518	26.96	1.03	-0.750			
0.8518	54516.59	3.1430	3.1429	-0.1502	26.97	1.04	-0.750			
0.8523	54545.47	3.1400	3.1400	-0.1497	26.97	1.04	-0.750			
0.8527	54574.04	3.1370	3.1371	-0.1480	26.98	1.05	-0.750			
0.8532	54602.27	3.1340	3.1340	-0.1471	26.98	1.05	-0.750			
0.8536	54630.23	3.1310	3.1308	-0.1458	26.99	1.06	-0.750			
0.8540	54658.00	3.1280	3.1279	-0.1443	26.99	1.06	-0.750			
0.8545	54685.65	3.1250	3.1251	-0.1437	27.00	1.07	-0.750			
0.8549	54713.25	3.1220	3.1220	-0.1423	27.00	1.07	-0.750			
0.8553	54740.90	3.1190	3.1190	-0.1417	27.01	1.08	-0.750			
0.8557	54767.71	3.1160	3.1160	-0.1398	27.02	1.09	-0.750			
0.8562	54794.43	3.1130	3.1130	-0.1385	27.02	1.09	-0.750			
0.8566	54820.71	3.1100	3.1099	-0.1374	27.03	1.10	-0.750			
0.8570	54847.05	3.1070	3.1070	-0.1361	27.03	1.10	-0.750			
0.8574	54872.93	3.1040	3.1039	-0.1353	27.04	1.11	-0.750			
0.8578	54898.85	3.1010	3.1011	-0.1346	27.04	1.11	-0.750			
0.8582	54924.72	3.0980	3.0980	-0.1336	27.05	1.12	-0.750			
0.8586	54950.26	3.0950	3.0950	-0.1326	27.06	1.13	-0.750			
0.8590	54975.64	3.0920	3.0919	-0.1317	27.06	1.13	-0.750			
0.8594	55000.86	3.0890	3.0892	-0.1306	27.07	1.14	-0.750			
0.8598	55025.66	3.0860	3.0859	-0.1300	27.07	1.14	-0.750			
0.8602	55050.63	3.0830	3.0830	-0.1294	27.08	1.15	-0.750			
0.8606	55075.22	3.0800	3.0800	-0.1281	27.08	1.15	-0.750			
0.8609	55100.03	3.0770	3.0770	-0.1272	27.09	1.16	-0.750			
0.8613	55124.54	3.0740	3.0740	-0.1267	27.09	1.16	-0.750			
0.8617	55148.75	3.0710	3.0710	-0.1255	27.10	1.17	-0.750			
0.8621	55172.84	3.0680	3.0680	-0.1247	27.10	1.17	-0.750			
0.8624	55196.67	3.0650	3.0650	-0.1237	27.11	1.18	-0.750			
0.8628	55220.07	3.0620	3.0620	-0.1219	27.12	1.19	-0.750			
0.8632	55243.39	3.0590	3.0590	-0.1212	27.12	1.19	-0.750			
0.8635	55266.55	3.0560	3.0560	-0.1203	27.13	1.20	-0.750			
0.8639	55289.60	3.0530	3.0531	-0.1196	27.13	1.20	-0.750			
0.8643	55312.57	3.0500	3.0500	-0.1190	27.14	1.21	-0.750			
0.8646	55335.23	3.0470	3.0470	-0.1183	27.14	1.21	-0.750			
0.8650	55357.76	3.0440	3.0440	-0.1174	27.15	1.22	-0.750			
0.8653	55380.25	3.0410	3.0411	-0.1169	27.15	1.22	-0.750			
0.8657	55402.59	3.0380	3.0380	-0.1166	27.16	1.23	-0.750			
0.8660	55424.95	3.0350	3.0350	-0.1163	27.16	1.23	-0.750			
0.8664	55447.24	3.0320	3.0319	-0.1158	27.17	1.24	-0.750			
0.8667	55469.44	3.0290	3.0291	-0.1154	27.17	1.24	-0.750			
0.8671	55491.75	3.0260	3.0260	-0.1148	27.18	1.25	-0.750			
0.8674	55513.71	3.0230	3.0230	-0.1139	27.18	1.25	-0.750			
0.8677	55535.56	3.0200	3.0200	-0.1133	27.19	1.26	-0.750			
0.8681	55557.23	3.0170	3.0169	-0.1124	27.19	1.26	-0.750			
0.8684	55578.71	3.0140	3.0138	-0.1113	27.20	1.27	-0.750			
0.8687	55599.99	3.0110	3.0110	-0.1104	27.20	1.27	-0.750			
0.8691	55621.10	3.0080	3.0080	-0.1094	27.21	1.28	-0.751			
0.8694	55642.02	3.0050	3.0051	-0.1085	27.21	1.28	-0.751			
0.8697	55662.71	3.0020	3.0020	-0.1060	27.22	1.29	-0.751			
