Ah_balance (normalized)	Ah_balance (mAh)	Voltage - fit (V)	Voltage -  interpolate (V)	dQ/dV (1/V)	Temperature (°C)	Temperature - diff (°C)	Current (C)	R_DC 0ms (mOhm)	R_DC 50ms (mOhm)	R_DC 50 ms PEC (mOhm)
0.0004	24.99	4.1550	4.1546	-0.1168	25.20	0.01	-0.750			
0.0008	51.32	4.1520	4.1519	-0.1536	25.20	0.01	-0.750			
0.0013	83.49	4.1490	4.1491	-0.1898	25.20	0.01	-0.750			
0.0019	124.13	4.1460	4.1460	-0.2247	25.20	0.01	-0.750			
0.0027	170.81	4.1430	4.1430	-0.2586	25.20	0.01	-0.750			
0.0035	224.51	4.1400	4.1400	-0.2911	25.20	0.01	-0.750			
0.0044	283.98	4.1370	4.1370	-0.3221	25.20	0.01	-0.750			
0.0055	349.04	4.1340	4.1340	-0.3526	25.19	0.00	-0.750			
0.0066	419.38	4.1310	4.1310	-0.3824	25.19	0.00	-0.750			
0.0078	496.42	4.1280	4.1280	-0.4068	25.19	0.00	-0.750			
0.0090	577.52	4.1250	4.1250	-0.4336	25.19	0.00	-0.750			
0.0104	664.51	4.1220	4.1220	-0.4553	25.19	0.00	-0.750			
0.0118	754.00	4.1190	4.1191	-0.4766	25.19	-0.00	-0.750			
0.0132	847.58	4.1160	4.1159	-0.4959	25.19	-0.00	-0.750			
0.0148	944.63	4.1130	4.1130	-0.5119	25.19	-0.00	-0.750			
0.0163	1044.64	4.1100	4.1100	-0.5287	25.19	-0.00	-0.750			
0.0179	1148.18	4.1070	4.1070	-0.5480	25.18	-0.01	-0.750			
0.0196	1256.04	4.1040	4.1040	-0.5590	25.18	-0.01	-0.750			
0.0213	1365.39	4.1010	4.1010	-0.5717	25.18	-0.01	-0.750			
0.0231	1475.68	4.0980	4.0980	-0.5821	25.18	-0.01	-0.750			
0.0248	1588.86	4.0950	4.0949	-0.5936	25.18	-0.01	-0.750			
0.0266	1704.57	4.0920	4.0919	-0.6013	25.18	-0.01	-0.750			
0.0284	1820.31	4.0890	4.0890	-0.6067	25.18	-0.01	-0.750			
0.0303	1937.71	4.0860	4.0861	-0.6143	25.18	-0.01	-0.750			
0.0321	2057.37	4.0830	4.0830	-0.6221	25.18	-0.01	-0.750			
0.0340	2176.43	4.0800	4.0800	-0.6294	25.18	-0.01	-0.750			
0.0359	2297.85	4.0770	4.0770	-0.6361	25.18	-0.01	-0.750			
0.0378	2421.05	4.0740	4.0739	-0.6417	25.18	-0.01	-0.750			
0.0398	2545.60	4.0710	4.0710	-0.6473	25.18	-0.01	-0.750			
0.0417	2670.11	4.0680	4.0680	-0.6545	25.18	-0.01	-0.750			
0.0437	2796.73	4.0650	4.0650	-0.6544	25.18	-0.01	-0.750			
0.0457	2922.51	4.0620	4.0620	-0.6587	25.18	-0.01	-0.750			
0.0476	3048.40	4.0590	4.0590	-0.6630	25.18	-0.01	-0.750			
0.0496	3176.59	4.0560	4.0559	-0.6684	25.18	-0.01	-0.750			
0.0516	3305.52	4.0530	4.0530	-0.6721	25.18	-0.01	-0.750			
0.0537	3434.23	4.0500	4.0500	-0.6780	25.19	-0.00	-0.750			
0.0557	3565.08	4.0470	4.0471	-0.6823	25.19	0.00	-0.750			
0.0578	3698.25	4.0440	4.0439	-0.6888	25.19	0.00	-0.750			
0.0598	3830.23	4.0410	4.0410	-0.6865	25.20	0.01	-0.750			
0.0619	3962.98	4.0380	4.0381	-0.6864	25.20	0.01	-0.750			
0.0640	4095.29	4.0350	4.0351	-0.6875	25.20	0.01	-0.750			
0.0660	4226.59	4.0320	4.0320	-0.6890	25.21	0.02	-0.750			
0.0681	4356.92	4.0290	4.0290	-0.6896	25.21	0.02	-0.750			
0.0702	4490.60	4.0260	4.0259	-0.6929	25.21	0.02	-0.750			
0.0722	4623.90	4.0230	4.0230	-0.6954	25.22	0.03	-0.750			
0.0743	4757.92	4.0200	4.0200	-0.7000	25.22	0.03	-0.750			
0.0765	4893.58	4.0170	4.0170	-0.7013	25.22	0.03	-0.750			
0.0785	5026.73	4.0140	4.0140	-0.7037	25.22	0.03	-0.750			
0.0807	5162.05	4.0110	4.0110	-0.7059	25.23	0.04	-0.750			
0.0828	5298.01	4.0080	4.0080	-0.7074	25.23	0.04	-0.750			
0.0849	5434.38	4.0050	4.0049	-0.7127	25.23	0.04	-0.750			
0.0871	5571.70	4.0020	4.0021	-0.7155	25.23	0.04	-0.750			
0.0892	5709.59	3.9990	3.9990	-0.7164	25.24	0.05	-0.750			
0.0914	5847.29	3.9960	3.9960	-0.7235	25.24	0.05	-0.750			
0.0935	5985.95	3.9930	3.9930	-0.7202	25.25	0.06	-0.750			
0.0957	6126.19	3.9900	3.9900	-0.7218	25.25	0.06	-0.750			
0.0979	6265.31	3.9870	3.9869	-0.7217	25.26	0.07	-0.750			
0.1000	6402.81	3.9840	3.9840	-0.7193	25.26	0.07	-0.750			
0.1022	6540.28	3.9810	3.9810	-0.7211	25.27	0.08	-0.750			
0.1043	6678.22	3.9780	3.9780	-0.7260	25.27	0.08	-0.750			
0.1065	6816.65	3.9750	3.9750	-0.7285	25.27	0.08	-0.750			
0.1087	6959.23	3.9720	3.9720	-0.7353	25.28	0.09	-0.750			
0.1110	7102.39	3.9690	3.9691	-0.7356	25.28	0.09	-0.750			
0.1132	7243.10	3.9660	3.9660	-0.7373	25.28	0.09	-0.750			
0.1154	7384.21	3.9630	3.9631	-0.7396	25.29	0.10	-0.750			
0.1176	7526.32	3.9600	3.9599	-0.7431	25.29	0.10	-0.750			
0.1198	7668.77	3.9570	3.9569	-0.7427	25.29	0.10	-0.750			
0.1221	7813.58	3.9540	3.9540	-0.7431	25.30	0.11	-0.750			
0.1243	7955.91	3.9510	3.9511	-0.7477	25.30	0.11	-0.750			
0.1266	8100.88	3.9480	3.9480	-0.7519	25.30	0.11	-0.750			
0.1288	8244.13	3.9450	3.9449	-0.7516	25.31	0.12	-0.750			
0.1311	8387.35	3.9420	3.9420	-0.7523	25.31	0.12	-0.750			
0.1333	8534.26	3.9390	3.9390	-0.7558	25.32	0.13	-0.750			
0.1356	8679.11	3.9360	3.9360	-0.7551	25.32	0.13	-0.750			
0.1379	8825.17	3.9330	3.9329	-0.7562	25.32	0.13	-0.750			
0.1401	8967.89	3.9300	3.9300	-0.7565	25.33	0.14	-0.750			
0.1424	9112.68	3.9270	3.9269	-0.7584	25.33	0.14	-0.750			
0.1447	9258.88	3.9240	3.9240	-0.7597	25.33	0.14	-0.750			
0.1470	9405.70	3.9210	3.9209	-0.7636	25.34	0.15	-0.750			
0.1493	9552.96	3.9180	3.9182	-0.7663	25.34	0.15	-0.750			
0.1516	9700.81	3.9150	3.9150	-0.7666	25.34	0.15	-0.750			
0.1539	9848.05	3.9120	3.9120	-0.7692	25.35	0.16	-0.750			
0.1562	9994.44	3.9090	3.9090	-0.7679	25.35	0.16	-0.750			
0.1585	10143.09	3.9060	3.9060	-0.7723	25.36	0.17	-0.750			
0.1608	10291.39	3.9030	3.9030	-0.7747	25.36	0.17	-0.750			
0.1631	10440.76	3.9000	3.9000	-0.7752	25.36	0.17	-0.750			
0.1655	10589.59	3.8970	3.8969	-0.7778	25.37	0.18	-0.750			
0.1678	10739.44	3.8940	3.8940	-0.7792	25.37	0.18	-0.750			
0.1701	10888.69	3.8910	3.8910	-0.7795	25.37	0.18	-0.750			
0.1725	11039.37	3.8880	3.8879	-0.7807	25.38	0.19	-0.750			
0.1748	11189.70	3.8850	3.8850	-0.7793	25.38	0.19	-0.750			
0.1772	11338.13	3.8820	3.8820	-0.7810	25.39	0.20	-0.750			
0.1795	11488.28	3.8790	3.8790	-0.7830	25.39	0.20	-0.750			
0.1818	11638.40	3.8760	3.8760	-0.7823	25.39	0.20	-0.750			
0.1842	11789.36	3.8730	3.8730	-0.7832	25.40	0.21	-0.750			
0.1866	11940.28	3.8700	3.8700	-0.7838	25.40	0.21	-0.750			
0.1889	12091.34	3.8670	3.8670	-0.7821	25.40	0.21	-0.750			
0.1913	12241.66	3.8640	3.8640	-0.7810	25.40	0.21	-0.750			
0.1936	12390.43	3.8610	3.8610	-0.7771	25.40	0.21	-0.750			
0.1959	12539.36	3.8580	3.8580	-0.7781	25.40	0.21	-0.750			
0.1983	12689.29	3.8550	3.8550	-0.7760	25.40	0.21	-0.750			
0.2006	12837.74	3.8520	3.8520	-0.7754	25.40	0.21	-0.750			
0.2029	12985.72	3.8490	3.8491	-0.7762	25.41	0.22	-0.750			
0.2052	13135.72	3.8460	3.8460	-0.7762	25.41	0.22	-0.750			
0.2076	13285.18	3.8430	3.8429	-0.7715	25.41	0.22	-0.750			
0.2099	13433.30	3.8400	3.8400	-0.7682	25.42	0.23	-0.750			
0.2122	13579.83	3.8370	3.8371	-0.7657	25.42	0.23	-0.750			
0.2145	13727.02	3.8340	3.8340	-0.7660	25.43	0.24	-0.750			
0.2168	13872.91	3.8310	3.8309	-0.7627	25.43	0.24	-0.750			
0.2190	14017.62	3.8280	3.8280	-0.7599	25.43	0.24	-0.750			
0.2213	14164.69	3.8250	3.8250	-0.7602	25.44	0.25	-0.750			
0.2236	14312.59	3.8220	3.8220	-0.7601	25.44	0.25	-0.750			
0.2259	14457.68	3.8190	3.8190	-0.7549	25.44	0.25	-0.750			
0.2282	14601.97	3.8160	3.8160	-0.7490	25.45	0.26	-0.750			
0.2304	14746.50	3.8130	3.8130	-0.7450	25.45	0.26	-0.750			
0.2326	14888.15	3.8100	3.8100	-0.7402	25.45	0.26	-0.750			
0.2348	15030.13	3.8070	3.8070	-0.7357	25.46	0.27	-0.750			
0.2370	15170.67	3.8040	3.8040	-0.7320	25.46	0.27	-0.750			
0.2392	15310.91	3.8010	3.8009	-0.7270	25.46	0.27	-0.750			
0.2414	15449.17	3.7980	3.7980	-0.7262	25.46	0.27	-0.750			
0.2436	15587.84	3.7950	3.7950	-0.7209	25.46	0.27	-0.750			
0.2457	15727.54	3.7920	3.7920	-0.7223	25.46	0.27	-0.750			
0.2479	15865.61	3.7890	3.7889	-0.7155	25.46	0.27	-0.750			
0.2501	16003.39	3.7860	3.7859	-0.7119	25.46	0.27	-0.750			
0.2522	16139.12	3.7830	3.7830	-0.7062	25.47	0.28	-0.750			
0.2543	16273.99	3.7800	3.7800	-0.7051	25.47	0.28	-0.750			
0.2564	16407.46	3.7770	3.7770	-0.7017	25.47	0.28	-0.750			
0.2585	16542.44	3.7740	3.7740	-0.7064	25.48	0.29	-0.750			
0.2606	16677.26	3.7710	3.7711	-0.7078	25.48	0.29	-0.750			
0.2627	16814.46	3.7680	3.7679	-0.7096	25.48	0.29	-0.750			
0.2649	16950.84	3.7650	3.7650	-0.7145	25.49	0.30	-0.750			
0.2670	17088.56	3.7620	3.7621	-0.7200	25.49	0.30	-0.750			
0.2692	17226.91	3.7590	3.7589	-0.7212	25.49	0.30	-0.750			
0.2714	17366.64	3.7560	3.7560	-0.7246	25.50	0.31	-0.750			
0.2735	17505.63	3.7530	3.7532	-0.7295	25.50	0.31	-0.750			
0.2757	17645.48	3.7500	3.7499	-0.7358	25.50	0.31	-0.750			
0.2779	17787.05	3.7470	3.7470	-0.7438	25.50	0.31	-0.750			
0.2802	17929.76	3.7440	3.7440	-0.7532	25.50	0.31	-0.750			
0.2824	18074.88	3.7410	3.7410	-0.7627	25.50	0.31	-0.750			
0.2847	18223.92	3.7380	3.7380	-0.7760	25.50	0.31	-0.750			
0.2871	18373.55	3.7350	3.7351	-0.7863	25.50	0.31	-0.750			
0.2894	18524.68	3.7320	3.7320	-0.7972	25.50	0.31	-0.750			
0.2919	18679.75	3.7290	3.7289	-0.8059	25.50	0.31	-0.750			
0.2943	18833.89	3.7260	3.7260	-0.8158	25.51	0.32	-0.750			
0.2968	18992.99	3.7230	3.7230	-0.8315	25.51	0.32	-0.750			
0.2993	19153.51	3.7200	3.7200	-0.8424	25.51	0.32	-0.750			
0.3018	19315.24	3.7170	3.7170	-0.8581	25.51	0.32	-0.750			
0.3044	19481.09	3.7140	3.7140	-0.8692	25.51	0.32	-0.750			
0.3070	19650.37	3.7110	3.7109	-0.8810	25.51	0.32	-0.750			
0.3097	19820.90	3.7080	3.7080	-0.8987	25.51	0.32	-0.750			
0.3124	19993.74	3.7050	3.7051	-0.9095	25.51	0.32	-0.750			
0.3152	20170.04	3.7020	3.7019	-0.9291	25.50	0.31	-0.750			
0.3180	20350.62	3.6990	3.6989	-0.9417	25.50	0.31	-0.750			
0.3208	20531.04	3.6960	3.6961	-0.9553	25.49	0.30	-0.750			
0.3237	20717.97	3.6930	3.6933	-0.9737	25.49	0.30	-0.750			
0.3267	20907.20	3.6900	3.6899	-0.9936	25.49	0.30	-0.750			
0.3297	21098.30	3.6870	3.6870	-1.0068	25.49	0.30	-0.750			
0.3327	21292.38	3.6840	3.6840	-1.0211	25.48	0.29	-0.750			
0.3358	21491.80	3.6810	3.6810	-1.0421	25.48	0.29	-0.750			
0.3390	21693.65	3.6780	3.6780	-1.0612	25.48	0.29	-0.750			
0.3422	21898.27	3.6750	3.6749	-1.0673	25.47	0.28	-0.750			
0.3454	22103.12	3.6720	3.6720	-1.0846	25.47	0.28	-0.750			
0.3486	22310.61	3.6690	3.6694	-1.1039	25.46	0.27	-0.750			
0.3520	22526.58	3.6660	3.6657	-1.1189	25.46	0.27	-0.750			
0.3553	22742.07	3.6630	3.6630	-1.1392	25.45	0.26	-0.750			
0.3587	22959.53	3.6600	3.6599	-1.1661	25.45	0.26	-0.750			
0.3623	23188.79	3.6570	3.6571	-1.2031	25.45	0.26	-0.750			
0.3660	23423.94	3.6540	3.6538	-1.2247	25.44	0.25	-0.750			
0.3697	23658.91	3.6510	3.6510	-1.2429	25.43	0.24	-0.750			
0.3734	23899.43	3.6480	3.6481	-1.2624	25.42	0.23	-0.750			
0.3773	24150.00	3.6450	3.6449	-1.2941	25.41	0.22	-0.750			
0.3812	24397.74	3.6420	3.6420	-1.3064	25.41	0.22	-0.750			
0.3851	24649.08	3.6390	3.6391	-1.3299	25.40	0.21	-0.750			
0.3892	24907.73	3.6360	3.6360	-1.3516	25.40	0.21	-0.750			
0.3933	25172.02	3.6330	3.6329	-1.3705	25.39	0.20	-0.750			
0.3974	25434.76	3.6300	3.6300	-1.3928	25.38	0.19	-0.750			
0.4016	25703.23	3.6270	3.6270	-1.4126	25.38	0.19	-0.750			
0.4059	25975.58	3.6240	3.6240	-1.4451	25.37	0.18	-0.750			
0.4102	26252.96	3.6210	3.6210	-1.4847	25.37	0.18	-0.750			
0.4147	26543.35	3.6180	3.6179	-1.5016	25.37	0.18	-0.750			
0.4193	26837.52	3.6150	3.6149	-1.5457	25.36	0.17	-0.750			
0.4240	27136.09	3.6120	3.6122	-1.5759	25.36	0.17	-0.750	0.391	0.562	
0.4288	27440.82	3.6090	3.6090	-1.5960	25.36	0.17	-0.750			
0.4336	27753.49	3.6060	3.6059	-1.6242	25.35	0.16	-0.750			
0.4385	28064.01	3.6030	3.6028	-1.6549	25.35	0.16	-0.750			
0.4435	28382.36	3.6000	3.6001	-1.6902	25.34	0.15	-0.750			
0.4487	28715.21	3.5970	3.5971	-1.7255	25.34	0.15	-0.750			
0.4539	29047.27	3.5940	3.5940	-1.7614	25.34	0.15	-0.750			
0.4592	29389.74	3.5910	3.5910	-1.7821	25.33	0.14	-0.750			
0.4646	29737.46	3.5880	3.5881	-1.8306	25.32	0.13	-0.750			
0.4702	30092.19	3.5850	3.5852	-1.8619	25.32	0.13	-0.750			
0.4758	30448.30	3.5820	3.5820	-1.8905	25.31	0.12	-0.750			
0.4815	30814.17	3.5790	3.5790	-1.9254	25.31	0.12	-0.750			
0.4874	31192.45	3.5760	3.5760	-1.9577	25.31	0.12	-0.750			
0.4933	31571.00	3.5730	3.5730	-1.9854	25.32	0.13	-0.750			
0.4993	31954.62	3.5700	3.5700	-2.0085	25.32	0.13	-0.750			
0.5053	32336.90	3.5670	3.5670	-2.0245	25.31	0.12	-0.750			
0.5114	32731.37	3.5640	3.5640	-2.0338	25.31	0.12	-0.750			
0.5175	33121.90	3.5610	3.5609	-2.0510	25.30	0.11	-0.750			
0.5237	33517.06	3.5580	3.5578	-2.0674	25.30	0.11	-0.750			
0.5300	33918.22	3.5550	3.5547	-2.0736	25.31	0.12	-0.750			
0.5362	34316.42	3.5520	3.5520	-2.0775	25.32	0.13	-0.750			
0.5424	34715.26	3.5490	3.5489	-2.0704	25.32	0.13	-0.750			
0.5486	35113.24	3.5460	3.5460	-2.0611	25.31	0.12	-0.750			
0.5549	35510.88	3.5430	3.5430	-2.0543	25.31	0.12	-0.750			
0.5611	35907.59	3.5400	3.5398	-2.0480	25.32	0.13	-0.750			
0.5672	36297.69	3.5370	3.5370	-2.0290	25.32	0.13	-0.750			
0.5733	36690.49	3.5340	3.5340	-2.0154	25.32	0.13	-0.750			
0.5793	37077.15	3.5310	3.5310	-1.9865	25.33	0.14	-0.750			
0.5852	37455.46	3.5280	3.5280	-1.9560	25.34	0.15	-0.750			
0.5911	37828.82	3.5250	3.5250	-1.9232	25.34	0.15	-0.750			
0.5968	38194.44	3.5220	3.5220	-1.8899	25.35	0.16	-0.750			
0.6024	38553.40	3.5190	3.5190	-1.8604	25.36	0.17	-0.750			
0.6080	38909.22	3.5160	3.5158	-1.8230	25.36	0.17	-0.750			
0.6134	39255.70	3.5130	3.5130	-1.7990	25.38	0.19	-0.750			
0.6188	39602.84	3.5100	3.5100	-1.7545	25.39	0.20	-0.750			
0.6240	39935.41	3.5070	3.5070	-1.6988	25.40	0.21	-0.750			
0.6290	40258.08	3.5040	3.5039	-1.6392	25.41	0.22	-0.750			
0.6339	40567.00	3.5010	3.5012	-1.5972	25.42	0.23	-0.750			
0.6385	40866.85	3.4980	3.4980	-1.5470	25.43	0.24	-0.750			
0.6431	41158.99	3.4950	3.4950	-1.4998	25.44	0.25	-0.750			
0.6475	41437.81	3.4920	3.4920	-1.4642	25.46	0.27	-0.750			
0.6518	41718.29	3.4890	3.4890	-1.4335	25.47	0.28	-0.750			
0.6561	41991.52	3.4860	3.4858	-1.3976	25.48	0.29	-0.750			
0.6603	42257.08	3.4830	3.4831	-1.3645	25.50	0.31	-0.750			
0.6643	42515.43	3.4800	3.4800	-1.3131	25.51	0.32	-0.750			
0.6682	42767.10	3.4770	3.4770	-1.2732	25.52	0.33	-0.750			
0.6720	43006.60	3.4740	3.4740	-1.2297	25.53	0.34	-0.750			
0.6755	43232.87	3.4710	3.4710	-1.1815	25.55	0.36	-0.750			
0.6790	43458.61	3.4680	3.4679	-1.1453	25.57	0.38	-0.750			
0.6824	43674.23	3.4650	3.4650	-1.1004	25.59	0.40	-0.750			
0.6856	43880.88	3.4620	3.4622	-1.0638	25.61	0.42	-0.750			
0.6888	44082.63	3.4590	3.4589	-1.0393	25.62	0.43	-0.750			
0.6918	44277.47	3.4560	3.4559	-1.0023	25.63	0.44	-0.750			
0.6948	44466.02	3.4530	3.4529	-0.9699	25.64	0.45	-0.750			
0.6976	44648.07	3.4500	3.4500	-0.9403	25.66	0.47	-0.750			
0.7004	44827.92	3.4470	3.4469	-0.9225	25.67	0.48	-0.750			
0.7032	45002.26	3.4440	3.4439	-0.8989	25.67	0.48	-0.750			
0.7058	45168.33	3.4410	3.4410	-0.8761	25.68	0.49	-0.750			
0.7083	45333.24	3.4380	3.4380	-0.8628	25.69	0.50	-0.750			
0.7109	45499.89	3.4350	3.4350	-0.8596	25.70	0.51	-0.750			
0.7135	45663.13	3.4320	3.4320	-0.8570	25.71	0.52	-0.750			
0.7160	45826.00	3.4290	3.4291	-0.8569	25.72	0.53	-0.750			
0.7186	45990.55	3.4260	3.4259	-0.8588	25.73	0.54	-0.750			
0.7212	46155.69	3.4230	3.4230	-0.8637	25.74	0.55	-0.750			
0.7238	46321.63	3.4200	3.4201	-0.8694	25.75	0.56	-0.750			
0.7264	46489.30	3.4170	3.4170	-0.8762	25.76	0.57	-0.750			
0.7290	46659.06	3.4140	3.4139	-0.8782	25.77	0.58	-0.750			
0.7317	46828.29	3.4110	3.4110	-0.8782	25.78	0.59	-0.750			
0.7344	46998.53	3.4080	3.4080	-0.8783	25.78	0.59	-0.750			
0.7370	47167.24	3.4050	3.4051	-0.8734	25.79	0.60	-0.750			
0.7396	47334.96	3.4020	3.4020	-0.8653	25.80	0.61	-0.750			
0.7422	47500.80	3.3990	3.3990	-0.8518	25.80	0.61	-0.750			
0.7447	47663.53	3.3960	3.3960	-0.8393	25.81	0.62	-0.750			
0.7473	47824.59	3.3930	3.3930	-0.8224	25.82	0.63	-0.750			
0.7497	47980.79	3.3900	3.3900	-0.8022	25.82	0.63	-0.750			
0.7521	48133.11	3.3870	3.3870	-0.7823	25.83	0.64	-0.750			
0.7544	48281.04	3.3840	3.3840	-0.7604	25.84	0.65	-0.750			
0.7567	48425.75	3.3810	3.3810	-0.7393	25.85	0.66	-0.750			
0.7588	48565.39	3.3780	3.3780	-0.7153	25.85	0.66	-0.750			
0.7609	48699.86	3.3750	3.3750	-0.6940	25.86	0.67	-0.750			
0.7630	48831.06	3.3720	3.3720	-0.6752	25.86	0.67	-0.750			
0.7650	48958.88	3.3690	3.3690	-0.6528	25.87	0.68	-0.750			
0.7669	49081.71	3.3660	3.3660	-0.6324	25.87	0.68	-0.750			
0.7688	49201.12	3.3630	3.3630	-0.6107	25.88	0.69	-0.750			
0.7706	49316.70	3.3600	3.3600	-0.5935	25.88	0.69	-0.750			
0.7723	49428.74	3.3570	3.3569	-0.5739	25.89	0.70	-0.750			
0.7740	49536.23	3.3540	3.3541	-0.5555	25.89	0.70	-0.750			
0.7756	49641.38	3.3510	3.3510	-0.5395	25.90	0.71	-0.750			
0.7772	49743.68	3.3480	3.3480	-0.5257	25.90	0.71	-0.750			
0.7788	49842.76	3.3450	3.3451	-0.5093	25.91	0.72	-0.750			
0.7803	49939.06	3.3420	3.3419	-0.4943	25.92	0.73	-0.750			
0.7817	50031.80	3.3390	3.3390	-0.4786	25.92	0.73	-0.750			
0.7832	50121.96	3.3360	3.3361	-0.4653	25.93	0.74	-0.750			
0.7845	50209.56	3.3330	3.3329	-0.4521	25.93	0.74	-0.750			
0.7859	50295.67	3.3300	3.3300	-0.4400	25.94	0.75	-0.750			
0.7872	50378.80	3.3270	3.3270	-0.4282	25.94	0.75	-0.750			
0.7884	50460.16	3.3240	3.3240	-0.4169	25.95	0.76	-0.750			
0.7897	50539.01	3.3210	3.3210	-0.4061	25.95	0.76	-0.750			
0.7909	50615.11	3.3180	3.3180	-0.3948	25.96	0.77	-0.750			
0.7920	50689.73	3.3150	3.3150	-0.3842	25.96	0.77	-0.750			
0.7932	50762.77	3.3120	3.3120	-0.3744	25.97	0.78	-0.750			
0.7943	50833.46	3.3090	3.3090	-0.3669	25.97	0.78	-0.750			
0.7954	50903.27	3.3060	3.3060	-0.3571	25.98	0.79	-0.750			
0.7964	50971.30	3.3030	3.3030	-0.3487	25.98	0.79	-0.750			
0.7975	51037.06	3.3000	3.3000	-0.3399	25.98	0.79	-0.750			
0.7985	51100.96	3.2970	3.2970	-0.3324	25.99	0.80	-0.750			
0.7994	51164.07	3.2940	3.2939	-0.3260	25.99	0.80	-0.750			
0.8004	51225.79	3.2910	3.2910	-0.3194	26.00	0.81	-0.750			
0.8013	51286.24	3.2880	3.2880	-0.3126	26.01	0.82	-0.750			
0.8023	51346.17	3.2850	3.2850	-0.3072	26.01	0.82	-0.750			
0.8032	51405.06	3.2820	3.2820	-0.3013	26.02	0.83	-0.750			
0.8041	51462.28	3.2790	3.2790	-0.2940	26.02	0.83	-0.750			
0.8050	51517.79	3.2760	3.2760	-0.2868	26.03	0.84	-0.750			
0.8058	51572.17	3.2730	3.2730	-0.2813	26.04	0.85	-0.750			
0.8066	51625.03	3.2700	3.2701	-0.2758	26.04	0.85	-0.750			
0.8075	51677.45	3.2670	3.2670	-0.2711	26.05	0.86	-0.750			
0.8083	51729.17	3.2640	3.2639	-0.2674	26.05	0.86	-0.750			
0.8091	51780.22	3.2610	3.2610	-0.2628	26.06	0.87	-0.750			
0.8099	51830.44	3.2580	3.2580	-0.2588	26.06	0.87	-0.750			
0.8106	51879.69	3.2550	3.2550	-0.2541	26.07	0.88	-0.750			
0.8114	51928.16	3.2520	3.2521	-0.2499	26.07	0.88	-0.750			
0.8121	51975.22	3.2490	3.2490	-0.2454	26.08	0.89	-0.750			
0.8128	52021.70	3.2460	3.2460	-0.2413	26.08	0.89	-0.750			
0.8136	52067.75	3.2430	3.2430	-0.2377	26.09	0.90	-0.750			
0.8143	52112.85	3.2400	3.2400	-0.2337	26.09	0.90	-0.750			
0.8150	52157.30	3.2370	3.2370	-0.2312	26.10	0.91	-0.750			
0.8156	52201.42	3.2340	3.2340	-0.2283	26.10	0.91	-0.750			
0.8163	52245.02	3.2310	3.2310	-0.2245	26.11	0.92	-0.750			
0.8170	52287.77	3.2280	3.2279	-0.2214	26.11	0.92	-0.750			
0.8177	52330.02	3.2250	3.2250	-0.2179	26.12	0.93	-0.750			
0.8183	52371.52	3.2220	3.2221	-0.2145	26.12	0.93	-0.750			
0.8189	52412.49	3.2190	3.2190	-0.2117	26.13	0.94	-0.750			
0.8196	52452.61	3.2160	3.2160	-0.2092	26.13	0.94	-0.750			
0.8202	52492.16	3.2130	3.2130	-0.2059	26.13	0.94	-0.750			
0.8208	52531.51	3.2100	3.2100	-0.2041	26.14	0.95	-0.750			
0.8214	52570.59	3.2070	3.2070	-0.2027	26.14	0.95	-0.750			
0.8220	52609.40	3.2040	3.2040	-0.1997	26.15	0.96	-0.750			
0.8226	52647.74	3.2010	3.2011	-0.1980	26.15	0.96	-0.750			
0.8232	52685.42	3.1980	3.1979	-0.1954	26.16	0.97	-0.750			
0.8238	52722.69	3.1950	3.1950	-0.1928	26.16	0.97	-0.750			
0.8244	52759.34	3.1920	3.1919	-0.1903	26.17	0.98	-0.750			
0.8249	52795.52	3.1890	3.1891	-0.1883	26.17	0.98	-0.750			
0.8255	52831.48	3.1860	3.1860	-0.1864	26.18	0.99	-0.750			
0.8260	52866.87	3.1830	3.1830	-0.1844	26.18	0.99	-0.750			
0.8266	52902.40	3.1800	3.1800	-0.1829	26.19	1.00	-0.750			
0.8271	52937.28	3.1770	3.1770	-0.1805	26.19	1.00	-0.750			
0.8277	52971.63	3.1740	3.1740	-0.1789	26.20	1.01	-0.750			
0.8282	53005.81	3.1710	3.1710	-0.1772	26.20	1.01	-0.750			
0.8287	53039.65	3.1680	3.1680	-0.1754	26.21	1.02	-0.750			
0.8293	53073.19	3.1650	3.1650	-0.1731	26.21	1.02	-0.750			
0.8298	53106.32	3.1620	3.1620	-0.1713	26.22	1.03	-0.750			
0.8303	53139.00	3.1590	3.1590	-0.1692	26.22	1.03	-0.750			
0.8308	53171.29	3.1560	3.1560	-0.1676	26.23	1.04	-0.750			
0.8313	53203.29	3.1530	3.1530	-0.1658	26.23	1.04	-0.750			
0.8318	53234.52	3.1500	3.1499	-0.1638	26.24	1.05	-0.750			
0.8323	53265.89	3.1470	3.1470	-0.1630	26.24	1.05	-0.750			
0.8328	53297.06	3.1440	3.1440	-0.1618	26.25	1.06	-0.750			
0.8333	53328.18	3.1410	3.1410	-0.1609	26.25	1.06	-0.750			
0.8337	53358.97	3.1380	3.1379	-0.1597	26.26	1.07	-0.750			
0.8342	53389.55	3.1350	3.1351	-0.1582	26.26	1.07	-0.750			
0.8347	53419.91	3.1320	3.1320	-0.1565	26.27	1.08	-0.750			
0.8352	53450.02	3.1290	3.1289	-0.1548	26.27	1.08	-0.750			
0.8356	53479.45	3.1260	3.1260	-0.1523	26.27	1.08	-0.750			
0.8361	53508.29	3.1230	3.1230	-0.1511	26.28	1.09	-0.750			
0.8365	53537.03	3.1200	3.1199	-0.1499	26.28	1.09	-0.750			
0.8370	53565.47	3.1170	3.1171	-0.1486	26.29	1.10	-0.750			
0.8374	53593.95	3.1140	3.1138	-0.1481	26.29	1.10	-0.750			
0.8378	53622.38	3.1110	3.1110	-0.1464	26.30	1.11	-0.750			
0.8383	53650.45	3.1080	3.1081	-0.1459	26.31	1.12	-0.750			
0.8387	53678.56	3.1050	3.1050	-0.1451	26.31	1.12	-0.750			
0.8392	53706.21	3.1020	3.1020	-0.1441	26.32	1.13	-0.750			
0.8396	53733.54	3.0990	3.0989	-0.1428	26.32	1.13	-0.750			
0.8400	53760.99	3.0960	3.0960	-0.1417	26.33	1.14	-0.750			
0.8404	53788.09	3.0930	3.0930	-0.1406	26.33	1.14	-0.750			
0.8409	53815.02	3.0900	3.0900	-0.1392	26.34	1.15	-0.750			
0.8413	53841.81	3.0870	3.0870	-0.1386	26.34	1.15	-0.750			
0.8417	53868.02	3.0840	3.0840	-0.1370	26.35	1.16	-0.750			
0.8421	53894.25	3.0810	3.0809	-0.1362	26.35	1.16	-0.750			
0.8425	53920.26	3.0780	3.0780	-0.1352	26.36	1.17	-0.750			
0.8429	53946.23	3.0750	3.0750	-0.1340	26.36	1.17	-0.750			
0.8433	53972.01	3.0720	3.0720	-0.1331	26.37	1.18	-0.750			
0.8437	53997.38	3.0690	3.0691	-0.1321	26.37	1.18	-0.750			
0.8441	54022.63	3.0660	3.0661	-0.1311	26.38	1.19	-0.750			
0.8445	54047.54	3.0630	3.0629	-0.1298	26.38	1.19	-0.750			
0.8449	54072.33	3.0600	3.0600	-0.1288	26.39	1.20	-0.750			
0.8453	54096.99	3.0570	3.0570	-0.1280	26.39	1.20	-0.750			
0.8456	54121.51	3.0540	3.0541	-0.1270	26.40	1.21	-0.750			
0.8460	54145.77	3.0510	3.0510	-0.1261	26.40	1.21	-0.750			
0.8464	54170.00	3.0480	3.0480	-0.1254	26.41	1.22	-0.750			
0.8468	54193.79	3.0450	3.0451	-0.1245	26.41	1.22	-0.750			
0.8472	54217.63	3.0420	3.0420	-0.1239	26.42	1.23	-0.750			
0.8475	54241.38	3.0390	3.0390	-0.1231	26.42	1.23	-0.750			
0.8479	54264.93	3.0360	3.0360	-0.1224	26.43	1.24	-0.750			
0.8483	54288.35	3.0330	3.0330	-0.1218	26.43	1.24	-0.750			
0.8486	54311.74	3.0300	3.0299	-0.1212	26.44	1.25	-0.750			
0.8490	54334.95	3.0270	3.0271	-0.1204	26.44	1.25	-0.750			
0.8493	54358.00	3.0240	3.0239	-0.1196	26.45	1.26	-0.750			
0.8497	54380.84	3.0210	3.0210	-0.1191	26.45	1.26	-0.750			
0.8501	54403.53	3.0180	3.0180	-0.1185	26.46	1.27	-0.750			
0.8504	54426.47	3.0150	3.0150	-0.1176	26.46	1.27	-0.750			
0.8508	54448.96	3.0120	3.0119	-0.1166	26.47	1.28	-0.750			
0.8511	54471.30	3.0090	3.0091	-0.1155	26.47	1.28	-0.750			
0.8515	54493.37	3.0060	3.0060	-0.1143	26.48	1.29	-0.751			
0.8518	54515.19	3.0030	3.0030	-0.1105	26.48	1.29	-0.751			
