Ah_balance (normalized)	Ah_balance (mAh)	Voltage - fit (V)	Voltage -  interpolate (V)	dQ/dV (1/V)	Temperature (°C)	Temperature - diff (°C)	Current (C)	R_DC 0ms (mOhm)	R_DC 50ms (mOhm)	R_DC 50 ms PEC (mOhm)
0.0004	24.15	4.1600	4.1598	-0.1240	25.93	0.02	-0.750			
0.0008	51.99	4.1570	4.1569	-0.1661	25.93	0.02	-0.750			
0.0014	89.71	4.1540	4.1539	-0.2061	25.93	0.02	-0.750			
0.0021	132.89	4.1510	4.1509	-0.2425	25.93	0.02	-0.750			
0.0029	182.99	4.1480	4.1481	-0.2790	25.93	0.02	-0.750			
0.0038	240.08	4.1450	4.1451	-0.3182	25.92	0.01	-0.750			
0.0048	305.48	4.1420	4.1419	-0.3486	25.92	0.01	-0.750			
0.0059	376.09	4.1390	4.1390	-0.3803	25.92	0.01	-0.750			
0.0071	452.84	4.1360	4.1360	-0.4105	25.91	0.00	-0.750			
0.0084	535.15	4.1330	4.1331	-0.4388	25.91	-0.00	-0.750			
0.0097	622.48	4.1300	4.1299	-0.4647	25.90	-0.01	-0.750			
0.0112	713.83	4.1270	4.1270	-0.4896	25.90	-0.01	-0.750			
0.0127	811.10	4.1240	4.1240	-0.5107	25.89	-0.02	-0.750			
0.0143	912.28	4.1210	4.1210	-0.5365	25.89	-0.02	-0.750			
0.0159	1018.56	4.1180	4.1180	-0.5528	25.88	-0.03	-0.750			
0.0176	1126.66	4.1150	4.1151	-0.5680	25.88	-0.03	-0.750			
0.0193	1237.98	4.1120	4.1118	-0.5812	25.87	-0.04	-0.750			
0.0211	1350.82	4.1090	4.1092	-0.5910	25.87	-0.04	-0.750			
0.0229	1464.85	4.1060	4.1060	-0.6000	25.87	-0.04	-0.750			
0.0247	1580.89	4.1030	4.1030	-0.6105	25.86	-0.05	-0.750			
0.0266	1699.63	4.1000	4.1000	-0.6159	25.86	-0.05	-0.750			
0.0284	1819.44	4.0970	4.0969	-0.6264	25.86	-0.05	-0.750			
0.0303	1940.86	4.0940	4.0941	-0.6323	25.85	-0.06	-0.750			
0.0322	2062.84	4.0910	4.0910	-0.6399	25.85	-0.06	-0.750			
0.0342	2186.11	4.0880	4.0879	-0.6474	25.85	-0.06	-0.750			
0.0361	2310.56	4.0850	4.0850	-0.6537	25.85	-0.06	-0.750			
0.0381	2436.44	4.0820	4.0820	-0.6587	25.85	-0.06	-0.750			
0.0401	2564.99	4.0790	4.0790	-0.6686	25.84	-0.07	-0.750			
0.0421	2695.07	4.0760	4.0758	-0.6730	25.84	-0.07	-0.750			
0.0441	2825.42	4.0730	4.0730	-0.6766	25.84	-0.07	-0.750			
0.0462	2955.34	4.0700	4.0701	-0.6780	25.84	-0.07	-0.750			
0.0482	3086.06	4.0670	4.0670	-0.6792	25.84	-0.07	-0.750			
0.0502	3215.88	4.0640	4.0640	-0.6839	25.83	-0.08	-0.750			
0.0523	3345.93	4.0610	4.0610	-0.6814	25.83	-0.08	-0.750			
0.0544	3479.07	4.0580	4.0580	-0.6888	25.83	-0.08	-0.750			
0.0564	3611.26	4.0550	4.0549	-0.6938	25.82	-0.09	-0.750			
0.0585	3744.63	4.0520	4.0522	-0.6972	25.82	-0.09	-0.750			
0.0606	3879.27	4.0490	4.0489	-0.7000	25.82	-0.09	-0.750			
0.0627	4014.06	4.0460	4.0460	-0.7036	25.82	-0.09	-0.750			
0.0648	4149.21	4.0430	4.0430	-0.7021	25.82	-0.09	-0.750			
0.0670	4285.43	4.0400	4.0400	-0.7061	25.82	-0.09	-0.750			
0.0691	4420.47	4.0370	4.0371	-0.7085	25.82	-0.09	-0.750			
0.0712	4556.19	4.0340	4.0340	-0.7092	25.82	-0.09	-0.750			
0.0733	4692.77	4.0310	4.0310	-0.7124	25.82	-0.09	-0.750			
0.0755	4829.35	4.0280	4.0280	-0.7195	25.82	-0.09	-0.750			
0.0776	4969.31	4.0250	4.0250	-0.7183	25.82	-0.09	-0.750			
0.0798	5108.44	4.0220	4.0219	-0.7162	25.82	-0.09	-0.750			
0.0820	5245.57	4.0190	4.0191	-0.7138	25.82	-0.09	-0.750			
0.0841	5380.81	4.0160	4.0159	-0.7147	25.82	-0.09	-0.750			
0.0862	5517.69	4.0130	4.0130	-0.7145	25.82	-0.09	-0.750			
0.0883	5653.72	4.0100	4.0099	-0.7221	25.82	-0.09	-0.750			
0.0905	5791.85	4.0070	4.0070	-0.7317	25.82	-0.09	-0.750			
0.0928	5936.85	4.0040	4.0038	-0.7344	25.82	-0.09	-0.750			
0.0950	6079.35	4.0010	4.0012	-0.7374	25.82	-0.09	-0.750			
0.0972	6221.33	3.9980	3.9979	-0.7346	25.82	-0.09	-0.750			
0.0994	6360.78	3.9950	3.9950	-0.7347	25.82	-0.09	-0.750			
0.1016	6502.22	3.9920	3.9919	-0.7421	25.82	-0.09	-0.750			
0.1038	6642.57	3.9890	3.9890	-0.7335	25.82	-0.09	-0.750			
0.1060	6786.25	3.9860	3.9859	-0.7354	25.82	-0.09	-0.750			
0.1082	6927.66	3.9830	3.9833	-0.7421	25.82	-0.09	-0.750			
0.1105	7069.48	3.9800	3.9798	-0.7443	25.82	-0.09	-0.750			
0.1127	7211.93	3.9770	3.9769	-0.7509	25.83	-0.08	-0.750			
0.1149	7356.04	3.9740	3.9739	-0.7468	25.83	-0.08	-0.750			
0.1172	7502.08	3.9710	3.9711	-0.7550	25.83	-0.08	-0.750			
0.1195	7648.61	3.9680	3.9680	-0.7580	25.84	-0.07	-0.750			
0.1218	7793.51	3.9650	3.9649	-0.7606	25.84	-0.07	-0.750			
0.1240	7938.05	3.9620	3.9619	-0.7608	25.84	-0.07	-0.750			
0.1263	8083.37	3.9590	3.9590	-0.7617	25.84	-0.07	-0.750			
0.1286	8230.38	3.9560	3.9560	-0.7635	25.83	-0.08	-0.750			
0.1309	8379.16	3.9530	3.9530	-0.7673	25.83	-0.08	-0.750			
0.1332	8526.42	3.9500	3.9501	-0.7654	25.83	-0.08	-0.750			
0.1355	8672.81	3.9470	3.9469	-0.7659	25.83	-0.08	-0.750			
0.1378	8818.49	3.9440	3.9441	-0.7677	25.84	-0.07	-0.750			
0.1401	8966.96	3.9410	3.9410	-0.7724	25.84	-0.07	-0.750			
0.1424	9115.88	3.9380	3.9379	-0.7779	25.85	-0.06	-0.750			
0.1448	9266.28	3.9350	3.9350	-0.7795	25.85	-0.06	-0.750			
0.1471	9416.58	3.9320	3.9320	-0.7825	25.85	-0.06	-0.750			
0.1495	9567.05	3.9290	3.9290	-0.7832	25.85	-0.06	-0.750			
0.1518	9717.05	3.9260	3.9260	-0.7826	25.86	-0.05	-0.750			
0.1542	9867.34	3.9230	3.9230	-0.7815	25.86	-0.05	-0.750			
0.1565	10017.68	3.9200	3.9200	-0.7819	25.86	-0.05	-0.750			
0.1589	10166.92	3.9170	3.9171	-0.7821	25.86	-0.05	-0.750			
0.1612	10315.79	3.9140	3.9140	-0.7899	25.86	-0.05	-0.750			
0.1636	10468.19	3.9110	3.9109	-0.7909	25.86	-0.05	-0.750			
0.1660	10621.19	3.9080	3.9080	-0.7913	25.87	-0.04	-0.750			
0.1683	10773.12	3.9050	3.9050	-0.7963	25.87	-0.04	-0.750			
0.1708	10928.03	3.9020	3.9022	-0.8012	25.87	-0.04	-0.750			
0.1732	11082.03	3.8990	3.8989	-0.8016	25.87	-0.04	-0.750			
0.1755	11234.75	3.8960	3.8960	-0.8004	25.88	-0.03	-0.750			
0.1779	11388.05	3.8930	3.8931	-0.8021	25.88	-0.03	-0.750			
0.1804	11544.01	3.8900	3.8899	-0.8069	25.89	-0.02	-0.750			
0.1828	11699.16	3.8870	3.8870	-0.8011	25.89	-0.02	-0.750			
0.1852	11850.26	3.8840	3.8840	-0.8026	25.89	-0.02	-0.750			
0.1876	12004.66	3.8810	3.8810	-0.8092	25.89	-0.02	-0.750			
0.1900	12160.95	3.8780	3.8779	-0.8108	25.89	-0.02	-0.750			
0.1925	12317.68	3.8750	3.8750	-0.8103	25.89	-0.02	-0.750			
0.1949	12473.75	3.8720	3.8721	-0.8120	25.89	-0.02	-0.750			
0.1974	12630.57	3.8690	3.8690	-0.8093	25.89	-0.02	-0.750			
0.1998	12786.68	3.8660	3.8659	-0.8099	25.90	-0.01	-0.750			
0.2022	12940.75	3.8630	3.8630	-0.7999	25.90	-0.01	-0.750			
0.2046	13092.16	3.8600	3.8600	-0.8023	25.90	-0.01	-0.750			
0.2070	13246.74	3.8570	3.8571	-0.8077	25.91	-0.00	-0.750			
0.2094	13401.86	3.8540	3.8539	-0.8090	25.91	0.00	-0.750			
0.2118	13555.73	3.8510	3.8510	-0.8115	25.91	0.00	-0.750			
0.2143	13713.40	3.8480	3.8480	-0.8128	25.92	0.01	-0.750			
0.2167	13868.99	3.8450	3.8451	-0.8128	25.92	0.01	-0.750			
0.2192	14027.43	3.8420	3.8418	-0.8171	25.92	0.01	-0.750			
0.2216	14183.04	3.8390	3.8389	-0.8076	25.92	0.01	-0.750			
0.2240	14338.16	3.8360	3.8360	-0.8086	25.92	0.01	-0.750			
0.2265	14493.61	3.8330	3.8330	-0.8097	25.92	0.01	-0.750			
0.2289	14646.84	3.8300	3.8300	-0.8037	25.93	0.02	-0.750			
0.2313	14803.84	3.8270	3.8270	-0.8114	25.93	0.02	-0.750			
0.2337	14959.36	3.8240	3.8240	-0.8060	25.93	0.02	-0.750			
0.2362	15113.84	3.8210	3.8211	-0.8067	25.94	0.03	-0.750			
0.2386	15270.74	3.8180	3.8180	-0.8126	25.94	0.03	-0.750			
0.2410	15426.45	3.8150	3.8148	-0.8042	25.94	0.03	-0.750			
0.2435	15581.08	3.8120	3.8120	-0.7991	25.95	0.04	-0.750			
0.2458	15733.53	3.8090	3.8093	-0.7988	25.95	0.04	-0.750			
0.2482	15887.44	3.8060	3.8059	-0.7924	25.95	0.04	-0.750			
0.2506	16038.75	3.8030	3.8029	-0.7932	25.95	0.04	-0.750			
0.2529	16187.58	3.8000	3.8000	-0.7843	25.96	0.05	-0.750			
0.2553	16341.33	3.7970	3.7970	-0.7880	25.96	0.05	-0.750			
0.2577	16491.70	3.7940	3.7939	-0.7829	25.96	0.05	-0.750			
0.2600	16641.35	3.7910	3.7911	-0.7792	25.96	0.05	-0.750			
0.2623	16789.65	3.7880	3.7880	-0.7768	25.96	0.05	-0.750			
0.2647	16938.93	3.7850	3.7850	-0.7753	25.97	0.06	-0.750			
0.2670	17086.73	3.7820	3.7820	-0.7691	25.97	0.06	-0.750			
0.2693	17236.12	3.7790	3.7790	-0.7640	25.97	0.06	-0.750			
0.2716	17381.20	3.7760	3.7760	-0.7577	25.97	0.06	-0.750			
0.2738	17524.37	3.7730	3.7731	-0.7572	25.98	0.07	-0.750			
0.2761	17669.15	3.7700	3.7699	-0.7574	25.98	0.07	-0.750			
0.2783	17814.13	3.7670	3.7669	-0.7546	25.98	0.07	-0.750			
0.2806	17959.77	3.7640	3.7639	-0.7577	25.99	0.08	-0.750			
0.2829	18105.56	3.7610	3.7614	-0.7616	25.99	0.08	-0.750			
0.2852	18252.78	3.7580	3.7581	-0.7616	25.99	0.08	-0.750			
0.2875	18397.90	3.7550	3.7549	-0.7617	26.00	0.09	-0.750			
0.2898	18544.11	3.7520	3.7519	-0.7626	26.00	0.09	-0.750			
0.2920	18689.79	3.7490	3.7491	-0.7653	26.00	0.09	-0.750			
0.2943	18837.02	3.7460	3.7459	-0.7699	26.01	0.10	-0.750			
0.2966	18985.45	3.7430	3.7430	-0.7733	26.01	0.10	-0.750			
0.2990	19132.97	3.7400	3.7400	-0.7834	26.01	0.10	-0.750			
0.3013	19283.91	3.7370	3.7370	-0.7908	26.01	0.10	-0.750			
0.3037	19436.11	3.7340	3.7340	-0.7983	26.02	0.11	-0.750			
0.3061	19591.30	3.7310	3.7309	-0.8070	26.02	0.11	-0.750			
0.3085	19747.02	3.7280	3.7281	-0.8177	26.02	0.11	-0.750			
0.3110	19905.01	3.7250	3.7250	-0.8269	26.02	0.11	-0.750			
0.3135	20066.09	3.7220	3.7219	-0.8436	26.02	0.11	-0.750			
0.3161	20228.74	3.7190	3.7190	-0.8545	26.02	0.11	-0.750			
0.3187	20394.21	3.7160	3.7159	-0.8716	26.02	0.11	-0.750			
0.3213	20563.08	3.7130	3.7130	-0.8819	26.02	0.11	-0.750			
0.3239	20732.77	3.7100	3.7099	-0.9015	26.02	0.11	-0.750			
0.3267	20905.91	3.7070	3.7070	-0.9181	26.02	0.11	-0.750			
0.3294	21081.55	3.7040	3.7040	-0.9272	26.01	0.10	-0.750			
0.3323	21266.44	3.7010	3.7009	-0.9559	26.01	0.10	-0.750			
0.3352	21450.42	3.6980	3.6981	-0.9715	26.01	0.10	-0.750			
0.3381	21639.08	3.6950	3.6949	-0.9862	26.01	0.10	-0.750			
0.3411	21831.01	3.6920	3.6920	-1.0017	26.01	0.10	-0.750			
0.3441	22022.29	3.6890	3.6890	-1.0176	26.01	0.10	-0.750			
0.3472	22219.90	3.6860	3.6860	-1.0437	26.01	0.10	-0.750			
0.3504	22424.84	3.6830	3.6829	-1.0581	26.01	0.10	-0.750			
0.3536	22629.34	3.6800	3.6799	-1.0749	26.00	0.09	-0.750			
0.3568	22835.44	3.6770	3.6772	-1.0987	26.00	0.09	-0.750			
0.3602	23049.98	3.6740	3.6739	-1.1250	25.99	0.08	-0.750			
0.3636	23268.11	3.6710	3.6709	-1.1410	25.99	0.08	-0.750			
0.3670	23487.28	3.6680	3.6679	-1.1621	25.98	0.07	-0.750			
0.3705	23709.01	3.6650	3.6654	-1.2013	25.97	0.06	-0.750			
0.3742	23948.29	3.6620	3.6617	-1.2427	25.97	0.06	-0.750			
0.3780	24190.59	3.6590	3.6589	-1.2582	25.97	0.06	-0.750			
0.3818	24432.79	3.6560	3.6562	-1.2891	25.97	0.06	-0.750			
0.3858	24690.16	3.6530	3.6530	-1.3302	25.96	0.05	-0.750			
0.3898	24946.45	3.6500	3.6499	-1.3504	25.95	0.04	-0.750			
0.3938	25204.63	3.6470	3.6469	-1.3611	25.94	0.03	-0.750			
0.3979	25466.42	3.6440	3.6440	-1.3749	25.94	0.03	-0.750			
0.4021	25735.28	3.6410	3.6410	-1.4160	25.93	0.02	-0.750			
0.4064	26010.94	3.6380	3.6381	-1.4503	25.93	0.02	-0.750			
0.4108	26288.23	3.6350	3.6348	-1.4700	25.92	0.01	-0.750			
0.4153	26579.62	3.6320	3.6320	-1.5035	25.91	0.00	-0.750			
0.4199	26871.19	3.6290	3.6292	-1.5319	25.90	-0.01	-0.750			
0.4244	27164.72	3.6260	3.6258	-1.5698	25.90	-0.01	-0.750			
0.4293	27472.43	3.6230	3.6231	-1.5966	25.89	-0.02	-0.750			
0.4340	27777.50	3.6200	3.6201	-1.6127	25.89	-0.02	-0.750			
0.4390	28096.44	3.6170	3.6169	-1.6614	25.88	-0.03	-0.750	0.403	0.530	
0.4440	28417.29	3.6140	3.6141	-1.6715	25.87	-0.04	-0.750			
0.4490	28737.91	3.6110	3.6110	-1.7120	25.87	-0.04	-0.750			
0.4542	29070.26	3.6080	3.6081	-1.7363	25.86	-0.05	-0.750			
0.4594	29402.98	3.6050	3.6049	-1.7664	25.86	-0.05	-0.750			
0.4648	29746.57	3.6020	3.6021	-1.8194	25.85	-0.06	-0.750			
0.4702	30095.10	3.5990	3.5989	-1.8766	25.85	-0.06	-0.750			
0.4759	30459.32	3.5960	3.5961	-1.9247	25.84	-0.07	-0.750			
0.4819	30839.38	3.5930	3.5929	-1.9739	25.82	-0.09	-0.750			
0.4880	31230.03	3.5900	3.5901	-1.9967	25.82	-0.09	-0.750			
0.4941	31621.25	3.5870	3.5870	-2.0353	25.82	-0.09	-0.750			
0.5001	32009.30	3.5840	3.5841	-2.0477	25.82	-0.09	-0.750			
0.5063	32404.19	3.5810	3.5811	-2.0673	25.81	-0.10	-0.750			
0.5124	32795.92	3.5780	3.5778	-2.0921	25.81	-0.10	-0.750			
0.5188	33202.30	3.5750	3.5750	-2.1234	25.81	-0.10	-0.750			
0.5252	33614.96	3.5720	3.5721	-2.1468	25.81	-0.10	-0.750			
0.5318	34034.64	3.5690	3.5690	-2.1585	25.80	-0.11	-0.750			
0.5383	34452.34	3.5660	3.5660	-2.1570	25.80	-0.11	-0.750			
0.5448	34867.60	3.5630	3.5631	-2.1638	25.79	-0.12	-0.750			
0.5512	35279.73	3.5600	3.5599	-2.1786	25.79	-0.12	-0.750			
0.5577	35694.52	3.5570	3.5569	-2.1825	25.79	-0.12	-0.750			
0.5644	36119.29	3.5540	3.5541	-2.1912	25.79	-0.12	-0.750			
0.5711	36549.06	3.5510	3.5511	-2.2039	25.79	-0.12	-0.750			
0.5777	36969.65	3.5480	3.5480	-2.2066	25.79	-0.12	-0.750			
0.5843	37394.41	3.5450	3.5450	-2.1923	25.79	-0.12	-0.750			
0.5909	37818.51	3.5420	3.5421	-2.1758	25.80	-0.11	-0.750			
0.5974	38233.23	3.5390	3.5390	-2.1544	25.81	-0.10	-0.750			
0.6039	38647.52	3.5360	3.5361	-2.1180	25.81	-0.10	-0.750			
0.6103	39057.42	3.5330	3.5330	-2.0868	25.81	-0.10	-0.750			
0.6164	39450.82	3.5300	3.5300	-2.0328	25.82	-0.09	-0.750			
0.6225	39837.20	3.5270	3.5270	-1.9898	25.82	-0.09	-0.750			
0.6284	40215.40	3.5240	3.5242	-1.9746	25.84	-0.07	-0.750			
0.6342	40591.98	3.5210	3.5209	-1.9262	25.85	-0.06	-0.750			
0.6400	40960.19	3.5180	3.5181	-1.8760	25.86	-0.05	-0.750			
0.6456	41318.66	3.5150	3.5150	-1.8287	25.86	-0.05	-0.750			
0.6510	41662.20	3.5120	3.5119	-1.7708	25.87	-0.04	-0.750			
0.6562	41999.36	3.5090	3.5089	-1.7132	25.89	-0.02	-0.750			
0.6613	42323.07	3.5060	3.5059	-1.6618	25.90	-0.01	-0.750			
0.6661	42630.69	3.5030	3.5028	-1.6104	25.91	-0.00	-0.750			
0.6709	42936.64	3.5000	3.5001	-1.5605	25.92	0.01	-0.750			
0.6755	43233.43	3.4970	3.4970	-1.5223	25.93	0.02	-0.750			
0.6800	43520.58	3.4940	3.4939	-1.4818	25.94	0.03	-0.750			
0.6844	43802.71	3.4910	3.4911	-1.4231	25.96	0.05	-0.750			
0.6887	44074.78	3.4880	3.4880	-1.3850	25.98	0.07	-0.750			
0.6927	44333.72	3.4850	3.4850	-1.3396	26.00	0.09	-0.750			
0.6966	44584.26	3.4820	3.4820	-1.2875	26.01	0.10	-0.750			
0.7004	44828.77	3.4790	3.4789	-1.2498	26.03	0.12	-0.750			
0.7041	45061.49	3.4760	3.4760	-1.2066	26.04	0.13	-0.750			
0.7076	45288.29	3.4730	3.4731	-1.1659	26.05	0.14	-0.750			
0.7112	45514.25	3.4700	3.4699	-1.1431	26.07	0.16	-0.750			
0.7145	45728.32	3.4670	3.4670	-1.1023	26.08	0.17	-0.750			
0.7178	45936.34	3.4640	3.4639	-1.0681	26.10	0.19	-0.750			
0.7209	46137.56	3.4610	3.4611	-1.0358	26.11	0.20	-0.750			
0.7240	46334.63	3.4580	3.4580	-1.0046	26.13	0.22	-0.750			
0.7270	46525.07	3.4550	3.4549	-0.9685	26.14	0.23	-0.750			
0.7298	46706.71	3.4520	3.4520	-0.9382	26.16	0.25	-0.750			
0.7326	46883.90	3.4490	3.4492	-0.9119	26.17	0.26	-0.750			
0.7352	47053.15	3.4460	3.4459	-0.8930	26.18	0.27	-0.750			
0.7378	47219.41	3.4430	3.4430	-0.8765	26.19	0.28	-0.750			
0.7404	47384.77	3.4400	3.4400	-0.8687	26.19	0.28	-0.750			
0.7430	47549.02	3.4370	3.4370	-0.8696	26.20	0.29	-0.750			
0.7456	47718.05	3.4340	3.4342	-0.8738	26.21	0.30	-0.750			
0.7482	47883.48	3.4310	3.4309	-0.8847	26.22	0.31	-0.750			
0.7508	48053.28	3.4280	3.4281	-0.8952	26.23	0.32	-0.750			
0.7535	48226.11	3.4250	3.4250	-0.9079	26.24	0.33	-0.750			
0.7563	48402.32	3.4220	3.4219	-0.9224	26.24	0.33	-0.750			
0.7591	48581.09	3.4190	3.4190	-0.9408	26.25	0.34	-0.750			
0.7619	48763.64	3.4160	3.4160	-0.9542	26.27	0.36	-0.750			
0.7649	48950.88	3.4130	3.4129	-0.9577	26.28	0.37	-0.750			
0.7677	49135.52	3.4100	3.4100	-0.9546	26.29	0.38	-0.750			
0.7707	49322.75	3.4070	3.4072	-0.9439	26.30	0.39	-0.750			
0.7735	49503.57	3.4040	3.4039	-0.9354	26.31	0.40	-0.750			
0.7763	49682.02	3.4010	3.4010	-0.9112	26.32	0.41	-0.750			
0.7790	49853.62	3.3980	3.3980	-0.8815	26.33	0.42	-0.750			
0.7816	50024.47	3.3950	3.3949	-0.8630	26.34	0.43	-0.750			
0.7842	50186.41	3.3920	3.3920	-0.8326	26.34	0.43	-0.750			
0.7866	50341.85	3.3890	3.3890	-0.8058	26.35	0.44	-0.750			
0.7890	50494.28	3.3860	3.3860	-0.7797	26.35	0.44	-0.750			
0.7912	50639.17	3.3830	3.3829	-0.7473	26.36	0.45	-0.750			
0.7935	50783.04	3.3800	3.3800	-0.7240	26.37	0.46	-0.750			
0.7956	50919.67	3.3770	3.3772	-0.6993	26.37	0.46	-0.750			
0.7977	51050.46	3.3740	3.3740	-0.6707	26.38	0.47	-0.750			
0.7996	51175.70	3.3710	3.3710	-0.6478	26.39	0.48	-0.750			
0.8015	51297.14	3.3680	3.3680	-0.6286	26.39	0.48	-0.750			
0.8034	51416.15	3.3650	3.3650	-0.6074	26.40	0.49	-0.750			
0.8052	51531.70	3.3620	3.3620	-0.5858	26.41	0.50	-0.750			
0.8069	51643.15	3.3590	3.3590	-0.5640	26.42	0.51	-0.750			
0.8086	51748.23	3.3560	3.3561	-0.5403	26.42	0.51	-0.750			
0.8101	51849.43	3.3530	3.3530	-0.5191	26.43	0.52	-0.750			
0.8116	51945.44	3.3500	3.3499	-0.4991	26.44	0.53	-0.750			
0.8131	52038.38	3.3470	3.3470	-0.4810	26.44	0.53	-0.750			
0.8145	52130.02	3.3440	3.3440	-0.4674	26.45	0.54	-0.750			
0.8159	52218.79	3.3410	3.3410	-0.4549	26.45	0.54	-0.750			
0.8173	52305.10	3.3380	3.3380	-0.4390	26.46	0.55	-0.750			
0.8186	52387.70	3.3350	3.3350	-0.4217	26.46	0.55	-0.750			
0.8198	52466.96	3.3320	3.3319	-0.4092	26.47	0.56	-0.750			
0.8210	52543.17	3.3290	3.3291	-0.3948	26.47	0.56	-0.750			
0.8221	52617.49	3.3260	3.3259	-0.3854	26.48	0.57	-0.750			
0.8233	52690.45	3.3230	3.3230	-0.3739	26.48	0.57	-0.750			
0.8244	52760.97	3.3200	3.3200	-0.3621	26.49	0.58	-0.750			
0.8255	52829.84	3.3170	3.3171	-0.3540	26.49	0.58	-0.750			
0.8265	52897.21	3.3140	3.3141	-0.3449	26.50	0.59	-0.750			
0.8275	52962.04	3.3110	3.3108	-0.3338	26.50	0.59	-0.750			
0.8285	53025.21	3.3080	3.3080	-0.3240	26.51	0.60	-0.750			
0.8295	53086.10	3.3050	3.3050	-0.3161	26.51	0.60	-0.750			
0.8304	53146.48	3.3020	3.3020	-0.3094	26.52	0.61	-0.750			
0.8313	53204.88	3.2990	3.2990	-0.3014	26.52	0.61	-0.750			
0.8322	53261.06	3.2960	3.2959	-0.2932	26.53	0.62	-0.750			
0.8331	53317.17	3.2930	3.2931	-0.2870	26.53	0.62	-0.750			
0.8339	53371.96	3.2900	3.2899	-0.2806	26.54	0.63	-0.750			
0.8348	53425.03	3.2870	3.2870	-0.2736	26.54	0.63	-0.750			
0.8356	53476.53	3.2840	3.2841	-0.2658	26.55	0.64	-0.750			
0.8364	53526.73	3.2810	3.2810	-0.2612	26.55	0.64	-0.750			
0.8371	53576.24	3.2780	3.2779	-0.2560	26.56	0.65	-0.750			
0.8379	53624.33	3.2750	3.2750	-0.2506	26.57	0.66	-0.750			
0.8386	53672.10	3.2720	3.2719	-0.2457	26.57	0.66	-0.750			
0.8394	53719.27	3.2690	3.2692	-0.2421	26.58	0.67	-0.750			
0.8401	53765.13	3.2660	3.2660	-0.2381	26.58	0.67	-0.750			
0.8408	53810.36	3.2630	3.2630	-0.2337	26.59	0.68	-0.750			
0.8415	53854.63	3.2600	3.2600	-0.2304	26.59	0.68	-0.750			
0.8422	53898.39	3.2570	3.2570	-0.2250	26.60	0.69	-0.750			
0.8428	53941.18	3.2540	3.2540	-0.2231	26.60	0.69	-0.750			
0.8435	53984.02	3.2510	3.2511	-0.2193	26.61	0.70	-0.750			
0.8442	54026.00	3.2480	3.2481	-0.2158	26.61	0.70	-0.750			
0.8448	54066.99	3.2450	3.2448	-0.2122	26.62	0.71	-0.750			
0.8454	54107.08	3.2420	3.2423	-0.2086	26.62	0.71	-0.750			
0.8460	54146.87	3.2390	3.2389	-0.2055	26.63	0.72	-0.750			
0.8467	54185.93	3.2360	3.2360	-0.2024	26.63	0.72	-0.750			
0.8473	54224.55	3.2330	3.2330	-0.2008	26.64	0.73	-0.750			
0.8478	54262.38	3.2300	3.2301	-0.1971	26.64	0.73	-0.750			
0.8484	54300.51	3.2270	3.2269	-0.1961	26.65	0.74	-0.750			
0.8490	54337.92	3.2240	3.2240	-0.1936	26.65	0.74	-0.750			
0.8496	54374.89	3.2210	3.2211	-0.1904	26.66	0.75	-0.750			
0.8502	54411.31	3.2180	3.2180	-0.1876	26.66	0.75	-0.750			
0.8507	54447.02	3.2150	3.2150	-0.1852	26.67	0.76	-0.750			
0.8513	54482.28	3.2120	3.2120	-0.1821	26.67	0.76	-0.750			
0.8518	54516.34	3.2090	3.2090	-0.1802	26.68	0.77	-0.750			
0.8524	54550.66	3.2060	3.2059	-0.1789	26.68	0.77	-0.750			
0.8529	54585.13	3.2030	3.2030	-0.1767	26.69	0.78	-0.750			
0.8534	54618.90	3.2000	3.1999	-0.1751	26.69	0.78	-0.750			
0.8539	54652.64	3.1970	3.1971	-0.1736	26.70	0.79	-0.750			
0.8545	54685.91	3.1940	3.1941	-0.1720	26.70	0.79	-0.750			
0.8550	54718.65	3.1910	3.1910	-0.1698	26.71	0.80	-0.750			
0.8555	54751.03	3.1880	3.1879	-0.1675	26.71	0.80	-0.750			
0.8560	54782.52	3.1850	3.1850	-0.1657	26.72	0.81	-0.750			
0.8565	54814.32	3.1820	3.1820	-0.1638	26.72	0.81	-0.750			
0.8570	54845.97	3.1790	3.1790	-0.1630	26.73	0.82	-0.750			
0.8575	54876.98	3.1760	3.1759	-0.1611	26.73	0.82	-0.750			
0.8579	54907.59	3.1730	3.1731	-0.1592	26.74	0.83	-0.750			
0.8584	54937.94	3.1700	3.1700	-0.1576	26.75	0.84	-0.750			
0.8589	54968.07	3.1670	3.1670	-0.1561	26.75	0.84	-0.750			
0.8593	54997.79	3.1640	3.1640	-0.1550	26.76	0.85	-0.750			
0.8598	55027.38	3.1610	3.1610	-0.1529	26.76	0.85	-0.750			
0.8603	55056.76	3.1580	3.1580	-0.1521	26.77	0.86	-0.750			
0.8607	55085.80	3.1550	3.1549	-0.1504	26.77	0.86	-0.750			
0.8612	55114.37	3.1520	3.1521	-0.1495	26.78	0.87	-0.750			
0.8616	55143.09	3.1490	3.1490	-0.1479	26.78	0.87	-0.750			
0.8621	55171.32	3.1460	3.1459	-0.1464	26.79	0.88	-0.750			
0.8625	55199.30	3.1430	3.1430	-0.1451	26.79	0.88	-0.750			
0.8629	55226.93	3.1400	3.1401	-0.1438	26.80	0.89	-0.750			
0.8634	55254.75	3.1370	3.1369	-0.1426	26.80	0.89	-0.750			
0.8638	55281.78	3.1340	3.1340	-0.1408	26.81	0.90	-0.750			
0.8642	55308.68	3.1310	3.1309	-0.1394	26.81	0.90	-0.750			
0.8646	55334.97	3.1280	3.1281	-0.1386	26.82	0.91	-0.750			
0.8650	55361.66	3.1250	3.1250	-0.1380	26.82	0.91	-0.750			
0.8654	55387.91	3.1220	3.1219	-0.1370	26.83	0.92	-0.750			
0.8658	55414.24	3.1190	3.1190	-0.1363	26.83	0.92	-0.750			
0.8663	55440.39	3.1160	3.1160	-0.1354	26.84	0.93	-0.750			
0.8667	55466.54	3.1130	3.1130	-0.1349	26.84	0.93	-0.750			
0.8671	55492.31	3.1100	3.1099	-0.1335	26.85	0.94	-0.750			
0.8675	55517.86	3.1070	3.1070	-0.1321	26.85	0.94	-0.750			
0.8679	55542.92	3.1040	3.1040	-0.1306	26.85	0.94	-0.750			
0.8682	55567.89	3.1010	3.1009	-0.1298	26.86	0.95	-0.750			
0.8686	55592.71	3.0980	3.0981	-0.1287	26.86	0.95	-0.750			
0.8690	55617.17	3.0950	3.0949	-0.1281	26.87	0.96	-0.750			
0.8694	55641.73	3.0920	3.0920	-0.1271	26.87	0.96	-0.750			
0.8698	55666.03	3.0890	3.0890	-0.1264	26.87	0.96	-0.750			
0.8702	55690.27	3.0860	3.0860	-0.1255	26.88	0.97	-0.750			
0.8705	55714.43	3.0830	3.0830	-0.1248	26.88	0.97	-0.750			
0.8709	55738.40	3.0800	3.0801	-0.1237	26.89	0.98	-0.750			
0.8713	55762.02	3.0770	3.0768	-0.1224	26.89	0.98	-0.750			
0.8716	55785.25	3.0740	3.0741	-0.1218	26.90	0.99	-0.750			
0.8720	55808.36	3.0710	3.0710	-0.1209	26.91	1.00	-0.750			
0.8724	55831.67	3.0680	3.0680	-0.1201	26.91	1.00	-0.750			
0.8727	55854.64	3.0650	3.0649	-0.1192	26.92	1.01	-0.750			
0.8731	55877.20	3.0620	3.0621	-0.1188	26.92	1.01	-0.750			
0.8734	55899.98	3.0590	3.0590	-0.1185	26.93	1.02	-0.750			
0.8738	55923.00	3.0560	3.0559	-0.1178	26.93	1.02	-0.750			
0.8741	55945.53	3.0530	3.0529	-0.1169	26.94	1.03	-0.750			
0.8745	55967.78	3.0500	3.0502	-0.1160	26.95	1.04	-0.750			
0.8748	55989.98	3.0470	3.0471	-0.1153	26.95	1.04	-0.750			
0.8752	56012.23	3.0440	3.0440	-0.1148	26.96	1.05	-0.750			
0.8755	56034.16	3.0410	3.0409	-0.1137	26.96	1.05	-0.750			
0.8759	56055.59	3.0380	3.0380	-0.1125	26.97	1.06	-0.750			
0.8762	56077.26	3.0350	3.0351	-0.1118	26.97	1.06	-0.750			
0.8765	56098.83	3.0320	3.0321	-0.1116	26.98	1.07	-0.750			
0.8769	56120.16	3.0290	3.0289	-0.1106	26.98	1.07	-0.750			
0.8772	56141.11	3.0260	3.0259	-0.1101	26.99	1.08	-0.750			
0.8775	56162.22	3.0230	3.0232	-0.1097	26.99	1.08	-0.750			
0.8779	56183.29	3.0200	3.0200	-0.1091	27.00	1.09	-0.750			
0.8782	56204.19	3.0170	3.0168	-0.1086	27.00	1.09	-0.750			
0.8785	56224.94	3.0140	3.0140	-0.1082	27.01	1.10	-0.750			
0.8788	56245.69	3.0110	3.0111	-0.1079	27.02	1.11	-0.750			
0.8792	56266.50	3.0080	3.0080	-0.1074	27.02	1.11	-0.750			
0.8795	56287.04	3.0050	3.0049	-0.1066	27.03	1.12	-0.750			
0.8798	56307.52	3.0020	3.0020	-0.1081	27.03	1.12	-0.751			
