Ah_balance (normalized)	Ah_balance (mAh)	Voltage - fit (V)	Voltage -  interpolate (V)	dQ/dV (1/V)	Temperature (°C)	Temperature - diff (°C)	Current (C)	R_DC 0ms (mOhm)	R_DC 50ms (mOhm)	R_DC 50 ms PEC (mOhm)
0.0193	1232.20	4.1990	4.1990	0.7814	24.81	-0.08	0.250			
0.0216	1381.54	4.1960	4.1959	0.7774	24.81	-0.08	0.250			
0.0240	1533.07	4.1930	4.1930	0.7838	24.81	-0.08	0.250			
0.0263	1683.47	4.1900	4.1899	0.7852	24.81	-0.08	0.250			
0.0287	1834.52	4.1870	4.1869	0.7850	24.81	-0.08	0.250			
0.0310	1984.69	4.1840	4.1840	0.7858	24.81	-0.08	0.250			
0.0334	2136.28	4.1810	4.1812	0.7865	24.80	-0.09	0.250			
0.0357	2287.44	4.1780	4.1780	0.7892	24.80	-0.09	0.250	0.345	0.506	
0.0381	2438.87	4.1750	4.1750	0.7868	24.80	-0.09	0.250			
0.0405	2590.67	4.1720	4.1720	0.7881	24.80	-0.09	0.250			
0.0429	2742.44	4.1690	4.1692	0.7906	24.80	-0.09	0.250			
0.0452	2894.16	4.1660	4.1660	0.7897	24.80	-0.09	0.250			
0.0476	3045.21	4.1630	4.1629	0.7887	24.80	-0.09	0.250			
0.0499	3196.50	4.1600	4.1601	0.7904	24.79	-0.10	0.250			
0.0523	3348.46	4.1570	4.1570	0.7955	24.79	-0.10	0.250			
0.0547	3501.20	4.1540	4.1540	0.7973	24.79	-0.10	0.250	0.349	0.515	
0.0571	3654.57	4.1510	4.1509	0.7969	24.79	-0.10	0.250			
0.0595	3808.90	4.1480	4.1480	0.7998	24.79	-0.10	0.250			
0.0619	3962.73	4.1450	4.1450	0.8029	24.79	-0.10	0.250			
0.0643	4117.49	4.1420	4.1420	0.8006	24.79	-0.10	0.250			
0.0667	4270.34	4.1390	4.1389	0.7983	24.80	-0.09	0.250			
0.0691	4423.04	4.1360	4.1360	0.8005	24.80	-0.09	0.250			
0.0715	4577.50	4.1330	4.1331	0.8023	24.80	-0.09	0.250			
0.0739	4732.58	4.1300	4.1300	0.8026	24.80	-0.09	0.250			
0.0763	4885.78	4.1270	4.1270	0.8021	24.80	-0.09	0.250	0.345	0.531	
0.0788	5040.18	4.1240	4.1240	0.8026	24.80	-0.09	0.250			
0.0812	5194.92	4.1210	4.1209	0.8059	24.80	-0.09	0.250			
0.0836	5348.44	4.1180	4.1181	0.8047	24.79	-0.10	0.250			
0.0860	5502.68	4.1150	4.1150	0.8045	24.80	-0.09	0.250			
0.0884	5657.63	4.1120	4.1120	0.8089	24.81	-0.08	0.250			
0.0908	5813.58	4.1090	4.1089	0.8086	24.80	-0.09	0.250			
0.0933	5969.32	4.1060	4.1060	0.8111	24.80	-0.09	0.250			
0.0957	6125.43	4.1030	4.1031	0.8104	24.79	-0.10	0.250	0.378	0.549	
0.0981	6280.83	4.1000	4.0999	0.8090	24.80	-0.09	0.250			
0.1006	6435.47	4.0970	4.0970	0.8091	24.81	-0.08	0.250			
0.1030	6590.84	4.0940	4.0940	0.8092	24.80	-0.09	0.250			
0.1054	6745.82	4.0910	4.0910	0.8138	24.79	-0.10	0.250			
0.1078	6902.39	4.0880	4.0880	0.8145	24.80	-0.09	0.250			
0.1103	7059.33	4.0850	4.0849	0.8161	24.80	-0.09	0.250			
0.1128	7216.40	4.0820	4.0820	0.8200	24.79	-0.10	0.250			
0.1152	7374.19	4.0790	4.0790	0.8221	24.80	-0.09	0.250	0.349	0.531	
0.1177	7532.65	4.0760	4.0760	0.8228	24.80	-0.09	0.250			
0.1202	7690.42	4.0730	4.0730	0.8230	24.79	-0.10	0.250			
0.1226	7848.14	4.0700	4.0700	0.8244	24.80	-0.09	0.250			
0.1251	8007.39	4.0670	4.0670	0.8272	24.81	-0.08	0.250			
0.1276	8166.06	4.0640	4.0640	0.8320	24.80	-0.09	0.250			
0.1301	8325.90	4.0610	4.0611	0.8293	24.79	-0.10	0.250			
0.1326	8485.94	4.0580	4.0580	0.8322	24.81	-0.08	0.250			
0.1351	8645.89	4.0550	4.0549	0.8351	24.81	-0.08	0.250	0.339	0.518	
0.1376	8805.73	4.0520	4.0520	0.8375	24.81	-0.08	0.250			
0.1401	8967.31	4.0490	4.0490	0.8394	24.81	-0.08	0.250			
0.1426	9128.68	4.0460	4.0461	0.8398	24.81	-0.08	0.250			
0.1452	9289.97	4.0430	4.0430	0.8392	24.81	-0.08	0.250			
0.1477	9452.23	4.0400	4.0400	0.8438	24.81	-0.08	0.250			
0.1502	9613.02	4.0370	4.0370	0.8481	24.81	-0.08	0.250			
0.1528	9777.31	4.0340	4.0340	0.8493	24.82	-0.07	0.250			
0.1553	9939.55	4.0310	4.0310	0.8539	24.82	-0.07	0.250	0.362	0.524	
0.1579	10104.73	4.0280	4.0282	0.8564	24.81	-0.08	0.250			
0.1605	10269.40	4.0250	4.0248	0.8592	24.82	-0.07	0.250			
0.1631	10435.40	4.0220	4.0220	0.8609	24.83	-0.06	0.250			
0.1656	10599.38	4.0190	4.0190	0.8634	24.83	-0.06	0.250			
0.1682	10767.14	4.0160	4.0160	0.8698	24.83	-0.06	0.250			
0.1708	10932.87	4.0130	4.0132	0.8718	24.83	-0.06	0.250			
0.1734	11100.57	4.0100	4.0100	0.8705	24.83	-0.06	0.250			
0.1761	11269.04	4.0070	4.0070	0.8750	24.83	-0.06	0.250	0.314	0.512	
0.1787	11437.33	4.0040	4.0039	0.8764	24.84	-0.05	0.250			
0.1814	11606.81	4.0010	4.0009	0.8781	24.85	-0.04	0.250			
0.1840	11773.56	3.9980	3.9980	0.8769	24.85	-0.04	0.250			
0.1866	11941.58	3.9950	3.9951	0.8820	24.85	-0.04	0.250			
0.1892	12111.23	3.9920	3.9920	0.8799	24.85	-0.04	0.250			
0.1919	12281.27	3.9890	3.9889	0.8859	24.85	-0.04	0.250			
0.1946	12451.82	3.9860	3.9860	0.8885	24.86	-0.03	0.250	0.325	0.514	
0.1973	12624.16	3.9830	3.9828	0.8881	24.87	-0.02	0.250			
0.1999	12794.69	3.9800	3.9800	0.8882	24.87	-0.02	0.250			
0.2026	12963.86	3.9770	3.9772	0.8840	24.87	-0.02	0.250			
0.2052	13134.11	3.9740	3.9741	0.8846	24.87	-0.02	0.250			
0.2079	13303.27	3.9710	3.9710	0.8786	24.87	-0.02	0.250			
0.2105	13471.49	3.9680	3.9680	0.8783	24.88	-0.01	0.250			
0.2132	13642.03	3.9650	3.9650	0.8812	24.89	0.00	0.250			
0.2158	13810.77	3.9620	3.9620	0.8825	24.89	0.00	0.250	0.312	0.505	
0.2184	13978.79	3.9590	3.9590	0.8813	24.89	0.00	0.250			
0.2211	14147.24	3.9560	3.9561	0.8860	24.89	0.00	0.250			
0.2237	14317.19	3.9530	3.9531	0.8915	24.89	0.00	0.250			
0.2264	14489.65	3.9500	3.9500	0.8907	24.90	0.01	0.250			
0.2291	14662.48	3.9470	3.9469	0.8960	24.91	0.02	0.250			
0.2318	14835.28	3.9440	3.9440	0.8960	24.91	0.02	0.250			
0.2345	15006.82	3.9410	3.9409	0.9002	24.91	0.02	0.250	0.360	0.505	
0.2372	15180.25	3.9380	3.9380	0.8970	24.92	0.03	0.250			
0.2399	15351.80	3.9350	3.9350	0.8940	24.93	0.04	0.250			
0.2426	15523.72	3.9320	3.9322	0.8937	24.93	0.04	0.250			
0.2453	15697.11	3.9290	3.9290	0.8889	24.93	0.04	0.250			
0.2479	15867.71	3.9260	3.9260	0.8808	24.93	0.04	0.250			
0.2506	16035.86	3.9230	3.9230	0.8739	24.93	0.04	0.250			
0.2532	16202.48	3.9200	3.9199	0.8637	24.95	0.06	0.250			
0.2558	16368.77	3.9170	3.9170	0.8514	24.95	0.06	0.250	0.317	0.517	
0.2583	16530.31	3.9140	3.9142	0.8328	24.95	0.06	0.250			
0.2608	16690.21	3.9110	3.9111	0.8177	24.95	0.06	0.250			
0.2632	16846.01	3.9080	3.9079	0.7967	24.95	0.06	0.250			
0.2656	16996.38	3.9050	3.9050	0.7752	24.95	0.06	0.250			
0.2679	17142.57	3.9020	3.9021	0.7566	24.95	0.06	0.250			
0.2701	17285.35	3.8990	3.8990	0.7389	24.96	0.07	0.250			
0.2723	17424.72	3.8960	3.8960	0.7253	24.96	0.07	0.250			
0.2744	17562.82	3.8930	3.8930	0.7128	24.97	0.08	0.250	0.358	0.524	
0.2765	17698.64	3.8900	3.8900	0.7038	24.97	0.08	0.250			
0.2786	17831.76	3.8870	3.8870	0.6966	24.97	0.08	0.250			
0.2807	17964.42	3.8840	3.8841	0.6926	24.97	0.08	0.250			
0.2827	18095.87	3.8810	3.8809	0.6913	24.97	0.08	0.250			
0.2848	18228.03	3.8780	3.8780	0.6929	24.97	0.08	0.250			
0.2869	18361.17	3.8750	3.8750	0.6944	24.97	0.08	0.250			
0.2890	18495.28	3.8720	3.8720	0.7008	24.97	0.08	0.250			
0.2911	18628.98	3.8690	3.8690	0.7100	24.97	0.08	0.250			
0.2932	18764.72	3.8660	3.8660	0.7207	24.97	0.08	0.250			
0.2954	18904.07	3.8630	3.8628	0.7343	24.97	0.08	0.250	0.361	0.523	
0.2976	19046.18	3.8600	3.8599	0.7493	24.97	0.08	0.250			
0.2999	19192.06	3.8570	3.8570	0.7655	24.97	0.08	0.250			
0.3022	19342.33	3.8540	3.8541	0.7785	24.97	0.08	0.250			
0.3046	19492.49	3.8510	3.8510	0.7913	24.97	0.08	0.250			
0.3069	19644.20	3.8480	3.8480	0.8015	24.97	0.08	0.250			
0.3094	19799.85	3.8450	3.8450	0.8184	24.97	0.08	0.250			
0.3119	19959.82	3.8420	3.8420	0.8322	24.97	0.08	0.250			
0.3144	20119.34	3.8390	3.8390	0.8425	24.97	0.08	0.250	0.360	0.526	
0.3169	20283.92	3.8360	3.8360	0.8531	24.97	0.08	0.250			
0.3195	20449.16	3.8330	3.8329	0.8646	24.97	0.08	0.250			
0.3221	20616.00	3.8300	3.8300	0.8739	24.97	0.08	0.250			
0.3247	20783.45	3.8270	3.8270	0.8862	24.96	0.07	0.250			
0.3274	20954.65	3.8240	3.8241	0.8978	24.95	0.06	0.250			
0.3301	21129.31	3.8210	3.8210	0.9116	24.95	0.06	0.250			
0.3329	21304.94	3.8180	3.8181	0.9224	24.95	0.06	0.250			
0.3357	21484.19	3.8150	3.8151	0.9351	24.95	0.06	0.250	0.365	0.534	
0.3385	21664.91	3.8120	3.8119	0.9466	24.95	0.06	0.250			
0.3414	21847.50	3.8090	3.8090	0.9542	24.95	0.06	0.250			
0.3442	22031.48	3.8060	3.8060	0.9615	24.95	0.06	0.250			
0.3472	22217.92	3.8030	3.8029	0.9743	24.95	0.06	0.250			
0.3501	22404.37	3.8000	3.8000	0.9816	24.95	0.06	0.250			
0.3530	22593.85	3.7970	3.7970	0.9946	24.95	0.06	0.250			
0.3560	22786.20	3.7940	3.7940	1.0065	24.95	0.06	0.250	0.347	0.515	
0.3591	22980.04	3.7910	3.7910	1.0198	24.95	0.06	0.250			
0.3622	23178.50	3.7880	3.7880	1.0348	24.95	0.06	0.250			
0.3653	23378.52	3.7850	3.7849	1.0500	24.95	0.06	0.250			
0.3685	23581.42	3.7820	3.7819	1.0664	24.95	0.06	0.250			
0.3717	23787.47	3.7790	3.7788	1.0780	24.94	0.05	0.250			
0.3749	23995.25	3.7760	3.7759	1.0924	24.94	0.05	0.250	0.342	0.514	
0.3782	24205.75	3.7730	3.7730	1.1011	24.93	0.04	0.250			
0.3816	24419.54	3.7700	3.7700	1.1127	24.93	0.04	0.250			
0.3849	24634.91	3.7670	3.7669	1.1275	24.92	0.03	0.250			
0.3883	24850.56	3.7640	3.7639	1.1455	24.91	0.02	0.250			
0.3918	25072.97	3.7610	3.7609	1.1653	24.91	0.02	0.250			
0.3953	25298.27	3.7580	3.7581	1.1923	24.91	0.02	0.250	0.351	0.510	
0.3989	25529.85	3.7550	3.7552	1.2087	24.89	0.00	0.250			
0.4026	25765.51	3.7520	3.7520	1.2336	24.89	0.00	0.250			
0.4063	26004.35	3.7490	3.7490	1.2529	24.89	0.00	0.250			
0.4101	26246.71	3.7460	3.7459	1.2758	24.89	0.00	0.250			
0.4139	26492.24	3.7430	3.7430	1.3013	24.88	-0.01	0.250	0.343	0.515	
0.4179	26743.55	3.7400	3.7401	1.3257	24.87	-0.02	0.250			
0.4219	27000.76	3.7370	3.7369	1.3585	24.87	-0.02	0.250			
0.4260	27265.53	3.7340	3.7339	1.3906	24.87	-0.02	0.250			
0.4302	27535.31	3.7310	3.7311	1.4243	24.87	-0.02	0.250			
0.4346	27813.30	3.7280	3.7280	1.4614	24.86	-0.03	0.250	0.342	0.513	
0.4390	28095.72	3.7250	3.7250	1.4906	24.85	-0.04	0.250			
0.4435	28383.84	3.7220	3.7220	1.5303	24.85	-0.04	0.250			
0.4481	28680.41	3.7190	3.7191	1.5736	24.85	-0.04	0.250			
0.4529	28985.98	3.7160	3.7158	1.6252	24.85	-0.04	0.250			
0.4579	29303.70	3.7130	3.7131	1.6700	24.84	-0.05	0.250	0.361	0.522	
0.4630	29628.83	3.7100	3.7100	1.7254	24.83	-0.06	0.250			
0.4682	29966.40	3.7070	3.7071	1.7808	24.81	-0.08	0.250			
0.4736	30312.23	3.7040	3.7041	1.8305	24.81	-0.08	0.250	0.364	0.514	
0.4792	30667.54	3.7010	3.7011	1.8867	24.81	-0.08	0.250			
0.4849	31035.42	3.6980	3.6980	1.9516	24.81	-0.08	0.250			
0.4909	31415.27	3.6950	3.6949	2.0179	24.81	-0.08	0.250			
0.4970	31807.28	3.6920	3.6920	2.0864	24.80	-0.09	0.250	0.364	0.523	
0.5034	32215.94	3.6890	3.6890	2.1634	24.79	-0.10	0.250			
0.5100	32640.56	3.6860	3.6859	2.2340	24.79	-0.10	0.250			
0.5168	33077.47	3.6830	3.6830	2.3120	24.79	-0.10	0.250	0.368	0.528	
0.5239	33527.32	3.6800	3.6801	2.3839	24.77	-0.12	0.250			
0.5311	33991.98	3.6770	3.6769	2.4683	24.77	-0.12	0.250			
0.5386	34473.41	3.6740	3.6739	2.5416	24.76	-0.13	0.250	0.336	0.527	
0.5464	34971.10	3.6710	3.6711	2.6242	24.75	-0.14	0.250			
0.5544	35481.89	3.6680	3.6681	2.6832	24.73	-0.16	0.250	0.323	0.499	
0.5626	36005.24	3.6650	3.6649	2.7472	24.72	-0.17	0.250			
0.5709	36538.25	3.6620	3.6621	2.7873	24.70	-0.19	0.250			
0.5794	37083.25	3.6590	3.6590	2.8125	24.69	-0.20	0.250	0.340	0.519	
0.5880	37630.07	3.6560	3.6559	2.7635	24.69	-0.20	0.250			
0.5964	38166.82	3.6530	3.6531	2.6447	24.69	-0.20	0.250	0.344	0.518	
0.6041	38663.49	3.6500	3.6500	2.4538	24.69	-0.20	0.250			
0.6111	39110.40	3.6470	3.6471	2.2513	24.69	-0.20	0.250			
0.6175	39519.82	3.6440	3.6441	2.0599	24.69	-0.20	0.250	0.365	0.533	
0.6233	39888.01	3.6410	3.6410	1.8922	24.69	-0.20	0.250			
0.6287	40236.06	3.6380	3.6378	1.7422	24.70	-0.19	0.250			
0.6337	40557.84	3.6350	3.6350	1.6066	24.69	-0.20	0.250	0.377	0.556	
0.6384	40855.33	3.6320	3.6320	1.4803	24.69	-0.20	0.250			
0.6425	41122.37	3.6290	3.6291	1.3589	24.69	-0.20	0.250			
0.6463	41362.69	3.6260	3.6261	1.2678	24.69	-0.20	0.250			
0.6498	41586.63	3.6230	3.6231	1.2132	24.69	-0.20	0.250			
0.6533	41809.57	3.6200	3.6199	1.1983	24.69	-0.20	0.250			
0.6568	42035.79	3.6170	3.6169	1.2044	24.69	-0.20	0.250	0.406	0.599	
0.6604	42268.66	3.6140	3.6140	1.2261	24.69	-0.20	0.250			
0.6642	42509.23	3.6110	3.6111	1.2455	24.69	-0.20	0.250			
0.6680	42752.64	3.6080	3.6080	1.2508	24.69	-0.20	0.250			
0.6718	42994.71	3.6050	3.6050	1.2370	24.68	-0.21	0.250			
0.6756	43235.44	3.6020	3.6020	1.2128	24.68	-0.21	0.250	0.358	0.543	
0.6792	43468.85	3.5990	3.5990	1.1776	24.68	-0.21	0.250			
0.6826	43689.08	3.5960	3.5961	1.1363	24.68	-0.21	0.250			
0.6860	43902.27	3.5930	3.5930	1.0978	24.67	-0.22	0.250			
0.6892	44105.87	3.5900	3.5901	1.0720	24.67	-0.22	0.250			
0.6923	44307.40	3.5870	3.5869	1.0606	24.67	-0.22	0.250			
0.6955	44509.68	3.5840	3.5840	1.0595	24.67	-0.22	0.250	0.390	0.560	
0.6986	44712.09	3.5810	3.5810	1.0598	24.67	-0.22	0.250			
0.7018	44915.68	3.5780	3.5780	1.0654	24.67	-0.22	0.250			
0.7050	45120.65	3.5750	3.5751	1.0666	24.67	-0.22	0.250			
0.7082	45327.88	3.5720	3.5721	1.0708	24.67	-0.22	0.250			
0.7115	45532.90	3.5690	3.5691	1.0695	24.66	-0.23	0.250			
0.7146	45737.47	3.5660	3.5661	1.0748	24.65	-0.24	0.250	0.349	0.536	
0.7179	45944.30	3.5630	3.5630	1.0823	24.65	-0.24	0.250			
0.7211	46151.30	3.5600	3.5600	1.0913	24.65	-0.24	0.250			
0.7244	46360.31	3.5570	3.5571	1.1104	24.65	-0.24	0.250			
0.7277	46574.12	3.5540	3.5540	1.1411	24.65	-0.24	0.250			
0.7311	46792.08	3.5510	3.5509	1.1798	24.65	-0.24	0.250			
0.7347	47019.53	3.5480	3.5480	1.2337	24.65	-0.24	0.250	0.344	0.539	
0.7384	47259.56	3.5450	3.5449	1.3023	24.64	-0.25	0.250			
0.7424	47513.57	3.5420	3.5421	1.3857	24.64	-0.25	0.250			
0.7466	47784.03	3.5390	3.5390	1.4931	24.64	-0.25	0.250			
0.7513	48080.52	3.5360	3.5360	1.6098	24.64	-0.25	0.250			
0.7563	48400.82	3.5330	3.5330	1.7323	24.62	-0.27	0.250	0.367	0.565	
0.7616	48745.54	3.5300	3.5301	1.8641	24.61	-0.28	0.250			
0.7675	49119.64	3.5270	3.5271	1.9804	24.61	-0.28	0.250			
0.7737	49516.25	3.5240	3.5240	2.0743	24.60	-0.29	0.250	0.391	0.602	
0.7801	49928.07	3.5210	3.5211	2.1389	24.59	-0.30	0.250			
0.7868	50355.52	3.5180	3.5180	2.1682	24.57	-0.32	0.250			
0.7935	50781.73	3.5150	3.5150	2.1315	24.57	-0.32	0.250	0.322	0.552	
0.8001	51206.01	3.5120	3.5119	1.9934	24.56	-0.33	0.250			
0.8061	51593.11	3.5090	3.5090	1.7763	24.55	-0.34	0.250			
0.8113	51922.12	3.5060	3.5064	1.4908	24.55	-0.34	0.250			
0.8154	52185.90	3.5030	3.5031	1.1719	24.55	-0.34	0.250	0.372	0.578	
0.8182	52367.73	3.5000	3.4996	0.8984	24.56	-0.33	0.250			
0.8202	52491.59	3.4970	3.4965	0.6600	24.57	-0.32	0.250			
0.8214	52570.99	3.4940	3.4938	0.5241	24.57	-0.32	0.250			
0.8226	52648.66	3.4910	3.4909	0.4330	24.57	-0.32	0.250			
0.8238	52720.62	3.4880	3.4879	0.3828	24.58	-0.31	0.250			
0.8248	52785.92	3.4850	3.4848	0.3520	24.58	-0.31	0.250			
0.8258	52850.56	3.4820	3.4820	0.3331	24.59	-0.30	0.250			
0.8268	52912.19	3.4790	3.4790	0.3189	24.59	-0.30	0.250			
0.8277	52971.62	3.4760	3.4760	0.3087	24.59	-0.30	0.250			
0.8286	53029.45	3.4730	3.4729	0.2995	24.60	-0.29	0.250			
0.8295	53085.65	3.4700	3.4700	0.2912	24.60	-0.29	0.250			
0.8303	53140.60	3.4670	3.4670	0.2839	24.61	-0.28	0.250			
0.8312	53194.34	3.4640	3.4640	0.2776	24.61	-0.28	0.250			
0.8320	53247.14	3.4610	3.4610	0.2727	24.61	-0.28	0.250			
0.8328	53298.80	3.4580	3.4579	0.2661	24.62	-0.27	0.250			
0.8336	53349.01	3.4550	3.4551	0.2617	24.62	-0.27	0.250			
0.8344	53398.46	3.4520	3.4521	0.2576	24.63	-0.26	0.250			
0.8351	53447.78	3.4490	3.4490	0.2550	24.63	-0.26	0.250			
0.8359	53496.38	3.4460	3.4459	0.2519	24.63	-0.26	0.250	0.357	0.574	
0.8366	53544.57	3.4430	3.4430	0.2479	24.64	-0.25	0.250			
0.8374	53591.88	3.4400	3.4401	0.2444	24.64	-0.25	0.250			
0.8381	53638.54	3.4370	3.4370	0.2401	24.65	-0.24	0.250			
0.8388	53684.91	3.4340	3.4339	0.2362	24.65	-0.24	0.250			
0.8395	53729.18	3.4310	3.4310	0.2324	24.66	-0.23	0.250			
0.8402	53773.09	3.4280	3.4280	0.2285	24.66	-0.23	0.250			
0.8409	53816.71	3.4250	3.4251	0.2260	24.67	-0.22	0.250			
0.8416	53859.81	3.4220	3.4220	0.2235	24.67	-0.22	0.250			
0.8422	53902.40	3.4190	3.4190	0.2208	24.67	-0.22	0.250			
0.8429	53944.55	3.4160	3.4160	0.2178	24.68	-0.21	0.250			
0.8435	53986.44	3.4130	3.4130	0.2152	24.68	-0.21	0.250			
0.8442	54027.12	3.4100	3.4100	0.2118	24.68	-0.21	0.250			
0.8448	54067.49	3.4070	3.4071	0.2094	24.69	-0.20	0.250			
0.8454	54107.51	3.4040	3.4040	0.2069	24.69	-0.20	0.250			
0.8460	54146.85	3.4010	3.4010	0.2041	24.69	-0.20	0.250			
0.8467	54185.87	3.3980	3.3980	0.2012	24.70	-0.19	0.250			
0.8473	54224.33	3.3950	3.3950	0.1982	24.70	-0.19	0.250			
0.8478	54262.37	3.3920	3.3921	0.1955	24.70	-0.19	0.250			
0.8484	54299.61	3.3890	3.3890	0.1929	24.70	-0.19	0.250			
0.8490	54335.99	3.3860	3.3860	0.1906	24.71	-0.18	0.250			
0.8496	54372.16	3.3830	3.3829	0.1883	24.71	-0.18	0.250			
0.8501	54408.34	3.3800	3.3800	0.1865	24.71	-0.18	0.250			
0.8507	54443.95	3.3770	3.3770	0.1847	24.71	-0.18	0.250			
0.8512	54479.48	3.3740	3.3740	0.1829	24.72	-0.17	0.250			
0.8518	54514.56	3.3710	3.3711	0.1809	24.72	-0.17	0.250			
0.8523	54548.86	3.3680	3.3680	0.1784	24.72	-0.17	0.250			
0.8529	54582.89	3.3650	3.3650	0.1761	24.73	-0.16	0.250			
0.8534	54616.43	3.3620	3.3620	0.1732	24.73	-0.16	0.250			
0.8539	54649.42	3.3590	3.3590	0.1710	24.73	-0.16	0.250			
0.8544	54681.77	3.3560	3.3561	0.1696	24.74	-0.15	0.250			
0.8549	54714.20	3.3530	3.3531	0.1681	24.74	-0.15	0.250			
0.8554	54746.21	3.3500	3.3500	0.1664	24.74	-0.15	0.250			
0.8559	54778.12	3.3470	3.3470	0.1645	24.75	-0.14	0.250	0.347	0.614	
0.8564	54809.63	3.3440	3.3441	0.1625	24.75	-0.14	0.250			
0.8569	54840.74	3.3410	3.3410	0.1607	24.76	-0.13	0.250			
0.8574	54871.71	3.3380	3.3380	0.1593	24.76	-0.13	0.250			
0.8578	54901.96	3.3350	3.3350	0.1569	24.77	-0.12	0.250			
0.8583	54931.58	3.3320	3.3320	0.1545	24.77	-0.12	0.250			
0.8588	54961.10	3.3290	3.3290	0.1530	24.77	-0.12	0.250			
0.8592	54990.35	3.3260	3.3261	0.1513	24.78	-0.11	0.250			
0.8597	55019.38	3.3230	3.3230	0.1496	24.78	-0.11	0.250			
0.8601	55047.97	3.3200	3.3200	0.1476	24.78	-0.11	0.250			
0.8606	55076.11	3.3170	3.3170	0.1455	24.78	-0.11	0.250			
0.8610	55103.64	3.3140	3.3140	0.1442	24.78	-0.11	0.250			
0.8614	55131.09	3.3110	3.3110	0.1431	24.79	-0.10	0.250			
0.8618	55158.39	3.3080	3.3080	0.1415	24.79	-0.10	0.250			
0.8623	55185.47	3.3050	3.3049	0.1406	24.79	-0.10	0.250			
0.8627	55212.50	3.3020	3.3020	0.1388	24.79	-0.10	0.250			
0.8631	55239.24	3.2990	3.2990	0.1374	24.80	-0.09	0.250			
0.8635	55265.55	3.2960	3.2960	0.1357	24.80	-0.09	0.250			
0.8639	55291.37	3.2930	3.2930	0.1333	24.81	-0.08	0.250			
0.8643	55316.50	3.2900	3.2900	0.1316	24.81	-0.08	0.250			
0.8647	55341.50	3.2870	3.2870	0.1298	24.81	-0.08	0.250			
0.8651	55366.26	3.2840	3.2840	0.1284	24.82	-0.07	0.250			
0.8655	55390.72	3.2810	3.2810	0.1276	24.82	-0.07	0.250			
0.8659	55415.10	3.2780	3.2780	0.1265	24.83	-0.06	0.250			
0.8662	55439.40	3.2750	3.2749	0.1247	24.83	-0.06	0.250			
0.8666	55463.34	3.2720	3.2720	0.1233	24.83	-0.06	0.250			
0.8670	55486.84	3.2690	3.2691	0.1216	24.83	-0.06	0.250			
0.8673	55510.04	3.2660	3.2661	0.1199	24.84	-0.05	0.250			
0.8677	55532.82	3.2630	3.2629	0.1189	24.84	-0.05	0.250			
0.8681	55555.52	3.2600	3.2600	0.1175	24.84	-0.05	0.250			
0.8684	55577.76	3.2570	3.2570	0.1153	24.84	-0.05	0.250			
0.8687	55599.78	3.2540	3.2540	0.1141	24.85	-0.04	0.250			
0.8691	55621.79	3.2510	3.2511	0.1130	24.85	-0.04	0.250			
0.8694	55643.32	3.2480	3.2480	0.1113	24.85	-0.04	0.250			
0.8698	55664.58	3.2450	3.2449	0.1097	24.85	-0.04	0.250			
0.8701	55685.47	3.2420	3.2420	0.1080	24.86	-0.03	0.250			
0.8704	55705.85	3.2390	3.2391	0.1061	24.86	-0.03	0.250			
0.8707	55726.10	3.2360	3.2360	0.1047	24.86	-0.03	0.250			
0.8710	55746.18	3.2330	3.2330	0.1035	24.86	-0.03	0.250			
0.8713	55765.89	3.2300	3.2300	0.1019	24.87	-0.02	0.250			
0.8716	55785.43	3.2270	3.2270	0.0997	24.87	-0.02	0.250			
0.8719	55804.38	3.2240	3.2240	0.0977	24.87	-0.02	0.250			
0.8722	55823.04	3.2210	3.2210	0.0960	24.87	-0.02	0.250			
0.8725	55841.26	3.2180	3.2181	0.0938	24.87	-0.02	0.250			
0.8728	55859.00	3.2150	3.2150	0.0918	24.88	-0.01	0.250			
0.8731	55876.44	3.2120	3.2119	0.0898	24.88	-0.01	0.250			
0.8733	55893.63	3.2090	3.2090	0.0870	24.88	-0.01	0.250			
0.8736	55910.09	3.2060	3.2060	0.0845	24.88	-0.01	0.250			
0.8739	55926.45	3.2030	3.2031	0.0821	24.88	-0.01	0.250			
0.8741	55941.91	3.2000	3.2000	0.0789	24.89	-0.00	0.250			
0.8743	55956.82	3.1970	3.1970	0.0757	24.89	-0.00	0.250			
0.8746	55971.99	3.1940	3.1939	0.0697	24.89	-0.00	0.250			
0.8748	55985.24	3.1910	3.1909	0.0658	24.89	0.00	0.250			
0.8750	55997.30	3.1880	3.1882	0.0599	24.89	0.00	0.250			
0.8751	56008.23	3.1850	3.1855	0.0539	24.89	0.00	0.250			
0.8753	56019.29	3.1820	3.1825	0.0487	24.89	0.00	0.250			
0.8754	56027.96	3.1790	3.1800	0.0416	24.90	0.01	0.250			
0.8756	56035.27	3.1760	3.1776	0.0345	24.90	0.01	0.250			
0.8756	56041.22	3.1730	3.1753	0.0274	24.90	0.01	0.250			
0.8757	56045.81	3.1700	3.1730	0.0204	24.90	0.01	0.250			
