Ah_balance (normalized)	Ah_balance (mAh)	Voltage - fit (V)	Voltage -  interpolate (V)	dQ/dV (1/V)	Temperature (°C)	Temperature - diff (°C)	Current (C)	R_DC 0ms (mOhm)	R_DC 50ms (mOhm)	R_DC 50 ms PEC (mOhm)
0.0005	30.93	4.1600	4.1601	-0.1629	25.91	0.00	-0.750			
0.0010	64.58	4.1570	4.1571	-0.1949	25.91	0.00	-0.750			
0.0017	105.89	4.1540	4.1540	-0.2297	25.91	-0.00	-0.750			
0.0024	152.61	4.1510	4.1509	-0.2668	25.91	-0.00	-0.750			
0.0032	207.07	4.1480	4.1480	-0.3020	25.91	-0.00	-0.750			
0.0042	268.98	4.1450	4.1450	-0.3378	25.90	-0.01	-0.750			
0.0053	338.00	4.1420	4.1420	-0.3711	25.90	-0.01	-0.750			
0.0065	413.62	4.1390	4.1390	-0.4042	25.90	-0.01	-0.750			
0.0077	494.69	4.1360	4.1361	-0.4345	25.89	-0.02	-0.750			
0.0091	582.07	4.1330	4.1330	-0.4620	25.89	-0.02	-0.750			
0.0105	672.52	4.1300	4.1300	-0.4868	25.89	-0.02	-0.750			
0.0120	770.13	4.1270	4.1270	-0.5083	25.88	-0.03	-0.750			
0.0136	869.81	4.1240	4.1240	-0.5282	25.88	-0.03	-0.750			
0.0152	973.87	4.1210	4.1210	-0.5483	25.88	-0.03	-0.750			
0.0169	1080.57	4.1180	4.1180	-0.5630	25.87	-0.04	-0.750			
0.0186	1188.87	4.1150	4.1150	-0.5812	25.87	-0.04	-0.750			
0.0203	1302.28	4.1120	4.1120	-0.6002	25.86	-0.05	-0.750			
0.0222	1418.95	4.1090	4.1091	-0.6155	25.86	-0.05	-0.750			
0.0241	1541.04	4.1060	4.1058	-0.6297	25.86	-0.05	-0.750			
0.0260	1664.31	4.1030	4.1032	-0.6411	25.85	-0.06	-0.750			
0.0280	1789.81	4.1000	4.1000	-0.6453	25.85	-0.06	-0.750			
0.0299	1915.10	4.0970	4.0970	-0.6524	25.85	-0.06	-0.750			
0.0319	2039.37	4.0940	4.0940	-0.6557	25.85	-0.06	-0.750			
0.0338	2163.86	4.0910	4.0909	-0.6533	25.84	-0.07	-0.750			
0.0358	2291.24	4.0880	4.0880	-0.6592	25.84	-0.07	-0.750			
0.0378	2417.33	4.0850	4.0850	-0.6637	25.84	-0.07	-0.750			
0.0398	2546.10	4.0820	4.0820	-0.6654	25.84	-0.07	-0.750			
0.0418	2673.95	4.0790	4.0789	-0.6705	25.84	-0.07	-0.750			
0.0438	2801.29	4.0760	4.0760	-0.6726	25.83	-0.08	-0.750			
0.0458	2930.61	4.0730	4.0731	-0.6763	25.83	-0.08	-0.750			
0.0479	3062.58	4.0700	4.0699	-0.6830	25.83	-0.08	-0.750			
0.0499	3194.09	4.0670	4.0670	-0.6867	25.82	-0.09	-0.750			
0.0520	3325.79	4.0640	4.0641	-0.6921	25.82	-0.09	-0.750			
0.0541	3459.76	4.0610	4.0610	-0.6995	25.82	-0.09	-0.750			
0.0562	3593.63	4.0580	4.0580	-0.7015	25.82	-0.09	-0.750			
0.0583	3728.98	4.0550	4.0550	-0.7053	25.82	-0.09	-0.750			
0.0604	3865.39	4.0520	4.0520	-0.7096	25.82	-0.09	-0.750			
0.0625	4002.49	4.0490	4.0489	-0.7102	25.82	-0.09	-0.750			
0.0647	4139.43	4.0460	4.0460	-0.7099	25.82	-0.09	-0.750			
0.0668	4275.63	4.0430	4.0430	-0.7093	25.82	-0.09	-0.750			
0.0689	4410.67	4.0400	4.0401	-0.7140	25.82	-0.09	-0.750			
0.0711	4547.57	4.0370	4.0369	-0.7137	25.82	-0.09	-0.750			
0.0732	4685.23	4.0340	4.0340	-0.7174	25.82	-0.09	-0.750			
0.0754	4823.71	4.0310	4.0309	-0.7173	25.82	-0.09	-0.750			
0.0775	4961.47	4.0280	4.0280	-0.7211	25.82	-0.09	-0.750			
0.0797	5100.25	4.0250	4.0250	-0.7247	25.83	-0.08	-0.750			
0.0819	5238.85	4.0220	4.0219	-0.7293	25.83	-0.08	-0.750			
0.0840	5378.49	4.0190	4.0190	-0.7301	25.83	-0.08	-0.750			
0.0863	5521.48	4.0160	4.0160	-0.7348	25.84	-0.07	-0.750			
0.0885	5663.48	4.0130	4.0131	-0.7365	25.84	-0.07	-0.750			
0.0907	5805.46	4.0100	4.0100	-0.7369	25.84	-0.07	-0.750			
0.0929	5946.17	4.0070	4.0070	-0.7334	25.84	-0.07	-0.750			
0.0951	6087.05	4.0040	4.0040	-0.7351	25.84	-0.07	-0.750			
0.0973	6226.70	4.0010	4.0010	-0.7357	25.85	-0.06	-0.750			
0.0995	6368.81	3.9980	3.9980	-0.7420	25.85	-0.06	-0.750			
0.1017	6511.54	3.9950	3.9951	-0.7440	25.85	-0.06	-0.750			
0.1040	6654.85	3.9920	3.9919	-0.7459	25.85	-0.06	-0.750			
0.1062	6797.94	3.9890	3.9890	-0.7500	25.85	-0.06	-0.750			
0.1085	6942.87	3.9860	3.9860	-0.7506	25.85	-0.06	-0.750			
0.1108	7088.31	3.9830	3.9830	-0.7521	25.85	-0.06	-0.750			
0.1130	7231.44	3.9800	3.9799	-0.7509	25.85	-0.06	-0.750			
0.1152	7375.00	3.9770	3.9770	-0.7513	25.85	-0.06	-0.750			
0.1175	7519.29	3.9740	3.9740	-0.7571	25.86	-0.05	-0.750			
0.1198	7664.36	3.9710	3.9709	-0.7593	25.86	-0.05	-0.750			
0.1220	7809.91	3.9680	3.9680	-0.7590	25.86	-0.05	-0.750			
0.1243	7958.14	3.9650	3.9650	-0.7638	25.87	-0.04	-0.750			
0.1267	8105.93	3.9620	3.9621	-0.7666	25.87	-0.04	-0.750			
0.1290	8252.81	3.9590	3.9590	-0.7673	25.87	-0.04	-0.750			
0.1312	8399.06	3.9560	3.9560	-0.7695	25.87	-0.04	-0.750			
0.1336	8547.39	3.9530	3.9530	-0.7677	25.87	-0.04	-0.750			
0.1359	8695.26	3.9500	3.9499	-0.7722	25.87	-0.04	-0.750			
0.1382	8843.55	3.9470	3.9469	-0.7743	25.87	-0.04	-0.750			
0.1405	8991.87	3.9440	3.9440	-0.7776	25.87	-0.04	-0.750			
0.1428	9140.33	3.9410	3.9410	-0.7818	25.88	-0.03	-0.750			
0.1452	9291.04	3.9380	3.9380	-0.7834	25.88	-0.03	-0.750			
0.1475	9442.48	3.9350	3.9349	-0.7867	25.88	-0.03	-0.750			
0.1499	9595.86	3.9320	3.9320	-0.7893	25.89	-0.02	-0.750			
0.1523	9746.19	3.9290	3.9291	-0.7856	25.89	-0.02	-0.750			
0.1546	9896.12	3.9260	3.9260	-0.7897	25.90	-0.01	-0.750			
0.1570	10047.84	3.9230	3.9229	-0.7913	25.90	-0.01	-0.750			
0.1594	10198.68	3.9200	3.9200	-0.7912	25.90	-0.01	-0.750			
0.1618	10352.01	3.9170	3.9169	-0.7961	25.91	-0.00	-0.750			
0.1642	10506.08	3.9140	3.9142	-0.8008	25.91	0.00	-0.750			
0.1666	10660.91	3.9110	3.9110	-0.8010	25.91	0.00	-0.750			
0.1690	10813.99	3.9080	3.9080	-0.8030	25.92	0.01	-0.750			
0.1714	10967.95	3.9050	3.9050	-0.8024	25.92	0.01	-0.750			
0.1738	11122.27	3.9020	3.9020	-0.8051	25.93	0.02	-0.750			
0.1762	11277.19	3.8990	3.8991	-0.8039	25.93	0.02	-0.750			
0.1786	11431.61	3.8960	3.8960	-0.8048	25.93	0.02	-0.750			
0.1810	11585.26	3.8930	3.8930	-0.8070	25.93	0.02	-0.750			
0.1834	11740.43	3.8900	3.8900	-0.8083	25.94	0.03	-0.750			
0.1859	11895.46	3.8870	3.8870	-0.8064	25.94	0.03	-0.750			
0.1883	12051.19	3.8840	3.8840	-0.8105	25.94	0.03	-0.750			
0.1907	12206.65	3.8810	3.8811	-0.8134	25.94	0.03	-0.750			
0.1932	12363.28	3.8780	3.8779	-0.8170	25.95	0.04	-0.750			
0.1956	12520.43	3.8750	3.8749	-0.8159	25.95	0.04	-0.750			
0.1981	12676.72	3.8720	3.8721	-0.8179	25.95	0.04	-0.750			
0.2005	12834.96	3.8690	3.8690	-0.8212	25.96	0.05	-0.750			
0.2030	12993.42	3.8660	3.8660	-0.8188	25.96	0.05	-0.750			
0.2054	13148.75	3.8630	3.8630	-0.8183	25.96	0.05	-0.750			
0.2079	13305.96	3.8600	3.8600	-0.8183	25.97	0.06	-0.750			
0.2104	13464.26	3.8570	3.8570	-0.8158	25.97	0.06	-0.750			
0.2128	13620.60	3.8540	3.8539	-0.8155	25.97	0.06	-0.750			
0.2153	13776.11	3.8510	3.8510	-0.8152	25.97	0.06	-0.750			
0.2177	13931.55	3.8480	3.8480	-0.8264	25.98	0.07	-0.750			
0.2202	14092.68	3.8450	3.8448	-0.8227	25.98	0.07	-0.750			
0.2227	14250.02	3.8420	3.8420	-0.8209	25.98	0.07	-0.750			
0.2251	14409.31	3.8390	3.8390	-0.8193	25.99	0.08	-0.750			
0.2276	14567.99	3.8360	3.8359	-0.8199	25.99	0.08	-0.750			
0.2300	14722.80	3.8330	3.8329	-0.8221	26.00	0.09	-0.750			
0.2325	14878.07	3.8300	3.8299	-0.8172	26.00	0.09	-0.750			
0.2349	15034.19	3.8270	3.8270	-0.8165	26.00	0.09	-0.750			
0.2374	15195.28	3.8240	3.8240	-0.8227	26.01	0.10	-0.750			
0.2399	15354.51	3.8210	3.8210	-0.8175	26.01	0.10	-0.750			
0.2424	15510.63	3.8180	3.8180	-0.8179	26.02	0.11	-0.750			
0.2448	15665.56	3.8150	3.8150	-0.8125	26.02	0.11	-0.750			
0.2472	15820.79	3.8120	3.8120	-0.8052	26.02	0.11	-0.750			
0.2496	15976.77	3.8090	3.8089	-0.8048	26.03	0.12	-0.750			
0.2520	16130.42	3.8060	3.8061	-0.8034	26.03	0.12	-0.750			
0.2544	16284.13	3.8030	3.8029	-0.8012	26.03	0.12	-0.750			
0.2569	16438.53	3.8000	3.7999	-0.8050	26.04	0.13	-0.750			
0.2593	16592.63	3.7970	3.7970	-0.7990	26.04	0.13	-0.750			
0.2617	16747.00	3.7940	3.7940	-0.7992	26.05	0.14	-0.750			
0.2641	16901.08	3.7910	3.7913	-0.7942	26.05	0.14	-0.750			
0.2665	17053.38	3.7880	3.7879	-0.7868	26.05	0.14	-0.750			
0.2688	17202.28	3.7850	3.7850	-0.7853	26.06	0.15	-0.750			
0.2711	17351.71	3.7820	3.7819	-0.7777	26.06	0.15	-0.750			
0.2735	17501.63	3.7790	3.7790	-0.7797	26.07	0.16	-0.750			
0.2758	17651.31	3.7760	3.7759	-0.7731	26.07	0.16	-0.750			
0.2781	17798.98	3.7730	3.7730	-0.7707	26.07	0.16	-0.750			
0.2804	17946.22	3.7700	3.7700	-0.7717	26.08	0.17	-0.750			
0.2827	18092.95	3.7670	3.7670	-0.7695	26.08	0.17	-0.750			
0.2850	18239.99	3.7640	3.7640	-0.7677	26.08	0.17	-0.750			
0.2873	18389.26	3.7610	3.7610	-0.7720	26.09	0.18	-0.750			
0.2896	18536.65	3.7580	3.7581	-0.7712	26.09	0.18	-0.750			
0.2920	18685.12	3.7550	3.7551	-0.7761	26.09	0.18	-0.750			
0.2943	18833.51	3.7520	3.7520	-0.7754	26.10	0.19	-0.750			
0.2966	18982.57	3.7490	3.7490	-0.7739	26.10	0.19	-0.750			
0.2989	19131.68	3.7460	3.7460	-0.7792	26.11	0.20	-0.750			
0.3013	19281.62	3.7430	3.7431	-0.7828	26.11	0.20	-0.750			
0.3036	19430.91	3.7400	3.7400	-0.7913	26.11	0.20	-0.750			
0.3060	19582.66	3.7370	3.7369	-0.8012	26.11	0.20	-0.750			
0.3084	19738.09	3.7340	3.7340	-0.8108	26.11	0.20	-0.750			
0.3109	19896.88	3.7310	3.7310	-0.8201	26.11	0.20	-0.750			
0.3134	20055.47	3.7280	3.7281	-0.8269	26.11	0.20	-0.750			
0.3159	20214.58	3.7250	3.7250	-0.8369	26.11	0.20	-0.750			
0.3184	20374.73	3.7220	3.7220	-0.8477	26.12	0.21	-0.750			
0.3209	20537.01	3.7190	3.7189	-0.8587	26.12	0.21	-0.750			
0.3235	20702.11	3.7160	3.7161	-0.8751	26.13	0.22	-0.750			
0.3261	20873.31	3.7130	3.7131	-0.8958	26.13	0.22	-0.750			
0.3288	21045.76	3.7100	3.7099	-0.9211	26.13	0.22	-0.750			
0.3317	21226.87	3.7070	3.7070	-0.9319	26.13	0.22	-0.750			
0.3345	21406.90	3.7040	3.7039	-0.9462	26.13	0.22	-0.750			
0.3373	21590.08	3.7010	3.7010	-0.9575	26.13	0.22	-0.750			
0.3403	21776.21	3.6980	3.6980	-0.9781	26.13	0.22	-0.750			
0.3432	21963.85	3.6950	3.6949	-0.9984	26.13	0.22	-0.750			
0.3462	22156.41	3.6920	3.6919	-1.0155	26.13	0.22	-0.750			
0.3492	22351.72	3.6890	3.6890	-1.0369	26.13	0.22	-0.750			
0.3524	22556.31	3.6860	3.6861	-1.0670	26.13	0.22	-0.750			
0.3557	22763.65	3.6830	3.6830	-1.0864	26.13	0.22	-0.750			
0.3590	22975.00	3.6800	3.6799	-1.1066	26.12	0.21	-0.750			
0.3623	23187.67	3.6770	3.6770	-1.1240	26.12	0.21	-0.750			
0.3657	23406.39	3.6740	3.6740	-1.1497	26.12	0.21	-0.750			
0.3692	23630.83	3.6710	3.6710	-1.1693	26.12	0.21	-0.750			
0.3728	23858.13	3.6680	3.6679	-1.1848	26.11	0.20	-0.750			
0.3763	24085.01	3.6650	3.6653	-1.2107	26.11	0.20	-0.750			
0.3800	24320.20	3.6620	3.6620	-1.2352	26.10	0.19	-0.750			
0.3837	24558.96	3.6590	3.6589	-1.2526	26.10	0.19	-0.750			
0.3875	24799.04	3.6560	3.6560	-1.2835	26.09	0.18	-0.750			
0.3914	25050.25	3.6530	3.6531	-1.3143	26.09	0.18	-0.750			
0.3954	25303.16	3.6500	3.6499	-1.3434	26.08	0.17	-0.750			
0.3994	25563.42	3.6470	3.6469	-1.3810	26.07	0.16	-0.750			
0.4036	25830.67	3.6440	3.6439	-1.4124	26.07	0.16	-0.750			
0.4079	26108.13	3.6410	3.6409	-1.4421	26.06	0.15	-0.750			
0.4124	26392.27	3.6380	3.6380	-1.4794	26.05	0.14	-0.750			
0.4169	26678.40	3.6350	3.6350	-1.4936	26.05	0.14	-0.750			
0.4214	26969.88	3.6320	3.6320	-1.5289	26.05	0.14	-0.750			
0.4260	27262.36	3.6290	3.6290	-1.5584	26.05	0.14	-0.750			
0.4307	27564.77	3.6260	3.6259	-1.5872	26.04	0.13	-0.750			
0.4356	27876.87	3.6230	3.6231	-1.6196	26.04	0.13	-0.750			
0.4405	28190.55	3.6200	3.6200	-1.6502	26.03	0.12	-0.750			
0.4455	28509.01	3.6170	3.6170	-1.6796	26.02	0.11	-0.750	0.393	0.523	
0.4506	28835.64	3.6140	3.6140	-1.7176	26.01	0.10	-0.750			
0.4557	29166.47	3.6110	3.6109	-1.7292	26.01	0.10	-0.750			
0.4610	29501.11	3.6080	3.6079	-1.7621	26.01	0.10	-0.750			
0.4663	29840.94	3.6050	3.6051	-1.7966	26.01	0.10	-0.750			
0.4717	30188.68	3.6020	3.6019	-1.8236	26.00	0.09	-0.750			
0.4772	30540.83	3.5990	3.5990	-1.8493	25.99	0.08	-0.750			
0.4828	30901.02	3.5960	3.5958	-1.8791	25.98	0.07	-0.750			
0.4885	31262.01	3.5930	3.5928	-1.9321	25.98	0.07	-0.750			
0.4945	31645.19	3.5900	3.5898	-1.9629	25.98	0.07	-0.750			
0.5003	32019.06	3.5870	3.5871	-2.0100	25.97	0.06	-0.750			
0.5064	32410.23	3.5840	3.5839	-2.0400	25.97	0.06	-0.750			
0.5126	32805.09	3.5810	3.5809	-2.0962	25.97	0.06	-0.750			
0.5190	33215.48	3.5780	3.5781	-2.1347	25.97	0.06	-0.750			
0.5255	33631.67	3.5750	3.5749	-2.1834	25.97	0.06	-0.750			
0.5322	34057.60	3.5720	3.5720	-2.2044	25.96	0.05	-0.750			
0.5389	34491.48	3.5690	3.5691	-2.2323	25.95	0.04	-0.750			
0.5457	34921.87	3.5660	3.5660	-2.2350	25.95	0.04	-0.750			
0.5524	35353.57	3.5630	3.5630	-2.2338	25.95	0.04	-0.750			
0.5590	35776.04	3.5600	3.5600	-2.2401	25.95	0.04	-0.750			
0.5658	36211.39	3.5570	3.5570	-2.2364	25.95	0.04	-0.750			
0.5725	36638.17	3.5540	3.5541	-2.2382	25.95	0.04	-0.750			
0.5792	37068.46	3.5510	3.5510	-2.2283	25.95	0.04	-0.750			
0.5859	37500.63	3.5480	3.5477	-2.2271	25.95	0.04	-0.750			
0.5926	37928.16	3.5450	3.5452	-2.2132	25.95	0.04	-0.750			
0.5993	38353.79	3.5420	3.5419	-2.1970	25.95	0.04	-0.750			
0.6058	38769.59	3.5390	3.5390	-2.1658	25.95	0.04	-0.750			
0.6123	39189.22	3.5360	3.5360	-2.1239	25.96	0.05	-0.750			
0.6187	39598.14	3.5330	3.5331	-2.1056	25.96	0.05	-0.750			
0.6250	39997.96	3.5300	3.5299	-2.0541	25.97	0.06	-0.750			
0.6311	40390.55	3.5270	3.5269	-2.0135	25.98	0.07	-0.750			
0.6370	40770.64	3.5240	3.5242	-1.9771	25.99	0.08	-0.750			
0.6429	41145.44	3.5210	3.5210	-1.9336	26.00	0.09	-0.750			
0.6487	41516.17	3.5180	3.5180	-1.8828	26.01	0.10	-0.750			
0.6543	41874.30	3.5150	3.5151	-1.8401	26.01	0.10	-0.750			
0.6597	42220.89	3.5120	3.5121	-1.7835	26.02	0.11	-0.750			
0.6650	42559.25	3.5090	3.5090	-1.7375	26.03	0.12	-0.750			
0.6701	42886.44	3.5060	3.5057	-1.6765	26.04	0.13	-0.750			
0.6750	43202.12	3.5030	3.5030	-1.6187	26.05	0.14	-0.750			
0.6798	43508.90	3.5000	3.5000	-1.5682	26.06	0.15	-0.750			
0.6845	43808.92	3.4970	3.4969	-1.5187	26.08	0.17	-0.750			
0.6889	44087.70	3.4940	3.4941	-1.4534	26.09	0.18	-0.750			
0.6932	44365.46	3.4910	3.4909	-1.4095	26.10	0.19	-0.750			
0.6974	44630.80	3.4880	3.4880	-1.3618	26.12	0.21	-0.750			
0.7014	44890.29	3.4850	3.4852	-1.3216	26.13	0.22	-0.750			
0.7053	45140.27	3.4820	3.4819	-1.2758	26.15	0.24	-0.750			
0.7091	45379.81	3.4790	3.4790	-1.2214	26.17	0.26	-0.750			
0.7126	45606.31	3.4760	3.4761	-1.1787	26.18	0.27	-0.750			
0.7161	45828.64	3.4730	3.4730	-1.1450	26.20	0.29	-0.750			
0.7194	46043.62	3.4700	3.4698	-1.1064	26.21	0.30	-0.750			
0.7227	46251.04	3.4670	3.4670	-1.0675	26.22	0.31	-0.750			
0.7258	46452.30	3.4640	3.4642	-1.0395	26.23	0.32	-0.750			
0.7289	46651.61	3.4610	3.4609	-1.0179	26.24	0.33	-0.750			
0.7319	46844.10	3.4580	3.4579	-0.9923	26.25	0.34	-0.750			
0.7348	47027.19	3.4550	3.4550	-0.9581	26.26	0.35	-0.750			
0.7377	47210.49	3.4520	3.4520	-0.9348	26.27	0.36	-0.750			
0.7405	47389.45	3.4490	3.4490	-0.9145	26.28	0.37	-0.750			
0.7432	47561.71	3.4460	3.4460	-0.8991	26.28	0.37	-0.750			
0.7458	47729.91	3.4430	3.4429	-0.8808	26.29	0.38	-0.750			
0.7484	47895.31	3.4400	3.4400	-0.8729	26.30	0.39	-0.750			
0.7510	48061.25	3.4370	3.4369	-0.8771	26.31	0.40	-0.750			
0.7535	48226.98	3.4340	3.4340	-0.8915	26.32	0.41	-0.750			
0.7562	48399.15	3.4310	3.4309	-0.9088	26.33	0.42	-0.750			
0.7590	48574.57	3.4280	3.4280	-0.9236	26.34	0.43	-0.750			
0.7618	48753.77	3.4250	3.4250	-0.9425	26.35	0.44	-0.750			
0.7647	48938.78	3.4220	3.4221	-0.9639	26.36	0.45	-0.750			
0.7676	49126.86	3.4190	3.4190	-0.9792	26.37	0.46	-0.750			
0.7706	49317.74	3.4160	3.4159	-0.9840	26.38	0.47	-0.750			
0.7736	49508.58	3.4130	3.4130	-0.9837	26.38	0.47	-0.750			
0.7766	49699.69	3.4100	3.4102	-0.9809	26.39	0.48	-0.750			
0.7795	49888.80	3.4070	3.4070	-0.9691	26.40	0.49	-0.750			
0.7824	50074.93	3.4040	3.4040	-0.9511	26.41	0.50	-0.750			
0.7853	50256.53	3.4010	3.4010	-0.9228	26.42	0.51	-0.750			
0.7880	50433.29	3.3980	3.3980	-0.8999	26.43	0.52	-0.750			
0.7907	50602.96	3.3950	3.3950	-0.8683	26.44	0.53	-0.750			
0.7932	50766.79	3.3920	3.3920	-0.8384	26.44	0.53	-0.750			
0.7957	50923.52	3.3890	3.3890	-0.8075	26.45	0.54	-0.750			
0.7980	51074.95	3.3860	3.3861	-0.7776	26.46	0.55	-0.750			
0.8003	51222.02	3.3830	3.3829	-0.7515	26.47	0.56	-0.750			
0.8026	51364.27	3.3800	3.3800	-0.7240	26.47	0.56	-0.750			
0.8047	51500.35	3.3770	3.3770	-0.6937	26.48	0.57	-0.750			
0.8067	51629.53	3.3740	3.3740	-0.6696	26.48	0.57	-0.750			
0.8087	51755.41	3.3710	3.3710	-0.6458	26.49	0.58	-0.750			
0.8106	51877.50	3.3680	3.3680	-0.6236	26.49	0.58	-0.750			
0.8124	51995.15	3.3650	3.3649	-0.6019	26.50	0.59	-0.750			
0.8142	52108.77	3.3620	3.3620	-0.5781	26.50	0.59	-0.750			
0.8159	52218.13	3.3590	3.3590	-0.5574	26.51	0.60	-0.750			
0.8175	52322.49	3.3560	3.3560	-0.5362	26.51	0.60	-0.750			
0.8191	52421.46	3.3530	3.3530	-0.5139	26.52	0.61	-0.750			
0.8206	52518.11	3.3500	3.3500	-0.4996	26.53	0.62	-0.750			
0.8221	52612.36	3.3470	3.3470	-0.4831	26.53	0.62	-0.750			
0.8235	52703.82	3.3440	3.3440	-0.4666	26.54	0.63	-0.750			
0.8249	52792.37	3.3410	3.3409	-0.4513	26.54	0.63	-0.750			
0.8262	52877.85	3.3380	3.3382	-0.4345	26.55	0.64	-0.750			
0.8275	52959.72	3.3350	3.3349	-0.4182	26.56	0.65	-0.750			
0.8287	53037.92	3.3320	3.3320	-0.4019	26.56	0.65	-0.750			
0.8299	53113.01	3.3290	3.3290	-0.3891	26.57	0.66	-0.750			
0.8310	53186.00	3.3260	3.3259	-0.3764	26.57	0.66	-0.750			
0.8321	53256.79	3.3230	3.3230	-0.3653	26.58	0.67	-0.750			
0.8332	53325.27	3.3200	3.3201	-0.3553	26.58	0.67	-0.750			
0.8343	53392.62	3.3170	3.3170	-0.3468	26.59	0.68	-0.750			
0.8353	53458.89	3.3140	3.3139	-0.3382	26.59	0.68	-0.750			
0.8363	53522.66	3.3110	3.3110	-0.3270	26.60	0.69	-0.750			
0.8373	53584.43	3.3080	3.3080	-0.3175	26.60	0.69	-0.750			
0.8382	53645.08	3.3050	3.3050	-0.3087	26.61	0.70	-0.750			
0.8391	53703.10	3.3020	3.3020	-0.2986	26.61	0.70	-0.750			
0.8400	53758.82	3.2990	3.2990	-0.2887	26.62	0.71	-0.750			
0.8408	53813.14	3.2960	3.2960	-0.2821	26.62	0.71	-0.750			
0.8417	53866.23	3.2930	3.2929	-0.2759	26.63	0.72	-0.750			
0.8425	53918.75	3.2900	3.2900	-0.2702	26.63	0.72	-0.750			
0.8433	53969.88	3.2870	3.2870	-0.2642	26.64	0.73	-0.750			
0.8441	54020.24	3.2840	3.2840	-0.2593	26.64	0.73	-0.750			
0.8448	54069.70	3.2810	3.2810	-0.2550	26.65	0.74	-0.750			
0.8456	54118.13	3.2780	3.2780	-0.2493	26.65	0.74	-0.750			
0.8463	54165.38	3.2750	3.2750	-0.2432	26.66	0.75	-0.750			
0.8471	54211.40	3.2720	3.2720	-0.2383	26.66	0.75	-0.750			
0.8478	54256.28	3.2690	3.2691	-0.2334	26.67	0.76	-0.750			
0.8485	54300.82	3.2660	3.2660	-0.2293	26.67	0.76	-0.750			
0.8491	54344.23	3.2630	3.2629	-0.2246	26.68	0.77	-0.750			
0.8498	54386.98	3.2600	3.2601	-0.2206	26.68	0.77	-0.750			
0.8504	54428.67	3.2570	3.2570	-0.2163	26.68	0.77	-0.750			
0.8511	54470.15	3.2540	3.2540	-0.2129	26.69	0.78	-0.750			
0.8517	54510.68	3.2510	3.2510	-0.2093	26.69	0.78	-0.750			
0.8523	54550.25	3.2480	3.2480	-0.2050	26.70	0.79	-0.750			
0.8530	54589.01	3.2450	3.2450	-0.2017	26.70	0.79	-0.750			
0.8536	54627.45	3.2420	3.2420	-0.1988	26.71	0.80	-0.750			
0.8541	54665.24	3.2390	3.2390	-0.1963	26.72	0.81	-0.750			
0.8547	54702.68	3.2360	3.2359	-0.1933	26.72	0.81	-0.750			
0.8553	54739.44	3.2330	3.2330	-0.1908	26.73	0.82	-0.750			
0.8559	54775.85	3.2300	3.2301	-0.1885	26.73	0.82	-0.750			
0.8564	54811.78	3.2270	3.2270	-0.1863	26.74	0.83	-0.750			
0.8570	54847.50	3.2240	3.2239	-0.1840	26.74	0.83	-0.750			
0.8575	54882.36	3.2210	3.2209	-0.1815	26.75	0.84	-0.750			
0.8581	54917.01	3.2180	3.2181	-0.1795	26.75	0.84	-0.750			
0.8586	54951.31	3.2150	3.2151	-0.1769	26.76	0.85	-0.750			
0.8591	54985.18	3.2120	3.2119	-0.1750	26.76	0.85	-0.750			
0.8597	55018.29	3.2090	3.2090	-0.1728	26.77	0.86	-0.750			
0.8602	55051.30	3.2060	3.2061	-0.1710	26.77	0.86	-0.750			
0.8607	55083.74	3.2030	3.2030	-0.1700	26.77	0.86	-0.750			
0.8612	55116.53	3.2000	3.1999	-0.1677	26.78	0.87	-0.750			
0.8617	55148.59	3.1970	3.1971	-0.1656	26.78	0.87	-0.750			
0.8622	55180.21	3.1940	3.1940	-0.1634	26.79	0.88	-0.750			
0.8627	55211.67	3.1910	3.1911	-0.1614	26.79	0.88	-0.750			
0.8632	55242.37	3.1880	3.1879	-0.1591	26.80	0.89	-0.750			
0.8636	55272.15	3.1850	3.1848	-0.1574	26.80	0.89	-0.750			
0.8641	55302.41	3.1820	3.1820	-0.1559	26.80	0.89	-0.750			
0.8646	55331.95	3.1790	3.1790	-0.1544	26.81	0.90	-0.750			
0.8650	55361.86	3.1760	3.1759	-0.1532	26.81	0.90	-0.750			
0.8655	55391.00	3.1730	3.1731	-0.1519	26.82	0.91	-0.750			
0.8659	55420.06	3.1700	3.1701	-0.1506	26.83	0.92	-0.750			
0.8664	55448.84	3.1670	3.1669	-0.1492	26.83	0.92	-0.750			
0.8668	55477.25	3.1640	3.1640	-0.1483	26.84	0.93	-0.750			
0.8673	55505.33	3.1610	3.1611	-0.1468	26.84	0.93	-0.750			
0.8677	55533.91	3.1580	3.1580	-0.1462	26.85	0.94	-0.750			
0.8682	55561.83	3.1550	3.1550	-0.1446	26.85	0.94	-0.750			
0.8686	55589.50	3.1520	3.1521	-0.1436	26.86	0.95	-0.750			
0.8690	55616.89	3.1490	3.1490	-0.1421	26.86	0.95	-0.750			
0.8694	55644.21	3.1460	3.1459	-0.1405	26.87	0.96	-0.750			
0.8699	55671.01	3.1430	3.1430	-0.1387	26.87	0.96	-0.750			
0.8703	55697.30	3.1400	3.1400	-0.1373	26.88	0.97	-0.750			
0.8707	55723.49	3.1370	3.1370	-0.1361	26.88	0.97	-0.750			
0.8711	55749.36	3.1340	3.1339	-0.1354	26.89	0.98	-0.750			
0.8715	55775.28	3.1310	3.1310	-0.1346	26.89	0.98	-0.750			
0.8719	55800.77	3.1280	3.1280	-0.1337	26.90	0.99	-0.750			
0.8723	55826.65	3.1250	3.1249	-0.1328	26.90	0.99	-0.750			
0.8727	55852.32	3.1220	3.1220	-0.1323	26.91	1.00	-0.750			
0.8731	55877.52	3.1190	3.1191	-0.1312	26.91	1.00	-0.750			
0.8735	55902.57	3.1160	3.1160	-0.1300	26.92	1.01	-0.750			
0.8739	55927.46	3.1130	3.1130	-0.1289	26.92	1.01	-0.750			
0.8742	55951.84	3.1100	3.1099	-0.1275	26.93	1.02	-0.750			
0.8746	55976.24	3.1070	3.1071	-0.1267	26.93	1.02	-0.750			
0.8750	56000.53	3.1040	3.1041	-0.1259	26.93	1.02	-0.750			
0.8754	56024.75	3.1010	3.1009	-0.1253	26.94	1.03	-0.750			
0.8758	56048.74	3.0980	3.0980	-0.1242	26.94	1.03	-0.750			
0.8761	56072.44	3.0950	3.0951	-0.1230	26.95	1.04	-0.750			
0.8765	56095.89	3.0920	3.0920	-0.1223	26.95	1.04	-0.750			
0.8769	56119.30	3.0890	3.0890	-0.1214	26.96	1.05	-0.750			
0.8772	56142.47	3.0860	3.0859	-0.1210	26.96	1.05	-0.750			
0.8776	56165.48	3.0830	3.0831	-0.1203	26.97	1.06	-0.750			
0.8779	56188.58	3.0800	3.0800	-0.1194	26.97	1.06	-0.750			
0.8783	56211.47	3.0770	3.0769	-0.1188	26.98	1.07	-0.750			
0.8787	56234.43	3.0740	3.0741	-0.1180	26.98	1.07	-0.750			
0.8790	56256.97	3.0710	3.0709	-0.1168	26.99	1.08	-0.750			
0.8794	56279.25	3.0680	3.0680	-0.1157	26.99	1.08	-0.750			
0.8797	56301.35	3.0650	3.0650	-0.1145	27.00	1.09	-0.750			
0.8800	56322.90	3.0620	3.0621	-0.1140	27.00	1.09	-0.750			
0.8804	56344.77	3.0590	3.0589	-0.1138	27.01	1.10	-0.750			
0.8807	56366.57	3.0560	3.0560	-0.1130	27.01	1.10	-0.750			
0.8811	56388.23	3.0530	3.0529	-0.1126	27.02	1.11	-0.750			
0.8814	56409.88	3.0500	3.0501	-0.1122	27.02	1.11	-0.750			
0.8817	56431.38	3.0470	3.0471	-0.1117	27.03	1.12	-0.750			
0.8821	56452.84	3.0440	3.0439	-0.1114	27.03	1.12	-0.750			
0.8824	56474.18	3.0410	3.0410	-0.1108	27.04	1.13	-0.750			
0.8827	56495.43	3.0380	3.0380	-0.1095	27.04	1.13	-0.750			
0.8831	56516.38	3.0350	3.0350	-0.1087	27.04	1.13	-0.750			
0.8834	56537.33	3.0320	3.0322	-0.1083	27.05	1.14	-0.750			
0.8837	56558.01	3.0290	3.0290	-0.1072	27.05	1.14	-0.750			
0.8840	56578.31	3.0260	3.0259	-0.1064	27.06	1.15	-0.750			
0.8844	56598.67	3.0230	3.0230	-0.1057	27.06	1.15	-0.750			
0.8847	56619.05	3.0200	3.0199	-0.1042	27.07	1.16	-0.750			
0.8850	56638.95	3.0170	3.0171	-0.1031	27.07	1.16	-0.750			
0.8853	56658.60	3.0140	3.0140	-0.1024	27.08	1.17	-0.750			
0.8856	56678.40	3.0110	3.0111	-0.1015	27.08	1.17	-0.750			
0.8859	56697.77	3.0080	3.0078	-0.1003	27.08	1.17	-0.751			
0.8862	56716.85	3.0050	3.0049	-0.0993	27.09	1.18	-0.751			
0.8865	56735.82	3.0020	3.0021	-0.0982	27.09	1.18	-0.751			
