Ah_balance (normalized)	Ah_balance (mAh)	Voltage - fit (V)	Voltage -  interpolate (V)	dQ/dV (1/V)	Temperature (°C)	Temperature - diff (°C)	Current (C)	R_DC 0ms (mOhm)	R_DC 50ms (mOhm)	R_DC 50 ms PEC (mOhm)
0.0003	21.51	4.1520	4.1518	-0.1186	25.32	0.00	-0.750			
0.0007	46.83	4.1490	4.1490	-0.1534	25.32	0.00	-0.750			
0.0013	80.22	4.1460	4.1460	-0.1927	25.32	0.00	-0.750			
0.0019	121.43	4.1430	4.1430	-0.2298	25.32	0.00	-0.750			
0.0026	169.17	4.1400	4.1399	-0.2667	25.32	0.00	-0.750			
0.0035	224.38	4.1370	4.1371	-0.3021	25.32	0.00	-0.750			
0.0045	286.27	4.1340	4.1340	-0.3371	25.32	0.00	-0.750			
0.0055	354.56	4.1310	4.1310	-0.3714	25.32	0.00	-0.750			
0.0067	429.58	4.1280	4.1280	-0.3994	25.32	0.00	-0.750			
0.0080	509.88	4.1250	4.1250	-0.4275	25.32	0.00	-0.750			
0.0093	594.94	4.1220	4.1220	-0.4536	25.32	0.00	-0.750			
0.0107	684.76	4.1190	4.1190	-0.4769	25.32	0.00	-0.750			
0.0122	778.81	4.1160	4.1160	-0.4998	25.32	0.00	-0.750			
0.0137	876.81	4.1130	4.1130	-0.5210	25.32	0.00	-0.750			
0.0153	979.49	4.1100	4.1100	-0.5415	25.32	0.00	-0.750			
0.0170	1087.23	4.1070	4.1070	-0.5587	25.32	0.00	-0.750			
0.0187	1197.47	4.1040	4.1039	-0.5711	25.32	0.00	-0.750			
0.0204	1308.33	4.1010	4.1011	-0.5800	25.32	0.00	-0.750	0.385	0.559	
0.0222	1420.62	4.0980	4.0980	-0.5921	25.32	0.00	-0.750			
0.0240	1534.31	4.0950	4.0950	-0.6018	25.32	0.00	-0.750			
0.0258	1649.96	4.0920	4.0920	-0.6119	25.32	0.00	-0.750			
0.0276	1768.02	4.0890	4.0890	-0.6245	25.32	0.00	-0.750			
0.0295	1890.13	4.0860	4.0860	-0.6366	25.32	0.00	-0.750			
0.0315	2015.78	4.0830	4.0830	-0.6430	25.32	0.00	-0.750			
0.0334	2138.72	4.0800	4.0800	-0.6519	25.32	0.00	-0.750			
0.0354	2264.64	4.0770	4.0771	-0.6536	25.32	0.00	-0.750			
0.0374	2391.23	4.0740	4.0738	-0.6592	25.32	0.00	-0.750			
0.0393	2517.52	4.0710	4.0710	-0.6620	25.33	0.01	-0.750	0.384	0.558	
0.0413	2644.60	4.0680	4.0681	-0.6662	25.33	0.01	-0.750			
0.0433	2773.62	4.0650	4.0650	-0.6696	25.33	0.01	-0.750			
0.0454	2902.98	4.0620	4.0618	-0.6717	25.34	0.02	-0.750			
0.0473	3030.29	4.0590	4.0593	-0.6742	25.34	0.02	-0.750			
0.0494	3161.07	4.0560	4.0560	-0.6825	25.34	0.02	-0.750			
0.0514	3290.74	4.0530	4.0530	-0.6883	25.35	0.03	-0.750			
0.0535	3426.45	4.0500	4.0500	-0.7025	25.35	0.03	-0.750			
0.0557	3563.59	4.0470	4.0468	-0.7069	25.35	0.03	-0.750			
0.0578	3702.36	4.0440	4.0437	-0.7046	25.36	0.04	-0.750			
0.0600	3839.05	4.0410	4.0407	-0.7016	25.36	0.04	-0.750	0.385	0.551	
0.0621	3971.98	4.0380	4.0377	-0.6931	25.36	0.04	-0.750			
0.0641	4100.78	4.0350	4.0350	-0.6906	25.37	0.05	-0.750			
0.0661	4230.78	4.0320	4.0320	-0.6912	25.37	0.05	-0.750			
0.0682	4363.23	4.0290	4.0289	-0.7019	25.37	0.05	-0.750			
0.0703	4499.54	4.0260	4.0260	-0.7112	25.38	0.06	-0.750			
0.0724	4636.68	4.0230	4.0232	-0.7207	25.38	0.06	-0.750			
0.0746	4776.50	4.0200	4.0200	-0.7227	25.38	0.06	-0.750			
0.0768	4915.00	4.0170	4.0169	-0.7267	25.39	0.07	-0.750			
0.0790	5056.49	4.0140	4.0138	-0.7237	25.39	0.07	-0.750	0.386	0.548	
0.0812	5196.38	4.0110	4.0110	-0.7243	25.39	0.07	-0.750			
0.0834	5334.70	4.0080	4.0079	-0.7203	25.40	0.08	-0.750			
0.0855	5469.94	4.0050	4.0052	-0.7215	25.40	0.08	-0.750			
0.0876	5608.21	4.0020	4.0019	-0.7183	25.41	0.09	-0.750			
0.0898	5748.09	3.9990	3.9989	-0.7282	25.41	0.09	-0.750			
0.0920	5886.96	3.9960	3.9960	-0.7244	25.42	0.10	-0.750			
0.0942	6029.52	3.9930	3.9932	-0.7344	25.42	0.10	-0.750			
0.0964	6170.95	3.9900	3.9899	-0.7340	25.43	0.11	-0.750			
0.0986	6311.93	3.9870	3.9869	-0.7319	25.43	0.11	-0.750			
0.1008	6449.00	3.9840	3.9842	-0.7280	25.44	0.12	-0.750	0.376	0.544	
0.1030	6590.59	3.9810	3.9810	-0.7357	25.44	0.12	-0.750			
0.1052	6731.35	3.9780	3.9780	-0.7364	25.45	0.13	-0.750			
0.1074	6873.91	3.9750	3.9749	-0.7395	25.45	0.13	-0.750			
0.1096	7016.50	3.9720	3.9721	-0.7416	25.46	0.14	-0.750			
0.1118	7157.22	3.9690	3.9691	-0.7521	25.46	0.14	-0.750			
0.1141	7302.52	3.9660	3.9659	-0.7561	25.47	0.15	-0.750			
0.1164	7449.67	3.9630	3.9629	-0.7549	25.48	0.16	-0.750			
0.1187	7594.50	3.9600	3.9600	-0.7538	25.48	0.16	-0.750			
0.1210	7741.04	3.9570	3.9569	-0.7582	25.49	0.17	-0.750	0.390	0.550	
0.1232	7886.63	3.9540	3.9540	-0.7570	25.49	0.17	-0.750			
0.1255	8029.71	3.9510	3.9509	-0.7579	25.50	0.18	-0.750			
0.1277	8172.52	3.9480	3.9480	-0.7552	25.50	0.18	-0.750			
0.1300	8320.53	3.9450	3.9450	-0.7623	25.51	0.19	-0.750			
0.1324	8470.69	3.9420	3.9419	-0.7623	25.51	0.19	-0.750			
0.1346	8616.51	3.9390	3.9390	-0.7631	25.52	0.20	-0.750			
0.1369	8761.20	3.9360	3.9360	-0.7638	25.52	0.20	-0.750			
0.1391	8905.58	3.9330	3.9331	-0.7711	25.53	0.21	-0.750	0.395	0.549	
0.1415	9055.02	3.9300	3.9302	-0.7720	25.53	0.21	-0.750			
0.1438	9203.66	3.9270	3.9270	-0.7754	25.53	0.21	-0.750			
0.1462	9354.17	3.9240	3.9240	-0.7806	25.54	0.22	-0.750			
0.1485	9505.00	3.9210	3.9210	-0.7851	25.54	0.22	-0.750			
0.1509	9657.13	3.9180	3.9179	-0.7819	25.55	0.23	-0.750			
0.1532	9805.78	3.9150	3.9150	-0.7837	25.56	0.24	-0.750			
0.1558	9971.72	3.9120	3.9117	-0.7220	25.57	0.25	-0.750			
0.1578	10098.84	3.9090	3.9092	-0.7632	25.57	0.25	-0.750			
0.1600	10239.48	3.9060	3.9067	-0.7685	25.58	0.26	-0.750	0.400	0.560	
0.1623	10385.94	3.9030	3.9035	-0.7833	25.59	0.27	-0.750			
0.1646	10535.28	3.9000	3.9006	-0.7910	25.59	0.27	-0.750			
0.1670	10690.97	3.8970	3.8975	-0.8098	25.60	0.28	-0.750			
0.1696	10853.24	3.8940	3.8943	-0.8139	25.60	0.28	-0.750			
0.1721	11016.29	3.8910	3.8910	-0.7931	25.61	0.29	-0.750			
0.1745	11169.64	3.8880	3.8880	-0.7958	25.62	0.30	-0.750			
0.1769	11323.25	3.8850	3.8849	-0.7994	25.62	0.30	-0.750			
0.1793	11478.36	3.8820	3.8821	-0.7982	25.63	0.31	-0.750	0.399	0.549	
0.1818	11632.24	3.8790	3.8790	-0.7988	25.63	0.31	-0.750			
0.1842	11785.64	3.8760	3.8760	-0.7960	25.64	0.32	-0.750			
0.1865	11937.75	3.8730	3.8730	-0.7936	25.64	0.32	-0.750			
0.1888	12085.64	3.8700	3.8700	-0.7954	25.65	0.33	-0.750			
0.1913	12240.13	3.8670	3.8670	-0.7997	25.65	0.33	-0.750			
0.1937	12394.80	3.8640	3.8639	-0.8018	25.65	0.33	-0.750			
0.1961	12552.61	3.8610	3.8609	-0.8037	25.66	0.34	-0.750			
0.1985	12706.37	3.8580	3.8579	-0.7968	25.66	0.34	-0.750			
0.2009	12858.58	3.8550	3.8552	-0.7976	25.67	0.35	-0.750	0.389	0.547	
0.2033	13010.63	3.8520	3.8519	-0.7922	25.68	0.36	-0.750			
0.2056	13158.67	3.8490	3.8490	-0.7839	25.69	0.37	-0.750			
0.2080	13311.00	3.8460	3.8459	-0.7885	25.69	0.37	-0.750			
0.2104	13463.71	3.8430	3.8431	-0.7945	25.70	0.38	-0.750			
0.2127	13614.05	3.8400	3.8399	-0.8025	25.70	0.38	-0.750			
0.2151	13769.46	3.8370	3.8370	-0.8036	25.71	0.39	-0.750			
0.2176	13925.11	3.8340	3.8339	-0.8006	25.71	0.39	-0.750			
0.2200	14081.04	3.8310	3.8312	-0.7989	25.72	0.40	-0.750	0.384	0.545	
0.2224	14234.17	3.8280	3.8283	-0.7954	25.72	0.40	-0.750			
0.2248	14385.91	3.8250	3.8249	-0.7883	25.73	0.41	-0.750			
0.2271	14534.88	3.8220	3.8221	-0.7856	25.74	0.42	-0.750			
0.2294	14681.27	3.8190	3.8190	-0.7785	25.75	0.43	-0.750			
0.2318	14835.17	3.8160	3.8160	-0.7848	25.76	0.44	-0.750			
0.2341	14985.48	3.8130	3.8129	-0.7881	25.77	0.45	-0.750			
0.2365	15138.72	3.8100	3.8099	-0.7856	25.77	0.45	-0.750			
0.2389	15288.66	3.8070	3.8068	-0.7782	25.78	0.46	-0.750			
0.2412	15438.11	3.8040	3.8042	-0.7724	25.79	0.47	-0.750	0.388	0.543	
0.2435	15585.00	3.8010	3.8010	-0.7666	25.79	0.47	-0.750			
0.2458	15733.27	3.7980	3.7979	-0.7578	25.80	0.48	-0.750			
0.2481	15876.15	3.7950	3.7950	-0.7478	25.80	0.48	-0.750			
0.2503	16019.79	3.7920	3.7921	-0.7441	25.80	0.48	-0.750			
0.2525	16161.09	3.7890	3.7890	-0.7454	25.81	0.49	-0.750			
0.2548	16305.70	3.7860	3.7860	-0.7467	25.81	0.49	-0.750			
0.2570	16450.37	3.7830	3.7828	-0.7429	25.82	0.50	-0.750			
0.2593	16592.63	3.7800	3.7798	-0.7401	25.82	0.50	-0.750	0.395	0.548	
0.2615	16735.45	3.7770	3.7771	-0.7439	25.82	0.50	-0.750			
0.2637	16876.97	3.7740	3.7739	-0.7421	25.83	0.51	-0.750			
0.2659	17018.46	3.7710	3.7709	-0.7452	25.83	0.51	-0.750			
0.2681	17161.10	3.7680	3.7679	-0.7421	25.84	0.52	-0.750			
0.2704	17306.33	3.7650	3.7650	-0.7474	25.85	0.53	-0.750			
0.2727	17451.04	3.7620	3.7622	-0.7489	25.85	0.53	-0.750			
0.2749	17592.76	3.7590	3.7589	-0.7363	25.85	0.53	-0.750			
0.2770	17731.15	3.7560	3.7560	-0.7378	25.86	0.54	-0.750			
0.2792	17870.06	3.7530	3.7531	-0.7403	25.86	0.54	-0.750	0.394	0.545	
0.2815	18014.23	3.7500	3.7496	-0.7520	25.86	0.54	-0.750			
0.2837	18158.92	3.7470	3.7471	-0.7564	25.87	0.55	-0.750			
0.2860	18304.11	3.7440	3.7441	-0.7644	25.87	0.55	-0.750			
0.2883	18453.07	3.7410	3.7410	-0.7750	25.88	0.56	-0.750			
0.2906	18600.60	3.7380	3.7380	-0.7735	25.88	0.56	-0.750			
0.2930	18750.47	3.7350	3.7350	-0.7884	25.89	0.57	-0.750			
0.2954	18904.75	3.7320	3.7319	-0.7982	25.90	0.58	-0.750			
0.2978	19059.72	3.7290	3.7290	-0.8081	25.90	0.58	-0.750			
0.3002	19215.96	3.7260	3.7264	-0.8154	25.90	0.58	-0.750	0.399	0.548	
0.3027	19374.05	3.7230	3.7229	-0.8320	25.91	0.59	-0.750			
0.3052	19535.30	3.7200	3.7199	-0.8431	25.91	0.59	-0.750			
0.3078	19697.10	3.7170	3.7169	-0.8512	25.92	0.60	-0.750			
0.3103	19860.22	3.7140	3.7143	-0.8724	25.92	0.60	-0.750			
0.3130	20030.35	3.7110	3.7110	-0.8941	25.92	0.60	-0.750			
0.3157	20204.34	3.7080	3.7078	-0.9007	25.92	0.60	-0.750			
0.3184	20375.75	3.7050	3.7049	-0.9129	25.93	0.61	-0.750			
0.3212	20558.13	3.7020	3.7014	-0.9328	25.93	0.61	-0.750	0.394	0.548	
0.3241	20740.95	3.6990	3.6987	-0.9328	25.93	0.61	-0.750			
0.3269	20920.13	3.6960	3.6960	-0.9350	25.93	0.61	-0.750			
0.3296	21091.40	3.6930	3.6932	-0.9482	25.93	0.61	-0.750			
0.3325	21277.58	3.6900	3.6899	-0.9703	25.93	0.61	-0.750			
0.3355	21470.91	3.6870	3.6868	-0.9122	25.93	0.61	-0.750			
0.3380	21634.30	3.6840	3.6843	-0.9601	25.93	0.61	-0.750			
0.3409	21815.86	3.6810	3.6820	-1.0161	25.93	0.61	-0.750	0.401	0.553	
0.3439	22010.77	3.6780	3.6786	-1.0664	25.93	0.61	-0.750			
0.3472	22219.00	3.6750	3.6759	-1.1059	25.93	0.61	-0.750			
0.3506	22440.54	3.6720	3.6724	-1.1567	25.93	0.61	-0.750			
0.3543	22674.72	3.6690	3.6692	-1.1697	25.93	0.61	-0.750			
0.3580	22912.81	3.6660	3.6659	-1.1495	25.93	0.61	-0.750			
0.3615	23136.75	3.6630	3.6632	-1.1769	25.93	0.61	-0.750	0.395	0.548	
0.3650	23363.09	3.6600	3.6600	-1.1928	25.93	0.61	-0.750			
0.3686	23589.93	3.6570	3.6569	-1.2154	25.92	0.60	-0.750			
0.3723	23825.63	3.6540	3.6542	-1.2381	25.92	0.60	-0.750			
0.3761	24069.97	3.6510	3.6508	-1.2682	25.92	0.60	-0.750			
0.3800	24317.14	3.6480	3.6480	-1.2843	25.91	0.59	-0.750	0.413	0.560	
0.3838	24564.79	3.6450	3.6451	-1.3130	25.91	0.59	-0.750			
0.3878	24822.15	3.6420	3.6418	-1.3468	25.91	0.59	-0.750			
0.3920	25085.00	3.6390	3.6388	-1.3588	25.90	0.58	-0.750			
0.3961	25347.90	3.6360	3.6360	-1.3746	25.89	0.57	-0.750			
0.4003	25616.05	3.6330	3.6331	-1.3817	25.89	0.57	-0.750	0.403	0.558	
0.4044	25881.41	3.6300	3.6298	-1.4369	25.89	0.57	-0.750			
0.4087	26159.30	3.6270	3.6268	-1.4830	25.89	0.57	-0.750			
0.4132	26444.43	3.6240	3.6235	-1.5100	25.89	0.57	-0.750			
0.4179	26744.43	3.6210	3.6212	-1.5581	25.88	0.56	-0.750			
0.4227	27053.68	3.6180	3.6183	-1.5934	25.88	0.56	-0.750	0.421	0.577	
0.4277	27370.39	3.6150	3.6150	-1.5788	25.88	0.56	-0.750			
0.4323	27665.58	3.6120	3.6121	-1.5849	25.87	0.55	-0.750			
0.4368	27956.46	3.6090	3.6092	-1.6074	25.87	0.55	-0.750			
0.4417	28266.22	3.6060	3.6066	-1.6801	25.87	0.55	-0.750	0.416	0.572	
0.4468	28593.85	3.6030	3.6032	-1.7181	25.87	0.55	-0.750			
0.4521	28931.23	3.6000	3.6002	-1.7845	25.86	0.54	-0.750			
0.4576	29284.71	3.5970	3.5969	-1.8419	25.85	0.53	-0.750	0.397	0.559	
0.4633	29652.22	3.5940	3.5940	-1.8731	25.85	0.53	-0.750			
0.4688	30001.78	3.5910	3.5909	-1.8601	25.85	0.53	-0.750			
0.4744	30358.46	3.5880	3.5880	-1.8967	25.85	0.53	-0.750			
0.4801	30725.46	3.5850	3.5854	-1.9391	25.85	0.53	-0.750	0.402	0.562	
0.4859	31098.72	3.5820	3.5821	-1.9717	25.85	0.53	-0.750			
0.4919	31481.89	3.5790	3.5788	-2.0096	25.85	0.53	-0.750			
0.4981	31876.51	3.5760	3.5760	-2.0353	25.85	0.53	-0.750	0.399	0.568	
0.5046	32296.85	3.5730	3.5729	-2.0006	25.85	0.53	-0.750			
0.5105	32669.75	3.5700	3.5700	-2.0009	25.85	0.53	-0.750			
0.5163	33041.63	3.5670	3.5673	-2.0260	25.84	0.52	-0.750			
0.5223	33427.49	3.5640	3.5642	-2.0767	25.84	0.52	-0.750	0.406	0.571	
0.5285	33826.64	3.5610	3.5610	-2.1140	25.85	0.53	-0.750			
0.5350	34238.45	3.5580	3.5584	-2.1657	25.85	0.53	-0.750			
0.5418	34677.32	3.5550	3.5553	-2.1803	25.85	0.53	-0.750	0.414	0.585	
0.5488	35125.33	3.5520	3.5519	-2.2241	25.85	0.53	-0.750			
0.5548	35508.74	3.5490	3.5491	-2.1447	25.85	0.53	-0.750			
0.5613	35924.12	3.5460	3.5456	-2.1288	25.85	0.53	-0.750	0.398	0.574	
0.5677	36331.05	3.5430	3.5431	-2.1295	25.86	0.54	-0.750			
0.5740	36737.99	3.5400	3.5401	-2.0988	25.86	0.54	-0.750			
0.5803	37141.57	3.5370	3.5372	-2.0976	25.87	0.55	-0.750	0.390	0.567	
0.5866	37541.62	3.5340	3.5341	-2.0696	25.87	0.55	-0.750			
0.5928	37942.12	3.5310	3.5307	-2.0381	25.87	0.55	-0.750			
0.5989	38332.75	3.5280	3.5279	-2.0225	25.87	0.55	-0.750	0.394	0.577	
0.6051	38724.79	3.5250	3.5250	-1.9815	25.88	0.56	-0.750			
0.6110	39102.83	3.5220	3.5219	-1.9254	25.89	0.57	-0.750			
0.6167	39468.29	3.5190	3.5190	-1.8657	25.90	0.58	-0.750			
0.6222	39819.87	3.5160	3.5162	-1.8318	25.91	0.59	-0.750	0.403	0.597	
0.6276	40163.39	3.5130	3.5131	-1.7710	25.92	0.60	-0.750			
0.6328	40499.59	3.5100	3.5099	-1.7309	25.93	0.61	-0.750			
0.6378	40817.01	3.5070	3.5069	-1.7045	25.94	0.62	-0.750			
0.6430	41151.66	3.5040	3.5040	-1.6774	25.96	0.64	-0.750	0.404	0.597	
0.6480	41469.86	3.5010	3.5012	-1.6076	25.97	0.65	-0.750			
0.6527	41775.23	3.4980	3.4986	-1.5595	25.98	0.66	-0.750			
0.6573	42067.48	3.4950	3.4950	-1.5187	25.99	0.67	-0.750			
0.6618	42352.03	3.4920	3.4925	-1.4553	26.01	0.69	-0.750	0.393	0.598	
0.6661	42627.26	3.4890	3.4890	-1.4140	26.02	0.70	-0.750			
0.6703	42899.39	3.4860	3.4860	-1.4032	26.03	0.71	-0.750			
0.6746	43172.66	3.4830	3.4829	-1.3592	26.05	0.73	-0.750			
0.6787	43434.29	3.4800	3.4797	-1.3154	26.07	0.75	-0.750			
0.6824	43673.59	3.4770	3.4770	-1.2520	26.08	0.76	-0.750	0.402	0.604	
0.6861	43907.43	3.4740	3.4739	-1.2092	26.09	0.77	-0.750			
0.6896	44135.86	3.4710	3.4709	-1.1811	26.11	0.79	-0.750			
0.6930	44354.81	3.4680	3.4678	-1.1248	26.12	0.80	-0.750			
0.6964	44571.35	3.4650	3.4651	-1.0992	26.13	0.81	-0.750			
0.6997	44783.38	3.4620	3.4620	-1.0747	26.14	0.82	-0.750	0.419	0.617	
0.7029	44985.76	3.4590	3.4588	-1.0408	26.16	0.84	-0.750			
0.7060	45181.92	3.4560	3.4559	-1.0024	26.17	0.85	-0.750			
0.7088	45366.26	3.4530	3.4530	-0.9670	26.19	0.87	-0.750			
0.7117	45546.35	3.4500	3.4500	-0.9542	26.20	0.88	-0.750			
0.7146	45732.44	3.4470	3.4469	-0.9391	26.21	0.89	-0.750			
0.7173	45910.00	3.4440	3.4438	-0.9075	26.23	0.91	-0.750			
0.7200	46082.44	3.4410	3.4407	-0.8836	26.24	0.92	-0.750	0.406	0.620	
0.7227	46249.73	3.4380	3.4381	-0.8673	26.25	0.93	-0.750			
0.7252	46414.50	3.4350	3.4349	-0.8557	26.26	0.94	-0.750			
0.7277	46572.55	3.4320	3.4319	-0.8456	26.27	0.95	-0.750			
0.7302	46731.94	3.4290	3.4289	-0.8480	26.28	0.96	-0.750			
0.7328	46896.32	3.4260	3.4260	-0.8717	26.28	0.96	-0.750			
0.7354	47065.97	3.4230	3.4230	-0.8817	26.29	0.97	-0.750			
0.7381	47237.10	3.4200	3.4198	-0.8976	26.30	0.98	-0.750			
0.7408	47412.89	3.4170	3.4173	-0.8969	26.32	1.00	-0.750	0.414	0.637	
0.7435	47586.70	3.4140	3.4139	-0.8934	26.33	1.01	-0.750			
0.7463	47760.18	3.4110	3.4110	-0.8951	26.34	1.02	-0.750			
0.7489	47927.34	3.4080	3.4081	-0.8887	26.34	1.02	-0.750			
0.7515	48095.20	3.4050	3.4048	-0.8942	26.35	1.03	-0.750			
0.7542	48271.27	3.4020	3.4019	-0.8871	26.36	1.04	-0.750			
0.7569	48441.79	3.3990	3.3990	-0.8744	26.36	1.04	-0.750			
0.7597	48618.02	3.3960	3.3960	-0.8685	26.37	1.05	-0.750	0.412	0.645	
0.7622	48781.94	3.3930	3.3930	-0.8357	26.38	1.06	-0.750			
0.7646	48935.58	3.3900	3.3900	-0.8082	26.39	1.07	-0.750			
0.7670	49086.13	3.3870	3.3870	-0.7857	26.39	1.07	-0.750			
0.7693	49233.31	3.3840	3.3839	-0.7640	26.40	1.08	-0.750			
0.7716	49380.67	3.3810	3.3810	-0.7463	26.41	1.09	-0.750			
0.7738	49525.63	3.3780	3.3780	-0.7272	26.42	1.10	-0.750			
0.7760	49663.43	3.3750	3.3749	-0.7024	26.43	1.11	-0.750			
0.7780	49795.12	3.3720	3.3719	-0.6791	26.43	1.11	-0.750			
0.7800	49922.18	3.3690	3.3689	-0.6506	26.44	1.12	-0.750	0.407	0.645	
0.7819	50044.53	3.3660	3.3662	-0.6258	26.45	1.13	-0.750			
0.7838	50162.35	3.3630	3.3630	-0.6036	26.46	1.14	-0.750			
0.7855	50274.94	3.3600	3.3601	-0.5773	26.46	1.14	-0.750			
0.7872	50381.84	3.3570	3.3570	-0.5563	26.47	1.15	-0.750			
0.7889	50489.17	3.3540	3.3540	-0.5407	26.47	1.15	-0.750			
0.7905	50590.18	3.3510	3.3510	-0.5201	26.48	1.16	-0.750			
0.7920	50689.13	3.3480	3.3481	-0.5087	26.48	1.16	-0.750			
0.7935	50785.71	3.3450	3.3450	-0.4913	26.49	1.17	-0.750			
0.7949	50876.36	3.3420	3.3421	-0.4825	26.49	1.17	-0.750			
0.7964	50966.97	3.3390	3.3389	-0.4752	26.50	1.18	-0.750			
0.7978	51058.61	3.3360	3.3358	-0.4571	26.50	1.18	-0.750			
0.7992	51146.68	3.3330	3.3327	-0.4413	26.51	1.19	-0.750			
0.8005	51230.72	3.3300	3.3298	-0.4269	26.52	1.20	-0.750	0.403	0.659	
0.8017	51311.55	3.3270	3.3270	-0.4103	26.52	1.20	-0.750			
0.8029	51387.97	3.3240	3.3238	-0.3940	26.53	1.21	-0.750			
0.8041	51460.12	3.3210	3.3209	-0.3771	26.53	1.21	-0.750			
0.8051	51528.88	3.3180	3.3181	-0.3660	26.54	1.22	-0.750			
0.8062	51599.99	3.3150	3.3150	-0.3616	26.54	1.22	-0.750			
0.8073	51668.96	3.3120	3.3119	-0.3542	26.55	1.23	-0.750			
0.8084	51735.32	3.3090	3.3089	-0.3451	26.55	1.23	-0.750			
0.8094	51801.19	3.3060	3.3061	-0.3376	26.56	1.24	-0.750			
0.8104	51865.59	3.3030	3.3030	-0.3287	26.56	1.24	-0.750			
0.8114	51927.95	3.3000	3.3000	-0.3207	26.57	1.25	-0.750			
0.8123	51988.21	3.2970	3.2970	-0.3136	26.57	1.25	-0.750			
0.8132	52046.95	3.2940	3.2938	-0.3066	26.58	1.26	-0.750			
0.8141	52104.97	3.2910	3.2910	-0.3018	26.58	1.26	-0.750			
0.8150	52162.49	3.2880	3.2880	-0.2976	26.59	1.27	-0.750			
0.8159	52219.93	3.2850	3.2850	-0.2932	26.59	1.27	-0.750			
0.8168	52274.46	3.2820	3.2821	-0.2932	26.60	1.28	-0.750			
0.8176	52328.83	3.2790	3.2791	-0.2942	26.60	1.28	-0.750			
0.8185	52386.96	3.2760	3.2758	-0.2887	26.60	1.28	-0.750			
0.8194	52444.11	3.2730	3.2726	-0.2800	26.61	1.29	-0.750			
0.8203	52498.22	3.2700	3.2693	-0.2674	26.61	1.29	-0.750	0.396	0.658	
0.8211	52550.24	3.2670	3.2672	-0.2565	26.62	1.30	-0.750			
0.8218	52596.37	3.2640	3.2635	-0.2499	26.62	1.30	-0.750			
0.8225	52640.42	3.2610	3.2609	-0.2404	26.62	1.30	-0.750			
0.8231	52681.43	3.2580	3.2580	-0.2326	26.63	1.31	-0.750			
0.8239	52729.49	3.2550	3.2550	-0.2376	26.64	1.32	-0.750			
0.8246	52775.12	3.2520	3.2521	-0.2367	26.64	1.32	-0.750			
0.8253	52820.69	3.2490	3.2491	-0.2346	26.65	1.33	-0.750			
0.8260	52865.71	3.2460	3.2459	-0.2318	26.66	1.34	-0.750			
0.8267	52909.21	3.2430	3.2431	-0.2287	26.66	1.34	-0.750			
0.8274	52952.56	3.2400	3.2401	-0.2265	26.67	1.35	-0.750			
0.8281	52996.33	3.2370	3.2370	-0.2238	26.67	1.35	-0.750			
0.8287	53039.55	3.2340	3.2339	-0.2213	26.68	1.36	-0.750			
0.8294	53081.32	3.2310	3.2310	-0.2171	26.69	1.37	-0.750			
0.8300	53122.71	3.2280	3.2282	-0.2141	26.69	1.37	-0.750			
0.8307	53163.70	3.2250	3.2248	-0.2113	26.70	1.38	-0.750			
0.8313	53203.88	3.2220	3.2220	-0.2085	26.70	1.38	-0.750			
0.8319	53242.97	3.2190	3.2190	-0.2050	26.71	1.39	-0.750			
0.8325	53282.20	3.2160	3.2161	-0.2036	26.71	1.39	-0.750			
0.8331	53321.38	3.2130	3.2129	-0.2015	26.72	1.40	-0.750			
0.8337	53359.88	3.2100	3.2100	-0.1992	26.72	1.40	-0.750			
0.8343	53398.00	3.2070	3.2070	-0.1968	26.72	1.40	-0.750			
0.8349	53435.54	3.2040	3.2039	-0.1942	26.73	1.41	-0.750			
0.8355	53472.59	3.2010	3.2010	-0.1925	26.73	1.41	-0.750			
0.8361	53509.35	3.1980	3.1980	-0.1899	26.74	1.42	-0.750			
0.8367	53545.94	3.1950	3.1948	-0.1864	26.74	1.42	-0.750			
0.8372	53581.40	3.1920	3.1921	-0.1830	26.75	1.43	-0.750			
0.8378	53616.12	3.1890	3.1891	-0.1820	26.76	1.44	-0.750			
0.8383	53648.83	3.1860	3.1862	-0.1865	26.76	1.44	-0.750			
0.8388	53683.32	3.1830	3.1830	-0.1904	26.77	1.45	-0.750			
0.8395	53725.18	3.1800	3.1794	-0.1852	26.78	1.46	-0.750			
0.8400	53761.47	3.1770	3.1763	-0.1838	26.78	1.46	-0.750			
0.8406	53798.57	3.1740	3.1732	-0.1803	26.79	1.47	-0.750	0.395	0.655	
0.8411	53833.35	3.1710	3.1709	-0.1780	26.79	1.47	-0.750			
0.8417	53866.38	3.1680	3.1670	-0.1660	26.80	1.48	-0.750			
0.8421	53895.29	3.1650	3.1644	-0.1606	26.81	1.49	-0.750			
0.8425	53921.33	3.1620	3.1619	-0.1546	26.81	1.49	-0.750			
0.8430	53951.00	3.1590	3.1591	-0.1539	26.82	1.50	-0.750			
0.8435	53980.90	3.1560	3.1563	-0.1575	26.82	1.50	-0.750			
0.8440	54013.57	3.1530	3.1530	-0.1593	26.82	1.50	-0.750			
0.8444	54043.87	3.1500	3.1501	-0.1585	26.83	1.51	-0.750			
0.8449	54074.23	3.1470	3.1469	-0.1572	26.83	1.51	-0.750			
0.8454	54104.32	3.1440	3.1440	-0.1562	26.84	1.52	-0.750			
0.8458	54134.23	3.1410	3.1409	-0.1551	26.84	1.52	-0.750			
0.8463	54164.03	3.1380	3.1380	-0.1535	26.84	1.52	-0.750			
0.8468	54193.68	3.1350	3.1349	-0.1524	26.85	1.53	-0.750			
0.8472	54222.63	3.1320	3.1319	-0.1510	26.85	1.53	-0.750			
0.8477	54251.24	3.1290	3.1291	-0.1502	26.86	1.54	-0.750			
0.8481	54279.80	3.1260	3.1260	-0.1485	26.87	1.55	-0.750			
0.8486	54308.28	3.1230	3.1229	-0.1479	26.87	1.55	-0.750			
0.8490	54336.59	3.1200	3.1200	-0.1473	26.88	1.56	-0.750			
0.8495	54365.11	3.1170	3.1171	-0.1452	26.89	1.57	-0.750			
0.8499	54392.89	3.1140	3.1140	-0.1446	26.89	1.57	-0.750			
0.8503	54420.48	3.1110	3.1110	-0.1428	26.90	1.58	-0.750			
0.8507	54447.62	3.1080	3.1081	-0.1412	26.90	1.58	-0.750			
0.8512	54474.40	3.1050	3.1048	-0.1395	26.91	1.59	-0.750			
0.8516	54501.09	3.1020	3.1020	-0.1385	26.92	1.60	-0.750			
0.8520	54527.58	3.0990	3.0992	-0.1374	26.92	1.60	-0.750			
0.8524	54553.59	3.0960	3.0960	-0.1368	26.93	1.61	-0.750			
0.8528	54580.06	3.0930	3.0930	-0.1367	26.93	1.61	-0.750			
0.8532	54605.86	3.0900	3.0900	-0.1353	26.94	1.62	-0.750			
0.8536	54632.06	3.0870	3.0869	-0.1341	26.94	1.62	-0.750			
0.8540	54657.98	3.0840	3.0841	-0.1333	26.95	1.63	-0.750			
0.8544	54683.65	3.0810	3.0810	-0.1323	26.96	1.64	-0.750			
0.8548	54708.86	3.0780	3.0780	-0.1311	26.96	1.64	-0.750			
0.8552	54733.88	3.0750	3.0750	-0.1295	26.97	1.65	-0.750			
0.8556	54758.20	3.0720	3.0718	-0.1287	26.97	1.65	-0.750			
0.8560	54782.90	3.0690	3.0690	-0.1281	26.98	1.66	-0.750			
0.8564	54807.31	3.0660	3.0660	-0.1275	26.98	1.66	-0.750			
0.8568	54832.03	3.0630	3.0630	-0.1267	26.99	1.67	-0.750			
0.8571	54856.25	3.0600	3.0601	-0.1256	27.00	1.68	-0.750			
0.8575	54880.33	3.0570	3.0571	-0.1247	27.00	1.68	-0.750			
0.8579	54904.23	3.0540	3.0539	-0.1235	27.01	1.69	-0.750			
0.8582	54927.65	3.0510	3.0510	-0.1234	27.01	1.69	-0.750			
0.8586	54951.16	3.0480	3.0479	-0.1224	27.02	1.70	-0.750			
0.8590	54974.58	3.0450	3.0450	-0.1219	27.02	1.70	-0.750			
0.8594	54998.90	3.0420	3.0418	-0.1256	27.03	1.71	-0.750			
0.8597	55023.30	3.0390	3.0388	-0.1269	27.03	1.71	-0.750			
0.8601	55047.69	3.0360	3.0355	-0.1272	27.04	1.72	-0.750			
0.8605	55073.71	3.0330	3.0322	-0.1238	27.05	1.73	-0.750	0.404	0.657	
0.8609	55096.98	3.0300	3.0322	-0.1186	27.05	1.73	-0.750			
0.8612	55119.60	3.0270	3.0272	-0.1170	27.06	1.74	-0.750			
0.8616	55141.63	3.0240	3.0235	-0.1125	27.06	1.74	-0.750			
0.8619	55160.77	3.0210	3.0207	-0.1064	27.07	1.75	-0.750			
0.8622	55181.33	3.0180	3.0179	-0.1077	27.07	1.75	-0.750			
0.8625	55202.10	3.0150	3.0152	-0.1080	27.08	1.76	-0.750			
0.8629	55222.95	3.0120	3.0120	-0.1091	27.08	1.76	-0.750			
0.8632	55244.90	3.0090	3.0090	-0.1094	27.09	1.77	-0.750			
0.8635	55265.79	3.0060	3.0059	-0.1081	27.09	1.77	-0.751			
0.8639	55286.45	3.0030	3.0030	-0.1090	27.09	1.77	-0.751			
