Ah_balance (normalized)	Ah_balance (mAh)	Voltage - fit (V)	Voltage -  interpolate (V)	dQ/dV (1/V)	Temperature (°C)	Temperature - diff (°C)	Current (C)	R_DC 0ms (mOhm)	R_DC 50ms (mOhm)	R_DC 50 ms PEC (mOhm)
0.0002	11.70	4.1570	4.1567	-0.0872	25.09	0.01	-0.750			
0.0005	32.36	4.1540	4.1540	-0.1280	25.09	0.01	-0.750			
0.0010	60.88	4.1510	4.1509	-0.1687	25.09	0.01	-0.750			
0.0015	98.53	4.1480	4.1479	-0.2044	25.09	0.01	-0.750			
0.0022	141.35	4.1450	4.1451	-0.2385	25.08	0.00	-0.750			
0.0030	191.65	4.1420	4.1420	-0.2719	25.08	0.00	-0.750			
0.0039	246.59	4.1390	4.1389	-0.3028	25.08	0.00	-0.750			
0.0048	307.80	4.1360	4.1360	-0.3335	25.08	0.00	-0.750			
0.0059	374.76	4.1330	4.1329	-0.3632	25.08	0.00	-0.750			
0.0070	447.63	4.1300	4.1300	-0.3919	25.08	0.00	-0.750			
0.0082	527.01	4.1270	4.1270	-0.4176	25.08	-0.00	-0.750			
0.0095	610.68	4.1240	4.1240	-0.4411	25.08	-0.00	-0.750			
0.0109	697.83	4.1210	4.1210	-0.4635	25.08	-0.00	-0.750			
0.0123	788.51	4.1180	4.1180	-0.4845	25.08	-0.00	-0.750			
0.0138	882.81	4.1150	4.1150	-0.5056	25.08	-0.00	-0.750			
0.0154	982.41	4.1120	4.1120	-0.5245	25.07	-0.01	-0.750			
0.0170	1086.29	4.1090	4.1090	-0.5416	25.07	-0.01	-0.750			
0.0186	1192.99	4.1060	4.1060	-0.5532	25.07	-0.01	-0.750			
0.0203	1301.70	4.1030	4.1031	-0.5649	25.07	-0.01	-0.750			
0.0220	1410.13	4.1000	4.1000	-0.5747	25.07	-0.01	-0.750			
0.0238	1521.06	4.0970	4.0969	-0.5824	25.06	-0.02	-0.750			
0.0255	1633.43	4.0940	4.0940	-0.5933	25.06	-0.02	-0.750			
0.0273	1748.19	4.0910	4.0911	-0.6022	25.06	-0.02	-0.750			
0.0292	1867.41	4.0880	4.0880	-0.6118	25.06	-0.02	-0.750			
0.0310	1985.64	4.0850	4.0850	-0.6191	25.05	-0.03	-0.750			
0.0329	2104.81	4.0820	4.0821	-0.6260	25.05	-0.03	-0.750			
0.0348	2225.29	4.0790	4.0789	-0.6324	25.05	-0.03	-0.750			
0.0367	2347.35	4.0760	4.0761	-0.6401	25.06	-0.02	-0.750			
0.0386	2470.40	4.0730	4.0730	-0.6465	25.06	-0.02	-0.750			
0.0406	2595.88	4.0700	4.0700	-0.6519	25.06	-0.02	-0.750			
0.0426	2723.52	4.0670	4.0670	-0.6572	25.07	-0.01	-0.750			
0.0445	2849.34	4.0640	4.0640	-0.6589	25.07	-0.01	-0.750			
0.0465	2976.61	4.0610	4.0610	-0.6605	25.07	-0.01	-0.750			
0.0485	3103.38	4.0580	4.0580	-0.6645	25.07	-0.01	-0.750			
0.0505	3230.13	4.0550	4.0550	-0.6682	25.07	-0.01	-0.750			
0.0525	3358.87	4.0520	4.0520	-0.6715	25.07	-0.01	-0.750			
0.0545	3488.71	4.0490	4.0490	-0.6756	25.07	-0.01	-0.750			
0.0566	3619.45	4.0460	4.0460	-0.6789	25.07	-0.01	-0.750			
0.0586	3750.12	4.0430	4.0431	-0.6800	25.07	-0.01	-0.750			
0.0606	3881.48	4.0400	4.0400	-0.6832	25.07	-0.01	-0.750			
0.0627	4011.67	4.0370	4.0370	-0.6861	25.08	-0.00	-0.750			
0.0647	4143.50	4.0340	4.0341	-0.6872	25.08	0.00	-0.750			
0.0668	4277.01	4.0310	4.0309	-0.6908	25.08	0.00	-0.750			
0.0689	4409.37	4.0280	4.0280	-0.6939	25.09	0.01	-0.750			
0.0710	4542.78	4.0250	4.0251	-0.6980	25.09	0.01	-0.750			
0.0731	4677.00	4.0220	4.0221	-0.7011	25.09	0.01	-0.750			
0.0752	4810.28	4.0190	4.0189	-0.7085	25.09	0.01	-0.750			
0.0773	4948.49	4.0160	4.0160	-0.7080	25.10	0.02	-0.750			
0.0795	5085.68	4.0130	4.0130	-0.7123	25.10	0.02	-0.750			
0.0816	5222.53	4.0100	4.0099	-0.7112	25.10	0.02	-0.750			
0.0837	5359.60	4.0070	4.0071	-0.7099	25.10	0.02	-0.750			
0.0859	5495.85	4.0040	4.0039	-0.7097	25.10	0.02	-0.750			
0.0880	5631.07	4.0010	4.0010	-0.7097	25.11	0.03	-0.750			
0.0901	5764.94	3.9980	3.9981	-0.7084	25.11	0.03	-0.750			
0.0923	5904.64	3.9950	3.9950	-0.7194	25.11	0.03	-0.750			
0.0944	6042.90	3.9920	3.9919	-0.7176	25.12	0.04	-0.750			
0.0966	6181.17	3.9890	3.9891	-0.7206	25.12	0.04	-0.750			
0.0987	6319.75	3.9860	3.9860	-0.7210	25.12	0.04	-0.750			
0.1009	6457.28	3.9830	3.9830	-0.7251	25.13	0.05	-0.750			
0.1031	6596.20	3.9800	3.9800	-0.7250	25.13	0.05	-0.750			
0.1052	6735.66	3.9770	3.9769	-0.7282	25.14	0.06	-0.750			
0.1075	6877.03	3.9740	3.9740	-0.7321	25.14	0.06	-0.750			
0.1097	7017.89	3.9710	3.9710	-0.7366	25.14	0.06	-0.750			
0.1119	7159.53	3.9680	3.9680	-0.7371	25.14	0.06	-0.750			
0.1141	7301.74	3.9650	3.9650	-0.7425	25.14	0.06	-0.750			
0.1163	7443.35	3.9620	3.9620	-0.7412	25.14	0.06	-0.750			
0.1186	7587.89	3.9590	3.9590	-0.7466	25.14	0.06	-0.750			
0.1208	7730.82	3.9560	3.9562	-0.7482	25.14	0.06	-0.750			
0.1230	7875.02	3.9530	3.9530	-0.7492	25.14	0.06	-0.750			
0.1253	8017.40	3.9500	3.9500	-0.7522	25.15	0.07	-0.750			
0.1275	8162.45	3.9470	3.9470	-0.7522	25.15	0.07	-0.750			
0.1298	8307.97	3.9440	3.9440	-0.7564	25.15	0.07	-0.750			
0.1321	8453.46	3.9410	3.9410	-0.7522	25.16	0.08	-0.750			
0.1343	8597.42	3.9380	3.9380	-0.7535	25.16	0.08	-0.750			
0.1366	8740.64	3.9350	3.9350	-0.7570	25.17	0.09	-0.750			
0.1388	8884.66	3.9320	3.9319	-0.7626	25.17	0.09	-0.750			
0.1411	9032.20	3.9290	3.9290	-0.7626	25.17	0.09	-0.750			
0.1435	9180.85	3.9260	3.9259	-0.7686	25.18	0.10	-0.750			
0.1458	9329.64	3.9230	3.9232	-0.7712	25.18	0.10	-0.750			
0.1481	9479.01	3.9200	3.9200	-0.7716	25.18	0.10	-0.750			
0.1504	9625.49	3.9170	3.9169	-0.7706	25.19	0.11	-0.750			
0.1527	9773.43	3.9140	3.9140	-0.7715	25.19	0.11	-0.750			
0.1550	9920.87	3.9110	3.9110	-0.7708	25.20	0.12	-0.750			
0.1573	10069.78	3.9080	3.9080	-0.7760	25.20	0.12	-0.750			
0.1597	10219.08	3.9050	3.9049	-0.7750	25.20	0.12	-0.750			
0.1620	10367.40	3.9020	3.9020	-0.7768	25.21	0.13	-0.750			
0.1643	10516.98	3.8990	3.8990	-0.7775	25.21	0.13	-0.750			
0.1667	10666.49	3.8960	3.8960	-0.7749	25.21	0.13	-0.750			
0.1690	10815.67	3.8930	3.8930	-0.7778	25.22	0.14	-0.750			
0.1713	10964.83	3.8900	3.8901	-0.7786	25.22	0.14	-0.750			
0.1736	11113.16	3.8870	3.8870	-0.7775	25.22	0.14	-0.750			
0.1760	11262.99	3.8840	3.8839	-0.7813	25.22	0.14	-0.750			
0.1783	11413.30	3.8810	3.8811	-0.7785	25.23	0.15	-0.750			
0.1807	11562.85	3.8780	3.8780	-0.7831	25.23	0.15	-0.750			
0.1830	11714.98	3.8750	3.8750	-0.7854	25.23	0.15	-0.750			
0.1854	11865.23	3.8720	3.8720	-0.7794	25.23	0.15	-0.750			
0.1877	12014.52	3.8690	3.8689	-0.7801	25.24	0.16	-0.750			
0.1901	12163.95	3.8660	3.8661	-0.7808	25.24	0.16	-0.750			
0.1924	12312.61	3.8630	3.8629	-0.7803	25.24	0.16	-0.750			
0.1947	12463.25	3.8600	3.8600	-0.7826	25.25	0.17	-0.750			
0.1971	12612.56	3.8570	3.8569	-0.7822	25.25	0.17	-0.750			
0.1994	12764.09	3.8540	3.8540	-0.7854	25.25	0.17	-0.750			
0.2018	12916.01	3.8510	3.8511	-0.7834	25.25	0.17	-0.750			
0.2041	13065.03	3.8480	3.8480	-0.7812	25.26	0.18	-0.750			
0.2065	13215.45	3.8450	3.8449	-0.7779	25.26	0.18	-0.750			
0.2088	13365.22	3.8420	3.8421	-0.7740	25.26	0.18	-0.750			
0.2111	13512.72	3.8390	3.8390	-0.7716	25.26	0.18	-0.750			
0.2134	13659.82	3.8360	3.8360	-0.7717	25.27	0.19	-0.750			
0.2157	13807.33	3.8330	3.8331	-0.7681	25.27	0.19	-0.750			
0.2181	13955.82	3.8300	3.8299	-0.7686	25.28	0.20	-0.750			
0.2204	14102.45	3.8270	3.8270	-0.7684	25.28	0.20	-0.750			
0.2227	14251.28	3.8240	3.8241	-0.7681	25.28	0.20	-0.750			
0.2250	14398.30	3.8210	3.8209	-0.7705	25.28	0.20	-0.750			
0.2273	14545.92	3.8180	3.8180	-0.7649	25.28	0.20	-0.750			
0.2296	14692.28	3.8150	3.8149	-0.7600	25.28	0.20	-0.750			
0.2319	14838.89	3.8120	3.8120	-0.7606	25.28	0.20	-0.750			
0.2341	14984.88	3.8090	3.8089	-0.7538	25.28	0.20	-0.750			
0.2364	15128.79	3.8060	3.8060	-0.7481	25.29	0.21	-0.750			
0.2386	15271.95	3.8030	3.8030	-0.7489	25.29	0.21	-0.750			
0.2408	15413.77	3.8000	3.8000	-0.7445	25.29	0.21	-0.750			
0.2431	15558.94	3.7970	3.7969	-0.7403	25.30	0.22	-0.750			
0.2453	15700.63	3.7940	3.7941	-0.7352	25.30	0.22	-0.750			
0.2475	15840.56	3.7910	3.7911	-0.7298	25.30	0.22	-0.750			
0.2497	15980.02	3.7880	3.7880	-0.7313	25.30	0.22	-0.750			
0.2519	16119.37	3.7850	3.7849	-0.7293	25.30	0.22	-0.750			
0.2540	16258.84	3.7820	3.7819	-0.7222	25.31	0.23	-0.750			
0.2562	16399.04	3.7790	3.7790	-0.7226	25.31	0.23	-0.750			
0.2584	16538.46	3.7760	3.7761	-0.7201	25.31	0.23	-0.750			
0.2606	16676.59	3.7730	3.7729	-0.7156	25.31	0.23	-0.750			
0.2627	16811.18	3.7700	3.7700	-0.7216	25.31	0.23	-0.750			
0.2648	16948.16	3.7670	3.7670	-0.7159	25.32	0.24	-0.750			
0.2670	17087.96	3.7640	3.7639	-0.7208	25.32	0.24	-0.750			
0.2692	17226.31	3.7610	3.7610	-0.7251	25.32	0.24	-0.750			
0.2713	17365.63	3.7580	3.7580	-0.7282	25.32	0.24	-0.750			
0.2735	17505.63	3.7550	3.7550	-0.7323	25.32	0.24	-0.750			
0.2757	17645.82	3.7520	3.7520	-0.7381	25.33	0.25	-0.750			
0.2779	17787.77	3.7490	3.7490	-0.7415	25.33	0.25	-0.750			
0.2802	17932.90	3.7460	3.7460	-0.7540	25.34	0.26	-0.750			
0.2825	18077.86	3.7430	3.7430	-0.7578	25.34	0.26	-0.750			
0.2847	18222.85	3.7400	3.7399	-0.7606	25.34	0.26	-0.750			
0.2870	18368.32	3.7370	3.7369	-0.7683	25.34	0.26	-0.750			
0.2893	18515.79	3.7340	3.7341	-0.7766	25.34	0.26	-0.750			
0.2916	18664.36	3.7310	3.7310	-0.7869	25.34	0.26	-0.750			
0.2940	18818.05	3.7280	3.7280	-0.8033	25.34	0.26	-0.750			
0.2965	18973.28	3.7250	3.7250	-0.8139	25.34	0.26	-0.750			
0.2989	19130.95	3.7220	3.7220	-0.8278	25.34	0.26	-0.750			
0.3014	19291.40	3.7190	3.7190	-0.8403	25.34	0.26	-0.750			
0.3040	19453.43	3.7160	3.7161	-0.8511	25.34	0.26	-0.750			
0.3065	19617.85	3.7130	3.7129	-0.8685	25.34	0.26	-0.750			
0.3091	19785.10	3.7100	3.7101	-0.8801	25.34	0.26	-0.750			
0.3118	19955.71	3.7070	3.7070	-0.9020	25.34	0.26	-0.750			
0.3146	20131.79	3.7040	3.7040	-0.9192	25.34	0.26	-0.750			
0.3173	20310.04	3.7010	3.7010	-0.9245	25.34	0.26	-0.750			
0.3202	20490.12	3.6980	3.6982	-0.9412	25.34	0.26	-0.750			
0.3230	20671.45	3.6950	3.6950	-0.9573	25.34	0.26	-0.750			
0.3259	20855.46	3.6920	3.6919	-0.9705	25.33	0.25	-0.750			
0.3288	21042.71	3.6890	3.6889	-0.9829	25.33	0.25	-0.750			
0.3317	21231.33	3.6860	3.6860	-1.0015	25.32	0.24	-0.750			
0.3348	21427.89	3.6830	3.6830	-1.0266	25.32	0.24	-0.750			
0.3379	21627.25	3.6800	3.6799	-1.0484	25.32	0.24	-0.750			
0.3411	21829.63	3.6770	3.6770	-1.0630	25.31	0.23	-0.750			
0.3443	22035.76	3.6740	3.6740	-1.0812	25.31	0.23	-0.750			
0.3476	22245.77	3.6710	3.6711	-1.1134	25.31	0.23	-0.750			
0.3510	22463.63	3.6680	3.6679	-1.1316	25.30	0.22	-0.750			
0.3544	22681.65	3.6650	3.6650	-1.1485	25.30	0.22	-0.750			
0.3579	22904.31	3.6620	3.6622	-1.1692	25.29	0.21	-0.750			
0.3614	23130.89	3.6590	3.6590	-1.1871	25.28	0.20	-0.750			
0.3650	23362.02	3.6560	3.6559	-1.2051	25.28	0.20	-0.750			
0.3686	23591.46	3.6530	3.6530	-1.2275	25.27	0.19	-0.750			
0.3723	23829.39	3.6500	3.6500	-1.2468	25.27	0.19	-0.750			
0.3761	24071.23	3.6470	3.6470	-1.2722	25.26	0.18	-0.750			
0.3799	24316.21	3.6440	3.6439	-1.2931	25.25	0.17	-0.750			
0.3839	24567.68	3.6410	3.6411	-1.3236	25.24	0.16	-0.750			
0.3879	24826.88	3.6380	3.6379	-1.3455	25.24	0.16	-0.750			
0.3920	25088.04	3.6350	3.6350	-1.3696	25.23	0.15	-0.750			
0.3961	25352.60	3.6320	3.6322	-1.3975	25.23	0.15	-0.750			
0.4004	25624.66	3.6290	3.6288	-1.4229	25.23	0.15	-0.750			
0.4046	25895.92	3.6260	3.6260	-1.4574	25.22	0.14	-0.750			
0.4090	26177.63	3.6230	3.6231	-1.4810	25.22	0.14	-0.750			
0.4136	26469.64	3.6200	3.6199	-1.5179	25.21	0.13	-0.750			
0.4182	26764.16	3.6170	3.6170	-1.5394	25.20	0.12	-0.750			
0.4228	27061.76	3.6140	3.6138	-1.5605	25.20	0.12	-0.750			
0.4276	27365.28	3.6110	3.6109	-1.5914	25.19	0.11	-0.750	0.399	0.566	
0.4324	27671.07	3.6080	3.6080	-1.6170	25.18	0.10	-0.750			
0.4372	27982.65	3.6050	3.6050	-1.6347	25.18	0.10	-0.750			
0.4422	28298.19	3.6020	3.6018	-1.6791	25.18	0.10	-0.750			
0.4472	28621.52	3.5990	3.5990	-1.7054	25.18	0.10	-0.750			
0.4524	28952.72	3.5960	3.5961	-1.7442	25.17	0.09	-0.750			
0.4577	29291.46	3.5930	3.5932	-1.7800	25.17	0.09	-0.750			
0.4631	29638.51	3.5900	3.5899	-1.8171	25.16	0.08	-0.750			
0.4686	29991.73	3.5870	3.5871	-1.8607	25.15	0.07	-0.750			
0.4743	30352.43	3.5840	3.5839	-1.8947	25.15	0.07	-0.750			
0.4800	30716.86	3.5810	3.5810	-1.9268	25.15	0.07	-0.750			
0.4858	31092.22	3.5780	3.5780	-1.9663	25.15	0.07	-0.750			
0.4918	31472.80	3.5750	3.5750	-1.9845	25.14	0.06	-0.750			
0.4979	31865.61	3.5720	3.5720	-2.0028	25.14	0.06	-0.750			
0.5039	32248.57	3.5690	3.5690	-2.0209	25.14	0.06	-0.750			
0.5099	32634.93	3.5660	3.5661	-2.0333	25.14	0.06	-0.750			
0.5161	33032.82	3.5630	3.5630	-2.0407	25.13	0.05	-0.750			
0.5223	33425.20	3.5600	3.5598	-2.0450	25.12	0.04	-0.750			
0.5284	33816.70	3.5570	3.5571	-2.0528	25.13	0.05	-0.750			
0.5346	34216.08	3.5540	3.5542	-2.0658	25.13	0.05	-0.750			
0.5409	34614.99	3.5510	3.5507	-2.0485	25.13	0.05	-0.750			
0.5469	35004.69	3.5480	3.5481	-2.0409	25.13	0.05	-0.750			
0.5531	35398.02	3.5450	3.5451	-2.0302	25.14	0.06	-0.750			
0.5592	35789.40	3.5420	3.5421	-2.0288	25.14	0.06	-0.750			
0.5653	36179.89	3.5390	3.5391	-2.0287	25.15	0.07	-0.750			
0.5713	36562.62	3.5360	3.5361	-2.0301	25.15	0.07	-0.750			
0.5774	36955.37	3.5330	3.5331	-2.0197	25.15	0.07	-0.750			
0.5836	37348.80	3.5300	3.5301	-2.0005	25.15	0.07	-0.750			
0.5895	37728.13	3.5270	3.5271	-1.9855	25.17	0.09	-0.750			
0.5955	38111.73	3.5240	3.5238	-1.9637	25.18	0.10	-0.750			
0.6013	38484.34	3.5210	3.5206	-1.9359	25.19	0.11	-0.750			
0.6071	38851.70	3.5180	3.5181	-1.8909	25.20	0.12	-0.750			
0.6127	39211.68	3.5150	3.5151	-1.8454	25.20	0.12	-0.750			
0.6182	39566.38	3.5120	3.5120	-1.8015	25.21	0.13	-0.750			
0.6235	39903.96	3.5090	3.5088	-1.7419	25.22	0.14	-0.750			
0.6287	40234.26	3.5060	3.5059	-1.6977	25.23	0.15	-0.750			
0.6337	40558.40	3.5030	3.5029	-1.6453	25.24	0.16	-0.750			
0.6386	40869.14	3.5000	3.4999	-1.5926	25.25	0.17	-0.750			
0.6433	41169.91	3.4970	3.4972	-1.5539	25.26	0.18	-0.750			
0.6479	41467.44	3.4940	3.4939	-1.5120	25.27	0.19	-0.750			
0.6524	41750.57	3.4910	3.4908	-1.4639	25.28	0.20	-0.750			
0.6567	42028.66	3.4880	3.4880	-1.4245	25.30	0.22	-0.750			
0.6609	42298.70	3.4850	3.4849	-1.3824	25.31	0.23	-0.750			
0.6650	42562.00	3.4820	3.4819	-1.3366	25.32	0.24	-0.750			
0.6689	42810.89	3.4790	3.4791	-1.2892	25.33	0.25	-0.750			
0.6727	43050.86	3.4760	3.4759	-1.2434	25.35	0.27	-0.750			
0.6764	43290.46	3.4730	3.4729	-1.2119	25.37	0.29	-0.750			
0.6800	43517.84	3.4700	3.4700	-1.1705	25.39	0.31	-0.750			
0.6834	43736.11	3.4670	3.4671	-1.1326	25.40	0.32	-0.750			
0.6868	43953.87	3.4640	3.4640	-1.1072	25.41	0.33	-0.750			
0.6900	44161.78	3.4610	3.4610	-1.0684	25.42	0.34	-0.750			
0.6932	44362.46	3.4580	3.4579	-1.0355	25.43	0.35	-0.750			
0.6962	44559.32	3.4550	3.4551	-1.0024	25.44	0.36	-0.750			
0.6992	44748.41	3.4520	3.4519	-0.9729	25.46	0.38	-0.750			
0.7021	44931.64	3.4490	3.4490	-0.9448	25.47	0.39	-0.750			
0.7048	45108.46	3.4460	3.4460	-0.9208	25.48	0.40	-0.750			
0.7075	45281.26	3.4430	3.4431	-0.8994	25.50	0.42	-0.750			
0.7102	45452.14	3.4400	3.4399	-0.8850	25.51	0.43	-0.750			
0.7128	45618.54	3.4370	3.4369	-0.8729	25.52	0.44	-0.750			
0.7154	45786.82	3.4340	3.4340	-0.8611	25.53	0.45	-0.750			
0.7180	45949.98	3.4310	3.4310	-0.8473	25.54	0.46	-0.750			
0.7205	46114.55	3.4280	3.4281	-0.8338	25.55	0.47	-0.750			
0.7230	46272.27	3.4250	3.4251	-0.8359	25.56	0.48	-0.750			
0.7255	46429.62	3.4220	3.4219	-0.8423	25.57	0.49	-0.750			
0.7280	46592.67	3.4190	3.4187	-0.8431	25.58	0.50	-0.750			
0.7305	46754.71	3.4160	3.4161	-0.8503	25.59	0.51	-0.750			
0.7331	46919.97	3.4130	3.4136	-0.8512	25.60	0.52	-0.750			
0.7357	47085.05	3.4100	3.4100	-0.8561	25.61	0.53	-0.750			
0.7383	47249.29	3.4070	3.4069	-0.8583	25.61	0.53	-0.750			
0.7408	47412.40	3.4040	3.4038	-0.8455	25.62	0.54	-0.750			
0.7434	47577.05	3.4010	3.4010	-0.8475	25.62	0.54	-0.750			
0.7459	47739.94	3.3980	3.3982	-0.8336	25.63	0.55	-0.750			
0.7484	47900.25	3.3950	3.3950	-0.8198	25.64	0.56	-0.750			
0.7509	48057.27	3.3920	3.3919	-0.8034	25.65	0.57	-0.750			
0.7532	48206.52	3.3890	3.3890	-0.7778	25.65	0.57	-0.750			
0.7556	48355.93	3.3860	3.3860	-0.7621	25.66	0.58	-0.750			
0.7578	48500.68	3.3830	3.3829	-0.7401	25.67	0.59	-0.750			
0.7600	48640.23	3.3800	3.3800	-0.7174	25.67	0.59	-0.750			
0.7621	48776.52	3.3770	3.3770	-0.6967	25.68	0.60	-0.750			
0.7642	48907.07	3.3740	3.3740	-0.6763	25.68	0.60	-0.750			
0.7662	49035.20	3.3710	3.3711	-0.6571	25.69	0.61	-0.750			
0.7681	49160.46	3.3680	3.3679	-0.6371	25.69	0.61	-0.750			
0.7700	49280.63	3.3650	3.3648	-0.6152	25.70	0.62	-0.750			
0.7718	49396.92	3.3620	3.3620	-0.5956	25.71	0.63	-0.750			
0.7736	49508.75	3.3590	3.3590	-0.5753	25.71	0.63	-0.750			
0.7753	49616.79	3.3560	3.3560	-0.5562	25.72	0.64	-0.750			
0.7769	49720.34	3.3530	3.3530	-0.5354	25.73	0.65	-0.750			
0.7785	49822.29	3.3500	3.3500	-0.5246	25.73	0.65	-0.750			
0.7800	49922.04	3.3470	3.3469	-0.5103	25.74	0.66	-0.750			
0.7815	50018.75	3.3440	3.3440	-0.4960	25.74	0.66	-0.750			
0.7830	50112.66	3.3410	3.3411	-0.4811	25.75	0.67	-0.750			
0.7844	50204.08	3.3380	3.3380	-0.4665	25.76	0.68	-0.750			
0.7858	50292.30	3.3350	3.3349	-0.4522	25.76	0.68	-0.750			
0.7871	50377.01	3.3320	3.3320	-0.4360	25.77	0.69	-0.750			
0.7884	50458.67	3.3290	3.3290	-0.4226	25.77	0.69	-0.750			
0.7897	50538.28	3.3260	3.3260	-0.4115	25.78	0.70	-0.750			
0.7909	50616.25	3.3230	3.3230	-0.4008	25.78	0.70	-0.750			
0.7921	50692.15	3.3200	3.3200	-0.3896	25.79	0.71	-0.750			
0.7932	50765.91	3.3170	3.3170	-0.3794	25.79	0.71	-0.750			
0.7943	50837.52	3.3140	3.3140	-0.3700	25.80	0.72	-0.750			
0.7954	50907.91	3.3110	3.3110	-0.3617	25.80	0.72	-0.750			
0.7965	50975.78	3.3080	3.3079	-0.3530	25.81	0.73	-0.750			
0.7975	51042.91	3.3050	3.3050	-0.3448	25.81	0.73	-0.750			
0.7986	51108.24	3.3020	3.3020	-0.3375	25.82	0.74	-0.750			
0.7996	51172.50	3.2990	3.2990	-0.3294	25.82	0.74	-0.750			
0.8005	51235.19	3.2960	3.2960	-0.3225	25.83	0.75	-0.750			
0.8015	51296.23	3.2930	3.2930	-0.3154	25.83	0.75	-0.750			
0.8024	51355.97	3.2900	3.2900	-0.3083	25.84	0.76	-0.750			
0.8033	51414.26	3.2870	3.2871	-0.3027	25.84	0.76	-0.750			
0.8042	51471.90	3.2840	3.2840	-0.2969	25.85	0.77	-0.750			
0.8051	51528.07	3.2810	3.2810	-0.2910	25.85	0.77	-0.750			
0.8060	51583.52	3.2780	3.2780	-0.2868	25.86	0.78	-0.750			
0.8068	51637.87	3.2750	3.2750	-0.2814	25.86	0.78	-0.750			
0.8077	51691.84	3.2720	3.2719	-0.2764	25.87	0.79	-0.750			
0.8085	51744.59	3.2690	3.2691	-0.2712	25.87	0.79	-0.750			
0.8093	51795.84	3.2660	3.2660	-0.2658	25.88	0.80	-0.750			
0.8101	51846.33	3.2630	3.2630	-0.2626	25.88	0.80	-0.750			
0.8109	51895.70	3.2600	3.2600	-0.2585	25.89	0.81	-0.750			
0.8116	51944.80	3.2570	3.2569	-0.2555	25.89	0.81	-0.750			
0.8124	51993.82	3.2540	3.2540	-0.2532	25.90	0.82	-0.750			
0.8132	52042.50	3.2510	3.2510	-0.2502	25.90	0.82	-0.750			
0.8139	52090.61	3.2480	3.2480	-0.2476	25.91	0.83	-0.750			
0.8147	52137.84	3.2450	3.2450	-0.2444	25.91	0.83	-0.750			
0.8154	52184.24	3.2420	3.2421	-0.2403	25.92	0.84	-0.750			
0.8161	52229.85	3.2390	3.2389	-0.2364	25.92	0.84	-0.750			
0.8168	52274.78	3.2360	3.2361	-0.2337	25.93	0.85	-0.750			
0.8175	52319.31	3.2330	3.2330	-0.2307	25.93	0.85	-0.750			
0.8182	52363.36	3.2300	3.2301	-0.2281	25.93	0.85	-0.750			
0.8189	52406.94	3.2270	3.2269	-0.2258	25.94	0.86	-0.750			
0.8195	52450.00	3.2240	3.2240	-0.2226	25.94	0.86	-0.750			
0.8202	52492.64	3.2210	3.2209	-0.2197	25.95	0.87	-0.750			
0.8208	52534.40	3.2180	3.2180	-0.2170	25.95	0.87	-0.750			
0.8215	52575.95	3.2150	3.2151	-0.2143	25.96	0.88	-0.750			
0.8221	52616.49	3.2120	3.2120	-0.2116	25.96	0.88	-0.750			
0.8228	52656.82	3.2090	3.2090	-0.2095	25.97	0.89	-0.750			
0.8234	52696.82	3.2060	3.2060	-0.2070	25.98	0.90	-0.750			
0.8240	52736.40	3.2030	3.2030	-0.2052	25.98	0.90	-0.750			
0.8246	52775.79	3.2000	3.2000	-0.2032	25.99	0.91	-0.750			
0.8252	52814.66	3.1970	3.1970	-0.2013	25.99	0.91	-0.750			
0.8258	52852.95	3.1940	3.1940	-0.1988	26.00	0.92	-0.750			
0.8264	52890.93	3.1910	3.1910	-0.1968	26.00	0.92	-0.750			
0.8270	52928.57	3.1880	3.1880	-0.1943	26.01	0.93	-0.750			
0.8276	52965.56	3.1850	3.1850	-0.1922	26.01	0.93	-0.750			
0.8282	53002.25	3.1820	3.1821	-0.1904	26.02	0.94	-0.750			
0.8287	53038.61	3.1790	3.1790	-0.1883	26.02	0.94	-0.750			
0.8293	53074.46	3.1760	3.1759	-0.1865	26.03	0.95	-0.750			
0.8298	53109.95	3.1730	3.1731	-0.1846	26.03	0.95	-0.750			
0.8304	53145.30	3.1700	3.1700	-0.1831	26.04	0.96	-0.750			
0.8309	53180.48	3.1670	3.1670	-0.1811	26.04	0.96	-0.750			
0.8315	53215.29	3.1640	3.1640	-0.1794	26.05	0.97	-0.750			
0.8320	53249.52	3.1610	3.1610	-0.1770	26.05	0.97	-0.750			
0.8325	53283.20	3.1580	3.1581	-0.1752	26.05	0.97	-0.750			
0.8331	53316.62	3.1550	3.1550	-0.1734	26.05	0.97	-0.750			
0.8336	53349.61	3.1520	3.1520	-0.1714	26.06	0.98	-0.750			
0.8341	53382.24	3.1490	3.1490	-0.1700	26.06	0.98	-0.750			
0.8346	53414.66	3.1460	3.1460	-0.1685	26.07	0.99	-0.750			
0.8351	53446.98	3.1430	3.1430	-0.1677	26.08	1.00	-0.750			
0.8356	53479.05	3.1400	3.1400	-0.1664	26.08	1.00	-0.750			
0.8361	53510.91	3.1370	3.1370	-0.1647	26.09	1.01	-0.750			
0.8366	53542.40	3.1340	3.1340	-0.1630	26.09	1.01	-0.750			
0.8371	53573.64	3.1310	3.1310	-0.1617	26.10	1.02	-0.750			
0.8376	53604.51	3.1280	3.1281	-0.1599	26.11	1.03	-0.750			
0.8380	53634.98	3.1250	3.1250	-0.1583	26.11	1.03	-0.750			
0.8385	53665.14	3.1220	3.1220	-0.1570	26.12	1.04	-0.750			
0.8390	53695.06	3.1190	3.1190	-0.1554	26.12	1.04	-0.750			
0.8394	53724.79	3.1160	3.1160	-0.1543	26.13	1.05	-0.750			
0.8399	53754.29	3.1130	3.1130	-0.1536	26.14	1.06	-0.750			
0.8404	53783.77	3.1100	3.1100	-0.1523	26.14	1.06	-0.750			
0.8408	53812.92	3.1070	3.1069	-0.1511	26.15	1.07	-0.750			
0.8413	53841.88	3.1040	3.1040	-0.1493	26.15	1.07	-0.750			
0.8417	53870.47	3.1010	3.1011	-0.1479	26.16	1.08	-0.750			
0.8422	53898.62	3.0980	3.0980	-0.1466	26.17	1.09	-0.750			
0.8426	53926.62	3.0950	3.0950	-0.1452	26.17	1.09	-0.750			
0.8430	53954.34	3.0920	3.0919	-0.1440	26.18	1.10	-0.750			
0.8435	53981.60	3.0890	3.0890	-0.1427	26.18	1.10	-0.750			
0.8439	54008.91	3.0860	3.0861	-0.1423	26.19	1.11	-0.750			
0.8443	54036.43	3.0830	3.0829	-0.1410	26.19	1.11	-0.750			
0.8447	54063.55	3.0800	3.0799	-0.1400	26.20	1.12	-0.750			
0.8452	54090.61	3.0770	3.0769	-0.1379	26.20	1.12	-0.750			
0.8456	54117.08	3.0740	3.0741	-0.1359	26.21	1.13	-0.750			
0.8460	54142.81	3.0710	3.0711	-0.1341	26.22	1.14	-0.750			
0.8464	54168.16	3.0680	3.0682	-0.1329	26.22	1.14	-0.750			
0.8468	54192.99	3.0650	3.0649	-0.1316	26.23	1.15	-0.750			
0.8472	54217.80	3.0620	3.0619	-0.1305	26.23	1.15	-0.750			
0.8475	54242.94	3.0590	3.0590	-0.1308	26.24	1.16	-0.750			
0.8479	54268.19	3.0560	3.0559	-0.1304	26.24	1.16	-0.750			
0.8483	54293.59	3.0530	3.0530	-0.1308	26.25	1.17	-0.750			
0.8487	54318.63	3.0500	3.0500	-0.1298	26.25	1.17	-0.750			
0.8491	54343.56	3.0470	3.0470	-0.1288	26.26	1.18	-0.750			
0.8495	54368.22	3.0440	3.0441	-0.1277	26.26	1.18	-0.750			
0.8499	54392.54	3.0410	3.0410	-0.1270	26.27	1.19	-0.750			
0.8503	54416.76	3.0380	3.0380	-0.1261	26.27	1.19	-0.750			
0.8506	54440.80	3.0350	3.0350	-0.1252	26.28	1.20	-0.750			
0.8510	54464.70	3.0320	3.0319	-0.1250	26.28	1.20	-0.750			
0.8514	54488.66	3.0290	3.0291	-0.1246	26.29	1.21	-0.750			
0.8518	54512.59	3.0260	3.0261	-0.1237	26.29	1.21	-0.750			
0.8521	54536.42	3.0230	3.0228	-0.1227	26.30	1.22	-0.750			
0.8525	54560.10	3.0200	3.0201	-0.1220	26.31	1.23	-0.750			
0.8529	54583.43	3.0170	3.0171	-0.1208	26.31	1.23	-0.750			
0.8532	54606.50	3.0140	3.0141	-0.1197	26.32	1.24	-0.750			
0.8536	54629.55	3.0110	3.0108	-0.1185	26.32	1.24	-0.750			
0.8539	54651.86	3.0080	3.0081	-0.1173	26.32	1.24	-0.751			
0.8543	54674.32	3.0050	3.0049	-0.1166	26.33	1.25	-0.751			
0.8546	54696.65	3.0020	3.0020	-0.1160	26.33	1.25	-0.751			
