Ah_balance (normalized)	Ah_balance (mAh)	Voltage - fit (V)	Voltage -  interpolate (V)	dQ/dV (1/V)	Temperature (°C)	Temperature - diff (°C)	Current (C)	R_DC 0ms (mOhm)	R_DC 50ms (mOhm)	R_DC 50 ms PEC (mOhm)
0.0513	3286.09	4.1980	4.1980	0.7532	26.76	0.83	0.750			
0.0536	3432.34	4.1950	4.1949	0.7641	26.76	0.83	0.750			
0.0560	3581.39	4.1920	4.1921	0.7684	26.76	0.83	0.750			
0.0583	3729.32	4.1890	4.1890	0.7635	26.76	0.83	0.750			
0.0606	3876.65	4.1860	4.1859	0.7609	26.76	0.83	0.750			
0.0628	4018.78	4.1830	4.1832	0.7577	26.76	0.83	0.750			
0.0651	4165.12	4.1800	4.1799	0.7642	26.76	0.83	0.750			
0.0674	4312.67	4.1770	4.1769	0.7639	26.76	0.83	0.750			
0.0697	4461.18	4.1740	4.1740	0.7625	26.76	0.83	0.750			
0.0720	4609.37	4.1710	4.1712	0.7656	26.76	0.83	0.750			
0.0743	4754.43	4.1680	4.1679	0.7676	26.76	0.83	0.750			
0.0766	4900.80	4.1650	4.1650	0.7677	26.76	0.83	0.750			
0.0788	5044.50	4.1620	4.1620	0.7655	26.76	0.83	0.750			
0.0811	5192.46	4.1590	4.1590	0.7747	26.76	0.83	0.750			
0.0835	5345.66	4.1560	4.1561	0.7777	26.76	0.83	0.750			
0.0859	5494.88	4.1530	4.1530	0.7785	26.76	0.83	0.750			
0.0882	5645.09	4.1500	4.1501	0.7779	26.76	0.83	0.750			
0.0905	5793.39	4.1470	4.1468	0.7783	26.76	0.83	0.750			
0.0929	5942.54	4.1440	4.1440	0.7799	26.76	0.83	0.750			
0.0952	6093.29	4.1410	4.1410	0.7770	26.76	0.83	0.750			
0.0975	6242.55	4.1380	4.1380	0.7820	26.76	0.83	0.750			
0.0999	6394.30	4.1350	4.1351	0.7813	26.76	0.83	0.750			
0.1022	6542.79	4.1320	4.1319	0.7804	26.76	0.83	0.750			
0.1046	6692.16	4.1290	4.1291	0.7850	26.76	0.83	0.750			
0.1069	6843.57	4.1260	4.1259	0.7817	26.76	0.83	0.750			
0.1093	6993.78	4.1230	4.1230	0.7847	26.76	0.83	0.750			
0.1117	7146.12	4.1200	4.1200	0.7884	26.76	0.83	0.750			
0.1140	7294.92	4.1170	4.1172	0.7902	26.76	0.83	0.750			
0.1164	7448.29	4.1140	4.1140	0.7966	26.76	0.83	0.750			
0.1188	7601.05	4.1110	4.1110	0.7963	26.76	0.83	0.750			
0.1212	7754.16	4.1080	4.1080	0.7901	26.76	0.83	0.750			
0.1236	7908.58	4.1050	4.1050	0.7916	26.76	0.83	0.750			
0.1259	8059.18	4.1020	4.1021	0.7948	26.76	0.83	0.750			
0.1283	8211.26	4.0990	4.0985	0.7942	26.76	0.83	0.750			
0.1307	8363.92	4.0960	4.0963	0.7862	26.76	0.83	0.750			
0.1330	8513.14	4.0930	4.0934	0.8011	26.76	0.83	0.750			
0.1354	8667.25	4.0900	4.0903	0.8142	26.76	0.83	0.750			
0.1379	8823.98	4.0870	4.0872	0.8092	26.76	0.83	0.750			
0.1404	8983.87	4.0840	4.0840	0.8082	26.76	0.83	0.750			
0.1428	9140.73	4.0810	4.0813	0.8149	26.76	0.83	0.750			
0.1453	9301.34	4.0780	4.0781	0.8177	26.76	0.83	0.750			
0.1478	9457.26	4.0750	4.0749	0.8145	26.76	0.83	0.750			
0.1501	9606.99	4.0720	4.0722	0.8023	26.76	0.83	0.750			
0.1525	9762.08	4.0690	4.0690	0.8136	26.76	0.83	0.750			
0.1550	9921.49	4.0660	4.0659	0.8293	26.76	0.83	0.750			
0.1575	10082.10	4.0630	4.0630	0.8315	26.76	0.83	0.750			
0.1600	10237.68	4.0600	4.0600	0.8197	26.76	0.83	0.750			
0.1624	10393.84	4.0570	4.0572	0.8314	26.76	0.83	0.750			
0.1649	10551.95	4.0540	4.0543	0.8412	26.76	0.83	0.750			
0.1674	10714.96	4.0510	4.0510	0.8529	26.76	0.83	0.750			
0.1700	10881.52	4.0480	4.0480	0.8520	26.76	0.83	0.750			
0.1726	11047.58	4.0450	4.0453	0.8582	26.76	0.83	0.750			
0.1753	11220.19	4.0420	4.0420	0.8723	26.76	0.83	0.750			
0.1778	11379.59	4.0390	4.0388	0.8534	26.76	0.83	0.750			
0.1803	11540.32	4.0360	4.0361	0.8469	26.76	0.83	0.750			
0.1829	11702.89	4.0330	4.0331	0.8457	26.76	0.83	0.750			
0.1854	11867.74	4.0300	4.0300	0.8528	26.76	0.83	0.750			
0.1880	12030.89	4.0270	4.0271	0.8525	26.76	0.83	0.750			
0.1905	12194.01	4.0240	4.0237	0.8540	26.76	0.83	0.750			
0.1931	12357.90	4.0210	4.0211	0.8582	26.76	0.83	0.750			
0.1957	12523.22	4.0180	4.0180	0.8605	26.76	0.83	0.750			
0.1983	12690.85	4.0150	4.0150	0.8653	26.75	0.82	0.750			
0.2009	12860.78	4.0120	4.0119	0.8449	26.75	0.82	0.750			
0.2034	13017.81	4.0090	4.0090	0.8566	26.75	0.82	0.750			
0.2060	13181.46	4.0060	4.0063	0.8608	26.75	0.82	0.750			
0.2085	13346.19	4.0030	4.0030	0.8733	26.75	0.82	0.750			
0.2112	13514.59	4.0000	3.9998	0.8804	26.76	0.83	0.750			
0.2138	13684.05	3.9970	3.9972	0.8870	26.76	0.83	0.750			
0.2165	13858.78	3.9940	3.9941	0.8992	26.76	0.83	0.750			
0.2194	14042.07	3.9910	3.9909	0.9072	26.76	0.83	0.750			
0.2220	14206.43	3.9880	3.9880	0.8875	26.76	0.83	0.750			
0.2246	14376.09	3.9850	3.9851	0.8906	26.76	0.83	0.750			
0.2273	14546.72	3.9820	3.9819	0.8919	26.76	0.83	0.750			
0.2300	14717.78	3.9790	3.9790	0.8968	26.76	0.83	0.750			
0.2327	14890.64	3.9760	3.9760	0.8889	26.76	0.83	0.750			
0.2353	15059.36	3.9730	3.9732	0.8998	26.76	0.83	0.750			
0.2381	15236.07	3.9700	3.9700	0.9087	26.76	0.83	0.750			
0.2408	15408.78	3.9670	3.9665	0.8964	26.76	0.83	0.750			
0.2434	15579.01	3.9640	3.9642	0.8990	26.76	0.83	0.750			
0.2461	15751.70	3.9610	3.9612	0.9102	26.76	0.83	0.750			
0.2489	15927.97	3.9580	3.9576	0.9199	26.76	0.83	0.750			
0.2516	16105.56	3.9550	3.9550	0.9143	26.76	0.83	0.750			
0.2544	16281.33	3.9520	3.9521	0.9212	26.76	0.83	0.750			
0.2572	16461.59	3.9490	3.9491	0.9337	26.76	0.83	0.750			
0.2600	16641.60	3.9460	3.9460	0.9425	26.76	0.83	0.750			
0.2628	16819.42	3.9430	3.9429	0.9390	26.76	0.83	0.750			
0.2657	17002.34	3.9400	3.9395	0.9357	26.76	0.83	0.750			
0.2686	17187.44	3.9370	3.9371	0.9265	26.76	0.83	0.750			
0.2713	17365.30	3.9340	3.9342	0.9165	26.76	0.83	0.750			
0.2741	17539.21	3.9310	3.9310	0.9053	26.76	0.83	0.750			
0.2767	17708.18	3.9280	3.9280	0.9037	26.76	0.83	0.750			
0.2793	17878.27	3.9250	3.9251	0.8779	26.76	0.83	0.750			
0.2819	18043.51	3.9220	3.9220	0.8897	26.76	0.83	0.750			
0.2846	18216.69	3.9190	3.9192	0.9053	26.76	0.83	0.750			
0.2874	18390.76	3.9160	3.9163	0.9182	26.76	0.83	0.750			
0.2901	18568.06	3.9130	3.9125	0.9253	26.76	0.83	0.750			
0.2930	18752.21	3.9100	3.9101	0.9175	26.76	0.83	0.750			
0.2957	18925.97	3.9070	3.9072	0.9319	26.76	0.83	0.750			
0.2986	19109.31	3.9040	3.9040	0.9549	26.75	0.82	0.750			
0.3014	19288.79	3.9010	3.9010	0.9411	26.75	0.82	0.750			
0.3042	19467.97	3.8980	3.8978	0.9445	26.75	0.82	0.750			
0.3071	19651.48	3.8950	3.8952	0.9347	26.74	0.81	0.750			
0.3099	19833.44	3.8920	3.8922	0.9475	26.73	0.80	0.750			
0.3127	20015.72	3.8890	3.8890	0.9486	26.73	0.80	0.750			
0.3155	20192.03	3.8860	3.8856	0.9431	26.72	0.79	0.750			
0.3184	20375.95	3.8830	3.8831	0.9361	26.72	0.79	0.750			
0.3212	20556.51	3.8800	3.8800	0.9562	26.71	0.78	0.750			
0.3241	20741.28	3.8770	3.8771	0.9667	26.71	0.78	0.750			
0.3270	20927.46	3.8740	3.8742	0.9721	26.70	0.77	0.750			
0.3299	21114.93	3.8710	3.8709	0.9750	26.70	0.77	0.750			
0.3329	21304.53	3.8680	3.8681	0.9877	26.69	0.76	0.750			
0.3359	21494.68	3.8650	3.8652	0.9985	26.68	0.75	0.750			
0.3389	21691.52	3.8620	3.8619	1.0189	26.67	0.74	0.750			
0.3419	21883.55	3.8590	3.8590	1.0032	26.67	0.74	0.750			
0.3449	22076.68	3.8560	3.8560	1.0107	26.66	0.73	0.750			
0.3480	22270.25	3.8530	3.8532	1.0196	26.65	0.72	0.750			
0.3511	22468.95	3.8500	3.8500	1.0313	26.64	0.71	0.750			
0.3542	22667.96	3.8470	3.8470	1.0291	26.63	0.70	0.750			
0.3573	22864.72	3.8440	3.8440	1.0300	26.62	0.69	0.750			
0.3603	23061.38	3.8410	3.8412	1.0377	26.61	0.68	0.750			
0.3635	23262.33	3.8380	3.8381	1.0495	26.61	0.68	0.750			
0.3666	23463.46	3.8350	3.8347	1.0517	26.60	0.67	0.750			
0.3698	23665.94	3.8320	3.8321	1.0619	26.59	0.66	0.750			
0.3730	23871.55	3.8290	3.8291	1.0690	26.58	0.65	0.750			
0.3762	24078.87	3.8260	3.8261	1.0794	26.57	0.64	0.750			
0.3796	24293.22	3.8230	3.8230	1.0690	26.56	0.63	0.750			
0.3827	24492.55	3.8200	3.8200	1.0684	26.55	0.62	0.750			
0.3859	24696.08	3.8170	3.8170	1.0731	26.54	0.61	0.750			
0.3891	24902.49	3.8140	3.8142	1.0770	26.52	0.59	0.750			
0.3923	25108.20	3.8110	3.8111	1.0790	26.51	0.58	0.750			
0.3956	25317.15	3.8080	3.8080	1.0878	26.50	0.57	0.750			
0.3988	25526.39	3.8050	3.8051	1.0938	26.49	0.56	0.750			
0.4022	25741.09	3.8020	3.8020	1.1106	26.48	0.55	0.750			
0.4055	25950.48	3.7990	3.7990	1.0970	26.47	0.54	0.750			
0.4088	26160.26	3.7960	3.7960	1.1132	26.46	0.53	0.750			
0.4121	26373.66	3.7930	3.7931	1.1259	26.45	0.52	0.750			
0.4155	26593.62	3.7900	3.7896	1.1282	26.44	0.51	0.750			
0.4189	26810.20	3.7870	3.7871	1.1441	26.43	0.50	0.750			
0.4223	27029.13	3.7840	3.7842	1.1656	26.42	0.49	0.750			
0.4259	27255.41	3.7810	3.7811	1.1828	26.41	0.48	0.750			
0.4294	27483.62	3.7780	3.7780	1.1915	26.39	0.46	0.750			
0.4330	27712.68	3.7750	3.7752	1.2152	26.38	0.45	0.750			
0.4367	27950.28	3.7720	3.7721	1.2334	26.37	0.44	0.750			
0.4404	28186.49	3.7690	3.7687	1.2720	26.35	0.42	0.750			
0.4442	28428.65	3.7660	3.7660	1.3013	26.34	0.41	0.750			
0.4482	28682.20	3.7630	3.7630	1.3450	26.33	0.40	0.750			
0.4523	28949.08	3.7600	3.7600	1.3781	26.31	0.38	0.750	0.313	0.400	
0.4566	29220.88	3.7570	3.7572	1.3923	26.30	0.37	0.750			
0.4609	29500.54	3.7540	3.7540	1.4064	26.28	0.35	0.750			
0.4653	29779.58	3.7510	3.7506	1.3674	26.27	0.34	0.750			
0.4692	30027.75	3.7480	3.7484	1.3893	26.26	0.33	0.750			
0.4734	30295.51	3.7450	3.7448	1.3836	26.25	0.32	0.750			
0.4772	30538.04	3.7420	3.7418	1.4542	26.23	0.30	0.750			
0.4814	30807.73	3.7390	3.7397	1.5384	26.22	0.29	0.750			
0.4864	31129.04	3.7360	3.7356	1.6370	26.20	0.27	0.750			
0.4917	31465.85	3.7330	3.7323	1.7401	26.19	0.26	0.750			
0.4972	31820.96	3.7300	3.7303	1.8101	26.17	0.24	0.750			
0.5029	32184.01	3.7270	3.7269	1.8498	26.15	0.22	0.750			
0.5085	32541.48	3.7240	3.7240	1.8577	26.12	0.19	0.750			
0.5141	32900.31	3.7210	3.7209	1.8882	26.10	0.17	0.750			
0.5194	33243.75	3.7180	3.7185	1.8985	26.08	0.15	0.750			
0.5252	33612.07	3.7150	3.7150	1.9574	26.06	0.13	0.750			
0.5311	33991.57	3.7120	3.7119	2.0112	26.04	0.11	0.750			
0.5373	34387.46	3.7090	3.7091	2.0707	26.02	0.09	0.750			
0.5436	34793.36	3.7060	3.7061	2.1677	26.01	0.08	0.750			
0.5502	35211.97	3.7030	3.7029	2.2079	25.99	0.06	0.750			
0.5569	35644.24	3.7000	3.6999	2.2674	25.97	0.04	0.750			
0.5639	36086.87	3.6970	3.6971	2.3419	25.94	0.01	0.750			
0.5710	36543.86	3.6940	3.6940	2.4293	25.92	-0.01	0.750			
0.5784	37017.61	3.6910	3.6908	2.4839	25.91	-0.02	0.750			
0.5859	37495.48	3.6880	3.6880	2.5388	25.89	-0.04	0.750			
0.5938	38001.39	3.6850	3.6850	2.5877	25.86	-0.07	0.750			
0.6016	38502.28	3.6820	3.6820	2.6554	25.85	-0.08	0.750			
0.6096	39016.63	3.6790	3.6793	2.7715	25.83	-0.10	0.750			
0.6181	39556.94	3.6760	3.6759	2.8819	25.81	-0.12	0.750			
0.6267	40111.62	3.6730	3.6731	3.0065	25.79	-0.14	0.750			
0.6361	40713.39	3.6700	3.6699	3.1335	25.78	-0.15	0.750			
0.6459	41336.71	3.6670	3.6669	3.0894	25.76	-0.17	0.750			
0.6551	41927.04	3.6640	3.6641	2.9933	25.75	-0.18	0.750			
0.6639	42491.22	3.6610	3.6609	2.7046	25.74	-0.19	0.750			
0.6715	42977.43	3.6580	3.6579	2.3966	25.74	-0.19	0.750			
0.6779	43385.33	3.6550	3.6551	2.1155	25.74	-0.19	0.750			
0.6838	43764.41	3.6520	3.6523	1.9284	25.74	-0.19	0.750			
0.6890	44098.35	3.6490	3.6494	1.7579	25.74	-0.19	0.750			
0.6939	44406.79	3.6460	3.6460	1.6225	25.74	-0.19	0.750			
0.6988	44724.07	3.6430	3.6433	1.5475	25.74	-0.19	0.750			
0.7034	45015.78	3.6400	3.6401	1.4506	25.74	-0.19	0.750			
0.7076	45284.15	3.6370	3.6369	1.3644	25.74	-0.19	0.750			
0.7111	45511.12	3.6340	3.6340	1.2477	25.74	-0.19	0.750			
0.7147	45741.93	3.6310	3.6308	1.2216	25.74	-0.19	0.750			
0.7183	45970.06	3.6280	3.6282	1.2117	25.74	-0.19	0.750			
0.7219	46201.43	3.6250	3.6250	1.2117	25.74	-0.19	0.750			
0.7255	46433.51	3.6220	3.6220	1.2152	25.74	-0.19	0.750			
0.7293	46672.63	3.6190	3.6189	1.2204	25.74	-0.19	0.750			
0.7328	46901.09	3.6160	3.6161	1.2139	25.74	-0.19	0.750			
0.7365	47136.30	3.6130	3.6130	1.2157	25.73	-0.20	0.750			
0.7402	47374.27	3.6100	3.6098	1.1971	25.73	-0.20	0.750			
0.7438	47603.64	3.6070	3.6071	1.1781	25.74	-0.19	0.750			
0.7473	47828.79	3.6040	3.6041	1.1628	25.74	-0.19	0.750			
0.7507	48047.83	3.6010	3.6013	1.1556	25.75	-0.18	0.750			
0.7541	48265.06	3.5980	3.5979	1.1432	25.75	-0.18	0.750			
0.7575	48480.92	3.5950	3.5950	1.1490	25.75	-0.18	0.750			
0.7609	48697.92	3.5920	3.5921	1.1743	25.74	-0.19	0.750			
0.7645	48926.48	3.5890	3.5889	1.2092	25.74	-0.19	0.750			
0.7682	49166.97	3.5860	3.5858	1.2307	25.74	-0.19	0.750			
0.7720	49405.50	3.5830	3.5831	1.2615	25.73	-0.20	0.750			
0.7758	49648.66	3.5800	3.5800	1.3039	25.73	-0.20	0.750			
0.7797	49899.27	3.5770	3.5772	1.3603	25.73	-0.20	0.750			
0.7838	50161.98	3.5740	3.5739	1.3978	25.73	-0.20	0.750			
0.7881	50436.14	3.5710	3.5710	1.4386	25.73	-0.20	0.750			
0.7925	50721.15	3.5680	3.5683	1.4962	25.73	-0.20	0.750			
0.7971	51013.80	3.5650	3.5648	1.5457	25.73	-0.20	0.750			
0.8018	51315.38	3.5620	3.5621	1.5811	25.73	-0.20	0.750			
0.8066	51624.55	3.5590	3.5586	1.5974	25.73	-0.20	0.750			
0.8115	51937.50	3.5560	3.5560	1.6371	25.72	-0.21	0.750			
0.8166	52259.30	3.5530	3.5530	1.6587	25.72	-0.21	0.750			
0.8216	52580.03	3.5500	3.5499	1.6658	25.72	-0.21	0.750			
0.8266	52899.93	3.5470	3.5472	1.6739	25.72	-0.21	0.750			
0.8315	53218.23	3.5440	3.5442	1.7151	25.73	-0.20	0.750			
0.8368	53552.35	3.5410	3.5410	1.7309	25.74	-0.19	0.750			
0.8420	53888.60	3.5380	3.5376	1.7609	25.75	-0.18	0.750			
0.8474	54230.76	3.5350	3.5348	1.7656	25.75	-0.18	0.750			
0.8528	54580.59	3.5320	3.5318	1.7250	25.75	-0.18	0.750			
0.8584	54934.62	3.5290	3.5292	1.5872	25.77	-0.16	0.750			
0.8632	55247.55	3.5260	3.5265	1.4089	25.78	-0.15	0.750			
0.8673	55506.98	3.5230	3.5238	1.1577	25.80	-0.13	0.750			
0.8705	55712.48	3.5200	3.5202	0.9271	25.81	-0.12	0.750			
0.8726	55844.69	3.5170	3.5165	0.6774	25.82	-0.11	0.750			
0.8738	55924.26	3.5140	3.5138	0.4963	25.83	-0.10	0.750			
0.8749	55991.14	3.5110	3.5110	0.3985	25.83	-0.10	0.750			
0.8759	56058.88	3.5080	3.5079	0.3581	25.84	-0.09	0.750			
0.8769	56122.48	3.5050	3.5049	0.3361	25.84	-0.09	0.750			
0.8779	56183.42	3.5020	3.5017	0.3188	25.85	-0.08	0.750			
0.8788	56242.72	3.4990	3.4991	0.3067	25.85	-0.08	0.750			
0.8797	56300.33	3.4960	3.4960	0.2971	25.86	-0.07	0.750			
0.8806	56356.23	3.4930	3.4931	0.2878	25.87	-0.06	0.750			
0.8814	56410.42	3.4900	3.4899	0.2804	25.87	-0.06	0.750			
0.8822	56462.49	3.4870	3.4871	0.2717	25.88	-0.05	0.750			
0.8830	56514.26	3.4840	3.4840	0.2664	25.88	-0.05	0.750			
0.8838	56564.96	3.4810	3.4810	0.2614	25.89	-0.04	0.750			
0.8846	56614.20	3.4780	3.4781	0.2583	25.89	-0.04	0.750			
0.8854	56662.81	3.4750	3.4751	0.2553	25.90	-0.03	0.750			
0.8861	56712.60	3.4720	3.4718	0.2490	25.90	-0.03	0.750			
0.8869	56760.53	3.4690	3.4691	0.2427	25.91	-0.02	0.750			
0.8876	56806.94	3.4660	3.4662	0.2360	25.91	-0.02	0.750			
0.8883	56852.13	3.4630	3.4632	0.2307	25.92	-0.01	0.750			
0.8890	56894.93	3.4600	3.4599	0.2242	25.92	-0.01	0.750			
0.8896	56936.06	3.4570	3.4569	0.2172	25.92	-0.01	0.750			
0.8903	56977.56	3.4540	3.4539	0.2139	25.93	-0.00	0.750			
0.8909	57017.59	3.4510	3.4511	0.2101	25.93	0.00	0.750			
0.8915	57059.08	3.4480	3.4480	0.2063	25.94	0.01	0.750			
0.8922	57098.37	3.4450	3.4450	0.2016	25.94	0.01	0.750			
0.8928	57136.28	3.4420	3.4421	0.1962	25.94	0.01	0.750			
0.8933	57173.24	3.4390	3.4390	0.1905	25.95	0.02	0.750			
0.8939	57209.14	3.4360	3.4359	0.1856	25.95	0.02	0.750			
0.8944	57243.83	3.4330	3.4328	0.1809	25.95	0.02	0.750			
0.8950	57277.97	3.4300	3.4302	0.1770	25.96	0.03	0.750			
0.8955	57311.87	3.4270	3.4269	0.1724	25.96	0.03	0.750			
0.8960	57345.03	3.4240	3.4239	0.1684	25.96	0.03	0.750			
0.8965	57377.02	3.4210	3.4210	0.1628	25.97	0.04	0.750			
0.8970	57407.95	3.4180	3.4180	0.1576	25.97	0.04	0.750			
0.8975	57437.65	3.4150	3.4149	0.1516	25.97	0.04	0.750			
0.8979	57466.20	3.4120	3.4120	0.1460	25.98	0.05	0.750			
0.8983	57493.45	3.4090	3.4090	0.1396	25.98	0.05	0.750			
0.8988	57520.17	3.4060	3.4060	0.1323	25.98	0.05	0.750			
0.8991	57545.34	3.4030	3.4029	0.1258	25.98	0.05	0.750			
0.8995	57568.72	3.4000	3.4000	0.1186	25.99	0.06	0.750			
0.8999	57591.03	3.3970	3.3973	0.1118	25.99	0.06	0.750			
0.9002	57611.75	3.3940	3.3939	0.1040	25.99	0.06	0.750			
0.9005	57631.55	3.3910	3.3907	0.0948	25.99	0.06	0.750			
0.9008	57648.87	3.3880	3.3881	0.0856	26.00	0.07	0.750			
0.9010	57664.51	3.3850	3.3852	0.0766	26.00	0.07	0.750			
0.9012	57678.33	3.3820	3.3824	0.0674	26.00	0.07	0.750			
0.9014	57692.30	3.3790	3.3795	0.0594	26.00	0.07	0.750			
0.9016	57702.63	3.3760	3.3769	0.0482	26.00	0.07	0.750			
0.9017	57710.82	3.3730	3.3745	0.0371	26.00	0.07	0.750			
0.9018	57716.88	3.3700	3.3720	0.0260	26.00	0.07	0.750			
0.9019	57720.79	3.3670	3.3697	0.0148	26.00	0.07	0.750			
