Ah_balance (normalized)	Ah_balance (mAh)	Voltage - fit (V)	Voltage -  interpolate (V)	dQ/dV (1/V)	Temperature (°C)	Temperature - diff (°C)	Current (C)	R_DC 0ms (mOhm)	R_DC 50ms (mOhm)	R_DC 50 ms PEC (mOhm)
0.0579	3705.53	4.1970	4.1970	0.7369	25.75	-0.20	0.750			
0.0601	3847.28	4.1940	4.1941	0.7392	25.75	-0.20	0.750			
0.0623	3988.62	4.1910	4.1910	0.7419	25.75	-0.20	0.750			
0.0646	4132.03	4.1880	4.1880	0.7450	25.75	-0.20	0.750			
0.0668	4276.90	4.1850	4.1849	0.7360	25.75	-0.20	0.750			
0.0690	4417.44	4.1820	4.1821	0.7393	25.75	-0.20	0.750			
0.0712	4558.90	4.1790	4.1791	0.7372	25.75	-0.20	0.750			
0.0734	4699.55	4.1760	4.1759	0.7439	25.75	-0.20	0.750			
0.0757	4842.68	4.1730	4.1731	0.7463	25.75	-0.20	0.750			
0.0779	4986.01	4.1700	4.1700	0.7452	25.75	-0.20	0.750			
0.0802	5130.75	4.1670	4.1671	0.7496	25.75	-0.20	0.750			
0.0824	5276.40	4.1640	4.1641	0.7509	25.75	-0.20	0.750			
0.0847	5419.54	4.1610	4.1610	0.7530	25.75	-0.20	0.750			
0.0870	5564.95	4.1580	4.1580	0.7546	25.75	-0.20	0.750			
0.0892	5709.67	4.1550	4.1551	0.7541	25.75	-0.20	0.750			
0.0915	5856.78	4.1520	4.1519	0.7562	25.76	-0.19	0.750			
0.0938	6001.32	4.1490	4.1491	0.7582	25.76	-0.19	0.750			
0.0960	6145.86	4.1460	4.1460	0.7585	25.77	-0.18	0.750			
0.0983	6292.12	4.1430	4.1429	0.7546	25.77	-0.18	0.750			
0.1006	6437.00	4.1400	4.1400	0.7530	25.77	-0.18	0.750			
0.1029	6582.67	4.1370	4.1371	0.7521	25.77	-0.18	0.750			
0.1051	6727.49	4.1340	4.1340	0.7528	25.77	-0.18	0.750			
0.1073	6870.04	4.1310	4.1310	0.7566	25.76	-0.19	0.750			
0.1096	7013.62	4.1280	4.1280	0.7594	25.76	-0.19	0.750			
0.1119	7159.33	4.1250	4.1250	0.7643	25.76	-0.19	0.750			
0.1142	7308.40	4.1220	4.1220	0.7697	25.76	-0.19	0.750			
0.1165	7458.51	4.1190	4.1189	0.7675	25.76	-0.19	0.750			
0.1188	7605.48	4.1160	4.1161	0.7690	25.77	-0.18	0.750			
0.1212	7753.62	4.1130	4.1129	0.7683	25.77	-0.18	0.750			
0.1234	7897.88	4.1100	4.1099	0.7642	25.77	-0.18	0.750			
0.1257	8045.36	4.1070	4.1070	0.7691	25.77	-0.18	0.750			
0.1280	8194.79	4.1040	4.1040	0.7661	25.77	-0.18	0.750			
0.1303	8341.07	4.1010	4.1009	0.7705	25.78	-0.17	0.750			
0.1326	8488.61	4.0980	4.0981	0.7783	25.78	-0.17	0.750			
0.1350	8636.89	4.0950	4.0951	0.7804	25.78	-0.17	0.750			
0.1373	8787.62	4.0920	4.0918	0.7849	25.78	-0.17	0.750			
0.1397	8939.90	4.0890	4.0890	0.7849	25.78	-0.17	0.750			
0.1420	9090.01	4.0860	4.0861	0.7881	25.78	-0.17	0.750			
0.1444	9241.80	4.0830	4.0831	0.7930	25.79	-0.16	0.750			
0.1468	9393.71	4.0800	4.0799	0.7900	25.79	-0.16	0.750			
0.1491	9545.01	4.0770	4.0768	0.7884	25.79	-0.16	0.750			
0.1515	9697.99	4.0740	4.0741	0.7920	25.79	-0.16	0.750			
0.1539	9851.09	4.0710	4.0711	0.7972	25.79	-0.16	0.750			
0.1563	10004.17	4.0680	4.0680	0.7991	25.79	-0.16	0.750			
0.1587	10154.56	4.0650	4.0650	0.7930	25.79	-0.16	0.750			
0.1611	10308.89	4.0620	4.0619	0.7997	25.79	-0.16	0.750			
0.1635	10462.80	4.0590	4.0590	0.8054	25.79	-0.16	0.750			
0.1659	10618.33	4.0560	4.0560	0.8048	25.80	-0.15	0.750			
0.1683	10773.12	4.0530	4.0530	0.8097	25.80	-0.15	0.750			
0.1707	10927.87	4.0500	4.0500	0.8081	25.80	-0.15	0.750			
0.1732	11083.67	4.0470	4.0470	0.8121	25.81	-0.14	0.750			
0.1756	11238.50	4.0440	4.0440	0.8170	25.81	-0.14	0.750			
0.1781	11398.49	4.0410	4.0410	0.8111	25.81	-0.14	0.750			
0.1805	11553.47	4.0380	4.0380	0.8187	25.81	-0.14	0.750			
0.1830	11710.67	4.0350	4.0350	0.8228	25.81	-0.14	0.750			
0.1854	11868.17	4.0320	4.0322	0.8194	25.81	-0.14	0.750			
0.1879	12026.55	4.0290	4.0290	0.8246	25.81	-0.14	0.750			
0.1904	12185.33	4.0260	4.0260	0.8220	25.82	-0.13	0.750			
0.1928	12342.17	4.0230	4.0231	0.8264	25.82	-0.13	0.750			
0.1954	12502.60	4.0200	4.0201	0.8369	25.82	-0.13	0.750			
0.1978	12659.45	4.0170	4.0170	0.8335	25.83	-0.12	0.750			
0.2003	12822.30	4.0140	4.0140	0.8420	25.83	-0.12	0.750			
0.2029	12986.88	4.0110	4.0110	0.8432	25.83	-0.12	0.750			
0.2054	13148.54	4.0080	4.0080	0.8434	25.84	-0.11	0.750			
0.2080	13313.04	4.0050	4.0051	0.8426	25.84	-0.11	0.750			
0.2105	13471.91	4.0020	4.0019	0.8342	25.84	-0.11	0.750			
0.2130	13631.83	3.9990	3.9991	0.8358	25.84	-0.11	0.750			
0.2155	13792.47	3.9960	3.9959	0.8279	25.84	-0.11	0.750			
0.2180	13949.88	3.9930	3.9931	0.8395	25.85	-0.10	0.750			
0.2205	14112.20	3.9900	3.9901	0.8479	25.85	-0.10	0.750			
0.2231	14276.24	3.9870	3.9868	0.8536	25.85	-0.10	0.750			
0.2256	14440.58	3.9840	3.9842	0.8608	25.85	-0.10	0.750			
0.2282	14607.89	3.9810	3.9810	0.8550	25.85	-0.10	0.750			
0.2308	14771.93	3.9780	3.9781	0.8555	25.85	-0.10	0.750			
0.2334	14934.53	3.9750	3.9750	0.8517	25.85	-0.10	0.750			
0.2359	15099.37	3.9720	3.9718	0.8544	25.85	-0.10	0.750			
0.2385	15262.41	3.9690	3.9690	0.8571	25.85	-0.10	0.750			
0.2411	15428.43	3.9660	3.9661	0.8565	25.85	-0.10	0.750			
0.2436	15593.51	3.9630	3.9630	0.8604	25.85	-0.10	0.750			
0.2463	15760.29	3.9600	3.9600	0.8682	25.85	-0.10	0.750			
0.2488	15925.35	3.9570	3.9568	0.8618	25.85	-0.10	0.750			
0.2514	16091.90	3.9540	3.9539	0.8567	25.85	-0.10	0.750			
0.2540	16256.93	3.9510	3.9510	0.8604	25.85	-0.10	0.750			
0.2566	16421.35	3.9480	3.9481	0.8587	25.84	-0.11	0.750			
0.2591	16584.57	3.9450	3.9451	0.8601	25.84	-0.11	0.750			
0.2617	16748.66	3.9420	3.9418	0.8644	25.84	-0.11	0.750			
0.2643	16917.05	3.9390	3.9390	0.8635	25.84	-0.11	0.750			
0.2669	17084.41	3.9360	3.9359	0.8698	25.84	-0.11	0.750			
0.2695	17250.90	3.9330	3.9331	0.8736	25.83	-0.12	0.750			
0.2722	17418.51	3.9300	3.9301	0.8768	25.83	-0.12	0.750			
0.2748	17587.20	3.9270	3.9270	0.8849	25.83	-0.12	0.750			
0.2775	17758.01	3.9240	3.9239	0.8866	25.82	-0.13	0.750			
0.2801	17928.69	3.9210	3.9210	0.8899	25.82	-0.13	0.750			
0.2828	18101.80	3.9180	3.9182	0.8957	25.82	-0.13	0.750			
0.2855	18273.93	3.9150	3.9149	0.8932	25.81	-0.14	0.750			
0.2882	18444.67	3.9120	3.9119	0.8959	25.81	-0.14	0.750			
0.2909	18615.13	3.9090	3.9091	0.8935	25.81	-0.14	0.750			
0.2935	18785.72	3.9060	3.9060	0.9028	25.80	-0.15	0.750			
0.2963	18961.18	3.9030	3.9030	0.9112	25.80	-0.15	0.750			
0.2990	19136.72	3.9000	3.8999	0.9118	25.80	-0.15	0.750			
0.3018	19315.47	3.8970	3.8970	0.9045	25.80	-0.15	0.750			
0.3045	19488.06	3.8940	3.8940	0.9086	25.79	-0.16	0.750			
0.3072	19661.06	3.8910	3.8911	0.9108	25.79	-0.16	0.750			
0.3099	19835.55	3.8880	3.8881	0.9164	25.78	-0.17	0.750			
0.3126	20008.05	3.8850	3.8850	0.9159	25.78	-0.17	0.750			
0.3154	20186.03	3.8820	3.8821	0.9184	25.77	-0.18	0.750			
0.3182	20364.22	3.8790	3.8790	0.9253	25.76	-0.19	0.750			
0.3210	20542.31	3.8760	3.8761	0.9306	25.76	-0.19	0.750			
0.3238	20720.60	3.8730	3.8728	0.9286	25.75	-0.20	0.750			
0.3266	20902.84	3.8700	3.8700	0.9190	25.75	-0.20	0.750			
0.3293	21078.33	3.8670	3.8670	0.9272	25.75	-0.20	0.750			
0.3321	21254.56	3.8640	3.8641	0.9357	25.74	-0.21	0.750			
0.3349	21434.48	3.8610	3.8611	0.9454	25.74	-0.21	0.750			
0.3377	21615.83	3.8580	3.8582	0.9443	25.74	-0.21	0.750			
0.3406	21798.81	3.8550	3.8551	0.9460	25.73	-0.22	0.750			
0.3435	21982.24	3.8520	3.8520	0.9554	25.72	-0.23	0.750			
0.3463	22166.39	3.8490	3.8491	0.9589	25.72	-0.23	0.750			
0.3492	22349.83	3.8460	3.8459	0.9516	25.71	-0.24	0.750			
0.3521	22532.00	3.8430	3.8429	0.9485	25.70	-0.25	0.750			
0.3549	22712.97	3.8400	3.8401	0.9494	25.70	-0.25	0.750			
0.3578	22896.04	3.8370	3.8372	0.9569	25.69	-0.26	0.750			
0.3606	23081.37	3.8340	3.8339	0.9561	25.68	-0.27	0.750			
0.3635	23264.47	3.8310	3.8309	0.9506	25.68	-0.27	0.750			
0.3664	23447.24	3.8280	3.8281	0.9610	25.67	-0.28	0.750			
0.3692	23629.77	3.8250	3.8251	0.9778	25.67	-0.28	0.750			
0.3722	23817.75	3.8220	3.8219	0.9867	25.66	-0.29	0.750			
0.3751	24008.30	3.8190	3.8190	1.0067	25.66	-0.29	0.750			
0.3782	24203.58	3.8160	3.8161	1.0108	25.65	-0.30	0.750			
0.3813	24401.34	3.8130	3.8131	1.0203	25.65	-0.30	0.750			
0.3843	24597.54	3.8100	3.8100	1.0281	25.64	-0.31	0.750			
0.3874	24795.82	3.8070	3.8073	1.0237	25.64	-0.31	0.750			
0.3905	24990.64	3.8040	3.8039	1.0293	25.63	-0.32	0.750			
0.3935	25187.09	3.8010	3.8011	1.0452	25.63	-0.32	0.750			
0.3967	25388.14	3.7980	3.7982	1.0605	25.62	-0.33	0.750			
0.3999	25594.71	3.7950	3.7948	1.0691	25.62	-0.33	0.750			
0.4031	25801.10	3.7920	3.7920	1.0897	25.61	-0.34	0.750			
0.4064	26009.41	3.7890	3.7891	1.1066	25.60	-0.35	0.750			
0.4098	26225.93	3.7860	3.7861	1.1280	25.59	-0.36	0.750			
0.4132	26444.25	3.7830	3.7831	1.1397	25.59	-0.36	0.750			
0.4166	26661.31	3.7800	3.7799	1.1556	25.58	-0.37	0.750			
0.4201	26883.48	3.7770	3.7772	1.1963	25.58	-0.37	0.750			
0.4237	27117.94	3.7740	3.7739	1.2211	25.57	-0.38	0.750			
0.4274	27353.18	3.7710	3.7705	1.2523	25.56	-0.39	0.750	0.287	0.430	
0.4312	27598.62	3.7680	3.7682	1.2820	25.55	-0.40	0.750			
0.4352	27854.41	3.7650	3.7650	1.2950	25.54	-0.41	0.750			
0.4391	28104.29	3.7620	3.7620	1.3261	25.54	-0.41	0.750			
0.4430	28355.10	3.7590	3.7591	1.3384	25.53	-0.42	0.750			
0.4472	28617.70	3.7560	3.7560	1.3539	25.52	-0.43	0.750			
0.4514	28886.76	3.7530	3.7531	1.3744	25.52	-0.43	0.750			
0.4554	29142.83	3.7500	3.7502	1.4122	25.51	-0.44	0.750			
0.4597	29423.57	3.7470	3.7470	1.4267	25.50	-0.45	0.750			
0.4640	29698.38	3.7440	3.7443	1.4732	25.50	-0.45	0.750			
0.4684	29980.75	3.7410	3.7413	1.4966	25.49	-0.46	0.750			
0.4730	30273.19	3.7380	3.7380	1.5435	25.48	-0.47	0.750			
0.4778	30580.00	3.7350	3.7351	1.5913	25.48	-0.47	0.750			
0.4826	30888.52	3.7320	3.7321	1.6413	25.48	-0.47	0.750			
0.4876	31203.46	3.7290	3.7292	1.6880	25.48	-0.47	0.750			
0.4928	31536.25	3.7260	3.7261	1.7473	25.46	-0.49	0.750			
0.4980	31874.92	3.7230	3.7230	1.7781	25.45	-0.50	0.750			
0.5035	32225.96	3.7200	3.7202	1.8304	25.45	-0.50	0.750			
0.5092	32587.66	3.7170	3.7172	1.8883	25.44	-0.51	0.750			
0.5149	32954.46	3.7140	3.7142	1.9485	25.44	-0.51	0.750			
0.5208	33330.65	3.7110	3.7112	1.9884	25.43	-0.52	0.750			
0.5268	33714.59	3.7080	3.7083	2.0633	25.43	-0.52	0.750			
0.5330	34115.06	3.7050	3.7054	2.1338	25.42	-0.53	0.750			
0.5395	34528.68	3.7020	3.7023	2.2614	25.42	-0.53	0.750			
0.5463	34964.49	3.6990	3.6990	2.3713	25.40	-0.55	0.750			
0.5536	35432.59	3.6960	3.6959	2.4803	25.40	-0.55	0.750			
0.5613	35926.09	3.6930	3.6933	2.5394	25.40	-0.55	0.750			
0.5692	36427.69	3.6900	3.6899	2.6041	25.40	-0.55	0.750			
0.5770	36928.50	3.6870	3.6870	2.6134	25.40	-0.55	0.750			
0.5851	37444.67	3.6840	3.6841	2.6655	25.40	-0.55	0.750			
0.5932	37963.76	3.6810	3.6810	2.7140	25.39	-0.56	0.750			
0.6015	38493.39	3.6780	3.6781	2.7190	25.38	-0.57	0.750			
0.6097	39019.07	3.6750	3.6749	2.6371	25.38	-0.57	0.750			
0.6177	39535.13	3.6720	3.6720	2.5264	25.39	-0.56	0.750			
0.6251	40006.26	3.6690	3.6690	2.3235	25.40	-0.55	0.750			
0.6318	40434.01	3.6660	3.6660	2.1299	25.40	-0.55	0.750			
0.6377	40814.87	3.6630	3.6630	1.9062	25.40	-0.55	0.750			
0.6430	41149.86	3.6600	3.6597	1.7675	25.41	-0.54	0.750			
0.6479	41463.29	3.6570	3.6569	1.6194	25.42	-0.53	0.750			
0.6525	41761.02	3.6540	3.6539	1.5147	25.43	-0.52	0.750			
0.6569	42042.70	3.6510	3.6513	1.4337	25.43	-0.52	0.750			
0.6611	42311.20	3.6480	3.6478	1.3466	25.44	-0.51	0.750			
0.6650	42562.59	3.6450	3.6449	1.2820	25.45	-0.50	0.750			
0.6687	42795.70	3.6420	3.6421	1.2307	25.45	-0.50	0.750			
0.6721	43016.70	3.6390	3.6390	1.1865	25.46	-0.49	0.750			
0.6756	43241.05	3.6360	3.6360	1.1662	25.46	-0.49	0.750			
0.6790	43458.40	3.6330	3.6330	1.1540	25.46	-0.49	0.750			
0.6825	43677.69	3.6300	3.6301	1.1591	25.47	-0.48	0.750			
0.6860	43904.27	3.6270	3.6268	1.1697	25.47	-0.48	0.750			
0.6895	44130.18	3.6240	3.6240	1.1740	25.48	-0.47	0.750			
0.6931	44357.05	3.6210	3.6210	1.1727	25.48	-0.47	0.750			
0.6967	44586.72	3.6180	3.6180	1.1617	25.49	-0.46	0.750			
0.7002	44811.58	3.6150	3.6150	1.1334	25.49	-0.46	0.750			
0.7035	45024.22	3.6120	3.6120	1.1188	25.50	-0.45	0.750			
0.7068	45234.38	3.6090	3.6091	1.1074	25.50	-0.45	0.750			
0.7101	45443.46	3.6060	3.6059	1.1030	25.51	-0.44	0.750			
0.7133	45650.74	3.6030	3.6031	1.1075	25.51	-0.44	0.750			
0.7166	45863.25	3.6000	3.6001	1.1231	25.52	-0.43	0.750			
0.7200	46080.23	3.5970	3.5970	1.1518	25.52	-0.43	0.750			
0.7235	46306.31	3.5940	3.5940	1.1740	25.53	-0.42	0.750			
0.7270	46528.80	3.5910	3.5910	1.1975	25.54	-0.41	0.750			
0.7307	46762.39	3.5880	3.5880	1.2384	25.54	-0.41	0.750			
0.7345	47006.54	3.5850	3.5850	1.2645	25.55	-0.40	0.750			
0.7383	47248.08	3.5820	3.5820	1.3081	25.55	-0.40	0.750			
0.7421	47497.46	3.5790	3.5791	1.3547	25.55	-0.40	0.750			
0.7463	47763.07	3.5760	3.5762	1.4021	25.56	-0.39	0.750			
0.7507	48043.83	3.5730	3.5726	1.4553	25.56	-0.39	0.750			
0.7551	48325.22	3.5700	3.5700	1.5024	25.57	-0.38	0.750			
0.7597	48620.37	3.5670	3.5672	1.5393	25.59	-0.36	0.750			
0.7645	48925.64	3.5640	3.5642	1.5642	25.60	-0.35	0.750			
0.7691	49225.12	3.5610	3.5608	1.5857	25.61	-0.34	0.750			
0.7741	49539.57	3.5580	3.5575	1.5857	25.62	-0.33	0.750			
0.7787	49837.47	3.5550	3.5553	1.6053	25.63	-0.32	0.750			
0.7837	50156.23	3.5520	3.5522	1.6117	25.64	-0.31	0.750			
0.7885	50464.83	3.5490	3.5490	1.6161	25.64	-0.31	0.750			
0.7933	50773.46	3.5460	3.5459	1.6250	25.65	-0.30	0.750			
0.7983	51090.63	3.5430	3.5430	1.6645	25.66	-0.29	0.750			
0.8032	51407.42	3.5400	3.5403	1.7128	25.67	-0.28	0.750			
0.8087	51758.32	3.5370	3.5370	1.6765	25.69	-0.26	0.750			
0.8140	52094.40	3.5340	3.5340	1.5947	25.71	-0.24	0.750			
0.8191	52421.82	3.5310	3.5315	1.4074	25.74	-0.21	0.750			
0.8233	52691.67	3.5280	3.5281	1.1762	25.77	-0.18	0.750			
0.8263	52882.27	3.5250	3.5251	0.9252	25.79	-0.16	0.750			
0.8283	53012.46	3.5220	3.5215	0.6733	25.80	-0.15	0.750			
0.8295	53088.96	3.5190	3.5187	0.4993	25.81	-0.14	0.750			
0.8307	53166.79	3.5160	3.5157	0.4151	25.81	-0.14	0.750			
0.8317	53229.03	3.5130	3.5130	0.3626	25.82	-0.13	0.750			
0.8327	53294.36	3.5100	3.5100	0.3410	25.83	-0.12	0.750			
0.8337	53356.75	3.5070	3.5069	0.3179	25.83	-0.12	0.750			
0.8346	53415.54	3.5040	3.5040	0.3056	25.84	-0.11	0.750			
0.8355	53472.52	3.5010	3.5011	0.2933	25.84	-0.11	0.750			
0.8364	53527.57	3.4980	3.4975	0.2837	25.85	-0.10	0.750			
0.8372	53580.32	3.4950	3.4950	0.2743	25.85	-0.10	0.750			
0.8380	53631.53	3.4920	3.4921	0.2679	25.86	-0.09	0.750			
0.8388	53681.88	3.4890	3.4889	0.2604	25.87	-0.08	0.750			
0.8396	53732.92	3.4860	3.4860	0.2581	25.87	-0.08	0.750			
0.8403	53780.95	3.4830	3.4829	0.2495	25.88	-0.07	0.750			
0.8411	53828.51	3.4800	3.4801	0.2429	25.89	-0.06	0.750			
0.8418	53874.68	3.4770	3.4769	0.2380	25.89	-0.06	0.750			
0.8425	53919.62	3.4740	3.4741	0.2314	25.90	-0.05	0.750			
0.8432	53963.18	3.4710	3.4709	0.2258	25.90	-0.05	0.750			
0.8438	54005.68	3.4680	3.4679	0.2199	25.91	-0.04	0.750			
0.8445	54047.68	3.4650	3.4650	0.2155	25.91	-0.04	0.750			
0.8451	54088.18	3.4620	3.4620	0.2102	25.92	-0.03	0.750			
0.8458	54128.42	3.4590	3.4590	0.2055	25.92	-0.03	0.750			
0.8464	54167.77	3.4560	3.4560	0.1998	25.93	-0.02	0.750			
0.8470	54204.92	3.4530	3.4531	0.1943	25.93	-0.02	0.750			
0.8475	54242.05	3.4500	3.4499	0.1889	25.94	-0.01	0.750			
0.8481	54277.92	3.4470	3.4470	0.1837	25.94	-0.01	0.750			
0.8486	54312.78	3.4440	3.4439	0.1782	25.95	-0.00	0.750			
0.8492	54346.45	3.4410	3.4412	0.1720	25.95	0.00	0.750			
0.8497	54378.85	3.4380	3.4379	0.1663	25.96	0.01	0.750			
0.8502	54410.33	3.4350	3.4351	0.1607	25.96	0.01	0.750			
0.8506	54440.69	3.4320	3.4320	0.1551	25.96	0.01	0.750			
0.8511	54469.52	3.4290	3.4291	0.1483	25.97	0.02	0.750			
0.8515	54497.87	3.4260	3.4259	0.1435	25.97	0.02	0.750			
0.8520	54524.83	3.4230	3.4231	0.1374	25.98	0.03	0.750			
0.8524	54550.66	3.4200	3.4200	0.1312	25.98	0.03	0.750			
0.8527	54575.41	3.4170	3.4170	0.1252	25.98	0.03	0.750			
0.8531	54598.95	3.4140	3.4141	0.1183	25.98	0.03	0.750			
0.8535	54621.00	3.4110	3.4109	0.1114	25.99	0.04	0.750			
0.8538	54643.42	3.4080	3.4078	0.1028	25.99	0.04	0.750			
0.8541	54662.54	3.4050	3.4048	0.0949	25.99	0.04	0.750			
0.8544	54679.79	3.4020	3.4021	0.0847	25.99	0.04	0.750			
0.8546	54695.76	3.3990	3.3991	0.0757	26.00	0.05	0.750			
0.8548	54709.24	3.3960	3.3965	0.0647	26.00	0.05	0.750			
0.8550	54721.62	3.3930	3.3935	0.0543	26.00	0.05	0.750			
0.8552	54730.91	3.3900	3.3910	0.0424	26.00	0.05	0.750			
0.8553	54737.91	3.3870	3.3882	0.0305	26.00	0.05	0.750			
0.8554	54742.64	3.3840	3.3860	0.0187	26.00	0.05	0.750			
0.8554	54745.08	3.3810	3.3842	0.0068	26.00	0.05	0.750			
