Ah_balance (normalized)	Ah_balance (mAh)	Voltage - fit (V)	Voltage -  interpolate (V)	dQ/dV (1/V)	Temperature (°C)	Temperature - diff (°C)	Current (C)	R_DC 0ms (mOhm)	R_DC 50ms (mOhm)	R_DC 50 ms PEC (mOhm)
0.0004	25.38	4.1640	4.1640	-0.1301	25.80	0.01	-0.750			
0.0009	56.98	4.1610	4.1610	-0.1864	25.80	0.01	-0.750			
0.0015	97.71	4.1580	4.1579	-0.2347	25.79	0.00	-0.750			
0.0023	147.60	4.1550	4.1550	-0.2819	25.79	0.00	-0.750			
0.0032	205.74	4.1520	4.1523	-0.3340	25.79	0.00	-0.750			
0.0043	274.46	4.1490	4.1490	-0.3836	25.79	-0.00	-0.750			
0.0055	354.55	4.1460	4.1459	-0.4278	25.78	-0.01	-0.750			
0.0069	441.77	4.1430	4.1430	-0.4695	25.78	-0.01	-0.750			
0.0084	537.86	4.1400	4.1401	-0.5119	25.78	-0.01	-0.750			
0.0100	640.72	4.1370	4.1371	-0.5451	25.77	-0.02	-0.750			
0.0117	749.07	4.1340	4.1339	-0.5754	25.77	-0.02	-0.750			
0.0135	861.63	4.1310	4.1310	-0.5987	25.77	-0.02	-0.750			
0.0153	980.38	4.1280	4.1280	-0.6239	25.76	-0.03	-0.750			
0.0172	1103.22	4.1250	4.1250	-0.6467	25.76	-0.03	-0.750			
0.0192	1230.40	4.1220	4.1219	-0.6658	25.75	-0.04	-0.750			
0.0213	1360.98	4.1190	4.1190	-0.6736	25.75	-0.04	-0.750			
0.0233	1491.92	4.1160	4.1160	-0.6804	25.74	-0.05	-0.750			
0.0254	1625.64	4.1130	4.1131	-0.6858	25.74	-0.05	-0.750			
0.0275	1757.63	4.1100	4.1097	-0.6880	25.73	-0.06	-0.750			
0.0295	1888.57	4.1070	4.1071	-0.6919	25.73	-0.06	-0.750			
0.0316	2019.48	4.1040	4.1040	-0.7052	25.73	-0.06	-0.750			
0.0337	2154.83	4.1010	4.1009	-0.7226	25.73	-0.06	-0.750			
0.0359	2296.73	4.0980	4.0979	-0.7331	25.72	-0.07	-0.750			
0.0382	2442.02	4.0950	4.0950	-0.7509	25.72	-0.07	-0.750			
0.0404	2588.24	4.0920	4.0923	-0.7589	25.72	-0.07	-0.750			
0.0427	2734.93	4.0890	4.0889	-0.7646	25.72	-0.07	-0.750			
0.0450	2881.92	4.0860	4.0860	-0.7642	25.72	-0.07	-0.750			
0.0473	3028.99	4.0830	4.0830	-0.7708	25.72	-0.07	-0.750			
0.0497	3179.31	4.0800	4.0799	-0.7785	25.72	-0.07	-0.750			
0.0520	3329.00	4.0770	4.0769	-0.7749	25.72	-0.07	-0.750			
0.0543	3477.52	4.0740	4.0740	-0.7747	25.72	-0.07	-0.750			
0.0566	3624.74	4.0710	4.0710	-0.7798	25.71	-0.08	-0.750			
0.0590	3774.18	4.0680	4.0680	-0.7823	25.71	-0.08	-0.750			
0.0613	3922.27	4.0650	4.0649	-0.7821	25.71	-0.08	-0.750			
0.0637	4076.58	4.0620	4.0621	-0.7916	25.70	-0.09	-0.750			
0.0661	4230.35	4.0590	4.0590	-0.7933	25.70	-0.09	-0.750			
0.0685	4381.84	4.0560	4.0560	-0.7984	25.70	-0.09	-0.750			
0.0708	4534.14	4.0530	4.0531	-0.7999	25.71	-0.08	-0.750			
0.0733	4688.20	4.0500	4.0499	-0.7985	25.71	-0.08	-0.750			
0.0757	4843.85	4.0470	4.0469	-0.8026	25.72	-0.07	-0.750			
0.0781	4998.33	4.0440	4.0441	-0.7995	25.72	-0.07	-0.750			
0.0805	5152.19	4.0410	4.0409	-0.8032	25.72	-0.07	-0.750			
0.0829	5305.41	4.0380	4.0381	-0.8069	25.72	-0.07	-0.750			
0.0853	5458.85	4.0350	4.0349	-0.8020	25.72	-0.07	-0.750			
0.0877	5614.50	4.0320	4.0320	-0.8070	25.72	-0.07	-0.750			
0.0902	5771.54	4.0290	4.0292	-0.8123	25.72	-0.07	-0.750			
0.0926	5926.93	4.0260	4.0259	-0.8118	25.72	-0.07	-0.750			
0.0951	6084.54	4.0230	4.0230	-0.8156	25.72	-0.07	-0.750			
0.0975	6239.94	4.0200	4.0199	-0.8136	25.73	-0.06	-0.750			
0.0999	6394.44	4.0170	4.0171	-0.8180	25.73	-0.06	-0.750			
0.1024	6555.69	4.0140	4.0140	-0.8227	25.73	-0.06	-0.750			
0.1049	6712.97	4.0110	4.0108	-0.8189	25.73	-0.06	-0.750			
0.1073	6870.15	4.0080	4.0081	-0.8209	25.74	-0.05	-0.750			
0.1098	7027.87	4.0050	4.0051	-0.8205	25.74	-0.05	-0.750			
0.1123	7184.55	4.0020	4.0019	-0.8206	25.74	-0.05	-0.750			
0.1147	7343.61	3.9990	3.9989	-0.8193	25.75	-0.04	-0.750			
0.1172	7499.46	3.9960	3.9961	-0.8203	25.75	-0.04	-0.750			
0.1197	7659.24	3.9930	3.9930	-0.8298	25.76	-0.03	-0.750			
0.1222	7818.31	3.9900	3.9900	-0.8291	25.76	-0.03	-0.750			
0.1246	7977.07	3.9870	3.9870	-0.8271	25.76	-0.03	-0.750			
0.1271	8136.50	3.9840	3.9838	-0.8303	25.77	-0.02	-0.750			
0.1296	8296.22	3.9810	3.9810	-0.8332	25.77	-0.02	-0.750			
0.1321	8456.40	3.9780	3.9780	-0.8384	25.78	-0.01	-0.750			
0.1346	8616.57	3.9750	3.9749	-0.8387	25.78	-0.01	-0.750			
0.1371	8776.08	3.9720	3.9721	-0.8426	25.78	-0.01	-0.750			
0.1397	8941.87	3.9690	3.9689	-0.8479	25.79	-0.00	-0.750			
0.1423	9106.04	3.9660	3.9660	-0.8505	25.79	0.00	-0.750			
0.1448	9269.10	3.9630	3.9630	-0.8543	25.80	0.01	-0.750			
0.1474	9432.26	3.9600	3.9599	-0.8556	25.80	0.01	-0.750			
0.1500	9597.30	3.9570	3.9569	-0.8517	25.80	0.01	-0.750			
0.1525	9762.01	3.9540	3.9539	-0.8553	25.81	0.02	-0.750			
0.1551	9924.65	3.9510	3.9510	-0.8572	25.81	0.02	-0.750			
0.1577	10090.33	3.9480	3.9480	-0.8611	25.81	0.02	-0.750			
0.1602	10253.83	3.9450	3.9449	-0.8628	25.81	0.02	-0.750			
0.1628	10418.57	3.9420	3.9419	-0.8628	25.81	0.02	-0.750			
0.1654	10588.25	3.9390	3.9392	-0.8662	25.81	0.02	-0.750			
0.1681	10755.58	3.9360	3.9360	-0.8699	25.81	0.02	-0.750			
0.1707	10922.71	3.9330	3.9330	-0.8715	25.82	0.03	-0.750			
0.1733	11090.07	3.9300	3.9299	-0.8707	25.82	0.03	-0.750			
0.1759	11254.73	3.9270	3.9271	-0.8715	25.83	0.04	-0.750			
0.1785	11423.92	3.9240	3.9241	-0.8734	25.83	0.04	-0.750			
0.1811	11591.23	3.9210	3.9209	-0.8818	25.83	0.04	-0.750			
0.1838	11762.07	3.9180	3.9180	-0.8854	25.84	0.05	-0.750			
0.1864	11930.94	3.9150	3.9150	-0.8863	25.84	0.05	-0.750			
0.1891	12103.21	3.9120	3.9119	-0.8929	25.85	0.06	-0.750			
0.1918	12275.41	3.9090	3.9091	-0.8930	25.85	0.06	-0.750			
0.1945	12445.39	3.9060	3.9060	-0.9013	25.86	0.07	-0.750			
0.1972	12620.26	3.9030	3.9030	-0.9065	25.86	0.07	-0.750			
0.1999	12795.35	3.9000	3.8999	-0.8971	25.86	0.07	-0.750			
0.2026	12969.36	3.8970	3.8972	-0.8971	25.87	0.08	-0.750			
0.2053	13140.17	3.8940	3.8940	-0.8994	25.87	0.08	-0.750			
0.2080	13311.81	3.8910	3.8909	-0.8983	25.88	0.09	-0.750			
0.2107	13482.50	3.8880	3.8879	-0.8967	25.88	0.09	-0.750			
0.2133	13653.45	3.8850	3.8850	-0.8961	25.89	0.10	-0.750			
0.2161	13829.72	3.8820	3.8822	-0.9051	25.89	0.10	-0.750			
0.2188	14004.83	3.8790	3.8790	-0.9139	25.89	0.10	-0.750			
0.2216	14179.97	3.8760	3.8760	-0.9135	25.89	0.10	-0.750			
0.2243	14356.20	3.8730	3.8729	-0.9113	25.90	0.11	-0.750			
0.2271	14532.30	3.8700	3.8700	-0.9131	25.90	0.11	-0.750			
0.2298	14707.32	3.8670	3.8669	-0.9153	25.90	0.11	-0.750			
0.2326	14883.99	3.8640	3.8640	-0.9233	25.91	0.12	-0.750			
0.2353	15061.82	3.8610	3.8608	-0.9161	25.92	0.13	-0.750			
0.2380	15235.01	3.8580	3.8580	-0.9162	25.92	0.13	-0.750			
0.2408	15413.51	3.8550	3.8554	-0.9221	25.93	0.14	-0.750			
0.2436	15590.43	3.8520	3.8519	-0.9300	25.93	0.14	-0.750			
0.2464	15771.31	3.8490	3.8488	-0.9307	25.93	0.14	-0.750			
0.2492	15948.16	3.8460	3.8459	-0.9240	25.94	0.15	-0.750			
0.2520	16128.81	3.8430	3.8431	-0.9332	25.94	0.15	-0.750			
0.2548	16308.24	3.8400	3.8399	-0.9262	25.94	0.15	-0.750			
0.2575	16482.34	3.8370	3.8370	-0.9295	25.94	0.15	-0.750			
0.2603	16660.80	3.8340	3.8339	-0.9306	25.95	0.16	-0.750			
0.2631	16836.20	3.8310	3.8310	-0.9314	25.95	0.16	-0.750			
0.2659	17020.03	3.8280	3.8282	-0.9443	25.95	0.16	-0.750			
0.2688	17202.56	3.8250	3.8248	-0.9526	25.95	0.16	-0.750			
0.2717	17387.63	3.8220	3.8220	-0.9543	25.96	0.17	-0.750			
0.2746	17572.42	3.8190	3.8189	-0.9495	25.96	0.17	-0.750			
0.2774	17755.15	3.8160	3.8161	-0.9476	25.97	0.18	-0.750			
0.2803	17936.13	3.8130	3.8128	-0.9526	25.97	0.18	-0.750			
0.2831	18115.41	3.8100	3.8099	-0.9456	25.97	0.18	-0.750			
0.2859	18297.05	3.8070	3.8069	-0.9430	25.98	0.19	-0.750			
0.2887	18477.13	3.8040	3.8040	-0.9357	25.98	0.19	-0.750			
0.2916	18660.91	3.8010	3.8011	-0.9473	25.98	0.19	-0.750			
0.2944	18842.27	3.7980	3.7981	-0.9519	25.99	0.20	-0.750			
0.2972	19023.77	3.7950	3.7950	-0.9508	25.99	0.20	-0.750			
0.3001	19204.55	3.7920	3.7918	-0.9528	25.99	0.20	-0.750			
0.3030	19389.44	3.7890	3.7892	-0.9660	26.00	0.21	-0.750			
0.3059	19578.76	3.7860	3.7859	-0.9677	26.01	0.22	-0.750			
0.3088	19763.16	3.7830	3.7829	-0.9677	26.01	0.22	-0.750			
0.3117	19949.63	3.7800	3.7801	-0.9699	26.02	0.23	-0.750			
0.3146	20133.37	3.7770	3.7767	-0.9673	26.03	0.24	-0.750			
0.3175	20320.50	3.7740	3.7738	-0.9715	26.03	0.24	-0.750			
0.3204	20507.42	3.7710	3.7711	-0.9776	26.03	0.24	-0.750			
0.3234	20695.74	3.7680	3.7679	-0.9790	26.04	0.25	-0.750			
0.3263	20884.32	3.7650	3.7650	-0.9779	26.04	0.25	-0.750			
0.3293	21073.54	3.7620	3.7621	-0.9796	26.04	0.25	-0.750			
0.3322	21262.00	3.7590	3.7590	-0.9867	26.04	0.25	-0.750			
0.3352	21452.76	3.7560	3.7559	-0.9870	26.05	0.26	-0.750			
0.3381	21639.22	3.7530	3.7530	-0.9866	26.05	0.26	-0.750			
0.3411	21830.19	3.7500	3.7501	-1.0018	26.05	0.26	-0.750			
0.3441	22024.26	3.7470	3.7470	-1.0078	26.06	0.27	-0.750			
0.3472	22217.95	3.7440	3.7439	-1.0133	26.06	0.27	-0.750			
0.3502	22413.51	3.7410	3.7410	-1.0161	26.07	0.28	-0.750			
0.3532	22607.88	3.7380	3.7383	-1.0296	26.07	0.28	-0.750			
0.3564	22808.55	3.7350	3.7350	-1.0320	26.08	0.29	-0.750			
0.3595	23006.96	3.7320	3.7319	-1.0288	26.08	0.29	-0.750			
0.3626	23204.20	3.7290	3.7290	-1.0302	26.08	0.29	-0.750			
0.3657	23401.67	3.7260	3.7264	-1.0348	26.09	0.30	-0.750			
0.3687	23598.22	3.7230	3.7229	-1.0411	26.09	0.30	-0.750			
0.3718	23797.51	3.7200	3.7200	-1.0532	26.09	0.30	-0.750			
0.3750	23998.50	3.7170	3.7167	-1.0683	26.09	0.30	-0.750			
0.3783	24208.03	3.7140	3.7146	-1.0934	26.09	0.30	-0.750			
0.3816	24420.15	3.7110	3.7111	-1.1075	26.10	0.31	-0.750			
0.3849	24636.01	3.7080	3.7079	-1.1223	26.10	0.31	-0.750			
0.3883	24852.99	3.7050	3.7049	-1.1372	26.11	0.32	-0.750			
0.3917	25068.91	3.7020	3.7021	-1.1494	26.11	0.32	-0.750			
0.3952	25292.24	3.6990	3.6989	-1.1635	26.11	0.32	-0.750			
0.3987	25518.51	3.6960	3.6960	-1.1776	26.11	0.32	-0.750			
0.4023	25746.71	3.6930	3.6929	-1.1893	26.11	0.32	-0.750			
0.4059	25976.49	3.6900	3.6899	-1.2125	26.11	0.32	-0.750			
0.4095	26209.49	3.6870	3.6869	-1.2313	26.10	0.31	-0.750			
0.4132	26442.12	3.6840	3.6840	-1.2580	26.10	0.31	-0.750			
0.4170	26686.57	3.6810	3.6811	-1.2787	26.10	0.31	-0.750			
0.4210	26941.07	3.6780	3.6779	-1.2966	26.10	0.31	-0.750			
0.4249	27191.97	3.6750	3.6748	-1.3056	26.09	0.30	-0.750			
0.4288	27441.99	3.6720	3.6724	-1.3383	26.09	0.30	-0.750			
0.4329	27703.35	3.6690	3.6688	-1.3848	26.09	0.30	-0.750			
0.4370	27965.97	3.6660	3.6658	-1.4234	26.09	0.30	-0.750			
0.4414	28249.42	3.6630	3.6632	-1.4343	26.09	0.30	-0.750			
0.4459	28537.50	3.6600	3.6602	-1.4674	26.08	0.29	-0.750			
0.4503	28821.74	3.6570	3.6569	-1.5056	26.07	0.28	-0.750			
0.4548	29110.23	3.6540	3.6538	-1.5259	26.07	0.28	-0.750			
0.4594	29399.99	3.6510	3.6507	-1.5648	26.07	0.28	-0.750			
0.4641	29699.70	3.6480	3.6482	-1.6090	26.06	0.27	-0.750			
0.4689	30011.23	3.6450	3.6449	-1.6572	26.06	0.27	-0.750			
0.4741	30344.81	3.6420	3.6418	-1.7243	26.05	0.26	-0.750			
0.4794	30683.01	3.6390	3.6389	-1.7517	26.05	0.26	-0.750			
0.4847	31023.80	3.6360	3.6360	-1.7792	26.04	0.25	-0.750	0.448	0.530	
0.4902	31372.05	3.6330	3.6330	-1.8230	26.03	0.24	-0.750			
0.4957	31723.39	3.6300	3.6302	-1.8461	26.03	0.24	-0.750			
0.5012	32075.83	3.6270	3.6269	-1.8908	26.03	0.24	-0.750			
0.5070	32447.91	3.6240	3.6239	-1.9359	26.02	0.23	-0.750			
0.5129	32823.72	3.6210	3.6209	-1.9664	26.01	0.22	-0.750			
0.5188	33205.35	3.6180	3.6180	-2.0150	26.01	0.22	-0.750			
0.5250	33598.02	3.6150	3.6146	-2.0423	26.01	0.22	-0.750			
0.5311	33993.41	3.6120	3.6123	-2.0677	26.01	0.22	-0.750			
0.5374	34396.61	3.6090	3.6091	-2.0945	26.01	0.22	-0.750			
0.5438	34801.89	3.6060	3.6059	-2.1156	26.01	0.22	-0.750			
0.5501	35207.97	3.6030	3.6031	-2.1261	25.99	0.20	-0.750			
0.5566	35623.47	3.6000	3.5999	-2.1742	25.99	0.20	-0.750			
0.5631	36037.22	3.5970	3.5970	-2.1954	25.99	0.20	-0.750			
0.5698	36465.21	3.5940	3.5939	-2.2188	25.98	0.19	-0.750			
0.5765	36898.94	3.5910	3.5909	-2.2543	25.97	0.18	-0.750			
0.5833	37328.13	3.5880	3.5880	-2.3071	25.97	0.18	-0.750			
0.5903	37778.30	3.5850	3.5851	-2.3565	25.97	0.18	-0.750			
0.5974	38234.88	3.5820	3.5822	-2.3981	25.96	0.17	-0.750			
0.6047	38701.95	3.5790	3.5791	-2.4184	25.95	0.16	-0.750			
0.6120	39170.36	3.5760	3.5760	-2.4515	25.95	0.16	-0.750			
0.6195	39647.39	3.5730	3.5730	-2.4933	25.95	0.16	-0.750			
0.6270	40129.87	3.5700	3.5700	-2.4682	25.95	0.16	-0.750			
0.6345	40606.38	3.5670	3.5668	-2.4744	25.95	0.16	-0.750			
0.6419	41081.44	3.5640	3.5642	-2.4746	25.95	0.16	-0.750			
0.6494	41561.88	3.5610	3.5609	-2.4648	25.95	0.16	-0.750			
0.6567	42030.30	3.5580	3.5580	-2.4711	25.95	0.16	-0.750			
0.6640	42497.94	3.5550	3.5550	-2.4469	25.95	0.16	-0.750			
0.6716	42980.69	3.5520	3.5523	-2.4597	25.95	0.16	-0.750			
0.6789	43452.59	3.5490	3.5492	-2.4311	25.95	0.16	-0.750			
0.6862	43914.61	3.5460	3.5459	-2.4039	25.95	0.16	-0.750			
0.6933	44371.88	3.5430	3.5432	-2.3715	25.95	0.16	-0.750			
0.7006	44835.93	3.5400	3.5398	-2.3336	25.96	0.17	-0.750			
0.7074	45272.48	3.5370	3.5371	-2.2650	25.96	0.17	-0.750			
0.7142	45707.44	3.5340	3.5339	-2.2145	25.97	0.18	-0.750			
0.7208	46130.21	3.5310	3.5311	-2.1763	25.98	0.19	-0.750			
0.7272	46538.81	3.5280	3.5279	-2.1050	25.99	0.20	-0.750			
0.7333	46933.53	3.5250	3.5251	-2.0546	26.00	0.21	-0.750			
0.7395	47326.92	3.5220	3.5219	-1.9982	26.01	0.22	-0.750			
0.7455	47710.33	3.5190	3.5191	-1.9546	26.02	0.23	-0.750			
0.7512	48078.62	3.5160	3.5159	-1.8859	26.03	0.24	-0.750			
0.7568	48435.05	3.5130	3.5131	-1.8146	26.04	0.25	-0.750			
0.7622	48778.75	3.5100	3.5100	-1.7474	26.06	0.27	-0.750			
0.7673	49105.80	3.5070	3.5070	-1.7006	26.07	0.28	-0.750			
0.7723	49428.41	3.5040	3.5041	-1.6293	26.08	0.29	-0.750			
0.7772	49738.84	3.5010	3.5011	-1.5755	26.09	0.30	-0.750			
0.7817	50031.47	3.4980	3.4980	-1.5114	26.11	0.32	-0.750			
0.7862	50316.78	3.4950	3.4949	-1.4641	26.13	0.34	-0.750			
0.7905	50591.34	3.4920	3.4920	-1.4251	26.15	0.36	-0.750			
0.7947	50859.51	3.4890	3.4889	-1.3683	26.16	0.37	-0.750			
0.7987	51115.95	3.4860	3.4859	-1.3204	26.18	0.39	-0.750			
0.8027	51371.95	3.4830	3.4833	-1.2798	26.19	0.40	-0.750			
0.8065	51613.28	3.4800	3.4799	-1.2383	26.20	0.41	-0.750			
0.8101	51846.01	3.4770	3.4769	-1.1896	26.21	0.42	-0.750			
0.8136	52069.37	3.4740	3.4739	-1.1428	26.22	0.43	-0.750			
0.8169	52283.86	3.4710	3.4710	-1.1083	26.24	0.45	-0.750			
0.8202	52491.55	3.4680	3.4680	-1.0710	26.25	0.46	-0.750			
0.8233	52689.89	3.4650	3.4650	-1.0361	26.26	0.47	-0.750			
0.8263	52880.31	3.4620	3.4619	-1.0097	26.27	0.48	-0.750			
0.8293	53072.87	3.4590	3.4590	-1.0112	26.28	0.49	-0.750			
0.8322	53263.83	3.4560	3.4560	-1.0017	26.30	0.51	-0.750			
0.8352	53454.09	3.4530	3.4530	-1.0149	26.31	0.52	-0.750			
0.8382	53647.62	3.4500	3.4500	-1.0302	26.32	0.53	-0.750			
0.8413	53845.78	3.4470	3.4471	-1.0680	26.33	0.54	-0.750			
0.8445	54049.35	3.4440	3.4440	-1.1045	26.34	0.55	-0.750			
0.8479	54265.83	3.4410	3.4410	-1.1489	26.35	0.56	-0.750			
0.8514	54492.55	3.4380	3.4380	-1.1887	26.36	0.57	-0.750			
0.8552	54729.93	3.4350	3.4349	-1.2252	26.36	0.57	-0.750			
0.8589	54971.10	3.4320	3.4320	-1.2256	26.37	0.58	-0.750			
0.8627	55214.61	3.4290	3.4290	-1.2200	26.38	0.59	-0.750			
0.8664	55448.98	3.4260	3.4262	-1.1957	26.39	0.60	-0.750			
0.8700	55677.91	3.4230	3.4230	-1.1590	26.40	0.61	-0.750			
0.8734	55896.89	3.4200	3.4200	-1.1181	26.41	0.62	-0.750			
0.8767	56106.89	3.4170	3.4170	-1.0727	26.42	0.63	-0.750			
0.8798	56308.65	3.4140	3.4139	-1.0328	26.42	0.63	-0.750			
0.8829	56503.11	3.4110	3.4110	-0.9951	26.43	0.64	-0.750			
0.8858	56689.21	3.4080	3.4080	-0.9599	26.44	0.65	-0.750			
0.8886	56868.35	3.4050	3.4049	-0.9226	26.44	0.65	-0.750			
0.8913	57044.21	3.4020	3.4020	-0.8909	26.45	0.66	-0.750			
0.8939	57211.36	3.3990	3.3990	-0.8570	26.46	0.67	-0.750			
0.8965	57373.71	3.3960	3.3960	-0.8280	26.46	0.67	-0.750			
0.8989	57528.64	3.3930	3.3930	-0.7975	26.47	0.68	-0.750			
0.9012	57679.58	3.3900	3.3899	-0.7663	26.48	0.69	-0.750			
0.9035	57822.02	3.3870	3.3872	-0.7413	26.48	0.69	-0.750			
0.9056	57960.61	3.3840	3.3840	-0.7184	26.49	0.70	-0.750			
0.9078	58096.05	3.3810	3.3810	-0.6965	26.49	0.70	-0.750			
0.9098	58227.29	3.3780	3.3779	-0.6717	26.50	0.71	-0.750			
0.9118	58357.48	3.3750	3.3751	-0.6491	26.51	0.72	-0.750			
0.9137	58478.83	3.3720	3.3720	-0.6192	26.51	0.72	-0.750			
0.9156	58596.46	3.3690	3.3692	-0.5931	26.52	0.73	-0.750			
0.9173	58705.96	3.3660	3.3659	-0.5604	26.53	0.74	-0.750			
0.9189	58808.46	3.3630	3.3630	-0.5329	26.53	0.74	-0.750			
0.9204	58908.13	3.3600	3.3600	-0.5101	26.54	0.75	-0.750			
0.9219	59003.16	3.3570	3.3570	-0.4910	26.55	0.76	-0.750			
0.9234	59096.05	3.3540	3.3540	-0.4696	26.55	0.76	-0.750			
0.9247	59183.55	3.3510	3.3510	-0.4475	26.56	0.77	-0.750			
0.9261	59267.67	3.3480	3.3481	-0.4294	26.56	0.77	-0.750			
0.9273	59347.99	3.3450	3.3449	-0.4101	26.57	0.78	-0.750			
0.9285	59424.29	3.3420	3.3420	-0.3918	26.57	0.78	-0.750			
0.9297	59497.96	3.3390	3.3390	-0.3752	26.58	0.79	-0.750			
0.9307	59567.41	3.3360	3.3360	-0.3600	26.58	0.79	-0.750			
0.9318	59635.93	3.3330	3.3329	-0.3466	26.58	0.79	-0.750			
0.9328	59700.55	3.3300	3.3300	-0.3323	26.59	0.80	-0.750			
0.9338	59762.84	3.3270	3.3270	-0.3183	26.59	0.80	-0.750			
0.9347	59822.79	3.3240	3.3240	-0.3051	26.60	0.81	-0.750			
0.9356	59880.06	3.3210	3.3209	-0.2920	26.60	0.81	-0.750			
0.9365	59934.79	3.3180	3.3180	-0.2785	26.60	0.81	-0.750			
0.9373	59986.58	3.3150	3.3150	-0.2666	26.61	0.82	-0.750			
0.9381	60036.43	3.3120	3.3120	-0.2567	26.61	0.82	-0.750			
0.9388	60084.63	3.3090	3.3089	-0.2455	26.61	0.82	-0.750			
0.9395	60130.07	3.3060	3.3060	-0.2360	26.62	0.83	-0.750			
0.9402	60174.39	3.3030	3.3030	-0.2269	26.62	0.83	-0.750			
0.9409	60217.19	3.3000	3.3001	-0.2190	26.62	0.83	-0.750			
0.9415	60258.10	3.2970	3.2969	-0.2112	26.63	0.84	-0.750			
0.9422	60297.96	3.2940	3.2939	-0.2035	26.63	0.84	-0.750			
0.9427	60335.98	3.2910	3.2910	-0.1958	26.64	0.85	-0.750			
0.9433	60372.53	3.2880	3.2880	-0.1892	26.64	0.85	-0.750			
0.9439	60408.61	3.2850	3.2850	-0.1840	26.65	0.86	-0.750			
0.9444	60442.86	3.2820	3.2820	-0.1768	26.65	0.86	-0.750			
0.9449	60476.42	3.2790	3.2790	-0.1701	26.66	0.87	-0.750			
0.9454	60508.17	3.2760	3.2761	-0.1655	26.66	0.87	-0.750			
0.9459	60539.15	3.2730	3.2731	-0.1602	26.66	0.87	-0.750			
0.9464	60569.54	3.2700	3.2700	-0.1559	26.67	0.88	-0.750			
0.9469	60599.03	3.2670	3.2667	-0.1515	26.67	0.88	-0.750			
0.9473	60627.52	3.2640	3.2641	-0.1464	26.68	0.89	-0.750			
0.9477	60655.38	3.2610	3.2608	-0.1423	26.68	0.89	-0.750			
0.9482	60682.27	3.2580	3.2582	-0.1378	26.68	0.89	-0.750			
0.9486	60708.35	3.2550	3.2551	-0.1347	26.69	0.90	-0.750			
0.9490	60733.22	3.2520	3.2520	-0.1299	26.69	0.90	-0.750			
0.9493	60757.75	3.2490	3.2490	-0.1265	26.69	0.90	-0.750			
0.9497	60781.76	3.2460	3.2459	-0.1236	26.70	0.91	-0.750			
0.9501	60804.95	3.2430	3.2431	-0.1209	26.70	0.91	-0.750			
0.9504	60828.00	3.2400	3.2401	-0.1185	26.70	0.91	-0.750			
0.9508	60850.51	3.2370	3.2368	-0.1159	26.71	0.92	-0.750			
0.9511	60872.54	3.2340	3.2340	-0.1133	26.71	0.92	-0.750			
0.9515	60893.98	3.2310	3.2311	-0.1111	26.71	0.92	-0.750			
0.9518	60914.87	3.2280	3.2280	-0.1085	26.71	0.92	-0.750			
0.9521	60935.49	3.2250	3.2251	-0.1064	26.72	0.93	-0.750			
0.9524	60955.80	3.2220	3.2219	-0.1043	26.72	0.93	-0.750			
0.9527	60975.62	3.2190	3.2191	-0.1021	26.72	0.93	-0.750			
0.9530	60994.90	3.2160	3.2158	-0.0998	26.72	0.93	-0.750			
0.9533	61013.88	3.2130	3.2132	-0.0977	26.72	0.93	-0.750			
0.9536	61032.52	3.2100	3.2100	-0.0956	26.73	0.94	-0.750			
0.9539	61050.60	3.2070	3.2071	-0.0938	26.73	0.94	-0.750			
0.9542	61068.30	3.2040	3.2039	-0.0917	26.73	0.94	-0.750			
0.9545	61085.57	3.2010	3.2010	-0.0898	26.73	0.94	-0.750			
0.9547	61102.67	3.1980	3.1980	-0.0883	26.74	0.95	-0.750			
0.9550	61119.45	3.1950	3.1950	-0.0868	26.74	0.95	-0.750			
0.9552	61135.98	3.1920	3.1920	-0.0854	26.74	0.95	-0.750			
0.9555	61152.26	3.1890	3.1891	-0.0840	26.74	0.95	-0.750			
0.9558	61168.25	3.1860	3.1859	-0.0825	26.75	0.96	-0.750			
0.9560	61183.96	3.1830	3.1830	-0.0810	26.75	0.96	-0.750			
0.9562	61199.37	3.1800	3.1800	-0.0796	26.75	0.96	-0.750			
0.9565	61214.42	3.1770	3.1771	-0.0786	26.75	0.96	-0.750			
0.9567	61229.28	3.1740	3.1740	-0.0773	26.76	0.97	-0.750			
0.9569	61243.99	3.1710	3.1709	-0.0763	26.76	0.97	-0.750			
0.9572	61258.55	3.1680	3.1681	-0.0754	26.76	0.97	-0.750			
0.9574	61272.81	3.1650	3.1652	-0.0743	26.76	0.97	-0.750			
0.9576	61287.14	3.1620	3.1620	-0.0729	26.77	0.98	-0.750			
0.9578	61301.23	3.1590	3.1588	-0.0721	26.77	0.98	-0.750			
0.9580	61314.94	3.1560	3.1559	-0.0707	26.77	0.98	-0.750			
0.9583	61328.23	3.1530	3.1531	-0.0700	26.77	0.98	-0.750			
0.9585	61341.43	3.1500	3.1502	-0.0688	26.78	0.99	-0.750			
0.9587	61354.57	3.1470	3.1470	-0.0680	26.78	0.99	-0.750			
0.9589	61367.54	3.1440	3.1439	-0.0671	26.78	0.99	-0.750			
0.9591	61380.16	3.1410	3.1410	-0.0661	26.78	0.99	-0.750			
0.9593	61392.86	3.1380	3.1380	-0.0653	26.78	0.99	-0.750			
0.9595	61405.48	3.1350	3.1351	-0.0649	26.79	1.00	-0.750			
0.9597	61417.84	3.1320	3.1320	-0.0639	26.79	1.00	-0.750			
0.9598	61429.94	3.1290	3.1290	-0.0631	26.79	1.00	-0.750			
0.9600	61441.87	3.1260	3.1260	-0.0621	26.79	1.00	-0.750			
0.9602	61453.72	3.1230	3.1231	-0.0614	26.79	1.00	-0.750			
0.9604	61465.49	3.1200	3.1199	-0.0606	26.80	1.01	-0.750			
0.9606	61477.09	3.1170	3.1170	-0.0599	26.80	1.01	-0.750			
0.9608	61488.50	3.1140	3.1139	-0.0591	26.80	1.01	-0.750			
0.9609	61499.76	3.1110	3.1111	-0.0582	26.80	1.01	-0.750			
0.9611	61510.74	3.1080	3.1081	-0.0577	26.80	1.01	-0.750			
0.9613	61521.76	3.1050	3.1050	-0.0571	26.80	1.01	-0.750			
0.9614	61532.68	3.1020	3.1020	-0.0566	26.81	1.02	-0.750			
0.9616	61543.38	3.0990	3.0990	-0.0559	26.81	1.02	-0.750			
0.9618	61554.07	3.0960	3.0959	-0.0554	26.81	1.02	-0.750			
0.9619	61564.67	3.0930	3.0930	-0.0550	26.81	1.02	-0.750			
0.9621	61575.31	3.0900	3.0900	-0.0547	26.81	1.02	-0.750			
0.9623	61585.77	3.0870	3.0870	-0.0541	26.82	1.03	-0.750			
0.9624	61596.09	3.0840	3.0841	-0.0534	26.82	1.03	-0.750			
0.9626	61606.29	3.0810	3.0810	-0.0528	26.82	1.03	-0.750			
0.9628	61616.38	3.0780	3.0780	-0.0522	26.82	1.03	-0.750			
0.9629	61626.29	3.0750	3.0750	-0.0517	26.82	1.03	-0.750			
0.9631	61636.16	3.0720	3.0721	-0.0511	26.82	1.03	-0.750			
0.9632	61645.85	3.0690	3.0689	-0.0505	26.83	1.04	-0.750			
0.9634	61655.50	3.0660	3.0661	-0.0500	26.83	1.04	-0.750			
0.9635	61665.03	3.0630	3.0629	-0.0496	26.83	1.04	-0.750			
0.9637	61674.50	3.0600	3.0599	-0.0491	26.83	1.04	-0.750			
0.9638	61683.86	3.0570	3.0570	-0.0486	26.83	1.04	-0.750			
0.9640	61693.15	3.0540	3.0541	-0.0482	26.84	1.05	-0.750			
0.9641	61702.33	3.0510	3.0511	-0.0478	26.84	1.05	-0.750			
0.9642	61711.48	3.0480	3.0480	-0.0474	26.84	1.05	-0.750			
0.9644	61720.51	3.0450	3.0451	-0.0470	26.84	1.05	-0.750			
0.9645	61729.50	3.0420	3.0420	-0.0467	26.84	1.05	-0.750			
0.9647	61738.45	3.0390	3.0390	-0.0462	26.85	1.06	-0.750			
0.9648	61747.29	3.0360	3.0359	-0.0459	26.85	1.06	-0.750			
0.9649	61756.09	3.0330	3.0330	-0.0455	26.85	1.06	-0.750			
0.9651	61764.79	3.0300	3.0301	-0.0451	26.85	1.06	-0.750			
0.9652	61773.51	3.0270	3.0270	-0.0444	26.85	1.06	-0.750			
0.9653	61781.99	3.0240	3.0239	-0.0439	26.86	1.07	-0.750			
0.9655	61790.48	3.0210	3.0211	-0.0435	26.86	1.07	-0.750			
0.9656	61798.77	3.0180	3.0179	-0.0428	26.86	1.07	-0.750			
0.9657	61806.92	3.0150	3.0151	-0.0421	26.86	1.07	-0.750			
0.9659	61814.94	3.0120	3.0121	-0.0414	26.86	1.07	-0.750			
0.9660	61822.82	3.0090	3.0088	-0.0407	26.86	1.07	-0.751			
0.9661	61830.57	3.0060	3.0060	-0.0400	26.87	1.08	-0.751			
