Ah_balance (normalized)	Ah_balance (mAh)	Voltage - fit (V)	Voltage -  interpolate (V)	dQ/dV (1/V)	Temperature (°C)	Temperature - diff (°C)	Current (C)	R_DC 0ms (mOhm)	R_DC 50ms (mOhm)	R_DC 50 ms PEC (mOhm)
0.0511	3273.43	4.1990	4.1990	0.7858	26.54	0.57	0.750			
0.0535	3423.12	4.1960	4.1959	0.7759	26.54	0.57	0.750			
0.0558	3571.21	4.1930	4.1930	0.7726	26.54	0.57	0.750			
0.0581	3719.25	4.1900	4.1902	0.7716	26.54	0.57	0.750			
0.0604	3868.51	4.1870	4.1868	0.7702	26.54	0.57	0.750			
0.0628	4016.08	4.1840	4.1840	0.7671	26.54	0.57	0.750			
0.0650	4160.83	4.1810	4.1810	0.7657	26.54	0.57	0.750			
0.0673	4308.88	4.1780	4.1781	0.7706	26.54	0.57	0.750			
0.0696	4457.58	4.1750	4.1750	0.7700	26.54	0.57	0.750			
0.0720	4605.23	4.1720	4.1720	0.7694	26.54	0.57	0.750			
0.0743	4753.31	4.1690	4.1690	0.7698	26.54	0.57	0.750			
0.0766	4901.19	4.1660	4.1660	0.7712	26.54	0.57	0.750			
0.0789	5050.08	4.1630	4.1629	0.7765	26.54	0.57	0.750			
0.0812	5196.56	4.1600	4.1598	0.7740	26.54	0.57	0.750			
0.0835	5347.11	4.1570	4.1571	0.7758	26.54	0.57	0.750			
0.0859	5498.12	4.1540	4.1540	0.7764	26.53	0.56	0.750			
0.0882	5646.13	4.1510	4.1510	0.7790	26.53	0.56	0.750			
0.0906	5795.24	4.1480	4.1480	0.7830	26.53	0.56	0.750			
0.0929	5943.94	4.1450	4.1450	0.7835	26.52	0.55	0.750			
0.0952	6094.99	4.1420	4.1419	0.7860	26.52	0.55	0.750			
0.0976	6248.96	4.1390	4.1390	0.7887	26.52	0.55	0.750			
0.1000	6401.04	4.1360	4.1361	0.7907	26.52	0.55	0.750			
0.1024	6552.58	4.1330	4.1330	0.7941	26.52	0.55	0.750			
0.1047	6703.38	4.1300	4.1300	0.7925	26.52	0.55	0.750			
0.1071	6854.46	4.1270	4.1268	0.7928	26.52	0.55	0.750			
0.1095	7008.05	4.1240	4.1240	0.7953	26.52	0.55	0.750			
0.1119	7163.21	4.1210	4.1211	0.7937	26.52	0.55	0.750			
0.1143	7314.99	4.1180	4.1180	0.7907	26.52	0.55	0.750			
0.1167	7465.86	4.1150	4.1151	0.7890	26.52	0.55	0.750			
0.1190	7616.47	4.1120	4.1119	0.7908	26.52	0.55	0.750			
0.1213	7765.93	4.1090	4.1090	0.7961	26.52	0.55	0.750			
0.1238	7920.68	4.1060	4.1060	0.7962	26.52	0.55	0.750			
0.1262	8074.94	4.1030	4.1030	0.8032	26.52	0.55	0.750			
0.1286	8229.59	4.1000	4.1000	0.8070	26.52	0.55	0.750			
0.1310	8384.94	4.0970	4.0971	0.8044	26.52	0.55	0.750			
0.1334	8538.87	4.0940	4.0940	0.8076	26.52	0.55	0.750			
0.1359	8694.84	4.0910	4.0910	0.8024	26.52	0.55	0.750			
0.1382	8847.71	4.0880	4.0881	0.8078	26.52	0.55	0.750			
0.1407	9003.99	4.0850	4.0850	0.8127	26.52	0.55	0.750			
0.1431	9157.59	4.0820	4.0821	0.8119	26.52	0.55	0.750			
0.1455	9314.25	4.0790	4.0790	0.8179	26.52	0.55	0.750			
0.1480	9474.56	4.0760	4.0760	0.8188	26.52	0.55	0.750			
0.1505	9631.09	4.0730	4.0730	0.8172	26.52	0.55	0.750			
0.1529	9787.48	4.0700	4.0701	0.8276	26.52	0.55	0.750			
0.1554	9944.35	4.0670	4.0671	0.8240	26.52	0.55	0.750			
0.1579	10104.14	4.0640	4.0640	0.8326	26.52	0.55	0.750			
0.1604	10265.83	4.0610	4.0610	0.8283	26.52	0.55	0.750			
0.1629	10425.54	4.0580	4.0581	0.8298	26.52	0.55	0.750			
0.1654	10586.39	4.0550	4.0551	0.8396	26.52	0.55	0.750			
0.1679	10745.49	4.0520	4.0520	0.8339	26.52	0.55	0.750			
0.1704	10903.81	4.0490	4.0490	0.8348	26.52	0.55	0.750			
0.1729	11066.83	4.0460	4.0461	0.8341	26.53	0.56	0.750			
0.1754	11225.66	4.0430	4.0430	0.8398	26.53	0.56	0.750			
0.1780	11390.25	4.0400	4.0400	0.8507	26.53	0.56	0.750			
0.1805	11550.49	4.0370	4.0371	0.8502	26.54	0.57	0.750			
0.1830	11713.77	4.0340	4.0341	0.8543	26.54	0.57	0.750			
0.1856	11880.91	4.0310	4.0310	0.8587	26.54	0.57	0.750			
0.1882	12046.03	4.0280	4.0280	0.8602	26.54	0.57	0.750			
0.1908	12213.85	4.0250	4.0250	0.8655	26.54	0.57	0.750			
0.1934	12377.24	4.0220	4.0220	0.8609	26.54	0.57	0.750			
0.1960	12542.49	4.0190	4.0189	0.8646	26.54	0.57	0.750			
0.1986	12708.17	4.0160	4.0160	0.8643	26.54	0.57	0.750			
0.2012	12874.61	4.0130	4.0130	0.8718	26.54	0.57	0.750			
0.2038	13044.25	4.0100	4.0100	0.8766	26.54	0.57	0.750			
0.2064	13211.29	4.0070	4.0069	0.8793	26.54	0.57	0.750			
0.2091	13380.20	4.0040	4.0040	0.8828	26.54	0.57	0.750			
0.2117	13550.83	4.0010	4.0010	0.8861	26.54	0.57	0.750			
0.2144	13721.41	3.9980	3.9980	0.8884	26.55	0.58	0.750			
0.2171	13892.81	3.9950	3.9951	0.8905	26.55	0.58	0.750			
0.2197	14063.09	3.9920	3.9920	0.8895	26.55	0.58	0.750			
0.2224	14236.35	3.9890	3.9889	0.8842	26.55	0.58	0.750			
0.2251	14403.70	3.9860	3.9861	0.8846	26.55	0.58	0.750			
0.2277	14572.88	3.9830	3.9830	0.8904	26.56	0.59	0.750			
0.2304	14743.40	3.9800	3.9801	0.8975	26.56	0.59	0.750			
0.2331	14916.23	3.9770	3.9770	0.9040	26.56	0.59	0.750			
0.2358	15091.21	3.9740	3.9740	0.9056	26.56	0.59	0.750			
0.2385	15266.15	3.9710	3.9711	0.9116	26.57	0.60	0.750			
0.2413	15443.25	3.9680	3.9680	0.9209	26.57	0.60	0.750			
0.2440	15617.42	3.9650	3.9649	0.9173	26.57	0.60	0.750			
0.2468	15794.45	3.9620	3.9620	0.9143	26.57	0.60	0.750			
0.2495	15969.92	3.9590	3.9590	0.9204	26.57	0.60	0.750			
0.2523	16147.98	3.9560	3.9560	0.9254	26.57	0.60	0.750			
0.2551	16326.45	3.9530	3.9531	0.9222	26.57	0.60	0.750			
0.2579	16503.58	3.9500	3.9500	0.9183	26.57	0.60	0.750			
0.2606	16679.84	3.9470	3.9470	0.9155	26.57	0.60	0.750			
0.2634	16855.82	3.9440	3.9440	0.9158	26.58	0.61	0.750			
0.2661	17029.50	3.9410	3.9410	0.9188	26.58	0.61	0.750			
0.2688	17204.95	3.9380	3.9380	0.9188	26.58	0.61	0.750			
0.2716	17384.97	3.9350	3.9349	0.9157	26.58	0.61	0.750			
0.2744	17559.39	3.9320	3.9321	0.9269	26.58	0.61	0.750			
0.2771	17737.58	3.9290	3.9291	0.9344	26.58	0.61	0.750			
0.2800	17918.00	3.9260	3.9260	0.9353	26.58	0.61	0.750			
0.2828	18097.17	3.9230	3.9230	0.9361	26.58	0.61	0.750			
0.2856	18277.46	3.9200	3.9201	0.9328	26.58	0.61	0.750			
0.2884	18458.49	3.9170	3.9170	0.9383	26.58	0.61	0.750			
0.2912	18638.55	3.9140	3.9140	0.9386	26.58	0.61	0.750			
0.2940	18816.36	3.9110	3.9109	0.9305	26.58	0.61	0.750			
0.2968	18996.85	3.9080	3.9081	0.9294	26.58	0.61	0.750			
0.2996	19174.91	3.9050	3.9050	0.9385	26.57	0.60	0.750			
0.3024	19354.61	3.9020	3.9020	0.9430	26.57	0.60	0.750			
0.3052	19535.64	3.8990	3.8990	0.9444	26.56	0.59	0.750			
0.3081	19717.66	3.8960	3.8961	0.9464	26.56	0.59	0.750			
0.3109	19899.83	3.8930	3.8930	0.9535	26.56	0.59	0.750			
0.3138	20084.89	3.8900	3.8901	0.9588	26.56	0.59	0.750			
0.3167	20269.57	3.8870	3.8869	0.9641	26.56	0.59	0.750			
0.3196	20452.37	3.8840	3.8840	0.9650	26.56	0.59	0.750			
0.3225	20639.09	3.8810	3.8811	0.9711	26.55	0.58	0.750			
0.3254	20826.00	3.8780	3.8780	0.9788	26.55	0.58	0.750			
0.3284	21014.50	3.8750	3.8750	0.9869	26.55	0.58	0.750			
0.3313	21204.14	3.8720	3.8719	0.9930	26.54	0.57	0.750			
0.3343	21396.33	3.8690	3.8690	0.9994	26.54	0.57	0.750			
0.3373	21587.99	3.8660	3.8660	1.0063	26.53	0.56	0.750			
0.3403	21781.99	3.8630	3.8630	1.0127	26.53	0.56	0.750			
0.3434	21976.71	3.8600	3.8599	1.0157	26.52	0.55	0.750			
0.3465	22173.10	3.8570	3.8570	1.0193	26.51	0.54	0.750			
0.3495	22367.97	3.8540	3.8541	1.0321	26.51	0.54	0.750			
0.3526	22567.79	3.8510	3.8510	1.0431	26.50	0.53	0.750			
0.3558	22769.93	3.8480	3.8479	1.0513	26.49	0.52	0.750			
0.3589	22971.87	3.8450	3.8451	1.0578	26.48	0.51	0.750			
0.3621	23176.59	3.8420	3.8421	1.0667	26.48	0.51	0.750			
0.3654	23382.46	3.8390	3.8390	1.0699	26.47	0.50	0.750			
0.3686	23588.39	3.8360	3.8360	1.0749	26.46	0.49	0.750			
0.3718	23793.40	3.8330	3.8331	1.0704	26.45	0.48	0.750			
0.3750	23998.23	3.8300	3.8299	1.0805	26.44	0.47	0.750			
0.3782	24206.71	3.8270	3.8271	1.0889	26.43	0.46	0.750			
0.3815	24416.80	3.8240	3.8237	1.0934	26.42	0.45	0.750			
0.3848	24626.99	3.8210	3.8211	1.1063	26.41	0.44	0.750			
0.3881	24841.40	3.8180	3.8180	1.1168	26.40	0.43	0.750			
0.3915	25057.70	3.8150	3.8150	1.1218	26.39	0.42	0.750			
0.3949	25273.28	3.8120	3.8120	1.1169	26.38	0.41	0.750			
0.3982	25487.52	3.8090	3.8091	1.1274	26.37	0.40	0.750			
0.4016	25704.88	3.8060	3.8060	1.1413	26.36	0.39	0.750			
0.4051	25925.97	3.8030	3.8029	1.1457	26.35	0.38	0.750			
0.4085	26145.06	3.8000	3.8000	1.1393	26.34	0.37	0.750			
0.4119	26362.83	3.7970	3.7972	1.1545	26.33	0.36	0.750			
0.4154	26585.89	3.7940	3.7941	1.1642	26.32	0.35	0.750			
0.4189	26810.40	3.7910	3.7906	1.1710	26.31	0.34	0.750			
0.4224	27033.11	3.7880	3.7881	1.1779	26.30	0.33	0.750			
0.4260	27260.98	3.7850	3.7852	1.1942	26.29	0.32	0.750			
0.4297	27499.07	3.7820	3.7820	1.2138	26.28	0.31	0.750			
0.4333	27730.11	3.7790	3.7790	1.2170	26.27	0.30	0.750			
0.4369	27960.50	3.7760	3.7761	1.2263	26.25	0.28	0.750			
0.4406	28201.09	3.7730	3.7729	1.2477	26.24	0.27	0.750			
0.4444	28439.12	3.7700	3.7700	1.2744	26.23	0.26	0.750			
0.4481	28681.32	3.7670	3.7671	1.3092	26.22	0.25	0.750			
0.4521	28936.99	3.7640	3.7641	1.3469	26.20	0.23	0.750			
0.4563	29201.49	3.7610	3.7609	1.3770	26.19	0.22	0.750	0.311	0.397	
0.4604	29467.91	3.7580	3.7583	1.4075	26.18	0.21	0.750			
0.4648	29746.75	3.7550	3.7550	1.4383	26.16	0.19	0.750			
0.4691	30024.86	3.7520	3.7516	1.4624	26.15	0.18	0.750			
0.4735	30302.51	3.7490	3.7490	1.4637	26.14	0.17	0.750			
0.4780	30589.23	3.7460	3.7461	1.4985	26.13	0.16	0.750			
0.4825	30879.15	3.7430	3.7429	1.5547	26.12	0.15	0.750			
0.4872	31180.75	3.7400	3.7401	1.5867	26.10	0.13	0.750			
0.4920	31489.46	3.7370	3.7371	1.6471	26.08	0.11	0.750			
0.4971	31814.51	3.7340	3.7342	1.6863	26.06	0.09	0.750			
0.5023	32145.16	3.7310	3.7311	1.7296	26.05	0.08	0.750			
0.5075	32478.87	3.7280	3.7279	1.7807	26.04	0.07	0.750			
0.5129	32826.99	3.7250	3.7249	1.8125	26.03	0.06	0.750			
0.5183	33173.23	3.7220	3.7220	1.8580	26.01	0.04	0.750			
0.5240	33534.05	3.7190	3.7189	1.9114	25.99	0.02	0.750			
0.5298	33907.57	3.7160	3.7161	1.9646	25.98	0.01	0.750			
0.5358	34289.95	3.7130	3.7131	2.0380	25.96	-0.01	0.750			
0.5420	34686.57	3.7100	3.7100	2.0993	25.94	-0.03	0.750			
0.5484	35099.40	3.7070	3.7071	2.1533	25.92	-0.05	0.750			
0.5550	35522.28	3.7040	3.7039	2.2061	25.90	-0.07	0.750			
0.5617	35946.04	3.7010	3.7011	2.2719	25.87	-0.10	0.750			
0.5685	36383.14	3.6980	3.6979	2.3435	25.85	-0.12	0.750			
0.5757	36844.38	3.6950	3.6950	2.4065	25.83	-0.14	0.750			
0.5830	37309.51	3.6920	3.6920	2.4843	25.82	-0.15	0.750			
0.5907	37806.68	3.6890	3.6890	2.5793	25.81	-0.16	0.750			
0.5984	38299.82	3.6860	3.6860	2.6206	25.80	-0.17	0.750			
0.6064	38807.38	3.6830	3.6829	2.7155	25.77	-0.20	0.750			
0.6148	39344.56	3.6800	3.6800	2.8245	25.76	-0.21	0.750			
0.6233	39893.11	3.6770	3.6772	2.9017	25.74	-0.23	0.750			
0.6322	40459.18	3.6740	3.6741	3.0270	25.73	-0.24	0.750			
0.6414	41051.57	3.6710	3.6709	3.0923	25.71	-0.26	0.750			
0.6509	41657.44	3.6680	3.6679	3.1330	25.69	-0.28	0.750			
0.6606	42275.32	3.6650	3.6650	3.0940	25.68	-0.29	0.750			
0.6699	42870.88	3.6620	3.6618	2.8361	25.68	-0.29	0.750			
0.6779	43387.62	3.6590	3.6592	2.5666	25.68	-0.29	0.750			
0.6850	43838.86	3.6560	3.6561	2.2636	25.68	-0.29	0.750			
0.6910	44222.36	3.6530	3.6530	2.0210	25.68	-0.29	0.750			
0.6964	44570.58	3.6500	3.6501	1.8255	25.68	-0.29	0.750			
0.7016	44904.42	3.6470	3.6470	1.6985	25.69	-0.28	0.750			
0.7067	45228.48	3.6440	3.6438	1.5890	25.69	-0.28	0.750			
0.7112	45515.41	3.6410	3.6411	1.4692	25.69	-0.28	0.750			
0.7153	45779.80	3.6380	3.6382	1.3650	25.70	-0.27	0.750			
0.7192	46030.04	3.6350	3.6346	1.2836	25.70	-0.27	0.750			
0.7228	46259.78	3.6320	3.6320	1.2339	25.70	-0.27	0.750			
0.7264	46491.24	3.6290	3.6291	1.2120	25.70	-0.27	0.750			
0.7300	46718.21	3.6260	3.6259	1.2059	25.70	-0.27	0.750			
0.7335	46947.08	3.6230	3.6231	1.2019	25.70	-0.27	0.750			
0.7371	47177.07	3.6200	3.6201	1.2095	25.70	-0.27	0.750			
0.7408	47413.91	3.6170	3.6170	1.2207	25.71	-0.26	0.750			
0.7446	47654.36	3.6140	3.6138	1.2060	25.71	-0.26	0.750			
0.7482	47883.75	3.6110	3.6111	1.2046	25.71	-0.26	0.750			
0.7518	48116.50	3.6080	3.6082	1.1968	25.72	-0.25	0.750			
0.7554	48346.12	3.6050	3.6049	1.1823	25.72	-0.25	0.750			
0.7589	48568.47	3.6020	3.6022	1.1595	25.72	-0.25	0.750			
0.7623	48786.69	3.5990	3.5991	1.1560	25.72	-0.25	0.750			
0.7657	49005.06	3.5960	3.5961	1.1659	25.72	-0.25	0.750			
0.7692	49231.68	3.5930	3.5927	1.1795	25.72	-0.25	0.750			
0.7727	49453.71	3.5900	3.5901	1.1932	25.72	-0.25	0.750			
0.7764	49688.19	3.5870	3.5869	1.2120	25.72	-0.25	0.750			
0.7801	49924.72	3.5840	3.5841	1.2515	25.72	-0.25	0.750			
0.7838	50162.30	3.5810	3.5811	1.2956	25.72	-0.25	0.750			
0.7877	50412.74	3.5780	3.5779	1.3368	25.72	-0.25	0.750			
0.7918	50678.12	3.5750	3.5752	1.3737	25.72	-0.25	0.750			
0.7961	50948.54	3.5720	3.5719	1.4208	25.72	-0.25	0.750			
0.8004	51223.14	3.5690	3.5692	1.4760	25.72	-0.25	0.750			
0.8050	51518.32	3.5660	3.5659	1.5009	25.72	-0.25	0.750			
0.8095	51809.50	3.5630	3.5629	1.5338	25.72	-0.25	0.750			
0.8141	52101.06	3.5600	3.5604	1.5538	25.72	-0.25	0.750			
0.8188	52405.90	3.5570	3.5568	1.5943	25.72	-0.25	0.750			
0.8237	52716.44	3.5540	3.5544	1.6164	25.72	-0.25	0.750			
0.8286	53028.21	3.5510	3.5512	1.6271	25.72	-0.25	0.750			
0.8335	53345.62	3.5480	3.5479	1.6431	25.72	-0.25	0.750			
0.8385	53662.45	3.5450	3.5447	1.6572	25.72	-0.25	0.750			
0.8435	53986.50	3.5420	3.5421	1.6734	25.72	-0.25	0.750			
0.8485	54303.46	3.5390	3.5392	1.6952	25.73	-0.24	0.750			
0.8536	54628.29	3.5360	3.5362	1.7234	25.74	-0.23	0.750			
0.8588	54965.75	3.5330	3.5330	1.7437	25.75	-0.22	0.750			
0.8646	55332.44	3.5300	3.5299	1.6714	25.76	-0.21	0.750			
0.8699	55676.57	3.5270	3.5268	1.5483	25.76	-0.21	0.750			
0.8746	55977.29	3.5240	3.5245	1.3281	25.78	-0.19	0.750			
0.8784	56219.68	3.5210	3.5213	1.0652	25.80	-0.17	0.750			
0.8809	56378.31	3.5180	3.5178	0.8220	25.81	-0.16	0.750			
0.8825	56481.98	3.5150	3.5149	0.5816	25.81	-0.16	0.750			
0.8837	56554.71	3.5120	3.5118	0.4461	25.82	-0.15	0.750			
0.8848	56628.29	3.5090	3.5089	0.3866	25.83	-0.14	0.750			
0.8858	56692.69	3.5060	3.5060	0.3500	25.83	-0.14	0.750			
0.8868	56754.71	3.5030	3.5030	0.3252	25.84	-0.13	0.750			
0.8877	56815.22	3.5000	3.4999	0.3129	25.84	-0.13	0.750			
0.8886	56873.28	3.4970	3.4969	0.3009	25.85	-0.12	0.750			
0.8895	56929.16	3.4940	3.4940	0.2917	25.85	-0.12	0.750			
0.8904	56984.81	3.4910	3.4911	0.2853	25.86	-0.11	0.750			
0.8912	57038.74	3.4880	3.4880	0.2764	25.86	-0.11	0.750			
0.8920	57091.02	3.4850	3.4849	0.2713	25.87	-0.10	0.750			
0.8928	57142.13	3.4820	3.4821	0.2651	25.87	-0.10	0.750			
0.8936	57192.18	3.4790	3.4790	0.2591	25.88	-0.09	0.750			
0.8944	57241.70	3.4760	3.4760	0.2546	25.88	-0.09	0.750			
0.8952	57290.16	3.4730	3.4730	0.2489	25.89	-0.08	0.750			
0.8959	57337.58	3.4700	3.4700	0.2439	25.89	-0.08	0.750			
0.8966	57383.71	3.4670	3.4671	0.2402	25.90	-0.07	0.750			
0.8973	57429.04	3.4640	3.4640	0.2340	25.90	-0.07	0.750			
0.8980	57473.53	3.4610	3.4608	0.2289	25.91	-0.06	0.750			
0.8987	57517.06	3.4580	3.4579	0.2244	25.91	-0.06	0.750			
0.8994	57559.73	3.4550	3.4551	0.2205	25.92	-0.05	0.750			
0.9000	57601.62	3.4520	3.4520	0.2161	25.92	-0.05	0.750			
0.9007	57642.87	3.4490	3.4489	0.2119	25.93	-0.04	0.750			
0.9013	57683.05	3.4460	3.4460	0.2072	25.93	-0.04	0.750			
0.9019	57721.86	3.4430	3.4430	0.2024	25.94	-0.03	0.750			
0.9025	57761.18	3.4400	3.4399	0.1983	25.94	-0.03	0.750			
0.9031	57798.93	3.4370	3.4370	0.1933	25.94	-0.03	0.750			
0.9037	57835.48	3.4340	3.4340	0.1875	25.95	-0.02	0.750			
0.9042	57870.60	3.4310	3.4311	0.1832	25.95	-0.02	0.750			
0.9048	57905.49	3.4280	3.4279	0.1776	25.96	-0.01	0.750			
0.9053	57939.00	3.4250	3.4248	0.1724	25.96	-0.01	0.750			
0.9058	57971.63	3.4220	3.4221	0.1674	25.96	-0.01	0.750			
0.9063	58003.06	3.4190	3.4192	0.1631	25.97	-0.00	0.750			
0.9068	58034.48	3.4160	3.4160	0.1582	25.97	0.00	0.750			
0.9073	58064.30	3.4130	3.4130	0.1527	25.97	0.00	0.750			
0.9077	58093.08	3.4100	3.4099	0.1471	25.98	0.01	0.750			
0.9081	58120.65	3.4070	3.4072	0.1411	25.98	0.01	0.750			
0.9086	58147.69	3.4040	3.4038	0.1364	25.98	0.01	0.750			
0.9090	58173.19	3.4010	3.4011	0.1298	25.99	0.02	0.750			
0.9093	58197.53	3.3980	3.3979	0.1237	25.99	0.02	0.750			
0.9097	58220.66	3.3950	3.3951	0.1170	25.99	0.02	0.750			
0.9100	58242.90	3.3920	3.3919	0.1114	25.99	0.02	0.750			
0.9104	58265.01	3.3890	3.3888	0.1021	26.00	0.03	0.750			
0.9107	58284.12	3.3860	3.3858	0.0944	26.00	0.03	0.750			
0.9110	58301.32	3.3830	3.3831	0.0847	26.00	0.03	0.750			
0.9112	58317.59	3.3800	3.3802	0.0764	26.00	0.03	0.750			
0.9114	58331.22	3.3770	3.3773	0.0657	26.00	0.03	0.750			
0.9116	58344.07	3.3740	3.3742	0.0551	26.01	0.04	0.750			
0.9118	58353.48	3.3710	3.3716	0.0429	26.01	0.04	0.750			
0.9119	58360.55	3.3680	3.3688	0.0307	26.01	0.04	0.750			
0.9120	58365.29	3.3650	3.3666	0.0186	26.01	0.04	0.750			
