Ah_balance (normalized)	Ah_balance (mAh)	Voltage - fit (V)	Voltage -  interpolate (V)	dQ/dV (1/V)	Temperature (°C)	Temperature - diff (°C)	Current (C)	R_DC 0ms (mOhm)	R_DC 50ms (mOhm)	R_DC 50 ms PEC (mOhm)
0.0005	29.34	4.1590	4.1588	-0.1432	25.34	0.00	-0.750			
0.0009	59.78	4.1560	4.1560	-0.1855	25.34	0.00	-0.750			
0.0016	100.59	4.1530	4.1530	-0.2312	25.34	0.00	-0.750			
0.0023	149.74	4.1500	4.1500	-0.2744	25.34	0.00	-0.750			
0.0032	207.15	4.1470	4.1469	-0.3184	25.34	0.00	-0.750			
0.0043	272.41	4.1440	4.1441	-0.3598	25.34	0.00	-0.750			
0.0054	346.10	4.1410	4.1410	-0.3988	25.34	0.00	-0.750			
0.0067	427.01	4.1380	4.1381	-0.4368	25.34	0.00	-0.750			
0.0080	514.65	4.1350	4.1350	-0.4698	25.34	0.00	-0.750			
0.0095	609.11	4.1320	4.1319	-0.5021	25.34	0.00	-0.750			
0.0111	709.47	4.1290	4.1291	-0.5306	25.34	0.00	-0.750			
0.0127	814.26	4.1260	4.1260	-0.5538	25.34	0.00	-0.750			
0.0145	925.45	4.1230	4.1230	-0.5829	25.34	0.00	-0.750			
0.0163	1041.45	4.1200	4.1199	-0.6007	25.34	0.00	-0.750			
0.0181	1159.44	4.1170	4.1169	-0.6163	25.34	0.00	-0.750			
0.0200	1279.89	4.1140	4.1140	-0.6264	25.34	-0.00	-0.750	0.393	0.502	
0.0219	1402.03	4.1110	4.1109	-0.6352	25.34	-0.00	-0.750			
0.0238	1524.08	4.1080	4.1079	-0.6436	25.34	-0.00	-0.750			
0.0257	1645.90	4.1050	4.1051	-0.6516	25.33	-0.01	-0.750			
0.0277	1774.41	4.1020	4.1019	-0.6634	25.33	-0.01	-0.750			
0.0298	1904.27	4.0990	4.0990	-0.6746	25.33	-0.01	-0.750			
0.0318	2033.65	4.0960	4.0964	-0.6819	25.33	-0.01	-0.750			
0.0338	2165.60	4.0930	4.0929	-0.6906	25.33	-0.01	-0.750			
0.0359	2299.19	4.0900	4.0900	-0.6979	25.33	-0.01	-0.750			
0.0380	2433.80	4.0870	4.0870	-0.7040	25.33	-0.01	-0.750			
0.0402	2571.47	4.0840	4.0842	-0.7131	25.34	-0.00	-0.750	0.382	0.493	
0.0423	2708.93	4.0810	4.0809	-0.7154	25.34	-0.00	-0.750			
0.0445	2846.48	4.0780	4.0781	-0.7158	25.34	0.00	-0.750			
0.0466	2982.93	4.0750	4.0750	-0.7189	25.34	0.00	-0.750			
0.0487	3119.56	4.0720	4.0720	-0.7258	25.35	0.01	-0.750			
0.0509	3260.66	4.0690	4.0690	-0.7278	25.35	0.01	-0.750			
0.0532	3402.43	4.0660	4.0659	-0.7370	25.35	0.01	-0.750			
0.0554	3544.94	4.0630	4.0630	-0.7374	25.36	0.02	-0.750			
0.0576	3687.76	4.0600	4.0600	-0.7392	25.36	0.02	-0.750			
0.0598	3829.75	4.0570	4.0571	-0.7386	25.36	0.02	-0.750	0.385	0.498	
0.0620	3969.95	4.0540	4.0539	-0.7391	25.36	0.02	-0.750			
0.0642	4111.23	4.0510	4.0510	-0.7390	25.36	0.02	-0.750			
0.0665	4255.06	4.0480	4.0480	-0.7437	25.36	0.02	-0.750			
0.0687	4397.04	4.0450	4.0451	-0.7459	25.36	0.02	-0.750			
0.0710	4540.85	4.0420	4.0420	-0.7563	25.36	0.02	-0.750			
0.0732	4687.17	4.0390	4.0389	-0.7523	25.37	0.03	-0.750			
0.0755	4832.24	4.0360	4.0359	-0.7527	25.37	0.03	-0.750			
0.0777	4975.91	4.0330	4.0329	-0.7526	25.37	0.03	-0.750			
0.0800	5122.05	4.0300	4.0302	-0.7575	25.38	0.04	-0.750	0.403	0.504	
0.0823	5267.24	4.0270	4.0270	-0.7577	25.38	0.04	-0.750			
0.0846	5411.26	4.0240	4.0240	-0.7596	25.39	0.05	-0.750			
0.0868	5557.59	4.0210	4.0210	-0.7637	25.40	0.06	-0.750			
0.0892	5707.33	4.0180	4.0179	-0.7718	25.40	0.06	-0.750			
0.0915	5853.98	4.0150	4.0150	-0.7738	25.41	0.07	-0.750			
0.0938	6002.61	4.0120	4.0120	-0.7748	25.42	0.08	-0.750			
0.0961	6152.56	4.0090	4.0089	-0.7740	25.42	0.08	-0.750			
0.0985	6301.22	4.0060	4.0059	-0.7737	25.43	0.09	-0.750			
0.1008	6449.35	4.0030	4.0032	-0.7690	25.43	0.09	-0.750	0.402	0.509	
0.1031	6597.10	4.0000	3.9999	-0.7667	25.43	0.09	-0.750			
0.1054	6743.90	3.9970	3.9970	-0.7680	25.44	0.10	-0.750			
0.1076	6888.94	3.9940	3.9941	-0.7731	25.44	0.10	-0.750			
0.1100	7037.96	3.9910	3.9910	-0.7797	25.45	0.11	-0.750			
0.1124	7193.29	3.9880	3.9878	-0.7736	25.45	0.11	-0.750			
0.1147	7340.36	3.9850	3.9850	-0.7796	25.45	0.11	-0.750			
0.1170	7489.71	3.9820	3.9821	-0.7843	25.46	0.12	-0.750			
0.1194	7639.13	3.9790	3.9790	-0.7889	25.46	0.12	-0.750	0.392	0.493	
0.1217	7790.03	3.9760	3.9760	-0.7918	25.46	0.12	-0.750			
0.1241	7940.38	3.9730	3.9732	-0.7945	25.47	0.13	-0.750			
0.1265	8095.43	3.9700	3.9699	-0.8047	25.47	0.13	-0.750			
0.1290	8253.73	3.9670	3.9670	-0.8074	25.48	0.14	-0.750			
0.1314	8407.05	3.9640	3.9641	-0.8096	25.48	0.14	-0.750			
0.1338	8565.97	3.9610	3.9609	-0.8163	25.49	0.15	-0.750			
0.1363	8725.32	3.9580	3.9579	-0.8135	25.49	0.15	-0.750			
0.1388	8882.20	3.9550	3.9547	-0.8085	25.50	0.16	-0.750			
0.1412	9036.24	3.9520	3.9519	-0.8030	25.51	0.17	-0.750	0.387	0.496	
0.1436	9190.75	3.9490	3.9488	-0.8002	25.52	0.18	-0.750			
0.1460	9342.00	3.9460	3.9459	-0.7985	25.52	0.18	-0.750			
0.1483	9489.03	3.9430	3.9430	-0.8030	25.53	0.19	-0.750			
0.1507	9646.04	3.9400	3.9400	-0.8143	25.53	0.19	-0.750			
0.1532	9804.99	3.9370	3.9369	-0.8272	25.53	0.19	-0.750			
0.1558	9968.52	3.9340	3.9339	-0.8329	25.54	0.20	-0.750			
0.1583	10129.45	3.9310	3.9307	-0.8279	25.54	0.20	-0.750			
0.1608	10288.73	3.9280	3.9281	-0.8292	25.55	0.21	-0.750	0.399	0.500	
0.1632	10446.86	3.9250	3.9248	-0.8241	25.56	0.22	-0.750			
0.1656	10601.13	3.9220	3.9218	-0.8183	25.57	0.23	-0.750			
0.1681	10759.27	3.9190	3.9190	-0.8174	25.58	0.24	-0.750			
0.1705	10914.86	3.9160	3.9160	-0.8231	25.58	0.24	-0.750			
0.1731	11075.60	3.9130	3.9130	-0.8279	25.59	0.25	-0.750			
0.1755	11233.00	3.9100	3.9100	-0.8298	25.59	0.25	-0.750			
0.1780	11389.83	3.9070	3.9070	-0.8322	25.59	0.25	-0.750			
0.1805	11551.93	3.9040	3.9045	-0.8376	25.60	0.26	-0.750	0.396	0.502	
0.1830	11713.01	3.9010	3.9011	-0.8416	25.60	0.26	-0.750			
0.1856	11875.90	3.8980	3.8981	-0.8450	25.61	0.27	-0.750			
0.1881	12037.78	3.8950	3.8950	-0.8457	25.62	0.28	-0.750			
0.1906	12200.14	3.8920	3.8920	-0.8397	25.62	0.28	-0.750			
0.1933	12371.55	3.8890	3.8887	-0.8141	25.63	0.29	-0.750			
0.1957	12522.27	3.8860	3.8861	-0.8328	25.63	0.29	-0.750			
0.1981	12680.49	3.8830	3.8831	-0.8424	25.64	0.30	-0.750			
0.2006	12840.09	3.8800	3.8805	-0.8461	25.64	0.30	-0.750	0.399	0.498	
0.2032	13003.15	3.8770	3.8772	-0.8497	25.64	0.30	-0.750			
0.2058	13168.33	3.8740	3.8742	-0.8599	25.65	0.31	-0.750			
0.2084	13339.01	3.8710	3.8710	-0.8643	25.65	0.31	-0.750			
0.2110	13504.66	3.8680	3.8680	-0.8527	25.66	0.32	-0.750			
0.2136	13668.54	3.8650	3.8651	-0.8598	25.67	0.33	-0.750			
0.2162	13836.11	3.8620	3.8618	-0.8532	25.67	0.33	-0.750			
0.2188	14001.73	3.8590	3.8589	-0.8556	25.68	0.34	-0.750			
0.2213	14165.32	3.8560	3.8563	-0.8548	25.68	0.34	-0.750	0.380	0.494	
0.2239	14330.53	3.8530	3.8529	-0.8574	25.69	0.35	-0.750			
0.2265	14494.53	3.8500	3.8499	-0.8568	25.69	0.35	-0.750			
0.2290	14655.16	3.8470	3.8470	-0.8507	25.70	0.36	-0.750			
0.2316	14820.65	3.8440	3.8443	-0.8650	25.70	0.36	-0.750			
0.2342	14988.44	3.8410	3.8409	-0.8651	25.70	0.36	-0.750			
0.2368	15153.95	3.8380	3.8380	-0.8626	25.71	0.37	-0.750			
0.2394	15320.19	3.8350	3.8349	-0.8574	25.71	0.37	-0.750	0.407	0.506	
0.2420	15487.38	3.8320	3.8319	-0.8566	25.72	0.38	-0.750			
0.2445	15648.33	3.8290	3.8292	-0.8520	25.72	0.38	-0.750			
0.2470	15809.47	3.8260	3.8260	-0.8481	25.73	0.39	-0.750			
0.2495	15969.72	3.8230	3.8230	-0.8557	25.73	0.39	-0.750			
0.2522	16137.71	3.8200	3.8199	-0.8663	25.74	0.40	-0.750			
0.2548	16305.97	3.8170	3.8170	-0.8698	25.75	0.41	-0.750			
0.2574	16476.10	3.8140	3.8140	-0.8663	25.75	0.41	-0.750			
0.2601	16644.03	3.8110	3.8111	-0.8655	25.76	0.42	-0.750	0.397	0.499	
0.2626	16808.46	3.8080	3.8079	-0.8521	25.77	0.43	-0.750			
0.2651	16967.29	3.8050	3.8050	-0.8399	25.78	0.44	-0.750			
0.2676	17128.54	3.8020	3.8019	-0.8439	25.79	0.45	-0.750			
0.2701	17289.23	3.7990	3.7991	-0.8445	25.79	0.45	-0.750			
0.2727	17452.26	3.7960	3.7959	-0.8588	25.80	0.46	-0.750			
0.2753	17621.64	3.7930	3.7929	-0.8599	25.80	0.46	-0.750			
0.2779	17788.60	3.7900	3.7899	-0.8567	25.80	0.46	-0.750			
0.2805	17953.69	3.7870	3.7872	-0.8536	25.81	0.47	-0.750	0.398	0.492	
0.2831	18116.64	3.7840	3.7839	-0.8448	25.81	0.47	-0.750			
0.2856	18277.01	3.7810	3.7809	-0.8408	25.81	0.47	-0.750			
0.2880	18434.00	3.7780	3.7780	-0.8369	25.82	0.48	-0.750			
0.2905	18593.65	3.7750	3.7751	-0.8385	25.82	0.48	-0.750			
0.2931	18760.78	3.7720	3.7719	-0.8531	25.82	0.48	-0.750			
0.2957	18924.52	3.7690	3.7690	-0.8470	25.82	0.48	-0.750			
0.2982	19087.59	3.7660	3.7659	-0.8461	25.83	0.49	-0.750			
0.3008	19250.42	3.7630	3.7632	-0.8400	25.84	0.50	-0.750	0.391	0.495	
0.3033	19409.64	3.7600	3.7599	-0.8333	25.84	0.50	-0.750			
0.3058	19568.67	3.7570	3.7570	-0.8348	25.85	0.51	-0.750			
0.3082	19726.75	3.7540	3.7540	-0.8345	25.85	0.51	-0.750			
0.3107	19886.44	3.7510	3.7509	-0.8494	25.86	0.52	-0.750			
0.3133	20051.02	3.7480	3.7480	-0.8524	25.86	0.52	-0.750			
0.3159	20216.72	3.7450	3.7450	-0.8513	25.86	0.52	-0.750			
0.3185	20382.89	3.7420	3.7419	-0.8588	25.87	0.53	-0.750			
0.3210	20546.67	3.7390	3.7390	-0.8592	25.87	0.53	-0.750	0.399	0.502	
0.3236	20709.77	3.7360	3.7359	-0.8577	25.88	0.54	-0.750			
0.3262	20874.51	3.7330	3.7329	-0.8615	25.88	0.54	-0.750			
0.3287	21037.44	3.7300	3.7301	-0.8639	25.89	0.55	-0.750			
0.3313	21204.86	3.7270	3.7270	-0.8866	25.89	0.55	-0.750			
0.3340	21377.21	3.7240	3.7240	-0.8982	25.89	0.55	-0.750			
0.3367	21551.76	3.7210	3.7209	-0.9027	25.90	0.56	-0.750			
0.3395	21726.15	3.7180	3.7179	-0.9101	25.90	0.56	-0.750	0.389	0.505	
0.3422	21901.80	3.7150	3.7150	-0.9215	25.91	0.57	-0.750			
0.3450	22079.36	3.7120	3.7120	-0.9346	25.91	0.57	-0.750			
0.3478	22258.89	3.7090	3.7089	-0.9504	25.91	0.57	-0.750			
0.3506	22441.10	3.7060	3.7060	-0.9690	25.91	0.57	-0.750			
0.3536	22633.25	3.7030	3.7029	-0.9883	25.91	0.57	-0.750			
0.3566	22825.41	3.7000	3.7001	-1.0070	25.91	0.57	-0.750			
0.3597	23019.58	3.6970	3.6970	-1.0213	25.91	0.57	-0.750	0.397	0.501	
0.3627	23215.93	3.6940	3.6938	-1.0355	25.91	0.57	-0.750			
0.3659	23415.26	3.6910	3.6909	-1.0577	25.91	0.57	-0.750			
0.3690	23613.41	3.6880	3.6881	-1.0902	25.91	0.57	-0.750			
0.3724	23831.61	3.6850	3.6850	-1.0889	25.91	0.57	-0.750			
0.3757	24043.15	3.6820	3.6820	-1.1128	25.91	0.57	-0.750			
0.3790	24253.55	3.6790	3.6793	-1.1363	25.91	0.57	-0.750	0.393	0.498	
0.3824	24473.00	3.6760	3.6764	-1.1749	25.91	0.57	-0.750			
0.3859	24699.36	3.6730	3.6731	-1.2009	25.91	0.57	-0.750			
0.3896	24934.64	3.6700	3.6701	-1.2396	25.91	0.57	-0.750			
0.3935	25184.71	3.6670	3.6671	-1.2800	25.91	0.57	-0.750			
0.3974	25432.64	3.6640	3.6638	-1.2781	25.90	0.56	-0.750			
0.4012	25679.83	3.6610	3.6611	-1.3035	25.90	0.56	-0.750	0.406	0.509	
0.4051	25928.70	3.6580	3.6579	-1.3319	25.89	0.55	-0.750			
0.4092	26187.75	3.6550	3.6549	-1.3670	25.89	0.55	-0.750			
0.4133	26453.57	3.6520	3.6519	-1.3887	25.88	0.54	-0.750			
0.4176	26725.68	3.6490	3.6489	-1.4308	25.88	0.54	-0.750			
0.4219	27003.02	3.6460	3.6462	-1.4563	25.88	0.54	-0.750	0.410	0.517	
0.4264	27289.58	3.6430	3.6428	-1.4960	25.87	0.53	-0.750			
0.4309	27579.87	3.6400	3.6402	-1.5152	25.87	0.53	-0.750			
0.4355	27869.89	3.6370	3.6369	-1.5438	25.86	0.52	-0.750			
0.4402	28173.27	3.6340	3.6339	-1.5882	25.86	0.52	-0.750	0.403	0.511	
0.4450	28481.17	3.6310	3.6309	-1.6216	25.85	0.51	-0.750			
0.4499	28792.06	3.6280	3.6282	-1.6466	25.84	0.50	-0.750			
0.4549	29116.47	3.6250	3.6251	-1.6733	25.82	0.48	-0.750			
0.4600	29439.11	3.6220	3.6222	-1.7137	25.82	0.48	-0.750	0.409	0.517	
0.4652	29773.90	3.6190	3.6189	-1.7566	25.82	0.48	-0.750			
0.4706	30115.31	3.6160	3.6159	-1.7766	25.82	0.48	-0.750			
0.4760	30461.72	3.6130	3.6128	-1.7933	25.81	0.47	-0.750			
0.4813	30804.23	3.6100	3.6101	-1.8408	25.81	0.47	-0.750	0.395	0.508	
0.4869	31164.58	3.6070	3.6068	-1.8577	25.81	0.47	-0.750			
0.4925	31521.31	3.6040	3.6041	-1.8899	25.80	0.46	-0.750			
0.4981	31877.95	3.6010	3.6009	-1.9420	25.80	0.46	-0.750	0.415	0.525	
0.5041	32262.53	3.5980	3.5976	-1.9981	25.79	0.45	-0.750			
0.5102	32653.60	3.5950	3.5948	-2.0505	25.79	0.45	-0.750			
0.5164	33049.08	3.5920	3.5920	-2.0998	25.79	0.45	-0.750			
0.5228	33461.59	3.5890	3.5891	-2.1340	25.79	0.45	-0.750	0.384	0.513	
0.5293	33875.43	3.5860	3.5859	-2.1503	25.78	0.44	-0.750			
0.5359	34295.40	3.5830	3.5831	-2.1734	25.78	0.44	-0.750			
0.5424	34714.01	3.5800	3.5800	-2.2066	25.77	0.43	-0.750	0.408	0.523	
0.5491	35141.68	3.5770	3.5769	-2.2371	25.77	0.43	-0.750			
0.5558	35569.79	3.5740	3.5739	-2.2405	25.77	0.43	-0.750			
0.5625	36001.58	3.5710	3.5710	-2.2717	25.77	0.43	-0.750	0.403	0.528	
0.5694	36442.36	3.5680	3.5682	-2.3081	25.77	0.43	-0.750			
0.5764	36890.25	3.5650	3.5648	-2.3213	25.78	0.44	-0.750			
0.5834	37335.52	3.5620	3.5619	-2.3302	25.78	0.44	-0.750	0.404	0.534	
0.5904	37785.57	3.5590	3.5592	-2.3346	25.79	0.45	-0.750			
0.5974	38236.41	3.5560	3.5560	-2.3473	25.79	0.45	-0.750	0.400	0.537	
0.6046	38691.45	3.5530	3.5528	-2.3326	25.79	0.45	-0.750			
0.6115	39138.69	3.5500	3.5500	-2.3173	25.79	0.45	-0.750			
0.6185	39586.96	3.5470	3.5470	-2.3149	25.79	0.45	-0.750	0.400	0.529	
0.6255	40030.73	3.5440	3.5439	-2.2928	25.80	0.46	-0.750			
0.6323	40466.53	3.5410	3.5410	-2.2615	25.80	0.46	-0.750			
0.6391	40901.84	3.5380	3.5379	-2.2378	25.81	0.47	-0.750	0.398	0.534	
0.6458	41329.32	3.5350	3.5349	-2.2037	25.81	0.47	-0.750			
0.6524	41752.39	3.5320	3.5320	-2.1634	25.83	0.49	-0.750			
0.6588	42160.11	3.5290	3.5290	-2.1259	25.84	0.50	-0.750	0.404	0.550	
0.6651	42566.98	3.5260	3.5259	-2.0713	25.85	0.51	-0.750			
0.6713	42963.82	3.5230	3.5229	-2.0180	25.85	0.51	-0.750			
0.6773	43347.81	3.5200	3.5201	-1.9580	25.86	0.52	-0.750			
0.6831	43720.76	3.5170	3.5170	-1.9056	25.87	0.53	-0.750	0.397	0.546	
0.6888	44080.81	3.5140	3.5138	-1.8411	25.89	0.55	-0.750			
0.6941	44421.55	3.5110	3.5112	-1.7715	25.90	0.56	-0.750			
0.6993	44757.72	3.5080	3.5080	-1.7140	25.91	0.57	-0.750	0.403	0.553	
0.7044	45081.94	3.5050	3.5049	-1.6762	25.93	0.59	-0.750			
0.7094	45399.45	3.5020	3.5018	-1.6044	25.94	0.60	-0.750			
0.7141	45701.59	3.4990	3.4989	-1.5439	25.95	0.61	-0.750			
0.7186	45989.19	3.4960	3.4962	-1.5005	25.97	0.63	-0.750	0.406	0.563	
0.7230	46273.51	3.4930	3.4929	-1.4450	25.98	0.64	-0.750			
0.7273	46544.73	3.4900	3.4899	-1.4036	26.00	0.66	-0.750			
0.7315	46813.82	3.4870	3.4872	-1.3635	26.01	0.67	-0.750			
0.7355	47072.67	3.4840	3.4840	-1.3214	26.03	0.69	-0.750			
0.7394	47321.06	3.4810	3.4809	-1.2645	26.05	0.71	-0.750	0.401	0.569	
0.7431	47561.19	3.4780	3.4781	-1.2182	26.07	0.73	-0.750			
0.7467	47789.37	3.4750	3.4749	-1.1756	26.08	0.74	-0.750			
0.7501	48009.41	3.4720	3.4719	-1.1390	26.10	0.76	-0.750			
0.7535	48221.36	3.4690	3.4690	-1.1026	26.12	0.78	-0.750			
0.7567	48429.70	3.4660	3.4661	-1.0682	26.13	0.79	-0.750			
0.7599	48633.61	3.4630	3.4627	-1.0418	26.14	0.80	-0.750	0.394	0.576	
0.7630	48832.11	3.4600	3.4600	-1.0065	26.15	0.81	-0.750			
0.7660	49021.03	3.4570	3.4570	-0.9751	26.16	0.82	-0.750			
0.7688	49202.44	3.4540	3.4543	-0.9573	26.17	0.83	-0.750			
0.7715	49378.57	3.4510	3.4510	-0.9416	26.18	0.84	-0.750			
0.7744	49559.23	3.4480	3.4478	-0.9408	26.19	0.85	-0.750			
0.7771	49737.58	3.4450	3.4450	-0.9404	26.20	0.86	-0.750			
0.7800	49918.89	3.4420	3.4420	-0.9578	26.21	0.87	-0.750	0.396	0.587	
0.7829	50103.42	3.4390	3.4390	-0.9733	26.21	0.87	-0.750			
0.7858	50289.19	3.4360	3.4359	-0.9943	26.22	0.88	-0.750			
0.7887	50478.55	3.4330	3.4330	-1.0297	26.23	0.89	-0.750			
0.7919	50680.48	3.4300	3.4300	-1.0631	26.24	0.90	-0.750			
0.7952	50892.64	3.4270	3.4270	-1.0889	26.25	0.91	-0.750			
0.7986	51108.64	3.4240	3.4238	-1.1078	26.27	0.93	-0.750			
0.8019	51323.73	3.4210	3.4210	-1.1082	26.28	0.94	-0.750	0.403	0.597	
0.8053	51538.40	3.4180	3.4178	-1.1016	26.29	0.95	-0.750			
0.8086	51751.26	3.4150	3.4149	-1.0873	26.30	0.96	-0.750			
0.8119	51959.69	3.4120	3.4119	-1.0439	26.31	0.97	-0.750			
0.8150	52160.30	3.4090	3.4091	-1.0258	26.32	0.98	-0.750			
0.8180	52350.35	3.4060	3.4061	-0.9890	26.33	0.99	-0.750			
0.8209	52537.15	3.4030	3.4037	-0.9690	26.33	0.99	-0.750	0.391	0.596	
0.8237	52719.33	3.4000	3.4001	-0.9441	26.34	1.00	-0.750			
0.8265	52898.60	3.3970	3.3970	-0.9152	26.34	1.00	-0.750			
0.8293	53074.35	3.3940	3.3940	-0.8882	26.35	1.01	-0.750			
0.8319	53243.61	3.3910	3.3912	-0.8570	26.35	1.01	-0.750			
0.8345	53406.83	3.3880	3.3880	-0.8252	26.36	1.02	-0.750			
0.8369	53563.07	3.3850	3.3849	-0.7892	26.37	1.03	-0.750			
0.8392	53711.40	3.3820	3.3818	-0.7492	26.38	1.04	-0.750			
0.8414	53851.40	3.3790	3.3792	-0.7168	26.38	1.04	-0.750	0.402	0.622	
0.8435	53986.03	3.3760	3.3761	-0.6820	26.39	1.05	-0.750			
0.8455	54111.89	3.3730	3.3729	-0.6519	26.40	1.06	-0.750			
0.8473	54229.63	3.3700	3.3700	-0.6147	26.40	1.06	-0.750			
0.8492	54348.46	3.3670	3.3670	-0.5975	26.41	1.07	-0.750			
0.8509	54459.39	3.3640	3.3640	-0.5732	26.42	1.08	-0.750			
0.8526	54568.55	3.3610	3.3610	-0.5530	26.43	1.09	-0.750			
0.8542	54671.67	3.3580	3.3580	-0.5292	26.43	1.09	-0.750			
0.8558	54769.54	3.3550	3.3550	-0.5160	26.44	1.10	-0.750			
0.8573	54867.52	3.3520	3.3519	-0.4972	26.44	1.10	-0.750			
0.8588	54962.87	3.3490	3.3488	-0.4784	26.45	1.11	-0.750			
0.8602	55052.64	3.3460	3.3458	-0.4563	26.46	1.12	-0.750	0.386	0.620	
0.8615	55138.30	3.3430	3.3432	-0.4352	26.47	1.13	-0.750			
0.8628	55220.33	3.3400	3.3398	-0.4163	26.47	1.13	-0.750			
0.8640	55297.01	3.3370	3.3370	-0.3967	26.48	1.14	-0.750			
0.8651	55368.40	3.3340	3.3341	-0.3773	26.48	1.14	-0.750			
0.8663	55441.96	3.3310	3.3310	-0.3682	26.49	1.15	-0.750			
0.8674	55510.94	3.3280	3.3279	-0.3532	26.49	1.15	-0.750			
0.8684	55576.85	3.3250	3.3250	-0.3401	26.50	1.16	-0.750			
0.8694	55640.61	3.3220	3.3220	-0.3290	26.50	1.16	-0.750			
0.8704	55702.51	3.3190	3.3190	-0.3173	26.51	1.17	-0.750			
0.8713	55762.46	3.3160	3.3159	-0.3078	26.51	1.17	-0.750			
0.8722	55820.27	3.3130	3.3130	-0.2967	26.52	1.18	-0.750			
0.8731	55876.56	3.3100	3.3100	-0.2876	26.52	1.18	-0.750			
0.8739	55930.83	3.3070	3.3070	-0.2783	26.53	1.19	-0.750			
0.8747	55983.27	3.3040	3.3040	-0.2685	26.53	1.19	-0.750			
0.8755	56032.98	3.3010	3.3010	-0.2593	26.54	1.20	-0.750			
0.8763	56082.08	3.2980	3.2980	-0.2522	26.54	1.20	-0.750			
0.8770	56129.33	3.2950	3.2950	-0.2444	26.55	1.21	-0.750			
0.8777	56175.92	3.2920	3.2919	-0.2376	26.55	1.21	-0.750			
0.8785	56222.19	3.2890	3.2890	-0.2336	26.55	1.21	-0.750			
0.8792	56266.54	3.2860	3.2858	-0.2269	26.56	1.22	-0.750			
0.8798	56309.69	3.2830	3.2829	-0.2220	26.56	1.22	-0.750			
0.8805	56351.70	3.2800	3.2797	-0.2167	26.57	1.23	-0.750	0.409	0.651	
0.8811	56392.24	3.2770	3.2777	-0.2104	26.57	1.23	-0.750			
0.8818	56432.03	3.2740	3.2738	-0.2048	26.57	1.23	-0.750			
0.8824	56470.81	3.2710	3.2710	-0.1999	26.58	1.24	-0.750			
0.8829	56506.82	3.2680	3.2682	-0.1922	26.58	1.24	-0.750			
0.8835	56546.06	3.2650	3.2650	-0.1943	26.59	1.25	-0.750			
0.8841	56581.82	3.2620	3.2620	-0.1866	26.59	1.25	-0.750			
0.8846	56617.10	3.2590	3.2590	-0.1843	26.59	1.25	-0.750			
0.8852	56652.21	3.2560	3.2560	-0.1807	26.60	1.26	-0.750			
0.8857	56686.37	3.2530	3.2529	-0.1782	26.60	1.26	-0.750			
0.8863	56720.36	3.2500	3.2500	-0.1759	26.61	1.27	-0.750			
0.8868	56753.94	3.2470	3.2471	-0.1733	26.61	1.27	-0.750			
0.8873	56787.01	3.2440	3.2439	-0.1704	26.61	1.27	-0.750			
0.8878	56819.71	3.2410	3.2411	-0.1678	26.62	1.28	-0.750			
0.8883	56851.62	3.2380	3.2380	-0.1645	26.62	1.28	-0.750			
0.8888	56882.65	3.2350	3.2351	-0.1620	26.62	1.28	-0.750			
0.8893	56913.67	3.2320	3.2320	-0.1602	26.63	1.29	-0.750			
0.8897	56943.79	3.2290	3.2289	-0.1571	26.63	1.29	-0.750			
0.8902	56973.79	3.2260	3.2260	-0.1554	26.63	1.29	-0.750			
0.8907	57003.53	3.2230	3.2231	-0.1530	26.64	1.30	-0.750			
0.8911	57032.78	3.2200	3.2201	-0.1512	26.64	1.30	-0.750			
0.8916	57061.54	3.2170	3.2170	-0.1495	26.64	1.30	-0.750			
0.8920	57090.06	3.2140	3.2140	-0.1475	26.65	1.31	-0.750			
0.8925	57118.05	3.2110	3.2110	-0.1452	26.65	1.31	-0.750			
0.8929	57145.46	3.2080	3.2080	-0.1439	26.65	1.31	-0.750			
0.8933	57172.88	3.2050	3.2050	-0.1428	26.66	1.32	-0.750			
0.8938	57200.30	3.2020	3.2021	-0.1413	26.66	1.32	-0.750			
0.8942	57227.43	3.1990	3.1989	-0.1400	26.67	1.33	-0.750			
0.8946	57254.13	3.1960	3.1961	-0.1384	26.67	1.33	-0.750			
0.8950	57280.56	3.1930	3.1930	-0.1369	26.68	1.34	-0.750			
0.8954	57306.66	3.1900	3.1900	-0.1358	26.68	1.34	-0.750			
0.8958	57332.74	3.1870	3.1870	-0.1347	26.69	1.35	-0.750			
0.8962	57358.16	3.1840	3.1841	-0.1329	26.69	1.35	-0.750			
0.8966	57383.74	3.1810	3.1810	-0.1308	26.70	1.36	-0.750			
0.8970	57408.82	3.1780	3.1781	-0.1298	26.70	1.36	-0.750			
0.8974	57433.60	3.1750	3.1751	-0.1282	26.70	1.36	-0.750			
0.8978	57457.79	3.1720	3.1720	-0.1270	26.71	1.37	-0.750			
0.8982	57482.08	3.1690	3.1689	-0.1260	26.71	1.37	-0.750			
0.8985	57505.91	3.1660	3.1660	-0.1250	26.72	1.38	-0.750			
0.8989	57528.39	3.1630	3.1632	-0.1272	26.72	1.38	-0.750			
0.8993	57553.15	3.1600	3.1600	-0.1306	26.73	1.39	-0.750			
0.8997	57579.47	3.1570	3.1569	-0.1288	26.73	1.39	-0.750			
0.9001	57604.20	3.1540	3.1536	-0.1288	26.74	1.40	-0.750			
0.9005	57630.02	3.1510	3.1502	-0.1245	26.74	1.40	-0.750			
0.9009	57655.07	3.1480	3.1504	-0.1225	26.75	1.41	-0.750	0.393	0.649	
0.9012	57677.35	3.1450	3.1451	-0.1190	26.75	1.41	-0.750			
0.9016	57700.18	3.1420	3.1415	-0.1147	26.76	1.42	-0.750			
0.9019	57718.92	3.1390	3.1391	-0.1086	26.76	1.42	-0.750			
0.9022	57739.87	3.1360	3.1359	-0.1096	26.76	1.42	-0.750			
0.9025	57761.17	3.1330	3.1330	-0.1101	26.77	1.43	-0.750			
0.9028	57782.36	3.1300	3.1300	-0.1107	26.77	1.43	-0.750			
0.9032	57804.11	3.1270	3.1270	-0.1109	26.77	1.43	-0.750			
0.9035	57825.36	3.1240	3.1240	-0.1105	26.77	1.43	-0.750			
0.9039	57846.57	3.1210	3.1210	-0.1098	26.78	1.44	-0.750			
0.9042	57867.81	3.1180	3.1180	-0.1093	26.78	1.44	-0.750			
0.9045	57888.63	3.1150	3.1149	-0.1088	26.78	1.44	-0.750			
0.9048	57909.35	3.1120	3.1120	-0.1081	26.79	1.45	-0.750			
0.9052	57930.07	3.1090	3.1089	-0.1074	26.79	1.45	-0.750			
0.9055	57950.57	3.1060	3.1061	-0.1068	26.79	1.45	-0.750			
0.9058	57971.11	3.1030	3.1030	-0.1058	26.80	1.46	-0.750			
0.9061	57991.49	3.1000	3.1000	-0.1051	26.80	1.46	-0.750			
0.9064	58011.51	3.0970	3.0971	-0.1046	26.80	1.46	-0.750			
0.9067	58031.55	3.0940	3.0940	-0.1039	26.81	1.47	-0.750			
0.9071	58051.43	3.0910	3.0909	-0.1030	26.81	1.47	-0.750			
0.9074	58071.03	3.0880	3.0880	-0.1021	26.82	1.48	-0.750			
0.9077	58090.47	3.0850	3.0850	-0.1021	26.82	1.48	-0.750			
0.9080	58109.92	3.0820	3.0821	-0.1016	26.83	1.49	-0.750			
0.9083	58129.51	3.0790	3.0789	-0.1010	26.83	1.49	-0.750			
0.9086	58148.96	3.0760	3.0759	-0.1006	26.83	1.49	-0.750			
0.9089	58168.21	3.0730	3.0731	-0.1000	26.84	1.50	-0.750			
0.9092	58187.32	3.0700	3.0701	-0.0994	26.84	1.50	-0.750			
0.9095	58206.37	3.0670	3.0669	-0.0987	26.85	1.51	-0.750			
0.9098	58225.45	3.0640	3.0640	-0.0982	26.85	1.51	-0.750			
0.9101	58244.24	3.0610	3.0610	-0.0973	26.86	1.52	-0.750			
0.9104	58262.70	3.0580	3.0580	-0.0963	26.86	1.52	-0.750			
0.9106	58281.05	3.0550	3.0550	-0.0958	26.87	1.53	-0.750			
0.9109	58299.46	3.0520	3.0520	-0.0953	26.87	1.53	-0.750			
0.9112	58317.60	3.0490	3.0490	-0.0951	26.87	1.53	-0.750			
0.9115	58335.63	3.0460	3.0459	-0.0946	26.88	1.54	-0.750			
0.9118	58353.92	3.0430	3.0429	-0.0939	26.88	1.54	-0.750			
0.9121	58371.94	3.0400	3.0400	-0.0935	26.89	1.55	-0.750			
0.9123	58389.83	3.0370	3.0371	-0.0930	26.89	1.55	-0.750			
0.9126	58407.83	3.0340	3.0341	-0.0927	26.90	1.56	-0.750			
0.9129	58425.50	3.0310	3.0309	-0.0922	26.90	1.56	-0.750			
0.9132	58443.07	3.0280	3.0279	-0.0916	26.90	1.56	-0.750			
0.9134	58460.65	3.0250	3.0250	-0.0908	26.91	1.57	-0.750			
0.9137	58477.94	3.0220	3.0220	-0.0901	26.91	1.57	-0.750			
0.9140	58495.17	3.0190	3.0191	-0.0898	26.92	1.58	-0.750			
0.9143	58512.51	3.0160	3.0161	-0.0895	26.92	1.58	-0.750			
0.9145	58529.64	3.0130	3.0129	-0.0887	26.92	1.58	-0.750			
0.9148	58546.54	3.0100	3.0099	-0.0880	26.93	1.59	-0.750			
0.9151	58563.38	3.0070	3.0069	-0.0874	26.93	1.59	-0.751			
0.9153	58580.06	3.0040	3.0042	-0.0870	26.94	1.60	-0.751			
0.9156	58596.73	3.0010	3.0010	-0.0866	26.94	1.60	-0.751			
