Ah_balance (normalized)	Ah_balance (mAh)	Voltage - fit (V)	Voltage -  interpolate (V)	dQ/dV (1/V)	Temperature (°C)	Temperature - diff (°C)	Current (C)	R_DC 0ms (mOhm)	R_DC 50ms (mOhm)	R_DC 50 ms PEC (mOhm)
0.0002	11.51	4.1660	4.1658	-0.1033	25.92	0.03	-0.750			
0.0006	35.80	4.1630	4.1630	-0.1500	25.92	0.03	-0.750			
0.0011	68.70	4.1600	4.1601	-0.1977	25.92	0.03	-0.750			
0.0018	113.21	4.1570	4.1569	-0.2431	25.92	0.03	-0.750			
0.0026	164.17	4.1540	4.1540	-0.2853	25.92	0.03	-0.750			
0.0035	223.19	4.1510	4.1511	-0.3270	25.91	0.02	-0.750			
0.0045	290.87	4.1480	4.1481	-0.3686	25.91	0.02	-0.750			
0.0057	366.02	4.1450	4.1449	-0.4071	25.91	0.02	-0.750			
0.0070	448.42	4.1420	4.1420	-0.4414	25.90	0.01	-0.750			
0.0084	537.23	4.1390	4.1390	-0.4733	25.90	0.01	-0.750			
0.0099	632.42	4.1360	4.1359	-0.5045	25.89	0.00	-0.750			
0.0114	732.46	4.1330	4.1331	-0.5308	25.89	-0.00	-0.750			
0.0131	837.96	4.1300	4.1300	-0.5491	25.88	-0.01	-0.750			
0.0148	946.46	4.1270	4.1270	-0.5675	25.88	-0.01	-0.750			
0.0165	1056.49	4.1240	4.1241	-0.5870	25.87	-0.02	-0.750			
0.0183	1171.41	4.1210	4.1210	-0.6023	25.87	-0.02	-0.750			
0.0201	1288.81	4.1180	4.1179	-0.6172	25.86	-0.03	-0.750			
0.0220	1408.41	4.1150	4.1150	-0.6299	25.85	-0.04	-0.750			
0.0239	1531.08	4.1120	4.1121	-0.6448	25.85	-0.04	-0.750			
0.0259	1657.42	4.1090	4.1090	-0.6574	25.85	-0.04	-0.750			
0.0279	1785.29	4.1060	4.1060	-0.6660	25.84	-0.05	-0.750			
0.0299	1913.60	4.1030	4.1030	-0.6753	25.84	-0.05	-0.750			
0.0320	2046.20	4.1000	4.1000	-0.6815	25.84	-0.05	-0.750			
0.0340	2178.84	4.0970	4.0969	-0.6829	25.83	-0.06	-0.750			
0.0361	2309.15	4.0940	4.0942	-0.6894	25.83	-0.06	-0.750			
0.0381	2441.48	4.0910	4.0910	-0.6904	25.83	-0.06	-0.750			
0.0402	2572.48	4.0880	4.0879	-0.6992	25.83	-0.06	-0.750			
0.0423	2707.16	4.0850	4.0851	-0.7023	25.82	-0.07	-0.750			
0.0445	2844.80	4.0820	4.0820	-0.7116	25.82	-0.07	-0.750			
0.0466	2982.07	4.0790	4.0788	-0.7164	25.82	-0.07	-0.750			
0.0488	3121.03	4.0760	4.0761	-0.7208	25.82	-0.07	-0.750			
0.0509	3259.17	4.0730	4.0730	-0.7193	25.82	-0.07	-0.750			
0.0531	3398.24	4.0700	4.0700	-0.7256	25.82	-0.07	-0.750			
0.0552	3535.57	4.0670	4.0670	-0.7194	25.82	-0.07	-0.750			
0.0574	3675.96	4.0640	4.0640	-0.7276	25.82	-0.07	-0.750			
0.0596	3815.05	4.0610	4.0609	-0.7314	25.82	-0.07	-0.750			
0.0618	3955.50	4.0580	4.0579	-0.7325	25.82	-0.07	-0.750			
0.0640	4097.05	4.0550	4.0550	-0.7387	25.82	-0.07	-0.750			
0.0663	4240.15	4.0520	4.0521	-0.7435	25.82	-0.07	-0.750			
0.0685	4383.39	4.0490	4.0490	-0.7438	25.81	-0.08	-0.750			
0.0707	4527.94	4.0460	4.0460	-0.7458	25.81	-0.08	-0.750			
0.0730	4670.63	4.0430	4.0432	-0.7435	25.81	-0.08	-0.750			
0.0752	4813.08	4.0400	4.0399	-0.7451	25.81	-0.08	-0.750			
0.0774	4956.11	4.0370	4.0370	-0.7485	25.81	-0.08	-0.750			
0.0797	5099.61	4.0340	4.0340	-0.7480	25.82	-0.07	-0.750			
0.0819	5243.63	4.0310	4.0311	-0.7486	25.82	-0.07	-0.750			
0.0842	5388.52	4.0280	4.0280	-0.7552	25.82	-0.07	-0.750			
0.0865	5533.46	4.0250	4.0250	-0.7580	25.82	-0.07	-0.750			
0.0887	5678.90	4.0220	4.0219	-0.7580	25.82	-0.07	-0.750			
0.0910	5823.90	4.0190	4.0190	-0.7600	25.82	-0.07	-0.750			
0.0933	5970.82	4.0160	4.0160	-0.7618	25.82	-0.07	-0.750			
0.0956	6118.92	4.0130	4.0129	-0.7615	25.82	-0.07	-0.750			
0.0979	6265.00	4.0100	4.0100	-0.7619	25.82	-0.07	-0.750			
0.1001	6409.59	4.0070	4.0070	-0.7610	25.82	-0.07	-0.750			
0.1024	6555.12	4.0040	4.0041	-0.7664	25.82	-0.07	-0.750			
0.1047	6703.70	4.0010	4.0009	-0.7697	25.83	-0.06	-0.750			
0.1070	6850.62	3.9980	3.9980	-0.7718	25.83	-0.06	-0.750			
0.1094	6999.90	3.9950	3.9950	-0.7788	25.83	-0.06	-0.750			
0.1117	7150.29	3.9920	3.9920	-0.7805	25.83	-0.06	-0.750			
0.1141	7300.55	3.9890	3.9890	-0.7806	25.83	-0.06	-0.750			
0.1164	7451.27	3.9860	3.9860	-0.7800	25.83	-0.06	-0.750			
0.1188	7600.65	3.9830	3.9830	-0.7776	25.84	-0.05	-0.750			
0.1211	7750.64	3.9800	3.9799	-0.7785	25.84	-0.05	-0.750			
0.1234	7898.85	3.9770	3.9772	-0.7780	25.84	-0.05	-0.750			
0.1257	8047.77	3.9740	3.9740	-0.7798	25.84	-0.05	-0.750			
0.1281	8198.65	3.9710	3.9710	-0.7830	25.84	-0.05	-0.750			
0.1305	8349.11	3.9680	3.9680	-0.7845	25.85	-0.04	-0.750			
0.1328	8499.75	3.9650	3.9650	-0.7904	25.85	-0.04	-0.750			
0.1352	8652.54	3.9620	3.9620	-0.7882	25.85	-0.04	-0.750			
0.1375	8802.32	3.9590	3.9589	-0.7935	25.85	-0.04	-0.750			
0.1399	8954.34	3.9560	3.9561	-0.8013	25.85	-0.04	-0.750			
0.1423	9109.69	3.9530	3.9530	-0.8046	25.86	-0.03	-0.750			
0.1448	9266.55	3.9500	3.9499	-0.8014	25.86	-0.03	-0.750			
0.1472	9422.60	3.9470	3.9471	-0.7981	25.86	-0.03	-0.750			
0.1496	9574.94	3.9440	3.9441	-0.7933	25.86	-0.03	-0.750			
0.1520	9724.93	3.9410	3.9409	-0.8062	25.86	-0.03	-0.750			
0.1543	9878.18	3.9380	3.9380	-0.8026	25.86	-0.03	-0.750			
0.1567	10030.28	3.9350	3.9349	-0.8080	25.87	-0.02	-0.750			
0.1592	10189.70	3.9320	3.9319	-0.8180	25.87	-0.02	-0.750			
0.1617	10348.37	3.9290	3.9289	-0.8225	25.87	-0.02	-0.750			
0.1641	10505.31	3.9260	3.9260	-0.8296	25.88	-0.01	-0.750			
0.1666	10665.31	3.9230	3.9228	-0.8253	25.88	-0.01	-0.750			
0.1691	10821.58	3.9200	3.9200	-0.8220	25.88	-0.01	-0.750			
0.1716	10982.62	3.9170	3.9170	-0.8365	25.89	-0.00	-0.750			
0.1741	11143.18	3.9140	3.9141	-0.8368	25.89	0.00	-0.750			
0.1766	11303.80	3.9110	3.9109	-0.8474	25.89	0.00	-0.750			
0.1792	11466.61	3.9080	3.9080	-0.8479	25.89	0.00	-0.750			
0.1817	11629.69	3.9050	3.9050	-0.8501	25.90	0.01	-0.750			
0.1843	11796.53	3.9020	3.9020	-0.8555	25.90	0.01	-0.750			
0.1869	11960.99	3.8990	3.8990	-0.8534	25.90	0.01	-0.750			
0.1894	12123.27	3.8960	3.8959	-0.8516	25.91	0.02	-0.750			
0.1920	12286.38	3.8930	3.8930	-0.8521	25.91	0.02	-0.750			
0.1945	12449.09	3.8900	3.8900	-0.8499	25.91	0.02	-0.750			
0.1971	12613.67	3.8870	3.8869	-0.8525	25.92	0.03	-0.750			
0.1997	12778.14	3.8840	3.8840	-0.8506	25.92	0.03	-0.750			
0.2022	12940.89	3.8810	3.8810	-0.8544	25.92	0.03	-0.750			
0.2048	13105.12	3.8780	3.8781	-0.8531	25.93	0.04	-0.750			
0.2073	13268.17	3.8750	3.8749	-0.8513	25.93	0.04	-0.750			
0.2099	13432.72	3.8720	3.8719	-0.8533	25.93	0.04	-0.750			
0.2125	13597.91	3.8690	3.8690	-0.8530	25.93	0.04	-0.750			
0.2150	13760.52	3.8660	3.8660	-0.8574	25.93	0.04	-0.750			
0.2176	13926.03	3.8630	3.8630	-0.8576	25.94	0.05	-0.750			
0.2202	14089.63	3.8600	3.8600	-0.8506	25.94	0.05	-0.750			
0.2228	14256.47	3.8570	3.8570	-0.8516	25.94	0.05	-0.750			
0.2253	14419.15	3.8540	3.8540	-0.8487	25.94	0.05	-0.750			
0.2278	14580.59	3.8510	3.8510	-0.8552	25.94	0.05	-0.750			
0.2304	14744.22	3.8480	3.8479	-0.8579	25.95	0.06	-0.750			
0.2329	14907.79	3.8450	3.8450	-0.8608	25.95	0.06	-0.750			
0.2356	15076.84	3.8420	3.8423	-0.8695	25.95	0.06	-0.750			
0.2382	15244.55	3.8390	3.8390	-0.8752	25.95	0.06	-0.750			
0.2408	15414.24	3.8360	3.8360	-0.8774	25.96	0.07	-0.750			
0.2435	15582.33	3.8330	3.8330	-0.8675	25.96	0.07	-0.750			
0.2461	15749.43	3.8300	3.8300	-0.8664	25.97	0.08	-0.750			
0.2487	15914.04	3.8270	3.8271	-0.8650	25.97	0.08	-0.750			
0.2512	16079.09	3.8240	3.8239	-0.8609	25.97	0.08	-0.750			
0.2538	16244.89	3.8210	3.8209	-0.8648	25.98	0.09	-0.750			
0.2564	16410.74	3.8180	3.8180	-0.8659	25.98	0.09	-0.750			
0.2590	16578.23	3.8150	3.8150	-0.8662	25.99	0.10	-0.750			
0.2617	16745.87	3.8120	3.8120	-0.8646	25.99	0.10	-0.750			
0.2642	16910.53	3.8090	3.8090	-0.8653	25.99	0.10	-0.750			
0.2668	17077.04	3.8060	3.8060	-0.8611	25.99	0.10	-0.750			
0.2694	17241.30	3.8030	3.8029	-0.8561	25.99	0.10	-0.750			
0.2720	17406.87	3.8000	3.7999	-0.8592	25.99	0.10	-0.750			
0.2746	17571.53	3.7970	3.7970	-0.8566	25.99	0.10	-0.750			
0.2771	17735.25	3.7940	3.7939	-0.8595	26.00	0.11	-0.750			
0.2797	17899.49	3.7910	3.7910	-0.8580	26.00	0.11	-0.750			
0.2823	18064.17	3.7880	3.7880	-0.8524	26.00	0.11	-0.750			
0.2849	18231.11	3.7850	3.7849	-0.8556	26.01	0.12	-0.750			
0.2874	18394.96	3.7820	3.7821	-0.8532	26.01	0.12	-0.750			
0.2900	18558.24	3.7790	3.7790	-0.8511	26.02	0.13	-0.750			
0.2925	18720.74	3.7760	3.7759	-0.8488	26.02	0.13	-0.750			
0.2950	18882.48	3.7730	3.7729	-0.8434	26.03	0.14	-0.750			
0.2976	19045.70	3.7700	3.7700	-0.8468	26.03	0.14	-0.750			
0.3001	19208.66	3.7670	3.7670	-0.8434	26.03	0.14	-0.750			
0.3027	19370.98	3.7640	3.7640	-0.8442	26.04	0.15	-0.750			
0.3052	19531.50	3.7610	3.7610	-0.8426	26.04	0.15	-0.750			
0.3077	19692.89	3.7580	3.7579	-0.8387	26.05	0.16	-0.750			
0.3102	19853.98	3.7550	3.7550	-0.8389	26.05	0.16	-0.750			
0.3127	20014.53	3.7520	3.7520	-0.8434	26.05	0.16	-0.750			
0.3153	20176.76	3.7490	3.7489	-0.8514	26.05	0.16	-0.750			
0.3179	20342.67	3.7460	3.7459	-0.8528	26.05	0.16	-0.750			
0.3204	20506.36	3.7430	3.7430	-0.8504	26.05	0.16	-0.750			
0.3230	20671.06	3.7400	3.7403	-0.8544	26.05	0.16	-0.750			
0.3256	20835.71	3.7370	3.7369	-0.8568	26.05	0.16	-0.750			
0.3281	20997.17	3.7340	3.7340	-0.8669	26.06	0.17	-0.750			
0.3307	21163.30	3.7310	3.7309	-0.8746	26.06	0.17	-0.750			
0.3333	21333.41	3.7280	3.7279	-0.8875	26.07	0.18	-0.750			
0.3360	21505.52	3.7250	3.7253	-0.8967	26.07	0.18	-0.750			
0.3387	21679.21	3.7220	3.7220	-0.9094	26.07	0.18	-0.750			
0.3415	21853.58	3.7190	3.7190	-0.9182	26.07	0.18	-0.750			
0.3442	22028.54	3.7160	3.7160	-0.9258	26.07	0.18	-0.750			
0.3470	22207.58	3.7130	3.7130	-0.9418	26.07	0.18	-0.750			
0.3499	22391.08	3.7100	3.7100	-0.9551	26.07	0.18	-0.750			
0.3528	22576.51	3.7070	3.7070	-0.9707	26.07	0.18	-0.750			
0.3557	22762.75	3.7040	3.7040	-0.9853	26.08	0.19	-0.750			
0.3586	22951.94	3.7010	3.7010	-0.9982	26.08	0.19	-0.750			
0.3616	23144.26	3.6980	3.6980	-1.0246	26.08	0.19	-0.750			
0.3647	23342.95	3.6950	3.6949	-1.0419	26.08	0.19	-0.750			
0.3679	23545.09	3.6920	3.6920	-1.0624	26.07	0.18	-0.750			
0.3711	23751.64	3.6890	3.6890	-1.0834	26.07	0.18	-0.750			
0.3744	23962.93	3.6860	3.6860	-1.1069	26.07	0.18	-0.750			
0.3778	24178.36	3.6830	3.6830	-1.1221	26.07	0.18	-0.750			
0.3812	24395.39	3.6800	3.6800	-1.1408	26.07	0.18	-0.750			
0.3846	24613.01	3.6770	3.6771	-1.1569	26.07	0.18	-0.750			
0.3881	24838.67	3.6740	3.6739	-1.1868	26.07	0.18	-0.750			
0.3916	25065.04	3.6710	3.6709	-1.2139	26.06	0.17	-0.750			
0.3953	25300.52	3.6680	3.6680	-1.2447	26.05	0.16	-0.750			
0.3991	25542.61	3.6650	3.6650	-1.2794	26.05	0.16	-0.750			
0.4031	25796.34	3.6620	3.6620	-1.3144	26.04	0.15	-0.750			
0.4070	26050.75	3.6590	3.6590	-1.3422	26.04	0.15	-0.750			
0.4111	26311.70	3.6560	3.6561	-1.3778	26.03	0.14	-0.750			
0.4153	26577.03	3.6530	3.6530	-1.4087	26.02	0.13	-0.750			
0.4195	26851.20	3.6500	3.6499	-1.4377	26.02	0.13	-0.750			
0.4239	27128.40	3.6470	3.6472	-1.4741	26.01	0.12	-0.750			
0.4284	27417.60	3.6440	3.6438	-1.5028	26.01	0.12	-0.750			
0.4329	27708.21	3.6410	3.6410	-1.5513	26.01	0.12	-0.750			
0.4376	28009.44	3.6380	3.6379	-1.5840	26.01	0.12	-0.750			
0.4425	28321.37	3.6350	3.6350	-1.6318	25.99	0.10	-0.750			
0.4475	28637.36	3.6320	3.6322	-1.6594	25.98	0.09	-0.750			
0.4526	28963.27	3.6290	3.6290	-1.6928	25.98	0.09	-0.750			
0.4577	29292.51	3.6260	3.6259	-1.7126	25.97	0.08	-0.750	0.404	0.499	
0.4628	29620.42	3.6230	3.6229	-1.7450	25.97	0.08	-0.750			
0.4680	29951.51	3.6200	3.6201	-1.7763	25.96	0.07	-0.750			
0.4735	30301.03	3.6170	3.6171	-1.8014	25.95	0.06	-0.750			
0.4788	30645.69	3.6140	3.6139	-1.8433	25.95	0.06	-0.750			
0.4845	31008.32	3.6110	3.6111	-1.8875	25.95	0.06	-0.750			
0.4902	31375.09	3.6080	3.6079	-1.9156	25.94	0.05	-0.750			
0.4961	31749.02	3.6050	3.6050	-1.9552	25.93	0.04	-0.750			
0.5019	32121.73	3.6020	3.6021	-1.9837	25.93	0.04	-0.750			
0.5079	32507.91	3.5990	3.5990	-2.0292	25.93	0.04	-0.750			
0.5142	32905.71	3.5960	3.5961	-2.0790	25.92	0.03	-0.750			
0.5203	33302.23	3.5930	3.5930	-2.1102	25.91	0.02	-0.750			
0.5269	33719.69	3.5900	3.5899	-2.1480	25.91	0.02	-0.750			
0.5334	34135.70	3.5870	3.5871	-2.1795	25.91	0.02	-0.750			
0.5400	34558.63	3.5840	3.5840	-2.2125	25.91	0.02	-0.750			
0.5466	34983.36	3.5810	3.5810	-2.2311	25.91	0.02	-0.750			
0.5533	35413.46	3.5780	3.5780	-2.2511	25.91	0.02	-0.750			
0.5602	35850.86	3.5750	3.5751	-2.2809	25.90	0.01	-0.750			
0.5670	36287.57	3.5720	3.5719	-2.3084	25.90	0.01	-0.750			
0.5740	36739.04	3.5690	3.5690	-2.3345	25.90	0.01	-0.750			
0.5811	37187.97	3.5660	3.5661	-2.3457	25.91	0.02	-0.750			
0.5882	37645.45	3.5630	3.5630	-2.3559	25.91	0.02	-0.750			
0.5953	38096.73	3.5600	3.5599	-2.3500	25.90	0.01	-0.750			
0.6023	38549.64	3.5570	3.5570	-2.3527	25.90	0.01	-0.750			
0.6094	38999.96	3.5540	3.5540	-2.3367	25.91	0.02	-0.750			
0.6164	39448.40	3.5510	3.5511	-2.3213	25.91	0.02	-0.750			
0.6233	39892.80	3.5480	3.5481	-2.3088	25.91	0.02	-0.750			
0.6302	40333.78	3.5450	3.5450	-2.3048	25.92	0.03	-0.750			
0.6372	40778.21	3.5420	3.5419	-2.2834	25.93	0.04	-0.750			
0.6440	41217.12	3.5390	3.5390	-2.2544	25.93	0.04	-0.750			
0.6508	41650.33	3.5360	3.5359	-2.2101	25.93	0.04	-0.750			
0.6574	42073.48	3.5330	3.5329	-2.1693	25.94	0.05	-0.750			
0.6638	42482.96	3.5300	3.5301	-2.1284	25.96	0.07	-0.750			
0.6701	42883.90	3.5270	3.5268	-2.0872	25.97	0.08	-0.750			
0.6763	43282.17	3.5240	3.5241	-2.0215	25.98	0.09	-0.750			
0.6824	43673.51	3.5210	3.5210	-1.9743	25.98	0.09	-0.750			
0.6883	44051.92	3.5180	3.5181	-1.9250	25.99	0.10	-0.750			
0.6940	44413.80	3.5150	3.5150	-1.8462	26.00	0.11	-0.750			
0.6993	44758.29	3.5120	3.5119	-1.7830	26.01	0.12	-0.750			
0.7045	45089.72	3.5090	3.5089	-1.7095	26.03	0.14	-0.750			
0.7096	45414.05	3.5060	3.5059	-1.6516	26.05	0.16	-0.750			
0.7145	45725.86	3.5030	3.5030	-1.5989	26.07	0.18	-0.750			
0.7191	46024.79	3.5000	3.4998	-1.5382	26.08	0.19	-0.750			
0.7237	46318.03	3.4970	3.4970	-1.4719	26.10	0.21	-0.750			
0.7281	46599.81	3.4940	3.4939	-1.4087	26.11	0.22	-0.750			
0.7322	46858.57	3.4910	3.4911	-1.3390	26.12	0.23	-0.750			
0.7360	47107.10	3.4880	3.4882	-1.2987	26.13	0.24	-0.750			
0.7398	47349.48	3.4850	3.4849	-1.2589	26.15	0.26	-0.750			
0.7435	47585.12	3.4820	3.4818	-1.2225	26.17	0.28	-0.750			
0.7471	47815.91	3.4790	3.4789	-1.1932	26.19	0.30	-0.750			
0.7508	48050.64	3.4760	3.4760	-1.1817	26.20	0.31	-0.750			
0.7543	48272.25	3.4730	3.4731	-1.1420	26.21	0.32	-0.750			
0.7576	48487.18	3.4700	3.4699	-1.0969	26.22	0.33	-0.750			
0.7608	48690.33	3.4670	3.4671	-1.0587	26.23	0.34	-0.750			
0.7639	48892.46	3.4640	3.4640	-1.0295	26.24	0.35	-0.750			
0.7670	49087.11	3.4610	3.4611	-0.9995	26.26	0.37	-0.750			
0.7699	49275.89	3.4580	3.4579	-0.9746	26.27	0.38	-0.750			
0.7728	49459.84	3.4550	3.4551	-0.9486	26.28	0.39	-0.750			
0.7756	49636.87	3.4520	3.4520	-0.9394	26.29	0.40	-0.750			
0.7784	49814.46	3.4490	3.4491	-0.9348	26.30	0.41	-0.750			
0.7811	49991.82	3.4460	3.4459	-0.9295	26.31	0.42	-0.750			
0.7839	50169.37	3.4430	3.4429	-0.9357	26.32	0.43	-0.750			
0.7867	50347.63	3.4400	3.4401	-0.9490	26.33	0.44	-0.750			
0.7895	50529.31	3.4370	3.4371	-0.9827	26.34	0.45	-0.750			
0.7925	50719.61	3.4340	3.4339	-1.0164	26.35	0.46	-0.750			
0.7955	50914.71	3.4310	3.4308	-1.0500	26.35	0.46	-0.750			
0.7988	51124.59	3.4280	3.4282	-1.0941	26.36	0.47	-0.750			
0.8023	51344.67	3.4250	3.4250	-1.1272	26.37	0.48	-0.750			
0.8057	51567.96	3.4220	3.4219	-1.1293	26.38	0.49	-0.750			
0.8092	51788.78	3.4190	3.4190	-1.1178	26.39	0.50	-0.750			
0.8126	52004.40	3.4160	3.4159	-1.1064	26.39	0.50	-0.750			
0.8159	52215.21	3.4130	3.4129	-1.0796	26.40	0.51	-0.750			
0.8190	52417.85	3.4100	3.4100	-1.0490	26.41	0.52	-0.750			
0.8221	52615.25	3.4070	3.4069	-1.0122	26.42	0.53	-0.750			
0.8252	52811.42	3.4040	3.4040	-0.9950	26.43	0.54	-0.750			
0.8282	53001.73	3.4010	3.4010	-0.9556	26.44	0.55	-0.750			
0.8310	53181.92	3.3980	3.3980	-0.9186	26.45	0.56	-0.750			
0.8336	53352.67	3.3950	3.3949	-0.8788	26.45	0.56	-0.750			
0.8362	53518.30	3.3920	3.3921	-0.8453	26.46	0.57	-0.750			
0.8387	53677.37	3.3890	3.3889	-0.8044	26.46	0.57	-0.750			
0.8411	53827.70	3.3860	3.3860	-0.7787	26.47	0.58	-0.750			
0.8433	53972.04	3.3830	3.3830	-0.7384	26.47	0.58	-0.750			
0.8455	54113.39	3.3800	3.3799	-0.7157	26.48	0.59	-0.750			
0.8476	54246.70	3.3770	3.3771	-0.6804	26.48	0.59	-0.750			
0.8496	54373.19	3.3740	3.3741	-0.6558	26.48	0.59	-0.750			
0.8515	54495.18	3.3710	3.3709	-0.6347	26.49	0.60	-0.750			
0.8534	54616.23	3.3680	3.3680	-0.6156	26.50	0.61	-0.750			
0.8552	54730.76	3.3650	3.3650	-0.5903	26.50	0.61	-0.750			
0.8570	54845.74	3.3620	3.3619	-0.5748	26.51	0.62	-0.750			
0.8587	54953.84	3.3590	3.3591	-0.5487	26.51	0.62	-0.750			
0.8603	55057.88	3.3560	3.3559	-0.5241	26.52	0.63	-0.750			
0.8618	55153.52	3.3530	3.3530	-0.4975	26.53	0.64	-0.750			
0.8632	55245.19	3.3500	3.3501	-0.4717	26.53	0.64	-0.750			
0.8646	55333.76	3.3470	3.3469	-0.4545	26.54	0.65	-0.750			
0.8659	55419.11	3.3440	3.3439	-0.4374	26.55	0.66	-0.750			
0.8672	55500.78	3.3410	3.3411	-0.4208	26.55	0.66	-0.750			
0.8684	55580.10	3.3380	3.3379	-0.4061	26.56	0.67	-0.750			
0.8696	55657.48	3.3350	3.3350	-0.3936	26.56	0.67	-0.750			
0.8708	55731.78	3.3320	3.3320	-0.3772	26.57	0.68	-0.750			
0.8719	55803.24	3.3290	3.3289	-0.3614	26.57	0.68	-0.750			
0.8730	55870.55	3.3260	3.3262	-0.3464	26.58	0.69	-0.750			
0.8740	55935.03	3.3230	3.3229	-0.3320	26.58	0.69	-0.750			
0.8750	55996.91	3.3200	3.3200	-0.3184	26.59	0.70	-0.750			
0.8759	56056.08	3.3170	3.3170	-0.3074	26.59	0.70	-0.750			
0.8768	56113.92	3.3140	3.3142	-0.2978	26.60	0.71	-0.750			
0.8777	56171.29	3.3110	3.3109	-0.2889	26.60	0.71	-0.750			
0.8785	56225.62	3.3080	3.3080	-0.2793	26.61	0.72	-0.750			
0.8793	56277.52	3.3050	3.3051	-0.2699	26.61	0.72	-0.750			
0.8801	56328.77	3.3020	3.3020	-0.2627	26.61	0.72	-0.750			
0.8809	56378.50	3.2990	3.2989	-0.2550	26.62	0.73	-0.750			
0.8817	56426.44	3.2960	3.2960	-0.2471	26.62	0.73	-0.750			
0.8824	56473.58	3.2930	3.2931	-0.2409	26.62	0.73	-0.750			
0.8831	56519.23	3.2900	3.2900	-0.2343	26.63	0.74	-0.750			
0.8838	56563.39	3.2870	3.2869	-0.2262	26.63	0.74	-0.750			
0.8845	56606.12	3.2840	3.2840	-0.2191	26.63	0.74	-0.750			
0.8851	56647.21	3.2810	3.2811	-0.2136	26.64	0.75	-0.750			
0.8857	56687.32	3.2780	3.2781	-0.2090	26.64	0.75	-0.750			
0.8864	56727.23	3.2750	3.2749	-0.2039	26.64	0.75	-0.750			
0.8870	56765.79	3.2720	3.2719	-0.1989	26.65	0.76	-0.750			
0.8876	56803.36	3.2690	3.2690	-0.1944	26.65	0.76	-0.750			
0.8881	56840.25	3.2660	3.2662	-0.1903	26.66	0.77	-0.750			
0.8887	56876.43	3.2630	3.2630	-0.1873	26.66	0.77	-0.750			
0.8892	56911.99	3.2600	3.2599	-0.1831	26.66	0.77	-0.750			
0.8898	56946.45	3.2570	3.2570	-0.1782	26.67	0.78	-0.750			
0.8903	56979.84	3.2540	3.2541	-0.1751	26.67	0.78	-0.750			
0.8908	57013.42	3.2510	3.2509	-0.1731	26.67	0.78	-0.750			
0.8913	57046.37	3.2480	3.2481	-0.1702	26.68	0.79	-0.750			
0.8919	57078.62	3.2450	3.2449	-0.1666	26.68	0.79	-0.750			
0.8923	57110.27	3.2420	3.2420	-0.1641	26.68	0.79	-0.750			
0.8928	57141.39	3.2390	3.2392	-0.1613	26.69	0.80	-0.750			
0.8933	57172.15	3.2360	3.2359	-0.1590	26.69	0.80	-0.750			
0.8938	57202.77	3.2330	3.2330	-0.1569	26.69	0.80	-0.750			
0.8943	57232.17	3.2300	3.2300	-0.1539	26.70	0.81	-0.750			
0.8947	57261.62	3.2270	3.2270	-0.1518	26.70	0.81	-0.750			
0.8952	57290.56	3.2240	3.2241	-0.1497	26.70	0.81	-0.750			
0.8956	57319.08	3.2210	3.2210	-0.1485	26.70	0.81	-0.750			
0.8961	57347.31	3.2180	3.2180	-0.1463	26.71	0.82	-0.750			
0.8965	57375.21	3.2150	3.2149	-0.1446	26.71	0.82	-0.750			
0.8969	57402.84	3.2120	3.2120	-0.1431	26.71	0.82	-0.750			
0.8973	57430.27	3.2090	3.2091	-0.1415	26.72	0.83	-0.750			
0.8978	57457.28	3.2060	3.2058	-0.1398	26.72	0.83	-0.750			
0.8982	57483.90	3.2030	3.2032	-0.1383	26.72	0.83	-0.750			
0.8986	57510.40	3.2000	3.2000	-0.1368	26.73	0.84	-0.750			
0.8990	57536.22	3.1970	3.1971	-0.1349	26.73	0.84	-0.750			
0.8994	57562.18	3.1940	3.1938	-0.1339	26.74	0.85	-0.750			
0.8998	57587.74	3.1910	3.1911	-0.1323	26.74	0.85	-0.750			
0.9002	57613.03	3.1880	3.1879	-0.1306	26.75	0.86	-0.750			
0.9006	57638.05	3.1850	3.1850	-0.1291	26.75	0.86	-0.750			
0.9010	57662.58	3.1820	3.1821	-0.1277	26.75	0.86	-0.750			
0.9014	57686.85	3.1790	3.1790	-0.1260	26.76	0.87	-0.750			
0.9017	57710.83	3.1760	3.1760	-0.1252	26.76	0.87	-0.750			
0.9021	57734.61	3.1730	3.1729	-0.1242	26.77	0.88	-0.750			
0.9025	57758.39	3.1700	3.1699	-0.1235	26.77	0.88	-0.750			
0.9028	57781.97	3.1670	3.1671	-0.1227	26.78	0.89	-0.750			
0.9032	57805.49	3.1640	3.1640	-0.1222	26.78	0.89	-0.750			
0.9036	57829.13	3.1610	3.1611	-0.1211	26.79	0.90	-0.750			
0.9039	57852.41	3.1580	3.1579	-0.1201	26.79	0.90	-0.750			
0.9043	57875.21	3.1550	3.1550	-0.1192	26.79	0.90	-0.750			
0.9047	57897.94	3.1520	3.1521	-0.1181	26.80	0.91	-0.750			
0.9050	57920.55	3.1490	3.1489	-0.1169	26.80	0.91	-0.750			
0.9054	57942.90	3.1460	3.1460	-0.1159	26.81	0.92	-0.750			
0.9057	57964.87	3.1430	3.1431	-0.1150	26.81	0.92	-0.750			
0.9060	57986.89	3.1400	3.1400	-0.1144	26.82	0.93	-0.750			
0.9064	58009.03	3.1370	3.1370	-0.1135	26.82	0.93	-0.750			
0.9067	58030.71	3.1340	3.1338	-0.1123	26.82	0.93	-0.750			
0.9071	58051.99	3.1310	3.1311	-0.1113	26.83	0.94	-0.750			
0.9074	58073.27	3.1280	3.1281	-0.1105	26.83	0.94	-0.750			
0.9077	58094.41	3.1250	3.1250	-0.1099	26.83	0.94	-0.750			
0.9081	58115.43	3.1220	3.1219	-0.1090	26.84	0.95	-0.750			
0.9084	58136.23	3.1190	3.1191	-0.1085	26.84	0.95	-0.750			
0.9087	58156.76	3.1160	3.1159	-0.1078	26.84	0.95	-0.750			
0.9090	58177.52	3.1130	3.1129	-0.1070	26.84	0.95	-0.750			
0.9093	58198.20	3.1100	3.1101	-0.1066	26.85	0.96	-0.750			
0.9097	58218.61	3.1070	3.1071	-0.1056	26.85	0.96	-0.750			
0.9100	58238.83	3.1040	3.1039	-0.1047	26.85	0.96	-0.750			
0.9103	58258.70	3.1010	3.1011	-0.1044	26.86	0.97	-0.750			
0.9106	58278.61	3.0980	3.0979	-0.1037	26.86	0.97	-0.750			
0.9109	58298.50	3.0950	3.0950	-0.1032	26.86	0.97	-0.750			
0.9112	58318.11	3.0920	3.0919	-0.1025	26.87	0.98	-0.750			
0.9115	58337.89	3.0890	3.0890	-0.1017	26.87	0.98	-0.750			
0.9118	58357.50	3.0860	3.0859	-0.1012	26.88	0.99	-0.750			
0.9121	58376.80	3.0830	3.0831	-0.1006	26.88	0.99	-0.750			
0.9124	58396.18	3.0800	3.0800	-0.1000	26.89	1.00	-0.750			
0.9127	58415.20	3.0770	3.0770	-0.0994	26.89	1.00	-0.750			
0.9130	58434.00	3.0740	3.0740	-0.0984	26.90	1.01	-0.750			
0.9133	58452.93	3.0710	3.0710	-0.0979	26.90	1.01	-0.750			
0.9136	58471.68	3.0680	3.0680	-0.0974	26.91	1.02	-0.750			
0.9139	58490.26	3.0650	3.0650	-0.0971	26.91	1.02	-0.750			
0.9142	58508.91	3.0620	3.0620	-0.0968	26.92	1.03	-0.750			
0.9145	58527.48	3.0590	3.0592	-0.0963	26.92	1.03	-0.750			
0.9148	58545.87	3.0560	3.0560	-0.0957	26.92	1.03	-0.750			
0.9151	58564.25	3.0530	3.0529	-0.0952	26.93	1.04	-0.750			
0.9154	58582.51	3.0500	3.0500	-0.0948	26.93	1.04	-0.750			
0.9156	58600.67	3.0470	3.0471	-0.0943	26.94	1.05	-0.750			
0.9159	58618.82	3.0440	3.0440	-0.0939	26.94	1.05	-0.750			
0.9162	58636.78	3.0410	3.0410	-0.0932	26.95	1.06	-0.750			
0.9165	58654.53	3.0380	3.0379	-0.0924	26.95	1.06	-0.750			
0.9168	58672.22	3.0350	3.0351	-0.0919	26.96	1.07	-0.750			
0.9170	58689.76	3.0320	3.0320	-0.0916	26.96	1.07	-0.750			
0.9173	58707.32	3.0290	3.0290	-0.0913	26.96	1.07	-0.750			
0.9176	58724.73	3.0260	3.0261	-0.0909	26.97	1.08	-0.750			
0.9178	58742.16	3.0230	3.0229	-0.0907	26.97	1.08	-0.750			
0.9181	58759.66	3.0200	3.0201	-0.0901	26.98	1.09	-0.750			
0.9184	58776.91	3.0170	3.0169	-0.0896	26.98	1.09	-0.750			
0.9187	58794.17	3.0140	3.0138	-0.0884	26.98	1.09	-0.750			
0.9189	58811.42	3.0110	3.0112	-0.0875	26.99	1.10	-0.751			
0.9192	58828.08	3.0080	3.0080	-0.0861	26.99	1.10	-0.751			
0.9194	58844.59	3.0050	3.0050	-0.0839	27.00	1.11	-0.751			
0.9197	58860.50	3.0020	3.0021	-0.0819	27.00	1.11	-0.751			
