Ah_balance (normalized)	Ah_balance (mAh)	Voltage - fit (V)	Voltage -  interpolate (V)	dQ/dV (1/V)	Temperature (°C)	Temperature - diff (°C)	Current (C)	R_DC 0ms (mOhm)	R_DC 50ms (mOhm)	R_DC 50 ms PEC (mOhm)
0.0002	14.84	4.1570	4.1566	-0.1070	25.06	0.01	-0.750			
0.0006	38.02	4.1540	4.1539	-0.1396	25.06	0.01	-0.750			
0.0011	68.35	4.1510	4.1509	-0.1779	25.06	0.01	-0.750			
0.0017	107.34	4.1480	4.1480	-0.2135	25.06	0.01	-0.750			
0.0024	151.78	4.1450	4.1449	-0.2481	25.06	0.01	-0.750			
0.0032	202.96	4.1420	4.1421	-0.2801	25.06	0.01	-0.750			
0.0041	260.80	4.1390	4.1390	-0.3127	25.06	0.01	-0.750			
0.0051	324.04	4.1360	4.1360	-0.3444	25.06	0.01	-0.750			
0.0062	394.37	4.1330	4.1329	-0.3722	25.05	0.00	-0.750			
0.0073	468.69	4.1300	4.1300	-0.3992	25.05	0.00	-0.750			
0.0086	548.35	4.1270	4.1271	-0.4260	25.05	0.00	-0.750			
0.0099	632.60	4.1240	4.1241	-0.4503	25.05	-0.00	-0.750			
0.0113	721.90	4.1210	4.1208	-0.4720	25.05	-0.00	-0.750			
0.0127	814.81	4.1180	4.1180	-0.4913	25.04	-0.01	-0.750			
0.0142	911.57	4.1150	4.1150	-0.5109	25.04	-0.01	-0.750			
0.0158	1011.66	4.1120	4.1120	-0.5304	25.04	-0.01	-0.750			
0.0174	1114.66	4.1090	4.1090	-0.5498	25.04	-0.01	-0.750			
0.0191	1222.48	4.1060	4.1059	-0.5670	25.03	-0.02	-0.750			
0.0208	1333.68	4.1030	4.1030	-0.5833	25.03	-0.02	-0.750			
0.0226	1449.22	4.1000	4.1000	-0.5953	25.03	-0.02	-0.750			
0.0245	1565.18	4.0970	4.0971	-0.6030	25.03	-0.02	-0.750			
0.0263	1682.11	4.0940	4.0940	-0.6097	25.03	-0.02	-0.750			
0.0281	1798.95	4.0910	4.0910	-0.6148	25.03	-0.02	-0.750			
0.0299	1916.52	4.0880	4.0880	-0.6195	25.03	-0.02	-0.750			
0.0318	2036.89	4.0850	4.0849	-0.6254	25.03	-0.02	-0.750			
0.0337	2158.01	4.0820	4.0822	-0.6333	25.03	-0.02	-0.750			
0.0356	2280.74	4.0790	4.0790	-0.6392	25.03	-0.02	-0.750			
0.0376	2404.20	4.0760	4.0760	-0.6452	25.03	-0.02	-0.750			
0.0395	2528.33	4.0730	4.0730	-0.6524	25.03	-0.02	-0.750			
0.0415	2654.08	4.0700	4.0700	-0.6548	25.04	-0.01	-0.750			
0.0434	2780.70	4.0670	4.0669	-0.6575	25.04	-0.01	-0.750			
0.0454	2907.71	4.0640	4.0641	-0.6625	25.04	-0.01	-0.750			
0.0474	3034.55	4.0610	4.0610	-0.6624	25.04	-0.01	-0.750			
0.0494	3162.68	4.0580	4.0579	-0.6648	25.04	-0.01	-0.750			
0.0514	3288.85	4.0550	4.0551	-0.6718	25.04	-0.01	-0.750			
0.0534	3417.12	4.0520	4.0521	-0.6749	25.05	-0.00	-0.750			
0.0555	3549.48	4.0490	4.0489	-0.6838	25.05	-0.00	-0.750			
0.0575	3681.31	4.0460	4.0459	-0.6870	25.05	-0.00	-0.750			
0.0596	3813.98	4.0430	4.0430	-0.6875	25.05	0.00	-0.750			
0.0617	3946.64	4.0400	4.0400	-0.6892	25.05	0.00	-0.750			
0.0637	4078.58	4.0370	4.0370	-0.6898	25.06	0.01	-0.750			
0.0658	4209.53	4.0340	4.0340	-0.6886	25.06	0.01	-0.750			
0.0679	4343.02	4.0310	4.0310	-0.6928	25.06	0.01	-0.750			
0.0699	4475.86	4.0280	4.0280	-0.6964	25.07	0.02	-0.750			
0.0720	4610.09	4.0250	4.0250	-0.6983	25.07	0.02	-0.750			
0.0742	4745.82	4.0220	4.0220	-0.7024	25.07	0.02	-0.750			
0.0762	4879.50	4.0190	4.0191	-0.7086	25.07	0.02	-0.750			
0.0784	5016.77	4.0160	4.0160	-0.7074	25.08	0.03	-0.750			
0.0805	5153.44	4.0130	4.0130	-0.7082	25.08	0.03	-0.750			
0.0826	5289.27	4.0100	4.0100	-0.7106	25.08	0.03	-0.750			
0.0848	5425.34	4.0070	4.0070	-0.7109	25.08	0.03	-0.750			
0.0869	5562.51	4.0040	4.0039	-0.7135	25.09	0.04	-0.750			
0.0891	5699.39	4.0010	4.0010	-0.7168	25.09	0.04	-0.750			
0.0912	5837.46	3.9980	3.9980	-0.7135	25.09	0.04	-0.750			
0.0934	5976.62	3.9950	3.9950	-0.7131	25.10	0.05	-0.750			
0.0955	6113.06	3.9920	3.9922	-0.7134	25.10	0.05	-0.750			
0.0976	6248.64	3.9890	3.9889	-0.7174	25.10	0.05	-0.750			
0.0998	6384.59	3.9860	3.9857	-0.7229	25.11	0.06	-0.750			
0.1019	6523.60	3.9830	3.9830	-0.7318	25.11	0.06	-0.750			
0.1041	6664.91	3.9800	3.9801	-0.7364	25.11	0.06	-0.750			
0.1064	6812.44	3.9770	3.9769	-0.7484	25.12	0.07	-0.750			
0.1087	6956.78	3.9740	3.9741	-0.7482	25.12	0.07	-0.750			
0.1109	7098.46	3.9710	3.9710	-0.7464	25.12	0.07	-0.750			
0.1131	7241.45	3.9680	3.9680	-0.7475	25.13	0.08	-0.750			
0.1154	7385.14	3.9650	3.9650	-0.7447	25.13	0.08	-0.750			
0.1176	7529.58	3.9620	3.9619	-0.7478	25.13	0.08	-0.750			
0.1199	7672.57	3.9590	3.9590	-0.7442	25.14	0.09	-0.750			
0.1221	7815.14	3.9560	3.9561	-0.7454	25.14	0.09	-0.750			
0.1243	7956.37	3.9530	3.9530	-0.7499	25.14	0.09	-0.750			
0.1266	8100.16	3.9500	3.9499	-0.7474	25.14	0.09	-0.750			
0.1288	8244.81	3.9470	3.9470	-0.7506	25.15	0.10	-0.750			
0.1311	8389.94	3.9440	3.9440	-0.7573	25.15	0.10	-0.750			
0.1334	8536.78	3.9410	3.9413	-0.7599	25.15	0.10	-0.750			
0.1357	8683.22	3.9380	3.9379	-0.7608	25.16	0.11	-0.750			
0.1379	8827.08	3.9350	3.9349	-0.7626	25.16	0.11	-0.750			
0.1402	8974.06	3.9320	3.9320	-0.7642	25.17	0.12	-0.750			
0.1425	9122.66	3.9290	3.9289	-0.7711	25.17	0.12	-0.750			
0.1448	9269.69	3.9260	3.9260	-0.7698	25.18	0.13	-0.750			
0.1472	9418.23	3.9230	3.9230	-0.7699	25.18	0.13	-0.750			
0.1495	9566.25	3.9200	3.9200	-0.7724	25.19	0.14	-0.750			
0.1518	9714.09	3.9170	3.9170	-0.7729	25.19	0.14	-0.750			
0.1541	9862.36	3.9140	3.9140	-0.7707	25.19	0.14	-0.750			
0.1564	10011.60	3.9110	3.9109	-0.7716	25.20	0.15	-0.750			
0.1587	10159.25	3.9080	3.9082	-0.7719	25.20	0.15	-0.750			
0.1610	10307.16	3.9050	3.9050	-0.7738	25.20	0.15	-0.750			
0.1634	10457.33	3.9020	3.9019	-0.7716	25.20	0.15	-0.750			
0.1657	10605.21	3.8990	3.8990	-0.7673	25.21	0.16	-0.750			
0.1680	10751.48	3.8960	3.8960	-0.7661	25.21	0.16	-0.750			
0.1703	10898.38	3.8930	3.8929	-0.7672	25.21	0.16	-0.750			
0.1726	11044.13	3.8900	3.8899	-0.7695	25.21	0.16	-0.750			
0.1749	11191.13	3.8870	3.8870	-0.7716	25.22	0.17	-0.750			
0.1772	11338.90	3.8840	3.8840	-0.7777	25.22	0.17	-0.750			
0.1795	11490.88	3.8810	3.8810	-0.7806	25.23	0.18	-0.750			
0.1819	11641.59	3.8780	3.8779	-0.7852	25.24	0.19	-0.750			
0.1842	11791.96	3.8750	3.8751	-0.7869	25.24	0.19	-0.750			
0.1866	11943.42	3.8720	3.8719	-0.7879	25.24	0.19	-0.750			
0.1890	12093.89	3.8690	3.8690	-0.7925	25.24	0.19	-0.750			
0.1914	12248.08	3.8660	3.8659	-0.7943	25.24	0.19	-0.750			
0.1938	12400.84	3.8630	3.8630	-0.7959	25.24	0.19	-0.750			
0.1962	12555.41	3.8600	3.8601	-0.7947	25.24	0.19	-0.750			
0.1985	12707.20	3.8570	3.8570	-0.7902	25.24	0.19	-0.750			
0.2009	12858.99	3.8540	3.8539	-0.7881	25.25	0.20	-0.750			
0.2033	13008.84	3.8510	3.8510	-0.7864	25.25	0.20	-0.750			
0.2056	13159.12	3.8480	3.8479	-0.7844	25.26	0.21	-0.750			
0.2080	13310.24	3.8450	3.8449	-0.7815	25.26	0.21	-0.750			
0.2103	13460.10	3.8420	3.8420	-0.7776	25.26	0.21	-0.750			
0.2126	13608.69	3.8390	3.8390	-0.7794	25.27	0.22	-0.750			
0.2150	13757.73	3.8360	3.8361	-0.7787	25.27	0.22	-0.750			
0.2173	13907.26	3.8330	3.8329	-0.7785	25.27	0.22	-0.750			
0.2196	14057.47	3.8300	3.8300	-0.7766	25.28	0.23	-0.750			
0.2220	14207.29	3.8270	3.8271	-0.7788	25.28	0.23	-0.750			
0.2243	14357.22	3.8240	3.8240	-0.7800	25.29	0.24	-0.750			
0.2267	14506.58	3.8210	3.8210	-0.7765	25.29	0.24	-0.750			
0.2290	14653.68	3.8180	3.8179	-0.7700	25.29	0.24	-0.750			
0.2313	14802.29	3.8150	3.8149	-0.7690	25.30	0.25	-0.750			
0.2336	14951.15	3.8120	3.8123	-0.7654	25.30	0.25	-0.750			
0.2359	15096.97	3.8090	3.8090	-0.7623	25.30	0.25	-0.750			
0.2382	15242.38	3.8060	3.8061	-0.7611	25.30	0.25	-0.750			
0.2405	15389.73	3.8030	3.8030	-0.7561	25.31	0.26	-0.750			
0.2427	15534.13	3.8000	3.7999	-0.7513	25.31	0.26	-0.750			
0.2450	15678.06	3.7970	3.7970	-0.7473	25.31	0.26	-0.750			
0.2472	15821.27	3.7940	3.7940	-0.7438	25.31	0.26	-0.750			
0.2494	15963.01	3.7910	3.7909	-0.7423	25.32	0.27	-0.750			
0.2516	16104.43	3.7880	3.7880	-0.7370	25.32	0.27	-0.750			
0.2538	16245.99	3.7850	3.7850	-0.7343	25.33	0.28	-0.750			
0.2561	16388.74	3.7820	3.7821	-0.7344	25.33	0.28	-0.750			
0.2583	16529.64	3.7790	3.7791	-0.7296	25.34	0.29	-0.750			
0.2604	16668.49	3.7760	3.7759	-0.7278	25.34	0.29	-0.750			
0.2626	16806.93	3.7730	3.7730	-0.7248	25.34	0.29	-0.750			
0.2648	16945.61	3.7700	3.7700	-0.7284	25.34	0.29	-0.750			
0.2670	17086.55	3.7670	3.7670	-0.7277	25.34	0.29	-0.750			
0.2692	17228.23	3.7640	3.7640	-0.7271	25.34	0.29	-0.750			
0.2714	17367.55	3.7610	3.7612	-0.7255	25.34	0.29	-0.750			
0.2735	17506.59	3.7580	3.7580	-0.7249	25.34	0.29	-0.750			
0.2757	17643.22	3.7550	3.7550	-0.7334	25.35	0.30	-0.750			
0.2779	17782.80	3.7520	3.7520	-0.7372	25.35	0.30	-0.750			
0.2801	17926.75	3.7490	3.7489	-0.7477	25.35	0.30	-0.750			
0.2824	18071.08	3.7460	3.7460	-0.7532	25.36	0.31	-0.750			
0.2847	18217.71	3.7430	3.7430	-0.7607	25.36	0.31	-0.750			
0.2869	18363.39	3.7400	3.7400	-0.7682	25.36	0.31	-0.750			
0.2892	18510.95	3.7370	3.7369	-0.7719	25.36	0.31	-0.750			
0.2915	18658.01	3.7340	3.7340	-0.7769	25.37	0.32	-0.750			
0.2939	18810.04	3.7310	3.7310	-0.7879	25.37	0.32	-0.750			
0.2963	18961.38	3.7280	3.7281	-0.8010	25.37	0.32	-0.750			
0.2987	19115.66	3.7250	3.7250	-0.8122	25.37	0.32	-0.750			
0.3011	19272.10	3.7220	3.7220	-0.8282	25.37	0.32	-0.750			
0.3036	19432.41	3.7190	3.7190	-0.8421	25.37	0.32	-0.750			
0.3062	19596.94	3.7160	3.7160	-0.8595	25.37	0.32	-0.750			
0.3088	19763.66	3.7130	3.7132	-0.8711	25.37	0.32	-0.750			
0.3114	19932.01	3.7100	3.7100	-0.8893	25.37	0.32	-0.750			
0.3141	20103.84	3.7070	3.7070	-0.8970	25.37	0.32	-0.750			
0.3168	20276.44	3.7040	3.7040	-0.9106	25.36	0.31	-0.750			
0.3196	20452.88	3.7010	3.7009	-0.9286	25.36	0.31	-0.750			
0.3224	20631.96	3.6980	3.6980	-0.9429	25.36	0.31	-0.750			
0.3252	20814.09	3.6950	3.6950	-0.9590	25.35	0.30	-0.750			
0.3281	20999.44	3.6920	3.6919	-0.9779	25.35	0.30	-0.750			
0.3311	21187.75	3.6890	3.6891	-0.9932	25.34	0.29	-0.750			
0.3341	21381.39	3.6860	3.6860	-1.0188	25.34	0.29	-0.750			
0.3372	21579.65	3.6830	3.6830	-1.0312	25.33	0.28	-0.750			
0.3403	21780.21	3.6800	3.6800	-1.0447	25.33	0.28	-0.750			
0.3435	21981.92	3.6770	3.6770	-1.0618	25.32	0.27	-0.750			
0.3466	22184.25	3.6740	3.6741	-1.0862	25.32	0.27	-0.750			
0.3499	22395.56	3.6710	3.6709	-1.1049	25.31	0.26	-0.750			
0.3533	22610.16	3.6680	3.6679	-1.1251	25.31	0.26	-0.750			
0.3567	22828.00	3.6650	3.6650	-1.1437	25.30	0.25	-0.750			
0.3602	23052.71	3.6620	3.6620	-1.1722	25.30	0.25	-0.750			
0.3637	23279.06	3.6590	3.6590	-1.1878	25.29	0.24	-0.750			
0.3673	23508.43	3.6560	3.6559	-1.1995	25.29	0.24	-0.750			
0.3709	23737.09	3.6530	3.6532	-1.2218	25.28	0.23	-0.750			
0.3746	23976.20	3.6500	3.6500	-1.2556	25.27	0.22	-0.750			
0.3784	24219.17	3.6470	3.6469	-1.2771	25.27	0.22	-0.750			
0.3823	24466.08	3.6440	3.6439	-1.3081	25.26	0.21	-0.750			
0.3863	24721.96	3.6410	3.6410	-1.3381	25.26	0.21	-0.750			
0.3903	24981.27	3.6380	3.6379	-1.3600	25.25	0.20	-0.750			
0.3945	25245.74	3.6350	3.6350	-1.3869	25.24	0.19	-0.750			
0.3986	25512.43	3.6320	3.6319	-1.4022	25.24	0.19	-0.750			
0.4029	25784.79	3.6290	3.6289	-1.4267	25.23	0.18	-0.750			
0.4072	26060.40	3.6260	3.6260	-1.4571	25.22	0.17	-0.750			
0.4116	26339.35	3.6230	3.6230	-1.4781	25.22	0.17	-0.750			
0.4160	26626.79	3.6200	3.6200	-1.5239	25.21	0.16	-0.750			
0.4207	26923.54	3.6170	3.6170	-1.5497	25.20	0.15	-0.750			
0.4254	27225.77	3.6140	3.6139	-1.5711	25.20	0.15	-0.750			
0.4302	27535.30	3.6110	3.6113	-1.6082	25.20	0.15	-0.750	0.393	0.560	
0.4351	27844.67	3.6080	3.6078	-1.6363	25.20	0.15	-0.750			
0.4400	28160.00	3.6050	3.6050	-1.6639	25.19	0.14	-0.750			
0.4451	28485.19	3.6020	3.6021	-1.6938	25.18	0.13	-0.750			
0.4502	28809.73	3.5990	3.5990	-1.7275	25.17	0.12	-0.750			
0.4555	29150.21	3.5960	3.5960	-1.7616	25.16	0.11	-0.750			
0.4608	29489.63	3.5930	3.5931	-1.7966	25.15	0.10	-0.750			
0.4662	29833.61	3.5900	3.5899	-1.8352	25.15	0.10	-0.750			
0.4717	30189.09	3.5870	3.5872	-1.8791	25.15	0.10	-0.750			
0.4775	30557.96	3.5840	3.5842	-1.9327	25.15	0.10	-0.750			
0.4833	30933.31	3.5810	3.5810	-1.9543	25.15	0.10	-0.750			
0.4893	31314.47	3.5780	3.5781	-1.9910	25.15	0.10	-0.750			
0.4954	31702.93	3.5750	3.5751	-2.0173	25.15	0.10	-0.750			
0.5015	32096.98	3.5720	3.5717	-2.0259	25.15	0.10	-0.750			
0.5075	32481.88	3.5690	3.5692	-2.0303	25.15	0.10	-0.750			
0.5136	32868.42	3.5660	3.5660	-2.0570	25.15	0.10	-0.750			
0.5198	33270.20	3.5630	3.5629	-2.0632	25.14	0.09	-0.750			
0.5260	33665.23	3.5600	3.5600	-2.0644	25.14	0.09	-0.750			
0.5323	34069.50	3.5570	3.5570	-2.0849	25.14	0.09	-0.750			
0.5386	34469.27	3.5540	3.5539	-2.0963	25.14	0.09	-0.750			
0.5450	34878.33	3.5510	3.5511	-2.0985	25.14	0.09	-0.750			
0.5513	35281.82	3.5480	3.5481	-2.0854	25.14	0.09	-0.750			
0.5575	35681.12	3.5450	3.5452	-2.0650	25.14	0.09	-0.750			
0.5637	36078.04	3.5420	3.5422	-2.0499	25.14	0.09	-0.750			
0.5698	36464.94	3.5390	3.5390	-2.0474	25.15	0.10	-0.750			
0.5759	36854.58	3.5360	3.5359	-2.0305	25.15	0.10	-0.750			
0.5819	37242.04	3.5330	3.5330	-2.0082	25.15	0.10	-0.750			
0.5880	37629.65	3.5300	3.5299	-1.9855	25.16	0.11	-0.750			
0.5940	38014.91	3.5270	3.5271	-1.9674	25.17	0.12	-0.750			
0.5999	38392.09	3.5240	3.5239	-1.9475	25.17	0.12	-0.750			
0.6057	38762.24	3.5210	3.5208	-1.9037	25.18	0.13	-0.750			
0.6113	39124.57	3.5180	3.5182	-1.8611	25.18	0.13	-0.750			
0.6170	39486.21	3.5150	3.5149	-1.8257	25.19	0.14	-0.750			
0.6224	39831.38	3.5120	3.5120	-1.7700	25.20	0.15	-0.750			
0.6276	40164.43	3.5090	3.5091	-1.7211	25.21	0.16	-0.750			
0.6327	40494.28	3.5060	3.5061	-1.6830	25.22	0.17	-0.750			
0.6376	40807.20	3.5030	3.5030	-1.6245	25.23	0.18	-0.750			
0.6424	41115.05	3.5000	3.4999	-1.6020	25.24	0.19	-0.750			
0.6472	41419.14	3.4970	3.4970	-1.5458	25.25	0.20	-0.750			
0.6517	41709.08	3.4940	3.4940	-1.5024	25.26	0.21	-0.750			
0.6561	41993.33	3.4910	3.4909	-1.4674	25.27	0.22	-0.750			
0.6605	42271.97	3.4880	3.4879	-1.4205	25.29	0.24	-0.750			
0.6648	42544.19	3.4850	3.4850	-1.3837	25.30	0.25	-0.750			
0.6688	42803.92	3.4820	3.4820	-1.3459	25.31	0.26	-0.750			
0.6728	43061.56	3.4790	3.4789	-1.3115	25.33	0.28	-0.750			
0.6767	43307.04	3.4760	3.4759	-1.2632	25.35	0.30	-0.750			
0.6803	43542.12	3.4730	3.4730	-1.2131	25.36	0.31	-0.750			
0.6839	43767.92	3.4700	3.4703	-1.1793	25.38	0.33	-0.750			
0.6874	43996.08	3.4670	3.4669	-1.1460	25.40	0.35	-0.750			
0.6908	44211.73	3.4640	3.4639	-1.1045	25.41	0.36	-0.750			
0.6940	44418.37	3.4610	3.4610	-1.0685	25.42	0.37	-0.750			
0.6972	44620.96	3.4580	3.4581	-1.0404	25.43	0.38	-0.750			
0.7003	44816.31	3.4550	3.4549	-1.0080	25.45	0.40	-0.750			
0.7032	45006.38	3.4520	3.4520	-0.9765	25.46	0.41	-0.750			
0.7061	45188.44	3.4490	3.4490	-0.9466	25.47	0.42	-0.750			
0.7089	45370.11	3.4460	3.4461	-0.9302	25.48	0.43	-0.750			
0.7116	45545.40	3.4430	3.4430	-0.9074	25.49	0.44	-0.750			
0.7143	45716.19	3.4400	3.4399	-0.8862	25.50	0.45	-0.750			
0.7169	45883.96	3.4370	3.4371	-0.8678	25.51	0.46	-0.750			
0.7195	46048.47	3.4340	3.4340	-0.8587	25.52	0.47	-0.750			
0.7221	46211.51	3.4310	3.4311	-0.8490	25.53	0.48	-0.750			
0.7245	46371.11	3.4280	3.4280	-0.8463	25.54	0.49	-0.750			
0.7271	46533.81	3.4250	3.4250	-0.8451	25.55	0.50	-0.750			
0.7296	46696.05	3.4220	3.4220	-0.8451	25.56	0.51	-0.750			
0.7322	46859.44	3.4190	3.4189	-0.8475	25.57	0.52	-0.750			
0.7347	47022.97	3.4160	3.4160	-0.8509	25.58	0.53	-0.750			
0.7373	47185.58	3.4130	3.4130	-0.8518	25.59	0.54	-0.750			
0.7398	47348.67	3.4100	3.4100	-0.8534	25.60	0.55	-0.750			
0.7424	47511.94	3.4070	3.4070	-0.8509	25.60	0.55	-0.750			
0.7450	47678.67	3.4040	3.4040	-0.8506	25.61	0.56	-0.750			
0.7475	47842.95	3.4010	3.4010	-0.8464	25.61	0.56	-0.750			
0.7501	48004.85	3.3980	3.3980	-0.8390	25.62	0.57	-0.750			
0.7526	48166.18	3.3950	3.3950	-0.8247	25.63	0.58	-0.750			
0.7551	48323.86	3.3920	3.3919	-0.8069	25.63	0.58	-0.750			
0.7575	48478.05	3.3890	3.3891	-0.7869	25.64	0.59	-0.750			
0.7598	48628.62	3.3860	3.3860	-0.7654	25.64	0.59	-0.750			
0.7621	48773.24	3.3830	3.3830	-0.7405	25.65	0.60	-0.750			
0.7643	48912.50	3.3800	3.3800	-0.7176	25.65	0.60	-0.750			
0.7664	49047.44	3.3770	3.3770	-0.6956	25.66	0.61	-0.750			
0.7684	49179.13	3.3740	3.3740	-0.6757	25.66	0.61	-0.750			
0.7704	49306.61	3.3710	3.3711	-0.6560	25.67	0.62	-0.750			
0.7724	49430.64	3.3680	3.3679	-0.6345	25.67	0.62	-0.750			
0.7742	49550.94	3.3650	3.3650	-0.6147	25.68	0.63	-0.750			
0.7760	49666.59	3.3620	3.3620	-0.5929	25.69	0.64	-0.750			
0.7778	49776.92	3.3590	3.3590	-0.5736	25.69	0.64	-0.750			
0.7795	49886.75	3.3560	3.3560	-0.5545	25.70	0.65	-0.750			
0.7811	49991.20	3.3530	3.3530	-0.5361	25.70	0.65	-0.750			
0.7827	50091.82	3.3500	3.3500	-0.5174	25.71	0.66	-0.750			
0.7842	50189.83	3.3470	3.3470	-0.5007	25.71	0.66	-0.750			
0.7857	50283.56	3.3440	3.3440	-0.4857	25.72	0.67	-0.750			
0.7871	50374.94	3.3410	3.3409	-0.4721	25.72	0.67	-0.750			
0.7885	50463.42	3.3380	3.3380	-0.4568	25.73	0.68	-0.750			
0.7899	50550.85	3.3350	3.3351	-0.4468	25.73	0.68	-0.750			
0.7912	50635.42	3.3320	3.3319	-0.4328	25.73	0.68	-0.750			
0.7925	50717.26	3.3290	3.3290	-0.4216	25.74	0.69	-0.750			
0.7937	50796.59	3.3260	3.3260	-0.4086	25.74	0.69	-0.750			
0.7949	50873.19	3.3230	3.3230	-0.3967	25.75	0.70	-0.750			
0.7961	50948.52	3.3200	3.3200	-0.3855	25.75	0.70	-0.750			
0.7972	51021.74	3.3170	3.3170	-0.3759	25.76	0.71	-0.750			
0.7983	51092.73	3.3140	3.3140	-0.3653	25.76	0.71	-0.750			
0.7994	51161.88	3.3110	3.3110	-0.3577	25.77	0.72	-0.750			
0.8005	51228.81	3.3080	3.3080	-0.3482	25.77	0.72	-0.750			
0.8015	51295.42	3.3050	3.3050	-0.3412	25.78	0.73	-0.750			
0.8025	51360.01	3.3020	3.3021	-0.3339	25.78	0.73	-0.750			
0.8035	51423.68	3.2990	3.2990	-0.3274	25.79	0.74	-0.750			
0.8045	51485.69	3.2960	3.2960	-0.3191	25.79	0.74	-0.750			
0.8054	51546.40	3.2930	3.2930	-0.3130	25.80	0.75	-0.750			
0.8063	51605.59	3.2900	3.2900	-0.3054	25.80	0.75	-0.750			
0.8072	51663.51	3.2870	3.2870	-0.2997	25.80	0.75	-0.750			
0.8081	51720.32	3.2840	3.2840	-0.2945	25.81	0.76	-0.750			
0.8090	51776.30	3.2810	3.2809	-0.2885	25.81	0.76	-0.750			
0.8099	51831.23	3.2780	3.2780	-0.2829	25.82	0.77	-0.750			
0.8107	51884.76	3.2750	3.2750	-0.2786	25.82	0.77	-0.750			
0.8115	51937.41	3.2720	3.2721	-0.2739	25.83	0.78	-0.750			
0.8123	51990.22	3.2690	3.2689	-0.2702	25.83	0.78	-0.750			
0.8131	52041.19	3.2660	3.2660	-0.2652	25.84	0.79	-0.750			
0.8139	52091.84	3.2630	3.2631	-0.2616	25.84	0.79	-0.750			
0.8147	52142.21	3.2600	3.2599	-0.2573	25.85	0.80	-0.750			
0.8155	52191.17	3.2570	3.2570	-0.2526	25.85	0.80	-0.750			
0.8162	52238.56	3.2540	3.2541	-0.2483	25.86	0.81	-0.750			
0.8170	52285.90	3.2510	3.2510	-0.2455	25.86	0.81	-0.750			
0.8177	52332.42	3.2480	3.2479	-0.2434	25.87	0.82	-0.750			
0.8184	52378.90	3.2450	3.2450	-0.2408	25.87	0.82	-0.750			
0.8191	52425.12	3.2420	3.2420	-0.2381	25.88	0.83	-0.750			
0.8199	52470.97	3.2390	3.2390	-0.2352	25.88	0.83	-0.750			
0.8206	52516.34	3.2360	3.2361	-0.2323	25.89	0.84	-0.750			
0.8213	52560.42	3.2330	3.2330	-0.2290	25.89	0.84	-0.750			
0.8219	52603.96	3.2300	3.2300	-0.2257	25.90	0.85	-0.750			
0.8226	52646.98	3.2270	3.2269	-0.2224	25.90	0.85	-0.750			
0.8233	52688.94	3.2240	3.2240	-0.2187	25.91	0.86	-0.750			
0.8239	52730.80	3.2210	3.2210	-0.2165	25.91	0.86	-0.750			
0.8246	52771.70	3.2180	3.2182	-0.2148	25.92	0.87	-0.750			
0.8252	52812.78	3.2150	3.2149	-0.2132	25.93	0.88	-0.750			
0.8258	52853.71	3.2120	3.2119	-0.2097	25.93	0.88	-0.750			
0.8265	52893.57	3.2090	3.2090	-0.2074	25.94	0.89	-0.750			
0.8271	52933.29	3.2060	3.2061	-0.2054	25.94	0.89	-0.750			
0.8277	52972.50	3.2030	3.2031	-0.2030	25.95	0.90	-0.750			
0.8283	53011.31	3.2000	3.1997	-0.2018	25.95	0.90	-0.750			
0.8289	53049.59	3.1970	3.1970	-0.1997	25.96	0.91	-0.750			
0.8295	53087.48	3.1940	3.1940	-0.1974	25.96	0.91	-0.750			
0.8301	53125.31	3.1910	3.1910	-0.1967	25.97	0.92	-0.750			
0.8307	53163.65	3.1880	3.1880	-0.1948	25.97	0.92	-0.750			
0.8313	53200.83	3.1850	3.1850	-0.1920	25.98	0.93	-0.750			
0.8318	53237.62	3.1820	3.1820	-0.1896	25.98	0.93	-0.750			
0.8324	53273.65	3.1790	3.1790	-0.1867	25.99	0.94	-0.750			
0.8330	53308.89	3.1760	3.1761	-0.1843	25.99	0.94	-0.750			
0.8335	53343.95	3.1730	3.1732	-0.1820	25.99	0.94	-0.750			
0.8340	53378.52	3.1700	3.1700	-0.1797	26.00	0.95	-0.750			
0.8346	53412.82	3.1670	3.1669	-0.1785	26.00	0.95	-0.750			
0.8351	53446.98	3.1640	3.1640	-0.1772	26.01	0.96	-0.750			
0.8356	53480.84	3.1610	3.1610	-0.1759	26.01	0.96	-0.750			
0.8362	53514.52	3.1580	3.1580	-0.1745	26.02	0.97	-0.750			
0.8367	53548.09	3.1550	3.1551	-0.1730	26.03	0.98	-0.750			
0.8372	53581.08	3.1520	3.1519	-0.1711	26.03	0.98	-0.750			
0.8377	53613.83	3.1490	3.1491	-0.1691	26.04	0.99	-0.750			
0.8382	53646.14	3.1460	3.1460	-0.1680	26.04	0.99	-0.750			
0.8387	53678.10	3.1430	3.1430	-0.1659	26.05	1.00	-0.750			
0.8392	53709.81	3.1400	3.1399	-0.1644	26.06	1.01	-0.750			
0.8397	53741.23	3.1370	3.1370	-0.1624	26.06	1.01	-0.750			
0.8402	53772.09	3.1340	3.1341	-0.1613	26.07	1.02	-0.750			
0.8407	53803.15	3.1310	3.1309	-0.1598	26.07	1.02	-0.750			
0.8411	53833.59	3.1280	3.1280	-0.1583	26.08	1.03	-0.750			
0.8416	53863.86	3.1250	3.1248	-0.1567	26.08	1.03	-0.750			
0.8421	53893.69	3.1220	3.1221	-0.1546	26.09	1.04	-0.750			
0.8426	53923.31	3.1190	3.1190	-0.1536	26.09	1.04	-0.750			
0.8430	53952.65	3.1160	3.1160	-0.1520	26.10	1.05	-0.750			
0.8435	53981.62	3.1130	3.1130	-0.1511	26.10	1.05	-0.750			
0.8439	54010.12	3.1100	3.1100	-0.1501	26.10	1.05	-0.750			
0.8444	54039.21	3.1070	3.1070	-0.1494	26.11	1.06	-0.750			
0.8448	54067.75	3.1040	3.1040	-0.1484	26.11	1.06	-0.750			
0.8453	54096.28	3.1010	3.1009	-0.1468	26.11	1.06	-0.750			
0.8457	54124.58	3.0980	3.0980	-0.1459	26.12	1.07	-0.750			
0.8461	54152.46	3.0950	3.0951	-0.1442	26.12	1.07	-0.750			
0.8466	54179.99	3.0920	3.0919	-0.1421	26.13	1.08	-0.750			
0.8470	54206.83	3.0890	3.0890	-0.1412	26.13	1.08	-0.750			
0.8474	54233.30	3.0860	3.0861	-0.1403	26.14	1.09	-0.750			
0.8478	54260.26	3.0830	3.0829	-0.1405	26.15	1.10	-0.750			
0.8482	54287.29	3.0800	3.0800	-0.1396	26.15	1.10	-0.750			
0.8487	54314.30	3.0770	3.0770	-0.1384	26.16	1.11	-0.750			
0.8491	54341.00	3.0740	3.0740	-0.1372	26.16	1.11	-0.750			
0.8495	54367.18	3.0710	3.0712	-0.1355	26.17	1.12	-0.750			
0.8499	54393.36	3.0680	3.0679	-0.1347	26.17	1.12	-0.750			
0.8503	54418.71	3.0650	3.0650	-0.1330	26.18	1.13	-0.750			
0.8507	54443.84	3.0620	3.0619	-0.1313	26.19	1.14	-0.750			
0.8511	54469.00	3.0590	3.0590	-0.1308	26.19	1.14	-0.750			
0.8515	54494.05	3.0560	3.0561	-0.1306	26.20	1.15	-0.750			
0.8519	54519.32	3.0530	3.0530	-0.1295	26.20	1.15	-0.750			
0.8523	54544.19	3.0500	3.0500	-0.1285	26.21	1.16	-0.750			
0.8526	54568.66	3.0470	3.0470	-0.1275	26.21	1.16	-0.750			
0.8530	54592.97	3.0440	3.0440	-0.1264	26.22	1.17	-0.750			
0.8534	54617.11	3.0410	3.0410	-0.1257	26.22	1.17	-0.750			
0.8538	54641.09	3.0380	3.0378	-0.1248	26.23	1.18	-0.750			
0.8541	54664.97	3.0350	3.0350	-0.1242	26.23	1.18	-0.750			
0.8545	54688.47	3.0320	3.0320	-0.1234	26.24	1.19	-0.750			
0.8549	54712.53	3.0290	3.0290	-0.1230	26.25	1.20	-0.750			
0.8552	54735.64	3.0260	3.0260	-0.1228	26.25	1.20	-0.750			
0.8556	54758.94	3.0230	3.0232	-0.1221	26.26	1.21	-0.750			
0.8560	54782.56	3.0200	3.0199	-0.1217	26.26	1.21	-0.750			
0.8563	54805.82	3.0170	3.0170	-0.1213	26.27	1.22	-0.750			
0.8567	54829.24	3.0140	3.0141	-0.1204	26.27	1.22	-0.750			
0.8571	54852.57	3.0110	3.0111	-0.1199	26.28	1.23	-0.750			
0.8574	54875.47	3.0080	3.0081	-0.1187	26.28	1.23	-0.750			
0.8578	54898.64	3.0050	3.0048	-0.1151	26.29	1.24	-0.751			
0.8581	54920.41	3.0020	3.0020	-0.1116	26.29	1.24	-0.751			
