Ah_balance (normalized)	Ah_balance (mAh)	Voltage - fit (V)	Voltage -  interpolate (V)	dQ/dV (1/V)	Temperature (°C)	Temperature - diff (°C)	Current (C)	R_DC 0ms (mOhm)	R_DC 50ms (mOhm)	R_DC 50 ms PEC (mOhm)
0.0507	3247.35	4.1980	4.1980	0.7906	26.49	0.54	0.750			
0.0531	3401.52	4.1950	4.1950	0.8046	26.49	0.54	0.750			
0.0556	3556.76	4.1920	4.1920	0.7932	26.49	0.54	0.750			
0.0579	3706.22	4.1890	4.1892	0.7777	26.48	0.53	0.750			
0.0602	3855.98	4.1860	4.1860	0.7845	26.48	0.53	0.750			
0.0625	3999.88	4.1830	4.1830	0.7705	26.48	0.53	0.750			
0.0648	4145.46	4.1800	4.1800	0.7691	26.48	0.53	0.750			
0.0671	4293.38	4.1770	4.1771	0.7692	26.49	0.54	0.750			
0.0694	4443.35	4.1740	4.1741	0.7732	26.49	0.54	0.750			
0.0717	4591.95	4.1710	4.1710	0.7750	26.49	0.54	0.750			
0.0741	4740.03	4.1680	4.1680	0.7717	26.50	0.55	0.750			
0.0764	4886.77	4.1650	4.1648	0.7742	26.50	0.55	0.750			
0.0787	5035.25	4.1620	4.1621	0.7776	26.50	0.55	0.750			
0.0810	5186.75	4.1590	4.1589	0.7760	26.49	0.54	0.750			
0.0834	5337.27	4.1560	4.1560	0.7795	26.49	0.54	0.750			
0.0857	5486.10	4.1530	4.1530	0.7788	26.49	0.54	0.750			
0.0880	5634.25	4.1500	4.1500	0.7776	26.48	0.53	0.750			
0.0904	5784.14	4.1470	4.1470	0.7789	26.48	0.53	0.750			
0.0927	5932.55	4.1440	4.1440	0.7790	26.48	0.53	0.750			
0.0950	6082.97	4.1410	4.1410	0.7839	26.48	0.53	0.750			
0.0974	6235.44	4.1380	4.1380	0.7905	26.49	0.54	0.750			
0.0998	6385.94	4.1350	4.1351	0.7882	26.49	0.54	0.750			
0.1022	6537.87	4.1320	4.1320	0.7914	26.49	0.54	0.750			
0.1045	6690.31	4.1290	4.1291	0.7967	26.49	0.54	0.750			
0.1069	6844.29	4.1260	4.1259	0.7881	26.49	0.54	0.750			
0.1093	6993.82	4.1230	4.1232	0.7912	26.50	0.55	0.750			
0.1117	7145.66	4.1200	4.1201	0.7930	26.50	0.55	0.750			
0.1140	7297.85	4.1170	4.1167	0.7949	26.50	0.55	0.750			
0.1164	7450.44	4.1140	4.1141	0.7980	26.50	0.55	0.750			
0.1188	7604.03	4.1110	4.1110	0.7954	26.50	0.55	0.750			
0.1212	7757.81	4.1080	4.1080	0.8017	26.50	0.55	0.750			
0.1236	7911.84	4.1050	4.1050	0.8021	26.50	0.55	0.750			
0.1260	8064.72	4.1020	4.1019	0.8058	26.50	0.55	0.750			
0.1285	8221.07	4.0990	4.0990	0.8080	26.50	0.55	0.750			
0.1309	8379.15	4.0960	4.0960	0.7994	26.50	0.55	0.750			
0.1333	8532.43	4.0930	4.0931	0.8048	26.50	0.55	0.750			
0.1357	8685.99	4.0900	4.0900	0.8107	26.50	0.55	0.750			
0.1381	8838.15	4.0870	4.0869	0.8104	26.50	0.55	0.750			
0.1405	8994.48	4.0840	4.0840	0.8211	26.50	0.55	0.750			
0.1431	9155.72	4.0810	4.0810	0.8157	26.50	0.55	0.750			
0.1455	9313.64	4.0780	4.0780	0.8224	26.50	0.55	0.750			
0.1480	9473.84	4.0750	4.0751	0.8322	26.50	0.55	0.750			
0.1505	9630.00	4.0720	4.0721	0.8255	26.50	0.55	0.750			
0.1529	9788.48	4.0690	4.0690	0.8291	26.50	0.55	0.750			
0.1555	9948.93	4.0660	4.0662	0.8246	26.50	0.55	0.750			
0.1579	10107.29	4.0630	4.0630	0.8288	26.50	0.55	0.750			
0.1605	10270.00	4.0600	4.0601	0.8417	26.50	0.55	0.750			
0.1629	10427.00	4.0570	4.0569	0.8382	26.50	0.55	0.750			
0.1654	10588.38	4.0540	4.0540	0.8434	26.50	0.55	0.750			
0.1680	10753.44	4.0510	4.0512	0.8440	26.50	0.55	0.750			
0.1706	10915.98	4.0480	4.0480	0.8493	26.50	0.55	0.750			
0.1731	11081.06	4.0450	4.0450	0.8481	26.50	0.55	0.750			
0.1757	11243.31	4.0420	4.0419	0.8478	26.50	0.55	0.750			
0.1782	11404.59	4.0390	4.0390	0.8511	26.50	0.55	0.750			
0.1808	11568.69	4.0360	4.0361	0.8496	26.51	0.56	0.750			
0.1833	11732.19	4.0330	4.0330	0.8570	26.51	0.56	0.750			
0.1859	11896.44	4.0300	4.0300	0.8606	26.52	0.57	0.750			
0.1885	12063.43	4.0270	4.0268	0.8700	26.52	0.57	0.750			
0.1911	12230.89	4.0240	4.0242	0.8767	26.52	0.57	0.750			
0.1938	12400.26	4.0210	4.0210	0.8734	26.52	0.57	0.750			
0.1964	12568.88	4.0180	4.0180	0.8746	26.52	0.57	0.750			
0.1990	12735.19	4.0150	4.0151	0.8751	26.52	0.57	0.750			
0.2016	12904.06	4.0120	4.0120	0.8788	26.52	0.57	0.750			
0.2043	13074.12	4.0090	4.0090	0.8784	26.52	0.57	0.750			
0.2069	13243.19	4.0060	4.0060	0.8805	26.52	0.57	0.750			
0.2096	13412.81	4.0030	4.0031	0.8874	26.52	0.57	0.750			
0.2123	13584.69	4.0000	4.0001	0.8930	26.52	0.57	0.750			
0.2149	13752.77	3.9970	3.9970	0.8955	26.52	0.57	0.750			
0.2176	13926.21	3.9940	3.9940	0.8922	26.52	0.57	0.750			
0.2203	14098.41	3.9910	3.9910	0.8975	26.52	0.57	0.750			
0.2230	14270.59	3.9880	3.9880	0.9014	26.52	0.57	0.750			
0.2257	14444.68	3.9850	3.9850	0.9009	26.52	0.57	0.750			
0.2284	14618.38	3.9820	3.9819	0.8955	26.52	0.57	0.750			
0.2311	14789.49	3.9790	3.9791	0.8986	26.52	0.57	0.750			
0.2338	14961.34	3.9760	3.9761	0.9060	26.52	0.57	0.750			
0.2365	15136.61	3.9730	3.9730	0.9160	26.52	0.57	0.750			
0.2392	15310.80	3.9700	3.9698	0.9108	26.52	0.57	0.750			
0.2420	15488.36	3.9670	3.9670	0.9084	26.52	0.57	0.750			
0.2447	15663.68	3.9640	3.9641	0.9211	26.52	0.57	0.750			
0.2475	15841.04	3.9610	3.9611	0.9213	26.52	0.57	0.750			
0.2502	16014.77	3.9580	3.9579	0.9203	26.52	0.57	0.750			
0.2530	16192.24	3.9550	3.9550	0.9249	26.52	0.57	0.750			
0.2558	16370.52	3.9520	3.9521	0.9202	26.52	0.57	0.750			
0.2586	16548.43	3.9490	3.9490	0.9242	26.52	0.57	0.750			
0.2614	16726.70	3.9460	3.9461	0.9303	26.52	0.57	0.750			
0.2641	16902.42	3.9430	3.9426	0.9272	26.52	0.57	0.750			
0.2669	17083.18	3.9400	3.9401	0.9231	26.52	0.57	0.750			
0.2697	17258.90	3.9370	3.9370	0.9296	26.52	0.57	0.750			
0.2725	17438.22	3.9340	3.9341	0.9394	26.52	0.57	0.750			
0.2753	17617.35	3.9310	3.9310	0.9348	26.52	0.57	0.750			
0.2781	17800.33	3.9280	3.9280	0.9363	26.52	0.57	0.750			
0.2809	17979.51	3.9250	3.9251	0.9394	26.52	0.57	0.750			
0.2838	18161.06	3.9220	3.9221	0.9466	26.52	0.57	0.750			
0.2867	18345.68	3.9190	3.9190	0.9510	26.52	0.57	0.750			
0.2894	18524.39	3.9160	3.9159	0.9438	26.52	0.57	0.750			
0.2923	18706.36	3.9130	3.9130	0.9435	26.52	0.57	0.750			
0.2951	18886.67	3.9100	3.9101	0.9538	26.52	0.57	0.750			
0.2980	19070.34	3.9070	3.9070	0.9601	26.52	0.57	0.750			
0.3009	19254.62	3.9040	3.9038	0.9627	26.52	0.57	0.750			
0.3038	19442.21	3.9010	3.9011	0.9632	26.52	0.57	0.750			
0.3067	19628.54	3.8980	3.8981	0.9641	26.52	0.57	0.750			
0.3096	19813.93	3.8950	3.8950	0.9658	26.52	0.57	0.750			
0.3124	19996.33	3.8920	3.8921	0.9631	26.52	0.57	0.750			
0.3154	20182.78	3.8890	3.8889	0.9632	26.52	0.57	0.750			
0.3182	20367.93	3.8860	3.8859	0.9699	26.51	0.56	0.750			
0.3212	20554.25	3.8830	3.8831	0.9785	26.51	0.56	0.750			
0.3241	20745.19	3.8800	3.8802	0.9906	26.50	0.55	0.750			
0.3271	20933.90	3.8770	3.8770	0.9913	26.50	0.55	0.750			
0.3301	21125.29	3.8740	3.8740	0.9926	26.49	0.54	0.750			
0.3330	21314.01	3.8710	3.8711	0.9966	26.49	0.54	0.750			
0.3361	21507.42	3.8680	3.8681	1.0070	26.48	0.53	0.750			
0.3391	21701.67	3.8650	3.8648	1.0131	26.48	0.53	0.750			
0.3421	21895.61	3.8620	3.8620	1.0125	26.47	0.52	0.750			
0.3451	22089.44	3.8590	3.8591	1.0297	26.47	0.52	0.750			
0.3483	22288.93	3.8560	3.8560	1.0422	26.46	0.51	0.750			
0.3514	22491.50	3.8530	3.8526	1.0411	26.46	0.51	0.750			
0.3545	22688.88	3.8500	3.8502	1.0709	26.45	0.50	0.750			
0.3578	22896.07	3.8470	3.8471	1.0970	26.45	0.50	0.750			
0.3611	23112.59	3.8440	3.8439	1.1134	26.44	0.49	0.750			
0.3645	23330.09	3.8410	3.8408	1.1162	26.44	0.49	0.750			
0.3679	23545.18	3.8380	3.8382	1.1286	26.43	0.48	0.750			
0.3714	23768.66	3.8350	3.8350	1.1399	26.43	0.48	0.750			
0.3748	23987.94	3.8320	3.8319	1.1328	26.42	0.47	0.750			
0.3781	24199.25	3.8290	3.8291	1.1143	26.41	0.46	0.750			
0.3815	24413.61	3.8260	3.8261	1.1262	26.40	0.45	0.750			
0.3849	24631.05	3.8230	3.8230	1.1343	26.39	0.44	0.750			
0.3883	24849.92	3.8200	3.8199	1.1423	26.37	0.42	0.750			
0.3917	25067.07	3.8170	3.8171	1.1470	26.36	0.41	0.750			
0.3952	25290.03	3.8140	3.8140	1.1595	26.35	0.40	0.750			
0.3987	25516.78	3.8110	3.8111	1.1661	26.35	0.40	0.750			
0.4022	25742.04	3.8080	3.8079	1.1567	26.34	0.39	0.750			
0.4057	25961.84	3.8050	3.8051	1.1686	26.32	0.37	0.750			
0.4092	26186.21	3.8020	3.8020	1.1740	26.31	0.36	0.750			
0.4127	26412.38	3.7990	3.7989	1.1788	26.29	0.34	0.750			
0.4162	26639.74	3.7960	3.7961	1.1883	26.28	0.33	0.750			
0.4198	26868.53	3.7930	3.7931	1.2012	26.27	0.32	0.750			
0.4234	27099.62	3.7900	3.7901	1.2190	26.26	0.31	0.750			
0.4271	27334.50	3.7870	3.7869	1.2235	26.25	0.30	0.750			
0.4308	27572.89	3.7840	3.7840	1.2359	26.24	0.29	0.750			
0.4346	27813.80	3.7810	3.7810	1.2486	26.22	0.27	0.750			
0.4384	28057.71	3.7780	3.7780	1.2387	26.21	0.26	0.750			
0.4421	28294.33	3.7750	3.7750	1.2527	26.20	0.25	0.750			
0.4458	28532.88	3.7720	3.7720	1.2649	26.19	0.24	0.750			
0.4495	28770.49	3.7690	3.7691	1.2788	26.18	0.23	0.750			
0.4533	29012.95	3.7660	3.7663	1.3333	26.16	0.21	0.750			
0.4574	29274.27	3.7630	3.7631	1.3816	26.15	0.20	0.750			
0.4617	29547.73	3.7600	3.7604	1.4176	26.14	0.19	0.750	0.319	0.402	
0.4661	29827.59	3.7570	3.7572	1.4654	26.12	0.17	0.750			
0.4705	30112.34	3.7540	3.7541	1.4948	26.11	0.16	0.750			
0.4751	30408.06	3.7510	3.7509	1.4926	26.09	0.14	0.750			
0.4796	30691.50	3.7480	3.7481	1.5049	26.08	0.13	0.750			
0.4841	30979.90	3.7450	3.7452	1.5315	26.07	0.12	0.750			
0.4887	31276.24	3.7420	3.7418	1.5832	26.06	0.11	0.750			
0.4935	31580.85	3.7390	3.7392	1.6322	26.05	0.10	0.750			
0.4984	31899.49	3.7360	3.7362	1.6700	26.04	0.09	0.750			
0.5036	32228.02	3.7330	3.7332	1.7394	26.02	0.07	0.750			
0.5089	32570.85	3.7300	3.7300	1.7845	26.01	0.06	0.750			
0.5143	32917.29	3.7270	3.7271	1.8288	25.99	0.04	0.750			
0.5198	33268.82	3.7240	3.7240	1.8820	25.97	0.02	0.750			
0.5254	33628.55	3.7210	3.7209	1.9215	25.95	0.00	0.750			
0.5313	34004.12	3.7180	3.7180	1.9796	25.93	-0.02	0.750			
0.5375	34398.24	3.7150	3.7150	2.0423	25.91	-0.04	0.750			
0.5436	34788.89	3.7120	3.7120	2.0990	25.89	-0.06	0.750			
0.5500	35199.68	3.7090	3.7090	2.1585	25.87	-0.08	0.750			
0.5565	35617.80	3.7060	3.7060	2.2286	25.86	-0.09	0.750			
0.5633	36053.51	3.7030	3.7028	2.2838	25.85	-0.10	0.750			
0.5703	36498.24	3.7000	3.7001	2.3551	25.83	-0.12	0.750			
0.5775	36961.79	3.6970	3.6971	2.4199	25.81	-0.14	0.750			
0.5849	37430.51	3.6940	3.6939	2.4629	25.78	-0.17	0.750			
0.5923	37904.54	3.6910	3.6911	2.5477	25.76	-0.19	0.750			
0.6000	38397.53	3.6880	3.6878	2.6297	25.75	-0.20	0.750			
0.6081	38915.54	3.6850	3.6850	2.7099	25.73	-0.22	0.750			
0.6163	39443.79	3.6820	3.6820	2.7863	25.72	-0.23	0.750			
0.6248	39989.12	3.6790	3.6791	2.8742	25.70	-0.25	0.750			
0.6335	40544.49	3.6760	3.6760	2.9678	25.69	-0.26	0.750			
0.6426	41125.46	3.6730	3.6731	3.0698	25.67	-0.28	0.750			
0.6521	41736.66	3.6700	3.6699	3.1329	25.66	-0.29	0.750			
0.6616	42339.37	3.6670	3.6669	3.0813	25.66	-0.29	0.750			
0.6708	42931.59	3.6640	3.6640	3.0066	25.65	-0.30	0.750			
0.6798	43506.25	3.6610	3.6608	2.8477	25.65	-0.30	0.750			
0.6882	44047.89	3.6580	3.6582	2.6282	25.65	-0.30	0.750			
0.6956	44520.73	3.6550	3.6552	2.3565	25.65	-0.30	0.750			
0.7022	44941.20	3.6520	3.6517	2.1089	25.65	-0.30	0.750			
0.7078	45301.26	3.6490	3.6489	1.8776	25.66	-0.29	0.750			
0.7130	45633.97	3.6460	3.6458	1.7119	25.66	-0.29	0.750			
0.7178	45942.02	3.6430	3.6428	1.5777	25.66	-0.29	0.750			
0.7224	46236.70	3.6400	3.6402	1.4653	25.66	-0.29	0.750			
0.7267	46508.00	3.6370	3.6370	1.3602	25.66	-0.29	0.750			
0.7305	46751.65	3.6340	3.6340	1.2898	25.66	-0.29	0.750			
0.7341	46982.64	3.6310	3.6311	1.2226	25.67	-0.28	0.750			
0.7377	47212.07	3.6280	3.6278	1.2046	25.67	-0.28	0.750			
0.7412	47439.52	3.6250	3.6250	1.1970	25.67	-0.28	0.750			
0.7448	47667.98	3.6220	3.6221	1.2078	25.67	-0.28	0.750			
0.7484	47900.77	3.6190	3.6190	1.2184	25.68	-0.27	0.750			
0.7522	48138.45	3.6160	3.6160	1.2087	25.68	-0.27	0.750			
0.7558	48370.57	3.6130	3.6130	1.2080	25.68	-0.27	0.750			
0.7594	48603.77	3.6100	3.6101	1.2141	25.68	-0.27	0.750			
0.7631	48839.03	3.6070	3.6068	1.1972	25.68	-0.27	0.750			
0.7667	49068.09	3.6040	3.6040	1.1833	25.68	-0.27	0.750			
0.7702	49290.72	3.6010	3.6011	1.1726	25.68	-0.27	0.750			
0.7737	49515.29	3.5980	3.5982	1.1718	25.68	-0.27	0.750			
0.7772	49741.04	3.5950	3.5949	1.1563	25.68	-0.27	0.750			
0.7806	49958.65	3.5920	3.5920	1.1748	25.69	-0.26	0.750			
0.7840	50179.05	3.5890	3.5891	1.1976	25.69	-0.26	0.750			
0.7877	50413.50	3.5860	3.5859	1.2372	25.70	-0.25	0.750			
0.7915	50653.56	3.5830	3.5831	1.2770	25.70	-0.25	0.750			
0.7953	50900.59	3.5800	3.5801	1.3207	25.70	-0.25	0.750			
0.7994	51163.26	3.5770	3.5770	1.3576	25.70	-0.25	0.750			
0.8037	51434.69	3.5740	3.5739	1.3866	25.70	-0.25	0.750			
0.8078	51696.29	3.5710	3.5711	1.4337	25.71	-0.24	0.750			
0.8122	51978.23	3.5680	3.5680	1.4581	25.71	-0.24	0.750			
0.8166	52262.69	3.5650	3.5648	1.4979	25.71	-0.24	0.750			
0.8212	52555.07	3.5620	3.5623	1.5155	25.70	-0.25	0.750			
0.8257	52846.19	3.5590	3.5590	1.5448	25.70	-0.25	0.750			
0.8304	53146.18	3.5560	3.5564	1.5780	25.70	-0.25	0.750			
0.8351	53448.29	3.5530	3.5532	1.6137	25.70	-0.25	0.750			
0.8399	53754.70	3.5500	3.5498	1.6401	25.70	-0.25	0.750			
0.8449	54076.34	3.5470	3.5468	1.6817	25.70	-0.25	0.750			
0.8502	54409.99	3.5440	3.5440	1.7021	25.71	-0.24	0.750			
0.8553	54740.38	3.5410	3.5408	1.7204	25.71	-0.24	0.750			
0.8604	55067.37	3.5380	3.5381	1.7250	25.72	-0.23	0.750			
0.8656	55398.85	3.5350	3.5351	1.7496	25.72	-0.23	0.750			
0.8711	55748.73	3.5320	3.5320	1.7387	25.73	-0.22	0.750			
0.8765	56098.35	3.5290	3.5288	1.6641	25.74	-0.21	0.750			
0.8819	56442.32	3.5260	3.5259	1.4778	25.76	-0.19	0.750			
0.8863	56721.34	3.5230	3.5236	1.2361	25.78	-0.17	0.750			
0.8897	56937.92	3.5200	3.5202	0.9924	25.79	-0.16	0.750			
0.8919	57081.15	3.5170	3.5165	0.7241	25.81	-0.14	0.750			
0.8932	57164.57	3.5140	3.5136	0.5314	25.81	-0.14	0.750			
0.8944	57242.77	3.5110	3.5106	0.4306	25.82	-0.13	0.750			
0.8954	57303.84	3.5080	3.5080	0.3674	25.83	-0.12	0.750			
0.8964	57371.58	3.5050	3.5049	0.3426	25.83	-0.12	0.750			
0.8974	57432.54	3.5020	3.5020	0.3214	25.84	-0.11	0.750			
0.8983	57491.65	3.4990	3.4990	0.3061	25.84	-0.11	0.750			
0.8992	57547.89	3.4960	3.4960	0.2933	25.85	-0.10	0.750			
0.9001	57603.52	3.4930	3.4929	0.2853	25.85	-0.10	0.750			
0.9009	57656.21	3.4900	3.4900	0.2774	25.86	-0.09	0.750			
0.9017	57709.06	3.4870	3.4870	0.2735	25.86	-0.09	0.750			
0.9025	57761.11	3.4840	3.4840	0.2691	25.87	-0.08	0.750			
0.9033	57812.28	3.4810	3.4811	0.2638	25.87	-0.08	0.750			
0.9041	57862.35	3.4780	3.4779	0.2595	25.88	-0.07	0.750			
0.9049	57912.13	3.4750	3.4751	0.2545	25.89	-0.06	0.750			
0.9056	57960.31	3.4720	3.4720	0.2503	25.89	-0.06	0.750			
0.9064	58007.92	3.4690	3.4688	0.2444	25.90	-0.05	0.750			
0.9071	58054.75	3.4660	3.4660	0.2400	25.90	-0.05	0.750			
0.9078	58100.35	3.4630	3.4629	0.2336	25.91	-0.04	0.750			
0.9085	58144.63	3.4600	3.4601	0.2277	25.91	-0.04	0.750			
0.9092	58187.78	3.4570	3.4570	0.2249	25.92	-0.03	0.750			
0.9098	58230.21	3.4540	3.4540	0.2201	25.92	-0.03	0.750			
0.9105	58272.38	3.4510	3.4508	0.2150	25.93	-0.02	0.750			
0.9111	58312.86	3.4480	3.4479	0.2100	25.93	-0.02	0.750			
0.9118	58353.13	3.4450	3.4452	0.2064	25.94	-0.01	0.750			
0.9124	58392.27	3.4420	3.4420	0.2022	25.94	-0.01	0.750			
0.9130	58430.96	3.4390	3.4388	0.1979	25.94	-0.01	0.750			
0.9136	58468.20	3.4360	3.4359	0.1935	25.95	-0.00	0.750			
0.9141	58504.11	3.4330	3.4332	0.1884	25.95	0.00	0.750			
0.9147	58540.34	3.4300	3.4301	0.1843	25.96	0.01	0.750			
0.9152	58575.82	3.4270	3.4269	0.1801	25.96	0.01	0.750			
0.9158	58609.43	3.4240	3.4241	0.1746	25.96	0.01	0.750			
0.9163	58642.53	3.4210	3.4211	0.1701	25.97	0.02	0.750			
0.9168	58674.68	3.4180	3.4180	0.1657	25.97	0.02	0.750			
0.9173	58706.31	3.4150	3.4149	0.1611	25.98	0.03	0.750			
0.9178	58736.80	3.4120	3.4120	0.1554	25.98	0.03	0.750			
0.9182	58766.15	3.4090	3.4091	0.1504	25.98	0.03	0.750			
0.9187	58794.93	3.4060	3.4061	0.1450	25.99	0.04	0.750			
0.9191	58822.35	3.4030	3.4030	0.1395	25.99	0.04	0.750			
0.9195	58848.34	3.4000	3.4000	0.1330	25.99	0.04	0.750			
0.9199	58873.28	3.3970	3.3969	0.1273	25.99	0.04	0.750			
0.9203	58897.07	3.3940	3.3940	0.1216	26.00	0.05	0.750			
0.9206	58920.18	3.3910	3.3910	0.1152	26.00	0.05	0.750			
0.9210	58941.92	3.3880	3.3880	0.1092	26.00	0.05	0.750			
0.9213	58963.30	3.3850	3.3849	0.1001	26.00	0.05	0.750			
0.9216	58982.10	3.3820	3.3820	0.0924	26.01	0.06	0.750			
0.9219	58999.47	3.3790	3.3791	0.0843	26.01	0.06	0.750			
0.9221	59014.67	3.3760	3.3760	0.0740	26.01	0.06	0.750			
0.9223	59028.44	3.3730	3.3734	0.0640	26.01	0.06	0.750			
0.9225	59039.65	3.3700	3.3703	0.0528	26.01	0.06	0.750			
0.9226	59048.72	3.3670	3.3678	0.0416	26.01	0.06	0.750			
0.9227	59055.64	3.3640	3.3652	0.0305	26.01	0.06	0.750			
