Ah_balance (normalized)	Ah_balance (mAh)	Voltage - fit (V)	Voltage -  interpolate (V)	dQ/dV (1/V)	Temperature (°C)	Temperature - diff (°C)	Current (C)	R_DC 0ms (mOhm)	R_DC 50ms (mOhm)	R_DC 50 ms PEC (mOhm)
0.0003	22.11	4.1660	4.1657	-0.1253	25.57	0.01	-0.750			
0.0008	52.49	4.1630	4.1628	-0.1815	25.57	0.01	-0.750			
0.0015	93.06	4.1600	4.1599	-0.2314	25.57	0.01	-0.750			
0.0022	142.61	4.1570	4.1570	-0.2778	25.57	0.01	-0.750			
0.0031	200.75	4.1540	4.1540	-0.3216	25.57	0.01	-0.750			
0.0042	268.03	4.1510	4.1511	-0.3685	25.57	0.01	-0.750			
0.0054	343.01	4.1480	4.1480	-0.4106	25.56	0.00	-0.750			
0.0067	426.21	4.1450	4.1450	-0.4493	25.56	0.00	-0.750			
0.0081	516.73	4.1420	4.1421	-0.4871	25.56	0.00	-0.750			
0.0096	615.24	4.1390	4.1390	-0.5207	25.56	-0.00	-0.750			
0.0112	718.22	4.1360	4.1359	-0.5526	25.56	-0.00	-0.750			
0.0129	828.16	4.1330	4.1330	-0.5785	25.55	-0.01	-0.750			
0.0147	942.04	4.1300	4.1300	-0.6032	25.55	-0.01	-0.750			
0.0166	1061.93	4.1270	4.1270	-0.6265	25.55	-0.01	-0.750			
0.0185	1185.14	4.1240	4.1240	-0.6438	25.54	-0.02	-0.750			
0.0205	1311.11	4.1210	4.1211	-0.6601	25.54	-0.02	-0.750			
0.0225	1439.42	4.1180	4.1180	-0.6748	25.54	-0.02	-0.750			
0.0245	1569.48	4.1150	4.1150	-0.6868	25.53	-0.03	-0.750			
0.0266	1703.96	4.1120	4.1120	-0.7027	25.53	-0.03	-0.750			
0.0288	1841.03	4.1090	4.1089	-0.7088	25.53	-0.03	-0.750			
0.0309	1980.22	4.1060	4.1060	-0.7177	25.52	-0.04	-0.750			
0.0331	2118.91	4.1030	4.1033	-0.7218	25.52	-0.04	-0.750			
0.0353	2257.74	4.1000	4.0999	-0.7260	25.52	-0.04	-0.750			
0.0374	2395.91	4.0970	4.0970	-0.7324	25.51	-0.05	-0.750			
0.0396	2536.26	4.0940	4.0940	-0.7335	25.51	-0.05	-0.750			
0.0419	2679.01	4.0910	4.0909	-0.7449	25.51	-0.05	-0.750			
0.0441	2822.19	4.0880	4.0880	-0.7481	25.50	-0.06	-0.750			
0.0463	2966.35	4.0850	4.0851	-0.7540	25.50	-0.06	-0.750			
0.0486	3111.36	4.0820	4.0819	-0.7579	25.50	-0.06	-0.750			
0.0509	3257.88	4.0790	4.0790	-0.7584	25.50	-0.06	-0.750			
0.0532	3403.19	4.0760	4.0760	-0.7603	25.50	-0.06	-0.750			
0.0555	3551.24	4.0730	4.0730	-0.7629	25.50	-0.06	-0.750			
0.0578	3696.73	4.0700	4.0700	-0.7648	25.50	-0.06	-0.750			
0.0601	3843.30	4.0670	4.0669	-0.7686	25.50	-0.06	-0.750			
0.0623	3989.84	4.0640	4.0639	-0.7734	25.49	-0.07	-0.750			
0.0647	4139.01	4.0610	4.0610	-0.7753	25.49	-0.07	-0.750			
0.0670	4289.02	4.0580	4.0580	-0.7783	25.49	-0.07	-0.750			
0.0694	4439.43	4.0550	4.0550	-0.7827	25.48	-0.08	-0.750			
0.0717	4591.03	4.0520	4.0519	-0.7837	25.48	-0.08	-0.750			
0.0741	4739.49	4.0490	4.0490	-0.7832	25.49	-0.07	-0.750			
0.0764	4890.51	4.0460	4.0460	-0.7868	25.49	-0.07	-0.750			
0.0788	5042.12	4.0430	4.0430	-0.7863	25.49	-0.07	-0.750			
0.0812	5194.22	4.0400	4.0400	-0.7891	25.50	-0.06	-0.750			
0.0835	5345.01	4.0370	4.0372	-0.7909	25.50	-0.06	-0.750			
0.0859	5496.37	4.0340	4.0340	-0.7918	25.50	-0.06	-0.750			
0.0883	5648.93	4.0310	4.0309	-0.7958	25.50	-0.06	-0.750			
0.0906	5801.38	4.0280	4.0280	-0.7976	25.49	-0.07	-0.750			
0.0931	5955.25	4.0250	4.0250	-0.7999	25.49	-0.07	-0.750			
0.0955	6109.78	4.0220	4.0221	-0.8004	25.49	-0.07	-0.750			
0.0979	6263.81	4.0190	4.0190	-0.7989	25.49	-0.07	-0.750			
0.1003	6416.85	4.0160	4.0160	-0.7989	25.49	-0.07	-0.750			
0.1027	6570.18	4.0130	4.0130	-0.7958	25.50	-0.06	-0.750			
0.1050	6721.90	4.0100	4.0100	-0.7969	25.50	-0.06	-0.750			
0.1074	6875.17	4.0070	4.0071	-0.7972	25.50	-0.06	-0.750			
0.1098	7028.21	4.0040	4.0040	-0.8007	25.50	-0.06	-0.750			
0.1122	7182.06	4.0010	4.0010	-0.8049	25.50	-0.06	-0.750			
0.1146	7336.43	3.9980	3.9980	-0.8097	25.50	-0.06	-0.750			
0.1171	7491.80	3.9950	3.9950	-0.8128	25.50	-0.06	-0.750			
0.1195	7649.68	3.9920	3.9919	-0.8172	25.50	-0.06	-0.750			
0.1220	7805.76	3.9890	3.9890	-0.8197	25.50	-0.06	-0.750			
0.1244	7963.12	3.9860	3.9861	-0.8267	25.50	-0.06	-0.750			
0.1269	8122.89	3.9830	3.9828	-0.8287	25.50	-0.06	-0.750			
0.1294	8283.18	3.9800	3.9800	-0.8310	25.50	-0.06	-0.750			
0.1320	8444.93	3.9770	3.9769	-0.8247	25.50	-0.06	-0.750			
0.1344	8603.86	3.9740	3.9741	-0.8262	25.50	-0.06	-0.750			
0.1369	8760.45	3.9710	3.9710	-0.8328	25.51	-0.05	-0.750			
0.1393	8918.27	3.9680	3.9680	-0.8277	25.51	-0.05	-0.750			
0.1418	9076.40	3.9650	3.9648	-0.8295	25.51	-0.05	-0.750			
0.1443	9237.70	3.9620	3.9620	-0.8342	25.52	-0.04	-0.750			
0.1469	9399.77	3.9590	3.9589	-0.8392	25.52	-0.04	-0.750			
0.1494	9561.28	3.9560	3.9560	-0.8467	25.52	-0.04	-0.750			
0.1519	9722.46	3.9530	3.9530	-0.8426	25.52	-0.04	-0.750			
0.1544	9883.60	3.9500	3.9500	-0.8433	25.52	-0.04	-0.750			
0.1570	10048.80	3.9470	3.9470	-0.8511	25.52	-0.04	-0.750			
0.1596	10212.59	3.9440	3.9439	-0.8487	25.52	-0.04	-0.750			
0.1621	10374.82	3.9410	3.9410	-0.8538	25.52	-0.04	-0.750			
0.1647	10538.17	3.9380	3.9380	-0.8542	25.53	-0.03	-0.750			
0.1672	10702.56	3.9350	3.9350	-0.8538	25.53	-0.03	-0.750			
0.1698	10867.05	3.9320	3.9320	-0.8613	25.53	-0.03	-0.750			
0.1724	11032.81	3.9290	3.9290	-0.8621	25.53	-0.03	-0.750			
0.1750	11199.35	3.9260	3.9259	-0.8645	25.54	-0.02	-0.750			
0.1776	11365.46	3.9230	3.9229	-0.8694	25.54	-0.02	-0.750			
0.1802	11531.16	3.9200	3.9200	-0.8697	25.55	-0.01	-0.750			
0.1828	11700.21	3.9170	3.9171	-0.8767	25.55	-0.01	-0.750			
0.1854	11868.77	3.9140	3.9139	-0.8777	25.55	-0.01	-0.750			
0.1881	12036.59	3.9110	3.9110	-0.8735	25.55	-0.01	-0.750			
0.1907	12205.65	3.9080	3.9080	-0.8752	25.55	-0.01	-0.750			
0.1933	12372.34	3.9050	3.9049	-0.8749	25.55	-0.01	-0.750			
0.1959	12540.23	3.9020	3.9023	-0.8743	25.55	-0.01	-0.750			
0.1986	12708.35	3.8990	3.8990	-0.8786	25.55	-0.01	-0.750			
0.2012	12877.36	3.8960	3.8960	-0.8791	25.55	-0.01	-0.750			
0.2039	13046.96	3.8930	3.8930	-0.8816	25.56	-0.00	-0.750			
0.2065	13216.24	3.8900	3.8900	-0.8830	25.56	-0.00	-0.750			
0.2091	13385.59	3.8870	3.8870	-0.8819	25.56	0.00	-0.750			
0.2118	13554.61	3.8840	3.8840	-0.8827	25.57	0.01	-0.750			
0.2144	13724.34	3.8810	3.8810	-0.8855	25.57	0.01	-0.750			
0.2171	13893.44	3.8780	3.8781	-0.8875	25.57	0.01	-0.750			
0.2198	14064.76	3.8750	3.8749	-0.8925	25.58	0.02	-0.750			
0.2224	14236.33	3.8720	3.8720	-0.8958	25.58	0.02	-0.750			
0.2252	14409.85	3.8690	3.8690	-0.8960	25.58	0.02	-0.750			
0.2278	14581.57	3.8660	3.8660	-0.8981	25.58	0.02	-0.750			
0.2305	14754.44	3.8630	3.8630	-0.8950	25.58	0.02	-0.750			
0.2332	14926.83	3.8600	3.8601	-0.8926	25.58	0.02	-0.750			
0.2359	15096.29	3.8570	3.8570	-0.8949	25.58	0.02	-0.750			
0.2386	15267.25	3.8540	3.8541	-0.8938	25.59	0.03	-0.750			
0.2412	15438.88	3.8510	3.8509	-0.8968	25.59	0.03	-0.750			
0.2440	15613.10	3.8480	3.8479	-0.8988	25.60	0.04	-0.750			
0.2466	15784.61	3.8450	3.8450	-0.8990	25.60	0.04	-0.750			
0.2494	15958.80	3.8420	3.8421	-0.9106	25.60	0.04	-0.750			
0.2521	16134.00	3.8390	3.8390	-0.9114	25.60	0.04	-0.750			
0.2548	16308.77	3.8360	3.8358	-0.9081	25.60	0.04	-0.750			
0.2576	16485.61	3.8330	3.8332	-0.9099	25.60	0.04	-0.750			
0.2603	16659.39	3.8300	3.8299	-0.9091	25.60	0.04	-0.750			
0.2630	16833.74	3.8270	3.8270	-0.9073	25.61	0.05	-0.750			
0.2657	17005.36	3.8240	3.8240	-0.9028	25.61	0.05	-0.750			
0.2684	17177.85	3.8210	3.8210	-0.9033	25.62	0.06	-0.750			
0.2711	17353.37	3.8180	3.8180	-0.9089	25.62	0.06	-0.750			
0.2739	17529.00	3.8150	3.8150	-0.9119	25.63	0.07	-0.750			
0.2766	17705.23	3.8120	3.8120	-0.9137	25.63	0.07	-0.750			
0.2794	17880.59	3.8090	3.8089	-0.9092	25.63	0.07	-0.750			
0.2821	18055.30	3.8060	3.8062	-0.9083	25.64	0.08	-0.750			
0.2848	18229.03	3.8030	3.8029	-0.9079	25.64	0.08	-0.750			
0.2876	18403.30	3.8000	3.7999	-0.9138	25.65	0.09	-0.750			
0.2903	18578.77	3.7970	3.7970	-0.9132	25.65	0.09	-0.750			
0.2930	18753.06	3.7940	3.7940	-0.9137	25.66	0.10	-0.750			
0.2958	18931.65	3.7910	3.7912	-0.9173	25.66	0.10	-0.750			
0.2986	19107.79	3.7880	3.7879	-0.9193	25.66	0.10	-0.750			
0.3013	19282.39	3.7850	3.7850	-0.9147	25.66	0.10	-0.750			
0.3040	19457.06	3.7820	3.7819	-0.9127	25.66	0.10	-0.750			
0.3068	19633.68	3.7790	3.7790	-0.9170	25.66	0.10	-0.750			
0.3095	19809.91	3.7760	3.7760	-0.9132	25.66	0.10	-0.750			
0.3123	19984.71	3.7730	3.7730	-0.9146	25.67	0.11	-0.750			
0.3150	20160.68	3.7700	3.7700	-0.9121	25.68	0.12	-0.750			
0.3177	20334.39	3.7670	3.7670	-0.9088	25.69	0.13	-0.750			
0.3205	20510.00	3.7640	3.7640	-0.9090	25.70	0.14	-0.750			
0.3232	20682.55	3.7610	3.7610	-0.9135	25.70	0.14	-0.750			
0.3259	20858.69	3.7580	3.7580	-0.9137	25.70	0.14	-0.750			
0.3287	21035.00	3.7550	3.7549	-0.9147	25.70	0.14	-0.750			
0.3314	21209.85	3.7520	3.7519	-0.9148	25.70	0.14	-0.750			
0.3342	21386.25	3.7490	3.7491	-0.9202	25.70	0.14	-0.750			
0.3369	21562.94	3.7460	3.7460	-0.9241	25.71	0.15	-0.750			
0.3397	21740.98	3.7430	3.7429	-0.9276	25.71	0.15	-0.750			
0.3425	21917.69	3.7400	3.7400	-0.9229	25.71	0.15	-0.750			
0.3453	22097.13	3.7370	3.7371	-0.9333	25.72	0.16	-0.750			
0.3481	22275.95	3.7340	3.7340	-0.9429	25.72	0.16	-0.750			
0.3509	22457.86	3.7310	3.7308	-0.9466	25.72	0.16	-0.750			
0.3537	22639.72	3.7280	3.7280	-0.9490	25.73	0.17	-0.750			
0.3566	22822.19	3.7250	3.7250	-0.9568	25.73	0.17	-0.750			
0.3595	23007.61	3.7220	3.7221	-0.9683	25.73	0.17	-0.750			
0.3624	23195.38	3.7190	3.7189	-0.9839	25.74	0.18	-0.750			
0.3654	23382.85	3.7160	3.7159	-0.9919	25.74	0.18	-0.750			
0.3683	23574.26	3.7130	3.7130	-1.0045	25.75	0.19	-0.750			
0.3714	23769.49	3.7100	3.7102	-1.0247	25.75	0.19	-0.750			
0.3745	23968.76	3.7070	3.7069	-1.0415	25.75	0.19	-0.750			
0.3776	24168.92	3.7040	3.7040	-1.0564	25.75	0.19	-0.750			
0.3808	24370.09	3.7010	3.7010	-1.0686	25.75	0.19	-0.750			
0.3841	24580.62	3.6980	3.6981	-1.0945	25.75	0.19	-0.750			
0.3874	24792.17	3.6950	3.6950	-1.1124	25.75	0.19	-0.750			
0.3908	25008.67	3.6920	3.6920	-1.1252	25.75	0.19	-0.750			
0.3941	25222.84	3.6890	3.6890	-1.1519	25.75	0.19	-0.750			
0.3976	25444.93	3.6860	3.6861	-1.1761	25.75	0.19	-0.750			
0.4011	25673.25	3.6830	3.6829	-1.2027	25.75	0.19	-0.750			
0.4048	25906.13	3.6800	3.6799	-1.2312	25.75	0.19	-0.750			
0.4085	26146.68	3.6770	3.6773	-1.2578	25.75	0.19	-0.750			
0.4124	26391.88	3.6740	3.6740	-1.2829	25.74	0.18	-0.750			
0.4163	26643.21	3.6710	3.6710	-1.3099	25.74	0.18	-0.750			
0.4202	26893.63	3.6680	3.6680	-1.3335	25.73	0.17	-0.750			
0.4242	27150.86	3.6650	3.6650	-1.3620	25.73	0.17	-0.750			
0.4284	27415.55	3.6620	3.6619	-1.3892	25.72	0.16	-0.750			
0.4326	27684.21	3.6590	3.6591	-1.4334	25.72	0.16	-0.750			
0.4369	27961.88	3.6560	3.6560	-1.4745	25.71	0.15	-0.750			
0.4414	28250.44	3.6530	3.6530	-1.5117	25.71	0.15	-0.750			
0.4460	28542.83	3.6500	3.6504	-1.5528	25.70	0.14	-0.750			
0.4507	28844.92	3.6470	3.6467	-1.5818	25.70	0.14	-0.750			
0.4555	29154.81	3.6440	3.6441	-1.6230	25.69	0.13	-0.750			
0.4604	29467.75	3.6410	3.6409	-1.6681	25.69	0.13	-0.750			
0.4656	29796.22	3.6380	3.6380	-1.7029	25.68	0.12	-0.750			
0.4707	30122.30	3.6350	3.6351	-1.7272	25.68	0.12	-0.750			
0.4760	30460.85	3.6320	3.6322	-1.7660	25.67	0.11	-0.750	0.402	0.483	
0.4813	30802.71	3.6290	3.6289	-1.8022	25.66	0.10	-0.750			
0.4867	31151.37	3.6260	3.6259	-1.8446	25.65	0.09	-0.750			
0.4923	31507.48	3.6230	3.6229	-1.8769	25.65	0.09	-0.750			
0.4980	31871.49	3.6200	3.6200	-1.9055	25.64	0.08	-0.750			
0.5038	32243.51	3.6170	3.6170	-1.9440	25.64	0.08	-0.750			
0.5097	32623.82	3.6140	3.6140	-1.9751	25.64	0.08	-0.750			
0.5157	33004.63	3.6110	3.6109	-2.0042	25.63	0.07	-0.750			
0.5218	33392.69	3.6080	3.6081	-2.0291	25.62	0.06	-0.750			
0.5279	33783.32	3.6050	3.6049	-2.0629	25.62	0.06	-0.750			
0.5341	34181.85	3.6020	3.6020	-2.1040	25.62	0.06	-0.750			
0.5405	34590.47	3.5990	3.5990	-2.1365	25.61	0.05	-0.750			
0.5469	35002.75	3.5960	3.5960	-2.1825	25.60	0.04	-0.750			
0.5535	35427.14	3.5930	3.5930	-2.2196	25.60	0.04	-0.750			
0.5602	35855.11	3.5900	3.5900	-2.2577	25.60	0.04	-0.750			
0.5671	36297.32	3.5870	3.5871	-2.2854	25.60	0.04	-0.750			
0.5741	36742.24	3.5840	3.5839	-2.3053	25.60	0.04	-0.750			
0.5810	37185.04	3.5810	3.5810	-2.3202	25.60	0.04	-0.750			
0.5880	37631.82	3.5780	3.5781	-2.3386	25.60	0.04	-0.750			
0.5950	38079.19	3.5750	3.5750	-2.3536	25.60	0.04	-0.750			
0.6020	38529.08	3.5720	3.5719	-2.3741	25.60	0.04	-0.750			
0.6092	38986.82	3.5690	3.5690	-2.3946	25.60	0.04	-0.750			
0.6164	39452.18	3.5660	3.5660	-2.4264	25.60	0.04	-0.750			
0.6238	39920.80	3.5630	3.5630	-2.4451	25.60	0.04	-0.750			
0.6311	40388.05	3.5600	3.5599	-2.4768	25.60	0.04	-0.750			
0.6387	40873.71	3.5570	3.5568	-2.4684	25.60	0.04	-0.750			
0.6461	41350.53	3.5540	3.5540	-2.4634	25.61	0.05	-0.750			
0.6536	41828.15	3.5510	3.5512	-2.4596	25.61	0.05	-0.750			
0.6609	42299.87	3.5480	3.5481	-2.4193	25.61	0.05	-0.750			
0.6680	42753.56	3.5450	3.5449	-2.3730	25.62	0.06	-0.750			
0.6751	43203.67	3.5420	3.5420	-2.3331	25.63	0.07	-0.750			
0.6822	43658.02	3.5390	3.5392	-2.2974	25.64	0.08	-0.750			
0.6891	44099.27	3.5360	3.5361	-2.2693	25.65	0.09	-0.750			
0.6957	44522.07	3.5330	3.5329	-2.2178	25.66	0.10	-0.750			
0.7023	44946.85	3.5300	3.5299	-2.1582	25.66	0.10	-0.750			
0.7088	45362.73	3.5270	3.5270	-2.1045	25.66	0.10	-0.750			
0.7151	45767.36	3.5240	3.5240	-2.0440	25.68	0.12	-0.750			
0.7211	46148.92	3.5210	3.5211	-1.9746	25.69	0.13	-0.750			
0.7270	46524.90	3.5180	3.5181	-1.9125	25.71	0.15	-0.750			
0.7325	46878.42	3.5150	3.5151	-1.8374	25.72	0.16	-0.750			
0.7379	47226.19	3.5120	3.5119	-1.7640	25.74	0.18	-0.750			
0.7432	47564.55	3.5090	3.5091	-1.7107	25.75	0.19	-0.750			
0.7482	47887.34	3.5060	3.5059	-1.6441	25.77	0.21	-0.750			
0.7530	48192.46	3.5030	3.5030	-1.5676	25.79	0.23	-0.750			
0.7576	48484.71	3.5000	3.5000	-1.5077	25.81	0.25	-0.750			
0.7620	48766.94	3.4970	3.4970	-1.4527	25.82	0.26	-0.750			
0.7662	49038.86	3.4940	3.4939	-1.3969	25.84	0.28	-0.750			
0.7704	49304.47	3.4910	3.4911	-1.3693	25.85	0.29	-0.750			
0.7744	49562.56	3.4880	3.4880	-1.3228	25.86	0.30	-0.750			
0.7784	49815.59	3.4850	3.4850	-1.2779	25.87	0.31	-0.750			
0.7822	50057.86	3.4820	3.4821	-1.2297	25.89	0.33	-0.750			
0.7857	50286.21	3.4790	3.4790	-1.1915	25.90	0.34	-0.750			
0.7893	50513.11	3.4760	3.4758	-1.1491	25.92	0.36	-0.750			
0.7926	50728.72	3.4730	3.4729	-1.1042	25.94	0.38	-0.750			
0.7958	50932.80	3.4700	3.4703	-1.0584	25.95	0.39	-0.750			
0.7990	51136.87	3.4670	3.4670	-1.0331	25.96	0.40	-0.750			
0.8020	51330.45	3.4640	3.4639	-1.0000	25.97	0.41	-0.750			
0.8049	51514.15	3.4610	3.4609	-0.9720	25.98	0.42	-0.750			
0.8077	51695.53	3.4580	3.4581	-0.9639	25.99	0.43	-0.750			
0.8106	51877.47	3.4550	3.4550	-0.9797	26.00	0.44	-0.750			
0.8135	52062.07	3.4520	3.4519	-0.9934	26.01	0.45	-0.750			
0.8164	52251.92	3.4490	3.4490	-1.0294	26.02	0.46	-0.750			
0.8195	52450.10	3.4460	3.4460	-1.0760	26.03	0.47	-0.750			
0.8228	52660.50	3.4430	3.4429	-1.1359	26.04	0.48	-0.750			
0.8263	52885.60	3.4400	3.4399	-1.1929	26.05	0.49	-0.750			
0.8300	53120.18	3.4370	3.4369	-1.2399	26.06	0.50	-0.750			
0.8339	53367.37	3.4340	3.4341	-1.2751	26.07	0.51	-0.750			
0.8379	53627.63	3.4310	3.4309	-1.2944	26.09	0.53	-0.750			
0.8419	53879.68	3.4280	3.4280	-1.2819	26.10	0.54	-0.750			
0.8457	54126.62	3.4250	3.4252	-1.2527	26.11	0.55	-0.750			
0.8495	54365.86	3.4220	3.4220	-1.2120	26.12	0.56	-0.750			
0.8530	54594.94	3.4190	3.4189	-1.1622	26.13	0.57	-0.750			
0.8564	54811.51	3.4160	3.4160	-1.1165	26.14	0.58	-0.750			
0.8597	55021.09	3.4130	3.4129	-1.0788	26.15	0.59	-0.750			
0.8629	55223.85	3.4100	3.4100	-1.0357	26.16	0.60	-0.750			
0.8659	55417.50	3.4070	3.4070	-0.9939	26.16	0.60	-0.750			
0.8688	55604.12	3.4040	3.4040	-0.9572	26.17	0.61	-0.750			
0.8717	55786.78	3.4010	3.4011	-0.9242	26.17	0.61	-0.750			
0.8744	55960.88	3.3980	3.3979	-0.8835	26.18	0.62	-0.750			
0.8769	56124.31	3.3950	3.3950	-0.8459	26.19	0.63	-0.750			
0.8794	56281.41	3.3920	3.3921	-0.8108	26.20	0.64	-0.750			
0.8818	56433.46	3.3890	3.3888	-0.7888	26.21	0.65	-0.750			
0.8841	56581.00	3.3860	3.3860	-0.7622	26.21	0.65	-0.750			
0.8863	56726.11	3.3830	3.3830	-0.7359	26.22	0.66	-0.750			
0.8886	56867.58	3.3800	3.3800	-0.7143	26.23	0.67	-0.750			
0.8907	57002.86	3.3770	3.3771	-0.6818	26.23	0.67	-0.750			
0.8927	57131.54	3.3740	3.3741	-0.6518	26.24	0.68	-0.750			
0.8946	57252.78	3.3710	3.3709	-0.6213	26.25	0.69	-0.750			
0.8964	57367.62	3.3680	3.3680	-0.5912	26.25	0.69	-0.750			
0.8981	57477.77	3.3650	3.3650	-0.5652	26.26	0.70	-0.750			
0.8998	57584.04	3.3620	3.3620	-0.5416	26.27	0.71	-0.750			
0.9013	57686.15	3.3590	3.3590	-0.5173	26.28	0.72	-0.750			
0.9029	57783.00	3.3560	3.3560	-0.4961	26.28	0.72	-0.750			
0.9043	57875.76	3.3530	3.3530	-0.4738	26.29	0.73	-0.750			
0.9057	57964.14	3.3500	3.3500	-0.4531	26.30	0.74	-0.750			
0.9070	58048.46	3.3470	3.3469	-0.4333	26.30	0.74	-0.750			
0.9083	58130.26	3.3440	3.3441	-0.4141	26.31	0.75	-0.750			
0.9095	58208.52	3.3410	3.3409	-0.3957	26.31	0.75	-0.750			
0.9107	58282.71	3.3380	3.3380	-0.3773	26.32	0.76	-0.750			
0.9118	58352.96	3.3350	3.3350	-0.3595	26.32	0.76	-0.750			
0.9128	58419.72	3.3320	3.3319	-0.3421	26.32	0.76	-0.750			
0.9138	58483.37	3.3290	3.3291	-0.3266	26.33	0.77	-0.750			
0.9147	58543.69	3.3260	3.3259	-0.3124	26.33	0.77	-0.750			
0.9157	58602.60	3.3230	3.3230	-0.3003	26.33	0.77	-0.750			
0.9165	58658.88	3.3200	3.3199	-0.2877	26.34	0.78	-0.750			
0.9174	58712.44	3.3170	3.3171	-0.2767	26.34	0.78	-0.750			
0.9182	58764.36	3.3140	3.3140	-0.2660	26.34	0.78	-0.750			
0.9190	58814.96	3.3110	3.3109	-0.2564	26.34	0.78	-0.750			
0.9197	58862.74	3.3080	3.3080	-0.2452	26.35	0.79	-0.750			
0.9204	58908.73	3.3050	3.3050	-0.2360	26.35	0.79	-0.750			
0.9211	58953.18	3.3020	3.3021	-0.2271	26.35	0.79	-0.750			
0.9218	58995.83	3.2990	3.2990	-0.2196	26.36	0.80	-0.750			
0.9224	59036.73	3.2960	3.2960	-0.2123	26.37	0.81	-0.750			
0.9231	59076.24	3.2930	3.2930	-0.2042	26.37	0.81	-0.750			
0.9237	59114.92	3.2900	3.2900	-0.1988	26.38	0.82	-0.750			
0.9243	59152.73	3.2870	3.2870	-0.1932	26.38	0.82	-0.750			
0.9248	59189.28	3.2840	3.2840	-0.1878	26.39	0.83	-0.750			
0.9254	59224.64	3.2810	3.2810	-0.1823	26.39	0.83	-0.750			
0.9259	59259.11	3.2780	3.2780	-0.1769	26.40	0.84	-0.750			
0.9264	59292.35	3.2750	3.2750	-0.1716	26.40	0.84	-0.750			
0.9269	59324.53	3.2720	3.2721	-0.1670	26.41	0.85	-0.750			
0.9274	59356.15	3.2690	3.2690	-0.1630	26.41	0.85	-0.750			
0.9279	59387.07	3.2660	3.2661	-0.1591	26.41	0.85	-0.750			
0.9284	59417.10	3.2630	3.2630	-0.1554	26.42	0.86	-0.750			
0.9289	59446.49	3.2600	3.2600	-0.1518	26.42	0.86	-0.750			
0.9293	59475.30	3.2570	3.2571	-0.1485	26.43	0.87	-0.750			
0.9297	59503.54	3.2540	3.2539	-0.1451	26.43	0.87	-0.750			
0.9302	59530.97	3.2510	3.2510	-0.1425	26.43	0.87	-0.750			
0.9306	59557.90	3.2480	3.2480	-0.1393	26.44	0.88	-0.750			
0.9310	59584.39	3.2450	3.2450	-0.1366	26.44	0.88	-0.750			
0.9314	59610.37	3.2420	3.2419	-0.1339	26.44	0.88	-0.750			
0.9318	59635.77	3.2390	3.2390	-0.1311	26.45	0.89	-0.750			
0.9322	59660.71	3.2360	3.2361	-0.1288	26.45	0.89	-0.750			
0.9326	59685.20	3.2330	3.2330	-0.1262	26.45	0.89	-0.750			
0.9330	59709.10	3.2300	3.2300	-0.1247	26.46	0.90	-0.750			
0.9333	59732.42	3.2270	3.2268	-0.1223	26.46	0.90	-0.750			
0.9337	59755.85	3.2240	3.2240	-0.1207	26.47	0.91	-0.750			
0.9340	59778.87	3.2210	3.2209	-0.1192	26.47	0.91	-0.750			
0.9344	59801.83	3.2180	3.2180	-0.1173	26.47	0.91	-0.750			
0.9348	59824.14	3.2150	3.2150	-0.1152	26.48	0.92	-0.750			
0.9351	59846.10	3.2120	3.2121	-0.1137	26.48	0.92	-0.750			
0.9354	59867.74	3.2090	3.2089	-0.1117	26.48	0.92	-0.750			
0.9358	59888.75	3.2060	3.2060	-0.1098	26.49	0.93	-0.750			
0.9361	59909.70	3.2030	3.2030	-0.1084	26.49	0.93	-0.750			
0.9364	59930.33	3.2000	3.2000	-0.1068	26.49	0.93	-0.750			
0.9367	59950.72	3.1970	3.1970	-0.1055	26.50	0.94	-0.750			
0.9370	59970.89	3.1940	3.1940	-0.1045	26.50	0.94	-0.750			
0.9374	59990.82	3.1910	3.1910	-0.1031	26.50	0.94	-0.750			
0.9377	60010.41	3.1880	3.1880	-0.1016	26.50	0.94	-0.750			
0.9380	60029.80	3.1850	3.1850	-0.1004	26.51	0.95	-0.750			
0.9383	60048.93	3.1820	3.1821	-0.0993	26.51	0.95	-0.750			
0.9386	60067.88	3.1790	3.1790	-0.0981	26.51	0.95	-0.750			
0.9389	60086.58	3.1760	3.1760	-0.0972	26.52	0.96	-0.750			
0.9391	60105.13	3.1730	3.1730	-0.0961	26.52	0.96	-0.750			
0.9394	60123.39	3.1700	3.1700	-0.0951	26.52	0.96	-0.750			
0.9397	60141.56	3.1670	3.1670	-0.0943	26.52	0.96	-0.750			
0.9400	60159.66	3.1640	3.1640	-0.0934	26.53	0.97	-0.750			
0.9403	60177.50	3.1610	3.1610	-0.0924	26.53	0.97	-0.750			
0.9405	60195.14	3.1580	3.1580	-0.0915	26.53	0.97	-0.750			
0.9408	60212.60	3.1550	3.1550	-0.0905	26.54	0.98	-0.750			
0.9411	60229.88	3.1520	3.1521	-0.0894	26.54	0.98	-0.750			
0.9414	60246.96	3.1490	3.1489	-0.0885	26.54	0.98	-0.750			
0.9416	60263.82	3.1460	3.1461	-0.0875	26.54	0.98	-0.750			
0.9419	60280.53	3.1430	3.1430	-0.0865	26.55	0.99	-0.750			
0.9421	60296.94	3.1400	3.1400	-0.0859	26.55	0.99	-0.750			
0.9424	60313.37	3.1370	3.1370	-0.0853	26.55	0.99	-0.750			
0.9427	60329.69	3.1340	3.1339	-0.0844	26.55	0.99	-0.750			
0.9429	60345.83	3.1310	3.1310	-0.0837	26.56	1.00	-0.750			
0.9432	60361.91	3.1280	3.1281	-0.0832	26.56	1.00	-0.750			
0.9434	60377.83	3.1250	3.1251	-0.0823	26.56	1.00	-0.750			
0.9437	60393.65	3.1220	3.1220	-0.0817	26.56	1.00	-0.750			
0.9439	60409.24	3.1190	3.1190	-0.0807	26.56	1.00	-0.750			
0.9441	60424.49	3.1160	3.1159	-0.0805	26.57	1.01	-0.750			
0.9444	60439.66	3.1130	3.1130	-0.0797	26.57	1.01	-0.750			
0.9446	60455.03	3.1100	3.1100	-0.0791	26.57	1.01	-0.750			
0.9448	60470.18	3.1070	3.1069	-0.0787	26.57	1.01	-0.750			
0.9451	60485.26	3.1040	3.1041	-0.0782	26.58	1.02	-0.750			
0.9453	60500.27	3.1010	3.1010	-0.0775	26.58	1.02	-0.750			
0.9456	60515.26	3.0980	3.0980	-0.0771	26.58	1.02	-0.750			
0.9458	60529.90	3.0950	3.0949	-0.0764	26.58	1.02	-0.750			
0.9460	60544.49	3.0920	3.0920	-0.0757	26.59	1.03	-0.750			
0.9462	60558.79	3.0890	3.0892	-0.0748	26.59	1.03	-0.750			
0.9465	60573.05	3.0860	3.0860	-0.0745	26.59	1.03	-0.750			
0.9467	60587.29	3.0830	3.0829	-0.0741	26.60	1.04	-0.750			
0.9469	60601.49	3.0800	3.0799	-0.0738	26.60	1.04	-0.750			
0.9471	60615.65	3.0770	3.0770	-0.0733	26.60	1.04	-0.750			
0.9473	60629.68	3.0740	3.0740	-0.0729	26.61	1.05	-0.750			
0.9476	60643.62	3.0710	3.0711	-0.0725	26.61	1.05	-0.750			
0.9478	60657.51	3.0680	3.0680	-0.0721	26.61	1.05	-0.750			
0.9480	60671.37	3.0650	3.0651	-0.0718	26.62	1.06	-0.750			
0.9482	60685.14	3.0620	3.0619	-0.0712	26.62	1.06	-0.750			
0.9484	60698.74	3.0590	3.0590	-0.0707	26.62	1.06	-0.750			
0.9486	60712.28	3.0560	3.0561	-0.0703	26.63	1.07	-0.750			
0.9488	60725.72	3.0530	3.0530	-0.0698	26.63	1.07	-0.750			
0.9490	60739.14	3.0500	3.0500	-0.0694	26.63	1.07	-0.750			
0.9493	60752.36	3.0470	3.0468	-0.0691	26.63	1.07	-0.750			
0.9495	60765.58	3.0440	3.0440	-0.0686	26.64	1.08	-0.750			
0.9497	60778.60	3.0410	3.0409	-0.0682	26.64	1.08	-0.750			
0.9499	60791.69	3.0380	3.0381	-0.0678	26.64	1.08	-0.750			
0.9501	60804.71	3.0350	3.0350	-0.0675	26.65	1.09	-0.750			
0.9503	60817.64	3.0320	3.0320	-0.0672	26.65	1.09	-0.750			
0.9505	60830.50	3.0290	3.0290	-0.0667	26.65	1.09	-0.750			
0.9507	60843.30	3.0260	3.0260	-0.0664	26.66	1.10	-0.750			
0.9509	60856.04	3.0230	3.0231	-0.0659	26.66	1.10	-0.750			
0.9511	60868.64	3.0200	3.0199	-0.0654	26.66	1.10	-0.750			
0.9513	60881.18	3.0170	3.0169	-0.0649	26.66	1.10	-0.750			
0.9515	60893.60	3.0140	3.0141	-0.0644	26.67	1.11	-0.750			
0.9517	60905.96	3.0110	3.0111	-0.0639	26.67	1.11	-0.750			
0.9518	60918.16	3.0080	3.0081	-0.0632	26.67	1.11	-0.751			
0.9520	60930.24	3.0050	3.0050	-0.0626	26.68	1.12	-0.751			
