Ah_balance (normalized)	Ah_balance (mAh)	Voltage - fit (V)	Voltage -  interpolate (V)	dQ/dV (1/V)	Temperature (°C)	Temperature - diff (°C)	Current (C)	R_DC 0ms (mOhm)	R_DC 50ms (mOhm)	R_DC 50 ms PEC (mOhm)
0.0539	3448.15	4.1970	4.1970	0.7330	26.55	0.62	0.750			
0.0561	3590.98	4.1940	4.1940	0.7468	26.54	0.61	0.750			
0.0584	3736.17	4.1910	4.1910	0.7538	26.54	0.61	0.750			
0.0606	3881.04	4.1880	4.1880	0.7586	26.54	0.61	0.750			
0.0630	4028.89	4.1850	4.1850	0.7533	26.53	0.60	0.750			
0.0652	4172.75	4.1820	4.1821	0.7593	26.53	0.60	0.750			
0.0675	4317.79	4.1790	4.1790	0.7622	26.53	0.60	0.750			
0.0697	4463.07	4.1760	4.1760	0.7652	26.52	0.59	0.750			
0.0720	4610.32	4.1730	4.1731	0.7677	26.52	0.59	0.750			
0.0744	4759.20	4.1700	4.1701	0.7661	26.52	0.59	0.750			
0.0767	4907.44	4.1670	4.1670	0.7711	26.52	0.59	0.750			
0.0790	5057.68	4.1640	4.1641	0.7695	26.52	0.59	0.750			
0.0813	5203.34	4.1610	4.1610	0.7652	26.52	0.59	0.750			
0.0836	5349.81	4.1580	4.1579	0.7652	26.52	0.59	0.750			
0.0859	5496.79	4.1550	4.1550	0.7698	26.52	0.59	0.750			
0.0882	5645.93	4.1520	4.1521	0.7714	26.52	0.59	0.750			
0.0905	5793.42	4.1490	4.1489	0.7750	26.52	0.59	0.750			
0.0929	5942.40	4.1460	4.1461	0.7754	26.52	0.59	0.750			
0.0952	6091.48	4.1430	4.1429	0.7776	26.52	0.59	0.750			
0.0975	6240.16	4.1400	4.1400	0.7769	26.52	0.59	0.750			
0.0999	6391.17	4.1370	4.1370	0.7731	26.52	0.59	0.750			
0.1021	6537.40	4.1340	4.1340	0.7756	26.52	0.59	0.750			
0.1045	6687.04	4.1310	4.1310	0.7796	26.52	0.59	0.750			
0.1068	6836.26	4.1280	4.1280	0.7775	26.52	0.59	0.750			
0.1091	6985.09	4.1250	4.1249	0.7827	26.52	0.59	0.750			
0.1115	7135.83	4.1220	4.1222	0.7846	26.52	0.59	0.750			
0.1139	7287.38	4.1190	4.1190	0.7894	26.52	0.59	0.750			
0.1162	7439.83	4.1160	4.1159	0.7925	26.52	0.59	0.750			
0.1186	7591.69	4.1130	4.1130	0.7901	26.52	0.59	0.750			
0.1210	7743.95	4.1100	4.1100	0.7930	26.52	0.59	0.750			
0.1234	7897.07	4.1070	4.1070	0.7937	26.52	0.59	0.750			
0.1258	8049.99	4.1040	4.1040	0.7854	26.52	0.59	0.750			
0.1281	8199.29	4.1010	4.1010	0.7921	26.52	0.59	0.750			
0.1305	8349.58	4.0980	4.0980	0.7931	26.52	0.59	0.750			
0.1328	8501.98	4.0950	4.0949	0.7997	26.52	0.59	0.750			
0.1353	8656.64	4.0920	4.0920	0.8059	26.52	0.59	0.750			
0.1377	8814.84	4.0890	4.0890	0.8003	26.52	0.59	0.750			
0.1401	8969.11	4.0860	4.0860	0.8052	26.51	0.58	0.750			
0.1426	9123.21	4.0830	4.0832	0.8137	26.51	0.58	0.750			
0.1449	9275.93	4.0800	4.0800	0.8123	26.51	0.58	0.750			
0.1474	9434.35	4.0770	4.0770	0.8144	26.51	0.58	0.750			
0.1499	9591.22	4.0740	4.0740	0.8130	26.51	0.58	0.750			
0.1523	9747.80	4.0710	4.0712	0.8166	26.50	0.57	0.750			
0.1548	9907.80	4.0680	4.0680	0.8255	26.50	0.57	0.750			
0.1572	10063.03	4.0650	4.0649	0.8171	26.50	0.57	0.750			
0.1597	10218.45	4.0620	4.0620	0.8226	26.50	0.57	0.750			
0.1622	10377.85	4.0590	4.0590	0.8230	26.50	0.57	0.750			
0.1646	10537.52	4.0560	4.0560	0.8320	26.50	0.57	0.750			
0.1671	10697.58	4.0530	4.0530	0.8390	26.50	0.57	0.750			
0.1697	10858.49	4.0500	4.0501	0.8378	26.50	0.57	0.750			
0.1722	11020.43	4.0470	4.0471	0.8376	26.50	0.57	0.750			
0.1747	11182.63	4.0440	4.0440	0.8358	26.50	0.57	0.750			
0.1772	11341.37	4.0410	4.0412	0.8355	26.50	0.57	0.750			
0.1797	11502.79	4.0380	4.0380	0.8405	26.50	0.57	0.750			
0.1822	11662.73	4.0350	4.0350	0.8371	26.50	0.57	0.750			
0.1847	11822.79	4.0320	4.0320	0.8422	26.50	0.57	0.750			
0.1873	11986.86	4.0290	4.0290	0.8439	26.50	0.57	0.750			
0.1898	12149.23	4.0260	4.0260	0.8498	26.50	0.57	0.750			
0.1924	12312.74	4.0230	4.0231	0.8538	26.50	0.57	0.750			
0.1949	12474.78	4.0200	4.0200	0.8576	26.50	0.57	0.750			
0.1975	12640.63	4.0170	4.0170	0.8627	26.50	0.57	0.750			
0.2001	12807.80	4.0140	4.0140	0.8631	26.50	0.57	0.750			
0.2027	12972.51	4.0110	4.0110	0.8649	26.50	0.57	0.750			
0.2053	13139.03	4.0080	4.0082	0.8674	26.50	0.57	0.750			
0.2079	13307.19	4.0050	4.0049	0.8748	26.50	0.57	0.750			
0.2105	13474.85	4.0020	4.0019	0.8746	26.50	0.57	0.750			
0.2132	13643.29	3.9990	3.9990	0.8703	26.50	0.57	0.750			
0.2158	13811.31	3.9960	3.9961	0.8752	26.49	0.56	0.750			
0.2184	13977.91	3.9930	3.9931	0.8784	26.49	0.56	0.750			
0.2210	14146.82	3.9900	3.9896	0.8793	26.49	0.56	0.750			
0.2237	14315.87	3.9870	3.9870	0.8757	26.49	0.56	0.750			
0.2263	14484.30	3.9840	3.9842	0.8800	26.49	0.56	0.750			
0.2290	14655.45	3.9810	3.9810	0.8891	26.49	0.56	0.750			
0.2316	14824.87	3.9780	3.9780	0.8842	26.49	0.56	0.750			
0.2343	14994.07	3.9750	3.9751	0.8878	26.49	0.56	0.750			
0.2370	15165.50	3.9720	3.9721	0.8891	26.49	0.56	0.750			
0.2397	15337.82	3.9690	3.9690	0.9006	26.49	0.56	0.750			
0.2424	15512.02	3.9660	3.9660	0.9007	26.50	0.57	0.750			
0.2451	15684.77	3.9630	3.9629	0.8972	26.50	0.57	0.750			
0.2478	15856.05	3.9600	3.9601	0.9029	26.50	0.57	0.750			
0.2505	16031.43	3.9570	3.9571	0.8992	26.49	0.56	0.750			
0.2532	16202.81	3.9540	3.9540	0.9009	26.49	0.56	0.750			
0.2559	16375.87	3.9510	3.9511	0.9030	26.48	0.55	0.750			
0.2586	16547.39	3.9480	3.9480	0.9029	26.48	0.55	0.750			
0.2613	16724.53	3.9450	3.9449	0.9012	26.48	0.55	0.750			
0.2640	16896.48	3.9420	3.9421	0.9029	26.48	0.55	0.750			
0.2667	17068.33	3.9390	3.9391	0.9058	26.47	0.54	0.750			
0.2694	17242.44	3.9360	3.9361	0.9109	26.47	0.54	0.750			
0.2721	17417.36	3.9330	3.9330	0.9143	26.47	0.54	0.750			
0.2749	17593.84	3.9300	3.9300	0.9160	26.47	0.54	0.750			
0.2777	17771.02	3.9270	3.9270	0.9175	26.46	0.53	0.750			
0.2805	17949.06	3.9240	3.9241	0.9147	26.46	0.53	0.750			
0.2832	18124.02	3.9210	3.9210	0.9091	26.46	0.53	0.750			
0.2859	18298.90	3.9180	3.9180	0.9029	26.46	0.53	0.750			
0.2886	18469.87	3.9150	3.9150	0.9097	26.45	0.52	0.750			
0.2913	18643.81	3.9120	3.9120	0.9123	26.45	0.52	0.750			
0.2940	18819.03	3.9090	3.9090	0.9210	26.44	0.51	0.750			
0.2968	18996.60	3.9060	3.9060	0.9280	26.44	0.51	0.750			
0.2996	19176.52	3.9030	3.9031	0.9285	26.43	0.50	0.750			
0.3024	19355.83	3.9000	3.9000	0.9350	26.43	0.50	0.750			
0.3053	19536.60	3.8970	3.8970	0.9365	26.43	0.50	0.750			
0.3080	19714.72	3.8940	3.8938	0.9356	26.42	0.49	0.750			
0.3109	19895.53	3.8910	3.8911	0.9397	26.41	0.48	0.750			
0.3137	20074.82	3.8880	3.8880	0.9473	26.41	0.48	0.750			
0.3165	20258.48	3.8850	3.8850	0.9568	26.40	0.47	0.750			
0.3194	20442.37	3.8820	3.8820	0.9588	26.39	0.46	0.750			
0.3223	20629.03	3.8790	3.8791	0.9620	26.39	0.46	0.750			
0.3252	20815.53	3.8760	3.8760	0.9712	26.38	0.45	0.750			
0.3282	21002.07	3.8730	3.8730	0.9716	26.37	0.44	0.750			
0.3311	21187.28	3.8700	3.8701	0.9784	26.36	0.43	0.750			
0.3340	21374.91	3.8670	3.8669	0.9818	26.35	0.42	0.750			
0.3369	21564.13	3.8640	3.8640	0.9824	26.34	0.41	0.750			
0.3399	21752.65	3.8610	3.8610	0.9916	26.34	0.41	0.750			
0.3428	21942.22	3.8580	3.8582	1.0046	26.33	0.40	0.750			
0.3459	22136.04	3.8550	3.8543	1.0114	26.33	0.40	0.750			
0.3489	22332.52	3.8520	3.8520	1.0187	26.32	0.39	0.750			
0.3520	22528.32	3.8490	3.8490	1.0264	26.31	0.38	0.750			
0.3551	22729.47	3.8460	3.8461	1.0342	26.30	0.37	0.750			
0.3583	22928.73	3.8430	3.8429	1.0363	26.29	0.36	0.750			
0.3613	23125.65	3.8400	3.8400	1.0261	26.28	0.35	0.750			
0.3644	23322.21	3.8370	3.8370	1.0260	26.27	0.34	0.750			
0.3675	23517.14	3.8340	3.8341	1.0339	26.26	0.33	0.750			
0.3705	23715.09	3.8310	3.8306	1.0382	26.25	0.32	0.750			
0.3737	23914.46	3.8280	3.8281	1.0339	26.24	0.31	0.750			
0.3768	24113.77	3.8250	3.8250	1.0445	26.23	0.30	0.750			
0.3799	24314.05	3.8220	3.8222	1.0578	26.22	0.29	0.750			
0.3832	24521.83	3.8190	3.8186	1.0714	26.21	0.28	0.750			
0.3863	24724.02	3.8160	3.8160	1.0650	26.20	0.27	0.750			
0.3895	24928.79	3.8130	3.8131	1.0722	26.19	0.26	0.750			
0.3928	25136.84	3.8100	3.8101	1.0851	26.18	0.25	0.750			
0.3961	25348.38	3.8070	3.8068	1.0871	26.17	0.24	0.750			
0.3992	25551.94	3.8040	3.8041	1.0858	26.16	0.23	0.750			
0.4025	25758.95	3.8010	3.8011	1.1019	26.15	0.22	0.750			
0.4058	25972.62	3.7980	3.7980	1.1164	26.14	0.21	0.750			
0.4092	26191.68	3.7950	3.7948	1.1096	26.13	0.20	0.750			
0.4126	26403.73	3.7920	3.7920	1.1275	26.12	0.19	0.750			
0.4159	26620.40	3.7890	3.7891	1.1456	26.11	0.18	0.750			
0.4194	26842.51	3.7860	3.7862	1.1653	26.09	0.16	0.750			
0.4229	27067.10	3.7830	3.7831	1.1669	26.08	0.15	0.750			
0.4264	27290.10	3.7800	3.7801	1.1792	26.07	0.14	0.750			
0.4300	27520.81	3.7770	3.7771	1.1994	26.06	0.13	0.750			
0.4337	27756.74	3.7740	3.7738	1.2056	26.05	0.12	0.750			
0.4372	27980.79	3.7710	3.7710	1.2299	26.04	0.11	0.750			
0.4409	28216.73	3.7680	3.7680	1.2737	26.03	0.10	0.750			
0.4448	28465.17	3.7650	3.7648	1.3040	26.01	0.08	0.750			
0.4487	28719.79	3.7620	3.7624	1.3459	26.00	0.07	0.750	0.298	0.405	
0.4529	28983.94	3.7590	3.7593	1.3771	25.99	0.06	0.750			
0.4571	29254.03	3.7560	3.7559	1.4076	25.97	0.04	0.750			
0.4615	29532.93	3.7530	3.7531	1.4252	25.96	0.03	0.750			
0.4656	29799.50	3.7500	3.7497	1.4384	25.95	0.02	0.750			
0.4700	30078.05	3.7470	3.7470	1.4711	25.93	0.00	0.750			
0.4745	30366.11	3.7440	3.7441	1.5071	25.92	-0.01	0.750			
0.4790	30657.99	3.7410	3.7409	1.5417	25.90	-0.03	0.750			
0.4837	30958.68	3.7380	3.7378	1.5786	25.89	-0.04	0.750			
0.4885	31267.10	3.7350	3.7351	1.6316	25.87	-0.06	0.750			
0.4935	31585.15	3.7320	3.7322	1.6946	25.86	-0.07	0.750			
0.4987	31915.09	3.7290	3.7292	1.7321	25.84	-0.09	0.750			
0.5040	32258.22	3.7260	3.7258	1.7758	25.83	-0.10	0.750			
0.5094	32600.69	3.7230	3.7230	1.8194	25.82	-0.11	0.750			
0.5149	32951.85	3.7200	3.7197	1.8730	25.80	-0.13	0.750			
0.5205	33313.61	3.7170	3.7169	1.9091	25.79	-0.14	0.750			
0.5263	33680.56	3.7140	3.7142	1.9706	25.78	-0.15	0.750			
0.5323	34070.03	3.7110	3.7108	2.0101	25.76	-0.17	0.750			
0.5385	34463.10	3.7080	3.7081	2.0584	25.74	-0.19	0.750			
0.5447	34863.17	3.7050	3.7050	2.1310	25.72	-0.21	0.750			
0.5512	35278.46	3.7020	3.7019	2.2008	25.71	-0.22	0.750			
0.5578	35698.15	3.6990	3.6989	2.2526	25.70	-0.23	0.750			
0.5647	36143.95	3.6960	3.6961	2.3269	25.69	-0.24	0.750			
0.5718	36594.01	3.6930	3.6932	2.4093	25.68	-0.25	0.750			
0.5792	37065.96	3.6900	3.6901	2.4852	25.67	-0.26	0.750			
0.5866	37541.11	3.6870	3.6870	2.5852	25.65	-0.28	0.750			
0.5945	38049.63	3.6840	3.6839	2.6652	25.64	-0.29	0.750			
0.6028	38577.99	3.6810	3.6812	2.7119	25.63	-0.30	0.750			
0.6110	39105.78	3.6780	3.6780	2.8445	25.62	-0.31	0.750			
0.6196	39654.27	3.6750	3.6750	2.9217	25.61	-0.32	0.750			
0.6286	40229.52	3.6720	3.6722	3.0080	25.60	-0.33	0.750			
0.6380	40829.26	3.6690	3.6689	3.0687	25.60	-0.33	0.750			
0.6473	41428.56	3.6660	3.6659	2.9561	25.60	-0.33	0.750			
0.6561	41990.71	3.6630	3.6631	2.7363	25.60	-0.33	0.750			
0.6638	42485.19	3.6600	3.6599	2.4511	25.61	-0.32	0.750			
0.6705	42911.69	3.6570	3.6571	2.1703	25.62	-0.31	0.750			
0.6766	43303.44	3.6540	3.6540	1.9460	25.62	-0.31	0.750			
0.6819	43644.15	3.6510	3.6507	1.7821	25.62	-0.31	0.750			
0.6868	43952.37	3.6480	3.6481	1.6279	25.62	-0.31	0.750			
0.6915	44257.42	3.6450	3.6450	1.5247	25.62	-0.31	0.750			
0.6961	44547.30	3.6420	3.6419	1.4160	25.62	-0.31	0.750			
0.7001	44805.99	3.6390	3.6392	1.3436	25.63	-0.30	0.750			
0.7038	45045.89	3.6360	3.6361	1.2688	25.63	-0.30	0.750			
0.7075	45277.43	3.6330	3.6328	1.2245	25.64	-0.29	0.750			
0.7110	45506.41	3.6300	3.6301	1.2042	25.64	-0.29	0.750			
0.7146	45731.86	3.6270	3.6271	1.1999	25.64	-0.29	0.750			
0.7182	45963.14	3.6240	3.6241	1.2133	25.64	-0.29	0.750			
0.7218	46197.46	3.6210	3.6210	1.2069	25.64	-0.29	0.750			
0.7255	46428.89	3.6180	3.6180	1.2183	25.64	-0.29	0.750			
0.7292	46668.86	3.6150	3.6150	1.2183	25.64	-0.29	0.750			
0.7329	46908.06	3.6120	3.6119	1.1975	25.64	-0.29	0.750			
0.7365	47137.38	3.6090	3.6091	1.1816	25.65	-0.28	0.750			
0.7400	47361.62	3.6060	3.6062	1.1581	25.65	-0.28	0.750			
0.7434	47576.54	3.6030	3.6030	1.1459	25.66	-0.27	0.750			
0.7468	47794.11	3.6000	3.6000	1.1297	25.66	-0.27	0.750			
0.7501	48006.83	3.5970	3.5970	1.1400	25.66	-0.27	0.750			
0.7536	48227.73	3.5940	3.5941	1.1631	25.66	-0.27	0.750			
0.7571	48453.41	3.5910	3.5909	1.1788	25.66	-0.27	0.750			
0.7606	48676.92	3.5880	3.5881	1.2129	25.66	-0.27	0.750			
0.7642	48909.34	3.5850	3.5851	1.2603	25.67	-0.26	0.750			
0.7681	49158.77	3.5820	3.5820	1.2903	25.68	-0.25	0.750			
0.7721	49414.66	3.5790	3.5789	1.3237	25.68	-0.25	0.750			
0.7761	49669.67	3.5760	3.5762	1.3781	25.68	-0.25	0.750			
0.7803	49936.51	3.5730	3.5731	1.4306	25.68	-0.25	0.750			
0.7846	50215.77	3.5700	3.5700	1.4688	25.68	-0.25	0.750			
0.7891	50501.73	3.5670	3.5669	1.4946	25.68	-0.25	0.750			
0.7936	50792.89	3.5640	3.5641	1.5351	25.68	-0.25	0.750			
0.7984	51097.16	3.5610	3.5611	1.5761	25.68	-0.25	0.750			
0.8032	51404.92	3.5580	3.5580	1.5938	25.68	-0.25	0.750			
0.8079	51708.18	3.5550	3.5552	1.6245	25.68	-0.25	0.750			
0.8130	52029.41	3.5520	3.5521	1.6447	25.69	-0.24	0.750			
0.8179	52345.51	3.5490	3.5491	1.6459	25.70	-0.23	0.750			
0.8229	52663.92	3.5460	3.5460	1.6642	25.70	-0.23	0.750			
0.8279	52983.67	3.5430	3.5426	1.6845	25.71	-0.22	0.750			
0.8329	53303.95	3.5400	3.5398	1.7049	25.71	-0.22	0.750			
0.8380	53628.99	3.5370	3.5369	1.7522	25.71	-0.22	0.750			
0.8432	53967.93	3.5340	3.5342	1.7653	25.72	-0.21	0.750			
0.8491	54342.29	3.5310	3.5305	1.6926	25.73	-0.20	0.750			
0.8544	54681.07	3.5280	3.5281	1.5497	25.75	-0.18	0.750			
0.8591	54983.18	3.5250	3.5256	1.3068	25.77	-0.16	0.750			
0.8629	55226.10	3.5220	3.5224	1.0414	25.80	-0.13	0.750			
0.8654	55382.89	3.5190	3.5185	0.7951	25.81	-0.12	0.750			
0.8668	55476.22	3.5160	3.5153	0.5619	25.82	-0.11	0.750			
0.8677	55534.11	3.5130	3.5129	0.4210	25.83	-0.10	0.750			
0.8688	55604.40	3.5100	3.5098	0.3696	25.84	-0.09	0.750			
0.8698	55667.31	3.5070	3.5070	0.3363	25.84	-0.09	0.750			
0.8708	55728.54	3.5040	3.5040	0.3188	25.85	-0.08	0.750			
0.8717	55787.25	3.5010	3.5011	0.3045	25.86	-0.07	0.750			
0.8726	55843.89	3.4980	3.4979	0.2944	25.86	-0.07	0.750			
0.8734	55898.68	3.4950	3.4950	0.2844	25.87	-0.06	0.750			
0.8743	55952.14	3.4920	3.4920	0.2783	25.87	-0.06	0.750			
0.8751	56005.03	3.4890	3.4890	0.2726	25.88	-0.05	0.750			
0.8759	56057.03	3.4860	3.4860	0.2679	25.88	-0.05	0.750			
0.8767	56108.14	3.4830	3.4831	0.2619	25.89	-0.04	0.750			
0.8775	56158.05	3.4800	3.4799	0.2556	25.89	-0.04	0.750			
0.8782	56206.47	3.4770	3.4770	0.2503	25.90	-0.03	0.750			
0.8790	56253.78	3.4740	3.4741	0.2442	25.90	-0.03	0.750			
0.8797	56299.43	3.4710	3.4709	0.2385	25.91	-0.02	0.750			
0.8804	56345.09	3.4680	3.4679	0.2346	25.91	-0.02	0.750			
0.8811	56389.42	3.4650	3.4650	0.2295	25.92	-0.01	0.750			
0.8818	56433.02	3.4620	3.4620	0.2243	25.92	-0.01	0.750			
0.8824	56476.17	3.4590	3.4590	0.2199	25.92	-0.01	0.750			
0.8831	56518.19	3.4560	3.4561	0.2147	25.93	-0.00	0.750			
0.8837	56558.81	3.4530	3.4529	0.2080	25.93	0.00	0.750			
0.8843	56598.33	3.4500	3.4500	0.2024	25.94	0.01	0.750			
0.8849	56636.03	3.4470	3.4470	0.1963	25.94	0.01	0.750			
0.8855	56673.23	3.4440	3.4441	0.1912	25.94	0.01	0.750			
0.8861	56709.45	3.4410	3.4409	0.1856	25.95	0.02	0.750			
0.8866	56744.21	3.4380	3.4380	0.1812	25.95	0.02	0.750			
0.8872	56778.18	3.4350	3.4351	0.1772	25.95	0.02	0.750			
0.8877	56811.90	3.4320	3.4320	0.1740	25.96	0.03	0.750			
0.8882	56845.20	3.4290	3.4289	0.1695	25.96	0.03	0.750			
0.8887	56877.63	3.4260	3.4260	0.1645	25.96	0.03	0.750			
0.8892	56908.83	3.4230	3.4232	0.1598	25.97	0.04	0.750			
0.8897	56939.01	3.4200	3.4200	0.1546	25.97	0.04	0.750			
0.8901	56968.64	3.4170	3.4169	0.1496	25.97	0.04	0.750			
0.8906	56996.57	3.4140	3.4139	0.1433	25.98	0.05	0.750			
0.8910	57023.30	3.4110	3.4110	0.1373	25.98	0.05	0.750			
0.8914	57049.39	3.4080	3.4080	0.1310	25.98	0.05	0.750			
0.8918	57074.35	3.4050	3.4050	0.1252	25.98	0.05	0.750			
0.8922	57098.21	3.4020	3.4019	0.1181	25.99	0.06	0.750			
0.8925	57120.18	3.3990	3.3991	0.1104	25.99	0.06	0.750			
0.8928	57141.47	3.3960	3.3960	0.1004	25.99	0.06	0.750			
0.8931	57160.21	3.3930	3.3929	0.0918	25.99	0.06	0.750			
0.8934	57177.26	3.3900	3.3900	0.0826	25.99	0.06	0.750			
0.8936	57192.09	3.3870	3.3873	0.0718	26.00	0.07	0.750			
0.8938	57205.48	3.3840	3.3841	0.0614	26.00	0.07	0.750			
0.8940	57216.15	3.3810	3.3817	0.0498	26.00	0.07	0.750			
0.8941	57224.59	3.3780	3.3790	0.0381	26.00	0.07	0.750			
0.8942	57230.79	3.3750	3.3768	0.0265	26.00	0.07	0.750			
