Ah_balance (normalized)	Ah_balance (mAh)	Voltage - fit (V)	Voltage -  interpolate (V)	dQ/dV (1/V)	Temperature (°C)	Temperature - diff (°C)	Current (C)	R_DC 0ms (mOhm)	R_DC 50ms (mOhm)	R_DC 50 ms PEC (mOhm)
0.0529	3387.60	4.1970	4.1970	0.7743	26.72	0.77	0.750			
0.0552	3535.34	4.1940	4.1939	0.7624	26.72	0.77	0.750			
0.0575	3677.03	4.1910	4.1911	0.7535	26.72	0.77	0.750			
0.0597	3821.22	4.1880	4.1880	0.7588	26.72	0.77	0.750			
0.0620	3966.42	4.1850	4.1847	0.7666	26.72	0.77	0.750			
0.0643	4113.18	4.1820	4.1821	0.7693	26.72	0.77	0.750			
0.0667	4265.61	4.1790	4.1790	0.7718	26.72	0.77	0.750			
0.0690	4415.36	4.1760	4.1760	0.7747	26.72	0.77	0.750			
0.0713	4562.36	4.1730	4.1731	0.7695	26.72	0.77	0.750			
0.0736	4709.54	4.1700	4.1700	0.7716	26.72	0.77	0.750			
0.0759	4857.31	4.1670	4.1671	0.7712	26.72	0.77	0.750			
0.0782	5005.13	4.1640	4.1639	0.7748	26.72	0.77	0.750			
0.0806	5156.05	4.1610	4.1610	0.7732	26.72	0.77	0.750			
0.0829	5304.08	4.1580	4.1581	0.7772	26.72	0.77	0.750			
0.0852	5452.68	4.1550	4.1550	0.7743	26.72	0.77	0.750			
0.0875	5601.73	4.1520	4.1519	0.7768	26.72	0.77	0.750			
0.0898	5748.55	4.1490	4.1491	0.7809	26.72	0.77	0.750			
0.0922	5900.15	4.1460	4.1460	0.7813	26.72	0.77	0.750			
0.0945	6051.06	4.1430	4.1430	0.7870	26.72	0.77	0.750			
0.0969	6203.72	4.1400	4.1399	0.7904	26.72	0.77	0.750			
0.0993	6355.25	4.1370	4.1369	0.7822	26.72	0.77	0.750			
0.1017	6507.43	4.1340	4.1341	0.7774	26.72	0.77	0.750			
0.1040	6656.59	4.1310	4.1310	0.7727	26.72	0.77	0.750			
0.1063	6802.99	4.1280	4.1281	0.7718	26.72	0.77	0.750			
0.1086	6949.54	4.1250	4.1249	0.7761	26.72	0.77	0.750			
0.1109	7096.32	4.1220	4.1220	0.7764	26.72	0.77	0.750			
0.1132	7246.57	4.1190	4.1190	0.7799	26.72	0.77	0.750			
0.1156	7397.61	4.1160	4.1161	0.7875	26.72	0.77	0.750			
0.1180	7551.35	4.1130	4.1130	0.7846	26.72	0.77	0.750			
0.1203	7699.66	4.1100	4.1100	0.7905	26.72	0.77	0.750			
0.1227	7849.66	4.1070	4.1071	0.7922	26.72	0.77	0.750			
0.1250	8002.64	4.1040	4.1037	0.7991	26.72	0.77	0.750			
0.1275	8157.72	4.1010	4.1011	0.8044	26.72	0.77	0.750			
0.1299	8313.78	4.0980	4.0980	0.8010	26.72	0.77	0.750			
0.1323	8468.13	4.0950	4.0950	0.8050	26.72	0.77	0.750			
0.1347	8620.92	4.0920	4.0922	0.8023	26.72	0.77	0.750			
0.1371	8774.22	4.0890	4.0888	0.8076	26.72	0.77	0.750			
0.1395	8930.23	4.0860	4.0860	0.8120	26.72	0.77	0.750			
0.1420	9087.79	4.0830	4.0830	0.8115	26.72	0.77	0.750			
0.1445	9244.86	4.0800	4.0800	0.8201	26.72	0.77	0.750			
0.1469	9402.43	4.0770	4.0771	0.8180	26.72	0.77	0.750			
0.1494	9558.87	4.0740	4.0738	0.8208	26.72	0.77	0.750			
0.1518	9715.30	4.0710	4.0711	0.8226	26.72	0.77	0.750			
0.1543	9874.38	4.0680	4.0680	0.8251	26.73	0.78	0.750			
0.1568	10034.15	4.0650	4.0650	0.8315	26.73	0.78	0.750			
0.1593	10193.51	4.0620	4.0620	0.8270	26.74	0.79	0.750			
0.1617	10351.73	4.0590	4.0590	0.8322	26.74	0.79	0.750			
0.1643	10513.91	4.0560	4.0560	0.8345	26.74	0.79	0.750			
0.1668	10675.26	4.0530	4.0531	0.8256	26.74	0.79	0.750			
0.1693	10832.25	4.0500	4.0501	0.8350	26.74	0.79	0.750			
0.1717	10991.79	4.0470	4.0471	0.8383	26.74	0.79	0.750			
0.1743	11153.46	4.0440	4.0437	0.8442	26.74	0.79	0.750			
0.1768	11315.57	4.0410	4.0411	0.8482	26.74	0.79	0.750			
0.1793	11478.37	4.0380	4.0381	0.8498	26.74	0.79	0.750			
0.1819	11644.42	4.0350	4.0350	0.8554	26.74	0.79	0.750			
0.1845	11809.00	4.0320	4.0320	0.8539	26.74	0.79	0.750			
0.1871	11972.68	4.0290	4.0289	0.8553	26.74	0.79	0.750			
0.1897	12137.77	4.0260	4.0260	0.8571	26.74	0.79	0.750			
0.1922	12302.76	4.0230	4.0230	0.8571	26.74	0.79	0.750			
0.1948	12466.93	4.0200	4.0200	0.8629	26.74	0.79	0.750			
0.1974	12632.02	4.0170	4.0170	0.8642	26.74	0.79	0.750			
0.2000	12799.19	4.0140	4.0138	0.8693	26.74	0.79	0.750			
0.2026	12967.91	4.0110	4.0110	0.8676	26.74	0.79	0.750			
0.2052	13134.89	4.0080	4.0081	0.8762	26.74	0.79	0.750			
0.2079	13303.08	4.0050	4.0050	0.8829	26.74	0.79	0.750			
0.2105	13472.99	4.0020	4.0021	0.8859	26.74	0.79	0.750			
0.2131	13640.83	3.9990	3.9992	0.8881	26.74	0.79	0.750			
0.2158	13813.91	3.9960	3.9959	0.8892	26.74	0.79	0.750			
0.2185	13986.49	3.9930	3.9931	0.8929	26.74	0.79	0.750			
0.2212	14158.08	3.9900	3.9901	0.8923	26.74	0.79	0.750			
0.2239	14329.27	3.9870	3.9870	0.8905	26.74	0.79	0.750			
0.2266	14499.44	3.9840	3.9840	0.8928	26.74	0.79	0.750			
0.2292	14669.82	3.9810	3.9810	0.8847	26.74	0.79	0.750			
0.2318	14837.51	3.9780	3.9780	0.8911	26.74	0.79	0.750			
0.2345	15010.23	3.9750	3.9751	0.9008	26.74	0.79	0.750			
0.2372	15181.79	3.9720	3.9715	0.9034	26.74	0.79	0.750			
0.2400	15358.28	3.9690	3.9691	0.9030	26.74	0.79	0.750			
0.2427	15531.84	3.9660	3.9661	0.9112	26.74	0.79	0.750			
0.2454	15708.02	3.9630	3.9630	0.9150	26.74	0.79	0.750			
0.2482	15883.86	3.9600	3.9600	0.9068	26.74	0.79	0.750			
0.2509	16057.68	3.9570	3.9571	0.9072	26.74	0.79	0.750			
0.2536	16232.64	3.9540	3.9541	0.9138	26.74	0.79	0.750			
0.2564	16408.87	3.9510	3.9510	0.9144	26.74	0.79	0.750			
0.2591	16585.27	3.9480	3.9479	0.9135	26.74	0.79	0.750			
0.2619	16758.77	3.9450	3.9451	0.9112	26.74	0.79	0.750			
0.2647	16938.19	3.9420	3.9420	0.9080	26.74	0.79	0.750			
0.2673	17109.72	3.9390	3.9390	0.9142	26.73	0.78	0.750			
0.2700	17283.05	3.9360	3.9360	0.9179	26.73	0.78	0.750			
0.2728	17458.69	3.9330	3.9331	0.9265	26.72	0.77	0.750			
0.2756	17638.50	3.9300	3.9298	0.9377	26.72	0.77	0.750			
0.2784	17819.87	3.9270	3.9271	0.9403	26.72	0.77	0.750			
0.2813	18002.71	3.9240	3.9241	0.9430	26.72	0.77	0.750			
0.2842	18186.19	3.9210	3.9210	0.9409	26.72	0.77	0.750			
0.2870	18365.34	3.9180	3.9177	0.9320	26.72	0.77	0.750			
0.2898	18545.84	3.9150	3.9152	0.9220	26.72	0.77	0.750			
0.2925	18719.28	3.9120	3.9120	0.9259	26.72	0.77	0.750			
0.2953	18896.32	3.9090	3.9090	0.9302	26.71	0.76	0.750			
0.2981	19075.60	3.9060	3.9061	0.9378	26.71	0.76	0.750			
0.3008	19254.36	3.9030	3.9029	0.9434	26.71	0.76	0.750			
0.3037	19437.03	3.9000	3.9001	0.9402	26.71	0.76	0.750			
0.3065	19617.41	3.8970	3.8971	0.9470	26.70	0.75	0.750			
0.3094	19799.83	3.8940	3.8941	0.9566	26.70	0.75	0.750			
0.3122	19982.79	3.8910	3.8905	0.9558	26.70	0.75	0.750			
0.3151	20166.82	3.8880	3.8880	0.9602	26.70	0.75	0.750			
0.3180	20353.84	3.8850	3.8851	0.9693	26.69	0.74	0.750			
0.3210	20542.33	3.8820	3.8820	0.9810	26.69	0.74	0.750			
0.3239	20731.13	3.8790	3.8789	0.9772	26.68	0.73	0.750			
0.3269	20919.56	3.8760	3.8761	0.9785	26.67	0.72	0.750			
0.3298	21108.27	3.8730	3.8729	0.9835	26.66	0.71	0.750			
0.3328	21297.62	3.8700	3.8701	0.9895	26.65	0.70	0.750			
0.3357	21486.12	3.8670	3.8670	0.9907	26.65	0.70	0.750			
0.3387	21678.70	3.8640	3.8640	1.0019	26.64	0.69	0.750			
0.3417	21869.63	3.8610	3.8610	1.0097	26.63	0.68	0.750			
0.3448	22066.13	3.8580	3.8580	1.0230	26.62	0.67	0.750			
0.3479	22264.94	3.8550	3.8550	1.0318	26.61	0.66	0.750			
0.3510	22466.34	3.8520	3.8520	1.0360	26.60	0.65	0.750			
0.3541	22664.25	3.8490	3.8490	1.0429	26.59	0.64	0.750			
0.3572	22863.22	3.8460	3.8460	1.0540	26.59	0.64	0.750			
0.3604	23067.27	3.8430	3.8430	1.0609	26.58	0.63	0.750			
0.3636	23270.77	3.8400	3.8400	1.0670	26.58	0.63	0.750			
0.3669	23478.97	3.8370	3.8370	1.0739	26.57	0.62	0.750			
0.3701	23686.04	3.8340	3.8342	1.0774	26.56	0.61	0.750			
0.3734	23895.21	3.8310	3.8308	1.0792	26.54	0.59	0.750			
0.3766	24101.28	3.8280	3.8279	1.0625	26.53	0.58	0.750			
0.3797	24301.00	3.8250	3.8251	1.0686	26.52	0.57	0.750			
0.3829	24507.41	3.8220	3.8220	1.0779	26.51	0.56	0.750			
0.3862	24714.30	3.8190	3.8189	1.0870	26.50	0.55	0.750			
0.3895	24925.98	3.8160	3.8161	1.0852	26.49	0.54	0.750			
0.3927	25132.76	3.8130	3.8131	1.0947	26.48	0.53	0.750			
0.3960	25344.72	3.8100	3.8100	1.1036	26.47	0.52	0.750			
0.3993	25558.27	3.8070	3.8068	1.1114	26.46	0.51	0.750			
0.4026	25767.69	3.8040	3.8040	1.1151	26.45	0.50	0.750			
0.4060	25982.92	3.8010	3.8011	1.1333	26.44	0.49	0.750			
0.4094	26204.66	3.7980	3.7980	1.1439	26.43	0.48	0.750			
0.4130	26429.48	3.7950	3.7949	1.1388	26.42	0.47	0.750			
0.4163	26645.58	3.7920	3.7921	1.1523	26.40	0.45	0.750			
0.4198	26865.90	3.7890	3.7891	1.1669	26.39	0.44	0.750			
0.4233	27091.05	3.7860	3.7859	1.1777	26.38	0.43	0.750			
0.4268	27316.26	3.7830	3.7831	1.1908	26.36	0.41	0.750			
0.4304	27544.50	3.7800	3.7801	1.2134	26.35	0.40	0.750			
0.4341	27781.05	3.7770	3.7771	1.2466	26.34	0.39	0.750			
0.4379	28025.76	3.7740	3.7741	1.2520	26.33	0.38	0.750			
0.4417	28266.20	3.7710	3.7710	1.2802	26.31	0.36	0.750			
0.4455	28511.83	3.7680	3.7682	1.3091	26.30	0.35	0.750			
0.4495	28769.29	3.7650	3.7646	1.3309	26.28	0.33	0.750			
0.4535	29024.40	3.7620	3.7616	1.3590	26.27	0.32	0.750	0.316	0.409	
0.4576	29287.80	3.7590	3.7592	1.3886	26.25	0.30	0.750			
0.4618	29556.81	3.7560	3.7557	1.4173	26.23	0.28	0.750			
0.4662	29836.43	3.7530	3.7531	1.4435	26.22	0.27	0.750			
0.4705	30114.59	3.7500	3.7500	1.4645	26.20	0.25	0.750			
0.4749	30395.36	3.7470	3.7468	1.4973	26.19	0.24	0.750			
0.4794	30682.74	3.7440	3.7442	1.5228	26.18	0.23	0.750			
0.4840	30978.99	3.7410	3.7412	1.5682	26.16	0.21	0.750			
0.4888	31282.02	3.7380	3.7379	1.6225	26.15	0.20	0.750			
0.4937	31596.28	3.7350	3.7347	1.6600	26.13	0.18	0.750			
0.4988	31924.55	3.7320	3.7320	1.7167	26.11	0.16	0.750			
0.5040	32254.33	3.7290	3.7290	1.7728	26.10	0.15	0.750			
0.5094	32603.87	3.7260	3.7258	1.8110	26.08	0.13	0.750			
0.5149	32954.87	3.7230	3.7231	1.8721	26.06	0.11	0.750			
0.5207	33327.20	3.7200	3.7200	1.9163	26.04	0.09	0.750			
0.5266	33702.81	3.7170	3.7169	1.9572	26.02	0.07	0.750			
0.5326	34083.64	3.7140	3.7139	1.9940	26.01	0.06	0.750			
0.5386	34468.10	3.7110	3.7111	2.0541	25.99	0.04	0.750			
0.5446	34857.55	3.7080	3.7081	2.1358	25.97	0.02	0.750			
0.5512	35277.24	3.7050	3.7049	2.1903	25.95	-0.00	0.750			
0.5580	35711.14	3.7020	3.7021	2.2684	25.92	-0.03	0.750			
0.5649	36155.95	3.6990	3.6991	2.3092	25.90	-0.05	0.750			
0.5720	36609.22	3.6960	3.6960	2.3702	25.89	-0.06	0.750			
0.5791	37061.31	3.6930	3.6930	2.4229	25.87	-0.08	0.750			
0.5863	37522.43	3.6900	3.6899	2.5138	25.85	-0.10	0.750			
0.5941	38020.06	3.6870	3.6869	2.6260	25.83	-0.12	0.750			
0.6021	38536.62	3.6840	3.6839	2.6980	25.81	-0.14	0.750			
0.6104	39062.83	3.6810	3.6812	2.7868	25.79	-0.16	0.750			
0.6190	39613.99	3.6780	3.6781	2.8458	25.78	-0.17	0.750			
0.6275	40158.69	3.6750	3.6750	2.9125	25.77	-0.18	0.750			
0.6362	40719.48	3.6720	3.6721	3.0695	25.75	-0.20	0.750			
0.6457	41322.95	3.6690	3.6689	3.1255	25.73	-0.22	0.750			
0.6555	41949.49	3.6660	3.6660	3.1089	25.72	-0.23	0.750			
0.6650	42562.59	3.6630	3.6629	2.9718	25.72	-0.23	0.750			
0.6735	43104.32	3.6600	3.6601	2.6605	25.71	-0.24	0.750			
0.6807	43567.74	3.6570	3.6572	2.3339	25.71	-0.24	0.750			
0.6872	43978.35	3.6540	3.6541	2.0919	25.72	-0.23	0.750			
0.6931	44355.57	3.6510	3.6509	1.8884	25.72	-0.23	0.750			
0.6983	44688.40	3.6480	3.6479	1.7156	25.72	-0.23	0.750			
0.7031	44997.27	3.6450	3.6451	1.5830	25.72	-0.23	0.750			
0.7076	45289.20	3.6420	3.6421	1.4728	25.72	-0.23	0.750			
0.7120	45565.81	3.6390	3.6388	1.3756	25.72	-0.23	0.750			
0.7158	45810.04	3.6360	3.6360	1.2874	25.72	-0.23	0.750			
0.7194	46041.94	3.6330	3.6331	1.2373	25.72	-0.23	0.750			
0.7230	46270.51	3.6300	3.6300	1.2048	25.72	-0.23	0.750			
0.7265	46496.80	3.6270	3.6271	1.1944	25.72	-0.23	0.750			
0.7300	46720.69	3.6240	3.6241	1.1937	25.72	-0.23	0.750			
0.7336	46951.62	3.6210	3.6210	1.2110	25.72	-0.23	0.750			
0.7373	47188.79	3.6180	3.6176	1.2138	25.72	-0.23	0.750			
0.7409	47420.68	3.6150	3.6151	1.2094	25.72	-0.23	0.750			
0.7446	47656.58	3.6120	3.6121	1.2130	25.72	-0.23	0.750			
0.7484	47894.57	3.6090	3.6090	1.2036	25.72	-0.23	0.750			
0.7519	48122.96	3.6060	3.6060	1.1829	25.72	-0.23	0.750			
0.7553	48341.63	3.6030	3.6031	1.1578	25.72	-0.23	0.750			
0.7587	48559.54	3.6000	3.6002	1.1560	25.72	-0.23	0.750			
0.7622	48782.21	3.5970	3.5965	1.1535	25.72	-0.23	0.750			
0.7656	48997.34	3.5940	3.5942	1.1656	25.72	-0.23	0.750			
0.7691	49220.24	3.5910	3.5911	1.1874	25.72	-0.23	0.750			
0.7727	49455.32	3.5880	3.5880	1.2181	25.72	-0.23	0.750			
0.7764	49687.97	3.5850	3.5849	1.2464	25.72	-0.23	0.750			
0.7802	49931.55	3.5820	3.5821	1.2794	25.72	-0.23	0.750			
0.7840	50178.48	3.5790	3.5791	1.3313	25.72	-0.23	0.750			
0.7881	50438.16	3.5760	3.5759	1.3793	25.72	-0.23	0.750			
0.7922	50703.32	3.5730	3.5730	1.4194	25.72	-0.23	0.750			
0.7966	50983.98	3.5700	3.5702	1.4620	25.71	-0.24	0.750			
0.8011	51268.31	3.5670	3.5668	1.5068	25.71	-0.24	0.750			
0.8057	51562.79	3.5640	3.5640	1.5465	25.71	-0.24	0.750			
0.8105	51869.21	3.5610	3.5612	1.5730	25.71	-0.24	0.750			
0.8152	52173.07	3.5580	3.5581	1.5960	25.71	-0.24	0.750			
0.8201	52486.67	3.5550	3.5551	1.6178	25.71	-0.24	0.750			
0.8251	52803.26	3.5520	3.5519	1.6395	25.71	-0.24	0.750			
0.8300	53117.99	3.5490	3.5492	1.6528	25.71	-0.24	0.750			
0.8349	53430.96	3.5460	3.5462	1.6604	25.72	-0.23	0.750			
0.8398	53750.33	3.5430	3.5431	1.6801	25.72	-0.23	0.750			
0.8450	54077.99	3.5400	3.5400	1.7087	25.72	-0.23	0.750			
0.8501	54404.57	3.5370	3.5368	1.7524	25.72	-0.23	0.750			
0.8555	54749.58	3.5340	3.5338	1.7667	25.73	-0.22	0.750			
0.8610	55105.86	3.5310	3.5309	1.6888	25.75	-0.20	0.750			
0.8664	55451.43	3.5280	3.5279	1.5666	25.76	-0.19	0.750			
0.8714	55766.51	3.5250	3.5255	1.3456	25.78	-0.17	0.750			
0.8752	56012.70	3.5220	3.5222	1.0767	25.79	-0.16	0.750			
0.8777	56175.36	3.5190	3.5187	0.8205	25.81	-0.14	0.750			
0.8793	56274.45	3.5160	3.5155	0.5708	25.82	-0.13	0.750			
0.8805	56350.47	3.5130	3.5128	0.4598	25.83	-0.12	0.750			
0.8816	56420.54	3.5100	3.5098	0.3899	25.83	-0.12	0.750			
0.8826	56483.56	3.5070	3.5069	0.3513	25.84	-0.11	0.750			
0.8836	56547.84	3.5040	3.5040	0.3310	25.85	-0.10	0.750			
0.8845	56608.54	3.5010	3.5009	0.3145	25.85	-0.10	0.750			
0.8854	56667.06	3.4980	3.4981	0.3021	25.86	-0.09	0.750			
0.8863	56722.95	3.4950	3.4950	0.2926	25.86	-0.09	0.750			
0.8872	56778.01	3.4920	3.4918	0.2842	25.87	-0.08	0.750			
0.8880	56831.03	3.4890	3.4889	0.2764	25.87	-0.08	0.750			
0.8888	56883.43	3.4860	3.4861	0.2710	25.88	-0.07	0.750			
0.8896	56935.79	3.4830	3.4830	0.2663	25.89	-0.06	0.750			
0.8904	56986.43	3.4800	3.4799	0.2613	25.89	-0.06	0.750			
0.8912	57035.82	3.4770	3.4769	0.2542	25.90	-0.05	0.750			
0.8919	57083.39	3.4740	3.4741	0.2471	25.90	-0.05	0.750			
0.8927	57130.96	3.4710	3.4709	0.2432	25.90	-0.05	0.750			
0.8934	57176.72	3.4680	3.4681	0.2380	25.91	-0.04	0.750			
0.8941	57221.62	3.4650	3.4650	0.2336	25.91	-0.04	0.750			
0.8948	57265.76	3.4620	3.4619	0.2293	25.92	-0.03	0.750			
0.8955	57309.57	3.4590	3.4590	0.2254	25.92	-0.03	0.750			
0.8961	57352.01	3.4560	3.4560	0.2219	25.93	-0.02	0.750			
0.8968	57395.40	3.4530	3.4530	0.2183	25.93	-0.02	0.750			
0.8974	57436.79	3.4500	3.4499	0.2129	25.94	-0.01	0.750			
0.8981	57477.27	3.4470	3.4470	0.2083	25.94	-0.01	0.750			
0.8987	57516.82	3.4440	3.4442	0.2033	25.94	-0.01	0.750			
0.8993	57555.37	3.4410	3.4409	0.1977	25.95	-0.00	0.750			
0.8999	57592.80	3.4380	3.4379	0.1922	25.95	0.00	0.750			
0.9005	57629.05	3.4350	3.4350	0.1875	25.95	0.00	0.750			
0.9010	57664.14	3.4320	3.4321	0.1821	25.96	0.01	0.750			
0.9015	57699.14	3.4290	3.4288	0.1787	25.96	0.01	0.750			
0.9021	57732.96	3.4260	3.4261	0.1736	25.96	0.01	0.750			
0.9026	57765.46	3.4230	3.4230	0.1686	25.97	0.02	0.750			
0.9031	57797.60	3.4200	3.4200	0.1638	25.97	0.02	0.750			
0.9036	57829.03	3.4170	3.4169	0.1589	25.97	0.02	0.750			
0.9040	57858.95	3.4140	3.4140	0.1528	25.98	0.03	0.750			
0.9045	57887.70	3.4110	3.4110	0.1472	25.98	0.03	0.750			
0.9049	57915.29	3.4080	3.4081	0.1419	25.98	0.03	0.750			
0.9053	57941.88	3.4050	3.4050	0.1361	25.99	0.04	0.750			
0.9057	57967.58	3.4020	3.4019	0.1306	25.99	0.04	0.750			
0.9061	57991.95	3.3990	3.3990	0.1250	25.99	0.04	0.750			
0.9065	58015.98	3.3960	3.3961	0.1184	25.99	0.04	0.750			
0.9069	58038.58	3.3930	3.3930	0.1126	26.00	0.05	0.750			
0.9072	58060.17	3.3900	3.3899	0.1034	26.00	0.05	0.750			
0.9075	58079.46	3.3870	3.3871	0.0951	26.00	0.05	0.750			
0.9078	58097.11	3.3840	3.3841	0.0863	26.00	0.05	0.750			
0.9080	58112.71	3.3810	3.3811	0.0762	26.00	0.05	0.750			
0.9082	58126.68	3.3780	3.3783	0.0662	26.00	0.05	0.750			
0.9084	58138.37	3.3750	3.3758	0.0556	26.01	0.06	0.750			
0.9086	58148.02	3.3720	3.3729	0.0449	26.01	0.06	0.750			
0.9087	58155.62	3.3690	3.3701	0.0343	26.01	0.06	0.750			
