Ah_balance (normalized)	Ah_balance (mAh)	Voltage - fit (V)	Voltage -  interpolate (V)	dQ/dV (1/V)	Temperature (°C)	Temperature - diff (°C)	Current (C)	R_DC 0ms (mOhm)	R_DC 50ms (mOhm)	R_DC 50 ms PEC (mOhm)
0.0003	16.11	4.1660	4.1657	-0.1250	25.57	0.01	-0.750			
0.0007	44.20	4.1630	4.1629	-0.1724	25.57	0.01	-0.750			
0.0013	82.62	4.1600	4.1599	-0.2235	25.56	0.00	-0.750			
0.0021	131.31	4.1570	4.1570	-0.2687	25.56	0.00	-0.750			
0.0029	187.28	4.1540	4.1540	-0.3137	25.56	0.00	-0.750			
0.0040	253.44	4.1510	4.1513	-0.3570	25.56	-0.00	-0.750			
0.0051	325.19	4.1480	4.1479	-0.3994	25.56	-0.00	-0.750			
0.0063	405.93	4.1450	4.1451	-0.4414	25.56	-0.00	-0.750			
0.0077	495.10	4.1420	4.1420	-0.4800	25.55	-0.01	-0.750			
0.0093	592.33	4.1390	4.1389	-0.5140	25.55	-0.01	-0.750			
0.0109	695.86	4.1360	4.1361	-0.5461	25.55	-0.01	-0.750			
0.0126	803.43	4.1330	4.1332	-0.5772	25.55	-0.01	-0.750			
0.0143	918.09	4.1300	4.1299	-0.6040	25.54	-0.02	-0.750			
0.0162	1035.97	4.1270	4.1271	-0.6260	25.54	-0.02	-0.750			
0.0181	1159.94	4.1240	4.1240	-0.6477	25.53	-0.03	-0.750			
0.0201	1288.72	4.1210	4.1211	-0.6676	25.53	-0.03	-0.750			
0.0222	1418.96	4.1180	4.1179	-0.6834	25.52	-0.04	-0.750			
0.0242	1550.45	4.1150	4.1150	-0.6928	25.51	-0.05	-0.750			
0.0263	1685.62	4.1120	4.1120	-0.6994	25.51	-0.05	-0.750			
0.0285	1821.45	4.1090	4.1088	-0.7069	25.50	-0.06	-0.750			
0.0306	1957.90	4.1060	4.1060	-0.7165	25.50	-0.06	-0.750			
0.0327	2095.78	4.1030	4.1031	-0.7257	25.50	-0.06	-0.750			
0.0350	2237.44	4.1000	4.0998	-0.7322	25.50	-0.06	-0.750			
0.0372	2378.05	4.0970	4.0970	-0.7353	25.50	-0.06	-0.750			
0.0394	2521.12	4.0940	4.0940	-0.7396	25.50	-0.06	-0.750			
0.0416	2663.16	4.0910	4.0912	-0.7457	25.50	-0.06	-0.750			
0.0439	2807.39	4.0880	4.0879	-0.7463	25.50	-0.06	-0.750			
0.0461	2949.37	4.0850	4.0850	-0.7506	25.49	-0.07	-0.750			
0.0483	3092.78	4.0820	4.0820	-0.7549	25.49	-0.07	-0.750			
0.0506	3241.02	4.0790	4.0790	-0.7680	25.49	-0.07	-0.750			
0.0529	3388.29	4.0760	4.0760	-0.7673	25.48	-0.08	-0.750			
0.0553	3537.09	4.0730	4.0729	-0.7710	25.48	-0.08	-0.750			
0.0576	3683.91	4.0700	4.0700	-0.7734	25.48	-0.08	-0.750			
0.0599	3834.34	4.0670	4.0670	-0.7729	25.48	-0.08	-0.750			
0.0622	3980.72	4.0640	4.0640	-0.7714	25.48	-0.08	-0.750			
0.0645	4128.69	4.0610	4.0610	-0.7790	25.48	-0.08	-0.750			
0.0668	4278.06	4.0580	4.0582	-0.7792	25.48	-0.08	-0.750			
0.0692	4429.18	4.0550	4.0549	-0.7805	25.48	-0.08	-0.750			
0.0716	4579.58	4.0520	4.0521	-0.7858	25.48	-0.08	-0.750			
0.0739	4730.66	4.0490	4.0491	-0.7893	25.48	-0.08	-0.750			
0.0763	4883.72	4.0460	4.0459	-0.7938	25.48	-0.08	-0.750			
0.0787	5035.30	4.0430	4.0431	-0.7912	25.48	-0.08	-0.750			
0.0810	5185.43	4.0400	4.0400	-0.7899	25.48	-0.08	-0.750			
0.0834	5339.45	4.0370	4.0369	-0.7951	25.48	-0.08	-0.750			
0.0858	5492.74	4.0340	4.0340	-0.7972	25.48	-0.08	-0.750			
0.0882	5644.38	4.0310	4.0309	-0.7981	25.48	-0.08	-0.750			
0.0906	5798.57	4.0280	4.0281	-0.8017	25.48	-0.08	-0.750			
0.0930	5953.91	4.0250	4.0248	-0.8001	25.48	-0.08	-0.750			
0.0954	6106.45	4.0220	4.0221	-0.8077	25.49	-0.07	-0.750			
0.0978	6262.40	4.0190	4.0190	-0.8046	25.49	-0.07	-0.750			
0.1003	6416.05	4.0160	4.0159	-0.8034	25.49	-0.07	-0.750			
0.1027	6570.98	4.0130	4.0130	-0.8060	25.50	-0.06	-0.750			
0.1051	6726.59	4.0100	4.0099	-0.8020	25.50	-0.06	-0.750			
0.1075	6879.11	4.0070	4.0070	-0.8130	25.50	-0.06	-0.750			
0.1100	7037.31	4.0040	4.0040	-0.8139	25.50	-0.06	-0.750			
0.1124	7192.13	4.0010	4.0009	-0.8115	25.50	-0.06	-0.750			
0.1149	7350.77	3.9980	3.9979	-0.8164	25.50	-0.06	-0.750			
0.1173	7506.63	3.9950	3.9951	-0.8172	25.50	-0.06	-0.750			
0.1197	7662.33	3.9920	3.9920	-0.8221	25.51	-0.05	-0.750			
0.1222	7822.56	3.9890	3.9889	-0.8220	25.51	-0.05	-0.750			
0.1247	7978.04	3.9860	3.9860	-0.8141	25.51	-0.05	-0.750			
0.1271	8136.63	3.9830	3.9830	-0.8259	25.52	-0.04	-0.750			
0.1296	8295.03	3.9800	3.9801	-0.8328	25.52	-0.04	-0.750			
0.1321	8455.15	3.9770	3.9769	-0.8369	25.52	-0.04	-0.750			
0.1346	8616.52	3.9740	3.9739	-0.8381	25.52	-0.04	-0.750			
0.1372	8778.62	3.9710	3.9711	-0.8404	25.53	-0.03	-0.750			
0.1397	8942.77	3.9680	3.9680	-0.8463	25.53	-0.03	-0.750			
0.1423	9105.07	3.9650	3.9649	-0.8453	25.53	-0.03	-0.750			
0.1448	9264.38	3.9620	3.9620	-0.8413	25.53	-0.03	-0.750			
0.1473	9426.05	3.9590	3.9590	-0.8433	25.53	-0.03	-0.750			
0.1498	9587.65	3.9560	3.9560	-0.8444	25.54	-0.02	-0.750			
0.1524	9752.66	3.9530	3.9530	-0.8544	25.54	-0.02	-0.750			
0.1549	9916.24	3.9500	3.9500	-0.8521	25.54	-0.02	-0.750			
0.1575	10079.50	3.9470	3.9470	-0.8535	25.55	-0.01	-0.750			
0.1601	10243.23	3.9440	3.9440	-0.8534	25.55	-0.01	-0.750			
0.1626	10406.94	3.9410	3.9410	-0.8544	25.55	-0.01	-0.750			
0.1652	10572.25	3.9380	3.9380	-0.8555	25.56	-0.00	-0.750			
0.1678	10736.86	3.9350	3.9350	-0.8548	25.56	0.00	-0.750			
0.1703	10899.84	3.9320	3.9321	-0.8593	25.57	0.01	-0.750			
0.1729	11065.14	3.9290	3.9290	-0.8653	25.57	0.01	-0.750			
0.1755	11231.86	3.9260	3.9259	-0.8667	25.57	0.01	-0.750			
0.1781	11400.16	3.9230	3.9229	-0.8661	25.58	0.02	-0.750			
0.1807	11565.41	3.9200	3.9200	-0.8720	25.58	0.02	-0.750			
0.1833	11733.77	3.9170	3.9171	-0.8740	25.59	0.03	-0.750			
0.1860	11901.52	3.9140	3.9139	-0.8745	25.59	0.03	-0.750			
0.1886	12068.71	3.9110	3.9109	-0.8709	25.60	0.04	-0.750			
0.1912	12237.02	3.9080	3.9082	-0.8694	25.60	0.04	-0.750			
0.1938	12404.89	3.9050	3.9050	-0.8660	25.60	0.04	-0.750			
0.1965	12572.92	3.9020	3.9020	-0.8692	25.60	0.04	-0.750			
0.1990	12736.52	3.8990	3.8990	-0.8641	25.60	0.04	-0.750			
0.2016	12902.59	3.8960	3.8959	-0.8635	25.60	0.04	-0.750			
0.2042	13067.22	3.8930	3.8933	-0.8703	25.60	0.04	-0.750			
0.2068	13234.71	3.8900	3.8899	-0.8787	25.61	0.05	-0.750			
0.2094	13404.05	3.8870	3.8870	-0.8847	25.61	0.05	-0.750			
0.2121	13575.42	3.8840	3.8840	-0.8846	25.62	0.06	-0.750			
0.2148	13747.89	3.8810	3.8809	-0.8919	25.63	0.07	-0.750			
0.2175	13918.56	3.8780	3.8781	-0.8904	25.63	0.07	-0.750			
0.2201	14089.49	3.8750	3.8750	-0.8941	25.63	0.07	-0.750			
0.2228	14258.37	3.8720	3.8720	-0.8962	25.64	0.08	-0.750			
0.2255	14431.51	3.8690	3.8689	-0.8977	25.64	0.08	-0.750			
0.2282	14605.26	3.8660	3.8660	-0.9016	25.64	0.08	-0.750			
0.2309	14779.23	3.8630	3.8630	-0.9113	25.65	0.09	-0.750			
0.2337	14953.92	3.8600	3.8600	-0.9078	25.66	0.10	-0.750			
0.2364	15128.71	3.8570	3.8569	-0.9058	25.66	0.10	-0.750			
0.2391	15301.75	3.8540	3.8540	-0.9065	25.67	0.11	-0.750			
0.2418	15476.06	3.8510	3.8513	-0.9043	25.68	0.12	-0.750			
0.2445	15650.80	3.8480	3.8479	-0.9066	25.68	0.12	-0.750			
0.2473	15824.60	3.8450	3.8450	-0.9059	25.68	0.12	-0.750			
0.2500	15997.99	3.8420	3.8419	-0.9032	25.68	0.12	-0.750			
0.2527	16172.57	3.8390	3.8390	-0.9072	25.68	0.12	-0.750			
0.2554	16345.90	3.8360	3.8361	-0.9076	25.68	0.12	-0.750			
0.2581	16519.08	3.8330	3.8329	-0.9178	25.69	0.13	-0.750			
0.2609	16698.81	3.8300	3.8298	-0.9136	25.69	0.13	-0.750			
0.2637	16874.10	3.8270	3.8270	-0.9127	25.70	0.14	-0.750			
0.2664	17049.58	3.8240	3.8245	-0.9114	25.70	0.14	-0.750			
0.2691	17225.53	3.8210	3.8209	-0.9148	25.70	0.14	-0.750			
0.2719	17400.56	3.8180	3.8179	-0.9125	25.71	0.15	-0.750			
0.2746	17571.50	3.8150	3.8150	-0.9117	25.71	0.15	-0.750			
0.2773	17748.97	3.8120	3.8119	-0.9211	25.72	0.16	-0.750			
0.2801	17927.66	3.8090	3.8092	-0.9219	25.72	0.16	-0.750			
0.2829	18104.32	3.8060	3.8059	-0.9222	25.73	0.17	-0.750			
0.2857	18281.85	3.8030	3.8029	-0.9202	25.74	0.18	-0.750			
0.2884	18458.18	3.8000	3.8000	-0.9153	25.74	0.18	-0.750			
0.2912	18634.44	3.7970	3.7972	-0.9137	25.75	0.19	-0.750			
0.2939	18808.04	3.7940	3.7940	-0.9191	25.75	0.19	-0.750			
0.2967	18986.88	3.7910	3.7910	-0.9188	25.76	0.20	-0.750			
0.2994	19162.03	3.7880	3.7879	-0.9208	25.76	0.20	-0.750			
0.3022	19338.52	3.7850	3.7851	-0.9219	25.77	0.21	-0.750			
0.3050	19518.87	3.7820	3.7821	-0.9245	25.77	0.21	-0.750			
0.3078	19697.14	3.7790	3.7788	-0.9258	25.78	0.22	-0.750			
0.3106	19876.57	3.7760	3.7760	-0.9158	25.78	0.22	-0.750			
0.3133	20049.03	3.7730	3.7730	-0.9165	25.79	0.23	-0.750			
0.3160	20227.19	3.7700	3.7702	-0.9148	25.79	0.23	-0.750			
0.3187	20399.62	3.7670	3.7668	-0.9141	25.79	0.23	-0.750			
0.3215	20575.99	3.7640	3.7641	-0.9162	25.80	0.24	-0.750			
0.3243	20753.82	3.7610	3.7609	-0.9127	25.80	0.24	-0.750			
0.3270	20926.41	3.7580	3.7580	-0.9182	25.81	0.25	-0.750			
0.3298	21105.96	3.7550	3.7552	-0.9276	25.81	0.25	-0.750			
0.3325	21282.26	3.7520	3.7519	-0.9304	25.81	0.25	-0.750			
0.3354	21464.00	3.7490	3.7489	-0.9368	25.81	0.25	-0.750			
0.3382	21642.12	3.7460	3.7461	-0.9356	25.81	0.25	-0.750			
0.3410	21824.08	3.7430	3.7432	-0.9445	25.81	0.25	-0.750			
0.3439	22007.07	3.7400	3.7399	-0.9576	25.81	0.25	-0.750			
0.3467	22189.28	3.7370	3.7369	-0.9504	25.82	0.26	-0.750			
0.3496	22372.51	3.7340	3.7340	-0.9513	25.82	0.26	-0.750			
0.3525	22557.04	3.7310	3.7310	-0.9420	25.83	0.27	-0.750			
0.3553	22739.75	3.7280	3.7279	-0.9482	25.83	0.27	-0.750			
0.3581	22920.18	3.7250	3.7250	-0.9607	25.84	0.28	-0.750			
0.3610	23101.56	3.7220	3.7219	-0.9699	25.84	0.28	-0.750			
0.3639	23286.94	3.7190	3.7188	-0.9818	25.85	0.29	-0.750			
0.3669	23479.85	3.7160	3.7163	-1.0057	25.85	0.29	-0.750			
0.3699	23676.02	3.7130	3.7130	-1.0234	25.85	0.29	-0.750			
0.3731	23875.56	3.7100	3.7100	-1.0372	25.85	0.29	-0.750			
0.3761	24073.32	3.7070	3.7069	-1.0417	25.85	0.29	-0.750			
0.3793	24273.91	3.7040	3.7043	-1.0721	25.85	0.29	-0.750			
0.3826	24483.48	3.7010	3.7010	-1.0796	25.85	0.29	-0.750			
0.3858	24693.11	3.6980	3.6979	-1.0933	25.85	0.29	-0.750			
0.3891	24903.35	3.6950	3.6949	-1.1074	25.85	0.29	-0.750			
0.3924	25115.10	3.6920	3.6922	-1.1343	25.85	0.29	-0.750			
0.3959	25334.51	3.6890	3.6889	-1.1571	25.85	0.29	-0.750			
0.3994	25558.55	3.6860	3.6859	-1.1778	25.84	0.28	-0.750			
0.4029	25783.71	3.6830	3.6830	-1.2009	25.84	0.28	-0.750			
0.4066	26023.38	3.6800	3.6800	-1.2313	25.84	0.28	-0.750			
0.4104	26262.56	3.6770	3.6769	-1.2527	25.83	0.27	-0.750			
0.4141	26501.25	3.6740	3.6740	-1.2815	25.83	0.27	-0.750			
0.4179	26747.60	3.6710	3.6710	-1.2987	25.83	0.27	-0.750			
0.4219	27001.51	3.6680	3.6679	-1.3339	25.83	0.27	-0.750			
0.4259	27258.09	3.6650	3.6649	-1.3775	25.82	0.26	-0.750			
0.4300	27522.70	3.6620	3.6621	-1.4149	25.82	0.26	-0.750			
0.4344	27802.32	3.6590	3.6589	-1.4532	25.82	0.26	-0.750			
0.4389	28087.29	3.6560	3.6559	-1.4853	25.81	0.25	-0.750			
0.4434	28375.05	3.6530	3.6528	-1.5164	25.81	0.25	-0.750			
0.4481	28676.21	3.6500	3.6500	-1.5501	25.80	0.24	-0.750			
0.4527	28975.17	3.6470	3.6471	-1.5774	25.79	0.23	-0.750			
0.4575	29278.14	3.6440	3.6439	-1.6083	25.78	0.22	-0.750			
0.4624	29591.65	3.6410	3.6409	-1.6450	25.78	0.22	-0.750			
0.4674	29916.58	3.6380	3.6380	-1.6963	25.77	0.21	-0.750			
0.4726	30243.20	3.6350	3.6354	-1.7370	25.76	0.20	-0.750			
0.4779	30584.04	3.6320	3.6322	-1.7831	25.75	0.19	-0.750	0.438	0.510	
0.4834	30937.44	3.6290	3.6290	-1.8233	25.74	0.18	-0.750			
0.4889	31287.36	3.6260	3.6259	-1.8603	25.73	0.17	-0.750			
0.4946	31651.97	3.6230	3.6235	-1.8894	25.71	0.15	-0.750			
0.5003	32017.49	3.6200	3.6202	-1.8878	25.71	0.15	-0.750			
0.5059	32378.23	3.6170	3.6171	-1.9357	25.70	0.14	-0.750			
0.5118	32753.76	3.6140	3.6139	-1.9706	25.69	0.13	-0.750			
0.5178	33139.70	3.6110	3.6108	-2.0260	25.69	0.13	-0.750			
0.5240	33537.58	3.6080	3.6077	-2.0517	25.68	0.12	-0.750			
0.5302	33930.65	3.6050	3.6050	-2.0929	25.67	0.11	-0.750			
0.5365	34338.14	3.6020	3.6019	-2.1400	25.66	0.10	-0.750			
0.5429	34743.85	3.5990	3.5987	-2.1548	25.66	0.10	-0.750			
0.5495	35167.88	3.5960	3.5961	-2.1840	25.65	0.09	-0.750			
0.5561	35592.31	3.5930	3.5929	-2.2298	25.64	0.08	-0.750			
0.5629	36028.12	3.5900	3.5901	-2.2796	25.63	0.07	-0.750			
0.5698	36470.35	3.5870	3.5871	-2.2955	25.62	0.06	-0.750			
0.5768	36913.60	3.5840	3.5842	-2.3307	25.62	0.06	-0.750			
0.5838	37365.97	3.5810	3.5810	-2.3423	25.61	0.05	-0.750			
0.5910	37824.22	3.5780	3.5779	-2.3542	25.60	0.04	-0.750			
0.5981	38278.04	3.5750	3.5752	-2.3872	25.60	0.04	-0.750			
0.6051	38729.49	3.5720	3.5719	-2.4009	25.60	0.04	-0.750			
0.6123	39190.11	3.5690	3.5689	-2.4291	25.59	0.03	-0.750			
0.6197	39658.57	3.5660	3.5661	-2.4675	25.58	0.02	-0.750			
0.6273	40147.02	3.5630	3.5630	-2.4888	25.58	0.02	-0.750			
0.6349	40631.08	3.5600	3.5601	-2.4791	25.58	0.02	-0.750			
0.6423	41105.11	3.5570	3.5571	-2.4644	25.57	0.01	-0.750			
0.6495	41567.41	3.5540	3.5540	-2.4828	25.58	0.02	-0.750			
0.6570	42048.28	3.5510	3.5509	-2.4888	25.58	0.02	-0.750			
0.6645	42528.44	3.5480	3.5479	-2.4676	25.57	0.01	-0.750			
0.6721	43014.85	3.5450	3.5453	-2.4539	25.57	0.01	-0.750			
0.6794	43483.72	3.5420	3.5420	-2.4032	25.58	0.02	-0.750			
0.6866	43941.22	3.5390	3.5389	-2.3496	25.59	0.03	-0.750			
0.6934	44374.74	3.5360	3.5359	-2.2559	25.59	0.03	-0.750			
0.7001	44807.67	3.5330	3.5331	-2.2144	25.60	0.04	-0.750			
0.7067	45228.46	3.5300	3.5300	-2.1542	25.60	0.04	-0.750			
0.7130	45634.47	3.5270	3.5269	-2.0937	25.61	0.05	-0.750			
0.7193	46032.46	3.5240	3.5241	-2.0159	25.62	0.06	-0.750			
0.7252	46415.08	3.5210	3.5209	-1.9633	25.63	0.07	-0.750			
0.7310	46782.08	3.5180	3.5181	-1.8998	25.64	0.08	-0.750			
0.7366	47144.59	3.5150	3.5149	-1.8312	25.65	0.09	-0.750			
0.7420	47488.95	3.5120	3.5120	-1.7756	25.66	0.10	-0.750			
0.7472	47823.77	3.5090	3.5089	-1.7029	25.67	0.11	-0.750			
0.7523	48145.42	3.5060	3.5060	-1.6430	25.69	0.13	-0.750			
0.7572	48458.49	3.5030	3.5029	-1.5829	25.70	0.14	-0.750			
0.7617	48750.38	3.5000	3.4998	-1.5094	25.72	0.16	-0.750			
0.7661	49032.69	3.4970	3.4972	-1.4486	25.73	0.17	-0.750			
0.7704	49306.41	3.4940	3.4939	-1.3961	25.74	0.18	-0.750			
0.7745	49567.73	3.4910	3.4910	-1.3484	25.76	0.20	-0.750			
0.7785	49824.12	3.4880	3.4881	-1.3162	25.77	0.21	-0.750			
0.7824	50072.70	3.4850	3.4849	-1.2763	25.78	0.22	-0.750			
0.7862	50314.44	3.4820	3.4820	-1.2291	25.79	0.23	-0.750			
0.7898	50544.04	3.4790	3.4790	-1.1843	25.80	0.24	-0.750			
0.7932	50767.34	3.4760	3.4760	-1.1501	25.82	0.26	-0.750			
0.7967	50985.77	3.4730	3.4729	-1.1090	25.83	0.27	-0.750			
0.7999	51193.66	3.4700	3.4699	-1.0683	25.84	0.28	-0.750			
0.8030	51393.82	3.4670	3.4672	-1.0313	25.86	0.30	-0.750			
0.8061	51588.68	3.4640	3.4640	-1.0093	25.87	0.31	-0.750			
0.8090	51777.93	3.4610	3.4610	-0.9853	25.88	0.32	-0.750			
0.8119	51961.23	3.4580	3.4579	-0.9708	25.89	0.33	-0.750			
0.8147	52140.40	3.4550	3.4550	-0.9724	25.89	0.33	-0.750			
0.8176	52325.66	3.4520	3.4520	-0.9956	25.90	0.34	-0.750			
0.8206	52515.54	3.4490	3.4489	-1.0319	25.91	0.35	-0.750			
0.8236	52712.99	3.4460	3.4459	-1.0747	25.92	0.36	-0.750			
0.8269	52921.15	3.4430	3.4430	-1.1355	25.93	0.37	-0.750			
0.8304	53148.16	3.4400	3.4400	-1.1994	25.94	0.38	-0.750			
0.8342	53389.45	3.4370	3.4369	-1.2414	25.95	0.39	-0.750			
0.8381	53635.62	3.4340	3.4340	-1.2730	25.96	0.40	-0.750			
0.8420	53889.01	3.4310	3.4312	-1.2798	25.97	0.41	-0.750			
0.8459	54140.07	3.4280	3.4280	-1.2666	25.98	0.42	-0.750			
0.8498	54385.37	3.4250	3.4250	-1.2379	25.98	0.42	-0.750			
0.8534	54619.23	3.4220	3.4219	-1.1949	25.99	0.43	-0.750			
0.8570	54845.68	3.4190	3.4190	-1.1616	26.00	0.44	-0.750			
0.8604	55065.26	3.4160	3.4159	-1.1173	26.01	0.45	-0.750			
0.8637	55274.94	3.4130	3.4130	-1.0723	26.01	0.45	-0.750			
0.8668	55476.81	3.4100	3.4102	-1.0323	26.02	0.46	-0.750			
0.8699	55672.58	3.4070	3.4070	-0.9982	26.03	0.47	-0.750			
0.8728	55859.79	3.4040	3.4039	-0.9550	26.04	0.48	-0.750			
0.8756	56037.39	3.4010	3.4009	-0.9169	26.04	0.48	-0.750			
0.8783	56210.28	3.3980	3.3982	-0.8830	26.05	0.49	-0.750			
0.8809	56376.51	3.3950	3.3949	-0.8479	26.06	0.50	-0.750			
0.8834	56535.74	3.3920	3.3920	-0.8141	26.06	0.50	-0.750			
0.8857	56687.74	3.3890	3.3890	-0.7811	26.07	0.51	-0.750			
0.8880	56832.67	3.3860	3.3860	-0.7475	26.08	0.52	-0.750			
0.8902	56974.98	3.3830	3.3830	-0.7223	26.09	0.53	-0.750			
0.8923	57110.11	3.3800	3.3800	-0.6925	26.09	0.53	-0.750			
0.8944	57240.45	3.3770	3.3770	-0.6662	26.10	0.54	-0.750			
0.8963	57365.65	3.3740	3.3740	-0.6404	26.11	0.55	-0.750			
0.8982	57486.21	3.3710	3.3710	-0.6134	26.11	0.55	-0.750			
0.9000	57601.51	3.3680	3.3680	-0.5896	26.12	0.56	-0.750			
0.9018	57712.22	3.3650	3.3650	-0.5651	26.12	0.56	-0.750			
0.9034	57818.05	3.3620	3.3620	-0.5391	26.13	0.57	-0.750			
0.9050	57919.45	3.3590	3.3589	-0.5165	26.14	0.58	-0.750			
0.9065	58016.31	3.3560	3.3560	-0.4914	26.14	0.58	-0.750			
0.9079	58107.58	3.3530	3.3531	-0.4696	26.15	0.59	-0.750			
0.9093	58195.27	3.3500	3.3500	-0.4499	26.16	0.60	-0.750			
0.9106	58279.34	3.3470	3.3470	-0.4291	26.16	0.60	-0.750			
0.9119	58360.08	3.3440	3.3440	-0.4117	26.17	0.61	-0.750			
0.9131	58437.27	3.3410	3.3410	-0.3947	26.17	0.61	-0.750			
0.9142	58511.03	3.3380	3.3381	-0.3766	26.18	0.62	-0.750			
0.9153	58582.31	3.3350	3.3349	-0.3601	26.19	0.63	-0.750			
0.9164	58648.56	3.3320	3.3321	-0.3435	26.19	0.63	-0.750			
0.9174	58712.27	3.3290	3.3290	-0.3283	26.20	0.64	-0.750			
0.9183	58774.32	3.3260	3.3261	-0.3154	26.20	0.64	-0.750			
0.9193	58833.69	3.3230	3.3229	-0.3031	26.20	0.64	-0.750			
0.9202	58890.26	3.3200	3.3201	-0.2902	26.21	0.65	-0.750			
0.9210	58945.02	3.3170	3.3170	-0.2791	26.21	0.65	-0.750			
0.9218	58997.44	3.3140	3.3139	-0.2671	26.22	0.66	-0.750			
0.9226	59047.00	3.3110	3.3110	-0.2556	26.22	0.66	-0.750			
0.9233	59094.37	3.3080	3.3081	-0.2449	26.22	0.66	-0.750			
0.9241	59140.56	3.3050	3.3050	-0.2359	26.23	0.67	-0.750			
0.9248	59184.94	3.3020	3.3019	-0.2277	26.23	0.67	-0.750			
0.9254	59227.30	3.2990	3.2990	-0.2193	26.23	0.67	-0.750			
0.9261	59268.65	3.2960	3.2959	-0.2117	26.24	0.68	-0.750			
0.9267	59308.60	3.2930	3.2931	-0.2044	26.24	0.68	-0.750			
0.9273	59347.06	3.2900	3.2900	-0.1981	26.24	0.68	-0.750			
0.9279	59384.16	3.2870	3.2870	-0.1918	26.25	0.69	-0.750			
0.9284	59420.25	3.2840	3.2839	-0.1860	26.25	0.69	-0.750			
0.9290	59455.43	3.2810	3.2810	-0.1805	26.25	0.69	-0.750			
0.9295	59489.38	3.2780	3.2780	-0.1750	26.26	0.70	-0.750			
0.9300	59522.36	3.2750	3.2750	-0.1702	26.26	0.70	-0.750			
0.9305	59554.66	3.2720	3.2720	-0.1656	26.27	0.71	-0.750			
0.9310	59585.99	3.2690	3.2690	-0.1608	26.27	0.71	-0.750			
0.9315	59616.16	3.2660	3.2660	-0.1566	26.27	0.71	-0.750			
0.9320	59645.65	3.2630	3.2630	-0.1527	26.28	0.72	-0.750			
0.9324	59674.41	3.2600	3.2600	-0.1492	26.28	0.72	-0.750			
0.9329	59702.75	3.2570	3.2570	-0.1460	26.29	0.73	-0.750			
0.9333	59730.34	3.2540	3.2540	-0.1434	26.29	0.73	-0.750			
0.9337	59757.65	3.2510	3.2509	-0.1401	26.29	0.73	-0.750			
0.9341	59784.42	3.2480	3.2481	-0.1374	26.30	0.74	-0.750			
0.9345	59810.46	3.2450	3.2449	-0.1344	26.30	0.74	-0.750			
0.9349	59835.93	3.2420	3.2421	-0.1316	26.30	0.74	-0.750			
0.9353	59860.94	3.2390	3.2390	-0.1287	26.31	0.75	-0.750			
0.9357	59884.98	3.2360	3.2359	-0.1261	26.31	0.75	-0.750			
0.9361	59909.01	3.2330	3.2330	-0.1241	26.31	0.75	-0.750			
0.9364	59932.46	3.2300	3.2300	-0.1218	26.32	0.76	-0.750			
0.9368	59955.79	3.2270	3.2270	-0.1202	26.32	0.76	-0.750			
0.9372	59978.66	3.2240	3.2239	-0.1184	26.32	0.76	-0.750			
0.9375	60001.20	3.2210	3.2211	-0.1166	26.33	0.77	-0.750			
0.9379	60023.40	3.2180	3.2180	-0.1148	26.33	0.77	-0.750			
0.9382	60045.33	3.2150	3.2150	-0.1131	26.33	0.77	-0.750			
0.9385	60066.86	3.2120	3.2120	-0.1113	26.33	0.77	-0.750			
0.9389	60087.93	3.2090	3.2090	-0.1094	26.34	0.78	-0.750			
0.9392	60108.81	3.2060	3.2060	-0.1075	26.34	0.78	-0.750			
0.9395	60129.39	3.2030	3.2030	-0.1058	26.34	0.78	-0.750			
0.9398	60149.46	3.2000	3.1999	-0.1041	26.35	0.79	-0.750			
0.9401	60169.22	3.1970	3.1971	-0.1023	26.35	0.79	-0.750			
0.9404	60188.63	3.1940	3.1940	-0.1010	26.35	0.79	-0.750			
0.9407	60207.75	3.1910	3.1910	-0.0994	26.35	0.79	-0.750			
0.9410	60226.73	3.1880	3.1880	-0.0979	26.36	0.80	-0.750			
0.9413	60245.36	3.1850	3.1851	-0.0965	26.36	0.80	-0.750			
0.9416	60263.71	3.1820	3.1819	-0.0955	26.36	0.80	-0.750			
0.9419	60281.93	3.1790	3.1791	-0.0943	26.37	0.81	-0.750			
0.9422	60299.81	3.1760	3.1760	-0.0936	26.37	0.81	-0.750			
0.9425	60317.56	3.1730	3.1731	-0.0927	26.37	0.81	-0.750			
0.9427	60335.37	3.1700	3.1700	-0.0916	26.38	0.82	-0.750			
0.9430	60352.83	3.1670	3.1669	-0.0907	26.38	0.82	-0.750			
0.9433	60370.23	3.1640	3.1640	-0.0898	26.38	0.82	-0.750			
0.9436	60387.55	3.1610	3.1611	-0.0890	26.39	0.83	-0.750			
0.9438	60404.50	3.1580	3.1579	-0.0880	26.39	0.83	-0.750			
0.9441	60421.32	3.1550	3.1551	-0.0869	26.39	0.83	-0.750			
0.9443	60437.84	3.1520	3.1520	-0.0860	26.40	0.84	-0.750			
0.9446	60454.11	3.1490	3.1490	-0.0848	26.40	0.84	-0.750			
0.9448	60470.33	3.1460	3.1461	-0.0841	26.40	0.84	-0.750			
0.9451	60486.39	3.1430	3.1430	-0.0835	26.40	0.84	-0.750			
0.9453	60502.36	3.1400	3.1401	-0.0828	26.41	0.85	-0.750			
0.9456	60518.25	3.1370	3.1370	-0.0819	26.41	0.85	-0.750			
0.9458	60533.89	3.1340	3.1339	-0.0811	26.41	0.85	-0.750			
0.9461	60549.46	3.1310	3.1310	-0.0803	26.42	0.86	-0.750			
0.9463	60564.70	3.1280	3.1281	-0.0797	26.42	0.86	-0.750			
0.9466	60579.92	3.1250	3.1250	-0.0790	26.42	0.86	-0.750			
0.9468	60595.01	3.1220	3.1220	-0.0782	26.42	0.86	-0.750			
0.9470	60609.96	3.1190	3.1189	-0.0775	26.43	0.87	-0.750			
0.9473	60624.65	3.1160	3.1159	-0.0767	26.43	0.87	-0.750			
0.9475	60639.31	3.1130	3.1130	-0.0762	26.43	0.87	-0.750			
0.9477	60653.88	3.1100	3.1101	-0.0756	26.43	0.87	-0.750			
0.9479	60668.44	3.1070	3.1070	-0.0751	26.44	0.88	-0.750			
0.9482	60682.79	3.1040	3.1040	-0.0745	26.44	0.88	-0.750			
0.9484	60696.95	3.1010	3.1011	-0.0738	26.44	0.88	-0.750			
0.9486	60711.07	3.0980	3.0981	-0.0733	26.45	0.89	-0.750			
0.9488	60725.06	3.0950	3.0950	-0.0729	26.45	0.89	-0.750			
0.9490	60739.03	3.0920	3.0919	-0.0724	26.45	0.89	-0.750			
0.9493	60752.86	3.0890	3.0889	-0.0720	26.45	0.89	-0.750			
0.9495	60766.65	3.0860	3.0860	-0.0716	26.46	0.90	-0.750			
0.9497	60780.27	3.0830	3.0829	-0.0711	26.46	0.90	-0.750			
0.9499	60793.98	3.0800	3.0801	-0.0704	26.46	0.90	-0.750			
0.9501	60807.58	3.0770	3.0771	-0.0701	26.46	0.90	-0.750			
0.9503	60820.97	3.0740	3.0740	-0.0694	26.47	0.91	-0.750			
0.9505	60834.19	3.0710	3.0710	-0.0689	26.47	0.91	-0.750			
0.9507	60847.36	3.0680	3.0680	-0.0683	26.47	0.91	-0.750			
0.9509	60860.29	3.0650	3.0649	-0.0679	26.47	0.91	-0.750			
0.9511	60873.30	3.0620	3.0621	-0.0675	26.48	0.92	-0.750			
0.9513	60886.05	3.0590	3.0589	-0.0670	26.48	0.92	-0.750			
0.9515	60898.93	3.0560	3.0560	-0.0668	26.48	0.92	-0.750			
0.9517	60911.75	3.0530	3.0530	-0.0666	26.48	0.92	-0.750			
0.9519	60924.51	3.0500	3.0500	-0.0663	26.49	0.93	-0.750			
0.9521	60937.27	3.0470	3.0469	-0.0657	26.49	0.93	-0.750			
0.9523	60949.96	3.0440	3.0441	-0.0654	26.49	0.93	-0.750			
0.9525	60962.33	3.0410	3.0411	-0.0651	26.49	0.93	-0.750			
0.9527	60974.79	3.0380	3.0380	-0.0647	26.50	0.94	-0.750			
0.9529	60987.10	3.0350	3.0350	-0.0643	26.50	0.94	-0.750			
0.9531	60999.51	3.0320	3.0320	-0.0638	26.50	0.94	-0.750			
0.9533	61011.71	3.0290	3.0288	-0.0634	26.50	0.94	-0.750			
0.9535	61023.84	3.0260	3.0261	-0.0629	26.51	0.95	-0.750			
0.9537	61035.89	3.0230	3.0231	-0.0625	26.51	0.95	-0.750			
0.9539	61047.96	3.0200	3.0200	-0.0623	26.51	0.95	-0.750			
0.9541	61059.86	3.0170	3.0168	-0.0617	26.51	0.95	-0.750			
0.9542	61071.64	3.0140	3.0140	-0.0611	26.52	0.96	-0.750			
0.9544	61083.13	3.0110	3.0111	-0.0608	26.52	0.96	-0.750			
0.9546	61094.78	3.0080	3.0081	-0.0606	26.52	0.96	-0.751			
0.9548	61106.39	3.0050	3.0050	-0.0604	26.52	0.96	-0.751			
