Ah_balance (normalized)	Ah_balance (mAh)	Voltage - fit (V)	Voltage -  interpolate (V)	dQ/dV (1/V)	Temperature (°C)	Temperature - diff (°C)	Current (C)	R_DC 0ms (mOhm)	R_DC 50ms (mOhm)	R_DC 50 ms PEC (mOhm)
0.0516	3302.71	4.1990	4.1991	0.7431	26.58	0.65	0.750			
0.0538	3446.14	4.1960	4.1959	0.7497	26.58	0.65	0.750			
0.0561	3591.23	4.1930	4.1931	0.7519	26.58	0.65	0.750			
0.0584	3735.14	4.1900	4.1900	0.7540	26.58	0.65	0.750			
0.0606	3880.38	4.1870	4.1870	0.7601	26.58	0.65	0.750			
0.0629	4026.09	4.1840	4.1838	0.7597	26.58	0.65	0.750			
0.0652	4171.41	4.1810	4.1812	0.7618	26.58	0.65	0.750			
0.0675	4320.20	4.1780	4.1780	0.7576	26.58	0.65	0.750			
0.0698	4465.69	4.1750	4.1750	0.7640	26.58	0.65	0.750			
0.0720	4610.72	4.1720	4.1720	0.7628	26.58	0.65	0.750			
0.0743	4757.06	4.1690	4.1690	0.7702	26.58	0.65	0.750			
0.0767	4905.93	4.1660	4.1662	0.7707	26.58	0.65	0.750			
0.0790	5055.67	4.1630	4.1630	0.7713	26.58	0.65	0.750			
0.0813	5204.45	4.1600	4.1601	0.7696	26.58	0.65	0.750			
0.0836	5352.50	4.1570	4.1570	0.7692	26.58	0.65	0.750			
0.0859	5498.60	4.1540	4.1540	0.7662	26.58	0.65	0.750			
0.0882	5644.89	4.1510	4.1506	0.7709	26.58	0.65	0.750			
0.0905	5792.37	4.1480	4.1481	0.7705	26.58	0.65	0.750			
0.0928	5942.26	4.1450	4.1450	0.7746	26.58	0.65	0.750			
0.0952	6092.67	4.1420	4.1420	0.7775	26.58	0.65	0.750			
0.0975	6241.57	4.1390	4.1390	0.7761	26.58	0.65	0.750			
0.0998	6388.31	4.1360	4.1359	0.7796	26.58	0.65	0.750			
0.1022	6537.95	4.1330	4.1330	0.7860	26.58	0.65	0.750			
0.1045	6689.75	4.1300	4.1300	0.7838	26.58	0.65	0.750			
0.1069	6841.86	4.1270	4.1270	0.7886	26.58	0.65	0.750			
0.1093	6994.85	4.1240	4.1241	0.7902	26.58	0.65	0.750			
0.1117	7146.14	4.1210	4.1210	0.7902	26.58	0.65	0.750			
0.1140	7296.68	4.1180	4.1180	0.7900	26.58	0.65	0.750			
0.1164	7447.34	4.1150	4.1150	0.7915	26.58	0.65	0.750			
0.1187	7598.21	4.1120	4.1120	0.7952	26.58	0.65	0.750			
0.1211	7753.09	4.1090	4.1090	0.7982	26.58	0.65	0.750			
0.1235	7907.16	4.1060	4.1060	0.7969	26.58	0.65	0.750			
0.1259	8060.45	4.1030	4.1030	0.8008	26.58	0.65	0.750			
0.1283	8213.67	4.1000	4.1001	0.8012	26.58	0.65	0.750			
0.1308	8368.84	4.0970	4.0969	0.7925	26.58	0.65	0.750			
0.1331	8520.29	4.0940	4.0940	0.7906	26.59	0.66	0.750			
0.1354	8668.76	4.0910	4.0912	0.7884	26.59	0.66	0.750			
0.1378	8821.59	4.0880	4.0877	0.7967	26.59	0.66	0.750			
0.1402	8974.50	4.0850	4.0851	0.8003	26.59	0.66	0.750			
0.1426	9129.03	4.0820	4.0820	0.7977	26.59	0.66	0.750			
0.1451	9284.10	4.0790	4.0790	0.8069	26.60	0.67	0.750			
0.1475	9440.32	4.0760	4.0761	0.8150	26.60	0.67	0.750			
0.1499	9593.61	4.0730	4.0729	0.8140	26.60	0.67	0.750			
0.1524	9750.67	4.0700	4.0700	0.8185	26.60	0.67	0.750			
0.1548	9909.92	4.0670	4.0670	0.8148	26.60	0.67	0.750			
0.1573	10066.50	4.0640	4.0641	0.8177	26.60	0.67	0.750			
0.1598	10224.41	4.0610	4.0611	0.8270	26.60	0.67	0.750			
0.1622	10380.88	4.0580	4.0579	0.8270	26.60	0.67	0.750			
0.1647	10539.92	4.0550	4.0550	0.8295	26.60	0.67	0.750			
0.1672	10699.78	4.0520	4.0521	0.8306	26.60	0.67	0.750			
0.1697	10860.28	4.0490	4.0491	0.8375	26.60	0.67	0.750			
0.1723	11025.20	4.0460	4.0459	0.8431	26.60	0.67	0.750			
0.1747	11182.72	4.0430	4.0429	0.8492	26.60	0.67	0.750			
0.1773	11345.83	4.0400	4.0401	0.8572	26.60	0.67	0.750			
0.1799	11512.35	4.0370	4.0369	0.8627	26.60	0.67	0.750			
0.1825	11679.85	4.0340	4.0341	0.8702	26.60	0.67	0.750			
0.1851	11849.47	4.0310	4.0310	0.8743	26.60	0.67	0.750			
0.1878	12017.02	4.0280	4.0279	0.8676	26.60	0.67	0.750			
0.1904	12184.28	4.0250	4.0250	0.8649	26.60	0.67	0.750			
0.1929	12347.25	4.0220	4.0221	0.8585	26.60	0.67	0.750			
0.1955	12512.92	4.0190	4.0189	0.8604	26.60	0.67	0.750			
0.1981	12677.23	4.0160	4.0160	0.8576	26.60	0.67	0.750			
0.2006	12841.08	4.0130	4.0129	0.8599	26.60	0.67	0.750			
0.2032	13007.34	4.0100	4.0101	0.8631	26.60	0.67	0.750			
0.2058	13172.79	4.0070	4.0070	0.8713	26.60	0.67	0.750			
0.2084	13340.46	4.0040	4.0040	0.8748	26.61	0.68	0.750			
0.2111	13509.08	4.0010	4.0010	0.8805	26.61	0.68	0.750			
0.2137	13678.45	3.9980	3.9980	0.8843	26.61	0.68	0.750			
0.2164	13850.26	3.9950	3.9951	0.8837	26.61	0.68	0.750			
0.2191	14019.25	3.9920	3.9920	0.8846	26.61	0.68	0.750			
0.2217	14189.38	3.9890	3.9890	0.8841	26.60	0.67	0.750			
0.2243	14357.40	3.9860	3.9861	0.8805	26.60	0.67	0.750			
0.2270	14527.51	3.9830	3.9829	0.8836	26.60	0.67	0.750			
0.2296	14696.67	3.9800	3.9801	0.8835	26.60	0.67	0.750			
0.2323	14865.84	3.9770	3.9770	0.8907	26.60	0.67	0.750			
0.2350	15037.65	3.9740	3.9740	0.8990	26.60	0.67	0.750			
0.2377	15210.33	3.9710	3.9707	0.9004	26.60	0.67	0.750			
0.2404	15386.72	3.9680	3.9680	0.9003	26.60	0.67	0.750			
0.2431	15559.00	3.9650	3.9651	0.9023	26.60	0.67	0.750			
0.2458	15731.67	3.9620	3.9621	0.9087	26.60	0.67	0.750			
0.2485	15905.97	3.9590	3.9591	0.9101	26.60	0.67	0.750			
0.2512	16078.25	3.9560	3.9558	0.9083	26.60	0.67	0.750			
0.2540	16254.72	3.9530	3.9530	0.9096	26.60	0.67	0.750			
0.2567	16431.53	3.9500	3.9501	0.9109	26.60	0.67	0.750			
0.2595	16604.94	3.9470	3.9470	0.9140	26.60	0.67	0.750			
0.2622	16779.00	3.9440	3.9440	0.9120	26.60	0.67	0.750			
0.2649	16956.22	3.9410	3.9409	0.9122	26.60	0.67	0.750			
0.2677	17131.88	3.9380	3.9380	0.9116	26.59	0.66	0.750			
0.2704	17307.31	3.9350	3.9351	0.9112	26.59	0.66	0.750			
0.2732	17484.08	3.9320	3.9321	0.9138	26.58	0.65	0.750			
0.2759	17657.02	3.9290	3.9288	0.9111	26.58	0.65	0.750			
0.2786	17831.57	3.9260	3.9260	0.9048	26.58	0.65	0.750			
0.2813	18003.17	3.9230	3.9230	0.9084	26.58	0.65	0.750			
0.2840	18178.89	3.9200	3.9201	0.9155	26.58	0.65	0.750			
0.2868	18355.70	3.9170	3.9170	0.9228	26.58	0.65	0.750			
0.2896	18533.78	3.9140	3.9140	0.9265	26.58	0.65	0.750			
0.2924	18711.68	3.9110	3.9111	0.9339	26.58	0.65	0.750			
0.2952	18891.68	3.9080	3.9080	0.9428	26.57	0.64	0.750			
0.2981	19076.22	3.9050	3.9051	0.9497	26.57	0.64	0.750			
0.3009	19258.71	3.9020	3.9018	0.9409	26.57	0.64	0.750			
0.3038	19440.48	3.8990	3.8990	0.9341	26.56	0.63	0.750			
0.3065	19618.16	3.8960	3.8961	0.9332	26.56	0.63	0.750			
0.3093	19796.03	3.8930	3.8929	0.9342	26.55	0.62	0.750			
0.3121	19974.07	3.8900	3.8899	0.9335	26.54	0.61	0.750			
0.3149	20154.67	3.8870	3.8871	0.9328	26.54	0.61	0.750			
0.3177	20334.41	3.8840	3.8841	0.9443	26.53	0.60	0.750			
0.3206	20515.41	3.8810	3.8810	0.9570	26.53	0.60	0.750			
0.3234	20698.81	3.8780	3.8780	0.9666	26.52	0.59	0.750			
0.3263	20885.30	3.8750	3.8751	0.9707	26.52	0.59	0.750			
0.3293	21072.70	3.8720	3.8720	0.9820	26.51	0.58	0.750			
0.3323	21264.45	3.8690	3.8691	0.9927	26.50	0.57	0.750			
0.3352	21455.69	3.8660	3.8660	1.0025	26.49	0.56	0.750			
0.3382	21647.99	3.8630	3.8629	1.0034	26.48	0.55	0.750			
0.3413	21840.74	3.8600	3.8600	1.0058	26.48	0.55	0.750			
0.3443	22034.81	3.8570	3.8569	1.0121	26.47	0.54	0.750			
0.3474	22230.56	3.8540	3.8542	1.0187	26.47	0.54	0.750			
0.3504	22426.61	3.8510	3.8507	1.0214	26.46	0.53	0.750			
0.3535	22621.96	3.8480	3.8480	1.0233	26.45	0.52	0.750			
0.3565	22818.23	3.8450	3.8450	1.0266	26.44	0.51	0.750			
0.3596	23014.92	3.8420	3.8420	1.0357	26.43	0.50	0.750			
0.3627	23214.13	3.8390	3.8388	1.0425	26.42	0.49	0.750			
0.3659	23414.83	3.8360	3.8361	1.0441	26.41	0.48	0.750			
0.3690	23615.95	3.8330	3.8330	1.0493	26.40	0.47	0.750			
0.3722	23819.15	3.8300	3.8301	1.0569	26.38	0.45	0.750			
0.3754	24023.88	3.8270	3.8269	1.0556	26.37	0.44	0.750			
0.3785	24224.55	3.8240	3.8240	1.0546	26.36	0.43	0.750			
0.3816	24425.25	3.8210	3.8211	1.0628	26.36	0.43	0.750			
0.3848	24629.00	3.8180	3.8180	1.0696	26.35	0.42	0.750			
0.3881	24837.23	3.8150	3.8147	1.0746	26.34	0.41	0.750			
0.3913	25042.60	3.8120	3.8121	1.0808	26.33	0.40	0.750			
0.3946	25251.55	3.8090	3.8091	1.0867	26.31	0.38	0.750			
0.3979	25463.09	3.8060	3.8061	1.0967	26.30	0.37	0.750			
0.4011	25671.57	3.8030	3.8029	1.0900	26.29	0.36	0.750			
0.4044	25880.01	3.8000	3.8001	1.1031	26.28	0.35	0.750			
0.4077	26093.37	3.7970	3.7970	1.1140	26.27	0.34	0.750			
0.4111	26307.29	3.7940	3.7940	1.1309	26.26	0.33	0.750			
0.4145	26527.85	3.7910	3.7910	1.1312	26.25	0.32	0.750			
0.4179	26745.41	3.7880	3.7881	1.1531	26.23	0.30	0.750			
0.4214	26967.19	3.7850	3.7850	1.1689	26.22	0.29	0.750			
0.4249	27196.26	3.7820	3.7818	1.1730	26.21	0.28	0.750			
0.4284	27420.19	3.7790	3.7790	1.1882	26.20	0.27	0.750			
0.4320	27651.10	3.7760	3.7761	1.2037	26.18	0.25	0.750			
0.4357	27884.01	3.7730	3.7730	1.2134	26.16	0.23	0.750			
0.4392	28111.52	3.7700	3.7703	1.2533	26.15	0.22	0.750			
0.4430	28352.68	3.7670	3.7671	1.3012	26.14	0.21	0.750			
0.4470	28607.97	3.7640	3.7642	1.3361	26.13	0.20	0.750			
0.4511	28871.34	3.7610	3.7609	1.3872	26.12	0.19	0.750	0.320	0.415	
0.4554	29145.94	3.7580	3.7582	1.4271	26.11	0.18	0.750			
0.4598	29427.87	3.7550	3.7550	1.4524	26.10	0.17	0.750			
0.4643	29712.28	3.7520	3.7520	1.4532	26.09	0.16	0.750			
0.4685	29981.93	3.7490	3.7491	1.4583	26.07	0.14	0.750			
0.4729	30266.21	3.7460	3.7461	1.4763	26.06	0.13	0.750			
0.4773	30550.17	3.7430	3.7431	1.5159	26.04	0.11	0.750			
0.4819	30839.97	3.7400	3.7401	1.5437	26.03	0.10	0.750			
0.4866	31142.47	3.7370	3.7370	1.5956	26.01	0.08	0.750			
0.4915	31454.34	3.7340	3.7337	1.6515	26.00	0.07	0.750			
0.4965	31778.13	3.7310	3.7310	1.6889	25.98	0.05	0.750			
0.5017	32107.75	3.7280	3.7282	1.7418	25.97	0.04	0.750			
0.5070	32448.94	3.7250	3.7253	1.7927	25.95	0.02	0.750			
0.5124	32796.33	3.7220	3.7219	1.8392	25.93	0.00	0.750			
0.5180	33155.14	3.7190	3.7190	1.9032	25.91	-0.02	0.750			
0.5239	33527.80	3.7160	3.7160	1.9493	25.90	-0.03	0.750			
0.5298	33907.25	3.7130	3.7129	2.0025	25.88	-0.05	0.750			
0.5358	34291.27	3.7100	3.7100	2.0940	25.86	-0.07	0.750			
0.5421	34696.84	3.7070	3.7069	2.1458	25.84	-0.09	0.750			
0.5487	35117.81	3.7040	3.7038	2.1964	25.82	-0.11	0.750			
0.5555	35549.43	3.7010	3.7013	2.2735	25.80	-0.13	0.750			
0.5625	35997.48	3.6980	3.6981	2.3358	25.78	-0.15	0.750			
0.5695	36448.72	3.6950	3.6949	2.3912	25.76	-0.17	0.750			
0.5766	36903.75	3.6920	3.6921	2.4217	25.75	-0.18	0.750			
0.5841	37380.02	3.6890	3.6889	2.4901	25.73	-0.20	0.750			
0.5917	37868.86	3.6860	3.6862	2.5808	25.71	-0.22	0.750			
0.5995	38368.24	3.6830	3.6830	2.6827	25.70	-0.23	0.750			
0.6078	38900.52	3.6800	3.6799	2.7671	25.69	-0.24	0.750			
0.6162	39434.86	3.6770	3.6771	2.8685	25.68	-0.25	0.750			
0.6249	39995.27	3.6740	3.6741	2.9724	25.66	-0.27	0.750			
0.6341	40579.56	3.6710	3.6709	3.0203	25.65	-0.28	0.750			
0.6433	41169.70	3.6680	3.6681	3.0467	25.64	-0.29	0.750			
0.6527	41774.37	3.6650	3.6648	2.9522	25.64	-0.29	0.750			
0.6614	42326.73	3.6620	3.6621	2.6924	25.64	-0.29	0.750			
0.6690	42813.34	3.6590	3.6592	2.4385	25.64	-0.29	0.750			
0.6756	43235.37	3.6560	3.6560	2.1616	25.64	-0.29	0.750			
0.6816	43620.23	3.6530	3.6527	1.9407	25.64	-0.29	0.750			
0.6869	43960.04	3.6500	3.6499	1.7534	25.64	-0.29	0.750			
0.6919	44281.87	3.6470	3.6467	1.6239	25.64	-0.29	0.750			
0.6965	44576.51	3.6440	3.6443	1.5064	25.64	-0.29	0.750			
0.7009	44856.37	3.6410	3.6409	1.3916	25.64	-0.29	0.750			
0.7048	45105.36	3.6380	3.6380	1.3116	25.64	-0.29	0.750			
0.7085	45343.21	3.6350	3.6351	1.2411	25.64	-0.29	0.750			
0.7122	45579.01	3.6320	3.6319	1.2112	25.64	-0.29	0.750			
0.7157	45805.74	3.6290	3.6290	1.1962	25.64	-0.29	0.750			
0.7192	46027.09	3.6260	3.6261	1.1872	25.65	-0.28	0.750			
0.7227	46253.99	3.6230	3.6231	1.1962	25.66	-0.27	0.750			
0.7264	46486.42	3.6200	3.6199	1.1884	25.66	-0.27	0.750			
0.7299	46716.30	3.6170	3.6171	1.1995	25.66	-0.27	0.750			
0.7336	46948.70	3.6140	3.6142	1.2038	25.66	-0.27	0.750			
0.7373	47185.96	3.6110	3.6108	1.1884	25.66	-0.27	0.750			
0.7408	47411.53	3.6080	3.6081	1.1695	25.66	-0.27	0.750			
0.7443	47632.35	3.6050	3.6051	1.1562	25.66	-0.27	0.750			
0.7477	47851.33	3.6020	3.6022	1.1547	25.66	-0.27	0.750			
0.7511	48069.81	3.5990	3.5989	1.1450	25.66	-0.27	0.750			
0.7545	48289.18	3.5960	3.5960	1.1542	25.66	-0.27	0.750			
0.7580	48510.05	3.5930	3.5930	1.1703	25.67	-0.26	0.750			
0.7615	48738.79	3.5900	3.5901	1.1940	25.67	-0.26	0.750			
0.7651	48966.60	3.5870	3.5870	1.2249	25.67	-0.26	0.750			
0.7688	49200.85	3.5840	3.5840	1.2620	25.67	-0.26	0.750			
0.7726	49448.46	3.5810	3.5810	1.3025	25.68	-0.25	0.750			
0.7766	49702.87	3.5780	3.5780	1.3509	25.68	-0.25	0.750			
0.7807	49967.05	3.5750	3.5751	1.3929	25.68	-0.25	0.750			
0.7850	50239.98	3.5720	3.5721	1.4334	25.68	-0.25	0.750			
0.7894	50520.39	3.5690	3.5691	1.4822	25.68	-0.25	0.750			
0.7938	50806.14	3.5660	3.5658	1.5259	25.68	-0.25	0.750			
0.7986	51107.55	3.5630	3.5630	1.5531	25.68	-0.25	0.750			
0.8033	51410.26	3.5600	3.5601	1.5890	25.68	-0.25	0.750			
0.8082	51724.60	3.5570	3.5570	1.6141	25.69	-0.24	0.750			
0.8131	52035.74	3.5540	3.5539	1.6211	25.69	-0.24	0.750			
0.8178	52340.36	3.5510	3.5510	1.6286	25.69	-0.24	0.750			
0.8227	52654.74	3.5480	3.5481	1.6489	25.70	-0.23	0.750			
0.8277	52972.34	3.5450	3.5449	1.6604	25.70	-0.23	0.750			
0.8327	53294.13	3.5420	3.5418	1.6887	25.71	-0.22	0.750			
0.8378	53619.47	3.5390	3.5389	1.7062	25.71	-0.22	0.750			
0.8431	53959.73	3.5360	3.5360	1.7284	25.71	-0.22	0.750			
0.8483	54291.98	3.5330	3.5330	1.7055	25.72	-0.21	0.750			
0.8538	54642.13	3.5300	3.5298	1.5992	25.73	-0.20	0.750			
0.8587	54959.97	3.5270	3.5271	1.4373	25.75	-0.18	0.750			
0.8631	55239.07	3.5240	3.5242	1.2160	25.77	-0.16	0.750			
0.8665	55452.84	3.5210	3.5211	0.9650	25.79	-0.14	0.750			
0.8687	55596.69	3.5180	3.5178	0.7502	25.81	-0.12	0.750			
0.8702	55692.88	3.5150	3.5144	0.5484	25.82	-0.11	0.750			
0.8713	55761.95	3.5120	3.5118	0.4327	25.82	-0.11	0.750			
0.8724	55832.74	3.5090	3.5090	0.3765	25.83	-0.10	0.750			
0.8734	55895.82	3.5060	3.5060	0.3458	25.84	-0.09	0.750			
0.8744	55959.34	3.5030	3.5028	0.3252	25.84	-0.09	0.750			
0.8753	56018.13	3.5000	3.4999	0.3083	25.85	-0.08	0.750			
0.8762	56075.12	3.4970	3.4971	0.2965	25.85	-0.08	0.750			
0.8770	56130.78	3.4940	3.4940	0.2893	25.86	-0.07	0.750			
0.8779	56185.32	3.4910	3.4909	0.2834	25.86	-0.07	0.750			
0.8787	56238.59	3.4880	3.4879	0.2761	25.87	-0.06	0.750			
0.8795	56290.98	3.4850	3.4849	0.2697	25.88	-0.05	0.750			
0.8804	56342.99	3.4820	3.4821	0.2643	25.88	-0.05	0.750			
0.8811	56393.20	3.4790	3.4791	0.2581	25.89	-0.04	0.750			
0.8819	56442.06	3.4760	3.4759	0.2507	25.89	-0.04	0.750			
0.8826	56488.87	3.4730	3.4730	0.2468	25.90	-0.03	0.750			
0.8834	56535.10	3.4700	3.4700	0.2412	25.90	-0.03	0.750			
0.8841	56581.65	3.4670	3.4669	0.2373	25.90	-0.03	0.750			
0.8848	56626.97	3.4640	3.4639	0.2322	25.91	-0.02	0.750			
0.8855	56671.47	3.4610	3.4611	0.2264	25.91	-0.02	0.750			
0.8862	56714.55	3.4580	3.4578	0.2199	25.92	-0.01	0.750			
0.8868	56755.89	3.4550	3.4551	0.2155	25.92	-0.01	0.750			
0.8874	56795.63	3.4520	3.4521	0.2096	25.93	-0.00	0.750			
0.8881	56835.78	3.4490	3.4488	0.2064	25.93	-0.00	0.750			
0.8887	56875.22	3.4460	3.4461	0.2025	25.93	0.00	0.750			
0.8893	56913.65	3.4430	3.4430	0.1986	25.94	0.01	0.750			
0.8899	56951.88	3.4400	3.4400	0.1938	25.94	0.01	0.750			
0.8905	56989.27	3.4370	3.4369	0.1892	25.95	0.02	0.750			
0.8910	57024.59	3.4340	3.4341	0.1824	25.95	0.02	0.750			
0.8915	57059.05	3.4310	3.4309	0.1766	25.95	0.02	0.750			
0.8921	57092.38	3.4280	3.4280	0.1713	25.96	0.03	0.750			
0.8926	57124.28	3.4250	3.4250	0.1665	25.96	0.03	0.750			
0.8931	57155.84	3.4220	3.4220	0.1612	25.96	0.03	0.750			
0.8935	57186.37	3.4190	3.4190	0.1568	25.96	0.03	0.750			
0.8940	57216.26	3.4160	3.4159	0.1519	25.97	0.04	0.750			
0.8945	57245.15	3.4130	3.4131	0.1470	25.97	0.04	0.750			
0.8949	57273.28	3.4100	3.4100	0.1407	25.97	0.04	0.750			
0.8953	57299.63	3.4070	3.4069	0.1337	25.98	0.05	0.750			
0.8957	57324.83	3.4040	3.4041	0.1272	25.98	0.05	0.750			
0.8961	57348.27	3.4010	3.4010	0.1197	25.98	0.05	0.750			
0.8964	57370.84	3.3980	3.3981	0.1130	25.98	0.05	0.750			
0.8967	57391.85	3.3950	3.3947	0.1057	25.99	0.06	0.750			
0.8971	57412.46	3.3920	3.3919	0.0958	25.99	0.06	0.750			
0.8973	57429.91	3.3890	3.3890	0.0859	25.99	0.06	0.750			
0.8976	57446.46	3.3860	3.3860	0.0780	25.99	0.06	0.750			
0.8978	57460.36	3.3830	3.3834	0.0668	25.99	0.06	0.750			
0.8980	57472.97	3.3800	3.3803	0.0558	25.99	0.06	0.750			
0.8982	57482.51	3.3770	3.3776	0.0435	25.99	0.06	0.750			
0.8983	57489.67	3.3740	3.3751	0.0312	26.00	0.07	0.750			
0.8984	57494.47	3.3710	3.3730	0.0188	26.00	0.07	0.750			
