Ah_balance (normalized)	Ah_balance (mAh)	Voltage - fit (V)	Voltage -  interpolate (V)	dQ/dV (1/V)	Temperature (°C)	Temperature - diff (°C)	Current (C)	R_DC 0ms (mOhm)	R_DC 50ms (mOhm)	R_DC 50 ms PEC (mOhm)
0.0003	20.68	4.1650	4.1650	-0.1394	25.67	0.00	-0.750			
0.0008	51.24	4.1620	4.1620	-0.1816	25.67	-0.00	-0.750			
0.0014	90.51	4.1590	4.1590	-0.2255	25.67	-0.00	-0.750			
0.0022	138.83	4.1560	4.1561	-0.2670	25.66	-0.01	-0.750			
0.0030	194.18	4.1530	4.1529	-0.3070	25.66	-0.01	-0.750			
0.0040	257.14	4.1500	4.1501	-0.3489	25.66	-0.01	-0.750			
0.0051	328.41	4.1470	4.1471	-0.3881	25.65	-0.02	-0.750			
0.0064	406.87	4.1440	4.1439	-0.4240	25.65	-0.02	-0.750			
0.0077	492.52	4.1410	4.1410	-0.4618	25.64	-0.03	-0.750			
0.0091	585.45	4.1380	4.1381	-0.4960	25.64	-0.03	-0.750			
0.0107	685.16	4.1350	4.1349	-0.5247	25.63	-0.04	-0.750			
0.0123	790.05	4.1320	4.1320	-0.5516	25.62	-0.05	-0.750			
0.0140	898.74	4.1290	4.1290	-0.5718	25.62	-0.05	-0.750			
0.0158	1011.94	4.1260	4.1260	-0.5918	25.62	-0.05	-0.750			
0.0176	1127.24	4.1230	4.1230	-0.6066	25.61	-0.06	-0.750			
0.0194	1243.92	4.1200	4.1200	-0.6233	25.61	-0.06	-0.750			
0.0214	1367.45	4.1170	4.1170	-0.6373	25.61	-0.06	-0.750			
0.0233	1491.92	4.1140	4.1139	-0.6467	25.60	-0.07	-0.750			
0.0253	1616.66	4.1110	4.1110	-0.6597	25.60	-0.07	-0.750			
0.0273	1744.58	4.1080	4.1080	-0.6688	25.60	-0.07	-0.750			
0.0293	1873.73	4.1050	4.1049	-0.6767	25.59	-0.08	-0.750			
0.0313	2003.51	4.1020	4.1020	-0.6846	25.59	-0.08	-0.750			
0.0334	2135.80	4.0990	4.0991	-0.6935	25.59	-0.08	-0.750			
0.0355	2270.50	4.0960	4.0959	-0.7023	25.58	-0.09	-0.750			
0.0376	2407.35	4.0930	4.0930	-0.7073	25.58	-0.09	-0.750			
0.0397	2542.40	4.0900	4.0900	-0.7099	25.58	-0.09	-0.750			
0.0419	2680.37	4.0870	4.0870	-0.7160	25.58	-0.09	-0.750			
0.0440	2818.83	4.0840	4.0840	-0.7195	25.58	-0.09	-0.750			
0.0462	2956.12	4.0810	4.0810	-0.7202	25.58	-0.09	-0.750			
0.0484	3094.88	4.0780	4.0780	-0.7262	25.58	-0.09	-0.750			
0.0505	3234.61	4.0750	4.0752	-0.7298	25.58	-0.09	-0.750			
0.0527	3375.47	4.0720	4.0719	-0.7345	25.58	-0.09	-0.750			
0.0549	3516.03	4.0690	4.0690	-0.7383	25.57	-0.10	-0.750			
0.0572	3658.72	4.0660	4.0660	-0.7387	25.57	-0.10	-0.750			
0.0594	3802.05	4.0630	4.0630	-0.7442	25.57	-0.10	-0.750			
0.0616	3943.69	4.0600	4.0600	-0.7415	25.56	-0.11	-0.750			
0.0638	4085.38	4.0570	4.0570	-0.7403	25.56	-0.11	-0.750			
0.0660	4226.35	4.0540	4.0541	-0.7490	25.56	-0.11	-0.750			
0.0683	4370.32	4.0510	4.0509	-0.7516	25.56	-0.11	-0.750			
0.0706	4515.76	4.0480	4.0481	-0.7563	25.56	-0.11	-0.750			
0.0729	4663.36	4.0450	4.0450	-0.7611	25.56	-0.11	-0.750			
0.0752	4810.18	4.0420	4.0421	-0.7628	25.56	-0.11	-0.750			
0.0775	4957.77	4.0390	4.0389	-0.7622	25.56	-0.11	-0.750			
0.0797	5102.82	4.0360	4.0360	-0.7582	25.56	-0.11	-0.750			
0.0820	5246.14	4.0330	4.0330	-0.7582	25.56	-0.11	-0.750			
0.0843	5392.49	4.0300	4.0300	-0.7632	25.56	-0.11	-0.750			
0.0865	5538.80	4.0270	4.0270	-0.7636	25.56	-0.11	-0.750			
0.0888	5685.56	4.0240	4.0240	-0.7675	25.56	-0.11	-0.750			
0.0911	5831.57	4.0210	4.0211	-0.7753	25.57	-0.10	-0.750			
0.0935	5982.07	4.0180	4.0180	-0.7802	25.57	-0.10	-0.750			
0.0958	6133.38	4.0150	4.0149	-0.7790	25.57	-0.10	-0.750			
0.0982	6284.01	4.0120	4.0120	-0.7794	25.58	-0.09	-0.750			
0.1005	6433.65	4.0090	4.0093	-0.7811	25.58	-0.09	-0.750			
0.1029	6583.38	4.0060	4.0059	-0.7806	25.58	-0.09	-0.750			
0.1052	6731.04	4.0030	4.0030	-0.7809	25.58	-0.09	-0.750			
0.1075	6880.93	4.0000	3.9999	-0.7816	25.58	-0.09	-0.750			
0.1099	7034.55	3.9970	3.9970	-0.7831	25.58	-0.09	-0.750			
0.1123	7184.25	3.9940	3.9940	-0.7840	25.58	-0.09	-0.750			
0.1146	7333.83	3.9910	3.9911	-0.7867	25.58	-0.09	-0.750			
0.1169	7483.01	3.9880	3.9881	-0.7945	25.59	-0.08	-0.750			
0.1193	7637.15	3.9850	3.9848	-0.7880	25.59	-0.08	-0.750			
0.1217	7789.26	3.9820	3.9820	-0.7842	25.59	-0.08	-0.750			
0.1241	7939.82	3.9790	3.9791	-0.7941	25.60	-0.07	-0.750			
0.1264	8091.99	3.9760	3.9761	-0.7977	25.60	-0.07	-0.750			
0.1288	8241.35	3.9730	3.9728	-0.8037	25.60	-0.07	-0.750			
0.1312	8399.07	3.9700	3.9699	-0.8060	25.60	-0.07	-0.750			
0.1337	8554.33	3.9670	3.9671	-0.8094	25.60	-0.07	-0.750			
0.1362	8714.69	3.9640	3.9640	-0.8157	25.60	-0.07	-0.750			
0.1386	8872.48	3.9610	3.9610	-0.8171	25.60	-0.07	-0.750			
0.1410	9025.19	3.9580	3.9580	-0.8178	25.60	-0.07	-0.750			
0.1434	9180.46	3.9550	3.9550	-0.8177	25.61	-0.06	-0.750			
0.1459	9337.89	3.9520	3.9519	-0.8146	25.61	-0.06	-0.750			
0.1484	9498.48	3.9490	3.9490	-0.8234	25.62	-0.05	-0.750			
0.1509	9656.25	3.9460	3.9462	-0.8249	25.62	-0.05	-0.750			
0.1534	9814.66	3.9430	3.9429	-0.8245	25.62	-0.05	-0.750			
0.1558	9971.08	3.9400	3.9399	-0.8238	25.62	-0.05	-0.750			
0.1583	10129.64	3.9370	3.9370	-0.8241	25.63	-0.04	-0.750			
0.1608	10289.60	3.9340	3.9340	-0.8284	25.63	-0.04	-0.750			
0.1633	10448.93	3.9310	3.9311	-0.8285	25.63	-0.04	-0.750			
0.1657	10607.46	3.9280	3.9279	-0.8289	25.63	-0.04	-0.750			
0.1682	10765.90	3.9250	3.9250	-0.8328	25.63	-0.04	-0.750			
0.1707	10926.61	3.9220	3.9220	-0.8309	25.64	-0.03	-0.750			
0.1732	11086.98	3.9190	3.9189	-0.8358	25.64	-0.03	-0.750			
0.1757	11247.21	3.9160	3.9161	-0.8392	25.64	-0.03	-0.750			
0.1783	11408.41	3.9130	3.9130	-0.8399	25.64	-0.03	-0.750			
0.1808	11568.87	3.9100	3.9099	-0.8472	25.64	-0.03	-0.750			
0.1833	11732.21	3.9070	3.9070	-0.8472	25.65	-0.02	-0.750			
0.1859	11896.89	3.9040	3.9040	-0.8516	25.65	-0.02	-0.750			
0.1885	12061.05	3.9010	3.9011	-0.8536	25.65	-0.02	-0.750			
0.1910	12224.04	3.8980	3.8980	-0.8536	25.65	-0.02	-0.750			
0.1936	12387.93	3.8950	3.8949	-0.8536	25.65	-0.02	-0.750			
0.1961	12552.19	3.8920	3.8920	-0.8518	25.66	-0.01	-0.750			
0.1987	12715.74	3.8890	3.8890	-0.8504	25.66	-0.01	-0.750			
0.2012	12879.49	3.8860	3.8860	-0.8544	25.66	-0.01	-0.750			
0.2038	13044.30	3.8830	3.8831	-0.8528	25.67	-0.00	-0.750			
0.2064	13207.45	3.8800	3.8799	-0.8540	25.67	-0.00	-0.750			
0.2089	13369.45	3.8770	3.8771	-0.8573	25.67	0.00	-0.750			
0.2115	13535.37	3.8740	3.8740	-0.8627	25.68	0.01	-0.750			
0.2141	13701.57	3.8710	3.8709	-0.8666	25.68	0.01	-0.750			
0.2167	13869.11	3.8680	3.8680	-0.8716	25.69	0.02	-0.750			
0.2193	14036.29	3.8650	3.8650	-0.8738	25.69	0.02	-0.750			
0.2220	14206.07	3.8620	3.8620	-0.8747	25.69	0.02	-0.750			
0.2246	14375.84	3.8590	3.8589	-0.8756	25.70	0.03	-0.750			
0.2272	14541.98	3.8560	3.8560	-0.8725	25.70	0.03	-0.750			
0.2299	14710.50	3.8530	3.8530	-0.8723	25.71	0.04	-0.750			
0.2325	14877.38	3.8500	3.8500	-0.8701	25.71	0.04	-0.750			
0.2351	15043.39	3.8470	3.8470	-0.8698	25.72	0.05	-0.750			
0.2377	15211.38	3.8440	3.8440	-0.8689	25.72	0.05	-0.750			
0.2403	15377.40	3.8410	3.8410	-0.8712	25.72	0.05	-0.750			
0.2429	15545.45	3.8380	3.8380	-0.8707	25.72	0.05	-0.750			
0.2455	15711.79	3.8350	3.8350	-0.8727	25.73	0.06	-0.750			
0.2481	15879.88	3.8320	3.8319	-0.8734	25.73	0.06	-0.750			
0.2507	16047.70	3.8290	3.8292	-0.8740	25.73	0.06	-0.750			
0.2534	16214.99	3.8260	3.8260	-0.8781	25.73	0.06	-0.750			
0.2560	16385.49	3.8230	3.8230	-0.8755	25.74	0.07	-0.750			
0.2586	16552.50	3.8200	3.8199	-0.8738	25.74	0.07	-0.750			
0.2613	16720.21	3.8170	3.8170	-0.8737	25.75	0.08	-0.750			
0.2639	16886.75	3.8140	3.8139	-0.8727	25.75	0.08	-0.750			
0.2665	17054.58	3.8110	3.8110	-0.8761	25.76	0.09	-0.750			
0.2691	17222.96	3.8080	3.8080	-0.8754	25.76	0.09	-0.750			
0.2717	17390.08	3.8050	3.8050	-0.8780	25.76	0.09	-0.750			
0.2744	17560.95	3.8020	3.8020	-0.8813	25.77	0.10	-0.750			
0.2770	17728.36	3.7990	3.7990	-0.8808	25.77	0.10	-0.750			
0.2797	17898.56	3.7960	3.7960	-0.8821	25.78	0.11	-0.750			
0.2823	18067.81	3.7930	3.7929	-0.8803	25.78	0.11	-0.750			
0.2850	18237.09	3.7900	3.7900	-0.8796	25.79	0.12	-0.750			
0.2876	18406.73	3.7870	3.7869	-0.8757	25.79	0.12	-0.750			
0.2902	18573.72	3.7840	3.7840	-0.8751	25.79	0.12	-0.750			
0.2929	18742.75	3.7810	3.7810	-0.8705	25.80	0.13	-0.750			
0.2954	18907.52	3.7780	3.7780	-0.8677	25.80	0.13	-0.750			
0.2980	19074.53	3.7750	3.7750	-0.8657	25.81	0.14	-0.750			
0.3006	19240.13	3.7720	3.7723	-0.8670	25.81	0.14	-0.750			
0.3032	19406.42	3.7690	3.7690	-0.8670	25.81	0.14	-0.750			
0.3058	19573.88	3.7660	3.7660	-0.8667	25.81	0.14	-0.750			
0.3084	19739.54	3.7630	3.7630	-0.8641	25.82	0.15	-0.750			
0.3110	19905.89	3.7600	3.7601	-0.8672	25.82	0.15	-0.750			
0.3136	20071.74	3.7570	3.7570	-0.8628	25.82	0.15	-0.750			
0.3162	20237.43	3.7540	3.7539	-0.8646	25.83	0.16	-0.750			
0.3188	20402.84	3.7510	3.7510	-0.8614	25.83	0.16	-0.750			
0.3214	20568.10	3.7480	3.7480	-0.8630	25.84	0.17	-0.750			
0.3240	20733.64	3.7450	3.7450	-0.8648	25.85	0.18	-0.750			
0.3266	20899.27	3.7420	3.7420	-0.8678	25.85	0.18	-0.750			
0.3291	21064.78	3.7390	3.7390	-0.8752	25.85	0.18	-0.750			
0.3318	21234.15	3.7360	3.7360	-0.8841	25.85	0.18	-0.750			
0.3345	21405.11	3.7330	3.7329	-0.8854	25.85	0.18	-0.750			
0.3371	21577.10	3.7300	3.7300	-0.8888	25.85	0.18	-0.750			
0.3398	21745.74	3.7270	3.7270	-0.8998	25.85	0.18	-0.750			
0.3425	21919.12	3.7240	3.7239	-0.9082	25.86	0.19	-0.750			
0.3452	22092.80	3.7210	3.7209	-0.9144	25.86	0.19	-0.750			
0.3480	22268.83	3.7180	3.7179	-0.9257	25.87	0.20	-0.750			
0.3508	22449.46	3.7150	3.7152	-0.9423	25.87	0.20	-0.750			
0.3536	22632.69	3.7120	3.7120	-0.9601	25.87	0.20	-0.750			
0.3565	22817.93	3.7090	3.7089	-0.9733	25.87	0.20	-0.750			
0.3594	23004.02	3.7060	3.7060	-0.9888	25.87	0.20	-0.750			
0.3624	23195.70	3.7030	3.7031	-1.0104	25.87	0.20	-0.750			
0.3655	23392.52	3.7000	3.6999	-1.0324	25.87	0.20	-0.750			
0.3687	23593.71	3.6970	3.6970	-1.0514	25.87	0.20	-0.750			
0.3718	23796.87	3.6940	3.6940	-1.0696	25.87	0.20	-0.750			
0.3751	24003.89	3.6910	3.6912	-1.0843	25.87	0.20	-0.750			
0.3784	24215.13	3.6880	3.6879	-1.1039	25.87	0.20	-0.750			
0.3817	24426.85	3.6850	3.6850	-1.1243	25.86	0.19	-0.750			
0.3851	24643.35	3.6820	3.6820	-1.1434	25.86	0.19	-0.750			
0.3885	24863.11	3.6790	3.6791	-1.1781	25.86	0.19	-0.750			
0.3921	25093.95	3.6760	3.6760	-1.2073	25.86	0.19	-0.750			
0.3958	25329.04	3.6730	3.6730	-1.2330	25.86	0.19	-0.750			
0.3995	25570.41	3.6700	3.6700	-1.2665	25.86	0.19	-0.750			
0.4034	25818.29	3.6670	3.6670	-1.2911	25.86	0.19	-0.750			
0.4073	26067.19	3.6640	3.6639	-1.3163	25.85	0.18	-0.750			
0.4113	26321.05	3.6610	3.6611	-1.3464	25.84	0.17	-0.750			
0.4153	26581.09	3.6580	3.6579	-1.3701	25.84	0.17	-0.750			
0.4195	26848.75	3.6550	3.6549	-1.4058	25.83	0.16	-0.750			
0.4238	27121.64	3.6520	3.6520	-1.4384	25.82	0.15	-0.750			
0.4281	27398.64	3.6490	3.6490	-1.4725	25.82	0.15	-0.750			
0.4326	27685.34	3.6460	3.6459	-1.5246	25.81	0.14	-0.750			
0.4372	27982.60	3.6430	3.6430	-1.5596	25.81	0.14	-0.750			
0.4420	28286.85	3.6400	3.6400	-1.5907	25.80	0.13	-0.750			
0.4469	28600.18	3.6370	3.6369	-1.6285	25.80	0.13	-0.750			
0.4518	28912.73	3.6340	3.6339	-1.6553	25.79	0.12	-0.750			
0.4567	29229.95	3.6310	3.6311	-1.6869	25.78	0.11	-0.750			
0.4618	29558.32	3.6280	3.6278	-1.7024	25.78	0.11	-0.750			
0.4669	29884.47	3.6250	3.6249	-1.7491	25.77	0.10	-0.750	0.403	0.501	
0.4723	30230.29	3.6220	3.6220	-1.7899	25.76	0.09	-0.750			
0.4777	30574.45	3.6190	3.6188	-1.8333	25.76	0.09	-0.750			
0.4832	30926.92	3.6160	3.6160	-1.8593	25.75	0.08	-0.750			
0.4889	31290.78	3.6130	3.6131	-1.8905	25.75	0.08	-0.750			
0.4947	31658.27	3.6100	3.6100	-1.9331	25.73	0.06	-0.750			
0.5006	32037.79	3.6070	3.6068	-1.9726	25.72	0.05	-0.750			
0.5065	32413.81	3.6040	3.6043	-1.9962	25.72	0.05	-0.750			
0.5125	32801.50	3.6010	3.6009	-2.0516	25.72	0.05	-0.750			
0.5187	33195.71	3.5980	3.5979	-2.0823	25.71	0.04	-0.750			
0.5250	33600.53	3.5950	3.5951	-2.1134	25.70	0.03	-0.750			
0.5316	34020.76	3.5920	3.5920	-2.1565	25.70	0.03	-0.750			
0.5380	34430.94	3.5890	3.5889	-2.1756	25.69	0.02	-0.750			
0.5445	34850.84	3.5860	3.5860	-2.2020	25.68	0.01	-0.750			
0.5512	35278.69	3.5830	3.5829	-2.2260	25.68	0.01	-0.750			
0.5579	35703.83	3.5800	3.5799	-2.2539	25.68	0.01	-0.750			
0.5647	36141.39	3.5770	3.5770	-2.2735	25.68	0.01	-0.750			
0.5716	36582.15	3.5740	3.5741	-2.3105	25.67	0.00	-0.750			
0.5786	37028.55	3.5710	3.5710	-2.3190	25.67	-0.00	-0.750			
0.5855	37474.69	3.5680	3.5679	-2.3372	25.66	-0.01	-0.750			
0.5926	37926.04	3.5650	3.5650	-2.3546	25.66	-0.01	-0.750			
0.5998	38385.96	3.5620	3.5620	-2.3618	25.66	-0.01	-0.750			
0.6068	38836.37	3.5590	3.5589	-2.3548	25.66	-0.01	-0.750			
0.6139	39289.86	3.5560	3.5560	-2.3679	25.66	-0.01	-0.750			
0.6210	39740.85	3.5530	3.5530	-2.3531	25.66	-0.01	-0.750			
0.6281	40200.87	3.5500	3.5500	-2.3489	25.66	-0.01	-0.750			
0.6351	40647.01	3.5470	3.5470	-2.3349	25.68	0.01	-0.750			
0.6421	41097.50	3.5440	3.5438	-2.3206	25.68	0.01	-0.750			
0.6492	41547.42	3.5410	3.5410	-2.2947	25.68	0.01	-0.750			
0.6560	41987.00	3.5380	3.5381	-2.2524	25.68	0.01	-0.750			
0.6627	42414.01	3.5350	3.5351	-2.2121	25.68	0.01	-0.750			
0.6693	42833.08	3.5320	3.5320	-2.1715	25.69	0.02	-0.750			
0.6758	43253.59	3.5290	3.5291	-2.1258	25.70	0.03	-0.750			
0.6822	43659.28	3.5260	3.5259	-2.0701	25.71	0.04	-0.750			
0.6884	44054.78	3.5230	3.5230	-2.0099	25.72	0.05	-0.750			
0.6943	44433.13	3.5200	3.5202	-1.9524	25.73	0.06	-0.750			
0.7000	44801.94	3.5170	3.5172	-1.9059	25.73	0.06	-0.750			
0.7056	45157.45	3.5140	3.5140	-1.8216	25.75	0.08	-0.750			
0.7110	45500.83	3.5110	3.5110	-1.7586	25.76	0.09	-0.750			
0.7162	45839.38	3.5080	3.5080	-1.7107	25.78	0.11	-0.750			
0.7212	46159.82	3.5050	3.5047	-1.6559	25.79	0.12	-0.750			
0.7261	46470.02	3.5020	3.5020	-1.5879	25.80	0.13	-0.750			
0.7307	46766.69	3.4990	3.4991	-1.5205	25.82	0.15	-0.750			
0.7352	47052.34	3.4960	3.4960	-1.4763	25.83	0.16	-0.750			
0.7396	47334.31	3.4930	3.4930	-1.4249	25.85	0.18	-0.750			
0.7438	47603.71	3.4900	3.4899	-1.3760	25.86	0.19	-0.750			
0.7478	47860.71	3.4870	3.4869	-1.3224	25.87	0.20	-0.750			
0.7517	48108.16	3.4840	3.4841	-1.2783	25.89	0.22	-0.750			
0.7555	48353.58	3.4810	3.4810	-1.2429	25.90	0.23	-0.750			
0.7592	48585.69	3.4780	3.4779	-1.1985	25.92	0.25	-0.750			
0.7626	48809.04	3.4750	3.4750	-1.1507	25.93	0.26	-0.750			
0.7661	49029.86	3.4720	3.4720	-1.1245	25.94	0.27	-0.750			
0.7694	49242.57	3.4690	3.4690	-1.0856	25.95	0.28	-0.750			
0.7726	49447.14	3.4660	3.4659	-1.0477	25.96	0.29	-0.750			
0.7757	49642.46	3.4630	3.4632	-1.0151	25.97	0.30	-0.750			
0.7787	49833.66	3.4600	3.4600	-0.9881	25.98	0.31	-0.750			
0.7816	50019.90	3.4570	3.4569	-0.9615	25.99	0.32	-0.750			
0.7844	50199.79	3.4540	3.4540	-0.9437	26.01	0.34	-0.750			
0.7871	50377.40	3.4510	3.4511	-0.9367	26.02	0.35	-0.750			
0.7899	50553.12	3.4480	3.4479	-0.9480	26.03	0.36	-0.750			
0.7927	50731.45	3.4450	3.4449	-0.9596	26.04	0.37	-0.750			
0.7955	50915.20	3.4420	3.4420	-0.9889	26.05	0.38	-0.750			
0.7986	51107.45	3.4390	3.4390	-1.0219	26.06	0.39	-0.750			
0.8017	51308.52	3.4360	3.4360	-1.0715	26.07	0.40	-0.750			
0.8050	51519.34	3.4330	3.4329	-1.1088	26.08	0.41	-0.750			
0.8084	51737.07	3.4300	3.4299	-1.1374	26.08	0.41	-0.750			
0.8119	51960.96	3.4270	3.4270	-1.1567	26.09	0.42	-0.750			
0.8155	52188.91	3.4240	3.4240	-1.1761	26.09	0.42	-0.750			
0.8191	52421.66	3.4210	3.4209	-1.1658	26.10	0.43	-0.750			
0.8226	52646.29	3.4180	3.4180	-1.1444	26.11	0.44	-0.750			
0.8260	52862.65	3.4150	3.4152	-1.1106	26.11	0.44	-0.750			
0.8293	53076.52	3.4120	3.4119	-1.0828	26.12	0.45	-0.750			
0.8325	53280.33	3.4090	3.4090	-1.0442	26.13	0.46	-0.750			
0.8356	53476.60	3.4060	3.4060	-1.0047	26.14	0.47	-0.750			
0.8385	53666.72	3.4030	3.4030	-0.9672	26.15	0.48	-0.750			
0.8414	53849.70	3.4000	3.4000	-0.9305	26.16	0.49	-0.750			
0.8441	54021.92	3.3970	3.3970	-0.8960	26.16	0.49	-0.750			
0.8467	54190.76	3.3940	3.3940	-0.8603	26.17	0.50	-0.750			
0.8493	54352.04	3.3910	3.3908	-0.8259	26.18	0.51	-0.750			
0.8517	54507.35	3.3880	3.3880	-0.7947	26.18	0.51	-0.750			
0.8540	54657.08	3.3850	3.3851	-0.7655	26.19	0.52	-0.750			
0.8563	54800.71	3.3820	3.3819	-0.7368	26.19	0.52	-0.750			
0.8584	54938.45	3.3790	3.3790	-0.7076	26.20	0.53	-0.750			
0.8605	55071.55	3.3760	3.3760	-0.6786	26.20	0.53	-0.750			
0.8625	55201.03	3.3730	3.3730	-0.6506	26.21	0.54	-0.750			
0.8644	55322.03	3.3700	3.3700	-0.6243	26.22	0.55	-0.750			
0.8662	55438.55	3.3670	3.3670	-0.5963	26.22	0.55	-0.750			
0.8680	55550.41	3.3640	3.3640	-0.5700	26.23	0.56	-0.750			
0.8696	55655.77	3.3610	3.3610	-0.5472	26.23	0.56	-0.750			
0.8712	55759.10	3.3580	3.3581	-0.5235	26.24	0.57	-0.750			
0.8728	55857.93	3.3550	3.3550	-0.5036	26.24	0.57	-0.750			
0.8743	55952.67	3.3520	3.3519	-0.4840	26.25	0.58	-0.750			
0.8757	56042.35	3.3490	3.3491	-0.4607	26.25	0.58	-0.750			
0.8770	56129.12	3.3460	3.3460	-0.4423	26.26	0.59	-0.750			
0.8783	56212.09	3.3430	3.3430	-0.4244	26.26	0.59	-0.750			
0.8795	56291.10	3.3400	3.3400	-0.4050	26.27	0.60	-0.750			
0.8808	56368.35	3.3370	3.3369	-0.3898	26.27	0.60	-0.750			
0.8819	56440.35	3.3340	3.3341	-0.3739	26.28	0.61	-0.750			
0.8830	56510.19	3.3310	3.3310	-0.3585	26.28	0.61	-0.750			
0.8840	56577.91	3.3280	3.3280	-0.3449	26.28	0.61	-0.750			
0.8850	56642.17	3.3250	3.3250	-0.3317	26.29	0.62	-0.750			
0.8860	56704.37	3.3220	3.3219	-0.3194	26.29	0.62	-0.750			
0.8870	56764.90	3.3190	3.3190	-0.3082	26.30	0.63	-0.750			
0.8879	56822.88	3.3160	3.3159	-0.2975	26.30	0.63	-0.750			
0.8887	56878.60	3.3130	3.3130	-0.2864	26.30	0.63	-0.750			
0.8896	56933.27	3.3100	3.3100	-0.2773	26.31	0.64	-0.750			
0.8904	56985.22	3.3070	3.3070	-0.2662	26.31	0.64	-0.750			
0.8912	57035.65	3.3040	3.3041	-0.2564	26.32	0.65	-0.750			
0.8919	57083.48	3.3010	3.3010	-0.2478	26.32	0.65	-0.750			
0.8927	57129.77	3.2980	3.2980	-0.2391	26.33	0.66	-0.750			
0.8933	57174.27	3.2950	3.2948	-0.2303	26.33	0.66	-0.750			
0.8940	57217.27	3.2920	3.2920	-0.2248	26.33	0.66	-0.750			
0.8947	57260.11	3.2890	3.2891	-0.2194	26.34	0.67	-0.750			
0.8953	57302.08	3.2860	3.2858	-0.2136	26.34	0.67	-0.750			
0.8960	57342.50	3.2830	3.2830	-0.2074	26.35	0.68	-0.750			
0.8966	57381.74	3.2800	3.2801	-0.2025	26.35	0.68	-0.750			
0.8972	57419.93	3.2770	3.2770	-0.1964	26.35	0.68	-0.750			
0.8978	57456.88	3.2740	3.2739	-0.1921	26.36	0.69	-0.750			
0.8983	57493.30	3.2710	3.2710	-0.1873	26.36	0.69	-0.750			
0.8989	57528.27	3.2680	3.2681	-0.1823	26.36	0.69	-0.750			
0.8994	57562.96	3.2650	3.2649	-0.1786	26.36	0.69	-0.750			
0.9000	57596.93	3.2620	3.2620	-0.1752	26.37	0.70	-0.750			
0.9005	57630.18	3.2590	3.2590	-0.1712	26.37	0.70	-0.750			
0.9010	57662.38	3.2560	3.2561	-0.1676	26.38	0.71	-0.750			
0.9015	57694.35	3.2530	3.2530	-0.1650	26.38	0.71	-0.750			
0.9020	57725.54	3.2500	3.2500	-0.1610	26.39	0.72	-0.750			
0.9024	57756.17	3.2470	3.2470	-0.1581	26.39	0.72	-0.750			
0.9029	57786.40	3.2440	3.2440	-0.1559	26.39	0.72	-0.750			
0.9034	57815.80	3.2410	3.2410	-0.1538	26.40	0.73	-0.750			
0.9038	57845.00	3.2380	3.2379	-0.1515	26.40	0.73	-0.750			
0.9043	57873.91	3.2350	3.2350	-0.1497	26.41	0.74	-0.750			
0.9047	57902.47	3.2320	3.2318	-0.1472	26.41	0.74	-0.750			
0.9052	57930.60	3.2290	3.2290	-0.1450	26.42	0.75	-0.750			
0.9056	57958.54	3.2260	3.2261	-0.1433	26.42	0.75	-0.750			
0.9060	57985.77	3.2230	3.2229	-0.1403	26.42	0.75	-0.750			
0.9064	58012.27	3.2200	3.2200	-0.1380	26.43	0.76	-0.750			
0.9068	58038.23	3.2170	3.2170	-0.1360	26.43	0.76	-0.750			
0.9073	58064.04	3.2140	3.2139	-0.1343	26.44	0.77	-0.750			
0.9077	58089.72	3.2110	3.2110	-0.1331	26.44	0.77	-0.750			
0.9080	58115.18	3.2080	3.2080	-0.1317	26.44	0.77	-0.750			
0.9084	58140.32	3.2050	3.2050	-0.1304	26.45	0.78	-0.750			
0.9088	58165.34	3.2020	3.2020	-0.1294	26.45	0.78	-0.750			
0.9092	58190.06	3.1990	3.1991	-0.1279	26.46	0.79	-0.750			
0.9096	58214.47	3.1960	3.1959	-0.1264	26.46	0.79	-0.750			
0.9100	58238.57	3.1930	3.1930	-0.1249	26.46	0.79	-0.750			
0.9104	58262.41	3.1900	3.1900	-0.1235	26.47	0.80	-0.750			
0.9107	58285.98	3.1870	3.1870	-0.1221	26.47	0.80	-0.750			
0.9111	58309.33	3.1840	3.1840	-0.1207	26.47	0.80	-0.750			
0.9114	58332.30	3.1810	3.1810	-0.1195	26.48	0.81	-0.750			
0.9118	58354.98	3.1780	3.1780	-0.1182	26.48	0.81	-0.750			
0.9121	58377.53	3.1750	3.1750	-0.1173	26.48	0.81	-0.750			
0.9125	58399.92	3.1720	3.1720	-0.1163	26.49	0.82	-0.750			
0.9128	58422.23	3.1690	3.1691	-0.1151	26.49	0.82	-0.750			
0.9132	58444.25	3.1660	3.1660	-0.1141	26.49	0.82	-0.750			
0.9135	58466.04	3.1630	3.1629	-0.1130	26.50	0.83	-0.750			
0.9139	58487.73	3.1600	3.1601	-0.1120	26.50	0.83	-0.750			
0.9142	58508.98	3.1570	3.1570	-0.1111	26.51	0.84	-0.750			
0.9145	58530.23	3.1540	3.1540	-0.1103	26.51	0.84	-0.750			
0.9149	58551.35	3.1510	3.1509	-0.1091	26.51	0.84	-0.750			
0.9152	58572.21	3.1480	3.1480	-0.1082	26.52	0.85	-0.750			
0.9155	58592.90	3.1450	3.1451	-0.1078	26.52	0.85	-0.750			
0.9158	58613.51	3.1420	3.1420	-0.1070	26.53	0.86	-0.750			
0.9162	58634.04	3.1390	3.1390	-0.1058	26.53	0.86	-0.750			
0.9165	58654.30	3.1360	3.1359	-0.1048	26.53	0.86	-0.750			
0.9168	58674.22	3.1330	3.1329	-0.1044	26.54	0.87	-0.750			
0.9171	58694.04	3.1300	3.1302	-0.1036	26.54	0.87	-0.750			
0.9174	58713.95	3.1270	3.1269	-0.1027	26.55	0.88	-0.750			
0.9177	58733.73	3.1240	3.1239	-0.1021	26.55	0.88	-0.750			
0.9180	58753.22	3.1210	3.1210	-0.1013	26.55	0.88	-0.750			
0.9183	58772.47	3.1180	3.1181	-0.1004	26.56	0.89	-0.750			
0.9186	58791.67	3.1150	3.1149	-0.0999	26.56	0.89	-0.750			
0.9189	58810.93	3.1120	3.1120	-0.0995	26.56	0.89	-0.750			
0.9192	58829.95	3.1090	3.1089	-0.0987	26.57	0.90	-0.750			
0.9195	58848.64	3.1060	3.1061	-0.0978	26.57	0.90	-0.750			
0.9198	58867.35	3.1030	3.1031	-0.0976	26.58	0.91	-0.750			
0.9201	58886.11	3.1000	3.1001	-0.0973	26.58	0.91	-0.750			
0.9204	58904.78	3.0970	3.0969	-0.0966	26.58	0.91	-0.750			
0.9207	58923.28	3.0940	3.0940	-0.0960	26.59	0.92	-0.750			
0.9210	58941.66	3.0910	3.0911	-0.0954	26.59	0.92	-0.750			
0.9212	58959.90	3.0880	3.0880	-0.0948	26.59	0.92	-0.750			
0.9215	58978.04	3.0850	3.0850	-0.0942	26.60	0.93	-0.750			
0.9218	58996.17	3.0820	3.0820	-0.0937	26.60	0.93	-0.750			
0.9221	59013.96	3.0790	3.0791	-0.0929	26.61	0.94	-0.750			
0.9224	59031.75	3.0760	3.0760	-0.0925	26.61	0.94	-0.750			
0.9226	59049.59	3.0730	3.0729	-0.0919	26.61	0.94	-0.750			
0.9229	59067.17	3.0700	3.0701	-0.0912	26.62	0.95	-0.750			
0.9232	59084.61	3.0670	3.0669	-0.0906	26.62	0.95	-0.750			
0.9235	59101.94	3.0640	3.0641	-0.0899	26.62	0.95	-0.750			
0.9237	59119.04	3.0610	3.0610	-0.0899	26.63	0.96	-0.750			
0.9240	59136.11	3.0580	3.0580	-0.0895	26.63	0.96	-0.750			
0.9243	59153.34	3.0550	3.0549	-0.0891	26.64	0.97	-0.750			
0.9245	59170.34	3.0520	3.0520	-0.0888	26.64	0.97	-0.750			
0.9248	59187.42	3.0490	3.0491	-0.0883	26.64	0.97	-0.750			
0.9251	59204.48	3.0460	3.0460	-0.0880	26.65	0.98	-0.750			
0.9253	59221.37	3.0430	3.0432	-0.0873	26.65	0.98	-0.750			
0.9256	59238.20	3.0400	3.0399	-0.0867	26.65	0.98	-0.750			
0.9259	59254.64	3.0370	3.0371	-0.0865	26.66	0.99	-0.750			
0.9261	59270.98	3.0340	3.0340	-0.0858	26.66	0.99	-0.750			
0.9264	59287.43	3.0310	3.0309	-0.0855	26.66	0.99	-0.750			
0.9266	59303.84	3.0280	3.0280	-0.0854	26.67	1.00	-0.750			
0.9269	59320.12	3.0250	3.0252	-0.0851	26.67	1.00	-0.750			
0.9271	59336.83	3.0220	3.0219	-0.0840	26.67	1.00	-0.750			
0.9274	59352.87	3.0190	3.0189	-0.0831	26.68	1.01	-0.750			
0.9276	59369.19	3.0160	3.0160	-0.0823	26.68	1.01	-0.750			
0.9279	59384.71	3.0130	3.0131	-0.0818	26.68	1.01	-0.750			
0.9281	59400.22	3.0100	3.0101	-0.0808	26.69	1.02	-0.750			
0.9284	59415.65	3.0070	3.0068	-0.0799	26.69	1.02	-0.751			
0.9286	59430.92	3.0040	3.0039	-0.0791	26.69	1.02	-0.751			
0.9288	59446.28	3.0010	3.0010	-0.0835	26.70	1.03	-0.751			
