Ah_balance (normalized)	Ah_balance (mAh)	Voltage - fit (V)	Voltage -  interpolate (V)	dQ/dV (1/V)	Temperature (°C)	Temperature - diff (°C)	Current (C)	R_DC 0ms (mOhm)	R_DC 50ms (mOhm)	R_DC 50 ms PEC (mOhm)
0.0499	3191.38	4.1980	4.1980	0.7504	26.17	0.22	0.750			
0.0522	3338.62	4.1950	4.1949	0.7659	26.17	0.22	0.750			
0.0545	3486.04	4.1920	4.1921	0.7671	26.17	0.22	0.750			
0.0568	3633.08	4.1890	4.1890	0.7691	26.17	0.22	0.750			
0.0591	3780.91	4.1860	4.1861	0.7745	26.17	0.22	0.750			
0.0614	3930.16	4.1830	4.1829	0.7776	26.17	0.22	0.750			
0.0637	4078.96	4.1800	4.1800	0.7775	26.17	0.22	0.750			
0.0661	4229.48	4.1770	4.1770	0.7804	26.17	0.22	0.750			
0.0684	4379.91	4.1740	4.1741	0.7818	26.17	0.22	0.750			
0.0708	4530.42	4.1710	4.1710	0.7832	26.17	0.22	0.750			
0.0731	4680.84	4.1680	4.1679	0.7793	26.17	0.22	0.750			
0.0754	4828.20	4.1650	4.1651	0.7829	26.17	0.22	0.750			
0.0778	4980.02	4.1620	4.1620	0.7818	26.17	0.22	0.750			
0.0802	5130.84	4.1590	4.1590	0.7878	26.16	0.21	0.750			
0.0825	5282.24	4.1560	4.1560	0.7915	26.16	0.21	0.750			
0.0849	5434.09	4.1530	4.1530	0.7959	26.16	0.21	0.750			
0.0873	5588.49	4.1500	4.1500	0.7971	26.16	0.21	0.750			
0.0897	5743.89	4.1470	4.1471	0.7952	26.16	0.21	0.750			
0.0921	5894.94	4.1440	4.1439	0.7920	26.15	0.20	0.750			
0.0945	6048.57	4.1410	4.1411	0.7935	26.15	0.20	0.750			
0.0968	6197.45	4.1380	4.1379	0.7900	26.15	0.20	0.750			
0.0992	6347.93	4.1350	4.1350	0.7951	26.15	0.20	0.750			
0.1016	6502.16	4.1320	4.1320	0.7950	26.15	0.20	0.750			
0.1040	6655.87	4.1290	4.1291	0.7996	26.15	0.20	0.750			
0.1064	6810.94	4.1260	4.1260	0.8080	26.14	0.19	0.750			
0.1088	6965.47	4.1230	4.1231	0.8069	26.14	0.19	0.750			
0.1113	7121.14	4.1200	4.1199	0.8062	26.14	0.19	0.750			
0.1137	7276.58	4.1170	4.1170	0.8050	26.14	0.19	0.750			
0.1161	7429.80	4.1140	4.1141	0.8096	26.14	0.19	0.750			
0.1185	7586.10	4.1110	4.1110	0.8166	26.13	0.18	0.750			
0.1210	7743.06	4.1080	4.1080	0.8193	26.13	0.18	0.750			
0.1234	7899.75	4.1050	4.1048	0.8205	26.13	0.18	0.750			
0.1259	8060.79	4.1020	4.1020	0.8219	26.13	0.18	0.750			
0.1284	8220.28	4.0990	4.0990	0.8251	26.13	0.18	0.750			
0.1309	8376.94	4.0960	4.0960	0.8219	26.13	0.18	0.750			
0.1333	8532.90	4.0930	4.0931	0.8191	26.13	0.18	0.750			
0.1358	8688.67	4.0900	4.0899	0.8233	26.13	0.18	0.750			
0.1383	8848.79	4.0870	4.0870	0.8258	26.13	0.18	0.750			
0.1407	9007.76	4.0840	4.0840	0.8333	26.13	0.18	0.750			
0.1433	9169.67	4.0810	4.0810	0.8375	26.13	0.18	0.750			
0.1458	9330.82	4.0780	4.0781	0.8378	26.13	0.18	0.750			
0.1483	9492.19	4.0750	4.0749	0.8367	26.13	0.18	0.750			
0.1508	9653.59	4.0720	4.0721	0.8372	26.13	0.18	0.750			
0.1533	9812.85	4.0690	4.0690	0.8375	26.13	0.18	0.750			
0.1559	9974.40	4.0660	4.0661	0.8431	26.13	0.18	0.750			
0.1584	10134.99	4.0630	4.0631	0.8471	26.13	0.18	0.750			
0.1609	10298.18	4.0600	4.0600	0.8563	26.13	0.18	0.750			
0.1635	10464.03	4.0570	4.0570	0.8576	26.13	0.18	0.750			
0.1661	10629.93	4.0540	4.0539	0.8624	26.13	0.18	0.750			
0.1687	10795.13	4.0510	4.0511	0.8639	26.13	0.18	0.750			
0.1713	10961.20	4.0480	4.0480	0.8658	26.13	0.18	0.750			
0.1739	11127.60	4.0450	4.0451	0.8709	26.13	0.18	0.750			
0.1765	11295.76	4.0420	4.0419	0.8718	26.13	0.18	0.750			
0.1791	11463.40	4.0390	4.0390	0.8754	26.13	0.18	0.750			
0.1818	11632.23	4.0360	4.0360	0.8831	26.13	0.18	0.750			
0.1844	11802.34	4.0330	4.0330	0.8824	26.13	0.18	0.750			
0.1871	11972.07	4.0300	4.0299	0.8837	26.13	0.18	0.750			
0.1897	12143.85	4.0270	4.0269	0.8722	26.14	0.19	0.750			
0.1923	12309.54	4.0240	4.0241	0.8751	26.14	0.19	0.750			
0.1949	12476.23	4.0210	4.0211	0.8825	26.14	0.19	0.750			
0.1976	12644.26	4.0180	4.0178	0.8846	26.15	0.20	0.750			
0.2002	12814.48	4.0150	4.0151	0.8845	26.15	0.20	0.750			
0.2029	12986.31	4.0120	4.0121	0.8950	26.15	0.20	0.750			
0.2056	13158.57	4.0090	4.0091	0.9012	26.15	0.20	0.750			
0.2084	13335.94	4.0060	4.0060	0.9087	26.15	0.20	0.750			
0.2111	13507.27	4.0030	4.0029	0.9045	26.15	0.20	0.750			
0.2138	13681.50	4.0000	4.0000	0.9013	26.15	0.20	0.750			
0.2165	13854.81	3.9970	3.9971	0.9088	26.15	0.20	0.750			
0.2192	14029.50	3.9940	3.9939	0.9132	26.15	0.20	0.750			
0.2219	14203.88	3.9910	3.9910	0.9152	26.15	0.20	0.750			
0.2247	14381.03	3.9880	3.9881	0.9168	26.15	0.20	0.750			
0.2275	14558.53	3.9850	3.9850	0.9211	26.16	0.21	0.750			
0.2303	14736.04	3.9820	3.9820	0.9215	26.16	0.21	0.750			
0.2330	14912.63	3.9790	3.9790	0.9261	26.17	0.22	0.750			
0.2358	15088.89	3.9760	3.9760	0.9249	26.17	0.22	0.750			
0.2386	15267.81	3.9730	3.9729	0.9226	26.17	0.22	0.750			
0.2413	15444.00	3.9700	3.9700	0.9264	26.17	0.22	0.750			
0.2441	15622.95	3.9670	3.9671	0.9317	26.17	0.22	0.750			
0.2469	15802.03	3.9640	3.9639	0.9340	26.17	0.22	0.750			
0.2497	15981.65	3.9610	3.9610	0.9379	26.17	0.22	0.750			
0.2525	16160.59	3.9580	3.9581	0.9397	26.17	0.22	0.750			
0.2554	16343.35	3.9550	3.9549	0.9452	26.17	0.22	0.750			
0.2582	16527.47	3.9520	3.9520	0.9500	26.17	0.22	0.750			
0.2611	16707.98	3.9490	3.9490	0.9435	26.17	0.22	0.750			
0.2639	16890.79	3.9460	3.9461	0.9379	26.17	0.22	0.750			
0.2667	17069.29	3.9430	3.9430	0.9464	26.17	0.22	0.750			
0.2695	17250.41	3.9400	3.9400	0.9495	26.17	0.22	0.750			
0.2724	17432.64	3.9370	3.9368	0.9550	26.17	0.22	0.750			
0.2753	17618.10	3.9340	3.9341	0.9596	26.17	0.22	0.750			
0.2782	17802.61	3.9310	3.9311	0.9647	26.18	0.23	0.750			
0.2811	17989.42	3.9280	3.9280	0.9701	26.18	0.23	0.750			
0.2840	18176.32	3.9250	3.9251	0.9647	26.19	0.24	0.750			
0.2869	18363.61	3.9220	3.9220	0.9647	26.19	0.24	0.750			
0.2898	18547.79	3.9190	3.9191	0.9676	26.19	0.24	0.750			
0.2927	18732.42	3.9160	3.9160	0.9705	26.19	0.24	0.750			
0.2956	18918.86	3.9130	3.9130	0.9753	26.19	0.24	0.750			
0.2985	19105.27	3.9100	3.9099	0.9763	26.19	0.24	0.750			
0.3015	19293.24	3.9070	3.9071	0.9796	26.19	0.24	0.750			
0.3044	19483.33	3.9040	3.9040	0.9886	26.19	0.24	0.750			
0.3074	19673.68	3.9010	3.9010	0.9912	26.19	0.24	0.750			
0.3104	19863.89	3.8980	3.8979	0.9919	26.19	0.24	0.750			
0.3134	20054.79	3.8950	3.8950	0.9938	26.19	0.24	0.750			
0.3163	20246.31	3.8920	3.8921	1.0031	26.20	0.25	0.750			
0.3194	20439.66	3.8890	3.8889	1.0085	26.20	0.25	0.750			
0.3224	20633.02	3.8860	3.8859	1.0113	26.21	0.26	0.750			
0.3254	20828.65	3.8830	3.8832	1.0123	26.21	0.26	0.750			
0.3285	21022.82	3.8800	3.8800	1.0190	26.21	0.26	0.750			
0.3316	21219.95	3.8770	3.8770	1.0237	26.21	0.26	0.750			
0.3346	21414.93	3.8740	3.8739	1.0251	26.21	0.26	0.750			
0.3377	21613.70	3.8710	3.8710	1.0233	26.21	0.26	0.750			
0.3408	21811.17	3.8680	3.8681	1.0353	26.21	0.26	0.750			
0.3439	22009.59	3.8650	3.8651	1.0446	26.21	0.26	0.750			
0.3471	22212.15	3.8620	3.8619	1.0536	26.21	0.26	0.750			
0.3502	22413.48	3.8590	3.8590	1.0571	26.21	0.26	0.750			
0.3534	22616.73	3.8560	3.8560	1.0665	26.21	0.26	0.750			
0.3566	22822.06	3.8530	3.8531	1.0777	26.21	0.26	0.750			
0.3599	23032.26	3.8500	3.8499	1.0942	26.21	0.26	0.750			
0.3631	23239.84	3.8470	3.8470	1.0971	26.21	0.26	0.750			
0.3664	23452.23	3.8440	3.8440	1.1118	26.21	0.26	0.750			
0.3698	23667.69	3.8410	3.8410	1.1275	26.20	0.25	0.750			
0.3732	23886.29	3.8380	3.8379	1.1322	26.20	0.25	0.750			
0.3766	24104.48	3.8350	3.8350	1.1482	26.19	0.24	0.750			
0.3801	24325.12	3.8320	3.8320	1.1641	26.19	0.24	0.750			
0.3836	24549.18	3.8290	3.8290	1.1806	26.18	0.23	0.750			
0.3871	24777.01	3.8260	3.8261	1.1926	26.18	0.23	0.750			
0.3907	25007.72	3.8230	3.8231	1.2123	26.18	0.23	0.750			
0.3944	25242.18	3.8200	3.8200	1.2289	26.17	0.22	0.750			
0.3982	25482.85	3.8170	3.8167	1.2389	26.17	0.22	0.750			
0.4019	25718.91	3.8140	3.8141	1.2570	26.16	0.21	0.750			
0.4056	25960.19	3.8110	3.8110	1.2813	26.16	0.21	0.750			
0.4096	26212.36	3.8080	3.8079	1.2879	26.15	0.20	0.750			
0.4134	26459.67	3.8050	3.8051	1.3164	26.15	0.20	0.750			
0.4174	26712.71	3.8020	3.8021	1.3350	26.14	0.19	0.750			
0.4215	26973.77	3.7990	3.7991	1.3471	26.13	0.18	0.750			
0.4256	27235.84	3.7960	3.7961	1.3616	26.13	0.18	0.750			
0.4296	27495.28	3.7930	3.7931	1.3738	26.12	0.17	0.750			
0.4338	27760.75	3.7900	3.7901	1.3863	26.11	0.16	0.750			
0.4380	28031.73	3.7870	3.7869	1.4048	26.10	0.15	0.750			
0.4421	28296.56	3.7840	3.7841	1.4070	26.09	0.14	0.750			
0.4465	28573.97	3.7810	3.7810	1.4061	26.08	0.13	0.750			
0.4507	28843.99	3.7780	3.7780	1.4387	26.07	0.12	0.750			
0.4550	29119.84	3.7750	3.7751	1.4476	26.06	0.11	0.750			
0.4593	29397.98	3.7720	3.7718	1.4535	26.05	0.10	0.750			
0.4638	29681.67	3.7690	3.7692	1.4555	26.04	0.09	0.750			
0.4681	29958.29	3.7660	3.7662	1.4835	26.03	0.08	0.750			
0.4725	30240.91	3.7630	3.7629	1.5288	26.01	0.06	0.750			
0.4771	30536.85	3.7600	3.7599	1.5436	26.00	0.05	0.750	0.343	0.409	
0.4819	30840.37	3.7570	3.7571	1.5747	25.98	0.03	0.750			
0.4868	31154.53	3.7540	3.7543	1.6142	25.97	0.02	0.750			
0.4917	31468.95	3.7510	3.7508	1.6430	25.96	0.01	0.750			
0.4966	31783.34	3.7480	3.7480	1.6562	25.95	0.00	0.750			
0.5016	32100.80	3.7450	3.7451	1.6816	25.94	-0.01	0.750			
0.5066	32423.83	3.7420	3.7421	1.7305	25.92	-0.03	0.750			
0.5119	32762.21	3.7390	3.7389	1.7820	25.91	-0.04	0.750			
0.5173	33106.58	3.7360	3.7361	1.8105	25.89	-0.06	0.750			
0.5228	33457.47	3.7330	3.7329	1.8794	25.87	-0.08	0.750			
0.5285	33825.76	3.7300	3.7300	1.9102	25.86	-0.09	0.750			
0.5345	34209.78	3.7270	3.7268	1.9140	25.85	-0.10	0.750			
0.5403	34582.22	3.7240	3.7241	1.9551	25.84	-0.11	0.750			
0.5461	34949.00	3.7210	3.7212	1.9780	25.82	-0.13	0.750			
0.5520	35331.17	3.7180	3.7175	2.0272	25.81	-0.14	0.750			
0.5582	35722.50	3.7150	3.7152	2.1241	25.79	-0.16	0.750			
0.5645	36127.24	3.7120	3.7119	2.2080	25.77	-0.18	0.750			
0.5714	36572.64	3.7090	3.7090	2.2861	25.76	-0.19	0.750			
0.5785	37024.73	3.7060	3.7061	2.3683	25.75	-0.20	0.750			
0.5858	37493.71	3.7030	3.7030	2.4332	25.74	-0.21	0.750			
0.5931	37958.68	3.7000	3.6998	2.5060	25.72	-0.23	0.750			
0.6007	38447.66	3.6970	3.6972	2.5414	25.70	-0.25	0.750			
0.6085	38942.14	3.6940	3.6942	2.6050	25.68	-0.27	0.750			
0.6164	39448.31	3.6910	3.6913	2.7117	25.67	-0.28	0.750			
0.6245	39970.77	3.6880	3.6880	2.7701	25.66	-0.29	0.750			
0.6329	40507.68	3.6850	3.6852	2.8844	25.64	-0.31	0.750			
0.6419	41080.38	3.6820	3.6821	2.9759	25.62	-0.33	0.750			
0.6510	41666.78	3.6790	3.6791	3.0928	25.62	-0.33	0.750			
0.6604	42263.22	3.6760	3.6762	3.2367	25.60	-0.35	0.750			
0.6704	42905.38	3.6730	3.6730	3.3369	25.58	-0.37	0.750			
0.6807	43564.00	3.6700	3.6702	3.4185	25.58	-0.37	0.750			
0.6912	44237.39	3.6670	3.6669	3.4595	25.58	-0.37	0.750			
0.7015	44896.85	3.6640	3.6641	3.3709	25.57	-0.38	0.750			
0.7118	45555.38	3.6610	3.6611	3.2095	25.56	-0.39	0.750			
0.7212	46157.35	3.6580	3.6580	2.9024	25.58	-0.37	0.750			
0.7293	46677.30	3.6550	3.6552	2.5778	25.58	-0.37	0.750			
0.7364	47130.54	3.6520	3.6520	2.2649	25.58	-0.37	0.750			
0.7424	47515.99	3.6490	3.6487	2.0116	25.59	-0.36	0.750			
0.7478	47861.11	3.6460	3.6458	1.7972	25.60	-0.35	0.750			
0.7529	48184.85	3.6430	3.6428	1.6503	25.60	-0.35	0.750			
0.7576	48485.87	3.6400	3.6401	1.5224	25.60	-0.35	0.750			
0.7619	48763.32	3.6370	3.6371	1.4100	25.60	-0.35	0.750			
0.7659	49017.58	3.6340	3.6340	1.3174	25.61	-0.34	0.750			
0.7696	49251.93	3.6310	3.6311	1.2552	25.61	-0.34	0.750			
0.7732	49487.77	3.6280	3.6278	1.2289	25.62	-0.33	0.750			
0.7768	49713.99	3.6250	3.6250	1.2172	25.62	-0.33	0.750			
0.7804	49946.71	3.6220	3.6220	1.2250	25.62	-0.33	0.750			
0.7842	50186.66	3.6190	3.6189	1.2264	25.62	-0.33	0.750			
0.7878	50421.01	3.6160	3.6161	1.2363	25.62	-0.33	0.750			
0.7916	50661.74	3.6130	3.6130	1.2409	25.63	-0.32	0.750			
0.7953	50902.08	3.6100	3.6100	1.2373	25.64	-0.31	0.750			
0.7991	51140.41	3.6070	3.6071	1.2274	25.64	-0.31	0.750			
0.8027	51374.70	3.6040	3.6041	1.2068	25.64	-0.31	0.750			
0.8063	51605.04	3.6010	3.6011	1.1992	25.65	-0.30	0.750			
0.8099	51833.03	3.5980	3.5978	1.1932	25.65	-0.30	0.750			
0.8133	52053.27	3.5950	3.5952	1.1950	25.65	-0.30	0.750			
0.8169	52283.48	3.5920	3.5920	1.2178	25.66	-0.29	0.750			
0.8207	52522.99	3.5890	3.5889	1.2348	25.66	-0.29	0.750			
0.8244	52758.93	3.5860	3.5860	1.2722	25.66	-0.29	0.750			
0.8282	53002.96	3.5830	3.5831	1.3054	25.66	-0.29	0.750			
0.8322	53260.38	3.5800	3.5800	1.3357	25.67	-0.28	0.750			
0.8362	53518.76	3.5770	3.5768	1.3787	25.67	-0.28	0.750			
0.8404	53783.32	3.5740	3.5742	1.4182	25.67	-0.28	0.750			
0.8447	54062.10	3.5710	3.5711	1.4624	25.68	-0.27	0.750			
0.8492	54348.49	3.5680	3.5678	1.4944	25.68	-0.27	0.750			
0.8537	54636.15	3.5650	3.5652	1.5125	25.68	-0.27	0.750			
0.8583	54934.11	3.5620	3.5621	1.5379	25.68	-0.27	0.750			
0.8631	55235.40	3.5590	3.5588	1.5491	25.68	-0.27	0.750			
0.8676	55528.43	3.5560	3.5559	1.5601	25.68	-0.27	0.750			
0.8724	55833.17	3.5530	3.5528	1.5882	25.68	-0.27	0.750			
0.8772	56142.96	3.5500	3.5501	1.6166	25.68	-0.27	0.750			
0.8821	56456.53	3.5470	3.5471	1.6192	25.69	-0.26	0.750			
0.8870	56770.02	3.5440	3.5441	1.6350	25.69	-0.26	0.750			
0.8921	57091.57	3.5410	3.5412	1.6708	25.70	-0.25	0.750			
0.8970	57404.89	3.5380	3.5378	1.6899	25.70	-0.25	0.750			
0.9020	57725.92	3.5350	3.5352	1.7294	25.71	-0.24	0.750			
0.9076	58086.61	3.5320	3.5317	1.6841	25.72	-0.23	0.750			
0.9130	58431.05	3.5290	3.5290	1.6055	25.73	-0.22	0.750			
0.9179	58745.03	3.5260	3.5264	1.3886	25.76	-0.19	0.750			
0.9221	59011.53	3.5230	3.5234	1.1575	25.78	-0.17	0.750			
0.9249	59191.54	3.5200	3.5200	0.8977	25.79	-0.16	0.750			
0.9268	59316.68	3.5170	3.5166	0.6510	25.80	-0.15	0.750			
0.9280	59390.59	3.5140	3.5139	0.4825	25.81	-0.14	0.750			
0.9292	59470.09	3.5110	3.5108	0.4121	25.81	-0.14	0.750			
0.9302	59535.45	3.5080	3.5079	0.3617	25.82	-0.13	0.750			
0.9312	59599.99	3.5050	3.5050	0.3338	25.83	-0.12	0.750			
0.9322	59659.93	3.5020	3.5020	0.3159	25.83	-0.12	0.750			
0.9331	59718.49	3.4990	3.4990	0.3017	25.84	-0.11	0.750			
0.9340	59774.08	3.4960	3.4959	0.2911	25.84	-0.11	0.750			
0.9348	59828.34	3.4930	3.4930	0.2823	25.85	-0.10	0.750			
0.9357	59881.71	3.4900	3.4901	0.2760	25.85	-0.10	0.750			
0.9365	59934.25	3.4870	3.4869	0.2707	25.85	-0.10	0.750			
0.9373	59985.78	3.4840	3.4841	0.2651	25.86	-0.09	0.750			
0.9381	60035.78	3.4810	3.4810	0.2602	25.87	-0.08	0.750			
0.9388	60085.52	3.4780	3.4780	0.2564	25.87	-0.08	0.750			
0.9396	60134.72	3.4750	3.4749	0.2519	25.88	-0.07	0.750			
0.9403	60182.33	3.4720	3.4720	0.2464	25.89	-0.06	0.750			
0.9411	60229.51	3.4690	3.4691	0.2412	25.89	-0.06	0.750			
0.9418	60275.33	3.4660	3.4660	0.2361	25.90	-0.05	0.750			
0.9425	60319.99	3.4630	3.4630	0.2315	25.90	-0.05	0.750			
0.9432	60363.27	3.4600	3.4600	0.2257	25.91	-0.04	0.750			
0.9438	60406.18	3.4570	3.4570	0.2208	25.91	-0.04	0.750			
0.9445	60448.44	3.4540	3.4539	0.2169	25.92	-0.03	0.750			
0.9452	60489.89	3.4510	3.4510	0.2125	25.93	-0.02	0.750			
0.9458	60530.22	3.4480	3.4481	0.2076	25.93	-0.02	0.750			
0.9464	60569.63	3.4450	3.4449	0.2036	25.94	-0.01	0.750			
0.9470	60608.14	3.4420	3.4420	0.1988	25.94	-0.01	0.750			
0.9476	60645.80	3.4390	3.4391	0.1939	25.95	-0.00	0.750			
0.9482	60682.63	3.4360	3.4361	0.1897	25.95	0.00	0.750			
0.9487	60718.90	3.4330	3.4330	0.1853	25.96	0.01	0.750			
0.9493	60753.87	3.4300	3.4300	0.1811	25.96	0.01	0.750			
0.9498	60788.34	3.4270	3.4269	0.1768	25.96	0.01	0.750			
0.9503	60821.85	3.4240	3.4240	0.1722	25.97	0.02	0.750			
0.9508	60854.37	3.4210	3.4209	0.1669	25.97	0.02	0.750			
0.9513	60886.24	3.4180	3.4180	0.1622	25.98	0.03	0.750			
0.9518	60917.05	3.4150	3.4151	0.1572	25.98	0.03	0.750			
0.9523	60946.69	3.4120	3.4119	0.1515	25.99	0.04	0.750			
0.9527	60975.25	3.4090	3.4090	0.1463	25.99	0.04	0.750			
0.9532	61002.55	3.4060	3.4059	0.1406	25.99	0.04	0.750			
0.9536	61029.08	3.4030	3.4031	0.1357	26.00	0.05	0.750			
0.9540	61054.94	3.4000	3.3999	0.1291	26.00	0.05	0.750			
0.9544	61079.42	3.3970	3.3970	0.1232	26.00	0.05	0.750			
0.9547	61102.71	3.3940	3.3941	0.1165	26.01	0.06	0.750			
0.9551	61124.60	3.3910	3.3911	0.1096	26.01	0.06	0.750			
0.9554	61145.92	3.3880	3.3877	0.0997	26.01	0.06	0.750			
0.9557	61164.43	3.3850	3.3849	0.0910	26.01	0.06	0.750			
0.9560	61181.27	3.3820	3.3820	0.0819	26.02	0.07	0.750			
0.9562	61195.97	3.3790	3.3793	0.0713	26.02	0.07	0.750			
0.9564	61210.06	3.3760	3.3764	0.0621	26.02	0.07	0.750			
0.9566	61220.80	3.3730	3.3735	0.0498	26.02	0.07	0.750			
0.9567	61229.19	3.3700	3.3712	0.0375	26.02	0.07	0.750			
0.9568	61235.22	3.3670	3.3689	0.0253	26.02	0.07	0.750			
0.9569	61238.89	3.3640	3.3676	0.0130	26.02	0.07	0.750			
